Sample:	'1
File name:	20250411光大三厂一期进水.FD3
Run date:	'09:15:16, 04/11/2025
Operator:	Administrator
Comment:	'

Instrument
Model:	F-2700 FL Spectrophotometer
Serial number:	23B8-004
ROM Version:	4J14000 07

Instrument parameters
Measurement type:	3-D scan
Data mode:	Fluorescence
EX  Start WL:	220.0 nm
EX  End WL:	600.0 nm
EX Sampling interval:	5.0 nm
EM  Start WL:	230.0 nm
EM  End WL:	650.0 nm
EM Sampling interval:	5.0 nm
Scan speed:	12000 nm/min
EX Slit:	5.0 nm
EM Slit:	5.0 nm
PMT Voltage:	700 V
Response:	Auto 
Corrected spectra:	Off
Contour interval:	50.000

Peak integration
Integration method:	Rectangular
Sensitivity:	1
Threshold:	1.000

Peaks
No.	ApexEX/EM(nm)	Height(Data)
1	225.0/300.0	2829
2	225.0/575.0	281.7
3	225.0/645.0	115.8
4	230.0/345.0	3453
5	260.0/440.0	1924
6	260.0/570.0	209.2
7	265.0/585.0	211.2
8	270.0/600.0	204.4
9	275.0/345.0	4778
10	275.0/610.0	190.7
11	455.0/340.0	9.865
12	560.0/345.0	23.01
13	565.0/350.0	22.93
14	575.0/290.0	262.8

Data points
	220.0	225.0	230.0	235.0	240.0	245.0	250.0	255.0	260.0	265.0	270.0	275.0	280.0	285.0	290.0	295.0	300.0	305.0	310.0	315.0	320.0	325.0	330.0	335.0	340.0	345.0	350.0	355.0	360.0	365.0	370.0	375.0	380.0	385.0	390.0	395.0	400.0	405.0	410.0	415.0	420.0	425.0	430.0	435.0	440.0	445.0	450.0	455.0	460.0	465.0	470.0	475.0	480.0	485.0	490.0	495.0	500.0	505.0	510.0	515.0	520.0	525.0	530.0	535.0	540.0	545.0	550.0	555.0	560.0	565.0	570.0	575.0	580.0	585.0	590.0	595.0	600.0
230.0	48.75	2186	6693	2561	94.07	13.25	10.84	9.639	9.567	9.000	8.887	8.759	8.071	6.893	5.818	4.670	4.030	4.019	3.620	3.105	2.738	2.647	2.350	2.182	1.923	1.717	1.658	1.518	1.389	1.360	1.277	1.155	1.138	0.966	0.906	0.906	0.761	0.637	0.600	0.585	0.540	0.499	0.472	0.472	0.434	0.442	2.299	11.45	22.14	17.73	7.361	1.420	0.358	0.273	0.311	0.245	0.251	0.243	0.213	0.215	0.189	0.156	0.144	0.175	0.156	0.163	0.136	0.138	0.136	0.129	0.107	0.103	0.102	0.084	0.085	0.076	0.087
235.0	69.14	601.4	4593	9469	3321	176.8	17.54	14.41	12.38	10.51	11.26	9.236	8.530	7.240	6.114	4.899	4.311	3.966	3.422	3.376	2.774	2.467	2.645	2.378	2.077	1.841	1.703	1.576	1.271	1.521	1.350	1.207	0.970	1.124	0.962	0.867	0.740	0.620	0.693	0.595	0.595	0.496	0.533	0.546	0.509	0.507	0.870	3.092	9.143	19.29	31.58	24.09	15.26	3.496	0.358	0.291	0.306	0.273	0.231	0.239	0.258	0.201	0.156	0.173	0.166	0.192	0.170	0.158	0.111	0.147	0.133	0.142	0.126	0.114	0.131	0.060	0.044
240.0	108.2	199.9	1423	8888	9999.9	2666	83.15	17.47	15.14	11.92	11.82	10.53	8.924	8.878	7.227	5.889	4.568	3.840	3.803	3.551	3.062	2.616	2.441	2.382	2.032	1.908	1.939	1.744	1.434	1.522	1.259	1.131	1.090	0.998	0.865	0.876	0.804	0.724	0.700	0.611	0.525	0.522	0.502	0.523	0.665	0.715	0.677	1.056	2.452	6.010	18.85	46.88	61.66	25.53	12.58	1.545	0.357	0.404	0.325	0.263	0.254	0.286	0.205	0.194	0.220	0.186	0.220	0.121	0.118	0.170	0.109	0.142	0.137	0.116	0.137	0.107	0.071
245.0	84.12	155.2	383.8	3156	9999.9	9999.9	425.1	40.17	20.50	14.75	13.65	12.16	10.99	9.188	7.198	5.969	5.401	4.481	3.977	3.451	3.342	2.726	2.683	2.491	2.363	2.250	2.114	1.783	1.384	1.534	1.402	1.086	1.066	1.177	0.905	0.917	0.934	0.771	0.718	0.600	0.557	0.570	0.535	0.495	0.576	0.636	0.792	0.845	0.926	1.733	4.801	17.15	47.98	80.66	81.97	23.29	8.198	0.681	0.354	0.325	0.292	0.250	0.234	0.171	0.214	0.149	0.222	0.148	0.176	0.152	0.148	0.143	0.128	0.128	0.153	0.106	0.084
250.0	62.26	135.0	242.7	801.2	3786	9999.9	9999.9	5866	117.9	24.62	20.44	16.35	13.83	10.75	8.873	6.928	6.318	4.878	4.306	3.675	3.768	3.166	2.980	2.595	2.391	2.180	2.128	2.037	1.791	1.562	1.424	1.367	1.116	1.129	0.983	0.988	0.969	0.829	0.794	0.585	0.635	0.644	0.566	0.554	0.593	0.560	0.626	0.799	0.964	1.011	1.486	4.255	11.94	27.83	54.42	81.16	107.4	85.52	15.85	7.214	0.681	0.407	0.390	0.323	0.267	0.227	0.232	0.204	0.164	0.201	0.183	0.170	0.187	0.168	0.163	0.147	0.164
255.0	56.39	73.97	174.3	388.9	927.1	2756	9999.9	9999.9	2200	134.5	34.87	21.97	18.91	14.07	10.82	7.929	6.869	6.156	5.450	4.314	4.175	3.511	3.177	2.681	2.781	2.281	2.149	2.206	1.872	1.791	1.474	1.611	1.221	1.250	1.132	1.005	1.001	1.046	0.828	0.778	0.745	0.646	0.634	0.676	0.640	0.578	0.482	0.604	0.734	0.910	1.308	1.805	3.193	6.584	12.66	20.04	45.11	109.8	179.5	164.0	24.44	8.509	0.665	0.451	0.403	0.394	0.320	0.318	0.267	0.222	0.256	0.197	0.183	0.199	0.185	0.159	0.182
260.0	60.14	65.10	93.75	281.1	410.1	690.2	3731	9999.9	9999.9	1761	86.67	33.95	24.77	17.04	12.89	9.838	8.456	7.052	5.863	5.149	4.256	3.838	3.532	3.178	2.937	2.437	2.467	2.396	2.171	2.002	1.709	1.668	1.448	1.516	1.207	1.228	1.037	1.000	0.994	0.686	0.859	0.816	0.698	0.712	0.649	0.575	0.537	0.637	0.561	0.655	1.006	1.743	1.934	2.286	3.330	4.954	10.78	30.65	88.44	190.4	222.7	151.1	19.90	3.609	0.669	0.555	0.437	0.390	0.327	0.286	0.356	0.317	0.300	0.227	0.208	0.227	0.197
265.0	73.36	70.19	70.24	147.2	359.3	313.6	919.9	5923	9999.9	9999.9	1256	56.04	34.11	23.59	16.26	11.47	9.452	7.926	6.729	6.336	5.122	4.207	3.752	3.172	3.310	2.708	2.760	2.159	2.461	2.262	1.980	1.807	1.735	1.576	1.427	1.231	1.107	1.010	0.977	0.848	0.911	0.861	0.827	0.729	0.746	0.788	0.607	0.637	0.629	0.537	0.656	1.108	1.774	2.122	1.775	1.715	3.004	7.404	21.31	59.35	145.7	264.7	223.5	29.81	13.62	1.249	0.627	0.539	0.436	0.470	0.358	0.340	0.399	0.283	0.311	0.266	0.229
270.0	206.0	252.5	230.2	137.8	207.1	372.2	419.0	1472	6535	9999.9	9999.9	4990	90.34	36.16	22.94	15.67	12.45	9.781	8.079	6.538	5.508	4.921	4.376	4.011	3.576	3.236	3.148	2.753	2.787	2.658	2.152	2.087	1.948	1.684	1.465	1.355	1.267	1.150	1.214	1.003	0.984	1.074	0.955	0.972	1.147	1.151	1.123	1.204	1.091	0.945	0.725	0.822	0.998	1.480	1.886	2.008	1.975	2.627	5.415	14.08	35.03	79.51	138.9	202.9	237.0	188.8	89.82	9.837	1.618	0.736	0.577	0.497	0.481	0.413	0.410	0.320	0.341
275.0	619.8	862.1	748.8	325.7	148.8	242.4	538.8	605.4	1662	3379	9999.9	9999.9	6567	97.05	39.07	23.98	18.09	13.55	9.788	8.656	6.436	5.781	5.201	4.786	4.517	3.981	3.450	3.261	2.779	2.667	2.424	2.239	2.291	2.171	1.719	1.745	1.535	1.427	1.296	1.315	1.262	1.248	1.462	1.642	1.965	2.294	2.453	2.632	2.384	1.992	1.272	1.071	0.858	0.949	1.131	1.511	2.578	3.724	3.191	4.347	9.083	19.00	32.19	47.84	79.41	189.4	363.8	237.8	29.93	13.58	1.319	0.962	0.671	0.583	0.605	0.464	0.451
280.0	1107	1439	1224	563.7	185.4	183.5	455.8	715.1	646.3	1092	4782	9999.9	9999.9	1010	71.45	35.26	23.37	16.92	12.55	10.26	8.146	6.405	5.366	5.265	4.632	4.409	3.937	3.346	3.135	3.028	2.696	2.380	2.610	2.073	2.054	2.009	1.762	1.609	1.546	1.588	1.523	1.684	1.625	2.106	2.709	3.407	3.897	4.325	3.849	3.194	1.966	1.304	1.088	0.962	1.144	1.128	1.775	3.146	4.051	3.920	4.046	6.086	9.054	12.73	19.84	48.05	135.7	280.5	401.9	222.0	25.24	8.252	1.211	0.827	0.777	0.684	0.682
285.0	1498	1957	1771	773.9	245.9	210.1	349.7	769.8	824.1	755.9	1591	7792	9999.9	9999.9	684.8	51.98	30.83	21.86	15.87	11.78	9.570	7.977	6.454	5.768	5.141	4.745	3.912	3.593	3.352	3.233	2.979	2.674	2.614	2.412	2.438	2.258	1.932	1.808	1.958	1.834	1.866	1.981	1.997	2.760	3.420	4.588	5.156	5.618	5.239	4.100	2.671	1.872	1.256	1.246	1.100	1.318	1.579	2.196	3.192	4.734	5.128	4.439	4.551	5.300	7.087	13.35	32.86	75.05	188.3	361.5	422.6	190.1	20.43	3.271	1.083	0.822	0.757
290.0	1867	2508	2225	1020	351.7	279.8	390.5	672.6	1114	1237	1258	2593	8209	9999.9	9999.9	2901	63.55	33.03	22.45	15.95	12.15	9.734	8.095	6.747	6.102	5.332	4.576	4.232	4.046	3.363	3.372	2.882	2.821	2.628	2.686	2.459	2.419	2.320	2.202	2.211	2.151	2.288	2.673	3.078	4.097	5.367	6.169	7.271	6.765	5.236	3.518	2.509	1.742	1.571	1.440	1.639	1.874	2.346	2.876	3.764	4.983	5.862	6.479	6.689	6.076	7.344	11.65	20.81	46.16	95.45	180.2	262.8	252.2	234.5	126.2	14.66	4.789
295.0	1987	2788	2450	1211	461.6	366.0	493.2	724.3	1100	1704	1828	1823	2747	3564	9999.9	9999.9	4083	68.95	33.88	22.07	17.07	12.90	10.11	8.706	6.868	6.208	5.332	5.074	4.094	3.755	3.637	3.236	2.996	2.925	2.853	2.775	2.520	2.631	2.554	2.428	2.318	2.555	3.117	3.498	4.717	5.724	6.543	8.095	7.884	5.986	4.084	3.093	2.369	1.874	1.753	2.071	2.384	2.911	3.235	3.918	4.511	5.440	7.298	9.192	9.493	8.753	8.798	10.54	15.39	26.40	44.25	61.93	69.21	152.6	351.0	437.8	209.7
300.0	1986	2829	2536	1275	551.2	449.2	595.1	828.7	1199	1741	2380	2061	1783	1502	4612	9999.9	9999.9	607.5	55.09	31.08	21.33	16.51	12.46	10.10	7.811	7.062	5.844	5.473	4.700	4.403	3.835	3.966	3.149	2.943	2.916	2.844	2.700	2.745	2.794	2.700	2.432	2.724	3.120	3.577	4.561	5.847	7.022	8.088	7.618	5.892	3.881	3.585	2.547	2.306	2.188	2.293	2.802	3.239	3.898	4.503	5.076	6.187	7.280	8.834	10.87	11.99	10.87	10.16	10.37	12.00	15.07	17.96	18.63	37.68	105.6	261.9	439.9
305.0	2023	2756	2502	1354	649.9	543.3	691.9	976.3	1356	1840	2497	2662	1897	1239	1518	7385	9999.9	9999.9	454.9	43.82	27.76	20.13	15.03	11.91	9.396	8.565	6.945	5.940	5.222	4.863	4.117	4.090	3.511	3.116	2.928	3.075	3.241	2.958	2.956	2.799	2.623	2.841	3.185	3.746	4.409	5.788	6.705	7.764	7.703	5.871	4.303	3.771	3.077	2.601	2.584	2.820	3.362	3.584	4.513	4.953	5.987	6.958	7.857	9.269	11.07	12.06	13.33	12.91	11.24	10.31	9.972	9.520	7.919	11.64	26.44	64.05	157.0
310.0	1879	2593	2427	1391	751.2	660.5	830.9	1140	1544	2053	2572	2914	2533	1563	1024	2031	7571	9999.9	9999.9	2108	51.52	29.07	20.12	15.07	11.96	9.509	8.160	6.601	6.143	5.378	4.825	4.314	3.808	3.405	2.977	3.131	3.102	3.002	2.902	2.845	2.790	2.919	3.265	3.588	4.468	5.382	6.395	7.486	7.582	5.872	4.387	4.042	3.415	3.006	3.027	3.312	3.857	4.333	4.893	5.690	6.771	7.941	8.959	9.940	11.08	12.26	13.19	13.94	13.71	13.03	11.47	9.289	7.357	7.290	9.315	16.98	37.21
315.0	1821	2426	2350	1451	868.5	798.0	990.3	1320	1774	2335	2839	3056	2904	2233	1234	953.6	1971	3114	9999.9	9999.9	3265	55.85	29.32	20.56	14.67	11.83	9.913	8.047	6.948	6.297	5.546	4.837	4.374	3.735	3.129	2.995	3.366	3.326	2.862	2.894	2.621	3.034	3.414	3.688	4.232	5.386	6.022	7.552	7.175	6.076	4.492	4.340	3.867	3.604	3.503	3.853	4.553	5.144	5.884	6.924	7.832	8.973	9.805	11.67	12.78	13.20	13.97	14.51	14.57	14.34	14.72	12.94	9.577	7.900	6.902	7.461	11.32
320.0	1830	2500	2431	1526	1005	916.9	1126	1486	1989	2587	3113	3343	3120	2632	1678	895.8	835.2	953.2	4180	9999.9	9999.9	472.6	48.03	26.92	19.16	14.02	11.13	9.156	8.151	6.258	5.878	4.966	4.638	3.719	3.429	3.204	3.376	3.320	3.271	3.171	3.029	2.992	3.414	3.682	4.537	5.503	6.202	7.497	7.298	6.370	4.956	4.521	4.174	3.752	3.956	4.182	5.234	5.768	6.378	7.766	8.527	9.662	11.13	12.37	13.52	14.37	15.48	15.85	15.95	15.09	14.98	14.16	12.99	10.25	7.744	6.613	6.553
325.0	1954	2670	2623	1741	1133	1053	1251	1655	2209	2834	3411	3659	3404	2824	2132	1127	696.6	535.8	1171	6275	9999.9	9999.9	390.6	39.55	24.68	18.11	12.89	10.82	8.739	6.851	6.356	5.297	4.589	3.869	3.501	3.396	3.370	3.323	3.231	2.971	3.245	3.113	3.506	3.843	4.777	5.764	6.746	8.077	7.683	6.410	5.542	5.030	4.823	4.543	4.748	4.742	5.575	6.442	7.005	8.445	9.302	10.78	12.20	13.62	15.07	16.27	17.24	17.02	17.10	17.57	16.50	14.80	14.22	13.28	10.74	7.586	6.588
330.0	2116	2933	2992	2074	1365	1216	1434	1867	2492	3185	3818	4103	3857	3185	2386	1541	905.1	555.0	549.4	1633	6202	9999.9	9999.9	1779	43.83	26.03	17.99	13.28	10.76	8.708	7.409	6.167	5.073	4.414	4.035	3.438	3.500	3.383	3.312	3.292	3.306	3.346	3.597	4.212	4.990	6.225	7.198	8.745	8.710	7.532	6.449	5.919	5.482	5.247	5.106	5.512	6.179	7.003	7.680	9.066	10.66	12.12	13.80	15.08	16.87	17.94	18.76	19.16	19.47	19.61	18.55	16.92	16.00	14.63	12.42	10.03	8.699
335.0	2258	3183	3213	2353	1616	1433	1632	2068	2775	3504	4201	4491	4282	3588	2666	1731	1268	733.3	515.5	635.0	1554	2870	9999.9	9999.9	3025	49.17	26.42	18.86	13.61	10.58	9.155	7.749	6.043	5.015	4.418	3.974	3.761	3.498	3.418	3.556	3.308	3.472	3.959	4.301	5.535	6.662	7.790	9.498	9.483	8.502	7.254	6.911	6.327	6.280	6.123	6.156	7.136	7.465	9.011	10.23	12.02	13.00	15.07	17.01	18.86	19.51	20.47	20.61	22.12	21.67	20.18	19.14	17.72	15.92	13.04	10.93	10.24
340.0	2316	3319	3361	2497	1762	1542	1731	2210	2896	3664	4363	4700	4507	3836	2849	1821	1370	989.8	597.9	467.4	548.3	779.3	3654	9999.9	9999.9	2441	43.22	23.68	17.12	13.07	10.11	8.770	6.637	5.673	4.692	4.387	3.826	3.747	3.542	3.607	3.410	3.718	4.016	4.517	5.616	6.908	8.054	9.865	9.563	8.678	7.310	7.539	6.815	6.622	6.280	6.595	7.443	8.408	9.469	11.14	12.60	14.07	16.38	17.83	19.11	20.66	21.28	21.84	22.93	22.06	21.35	19.81	18.92	17.35	14.31	11.56	10.79
345.0	2396	3302	3453	2578	1832	1614	1790	2256	2940	3729	4446	4778	4598	3947	2953	1901	1349	1093	746.6	483.1	364.4	342.3	949.6	5240	9999.9	9999.9	377.6	34.39	20.99	15.71	12.06	9.696	7.173	6.006	5.146	4.294	3.985	3.869	3.707	3.568	3.682	3.847	4.120	4.451	5.713	7.037	8.241	9.805	9.724	8.959	7.620	7.888	7.005	6.735	6.592	6.861	7.846	8.525	9.649	11.15	12.80	14.28	16.92	18.24	19.64	20.64	21.60	22.29	23.01	22.67	22.10	20.72	20.10	17.77	14.70	12.34	10.94
350.0	2335	3256	3294	2548	1885	1678	1845	2297	2965	3712	4399	4721	4547	3937	2993	1972	1390	1083	901.5	650.8	415.8	313.6	387.3	1319	5248	9999.9	9999.9	7168	39.70	21.36	15.51	11.18	8.276	6.986	5.572	4.832	4.270	3.994	3.797	3.609	3.736	3.820	4.209	4.437	5.665	6.909	8.014	9.561	9.717	8.352	7.482	7.881	7.217	6.778	6.888	7.053	7.953	8.598	9.608	10.89	12.82	14.03	16.07	18.24	19.75	20.68	21.41	22.22	22.44	22.93	22.08	20.86	20.21	17.93	15.03	12.67	11.29
355.0	2213	3090	3129	2490	1922	1731	1890	2298	2923	3645	4271	4572	4401	3844	2968	2000	1451	1124	928.9	834.1	575.0	401.4	341.1	486.1	1314	2676	9999.9	9999.9	2982	45.01	22.04	14.63	10.53	8.162	6.147	5.357	4.616	4.304	3.899	3.818	3.587	3.794	4.104	4.585	5.610	6.726	7.536	9.107	8.900	8.232	7.290	7.828	7.038	7.194	6.944	6.838	8.020	8.660	9.486	10.93	12.63	14.23	15.92	17.52	18.83	19.83	20.29	21.31	21.91	22.40	21.33	20.97	19.45	18.01	15.13	12.53	11.80
360.0	2149	2959	2979	2401	1937	1750	1906	2281	2859	3551	4113	4406	4233	3739	2923	2000	1488	1177	971.7	877.2	752.3	521.2	397.6	354.3	476.4	736.0	3136	9999.9	9999.9	2515	39.73	18.57	13.26	9.635	7.064	5.848	4.993	4.752	4.265	3.799	3.601	3.708	4.133	4.617	5.362	6.677	7.495	8.809	8.532	7.895	7.145	7.918	7.317	7.033	6.999	6.907	8.022	8.993	9.525	10.80	12.52	13.70	15.29	16.86	18.28	19.23	19.64	20.80	21.13	21.23	20.67	20.27	19.16	17.63	14.85	12.70	11.56
365.0	2060	2788	2849	2313	1935	1781	1915	2267	2784	3424	3978	4225	4068	3598	2861	1992	1521	1232	1030	904.7	834.6	692.4	494.5	386.4	340.1	334.2	825.9	4117	9999.9	9999.9	367.2	31.08	17.43	12.05	8.281	6.329	5.653	4.790	4.364	4.009	3.575	3.909	3.924	4.484	5.188	6.484	7.146	8.689	8.333	7.660	6.962	7.704	7.446	7.097	6.981	7.100	8.153	8.833	9.548	10.64	12.09	13.56	15.21	16.89	17.77	18.44	18.70	19.70	20.61	20.25	19.96	19.33	19.16	16.82	14.41	12.80	11.28
370.0	1965	2640	2664	2249	1930	1813	1899	2201	2675	3231	3724	3957	3811	3418	2726	1983	1560	1312	1136	1008	893.9	839.9	695.0	513.3	393.9	310.3	348.3	1039	4275	9999.9	9999.9	7611	35.17	17.89	11.61	8.213	6.532	5.638	4.753	4.462	3.821	4.061	4.037	4.300	5.234	6.168	6.796	7.856	7.713	7.073	6.772	7.771	7.432	7.139	7.077	7.224	8.051	8.501	9.438	10.22	11.33	12.61	14.13	15.74	16.55	17.09	17.80	18.42	19.13	18.78	18.34	17.67	18.02	15.72	14.28	12.35	11.52
375.0	1812	2471	2485	2168	1927	1834	1905	2137	2556	3011	3468	3644	3555	3223	2622	1962	1589	1381	1240	1116	1000	913.1	855.6	701.1	496.4	380.4	300.8	382.8	1060	2520	9999.9	9999.9	2661	39.30	17.69	11.07	8.235	6.475	5.532	4.923	4.115	4.159	4.229	4.392	4.949	6.122	6.661	7.588	7.306	6.865	6.350	7.683	7.298	6.808	7.499	7.308	7.870	8.364	9.389	9.859	10.82	11.87	13.54	14.48	15.57	15.88	16.55	17.15	17.65	17.66	17.28	17.00	16.82	15.21	13.27	12.50	11.67
380.0	1765	2337	2366	2101	1930	1840	1881	2075	2430	2870	3233	3414	3340	3049	2516	1936	1618	1428	1309	1187	1081	982.6	904.4	825.0	619.8	456.6	335.0	276.9	373.5	664.0	2866	9999.9	9999.9	2271	33.40	14.83	10.25	8.099	6.258	5.245	4.521	4.357	4.431	4.498	5.194	5.921	6.427	7.128	6.888	6.767	6.258	7.499	7.386	6.872	7.676	7.051	8.178	8.170	8.958	9.572	10.39	11.41	12.49	13.22	14.68	15.16	16.00	15.96	16.51	16.39	16.45	16.05	16.05	14.65	13.39	12.29	11.82
385.0	1651	2227	2333	2059	1942	1844	1873	2031	2313	2702	3059	3199	3147	2903	2447	1909	1632	1471	1349	1255	1144	1054	955.3	880.9	750.5	547.1	399.4	300.3	261.7	278.1	741.8	3614	9999.9	9999.9	307.3	24.83	13.08	10.05	7.239	5.785	5.186	4.400	4.499	4.554	4.768	5.548	6.101	6.927	6.551	6.520	6.118	7.759	7.801	7.379	7.811	7.148	8.070	8.003	8.503	9.155	10.13	10.81	12.39	12.96	13.69	14.19	14.44	14.66	15.26	15.86	15.46	15.77	15.09	14.16	12.95	11.76	11.22
390.0	1534	2110	2186	2030	1912	1833	1845	1971	2211	2536	2824	2973	2937	2734	2334	1891	1650	1510	1395	1310	1218	1137	1038	935.1	849.0	708.2	519.7	396.4	317.6	261.3	314.7	922.3	3567	9999.9	9999.9	6131	28.21	13.97	9.368	7.107	5.998	5.054	4.809	4.706	4.740	5.695	5.897	6.840	6.694	6.207	6.189	7.253	7.391	7.312	7.531	7.228	8.303	7.929	8.624	9.060	9.613	10.48	11.25	12.22	12.73	13.09	13.60	13.52	14.34	14.61	14.76	14.66	14.43	13.93	12.89	11.94	11.37
395.0	1449	1934	2096	1966	1931	1850	1844	1934	2116	2371	2628	2753	2724	2589	2240	1861	1650	1523	1426	1349	1278	1211	1122	1022	918.7	828.7	700.2	528.2	426.4	342.3	288.1	366.3	910.7	2428	9571	9999.9	2217	33.65	13.74	9.128	7.362	5.883	5.066	4.987	5.022	5.631	5.855	6.386	6.535	6.064	5.990	7.307	7.348	7.565	7.387	7.167	8.091	8.047	8.069	8.793	9.255	10.14	11.02	11.21	11.55	12.39	12.34	12.70	13.55	13.92	13.35	13.45	13.41	13.55	12.22	11.74	11.67
400.0	1405	1847	2027	1946	1928	1835	1838	1905	2067	2256	2467	2599	2582	2454	2160	1826	1634	1519	1430	1359	1303	1242	1179	1083	978.9	887.3	815.2	658.1	522.1	421.9	333.1	282.4	347.4	642.9	2517	9999.9	9999.9	1999	28.51	12.01	8.624	7.013	5.711	5.421	5.114	5.636	5.910	6.627	6.437	5.957	5.805	7.115	7.051	7.429	7.534	7.288	7.908	8.233	8.531	8.578	9.206	9.637	10.19	10.62	11.00	11.38	11.89	12.08	12.50	12.64	12.76	13.16	12.86	12.47	11.83	11.64	11.06
405.0	1324	1785	1918	1921	1902	1834	1852	1911	2021	2196	2367	2465	2454	2350	2080	1775	1606	1490	1418	1358	1308	1263	1212	1130	1035	942.4	865.9	769.9	626.3	504.4	398.6	306.4	252.5	265.2	647.4	3006	9999.9	9999.9	1529	22.71	10.64	8.044	6.137	5.464	5.592	5.451	5.611	6.168	6.230	5.820	5.883	6.975	7.495	7.617	7.735	7.455	7.813	8.166	8.354	8.301	9.117	9.338	9.871	10.11	10.59	11.05	11.44	10.98	11.82	11.83	12.05	12.60	12.35	11.85	11.22	10.81	10.44
410.0	1199	1636	1825	1877	1873	1819	1829	1895	1969	2104	2239	2318	2312	2199	1971	1702	1539	1441	1377	1329	1296	1268	1226	1171	1093	1008	920.3	852.4	762.3	620.2	486.4	374.4	281.6	220.7	254.9	749.2	3027	9999.9	9999.9	5090	24.92	11.37	7.932	6.372	5.732	5.704	5.452	6.105	6.025	5.893	5.758	6.806	7.403	7.307	7.407	7.243	7.701	7.932	8.175	8.606	8.871	9.330	9.280	9.714	10.10	10.40	10.56	10.50	11.41	11.35	11.56	11.61	11.63	11.49	10.93	10.64	10.14
415.0	1150	1562	1745	1795	1852	1796	1815	1891	1947	2046	2125	2162	2140	2041	1839	1596	1460	1369	1309	1280	1250	1239	1216	1180	1126	1057	977.9	894.9	840.2	740.9	581.3	442.4	338.9	253.0	199.8	266.8	744.9	2350	7100	9999.9	2014	29.97	11.04	8.127	6.564	5.980	5.392	6.163	5.688	5.730	5.570	6.862	7.340	7.094	7.534	7.290	7.841	8.271	7.942	8.542	8.478	8.958	9.032	9.417	9.787	9.661	9.347	9.876	10.52	10.18	10.61	11.00	10.83	10.67	10.06	9.992	9.721
420.0	1053	1440	1643	1733	1795	1801	1820	1883	1912	1991	2037	2050	2032	1932	1738	1513	1387	1310	1258	1230	1216	1207	1195	1174	1134	1077	1009	927.8	867.0	806.1	661.7	503.2	385.2	286.1	209.8	177.0	251.2	583.7	1824	9227	9999.9	1771	25.08	10.26	7.672	6.602	5.759	5.907	5.732	5.597	5.590	6.838	7.297	7.076	7.468	7.278	7.764	7.865	8.311	8.853	8.799	8.550	9.261	9.162	9.181	9.224	9.580	9.686	10.09	9.917	10.23	9.789	10.10	9.683	9.712	9.413	9.296
425.0	1032	1346	1594	1714	1766	1802	1838	1872	1904	1930	2001	1970	1920	1806	1628	1437	1313	1244	1204	1180	1170	1178	1175	1164	1132	1097	1034	960.3	899.7	829.3	734.1	566.6	430.3	324.7	240.3	181.8	156.3	201.4	459.9	2571	9999.9	9999.9	1337	18.69	9.322	7.928	6.141	6.287	5.852	5.757	5.639	6.793	6.879	7.080	7.197	7.210	7.904	8.079	8.227	8.588	8.354	8.571	9.125	8.711	9.431	8.994	9.188	9.332	9.524	9.167	9.561	9.456	9.667	9.392	9.118	8.945	8.711
430.0	1071	1241	1532	1651	1735	1795	1831	1891	1907	1906	1937	1888	1814	1706	1530	1343	1233	1172	1133	1113	1111	1126	1133	1138	1126	1101	1057	1003	941.3	868.8	778.6	652.9	503.2	380.9	288.0	215.6	163.9	138.8	169.6	623.3	2775	9055	9999.9	3983	22.54	10.49	7.581	6.683	6.017	5.677	5.531	6.701	6.998	7.086	7.138	7.346	8.036	8.330	8.223	8.624	8.718	8.578	8.778	8.968	9.116	9.035	8.894	8.736	8.824	8.983	8.886	8.947	9.011	8.844	8.591	8.270	8.209
435.0	1509	1221	1421	1605	1695	1785	1854	1909	1924	1895	1875	1837	1726	1596	1427	1250	1150	1095	1061	1050	1046	1069	1091	1102	1107	1097	1066	1022	985.3	910.9	810.0	703.5	588.1	445.4	336.4	258.0	196.3	148.7	123.4	201.6	663.6	2101	6084	9999.9	1872	27.87	10.42	8.087	6.882	5.830	5.502	6.877	6.780	7.346	7.607	7.527	8.192	8.444	8.520	8.831	8.887	8.980	8.793	8.536	8.509	8.823	8.887	8.355	8.673	8.788	8.453	8.673	8.686	8.149	8.238	8.168	7.959
440.0	1985	1271	1391	1584	1678	1753	1857	1905	1924	1867	1856	1772	1664	1529	1356	1190	1091	1036	1004	989.5	995.2	1029	1052	1070	1082	1077	1061	1024	991.9	932.4	836.1	723.2	623.4	494.6	374.1	289.0	222.3	166.8	127.6	118.7	202.0	509.5	1572	8516	9999.9	1584	21.85	10.23	7.712	6.459	5.970	6.966	7.045	7.585	7.602	7.424	8.255	8.748	8.369	9.089	8.913	9.240	8.937	8.592	8.791	8.567	8.632	8.097	8.544	8.304	8.055	8.119	8.718	7.614	7.723	7.384	7.414
445.0	2033	1727	1318	1543	1628	1756	1837	1898	1906	1853	1816	1719	1594	1457	1277	1121	1028	972.4	950.3	932.3	944.5	977.0	1006	1032	1051	1052	1043	1021	988.5	937.2	850.6	737.9	632.1	533.0	411.6	317.2	245.6	188.1	143.9	114.2	109.6	160.4	388.5	2405	9999.9	9999.9	217.4	17.40	9.244	6.913	6.393	7.144	7.180	7.327	7.756	7.447	8.409	8.821	8.509	9.238	8.453	8.689	8.929	8.970	8.946	8.132	8.239	8.100	7.837	7.988	7.443	7.389	7.766	7.447	6.992	7.113	6.807
450.0	1490	2963	1609	1440	1566	1694	1781	1845	1842	1798	1738	1636	1506	1343	1172	1030	935.6	890.9	863.6	862.7	872.3	900.8	932.7	953.0	983.4	994.3	997.0	982.2	962.3	924.8	848.4	744.1	635.4	543.8	452.8	354.1	273.1	212.5	165.5	128.7	102.4	94.00	130.6	570.7	2785	8606	9999.9	3407	19.55	9.377	7.222	7.471	7.421	7.163	7.514	7.615	8.186	8.488	8.376	8.908	8.409	8.401	8.735	8.330	8.150	7.885	7.644	7.636	7.454	7.574	7.062	7.329	6.818	6.867	6.688	6.655	6.381
455.0	820.9	3257	3210	1392	1500	1590	1707	1764	1766	1702	1642	1541	1394	1231	1062	927.2	838.6	797.8	777.9	777.1	786.7	813.5	844.5	871.9	905.8	920.2	928.7	923.5	921.4	889.2	826.4	731.3	631.8	534.9	461.0	383.6	301.2	234.8	185.9	146.4	112.8	88.63	80.91	165.2	649.6	1993	5493	9999.9	1540	21.39	9.270	8.420	7.790	7.359	7.188	7.225	7.975	8.528	8.284	8.352	8.404	7.975	7.931	7.917	7.949	7.417	7.289	7.159	7.039	6.998	6.814	6.813	6.322	6.422	6.228	6.375	5.965
460.0	606.7	2367	5213	1741	1402	1500	1638	1705	1677	1637	1560	1461	1307	1156	979.0	856.3	766.2	729.4	712.0	709.3	720.5	749.9	781.3	810.9	836.6	861.2	870.7	874.2	873.5	850.7	797.2	714.3	620.5	527.8	452.5	391.8	316.6	245.7	196.8	157.3	124.6	95.49	74.83	79.25	175.9	470.1	1377	7137	9999.9	1200	18.18	9.942	7.923	7.539	7.435	7.267	7.912	7.943	8.247	8.167	8.141	8.118	8.074	7.416	7.227	7.398	6.701	7.364	6.635	6.316	6.267	6.605	5.749	5.803	5.644	5.736	5.439
465.0	534.4	1307	6018	3244	1331	1424	1549	1628	1592	1551	1485	1395	1218	1074	906.9	787.8	704.8	669.8	650.4	652.4	664.2	688.4	723.8	745.7	774.4	798.8	815.2	823.5	824.1	811.7	764.2	684.9	597.9	515.5	439.0	381.8	326.6	258.4	205.6	165.3	132.0	102.6	77.49	62.61	74.03	131.7	329.7	1963	8923	9220	943.5	16.75	9.638	7.762	7.512	6.966	7.912	7.816	7.943	7.712	7.475	7.653	7.519	7.368	7.034	7.077	6.694	6.598	6.245	6.065	5.735	6.150	5.461	5.517	4.905	5.020	4.892
470.0	466.0	783.8	3829	6754	1997	1309	1415	1493	1479	1435	1372	1274	1113	973.6	815.5	691.7	620.9	592.7	574.6	576.2	584.3	605.7	635.9	662.9	689.0	714.4	727.2	742.0	747.4	742.7	700.2	635.7	560.5	489.0	419.6	361.9	312.3	267.0	214.3	170.4	136.7	107.1	82.79	63.07	55.48	58.78	97.05	458.2	2413	6665	7804	2645	20.08	9.413	8.118	7.184	7.766	7.467	7.441	7.331	7.350	7.079	6.963	6.794	6.478	6.347	6.267	6.168	5.851	5.681	5.413	5.253	5.239	4.945	4.654	4.412	4.285
475.0	431.2	589.3	1548	7306	4856	1239	1300	1359	1341	1294	1245	1153	1011	867.9	720.5	606.6	542.6	513.8	500.7	501.1	508.5	526.9	554.7	578.8	602.4	625.1	642.6	653.9	665.7	662.0	633.3	579.3	514.2	454.0	394.4	341.6	294.5	258.3	219.1	176.0	138.5	109.0	86.10	65.74	52.22	45.58	46.68	121.8	552.8	1527	3693	8359	1522	23.81	9.415	7.528	7.741	7.112	6.674	6.616	6.655	6.486	6.146	5.872	5.976	5.730	5.716	5.551	5.491	5.214	4.889	4.703	4.741	4.373	4.210	3.967	3.974
480.0	404.9	544.9	879.8	4761	8809	1799	1207	1259	1253	1211	1149	1069	931.7	796.8	661.0	555.8	493.4	465.4	456.6	453.5	456.9	476.7	499.7	525.3	548.3	567.2	585.7	598.0	606.6	610.8	587.1	541.4	482.0	432.0	374.8	325.0	279.8	244.0	216.4	178.7	142.5	109.8	88.66	68.61	53.89	43.05	36.63	48.34	139.7	354.2	905.6	4642	7833	1348	19.72	8.798	8.012	7.165	6.789	6.500	6.394	5.970	5.891	5.494	5.834	5.297	5.348	4.961	4.952	4.700	4.529	4.160	4.108	4.208	3.875	3.631	3.454
485.0	362.1	496.7	683.1	2249	9999.9	3813	1127	1180	1183	1147	1086	996.8	871.1	745.9	611.6	513.8	455.6	426.7	417.2	411.4	420.1	438.7	459.7	483.4	503.4	516.9	538.9	550.9	562.9	565.9	545.2	507.4	457.2	407.9	357.7	313.4	270.5	235.4	207.9	180.0	143.9	112.4	89.10	71.17	56.37	45.42	35.76	33.21	49.23	93.71	215.4	1230	6075	7196	209.1	15.51	8.737	7.369	7.164	6.260	6.253	6.005	5.678	5.672	5.648	5.436	5.191	4.845	4.827	4.607	4.503	4.157	3.817	3.827	3.778	3.468	3.218
490.0	324.1	493.8	605.4	1067	6129	9294	1934	1091	1072	1060	1004	922.1	798.5	678.1	549.6	458.3	408.3	385.0	374.3	366.6	376.7	391.7	413.0	429.9	448.8	463.8	480.1	497.2	509.5	509.2	495.9	462.8	422.3	378.8	335.4	295.6	257.3	224.5	197.0	173.4	148.5	117.5	91.73	73.98	59.20	48.39	38.42	32.30	31.57	36.94	61.78	287.2	1596	4632	6230	2527	21.06	9.212	7.371	6.370	6.236	5.764	5.463	5.540	5.326	5.019	4.695	4.654	4.647	4.184	4.018	3.797	3.596	3.607	3.335	3.112	2.972
495.0	288.5	456.1	565.6	728.2	2193	9999.9	6016	1035	979.6	950.0	904.4	834.6	734.0	601.7	492.1	406.8	361.8	340.8	332.1	323.4	330.4	344.1	363.2	377.9	395.7	409.2	425.2	435.9	452.6	453.4	446.3	415.5	381.6	346.1	307.5	274.6	240.7	210.8	184.9	160.8	142.7	121.1	94.99	75.24	60.59	51.07	40.79	34.21	29.32	26.65	29.38	77.77	368.2	1059	3089	7723	1734	26.98	9.095	7.024	6.133	5.830	5.461	5.251	4.966	4.604	4.270	4.454	4.222	3.770	3.611	3.531	3.353	3.068	3.115	2.656	2.755
500.0	248.9	381.6	523.5	616.7	1022	6460	9999.9	1512	897.4	886.5	837.2	767.2	666.9	550.0	449.3	367.1	326.1	308.0	297.5	294.1	299.7	311.2	326.3	341.8	357.1	367.7	385.1	394.0	406.9	414.2	406.7	382.3	347.6	318.6	284.4	256.7	226.7	199.7	176.2	152.2	134.1	118.8	96.95	75.92	62.39	52.32	43.40	36.14	30.88	25.51	23.40	32.03	95.62	249.3	756.6	4096	7508	1490	22.57	8.373	6.523	5.848	5.296	4.972	4.598	4.560	3.886	4.311	3.876	3.605	3.345	3.461	3.145	2.689	2.869	2.670	2.596
505.0	226.0	352.0	475.5	558.0	702.6	2868	9999.9	2888	848.6	817.7	784.8	706.5	609.5	504.2	407.6	332.6	295.3	278.1	268.1	267.1	270.8	278.2	294.7	307.6	322.0	334.3	349.0	357.8	366.3	377.3	368.2	348.8	320.2	292.6	265.4	237.9	210.2	186.9	166.5	144.0	125.0	110.9	97.77	77.56	62.15	52.57	44.10	37.65	31.41	27.01	23.13	23.13	35.97	69.82	183.1	1058	5101	6736	234.6	16.87	7.259	5.866	5.050	5.101	4.377	4.182	3.723	3.821	3.585	3.487	3.141	3.156	2.630	2.543	2.395	2.190	2.287
510.0	197.8	290.1	404.7	520.1	563.2	1135	7141	9999.9	1398	727.1	681.6	630.9	541.2	444.3	356.9	289.9	258.2	238.7	233.4	233.6	234.9	241.4	254.2	264.2	276.6	288.1	298.0	308.9	320.6	327.8	322.4	304.5	282.3	258.3	235.3	212.2	190.3	170.2	152.0	132.2	115.3	100.1	90.27	78.34	63.35	51.96	44.15	37.68	31.81	27.65	24.06	21.71	23.75	30.08	54.63	249.4	1304	3919	5133	2079	20.80	7.081	5.286	4.849	4.390	3.890	3.583	3.439	3.246	3.146	2.949	2.726	2.535	2.320	2.297	2.123	2.071
515.0	177.0	249.5	342.7	466.3	484.8	645.3	2369	9999.9	5484	672.7	603.5	549.5	470.5	382.7	308.6	251.5	221.5	208.5	201.8	199.1	199.7	205.7	216.1	225.9	235.9	244.6	255.5	262.3	276.4	280.8	276.4	264.3	242.6	223.5	204.2	185.7	168.6	150.8	136.1	120.2	104.3	90.87	79.75	73.90	63.77	52.48	43.54	37.73	31.60	27.71	23.69	21.55	21.00	21.27	25.61	68.75	302.0	890.3	2159	5634	1728	27.31	6.312	4.824	4.122	3.783	3.481	3.240	2.799	2.922	2.582	2.487	2.259	1.976	1.970	1.852	1.719
520.0	165.7	228.5	302.3	408.9	459.0	495.1	938.4	7460	9999.9	1034	548.9	488.6	421.5	344.4	272.1	224.7	196.6	184.0	177.8	175.0	178.9	181.8	191.1	198.3	208.7	218.0	223.6	233.0	241.8	247.6	243.3	233.2	215.7	199.0	184.5	169.2	153.4	137.5	125.2	110.4	96.68	84.44	72.83	67.17	62.80	53.58	42.48	36.27	31.26	27.00	23.69	20.98	20.00	19.07	18.66	27.18	78.08	208.3	515.1	2739	5415	1474	22.47	5.452	4.123	3.846	3.162	3.218	2.535	2.620	2.323	2.195	2.095	1.870	1.813	1.695	1.578
525.0	142.8	201.6	252.6	342.5	440.7	433.3	562.5	3208	9999.9	2114	497.6	445.6	374.5	309.0	245.5	203.8	177.4	166.2	162.1	157.5	159.5	160.8	168.9	177.5	188.0	191.8	199.1	207.6	213.8	221.6	218.8	207.0	194.3	178.1	165.8	154.5	138.2	125.5	113.0	100.2	90.84	78.48	69.47	60.42	57.09	52.35	42.64	34.37	30.53	26.29	23.21	20.46	19.13	17.39	16.86	17.56	27.65	55.39	123.4	680.1	3231	4918	1113	16.00	4.700	4.058	3.377	3.052	2.569	2.638	2.168	1.997	2.078	1.724	1.538	1.662	1.574
530.0	122.1	162.7	217.1	278.1	376.8	397.2	430.2	1094	8041	9999.9	956.1	389.0	329.5	268.8	213.3	174.4	153.5	142.6	137.9	135.2	136.6	138.9	144.1	152.2	159.1	164.7	170.8	177.1	183.5	189.1	185.4	178.1	166.6	154.5	142.2	133.3	119.5	109.2	99.53	88.34	79.86	70.52	62.24	54.05	49.78	47.04	42.35	33.82	28.63	24.63	21.81	19.56	17.64	16.30	15.77	14.29	15.43	20.61	34.58	158.1	798.1	2524	3726	1055	20.34	5.186	3.522	2.995	2.493	2.263	1.997	1.714	1.750	1.565	1.507	1.382	1.358
535.0	100.4	150.8	200.8	237.8	296.6	375.3	352.2	522.9	2489	9999.9	4862	350.5	285.1	228.3	180.3	147.1	129.4	119.8	116.1	115.3	114.3	118.0	123.9	127.4	132.7	137.0	142.1	148.2	152.5	158.0	155.8	148.9	141.6	129.5	119.8	110.3	101.7	94.20	86.63	76.96	68.51	61.16	54.97	48.14	43.04	40.07	38.76	33.37	26.90	22.98	19.52	17.70	16.04	14.82	14.73	12.90	11.83	11.95	13.99	41.03	182.8	569.8	1316	3571	1725	28.33	4.412	3.246	2.433	2.185	1.766	1.749	1.661	1.342	1.369	1.247	1.198
540.0	111.6	151.1	181.6	204.0	248.2	334.5	319.5	366.9	834.0	7686	9999.9	577.2	252.8	201.8	160.7	129.7	114.8	106.3	101.4	98.75	101.6	102.5	107.4	112.1	116.0	119.2	121.5	126.7	131.7	134.9	133.9	128.1	122.3	113.4	104.8	95.83	89.37	82.95	76.22	67.29	61.61	54.68	48.43	43.61	39.48	35.23	33.97	31.70	26.59	21.56	18.19	16.54	15.00	13.88	13.67	12.01	10.68	9.382	9.086	14.78	45.45	131.7	305.5	1553	3737	1428	22.54	3.676	2.715	2.155	1.811	1.685	1.386	1.180	1.300	1.043	1.151
545.0	113.9	176.7	199.2	196.9	214.2	279.7	307.7	297.9	422.3	3029	9999.9	1486	224.1	178.8	139.8	114.9	100.4	93.08	91.48	87.34	88.00	89.23	93.81	95.16	100.4	102.6	105.5	110.4	113.2	116.3	115.9	112.7	106.4	98.98	91.40	84.44	78.25	72.57	67.04	59.67	55.41	48.27	43.60	38.69	35.90	31.59	30.16	28.04	25.91	20.56	17.31	15.38	13.73	12.68	12.37	11.37	10.17	8.808	7.685	8.158	14.70	33.77	72.61	371.3	1914	3461	1007	16.29	3.193	2.302	1.732	1.417	1.404	1.240	1.046	1.028	1.115
550.0	149.5	204.3	207.9	179.3	169.7	212.8	283.7	265.1	290.4	917.4	7718	9064	501.5	151.5	119.0	97.26	85.06	78.96	75.25	73.49	72.02	73.27	76.09	78.08	82.03	85.12	87.75	90.74	93.65	96.49	95.76	92.05	87.33	81.48	75.28	70.06	64.90	60.98	56.01	50.92	45.74	40.51	37.20	33.69	30.48	27.25	25.43	23.63	22.43	19.96	16.44	13.66	12.38	11.43	10.78	9.773	9.148	8.084	6.981	6.445	7.486	11.23	19.70	86.40	456.5	1523	2437	1048	93.90	3.589	1.915	1.508	1.324	1.191	1.011	0.950	0.979
555.0	153.6	215.5	215.6	164.4	141.8	160.6	237.6	251.9	229.6	372.5	2193	9999.9	3234	135.8	97.57	78.48	70.25	63.45	60.27	60.35	58.93	59.51	60.89	63.78	65.05	67.22	68.94	70.89	73.17	76.69	75.53	73.15	68.98	64.34	60.06	56.07	51.60	49.34	45.25	41.58	37.38	33.46	30.08	28.32	25.44	22.64	20.91	19.10	17.91	17.44	15.03	12.62	10.99	9.949	9.023	8.670	7.769	6.780	6.339	5.542	5.131	5.758	7.406	22.31	104.3	342.6	753.3	2121	1605	29.68	3.037	1.701	1.359	1.198	1.040	0.795	0.873
560.0	172.9	239.9	235.0	154.7	125.1	135.9	192.7	246.0	203.3	234.0	655.7	7227	8689	164.6	87.45	67.04	59.71	54.69	51.29	50.53	50.19	49.83	49.95	53.21	53.72	55.69	57.49	59.75	61.84	62.91	63.25	60.47	57.91	53.66	49.76	47.16	43.53	40.51	37.33	34.52	31.89	28.34	25.59	24.36	22.25	19.64	18.58	16.17	14.98	14.77	14.17	11.50	9.617	8.738	8.220	7.573	6.965	6.219	5.836	4.896	4.625	4.201	4.592	7.800	25.87	78.97	172.8	799.2	2274	1169	23.78	2.289	1.440	1.190	1.009	0.777	0.715
565.0	195.0	256.2	250.8	154.3	114.8	121.6	153.0	229.5	201.7	191.7	289.3	2687	9999.9	940.9	79.64	59.58	52.22	45.43	44.09	42.76	41.82	42.61	42.58	45.55	46.06	47.33	49.10	50.75	53.04	53.07	52.87	50.17	47.49	44.96	42.23	39.82	37.33	34.42	31.67	29.10	27.45	24.75	22.57	20.79	19.04	17.73	16.44	14.71	12.67	12.41	12.30	10.82	9.021	7.656	7.287	6.743	6.028	5.622	5.284	5.120	4.200	3.792	3.616	4.254	8.290	19.95	40.99	186.9	983.9	2092	256.8	16.00	1.910	1.214	0.987	0.766	0.683
570.0	203.6	267.0	257.2	147.1	102.1	102.6	125.0	180.4	209.2	176.8	195.0	756.8	7085	6625	240.1	51.74	42.77	38.47	36.87	35.29	34.04	34.86	34.97	36.03	37.32	37.82	38.99	40.95	41.29	42.07	42.38	40.42	38.18	36.20	33.73	31.91	29.96	27.92	25.86	23.70	21.91	20.37	18.43	17.31	15.90	14.81	13.55	12.38	11.11	10.04	9.543	9.092	7.976	6.703	6.149	5.761	5.320	4.814	4.410	4.317	4.126	3.742	3.258	3.268	3.955	6.473	11.14	43.80	229.3	808.9	1294	796.6	89.85	2.352	1.172	0.836	0.696
575.0	204.6	281.7	248.7	148.3	87.99	89.07	106.1	138.4	205.6	175.1	170.4	286.2	1970	9780	954.6	49.25	35.79	33.13	30.58	28.34	28.04	27.40	28.20	28.90	29.34	30.13	30.73	32.16	31.60	33.03	33.06	31.69	30.37	28.49	26.87	25.06	24.07	22.58	20.98	18.90	17.57	16.14	14.85	13.88	13.08	11.69	11.33	9.948	9.338	8.333	7.432	7.544	7.289	6.400	5.288	5.027	4.546	4.352	3.810	3.347	3.637	3.479	3.056	2.826	2.898	3.278	4.257	11.73	52.86	182.0	369.0	1153	1067	29.91	2.022	1.024	0.787
580.0	205.5	279.9	245.3	142.2	80.81	76.77	90.46	117.7	188.5	196.9	164.4	181.9	550.3	6370	5812	91.27	34.32	28.08	25.84	23.18	24.42	22.96	24.12	24.65	25.07	25.52	25.41	26.60	26.85	27.41	27.49	25.87	25.40	23.62	22.60	20.85	20.50	19.98	17.52	16.06	14.62	13.78	12.50	11.69	11.22	10.59	9.569	8.927	7.970	6.814	6.364	6.219	6.096	5.803	5.069	4.449	3.831	3.744	3.415	3.118	3.023	3.368	3.119	2.671	2.739	2.624	2.638	4.139	13.35	42.21	84.55	393.2	1282	777.3	23.00	1.374	0.877
585.0	205.8	256.3	251.9	134.2	71.90	69.51	85.69	110.7	160.5	211.2	172.9	162.5	220.0	2326	8908	582.5	31.63	25.27	22.86	21.19	21.30	20.49	20.97	20.99	21.25	21.29	21.49	22.02	23.15	24.10	23.66	22.23	21.15	20.19	19.35	17.81	17.00	16.55	14.70	13.82	11.85	11.79	10.84	10.35	9.335	9.186	8.357	7.550	7.067	6.314	5.529	4.947	5.188	5.384	4.974	4.179	3.631	3.093	3.084	3.019	2.781	2.824	2.974	2.724	2.502	2.262	2.318	2.632	4.565	11.03	20.49	91.20	496.2	1220	257.3	15.93	1.296
590.0	178.4	249.3	224.3	124.5	68.77	61.51	77.02	101.0	131.7	202.1	183.7	157.3	143.1	618.0	5686	4294	64.32	22.94	19.64	18.13	17.84	16.92	17.54	17.04	17.46	17.20	17.55	17.73	18.50	19.00	18.24	17.60	16.79	16.18	15.45	14.21	13.69	13.18	12.15	11.10	10.13	9.212	8.676	8.550	7.616	7.696	6.978	6.474	5.998	5.330	4.708	4.267	3.959	4.211	4.235	4.101	3.391	2.823	2.755	2.509	2.422	2.563	2.575	2.673	2.464	2.169	2.193	2.138	2.443	3.877	5.965	21.66	114.2	434.2	756.9	529.5	20.59
595.0	179.7	229.2	207.3	118.1	61.13	58.56	68.60	95.34	117.1	169.3	200.0	159.8	127.9	200.2	1562	6619	661.6	22.71	17.79	15.46	15.12	14.27	14.44	13.97	14.12	13.96	13.74	14.01	14.48	14.54	14.85	14.19	13.47	12.44	12.23	11.40	10.41	9.791	9.454	9.110	7.990	7.688	6.957	6.873	6.105	6.204	5.622	5.431	4.876	4.562	4.005	3.416	3.208	3.133	3.597	3.616	3.268	2.483	2.348	2.238	2.271	2.209	2.176	2.279	2.273	2.272	1.839	1.897	1.844	2.036	2.393	5.898	26.42	97.67	201.0	637.9	665.6
600.0	159.7	209.0	192.9	105.7	57.53	51.18	66.46	83.24	107.1	148.6	204.4	165.5	124.0	107.8	400.4	4605	3470	47.83	15.88	14.23	13.27	12.60	12.29	11.98	11.57	12.05	12.06	12.49	12.57	12.56	12.41	12.29	11.63	10.94	10.77	10.11	9.267	8.597	7.803	7.199	6.722	6.588	5.753	5.907	5.260	5.172	4.960	4.714	4.144	3.815	3.272	2.869	2.893	2.690	2.854	2.935	3.090	2.484	2.254	2.097	1.915	2.002	1.850	1.943	2.042	2.145	1.800	1.798	1.624	1.718	1.647	2.304	6.763	22.72	45.91	203.9	729.7
605.0	147.1	196.4	185.3	101.5	56.37	52.37	61.90	80.53	101.7	136.0	194.7	175.2	123.9	83.84	125.7	1798	5656	336.5	15.55	13.05	12.12	11.17	10.43	11.01	10.26	10.57	10.18	11.01	11.43	11.60	11.40	11.25	11.10	10.22	9.968	9.947	8.816	7.778	7.037	6.267	5.944	5.516	5.040	5.027	4.601	4.490	4.069	3.942	3.446	3.350	2.943	2.667	2.412	2.268	2.377	2.557	2.848	2.460	2.215	1.762	1.779	1.668	1.652	1.629	1.891	1.966	1.940	1.700	1.477	1.547	1.468	1.298	2.231	5.893	10.95	46.84	269.5
610.0	125.4	175.4	157.6	93.51	50.85	50.89	58.02	78.10	101.6	129.3	170.1	190.7	130.0	84.84	66.07	460.2	4033	2695	39.35	12.13	10.45	9.910	9.173	9.219	8.906	9.413	8.579	9.525	9.336	9.656	10.63	10.52	10.08	9.756	10.08	9.494	8.260	7.182	6.156	5.101	4.958	4.571	3.973	3.873	3.773	3.589	3.515	3.305	3.068	2.769	2.442	2.350	2.086	2.013	2.008	2.041	2.288	2.353	1.948	1.628	1.680	1.578	1.579	1.672	1.734	1.739	1.963	1.701	1.500	1.456	1.317	1.020	1.272	1.966	3.031	11.10	61.80
615.0	113.4	150.3	134.9	85.02	48.06	47.64	58.29	73.61	100.1	123.0	154.0	183.7	140.3	85.86	53.19	126.2	1179	4664	470.9	12.56	9.932	8.539	7.698	7.766	7.729	7.658	7.774	7.674	7.951	8.619	9.023	8.959	8.825	8.880	9.073	8.357	7.431	6.314	5.013	4.615	4.002	3.514	3.299	3.235	3.053	2.852	2.917	2.671	2.497	2.241	2.028	1.908	1.804	1.688	1.775	1.865	1.788	1.873	1.775	1.577	1.386	1.448	1.388	1.585	1.526	1.282	1.492	1.642	1.677	1.322	1.196	1.032	0.809	1.064	1.294	3.029	14.21
620.0	96.07	140.2	118.0	82.79	49.65	43.45	53.59	73.10	99.48	120.4	144.5	171.5	149.1	88.48	53.45	51.83	296.1	3557	2208	24.62	9.330	8.063	7.408	6.848	6.483	6.503	6.560	6.620	6.919	7.439	7.219	7.436	7.197	7.422	7.580	7.204	6.347	5.141	4.545	3.942	3.467	3.038	2.889	2.670	2.564	2.600	2.417	2.301	2.116	1.964	1.815	1.562	1.537	1.423	1.509	1.530	1.501	1.762	1.568	1.493	1.214	1.213	1.188	1.492	1.403	1.172	1.388	1.529	1.578	1.379	1.241	0.884	0.835	0.818	0.842	1.147	3.602
625.0	95.56	128.2	118.6	71.94	44.20	40.30	54.41	71.09	93.91	118.1	143.3	159.5	156.8	96.45	55.18	35.64	83.22	1531	3961	71.34	9.567	7.839	6.955	6.199	5.592	5.847	5.668	5.698	5.793	6.134	5.844	6.210	5.952	5.922	6.293	5.935	5.291	4.548	3.704	3.411	3.091	2.653	2.407	2.318	2.229	2.238	2.245	2.220	1.752	1.817	1.564	1.395	1.386	1.240	1.335	1.351	1.300	1.358	1.356	1.498	1.227	1.311	1.146	1.293	1.338	1.133	1.290	1.365	1.490	1.485	1.217	0.929	0.832	0.796	0.750	0.719	1.165
630.0	86.26	122.3	108.9	70.41	47.87	41.63	55.03	66.37	91.79	114.8	137.5	152.4	149.1	107.2	57.76	33.85	34.67	392.6	3165	1493	24.17	7.230	6.407	5.880	4.885	4.921	4.688	4.736	4.761	4.872	4.856	4.757	4.484	4.608	4.623	4.202	3.978	3.682	3.028	2.739	2.544	2.264	2.126	1.948	1.902	1.882	1.852	1.909	1.597	1.415	1.392	1.225	1.109	1.048	1.140	1.066	1.148	1.093	1.221	1.301	1.179	1.197	1.108	1.119	1.168	1.173	1.083	1.228	1.136	1.391	1.198	0.995	0.875	0.866	0.680	0.565	0.645
635.0	85.33	114.4	104.7	65.59	44.26	43.04	54.93	68.03	96.51	115.0	138.5	148.9	141.6	118.6	62.91	35.64	25.64	100.2	997.6	3386	320.0	7.940	5.952	5.396	4.319	4.165	4.469	3.929	3.928	3.867	3.681	3.854	3.773	3.706	3.422	3.097	3.033	2.780	2.394	1.965	1.860	1.807	1.578	1.684	1.675	1.493	1.567	1.416	1.325	1.273	1.010	0.979	0.943	0.915	0.845	0.950	1.025	0.941	1.049	1.040	1.108	1.052	1.125	1.141	1.143	1.008	0.987	1.154	0.979	1.053	1.033	1.076	0.909	0.838	0.668	0.553	0.506
640.0	84.69	115.0	100.9	69.28	45.88	43.66	52.33	63.63	90.00	112.7	138.9	147.4	134.5	122.4	71.06	38.05	24.96	36.12	251.4	2878	1416	12.96	5.967	5.195	4.249	3.643	3.418	3.579	3.600	3.510	3.543	3.328	3.366	3.192	2.865	2.880	2.680	2.185	2.155	2.003	1.685	1.709	1.455	1.391	1.453	1.367	1.369	1.222	1.204	1.104	0.973	0.846	0.807	0.768	0.757	0.900	0.829	0.803	0.844	0.874	1.032	0.995	0.951	1.051	1.037	0.966	1.134	1.201	1.024	1.054	0.884	1.037	0.864	0.828	0.615	0.661	0.531
645.0	71.08	115.8	103.7	63.78	43.37	41.48	54.04	67.85	88.02	113.4	141.2	145.6	132.8	117.9	81.09	40.39	25.81	22.04	67.95	1378	2783	53.37	6.196	4.563	3.882	3.396	3.332	3.241	3.254	3.118	3.212	2.726	3.063	2.865	2.828	2.510	2.181	2.062	1.844	1.627	1.493	1.442	1.361	1.366	1.147	1.157	1.191	1.044	1.116	0.930	0.766	0.779	0.677	0.789	0.678	0.725	0.839	0.784	0.741	0.887	0.799	1.068	1.035	1.029	0.971	0.970	0.964	1.109	0.960	0.964	0.849	0.998	0.950	0.795	0.734	0.549	0.482
650.0	77.53	110.6	98.82	66.88	44.16	41.08	51.84	65.57	85.81	111.2	139.1	144.9	130.8	115.5	88.64	44.12	27.72	19.74	26.95	410.4	3049	435.4	7.105	4.685	3.801	3.334	3.491	3.056	2.913	3.044	2.714	2.431	2.662	2.368	2.584	2.292	2.077	2.008	1.723	1.348	1.442	1.215	1.126	1.070	1.159	0.984	1.125	0.982	1.059	0.871	0.774	0.731	0.674	0.665	0.688	0.646	0.700	0.717	0.650	0.696	0.745	0.935	1.052	0.999	0.973	0.888	0.970	1.084	1.116	0.966	0.904	0.884	0.928	0.780	0.672	0.584	0.406
