Sample:	'1
File name:	°Ë½§±¤Â·¿ÚÎ÷3±¶.FD3
Run date:	'16:25:10, 04/11/2025
Operator:	Administrator
Comment:	'

Instrument
Model:	F-2700 FL Spectrophotometer
Serial number:	23B8-004
ROM Version:	4J14000 07

Instrument parameters
Measurement type:	3-D scan
Data mode:	Fluorescence
EX  Start WL:	220.0 nm
EX  End WL:	600.0 nm
EX Sampling interval:	5.0 nm
EM  Start WL:	230.0 nm
EM  End WL:	650.0 nm
EM Sampling interval:	5.0 nm
Scan speed:	12000 nm/min
EX Slit:	5.0 nm
EM Slit:	5.0 nm
PMT Voltage:	700 V
Response:	Auto 
Corrected spectra:	Off
Contour interval:	50.000

Peak integration
Integration method:	Rectangular
Sensitivity:	1
Threshold:	1.000

Peaks
No.	ApexEX/EM(nm)	Height(Data)
1	225.0/345.0	4669
2	225.0/645.0	159.1
3	250.0/545.0	183.6
4	255.0/560.0	157.4
5	260.0/575.0	162.1
6	265.0/590.0	182.4
7	270.0/600.0	205.7
8	275.0/345.0	4308
9	275.0/610.0	191.0
10	455.0/345.0	12.21
11	555.0/345.0	20.17

Data points
	220.0	225.0	230.0	235.0	240.0	245.0	250.0	255.0	260.0	265.0	270.0	275.0	280.0	285.0	290.0	295.0	300.0	305.0	310.0	315.0	320.0	325.0	330.0	335.0	340.0	345.0	350.0	355.0	360.0	365.0	370.0	375.0	380.0	385.0	390.0	395.0	400.0	405.0	410.0	415.0	420.0	425.0	430.0	435.0	440.0	445.0	450.0	455.0	460.0	465.0	470.0	475.0	480.0	485.0	490.0	495.0	500.0	505.0	510.0	515.0	520.0	525.0	530.0	535.0	540.0	545.0	550.0	555.0	560.0	565.0	570.0	575.0	580.0	585.0	590.0	595.0	600.0
230.0	157.5	4498	9999.9	3384	117.5	17.58	14.11	11.75	11.00	9.533	10.09	8.838	8.265	7.029	5.808	4.939	4.216	3.965	3.576	3.375	2.988	2.805	2.488	2.303	2.204	1.931	1.837	1.723	1.705	1.625	1.509	1.507	1.266	1.303	1.258	1.134	1.041	0.919	0.877	0.840	0.919	1.092	0.981	0.907	0.758	0.767	4.424	21.67	36.42	24.77	9.376	1.717	0.587	0.551	0.518	0.495	0.529	0.507	0.521	0.488	0.482	0.472	0.448	0.490	0.442	0.455	0.452	0.423	0.459	0.435	0.453	0.465	0.401	0.430	0.460	0.398	0.443
235.0	186.4	1193	6442	9999.9	3305	165.0	19.29	14.20	13.14	11.68	10.23	9.913	8.295	7.180	6.382	5.306	4.557	4.096	3.561	3.223	3.130	2.741	2.733	2.368	2.286	2.087	1.842	1.719	1.691	1.555	1.599	1.408	1.322	1.254	1.224	1.143	1.179	1.040	0.930	0.842	0.802	0.868	0.929	1.180	1.004	0.892	1.495	5.767	13.88	24.88	36.00	24.76	14.98	3.224	0.598	0.548	0.552	0.484	0.510	0.502	0.501	0.485	0.522	0.455	0.433	0.465	0.445	0.383	0.458	0.514	0.477	0.402	0.423	0.427	0.445	0.472	0.492
240.0	220.9	392.6	1927	9192	9999.9	2469	85.82	19.03	14.61	12.73	11.83	10.85	8.867	7.684	6.408	5.231	4.710	4.422	3.862	3.452	3.215	3.042	2.812	2.611	2.136	2.309	2.020	1.987	1.818	1.603	1.538	1.441	1.382	1.388	1.209	1.296	1.111	1.025	1.008	0.843	0.761	0.838	0.848	1.067	1.027	1.196	1.093	1.913	3.644	7.550	20.29	46.14	57.38	24.15	11.24	1.808	0.695	0.574	0.516	0.540	0.503	0.460	0.513	0.466	0.513	0.476	0.507	0.451	0.494	0.469	0.480	0.450	0.431	0.428	0.492	0.490	0.532
245.0	168.1	297.0	523.0	3212	9999.9	9999.9	410.6	35.40	19.32	15.46	14.14	12.52	9.911	8.479	7.457	5.551	5.203	4.326	3.962	3.513	3.370	3.132	2.859	2.579	2.499	2.253	2.201	1.754	1.999	1.634	1.668	1.481	1.514	1.389	1.219	1.197	1.135	0.951	1.005	0.957	0.862	0.798	0.727	0.868	0.897	1.138	1.214	1.199	1.413	2.115	5.180	16.05	42.23	67.01	66.07	22.06	7.457	1.057	0.596	0.608	0.595	0.467	0.526	0.643	0.486	0.503	0.479	0.433	0.488	0.518	0.540	0.476	0.473	0.559	0.454	0.498	0.542
250.0	109.5	197.4	320.0	821.1	3690	9999.9	9999.9	4529	111.2	23.62	19.27	15.48	12.69	9.778	8.079	6.437	5.702	4.921	4.459	3.930	3.619	3.220	3.094	2.782	2.696	2.418	2.331	2.080	1.940	1.932	1.697	1.623	1.535	1.508	1.309	1.215	1.205	1.090	0.987	0.986	0.970	0.825	0.856	0.888	0.801	0.860	0.931	1.148	1.272	1.322	1.807	4.185	10.70	23.14	44.98	64.38	83.41	64.40	15.60	6.954	1.066	0.683	0.590	0.669	0.576	0.516	0.553	0.479	0.512	0.527	0.523	0.520	0.458	0.562	0.479	0.493	0.510
255.0	107.5	105.4	216.9	417.6	911.6	2709	9999.9	9999.9	2117	125.7	29.63	22.45	16.74	12.85	9.905	8.132	6.409	5.653	5.034	4.593	3.835	3.383	3.135	3.050	2.952	2.706	2.503	2.446	2.066	2.175	1.803	1.818	1.689	1.484	1.290	1.250	1.265	1.315	1.123	1.003	1.048	0.932	0.817	0.999	0.848	0.857	0.800	0.866	0.922	1.209	1.699	2.160	3.079	5.655	10.68	16.00	35.32	81.85	131.3	118.9	23.98	7.405	0.918	0.699	0.731	0.599	0.631	0.684	0.587	0.601	0.571	0.571	0.474	0.592	0.511	0.517	0.557
260.0	96.21	76.64	109.6	300.3	422.0	675.1	3584	9999.9	9999.9	1664	80.58	30.16	21.80	16.02	11.73	9.172	7.467	6.338	5.749	4.870	4.200	3.625	3.192	3.116	2.790	2.797	2.774	2.480	2.527	2.091	2.025	1.950	1.722	1.499	1.419	1.375	1.196	1.234	1.115	1.049	1.046	0.995	1.015	0.882	0.908	0.844	0.798	0.806	0.823	0.802	1.158	2.065	2.241	2.222	3.039	4.273	8.660	23.09	65.74	137.5	163.8	113.2	19.17	3.493	0.855	0.673	0.701	0.633	0.692	0.696	0.656	0.577	0.480	0.551	0.576	0.505	0.582
265.0	112.1	84.02	77.42	157.5	374.9	316.6	881.1	5455	9999.9	9999.9	1180	45.63	26.42	19.83	14.30	10.50	8.997	7.154	6.122	5.439	3.955	3.916	3.636	3.439	3.089	3.132	2.793	2.616	2.817	2.208	2.187	1.823	1.839	1.653	1.543	1.433	1.237	1.221	1.141	1.183	1.162	1.212	1.104	0.942	0.937	0.857	0.836	0.848	0.777	0.681	0.819	1.351	2.110	2.374	1.886	1.626	2.714	5.937	15.95	43.65	105.8	186.7	185.1	29.56	13.55	1.476	0.849	0.721	0.701	0.744	0.727	0.645	0.721	0.592	0.572	0.566	0.597
270.0	271.3	240.4	173.5	115.3	214.7	370.5	400.7	1352	5984	9999.9	9999.9	4596	83.05	31.73	20.24	14.41	10.89	8.688	7.448	5.986	5.422	4.752	4.268	3.919	3.552	3.311	3.136	2.895	2.635	2.500	2.510	2.333	2.072	2.047	1.808	1.705	1.658	1.578	1.365	1.410	1.301	1.392	1.378	1.372	1.272	1.344	1.220	1.171	1.137	0.941	0.835	0.985	1.240	1.698	2.093	2.364	2.210	2.402	4.453	10.63	25.84	57.28	106.2	147.0	186.0	128.7	78.38	10.02	1.655	0.904	0.871	0.819	0.841	0.785	0.619	0.693	0.647
275.0	745.3	716.4	503.6	216.9	135.8	235.2	514.2	557.9	1493	3262	9999.9	9999.9	1255	90.80	31.99	21.20	15.65	11.98	9.013	7.345	6.364	5.476	4.938	4.046	4.096	3.532	3.233	3.132	3.086	2.731	2.808	2.542	2.339	2.537	2.797	2.311	2.138	1.956	1.810	1.975	1.895	2.106	2.055	2.196	2.207	2.363	2.330	2.097	1.910	1.612	1.155	1.059	1.014	1.087	1.229	1.755	2.973	3.640	2.932	3.515	6.967	13.98	24.99	35.14	61.85	134.9	262.1	226.3	29.88	13.19	1.552	1.009	0.892	0.813	0.792	0.758	0.721
280.0	1222	1205	833.6	337.4	148.3	170.6	423.8	651.6	588.4	1017	4573	9999.9	9999.9	970.6	60.63	29.88	19.59	15.22	10.83	8.544	7.194	5.926	5.450	4.707	4.439	3.876	3.559	3.427	3.071	3.176	2.789	2.521	2.700	3.103	3.316	2.918	2.675	2.686	2.287	2.576	2.481	2.755	2.962	3.006	3.431	3.642	3.478	3.409	2.965	2.171	1.523	1.286	1.132	1.166	1.191	1.429	2.022	3.072	4.121	3.786	3.461	4.663	7.381	9.734	15.76	35.61	100.9	217.2	297.9	205.1	24.72	6.712	1.255	1.064	0.961	0.904	0.931
285.0	1784	1761	1170	476.0	185.4	175.6	309.0	707.3	761.0	701.4	1542	7314	9999.9	9999.9	644.2	42.82	26.55	18.40	14.01	10.48	8.583	7.248	6.284	5.594	4.510	4.288	3.924	3.565	3.284	3.263	3.183	2.772	2.933	3.675	3.932	4.042	3.620	3.300	2.860	2.991	3.050	3.141	3.837	4.004	4.446	4.663	4.683	4.450	3.793	2.761	1.988	1.567	1.263	1.357	1.401	1.386	1.737	2.071	3.187	4.534	4.821	4.262	4.184	4.926	6.384	10.45	25.58	59.73	143.6	279.4	254.9	169.3	19.01	2.880	1.230	1.094	1.043
290.0	2414	2334	1590	674.5	268.3	233.3	343.2	621.2	1084	1229	1327	2573	7667	9999.9	9999.9	2679	56.48	28.45	19.29	14.08	11.22	8.710	7.383	6.231	5.172	4.843	4.472	3.785	3.468	3.360	3.374	3.052	3.392	4.306	4.957	5.325	4.689	4.289	3.759	3.749	3.804	4.131	4.617	5.075	5.780	6.132	6.003	5.915	5.189	3.748	2.517	2.042	1.625	1.578	1.615	1.570	1.995	2.236	2.881	3.725	4.890	6.167	6.701	6.577	6.728	7.136	10.56	18.09	36.67	75.65	124.1	207.8	221.2	183.3	114.8	13.72	3.748
295.0	2903	2845	1957	858.9	373.9	318.3	431.5	691.2	1117	1803	1883	1937	2696	3583	9999.9	9999.9	710.2	59.65	28.95	20.23	13.97	11.27	9.125	7.407	6.848	5.891	5.225	4.264	4.317	3.982	3.477	3.279	3.424	4.827	5.749	5.969	5.741	4.849	4.499	4.462	4.769	5.027	5.075	6.072	6.916	7.181	7.194	7.428	6.456	4.514	3.050	2.702	2.067	1.847	2.010	1.952	2.470	2.682	3.314	3.983	5.022	6.132	7.327	9.917	11.01	9.887	9.953	10.93	14.69	22.16	31.97	50.07	61.21	122.4	280.4	266.0	181.3
300.0	3052	3022	2113	990.8	462.8	398.0	529.0	798.8	1232	1855	2515	2239	1812	1498	4478	9999.9	9999.9	577.3	46.36	26.15	17.89	13.75	11.11	8.712	7.429	6.633	5.814	4.916	4.442	4.447	3.866	3.619	3.669	4.974	6.136	6.315	6.172	5.498	4.826	5.007	5.038	5.289	5.499	6.490	7.368	7.850	7.595	7.999	6.630	4.906	3.510	3.048	2.442	2.167	2.377	2.210	2.828	2.969	3.635	4.424	5.487	6.651	7.591	9.738	12.33	12.75	12.18	11.32	10.97	11.68	12.52	15.34	17.04	30.86	85.38	190.7	350.1
305.0	3134	3058	2192	1103	545.5	480.7	623.5	918.5	1365	1933	2651	2784	1937	1201	1419	6854	9999.9	9999.9	414.5	38.11	24.16	16.92	13.38	10.06	8.455	7.484	6.364	5.267	4.862	4.519	4.136	4.026	3.843	5.392	6.237	6.210	6.179	5.810	5.096	5.225	5.182	5.571	6.006	6.402	7.370	7.981	7.972	8.123	6.998	5.155	3.828	3.491	2.791	2.584	2.600	2.650	3.157	3.618	4.309	5.182	5.859	7.390	8.498	10.05	11.04	13.30	14.29	14.01	11.73	10.80	9.320	8.892	7.662	9.881	21.44	47.98	124.7
310.0	3169	3111	2259	1208	653.7	580.4	737.1	1055	1526	2095	2667	2982	2494	1447	898.8	1845	6817	9999.9	9999.9	2015	45.87	25.62	17.61	12.93	10.44	8.905	7.206	6.406	5.660	5.007	4.523	4.324	4.352	5.357	6.143	6.333	6.152	6.003	5.458	5.310	5.326	5.794	6.074	6.587	7.358	8.013	8.041	8.396	7.326	5.312	4.062	3.658	3.109	2.952	2.879	3.022	3.588	4.250	4.970	5.590	6.804	7.995	9.255	10.81	12.00	13.05	13.99	15.02	14.43	13.58	10.81	8.858	6.888	6.173	7.907	13.18	30.06
315.0	3149	3157	2350	1301	772.3	704.0	873.4	1225	1724	2291	2841	3036	2794	2054	1052	829.9	1755	3013	9999.9	9999.9	3010	50.33	26.33	17.73	13.80	10.47	8.599	7.441	6.437	5.684	4.790	4.703	4.523	5.221	6.092	6.308	6.153	5.881	5.494	5.367	4.953	5.913	6.255	6.806	7.314	8.388	8.158	8.328	7.352	5.553	4.064	4.282	3.530	3.300	3.522	3.641	4.399	4.786	5.412	6.241	7.125	9.011	10.44	11.80	12.94	13.76	14.62	15.46	14.47	14.07	13.60	12.40	9.389	7.066	6.071	6.211	9.547
320.0	3327	3325	2479	1391	876.5	811.9	1017	1380	1907	2516	3066	3244	2936	2409	1444	746.2	714.8	884.4	3896	9999.9	9999.9	460.4	41.69	24.11	17.16	12.71	9.893	8.257	7.576	6.496	5.316	4.921	5.033	5.324	5.915	6.098	6.216	6.136	5.625	5.579	5.580	6.362	6.674	7.023	7.804	8.920	8.509	8.726	7.543	5.875	4.821	4.667	4.035	3.815	3.948	3.871	4.945	5.376	6.236	7.232	8.258	9.668	11.44	12.66	14.00	14.33	15.39	15.93	15.48	14.69	14.08	13.25	12.03	9.143	6.653	5.763	5.596
325.0	3666	3640	2731	1551	968.9	920.7	1128	1531	2084	2722	3310	3496	3174	2553	1851	909.7	574.4	458.3	1058	5743	9999.9	9999.9	361.6	33.47	21.56	15.90	11.34	9.629	8.624	7.344	5.963	5.313	5.171	5.348	6.157	6.158	5.910	6.261	5.923	5.516	5.793	6.338	6.518	7.515	8.361	9.185	8.724	9.772	8.478	6.466	5.037	4.860	4.397	4.259	4.349	4.445	5.428	5.880	6.935	7.705	8.959	10.47	12.01	13.38	15.15	15.94	16.42	16.93	16.54	15.79	14.81	14.07	13.32	11.81	9.379	6.616	5.632
330.0	3931	4075	3094	1832	1153	1048	1295	1733	2345	3012	3606	3844	3534	2836	2037	1293	719.4	445.4	455.2	1452	5721	9999.9	9999.9	1729	40.15	22.96	15.70	11.97	9.869	8.252	7.074	6.012	5.526	5.708	5.939	6.290	6.010	6.308	5.904	5.965	6.342	6.598	7.172	8.212	9.235	10.31	9.931	10.40	9.400	7.383	5.918	5.496	4.875	4.729	4.579	4.959	5.600	6.809	7.452	8.571	10.09	11.63	13.41	14.61	16.30	17.55	17.76	17.97	18.19	17.38	16.35	15.54	14.24	12.56	10.70	9.126	7.606
335.0	4273	4467	3375	2008	1293	1186	1418	1908	2567	3302	3897	4147	3884	3171	2236	1411	1024	579.2	382.1	505.8	1388	2761	9999.9	9999.9	2832	44.53	22.92	16.97	12.75	10.32	8.030	7.241	5.951	5.958	6.164	6.427	6.272	6.289	6.217	6.253	6.668	7.430	7.654	8.769	9.618	10.72	10.88	11.77	10.03	7.849	6.451	6.160	5.440	5.272	4.856	5.400	6.497	7.403	8.334	9.271	11.13	12.79	14.15	15.96	17.63	18.67	18.49	19.09	19.45	18.94	18.24	17.19	15.38	13.59	11.10	8.986	8.513
340.0	4509	4657	3510	2104	1396	1255	1503	2004	2675	3429	4031	4275	4033	3347	2371	1457	1066	743.3	419.3	325.1	442.8	712.6	3448	9999.9	9999.9	413.1	36.62	20.65	15.64	12.14	9.475	7.942	6.759	6.693	6.155	6.616	6.288	6.389	6.327	6.414	6.748	6.956	7.977	8.959	10.01	11.15	11.50	11.68	10.20	8.129	6.652	6.715	5.712	5.550	5.427	5.783	6.710	7.463	8.800	10.12	11.32	13.33	14.50	16.45	18.09	18.48	19.50	19.97	19.88	19.87	18.67	18.21	16.40	14.12	11.85	9.626	8.280
345.0	4633	4669	3518	2130	1415	1280	1547	2031	2733	3457	4067	4308	4082	3423	2432	1481	1008	827.5	532.3	315.2	253.2	267.7	863.2	4763	9999.9	9999.9	355.7	29.50	19.24	14.29	10.92	8.312	7.152	6.623	6.594	6.343	6.390	6.466	6.009	6.166	6.736	7.115	8.113	9.342	10.35	11.39	11.68	12.21	10.15	7.962	6.628	6.936	6.109	5.693	5.497	5.685	6.704	7.457	8.955	10.06	11.21	13.52	14.63	16.86	18.25	18.89	19.49	20.17	19.94	19.86	18.92	18.03	16.69	14.54	12.35	10.00	8.625
350.0	4491	4574	3375	2091	1415	1291	1535	2015	2660	3373	3937	4188	3970	3359	2424	1495	992.1	757.1	634.9	429.7	262.3	205.5	305.0	1161	4761	9999.9	9999.9	6478	36.87	18.85	13.83	10.13	8.045	7.061	6.802	6.348	6.464	6.417	6.076	6.306	6.448	7.115	7.847	9.024	10.06	11.34	11.04	11.53	9.979	7.871	6.632	6.692	5.664	5.543	5.282	5.539	6.798	7.612	8.738	9.506	11.22	12.83	14.64	16.16	17.15	18.49	18.83	19.49	19.63	19.52	18.92	17.75	16.62	14.32	12.26	10.08	8.476
355.0	4336	4243	3146	1979	1396	1284	1507	1964	2544	3219	3747	3976	3763	3219	2360	1471	1005	742.0	601.0	551.6	375.4	244.2	220.3	374.5	1148	2524	9999.9	9999.9	2920	42.77	19.42	13.09	9.838	8.344	7.433	6.531	6.017	6.541	6.158	6.014	6.449	6.894	7.711	8.922	9.867	10.84	10.73	11.00	9.445	7.554	6.215	6.389	5.611	5.726	5.725	5.801	6.761	7.549	8.532	9.624	11.00	12.50	14.10	15.69	16.86	17.52	17.87	18.77	18.76	18.85	17.41	17.51	16.13	13.72	11.61	9.708	8.580
360.0	4188	4078	2934	1912	1371	1293	1478	1907	2462	3082	3561	3769	3579	3069	2278	1446	996.2	748.5	595.6	543.6	487.7	317.5	234.2	225.8	363.7	646.2	2851	9999.9	9999.9	2465	37.11	16.85	12.12	9.594	7.918	7.148	6.358	6.763	6.024	5.967	6.004	6.893	7.857	8.764	9.844	10.37	10.26	10.47	8.827	7.204	6.000	6.196	5.665	5.482	5.556	5.758	6.564	6.988	8.131	9.512	10.34	12.00	13.18	14.72	16.01	17.06	17.02	17.48	17.61	17.93	16.94	15.69	15.40	13.57	11.17	9.652	8.320
365.0	3982	3903	2783	1798	1331	1273	1447	1828	2349	2904	3362	3562	3377	2912	2180	1400	986.3	761.4	612.6	528.2	520.8	431.6	285.5	224.1	213.3	242.6	713.1	3555	9999.9	9999.9	366.5	28.69	15.28	11.70	9.240	7.718	6.914	6.534	5.835	5.962	6.026	6.654	7.672	8.018	9.285	10.09	9.529	10.00	8.563	6.628	5.788	5.880	5.661	5.262	5.206	5.710	6.559	6.927	7.858	8.933	9.995	11.67	12.78	13.80	15.19	15.70	16.21	16.74	16.66	16.71	16.46	14.77	15.13	12.98	10.99	8.881	8.120
370.0	3691	3583	2554	1682	1276	1230	1379	1709	2175	2688	3085	3232	3092	2689	2032	1346	973.4	776.7	650.8	569.5	516.7	507.7	414.7	287.2	223.0	185.3	255.0	868.1	3725	9999.9	9999.9	7111	33.14	15.93	11.55	8.955	7.415	6.898	6.292	6.049	6.502	6.827	7.020	7.868	8.613	9.181	8.771	8.960	7.791	6.113	5.358	5.893	5.333	5.289	5.207	5.424	6.227	6.624	7.623	8.455	9.260	10.79	11.74	12.97	13.67	14.37	14.76	15.12	15.43	15.27	14.88	14.12	13.91	12.06	10.07	8.780	8.078
375.0	3331	3255	2345	1560	1247	1210	1299	1609	1981	2415	2757	2913	2764	2445	1876	1284	959.7	788.9	689.8	617.1	552.3	514.4	505.3	410.5	283.3	211.8	180.6	283.6	895.7	2406	9999.9	9999.9	2641	37.93	16.26	11.26	9.153	7.749	6.444	6.364	6.254	6.229	6.956	7.472	7.924	8.565	8.468	8.498	7.216	5.656	4.920	5.428	5.292	5.088	4.746	5.331	5.844	6.285	6.849	7.780	8.456	9.719	10.50	11.67	12.16	13.14	13.37	13.48	13.42	13.71	13.16	12.86	12.82	11.27	9.604	8.433	7.632
380.0	3121	3027	2250	1466	1208	1159	1257	1508	1845	2219	2519	2653	2543	2239	1755	1228	952.0	807.1	718.9	654.1	590.0	536.6	511.7	491.1	355.9	246.1	189.9	172.2	281.5	600.8	2637	9999.9	9999.9	2246	31.11	14.11	10.46	8.905	7.287	6.205	6.071	6.432	6.798	7.341	7.353	8.036	8.103	7.864	6.709	5.372	4.703	5.450	5.247	5.223	5.057	5.149	5.735	6.081	6.539	7.485	7.911	9.408	9.926	10.74	11.10	11.75	12.21	12.74	12.44	12.91	12.30	11.84	11.70	10.66	9.397	7.915	7.586
385.0	2883	2845	2069	1415	1201	1132	1225	1427	1730	2045	2318	2424	2340	2061	1657	1182	943.3	816.6	737.1	680.1	626.5	571.0	520.5	502.8	440.4	302.3	223.0	173.4	165.5	211.3	651.4	3052	9999.9	9999.9	1705	24.48	12.55	9.673	8.192	6.756	6.381	6.317	6.781	6.944	7.249	8.014	7.871	7.663	6.469	5.289	4.619	5.109	5.036	5.219	4.804	5.226	5.795	6.064	6.540	7.037	7.807	8.614	9.127	10.10	10.27	10.92	11.10	11.21	11.88	12.38	11.67	11.25	10.96	10.08	9.237	7.806	7.313
390.0	2637	2572	1877	1371	1179	1108	1185	1348	1594	1847	2080	2176	2097	1887	1526	1135	932.7	825.3	756.5	708.4	664.6	613.0	561.0	508.9	478.2	406.4	289.5	217.6	177.4	160.3	234.1	751.9	3093	9999.9	9999.9	5843	27.16	13.06	9.541	7.681	6.908	6.589	6.190	6.810	7.025	7.494	7.130	7.029	6.007	4.889	4.466	5.095	4.853	4.900	4.927	5.034	5.485	5.928	6.198	6.501	7.426	7.934	8.535	9.255	9.771	9.937	10.18	10.45	10.59	11.09	10.60	10.14	10.22	9.558	8.352	7.561	7.137
395.0	2378	2326	1724	1334	1145	1091	1144	1264	1467	1684	1873	1959	1870	1708	1402	1090	913.2	835.8	774.0	726.0	690.9	648.6	599.8	539.9	482.1	457.4	389.4	281.7	224.4	186.0	172.9	260.6	760.3	2344	7594	9999.9	2211	32.40	12.68	9.462	7.864	7.156	6.686	6.830	6.725	7.557	6.383	6.410	5.967	4.747	4.615	4.945	4.932	4.841	4.508	5.040	5.332	5.494	6.120	6.355	6.503	7.552	7.841	8.276	8.749	8.834	9.387	9.066	9.565	9.537	9.382	9.553	9.436	8.541	7.941	7.165	6.756
400.0	2158	2138	1637	1297	1140	1078	1126	1209	1365	1571	1730	1808	1733	1581	1317	1050	901.9	827.0	774.1	738.3	699.0	663.2	618.6	565.4	507.1	460.1	444.1	346.4	263.5	218.3	181.2	169.5	253.5	585.9	1920	9999.9	9999.9	1938	26.33	11.20	8.810	7.632	6.701	6.783	6.270	7.078	6.204	6.310	5.800	4.863	4.309	4.734	4.772	4.923	4.888	4.792	4.947	5.631	5.684	5.979	6.311	6.916	7.284	7.580	7.876	8.089	8.572	8.903	8.824	9.144	8.745	8.478	8.718	8.217	7.504	6.733	6.729
405.0	2033	2006	1549	1251	1118	1056	1085	1179	1327	1491	1631	1671	1612	1469	1241	1004	876.5	813.1	767.1	734.4	707.2	672.9	632.8	583.4	527.6	470.2	447.2	409.2	312.8	248.6	204.4	166.1	156.2	204.0	481.5	2726	9999.9	9999.9	1469	19.86	10.16	8.246	6.856	6.583	6.838	6.767	5.865	6.076	5.679	4.746	4.169	4.852	4.701	4.952	4.564	4.788	5.096	5.508	5.715	5.817	6.132	6.769	6.875	7.612	7.559	7.707	8.103	8.222	8.193	8.373	7.853	8.096	8.024	7.588	7.244	6.721	6.470
410.0	1854	1809	1483	1219	1091	1053	1067	1134	1263	1400	1513	1532	1478	1345	1151	953.3	844.1	785.6	747.4	721.8	698.1	674.0	640.5	597.2	550.6	496.9	453.0	429.7	390.0	307.8	244.0	195.9	156.6	137.9	173.8	654.8	2755	9440	9999.9	4386	23.96	10.60	7.929	7.174	6.692	6.662	5.711	5.990	5.403	4.518	4.106	4.811	4.740	4.914	4.643	4.878	5.188	5.416	5.709	5.499	5.927	6.207	6.408	7.065	7.043	7.549	7.370	7.480	7.705	7.736	7.585	7.454	7.550	7.139	6.586	6.508	6.265
415.0	1686	1639	1373	1163	1090	1025	1048	1097	1200	1311	1400	1416	1341	1220	1061	896.8	800.9	760.3	721.4	700.2	682.6	661.8	635.2	600.6	562.7	519.0	474.0	431.9	419.3	382.4	293.8	230.3	181.6	142.3	121.1	204.4	655.3	2172	5715	9999.9	2003	29.10	10.60	8.140	7.162	6.573	5.710	5.655	5.027	4.434	4.041	4.620	4.684	4.883	4.719	5.023	5.100	5.091	5.493	5.500	5.844	6.497	6.468	6.570	7.000	6.889	6.825	6.897	6.946	7.018	7.219	6.865	6.959	6.704	6.353	6.279	5.735
420.0	1550	1530	1320	1134	1081	1027	1021	1076	1148	1255	1341	1329	1253	1137	997.7	847.1	767.5	728.9	696.8	679.9	664.4	651.1	630.0	597.1	563.3	524.8	486.8	441.9	420.6	412.5	339.4	259.3	203.5	156.1	120.1	113.4	195.7	522.0	1419	7437	9999.9	1702	23.14	9.347	7.883	7.054	5.736	5.727	4.940	4.369	4.035	4.891	4.718	4.767	4.685	4.642	5.007	4.923	5.266	5.354	5.611	6.083	6.019	6.514	6.704	6.686	6.504	6.582	6.485	6.701	6.324	6.455	6.137	6.411	5.942	5.903	5.850
425.0	1475	1437	1248	1135	1061	1016	1002	1064	1123	1203	1283	1253	1185	1076	932.7	807.5	737.8	700.4	673.8	657.5	644.4	632.5	616.5	593.8	562.4	532.3	496.4	455.9	429.5	410.2	378.8	293.3	225.0	173.7	132.2	105.5	101.6	160.3	350.2	1979	9060	9999.9	259.9	16.87	8.996	7.411	6.260	5.704	5.027	4.518	4.026	4.734	4.911	4.883	4.870	4.805	4.846	4.944	5.406	5.210	5.464	5.860	6.024	6.275	6.574	6.304	6.543	6.233	6.050	6.501	5.825	5.944	6.005	5.875	5.633	5.625	5.522
430.0	2145	1333	1199	1078	1035	1000	991.3	1039	1102	1164	1210	1186	1103	996.7	865.7	753.2	696.5	665.1	642.5	628.9	617.8	609.0	599.4	582.4	558.6	531.0	500.6	469.3	442.4	410.8	387.0	338.7	262.0	198.4	152.5	119.0	95.26	91.03	119.8	473.7	2386	7339	9565	3278	21.37	9.217	6.904	6.142	5.147	4.405	4.146	4.870	4.890	4.837	4.841	4.843	5.087	5.180	5.260	5.441	5.520	5.755	5.774	5.958	6.228	5.896	5.984	5.695	5.653	6.018	5.838	5.680	5.480	5.494	5.220	5.135	5.154
435.0	4685	1333	1140	1034	997.4	990.2	1006	1035	1084	1133	1153	1126	1031	929.9	808.8	703.4	658.2	627.8	606.2	595.5	589.6	580.3	581.7	565.5	549.4	526.7	504.7	478.1	455.4	427.1	386.5	355.4	307.5	229.7	175.9	136.4	109.0	88.70	77.71	144.9	562.6	1684	4891	9999.9	1840	26.21	9.103	7.182	5.531	4.807	4.303	4.910	4.764	4.874	4.724	4.770	4.905	5.026	5.098	5.508	5.719	5.373	5.509	5.707	5.979	5.747	5.551	5.432	5.580	5.755	5.639	5.039	5.209	5.239	4.954	4.882	4.863
440.0	6957	1783	1105	1036	984.1	969.6	991.4	1018	1060	1090	1112	1074	981.3	880.1	764.5	670.5	624.8	604.5	583.2	573.3	569.7	560.1	560.8	553.8	539.1	525.4	503.7	482.6	461.7	434.5	393.3	355.9	324.3	259.3	194.8	151.0	121.5	95.56	76.61	77.43	160.1	403.1	1220	6851	9999.9	1507	19.20	8.564	6.211	5.005	4.569	5.155	4.888	5.011	4.660	4.652	5.051	5.205	5.154	5.295	5.579	5.351	5.383	5.728	5.570	5.604	5.566	5.317	5.524	5.259	5.130	4.828	5.244	4.966	4.699	4.679	4.700
445.0	7367	3723	1085	1002	959.3	945.0	960.6	1007	1032	1049	1071	1020	928.1	824.4	724.0	639.3	591.0	566.9	554.7	546.6	545.1	539.8	540.3	537.2	523.4	513.0	491.2	477.6	459.0	434.2	398.6	354.9	318.1	279.0	215.2	163.4	132.3	105.5	82.43	70.09	77.34	121.5	297.7	1847	8540	9722	213.2	14.45	7.238	5.602	4.881	5.189	4.827	4.897	4.793	4.747	5.108	5.190	5.332	5.259	5.359	5.510	5.302	5.499	5.445	5.637	5.088	5.245	4.837	5.289	4.885	4.584	4.977	4.736	4.390	4.402	4.267
450.0	4404	6784	1862	949.6	919.4	914.5	925.1	963.1	987.0	997.1	995.2	952.4	852.4	758.8	662.8	583.7	546.0	526.5	512.1	501.4	500.1	503.4	507.2	504.9	496.2	487.5	476.8	458.4	447.2	427.0	397.4	353.6	311.0	278.4	239.3	184.7	144.8	116.6	93.32	75.74	65.01	64.90	95.68	435.4	2275	6888	8432	2666	17.69	6.807	5.473	5.415	5.104	5.001	4.633	4.658	5.113	5.124	5.165	5.039	5.234	5.225	5.252	5.336	5.238	5.117	4.959	5.044	4.631	4.785	4.699	4.507	4.662	4.543	4.262	4.126	3.924
455.0	1805	6801	5046	994.4	863.0	862.9	878.5	916.0	931.8	933.2	916.5	862.4	772.2	686.4	591.2	526.3	493.9	472.4	464.2	458.7	456.2	460.0	464.2	462.3	462.4	454.8	445.7	438.7	423.6	413.7	388.1	346.0	306.2	265.3	239.6	207.4	159.9	126.1	104.4	84.75	68.78	57.55	55.82	123.0	526.1	1580	4172	9567	1491	19.14	6.514	6.148	5.226	4.956	4.607	4.482	4.695	4.864	4.754	4.792	5.045	4.873	4.997	5.087	5.142	4.749	4.493	4.585	4.211	4.378	4.203	4.214	4.137	4.111	4.374	3.773	3.708
460.0	1078	4264	7909	1552	817.7	825.9	842.7	881.2	872.6	874.9	851.2	795.0	712.2	632.3	545.8	488.7	452.1	437.2	424.8	422.4	421.1	425.6	430.9	429.8	432.1	425.8	417.8	412.4	411.0	395.6	374.8	340.1	297.4	257.8	229.0	209.9	175.4	134.7	110.9	90.48	73.95	59.53	48.96	55.80	138.9	369.8	1025	5711	8434	1131	15.08	7.081	5.611	5.111	4.561	4.764	4.627	4.818	4.695	4.839	4.765	4.506	4.595	4.761	4.620	4.343	4.295	4.582	4.021	3.922	3.787	3.925	3.876	3.799	3.640	3.584	3.625
465.0	847.4	2083	8516	3406	784.3	774.1	804.0	815.6	823.5	805.4	792.5	745.5	658.2	580.1	507.3	449.4	412.9	400.4	394.0	389.3	388.1	392.4	398.9	399.5	400.2	399.8	394.6	388.2	388.8	377.0	357.4	325.3	288.5	253.8	219.8	200.1	181.0	142.4	114.7	94.35	78.04	61.67	50.07	42.49	53.90	100.5	244.2	1516	6783	7028	171.9	12.40	6.747	5.684	4.947	4.842	4.521	4.476	4.541	4.738	4.377	4.251	4.361	4.661	4.402	4.241	4.153	3.927	3.915	3.657	3.726	3.651	3.355	3.426	3.322	3.202	3.438
470.0	780.2	1047	5014	7090	1505	705.6	723.0	744.3	745.3	731.9	710.7	658.9	585.6	513.4	448.0	397.3	365.1	354.8	346.7	343.3	343.0	348.4	354.1	355.7	360.0	359.0	354.3	352.1	351.2	345.5	326.9	300.5	270.1	238.8	207.8	184.5	168.8	147.4	118.7	95.82	78.77	63.52	51.35	41.47	36.75	41.61	69.88	351.5	1799	4971	5692	2009	16.75	6.527	5.314	4.806	4.738	4.511	4.298	4.397	4.255	4.135	4.125	4.093	3.966	3.822	3.711	3.629	3.727	3.520	3.545	3.336	3.192	3.163	3.058	2.862	2.996
475.0	701.8	726.1	1798	7400	4422	691.1	644.8	673.9	674.5	653.1	630.3	580.8	513.8	449.6	386.8	344.5	322.2	307.5	301.6	297.0	301.1	303.9	310.3	313.3	315.4	316.9	317.1	315.7	312.5	311.5	297.7	275.4	246.2	220.7	194.3	170.8	152.1	138.5	123.7	98.90	78.08	64.50	51.56	41.52	33.88	29.73	31.39	91.06	411.2	1132	2664	6247	1411	21.12	6.175	4.974	4.774	4.522	4.277	4.114	3.915	3.701	3.736	3.997	3.805	3.333	3.362	3.249	3.086	3.185	3.184	3.207	2.974	2.715	2.726	2.628	2.831
480.0	640.1	640.7	858.3	4720	7845	1210	597.8	624.8	614.2	601.4	575.9	530.8	468.8	410.3	354.1	309.3	289.6	276.8	275.6	267.5	272.6	272.7	279.9	283.5	286.4	290.7	288.8	287.2	288.0	287.3	274.6	255.9	232.4	206.9	183.8	162.4	142.3	127.9	121.7	101.7	78.91	64.66	51.99	42.03	34.14	27.98	24.29	33.93	102.7	261.6	645.7	3443	5926	1217	16.22	5.582	4.899	4.601	4.296	3.997	3.662	3.928	3.508	3.498	3.388	3.233	2.989	2.914	3.126	2.841	2.784	2.792	2.936	2.458	2.631	2.298	2.661
485.0	578.6	603.6	622.8	2133	8791	3043	569.8	575.5	567.8	553.8	527.6	481.7	435.3	378.2	324.6	286.7	268.4	256.6	251.4	246.2	249.9	252.7	257.1	261.4	265.4	266.3	266.7	265.4	268.6	264.7	257.5	237.4	217.1	194.4	173.5	157.3	135.8	122.3	114.6	103.7	81.06	64.72	53.00	42.50	35.09	27.72	23.67	22.14	34.88	68.20	153.2	903.4	4508	5451	203.3	11.12	5.649	4.908	4.137	3.931	3.838	3.592	3.275	3.425	3.293	2.911	2.905	3.024	2.785	2.779	2.773	2.446	2.702	2.381	2.396	2.242	2.512
490.0	498.7	588.7	547.0	875.4	5393	7368	1187	525.7	517.1	499.2	479.7	438.6	387.6	338.6	291.8	255.6	237.7	227.9	224.0	221.3	225.9	227.5	231.4	236.1	240.3	240.1	240.2	242.5	244.3	241.7	235.9	219.3	201.8	181.9	162.4	146.1	129.8	115.0	103.9	97.39	85.18	68.40	53.59	43.49	36.31	29.96	24.90	20.94	21.33	26.51	44.22	211.3	1178	3508	4681	932.0	18.01	5.746	4.465	4.001	3.822	3.474	3.184	3.243	3.037	2.706	2.902	2.750	2.588	2.660	2.463	2.278	2.248	2.359	2.190	1.997	2.236
495.0	419.0	521.1	504.8	537.6	1831	8367	3316	508.5	473.1	452.9	427.3	390.2	345.5	302.0	254.7	227.6	210.3	203.7	199.1	195.6	199.4	200.0	205.0	209.0	210.6	212.0	215.0	216.6	216.5	215.7	213.3	198.5	182.7	166.0	149.5	132.9	121.1	109.4	97.21	87.54	81.85	72.47	55.73	44.58	38.19	31.87	26.35	23.11	19.93	18.90	21.38	57.87	272.4	802.1	2367	5555	1592	22.92	5.784	4.587	3.795	3.523	3.287	3.081	2.913	2.754	2.650	2.552	2.472	2.320	2.154	2.217	2.182	2.031	2.016	1.850	1.972
500.0	380.4	448.3	495.1	435.9	730.3	5564	7823	877.8	431.5	418.8	390.7	355.0	314.1	270.8	231.3	202.0	190.8	183.2	179.1	175.9	178.6	180.1	185.8	188.5	190.3	193.3	194.0	194.1	197.8	200.1	194.2	181.6	168.2	153.3	139.7	125.3	114.2	101.8	91.73	82.08	75.15	71.16	58.07	44.94	38.85	32.29	28.16	23.98	21.22	18.33	17.72	24.79	71.33	189.1	580.0	3100	5587	1247	17.14	4.793	3.779	3.389	3.206	3.016	2.782	2.698	2.493	2.225	2.385	2.162	2.118	2.148	2.016	1.869	1.827	1.828	1.920
505.0	377.8	390.5	450.7	406.2	440.3	2482	9824	2320	407.3	386.4	360.2	322.7	285.0	244.1	210.7	185.4	169.9	165.7	160.6	158.6	161.3	163.5	168.3	167.9	171.8	173.0	175.7	177.0	179.5	178.9	177.2	166.3	154.7	139.8	127.3	116.6	107.7	96.36	86.10	77.30	69.32	65.04	60.00	47.18	38.77	33.05	28.36	25.31	21.38	19.55	17.14	17.75	27.35	53.39	139.9	806.9	3908	4900	221.9	10.20	4.449	3.631	2.991	2.912	2.536	2.576	2.359	2.213	2.320	1.934	1.909	1.908	1.734	1.756	1.671	1.689	1.690
510.0	318.1	329.6	382.8	383.3	338.1	843.3	6335	7384	869.6	342.5	318.5	287.4	253.8	217.6	183.4	160.6	148.6	142.7	140.0	138.6	139.2	141.6	144.8	148.3	149.9	150.6	153.2	155.0	157.5	156.4	155.0	146.3	136.9	124.2	113.9	104.3	95.93	86.24	78.57	70.75	63.46	57.40	54.67	48.66	39.25	33.03	28.68	25.23	22.05	20.03	17.85	16.80	17.33	22.50	41.16	189.0	1003	2957	3711	979.0	17.18	4.240	3.150	2.943	2.528	2.318	2.213	1.990	1.965	1.865	1.782	1.756	1.578	1.688	1.575	1.562	1.576
515.0	271.5	278.9	301.1	346.3	297.3	400.6	2037	9612	3772	326.2	276.6	249.4	220.3	190.3	158.7	138.9	127.0	122.1	118.9	118.9	119.3	121.3	123.1	126.8	128.2	128.7	131.4	131.0	134.8	137.0	133.1	128.2	116.8	108.1	100.5	91.09	84.04	75.99	70.95	63.26	57.06	51.35	47.11	45.89	41.36	33.43	28.83	24.76	21.67	19.62	17.96	17.11	15.12	16.10	18.53	50.71	230.7	670.7	1612	4026	1521	22.95	3.892	2.942	2.508	2.521	1.964	1.835	1.830	1.840	1.722	1.562	1.561	1.448	1.420	1.444	1.435
520.0	223.4	246.2	244.8	303.8	291.4	284.6	669.1	6608	8207	626.6	255.8	225.5	196.6	166.5	142.1	123.4	114.9	108.9	104.4	105.6	104.6	107.6	110.5	111.9	113.2	115.1	117.2	117.4	120.3	121.2	119.1	113.6	104.6	96.09	89.08	81.11	76.37	69.40	64.29	57.77	52.05	46.79	42.64	40.73	40.42	34.11	28.19	25.00	21.39	19.12	17.26	16.65	14.57	13.58	13.31	19.31	58.37	155.5	383.9	2037	3997	1184	17.13	3.481	2.651	2.515	2.150	1.916	1.689	1.709	1.552	1.452	1.458	1.411	1.390	1.243	1.440
525.0	220.1	232.6	226.9	249.6	287.3	238.6	332.5	2829	9999.9	1797	237.2	202.1	176.6	150.2	128.2	109.5	104.4	96.34	96.62	93.03	94.35	95.40	96.63	100.1	101.5	103.4	103.8	104.4	107.4	106.8	105.1	101.7	93.74	87.68	79.91	73.49	69.61	63.27	58.18	53.48	47.91	43.03	39.01	36.86	36.12	34.77	28.33	24.30	21.03	18.54	16.60	15.79	14.29	13.06	12.10	12.12	19.80	40.47	90.94	506.6	2431	3536	230.8	10.52	2.945	2.637	2.073	1.705	1.631	1.587	1.526	1.487	1.408	1.410	1.242	1.249	1.256
530.0	192.6	203.3	195.7	200.2	254.7	228.4	228.2	851.9	7103	7938	629.3	178.7	154.8	130.1	109.9	95.50	88.65	84.27	83.13	81.03	80.77	82.42	83.19	85.87	87.13	87.14	89.48	90.13	91.47	92.90	91.12	86.35	81.26	75.35	69.53	64.66	60.90	55.43	51.36	47.55	42.86	39.46	35.16	32.46	31.00	31.48	28.66	23.74	19.99	17.75	15.95	14.71	13.70	12.46	11.02	9.973	10.75	14.21	24.98	117.1	600.7	1842	2084	973.7	17.44	3.188	2.232	1.749	1.755	1.507	1.442	1.366	1.326	1.315	1.246	1.221	1.161
535.0	173.6	180.2	172.4	164.9	194.9	222.5	188.6	330.9	2154	9999.9	3622	174.8	138.3	111.5	94.60	82.48	74.47	72.09	69.63	70.53	68.28	68.56	71.04	72.93	73.96	75.05	75.74	76.55	76.60	77.56	76.90	73.17	68.42	65.19	59.64	55.17	52.27	47.32	44.53	41.54	38.27	34.96	31.59	29.46	26.93	26.16	26.26	23.51	18.61	16.67	14.49	13.43	12.27	11.15	10.22	9.482	8.287	8.051	9.679	29.75	137.3	414.9	804.2	2582	1484	24.63	2.859	2.014	1.916	1.517	1.430	1.384	1.318	1.238	1.073	1.127	1.133
540.0	191.0	184.3	162.7	140.4	153.5	210.8	179.4	204.5	632.5	6874	8623	398.1	123.4	98.93	82.17	71.09	66.62	63.20	60.71	61.04	59.82	59.24	62.39	63.33	64.52	63.98	64.79	66.65	68.60	67.05	67.54	64.19	59.98	56.31	51.59	48.43	45.52	42.16	39.41	36.59	34.01	31.41	27.99	26.80	25.04	22.54	22.86	22.95	18.58	15.91	13.41	12.61	11.35	10.06	9.205	8.656	7.445	6.300	6.162	10.29	33.76	95.56	187.1	1100	2699	1125	18.81	2.224	1.852	1.619	1.483	1.344	1.290	1.117	1.098	1.165	1.016
545.0	199.3	182.3	154.0	132.3	125.4	180.0	183.6	161.6	261.3	2636	9999.9	1350	112.4	91.84	73.33	62.10	58.12	54.36	53.61	52.86	52.51	52.25	53.66	55.04	56.17	56.80	57.35	57.74	59.07	59.35	58.76	55.79	53.32	49.37	46.08	42.44	40.52	37.88	34.84	32.23	29.80	27.60	26.05	23.52	22.32	20.25	19.74	20.60	18.63	14.91	12.91	11.28	10.32	9.185	8.526	8.361	7.331	5.737	5.053	5.675	10.47	23.94	44.71	260.6	1328	2479	242.6	12.79	2.183	1.623	1.466	1.338	1.202	1.134	1.018	0.967	1.046
550.0	210.5	191.4	166.7	124.7	108.3	130.8	181.2	141.6	160.7	734.3	6636	7374	379.6	78.01	62.33	53.35	48.93	45.78	44.46	43.58	43.28	44.55	45.21	45.37	46.62	46.84	47.47	47.59	48.49	48.33	48.41	45.99	43.79	40.57	38.16	35.25	33.33	31.40	29.23	27.10	25.57	23.64	22.33	20.20	19.01	17.67	16.62	16.64	16.46	14.71	12.15	10.38	9.485	8.400	7.685	7.193	6.488	5.528	4.527	4.198	5.051	7.804	12.36	60.58	314.1	1059	1560	893.2	19.43	2.476	1.549	1.341	1.221	1.072	0.985	0.881	0.931
555.0	215.5	211.7	177.4	112.8	88.78	97.41	149.9	147.9	126.5	259.2	1854	9999.9	2679	76.32	54.94	45.34	40.68	37.68	37.69	34.85	34.85	35.29	36.69	36.13	37.49	37.32	38.59	37.51	38.72	39.49	37.93	36.86	35.75	32.92	30.83	29.12	27.72	26.05	23.62	21.95	21.21	19.64	18.72	17.28	16.11	15.01	14.13	13.16	13.22	13.00	11.62	9.327	8.121	7.379	6.419	6.022	5.535	4.972	4.579	3.632	3.434	4.167	4.608	15.61	72.02	238.0	474.7	1481	1195	28.06	2.152	1.320	1.144	0.973	0.900	0.899	0.855
560.0	226.4	227.0	179.3	109.6	83.51	83.60	115.4	157.4	118.0	150.6	516.6	6298	7055	140.9	48.24	39.30	35.24	32.65	31.55	30.33	29.96	30.38	30.17	30.95	30.74	32.11	31.45	32.51	33.47	33.39	31.46	31.21	29.35	27.79	26.15	24.30	23.01	21.66	20.48	19.06	17.78	16.70	15.93	14.95	14.14	13.13	12.36	11.37	11.00	10.70	10.52	9.087	7.306	6.642	5.854	5.234	4.937	4.114	4.249	3.591	2.964	3.065	3.081	5.260	17.86	54.84	108.7	532.8	1582	860.0	21.92	1.546	1.265	1.068	1.002	0.878	0.854
565.0	253.1	242.3	184.8	105.6	73.19	72.63	91.99	152.8	124.7	121.9	207.6	2272	9875	903.7	45.27	35.24	30.60	28.07	26.32	26.16	25.75	26.89	25.52	25.29	26.17	26.86	26.43	27.07	28.22	28.25	27.45	26.16	24.48	23.33	21.63	20.51	19.59	18.47	17.47	16.39	15.22	14.54	13.71	13.14	12.27	11.63	10.79	9.860	9.140	8.734	9.150	8.583	6.854	6.066	5.183	4.756	4.245	3.786	3.822	3.544	2.887	2.638	2.552	2.850	5.688	13.94	25.98	123.6	639.8	1449	252.5	14.90	1.392	1.115	0.930	0.933	0.929
570.0	266.8	259.8	193.1	101.5	63.99	63.47	76.97	126.7	149.8	125.2	143.6	631.0	5934	5723	223.9	31.44	26.72	24.35	22.40	21.59	20.68	21.56	21.06	21.15	21.63	21.69	21.60	21.99	22.10	22.50	22.23	20.94	19.91	19.30	17.91	16.82	16.44	15.38	14.56	13.30	12.75	12.00	11.48	10.69	10.31	9.562	9.031	8.187	7.830	7.210	7.191	7.444	6.343	5.184	4.631	4.152	3.798	3.417	3.147	3.009	3.055	2.656	2.402	2.272	2.936	4.690	7.455	29.04	147.8	527.2	886.7	604.7	20.17	2.168	1.059	0.950	0.855
575.0	291.5	272.7	195.7	94.37	59.19	55.73	68.00	96.28	162.1	139.7	138.5	239.9	1635	7880	949.2	32.05	23.20	20.87	18.48	17.89	17.69	17.83	17.40	16.99	17.61	17.50	17.69	17.75	17.75	18.49	17.39	16.91	16.08	15.40	14.46	14.15	13.39	12.76	11.66	11.10	10.22	9.565	9.261	8.924	8.587	8.323	7.842	7.267	6.798	6.000	5.566	5.732	5.729	5.238	4.016	3.338	3.241	2.953	2.637	2.624	2.616	2.697	2.298	2.259	2.215	2.638	3.201	7.851	34.11	118.8	238.5	755.5	791.4	29.72	1.751	1.041	0.830
580.0	290.3	274.5	196.0	103.6	57.12	53.37	65.29	84.34	152.1	160.3	145.3	160.2	456.2	4954	5096	82.94	21.66	18.37	15.99	15.76	14.85	14.83	15.30	14.63	15.30	14.59	15.07	14.99	15.15	15.65	14.98	14.72	13.95	12.94	12.37	11.82	11.65	11.55	10.31	9.333	8.816	8.011	7.689	7.682	7.488	7.384	6.624	6.047	5.787	5.257	4.747	4.673	4.883	4.694	3.976	3.289	2.996	2.590	2.603	2.391	2.472	2.556	2.454	2.297	2.193	2.066	2.261	3.329	8.895	27.81	54.81	241.5	867.3	593.2	23.28	1.294	0.806
585.0	290.4	284.9	204.2	95.14	57.96	53.29	60.72	83.99	133.6	179.6	155.4	153.1	186.1	1810	7474	565.5	21.19	16.73	14.71	14.76	13.45	13.18	12.76	12.69	12.53	12.50	12.88	13.23	13.03	13.44	12.71	12.50	11.74	10.99	10.76	10.27	10.00	9.774	8.952	8.087	7.489	7.216	6.913	6.753	6.454	6.198	5.918	5.723	4.973	4.899	4.172	4.020	4.139	4.194	3.850	3.240	2.688	2.637	2.192	2.187	2.221	2.332	2.285	2.356	2.000	1.964	1.869	2.059	3.296	7.413	13.40	55.84	316.7	846.6	251.0	14.53	1.036
590.0	295.1	268.6	192.6	95.27	54.20	49.78	58.82	76.81	112.6	182.4	175.0	155.2	130.6	489.6	4627	3716	59.30	15.58	13.63	12.50	11.63	11.13	10.86	11.16	10.94	10.51	10.33	10.57	10.37	10.71	10.32	10.58	9.432	9.162	8.568	8.421	8.078	7.982	7.310	6.383	6.189	5.949	5.862	5.773	5.512	5.369	4.977	4.789	4.263	3.889	3.557	3.350	3.233	3.355	3.490	3.143	2.465	2.209	2.009	2.003	1.919	1.969	2.073	2.227	2.097	1.878	1.969	1.830	2.062	2.878	4.088	13.65	72.77	286.5	533.0	404.3	19.92
595.0	276.9	251.1	178.8	93.64	54.19	46.64	58.06	78.09	104.1	159.1	200.2	161.5	123.0	164.2	1266	5500	648.6	16.87	12.50	10.92	9.727	9.871	9.594	9.135	9.048	8.823	8.534	8.506	8.491	9.099	8.484	8.426	7.911	7.575	7.408	7.051	6.724	6.408	5.921	5.317	5.333	5.088	4.815	4.810	4.654	4.623	4.265	3.985	3.629	3.390	3.048	2.907	2.629	2.488	2.851	2.930	2.455	2.031	1.982	2.020	1.645	1.743	1.708	2.018	2.043	1.975	1.902	1.775	1.513	1.704	1.910	4.024	17.21	64.68	137.3	426.8	481.6
600.0	240.0	243.8	162.3	95.61	50.58	43.54	55.24	72.49	102.2	142.1	205.7	167.9	121.3	94.72	325.8	3712	3050	44.97	11.90	9.711	9.283	8.653	8.125	7.700	7.661	7.740	7.590	7.731	7.434	7.681	7.718	7.228	7.275	7.034	6.368	6.899	6.223	5.284	4.851	4.803	4.338	4.181	4.384	3.918	4.144	3.905	3.596	3.461	3.262	2.850	2.658	2.460	2.393	2.181	2.238	2.529	2.343	2.143	1.779	1.912	1.567	1.631	1.698	1.690	1.829	1.995	1.720	1.745	1.691	1.498	1.394	1.731	4.612	15.26	31.50	130.0	489.1
605.0	226.1	235.0	164.6	90.05	50.24	43.28	52.91	73.08	97.19	133.1	192.5	179.0	125.0	79.54	103.6	1420	4824	324.7	12.00	9.240	8.480	7.610	7.528	6.942	7.039	6.909	7.024	6.604	6.763	7.122	7.124	6.736	6.874	6.496	6.259	6.383	5.957	4.883	4.547	4.170	4.157	3.620	3.915	3.435	3.392	3.491	3.282	3.098	3.008	2.638	2.309	2.139	1.996	2.057	1.992	2.155	2.352	2.178	1.820	1.650	1.545	1.584	1.753	1.651	1.644	1.931	1.946	1.751	1.653	1.415	1.226	1.277	1.818	4.133	7.715	30.08	171.5
610.0	235.6	213.0	154.5	82.42	48.26	41.15	50.49	70.42	95.33	130.2	169.7	191.0	128.4	77.82	55.68	363.9	3317	2365	37.93	8.822	7.917	7.255	6.749	6.343	6.216	5.890	6.065	6.142	6.098	6.312	6.595	6.390	6.256	6.580	6.511	6.016	5.481	4.791	4.057	3.566	3.285	3.284	3.240	3.028	2.973	2.971	2.861	2.695	2.443	2.237	2.018	1.877	1.782	1.670	1.677	1.735	1.941	2.004	1.719	1.478	1.494	1.461	1.576	1.582	1.661	1.676	1.807	1.845	1.690	1.370	1.243	1.172	1.207	1.689	2.406	7.356	39.46
615.0	206.4	197.5	146.1	76.24	46.87	44.12	48.99	65.17	93.93	127.8	156.6	188.9	139.6	80.46	45.96	100.1	958.7	3927	459.3	9.871	7.340	6.795	5.949	5.838	5.328	5.637	5.443	5.111	5.346	5.366	5.629	5.629	5.822	5.834	5.736	5.365	4.870	4.393	3.606	3.227	2.715	2.627	2.872	2.499	2.490	2.699	2.342	2.225	2.089	1.923	1.713	1.692	1.605	1.393	1.562	1.425	1.561	1.715	1.547	1.427	1.484	1.421	1.351	1.450	1.516	1.356	1.486	1.718	1.603	1.266	1.206	1.152	0.957	1.074	1.163	2.200	9.387
620.0	194.8	194.3	135.5	78.49	43.47	41.64	51.65	62.39	91.38	121.5	149.8	166.7	144.8	81.97	44.90	40.21	242.7	2914	1978	22.29	7.498	6.358	5.572	5.264	4.847	4.657	4.565	4.431	4.583	5.025	4.877	4.860	4.674	5.086	4.666	4.557	4.068	3.868	3.415	2.948	2.626	2.190	2.402	2.276	2.392	2.097	2.134	1.978	1.786	1.690	1.577	1.529	1.415	1.307	1.407	1.332	1.427	1.553	1.520	1.418	1.396	1.289	1.199	1.455	1.470	1.230	1.463	1.409	1.540	1.349	1.146	1.075	0.954	1.006	0.849	0.981	2.675
625.0	187.7	187.8	133.3	74.79	43.63	40.50	50.30	64.92	90.34	116.1	142.3	157.1	152.5	87.70	46.28	27.96	68.32	1215	3447	71.37	7.284	5.999	5.106	4.625	4.339	4.414	4.116	4.135	4.272	4.438	4.106	3.920	4.044	4.121	4.031	3.728	3.437	3.062	2.899	2.903	2.261	2.170	1.999	2.003	1.966	1.883	1.793	1.855	1.584	1.589	1.350	1.495	1.166	1.131	1.172	1.170	1.107	1.280	1.521	1.382	1.369	1.175	1.329	1.355	1.263	1.288	1.294	1.387	1.370	1.516	1.142	1.088	0.951	0.829	0.881	0.785	1.194
630.0	173.9	170.5	120.4	71.42	43.95	41.98	49.53	64.44	91.00	112.2	137.3	147.6	145.6	98.51	49.64	27.48	28.39	312.6	2649	1363	23.44	5.884	5.090	4.414	3.964	3.812	3.405	3.758	3.484	3.583	3.436	3.510	3.289	3.298	3.317	3.067	2.766	2.446	2.457	2.360	2.179	1.971	1.812	1.766	1.765	1.652	1.643	1.569	1.407	1.373	1.168	1.218	1.109	0.994	0.997	1.027	1.068	1.108	1.170	1.217	1.269	1.154	1.128	1.266	1.296	1.234	1.261	1.306	1.302	1.269	1.264	1.073	0.965	0.842	0.783	0.713	0.785
635.0	170.8	158.3	119.3	66.73	46.45	43.41	45.31	65.43	86.11	113.6	137.5	144.8	134.1	108.8	54.67	29.47	21.93	80.50	813.4	2975	311.4	6.568	4.950	4.336	3.941	3.434	3.040	3.463	3.142	3.124	2.887	2.919	2.752	3.147	2.723	2.491	2.360	2.112	1.983	1.961	1.928	1.885	1.598	1.570	1.490	1.499	1.406	1.521	1.254	1.208	1.085	1.023	0.999	1.052	0.882	0.939	0.944	0.984	1.101	1.038	1.241	1.109	1.211	1.254	1.137	1.192	1.299	1.312	1.253	1.166	1.137	1.120	0.975	0.891	0.824	0.730	0.799
640.0	168.6	157.0	125.2	67.81	42.99	42.47	49.71	64.61	88.31	111.2	134.8	143.1	128.3	109.7	62.79	31.14	21.49	29.02	206.6	2477	1288	12.16	4.716	4.149	3.652	3.705	3.068	2.995	2.906	2.904	2.699	2.622	2.482	2.700	2.361	2.163	2.133	1.822	1.832	1.633	1.696	1.946	1.355	1.484	1.385	1.382	1.405	1.418	1.272	1.037	1.036	0.843	0.835	0.910	0.888	0.905	0.888	0.839	0.926	0.975	1.108	1.064	1.195	1.372	1.061	1.275	1.158	1.216	1.130	1.201	1.066	1.103	1.029	0.919	0.779	0.695	0.706
645.0	158.5	159.1	119.0	69.27	45.74	42.98	50.40	61.65	84.44	112.7	135.8	141.2	124.5	108.8	70.15	34.52	21.66	17.81	56.92	1158	2471	53.72	5.181	4.046	3.660	3.354	2.916	2.776	2.638	2.666	2.428	2.446	2.353	2.471	2.311	1.980	2.001	1.951	1.760	1.517	1.469	1.730	1.513	1.380	1.196	1.250	1.262	1.274	1.150	1.074	0.944	0.860	0.871	0.868	0.861	0.833	0.814	0.882	0.946	0.873	1.044	1.076	1.177	1.219	1.189	1.221	1.167	1.175	1.149	1.153	0.976	0.985	1.117	0.915	0.845	0.747	0.711
650.0	168.5	154.4	115.9	71.44	48.78	41.34	49.12	62.60	86.26	113.8	131.0	140.8	123.7	105.1	78.25	36.78	22.26	16.25	22.12	342.8	2667	422.7	6.331	4.126	3.628	3.271	2.709	2.669	2.528	2.499	2.417	2.239	2.269	2.356	2.038	1.977	1.855	1.725	1.499	1.335	1.232	1.517	1.612	1.284	1.140	1.114	1.201	1.173	1.105	0.860	0.885	0.902	0.724	0.879	0.938	0.700	0.796	0.852	0.918	0.874	1.033	1.010	1.167	1.133	1.231	1.054	1.213	1.178	1.179	1.093	0.958	1.013	1.135	1.045	0.910	0.728	0.696
