Sample:	'1
File name:	T2025032003º«µêºÓ3.FD3
Run date:	'09:33:52, 03/21/2025
Operator:	Administrator
Comment:	'

Instrument
Model:	F-2700 FL Spectrophotometer
Serial number:	23B8-004
ROM Version:	4J14000 07

Instrument parameters
Measurement type:	3-D scan
Data mode:	Fluorescence
EX  Start WL:	220.0 nm
EX  End WL:	600.0 nm
EX Sampling interval:	5.0 nm
EM  Start WL:	230.0 nm
EM  End WL:	650.0 nm
EM Sampling interval:	5.0 nm
Scan speed:	12000 nm/min
EX Slit:	5.0 nm
EM Slit:	5.0 nm
PMT Voltage:	700 V
Response:	Auto 
Corrected spectra:	Off
Contour interval:	50.000

Peak integration
Integration method:	Rectangular
Sensitivity:	1
Threshold:	1.000

Peaks
No.	ApexEX/EM(nm)	Height(Data)
1	225.0/490.0	278.6
2	225.0/635.0	27.93
3	230.0/340.0	874.6
4	230.0/500.0	257.3
5	235.0/255.0	381.6
6	235.0/515.0	203.7
7	240.0/265.0	443.3
8	240.0/525.0	194.3
9	245.0/270.0	424.8
10	245.0/540.0	164.8
11	250.0/275.0	537.1
12	250.0/445.0	304.9
13	250.0/550.0	140.7
14	255.0/280.0	622.2
15	255.0/565.0	129.8
16	260.0/290.0	568.4
17	260.0/575.0	110.2
18	265.0/295.0	639.6
19	265.0/590.0	91.99
20	270.0/300.0	895.7
21	270.0/600.0	82.05
22	275.0/305.0	931.8
23	275.0/610.0	65.60
24	280.0/310.0	814.3
25	280.0/625.0	60.10
26	285.0/315.0	801.1
27	285.0/635.0	45.89
28	290.0/325.0	747.4
29	295.0/330.0	553.7
30	300.0/335.0	491.6
31	310.0/350.0	302.5
32	315.0/355.0	281.3
33	320.0/360.0	274.2
34	325.0/370.0	237.7
35	330.0/375.0	235.5
36	335.0/380.0	238.7
37	345.0/395.0	189.8
38	350.0/400.0	197.5
39	355.0/405.0	174.9
40	360.0/415.0	150.2
41	365.0/420.0	153.2
42	370.0/425.0	134.3
43	380.0/440.0	102.6
44	385.0/445.0	90.35
45	395.0/460.0	64.33
46	400.0/465.0	56.23
47	410.0/480.0	38.90
48	415.0/485.0	34.25
49	430.0/505.0	21.85
50	440.0/520.0	16.19
51	445.0/525.0	13.94
52	455.0/340.0	2.468
53	460.0/335.0	2.474
54	470.0/560.0	4.405
55	475.0/565.0	3.496
56	480.0/260.0	1.834
57	485.0/265.0	2.163
58	495.0/270.0	2.142
59	505.0/275.0	3.224
60	510.0/280.0	3.392
61	520.0/285.0	3.758
62	530.0/290.0	3.365
63	540.0/295.0	4.367
64	545.0/300.0	4.854
65	550.0/305.0	4.890
66	560.0/310.0	4.252
67	570.0/315.0	4.785
68	580.0/320.0	4.893
69	585.0/325.0	4.553

Data points
	220.0	225.0	230.0	235.0	240.0	245.0	250.0	255.0	260.0	265.0	270.0	275.0	280.0	285.0	290.0	295.0	300.0	305.0	310.0	315.0	320.0	325.0	330.0	335.0	340.0	345.0	350.0	355.0	360.0	365.0	370.0	375.0	380.0	385.0	390.0	395.0	400.0	405.0	410.0	415.0	420.0	425.0	430.0	435.0	440.0	445.0	450.0	455.0	460.0	465.0	470.0	475.0	480.0	485.0	490.0	495.0	500.0	505.0	510.0	515.0	520.0	525.0	530.0	535.0	540.0	545.0	550.0	555.0	560.0	565.0	570.0	575.0	580.0	585.0	590.0	595.0	600.0
230.0	58.88	946.4	1879	474.6	12.94	2.880	2.244	1.830	1.658	1.590	1.344	1.099	1.046	0.799	0.705	0.596	0.508	0.496	0.422	0.389	0.321	0.344	0.329	0.258	0.245	0.249	0.175	0.224	0.171	0.206	0.148	0.166	0.136	0.149	0.123	0.129	0.123	0.143	0.133	0.185	0.358	0.656	0.564	0.271	0.132	0.138	1.187	4.376	6.704	4.001	1.209	0.224	0.085	0.064	0.077	0.071	0.071	0.070	0.089	0.056	0.071	0.050	0.070	0.061	0.057	0.061	0.060	0.063	0.073	0.059	0.070	0.047	0.055	0.051	0.057	0.053	0.065
235.0	183.1	278.0	1210	1705	442.7	21.94	3.252	1.934	1.554	1.675	1.511	1.323	0.893	0.760	0.889	0.531	0.560	0.424	0.425	0.419	0.386	0.328	0.369	0.294	0.304	0.221	0.218	0.286	0.193	0.182	0.203	0.139	0.169	0.124	0.140	0.143	0.135	0.180	0.137	0.123	0.174	0.276	0.526	0.640	0.494	0.253	0.389	1.175	2.755	4.505	5.864	5.249	2.347	0.460	0.095	0.092	0.087	0.054	0.073	0.052	0.066	0.069	0.067	0.062	0.052	0.054	0.072	0.061	0.054	0.061	0.052	0.062	0.052	0.057	0.055	0.067	0.060
240.0	258.7	183.6	376.2	1537	1770	329.2	10.50	3.322	2.134	1.641	1.939	1.508	1.252	0.962	0.744	0.781	0.641	0.483	0.480	0.481	0.393	0.389	0.382	0.282	0.291	0.267	0.228	0.264	0.181	0.171	0.223	0.166	0.135	0.177	0.135	0.168	0.109	0.123	0.130	0.086	0.132	0.168	0.225	0.442	0.774	0.706	0.440	0.404	0.760	1.347	3.456	7.231	8.685	5.366	1.762	0.228	0.081	0.048	0.075	0.060	0.078	0.059	0.061	0.060	0.063	0.081	0.069	0.068	0.064	0.062	0.047	0.069	0.063	0.090	0.053	0.068	0.118
245.0	189.5	294.2	152.9	549.0	2064	1743	226.1	5.970	3.433	2.263	1.955	1.726	1.372	1.208	0.729	0.724	0.554	0.691	0.480	0.536	0.408	0.348	0.314	0.251	0.269	0.171	0.257	0.207	0.170	0.188	0.220	0.153	0.138	0.172	0.165	0.150	0.126	0.105	0.144	0.116	0.140	0.153	0.155	0.189	0.352	0.752	0.958	0.718	0.396	0.400	0.888	2.578	6.430	10.46	9.538	4.299	1.107	0.124	0.103	0.058	0.096	0.097	0.075	0.067	0.073	0.066	0.051	0.065	0.077	0.050	0.060	0.055	0.089	0.070	0.052	0.094	0.083
250.0	61.61	216.5	300.5	223.9	680.0	1858	2206	711.1	33.33	3.438	2.466	1.970	1.582	1.120	1.016	0.849	0.748	0.670	0.418	0.425	0.372	0.343	0.314	0.315	0.298	0.201	0.252	0.266	0.230	0.208	0.184	0.160	0.155	0.160	0.138	0.148	0.131	0.118	0.113	0.178	0.127	0.123	0.150	0.136	0.176	0.283	0.485	0.952	1.005	0.891	0.541	0.765	1.651	3.463	6.274	8.970	11.42	9.639	4.783	1.133	0.137	0.096	0.072	0.067	0.069	0.062	0.051	0.070	0.080	0.070	0.056	0.098	0.082	0.062	0.053	0.080	0.058
255.0	26.54	62.56	220.3	381.6	245.1	482.3	1847	2859	293.1	27.80	4.234	3.119	2.258	1.567	1.487	1.019	0.822	0.765	0.635	0.612	0.431	0.495	0.268	0.351	0.250	0.236	0.256	0.303	0.219	0.236	0.160	0.173	0.166	0.198	0.183	0.119	0.151	0.124	0.135	0.172	0.140	0.154	0.145	0.141	0.129	0.191	0.184	0.374	0.480	0.893	1.393	1.351	0.810	0.907	1.528	2.257	4.503	10.19	18.06	16.37	6.987	1.225	0.095	0.081	0.084	0.080	0.080	0.109	0.079	0.071	0.059	0.103	0.067	0.063	0.080	0.078	0.065
260.0	18.00	25.16	82.12	341.2	332.0	160.1	570.4	2809	2325	238.2	14.01	3.862	2.556	2.208	1.589	0.958	0.921	0.792	0.764	0.607	0.492	0.467	0.362	0.385	0.309	0.315	0.238	0.325	0.215	0.232	0.187	0.169	0.257	0.232	0.168	0.183	0.159	0.137	0.159	0.105	0.149	0.172	0.133	0.120	0.111	0.158	0.125	0.185	0.191	0.351	0.884	1.755	1.834	0.854	0.544	0.638	1.172	2.848	8.145	16.83	21.83	15.97	4.917	0.451	0.147	0.135	0.085	0.106	0.089	0.082	0.074	0.089	0.068	0.070	0.076	0.062	0.062
265.0	15.62	16.21	26.87	158.7	443.3	242.0	158.0	984.4	3721	2012	177.5	7.164	3.751	2.572	2.106	1.490	1.220	0.919	0.847	0.684	0.618	0.453	0.400	0.432	0.425	0.386	0.354	0.304	0.307	0.313	0.229	0.248	0.296	0.248	0.188	0.176	0.203	0.141	0.157	0.168	0.134	0.171	0.145	0.142	0.131	0.162	0.114	0.125	0.119	0.154	0.345	0.961	1.827	2.163	1.168	0.535	0.413	0.804	2.037	5.098	12.48	22.66	24.79	12.89	2.783	0.240	0.126	0.103	0.085	0.093	0.074	0.082	0.098	0.101	0.085	0.072	0.075
270.0	25.93	20.41	18.26	48.97	208.1	424.8	269.6	263.7	1222	3263	3514	702.5	32.06	3.966	2.799	2.057	1.398	1.034	0.862	0.789	0.675	0.556	0.464	0.475	0.385	0.359	0.405	0.349	0.366	0.310	0.270	0.252	0.261	0.265	0.251	0.220	0.224	0.181	0.219	0.212	0.169	0.134	0.170	0.157	0.184	0.176	0.128	0.156	0.127	0.125	0.146	0.327	0.643	1.155	1.890	2.142	1.722	0.890	0.653	1.347	3.075	6.608	12.92	19.23	23.05	18.95	10.31	2.392	0.262	0.130	0.120	0.084	0.103	0.107	0.078	0.116	0.092
275.0	72.03	43.39	31.03	24.93	58.47	186.0	537.1	304.3	316.9	837.6	2978	5767	924.9	25.38	4.407	2.827	1.992	1.382	0.993	1.044	0.769	0.674	0.506	0.480	0.564	0.435	0.381	0.393	0.346	0.330	0.278	0.268	0.277	0.296	0.374	0.356	0.358	0.329	0.280	0.257	0.238	0.233	0.235	0.249	0.322	0.244	0.170	0.177	0.188	0.128	0.121	0.172	0.274	0.340	0.596	1.002	2.373	3.224	2.176	0.869	0.939	1.647	3.141	4.759	7.190	15.56	29.78	28.70	15.11	2.597	0.194	0.149	0.115	0.107	0.108	0.099	0.090
280.0	121.5	85.12	43.51	27.53	31.32	62.21	338.6	622.2	220.0	238.9	880.0	4551	5307	141.8	10.80	4.314	2.326	1.649	1.470	1.041	0.834	0.755	0.563	0.582	0.579	0.467	0.405	0.453	0.319	0.394	0.261	0.291	0.350	0.310	0.467	0.618	0.499	0.478	0.367	0.402	0.309	0.334	0.374	0.403	0.432	0.301	0.274	0.227	0.257	0.150	0.171	0.164	0.223	0.180	0.260	0.358	0.887	2.184	3.392	3.006	1.282	0.681	0.976	1.331	1.948	4.169	10.76	23.20	34.36	26.28	10.12	1.114	0.179	0.127	0.162	0.125	0.108
285.0	185.7	123.0	67.26	40.68	28.03	33.76	125.6	558.0	520.6	156.0	268.1	1406	5413	4157	103.4	6.143	2.910	2.166	1.686	1.338	0.997	0.916	0.670	0.721	0.502	0.586	0.621	0.400	0.344	0.333	0.267	0.302	0.344	0.379	0.618	0.688	0.653	0.675	0.472	0.477	0.450	0.499	0.459	0.497	0.495	0.356	0.336	0.333	0.292	0.173	0.212	0.195	0.159	0.193	0.195	0.221	0.440	0.783	1.670	3.371	3.758	2.195	0.795	0.621	0.811	1.321	2.905	6.216	14.50	29.17	33.37	22.03	5.629	0.416	0.150	0.164	0.113
290.0	223.6	168.1	97.44	58.02	39.90	39.29	64.30	218.3	568.4	492.1	199.5	403.4	1593	3911	3976	423.5	21.08	3.263	2.275	1.738	1.360	1.031	0.917	0.716	0.696	0.574	0.600	0.419	0.393	0.411	0.359	0.385	0.446	0.534	0.742	0.783	0.859	0.750	0.575	0.540	0.576	0.566	0.570	0.537	0.557	0.532	0.517	0.487	0.380	0.300	0.249	0.259	0.252	0.222	0.218	0.250	0.335	0.360	0.633	1.205	2.194	3.078	3.365	2.428	1.206	0.853	1.153	1.816	3.731	7.766	13.59	21.25	24.88	24.44	14.58	4.985	0.563
295.0	253.0	218.2	139.5	81.40	58.70	55.55	61.65	111.1	234.7	639.6	633.8	234.4	441.8	969.9	2593	4794	586.9	18.10	3.533	2.406	1.774	1.286	1.160	0.993	0.654	0.653	0.568	0.412	0.493	0.439	0.325	0.397	0.420	0.597	0.750	0.956	0.914	0.734	0.660	0.568	0.588	0.657	0.646	0.657	0.640	0.577	0.560	0.537	0.534	0.414	0.341	0.304	0.292	0.254	0.254	0.349	0.347	0.388	0.491	0.635	0.864	1.099	1.920	3.567	4.367	2.522	1.163	1.027	1.359	2.203	3.472	5.093	6.761	12.48	26.13	32.65	21.64
300.0	271.9	235.6	178.3	108.3	79.37	85.10	82.38	110.1	162.2	365.2	895.7	478.8	233.1	312.5	737.6	3519	4253	85.83	7.962	2.931	1.970	1.476	1.316	1.009	0.862	0.815	0.565	0.473	0.486	0.531	0.410	0.379	0.403	0.550	0.720	0.935	0.830	0.736	0.813	0.611	0.645	0.693	0.624	0.634	0.751	0.648	0.674	0.640	0.599	0.588	0.382	0.416	0.403	0.381	0.320	0.382	0.442	0.501	0.476	0.660	0.652	0.692	1.039	1.750	3.538	4.854	3.814	1.595	1.030	1.083	1.342	1.652	2.017	3.369	7.938	18.75	34.15
305.0	304.8	285.6	227.3	154.9	112.0	110.8	126.2	146.8	185.7	277.2	665.1	931.8	364.4	206.9	275.7	1092	4140	3266	66.84	4.618	2.452	1.601	1.448	1.166	0.986	0.758	0.636	0.561	0.590	0.587	0.433	0.362	0.480	0.544	0.715	1.010	0.857	0.828	0.876	0.712	0.812	0.748	0.747	0.665	0.721	0.717	0.758	0.770	0.737	0.730	0.548	0.579	0.539	0.557	0.514	0.573	0.615	0.663	0.756	0.860	0.816	0.988	1.062	1.277	1.963	3.255	4.890	4.706	2.830	1.420	1.099	1.211	1.327	1.518	2.438	5.150	12.13
310.0	347.6	354.0	284.5	209.8	156.3	142.8	169.3	195.3	223.3	289.4	432.4	756.3	814.3	391.7	237.3	362.5	1252	2954	3020	292.9	16.53	2.626	1.993	1.459	1.181	0.887	0.714	0.681	0.602	0.585	0.412	0.459	0.442	0.529	0.717	0.896	0.836	0.839	0.769	0.715	0.786	0.772	0.739	0.812	0.849	0.886	0.863	0.976	0.899	0.808	0.653	0.759	0.640	0.673	0.638	0.671	0.732	0.844	0.835	1.026	0.959	1.046	1.330	1.370	1.597	2.084	2.672	3.844	4.252	4.139	2.997	1.783	1.320	1.251	1.348	1.901	3.310
315.0	456.8	447.3	377.7	248.6	188.9	175.7	200.8	226.5	257.1	315.2	396.5	506.3	714.8	801.1	342.2	226.6	392.2	748.7	1924	3589	443.1	12.59	3.052	1.780	1.415	1.159	0.760	0.671	0.676	0.634	0.528	0.536	0.440	0.613	0.811	0.837	0.890	0.799	0.833	0.827	0.910	0.924	0.905	0.982	0.992	1.020	1.036	1.337	1.072	0.933	0.849	0.886	0.868	0.742	0.732	0.771	0.887	1.046	0.876	0.926	1.078	1.203	1.378	1.445	1.636	1.828	2.077	2.381	2.703	3.229	4.785	4.397	3.015	1.708	1.425	1.257	1.531
320.0	559.9	548.0	453.8	297.7	213.7	183.7	209.5	244.7	274.3	330.8	406.9	475.4	538.5	792.1	614.9	240.6	215.5	242.7	524.5	2564	3136	65.25	6.243	2.239	1.738	1.391	0.932	0.840	0.840	0.654	0.518	0.589	0.526	0.508	0.751	0.755	0.840	1.001	0.877	0.914	0.913	0.899	1.151	1.309	1.296	1.382	1.318	1.504	1.408	1.060	1.081	1.038	0.851	0.845	0.867	0.804	0.934	1.193	1.338	1.157	1.210	1.234	1.303	1.600	1.753	1.927	2.112	2.049	2.295	2.554	3.339	4.306	4.893	3.343	1.853	1.462	1.172
325.0	615.8	675.1	584.1	386.5	243.3	191.6	215.2	256.9	280.3	340.1	410.9	475.7	482.7	583.9	747.4	381.3	187.1	135.8	157.2	759.5	2955	2437	53.22	3.665	2.210	1.401	1.277	0.988	0.793	0.651	0.652	0.706	0.643	0.589	0.733	0.691	0.887	1.025	0.889	1.038	1.113	0.977	1.235	1.241	1.356	1.609	1.716	1.858	1.804	1.364	1.224	1.176	1.013	0.923	0.821	0.974	0.951	1.037	1.221	1.328	1.287	1.231	1.395	1.635	1.775	2.039	2.023	2.057	2.091	2.386	2.699	2.992	3.887	4.553	3.765	2.142	1.327
330.0	684.7	796.0	754.2	565.5	332.9	225.9	222.8	252.9	272.7	341.0	408.9	465.1	474.3	467.9	525.2	553.7	317.4	127.9	85.06	203.6	854.4	2192	2327	238.9	13.09	2.246	1.593	1.007	0.953	0.790	0.713	0.572	0.621	0.618	0.692	0.613	0.879	0.872	0.873	0.937	1.027	1.012	1.268	1.416	1.663	1.892	1.883	2.195	2.273	1.929	1.734	1.716	1.372	1.076	0.889	0.873	1.064	0.998	1.137	1.336	1.226	1.300	1.443	1.644	1.810	1.979	2.063	2.088	2.094	2.233	2.304	2.297	2.653	2.937	3.383	3.430	3.116
335.0	768.9	839.9	863.6	677.2	402.8	250.8	222.0	245.4	273.1	321.2	396.5	448.0	457.5	422.7	382.1	391.9	491.6	232.7	82.59	87.38	222.0	532.5	1567	2845	364.7	10.30	2.189	1.288	1.270	0.988	0.882	0.766	0.655	0.729	0.742	0.738	0.821	0.845	0.834	0.900	1.183	1.038	1.201	1.409	1.688	1.879	2.050	2.463	2.474	2.192	2.082	2.072	1.569	1.221	1.039	0.799	1.017	0.984	0.983	1.287	1.202	1.180	1.401	1.600	1.789	1.741	1.980	2.160	2.044	2.214	2.198	2.314	2.144	2.063	2.062	2.025	2.631
340.0	723.9	830.9	874.6	726.7	431.4	261.1	226.0	241.9	264.0	311.8	371.4	421.4	427.9	398.8	339.5	285.6	388.2	382.6	126.2	68.86	85.45	147.9	430.9	2121	2513	55.10	4.425	1.683	1.345	1.061	0.736	0.829	0.761	0.662	0.676	0.735	0.880	0.808	0.855	0.939	1.036	1.100	1.139	1.382	1.544	1.784	1.947	2.468	2.373	2.379	2.038	2.075	1.770	1.413	1.080	0.831	0.931	1.002	1.061	1.281	1.260	1.230	1.321	1.479	1.476	1.625	2.021	1.931	1.997	2.062	1.911	2.165	1.878	1.848	1.667	1.670	1.789
345.0	667.6	823.7	860.7	730.6	447.1	267.1	225.6	236.4	254.7	297.7	351.1	395.9	402.2	374.1	317.9	249.0	260.3	380.9	251.8	79.33	62.24	67.31	123.6	635.6	2460	1929	46.11	2.853	1.780	1.352	0.927	0.695	0.885	0.680	0.639	0.783	0.975	0.655	0.723	0.941	0.847	1.132	1.062	1.221	1.466	1.768	1.919	2.415	2.233	2.405	2.234	2.212	1.818	1.448	1.105	0.936	0.890	0.978	1.068	1.072	1.067	1.342	1.335	1.452	1.669	1.612	1.841	1.867	1.762	2.037	1.840	1.928	1.922	1.753	1.522	1.470	1.448
350.0	629.8	748.8	794.8	699.3	462.2	282.4	221.5	228.0	244.7	275.7	323.9	362.4	363.0	343.1	293.1	235.2	203.9	232.9	302.5	199.6	81.77	59.56	62.56	167.7	730.9	1788	1792	208.3	10.71	1.723	1.169	0.948	0.886	0.808	0.622	0.725	0.834	0.665	0.762	0.831	0.855	0.950	1.072	1.127	1.269	1.668	1.629	2.087	2.144	2.251	2.049	2.176	1.812	1.357	1.126	1.007	0.928	0.952	0.996	0.984	1.039	1.253	1.144	1.338	1.484	1.462	1.686	1.564	1.672	1.797	1.587	1.754	1.722	1.618	1.487	1.340	1.298
355.0	571.8	665.6	712.8	638.4	452.5	290.7	229.5	231.2	237.9	261.1	296.6	320.3	319.8	307.2	269.3	221.5	188.1	170.3	189.5	281.3	180.7	72.39	58.78	71.12	186.7	435.7	1271	2187	315.5	7.169	1.787	1.029	0.934	0.815	0.722	0.738	0.750	0.849	0.807	0.848	0.877	0.985	0.931	0.988	1.194	1.357	1.627	1.857	1.933	1.940	1.876	1.994	1.648	1.350	1.206	1.003	1.122	0.972	1.101	0.829	1.067	1.071	1.183	1.319	1.361	1.382	1.495	1.546	1.554	1.488	1.471	1.651	1.565	1.609	1.305	1.237	1.310
360.0	508.4	608.4	653.6	581.3	427.1	298.4	234.4	235.8	239.9	255.2	283.3	294.4	298.9	287.9	256.8	217.1	185.4	160.9	149.9	215.6	274.2	126.5	68.21	58.19	72.95	120.0	357.3	1741	1946	49.64	3.380	1.378	1.171	1.039	0.795	0.652	0.756	0.871	0.683	0.788	0.779	0.797	0.863	0.950	1.101	1.323	1.476	1.566	1.918	1.869	1.678	1.871	1.715	1.411	1.170	1.104	1.097	1.067	1.109	1.039	1.047	1.135	1.158	1.193	1.344	1.284	1.325	1.364	1.319	1.409	1.496	1.464	1.456	1.536	1.140	1.128	1.277
365.0	493.3	554.5	590.5	556.4	423.2	305.6	244.7	231.4	236.1	250.3	266.1	287.3	285.9	271.0	247.2	213.1	187.8	162.7	147.7	160.2	256.4	219.8	92.88	64.04	55.95	55.92	102.0	540.1	2029	1538	39.81	2.448	1.391	1.007	0.987	0.796	0.881	0.817	0.675	0.658	0.831	0.789	0.870	0.877	1.023	1.191	1.235	1.520	1.643	1.706	1.583	1.787	1.675	1.465	1.226	1.105	1.167	1.053	1.059	1.007	1.067	1.246	1.237	1.235	1.273	1.279	1.363	1.224	1.321	1.453	1.298	1.352	1.417	1.329	1.176	1.298	1.303
370.0	446.0	499.0	532.5	502.2	408.8	310.8	258.8	242.0	239.2	250.7	258.3	275.3	268.8	257.7	236.7	209.0	192.9	172.6	156.6	147.7	176.7	237.7	194.6	93.78	64.04	51.77	52.69	143.4	616.7	1538	1497	178.5	8.444	1.484	1.153	0.893	0.955	0.907	0.718	0.669	0.722	0.815	0.872	0.961	0.955	1.192	1.103	1.476	1.376	1.389	1.456	1.751	1.534	1.435	1.305	1.125	1.044	1.118	1.105	1.057	1.195	1.157	1.212	1.170	1.193	1.283	1.181	1.210	1.281	1.338	1.326	1.367	1.303	1.369	1.277	1.283	1.266
375.0	417.2	469.4	492.1	458.6	397.3	326.7	269.8	247.9	242.4	249.2	256.9	261.0	262.8	251.1	231.4	207.7	192.7	181.0	166.2	155.4	153.0	171.0	235.5	182.2	87.42	62.28	52.62	62.70	160.8	380.8	1133	1759	255.0	5.975	1.457	1.149	0.955	0.845	0.797	0.776	0.805	0.760	0.804	0.897	0.909	1.029	1.124	1.287	1.278	1.274	1.274	1.578	1.341	1.362	1.391	1.142	1.076	1.058	1.217	1.153	1.213	1.166	1.176	1.241	1.167	1.139	1.119	1.230	1.278	1.153	1.199	1.332	1.255	1.386	1.179	1.241	1.247
380.0	387.4	453.5	456.5	453.1	394.3	330.5	281.2	256.4	245.6	250.5	255.3	259.0	261.5	250.1	227.1	206.2	196.7	183.4	173.8	161.2	152.4	148.5	188.5	238.7	136.1	74.75	60.17	52.43	63.75	106.9	325.8	1453	1481	41.01	2.606	1.313	1.172	0.934	0.820	0.785	0.824	0.780	0.811	0.970	0.866	1.068	0.988	1.049	1.172	1.172	1.231	1.543	1.446	1.442	1.414	1.184	1.064	1.169	1.251	1.131	1.098	1.039	1.241	1.067	1.160	1.094	1.236	1.132	1.317	1.181	1.156	1.172	1.185	1.271	1.172	1.282	1.286
385.0	372.1	422.7	442.6	426.1	387.6	334.0	283.1	268.9	257.5	256.7	251.9	255.2	261.2	242.4	222.9	204.8	196.6	183.9	179.1	166.2	160.3	150.2	154.5	213.3	205.2	101.9	71.79	57.14	49.28	49.24	94.92	460.8	1554	1086	30.86	1.878	1.379	0.924	0.808	0.816	0.790	0.835	0.663	0.884	0.813	0.892	1.040	1.118	1.196	1.139	1.181	1.413	1.478	1.355	1.291	1.277	1.199	1.273	1.198	1.144	1.295	1.106	1.175	1.099	1.165	1.179	1.088	1.222	1.225	1.122	1.229	1.257	1.234	1.242	1.021	1.233	1.371
390.0	356.5	405.4	412.7	402.0	378.1	333.5	292.8	274.7	262.1	260.0	250.8	255.5	251.9	235.1	220.1	206.9	194.6	187.1	183.5	173.5	164.5	155.7	149.6	161.5	200.9	175.4	98.53	67.14	53.28	44.10	47.24	122.6	474.1	1088	805.3	137.3	6.495	1.240	0.959	0.886	0.785	0.847	0.838	0.901	0.839	0.931	0.986	1.130	1.146	1.090	1.132	1.401	1.413	1.345	1.342	1.309	1.311	1.232	1.267	1.110	1.191	1.175	1.149	1.130	1.174	1.135	1.233	1.181	1.151	1.178	1.295	1.168	1.292	1.211	1.160	1.173	1.242
395.0	338.1	379.6	396.2	393.6	371.8	332.2	304.7	276.9	264.1	264.2	258.2	248.4	244.7	231.6	216.7	202.0	196.3	187.2	184.5	178.1	169.9	161.0	153.6	147.1	151.7	189.8	167.0	88.89	62.81	50.83	43.58	50.29	121.2	269.3	735.0	1203	203.6	4.452	1.289	0.996	0.815	0.773	0.825	0.840	0.801	0.989	1.035	1.101	1.186	1.079	1.148	1.322	1.325	1.303	1.239	1.208	1.299	1.178	1.316	1.219	1.223	1.127	1.249	1.183	1.250	1.165	1.241	1.230	1.086	1.141	1.252	1.237	1.232	1.219	1.210	1.256	1.236
400.0	331.1	380.0	384.7	380.9	368.7	322.0	309.4	282.0	268.0	262.0	251.9	249.4	243.5	232.0	216.3	200.1	194.5	186.7	185.8	177.9	172.2	164.6	156.3	145.1	139.1	155.3	197.5	128.1	74.07	57.88	47.53	39.06	45.66	73.00	212.6	979.8	1061	34.71	2.077	1.224	0.918	0.821	0.829	0.834	0.787	0.925	0.871	1.060	1.060	1.030	1.118	1.198	1.201	1.379	1.312	1.214	1.304	1.283	1.360	1.321	1.157	1.134	1.231	1.243	1.266	1.166	1.295	1.201	1.212	1.053	1.223	1.211	1.181	1.243	1.153	1.329	1.327
405.0	333.4	365.2	384.2	386.7	360.5	322.5	310.5	286.1	273.3	263.3	256.3	251.7	243.4	227.9	208.1	195.4	192.4	184.4	184.5	177.5	172.1	168.5	156.8	147.2	137.2	133.5	170.8	174.9	98.80	64.92	53.96	41.58	32.12	31.04	58.41	304.7	1079	763.6	27.07	1.694	1.026	0.993	0.906	0.923	0.778	0.931	0.906	1.043	1.022	0.951	1.155	1.219	1.179	1.198	1.274	1.129	1.383	1.285	1.203	1.277	1.236	1.290	1.163	1.212	1.225	1.267	1.192	1.089	1.084	1.170	1.206	1.182	1.079	1.173	1.099	1.041	1.279
410.0	336.5	355.1	368.4	366.6	345.0	323.6	305.5	300.9	279.5	270.1	258.8	250.3	234.4	220.4	206.0	192.5	187.0	182.3	181.6	173.3	170.3	166.3	156.3	149.2	137.5	128.6	134.3	162.1	148.9	89.05	61.06	45.97	33.67	26.34	26.36	78.27	322.1	745.1	595.0	125.2	5.659	1.251	0.912	1.015	0.850	0.914	0.968	1.148	0.962	0.900	1.087	1.193	1.224	1.233	1.165	1.237	1.298	1.254	1.289	1.273	1.219	1.269	1.255	1.272	1.142	1.282	1.072	1.019	1.017	1.037	1.210	1.172	1.188	1.178	1.053	1.175	1.262
415.0	328.8	340.6	360.8	342.7	328.7	316.5	304.9	300.2	288.6	270.9	258.3	244.5	228.8	214.2	196.2	183.7	179.3	175.3	174.0	168.3	165.6	161.3	153.1	149.0	139.4	130.3	122.9	125.1	150.2	137.4	77.22	52.71	37.98	28.88	22.24	29.53	80.82	183.2	499.5	863.2	172.2	3.957	1.208	1.060	0.960	1.042	1.032	0.894	1.081	0.914	0.980	1.194	1.167	1.297	1.143	1.187	1.258	1.297	1.260	1.314	1.252	1.231	1.271	1.219	1.177	1.220	1.064	1.101	1.049	0.946	1.075	1.197	1.166	1.128	1.032	1.211	1.184
420.0	309.7	342.1	338.2	325.8	320.9	318.0	302.1	290.9	280.8	267.5	258.3	244.4	222.5	211.7	190.3	179.8	175.8	170.8	165.6	163.7	158.9	157.4	150.5	146.3	137.6	126.8	121.4	113.4	124.9	153.2	105.9	60.81	43.55	32.06	24.66	20.31	27.58	48.77	141.4	665.5	754.4	31.71	2.034	1.159	1.038	0.957	0.869	0.947	1.119	0.963	0.973	1.191	1.216	1.192	1.231	1.155	1.355	1.271	1.385	1.279	1.278	1.352	1.329	1.177	1.117	1.179	1.123	1.131	1.077	1.076	1.086	1.137	1.203	1.084	1.093	1.121	1.183
425.0	297.8	322.4	340.2	323.8	322.1	311.2	295.4	294.6	287.4	269.5	254.4	236.4	220.3	208.2	187.8	176.1	169.2	166.8	163.3	157.8	153.0	152.8	147.1	144.1	134.8	126.7	119.1	111.9	108.7	131.1	134.3	76.70	47.58	35.82	27.20	20.81	17.74	20.17	38.50	202.0	726.7	584.5	25.42	1.542	1.002	1.103	0.930	1.001	1.013	1.018	0.911	1.031	1.123	1.151	1.222	1.213	1.224	1.188	1.302	1.251	1.280	1.219	1.280	1.293	1.262	1.194	1.182	1.174	1.068	0.955	1.049	1.103	0.942	1.027	1.028	1.015	1.092
430.0	439.1	315.5	317.6	310.3	313.7	309.4	299.8	297.4	288.1	273.0	256.9	237.5	219.2	197.4	179.9	170.1	165.0	160.2	157.2	152.0	147.9	145.3	143.0	137.7	132.7	124.6	118.9	111.7	105.5	103.8	120.9	108.4	64.60	41.46	31.19	24.40	19.32	15.48	17.33	51.92	211.5	525.5	470.8	116.5	5.833	1.213	1.022	1.023	0.911	0.923	0.900	1.067	1.112	1.180	1.208	1.210	1.267	1.227	1.259	1.271	1.253	1.220	1.189	1.174	1.130	1.260	1.067	1.038	0.980	0.998	1.001	0.960	0.960	1.037	1.050	1.003	1.159
435.0	912.2	310.1	305.6	301.4	316.0	311.9	299.0	294.4	288.1	267.3	249.7	234.3	213.6	195.2	175.6	164.4	157.8	152.1	151.7	145.5	142.5	138.3	134.3	133.3	128.6	123.1	118.5	111.4	105.6	97.98	94.15	107.7	96.38	50.01	35.67	27.71	22.60	17.30	14.28	19.37	53.30	127.3	356.0	697.9	170.2	5.276	1.138	1.103	1.030	0.961	0.915	1.105	1.246	1.183	1.226	1.238	1.260	1.314	1.481	1.329	1.410	1.230	1.207	1.125	1.262	1.054	1.092	1.059	0.962	1.042	0.937	1.026	0.986	1.043	0.880	1.034	1.014
440.0	1362	408.3	306.1	299.1	301.5	293.8	304.2	291.5	286.5	267.0	247.8	233.8	210.3	191.2	172.8	157.6	153.5	148.4	145.1	144.3	136.6	132.5	129.9	129.0	124.8	120.2	115.7	110.2	103.7	97.01	88.05	88.95	102.6	73.91	41.38	30.40	24.48	19.71	15.42	13.43	18.70	34.12	99.05	510.4	663.4	30.76	2.368	1.250	1.091	0.926	0.860	1.146	1.261	1.069	1.159	1.136	1.257	1.442	1.291	1.309	1.359	1.268	1.236	1.202	1.155	1.071	0.947	1.065	1.159	0.979	0.994	0.986	0.942	1.039	0.889	1.011	1.044
445.0	1437	746.2	289.3	290.3	290.3	288.1	304.9	293.4	287.0	261.6	240.4	229.1	205.6	185.6	166.5	154.7	148.0	143.7	140.6	136.8	131.0	128.0	125.5	124.0	121.0	117.8	112.8	108.6	102.4	95.52	86.69	79.26	89.10	90.35	53.08	33.97	26.39	20.83	17.19	13.59	12.14	14.04	27.63	150.1	590.6	546.3	23.80	1.848	1.162	1.045	0.835	1.134	1.163	1.195	1.109	1.195	1.304	1.365	1.242	1.220	1.298	1.373	1.204	1.137	1.159	1.104	0.978	0.930	1.088	0.998	1.012	0.945	0.935	0.939	0.975	0.879	0.974
450.0	902.1	1353	431.0	270.8	277.2	284.1	295.3	290.6	278.9	253.9	239.4	216.8	199.7	177.4	159.3	148.5	139.1	135.2	131.3	126.4	122.5	119.2	119.8	117.2	114.0	111.4	108.3	105.7	99.91	94.58	85.14	75.99	71.46	79.59	72.17	45.56	29.59	23.03	19.32	15.57	12.47	10.68	12.44	38.56	165.7	435.6	507.3	111.6	6.498	1.210	0.920	1.078	1.039	1.183	1.080	1.134	1.328	1.287	1.266	1.249	1.102	1.239	1.186	1.110	1.134	1.014	1.052	0.966	0.927	0.983	0.950	0.893	0.859	0.825	0.969	0.889	0.929
455.0	411.3	1352	947.4	278.9	259.8	265.3	277.6	278.3	266.6	243.9	229.1	206.8	188.7	169.5	150.3	136.5	130.5	125.6	121.9	116.3	111.7	110.8	108.5	108.5	105.9	103.6	100.7	97.93	95.80	90.21	81.77	71.97	63.75	61.06	67.80	63.83	37.15	25.57	21.17	17.18	14.00	11.58	9.588	13.92	41.80	103.7	268.3	567.1	156.8	6.538	1.002	1.108	1.051	1.141	1.196	1.140	1.341	1.307	1.376	1.296	1.318	1.075	1.106	1.140	1.002	1.063	0.980	1.014	0.904	0.927	0.902	0.900	0.816	0.921	0.873	0.848	0.886
460.0	270.3	863.3	1455	369.0	252.0	258.4	274.6	271.1	251.1	235.3	214.6	198.4	178.8	159.5	143.2	131.4	122.3	116.9	113.1	108.8	104.5	101.9	100.1	100.4	99.99	97.23	93.54	92.56	91.04	85.02	79.39	69.34	62.10	54.29	55.02	64.33	48.82	28.57	22.11	18.26	15.05	12.50	9.800	9.163	14.28	27.25	69.27	345.4	531.8	117.0	3.013	1.106	1.086	1.115	1.137	1.153	1.227	1.209	1.071	1.172	1.053	1.129	1.155	1.254	1.021	0.975	0.951	0.867	0.946	0.878	0.837	0.897	0.817	0.745	0.779	0.885	0.813
465.0	251.0	426.7	1558	680.7	235.2	246.4	257.8	261.2	248.2	226.3	205.0	194.2	173.7	151.6	138.7	125.6	115.2	111.3	104.5	102.2	98.50	96.21	94.10	95.12	93.66	91.48	89.45	87.91	87.14	81.75	77.11	67.13	59.74	50.85	47.29	53.47	56.23	35.62	22.68	18.91	15.43	12.83	10.79	9.392	8.674	10.33	19.15	94.44	404.7	447.9	21.53	2.075	1.200	1.022	1.083	0.979	0.998	1.179	1.095	1.197	1.137	1.134	1.087	1.094	0.953	0.851	1.008	0.834	0.891	0.800	0.831	0.855	0.736	0.748	0.779	0.876	0.751
470.0	271.9	256.7	892.9	1300	353.9	228.0	236.5	238.3	231.0	213.7	195.9	174.4	158.8	139.7	124.5	111.9	105.4	99.85	96.24	92.68	89.82	85.46	83.86	84.17	83.83	83.14	81.60	80.00	78.53	76.34	70.85	62.69	56.46	48.19	43.19	41.88	47.25	45.17	29.22	19.84	15.87	13.29	11.53	9.604	8.251	7.166	8.210	24.39	107.9	289.4	348.2	107.3	7.848	1.173	1.095	0.937	1.022	1.115	1.111	1.048	1.056	1.037	0.995	0.928	0.925	0.885	0.845	0.900	0.809	0.838	0.779	0.777	0.627	0.691	0.643	0.767	0.709
475.0	302.0	218.5	372.4	1268	872.4	213.0	219.2	220.0	210.9	195.2	179.2	159.1	144.7	126.5	108.4	103.2	94.66	89.83	85.53	82.90	77.95	76.21	75.13	76.21	74.45	72.87	73.56	71.54	71.27	68.61	65.18	57.88	51.85	46.00	40.02	36.05	34.63	39.81	38.52	23.68	16.90	13.63	11.73	10.20	8.585	7.288	6.080	8.995	26.87	67.58	145.0	360.0	158.9	9.235	1.122	0.975	0.983	0.969	1.045	0.979	0.966	0.886	1.004	0.833	0.821	0.853	0.722	0.760	0.740	0.837	0.693	0.732	0.547	0.547	0.624	0.718	0.622
480.0	302.3	225.4	222.3	764.0	1336	304.8	202.4	204.1	199.1	185.0	169.9	150.1	136.9	119.8	104.9	93.74	88.53	84.21	79.22	75.42	71.54	70.86	68.48	69.97	68.98	66.49	67.14	66.33	65.95	62.86	60.32	54.61	49.02	43.65	38.75	33.73	30.36	31.71	38.90	30.24	18.68	13.83	11.89	10.29	8.688	7.629	5.805	5.946	8.897	17.75	36.30	174.6	379.4	133.1	4.422	1.130	1.064	0.989	0.911	0.975	0.995	0.904	0.899	0.816	0.762	0.775	0.757	0.699	0.601	0.905	0.603	0.656	0.644	0.614	0.656	0.592	0.668
485.0	253.4	267.1	188.4	375.3	1401	532.5	187.1	194.8	184.9	171.7	157.8	141.7	127.1	112.4	99.39	87.92	84.16	78.90	74.43	70.39	67.11	66.02	64.45	63.73	64.19	64.47	62.49	61.40	62.64	60.33	57.30	51.70	46.91	41.56	36.91	32.92	28.42	27.37	32.06	34.25	22.86	15.06	12.44	10.32	8.934	7.566	6.473	5.327	5.437	6.682	10.53	45.33	238.6	361.3	27.12	2.341	1.099	0.989	0.886	0.980	0.893	0.808	0.782	0.700	0.770	0.613	0.788	0.702	0.685	0.744	0.681	0.646	0.638	0.572	0.556	0.557	0.595
490.0	184.4	278.6	194.0	206.4	813.0	1195	298.7	177.0	172.6	160.2	147.2	135.7	118.6	105.5	91.95	82.29	77.68	71.64	67.78	65.26	61.46	59.85	59.01	58.32	58.54	58.10	57.38	56.98	56.67	56.31	53.50	48.19	43.41	39.30	35.05	30.89	27.11	24.94	24.78	29.24	28.46	18.98	13.14	10.90	8.905	7.831	6.989	6.108	4.969	4.395	4.893	12.28	61.02	187.9	245.4	113.0	9.842	1.148	0.859	0.886	0.813	0.857	0.821	0.685	0.614	0.651	0.730	0.601	0.604	0.679	0.616	0.598	0.525	0.578	0.537	0.605	0.537
495.0	140.2	220.7	240.3	159.9	322.9	1232	772.9	167.0	155.6	146.2	134.4	123.8	107.6	96.95	82.35	72.82	71.17	64.86	61.19	58.53	55.77	54.25	52.96	53.33	52.87	52.19	51.67	52.33	51.24	51.53	48.62	45.40	39.81	35.75	32.62	28.56	26.38	22.97	21.04	21.25	25.31	25.17	15.77	11.34	9.011	8.061	7.007	6.427	5.604	4.266	3.975	5.121	15.61	44.01	104.8	317.7	184.2	12.15	1.018	0.768	0.733	0.846	0.873	0.780	0.553	0.566	0.680	0.633	0.561	0.577	0.572	0.582	0.539	0.526	0.507	0.476	0.568
500.0	114.1	178.5	257.3	159.7	178.3	757.7	1287	237.7	141.8	136.8	123.0	115.6	100.9	88.88	77.20	66.64	64.09	57.63	56.63	52.02	50.96	49.91	48.69	48.48	47.61	47.10	47.59	47.92	46.85	46.26	45.22	42.01	38.08	33.72	30.37	27.18	24.30	22.95	19.51	18.00	20.30	24.74	19.61	12.18	8.901	7.759	7.310	6.284	5.646	4.629	3.676	3.813	5.626	11.72	26.03	141.7	354.0	146.0	5.789	0.842	0.985	0.858	0.764	0.696	0.571	0.635	0.594	0.471	0.518	0.481	0.540	0.541	0.546	0.546	0.483	0.461	0.541
505.0	105.4	134.8	245.1	163.8	135.3	353.8	1415	386.7	136.6	126.2	117.9	103.4	92.77	83.28	71.33	64.01	58.18	55.72	53.22	48.63	47.42	45.23	45.28	44.61	43.08	42.46	43.28	42.33	43.97	42.67	41.47	38.30	34.24	32.05	28.63	25.30	22.39	20.86	18.43	16.74	16.50	19.87	21.85	14.88	9.606	8.053	6.846	6.113	5.441	4.988	3.690	3.399	3.567	4.574	7.455	35.97	189.7	332.0	29.96	2.577	0.939	0.763	0.734	0.719	0.576	0.631	0.596	0.517	0.531	0.478	0.529	0.572	0.501	0.456	0.398	0.410	0.447
510.0	93.13	104.1	167.8	202.5	119.2	167.5	828.6	1138	211.5	115.6	106.4	94.28	83.15	72.49	64.89	57.56	52.03	49.21	46.81	42.43	41.31	40.68	39.23	39.31	38.63	38.06	37.90	38.80	38.61	37.81	36.34	34.20	30.59	28.08	25.49	22.55	21.12	18.57	17.26	15.35	14.61	14.69	18.58	18.25	11.95	7.974	6.774	5.914	5.247	4.737	4.176	3.561	3.031	2.936	3.426	9.579	46.68	151.2	211.4	115.6	9.911	0.856	0.738	0.654	0.549	0.498	0.505	0.482	0.426	0.487	0.402	0.413	0.458	0.405	0.384	0.388	0.368
515.0	81.38	87.01	115.0	203.7	142.3	109.1	293.4	1265	667.9	111.1	93.51	82.66	73.77	65.32	56.67	50.65	45.45	41.81	40.30	38.49	35.44	34.50	33.83	33.64	33.88	33.53	33.41	33.57	34.63	32.94	31.03	30.30	26.95	24.76	23.27	20.52	19.00	16.65	15.40	14.23	12.79	11.92	12.64	16.64	15.40	9.891	6.815	5.945	5.147	4.394	4.061	3.856	3.138	2.552	2.610	3.635	11.70	35.01	72.80	232.3	165.3	11.90	0.861	0.602	0.522	0.487	0.438	0.446	0.412	0.389	0.350	0.382	0.333	0.350	0.342	0.345	0.327
520.0	77.23	76.75	88.46	169.0	163.5	93.10	143.5	789.0	1226	163.9	84.51	76.58	68.05	58.98	51.47	45.40	43.05	38.79	36.39	34.90	31.67	31.38	30.65	30.42	30.14	30.10	29.92	30.18	30.86	29.57	28.90	27.18	24.74	22.31	20.46	19.04	16.82	15.39	13.99	12.86	12.13	10.64	10.26	12.55	16.19	12.54	7.282	5.699	5.274	4.136	3.755	3.866	3.427	2.654	2.120	2.382	3.978	8.947	17.70	94.00	254.7	115.8	5.570	0.604	0.564	0.492	0.405	0.460	0.372	0.365	0.346	0.402	0.406	0.407	0.295	0.350	0.278
525.0	65.33	73.29	72.17	117.0	194.3	96.05	95.12	341.2	1449	285.0	79.38	68.93	61.92	53.64	47.41	40.28	38.47	34.90	33.27	30.83	28.65	28.28	28.07	27.73	27.06	26.59	26.93	26.45	27.53	26.23	26.09	24.61	22.63	20.46	18.74	17.54	16.03	13.81	13.11	12.13	11.31	9.765	9.304	9.553	13.79	13.94	8.748	5.895	4.813	4.018	3.747	3.287	3.628	2.907	2.182	2.031	2.304	3.268	5.135	23.07	123.2	235.1	30.16	2.186	0.525	0.493	0.401	0.420	0.394	0.385	0.336	0.403	0.366	0.355	0.289	0.274	0.301
530.0	61.24	69.96	64.11	78.46	168.3	128.8	80.80	141.6	878.2	1066	141.8	63.07	54.33	46.91	41.27	35.34	33.30	30.35	28.47	26.38	24.82	24.47	24.69	23.61	23.46	23.59	23.50	23.47	23.39	23.39	22.20	21.56	19.55	17.93	16.53	15.51	13.94	12.72	11.96	10.98	9.479	9.010	8.354	7.802	9.167	11.59	11.23	7.057	4.573	3.902	3.465	3.084	2.983	3.049	2.498	1.838	1.827	1.921	2.184	6.096	29.84	101.8	160.8	89.63	8.890	0.541	0.466	0.375	0.338	0.336	0.295	0.334	0.365	0.332	0.278	0.259	0.278
535.0	55.56	51.46	51.71	60.33	100.8	163.6	79.78	85.99	286.5	1273	550.2	57.43	47.78	40.94	35.45	31.00	27.98	26.55	24.79	22.59	21.43	20.46	21.18	19.97	20.09	19.69	19.91	19.57	20.13	19.88	18.97	18.18	16.79	15.55	13.97	13.97	12.31	10.97	10.29	9.427	8.627	7.891	7.051	6.558	6.805	7.916	10.19	9.027	5.376	3.778	3.372	2.794	2.762	2.666	2.757	2.243	1.521	1.514	1.464	2.208	7.420	23.47	51.15	158.8	116.9	9.119	0.501	0.362	0.351	0.294	0.350	0.275	0.245	0.296	0.243	0.240	0.226
540.0	46.40	52.54	49.66	46.61	66.89	164.8	94.03	67.44	115.0	783.6	1119	93.17	40.91	37.09	31.51	27.92	25.34	23.90	21.48	20.55	18.98	19.00	18.07	17.98	17.35	17.18	17.59	17.52	17.99	17.63	17.38	16.09	14.31	13.78	12.66	11.47	11.11	9.754	9.242	8.276	7.582	7.217	6.509	5.937	6.111	5.914	7.600	9.012	6.469	3.729	3.115	2.579	2.492	2.131	2.252	2.474	1.755	1.370	1.146	1.425	2.344	5.893	12.24	61.38	173.4	82.91	3.991	0.435	0.316	0.308	0.252	0.269	0.274	0.208	0.236	0.241	0.202
545.0	41.13	48.33	40.86	42.74	52.25	124.9	122.9	58.53	67.63	309.7	1379	203.2	37.29	32.39	27.09	25.51	22.50	20.35	18.33	17.83	17.56	16.80	15.82	15.70	15.74	15.56	15.46	15.54	15.94	15.68	15.12	14.78	12.80	12.25	10.97	10.48	9.633	8.633	8.117	7.763	6.827	6.406	5.706	5.505	5.388	5.220	5.598	7.577	7.213	4.564	3.121	2.574	2.154	2.007	2.056	2.238	2.030	1.401	1.155	1.119	1.303	1.947	3.445	15.00	80.00	160.1	28.62	1.448	0.348	0.295	0.298	0.212	0.229	0.220	0.212	0.203	0.194
550.0	41.59	41.09	34.32	36.29	39.75	74.19	140.7	67.68	51.29	109.3	798.1	866.1	73.98	26.52	23.90	20.65	18.59	17.08	16.04	14.89	14.47	13.66	13.19	13.27	13.10	13.67	13.10	12.82	12.95	13.14	12.67	11.91	11.24	10.43	9.249	8.525	8.039	7.498	7.202	6.437	5.877	5.631	4.883	4.792	4.585	4.260	4.091	4.887	6.215	5.492	3.664	2.371	1.959	1.681	1.617	1.631	1.897	1.657	1.207	0.910	0.931	1.018	1.364	3.842	19.13	67.51	106.0	61.28	7.056	0.318	0.253	0.189	0.213	0.177	0.185	0.170	0.194
555.0	37.92	33.39	31.32	29.17	30.62	42.09	108.9	101.3	44.54	52.48	233.6	1104	343.4	23.97	20.08	16.53	15.02	14.48	13.36	12.41	11.39	11.02	10.80	11.53	10.63	10.27	10.58	10.36	10.75	10.78	10.21	9.864	9.111	8.320	7.778	6.851	6.637	6.145	5.751	5.421	4.657	4.663	4.214	4.110	3.693	3.644	3.219	3.491	4.332	5.308	4.365	2.609	1.717	1.401	1.448	1.325	1.382	1.416	1.529	0.848	0.819	0.809	0.815	1.306	4.577	15.52	33.00	99.37	74.01	6.282	0.289	0.169	0.204	0.209	0.195	0.141	0.206
560.0	37.25	35.25	28.99	27.66	29.69	29.91	73.58	124.6	46.19	36.79	79.07	672.1	804.3	42.24	16.85	13.88	12.78	11.49	11.49	10.16	9.890	9.559	9.156	9.315	8.770	8.880	8.822	8.777	8.605	8.695	8.505	8.042	7.488	6.837	6.586	5.811	5.685	5.314	4.974	4.376	4.098	3.725	3.904	3.377	3.284	3.035	2.838	2.896	2.940	4.141	4.405	3.087	1.687	1.279	1.177	1.185	1.139	1.233	1.561	1.122	0.729	0.656	0.587	0.686	1.482	3.841	7.906	37.46	105.2	31.81	2.512	0.209	0.143	0.216	0.169	0.167	0.157
565.0	39.88	31.97	26.50	24.88	22.25	24.32	45.39	129.8	60.30	31.95	40.86	251.8	1064	128.1	14.70	12.47	10.98	9.851	9.310	8.660	8.661	8.134	7.776	7.803	7.231	7.575	7.557	7.359	7.647	7.385	7.637	6.638	6.669	6.029	5.465	4.987	4.849	4.549	4.116	3.914	3.675	3.174	3.300	2.931	2.748	2.624	2.421	2.373	2.142	2.740	3.495	3.496	1.924	1.281	1.100	0.964	1.020	0.909	1.154	1.317	0.904	0.504	0.521	0.595	0.602	1.196	2.089	9.045	47.30	93.97	25.91	0.943	0.146	0.160	0.153	0.161	0.130
570.0	38.60	30.55	23.75	21.12	21.55	19.84	26.61	86.16	92.31	32.56	29.34	79.89	643.7	606.7	33.15	10.44	9.153	8.379	7.691	7.066	7.124	6.942	6.567	6.265	5.838	6.092	6.143	6.002	6.362	6.144	6.143	5.823	5.125	5.001	4.632	4.102	3.892	3.755	3.339	3.089	2.827	2.641	2.607	2.491	2.344	2.291	1.955	1.956	1.734	1.823	2.220	2.978	2.393	1.532	1.082	0.831	0.856	0.764	0.821	1.071	1.107	0.713	0.471	0.426	0.476	0.537	0.750	2.356	11.29	39.51	67.84	41.35	4.172	0.205	0.162	0.122	0.136
575.0	36.75	26.81	20.11	19.10	15.47	14.64	19.84	42.97	110.2	46.00	24.35	34.42	182.4	808.0	123.9	9.022	7.559	6.855	5.953	5.710	5.509	5.250	5.262	4.880	4.800	5.017	5.117	4.635	5.020	4.858	4.557	4.577	4.232	3.946	3.779	3.319	3.203	2.934	2.700	2.634	2.391	2.325	2.052	1.992	2.100	1.841	1.639	1.594	1.437	1.250	1.450	1.879	2.301	1.949	1.198	0.772	0.747	0.703	0.682	0.692	0.925	1.028	0.599	0.363	0.344	0.366	0.404	0.756	2.720	9.056	20.75	67.94	31.54	3.398	0.200	0.100	0.129
580.0	36.75	22.05	21.67	15.11	15.48	13.36	17.33	26.27	88.94	69.48	23.12	24.79	56.06	506.8	501.7	15.62	6.513	5.860	5.489	5.164	5.091	4.364	4.453	4.101	4.336	4.004	4.330	3.890	4.311	4.101	4.043	3.853	3.391	3.056	3.043	3.013	2.700	2.530	2.196	2.104	2.108	1.959	1.830	1.728	1.672	1.663	1.537	1.348	1.164	1.131	1.090	1.306	1.974	1.904	1.298	0.742	0.658	0.582	0.580	0.576	0.677	0.859	0.907	0.415	0.316	0.292	0.259	0.352	0.829	2.208	4.933	26.23	59.37	25.92	1.550	0.118	0.142
585.0	32.85	26.19	21.18	15.57	13.48	11.74	14.88	20.60	58.15	91.93	27.45	19.95	25.40	185.4	719.8	69.11	5.859	5.274	4.644	4.062	3.860	3.743	3.599	3.643	3.798	4.037	3.346	3.940	3.767	3.483	3.450	3.504	2.931	2.801	2.568	2.486	2.350	2.185	1.929	1.810	1.746	1.691	1.442	1.477	1.406	1.376	1.301	1.250	1.003	0.996	0.865	0.914	1.398	1.773	1.439	0.834	0.630	0.512	0.535	0.441	0.496	0.608	0.911	0.699	0.352	0.347	0.323	0.260	0.382	0.681	1.287	6.285	27.63	56.75	18.60	0.633	0.140
590.0	31.12	22.16	18.51	14.61	13.55	12.16	12.63	14.83	30.36	91.99	46.61	18.91	17.12	54.15	435.7	356.3	14.05	4.568	3.852	3.426	3.318	3.175	2.955	3.068	2.969	3.058	2.789	3.127	3.102	2.905	2.882	2.755	2.310	2.262	2.270	1.893	1.927	1.813	1.626	1.438	1.553	1.430	1.308	1.179	1.156	1.144	1.002	1.012	0.895	0.779	0.670	0.698	0.817	1.215	1.443	1.108	0.720	0.475	0.429	0.415	0.422	0.418	0.593	0.748	0.585	0.332	0.254	0.256	0.295	0.296	0.428	1.556	6.574	23.59	38.27	20.62	2.510
595.0	32.59	21.09	19.78	14.36	13.78	11.82	11.31	12.79	18.46	53.56	72.17	21.04	15.03	20.54	121.8	501.5	81.66	3.908	3.182	2.637	2.709	2.441	2.619	2.421	2.417	2.449	2.324	2.630	2.447	2.507	2.531	2.383	1.786	1.929	1.649	1.645	1.452	1.399	1.347	1.278	1.276	1.143	1.111	0.999	0.958	0.872	0.868	0.774	0.696	0.735	0.571	0.587	0.544	0.734	1.049	1.225	0.891	0.501	0.317	0.322	0.359	0.287	0.357	0.416	0.687	0.527	0.266	0.168	0.200	0.215	0.272	0.493	1.582	5.403	11.68	34.17	25.97
600.0	28.07	22.65	19.35	14.17	12.70	10.77	10.46	11.16	14.33	31.71	82.05	28.47	14.42	12.83	34.79	328.6	285.8	6.834	2.806	2.323	2.489	2.218	2.117	2.046	2.099	1.973	1.978	2.124	1.726	1.987	1.944	1.861	1.485	1.539	1.401	1.460	1.294	1.154	1.107	1.008	1.061	0.933	0.875	0.803	0.747	0.767	0.709	0.601	0.667	0.575	0.484	0.531	0.491	0.462	0.708	1.157	1.043	0.706	0.354	0.321	0.278	0.281	0.311	0.341	0.504	0.733	0.361	0.166	0.208	0.222	0.223	0.273	0.470	1.294	2.771	13.08	35.86
605.0	28.44	26.38	20.47	12.60	11.03	9.789	10.92	12.50	14.00	21.23	71.57	46.64	15.50	11.81	14.85	126.5	425.1	35.29	2.581	1.912	2.029	2.137	1.792	1.864	1.626	1.757	1.624	1.676	1.641	1.563	1.671	1.614	1.318	1.357	1.292	1.158	1.241	1.028	0.960	0.868	0.844	0.826	0.762	0.597	0.640	0.591	0.641	0.488	0.557	0.524	0.409	0.364	0.446	0.283	0.471	0.737	1.093	0.762	0.364	0.321	0.225	0.326	0.248	0.291	0.323	0.592	0.472	0.271	0.171	0.242	0.192	0.180	0.192	0.419	0.758	3.133	15.45
610.0	24.45	22.45	18.13	13.10	10.76	9.876	11.09	13.03	15.05	18.69	45.55	65.60	22.98	13.90	12.94	37.11	275.8	183.2	6.602	1.812	1.652	1.731	1.468	1.571	1.392	1.452	1.342	1.359	1.301	1.194	1.208	1.195	1.106	1.093	1.102	0.888	0.984	0.910	0.771	0.684	0.613	0.650	0.632	0.577	0.601	0.555	0.563	0.487	0.393	0.418	0.376	0.345	0.358	0.290	0.335	0.403	0.739	0.839	0.553	0.375	0.267	0.241	0.284	0.250	0.239	0.352	0.529	0.455	0.245	0.247	0.176	0.152	0.191	0.201	0.280	0.843	3.682
615.0	29.46	19.46	18.82	15.01	11.07	9.717	11.78	14.66	16.48	18.65	29.17	63.79	37.56	14.81	12.39	15.57	82.04	315.5	53.44	1.632	1.321	1.260	1.055	1.174	1.063	1.127	1.167	1.084	1.008	0.920	1.059	0.972	0.886	0.799	0.940	0.744	0.749	0.613	0.610	0.663	0.570	0.512	0.576	0.497	0.456	0.490	0.430	0.393	0.402	0.329	0.279	0.341	0.284	0.302	0.301	0.282	0.392	0.636	0.631	0.509	0.298	0.194	0.210	0.170	0.193	0.262	0.318	0.503	0.462	0.218	0.169	0.157	0.154	0.171	0.176	0.328	0.930
620.0	24.91	16.67	17.80	14.46	10.39	10.49	11.99	13.40	15.35	18.22	22.78	48.03	51.90	16.82	13.11	10.76	25.62	226.3	171.6	2.740	1.264	1.114	1.046	0.908	0.940	0.995	0.805	0.914	0.750	0.894	0.851	0.777	0.696	0.732	0.671	0.639	0.696	0.528	0.612	0.474	0.428	0.415	0.445	0.440	0.343	0.424	0.335	0.316	0.361	0.287	0.261	0.279	0.242	0.225	0.205	0.226	0.344	0.409	0.504	0.520	0.302	0.228	0.211	0.165	0.217	0.224	0.247	0.345	0.524	0.311	0.224	0.191	0.179	0.119	0.149	0.158	0.308
625.0	19.68	20.10	18.50	12.14	10.02	9.486	11.33	11.45	13.92	18.44	19.49	32.26	60.10	22.23	12.75	8.924	11.38	91.67	276.3	17.16	1.411	0.905	1.068	0.960	0.837	0.853	0.682	0.827	0.652	0.721	0.832	0.644	0.578	0.579	0.554	0.536	0.535	0.618	0.526	0.494	0.394	0.439	0.328	0.368	0.335	0.340	0.324	0.298	0.316	0.243	0.200	0.238	0.211	0.237	0.184	0.221	0.258	0.286	0.428	0.506	0.359	0.271	0.187	0.172	0.175	0.182	0.209	0.255	0.405	0.459	0.287	0.197	0.210	0.135	0.119	0.142	0.176
630.0	24.22	21.05	20.50	12.61	9.623	9.289	10.84	11.60	12.57	15.61	17.69	23.85	49.06	36.57	13.29	8.743	7.924	25.93	195.9	121.9	3.082	0.952	0.974	0.753	0.773	0.736	0.668	0.646	0.623	0.625	0.741	0.542	0.549	0.460	0.511	0.538	0.440	0.471	0.366	0.494	0.355	0.382	0.305	0.348	0.325	0.327	0.300	0.288	0.258	0.201	0.177	0.206	0.198	0.213	0.168	0.198	0.208	0.214	0.282	0.440	0.360	0.287	0.176	0.178	0.154	0.166	0.203	0.177	0.267	0.326	0.344	0.263	0.176	0.126	0.117	0.137	0.149
635.0	27.61	27.93	19.01	13.70	11.06	10.20	9.982	12.14	13.76	14.41	17.75	21.14	31.36	45.89	16.91	8.871	8.302	9.436	58.27	222.5	31.15	0.955	0.740	0.595	0.702	0.519	0.573	0.497	0.543	0.379	0.532	0.474	0.455	0.400	0.441	0.473	0.290	0.383	0.370	0.343	0.312	0.392	0.267	0.277	0.244	0.298	0.255	0.285	0.222	0.180	0.161	0.179	0.160	0.171	0.160	0.186	0.163	0.159	0.210	0.293	0.324	0.292	0.244	0.167	0.157	0.173	0.177	0.181	0.172	0.232	0.289	0.316	0.177	0.156	0.134	0.135	0.126
640.0	27.64	23.46	18.82	12.08	10.76	10.27	10.80	10.92	13.46	14.79	18.08	21.97	24.39	44.83	24.30	9.125	7.708	5.824	15.92	171.6	72.63	1.660	0.625	0.628	0.539	0.511	0.387	0.415	0.566	0.365	0.400	0.467	0.357	0.330	0.386	0.461	0.328	0.269	0.354	0.303	0.305	0.282	0.246	0.258	0.246	0.263	0.225	0.262	0.170	0.154	0.207	0.184	0.131	0.145	0.116	0.133	0.117	0.123	0.149	0.203	0.286	0.307	0.275	0.223	0.177	0.159	0.141	0.191	0.225	0.195	0.242	0.368	0.291	0.175	0.149	0.143	0.101
645.0	28.73	28.99	24.24	12.90	10.67	10.35	10.06	11.64	12.21	13.45	18.34	20.46	21.04	35.97	30.45	10.55	7.589	5.023	5.516	74.68	179.0	9.172	0.686	0.524	0.437	0.468	0.384	0.375	0.425	0.387	0.412	0.357	0.263	0.378	0.315	0.323	0.374	0.303	0.308	0.257	0.228	0.299	0.340	0.268	0.190	0.194	0.197	0.210	0.146	0.142	0.173	0.148	0.104	0.160	0.146	0.118	0.111	0.129	0.149	0.162	0.190	0.268	0.265	0.196	0.174	0.156	0.121	0.160	0.239	0.151	0.169	0.295	0.293	0.232	0.127	0.111	0.088
650.0	27.36	26.08	23.70	15.31	11.09	8.851	8.842	12.26	11.25	14.33	16.76	20.53	18.91	24.58	36.14	12.85	6.905	4.746	3.056	22.04	182.3	47.98	0.854	0.417	0.468	0.401	0.403	0.376	0.365	0.459	0.359	0.332	0.249	0.316	0.228	0.296	0.322	0.285	0.172	0.219	0.215	0.239	0.351	0.212	0.156	0.176	0.199	0.197	0.189	0.122	0.118	0.151	0.120	0.143	0.138	0.129	0.113	0.096	0.132	0.145	0.117	0.213	0.240	0.180	0.151	0.177	0.149	0.164	0.195	0.149	0.192	0.186	0.259	0.282	0.138	0.092	0.099
