Sample:	'1
File name:	±Ã³§»Ò°×É«40±¶.FD3
Run date:	'10:43:59, 01/10/2024
Operator:	Administrator
Comment:	'

Instrument
Model:	F-2700 FL Spectrophotometer
Serial number:	23B8-004
ROM Version:	4J14000 07

Instrument parameters
Measurement type:	3-D scan
Data mode:	Fluorescence
EX  Start WL:	220.0 nm
EX  End WL:	600.0 nm
EX Sampling interval:	5.0 nm
EM  Start WL:	230.0 nm
EM  End WL:	650.0 nm
EM Sampling interval:	5.0 nm
Scan speed:	12000 nm/min
EX Slit:	5.0 nm
EM Slit:	5.0 nm
PMT Voltage:	700 V
Response:	Auto 
Corrected spectra:	Off
Contour interval:	50.000

Peak integration
Integration method:	Rectangular
Sensitivity:	1
Threshold:	1.000

Peaks
No.	ApexEX/EM(nm)	Height(Data)
1	225.0/335.0	*****   
2	225.0/580.0	400.3
3	235.0/510.0	218.5
4	240.0/525.0	198.4
5	245.0/535.0	171.8
6	250.0/550.0	159.8
7	255.0/560.0	174.5
8	260.0/575.0	186.9
9	265.0/585.0	211.6
10	270.0/600.0	209.7
11	275.0/335.0	6258
12	275.0/615.0	227.4
13	330.0/375.0	466.4
14	335.0/380.0	465.4
15	340.0/385.0	414.6
16	350.0/400.0	269.6
17	355.0/405.0	220.6
18	365.0/420.0	146.7
19	370.0/425.0	132.9
20	375.0/430.0	107.0
21	380.0/440.0	95.40
22	385.0/445.0	86.07
23	390.0/450.0	67.70
24	395.0/460.0	60.21
25	400.0/465.0	54.19
26	405.0/470.0	44.44
27	405.0/610.0	5.646
28	410.0/480.0	37.31
29	410.0/620.0	6.199
30	415.0/485.0	33.15
31	415.0/625.0	6.212
32	420.0/490.0	28.07
33	420.0/635.0	5.949
34	425.0/500.0	25.71
35	425.0/640.0	5.630
36	430.0/505.0	24.43
37	435.0/510.0	20.34
38	440.0/520.0	18.16
39	445.0/525.0	16.26
40	455.0/335.0	45.46
41	455.0/540.0	11.94
42	470.0/560.0	6.978
43	475.0/345.0	45.68
44	485.0/580.0	4.553
45	535.0/355.0	22.80
46	545.0/335.0	24.48

Data points
	220.0	225.0	230.0	235.0	240.0	245.0	250.0	255.0	260.0	265.0	270.0	275.0	280.0	285.0	290.0	295.0	300.0	305.0	310.0	315.0	320.0	325.0	330.0	335.0	340.0	345.0	350.0	355.0	360.0	365.0	370.0	375.0	380.0	385.0	390.0	395.0	400.0	405.0	410.0	415.0	420.0	425.0	430.0	435.0	440.0	445.0	450.0	455.0	460.0	465.0	470.0	475.0	480.0	485.0	490.0	495.0	500.0	505.0	510.0	515.0	520.0	525.0	530.0	535.0	540.0	545.0	550.0	555.0	560.0	565.0	570.0	575.0	580.0	585.0	590.0	595.0	600.0
230.0	271.0	9999.9	9999.9	9999.9	376.6	74.36	55.40	47.60	40.74	38.57	37.98	34.95	31.51	27.02	23.01	19.47	17.25	16.26	15.14	13.29	11.66	10.75	9.866	9.426	8.509	7.776	7.280	6.565	6.088	6.062	5.875	5.288	5.147	4.683	4.442	3.720	3.407	3.028	2.660	2.669	2.724	3.066	3.173	2.589	2.572	2.574	22.92	150.5	290.1	230.2	94.52	10.00	2.512	1.699	1.566	1.359	1.347	1.265	1.241	0.986	0.927	0.879	0.816	0.824	0.790	0.677	0.666	0.605	0.564	0.524	0.484	0.458	0.445	0.434	0.394	0.343	0.338
235.0	307.9	2736	9999.9	9999.9	9999.9	489.8	89.56	67.51	58.45	48.38	43.39	39.44	35.54	29.49	26.14	22.48	18.91	17.37	15.85	13.44	12.57	11.34	10.62	10.32	9.173	7.631	6.990	7.027	6.241	6.180	5.819	5.674	4.975	4.924	4.734	4.291	3.702	3.360	3.132	2.867	2.534	2.760	2.851	3.087	2.910	2.456	7.248	37.00	93.01	171.7	269.2	271.6	36.96	20.28	2.703	1.801	1.539	1.515	1.347	1.318	1.031	0.931	0.938	0.913	0.845	0.778	0.727	0.561	0.637	0.528	0.567	0.469	0.449	0.439	0.344	0.425	0.278
240.0	332.2	839.5	3798	9999.9	9999.9	9999.9	336.3	97.66	74.63	62.70	54.53	46.73	39.32	33.95	28.37	23.11	21.35	18.85	17.31	14.45	12.58	11.76	11.17	10.53	9.377	8.577	8.323	7.468	7.310	6.623	6.063	5.553	5.042	4.902	4.882	4.286	3.673	3.299	3.278	2.885	2.655	2.645	2.723	2.805	3.158	3.339	3.939	10.20	22.76	45.70	122.5	320.4	418.1	265.1	34.20	14.18	2.197	1.869	1.409	1.387	1.183	1.140	1.004	0.949	0.856	0.771	0.777	0.657	0.681	0.632	0.633	0.506	0.496	0.521	0.418	0.550	0.507
245.0	250.7	509.4	1083	6621	9999.9	9999.9	4471	221.6	101.7	82.20	67.33	54.34	44.53	37.84	30.43	26.27	22.25	20.58	17.80	16.30	13.32	13.13	11.69	10.98	10.30	9.170	8.505	8.133	7.610	6.651	6.591	5.993	5.096	4.871	4.868	4.525	4.088	3.525	3.535	3.096	2.955	2.778	2.569	2.650	2.716	3.248	3.447	4.856	7.193	11.76	29.59	94.95	254.7	479.1	515.6	238.7	29.39	6.411	1.714	1.627	1.443	1.375	1.242	1.125	1.054	0.991	0.885	0.746	0.833	0.710	0.801	0.650	0.581	0.490	0.526	0.528	0.566
250.0	182.9	341.3	596.5	1752	7894	9999.9	9999.9	9999.9	301.7	129.4	99.84	78.62	60.94	48.98	38.75	31.74	25.35	23.36	19.88	17.85	15.75	13.72	12.05	12.35	11.00	10.27	9.401	8.775	8.162	7.505	7.033	6.127	5.678	5.110	4.771	4.629	4.447	3.897	3.772	3.193	3.055	3.283	2.716	2.766	2.647	2.855	2.947	3.521	4.302	5.012	8.620	23.08	60.41	140.5	272.1	416.8	427.4	397.8	165.0	19.90	6.522	2.074	1.617	1.352	1.335	1.192	1.144	0.983	0.912	0.952	0.866	0.786	0.777	0.654	0.635	0.598	0.596
255.0	185.2	231.5	370.5	831.6	2023	3551	9999.9	9999.9	9999.9	361.1	166.9	118.4	86.22	63.66	48.49	39.14	32.08	27.99	22.43	19.66	17.18	15.68	13.49	12.93	12.08	10.89	10.25	10.10	9.023	8.384	7.589	6.666	6.048	5.592	5.155	4.613	4.360	4.285	3.971	3.459	3.454	3.521	2.855	2.889	3.009	3.057	2.830	2.747	2.954	3.640	4.739	8.053	15.65	33.21	62.68	97.28	151.7	404.1	787.1	837.3	265.6	27.99	4.609	2.311	1.951	1.726	1.639	1.362	1.183	1.099	0.944	0.852	0.790	0.739	0.777	0.664	0.821
260.0	181.7	207.8	231.5	524.1	903.3	1057	6095	9999.9	9999.9	9999.9	312.2	170.3	117.6	82.81	61.33	47.39	38.60	31.87	26.96	23.19	20.33	18.14	15.17	14.11	13.20	11.44	11.08	10.60	9.590	9.331	8.888	7.373	6.396	6.144	5.373	4.842	4.792	4.575	4.349	3.958	3.487	3.603	3.147	3.254	3.010	3.057	2.818	2.603	2.497	2.501	3.083	5.057	6.904	10.17	16.10	23.85	36.57	102.7	310.8	737.6	1053	336.5	41.27	20.18	3.197	2.242	2.026	1.805	1.420	1.357	1.248	1.076	0.908	1.077	1.127	0.900	0.884
265.0	222.6	201.9	198.7	309.1	675.2	642.6	1652	9999.9	9999.9	9999.9	9999.9	270.4	165.7	110.5	79.63	59.38	46.55	36.79	30.51	25.36	22.52	19.34	17.27	15.57	13.62	12.85	12.05	11.39	10.78	10.17	8.979	8.200	7.156	6.626	6.041	5.019	5.012	4.600	4.525	4.285	4.312	3.737	3.518	3.682	3.181	3.344	3.020	2.815	2.517	2.410	2.384	3.214	4.836	6.174	7.031	7.662	10.60	25.60	73.15	200.3	534.5	960.3	1188	317.3	33.95	10.08	2.839	2.284	1.974	1.888	1.580	1.354	1.301	1.221	1.107	0.966	1.079
270.0	428.8	453.2	370.6	287.3	390.5	674.2	820.4	2633	9999.9	9999.9	9999.9	9999.9	847.8	182.6	119.6	82.83	63.72	49.52	38.87	32.83	27.56	22.52	19.79	18.23	16.36	15.10	13.72	12.49	12.57	11.96	10.21	9.488	8.664	7.827	7.171	6.439	5.827	5.685	4.897	4.747	4.900	4.566	4.297	4.473	4.115	4.256	4.100	3.735	3.586	2.904	2.667	2.938	3.164	4.074	5.260	5.684	6.239	8.862	18.97	47.42	124.8	267.9	565.4	824.5	1075	864.7	180.6	21.55	8.128	2.882	2.412	1.989	1.799	1.826	1.554	1.454	1.404
275.0	1082	1196	888.3	448.0	274.1	427.8	897.4	1071	2671	5293	9999.9	9999.9	9999.9	912.6	196.5	126.2	90.26	67.34	51.83	40.25	33.00	28.46	24.45	21.57	19.10	17.42	15.30	14.41	14.23	13.01	11.82	10.77	10.63	10.02	10.12	9.194	8.312	7.372	6.425	6.379	6.219	6.178	6.730	6.605	7.071	6.938	6.610	6.515	5.618	4.326	3.453	3.383	3.033	3.162	3.730	3.871	5.822	7.478	8.594	13.89	30.55	63.13	129.4	190.4	311.2	692.0	1360	1497	303.2	31.78	6.668	3.344	2.866	2.406	2.024	2.139	1.729
280.0	1976	1891	1425	665.2	295.2	333.9	668.4	1138	1205	1848	9999.9	9999.9	9999.9	9999.9	503.5	178.4	119.9	86.90	63.59	50.23	40.11	33.16	28.08	23.68	21.85	20.31	17.45	15.72	15.52	13.92	13.48	12.34	12.00	12.70	13.38	12.30	11.54	10.39	9.515	8.220	7.974	8.200	8.686	9.593	9.909	10.63	9.808	9.530	8.602	5.684	4.252	3.788	3.372	3.192	3.338	3.523	4.280	5.715	7.527	8.958	11.01	17.64	32.75	46.73	74.31	169.2	474.4	1169	1667	1328	44.15	23.18	4.427	3.512	2.832	2.678	2.704
285.0	3014	3023	2168	885.4	346.4	330.6	508.5	1093	1336	1235	3217	9999.9	9999.9	9999.9	8503	292.7	161.6	111.5	78.30	58.67	47.09	39.01	32.98	28.39	24.41	22.05	19.43	17.89	16.40	14.41	14.11	13.66	13.58	14.67	16.93	15.94	14.84	14.00	13.21	11.66	10.64	11.22	11.46	12.57	12.97	14.64	13.62	13.23	11.25	7.716	5.195	4.668	3.576	3.405	3.394	3.396	4.153	4.603	6.095	8.123	9.572	9.754	11.88	15.49	21.62	42.90	112.1	297.5	731.5	1521	1700	343.7	36.99	13.80	4.216	3.482	3.401
290.0	3886	4000	2788	1080	405.6	360.7	498.5	824.0	1435	1687	1940	3549	9999.9	9999.9	9999.9	9999.9	552.6	173.6	113.9	81.54	61.54	50.53	40.57	33.65	28.70	25.06	22.46	20.04	18.28	16.43	14.82	14.22	15.14	17.07	19.82	19.33	19.26	17.50	16.18	14.78	13.78	14.05	14.15	14.96	16.77	17.87	17.23	16.27	13.52	9.273	6.215	5.065	4.201	3.745	3.897	3.874	4.285	4.663	5.093	6.120	7.781	9.495	10.64	10.74	11.40	15.65	30.99	72.33	170.6	389.0	703.8	955.2	1292	1029	673.7	25.87	13.19
295.0	4229	4344	3007	1161	444.4	417.6	560.3	815.1	1230	1982	2310	2171	3330	5637	9999.9	9999.9	9999.9	602.5	180.1	117.3	83.63	65.73	51.48	42.00	35.27	30.39	26.21	23.25	20.99	18.76	17.62	15.69	16.53	18.76	21.59	21.24	21.41	20.71	18.47	16.20	14.99	15.40	15.31	16.02	18.03	19.22	18.81	17.70	14.25	9.972	6.799	5.478	4.629	4.336	3.907	4.039	4.468	4.977	5.428	6.432	6.842	7.843	9.112	11.79	13.20	11.79	14.11	23.07	44.65	92.38	162.2	218.8	332.9	652.3	1479	1758	355.8
300.0	4324	4355	3051	1190	509.3	527.5	677.8	987.5	1364	1982	2827	2392	2029	2124	9999.9	9999.9	9999.9	7761	387.6	168.3	111.0	82.14	62.21	49.16	40.83	34.22	29.02	27.31	23.62	20.74	19.58	17.45	17.31	19.89	21.87	22.16	22.38	21.80	19.20	17.29	15.93	15.96	15.98	16.87	18.07	19.54	18.75	18.87	14.24	10.08	6.808	5.841	4.924	4.893	4.919	5.165	5.052	6.054	6.307	7.207	7.466	8.604	9.389	10.68	12.37	14.41	13.44	13.59	17.52	27.14	41.98	54.05	79.39	155.1	438.8	1083	1733
305.0	4512	4468	3087	1268	618.8	678.2	955.1	1340	1824	2399	3107	3303	2240	1585	3086	9999.9	9999.9	9999.9	5692	249.8	149.3	104.8	77.02	58.48	48.19	40.55	33.72	30.51	26.39	23.41	21.08	19.06	19.42	21.23	22.99	22.98	22.92	22.56	20.92	18.99	17.32	17.10	16.64	18.57	18.90	20.29	19.82	20.02	15.05	10.64	7.074	6.274	5.550	5.629	5.669	5.921	6.846	7.352	7.631	8.691	9.994	10.23	11.67	12.34	12.77	15.10	16.31	14.98	14.05	14.00	16.60	18.22	23.25	40.10	103.7	262.2	637.6
310.0	4605	4500	3103	1412	799.0	881.4	1267	1803	2439	3078	3625	3843	3229	2020	1752	3211	9999.9	9999.9	9999.9	9999.9	430.0	157.7	107.5	78.90	60.51	49.57	39.96	34.57	30.61	27.23	23.73	21.57	20.90	22.42	24.03	23.93	24.86	24.31	22.59	21.37	19.15	19.02	18.79	19.79	20.16	21.39	20.27	19.72	15.83	11.31	8.030	7.073	6.639	6.163	6.676	7.278	8.362	9.128	9.889	10.92	12.25	13.29	14.43	14.99	15.93	16.57	16.62	16.79	16.51	15.33	13.65	12.20	11.96	15.45	29.04	64.35	149.0
315.0	4532	4380	3091	1518	907.6	996.9	1400	1999	2707	3367	3887	3879	3405	2673	1674	1633	3060	5136	9999.9	9999.9	9999.9	472.4	165.2	112.6	78.09	61.74	48.92	41.27	36.02	31.26	27.48	23.47	23.16	23.40	25.15	24.73	25.24	24.90	23.25	21.67	20.12	19.66	19.52	20.88	20.91	21.15	20.55	19.05	16.12	11.86	9.125	8.252	7.231	7.072	7.451	8.033	8.897	9.841	10.73	12.20	13.12	14.55	15.63	16.70	16.96	16.71	17.09	16.90	15.34	15.20	14.47	13.29	10.86	10.32	12.83	20.54	39.10
320.0	4553	4540	3479	1913	1089	1060	1435	2051	2761	3432	3914	3909	3306	2768	1989	1355	1509	1884	9087	9999.9	9999.9	5885	337.8	148.2	98.72	76.08	58.25	47.67	41.39	35.28	31.04	25.76	24.10	24.72	25.81	25.64	25.40	25.32	24.31	22.06	20.83	20.01	20.18	20.59	21.09	21.55	21.04	20.94	17.36	13.31	10.79	9.973	8.215	7.687	8.114	8.295	9.372	10.30	11.26	12.52	13.67	14.57	16.25	16.78	17.44	17.07	17.03	16.61	15.60	14.24	13.46	13.47	12.71	10.66	10.05	10.79	14.90
325.0	5546	5914	5294	3702	2030	1349	1593	2211	3005	3784	4377	4420	3761	2982	2522	1576	1347	1249	2686	9999.9	9999.9	9999.9	4679	227.3	134.7	92.60	71.12	55.01	47.08	38.84	34.03	29.46	26.08	27.06	27.21	27.71	28.45	29.33	27.21	25.54	23.24	22.81	23.39	24.18	24.55	26.14	25.48	27.39	22.85	19.51	17.46	16.40	12.71	9.817	9.152	9.070	9.837	10.98	11.69	12.83	14.54	15.31	17.36	18.47	18.29	19.17	18.25	17.73	17.21	15.73	14.46	13.66	13.33	13.24	12.07	10.70	10.62
330.0	8197	9284	9409	8432	5199	2465	2081	2775	3738	4788	5665	5863	5157	4065	3311	2764	2093	1467	1463	2902	9999.9	9999.9	9999.9	9999.9	368.5	143.1	98.68	72.85	58.69	47.66	39.62	33.35	31.02	31.96	33.27	34.65	37.83	39.05	36.14	33.90	30.45	30.55	31.06	32.46	34.03	36.46	36.20	40.35	36.86	33.47	32.96	35.34	27.19	19.20	14.00	11.71	11.76	12.77	13.96	15.36	17.63	18.76	20.29	21.76	22.91	23.39	22.93	22.76	22.04	20.50	18.61	17.46	16.04	15.64	15.22	15.13	14.31
335.0	9186	9999.9	9999.9	9999.9	7012	3213	2306	2938	3905	5032	5987	6258	5616	4483	3591	2954	2565	1791	1233	1259	2697	4599	9999.9	9999.9	9999.9	420.0	142.6	103.1	77.84	61.86	48.75	39.46	35.91	35.87	37.27	39.35	42.61	44.26	40.59	38.24	35.36	34.28	34.34	36.18	38.06	41.40	41.24	45.46	43.54	39.13	39.64	44.19	35.63	26.35	18.13	13.47	13.26	13.87	15.18	16.19	17.61	19.68	21.50	22.44	23.67	24.48	24.28	23.80	24.38	21.91	20.17	19.10	17.66	16.51	15.66	15.05	15.38
340.0	9015	9999.9	9999.9	9999.9	7152	3269	2301	2885	3803	4872	5764	6032	5433	4387	3511	2838	2418	1920	1187	857.2	1039	1483	8221	9999.9	9999.9	5132	297.1	132.0	95.87	72.24	55.53	45.61	39.61	39.09	38.21	40.40	43.27	44.00	41.18	37.59	35.55	33.86	34.06	34.90	37.89	40.58	40.98	44.49	43.27	39.48	39.98	45.34	36.08	26.85	18.18	13.86	13.57	13.38	15.36	16.03	16.98	19.74	20.51	22.11	22.93	23.73	23.46	23.11	23.60	21.68	19.72	18.66	17.33	16.58	14.84	14.57	14.29
345.0	9110	9999.9	9999.9	9999.9	7335	3388	2385	2936	3891	4925	5765	5945	5392	4373	3529	2846	2299	1946	1339	807.5	684.8	769.4	2264	9999.9	9999.9	9999.9	4351	192.0	120.0	85.16	63.86	48.95	42.25	40.89	40.34	41.56	45.16	44.69	41.35	37.97	34.56	33.49	34.90	34.81	37.75	39.75	40.40	44.83	44.09	40.26	40.86	45.68	36.92	26.93	17.99	13.96	13.67	13.54	14.58	16.33	17.51	19.31	20.37	21.86	22.56	23.02	23.45	22.66	22.48	21.14	19.35	18.21	17.05	16.58	15.08	14.76	13.80
350.0	8598	9592	9999.9	9999.9	7193	3556	2691	3295	4195	5037	5697	5748	5143	4197	3405	2750	2210	1745	1354	909.3	606.2	578.6	867.8	2577	9999.9	9999.9	9999.9	9999.9	326.4	119.1	83.26	61.03	48.56	44.00	43.41	42.44	45.08	44.39	41.47	37.67	33.73	32.75	33.16	33.68	35.92	38.08	38.17	41.54	41.19	37.41	37.85	44.18	35.94	26.77	18.28	14.42	14.49	15.18	15.63	17.30	18.85	20.40	21.29	21.82	22.40	22.80	22.30	22.05	21.83	20.20	19.00	17.13	16.04	15.71	14.78	14.02	14.00
355.0	7527	8539	8849	8534	6231	3506	3056	3819	4731	5303	5575	5439	4753	3868	3123	2525	2062	1616	1145	913.9	640.1	485.8	497.0	811.0	2443	4101	9999.9	9999.9	9999.9	377.5	117.9	79.66	61.32	49.65	45.87	43.73	44.39	43.67	40.13	36.52	33.10	31.03	30.70	31.11	33.02	35.66	35.38	36.93	36.06	32.81	33.30	37.60	32.04	24.50	18.10	14.85	15.22	16.13	17.64	19.20	21.02	22.25	21.97	22.80	22.78	22.27	21.32	20.79	20.50	18.76	17.02	16.12	14.66	14.75	14.00	13.02	12.50
360.0	6670	7459	7681	7319	5405	3231	2926	3714	4603	5036	5171	4948	4287	3486	2805	2260	1868	1472	1031	763.5	685.4	486.3	383.4	387.5	731.0	1120	6894	9999.9	9999.9	4756	274.3	104.4	75.42	58.32	49.49	43.29	44.55	43.68	39.21	34.77	31.33	29.81	29.65	28.71	29.44	31.95	31.58	33.71	32.50	28.53	29.13	32.44	28.06	21.94	16.65	14.08	15.26	15.89	17.20	18.80	20.52	21.70	21.96	21.51	21.41	20.99	20.08	18.73	18.41	16.89	15.56	14.99	14.01	12.67	12.51	11.94	11.86
365.0	5835	6372	6552	6288	4687	2839	2631	3353	4111	4503	4586	4354	3740	3043	2456	1998	1647	1306	913.2	634.9	601.1	550.8	350.9	273.0	326.9	416.5	1752	9999.9	9999.9	9999.9	4124	171.0	97.70	70.41	54.87	46.59	44.34	41.65	38.31	33.21	30.03	27.11	26.76	26.58	27.53	28.59	28.09	30.38	28.10	25.53	25.42	28.44	24.53	19.48	15.39	13.38	13.83	14.14	16.48	17.49	19.13	19.79	20.07	19.70	19.21	18.81	17.35	17.01	16.04	14.72	13.96	13.28	11.90	11.06	10.80	10.46	10.17
370.0	4769	5308	5282	5044	3835	2521	2414	3082	3702	4004	4009	3775	3215	2570	2073	1697	1409	1130	780.4	530.4	449.1	502.0	432.5	269.5	229.7	237.7	534.9	2450	9999.9	9999.9	9999.9	9999.9	290.9	101.5	71.36	55.07	47.83	42.64	37.66	33.01	28.54	26.45	25.39	24.65	24.63	25.00	24.68	25.81	23.69	21.43	21.16	23.94	20.39	16.98	13.57	12.47	12.99	13.54	14.87	16.09	17.75	17.93	18.16	17.23	16.89	16.84	15.50	14.90	14.25	13.31	12.51	11.47	10.45	9.872	9.734	9.279	9.242
375.0	4289	4638	4539	4211	3299	2352	2371	2956	3565	3816	3754	3530	2986	2328	1843	1504	1262	1047	736.0	486.2	396.2	409.9	466.4	397.3	279.4	251.5	277.1	685.7	2375	3751	9999.9	9999.9	9999.9	347.0	98.68	71.03	57.40	47.00	39.33	33.42	28.52	25.62	25.48	24.09	24.11	23.98	22.79	23.72	21.23	19.24	18.59	21.16	18.24	15.49	13.00	12.13	13.00	13.12	14.65	15.08	17.40	16.62	17.16	16.51	15.80	15.65	14.66	13.75	13.63	11.96	11.29	9.912	9.803	9.139	8.750	8.595	8.662
380.0	3822	4152	4032	3759	2928	2209	2226	2668	3226	3461	3407	3234	2744	2123	1642	1344	1122	946.8	683.5	467.7	381.1	379.9	414.3	465.4	368.4	288.9	247.8	298.6	661.7	991.5	6179	9999.9	9999.9	9999.9	244.4	89.72	69.52	53.37	41.95	35.32	29.72	26.36	24.94	23.31	23.12	23.35	21.08	22.44	19.51	17.65	16.84	19.23	16.46	14.02	12.32	11.58	12.31	12.32	13.41	14.34	15.51	15.74	15.74	15.23	15.13	14.67	13.31	12.67	12.69	11.33	10.62	9.577	9.137	8.621	7.585	7.811	7.756
385.0	3238	3394	3375	3155	2473	1867	1871	2269	2670	2891	2876	2745	2327	1794	1397	1132	951.4	796.6	588.9	410.4	343.1	337.9	334.1	390.5	414.6	286.0	222.1	199.4	266.7	342.6	1548	9999.9	9999.9	9999.9	3438	146.7	80.54	61.08	46.83	36.83	29.80	26.57	24.13	22.36	21.79	20.84	18.84	20.09	17.30	15.13	14.82	16.08	15.04	12.61	11.31	10.62	10.60	11.07	11.72	12.36	13.61	13.56	13.35	13.25	13.64	12.42	12.14	11.16	10.83	10.22	9.331	8.242	8.217	7.515	6.779	6.778	6.978
390.0	2526	2648	2605	2425	1941	1484	1525	1819	2147	2292	2267	2155	1843	1424	1110	900.5	757.4	631.4	467.5	338.8	288.1	284.9	269.2	277.3	341.4	315.6	203.1	146.6	150.8	168.2	443.1	2386	9999.9	9999.9	9999.9	9999.9	245.8	79.64	56.08	43.66	32.43	27.53	24.37	21.83	20.40	19.32	17.79	17.93	15.78	13.38	12.82	13.81	12.70	11.05	10.00	9.304	9.714	9.788	10.07	10.61	11.22	11.61	11.44	10.80	10.97	10.26	10.04	9.394	8.914	8.529	7.855	7.051	6.694	6.580	6.544	6.566	5.668
395.0	2111	2203	2126	1965	1569	1248	1266	1532	1809	1933	1904	1786	1552	1180	909.3	745.9	634.5	529.0	396.3	288.6	251.8	256.0	240.0	233.4	256.2	296.9	254.6	140.2	111.0	109.5	178.0	617.3	2328	3330	9999.9	9999.9	9999.9	291.7	75.30	54.19	39.89	31.61	26.14	23.42	20.32	20.03	17.13	16.64	15.19	12.94	11.64	12.50	11.47	9.961	8.955	8.492	9.325	8.776	9.284	9.501	9.975	10.24	10.16	9.715	9.451	9.126	8.606	7.911	7.849	7.288	6.625	6.246	5.756	5.463	5.528	6.159	6.027
400.0	1823	1932	1801	1677	1360	1093	1116	1317	1550	1674	1641	1553	1345	1024	790.4	646.4	551.1	462.3	351.0	260.6	231.0	234.6	227.1	216.1	223.8	242.3	269.6	182.4	105.6	91.52	107.0	209.5	596.7	846.4	5222	9999.9	9999.9	9999.9	204.1	64.97	46.98	35.56	28.45	23.05	20.99	19.39	16.94	15.67	13.95	12.05	10.95	11.61	10.31	9.560	8.379	8.224	8.445	8.544	8.807	8.848	9.438	9.070	8.828	9.009	8.317	8.307	7.493	7.366	7.022	6.668	6.406	5.537	5.350	4.811	4.990	4.958	5.845
405.0	1547	1619	1507	1357	1106	909.9	931.7	1086	1280	1388	1368	1263	1121	860.2	660.4	537.0	453.4	386.6	297.1	228.6	198.1	205.9	199.0	188.6	191.1	191.3	216.6	220.6	122.8	83.99	82.02	107.4	200.2	264.3	1276	8373	9999.9	9999.9	3006	112.8	53.63	41.36	30.58	24.19	21.27	18.76	16.46	15.08	13.23	10.92	10.16	10.83	9.403	8.420	7.811	7.624	8.158	7.935	7.639	7.861	8.171	7.961	7.791	7.381	7.241	7.053	6.752	6.720	6.211	6.089	5.543	4.826	4.519	4.247	4.068	4.281	4.399
410.0	1178	1224	1133	1026	848.4	689.9	706.7	834.4	989.4	1043	1019	956.8	844.4	656.9	511.0	416.6	352.6	301.2	232.7	184.1	162.1	166.6	159.5	151.9	154.8	145.7	142.9	170.8	167.1	98.62	71.41	74.25	98.10	117.0	348.1	1970	8381	9999.9	9999.9	9999.9	205.8	51.84	37.79	28.86	22.66	19.43	16.51	14.84	12.65	10.43	9.613	10.06	8.894	7.868	7.309	6.759	7.114	6.948	6.711	6.908	7.160	7.043	6.704	6.356	6.278	6.004	5.500	5.659	5.639	4.990	4.880	4.317	3.963	3.765	3.582	3.586	3.515
415.0	903.8	948.8	864.0	805.0	660.0	547.3	557.7	660.8	780.4	825.5	785.8	743.8	649.8	514.4	401.8	330.7	279.5	240.9	189.8	149.3	133.6	136.8	131.1	126.7	130.2	120.4	108.4	107.0	143.2	143.0	79.58	62.56	66.05	72.53	126.0	490.6	1930	3042	9999.9	9999.9	9999.9	253.5	50.91	35.87	28.06	21.75	17.25	15.67	12.86	10.26	9.131	9.464	8.753	7.574	7.047	6.420	6.735	6.156	6.343	6.178	6.557	6.226	5.976	5.915	5.338	5.173	5.040	4.610	4.437	4.395	4.389	3.957	3.723	3.550	3.371	3.359	3.102
420.0	808.7	812.3	749.2	693.8	559.3	462.4	476.9	567.9	661.8	698.9	676.3	630.1	557.6	431.0	343.5	281.3	241.9	205.2	165.9	131.4	120.7	122.3	120.5	115.3	117.2	109.1	96.26	85.88	100.1	146.7	110.0	60.08	55.62	56.41	69.72	154.5	481.4	747.9	4321	9999.9	9999.9	3142	169.9	44.51	33.33	25.42	19.27	16.48	13.19	10.29	8.982	9.646	8.898	7.568	6.766	5.967	6.706	6.203	6.309	5.984	6.488	6.045	6.020	5.612	5.067	4.730	4.365	4.493	4.299	3.839	3.996	3.726	3.271	3.392	3.035	2.892	2.886
425.0	747.5	707.7	662.8	608.2	481.3	407.7	417.2	488.9	569.5	609.3	580.1	539.4	474.3	375.2	294.3	248.5	210.2	181.9	147.5	118.8	109.4	110.6	108.8	106.8	107.9	100.6	90.31	79.09	76.65	112.0	132.9	74.74	52.11	48.38	51.45	73.51	150.7	217.5	1041	6571	9999.9	9999.9	2787	56.00	40.20	29.61	21.96	17.46	13.83	10.87	9.317	9.714	8.547	7.662	6.830	6.577	6.646	6.284	6.003	5.870	5.992	5.721	5.862	5.473	4.560	4.320	4.144	4.410	3.866	3.651	3.574	3.503	3.246	3.148	2.851	2.810	2.740
430.0	3441	586.7	544.5	489.5	405.9	336.3	346.2	401.0	469.4	493.6	472.9	438.6	386.1	303.7	245.2	206.6	174.0	152.2	125.0	101.7	92.91	94.81	93.30	92.45	93.34	87.03	79.58	71.97	67.10	74.80	102.9	107.0	63.76	44.47	42.21	47.46	67.27	86.75	275.5	1539	6821	9999.9	9999.9	9999.9	183.1	41.89	28.10	22.02	16.02	11.57	10.22	10.30	8.704	8.157	7.370	6.668	6.607	6.201	6.010	5.844	5.352	5.290	5.066	4.925	4.325	4.177	4.106	3.948	3.470	3.436	3.299	3.185	2.782	2.857	2.649	2.774	2.561
435.0	9999.9	763.1	453.3	389.4	333.8	275.7	280.9	324.3	382.1	400.1	381.9	347.4	310.4	249.1	207.4	170.6	143.1	126.8	105.2	87.13	79.57	82.29	77.87	78.99	79.14	75.76	69.86	65.96	61.68	58.98	68.21	91.57	93.41	52.30	37.80	37.65	42.17	50.16	94.95	380.9	1567	2813	9999.9	9999.9	9999.9	243.4	42.12	29.35	20.82	15.15	11.68	11.33	9.217	8.635	8.001	7.314	7.240	6.280	6.193	5.907	5.425	5.222	4.736	4.685	4.785	3.843	3.733	3.603	3.501	3.190	3.169	2.819	2.595	2.479	2.539	2.532	2.397
440.0	9999.9	1781	411.0	358.2	295.9	249.6	256.6	293.5	335.6	351.4	330.9	308.3	263.5	221.1	181.9	151.5	127.3	110.6	95.34	79.57	73.45	73.69	72.71	73.33	72.45	69.74	64.11	61.25	57.39	54.61	53.95	65.51	95.40	70.20	39.33	32.80	34.86	37.25	50.51	117.5	387.5	685.0	3897	9999.9	9999.9	9999.9	162.5	39.49	26.22	18.56	13.70	12.17	10.02	9.081	8.222	7.372	7.547	6.519	6.400	5.866	5.524	5.236	4.909	4.723	4.157	3.951	3.674	3.490	3.301	3.097	3.040	2.808	2.432	2.439	2.282	2.509	2.283
445.0	9999.9	9999.9	438.7	320.1	263.7	234.3	233.8	264.9	300.1	307.9	287.7	277.8	239.4	195.3	164.7	141.9	116.2	99.72	84.70	73.27	69.78	68.53	69.72	68.33	67.97	65.68	60.24	58.80	55.30	53.27	49.18	49.96	71.65	86.07	50.25	32.28	31.97	32.25	36.36	54.69	117.9	194.2	937.9	5978	9999.9	9999.9	2410	100.1	33.11	21.61	16.48	13.87	10.68	9.550	8.452	7.780	7.698	6.992	6.231	5.629	5.247	5.032	4.777	4.335	4.285	4.058	3.684	3.564	3.552	2.954	2.977	2.717	2.655	2.531	2.282	2.353	2.377
450.0	9869	9999.9	4028	297.5	252.8	216.3	214.0	233.5	264.0	266.2	256.5	243.2	214.8	173.8	144.9	124.4	105.3	89.71	76.05	65.31	61.66	62.74	62.20	60.81	61.67	60.44	56.69	55.33	51.97	50.98	47.34	43.27	47.45	67.43	67.70	42.28	30.10	28.37	29.69	35.40	52.09	73.94	247.6	1401	6190	9999.9	9999.9	9999.9	154.2	31.82	22.08	18.66	14.28	11.62	9.746	8.719	8.156	7.385	6.655	6.310	5.583	5.056	5.054	4.641	4.281	4.006	3.719	3.504	3.497	3.114	2.912	2.591	2.465	2.587	2.395	2.495	2.322
455.0	2832	9999.9	9999.9	587.8	227.5	190.7	190.6	203.5	228.9	234.0	223.4	204.9	182.4	150.2	128.1	108.6	90.53	78.71	66.43	58.41	55.49	55.41	54.68	52.45	54.45	52.65	51.58	51.08	47.00	47.18	43.36	40.33	36.86	41.82	58.75	59.90	35.00	26.18	24.71	27.09	31.22	39.88	82.38	345.1	1422	2710	9999.9	9999.9	9999.9	188.8	32.08	24.19	18.26	14.51	11.46	9.391	8.319	7.612	6.871	6.406	5.432	5.228	4.808	4.389	4.163	4.004	3.280	3.550	2.864	3.005	2.855	2.507	2.495	2.618	2.200	2.272	2.433
460.0	909.9	9999.9	9999.9	3801	226.8	184.7	176.6	186.8	198.2	207.8	201.7	190.0	162.9	136.5	116.5	97.00	81.49	70.05	61.01	53.84	50.12	50.55	49.21	48.36	50.04	48.48	47.50	47.24	44.44	43.94	41.72	37.22	33.23	32.93	41.10	60.21	47.05	27.42	22.90	22.65	24.10	29.04	41.87	104.6	350.8	652.6	3242	9999.9	9999.9	9999.9	141.0	34.65	23.04	18.21	13.86	11.30	9.947	8.463	7.273	6.382	6.132	5.243	4.760	4.544	4.265	4.009	3.392	3.563	2.970	3.079	2.651	2.486	2.292	2.478	2.322	2.350	2.243
465.0	453.2	4041	9999.9	9999.9	291.3	177.4	165.8	173.4	187.2	187.8	184.3	171.0	150.8	124.7	109.2	89.99	74.87	62.74	55.65	50.64	45.33	46.86	45.51	45.87	46.62	45.85	44.55	42.85	42.05	41.50	39.31	34.43	30.86	29.61	29.73	46.61	54.19	34.52	22.46	20.75	21.40	24.42	29.74	47.11	105.7	180.5	775.9	4683	9999.9	9999.9	1962	104.6	30.83	23.06	17.32	13.66	11.23	9.779	8.040	7.064	6.501	5.705	4.947	4.935	4.503	4.266	3.613	3.640	2.913	3.194	3.000	2.993	2.201	2.584	2.213	2.452	2.329
470.0	341.3	1162	9999.9	9999.9	3244	179.4	152.5	159.7	169.3	164.6	164.8	152.2	134.1	110.9	95.32	80.54	66.67	56.82	50.45	45.96	40.79	42.37	40.90	41.23	41.09	40.38	40.30	38.99	38.71	38.12	35.17	31.38	28.22	26.19	24.63	29.04	42.09	44.44	27.66	19.49	18.94	20.73	23.12	28.84	45.26	65.73	202.4	1095	5090	9999.9	9999.9	9999.9	158.9	33.31	21.94	17.83	14.20	11.23	8.970	7.913	6.680	6.380	5.467	4.957	4.800	4.341	3.759	3.635	3.219	3.225	2.855	2.773	2.524	2.505	2.244	2.279	2.145
475.0	330.7	448.9	2966	9999.9	9999.9	450.7	146.0	149.5	149.5	154.1	144.8	136.0	117.2	101.6	83.69	71.06	58.34	51.41	43.28	40.05	36.77	36.61	36.92	36.44	34.98	35.15	34.93	33.26	34.17	33.49	30.85	27.90	25.45	22.79	20.52	21.29	24.88	38.15	36.66	21.61	15.81	16.23	17.21	19.82	24.76	31.71	63.95	266.4	1162	2470	9999.9	9999.9	9999.9	223.1	28.86	20.59	16.29	12.47	9.791	7.799	6.725	6.450	5.148	4.600	4.555	3.812	3.305	3.378	2.907	2.579	2.656	2.464	2.398	2.084	2.205	2.114	1.868
480.0	319.1	313.1	855.2	9999.9	9999.9	3825	157.3	144.5	141.6	136.5	132.8	123.5	110.5	93.71	78.12	65.35	55.81	47.02	39.67	37.30	34.41	34.16	34.81	33.49	31.91	32.43	32.07	30.95	32.04	30.40	28.44	26.36	23.00	21.13	19.27	17.99	18.92	25.65	37.31	27.46	16.67	14.57	14.76	16.40	17.74	21.74	29.36	77.08	279.6	578.0	2715	9999.9	9999.9	9999.9	43.81	26.58	19.79	15.64	12.00	9.024	7.303	6.516	5.477	4.910	4.626	4.374	3.632	3.276	2.972	2.799	2.829	2.558	2.352	2.045	2.002	1.986	2.000
485.0	283.8	288.5	360.2	4859	9999.9	9999.9	214.5	143.8	137.8	132.9	128.4	114.8	106.3	86.61	72.31	60.80	51.74	45.65	37.31	34.21	31.70	32.34	32.20	30.68	30.01	30.64	29.58	28.88	29.23	29.10	27.95	25.26	22.25	21.11	18.41	16.22	17.15	18.46	28.95	33.15	20.20	14.03	13.86	14.67	15.44	17.14	19.62	32.32	78.49	147.6	634.1	3413	9999.9	9999.9	2288	41.51	25.01	18.78	14.04	11.01	8.537	6.745	6.064	5.647	4.717	4.595	3.919	3.579	3.076	2.696	2.959	2.611	2.240	2.213	2.057	1.912	1.889
490.0	215.8	293.3	252.2	1304	9999.9	9999.9	2596	149.6	135.9	129.0	121.1	108.7	96.76	80.74	68.48	57.21	47.72	41.10	34.91	32.31	30.20	30.02	29.18	27.66	27.72	28.34	26.53	26.64	26.85	26.62	24.77	23.22	20.68	18.99	17.47	15.27	15.10	14.99	18.53	27.47	28.07	17.93	13.48	13.28	13.53	14.32	15.26	19.27	30.38	46.76	157.8	790.4	3656	9999.9	9999.9	9999.9	177.8	27.78	18.26	13.60	10.88	8.158	7.025	5.821	5.072	4.504	4.185	3.817	3.624	2.941	3.060	2.595	2.467	2.316	2.107	2.098	1.955
495.0	173.4	248.3	256.9	429.9	3188	9999.9	9999.9	354.0	141.4	126.6	109.6	105.3	91.44	77.01	61.96	51.82	42.68	37.34	32.15	30.25	27.67	28.18	26.38	25.82	24.93	25.68	24.02	24.55	24.33	24.92	21.86	20.27	18.96	17.08	15.86	14.46	14.22	13.73	13.93	17.17	24.67	24.58	15.87	12.68	12.51	12.46	13.06	14.85	17.18	21.40	47.29	191.9	834.6	2349	9999.9	9999.9	9999.9	260.0	26.09	17.16	13.12	9.445	7.892	6.058	5.349	4.769	4.040	3.626	3.740	3.137	2.904	2.456	2.409	2.333	2.051	2.437	2.064
500.0	156.2	199.2	258.1	230.7	871.0	9999.9	9999.9	3065	140.0	121.6	106.7	97.43	85.56	70.40	59.86	49.82	41.44	35.48	30.15	27.72	25.55	25.10	24.64	23.79	23.71	23.15	23.19	22.29	22.22	23.03	21.05	18.44	17.26	15.83	14.91	13.40	13.03	12.61	12.50	12.43	17.93	25.71	20.69	12.89	11.47	11.29	11.70	12.60	13.30	13.86	20.71	55.79	201.6	545.9	2555	9999.9	9999.9	9999.9	46.24	22.50	15.04	10.73	8.786	7.211	5.396	4.935	4.193	3.748	3.661	3.055	2.780	2.631	2.342	2.228	1.994	2.151	1.946
505.0	153.9	169.8	250.6	196.2	317.0	5299	9999.9	9999.9	178.2	125.3	106.9	96.23	78.63	68.61	55.57	47.18	39.62	32.25	27.88	25.89	24.35	23.32	22.78	21.53	22.43	21.56	21.82	20.89	20.77	21.65	19.45	18.23	15.56	14.85	13.76	12.59	12.65	12.24	11.18	11.26	12.63	20.32	24.43	15.86	10.92	10.48	10.50	11.52	11.54	11.55	13.53	23.52	58.18	137.8	594.5	2914	9999.9	9999.9	2566	41.56	18.58	13.34	10.38	7.944	5.931	4.973	4.078	3.850	3.477	2.940	2.627	2.515	2.242	2.259	1.965	1.862	1.917
510.0	131.1	138.2	187.0	218.5	179.9	1378	9999.9	9999.9	1952	138.8	109.6	90.34	76.76	63.31	53.32	44.68	36.27	30.92	26.35	24.35	22.80	21.80	21.27	20.37	20.03	19.74	19.21	19.44	19.34	19.34	17.54	16.14	14.48	13.11	12.88	11.38	11.49	11.04	10.35	10.17	10.18	13.05	20.03	20.34	13.49	9.972	9.373	9.722	9.667	9.290	10.55	14.03	22.84	42.33	147.2	671.3	3042	9999.9	9999.9	9999.9	178.9	20.53	11.98	8.857	7.279	5.692	4.493	4.036	3.507	3.251	2.719	2.427	2.266	2.287	1.911	1.877	1.870
515.0	126.7	129.2	142.1	211.0	161.3	404.6	3224	9999.9	9999.9	288.3	110.5	88.87	76.53	60.66	50.01	41.06	33.58	29.18	25.31	22.09	21.46	19.28	19.71	18.39	18.69	18.42	17.07	17.16	17.41	17.24	16.49	15.10	13.35	12.24	11.49	10.46	10.51	10.18	9.357	9.482	8.597	9.791	12.89	18.53	17.73	11.41	8.640	8.393	8.332	7.773	8.608	10.39	12.70	18.44	43.50	162.3	694.1	2285	7375	9999.9	9999.9	268.0	18.63	11.00	8.369	6.684	5.525	4.571	3.517	3.191	2.626	2.606	2.225	2.092	1.969	1.755	1.607
520.0	113.5	109.0	107.1	170.6	177.3	182.4	852.9	9999.9	9999.9	2502	122.5	95.29	75.56	57.72	47.48	38.63	32.31	27.93	24.04	21.05	19.93	18.65	18.49	17.44	17.39	16.96	16.56	15.81	16.18	15.50	15.49	13.91	12.61	11.95	10.28	9.587	9.967	9.456	8.990	8.680	8.502	8.801	9.427	13.97	18.16	13.82	8.768	7.472	7.001	6.922	7.473	8.997	9.532	11.58	18.23	46.40	167.4	526.0	1779	9979	9999.9	9999.9	44.45	15.32	10.16	7.286	6.121	4.879	3.852	3.495	2.851	2.717	2.286	2.047	2.008	1.934	1.607
525.0	113.5	99.24	95.97	126.8	198.4	137.2	289.0	5655	9999.9	9999.9	160.6	97.44	75.60	58.16	47.40	38.52	31.29	26.84	23.17	20.54	18.93	17.81	16.95	17.02	16.99	16.32	15.47	15.95	15.12	14.44	13.77	13.00	11.69	10.81	10.05	9.117	8.961	8.463	8.637	8.259	7.654	7.897	7.563	9.652	15.07	16.26	10.79	7.460	6.487	6.200	6.480	7.389	7.911	9.091	11.54	19.27	47.90	129.9	413.6	2517	9999.9	9999.9	2602	38.21	13.52	8.196	6.586	5.421	4.412	3.480	3.156	2.686	2.395	2.129	1.947	1.793	1.595
530.0	107.9	98.11	94.34	94.58	173.8	150.4	148.6	1466	9999.9	9999.9	4183	114.2	80.53	58.54	48.13	38.46	30.94	25.80	21.50	19.65	18.11	17.05	15.83	16.02	15.51	14.60	14.30	14.67	13.87	13.75	12.47	11.68	10.53	9.837	9.201	8.749	8.307	8.028	7.635	7.269	7.075	7.172	7.104	7.498	9.713	14.22	13.47	8.568	6.230	5.612	5.596	6.342	6.835	8.073	8.884	10.95	19.00	38.36	103.3	575.3	2586	9839	9999.9	9999.9	179.3	15.77	8.313	6.401	4.917	4.070	3.214	2.782	2.427	2.243	1.933	1.910	1.716
535.0	102.0	96.91	86.84	77.09	118.9	171.8	110.2	417.2	3356	9999.9	9999.9	225.5	86.92	61.85	48.09	37.24	29.73	25.04	21.33	19.28	17.44	16.78	15.42	14.64	14.09	13.78	12.58	13.29	13.59	12.53	11.78	10.05	9.964	9.330	8.495	7.899	7.570	7.569	7.216	6.345	6.264	6.626	6.474	6.574	6.925	9.095	12.89	11.00	6.747	5.426	5.194	5.558	5.945	6.613	7.424	8.238	10.44	15.64	30.90	137.1	586.5	2217	4721	9999.9	9999.9	272.9	14.43	8.105	6.092	4.945	3.494	2.943	2.623	2.219	1.995	1.763	1.645
540.0	97.82	93.09	94.13	73.01	86.42	165.9	124.1	179.2	884.4	9999.9	9999.9	1897	97.19	66.60	49.15	37.17	29.40	24.54	21.34	18.56	16.78	15.27	14.31	13.96	13.05	13.06	11.61	11.43	12.05	11.81	11.47	9.595	9.062	8.645	7.482	6.971	7.280	6.503	6.303	6.067	6.094	6.234	6.378	6.204	6.005	7.041	9.739	11.94	7.892	5.304	4.784	5.187	5.182	5.440	6.101	7.289	7.816	9.203	13.60	37.99	139.0	504.5	1106	6270	9999.9	9823	43.97	10.91	7.426	5.310	3.985	3.603	2.695	2.341	2.010	2.048	1.711
545.0	137.3	128.1	113.9	78.45	72.81	136.4	147.2	118.7	293.5	5575	9999.9	9999.9	118.9	70.31	51.70	39.21	28.56	23.63	20.65	18.72	16.09	15.12	14.28	14.12	11.93	11.93	11.87	11.36	11.24	11.16	10.38	9.303	8.797	8.313	7.000	6.831	7.086	6.031	5.540	5.650	5.708	5.582	5.583	5.865	5.497	5.950	6.861	10.32	9.615	6.120	4.504	4.687	4.763	4.970	5.627	6.343	6.599	6.777	8.419	15.20	38.28	120.3	257.7	1521	8064	9999.9	2607	36.47	10.02	6.083	4.512	3.818	3.152	2.576	2.193	2.122	1.837
550.0	169.0	178.1	142.9	81.30	62.04	86.58	159.8	117.1	150.2	1441	9999.9	9999.9	1162	80.59	54.91	40.08	29.39	24.81	20.62	17.97	15.10	14.89	13.79	12.83	11.80	10.98	11.01	10.53	10.22	9.986	9.146	8.830	8.104	7.370	6.837	6.868	6.249	5.512	5.338	5.490	5.180	5.189	5.188	5.314	5.057	5.205	5.480	7.063	8.958	7.797	5.191	4.537	4.399	4.434	4.724	5.264	5.744	6.111	6.305	8.206	13.96	32.84	64.48	348.5	1951	6536	9999.9	7460	180.8	12.62	5.977	4.302	3.433	3.023	2.304	1.931	1.749
555.0	228.6	229.1	172.4	90.14	60.15	62.84	121.2	146.9	116.5	418.1	3153	9999.9	9999.9	158.7	60.46	41.23	30.43	25.21	20.06	17.60	15.23	14.33	13.09	12.02	11.58	10.10	9.865	9.437	9.315	9.140	8.749	8.319	7.103	7.067	7.026	6.476	6.409	5.505	5.282	5.113	4.671	4.781	4.707	4.844	4.598	4.909	5.114	5.104	6.274	7.679	6.208	4.630	3.870	3.792	4.158	4.500	4.738	5.405	5.741	5.787	6.948	11.71	19.37	83.45	440.9	1469	3424	9999.9	9246	271.5	10.61	5.485	4.193	3.373	2.699	2.251	1.731
560.0	283.4	273.8	205.2	101.6	57.00	54.62	96.22	174.5	116.8	192.5	851.3	9999.9	9999.9	1304	69.12	45.82	30.83	25.26	19.76	16.46	15.78	13.71	12.45	12.07	11.28	10.43	9.404	8.574	8.859	8.662	8.364	7.536	6.908	6.721	6.680	6.100	5.897	5.414	5.222	4.851	4.704	4.453	4.327	4.399	4.554	4.921	4.685	4.622	4.758	6.084	6.978	5.521	3.606	3.495	3.734	3.929	4.013	4.631	5.100	5.032	5.125	6.592	8.202	23.54	103.7	334.6	786.7	4159	9999.9	2846	43.85	7.885	4.953	3.730	2.760	2.391	1.890
565.0	335.5	332.5	240.5	112.4	58.43	52.92	80.25	170.9	139.6	141.9	311.4	5205	9999.9	9999.9	87.22	48.63	35.14	26.41	20.95	16.72	15.07	13.02	12.41	10.99	10.54	9.604	8.633	8.683	8.138	7.895	7.841	7.077	6.720	6.354	6.567	6.182	5.663	5.284	5.230	4.849	4.694	4.390	4.119	4.392	4.519	4.879	4.400	4.279	4.308	4.657	6.060	5.819	3.987	3.483	3.454	3.747	3.822	4.018	4.317	4.642	4.559	4.814	5.501	9.598	27.54	80.08	182.7	973.3	4953	9999.9	2521	35.65	6.500	4.275	3.168	2.538	2.222
570.0	380.5	370.2	271.7	119.1	54.78	52.52	66.61	128.8	175.6	139.1	191.6	1372	9999.9	9999.9	833.5	57.42	37.09	27.41	20.43	16.47	14.67	13.18	11.85	11.06	9.900	9.260	8.784	8.545	7.968	7.850	7.206	6.725	6.449	6.068	5.830	5.960	5.687	5.382	5.030	4.779	4.386	4.213	4.296	4.425	4.615	4.477	4.456	4.178	3.991	3.686	4.330	5.139	4.686	3.570	3.252	3.323	3.466	3.442	3.800	3.934	4.317	4.215	4.201	5.339	9.664	21.94	45.54	222.6	1160	4243	7482	4710	179.9	10.11	3.998	2.905	2.490
575.0	379.3	396.8	293.5	108.9	52.13	49.35	59.16	93.81	186.9	161.9	163.6	440.4	3057	9999.9	9999.9	108.3	41.49	30.43	20.91	17.81	14.82	13.68	11.85	11.46	9.523	9.517	8.812	8.559	7.709	7.419	6.747	5.817	6.585	5.947	5.604	5.639	5.380	5.567	5.153	4.173	4.390	4.234	4.128	4.237	4.188	4.246	4.427	4.175	3.938	3.477	3.250	3.863	4.481	4.489	3.294	3.072	3.072	3.294	3.094	3.089	3.449	4.060	3.871	3.679	5.148	7.900	13.38	53.44	262.7	951.2	2128	6620	5782	268.2	7.862	3.896	2.704
580.0	399.6	400.3	273.9	112.7	52.65	48.33	60.14	78.85	164.7	189.0	154.3	219.7	824.1	9999.9	9999.9	837.4	46.98	30.59	23.75	18.53	15.52	12.99	12.02	11.13	9.154	8.923	9.087	8.191	7.867	7.348	6.547	5.582	5.919	6.697	5.645	5.271	5.303	5.139	4.762	4.154	4.297	3.924	4.247	4.015	4.136	4.009	4.120	4.033	3.690	3.381	2.839	2.945	3.889	4.553	3.611	2.981	2.800	2.789	2.782	2.921	3.326	3.495	3.675	3.289	3.771	4.659	5.808	15.38	62.06	215.7	484.2	2325	7283	2743	43.35	5.383	3.124
585.0	376.0	364.7	287.0	111.2	52.19	48.79	56.61	74.23	131.3	211.6	158.1	166.9	302.0	4829	9999.9	6375	57.76	33.45	24.24	18.40	15.14	13.06	11.91	11.20	9.527	8.355	8.326	8.541	7.096	6.669	5.942	5.677	5.740	5.781	6.425	5.231	5.045	5.255	4.930	4.636	4.247	3.984	4.055	4.024	4.155	3.970	3.972	4.061	3.457	3.120	2.710	2.635	3.146	3.824	3.933	3.101	2.910	2.592	2.593	2.501	2.763	2.947	3.415	3.008	3.170	3.265	3.895	6.290	16.88	51.31	111.9	538.6	2997	6572	2235	33.14	4.417
590.0	361.1	353.4	258.5	105.5	48.32	46.60	53.45	72.45	106.2	191.9	178.6	155.5	170.9	1231	9999.9	9999.9	575.5	39.82	27.00	19.95	15.29	13.69	12.12	11.19	9.890	8.492	7.837	7.737	7.115	6.653	6.558	5.615	5.290	5.366	6.286	5.413	4.897	4.710	4.386	4.319	3.803	3.774	3.720	3.773	3.921	3.844	3.664	3.728	3.312	2.742	2.462	2.378	2.449	3.067	3.686	3.421	2.846	2.463	2.532	2.382	2.397	2.394	2.655	2.945	3.093	2.773	2.891	3.708	6.264	14.08	27.65	123.5	693.8	2539	4557	3005	171.0
595.0	317.7	321.2	235.0	90.88	44.48	41.11	52.43	68.71	97.26	154.1	205.5	150.0	132.6	350.3	2936	9999.9	7811	65.44	30.05	22.34	16.65	14.11	12.31	11.40	9.251	8.438	7.678	7.250	7.081	6.452	6.165	5.768	5.362	4.803	5.374	5.544	5.034	4.207	4.019	3.885	3.593	3.399	3.479	3.573	3.547	3.662	3.510	3.396	2.990	2.468	2.341	2.311	2.151	2.341	3.047	3.574	2.808	2.548	2.365	2.180	2.283	2.179	2.337	2.416	2.651	2.875	2.528	2.550	3.138	4.891	8.010	29.81	156.9	568.9	1279	3892	2811
600.0	303.8	295.4	219.6	86.69	44.94	44.07	55.23	75.51	101.1	136.0	209.7	160.8	123.7	145.1	736.1	9999.9	9999.9	144.1	34.01	22.82	18.16	14.02	12.09	10.93	9.474	9.042	7.443	6.908	7.126	6.711	5.832	5.572	5.053	4.830	5.440	5.661	5.465	4.278	3.915	3.759	3.557	3.382	3.496	3.420	3.429	3.585	3.498	3.294	2.746	2.389	2.273	2.067	1.993	1.976	2.499	3.130	3.005	2.667	2.196	2.164	1.934	2.093	2.137	2.226	2.278	2.597	2.390	2.137	2.229	2.759	3.284	8.489	36.99	129.1	290.8	1347	4101
605.0	281.1	276.1	201.9	84.78	44.03	41.28	55.93	81.09	103.2	134.0	203.4	183.3	126.2	102.4	224.4	4653	9999.9	3362	40.72	24.85	19.00	15.91	12.44	10.72	9.416	8.456	7.527	7.205	6.683	6.711	5.921	5.352	5.056	4.857	4.659	4.761	5.880	4.620	3.768	3.717	3.325	3.297	3.395	3.432	3.517	3.390	3.314	3.195	2.686	2.276	2.201	1.962	1.892	1.857	2.247	2.577	2.845	2.790	2.166	1.975	2.006	1.941	2.075	2.060	2.056	2.314	2.481	2.136	2.179	2.238	2.333	3.515	9.910	30.66	67.12	311.6	1703
610.0	266.8	272.2	184.7	83.66	45.50	51.48	64.37	91.49	119.2	152.0	193.7	216.8	146.2	99.96	112.5	1168	9999.9	9999.9	386.1	29.23	20.05	16.26	13.00	11.15	9.461	8.257	7.558	7.087	6.525	6.282	5.663	5.708	5.255	4.948	4.848	4.247	4.874	5.646	4.278	3.635	3.249	3.288	3.276	3.241	3.177	3.183	3.076	2.986	2.577	2.229	2.000	1.927	1.834	1.906	1.916	2.155	2.691	2.671	2.326	2.143	1.943	1.902	2.011	1.971	2.008	2.044	2.200	2.128	2.050	1.835	1.876	2.082	3.637	8.280	16.57	71.43	394.9
615.0	271.6	252.9	181.2	80.44	48.12	52.35	68.51	108.1	132.0	168.0	197.8	227.4	180.3	106.1	88.43	317.1	2958	9999.9	5249	39.81	22.72	17.41	13.26	11.29	9.688	8.513	7.407	6.949	6.201	5.824	6.128	5.493	4.923	4.868	4.597	4.398	4.014	5.203	5.582	3.631	3.167	3.127	3.213	3.062	3.142	3.182	3.055	2.937	2.559	2.326	1.860	1.849	1.628	1.758	2.091	1.941	2.302	2.355	2.480	2.053	2.027	1.901	1.866	1.865	1.882	2.123	1.949	2.076	2.059	1.822	1.575	1.634	2.069	3.108	5.022	17.27	89.49
620.0	254.5	246.0	175.7	81.86	47.43	53.53	70.82	108.4	132.2	172.6	201.4	216.5	195.7	115.2	84.89	125.9	745.0	9999.9	9999.9	105.6	25.85	18.48	14.80	11.05	10.07	8.408	7.328	7.461	6.541	5.780	5.791	5.440	4.830	4.690	4.394	4.276	3.779	4.340	6.199	4.621	3.149	3.164	2.961	3.052	2.908	3.130	2.987	2.918	2.648	2.100	2.021	1.711	1.635	1.675	1.893	1.793	1.940	2.172	2.267	2.251	2.058	1.749	1.909	1.790	1.956	2.206	2.240	1.919	2.120	1.800	1.570	1.546	1.558	1.812	2.358	4.984	21.23
625.0	233.6	220.2	165.9	79.79	46.98	54.08	75.26	108.9	138.5	170.4	202.4	206.9	205.1	123.8	85.74	83.54	224.5	4668	9999.9	842.0	30.03	19.54	14.56	11.54	10.08	8.970	7.599	7.321	6.286	6.131	5.461	4.889	4.997	4.488	4.396	4.283	4.110	3.872	5.131	6.212	3.120	2.829	2.861	2.828	3.164	3.035	2.855	2.931	2.446	2.276	1.774	1.727	1.674	1.735	1.742	1.870	2.026	1.869	2.124	2.231	1.989	1.895	1.737	1.714	1.723	1.829	1.633	1.707	1.682	1.742	1.707	1.391	1.196	1.373	1.587	2.009	5.901
630.0	220.1	203.7	153.3	78.89	49.41	54.51	75.77	102.8	138.6	170.1	192.0	189.9	187.1	137.9	82.30	70.64	99.69	1173	9999.9	9999.9	231.9	22.54	16.29	12.55	10.51	8.851	8.057	7.437	6.410	6.101	5.464	4.655	4.715	4.292	4.544	4.361	4.081	3.868	3.956	5.329	4.945	3.020	2.724	2.715	3.136	2.941	2.817	2.912	2.475	2.089	1.770	1.649	1.661	1.607	1.673	1.751	1.835	1.633	1.781	2.044	2.089	1.998	1.786	1.695	1.595	1.684	1.727	1.548	1.538	1.566	1.685	1.283	1.153	1.097	1.155	1.307	2.260
635.0	204.6	187.6	136.2	74.19	47.80	55.86	73.41	98.16	131.1	165.1	184.6	176.3	161.9	144.5	81.79	64.12	66.17	307.0	3063	9999.9	3126	29.32	17.43	13.66	11.16	9.512	7.673	7.580	6.577	6.077	5.530	4.835	4.651	4.550	4.618	3.818	3.993	3.826	3.347	3.885	5.949	4.493	2.555	2.545	2.669	2.498	2.676	2.610	2.372	2.011	1.743	1.791	1.601	1.570	1.554	1.572	1.851	1.701	1.543	1.812	1.898	1.922	1.878	1.439	1.595	1.656	1.641	1.564	1.483	1.268	1.389	1.331	1.189	1.118	1.112	1.047	1.292
640.0	184.8	175.7	131.4	71.08	47.79	50.89	66.56	93.54	119.1	150.5	172.7	168.9	149.3	138.2	86.25	60.88	56.86	111.0	757.7	9999.9	7115	74.47	19.97	14.36	11.41	9.415	8.161	7.342	6.493	6.442	5.786	4.596	4.717	4.535	4.504	3.816	3.777	3.610	3.235	3.287	4.710	5.630	2.984	2.404	2.617	2.509	2.556	2.381	2.366	1.916	1.865	1.572	1.615	1.419	1.488	1.585	1.649	1.693	1.565	1.644	1.718	1.825	1.695	1.622	1.583	1.488	1.578	1.354	1.354	1.292	1.114	1.136	1.111	1.094	0.844	0.908	1.029
645.0	190.2	180.6	149.9	85.15	51.25	51.39	65.59	88.55	112.8	146.4	163.8	161.0	145.4	121.9	97.38	62.56	54.19	62.55	205.8	4950	9999.9	625.7	23.42	15.47	12.79	9.793	8.090	7.118	6.774	6.758	5.793	5.084	4.619	4.285	4.289	3.571	3.965	3.864	3.547	3.314	3.499	5.541	4.232	2.453	2.544	2.555	2.545	2.483	2.287	1.938	1.764	1.624	1.561	1.576	1.479	1.664	1.540	1.645	1.530	1.597	1.524	1.784	1.840	1.467	1.470	1.396	1.397	1.256	1.322	1.172	1.066	1.021	1.225	1.120	0.938	0.934	0.806
650.0	228.7	192.7	162.6	107.9	59.20	53.21	65.47	88.79	114.1	145.0	164.0	162.5	140.0	113.1	100.5	65.83	53.15	50.16	78.89	1364	9999.9	4604	32.26	16.74	12.56	9.994	8.354	7.502	6.924	6.729	6.223	5.077	4.766	4.592	4.162	4.056	3.735	3.530	3.267	3.330	3.008	4.580	6.007	3.072	2.434	2.559	2.347	2.509	2.135	1.969	1.827	1.579	1.613	1.502	1.653	1.653	1.522	1.557	1.702	1.447	1.306	1.471	1.762	1.640	1.524	1.357	1.452	1.342	1.165	1.399	1.042	1.007	0.994	1.000	0.975	0.896	0.850
