Sample:	'1
File name:	Default_20230214_144049.FD3
Run date:	'14:34:28, 02/14/2023
Operator:	dsjg
Comment:	'

Instrument
Model:	F-2700 FL Spectrophotometer
Serial number:	2198-001
ROM Version:	4J14000 07

Instrument parameters
Measurement type:	3-D scan
Data mode:	Fluorescence
EX  Start WL:	220.0 nm
EX  End WL:	600.0 nm
EX Sampling interval:	5.0 nm
EM  Start WL:	230.0 nm
EM  End WL:	650.0 nm
EM Sampling interval:	5.0 nm
Scan speed:	12000 nm/min
EX Slit:	5.0 nm
EM Slit:	5.0 nm
PMT Voltage:	700 V
Response:	Auto 
Corrected spectra:	Off
Contour interval:	50.000

Peak integration
Integration method:	Rectangular
Sensitivity:	1
Threshold:	1.000

Peaks
No.	ApexEX/EM(nm)	Height(Data)
1	225.0/590.0	7.493
2	230.0/615.0	5.600
3	235.0/260.0	119.0
4	235.0/515.0	85.41
5	240.0/265.0	139.2
6	240.0/380.0	470.0
7	240.0/525.0	77.36
8	245.0/270.0	140.6
9	245.0/540.0	69.20
10	250.0/275.0	168.4
11	250.0/550.0	56.81
12	255.0/280.0	186.6
13	255.0/560.0	47.05
14	260.0/375.0	495.4
15	260.0/570.0	35.83
16	265.0/585.0	32.54
17	270.0/300.0	304.0
18	270.0/595.0	28.04
19	275.0/305.0	343.6
20	275.0/605.0	23.26
21	280.0/310.0	301.3
22	280.0/620.0	19.83
23	285.0/315.0	304.3
24	285.0/630.0	15.95
25	290.0/325.0	310.6
26	290.0/645.0	14.02
27	295.0/330.0	267.7
28	300.0/335.0	262.1
29	305.0/340.0	244.6
30	310.0/350.0	216.4
31	315.0/355.0	203.7
32	320.0/360.0	202.7
33	325.0/370.0	197.5
34	330.0/375.0	215.9
35	335.0/380.0	224.4
36	340.0/385.0	206.6
37	350.0/400.0	165.2
38	355.0/405.0	145.7
39	370.0/425.0	105.0
40	380.0/440.0	78.37
41	385.0/445.0	70.34
42	400.0/465.0	42.81
43	415.0/485.0	26.19
44	425.0/495.0	18.58
45	430.0/505.0	16.02
46	435.0/510.0	13.32
47	440.0/515.0	11.46
48	445.0/525.0	10.14
49	460.0/545.0	5.430
50	465.0/550.0	4.558
51	475.0/565.0	2.972
52	545.0/300.0	1.817

Data points
	220.0	225.0	230.0	235.0	240.0	245.0	250.0	255.0	260.0	265.0	270.0	275.0	280.0	285.0	290.0	295.0	300.0	305.0	310.0	315.0	320.0	325.0	330.0	335.0	340.0	345.0	350.0	355.0	360.0	365.0	370.0	375.0	380.0	385.0	390.0	395.0	400.0	405.0	410.0	415.0	420.0	425.0	430.0	435.0	440.0	445.0	450.0	455.0	460.0	465.0	470.0	475.0	480.0	485.0	490.0	495.0	500.0	505.0	510.0	515.0	520.0	525.0	530.0	535.0	540.0	545.0	550.0	555.0	560.0	565.0	570.0	575.0	580.0	585.0	590.0	595.0	600.0
230.0	9.472	190.8	428.8	114.5	3.036	1.050	0.804	0.741	0.881	0.653	0.667	0.572	0.530	0.356	0.351	0.293	0.324	0.300	0.274	0.244	0.198	0.175	0.185	0.178	0.169	0.146	0.156	0.099	0.148	0.117	0.128	0.121	0.112	0.102	0.098	0.199	0.215	0.206	0.177	0.163	0.156	0.150	0.144	0.126	0.113	0.096	0.133	0.422	1.169	1.395	0.769	0.204	0.073	0.081	0.067	0.060	0.049	0.042	0.045	0.049	0.042	0.037	0.031	0.020	0.045	0.032	0.021	0.019	0.025	0.031	0.021	0.017	0.019	0.006	0.014	0.013	0.008
235.0	12.07	59.58	337.0	543.2	194.4	6.636	1.199	0.919	1.138	0.874	0.730	0.711	0.481	0.420	0.358	0.419	0.293	0.282	0.232	0.195	0.157	0.195	0.187	0.219	0.183	0.205	0.146	0.103	0.135	0.118	0.129	0.098	0.123	0.123	0.107	0.151	0.162	0.271	0.174	0.162	0.156	0.115	0.166	0.158	0.192	0.101	0.100	0.154	0.445	0.897	1.646	2.299	1.547	0.439	0.094	0.063	0.083	0.045	0.050	0.049	0.053	0.015	0.055	0.029	0.013	0.044	0.015	0.023	0.012	0.011	0.031	0.028	0.005	0.009	0.005	0.003	0.020
240.0	27.51	26.20	121.4	597.4	743.4	153.5	3.795	1.419	1.177	1.031	0.756	0.696	0.480	0.616	0.453	0.329	0.384	0.246	0.277	0.270	0.206	0.243	0.151	0.287	0.127	0.167	0.146	0.095	0.139	0.189	0.142	0.120	0.105	0.133	0.108	0.099	0.117	0.230	0.164	0.200	0.255	0.170	0.136	0.128	0.132	0.154	0.208	0.084	0.188	0.292	0.764	2.209	3.510	3.277	1.442	0.268	0.054	0.067	0.038	0.059	0.039	0.028	0.036	0.031	0.010	0.041	0.009	0.026	0.029	0.000	0.020	0.045	0.031	-0.002	0.038	0.035	0.019
245.0	27.52	39.01	39.96	256.6	910.2	764.3	93.17	2.164	1.442	0.914	0.920	0.726	0.579	0.602	0.591	0.365	0.364	0.314	0.285	0.317	0.218	0.182	0.272	0.205	0.126	0.182	0.181	0.173	0.184	0.173	0.119	0.092	0.119	0.120	0.057	0.090	0.087	0.149	0.170	0.209	0.185	0.142	0.152	0.143	0.107	0.152	0.256	0.185	0.193	0.147	0.256	0.694	1.995	3.756	4.777	3.001	0.853	0.128	0.045	0.062	0.038	0.032	0.045	0.047	0.017	0.026	0.030	0.013	0.031	0.032	0.014	0.025	0.006	-0.008	0.004	0.020	0.006
250.0	10.89	42.90	64.98	81.24	339.6	881.1	749.3	165.1	14.70	1.556	1.071	0.884	0.970	0.600	0.508	0.509	0.335	0.370	0.352	0.319	0.239	0.187	0.298	0.210	0.180	0.182	0.150	0.199	0.173	0.134	0.122	0.125	0.087	0.094	0.109	0.093	0.071	0.105	0.130	0.181	0.181	0.172	0.166	0.150	0.157	0.133	0.176	0.223	0.351	0.316	0.255	0.251	0.546	1.153	2.409	3.885	5.071	4.340	2.813	0.845	0.125	0.049	0.048	0.040	0.016	0.020	0.024	0.015	0.026	0.016	0.019	0.016	0.008	0.009	0.014	0.011	0.013
255.0	4.348	13.17	67.43	111.4	103.0	244.2	776.3	 1250	222.6	15.13	1.646	1.628	1.031	0.792	0.645	0.496	0.526	0.420	0.387	0.337	0.276	0.195	0.266	0.284	0.218	0.186	0.169	0.174	0.134	0.168	0.150	0.119	0.165	0.091	0.101	0.091	0.089	0.092	0.115	0.145	0.149	0.222	0.189	0.122	0.182	0.143	0.127	0.140	0.228	0.248	0.512	0.582	0.402	0.375	0.629	0.978	1.755	3.705	6.911	7.459	4.076	0.986	0.062	0.025	0.049	0.033	0.027	0.036	0.006	0.027	0.043	0.016	0.018	0.010	0.032	0.012	0.035
260.0	3.037	4.751	31.14	119.0	108.4	71.26	268.6	 1101	 1312	178.7	8.370	1.820	1.461	0.938	0.567	0.684	0.486	0.404	0.396	0.250	0.376	0.345	0.224	0.327	0.204	0.207	0.220	0.236	0.220	0.216	0.154	0.157	0.155	0.126	0.078	0.100	0.105	0.051	0.094	0.110	0.120	0.164	0.174	0.206	0.159	0.151	0.217	0.119	0.167	0.155	0.293	0.589	0.772	0.489	0.309	0.299	0.462	1.071	2.927	6.104	9.294	7.083	2.889	0.426	0.049	0.032	0.053	0.048	0.024	0.025	0.019	0.021	0.022	0.025	0.048	0.037	0.029
265.0	2.815	2.511	10.28	68.46	139.2	81.16	71.67	416.2	 1398	 1281	136.6	3.469	1.580	1.149	0.814	0.699	0.496	0.564	0.414	0.318	0.304	0.255	0.256	0.230	0.208	0.190	0.227	0.122	0.183	0.145	0.113	0.141	0.192	0.145	0.123	0.092	0.112	0.054	0.053	0.096	0.108	0.164	0.180	0.178	0.148	0.219	0.159	0.132	0.152	0.117	0.126	0.303	0.544	0.790	0.721	0.349	0.214	0.301	0.749	1.859	4.854	8.575	9.640	6.362	1.562	0.123	0.053	0.070	0.039	0.063	0.038	0.029	0.018	0.039	0.015	0.042	0.038
270.0	5.254	5.340	5.910	21.08	77.61	140.6	94.06	112.5	471.0	 1231	 1433	524.3	30.99	1.421	1.241	0.956	0.660	0.675	0.385	0.369	0.314	0.335	0.278	0.231	0.222	0.219	0.223	0.192	0.176	0.128	0.144	0.140	0.139	0.131	0.123	0.085	0.123	0.071	0.101	0.074	0.082	0.119	0.146	0.184	0.162	0.181	0.141	0.135	0.140	0.115	0.104	0.156	0.208	0.373	0.613	0.772	0.710	0.426	0.328	0.475	1.241	2.550	4.658	6.916	8.397	7.031	4.142	1.289	0.135	0.041	0.042	0.040	0.024	0.017	0.020	0.034	0.025
275.0	9.315	9.563	8.960	10.56	22.75	78.04	168.4	117.6	123.4	331.5	 1030	 1733	748.0	29.99	1.645	1.294	0.951	0.673	0.591	0.366	0.485	0.300	0.349	0.200	0.264	0.303	0.210	0.260	0.232	0.147	0.163	0.138	0.133	0.158	0.137	0.105	0.124	0.114	0.076	0.112	0.077	0.102	0.121	0.143	0.173	0.221	0.192	0.168	0.151	0.138	0.119	0.129	0.117	0.158	0.239	0.328	0.639	1.001	0.922	0.483	0.409	0.722	1.132	1.689	2.851	5.136	9.268	10.08	5.788	1.097	0.066	0.036	0.027	0.037	0.020	0.029	0.019
280.0	14.09	15.66	13.75	11.49	12.20	32.07	122.3	186.6	98.16	100.9	334.9	 1240	 1747	552.9	10.70	1.756	1.166	0.760	0.730	0.544	0.462	0.389	0.335	0.258	0.236	0.310	0.256	0.207	0.191	0.172	0.182	0.136	0.121	0.160	0.139	0.123	0.097	0.122	0.151	0.076	0.075	0.110	0.150	0.098	0.163	0.211	0.214	0.235	0.180	0.198	0.136	0.120	0.115	0.128	0.148	0.170	0.300	0.636	1.102	1.136	0.669	0.337	0.386	0.522	0.772	1.520	3.622	7.792	11.37	9.020	3.423	0.359	0.058	0.048	0.037	0.056	0.027
285.0	20.45	27.75	22.03	15.37	13.53	18.07	56.55	171.1	176.3	79.94	113.5	438.0	 1391	 1656	97.86	3.860	1.604	1.024	0.834	0.652	0.594	0.403	0.444	0.307	0.322	0.329	0.220	0.169	0.218	0.184	0.178	0.197	0.185	0.136	0.157	0.198	0.128	0.156	0.131	0.097	0.042	0.101	0.123	0.104	0.167	0.147	0.233	0.216	0.195	0.200	0.177	0.176	0.147	0.171	0.165	0.178	0.191	0.336	0.514	1.019	1.330	0.857	0.426	0.320	0.367	0.549	0.987	2.349	5.453	9.594	11.39	6.796	1.387	0.066	0.057	0.018	0.000
290.0	26.79	36.21	33.96	23.70	20.65	20.89	33.59	86.72	179.1	195.3	119.7	157.2	463.3	 1148	 1308	370.0	22.61	1.636	1.081	0.970	0.708	0.546	0.508	0.378	0.364	0.358	0.254	0.247	0.226	0.250	0.211	0.257	0.139	0.148	0.171	0.153	0.157	0.138	0.142	0.140	0.102	0.097	0.102	0.134	0.154	0.152	0.234	0.248	0.292	0.228	0.166	0.264	0.197	0.204	0.156	0.170	0.193	0.229	0.268	0.483	0.781	1.093	1.222	1.081	0.696	0.467	0.490	0.805	1.525	2.960	5.329	7.603	8.719	7.424	4.088	0.870	0.065
295.0	32.01	45.41	42.89	34.23	31.68	31.20	34.61	53.53	105.0	222.5	267.6	145.0	168.3	319.0	735.6	 1537	553.9	23.27	1.794	1.150	0.898	0.758	0.664	0.419	0.403	0.383	0.374	0.312	0.306	0.233	0.236	0.183	0.174	0.202	0.188	0.176	0.141	0.146	0.150	0.153	0.152	0.100	0.143	0.116	0.135	0.167	0.175	0.284	0.372	0.260	0.224	0.246	0.218	0.257	0.200	0.205	0.262	0.207	0.229	0.342	0.384	0.575	0.747	1.186	1.655	1.341	0.642	0.597	0.697	1.025	1.408	1.953	3.029	6.096	10.87	11.33	5.153
300.0	40.17	54.50	51.93	41.40	34.53	35.49	43.81	53.31	83.68	164.8	304.0	249.8	128.4	126.2	238.3	966.1	 1709	416.4	8.179	1.440	1.023	0.794	0.751	0.484	0.465	0.404	0.429	0.370	0.305	0.347	0.292	0.233	0.232	0.221	0.192	0.169	0.137	0.174	0.183	0.118	0.125	0.089	0.122	0.106	0.146	0.155	0.178	0.247	0.310	0.283	0.239	0.249	0.280	0.233	0.264	0.181	0.261	0.218	0.315	0.374	0.300	0.467	0.531	0.865	1.270	1.817	1.539	0.923	0.699	0.641	0.630	0.695	0.851	1.825	4.479	9.479	12.65
305.0	43.77	60.51	61.74	50.33	44.51	44.58	51.87	63.71	86.31	135.9	246.4	343.6	162.0	100.8	97.05	327.7	 1214	 1662	62.91	3.283	1.472	0.980	0.894	0.633	0.450	0.487	0.428	0.422	0.376	0.276	0.256	0.228	0.184	0.236	0.210	0.169	0.137	0.184	0.214	0.157	0.163	0.116	0.091	0.139	0.173	0.181	0.173	0.252	0.299	0.315	0.308	0.328	0.284	0.295	0.307	0.322	0.315	0.340	0.345	0.382	0.355	0.560	0.561	0.651	0.894	1.311	1.856	1.650	1.049	0.745	0.568	0.418	0.418	0.566	1.305	3.089	6.707
310.0	41.04	60.43	67.58	58.92	57.02	58.06	66.95	78.42	98.82	131.4	183.8	277.0	301.3	171.7	85.95	113.9	378.7	 1042	 1370	601.9	16.44	1.535	1.200	0.774	0.758	0.526	0.405	0.426	0.392	0.354	0.275	0.247	0.228	0.233	0.196	0.188	0.171	0.199	0.213	0.142	0.162	0.131	0.160	0.141	0.163	0.175	0.187	0.250	0.277	0.276	0.364	0.316	0.351	0.350	0.316	0.333	0.382	0.406	0.362	0.424	0.426	0.574	0.596	0.638	0.815	0.889	1.145	1.416	1.786	1.593	1.030	0.600	0.501	0.427	0.527	0.920	1.824
315.0	46.57	69.22	73.71	73.69	69.69	73.97	80.93	95.80	113.4	140.4	177.9	213.4	263.8	304.3	117.9	85.83	129.1	280.2	677.7	 1666	408.5	16.43	1.487	1.184	0.898	0.574	0.636	0.466	0.433	0.378	0.236	0.227	0.256	0.283	0.217	0.241	0.235	0.214	0.187	0.176	0.189	0.183	0.159	0.155	0.209	0.124	0.218	0.256	0.324	0.224	0.306	0.333	0.413	0.427	0.392	0.440	0.446	0.464	0.464	0.439	0.486	0.591	0.719	0.670	0.824	0.801	0.917	0.999	1.135	1.463	1.804	1.607	0.841	0.471	0.455	0.486	0.686
320.0	63.59	98.24	111.8	86.95	81.86	81.27	96.77	114.1	131.8	163.0	194.7	217.2	235.6	299.6	256.2	101.9	87.07	108.7	210.2	917.2	 1668	312.0	6.480	1.385	0.987	0.571	0.569	0.486	0.470	0.331	0.438	0.285	0.300	0.265	0.218	0.210	0.215	0.195	0.180	0.200	0.151	0.162	0.178	0.156	0.208	0.200	0.238	0.365	0.470	0.354	0.302	0.400	0.386	0.392	0.467	0.445	0.476	0.594	0.553	0.539	0.590	0.756	0.724	0.812	0.909	0.941	0.867	0.967	1.002	1.073	1.491	1.876	1.578	0.913	0.595	0.507	0.476
325.0	84.23	135.5	146.9	109.2	92.48	96.95	110.2	130.6	148.0	181.1	217.4	243.7	240.1	258.1	310.6	198.0	92.34	80.60	85.15	283.8	 1165	 1582	49.04	2.771	1.250	0.964	0.704	0.578	0.479	0.440	0.421	0.313	0.333	0.222	0.282	0.187	0.212	0.184	0.232	0.170	0.169	0.156	0.144	0.159	0.172	0.264	0.340	0.451	0.596	0.545	0.453	0.416	0.392	0.519	0.521	0.536	0.612	0.582	0.595	0.695	0.719	0.842	0.845	0.947	0.987	1.037	0.940	1.155	1.084	1.239	1.312	1.363	1.847	1.757	1.239	0.633	0.594
330.0	93.74	164.0	190.3	141.4	114.9	113.1	124.8	145.5	169.9	200.9	238.0	267.5	265.6	246.4	252.9	267.7	180.9	95.18	69.30	96.45	338.7	 1004	 1327	537.8	13.55	1.362	0.848	0.747	0.593	0.561	0.410	0.358	0.319	0.317	0.298	0.216	0.237	0.210	0.246	0.213	0.185	0.130	0.177	0.174	0.213	0.311	0.375	0.549	0.678	0.669	0.604	0.537	0.560	0.575	0.543	0.596	0.678	0.632	0.701	0.738	0.764	0.900	0.917	1.062	1.099	1.161	1.200	1.214	1.246	1.363	1.277	1.273	1.382	1.513	1.664	1.609	1.120
335.0	113.1	203.8	231.1	186.5	147.3	138.6	146.5	171.3	193.9	227.4	270.4	296.0	297.2	272.2	242.2	229.8	262.1	168.7	83.16	66.34	105.8	254.9	641.0	 1673	338.4	14.18	1.317	1.080	0.765	0.521	0.604	0.415	0.417	0.292	0.278	0.275	0.226	0.230	0.264	0.227	0.178	0.151	0.164	0.223	0.273	0.365	0.429	0.627	0.737	0.856	0.623	0.749	0.697	0.636	0.651	0.623	0.732	0.808	0.826	0.804	0.828	0.988	1.061	1.203	1.243	1.299	1.334	1.348	1.485	1.495	1.433	1.391	1.267	1.234	1.213	1.407	1.671
340.0	116.8	236.3	278.0	233.3	181.2	166.3	174.9	195.6	216.4	244.8	289.3	321.6	324.8	300.6	255.9	215.7	233.4	244.6	120.6	69.50	63.64	86.21	184.9	937.3	 1679	268.7	5.030	1.407	0.892	0.658	0.636	0.473	0.336	0.281	0.267	0.291	0.210	0.216	0.250	0.198	0.223	0.183	0.206	0.221	0.305	0.377	0.480	0.763	0.766	0.864	0.761	0.869	0.771	0.798	0.753	0.743	0.875	0.959	0.929	1.041	1.090	1.181	1.158	1.251	1.226	1.383	1.383	1.495	1.609	1.480	1.509	1.561	1.259	1.249	1.177	1.130	1.218
345.0	126.4	242.5	298.5	255.6	220.2	200.3	197.6	220.5	243.8	268.6	304.5	334.4	342.3	316.5	273.2	219.4	196.3	243.3	191.1	87.28	62.24	57.28	69.57	278.2	 1250	 1492	41.81	2.626	1.181	0.880	0.677	0.562	0.480	0.385	0.299	0.374	0.293	0.265	0.255	0.250	0.239	0.200	0.262	0.222	0.276	0.382	0.498	0.724	0.886	0.899	0.832	0.918	0.934	0.830	0.834	0.735	0.886	1.061	0.961	1.127	1.141	1.187	1.327	1.264	1.337	1.450	1.388	1.516	1.777	1.576	1.606	1.571	1.368	1.225	1.208	1.029	1.128
350.0	124.9	230.6	309.0	302.7	277.5	254.2	260.5	281.4	296.1	311.5	338.2	358.2	361.3	339.2	295.2	239.5	198.0	195.6	216.4	166.0	85.58	62.14	54.22	91.34	355.1	 1011	 1260	467.3	12.07	1.306	1.047	0.663	0.603	0.377	0.314	0.333	0.287	0.265	0.237	0.220	0.214	0.221	0.256	0.262	0.308	0.447	0.496	0.665	0.969	0.981	0.948	1.033	1.176	1.046	1.097	1.062	1.125	1.265	1.305	1.321	1.453	1.482	1.417	1.569	1.530	1.656	1.575	1.560	1.794	1.670	1.681	1.642	1.543	1.398	1.330	1.123	1.240
355.0	125.0	231.2	331.1	332.0	337.0	320.8	335.2	351.3	364.4	361.5	380.2	384.5	386.5	359.4	321.5	260.6	217.4	190.6	178.4	203.7	158.2	82.88	63.67	59.96	107.0	252.5	622.1	 1549	308.5	13.56	1.346	0.965	0.662	0.492	0.427	0.372	0.359	0.303	0.194	0.290	0.230	0.216	0.202	0.319	0.298	0.396	0.565	0.762	0.937	0.987	1.016	1.192	1.351	1.162	1.292	1.294	1.366	1.564	1.560	1.670	1.781	1.713	1.640	1.822	1.907	1.661	1.799	1.702	1.879	1.861	1.801	1.668	1.727	1.607	1.443	1.443	1.304
360.0	124.0	233.4	330.7	353.7	367.3	358.2	375.1	399.8	406.5	399.2	400.1	408.5	400.6	370.7	335.4	273.0	229.7	196.3	170.1	173.9	202.7	122.2	74.31	60.77	59.05	81.68	173.7	895.9	 1540	247.6	4.929	1.180	0.797	0.631	0.484	0.354	0.301	0.324	0.255	0.226	0.262	0.236	0.248	0.261	0.295	0.457	0.517	0.685	0.896	1.055	1.012	1.263	1.431	1.445	1.532	1.487	1.562	1.652	1.740	1.768	2.072	1.898	1.905	1.864	1.886	1.805	1.798	1.842	2.013	1.825	1.968	1.732	1.794	1.715	1.403	1.579	1.333
365.0	131.7	227.0	328.2	368.3	391.0	391.6	402.1	425.5	437.6	425.7	417.3	421.4	402.8	378.2	339.5	285.1	239.4	207.1	176.3	158.4	188.9	180.1	98.67	70.69	56.14	50.72	61.40	259.8	 1187	 1402	39.49	2.516	1.117	0.739	0.572	0.385	0.341	0.334	0.284	0.263	0.239	0.251	0.217	0.269	0.316	0.412	0.546	0.742	0.903	0.972	1.000	1.400	1.473	1.646	1.604	1.588	1.614	1.935	1.901	1.871	2.126	2.105	2.006	1.983	1.962	1.835	1.900	1.773	1.849	1.856	1.937	1.834	1.766	1.667	1.525	1.464	1.388
370.0	120.5	225.2	337.2	395.2	432.7	421.2	432.7	466.1	472.0	461.7	448.3	440.0	409.2	380.4	342.9	290.6	252.6	224.3	196.4	175.0	171.2	197.5	180.9	117.2	83.23	65.68	55.96	85.86	335.8	986.6	 1232	423.1	11.11	1.178	0.819	0.493	0.455	0.354	0.378	0.304	0.262	0.270	0.255	0.335	0.358	0.466	0.536	0.751	0.874	1.062	1.125	1.455	1.683	1.749	1.722	1.685	1.852	1.903	2.029	2.175	2.242	2.220	2.196	2.217	2.211	1.967	2.068	2.043	1.999	1.917	1.935	1.862	1.839	1.710	1.501	1.636	1.521
375.0	119.1	209.7	360.9	415.3	462.5	450.4	454.7	482.3	495.4	482.3	480.2	470.0	415.8	377.1	337.4	299.7	265.9	238.8	215.6	196.4	184.1	186.3	215.9	199.9	131.3	104.6	79.59	63.31	103.1	246.3	640.7	 1466	269.2	12.26	1.117	0.784	0.549	0.435	0.369	0.294	0.266	0.328	0.288	0.316	0.333	0.481	0.635	0.701	0.927	1.022	1.162	1.585	1.742	1.814	1.788	1.728	1.946	1.918	2.108	2.351	2.465	2.312	2.292	2.278	2.312	2.140	2.180	2.207	2.065	1.902	1.960	1.989	1.860	1.759	1.751	1.573	1.536
380.0	112.2	211.0	335.0	421.3	470.0	452.6	448.9	481.8	487.9	478.4	470.1	464.4	412.0	372.2	330.5	296.8	266.0	243.5	222.7	204.1	189.6	186.4	194.6	224.4	172.1	120.0	88.20	65.27	56.47	78.96	179.9	864.8	 1376	212.9	3.789	0.898	0.723	0.462	0.421	0.353	0.299	0.313	0.316	0.351	0.377	0.451	0.508	0.683	0.813	1.003	1.240	1.515	1.813	1.903	1.998	1.816	1.946	1.942	2.073	2.218	2.487	2.256	2.388	2.253	2.164	2.210	2.160	2.173	2.054	1.848	1.924	1.891	1.741	1.684	1.692	1.701	1.628
385.0	111.3	198.7	322.7	409.8	463.8	436.1	434.3	470.2	467.9	462.5	452.9	444.1	403.4	363.5	324.1	291.4	263.7	245.5	226.5	206.4	190.7	185.7	179.1	200.6	206.6	136.2	94.20	69.58	50.76	45.04	64.43	255.0	 1080	 1161	32.28	1.645	0.895	0.567	0.432	0.389	0.366	0.314	0.321	0.330	0.350	0.453	0.517	0.612	0.838	1.002	1.205	1.564	1.907	1.951	1.850	1.776	1.891	1.928	2.090	2.143	2.300	2.108	2.320	2.156	2.075	2.010	1.938	2.130	1.948	1.824	1.815	1.846	1.685	1.640	1.567	1.641	1.688
390.0	105.0	196.3	307.8	397.1	443.6	425.8	425.6	444.6	444.4	437.5	433.7	422.0	383.6	345.6	315.3	285.7	261.7	246.0	225.8	209.3	198.1	187.6	179.4	177.2	191.8	177.0	115.6	76.60	55.66	43.68	42.52	77.87	301.0	814.4	958.8	133.4	9.177	0.865	0.559	0.430	0.409	0.367	0.356	0.315	0.367	0.417	0.507	0.655	0.839	0.972	1.145	1.436	1.803	1.832	1.845	1.728	1.922	1.822	2.033	2.113	2.159	2.089	2.150	2.083	1.954	2.018	1.969	2.024	1.883	1.746	1.702	1.683	1.662	1.624	1.590	1.593	1.544
395.0	104.7	184.4	292.5	377.4	428.6	413.0	407.6	419.5	414.7	407.2	416.5	400.0	359.6	330.1	298.1	275.7	256.8	241.8	225.9	211.5	199.2	192.8	182.2	175.6	168.7	175.5	160.6	95.10	63.19	48.25	40.61	41.84	82.14	195.0	494.7	 1101	222.7	10.05	0.773	0.521	0.485	0.377	0.410	0.371	0.381	0.428	0.394	0.584	0.755	0.932	1.080	1.346	1.756	1.821	1.721	1.678	2.033	1.783	1.852	1.984	1.963	1.944	1.947	2.007	1.771	1.903	1.716	1.957	1.711	1.706	1.658	1.655	1.637	1.471	1.650	1.690	1.570
400.0	101.8	181.2	281.4	366.2	419.4	399.8	394.3	396.6	394.6	391.9	389.0	380.8	341.0	318.0	290.3	268.1	250.5	236.8	221.1	210.1	197.2	193.8	180.6	172.3	161.4	155.0	165.2	125.8	72.34	53.55	44.37	37.09	36.10	54.16	129.9	659.9	 1095	181.3	3.301	0.743	0.541	0.441	0.439	0.462	0.380	0.385	0.459	0.634	0.752	0.912	1.007	1.268	1.661	1.633	1.716	1.595	1.781	1.820	1.803	2.008	1.904	1.731	1.809	1.800	1.700	1.662	1.759	1.978	1.594	1.647	1.585	1.616	1.527	1.478	1.506	1.593	1.559
405.0	106.9	161.1	259.9	340.5	396.2	383.7	385.0	381.1	374.3	368.6	364.4	356.0	326.3	305.2	278.4	258.2	243.5	230.3	215.2	205.1	192.8	187.6	177.3	166.4	155.7	140.9	143.2	145.7	91.71	59.95	48.44	39.18	28.59	24.88	38.46	183.3	818.1	920.6	28.79	1.457	0.664	0.479	0.427	0.351	0.374	0.384	0.490	0.669	0.727	0.793	0.909	1.330	1.578	1.606	1.620	1.539	1.676	1.613	1.805	1.824	1.738	1.807	1.745	1.641	1.558	1.558	1.611	1.576	1.414	1.634	1.499	1.544	1.466	1.393	1.498	1.471	1.514
410.0	95.05	163.2	246.4	323.8	368.4	372.9	366.2	363.6	354.4	344.0	336.1	327.8	304.2	283.2	261.6	243.2	229.4	219.1	207.3	195.0	185.5	179.4	169.4	159.1	148.8	134.1	122.7	126.8	120.6	79.67	54.97	43.46	30.91	22.95	21.10	50.19	221.4	626.6	759.1	124.5	8.190	0.718	0.557	0.446	0.374	0.470	0.442	0.591	0.772	0.813	0.888	1.229	1.404	1.531	1.600	1.542	1.702	1.603	1.717	1.636	1.693	1.624	1.509	1.513	1.450	1.506	1.475	1.568	1.467	1.397	1.389	1.434	1.428	1.350	1.392	1.346	1.372
415.0	88.89	154.1	228.4	299.8	338.3	350.8	354.0	348.8	336.0	317.7	314.4	298.4	283.1	262.5	241.5	230.6	216.2	206.1	194.4	184.6	177.7	168.7	162.8	154.7	142.3	130.0	114.7	105.9	111.8	111.3	70.12	47.06	34.90	25.77	20.54	22.58	58.13	149.5	387.2	846.9	199.9	9.511	0.697	0.588	0.427	0.412	0.433	0.610	0.704	0.740	0.763	1.158	1.249	1.368	1.462	1.348	1.553	1.532	1.647	1.567	1.537	1.557	1.550	1.469	1.315	1.407	1.414	1.343	1.424	1.345	1.294	1.358	1.353	1.196	1.254	1.282	1.316
420.0	83.30	141.4	221.5	279.7	321.8	333.0	340.7	335.8	316.4	305.7	296.7	283.9	267.0	243.5	228.5	215.8	203.5	195.3	183.9	175.9	169.5	160.3	154.9	149.0	139.5	128.3	112.5	101.0	95.51	111.2	91.20	54.50	37.87	29.12	21.89	18.12	22.67	40.69	100.1	491.6	843.0	164.9	3.355	0.694	0.454	0.437	0.506	0.606	0.686	0.747	0.792	1.059	1.108	1.412	1.438	1.352	1.525	1.673	1.542	1.461	1.537	1.529	1.484	1.403	1.330	1.357	1.381	1.317	1.362	1.157	1.239	1.297	1.315	1.293	1.208	1.192	1.175
425.0	78.21	143.3	210.0	264.0	308.4	324.3	329.8	325.9	304.9	292.4	282.0	268.9	254.0	235.0	219.6	204.2	193.9	184.8	176.5	168.3	161.1	154.3	149.5	141.9	134.5	123.6	110.7	99.10	89.78	95.30	105.0	69.98	42.32	31.34	23.32	18.36	15.69	17.10	28.16	134.1	623.5	736.9	27.60	1.261	0.680	0.535	0.478	0.583	0.683	0.702	0.785	1.045	1.137	1.310	1.357	1.373	1.380	1.543	1.527	1.513	1.485	1.432	1.417	1.404	1.237	1.308	1.320	1.254	1.246	1.204	1.171	1.228	1.198	1.175	1.152	1.181	1.201
430.0	74.86	133.0	196.0	245.0	290.4	307.6	315.1	313.2	293.3	275.2	267.3	252.8	236.9	223.0	205.8	192.0	181.5	174.4	166.0	157.7	151.1	146.5	140.1	135.2	128.5	118.8	108.8	98.84	88.88	84.37	90.93	89.12	56.96	35.97	26.85	21.35	16.49	13.45	13.13	35.19	169.0	494.5	607.7	116.0	7.660	0.631	0.508	0.598	0.641	0.655	0.767	0.987	1.167	1.234	1.257	1.301	1.430	1.517	1.412	1.451	1.440	1.396	1.325	1.301	1.212	1.313	1.153	1.179	1.108	1.090	1.164	1.091	1.103	1.167	1.146	1.148	1.054
435.0	88.32	124.6	185.5	233.4	276.7	295.6	304.5	305.8	286.4	261.8	254.9	241.7	223.7	208.4	194.5	180.4	169.7	162.5	154.3	148.1	142.4	137.6	131.9	127.0	122.3	114.9	107.5	98.53	89.79	82.78	76.79	81.14	77.16	47.40	31.15	23.73	18.79	14.20	11.29	13.82	41.87	115.6	298.9	711.4	187.9	8.383	0.739	0.617	0.622	0.647	0.772	0.926	1.086	1.097	1.176	1.278	1.471	1.488	1.371	1.485	1.316	1.348	1.313	1.299	1.193	1.177	1.125	1.086	1.131	1.100	0.993	0.999	1.025	1.088	1.020	1.136	1.005
440.0	107.8	115.3	171.8	228.0	257.6	288.6	303.4	297.5	276.8	254.5	241.0	235.5	216.4	199.5	182.2	170.8	160.0	153.3	146.4	138.7	134.5	129.7	126.5	122.0	117.7	111.0	104.9	97.18	89.74	83.83	74.35	71.57	78.37	62.94	35.82	26.10	20.49	15.98	12.05	10.05	13.92	29.58	76.23	433.4	745.2	142.3	2.342	0.790	0.631	0.665	0.719	0.899	1.051	1.067	1.102	1.145	1.408	1.347	1.291	1.313	1.222	1.293	1.309	1.208	1.060	1.076	1.073	1.019	0.977	1.071	1.016	0.942	0.877	0.943	0.931	0.996	1.082
445.0	148.2	111.0	163.4	211.7	246.3	272.6	290.9	286.6	264.0	251.4	237.4	222.6	204.4	190.7	172.1	163.0	151.4	146.1	140.2	133.5	127.9	124.4	120.2	116.1	112.9	106.9	100.3	95.11	89.41	82.21	74.62	66.31	66.85	70.34	45.63	28.24	21.76	16.96	13.08	9.896	8.459	10.78	20.33	122.3	587.5	635.1	21.99	1.275	0.748	0.698	0.672	0.928	0.959	1.089	1.151	1.163	1.308	1.331	1.277	1.197	1.252	1.279	1.333	1.160	1.157	1.150	1.021	1.108	0.975	1.024	0.871	0.972	0.936	0.974	0.860	0.951	0.931
450.0	140.8	156.1	154.9	194.4	232.3	250.5	275.4	272.0	251.5	236.7	225.4	212.3	192.6	179.5	161.1	148.8	139.3	133.9	127.8	122.5	118.9	115.3	111.0	107.6	106.0	100.9	96.14	90.63	86.92	80.76	73.87	64.96	57.28	58.54	56.47	37.91	23.88	18.29	14.49	10.64	8.417	7.226	8.213	30.40	159.2	454.2	552.5	102.7	6.377	0.875	0.738	0.925	0.930	1.022	1.034	1.064	1.209	1.242	1.258	1.200	1.241	1.254	1.179	1.100	1.048	0.988	0.995	1.010	0.941	0.905	0.822	0.907	0.891	0.938	0.865	0.854	0.868
455.0	96.85	216.4	175.0	182.3	205.4	228.7	257.8	254.3	234.7	216.6	209.4	194.0	181.6	163.5	149.1	133.0	125.1	120.8	116.8	112.2	107.6	104.6	102.8	100.7	96.47	93.97	89.44	87.15	81.31	77.43	71.25	63.83	53.27	47.19	49.71	49.22	30.57	20.12	15.70	11.87	9.276	7.284	6.301	10.24	38.22	105.9	272.5	619.4	157.7	6.914	0.878	0.966	0.973	0.952	1.033	0.966	1.128	1.131	1.135	1.083	1.093	1.058	1.045	1.078	0.915	0.992	0.861	0.833	0.885	0.826	0.856	0.801	0.776	0.826	0.773	0.755	0.800
460.0	71.23	222.1	224.6	172.8	197.2	216.2	236.7	235.1	223.7	208.1	196.0	183.5	170.1	151.6	138.6	123.7	116.3	111.3	108.6	101.5	100.3	96.69	96.07	93.16	90.68	88.21	84.50	82.74	77.76	76.11	68.95	61.79	51.89	44.57	41.59	47.87	39.21	22.68	16.52	12.83	10.27	7.668	6.397	5.964	11.70	26.17	68.35	366.0	608.1	112.3	2.421	0.963	0.918	0.954	0.934	0.900	1.061	1.133	1.151	1.046	0.984	1.010	0.988	0.964	0.842	0.955	0.756	0.796	0.818	0.742	0.769	0.806	0.733	0.805	0.697	0.674	0.791
465.0	53.47	170.0	306.9	183.8	189.5	205.2	222.3	223.3	209.2	197.9	185.0	172.1	158.9	146.6	132.6	116.6	106.6	104.8	98.80	94.91	92.79	88.67	88.72	86.62	85.94	82.93	79.87	78.44	73.86	73.41	66.09	59.44	51.19	42.83	37.65	39.38	42.81	27.93	17.52	13.46	10.67	8.343	6.870	5.637	5.887	8.479	17.60	100.4	478.9	500.0	18.11	1.310	0.998	0.910	0.924	0.963	1.116	1.089	1.000	1.132	0.896	0.994	0.935	0.971	0.797	0.949	0.831	0.812	0.801	0.682	0.772	0.690	0.711	0.719	0.553	0.733	0.759
470.0	45.51	98.75	315.3	323.2	174.8	188.3	202.8	205.8	192.9	182.1	171.1	160.3	146.5	131.7	119.9	106.1	98.69	93.13	87.88	86.03	83.60	80.17	79.23	78.03	77.20	74.82	72.51	71.49	69.48	67.29	62.19	55.62	48.19	41.24	35.59	32.11	34.88	34.01	22.37	14.69	11.24	8.973	7.476	6.028	5.263	4.859	6.404	24.60	130.6	358.0	411.5	91.28	6.101	1.032	0.951	0.919	1.028	1.026	0.941	0.987	0.832	0.925	0.904	0.910	0.826	0.767	0.709	0.781	0.757	0.710	0.710	0.662	0.755	0.661	0.528	0.610	0.607
475.0	42.74	69.55	195.3	501.3	235.9	166.3	183.7	189.4	176.8	163.6	157.4	145.5	131.0	118.8	106.1	94.98	87.52	82.66	79.88	76.68	73.81	70.84	70.18	69.86	68.11	67.95	64.96	64.89	63.33	62.50	57.06	52.17	44.79	38.73	33.10	29.49	27.50	29.37	29.15	19.06	12.03	9.519	7.961	6.716	5.331	4.768	4.243	7.741	31.17	83.01	191.2	452.4	139.8	5.630	0.911	0.944	0.928	0.960	0.887	0.866	0.777	0.780	0.856	0.828	0.756	0.715	0.618	0.719	0.704	0.569	0.717	0.599	0.633	0.607	0.518	0.517	0.512
480.0	47.54	63.26	119.8	485.0	380.4	163.6	167.3	171.8	166.3	153.4	148.8	134.4	121.8	110.4	97.56	88.46	79.78	74.50	72.93	70.00	67.07	65.35	64.31	63.48	63.88	61.47	61.29	60.52	59.99	58.37	53.96	49.29	43.30	37.75	31.68	28.07	24.61	24.03	28.66	23.79	13.79	9.620	8.199	6.960	5.881	4.730	4.061	4.413	8.924	20.16	47.83	248.4	442.8	23.51	2.342	0.950	0.931	0.861	0.797	0.815	0.795	0.805	0.791	0.753	0.675	0.692	0.664	0.604	0.597	0.578	0.565	0.635	0.559	0.521	0.501	0.491	0.511
485.0	44.07	57.82	90.69	327.0	529.6	195.5	158.4	161.5	152.9	145.8	141.0	129.2	116.0	102.6	91.79	81.65	75.22	69.99	67.34	64.73	62.82	60.76	60.18	59.20	59.40	57.32	56.45	55.99	55.85	54.21	50.47	46.69	41.16	35.93	30.43	26.50	23.23	21.09	23.14	26.19	17.77	10.41	8.754	7.286	6.248	4.816	4.354	3.801	4.166	6.315	12.42	65.96	336.1	388.8	21.00	1.258	0.968	0.810	0.818	0.826	0.809	0.788	0.725	0.649	0.681	0.697	0.626	0.579	0.584	0.558	0.622	0.503	0.569	0.451	0.480	0.492	0.417
490.0	39.94	65.32	77.68	161.8	490.6	369.9	156.3	145.6	142.5	136.3	130.7	118.0	104.4	95.42	84.10	73.64	67.08	63.43	60.86	58.04	56.01	54.22	53.96	53.73	53.26	52.59	51.67	51.12	50.33	49.76	47.34	42.85	37.89	33.22	29.15	24.91	22.32	19.89	18.48	21.26	21.09	14.24	9.340	7.517	6.465	5.282	4.568	3.952	3.269	3.380	4.530	16.38	89.40	259.9	281.3	92.83	5.806	0.824	0.800	0.797	0.750	0.718	0.689	0.652	0.612	0.591	0.491	0.593	0.578	0.583	0.533	0.473	0.471	0.476	0.435	0.431	0.407
495.0	31.28	65.95	73.53	103.4	260.9	548.8	238.0	132.0	127.6	120.5	115.0	107.6	94.67	85.82	76.25	66.00	60.59	56.74	53.57	51.55	50.04	48.87	47.24	47.38	46.49	46.30	45.63	45.37	45.47	45.04	42.46	38.01	34.41	30.43	27.41	23.62	21.29	18.55	16.91	16.33	18.16	18.58	11.71	7.961	6.407	5.551	4.716	4.078	3.585	2.765	2.818	5.348	21.31	60.51	169.8	426.6	142.6	4.775	0.907	0.827	0.670	0.591	0.674	0.654	0.599	0.563	0.508	0.494	0.500	0.456	0.447	0.482	0.437	0.445	0.451	0.370	0.397
500.0	26.80	59.15	76.72	82.04	139.4	473.9	375.3	125.9	113.9	110.0	106.8	98.93	86.94	77.51	68.80	59.48	54.23	50.76	48.20	46.16	44.38	44.85	43.29	42.85	42.63	41.92	42.13	40.35	41.41	40.93	38.02	35.23	32.35	28.45	25.21	22.22	19.81	17.48	15.73	14.15	14.58	18.09	15.28	9.027	6.602	5.353	5.051	4.197	3.577	3.060	2.643	2.852	6.278	14.98	43.40	239.5	420.0	25.56	2.043	0.850	0.702	0.598	0.597	0.546	0.489	0.463	0.473	0.479	0.440	0.380	0.486	0.397	0.429	0.381	0.416	0.316	0.353
505.0	22.59	46.77	77.45	76.79	95.83	297.2	551.1	172.4	105.9	100.7	96.88	92.13	83.03	72.69	61.93	54.56	48.60	45.48	42.61	41.82	40.68	39.99	39.43	39.43	38.10	38.27	38.13	37.94	37.86	36.97	34.84	32.50	29.14	26.61	23.01	20.47	18.61	16.50	14.85	13.20	12.05	14.31	16.02	11.33	6.892	5.582	5.001	4.378	3.478	3.129	2.542	2.449	3.009	4.771	11.04	64.04	309.8	344.2	21.87	1.001	0.653	0.629	0.574	0.520	0.475	0.416	0.446	0.446	0.391	0.401	0.496	0.381	0.345	0.301	0.401	0.342	0.327
510.0	22.46	34.74	73.08	79.17	77.09	142.6	445.9	374.2	111.7	88.97	86.35	80.38	72.21	62.80	54.86	48.10	42.83	40.29	37.97	36.97	35.94	34.69	33.85	33.92	33.51	32.92	33.01	33.42	33.00	32.36	30.74	28.47	25.93	23.39	20.53	18.69	16.94	14.98	13.47	11.99	11.06	10.85	13.20	13.32	8.836	5.910	4.842	4.268	3.608	3.130	2.674	2.401	2.267	2.465	3.758	15.58	82.18	229.5	245.8	91.66	5.244	0.657	0.540	0.453	0.460	0.452	0.407	0.386	0.426	0.342	0.413	0.347	0.307	0.291	0.317	0.279	0.300
515.0	17.60	29.38	55.44	85.41	72.73	84.94	203.9	503.6	213.0	80.75	77.96	68.49	60.68	55.16	47.61	39.81	37.40	34.87	33.15	31.24	30.57	29.08	28.51	29.22	28.96	27.99	28.64	28.09	28.62	28.13	27.36	25.12	22.47	20.46	18.47	16.57	15.05	13.55	12.13	11.19	9.958	9.149	9.161	11.36	11.46	7.298	4.902	4.197	3.486	3.118	2.690	2.537	2.229	1.932	2.194	4.749	19.47	53.00	126.6	318.7	124.1	3.616	0.596	0.540	0.414	0.394	0.402	0.324	0.312	0.359	0.373	0.284	0.335	0.315	0.198	0.267	0.247
520.0	16.70	27.18	46.61	78.05	71.72	69.14	106.4	398.8	382.3	81.68	69.38	62.34	56.31	48.43	43.58	36.83	33.51	30.61	29.18	28.28	26.99	26.45	26.02	25.72	26.07	25.27	25.43	24.80	25.71	25.08	24.34	22.56	20.30	18.35	16.93	15.10	13.90	12.49	11.12	10.00	9.213	8.218	7.876	8.641	11.43	9.261	5.342	4.198	3.346	3.119	2.651	2.492	2.318	1.970	1.776	2.233	5.408	12.78	31.75	178.7	315.1	25.11	1.241	0.439	0.393	0.362	0.401	0.289	0.297	0.311	0.301	0.276	0.262	0.239	0.178	0.214	0.211
525.0	15.25	25.36	37.34	66.15	77.36	60.92	72.38	227.1	498.4	147.4	61.87	56.43	51.51	44.33	38.94	32.75	30.08	28.20	26.02	25.25	24.55	23.82	23.22	23.38	22.50	23.20	23.15	22.62	22.88	22.55	21.88	21.03	18.36	16.34	14.96	14.03	12.60	11.68	10.62	9.325	8.352	7.520	7.059	6.900	8.912	10.14	6.499	4.450	3.248	3.080	2.528	2.380	2.273	2.068	1.734	1.687	2.245	3.753	7.984	47.75	227.6	199.9	19.74	0.587	0.369	0.348	0.334	0.344	0.290	0.248	0.286	0.294	0.208	0.239	0.188	0.184	0.224
530.0	12.48	22.57	30.76	48.73	75.85	61.97	56.42	103.4	358.0	332.9	76.46	49.35	43.87	39.41	33.73	28.91	26.26	23.89	22.43	21.85	20.88	20.50	19.78	19.93	19.70	19.71	19.66	19.24	20.01	19.94	18.74	17.70	16.21	14.45	12.96	12.31	11.06	10.36	9.419	8.475	7.697	6.890	6.137	5.922	6.249	8.102	8.058	5.415	3.354	2.826	2.519	2.205	2.086	1.967	1.687	1.469	1.611	1.749	2.651	11.42	59.67	153.5	194.3	73.59	3.560	0.401	0.309	0.278	0.269	0.212	0.246	0.248	0.220	0.188	0.159	0.171	0.206
535.0	10.11	20.67	25.64	32.85	61.12	68.62	50.46	59.67	149.1	424.6	190.2	44.12	37.95	34.06	30.04	24.39	21.99	21.04	19.36	19.64	17.46	17.59	17.56	17.16	16.60	16.99	16.26	17.04	17.10	16.67	16.00	15.11	13.98	12.71	11.36	10.63	9.497	9.101	7.969	7.306	6.666	5.882	5.714	4.938	4.606	5.241	7.147	6.867	4.087	2.866	2.311	2.077	1.990	1.605	1.699	1.561	1.475	1.344	1.302	3.263	13.93	35.38	91.98	230.2	26.20	2.654	0.316	0.267	0.233	0.275	0.196	0.182	0.203	0.169	0.201	0.174	0.152
540.0	7.651	15.48	23.30	28.71	44.11	69.20	52.28	47.93	69.91	307.6	378.5	57.67	34.07	30.57	27.26	22.37	19.86	17.85	17.16	17.40	16.09	15.69	14.97	14.45	14.74	14.47	14.86	14.96	14.74	14.85	14.00	13.51	12.51	11.24	10.26	9.622	8.689	8.168	7.298	6.773	6.348	5.332	5.164	4.539	4.231	4.179	5.196	6.727	5.074	2.841	2.411	1.937	1.774	1.597	1.528	1.632	1.333	1.215	1.057	1.400	3.621	8.483	22.67	127.2	202.0	23.86	0.882	0.270	0.234	0.247	0.177	0.153	0.197	0.118	0.171	0.145	0.120
545.0	10.14	15.33	20.67	25.63	35.05	60.97	54.82	42.55	46.20	159.4	438.3	134.8	29.81	27.03	23.67	19.99	17.49	15.90	15.28	15.58	13.95	14.18	12.85	13.41	13.53	13.13	13.41	13.51	12.77	13.40	12.88	11.96	11.37	10.11	9.056	8.613	7.746	7.050	6.716	6.094	5.539	4.861	4.658	4.133	3.940	3.763	3.764	5.374	5.430	3.619	2.262	1.746	1.683	1.465	1.338	1.400	1.397	1.009	0.884	0.914	1.379	2.416	5.541	33.83	153.4	177.3	17.78	0.389	0.231	0.198	0.239	0.189	0.142	0.141	0.180	0.166	0.128
550.0	8.444	12.25	18.38	22.62	27.91	42.90	56.81	40.65	34.49	66.25	268.4	302.2	54.74	23.52	20.76	17.32	15.26	13.72	13.38	12.72	12.03	11.89	11.40	11.41	11.43	11.00	11.29	11.52	11.37	11.59	11.04	10.48	9.378	8.736	7.943	7.522	6.786	6.483	5.931	5.354	4.805	4.534	4.072	3.768	3.545	3.311	3.084	3.484	4.549	4.558	2.888	1.809	1.534	1.429	1.280	1.311	1.247	1.126	0.916	0.755	0.813	0.985	1.650	7.979	40.25	117.7	147.0	54.94	2.530	0.267	0.201	0.146	0.139	0.139	0.143	0.125	0.090
555.0	7.430	11.91	15.57	18.26	22.25	29.84	47.02	45.33	30.07	37.91	99.52	287.0	147.9	21.09	17.28	13.98	13.18	11.56	10.90	10.39	10.15	9.659	9.614	9.407	9.175	9.129	9.458	9.213	9.110	9.106	9.092	8.604	7.988	7.530	6.507	6.215	5.530	5.227	4.877	4.621	4.046	3.830	3.350	3.272	2.953	2.711	2.648	2.580	2.985	3.964	3.684	2.294	1.369	1.311	1.146	1.055	1.095	0.927	1.008	0.753	0.652	0.655	0.727	2.188	9.345	26.89	68.00	162.6	26.34	1.654	0.226	0.122	0.157	0.139	0.118	0.085	0.081
560.0	6.672	11.42	11.11	16.33	18.57	21.02	36.67	47.05	28.36	28.41	42.14	179.7	278.6	40.04	14.62	11.92	10.56	10.15	9.432	9.177	8.829	8.107	7.954	8.179	8.252	8.050	7.973	7.851	7.925	7.995	7.701	7.256	6.646	6.100	5.502	5.119	4.895	4.521	4.291	4.026	3.613	3.270	2.997	2.812	2.763	2.537	2.201	2.115	2.174	2.799	3.523	2.860	1.546	1.250	1.127	0.988	0.873	0.814	0.877	0.788	0.600	0.490	0.512	0.830	2.460	6.311	16.73	87.99	145.6	21.72	0.504	0.144	0.116	0.119	0.098	0.091	0.093
565.0	6.940	11.09	9.927	14.36	16.19	18.00	26.37	44.22	31.99	23.59	27.90	82.36	279.8	111.5	12.99	10.61	9.450	8.730	8.114	8.026	7.400	7.033	6.881	7.461	6.826	6.750	6.747	6.719	6.971	6.582	6.393	6.133	5.944	5.196	4.775	4.399	4.165	3.861	3.789	3.354	3.182	2.884	2.643	2.395	2.362	2.098	1.878	1.789	1.769	1.881	2.828	2.972	1.730	1.075	0.890	0.797	0.760	0.681	0.642	0.762	0.621	0.483	0.430	0.455	0.810	1.642	4.035	22.83	103.1	117.6	15.10	0.228	0.123	0.124	0.068	0.068	0.043
570.0	5.439	9.747	9.297	12.22	12.44	14.18	17.53	31.09	35.83	21.04	21.25	33.25	151.9	224.7	42.18	8.451	7.503	6.963	6.423	6.317	5.997	5.756	5.665	5.627	5.414	5.344	5.120	5.089	5.439	5.323	5.083	4.848	4.636	4.307	3.926	3.714	3.341	3.051	2.939	2.653	2.615	2.345	2.181	1.918	1.902	1.712	1.571	1.439	1.341	1.295	1.719	2.348	2.063	1.260	0.787	0.702	0.691	0.616	0.562	0.638	0.543	0.527	0.394	0.321	0.428	0.606	1.098	5.322	26.61	73.80	88.87	17.47	1.458	0.106	0.076	0.053	0.058
575.0	5.747	6.443	9.903	10.55	10.70	13.08	13.84	20.10	34.07	26.23	17.15	19.11	50.82	180.6	153.2	8.338	5.605	5.393	4.548	4.383	4.527	4.120	4.223	4.293	3.793	4.080	3.975	3.822	4.125	4.012	3.897	3.610	3.477	3.361	2.879	2.858	2.552	2.495	2.206	2.017	1.838	1.916	1.628	1.448	1.485	1.419	1.244	1.012	0.975	0.937	0.980	1.217	1.809	1.540	0.864	0.602	0.525	0.477	0.466	0.496	0.441	0.561	0.453	0.267	0.283	0.344	0.406	1.362	6.129	16.79	38.53	87.32	23.98	0.965	0.123	0.047	0.061
580.0	4.694	5.983	6.167	8.559	9.470	11.18	11.79	14.68	26.77	30.99	16.91	16.02	21.57	101.3	215.9	31.89	4.774	4.328	4.198	3.603	3.756	3.311	3.533	3.388	3.287	3.379	3.200	3.245	3.203	3.186	3.271	3.227	2.809	2.889	2.401	2.265	2.082	1.938	1.758	1.467	1.577	1.508	1.300	1.320	1.250	1.116	1.021	0.854	0.831	0.828	0.795	0.797	1.228	1.583	1.028	0.655	0.475	0.410	0.438	0.407	0.326	0.459	0.437	0.304	0.222	0.258	0.269	0.481	1.557	3.886	9.369	46.78	79.59	17.78	0.418	0.075	0.045
585.0	2.462	6.605	6.621	6.801	8.073	9.134	10.13	10.76	20.23	32.54	17.48	13.79	13.33	43.05	185.0	86.63	4.330	3.708	3.337	2.990	3.133	2.739	2.722	2.796	2.801	2.592	2.724	2.781	2.750	2.685	2.534	2.706	2.360	2.197	2.078	1.883	1.621	1.659	1.382	1.352	1.285	1.202	1.099	1.053	1.028	0.866	0.849	0.754	0.674	0.723	0.626	0.671	0.829	1.222	1.223	0.783	0.534	0.365	0.293	0.312	0.287	0.312	0.377	0.323	0.196	0.195	0.199	0.263	0.496	1.008	2.246	12.16	54.23	65.13	9.688	0.121	0.054
590.0	5.692	7.493	6.620	5.497	6.254	7.049	8.284	9.031	13.11	27.42	23.49	13.47	11.14	16.54	88.15	167.0	33.04	3.149	2.699	2.438	2.398	2.256	2.327	2.080	2.158	2.094	2.195	2.116	2.132	2.295	1.976	1.986	1.860	1.675	1.639	1.505	1.325	1.227	1.093	1.130	0.979	0.952	0.891	0.806	0.835	0.707	0.618	0.616	0.573	0.561	0.515	0.446	0.497	0.716	1.021	0.949	0.535	0.308	0.281	0.248	0.250	0.276	0.248	0.306	0.278	0.237	0.191	0.169	0.235	0.351	0.616	2.838	13.92	39.10	38.92	14.97	0.893
595.0	4.212	6.126	4.904	5.466	6.072	7.087	7.554	9.167	9.347	18.37	28.04	15.49	9.816	9.365	25.82	118.3	124.0	4.453	2.256	1.972	1.663	1.832	1.776	1.699	1.809	1.530	1.647	1.717	1.680	1.851	1.586	1.559	1.371	1.354	1.216	1.178	1.084	0.971	0.939	0.819	0.707	0.765	0.691	0.667	0.669	0.556	0.538	0.547	0.481	0.403	0.406	0.354	0.363	0.387	0.609	0.830	0.613	0.465	0.257	0.258	0.227	0.177	0.146	0.219	0.256	0.283	0.152	0.175	0.161	0.157	0.245	0.672	3.180	8.895	18.96	48.35	20.17
600.0	2.716	3.865	4.996	4.970	4.706	5.508	6.414	7.028	8.699	13.17	25.41	20.21	9.655	7.451	9.989	58.58	164.0	27.33	1.903	1.796	1.519	1.586	1.531	1.489	1.435	1.432	1.500	1.347	1.418	1.267	1.310	1.200	1.197	1.091	0.995	0.978	0.865	0.763	0.741	0.696	0.582	0.594	0.640	0.585	0.493	0.553	0.497	0.433	0.401	0.346	0.369	0.331	0.268	0.285	0.343	0.629	0.695	0.473	0.343	0.186	0.142	0.134	0.145	0.155	0.191	0.256	0.180	0.163	0.111	0.112	0.102	0.234	0.796	2.070	4.605	25.39	46.27
605.0	4.279	4.421	4.471	4.266	4.887	4.828	5.212	6.871	8.346	11.19	20.31	23.26	10.23	6.948	6.203	21.86	130.5	71.19	2.243	1.614	1.584	1.246	1.296	1.322	1.191	1.295	1.242	1.032	1.321	1.172	1.020	1.123	1.007	0.985	0.795	0.881	0.730	0.613	0.584	0.606	0.519	0.507	0.539	0.482	0.473	0.423	0.418	0.371	0.382	0.307	0.301	0.306	0.238	0.264	0.254	0.433	0.632	0.541	0.362	0.168	0.187	0.129	0.172	0.133	0.154	0.212	0.253	0.192	0.138	0.083	0.119	0.104	0.224	0.522	1.079	6.618	29.80
610.0	3.621	3.284	5.278	4.753	4.415	5.421	5.239	5.936	7.585	9.411	14.12	23.14	14.43	7.199	5.141	7.684	55.94	126.7	28.38	1.412	1.200	1.036	1.040	1.068	1.037	1.012	0.980	0.942	0.976	0.870	0.911	0.839	0.789	0.675	0.681	0.670	0.595	0.528	0.499	0.508	0.417	0.461	0.440	0.353	0.368	0.329	0.313	0.318	0.262	0.259	0.212	0.244	0.209	0.199	0.174	0.251	0.404	0.537	0.451	0.259	0.163	0.140	0.157	0.098	0.108	0.167	0.191	0.220	0.112	0.073	0.089	0.086	0.092	0.181	0.293	1.527	7.588
615.0	2.054	2.951	5.600	4.568	4.400	4.364	5.060	5.109	7.051	8.385	10.96	17.69	17.92	7.542	4.486	4.160	15.63	80.09	102.4	3.462	0.984	0.933	0.835	0.816	0.780	0.842	0.686	0.787	0.765	0.654	0.708	0.662	0.582	0.604	0.591	0.597	0.547	0.519	0.374	0.397	0.369	0.343	0.316	0.260	0.304	0.238	0.220	0.232	0.204	0.220	0.180	0.155	0.173	0.177	0.121	0.163	0.187	0.322	0.447	0.283	0.200	0.113	0.143	0.086	0.098	0.091	0.106	0.173	0.169	0.093	0.067	0.077	0.067	0.091	0.113	0.368	1.725
620.0	2.678	4.287	4.472	4.618	3.851	4.850	4.987	5.600	6.528	7.725	9.281	13.12	19.83	9.612	4.718	3.736	5.541	36.02	128.5	26.64	0.855	0.752	0.674	0.727	0.796	0.690	0.570	0.608	0.578	0.551	0.620	0.580	0.518	0.434	0.440	0.427	0.370	0.337	0.262	0.293	0.372	0.269	0.273	0.205	0.311	0.180	0.211	0.163	0.174	0.205	0.164	0.146	0.137	0.133	0.146	0.113	0.097	0.169	0.359	0.378	0.214	0.125	0.110	0.113	0.091	0.084	0.102	0.115	0.190	0.150	0.094	0.059	0.046	0.056	0.062	0.126	0.445
625.0	1.900	4.383	3.715	5.197	4.331	4.115	4.880	5.863	6.239	7.768	8.925	11.05	17.38	12.66	4.963	3.484	3.588	12.95	93.92	62.81	1.140	0.717	0.574	0.661	0.661	0.551	0.520	0.588	0.502	0.469	0.450	0.478	0.453	0.350	0.346	0.404	0.319	0.268	0.272	0.269	0.310	0.229	0.248	0.189	0.277	0.187	0.193	0.167	0.196	0.131	0.137	0.110	0.103	0.111	0.111	0.124	0.084	0.123	0.246	0.316	0.227	0.144	0.092	0.112	0.084	0.094	0.085	0.064	0.124	0.153	0.106	0.059	0.050	0.072	0.035	0.052	0.106
630.0	2.171	4.644	3.659	3.993	3.399	3.720	4.791	5.228	6.160	7.162	8.317	9.733	13.30	15.95	6.159	3.721	3.062	4.826	37.06	101.4	24.14	0.721	0.555	0.522	0.472	0.422	0.450	0.469	0.468	0.516	0.385	0.414	0.351	0.318	0.303	0.327	0.283	0.252	0.227	0.188	0.267	0.184	0.191	0.198	0.200	0.163	0.146	0.137	0.151	0.129	0.108	0.098	0.085	0.107	0.078	0.121	0.084	0.104	0.142	0.220	0.230	0.152	0.095	0.096	0.080	0.079	0.096	0.058	0.082	0.112	0.142	0.074	0.046	0.046	0.020	0.021	0.048
635.0	2.500	3.858	4.016	3.741	3.648	3.630	4.893	5.008	6.262	7.764	8.626	9.236	10.15	14.38	10.78	4.308	3.160	3.179	10.24	55.63	86.52	2.792	0.540	0.580	0.428	0.358	0.421	0.376	0.442	0.407	0.329	0.276	0.349	0.246	0.280	0.261	0.192	0.187	0.191	0.135	0.191	0.156	0.134	0.148	0.170	0.146	0.122	0.118	0.144	0.104	0.079	0.075	0.085	0.085	0.051	0.074	0.060	0.089	0.100	0.127	0.175	0.165	0.143	0.073	0.079	0.072	0.082	0.042	0.075	0.078	0.079	0.134	0.097	0.051	0.011	0.004	0.037
640.0	3.021	4.443	5.202	3.224	4.255	4.017	5.099	4.609	6.049	7.047	7.917	8.586	9.433	12.30	13.29	5.079	3.354	2.705	3.983	23.20	102.9	20.90	0.473	0.409	0.346	0.330	0.374	0.297	0.301	0.279	0.282	0.233	0.279	0.205	0.225	0.206	0.210	0.160	0.167	0.156	0.171	0.201	0.108	0.110	0.137	0.098	0.118	0.112	0.125	0.116	0.064	0.110	0.076	0.051	0.084	0.086	0.060	0.085	0.069	0.099	0.125	0.152	0.173	0.084	0.060	0.092	0.086	0.087	0.102	0.066	0.040	0.145	0.109	0.062	0.031	0.052	0.024
645.0	3.294	5.108	5.633	4.347	3.991	4.120	4.410	5.339	6.564	7.447	8.503	9.233	9.209	10.21	14.02	6.833	3.672	2.683	2.452	7.523	71.43	53.70	0.821	0.409	0.327	0.374	0.242	0.322	0.282	0.248	0.266	0.225	0.238	0.199	0.252	0.222	0.153	0.105	0.207	0.183	0.144	0.127	0.122	0.084	0.133	0.105	0.096	0.085	0.103	0.098	0.073	0.068	0.076	0.064	0.092	0.068	0.080	0.047	0.075	0.077	0.075	0.137	0.146	0.069	0.061	0.067	0.084	0.085	0.071	0.044	0.072	0.097	0.114	0.089	0.067	0.038	0.027
650.0	3.822	5.222	5.233	5.042	3.504	3.548	3.932	5.243	6.228	7.434	8.416	9.027	9.232	9.356	12.39	8.738	3.797	2.814	2.262	2.930	32.96	90.75	7.688	0.362	0.272	0.301	0.306	0.215	0.249	0.258	0.222	0.257	0.232	0.178	0.208	0.170	0.176	0.125	0.163	0.112	0.128	0.104	0.117	0.111	0.099	0.109	0.089	0.115	0.101	0.092	0.078	0.064	0.092	0.057	0.064	0.081	0.086	0.041	0.076	0.081	0.070	0.118	0.153	0.141	0.072	0.061	0.055	0.056	0.080	0.074	0.089	0.069	0.079	0.128	0.074	0.037	0.062
