Sample:	'1
File name:	T2025031407入孝妇河支流2倍.FD3
Run date:	'10:16:28, 03/17/2025
Operator:	Administrator
Comment:	'

Instrument
Model:	F-2700 FL Spectrophotometer
Serial number:	23B8-004
ROM Version:	4J14000 07

Instrument parameters
Measurement type:	3-D scan
Data mode:	Fluorescence
EX  Start WL:	220.0 nm
EX  End WL:	600.0 nm
EX Sampling interval:	5.0 nm
EM  Start WL:	230.0 nm
EM  End WL:	650.0 nm
EM Sampling interval:	5.0 nm
Scan speed:	12000 nm/min
EX Slit:	5.0 nm
EM Slit:	5.0 nm
PMT Voltage:	700 V
Response:	Auto 
Corrected spectra:	Off
Contour interval:	50.000

Peak integration
Integration method:	Rectangular
Sensitivity:	1
Threshold:	1.000

Peaks
No.	ApexEX/EM(nm)	Height(Data)
1	225.0/570.0	44.04
2	225.0/635.0	107.9
3	230.0/640.0	117.4
4	235.0/340.0	5607
5	240.0/265.0	378.1
6	240.0/525.0	268.5
7	245.0/535.0	222.5
8	250.0/445.0	974.1
9	250.0/545.0	172.9
10	255.0/280.0	585.9
11	255.0/560.0	134.6
12	260.0/285.0	550.3
13	260.0/575.0	107.5
14	265.0/585.0	99.10
15	275.0/320.0	4545
16	275.0/615.0	248.6
17	280.0/380.0	1370
18	280.0/625.0	231.3
19	330.0/375.0	430.0
20	335.0/380.0	467.5
21	335.0/405.0	445.9
22	350.0/400.0	510.6
23	355.0/385.0	401.1
24	355.0/405.0	534.0
25	370.0/405.0	410.2
26	370.0/425.0	337.4
27	415.0/485.0	38.43
28	425.0/500.0	26.28
29	430.0/505.0	24.09
30	445.0/525.0	14.34
31	460.0/545.0	7.988
32	475.0/340.0	17.98
33	505.0/275.0	3.018
34	510.0/445.0	4.294
35	515.0/280.0	3.247
36	520.0/285.0	3.698
37	560.0/320.0	21.99
38	570.0/315.0	22.01

Data points
	220.0	225.0	230.0	235.0	240.0	245.0	250.0	255.0	260.0	265.0	270.0	275.0	280.0	285.0	290.0	295.0	300.0	305.0	310.0	315.0	320.0	325.0	330.0	335.0	340.0	345.0	350.0	355.0	360.0	365.0	370.0	375.0	380.0	385.0	390.0	395.0	400.0	405.0	410.0	415.0	420.0	425.0	430.0	435.0	440.0	445.0	450.0	455.0	460.0	465.0	470.0	475.0	480.0	485.0	490.0	495.0	500.0	505.0	510.0	515.0	520.0	525.0	530.0	535.0	540.0	545.0	550.0	555.0	560.0	565.0	570.0	575.0	580.0	585.0	590.0	595.0	600.0
230.0	41.09	910.2	2292	653.1	31.41	5.947	4.551	3.893	3.528	3.149	3.057	3.302	3.000	2.291	2.316	1.666	1.383	1.381	1.092	1.073	0.836	0.691	0.642	0.617	0.467	0.502	0.484	0.457	0.422	0.413	0.486	0.414	0.407	0.351	0.272	0.313	0.261	0.269	0.234	0.206	0.241	0.294	0.328	0.227	0.197	0.187	0.671	3.862	7.616	5.785	2.464	0.472	0.152	0.141	0.136	0.135	0.134	0.150	0.125	0.125	0.116	0.116	0.107	0.125	0.110	0.126	0.107	0.121	0.125	0.136	0.108	0.125	0.097	0.106	0.101	0.093	0.089
235.0	90.96	258.4	1456	2464	558.2	64.29	5.987	4.530	4.182	3.884	3.095	3.660	3.033	2.586	2.463	1.896	1.631	1.251	1.354	1.061	0.920	0.606	0.537	0.668	0.437	0.591	0.456	0.382	0.464	0.413	0.420	0.507	0.435	0.328	0.341	0.275	0.298	0.218	0.241	0.186	0.214	0.235	0.290	0.412	0.442	0.276	0.325	1.118	2.887	5.010	8.178	8.936	4.252	0.964	0.200	0.134	0.139	0.142	0.132	0.146	0.146	0.108	0.109	0.109	0.114	0.141	0.115	0.099	0.148	0.124	0.092	0.115	0.123	0.094	0.126	0.089	0.119
240.0	147.3	145.4	440.0	2121	3238	458.6	30.47	5.898	4.788	4.224	3.659	3.853	3.160	3.075	2.591	2.168	1.627	1.398	1.159	1.141	0.797	0.616	0.597	0.687	0.558	0.617	0.506	0.405	0.511	0.412	0.474	0.478	0.409	0.388	0.295	0.294	0.317	0.356	0.241	0.211	0.219	0.212	0.241	0.336	0.450	0.515	0.455	0.456	0.793	1.444	4.037	10.25	13.80	10.47	4.334	0.727	0.142	0.175	0.157	0.162	0.121	0.122	0.127	0.138	0.126	0.107	0.136	0.100	0.149	0.150	0.096	0.108	0.099	0.103	0.113	0.134	0.168
245.0	97.63	198.3	165.3	725.8	3434	3753	346.0	14.69	6.408	5.214	4.452	4.937	3.603	2.845	2.690	1.915	1.725	1.656	1.167	1.164	0.842	0.775	0.635	0.566	0.588	0.569	0.551	0.434	0.599	0.491	0.500	0.408	0.442	0.358	0.323	0.291	0.291	0.342	0.278	0.223	0.224	0.250	0.211	0.236	0.274	0.550	0.599	0.554	0.463	0.484	1.091	3.234	8.685	17.03	20.81	11.55	3.107	0.350	0.164	0.159	0.134	0.133	0.142	0.135	0.120	0.131	0.127	0.122	0.103	0.130	0.091	0.112	0.098	0.095	0.100	0.109	0.122
250.0	40.81	146.0	243.6	254.7	1094	5440	4630	1301	75.64	7.383	5.345	5.426	4.251	3.523	3.328	2.354	1.873	1.530	1.229	1.341	0.888	0.834	0.782	0.704	0.637	0.603	0.584	0.562	0.546	0.536	0.518	0.451	0.410	0.350	0.327	0.263	0.310	0.293	0.289	0.257	0.275	0.265	0.230	0.233	0.230	0.279	0.382	0.670	0.873	0.791	0.594	0.983	2.170	5.164	11.56	18.22	21.36	17.01	10.76	3.879	0.471	0.157	0.156	0.136	0.140	0.150	0.134	0.112	0.121	0.142	0.131	0.145	0.114	0.100	0.113	0.117	0.122
255.0	26.74	51.96	168.7	331.2	337.6	1348	3646	8118	1756	77.87	8.744	7.268	5.748	4.030	3.674	2.853	2.036	2.006	1.370	1.304	1.151	0.929	0.704	0.598	0.587	0.631	0.672	0.654	0.679	0.684	0.565	0.536	0.455	0.323	0.349	0.314	0.369	0.352	0.296	0.233	0.268	0.262	0.249	0.251	0.205	0.276	0.219	0.310	0.442	0.737	1.233	1.279	0.908	1.367	2.787	4.397	6.965	14.32	31.61	29.63	20.02	3.802	0.326	0.195	0.159	0.164	0.155	0.131	0.119	0.174	0.148	0.103	0.120	0.093	0.136	0.109	0.155
260.0	24.72	28.15	67.22	278.8	338.9	366.0	1061	6639	8265	1305	39.80	9.589	7.189	5.299	4.269	3.441	2.053	2.031	1.538	1.518	1.084	0.894	0.713	0.710	0.640	0.589	0.676	0.580	0.647	0.530	0.598	0.482	0.472	0.338	0.389	0.392	0.376	0.401	0.254	0.263	0.303	0.249	0.343	0.290	0.199	0.258	0.240	0.227	0.245	0.338	0.729	1.534	1.646	1.101	0.917	1.221	1.742	3.713	12.05	31.23	56.61	27.97	14.69	1.928	0.222	0.191	0.169	0.156	0.160	0.154	0.162	0.116	0.131	0.144	0.120	0.114	0.157
265.0	27.05	27.27	31.09	126.9	378.1	299.5	283.0	2181	8501	7434	218.8	21.82	9.912	6.666	5.782	3.457	2.641	2.309	1.661	1.615	1.105	1.094	0.978	0.917	0.704	0.666	0.828	0.649	0.645	0.564	0.598	0.617	0.552	0.468	0.405	0.407	0.393	0.314	0.342	0.314	0.279	0.299	0.258	0.278	0.254	0.251	0.211	0.255	0.197	0.233	0.345	0.728	1.569	2.091	1.539	0.852	0.699	1.061	3.003	8.662	27.12	41.00	55.77	24.78	8.676	0.657	0.222	0.211	0.165	0.149	0.158	0.175	0.163	0.152	0.141	0.159	0.155
270.0	35.75	29.63	26.72	48.85	186.3	395.4	302.6	550.2	2582	6606	9542	3057	59.25	10.16	7.438	4.865	3.628	2.821	2.157	1.855	1.318	1.164	1.119	0.993	0.796	0.829	0.820	0.657	0.681	0.650	0.693	0.658	0.588	0.552	0.416	0.432	0.452	0.402	0.356	0.296	0.284	0.311	0.330	0.261	0.264	0.283	0.244	0.287	0.290	0.225	0.241	0.343	0.601	1.037	1.636	2.066	1.845	1.140	1.102	2.212	6.480	11.24	23.87	34.46	46.32	41.38	16.90	7.554	0.849	0.242	0.199	0.204	0.188	0.157	0.161	0.173	0.155
275.0	63.09	67.43	53.15	45.95	69.77	188.7	497.1	374.7	629.5	1598	5823	9999.9	1226	64.71	13.46	6.384	4.821	3.637	2.585	2.387	1.625	1.431	1.333	1.005	0.808	1.056	0.897	0.780	0.821	0.722	0.608	0.615	0.642	0.519	0.462	0.509	0.549	0.435	0.376	0.312	0.305	0.355	0.366	0.274	0.366	0.334	0.362	0.352	0.367	0.284	0.249	0.317	0.371	0.452	0.665	0.880	1.852	3.018	2.379	1.242	1.866	2.785	5.655	8.148	12.44	25.48	55.95	68.95	25.96	10.20	0.667	0.276	0.250	0.198	0.168	0.152	0.246
280.0	105.1	119.1	96.50	65.85	55.68	89.79	304.4	585.9	310.9	422.8	1557	8609	9999.9	932.8	40.71	9.558	6.995	4.545	3.187	2.929	1.592	1.649	1.485	1.220	0.957	1.011	0.894	0.812	0.718	0.772	0.618	0.737	0.747	0.621	0.642	0.575	0.637	0.467	0.460	0.387	0.358	0.373	0.487	0.360	0.407	0.471	0.427	0.515	0.464	0.459	0.355	0.322	0.323	0.349	0.426	0.467	0.843	1.803	3.178	3.247	1.774	1.112	1.711	2.316	3.275	6.429	17.25	39.73	59.53	74.13	21.94	4.468	0.379	0.232	0.200	0.231	0.340
285.0	152.5	187.9	153.7	98.22	60.68	66.84	137.9	481.7	550.3	227.4	449.4	2482	9999.9	8423	676.8	17.23	8.725	5.682	3.808	3.324	2.150	1.948	1.543	1.520	1.180	1.037	1.094	0.827	0.809	0.938	0.694	0.837	0.738	0.671	0.694	0.616	0.626	0.607	0.588	0.491	0.435	0.405	0.489	0.438	0.538	0.587	0.712	0.686	0.683	0.561	0.429	0.427	0.431	0.414	0.403	0.394	0.536	0.777	1.454	3.051	3.698	2.626	1.163	0.999	1.261	1.982	4.482	10.04	20.60	53.95	68.77	32.14	17.83	2.082	0.322	0.262	0.306
290.0	223.7	272.9	240.9	157.9	95.53	85.93	106.7	230.4	548.2	521.3	344.6	733.3	2825	8007	9999.9	2336	42.40	9.871	5.882	4.287	2.714	2.403	1.836	1.692	1.425	1.249	1.156	0.951	0.923	1.109	0.738	0.885	0.811	0.808	0.780	0.773	0.838	0.732	0.732	0.499	0.482	0.579	0.562	0.535	0.599	0.742	0.880	0.893	0.929	0.774	0.563	0.616	0.494	0.525	0.538	0.450	0.548	0.600	0.870	1.289	2.019	3.018	3.397	2.900	1.914	1.456	1.956	3.175	5.502	13.58	23.24	34.00	53.36	45.82	45.53	12.42	2.586
295.0	304.2	410.0	373.1	268.5	176.2	158.4	189.3	251.3	373.3	751.4	890.8	574.4	943.9	2044	6044	9999.9	3394	52.96	10.50	6.290	3.346	2.515	2.232	1.890	1.421	1.391	1.313	0.968	0.932	1.018	0.822	0.938	0.867	0.839	0.833	0.946	0.855	0.692	0.686	0.539	0.557	0.589	0.762	0.732	0.709	0.908	1.175	1.277	1.249	0.961	0.990	1.082	0.861	0.721	0.849	0.773	0.949	0.930	1.269	1.331	1.497	1.954	2.802	4.085	5.575	4.278	2.804	2.591	3.117	4.663	6.682	8.933	13.49	19.08	50.18	86.00	34.28
300.0	478.7	688.5	657.5	486.7	378.3	380.0	406.2	610.0	804.6	1147	1686	1353	1161	1188	2088	6922	9999.9	619.2	41.10	10.68	5.111	3.465	2.635	2.272	1.717	1.620	1.731	1.107	1.219	1.361	1.027	1.122	1.067	0.940	0.987	1.155	1.014	0.877	0.760	0.791	0.715	0.791	0.864	1.090	1.187	1.478	1.739	2.002	2.141	1.717	1.559	1.767	1.580	1.389	1.694	1.619	2.091	2.188	2.550	2.896	3.436	3.766	4.790	5.548	7.211	8.916	8.632	7.089	6.168	6.023	6.094	5.810	6.820	8.377	15.90	39.05	83.32
305.0	786.4	1152	1136	832.5	661.9	782.1	1025	1355	1773	2108	2984	3460	2750	2088	2017	2934	9788	9999.9	474.3	21.23	7.217	4.638	3.669	3.090	2.214	2.059	1.865	1.272	1.354	1.309	1.162	1.163	1.163	1.253	1.160	1.229	1.288	1.144	1.156	1.295	1.087	1.218	1.270	1.559	1.851	2.434	2.662	3.473	3.545	3.067	2.662	2.965	2.958	2.846	3.097	3.137	3.945	4.881	5.406	6.331	7.381	8.333	9.699	11.16	11.93	13.99	16.03	16.05	15.15	13.12	11.71	10.37	10.15	10.91	11.67	15.67	30.79
310.0	1119	1663	1762	1342	1089	1170	1518	1912	2338	2960	3630	4214	4072	3084	2531	2169	3927	7744	7626	1948	30.79	7.518	5.085	3.832	2.892	2.620	2.134	1.724	1.595	1.421	1.287	1.367	1.286	1.317	1.300	1.426	1.403	1.505	1.322	1.437	1.332	1.540	1.727	2.156	2.742	3.321	3.705	5.121	5.273	4.438	4.074	4.366	4.325	4.206	4.480	4.789	5.955	7.251	7.862	8.744	9.374	10.81	12.79	13.86	15.15	16.10	18.07	18.91	20.60	19.28	17.97	15.10	13.90	14.44	12.73	12.36	14.44
315.0	1467	2241	2379	1826	1470	1488	1849	2199	2586	3256	3914	4480	4467	3941	3058	2219	2439	2607	4358	9999.9	2448	33.84	7.700	5.084	3.505	3.093	2.642	2.259	1.847	1.806	1.568	1.457	1.346	1.297	1.388	1.487	1.535	1.522	1.567	1.600	1.640	1.907	1.912	2.451	3.231	3.961	4.955	6.732	6.944	5.837	5.208	5.877	5.379	5.526	5.181	5.990	6.893	8.684	9.215	9.919	10.49	11.77	13.51	14.92	16.55	17.61	19.20	19.96	21.24	20.64	22.01	19.80	17.87	17.16	14.95	13.41	12.59
320.0	1740	2597	2796	2132	1632	1618	1973	2307	2620	3263	3954	4545	4490	4097	3473	2331	2148	1476	1257	6981	8188	462.3	21.39	7.382	4.328	3.790	2.985	2.417	1.903	1.878	1.588	1.507	1.319	1.410	1.398	1.568	1.726	1.507	1.722	1.756	1.764	2.006	2.122	2.659	3.638	4.520	5.746	7.719	7.915	7.133	6.162	6.837	6.333	5.854	5.942	6.479	7.929	8.720	9.970	10.49	10.72	11.72	14.00	15.08	16.52	18.24	19.48	19.82	21.99	21.26	21.16	20.41	20.06	19.45	15.95	13.29	12.14
325.0	1933	2886	3297	2555	1812	1641	1926	2264	2469	3048	3699	4254	4282	3828	3464	2418	1979	1190	524.6	1935	6109	7130	363.8	13.95	5.302	4.586	3.535	2.703	2.246	2.109	1.723	1.860	1.596	1.315	1.322	1.516	1.723	1.475	1.806	1.705	1.603	2.066	2.439	2.715	3.813	5.282	6.657	8.735	9.559	8.148	7.422	7.859	7.087	6.170	6.335	6.695	7.624	8.557	9.611	9.817	9.974	11.11	12.66	14.23	15.20	16.85	18.00	19.25	20.31	19.87	20.14	19.39	18.82	19.80	17.12	13.65	11.83
330.0	2130	3542	4315	3769	2744	1936	1883	2105	2229	2732	3326	3855	3935	3542	3127	2468	1987	1135	459.5	621.0	1709	5169	5347	1518	25.13	7.008	4.564	3.317	2.663	2.534	2.083	2.094	1.647	1.404	1.472	1.506	1.708	1.478	1.770	1.673	1.693	2.114	2.570	3.140	4.308	6.163	7.819	10.58	11.86	11.01	10.80	11.76	10.48	9.068	7.970	6.827	7.482	8.232	8.995	9.202	9.636	10.32	10.85	13.00	13.59	14.73	16.30	17.57	18.47	18.37	18.39	17.87	17.22	17.22	16.33	14.76	13.25
335.0	2337	4065	5363	5352	4283	2617	1984	2041	2095	2475	3032	3550	3694	3438	3002	2370	2148	1340	611.3	464.8	629.1	1363	3195	8208	2057	30.83	6.734	4.164	3.473	3.074	2.292	2.120	2.032	1.484	1.697	1.582	1.682	1.681	1.826	1.770	1.884	2.096	2.591	3.446	4.552	6.722	8.528	12.25	14.63	14.18	14.75	17.38	16.11	14.93	11.38	8.545	7.904	8.372	8.799	9.016	8.953	9.337	9.979	11.36	12.70	13.58	14.59	16.18	17.42	16.68	17.35	17.28	16.90	16.63	15.08	13.91	13.25
340.0	2296	4051	5555	5607	4551	2717	1895	1880	1895	2202	2693	3138	3306	3134	2741	2148	1903	1420	689.9	446.6	400.4	507.6	952.7	5047	6698	400.8	18.44	5.781	4.114	3.362	2.570	2.318	2.072	1.515	1.616	1.493	1.441	1.693	1.659	1.783	1.851	2.377	2.665	3.102	4.653	6.842	8.341	12.06	14.77	14.82	15.60	17.98	17.38	15.94	11.90	8.396	7.454	7.771	8.446	8.317	8.090	8.690	9.251	10.42	11.27	12.21	13.34	14.28	15.57	15.35	15.94	15.58	15.44	14.84	14.17	12.81	11.60
345.0	2162	3788	5266	5332	4246	2496	1711	1660	1655	1925	2310	2702	2851	2720	2394	1888	1593	1266	772.1	443.0	345.7	317.9	379.4	1439	5292	6804	321.7	8.466	4.634	3.980	2.885	2.733	2.082	1.851	1.568	1.449	1.406	1.520	1.602	1.500	1.818	2.180	2.635	3.050	4.544	6.359	7.969	11.44	13.63	13.89	14.60	17.03	16.18	14.48	10.87	7.731	6.684	6.943	7.228	7.657	7.074	7.490	7.938	9.022	9.974	10.78	11.38	11.92	13.14	13.22	13.59	13.58	13.29	13.51	11.95	11.34	10.24
350.0	1953	3414	4824	5108	4261	2483	1557	1466	1451	1650	1959	2274	2415	2342	2069	1678	1394	1063	793.0	570.3	375.0	300.0	277.8	454.1	1465	4965	4853	1243	20.35	5.651	3.813	3.403	2.554	1.796	1.658	1.592	1.598	1.528	1.499	1.379	1.613	1.927	2.367	2.755	3.917	5.449	7.314	10.26	12.52	12.93	13.82	16.29	16.19	14.47	10.62	7.116	6.561	6.315	6.472	6.817	6.585	6.428	6.877	7.794	8.424	9.005	9.809	10.23	11.33	11.44	11.44	11.73	11.44	11.67	10.51	10.13	8.944
355.0	1665	2944	4213	4635	3992	2385	1449	1306	1276	1427	1666	1890	2023	1982	1778	1461	1225	935.0	679.9	628.6	477.9	317.6	268.9	249.6	391.8	1165	3079	6372	1794	24.54	5.411	4.162	3.002	2.108	1.731	1.657	1.591	1.528	1.419	1.300	1.379	1.617	2.204	2.350	3.417	4.688	6.396	8.929	10.94	11.63	12.54	15.34	15.01	13.22	10.14	6.868	6.008	5.655	5.631	5.743	5.693	5.551	6.007	6.411	7.052	7.668	8.347	8.446	9.568	9.797	9.818	10.30	10.18	9.725	9.355	8.599	8.238
360.0	1421	2545	3595	3982	3500	2120	1300	1181	1147	1257	1435	1610	1708	1681	1518	1258	1063	823.5	603.9	541.0	533.5	354.0	261.6	200.8	165.4	305.7	807.7	4218	6248	367.4	14.31	5.491	3.929	2.304	1.908	1.730	1.540	1.564	1.593	1.345	1.353	1.668	1.660	2.085	2.941	4.067	5.506	7.766	9.442	10.01	10.96	13.31	13.20	11.91	9.168	5.821	5.525	5.011	5.066	5.184	5.147	5.028	5.359	5.929	6.218	6.568	6.922	7.536	8.055	8.034	8.465	8.727	8.621	8.641	7.975	7.624	7.138
365.0	1186	2167	3085	3430	3039	1896	1185	1066	1046	1133	1275	1400	1474	1441	1314	1101	937.5	745.5	557.6	468.5	489.2	429.7	275.2	194.5	126.2	125.7	222.6	1181	5366	6311	288.5	10.79	5.240	3.005	2.077	1.683	1.697	1.488	1.528	1.288	1.284	1.472	1.714	1.954	2.573	3.692	4.692	6.724	8.300	8.541	9.603	11.57	11.37	10.91	8.062	5.399	4.897	4.598	4.775	4.601	4.642	4.751	5.005	5.213	5.517	5.784	6.475	6.687	7.030	7.130	7.320	7.551	7.372	7.078	7.080	6.526	6.492
370.0	1028	1811	2580	2964	2697	1722	1094	965.0	952.7	1026	1138	1238	1313	1264	1134	970.7	838.0	679.7	535.7	446.1	415.3	428.7	374.7	239.1	151.8	120.4	135.0	340.2	1519	5236	4835	1222	24.64	7.418	3.304	2.249	2.034	1.599	1.525	1.346	1.264	1.485	1.601	1.721	2.295	3.003	3.908	5.582	6.929	7.284	8.233	10.10	10.17	9.748	7.369	5.231	4.831	4.349	4.355	4.339	4.268	4.313	4.549	4.746	5.062	5.268	5.633	5.801	5.937	6.486	6.546	6.617	6.365	6.218	6.006	5.750	5.735
375.0	879.3	1515	2184	2564	2439	1640	1045	904.5	903.4	978.8	1117	1183	1332	1206	983.0	846.7	748.1	626.0	515.7	447.1	404.8	386.5	430.0	379.0	236.9	198.5	236.1	280.9	485.2	1346	3407	7379	1856	29.32	5.954	3.398	2.518	1.804	1.577	1.458	1.209	1.450	1.631	1.602	1.971	2.517	3.272	4.633	5.629	6.008	6.991	8.572	9.191	8.606	6.840	5.215	4.255	4.159	4.119	4.148	3.833	3.977	4.313	4.573	4.755	5.201	5.313	5.568	5.672	6.660	6.744	6.092	5.600	5.490	5.356	5.142	5.053
380.0	803.4	1351	1932	2256	2189	1557	997.7	876.7	886.5	961.9	1120	1156	1370	1182	896.0	769.5	682.3	593.2	501.3	444.0	409.6	385.6	408.7	467.5	339.4	273.1	333.5	350.8	317.6	505.2	1158	5218	6885	302.6	12.75	4.347	3.141	2.185	1.819	1.383	1.269	1.453	1.535	1.605	1.814	2.541	2.957	4.179	4.994	5.647	5.929	7.659	8.072	8.255	6.514	4.820	4.332	4.092	3.765	4.040	3.715	4.226	4.061	4.473	4.816	5.510	5.053	5.226	5.640	6.734	7.285	5.772	5.372	4.923	4.711	4.678	4.500
385.0	722.6	1191	1755	2026	2006	1475	965.8	857.3	849.0	930.9	1108	1121	1352	1137	823.0	709.8	633.6	560.4	486.8	445.4	417.5	392.0	394.1	456.6	428.1	331.4	390.5	401.1	308.4	347.0	590.3	1752	5797	4405	40.44	6.529	3.897	2.592	2.330	1.587	1.236	1.377	1.406	1.550	1.635	2.323	2.705	3.800	4.191	4.898	5.278	6.590	7.270	7.607	6.070	4.996	4.086	4.020	3.556	3.648	3.976	3.850	3.984	4.118	4.500	5.438	5.112	5.123	5.622	6.643	6.935	5.351	4.703	4.632	4.409	4.367	3.949
390.0	622.8	1034	1501	1753	1742	1340	911.5	809.2	807.1	856.4	988.4	994.5	1173	1003	747.7	650.1	589.9	528.5	471.1	436.9	411.2	386.3	384.4	401.2	407.8	385.2	382.1	367.6	278.1	272.9	390.4	631.3	1663	3699	3580	906.7	15.37	3.748	2.758	1.846	1.378	1.472	1.374	1.483	1.623	2.005	2.494	3.443	3.753	4.287	4.707	5.768	6.219	6.355	5.501	4.479	3.962	3.745	3.526	3.664	3.565	3.665	3.625	3.704	4.244	4.718	4.576	4.520	4.869	5.853	6.094	4.835	4.327	4.218	3.996	3.888	3.785
395.0	573.6	882.1	1314	1560	1561	1235	896.3	793.4	778.4	814.3	920.8	930.9	1087	917.0	694.0	608.1	549.6	508.7	464.2	438.3	417.3	401.8	400.4	402.9	386.2	408.8	450.9	395.2	294.4	275.1	357.5	387.7	474.2	896.9	2507	5270	1379	16.33	4.042	2.290	1.635	1.598	1.490	1.487	1.553	1.931	2.307	3.118	3.447	3.718	4.158	5.331	5.624	5.817	5.004	4.217	3.950	3.610	3.504	3.468	3.366	3.272	3.489	3.481	3.962	4.502	4.206	4.178	4.493	5.534	5.647	4.676	4.000	3.903	3.647	3.727	3.607
400.0	553.2	855.2	1195	1435	1462	1215	879.2	788.8	772.7	804.4	923.8	925.9	1095	900.6	669.1	583.0	538.2	500.5	466.1	442.0	428.0	417.0	421.5	429.5	401.7	410.2	510.6	466.2	335.6	315.0	393.8	373.8	230.3	251.8	674.2	3727	5149	250.4	9.704	3.083	1.967	1.776	1.525	1.535	1.715	1.723	2.321	2.849	3.335	3.605	3.742	4.987	5.038	5.269	4.936	3.903	3.935	3.724	3.649	3.551	3.307	3.418	3.510	3.708	3.749	4.183	4.003	3.870	4.358	5.466	5.458	4.282	3.747	3.744	3.421	3.464	3.434
405.0	520.8	796.6	1130	1324	1385	1167	889.4	792.3	773.7	797.5	912.9	919.6	1074	891.6	649.8	564.0	521.7	484.2	459.2	441.8	434.8	428.7	438.9	445.9	423.4	417.1	508.6	534.0	375.4	336.5	410.2	379.6	184.2	116.0	184.2	1071	4552	2244	197.2	5.070	2.361	2.106	1.806	1.544	1.567	1.773	2.125	2.915	3.126	3.504	3.628	4.634	5.027	5.194	4.882	3.969	4.011	3.771	3.429	3.564	3.367	3.641	3.541	3.697	3.922	4.145	4.114	4.047	4.233	5.256	5.589	4.021	3.684	3.553	3.418	3.418	3.392
410.0	476.1	740.2	1030	1193	1232	1082	854.1	774.3	747.3	761.8	837.8	842.1	940.7	799.1	617.4	539.3	497.0	463.9	442.7	429.9	426.5	421.5	425.7	432.9	410.8	397.0	440.3	471.1	394.8	328.7	356.6	320.7	160.6	89.28	80.12	267.7	1267	2843	3252	788.5	12.58	2.762	2.045	1.693	1.763	1.782	2.006	2.656	2.933	3.087	3.343	4.302	4.657	4.760	4.496	3.932	3.751	3.554	3.485	3.471	3.273	3.238	3.388	3.331	3.547	3.880	3.706	3.598	3.849	4.599	4.730	3.807	3.453	3.387	3.294	3.169	3.227
415.0	462.4	695.7	935.9	1065	1131	1005	838.2	746.6	726.6	711.7	760.6	758.7	814.0	713.1	577.9	504.3	467.6	438.4	422.3	409.1	406.0	404.6	407.2	407.4	386.9	370.4	388.4	389.0	362.0	337.4	310.9	265.0	146.0	86.72	61.52	90.81	303.6	672.8	2168	3572	256.2	14.95	2.760	1.929	1.742	1.710	1.947	2.349	2.688	2.733	3.173	3.821	4.050	4.282	3.939	3.659	3.485	3.434	3.343	3.622	3.334	3.043	3.327	3.192	3.308	3.458	3.270	3.297	3.402	3.830	4.227	3.251	3.181	2.994	2.930	3.014	3.185
420.0	413.3	644.0	872.1	1013	1056	949.9	827.0	744.9	713.7	687.7	717.2	709.4	748.9	667.9	546.5	481.0	450.2	428.3	407.0	397.1	392.7	387.0	391.4	396.4	377.0	362.1	373.8	361.0	327.2	336.9	319.8	252.4	141.7	88.75	60.90	53.52	90.15	164.2	562.8	2417	2871	233.7	8.886	2.467	2.057	1.872	1.860	2.545	2.656	2.725	2.948	3.759	3.937	3.968	4.111	3.585	3.776	3.433	3.302	3.452	3.437	3.049	3.033	2.931	3.159	3.247	3.014	2.964	3.243	3.574	3.814	3.166	2.942	3.070	2.885	2.650	3.146
425.0	404.2	617.2	822.5	957.3	1010	941.4	831.3	773.5	706.7	679.3	695.4	683.8	719.2	641.5	530.6	468.4	438.2	417.4	398.2	387.2	380.1	380.6	382.7	385.9	372.1	355.9	369.2	354.0	310.3	314.9	337.4	262.8	146.1	92.20	64.50	49.04	44.63	52.29	137.3	679.6	2535	2085	188.4	3.838	2.364	1.989	2.065	2.402	2.617	2.660	2.801	3.711	3.769	4.122	4.003	3.728	3.740	3.466	3.096	3.334	3.285	3.266	2.924	2.876	2.962	2.970	2.755	3.030	3.098	3.369	3.378	3.051	2.743	2.798	2.862	2.747	2.942
430.0	451.8	600.5	782.0	914.7	969.8	938.5	860.9	802.2	725.5	667.2	667.5	651.1	674.1	602.4	504.9	457.2	426.0	402.9	387.4	377.4	365.7	363.1	365.7	370.4	359.3	345.9	352.7	342.2	300.6	287.2	307.3	278.1	163.6	101.7	72.48	53.02	39.58	31.44	43.98	161.0	695.2	2210	2381	698.8	12.45	2.601	2.232	2.544	2.718	2.568	2.891	3.461	3.567	3.812	3.774	3.694	3.758	3.843	3.502	3.426	3.373	3.222	3.021	2.899	2.849	2.917	2.718	2.789	2.988	3.198	3.125	2.952	2.746	2.723	2.692	2.563	2.855
435.0	631.0	560.3	753.5	877.3	953.3	937.3	890.9	844.7	739.0	665.8	634.9	613.7	616.4	564.0	482.1	442.8	410.4	394.9	380.4	365.9	350.8	343.8	343.2	348.9	337.9	328.6	329.7	318.3	287.0	267.9	263.0	252.7	190.3	117.4	80.93	59.47	43.92	30.63	25.50	46.33	163.0	512.6	1372	2939	994.0	14.77	2.836	2.943	2.872	2.595	2.613	3.454	3.440	3.592	3.704	3.706	4.035	3.732	3.935	3.718	3.350	3.380	2.995	2.985	2.788	2.670	2.478	2.733	2.771	2.861	3.128	2.848	2.805	2.650	2.662	2.647	2.668
440.0	861.9	608.7	724.6	844.1	929.6	946.1	936.8	887.0	749.0	652.3	613.0	583.8	580.5	537.1	465.1	428.6	400.1	381.8	372.3	353.3	337.2	325.3	327.2	330.8	324.5	312.9	311.9	302.8	275.0	256.1	242.6	220.9	190.3	137.8	88.40	64.69	47.21	33.23	24.13	22.67	45.26	121.5	348.0	1867	2781	218.8	9.634	3.152	2.879	2.718	2.640	3.275	3.521	3.759	3.791	3.744	4.270	3.781	4.064	3.771	3.469	3.377	3.057	3.004	2.692	2.655	2.559	2.498	2.493	2.680	2.832	2.698	2.568	2.486	2.352	2.571	2.678
445.0	999.7	830.3	692.9	822.9	911.3	962.1	974.1	901.2	761.3	637.8	578.1	552.9	546.4	507.3	446.4	416.8	393.4	374.6	361.5	339.2	320.7	306.1	306.7	309.6	304.3	298.1	294.3	289.7	266.1	247.1	232.6	205.7	173.2	150.0	100.1	67.15	49.92	35.03	24.80	18.73	20.16	34.78	84.19	510.0	2111	1851	168.8	6.126	3.228	2.975	2.684	3.303	3.392	3.604	3.861	3.802	4.100	4.027	4.294	3.807	3.626	3.253	3.176	2.801	2.592	2.342	2.441	2.504	2.394	2.607	2.685	2.488	2.484	2.503	2.405	2.611	2.552
450.0	736.2	1442	792.1	781.8	880.5	939.4	972.1	904.1	748.8	607.8	541.3	513.5	506.5	468.9	418.3	393.5	374.5	355.0	343.6	321.3	296.6	279.5	279.5	282.2	279.4	273.9	273.5	267.8	252.1	235.6	220.8	192.8	154.8	136.5	116.1	79.24	52.84	37.71	27.27	19.87	16.30	16.57	25.61	119.6	556.5	1462	1851	727.2	13.25	3.357	2.780	3.300	3.360	3.511	3.847	3.779	4.095	4.164	4.000	3.873	3.701	3.245	3.053	2.731	2.460	2.258	2.340	2.239	2.211	2.355	2.395	2.388	2.445	2.309	2.347	2.449	2.358
455.0	421.4	1575	1232	753.8	838.5	898.4	956.9	885.4	729.0	574.8	502.0	469.7	459.7	426.3	390.8	364.8	348.6	333.2	322.0	297.9	267.4	251.6	251.7	251.9	250.7	250.2	247.6	245.0	233.0	219.5	203.1	179.2	143.3	118.8	109.6	94.89	61.05	39.39	28.35	21.81	16.74	13.66	13.57	32.79	129.0	335.9	875.9	2596	1100	15.93	3.129	3.371	3.457	3.533	3.697	3.676	3.905	4.196	4.128	3.817	3.555	3.031	2.593	2.589	2.240	2.294	2.117	2.123	2.051	2.070	2.163	2.311	2.176	2.207	2.238	2.238	2.415
460.0	320.1	1107	1919	834.9	793.7	872.2	918.0	872.9	702.9	544.4	472.3	437.4	421.2	393.2	358.3	340.3	324.6	312.0	301.9	278.3	248.8	230.3	226.5	229.4	230.3	229.2	227.5	225.5	217.6	205.5	192.9	168.9	136.1	111.4	96.67	93.18	71.75	43.11	30.08	22.53	17.52	13.58	11.64	14.38	34.26	79.78	212.9	1376	2802	792.8	11.67	3.662	3.308	3.370	3.678	3.639	3.881	4.063	4.026	3.622	3.432	3.006	2.651	2.388	2.152	2.158	1.934	1.862	1.859	1.823	2.132	1.966	2.062	2.120	2.073	2.148	2.247
465.0	283.5	680.8	2113	1269	761.6	816.6	871.7	824.5	659.2	510.8	432.0	400.9	391.9	370.0	336.1	314.4	303.2	290.7	279.7	258.5	229.1	209.0	209.0	207.6	208.9	209.5	209.6	207.8	202.4	192.9	178.9	156.5	128.6	106.0	88.51	82.07	76.41	50.40	31.73	22.84	18.16	13.93	11.76	10.45	13.78	23.02	52.26	349.5	1861	2363	160.9	8.344	3.501	3.416	3.696	3.525	3.922	4.051	3.619	3.649	3.035	2.933	2.563	2.337	2.007	2.034	1.901	1.934	1.804	1.825	1.865	1.919	1.903	1.973	1.975	2.032	2.205
470.0	281.6	434.9	1337	2092	910.7	749.3	801.6	751.8	601.0	467.0	387.2	358.9	349.2	327.3	300.3	285.9	270.5	259.8	247.7	229.2	202.3	185.3	181.7	182.1	183.3	184.2	184.5	183.3	179.8	171.1	158.8	141.0	117.4	96.87	81.02	68.73	64.85	57.19	36.93	24.23	18.60	15.24	12.15	10.30	9.574	10.45	16.44	82.34	468.2	1313	1359	685.9	14.69	3.695	3.593	3.568	3.725	3.660	3.545	3.483	2.991	2.734	2.242	2.115	1.886	1.819	1.647	1.709	1.762	1.689	1.762	1.739	1.675	1.790	1.784	1.776	1.926
475.0	273.8	372.2	629.7	2022	1761	709.2	712.8	672.5	536.2	412.8	345.0	320.2	304.6	286.8	264.1	251.0	239.2	225.7	216.0	202.0	175.4	160.8	155.3	157.9	159.0	159.4	159.9	157.3	154.9	149.6	140.6	125.0	105.4	88.82	73.55	62.15	52.83	49.69	45.95	29.13	18.91	15.03	12.86	10.38	9.284	8.166	8.474	22.51	108.2	297.5	517.4	1431	913.2	21.11	3.766	3.198	3.580	3.555	3.055	3.144	2.789	2.467	2.086	1.869	1.810	1.574	1.513	1.498	1.581	1.578	1.574	1.478	1.506	1.633	1.650	1.543	1.635
480.0	264.7	333.3	426.9	1316	2548	972.2	648.6	611.9	495.4	379.4	318.5	294.8	275.5	259.8	242.7	231.3	219.1	207.6	195.5	181.5	156.7	144.2	140.0	142.6	142.1	143.0	143.8	139.8	141.4	136.4	127.5	114.5	98.11	81.71	69.77	57.59	47.89	42.63	44.28	35.05	21.21	15.92	13.01	10.82	9.361	8.019	7.193	9.516	27.78	69.76	122.0	602.9	1666	722.4	17.72	3.536	3.283	3.145	2.802	2.914	2.587	2.314	1.963	1.744	1.713	1.409	1.407	1.402	1.369	1.427	1.369	1.436	1.368	1.284	1.354	1.433	1.496
485.0	242.6	337.6	367.4	732.8	2670	1932	608.1	563.9	458.3	352.4	292.9	270.8	255.5	238.2	224.4	211.2	199.0	193.0	180.7	165.3	143.5	130.5	127.4	127.7	131.3	131.1	131.1	130.5	130.0	125.1	119.6	106.3	91.96	76.56	65.62	54.74	45.11	37.63	37.23	38.43	25.71	16.26	13.70	11.14	9.642	8.691	7.179	6.940	10.34	19.12	30.43	146.5	882.7	1576	206.7	11.83	3.586	2.956	2.886	2.932	2.660	2.185	1.915	1.717	1.651	1.483	1.437	1.343	1.211	1.281	1.199	1.365	1.194	1.392	1.436	1.329	1.395
490.0	191.4	322.8	338.9	455.9	1601	3754	826.9	505.3	409.3	315.0	267.4	245.8	228.6	214.9	197.2	187.9	178.6	169.8	160.5	147.2	127.3	115.6	113.1	114.0	115.9	116.1	116.6	115.3	117.1	112.7	107.8	95.94	83.55	70.15	60.70	50.80	42.04	34.62	30.91	32.42	30.57	20.84	14.74	11.70	10.20	8.973	7.562	6.742	6.879	7.969	10.10	36.01	213.6	713.6	1445	846.2	17.97	3.619	2.940	2.664	2.293	1.977	1.785	1.529	1.434	1.343	1.198	1.276	1.188	1.259	1.109	1.173	1.093	1.323	1.185	1.226	1.332
495.0	162.5	276.0	337.9	345.2	693.7	3634	1852	471.9	361.5	279.0	237.2	221.2	205.4	189.2	174.5	164.0	159.9	149.8	138.4	126.7	111.4	99.72	97.70	99.56	102.3	101.0	101.4	101.5	102.4	99.24	94.81	85.09	74.43	62.91	54.21	47.23	39.16	32.81	27.79	25.62	27.34	25.77	17.42	12.18	9.981	9.110	7.729	7.110	6.250	5.931	5.794	11.38	50.49	162.4	497.7	1639	1246	25.55	3.207	2.609	2.376	1.798	1.793	1.551	1.339	1.217	1.137	1.135	0.982	1.104	1.099	1.064	1.178	1.107	1.210	1.177	1.109
500.0	143.8	234.6	331.2	312.9	413.2	2211	2908	653.7	322.4	255.6	216.5	198.5	186.1	171.3	157.3	145.7	139.7	131.7	123.9	112.8	99.68	90.29	86.88	89.94	90.36	91.27	90.75	90.64	92.34	89.21	84.85	77.20	68.11	57.81	49.45	43.68	36.21	30.44	25.99	22.33	23.20	26.28	21.22	13.68	9.990	8.912	7.903	7.037	6.589	5.460	4.768	5.920	14.11	38.85	116.1	629.2	1795	838.7	20.34	2.584	2.237	1.823	1.561	1.386	1.199	1.158	0.946	1.037	1.079	0.948	1.097	0.998	0.845	1.015	1.049	1.081	1.055
505.0	124.5	177.9	314.3	316.9	322.1	1002	3128	1477	298.6	225.2	194.4	178.8	169.9	153.6	140.5	132.0	127.1	117.2	111.7	102.0	87.34	80.34	79.90	80.73	80.31	82.65	82.11	82.51	82.47	80.97	76.32	70.56	62.40	52.79	45.82	40.42	33.71	28.75	24.34	21.14	19.11	22.32	24.09	16.36	10.48	9.015	8.075	7.296	6.264	5.508	4.557	4.573	6.007	11.48	28.69	148.4	795.9	1567	231.9	15.20	2.443	1.763	1.516	1.271	1.031	1.093	0.945	1.096	1.107	0.881	0.976	0.989	0.865	0.915	0.883	0.843	1.032
510.0	106.7	147.8	245.6	304.4	268.7	450.8	1770	3196	528.0	199.7	171.6	157.9	147.2	131.7	122.4	114.1	108.6	100.4	96.14	87.61	75.45	69.31	69.07	68.03	68.88	69.95	69.81	70.35	70.71	70.27	66.10	60.57	53.55	46.39	40.43	35.55	30.92	25.85	22.41	19.91	17.17	16.89	19.40	19.04	13.50	9.634	7.743	6.985	6.012	5.562	4.889	4.356	4.234	5.172	8.990	35.65	187.1	625.2	1106	755.8	18.31	2.416	1.544	1.276	1.001	0.927	0.818	0.919	0.975	0.797	0.806	0.862	0.767	0.791	0.774	0.818	0.920
515.0	86.19	130.1	187.3	282.3	252.4	287.5	635.4	3458	1771	188.8	147.0	136.4	125.3	115.2	104.6	98.69	90.96	86.56	81.59	74.53	63.10	57.87	58.08	58.63	59.33	58.31	59.71	59.58	59.18	58.76	56.08	52.67	47.29	40.40	35.36	31.14	26.87	23.57	20.19	18.05	15.58	14.12	14.25	17.00	16.35	11.69	8.057	7.169	5.777	5.204	4.741	4.749	3.947	3.785	4.472	10.31	43.96	141.6	323.6	1131	1080	25.73	1.939	1.276	1.117	0.807	0.929	0.776	0.729	0.830	0.684	0.683	0.689	0.703	0.789	0.733	0.740
520.0	77.66	123.4	147.8	240.5	262.5	226.8	311.6	2177	3265	269.6	133.8	121.5	114.2	102.0	94.21	87.00	80.31	76.26	71.86	66.37	56.68	52.95	50.82	52.27	52.22	50.80	52.31	53.10	53.11	53.57	50.29	46.47	41.46	36.56	31.62	28.77	24.82	21.19	18.76	16.37	14.69	12.81	12.21	13.61	15.88	13.35	8.807	6.775	5.450	5.255	4.562	4.490	4.158	3.364	3.545	4.681	12.15	33.61	74.94	396.6	1427	650.4	20.03	1.499	1.050	0.963	0.914	0.779	0.680	0.691	0.680	0.741	0.620	0.600	0.652	0.617	0.731
525.0	69.58	104.7	127.8	175.1	268.5	211.4	227.4	903.2	3865	843.5	122.2	113.6	102.0	92.35	84.17	77.18	73.61	66.87	62.39	58.67	50.40	46.33	46.24	46.68	45.82	46.45	47.00	47.95	47.09	47.29	44.61	40.75	36.62	32.24	28.87	25.81	22.36	19.64	16.97	15.19	13.32	12.44	11.50	10.89	13.54	14.34	10.22	6.829	5.458	4.979	4.482	4.342	3.959	3.692	3.061	3.230	4.830	9.553	18.49	92.74	604.8	1119	229.6	12.69	1.236	1.048	0.854	0.920	0.790	0.696	0.614	0.623	0.652	0.506	0.548	0.563	0.631
530.0	60.94	86.38	103.6	133.7	232.1	214.2	179.0	335.8	2241	2204	312.4	98.29	88.63	78.79	72.45	64.49	62.11	56.16	52.44	49.23	43.16	40.33	39.31	39.00	39.43	39.47	40.77	40.21	39.88	39.51	38.58	35.20	31.29	28.26	25.21	22.61	19.79	17.46	15.61	13.72	12.07	11.43	10.31	9.366	9.969	12.16	12.00	8.264	5.537	4.731	4.093	3.971	3.548	3.751	3.286	2.827	2.976	4.066	5.794	22.38	140.7	432.4	772.9	529.1	17.63	1.466	0.976	0.792	0.644	0.625	0.559	0.586	0.544	0.537	0.516	0.504	0.523
535.0	52.59	73.52	90.03	111.9	159.4	222.5	159.5	174.5	661.0	2408	1342	97.38	76.64	66.64	62.80	55.10	52.87	47.66	44.53	41.80	36.84	33.58	32.70	31.84	32.97	33.62	33.09	33.49	33.80	33.02	32.81	29.15	26.80	24.25	21.65	19.17	16.85	15.07	13.16	12.08	10.42	10.16	8.856	8.176	8.288	8.798	10.53	9.618	6.292	4.405	3.832	3.513	3.302	3.105	3.428	2.729	2.542	2.515	2.857	6.575	32.70	97.53	217.7	738.1	674.3	24.73	1.260	1.001	0.669	0.566	0.535	0.469	0.476	0.442	0.399	0.460	0.524
540.0	50.48	63.98	79.01	91.68	119.0	203.3	160.6	128.9	229.9	1386	2641	176.1	68.18	58.87	54.39	48.95	44.22	42.41	39.19	36.39	31.41	28.98	28.34	27.90	28.37	28.97	28.71	29.71	29.42	28.70	28.28	25.04	22.78	21.31	18.38	16.71	15.02	13.44	11.80	10.61	9.722	8.470	8.266	7.798	7.092	7.041	8.041	9.466	7.383	4.484	3.779	3.399	3.141	2.664	2.865	3.066	2.547	2.130	2.169	2.761	8.535	22.84	50.09	253.8	840.6	243.9	18.85	1.030	0.757	0.570	0.513	0.496	0.475	0.410	0.443	0.412	0.479
545.0	42.62	64.03	68.66	78.65	96.14	162.0	172.9	109.5	121.1	512.2	3090	690.7	60.60	52.75	48.93	42.18	38.95	35.35	34.79	30.80	27.13	24.67	24.68	25.23	25.29	25.41	24.19	25.98	25.28	24.95	24.58	22.29	20.81	18.28	16.06	14.89	13.73	12.21	10.39	9.610	8.829	7.860	7.552	7.197	6.403	6.005	5.960	7.851	7.988	5.260	3.719	3.109	2.822	2.626	2.441	2.723	2.792	2.068	1.680	1.800	3.026	5.990	12.17	59.00	338.2	802.6	221.6	10.96	0.801	0.538	0.508	0.461	0.390	0.366	0.449	0.370	0.449
550.0	43.36	54.34	57.18	61.01	75.44	107.6	169.5	102.4	82.08	172.2	1626	2093	122.2	45.27	40.59	35.37	31.49	29.19	27.62	26.01	22.58	20.90	20.72	20.59	20.77	20.62	20.63	20.98	21.04	20.56	20.26	18.04	16.99	15.42	13.85	12.66	11.22	10.35	9.450	8.269	7.316	6.720	6.373	5.790	5.545	5.143	4.892	5.482	6.806	6.128	4.039	2.984	2.510	2.280	2.120	2.238	2.333	2.252	1.643	1.478	1.706	2.269	3.538	14.00	78.32	305.3	554.8	395.3	16.21	0.957	0.604	0.441	0.374	0.367	0.357	0.393	0.407
555.0	37.77	47.17	50.29	53.07	61.16	72.55	122.9	122.6	66.35	81.21	446.1	2523	851.2	42.35	32.70	28.46	26.04	24.36	22.03	21.08	18.33	17.51	16.83	16.31	16.11	16.49	16.05	16.79	17.37	16.41	15.90	14.47	13.28	12.50	10.92	10.15	9.355	8.385	7.778	6.991	5.978	5.771	5.178	5.008	4.734	4.571	3.876	3.781	4.613	5.493	4.739	3.227	2.191	2.006	2.012	1.862	1.662	1.952	1.816	1.432	1.281	1.282	1.539	3.748	18.11	68.87	153.4	516.6	248.6	22.47	0.775	0.419	0.415	0.424	0.325	0.360	0.410
560.0	38.52	45.52	47.54	48.30	54.50	55.94	87.68	134.6	64.20	54.36	138.5	1406	1916	91.14	28.02	24.69	22.21	20.75	19.44	16.90	15.88	14.52	14.09	14.09	13.78	14.22	13.50	13.90	14.10	14.12	13.50	12.67	11.68	10.03	9.041	8.738	7.768	7.203	6.525	5.826	5.438	5.140	4.462	4.519	4.221	3.674	3.484	3.256	3.288	4.346	4.555	3.472	2.170	1.780	1.639	1.797	1.487	1.536	1.808	1.666	1.069	1.011	1.029	1.539	4.799	16.06	35.05	173.5	455.0	232.3	14.83	0.604	0.477	0.336	0.378	0.295	0.298
565.0	33.96	40.99	40.12	47.49	42.56	46.78	61.59	125.6	73.09	47.82	65.10	479.5	2373	415.4	25.93	20.34	19.10	17.51	15.95	14.73	13.24	12.36	12.31	12.19	12.33	11.30	11.52	10.98	11.63	11.14	11.47	10.71	9.505	8.555	8.114	7.306	6.620	6.155	5.563	5.145	4.504	4.347	4.274	3.980	3.638	3.301	2.830	2.513	2.746	2.899	3.663	3.812	2.211	1.768	1.393	1.591	1.356	1.179	1.493	1.688	1.217	0.991	0.972	0.928	1.676	4.224	8.470	40.18	187.8	454.7	173.8	5.830	0.431	0.369	0.340	0.372	0.266
570.0	36.38	44.04	41.95	40.08	36.93	38.02	44.57	88.25	100.0	43.76	45.09	140.3	1307	1523	74.02	17.56	15.74	14.63	13.45	12.28	10.77	10.01	9.934	9.840	9.664	9.378	9.349	8.973	9.331	9.497	9.066	8.551	7.905	7.186	6.780	6.026	5.478	4.986	4.513	4.214	3.800	3.437	3.425	3.312	2.906	2.837	2.473	2.293	2.076	2.252	2.571	3.178	2.653	1.863	1.397	1.238	1.269	1.141	1.157	1.294	1.437	1.156	0.926	0.698	0.917	1.435	2.419	9.546	43.78	169.8	294.7	143.0	14.46	0.589	0.417	0.313	0.264
575.0	34.26	40.93	41.22	30.73	31.70	33.59	33.92	48.77	107.5	54.84	37.66	60.44	354.2	1899	661.6	17.51	13.42	11.68	10.99	10.32	9.097	7.880	7.506	7.923	7.368	7.392	7.240	7.516	7.586	7.546	7.344	6.972	6.304	5.828	5.062	4.804	4.507	4.062	3.972	3.707	3.045	2.962	2.819	2.665	2.467	2.151	2.105	2.081	1.731	1.677	1.732	2.061	2.459	2.137	1.462	0.931	1.201	0.925	0.945	0.945	0.996	1.310	0.853	0.595	0.736	0.780	0.968	2.660	10.29	38.28	80.71	279.4	233.0	19.24	0.498	0.362	0.332
580.0	30.05	39.93	38.15	30.45	26.42	27.83	27.62	33.65	91.59	79.11	39.15	41.27	104.2	1079	1723	41.67	11.23	10.42	9.007	8.798	7.294	6.564	6.554	6.518	6.478	6.313	6.250	6.399	6.252	6.510	6.130	5.764	4.948	4.843	4.520	3.990	3.762	3.382	3.281	3.128	2.618	2.496	2.275	2.164	2.186	1.803	1.876	1.774	1.597	1.535	1.424	1.431	2.111	2.112	1.590	1.020	0.944	0.814	0.811	0.776	0.779	1.108	1.106	0.669	0.636	0.583	0.609	1.079	2.758	9.002	18.53	101.2	316.3	183.6	11.80	0.422	0.375
585.0	32.53	39.17	40.45	33.75	27.31	26.42	24.72	28.96	63.01	99.10	41.28	36.14	45.85	363.1	2260	108.4	11.06	9.174	7.759	7.297	6.165	6.083	5.475	5.439	5.642	5.361	5.622	5.143	5.289	5.280	4.974	4.812	4.516	4.158	3.816	3.690	3.229	3.027	2.641	2.683	2.255	2.081	2.039	2.085	1.889	1.534	1.598	1.456	1.336	1.331	1.168	1.086	1.569	1.979	1.715	1.187	0.959	0.838	0.819	0.622	0.716	0.711	1.159	0.820	0.617	0.589	0.624	0.645	0.999	2.533	4.513	23.59	127.3	302.9	128.7	5.509	0.448
590.0	34.50	38.96	39.86	30.50	25.98	23.70	24.59	29.23	41.37	93.57	62.62	37.54	34.91	103.6	1260	936.1	38.14	7.739	6.465	5.994	5.036	4.887	4.688	4.400	4.534	4.352	4.591	4.377	4.501	4.451	4.034	4.095	3.682	3.459	3.228	2.923	2.676	2.461	2.191	2.241	1.976	1.921	1.700	1.641	1.597	1.321	1.421	1.363	1.173	1.092	1.003	0.937	1.051	1.370	1.690	1.414	0.944	0.740	0.748	0.528	0.651	0.573	0.786	0.881	0.826	0.576	0.550	0.617	0.657	0.963	1.355	5.625	29.50	111.2	207.3	123.4	14.46
595.0	34.15	46.82	41.48	32.01	26.54	23.66	26.49	30.07	38.08	67.81	90.49	45.43	36.51	46.03	330.1	1256	368.3	8.390	5.210	5.414	4.245	3.968	3.888	3.464	3.791	3.483	3.471	3.384	3.620	3.269	3.503	3.586	3.004	2.742	2.616	2.417	2.248	2.002	1.872	1.755	1.543	1.466	1.380	1.246	1.279	1.215	1.223	1.138	1.065	1.025	0.830	0.881	0.694	0.878	1.150	1.372	1.132	0.777	0.625	0.659	0.568	0.486	0.608	0.674	0.972	0.776	0.586	0.475	0.542	0.576	0.597	1.536	6.820	25.11	55.57	156.8	202.5
600.0	34.91	45.12	42.55	33.16	29.55	27.53	29.90	34.81	40.08	59.57	111.4	65.42	46.84	40.82	99.58	775.8	775.1	23.29	5.061	4.485	3.799	3.231	3.521	2.917	3.225	3.000	3.166	3.026	3.178	2.838	2.859	2.831	2.483	2.257	2.123	1.972	2.004	1.775	1.393	1.277	1.419	1.208	1.116	1.171	1.090	0.996	1.075	0.961	0.841	0.915	0.758	0.741	0.670	0.731	0.881	1.284	1.283	0.919	0.559	0.541	0.641	0.513	0.552	0.556	0.740	0.879	0.710	0.548	0.621	0.499	0.519	0.755	1.825	5.887	12.83	51.71	225.8
605.0	46.17	51.96	51.95	44.20	36.13	36.71	41.00	50.75	61.88	80.64	130.1	115.6	79.76	62.57	66.75	298.1	1268	80.07	5.966	4.346	3.470	2.951	2.970	2.710	2.577	2.948	2.681	2.603	2.726	2.411	2.532	2.391	2.124	1.984	1.791	1.819	1.647	1.601	1.434	1.251	1.231	1.152	1.166	0.925	1.014	0.925	1.042	0.989	0.855	0.872	0.732	0.718	0.601	0.638	0.726	0.962	1.200	1.125	0.740	0.568	0.619	0.647	0.617	0.713	0.615	0.894	1.041	0.839	0.726	0.568	0.585	0.660	0.762	1.664	3.261	12.20	84.83
610.0	64.46	73.06	70.25	56.69	49.88	53.56	67.54	88.19	114.1	149.9	187.5	220.5	164.1	122.7	109.2	139.7	817.1	682.8	25.02	4.271	2.880	2.502	2.419	2.277	2.079	2.333	2.312	2.111	2.232	2.098	2.193	1.937	1.634	1.547	1.482	1.514	1.297	1.266	1.162	1.127	1.069	0.996	0.998	0.865	0.871	0.904	0.843	0.919	0.831	0.780	0.687	0.651	0.631	0.598	0.629	0.793	1.093	1.246	0.980	0.806	0.772	0.847	0.872	0.911	0.996	1.029	1.298	1.364	1.205	0.968	0.860	0.947	0.851	1.031	1.374	3.272	19.84
615.0	62.02	90.54	89.61	67.83	58.20	66.48	80.83	106.4	131.6	174.0	211.0	248.6	217.8	155.4	130.5	108.0	288.1	967.1	228.5	4.679	2.503	2.278	2.115	1.889	1.653	1.653	1.625	1.796	1.601	1.809	1.728	1.572	1.374	1.264	1.313	1.338	1.055	1.144	1.032	1.018	0.841	0.809	0.884	0.661	0.776	0.786	0.784	0.813	0.760	0.678	0.606	0.595	0.552	0.495	0.623	0.620	0.812	1.027	1.122	0.973	0.732	0.946	0.990	0.952	1.137	1.155	1.256	1.375	1.436	1.283	0.983	1.119	0.896	0.949	0.948	1.262	5.002
620.0	68.66	87.82	86.68	75.66	58.24	66.15	83.01	107.3	127.1	163.0	197.0	232.5	229.3	160.6	133.9	100.3	140.2	652.2	592.9	11.21	2.237	2.464	2.009	1.625	1.579	1.546	1.428	1.651	1.464	1.616	1.467	1.326	1.169	1.119	1.094	1.036	0.927	0.956	0.985	0.743	0.751	0.740	0.618	0.604	0.755	0.679	0.635	0.699	0.688	0.630	0.558	0.586	0.540	0.528	0.539	0.575	0.626	0.853	1.079	0.947	0.822	0.827	0.871	1.044	0.988	1.134	1.094	1.254	1.661	1.270	1.081	1.103	0.879	0.876	0.880	0.893	1.729
625.0	63.85	96.27	97.95	79.89	59.72	63.74	81.93	106.2	122.0	158.0	192.0	220.6	231.3	163.7	133.7	98.17	102.5	271.3	965.1	57.36	2.311	1.997	1.798	1.433	1.336	1.433	1.317	1.505	1.352	1.253	1.382	1.306	0.921	1.043	0.950	0.911	0.936	0.711	0.844	0.759	0.610	0.682	0.517	0.645	0.650	0.619	0.614	0.656	0.597	0.585	0.528	0.545	0.583	0.596	0.602	0.537	0.530	0.749	0.853	1.040	0.916	0.731	0.955	0.953	0.934	1.080	1.107	1.107	1.401	1.323	1.095	0.948	0.871	0.831	0.901	0.779	0.978
630.0	66.68	97.72	104.3	79.12	66.45	69.60	83.00	103.0	119.1	151.4	180.7	207.6	215.9	178.1	133.6	97.90	93.16	103.7	649.0	561.0	8.498	1.801	1.632	1.317	1.249	1.207	1.211	1.177	1.202	1.179	1.167	1.041	0.845	0.907	0.793	0.785	0.770	0.628	0.696	0.622	0.568	0.573	0.498	0.536	0.560	0.515	0.590	0.639	0.637	0.586	0.534	0.470	0.517	0.531	0.541	0.506	0.557	0.634	0.726	0.935	0.869	0.861	0.853	0.826	0.886	0.996	1.050	1.106	1.271	1.172	1.304	1.076	0.889	0.968	0.799	0.761	0.678
635.0	69.20	107.9	106.6	82.72	71.95	74.74	84.62	107.1	120.3	145.6	176.6	201.4	204.0	193.5	140.3	99.20	89.41	62.23	186.2	869.2	59.30	2.046	1.444	1.292	1.119	0.999	0.946	0.896	1.047	0.997	0.906	0.896	0.910	0.836	0.710	0.729	0.609	0.730	0.547	0.510	0.470	0.560	0.493	0.477	0.460	0.560	0.582	0.521	0.582	0.523	0.485	0.499	0.458	0.498	0.444	0.436	0.586	0.631	0.690	0.731	0.827	0.911	0.785	0.826	0.856	0.912	1.013	1.099	1.279	1.033	1.153	1.108	1.014	0.840	0.825	0.741	0.614
640.0	71.58	102.7	117.4	90.25	70.30	72.42	84.16	100.1	120.0	144.2	176.2	196.6	196.5	187.6	147.0	99.31	87.95	51.04	53.15	606.6	284.9	4.358	1.516	1.244	1.153	0.952	0.791	0.813	0.963	0.817	0.782	0.745	0.781	0.646	0.649	0.612	0.593	0.654	0.475	0.492	0.416	0.560	0.454	0.401	0.446	0.551	0.455	0.592	0.563	0.492	0.424	0.474	0.467	0.442	0.429	0.458	0.523	0.590	0.567	0.607	0.609	0.721	0.949	0.913	0.836	0.836	0.950	0.979	1.126	1.122	1.159	1.027	1.093	1.035	0.809	0.686	0.676
645.0	69.44	98.41	116.0	90.84	65.15	66.77	79.16	92.91	105.4	135.4	164.6	183.2	186.3	174.2	148.9	94.58	86.07	49.25	21.32	239.1	461.1	31.36	1.631	1.023	0.983	0.955	0.767	0.715	0.841	0.907	0.866	0.756	0.507	0.636	0.646	0.613	0.606	0.532	0.510	0.465	0.408	0.434	0.357	0.460	0.378	0.460	0.507	0.490	0.586	0.464	0.376	0.466	0.462	0.435	0.480	0.463	0.465	0.493	0.622	0.586	0.659	0.651	1.024	0.790	0.752	0.881	0.959	0.968	0.912	1.021	1.014	1.031	1.002	1.058	0.829	0.632	0.635
650.0	66.52	98.70	113.6	87.48	66.76	63.51	76.07	89.45	94.55	123.2	150.2	173.8	170.5	154.5	144.3	91.84	77.93	45.75	14.32	66.03	430.0	161.7	1.954	1.148	0.808	0.918	0.727	0.585	0.813	0.826	0.790	0.673	0.541	0.676	0.623	0.562	0.497	0.414	0.531	0.373	0.364	0.382	0.357	0.376	0.409	0.379	0.491	0.485	0.562	0.414	0.403	0.502	0.481	0.396	0.479	0.423	0.446	0.501	0.580	0.596	0.636	0.539	0.821	0.754	0.842	0.820	0.903	0.810	0.827	0.934	0.956	0.866	0.955	1.124	0.851	0.696	0.643
