Sample:	'1
File name:	y2025061805ÂíËÄ¸É.FD3
Run date:	'09:53:38, 06/23/2025
Operator:	Administrator
Comment:	'

Instrument
Model:	F-2700 FL Spectrophotometer
Serial number:	23B8-004
ROM Version:	4J14000 07

Instrument parameters
Measurement type:	3-D scan
Data mode:	Fluorescence
EX  Start WL:	220.0 nm
EX  End WL:	600.0 nm
EX Sampling interval:	5.0 nm
EM  Start WL:	230.0 nm
EM  End WL:	650.0 nm
EM Sampling interval:	5.0 nm
Scan speed:	12000 nm/min
EX Slit:	5.0 nm
EM Slit:	5.0 nm
PMT Voltage:	700 V
Response:	Auto 
Corrected spectra:	Off
Contour interval:	50.000

Peak integration
Integration method:	Rectangular
Sensitivity:	1
Threshold:	1.000

Peaks
No.	ApexEX/EM(nm)	Height(Data)
1	225.0/575.0	62.24
2	225.0/605.0	46.74
3	225.0/640.0	36.96
4	230.0/345.0	1209
5	230.0/500.0	323.1
6	235.0/385.0	942.5
7	235.0/510.0	280.0
8	240.0/265.0	434.1
9	240.0/525.0	253.8
10	245.0/270.0	506.3
11	245.0/535.0	226.3
12	250.0/275.0	647.4
13	250.0/550.0	173.8
14	255.0/285.0	646.4
15	255.0/565.0	142.4
16	260.0/290.0	580.5
17	260.0/575.0	117.4
18	265.0/295.0	739.8
19	265.0/585.0	101.3
20	270.0/300.0	1015
21	270.0/600.0	94.85
22	275.0/305.0	1063
23	275.0/610.0	81.51
24	280.0/345.0	886.4
25	280.0/625.0	69.46
26	285.0/320.0	967.8
27	285.0/640.0	51.65
28	290.0/325.0	905.3
29	305.0/345.0	655.4
30	425.0/500.0	39.58
31	455.0/540.0	12.90
32	475.0/345.0	3.673
33	485.0/265.0	2.097
34	495.0/270.0	2.389
35	505.0/275.0	3.642
36	510.0/280.0	3.899
37	520.0/285.0	3.697
38	530.0/290.0	3.428
39	540.0/295.0	4.488
40	545.0/300.0	5.806
41	550.0/305.0	5.940
42	560.0/310.0	5.304
43	570.0/315.0	5.532
44	580.0/320.0	5.264
45	585.0/325.0	5.633

Data points
	220.0	225.0	230.0	235.0	240.0	245.0	250.0	255.0	260.0	265.0	270.0	275.0	280.0	285.0	290.0	295.0	300.0	305.0	310.0	315.0	320.0	325.0	330.0	335.0	340.0	345.0	350.0	355.0	360.0	365.0	370.0	375.0	380.0	385.0	390.0	395.0	400.0	405.0	410.0	415.0	420.0	425.0	430.0	435.0	440.0	445.0	450.0	455.0	460.0	465.0	470.0	475.0	480.0	485.0	490.0	495.0	500.0	505.0	510.0	515.0	520.0	525.0	530.0	535.0	540.0	545.0	550.0	555.0	560.0	565.0	570.0	575.0	580.0	585.0	590.0	595.0	600.0
230.0	73.00	1079	2015	448.5	16.80	5.784	4.134	4.375	3.007	2.918	2.712	2.538	2.313	2.019	1.935	1.464	1.174	1.205	1.043	1.012	0.989	0.864	0.795	0.739	0.703	0.726	0.651	0.587	0.610	0.493	0.598	0.457	0.501	0.461	0.446	0.406	0.343	0.375	0.354	0.355	0.372	0.434	0.393	0.305	0.328	0.369	1.256	4.509	6.412	3.956	1.342	0.352	0.232	0.253	0.222	0.197	0.241	0.217	0.230	0.203	0.218	0.215	0.218	0.206	0.206	0.191	0.209	0.219	0.204	0.227	0.227	0.236	0.211	0.207	0.202	0.230	0.211
235.0	90.63	325.6	1668	2194	461.2	25.54	5.670	4.674	3.809	3.557	3.363	2.689	2.417	2.088	2.061	1.397	1.467	1.354	1.216	1.130	1.164	0.822	0.709	0.797	0.757	0.557	0.758	0.591	0.690	0.563	0.587	0.518	0.477	0.392	0.418	0.437	0.313	0.464	0.394	0.297	0.312	0.437	0.479	0.488	0.423	0.334	0.532	1.409	3.298	5.077	6.958	6.802	2.661	0.668	0.250	0.226	0.237	0.214	0.261	0.197	0.222	0.203	0.218	0.226	0.220	0.191	0.195	0.229	0.251	0.248	0.245	0.197	0.215	0.209	0.229	0.206	0.280
240.0	138.8	139.6	596.4	2431	2339	346.0	12.42	5.181	4.411	3.427	3.271	2.691	2.441	2.097	2.046	1.898	1.282	1.352	1.448	0.968	1.000	1.000	0.757	0.880	0.740	0.628	0.766	0.599	0.532	0.616	0.565	0.506	0.537	0.397	0.447	0.424	0.429	0.425	0.356	0.354	0.326	0.332	0.345	0.413	0.482	0.494	0.465	0.537	1.001	1.690	4.511	10.90	11.84	6.888	2.262	0.354	0.239	0.248	0.263	0.264	0.233	0.218	0.212	0.241	0.240	0.192	0.216	0.189	0.252	0.222	0.223	0.247	0.240	0.247	0.182	0.219	0.336
245.0	132.4	167.9	185.7	1025	3238	2220	239.6	7.631	4.438	4.859	3.598	3.418	2.649	2.160	1.869	1.625	1.674	1.324	1.276	1.074	0.881	0.910	0.894	0.858	0.893	0.746	0.658	0.677	0.603	0.579	0.543	0.452	0.517	0.380	0.396	0.401	0.366	0.428	0.409	0.445	0.362	0.359	0.293	0.371	0.486	0.526	0.764	0.621	0.509	0.561	1.272	4.321	10.04	14.77	13.25	5.631	1.374	0.289	0.234	0.256	0.226	0.221	0.193	0.213	0.226	0.201	0.196	0.193	0.221	0.191	0.260	0.237	0.224	0.201	0.211	0.214	0.271
250.0	60.40	162.3	224.2	304.2	1220	2987	3068	855.4	37.42	5.741	5.039	3.924	2.916	2.684	1.993	1.608	1.750	1.397	1.414	1.104	1.039	0.880	0.840	0.732	0.750	0.778	0.651	0.648	0.750	0.627	0.566	0.445	0.479	0.392	0.400	0.399	0.420	0.366	0.384	0.457	0.392	0.364	0.300	0.364	0.337	0.332	0.522	0.768	0.890	0.710	0.631	1.276	2.662	5.408	9.491	13.69	16.47	13.29	6.558	1.601	0.319	0.235	0.243	0.252	0.232	0.199	0.258	0.228	0.212	0.193	0.225	0.196	0.208	0.241	0.221	0.237	0.269
255.0	34.69	61.98	206.0	326.7	348.2	856.2	3260	4690	300.5	32.58	7.537	5.159	3.631	3.011	2.562	1.786	1.957	1.584	1.409	1.201	1.220	1.005	0.853	0.834	0.907	0.936	0.632	0.616	0.643	0.542	0.624	0.653	0.528	0.397	0.421	0.393	0.420	0.360	0.440	0.441	0.382	0.382	0.339	0.354	0.326	0.313	0.309	0.445	0.566	0.973	1.252	1.228	1.044	1.480	2.398	3.686	7.402	17.32	26.71	22.45	9.325	1.521	0.302	0.292	0.284	0.263	0.264	0.246	0.230	0.216	0.246	0.278	0.232	0.283	0.299	0.282	0.235
260.0	34.99	33.19	96.50	319.2	301.9	264.6	1159	4847	4603	243.7	16.00	5.925	5.387	3.848	2.598	2.311	2.210	1.929	1.394	1.273	1.278	1.257	0.936	0.849	0.915	0.767	0.668	0.732	0.691	0.689	0.575	0.695	0.481	0.478	0.464	0.412	0.496	0.324	0.370	0.354	0.359	0.398	0.365	0.342	0.412	0.400	0.265	0.327	0.343	0.512	0.963	1.683	1.481	1.033	0.922	1.234	2.063	5.302	13.61	27.84	31.17	20.73	6.611	0.726	0.276	0.263	0.290	0.259	0.229	0.176	0.258	0.237	0.224	0.231	0.242	0.297	0.206
265.0	33.03	24.40	41.41	190.2	434.1	264.4	348.2	1928	6268	4383	179.5	10.20	6.850	4.299	3.018	2.471	2.287	1.876	1.444	1.452	1.346	1.149	1.085	0.746	0.975	0.764	0.947	0.780	0.800	0.834	0.637	0.644	0.498	0.557	0.443	0.408	0.499	0.391	0.291	0.376	0.348	0.407	0.396	0.346	0.391	0.332	0.308	0.295	0.266	0.319	0.416	1.064	1.660	2.097	1.370	0.841	0.959	1.605	3.639	9.046	21.49	37.11	30.55	17.15	3.486	0.372	0.289	0.227	0.204	0.231	0.267	0.229	0.283	0.254	0.217	0.225	0.213
270.0	52.57	40.14	44.87	91.61	302.3	506.3	355.4	535.7	2254	5723	5001	747.7	36.55	6.794	4.764	3.238	2.765	2.010	2.157	1.526	1.533	1.154	1.161	0.895	1.106	0.904	0.853	0.875	0.722	0.695	0.696	0.669	0.631	0.611	0.551	0.512	0.542	0.446	0.360	0.453	0.423	0.450	0.391	0.409	0.410	0.442	0.412	0.318	0.349	0.338	0.335	0.565	0.872	1.577	2.205	2.389	2.051	1.366	1.407	2.564	5.517	11.53	19.88	31.38	33.15	31.27	12.91	3.456	0.462	0.273	0.282	0.341	0.293	0.271	0.236	0.320	0.251
275.0	104.0	103.0	85.95	90.99	186.4	385.1	647.4	385.0	577.7	1528	5374	8768	1004	29.95	7.436	4.924	3.711	2.507	2.424	1.634	1.552	1.385	1.422	1.231	1.260	1.048	0.815	0.927	0.818	0.626	0.592	0.700	0.814	0.706	0.621	0.680	0.548	0.592	0.466	0.468	0.461	0.486	0.448	0.499	0.548	0.536	0.457	0.534	0.486	0.404	0.372	0.544	0.650	0.949	1.342	1.835	3.099	3.642	2.200	1.364	1.803	3.089	4.912	7.687	11.71	29.12	52.12	32.07	19.31	3.370	0.405	0.306	0.313	0.357	0.316	0.349	0.304
280.0	164.2	183.0	159.4	117.6	166.6	268.6	538.6	628.6	283.9	414.0	1687	8126	7999	146.1	14.43	6.825	4.305	3.263	2.691	2.170	1.897	1.606	1.419	1.258	1.138	1.042	1.033	0.952	0.809	0.852	0.723	0.788	0.773	0.720	0.786	0.738	0.726	0.672	0.479	0.577	0.542	0.539	0.513	0.587	0.568	0.661	0.609	0.675	0.668	0.567	0.500	0.657	0.681	0.848	1.034	1.280	1.785	2.964	3.899	2.758	1.498	1.246	1.733	2.194	3.113	7.662	20.11	40.72	62.84	30.61	14.37	1.552	0.411	0.350	0.286	0.355	0.329
285.0	216.4	270.9	216.0	151.7	165.7	228.8	327.6	646.4	353.4	216.6	484.3	2744	9689	6224	107.3	9.784	5.449	4.296	3.224	2.375	2.076	1.691	1.457	1.462	1.305	1.074	1.068	1.017	1.039	0.788	0.761	0.838	0.770	0.853	0.810	0.835	0.827	0.658	0.682	0.682	0.567	0.704	0.634	0.617	0.656	0.868	0.865	0.875	0.854	0.701	0.591	0.767	0.701	0.929	1.004	1.075	1.305	1.648	2.574	3.513	3.697	1.948	1.141	1.102	1.344	2.265	5.248	11.44	29.93	53.34	64.10	25.70	8.113	0.728	0.402	0.342	0.351
290.0	302.1	362.3	304.7	205.0	169.2	203.2	227.3	347.4	580.5	495.9	292.5	783.2	3059	7139	6802	439.7	26.37	6.276	4.163	3.257	2.534	1.924	1.733	1.640	1.422	1.272	1.161	0.981	0.914	0.868	0.896	0.892	0.884	0.899	0.919	0.937	0.840	0.856	0.845	0.732	0.689	0.757	0.689	0.757	0.823	0.914	1.094	1.099	1.092	1.000	0.773	0.867	0.746	0.828	0.868	0.983	1.081	1.212	1.353	1.841	2.684	3.346	3.428	2.526	1.587	1.494	2.148	3.480	7.694	14.88	27.85	39.46	37.30	42.86	17.73	7.218	0.978
295.0	390.9	428.5	386.1	264.4	187.3	192.7	211.9	236.5	346.9	739.8	691.7	458.9	904.1	1837	5201	6683	632.4	22.25	6.175	4.736	3.329	2.503	1.974	1.771	1.543	1.478	1.198	0.990	0.984	1.091	0.930	1.048	0.864	0.946	1.079	0.949	1.002	0.990	0.853	0.840	0.796	0.768	0.814	0.792	0.813	1.128	1.336	1.473	1.257	1.169	0.947	0.889	0.759	0.909	0.788	1.034	1.048	1.017	1.043	1.358	1.603	1.941	2.725	4.242	4.488	3.095	1.908	2.168	3.125	4.543	7.155	9.968	10.65	25.74	53.50	66.18	28.26
300.0	399.6	477.4	430.4	299.5	210.1	206.6	225.1	246.8	304.7	556.0	1015	638.2	501.2	613.8	1504	6533	5763	88.14	12.37	5.788	4.013	3.069	2.458	1.980	1.719	1.549	1.364	1.117	1.220	1.143	1.012	1.028	0.877	1.061	0.936	1.105	1.115	1.142	0.934	0.872	0.811	0.876	0.812	0.964	0.967	1.224	1.346	1.546	1.368	1.274	1.094	1.062	1.045	0.919	0.857	1.027	1.089	1.169	1.361	1.424	1.525	1.711	1.887	2.706	4.292	5.806	4.334	2.619	2.406	2.509	2.955	3.314	3.234	6.903	16.79	40.45	66.36
305.0	434.2	498.6	482.8	315.5	233.6	233.0	257.6	297.3	346.8	487.4	879.7	1063	562.6	409.3	507.5	2040	7626	4657	71.97	8.771	5.026	3.854	2.881	2.463	2.030	1.573	1.439	1.309	1.151	1.161	1.075	1.061	0.918	1.164	1.077	1.152	1.070	1.125	1.002	0.896	0.873	0.930	0.862	1.025	0.995	1.233	1.235	1.538	1.518	1.296	1.192	1.151	0.999	0.967	1.032	1.169	1.300	1.298	1.394	1.664	1.532	1.909	1.993	2.373	2.997	4.204	5.940	5.265	3.444	2.498	2.567	2.280	2.114	2.752	4.694	10.44	24.14
310.0	432.1	524.7	484.5	357.3	259.7	266.5	295.4	343.9	401.2	503.3	678.5	989.7	957.2	519.0	341.4	586.3	2279	5560	5603	1250	21.66	5.544	3.751	2.954	2.318	1.937	1.622	1.566	1.398	1.200	1.077	1.012	1.061	1.011	1.084	1.168	1.073	1.074	0.956	0.940	0.951	0.882	0.844	0.951	1.070	1.319	1.364	1.554	1.528	1.416	1.200	1.261	1.199	1.093	1.218	1.228	1.516	1.494	1.550	1.797	1.751	1.965	2.185	2.488	2.730	3.128	3.831	4.726	5.304	4.991	3.741	2.569	2.179	2.086	2.166	3.188	6.216
315.0	432.4	555.4	513.5	373.6	316.3	299.8	334.3	385.1	446.9	533.8	651.7	765.2	915.1	902.8	431.7	317.6	637.8	1372	3987	7350	493.0	21.04	5.112	3.991	2.775	2.239	1.915	1.753	1.603	1.439	1.366	1.082	1.237	1.013	1.122	1.148	1.047	1.094	1.133	0.903	0.928	0.949	1.067	1.018	1.177	1.340	1.420	1.609	1.588	1.406	1.299	1.318	1.375	1.236	1.250	1.440	1.560	1.537	1.732	2.063	2.010	2.218	2.379	2.684	2.846	2.873	3.282	3.721	3.871	4.542	5.532	4.819	3.312	2.364	1.885	1.925	2.506
320.0	463.2	635.5	587.2	432.3	365.3	350.8	369.6	418.6	482.3	570.5	679.8	756.7	794.6	967.8	714.3	346.4	334.6	432.4	1104	5417	4272	386.7	11.07	5.357	3.513	2.736	2.272	2.062	1.445	1.668	1.515	1.212	1.266	0.972	1.074	1.207	1.145	1.046	1.064	0.996	0.975	1.037	1.063	1.093	1.133	1.362	1.588	1.802	1.903	1.643	1.476	1.559	1.413	1.528	1.642	1.565	1.737	1.963	1.973	1.926	2.170	2.300	2.594	2.715	2.996	3.155	3.222	3.546	3.689	3.787	4.210	5.162	5.264	4.201	2.781	2.214	2.219
325.0	532.8	736.9	743.3	544.8	420.3	392.3	395.4	443.0	522.8	608.6	713.8	778.9	779.2	820.1	905.3	511.6	317.0	268.5	359.4	1604	5724	3784	58.90	8.132	4.208	3.118	2.508	2.312	1.580	1.749	1.617	1.181	1.205	1.245	1.133	1.113	1.167	1.008	1.070	0.959	0.977	0.919	1.041	1.260	1.329	1.574	1.916	2.070	2.171	1.827	1.777	2.039	1.671	1.802	1.661	1.678	1.884	2.102	2.040	2.264	2.259	2.504	2.717	2.858	2.895	3.284	3.572	3.731	3.832	4.103	3.811	4.107	4.786	5.633	4.380	3.193	2.425
330.0	595.9	855.1	952.0	753.8	532.7	448.3	442.7	476.2	550.2	647.2	755.7	821.7	819.7	769.8	782.2	745.6	487.1	290.0	233.9	468.3	1700	4343	4588	1135	18.68	4.535	3.198	2.657	2.009	1.782	1.630	1.462	1.392	1.286	1.122	1.188	1.114	1.082	1.036	0.969	0.979	1.000	1.114	1.257	1.408	1.735	2.052	2.386	2.633	2.451	2.364	2.540	2.222	1.992	1.916	1.824	2.062	1.964	2.155	2.297	2.568	2.750	2.862	3.001	3.170	3.450	3.768	3.771	4.000	3.955	3.852	3.912	4.097	4.501	4.612	4.583	4.243
335.0	657.8	930.0	1087	925.7	654.5	519.8	494.6	510.5	587.5	687.4	788.5	855.3	865.1	819.2	742.6	689.6	729.2	444.2	265.9	260.6	470.2	1056	3247	6253	422.2	19.88	4.621	3.450	2.412	2.170	1.823	1.590	1.329	1.376	1.159	1.165	1.182	1.202	1.102	1.072	1.026	1.101	1.056	1.239	1.417	1.883	2.197	2.862	2.963	3.005	3.003	3.148	2.635	2.432	2.172	2.200	2.194	2.335	2.365	2.421	2.610	2.787	2.976	3.214	3.460	3.642	3.828	3.895	4.316	4.290	3.964	4.199	4.287	4.216	3.945	3.936	4.537
340.0	674.7	1002	1179	995.3	724.9	571.1	517.9	535.5	599.7	697.3	798.8	875.5	878.7	838.4	759.9	657.1	700.0	625.3	337.9	239.5	217.4	302.2	873.5	4574	5361	347.5	10.62	4.302	2.848	2.411	2.120	1.655	1.581	1.553	1.224	1.325	1.179	1.235	1.048	1.098	0.977	1.211	1.136	1.356	1.555	1.966	2.139	3.052	3.220	3.010	3.051	3.303	2.829	2.531	2.350	2.140	2.326	2.108	2.257	2.539	2.511	2.807	3.061	3.480	3.325	3.565	4.011	4.154	4.328	4.139	4.226	4.246	4.414	4.120	3.866	3.989	4.046
345.0	657.5	953.0	1209	1030	774.4	620.5	554.1	549.9	609.8	693.3	782.1	859.6	886.4	838.7	778.4	661.2	617.2	655.4	467.0	270.0	183.1	154.8	254.2	1331	5295	3270	52.43	6.192	3.687	2.884	2.210	2.061	1.456	1.737	1.141	1.216	1.120	1.237	1.055	1.012	1.038	1.098	1.211	1.299	1.557	2.000	2.559	2.760	3.217	3.111	3.064	3.673	2.751	2.696	2.447	2.089	2.496	2.382	2.317	2.585	2.763	2.943	2.997	3.341	3.272	3.430	3.906	3.898	3.873	4.117	4.290	4.190	4.399	4.212	4.065	3.934	3.798
350.0	669.0	968.4	1167	1051	822.2	661.3	584.9	565.9	624.1	698.7	774.8	833.7	863.5	832.6	770.4	674.4	599.6	562.0	552.1	406.4	225.6	157.1	146.3	357.9	1540	3675	3830	985.0	17.50	3.909	2.678	2.187	1.778	1.531	1.269	1.179	1.202	1.097	1.102	1.030	1.014	1.103	1.141	1.224	1.518	2.014	2.260	2.916	3.068	3.150	3.073	3.557	3.065	2.858	2.659	2.397	2.600	2.708	2.508	2.753	2.710	2.946	3.235	3.401	3.361	3.595	3.744	3.795	3.881	4.213	4.102	4.129	4.487	4.285	4.305	3.931	3.924
355.0	600.9	909.2	1112	1046	842.5	703.3	625.0	607.2	646.7	709.3	778.2	823.7	845.9	829.6	776.4	696.2	622.5	549.9	499.4	520.4	353.0	206.5	156.2	169.0	404.1	891.4	2713	5056	387.2	18.69	4.109	2.515	1.992	1.736	1.431	1.181	1.216	1.141	1.038	1.049	0.967	1.175	1.250	1.338	1.430	1.720	2.005	2.534	3.040	2.876	3.112	3.379	3.165	2.818	3.073	2.646	2.628	2.761	2.822	2.805	2.567	3.231	3.227	3.434	3.516	3.404	3.737	3.746	4.087	4.254	4.096	4.415	4.326	4.119	4.239	3.961	4.237
360.0	626.0	871.0	1046	1034	852.6	733.6	672.3	631.6	671.2	727.3	776.5	814.6	840.4	823.4	779.0	710.0	642.4	568.3	493.6	495.2	473.0	284.1	190.4	151.4	170.3	250.4	735.1	3806	3272	325.4	9.279	3.260	2.257	1.906	1.615	1.316	1.223	1.272	1.101	1.103	0.902	0.935	1.159	1.264	1.376	1.678	2.058	2.612	2.956	2.760	3.144	3.457	3.395	3.140	3.027	2.838	2.906	2.848	3.095	2.966	2.801	3.287	3.311	3.180	3.329	3.611	3.745	3.647	3.921	4.083	4.011	4.130	4.459	4.145	4.225	3.826	4.183
365.0	608.4	824.5	1001	1003	872.5	776.4	694.1	656.0	692.5	739.3	780.7	807.2	817.0	811.4	773.5	704.7	652.3	584.3	509.4	466.3	482.2	399.8	243.5	174.9	140.8	128.6	213.4	1140	4314	3012	48.60	5.801	3.229	2.346	1.599	1.440	1.357	1.162	1.119	1.177	0.945	1.041	1.128	1.209	1.351	1.649	1.983	2.467	2.721	2.609	2.923	3.557	3.361	3.107	3.079	2.975	2.960	3.124	3.113	2.835	3.015	3.143	3.300	3.300	3.481	3.545	3.413	3.720	3.786	3.903	3.918	4.073	4.191	4.155	4.159	4.069	4.298
370.0	568.4	807.5	955.5	979.5	887.6	798.1	712.1	698.7	712.8	752.5	785.1	800.7	809.1	796.2	756.5	706.7	667.1	606.6	540.6	484.6	446.6	452.8	371.5	236.1	172.4	132.5	121.3	306.4	1298	3371	3490	875.1	15.07	3.442	2.185	1.813	1.619	1.248	1.154	1.117	1.098	1.064	1.162	1.205	1.461	1.541	1.937	2.433	2.527	2.620	2.835	3.262	3.170	3.090	3.138	3.279	3.109	3.198	3.061	3.080	3.006	3.193	3.390	3.384	3.602	3.509	3.445	3.646	3.645	3.771	3.944	3.991	4.118	4.241	4.071	4.352	4.176
375.0	567.0	797.1	923.0	961.1	895.1	815.1	759.8	718.7	727.7	762.7	787.4	793.6	793.5	781.7	746.4	705.6	668.9	621.0	567.1	513.0	455.7	422.7	435.4	352.0	220.5	164.5	126.8	141.4	340.2	824.9	2591	4422	333.7	15.37	3.242	2.142	1.712	1.527	1.167	1.142	1.102	1.007	1.188	1.144	1.366	1.630	1.963	2.537	2.497	2.627	2.713	3.234	3.067	3.265	3.105	3.140	3.225	3.145	3.180	3.238	3.148	3.304	3.442	3.427	3.546	3.424	3.458	3.611	3.859	4.073	3.880	3.928	4.064	3.981	4.020	4.556	4.436
380.0	538.5	777.1	915.4	933.5	909.1	825.9	761.3	735.8	739.3	762.4	783.0	787.8	780.7	767.4	732.5	698.1	666.6	627.7	581.9	533.5	473.9	424.2	414.3	420.3	286.7	194.1	148.5	121.8	140.5	229.2	719.8	3456	2792	266.9	7.179	3.033	2.042	1.604	1.364	1.149	1.064	1.148	1.194	1.330	1.323	1.811	1.731	2.359	2.468	2.395	2.878	3.446	3.129	3.507	3.226	3.036	3.276	3.413	3.281	3.073	3.237	3.286	3.279	3.211	3.407	3.669	3.692	3.604	3.890	3.882	3.881	3.901	4.105	4.066	3.918	4.029	4.258
385.0	544.7	720.0	887.6	942.5	876.0	839.6	768.7	747.0	752.0	756.5	762.9	769.1	769.0	748.7	728.4	689.8	656.0	626.3	587.8	542.9	491.2	439.2	406.9	415.5	370.3	240.0	173.7	135.1	112.8	108.6	203.2	1056	3566	2455	39.34	4.510	2.595	1.860	1.554	1.292	1.095	1.203	1.174	1.295	1.355	1.666	1.824	2.263	2.394	2.467	2.642	3.236	3.181	3.338	3.196	2.963	3.167	3.269	3.562	3.162	3.308	3.401	3.443	3.332	3.569	3.272	3.515	3.637	3.755	3.697	3.682	3.871	3.781	3.789	3.968	3.908	4.236
390.0	512.9	711.5	863.6	926.9	890.5	839.6	778.0	765.6	753.4	760.3	763.1	755.4	750.7	732.6	699.8	674.3	647.3	619.3	584.7	548.5	507.7	460.9	421.6	392.5	391.0	332.0	224.6	168.8	132.4	105.3	103.1	275.2	1083	2654	2586	642.1	12.24	2.570	1.922	1.506	1.240	1.176	1.308	1.284	1.430	1.590	1.794	2.189	2.331	2.432	2.527	3.126	2.980	3.412	3.179	3.092	3.288	3.192	3.330	3.293	3.520	3.389	3.449	3.534	3.464	3.579	3.522	3.501	3.443	3.670	3.629	3.673	3.825	3.875	3.932	4.008	4.126
395.0	502.4	679.4	854.9	903.2	887.5	838.7	796.6	770.2	763.1	755.9	756.2	742.3	737.4	721.1	688.2	652.2	631.6	603.2	577.1	546.5	515.8	472.9	439.4	400.9	371.4	371.8	313.4	213.6	166.0	129.8	100.9	116.4	277.2	652.7	1991	3234	275.2	11.90	2.500	1.942	1.547	1.326	1.329	1.263	1.474	1.732	1.546	2.128	2.264	2.317	2.447	3.149	2.919	3.299	3.100	3.111	3.357	3.462	3.229	3.316	3.158	3.447	3.336	3.351	3.612	3.486	3.464	3.412	3.322	3.629	3.664	3.536	3.735	3.563	3.928	3.904	3.879
400.0	501.7	678.9	854.1	900.9	882.9	849.5	784.8	779.9	762.5	755.1	751.1	744.7	731.8	712.9	672.0	633.9	616.0	591.7	568.0	540.9	512.3	481.4	450.6	410.6	373.8	358.4	359.2	270.7	194.4	155.6	117.8	93.78	104.3	176.6	570.1	2608	2276	214.3	5.556	2.335	1.707	1.670	1.460	1.250	1.396	1.534	1.641	2.104	2.261	2.260	2.455	2.998	3.059	3.125	3.201	3.322	3.293	3.312	3.369	3.355	3.329	3.353	3.200	3.214	3.825	3.276	3.452	3.635	3.367	3.538	3.297	3.799	3.756	3.527	3.734	3.982	3.998
405.0	511.1	664.0	837.2	882.0	881.8	838.6	794.2	785.3	760.4	755.4	739.5	734.3	719.6	697.1	659.0	619.5	601.1	573.4	554.3	534.4	508.9	481.4	455.2	421.5	386.0	353.1	354.4	328.3	231.9	176.5	134.6	102.2	79.84	78.57	155.4	812.1	2697	1955	34.12	3.349	1.953	1.668	1.444	1.320	1.370	1.560	1.656	2.069	2.256	2.240	2.516	2.950	3.154	3.301	3.151	3.145	3.466	3.525	3.431	3.386	3.312	3.292	3.293	3.340	3.479	3.378	3.379	3.281	3.279	3.524	3.575	3.713	3.558	3.635	3.888	3.632	3.837
410.0	496.3	656.6	788.5	858.3	855.4	824.2	792.6	778.2	766.7	750.6	735.8	720.6	709.3	672.2	637.7	598.1	577.5	551.6	531.3	514.1	495.4	477.7	455.8	426.7	396.7	361.4	339.3	338.5	296.4	216.0	160.5	120.4	88.48	68.52	69.98	207.2	824.1	2006	1953	480.5	10.27	2.061	1.566	1.465	1.438	1.649	1.776	2.089	2.073	2.226	2.317	2.909	3.045	3.117	3.303	3.152	3.466	3.403	3.372	3.340	3.366	3.277	3.339	3.424	3.398	3.293	3.427	3.379	3.308	3.463	3.355	3.653	3.459	3.574	3.595	3.626	3.605
415.0	477.3	623.9	758.3	817.6	830.6	805.9	774.5	766.4	758.0	742.9	720.6	700.0	682.9	645.6	609.9	563.2	540.5	523.4	507.6	489.4	475.6	463.2	445.7	428.3	400.9	370.5	341.0	317.4	314.0	273.5	188.9	139.4	102.4	76.51	59.97	77.08	204.8	492.2	1470	2213	241.4	9.703	2.080	1.727	1.789	1.674	1.727	1.991	2.106	2.260	2.258	2.968	2.935	3.000	3.070	3.174	3.473	3.402	3.359	3.522	3.416	3.151	3.358	3.341	3.232	3.035	3.299	3.382	3.281	3.313	3.182	3.328	3.220	3.261	3.369	3.662	3.287
420.0	457.6	626.1	714.9	805.6	813.3	793.3	761.1	763.1	737.1	729.9	705.2	689.3	659.1	627.5	585.4	543.3	518.0	505.6	485.8	472.4	461.1	444.0	432.7	420.3	393.8	369.0	340.4	313.2	298.9	299.5	222.9	154.6	116.0	84.54	63.10	53.17	69.41	126.4	416.0	1820	1940	189.9	4.351	2.250	1.758	1.666	1.678	2.010	2.162	2.267	2.157	2.786	2.818	3.048	3.158	3.190	3.229	3.350	3.418	3.274	3.151	3.233	3.295	3.130	3.211	3.109	2.927	3.459	3.209	3.101	3.142	3.223	3.239	3.168	3.264	2.929	3.281
425.0	447.9	597.9	707.3	778.2	786.6	777.2	765.1	741.6	713.3	709.4	694.0	667.9	642.2	605.9	558.5	520.9	492.7	478.1	460.7	452.1	439.6	430.2	422.3	410.1	389.2	370.3	340.8	313.2	288.1	285.7	254.6	174.5	125.1	93.50	69.51	52.21	43.88	48.06	107.0	568.3	1997	1564	31.58	3.119	2.197	1.795	1.830	1.924	2.191	2.132	2.294	2.830	2.703	3.000	2.918	3.006	3.129	3.038	3.217	3.388	3.007	3.269	3.380	3.062	3.413	3.173	3.001	3.231	3.084	2.908	3.076	3.166	3.173	3.125	3.101	2.986	3.195
430.0	484.2	565.1	682.6	751.1	766.4	757.0	743.2	726.7	707.4	700.1	681.7	658.0	618.1	580.2	531.7	492.9	464.7	452.3	436.5	427.0	414.0	411.1	404.4	396.0	381.5	361.1	337.2	313.4	288.1	267.7	253.0	212.0	146.1	104.8	79.29	60.11	45.17	35.08	41.31	140.1	593.1	1470	1503	139.2	9.792	2.379	1.876	2.125	2.115	2.093	2.294	2.664	2.799	2.998	3.102	2.910	3.052	3.058	2.985	3.222	3.143	3.238	3.191	2.953	3.127	3.042	3.011	2.919	3.113	2.941	2.968	3.016	3.070	2.986	2.989	2.897	2.907
435.0	761.3	555.4	663.3	720.5	738.1	728.8	743.2	719.7	702.1	689.4	667.8	640.7	596.1	543.1	506.1	464.6	439.6	423.2	412.2	401.7	392.5	391.1	383.4	378.0	368.6	352.0	331.4	311.3	288.0	264.6	237.1	219.6	181.8	123.0	90.50	69.02	51.83	38.86	31.82	47.57	143.9	355.5	1078	1868	227.0	10.42	2.301	2.309	2.213	2.102	2.189	2.605	2.830	2.824	2.803	2.970	3.038	3.088	3.169	3.271	2.926	3.384	3.049	3.067	3.131	3.174	2.953	3.014	2.957	2.873	2.879	2.724	2.886	2.820	2.858	2.711	2.969
440.0	1058	589.1	635.9	695.4	708.8	716.0	718.6	698.0	693.9	661.8	648.6	626.4	583.0	533.1	487.9	443.6	417.3	400.2	390.3	384.5	373.0	373.2	367.1	361.5	353.6	343.0	323.8	304.3	286.0	262.8	231.0	206.6	194.6	143.5	99.96	75.64	57.23	43.35	32.69	29.88	46.94	90.30	300.6	1468	1735	183.2	5.022	2.649	2.294	2.030	2.211	2.471	2.803	2.705	2.783	2.682	2.736	3.181	2.901	3.111	3.006	3.213	2.955	3.082	2.868	2.811	2.736	2.792	2.880	2.858	2.740	2.780	2.698	2.637	2.749	2.577	2.697
445.0	1196	766.0	606.1	671.4	676.2	689.2	693.3	694.6	676.7	652.6	640.6	604.9	560.9	507.9	465.4	422.9	396.1	380.7	368.1	363.1	354.4	352.4	353.0	347.6	340.1	326.8	316.2	298.0	280.0	259.1	228.4	196.7	184.7	161.4	110.9	81.43	62.55	47.41	35.92	28.74	26.99	32.64	76.80	449.2	1697	1448	27.86	3.446	2.489	2.200	1.971	2.532	2.481	2.678	2.657	2.606	2.682	2.936	2.827	2.836	2.952	2.933	2.664	3.128	2.698	2.898	2.704	2.751	2.836	2.809	2.601	2.643	2.768	2.693	2.823	2.493	2.698
450.0	880.0	1277	674.8	622.9	640.1	653.9	654.0	657.0	647.1	623.1	608.7	571.7	526.6	476.3	433.1	394.2	367.3	353.6	342.4	335.2	329.0	327.5	325.3	324.2	316.6	308.9	296.4	285.6	269.0	250.1	223.0	191.4	166.2	154.9	130.2	93.33	68.41	52.06	41.73	32.26	25.88	22.41	28.73	109.9	494.5	1277	1377	381.1	9.064	2.411	2.066	2.451	2.658	2.628	2.672	2.607	2.780	2.995	2.888	2.862	2.910	2.861	2.753	3.025	2.835	2.672	2.655	2.576	2.687	2.567	2.600	2.571	2.591	2.444	2.489	2.419	2.404
455.0	480.3	1457	1099	606.2	609.0	611.1	617.5	618.1	606.2	589.2	569.1	538.1	489.2	446.3	395.6	360.2	334.7	319.6	309.2	303.2	300.6	297.5	296.1	291.6	290.3	282.8	271.7	261.5	251.6	235.4	214.1	187.3	159.1	139.0	129.6	110.0	77.49	57.07	45.59	36.75	28.84	23.19	20.30	34.93	118.6	304.1	840.3	1601	193.2	9.365	2.444	2.640	2.527	2.427	2.493	2.614	2.594	2.689	2.701	2.799	2.847	2.795	2.822	2.866	2.552	2.594	2.461	2.403	2.560	2.560	2.342	2.296	2.410	2.251	2.352	2.407	2.267
460.0	350.0	1118	1685	664.8	560.1	572.7	586.7	571.3	575.8	557.8	538.9	506.8	461.8	417.6	372.5	337.1	315.5	299.3	286.9	280.0	274.2	275.2	272.6	271.3	269.7	262.2	255.1	244.3	238.0	224.8	204.2	177.1	150.7	130.7	119.1	114.3	87.95	60.94	48.95	38.62	30.85	25.20	19.97	20.03	36.03	75.30	221.0	1103	1370	148.4	5.521	2.665	2.592	2.282	2.295	2.595	2.650	2.553	2.718	2.514	2.731	2.585	2.705	2.687	2.693	2.547	2.398	2.280	2.601	2.249	2.403	2.196	2.081	2.101	2.109	2.177	2.284
465.0	296.6	687.2	1968	891.8	523.3	524.1	546.5	540.5	544.2	523.7	507.1	476.8	432.4	387.8	348.7	313.0	292.4	277.3	267.5	261.2	256.2	253.1	251.4	249.7	249.2	243.8	237.9	228.5	222.3	213.0	193.7	168.5	145.8	126.6	109.8	104.8	96.75	67.61	51.45	40.10	33.36	27.20	20.96	17.78	18.37	25.20	56.39	315.3	1245	1123	23.29	4.025	2.496	2.462	2.222	2.338	2.319	2.361	2.663	2.435	2.562	2.445	2.663	2.522	2.632	2.355	2.286	2.191	2.319	1.967	2.291	2.172	2.011	1.977	2.001	2.118	1.987
470.0	265.0	427.0	1415	1735	596.9	483.8	489.5	500.5	488.5	480.8	469.6	435.5	393.6	351.7	310.7	279.6	262.4	247.5	238.6	232.1	228.2	224.3	223.8	223.5	222.7	218.3	212.7	206.4	202.1	193.3	178.6	156.8	137.6	119.2	101.6	91.67	89.09	76.56	56.22	42.29	34.56	28.18	23.18	18.42	16.00	14.58	20.34	76.89	346.7	870.0	976.8	339.8	10.06	2.450	2.250	2.042	2.382	2.313	2.220	2.345	2.350	2.292	2.204	2.253	2.377	2.230	2.168	2.015	2.038	2.053	2.018	2.006	1.841	1.941	1.791	1.829	1.868
475.0	274.0	336.4	667.0	1952	1179	451.2	432.5	443.2	438.8	427.4	418.1	393.1	358.5	313.6	280.3	250.0	231.6	218.6	209.0	203.0	199.6	196.5	195.8	196.3	195.2	190.9	185.5	181.9	180.8	174.1	162.6	144.7	126.8	109.6	94.02	84.27	75.57	73.18	64.57	45.10	35.31	29.32	24.40	20.03	16.46	13.60	12.82	24.17	82.88	202.5	485.4	1080	199.1	12.60	2.370	2.037	2.361	2.037	2.252	2.252	2.075	2.093	2.032	2.063	2.176	2.096	1.953	1.884	1.749	1.902	1.781	1.720	1.697	1.646	1.530	1.682	1.671
480.0	257.4	318.9	396.1	1442	1886	514.9	405.3	413.2	414.7	401.8	391.5	367.3	324.0	293.1	258.0	232.3	209.2	201.2	190.5	187.9	183.7	179.4	178.7	178.8	177.1	174.2	171.1	167.4	164.0	158.4	147.4	135.4	120.3	103.0	90.11	79.89	69.65	66.16	65.07	50.86	36.72	29.30	24.57	20.51	17.13	14.35	12.14	12.68	24.36	50.10	121.6	599.2	1009	181.1	6.741	2.183	2.392	2.052	2.015	2.109	1.920	1.967	1.956	1.850	2.018	1.997	1.890	1.695	1.716	1.725	1.608	1.669	1.614	1.601	1.498	1.435	1.522
485.0	238.9	294.6	320.9	825.7	2199	855.4	378.6	391.1	385.1	378.5	366.8	342.8	303.0	271.7	238.8	214.0	194.9	185.6	178.0	170.9	168.1	164.4	165.0	164.7	163.2	160.4	155.9	153.8	152.2	148.4	137.3	126.8	112.7	99.85	86.17	77.36	66.03	59.21	59.32	56.08	40.02	29.77	25.51	20.10	18.00	14.92	12.60	10.60	11.74	16.27	31.54	159.7	761.5	947.6	28.82	3.880	2.250	1.931	1.928	1.913	1.967	1.885	1.942	1.771	1.805	1.880	1.752	1.749	1.603	1.811	1.475	1.581	1.388	1.445	1.418	1.320	1.400
490.0	204.0	317.6	307.5	442.1	1524	1751	444.7	356.1	351.1	351.7	335.3	312.0	277.5	245.7	218.7	194.7	176.5	167.7	161.1	156.2	150.3	148.7	147.6	147.9	146.8	144.7	141.2	141.0	139.1	134.7	127.2	116.4	103.5	92.98	80.50	72.27	63.04	55.19	51.64	51.71	45.39	33.86	26.21	21.25	19.04	15.39	13.31	10.98	9.564	9.194	11.71	39.86	198.8	576.6	811.0	360.2	12.81	2.280	1.917	1.969	1.714	1.745	1.749	1.642	1.613	1.666	1.616	1.637	1.572	1.668	1.508	1.457	1.360	1.259	1.301	1.379	1.318
495.0	158.4	284.3	312.9	307.2	662.4	2020	1072	321.9	318.9	315.7	306.8	285.7	251.2	224.0	194.1	175.0	161.1	150.6	143.8	140.0	132.3	132.1	131.0	133.4	131.9	129.8	125.6	124.8	123.9	120.8	116.2	105.8	93.75	84.47	73.96	65.98	58.52	52.23	46.48	43.42	44.68	39.25	28.29	21.92	18.75	15.72	13.31	11.42	9.740	8.362	7.606	13.12	47.79	132.9	363.7	975.1	234.0	16.89	2.112	1.939	1.722	1.582	1.610	1.541	1.523	1.577	1.461	1.540	1.491	1.440	1.468	1.425	1.327	1.197	1.243	1.240	1.314
500.0	141.1	229.3	323.1	279.4	359.0	1426	1844	380.9	293.2	292.5	280.5	259.0	235.1	207.5	181.8	162.4	145.5	138.2	129.6	124.4	121.2	119.0	118.3	118.1	118.5	117.2	112.3	112.6	112.5	111.0	105.4	97.40	87.33	78.08	68.69	61.49	55.44	49.35	44.04	39.57	38.05	39.58	31.56	22.30	18.56	15.58	13.90	11.63	10.03	8.399	7.023	7.371	14.69	33.19	88.42	467.4	973.9	215.9	10.70	1.805	1.741	1.569	1.583	1.510	1.478	1.549	1.512	1.363	1.340	1.297	1.274	1.382	1.247	1.330	1.147	1.090	1.041
505.0	126.3	196.7	301.6	270.2	271.1	747.7	2216	725.4	271.5	271.3	258.6	238.8	211.1	189.7	169.4	145.9	133.0	126.4	119.3	113.0	111.6	108.2	106.6	106.6	106.1	104.7	101.2	101.9	101.2	100.2	96.38	87.89	80.88	71.68	64.46	56.63	51.57	45.65	40.81	35.91	33.64	34.27	33.38	24.55	18.21	15.86	13.73	11.52	10.10	8.802	6.856	5.940	7.125	10.78	22.91	116.8	579.8	917.3	178.0	5.098	1.710	1.652	1.579	1.499	1.503	1.411	1.399	1.191	1.363	1.239	1.255	1.184	1.118	1.134	1.155	0.978	0.989
510.0	119.5	158.7	248.5	280.0	228.3	347.0	1477	1692	313.3	234.7	227.1	210.1	191.7	165.7	146.7	127.3	117.6	110.4	104.2	97.98	97.58	94.36	93.81	92.52	91.48	90.01	89.10	88.15	88.30	88.21	83.97	76.77	70.29	64.54	57.47	51.89	46.20	41.84	37.12	33.35	30.33	28.15	29.58	27.09	20.09	15.51	13.40	11.52	9.669	8.577	7.222	6.087	5.440	5.853	8.026	28.92	143.6	461.9	700.5	318.7	13.68	1.840	1.515	1.341	1.339	1.243	1.223	1.112	1.090	1.147	0.952	1.088	0.971	1.009	0.967	1.025	0.988
515.0	104.5	126.1	199.3	266.0	226.2	223.9	564.5	2012	961.9	212.3	199.8	183.1	166.6	146.0	128.6	110.9	104.0	95.82	89.08	85.92	82.36	82.07	79.50	78.84	79.62	77.12	76.01	75.95	76.65	76.91	72.56	67.53	60.74	56.30	50.60	45.46	41.12	37.30	33.92	29.79	26.75	24.29	23.82	25.94	22.63	16.94	13.04	10.82	9.255	8.046	6.985	6.633	5.303	4.734	4.665	9.079	34.40	105.7	241.1	693.1	241.1	19.22	1.646	1.290	1.137	1.097	1.164	1.025	1.062	1.014	0.888	1.035	0.959	0.865	0.974	0.924	0.905
520.0	94.51	116.0	158.2	245.0	242.1	188.3	274.5	1386	1792	271.4	179.4	170.0	149.2	132.2	115.6	100.4	91.53	87.49	80.52	77.44	73.20	72.42	70.77	70.92	70.77	68.31	68.53	67.10	68.26	67.94	64.04	61.22	54.00	49.96	45.58	41.68	37.63	33.45	30.44	27.85	25.40	21.51	20.80	21.77	22.60	18.33	12.98	10.55	9.398	7.528	6.870	6.026	5.748	4.580	3.963	4.849	10.21	25.61	56.96	290.3	693.4	221.1	11.91	1.471	1.221	1.238	1.082	0.969	0.938	0.916	0.887	0.899	0.918	0.788	0.837	0.835	0.785
525.0	80.90	106.3	136.6	202.1	253.8	181.3	189.6	656.7	2269	636.6	162.4	154.6	131.8	116.2	105.3	92.35	83.75	77.81	71.54	68.84	67.56	64.57	63.95	63.24	62.30	60.74	61.29	60.04	60.89	60.43	57.84	54.45	49.02	44.75	40.57	37.37	34.17	31.11	28.55	25.48	23.36	20.03	19.05	18.35	19.87	19.09	13.68	10.38	8.812	7.514	6.810	5.762	5.577	4.799	3.936	3.960	4.818	8.058	14.83	70.32	355.7	666.0	177.5	5.625	1.350	1.165	1.128	0.982	0.928	0.800	0.920	0.765	0.866	0.808	0.771	0.715	0.745
530.0	73.09	93.37	117.1	151.3	227.8	196.0	155.9	269.0	1455	1724	218.5	133.0	116.6	100.9	89.40	79.53	73.02	68.03	61.78	59.92	57.87	55.90	54.46	55.05	53.67	53.47	52.82	51.51	51.83	51.88	49.55	46.92	42.76	39.83	36.12	32.92	30.48	27.27	25.14	22.49	20.21	18.37	16.70	15.47	15.51	16.88	15.34	11.17	8.381	7.085	6.278	5.374	5.160	4.749	4.270	3.506	3.527	4.149	5.344	17.55	85.65	293.7	486.5	248.0	14.40	1.325	0.977	0.975	0.913	0.736	0.805	0.728	0.706	0.691	0.786	0.702	0.617
535.0	69.60	82.78	103.5	112.7	164.8	226.3	143.7	164.2	497.1	2078	900.1	119.7	104.1	88.06	75.22	67.62	61.10	57.49	53.43	51.09	48.46	47.87	45.80	45.77	43.90	45.11	43.78	44.69	42.47	43.23	43.03	39.27	37.27	33.09	30.98	28.49	26.21	23.97	22.34	19.62	17.67	16.40	14.54	13.02	12.79	12.43	14.40	12.30	8.811	6.839	5.625	5.282	4.414	4.581	4.178	3.687	3.173	2.943	3.019	5.588	20.62	67.10	149.3	453.2	243.8	19.28	1.082	1.022	0.766	0.798	0.789	0.678	0.732	0.618	0.661	0.690	0.614
540.0	61.42	79.52	92.09	88.51	129.7	213.8	151.6	125.2	204.4	1327	1790	170.7	89.94	79.05	67.38	61.74	53.65	49.96	48.01	44.95	43.81	42.62	39.87	39.39	40.08	39.45	38.60	38.63	38.24	37.74	37.22	34.55	32.33	29.46	27.75	25.06	23.15	21.10	19.25	17.33	16.36	14.26	13.20	11.86	11.15	10.69	11.87	12.90	9.716	6.568	5.886	4.923	4.310	4.230	3.840	3.725	3.354	2.852	2.525	2.797	6.184	16.28	35.01	171.4	480.3	213.1	11.81	0.998	0.756	0.796	0.783	0.659	0.670	0.531	0.664	0.564	0.657
545.0	52.06	64.21	80.02	86.63	103.7	180.3	161.1	111.5	121.8	556.8	2238	470.9	82.23	71.38	60.46	53.10	48.21	44.40	41.62	39.21	38.10	35.14	36.12	35.38	34.35	34.69	34.77	33.64	33.12	34.56	33.77	30.22	28.69	25.69	24.35	22.20	20.48	19.21	17.43	15.87	14.71	13.01	12.15	10.90	9.990	9.214	9.400	10.65	9.837	7.168	5.100	4.607	4.156	3.901	3.515	3.586	3.420	2.818	2.238	2.279	2.679	5.074	9.111	40.79	221.5	469.1	158.0	4.736	0.875	0.676	0.692	0.667	0.555	0.571	0.590	0.605	0.488
550.0	56.98	63.53	73.89	76.87	84.87	124.1	173.8	108.9	91.96	197.1	1338	1504	127.2	59.63	51.54	44.55	40.17	36.90	35.05	33.30	30.93	30.33	29.77	29.48	28.67	28.28	28.27	27.48	27.73	28.59	27.26	24.93	23.71	21.98	20.18	18.88	17.00	16.01	14.96	13.61	12.52	11.31	10.28	9.511	8.827	8.059	7.665	7.852	8.650	7.766	5.349	4.233	3.587	3.399	3.082	3.227	3.137	2.749	2.150	1.946	1.965	2.439	3.188	10.11	52.68	192.2	331.4	140.2	13.48	0.942	0.622	0.612	0.537	0.532	0.568	0.534	0.504
555.0	56.25	57.84	65.95	68.67	69.11	84.47	145.1	123.2	74.81	99.97	411.6	1887	614.1	53.16	42.75	37.12	32.17	30.69	28.68	26.86	25.49	24.74	24.18	24.01	23.06	23.08	22.29	22.45	22.24	23.03	22.15	20.22	18.64	17.42	16.37	15.21	14.00	13.27	12.07	11.29	10.04	9.472	8.360	7.746	7.294	7.226	6.501	5.997	6.146	6.642	5.594	4.311	3.161	2.995	2.779	2.824	2.506	2.692	2.261	1.810	1.595	1.683	1.727	3.182	12.67	43.76	98.66	282.1	216.7	17.19	0.786	0.536	0.568	0.493	0.544	0.410	0.399
560.0	52.42	55.17	54.45	58.29	59.64	63.63	106.9	141.5	69.82	71.50	144.3	1187	1351	83.75	37.43	31.61	27.81	25.61	24.37	22.66	21.55	21.06	20.14	20.57	18.91	19.20	18.60	19.40	19.63	19.63	18.20	17.27	15.75	14.75	13.40	12.71	12.08	11.15	10.34	9.509	8.665	7.922	7.084	6.887	6.277	5.918	5.412	4.949	4.863	5.603	5.464	4.411	3.077	2.619	2.577	2.484	2.012	2.071	2.301	1.828	1.422	1.361	1.449	1.628	3.721	10.64	23.15	104.8	306.2	161.9	8.918	0.624	0.449	0.449	0.529	0.432	0.432
565.0	48.52	59.50	58.35	51.07	52.39	58.09	74.76	142.4	79.41	59.37	76.34	459.5	1862	157.9	32.83	27.73	24.38	21.82	20.87	19.68	19.84	17.81	16.80	17.26	15.83	16.25	15.47	16.38	16.65	16.06	15.68	14.70	13.60	12.65	11.61	10.85	9.864	9.319	9.057	8.292	7.339	7.009	6.539	6.257	5.460	5.120	4.585	4.408	4.059	4.169	4.821	4.396	3.281	2.353	2.111	2.184	1.845	1.863	2.089	2.051	1.424	1.093	1.315	1.252	1.756	3.119	6.096	24.96	134.9	286.0	99.91	3.214	0.590	0.463	0.446	0.406	0.399
570.0	48.47	58.37	58.18	48.25	45.93	50.02	52.38	106.3	105.2	54.37	55.29	146.9	1139	1086	65.66	22.98	20.50	18.46	17.05	15.78	15.22	14.62	14.51	13.90	13.75	13.35	13.19	12.70	12.80	12.70	13.15	11.99	11.01	10.63	9.492	8.827	8.370	7.680	7.301	6.704	6.296	6.051	5.220	5.063	4.491	4.445	4.109	3.700	3.289	2.990	3.467	3.897	3.359	2.486	1.845	1.793	1.721	1.605	1.663	1.780	1.816	1.271	1.185	1.081	1.234	1.444	2.120	6.290	31.98	112.8	195.2	106.2	11.44	0.610	0.469	0.395	0.363
575.0	58.66	62.24	49.33	42.79	40.01	40.85	42.27	66.09	117.4	63.85	47.59	66.03	333.0	1446	395.2	19.93	16.99	15.53	13.80	12.94	11.99	11.60	12.08	11.27	10.79	10.62	10.30	10.23	10.40	10.18	10.29	9.643	9.143	8.323	7.481	7.265	6.612	6.421	5.970	5.498	4.776	4.804	4.069	4.002	3.922	3.588	3.414	3.237	2.660	2.550	2.441	2.741	3.159	2.625	1.807	1.510	1.422	1.460	1.218	1.387	1.455	1.580	1.239	0.952	1.085	0.968	1.261	2.083	7.786	25.77	56.69	165.9	138.1	13.34	0.555	0.445	0.377
580.0	59.11	60.61	52.90	38.54	34.84	33.87	35.39	45.66	102.6	82.19	45.59	47.59	108.5	917.6	949.9	35.15	15.26	12.37	12.43	11.73	10.39	9.705	10.03	9.427	9.276	8.832	8.709	8.381	8.625	8.936	8.293	7.970	7.834	6.889	6.170	6.080	5.570	5.328	4.837	4.586	4.409	4.090	3.536	3.595	3.337	2.987	3.029	2.694	2.206	2.229	2.075	2.077	2.564	2.862	1.986	1.537	1.365	1.320	1.187	1.183	1.151	1.260	1.399	0.953	0.854	0.839	1.022	1.220	2.449	6.344	13.44	60.59	179.7	98.85	5.600	0.415	0.347
585.0	50.67	57.04	52.07	39.39	30.82	31.83	33.85	34.55	74.11	101.3	47.20	42.75	50.56	346.5	1348	102.9	13.92	10.83	10.81	9.743	8.852	8.764	8.159	7.854	7.629	7.811	7.563	7.378	7.974	7.320	7.143	6.935	6.616	5.533	5.590	5.338	5.211	4.610	4.546	4.154	3.886	3.476	3.196	2.992	2.764	2.631	2.723	2.418	1.934	1.856	1.738	1.686	1.843	2.350	2.218	1.634	1.250	1.195	1.207	1.096	0.947	1.078	1.235	1.329	0.819	0.740	0.841	0.958	1.200	2.057	3.610	14.44	76.61	170.9	33.57	2.137	0.368
590.0	51.91	54.13	49.23	36.29	29.30	28.45	28.87	30.20	48.56	99.40	64.69	41.40	39.21	104.7	812.5	666.3	30.69	9.437	8.781	8.220	7.413	7.357	7.040	6.756	6.437	6.462	6.353	6.004	6.124	6.331	5.736	5.623	5.389	4.737	4.638	4.497	4.157	3.870	3.622	3.352	3.206	2.888	2.813	2.493	2.361	2.252	2.199	2.123	1.779	1.569	1.512	1.378	1.509	1.742	2.028	1.716	1.261	1.071	1.069	0.966	0.849	0.919	1.025	1.285	1.116	0.776	0.811	0.817	0.866	0.971	1.283	3.703	18.16	65.94	109.4	69.50	9.272
595.0	50.40	49.38	43.69	35.36	26.92	24.46	25.15	29.39	34.81	70.95	88.36	43.58	35.52	43.25	230.1	955.9	210.1	8.334	7.678	6.297	5.990	6.299	5.793	5.359	5.079	4.882	5.145	5.124	4.680	4.768	4.753	4.697	4.492	3.837	3.637	3.558	3.292	2.979	2.803	2.908	2.517	2.091	2.292	2.090	2.045	1.899	1.607	1.596	1.558	1.293	1.212	1.205	1.236	1.152	1.581	1.595	1.339	0.946	0.987	0.771	0.799	0.788	0.801	0.988	1.070	0.916	0.779	0.734	0.726	0.691	0.793	1.286	4.527	15.10	31.31	98.49	87.54
600.0	42.51	45.18	42.76	32.36	26.28	22.36	24.23	27.96	31.38	48.93	94.85	50.06	35.87	29.85	68.46	635.0	573.8	14.27	6.489	5.654	5.309	5.420	4.712	4.931	4.799	4.289	4.295	4.197	4.187	4.133	4.161	3.983	3.792	3.283	3.307	3.113	2.833	2.632	2.553	2.485	2.136	2.079	1.889	1.856	1.827	1.609	1.518	1.488	1.253	1.170	1.041	1.141	1.010	0.920	1.194	1.436	1.459	1.078	0.813	0.663	0.724	0.749	0.711	0.637	0.936	1.052	0.682	0.694	0.587	0.697	0.515	0.813	1.392	3.731	7.466	35.31	107.5
605.0	41.33	46.74	43.94	31.34	24.75	22.31	24.25	27.88	29.11	39.56	85.57	61.78	35.44	27.64	28.61	243.1	834.8	62.63	5.797	5.362	4.716	4.412	3.916	4.212	4.095	3.790	3.907	3.478	3.674	3.535	3.515	3.530	3.114	3.024	2.776	2.596	2.466	2.381	2.326	2.083	1.982	1.749	1.589	1.717	1.635	1.611	1.381	1.276	1.136	1.015	0.952	0.977	0.853	0.811	0.843	1.207	1.352	1.164	0.923	0.717	0.646	0.641	0.688	0.596	0.791	0.926	0.960	0.720	0.533	0.564	0.515	0.546	0.632	1.169	2.019	8.496	44.20
610.0	39.61	45.59	43.15	31.22	24.29	22.54	23.77	26.95	30.35	36.13	61.73	81.51	39.52	28.50	21.60	68.54	552.4	413.1	13.61	4.524	3.908	3.896	3.464	3.518	3.372	3.269	3.119	2.867	2.988	3.079	3.051	2.905	2.669	2.504	2.366	2.100	2.106	2.070	2.058	1.605	1.621	1.536	1.318	1.344	1.265	1.255	1.121	1.056	0.960	0.870	0.802	0.803	0.764	0.702	0.705	0.872	1.097	1.175	0.934	0.714	0.610	0.599	0.600	0.561	0.611	0.735	0.805	0.824	0.658	0.631	0.538	0.514	0.471	0.648	0.769	2.216	10.43
615.0	43.27	41.26	38.85	27.24	21.95	21.44	20.78	26.65	28.21	33.28	43.66	76.43	50.95	27.10	19.79	25.13	163.0	654.6	72.51	3.960	3.591	3.004	3.060	3.064	2.711	2.539	2.431	2.262	2.518	2.539	2.433	2.360	1.946	2.058	1.987	1.822	1.583	1.701	1.597	1.413	1.381	1.296	1.167	1.117	1.079	1.000	0.886	1.002	0.863	0.708	0.694	0.677	0.609	0.704	0.588	0.624	0.714	0.926	0.941	0.729	0.584	0.544	0.607	0.501	0.598	0.558	0.603	0.775	0.789	0.582	0.615	0.429	0.450	0.497	0.449	0.798	2.647
620.0	36.24	39.65	36.36	25.11	22.06	20.27	21.73	23.89	26.46	30.78	39.70	64.14	62.15	27.24	18.33	14.17	45.73	475.3	336.5	6.628	3.305	2.618	2.372	2.573	2.241	2.156	2.263	2.091	2.090	2.138	1.971	2.180	1.850	1.802	1.778	1.649	1.627	1.399	1.406	1.238	1.054	1.100	1.031	1.020	0.912	0.779	0.780	0.869	0.712	0.594	0.579	0.577	0.575	0.576	0.614	0.583	0.577	0.764	0.819	0.768	0.651	0.439	0.548	0.475	0.615	0.474	0.574	0.658	0.760	0.709	0.562	0.367	0.418	0.436	0.399	0.427	0.867
625.0	32.28	38.23	32.80	25.95	21.63	19.83	20.16	23.42	27.11	29.77	37.77	49.84	69.46	30.81	18.10	12.03	16.93	197.7	564.4	33.29	3.220	2.601	2.165	2.335	2.156	2.158	1.987	1.849	1.705	1.803	1.823	1.785	1.681	1.522	1.381	1.483	1.426	1.270	1.218	1.062	0.993	0.942	0.932	0.818	0.834	0.913	0.661	0.783	0.629	0.543	0.501	0.610	0.548	0.491	0.468	0.454	0.521	0.681	0.674	0.742	0.613	0.435	0.455	0.540	0.506	0.500	0.595	0.460	0.641	0.774	0.577	0.428	0.366	0.442	0.364	0.343	0.487
630.0	37.24	34.03	31.43	23.40	21.56	20.26	19.07	22.67	24.93	28.27	35.71	40.00	60.12	41.81	19.01	11.87	10.43	54.10	423.5	254.8	6.271	2.385	1.927	1.944	1.848	1.886	1.705	1.531	1.654	1.645	1.619	1.447	1.378	1.231	1.297	1.107	1.080	1.137	1.075	0.928	0.877	0.850	0.766	0.742	0.711	0.761	0.615	0.576	0.524	0.527	0.484	0.452	0.485	0.446	0.417	0.410	0.495	0.490	0.489	0.616	0.593	0.551	0.450	0.413	0.459	0.476	0.488	0.424	0.566	0.650	0.673	0.445	0.438	0.393	0.316	0.356	0.382
635.0	32.88	36.43	27.16	21.11	17.98	16.25	18.21	22.30	23.35	28.05	33.13	33.82	43.00	49.65	22.04	12.94	9.889	17.20	132.4	469.4	48.75	2.512	1.876	1.635	1.480	1.420	1.404	1.296	1.451	1.299	1.250	1.159	1.116	1.018	1.047	0.999	0.963	0.881	0.880	0.815	0.714	0.706	0.656	0.669	0.614	0.646	0.553	0.564	0.499	0.430	0.452	0.433	0.421	0.351	0.409	0.384	0.374	0.417	0.412	0.535	0.596	0.616	0.419	0.370	0.397	0.468	0.495	0.434	0.458	0.508	0.621	0.466	0.426	0.386	0.344	0.327	0.380
640.0	34.45	36.96	24.84	22.03	19.61	19.40	18.50	21.24	24.97	26.47	29.55	33.57	35.20	51.65	28.42	14.57	10.24	9.796	36.51	380.4	207.8	3.349	1.617	1.588	1.585	1.207	1.327	1.285	1.195	1.197	1.204	1.019	1.063	0.965	1.009	0.953	0.973	0.773	0.735	0.783	0.709	0.640	0.590	0.531	0.597	0.535	0.519	0.535	0.435	0.361	0.401	0.412	0.403	0.363	0.369	0.382	0.363	0.418	0.445	0.469	0.518	0.550	0.445	0.409	0.344	0.413	0.494	0.374	0.436	0.416	0.529	0.543	0.523	0.408	0.340	0.309	0.451
645.0	34.49	33.79	32.16	23.95	18.92	17.49	19.92	19.97	24.47	27.53	30.99	32.28	34.70	44.12	36.42	15.76	12.31	9.267	13.45	176.2	382.7	17.09	1.744	1.386	1.336	1.263	1.180	1.129	1.147	1.100	0.981	1.070	0.908	0.889	0.868	0.888	0.859	0.749	0.701	0.710	0.560	0.623	0.577	0.486	0.479	0.518	0.438	0.441	0.370	0.355	0.380	0.416	0.363	0.382	0.315	0.320	0.368	0.373	0.374	0.529	0.480	0.476	0.427	0.489	0.412	0.345	0.400	0.427	0.367	0.351	0.381	0.424	0.487	0.483	0.373	0.366	0.345
650.0	34.48	31.89	34.87	27.03	17.80	18.60	19.78	19.16	24.01	27.62	30.99	31.65	31.93	37.26	41.48	18.81	12.30	9.159	8.668	54.54	400.3	62.84	2.045	1.227	1.103	1.119	1.088	0.952	1.020	1.043	0.911	0.896	0.908	0.796	0.834	0.811	0.847	0.672	0.694	0.633	0.536	0.535	0.590	0.522	0.418	0.436	0.407	0.490	0.365	0.344	0.323	0.356	0.308	0.338	0.340	0.348	0.360	0.372	0.374	0.432	0.326	0.405	0.404	0.494	0.377	0.337	0.465	0.392	0.445	0.358	0.394	0.328	0.494	0.551	0.332	0.376	0.330
