Sample:	'1
File name:	支脉河辛沙路桥断面18.FD3
Run date:	'19:33:54, 06/11/2025
Operator:	Administrator
Comment:	'

Instrument
Model:	F-2700 FL Spectrophotometer
Serial number:	23B8-004
ROM Version:	4J14000 07

Instrument parameters
Measurement type:	3-D scan
Data mode:	Fluorescence
EX  Start WL:	220.0 nm
EX  End WL:	600.0 nm
EX Sampling interval:	5.0 nm
EM  Start WL:	230.0 nm
EM  End WL:	650.0 nm
EM Sampling interval:	5.0 nm
Scan speed:	12000 nm/min
EX Slit:	5.0 nm
EM Slit:	5.0 nm
PMT Voltage:	700 V
Response:	Auto 
Corrected spectra:	Off
Contour interval:	50.000

Peak integration
Integration method:	Rectangular
Sensitivity:	1
Threshold:	1.000

Peaks
No.	ApexEX/EM(nm)	Height(Data)
1	225.0/600.0	74.75
2	225.0/625.0	86.28
3	230.0/340.0	2179
4	250.0/545.0	204.9
5	255.0/280.0	531.8
6	255.0/560.0	164.8
7	260.0/285.0	574.3
8	260.0/570.0	133.9
9	265.0/585.0	115.4
10	270.0/385.0	1161
11	270.0/410.0	1193
12	270.0/600.0	103.3
13	275.0/305.0	1595
14	275.0/610.0	114.4
15	280.0/315.0	1656
16	280.0/625.0	107.5
17	285.0/320.0	1642
18	285.0/635.0	82.88
19	455.0/340.0	5.715
20	460.0/345.0	5.726
21	475.0/365.0	5.132
22	505.0/275.0	2.737
23	515.0/280.0	3.071
24	520.0/285.0	3.534
25	530.0/290.0	3.476
26	560.0/310.0	8.175
27	570.0/315.0	8.803
28	580.0/320.0	8.279
29	585.0/325.0	7.927

Data points
	220.0	225.0	230.0	235.0	240.0	245.0	250.0	255.0	260.0	265.0	270.0	275.0	280.0	285.0	290.0	295.0	300.0	305.0	310.0	315.0	320.0	325.0	330.0	335.0	340.0	345.0	350.0	355.0	360.0	365.0	370.0	375.0	380.0	385.0	390.0	395.0	400.0	405.0	410.0	415.0	420.0	425.0	430.0	435.0	440.0	445.0	450.0	455.0	460.0	465.0	470.0	475.0	480.0	485.0	490.0	495.0	500.0	505.0	510.0	515.0	520.0	525.0	530.0	535.0	540.0	545.0	550.0	555.0	560.0	565.0	570.0	575.0	580.0	585.0	590.0	595.0	600.0
230.0	77.63	1111	4386	2177	124.0	8.374	5.554	4.690	4.707	3.952	3.716	3.628	3.136	2.800	2.453	1.789	1.742	1.607	1.419	1.194	1.103	0.966	0.942	0.878	0.747	0.716	0.667	0.627	0.562	0.534	0.556	0.514	0.553	0.429	0.383	0.425	0.401	0.409	0.364	0.351	0.359	0.590	0.592	0.449	0.326	0.309	0.949	6.885	14.71	12.79	5.404	1.137	0.262	0.203	0.215	0.183	0.177	0.178	0.199	0.175	0.179	0.190	0.173	0.143	0.167	0.151	0.140	0.177	0.173	0.172	0.162	0.183	0.154	0.165	0.135	0.148	0.175
235.0	169.1	308.1	1933	4295	2289	194.0	7.517	6.207	5.552	4.780	4.400	4.191	3.231	2.464	2.420	2.116	1.516	1.656	1.334	1.199	0.896	1.012	0.922	0.927	0.745	0.826	0.645	0.642	0.628	0.485	0.527	0.521	0.522	0.488	0.423	0.498	0.390	0.318	0.397	0.377	0.337	0.367	0.464	0.664	0.614	0.476	0.388	1.822	4.438	8.360	13.35	16.30	8.788	2.335	0.363	0.194	0.226	0.166	0.186	0.184	0.187	0.174	0.191	0.184	0.177	0.153	0.181	0.136	0.169	0.136	0.191	0.170	0.171	0.145	0.141	0.172	0.127
240.0	199.0	199.7	516.7	2569	4957	2011	101.6	8.662	6.499	5.350	4.749	4.613	3.332	2.871	2.954	2.358	1.565	1.716	1.434	1.395	1.120	1.022	1.055	0.926	0.848	0.931	0.825	0.670	0.660	0.597	0.619	0.563	0.490	0.456	0.515	0.481	0.385	0.435	0.382	0.368	0.346	0.340	0.329	0.399	0.666	0.766	0.615	0.723	1.189	2.285	5.419	14.33	22.27	18.73	7.591	1.621	0.226	0.230	0.166	0.201	0.225	0.187	0.185	0.180	0.180	0.159	0.178	0.154	0.267	0.177	0.158	0.187	0.184	0.133	0.204	0.155	0.133
245.0	124.4	241.1	213.0	734.6	3690	4480	450.0	46.71	8.665	6.877	5.419	5.038	4.240	3.294	3.118	2.320	1.645	1.795	1.548	1.444	1.428	1.043	0.912	0.954	0.817	0.868	0.740	0.751	0.746	0.550	0.602	0.576	0.491	0.441	0.419	0.474	0.405	0.352	0.468	0.412	0.350	0.351	0.392	0.359	0.393	0.694	0.653	0.986	0.647	0.757	1.416	3.937	11.23	22.60	27.31	17.47	5.704	0.728	0.235	0.193	0.219	0.192	0.193	0.131	0.159	0.164	0.252	0.170	0.213	0.192	0.162	0.164	0.172	0.177	0.194	0.140	0.185
250.0	55.95	149.7	262.1	283.8	1030	3365	4655	1560	129.9	10.96	8.559	6.385	5.387	3.696	3.477	2.796	2.387	1.862	1.582	1.279	1.373	1.268	1.102	1.043	1.054	0.800	0.889	0.834	0.716	0.711	0.696	0.579	0.503	0.457	0.488	0.405	0.459	0.361	0.425	0.443	0.385	0.369	0.352	0.360	0.370	0.406	0.475	0.767	0.927	0.863	0.845	1.214	2.801	6.337	12.51	20.09	26.46	28.33	15.03	6.199	0.855	0.286	0.238	0.211	0.199	0.204	0.240	0.187	0.216	0.179	0.207	0.147	0.194	0.166	0.182	0.186	0.176
255.0	43.77	61.45	147.5	311.3	349.4	805.0	2709	8142	2296	173.4	12.49	8.792	7.220	4.983	4.060	3.106	2.858	2.655	1.961	1.561	1.525	1.267	1.027	1.120	1.019	0.955	0.941	0.748	0.732	0.835	0.755	0.591	0.448	0.512	0.536	0.533	0.453	0.366	0.403	0.410	0.382	0.408	0.403	0.310	0.299	0.372	0.312	0.364	0.499	0.748	1.134	1.517	1.308	1.711	3.089	4.757	7.838	19.56	40.35	49.99	23.89	7.654	0.750	0.287	0.274	0.231	0.222	0.208	0.261	0.201	0.264	0.164	0.181	0.168	0.195	0.211	0.220
260.0	43.11	40.21	53.08	214.2	339.0	256.4	727.0	4922	9999.9	1892	110.7	11.95	9.287	6.842	4.868	3.554	2.950	2.438	2.075	1.862	1.457	1.406	1.095	1.305	1.150	1.115	1.027	0.815	0.842	0.767	0.735	0.708	0.635	0.551	0.483	0.539	0.354	0.402	0.373	0.358	0.361	0.396	0.421	0.354	0.349	0.402	0.360	0.338	0.348	0.406	0.673	1.373	1.817	1.318	1.124	1.280	2.060	4.904	13.64	35.07	58.92	32.32	21.17	4.587	0.531	0.272	0.285	0.269	0.226	0.231	0.260	0.248	0.185	0.194	0.289	0.212	0.272
265.0	42.92	34.00	30.19	92.49	305.0	291.7	209.4	1407	7815	9999.9	1478	51.51	12.25	8.402	6.313	4.323	3.047	2.961	2.225	1.925	1.608	1.529	1.172	1.204	1.136	1.226	0.969	1.107	1.062	0.828	0.803	0.688	0.612	0.528	0.496	0.531	0.421	0.387	0.364	0.399	0.374	0.400	0.430	0.399	0.341	0.410	0.382	0.406	0.331	0.384	0.346	0.715	1.274	1.806	1.631	0.883	0.786	1.454	3.384	9.270	24.64	48.41	73.57	30.64	15.64	2.088	0.359	0.343	0.296	0.279	0.257	0.295	0.268	0.304	0.300	0.245	0.279
270.0	70.30	56.84	42.79	45.30	127.3	316.5	309.1	382.9	2171	7497	9999.9	4743	85.85	13.72	8.800	5.671	4.749	3.689	3.013	2.186	1.929	1.679	1.432	1.463	1.410	1.218	1.159	1.047	1.035	0.862	0.918	0.754	0.751	0.709	0.650	0.639	0.590	0.580	0.571	0.451	0.514	0.445	0.454	0.432	0.438	0.497	0.420	0.470	0.354	0.321	0.269	0.443	0.552	0.939	1.474	1.834	1.830	1.311	1.252	2.446	5.931	12.88	29.20	44.55	65.09	56.77	44.71	11.31	2.302	0.357	0.319	0.304	0.245	0.312	0.285	0.264	0.264
275.0	148.3	123.1	91.07	60.38	60.00	127.3	389.1	380.1	551.2	1778	5428	9999.9	6624	103.1	13.86	9.164	5.870	4.712	3.739	2.880	2.449	1.956	1.846	1.707	1.624	1.264	1.305	1.324	1.051	0.932	0.994	1.029	0.726	0.734	0.732	0.714	0.772	0.716	0.666	0.600	0.533	0.557	0.650	0.556	0.554	0.622	0.606	0.609	0.438	0.381	0.445	0.388	0.403	0.568	0.639	0.896	1.747	2.737	2.486	1.418	1.775	3.290	6.911	10.47	16.73	30.59	73.51	100.5	32.37	16.28	1.554	0.516	0.315	0.322	0.312	0.347	0.367
280.0	252.0	214.8	169.1	95.51	61.49	66.03	210.3	531.8	339.9	482.2	1437	8034	9999.9	1139	64.04	12.15	9.019	6.048	4.499	3.244	2.870	2.331	2.077	1.681	1.669	1.578	1.301	1.174	1.234	0.863	0.884	0.986	0.917	0.837	0.784	0.774	0.972	0.917	0.832	0.813	0.719	0.669	0.674	0.747	0.727	0.845	0.719	0.668	0.636	0.632	0.504	0.453	0.450	0.462	0.443	0.553	0.867	1.663	2.971	3.071	1.887	1.435	2.001	2.894	4.383	7.774	21.50	54.09	92.66	106.0	28.86	10.48	0.659	0.403	0.297	0.356	0.361
285.0	375.9	345.7	260.3	148.5	87.06	68.39	114.5	387.5	574.3	283.4	450.7	2294	9999.9	9999.9	826.7	29.27	11.27	7.883	5.416	4.321	2.972	2.804	2.463	2.020	1.722	1.710	1.463	1.204	1.235	1.069	1.004	1.080	1.013	0.928	0.878	0.901	1.082	1.072	1.053	0.867	0.950	0.858	0.847	0.938	0.977	0.947	1.037	1.059	0.942	0.835	0.590	0.633	0.477	0.583	0.519	0.466	0.615	0.917	1.489	2.646	3.534	2.700	1.578	1.342	1.797	2.517	5.585	13.53	31.82	74.42	107.8	96.36	23.25	4.619	0.519	0.407	0.413
290.0	527.0	505.3	394.5	247.7	139.0	104.1	123.3	215.6	500.6	637.8	413.8	749.4	2858	9381	9999.9	3002	49.45	11.76	7.495	5.326	3.979	3.312	2.982	2.172	1.958	1.702	1.545	1.400	1.309	1.272	1.197	1.028	1.091	1.067	0.971	1.120	1.260	1.320	1.285	1.094	1.153	1.100	1.038	1.151	1.269	1.309	1.358	1.390	1.296	1.129	0.897	0.797	0.745	0.737	0.731	0.661	0.737	0.811	0.973	1.348	2.150	3.068	3.476	3.115	2.224	1.936	2.458	4.188	8.450	18.64	34.69	59.89	77.35	63.82	62.58	15.84	5.547
295.0	697.0	707.8	573.1	358.9	216.4	164.8	182.4	220.8	337.9	651.5	901.5	598.8	966.7	2357	5570	9999.9	4225	57.37	11.63	7.277	5.119	4.269	3.828	2.760	2.434	1.957	1.842	1.459	1.375	1.495	1.244	1.110	1.113	1.110	1.038	1.368	1.481	1.493	1.463	1.360	1.330	1.357	1.477	1.393	1.657	1.808	1.619	1.855	1.747	1.373	1.196	1.154	0.980	0.862	0.851	0.883	0.986	1.105	1.182	1.387	1.585	1.825	2.520	3.896	5.237	4.400	2.747	2.607	3.845	5.916	9.290	14.72	19.29	25.20	65.24	108.9	99.64
300.0	834.2	879.2	716.5	464.2	290.4	242.8	271.8	316.7	364.4	625.4	1127	1023	756.6	908.7	1611	7953	9999.9	661.7	36.25	10.16	7.385	5.075	4.107	3.041	2.734	2.280	2.126	1.563	1.491	1.456	1.255	1.234	1.288	1.131	1.176	1.486	1.667	1.678	1.651	1.710	1.619	1.663	1.816	1.616	1.858	1.910	2.061	2.090	2.079	1.859	1.445	1.422	1.289	1.179	1.229	1.298	1.332	1.367	1.585	1.856	2.149	2.152	2.385	3.068	4.575	6.361	5.824	4.047	3.859	3.853	4.616	5.292	6.235	7.380	17.75	43.77	94.43
305.0	1048	1062	879.5	591.5	395.2	336.9	383.1	485.4	605.5	814.5	1185	1595	1136	842.8	820.3	2384	9999.9	9999.9	503.1	18.96	9.030	6.211	4.650	3.627	3.070	2.685	2.123	2.170	1.804	1.494	1.395	1.277	1.340	1.114	1.306	1.501	2.067	1.798	2.151	2.004	1.771	1.915	2.040	1.938	2.246	2.372	2.464	2.818	2.477	2.212	1.916	1.627	1.682	1.493	1.503	1.874	1.899	1.920	2.262	2.456	2.638	3.039	3.420	4.061	4.663	6.033	7.442	7.559	6.416	4.983	4.677	4.370	4.211	4.251	6.166	11.88	27.28
310.0	1158	1234	1080	721.5	500.9	440.7	511.7	621.9	764.6	984.1	1253	1583	1624	1135	813.1	936.2	2971	8761	8764	2022	32.67	8.845	6.006	4.722	3.603	3.153	2.364	2.177	1.956	1.564	1.694	1.386	1.316	1.216	1.306	1.520	1.883	2.059	2.235	2.183	2.132	2.039	2.238	2.265	2.588	2.693	2.879	3.158	3.017	2.661	2.135	2.135	2.054	1.916	1.895	2.010	2.254	2.580	2.805	3.102	3.449	3.866	4.271	4.760	5.252	5.796	6.555	7.543	8.175	8.025	7.107	5.729	4.681	4.505	4.376	5.157	8.171
315.0	1299	1399	1266	844.4	603.5	538.8	621.1	715.9	858.3	1090	1334	1553	1656	1603	1022	704.3	1036	2203	5322	9999.9	2827	35.50	8.415	5.833	4.599	3.742	2.981	2.576	2.069	1.762	1.816	1.534	1.357	1.350	1.286	1.600	2.020	2.397	2.069	2.128	2.228	2.424	2.424	2.690	2.859	3.259	3.326	3.505	3.401	3.175	2.352	2.584	2.303	1.973	2.194	2.201	2.730	3.029	3.420	3.553	3.730	4.191	4.745	5.251	5.592	6.509	6.660	7.391	7.755	7.678	8.803	8.323	6.737	5.178	4.525	4.090	4.270
320.0	1460	1636	1416	968.1	667.4	586.2	663.5	785.7	916.9	1164	1394	1587	1629	1642	1332	744.0	652.4	741.6	1412	7593	9999.9	484.2	20.74	8.445	5.604	4.011	3.193	2.888	2.472	2.052	1.769	1.554	1.426	1.406	1.352	1.539	1.964	2.190	2.255	2.185	2.471	2.529	2.593	2.816	3.083	3.224	3.666	4.203	4.068	3.364	2.572	2.787	2.611	2.078	2.329	2.442	2.880	3.205	3.713	3.775	4.007	4.369	5.183	5.242	6.262	6.519	6.789	7.694	7.637	7.578	8.000	8.089	8.279	7.186	5.542	4.278	3.627
325.0	1610	1824	1651	1146	739.0	625.6	675.4	815.6	943.7	1169	1408	1602	1630	1508	1451	904.7	589.8	437.4	434.5	2130	9580	9466	362.0	12.46	7.011	5.136	3.618	2.955	2.861	2.336	1.883	1.679	1.437	1.457	1.410	1.678	1.907	2.330	2.323	2.442	2.424	2.350	2.808	3.080	3.413	3.856	4.238	4.684	4.680	3.857	3.086	3.110	2.856	2.453	2.522	2.691	3.054	3.345	3.556	3.898	4.309	4.551	5.100	5.351	5.878	6.645	6.784	7.124	7.611	7.785	7.679	7.189	7.650	7.927	7.280	5.231	3.919
330.0	1708	2034	1920	1415	914.5	714.6	718.2	834.5	957.0	1161	1396	1585	1613	1443	1285	1068	723.4	408.3	258.6	577.1	2664	7606	7065	1567	24.70	7.338	5.066	3.701	3.089	2.809	2.325	1.910	1.527	1.567	1.576	1.624	1.964	2.169	2.348	2.372	2.513	2.375	2.810	2.935	3.544	4.205	4.437	5.321	5.278	4.700	3.967	4.014	3.460	3.001	2.838	2.766	3.174	3.335	3.537	3.710	4.141	4.640	5.005	5.520	5.814	6.413	6.733	7.153	7.509	7.337	7.482	7.040	7.026	6.785	6.731	6.546	5.583
335.0	1814	2138	2117	1626	1127	836.2	764.8	846.9	964.7	1162	1380	1551	1571	1429	1216	979.9	900.5	544.0	277.4	273.2	688.5	1802	4899	9999.9	2286	28.67	7.396	5.235	4.040	3.480	2.450	2.335	1.704	1.767	1.524	1.830	2.017	2.273	2.247	2.245	2.426	2.617	3.063	2.911	3.774	4.602	5.081	5.665	5.529	5.115	4.456	4.598	4.193	3.679	3.369	3.000	3.302	3.309	3.659	3.877	3.906	4.567	5.149	5.720	5.834	6.134	6.831	6.797	7.205	7.490	7.462	7.084	6.809	6.610	5.654	5.347	5.469
340.0	1807	2147	2179	1737	1208	898.7	800.4	861.1	971.2	1156	1338	1503	1522	1409	1192	920.7	835.7	696.7	349.3	236.7	273.0	488.6	1295	7168	9934	406.8	17.01	6.504	4.612	3.983	3.153	2.463	2.042	1.805	1.702	1.677	1.734	2.162	2.299	2.235	2.273	2.870	2.616	3.087	3.593	4.260	4.703	5.715	5.713	5.107	4.563	4.932	4.480	3.842	3.390	3.201	3.238	3.430	3.894	3.840	4.213	4.641	5.120	5.370	5.848	6.155	6.368	6.802	6.829	7.157	7.130	6.968	6.550	6.245	5.568	5.422	5.076
345.0	1779	2071	2136	1762	1277	947.3	841.0	872.6	967.9	1123	1301	1437	1469	1356	1164	908.3	753.6	714.3	490.1	274.7	211.5	220.1	368.8	2033	8816	7944	321.8	10.34	5.865	4.541	3.549	2.540	2.241	1.795	1.726	1.656	1.816	2.259	2.133	2.215	2.103	2.512	2.712	3.090	3.362	4.258	4.551	5.534	5.726	5.327	4.639	4.825	4.579	4.025	3.720	3.231	3.484	3.558	3.757	3.736	4.150	4.482	4.755	5.180	5.597	5.761	6.177	6.226	6.556	6.872	6.929	6.656	6.273	6.160	5.540	5.202	4.741
350.0	1633	2000	2048	1748	1325	1011	883.0	896.5	971.2	1102	1247	1345	1377	1293	1126	903.6	741.2	634.7	585.2	431.2	266.7	207.6	200.0	535.3	2469	6504	5895	1392	22.24	6.216	4.186	3.121	2.490	2.008	1.749	1.803	2.055	2.117	1.955	2.222	2.157	2.451	2.628	2.940	3.258	3.956	4.513	5.259	5.438	5.034	4.598	5.078	4.751	4.266	3.906	3.597	3.782	3.579	3.872	3.833	4.182	4.376	4.548	5.094	5.577	5.442	5.732	5.868	5.913	6.480	6.248	6.278	6.200	5.746	5.438	5.354	4.857
355.0	1546	1846	1900	1684	1372	1079	932.0	931.2	1005	1090	1194	1282	1303	1221	1095	924.8	768.8	638.1	557.6	562.3	411.8	268.1	212.8	242.7	632.0	1545	4051	8918	2093	26.71	6.448	4.099	3.080	2.039	2.115	1.865	2.026	1.960	2.038	2.256	2.268	2.221	2.695	2.798	3.339	3.737	4.301	4.910	5.155	4.611	4.356	4.950	5.024	4.326	4.044	3.855	3.893	3.913	4.163	3.951	4.235	4.305	4.719	4.765	5.286	5.261	5.575	5.388	5.924	6.003	6.114	5.894	5.638	5.701	5.550	5.362	5.073
360.0	1558	1735	1826	1660	1378	1130	994.7	963.7	1011	1102	1175	1247	1255	1188	1073	933.2	791.0	671.5	574.5	556.4	540.0	357.9	253.8	206.8	249.1	420.3	1075	6101	8621	387.1	17.11	5.416	3.851	3.042	2.441	2.104	2.256	1.935	2.137	2.264	2.245	2.362	2.536	2.586	3.277	3.506	3.961	4.644	4.695	4.511	4.220	5.067	4.889	4.826	4.286	3.969	3.956	4.135	4.024	4.172	4.203	4.435	4.788	5.060	5.153	5.077	5.530	5.543	6.066	5.706	5.830	5.845	5.693	5.457	5.107	5.291	4.991
365.0	1465	1677	1750	1583	1402	1155	1038	1003	1029	1103	1177	1221	1215	1165	1063	928.1	812.6	711.0	613.8	550.0	564.4	486.9	316.4	235.3	195.6	195.4	310.1	1734	7651	7262	310.1	8.921	4.848	3.694	2.687	2.006	2.236	2.059	2.376	2.106	2.313	2.452	2.440	2.749	3.013	3.462	3.537	4.209	4.671	4.263	4.180	5.132	4.813	4.643	4.459	4.216	4.287	4.182	4.369	4.130	4.323	4.567	4.744	5.195	5.035	5.002	5.227	5.164	5.597	5.407	5.724	5.565	5.778	5.472	5.414	5.100	4.963
370.0	1391	1592	1642	1526	1388	1209	1091	1058	1064	1109	1166	1189	1185	1134	1046	934.9	843.3	755.6	675.8	604.4	561.8	552.4	462.1	316.8	237.1	187.9	176.2	463.3	2144	5901	5497	1299	21.02	5.452	3.542	2.764	2.381	2.291	2.421	2.268	2.341	2.455	2.632	2.874	3.005	3.250	3.627	4.070	4.451	4.159	4.109	4.949	5.077	4.561	4.547	4.397	4.611	4.366	4.517	4.377	4.486	4.732	4.680	5.297	4.957	5.383	5.119	5.108	5.544	5.503	5.469	5.594	5.247	5.510	5.385	5.372	5.257
375.0	1349	1565	1593	1537	1406	1257	1125	1102	1089	1138	1155	1179	1171	1128	1036	938.0	864.1	794.9	735.3	666.4	597.8	552.5	551.3	454.3	310.8	239.5	194.1	219.3	559.0	1407	3725	8003	1934	25.11	5.527	3.458	2.764	2.729	2.764	2.334	2.357	2.690	2.611	2.636	2.973	3.135	3.676	3.879	4.102	4.028	3.840	4.817	5.138	4.733	4.502	4.466	4.743	4.618	4.421	4.783	4.735	4.816	4.879	5.021	5.535	5.329	5.062	5.354	5.391	5.335	5.595	5.574	5.494	5.856	5.408	5.379	5.312
380.0	1325	1542	1546	1475	1412	1281	1159	1113	1113	1130	1156	1164	1174	1108	1036	952.8	879.5	824.8	775.8	706.4	639.2	573.9	549.3	538.9	394.2	283.9	233.6	197.6	232.0	392.0	998.7	5342	7353	328.5	16.00	4.791	3.420	3.138	2.696	2.681	2.446	2.785	2.574	2.762	3.098	3.387	3.392	4.065	3.854	4.054	3.847	4.667	4.903	4.984	4.429	4.651	4.740	4.727	4.488	4.749	4.741	4.993	4.972	4.856	5.067	5.367	5.061	4.813	5.223	5.390	5.498	5.545	5.342	5.771	5.428	5.265	5.380
385.0	1358	1468	1568	1488	1420	1289	1193	1130	1120	1138	1161	1149	1150	1102	1026	952.1	896.2	848.9	799.5	737.3	671.9	606.0	553.9	542.5	487.3	343.4	273.1	220.0	185.5	186.9	303.0	1503	6112	5846	265.1	8.968	4.412	3.406	3.056	2.705	2.665	2.825	2.739	2.912	3.014	3.247	3.442	4.132	3.979	4.098	3.822	4.776	4.938	4.879	4.825	4.616	4.915	4.672	4.673	4.845	4.894	4.887	4.835	5.080	5.408	5.046	5.085	5.069	5.229	5.345	5.512	5.174	5.513	5.768	5.407	5.181	5.447
390.0	1414	1490	1515	1462	1405	1298	1204	1154	1139	1134	1150	1145	1132	1089	1021	954.3	913.8	875.2	826.4	769.3	710.1	648.0	589.4	540.3	519.0	453.0	336.4	263.2	211.7	171.0	167.1	408.8	1668	4384	4126	1077	18.88	5.157	4.043	3.225	2.925	2.870	3.048	2.946	3.112	3.313	3.420	3.943	3.880	3.715	3.824	4.664	4.828	4.864	4.800	4.566	4.713	4.874	4.885	4.962	4.928	4.796	4.862	5.062	5.084	4.840	5.070	4.866	5.255	5.257	5.228	5.206	5.275	5.593	5.276	5.162	5.604
395.0	1381	1482	1490	1451	1413	1304	1231	1188	1147	1145	1164	1147	1128	1083	1017	960.0	925.3	887.6	853.6	794.1	740.8	681.3	627.1	572.9	523.2	507.6	448.2	335.6	264.1	212.5	175.0	192.6	436.4	1038	2524	5941	1733	24.85	5.686	4.236	3.401	3.459	3.414	3.157	3.460	3.656	3.681	3.825	3.905	3.808	3.790	4.826	4.901	4.685	4.982	4.602	4.794	5.058	5.211	4.756	5.033	5.140	5.049	4.991	5.191	5.121	4.703	5.082	5.021	5.327	5.328	4.956	5.247	5.728	5.148	5.387	5.917
400.0	1426	1472	1496	1424	1415	1316	1249	1205	1161	1161	1173	1162	1137	1086	1025	964.7	927.4	903.3	861.5	814.1	763.2	707.5	653.9	610.9	548.4	520.4	514.5	424.5	321.6	258.6	214.9	176.1	183.6	289.1	657.5	3559	5672	289.0	17.41	5.331	3.876	3.583	3.502	3.486	3.465	3.390	3.503	3.809	4.106	3.895	3.614	4.389	5.082	4.857	5.076	4.642	4.935	5.116	5.153	5.083	4.925	4.932	5.154	5.249	5.003	4.935	4.893	5.260	5.174	5.506	5.372	5.453	5.406	5.682	4.979	5.450	5.613
405.0	1409	1431	1445	1424	1391	1325	1256	1198	1175	1172	1192	1171	1150	1102	1028	969.2	928.5	905.3	873.1	825.5	771.5	722.3	676.6	635.2	582.3	541.4	529.7	502.1	386.3	307.2	258.2	202.6	152.5	140.9	200.6	955.1	4122	4700	253.5	10.58	4.720	3.974	3.699	3.693	3.486	3.581	3.453	3.902	4.179	3.791	3.671	4.407	4.903	5.036	4.962	4.673	5.022	5.181	5.000	4.990	5.040	5.275	5.278	5.193	5.020	5.167	4.880	5.030	5.300	5.095	5.454	5.166	5.383	5.561	5.306	5.482	5.533
410.0	1380	1411	1430	1390	1370	1304	1239	1203	1185	1183	1193	1175	1139	1092	1024	962.1	916.2	894.3	859.9	820.5	773.3	724.6	689.3	652.8	613.8	570.1	536.4	522.6	470.7	375.2	302.5	237.4	171.7	130.4	116.3	265.3	1084	3077	3171	1116	18.67	5.175	4.208	3.855	3.665	3.632	3.522	3.883	3.806	3.826	3.801	4.373	4.745	4.738	4.788	4.670	4.990	5.211	5.217	5.142	5.158	5.117	5.276	5.071	5.103	5.070	4.927	4.748	5.092	5.132	5.190	5.015	4.954	5.147	5.425	5.364	5.650
415.0	1373	1414	1374	1366	1312	1241	1214	1191	1176	1164	1174	1143	1113	1057	984.2	929.4	879.9	859.0	831.4	793.8	752.4	710.3	678.0	650.0	616.8	578.8	541.2	507.4	483.9	441.9	339.7	261.1	190.1	142.8	107.9	117.5	282.4	719.4	1618	4333	1650	25.23	5.215	4.381	3.870	3.743	3.629	3.885	3.850	3.682	3.631	4.445	4.755	4.712	4.660	4.692	4.798	5.044	5.111	4.775	5.131	4.966	4.982	4.999	4.980	4.988	5.089	4.631	4.722	5.051	5.069	5.089	5.156	5.273	5.069	5.351	5.363
420.0	1326	1395	1356	1312	1268	1222	1206	1178	1151	1150	1156	1114	1078	1013	951.3	885.6	847.5	820.8	795.5	762.7	732.6	687.7	660.9	640.4	607.0	576.4	539.0	502.5	468.6	452.7	376.9	276.8	202.0	152.5	112.6	92.09	108.9	190.4	402.7	2261	4374	1279	18.63	5.007	4.282	3.963	3.603	3.805	3.751	3.684	3.826	4.233	4.670	4.729	4.723	4.435	5.011	4.879	5.087	4.895	4.889	5.009	5.010	4.929	5.074	5.008	4.964	4.558	4.665	4.920	4.924	4.890	5.160	5.310	4.771	5.243	5.114
425.0	1327	1343	1320	1275	1230	1202	1182	1164	1147	1140	1136	1096	1047	985.5	920.3	855.8	813.2	786.7	758.5	740.3	700.9	670.3	644.1	621.0	601.8	570.0	539.2	500.2	463.7	436.4	405.9	306.2	216.9	163.2	121.3	90.52	75.62	75.64	112.4	572.9	2711	3982	253.2	12.81	4.760	4.296	3.639	3.927	3.685	3.565	3.716	4.211	4.183	4.666	4.417	4.384	4.866	4.910	4.698	4.969	5.048	4.879	4.969	4.854	4.891	4.722	4.484	4.461	4.743	4.836	4.750	4.736	4.710	4.770	4.735	4.874	4.888
430.0	1812	1252	1264	1207	1194	1170	1151	1137	1146	1131	1129	1083	1016	955.9	876.2	813.0	772.5	748.0	724.0	699.6	665.2	640.6	624.0	607.8	591.7	566.5	539.8	509.9	472.2	435.0	402.8	349.8	255.2	183.0	138.3	105.1	79.59	59.80	53.83	148.0	677.9	2145	3084	1082	19.18	5.173	3.994	4.041	3.759	3.448	3.435	4.043	4.222	4.389	4.451	4.298	4.713	4.757	4.650	4.966	4.903	5.080	4.779	4.861	4.812	4.657	4.568	4.535	4.793	4.582	4.614	4.483	4.542	4.700	4.636	4.678	4.726
435.0	2899	1309	1206	1181	1148	1124	1105	1123	1140	1114	1103	1066	986.3	917.5	835.3	773.5	725.2	702.4	679.9	660.0	628.9	610.2	596.8	584.1	570.9	556.7	532.7	508.6	476.5	440.9	395.5	349.6	296.0	214.2	156.0	121.6	91.82	65.47	49.29	60.27	170.6	495.1	1177	3493	1712	27.52	5.013	4.443	3.997	3.659	3.450	3.996	4.234	4.219	4.282	4.265	4.530	4.760	4.666	4.846	4.692	5.144	4.759	4.637	4.665	4.544	4.600	4.415	4.626	4.303	4.291	4.521	4.560	4.517	4.223	4.213	4.522
440.0	3407	1793	1161	1128	1105	1091	1083	1108	1106	1099	1082	1040	962.6	885.9	805.8	739.7	691.3	659.9	648.7	627.0	598.5	584.8	567.2	562.6	550.8	537.5	520.8	497.7	468.3	437.4	391.1	338.6	298.3	239.4	169.7	130.5	100.2	72.11	53.00	44.90	61.14	128.4	284.2	1610	3871	1431	19.84	4.950	4.188	3.435	3.603	4.060	4.222	4.090	4.091	4.261	4.377	4.432	4.562	4.777	4.803	4.736	4.810	4.675	4.495	4.709	4.653	4.242	4.336	4.219	4.025	4.474	4.126	4.238	4.143	4.017	4.395
445.0	3098	2720	1191	1062	1049	1071	1068	1081	1093	1069	1046	1007	925.7	848.8	761.2	699.9	656.0	627.8	612.1	592.4	563.5	547.6	539.7	539.5	525.7	510.9	501.7	480.7	456.3	428.1	380.6	328.3	284.2	249.6	187.2	137.1	105.1	77.10	57.10	45.34	39.75	48.92	80.02	396.2	2111	3837	223.6	15.69	4.799	3.807	3.385	3.820	3.954	3.895	4.023	4.134	4.332	4.387	4.551	4.611	5.012	4.530	4.635	4.608	4.410	4.510	4.515	3.948	4.235	3.906	3.999	4.102	3.975	3.730	3.880	3.784	4.197
450.0	1871	3422	1750	1003	995.2	1013	1006	1025	1034	1017	986.1	936.2	866.2	789.8	708.4	642.6	601.0	579.9	557.0	540.4	518.4	505.2	497.2	495.0	483.3	474.7	465.6	451.0	429.2	404.7	365.3	314.4	265.9	232.6	200.1	151.6	111.4	84.58	64.30	50.87	40.73	35.55	36.80	103.5	514.2	1821	2830	997.3	17.75	4.782	3.678	3.949	3.848	3.887	3.856	3.824	4.184	4.348	4.389	4.340	4.626	4.475	4.573	4.443	4.364	4.277	4.084	3.797	3.971	3.824	3.783	3.727	3.641	3.638	3.804	3.616	3.757
455.0	1108	2660	3084	1038	919.1	921.7	933.6	956.9	958.0	955.5	924.9	880.1	801.6	718.7	641.9	577.9	542.3	523.7	497.3	482.0	466.7	455.0	448.3	445.6	441.9	434.6	427.4	417.1	396.9	379.5	344.3	299.9	253.5	215.5	190.2	165.9	124.2	90.18	70.67	56.56	45.89	36.69	30.44	40.17	128.8	418.1	918.8	2772	1512	22.57	4.653	4.091	3.767	3.688	3.523	3.787	3.763	4.274	4.025	4.160	4.362	4.162	4.548	4.181	4.237	3.880	3.908	3.750	3.804	3.530	3.599	3.787	3.260	3.497	3.647	3.274	3.400
460.0	888.5	1654	3704	1594	847.3	857.1	870.4	912.4	903.9	909.1	879.1	826.2	745.8	675.3	600.4	534.2	498.8	478.8	457.8	443.1	429.7	421.4	413.5	414.0	408.1	403.7	397.8	388.8	374.6	358.4	330.6	289.3	244.3	206.7	176.9	163.1	135.7	97.34	75.48	60.10	49.04	38.35	31.57	28.03	44.35	105.6	217.7	1135	3076	1192	18.08	4.698	4.317	3.772	3.562	3.642	3.734	3.919	4.101	4.047	3.996	4.016	4.291	3.971	4.072	3.751	3.708	3.750	3.698	3.760	3.496	3.312	3.162	3.365	3.097	3.194	3.080
465.0	787.5	1007	3150	2569	858.7	798.1	823.2	864.4	862.2	844.4	826.3	783.7	710.4	634.1	555.7	503.9	462.6	443.0	424.6	408.0	398.4	386.1	382.9	385.2	377.7	375.8	368.3	362.1	353.5	337.1	310.5	277.7	235.8	198.3	168.0	152.4	137.7	105.9	78.01	62.87	50.69	41.84	33.64	27.67	26.78	37.47	59.82	273.9	1563	2930	930.7	15.84	4.552	3.975	3.803	3.483	3.496	3.821	3.784	3.821	3.870	3.677	3.724	4.091	3.634	3.805	3.699	3.459	3.543	3.211	3.255	3.270	3.286	3.331	2.947	3.025	2.957
470.0	744.7	772.6	1740	3357	1461	727.7	747.1	770.8	788.8	780.9	758.5	714.1	647.7	570.2	501.7	448.2	414.9	392.7	378.2	362.4	350.1	340.6	339.8	338.6	337.3	333.3	329.0	324.2	319.3	305.8	284.2	252.5	218.3	186.6	160.0	138.6	124.5	110.4	84.88	64.69	52.50	43.31	35.94	29.14	24.96	23.94	26.05	71.39	375.6	1310	2168	908.1	78.69	4.604	3.792	3.391	3.457	3.577	3.427	3.462	3.512	3.590	3.556	3.694	3.374	3.498	3.201	3.187	3.107	2.962	2.921	2.921	2.820	2.745	2.694	2.591	2.854
475.0	672.8	666.7	889.7	2533	2828	782.4	674.9	702.3	713.1	711.2	691.5	644.3	583.8	511.5	448.9	396.7	371.2	345.6	330.0	318.4	309.3	299.9	295.9	296.0	294.2	292.0	288.2	284.4	285.0	271.7	257.0	230.9	200.5	173.4	148.9	129.5	110.4	99.83	91.22	70.14	54.35	44.40	37.46	30.23	26.19	22.47	19.12	27.10	92.79	299.3	652.0	1803	1371	25.40	4.172	3.404	3.450	3.486	3.267	3.426	3.514	3.296	3.348	3.329	3.175	3.167	2.979	2.902	2.979	2.719	2.737	2.569	2.427	2.264	2.482	2.367	2.412
480.0	600.5	637.5	635.4	1479	3429	1245	628.3	636.4	655.5	655.3	635.9	598.9	541.9	471.8	411.6	367.4	338.5	315.5	302.3	291.0	282.7	275.7	270.9	270.3	268.4	266.4	262.9	261.1	259.4	251.5	235.5	213.5	187.9	162.6	141.4	122.4	105.6	91.88	86.75	76.39	57.71	45.70	38.18	31.93	26.75	23.91	19.16	17.97	30.47	74.37	153.4	680.1	2224	1159	20.53	3.774	3.572	3.236	3.148	3.022	3.267	2.906	3.046	2.874	2.885	2.910	2.840	2.766	2.584	2.755	2.472	2.444	2.502	2.278	2.201	2.349	2.195
485.0	539.6	619.0	553.7	813.1	3064	2215	623.9	598.9	622.7	610.7	601.4	566.9	501.7	438.9	384.9	342.7	316.6	292.6	282.1	266.9	259.4	253.1	248.6	248.2	244.1	245.7	243.4	245.0	241.7	235.6	220.4	201.0	179.3	153.6	136.3	117.2	100.9	87.57	81.19	78.36	62.33	47.26	38.80	33.36	27.86	24.51	20.39	16.96	17.13	25.06	41.11	163.7	1069	2269	223.0	14.35	3.675	3.374	3.142	3.161	3.150	2.635	3.023	2.805	2.700	2.872	2.620	2.527	2.417	2.647	2.356	2.505	2.139	2.377	2.005	2.263	2.114
490.0	443.2	570.9	525.5	560.7	1647	3216	1169	564.3	566.2	564.6	551.3	521.6	458.1	400.5	353.3	312.0	285.1	265.9	254.7	240.9	233.2	227.1	225.9	223.3	221.8	222.3	218.5	220.2	218.6	213.8	201.1	184.9	163.8	143.5	127.2	111.1	95.72	83.81	74.47	70.27	65.60	51.46	40.07	33.97	29.10	25.25	21.30	17.47	14.91	14.64	16.71	43.20	255.2	946.6	1549	924.4	86.25	4.230	2.953	3.020	2.965	2.691	2.878	2.610	2.712	2.703	2.475	2.384	2.341	2.332	2.273	2.113	2.065	2.041	2.110	2.069	2.072
495.0	384.9	501.5	526.7	465.4	723.4	2560	2554	599.7	518.4	518.2	500.3	474.8	417.2	362.8	317.3	277.0	254.1	236.9	226.8	213.6	205.2	199.4	200.6	198.3	197.1	197.4	195.8	194.7	195.4	190.9	181.9	165.6	149.3	131.3	115.7	103.1	90.58	77.99	68.38	62.92	59.60	55.71	43.60	34.79	30.40	25.72	21.10	18.34	15.39	13.02	11.78	16.48	62.73	216.6	506.3	1734	1467	27.69	3.631	2.783	2.856	2.737	2.652	2.556	2.455	2.349	2.183	2.191	2.162	2.107	2.017	1.893	1.929	1.901	1.606	1.674	1.776
500.0	360.6	404.9	496.6	433.4	477.1	1453	3457	965.8	475.3	472.5	458.2	428.3	379.2	330.2	288.6	252.9	230.8	214.8	204.1	192.1	187.2	181.1	179.8	179.4	179.8	179.5	176.2	175.8	175.1	173.6	165.5	150.9	138.0	123.0	106.6	96.32	85.97	75.39	65.31	58.33	53.39	53.27	46.94	35.45	29.71	25.03	21.28	19.29	15.91	12.89	11.01	10.85	20.11	53.41	119.2	652.1	2127	1121	21.92	3.391	2.868	2.667	2.649	2.510	2.302	2.108	2.170	2.153	2.086	1.893	1.837	1.789	1.702	1.687	1.671	1.627	1.584
505.0	344.0	365.8	443.9	411.7	395.4	718.7	3245	1930	451.9	436.0	427.4	395.9	347.1	306.6	261.6	232.9	213.6	195.1	186.4	176.1	170.4	164.6	163.8	163.0	161.0	159.9	160.0	158.0	160.8	158.3	150.9	140.3	125.3	112.8	99.85	89.54	79.36	69.71	61.64	55.29	49.85	46.33	47.10	37.82	29.44	24.56	21.52	19.15	15.93	13.38	10.73	9.869	10.52	17.27	31.23	154.7	966.5	2093	242.1	14.83	2.961	2.676	2.725	2.579	2.212	2.095	1.927	1.924	1.867	1.813	1.767	1.651	1.567	1.525	1.402	1.454	1.391
510.0	297.2	309.9	361.2	410.3	344.8	423.6	1698	3240	864.6	386.0	376.1	349.4	310.9	269.5	233.4	206.0	186.9	171.9	162.6	154.4	149.2	145.3	142.3	141.3	141.4	139.1	138.6	140.1	141.2	138.8	133.9	122.9	110.6	100.8	89.52	80.61	71.67	63.21	56.98	51.17	45.13	40.68	40.79	38.22	31.39	24.67	21.12	18.53	15.52	13.31	11.16	9.843	8.214	9.025	11.31	38.48	228.1	847.6	1408	830.5	19.08	3.276	2.459	2.264	1.913	1.899	1.871	1.760	1.658	1.633	1.576	1.593	1.472	1.414	1.345	1.343	1.355
515.0	265.5	270.0	281.5	366.0	331.4	322.7	639.9	2860	2260	391.4	323.8	309.6	269.9	236.5	202.4	179.7	161.6	147.7	141.5	132.2	128.3	124.7	122.4	122.4	120.5	120.1	119.4	119.2	120.9	119.1	114.4	105.8	96.70	87.87	79.07	70.36	63.40	56.81	50.45	45.53	40.42	36.40	33.83	34.10	32.75	25.54	20.63	17.44	15.04	12.89	11.33	9.714	8.244	7.186	7.184	12.76	54.47	192.3	425.9	1373	1123	27.50	2.955	2.177	1.960	1.781	1.702	1.613	1.468	1.524	1.521	1.422	1.307	1.323	1.268	1.189	1.223
520.0	237.3	238.7	252.6	309.2	322.1	282.4	358.6	1615	3570	689.9	294.4	274.5	242.8	213.5	183.5	161.2	145.3	133.6	127.5	117.3	113.9	110.6	110.0	109.1	109.5	106.6	105.7	104.7	108.2	105.8	102.3	95.07	87.09	77.81	71.41	64.25	57.53	51.57	46.97	42.23	37.99	34.30	30.75	29.54	30.54	26.81	20.78	17.53	14.42	12.36	10.95	9.489	8.153	6.944	6.240	6.905	15.79	46.34	99.39	514.0	1564	811.4	20.48	2.440	1.962	1.724	1.608	1.600	1.443	1.345	1.352	1.323	1.237	1.273	1.178	1.041	1.272
525.0	205.5	229.2	221.5	267.3	319.6	264.7	272.3	695.9	3689	1674	280.8	254.4	225.9	192.7	167.4	146.1	129.8	122.4	114.9	107.2	102.1	99.75	97.97	96.34	97.93	96.08	96.37	95.27	96.41	95.21	91.45	86.95	78.97	72.35	65.10	58.69	52.94	47.45	43.01	39.05	35.12	32.07	28.47	26.71	27.12	26.96	22.18	16.73	13.94	12.36	10.25	9.148	7.775	7.299	6.048	5.689	7.757	13.93	25.22	121.2	695.1	1501	242.5	12.77	2.095	1.779	1.464	1.488	1.270	1.305	1.359	1.232	0.996	1.145	0.999	1.021	0.986
530.0	182.2	190.4	191.7	212.1	266.9	266.2	223.5	333.4	1967	3489	617.5	224.0	195.8	172.2	146.6	129.8	114.7	105.6	99.22	92.99	89.94	86.91	85.48	83.81	83.17	82.37	82.73	81.65	83.22	82.91	79.35	75.16	68.91	62.27	56.77	51.45	46.67	42.33	38.53	34.62	31.10	28.59	25.38	23.76	23.21	23.13	22.57	17.31	13.49	11.42	9.816	8.663	7.493	6.923	6.126	5.157	5.305	6.416	8.717	29.74	164.4	610.3	1022	614.5	18.03	2.083	1.630	1.438	1.332	1.093	1.144	1.110	1.067	1.019	0.970	0.958	0.953
535.0	167.6	157.8	167.4	172.1	203.2	255.2	205.6	221.2	634.0	3296	1819	211.2	171.3	148.0	125.2	110.7	100.4	91.38	85.99	79.76	76.50	73.51	72.18	73.67	71.07	69.13	70.66	68.52	69.88	70.75	68.15	64.11	58.78	53.31	48.99	44.66	40.95	38.30	34.07	30.17	28.19	24.86	22.82	21.33	19.58	18.62	20.09	18.30	13.23	10.42	8.950	7.879	6.869	6.315	5.884	5.142	4.748	4.558	4.751	9.256	39.00	138.3	306.5	987.6	800.0	25.59	2.008	1.279	1.211	1.169	1.037	0.977	0.916	0.886	0.893	0.905	0.816
540.0	143.3	135.5	146.1	154.1	157.4	227.6	201.4	183.4	278.4	1756	3688	387.1	150.7	131.0	111.0	98.27	88.30	80.01	74.76	70.48	68.18	66.78	62.79	63.46	62.24	62.11	61.52	61.36	62.48	62.09	59.61	56.54	51.10	46.74	42.80	39.54	36.23	33.14	30.30	27.14	24.73	22.12	20.89	18.85	17.92	16.30	16.45	17.19	13.90	10.38	8.349	7.437	6.544	6.054	5.201	5.118	4.536	4.151	3.683	4.379	11.03	32.96	71.12	362.5	1107	254.5	18.42	1.475	1.269	1.048	1.060	0.880	0.899	0.797	0.802	0.762	0.721
545.0	122.0	125.0	129.3	131.1	131.7	189.9	204.9	162.0	178.8	662.4	3966	1155	138.2	117.9	100.0	86.56	79.63	71.52	65.61	61.89	60.89	58.94	55.20	55.84	54.23	53.54	53.79	53.49	54.23	53.48	50.80	48.69	45.78	41.59	38.46	35.41	31.49	29.46	26.88	24.34	22.70	19.72	18.91	17.20	15.79	14.75	14.02	14.97	13.92	10.74	8.352	7.350	6.011	5.579	4.921	4.678	4.757	3.821	3.391	3.445	4.687	9.461	17.81	85.16	482.1	983.6	232.2	10.95	1.540	1.106	1.126	0.910	0.901	0.788	0.696	0.670	0.558
550.0	110.2	119.6	118.2	113.8	109.1	136.7	196.0	155.4	138.8	256.1	1962	3098	311.8	100.2	84.59	73.45	66.16	59.36	55.43	52.06	49.60	47.87	45.97	46.17	45.30	44.71	44.41	44.23	44.61	45.28	43.28	39.88	38.57	34.84	32.47	29.54	26.64	24.37	22.02	20.75	19.20	17.21	16.07	14.64	13.75	12.58	11.66	11.20	11.77	10.73	8.226	6.563	5.444	5.006	4.611	4.068	4.290	3.815	3.345	2.995	3.063	4.026	5.681	20.75	113.1	398.1	693.3	441.4	17.53	1.559	1.016	0.897	0.776	0.775	0.587	0.687	0.562
555.0	110.5	102.3	105.6	96.26	93.13	103.5	151.9	161.3	116.9	138.2	563.0	3132	1240	93.79	70.47	61.94	53.13	49.16	44.87	43.24	40.08	39.51	36.97	36.19	35.97	36.32	36.49	35.65	35.71	36.20	34.52	33.19	30.68	28.40	25.85	23.87	21.92	20.32	18.70	17.45	15.63	14.16	13.45	12.32	11.55	10.09	9.899	9.072	9.025	9.515	8.216	6.061	4.826	4.201	3.962	3.743	3.675	3.544	3.368	2.724	2.531	2.859	2.893	6.078	26.78	90.18	199.7	623.2	540.7	24.85	1.229	0.969	0.726	0.782	0.579	0.691	0.533
560.0	100.1	97.92	86.81	81.55	78.05	82.60	109.1	164.8	107.8	106.8	204.5	1625	2928	146.0	60.58	51.62	44.44	42.75	36.92	37.73	34.47	32.67	31.55	31.72	30.31	30.14	30.10	29.57	30.66	30.99	29.18	28.59	25.63	23.67	21.26	20.40	18.58	17.72	16.21	14.38	13.47	12.21	11.33	10.59	9.703	8.896	8.689	7.859	7.204	7.580	7.487	6.188	4.445	3.961	3.789	3.382	3.119	3.162	3.283	2.854	2.358	2.379	2.140	2.861	7.342	21.57	46.37	217.4	678.2	255.8	17.75	1.108	0.827	0.722	0.634	0.612	0.521
565.0	98.29	94.71	87.14	77.96	68.13	74.41	83.39	149.3	114.7	89.03	114.4	562.1	3412	681.7	53.04	44.09	39.17	36.83	32.70	31.69	28.87	28.12	26.18	26.40	25.20	26.21	25.24	25.05	26.09	25.86	24.62	24.27	21.20	20.42	18.32	16.75	16.21	14.95	13.48	12.73	11.55	10.55	9.564	9.514	8.105	8.090	7.228	6.789	6.123	6.029	6.505	6.060	4.608	3.673	3.273	3.231	2.957	3.048	2.700	3.080	2.364	2.278	2.101	2.115	3.076	6.344	11.79	51.06	272.1	612.7	215.3	9.080	0.904	0.749	0.584	0.542	0.555
570.0	101.8	93.87	74.66	65.18	61.16	60.07	64.26	102.5	133.9	80.90	84.24	187.6	1734	2319	100.3	36.51	32.53	29.78	26.78	25.47	23.62	23.82	21.71	21.47	20.56	21.20	20.50	20.55	20.93	20.78	20.28	19.40	17.48	16.19	14.58	13.83	13.05	12.02	11.21	10.65	9.421	8.664	8.179	7.806	6.930	6.689	6.108	5.597	5.147	4.603	4.906	5.380	4.420	3.440	2.992	2.674	2.587	2.680	2.430	2.477	2.634	2.330	2.222	2.042	2.289	2.907	4.116	12.83	63.72	227.3	415.9	293.6	17.02	1.132	0.680	0.576	0.532
575.0	85.82	85.98	72.31	60.73	47.53	52.11	53.46	66.65	124.3	91.68	71.53	93.19	471.4	2517	833.6	34.37	27.19	24.36	22.07	20.69	18.64	18.23	18.00	17.14	16.69	16.57	16.50	16.39	16.81	16.86	16.39	15.64	14.34	12.78	12.04	11.17	10.72	9.357	8.816	8.487	7.507	6.915	6.899	6.411	5.959	5.287	5.055	4.715	4.178	3.796	3.662	3.811	4.211	3.476	2.810	2.431	2.473	2.387	2.371	2.217	2.273	2.624	2.365	2.201	2.136	2.121	2.433	4.429	15.52	52.08	112.3	345.8	263.6	24.41	0.898	0.634	0.521
580.0	93.34	84.04	68.90	51.64	44.60	44.75	46.87	52.15	100.1	106.7	67.80	70.21	149.9	1328	2096	74.97	23.10	21.24	18.53	17.70	16.43	15.63	15.11	14.51	13.93	13.95	13.65	13.84	14.44	14.59	13.69	13.04	12.13	11.06	9.788	9.188	8.961	8.045	7.668	7.199	6.215	5.956	5.911	5.417	5.067	4.726	4.334	4.001	3.619	3.105	3.156	2.881	3.454	3.382	2.857	2.253	2.261	2.024	2.032	2.028	2.385	2.441	2.559	2.101	2.123	2.029	2.010	2.527	4.692	13.05	26.59	112.8	370.9	234.3	16.75	0.778	0.418
585.0	91.34	83.55	70.21	52.59	42.68	39.79	42.22	47.12	75.84	115.4	70.75	61.38	74.92	441.8	2528	374.8	20.25	18.49	16.78	15.09	14.15	14.01	13.08	12.79	12.18	11.83	11.71	12.67	11.90	11.97	12.01	10.78	10.57	9.381	8.432	7.739	7.730	7.234	6.377	6.164	5.393	5.331	5.137	4.817	4.438	4.213	3.768	3.601	3.203	2.831	2.613	2.524	2.693	3.139	2.982	2.354	2.155	1.905	1.793	2.069	2.033	2.154	2.424	2.217	2.043	2.029	1.751	1.995	2.399	4.323	7.167	26.62	140.0	365.7	179.8	8.572	0.522
590.0	79.03	80.19	69.43	54.62	38.75	38.35	39.57	40.49	56.10	101.5	88.11	58.69	56.03	133.6	1297	1330	53.37	15.27	13.68	12.60	11.45	11.37	10.72	9.946	9.949	9.576	9.595	10.05	9.757	9.638	9.465	8.924	8.361	7.610	7.207	6.559	6.265	5.747	5.136	5.153	4.590	4.479	4.081	3.774	3.766	3.276	3.019	2.976	2.710	2.490	2.262	2.171	2.080	2.378	2.633	2.479	1.969	1.814	1.663	1.791	1.703	1.867	2.019	2.010	2.004	1.815	1.663	1.711	1.721	2.097	2.653	6.914	32.60	124.5	250.1	152.5	17.33
595.0	66.59	72.19	64.99	51.77	36.47	35.02	33.13	39.05	45.87	73.02	103.3	62.39	52.11	59.89	342.9	1681	499.8	14.51	11.17	10.37	9.623	9.040	8.563	8.173	8.022	7.605	7.616	7.855	7.514	7.744	7.488	6.823	6.320	5.889	5.908	5.236	4.947	4.820	4.413	4.119	3.878	3.610	3.443	3.286	2.902	2.538	2.503	2.469	2.078	2.039	1.923	1.877	1.679	1.659	2.140	2.377	2.008	1.633	1.423	1.560	1.357	1.408	1.623	1.529	1.848	1.903	1.484	1.375	1.406	1.434	1.467	2.376	8.077	28.35	63.64	179.6	227.0
600.0	74.42	74.75	65.03	46.29	34.52	33.56	33.07	38.18	43.27	57.21	103.3	72.42	53.12	44.88	101.0	950.6	1236	32.46	10.13	8.759	7.981	8.080	7.874	7.252	6.994	6.944	6.435	6.614	6.126	6.623	6.182	6.005	5.346	5.133	5.096	4.558	4.244	4.224	3.670	3.327	3.137	3.112	2.677	2.691	2.522	2.358	2.120	2.159	2.050	1.793	1.657	1.650	1.464	1.385	1.674	2.031	1.860	1.587	1.267	1.360	1.171	1.226	1.381	1.296	1.536	1.664	1.544	1.439	1.268	1.291	1.148	1.327	2.659	6.968	14.67	54.00	213.7
605.0	84.09	70.27	64.11	51.14	36.14	32.28	34.10	38.35	43.27	55.24	92.72	93.13	55.43	45.31	49.08	325.4	1590	89.91	9.722	8.037	7.243	6.585	6.549	6.195	6.186	5.874	5.409	5.721	5.708	5.463	5.489	5.285	4.795	4.472	4.058	3.748	4.118	3.453	3.210	2.853	2.664	2.578	2.448	2.289	2.182	2.243	1.948	1.880	1.735	1.486	1.380	1.375	1.087	1.216	1.367	1.612	1.747	1.609	1.314	1.316	1.219	1.190	1.251	1.168	1.213	1.427	1.473	1.352	1.139	1.257	0.895	1.000	1.232	2.073	3.846	12.58	71.51
610.0	73.43	75.23	66.30	47.48	33.75	34.37	37.75	43.19	50.07	64.64	84.29	114.4	76.52	54.27	45.18	99.15	893.1	857.3	31.41	6.887	5.967	5.469	5.457	5.081	4.862	4.853	4.518	4.570	4.677	4.718	4.390	4.215	4.104	3.870	3.357	3.274	3.073	2.819	2.770	2.408	2.268	2.096	2.094	1.918	1.815	1.812	1.587	1.689	1.401	1.310	1.122	1.219	1.085	1.080	1.096	1.124	1.361	1.514	1.381	1.087	1.112	1.085	1.144	1.123	1.111	1.197	1.327	1.401	1.091	1.012	0.972	0.912	0.900	1.075	1.391	3.329	16.47
615.0	75.73	77.09	65.06	47.07	37.02	34.31	33.90	43.01	51.99	64.25	79.01	109.8	96.02	60.71	46.36	46.01	246.8	1142	297.2	6.471	5.236	4.592	4.218	4.375	4.079	3.944	4.045	3.686	3.733	3.957	3.676	3.617	3.270	2.986	2.661	2.513	2.413	2.592	2.241	1.866	1.964	1.646	1.703	1.657	1.541	1.287	1.369	1.286	1.193	1.118	1.042	0.905	0.933	0.872	0.750	0.917	0.917	1.067	1.266	1.052	0.903	0.956	1.063	1.057	1.000	1.173	1.088	1.336	1.373	0.932	0.933	0.847	0.738	0.872	0.796	1.111	4.093
620.0	71.76	82.03	66.49	48.21	36.66	32.90	34.62	42.66	48.12	61.50	73.98	93.50	105.8	62.34	46.28	33.81	75.82	696.7	658.3	15.49	4.747	4.008	3.734	3.646	3.285	3.608	3.450	3.102	3.277	3.289	3.154	2.966	2.696	2.503	2.394	2.288	2.143	2.066	1.876	1.689	1.572	1.404	1.413	1.259	1.279	1.233	1.142	1.109	1.004	0.968	0.879	0.847	0.812	0.795	0.742	0.727	0.811	0.913	1.138	1.041	0.859	0.712	1.012	0.781	0.913	0.829	1.033	1.039	1.179	1.004	0.880	0.843	0.655	0.770	0.750	0.659	1.322
625.0	74.44	86.28	66.90	48.82	31.62	32.10	35.99	41.88	47.57	59.50	69.37	81.95	107.5	66.02	46.19	31.64	36.39	244.0	1081	65.23	4.608	3.956	3.358	3.244	2.935	3.018	3.061	2.540	2.678	2.862	2.704	2.737	2.251	2.100	2.128	2.103	1.905	1.899	1.565	1.559	1.357	1.295	1.199	1.190	1.091	1.232	0.988	1.012	0.902	0.855	0.795	0.793	0.689	0.803	0.708	0.638	0.726	0.796	0.993	1.041	0.934	0.777	0.889	0.753	0.874	0.874	1.029	0.967	0.980	1.061	0.892	0.726	0.744	0.667	0.616	0.554	0.639
630.0	68.40	77.11	65.74	46.98	30.34	29.27	32.83	39.77	45.99	56.80	66.78	77.49	93.20	77.42	46.62	32.03	27.12	70.33	659.9	592.5	16.35	3.398	3.194	2.932	2.618	2.674	2.256	2.215	2.321	2.345	2.304	2.165	1.833	1.838	1.701	1.722	1.548	1.431	1.336	1.370	1.239	1.093	1.046	0.945	0.990	0.976	0.860	0.851	0.846	0.752	0.637	0.620	0.677	0.621	0.594	0.582	0.649	0.700	0.825	0.781	0.905	0.824	0.865	0.652	0.787	0.793	0.817	0.742	0.858	0.882	0.908	0.832	0.707	0.670	0.541	0.493	0.491
635.0	72.86	74.14	60.90	43.21	33.29	29.25	32.51	38.27	43.73	53.82	64.25	73.96	79.29	82.88	52.60	31.26	25.36	27.90	176.1	853.7	177.1	3.319	2.627	2.725	2.129	2.227	1.936	1.987	1.772	2.041	1.806	1.792	1.571	1.559	1.381	1.219	1.251	1.117	1.236	0.977	1.146	1.081	0.796	0.792	0.813	0.736	0.770	0.824	0.757	0.645	0.612	0.500	0.557	0.521	0.468	0.555	0.547	0.632	0.609	0.572	0.817	0.791	0.760	0.709	0.775	0.696	0.822	0.768	0.738	0.773	0.892	0.870	0.741	0.660	0.513	0.608	0.508
640.0	76.05	67.97	62.62	47.03	32.80	29.90	31.52	39.02	43.34	54.12	65.02	73.47	72.32	79.71	59.66	32.99	24.18	17.93	47.09	567.7	504.3	8.080	2.480	2.143	2.015	1.908	1.715	1.707	1.742	1.704	1.784	1.481	1.248	1.328	1.242	1.138	1.021	1.212	1.015	0.924	0.908	1.002	0.715	0.786	0.674	0.715	0.784	0.781	0.538	0.545	0.465	0.513	0.560	0.517	0.533	0.417	0.546	0.529	0.563	0.589	0.715	0.754	0.646	0.715	0.735	0.667	0.749	0.839	0.691	0.684	0.732	0.855	0.942	0.625	0.601	0.454	0.402
645.0	75.48	71.84	64.09	47.60	31.70	29.36	30.56	36.50	40.16	52.62	61.34	71.79	68.78	71.11	65.53	32.80	24.45	15.68	17.03	211.8	784.9	48.15	2.527	2.092	1.828	1.991	1.659	1.511	1.492	1.480	1.367	1.285	1.194	1.314	1.019	1.073	1.045	1.133	0.784	0.803	0.891	0.863	0.816	0.743	0.671	0.538	0.700	0.661	0.659	0.547	0.434	0.439	0.483	0.465	0.465	0.405	0.494	0.490	0.459	0.513	0.609	0.615	0.661	0.646	0.583	0.632	0.639	0.761	0.631	0.652	0.717	0.697	0.895	0.770	0.599	0.495	0.433
650.0	78.50	71.51	70.00	47.73	32.21	26.34	30.20	34.34	40.63	49.15	56.64	65.54	63.97	62.29	62.93	34.31	23.63	15.21	9.723	57.19	679.7	275.2	3.029	2.014	1.673	1.733	1.424	1.486	1.299	1.421	1.197	1.147	1.074	1.077	0.864	1.224	1.041	0.977	0.919	0.812	0.759	0.595	0.842	0.736	0.643	0.590	0.633	0.573	0.501	0.532	0.380	0.408	0.405	0.360	0.408	0.430	0.399	0.488	0.503	0.463	0.472	0.520	0.656	0.621	0.589	0.565	0.613	0.532	0.593	0.711	0.634	0.707	0.636	0.657	0.629	0.437	0.420
