Sample:	'1
File name:	Default_20230215_142422.FD3
Run date:	'14:18:01, 02/15/2023
Operator:	dsjg
Comment:	'

Instrument
Model:	F-2700 FL Spectrophotometer
Serial number:	2198-001
ROM Version:	4J14000 07

Instrument parameters
Measurement type:	3-D scan
Data mode:	Fluorescence
EX  Start WL:	220.0 nm
EX  End WL:	600.0 nm
EX Sampling interval:	5.0 nm
EM  Start WL:	230.0 nm
EM  End WL:	650.0 nm
EM Sampling interval:	5.0 nm
Scan speed:	12000 nm/min
EX Slit:	5.0 nm
EM Slit:	5.0 nm
PMT Voltage:	700 V
Response:	Auto 
Corrected spectra:	Off
Contour interval:	50.000

Peak integration
Integration method:	Rectangular
Sensitivity:	1
Threshold:	1.000

Peaks
No.	ApexEX/EM(nm)	Height(Data)
1	225.0/495.0	94.50
2	230.0/350.0	312.5
3	230.0/370.0	304.7
4	230.0/505.0	93.54
5	230.0/585.0	8.243
6	235.0/260.0	158.5
7	235.0/375.0	318.9
8	235.0/515.0	93.49
9	240.0/265.0	177.4
10	240.0/530.0	74.98
11	245.0/270.0	159.6
12	245.0/540.0	64.41
13	250.0/275.0	189.6
14	250.0/420.0	262.7
15	250.0/550.0	52.33
16	255.0/280.0	196.4
17	255.0/560.0	46.62
18	260.0/290.0	197.6
19	260.0/570.0	33.13
20	265.0/295.0	231.5
21	265.0/585.0	30.25
22	270.0/300.0	298.0
23	270.0/375.0	306.4
24	270.0/600.0	28.01
25	275.0/305.0	327.9
26	275.0/605.0	23.22
27	280.0/310.0	287.0
28	280.0/620.0	18.48
29	285.0/315.0	283.5
30	285.0/635.0	14.31
31	290.0/325.0	287.8
32	290.0/645.0	12.40
33	295.0/330.0	237.9
34	300.0/335.0	231.7
35	305.0/345.0	217.8
36	310.0/350.0	187.6
37	315.0/355.0	181.5
38	320.0/360.0	183.4
39	325.0/370.0	183.3
40	330.0/375.0	191.8
41	335.0/380.0	197.3
42	345.0/395.0	148.9
43	350.0/400.0	148.1
44	355.0/405.0	133.5
45	365.0/420.0	112.5
46	370.0/425.0	103.4
47	380.0/440.0	78.59
48	395.0/460.0	47.31
49	400.0/465.0	41.61
50	415.0/485.0	24.44
51	425.0/500.0	16.64
52	430.0/505.0	14.82
53	435.0/510.0	11.94
54	440.0/515.0	10.45
55	445.0/525.0	9.196
56	455.0/540.0	6.193
57	460.0/545.0	5.157
58	470.0/560.0	3.327
59	540.0/295.0	1.656
60	545.0/300.0	1.852
61	555.0/305.0	1.762
62	560.0/310.0	1.753
63	570.0/315.0	1.703
64	575.0/320.0	1.721
65	580.0/325.0	1.778

Data points
	220.0	225.0	230.0	235.0	240.0	245.0	250.0	255.0	260.0	265.0	270.0	275.0	280.0	285.0	290.0	295.0	300.0	305.0	310.0	315.0	320.0	325.0	330.0	335.0	340.0	345.0	350.0	355.0	360.0	365.0	370.0	375.0	380.0	385.0	390.0	395.0	400.0	405.0	410.0	415.0	420.0	425.0	430.0	435.0	440.0	445.0	450.0	455.0	460.0	465.0	470.0	475.0	480.0	485.0	490.0	495.0	500.0	505.0	510.0	515.0	520.0	525.0	530.0	535.0	540.0	545.0	550.0	555.0	560.0	565.0	570.0	575.0	580.0	585.0	590.0	595.0	600.0
230.0	48.06	566.1	769.8	129.3	2.686	1.331	0.828	0.673	0.698	0.745	0.459	0.493	0.512	0.397	0.350	0.305	0.239	0.231	0.241	0.234	0.218	0.186	0.208	0.166	0.159	0.176	0.163	0.165	0.118	0.148	0.135	0.116	0.121	0.121	0.146	0.242	0.250	0.187	0.171	0.195	0.194	0.233	0.222	0.165	0.114	0.099	0.363	1.611	3.167	2.675	0.941	0.193	0.071	0.072	0.053	0.052	0.053	0.049	0.033	0.039	0.031	0.023	0.031	0.022	0.021	0.020	0.022	0.016	0.022	0.020	0.008	0.015	0.009	0.009	0.005	0.009	0.005
235.0	37.10	184.1	742.9	633.0	178.7	2.969	1.194	1.179	0.885	0.494	0.498	0.432	0.496	0.448	0.547	0.269	0.313	0.269	0.304	0.222	0.168	0.238	0.204	0.135	0.217	0.122	0.149	0.220	0.126	0.129	0.132	0.142	0.111	0.126	0.104	0.175	0.222	0.236	0.167	0.174	0.155	0.176	0.207	0.234	0.219	0.189	0.145	0.468	1.119	2.147	3.062	3.623	1.836	0.286	0.067	0.052	0.062	0.059	0.039	0.041	0.028	0.028	0.024	0.035	0.034	0.028	0.011	0.032	0.009	0.011	0.020	0.031	0.004	0.006	0.017	0.011	0.006
240.0	66.22	60.23	282.7	938.6	851.7	114.1	2.066	1.463	1.037	0.681	0.835	0.618	0.473	0.451	0.340	0.350	0.280	0.220	0.420	0.314	0.231	0.258	0.163	0.208	0.201	0.220	0.145	0.171	0.149	0.163	0.151	0.127	0.075	0.155	0.109	0.118	0.138	0.187	0.173	0.154	0.192	0.199	0.169	0.202	0.283	0.357	0.321	0.191	0.367	0.682	1.546	3.935	5.220	3.652	1.153	0.199	0.054	0.077	0.053	0.039	0.027	0.040	0.016	0.022	0.015	0.021	0.006	0.041	0.024	0.009	0.022	0.013	0.006	0.008	0.002	0.019	0.006
245.0	73.90	83.87	80.26	443.9	 1233	437.3	64.17	2.262	1.553	0.654	1.011	0.620	0.584	0.606	0.456	0.402	0.327	0.304	0.394	0.295	0.262	0.260	0.157	0.250	0.184	0.242	0.163	0.200	0.168	0.225	0.103	0.120	0.109	0.100	0.085	0.132	0.146	0.132	0.208	0.186	0.221	0.225	0.153	0.179	0.201	0.281	0.524	0.300	0.215	0.250	0.451	1.342	3.367	5.638	5.917	2.992	0.712	0.093	0.054	0.074	0.067	0.030	0.030	0.013	0.054	0.022	0.044	0.022	0.019	0.005	0.008	0.019	0.006	0.018	0.010	0.003	-0.007
250.0	29.39	91.40	103.0	129.3	500.7	 1012	835.6	150.8	8.408	1.294	1.170	0.885	0.837	0.646	0.487	0.388	0.336	0.318	0.276	0.226	0.215	0.260	0.265	0.235	0.198	0.329	0.177	0.164	0.149	0.155	0.117	0.131	0.085	0.108	0.077	0.100	0.105	0.101	0.156	0.194	0.219	0.212	0.154	0.193	0.157	0.170	0.263	0.357	0.449	0.424	0.360	0.440	0.884	1.850	3.346	5.034	5.893	4.781	2.511	0.659	0.087	0.043	0.039	0.044	0.052	0.020	0.038	0.017	0.027	0.017	0.027	0.028	0.009	0.003	0.026	0.001	-0.001
255.0	9.736	31.07	116.7	142.3	135.8	315.3	 1019	 1376	213.7	6.789	1.767	1.251	0.866	1.092	0.518	0.560	0.423	0.378	0.340	0.302	0.280	0.254	0.218	0.234	0.220	0.264	0.183	0.202	0.141	0.189	0.148	0.149	0.093	0.121	0.120	0.111	0.116	0.119	0.121	0.161	0.156	0.215	0.186	0.162	0.162	0.155	0.175	0.172	0.248	0.406	0.747	0.722	0.476	0.527	0.851	1.300	2.362	4.802	7.954	7.478	3.401	0.602	0.044	0.042	0.057	0.009	0.043	0.024	0.035	0.021	0.026	0.052	0.011	0.014	0.025	0.014	0.005
260.0	7.131	9.690	58.59	158.5	120.0	84.93	380.8	 1398	 1343	161.9	4.700	1.599	1.124	0.982	0.778	0.480	0.385	0.437	0.339	0.309	0.344	0.256	0.236	0.198	0.209	0.209	0.217	0.263	0.195	0.186	0.207	0.177	0.169	0.118	0.142	0.116	0.126	0.126	0.081	0.122	0.120	0.190	0.235	0.141	0.136	0.140	0.168	0.132	0.138	0.221	0.404	0.793	0.894	0.532	0.309	0.362	0.613	1.480	3.887	7.757	9.408	6.884	2.352	0.310	0.062	0.019	0.026	0.055	0.022	0.020	0.036	0.043	-0.001	0.014	0.010	0.008	0.012
265.0	3.331	3.466	18.79	95.80	177.4	76.76	99.73	578.1	 1679	 1253	119.9	2.356	1.645	1.165	0.805	0.605	0.518	0.488	0.388	0.289	0.444	0.336	0.220	0.289	0.260	0.221	0.254	0.240	0.191	0.229	0.197	0.188	0.125	0.103	0.132	0.123	0.111	0.127	0.094	0.111	0.115	0.194	0.215	0.158	0.206	0.158	0.151	0.139	0.109	0.155	0.194	0.437	0.793	1.022	0.750	0.326	0.241	0.424	0.987	2.519	5.512	10.07	10.08	5.740	1.213	0.036	0.033	0.045	0.034	0.036	0.045	0.054	0.002	0.003	0.018	0.020	0.009
270.0	6.039	5.611	7.645	28.94	104.4	159.6	101.8	149.6	603.5	 1395	 1478	503.3	22.36	1.635	1.114	0.977	0.636	0.595	0.530	0.388	0.426	0.319	0.219	0.287	0.215	0.236	0.203	0.197	0.198	0.153	0.181	0.181	0.146	0.118	0.132	0.156	0.112	0.105	0.113	0.115	0.094	0.131	0.146	0.167	0.189	0.183	0.150	0.171	0.157	0.137	0.129	0.195	0.298	0.514	0.801	0.844	0.760	0.505	0.373	0.681	1.411	3.210	5.432	8.141	9.042	7.501	4.034	1.098	0.078	0.039	0.037	0.031	0.025	0.014	0.009	0.022	0.013
275.0	14.87	12.30	11.90	12.59	30.64	97.85	189.6	122.3	151.7	384.5	 1168	 1965	701.9	16.06	1.693	1.421	0.868	0.649	0.581	0.559	0.412	0.332	0.303	0.316	0.281	0.323	0.143	0.154	0.243	0.176	0.208	0.188	0.142	0.129	0.127	0.137	0.155	0.094	0.141	0.116	0.130	0.115	0.089	0.173	0.180	0.249	0.206	0.213	0.167	0.140	0.138	0.132	0.155	0.191	0.276	0.401	0.862	1.282	0.912	0.516	0.421	0.825	1.312	1.952	3.214	6.315	10.88	11.18	5.368	0.818	0.062	0.030	0.031	0.032	0.029	0.028	0.013
280.0	24.97	22.25	17.98	12.54	13.40	40.36	146.2	196.4	96.24	108.9	386.0	 1503	 1927	126.3	6.155	1.819	1.004	0.879	0.719	0.612	0.472	0.378	0.397	0.296	0.271	0.303	0.265	0.268	0.249	0.195	0.184	0.163	0.187	0.149	0.138	0.152	0.152	0.110	0.168	0.131	0.116	0.104	0.101	0.153	0.206	0.249	0.225	0.240	0.295	0.171	0.127	0.132	0.108	0.157	0.149	0.240	0.372	0.784	1.154	1.243	0.655	0.395	0.394	0.567	0.902	1.835	4.537	9.727	13.17	9.615	3.156	0.220	0.021	0.033	0.019	0.020	0.027
285.0	34.31	34.32	27.13	16.19	14.64	20.51	66.48	195.1	186.0	70.75	121.0	545.4	 1676	 1641	93.56	3.233	1.612	1.010	0.764	0.531	0.439	0.508	0.473	0.320	0.390	0.288	0.305	0.260	0.225	0.204	0.266	0.156	0.158	0.140	0.188	0.199	0.164	0.180	0.163	0.136	0.192	0.130	0.119	0.159	0.170	0.294	0.257	0.307	0.294	0.187	0.156	0.173	0.158	0.187	0.150	0.164	0.222	0.320	0.668	1.133	1.375	0.998	0.397	0.335	0.375	0.626	1.281	3.036	7.024	11.57	13.03	6.767	1.241	0.051	0.037	0.030	0.033
290.0	46.21	47.74	36.38	25.51	19.71	20.54	34.02	96.38	197.6	195.4	106.7	170.4	557.0	 1271	 1211	379.7	18.78	1.496	1.112	0.827	0.650	0.489	0.473	0.415	0.345	0.396	0.296	0.297	0.235	0.247	0.282	0.150	0.154	0.153	0.201	0.213	0.222	0.195	0.189	0.183	0.160	0.157	0.142	0.211	0.184	0.250	0.269	0.331	0.310	0.261	0.206	0.225	0.195	0.209	0.192	0.179	0.203	0.203	0.327	0.461	0.797	1.163	1.347	1.104	0.593	0.413	0.576	0.942	1.907	3.597	6.381	8.898	9.911	8.199	4.201	0.928	0.068
295.0	50.98	59.85	44.06	33.34	27.21	26.67	31.35	51.95	100.9	231.5	220.7	124.5	175.9	348.6	819.7	 1821	556.7	16.03	1.385	1.226	0.981	0.654	0.588	0.556	0.419	0.408	0.378	0.362	0.300	0.229	0.186	0.182	0.168	0.186	0.245	0.209	0.244	0.285	0.282	0.206	0.159	0.177	0.160	0.216	0.201	0.250	0.248	0.333	0.322	0.309	0.250	0.249	0.236	0.177	0.205	0.210	0.199	0.263	0.279	0.289	0.412	0.543	0.811	1.399	1.656	1.109	0.616	0.542	0.765	1.053	1.631	2.243	3.519	6.998	12.65	12.78	5.534
300.0	65.68	70.03	55.34	37.08	35.96	34.71	36.84	48.41	70.59	160.7	298.0	194.1	111.0	120.6	268.5	 1177	 1957	405.3	5.853	1.622	1.098	0.954	0.715	0.634	0.518	0.398	0.395	0.381	0.337	0.282	0.232	0.243	0.190	0.192	0.201	0.238	0.258	0.245	0.232	0.228	0.163	0.156	0.167	0.222	0.231	0.215	0.277	0.268	0.342	0.315	0.285	0.283	0.274	0.253	0.205	0.230	0.259	0.244	0.296	0.241	0.316	0.380	0.521	0.738	1.485	1.852	1.371	0.796	0.512	0.569	0.663	0.781	0.966	2.040	5.287	11.07	14.99
305.0	59.44	74.57	60.59	43.57	39.13	39.68	45.74	52.43	71.85	117.5	237.1	327.9	150.8	83.78	98.41	396.7	 1469	 1842	63.01	2.933	1.574	1.070	0.717	0.601	0.545	0.434	0.391	0.458	0.388	0.336	0.279	0.232	0.182	0.178	0.240	0.211	0.287	0.282	0.224	0.240	0.189	0.192	0.146	0.232	0.251	0.239	0.309	0.273	0.313	0.337	0.356	0.320	0.322	0.318	0.269	0.222	0.286	0.297	0.299	0.283	0.381	0.388	0.485	0.518	0.896	1.292	1.722	1.762	0.961	0.541	0.444	0.510	0.477	0.666	1.412	3.638	7.975
310.0	64.11	75.92	65.05	50.72	43.82	46.70	54.85	63.99	79.15	107.8	158.3	262.0	287.0	147.0	72.39	122.6	451.1	 1243	 1552	267.8	15.41	1.588	1.039	0.759	0.637	0.518	0.416	0.480	0.398	0.347	0.309	0.309	0.211	0.206	0.230	0.211	0.273	0.265	0.229	0.188	0.175	0.225	0.224	0.229	0.233	0.234	0.318	0.312	0.313	0.307	0.257	0.326	0.315	0.329	0.325	0.261	0.327	0.346	0.299	0.390	0.441	0.458	0.516	0.567	0.676	0.880	1.051	1.442	1.753	1.475	0.893	0.528	0.463	0.413	0.540	1.001	2.059
315.0	72.91	82.57	72.54	59.48	52.34	53.67	63.10	76.66	91.06	114.6	139.8	177.8	237.1	283.5	113.4	70.54	134.1	319.7	793.9	 1831	425.1	14.52	1.680	1.014	0.815	0.703	0.559	0.533	0.439	0.324	0.397	0.328	0.223	0.269	0.238	0.231	0.217	0.249	0.211	0.232	0.167	0.179	0.241	0.269	0.231	0.221	0.282	0.318	0.352	0.286	0.326	0.351	0.321	0.334	0.358	0.273	0.394	0.436	0.329	0.375	0.473	0.514	0.550	0.613	0.710	0.803	0.798	0.928	1.030	1.363	1.703	1.447	0.813	0.443	0.423	0.512	0.674
320.0	93.93	111.5	94.81	69.50	56.66	63.24	70.95	86.45	101.5	124.6	148.1	166.2	192.2	277.5	235.3	87.45	74.56	102.9	233.9	 1072	 1879	313.4	5.756	1.362	1.062	0.848	0.695	0.597	0.429	0.360	0.385	0.331	0.254	0.221	0.211	0.236	0.281	0.279	0.233	0.231	0.212	0.220	0.200	0.292	0.244	0.347	0.374	0.490	0.426	0.381	0.339	0.382	0.312	0.393	0.395	0.367	0.421	0.469	0.430	0.489	0.521	0.648	0.620	0.656	0.766	0.779	0.815	0.833	0.904	0.999	1.341	1.721	1.628	0.877	0.425	0.497	0.415
325.0	125.8	171.4	151.7	91.46	70.38	70.42	81.26	93.81	112.3	139.8	165.1	178.0	182.6	216.0	287.8	166.0	73.59	62.93	78.81	325.8	 1381	 1741	51.30	2.586	1.376	1.084	0.799	0.686	0.552	0.475	0.443	0.427	0.369	0.284	0.279	0.297	0.280	0.270	0.249	0.217	0.199	0.255	0.215	0.319	0.278	0.398	0.535	0.659	0.648	0.512	0.474	0.414	0.352	0.410	0.481	0.398	0.497	0.520	0.491	0.613	0.498	0.745	0.695	0.659	0.942	0.819	0.899	0.961	0.875	0.959	0.956	1.278	1.778	1.717	1.076	0.636	0.436
330.0	146.6	209.9	209.1	121.3	85.54	79.72	89.78	108.5	127.1	155.5	180.3	196.7	193.3	186.8	211.2	237.9	141.6	66.83	52.75	96.76	395.8	 1170	 1502	563.7	13.98	1.423	1.009	0.815	0.535	0.612	0.511	0.450	0.347	0.264	0.284	0.292	0.297	0.301	0.285	0.255	0.216	0.231	0.303	0.303	0.377	0.527	0.595	0.764	0.779	0.685	0.565	0.609	0.439	0.411	0.476	0.460	0.598	0.512	0.567	0.629	0.658	0.743	0.733	0.793	0.929	0.887	0.944	1.044	0.991	0.974	0.966	0.962	1.092	1.329	1.390	1.388	1.010
335.0	177.3	254.9	252.5	157.0	112.4	101.9	107.3	127.9	145.0	171.0	199.1	214.4	219.6	197.9	180.3	183.9	231.7	133.7	57.87	53.70	112.3	289.0	757.2	 1899	347.6	13.16	1.469	1.008	0.767	0.662	0.531	0.484	0.330	0.282	0.290	0.339	0.269	0.296	0.252	0.271	0.257	0.244	0.335	0.348	0.473	0.589	0.653	0.876	0.941	0.938	0.717	0.657	0.568	0.575	0.521	0.492	0.553	0.651	0.661	0.672	0.768	0.825	0.827	0.987	0.907	1.014	1.142	1.015	1.118	1.188	1.132	1.020	1.077	0.957	1.003	1.186	1.589
340.0	188.2	298.3	283.8	194.2	137.9	125.0	132.1	141.6	161.9	185.3	215.7	230.3	232.9	215.9	186.1	156.5	196.8	213.5	77.61	51.03	55.02	87.45	211.8	 1126	 1858	272.0	4.766	1.338	0.993	0.786	0.618	0.541	0.396	0.285	0.387	0.334	0.254	0.326	0.259	0.314	0.282	0.312	0.340	0.428	0.463	0.695	0.736	0.976	1.111	1.012	0.770	0.734	0.665	0.606	0.669	0.571	0.703	0.678	0.767	0.812	0.752	0.927	0.901	1.028	1.001	1.121	1.187	1.215	1.172	1.193	1.221	1.113	1.051	0.931	0.902	0.862	1.057
345.0	193.9	299.9	312.0	213.3	163.9	144.3	152.0	158.9	172.7	195.7	223.4	236.3	247.0	227.8	195.4	156.1	151.4	217.8	160.2	64.81	49.32	49.02	69.80	334.0	 1464	 1615	43.25	2.307	1.202	1.033	0.777	0.554	0.435	0.398	0.335	0.334	0.328	0.289	0.304	0.273	0.256	0.275	0.398	0.418	0.556	0.697	0.776	1.023	1.143	1.015	0.868	0.836	0.839	0.734	0.627	0.663	0.813	0.770	0.870	0.874	0.834	0.911	0.964	1.022	1.137	1.139	1.185	1.193	1.227	1.294	1.304	1.227	1.154	1.060	0.960	0.882	0.822
350.0	191.8	293.0	312.5	243.3	198.2	179.2	179.3	186.6	197.1	219.0	236.3	251.5	254.9	241.3	209.1	167.9	140.2	152.8	187.6	138.5	67.03	48.66	46.85	98.61	416.2	 1181	 1412	189.3	11.40	1.307	1.003	0.670	0.498	0.461	0.375	0.423	0.350	0.327	0.291	0.281	0.283	0.334	0.372	0.394	0.494	0.632	0.738	1.039	1.086	1.067	0.904	0.960	0.955	0.889	0.809	0.778	0.880	0.929	0.971	1.008	1.007	1.036	1.110	1.167	1.166	1.161	1.145	1.297	1.251	1.331	1.283	1.262	1.249	1.110	0.933	0.979	0.895
355.0	186.9	277.8	305.4	255.2	227.1	216.5	214.0	217.9	222.9	234.9	255.8	264.1	264.4	250.2	218.4	178.7	147.4	134.1	138.1	181.5	132.8	61.51	51.38	54.55	116.0	289.7	766.4	 1697	312.5	10.42	1.506	0.862	0.564	0.524	0.414	0.341	0.385	0.370	0.329	0.279	0.277	0.323	0.320	0.401	0.395	0.697	0.782	0.968	1.119	1.016	0.965	1.017	1.043	1.037	0.891	0.954	1.002	1.025	1.009	1.039	1.215	1.141	1.259	1.259	1.197	1.207	1.219	1.294	1.335	1.318	1.336	1.296	1.140	1.197	1.145	1.048	0.983
360.0	180.4	267.5	296.2	258.4	247.9	228.2	229.7	234.4	239.6	247.5	256.5	265.5	267.0	254.0	226.5	184.6	154.0	135.7	122.4	149.4	183.4	99.22	59.66	50.96	54.90	85.12	211.4	 1089	 1709	246.5	3.780	1.230	0.928	0.637	0.499	0.411	0.387	0.332	0.391	0.325	0.294	0.379	0.325	0.515	0.376	0.581	0.729	0.972	0.997	0.955	0.878	1.152	1.055	1.165	1.074	0.951	1.082	1.177	1.172	1.192	1.277	1.185	1.242	1.246	1.305	1.293	1.372	1.296	1.390	1.362	1.255	1.220	1.190	1.237	1.110	1.036	0.998
365.0	167.1	260.8	302.9	274.5	265.4	244.5	246.3	252.4	250.1	257.2	264.0	266.4	268.3	256.8	226.8	188.3	161.7	141.2	128.2	126.3	172.3	158.9	80.79	58.19	48.09	45.47	66.57	323.3	 1457	 1467	38.17	2.338	0.974	0.689	0.580	0.509	0.369	0.368	0.332	0.381	0.382	0.413	0.416	0.425	0.462	0.554	0.769	0.944	1.012	1.003	0.970	1.133	1.133	1.226	1.068	0.999	1.111	1.187	1.179	1.253	1.282	1.323	1.232	1.328	1.353	1.387	1.387	1.385	1.364	1.341	1.291	1.326	1.238	1.254	1.161	1.083	0.960
370.0	164.8	259.8	304.7	302.5	294.2	271.1	270.6	272.1	282.3	289.8	293.0	286.5	273.1	254.8	232.2	197.7	173.5	158.3	145.5	136.9	150.7	183.3	165.9	103.2	69.81	54.07	50.96	96.79	425.9	 1205	 1350	171.2	9.478	1.111	0.785	0.577	0.463	0.382	0.346	0.393	0.369	0.341	0.401	0.420	0.474	0.665	0.725	0.882	0.973	1.048	1.017	1.155	1.264	1.307	1.263	1.151	1.283	1.271	1.317	1.401	1.406	1.481	1.374	1.483	1.498	1.443	1.361	1.505	1.400	1.369	1.313	1.392	1.342	1.235	1.120	1.198	1.136
375.0	164.7	248.3	299.9	318.9	312.3	280.6	278.5	282.7	291.0	297.6	306.4	296.5	273.4	247.0	226.9	198.4	180.5	167.3	157.2	149.1	147.2	153.6	191.8	170.0	97.33	70.58	59.01	55.51	119.1	301.0	818.9	 1582	263.3	7.740	1.076	0.681	0.640	0.495	0.381	0.395	0.446	0.398	0.340	0.414	0.529	0.559	0.724	0.954	0.912	0.954	1.093	1.247	1.292	1.318	1.281	1.214	1.332	1.297	1.400	1.411	1.386	1.472	1.514	1.496	1.600	1.616	1.341	1.519	1.475	1.480	1.230	1.353	1.274	1.276	1.189	1.121	1.030
380.0	151.4	232.5	288.7	316.1	301.7	279.6	277.0	274.1	284.0	290.1	296.7	291.3	269.9	247.1	221.6	198.6	182.1	171.9	159.7	153.0	146.4	144.2	163.5	197.3	130.4	79.41	65.10	51.57	55.12	88.98	234.7	 1108	 1454	37.66	2.515	0.907	0.666	0.579	0.462	0.362	0.411	0.376	0.370	0.424	0.476	0.535	0.711	0.924	0.870	0.970	1.043	1.260	1.284	1.338	1.353	1.211	1.336	1.301	1.329	1.352	1.406	1.375	1.439	1.559	1.560	1.570	1.270	1.446	1.353	1.356	1.409	1.333	1.286	1.289	1.194	1.163	1.121
385.0	158.3	229.0	279.0	299.4	301.7	286.2	275.9	270.8	281.2	281.9	290.5	282.4	264.3	241.8	218.0	196.4	182.5	173.1	160.8	155.2	149.5	142.1	144.6	175.0	168.0	95.48	71.17	54.98	45.03	44.94	77.47	345.3	 1347	 1101	30.31	1.420	0.797	0.627	0.512	0.455	0.390	0.386	0.375	0.412	0.469	0.584	0.665	0.875	0.909	0.903	0.938	1.167	1.300	1.323	1.417	1.175	1.279	1.311	1.418	1.386	1.398	1.188	1.519	1.377	1.520	1.475	1.311	1.328	1.427	1.407	1.340	1.372	1.300	1.251	1.179	1.069	1.168
390.0	151.3	219.8	270.1	295.9	298.2	284.5	275.3	273.4	274.2	276.9	285.2	274.2	256.2	235.3	215.3	193.9	183.2	175.3	165.8	163.4	155.6	149.7	147.0	149.7	164.1	144.3	92.25	62.47	48.05	40.74	45.81	97.00	399.9	986.2	 1004	131.3	6.845	0.796	0.649	0.553	0.418	0.436	0.418	0.441	0.457	0.633	0.650	0.781	0.873	0.908	0.978	1.153	1.279	1.395	1.227	1.182	1.326	1.243	1.321	1.321	1.281	1.379	1.374	1.280	1.391	1.455	1.309	1.320	1.326	1.302	1.282	1.354	1.292	1.158	1.163	1.101	1.133
395.0	148.5	202.8	255.4	279.7	291.5	275.5	269.0	261.9	268.0	265.7	276.2	257.6	247.1	220.3	207.2	189.4	180.2	173.6	167.5	163.2	157.2	152.3	147.5	139.9	133.6	148.9	135.8	78.71	53.33	44.25	41.90	43.77	102.1	239.9	666.6	 1219	209.3	4.981	0.880	0.707	0.539	0.527	0.468	0.406	0.498	0.594	0.586	0.694	0.812	0.933	0.914	1.142	1.334	1.313	1.227	1.169	1.214	1.214	1.170	1.324	1.253	1.378	1.346	1.361	1.352	1.285	1.319	1.314	1.232	1.230	1.277	1.225	1.174	1.113	1.123	1.154	1.087
400.0	142.0	197.8	242.4	274.7	281.5	274.3	257.4	254.3	255.0	254.6	261.4	248.9	240.9	214.0	201.3	185.3	176.9	169.2	166.7	161.4	155.1	149.6	144.5	137.9	124.8	126.2	148.1	106.5	62.13	48.32	43.28	35.28	38.31	63.97	184.3	890.9	 1111	32.40	1.971	0.891	0.625	0.481	0.481	0.453	0.506	0.605	0.672	0.705	0.853	0.800	0.838	1.089	1.242	1.277	1.213	1.194	1.200	1.355	1.098	1.271	1.252	1.332	1.307	1.369	1.227	1.288	1.272	1.250	1.164	1.193	1.213	1.203	1.185	1.109	1.102	1.107	1.179
405.0	137.5	191.0	236.6	265.5	271.4	269.5	255.9	249.2	247.7	246.0	249.6	241.5	228.8	213.7	195.9	179.0	171.3	166.6	162.1	157.4	151.5	147.9	141.0	133.3	123.1	112.3	129.5	133.5	78.33	52.89	46.41	35.87	27.42	26.06	49.88	274.6	 1056	824.9	25.53	1.365	0.718	0.629	0.455	0.538	0.504	0.613	0.553	0.745	0.804	0.800	0.898	1.085	1.157	1.231	1.305	1.161	1.235	1.209	1.215	1.254	1.248	1.183	1.218	1.190	1.292	1.161	1.128	1.139	1.083	1.163	1.180	1.248	1.192	1.115	1.155	1.085	1.086
410.0	134.5	186.2	222.8	254.4	267.3	267.9	260.9	255.1	243.3	238.3	237.1	229.7	218.2	200.3	186.4	172.9	164.3	160.6	157.1	151.9	147.9	142.8	138.6	131.7	120.1	108.7	108.0	121.0	111.3	70.58	52.41	39.67	28.64	21.36	22.04	70.03	320.6	769.7	604.5	117.9	5.584	0.797	0.581	0.577	0.452	0.562	0.587	0.730	0.749	0.764	0.852	1.054	1.144	1.192	1.293	1.181	1.229	1.213	1.284	1.212	1.167	1.103	1.199	1.142	1.202	1.169	1.089	1.093	1.134	1.187	1.097	1.177	1.181	1.081	1.097	0.996	1.036
415.0	117.9	176.9	213.9	234.7	257.8	265.6	257.8	257.0	241.9	232.6	227.1	217.3	204.8	188.2	175.8	163.9	157.1	153.7	151.5	143.2	141.2	135.3	133.0	126.4	118.7	108.4	101.4	97.80	108.5	103.2	64.84	44.56	32.61	24.47	19.47	26.14	79.19	187.3	494.0	934.4	173.1	4.265	0.853	0.669	0.604	0.540	0.545	0.684	0.760	0.724	0.789	0.953	1.074	1.049	1.179	1.220	1.277	1.294	1.298	1.178	1.176	1.217	1.060	1.065	1.227	1.070	1.155	1.111	1.071	1.183	1.015	1.037	0.987	0.932	0.999	1.003	0.966
420.0	121.1	170.1	203.8	230.4	253.0	258.4	262.7	254.1	235.0	225.2	220.0	205.0	196.3	181.5	168.4	158.2	149.2	146.6	142.1	137.8	133.8	131.2	127.9	124.5	117.1	106.9	98.33	92.00	91.12	112.5	84.66	50.18	35.41	27.08	20.64	17.48	26.67	48.77	137.1	679.1	854.0	29.99	1.711	0.816	0.665	0.615	0.574	0.640	0.719	0.681	0.752	0.970	1.002	1.075	1.137	1.216	1.276	1.140	1.213	1.105	1.137	1.142	0.983	1.114	1.147	1.071	1.112	1.073	0.994	1.107	1.004	1.064	0.958	1.008	0.970	1.077	0.900
425.0	119.4	163.3	186.3	215.2	242.5	253.9	256.5	249.0	227.6	217.9	212.4	201.4	186.7	175.7	161.2	150.6	144.2	139.1	136.9	132.5	128.7	128.2	124.1	119.8	113.4	104.9	98.62	91.04	84.53	96.44	103.4	63.24	38.72	29.64	22.46	17.30	15.69	18.62	36.15	205.6	798.5	659.9	24.53	1.113	0.709	0.583	0.581	0.680	0.690	0.751	0.818	0.899	1.003	1.111	1.072	1.117	1.162	1.194	1.204	1.168	1.165	1.174	1.095	1.138	1.066	0.973	1.030	0.952	0.962	1.057	0.980	0.930	0.911	0.937	0.907	0.979	0.961
430.0	110.1	145.8	192.0	210.4	228.3	246.2	255.3	247.6	227.3	213.6	208.0	193.2	181.8	168.2	153.4	141.6	136.3	132.7	128.7	125.7	122.8	121.5	119.3	116.4	109.5	102.8	98.20	90.97	84.42	82.28	92.46	85.86	52.12	33.65	24.82	19.33	15.51	13.17	14.59	50.86	236.0	590.9	491.8	108.6	5.304	0.768	0.644	0.689	0.721	0.725	0.762	0.893	1.003	1.010	1.017	1.104	1.190	1.226	1.239	1.196	1.111	1.121	1.095	1.110	1.052	0.998	0.975	0.972	0.946	0.943	0.904	0.917	0.868	0.894	0.838	0.895	0.941
435.0	122.6	137.3	177.4	202.1	220.3	231.7	249.7	239.8	225.9	211.4	195.9	189.1	173.7	160.5	145.4	135.8	129.6	123.7	121.0	119.0	117.1	114.8	112.5	110.1	106.2	100.4	95.70	90.85	84.65	78.23	75.32	81.89	75.56	41.79	28.70	22.41	18.02	13.98	10.99	16.73	56.92	141.5	378.1	774.1	162.8	3.442	0.837	0.732	0.771	0.691	0.696	0.933	0.982	0.999	1.041	1.079	1.136	1.204	1.166	1.231	1.184	1.109	1.048	1.056	0.925	0.968	0.919	0.932	0.917	0.907	0.895	0.882	0.851	0.823	0.763	0.802	0.970
440.0	193.2	140.2	167.2	193.9	214.3	231.2	248.1	237.7	226.0	206.9	200.4	182.8	167.9	157.0	141.6	131.7	122.7	119.2	115.5	113.1	110.4	109.4	108.5	107.7	103.7	97.76	94.24	89.76	84.76	77.11	72.81	70.60	78.59	57.77	33.84	24.33	19.52	14.65	11.44	10.04	17.48	35.29	104.6	587.8	735.1	26.82	1.498	0.849	0.746	0.676	0.679	0.886	0.918	0.976	1.098	1.054	1.118	1.170	1.218	1.134	1.096	1.069	1.054	1.055	1.016	0.952	0.854	0.853	0.918	0.978	0.926	0.878	0.740	0.825	0.802	0.741	0.893
445.0	285.6	143.2	165.5	183.9	208.0	224.1	245.1	236.3	219.3	204.0	193.5	177.6	164.6	149.7	135.6	125.3	116.2	112.5	109.9	110.3	106.6	105.3	104.1	103.1	100.6	95.31	92.91	88.65	83.08	78.98	72.05	63.51	69.31	68.19	40.03	26.59	20.18	15.95	12.52	9.339	9.149	11.85	26.37	190.4	759.3	521.2	18.25	1.110	0.806	0.707	0.759	0.816	0.877	0.899	0.999	1.053	1.113	1.128	1.119	1.113	1.150	0.952	1.055	1.001	0.993	0.997	0.852	0.839	0.756	0.953	0.935	0.742	0.652	0.733	0.694	0.814	0.757
450.0	335.0	258.8	160.6	174.1	200.3	207.9	231.6	228.6	206.2	194.4	184.9	170.9	156.0	141.1	126.9	117.0	108.6	103.5	101.7	101.1	99.32	97.99	96.26	95.92	93.22	90.66	87.98	85.10	81.13	76.64	69.94	61.35	56.67	60.36	54.23	33.70	22.78	17.62	13.31	10.21	8.210	7.210	9.305	45.98	227.1	530.1	445.3	95.45	4.581	0.820	0.788	0.830	0.926	0.848	0.970	0.921	1.143	1.085	1.122	1.091	1.063	0.997	1.079	0.914	0.905	0.898	0.885	0.830	0.753	0.808	0.841	0.734	0.696	0.712	0.675	0.695	0.714
455.0	217.1	455.5	203.5	159.4	179.8	194.6	213.7	212.6	195.5	180.5	175.5	163.5	148.3	129.9	118.1	106.0	98.52	95.35	92.26	91.69	89.98	89.57	87.70	88.00	86.09	84.93	82.13	81.14	78.72	74.22	67.98	59.62	50.94	47.43	49.53	47.26	28.06	18.63	14.45	11.28	8.578	7.043	6.190	13.55	53.03	126.9	331.5	664.8	136.8	3.358	0.794	0.848	0.842	0.786	0.958	0.886	0.952	1.060	0.988	0.966	0.978	1.021	1.002	0.883	0.847	0.856	0.815	0.786	0.774	0.812	0.766	0.640	0.664	0.626	0.635	0.621	0.556
460.0	125.7	496.7	342.8	150.0	165.2	183.1	208.0	201.1	189.5	174.9	167.1	153.6	138.7	124.0	108.5	99.33	93.16	88.03	86.36	84.84	81.96	82.99	82.10	81.75	80.10	80.09	78.14	76.62	74.67	70.54	65.89	57.96	49.27	44.00	40.93	47.31	36.29	20.59	15.74	11.70	9.194	7.114	5.949	6.350	14.69	30.70	90.54	485.4	594.5	20.41	1.411	0.891	0.875	0.870	0.880	0.829	0.881	1.028	1.006	0.919	0.880	0.997	0.853	0.786	0.873	0.739	0.752	0.734	0.768	0.695	0.677	0.679	0.661	0.551	0.582	0.650	0.576
465.0	86.81	382.4	514.4	175.5	152.2	174.4	187.1	191.3	172.7	166.2	160.6	147.6	130.3	116.4	100.8	91.76	87.83	82.58	80.89	78.54	77.86	76.54	77.02	75.96	75.79	75.62	75.14	71.97	70.81	67.79	63.09	56.38	47.88	41.27	36.25	39.70	41.61	26.12	16.25	12.43	9.883	7.707	6.220	5.271	6.345	9.370	22.78	150.5	579.3	438.0	15.85	1.042	0.923	0.798	0.844	0.879	0.944	0.985	0.964	0.843	0.900	0.902	0.800	0.699	0.809	0.671	0.695	0.711	0.623	0.620	0.660	0.602	0.647	0.558	0.583	0.571	0.616
470.0	72.91	181.1	550.7	360.9	147.7	162.8	169.4	174.1	162.1	152.6	146.0	135.8	119.4	106.2	93.77	83.80	78.89	75.30	72.80	71.02	70.14	69.58	69.92	69.14	68.93	67.81	67.30	66.20	65.22	63.14	59.24	52.99	45.48	39.16	33.60	31.47	34.26	32.51	21.01	13.12	10.14	8.054	6.517	5.306	4.800	4.933	7.394	35.78	168.5	401.0	426.4	88.08	4.627	0.873	0.824	0.881	0.843	0.828	0.902	0.839	0.761	0.829	0.750	0.726	0.747	0.709	0.677	0.649	0.608	0.561	0.555	0.606	0.589	0.564	0.556	0.491	0.557
475.0	69.34	104.6	316.1	621.9	218.0	140.6	155.2	156.3	144.6	138.0	136.3	122.0	109.3	96.74	84.43	74.31	69.29	67.44	64.82	63.59	61.10	61.64	62.47	60.90	61.95	61.13	60.90	59.66	59.42	56.84	53.75	48.46	42.34	36.26	31.56	27.01	25.60	28.33	28.11	16.90	11.10	8.178	6.844	5.858	4.976	4.204	4.119	10.07	39.35	94.23	237.0	487.6	124.0	3.339	0.823	0.763	0.781	0.748	0.769	0.852	0.712	0.752	0.741	0.634	0.650	0.716	0.664	0.652	0.527	0.530	0.574	0.556	0.545	0.466	0.458	0.368	0.465
480.0	70.24	82.83	155.5	593.6	401.0	130.2	142.2	142.8	135.4	129.0	123.7	114.6	100.4	87.53	78.33	69.17	64.68	61.74	59.30	57.73	55.17	56.52	56.41	56.06	56.76	55.62	55.97	55.82	55.42	52.97	51.32	45.25	40.03	34.94	30.03	25.21	22.15	22.49	27.91	21.46	12.29	8.417	7.003	6.197	5.339	4.198	3.471	4.415	10.62	22.59	61.55	314.0	448.5	23.37	1.427	0.830	0.799	0.852	0.805	0.764	0.727	0.697	0.615	0.636	0.696	0.693	0.565	0.552	0.501	0.510	0.474	0.515	0.446	0.441	0.476	0.377	0.417
485.0	73.63	80.34	98.46	405.2	599.9	166.8	130.8	135.6	127.6	122.5	119.8	104.1	94.38	83.32	73.07	65.32	58.05	57.08	53.77	53.24	51.55	52.51	52.05	53.27	52.53	52.36	51.56	52.49	51.63	49.55	47.44	42.88	37.70	32.91	28.42	24.19	21.39	19.02	22.94	24.44	15.13	9.214	6.890	6.137	5.271	4.488	3.732	3.279	4.250	6.492	15.32	89.15	402.9	380.2	19.03	1.043	0.837	0.811	0.759	0.769	0.700	0.581	0.589	0.676	0.653	0.670	0.669	0.548	0.549	0.453	0.440	0.503	0.399	0.449	0.474	0.340	0.421
490.0	67.74	87.25	81.69	184.7	569.9	369.5	129.3	123.0	114.0	110.7	109.4	96.48	86.89	76.74	66.48	60.25	53.42	50.81	48.50	47.29	46.64	47.08	46.26	47.06	47.09	46.82	46.54	46.36	46.77	45.06	43.18	38.94	34.88	30.66	26.63	23.06	20.18	17.91	17.35	20.01	19.71	12.36	7.766	6.069	5.223	4.521	3.946	3.302	3.039	3.109	4.940	21.33	111.3	300.2	306.4	90.11	4.711	0.802	0.745	0.738	0.641	0.596	0.582	0.617	0.574	0.576	0.549	0.466	0.493	0.431	0.400	0.412	0.392	0.394	0.361	0.320	0.412
495.0	52.38	94.50	78.49	101.2	295.3	613.3	209.0	108.0	103.2	99.28	97.38	90.44	78.90	67.78	59.28	52.45	47.58	45.11	43.59	41.94	41.69	41.24	40.67	42.14	41.62	42.47	40.86	41.33	40.93	39.85	38.74	35.38	31.28	27.39	24.14	21.46	18.48	16.51	14.85	14.41	17.38	16.51	9.877	6.596	5.438	4.471	4.080	3.600	3.133	2.519	2.519	6.081	26.00	70.39	209.1	458.6	130.7	3.259	0.799	0.697	0.560	0.602	0.577	0.589	0.516	0.489	0.491	0.421	0.478	0.413	0.358	0.412	0.340	0.337	0.378	0.330	0.333
500.0	43.76	86.24	88.73	81.97	143.4	561.2	377.7	104.5	96.15	94.16	89.39	80.91	73.76	62.29	54.40	47.47	43.41	41.39	39.57	38.35	38.29	36.92	37.03	36.79	37.35	38.30	37.25	37.29	36.56	36.58	35.32	32.22	28.35	25.57	22.60	20.13	17.18	15.32	13.79	12.38	13.15	16.64	12.74	7.411	5.711	4.570	4.027	3.505	3.267	2.455	2.127	2.771	7.054	16.80	54.52	289.9	428.3	24.68	1.487	0.712	0.553	0.570	0.550	0.512	0.479	0.486	0.441	0.433	0.386	0.395	0.398	0.318	0.308	0.297	0.301	0.346	0.292
505.0	36.58	68.94	93.54	72.30	87.81	355.2	573.5	145.5	87.54	85.44	82.07	73.82	66.74	56.64	50.64	43.14	39.25	36.65	35.45	34.71	33.98	34.33	33.86	34.14	33.84	34.21	33.47	33.39	33.97	33.65	31.47	30.04	26.44	23.41	21.02	18.68	15.97	14.03	12.34	11.12	10.60	13.45	14.82	9.524	5.950	4.668	3.848	3.463	3.195	2.694	2.263	2.077	2.775	4.973	13.31	81.18	356.8	339.7	20.14	0.802	0.560	0.567	0.509	0.482	0.405	0.431	0.388	0.352	0.389	0.360	0.327	0.339	0.281	0.257	0.270	0.254	0.270
510.0	30.28	49.90	88.17	78.83	68.96	148.3	488.7	368.6	86.87	74.19	70.53	65.39	57.65	50.40	42.79	37.78	35.44	32.72	30.79	29.64	29.51	29.43	29.11	29.26	29.15	29.60	29.32	29.19	29.69	29.02	27.84	26.25	23.24	20.95	18.59	16.52	14.63	12.75	11.30	9.999	9.078	9.218	11.87	11.94	7.669	4.664	3.880	3.341	2.925	2.703	2.385	2.028	1.911	2.290	4.073	19.21	97.22	253.9	256.2	87.53	4.014	0.561	0.499	0.511	0.377	0.429	0.329	0.346	0.297	0.317	0.306	0.274	0.264	0.272	0.243	0.213	0.220
515.0	25.66	34.38	66.85	93.49	62.17	80.07	225.5	545.3	193.8	64.71	62.95	57.53	50.02	43.51	37.20	33.79	29.21	27.79	27.00	25.15	25.56	24.64	24.69	24.65	25.10	25.18	24.93	24.96	25.32	25.08	24.26	22.95	20.54	18.00	16.30	14.48	12.66	11.56	10.20	9.025	7.836	7.417	7.933	10.08	10.45	6.104	3.824	3.127	2.871	2.461	2.367	2.098	1.731	1.682	1.998	5.330	22.64	58.98	143.1	327.3	110.9	2.535	0.422	0.407	0.347	0.382	0.291	0.269	0.310	0.311	0.284	0.252	0.235	0.233	0.226	0.231	0.163
520.0	20.86	31.12	45.05	85.16	65.92	60.06	101.9	443.8	377.2	62.44	55.74	52.33	44.29	37.49	33.49	30.32	27.25	24.07	23.93	22.39	22.80	22.15	22.77	21.92	22.49	21.63	22.07	22.39	22.05	22.39	21.77	20.23	18.31	16.58	14.34	13.34	11.63	10.67	9.576	8.450	7.283	6.931	6.227	7.489	10.18	7.963	4.250	3.282	2.627	2.397	2.164	2.188	2.009	1.496	1.444	2.117	5.965	14.02	36.37	199.5	304.2	23.89	0.892	0.423	0.320	0.350	0.324	0.252	0.254	0.259	0.234	0.231	0.209	0.276	0.206	0.222	0.177
525.0	23.51	28.90	37.54	70.91	70.19	49.28	63.60	250.2	519.0	128.1	51.91	46.18	42.44	34.45	30.09	26.72	25.13	22.55	21.36	20.98	20.04	19.78	19.91	19.91	19.93	19.95	19.55	19.90	19.68	19.64	19.75	18.06	16.13	15.06	13.18	11.84	10.74	9.898	8.820	7.790	6.929	6.177	5.752	5.726	8.145	9.196	5.736	3.339	2.692	2.345	2.089	1.952	1.849	1.644	1.362	1.390	2.169	3.884	8.931	55.11	240.4	198.5	18.53	0.519	0.340	0.304	0.313	0.253	0.219	0.246	0.210	0.252	0.224	0.218	0.201	0.219	0.146
530.0	17.19	25.36	29.79	48.91	74.98	53.31	47.51	102.5	398.0	348.2	63.54	40.53	36.10	30.82	26.87	23.10	21.02	19.56	18.28	17.92	17.76	17.05	17.40	16.99	16.83	17.06	16.64	17.49	17.26	17.08	16.50	15.71	14.26	12.97	11.58	10.50	9.310	8.475	7.572	7.100	6.104	5.589	5.053	4.676	5.554	7.485	7.388	4.436	2.643	2.150	1.986	1.772	1.612	1.614	1.409	1.220	1.239	1.539	2.685	12.97	64.79	166.5	200.4	69.65	2.882	0.363	0.259	0.268	0.197	0.234	0.211	0.217	0.180	0.203	0.176	0.170	0.121
535.0	12.89	19.04	26.34	31.86	55.69	61.82	42.76	51.22	159.9	520.4	184.9	34.04	31.45	26.19	22.96	19.27	17.92	17.42	15.63	14.94	15.24	14.53	14.71	14.35	14.42	14.65	14.15	14.90	14.66	14.51	13.99	13.05	12.42	11.06	9.826	8.954	8.087	7.405	6.694	6.044	5.598	5.111	4.445	4.080	3.867	4.679	6.724	5.936	3.324	2.140	1.917	1.623	1.547	1.450	1.402	1.261	0.991	0.985	1.078	3.468	14.94	38.51	104.4	239.5	26.62	1.901	0.307	0.254	0.209	0.213	0.185	0.149	0.114	0.141	0.168	0.164	0.133
540.0	12.05	18.41	23.07	26.31	41.27	64.41	39.03	38.62	67.43	444.5	361.6	41.05	27.72	23.42	20.91	17.41	15.90	15.40	14.30	13.53	13.34	12.60	12.84	12.60	12.94	12.93	12.89	13.29	13.25	12.66	12.37	11.60	10.78	9.747	9.021	8.113	7.139	6.389	5.955	5.359	4.826	4.504	3.975	3.605	3.263	3.588	4.787	6.193	4.433	2.348	1.723	1.555	1.271	1.264	1.138	1.252	1.066	0.794	0.779	1.346	3.817	9.023	26.12	144.3	203.6	22.88	0.671	0.279	0.176	0.190	0.179	0.146	0.141	0.115	0.136	0.121	0.099
545.0	10.56	17.59	21.77	21.74	31.15	55.97	44.09	32.21	40.34	259.3	448.7	114.1	24.77	21.41	18.17	16.43	14.05	13.44	13.16	11.62	11.38	11.12	11.28	11.22	11.30	11.37	11.07	11.63	11.88	11.33	11.49	10.35	9.742	8.507	8.093	7.054	6.469	5.764	5.287	4.853	4.451	4.159	3.661	3.559	3.180	2.986	3.420	5.123	5.157	2.962	1.687	1.418	1.284	1.157	1.146	1.127	1.149	0.779	0.805	0.767	1.298	2.442	6.201	40.08	173.6	171.6	16.17	0.334	0.148	0.154	0.115	0.204	0.119	0.124	0.084	0.089	0.109
550.0	9.969	14.57	16.62	19.46	22.67	40.55	52.33	32.83	29.91	90.40	286.3	307.8	42.33	18.56	15.47	13.87	12.50	11.56	10.74	9.984	9.837	9.597	9.915	9.567	9.570	9.913	9.520	9.519	10.03	9.557	9.607	9.174	8.402	7.377	6.864	6.066	5.505	5.155	4.750	4.252	3.836	3.547	3.251	3.081	2.716	2.608	2.502	3.042	4.295	3.928	2.326	1.388	1.154	1.038	0.959	0.925	1.000	0.883	0.716	0.557	0.673	0.911	1.720	9.342	47.00	128.3	147.0	48.51	1.767	0.175	0.119	0.151	0.116	0.125	0.086	0.094	0.090
555.0	9.706	12.34	18.31	17.73	18.41	25.28	44.16	40.74	26.50	39.16	104.3	330.4	149.4	15.57	13.19	11.65	10.46	9.850	9.084	8.792	8.538	7.948	8.192	8.068	8.233	8.026	8.080	8.234	8.017	7.939	7.803	7.474	6.965	6.306	5.738	5.313	4.820	4.348	4.126	3.630	3.263	2.872	2.798	2.683	2.374	2.100	2.083	2.034	2.556	3.769	3.136	1.797	1.016	0.897	0.847	0.762	0.732	0.840	0.733	0.567	0.473	0.540	0.694	2.323	10.73	29.59	76.44	166.9	25.37	1.021	0.146	0.143	0.123	0.101	0.057	0.057	0.081
560.0	9.237	12.69	14.35	15.62	14.93	19.87	36.24	46.62	24.44	25.27	40.95	213.0	295.3	26.16	10.93	9.736	8.354	8.366	7.643	7.635	7.278	6.983	6.981	6.694	7.195	6.742	6.762	6.901	6.874	6.972	6.681	6.435	5.704	5.045	5.127	4.338	4.148	3.618	3.366	3.206	2.840	2.741	2.416	2.301	2.073	1.891	1.736	1.632	1.825	2.577	3.327	2.241	1.179	0.876	0.784	0.682	0.687	0.632	0.711	0.622	0.479	0.358	0.450	0.763	2.606	6.868	19.26	103.0	142.9	19.53	0.333	0.152	0.094	0.115	0.096	0.088	0.080
565.0	10.35	10.16	12.94	12.37	12.83	16.84	23.78	43.10	26.51	20.01	22.97	102.4	329.3	97.44	9.463	9.122	7.266	6.832	6.439	6.941	6.187	5.971	5.850	5.777	6.018	5.960	5.851	5.658	5.727	5.794	5.420	5.426	4.961	4.427	4.355	3.931	3.498	2.995	2.967	2.984	2.530	2.366	2.075	1.812	1.825	1.621	1.554	1.446	1.353	1.762	2.615	2.612	1.496	0.835	0.701	0.649	0.547	0.505	0.583	0.640	0.529	0.298	0.347	0.423	0.778	1.776	4.536	28.32	116.1	111.2	12.04	0.171	0.111	0.103	0.104	0.068	0.076
570.0	9.308	9.607	11.55	11.54	10.39	12.03	14.90	31.92	33.13	17.66	17.09	37.03	183.7	235.7	30.28	6.959	5.787	5.588	5.300	5.082	4.599	4.749	4.637	4.647	4.711	4.486	4.637	4.461	4.454	4.588	4.289	4.356	3.911	3.616	3.237	3.059	2.790	2.441	2.280	2.231	1.973	1.773	1.694	1.575	1.431	1.357	1.254	1.149	1.059	1.167	1.585	2.075	1.821	1.052	0.601	0.520	0.483	0.438	0.442	0.492	0.514	0.395	0.305	0.264	0.364	0.596	1.226	6.561	31.46	82.53	87.02	15.41	0.855	0.119	0.071	0.052	0.061
575.0	7.971	8.702	8.840	8.633	8.667	9.845	10.35	20.14	32.91	21.53	13.99	17.52	59.47	215.3	111.4	5.842	4.627	4.283	4.024	3.649	3.549	3.601	3.446	3.579	3.594	3.198	3.551	3.292	3.618	3.342	3.195	3.145	3.037	2.729	2.602	2.465	2.314	1.913	1.818	1.780	1.534	1.489	1.249	1.239	1.183	0.962	0.936	0.867	0.814	0.784	0.875	1.142	1.700	1.318	0.755	0.453	0.384	0.427	0.373	0.326	0.351	0.379	0.342	0.228	0.268	0.294	0.440	1.590	7.142	19.05	46.75	88.71	20.66	0.558	0.086	0.037	0.048
580.0	9.691	7.694	7.188	7.431	7.030	9.297	8.755	13.03	27.78	28.50	12.64	12.69	21.00	124.8	227.3	19.35	3.740	3.582	3.265	3.093	3.424	2.832	2.881	2.991	2.887	2.581	2.703	2.715	3.012	2.730	2.684	2.599	2.325	2.413	2.006	2.012	1.881	1.629	1.576	1.493	1.213	1.149	1.139	0.973	0.899	0.860	0.749	0.727	0.644	0.687	0.610	0.721	1.212	1.377	0.948	0.407	0.381	0.310	0.276	0.277	0.266	0.339	0.376	0.236	0.232	0.215	0.213	0.510	1.722	4.346	11.93	55.88	75.60	13.37	0.204	0.062	0.069
585.0	7.313	7.388	8.243	6.071	7.444	6.781	7.404	10.36	19.84	30.25	13.66	11.28	12.03	53.93	224.1	78.59	3.279	3.102	2.645	2.601	2.565	2.382	2.388	2.439	2.444	2.172	2.117	2.244	2.389	2.513	2.159	2.155	2.013	1.883	1.550	1.622	1.530	1.301	1.253	1.395	1.039	0.892	0.875	0.857	0.697	0.756	0.626	0.617	0.577	0.510	0.454	0.451	0.699	1.146	1.049	0.548	0.324	0.219	0.244	0.211	0.216	0.253	0.351	0.298	0.204	0.153	0.153	0.216	0.483	1.076	2.759	15.71	61.20	57.07	6.182	0.107	0.065
590.0	5.806	7.109	6.062	6.242	5.875	6.577	6.103	7.439	12.16	27.41	21.49	10.78	8.874	18.44	113.1	183.1	23.97	2.628	2.209	1.964	1.981	1.858	2.073	1.866	1.960	1.882	1.845	1.788	1.992	1.901	1.883	1.691	1.562	1.442	1.364	1.216	1.216	1.057	0.943	1.040	0.881	0.767	0.710	0.735	0.578	0.610	0.554	0.502	0.445	0.459	0.430	0.356	0.423	0.672	0.994	0.766	0.444	0.216	0.205	0.191	0.204	0.215	0.228	0.274	0.293	0.159	0.129	0.139	0.189	0.312	0.677	3.599	16.84	42.88	40.23	12.51	0.436
595.0	3.755	6.631	4.670	5.565	6.338	5.497	5.515	6.388	7.619	18.72	27.86	12.59	8.396	8.656	33.44	149.1	118.5	2.678	1.684	1.546	1.425	1.736	1.543	1.603	1.508	1.514	1.314	1.310	1.479	1.495	1.451	1.315	1.222	1.016	1.003	0.897	0.894	0.770	0.696	0.712	0.644	0.612	0.535	0.564	0.516	0.513	0.459	0.390	0.370	0.371	0.306	0.276	0.357	0.311	0.681	0.808	0.629	0.334	0.203	0.181	0.139	0.160	0.153	0.208	0.212	0.278	0.133	0.139	0.145	0.130	0.217	0.894	3.831	9.912	23.81	48.84	15.52
600.0	3.105	5.667	3.516	5.382	4.911	5.118	5.586	6.022	6.245	11.97	28.01	17.31	7.867	6.361	10.96	78.78	184.5	15.59	1.210	1.308	1.383	1.449	1.353	1.195	1.276	1.357	1.066	1.208	1.069	1.332	1.165	1.106	1.099	0.917	0.908	0.885	0.729	0.708	0.618	0.644	0.529	0.509	0.402	0.432	0.438	0.423	0.356	0.339	0.367	0.298	0.260	0.238	0.222	0.221	0.360	0.590	0.728	0.398	0.186	0.184	0.091	0.122	0.140	0.148	0.181	0.283	0.156	0.130	0.090	0.095	0.102	0.264	0.925	2.265	6.141	29.69	43.50
605.0	5.502	4.273	4.520	5.054	4.601	4.767	4.696	5.808	6.397	9.455	21.23	23.22	8.365	6.015	5.492	30.75	165.8	63.70	1.424	1.220	1.255	1.202	1.179	1.046	0.985	1.078	1.129	0.990	0.970	1.094	0.982	0.945	0.886	0.754	0.745	0.746	0.603	0.678	0.549	0.512	0.520	0.486	0.330	0.409	0.423	0.343	0.276	0.304	0.293	0.294	0.259	0.171	0.185	0.207	0.218	0.428	0.652	0.519	0.254	0.134	0.135	0.091	0.119	0.116	0.146	0.232	0.229	0.134	0.110	0.065	0.082	0.160	0.268	0.579	1.435	8.502	34.78
610.0	4.220	4.759	3.875	4.313	3.954	4.130	4.186	5.084	6.551	8.176	14.36	23.14	11.04	5.549	4.604	9.797	76.43	143.3	20.96	1.032	1.086	0.959	0.906	0.875	0.864	0.851	0.805	0.752	0.861	0.879	0.761	0.727	0.720	0.604	0.578	0.599	0.514	0.509	0.516	0.393	0.408	0.350	0.314	0.357	0.287	0.287	0.234	0.261	0.244	0.232	0.205	0.192	0.159	0.148	0.157	0.224	0.434	0.496	0.331	0.212	0.131	0.104	0.099	0.129	0.108	0.124	0.182	0.212	0.120	0.084	0.053	0.084	0.124	0.168	0.364	1.949	9.544
615.0	3.696	4.585	4.126	2.912	3.149	3.139	3.404	4.219	4.611	6.865	9.860	18.42	16.47	5.618	4.074	4.422	21.53	107.4	101.8	1.786	0.882	0.785	0.803	0.670	0.665	0.742	0.726	0.561	0.659	0.722	0.586	0.519	0.549	0.485	0.458	0.493	0.382	0.365	0.430	0.284	0.274	0.293	0.206	0.272	0.236	0.223	0.250	0.217	0.214	0.181	0.163	0.169	0.115	0.139	0.122	0.165	0.200	0.349	0.363	0.288	0.122	0.087	0.077	0.095	0.085	0.090	0.113	0.133	0.210	0.098	0.086	0.070	0.068	0.070	0.096	0.463	2.160
620.0	5.045	3.961	4.222	3.514	3.438	4.170	3.792	4.409	4.584	6.532	8.254	13.28	18.48	6.660	4.149	2.846	6.820	51.85	146.0	15.49	0.720	0.591	0.682	0.596	0.616	0.639	0.550	0.494	0.549	0.597	0.521	0.449	0.416	0.444	0.430	0.420	0.361	0.366	0.334	0.283	0.268	0.242	0.228	0.211	0.201	0.193	0.189	0.154	0.171	0.132	0.168	0.134	0.094	0.121	0.112	0.108	0.119	0.253	0.293	0.346	0.182	0.083	0.077	0.082	0.085	0.062	0.071	0.112	0.194	0.155	0.115	0.048	0.017	0.060	0.034	0.141	0.518
625.0	3.539	4.000	3.797	2.911	3.226	3.682	3.910	3.796	4.708	6.482	7.253	9.798	17.19	9.685	3.857	2.906	3.288	18.61	121.2	59.15	0.797	0.538	0.599	0.463	0.494	0.572	0.563	0.483	0.551	0.428	0.447	0.560	0.417	0.411	0.389	0.304	0.279	0.257	0.256	0.238	0.237	0.254	0.221	0.168	0.215	0.169	0.215	0.134	0.142	0.144	0.161	0.105	0.096	0.096	0.116	0.074	0.108	0.164	0.202	0.317	0.222	0.080	0.081	0.080	0.068	0.061	0.044	0.085	0.124	0.130	0.083	0.058	0.043	0.047	0.035	0.071	0.131
630.0	2.994	3.750	3.428	3.079	2.880	2.750	3.743	3.647	5.042	5.592	7.226	7.751	12.67	14.08	4.963	3.020	2.409	5.870	51.78	116.3	18.67	0.631	0.469	0.442	0.441	0.433	0.423	0.460	0.462	0.356	0.386	0.393	0.324	0.287	0.269	0.288	0.265	0.255	0.211	0.179	0.183	0.229	0.151	0.130	0.188	0.135	0.146	0.110	0.108	0.133	0.132	0.094	0.090	0.091	0.070	0.061	0.081	0.105	0.112	0.249	0.217	0.163	0.113	0.073	0.061	0.054	0.064	0.079	0.079	0.110	0.129	0.069	0.038	0.055	0.036	0.037	0.057
635.0	2.766	4.416	3.210	1.712	3.139	2.939	4.265	3.490	4.384	4.969	6.136	6.951	8.756	14.31	9.076	2.825	2.386	2.832	13.75	78.02	84.08	1.278	0.442	0.470	0.345	0.319	0.366	0.378	0.350	0.300	0.295	0.343	0.271	0.279	0.194	0.257	0.234	0.213	0.219	0.167	0.167	0.148	0.130	0.113	0.125	0.100	0.116	0.086	0.095	0.082	0.116	0.090	0.062	0.077	0.056	0.039	0.052	0.079	0.072	0.112	0.161	0.161	0.086	0.061	0.039	0.037	0.053	0.065	0.069	0.092	0.087	0.136	0.041	0.033	0.022	0.026	0.036
640.0	2.892	6.494	4.738	3.026	3.005	3.165	4.049	3.361	4.001	5.243	6.312	6.426	7.378	11.37	12.29	3.555	2.557	2.244	4.359	34.60	118.5	13.04	0.511	0.398	0.373	0.332	0.306	0.321	0.266	0.241	0.267	0.235	0.246	0.253	0.173	0.266	0.221	0.126	0.167	0.158	0.190	0.148	0.166	0.092	0.116	0.107	0.079	0.077	0.086	0.095	0.073	0.070	0.085	0.059	0.055	0.045	0.047	0.061	0.057	0.052	0.125	0.157	0.105	0.099	0.040	0.048	0.050	0.089	0.073	0.054	0.059	0.092	0.081	0.040	0.017	0.013	0.034
645.0	3.607	6.229	4.307	3.523	3.028	2.920	4.545	4.192	4.255	5.442	6.414	6.703	6.436	8.883	12.40	4.998	2.420	2.152	1.934	11.37	94.34	51.06	0.608	0.361	0.468	0.275	0.261	0.244	0.214	0.277	0.225	0.232	0.181	0.167	0.178	0.219	0.178	0.141	0.143	0.127	0.145	0.147	0.129	0.101	0.101	0.106	0.047	0.079	0.058	0.083	0.075	0.065	0.060	0.049	0.055	0.047	0.057	0.052	0.053	0.048	0.093	0.123	0.145	0.115	0.067	0.049	0.074	0.076	0.034	0.051	0.052	0.074	0.086	0.100	0.009	0.006	0.011
650.0	3.702	7.356	5.663	3.959	3.555	2.391	3.060	3.899	4.045	6.230	5.938	6.907	6.695	6.918	11.32	6.754	2.698	2.186	1.754	3.589	47.28	97.27	4.683	0.280	0.311	0.249	0.200	0.217	0.169	0.243	0.237	0.221	0.221	0.150	0.126	0.152	0.188	0.136	0.150	0.095	0.134	0.133	0.119	0.096	0.108	0.105	0.079	0.104	0.090	0.084	0.053	0.055	0.034	0.041	0.054	0.048	0.044	0.052	0.041	0.051	0.088	0.087	0.092	0.116	0.038	0.040	0.044	0.042	0.043	0.044	0.060	0.061	0.071	0.103	0.028	0.030	0.032
