Sample:	'1
File name:	G2025070117∫Í §”ÍÀÆ≥ÿ.FD3
Run date:	'16:38:02, 07/03/2025
Operator:	Administrator
Comment:	'

Instrument
Model:	F-2700 FL Spectrophotometer
Serial number:	23B8-004
ROM Version:	4J14000 07

Instrument parameters
Measurement type:	3-D scan
Data mode:	Fluorescence
EX  Start WL:	220.0 nm
EX  End WL:	600.0 nm
EX Sampling interval:	5.0 nm
EM  Start WL:	230.0 nm
EM  End WL:	650.0 nm
EM Sampling interval:	5.0 nm
Scan speed:	12000 nm/min
EX Slit:	5.0 nm
EM Slit:	5.0 nm
PMT Voltage:	700 V
Response:	Auto 
Corrected spectra:	Off
Contour interval:	50.000

Peak integration
Integration method:	Rectangular
Sensitivity:	1
Threshold:	1.000

Peaks
No.	ApexEX/EM(nm)	Height(Data)
1	230.0/345.0	4608
2	235.0/260.0	301.7
3	240.0/265.0	392.1
4	240.0/385.0	3050
5	245.0/270.0	441.5
6	250.0/275.0	551.3
7	255.0/285.0	598.9
8	260.0/290.0	544.7
9	265.0/295.0	693.9
10	265.0/585.0	155.9
11	270.0/300.0	905.5
12	270.0/600.0	119.3
13	275.0/305.0	899.4
14	275.0/415.0	4734
15	275.0/610.0	91.52
16	280.0/315.0	834.9
17	280.0/625.0	71.15
18	285.0/640.0	52.21
19	335.0/415.0	1944
20	335.0/435.0	1930
21	460.0/345.0	13.47
22	485.0/265.0	2.144
23	495.0/270.0	2.477
24	505.0/275.0	3.543
25	510.0/280.0	3.946
26	515.0/285.0	3.855
27	530.0/290.0	3.644
28	535.0/295.0	4.513
29	540.0/415.0	19.32
30	545.0/300.0	5.418
31	550.0/305.0	5.489
32	560.0/310.0	4.904

Data points
	220.0	225.0	230.0	235.0	240.0	245.0	250.0	255.0	260.0	265.0	270.0	275.0	280.0	285.0	290.0	295.0	300.0	305.0	310.0	315.0	320.0	325.0	330.0	335.0	340.0	345.0	350.0	355.0	360.0	365.0	370.0	375.0	380.0	385.0	390.0	395.0	400.0	405.0	410.0	415.0	420.0	425.0	430.0	435.0	440.0	445.0	450.0	455.0	460.0	465.0	470.0	475.0	480.0	485.0	490.0	495.0	500.0	505.0	510.0	515.0	520.0	525.0	530.0	535.0	540.0	545.0	550.0	555.0	560.0	565.0	570.0	575.0	580.0	585.0	590.0	595.0	600.0
230.0	76.22	1029	2093	548.7	25.17	8.039	5.594	5.275	5.133	4.381	4.374	3.835	3.496	3.003	2.521	2.135	1.705	1.614	1.553	1.524	1.308	1.341	1.266	1.248	1.137	1.059	0.931	1.044	0.882	0.920	0.837	0.821	0.658	0.641	0.609	0.577	0.516	0.498	0.433	0.412	0.518	0.791	0.712	0.517	0.367	0.389	1.450	5.678	8.327	5.614	2.066	0.501	0.301	0.324	0.291	0.264	0.332	0.294	0.295	0.294	0.305	0.302	0.306	0.311	0.266	0.295	0.296	0.303	0.294	0.298	0.294	0.311	0.316	0.314	0.346	0.317	0.331
235.0	153.3	305.1	1415	1961	459.2	31.76	6.363	5.853	4.969	4.329	4.434	3.471	3.418	3.113	2.534	2.178	2.029	1.726	1.608	1.369	1.138	1.305	1.182	1.191	1.183	1.055	1.047	0.903	0.856	1.077	0.985	0.843	0.786	0.590	0.574	0.508	0.479	0.522	0.492	0.404	0.458	0.542	0.678	0.861	0.646	0.414	0.649	1.713	3.350	5.662	7.776	7.723	3.378	0.777	0.315	0.356	0.296	0.322	0.296	0.323	0.306	0.258	0.251	0.307	0.297	0.346	0.353	0.357	0.280	0.318	0.282	0.295	0.270	0.340	0.313	0.360	0.287
240.0	230.9	176.4	458.9	1840	2039	336.8	15.02	6.863	5.769	5.982	4.695	4.305	3.393	3.158	2.639	2.412	2.044	1.906	1.576	1.287	1.306	1.251	1.201	1.214	1.187	1.128	0.974	0.956	0.821	0.922	0.825	0.810	0.725	0.615	0.657	0.560	0.548	0.503	0.498	0.452	0.479	0.390	0.497	0.780	0.849	0.691	0.674	0.654	1.036	1.885	4.537	10.15	11.61	7.720	2.585	0.565	0.266	0.326	0.307	0.344	0.314	0.287	0.279	0.283	0.322	0.308	0.289	0.336	0.312	0.306	0.293	0.345	0.298	0.323	0.280	0.361	0.280
245.0	165.0	247.0	167.6	689.9	2453	1947	229.6	7.935	6.573	5.672	4.726	4.268	4.088	3.098	2.745	2.345	1.825	1.835	1.520	1.406	1.407	1.366	1.363	1.159	1.103	1.150	0.995	1.049	0.902	0.968	0.830	0.847	0.646	0.631	0.639	0.593	0.506	0.459	0.436	0.443	0.397	0.404	0.400	0.532	0.524	0.824	1.014	0.834	0.610	0.710	1.298	3.787	8.890	14.86	13.20	6.441	1.589	0.363	0.309	0.349	0.368	0.338	0.257	0.285	0.331	0.337	0.369	0.340	0.313	0.341	0.286	0.304	0.376	0.303	0.337	0.403	0.345
250.0	70.21	188.0	244.8	234.8	860.3	2294	2380	739.6	34.89	6.928	5.671	5.005	4.074	3.629	2.993	2.353	2.093	1.881	1.653	1.410	1.591	1.381	1.369	1.304	1.151	1.088	1.007	1.149	0.997	0.981	0.858	0.800	0.716	0.645	0.612	0.587	0.546	0.464	0.479	0.461	0.420	0.473	0.447	0.429	0.421	0.561	0.699	0.981	1.062	0.849	0.733	1.171	2.426	5.197	8.876	12.66	15.76	13.21	6.552	1.786	0.422	0.323	0.314	0.319	0.343	0.383	0.354	0.304	0.315	0.326	0.364	0.297	0.316	0.357	0.306	0.350	0.306
255.0	39.33	68.70	212.8	300.7	270.8	642.0	2420	3839	273.5	29.37	7.657	5.810	4.704	4.049	3.668	2.744	2.399	1.882	1.674	1.692	1.401	1.210	1.250	1.168	1.280	1.137	1.170	1.376	1.130	1.043	1.007	0.757	0.695	0.622	0.563	0.588	0.610	0.522	0.542	0.427	0.549	0.460	0.440	0.385	0.388	0.482	0.431	0.513	0.682	0.994	1.307	1.484	1.177	1.487	2.321	3.383	6.805	15.37	24.56	22.27	9.348	1.839	0.386	0.358	0.365	0.382	0.320	0.264	0.332	0.345	0.324	0.285	0.307	0.353	0.310	0.331	0.305
260.0	39.39	40.07	94.15	301.7	278.7	207.4	827.7	3766	3759	219.4	15.82	6.744	5.597	5.052	3.759	3.003	2.132	2.201	1.825	1.714	1.478	1.492	1.252	1.241	1.215	1.443	1.228	1.085	0.975	1.006	0.866	0.779	0.710	0.623	0.625	0.610	0.552	0.459	0.474	0.527	0.520	0.438	0.430	0.412	0.371	0.402	0.427	0.424	0.485	0.591	1.058	1.993	1.772	1.118	0.943	1.140	1.982	4.728	12.13	23.93	29.76	20.17	6.476	0.904	0.408	0.330	0.348	0.313	0.368	0.335	0.366	0.351	0.400	0.340	0.323	0.345	0.286
265.0	36.24	24.32	41.51	172.6	392.1	233.0	250.5	1440	4908	1898	160.8	9.735	6.900	5.359	3.798	3.605	2.440	2.078	1.841	1.910	1.599	1.407	1.479	1.386	1.239	1.373	1.131	0.981	0.982	1.001	0.888	0.849	0.826	0.680	0.668	0.632	0.601	0.518	0.462	0.431	0.440	0.460	0.450	0.388	0.431	0.406	0.432	0.358	0.356	0.333	0.500	1.207	2.136	2.144	1.554	0.902	0.982	1.494	3.300	7.738	18.20	31.99	30.03	16.87	3.580	0.508	0.405	0.316	0.363	0.388	0.321	0.318	0.403	0.325	0.354	0.301	0.362
270.0	74.68	63.53	53.00	84.12	254.7	441.5	280.7	399.5	1722	4084	3991	666.4	28.50	7.348	5.254	3.908	2.957	2.593	2.100	1.851	1.737	1.688	1.441	1.421	1.388	1.353	1.086	1.124	1.054	1.037	0.872	0.978	0.836	0.802	0.752	0.680	0.663	0.598	0.541	0.516	0.472	0.497	0.484	0.531	0.484	0.477	0.451	0.494	0.444	0.346	0.411	0.642	0.997	1.543	2.170	2.477	2.050	1.350	1.310	2.291	4.701	9.921	17.55	26.86	29.55	26.32	12.27	3.363	0.549	0.463	0.399	0.370	0.391	0.325	0.373	0.397	0.331
275.0	190.7	192.3	133.0	86.97	143.8	312.5	551.3	312.9	448.1	1107	4024	6865	853.9	21.50	6.494	4.992	3.757	2.974	2.704	1.959	1.765	1.723	1.675	1.461	1.428	1.419	1.250	1.232	1.048	1.114	1.122	1.079	0.900	1.070	0.936	0.923	0.822	0.809	0.676	0.713	0.614	0.662	0.695	0.633	0.724	0.687	0.748	0.605	0.605	0.504	0.403	0.592	0.739	0.938	1.253	1.736	3.187	3.543	2.077	1.358	1.577	2.743	4.334	6.621	10.08	22.89	42.23	31.78	18.02	3.245	0.614	0.428	0.365	0.442	0.408	0.412	0.362
280.0	324.3	317.0	209.6	110.7	117.3	205.5	458.8	559.5	236.1	322.9	1269	6365	5968	135.5	11.68	6.090	4.238	3.278	3.059	2.263	1.907	1.911	1.723	1.531	1.539	1.470	1.557	1.264	1.169	1.182	1.047	0.981	1.117	1.225	1.450	1.157	1.137	0.948	1.034	0.800	0.748	0.857	0.840	0.746	0.988	0.986	1.063	0.968	0.867	0.604	0.569	0.627	0.693	0.832	0.918	1.113	1.905	2.910	3.946	2.990	1.630	1.271	1.568	2.017	2.899	6.236	16.16	33.42	48.71	29.32	12.42	1.333	0.559	0.517	0.358	0.370	0.384
285.0	481.6	438.3	290.0	144.2	119.8	170.4	268.8	598.9	318.0	191.4	394.1	2173	7426	4493	94.35	8.108	5.018	3.776	3.468	2.542	2.207	2.026	1.715	1.780	1.540	1.539	1.432	1.252	1.315	1.182	1.014	0.995	1.210	1.431	1.534	1.557	1.440	1.032	1.104	0.946	0.876	0.994	0.916	1.242	1.264	1.339	1.259	1.411	1.132	0.799	0.610	0.718	0.753	0.769	0.859	0.936	1.317	1.492	2.572	3.855	3.772	2.138	1.216	1.075	1.367	2.199	4.319	9.559	23.50	43.54	50.74	24.34	6.563	0.775	0.475	0.475	0.427
290.0	578.5	563.9	361.5	183.4	136.2	158.7	185.4	309.6	544.7	454.4	260.4	641.0	2400	5542	3954	399.9	18.31	5.410	3.864	3.062	2.553	2.223	1.852	1.893	1.668	1.620	1.427	1.441	1.350	1.214	1.024	1.154	1.257	1.745	1.971	1.797	1.683	1.371	1.241	1.043	1.083	1.204	1.176	1.340	1.604	1.574	1.565	1.645	1.410	1.043	0.806	0.831	0.786	0.856	0.890	0.960	1.080	1.131	1.469	1.923	2.860	3.611	3.644	2.593	1.576	1.491	1.924	3.028	6.233	12.26	22.23	31.90	33.44	34.84	16.62	5.904	0.852
295.0	654.8	629.0	432.7	221.4	158.7	166.8	169.3	205.7	314.2	693.9	595.6	367.2	696.6	1442	4025	6069	534.9	13.95	5.757	4.126	3.014	2.642	1.987	2.152	1.949	1.829	1.651	1.479	1.348	1.245	1.246	1.151	1.411	1.689	1.864	1.989	1.774	1.595	1.449	1.129	1.163	1.255	1.285	1.420	1.686	1.789	1.715	1.658	1.644	1.170	0.926	0.933	0.829	0.891	0.885	0.916	1.017	0.995	1.002	1.266	1.535	1.844	2.625	4.513	4.444	2.964	1.939	1.932	2.664	3.950	5.742	8.017	9.924	21.32	43.80	52.12	25.87
300.0	671.1	632.9	473.3	259.9	181.7	185.5	185.4	207.0	261.2	499.5	905.5	515.7	375.0	451.3	1212	5682	4929	81.78	8.813	5.338	3.472	2.831	2.206	2.368	2.006	1.991	1.655	1.443	1.266	1.318	1.176	1.178	1.432	1.721	1.945	2.050	1.828	1.848	1.542	1.231	1.306	1.443	1.439	1.466	1.645	1.611	1.734	1.882	1.630	1.370	0.957	1.076	0.969	0.938	0.891	1.097	1.097	1.181	1.249	1.327	1.536	1.491	1.788	2.893	4.454	5.418	4.100	2.312	2.119	2.277	2.411	2.851	3.062	5.720	14.32	33.81	54.28
305.0	678.1	657.4	501.3	294.6	210.8	220.5	224.8	252.6	300.1	414.4	787.3	899.4	416.3	284.2	380.6	1870	6374	3696	60.71	6.757	4.470	3.472	2.608	2.464	2.326	2.002	1.685	1.462	1.470	1.443	1.311	1.237	1.329	1.825	2.207	2.156	1.950	1.908	1.593	1.552	1.444	1.386	1.415	1.689	1.769	1.850	1.821	1.913	1.713	1.436	1.168	1.182	0.962	1.132	1.127	1.202	1.318	1.350	1.424	1.612	1.844	1.750	2.010	2.217	2.996	4.234	5.489	4.923	3.011	2.133	2.077	1.874	1.770	2.243	4.033	9.054	21.44
310.0	656.5	669.1	539.2	344.6	259.2	256.4	272.5	304.1	356.6	434.2	588.3	861.3	792.4	381.0	246.5	518.9	2016	4550	4071	284.0	14.21	4.735	3.454	2.835	2.396	2.202	1.991	1.458	1.500	1.394	1.403	1.289	1.335	1.709	1.929	1.951	1.925	1.912	1.588	1.629	1.472	1.529	1.466	1.618	1.686	1.774	1.903	1.961	1.794	1.463	1.290	1.438	1.174	1.198	1.291	1.335	1.482	1.496	1.640	1.781	2.062	2.147	2.147	2.390	2.661	3.249	3.781	4.868	4.904	4.249	3.280	2.291	1.794	1.729	1.885	2.855	5.696
315.0	744.3	778.4	635.0	399.2	299.9	296.8	330.4	364.9	421.5	498.0	588.3	682.5	834.9	760.3	328.8	261.4	538.3	1141	3438	4388	407.0	12.18	4.741	3.613	2.941	2.750	2.073	1.997	1.658	1.343	1.460	1.271	1.410	1.585	1.713	1.792	1.956	1.913	1.614	1.726	1.664	1.537	1.713	1.691	1.865	2.133	2.277	2.354	2.232	1.755	1.540	1.503	1.509	1.458	1.478	1.511	1.658	1.869	2.051	2.091	2.119	2.436	2.697	2.499	2.901	3.202	3.274	3.442	3.624	4.277	5.268	4.827	3.120	2.121	1.866	1.762	2.276
320.0	1069	1301	1009	568.9	373.8	361.8	394.5	445.8	498.5	597.6	698.7	751.4	776.1	926.5	607.2	279.2	260.0	334.7	988.8	4258	3800	62.79	8.069	4.321	3.318	2.746	2.362	2.096	2.000	1.649	1.576	1.421	1.340	1.701	1.618	1.908	1.937	1.986	1.697	1.673	1.790	1.843	1.918	2.282	2.544	3.050	3.269	3.635	3.506	2.579	2.000	1.995	1.741	1.819	1.676	1.857	2.048	2.041	2.254	2.429	2.441	2.879	2.906	2.901	3.509	3.416	3.886	3.765	3.849	3.927	4.770	5.363	5.473	4.141	2.699	2.027	1.978
325.0	1666	2204	2001	839.7	561.8	449.5	460.9	546.3	630.6	760.7	874.9	936.0	922.7	919.7	905.9	471.4	268.1	207.5	309.7	1380	4804	3008	50.77	6.476	4.369	2.996	2.646	2.169	2.192	1.681	1.946	1.494	1.321	1.741	1.782	1.886	2.129	2.215	1.783	1.924	2.009	2.187	2.513	2.999	3.740	4.576	5.215	6.191	5.998	4.855	3.434	2.977	2.370	2.256	2.017	2.181	2.308	2.432	2.873	2.815	3.151	3.294	3.631	3.673	4.189	4.451	4.423	4.535	4.793	4.706	4.663	5.122	5.600	5.906	4.907	3.163	2.440
330.0	2316	3197	3112	1861	1070	690.3	646.0	697.3	795.1	929.1	1075	1157	1140	1044	967.0	818.7	488.6	285.4	233.0	427.5	1533	3515	3412	238.2	14.84	4.451	3.129	2.566	2.228	1.781	1.956	1.526	1.564	1.747	1.976	1.940	2.161	2.134	2.039	2.324	2.422	2.681	3.223	3.941	5.027	6.324	7.243	8.981	9.433	7.573	5.799	5.796	4.413	3.644	3.161	3.025	3.038	3.166	3.364	3.357	3.866	4.149	4.367	4.658	5.116	5.313	5.559	5.630	5.835	6.054	5.929	5.839	5.643	6.057	5.911	5.774	5.068
335.0	2938	4029	3987	2688	1637	1044	836.5	856.4	953.6	1104	1274	1365	1367	1239	1056	907.6	806.8	470.4	304.5	277.5	477.8	932.5	2766	3595	371.4	13.33	4.345	3.337	2.628	2.231	2.095	1.828	1.821	1.909	2.096	1.947	2.282	2.222	2.393	2.600	2.779	3.377	3.504	4.810	6.167	7.886	9.319	11.48	11.67	10.46	8.242	7.936	6.679	5.564	4.644	4.034	4.115	3.787	4.137	4.058	4.382	4.844	5.350	5.999	5.776	6.404	6.555	6.568	6.987	7.215	7.202	7.190	6.577	6.375	5.724	5.802	5.993
340.0	3240	4396	4514	3106	1956	1266	981.9	970.3	1072	1207	1376	1484	1473	1358	1148	927.9	841.5	676.9	382.1	280.0	272.7	334.2	818.8	3452	3296	55.52	7.999	4.137	2.872	2.453	2.338	1.915	1.881	1.913	1.996	1.951	2.332	2.371	2.468	2.684	3.105	3.442	4.001	5.105	6.475	8.401	10.42	12.37	13.14	11.33	9.619	9.539	8.094	6.699	5.454	5.046	4.619	4.538	4.613	4.610	5.150	5.054	5.792	6.275	6.502	6.740	7.118	7.339	7.686	7.687	7.376	7.676	7.099	6.510	6.468	6.297	5.893
345.0	3183	4357	4608	3345	2182	1437	1122	1074	1145	1277	1427	1531	1516	1400	1199	965.6	795.0	762.9	521.2	321.3	256.2	228.5	283.2	1096	3946	2764	47.51	6.203	3.958	2.918	2.485	2.032	1.955	1.943	2.060	2.111	2.282	2.462	2.287	2.754	3.051	3.445	4.072	5.031	6.608	8.315	10.30	12.45	13.47	11.83	10.05	10.71	8.800	7.629	6.334	5.324	5.017	5.217	5.040	5.054	5.228	5.155	6.015	6.098	6.990	6.948	7.254	7.304	7.966	8.010	7.746	7.368	7.363	7.539	6.750	6.195	6.022
350.0	2969	4119	4468	3439	2424	1687	1364	1292	1329	1426	1507	1574	1555	1449	1265	1037	825.9	715.0	653.6	474.4	314.8	257.0	209.0	339.6	1210	2857	2922	220.0	16.42	4.119	2.941	2.372	2.108	2.078	2.034	2.255	2.196	2.385	2.410	2.796	3.126	3.535	4.139	4.778	6.231	8.196	9.534	11.99	12.73	11.33	10.38	11.41	9.585	8.514	7.092	6.417	6.411	6.226	5.893	6.156	6.240	6.046	6.693	6.996	7.255	7.256	7.391	7.437	7.473	8.079	7.846	7.948	7.764	7.868	7.179	6.479	6.466
355.0	2890	3847	4124	3375	2626	2002	1728	1653	1671	1679	1698	1678	1631	1517	1333	1130	915.6	752.8	647.5	633.9	467.6	327.4	252.6	225.4	374.7	733.6	2016	3235	369.9	17.05	4.081	2.759	2.256	2.287	2.241	2.335	2.260	2.466	2.524	2.862	3.028	3.530	4.013	4.755	6.164	7.664	9.196	11.11	11.99	10.54	10.20	11.44	10.25	9.244	8.326	7.945	7.594	7.877	7.589	7.871	7.750	7.894	7.968	7.852	7.856	7.993	8.284	8.346	8.199	8.559	8.594	8.222	8.040	8.191	8.043	7.259	7.148
360.0	2704	3556	3840	3361	2719	2240	1993	1943	1972	1932	1865	1788	1700	1575	1403	1193	992.0	809.4	677.0	643.5	605.5	421.2	309.3	243.9	228.3	266.9	583.1	2617	3114	309.2	9.445	3.613	2.553	2.461	2.416	2.278	2.399	2.465	2.520	2.705	3.121	3.329	4.165	4.923	5.948	6.959	7.938	10.46	10.88	10.08	9.836	11.53	10.77	9.918	9.047	8.589	8.528	8.560	8.634	9.154	8.879	9.517	9.624	9.306	8.986	9.191	8.967	8.783	8.358	8.732	8.598	8.550	8.617	8.380	8.276	7.674	7.450
365.0	2583	3351	3633	3254	2805	2371	2189	2154	2214	2172	2069	1905	1774	1631	1457	1244	1049	875.2	734.1	651.5	645.6	556.5	378.5	288.3	231.5	192.9	223.7	797.1	3174	2786	48.36	6.036	3.534	2.704	2.492	2.218	2.462	2.468	2.655	2.659	3.139	3.510	4.227	4.976	5.632	6.657	7.680	9.408	10.18	9.823	9.500	11.24	10.82	10.09	9.816	8.944	9.465	9.414	9.999	10.28	10.32	10.48	10.36	10.28	10.11	9.772	9.554	8.841	8.757	9.130	8.862	8.806	8.752	8.606	8.440	8.143	7.427
370.0	2437	3067	3393	3179	2848	2561	2422	2418	2465	2429	2294	2085	1887	1702	1503	1309	1123	953.3	814.7	711.8	651.3	642.1	533.8	378.6	297.0	231.5	184.4	271.2	938.8	2467	2741	775.6	15.96	4.069	3.152	2.604	2.740	2.704	2.702	2.812	3.056	3.406	3.903	4.523	5.342	6.460	7.145	8.825	9.319	9.072	9.354	10.95	10.64	10.26	10.12	9.898	10.45	10.32	10.76	11.11	11.27	11.62	11.64	11.76	11.37	10.66	10.28	9.691	9.614	9.519	9.384	9.339	9.098	8.771	8.453	8.488	7.871
375.0	2354	2912	3237	3094	2957	2742	2604	2651	2684	2665	2510	2293	2027	1777	1575	1378	1205	1044	921.0	813.1	736.0	691.1	668.2	575.8	436.0	341.0	251.8	206.9	306.1	625.1	1672	3336	333.1	17.80	4.416	3.552	3.369	3.162	2.915	2.926	3.138	3.348	3.823	4.519	5.223	6.109	6.742	8.359	8.645	8.674	9.145	10.73	10.66	11.24	10.73	10.65	11.41	11.44	11.22	12.14	12.44	12.54	13.16	12.91	12.03	12.01	11.25	10.52	10.72	10.33	9.908	9.629	9.660	9.198	8.812	8.714	8.417
380.0	2327	2846	3098	3060	3042	2903	2783	2766	2815	2816	2659	2440	2139	1845	1615	1413	1253	1101	987.1	891.5	817.8	769.0	729.6	716.8	586.4	448.7	330.3	242.6	200.2	226.9	473.3	2238	2698	271.4	11.41	5.575	4.252	3.604	3.064	3.088	3.139	3.665	4.001	4.248	5.205	6.047	6.287	7.942	8.508	8.366	8.868	10.78	11.05	11.49	11.21	11.14	12.18	12.39	12.05	12.27	12.64	13.11	13.53	13.85	12.96	12.71	11.90	11.45	11.44	10.51	10.56	9.907	9.528	9.490	9.419	9.466	8.731
385.0	2289	2741	3011	3034	3050	2990	2835	2831	2868	2882	2730	2530	2215	1906	1652	1451	1296	1149	1046	956.8	884.0	832.3	773.5	764.3	714.7	547.4	408.0	302.0	222.7	169.9	186.0	655.7	2440	2327	41.40	10.66	6.548	4.626	3.497	3.157	3.207	3.693	3.843	4.145	4.990	5.804	6.174	7.818	8.235	8.038	8.640	10.72	11.37	11.27	11.54	11.76	12.44	12.54	12.75	12.55	13.02	13.34	13.78	13.82	13.44	12.49	12.20	11.67	11.74	11.07	10.67	9.579	9.844	9.560	9.381	9.372	9.242
390.0	2278	2653	2875	2979	2987	3023	2944	2910	2964	2996	2892	2683	2382	2048	1767	1540	1367	1225	1125	1046	988.9	939.2	878.7	839.9	822.7	723.5	543.2	408.1	318.9	244.9	198.8	262.5	736.0	1860	2041	614.8	22.35	10.29	5.887	3.949	3.802	3.828	4.061	4.519	5.285	5.906	6.372	7.429	7.753	7.826	8.302	10.79	11.17	11.29	11.71	11.99	12.59	12.72	13.20	13.11	13.29	13.73	13.75	14.32	13.60	13.05	12.81	12.62	12.09	11.86	11.17	10.37	10.56	10.30	9.679	9.491	9.538
395.0	2301	2632	2832	2932	3000	3072	3060	3077	3151	3259	3204	3066	2749	2378	2036	1729	1509	1349	1253	1185	1149	1131	1087	1054	1011	949.2	820.4	645.4	529.9	419.1	362.1	312.0	362.0	577.0	1260	2376	283.4	30.83	12.47	6.247	4.499	4.331	4.776	4.932	5.304	5.965	6.728	7.519	7.859	7.886	8.506	10.77	11.00	11.65	11.86	12.44	13.19	13.32	13.42	13.82	13.62	14.32	14.99	14.74	14.32	14.39	13.74	13.62	13.67	12.87	12.26	11.84	11.16	10.99	10.94	10.58	9.910
400.0	2261	2606	2826	2939	3070	3155	3144	3215	3379	3578	3663	3545	3246	2796	2367	1978	1672	1484	1398	1342	1337	1334	1329	1311	1272	1197	1119	954.6	796.1	686.1	590.5	494.1	399.1	396.9	522.9	1668	2145	248.7	26.46	9.266	5.749	4.955	4.929	5.282	5.606	6.614	6.818	7.597	8.176	7.904	8.606	10.99	11.58	12.08	12.25	12.90	13.78	13.81	13.58	14.83	14.99	15.01	15.67	15.98	15.73	16.08	15.34	15.33	14.72	14.06	14.25	13.19	12.67	12.62	11.75	11.47	10.90
405.0	2325	2605	2848	2934	3089	3225	3266	3415	3632	3974	4145	4073	3781	3275	2749	2246	1858	1647	1548	1511	1529	1560	1589	1593	1567	1492	1418	1305	1125	985.9	871.4	739.7	596.4	490.8	419.0	696.0	1886	1774	186.1	14.84	7.284	5.801	5.506	5.657	6.258	7.064	6.986	8.064	8.744	8.260	8.469	11.12	11.77	12.85	13.19	13.52	14.00	14.47	14.81	15.32	15.70	16.49	16.73	17.28	17.52	17.36	17.17	16.83	16.41	16.09	15.53	15.00	13.86	13.55	12.50	12.46	11.88
410.0	2245	2554	2792	2937	3092	3265	3385	3572	3870	4310	4620	4614	4276	3752	3138	2522	2038	1781	1687	1666	1716	1775	1843	1871	1854	1775	1684	1590	1466	1298	1146	985.9	798.6	643.9	532.8	505.6	729.0	1403	1552	455.6	17.15	6.930	6.160	6.162	6.269	7.005	7.169	8.541	9.110	8.764	8.885	11.62	11.82	12.84	13.25	13.77	14.26	14.59	15.45	15.51	16.31	17.14	17.79	18.16	18.65	18.42	18.11	18.30	17.82	17.62	16.78	16.05	15.35	14.66	13.40	13.41	13.05
415.0	2243	2534	2700	2864	3002	3241	3349	3545	3898	4333	4692	4734	4414	3871	3227	2573	2069	1802	1723	1712	1770	1840	1912	1944	1934	1853	1756	1637	1541	1417	1239	1058	868.4	694.9	574.2	469.1	404.5	448.1	884.4	1695	248.4	16.24	6.963	6.428	6.711	7.229	7.228	8.308	8.687	8.477	8.763	10.81	11.31	12.24	12.98	13.16	14.46	14.87	15.85	15.39	16.39	16.84	17.97	18.68	19.32	18.93	18.26	18.99	18.23	17.94	17.00	16.03	15.23	14.73	13.99	13.04	12.70
420.0	2176	2424	2578	2717	2911	3171	3281	3494	3802	4244	4591	4611	4321	3815	3186	2542	2033	1770	1696	1697	1747	1824	1879	1927	1905	1833	1722	1606	1499	1415	1246	1055	854.9	690.9	563.0	446.1	323.4	224.3	273.8	1091	1487	201.0	10.03	6.796	6.799	6.864	7.268	8.200	8.234	7.864	8.832	10.95	10.99	11.96	12.82	12.98	14.05	14.98	14.68	14.86	16.40	16.54	17.67	17.96	17.90	18.03	18.05	17.47	17.79	16.81	16.23	16.01	14.42	14.34	13.70	12.69	12.65
425.0	2133	2362	2516	2640	2870	3068	3213	3418	3735	4188	4489	4526	4241	3744	3137	2502	2005	1746	1671	1682	1729	1799	1862	1912	1885	1810	1716	1598	1487	1393	1276	1070	861.4	696.4	563.8	444.1	310.0	177.2	122.0	318.9	1220	1244	34.50	7.679	6.903	7.193	7.354	8.255	8.166	8.105	8.563	10.66	10.96	12.07	12.52	12.88	13.98	14.31	14.54	15.22	15.62	16.19	17.24	17.41	17.88	17.85	17.47	16.89	17.27	16.90	16.09	15.28	14.41	14.38	13.15	12.62	12.43
430.0	2258	2315	2459	2615	2822	3042	3241	3457	3738	4169	4494	4542	4238	3771	3148	2503	1997	1740	1664	1677	1729	1801	1876	1926	1915	1859	1762	1659	1553	1439	1329	1164	935.1	747.4	610.4	483.5	333.1	187.0	98.41	106.9	346.3	941.2	1083	141.1	14.83	7.635	7.525	8.241	8.204	7.866	8.430	10.52	11.12	11.62	12.27	12.88	14.07	14.43	14.84	15.09	15.61	16.13	16.60	17.37	17.76	17.73	17.56	17.33	16.87	16.90	15.79	15.27	14.59	14.36	13.12	12.45	12.33
435.0	2673	2314	2409	2591	2812	3043	3289	3493	3764	4130	4445	4490	4220	3749	3132	2494	1999	1726	1664	1659	1710	1794	1869	1930	1923	1872	1795	1701	1599	1484	1364	1217	1010	800.1	654.1	521.5	363.9	205.8	104.9	68.03	104.6	234.1	639.7	1319	228.3	15.57	7.831	8.231	8.343	7.701	8.419	10.49	10.99	11.59	12.33	12.62	13.85	14.27	14.66	15.03	16.07	16.33	16.50	17.35	17.57	17.30	17.45	17.10	16.82	16.42	16.14	15.29	14.65	14.39	13.27	12.20	12.52
440.0	3117	2352	2368	2507	2763	3016	3281	3448	3702	4021	4308	4343	4071	3614	3041	2412	1936	1685	1612	1618	1664	1733	1809	1864	1873	1823	1746	1660	1568	1451	1344	1178	1004	809.3	654.9	521.6	367.8	212.2	112.3	63.35	54.49	74.01	178.0	919.8	1250	179.6	10.03	8.783	8.044	7.825	8.431	10.57	11.19	11.35	11.88	12.56	14.17	14.74	14.88	15.11	15.45	15.76	16.21	16.36	17.05	16.72	16.84	16.80	15.82	15.87	15.33	14.91	14.38	13.49	13.20	12.23	12.15
445.0	3151	2662	2293	2423	2692	2958	3216	3384	3574	3830	4080	4089	3830	3418	2875	2299	1841	1621	1551	1545	1581	1637	1706	1755	1757	1709	1640	1559	1474	1375	1269	1105	943.9	781.6	634.0	501.2	355.4	211.7	116.2	67.54	48.31	42.00	59.27	269.1	1095	1072	29.11	9.784	8.142	7.800	8.082	9.644	10.81	11.45	11.88	12.28	13.93	14.09	14.84	15.14	15.33	15.24	15.44	15.58	16.20	15.94	16.00	15.35	14.98	15.25	14.75	14.14	13.28	13.30	12.53	11.69	11.06
450.0	2570	3218	2287	2298	2566	2850	3080	3239	3308	3485	3663	3665	3425	3067	2596	2083	1685	1492	1427	1414	1437	1475	1534	1567	1571	1525	1462	1396	1318	1234	1137	991.8	835.7	704.1	592.0	463.4	330.0	204.0	120.2	75.92	54.35	41.62	37.04	78.95	311.9	846.0	971.4	125.6	13.87	7.680	7.867	9.400	9.835	10.73	11.46	11.85	13.30	13.49	14.11	13.98	14.43	14.26	14.28	14.37	14.72	14.59	14.23	13.93	14.03	13.49	13.24	12.72	12.10	11.95	11.11	10.78	10.22
455.0	1928	3165	2724	2151	2401	2668	2918	3045	3060	3146	3272	3243	3051	2734	2336	1869	1536	1357	1304	1281	1286	1308	1357	1390	1386	1348	1300	1237	1174	1106	1019	894.8	752.1	626.5	536.6	439.8	312.8	198.1	124.7	83.30	61.71	47.50	36.92	40.12	87.95	208.4	544.8	1087	186.8	13.68	7.558	9.166	9.272	9.835	10.67	11.16	12.59	13.14	13.36	12.94	13.24	13.41	12.94	13.19	13.23	13.00	12.84	13.08	12.82	11.96	12.04	11.23	11.37	11.08	10.22	10.57	9.626
460.0	1668	2617	3182	2154	2268	2535	2786	2875	2872	2929	2998	2972	2789	2499	2132	1720	1419	1260	1205	1186	1174	1201	1246	1264	1262	1233	1190	1137	1090	1024	944.1	831.9	701.5	583.8	496.2	420.4	309.2	198.1	127.9	88.31	67.24	53.01	41.24	35.11	40.37	62.94	148.6	718.9	985.4	140.9	10.08	9.082	8.758	9.661	10.27	10.52	11.97	12.43	12.75	12.27	12.69	12.54	12.03	12.52	12.02	12.09	11.94	12.05	11.71	11.31	11.52	10.71	10.15	10.10	9.915	9.377	8.973
465.0	1549	2029	3272	2365	2155	2391	2613	2722	2673	2741	2776	2735	2555	2292	1962	1583	1325	1164	1113	1098	1081	1097	1145	1161	1156	1131	1100	1051	1002	948.7	876.1	774.9	658.3	550.3	462.5	391.7	306.0	200.9	130.9	92.01	72.89	56.95	45.67	37.04	32.09	33.25	48.79	207.6	849.3	808.5	24.51	9.880	8.660	9.271	9.402	9.912	11.67	11.79	11.97	12.28	11.85	11.70	11.77	11.06	11.24	11.13	11.08	10.94	10.47	10.24	10.19	10.06	9.508	9.193	8.770	8.745	8.590
470.0	1410	1604	2516	2937	2076	2175	2371	2468	2417	2428	2462	2422	2254	2019	1730	1414	1178	1043	995.1	971.4	953.4	959.0	993.4	1012	1010	987.7	961.9	923.3	885.4	842.8	781.6	692.1	588.9	496.1	417.2	350.4	279.1	201.8	135.6	97.09	76.62	60.90	50.94	41.70	34.23	29.38	29.12	61.50	241.5	611.8	686.3	118.7	14.19	8.873	9.033	9.321	10.49	10.91	10.90	11.05	11.01	10.72	10.43	10.28	10.18	10.21	9.858	9.598	9.482	9.305	9.350	8.767	8.729	8.380	7.867	8.004	7.641
475.0	1325	1367	1726	2861	2423	1964	2134	2202	2147	2125	2128	2093	1941	1745	1489	1228	1028	916.1	872.6	842.8	823.0	822.8	846.9	856.5	851.7	840.9	813.6	788.4	757.3	720.9	668.7	595.9	509.4	431.9	366.6	309.4	243.8	188.5	141.8	101.8	79.95	65.47	54.43	45.10	37.34	31.96	27.23	31.19	68.43	150.6	347.8	732.9	181.9	15.36	8.501	8.300	9.860	9.988	10.08	10.09	9.745	9.113	9.188	9.100	9.259	9.114	8.404	8.585	8.689	7.966	8.244	7.562	7.856	7.561	6.854	7.024	6.519
480.0	1229	1324	1397	2308	2866	1870	1964	2003	1959	1930	1910	1882	1740	1549	1328	1107	926.3	831.1	782.7	757.4	736.0	733.7	749.6	755.3	751.9	738.8	719.4	697.2	673.1	639.7	596.7	532.4	458.3	388.1	334.5	280.9	222.3	171.0	141.0	108.3	83.68	68.93	56.43	47.97	40.86	33.72	28.58	25.09	31.07	46.28	95.20	432.8	714.5	155.7	10.74	7.950	8.841	9.246	9.185	8.869	9.127	8.395	8.458	8.423	8.106	8.341	7.826	7.707	7.464	7.302	7.228	7.170	7.039	6.672	6.079	6.214	6.328
485.0	1120	1250	1272	1681	2990	2049	1823	1849	1810	1761	1755	1691	1578	1393	1213	1006	846.5	763.6	725.5	692.5	669.0	663.6	668.8	679.8	677.8	662.2	643.0	621.9	604.2	579.1	541.2	482.4	416.3	356.3	305.7	257.6	207.6	159.4	133.1	112.5	88.30	69.85	59.00	49.83	43.56	36.63	31.08	25.64	23.67	23.88	33.30	124.5	559.0	652.4	29.02	8.911	8.551	8.668	8.714	8.688	8.308	8.022	8.132	7.873	7.564	7.528	7.211	6.890	6.760	6.765	6.868	6.513	6.318	5.903	5.845	5.625	5.470
490.0	981.5	1156	1160	1324	2301	2644	1726	1673	1617	1576	1568	1500	1389	1235	1065	889.9	756.1	680.9	647.3	613.6	589.9	586.7	588.2	595.4	590.9	577.7	563.9	550.1	528.7	510.1	476.8	429.0	372.4	320.4	275.5	236.5	191.9	151.2	123.4	108.9	94.58	75.31	61.36	52.65	45.56	38.73	33.19	27.74	23.55	20.29	20.61	39.51	155.0	427.8	565.7	123.5	15.42	8.145	8.224	7.730	7.378	7.625	7.187	7.280	6.905	6.590	6.562	6.376	6.116	6.248	6.100	5.797	5.768	5.309	5.237	5.273	5.156
495.0	874.0	1032	1078	1119	1499	2710	2019	1498	1442	1392	1382	1322	1206	1077	929.2	779.5	667.0	602.6	573.3	540.1	511.5	509.4	513.9	517.5	510.8	502.1	487.6	473.2	464.0	446.0	419.2	377.4	330.3	286.4	248.5	213.9	175.6	143.2	115.7	100.2	92.86	81.13	64.82	54.63	47.28	41.05	34.63	29.81	25.36	20.68	18.64	21.50	45.08	106.2	289.3	669.4	210.1	16.33	7.722	7.262	6.660	6.628	6.543	6.690	6.256	5.961	6.213	5.974	5.509	5.637	5.345	5.585	4.982	4.925	4.997	4.858	4.813
500.0	777.1	930.4	1008	1004	1175	2149	2503	1414	1304	1268	1239	1186	1084	966.5	837.3	698.0	606.1	542.3	511.5	485.6	457.3	457.0	457.2	461.7	453.8	447.8	434.8	426.2	416.9	397.9	378.2	340.4	300.5	261.2	228.4	197.8	164.7	134.3	112.1	95.23	87.15	81.82	68.05	55.00	46.69	41.54	35.35	30.90	26.24	22.03	18.68	17.47	20.67	33.25	77.86	373.5	689.9	172.3	10.53	6.906	6.250	5.963	5.741	5.795	5.643	5.606	5.632	5.409	4.862	4.925	4.826	4.577	4.363	4.303	4.181	4.114	4.019
505.0	698.0	843.1	955.9	931.6	1019	1509	2749	1529	1179	1147	1116	1068	968.9	873.4	748.3	635.0	539.8	490.8	461.5	439.3	414.7	405.3	406.9	410.8	408.4	400.3	387.8	382.0	371.9	356.8	340.0	308.1	274.4	236.9	208.2	181.4	154.0	124.8	105.8	90.95	81.00	78.10	70.61	57.47	48.51	41.77	36.06	31.58	26.75	23.27	19.27	17.15	16.29	17.58	26.22	103.2	476.0	616.4	32.04	7.497	6.181	5.505	5.307	5.370	5.024	5.155	4.986	4.798	4.598	4.814	4.321	4.197	4.412	3.946	3.904	3.747	3.790
510.0	626.7	721.2	821.0	878.5	876.9	1065	2079	2162	1101	1001	972.4	923.9	841.5	751.5	644.6	549.4	472.5	425.2	401.1	381.7	359.1	351.0	349.6	350.3	344.8	340.6	329.5	324.1	318.5	305.4	293.0	266.2	236.5	208.3	183.4	161.4	137.5	114.7	98.05	84.94	75.62	69.75	66.28	59.41	49.48	41.35	35.54	31.52	26.57	23.68	20.47	17.94	15.15	14.17	14.85	31.25	127.9	363.3	466.4	131.1	13.94	5.602	5.155	5.013	4.674	4.555	4.414	4.227	4.171	4.239	3.925	3.785	3.655	3.572	3.558	3.355	3.436
515.0	553.4	616.3	685.2	785.5	764.0	851.5	1208	2392	1385	866.8	844.7	785.2	720.7	631.6	545.6	466.6	403.5	362.4	341.0	324.8	304.7	295.5	293.8	295.3	290.7	284.2	277.7	275.3	266.9	259.4	246.1	226.7	201.6	178.2	157.9	139.9	121.3	102.0	89.17	78.50	70.75	62.93	58.73	56.81	50.35	42.03	35.28	30.23	26.28	23.56	20.60	17.97	15.77	13.60	12.76	15.52	36.42	88.60	199.6	500.5	210.5	15.25	4.872	4.602	4.061	3.925	3.953	3.863	3.377	3.686	3.488	3.368	3.150	3.133	3.095	2.977	3.098
520.0	474.0	559.4	594.6	682.6	724.0	750.4	853.0	1838	1960	812.3	738.9	694.7	633.7	557.5	483.0	410.3	357.5	323.7	304.9	286.4	267.8	260.3	257.8	258.3	250.3	246.7	244.9	239.7	232.3	224.1	215.9	199.4	178.5	158.3	139.9	125.7	109.7	94.43	82.73	73.56	66.21	58.95	54.43	51.78	49.67	42.86	34.81	29.99	26.35	23.40	20.48	18.49	15.90	14.14	12.29	12.50	16.21	27.10	52.97	247.0	508.9	168.8	8.958	4.403	3.994	3.651	3.532	3.203	3.075	3.197	3.144	2.976	2.740	2.743	2.820	2.911	2.413
525.0	459.6	512.4	541.4	598.1	679.9	667.0	718.5	1137	2352	965.7	664.3	623.1	560.3	495.1	429.7	365.6	322.4	291.8	271.9	254.8	240.4	233.1	227.0	227.2	223.3	217.5	212.2	211.3	207.2	199.8	192.0	176.7	157.5	141.3	126.1	112.7	99.02	87.35	76.06	68.05	61.89	55.90	50.08	46.52	46.43	42.31	34.97	29.32	25.66	22.68	20.49	18.36	15.69	14.62	12.64	11.69	11.66	13.45	18.77	65.83	296.9	460.2	32.61	5.634	3.952	3.507	3.175	2.956	3.003	2.952	2.663	2.755	2.432	2.507	2.498	2.485	2.225
530.0	403.3	438.3	468.5	493.3	602.6	600.8	606.1	720.7	1695	1719	635.7	537.3	482.6	422.0	368.3	318.0	277.5	253.3	234.3	218.2	206.7	197.9	193.4	193.8	188.9	184.0	180.2	178.9	175.6	171.2	165.5	151.4	136.7	121.8	110.5	98.71	86.63	77.33	68.50	61.27	55.65	50.78	46.07	42.18	39.91	39.05	35.38	28.92	24.44	21.69	19.63	17.48	15.32	14.60	12.75	11.45	10.80	10.41	11.08	20.99	77.04	230.1	326.0	132.2	13.22	3.453	3.038	2.741	2.712	2.533	2.480	2.331	2.266	2.511	2.112	2.164	2.172
535.0	336.9	376.6	404.9	419.5	480.4	553.7	518.8	546.1	827.8	2055	968.7	456.0	406.2	355.6	311.4	270.6	236.6	210.8	198.9	186.9	173.3	165.6	162.1	163.1	156.0	152.8	151.3	151.1	146.1	142.4	138.7	126.9	115.5	104.1	93.69	85.15	74.54	66.81	59.24	54.72	50.01	45.87	41.50	38.14	34.63	34.54	33.19	29.18	23.86	20.76	18.57	16.32	14.72	13.75	12.61	11.59	10.42	9.855	8.935	10.46	22.69	56.24	114.5	330.6	204.2	15.27	2.774	2.378	2.711	2.279	2.144	2.038	1.953	2.098	1.857	2.059	1.992
540.0	288.1	331.3	364.8	367.1	399.2	496.1	461.6	463.5	524.4	1437	1620	436.3	354.4	312.8	269.9	237.0	207.6	184.5	174.1	163.0	152.2	145.3	141.7	140.1	135.6	133.9	129.4	131.1	126.8	123.6	118.8	110.7	99.79	91.68	82.28	75.13	67.21	59.01	53.94	49.62	44.57	41.12	36.99	34.68	31.65	30.11	29.52	27.81	23.90	20.04	17.56	15.80	14.12	13.04	12.38	11.36	10.37	9.410	8.520	8.125	10.46	17.26	30.08	138.8	351.8	160.2	8.854	2.461	2.359	2.281	2.158	1.893	1.941	1.786	1.794	1.682	1.757
545.0	257.2	320.6	325.1	311.7	346.6	428.6	433.9	407.5	417.4	757.5	2012	565.4	314.9	274.9	237.5	207.9	183.4	165.5	152.9	141.8	132.5	126.3	124.3	120.7	118.4	117.1	111.9	112.1	111.2	107.4	103.6	97.08	88.15	80.82	72.35	66.91	59.89	53.00	48.12	44.12	41.00	37.42	33.74	31.99	29.40	27.21	25.54	25.30	22.72	19.25	16.15	14.96	13.41	12.21	11.41	10.80	10.28	9.026	8.156	7.491	7.474	8.456	10.82	35.73	169.4	328.5	33.79	4.545	2.310	2.163	2.092	1.734	1.723	1.469	1.569	1.771	1.492
550.0	241.6	270.1	275.8	270.9	282.7	333.7	397.0	343.4	332.9	415.5	1289	1295	302.1	230.6	197.4	171.9	153.7	137.5	127.0	117.1	109.2	105.2	101.4	99.97	97.73	95.49	93.05	91.23	91.15	89.34	85.05	80.14	72.42	66.70	60.72	54.57	50.82	45.10	41.11	38.01	34.72	32.39	29.56	27.77	25.46	23.13	21.71	20.91	20.55	18.32	15.34	13.28	11.86	11.22	10.47	9.676	9.610	8.564	7.742	7.003	6.172	6.116	6.290	11.31	42.59	138.0	204.1	123.3	13.00	1.985	1.679	1.489	1.450	1.424	1.342	1.339	1.384
555.0	221.9	235.9	239.0	221.0	233.0	251.2	332.1	310.0	272.4	283.4	519.1	1600	583.2	185.9	159.6	136.9	123.4	111.5	102.4	95.37	87.31	84.42	81.31	78.94	77.70	74.94	74.55	72.06	73.45	70.61	69.12	64.68	58.65	53.32	48.95	44.38	41.95	37.03	33.94	31.70	28.68	26.32	24.92	23.61	21.43	20.08	18.24	16.90	16.57	16.55	14.55	11.98	10.27	9.785	8.969	8.696	8.402	7.848	7.119	6.134	5.439	4.935	4.898	5.525	12.22	33.27	63.31	199.2	166.4	14.90	1.582	1.385	1.166	1.295	1.082	1.028	1.245
560.0	185.1	211.3	208.5	192.0	193.8	207.5	257.4	296.0	235.0	232.2	276.0	1039	1169	172.4	134.9	113.9	102.3	92.95	84.71	80.14	72.71	70.70	68.52	65.94	64.57	63.10	60.92	59.82	60.83	59.40	56.82	53.93	48.49	45.40	41.16	37.99	34.96	31.19	28.95	26.42	25.09	22.55	20.99	20.00	18.59	16.81	15.70	14.51	13.76	13.90	13.17	11.37	9.360	8.591	7.911	7.784	7.048	6.806	6.780	5.705	5.076	4.657	4.281	4.085	5.186	9.744	16.41	71.45	213.5	121.3	7.927	1.377	1.171	1.183	1.024	0.920	1.058
565.0	186.2	202.1	186.8	169.1	169.8	177.5	200.5	270.4	212.3	199.6	201.5	463.0	1517	296.1	115.4	100.1	86.76	78.26	71.43	67.53	60.38	58.81	57.58	55.25	54.58	52.46	50.91	50.67	51.24	49.72	47.85	44.82	41.15	38.08	34.75	32.11	29.26	26.86	25.07	23.21	20.99	19.42	18.22	17.21	15.87	14.76	13.37	12.80	11.91	11.31	11.55	10.54	8.902	7.849	7.149	6.976	6.145	5.896	5.655	5.526	4.505	4.087	3.631	3.503	3.402	4.091	5.632	18.14	85.63	198.4	34.41	3.500	1.202	1.085	0.990	0.947	0.964
570.0	163.2	176.1	160.4	145.8	140.7	143.8	157.6	208.6	214.8	162.3	159.7	214.2	931.5	908.0	119.1	79.04	69.75	63.12	58.10	53.44	50.11	47.00	45.37	43.84	43.51	41.96	40.69	40.75	40.73	39.29	38.12	35.77	32.61	30.15	27.91	25.70	23.69	22.11	20.58	19.04	17.30	16.12	14.69	14.26	13.46	12.32	11.32	10.54	9.718	8.911	8.947	8.916	7.939	7.016	6.305	5.830	5.511	5.295	4.684	4.724	4.358	3.731	3.310	2.765	2.829	2.862	2.959	5.603	21.18	73.48	122.8	81.89	11.87	1.119	0.905	0.846	0.935
575.0	151.0	145.6	137.6	120.0	115.1	118.9	120.6	142.9	198.2	145.1	131.6	135.0	318.2	1144	362.3	64.97	54.69	49.69	45.60	41.80	41.07	38.54	36.03	34.97	34.30	32.65	31.51	32.18	32.83	31.25	30.30	28.41	26.28	23.72	21.67	20.19	18.96	17.19	16.15	15.16	14.10	12.94	12.18	11.77	11.19	10.18	9.400	8.533	8.169	7.682	6.850	6.967	7.090	6.537	5.453	4.946	4.674	4.597	4.286	3.990	3.857	3.625	3.286	2.509	2.436	2.391	2.363	2.806	6.232	17.68	34.12	106.0	108.4	13.22	0.872	0.789	0.848
580.0	132.7	144.3	117.3	100.6	94.79	98.75	100.3	109.9	169.8	150.2	114.7	109.0	140.3	727.3	814.7	66.27	46.43	40.61	38.67	34.98	34.25	31.14	29.94	30.09	28.49	27.68	27.25	26.43	27.31	26.62	25.30	23.19	21.82	19.96	17.97	17.50	15.93	14.94	13.98	12.57	12.06	11.10	10.85	9.768	9.420	8.468	8.050	7.129	7.300	6.594	6.012	5.828	6.073	6.147	5.062	4.593	4.054	3.856	3.687	3.566	3.196	3.203	2.818	2.586	2.403	1.940	2.037	1.991	2.769	5.181	8.717	34.89	122.1	81.38	6.206	0.816	0.738
585.0	128.7	128.8	110.4	95.16	81.44	82.50	86.22	93.51	132.1	155.9	106.3	97.80	91.53	297.1	1061	110.6	40.42	35.75	33.49	30.82	28.96	27.27	25.73	25.36	24.10	23.50	22.82	22.56	23.16	22.52	20.56	20.12	18.42	16.98	15.46	14.73	13.60	12.66	12.07	10.93	10.43	9.896	9.322	8.401	7.999	7.584	7.001	6.374	6.235	5.596	4.920	4.688	4.991	5.134	4.807	4.369	3.702	3.469	2.994	3.229	2.903	2.776	2.727	2.476	2.145	1.988	1.936	1.729	1.803	2.409	2.878	8.731	46.64	118.2	33.42	2.465	0.727
590.0	112.3	106.0	97.49	76.89	71.52	69.30	74.53	79.91	94.63	140.2	109.0	82.21	71.56	112.3	640.8	552.5	46.95	30.06	27.67	25.05	23.54	21.90	20.83	20.45	19.42	19.08	18.55	18.40	18.73	18.13	17.27	16.09	15.23	13.77	12.99	11.95	11.20	10.52	9.920	9.079	8.423	7.869	7.459	7.044	6.630	6.380	5.870	5.567	5.150	4.535	4.260	3.996	4.034	4.047	4.238	3.804	3.400	3.031	2.859	2.772	2.372	2.386	2.399	2.272	2.187	1.752	1.645	1.532	1.500	1.631	1.578	2.829	11.33	41.86	75.20	54.74	8.874
595.0	97.21	102.4	81.38	65.37	59.81	56.97	60.65	64.31	72.94	102.1	118.9	69.91	62.41	61.27	196.1	750.8	100.5	25.03	21.60	20.51	18.98	17.13	17.00	15.92	15.30	15.39	14.87	15.12	14.68	14.29	13.67	12.94	12.25	10.97	10.35	9.582	9.351	8.556	7.954	7.147	6.629	6.267	5.994	6.009	5.594	5.102	4.774	4.680	4.303	3.704	3.591	3.195	3.150	3.088	3.381	3.531	3.056	2.677	2.410	2.153	2.038	1.865	1.813	1.840	1.975	1.968	1.405	1.332	1.325	1.296	1.225	1.419	3.232	9.979	20.48	63.79	66.85
600.0	88.11	89.62	70.10	54.45	54.95	53.48	53.75	59.12	61.20	75.19	119.3	70.80	53.47	46.18	69.39	495.8	443.6	27.38	19.11	17.27	15.96	14.29	14.22	13.82	12.68	12.60	12.40	12.07	12.27	12.00	12.16	11.00	10.00	9.219	8.474	8.195	7.784	7.263	6.971	6.181	5.948	5.264	5.022	4.808	4.477	4.399	4.065	3.898	3.508	3.110	3.052	2.804	2.865	2.702	2.753	3.102	2.887	2.540	2.142	2.049	1.705	1.826	1.650	1.516	1.654	1.820	1.491	1.171	1.090	1.075	0.940	1.117	1.383	2.874	5.202	20.53	73.04
605.0	84.43	84.04	69.28	48.38	49.96	49.51	46.99	53.86	56.12	64.61	105.9	78.81	49.92	40.86	38.92	195.8	657.6	63.31	16.87	15.03	13.43	12.40	11.82	12.51	11.12	10.88	10.53	10.54	10.35	9.396	9.930	9.462	8.695	7.909	7.330	6.941	6.622	6.129	5.825	5.180	4.865	4.527	4.343	3.986	3.991	3.698	3.539	3.481	3.148	2.773	2.734	2.443	2.362	2.325	2.454	2.561	2.652	2.221	2.009	1.744	1.703	1.591	1.387	1.535	1.415	1.638	1.448	1.307	0.985	1.036	0.909	0.863	0.983	1.291	1.755	5.145	27.22
610.0	77.90	70.29	62.14	46.04	42.94	42.47	41.08	46.96	49.25	56.29	75.75	91.52	50.04	36.55	28.75	63.82	431.9	334.4	19.92	12.10	11.16	10.28	9.803	9.755	9.059	9.005	8.442	8.507	8.250	8.184	7.759	7.625	6.943	6.371	5.832	5.660	5.314	4.972	4.651	4.222	4.066	3.830	3.465	3.559	3.293	3.167	2.834	2.704	2.573	2.299	2.293	2.241	2.066	1.833	1.905	1.940	2.134	2.118	1.980	1.641	1.466	1.319	1.305	1.180	1.275	1.287	1.271	1.341	1.056	0.944	0.844	0.771	0.810	0.857	0.911	1.596	6.679
615.0	77.56	70.60	53.05	39.33	34.97	38.04	37.68	40.15	41.92	48.92	53.72	82.95	58.01	32.36	24.28	28.48	129.4	510.0	71.40	9.970	8.874	8.481	7.958	7.954	7.465	7.031	6.430	6.770	6.195	6.364	6.082	5.921	5.518	4.992	4.541	4.315	4.263	3.827	3.608	3.260	3.197	3.126	2.898	2.689	2.813	2.553	2.252	2.140	2.061	1.832	1.797	1.801	1.705	1.439	1.559	1.416	1.534	1.796	1.616	1.470	1.341	1.090	1.166	1.035	1.045	1.035	1.022	1.178	1.083	1.010	0.793	0.770	0.652	0.654	0.649	0.824	1.851
620.0	69.04	61.32	47.90	38.33	31.97	33.35	34.82	35.55	36.42	42.49	47.29	66.41	67.12	31.93	23.29	19.48	41.33	362.9	270.7	11.13	7.808	7.260	6.446	6.594	6.256	5.780	5.537	5.548	5.224	5.261	5.286	4.977	4.812	4.208	3.831	3.733	3.493	3.250	3.039	2.979	2.553	2.405	2.491	2.290	2.233	2.105	1.923	1.937	1.788	1.484	1.464	1.493	1.412	1.333	1.353	1.164	1.413	1.378	1.517	1.386	1.257	1.005	1.066	1.025	0.904	0.883	0.905	0.975	1.045	0.975	0.817	0.676	0.653	0.693	0.565	0.640	0.820
625.0	56.71	60.03	47.75	36.49	29.77	29.19	32.27	33.18	35.79	39.65	43.78	53.22	71.15	32.99	20.63	16.72	20.09	150.8	439.7	31.62	6.721	6.041	5.644	5.873	5.232	4.957	4.877	4.510	4.350	4.383	4.424	4.314	3.957	3.647	3.333	3.154	2.880	2.827	2.729	2.640	2.192	2.250	2.106	2.061	1.966	1.806	1.667	1.615	1.587	1.240	1.240	1.246	1.213	1.227	1.295	1.057	1.096	1.098	1.305	1.266	1.115	1.053	0.955	0.844	0.792	0.859	0.822	0.773	0.869	0.889	0.828	0.621	0.539	0.613	0.605	0.592	0.623
630.0	61.65	55.95	48.43	34.40	27.26	29.08	30.08	30.48	32.35	35.99	39.71	43.46	61.56	43.66	21.10	15.20	13.49	43.89	321.5	181.4	8.602	4.990	4.830	4.644	4.222	3.995	3.971	3.794	3.766	3.598	3.587	3.362	3.116	3.029	2.745	2.508	2.305	2.243	2.109	2.285	1.859	1.829	1.675	1.668	1.590	1.574	1.434	1.276	1.228	1.116	1.114	1.110	1.043	1.086	1.064	0.944	0.983	0.982	1.055	1.093	1.093	0.916	0.860	0.735	0.763	0.726	0.719	0.675	0.759	0.819	0.769	0.749	0.577	0.556	0.541	0.490	0.492
635.0	63.32	56.86	45.09	35.92	25.08	27.98	26.57	28.41	31.22	36.79	35.98	39.86	46.96	51.17	23.46	14.71	12.04	15.99	97.91	359.4	46.31	4.380	3.870	3.633	3.440	3.683	3.252	3.021	3.321	3.052	2.840	2.675	2.694	2.371	2.237	2.000	1.990	1.936	1.619	1.682	1.425	1.483	1.369	1.300	1.279	1.140	1.252	1.135	0.973	0.931	0.977	0.943	0.834	0.869	0.831	0.813	0.788	0.819	0.802	0.883	0.973	0.795	0.872	0.682	0.697	0.698	0.693	0.636	0.686	0.666	0.719	0.698	0.653	0.515	0.467	0.421	0.507
640.0	60.44	65.89	47.49	32.60	23.12	27.68	24.85	27.37	30.65	33.72	36.73	38.03	40.31	52.21	29.71	15.46	11.40	10.08	28.65	288.4	169.8	4.693	3.669	3.268	2.809	3.084	2.539	2.552	2.585	2.663	2.339	2.264	2.007	2.145	2.027	1.604	1.716	1.429	1.484	1.256	1.173	1.263	1.210	1.139	1.259	1.056	1.003	0.968	0.851	0.790	0.821	0.768	0.723	0.720	0.760	0.677	0.684	0.700	0.639	0.745	0.727	0.865	0.745	0.729	0.702	0.592	0.647	0.521	0.644	0.593	0.653	0.737	0.662	0.568	0.504	0.451	0.558
645.0	67.37	86.10	61.45	39.14	25.89	25.75	25.54	28.48	31.70	34.99	38.62	41.48	38.91	47.56	36.97	17.45	11.58	8.975	11.56	130.6	299.9	16.00	3.221	2.757	2.857	2.527	2.519	2.158	2.199	2.186	2.092	2.065	1.947	1.872	1.836	1.378	1.584	1.291	1.242	1.035	1.117	1.243	1.102	1.075	1.056	0.951	0.884	0.895	0.842	0.757	0.730	0.775	0.634	0.594	0.617	0.695	0.646	0.676	0.650	0.584	0.621	0.790	0.710	0.694	0.693	0.547	0.612	0.563	0.575	0.533	0.629	0.604	0.709	0.566	0.496	0.475	0.502
650.0	81.09	100.7	79.92	48.23	27.60	25.39	26.85	28.65	32.84	35.11	40.90	42.38	40.56	41.42	42.94	19.97	12.07	8.762	7.785	40.46	309.1	58.97	3.250	2.609	2.380	2.333	2.239	2.004	1.928	2.015	1.805	1.781	1.640	1.588	1.537	1.313	1.349	1.146	1.158	1.083	1.022	1.115	1.108	0.936	0.954	0.923	1.014	0.937	0.875	0.729	0.744	0.647	0.640	0.576	0.564	0.573	0.611	0.571	0.608	0.591	0.609	0.730	0.738	0.683	0.599	0.649	0.587	0.604	0.719	0.540	0.613	0.563	0.675	0.718	0.517	0.410	0.397
