Sample:	'1
File name:	T2025051301青胥沟入小清河.FD3
Run date:	'10:54:32, 05/16/2025
Operator:	Administrator
Comment:	'

Instrument
Model:	F-2700 FL Spectrophotometer
Serial number:	23B8-004
ROM Version:	4J14000 07

Instrument parameters
Measurement type:	3-D scan
Data mode:	Fluorescence
EX  Start WL:	220.0 nm
EX  End WL:	600.0 nm
EX Sampling interval:	5.0 nm
EM  Start WL:	230.0 nm
EM  End WL:	650.0 nm
EM Sampling interval:	5.0 nm
Scan speed:	12000 nm/min
EX Slit:	5.0 nm
EM Slit:	5.0 nm
PMT Voltage:	700 V
Response:	Auto 
Corrected spectra:	Off
Contour interval:	50.000

Peak integration
Integration method:	Rectangular
Sensitivity:	1
Threshold:	1.000

Peaks
No.	ApexEX/EM(nm)	Height(Data)
1	270.0/600.0	478.8
2	275.0/310.0	7271
3	275.0/605.0	470.8
4	550.0/305.0	32.09

Data points
	220.0	225.0	230.0	235.0	240.0	245.0	250.0	255.0	260.0	265.0	270.0	275.0	280.0	285.0	290.0	295.0	300.0	305.0	310.0	315.0	320.0	325.0	330.0	335.0	340.0	345.0	350.0	355.0	360.0	365.0	370.0	375.0	380.0	385.0	390.0	395.0	400.0	405.0	410.0	415.0	420.0	425.0	430.0	435.0	440.0	445.0	450.0	455.0	460.0	465.0	470.0	475.0	480.0	485.0	490.0	495.0	500.0	505.0	510.0	515.0	520.0	525.0	530.0	535.0	540.0	545.0	550.0	555.0	560.0	565.0	570.0	575.0	580.0	585.0	590.0	595.0	600.0
230.0	32.94	431.6	1130	362.5	20.67	7.861	8.286	8.923	9.341	11.08	10.78	10.21	10.31	9.286	8.395	7.871	7.685	7.333	7.312	7.303	6.942	6.942	6.854	6.785	6.764	6.748	6.114	6.050	6.355	6.002	5.643	5.519	5.407	5.206	4.605	4.259	3.803	3.549	3.197	3.083	2.866	2.799	2.737	2.757	2.741	2.567	2.838	4.670	6.727	5.379	3.133	2.101	1.823	1.738	1.765	1.677	1.597	1.529	1.482	1.365	1.298	1.252	1.160	1.161	1.154	1.062	0.986	0.916	0.889	0.822	0.722	0.736	0.628	0.653	0.557	0.531	0.557
235.0	34.41	124.4	670.9	1406	479.3	45.03	9.186	11.12	11.14	11.43	12.56	11.36	11.89	9.486	9.075	8.391	8.049	7.222	7.132	7.466	7.195	6.996	6.743	6.703	7.206	6.865	7.129	6.365	6.195	6.622	5.874	5.545	5.318	5.301	4.739	4.458	4.011	3.701	3.109	2.980	3.002	2.717	2.734	2.817	2.695	2.572	2.539	2.912	3.684	4.969	7.028	7.947	5.163	2.707	1.732	1.700	1.558	1.507	1.484	1.242	1.344	1.255	1.094	1.176	1.079	1.093	0.979	0.908	0.889	0.805	0.725	0.690	0.644	0.650	0.519	0.591	0.556
240.0	38.12	45.42	203.0	1272	2407	437.3	38.27	13.10	13.87	13.08	13.15	13.02	13.35	10.33	9.719	8.853	8.493	7.474	7.754	7.482	7.601	6.668	7.491	7.279	7.250	6.774	6.990	6.676	6.730	6.254	5.865	5.574	5.230	5.567	5.092	4.559	3.910	3.780	3.326	3.271	2.929	2.857	2.809	2.629	2.822	2.643	2.486	2.448	2.525	2.987	4.606	10.24	13.97	13.77	6.507	2.313	1.656	1.643	1.551	1.375	1.287	1.198	1.184	1.264	1.206	1.110	1.030	0.975	0.927	0.810	0.711	0.798	0.707	0.624	0.590	0.655	0.695
245.0	35.37	42.70	64.80	456.0	3074	3610	383.3	28.61	17.43	16.06	14.99	14.00	12.94	11.18	10.61	9.245	9.159	8.220	8.095	7.592	7.465	7.453	7.509	7.722	7.439	7.243	7.044	7.030	6.699	6.377	5.939	5.294	5.372	5.069	4.942	4.512	4.366	3.866	3.447	3.374	3.083	3.017	2.845	2.708	2.666	2.541	2.457	2.335	2.296	2.362	2.578	4.657	10.65	22.13	26.28	18.27	7.555	2.139	1.682	1.466	1.455	1.364	1.218	1.387	1.164	1.116	0.961	0.911	0.858	0.857	0.707	0.740	0.684	0.605	0.605	0.581	0.609
250.0	42.09	42.89	61.91	133.3	1039	5100	8252	4346	128.8	24.62	21.56	18.24	16.25	13.13	11.82	10.81	9.832	8.950	8.946	8.184	7.921	7.775	7.968	8.065	7.836	7.979	7.568	7.548	7.206	6.797	6.136	5.614	5.349	5.033	4.667	4.439	4.429	3.953	3.783	3.499	3.130	3.103	2.935	2.901	2.739	2.592	2.495	2.364	2.283	2.298	2.111	2.654	3.956	8.206	17.47	34.68	45.14	58.17	18.02	9.974	2.413	1.410	1.329	1.296	1.206	1.069	1.066	0.963	0.920	0.878	0.755	0.738	0.827	0.672	0.642	0.645	0.576
255.0	59.28	47.97	58.03	100.9	278.4	1341	8596	9999.9	2367	163.0	33.31	26.36	20.46	16.76	13.52	12.14	10.87	10.36	9.424	9.029	9.000	8.369	8.492	8.546	8.245	8.150	8.202	7.783	7.935	7.593	6.729	6.190	5.863	5.380	4.663	4.581	4.559	4.058	4.041	3.661	3.458	3.314	3.010	3.253	3.025	2.792	2.700	2.286	2.147	2.395	2.333	2.231	2.413	3.435	5.449	9.658	19.29	61.32	127.3	150.4	28.64	14.53	1.966	1.677	1.462	1.199	1.193	1.059	1.028	0.925	0.822	0.843	0.839	0.812	0.656	0.762	0.673
260.0	73.70	48.80	48.10	93.87	158.3	360.0	2745	9999.9	9999.9	1961	116.8	36.54	26.38	21.46	17.13	14.88	13.11	12.19	11.37	9.835	9.573	9.288	9.019	8.676	8.748	8.749	8.532	8.490	8.473	7.882	7.428	6.512	6.387	5.423	5.092	4.963	4.363	4.379	4.250	3.639	3.514	3.314	3.216	3.262	3.234	2.892	2.886	2.517	2.420	2.234	2.205	2.257	2.322	2.513	2.944	3.819	6.085	17.87	57.56	144.2	209.7	179.4	25.20	9.425	1.720	1.639	1.346	1.187	1.152	1.102	0.985	0.907	0.855	0.948	0.738	0.767	0.772
265.0	105.5	70.63	45.47	75.36	156.8	193.2	699.7	4771	9999.9	9999.9	1512	72.24	37.58	27.98	22.23	17.58	15.17	12.93	11.84	11.49	9.936	10.23	9.523	9.538	9.089	8.925	8.654	9.179	8.579	8.663	7.818	7.160	6.636	5.476	5.351	5.257	4.788	4.733	3.961	4.077	3.792	3.723	3.428	3.582	3.392	3.299	2.976	2.792	2.506	2.383	2.154	2.333	2.399	2.561	2.699	2.607	3.079	5.820	14.96	43.08	118.0	246.8	245.8	169.2	20.86	4.271	1.670	1.508	1.288	1.303	1.058	1.030	1.114	0.897	0.934	0.786	0.867
270.0	267.9	116.3	70.62	72.74	137.1	256.2	374.3	1261	6012	9999.9	9999.9	5777	109.6	46.14	33.00	25.09	20.18	16.53	14.41	13.41	11.86	11.55	10.75	10.38	9.999	10.07	9.541	9.637	9.218	8.935	8.469	7.906	7.483	6.575	5.749	5.644	5.083	4.969	4.680	4.799	4.624	4.291	4.191	3.987	3.851	3.464	3.319	2.980	2.758	2.449	2.300	2.434	2.471	2.618	2.912	3.065	3.140	3.489	5.471	11.70	29.56	72.28	136.4	242.2	258.7	232.2	117.3	14.04	4.819	1.700	1.403	1.362	1.223	1.151	1.112	1.032	1.033
275.0	538.2	194.0	94.08	88.77	131.0	244.2	474.6	619.6	1650	3454	9999.9	9999.9	8166	122.3	55.24	37.80	28.77	23.13	17.43	16.99	14.19	13.66	12.71	12.08	11.66	11.45	10.39	10.43	10.31	9.918	8.992	8.954	8.002	7.788	7.243	6.510	6.177	5.821	5.590	6.125	5.614	5.379	5.113	4.906	4.390	3.842	3.599	3.264	3.032	2.671	2.664	2.640	2.653	2.762	2.857	3.086	3.731	4.038	4.197	5.216	9.001	18.47	33.01	57.92	82.73	202.6	424.8	493.1	193.0	21.04	3.393	1.781	1.679	1.574	1.360	1.117	1.265
280.0	752.9	285.4	133.9	108.3	140.6	241.1	452.3	706.8	869.0	1280	5290	9999.9	9999.9	1123	101.4	55.90	37.63	30.15	22.05	20.53	17.65	15.40	14.53	13.56	12.67	12.00	11.51	11.28	10.58	9.597	9.852	9.068	9.018	8.554	7.762	7.442	7.087	6.372	6.194	6.228	6.443	6.039	5.790	5.451	4.869	4.492	4.007	3.568	3.089	2.937	2.799	2.920	2.787	2.840	3.038	3.194	3.470	4.191	4.739	4.873	5.582	7.523	10.91	16.31	22.24	52.46	153.2	371.3	568.4	260.0	31.74	15.43	2.696	2.060	1.615	1.508	1.499
285.0	1000	465.1	225.0	144.2	166.0	261.6	440.6	839.5	1071	1190	2163	9176	9999.9	9999.9	852.7	86.90	52.97	38.75	29.38	24.15	20.06	17.83	16.16	14.56	14.23	13.17	13.06	11.63	11.32	10.41	10.19	9.462	9.179	9.078	8.605	8.264	7.982	7.368	7.035	7.308	7.174	6.677	6.431	6.217	5.479	5.182	4.503	4.010	3.398	3.313	2.811	2.933	2.856	2.950	3.268	3.256	3.642	4.126	4.575	5.635	6.715	6.796	7.231	8.628	10.02	17.04	39.70	99.31	240.2	459.4	635.3	247.6	26.58	9.141	2.460	2.107	1.826
290.0	1581	935.2	473.0	252.6	222.9	332.6	564.4	1043	1768	2399	2815	4529	9999.9	9999.9	9999.9	3537	212.7	61.21	43.37	33.22	26.19	23.06	19.99	17.89	16.89	14.93	14.29	12.79	13.03	11.80	11.18	10.40	10.11	9.702	9.429	9.370	9.100	8.749	8.153	8.148	8.176	7.657	7.517	7.362	6.599	6.403	5.627	5.000	4.374	3.758	3.350	3.594	3.231	3.273	3.491	3.922	4.230	4.768	5.531	6.499	8.233	9.841	11.09	11.94	13.11	14.98	20.36	33.45	64.87	126.5	254.4	381.3	529.7	480.9	348.1	18.96	8.984
295.0	2234	1511	801.3	401.9	310.9	427.7	767.1	1391	2439	3835	4846	5200	5471	5237	9999.9	9999.9	5152	95.45	66.84	49.20	35.65	28.90	25.49	22.23	20.20	17.93	16.19	14.95	14.70	14.01	12.82	11.66	11.09	11.09	11.17	10.41	10.30	10.15	9.355	9.280	9.138	8.883	9.363	8.319	7.892	8.224	6.912	6.516	5.262	4.447	3.895	4.052	3.762	3.798	3.945	4.325	4.987	5.788	6.756	8.124	9.811	12.85	14.98	18.78	20.99	21.76	23.07	26.61	31.37	43.51	69.82	94.84	138.7	256.7	624.0	861.7	269.8
300.0	2659	1914	1028	533.0	376.7	486.2	886.3	1639	2872	4534	6186	6377	5242	3387	6341	9999.9	9999.9	676.2	117.1	69.83	48.01	37.07	31.33	26.16	23.41	20.62	18.34	17.22	15.94	15.55	14.28	12.48	12.02	11.98	12.03	11.37	11.15	10.96	10.17	10.27	10.06	9.490	9.883	9.153	8.813	8.845	7.955	7.246	5.957	4.935	4.333	4.301	4.178	4.337	4.366	4.900	5.281	6.461	7.456	9.507	11.49	14.35	17.39	21.01	25.08	27.36	28.14	28.44	27.68	27.96	31.50	32.57	39.04	64.49	183.3	473.9	829.6
305.0	2808	2126	1166	608.3	431.5	525.1	945.1	1770	3099	4904	6724	7269	5688	3274	2294	9999.9	9999.9	9999.9	561.7	98.79	64.92	47.75	38.30	30.95	26.98	23.71	20.93	19.51	17.83	16.37	15.27	13.19	12.93	12.95	12.43	11.87	11.35	11.20	10.82	10.50	10.28	10.26	10.59	10.27	9.745	9.535	8.926	8.165	6.496	5.215	4.514	4.575	4.531	4.497	4.623	5.071	5.433	6.981	8.160	10.11	12.55	15.18	19.06	22.64	25.59	28.47	32.09	31.70	28.89	26.58	24.09	20.80	17.61	20.30	45.56	115.6	287.3
310.0	2821	2151	1231	653.3	456.9	553.3	970.3	1776	3100	4846	6533	7271	6001	3401	1449	2688	9999.9	9999.9	9999.9	9999.9	190.1	74.15	54.75	42.28	34.02	29.18	25.21	23.02	20.71	18.95	17.11	15.34	14.69	14.16	13.66	12.89	12.18	11.65	11.42	11.12	11.04	11.00	10.45	10.46	10.23	10.06	8.925	8.508	7.151	5.864	5.258	5.109	4.919	4.966	5.097	5.569	6.215	7.396	8.767	10.38	13.05	15.40	18.92	22.66	25.70	28.55	31.20	31.63	30.30	27.49	23.98	18.82	13.40	11.25	15.09	29.76	68.03
315.0	2639	2048	1200	647.1	473.1	573.0	942.6	1709	2903	4456	5973	6607	5650	3521	1366	1010	2486	4120	9999.9	9999.9	4014	204.5	82.80	61.16	46.42	38.11	31.56	27.94	24.75	22.41	19.38	18.06	16.45	15.01	14.73	14.23	12.92	12.20	12.17	11.56	11.05	11.59	10.98	10.61	10.47	10.41	9.168	8.966	7.319	6.401	5.613	5.470	5.381	5.460	5.506	5.719	6.735	7.646	8.622	10.62	12.74	15.74	18.59	21.33	24.36	26.26	28.75	29.32	28.35	25.87	23.88	18.36	13.17	9.574	8.596	10.92	18.95
320.0	2499	1968	1219	670.3	474.1	582.0	944.8	1650	2736	4096	5448	6005	5140	3437	1519	704.0	830.9	1145	7110	9999.9	9999.9	3190	141.4	84.03	60.66	47.14	38.47	33.22	28.69	25.25	22.66	20.53	18.07	16.83	15.37	14.89	14.05	13.14	12.25	11.88	11.35	11.59	11.43	10.92	10.46	10.59	9.839	9.283	7.981	6.696	5.815	6.313	5.801	5.972	5.979	6.262	6.811	7.911	8.597	10.45	12.22	14.71	17.31	20.44	22.28	24.84	26.29	27.09	26.06	24.20	21.92	18.18	14.07	10.37	7.743	7.360	8.420
325.0	2405	1882	1265	676.5	497.5	587.3	946.6	1593	2575	3795	4979	5473	4708	3214	1693	756.3	500.0	471.9	1838	9999.9	9999.9	9999.9	478.3	123.9	82.77	60.23	47.05	39.04	33.78	29.67	26.04	22.78	19.35	18.69	16.56	15.57	15.39	13.62	12.98	12.33	12.09	11.84	11.57	10.93	10.48	10.86	9.827	9.888	8.462	6.736	6.112	6.397	6.134	6.210	6.367	6.786	7.271	7.889	9.068	10.51	11.97	14.31	16.69	19.35	20.78	23.29	24.83	24.58	24.10	23.20	20.79	17.17	13.49	11.57	8.837	7.179	6.236
330.0	2216	1823	1240	705.9	531.1	624.4	962.1	1549	2417	3461	4426	4851	4261	2988	1685	967.3	542.8	358.2	605.1	2518	9999.9	9999.9	9999.9	9999.9	206.4	92.30	67.41	51.46	42.92	36.42	31.48	26.74	23.14	20.56	18.73	16.52	15.53	14.45	13.59	13.35	12.26	12.03	11.74	11.49	11.62	11.31	10.20	10.07	8.589	7.137	6.438	6.794	6.530	6.589	6.568	7.171	7.604	8.323	9.566	10.39	12.12	13.72	16.06	17.93	19.39	21.00	22.47	22.24	22.33	20.78	18.94	16.50	13.65	11.33	9.635	8.414	7.525
335.0	2092	1735	1200	737.7	566.1	670.5	996.3	1525	2306	3195	3997	4342	3890	2846	1701	1019	733.9	426.9	361.5	751.7	2412	4790	9999.9	9999.9	3489	231.1	100.9	76.62	57.66	46.71	39.30	33.20	26.96	24.17	21.26	18.79	17.29	15.79	14.66	14.07	13.56	12.85	12.60	12.26	12.24	12.17	10.81	10.91	9.233	7.857	7.039	7.285	7.179	7.505	7.201	7.448	8.179	9.039	9.951	10.91	12.78	14.08	15.85	17.14	18.36	19.34	20.22	20.30	20.74	19.61	18.07	16.10	13.74	11.80	9.770	8.868	8.344
340.0	2014	1697	1222	742.2	586.2	687.7	1016	1517	2225	3017	3716	4001	3655	2778	1728	1026	773.2	564.9	354.8	380.5	728.2	1281	9269	9999.9	9999.9	3084	170.0	100.1	73.61	56.99	47.88	38.49	31.57	27.02	23.04	20.95	18.71	16.58	15.35	14.84	14.11	13.84	13.08	12.62	12.55	12.30	11.29	10.93	9.141	8.162	7.229	7.548	7.411	7.668	7.996	7.951	8.440	9.322	10.22	11.30	13.03	14.00	15.19	16.65	18.03	18.83	19.06	19.91	19.86	18.52	17.12	15.92	13.88	12.13	10.38	9.211	8.250
345.0	1855	1625	1169	741.8	609.8	721.0	1022	1494	2147	2876	3482	3724	3423	2678	1743	1060	750.6	659.7	453.2	335.9	379.4	483.3	2332	9999.9	9999.9	9999.9	443.0	141.6	92.97	70.91	55.48	43.25	35.18	29.34	24.89	21.65	19.35	17.17	16.14	14.65	14.25	14.12	13.45	12.51	12.76	12.36	11.80	10.89	9.367	8.111	7.331	7.775	7.541	7.716	7.935	8.454	8.894	9.294	10.71	11.05	12.29	13.82	14.17	16.30	17.33	18.02	17.98	18.91	18.69	17.83	16.88	15.22	13.79	12.02	10.15	8.799	8.745
350.0	1787	1509	1078	717.4	626.3	740.3	1026	1469	2068	2689	3208	3418	3154	2559	1752	1116	791.6	655.0	592.5	452.5	360.3	341.8	729.8	2552	9999.9	9999.9	9999.9	9999.9	220.1	100.7	73.30	55.03	41.94	34.18	28.02	23.72	21.06	18.73	17.36	15.58	14.87	13.98	13.73	13.08	12.46	12.41	11.29	10.88	9.390	7.993	7.535	7.759	7.534	7.571	7.942	8.264	9.023	9.711	10.45	10.92	12.26	13.23	14.12	15.36	16.47	17.03	17.32	17.61	17.72	17.18	15.81	15.02	14.11	12.52	10.83	9.499	9.089
355.0	1635	1420	1026	714.8	642.6	767.3	1023	1441	1969	2536	2957	3136	2927	2421	1746	1170	863.8	699.0	623.4	598.7	467.2	365.6	405.8	782.7	2430	4828	9999.9	9999.9	9999.9	260.7	103.8	74.31	52.30	41.38	32.80	26.84	23.10	21.35	18.88	17.29	15.95	14.76	14.22	13.45	13.15	12.39	11.44	11.14	9.520	8.110	7.889	7.878	7.655	7.780	7.776	8.264	8.961	10.04	10.26	11.08	11.89	12.78	13.61	14.77	15.37	15.84	15.92	16.19	17.04	16.03	14.73	14.23	13.47	12.14	10.92	9.783	9.119
360.0	1552	1319	967.9	699.0	636.4	780.7	1055	1437	1900	2409	2828	2956	2775	2335	1738	1202	926.0	768.5	668.0	637.2	594.4	435.4	372.7	410.9	746.9	1290	8542	9999.9	9999.9	3109	201.9	96.93	68.27	49.76	38.27	30.69	25.92	23.57	20.54	18.03	16.19	15.70	14.23	13.58	12.98	12.37	11.66	11.25	9.668	8.449	8.038	8.333	8.016	8.062	8.181	8.070	9.369	10.03	10.30	11.20	11.52	12.74	13.28	14.46	14.86	15.18	15.68	15.60	15.56	15.45	14.59	13.98	13.75	11.97	11.10	10.09	9.803
365.0	1488	1292	934.1	687.9	670.2	787.0	1057	1427	1876	2316	2692	2822	2648	2260	1726	1243	984.5	839.9	732.3	662.7	662.6	549.0	416.8	363.6	391.1	483.2	2149	9999.9	9999.9	9999.9	2602	148.5	86.43	63.26	45.34	34.71	29.50	25.42	21.75	19.70	17.56	16.28	15.28	13.63	13.58	12.90	11.78	11.41	9.669	8.689	7.948	8.359	8.084	8.013	8.004	8.468	9.508	10.01	10.41	10.83	11.75	12.39	13.40	13.87	14.43	14.68	15.35	15.11	15.38	14.97	14.08	14.12	13.49	12.49	11.02	10.32	10.23
370.0	1426	1240	884.0	695.4	676.5	824.8	1066	1412	1822	2223	2540	2658	2523	2182	1724	1301	1073	934.9	833.6	747.2	699.7	656.5	545.7	420.4	360.3	333.1	677.1	2511	9999.9	9999.9	9999.9	9999.9	215.6	91.25	62.73	44.95	35.91	29.74	25.21	21.82	19.29	17.48	16.20	14.84	14.07	13.01	12.05	11.39	10.10	8.859	7.943	8.587	8.250	8.483	8.386	8.690	9.444	9.660	10.15	11.03	12.17	12.32	13.11	13.43	14.03	14.42	14.74	14.68	14.90	14.46	13.88	13.66	13.01	12.39	11.35	10.76	10.45
375.0	1322	1152	869.0	703.5	707.0	844.7	1081	1406	1771	2126	2397	2508	2383	2112	1733	1370	1161	1044	941.7	846.9	772.0	699.8	666.2	530.5	417.4	344.5	377.3	758.5	2422	4318	9999.9	9999.9	9999.9	250.1	90.57	61.28	46.52	35.90	28.67	24.42	21.47	19.15	17.37	15.89	14.59	13.22	12.49	11.14	10.28	9.196	8.245	8.898	8.213	8.770	8.338	8.732	9.309	9.583	10.49	10.39	11.76	12.54	12.27	13.24	13.59	13.83	14.13	14.34	14.19	13.94	13.89	13.42	12.43	12.54	11.01	10.84	10.53
380.0	1279	1092	859.1	687.1	730.6	857.4	1111	1389	1719	2041	2304	2415	2303	2082	1738	1415	1237	1121	1013	923.2	839.3	757.2	698.9	647.9	500.8	393.5	343.7	392.2	738.3	1167	7217	9999.9	9999.9	9999.9	189.5	78.41	56.50	42.29	34.00	27.71	23.21	20.59	18.54	16.06	15.29	13.85	12.75	11.42	10.71	9.223	8.539	9.092	8.735	8.931	9.106	8.692	9.462	9.546	10.42	10.41	11.47	12.09	12.76	13.08	12.69	13.11	13.60	13.80	13.30	13.24	13.64	13.20	12.52	12.14	11.35	11.62	11.21
385.0	1271	1065	833.8	717.4	748.7	893.6	1132	1389	1701	1978	2220	2332	2228	2048	1748	1468	1301	1197	1086	990.0	908.9	818.7	739.9	701.0	608.8	463.2	381.3	342.4	385.5	455.5	1824	9999.9	9999.9	9999.9	2369	128.8	70.74	52.81	39.63	31.62	26.14	22.70	19.54	17.20	15.71	14.14	12.89	12.21	10.78	8.942	8.360	9.104	8.499	9.062	9.306	9.007	9.752	9.743	10.12	10.73	11.01	12.05	12.82	12.74	12.27	13.19	12.89	13.39	13.44	12.99	13.47	12.61	12.76	12.58	11.66	11.37	11.19
390.0	1192	1019	825.3	717.4	776.7	925.4	1155	1398	1669	1930	2121	2223	2153	2009	1766	1529	1383	1277	1178	1082	1001	914.3	831.2	760.1	707.5	602.5	476.2	402.1	360.1	330.6	595.6	2444	9172	9999.9	9999.9	9441	188.4	73.84	51.74	39.43	30.01	24.72	21.63	19.27	17.29	15.75	13.62	12.66	11.65	9.634	8.635	9.405	9.017	9.290	9.276	9.190	10.09	10.18	10.27	10.62	10.78	11.83	12.21	12.29	12.92	13.12	12.64	12.88	12.86	13.09	12.98	12.25	12.63	12.66	11.93	11.57	11.77
395.0	1167	950.8	820.1	728.9	819.1	965.5	1180	1423	1665	1889	2058	2141	2098	1986	1788	1581	1455	1361	1257	1175	1096	1020	934.8	859.0	779.2	720.2	627.0	506.1	429.0	358.4	356.6	724.2	2196	3243	9999.9	9999.9	9999.9	234.1	73.15	52.49	38.62	30.55	25.53	21.40	19.00	17.24	14.85	13.61	11.72	10.10	9.670	9.821	9.515	9.553	9.479	9.666	10.28	10.44	11.18	10.77	11.32	11.71	11.99	12.52	12.26	12.63	12.63	12.83	12.47	12.42	12.50	12.26	12.35	12.85	12.28	11.96	12.19
400.0	1148	971.7	811.4	751.6	809.5	972.1	1205	1442	1660	1849	2020	2096	2052	1958	1798	1616	1510	1414	1312	1237	1161	1092	1017	941.3	861.6	784.8	729.2	614.7	503.0	408.5	336.1	361.2	652.7	878.4	4562	9999.9	9999.9	9999.9	185.2	65.98	46.56	36.15	28.19	23.06	20.20	17.66	15.41	14.34	12.66	10.60	9.434	9.849	9.738	9.479	9.484	10.14	10.17	10.51	11.34	10.82	11.29	11.28	11.78	12.30	12.10	12.13	12.29	12.58	12.49	12.37	12.77	12.20	12.67	12.59	12.23	12.11	12.73
405.0	1052	957.4	766.9	731.1	823.0	1005	1225	1450	1659	1838	1982	2046	2011	1941	1794	1636	1532	1442	1367	1284	1217	1154	1086	1020	944.7	851.0	792.0	727.6	593.5	469.6	373.4	310.9	327.9	347.9	1171	6958	9999.9	9999.9	2239	130.3	56.71	42.84	32.72	25.76	21.75	18.45	16.02	15.13	12.96	10.41	10.01	10.43	9.379	9.451	9.646	10.13	10.37	10.62	11.34	11.04	11.07	11.57	11.82	11.84	12.03	11.89	12.17	12.38	12.07	12.53	12.48	12.30	12.44	12.59	12.58	12.00	12.66
410.0	1062	920.2	765.0	737.9	841.4	1026	1247	1470	1661	1819	1952	2006	1970	1910	1791	1648	1554	1480	1404	1335	1283	1229	1177	1120	1047	959.1	881.4	819.0	734.9	586.5	453.1	351.1	293.3	255.3	407.9	1697	6640	9999.9	9999.9	9665	175.5	59.91	41.64	32.40	25.62	21.02	17.51	15.80	13.60	11.07	10.27	10.86	9.819	9.817	9.728	9.950	10.77	11.11	11.37	11.25	11.21	11.81	11.78	12.06	12.00	11.78	12.07	12.18	12.07	12.13	12.28	12.52	12.45	12.57	12.30	11.91	12.55
415.0	1041	884.4	749.5	744.1	829.1	1040	1269	1471	1668	1805	1911	1965	1907	1864	1759	1642	1563	1490	1434	1371	1322	1288	1247	1203	1143	1060	972.6	898.2	833.0	721.3	544.8	416.8	330.5	264.6	258.3	517.9	1601	2745	9999.9	9999.9	9999.9	224.7	60.07	41.21	32.27	25.12	19.73	17.57	14.55	11.78	10.76	11.22	10.53	10.43	9.881	10.35	11.05	10.84	11.25	11.50	11.52	11.88	11.68	11.96	11.42	11.60	11.85	11.57	11.80	11.78	12.43	12.45	12.01	12.09	11.96	11.79	12.36
420.0	996.9	838.1	721.2	731.0	818.5	1039	1264	1494	1652	1775	1886	1902	1882	1815	1731	1611	1551	1485	1433	1386	1346	1325	1292	1250	1200	1123	1032	960.7	883.4	786.9	620.9	470.2	368.3	292.5	244.8	268.0	483.2	729.3	3411	9999.9	9999.9	9999.9	176.2	53.42	37.40	30.15	22.71	18.81	16.04	12.44	11.71	11.97	10.84	10.96	10.27	10.91	11.26	11.00	11.22	11.77	11.59	11.93	11.78	11.86	11.59	11.30	11.98	11.79	11.34	11.63	11.58	11.84	12.37	11.63	11.92	12.24	12.45
425.0	931.9	802.0	712.8	728.0	836.3	1030	1276	1483	1657	1764	1882	1866	1837	1772	1696	1587	1530	1478	1423	1389	1362	1343	1319	1281	1243	1163	1089	1008	923.8	816.3	690.5	526.2	405.5	323.8	259.6	227.9	245.9	279.3	877.0	4889	9999.9	9999.9	2153	123.7	48.12	35.66	25.84	20.66	16.92	13.19	11.88	12.81	11.47	11.07	10.65	11.28	11.17	11.70	11.43	11.65	12.00	11.93	11.82	12.04	11.58	11.67	11.18	11.35	11.17	11.55	11.23	11.47	11.94	11.97	11.83	12.02	12.52
430.0	1080	766.1	683.0	702.3	832.2	1041	1283	1504	1651	1755	1844	1831	1775	1716	1646	1550	1492	1456	1399	1382	1367	1353	1341	1319	1286	1210	1139	1060	975.7	856.8	725.0	600.8	465.2	365.5	293.9	243.4	213.4	192.8	307.9	1201	5220	9999.9	9999.9	9118	165.9	53.48	34.74	27.26	20.42	15.17	13.39	13.63	12.68	11.92	11.49	11.67	11.87	12.20	12.05	11.87	11.99	11.92	12.31	12.36	11.63	11.96	11.21	11.48	11.13	11.00	11.21	11.05	11.57	11.44	11.68	11.59	12.04
435.0	1399	736.2	661.5	674.2	813.0	1032	1292	1510	1670	1750	1815	1782	1716	1659	1588	1502	1453	1415	1375	1363	1360	1355	1349	1333	1315	1247	1181	1101	1019	901.8	754.3	634.0	526.6	416.9	332.1	273.9	227.4	192.2	194.1	374.5	1260	2556	9999.9	9999.9	9999.9	215.4	53.52	35.85	26.56	19.33	15.21	15.21	13.69	12.74	12.33	12.29	12.77	12.61	12.45	12.47	12.34	12.44	12.24	12.21	12.00	11.90	11.09	11.02	11.19	10.88	11.09	10.89	11.22	11.33	11.59	11.46	11.51
440.0	1675	829.6	626.9	663.1	800.0	1053	1302	1527	1655	1728	1784	1758	1669	1613	1539	1458	1415	1377	1352	1341	1336	1338	1341	1332	1317	1254	1193	1117	1035	919.7	770.6	640.0	555.4	454.8	362.4	298.0	244.4	205.4	180.5	198.3	379.8	668.2	3110	9999.9	9999.9	9999.9	161.7	49.25	31.99	23.42	18.09	16.97	14.50	13.84	13.34	13.41	13.47	13.00	12.56	12.94	12.84	12.72	12.42	12.19	12.35	11.80	11.33	11.32	11.26	11.00	10.95	10.91	10.78	10.73	11.15	11.10	11.46
445.0	1629	1012	598.1	641.3	775.9	1037	1311	1514	1626	1697	1742	1707	1623	1554	1483	1406	1365	1336	1317	1316	1311	1318	1316	1310	1298	1249	1184	1119	1043	927.6	780.1	647.0	556.2	479.5	385.2	315.1	260.0	218.1	185.4	167.6	189.8	243.5	791.8	4686	9999.9	9999.9	9963	125.0	40.86	27.31	21.88	19.29	15.79	14.40	14.13	13.65	13.68	13.96	13.55	13.00	12.81	12.68	12.83	12.49	11.89	11.80	10.96	11.09	11.00	10.90	10.60	10.46	10.49	11.31	10.64	10.87	10.57
450.0	1136	1309	666.9	613.4	755.5	1017	1283	1488	1579	1636	1675	1618	1534	1471	1387	1323	1286	1262	1248	1248	1247	1255	1267	1270	1254	1212	1152	1096	1023	911.1	778.2	650.5	553.5	479.4	412.1	338.8	278.1	236.8	199.4	171.2	157.5	153.2	265.4	1139	5113	9999.9	9999.9	8060	141.8	42.65	28.22	24.28	19.48	16.98	15.56	14.76	14.55	14.53	14.21	13.34	12.86	12.86	12.81	12.56	12.00	11.75	11.67	11.23	11.14	10.77	10.62	10.35	10.62	10.65	10.52	10.81	10.88
455.0	792.8	1182	941.3	601.1	737.0	981.5	1256	1441	1512	1557	1568	1512	1433	1353	1288	1227	1188	1169	1162	1161	1163	1177	1190	1193	1188	1152	1103	1050	981.6	884.7	757.4	640.1	548.2	468.1	415.0	362.0	300.3	250.8	211.9	181.7	156.1	138.5	150.0	332.6	1214	2541	9999.9	9999.9	9999.9	166.2	42.30	31.04	24.13	19.66	16.86	16.15	15.58	15.55	14.80	13.57	13.21	12.45	12.43	12.07	11.88	11.11	11.20	10.91	10.41	10.45	10.33	9.808	10.24	10.13	10.05	10.07	10.22
460.0	680.2	856.0	1238	631.5	706.3	948.6	1222	1397	1450	1481	1490	1422	1357	1271	1204	1155	1108	1094	1088	1085	1098	1107	1127	1132	1127	1098	1047	1006	945.6	856.6	735.1	629.6	537.6	462.9	404.4	366.3	311.0	258.8	219.5	188.5	162.6	138.4	126.7	153.3	341.2	640.1	2904	9999.9	9999.9	9999.9	137.5	42.24	29.20	23.23	19.80	17.26	17.21	16.07	15.32	14.23	13.61	12.88	12.23	12.11	11.57	11.32	10.93	10.65	10.28	10.33	10.24	9.859	10.14	9.871	9.679	9.830	9.845
465.0	615.0	636.9	1243	820.8	675.6	918.8	1173	1364	1393	1415	1408	1355	1270	1195	1133	1076	1050	1027	1019	1018	1023	1040	1048	1065	1065	1037	992.0	958.4	899.6	817.6	709.4	605.9	520.8	454.6	394.5	354.5	316.6	267.9	224.4	194.4	165.7	141.9	121.6	116.4	146.7	208.7	718.9	4149	9999.9	9999.9	8926	121.0	38.10	28.19	23.56	20.16	18.93	17.79	16.07	14.98	13.86	13.49	12.38	12.17	11.49	11.31	11.13	10.58	10.09	10.02	10.13	9.810	9.796	9.405	9.422	9.639	9.364
470.0	578.2	524.5	835.8	1289	727.6	863.8	1111	1275	1303	1308	1294	1242	1160	1090	1025	980.2	952.0	930.1	926.4	923.2	928.2	943.4	951.6	971.1	971.1	948.9	909.1	876.9	830.2	754.8	660.7	569.6	494.0	431.2	379.2	334.4	302.3	268.8	227.1	195.3	167.7	143.7	122.3	107.1	103.0	109.0	217.7	990.9	4658	9999.9	9999.9	7617	143.2	42.88	29.28	23.75	21.83	18.93	16.76	15.72	14.59	13.42	12.60	11.96	11.28	11.17	10.83	10.51	9.949	9.663	9.390	9.349	9.411	8.873	9.065	9.145	8.652
475.0	495.4	436.3	505.4	1350	1226	812.4	1042	1191	1180	1185	1167	1126	1048	986.6	921.9	881.7	853.0	833.0	834.4	825.0	825.6	840.2	859.4	870.4	876.4	855.0	824.7	796.6	757.6	692.1	609.7	527.2	460.7	407.0	356.8	318.2	282.6	258.4	231.6	195.4	166.5	143.6	122.0	104.8	92.48	83.72	100.8	267.6	1085	2418	9999.9	9999.9	9999.9	190.6	39.33	28.08	24.23	19.70	17.21	15.11	13.82	13.03	12.04	11.70	10.49	10.26	9.905	9.259	8.876	8.612	8.426	8.191	7.940	8.448	7.895	8.190	8.233
480.0	465.2	405.3	386.4	969.9	1931	885.9	991.2	1120	1117	1109	1097	1060	972.7	917.2	859.3	816.1	779.7	770.2	773.5	768.1	767.8	776.3	793.7	804.8	807.6	790.5	766.6	745.6	712.0	651.1	571.7	499.4	437.7	388.3	344.3	305.6	272.3	246.3	227.5	199.5	166.6	142.3	122.2	105.0	89.93	78.94	75.06	105.7	283.7	583.4	2694	9999.9	9999.9	9999.9	144.2	33.69	27.38	23.19	19.49	16.34	14.33	13.47	12.24	11.69	10.89	10.57	9.642	9.095	8.997	8.651	8.395	8.505	7.923	7.912	7.780	7.577	8.001
485.0	438.8	387.6	352.6	621.3	2296	1394	954.8	1068	1064	1037	1034	990.9	915.7	862.6	803.9	760.0	734.2	718.6	721.9	714.1	718.4	727.1	738.4	746.8	756.1	739.4	721.3	701.5	670.5	614.3	543.2	472.1	418.6	373.0	332.1	297.9	265.5	237.9	219.0	198.3	169.8	143.7	125.0	105.6	92.35	78.56	69.40	69.35	104.4	169.1	645.7	3522	9999.9	9999.9	1763	102.8	34.17	26.57	21.93	18.16	15.53	13.68	12.85	11.94	11.48	10.50	10.08	8.982	8.877	8.900	8.181	8.396	7.869	7.424	7.626	7.339	7.978
490.0	404.2	364.2	323.1	416.4	1677	3094	1179	1004	996.7	975.2	959.6	916.1	844.1	796.2	737.7	696.2	670.9	654.5	654.5	650.0	654.3	660.4	672.0	687.3	692.0	684.0	661.6	642.2	616.2	570.5	507.7	445.9	394.4	352.7	314.7	285.0	256.1	230.7	208.8	191.5	173.2	147.8	126.3	108.0	94.60	82.56	70.38	62.50	64.02	73.86	179.6	830.2	4073	9999.9	9999.9	7872	152.1	39.50	26.91	21.69	18.10	15.22	13.56	12.23	11.48	10.40	9.838	9.333	8.545	8.397	8.185	7.977	7.645	7.528	7.493	7.082	7.339
495.0	355.5	323.5	305.0	346.0	792.2	3965	2769	944.1	913.8	898.0	879.5	830.0	771.2	723.0	669.5	625.5	599.7	594.4	583.5	580.9	584.2	592.1	601.2	615.5	621.3	615.1	598.9	582.1	561.0	522.1	467.1	412.4	366.3	328.4	294.4	268.5	242.1	220.2	200.0	181.0	168.7	151.2	128.2	110.9	97.03	84.87	73.66	62.56	55.73	53.69	73.99	218.2	943.9	2389	9999.9	9999.9	9999.9	209.4	38.85	26.57	20.43	17.06	14.67	12.56	11.94	10.47	10.09	9.259	8.614	8.536	8.047	7.480	7.162	7.459	7.158	6.867	7.032
500.0	340.0	308.4	276.5	305.7	488.8	2976	5271	1157	846.3	836.1	818.4	770.4	716.9	665.9	611.8	573.6	554.2	540.9	535.6	531.3	533.1	538.6	547.1	557.6	569.3	562.0	547.3	537.3	517.7	481.2	433.3	384.4	343.3	308.5	277.6	254.4	229.7	209.3	190.9	174.2	158.8	147.7	129.7	112.2	97.72	85.38	74.94	63.32	55.07	48.86	49.63	80.25	241.7	571.4	2720	9999.9	9999.9	9999.9	162.9	33.45	23.65	19.17	15.75	13.35	11.87	10.51	9.930	8.940	8.324	8.024	7.861	7.522	6.866	6.799	6.822	6.722	6.462
505.0	320.0	269.5	255.4	288.8	398.5	1557	7064	2352	795.4	771.8	746.7	713.3	661.3	610.6	562.9	529.6	513.6	493.0	492.0	484.7	485.6	491.8	500.4	510.7	518.0	514.8	503.4	496.0	476.8	443.7	399.0	358.7	321.0	288.7	261.4	239.3	218.7	202.6	182.3	167.4	151.2	140.9	129.4	112.8	96.77	84.52	75.35	63.82	55.53	47.27	43.71	48.80	83.32	158.9	647.7	3433	9999.9	9999.9	9874	109.9	29.25	21.11	17.29	14.18	12.12	10.73	9.712	9.096	8.264	7.739	7.607	6.994	6.781	6.550	6.493	6.145	6.435
510.0	293.6	233.0	224.6	264.9	347.9	730.2	5015	6916	1188	694.9	676.9	640.7	587.5	544.8	501.6	469.4	449.0	437.6	435.3	432.7	427.6	431.1	441.0	450.7	456.1	455.4	446.1	436.9	422.3	397.9	359.9	321.4	290.1	261.1	235.7	218.3	200.7	186.1	169.0	155.7	140.5	129.4	120.3	109.6	95.94	83.96	73.36	64.35	55.04	47.44	41.43	39.84	45.51	63.05	172.9	803.4	3778	9999.9	9999.9	8565	150.7	29.47	20.49	16.31	13.02	11.22	9.909	9.034	8.262	7.445	7.089	6.756	6.233	6.250	6.044	5.765	6.008
515.0	257.6	216.5	196.8	241.5	298.7	474.6	1856	9450	4184	641.5	602.1	562.4	524.6	474.9	442.2	406.5	390.7	382.2	375.7	370.1	369.1	373.1	382.3	387.4	394.9	393.4	389.4	380.2	369.1	350.0	319.8	284.0	261.6	232.4	214.0	196.1	181.9	167.4	152.8	141.2	130.0	118.1	109.9	104.6	96.34	81.05	70.97	62.63	54.35	46.17	40.83	36.56	35.20	39.06	62.30	204.5	871.3	2348	9999.9	9999.9	9999.9	208.3	29.88	20.11	15.07	12.46	10.69	9.335	7.937	7.560	6.718	6.649	6.153	6.145	5.694	5.486	5.374
520.0	231.6	193.1	177.4	219.1	281.4	388.7	812.7	6792	9061	950.0	545.0	512.6	475.7	433.7	395.7	364.0	353.5	342.4	337.8	333.0	332.4	332.6	341.0	348.3	353.7	352.6	350.5	344.9	331.3	314.0	288.9	259.1	235.7	212.9	194.1	181.0	168.0	154.1	140.3	131.0	121.3	111.4	102.3	97.45	92.43	80.17	68.67	60.23	52.36	45.57	39.65	36.12	32.03	31.96	36.51	68.35	218.9	554.2	2534	9999.9	9999.9	9999.9	164.4	25.63	17.64	13.85	11.53	9.628	8.201	7.579	7.058	6.325	6.101	5.575	5.264	5.361	4.918
525.0	214.4	174.5	165.0	187.4	272.3	348.6	529.6	3143	9999.9	2124	498.9	477.2	429.5	393.6	362.4	334.6	322.0	310.0	304.7	300.6	299.5	299.1	307.9	315.7	314.3	317.4	315.1	307.3	301.8	287.3	262.8	237.3	215.2	194.4	180.5	165.7	155.1	143.9	133.0	122.8	113.5	103.5	95.07	88.46	85.58	78.26	67.47	57.72	50.24	43.89	38.56	34.53	30.43	29.35	28.81	36.74	69.98	147.2	596.8	2992	9999.9	9999.9	9728	36.28	22.42	15.63	11.91	10.23	8.886	7.672	6.947	6.163	5.925	5.347	5.038	5.202	5.052
530.0	200.3	158.2	149.8	159.1	235.9	323.1	425.9	1112	8201	9664	960.1	420.9	379.3	350.0	316.6	292.5	280.9	271.5	265.7	262.3	258.3	260.2	265.4	269.8	274.5	276.5	273.5	266.8	261.2	249.9	230.8	208.6	188.8	173.4	160.6	147.9	137.7	127.6	119.4	111.8	102.4	93.73	86.94	80.39	76.65	71.89	64.49	55.48	46.76	41.60	36.71	32.44	29.43	27.72	25.65	26.95	34.31	52.07	154.3	694.6	3138	9999.9	9999.9	8770	141.7	23.78	14.69	11.66	9.607	8.431	7.138	6.135	5.854	5.217	5.057	4.900	4.713
535.0	185.7	128.8	127.8	137.4	193.5	290.3	365.0	545.0	2742	9999.9	4612	393.1	334.8	305.5	277.9	254.0	240.7	231.8	230.0	227.3	223.1	223.7	224.1	229.2	235.1	234.9	232.4	229.1	223.0	216.1	199.0	182.0	165.8	149.4	139.9	127.8	119.9	111.7	105.5	99.41	91.21	83.52	78.53	71.74	67.26	62.81	60.24	52.66	44.33	38.86	33.97	30.59	27.43	25.47	24.43	22.98	23.71	27.86	51.13	172.4	719.7	2294	8496	9999.9	9999.9	216.1	23.12	14.62	10.91	9.360	7.721	6.565	6.149	5.632	4.904	4.787	4.334
540.0	188.7	129.5	107.8	128.7	166.3	273.1	327.6	393.0	919.1	8686	9999.9	617.6	302.4	269.3	245.3	223.1	213.9	204.9	200.5	198.0	196.5	197.8	197.4	202.7	204.2	206.4	202.9	201.4	196.1	191.2	175.2	160.8	147.4	135.3	124.4	114.8	108.2	102.8	94.41	88.57	83.09	75.22	71.38	65.72	61.43	57.54	54.44	49.83	43.07	37.05	32.33	28.68	26.13	24.36	22.49	21.24	20.93	21.06	25.95	53.76	177.4	532.5	2041	9999.9	9999.9	9999.9	37.01	19.51	13.00	10.23	8.305	7.189	6.025	5.313	4.884	4.417	4.061
545.0	179.5	125.5	98.68	111.9	146.9	239.9	309.2	339.8	459.9	3831	9999.9	1553	275.2	241.7	216.5	198.6	188.8	183.1	178.6	174.5	173.8	173.1	175.5	177.1	180.3	181.3	180.7	179.5	174.6	168.5	155.6	144.1	131.5	120.8	111.5	103.7	98.38	92.44	85.34	79.80	74.63	69.11	64.57	60.18	56.41	52.65	49.01	45.81	41.05	34.97	29.82	26.86	24.04	21.84	20.93	19.66	19.50	18.42	18.98	25.61	53.32	134.7	477.0	2605	9999.9	9999.9	2021	34.30	16.89	11.41	8.746	7.381	6.508	5.523	5.131	4.160	4.083
550.0	185.4	117.1	88.46	97.06	125.2	190.2	282.2	290.2	323.0	1162	9078	9473	556.5	206.1	186.3	170.4	158.3	152.7	150.8	144.6	144.6	144.2	144.9	148.8	150.3	152.2	151.4	149.9	147.4	140.7	131.3	120.9	109.7	102.2	95.60	89.66	84.28	78.69	73.68	68.97	64.80	60.31	55.77	52.78	49.40	45.75	41.60	39.17	36.01	31.87	26.97	23.98	21.47	20.06	18.95	18.21	17.41	16.39	15.77	16.91	23.58	42.13	120.0	599.2	2689	9943	9999.9	8854	145.0	18.61	11.05	8.259	6.678	5.865	5.119	4.378	4.154
555.0	160.8	111.9	72.23	82.07	102.5	153.1	233.6	263.4	261.2	447.1	2817	9999.9	3423	188.0	155.9	140.9	132.2	126.1	122.5	116.9	117.6	117.3	120.1	120.2	122.2	122.8	121.9	121.4	119.0	117.5	109.1	98.93	91.33	85.12	78.29	72.85	70.39	65.12	61.39	57.28	54.30	51.29	46.41	44.35	41.61	39.01	35.50	32.86	30.26	28.28	24.93	21.77	18.92	17.45	16.61	15.96	15.19	14.58	13.67	12.95	14.41	19.56	37.13	145.0	613.2	2248	5471	9999.9	9999.9	226.9	17.26	10.35	7.389	6.122	5.321	4.543	4.171
560.0	160.8	109.2	70.81	71.54	88.98	131.5	191.9	254.0	229.3	279.1	837.8	9187	9520	331.6	137.2	121.9	110.6	107.7	102.1	99.84	99.69	99.00	100.5	100.8	103.3	104.4	102.6	103.5	101.7	98.74	93.07	84.50	78.14	72.37	67.42	62.36	60.04	55.26	53.15	48.89	46.02	43.64	40.60	39.18	36.05	34.05	31.48	28.34	25.87	24.61	22.96	19.94	17.10	15.86	14.94	14.37	13.91	13.08	12.19	11.73	11.59	12.76	17.45	41.64	147.3	514.5	1286	7170	9999.9	9999.9	36.32	13.84	8.453	7.043	5.451	4.604	4.120
565.0	177.9	102.6	66.13	64.05	78.19	116.9	167.4	237.2	231.7	243.6	360.0	3860	9999.9	1065	123.8	107.2	96.61	92.56	89.26	87.66	84.37	84.56	85.97	87.68	88.61	88.02	87.67	88.40	87.20	84.53	78.02	72.41	67.28	61.61	57.98	53.96	51.20	49.26	46.30	43.56	39.99	37.76	36.96	34.23	31.71	29.39	27.94	25.16	22.74	21.25	20.69	18.53	15.84	14.29	13.44	13.06	12.21	11.90	11.43	10.67	9.887	9.950	11.14	17.51	41.76	125.3	300.4	1736	8941	9999.9	2092	32.57	11.09	7.715	5.629	4.647	4.173
570.0	186.0	99.03	67.16	62.19	71.94	97.50	143.8	208.8	238.3	238.6	272.0	1135	9032	8651	337.0	93.26	81.60	77.33	74.59	72.17	69.94	69.74	69.77	70.81	71.47	71.53	71.85	70.58	69.81	68.00	64.09	59.03	54.37	50.93	48.61	44.88	42.56	40.25	38.08	36.26	33.80	31.55	29.87	28.31	26.92	25.20	22.90	20.92	19.08	17.41	16.81	15.94	14.17	12.79	11.86	11.38	10.83	10.46	9.815	9.259	9.259	8.749	9.077	10.88	16.31	36.06	75.95	397.9	2143	6883	9999.9	8523	147.1	14.68	7.280	5.233	4.348
575.0	188.3	112.8	70.16	52.70	62.55	85.05	119.8	175.8	251.1	266.3	292.1	478.8	2779	9999.9	2946	88.66	69.77	64.59	60.39	59.40	57.39	56.22	55.42	56.39	56.73	56.21	57.68	56.64	56.54	55.71	53.64	47.66	44.48	42.09	39.52	36.31	34.69	33.25	31.27	28.92	27.66	27.17	24.84	23.49	21.84	20.88	19.36	17.79	16.12	14.82	13.86	13.17	12.36	11.51	10.16	9.959	9.287	8.922	8.290	8.227	8.187	8.338	7.752	8.158	9.830	14.74	23.86	96.14	485.4	1546	3367	9999.9	9999.9	241.6	13.18	6.667	4.800
580.0	206.3	127.8	79.03	57.07	59.61	77.72	115.2	169.8	250.4	306.2	336.5	380.6	863.1	8624	7835	120.3	63.95	56.77	52.16	50.57	48.49	47.79	46.64	48.16	47.95	48.18	48.53	47.79	48.22	46.65	44.34	40.69	38.72	35.66	33.50	30.61	30.12	28.06	26.54	25.08	23.82	22.76	21.77	20.64	18.50	18.19	17.29	15.62	14.02	12.95	12.07	11.32	11.25	10.68	9.636	8.922	8.605	7.854	7.732	7.157	7.126	7.201	7.610	7.359	7.687	9.424	11.17	27.98	114.8	352.6	771.0	4081	9999.9	8773	36.74	9.677	5.738
585.0	218.8	139.7	79.10	58.70	54.36	70.86	111.5	166.8	251.2	348.3	378.7	386.9	433.3	3517	9999.9	742.1	58.73	51.07	46.21	44.49	43.59	41.97	40.58	41.95	42.15	41.72	42.01	42.57	40.96	40.45	38.78	35.97	33.73	31.22	29.08	27.27	26.75	25.04	23.99	22.60	20.88	20.17	18.89	18.37	17.12	16.02	15.29	14.02	12.45	11.53	10.79	9.782	9.653	9.600	9.030	8.008	7.928	7.434	7.197	6.711	6.555	6.611	6.776	7.059	6.855	7.629	7.940	12.16	31.51	85.03	179.8	946.5	4948	9999.9	2142	33.04	7.851
590.0	218.5	148.6	87.73	55.93	52.65	66.87	104.6	161.2	244.2	368.5	427.4	422.3	362.5	1021	8345	7398	203.9	44.59	39.99	38.30	35.67	34.80	34.63	35.36	34.68	34.68	34.71	34.56	34.00	32.74	32.45	29.90	27.73	25.98	24.48	23.02	22.20	21.13	20.36	19.17	17.58	16.66	15.89	15.34	14.49	13.74	12.93	11.86	10.70	9.836	9.155	8.172	8.048	8.245	8.021	7.600	7.171	6.484	6.064	5.996	6.038	5.938	6.110	6.384	6.434	6.731	6.693	7.729	12.16	24.25	45.69	217.3	1145	4255	9075	6156	782.7
595.0	207.5	156.8	89.81	50.82	47.18	63.07	95.56	154.6	238.1	354.9	461.2	452.7	370.4	395.6	2421	9999.9	2131	44.64	36.29	32.15	30.04	28.46	28.75	29.51	29.02	28.69	28.82	28.89	27.67	27.46	26.48	24.44	22.47	21.30	20.36	19.59	18.29	17.56	16.42	15.24	14.21	14.34	13.42	12.71	12.33	11.49	11.28	10.03	9.112	8.389	7.788	7.043	6.832	6.906	6.647	6.805	6.600	5.897	5.438	5.313	5.453	5.408	5.734	5.575	5.803	6.224	6.314	6.264	7.149	9.715	14.32	52.76	260.0	953.6	2410	7703	8433
600.0	211.1	156.1	93.23	52.08	43.53	55.75	87.42	144.6	232.3	353.7	478.8	464.4	370.7	258.3	643.5	7863	5933	80.77	33.68	30.29	26.59	25.55	25.24	25.48	25.03	24.91	24.70	24.27	24.46	23.98	23.49	21.34	20.30	19.22	17.62	16.89	16.31	15.08	13.97	13.25	12.53	12.39	11.64	11.29	10.66	10.25	9.748	8.984	8.264	7.567	7.120	6.180	5.773	5.796	6.215	6.199	6.082	5.664	5.351	4.952	5.002	4.947	5.126	5.117	5.716	5.824	5.863	5.373	5.717	6.252	7.224	15.75	61.76	216.7	545.3	2432	8960
605.0	230.0	157.4	92.97	54.17	42.80	51.86	82.56	140.2	222.7	344.8	463.3	470.8	367.7	229.5	213.3	3132	9999.9	539.9	31.34	27.31	24.60	22.59	22.79	22.59	22.18	21.83	20.87	21.80	22.20	21.09	19.93	19.56	17.84	16.79	16.01	15.31	14.20	13.24	12.47	11.90	11.13	10.91	10.55	10.17	9.204	9.123	8.681	7.716	7.118	6.849	6.247	6.005	5.217	5.341	5.185	5.664	5.590	5.387	4.982	4.604	4.602	4.758	4.781	4.821	5.068	5.173	5.519	5.454	5.157	5.079	5.181	7.045	17.14	51.85	126.0	554.8	3177
610.0	206.1	151.4	85.74	52.61	40.37	47.43	79.54	128.7	207.7	318.0	428.7	461.3	359.9	216.3	113.8	803.8	7388	5824	63.11	25.42	22.24	20.77	19.57	19.09	18.87	18.63	18.52	18.57	18.61	17.93	17.12	16.31	15.10	14.75	14.13	13.37	12.44	11.55	10.62	9.934	9.291	9.277	8.634	8.470	7.879	7.915	7.492	6.938	6.327	5.905	5.374	5.105	4.669	4.614	4.488	4.716	4.888	4.898	4.563	4.250	4.092	4.436	4.289	4.276	4.485	4.758	4.937	4.998	4.516	4.409	4.351	4.501	6.567	14.33	31.17	127.2	721.4
615.0	190.0	145.3	85.45	50.95	35.73	40.09	71.13	119.7	189.4	288.4	390.7	435.2	347.1	202.2	87.14	211.2	2138	9701	606.3	27.61	20.41	18.74	17.71	16.71	15.90	15.82	15.68	15.81	15.54	15.78	14.85	13.72	12.77	12.11	11.98	11.34	10.85	10.25	9.280	8.593	8.207	7.963	7.216	7.267	6.892	6.656	6.685	6.051	5.357	4.983	4.598	4.378	4.152	4.301	3.854	4.041	4.162	4.155	4.167	3.920	3.879	3.875	3.979	3.921	3.978	4.090	4.372	4.476	4.175	4.101	3.935	3.534	3.884	5.460	9.335	30.73	163.5
620.0	179.6	124.0	79.94	51.14	32.04	41.34	64.98	110.6	177.4	271.6	367.1	402.4	338.1	191.1	79.01	76.19	537.3	7100	4551	56.82	20.59	18.19	16.43	15.22	14.51	14.15	13.83	14.14	13.40	14.04	12.93	12.73	11.65	10.91	10.51	10.31	9.327	8.934	8.389	7.461	7.188	6.613	6.555	6.464	6.188	5.819	5.795	5.535	5.108	4.608	4.211	4.047	3.679	3.757	3.573	3.657	3.831	3.791	3.852	3.660	3.631	3.603	3.842	3.991	3.856	3.759	4.178	3.937	3.909	3.913	3.535	3.031	2.949	3.141	4.126	9.035	38.66
625.0	153.6	125.8	75.46	46.50	33.03	41.32	58.30	102.3	168.1	250.3	337.0	368.5	320.6	185.6	74.65	45.58	144.2	2940	9069	396.3	21.51	17.62	16.06	14.30	14.03	13.09	12.34	13.00	12.32	13.11	11.77	11.55	10.43	10.13	9.455	9.353	8.279	8.065	7.616	6.820	6.430	6.032	5.749	6.019	5.425	5.453	5.060	4.871	4.568	4.306	3.703	3.701	3.332	3.288	3.337	3.209	3.499	3.292	3.649	3.510	3.465	3.484	3.504	3.598	3.711	3.511	3.667	3.610	3.704	3.207	3.172	2.913	2.674	2.498	2.744	3.858	10.49
630.0	147.8	110.8	67.56	40.80	31.05	36.70	54.07	94.91	150.8	225.9	299.2	327.3	284.8	175.5	71.14	37.16	52.44	749.9	6968	4602	47.22	17.52	15.12	13.52	12.84	11.72	11.72	11.51	11.53	11.00	10.55	10.17	9.597	9.147	8.504	8.326	7.721	7.341	6.735	6.108	5.942	5.642	5.088	5.043	4.684	4.648	4.461	4.341	3.964	3.757	3.461	3.209	3.082	3.095	3.050	3.013	3.127	3.035	2.991	3.080	3.006	3.129	3.212	3.240	3.325	3.322	3.337	3.422	3.239	2.856	2.813	2.574	2.298	2.062	2.179	2.221	3.855
635.0	127.4	104.6	64.61	35.60	27.18	30.42	49.96	87.46	133.6	197.3	261.7	286.1	249.9	173.5	70.21	34.56	30.52	185.1	2119	8649	505.7	19.55	14.04	12.41	11.82	11.25	10.10	9.846	10.16	9.901	9.603	9.162	8.352	8.392	8.170	7.472	7.267	6.664	6.008	5.481	5.605	5.159	4.810	4.313	4.337	4.168	3.976	3.875	3.524	3.269	2.944	3.027	2.897	2.725	2.568	2.796	2.816	2.945	2.715	2.768	3.056	2.857	3.065	3.010	2.993	3.156	3.124	2.908	2.953	2.820	2.523	2.354	2.223	1.984	1.882	1.697	2.206
640.0	108.9	93.17	62.67	38.31	28.54	31.35	47.46	78.41	118.5	183.1	244.6	261.0	225.5	157.6	70.15	32.97	24.62	58.11	532.2	6973	3713	40.44	15.77	12.25	11.40	10.15	9.794	9.586	9.664	9.380	9.016	8.468	8.336	8.186	8.140	7.232	6.753	6.227	5.689	5.342	4.826	4.714	4.250	4.127	3.966	3.908	3.873	3.675	3.485	3.108	2.916	2.785	2.723	2.467	2.464	2.515	2.738	2.675	2.705	2.518	2.728	2.595	2.784	2.872	2.919	2.943	2.846	2.872	2.701	2.647	2.434	2.168	2.044	1.917	1.862	1.542	1.681
645.0	110.5	88.73	59.63	39.09	28.17	30.23	43.87	71.33	112.7	167.6	218.9	238.4	206.4	146.1	74.47	32.51	22.53	27.82	136.9	3178	7687	291.4	16.64	12.56	11.53	9.923	9.213	9.044	8.778	8.947	8.631	8.096	7.803	7.725	7.655	7.404	6.655	5.906	5.250	5.122	4.594	4.389	4.125	3.653	3.436	3.785	3.622	3.445	3.091	2.793	2.615	2.591	2.477	2.409	2.286	2.440	2.805	2.495	2.415	2.517	2.441	2.320	2.414	2.860	2.613	2.761	2.630	2.665	2.446	2.531	2.012	2.051	1.830	1.778	1.638	1.522	1.446
650.0	100.3	81.19	55.42	31.41	26.28	29.35	42.90	68.94	108.2	156.5	201.9	218.0	192.5	132.7	75.70	33.67	21.68	20.14	44.97	915.7	8161	2013	21.13	12.66	11.97	10.12	9.131	9.322	8.505	8.838	8.289	7.683	7.611	7.292	7.071	6.908	6.513	5.741	5.220	5.039	4.326	4.151	3.808	3.796	3.406	3.534	3.438	3.371	2.853	2.801	2.518	2.429	2.290	2.439	2.237	2.513	2.608	2.507	2.321	2.357	2.245	2.114	2.290	2.652	2.564	2.565	2.627	2.445	2.235	2.137	1.971	1.849	1.761	1.530	1.729	1.548	1.414
