Sample:	'1
File name:	Default_20230207_152037.FD3
Run date:	'15:14:17, 02/07/2023
Operator:	user
Comment:	'

Instrument
Model:	F-2700 FL Spectrophotometer
Serial number:	2190-003
ROM Version:	4J14000 07

Instrument parameters
Measurement type:	3-D scan
Data mode:	Fluorescence
EX  Start WL:	220.0 nm
EX  End WL:	600.0 nm
EX Sampling interval:	5.0 nm
EM  Start WL:	230.0 nm
EM  End WL:	650.0 nm
EM Sampling interval:	5.0 nm
Scan speed:	12000 nm/min
EX Slit:	5.0 nm
EM Slit:	5.0 nm
PMT Voltage:	700 V
Response:	Auto 
Corrected spectra:	Off
Contour interval:	50.000

Peak integration
Integration method:	Rectangular
Sensitivity:	1
Threshold:	1.000

Peaks
No.	ApexEX/EM(nm)	Height(Data)
1	245.0/265.0	48.24
2	245.0/365.0	620.5
3	245.0/530.0	-70.96
4	250.0/545.0	-59.89
5	255.0/555.0	-29.73
6	260.0/425.0	209.5
7	265.0/575.0	70.85
8	270.0/295.0	 2190
9	270.0/440.0	208.2
10	270.0/590.0	104.4
11	275.0/300.0	 2110
12	275.0/445.0	207.9
13	275.0/595.0	91.49
14	275.0/605.0	91.67
15	280.0/425.0	205.7
16	280.0/435.0	203.8
17	285.0/380.0	237.3
18	285.0/395.0	223.6
19	285.0/565.0	 1092
20	285.0/630.0	-17.04
21	290.0/425.0	205.3
22	290.0/640.0	-10.23
23	295.0/390.0	227.5
24	295.0/540.0	-5.023
25	300.0/335.0	331.8
26	300.0/400.0	222.3
27	305.0/340.0	351.8
28	310.0/345.0	318.9
29	315.0/350.0	255.4
30	320.0/360.0	264.8
31	325.0/290.0	-15.21
32	325.0/365.0	274.5
33	330.0/370.0	233.5
34	335.0/380.0	240.4
35	340.0/385.0	245.3
36	345.0/255.0	-11.66
37	345.0/390.0	209.8
38	350.0/235.0	-12.24
39	350.0/395.0	202.2
40	355.0/240.0	-11.56
41	355.0/260.0	-11.63
42	355.0/405.0	195.5
43	360.0/250.0	-11.12
44	360.0/295.0	-11.00
45	360.0/410.0	179.1
46	360.0/595.0	-7.799
47	365.0/415.0	175.1
48	370.0/425.0	168.4
49	375.0/430.0	146.9
50	380.0/335.0	-8.580
51	380.0/435.0	135.0
52	380.0/580.0	-4.472
53	385.0/445.0	124.1
54	400.0/465.0	69.14
55	405.0/625.0	-6.055
56	410.0/280.0	-6.844
57	410.0/475.0	43.45
58	415.0/335.0	-6.417
59	415.0/485.0	36.37
60	420.0/490.0	27.80
61	425.0/325.0	-5.818
62	425.0/500.0	21.92
63	430.0/505.0	19.45
64	435.0/510.0	14.05
65	440.0/515.0	11.81
66	445.0/525.0	9.299
67	450.0/320.0	-4.927
68	450.0/530.0	6.388
69	455.0/535.0	4.574
70	460.0/545.0	2.738
71	465.0/550.0	1.467
72	480.0/375.0	-3.408
73	485.0/360.0	-3.585
74	490.0/365.0	-3.653
75	500.0/605.0	-4.855
76	510.0/345.0	-4.151
77	535.0/295.0	-0.983
78	545.0/300.0	-0.834
79	550.0/305.0	-1.790
80	550.0/585.0	-4.809
81	555.0/310.0	-2.639
82	560.0/240.0	-5.620
83	565.0/245.0	-5.587
84	575.0/425.0	-5.167

Data points
	220.0	225.0	230.0	235.0	240.0	245.0	250.0	255.0	260.0	265.0	270.0	275.0	280.0	285.0	290.0	295.0	300.0	305.0	310.0	315.0	320.0	325.0	330.0	335.0	340.0	345.0	350.0	355.0	360.0	365.0	370.0	375.0	380.0	385.0	390.0	395.0	400.0	405.0	410.0	415.0	420.0	425.0	430.0	435.0	440.0	445.0	450.0	455.0	460.0	465.0	470.0	475.0	480.0	485.0	490.0	495.0	500.0	505.0	510.0	515.0	520.0	525.0	530.0	535.0	540.0	545.0	550.0	555.0	560.0	565.0	570.0	575.0	580.0	585.0	590.0	595.0	600.0
230.0	-546.4	-434.7	302.9	482.8	-160.0	-171.1	-152.5	-139.4	-119.5	-103.6	-91.25	-78.38	-63.34	-58.58	-46.82	-37.94	-31.33	-27.97	-24.09	-21.76	-19.53	-18.45	-16.34	-15.31	-14.79	-13.97	-12.82	-12.39	-12.89	-12.15	-11.75	-10.72	-10.28	-9.899	-9.093	-7.933	-8.131	-7.885	-7.572	-7.881	-6.958	-7.358	-6.843	-7.267	-6.750	-6.395	-5.738	-5.753	-4.580	-3.371	-4.503	-5.508	-5.548	-5.823	-5.736	-5.576	-6.117	-5.660	-6.015	-6.273	-6.153	-6.139	-6.224	-6.458	-6.435	-6.531	-6.239	-6.569	-6.609	-6.432	-6.791	-6.748	-6.741	-7.036	-6.785	-6.716	-7.200
235.0	-589.4	-453.6	-77.90	 1437	888.8	-109.5	-140.3	-142.4	-123.1	-109.8	-90.89	-84.56	-66.31	-58.64	-43.70	-37.38	-32.42	-26.37	-23.95	-22.43	-19.00	-19.03	-16.20	-15.71	-14.63	-14.45	-12.24	-13.32	-12.29	-12.33	-12.01	-10.37	-9.404	-9.604	-8.777	-8.518	-8.066	-8.248	-8.469	-7.795	-7.630	-7.599	-7.459	-7.481	-6.721	-6.037	-5.504	-5.631	-5.594	-3.394	-3.208	-3.378	-4.680	-5.803	-5.846	-5.274	-5.604	-5.884	-5.608	-6.446	-6.068	-6.702	-6.098	-6.254	-6.478	-6.334	-6.348	-6.639	-5.898	-6.263	-6.809	-6.717	-5.819	-6.704	-7.150	-6.739	-7.430
240.0	-645.1	-422.8	-268.8	602.0	 2137	782.1	-109.3	-138.4	-122.4	-115.8	-90.19	-81.82	-72.88	-58.14	-44.41	-39.55	-32.51	-26.65	-25.76	-23.90	-21.51	-18.36	-14.75	-15.64	-14.77	-12.61	-12.95	-11.56	-12.86	-12.36	-10.89	-11.07	-9.996	-9.021	-8.685	-8.487	-8.310	-7.791	-7.673	-7.392	-7.410	-6.874	-6.890	-7.176	-6.586	-6.316	-5.642	-5.818	-5.620	-4.223	-3.781	-3.031	-1.695	-2.816	-4.735	-5.801	-5.714	-6.025	-6.163	-6.476	-6.100	-5.939	-6.311	-6.032	-6.837	-6.359	-6.845	-6.210	-5.620	-6.378	-7.046	-6.913	-6.626	-6.421	-7.359	-6.662	-7.515
245.0	-612.0	-386.1	-339.9	-65.10	 1244	 2354	649.8	-125.2	-110.9	-106.9	-98.86	-77.92	-70.05	-59.50	-48.63	-35.34	-33.66	-26.73	-26.60	-22.01	-20.27	-16.99	-15.80	-14.90	-14.56	-14.15	-12.57	-12.72	-12.90	-12.29	-10.31	-10.27	-9.912	-9.356	-8.995	-7.992	-8.591	-8.364	-8.057	-7.471	-7.203	-7.488	-6.568	-6.883	-5.760	-6.503	-5.858	-5.965	-5.579	-4.573	-4.649	-4.670	-3.471	-0.665	-0.422	-2.809	-6.068	-6.008	-6.612	-6.230	-5.656	-6.012	-6.656	-6.324	-6.424	-6.359	-6.813	-6.746	-6.100	-5.587	-6.673	-6.539	-6.755	-6.832	-6.863	-7.242	-7.032
250.0	-601.1	-416.1	-321.3	-158.7	166.0	 1265	 2226	 1095	101.8	-97.05	-91.58	-78.86	-68.56	-53.79	-45.70	-38.97	-30.03	-27.65	-25.51	-21.97	-19.85	-17.85	-17.54	-15.00	-14.39	-12.83	-13.69	-12.72	-11.12	-12.59	-11.89	-10.45	-10.34	-9.845	-9.095	-7.801	-7.999	-7.863	-7.829	-6.870	-7.176	-7.674	-7.384	-6.478	-6.474	-6.389	-5.789	-5.775	-5.250	-4.533	-4.894	-5.166	-5.105	-4.251	-2.495	-0.234	-0.027	-1.187	-3.957	-5.665	-6.170	-6.199	-6.628	-6.256	-6.618	-6.460	-6.484	-6.750	-6.421	-6.792	-6.929	-6.740	-6.872	-7.041	-6.691	-7.050	-7.070
255.0	-531.8	-470.6	-300.5	-139.1	-34.18	150.6	821.7	 3219	 1604	120.6	-85.54	-79.83	-68.61	-47.51	-42.26	-39.04	-28.69	-29.32	-27.37	-23.92	-20.64	-16.46	-16.43	-15.49	-15.51	-11.66	-12.70	-12.59	-11.82	-11.77	-11.16	-11.35	-10.19	-9.833	-9.249	-8.489	-8.277	-8.262	-7.512	-7.709	-7.520	-7.563	-7.221	-6.374	-6.833	-6.851	-5.855	-5.643	-5.178	-4.518	-4.474	-5.110	-5.635	-5.257	-5.125	-4.376	-4.057	-0.687	3.265	2.066	-2.866	-6.073	-5.998	-6.526	-5.947	-6.252	-6.291	-6.703	-6.757	-6.909	-6.719	-6.997	-6.891	-6.791	-6.697	-6.996	-6.986
260.0	-487.1	-447.5	-355.4	-180.5	18.98	-42.27	100.8	 1461	 4075	 1332	15.55	-74.57	-63.40	-53.74	-42.42	-38.65	-34.61	-29.03	-26.28	-22.41	-19.80	-19.52	-17.37	-14.84	-14.24	-12.78	-13.59	-11.63	-12.94	-13.06	-11.57	-11.53	-9.574	-9.736	-8.502	-7.881	-8.476	-7.972	-6.997	-7.739	-7.014	-7.013	-7.299	-6.521	-7.156	-6.771	-5.934	-5.700	-5.529	-4.890	-4.104	-5.311	-5.016	-5.319	-5.201	-5.230	-5.201	-4.941	-1.963	3.097	5.888	1.355	-4.054	-6.407	-6.034	-6.529	-6.621	-6.977	-6.802	-6.359	-5.988	-6.435	-7.028	-6.635	-6.717	-6.398	-7.583
265.0	-503.2	-412.2	-297.4	-242.3	-45.87	48.24	-75.08	275.4	 2214	 4950	 1061	-26.53	-60.27	-57.97	-42.80	-36.30	-32.85	-27.33	-22.01	-19.94	-19.51	-19.09	-15.40	-15.29	-13.22	-13.04	-13.23	-12.36	-12.57	-12.76	-11.63	-9.720	-10.17	-9.659	-8.581	-8.515	-8.166	-7.983	-7.789	-8.031	-7.213	-7.992	-6.855	-6.725	-6.912	-6.513	-6.055	-5.738	-5.319	-4.613	-4.279	-5.268	-5.080	-4.707	-5.030	-5.688	-5.982	-5.632	-4.877	-2.945	1.093	6.652	7.156	-0.847	-6.040	-6.475	-6.351	-6.605	-6.469	-6.657	-5.935	-6.931	-7.351	-6.548	-6.926	-7.001	-7.326
270.0	-531.6	-418.1	-318.8	-257.5	-148.4	22.81	92.89	11.03	478.1	 2298	 4666	 3179	223.7	-53.15	-40.69	-36.07	-30.87	-28.35	-22.40	-20.04	-19.82	-17.34	-15.66	-14.09	-13.45	-13.61	-11.88	-12.47	-12.45	-11.38	-12.24	-10.36	-9.850	-9.942	-8.763	-8.406	-8.097	-8.381	-7.585	-7.760	-6.987	-7.661	-7.168	-7.246	-6.432	-7.014	-5.884	-6.097	-5.486	-4.462	-4.506	-5.429	-5.032	-5.193	-4.970	-5.728	-5.683	-5.571	-5.528	-5.560	-4.379	-1.966	0.921	4.619	6.504	3.474	-1.994	-6.014	-6.407	-6.446	-6.434	-6.951	-6.865	-6.830	-6.961	-6.922	-7.349
275.0	-586.3	-427.3	-368.0	-235.2	-207.7	-105.8	101.2	238.7	137.5	570.6	 1639	 5670	 5008	259.5	-39.38	-33.69	-29.57	-27.99	-23.40	-21.36	-20.06	-17.62	-15.77	-13.99	-13.47	-14.41	-12.40	-11.66	-11.65	-11.42	-10.75	-10.60	-10.04	-9.639	-8.246	-8.349	-7.218	-7.970	-7.237	-7.133	-7.599	-7.648	-7.357	-7.393	-6.662	-6.473	-6.080	-5.834	-5.300	-4.631	-4.921	-6.166	-5.509	-5.527	-5.445	-6.143	-5.592	-4.914	-5.340	-5.651	-6.069	-4.803	-4.433	-2.971	-1.034	5.202	11.93	8.523	-1.008	-6.006	-6.746	-6.842	-6.764	-6.530	-6.844	-7.284	-7.478
280.0	-570.9	-465.1	-329.6	-258.2	-204.6	-136.9	2.932	390.8	391.4	449.4	754.2	 2587	 7318	 3872	79.55	-34.93	-27.78	-26.74	-25.67	-23.43	-18.65	-17.28	-16.60	-14.12	-14.13	-13.64	-12.14	-11.71	-11.84	-11.70	-10.76	-10.37	-9.846	-9.425	-9.967	-8.020	-7.938	-8.020	-6.844	-7.560	-7.000	-7.020	-7.924	-7.517	-7.002	-6.758	-5.840	-5.322	-5.107	-4.963	-5.109	-5.611	-5.499	-6.350	-5.604	-5.988	-5.838	-5.086	-4.747	-4.668	-6.053	-4.995	-5.052	-4.678	-4.288	-1.638	3.068	11.80	16.00	4.860	-4.396	-6.218	-6.838	-6.768	-7.036	-6.676	-7.057
285.0	-515.1	-396.4	-328.7	-217.3	-155.1	-98.97	-5.849	309.8	759.2	764.1	884.5	 1308	 3643	 7598	620.4	7.101	-26.56	-25.01	-24.14	-20.07	-18.98	-16.11	-15.75	-14.85	-15.46	-12.96	-12.35	-13.62	-11.92	-11.79	-10.92	-10.17	-9.219	-9.722	-8.793	-7.916	-8.033	-7.168	-7.801	-7.662	-7.569	-7.020	-6.820	-7.526	-6.600	-7.221	-5.955	-5.502	-5.279	-4.331	-4.654	-5.672	-4.924	-6.191	-5.684	-5.186	-5.924	-5.236	-4.980	-4.361	-4.093	-4.736	-5.039	-4.365	-3.870	-3.537	-2.616	0.044	7.553	15.89	11.88	0.427	-6.557	-6.434	-7.056	-7.098	-7.661
290.0	-499.5	-382.4	-291.4	-199.2	-141.4	-76.86	60.56	323.1	827.2	 1421	 1518	 1400	 1509	 3208	 5171	 2381	140.5	-22.50	-21.12	-19.46	-18.24	-15.21	-16.91	-14.93	-14.54	-13.62	-12.66	-12.45	-11.37	-11.72	-11.26	-10.00	-9.920	-9.031	-8.982	-7.985	-7.769	-8.005	-8.056	-7.889	-7.701	-7.030	-7.342	-7.475	-6.571	-6.436	-5.935	-6.008	-5.203	-4.611	-4.499	-5.096	-5.095	-5.656	-5.536	-5.502	-6.095	-5.291	-4.917	-4.712	-3.953	-3.253	-2.859	-2.085	-3.142	-3.110	-3.010	-3.046	-2.336	0.838	5.071	8.900	9.598	5.505	-2.701	-6.438	-7.511
295.0	-471.8	-382.1	-255.6	-207.4	-124.2	-41.65	104.1	395.8	829.6	 1497	 2190	 1798	 1143	926.8	 1567	 5107	 3479	185.4	-20.89	-20.18	-19.22	-16.48	-16.12	-14.13	-14.90	-11.77	-11.97	-12.15	-11.00	-12.21	-11.86	-10.53	-10.40	-8.919	-8.282	-8.039	-7.559	-7.457	-8.059	-8.238	-7.244	-6.990	-7.028	-7.564	-6.526	-5.913	-5.854	-5.519	-5.095	-4.461	-4.306	-5.282	-4.964	-5.011	-5.093	-6.106	-5.613	-5.574	-4.769	-4.533	-3.421	-3.115	-2.674	-0.983	-1.627	-2.421	-2.871	-3.673	-4.160	-4.053	-3.328	-3.557	-0.255	8.372	16.64	10.43	-2.904
300.0	-543.5	-366.8	-212.4	-171.5	-111.6	-29.15	112.7	401.3	814.7	 1425	 2083	 2110	 1140	431.6	410.4	 1883	 6239	 2712	90.23	-19.93	-16.49	-15.95	-15.00	-15.80	-14.94	-13.01	-11.48	-11.58	-11.32	-12.02	-12.21	-10.40	-8.680	-8.998	-8.129	-9.053	-7.742	-8.230	-8.259	-7.982	-7.398	-7.160	-6.698	-6.477	-6.753	-6.392	-5.689	-5.510	-4.756	-4.765	-4.489	-5.260	-5.107	-5.950	-5.166	-5.704	-5.954	-4.572	-4.471	-4.175	-3.877	-3.439	-2.968	-1.817	-1.470	-0.834	-1.992	-3.993	-4.806	-4.985	-5.319	-5.343	-5.628	-3.132	5.676	16.50	16.78
305.0	-553.7	-399.6	-159.2	-138.5	-87.29	-39.52	135.3	389.9	781.2	 1308	 1803	 2106	 1339	366.6	176.2	476.1	 2778	 6501	 1921	21.53	-15.50	-15.49	-15.11	-14.15	-13.24	-12.13	-12.49	-12.98	-12.40	-12.92	-11.97	-10.43	-9.913	-9.884	-8.645	-8.221	-8.415	-8.357	-7.837	-7.503	-7.485	-6.995	-6.861	-7.436	-6.633	-6.860	-5.847	-4.962	-4.713	-4.544	-4.656	-5.588	-4.802	-5.467	-5.295	-5.136	-5.620	-5.465	-4.619	-4.761	-3.795	-3.058	-3.392	-2.417	-2.447	-2.025	-1.790	-2.968	-4.549	-5.217	-5.611	-5.846	-6.291	-6.379	-3.674	0.085	9.715
310.0	-552.0	-319.3	-210.0	-152.7	-86.59	-42.09	124.9	337.4	693.4	 1081	 1465	 1566	 1319	596.7	170.0	162.7	674.7	 2680	 4889	 2600	99.90	-14.01	-14.14	-13.18	-13.45	-12.56	-12.45	-12.46	-11.64	-11.73	-11.51	-10.82	-10.40	-9.532	-8.200	-8.309	-8.163	-8.407	-7.428	-7.603	-7.072	-7.226	-7.176	-7.281	-6.748	-6.654	-6.166	-5.532	-4.888	-4.294	-4.818	-5.369	-4.966	-5.289	-5.179	-5.393	-5.305	-5.181	-5.040	-4.357	-3.848	-3.480	-3.331	-3.020	-3.282	-3.182	-2.696	-2.639	-3.823	-4.470	-5.671	-5.578	-6.322	-6.675	-5.428	-5.045	-2.973
315.0	-450.7	-356.7	-184.6	-133.5	-87.36	-41.22	103.7	273.1	523.3	865.4	 1175	 1142	893.9	733.6	384.9	128.7	184.8	614.0	 1453	 4749	 2245	149.4	-13.52	-12.98	-13.39	-13.52	-13.03	-12.90	-12.34	-10.73	-10.10	-10.12	-9.028	-9.146	-8.586	-7.784	-8.418	-7.628	-7.965	-7.884	-7.075	-6.769	-7.732	-7.325	-6.865	-7.044	-5.556	-5.805	-5.234	-4.528	-4.478	-4.991	-5.254	-5.420	-4.815	-5.752	-5.906	-5.246	-5.282	-5.016	-4.842	-4.244	-3.997	-3.376	-3.544	-3.618	-3.896	-4.329	-5.141	-4.336	-4.777	-5.928	-6.117	-6.703	-6.056	-6.650	-6.254
320.0	-499.3	-343.8	-213.4	-123.9	-99.47	-10.29	89.97	245.5	456.0	715.3	944.0	956.6	697.9	524.7	582.3	224.2	92.10	163.6	341.9	 1784	 5379	 1928	81.46	-12.13	-12.17	-12.21	-11.96	-11.71	-12.56	-11.28	-10.29	-9.487	-9.381	-9.688	-7.923	-7.813	-8.270	-7.954	-7.592	-8.127	-7.744	-6.801	-7.380	-6.202	-6.325	-6.894	-4.927	-6.047	-5.336	-4.837	-4.364	-5.245	-4.823	-5.006	-5.433	-6.171	-5.488	-5.062	-5.467	-4.921	-4.255	-4.277	-3.975	-4.137	-3.224	-3.991	-4.440	-5.187	-5.241	-4.901	-5.115	-4.368	-5.173	-6.246	-6.124	-6.591	-7.100
325.0	-447.6	-341.0	-177.5	-77.20	-52.68	-6.087	80.84	219.1	371.8	612.8	765.8	787.2	589.2	387.6	495.2	425.6	107.8	73.57	92.30	425.5	 2489	 5599	 1496	24.85	-10.49	-12.10	-10.77	-12.41	-11.84	-11.00	-10.49	-10.60	-9.760	-8.889	-9.536	-8.021	-7.768	-8.056	-7.494	-7.600	-7.084	-5.818	-8.357	-6.604	-6.661	-7.291	-5.829	-5.810	-5.587	-4.830	-4.631	-5.818	-5.166	-5.620	-5.245	-5.357	-4.967	-5.142	-5.409	-5.308	-4.426	-4.700	-4.841	-4.635	-3.751	-4.572	-4.298	-4.881	-5.218	-5.349	-5.441	-5.510	-4.785	-5.363	-5.487	-6.265	-7.243
330.0	-495.5	-361.8	-160.8	-25.16	5.497	72.51	140.6	191.9	324.8	479.4	616.6	641.0	514.6	334.8	314.1	385.5	305.4	101.4	46.96	111.9	592.0	 2373	 4392	 2280	80.97	-9.418	-10.17	-10.54	-11.31	-10.24	-11.43	-10.95	-9.445	-9.816	-8.921	-8.326	-7.688	-7.966	-7.398	-6.804	-7.487	-6.544	-7.388	-6.792	-6.530	-6.666	-6.156	-5.691	-5.117	-4.595	-4.465	-5.294	-5.377	-5.149	-5.080	-5.449	-5.060	-4.668	-4.861	-5.141	-4.799	-4.621	-5.118	-4.944	-4.794	-4.647	-5.181	-5.480	-5.259	-5.399	-5.608	-5.999	-5.351	-5.496	-5.355	-5.274	-6.342
335.0	-521.6	-333.6	-145.4	7.105	119.5	217.4	244.8	265.2	339.4	432.2	502.8	512.2	442.6	327.9	261.9	238.1	331.8	292.9	77.85	52.64	150.3	541.4	 1363	 4492	 3529	113.6	-9.491	-10.76	-9.455	-10.35	-10.44	-9.935	-8.580	-9.211	-9.696	-8.396	-7.115	-7.906	-7.243	-6.417	-7.334	-7.616	-6.775	-6.568	-7.175	-6.293	-5.588	-6.332	-5.124	-4.091	-4.928	-5.212	-4.786	-4.875	-4.739	-4.805	-5.041	-5.170	-4.936	-5.345	-4.960	-4.599	-5.210	-4.627	-5.295	-4.682	-4.855	-5.326	-5.150	-5.449	-5.238	-6.153	-5.963	-5.623	-6.042	-6.285	-5.586
340.0	-497.0	-316.5	-141.1	80.85	214.9	307.7	317.6	314.9	347.8	441.8	461.6	438.6	393.7	320.5	252.1	194.9	215.4	351.8	188.4	53.33	58.85	138.9	319.3	 1753	 5348	 1495	68.85	-8.084	-8.913	-10.13	-10.47	-9.178	-9.670	-9.245	-8.650	-8.365	-7.527	-7.940	-7.890	-7.434	-6.840	-7.712	-6.880	-6.254	-6.804	-6.333	-5.218	-6.192	-4.488	-3.943	-4.326	-5.135	-4.913	-4.896	-4.695	-4.317	-5.299	-5.220	-5.111	-4.948	-4.715	-4.377	-5.153	-5.041	-4.591	-5.298	-5.031	-5.510	-5.707	-5.718	-6.269	-5.901	-6.136	-6.353	-5.725	-6.688	-5.801
345.0	-466.9	-348.1	-103.8	155.2	313.0	359.8	415.5	389.1	376.2	423.9	399.8	398.2	378.1	313.1	246.4	189.5	159.4	254.4	318.9	115.5	46.63	56.30	87.60	419.1	 2544	 5157	 1215	21.05	-9.295	-8.627	-10.33	-9.815	-9.744	-8.874	-8.792	-8.407	-7.407	-7.467	-7.938	-7.294	-6.812	-6.970	-7.018	-7.302	-6.526	-5.848	-5.320	-5.231	-5.021	-4.408	-4.041	-5.059	-4.667	-4.703	-4.900	-4.448	-5.163	-4.716	-4.151	-5.535	-4.848	-4.977	-5.440	-5.319	-4.923	-5.233	-4.688	-5.534	-5.399	-5.637	-5.761	-5.985	-5.690	-5.731	-6.049	-6.117	-6.620
350.0	-529.1	-343.3	-75.26	183.4	353.5	467.0	497.0	451.8	413.3	401.2	358.6	340.4	325.3	285.2	247.1	196.0	160.4	162.8	250.9	255.4	106.6	52.47	49.28	113.7	611.8	 2320	 3963	 2022	67.93	-8.030	-9.433	-9.814	-9.586	-8.726	-8.393	-8.080	-7.786	-7.671	-7.390	-7.559	-6.710	-6.988	-7.114	-6.939	-6.706	-6.095	-5.342	-5.349	-4.665	-4.008	-3.931	-4.803	-4.118	-4.512	-4.585	-4.009	-5.094	-4.754	-4.804	-5.077	-4.811	-5.019	-5.096	-5.092	-5.513	-5.495	-5.265	-5.370	-5.980	-5.883	-5.750	-6.104	-5.490	-6.348	-5.923	-6.678	-6.582
355.0	-400.9	-311.5	-106.9	214.1	416.1	524.9	569.7	512.4	446.8	403.0	340.5	325.3	294.1	271.8	238.3	200.8	163.1	145.2	163.6	230.0	246.3	101.3	48.23	55.35	156.4	533.6	 1291	 4170	 3017	94.42	-8.586	-8.360	-8.817	-9.545	-8.163	-8.184	-7.572	-8.141	-7.126	-7.297	-7.246	-7.190	-7.222	-6.657	-6.631	-6.282	-5.641	-5.440	-4.772	-4.109	-3.680	-4.511	-3.677	-4.193	-4.053	-4.365	-4.447	-4.863	-4.788	-4.898	-4.620	-5.075	-4.866	-5.506	-5.168	-5.471	-5.416	-5.845	-5.193	-5.871	-5.817	-6.028	-5.539	-6.035	-5.641	-6.781	-6.613
360.0	-503.0	-343.1	-87.95	230.5	442.9	587.4	573.7	543.4	442.1	408.0	332.1	276.2	282.4	259.8	239.0	208.6	167.9	153.5	147.4	162.4	264.8	194.7	72.92	50.71	66.21	141.6	307.3	 1727	 4919	 1286	52.11	-7.397	-7.672	-9.146	-7.474	-7.285	-8.157	-7.127	-7.386	-7.182	-6.996	-7.885	-7.227	-7.075	-6.586	-6.503	-5.407	-5.305	-4.249	-4.138	-3.856	-4.802	-4.182	-3.585	-3.714	-4.453	-4.162	-4.877	-4.644	-5.011	-4.682	-4.922	-5.224	-5.500	-5.676	-5.423	-4.961	-5.398	-5.652	-6.181	-5.941	-5.504	-5.522	-6.234	-5.855	-6.484	-6.694
365.0	-538.2	-340.0	-11.34	236.3	447.0	620.5	619.1	521.5	438.7	398.0	315.6	269.2	250.1	256.0	225.0	205.3	182.4	162.0	151.7	142.1	195.3	274.5	137.5	65.70	52.87	62.52	89.35	419.0	 2481	 4738	 1032	13.21	-7.354	-8.303	-7.785	-8.126	-7.453	-7.451	-7.516	-7.314	-7.797	-7.654	-6.750	-6.697	-6.695	-6.329	-5.317	-5.159	-4.484	-3.782	-3.949	-4.583	-4.214	-3.844	-3.653	-4.529	-4.384	-4.435	-5.134	-5.134	-5.367	-4.884	-4.901	-5.895	-4.742	-5.028	-5.427	-5.683	-5.459	-6.520	-5.651	-6.067	-5.506	-5.711	-6.190	-6.597	-6.870
370.0	-512.8	-313.2	-57.85	224.7	468.7	600.2	583.1	537.9	425.0	374.0	292.1	242.7	236.1	239.4	229.1	207.3	193.8	177.5	161.4	148.8	158.0	212.5	233.5	132.9	71.36	57.18	49.79	112.4	601.4	 2254	 3887	 1822	51.86	-7.417	-6.825	-7.176	-7.229	-7.186	-6.840	-6.827	-7.652	-7.401	-6.729	-7.328	-6.623	-6.107	-5.080	-5.541	-4.623	-3.778	-4.267	-4.664	-3.977	-4.201	-3.940	-4.155	-4.282	-4.659	-5.067	-4.836	-4.926	-4.925	-5.320	-5.636	-5.307	-5.606	-4.936	-5.853	-5.652	-6.410	-5.778	-6.516	-5.349	-5.913	-6.155	-6.586	-6.240
375.0	-496.5	-400.9	-92.71	158.8	418.5	547.6	557.3	481.3	384.8	368.4	265.2	220.9	227.9	228.4	217.0	212.0	195.7	190.6	181.7	159.7	158.1	164.9	202.9	233.9	126.6	69.52	53.82	55.77	153.8	516.0	 1371	 4142	 2568	65.03	-5.760	-5.552	-7.408	-7.087	-7.363	-6.238	-6.943	-7.308	-6.984	-7.447	-7.025	-6.346	-5.351	-5.804	-4.627	-3.821	-3.932	-4.018	-3.408	-3.681	-4.060	-4.100	-4.964	-4.917	-5.037	-5.279	-5.586	-5.112	-5.444	-5.867	-5.418	-5.355	-5.428	-6.098	-5.250	-5.970	-5.646	-6.069	-5.752	-5.345	-6.210	-6.521	-6.069
380.0	-459.0	-361.6	-102.5	176.7	387.8	523.8	533.5	453.4	376.3	335.3	280.2	224.0	230.3	237.3	230.1	217.1	206.2	200.0	193.9	179.7	164.3	156.9	160.2	240.4	200.8	94.24	62.30	52.06	60.87	132.0	324.9	 1863	 4631	999.4	31.02	-5.698	-6.680	-6.722	-6.679	-6.589	-6.559	-7.236	-6.228	-7.213	-6.927	-6.833	-5.672	-5.852	-4.619	-4.063	-4.122	-4.297	-4.253	-3.966	-3.873	-4.330	-4.583	-4.948	-5.331	-4.603	-5.006	-5.161	-5.577	-5.574	-5.804	-4.740	-5.715	-5.569	-5.332	-5.680	-5.930	-6.058	-5.920	-5.969	-5.984	-6.110	-6.677
385.0	-483.3	-322.1	-114.9	155.5	366.6	457.3	494.2	416.0	351.3	321.1	251.6	211.4	224.2	228.7	224.9	225.8	210.6	207.5	201.2	189.2	177.3	164.4	148.9	186.5	245.3	146.9	78.95	58.09	49.26	51.22	87.81	457.2	 2608	 4088	725.2	3.225	-6.665	-5.831	-6.469	-6.740	-5.713	-8.112	-6.475	-5.819	-6.773	-6.438	-5.751	-5.300	-5.166	-4.258	-4.109	-4.562	-4.450	-4.558	-4.063	-4.542	-4.921	-4.347	-4.690	-4.776	-4.901	-4.723	-5.302	-5.507	-5.506	-5.235	-5.774	-5.523	-5.661	-6.306	-6.269	-5.789	-5.871	-5.921	-6.146	-6.409	-6.653
390.0	-495.7	-360.9	-164.7	125.0	313.0	402.1	428.9	382.9	325.5	279.2	219.2	209.2	222.3	215.5	225.2	227.5	216.1	214.1	206.3	194.1	184.6	176.2	163.7	158.1	189.3	209.8	133.0	75.43	55.39	44.14	40.22	115.7	644.7	 2142	 3180	 1320	36.37	-5.456	-6.385	-6.603	-5.754	-7.013	-6.550	-6.428	-6.721	-6.191	-5.587	-5.306	-5.266	-4.284	-4.053	-4.636	-5.042	-4.689	-4.144	-4.529	-4.984	-4.235	-4.675	-5.179	-4.916	-5.251	-5.561	-5.383	-5.546	-5.297	-5.601	-5.648	-5.753	-5.997	-5.832	-5.844	-5.952	-6.367	-5.984	-5.739	-6.596
395.0	-550.9	-357.1	-142.9	73.14	295.3	348.4	346.3	338.9	294.6	249.7	225.8	220.8	209.9	223.6	221.7	223.1	219.0	210.0	203.5	194.1	186.5	177.7	169.4	156.4	156.3	181.4	202.2	121.0	70.90	51.95	41.60	45.49	155.4	485.3	 1269	 3498	891.6	47.56	-5.644	-5.794	-5.856	-6.482	-7.105	-6.569	-6.431	-6.055	-5.461	-5.550	-4.852	-4.508	-3.969	-4.438	-4.861	-4.394	-4.257	-4.893	-5.409	-5.027	-5.026	-5.597	-5.288	-5.316	-5.482	-5.862	-5.605	-4.813	-5.763	-5.434	-5.460	-5.932	-5.911	-6.019	-5.384	-5.944	-5.786	-6.279	-6.503
400.0	-555.2	-370.2	-135.5	46.56	256.1	316.1	346.0	304.1	264.5	244.4	213.0	200.0	197.8	221.0	220.7	222.2	222.3	211.6	213.3	199.9	189.2	184.9	175.4	158.8	152.1	150.5	197.5	180.7	94.73	61.17	46.40	35.80	53.59	118.7	300.1	 1746	 3345	771.6	18.62	-5.403	-5.792	-6.163	-7.219	-6.481	-6.354	-6.236	-5.941	-5.671	-5.009	-4.022	-3.903	-4.567	-4.639	-4.893	-4.144	-4.629	-5.214	-5.069	-5.599	-5.596	-5.091	-5.183	-5.709	-5.623	-5.597	-5.312	-5.598	-5.693	-5.526	-5.735	-5.438	-5.483	-5.999	-6.088	-5.781	-6.582	-6.168
405.0	-519.6	-349.7	-180.6	22.09	238.1	327.1	295.3	300.7	236.6	238.6	204.4	197.7	206.5	218.3	218.6	211.9	215.4	209.7	209.6	195.7	191.9	187.8	173.6	166.8	150.6	141.1	161.9	195.5	136.7	74.86	54.24	39.57	33.99	40.38	75.38	436.3	 2088	 3084	555.5	0.680	-6.611	-6.263	-6.811	-6.046	-6.696	-6.222	-5.767	-5.764	-5.392	-4.037	-4.022	-5.149	-4.469	-4.653	-4.733	-5.033	-5.468	-5.341	-5.621	-5.152	-5.274	-5.119	-5.317	-5.839	-5.771	-5.208	-5.843	-5.819	-5.671	-5.470	-6.004	-5.259	-6.124	-6.516	-6.502	-5.909	-6.434
410.0	-530.9	-385.6	-173.1	20.65	204.6	249.0	250.7	237.3	218.7	218.5	195.1	187.8	196.4	212.5	209.2	211.6	213.1	203.8	204.1	188.9	185.8	180.8	176.4	167.3	155.9	149.2	143.8	162.6	179.1	122.5	69.76	50.49	36.55	27.75	29.38	105.2	525.7	 1726	 2458	964.6	28.01	-5.637	-6.720	-6.251	-6.757	-5.976	-5.556	-5.984	-5.147	-3.887	-3.938	-4.853	-4.875	-4.797	-4.389	-5.000	-5.058	-5.101	-5.186	-5.391	-5.444	-5.379	-5.711	-5.410	-5.395	-5.603	-5.507	-5.981	-5.925	-5.616	-6.301	-5.846	-6.142	-6.113	-6.093	-5.958	-6.229
415.0	-517.6	-365.0	-231.6	-34.62	140.3	173.9	230.3	206.4	204.3	214.4	191.4	188.9	195.0	206.5	204.9	200.0	196.7	191.1	194.3	184.4	179.9	175.2	172.0	168.5	156.4	153.7	140.5	137.9	153.2	175.1	108.3	60.58	46.47	32.00	24.87	34.96	122.9	389.8	 1021	 2583	768.2	37.53	-5.750	-6.250	-5.880	-6.319	-5.440	-5.378	-5.021	-4.148	-4.431	-4.503	-4.926	-4.965	-4.554	-5.295	-5.754	-5.529	-5.139	-5.361	-5.756	-5.223	-6.207	-5.991	-5.584	-5.747	-5.510	-6.100	-6.202	-5.837	-5.761	-5.554	-6.133	-6.037	-6.288	-6.024	-6.738
420.0	-532.8	-360.7	-237.1	-42.12	119.6	173.1	194.0	187.8	187.3	185.4	188.9	177.7	191.8	192.1	199.5	201.2	191.8	186.9	185.9	178.4	174.3	167.9	169.4	163.0	160.4	154.4	146.3	137.4	136.5	163.9	150.9	81.03	54.90	40.26	28.29	23.18	34.97	91.43	241.8	 1357	 2644	627.4	6.383	-5.450	-5.963	-6.159	-4.891	-5.742	-4.875	-4.282	-4.416	-4.761	-4.800	-5.403	-4.503	-5.511	-5.479	-5.417	-5.395	-5.254	-4.917	-5.240	-6.069	-6.094	-5.682	-5.958	-5.638	-6.039	-5.785	-6.508	-6.188	-5.276	-6.019	-5.850	-7.035	-6.414	-6.933
425.0	-559.8	-399.5	-210.2	-59.72	79.87	138.3	173.6	196.0	209.5	186.1	183.5	184.6	205.7	201.6	205.3	190.9	187.2	185.6	174.9	169.1	166.0	163.7	159.7	164.7	161.4	153.5	151.8	138.6	125.9	140.4	168.4	115.9	61.36	44.37	32.90	23.98	18.44	26.45	56.62	343.5	 1731	 2307	89.94	-3.414	-5.309	-5.711	-4.776	-5.664	-4.442	-4.075	-4.182	-4.915	-4.619	-5.075	-4.404	-5.340	-5.509	-5.769	-5.030	-4.962	-4.792	-5.599	-5.992	-6.044	-6.050	-5.777	-5.765	-6.528	-5.484	-5.840	-6.255	-5.167	-5.312	-5.877	-6.434	-6.399	-6.231
430.0	-570.6	-418.4	-215.2	-77.48	45.45	123.2	159.3	167.8	205.7	191.2	190.2	186.3	195.9	185.1	189.1	182.0	176.6	174.1	162.4	159.0	161.1	158.1	157.5	160.7	157.7	157.7	153.6	141.4	132.8	129.7	141.6	146.9	96.62	57.63	38.97	28.06	19.78	15.75	18.29	79.69	438.0	 1331	 1810	410.3	22.95	-5.327	-4.584	-5.662	-4.081	-3.921	-4.348	-4.444	-4.661	-5.164	-4.847	-4.915	-5.359	-5.104	-5.132	-5.374	-5.593	-5.402	-5.488	-5.661	-5.864	-5.698	-5.101	-6.319	-6.029	-6.203	-6.272	-5.496	-5.793	-6.206	-6.361	-6.235	-6.327
435.0	-532.0	-395.7	-225.8	-98.16	49.13	116.5	143.9	161.8	200.2	193.6	191.2	191.7	203.8	183.8	175.7	182.7	172.5	159.8	159.8	147.5	153.9	149.4	156.8	155.9	154.8	157.0	156.8	147.5	141.0	133.0	128.6	128.7	135.0	81.88	48.28	37.38	24.58	17.84	12.20	22.20	98.98	299.0	829.9	 2056	668.0	26.90	-4.662	-5.182	-4.886	-4.040	-4.322	-4.908	-4.814	-5.362	-5.241	-4.874	-5.493	-5.682	-5.269	-5.292	-5.502	-5.504	-5.477	-5.667	-5.653	-6.091	-5.669	-5.507	-5.942	-6.367	-5.882	-5.995	-5.368	-6.185	-6.163	-6.147	-6.558
440.0	-515.3	-432.6	-242.2	-96.90	28.45	103.1	112.6	154.5	204.8	195.1	208.2	181.9	187.1	176.6	171.1	166.6	159.0	154.8	145.8	148.2	152.1	146.8	144.2	148.4	145.4	157.2	152.5	148.0	141.8	135.2	125.2	113.5	127.4	112.9	62.88	38.40	27.79	19.36	12.27	10.75	23.59	67.47	196.8	 1154	 2199	528.7	6.513	-4.872	-4.158	-4.345	-4.292	-4.981	-4.924	-4.817	-5.009	-4.982	-5.328	-5.533	-5.027	-5.449	-5.962	-5.407	-5.715	-5.195	-5.505	-5.279	-5.695	-5.678	-5.978	-6.215	-5.305	-5.837	-6.003	-6.578	-6.447	-6.239	-6.434
445.0	-504.0	-404.9	-252.9	-103.1	-0.650	90.94	126.9	132.0	177.2	199.5	200.4	207.9	199.1	168.4	169.3	163.9	150.2	135.8	136.2	137.9	147.7	142.5	143.5	147.4	149.8	148.8	150.8	148.0	144.1	135.4	122.2	111.4	111.3	124.1	81.28	44.76	31.41	22.57	15.15	9.668	9.755	17.03	45.00	295.2	 1517	 2039	73.17	-1.474	-4.478	-4.200	-4.016	-4.591	-4.543	-4.908	-5.325	-5.161	-4.574	-5.225	-5.422	-5.997	-5.184	-4.968	-5.604	-5.970	-6.281	-5.809	-5.571	-5.503	-5.868	-5.893	-5.974	-5.994	-6.294	-5.673	-6.354	-6.079	-6.552
450.0	-535.0	-330.9	-189.0	-123.7	-3.051	86.56	92.65	134.5	154.8	183.8	200.8	192.1	187.4	165.3	152.3	149.1	139.7	140.8	129.1	127.6	130.2	128.8	134.5	141.6	143.2	144.0	144.7	141.5	135.9	132.9	123.1	112.2	98.12	100.3	98.87	64.42	38.67	25.23	17.23	12.22	8.064	6.475	12.23	65.51	387.1	 1283	 1696	346.2	18.52	-3.655	-3.674	-4.832	-4.821	-5.266	-4.848	-5.463	-4.976	-5.314	-5.263	-5.736	-5.304	-5.578	-6.004	-5.770	-5.516	-5.462	-5.579	-5.742	-5.802	-6.036	-6.161	-5.830	-6.041	-6.226	-6.432	-6.624	-6.640
455.0	-517.0	-341.5	-18.50	-121.9	15.11	27.20	76.14	115.3	127.8	156.1	176.0	187.1	165.4	142.1	142.9	132.4	130.2	125.5	115.4	120.1	117.5	116.3	123.3	130.2	125.3	135.3	134.8	131.6	127.6	126.1	118.8	108.6	94.65	83.96	82.98	83.56	50.75	29.94	19.02	14.62	9.260	6.183	5.129	14.45	85.60	287.8	783.8	 1880	525.7	18.08	-3.367	-5.021	-4.673	-5.524	-5.209	-5.528	-5.895	-5.311	-5.925	-5.865	-5.055	-5.558	-5.441	-6.040	-5.699	-5.814	-5.677	-5.764	-6.150	-6.098	-6.665	-5.675	-5.650	-6.285	-6.491	-6.580	-6.518
460.0	-499.4	-346.9	88.25	-23.04	9.779	4.962	58.28	109.3	135.2	166.4	168.4	164.3	154.9	145.9	132.4	118.7	117.8	112.7	111.4	106.2	107.0	103.5	112.6	118.6	119.8	124.8	126.6	125.6	125.0	119.4	116.3	105.7	90.73	76.40	71.46	77.35	64.93	36.92	20.37	16.79	11.29	7.421	4.462	3.654	18.99	62.95	186.5	 1080	 1841	371.4	4.215	-4.940	-4.593	-5.412	-5.221	-4.949	-5.634	-5.561	-5.645	-5.550	-5.393	-5.291	-5.363	-5.914	-5.532	-5.803	-6.011	-6.683	-5.646	-6.157	-6.216	-6.003	-5.733	-6.388	-6.573	-6.105	-6.939
465.0	-502.3	-379.4	68.23	196.3	7.698	10.59	45.00	88.54	130.7	141.3	156.7	140.4	136.9	140.7	118.7	108.7	109.7	102.6	98.34	98.34	97.22	96.57	101.9	108.5	109.7	115.7	120.5	120.9	118.4	118.4	108.3	102.2	85.00	72.29	62.18	63.63	69.14	47.37	22.83	17.12	10.62	6.661	4.959	3.124	4.641	13.83	41.17	277.8	 1323	 1559	58.89	-3.000	-4.810	-4.910	-4.972	-5.435	-5.390	-5.321	-5.586	-5.640	-5.291	-6.027	-5.776	-5.883	-5.774	-6.090	-5.858	-6.271	-6.153	-6.270	-5.550	-6.008	-5.834	-5.585	-6.183	-5.906	-6.853
470.0	-499.0	-431.0	-108.3	587.0	158.3	-5.908	24.33	61.01	106.9	113.9	133.2	122.3	120.9	121.8	108.9	97.27	92.52	87.16	86.05	84.83	85.47	86.41	90.11	96.30	98.12	103.5	104.4	105.8	107.4	106.6	99.32	91.64	80.75	69.01	59.18	52.19	53.01	51.42	33.58	18.18	11.82	8.377	5.363	3.319	1.933	2.818	8.477	60.87	338.4	 1019	 1197	317.5	13.47	-4.206	-5.254	-5.378	-5.255	-5.028	-5.651	-5.928	-5.244	-5.661	-5.594	-5.590	-5.895	-5.944	-6.146	-5.747	-6.264	-6.332	-6.076	-6.078	-5.944	-6.057	-6.279	-6.276	-7.083
475.0	-518.4	-381.3	-219.7	353.6	758.3	30.44	32.13	35.52	75.86	101.5	106.8	111.1	105.9	103.4	87.40	78.88	77.19	72.58	75.72	72.96	71.84	77.77	77.98	84.03	84.43	92.26	93.33	93.65	94.42	91.98	86.60	80.49	72.61	63.48	54.02	44.59	42.04	41.11	43.45	26.17	14.12	7.967	5.382	3.644	2.889	0.954	1.073	12.62	74.22	228.5	558.1	 1266	441.7	13.65	-4.426	-5.505	-4.916	-5.658	-6.132	-5.549	-5.611	-5.784	-6.034	-6.204	-6.078	-5.247	-6.054	-6.087	-5.750	-5.685	-5.995	-6.307	-5.695	-6.414	-6.190	-6.553	-7.209
480.0	-575.8	-377.4	-273.4	11.72	980.1	276.8	13.02	37.02	62.49	90.78	107.2	102.5	86.47	87.71	73.74	75.63	73.70	68.43	66.62	63.51	64.17	64.78	70.37	74.35	76.49	80.72	82.73	85.61	87.13	85.98	82.83	76.83	69.01	60.31	49.29	42.33	35.81	32.14	39.48	33.23	16.61	9.513	5.675	3.590	3.152	0.351	0.679	2.084	15.23	50.19	132.5	711.1	 1277	346.5	0.441	-4.446	-5.448	-5.347	-5.564	-5.783	-5.985	-5.739	-5.945	-6.222	-5.805	-5.528	-6.119	-6.217	-6.512	-6.033	-6.025	-6.221	-6.175	-6.687	-6.486	-6.856	-7.112
485.0	-574.9	-406.5	-268.8	-161.3	684.0	881.3	5.837	36.01	43.53	82.07	89.07	92.24	71.66	79.05	69.77	69.61	65.41	62.94	63.20	59.30	60.60	60.25	66.37	67.04	70.16	73.59	76.50	78.00	78.22	78.89	77.80	71.70	62.93	56.55	46.17	38.87	33.06	28.01	31.29	36.37	22.59	11.12	6.587	4.034	2.563	0.437	0.312	-0.111	2.527	10.48	28.50	181.8	904.9	 1166	60.66	-3.922	-5.439	-5.207	-5.027	-5.522	-6.144	-5.647	-5.418	-5.971	-5.460	-5.840	-6.234	-6.212	-6.211	-6.387	-5.785	-6.500	-6.254	-6.091	-6.081	-5.980	-6.637
490.0	-536.9	-422.8	-262.0	-183.7	175.5	 1370	352.1	23.86	37.32	51.63	66.01	78.80	65.59	67.84	66.75	56.28	54.25	49.97	49.59	50.02	53.46	53.01	56.08	61.67	61.42	65.56	68.29	71.31	69.50	70.10	70.35	63.80	57.24	51.43	43.82	36.93	30.95	25.30	22.82	26.97	27.80	17.50	7.159	3.576	2.934	0.972	0.833	-0.578	-0.223	1.464	4.955	38.74	229.0	712.5	813.1	307.0	12.87	-4.951	-5.034	-5.602	-5.761	-5.847	-5.220	-5.978	-5.839	-5.696	-6.008	-6.140	-5.854	-6.387	-6.107	-5.912	-6.176	-6.473	-6.580	-6.954	-7.045
495.0	-501.9	-429.6	-260.1	-178.0	-69.92	713.4	 1117	80.49	24.36	40.37	53.47	63.83	56.01	38.86	47.04	45.80	45.74	45.65	44.84	43.13	45.90	46.93	49.75	51.26	54.30	52.98	57.90	61.94	61.12	61.75	60.47	57.17	49.99	46.71	38.63	34.02	27.61	23.26	19.51	18.47	22.22	21.56	12.25	4.140	3.656	1.559	0.888	-0.514	-0.258	0.294	0.043	6.037	48.60	157.8	422.5	 1147	462.9	12.28	-4.731	-5.484	-5.159	-5.445	-5.839	-6.197	-6.179	-5.930	-6.348	-6.132	-5.614	-6.870	-6.113	-6.561	-6.360	-6.315	-6.102	-6.750	-6.575
500.0	-519.9	-443.7	-279.6	-173.1	-142.9	172.8	 1322	401.0	10.10	26.06	46.02	54.22	41.35	35.93	33.52	39.77	39.72	35.84	36.18	35.38	37.38	39.50	42.79	43.74	44.90	47.58	52.04	53.72	53.52	57.10	54.96	50.10	44.79	40.59	34.39	30.77	25.25	21.85	17.62	14.25	16.15	21.92	18.14	6.922	3.307	1.799	1.467	-0.017	-1.415	-0.184	-1.316	-0.945	8.711	32.37	98.15	640.7	 1216	332.8	-0.155	-5.281	-5.375	-5.830	-5.483	-5.827	-6.473	-5.582	-6.113	-6.325	-5.939	-6.777	-6.368	-6.793	-6.293	-5.886	-6.701	-7.119	-7.264
505.0	-544.1	-392.0	-299.5	-162.5	-152.2	-17.66	911.0	964.6	11.33	4.365	18.01	25.72	27.08	35.71	35.17	33.87	31.67	30.16	23.95	31.25	34.83	32.82	37.92	38.34	40.12	42.34	43.97	47.09	47.56	47.99	48.31	44.85	39.84	34.99	32.50	28.52	23.23	19.87	17.81	12.39	10.81	15.03	19.45	11.27	3.401	1.430	1.534	0.696	-1.382	-0.005	-1.377	-2.355	-0.092	4.351	19.36	160.5	841.2	 1087	64.64	-4.241	-5.497	-5.666	-5.833	-5.593	-6.221	-5.293	-6.059	-6.059	-6.526	-5.993	-6.487	-6.592	-6.607	-6.352	-6.437	-7.376	-6.284
510.0	-538.1	-381.1	-304.3	-175.0	-147.5	-90.92	250.9	 1274	465.2	-2.431	4.471	21.67	21.04	20.66	21.14	24.05	27.75	20.26	24.42	22.27	23.98	28.29	31.00	31.08	33.86	35.60	37.70	39.04	39.48	41.96	41.59	38.95	34.22	30.90	28.97	25.01	19.83	16.46	14.36	10.98	8.999	8.520	12.51	14.05	6.995	2.511	0.547	-0.165	-0.881	-0.420	-1.319	-2.641	-2.386	-1.905	1.594	32.48	211.2	649.9	751.1	284.1	10.02	-5.131	-5.345	-5.912	-6.189	-5.795	-6.165	-6.128	-6.163	-6.463	-5.988	-6.527	-6.402	-6.576	-6.613	-7.201	-6.694
515.0	-532.3	-427.5	-329.4	-168.7	-101.8	-129.4	11.20	584.3	 1303	75.71	0.655	14.26	6.068	10.73	11.66	8.669	17.41	16.28	15.37	18.23	19.25	20.33	26.32	25.43	24.64	27.19	32.82	31.21	34.06	32.16	33.40	31.30	30.03	27.59	22.19	21.92	18.08	14.17	12.08	9.068	7.885	5.798	6.775	9.799	11.81	3.858	1.465	-0.512	-0.723	-0.762	-1.225	-2.993	-2.825	-3.771	-2.836	3.272	44.15	142.9	366.1	939.5	392.2	6.631	-5.324	-5.787	-5.621	-6.200	-5.975	-6.069	-6.035	-6.270	-6.247	-6.850	-6.930	-6.725	-6.731	-6.839	-6.854
520.0	-521.7	-431.5	-337.8	-188.1	-103.8	-108.1	-47.76	137.2	 1331	496.9	-10.18	2.077	5.417	3.388	14.30	7.775	9.072	10.47	11.71	12.67	14.87	17.11	21.32	20.44	20.03	22.78	27.07	25.87	26.35	28.10	29.43	26.91	25.89	21.69	19.20	17.52	13.78	11.32	11.41	7.674	6.750	5.008	4.731	5.324	10.76	7.356	2.377	-0.137	-0.553	-0.993	-1.292	-2.999	-3.417	-4.349	-3.873	-2.601	6.247	28.55	84.60	511.1	900.1	72.32	-2.617	-5.963	-6.180	-5.951	-5.920	-6.367	-5.565	-6.258	-6.532	-7.126	-6.904	-6.223	-6.575	-6.767	-6.741
525.0	-562.9	-465.1	-343.3	-248.9	-133.8	-103.8	-86.89	-20.97	803.6	 1151	8.012	-8.825	-4.041	4.706	6.666	-0.283	7.753	5.313	7.176	10.98	11.65	14.65	14.93	14.14	16.29	17.62	22.01	23.09	21.77	23.07	25.97	22.41	22.54	18.95	16.36	13.62	12.90	10.50	8.519	7.817	6.528	3.728	3.142	2.368	5.842	9.299	4.434	0.112	-0.509	-0.617	-1.103	-3.709	-3.553	-4.216	-3.775	-3.652	-2.547	2.702	14.75	126.8	595.9	639.3	57.44	-4.939	-6.076	-5.965	-5.689	-6.185	-5.658	-6.324	-6.683	-7.024	-7.195	-6.040	-6.896	-7.053	-6.862
530.0	-571.7	-441.3	-328.2	-248.5	-166.3	-70.96	-98.35	-67.01	195.7	 1296	535.9	-17.44	-0.734	-5.743	5.514	-0.996	0.172	2.374	5.917	4.283	8.940	7.897	9.962	11.12	14.41	15.80	16.42	16.94	17.88	18.96	20.10	18.47	16.56	15.50	13.43	12.07	9.576	8.843	6.097	5.256	4.299	2.638	2.036	1.384	2.196	5.713	6.388	1.970	-0.931	-1.138	-1.899	-3.537	-3.401	-4.214	-3.990	-4.243	-4.190	-2.998	-0.613	24.41	146.2	422.9	582.2	218.9	4.310	-5.804	-5.896	-6.700	-6.421	-6.513	-6.239	-6.712	-6.765	-6.769	-6.498	-6.620	-7.171
535.0	-543.6	-429.6	-357.8	-231.5	-175.2	-89.93	-78.47	-80.36	-4.139	526.0	 1348	92.30	-13.34	-17.19	-7.105	-8.069	-2.625	-2.326	-1.670	2.975	0.176	5.335	5.078	7.941	9.555	11.88	12.07	13.47	12.65	13.74	12.81	13.21	13.31	11.00	9.847	9.847	7.780	7.307	4.802	3.208	2.917	1.723	0.977	0.170	-0.037	0.777	4.478	4.574	-0.031	-1.331	-2.139	-3.438	-3.697	-4.433	-4.074	-3.960	-5.216	-4.668	-3.942	1.502	28.29	90.99	262.6	641.1	260.9	1.115	-5.921	-6.273	-6.525	-6.502	-5.742	-6.216	-6.675	-6.299	-5.873	-6.719	-7.082
540.0	-562.7	-377.9	-340.6	-249.4	-176.2	-106.3	-63.01	-89.90	-63.61	102.3	 1421	580.1	-26.84	-18.75	-5.660	-5.023	-8.703	-7.589	-5.213	0.423	-1.388	3.086	3.725	5.404	4.377	9.281	8.138	7.707	10.25	8.749	11.02	10.39	10.38	7.705	7.333	7.359	5.379	5.237	4.018	2.034	1.589	1.075	-0.658	-0.822	-1.378	-1.125	1.544	3.219	2.156	-0.843	-2.146	-3.320	-4.097	-4.084	-3.849	-4.310	-5.627	-4.991	-4.950	-3.818	2.043	16.24	57.78	341.3	618.8	66.96	-4.218	-6.270	-5.721	-6.615	-6.314	-6.282	-6.875	-6.151	-6.621	-6.666	-6.714
545.0	-573.2	-419.9	-288.0	-269.6	-195.7	-130.8	-59.89	-87.43	-70.50	-18.11	762.3	 1161	15.79	-24.66	-16.29	-10.33	-11.60	-7.952	-5.606	-4.315	-4.443	-1.527	1.741	0.937	2.870	5.462	4.848	5.636	7.260	7.022	6.368	7.714	7.849	5.593	6.490	5.482	4.354	3.786	2.665	1.752	-0.008	-0.625	-0.457	-1.524	-2.435	-1.353	-1.043	2.137	2.738	0.208	-1.767	-3.798	-4.321	-5.133	-3.549	-4.505	-5.603	-5.299	-5.048	-5.563	-3.464	-0.120	9.186	83.70	410.7	490.7	48.01	-5.881	-6.699	-6.496	-5.926	-6.811	-6.925	-6.158	-6.775	-6.758	-7.234
550.0	-573.5	-446.6	-341.7	-262.3	-186.0	-152.6	-75.86	-64.61	-79.40	-51.48	179.4	 1134	557.3	-26.45	-22.38	-17.59	-12.66	-11.15	-7.224	-8.042	-5.422	-3.912	-2.252	-1.335	0.261	1.152	1.448	3.898	3.753	3.801	5.339	4.074	3.732	3.388	4.248	2.991	2.432	2.125	2.132	0.107	-0.561	-1.570	-1.780	-1.951	-2.465	-2.389	-1.924	-1.162	1.311	1.467	-0.975	-3.795	-3.720	-4.934	-4.198	-4.846	-5.326	-5.189	-5.243	-5.548	-4.783	-4.170	-2.232	14.60	98.58	304.3	378.4	135.7	-0.614	-6.269	-6.110	-6.726	-6.765	-6.262	-6.825	-6.796	-7.213
555.0	-524.9	-412.0	-289.7	-225.3	-206.0	-146.3	-95.22	-29.73	-50.07	-48.54	21.19	414.9	 1302	100.3	-24.64	-21.83	-15.79	-11.93	-12.05	-10.22	-6.820	-6.936	-4.727	-3.953	-2.605	-2.546	0.136	-0.873	0.481	-0.089	2.649	2.293	1.975	0.927	0.470	-0.194	0.132	-0.672	-0.103	-1.632	-1.435	-2.255	-3.227	-2.996	-3.273	-3.348	-2.542	-2.963	-1.941	0.335	0.080	-3.236	-4.253	-4.438	-4.378	-5.289	-5.116	-5.269	-5.334	-5.400	-5.406	-5.478	-5.128	-1.478	17.25	63.83	170.8	412.6	70.98	-2.653	-6.248	-6.206	-6.738	-6.667	-7.119	-6.993	-7.051
560.0	-565.4	-417.1	-295.2	-255.3	-212.5	-152.7	-125.2	-43.67	-21.96	-36.66	12.35	112.8	 1139	510.8	-25.42	-26.11	-16.97	-13.17	-15.22	-11.24	-9.761	-10.24	-7.048	-4.067	-4.786	-4.364	-4.052	-1.937	-1.447	0.650	-0.126	-0.102	-0.476	0.161	-1.690	-1.628	-1.275	-1.170	-1.763	-1.931	-2.736	-3.031	-4.144	-3.276	-3.662	-3.323	-2.706	-3.732	-2.821	-0.424	-0.136	-2.036	-3.843	-5.051	-4.760	-5.009	-5.316	-5.329	-5.226	-5.477	-6.082	-5.932	-5.698	-4.815	-0.567	9.967	36.43	227.3	349.3	53.36	-5.665	-6.308	-6.496	-6.924	-6.606	-7.020	-6.680
565.0	-499.2	-400.9	-364.8	-268.4	-204.6	-153.5	-125.6	-67.24	-6.841	-12.45	15.96	39.91	575.9	 1092	5.097	-23.74	-18.13	-16.68	-15.20	-12.87	-9.082	-9.615	-8.447	-6.320	-5.562	-5.205	-3.786	-3.921	-3.354	-2.501	-3.311	-2.245	-2.494	-2.969	-1.905	-2.192	-1.786	-2.086	-3.719	-3.704	-3.221	-2.887	-3.593	-3.700	-3.772	-3.618	-3.421	-3.887	-3.153	-2.199	-1.230	-1.811	-3.162	-4.440	-4.602	-5.213	-4.940	-5.444	-5.398	-4.714	-5.748	-5.631	-5.722	-5.884	-4.086	-2.321	3.916	54.00	256.6	282.0	30.01	-6.346	-6.574	-6.990	-6.870	-7.088	-7.236
570.0	-520.7	-412.3	-354.9	-262.9	-221.6	-151.1	-131.0	-76.78	13.97	16.27	35.56	40.76	174.2	941.5	402.9	-26.62	-21.21	-19.00	-15.48	-12.83	-12.30	-10.87	-10.93	-9.171	-7.847	-6.883	-6.441	-5.545	-5.337	-4.374	-3.946	-3.954	-3.447	-3.576	-3.634	-3.379	-3.320	-3.408	-4.334	-4.237	-3.643	-4.165	-4.598	-4.778	-4.466	-4.557	-3.869	-4.199	-4.276	-2.869	-2.912	-2.775	-2.935	-4.304	-4.914	-5.246	-5.724	-5.322	-5.312	-5.289	-5.369	-5.534	-5.705	-5.838	-5.241	-5.503	-3.576	7.849	62.12	183.1	213.6	39.71	-3.991	-6.658	-6.860	-7.397	-6.926
575.0	-567.5	-458.4	-356.4	-293.1	-231.1	-170.7	-128.6	-80.84	-5.887	70.85	50.01	53.54	51.41	302.2	982.9	73.56	-22.35	-20.56	-15.39	-15.50	-16.02	-10.83	-13.79	-8.082	-8.663	-8.629	-6.256	-8.194	-7.969	-7.477	-4.659	-5.756	-5.829	-4.788	-5.238	-3.553	-4.136	-4.874	-5.135	-5.511	-3.677	-5.241	-5.089	-4.710	-5.208	-4.675	-4.608	-4.474	-4.269	-3.274	-3.351	-3.995	-3.087	-3.798	-4.637	-5.376	-6.044	-6.056	-5.660	-5.456	-5.415	-5.316	-5.662	-5.941	-5.350	-5.111	-5.935	-2.856	8.699	36.58	104.2	225.3	57.16	-4.989	-6.974	-7.045	-7.018
580.0	-522.4	-444.4	-376.3	-278.7	-229.5	-151.4	-125.4	-86.72	-24.11	68.00	85.77	60.53	32.18	51.47	830.9	410.7	-24.58	-19.90	-19.12	-17.16	-15.69	-14.07	-12.83	-9.720	-9.816	-9.758	-8.600	-8.235	-8.611	-6.843	-5.505	-7.098	-4.472	-5.260	-5.227	-4.600	-4.578	-5.692	-4.964	-4.890	-5.364	-5.700	-5.229	-5.174	-5.344	-5.283	-4.579	-4.740	-3.943	-3.517	-3.660	-4.583	-3.604	-4.245	-4.764	-4.957	-5.353	-5.628	-5.859	-5.939	-5.280	-5.939	-5.255	-5.833	-5.577	-5.980	-5.771	-5.516	-2.215	3.206	20.58	135.0	203.0	35.18	-6.408	-6.655	-6.892
585.0	-531.1	-445.5	-340.1	-254.6	-232.6	-187.5	-130.9	-93.97	-25.27	43.42	88.49	73.00	37.40	-6.136	381.6	783.6	-4.153	-21.45	-18.20	-18.23	-16.82	-13.93	-14.07	-10.82	-9.881	-10.10	-8.841	-9.120	-8.700	-6.750	-7.676	-8.226	-5.946	-6.232	-5.567	-5.511	-5.559	-5.648	-5.355	-5.528	-5.370	-5.958	-5.454	-5.930	-5.761	-5.766	-5.034	-4.801	-4.259	-3.540	-4.211	-4.808	-4.330	-4.029	-4.139	-5.098	-5.603	-5.594	-5.737	-5.664	-5.685	-5.546	-5.676	-5.665	-5.702	-6.056	-4.809	-6.064	-5.546	-4.036	-0.512	31.50	152.5	160.6	13.43	-7.401	-7.220
590.0	-513.0	-435.7	-359.7	-269.7	-200.5	-179.9	-118.0	-83.94	-42.19	22.76	104.4	70.07	28.53	-23.50	68.22	651.4	279.4	-22.19	-20.62	-17.18	-17.50	-13.90	-14.79	-12.40	-11.11	-10.84	-9.574	-10.00	-9.444	-8.544	-8.735	-8.492	-7.383	-6.459	-6.914	-5.979	-5.874	-6.570	-6.205	-6.297	-6.303	-5.363	-5.197	-5.787	-5.547	-5.970	-4.840	-4.966	-4.573	-3.972	-4.275	-5.153	-4.795	-4.864	-3.922	-4.624	-5.746	-5.704	-5.501	-5.691	-6.363	-5.977	-6.055	-5.530	-5.904	-5.859	-5.747	-5.862	-6.148	-5.960	-4.758	1.922	35.83	109.8	108.5	29.27	-5.725
595.0	-528.0	-445.2	-359.5	-292.2	-220.1	-178.0	-131.6	-89.18	-40.50	6.278	84.74	91.49	15.77	-28.57	-11.47	196.1	646.8	43.71	-21.57	-18.10	-16.50	-14.54	-12.80	-13.43	-11.91	-11.76	-11.21	-9.869	-7.799	-9.410	-9.494	-8.376	-7.456	-7.448	-7.184	-7.228	-6.318	-7.001	-6.282	-6.180	-5.493	-6.057	-6.119	-5.418	-6.364	-5.609	-4.953	-5.515	-4.684	-3.953	-4.215	-4.946	-5.199	-5.104	-4.609	-4.601	-4.989	-5.564	-5.392	-5.517	-5.981	-5.523	-5.830	-6.277	-5.944	-6.090	-6.222	-5.919	-6.438	-6.129	-6.213	-4.674	2.810	20.28	58.37	131.7	35.59
600.0	-519.3	-436.6	-349.9	-280.7	-218.6	-170.7	-133.2	-93.41	-40.51	-18.98	58.09	74.55	15.49	-27.28	-32.38	24.56	550.7	262.4	-21.54	-17.23	-15.98	-16.05	-13.34	-14.32	-12.89	-12.27	-11.67	-11.63	-9.802	-10.11	-9.322	-8.176	-7.959	-7.800	-7.514	-6.767	-6.392	-6.585	-6.892	-6.108	-5.735	-6.193	-6.152	-6.792	-5.664	-6.314	-4.768	-5.780	-5.127	-3.969	-4.291	-5.125	-5.380	-5.559	-5.203	-4.846	-4.876	-5.183	-5.923	-6.160	-5.810	-5.783	-6.095	-6.196	-5.968	-5.522	-6.130	-5.965	-6.161	-6.192	-6.645	-6.077	-4.332	-0.727	9.968	80.25	117.5
605.0	-509.2	-462.3	-311.8	-246.7	-221.5	-170.3	-128.8	-96.88	-57.66	-28.15	37.39	91.67	17.31	-24.65	-30.75	-21.90	252.8	521.5	-7.671	-19.61	-17.18	-17.20	-15.22	-13.03	-12.82	-12.01	-11.34	-12.37	-11.72	-10.17	-10.31	-8.055	-7.878	-7.246	-6.762	-6.944	-6.118	-7.021	-6.542	-6.854	-6.082	-6.714	-6.131	-6.495	-6.089	-6.000	-5.126	-6.345	-4.603	-4.353	-4.312	-5.689	-5.801	-5.911	-5.375	-5.320	-4.855	-5.153	-5.879	-5.670	-5.806	-6.199	-5.974	-5.796	-5.584	-6.293	-5.960	-6.332	-6.493	-6.547	-7.034	-5.737	-5.811	-5.249	-2.920	17.01	89.57
610.0	-502.1	-480.5	-309.4	-270.8	-225.0	-166.1	-129.1	-101.0	-67.98	-38.48	19.78	41.05	23.07	-24.26	-38.71	-29.62	43.80	451.6	197.2	-18.45	-17.92	-18.13	-15.41	-13.29	-12.52	-12.81	-11.23	-11.29	-12.49	-10.76	-9.694	-9.005	-8.479	-8.078	-7.512	-6.740	-7.129	-7.338	-7.175	-7.060	-6.761	-6.959	-6.796	-6.657	-6.698	-6.593	-5.245	-5.427	-5.123	-4.118	-4.210	-5.640	-5.474	-5.854	-5.543	-5.796	-5.675	-4.985	-5.284	-5.778	-5.868	-6.044	-6.175	-6.063	-5.736	-6.086	-6.231	-5.999	-6.300	-6.201	-6.564	-6.302	-5.963	-6.267	-5.698	-1.109	18.79
615.0	-531.8	-474.8	-317.9	-257.3	-201.8	-187.1	-152.8	-105.3	-70.62	-43.86	2.390	10.44	22.34	-24.02	-37.70	-31.29	-12.92	135.3	476.0	23.01	-18.88	-17.14	-14.76	-15.85	-14.09	-14.22	-11.28	-11.71	-11.98	-10.91	-10.47	-9.027	-8.612	-8.657	-8.418	-6.987	-6.903	-8.051	-7.145	-7.684	-6.528	-6.261	-7.391	-6.948	-6.725	-6.796	-5.380	-5.467	-5.544	-4.294	-4.500	-5.704	-5.432	-6.326	-5.623	-6.050	-5.907	-5.941	-6.112	-5.848	-5.611	-6.185	-6.322	-6.059	-5.909	-6.006	-6.036	-6.275	-6.391	-6.518	-6.799	-6.933	-6.525	-6.524	-6.855	-5.586	-1.680
620.0	-552.0	-440.3	-336.8	-262.6	-193.6	-165.7	-145.0	-114.0	-81.47	-57.26	-24.99	-1.343	18.16	-20.92	-39.79	-31.97	-21.21	15.60	417.7	185.4	-18.75	-18.45	-14.25	-14.95	-13.30	-14.34	-10.76	-11.86	-11.98	-11.75	-10.95	-10.79	-9.106	-9.769	-8.614	-7.786	-6.609	-6.933	-7.127	-6.975	-7.349	-6.773	-7.402	-6.391	-6.797	-6.179	-5.735	-5.590	-5.371	-3.915	-4.662	-6.042	-5.273	-6.089	-5.706	-5.510	-5.545	-6.264	-6.082	-5.476	-6.020	-5.622	-6.398	-6.099	-6.023	-6.282	-5.701	-6.331	-5.933	-6.169	-6.669	-6.696	-6.466	-6.442	-6.967	-6.742	-5.717
625.0	-535.4	-436.8	-347.6	-289.4	-221.9	-171.6	-154.1	-122.4	-82.32	-57.78	-21.81	-8.848	-0.365	-18.13	-37.14	-31.14	-26.78	-14.04	196.6	392.5	-7.684	-18.28	-13.50	-12.57	-13.39	-13.07	-12.88	-11.82	-11.41	-11.01	-11.07	-11.57	-9.400	-10.02	-9.507	-8.164	-6.840	-6.055	-7.866	-7.021	-7.169	-7.426	-7.357	-6.514	-6.671	-6.077	-5.608	-6.027	-5.340	-4.422	-4.462	-5.734	-5.586	-5.590	-5.835	-5.939	-6.339	-6.133	-5.296	-5.778	-5.544	-5.825	-6.432	-5.538	-5.705	-6.485	-5.818	-6.206	-6.298	-6.309	-6.540	-6.366	-6.544	-5.905	-6.782	-7.206	-6.233
630.0	-532.9	-431.1	-364.0	-303.7	-209.1	-175.4	-152.1	-120.8	-83.62	-66.27	-45.18	-15.73	-19.60	-17.04	-29.47	-31.54	-26.65	-22.44	36.52	364.2	148.9	-17.26	-14.83	-13.56	-13.78	-12.45	-12.76	-11.87	-11.58	-10.56	-10.80	-10.65	-9.826	-9.654	-8.688	-8.029	-7.531	-7.355	-7.428	-7.504	-6.805	-7.251	-7.175	-7.060	-6.410	-5.964	-5.995	-5.493	-5.374	-4.820	-4.569	-5.738	-5.786	-5.892	-5.764	-5.598	-6.238	-5.830	-5.771	-5.577	-5.404	-5.882	-5.913	-5.843	-6.184	-6.047	-6.285	-6.142	-6.533	-6.096	-6.533	-6.485	-6.734	-6.417	-6.611	-6.974	-6.518
635.0	-548.0	-452.6	-340.9	-271.2	-191.5	-188.6	-152.0	-100.8	-92.02	-74.57	-48.85	-37.94	-34.91	-31.16	-17.79	-27.18	-28.51	-27.13	-10.41	116.9	375.2	19.10	-16.09	-14.86	-14.54	-12.89	-12.56	-12.31	-11.51	-11.20	-11.44	-11.26	-9.981	-9.600	-8.095	-8.612	-7.213	-7.226	-7.679	-7.341	-7.552	-7.311	-7.510	-7.281	-7.001	-6.810	-5.739	-5.842	-5.648	-4.712	-4.904	-5.906	-5.590	-5.889	-6.130	-5.738	-6.393	-6.135	-5.845	-6.355	-5.543	-5.540	-5.560	-6.114	-6.031	-6.057	-5.938	-5.924	-6.864	-6.185	-5.714	-6.625	-7.171	-7.040	-6.625	-7.122	-7.020
640.0	-597.0	-486.8	-354.3	-264.0	-187.3	-185.5	-152.9	-106.9	-104.4	-80.36	-63.48	-33.87	-41.94	-32.90	-10.23	-29.17	-27.27	-22.82	-19.15	13.99	339.1	140.3	-16.89	-15.25	-15.48	-13.04	-13.74	-11.12	-12.65	-11.65	-10.41	-10.31	-9.831	-9.275	-7.867	-7.917	-7.215	-7.746	-7.552	-7.585	-6.820	-7.352	-7.720	-7.214	-7.471	-6.307	-6.340	-5.844	-5.675	-4.613	-4.614	-5.752	-5.497	-5.669	-5.754	-5.357	-5.863	-5.721	-6.620	-5.837	-5.993	-5.588	-5.453	-6.335	-6.212	-6.732	-5.933	-6.486	-6.420	-6.501	-6.253	-6.062	-7.160	-7.166	-6.943	-7.299	-7.511
645.0	-529.2	-467.6	-376.1	-274.1	-219.1	-179.2	-150.8	-118.8	-91.62	-79.36	-61.99	-45.63	-29.16	-37.02	-12.58	-25.75	-27.25	-25.73	-23.19	-11.86	166.0	301.7	-9.715	-14.04	-14.24	-12.65	-14.05	-11.23	-11.83	-11.85	-11.19	-10.95	-9.179	-9.279	-8.424	-7.694	-7.925	-7.350	-6.928	-7.021	-6.666	-7.581	-7.741	-6.344	-6.711	-6.779	-6.430	-5.595	-4.560	-4.992	-4.497	-5.807	-5.478	-5.974	-5.481	-5.916	-6.072	-5.715	-6.164	-6.258	-6.314	-5.706	-6.111	-6.119	-6.527	-7.038	-6.479	-5.982	-7.073	-6.871	-6.601	-6.339	-6.310	-7.084	-7.037	-7.224	-7.292
650.0	-506.1	-471.2	-404.8	-266.5	-216.4	-175.8	-146.9	-116.6	-96.02	-78.59	-63.81	-50.10	-42.28	-42.91	-19.67	-15.25	-28.45	-26.36	-22.37	-17.77	38.99	341.9	53.94	-14.16	-15.01	-11.80	-12.74	-12.00	-12.91	-11.98	-10.01	-11.31	-10.29	-9.198	-9.500	-7.505	-7.891	-7.462	-7.851	-7.291	-6.996	-7.115	-8.073	-6.499	-6.419	-6.243	-6.115	-5.406	-5.170	-5.126	-4.658	-5.581	-5.066	-5.910	-5.533	-6.086	-6.013	-6.172	-6.362	-6.314	-6.639	-6.004	-6.213	-6.032	-6.223	-6.007	-5.771	-5.743	-6.252	-6.887	-6.548	-6.513	-6.273	-6.496	-7.338	-6.839	-7.194
