Sample:	'1
File name:	城北污水厂进水口.FD3
Run date:	'15:02:51, 08/19/2024
Operator:	horiz
Comment:	'

Instrument
Model:	F-2700 FL Spectrophotometer
Serial number:	23B8-004
ROM Version:	4J14000 07

Instrument parameters
Measurement type:	3-D scan
Data mode:	Fluorescence
EX  Start WL:	220.0 nm
EX  End WL:	600.0 nm
EX Sampling interval:	5.0 nm
EM  Start WL:	230.0 nm
EM  End WL:	650.0 nm
EM Sampling interval:	5.0 nm
Scan speed:	12000 nm/min
EX Slit:	5.0 nm
EM Slit:	5.0 nm
PMT Voltage:	700 V
Response:	Auto 
Corrected spectra:	Off
Contour interval:	50.000

Peak integration
Integration method:	Rectangular
Sensitivity:	1
Threshold:	1.000

Peaks
No.	ApexEX/EM(nm)	Height(Data)
1	250.0/550.0	162.8
2	255.0/560.0	162.5
3	270.0/600.0	439.0
4	275.0/305.0	7145
5	275.0/340.0	5680
6	275.0/610.0	449.6
7	445.0/305.0	8.293
8	555.0/305.0	28.46

Wavelength data
No.	EX/EM(nm)	Height(Data)	

Data points
	220.0	225.0	230.0	235.0	240.0	245.0	250.0	255.0	260.0	265.0	270.0	275.0	280.0	285.0	290.0	295.0	300.0	305.0	310.0	315.0	320.0	325.0	330.0	335.0	340.0	345.0	350.0	355.0	360.0	365.0	370.0	375.0	380.0	385.0	390.0	395.0	400.0	405.0	410.0	415.0	420.0	425.0	430.0	435.0	440.0	445.0	450.0	455.0	460.0	465.0	470.0	475.0	480.0	485.0	490.0	495.0	500.0	505.0	510.0	515.0	520.0	525.0	530.0	535.0	540.0	545.0	550.0	555.0	560.0	565.0	570.0	575.0	580.0	585.0	590.0	595.0	600.0
230.0	62.22	571.0	1113	304.5	21.68	11.97	10.67	10.20	10.41	10.44	10.76	9.379	8.167	7.054	5.494	4.790	3.847	3.644	3.409	3.103	2.824	2.460	2.337	2.150	1.974	1.889	1.726	1.634	1.674	1.522	1.570	1.459	1.365	1.263	1.189	1.058	1.095	0.988	0.989	0.905	0.867	0.962	0.871	0.830	0.770	0.750	1.379	3.505	4.664	3.194	1.444	0.701	0.642	0.604	0.628	0.642	0.665	0.664	0.637	0.630	0.594	0.637	0.609	0.645	0.636	0.638	0.582	0.605	0.585	0.628	0.591	0.607	0.620	0.614	0.598	0.603	0.631
235.0	68.15	175.7	731.3	961.9	452.1	35.79	12.25	11.34	11.25	10.03	9.950	9.976	8.753	7.480	5.332	4.556	3.653	4.067	3.437	3.059	2.401	2.724	2.256	2.027	2.190	1.742	1.746	1.722	1.718	1.531	1.589	1.370	1.199	1.386	1.285	1.065	1.093	1.041	1.002	0.941	0.912	0.905	0.933	0.878	0.885	0.829	0.852	1.412	2.286	3.363	4.606	4.935	2.701	1.032	0.626	0.577	0.629	0.599	0.686	0.585	0.572	0.617	0.645	0.597	0.641	0.582	0.603	0.642	0.569	0.585	0.558	0.618	0.613	0.584	0.569	0.553	0.615
240.0	73.69	85.58	234.1	1125	1798	430.7	29.08	12.94	11.81	11.25	11.22	10.11	9.143	7.317	6.214	5.122	4.266	3.718	3.364	3.120	2.940	2.760	2.282	2.158	1.976	1.987	1.939	1.813	1.718	1.353	1.503	1.437	1.274	1.338	1.269	1.129	1.052	1.019	1.076	0.943	0.874	0.933	0.999	0.899	0.849	0.948	0.712	0.961	1.065	1.445	2.924	6.766	9.338	7.377	3.357	1.005	0.590	0.731	0.706	0.613	0.632	0.596	0.691	0.643	0.631	0.637	0.579	0.608	0.636	0.596	0.604	0.607	0.643	0.597	0.573	0.622	0.664
245.0	73.68	79.35	87.32	423.5	2255	2825	371.5	22.73	13.67	13.39	11.82	10.35	9.634	8.055	6.863	5.514	4.411	4.111	3.629	3.333	3.101	2.430	2.534	2.257	2.136	2.149	1.862	1.650	1.905	1.433	1.351	1.501	1.382	1.285	1.291	1.149	0.965	1.127	1.036	0.929	0.815	0.937	0.927	0.896	0.767	0.962	0.826	0.862	0.708	0.774	1.180	2.750	6.723	13.56	16.06	10.28	3.458	0.915	0.671	0.660	0.606	0.568	0.651	0.640	0.566	0.592	0.614	0.717	0.634	0.566	0.646	0.632	0.568	0.593	0.618	0.656	0.627
250.0	63.58	75.03	107.8	138.5	789.1	3357	5448	1687	119.7	17.94	14.95	12.79	11.25	9.172	7.621	6.175	4.863	4.394	3.596	3.443	3.137	2.785	2.607	2.438	2.140	2.098	2.015	1.863	1.787	1.651	1.482	1.555	1.401	1.306	1.234	1.159	1.013	1.059	1.048	1.040	0.914	0.943	0.896	0.828	0.835	0.868	0.809	0.941	0.819	0.785	0.819	1.196	2.090	4.777	9.831	18.37	28.03	27.89	14.80	5.511	1.046	0.626	0.605	0.660	0.699	0.621	0.643	0.633	0.643	0.608	0.666	0.671	0.588	0.674	0.613	0.658	0.627
255.0	67.31	52.21	88.49	141.1	227.5	880.0	4829	9999.9	2573	148.8	20.95	17.60	12.80	10.80	8.457	6.631	5.413	4.590	3.755	3.665	3.075	2.854	2.632	2.264	2.291	2.292	2.302	1.804	1.725	1.698	1.681	1.519	1.513	1.281	1.167	1.191	1.070	1.081	1.149	1.092	0.936	0.991	0.970	0.915	0.962	0.849	0.758	0.761	0.775	0.840	0.931	1.172	1.199	1.607	2.675	4.884	10.84	27.29	56.33	34.18	24.80	7.253	0.969	0.702	0.816	0.769	0.658	0.616	0.690	0.718	0.705	0.632	0.644	0.600	0.606	0.637	0.678
260.0	72.72	60.82	59.68	132.9	181.6	245.7	1484	9865	9999.9	2048	95.01	22.51	17.08	12.26	9.682	7.169	5.784	4.754	4.120	3.588	3.244	3.260	3.084	2.578	2.442	2.492	2.268	2.002	1.927	1.867	1.852	1.629	1.675	1.395	1.282	1.203	1.000	1.020	1.165	1.071	0.987	0.995	1.053	0.911	0.985	0.882	0.897	0.768	0.781	0.754	0.833	1.316	1.362	1.135	1.198	1.695	3.062	7.613	23.83	50.96	85.76	34.37	20.84	4.051	0.910	0.791	0.769	0.729	0.666	0.772	0.691	0.740	0.614	0.721	0.702	0.670	0.724
265.0	89.50	70.54	50.84	77.71	200.5	184.8	385.1	3349	9999.9	9999.9	1567	49.45	20.69	16.09	12.13	8.369	7.222	5.646	4.986	4.329	3.517	3.488	3.145	2.879	2.827	2.613	2.396	2.155	2.165	1.875	1.855	1.691	1.647	1.330	1.358	1.373	1.238	1.201	1.175	1.196	1.098	1.116	1.124	1.066	1.050	0.912	0.945	0.805	0.835	0.694	0.762	0.947	1.172	1.591	1.487	1.148	1.373	2.523	6.114	15.15	44.54	81.95	109.2	32.76	15.62	2.122	0.909	0.806	0.955	0.848	0.708	0.743	0.584	0.634	0.718	0.711	0.741
270.0	261.9	174.2	108.7	67.65	120.7	265.8	292.4	868.3	3732	9999.9	9999.9	5621	102.4	24.35	16.56	11.23	9.034	7.102	5.650	4.849	4.124	3.699	3.479	3.085	2.918	2.781	2.375	2.366	2.129	2.134	1.971	1.793	1.814	1.707	1.699	1.527	1.676	1.572	1.496	1.615	1.599	1.586	1.450	1.497	1.362	1.316	1.119	1.063	1.008	0.830	0.747	0.812	0.937	1.133	1.564	1.811	1.867	1.842	2.332	4.388	11.26	23.74	50.36	73.69	102.0	83.58	57.53	11.38	2.222	0.926	0.845	0.813	0.729	0.745	0.728	0.775	0.842
275.0	581.3	417.8	262.7	124.1	92.74	180.8	458.2	536.1	1069	2687	9999.9	9999.9	7778	121.1	26.17	16.29	11.54	9.595	6.992	6.162	4.696	4.124	3.912	3.467	3.186	2.911	2.536	2.550	2.437	2.253	2.135	2.095	2.145	2.218	2.210	2.167	2.322	2.325	2.202	2.141	2.431	2.363	2.364	2.142	2.151	2.133	1.751	1.663	1.445	1.115	0.860	0.923	0.832	0.956	1.141	1.498	2.204	3.304	2.954	2.506	3.987	6.849	12.62	18.21	29.41	58.16	127.2	152.0	33.68	15.56	1.785	1.057	0.837	0.790	0.751	0.755	0.787
280.0	922.3	686.9	423.7	191.6	111.7	152.1	376.7	751.1	581.0	1017	3186	9999.9	9999.9	1344	83.48	22.76	14.87	11.50	8.613	7.387	5.484	4.774	4.246	3.802	3.641	2.998	2.942	2.663	2.468	2.301	2.087	2.139	2.375	2.676	2.909	2.667	2.724	2.745	2.689	2.830	2.877	3.050	3.281	3.069	2.780	2.714	2.409	2.283	1.923	1.527	1.088	1.092	0.973	1.022	1.088	1.224	1.798	2.477	3.731	4.117	3.352	3.593	5.039	6.447	8.911	15.81	42.30	99.65	147.7	146.9	28.78	9.679	1.357	1.055	0.954	0.950	0.929
285.0	1371	1031	659.0	282.4	149.6	183.3	347.7	811.3	1092	1076	1608	4359	9999.9	9999.9	1001	48.60	20.46	14.18	10.31	8.165	6.477	5.719	4.771	4.057	3.494	3.262	3.108	3.172	2.736	2.548	2.188	2.374	2.360	3.259	3.417	3.310	3.384	3.272	3.303	3.153	3.727	3.727	3.677	3.861	3.709	3.521	3.224	3.105	2.423	1.783	1.517	1.214	1.124	1.119	1.247	1.335	1.767	2.291	3.084	4.639	5.519	5.069	4.898	5.363	6.322	7.431	13.72	27.95	58.50	128.9	168.1	129.2	23.27	4.284	1.140	1.149	1.001
290.0	2023	1668	1072	493.0	255.4	284.4	494.9	950.2	1731	2277	2737	3334	5470	9999.9	9999.9	3740	68.78	21.93	14.41	10.93	8.234	6.542	5.480	4.747	4.117	3.867	3.339	3.344	2.970	2.770	2.591	2.732	2.771	3.693	4.199	4.294	4.341	4.081	4.107	4.125	4.693	4.843	4.961	5.166	5.077	5.162	4.860	4.577	3.708	2.669	2.098	1.827	1.564	1.534	1.570	1.798	2.364	2.926	3.669	4.960	6.385	8.288	9.831	10.85	11.12	11.49	12.76	16.04	22.54	39.22	65.50	105.7	127.3	99.99	87.75	16.20	5.686
295.0	2671	2340	1514	717.5	371.1	405.7	705.4	1285	2260	3649	4816	4917	4534	4189	9999.9	9999.9	5594	80.83	22.98	15.30	10.31	8.312	6.763	5.897	5.084	4.379	3.945	3.802	3.614	3.085	2.951	2.679	3.398	4.651	5.679	5.347	5.137	4.892	5.239	5.168	5.639	5.950	6.045	6.361	6.651	6.798	6.310	6.174	4.915	3.637	2.571	2.400	2.185	2.020	2.049	2.491	2.987	3.913	4.932	6.026	8.244	10.23	13.00	16.53	19.31	19.78	19.80	19.97	20.40	22.31	26.09	31.41	34.88	48.07	121.4	192.0	141.1
300.0	3065	2670	1719	827.7	456.4	485.5	822.6	1514	2637	4165	6030	6251	5060	3212	3296	9999.9	9999.9	802.7	56.56	20.64	13.80	10.57	7.785	6.767	5.747	5.011	4.450	4.236	3.765	3.506	3.229	2.842	3.565	4.473	5.652	5.661	5.616	5.410	5.629	5.515	5.993	6.262	6.639	7.233	7.735	7.908	7.208	6.860	5.581	4.090	2.932	2.571	2.471	2.233	2.370	2.681	3.332	4.300	5.879	7.124	9.235	11.60	14.94	18.46	22.17	25.48	25.85	24.16	23.17	21.77	19.20	17.05	13.51	14.24	34.48	90.49	172.1
305.0	3181	2803	1835	873.7	512.8	547.5	920.0	1639	2883	4447	6277	7145	5627	3287	1577	3372	9999.9	9999.9	644.5	35.70	18.07	12.48	9.514	7.389	6.706	5.706	4.702	4.533	3.991	3.891	3.385	3.078	3.832	4.713	5.818	6.027	5.997	5.666	5.414	5.557	6.286	6.599	6.700	7.235	7.743	8.293	7.750	7.373	5.906	4.220	3.164	3.085	2.493	2.455	2.587	2.815	3.786	4.691	6.141	8.092	10.02	12.81	15.84	19.03	22.94	26.41	28.19	28.46	26.43	22.89	19.34	14.56	9.693	7.297	10.25	22.58	52.52
310.0	3054	2716	1774	878.9	529.4	578.9	952.9	1688	2909	4435	6066	6984	6058	3515	1349	1082	3474	9999.9	9999.9	2576	48.61	18.34	12.80	9.637	7.620	6.643	5.543	5.085	4.288	3.881	3.584	3.360	3.615	4.656	5.762	5.873	5.592	5.600	5.519	5.613	6.139	6.370	6.413	6.943	7.671	7.811	7.366	7.154	5.702	4.162	3.157	3.120	2.756	2.494	2.675	3.018	3.822	4.865	6.367	8.015	10.24	13.05	16.07	19.56	22.51	24.97	26.95	27.96	27.01	24.78	21.14	14.86	9.669	6.408	5.525	7.325	13.68
315.0	2820	2508	1634	862.6	558.9	612.6	996.5	1685	2816	4249	5707	6397	5695	3875	1574	721.0	1025	2503	9992	9999.9	3975	57.67	18.86	13.17	9.315	8.152	6.375	5.812	4.950	4.355	3.823	3.591	3.985	4.586	5.362	5.850	5.274	5.305	5.158	5.243	5.587	5.866	6.379	6.343	7.359	7.553	6.853	6.671	5.646	4.130	3.325	3.119	2.793	2.710	2.838	3.174	4.312	5.200	6.270	7.655	10.27	12.74	15.74	18.57	20.91	22.78	25.57	25.29	24.82	23.28	21.06	17.16	11.14	7.422	5.269	4.641	5.482
320.0	2692	2453	1548	866.0	596.4	673.0	1047	1727	2800	4081	5377	6041	5365	3878	2001	819.9	586.6	780.1	2673	9999.9	9999.9	577.0	42.86	17.64	12.26	9.283	7.573	6.170	5.361	4.621	4.312	4.020	4.100	4.470	5.183	5.347	5.055	5.117	4.702	5.207	5.393	5.479	6.154	6.361	6.731	7.411	6.598	6.339	5.206	3.725	3.041	3.186	2.917	2.820	2.889	3.450	4.575	5.251	6.465	8.108	10.32	12.20	15.03	17.77	19.59	21.93	23.63	24.27	23.04	21.72	19.70	17.02	13.02	9.654	6.208	4.789	4.205
325.0	2649	2355	1560	890.0	637.8	722.3	1121	1781	2821	3995	5191	5790	5208	3793	2355	1103	595.3	461.0	778.3	3234	9999.9	9999.9	478.4	27.65	15.55	11.26	8.545	7.307	5.896	4.981	4.611	4.249	4.428	4.173	4.746	5.093	4.899	4.749	4.588	4.792	5.186	5.470	6.144	6.307	6.742	6.759	6.523	6.615	5.157	4.105	3.040	3.179	3.097	3.015	3.264	3.615	4.747	5.451	6.784	8.271	10.50	12.09	14.30	17.34	19.63	21.73	22.80	23.00	22.59	21.16	18.79	16.73	13.49	11.42	8.741	5.927	4.569
330.0	2634	2369	1613	981.2	717.7	816.9	1229	1902	2920	4009	5125	5662	5191	3935	2532	1532	859.2	489.6	409.3	881.4	3310	9999.9	9999.9	2003	38.73	16.63	11.39	9.408	7.378	5.901	5.132	4.618	4.385	4.297	4.891	4.790	4.581	4.641	4.699	4.634	5.235	5.579	5.890	6.149	6.667	7.080	6.542	6.676	5.428	4.103	3.423	3.342	3.313	3.216	3.574	3.850	5.205	6.192	6.982	8.663	10.76	12.70	14.72	16.89	18.71	21.11	22.06	22.04	21.80	21.39	19.06	16.97	14.20	11.96	9.365	7.988	6.908
335.0	2740	2410	1677	1062	811.6	916.4	1345	2037	3047	4128	5187	5676	5311	4210	2812	1689	1211	694.0	398.6	398.7	858.8	2414	9569	9999.9	3239	44.95	15.80	13.01	8.565	7.592	6.314	5.019	4.828	4.615	4.859	4.658	4.506	4.781	4.923	4.771	5.061	5.672	6.105	6.732	6.846	7.377	6.715	6.750	5.316	4.191	3.923	3.983	3.658	3.607	3.861	4.121	5.665	6.592	7.712	9.157	11.36	12.99	15.21	17.51	19.70	20.74	21.30	21.76	21.91	20.99	19.94	16.91	15.46	13.20	9.854	8.760	8.365
340.0	2770	2468	1736	1103	872.3	989.7	1421	2133	3127	4186	5180	5680	5393	4382	3028	1782	1244	898.5	472.3	324.3	336.2	636.9	2549	9999.9	9999.9	473.6	32.96	16.36	10.63	8.292	7.159	5.368	4.954	4.787	4.907	4.574	4.579	4.397	4.915	4.618	5.214	5.625	6.024	6.662	6.881	7.474	6.826	6.737	5.412	4.238	3.842	4.155	3.854	3.882	4.068	4.756	5.924	6.542	8.064	9.556	11.42	13.46	15.79	17.54	19.44	20.42	21.28	21.63	22.17	21.27	20.24	18.49	16.72	14.44	10.91	9.126	8.226
345.0	2788	2487	1737	1107	904.1	1034	1460	2186	3138	4226	5124	5598	5380	4476	3162	1861	1209	962.2	621.6	352.5	252.5	266.1	662.6	3226	9999.9	9999.9	401.2	24.41	13.88	10.16	7.600	6.380	5.181	4.933	5.037	4.634	4.516	4.307	4.481	4.700	5.160	5.419	6.244	6.787	6.870	6.943	6.763	6.538	5.428	4.137	3.601	4.160	3.801	3.912	4.162	4.503	5.882	7.269	8.080	9.762	11.31	13.16	15.41	17.28	19.10	19.89	21.65	21.51	22.27	21.29	19.88	18.05	17.05	14.70	11.85	9.839	7.828
350.0	2744	2480	1691	1095	925.7	1069	1490	2190	3141	4144	5026	5480	5282	4455	3256	1944	1229	893.2	740.7	519.4	311.4	244.7	292.3	830.8	3453	9999.9	9999.9	1764	32.94	13.46	9.829	7.365	6.178	5.109	4.909	4.476	4.843	4.467	4.407	4.659	4.977	5.526	6.021	6.641	6.818	7.137	6.862	6.384	5.319	4.026	3.581	4.012	3.869	3.904	4.260	4.499	6.043	7.084	7.896	9.451	11.34	13.27	15.20	16.99	18.37	19.49	20.94	20.66	21.22	21.37	19.82	18.28	17.20	15.16	11.80	9.796	8.285
355.0	2712	2358	1629	1084	929.1	1079	1499	2185	3091	4033	4872	5286	5074	4369	3256	1988	1282	907.2	721.8	691.2	487.4	328.3	280.2	348.5	888.1	2454	9518	9999.9	2749	36.23	13.60	9.342	7.420	6.145	5.093	4.535	4.404	4.375	4.523	4.738	4.860	5.408	5.940	6.592	7.025	7.007	6.356	6.273	5.149	4.026	3.286	3.777	4.027	4.018	4.359	4.582	5.999	6.672	8.030	9.235	11.00	12.73	14.31	16.82	18.03	19.30	19.80	19.76	19.82	20.30	18.38	18.41	17.19	14.63	11.99	10.03	8.976
360.0	2558	2385	1532	1030	949.4	1093	1511	2155	2997	3915	4704	5068	4931	4253	3219	2001	1317	953.8	746.6	699.9	650.5	442.2	332.7	290.1	352.5	655.9	2605	9999.9	9999.9	421.8	26.21	11.96	9.303	6.878	5.611	4.793	4.599	4.821	4.537	4.871	4.918	5.215	5.882	6.248	6.762	7.026	6.219	6.213	5.142	3.980	3.379	3.876	3.867	4.240	4.385	4.671	5.862	6.712	7.672	9.251	10.95	12.27	14.35	16.09	17.12	18.22	18.78	18.57	19.19	19.31	18.13	18.17	17.52	14.39	12.04	10.07	8.847
365.0	2496	2252	1461	1029	928.8	1096	1491	2117	2917	3770	4489	4850	4726	4115	3146	1999	1355	1005	802.5	713.4	720.6	606.6	418.9	328.6	273.7	283.1	675.4	3489	9999.9	9999.9	339.7	17.97	11.22	8.282	6.780	5.336	4.805	4.712	4.644	4.652	4.856	5.144	5.937	6.056	6.835	6.910	6.606	6.116	4.941	3.695	3.492	3.790	3.749	4.250	4.381	4.749	6.009	6.846	7.863	9.042	10.49	11.81	14.13	15.24	16.69	17.51	17.87	18.43	18.64	18.50	17.69	17.25	17.04	14.22	12.02	10.08	9.015
370.0	2350	2102	1394	983.5	922.1	1086	1466	2018	2748	3523	4168	4501	4394	3870	3021	1967	1389	1073	899.4	798.0	745.7	730.9	608.1	432.1	322.6	250.5	274.8	868.2	3565	9999.9	9999.9	1501	27.96	11.45	8.297	6.319	5.647	5.044	4.832	4.907	4.788	5.098	5.675	5.779	6.496	6.206	5.985	5.677	4.707	3.774	3.347	3.776	3.807	4.219	4.275	4.694	5.744	6.695	7.579	8.629	10.20	11.51	13.22	14.09	15.43	16.57	16.73	16.95	17.49	17.51	16.87	16.26	15.80	13.80	11.69	9.881	8.725
375.0	2218	1931	1324	962.9	912.7	1087	1413	1903	2550	3239	3816	4101	4026	3582	2856	1921	1415	1148	998.7	905.1	830.6	774.5	754.1	586.1	412.0	297.6	227.4	302.5	866.2	2453	9596	9999.9	2302	30.26	11.67	8.479	6.609	5.487	5.249	5.307	4.915	5.334	5.579	5.696	6.124	5.976	5.599	5.281	4.278	3.689	3.046	3.770	3.859	4.061	4.479	4.658	5.554	6.263	7.279	7.829	9.569	11.07	11.88	13.07	14.29	15.13	15.01	15.92	16.28	15.99	15.24	14.54	14.49	13.19	11.01	9.615	8.645
380.0	2055	1799	1253	929.1	896.2	1053	1385	1802	2405	2986	3525	3792	3716	3352	2712	1884	1426	1197	1057	972.4	898.0	821.3	774.9	718.6	507.1	347.1	244.8	199.9	279.3	612.2	2658	9999.9	9999.9	351.5	22.39	10.46	7.906	6.047	5.748	5.232	5.108	5.422	5.449	5.431	5.864	5.746	5.419	5.027	3.982	3.239	3.016	3.651	3.747	3.901	4.376	4.734	5.510	6.331	6.631	7.716	8.960	9.975	11.37	12.37	13.41	14.04	14.21	14.62	14.43	14.89	13.87	14.06	13.60	12.92	10.76	9.731	8.675
385.0	1927	1734	1155	894.6	898.7	1039	1308	1706	2248	2833	3263	3488	3455	3142	2565	1842	1430	1230	1105	1022	957.2	872.3	785.9	745.7	612.9	407.5	280.8	203.5	173.5	216.0	655.9	3392	9999.9	9999.9	272.3	14.24	9.528	7.134	6.186	5.351	5.261	5.148	5.277	5.358	5.376	5.787	5.175	5.005	4.055	3.342	2.997	3.715	3.737	3.886	4.394	4.830	5.443	6.141	6.946	7.649	8.393	9.498	10.67	11.25	12.84	12.64	13.39	13.45	13.68	13.98	13.31	13.19	12.92	12.06	10.26	9.356	8.683
390.0	1733	1566	1099	865.6	873.4	1016	1256	1602	2054	2548	2934	3147	3114	2844	2370	1773	1424	1246	1140	1067	1003	918.8	834.4	745.0	664.8	524.2	350.8	247.4	189.1	159.6	230.1	826.3	3453	9999.9	9999.9	1172	22.94	9.293	7.569	6.307	5.409	5.376	5.220	5.103	5.433	5.324	4.656	4.816	4.020	3.225	2.957	3.621	3.764	3.934	4.128	4.687	5.220	5.786	6.352	7.150	7.696	8.853	9.708	10.57	11.43	11.92	11.99	11.80	12.50	12.64	12.20	12.32	11.83	11.19	9.738	9.321	8.436
395.0	1524	1403	1001	808.6	848.1	986.2	1211	1495	1876	2286	2633	2809	2775	2561	2170	1688	1395	1254	1162	1093	1035	963.1	873.6	765.7	667.8	591.8	459.6	311.5	235.4	187.0	167.5	271.0	833.7	2431	8410	9999.9	1862	24.44	9.476	7.770	6.257	5.765	5.240	4.876	5.485	4.956	4.469	4.722	3.873	3.071	2.941	3.498	3.793	3.717	4.274	4.471	5.146	5.572	6.020	6.741	7.571	8.126	8.793	9.341	10.15	10.53	10.74	11.02	10.95	11.44	11.16	10.61	10.48	10.14	9.533	8.697	8.506
400.0	1425	1279	934.7	775.0	805.2	950.3	1175	1427	1765	2111	2397	2561	2546	2352	2034	1610	1373	1241	1158	1091	1042	976.2	885.9	782.8	678.0	586.8	526.1	380.1	278.2	218.0	174.4	165.6	264.7	598.6	2335	9999.9	9999.9	297.7	16.63	8.998	7.010	6.156	5.504	5.377	5.087	4.783	4.495	4.347	3.868	3.006	2.732	3.506	3.759	3.732	4.253	4.259	5.106	5.720	5.833	6.486	6.981	7.653	8.170	9.197	9.462	9.834	9.926	9.982	10.15	10.50	10.11	9.941	10.18	9.648	9.021	8.348	8.179
405.0	1339	1189	904.1	750.9	804.5	920.5	1127	1378	1661	1963	2226	2342	2319	2173	1892	1531	1328	1213	1138	1084	1039	971.0	897.3	796.5	687.4	585.4	529.2	450.9	325.8	249.2	200.0	161.5	153.5	201.3	571.4	3129	9999.9	7873	230.0	11.77	7.751	6.790	5.856	5.171	4.878	4.460	4.176	4.148	3.491	2.891	2.703	3.297	3.621	3.603	4.125	4.201	4.771	5.359	5.542	5.981	6.351	6.917	7.871	8.150	8.815	8.771	9.197	9.140	9.644	9.790	9.358	9.095	9.326	8.999	8.620	7.996	7.787
410.0	1165	1054	823.7	714.7	774.0	899.5	1070	1291	1531	1787	1996	2098	2074	1937	1716	1430	1262	1168	1103	1052	1007	951.9	884.3	794.6	692.3	594.6	520.2	475.3	410.0	306.9	240.3	190.2	152.2	132.5	188.8	745.4	3071	8029	6375	1080	19.21	8.122	6.289	5.474	5.029	4.608	4.164	3.946	3.481	2.916	2.644	3.470	3.496	3.538	3.904	3.990	4.684	5.080	5.583	5.819	6.102	6.465	7.346	7.709	7.961	8.230	8.219	8.418	8.600	8.664	8.455	8.550	8.751	8.375	7.772	7.685	7.289
415.0	1033	948.4	749.0	676.6	751.5	853.0	1025	1211	1412	1615	1798	1846	1839	1718	1536	1313	1179	1106	1044	997.1	957.7	919.1	855.0	779.3	693.0	601.6	522.6	460.8	446.4	384.3	283.1	220.4	175.9	136.6	118.8	221.3	723.8	1935	5809	9675	1563	21.54	7.687	6.317	5.445	4.810	4.126	3.767	3.365	2.918	2.786	3.204	3.489	3.567	3.559	3.741	4.783	5.112	5.364	5.451	6.027	6.221	6.750	6.932	7.271	7.593	7.569	7.360	7.805	7.692	7.346	7.583	7.625	7.867	6.878	6.897	6.788
420.0	951.6	883.9	720.9	646.8	720.3	814.4	994.1	1155	1317	1500	1653	1713	1676	1564	1406	1225	1111	1042	993.9	955.0	913.1	881.2	830.5	761.1	680.5	603.9	525.5	465.8	435.8	421.2	331.9	246.9	195.2	148.6	113.1	113.2	208.1	464.9	1628	7702	8253	276.3	14.18	6.881	6.006	5.066	4.084	3.997	3.533	2.969	2.794	3.044	3.144	3.440	3.458	3.795	4.530	4.769	5.031	5.573	5.893	6.148	6.233	6.416	6.884	6.910	6.722	6.951	7.004	6.964	6.831	7.101	7.418	7.369	6.745	6.448	6.460
425.0	860.8	793.7	654.0	637.1	681.6	789.2	938.0	1094	1262	1398	1541	1577	1550	1433	1297	1149	1052	994.6	946.0	904.3	871.1	833.6	798.6	735.1	670.8	599.0	530.8	472.8	428.4	416.2	381.9	278.9	212.2	163.3	123.1	99.40	101.3	142.0	395.6	2317	8325	6381	218.9	9.901	6.905	5.370	4.194	4.027	3.373	2.834	2.617	3.033	3.162	3.390	3.562	3.918	4.289	4.628	4.712	5.239	5.327	5.627	6.037	6.185	6.411	6.329	6.667	6.454	6.615	6.715	6.221	6.661	6.839	6.481	6.296	6.355	6.233
430.0	894.6	718.0	603.2	591.0	661.4	753.4	895.9	1038	1179	1309	1399	1426	1381	1297	1178	1047	967.9	924.5	881.0	845.4	816.0	788.0	756.9	702.2	646.8	585.7	527.0	479.1	435.8	406.9	387.1	333.2	247.6	185.1	143.7	111.5	90.73	83.18	127.6	547.5	2402	6051	4975	999.6	18.62	6.566	4.878	4.238	3.530	2.741	2.642	3.144	3.231	3.293	3.557	3.837	4.318	4.723	4.667	5.052	5.211	5.642	5.644	5.786	6.018	6.182	6.119	6.034	6.109	6.195	5.902	5.974	6.099	6.154	5.757	5.636	5.694
435.0	1227	645.0	562.9	556.7	621.7	723.8	865.1	1000	1111	1217	1284	1283	1238	1168	1070	949.5	890.5	848.7	815.6	785.3	760.1	737.1	712.0	669.0	622.7	569.3	524.1	483.2	445.1	410.2	377.5	350.0	298.3	216.6	164.7	130.1	102.1	81.86	77.12	158.6	563.9	1436	3939	7804	1643	21.83	6.494	4.879	4.136	2.945	2.667	3.441	3.234	3.451	3.639	3.509	4.103	4.507	4.684	4.837	4.774	5.335	5.277	5.538	5.398	5.514	5.535	5.520	5.718	5.624	5.279	5.439	5.653	5.814	5.530	5.013	5.279
440.0	1472	689.3	524.9	534.5	593.8	706.0	845.4	954.4	1055	1151	1205	1191	1146	1071	991.6	895.1	827.2	790.4	767.5	741.9	715.3	693.6	673.3	638.2	601.5	553.8	513.6	482.3	449.5	414.4	377.5	338.5	314.2	246.6	181.3	143.8	114.1	89.31	73.76	77.99	159.6	347.8	1069	5775	8182	262.8	15.12	6.056	4.812	3.455	2.979	3.282	3.226	3.247	3.681	3.723	3.939	4.370	4.484	4.637	4.974	4.966	5.260	5.217	5.272	5.362	5.126	5.194	5.126	5.254	5.100	5.262	5.319	5.469	4.901	4.990	5.159
445.0	1488	860.9	504.3	500.5	571.5	674.4	805.2	924.9	1009	1099	1136	1115	1058	987.7	915.5	824.4	770.8	741.1	721.6	691.8	673.5	654.4	636.8	614.2	571.8	537.5	503.0	475.4	444.8	412.3	377.3	332.5	308.5	273.6	201.2	153.6	124.1	100.7	79.42	67.31	74.55	107.6	264.6	1671	7544	6016	210.0	10.60	5.489	3.861	3.265	3.343	3.226	3.516	3.389	3.577	3.934	4.451	4.604	4.657	4.680	4.554	5.020	4.945	5.134	5.084	4.981	5.078	4.947	4.916	4.817	4.887	5.138	4.916	4.561	4.768	4.876
450.0	981.0	1177	552.4	463.6	526.3	629.8	761.9	875.7	939.7	1013	1031	1010	949.5	887.8	816.9	738.3	702.3	673.7	646.9	626.2	615.9	595.2	586.2	563.9	535.1	507.9	475.2	454.1	432.4	407.0	372.6	329.8	292.3	269.2	227.9	173.8	136.5	111.7	91.10	74.68	64.09	61.46	88.82	397.0	2095	4963	5706	967.5	16.75	5.151	3.772	3.825	3.501	3.457	3.422	3.606	3.889	4.249	4.411	4.429	4.557	4.588	4.627	4.876	4.818	4.687	4.700	4.713	4.461	4.464	4.274	4.496	4.411	4.330	4.256	4.286	4.495
455.0	577.3	1135	833.6	430.0	494.9	591.5	713.5	802.5	872.0	925.1	916.1	906.0	840.9	777.5	717.0	657.7	625.5	593.8	575.7	561.2	549.3	531.8	528.2	511.7	490.0	468.3	441.9	426.3	410.9	390.8	363.8	323.1	283.1	249.6	230.1	197.2	152.4	122.5	101.5	83.63	68.92	58.88	54.17	114.8	487.2	1153	3026	6591	1520	19.75	5.106	4.270	3.827	3.635	3.422	3.509	3.732	4.235	4.197	4.154	4.087	4.348	4.387	4.473	4.507	4.625	4.266	4.152	3.954	4.043	3.855	4.035	3.771	3.905	3.797	3.965	4.181
460.0	449.3	792.2	1091	477.4	458.4	552.5	678.2	760.7	814.0	848.0	840.8	820.2	758.6	700.1	646.1	596.5	555.6	539.2	522.0	505.7	498.8	485.6	480.0	471.3	451.8	434.7	415.3	400.7	390.8	373.4	349.6	313.4	275.8	242.7	216.9	201.7	167.4	127.8	107.3	89.33	74.22	61.75	49.16	54.35	131.0	274.0	754.6	3994	6594	1139	15.26	5.392	4.255	3.844	3.630	3.463	3.712	4.373	3.867	3.896	4.176	4.014	4.105	4.135	4.138	4.376	3.774	3.536	3.659	3.730	3.612	3.918	3.631	3.537	3.504	3.662	3.990
465.0	384.0	507.8	1091	687.0	425.8	514.4	628.1	706.1	749.7	782.9	781.1	754.1	690.3	642.7	589.3	535.6	507.4	487.7	476.1	457.0	456.0	443.6	437.8	427.6	418.1	400.2	390.0	379.5	366.7	357.4	334.9	302.1	269.2	237.0	204.6	192.5	176.7	137.5	110.2	93.45	77.66	64.66	51.35	42.97	53.38	79.05	182.8	1054	4972	5254	192.9	13.06	5.142	4.046	3.809	3.498	3.905	4.367	3.636	3.878	3.945	3.937	3.966	3.819	3.675	3.904	3.572	3.827	3.496	3.476	3.557	3.444	3.403	3.247	3.404	3.481	3.526
470.0	348.2	368.5	722.6	1099	508.1	461.8	563.1	635.6	673.5	702.0	691.6	652.9	608.1	560.6	516.5	467.6	440.1	426.8	412.5	400.1	397.1	388.7	383.9	378.7	371.0	357.0	347.8	341.6	332.4	326.5	306.9	280.5	251.9	222.2	193.9	173.7	165.1	146.0	116.8	95.64	79.84	65.44	52.65	42.57	37.67	37.36	55.72	247.5	1284	3305	3887	1019	18.66	5.204	4.281	3.948	3.811	4.082	3.736	3.611	3.593	3.715	3.736	3.634	3.411	3.416	3.468	3.285	3.206	3.231	3.230	3.082	2.984	3.071	3.081	3.070	3.148
475.0	300.6	294.9	386.8	1108	806.2	429.1	500.6	561.3	601.1	621.9	605.9	573.1	531.2	487.8	448.0	405.6	382.1	366.6	355.5	347.7	343.5	336.3	335.1	330.0	324.8	314.0	307.6	302.7	299.6	294.0	276.8	257.7	230.0	206.1	182.3	161.3	146.5	139.6	124.7	99.09	79.63	66.93	54.01	42.98	35.16	28.60	28.31	68.21	295.9	750.8	1557	4135	1595	25.20	4.985	4.148	3.979	4.270	3.533	3.498	3.415	3.263	3.274	3.316	3.250	3.125	2.893	2.905	2.876	2.691	2.796	2.784	2.777	2.873	2.578	2.567	2.879
480.0	285.5	267.0	274.8	768.6	1441	534.9	462.7	516.0	559.8	560.9	551.8	522.7	484.5	437.6	403.5	363.5	341.9	330.0	322.0	312.9	309.1	304.4	304.4	298.9	292.5	286.1	283.4	279.6	277.1	272.5	257.5	240.1	216.2	194.3	173.4	154.7	138.0	127.5	123.5	102.6	81.11	66.50	54.27	42.88	34.92	27.81	23.36	28.67	76.80	176.2	370.1	1995	4593	1401	20.16	5.031	4.041	4.552	3.486	3.333	3.299	3.155	3.157	2.875	3.085	2.849	2.882	2.641	2.714	2.715	2.549	2.477	2.559	2.562	2.307	2.469	2.513
485.0	265.3	252.5	241.2	435.3	1687	980.4	432.5	487.3	521.9	526.1	508.0	477.4	439.0	406.6	368.5	333.3	316.3	301.2	290.8	286.4	281.7	277.7	276.9	275.4	269.1	267.4	261.2	261.0	257.7	256.0	244.2	226.9	204.5	185.3	166.0	148.3	133.0	119.7	114.2	106.9	84.29	66.88	54.84	44.88	35.08	28.27	23.12	20.87	28.53	48.64	90.87	499.0	2855	4309	238.1	15.13	4.945	4.882	3.765	3.430	3.247	3.273	3.129	3.032	3.004	2.824	2.685	2.694	2.469	2.606	2.291	2.444	2.598	2.350	2.268	2.443	2.459
490.0	239.2	240.5	219.3	266.4	1090	2146	703.1	447.9	468.0	475.8	467.5	428.3	389.4	362.5	328.4	300.0	281.2	267.7	258.8	253.0	249.9	247.1	246.1	243.9	242.0	239.0	237.0	234.3	231.8	231.9	222.7	208.0	189.2	172.7	154.1	139.8	125.4	111.8	102.7	99.53	89.75	70.63	55.04	45.58	36.90	29.66	24.40	20.29	19.52	21.64	29.37	119.7	705.9	2162	3362	1852	100.1	7.041	4.367	3.533	3.303	3.159	3.072	2.762	2.770	2.691	2.537	2.434	2.505	2.349	2.311	2.338	2.377	2.212	2.124	2.194	2.359
495.0	217.6	218.7	215.5	218.2	457.8	2394	2022	439.7	415.6	422.9	413.4	375.0	346.4	317.9	289.0	256.8	247.1	233.1	227.8	222.9	218.8	214.3	213.4	215.5	211.1	209.9	210.9	208.5	209.2	207.0	200.6	185.0	172.2	157.0	141.2	129.2	116.4	105.4	95.50	87.38	84.25	74.50	57.64	45.93	37.67	30.60	25.90	21.80	18.76	16.70	17.17	36.55	165.5	491.2	1225	3874	1937	32.36	5.292	4.148	3.252	3.122	2.956	2.682	2.737	2.405	2.372	2.204	2.264	2.159	2.124	2.189	2.196	2.125	2.080	2.055	2.104
500.0	191.1	186.7	202.4	193.2	269.4	1565	3570	691.3	376.7	385.7	383.2	348.1	314.6	290.0	261.2	231.7	219.3	211.8	203.9	197.5	197.2	192.3	192.3	194.4	191.5	190.0	191.1	189.0	188.4	188.1	182.4	170.7	157.0	144.9	132.4	119.9	108.4	99.89	89.24	80.97	75.34	73.50	60.13	46.32	38.15	30.93	26.38	22.82	18.99	16.40	14.53	18.21	45.72	117.5	288.0	1600	4241	1898	25.98	4.590	3.403	3.209	2.990	2.752	2.589	2.320	2.250	2.083	1.992	2.110	2.015	2.061	2.030	1.773	1.867	2.043	1.873
505.0	179.4	173.3	178.5	176.6	202.6	717.4	4175	1729	361.4	359.2	345.0	316.2	282.7	261.2	237.6	213.5	197.4	192.5	185.5	177.8	179.3	173.1	172.5	174.0	174.1	170.9	171.6	170.2	172.2	172.1	168.5	155.6	144.6	134.0	123.1	112.6	102.2	92.73	82.94	75.32	69.35	66.46	61.33	47.69	38.26	32.04	26.69	22.85	19.22	17.11	15.28	14.86	19.35	35.14	72.51	385.5	2173	6671	1220	17.32	3.823	3.047	2.704	2.713	2.454	2.133	2.152	2.139	1.939	1.938	1.806	1.876	2.055	1.764	1.908	1.687	1.677
510.0	164.8	153.3	153.6	175.3	173.8	323.0	2479	4110	801.4	315.6	301.0	275.5	248.9	227.7	204.2	185.7	172.2	165.9	160.5	154.3	154.3	150.5	151.1	150.3	151.6	149.6	148.7	150.4	150.2	151.8	147.3	139.0	128.9	118.3	109.3	100.1	91.66	83.89	76.23	69.51	63.03	58.05	55.46	50.07	39.33	31.37	26.94	23.02	20.05	17.45	15.76	14.34	14.13	16.87	24.42	93.69	522.2	2984	3172	1137	96.96	4.318	3.040	2.644	2.487	2.132	2.084	1.952	1.946	1.830	1.724	1.725	1.731	1.679	1.718	1.764	1.547
515.0	134.7	132.6	125.7	157.4	158.2	207.7	806.3	4702	2760	317.3	269.9	241.4	217.1	196.0	175.0	158.2	148.2	142.1	137.7	131.0	133.7	129.2	129.5	130.2	129.2	129.7	129.9	130.6	129.2	130.8	126.3	121.3	111.8	103.3	94.93	87.48	81.13	74.95	68.42	61.98	56.44	50.98	46.54	47.54	41.83	32.18	26.39	22.69	19.93	17.44	15.74	13.93	12.89	12.72	13.40	28.38	122.6	671.9	1017	2746	1760	30.65	3.716	2.565	2.572	2.098	1.911	1.764	1.731	1.879	1.561	1.556	1.515	1.732	1.499	1.606	1.468
520.0	123.8	121.6	110.1	140.0	163.5	167.8	336.9	2866	5858	724.6	241.9	215.9	197.9	175.9	161.7	140.4	131.2	125.6	120.9	118.2	116.4	114.3	115.5	117.0	113.2	114.7	114.3	114.5	116.0	114.6	112.6	109.2	100.2	94.10	85.85	79.11	74.76	68.35	62.98	56.48	51.65	47.02	41.75	41.48	40.29	33.16	26.56	22.16	19.87	17.43	15.52	14.37	13.09	11.65	11.21	13.66	33.80	156.1	236.0	1103	2899	1335	24.01	3.069	2.796	2.163	1.971	1.746	1.820	1.605	1.499	1.399	1.451	1.495	1.317	1.391	1.421
525.0	121.3	100.8	97.41	119.3	166.4	151.8	216.4	1165	7006	2206	223.6	199.7	183.6	155.7	140.5	128.6	115.9	112.8	108.5	103.6	105.4	103.1	102.3	104.7	102.1	103.1	102.2	102.7	102.3	104.1	102.6	97.54	90.65	85.63	77.08	71.87	67.53	62.03	57.10	52.02	47.99	43.67	39.30	35.77	37.03	34.14	27.21	21.62	18.73	16.71	15.25	13.84	12.88	10.93	10.29	10.00	13.51	40.70	57.78	262.2	1385	2765	269.4	15.81	2.965	2.273	1.988	1.788	1.562	1.525	1.453	1.247	1.477	1.447	1.368	1.377	1.402
530.0	116.5	98.12	91.27	102.3	147.0	153.5	162.5	406.1	4053	6723	725.9	176.1	158.6	139.3	122.6	111.5	102.1	97.49	94.35	88.93	90.28	87.69	87.54	89.68	89.91	88.12	88.45	88.76	88.30	89.26	88.97	83.90	78.53	74.94	67.84	63.72	59.05	54.96	51.22	46.76	42.28	38.70	34.35	31.44	30.11	30.67	27.75	21.44	18.15	15.73	14.55	13.14	12.00	10.78	9.830	8.797	8.999	14.60	17.47	62.47	329.4	1193	1782	1017	21.32	3.088	2.230	1.821	1.602	1.570	1.425	1.397	1.364	1.314	1.374	1.254	1.254
535.0	107.4	91.27	81.41	78.90	109.8	154.9	140.7	210.0	1197	7449	2309	185.5	135.0	119.3	105.2	93.19	85.82	82.10	78.30	75.91	74.89	73.74	73.75	75.40	76.09	75.34	75.39	74.45	73.98	75.75	74.99	71.70	66.85	63.09	57.99	54.48	50.63	46.98	43.62	39.79	37.05	33.76	31.12	27.78	26.59	24.97	26.34	22.11	17.82	14.68	13.08	12.03	10.94	10.08	9.531	8.501	7.482	8.335	7.943	17.68	76.56	269.4	565.5	1859	1501	28.84	2.618	2.001	1.619	1.569	1.372	1.421	1.216	1.226	1.343	1.162	1.146
540.0	132.4	96.28	72.09	73.92	87.47	153.6	143.5	156.7	399.6	4312	6351	277.4	120.7	105.9	92.19	82.10	76.90	73.39	68.37	66.29	65.09	64.96	64.40	66.68	65.77	65.62	65.60	65.17	66.00	66.75	65.80	63.30	59.34	55.53	51.32	47.23	45.11	41.61	38.81	36.05	33.28	29.69	27.27	24.58	22.80	21.71	22.21	22.45	17.89	13.91	12.16	11.43	10.60	9.251	8.730	8.067	6.901	6.794	5.651	7.609	20.47	63.09	131.2	720.7	2204	940.2	22.21	2.297	1.621	1.558	1.477	1.198	1.117	1.206	1.228	1.218	1.118
545.0	131.2	105.3	77.10	69.87	75.22	127.1	153.7	136.7	206.1	1602	7668	1528	113.3	95.82	82.25	73.22	67.35	65.26	59.88	60.43	58.98	57.76	56.41	56.53	58.21	57.43	57.62	58.33	59.00	58.15	56.53	55.46	52.79	48.29	45.36	41.72	39.25	37.28	34.38	32.18	30.17	26.68	24.79	22.44	20.99	18.88	18.73	20.07	18.37	14.03	11.72	10.28	9.904	8.821	8.433	7.775	7.065	6.230	5.291	5.192	7.568	16.76	32.18	170.6	1005	1867	266.3	12.06	1.806	1.457	1.367	1.384	1.181	1.240	1.052	1.089	1.098
550.0	150.9	107.0	85.65	65.47	66.64	95.88	162.8	132.8	151.5	485.6	4202	5452	406.5	81.91	69.09	61.45	56.96	53.32	51.66	49.82	49.27	48.67	47.78	47.16	47.89	47.77	47.76	48.48	48.59	48.86	47.74	45.46	43.20	40.23	37.97	35.59	32.87	31.86	29.44	27.68	25.09	22.86	21.14	19.39	18.36	16.32	15.60	15.77	15.79	13.98	11.18	9.393	8.679	8.022	7.527	6.939	6.446	5.888	4.724	4.407	4.408	6.317	9.488	40.33	237.1	777.3	1276	697.7	19.52	2.113	1.453	1.325	1.198	1.171	1.064	0.999	0.966
555.0	167.5	116.1	81.60	61.55	57.34	79.19	136.4	153.9	127.3	202.2	1172	6631	1636	85.18	57.54	51.42	47.00	43.35	41.39	40.16	40.86	38.60	39.92	38.09	39.40	38.57	39.27	38.64	39.11	39.09	38.61	36.29	34.94	32.47	30.63	28.39	27.44	26.08	24.27	22.35	20.50	18.81	17.37	16.65	15.61	13.46	13.38	12.02	12.33	13.08	11.03	9.065	7.650	7.350	6.673	6.053	5.386	5.442	4.363	4.017	3.645	3.828	4.247	11.06	54.93	175.5	390.6	1177	867.9	27.11	1.853	1.388	1.165	1.090	1.099	0.975	0.918
560.0	179.2	122.5	98.49	62.51	53.80	63.58	109.3	162.5	124.4	148.6	358.5	3966	4871	172.0	53.27	44.61	40.30	37.32	36.47	34.10	34.40	32.34	32.64	33.70	33.02	31.60	32.61	32.42	33.37	32.34	32.34	31.07	28.95	27.24	26.45	24.19	22.74	22.16	20.20	19.52	17.58	16.82	15.22	15.12	13.75	12.30	11.35	10.67	9.858	10.80	10.28	8.574	7.009	6.256	5.860	5.240	4.938	4.720	4.257	3.835	3.333	3.169	3.080	4.485	14.19	40.97	90.30	451.5	1233	280.3	17.81	1.593	1.142	1.080	1.040	0.935	0.870
565.0	185.5	141.7	100.8	61.69	50.28	58.58	91.19	161.5	143.9	141.2	183.0	1439	6479	953.0	49.03	39.31	34.52	33.62	31.31	29.73	29.98	28.15	27.98	28.63	27.44	27.44	27.82	28.43	28.66	27.44	27.47	27.14	25.16	23.81	22.10	21.58	19.45	19.09	17.71	16.72	15.05	14.27	13.09	13.30	11.71	10.81	9.888	9.383	8.562	8.448	9.102	8.170	6.656	5.764	5.170	4.792	4.592	4.114	3.744	3.877	3.249	2.979	2.568	2.916	5.095	11.03	22.12	106.8	546.6	1047	240.7	8.139	1.326	1.179	1.031	0.935	1.007
570.0	206.7	154.2	106.1	66.32	46.90	54.27	80.31	142.2	176.4	161.7	169.4	467.7	3917	3801	118.1	35.15	29.94	28.50	25.55	25.25	24.71	23.65	23.18	23.45	22.68	22.49	22.73	23.03	23.41	22.74	22.36	21.63	20.54	19.51	18.13	16.92	16.64	15.46	14.66	13.58	12.42	11.76	10.94	10.68	9.806	9.276	8.268	7.962	7.082	6.648	7.031	7.188	6.389	5.160	4.641	4.217	3.845	3.840	3.330	3.387	3.200	2.933	2.419	2.523	3.038	4.251	6.831	25.64	129.5	448.9	716.7	356.5	16.76	1.551	1.083	1.085	1.002
575.0	214.8	181.8	112.4	70.54	47.49	51.05	77.47	121.1	203.2	205.5	216.3	283.0	1177	5051	1064	37.11	25.11	23.93	21.13	20.19	19.92	18.66	18.80	18.21	18.17	18.39	17.93	18.44	17.82	18.12	17.75	16.93	16.35	15.68	14.66	13.88	13.76	12.91	11.82	11.19	10.26	9.616	9.457	8.990	7.959	7.930	7.146	6.624	6.011	5.556	5.341	5.833	5.840	5.018	4.153	3.631	3.476	3.317	3.049	2.794	2.755	3.175	2.554	2.547	2.610	2.613	3.457	7.444	30.58	101.7	220.2	677.7	283.4	22.44	1.340	1.201	1.043
580.0	245.9	205.4	126.5	75.47	47.92	52.13	76.33	118.3	207.2	264.1	263.7	286.7	448.2	3219	3400	96.40	21.79	20.28	18.26	17.56	18.24	15.84	15.97	15.44	15.58	15.83	15.40	15.89	15.53	16.03	14.49	14.72	13.99	12.95	12.48	12.47	11.82	11.52	10.22	9.312	9.103	8.486	8.036	7.998	7.058	6.769	6.304	6.352	5.332	4.850	4.248	4.695	5.028	4.999	3.847	3.448	3.071	3.192	2.855	2.796	2.476	3.056	2.775	2.600	2.608	2.210	2.618	3.710	8.659	24.39	51.55	262.8	658.8	255.6	13.73	1.211	1.152
585.0	249.8	216.3	140.1	77.70	49.64	54.43	75.32	119.3	207.1	304.4	312.7	320.6	308.9	1261	4795	526.5	21.71	18.84	16.36	15.69	16.20	13.79	13.90	14.33	13.62	13.14	13.45	13.35	13.50	13.24	12.80	12.66	12.09	11.29	10.64	10.47	10.48	9.932	9.068	8.031	7.706	7.530	7.472	6.883	6.552	6.276	5.581	5.265	4.763	4.432	3.885	3.829	4.188	4.723	4.039	3.297	2.673	3.018	2.633	2.505	2.490	2.919	2.938	2.707	2.721	2.571	2.830	2.835	3.986	7.311	13.12	62.74	310.2	654.8	198.0	4.937	1.094
590.0	256.3	227.2	147.3	78.32	48.85	52.61	77.46	124.2	199.2	334.4	373.4	370.0	311.4	440.9	2966	2516	68.26	17.71	14.70	13.15	13.50	12.03	11.96	12.02	11.68	11.42	11.03	11.81	11.35	10.73	10.87	10.52	9.936	9.479	8.894	8.585	8.836	7.978	7.459	6.893	6.553	6.429	6.137	5.618	5.584	5.204	4.743	4.596	3.977	3.659	3.306	3.243	3.371	3.530	3.679	3.288	2.640	2.684	2.561	2.321	2.414	2.613	2.554	3.037	2.967	2.624	2.737	2.665	3.038	3.547	4.609	15.39	73.79	273.1	470.1	163.6	15.28
595.0	257.4	237.6	141.0	79.79	49.18	50.44	74.22	125.1	203.4	327.8	430.3	413.0	337.4	250.6	845.6	3615	679.7	17.96	12.38	11.57	11.61	10.63	10.26	9.574	10.02	9.662	8.810	9.548	8.962	9.199	8.754	8.350	8.065	7.680	7.450	7.408	7.211	6.433	6.268	5.920	5.402	5.106	4.981	4.878	4.702	4.536	4.178	3.950	3.649	3.014	2.927	2.640	2.628	2.555	2.998	3.321	2.806	2.618	2.289	2.076	2.223	2.344	2.430	2.765	3.101	2.855	2.743	2.696	2.771	2.574	2.687	4.738	17.60	62.00	141.4	387.6	265.8
600.0	247.6	229.6	148.1	75.48	46.95	48.86	73.93	124.7	202.1	311.7	439.0	427.8	350.1	215.1	251.0	2415	2138	49.79	11.39	10.62	10.84	8.696	8.887	8.237	8.277	8.149	8.021	8.466	7.313	8.022	7.456	7.290	7.101	6.602	6.404	6.305	6.009	5.528	5.201	4.963	4.638	4.485	4.200	4.164	4.123	3.864	3.561	3.352	3.172	2.756	2.414	2.465	2.417	2.205	2.557	2.975	2.591	2.623	2.072	1.957	2.119	2.154	2.276	2.430	2.825	2.958	2.880	2.700	2.593	2.386	2.263	2.455	5.007	14.84	32.92	148.8	427.5
605.0	251.6	211.5	140.4	76.62	44.77	48.43	71.05	113.4	192.9	307.9	427.9	440.0	349.6	206.3	111.7	912.1	3220	301.5	10.88	9.754	10.45	7.944	7.436	7.780	7.707	7.515	7.360	7.792	7.153	6.871	6.710	6.382	6.536	6.297	6.023	5.688	5.479	5.042	4.834	4.448	4.238	4.003	3.750	3.701	3.681	3.495	2.912	2.941	2.669	2.412	2.235	2.160	2.106	1.984	2.067	2.362	2.662	2.549	2.037	1.745	1.982	2.171	2.162	2.465	2.729	2.792	2.915	2.800	2.562	2.314	2.115	1.986	2.300	4.252	8.246	35.33	192.1
610.0	231.6	207.8	130.4	71.96	44.50	44.52	67.66	114.0	186.7	289.7	398.2	449.6	350.0	200.7	80.68	242.3	2142	1624	40.79	8.977	9.144	7.158	6.778	6.634	6.423	6.214	5.956	6.209	6.248	6.068	5.979	5.844	5.789	5.717	5.854	5.555	5.057	4.487	4.061	3.763	3.498	3.453	3.144	3.233	3.103	2.989	2.716	2.644	2.359	2.129	1.959	1.978	1.737	1.749	1.622	1.804	2.329	2.474	2.055	1.689	1.774	2.037	2.105	2.338	2.480	2.546	2.693	2.688	2.458	2.176	2.126	1.700	1.559	1.800	2.632	8.682	45.40
615.0	219.7	186.9	127.6	66.46	41.37	47.15	64.20	109.5	177.1	269.4	367.8	424.6	346.1	198.4	72.68	75.25	605.3	2858	438.7	9.469	8.641	6.695	6.186	5.533	5.235	5.167	5.592	5.228	5.370	5.224	4.894	5.145	5.165	4.878	5.080	4.723	4.476	4.003	3.586	3.202	2.863	2.809	2.670	2.801	2.650	2.443	2.361	2.346	2.077	1.822	1.672	1.620	1.470	1.500	1.546	1.457	1.753	2.276	2.088	1.843	1.724	1.906	2.050	2.073	2.332	2.488	2.255	2.607	2.601	2.071	1.942	1.632	1.312	1.289	1.441	2.600	10.93
620.0	217.3	173.5	107.1	66.75	39.93	42.57	61.37	101.8	166.8	250.3	332.7	387.0	341.8	195.2	71.40	37.93	155.9	2060	1404	22.83	8.264	6.033	5.535	5.008	4.822	4.469	4.389	4.739	4.365	4.331	4.430	4.666	4.525	4.450	4.204	4.137	3.860	3.556	3.083	2.758	2.532	2.661	2.236	2.610	2.413	2.255	1.957	2.054	1.872	1.630	1.539	1.426	1.445	1.486	1.342	1.288	1.503	1.897	1.826	1.787	1.763	1.721	1.853	1.963	2.007	2.314	2.242	2.440	2.420	2.353	1.822	1.504	1.276	1.104	1.041	1.356	3.255
625.0	221.4	176.2	107.7	61.75	41.79	43.83	58.06	93.79	150.9	239.5	319.4	360.6	337.6	184.0	70.66	30.63	48.09	821.7	2293	81.69	8.355	5.919	4.842	4.460	4.247	4.060	3.791	4.252	3.919	3.729	4.108	3.806	3.972	3.934	3.707	3.332	3.235	3.082	2.716	2.467	2.368	2.351	2.076	2.113	2.100	2.150	1.938	1.854	1.579	1.415	1.346	1.322	1.255	1.360	1.290	1.201	1.333	1.542	1.613	1.755	1.653	1.675	1.689	1.969	1.876	2.094	1.913	2.269	2.232	2.065	1.765	1.485	1.246	1.069	1.001	0.996	1.372
630.0	195.9	143.9	98.92	57.29	40.99	41.72	60.28	88.98	143.0	220.9	291.7	316.6	298.3	187.8	71.55	30.32	24.22	212.0	1685	1068	29.35	5.593	4.608	3.949	4.123	3.786	3.542	3.941	3.492	3.448	3.408	3.256	3.048	3.414	3.130	3.007	2.824	2.604	2.291	2.183	2.117	2.100	1.924	1.831	1.901	1.813	1.718	1.519	1.558	1.250	1.203	1.178	1.228	1.221	1.215	1.078	1.340	1.283	1.341	1.617	1.504	1.593	1.635	1.773	1.927	1.995	2.059	2.042	1.853	1.925	1.852	1.467	1.088	1.039	0.957	0.913	0.936
635.0	161.8	135.5	88.27	54.17	39.25	38.94	56.26	84.85	126.6	201.0	265.2	286.0	258.0	185.9	77.73	32.19	21.04	58.56	495.7	2008	374.4	5.640	4.287	3.783	3.858	3.698	3.179	3.471	3.016	2.836	2.933	2.630	2.822	2.616	2.628	2.462	2.356	2.443	2.179	1.924	1.878	1.718	1.760	1.633	1.574	1.545	1.518	1.255	1.328	1.066	1.092	1.031	1.046	1.071	1.004	1.004	1.129	1.018	1.276	1.322	1.256	1.467	1.551	1.623	1.770	1.711	1.811	1.852	1.760	1.703	1.615	1.502	1.182	1.024	0.933	0.890	0.808
640.0	141.9	127.9	86.91	51.15	36.73	37.38	51.34	83.15	120.0	191.7	246.9	270.7	232.6	178.6	83.88	35.60	20.97	25.08	127.0	1563	1477	12.33	4.481	3.546	3.415	3.261	2.892	3.206	2.624	2.643	2.652	2.702	2.447	2.521	2.414	2.141	2.271	2.071	1.916	1.685	1.731	1.509	1.620	1.545	1.502	1.345	1.521	1.270	1.210	0.929	0.875	0.994	1.064	0.980	1.017	0.981	1.022	1.094	1.062	1.114	1.311	1.537	1.498	1.402	1.714	1.724	1.830	1.798	1.817	1.606	1.469	1.440	1.248	0.970	0.980	0.884	0.739
645.0	142.1	118.2	84.37	51.12	35.09	36.96	50.53	78.23	119.0	174.6	232.0	251.6	218.5	165.1	92.04	38.90	22.40	18.23	38.15	672.8	2724	59.61	4.673	3.703	3.401	3.129	2.784	2.865	2.709	2.286	2.481	2.496	2.179	2.394	2.212	1.901	1.972	1.820	1.554	1.631	1.645	1.632	1.452	1.344	1.397	1.351	1.255	1.178	1.081	0.878	0.826	0.891	0.976	0.882	0.908	0.973	0.912	1.075	1.005	1.004	1.223	1.418	1.563	1.407	1.586	1.746	1.691	1.667	1.649	1.542	1.398	1.403	1.265	1.006	0.947	0.764	0.689
650.0	136.4	116.5	84.16	49.17	35.81	38.23	52.57	75.73	116.2	164.9	216.1	231.3	205.6	153.3	98.33	42.49	23.48	16.68	17.77	190.8	2812	414.3	5.409	3.938	3.348	2.602	2.267	2.746	2.341	2.390	2.529	2.422	2.086	2.081	1.943	1.899	1.741	1.668	1.420	1.324	1.453	1.452	1.424	1.235	1.307	1.155	1.234	1.167	1.028	0.824	0.801	0.934	0.864	0.876	0.817	0.847	0.950	1.061	0.941	0.978	1.221	1.299	1.459	1.495	1.449	1.529	1.498	1.545	1.650	1.532	1.334	1.237	1.152	1.102	0.898	0.821	0.802
