Sample:	'1
File name:	Default_20230208_114513.FD3
Run date:	'11:38:52, 02/08/2023
Operator:	dsjg
Comment:	'

Instrument
Model:	F-2700 FL Spectrophotometer
Serial number:	2198-001
ROM Version:	4J14000 07

Instrument parameters
Measurement type:	3-D scan
Data mode:	Fluorescence
EX  Start WL:	220.0 nm
EX  End WL:	600.0 nm
EX Sampling interval:	5.0 nm
EM  Start WL:	230.0 nm
EM  End WL:	650.0 nm
EM Sampling interval:	5.0 nm
Scan speed:	12000 nm/min
EX Slit:	5.0 nm
EM Slit:	5.0 nm
PMT Voltage:	700 V
Response:	Auto 
Corrected spectra:	Off
Contour interval:	50.000

Peak integration
Integration method:	Rectangular
Sensitivity:	1
Threshold:	1.000

Peaks
No.	ApexEX/EM(nm)	Height(Data)
1	230.0/305.0	125.3
2	230.0/350.0	281.8
3	230.0/585.0	14.14
4	240.0/265.0	180.8
5	240.0/525.0	105.2
6	245.0/270.0	160.9
7	245.0/535.0	90.97
8	250.0/425.0	348.4
9	250.0/550.0	69.90
10	255.0/280.0	215.0
11	255.0/435.0	345.1
12	255.0/560.0	57.99
13	260.0/285.0	209.6
14	260.0/570.0	45.08
15	265.0/415.0	341.5
16	265.0/430.0	341.5
17	265.0/585.0	38.54
18	270.0/300.0	344.6
19	270.0/595.0	33.34
20	275.0/305.0	399.6
21	275.0/605.0	28.81
22	280.0/310.0	370.5
23	280.0/350.0	405.6
24	280.0/620.0	25.64
25	285.0/315.0	372.9
26	285.0/630.0	18.93
27	290.0/325.0	352.9
28	300.0/335.0	264.9
29	305.0/345.0	250.7
30	310.0/350.0	230.0
31	315.0/355.0	227.6
32	320.0/360.0	235.7
33	325.0/370.0	227.7
34	330.0/375.0	229.1
35	335.0/380.0	236.7
36	340.0/390.0	217.0
37	350.0/400.0	205.5
38	365.0/420.0	177.4
39	430.0/505.0	22.97
40	435.0/510.0	18.43
41	440.0/515.0	15.56
42	445.0/525.0	12.89
43	460.0/545.0	7.394
44	545.0/300.0	1.981
45	555.0/305.0	2.118
46	560.0/310.0	2.066
47	570.0/315.0	2.158
48	575.0/320.0	2.070
49	585.0/325.0	1.922

Data points
	220.0	225.0	230.0	235.0	240.0	245.0	250.0	255.0	260.0	265.0	270.0	275.0	280.0	285.0	290.0	295.0	300.0	305.0	310.0	315.0	320.0	325.0	330.0	335.0	340.0	345.0	350.0	355.0	360.0	365.0	370.0	375.0	380.0	385.0	390.0	395.0	400.0	405.0	410.0	415.0	420.0	425.0	430.0	435.0	440.0	445.0	450.0	455.0	460.0	465.0	470.0	475.0	480.0	485.0	490.0	495.0	500.0	505.0	510.0	515.0	520.0	525.0	530.0	535.0	540.0	545.0	550.0	555.0	560.0	565.0	570.0	575.0	580.0	585.0	590.0	595.0	600.0
230.0	10.20	394.0	819.4	215.9	5.792	2.128	1.667	1.218	1.047	0.979	0.867	0.896	0.747	0.533	0.571	0.504	0.506	0.385	0.432	0.388	0.346	0.314	0.312	0.315	0.274	0.286	0.245	0.231	0.233	0.231	0.180	0.195	0.178	0.170	0.159	0.234	0.264	0.244	0.234	0.215	0.208	0.172	0.161	0.176	0.137	0.133	0.205	0.859	2.683	3.223	1.469	0.284	0.101	0.086	0.095	0.073	0.063	0.062	0.058	0.054	0.045	0.051	0.039	0.034	0.033	0.036	0.044	0.025	0.017	0.017	0.017	0.014	0.016	0.017	0.008	0.007	0.008
235.0	9.349	124.4	740.7	 1314	320.9	11.28	2.359	1.917	1.044	1.349	1.045	0.796	0.954	0.609	0.636	0.646	0.448	0.372	0.423	0.379	0.343	0.384	0.318	0.359	0.331	0.329	0.271	0.258	0.221	0.247	0.127	0.180	0.183	0.152	0.154	0.211	0.219	0.263	0.235	0.206	0.171	0.179	0.122	0.177	0.171	0.224	0.144	0.290	0.940	2.424	4.257	5.977	3.205	0.703	0.113	0.086	0.042	0.056	0.054	0.059	0.022	0.045	0.049	0.056	0.023	0.024	0.030	0.034	0.021	0.026	0.038	0.016	0.010	0.020	0.016	0.008	0.007
240.0	19.28	40.36	274.4	 1385	 1637	244.2	6.034	2.410	1.436	1.594	0.993	1.013	0.814	0.693	0.840	0.592	0.662	0.535	0.468	0.319	0.387	0.390	0.332	0.308	0.279	0.299	0.286	0.198	0.223	0.195	0.178	0.173	0.165	0.146	0.146	0.203	0.164	0.259	0.268	0.226	0.219	0.161	0.157	0.136	0.222	0.243	0.162	0.177	0.299	0.694	1.985	6.339	9.535	7.156	2.530	0.338	0.083	0.102	0.067	0.041	0.060	0.040	0.055	0.063	0.041	0.014	0.025	0.029	0.036	0.028	0.031	0.013	0.013	0.025	0.016	0.012	0.020
245.0	25.41	46.92	77.52	578.9	 2076	 1598	162.8	4.005	2.494	1.813	1.222	1.372	0.885	0.917	0.679	0.577	0.578	0.718	0.400	0.468	0.521	0.426	0.388	0.386	0.308	0.247	0.251	0.230	0.211	0.194	0.136	0.205	0.199	0.191	0.170	0.170	0.186	0.181	0.311	0.207	0.240	0.162	0.175	0.167	0.187	0.205	0.235	0.243	0.205	0.261	0.533	2.046	5.928	10.61	11.22	6.169	1.489	0.176	0.065	0.048	0.067	0.043	0.051	0.066	0.031	0.014	0.022	0.035	0.038	0.025	0.028	0.010	0.019	0.006	0.015	0.002	0.016
250.0	11.89	45.19	84.84	162.5	776.6	 1939	 1982	603.4	21.81	3.158	2.093	1.640	1.133	1.164	0.824	0.765	0.626	0.666	0.535	0.495	0.427	0.376	0.335	0.379	0.315	0.291	0.345	0.261	0.252	0.222	0.209	0.262	0.183	0.193	0.159	0.149	0.154	0.133	0.228	0.191	0.258	0.197	0.186	0.165	0.164	0.195	0.193	0.300	0.352	0.396	0.345	0.597	1.540	3.448	6.347	9.436	11.77	10.12	5.360	1.538	0.185	0.058	0.056	0.042	0.038	0.041	0.041	0.026	0.046	0.026	0.036	0.012	0.026	0.018	0.020	0.018	0.006
255.0	4.687	17.61	84.42	149.6	204.3	538.1	 1884	 2886	243.4	20.08	3.755	1.890	1.802	1.221	0.982	1.085	0.678	0.633	0.628	0.548	0.495	0.347	0.431	0.359	0.312	0.424	0.257	0.348	0.297	0.310	0.237	0.232	0.222	0.165	0.141	0.159	0.130	0.184	0.202	0.145	0.218	0.257	0.241	0.193	0.172	0.193	0.195	0.193	0.213	0.367	0.552	0.663	0.650	0.886	1.540	2.315	4.465	9.950	16.78	16.17	8.094	1.774	0.115	0.049	0.053	0.051	0.054	0.050	0.040	0.014	0.041	0.023	0.043	0.044	0.024	0.009	0.005
260.0	4.309	7.426	38.08	145.4	140.6	139.2	639.9	 2607	 2850	199.6	10.09	3.432	2.042	1.611	1.244	1.176	1.027	0.640	0.647	0.541	0.489	0.365	0.446	0.402	0.374	0.348	0.330	0.388	0.282	0.307	0.270	0.223	0.237	0.167	0.114	0.127	0.127	0.158	0.153	0.130	0.206	0.235	0.288	0.236	0.239	0.186	0.181	0.145	0.157	0.191	0.414	0.689	0.925	0.667	0.566	0.614	1.106	2.772	7.450	15.45	20.66	15.95	5.658	0.555	0.066	0.043	0.071	0.046	0.042	0.040	0.036	0.032	0.029	0.045	0.025	0.012	0.023
265.0	6.049	5.663	13.09	75.69	180.8	102.7	160.9	990.7	 3265	 1698	155.2	5.529	2.670	1.872	1.598	1.173	1.090	0.709	0.737	0.566	0.523	0.452	0.471	0.354	0.502	0.349	0.341	0.395	0.258	0.342	0.264	0.261	0.268	0.177	0.160	0.109	0.141	0.119	0.170	0.140	0.160	0.209	0.208	0.220	0.208	0.203	0.187	0.153	0.155	0.123	0.200	0.302	0.729	1.057	0.759	0.406	0.357	0.774	1.856	4.736	11.46	20.84	22.14	13.06	3.068	0.195	0.057	0.059	0.047	0.040	0.019	0.029	0.031	0.042	0.022	0.037	0.025
270.0	10.87	13.39	16.45	28.38	93.94	160.9	125.6	246.4	 1109	 2535	 2599	670.9	37.40	3.034	2.125	1.683	1.235	1.100	0.856	0.622	0.702	0.496	0.548	0.460	0.476	0.383	0.343	0.420	0.312	0.334	0.277	0.296	0.271	0.237	0.177	0.154	0.202	0.145	0.145	0.130	0.139	0.140	0.168	0.224	0.208	0.250	0.198	0.200	0.157	0.174	0.154	0.180	0.298	0.522	0.709	0.922	0.901	0.568	0.613	1.153	2.810	6.298	11.10	16.77	19.22	16.37	9.518	2.905	0.248	0.050	0.038	0.038	0.048	0.047	0.047	0.034	0.038
275.0	23.11	36.88	39.81	21.99	31.09	84.90	184.7	160.6	271.0	673.7	 2150	 4030	993.3	40.42	3.279	2.157	1.803	1.299	1.012	0.789	0.767	0.610	0.510	0.573	0.484	0.383	0.379	0.438	0.323	0.393	0.292	0.311	0.278	0.258	0.228	0.218	0.172	0.144	0.127	0.120	0.145	0.121	0.144	0.125	0.233	0.305	0.267	0.307	0.262	0.285	0.214	0.171	0.177	0.236	0.273	0.488	0.826	1.104	1.040	0.636	0.752	1.568	2.652	4.022	6.338	12.78	22.66	24.46	13.08	2.441	0.079	0.057	0.038	0.049	0.024	0.054	0.040
280.0	32.88	55.96	62.51	32.05	20.04	34.08	135.9	215.0	138.0	180.6	685.5	 2906	 4046	736.8	14.54	2.981	2.025	1.528	1.196	0.907	0.883	0.759	0.708	0.618	0.574	0.490	0.418	0.439	0.392	0.381	0.297	0.356	0.254	0.234	0.255	0.180	0.184	0.174	0.121	0.169	0.156	0.149	0.132	0.153	0.234	0.286	0.330	0.375	0.367	0.329	0.244	0.206	0.182	0.194	0.171	0.252	0.380	0.708	1.203	1.224	0.800	0.565	0.761	1.083	1.592	3.566	8.603	18.26	27.07	21.83	8.152	0.789	0.080	0.059	0.047	0.104	0.052
285.0	38.87	76.50	79.24	41.56	20.72	22.88	64.44	189.0	209.6	100.6	197.4	987.5	 3322	 3752	101.7	5.798	2.883	1.754	1.426	1.123	1.004	0.878	0.805	0.676	0.557	0.432	0.476	0.566	0.395	0.357	0.264	0.278	0.294	0.221	0.219	0.170	0.163	0.157	0.147	0.152	0.127	0.135	0.130	0.143	0.160	0.260	0.344	0.471	0.434	0.433	0.268	0.259	0.171	0.207	0.197	0.206	0.200	0.367	0.677	1.091	1.586	0.984	0.506	0.447	0.557	1.048	2.175	5.240	12.58	23.00	27.27	16.84	3.816	0.197	0.106	0.071	0.069
290.0	42.58	94.07	94.85	53.34	28.77	24.71	40.75	96.84	204.1	221.7	145.8	287.7	 1049	 2613	 3152	 1318	25.85	2.932	2.032	1.434	1.220	1.014	0.824	0.771	0.655	0.513	0.450	0.554	0.415	0.395	0.332	0.381	0.330	0.256	0.242	0.258	0.172	0.166	0.174	0.159	0.118	0.140	0.151	0.124	0.155	0.268	0.344	0.524	0.544	0.464	0.353	0.316	0.229	0.217	0.233	0.219	0.215	0.264	0.354	0.545	0.911	1.188	1.379	1.185	0.725	0.610	0.816	1.472	3.217	6.608	11.72	17.58	20.61	18.28	10.30	2.644	0.167
295.0	47.40	99.75	109.4	66.04	38.08	33.47	43.03	65.42	121.6	246.3	298.4	190.0	316.2	688.5	 1715	 3849	599.6	28.36	3.076	2.251	1.627	1.226	1.018	0.779	0.826	0.637	0.495	0.584	0.556	0.475	0.377	0.330	0.360	0.322	0.226	0.334	0.199	0.217	0.237	0.180	0.130	0.161	0.162	0.147	0.225	0.231	0.335	0.460	0.492	0.514	0.366	0.362	0.285	0.267	0.293	0.236	0.286	0.323	0.338	0.403	0.533	0.642	0.948	1.520	1.812	1.446	0.928	0.797	1.163	1.926	2.948	4.340	6.332	11.83	23.47	26.49	13.56
300.0	55.31	105.9	116.9	75.07	44.65	40.54	53.93	67.55	99.99	188.9	344.6	289.9	185.6	232.6	527.3	 2247	 3924	491.4	12.14	3.052	1.993	1.550	1.321	0.931	0.782	0.672	0.671	0.580	0.567	0.536	0.438	0.406	0.282	0.321	0.283	0.298	0.246	0.219	0.248	0.221	0.174	0.172	0.169	0.172	0.198	0.229	0.333	0.384	0.480	0.565	0.457	0.415	0.324	0.363	0.283	0.255	0.312	0.356	0.397	0.450	0.467	0.528	0.723	1.057	1.552	1.981	1.767	1.143	0.889	0.925	1.086	1.361	1.699	3.269	8.702	19.10	29.00
305.0	53.28	105.4	125.3	82.36	53.13	52.15	62.37	79.23	107.1	155.8	288.4	399.6	235.6	153.1	182.1	711.5	 2765	 3813	64.63	5.935	2.497	1.862	1.590	1.272	1.060	0.777	0.745	0.676	0.691	0.653	0.545	0.437	0.330	0.329	0.300	0.284	0.267	0.198	0.232	0.239	0.165	0.179	0.158	0.212	0.155	0.236	0.308	0.371	0.526	0.492	0.481	0.447	0.405	0.357	0.345	0.311	0.416	0.377	0.442	0.530	0.535	0.592	0.629	0.950	1.000	1.532	2.116	2.118	1.332	0.930	0.778	0.810	0.779	1.101	2.185	5.470	13.26
310.0	52.85	105.5	120.7	87.94	64.29	63.38	74.17	95.05	125.8	167.6	231.8	335.0	370.5	226.4	127.1	209.9	805.6	 2370	 3149	 1289	19.64	2.626	2.088	1.528	1.273	1.044	0.843	0.772	0.684	0.621	0.522	0.412	0.394	0.338	0.334	0.320	0.271	0.244	0.238	0.250	0.175	0.169	0.175	0.209	0.184	0.259	0.301	0.376	0.488	0.461	0.472	0.463	0.408	0.395	0.437	0.402	0.434	0.431	0.484	0.581	0.598	0.719	0.713	0.897	0.902	1.133	1.331	1.754	2.066	1.793	1.408	0.960	0.707	0.613	0.845	1.476	3.269
315.0	58.21	102.1	128.3	103.5	75.16	77.49	92.11	115.9	146.7	183.7	235.1	282.2	336.4	372.9	191.2	113.8	219.1	578.2	 1449	 3775	 1728	22.74	2.738	1.803	1.535	1.142	0.996	0.831	0.677	0.633	0.600	0.416	0.422	0.413	0.409	0.304	0.281	0.276	0.248	0.194	0.172	0.172	0.196	0.181	0.187	0.240	0.331	0.420	0.495	0.479	0.476	0.492	0.561	0.432	0.446	0.470	0.478	0.487	0.575	0.612	0.612	0.876	0.849	0.950	1.021	1.169	1.312	1.452	1.526	1.636	2.158	1.936	1.230	0.658	0.621	0.711	0.954
320.0	58.28	113.1	143.6	112.6	88.81	83.59	102.7	129.1	162.8	205.3	256.7	286.2	304.7	361.9	311.0	125.6	101.0	162.4	399.0	 1980	 4021	380.4	11.77	2.517	1.837	1.482	1.017	1.018	0.930	0.696	0.563	0.547	0.519	0.418	0.376	0.289	0.292	0.289	0.281	0.209	0.238	0.189	0.219	0.171	0.190	0.279	0.313	0.456	0.500	0.569	0.440	0.523	0.487	0.491	0.544	0.551	0.527	0.523	0.627	0.621	0.764	0.820	0.977	1.101	1.181	1.139	1.243	1.428	1.402	1.477	1.723	2.070	2.017	1.194	0.746	0.601	0.568
325.0	63.12	139.0	161.3	131.1	99.53	96.28	113.8	139.9	182.6	224.6	278.6	302.0	308.0	309.6	352.9	209.0	89.87	77.26	116.7	560.1	 2594	 3195	299.3	5.426	2.285	1.683	1.271	1.230	0.904	0.836	0.641	0.620	0.479	0.473	0.349	0.358	0.323	0.357	0.275	0.244	0.255	0.225	0.215	0.235	0.217	0.278	0.374	0.475	0.623	0.583	0.522	0.602	0.533	0.555	0.520	0.560	0.634	0.637	0.695	0.676	0.925	0.945	1.051	1.144	1.253	1.353	1.402	1.475	1.480	1.541	1.512	1.669	1.868	1.922	1.322	0.749	0.596
330.0	71.89	159.2	200.0	167.6	124.7	118.3	128.7	158.2	204.2	254.4	307.6	337.3	330.6	302.6	292.0	280.9	174.9	76.13	65.95	153.1	703.0	 2109	 2901	 1154	17.85	2.483	1.814	1.581	1.074	0.909	0.853	0.695	0.535	0.493	0.410	0.401	0.331	0.380	0.294	0.251	0.219	0.239	0.214	0.238	0.245	0.320	0.402	0.604	0.743	0.712	0.638	0.744	0.622	0.641	0.587	0.601	0.747	0.706	0.749	0.812	0.955	1.106	1.168	1.338	1.263	1.448	1.544	1.556	1.698	1.578	1.548	1.632	1.586	1.542	1.652	1.557	1.165
335.0	79.14	176.4	234.8	209.0	159.2	136.7	151.7	179.1	227.0	280.5	335.2	366.3	364.2	327.0	277.0	237.9	264.9	159.5	72.18	76.33	187.2	507.3	 1330	 3684	 1647	22.01	2.537	2.123	1.566	1.062	1.006	0.725	0.591	0.594	0.508	0.458	0.420	0.325	0.290	0.300	0.264	0.220	0.222	0.216	0.284	0.313	0.441	0.615	0.834	0.790	0.807	0.795	0.737	0.715	0.683	0.650	0.887	0.757	0.829	1.024	1.068	1.221	1.260	1.523	1.523	1.556	1.763	1.692	1.817	1.772	1.792	1.613	1.615	1.360	1.302	1.244	1.596
340.0	351.7	185.1	257.6	230.9	186.6	169.2	171.0	197.1	246.3	296.2	354.2	383.1	386.7	350.5	292.9	228.4	237.2	245.4	114.8	70.96	82.42	143.9	354.1	 1949	 3949	334.3	11.85	2.559	1.674	1.235	1.109	0.743	0.713	0.619	0.505	0.432	0.428	0.311	0.323	0.306	0.262	0.233	0.230	0.251	0.294	0.398	0.460	0.624	0.828	0.873	0.837	0.997	0.815	0.724	0.778	0.727	0.780	0.878	0.950	0.984	1.086	1.163	1.516	1.575	1.605	1.708	1.765	1.840	1.780	1.805	1.817	1.743	1.800	1.489	1.266	1.171	1.292
345.0	144.7	194.7	278.0	257.4	201.1	186.7	184.2	215.1	258.6	309.4	365.2	397.0	402.1	364.9	308.2	233.4	203.0	250.7	194.4	90.59	68.93	71.86	108.9	541.2	 2676	 2751	264.9	5.409	2.417	1.492	1.179	1.049	0.755	0.775	0.486	0.547	0.445	0.391	0.360	0.276	0.292	0.260	0.226	0.225	0.311	0.446	0.504	0.688	0.823	0.929	0.927	0.950	0.930	0.892	0.924	0.812	0.839	0.892	0.937	1.050	1.104	1.235	1.435	1.666	1.644	1.786	1.751	1.925	1.911	1.905	1.853	1.840	1.747	1.550	1.368	1.222	1.139
350.0	196.3	192.1	281.8	278.3	225.1	200.0	203.2	230.4	268.7	318.5	367.9	398.8	405.6	375.1	323.0	250.3	204.6	201.1	230.0	178.3	95.24	72.36	66.71	152.4	717.5	 2001	 2664	 1026	16.71	2.212	1.637	1.234	0.932	0.801	0.580	0.518	0.474	0.400	0.338	0.344	0.288	0.252	0.226	0.268	0.278	0.386	0.462	0.676	0.907	0.907	0.972	1.118	1.036	0.949	0.895	0.907	0.996	0.990	0.997	1.119	1.179	1.389	1.535	1.590	1.645	1.735	1.776	1.842	1.945	1.913	1.921	1.912	1.855	1.661	1.431	1.281	1.233
355.0	124.1	179.1	277.6	290.7	252.7	225.5	232.1	244.6	283.0	323.3	372.8	399.2	403.9	380.5	331.5	268.7	221.1	198.5	195.2	227.6	177.6	98.15	76.43	78.80	192.5	478.4	 1256	 3399	 1450	21.95	2.279	1.569	1.066	0.835	0.678	0.542	0.521	0.435	0.413	0.340	0.304	0.276	0.267	0.280	0.305	0.388	0.516	0.767	0.922	1.067	0.932	1.216	1.209	1.103	0.992	0.951	1.111	1.125	1.123	1.257	1.295	1.440	1.532	1.564	1.735	1.847	1.745	1.846	1.826	2.132	2.114	1.975	1.847	1.683	1.548	1.352	1.276
360.0	92.74	180.3	265.1	290.9	266.6	245.5	243.4	261.7	294.7	328.8	371.1	395.6	402.4	383.5	336.5	281.2	237.6	209.4	192.7	205.3	235.7	146.7	92.74	76.65	84.21	135.0	329.2	 1843	 3550	317.6	11.70	1.977	1.471	1.052	0.881	0.556	0.574	0.481	0.447	0.378	0.332	0.304	0.292	0.242	0.291	0.361	0.508	0.718	0.887	0.990	0.978	1.197	1.191	1.125	1.075	1.070	1.117	1.182	1.250	1.270	1.324	1.405	1.605	1.679	1.770	1.783	1.855	1.867	1.827	2.011	1.978	1.909	1.978	1.677	1.622	1.497	1.417
365.0	83.24	175.0	265.8	299.5	278.3	253.2	258.9	268.5	293.2	334.0	373.4	394.2	398.1	381.5	340.0	287.5	253.6	222.8	204.3	194.4	229.7	212.3	123.5	88.34	72.01	68.24	99.79	504.3	 2484	 2590	248.1	4.502	1.915	1.405	0.947	0.665	0.600	0.565	0.450	0.388	0.352	0.287	0.332	0.261	0.304	0.423	0.424	0.635	0.890	0.891	0.981	1.184	1.252	1.132	1.115	1.229	1.173	1.169	1.212	1.281	1.421	1.456	1.528	1.733	1.807	1.831	1.870	1.873	1.894	1.888	1.996	2.015	2.003	1.731	1.639	1.578	1.449
370.0	82.38	172.8	265.9	303.9	293.9	274.4	272.0	281.0	304.3	336.4	365.6	384.8	391.2	373.0	341.9	295.0	264.1	243.3	225.1	208.5	206.4	227.7	200.3	125.8	88.69	68.98	61.84	139.9	668.2	 1930	 2562	899.1	14.49	1.872	1.226	0.887	0.726	0.555	0.461	0.415	0.391	0.367	0.305	0.301	0.330	0.399	0.518	0.673	0.854	0.918	0.927	1.250	1.278	1.255	1.206	1.248	1.214	1.229	1.314	1.410	1.482	1.472	1.517	1.681	1.767	1.709	1.868	1.776	1.862	1.930	1.936	1.974	1.933	1.739	1.620	1.609	1.455
375.0	75.94	167.9	267.1	306.9	310.1	291.4	287.2	293.2	308.3	338.8	362.3	375.3	377.5	364.5	338.7	300.6	276.8	260.3	245.1	228.9	211.9	208.1	229.1	201.5	121.2	87.00	68.22	69.48	175.4	457.4	 1246	 3045	 1253	18.37	1.798	1.193	0.883	0.678	0.527	0.451	0.518	0.376	0.349	0.399	0.340	0.406	0.534	0.641	0.836	0.939	0.932	1.324	1.269	1.276	1.250	1.313	1.325	1.357	1.295	1.349	1.421	1.551	1.497	1.784	1.901	1.820	1.687	1.775	1.758	1.837	1.907	1.907	1.656	1.790	1.570	1.713	1.507
380.0	80.29	157.6	267.3	293.5	315.0	308.4	296.0	295.0	307.8	333.4	360.6	370.4	368.3	361.1	334.2	303.2	286.8	273.0	257.9	241.3	225.4	210.1	212.4	236.7	167.3	104.7	81.00	63.85	73.51	126.2	319.9	 1685	 3061	267.9	8.883	1.645	1.125	0.803	0.639	0.495	0.506	0.385	0.383	0.342	0.352	0.413	0.468	0.637	0.905	0.946	0.988	1.230	1.314	1.297	1.380	1.288	1.335	1.317	1.348	1.296	1.402	1.495	1.621	1.822	1.782	1.831	1.711	1.877	1.788	1.805	1.827	1.815	1.723	1.743	1.714	1.663	1.587
385.0	81.89	164.8	262.2	302.6	317.2	312.4	303.2	301.3	310.4	336.7	352.6	364.7	361.6	354.2	332.6	302.8	288.6	277.0	264.7	251.7	237.8	220.5	207.8	224.3	216.2	133.4	94.39	72.81	60.28	58.12	92.42	460.9	 2183	 2168	197.8	3.292	1.392	1.091	0.834	0.558	0.510	0.430	0.390	0.366	0.360	0.443	0.494	0.653	0.850	0.902	1.054	1.273	1.311	1.324	1.397	1.352	1.366	1.396	1.394	1.470	1.531	1.566	1.525	1.636	1.684	1.673	1.768	1.693	1.729	1.710	1.735	1.777	1.653	1.604	1.647	1.708	1.732
390.0	75.85	162.4	254.9	308.8	322.0	323.9	311.0	312.5	316.9	333.2	348.8	356.1	357.2	345.4	327.5	302.7	291.2	281.6	272.4	261.9	248.6	234.3	219.2	208.6	217.0	192.3	130.5	91.71	71.58	55.35	50.97	124.0	586.6	 1595	 1963	682.7	11.87	1.346	0.970	0.683	0.562	0.504	0.380	0.400	0.394	0.437	0.529	0.661	0.870	0.935	1.006	1.323	1.294	1.419	1.384	1.421	1.438	1.446	1.329	1.437	1.483	1.583	1.525	1.655	1.546	1.673	1.683	1.623	1.640	1.722	1.781	1.831	1.826	1.667	1.629	1.687	1.646
395.0	72.91	158.4	240.7	313.5	327.6	327.7	323.9	316.8	320.2	331.3	342.4	352.3	345.6	341.9	321.4	297.7	288.4	280.6	276.9	268.4	258.5	244.8	233.0	216.1	202.3	206.6	186.3	122.9	89.64	69.25	50.81	57.74	150.4	376.3	973.7	 2330	949.8	14.36	1.427	0.987	0.739	0.613	0.502	0.436	0.449	0.473	0.584	0.703	0.764	0.888	0.978	1.339	1.412	1.405	1.487	1.424	1.580	1.397	1.446	1.458	1.495	1.541	1.638	1.675	1.572	1.581	1.556	1.576	1.753	1.734	1.797	1.664	1.740	1.716	1.745	1.650	1.718
400.0	74.82	164.3	248.0	311.7	331.4	332.2	329.6	322.1	320.9	330.6	343.5	344.9	341.9	329.9	313.6	297.1	287.4	281.4	278.3	270.2	264.5	251.8	241.2	223.9	203.4	193.3	205.5	164.6	108.3	82.49	63.28	49.25	59.10	100.7	249.8	 1312	 2323	224.4	6.986	1.355	0.877	0.662	0.587	0.497	0.511	0.528	0.584	0.718	0.782	0.951	0.976	1.316	1.400	1.427	1.479	1.425	1.538	1.507	1.608	1.589	1.411	1.577	1.657	1.525	1.668	1.589	1.528	1.547	1.642	1.714	1.571	1.677	1.706	1.641	1.681	1.567	1.604
405.0	70.61	156.8	244.8	313.1	341.7	338.7	331.9	327.8	330.4	336.2	341.1	345.3	339.6	330.7	309.4	293.9	281.5	280.2	275.1	268.6	264.4	257.3	243.4	229.3	209.8	193.2	196.6	196.6	135.7	96.61	74.00	55.18	44.45	43.86	70.94	356.1	 1659	 1790	166.4	2.605	1.106	0.760	0.543	0.518	0.450	0.440	0.586	0.647	0.735	0.908	0.991	1.191	1.424	1.304	1.457	1.395	1.601	1.608	1.564	1.448	1.496	1.598	1.570	1.570	1.592	1.618	1.526	1.581	1.557	1.605	1.614	1.654	1.602	1.565	1.607	1.718	1.556
410.0	72.44	149.9	244.4	304.4	342.2	344.2	337.2	333.9	330.0	337.3	341.8	338.5	330.6	320.5	303.2	288.8	275.8	273.6	269.5	266.6	261.6	255.1	244.8	233.4	218.0	199.7	187.4	189.7	176.0	127.4	90.26	67.72	50.40	38.80	35.65	93.67	458.1	 1293	 1505	534.8	9.908	1.133	0.746	0.550	0.497	0.490	0.625	0.623	0.817	0.895	0.995	1.278	1.459	1.438	1.478	1.440	1.711	1.536	1.579	1.669	1.543	1.540	1.577	1.682	1.585	1.553	1.527	1.512	1.611	1.578	1.585	1.605	1.589	1.569	1.521	1.643	1.612
415.0	67.45	142.9	244.6	306.5	338.3	344.4	345.2	335.8	331.2	341.5	341.1	336.2	319.5	309.6	291.3	277.5	265.1	262.0	259.0	256.2	254.4	250.0	244.5	234.9	222.0	204.2	189.7	178.5	180.6	170.7	116.5	81.31	61.48	45.11	33.93	39.53	114.8	301.9	734.6	 1768	221.3	12.39	1.056	0.755	0.573	0.569	0.578	0.685	0.863	0.869	1.031	1.252	1.371	1.550	1.457	1.521	1.627	1.585	1.578	1.689	1.615	1.487	1.552	1.783	1.698	1.413	1.493	1.507	1.689	1.593	1.493	1.546	1.518	1.557	1.491	1.716	1.637
420.0	71.36	145.5	233.8	302.4	335.6	341.6	344.7	338.9	337.9	339.7	340.2	330.0	319.9	305.8	284.2	269.3	260.7	252.8	250.4	249.8	246.3	243.7	239.2	232.9	221.5	207.3	191.7	178.3	169.4	177.4	146.1	94.87	69.08	51.41	38.02	31.04	41.03	77.92	185.1	974.3	 1632	202.0	5.746	0.960	0.723	0.625	0.635	0.718	0.842	0.894	1.013	1.368	1.407	1.503	1.499	1.553	1.681	1.626	1.689	1.658	1.604	1.532	1.531	1.603	1.659	1.628	1.522	1.492	1.494	1.510	1.481	1.539	1.499	1.432	1.529	1.616	1.506
425.0	73.54	142.7	224.1	295.9	332.8	339.8	348.4	344.7	337.7	339.7	339.9	324.5	317.0	299.0	282.8	260.2	255.9	246.3	244.0	241.8	238.6	236.5	235.7	229.2	220.5	208.2	195.2	179.4	166.3	165.1	164.1	116.0	77.32	57.83	43.14	32.29	28.02	29.72	49.86	259.4	 1215	 1429	28.86	2.068	0.876	0.852	0.742	0.766	0.819	0.960	1.006	1.388	1.386	1.423	1.505	1.451	1.524	1.536	1.629	1.698	1.525	1.645	1.544	1.579	1.628	1.548	1.511	1.514	1.466	1.499	1.482	1.391	1.581	1.529	1.505	1.527	1.404
430.0	67.60	135.3	225.3	294.7	327.8	336.8	346.3	343.6	339.5	341.5	338.1	325.1	307.7	288.7	270.2	252.4	244.4	234.6	232.2	229.4	228.0	229.6	226.2	224.9	217.4	208.2	196.4	184.4	168.9	157.7	155.2	139.7	98.77	68.21	50.02	37.91	29.31	22.57	22.28	66.00	325.1	952.6	 1180	421.0	8.922	1.103	0.815	0.871	0.892	0.849	0.972	1.313	1.384	1.405	1.444	1.563	1.562	1.670	1.567	1.571	1.552	1.688	1.608	1.644	1.614	1.529	1.441	1.408	1.458	1.436	1.376	1.403	1.400	1.438	1.469	1.407	1.496
435.0	81.91	136.5	208.8	287.0	321.5	334.5	342.0	345.1	341.1	340.9	340.7	325.8	302.6	280.3	262.4	241.4	232.8	224.2	219.9	217.1	216.8	218.7	219.8	217.2	210.9	205.0	196.6	185.7	171.7	159.5	146.0	136.3	124.3	85.46	58.84	44.14	33.98	25.22	19.09	25.02	79.66	221.3	576.2	 1454	206.6	10.54	1.081	0.946	0.916	0.934	1.009	1.156	1.350	1.430	1.475	1.516	1.529	1.589	1.634	1.634	1.542	1.710	1.605	1.687	1.538	1.618	1.431	1.410	1.434	1.460	1.401	1.393	1.405	1.417	1.421	1.401	1.409
440.0	97.26	131.3	210.5	277.3	311.2	331.6	340.9	340.9	339.7	339.3	336.2	326.7	296.1	270.9	251.5	234.9	224.5	214.9	213.7	209.2	207.9	208.6	210.9	208.9	208.4	199.4	195.0	185.4	173.7	160.1	143.6	129.7	125.3	103.0	67.95	48.05	37.87	27.89	20.46	17.45	26.01	55.61	145.3	876.0	 1429	175.1	3.369	1.207	0.972	1.129	0.957	1.203	1.394	1.418	1.442	1.589	1.453	1.572	1.548	1.531	1.526	1.699	1.694	1.555	1.499	1.525	1.485	1.475	1.411	1.399	1.415	1.303	1.331	1.307	1.257	1.314	1.402
445.0	122.6	130.0	206.4	263.3	303.3	323.3	335.5	343.0	336.0	334.7	331.6	316.7	287.9	266.5	244.1	226.2	214.3	207.8	204.2	200.0	200.6	201.6	201.3	200.7	200.2	196.5	190.3	181.4	173.1	159.9	143.6	124.9	116.4	112.5	79.97	52.96	40.71	31.05	22.47	17.63	15.24	19.38	38.14	246.0	 1185	 1191	23.65	1.744	1.113	1.039	1.073	1.188	1.396	1.445	1.411	1.466	1.492	1.553	1.476	1.574	1.639	1.570	1.816	1.574	1.608	1.503	1.432	1.472	1.376	1.327	1.347	1.288	1.257	1.362	1.259	1.383	1.308
450.0	143.1	201.9	197.4	249.7	290.8	312.2	324.6	330.7	325.4	328.0	319.9	303.7	277.3	252.5	232.2	212.7	202.6	194.1	190.2	187.0	185.2	187.5	188.9	187.4	188.7	184.2	179.6	174.0	166.9	157.5	141.6	123.9	107.4	101.2	91.27	65.01	45.55	33.99	25.56	19.96	15.08	13.24	15.19	60.23	326.0	900.6	 1042	343.2	7.202	1.212	1.124	1.227	1.368	1.354	1.476	1.459	1.453	1.503	1.525	1.584	1.572	1.601	1.659	1.529	1.491	1.357	1.380	1.427	1.348	1.290	1.264	1.194	1.292	1.243	1.159	1.255	1.242
455.0	96.94	343.7	238.9	230.7	275.9	289.1	307.4	315.0	312.6	308.6	302.8	286.7	263.7	237.6	217.6	195.1	187.8	179.8	173.0	171.8	169.8	171.0	173.0	173.1	174.9	170.0	168.8	164.4	157.6	149.8	138.0	121.9	104.0	89.35	83.33	77.80	54.90	37.31	28.30	21.97	16.85	13.68	11.21	19.41	77.37	208.8	542.5	 1226	171.0	7.826	1.279	1.289	1.215	1.288	1.417	1.366	1.454	1.468	1.440	1.472	1.459	1.414	1.498	1.597	1.371	1.266	1.410	1.353	1.345	1.219	1.302	1.235	1.233	1.206	1.100	1.120	1.181
460.0	62.86	376.0	379.6	229.0	257.9	278.6	292.8	293.2	296.1	296.9	287.9	273.5	243.1	221.1	203.7	184.1	174.4	168.8	163.1	160.4	158.4	159.3	160.5	162.0	161.9	159.9	160.7	154.6	149.6	143.6	132.8	118.4	101.6	84.84	76.12	75.56	64.12	41.53	29.99	23.43	18.22	14.53	11.23	10.93	22.65	50.76	137.3	769.4	 1094	124.5	2.861	1.425	1.259	1.344	1.274	1.255	1.353	1.355	1.448	1.545	1.385	1.443	1.427	1.468	1.356	1.255	1.378	1.369	1.202	1.152	1.145	1.137	1.095	1.065	1.054	0.982	1.010
465.0	51.09	302.7	582.4	273.9	244.1	267.8	272.0	280.4	285.7	282.8	275.8	261.5	233.6	211.5	192.8	173.4	164.0	156.4	151.0	148.2	148.2	148.0	150.1	151.4	150.7	149.1	149.4	145.5	141.2	135.2	126.2	113.8	98.16	82.70	70.95	67.09	66.74	47.95	32.00	24.26	19.77	15.87	12.14	9.852	10.82	16.10	34.65	216.2	935.4	872.4	18.14	1.937	1.391	1.263	1.266	1.258	1.388	1.409	1.423	1.335	1.396	1.437	1.262	1.321	1.388	1.237	1.281	1.224	1.110	1.142	1.149	1.091	1.040	0.965	1.007	0.855	0.842
470.0	42.33	150.6	619.0	536.2	241.0	246.5	255.3	260.0	262.1	261.1	255.2	241.5	216.6	194.9	175.1	157.7	146.9	140.6	135.6	134.2	131.4	133.2	135.2	134.5	135.4	135.0	133.7	132.5	129.8	126.4	117.6	105.6	92.83	78.09	67.89	58.78	56.50	52.98	38.26	26.21	20.57	16.71	13.35	10.74	9.029	9.018	12.02	52.01	256.8	673.7	758.4	283.2	7.111	1.305	1.343	1.182	1.350	1.319	1.245	1.255	1.252	1.346	1.154	1.229	1.228	1.155	1.157	1.035	1.131	1.065	1.041	0.973	0.985	0.870	0.945	0.852	0.865
475.0	41.61	88.50	340.3	948.2	410.2	218.7	235.4	241.1	242.8	237.0	234.6	220.1	196.0	178.0	158.4	141.6	132.1	126.5	121.6	119.0	117.6	118.0	118.9	120.7	120.1	120.8	119.8	118.3	117.1	114.7	107.5	97.23	86.29	73.39	63.65	54.41	47.78	46.89	43.98	30.98	21.51	17.62	13.98	11.31	9.406	7.873	7.308	15.58	60.24	155.9	372.5	937.3	160.5	6.899	1.292	1.222	1.274	1.212	1.164	1.242	1.224	1.229	1.132	1.107	1.050	1.110	0.977	0.997	1.041	0.937	0.924	0.921	0.879	0.875	0.900	0.891	0.827
480.0	43.53	79.80	180.4	882.1	785.8	221.8	216.5	224.0	226.8	220.6	216.3	204.8	182.6	165.8	145.7	132.8	124.2	117.5	111.5	108.4	107.6	109.0	109.8	110.9	110.7	111.6	111.1	110.0	109.1	106.1	100.7	91.08	80.92	70.39	60.62	51.85	44.79	40.81	42.45	36.31	23.39	17.60	14.41	11.77	10.01	8.283	6.743	7.787	16.94	37.66	93.36	526.2	794.9	130.0	2.815	1.304	1.306	1.173	1.038	1.139	1.132	1.082	1.038	1.070	0.969	0.982	1.047	1.007	0.950	0.921	0.909	0.837	0.814	0.783	0.744	0.733	0.808
485.0	42.64	76.98	133.0	543.2	 1138	319.7	202.7	211.4	211.5	210.7	204.6	194.1	175.4	154.7	137.5	121.1	113.6	108.1	104.1	101.1	100.2	99.40	101.0	101.4	102.5	103.9	103.1	100.8	101.1	99.99	94.49	84.72	76.63	67.39	58.09	50.76	43.60	37.79	37.13	37.42	27.60	18.98	14.91	12.27	10.39	8.778	6.943	6.219	7.557	11.45	23.33	140.2	656.1	713.2	21.85	1.759	1.239	1.125	1.113	1.003	1.059	1.064	0.980	1.064	0.988	1.012	0.964	0.966	0.884	0.851	0.898	0.839	0.723	0.734	0.659	0.706	0.749
490.0	38.83	76.98	109.1	245.3	972.1	810.7	216.0	188.3	191.6	192.7	186.3	178.0	157.8	140.7	123.2	112.5	103.0	97.28	93.09	90.48	90.60	90.24	90.03	91.29	91.50	92.25	92.17	91.69	91.56	90.14	85.73	77.34	70.88	62.73	53.92	47.08	40.85	35.11	32.19	32.12	30.94	22.86	15.83	12.91	10.82	9.282	7.385	6.476	5.745	5.720	7.931	33.75	175.6	502.7	635.1	99.56	6.970	1.197	1.067	1.063	1.012	1.010	0.970	0.910	0.873	0.910	0.892	0.835	0.793	0.818	0.751	0.714	0.738	0.679	0.669	0.654	0.660
495.0	28.59	78.66	102.7	144.7	448.2	 1160	367.7	166.1	172.8	172.2	169.2	159.1	143.2	125.0	108.3	100.8	91.18	86.64	83.16	80.22	79.56	79.30	79.72	79.70	80.96	81.85	81.53	81.61	80.49	80.18	76.01	70.14	63.27	56.41	49.81	44.00	37.91	32.53	29.17	26.62	26.95	26.58	18.76	13.35	11.21	9.409	7.881	6.771	5.566	4.793	4.694	10.08	41.33	116.7	355.4	768.8	168.8	6.712	1.103	0.980	0.932	0.947	0.895	0.909	0.816	0.853	0.760	0.747	0.741	0.722	0.696	0.660	0.584	0.613	0.667	0.650	0.619
500.0	25.11	73.44	105.4	116.1	208.8	965.4	833.7	176.0	159.5	155.1	155.3	145.0	132.3	115.8	100.9	92.30	83.98	77.93	75.68	72.33	72.42	71.05	71.74	72.67	73.09	74.08	72.77	73.22	73.16	72.35	68.37	64.04	58.47	51.38	45.86	41.27	35.77	30.79	27.35	23.70	22.78	25.31	22.23	14.54	10.90	9.219	8.321	6.956	5.808	4.841	4.138	4.819	11.40	27.98	89.57	454.5	742.0	133.4	2.485	1.037	0.862	0.872	0.887	0.887	0.762	0.790	0.721	0.643	0.700	0.655	0.626	0.619	0.519	0.580	0.580	0.571	0.572
505.0	23.59	56.70	114.4	103.2	139.4	540.5	 1154	287.0	144.6	142.7	141.1	130.7	118.0	105.5	93.51	82.89	76.40	70.90	67.62	66.51	65.53	65.28	65.73	65.30	66.83	66.65	66.20	66.48	67.12	65.90	62.89	58.01	52.97	48.13	42.33	38.10	33.73	29.11	25.76	22.41	19.99	21.95	22.97	16.89	11.51	9.572	7.916	6.769	5.843	4.964	4.086	3.818	4.733	8.463	21.92	122.8	576.6	622.9	23.09	1.359	0.900	0.823	0.806	0.787	0.726	0.729	0.679	0.622	0.600	0.637	0.532	0.573	0.530	0.531	0.481	0.548	0.545
510.0	21.89	44.66	89.20	107.8	106.6	225.8	890.1	803.8	164.8	127.5	124.1	117.1	103.8	93.25	82.35	72.60	66.91	61.92	59.75	58.18	57.14	55.96	56.35	56.29	57.78	57.53	56.97	57.46	57.88	57.42	55.25	51.25	46.65	42.00	37.75	33.73	29.78	26.14	23.35	20.35	18.38	17.23	18.09	18.43	13.58	9.473	7.810	6.733	5.727	4.829	4.242	3.629	3.343	3.964	6.678	29.15	152.9	428.4	507.3	105.4	6.486	0.887	0.735	0.727	0.646	0.654	0.612	0.622	0.537	0.482	0.553	0.504	0.491	0.529	0.429	0.476	0.408
515.0	18.57	40.48	70.11	109.4	96.60	122.8	364.5	 1066	440.6	112.1	108.1	100.4	88.92	80.85	71.98	63.34	58.09	54.09	52.14	49.78	48.09	47.95	48.45	47.93	48.84	48.14	49.53	48.93	49.35	49.28	47.60	44.83	39.86	36.67	32.89	29.22	26.13	23.18	20.96	18.74	16.30	15.03	13.83	15.42	15.56	11.36	7.665	6.524	5.275	4.662	4.015	3.634	3.127	2.973	3.130	8.075	35.54	98.54	252.6	554.4	159.8	5.675	0.691	0.655	0.638	0.601	0.555	0.511	0.451	0.482	0.437	0.427	0.432	0.340	0.352	0.359	0.395
520.0	18.72	28.99	56.13	103.9	98.43	91.97	159.5	797.8	857.4	125.8	99.02	90.52	80.63	71.49	63.52	56.98	52.29	48.44	45.91	44.66	43.26	43.04	43.32	42.18	42.73	42.67	43.38	43.83	44.45	43.89	42.27	39.65	35.72	33.21	30.03	26.79	23.78	21.18	19.25	17.33	15.23	13.49	12.17	12.33	14.88	12.42	8.437	6.470	5.339	4.601	3.982	3.621	3.145	2.701	2.479	3.387	9.364	23.35	62.16	319.9	532.0	26.29	1.843	0.767	0.609	0.610	0.538	0.496	0.428	0.487	0.402	0.380	0.391	0.351	0.344	0.297	0.320
525.0	14.83	24.34	47.09	85.90	105.2	80.70	100.7	416.7	 1092	223.5	90.62	84.75	74.80	65.07	56.83	51.83	47.01	42.66	40.66	39.42	38.81	38.32	38.24	37.72	38.13	38.80	38.75	38.60	39.14	38.32	38.01	34.96	32.03	30.11	27.22	24.02	21.91	19.20	17.56	15.65	14.23	12.61	11.35	10.53	12.31	12.89	9.693	6.095	5.080	4.529	3.872	3.425	3.053	2.566	2.429	2.373	3.517	6.456	15.05	84.70	391.8	422.7	22.45	0.974	0.604	0.556	0.513	0.464	0.324	0.392	0.375	0.430	0.343	0.377	0.305	0.352	0.258
530.0	12.63	22.13	39.65	61.23	96.15	83.85	78.02	163.7	753.6	761.5	125.3	72.34	64.88	57.75	50.80	44.84	41.02	37.95	35.52	34.12	33.43	33.35	33.26	32.94	32.88	33.16	33.73	33.39	33.65	33.58	32.71	30.36	28.40	25.99	23.61	21.16	19.58	17.35	15.75	14.06	12.60	11.42	10.02	9.357	9.290	10.67	10.57	7.390	5.117	4.143	3.657	3.235	2.813	2.738	2.346	1.987	2.034	2.647	4.509	19.89	102.3	286.6	284.8	98.74	5.490	0.539	0.509	0.476	0.351	0.402	0.333	0.331	0.312	0.290	0.244	0.308	0.252
535.0	10.82	24.64	35.43	45.73	73.13	90.97	65.21	83.62	281.4	912.4	455.3	63.47	55.66	48.57	43.25	39.22	34.71	33.07	30.17	29.34	28.21	28.16	28.77	28.01	27.32	28.51	28.00	27.38	28.19	28.39	27.56	26.13	24.17	21.95	20.43	18.48	16.85	15.23	13.96	12.42	11.06	10.01	9.174	8.252	7.769	7.745	9.214	8.826	5.751	4.098	3.320	2.944	2.505	2.435	2.264	2.070	1.762	1.699	2.123	5.432	23.56	65.61	146.0	387.9	146.4	4.562	0.587	0.425	0.311	0.358	0.325	0.233	0.256	0.261	0.282	0.258	0.258
540.0	11.79	19.41	27.19	40.37	56.72	85.58	62.31	62.90	113.7	618.0	828.1	92.71	49.68	43.19	38.32	34.40	31.03	27.70	26.77	25.71	24.34	25.22	24.62	24.69	24.54	23.49	23.84	24.72	25.11	24.72	24.21	23.53	21.56	19.80	18.35	16.40	15.15	13.68	12.35	11.36	10.14	9.047	8.428	7.685	6.771	6.524	7.121	8.599	6.786	4.368	3.203	2.835	2.487	2.313	2.126	1.947	1.671	1.331	1.527	2.109	6.058	15.34	35.77	211.2	384.4	26.61	1.578	0.434	0.324	0.302	0.284	0.247	0.194	0.253	0.241	0.261	0.204
545.0	10.23	19.23	26.78	32.71	45.45	72.56	68.41	55.34	65.85	299.8	942.6	179.6	44.19	38.61	34.52	30.01	27.90	25.52	24.54	22.76	22.29	22.41	22.09	21.57	21.82	21.15	22.41	21.51	22.50	22.16	21.90	20.56	19.25	17.81	16.28	15.07	13.69	12.39	11.20	10.05	9.079	8.728	7.639	6.850	6.365	5.714	5.528	6.941	7.394	4.936	3.113	2.594	2.452	2.054	1.965	1.818	1.699	1.343	1.379	1.220	2.148	4.185	8.669	55.15	268.8	304.9	21.98	0.688	0.316	0.252	0.300	0.234	0.200	0.241	0.208	0.267	0.205
550.0	9.948	18.21	25.97	28.49	37.84	52.17	69.90	50.50	48.98	111.3	562.8	664.4	83.98	33.73	29.47	26.20	23.38	21.93	21.04	19.83	19.37	19.39	18.78	18.69	18.57	18.42	18.98	18.41	19.15	18.64	18.65	17.43	16.36	15.01	13.90	12.86	11.84	10.67	9.805	8.671	8.267	7.524	6.608	6.119	5.497	5.004	4.616	4.920	6.043	5.644	3.722	2.658	2.383	1.931	1.766	1.654	1.663	1.576	1.246	1.119	1.221	1.561	2.553	12.87	69.45	197.5	224.1	89.43	4.729	0.341	0.288	0.213	0.192	0.194	0.183	0.235	0.206
555.0	8.996	15.15	25.09	27.23	29.55	35.83	57.29	57.24	42.48	56.43	189.7	663.6	401.0	30.41	24.62	21.77	19.23	18.63	17.62	16.99	16.40	16.37	15.37	15.61	15.71	15.56	14.99	15.36	15.72	15.78	15.53	14.86	13.69	12.86	11.42	10.88	10.22	8.826	8.411	7.296	6.894	6.187	5.895	5.388	4.895	4.496	4.069	3.731	4.202	4.836	4.444	2.889	2.001	1.783	1.589	1.556	1.388	1.352	1.272	1.004	0.960	0.880	1.116	3.405	15.99	45.05	103.2	269.1	115.2	3.174	0.300	0.238	0.202	0.156	0.143	0.165	0.148
560.0	6.823	15.32	24.60	23.29	25.69	30.96	44.34	57.99	36.86	39.34	70.30	404.9	674.7	65.00	22.27	18.90	16.93	16.09	14.67	14.69	14.15	13.70	13.50	13.03	13.44	13.18	12.83	13.40	13.76	13.39	13.24	12.51	11.99	10.72	9.747	9.579	8.672	8.144	7.216	6.422	5.958	5.361	5.077	4.548	4.144	3.959	3.446	3.210	3.236	3.626	4.393	3.250	2.016	1.577	1.501	1.299	1.233	1.226	1.143	1.110	0.925	0.800	0.721	1.249	4.059	10.42	25.12	140.4	258.7	25.75	0.991	0.226	0.166	0.142	0.187	0.130	0.106
565.0	9.983	13.77	21.93	19.39	22.08	26.44	32.51	53.39	40.19	32.51	39.38	176.4	685.3	241.7	19.45	16.36	15.48	13.33	13.18	12.37	12.25	11.57	11.44	11.47	11.39	11.35	11.28	11.51	11.49	11.43	11.20	10.52	9.819	9.524	8.526	8.060	7.068	7.138	6.206	5.694	5.205	4.833	4.358	3.993	3.876	3.572	3.081	2.817	2.561	2.517	3.510	3.528	2.345	1.481	1.360	1.161	1.216	1.016	0.906	0.985	0.960	0.718	0.587	0.678	1.318	2.763	6.061	35.78	168.7	197.4	19.79	0.400	0.137	0.128	0.129	0.104	0.114
570.0	7.321	13.31	18.35	17.57	18.11	20.27	24.35	39.02	45.08	29.45	27.30	61.51	358.7	529.4	58.07	12.89	12.16	10.78	10.32	9.868	9.637	8.954	9.272	8.973	8.724	8.706	8.846	8.878	9.101	9.215	8.991	8.218	7.877	7.260	6.564	6.211	5.634	5.455	4.811	4.522	4.139	3.837	3.558	3.121	3.014	2.798	2.532	2.337	2.085	1.904	2.132	2.819	2.588	1.611	1.186	0.994	0.991	0.844	0.730	0.829	0.911	0.700	0.531	0.531	0.675	0.960	1.727	8.333	42.92	119.6	147.0	55.45	2.715	0.174	0.158	0.103	0.090
575.0	5.252	12.21	14.32	14.24	14.38	14.91	18.12	25.97	41.86	29.84	22.50	29.63	111.2	441.3	331.8	12.57	9.367	8.266	7.989	7.637	7.594	6.991	7.083	6.970	6.703	6.584	6.536	6.694	6.569	6.789	6.768	6.180	5.831	5.698	4.976	4.805	4.236	4.213	3.836	3.521	3.432	2.939	2.566	2.552	2.298	2.279	1.991	1.792	1.642	1.487	1.411	1.668	2.247	1.899	1.211	0.952	0.781	0.705	0.631	0.672	0.687	0.736	0.593	0.478	0.464	0.550	0.725	2.150	9.807	27.16	61.23	145.1	27.16	1.907	0.160	0.096	0.127
580.0	6.592	10.72	12.93	13.07	12.23	13.35	13.85	19.40	32.35	36.17	20.90	21.20	37.90	241.9	509.5	48.82	7.544	7.026	7.051	6.431	6.267	5.643	5.643	5.722	5.469	5.484	5.241	5.426	5.314	5.477	5.698	5.007	4.795	4.491	4.086	3.818	3.608	3.312	3.109	2.743	2.712	2.549	2.083	2.019	1.887	1.814	1.648	1.491	1.419	1.225	1.147	1.113	1.644	1.851	1.360	0.886	0.693	0.615	0.570	0.596	0.515	0.515	0.648	0.433	0.417	0.410	0.380	0.708	2.417	6.295	14.67	73.50	127.9	22.69	0.638	0.113	0.111
585.0	5.580	10.67	14.14	11.41	10.86	10.91	12.16	14.73	24.31	38.54	21.29	17.80	20.48	97.81	464.6	204.5	7.037	5.751	5.499	5.453	4.932	4.895	4.544	4.661	4.862	4.575	4.561	4.666	4.435	4.803	4.288	4.336	4.246	3.722	3.525	3.181	3.020	2.724	2.482	2.239	2.122	2.140	1.916	1.752	1.580	1.502	1.518	1.284	1.104	0.985	0.915	0.846	1.112	1.508	1.418	0.902	0.590	0.588	0.534	0.450	0.463	0.421	0.579	0.491	0.416	0.375	0.394	0.442	0.766	1.595	3.458	18.73	85.40	105.1	16.14	0.251	0.077
590.0	5.138	10.21	11.43	10.26	9.533	8.853	10.07	11.49	16.66	33.08	28.37	16.49	15.00	32.48	220.1	396.5	42.38	4.648	4.440	4.252	4.089	3.778	3.852	3.824	3.742	3.830	3.546	3.585	3.451	3.623	3.656	3.487	3.349	2.928	2.830	2.539	2.344	2.255	2.000	1.802	1.841	1.682	1.488	1.399	1.283	1.186	1.154	1.079	0.917	0.778	0.809	0.718	0.745	0.941	1.181	1.044	0.735	0.513	0.411	0.411	0.371	0.379	0.408	0.419	0.429	0.321	0.299	0.329	0.383	0.553	0.977	4.312	21.72	61.41	85.03	18.05	1.608
595.0	4.479	8.461	10.77	8.754	9.421	8.010	8.495	10.96	13.04	21.86	33.34	19.25	14.13	15.41	63.39	290.8	259.6	5.528	3.561	3.429	3.442	3.070	3.192	3.096	2.845	2.813	2.953	2.942	3.000	2.658	2.735	2.753	2.442	2.333	2.155	2.042	1.770	1.861	1.613	1.518	1.355	1.387	1.194	1.190	1.031	0.920	0.915	0.849	0.714	0.604	0.636	0.577	0.619	0.637	0.831	1.033	0.881	0.569	0.368	0.416	0.299	0.276	0.306	0.367	0.411	0.335	0.239	0.255	0.212	0.267	0.393	1.114	4.959	13.95	34.53	80.06	25.21
600.0	5.644	9.553	10.67	7.330	7.039	6.794	8.825	9.175	11.40	16.43	31.44	23.64	13.25	11.67	20.08	143.7	384.6	37.40	2.880	3.003	2.710	2.738	2.719	2.587	2.734	2.282	2.343	2.276	2.397	2.259	2.198	2.445	2.065	1.800	1.762	1.620	1.448	1.411	1.358	1.187	1.153	1.105	0.972	0.957	0.956	0.838	0.770	0.719	0.632	0.518	0.500	0.454	0.432	0.440	0.489	0.797	0.782	0.633	0.320	0.345	0.294	0.265	0.269	0.294	0.275	0.368	0.293	0.256	0.204	0.194	0.238	0.393	1.199	3.202	8.179	41.19	72.26
605.0	4.970	8.032	8.826	7.617	6.153	6.292	7.728	8.652	10.28	13.25	26.34	28.81	13.45	10.46	10.53	53.20	327.1	162.9	2.853	2.430	2.284	2.100	2.090	2.066	2.422	1.889	2.111	2.002	2.190	1.936	2.126	1.827	1.601	1.532	1.410	1.414	1.303	1.176	1.142	1.132	1.033	0.936	0.860	0.872	0.749	0.720	0.592	0.556	0.571	0.493	0.444	0.444	0.367	0.372	0.374	0.537	0.781	0.725	0.363	0.286	0.298	0.274	0.273	0.280	0.217	0.313	0.328	0.242	0.203	0.209	0.218	0.242	0.340	0.818	1.912	10.49	45.99
610.0	3.709	6.746	8.110	6.837	5.651	5.891	7.337	8.049	9.338	11.94	18.87	28.05	17.15	9.732	7.952	16.48	140.7	302.9	34.55	2.187	1.988	1.773	1.675	1.684	1.757	1.584	1.664	1.685	1.629	1.549	1.657	1.562	1.430	1.224	1.228	1.178	1.044	0.968	0.867	0.921	0.780	0.730	0.741	0.704	0.623	0.577	0.537	0.480	0.474	0.442	0.391	0.383	0.299	0.309	0.288	0.366	0.502	0.597	0.483	0.308	0.220	0.233	0.216	0.209	0.204	0.247	0.241	0.286	0.258	0.212	0.172	0.185	0.175	0.288	0.497	2.427	11.56
615.0	3.556	5.508	7.399	6.955	6.017	5.822	7.284	6.657	7.841	10.81	13.61	22.26	22.47	10.45	7.656	7.297	37.98	202.0	210.4	3.944	1.591	1.568	1.473	1.429	1.365	1.307	1.340	1.262	1.206	1.231	1.318	1.095	1.111	1.047	0.954	0.957	0.866	0.838	0.709	0.709	0.655	0.603	0.571	0.519	0.549	0.415	0.445	0.434	0.426	0.312	0.341	0.308	0.252	0.236	0.234	0.224	0.275	0.415	0.524	0.382	0.236	0.166	0.207	0.193	0.198	0.184	0.198	0.253	0.252	0.189	0.136	0.138	0.123	0.142	0.167	0.598	2.643
620.0	2.611	5.436	7.579	5.954	5.051	4.807	5.497	6.678	7.849	10.75	11.63	17.56	25.64	12.18	7.017	5.197	11.07	90.40	299.9	35.63	1.548	1.366	1.327	1.350	1.274	1.054	1.126	1.159	1.027	1.108	1.113	0.979	1.000	0.806	0.826	0.777	0.693	0.747	0.719	0.565	0.506	0.477	0.420	0.473	0.442	0.422	0.368	0.398	0.345	0.315	0.316	0.260	0.286	0.195	0.194	0.218	0.215	0.275	0.421	0.461	0.249	0.180	0.186	0.162	0.162	0.112	0.145	0.218	0.262	0.219	0.137	0.196	0.128	0.140	0.109	0.217	0.644
625.0	2.281	5.166	7.768	4.835	4.109	4.590	4.563	6.306	8.208	9.503	12.40	13.75	22.42	15.61	7.129	5.267	4.891	31.64	236.3	147.7	1.723	1.333	1.247	1.156	1.100	0.936	0.920	1.038	0.840	0.972	0.850	0.914	0.739	0.828	0.709	0.677	0.693	0.608	0.557	0.550	0.413	0.487	0.348	0.374	0.362	0.398	0.322	0.317	0.293	0.253	0.262	0.238	0.225	0.170	0.199	0.153	0.165	0.198	0.306	0.373	0.287	0.198	0.192	0.180	0.124	0.153	0.130	0.166	0.185	0.175	0.215	0.113	0.102	0.117	0.074	0.133	0.223
630.0	3.207	5.225	6.146	4.938	4.114	4.431	4.696	6.179	7.781	9.877	11.28	12.06	17.40	18.93	8.318	4.718	3.468	9.258	93.36	243.4	30.72	1.164	0.986	0.974	0.893	0.853	0.788	0.729	0.724	0.776	0.798	0.711	0.595	0.610	0.600	0.542	0.558	0.486	0.444	0.418	0.395	0.380	0.294	0.327	0.314	0.285	0.287	0.257	0.219	0.196	0.203	0.174	0.174	0.145	0.170	0.140	0.164	0.141	0.163	0.261	0.300	0.201	0.182	0.140	0.135	0.144	0.104	0.120	0.153	0.152	0.152	0.170	0.093	0.078	0.070	0.072	0.098
635.0	1.797	5.449	6.650	5.331	4.709	4.458	5.014	6.049	6.537	9.571	10.89	11.74	13.48	18.49	11.80	5.197	3.313	3.790	23.80	143.5	180.2	3.120	0.874	0.789	0.735	0.608	0.646	0.564	0.649	0.591	0.636	0.610	0.533	0.465	0.453	0.418	0.486	0.391	0.368	0.336	0.296	0.291	0.265	0.237	0.276	0.212	0.253	0.202	0.209	0.184	0.151	0.145	0.164	0.139	0.133	0.110	0.107	0.129	0.134	0.143	0.207	0.198	0.182	0.098	0.116	0.163	0.093	0.077	0.122	0.118	0.128	0.180	0.120	0.083	0.085	0.081	0.051
640.0	2.534	5.363	5.403	5.074	5.088	3.919	4.755	6.184	7.171	8.604	10.96	11.82	12.07	15.06	14.43	5.542	3.351	2.608	6.701	57.21	239.4	31.71	0.850	0.783	0.733	0.563	0.637	0.578	0.521	0.589	0.575	0.509	0.452	0.466	0.416	0.406	0.417	0.320	0.306	0.301	0.293	0.250	0.201	0.221	0.212	0.176	0.199	0.157	0.159	0.135	0.137	0.142	0.145	0.164	0.117	0.095	0.112	0.115	0.149	0.125	0.148	0.185	0.193	0.137	0.129	0.109	0.109	0.114	0.137	0.077	0.096	0.205	0.113	0.081	0.063	0.086	0.057
645.0	3.163	4.851	7.469	6.012	4.638	4.767	5.819	6.014	7.093	8.888	10.31	11.43	12.14	12.37	15.64	6.672	3.246	2.561	2.799	17.68	179.3	123.2	1.160	0.670	0.708	0.520	0.578	0.614	0.477	0.455	0.483	0.479	0.351	0.402	0.375	0.301	0.335	0.320	0.277	0.269	0.196	0.219	0.217	0.198	0.179	0.179	0.164	0.155	0.130	0.115	0.125	0.092	0.119	0.110	0.089	0.120	0.102	0.097	0.127	0.084	0.110	0.127	0.166	0.131	0.150	0.094	0.083	0.107	0.125	0.093	0.103	0.091	0.101	0.133	0.083	0.058	0.051
650.0	3.036	4.831	6.517	6.397	4.335	3.399	5.059	6.469	7.628	9.319	10.68	11.85	11.08	11.47	14.19	9.427	3.431	2.429	2.153	5.349	83.07	204.2	11.48	0.670	0.628	0.524	0.460	0.563	0.493	0.407	0.467	0.413	0.380	0.405	0.407	0.280	0.287	0.249	0.238	0.274	0.191	0.142	0.163	0.132	0.161	0.164	0.107	0.159	0.128	0.121	0.129	0.100	0.113	0.093	0.075	0.108	0.076	0.093	0.105	0.072	0.066	0.079	0.166	0.116	0.134	0.107	0.108	0.116	0.100	0.076	0.075	0.093	0.056	0.164	0.079	0.059	0.057
