Sample:	'1
File name:	Default_20250318_112747.FD3
Run date:	'11:21:26, 03/18/2025
Operator:	dsjg
Comment:	'

Instrument
Model:	F-2700 FL Spectrophotometer
Serial number:	2198-001
ROM Version:	4J14000 07

Instrument parameters
Measurement type:	3-D scan
Data mode:	Fluorescence
EX  Start WL:	220.0 nm
EX  End WL:	600.0 nm
EX Sampling interval:	5.0 nm
EM  Start WL:	230.0 nm
EM  End WL:	650.0 nm
EM Sampling interval:	5.0 nm
Scan speed:	12000 nm/min
EX Slit:	5.0 nm
EM Slit:	5.0 nm
PMT Voltage:	700 V
Response:	Auto 
Corrected spectra:	Off
Contour interval:	50.000

Peak integration
Integration method:	Rectangular
Sensitivity:	1
Threshold:	1.000

Peaks
No.	ApexEX/EM(nm)	Height(Data)
1	225.0/600.0	17.35
2	225.0/610.0	18.02
3	230.0/340.0	 1731
4	230.0/605.0	16.84
5	230.0/620.0	20.01
6	235.0/515.0	116.7
7	240.0/525.0	99.15
8	245.0/535.0	81.03
9	250.0/550.0	67.65
10	255.0/280.0	219.1
11	255.0/555.0	55.72
12	260.0/285.0	221.6
13	260.0/570.0	44.38
14	265.0/585.0	38.85
15	270.0/595.0	37.26
16	275.0/610.0	42.41
17	280.0/335.0	 1060
18	280.0/620.0	42.98
19	285.0/640.0	38.42
20	315.0/355.0	236.8
21	320.0/360.0	231.6
22	325.0/365.0	202.4
23	335.0/380.0	199.1
24	340.0/385.0	196.6
25	350.0/400.0	185.6
26	355.0/405.0	200.2
27	365.0/415.0	144.7
28	370.0/425.0	140.4
29	375.0/405.0	99.50
30	375.0/430.0	122.6
31	385.0/445.0	86.24
32	395.0/455.0	61.75
33	400.0/465.0	52.38
34	405.0/470.0	42.74
35	410.0/475.0	36.04
36	415.0/485.0	31.08
37	420.0/490.0	26.30
38	425.0/495.0	23.20
39	430.0/505.0	19.75
40	435.0/510.0	16.48
41	440.0/515.0	14.45
42	445.0/525.0	12.68
43	450.0/530.0	10.52
44	455.0/535.0	9.027
45	460.0/545.0	7.518
46	465.0/340.0	5.647
47	465.0/550.0	6.188
48	570.0/335.0	6.053

Data points
	220.0	225.0	230.0	235.0	240.0	245.0	250.0	255.0	260.0	265.0	270.0	275.0	280.0	285.0	290.0	295.0	300.0	305.0	310.0	315.0	320.0	325.0	330.0	335.0	340.0	345.0	350.0	355.0	360.0	365.0	370.0	375.0	380.0	385.0	390.0	395.0	400.0	405.0	410.0	415.0	420.0	425.0	430.0	435.0	440.0	445.0	450.0	455.0	460.0	465.0	470.0	475.0	480.0	485.0	490.0	495.0	500.0	505.0	510.0	515.0	520.0	525.0	530.0	535.0	540.0	545.0	550.0	555.0	560.0	565.0	570.0	575.0	580.0	585.0	590.0	595.0	600.0
230.0	142.1	 2626	 5496	 1955	44.38	4.820	2.793	2.248	2.075	1.963	1.648	1.632	1.330	1.115	0.927	0.851	0.718	0.552	0.651	0.577	0.571	0.505	0.492	0.466	0.473	0.377	0.383	0.340	0.381	0.364	0.334	0.273	0.305	0.315	0.288	0.309	0.294	0.310	0.261	0.245	0.233	0.214	0.231	0.194	0.190	0.185	0.264	1.450	5.215	7.296	4.121	0.904	0.181	0.156	0.123	0.134	0.132	0.122	0.111	0.100	0.093	0.073	0.082	0.099	0.075	0.098	0.097	0.068	0.085	0.083	0.079	0.094	0.066	0.079	0.078	0.078	0.062
235.0	66.61	727.1	 3506	 8236	 2184	44.92	3.889	3.294	2.359	1.841	1.952	1.509	1.420	1.181	1.133	0.976	0.688	0.649	0.612	0.480	0.522	0.623	0.455	0.543	0.466	0.353	0.459	0.331	0.375	0.357	0.344	0.314	0.299	0.328	0.244	0.251	0.267	0.271	0.265	0.246	0.209	0.241	0.218	0.211	0.302	0.288	0.237	0.463	1.666	4.230	7.651	11.13	7.300	1.839	0.237	0.181	0.149	0.126	0.090	0.116	0.110	0.074	0.075	0.090	0.081	0.085	0.095	0.083	0.073	0.097	0.086	0.080	0.091	0.090	0.082	0.100	0.086
240.0	71.01	210.4	 1085	 7373	 6959	390.9	14.66	3.516	3.321	2.587	2.188	1.998	1.897	1.116	1.135	1.039	0.921	0.588	0.616	0.612	0.597	0.546	0.544	0.479	0.539	0.421	0.509	0.377	0.385	0.432	0.373	0.289	0.306	0.324	0.266	0.251	0.232	0.294	0.304	0.260	0.206	0.239	0.246	0.227	0.247	0.302	0.280	0.330	0.523	1.150	3.170	9.535	15.77	13.39	5.713	0.829	0.177	0.141	0.130	0.142	0.130	0.115	0.114	0.125	0.083	0.090	0.066	0.088	0.060	0.100	0.070	0.080	0.090	0.109	0.077	0.079	0.079
245.0	70.91	129.8	284.9	 2773	 6843	 3121	259.6	6.979	4.278	3.077	2.511	2.346	2.208	1.546	1.258	1.146	0.852	0.762	0.814	0.654	0.552	0.515	0.481	0.534	0.470	0.411	0.442	0.418	0.377	0.350	0.383	0.351	0.271	0.339	0.288	0.268	0.270	0.262	0.301	0.280	0.248	0.252	0.224	0.216	0.241	0.284	0.400	0.428	0.383	0.386	0.863	2.843	8.278	15.69	18.63	11.84	3.359	0.314	0.140	0.164	0.134	0.121	0.112	0.113	0.120	0.120	0.099	0.093	0.107	0.122	0.088	0.083	0.090	0.064	0.088	0.087	0.070
250.0	51.07	99.57	168.4	684.1	 2229	 3543	 2918	972.3	51.09	4.512	3.213	2.799	2.182	1.771	1.351	1.274	1.042	0.966	0.685	0.683	0.617	0.531	0.451	0.513	0.497	0.460	0.452	0.410	0.426	0.367	0.463	0.379	0.332	0.275	0.311	0.267	0.284	0.242	0.256	0.291	0.265	0.225	0.263	0.209	0.239	0.258	0.260	0.383	0.608	0.542	0.542	0.859	2.070	4.645	9.049	13.99	17.44	15.59	9.332	2.989	0.383	0.133	0.102	0.123	0.114	0.120	0.125	0.098	0.103	0.085	0.093	0.095	0.111	0.084	0.084	0.087	0.100
255.0	48.77	54.59	115.7	300.2	547.0	909.3	 2238	 4073	 1348	54.53	4.781	3.470	2.648	1.895	1.837	1.293	1.122	0.951	0.925	0.719	0.750	0.577	0.544	0.553	0.547	0.556	0.451	0.421	0.573	0.378	0.402	0.325	0.409	0.313	0.441	0.249	0.279	0.179	0.302	0.229	0.267	0.244	0.312	0.254	0.215	0.184	0.198	0.230	0.327	0.466	0.677	1.004	0.907	1.242	2.178	3.367	5.903	12.37	22.51	24.39	14.24	3.135	0.272	0.134	0.114	0.165	0.128	0.068	0.142	0.068	0.098	0.110	0.085	0.090	0.089	0.118	0.110
260.0	47.11	37.63	55.27	195.1	251.9	230.4	685.5	 3261	 4147	 1003	23.02	4.846	3.393	2.280	2.039	1.864	1.133	1.062	0.902	0.729	0.648	0.724	0.676	0.617	0.452	0.572	0.389	0.361	0.506	0.473	0.478	0.397	0.434	0.339	0.273	0.291	0.267	0.184	0.265	0.272	0.288	0.300	0.274	0.256	0.229	0.205	0.201	0.203	0.240	0.245	0.454	0.945	1.211	0.978	0.757	0.938	1.522	3.278	9.220	19.80	29.11	23.29	10.36	1.448	0.154	0.157	0.134	0.102	0.137	0.098	0.115	0.110	0.125	0.080	0.098	0.099	0.088
265.0	48.72	35.36	28.65	95.19	208.7	145.4	173.0	 1107	 3899	 3979	192.0	10.87	4.074	3.066	2.426	1.931	1.359	1.273	0.985	0.897	0.838	0.781	0.759	0.709	0.593	0.514	0.487	0.393	0.449	0.414	0.424	0.405	0.368	0.320	0.308	0.288	0.280	0.297	0.237	0.297	0.275	0.294	0.243	0.221	0.232	0.239	0.224	0.200	0.186	0.161	0.219	0.451	0.855	1.272	1.150	0.579	0.516	0.886	2.276	5.655	14.04	26.62	30.62	20.67	6.080	0.521	0.152	0.162	0.156	0.109	0.127	0.111	0.144	0.100	0.107	0.074	0.129
270.0	49.01	39.48	23.22	42.80	101.2	173.0	146.0	275.3	 1214	 3367	 3868	 1615	53.65	5.114	3.441	2.283	1.799	1.576	1.221	1.041	0.979	0.867	0.861	0.650	0.618	0.574	0.577	0.492	0.430	0.507	0.453	0.414	0.431	0.364	0.344	0.319	0.312	0.268	0.213	0.265	0.248	0.256	0.242	0.225	0.239	0.266	0.246	0.207	0.200	0.163	0.199	0.222	0.350	0.561	0.932	1.102	1.056	0.775	0.816	1.436	3.393	7.525	13.84	21.69	24.94	25.45	14.64	5.946	0.713	0.144	0.146	0.142	0.132	0.111	0.127	0.092	0.103
275.0	57.51	46.46	35.74	32.48	36.91	82.11	192.0	185.0	295.9	847.0	 2311	 4852	 1146	66.27	5.349	3.318	2.326	1.941	1.591	1.115	1.047	0.964	0.835	0.806	0.667	0.706	0.578	0.525	0.539	0.589	0.535	0.501	0.468	0.403	0.411	0.360	0.357	0.297	0.285	0.249	0.263	0.222	0.155	0.279	0.299	0.283	0.285	0.287	0.221	0.219	0.191	0.196	0.210	0.257	0.367	0.448	0.997	1.356	1.555	1.046	1.018	1.925	3.248	5.193	7.439	15.52	29.49	37.23	21.70	5.680	0.369	0.165	0.158	0.140	0.127	0.089	0.104
280.0	65.01	62.14	42.22	34.96	24.67	32.50	124.4	219.1	155.0	219.2	670.5	 3036	 4850	921.6	37.52	4.713	3.130	2.349	1.687	1.434	1.030	0.990	1.064	0.790	0.750	0.693	0.634	0.610	0.648	0.592	0.602	0.439	0.472	0.370	0.356	0.361	0.415	0.319	0.312	0.309	0.262	0.238	0.167	0.254	0.264	0.277	0.388	0.373	0.321	0.306	0.217	0.171	0.246	0.225	0.227	0.229	0.437	0.861	1.499	1.654	1.092	0.840	0.973	1.365	1.880	4.097	10.33	23.18	37.10	30.29	15.94	2.279	0.206	0.139	0.166	0.099	0.100
285.0	87.08	78.34	58.56	42.25	23.67	19.32	53.20	171.5	221.6	119.2	192.0	947.9	 3514	 4697	691.0	14.64	4.140	3.050	2.219	1.793	1.427	1.113	1.029	0.954	0.845	0.752	0.767	0.754	0.569	0.567	0.611	0.556	0.505	0.434	0.341	0.422	0.376	0.351	0.305	0.289	0.287	0.208	0.247	0.236	0.271	0.316	0.387	0.361	0.404	0.370	0.291	0.229	0.257	0.195	0.217	0.193	0.245	0.416	0.759	1.220	1.752	1.541	0.719	0.610	0.690	1.229	2.703	6.304	14.89	27.99	40.06	25.97	8.762	0.694	0.183	0.176	0.134
290.0	114.5	101.1	85.91	60.78	33.42	26.31	36.33	85.89	201.6	241.3	162.3	290.2	 1055	 2812	 3915	 1905	37.81	4.699	3.070	2.290	1.926	1.552	1.313	0.998	0.898	0.905	0.799	0.734	0.585	0.693	0.593	0.586	0.550	0.451	0.471	0.448	0.416	0.351	0.345	0.315	0.329	0.255	0.248	0.226	0.277	0.378	0.427	0.400	0.475	0.392	0.368	0.305	0.301	0.260	0.260	0.221	0.294	0.327	0.450	0.565	1.021	1.450	1.664	1.487	1.128	0.839	1.116	1.894	3.833	7.695	15.03	22.46	26.27	28.74	16.18	6.214	0.508
295.0	143.8	133.7	119.6	79.89	52.15	47.33	53.60	79.75	134.8	264.8	351.8	218.4	351.1	737.6	 1753	 4328	 3023	47.55	4.886	3.421	2.387	2.021	1.617	1.289	1.012	0.956	0.716	0.781	0.635	0.755	0.635	0.585	0.555	0.536	0.493	0.512	0.492	0.400	0.355	0.331	0.365	0.314	0.296	0.250	0.311	0.393	0.369	0.484	0.613	0.495	0.488	0.452	0.386	0.307	0.353	0.343	0.338	0.439	0.496	0.522	0.738	0.895	1.260	1.719	2.368	1.971	1.425	1.204	1.566	2.477	3.892	5.485	7.597	14.83	29.57	42.18	23.61
300.0	171.6	172.8	158.6	117.8	82.94	74.66	97.22	123.5	170.7	262.7	437.8	425.9	290.6	284.5	553.6	 2219	 5223	583.3	31.10	4.690	2.899	2.221	1.969	1.432	1.205	1.048	0.929	0.834	0.628	0.745	0.689	0.684	0.600	0.622	0.544	0.477	0.597	0.431	0.321	0.334	0.343	0.324	0.330	0.281	0.314	0.360	0.518	0.569	0.662	0.608	0.606	0.581	0.449	0.469	0.468	0.472	0.609	0.658	0.775	0.763	0.910	0.996	1.365	1.573	2.162	2.888	2.851	2.008	1.423	1.661	1.944	2.051	2.506	4.244	9.872	23.63	40.61
305.0	193.5	219.7	212.2	165.3	129.9	123.7	155.7	192.7	257.4	334.0	485.0	627.1	482.3	318.0	305.9	741.5	 2940	 5158	492.8	16.50	4.034	2.975	2.269	1.714	1.550	1.354	0.963	0.908	0.719	0.799	0.783	0.740	0.690	0.619	0.564	0.557	0.615	0.431	0.480	0.376	0.364	0.323	0.349	0.336	0.424	0.432	0.632	0.765	0.864	0.766	0.691	0.769	0.672	0.662	0.636	0.700	0.881	0.869	1.107	1.182	1.220	1.419	1.912	2.015	2.300	2.871	3.675	3.953	2.964	2.262	2.242	1.771	1.964	2.214	3.168	6.872	15.49
310.0	208.9	286.9	281.8	228.9	177.5	182.2	218.8	267.5	324.4	407.2	509.2	641.0	700.7	509.3	342.1	352.2	913.4	 2663	 3836	 1997	30.00	4.563	3.090	2.356	1.843	1.502	1.266	1.045	1.032	0.922	0.835	0.720	0.732	0.644	0.612	0.588	0.568	0.483	0.453	0.389	0.409	0.406	0.365	0.374	0.413	0.572	0.699	0.953	1.037	0.918	0.885	0.933	0.876	0.821	0.891	0.958	1.133	1.244	1.395	1.581	1.586	1.808	2.091	2.386	2.639	2.859	3.215	3.817	4.185	4.018	3.394	2.562	2.226	2.178	2.029	2.648	4.475
315.0	278.7	429.0	404.8	310.4	243.1	238.5	274.7	338.6	391.8	488.5	601.8	699.8	767.5	776.1	530.1	353.7	410.1	741.4	 1476	 4665	 2923	38.95	4.652	3.088	2.203	1.897	1.556	1.170	1.215	1.085	0.933	0.834	0.710	0.706	0.583	0.634	0.557	0.532	0.499	0.495	0.428	0.377	0.387	0.336	0.567	0.688	0.999	1.447	1.605	1.410	1.146	1.218	1.189	1.097	1.189	1.210	1.389	1.592	1.859	1.980	2.125	2.099	2.527	2.829	3.027	3.587	3.713	3.790	4.363	4.236	4.548	4.637	3.671	2.932	2.270	2.213	2.441
320.0	389.8	677.0	683.5	462.6	310.2	280.1	328.6	405.2	470.4	583.4	729.2	840.6	870.8	893.6	778.3	466.2	361.1	334.0	433.2	 2040	 5524	 2120	26.25	4.322	3.005	2.139	1.674	1.607	1.278	1.147	1.011	0.755	0.791	0.834	0.627	0.700	0.584	0.627	0.480	0.436	0.444	0.444	0.557	0.428	0.681	1.056	1.388	2.215	2.391	2.037	1.732	1.663	1.617	1.388	1.464	1.488	1.628	1.735	2.141	2.276	2.399	2.460	3.088	3.435	3.551	4.178	4.375	4.949	4.946	4.941	4.871	5.262	5.244	4.349	3.148	2.749	2.500
325.0	516.0	974.5	 1031	702.2	413.3	338.2	374.0	458.9	524.4	662.6	814.7	939.7	969.3	933.2	871.5	625.9	388.9	262.0	189.0	573.6	 2811	 5593	408.8	14.96	3.782	2.735	2.191	1.638	1.344	1.145	1.044	0.872	0.874	0.938	0.706	0.711	0.567	0.594	0.544	0.468	0.408	0.480	0.490	0.577	0.824	1.326	1.911	2.973	3.541	3.449	2.885	2.555	2.065	1.553	1.537	1.630	1.961	2.041	2.323	2.583	2.663	2.721	3.417	3.839	4.077	4.766	4.954	5.202	5.462	5.742	5.254	5.254	5.669	5.741	4.563	3.196	2.586
330.0	594.5	 1167	 1362	996.3	569.2	388.0	403.6	482.2	560.7	702.0	864.8	987.1	 1027	970.9	833.4	706.0	508.1	274.2	154.7	202.2	750.9	 2621	 4273	 1698	26.72	4.335	3.012	2.180	1.710	1.547	1.351	1.162	1.059	0.976	0.841	0.731	0.671	0.614	0.567	0.522	0.480	0.492	0.609	0.598	0.902	1.467	2.339	3.503	4.332	4.490	3.875	3.474	2.865	2.179	1.935	1.873	2.111	2.238	2.381	2.689	2.783	3.077	3.477	3.931	4.330	4.876	5.102	5.418	5.606	5.744	5.598	5.326	5.548	5.094	4.796	4.454	3.712
335.0	666.0	 1319	 1627	 1215	711.7	452.1	429.2	497.3	585.8	714.8	891.5	 1015	 1060	986.1	834.8	652.1	571.1	372.2	174.0	138.7	241.2	642.1	 1479	 4643	 2639	36.18	4.270	3.122	2.183	1.834	1.431	1.259	1.073	0.972	0.862	0.790	0.738	0.704	0.661	0.594	0.551	0.499	0.602	0.695	1.093	1.606	2.535	3.952	4.903	5.291	4.494	4.306	3.840	2.977	2.451	2.100	2.067	2.301	2.431	2.976	2.832	3.125	3.704	4.094	4.441	4.787	5.228	5.611	5.779	5.838	6.053	5.644	5.246	5.025	4.282	3.956	4.078
340.0	685.9	 1384	 1731	 1320	775.2	483.4	429.3	492.8	589.3	705.1	875.4	990.7	 1033	961.1	796.1	615.1	503.9	440.0	217.8	132.4	133.0	200.4	383.2	 1957	 5710	 1995	25.66	3.777	2.789	2.322	1.623	1.281	1.179	1.025	0.978	0.776	0.718	0.667	0.636	0.533	0.639	0.577	0.640	0.714	1.131	1.611	2.521	4.260	5.314	5.647	5.036	4.867	4.060	2.986	2.370	2.163	2.208	2.351	2.581	2.854	2.998	3.214	3.460	4.174	4.581	4.863	5.152	5.335	5.698	5.588	5.639	5.432	5.084	4.767	4.063	3.563	3.502
345.0	637.4	 1309	 1642	 1302	772.1	470.8	410.3	466.6	555.1	670.4	805.5	920.1	959.2	883.2	740.7	567.8	431.7	387.3	293.6	143.6	111.0	104.5	125.8	505.5	 2991	 5511	363.1	15.49	3.621	2.634	1.934	1.698	1.226	1.180	1.069	0.881	0.620	0.757	0.646	0.601	0.565	0.535	0.547	0.611	1.038	1.643	2.476	4.010	5.176	5.592	4.836	4.864	3.995	2.854	2.491	2.155	1.966	2.182	2.344	2.581	2.706	3.119	3.416	4.082	4.219	4.463	4.715	5.067	4.913	5.240	5.555	5.234	4.940	4.387	3.684	3.387	2.955
350.0	554.6	 1122	 1442	 1203	751.1	460.0	389.5	413.5	496.5	593.0	713.1	802.6	831.9	775.3	655.6	507.1	376.1	294.1	280.3	223.4	127.1	89.75	75.36	145.5	742.3	 2612	 4103	 1557	25.52	3.940	2.639	2.105	1.409	1.244	1.159	0.920	0.742	0.759	0.711	0.612	0.517	0.515	0.505	0.696	0.881	1.427	2.187	3.479	4.515	4.746	4.193	4.478	3.875	2.989	2.542	2.111	2.064	2.085	2.295	2.333	2.515	2.647	2.993	3.351	3.770	3.899	4.115	4.496	4.479	4.608	4.668	4.642	4.162	3.907	3.423	3.066	2.682
355.0	457.4	945.1	 1256	 1072	699.8	455.5	375.0	392.6	453.8	527.9	615.6	696.5	708.8	671.2	567.0	440.5	333.9	252.5	209.6	236.8	203.2	101.5	71.66	72.67	191.8	603.8	 1382	 4389	 2464	36.49	3.794	2.686	2.018	1.464	1.232	1.066	0.865	0.930	0.555	0.636	0.548	0.570	0.482	0.597	0.798	1.381	1.921	2.928	3.945	4.142	3.819	3.821	3.735	3.063	2.408	2.035	1.878	2.010	2.062	2.158	2.318	2.390	2.719	2.890	3.226	3.294	3.562	3.846	3.881	3.916	3.767	3.833	3.728	3.586	3.101	2.708	2.399
360.0	404.4	827.4	 1104	941.4	658.1	432.2	359.9	373.2	416.6	485.7	553.9	616.1	628.1	588.5	503.9	399.2	308.1	233.0	183.2	186.4	231.6	146.5	77.73	60.14	74.02	156.9	335.6	 1837	 5167	 1927	25.85	3.488	2.332	1.901	1.346	1.270	0.927	0.893	0.680	0.683	0.639	0.567	0.454	0.556	0.776	1.249	1.719	2.529	3.291	3.616	3.428	3.531	3.484	2.886	2.312	1.997	1.850	1.859	2.012	2.002	2.208	2.273	2.370	2.835	2.950	3.165	3.176	3.494	3.605	3.712	3.443	3.387	3.205	2.966	2.627	2.441	2.302
365.0	347.0	695.3	928.2	849.7	609.9	415.7	343.8	356.5	390.2	450.4	505.4	548.0	561.4	525.9	448.9	362.9	281.8	220.9	179.7	158.4	195.4	202.4	102.3	64.73	53.99	61.33	94.84	457.1	 2716	 5223	350.8	15.55	3.144	2.229	1.638	1.234	0.991	0.859	0.834	0.730	0.577	0.570	0.590	0.626	0.692	1.018	1.363	2.105	2.904	3.011	3.159	3.275	3.013	2.694	2.115	1.871	1.712	1.580	1.922	1.842	2.113	2.192	2.068	2.527	2.652	2.757	2.831	3.061	3.098	3.264	3.106	2.965	2.837	2.714	2.446	2.185	2.101
370.0	291.6	565.3	770.9	727.9	557.6	403.7	342.7	335.6	366.0	404.1	452.0	480.6	493.7	459.7	395.8	325.1	264.0	215.3	180.0	156.3	154.7	183.8	171.0	96.94	60.60	51.01	51.96	128.0	672.3	 2519	 3947	 1439	23.65	4.240	2.235	1.528	1.172	1.002	0.880	0.774	0.658	0.565	0.530	0.553	0.669	0.939	1.143	1.797	2.440	2.553	2.572	2.825	2.736	2.436	2.062	1.792	1.808	1.724	1.882	1.864	1.871	2.035	2.021	2.278	2.493	2.479	2.454	2.718	2.748	2.748	2.773	2.594	2.567	2.502	2.209	2.018	1.968
375.0	259.2	469.8	640.4	637.7	522.0	400.7	328.2	322.6	351.3	379.2	419.7	442.5	458.4	424.0	353.1	296.0	247.4	209.6	181.3	162.9	149.6	147.5	170.8	176.1	96.95	67.55	65.35	73.97	190.3	596.8	 1379	 4098	 2200	32.90	4.231	2.095	1.670	1.166	0.987	0.795	0.603	0.730	0.501	0.585	0.687	0.908	1.136	1.598	2.130	2.246	2.173	2.485	2.558	2.352	2.153	1.804	1.817	1.812	1.789	1.957	1.793	1.969	1.961	2.001	2.191	2.382	2.322	2.487	2.415	2.620	2.550	2.291	2.250	2.064	1.944	2.001	1.807
380.0	225.1	414.9	559.2	572.3	507.8	396.0	330.9	320.4	334.1	368.7	409.9	415.9	443.5	399.4	326.9	275.0	238.1	205.9	182.0	166.9	154.2	145.0	148.1	199.1	152.0	87.40	84.63	89.80	100.2	176.2	369.4	 1793	 4630	 1647	22.52	2.868	2.003	1.535	1.168	0.823	0.731	0.663	0.559	0.603	0.571	0.850	1.096	1.408	1.819	1.878	1.964	2.341	2.377	2.309	2.091	1.860	1.669	1.776	1.814	1.761	1.884	2.084	1.971	2.051	2.083	2.122	2.399	2.231	2.379	2.548	2.474	2.207	2.186	1.770	1.777	1.774	1.613
385.0	203.6	357.2	497.9	538.2	477.5	388.6	323.2	316.0	327.6	355.6	389.2	394.8	426.5	379.7	307.3	262.8	228.1	204.5	187.6	168.6	158.7	145.6	138.4	170.7	196.6	120.7	100.3	105.0	89.16	91.18	143.0	501.5	 2509	 4376	289.7	11.72	2.462	1.714	1.323	1.051	0.829	0.820	0.631	0.541	0.608	0.833	0.967	1.255	1.498	1.664	1.773	2.037	2.259	2.137	2.045	1.932	1.738	1.708	1.733	1.687	1.658	1.796	1.852	2.103	2.083	2.015	2.245	2.232	2.268	2.437	2.420	1.985	1.996	1.859	1.738	1.764	1.620
390.0	192.4	301.2	423.7	470.9	441.3	367.9	317.2	303.3	314.5	330.1	357.2	362.0	384.4	343.7	284.5	246.5	218.6	202.1	186.3	173.0	162.7	151.7	140.9	146.6	168.6	168.5	125.3	105.7	84.05	71.54	85.48	170.6	636.1	 2126	 3155	 1156	18.68	2.553	1.691	1.229	0.994	0.793	0.673	0.582	0.588	0.745	0.852	1.178	1.430	1.513	1.683	1.823	2.021	2.020	1.984	1.810	1.653	1.581	1.761	1.712	1.651	1.753	1.710	1.951	1.864	2.032	2.057	2.103	2.078	2.244	2.102	1.843	1.939	1.797	1.722	1.645	1.573
395.0	192.9	275.8	375.7	412.6	402.8	362.5	311.0	306.3	306.5	313.0	343.2	338.3	355.2	318.4	265.0	235.3	215.1	201.4	188.4	176.6	167.0	160.4	148.4	145.9	145.9	160.1	176.9	130.5	91.03	73.06	77.10	101.6	179.0	492.9	 1094	 3328	 1775	26.28	2.611	1.546	1.090	0.969	0.714	0.595	0.681	0.709	0.877	1.087	1.363	1.437	1.416	1.650	1.861	1.904	1.792	1.730	1.727	1.695	1.889	1.613	1.515	1.860	1.792	1.789	1.925	1.818	1.811	1.901	2.023	2.096	1.961	1.857	1.841	1.670	1.560	1.508	1.484
400.0	171.9	252.9	343.9	388.2	387.6	351.3	303.6	300.2	305.5	303.4	332.3	325.3	351.4	312.8	256.9	227.6	212.0	197.8	188.0	180.6	172.4	166.4	156.6	151.6	147.4	145.0	185.6	175.2	108.5	83.07	86.06	95.49	83.45	131.2	263.2	 1436	 3626	 1315	18.39	2.033	1.377	1.089	0.792	0.700	0.653	0.850	0.872	1.041	1.266	1.291	1.367	1.535	1.849	1.872	1.801	1.630	1.547	1.607	1.672	1.573	1.650	1.665	1.709	1.757	1.792	1.758	1.790	1.779	2.002	2.127	2.035	1.721	1.796	1.626	1.636	1.415	1.462
405.0	166.2	235.2	315.0	372.5	372.7	342.8	299.8	295.2	298.0	301.9	327.1	323.4	345.7	303.7	254.1	225.7	207.7	196.7	187.2	180.7	175.2	168.3	162.5	160.0	152.0	140.7	165.3	200.2	136.7	92.31	93.73	99.50	65.41	53.13	73.12	352.9	 1910	 3358	253.9	10.90	1.609	1.232	1.052	0.825	0.670	0.815	0.883	0.968	1.189	1.299	1.235	1.461	1.877	1.679	1.742	1.637	1.593	1.611	1.743	1.535	1.686	1.668	1.738	1.706	1.776	1.818	1.701	1.846	2.002	2.092	1.686	1.682	1.750	1.600	1.645	1.435	1.324
410.0	147.6	215.0	293.7	339.5	355.6	329.2	298.8	285.2	293.1	296.2	307.5	303.9	319.5	284.0	240.6	216.3	200.0	192.9	184.5	178.1	173.7	168.7	164.7	161.4	154.1	140.2	142.8	167.1	162.3	116.7	93.20	90.71	59.71	38.55	33.72	91.65	462.9	 1628	 2219	 1022	16.01	1.984	1.258	0.965	0.848	0.816	0.848	0.886	1.035	1.183	1.214	1.435	1.706	1.726	1.638	1.560	1.573	1.631	1.631	1.578	1.621	1.586	1.556	1.511	1.670	1.675	1.594	1.594	1.779	1.881	1.582	1.508	1.546	1.485	1.468	1.457	1.381
415.0	139.6	191.7	265.2	310.3	324.7	306.1	292.8	272.7	283.7	283.1	291.9	282.8	291.2	265.0	227.9	205.3	189.9	185.0	176.5	170.9	169.8	164.8	163.1	158.3	150.5	138.5	132.9	136.9	139.0	144.7	106.2	83.05	57.02	37.19	27.89	35.90	114.1	372.1	861.5	 2581	 1444	22.60	1.916	1.237	1.013	0.911	0.740	0.929	0.988	1.081	1.141	1.496	1.651	1.559	1.628	1.587	1.569	1.638	1.527	1.578	1.458	1.429	1.599	1.561	1.474	1.623	1.427	1.628	1.528	1.677	1.630	1.538	1.481	1.359	1.307	1.522	1.344
420.0	123.9	189.9	248.7	290.9	310.0	292.0	285.0	272.2	280.1	277.6	284.8	273.4	274.3	250.9	219.5	196.8	186.0	178.1	173.9	168.0	165.5	162.4	159.9	155.7	149.0	137.7	130.9	129.2	120.8	138.1	130.4	88.71	58.04	38.78	28.33	24.98	37.54	91.40	204.3	 1104	 2829	 1034	15.10	1.586	1.123	1.079	0.857	0.997	0.976	1.041	1.067	1.447	1.493	1.598	1.562	1.514	1.616	1.555	1.436	1.462	1.638	1.473	1.607	1.430	1.530	1.599	1.487	1.558	1.517	1.562	1.447	1.446	1.478	1.325	1.405	1.453	1.267
425.0	122.6	176.1	244.0	279.1	289.7	288.9	282.8	273.2	276.5	275.3	275.6	269.7	269.2	241.2	210.0	193.8	182.8	174.0	169.1	164.8	163.1	160.0	156.3	153.2	147.1	137.1	131.7	127.0	115.6	117.6	140.4	107.7	61.95	41.13	30.12	24.10	21.48	30.04	52.92	267.7	 1538	 2630	230.6	6.322	1.410	1.212	0.953	1.122	1.013	1.071	0.995	1.372	1.484	1.536	1.495	1.450	1.654	1.417	1.375	1.566	1.607	1.502	1.535	1.508	1.592	1.474	1.461	1.492	1.550	1.609	1.577	1.373	1.331	1.413	1.297	1.362	1.186
430.0	123.4	167.2	232.4	265.8	283.3	277.7	276.0	268.9	272.9	271.7	271.9	257.4	256.4	231.5	202.0	185.8	175.9	167.8	163.4	160.8	157.8	155.5	152.5	150.2	144.1	137.1	131.0	126.9	114.2	106.8	117.4	122.6	82.09	48.03	34.47	26.91	20.93	18.41	20.14	66.30	375.5	 1323	 1872	785.3	13.77	1.700	1.154	1.151	1.066	1.090	1.052	1.330	1.469	1.470	1.568	1.462	1.557	1.515	1.515	1.482	1.530	1.481	1.480	1.604	1.526	1.442	1.377	1.361	1.379	1.541	1.433	1.383	1.304	1.343	1.251	1.255	1.201
435.0	190.2	160.9	210.6	251.1	271.9	267.0	274.6	266.6	273.7	266.6	265.4	251.9	246.9	220.4	195.8	177.1	168.3	159.0	156.8	154.0	150.0	147.2	147.6	144.0	139.0	132.7	128.3	122.3	111.5	103.5	99.12	105.0	101.8	63.64	40.02	30.59	23.97	17.85	14.87	22.45	89.32	300.3	720.3	 2150	 1197	18.74	1.718	1.252	1.255	1.054	1.130	1.278	1.396	1.413	1.420	1.488	1.477	1.450	1.625	1.539	1.538	1.513	1.523	1.570	1.480	1.380	1.395	1.303	1.310	1.358	1.419	1.337	1.307	1.241	1.267	1.249	1.057
440.0	371.2	168.7	202.3	241.1	257.7	265.1	267.9	268.0	271.5	260.9	255.0	241.6	234.8	212.1	189.8	173.1	160.1	156.6	149.5	146.8	145.2	142.0	141.1	139.2	133.7	127.7	125.4	121.0	108.2	101.3	94.16	90.72	95.01	81.70	44.87	33.08	25.56	19.43	15.13	13.72	26.22	72.07	170.7	 1026	 2469	233.6	10.23	1.637	1.303	1.113	1.214	1.236	1.506	1.410	1.447	1.419	1.452	1.594	1.446	1.517	1.668	1.524	1.496	1.556	1.442	1.426	1.418	1.319	1.181	1.329	1.206	1.233	1.197	1.245	1.176	1.190	1.148
445.0	740.5	239.1	194.2	233.9	252.2	255.8	263.1	265.4	265.9	255.5	246.5	234.1	222.2	203.6	179.4	165.0	155.7	148.9	145.2	142.0	137.1	136.7	134.6	132.3	129.9	123.6	120.1	116.3	107.1	100.0	92.77	84.79	80.76	86.24	59.92	36.21	27.48	21.21	15.99	12.63	13.38	21.39	42.77	257.6	 1531	 1849	174.7	4.110	1.608	1.286	1.137	1.214	1.476	1.496	1.380	1.398	1.453	1.540	1.482	1.637	1.502	1.385	1.377	1.421	1.405	1.373	1.440	1.315	1.163	1.263	1.237	1.241	1.113	1.174	1.085	1.169	1.053
450.0	982.5	867.2	236.6	217.5	236.9	245.6	258.6	258.3	257.3	245.6	243.0	224.9	211.7	190.4	170.3	153.7	144.3	141.0	134.7	134.6	128.0	126.2	125.0	123.6	121.9	117.7	113.3	109.7	104.2	96.70	89.84	81.17	71.22	71.24	70.51	50.13	31.31	23.16	18.08	13.71	11.47	11.60	14.78	61.90	380.9	 1178	 1672	661.5	11.22	1.631	1.255	1.321	1.437	1.326	1.391	1.338	1.437	1.541	1.577	1.508	1.429	1.425	1.284	1.331	1.295	1.340	1.308	1.369	1.170	1.208	1.173	1.066	1.147	1.104	1.068	1.083	1.149
455.0	511.2	 2068	658.9	206.3	222.0	237.5	243.5	246.7	247.0	236.3	228.2	211.4	198.3	176.1	160.1	141.7	133.9	128.9	125.4	122.9	117.6	117.1	115.1	115.0	112.3	108.5	105.2	103.2	98.41	92.12	85.67	77.86	66.69	58.86	60.29	61.75	41.74	25.27	19.20	15.57	12.36	10.48	9.239	18.77	88.79	267.9	687.6	 1945	919.2	13.91	1.601	1.495	1.382	1.422	1.293	1.324	1.409	1.475	1.535	1.384	1.384	1.349	1.201	1.333	1.147	1.290	1.295	1.266	1.248	1.076	1.207	1.049	1.049	1.044	1.009	0.956	1.069
460.0	211.0	 2092	 1559	266.3	207.2	219.9	239.6	235.5	231.5	221.1	216.3	198.8	185.3	168.7	149.4	135.3	125.0	120.3	116.4	113.8	109.2	107.6	107.5	105.8	104.8	101.3	98.68	96.65	93.20	88.17	82.12	74.82	64.44	55.11	52.11	56.59	51.27	29.66	20.15	16.44	13.00	10.58	8.866	9.445	24.10	63.25	162.7	960.6	 2002	178.4	7.888	1.696	1.433	1.473	1.291	1.380	1.478	1.380	1.455	1.396	1.415	1.223	1.151	1.221	1.074	1.206	1.228	1.009	1.126	0.974	1.036	0.912	1.053	0.966	0.897	0.934	0.840
465.0	122.9	 1318	 2739	596.7	199.2	205.3	228.1	225.4	220.5	212.3	206.7	190.6	174.7	159.5	141.5	128.3	117.4	113.0	108.8	105.6	101.3	101.4	100.3	99.37	97.25	94.23	93.28	90.75	87.45	83.42	78.98	72.32	62.13	53.39	47.94	47.07	52.38	37.32	22.66	17.58	13.59	11.27	9.051	7.701	10.10	18.11	39.78	240.4	 1294	 1432	137.9	3.533	1.690	1.497	1.398	1.392	1.306	1.415	1.473	1.420	1.321	1.289	1.222	1.164	1.155	1.178	1.173	1.065	1.080	0.973	1.064	0.977	0.964	0.829	0.910	0.888	0.819
470.0	99.11	458.2	 2653	 2432	298.1	193.1	205.2	208.4	206.8	195.4	189.3	172.6	161.9	145.4	129.1	116.1	106.7	103.4	99.13	96.38	92.41	90.01	89.71	89.91	87.88	85.54	83.57	82.65	80.67	77.32	72.77	66.82	58.36	50.76	43.84	39.36	40.73	42.74	30.29	19.29	14.69	12.08	9.672	7.827	7.529	8.275	12.57	56.87	325.7	958.5	 1224	506.9	10.57	1.702	1.451	1.393	1.284	1.304	1.332	1.271	1.224	1.245	1.171	1.166	1.031	1.152	1.107	0.929	0.973	0.941	1.006	0.822	0.912	0.851	0.825	0.847	0.839
475.0	85.57	180.7	 1012	 3997	 1008	185.0	188.6	190.6	187.7	180.7	171.4	157.7	142.7	132.0	116.7	105.4	97.22	93.24	88.57	88.20	81.58	79.22	79.10	78.38	78.28	75.58	74.64	74.53	72.81	70.48	66.75	61.16	54.47	48.25	40.89	36.20	32.77	35.16	36.04	25.10	15.72	12.70	10.13	8.680	7.594	6.594	6.813	15.91	75.35	217.6	487.5	 1345	608.8	13.48	1.608	1.358	1.273	1.320	1.191	1.221	1.091	1.078	1.027	1.130	1.031	1.032	0.961	1.002	0.819	0.906	0.896	0.837	0.864	0.894	0.778	0.800	0.905
480.0	88.35	116.3	336.4	 3267	 2174	221.9	171.8	178.6	176.3	168.9	161.3	150.0	136.4	121.2	107.7	96.18	88.69	85.45	82.60	79.04	76.71	73.53	71.52	72.21	71.32	69.41	68.86	68.76	67.45	64.50	63.02	57.09	50.12	46.08	40.09	34.22	30.29	28.34	33.00	30.59	18.13	13.23	10.62	9.312	7.885	6.802	5.746	7.074	19.88	51.04	115.5	631.4	 1376	187.7	8.060	1.406	1.450	1.249	1.237	1.310	1.119	1.044	0.945	1.061	0.988	1.007	0.967	0.849	0.954	0.892	0.776	0.742	0.733	0.827	0.703	0.672	0.758
485.0	98.23	103.6	161.7	 1665	 3101	426.1	158.1	164.3	167.7	161.9	153.4	141.7	127.7	112.1	100.5	90.52	84.28	78.71	76.65	72.48	70.31	68.20	65.95	66.90	65.73	65.60	64.33	63.93	62.33	61.53	59.13	54.78	48.14	42.97	37.99	32.97	29.34	25.11	26.31	31.08	23.18	14.34	11.23	9.597	8.236	6.986	5.865	5.354	7.707	14.15	28.46	155.5	871.8	 1231	153.7	3.317	1.505	1.289	1.283	1.163	1.039	1.021	0.947	0.886	0.920	0.869	0.832	0.786	0.813	0.783	0.728	0.628	0.732	0.690	0.676	0.641	0.639
490.0	84.04	112.7	115.7	520.9	 2342	 1288	238.5	152.0	153.5	146.9	142.1	129.5	116.7	103.0	93.35	82.44	75.31	71.65	68.35	66.53	63.24	61.94	59.68	59.91	59.71	58.44	57.87	58.16	57.05	55.83	53.62	49.54	44.22	40.29	35.86	30.96	27.62	23.53	22.31	24.50	26.30	19.41	12.33	9.715	8.319	7.256	6.340	5.464	5.394	6.174	8.925	37.13	216.0	694.9	 1060	446.0	11.17	1.535	1.289	1.219	1.044	1.008	0.980	0.905	0.853	0.788	0.875	0.758	0.759	0.727	0.685	0.646	0.746	0.624	0.648	0.615	0.634
495.0	67.52	114.1	111.6	196.5	815.3	 1720	850.5	141.1	136.7	135.7	125.2	115.6	105.8	92.91	82.59	71.99	68.21	64.42	61.21	58.68	56.90	54.78	52.56	52.96	52.74	51.83	51.48	51.41	51.39	49.51	48.50	44.67	40.74	36.88	32.81	28.44	25.42	22.66	20.32	19.44	21.56	23.20	15.92	10.50	8.585	7.770	6.658	5.832	5.306	4.607	4.723	10.70	50.31	157.8	444.3	 1235	222.3	13.77	1.415	1.212	1.133	1.006	0.958	0.913	0.850	0.645	0.736	0.742	0.753	0.660	0.635	0.627	0.580	0.617	0.575	0.600	0.519
500.0	57.30	91.85	119.5	128.0	278.6	 1242	 1791	184.8	126.6	124.2	118.6	106.8	100.1	84.36	75.11	67.04	61.98	58.53	56.21	53.48	50.84	49.24	48.07	48.46	47.15	46.59	45.92	46.78	46.64	45.23	43.53	40.45	37.41	34.46	30.61	26.37	23.51	21.26	19.25	17.40	17.62	21.08	18.86	12.21	8.732	7.551	6.830	5.859	5.198	4.536	3.932	4.851	13.59	37.16	105.1	584.8	 1211	201.0	7.928	1.275	1.091	0.932	0.940	0.822	0.774	0.654	0.751	0.659	0.743	0.618	0.694	0.560	0.559	0.591	0.512	0.629	0.527
505.0	49.01	76.61	119.7	108.4	134.1	596.5	 2264	328.7	117.3	114.6	108.6	96.61	88.45	77.86	69.94	59.78	56.91	53.43	51.29	48.62	45.84	44.50	44.17	43.33	41.92	42.30	42.44	42.26	42.38	41.15	40.42	36.69	35.10	31.34	27.94	25.51	22.89	20.11	18.02	16.40	14.90	16.66	19.75	14.99	9.516	7.587	6.730	5.928	5.336	4.507	3.935	3.645	5.279	10.32	25.42	144.0	762.2	 1105	158.9	3.173	1.193	0.984	0.849	0.846	0.688	0.612	0.682	0.660	0.586	0.554	0.555	0.557	0.559	0.569	0.574	0.547	0.484
510.0	43.92	60.95	99.60	111.3	100.4	218.8	 1403	 1112	179.9	101.4	96.27	87.02	79.79	69.03	61.96	53.99	50.81	47.04	45.13	43.79	41.21	39.10	38.56	38.15	37.54	37.33	36.74	37.51	37.00	35.90	35.80	33.14	30.63	27.91	25.64	23.05	20.47	18.57	16.82	15.04	13.55	13.24	15.20	16.48	12.01	8.125	6.510	5.803	5.083	4.441	4.097	3.528	3.506	4.303	7.528	33.89	187.6	601.2	846.6	355.1	11.13	1.129	0.863	0.840	0.705	0.622	0.569	0.629	0.572	0.586	0.541	0.531	0.429	0.431	0.513	0.533	0.484
515.0	38.59	52.17	69.62	116.7	90.68	108.5	463.5	 1310	643.7	90.70	84.74	77.53	67.68	60.42	55.19	47.76	44.79	40.99	39.25	37.64	35.49	33.34	34.25	33.06	33.32	31.89	32.00	32.40	32.16	31.86	30.85	28.77	27.06	24.73	22.71	20.59	18.67	16.97	15.21	14.06	12.60	11.48	11.23	13.05	14.45	10.60	6.568	5.855	4.862	4.553	4.156	3.618	3.042	2.904	3.455	9.252	43.45	135.9	310.6	878.7	224.2	13.61	1.074	0.876	0.719	0.619	0.606	0.567	0.571	0.534	0.423	0.461	0.478	0.430	0.373	0.398	0.443
520.0	34.35	47.39	59.58	102.8	95.88	79.27	167.4	882.5	 1181	141.8	75.97	70.24	63.99	57.43	49.14	41.85	39.30	37.79	34.67	34.46	31.65	30.03	30.02	29.59	29.53	28.93	28.68	28.95	28.22	28.24	28.16	25.58	24.38	22.18	20.56	18.40	16.88	15.69	14.39	12.81	11.66	10.15	9.660	10.31	13.51	12.27	7.603	5.520	4.942	4.430	3.960	3.642	3.155	2.806	2.470	3.688	11.21	31.80	72.75	398.4	896.0	191.8	6.274	0.916	0.665	0.596	0.629	0.520	0.451	0.537	0.394	0.383	0.347	0.475	0.399	0.373	0.352
525.0	36.91	42.01	50.82	82.05	99.15	72.08	90.11	400.3	 1364	423.6	73.34	65.08	58.61	52.25	45.05	38.81	34.65	33.40	31.70	31.06	28.60	26.96	27.27	25.97	26.48	25.89	25.70	26.20	25.19	25.70	25.21	23.84	21.79	20.43	19.12	17.15	15.13	14.34	13.24	11.97	10.96	9.833	8.923	8.776	10.78	12.68	9.292	5.833	4.814	4.352	3.802	3.405	3.141	2.638	2.366	2.341	4.034	8.457	17.62	96.36	521.0	782.9	30.09	2.493	0.875	0.596	0.595	0.550	0.511	0.473	0.398	0.451	0.450	0.408	0.364	0.360	0.330
530.0	32.37	36.41	39.27	56.35	88.37	75.64	66.90	145.7	818.0	 1036	143.1	58.39	51.87	45.93	39.07	34.66	30.79	29.09	27.75	26.89	25.10	23.79	23.31	23.15	23.46	22.60	22.90	22.71	22.81	22.52	21.75	21.07	19.42	17.79	16.46	15.24	13.48	12.57	11.86	11.01	9.766	8.927	8.072	7.564	8.012	9.814	10.52	7.454	4.938	4.131	3.482	3.170	2.832	2.600	2.467	2.074	2.374	3.204	5.208	22.62	126.2	402.0	557.1	253.6	10.50	0.760	0.619	0.475	0.488	0.419	0.430	0.414	0.348	0.367	0.331	0.343	0.295
535.0	31.97	30.87	37.31	46.01	64.19	81.03	56.96	74.96	271.2	 1041	656.6	54.77	44.65	38.55	33.55	29.54	26.24	25.51	23.89	23.01	21.52	20.39	20.45	20.10	19.99	18.92	19.15	19.23	19.63	19.26	19.12	17.44	16.79	14.95	14.32	13.26	12.18	11.10	10.10	9.607	8.670	8.045	7.340	6.925	7.012	6.633	8.615	9.027	6.277	4.084	3.214	3.010	2.646	2.546	2.489	2.155	2.047	1.917	2.355	6.058	29.02	90.82	193.5	588.4	221.0	13.42	0.798	0.517	0.499	0.399	0.370	0.321	0.259	0.301	0.293	0.270	0.310
540.0	25.58	30.71	36.37	41.30	49.00	75.76	59.37	55.07	102.5	629.5	 1098	127.3	40.50	36.23	30.14	26.57	24.16	22.28	21.08	20.63	19.11	18.10	17.81	17.81	17.66	16.94	16.50	17.66	17.99	17.68	17.45	15.83	15.14	13.70	12.87	11.85	10.75	10.21	9.538	8.597	7.936	7.406	6.804	6.125	5.900	5.653	6.619	8.182	7.404	4.533	3.243	2.850	2.590	2.314	2.226	2.160	2.014	1.638	1.555	2.414	7.439	21.14	44.89	249.9	616.1	183.7	6.034	0.643	0.407	0.418	0.349	0.352	0.352	0.286	0.268	0.289	0.278
545.0	23.37	26.79	32.48	35.11	41.63	63.97	66.51	48.47	58.49	271.6	 1097	437.0	37.54	31.95	26.83	23.04	21.94	20.66	19.75	18.24	17.62	17.31	16.38	15.99	15.69	15.19	15.19	15.71	16.11	15.68	15.62	14.37	13.37	12.91	11.69	10.61	9.920	9.242	8.248	8.018	7.324	6.843	6.137	5.818	5.461	5.384	5.348	6.382	7.518	5.458	3.392	2.640	2.478	2.125	2.015	1.967	2.083	1.630	1.379	1.484	2.498	5.604	10.88	60.02	336.8	579.5	30.81	1.982	0.603	0.422	0.408	0.359	0.295	0.262	0.262	0.234	0.289
550.0	24.49	27.13	27.88	29.88	32.19	43.81	67.65	48.95	43.14	95.63	579.5	896.3	102.8	28.56	23.79	20.52	19.01	17.76	17.26	15.83	15.17	14.55	14.38	13.44	13.34	13.15	13.34	13.14	13.62	13.45	13.05	12.59	11.80	11.16	9.910	9.106	8.560	8.068	7.452	7.085	6.491	5.920	5.473	5.043	4.942	4.586	4.407	4.480	5.914	6.188	4.213	2.718	2.421	1.964	1.918	1.644	1.791	1.734	1.452	1.302	1.405	2.009	3.190	14.12	80.65	279.4	396.2	130.3	10.09	0.514	0.403	0.308	0.295	0.290	0.227	0.252	0.262
555.0	23.26	25.68	24.61	27.37	23.94	31.53	52.66	55.72	37.03	45.88	177.3	745.2	593.6	30.44	20.56	18.25	16.18	15.28	15.15	13.28	12.82	12.22	12.19	11.43	11.36	11.15	11.25	10.87	11.30	10.83	10.74	10.52	9.831	9.106	8.399	7.628	7.374	6.844	6.681	6.019	5.378	5.028	4.517	4.206	4.233	4.014	3.774	3.487	3.783	5.155	4.720	3.171	2.200	1.755	1.715	1.495	1.593	1.561	1.560	1.273	1.067	1.102	1.436	3.788	18.65	63.16	129.3	391.2	210.9	11.78	0.498	0.330	0.232	0.243	0.234	0.208	0.184
560.0	24.35	22.76	22.28	26.61	21.07	25.52	39.60	55.40	34.87	33.95	63.45	401.1	903.2	101.4	18.24	16.31	13.96	13.16	12.33	11.35	11.14	10.50	10.41	10.28	9.926	9.505	9.624	9.627	9.472	9.655	9.026	9.077	8.446	7.641	7.540	6.864	6.394	6.086	5.637	5.021	4.859	4.545	3.990	3.736	3.756	3.470	3.242	2.959	2.798	3.663	4.648	3.741	2.101	1.632	1.586	1.476	1.421	1.264	1.430	1.257	1.030	0.937	0.998	1.470	4.844	14.72	30.07	161.0	416.7	156.7	4.411	0.393	0.269	0.294	0.201	0.189	0.221
565.0	19.38	22.66	19.21	22.88	20.10	21.59	26.71	48.10	40.31	27.63	35.49	160.4	793.1	391.2	16.98	13.93	11.83	11.52	10.88	10.04	9.619	9.148	8.747	8.593	8.373	8.003	8.425	8.042	8.021	8.038	8.441	7.813	6.899	6.927	6.338	5.965	5.374	5.239	4.714	4.355	4.407	3.947	3.515	3.190	3.420	2.977	2.838	2.635	2.478	2.549	3.535	3.698	2.398	1.607	1.359	1.230	1.266	1.182	1.262	1.192	1.052	0.881	0.816	0.825	1.679	3.783	7.336	38.16	207.7	367.0	30.65	1.595	0.366	0.286	0.167	0.217	0.158
570.0	20.57	19.59	17.69	19.20	16.59	17.91	19.77	33.63	44.38	27.62	25.51	54.97	374.2	695.2	132.8	11.38	10.00	9.340	8.991	8.096	7.719	7.402	7.143	6.862	6.929	6.523	6.789	6.539	6.449	6.716	6.449	6.057	5.823	5.444	5.020	4.591	4.333	4.255	3.780	3.549	3.529	3.249	2.912	2.640	2.722	2.495	2.306	2.214	1.946	1.963	2.296	2.920	2.664	1.822	1.324	1.113	1.101	1.039	0.994	0.930	1.048	0.918	0.776	0.675	0.882	1.359	2.167	9.069	49.30	165.1	216.3	112.8	8.027	0.322	0.190	0.181	0.158
575.0	17.90	20.08	16.34	16.23	13.75	14.36	15.91	21.99	39.54	32.76	20.69	27.03	108.6	485.6	499.3	17.24	8.065	7.678	6.539	6.430	6.241	5.811	5.681	5.414	5.018	5.167	5.295	5.147	5.100	5.178	5.055	4.821	4.445	4.102	3.904	3.731	3.304	3.206	3.024	2.660	2.651	2.530	2.201	2.063	2.163	1.904	1.851	1.668	1.561	1.471	1.456	1.657	2.267	2.076	1.376	1.001	0.874	0.836	0.832	0.803	0.830	0.823	0.829	0.631	0.564	0.722	0.892	2.497	11.41	37.32	68.90	214.9	141.1	7.671	0.247	0.200	0.189
580.0	14.40	16.95	15.17	15.72	12.98	11.72	13.17	15.70	32.22	37.76	20.98	19.41	37.34	243.5	676.5	78.46	7.009	6.566	5.859	5.318	5.063	4.967	4.750	4.292	4.350	4.352	4.296	4.491	4.503	4.270	4.198	4.041	3.406	3.210	3.125	2.939	2.796	2.738	2.521	2.227	2.468	2.172	1.847	1.744	1.885	1.576	1.628	1.502	1.396	1.263	1.202	1.124	1.791	1.902	1.543	1.071	0.822	0.688	0.753	0.652	0.706	0.708	0.875	0.581	0.559	0.691	0.614	0.939	2.958	8.758	15.92	83.58	223.1	32.83	2.093	0.216	0.191
585.0	18.25	17.33	15.35	15.06	11.73	10.47	12.51	13.97	23.07	38.85	24.47	18.35	20.55	90.57	530.4	328.3	7.429	5.529	4.998	4.662	4.331	4.499	3.860	3.948	3.801	3.578	3.556	3.670	3.745	3.500	3.465	3.341	3.024	2.765	2.716	2.624	2.483	2.440	2.208	1.857	2.026	1.834	1.713	1.607	1.403	1.370	1.308	1.226	1.225	1.096	0.964	0.983	1.258	1.612	1.635	1.109	0.714	0.574	0.610	0.568	0.594	0.650	0.646	0.605	0.686	0.563	0.501	0.596	0.984	2.326	3.870	19.80	107.6	186.7	27.00	0.712	0.184
590.0	16.62	17.92	16.33	12.05	11.03	9.647	11.06	12.21	16.96	32.39	32.40	18.80	17.19	30.73	225.0	526.5	112.8	4.782	4.318	3.977	3.857	3.504	3.286	3.233	3.229	2.959	2.781	2.920	3.069	2.691	2.849	2.770	2.622	2.269	2.276	2.121	2.027	1.937	1.827	1.648	1.609	1.513	1.437	1.401	1.253	1.155	1.109	1.054	1.066	0.842	0.807	0.843	0.868	1.022	1.334	1.228	0.802	0.599	0.541	0.526	0.549	0.525	0.537	0.522	0.699	0.510	0.446	0.489	0.583	0.841	1.158	4.683	25.47	83.56	126.2	66.62	5.240
595.0	16.39	16.34	13.34	11.87	9.592	9.578	9.289	11.90	15.69	25.00	37.26	24.37	15.98	16.12	62.34	318.7	410.4	11.59	3.659	3.308	3.057	2.894	2.708	2.522	2.529	2.416	2.295	2.326	2.258	2.444	2.297	2.140	2.221	1.746	1.817	1.693	1.676	1.565	1.402	1.288	1.262	1.234	1.165	1.118	1.009	0.975	0.893	0.919	0.807	0.677	0.598	0.649	0.629	0.686	0.879	1.145	0.897	0.649	0.495	0.443	0.428	0.433	0.521	0.431	0.556	0.494	0.471	0.510	0.410	0.510	0.512	1.292	5.913	18.93	38.59	115.8	34.14
600.0	15.52	17.35	14.76	13.54	9.985	9.172	9.704	11.60	15.04	21.30	35.40	31.22	17.56	15.11	22.54	142.3	517.7	63.81	3.323	2.790	2.568	2.480	2.403	2.218	2.105	1.997	2.071	2.080	2.083	1.952	1.919	1.917	1.916	1.522	1.628	1.400	1.478	1.418	1.146	1.123	0.996	0.988	0.955	0.992	0.850	0.970	0.790	0.721	0.744	0.544	0.547	0.545	0.541	0.554	0.619	0.907	1.055	0.732	0.513	0.405	0.426	0.402	0.385	0.390	0.424	0.516	0.495	0.400	0.398	0.401	0.389	0.538	1.487	4.414	8.943	44.47	111.5
605.0	14.11	15.57	16.84	16.39	9.424	10.78	11.57	12.07	16.31	20.70	34.10	38.69	22.28	17.37	15.23	52.02	376.7	280.7	4.726	2.406	2.190	2.173	1.984	1.852	1.710	1.896	1.718	1.953	1.807	1.711	1.763	1.781	1.683	1.318	1.421	1.324	1.220	1.238	0.990	0.984	0.890	0.883	0.735	0.882	0.730	0.810	0.673	0.636	0.628	0.538	0.444	0.453	0.398	0.521	0.452	0.598	0.875	0.758	0.568	0.408	0.399	0.354	0.348	0.334	0.376	0.498	0.527	0.443	0.399	0.434	0.344	0.350	0.611	1.240	2.145	10.51	55.59
610.0	15.54	18.02	15.95	14.28	9.723	10.95	13.16	14.83	19.36	23.06	30.33	42.41	32.44	21.10	16.64	22.16	150.7	419.4	98.49	2.489	2.011	1.947	1.751	1.815	1.485	1.564	1.587	1.585	1.577	1.380	1.441	1.370	1.318	1.202	1.304	1.153	1.002	1.043	0.873	0.792	0.804	0.652	0.653	0.759	0.605	0.652	0.573	0.529	0.534	0.501	0.459	0.394	0.372	0.391	0.431	0.447	0.593	0.790	0.656	0.463	0.374	0.430	0.350	0.390	0.394	0.432	0.460	0.514	0.460	0.367	0.315	0.309	0.370	0.485	0.694	2.540	13.21
615.0	15.01	16.82	14.82	12.93	10.46	11.06	13.55	15.03	19.63	23.20	28.38	38.19	40.72	24.65	17.90	15.14	44.16	234.1	345.5	10.46	1.945	1.883	1.467	1.438	1.417	1.309	1.200	1.253	1.205	1.233	1.262	1.169	1.046	1.165	0.944	1.076	0.937	0.880	0.801	0.705	0.703	0.564	0.605	0.642	0.512	0.502	0.462	0.517	0.450	0.411	0.418	0.339	0.300	0.330	0.370	0.360	0.429	0.577	0.700	0.526	0.422	0.352	0.368	0.407	0.430	0.342	0.453	0.490	0.499	0.430	0.305	0.336	0.316	0.391	0.357	0.763	3.123
620.0	17.52	16.03	20.01	13.68	12.41	10.92	13.86	16.30	19.84	21.51	26.99	33.84	42.98	28.24	18.60	12.91	17.80	96.90	421.1	57.90	1.876	1.570	1.474	1.282	1.150	1.187	1.102	1.040	1.028	1.085	1.158	1.074	1.085	1.101	1.010	1.002	0.882	0.808	0.723	0.574	0.617	0.548	0.504	0.495	0.452	0.451	0.410	0.401	0.419	0.397	0.355	0.333	0.322	0.355	0.306	0.315	0.318	0.378	0.661	0.581	0.496	0.308	0.326	0.412	0.333	0.370	0.426	0.425	0.443	0.415	0.296	0.314	0.325	0.325	0.310	0.338	0.852
625.0	15.12	19.33	17.13	15.23	12.11	11.52	13.55	16.87	18.48	21.64	27.79	32.18	39.73	31.48	19.38	13.52	11.92	34.82	285.6	253.2	3.241	1.484	1.229	1.120	1.242	1.014	1.049	1.036	1.045	1.007	0.999	0.890	1.036	1.111	0.993	0.972	0.909	0.730	0.619	0.573	0.514	0.507	0.436	0.389	0.457	0.399	0.378	0.355	0.418	0.357	0.329	0.319	0.325	0.309	0.269	0.253	0.315	0.341	0.508	0.560	0.482	0.318	0.329	0.297	0.281	0.344	0.353	0.338	0.404	0.442	0.416	0.363	0.271	0.276	0.243	0.245	0.391
630.0	15.32	20.58	18.72	17.34	12.68	12.02	14.47	16.59	18.36	22.82	26.94	30.56	35.23	36.21	21.77	14.21	11.47	14.36	103.5	345.9	89.20	1.824	1.062	1.074	1.152	1.054	0.909	0.893	0.901	0.993	1.001	1.058	1.055	1.041	1.068	1.078	1.029	0.799	0.628	0.503	0.465	0.443	0.409	0.350	0.346	0.393	0.371	0.317	0.338	0.319	0.257	0.280	0.303	0.289	0.261	0.257	0.276	0.349	0.335	0.429	0.499	0.421	0.311	0.315	0.305	0.305	0.314	0.381	0.346	0.395	0.426	0.408	0.267	0.268	0.226	0.220	0.246
635.0	16.24	27.53	20.80	16.85	15.02	11.97	15.03	16.99	20.71	24.18	28.20	34.21	37.04	38.18	30.28	16.70	12.96	9.824	27.63	171.9	305.3	9.638	1.135	1.082	1.081	0.979	0.865	0.893	1.003	1.088	1.200	1.150	1.337	1.323	1.549	1.631	1.381	1.009	0.789	0.504	0.490	0.409	0.374	0.291	0.337	0.350	0.345	0.333	0.321	0.272	0.245	0.215	0.288	0.306	0.294	0.281	0.261	0.269	0.299	0.331	0.441	0.395	0.350	0.322	0.384	0.305	0.322	0.328	0.316	0.400	0.328	0.402	0.286	0.340	0.232	0.264	0.188
640.0	19.56	33.49	25.01	20.12	13.08	12.74	14.60	17.41	20.15	24.01	29.60	34.75	37.23	38.42	35.33	19.99	14.37	10.05	9.821	62.54	355.8	51.19	1.233	1.246	1.042	1.090	0.922	1.105	1.212	1.180	1.320	1.317	1.597	1.682	1.954	2.210	1.806	1.364	0.854	0.601	0.483	0.363	0.355	0.244	0.296	0.328	0.358	0.339	0.362	0.282	0.251	0.253	0.261	0.280	0.328	0.304	0.322	0.318	0.257	0.283	0.344	0.407	0.340	0.347	0.338	0.298	0.292	0.292	0.332	0.381	0.332	0.411	0.408	0.318	0.266	0.279	0.196
645.0	22.29	37.84	35.34	24.92	14.50	13.25	15.94	18.03	18.47	26.79	30.42	36.22	36.72	36.59	36.89	22.82	14.84	10.27	5.786	19.87	228.9	227.7	2.877	1.219	0.990	1.136	1.124	1.151	1.258	1.195	1.353	1.531	1.847	1.935	2.518	2.573	2.357	1.820	1.158	0.703	0.480	0.426	0.351	0.292	0.268	0.372	0.342	0.358	0.315	0.296	0.279	0.259	0.255	0.259	0.320	0.315	0.309	0.356	0.273	0.288	0.266	0.340	0.289	0.373	0.341	0.336	0.351	0.369	0.339	0.344	0.285	0.360	0.451	0.349	0.290	0.266	0.252
650.0	24.07	40.10	44.55	30.53	18.82	13.41	14.33	16.83	20.48	25.70	32.06	36.38	36.77	35.70	34.54	25.85	14.51	9.772	5.169	7.227	94.77	338.0	27.19	1.430	1.000	1.206	1.084	1.128	1.271	1.231	1.574	1.640	1.903	2.095	2.618	2.758	2.948	2.023	1.384	0.815	0.614	0.380	0.398	0.274	0.296	0.296	0.322	0.382	0.337	0.298	0.311	0.274	0.260	0.247	0.281	0.334	0.329	0.363	0.300	0.313	0.259	0.264	0.303	0.419	0.341	0.352	0.332	0.379	0.317	0.350	0.351	0.314	0.349	0.398	0.297	0.236	0.222
