Sample:	'1
File name:	f2025050907ºéÔ°½ÚÖÆÕ¢.FD3
Run date:	'19:09:26, 05/09/2025
Operator:	Administrator
Comment:	'

Instrument
Model:	F-2700 FL Spectrophotometer
Serial number:	23B8-004
ROM Version:	4J14000 07

Instrument parameters
Measurement type:	3-D scan
Data mode:	Fluorescence
EX  Start WL:	220.0 nm
EX  End WL:	600.0 nm
EX Sampling interval:	5.0 nm
EM  Start WL:	230.0 nm
EM  End WL:	650.0 nm
EM Sampling interval:	5.0 nm
Scan speed:	12000 nm/min
EX Slit:	5.0 nm
EM Slit:	5.0 nm
PMT Voltage:	700 V
Response:	Auto 
Corrected spectra:	Off
Contour interval:	50.000

Peak integration
Integration method:	Rectangular
Sensitivity:	1
Threshold:	1.000

Peaks
No.	ApexEX/EM(nm)	Height(Data)
1	225.0/555.0	72.55
2	225.0/615.0	60.11
3	230.0/340.0	2471
4	230.0/565.0	69.44
5	230.0/575.0	63.79
6	230.0/590.0	60.35
7	230.0/605.0	64.14
8	230.0/620.0	64.73
9	245.0/535.0	219.4
10	255.0/280.0	540.5
11	255.0/560.0	137.8
12	260.0/290.0	554.3
13	260.0/575.0	115.6
14	265.0/585.0	102.8
15	270.0/600.0	106.0
16	275.0/615.0	111.9
17	280.0/335.0	2692
18	280.0/625.0	121.9
19	460.0/340.0	7.593
20	520.0/285.0	3.594
21	555.0/340.0	13.56

Data points
	220.0	225.0	230.0	235.0	240.0	245.0	250.0	255.0	260.0	265.0	270.0	275.0	280.0	285.0	290.0	295.0	300.0	305.0	310.0	315.0	320.0	325.0	330.0	335.0	340.0	345.0	350.0	355.0	360.0	365.0	370.0	375.0	380.0	385.0	390.0	395.0	400.0	405.0	410.0	415.0	420.0	425.0	430.0	435.0	440.0	445.0	450.0	455.0	460.0	465.0	470.0	475.0	480.0	485.0	490.0	495.0	500.0	505.0	510.0	515.0	520.0	525.0	530.0	535.0	540.0	545.0	550.0	555.0	560.0	565.0	570.0	575.0	580.0	585.0	590.0	595.0	600.0
230.0	34.81	1442	5443	2341	101.9	9.932	7.709	6.165	5.822	5.678	5.317	5.150	5.087	4.451	4.032	3.539	3.289	3.126	2.742	2.542	2.504	2.208	1.967	1.778	1.727	1.920	1.488	1.270	1.317	1.165	1.081	0.988	0.997	0.940	0.796	0.799	0.731	0.625	0.622	0.601	0.582	0.649	0.571	0.577	0.525	0.527	1.418	8.110	18.67	15.91	7.224	1.501	0.425	0.344	0.322	0.313	0.311	0.279	0.273	0.236	0.234	0.222	0.229	0.231	0.199	0.156	0.178	0.150	0.127	0.156	0.129	0.097	0.101	0.113	0.073	0.072	0.073
235.0	69.22	391.5	3414	6880	3200	183.8	10.89	8.531	7.393	6.357	5.779	6.004	5.153	4.713	4.686	3.821	3.636	3.161	3.189	2.693	2.477	2.056	2.046	1.966	1.613	1.973	1.403	1.298	1.406	1.157	1.198	1.115	0.812	0.846	0.823	0.836	0.698	0.610	0.664	0.627	0.613	0.590	0.618	0.691	0.705	0.536	0.649	2.260	6.856	14.25	25.70	23.84	13.89	3.134	0.562	0.345	0.341	0.286	0.331	0.319	0.264	0.255	0.242	0.223	0.275	0.212	0.245	0.146	0.164	0.134	0.202	0.121	0.106	0.147	0.084	0.126	0.065
240.0	104.4	157.7	982.2	6306	9999.9	2634	87.17	13.29	10.26	8.388	7.491	6.691	5.723	5.980	4.897	4.012	4.122	3.390	2.969	2.934	2.410	2.172	2.046	2.035	1.804	1.844	1.422	1.537	1.301	1.258	1.270	1.071	0.958	0.848	0.883	0.922	0.730	0.739	0.779	0.658	0.587	0.670	0.572	0.604	0.676	0.696	0.638	0.986	1.928	4.286	12.96	33.98	48.48	24.50	12.57	1.902	0.371	0.395	0.353	0.280	0.309	0.221	0.293	0.210	0.244	0.207	0.235	0.149	0.192	0.198	0.219	0.138	0.109	0.127	0.116	0.123	0.102
245.0	89.52	173.3	285.8	2099	9999.9	9999.9	440.4	35.41	14.68	10.40	9.924	7.847	7.010	6.469	5.018	4.039	4.471	3.238	3.421	3.016	2.678	2.394	2.338	1.980	2.080	2.210	1.786	1.495	1.315	1.499	1.231	1.001	1.089	0.912	0.873	1.051	0.728	0.973	0.711	0.707	0.683	0.649	0.617	0.592	0.665	0.694	0.873	0.782	0.907	1.375	3.477	10.88	32.24	55.38	61.99	22.99	8.602	0.879	0.367	0.307	0.293	0.253	0.265	0.203	0.241	0.184	0.231	0.204	0.200	0.184	0.156	0.165	0.084	0.120	0.127	0.118	0.110
250.0	54.35	131.6	233.8	564.0	3132	9999.9	9999.9	4500	119.1	16.91	13.48	10.64	9.380	7.574	6.334	4.851	5.071	4.450	3.648	3.011	2.987	2.760	2.471	2.153	2.076	2.312	1.815	1.722	1.501	1.514	1.294	1.192	1.163	0.951	0.975	0.930	0.901	0.891	0.759	0.830	0.827	0.653	0.767	0.630	0.588	0.567	0.718	0.916	0.999	1.059	1.315	2.881	7.895	17.06	35.72	52.13	72.21	58.72	16.67	7.691	0.985	0.357	0.352	0.305	0.303	0.270	0.213	0.236	0.237	0.173	0.184	0.206	0.136	0.161	0.102	0.144	0.120
255.0	40.31	58.17	160.9	370.1	791.1	2490	9679	9999.9	2277	137.9	21.92	15.25	12.59	10.07	7.531	5.818	5.620	5.004	4.282	3.717	3.259	3.046	2.518	2.302	2.148	2.434	2.181	1.682	1.773	1.951	1.385	1.302	1.123	0.945	1.117	0.906	0.838	0.912	0.725	0.924	0.781	0.838	0.769	0.667	0.703	0.635	0.725	0.607	0.777	1.043	1.416	1.773	2.268	4.228	8.402	12.50	25.39	58.80	109.1	105.7	25.95	9.181	0.789	0.392	0.432	0.373	0.256	0.242	0.318	0.207	0.176	0.233	0.197	0.166	0.189	0.150	0.167
260.0	40.96	43.05	75.66	268.2	403.8	628.7	2969	9999.9	9999.9	1785	78.26	21.23	16.74	12.89	9.096	7.311	6.571	5.787	4.876	3.743	3.288	3.284	2.736	2.422	2.138	2.602	2.145	1.948	2.087	1.699	1.389	1.448	1.205	1.048	1.360	0.925	0.903	0.887	0.831	0.903	0.806	0.843	0.760	0.649	0.633	0.706	0.712	0.484	0.670	0.630	1.016	1.666	1.888	1.944	2.368	3.230	6.176	15.77	47.56	102.8	135.5	106.2	21.76	4.480	0.541	0.466	0.358	0.346	0.331	0.269	0.244	0.236	0.266	0.175	0.172	0.182	0.221
265.0	47.80	40.27	47.92	133.0	370.8	328.5	724.9	4208	9999.9	9999.9	1310	41.07	22.35	16.23	11.05	8.172	7.455	6.040	5.674	4.303	4.299	3.443	3.096	2.979	2.391	2.841	2.123	2.065	1.844	1.906	1.681	1.551	1.405	1.301	1.055	1.080	0.987	0.987	0.814	0.778	0.915	0.883	0.790	0.607	0.803	0.742	0.658	0.594	0.596	0.518	0.633	0.941	1.745	2.399	1.847	1.367	1.798	4.161	11.43	30.01	74.48	145.4	173.4	31.57	16.19	1.597	0.473	0.383	0.438	0.321	0.313	0.237	0.285	0.228	0.264	0.218	0.242
270.0	66.64	68.03	59.09	69.16	185.8	374.1	373.4	1029	4690	9999.9	9999.9	4860	81.49	25.42	16.96	11.79	9.640	7.628	6.667	5.069	4.727	4.234	3.787	3.221	2.785	3.271	2.529	2.328	2.061	2.064	1.826	1.877	1.655	1.374	1.301	1.224	1.060	1.045	0.968	0.846	0.904	0.938	0.830	0.817	0.836	0.854	0.749	0.663	0.684	0.602	0.575	0.630	0.910	1.424	2.006	2.098	1.898	1.764	3.162	7.229	17.78	41.64	85.98	114.7	158.8	118.7	78.47	10.87	1.819	0.557	0.430	0.353	0.292	0.313	0.294	0.309	0.300
275.0	122.4	137.3	113.3	79.45	85.77	191.5	477.0	454.6	1124	2860	9999.9	9999.9	6442	89.24	27.56	18.64	14.63	10.63	8.138	6.193	6.265	5.068	4.433	3.745	3.295	3.712	2.779	2.554	2.362	2.254	2.232	2.198	1.791	1.607	1.488	1.386	1.112	1.183	1.060	0.929	0.936	0.955	0.951	0.899	0.941	0.899	0.875	0.926	0.940	0.670	0.764	0.680	0.641	0.824	0.989	1.361	2.300	3.100	2.494	2.484	4.624	9.953	19.86	26.91	47.67	99.06	207.4	224.2	31.64	14.88	1.211	0.669	0.460	0.429	0.384	0.463	0.282
280.0	206.3	198.3	188.0	121.9	77.05	101.9	324.5	540.5	403.5	746.4	3810	9999.9	9999.9	1038	58.42	27.09	19.62	13.01	10.25	7.809	7.273	5.769	4.983	4.260	3.662	4.198	2.872	3.015	2.577	2.592	2.258	2.186	2.008	1.699	1.520	1.601	1.208	1.247	1.093	1.210	1.030	1.078	1.040	1.050	0.902	1.090	1.084	1.188	1.121	0.924	0.882	0.839	0.711	0.694	0.791	0.897	1.330	2.363	3.337	2.840	2.247	2.941	5.194	6.802	11.56	25.10	73.50	175.1	259.9	205.5	26.92	9.242	0.971	0.637	0.609	0.434	0.440
285.0	254.6	292.5	278.1	167.3	93.71	83.43	166.2	504.6	377.6	322.1	1027	5688	9999.9	9999.9	711.0	40.61	26.04	17.69	11.97	9.776	8.141	6.396	5.475	4.784	3.994	4.444	3.331	3.071	2.842	2.601	2.392	2.075	1.957	1.908	1.788	1.669	1.450	1.380	1.188	1.103	1.129	1.162	1.270	1.070	1.262	1.285	1.406	1.411	1.404	1.110	1.137	0.930	0.724	0.862	0.843	0.841	0.952	1.189	2.200	3.199	3.594	2.633	2.214	2.550	3.564	6.559	17.61	45.45	114.7	219.3	258.7	178.4	21.93	3.697	0.889	0.515	0.634
290.0	337.7	430.3	403.1	256.3	131.0	100.8	136.6	277.4	554.3	529.9	516.0	1558	6100	9999.9	9999.9	2933	58.83	27.55	18.55	12.90	10.75	8.154	6.830	5.613	4.725	5.080	3.965	3.699	3.220	3.143	2.840	2.422	2.153	2.158	2.163	1.914	1.741	1.575	1.368	1.342	1.317	1.327	1.449	1.340	1.445	1.536	1.714	1.836	1.801	1.472	1.324	1.237	0.985	0.940	1.003	0.820	1.020	1.148	1.366	1.789	2.794	3.532	3.844	3.227	2.562	2.956	5.362	11.75	27.55	56.71	105.0	173.8	204.4	164.3	122.2	15.22	4.960
295.0	431.2	567.1	568.0	369.0	193.3	161.9	181.3	255.1	400.1	786.7	842.9	786.7	1765	3187	9999.9	9999.9	4185	64.02	28.72	18.50	14.84	11.02	9.129	7.295	5.903	6.003	4.499	3.932	3.655	3.499	3.111	2.759	2.545	2.190	2.402	2.185	1.984	1.880	1.683	1.451	1.434	1.503	1.571	1.469	1.605	1.898	1.962	2.250	2.285	1.793	1.797	1.585	1.236	1.254	1.219	1.167	1.169	1.434	1.283	1.766	1.827	2.488	3.242	4.590	5.588	4.131	3.636	5.003	8.642	14.62	25.43	40.82	53.56	98.62	236.5	276.0	210.6
300.0	524.9	677.4	704.2	489.1	265.4	236.0	255.1	333.9	440.0	720.9	1246	945.4	986.7	1187	4110	9999.9	9999.9	626.3	49.58	24.92	19.71	14.09	11.08	8.911	6.714	7.054	5.348	4.566	4.230	3.832	3.484	2.993	2.742	2.466	2.388	2.385	2.261	1.989	1.856	1.619	1.434	1.578	1.788	1.622	1.767	1.991	2.324	2.548	2.524	2.181	2.093	1.850	1.551	1.553	1.490	1.508	1.635	1.810	1.916	2.030	2.185	2.491	2.978	3.886	5.795	6.144	5.779	4.833	5.517	6.197	8.529	11.75	14.16	24.84	69.85	173.2	342.8
305.0	601.6	837.5	864.3	615.2	363.0	309.1	349.0	466.7	576.2	797.7	1308	1456	1115	940.5	1375	6175	9999.9	9999.9	459.4	36.91	25.08	18.40	14.49	10.25	8.189	7.918	6.237	4.941	4.633	4.544	3.510	3.450	2.877	2.740	2.695	2.481	2.287	2.148	2.099	1.754	1.796	1.868	1.820	1.788	1.894	2.088	2.555	2.959	3.076	2.654	2.418	2.288	1.948	1.863	1.693	1.772	1.928	2.109	2.311	2.810	2.856	3.121	3.585	3.987	5.507	6.425	7.905	7.772	6.536	5.386	5.883	6.171	6.484	8.258	17.74	42.89	115.8
310.0	724.0	1025	1075	808.1	476.8	422.6	481.8	630.5	788.0	1038	1441	1710	1740	1277	979.3	1726	6785	9999.9	9999.9	2124	49.06	27.14	20.38	13.50	9.817	10.12	7.140	5.839	5.524	4.741	4.158	3.842	3.206	3.076	2.876	2.661	2.455	2.344	2.197	2.056	2.052	2.041	2.122	1.985	2.246	2.652	2.814	3.315	3.694	3.259	2.961	2.823	2.277	2.258	2.066	2.185	2.521	2.747	3.017	3.291	3.727	4.127	4.761	5.220	6.379	6.508	7.619	9.223	9.502	8.157	7.745	6.287	6.031	5.769	7.145	11.81	27.86
315.0	837.1	1220	1339	1006	601.5	542.7	602.4	809.5	1017	1323	1749	1846	2140	1879	1132	821.2	1762	2975	9999.9	9999.9	3357	53.10	30.11	18.99	12.80	12.22	8.655	6.972	6.246	5.535	4.465	4.461	3.404	3.319	2.796	3.097	2.685	2.590	2.468	2.216	2.208	2.203	2.462	2.207	2.543	3.180	3.322	4.055	4.472	3.879	3.652	3.458	2.961	2.569	2.387	2.610	3.087	3.101	3.519	4.035	4.525	5.448	5.808	6.718	7.550	7.581	8.146	10.33	10.04	9.579	10.83	10.02	7.990	6.825	5.417	5.610	8.844
320.0	946.1	1452	1578	1179	725.2	653.6	707.2	924.5	1171	1526	1978	2057	2271	2173	1528	745.6	720.8	861.7	3918	9999.9	9999.9	481.0	47.81	24.52	16.59	15.35	10.50	8.150	7.150	6.235	5.157	4.926	3.949	3.693	3.445	3.104	2.743	2.695	2.348	2.308	2.382	2.411	2.800	2.421	2.728	3.322	3.935	4.434	5.378	4.445	3.969	3.848	3.383	2.802	2.897	3.071	3.416	3.527	3.934	4.577	5.127	5.850	6.665	7.218	8.400	8.414	9.307	11.62	11.36	9.923	10.75	11.36	10.81	8.894	6.493	4.955	5.132
325.0	1085	1635	1867	1369	832.0	731.7	799.1	1017	1282	1698	2172	2259	2448	2198	1857	888.7	548.2	423.3	1049	5906	9999.9	9999.9	386.5	34.80	22.40	19.54	13.20	9.669	7.726	7.177	5.924	5.026	4.440	4.070	3.454	3.070	2.840	2.952	2.510	2.424	2.432	2.685	3.094	2.544	3.096	3.756	4.197	5.223	6.136	4.884	4.567	4.296	3.789	3.259	3.237	3.316	3.816	3.567	4.141	4.696	5.834	6.380	7.358	8.218	9.395	9.041	10.31	12.82	11.95	10.76	10.87	10.59	10.97	10.77	8.739	5.953	4.837
330.0	1183	1891	2198	1671	981.6	806.9	861.9	1091	1385	1801	2304	2420	2609	2270	1866	1158	661.7	381.9	423.2	1488	6109	9999.9	9999.9	1779	41.02	27.25	17.19	12.35	10.08	8.273	6.875	5.884	4.800	4.451	3.764	3.586	3.025	3.075	2.686	2.683	2.422	2.735	3.217	2.851	3.367	3.922	4.602	5.835	6.829	5.952	5.225	5.065	4.182	3.729	3.564	3.511	3.899	4.051	4.644	5.232	6.059	6.598	7.845	8.284	9.957	9.895	10.83	13.43	12.74	11.27	11.55	11.09	10.33	10.59	8.859	7.433	6.242
335.0	1252	1991	2386	1834	1121	910.8	913.8	1127	1436	1870	2362	2479	2692	2330	1830	1174	912.1	498.4	340.5	513.2	1486	2883	9999.9	9999.9	2847	50.18	23.79	16.72	12.83	10.16	7.995	6.615	5.825	4.701	4.282	3.755	3.328	3.225	2.763	2.860	2.551	2.799	3.125	3.016	3.425	4.323	5.035	6.358	7.255	6.580	5.815	5.933	4.356	4.185	3.745	3.866	4.360	4.437	4.915	5.261	6.231	6.778	7.741	8.411	9.843	10.43	11.48	13.55	12.84	11.54	12.19	11.76	10.90	10.77	8.692	7.164	6.701
340.0	1224	2003	2471	1938	1196	965.7	946.2	1143	1457	1865	2308	2438	2658	2315	1827	1147	928.6	673.1	377.6	327.8	476.0	750.9	4005	9999.9	9999.9	422.8	37.84	21.23	16.40	11.73	9.080	7.708	6.216	5.240	4.555	4.012	3.516	3.402	2.782	2.925	2.508	2.682	3.284	2.903	3.434	4.069	5.117	6.311	7.593	6.640	5.840	6.112	4.999	4.421	3.962	4.024	4.237	4.490	5.090	5.429	6.605	6.932	7.511	8.420	10.14	10.21	11.59	13.56	12.71	11.26	12.17	11.53	11.09	10.70	8.882	6.923	6.723
345.0	1206	1962	2409	1947	1237	977.8	965.8	1150	1429	1809	2232	2363	2555	2253	1794	1132	853.7	747.0	492.0	322.7	278.1	293.6	1011	5663	9999.9	9999.9	347.9	28.98	20.09	14.12	10.35	8.013	6.677	5.578	4.643	4.174	3.629	3.328	2.966	2.964	2.809	2.907	3.227	2.873	3.502	4.170	5.105	6.419	7.445	6.954	6.080	6.007	5.300	4.552	4.177	4.255	4.295	4.468	4.876	5.419	6.458	6.882	7.363	8.422	9.421	9.945	10.56	13.26	11.87	11.34	11.72	11.29	10.20	10.29	8.536	7.049	6.546
350.0	1102	1793	2236	1861	1256	1038	987.7	1117	1371	1699	2067	2177	2352	2094	1691	1117	826.6	677.3	608.7	434.4	283.3	226.2	352.8	1386	5632	9999.9	9999.9	1618	37.31	20.07	13.96	9.996	7.669	6.520	5.289	4.594	4.073	3.533	3.232	2.889	2.701	2.904	3.114	3.006	3.239	3.989	4.875	5.758	6.764	6.129	5.748	5.852	5.208	4.767	4.285	4.207	4.429	4.586	4.851	5.444	6.027	6.588	7.440	7.940	8.862	9.183	9.992	12.07	11.40	10.49	10.56	10.62	9.907	9.642	8.287	7.158	6.155
355.0	1013	1606	2031	1740	1263	1067	1021	1130	1317	1581	1897	1978	2135	1918	1572	1095	841.9	672.4	586.4	573.2	386.8	264.3	246.9	437.0	1351	2861	9999.9	9999.9	2828	41.04	20.32	13.78	9.389	7.490	5.840	5.184	4.428	3.797	3.423	3.019	2.817	2.880	2.922	2.893	3.027	3.780	4.389	5.176	6.259	5.717	5.406	5.770	5.331	4.824	4.551	4.197	4.377	4.511	5.086	5.321	6.013	6.203	6.961	7.388	8.231	8.176	9.146	10.72	10.17	9.631	9.796	9.933	9.183	8.900	8.155	6.706	6.332
360.0	950.4	1492	1848	1658	1253	1087	1032	1121	1283	1520	1767	1841	1970	1780	1481	1066	855.4	695.3	584.3	576.5	511.8	330.1	254.2	256.0	417.3	737.4	3350	9999.9	9999.9	2277	35.55	18.44	12.41	8.716	6.851	5.799	4.468	4.134	3.610	3.177	2.959	3.028	2.995	2.885	3.024	3.672	4.307	4.902	5.803	5.148	5.037	5.647	5.132	4.599	4.850	4.331	4.627	4.916	5.111	5.307	5.671	6.250	6.771	6.983	7.904	7.856	8.213	9.870	9.323	8.741	9.047	9.029	8.823	8.423	7.779	6.907	6.223
365.0	857.7	1383	1725	1580	1261	1113	1034	1100	1256	1466	1653	1713	1810	1667	1392	1048	860.9	716.4	610.2	558.1	556.0	443.2	301.5	247.5	235.6	273.2	837.5	4640	9999.9	9999.9	353.7	27.68	15.86	10.68	7.917	6.630	5.091	4.354	3.735	3.514	3.146	3.103	3.174	2.808	3.081	3.471	4.246	4.693	5.781	5.187	4.790	5.502	4.924	4.761	4.505	4.400	4.456	4.749	4.924	5.140	5.646	5.896	6.559	6.594	7.147	7.434	7.789	9.350	8.646	8.234	8.215	8.380	7.992	8.028	7.373	6.670	6.147
370.0	765.8	1227	1556	1460	1235	1123	1051	1099	1214	1369	1531	1572	1631	1511	1293	1019	861.4	737.1	651.0	586.6	541.4	528.1	430.6	305.5	237.8	205.0	290.1	1128	4900	9999.9	9999.9	6433	32.69	16.16	10.83	8.175	6.208	5.243	4.191	3.729	3.313	3.237	3.313	2.868	3.208	3.395	3.761	4.361	5.187	4.875	4.683	5.231	4.737	4.811	4.705	4.617	4.921	4.891	4.998	5.244	5.530	5.525	6.138	6.302	6.590	6.845	7.357	8.387	7.635	7.250	7.795	7.954	7.553	7.542	6.871	6.234	6.057
375.0	748.5	1100	1405	1389	1202	1122	1058	1085	1172	1285	1407	1429	1464	1361	1184	975.3	865.3	758.5	689.2	632.6	566.1	525.0	522.7	421.2	293.8	228.1	199.0	350.5	1170	2602	9999.9	9999.9	2598	37.31	15.81	10.86	8.014	6.103	5.042	4.001	3.683	3.513	3.641	2.909	3.233	3.453	3.661	4.054	4.742	4.493	4.544	4.994	4.760	4.891	4.912	4.298	4.897	4.920	4.972	5.074	5.221	5.342	5.895	5.961	6.001	6.617	6.521	7.624	7.028	6.599	7.221	7.157	6.995	6.853	6.249	6.363	6.018
380.0	682.5	1053	1283	1310	1193	1115	1060	1065	1127	1232	1318	1334	1360	1261	1120	938.7	853.2	768.0	707.3	655.6	592.7	539.4	520.7	507.7	364.2	265.9	202.2	197.7	351.2	654.3	3049	9999.9	9999.9	2100	29.67	14.01	9.863	7.443	5.913	4.538	3.978	3.668	3.396	3.134	3.119	3.405	3.603	3.890	4.371	4.308	4.412	4.895	4.777	4.940	4.705	4.609	4.830	4.888	4.935	4.877	5.063	5.202	5.645	5.671	6.202	6.212	6.239	7.193	6.680	6.315	6.409	6.339	6.621	6.146	5.934	5.875	5.825
385.0	647.5	955.3	1231	1272	1169	1104	1041	1064	1091	1180	1231	1255	1261	1184	1064	905.4	833.3	762.8	716.9	669.9	617.6	564.0	521.3	518.2	447.3	312.8	232.3	187.1	186.8	229.0	749.0	3941	9999.9	9999.9	302.0	22.92	12.15	9.090	6.902	5.211	4.427	3.844	3.738	3.190	3.241	3.274	3.392	3.864	4.399	4.093	4.274	4.862	4.900	4.603	4.468	4.833	4.902	4.747	4.481	4.843	5.174	5.279	5.483	5.391	5.726	5.851	5.783	6.702	5.981	5.891	6.200	6.107	6.022	5.922	5.786	5.835	5.594
390.0	596.1	901.8	1154	1196	1140	1085	1026	1028	1054	1114	1150	1157	1152	1095	987.9	862.2	803.4	755.5	716.9	681.5	637.5	593.9	546.9	512.2	488.0	412.5	292.3	224.2	185.0	162.8	248.4	947.4	3798	9999.9	9999.9	6138	27.27	12.63	8.858	6.550	5.145	4.594	4.283	3.560	3.473	3.370	3.323	3.853	4.161	3.962	4.007	4.744	4.559	4.689	4.735	4.744	5.044	4.912	4.835	4.813	4.963	4.965	5.199	5.159	5.495	5.417	5.382	5.953	5.616	5.576	5.591	5.555	5.594	5.690	5.502	5.587	5.486
395.0	576.9	828.4	1066	1142	1127	1070	1011	1000	1012	1045	1091	1066	1063	1012	922.0	821.5	773.4	735.9	711.3	683.2	646.5	615.2	578.1	533.1	484.7	462.9	391.1	283.8	223.0	179.1	164.5	288.9	905.2	2417	9999.9	9999.9	2250	32.97	13.74	9.006	6.669	5.453	4.734	3.696	3.681	3.723	3.453	4.000	4.053	3.876	3.983	4.442	4.472	4.650	4.715	4.715	4.900	4.687	4.974	4.479	4.985	4.803	4.989	4.873	5.205	4.973	5.089	5.671	5.453	5.105	5.236	5.217	5.405	5.397	5.282	5.299	5.230
400.0	537.6	786.1	1031	1121	1094	1050	1000	977.4	988.1	1009	1030	1014	1006	963.9	876.1	788.6	746.4	716.9	699.1	678.5	651.4	624.6	590.7	549.4	497.3	462.9	441.1	346.0	258.7	207.0	163.6	158.9	271.0	591.4	2635	9999.9	9999.9	1969	27.97	11.40	8.234	6.709	5.374	4.349	4.055	3.814	3.479	3.982	4.192	3.913	3.856	4.498	4.440	4.657	4.568	4.931	4.782	4.754	4.848	4.584	4.670	4.600	4.792	4.948	4.738	4.825	4.931	5.163	4.774	4.842	5.007	4.932	5.293	5.069	4.943	5.079	5.154
405.0	509.7	744.9	973.1	1078	1069	1052	985.4	958.4	958.3	972.8	987.5	977.3	964.4	920.7	839.2	767.2	725.4	702.2	681.6	668.6	645.8	626.6	595.8	563.2	510.3	468.4	442.9	410.5	305.5	235.1	183.7	145.6	140.5	190.9	634.9	3026	9999.9	9999.9	1574	21.02	10.25	7.938	6.435	4.652	4.204	3.867	3.721	3.706	4.092	4.139	3.967	4.579	4.467	4.587	4.565	4.422	4.808	4.915	4.480	4.626	4.631	4.746	4.810	4.708	4.749	4.571	4.496	4.776	4.961	4.826	4.950	4.709	5.130	4.983	4.878	4.786	4.892
410.0	482.1	707.7	924.1	1004	1039	1009	980.1	946.1	933.9	933.8	943.1	923.7	903.9	861.8	789.3	724.0	688.9	668.2	647.0	641.7	627.7	614.4	592.6	565.0	523.4	480.9	441.3	423.0	374.0	284.2	215.7	166.1	131.1	116.3	196.8	719.6	3023	9999.9	9999.9	5747	25.31	11.04	7.941	5.767	4.910	4.262	3.850	3.830	4.167	3.914	3.881	4.521	4.579	4.376	4.673	4.479	4.829	4.739	4.693	4.435	4.380	4.520	4.644	4.571	4.704	4.479	4.266	4.683	4.611	4.499	4.568	4.725	4.683	4.497	4.509	4.606	4.580
415.0	454.3	652.5	869.9	966.6	991.7	976.5	943.0	932.8	902.1	905.8	898.4	868.1	853.8	803.6	739.9	678.7	646.4	630.1	614.4	612.2	598.2	595.3	575.8	559.6	528.2	491.1	450.9	409.4	391.3	349.4	257.0	193.5	145.0	113.9	109.3	209.3	709.2	2324	7430	9999.9	2117	31.15	11.10	7.410	6.086	4.917	3.986	4.184	4.343	3.697	3.880	4.427	4.311	4.637	4.394	4.333	4.548	4.596	4.500	4.463	4.585	4.438	4.284	4.389	4.424	4.403	4.287	4.437	4.084	4.396	4.220	4.213	4.174	4.141	4.205	4.307	4.115
420.0	418.4	640.9	839.6	931.9	963.7	955.8	923.6	919.6	877.4	883.3	858.6	842.4	809.3	762.6	705.4	641.5	618.0	595.2	585.9	582.2	575.1	568.1	558.6	549.6	523.9	492.5	454.1	411.8	386.3	371.8	298.0	213.9	160.8	122.1	98.11	102.3	199.1	551.0	1864	9695	9999.9	1932	25.91	9.805	7.141	5.835	4.817	4.325	4.490	3.879	3.667	4.241	4.374	4.448	4.406	4.229	4.284	4.672	4.608	4.461	4.636	4.427	4.266	4.308	4.197	4.234	4.075	4.105	4.311	4.298	4.157	4.097	4.196	4.204	4.101	3.854	4.170
425.0	400.5	617.4	804.4	898.1	927.9	921.6	903.4	897.0	868.5	849.1	839.4	815.8	773.1	727.4	667.0	612.8	589.9	569.9	557.6	556.4	550.9	548.6	540.6	536.7	512.9	491.0	453.1	416.4	384.6	362.1	328.5	242.3	175.3	132.9	103.3	84.88	90.96	156.8	445.0	2615	9999.9	9999.9	1553	20.31	9.119	6.871	5.351	4.784	4.522	3.846	3.644	4.533	4.313	4.553	4.550	4.428	4.316	4.547	4.621	4.394	4.433	4.436	4.373	4.287	4.010	4.130	4.193	4.017	3.980	3.863	4.227	4.087	4.015	4.074	4.002	3.645	3.952
430.0	439.3	587.4	783.3	860.2	905.5	913.1	898.6	874.8	850.6	836.6	817.0	782.6	741.6	688.4	629.8	577.9	555.3	538.6	527.2	525.0	520.8	519.6	515.9	515.1	497.7	478.7	449.3	419.1	385.6	354.0	326.0	279.1	204.4	151.4	116.7	90.29	74.50	75.01	130.2	608.8	2731	9710	9999.9	5371	23.72	9.823	6.751	5.647	5.096	4.076	4.011	4.533	4.200	4.371	4.496	4.322	4.279	4.516	4.362	4.435	4.210	4.297	4.223	4.309	4.177	4.041	3.794	3.826	3.704	3.754	3.924	3.732	3.688	3.775	3.705	3.634	3.698
435.0	694.8	570.5	745.3	807.5	872.1	889.1	877.2	849.5	840.3	814.5	790.9	750.9	707.1	658.4	600.9	549.0	522.3	504.6	496.6	493.4	492.2	493.8	492.9	490.6	481.1	463.4	444.4	415.8	392.7	359.1	317.8	284.8	244.7	176.0	132.1	100.3	78.52	63.95	65.60	163.2	630.3	2220	6207	9999.9	7577	29.81	10.08	7.250	6.338	4.941	4.262	4.740	4.498	4.466	4.605	4.509	4.203	4.530	4.591	4.422	4.416	4.313	4.271	4.200	4.113	3.696	3.705	3.739	3.707	3.658	3.655	3.708	3.652	3.704	3.476	3.576	3.748
440.0	979.3	625.4	682.5	811.3	853.1	865.5	864.0	842.6	812.7	808.5	773.8	737.7	686.6	631.1	574.8	526.7	495.1	482.7	470.1	468.8	465.1	468.5	471.2	468.0	461.4	452.4	434.8	409.9	385.7	358.5	315.6	276.7	254.8	199.1	143.9	111.5	85.74	67.64	55.53	67.46	165.0	515.5	1537	8847	9999.9	1826	23.61	9.185	7.182	5.823	4.658	4.943	4.498	4.501	4.540	4.571	4.559	4.719	4.331	4.264	4.497	4.203	4.195	4.221	4.055	3.914	3.575	3.781	3.622	3.680	3.554	3.507	3.320	3.684	3.428	3.544	3.425
445.0	1150	926.3	668.7	781.2	825.7	839.8	853.8	821.9	789.5	785.7	756.6	714.3	659.9	606.2	545.6	500.5	470.5	458.0	447.6	442.4	443.2	442.6	444.5	447.8	443.7	430.8	417.1	403.5	378.5	355.6	314.8	271.8	243.3	216.0	161.5	118.7	93.69	72.06	56.92	50.55	64.28	137.4	364.1	2392	9999.9	9999.9	1354	19.25	9.229	6.596	5.053	5.215	4.528	4.887	4.689	4.473	4.593	4.450	4.545	4.393	4.426	4.238	4.244	4.216	3.789	3.945	3.627	3.745	3.473	3.753	3.485	3.382	3.483	3.519	3.016	3.249	3.298
450.0	833.7	1830	921.2	729.4	790.1	793.8	805.2	788.9	764.0	747.7	724.7	680.2	626.9	571.3	511.9	467.3	439.0	421.9	416.4	409.5	404.3	409.2	411.8	415.6	410.5	407.4	393.1	381.3	365.5	344.2	307.0	267.7	231.4	206.4	181.1	135.8	101.6	79.46	63.25	50.14	45.76	56.09	102.5	553.1	2702	9222	9999.9	4863	85.15	9.432	6.412	6.204	5.177	4.820	4.673	4.684	4.615	4.450	4.691	4.517	4.433	4.207	4.042	4.207	3.715	3.783	3.401	3.590	3.560	3.275	3.183	3.184	3.354	3.264	3.070	2.924	3.110
455.0	445.5	2164	2160	743.7	725.5	756.2	751.1	734.3	724.4	713.1	686.8	630.0	582.6	526.3	474.5	425.4	399.4	386.0	379.0	368.6	363.9	368.3	372.8	376.3	373.2	373.4	362.4	355.2	342.5	325.6	295.6	259.0	224.1	192.3	175.1	150.5	113.3	84.15	68.17	54.84	44.57	40.39	46.80	141.8	618.2	2107	5587	9999.9	6906	23.32	8.855	7.156	5.803	5.146	4.953	4.748	4.646	4.329	4.532	4.194	3.995	3.949	3.867	3.779	3.647	3.567	3.494	3.450	3.289	3.216	3.143	2.910	3.080	2.924	2.814	2.935	3.065
460.0	301.3	1552	3663	931.0	671.3	700.8	712.1	699.0	689.6	674.0	638.0	599.1	546.1	491.3	441.3	397.4	368.7	360.2	348.8	342.4	335.2	339.7	346.2	348.9	343.9	345.9	340.0	331.2	318.9	306.9	281.8	249.6	217.5	184.0	162.9	151.2	123.8	90.15	71.28	58.03	46.22	38.02	34.57	52.22	154.7	485.4	1362	7480	9999.9	1390	19.75	9.327	6.579	5.674	5.192	4.818	4.655	4.500	4.500	4.297	4.161	4.094	3.719	3.766	3.373	3.250	3.459	3.203	3.085	3.100	2.988	2.845	2.849	2.708	2.915	2.736	2.648
465.0	268.0	816.7	4317	2283	650.7	661.8	679.5	663.2	651.6	635.8	606.6	563.6	512.0	468.1	409.6	374.9	344.4	331.1	324.8	315.1	310.3	314.7	315.5	318.1	318.2	322.2	316.7	311.3	300.1	292.1	269.1	237.8	208.6	178.3	153.0	140.9	130.2	98.30	73.66	61.11	47.99	40.14	32.93	32.57	52.72	123.9	319.6	1976	9999.9	9999.9	1174	18.99	8.350	6.545	5.728	5.209	5.021	4.456	4.630	4.153	3.884	4.243	3.674	3.417	3.442	3.254	3.384	3.211	2.966	2.953	2.927	2.842	2.782	2.583	2.629	2.618	2.719
470.0	256.2	450.1	2657	5041	1219	604.9	617.5	610.6	593.9	579.1	553.3	508.5	465.1	421.6	372.7	334.1	309.5	295.6	288.1	279.8	277.5	278.0	280.8	280.5	283.2	286.2	282.1	276.0	272.5	262.9	247.9	221.4	194.3	167.7	145.4	127.9	118.4	104.2	79.93	61.87	48.95	41.19	33.67	28.87	29.95	43.30	85.43	454.3	2660	7770	9999.9	4062	85.33	8.813	6.733	5.762	5.312	4.755	4.278	4.134	3.921	4.001	3.605	3.267	3.455	3.004	3.134	2.911	2.900	2.709	2.852	2.635	2.575	2.581	2.445	2.409	2.465
475.0	251.8	351.5	990.8	5355	3882	604.8	553.0	555.3	534.6	520.1	508.5	461.3	418.2	380.5	332.2	298.1	274.5	262.9	254.4	248.7	243.5	239.8	246.0	247.4	249.1	248.1	250.3	247.3	244.4	235.6	223.7	201.2	178.6	157.0	136.2	117.6	105.5	96.94	86.41	65.62	49.83	42.59	34.20	29.21	25.75	25.56	32.57	113.0	603.5	1764	4574	9999.9	1702	26.48	8.561	6.238	5.292	4.889	4.154	3.967	3.834	3.646	3.489	3.127	3.164	2.892	2.683	2.722	2.772	2.581	2.598	2.412	2.193	2.218	1.951	2.244	2.091
480.0	237.1	307.1	510.1	3460	6524	1068	512.0	512.4	499.8	487.0	467.1	433.4	386.3	350.5	311.0	279.2	254.4	242.0	233.8	228.0	222.0	220.9	222.6	223.7	229.9	228.7	225.1	224.4	225.1	217.1	208.2	186.8	168.7	148.4	129.0	111.5	97.07	88.66	85.20	70.82	52.09	42.54	35.08	29.31	25.03	21.43	20.73	36.80	145.1	403.3	1101	5722	9999.9	1579	22.21	7.738	6.304	5.196	4.437	3.913	3.681	3.590	3.327	3.007	3.213	2.741	2.583	2.573	2.717	2.552	2.522	2.188	2.365	2.204	1.995	2.036	2.009
485.0	217.4	308.9	393.2	1554	7249	2789	495.0	479.6	471.4	456.1	442.5	406.2	367.4	326.0	286.0	258.0	235.3	224.2	216.2	210.1	205.9	202.3	204.0	208.1	210.4	210.8	208.2	208.7	207.0	204.3	193.3	175.5	159.9	139.9	122.4	108.2	93.82	81.50	78.43	73.51	55.63	43.74	36.19	30.09	25.51	21.61	18.45	20.33	43.23	99.67	255.7	1481	7913	9999.9	1271	17.14	7.545	6.052	4.814	4.223	3.595	3.291	3.316	2.882	2.964	2.701	2.624	2.485	2.585	2.336	2.245	2.221	2.341	2.190	2.040	1.887	1.945
490.0	193.9	307.4	349.2	650.5	4356	6399	1048	441.2	431.7	421.8	410.0	375.3	335.6	300.9	263.2	235.0	215.0	203.9	197.9	191.4	186.5	184.8	184.7	186.0	188.1	189.7	188.0	186.3	188.1	184.8	176.7	162.7	146.8	130.8	115.6	102.4	90.08	78.60	70.67	67.26	59.50	46.13	36.48	30.72	26.06	21.86	18.78	16.99	20.36	31.38	65.62	339.7	2046	6418	9999.9	3842	94.45	8.554	5.734	4.783	4.183	3.587	3.445	2.862	3.063	2.742	2.361	2.552	2.316	2.187	2.051	2.147	2.131	1.990	1.828	1.862	1.863
495.0	152.7	274.2	340.5	388.7	1471	6880	3324	430.9	393.7	383.8	364.5	339.7	302.2	275.8	239.4	208.2	192.9	179.5	173.9	169.1	165.3	162.3	163.1	165.2	166.2	167.9	166.6	165.4	168.3	166.9	160.4	148.3	133.1	119.2	105.6	93.56	83.82	73.84	65.30	58.97	56.97	51.02	37.98	30.46	25.94	22.19	19.51	16.42	15.57	16.38	23.11	83.91	463.5	1455	4671	9999.9	1906	28.78	8.074	5.630	4.767	4.063	3.649	3.024	2.842	2.723	2.372	2.489	1.985	2.286	2.077	2.078	1.875	1.901	1.646	1.659	1.714
500.0	138.9	237.1	333.8	333.3	595.8	4436	6835	769.0	359.0	355.9	341.5	314.0	279.6	250.0	215.2	191.8	174.8	159.7	160.0	151.1	147.9	150.1	149.0	148.7	148.5	151.5	150.9	149.1	152.4	149.8	146.1	134.3	124.1	109.6	97.53	88.48	78.63	69.86	61.63	54.81	51.45	49.98	41.26	31.10	25.83	22.05	19.09	15.72	14.35	13.14	13.52	26.50	111.0	332.4	1122	5677	9999.9	1737	23.73	6.795	5.174	4.146	3.481	3.103	2.700	2.574	2.314	2.312	2.130	1.993	1.917	1.824	1.649	1.668	1.631	1.605	1.458
505.0	131.0	189.2	319.2	320.4	365.6	1930	8310	2202	339.6	324.9	311.8	283.6	256.6	229.6	199.2	175.6	162.0	151.2	144.5	140.0	135.5	134.7	134.3	132.8	135.1	136.1	135.8	134.9	138.7	137.2	133.4	121.4	111.8	101.2	90.31	81.93	74.24	66.32	58.73	52.26	45.81	45.51	42.79	33.48	25.60	22.27	18.94	16.56	14.45	12.65	11.40	14.02	32.17	81.49	259.4	1457	7481	9999.9	1397	17.26	6.173	4.781	4.091	3.093	2.816	2.537	2.161	2.293	2.104	1.930	1.857	1.838	1.778	1.415	1.421	1.422	1.498
510.0	107.2	163.9	252.0	311.1	293.1	678.4	5190	6279	683.2	293.6	277.8	255.4	231.2	203.1	174.7	156.0	141.6	133.4	126.9	123.6	119.2	117.7	117.2	117.1	116.8	118.2	118.5	118.0	119.3	119.0	116.2	107.2	99.13	90.32	81.71	72.81	66.49	58.93	53.68	47.33	41.52	38.39	38.39	34.69	26.68	21.40	18.51	15.70	13.71	11.99	10.93	10.69	14.02	24.82	65.09	332.5	1911	6198	8791	3397	21.43	6.395	4.671	3.500	2.930	2.643	2.231	2.261	2.000	1.878	1.679	1.615	1.514	1.549	1.368	1.285	1.424
515.0	98.63	135.1	202.1	291.6	272.8	344.4	1650	7763	2363	283.1	245.7	225.1	202.4	174.6	152.7	135.0	123.9	116.3	110.4	107.2	102.3	101.1	100.5	100.5	99.50	102.0	101.0	102.8	102.7	103.8	101.1	92.90	85.33	78.75	71.24	65.14	58.51	52.68	46.83	42.43	37.77	33.84	31.55	31.91	28.72	22.25	17.70	15.09	13.46	11.46	10.69	9.905	9.683	11.90	20.93	80.17	431.4	1399	3666	9673	1913	28.83	6.764	4.282	3.341	2.688	2.376	2.208	1.843	1.495	1.544	1.488	1.428	1.428	1.258	1.096	1.309
520.0	89.32	128.7	166.0	256.9	269.9	245.7	559.7	5190	6369	514.7	226.2	205.7	182.2	158.1	135.7	120.8	110.8	102.4	99.13	94.00	90.27	87.92	88.77	89.65	90.34	90.05	89.68	89.65	90.25	91.39	89.66	83.86	76.55	70.78	64.25	59.16	53.56	49.36	42.95	38.99	34.59	31.50	28.60	27.67	28.42	23.98	17.28	14.90	12.86	11.24	10.08	9.806	8.749	8.580	10.27	23.42	101.9	318.0	866.6	4789	9324	1743	24.80	5.348	3.671	2.937	2.321	2.211	1.883	1.558	1.663	1.546	1.339	1.397	1.276	1.115	1.199
525.0	78.27	113.4	145.2	190.1	268.2	216.2	282.8	2226	8649	1645	204.4	182.8	163.2	144.0	123.7	111.2	101.2	93.98	89.91	85.12	81.94	79.05	79.40	79.78	79.86	80.30	79.47	80.08	83.12	82.37	80.79	74.91	69.35	64.38	58.83	53.83	48.62	44.65	40.17	35.95	32.39	28.76	26.57	24.78	25.20	23.55	18.41	14.26	12.23	10.66	9.681	9.137	8.289	7.577	8.186	10.50	28.06	76.65	199.6	1192	5839	8342	1471	17.06	4.616	3.243	2.462	2.414	1.930	1.541	1.557	1.284	1.251	1.265	1.206	1.159	1.192
530.0	67.63	97.67	123.5	157.4	233.7	216.2	202.2	686.2	5761	6200	504.1	164.5	142.4	126.6	109.5	95.12	88.75	81.07	77.53	73.96	70.41	68.46	68.70	69.32	67.17	69.47	69.01	68.83	70.21	70.65	68.55	64.90	60.75	54.87	50.63	46.80	42.26	39.13	35.78	32.28	28.98	25.89	23.42	21.60	20.17	21.36	19.46	14.66	11.75	10.05	8.927	8.252	7.510	7.272	7.054	7.171	10.94	21.73	49.12	271.0	1450	4502	7135	2763	98.87	4.942	3.100	2.594	1.920	1.612	1.586	1.388	1.293	1.227	1.157	1.065	0.982
535.0	70.69	82.47	116.2	126.4	177.5	219.4	166.2	272.9	1765	8411	1822	154.2	126.6	108.6	96.91	80.97	76.54	69.13	65.44	62.44	60.34	58.25	57.42	57.92	57.76	58.64	56.87	58.51	59.24	58.82	57.39	54.86	51.71	47.60	44.05	40.23	35.14	33.78	30.68	27.90	25.24	22.85	20.32	19.27	16.99	16.96	18.34	15.46	11.73	9.256	8.235	7.620	6.710	6.733	6.553	5.741	6.552	8.986	14.80	64.20	327.4	1012	2634	6849	1972	29.44	4.997	3.054	2.178	1.852	1.708	1.343	1.289	1.147	1.108	0.874	0.895
540.0	65.99	80.64	101.5	111.8	139.9	216.4	165.5	169.8	519.3	5596	6343	217.0	114.3	97.00	86.39	72.68	66.17	62.34	58.20	55.56	54.58	52.25	50.74	50.48	49.80	52.12	50.57	49.94	52.55	51.07	50.81	48.56	45.20	42.07	37.82	35.97	32.26	28.79	27.15	25.13	22.43	20.18	18.57	17.10	15.50	14.45	15.39	15.25	12.15	9.027	7.901	7.223	6.279	6.032	6.166	5.786	5.453	5.554	6.912	17.98	76.55	229.7	611.2	3099	6755	1732	24.67	4.231	2.498	1.865	1.656	1.345	1.278	1.090	0.887	1.052	0.864
545.0	66.21	72.47	91.04	99.66	111.0	175.6	175.6	136.3	214.0	2248	8990	1148	103.8	86.32	76.24	65.13	59.12	54.17	52.60	49.18	47.02	45.47	44.62	45.16	43.31	44.55	44.32	45.10	45.85	44.72	44.80	42.65	40.06	37.15	33.72	32.24	29.02	25.78	24.16	21.96	20.71	18.33	16.78	15.49	14.14	12.96	12.26	13.60	12.39	9.184	7.463	6.394	5.889	5.501	5.484	5.318	5.125	4.476	4.647	7.211	20.46	54.57	141.0	746.5	3765	6022	1397	17.83	3.473	2.143	1.760	1.529	1.432	1.067	0.899	0.808	0.872
550.0	56.25	66.94	80.34	83.80	93.19	127.3	173.0	119.0	131.7	629.5	5727	5653	291.3	74.51	63.62	54.95	50.21	45.63	43.41	41.19	38.56	38.23	38.00	37.21	37.01	37.63	36.78	36.60	37.55	37.42	37.24	35.02	32.84	30.51	28.13	26.93	24.31	21.80	20.43	18.78	17.29	15.81	14.32	13.37	11.96	10.79	10.07	10.46	10.93	9.342	7.116	5.680	5.237	5.042	4.672	4.491	4.731	4.440	3.899	4.391	7.277	14.99	34.58	169.8	909.4	2878	4585	2153	106.6	3.978	2.191	1.672	1.387	1.045	0.956	0.851	0.788
555.0	42.58	72.55	69.36	71.27	77.17	83.86	142.4	130.5	97.36	212.7	1641	8124	1306	69.04	54.37	46.97	40.60	37.97	35.50	33.99	31.12	30.60	30.95	30.54	29.71	29.72	29.44	29.16	29.84	30.32	29.76	27.74	26.37	23.64	22.76	21.69	20.07	18.00	16.49	15.24	14.04	12.78	11.63	10.87	10.21	9.272	8.543	8.115	8.372	8.735	7.169	5.525	4.588	4.627	4.103	3.888	3.957	4.268	3.806	3.526	4.005	5.791	10.26	40.30	205.5	646.1	1510	4433	1991	31.35	3.728	2.079	1.463	1.115	0.945	0.740	0.820
560.0	49.51	60.13	66.79	68.83	66.86	63.23	106.6	137.8	86.00	110.0	444.8	5385	5507	127.3	48.01	39.71	34.35	32.31	29.41	28.22	26.81	26.50	26.21	24.67	24.92	25.80	25.39	24.76	25.85	25.79	25.34	23.42	22.86	20.47	19.32	17.73	17.07	15.50	14.01	13.03	11.79	10.72	9.824	9.199	8.882	7.960	7.646	6.888	6.656	6.997	7.054	5.373	4.003	3.759	3.788	3.725	3.361	3.500	3.414	3.334	3.221	3.548	4.535	11.25	48.40	146.8	346.3	1773	4212	1685	25.50	2.795	1.770	1.319	0.965	0.751	0.791
565.0	56.44	61.95	69.44	58.40	59.34	54.78	71.67	135.7	88.82	78.59	159.8	2052	8412	784.9	45.33	34.92	29.98	28.26	25.89	24.80	23.12	22.57	22.24	21.87	21.44	21.84	20.83	21.01	21.92	21.67	20.74	19.82	19.11	17.55	16.30	15.27	14.05	12.89	12.12	11.67	10.40	9.204	8.482	8.033	7.473	6.914	6.335	5.930	5.663	5.317	6.215	5.493	3.924	3.278	3.376	3.019	3.143	2.872	3.183	3.153	2.863	2.904	3.288	4.648	13.00	35.01	80.19	416.1	1987	3886	1289	17.81	2.327	1.575	1.145	0.816	0.799
570.0	47.60	58.64	59.83	53.69	47.34	45.75	53.95	101.7	108.0	66.94	86.54	548.3	5503	4852	92.64	31.77	26.25	24.29	21.35	20.34	19.33	18.40	18.19	17.74	17.52	17.59	16.83	17.11	17.37	17.35	17.18	16.38	15.10	14.45	13.03	12.64	11.27	10.93	9.946	9.293	8.207	7.857	7.117	6.733	6.232	5.927	5.363	4.893	4.596	4.129	4.691	4.824	4.012	3.155	2.967	2.882	2.748	2.636	2.710	2.821	2.914	2.686	2.639	3.044	4.984	9.863	20.22	95.28	466.0	1594	2843	1166	108.7	3.219	1.536	0.960	0.787
575.0	42.72	61.06	63.79	51.84	39.52	36.62	42.69	63.99	115.6	74.63	65.15	165.9	1564	7388	901.2	29.86	23.19	20.23	17.45	17.52	15.78	15.14	15.44	14.35	14.63	14.32	13.81	14.37	13.65	13.74	13.74	13.26	12.13	11.24	10.35	9.850	9.017	8.667	7.815	7.586	6.752	6.249	5.976	5.074	5.122	4.729	4.484	4.271	3.680	3.352	3.477	3.541	3.828	3.260	2.725	2.607	2.273	2.423	2.324	2.333	2.746	2.744	2.694	2.446	3.019	4.084	6.667	23.59	105.9	357.8	828.6	2261	1838	32.36	2.623	1.250	0.934
580.0	43.80	54.54	60.11	49.00	36.36	30.41	35.78	48.48	100.1	87.65	57.22	78.71	410.4	4996	4298	72.87	21.40	17.89	15.94	14.36	14.01	12.37	13.40	12.24	12.47	12.30	11.63	11.53	11.42	11.44	11.65	11.16	10.49	9.640	8.949	8.505	7.749	7.456	6.710	6.413	5.926	5.463	5.158	4.655	4.504	4.091	3.844	3.619	3.270	3.176	2.864	2.770	3.320	3.246	2.900	2.314	2.169	2.116	2.222	2.158	2.458	2.485	2.617	2.399	2.511	2.692	3.449	7.348	25.64	81.77	188.9	815.2	2468	1421	26.78	2.000	1.083
585.0	43.99	54.79	58.80	44.60	32.78	31.51	32.92	41.68	75.42	102.8	59.97	60.72	134.8	1899	6667	497.3	20.31	16.22	14.25	12.91	12.40	11.67	11.05	10.83	10.55	10.32	10.04	10.33	10.29	9.704	10.05	9.335	8.883	8.287	7.495	7.483	6.737	6.677	6.048	5.773	5.149	4.838	4.425	4.114	4.016	3.559	3.373	3.163	2.922	2.845	2.337	2.346	2.664	2.867	2.944	2.101	2.106	1.952	1.943	1.915	2.248	1.962	2.655	2.418	2.290	2.226	2.476	3.311	7.540	20.11	44.24	188.4	992.4	2390	973.6	18.94	1.444
590.0	42.79	52.40	60.35	42.57	31.93	28.81	31.25	38.05	52.80	101.5	75.89	57.20	73.64	497.1	4357	3342	57.09	14.89	13.24	11.66	10.76	9.520	9.518	8.729	8.854	8.643	8.379	8.431	8.205	8.111	8.011	7.570	7.258	6.559	6.285	5.925	5.533	5.395	4.839	4.599	4.199	3.909	3.733	3.497	3.406	3.131	2.967	2.602	2.497	2.433	2.084	2.016	1.984	2.217	2.692	2.250	1.796	1.769	1.685	1.729	1.880	1.795	2.018	2.250	2.327	1.920	2.131	2.287	3.326	6.100	11.50	43.78	228.4	873.5	1599	933.6	112.7
595.0	44.08	53.57	60.00	47.04	32.00	27.79	31.54	36.44	43.70	78.70	97.62	61.31	64.29	148.0	1223	5218	638.1	14.82	11.78	10.23	8.639	8.114	8.224	7.073	7.451	7.287	6.896	6.741	6.857	6.554	6.875	5.999	5.802	5.560	5.098	4.584	4.361	4.203	3.775	3.735	3.424	3.169	3.105	2.965	2.675	2.762	2.312	2.250	1.965	2.000	1.921	1.724	1.668	1.611	2.131	2.139	1.835	1.661	1.548	1.433	1.831	1.488	1.733	1.978	2.112	1.972	1.925	1.984	2.088	2.878	3.937	11.25	52.42	196.0	423.8	1222	1350
600.0	37.87	52.85	58.29	42.13	29.71	27.04	27.59	35.74	42.39	62.13	106.0	71.63	64.65	72.96	314.4	3628	2945	43.12	11.05	8.664	7.963	7.074	7.214	6.401	6.510	6.224	5.820	5.711	6.003	5.563	5.566	5.249	4.917	4.857	4.362	3.864	3.716	4.032	3.448	3.300	2.911	2.700	2.813	2.451	2.290	2.339	1.907	2.024	1.796	1.722	1.683	1.735	1.440	1.451	1.690	1.808	2.043	1.605	1.305	1.427	1.587	1.578	1.641	1.670	1.970	2.063	1.900	1.814	1.974	2.129	2.241	3.824	12.93	45.04	96.17	394.8	1462
605.0	40.20	56.74	64.14	46.14	30.32	27.07	28.41	35.82	42.31	55.44	102.7	84.34	65.71	58.48	97.67	1421	4747	310.5	10.70	8.303	7.558	6.487	6.360	5.960	5.614	5.485	5.376	4.805	5.221	5.024	4.967	4.534	4.471	4.001	3.811	3.316	3.166	3.258	2.762	2.735	2.471	2.264	2.276	2.010	2.214	2.011	1.942	1.733	1.689	1.529	1.439	1.402	1.360	1.221	1.345	1.520	1.856	1.677	1.406	1.377	1.541	1.521	1.560	1.388	1.910	2.000	2.192	2.013	1.944	1.759	1.854	2.341	4.222	11.38	22.86	90.42	535.6
610.0	40.28	56.14	63.15	46.48	30.38	26.41	28.09	37.75	44.73	57.75	83.98	107.2	77.74	61.05	52.21	365.9	3319	2325	38.46	8.491	6.965	5.890	5.375	4.941	4.683	4.898	4.468	4.221	4.373	4.285	4.098	3.807	3.630	3.364	3.242	2.932	2.844	2.782	2.475	2.217	2.248	1.999	1.895	1.725	1.838	1.791	1.673	1.424	1.540	1.333	1.255	1.266	1.116	1.073	1.121	1.210	1.495	1.640	1.445	1.340	1.418	1.430	1.450	1.396	1.803	1.926	2.009	2.039	2.228	1.787	1.834	2.012	2.217	3.773	6.276	21.25	122.2
615.0	35.27	60.11	55.19	44.34	31.85	25.38	26.97	38.72	46.73	61.10	75.04	111.9	97.39	64.63	45.00	100.1	953.6	3833	486.3	9.101	6.957	5.359	4.884	4.383	4.073	4.353	4.018	3.570	3.685	3.458	3.760	3.249	3.065	2.902	2.659	2.595	2.219	2.193	2.292	1.889	1.880	1.847	1.620	1.409	1.385	1.397	1.476	1.392	1.304	1.187	1.205	1.066	0.997	0.910	1.027	0.937	1.155	1.387	1.409	1.295	1.421	1.490	1.556	1.361	1.710	1.848	1.641	2.086	2.500	1.898	1.673	1.779	1.830	2.195	2.305	5.659	28.02
620.0	33.50	60.03	64.73	45.23	30.67	27.22	30.66	39.02	48.94	60.92	75.59	100.9	111.7	70.50	45.72	42.50	241.5	2796	2052	22.80	7.100	4.943	4.402	4.034	3.942	3.928	3.263	3.390	3.118	2.960	3.206	2.750	2.641	2.779	2.383	2.317	1.992	2.020	1.944	1.621	1.794	1.489	1.478	1.475	1.301	1.287	1.207	1.233	1.268	1.130	1.003	1.000	0.890	0.746	1.037	0.791	0.987	1.157	1.236	1.287	1.434	1.145	1.610	1.332	1.632	1.627	1.592	1.896	2.213	1.975	1.792	1.739	1.623	1.576	1.411	2.128	6.854
625.0	42.08	53.21	64.22	49.95	31.61	27.38	30.21	39.03	49.59	62.05	77.37	93.26	121.9	77.05	47.19	28.48	67.94	1156	3488	73.31	7.356	5.385	4.456	3.784	3.497	3.519	3.065	2.924	2.701	2.963	2.771	2.538	2.374	2.327	1.976	1.965	1.818	1.843	1.766	1.486	1.471	1.380	1.331	1.309	1.306	1.086	1.132	1.096	1.096	1.039	0.951	0.911	0.754	0.752	0.824	0.799	0.919	0.967	1.159	1.302	1.441	1.200	1.478	1.385	1.531	1.596	1.526	1.656	1.994	2.006	1.711	1.639	1.365	1.359	1.233	1.415	2.207
630.0	41.80	50.56	62.49	47.13	30.70	26.92	31.46	41.75	48.23	64.48	77.47	87.58	117.0	91.66	50.34	26.95	28.37	295.5	2633	1416	24.64	5.113	4.339	3.459	3.295	3.155	2.632	2.728	2.660	2.445	2.508	2.234	2.129	2.031	1.845	1.754	1.589	1.573	1.427	1.293	1.303	1.116	1.138	1.081	1.083	1.048	1.111	1.119	1.114	0.888	0.818	0.749	0.733	0.778	0.711	0.734	0.766	0.830	0.970	1.038	1.284	1.189	1.154	1.227	1.381	1.414	1.349	1.509	1.606	1.572	1.566	1.557	1.385	1.140	1.009	0.972	1.006
635.0	36.53	56.12	66.37	48.52	27.20	29.10	30.28	40.86	52.64	67.50	78.76	86.24	107.0	103.7	54.37	28.16	21.35	76.21	799.7	2999	343.3	5.411	3.815	3.612	2.894	3.109	2.459	2.316	2.498	2.247	2.063	1.885	1.823	1.699	1.740	1.553	1.434	1.342	1.225	1.102	1.161	0.996	1.063	0.974	1.044	0.925	0.986	0.958	1.028	0.809	0.771	0.685	0.657	0.735	0.743	0.677	0.698	0.713	0.771	0.926	1.303	1.251	1.043	1.053	1.175	1.296	1.229	1.388	1.365	1.342	1.430	1.513	1.230	1.008	0.906	0.815	0.708
640.0	46.90	56.39	68.19	47.97	29.46	29.53	31.95	39.77	53.73	68.78	80.01	91.79	104.1	102.5	60.45	32.44	20.04	27.71	200.8	2424	1473	11.66	4.360	3.534	3.077	2.776	2.512	2.174	2.059	2.233	2.034	1.642	1.851	1.673	1.572	1.578	1.538	1.317	1.249	1.128	1.044	0.975	0.817	0.934	0.967	1.018	0.925	0.994	0.896	0.890	0.762	0.686	0.692	0.690	0.684	0.656	0.686	0.710	0.762	0.795	0.967	1.028	1.031	1.062	1.123	1.205	1.202	1.216	1.325	1.297	1.189	1.319	1.260	1.132	0.824	0.753	0.498
645.0	36.79	58.82	71.14	48.46	31.64	30.60	31.86	40.80	54.31	67.72	80.71	91.01	100.3	100.3	68.65	33.53	19.74	16.52	53.70	1106	2750	54.75	4.830	3.522	3.247	2.761	2.282	2.236	2.019	1.982	1.719	1.548	1.664	1.793	1.605	1.600	1.358	1.264	1.339	1.168	1.014	0.934	0.802	0.895	0.929	1.022	0.850	1.012	0.977	0.886	0.752	0.673	0.623	0.625	0.683	0.653	0.824	0.735	0.747	0.791	0.895	0.954	1.042	1.093	1.035	1.163	1.070	1.234	1.245	1.256	1.113	1.249	1.277	0.958	0.796	0.734	0.458
650.0	39.92	67.30	67.90	50.41	32.50	30.69	30.51	42.41	52.08	67.21	79.93	90.52	97.44	91.67	73.82	34.93	20.55	13.68	20.59	318.8	2881	445.1	5.930	3.700	3.013	2.906	2.204	2.166	1.860	1.865	1.862	1.618	1.679	1.585	1.451	1.601	1.256	1.190	1.238	1.201	0.999	0.917	0.875	0.823	0.983	0.939	0.929	0.905	0.977	0.806	0.778	0.578	0.670	0.677	0.700	0.628	0.703	0.770	0.647	0.705	0.812	0.896	0.991	1.133	1.020	1.049	1.105	1.179	1.133	1.113	1.006	1.043	1.079	0.975	0.763	0.652	0.498
