Sample:	'1
File name:	潍坊银河泊车设备有限公司.FD3
Run date:	'11:11:54, 04/01/2025
Operator:	Administrator
Comment:	'

Instrument
Model:	F-2700 FL Spectrophotometer
Serial number:	23B8-004
ROM Version:	4J14000 07

Instrument parameters
Measurement type:	3-D scan
Data mode:	Fluorescence
EX  Start WL:	220.0 nm
EX  End WL:	600.0 nm
EX Sampling interval:	5.0 nm
EM  Start WL:	230.0 nm
EM  End WL:	650.0 nm
EM Sampling interval:	5.0 nm
Scan speed:	12000 nm/min
EX Slit:	5.0 nm
EM Slit:	5.0 nm
PMT Voltage:	700 V
Response:	Auto 
Corrected spectra:	Off
Contour interval:	50.000

Peak integration
Integration method:	Rectangular
Sensitivity:	1
Threshold:	1.000

Peaks
No.	ApexEX/EM(nm)	Height(Data)
1	235.0/305.0	4041
2	235.0/595.0	291.3
3	240.0/265.0	301.2
4	245.0/270.0	331.1
5	250.0/275.0	470.3
6	255.0/450.0	1635
7	270.0/300.0	5036
8	270.0/600.0	390.3
9	275.0/305.0	5404
10	315.0/400.0	913.4
11	325.0/410.0	919.8
12	335.0/420.0	927.2
13	475.0/310.0	11.94
14	505.0/275.0	2.716
15	515.0/455.0	7.093
16	545.0/300.0	22.77
17	550.0/305.0	24.08

Data points
	220.0	225.0	230.0	235.0	240.0	245.0	250.0	255.0	260.0	265.0	270.0	275.0	280.0	285.0	290.0	295.0	300.0	305.0	310.0	315.0	320.0	325.0	330.0	335.0	340.0	345.0	350.0	355.0	360.0	365.0	370.0	375.0	380.0	385.0	390.0	395.0	400.0	405.0	410.0	415.0	420.0	425.0	430.0	435.0	440.0	445.0	450.0	455.0	460.0	465.0	470.0	475.0	480.0	485.0	490.0	495.0	500.0	505.0	510.0	515.0	520.0	525.0	530.0	535.0	540.0	545.0	550.0	555.0	560.0	565.0	570.0	575.0	580.0	585.0	590.0	595.0	600.0
230.0	4.309	101.8	358.1	148.8	8.521	2.701	2.204	2.708	2.592	2.787	2.786	2.320	2.077	1.542	1.093	1.057	0.865	0.882	0.746	0.711	0.622	0.579	0.535	0.552	0.486	0.493	0.430	0.399	0.405	0.306	0.341	0.306	0.244	0.202	0.192	0.173	0.191	0.155	0.152	0.126	0.126	0.117	0.111	0.112	0.099	0.093	0.142	0.502	1.140	1.053	0.534	0.155	0.064	0.044	0.064	0.044	0.054	0.040	0.046	0.047	0.037	0.049	0.047	0.039	0.032	0.040	0.045	0.032	0.031	0.047	0.034	0.039	0.034	0.031	0.020	0.037	0.031
235.0	10.27	34.05	358.6	799.8	369.9	18.96	3.123	2.800	2.639	3.086	3.131	2.600	2.537	1.495	1.223	1.099	0.755	1.036	0.802	0.772	0.615	0.564	0.595	0.529	0.486	0.424	0.475	0.360	0.364	0.357	0.347	0.213	0.296	0.205	0.216	0.157	0.186	0.155	0.166	0.138	0.110	0.097	0.142	0.091	0.127	0.106	0.095	0.224	0.519	1.501	2.968	3.786	1.949	0.389	0.067	0.092	0.061	0.065	0.045	0.064	0.100	0.059	0.033	0.045	0.044	0.037	0.062	0.020	0.033	0.036	0.019	0.041	0.048	0.044	0.031	0.017	0.010
240.0	19.00	22.66	130.5	1029	1589	337.9	12.68	3.101	3.712	2.815	3.483	3.041	2.392	1.840	1.719	1.071	0.884	1.013	0.873	0.807	0.659	0.520	0.643	0.556	0.599	0.472	0.457	0.438	0.385	0.385	0.303	0.277	0.330	0.261	0.259	0.190	0.188	0.168	0.184	0.138	0.150	0.113	0.146	0.118	0.112	0.145	0.106	0.145	0.196	0.537	1.797	5.506	7.823	5.794	1.965	0.285	0.056	0.055	0.073	0.075	0.050	0.093	0.060	0.067	0.057	0.020	0.046	0.067	0.043	0.048	0.032	0.048	0.017	0.037	0.054	0.028	0.036
245.0	20.20	40.73	51.94	405.4	2035	1947	255.2	6.301	4.837	4.370	3.924	3.463	2.985	2.143	1.930	1.177	0.942	0.885	0.814	0.655	0.624	0.766	0.648	0.689	0.500	0.456	0.449	0.400	0.444	0.369	0.327	0.329	0.338	0.225	0.223	0.141	0.274	0.167	0.214	0.171	0.187	0.118	0.112	0.127	0.111	0.179	0.125	0.210	0.195	0.181	0.487	1.889	5.891	11.42	11.34	5.761	1.348	0.133	0.107	0.054	0.058	0.065	0.042	0.074	0.077	0.080	0.040	0.089	0.045	0.041	0.046	0.054	0.037	0.027	0.043	0.039	0.031
250.0	12.62	44.71	91.30	140.9	693.8	2186	2768	910.7	44.28	5.690	4.632	3.897	3.485	2.441	1.724	1.405	1.055	1.006	0.945	0.797	0.761	0.793	0.601	0.620	0.532	0.503	0.548	0.494	0.485	0.452	0.364	0.322	0.284	0.275	0.226	0.159	0.165	0.159	0.186	0.177	0.142	0.128	0.122	0.118	0.148	0.130	0.140	0.227	0.359	0.338	0.291	0.529	1.519	3.737	7.335	11.24	14.29	12.62	6.776	1.575	0.157	0.090	0.063	0.069	0.083	0.077	0.080	0.074	0.085	0.054	0.056	0.059	0.031	0.044	0.040	0.044	0.046
255.0	11.01	19.64	95.91	202.0	213.3	571.2	2344	4374	1255	42.94	7.254	5.204	4.010	2.540	2.066	1.643	1.106	1.079	1.072	0.847	0.722	0.665	0.745	0.528	0.798	0.413	0.516	0.439	0.387	0.387	0.324	0.337	0.311	0.332	0.217	0.188	0.205	0.226	0.149	0.150	0.178	0.138	0.127	0.142	0.154	0.143	0.085	0.135	0.271	0.428	0.709	0.775	0.606	0.967	1.750	2.762	5.353	13.34	23.54	22.68	10.31	1.579	0.130	0.118	0.080	0.104	0.114	0.090	0.051	0.057	0.072	0.021	0.037	0.079	0.040	0.028	0.048
260.0	9.926	10.26	38.88	197.8	232.0	170.7	720.1	3717	4773	258.1	19.60	6.671	5.217	3.181	2.732	2.025	1.331	1.274	1.125	0.886	0.965	0.815	0.654	0.720	0.710	0.591	0.461	0.404	0.465	0.549	0.504	0.469	0.285	0.321	0.191	0.266	0.226	0.199	0.152	0.134	0.171	0.208	0.110	0.129	0.122	0.134	0.104	0.148	0.138	0.215	0.459	1.081	1.180	0.753	0.590	0.755	1.351	3.628	10.37	23.23	30.02	22.05	7.169	0.850	0.112	0.101	0.071	0.086	0.077	0.043	0.072	0.060	0.046	0.055	0.036	0.055	0.059
265.0	10.88	10.10	18.74	102.0	301.2	186.8	193.8	1261	5184	4674	196.3	11.78	7.170	3.954	2.777	2.123	1.503	1.164	1.211	1.048	0.928	0.894	0.808	0.750	0.677	0.679	0.602	0.429	0.539	0.515	0.453	0.388	0.350	0.306	0.324	0.326	0.294	0.252	0.213	0.150	0.203	0.163	0.144	0.180	0.158	0.174	0.092	0.105	0.111	0.122	0.175	0.576	1.164	1.463	0.962	0.449	0.454	0.947	2.602	6.796	16.10	31.99	30.84	18.32	3.893	0.321	0.100	0.126	0.076	0.088	0.066	0.040	0.045	0.062	0.060	0.048	0.043
270.0	21.61	21.04	22.70	39.42	156.3	331.1	245.8	336.0	1653	4889	4424	787.9	44.14	6.438	3.893	2.809	2.195	1.605	1.492	1.348	1.012	1.074	0.761	0.834	0.705	0.803	0.628	0.556	0.564	0.437	0.484	0.439	0.400	0.386	0.334	0.281	0.330	0.261	0.226	0.151	0.226	0.204	0.156	0.188	0.189	0.147	0.145	0.148	0.151	0.127	0.130	0.252	0.490	0.835	1.217	1.577	1.381	0.843	0.846	1.754	3.942	9.175	16.45	27.04	29.09	27.89	13.13	3.663	0.341	0.128	0.098	0.084	0.081	0.081	0.097	0.076	0.043
275.0	41.70	61.77	66.18	59.58	78.73	179.8	470.3	325.2	473.2	1292	3819	7799	1088	43.26	6.413	3.630	2.909	2.081	1.644	1.568	1.220	1.114	0.792	0.848	0.722	0.873	0.727	0.782	0.602	0.542	0.643	0.410	0.434	0.370	0.330	0.281	0.376	0.284	0.253	0.208	0.239	0.186	0.161	0.211	0.224	0.231	0.327	0.293	0.331	0.277	0.268	0.252	0.311	0.445	0.567	0.828	1.994	2.716	1.935	1.053	1.273	2.535	4.138	6.748	9.252	20.81	40.46	32.04	20.18	3.823	0.381	0.164	0.153	0.105	0.083	0.110	0.047
280.0	94.60	180.8	258.8	207.5	146.6	149.0	380.1	653.4	369.2	530.8	1408	6214	7468	769.5	23.96	5.905	3.692	2.586	2.103	1.767	1.402	1.342	0.946	0.934	0.804	0.822	0.782	0.835	0.561	0.526	0.639	0.579	0.464	0.583	0.388	0.351	0.349	0.312	0.254	0.202	0.222	0.214	0.240	0.242	0.345	0.424	0.570	0.739	0.887	0.800	0.661	0.652	0.566	0.551	0.577	0.611	1.020	2.015	3.198	2.937	2.033	1.833	2.159	2.938	3.660	6.654	15.31	30.34	50.53	30.63	15.46	2.086	0.309	0.131	0.120	0.107	0.080
285.0	217.7	516.7	795.8	664.2	398.3	277.2	367.7	817.2	994.5	951.2	1289	2718	7875	6374	122.1	12.29	5.077	3.384	2.733	2.226	1.862	1.419	1.130	1.270	0.854	1.017	0.792	0.831	0.595	0.677	0.742	0.503	0.520	0.562	0.609	0.547	0.437	0.460	0.279	0.340	0.276	0.282	0.327	0.374	0.513	0.657	1.003	1.689	2.295	2.085	1.937	2.033	1.502	1.265	1.106	1.118	1.242	1.714	2.604	4.240	5.392	4.367	3.774	4.093	4.833	5.989	7.721	11.60	23.42	40.95	53.43	27.25	9.418	0.871	0.245	0.162	0.128
290.0	439.7	1129	1938	1785	1004	645.0	626.2	1006	1709	2318	2499	2667	3818	6129	5897	460.1	29.56	6.076	3.989	2.617	2.319	1.831	1.604	1.463	1.199	1.027	0.988	0.898	0.765	0.835	0.787	0.671	0.636	0.686	0.678	0.629	0.556	0.511	0.408	0.427	0.398	0.443	0.493	0.612	0.923	1.474	2.179	3.778	5.014	5.177	5.072	5.141	4.201	3.192	2.455	2.207	2.455	2.770	3.295	4.544	6.408	8.256	9.474	10.44	10.33	10.96	11.60	12.11	14.07	17.81	24.91	31.76	39.92	35.78	18.08	8.054	0.982
295.0	653.1	1719	3079	2973	1856	1129	998.0	1366	2130	3376	4218	3889	3401	2564	3771	6706	683.8	29.02	5.210	4.065	2.929	2.362	2.033	1.591	1.565	1.297	1.205	0.994	0.907	0.917	0.880	0.776	0.718	0.835	0.844	0.687	0.717	0.706	0.459	0.448	0.456	0.618	0.587	0.837	1.267	2.221	3.235	5.980	8.097	8.647	8.508	8.664	7.143	5.324	4.255	3.853	3.907	3.947	4.860	6.032	7.673	9.349	11.95	15.73	18.22	18.26	17.89	16.28	16.02	15.60	14.19	12.15	12.09	18.37	37.43	53.16	28.69
300.0	768.7	2068	3679	3692	2385	1447	1246	1602	2412	3649	5036	4795	3710	1962	1321	4895	5749	511.5	13.42	5.541	3.393	2.645	2.086	1.783	1.628	1.423	1.372	1.163	0.953	0.914	0.903	0.768	0.700	0.883	0.849	0.766	0.785	0.676	0.595	0.556	0.585	0.617	0.616	0.890	1.495	2.458	3.987	6.869	9.683	10.75	10.15	10.77	8.902	6.481	5.569	4.651	4.843	5.329	5.727	7.172	8.656	10.54	13.09	16.65	19.78	22.77	22.50	19.46	18.52	16.77	12.96	8.728	6.066	6.035	11.52	27.70	48.15
305.0	778.1	2173	3962	4041	2679	1688	1393	1753	2579	3708	5028	5404	4001	1978	754.9	1515	5580	4732	75.81	8.302	4.899	3.349	2.485	1.943	1.797	1.531	1.494	1.193	1.083	1.111	0.877	0.918	0.848	0.869	0.764	0.850	0.755	0.726	0.750	0.623	0.583	0.637	0.642	0.928	1.342	2.427	4.082	7.206	10.19	11.27	11.41	11.71	10.10	7.748	6.105	5.373	5.281	5.564	6.654	7.700	9.423	11.60	13.93	16.42	18.62	22.04	24.08	22.44	20.90	17.13	13.67	9.071	5.148	3.353	4.060	7.594	16.58
310.0	715.2	1985	3755	3959	2773	1790	1474	1762	2510	3525	4596	4968	4217	2119	723.2	560.3	1620	4127	4556	1228	22.29	4.810	3.270	2.668	2.097	1.707	1.494	1.386	1.253	1.238	1.029	0.954	0.915	0.874	0.912	0.856	0.723	0.741	0.721	0.574	0.568	0.568	0.617	0.932	1.306	2.310	3.915	6.519	9.456	10.72	10.92	11.94	10.10	8.101	6.836	5.746	5.560	6.094	6.624	7.641	8.991	11.15	13.49	15.68	17.74	20.02	21.14	21.17	20.84	19.21	14.83	9.350	5.335	3.314	2.532	3.065	4.669
315.0	587.1	1686	3266	3543	2592	1721	1440	1673	2291	3122	4006	4186	3685	2324	851.3	408.8	510.9	1023	2701	5643	512.6	21.99	4.801	3.505	2.435	2.223	1.612	1.573	1.305	1.361	1.044	0.944	0.887	0.786	0.949	0.820	0.637	0.708	0.598	0.536	0.699	0.553	0.569	0.837	1.211	1.923	3.171	5.695	8.045	9.192	9.783	10.61	9.457	7.713	6.490	5.698	5.318	6.181	6.254	7.253	8.490	10.08	12.34	13.59	15.67	17.53	17.78	17.41	17.30	16.41	14.56	10.97	6.638	3.874	2.936	2.393	2.251
320.0	537.0	1477	2871	3125	2406	1637	1372	1598	2084	2810	3529	3670	3176	2191	1108	449.0	306.0	336.5	732.4	3723	4284	403.6	10.45	4.297	2.990	2.281	1.941	1.604	1.321	1.467	1.133	1.014	0.882	0.778	0.762	0.818	0.657	0.728	0.512	0.491	0.594	0.610	0.584	0.704	1.050	1.590	2.892	4.873	6.980	7.840	8.614	9.543	8.487	7.368	6.283	5.415	5.407	5.684	6.270	6.631	7.995	8.946	11.07	12.27	13.66	15.40	15.93	15.36	14.66	14.23	11.99	10.40	8.101	5.676	3.804	2.688	2.056
325.0	457.8	1317	2571	2826	2182	1533	1342	1497	1906	2520	3120	3250	2812	1917	1268	643.1	311.9	219.0	247.8	1081	4336	3638	59.66	6.881	3.592	2.822	1.961	1.664	1.589	1.567	1.193	0.974	0.986	0.915	0.745	0.860	0.683	0.603	0.554	0.515	0.526	0.607	0.636	0.723	0.967	1.428	2.675	4.555	6.242	7.187	7.637	8.593	7.682	6.926	6.089	5.251	5.085	5.259	6.054	6.391	7.048	8.057	9.764	10.98	12.12	13.35	14.16	13.51	13.20	12.76	11.01	8.821	7.009	6.554	5.559	3.607	2.520
330.0	400.0	1135	2217	2599	2062	1473	1274	1384	1717	2200	2684	2802	2486	1743	1164	895.5	521.8	273.0	198.5	341.7	1269	3270	3656	995.3	18.00	3.966	2.857	2.110	1.862	1.587	1.417	1.049	0.999	0.957	0.822	0.771	0.700	0.663	0.551	0.428	0.535	0.545	0.533	0.695	0.859	1.312	2.119	3.740	5.542	6.475	7.006	8.160	7.322	6.318	5.911	4.991	4.958	5.119	5.507	5.782	6.482	7.202	8.716	9.568	10.48	11.53	12.31	11.91	11.69	11.32	9.951	8.310	6.306	5.835	5.559	5.138	4.501
335.0	351.6	956.1	1925	2381	1980	1448	1227	1316	1560	1958	2343	2458	2254	1696	1150	876.4	781.0	458.3	255.1	233.6	398.4	835.9	2343	4685	422.0	17.42	4.114	2.586	2.083	1.529	1.486	1.273	1.181	0.941	0.881	0.836	0.748	0.620	0.631	0.512	0.513	0.577	0.511	0.615	0.715	1.115	1.833	3.306	5.091	5.898	6.365	7.776	7.201	6.053	5.643	4.640	4.764	4.915	4.992	5.722	6.167	6.911	7.701	8.447	9.329	9.777	10.38	10.75	10.28	10.03	9.386	7.876	6.505	5.853	5.289	4.837	4.779
340.0	288.1	879.4	1742	2239	1929	1419	1185	1263	1465	1794	2135	2266	2114	1662	1180	875.7	775.7	666.0	355.1	251.5	242.8	297.5	671.4	3286	3489	337.6	8.518	3.753	2.696	2.111	1.610	1.434	1.222	1.107	0.902	0.796	0.673	0.646	0.543	0.571	0.496	0.532	0.473	0.647	0.727	1.055	1.635	2.784	4.501	5.064	5.950	7.433	7.279	6.134	5.382	4.661	4.604	4.857	4.870	5.203	5.759	6.454	7.217	7.651	8.854	8.948	9.540	9.819	9.833	9.612	8.563	7.873	6.676	6.219	5.215	4.750	4.473
345.0	268.8	788.0	1628	2138	1889	1453	1183	1209	1394	1676	1987	2110	2006	1639	1213	913.8	733.3	725.0	527.2	311.8	249.7	213.0	250.2	986.6	3695	3004	51.19	5.538	3.156	2.394	1.752	1.594	1.166	1.051	0.800	0.834	0.694	0.641	0.587	0.526	0.427	0.532	0.423	0.589	0.722	0.964	1.358	2.774	4.087	4.825	5.563	7.107	6.973	6.054	5.321	4.665	4.675	4.674	4.868	5.116	5.485	6.087	6.483	7.522	7.917	8.339	8.704	9.248	9.327	9.072	8.355	7.790	6.892	6.262	5.844	4.984	4.366
350.0	256.6	667.1	1475	2005	1849	1428	1169	1173	1329	1571	1853	1961	1893	1596	1227	961.4	763.6	675.3	656.6	501.6	335.3	258.2	208.6	315.5	1110	2778	2882	743.5	15.19	3.170	2.190	1.671	1.293	1.133	0.932	0.796	0.774	0.649	0.548	0.505	0.416	0.507	0.459	0.485	0.623	0.921	1.318	2.382	3.397	4.329	5.258	6.711	6.701	6.143	5.211	4.682	4.886	4.464	4.630	4.978	5.095	5.769	6.331	6.875	7.526	7.795	8.168	8.582	8.328	8.506	8.259	7.552	6.642	6.257	5.960	5.416	4.775
355.0	215.9	582.0	1289	1834	1814	1449	1178	1170	1298	1494	1754	1839	1789	1547	1224	1005	823.8	696.2	639.3	663.0	510.1	341.8	257.2	216.4	337.8	700.6	1978	3400	372.1	13.54	3.278	2.149	1.532	1.199	1.036	0.993	0.859	0.617	0.597	0.575	0.414	0.553	0.429	0.460	0.569	0.784	1.297	2.007	2.990	3.817	4.843	6.388	6.518	5.955	5.543	4.868	4.534	4.772	4.719	4.826	5.179	5.558	5.955	6.691	6.746	7.294	8.074	7.687	7.751	8.099	7.820	7.358	6.810	6.188	5.931	5.380	4.955
360.0	193.3	536.1	1187	1752	1771	1427	1198	1174	1288	1471	1693	1768	1715	1495	1220	1016	860.0	739.2	661.0	665.5	657.8	451.8	313.5	229.6	195.1	233.9	567.5	2716	3035	288.2	6.907	3.100	1.901	1.504	1.117	0.898	0.879	0.774	0.559	0.625	0.510	0.544	0.474	0.428	0.551	0.657	1.149	1.766	2.733	3.496	4.469	5.764	6.244	5.852	5.559	4.961	4.880	4.694	4.731	4.708	4.952	5.365	5.987	6.302	6.751	7.203	7.656	6.944	7.403	7.837	7.794	7.090	6.766	6.463	5.785	5.418	5.207
365.0	193.5	494.9	1103	1658	1705	1431	1220	1172	1282	1447	1634	1714	1666	1463	1200	1017	888.2	791.5	708.8	664.1	694.4	584.0	386.6	272.4	197.6	156.1	193.5	847.7	3233	2574	46.45	4.879	2.460	1.680	1.216	0.926	0.906	0.725	0.660	0.599	0.609	0.483	0.572	0.446	0.549	0.669	0.936	1.769	2.754	3.435	4.206	5.852	5.802	5.681	5.618	4.795	4.704	4.926	4.639	4.761	5.285	5.330	5.634	6.145	6.736	7.200	7.279	7.147	7.254	7.384	7.590	6.745	6.429	6.490	5.614	5.651	5.410
370.0	171.6	448.6	1005	1558	1650	1444	1237	1199	1279	1444	1606	1649	1578	1401	1174	1020	917.5	838.5	776.3	719.2	689.2	674.7	549.2	363.1	256.9	188.9	151.0	262.3	996.7	2519	2521	198.9	12.87	2.898	1.712	1.117	1.006	0.799	0.722	0.622	0.558	0.473	0.537	0.457	0.539	0.669	0.994	1.696	2.530	3.195	3.983	5.549	5.736	5.636	5.532	4.979	4.916	4.836	4.826	4.886	5.142	5.464	5.626	6.326	6.579	6.861	7.022	6.953	6.838	7.023	7.089	6.749	6.126	6.332	5.897	5.582	5.663
375.0	158.3	394.8	918.8	1438	1593	1427	1271	1217	1272	1406	1544	1580	1501	1337	1138	1015	938.2	876.0	833.8	778.7	726.1	683.2	657.2	515.5	342.0	255.2	193.9	175.0	302.1	647.1	1879	2871	305.3	10.95	2.890	1.497	1.085	0.857	0.768	0.651	0.632	0.465	0.481	0.466	0.506	0.671	0.973	1.667	2.198	2.740	3.891	5.238	5.623	5.418	5.399	4.756	5.129	4.658	4.782	5.042	5.269	5.553	5.796	5.937	6.351	6.706	6.312	6.647	6.439	6.969	6.455	6.277	5.953	5.837	5.505	5.389	5.656
380.0	152.8	377.1	874.9	1369	1541	1431	1278	1229	1278	1394	1513	1518	1444	1289	1108	1002	944.3	900.2	866.4	823.1	772.3	706.6	663.7	628.2	448.1	321.6	246.0	192.7	177.8	221.8	557.4	2392	2479	222.7	5.839	2.239	1.347	0.923	0.864	0.625	0.579	0.635	0.503	0.401	0.579	0.626	0.905	1.573	2.115	2.704	3.568	5.014	5.293	5.237	5.450	4.948	5.204	5.040	4.762	5.137	5.469	5.374	5.554	5.935	6.237	6.212	6.130	6.632	6.448	6.299	6.078	6.115	6.089	5.567	5.522	5.615	5.857
385.0	147.6	354.7	846.1	1313	1524	1425	1304	1249	1285	1380	1474	1467	1407	1262	1086	996.0	943.5	910.2	889.2	851.3	807.5	747.3	678.5	656.5	571.0	400.1	308.8	241.0	188.1	156.9	200.4	774.8	2618	1916	36.49	3.614	1.976	1.458	0.862	0.868	0.703	0.615	0.400	0.488	0.583	0.611	0.847	1.411	2.040	2.613	3.497	4.846	5.152	5.326	5.283	5.012	5.259	5.050	4.886	5.091	5.068	5.520	5.842	6.017	6.232	6.228	6.246	6.060	6.308	6.133	6.176	6.116	5.962	5.354	5.260	5.178	5.539
390.0	140.1	337.7	790.3	1251	1480	1411	1311	1259	1284	1357	1421	1402	1345	1229	1064	980.2	934.1	912.8	904.5	879.5	850.0	801.8	737.7	680.4	649.7	548.7	419.1	329.0	255.7	198.8	160.4	247.9	812.9	1875	1768	155.9	10.13	2.115	1.325	0.965	0.751	0.727	0.564	0.588	0.589	0.653	0.885	1.311	1.910	2.385	3.185	4.340	5.082	5.166	5.155	5.141	5.410	5.093	4.939	5.163	5.288	5.645	5.552	5.871	6.134	5.803	5.949	5.837	6.077	5.979	5.971	5.811	5.665	5.469	5.378	5.512	5.357
395.0	127.6	318.2	732.6	1204	1419	1410	1321	1275	1307	1343	1389	1351	1289	1189	1053	965.4	923.7	906.8	908.6	899.6	883.2	849.4	802.9	741.9	690.3	663.3	586.5	439.8	348.0	272.3	203.3	165.0	246.4	481.3	1340	2090	247.6	8.569	2.215	1.247	0.930	0.854	0.628	0.600	0.572	0.706	0.912	1.280	1.769	2.270	2.950	4.368	4.756	5.055	4.968	4.965	5.275	5.098	4.991	5.107	5.256	5.382	5.324	5.929	5.885	5.917	5.987	5.538	5.938	5.916	5.707	5.673	5.620	5.532	5.223	5.432	5.272
400.0	128.9	303.5	690.3	1146	1395	1409	1353	1311	1304	1334	1345	1307	1260	1170	1053	954.3	912.3	902.6	913.2	913.4	908.5	881.5	846.7	800.5	743.5	705.3	686.4	556.1	425.4	335.9	247.8	176.1	140.0	158.3	391.3	1689	1807	38.31	4.533	1.797	1.270	0.858	0.722	0.642	0.602	0.698	0.910	1.187	1.685	2.337	2.839	4.194	4.553	4.804	4.864	5.225	5.236	5.249	5.336	5.177	5.342	5.524	5.703	5.526	5.805	5.715	5.749	5.624	6.100	5.972	5.388	5.444	5.248	5.501	5.129	5.443	5.480
405.0	143.4	292.2	680.1	1112	1375	1406	1371	1315	1315	1325	1336	1296	1242	1151	1041	946.5	900.2	893.7	909.1	909.8	915.2	904.6	887.7	845.7	798.9	746.7	726.7	660.1	507.7	397.9	297.7	206.4	138.8	101.4	128.4	530.5	1841	1377	32.22	2.922	1.491	1.128	0.755	0.674	0.607	0.724	0.890	1.180	1.611	2.175	2.895	3.945	4.635	4.848	4.914	5.114	5.150	5.187	5.264	5.393	5.313	5.647	5.424	5.561	5.357	5.466	5.392	5.589	5.499	5.628	5.401	5.635	5.472	5.385	5.140	5.521	5.302
410.0	134.9	290.1	660.7	1077	1343	1389	1371	1353	1335	1307	1314	1265	1203	1129	1012	926.3	878.5	875.4	891.0	907.1	919.5	919.8	910.1	896.5	857.7	809.8	763.3	721.1	630.4	487.5	359.7	254.2	172.0	114.5	87.08	156.1	556.5	1321	1307	146.4	8.537	1.629	1.060	0.850	0.711	0.749	0.792	1.261	1.588	2.158	2.782	3.915	4.615	4.964	5.118	4.921	5.333	5.465	5.531	5.456	5.547	5.557	5.620	5.739	5.401	5.531	5.259	5.496	5.211	5.334	5.306	5.379	5.284	5.248	5.190	5.338	5.230
415.0	123.7	285.7	625.2	1056	1323	1380	1393	1363	1370	1326	1294	1238	1161	1093	987.2	898.0	849.2	850.7	865.6	886.4	907.8	917.5	923.8	924.4	898.3	860.4	803.2	740.1	695.0	586.5	426.5	305.8	211.9	144.7	99.58	87.68	157.8	332.8	940.1	1533	219.4	7.110	1.788	1.131	0.866	0.799	0.885	1.213	1.698	2.196	2.711	3.665	4.302	4.584	5.084	5.151	5.511	5.255	5.365	5.380	5.501	5.578	5.499	5.773	5.509	5.299	5.424	5.018	5.338	5.190	5.251	5.169	5.122	5.144	5.108	4.928	5.364
420.0	122.5	301.0	602.5	1036	1275	1369	1403	1391	1387	1329	1284	1208	1146	1069	964.3	873.2	824.4	824.0	843.1	870.6	890.2	908.1	919.7	927.2	909.1	887.5	830.7	765.4	703.0	638.3	491.2	344.1	243.0	169.3	117.8	84.66	78.66	102.8	269.2	1186	1333	35.31	3.562	1.478	1.096	0.934	0.879	1.203	1.594	2.044	2.708	3.844	4.372	4.556	4.999	5.071	5.336	5.544	5.602	5.885	5.661	5.617	5.630	5.800	5.361	5.008	5.285	4.605	5.178	5.016	5.211	5.002	4.898	5.101	4.967	4.639	4.516
425.0	113.3	267.9	588.8	1001	1264	1380	1417	1434	1417	1336	1270	1192	1126	1040	946.3	855.4	804.0	797.6	826.0	844.3	864.8	890.1	910.3	916.2	908.8	892.1	851.5	785.4	711.9	648.6	548.2	390.0	272.5	196.0	138.3	96.39	72.97	58.20	84.54	366.0	1298	1038	29.56	2.585	1.425	1.066	1.038	1.166	1.590	2.198	2.620	3.525	4.183	4.679	4.863	4.974	5.439	5.637	5.816	5.944	5.854	5.742	5.942	5.834	5.741	5.042	5.236	4.941	4.926	4.826	5.021	5.161	4.659	4.867	4.769	4.761	4.569
430.0	110.9	257.8	593.1	973.2	1275	1397	1449	1486	1459	1368	1281	1193	1105	1012	920.6	827.8	779.0	776.5	795.9	819.4	840.4	865.5	889.7	901.4	903.2	886.5	854.4	804.3	732.8	656.5	568.2	456.6	325.3	235.1	170.7	122.7	89.46	64.08	54.16	105.3	382.8	943.1	1010	134.5	8.671	1.603	1.341	1.396	1.688	2.037	2.522	3.603	4.177	4.626	4.874	5.175	5.791	5.914	5.948	5.946	6.159	5.888	6.115	5.814	5.442	5.300	5.070	4.947	4.769	5.059	4.721	4.912	4.697	4.651	4.670	4.504	4.651
435.0	112.7	252.1	570.2	951.6	1271	1458	1525	1556	1500	1404	1312	1190	1095	990.4	895.9	802.3	755.3	756.3	769.3	791.3	813.9	835.8	867.0	884.6	892.6	889.6	857.3	818.6	755.2	678.9	577.2	493.1	392.0	278.8	204.6	153.3	112.9	81.16	60.73	56.17	108.5	234.9	677.9	1259	213.2	8.862	2.194	1.751	1.687	1.785	2.635	3.921	4.146	4.561	5.162	5.371	6.153	5.983	5.983	6.321	6.362	6.361	6.206	6.082	5.638	5.356	5.113	5.131	4.804	4.731	4.652	4.924	4.542	4.445	4.521	4.444	4.829
440.0	116.6	248.5	572.7	942.3	1271	1476	1552	1597	1544	1438	1320	1191	1077	974.8	876.7	788.9	742.4	738.8	755.5	774.6	797.3	816.2	843.6	870.2	879.2	873.2	863.3	820.7	766.3	695.3	597.3	501.4	428.0	324.2	233.6	177.3	131.3	98.23	72.92	53.93	53.47	73.77	190.3	923.9	1207	172.4	4.924	2.489	1.912	2.064	2.685	3.588	4.312	4.716	5.061	5.267	5.952	6.093	6.471	6.625	6.015	6.336	6.236	5.895	5.680	5.549	5.209	4.916	4.946	4.669	4.527	4.675	4.544	4.643	4.370	4.304	4.421
445.0	124.4	244.7	549.0	943.1	1288	1461	1575	1631	1574	1462	1329	1194	1067	959.2	852.7	771.9	729.1	720.0	739.7	748.7	772.7	791.6	814.7	846.7	859.2	859.8	851.8	818.4	774.8	706.1	615.4	513.5	436.1	363.9	268.5	198.7	150.5	112.9	85.12	63.19	47.99	43.84	61.35	276.1	1087	1052	27.55	4.169	2.524	2.365	2.780	3.636	4.500	4.806	5.173	5.437	6.126	6.205	6.227	6.622	6.456	6.219	6.543	6.110	5.760	5.555	5.298	5.089	4.591	4.732	4.804	4.604	4.489	4.212	4.487	4.413	4.420
450.0	113.5	281.4	528.0	917.5	1280	1473	1610	1635	1582	1468	1339	1181	1047	928.1	831.4	741.4	698.8	689.7	700.2	716.2	731.5	748.7	772.0	802.9	818.8	828.3	825.1	801.3	768.6	712.0	630.1	529.7	443.7	379.5	309.9	233.2	174.2	135.0	103.4	79.11	59.11	46.90	40.85	81.97	312.0	829.2	987.6	314.6	10.43	3.393	3.199	3.859	4.298	4.943	5.174	5.332	6.003	6.139	6.734	6.542	6.319	6.640	6.427	5.996	5.567	5.337	5.155	4.866	4.691	4.989	4.437	4.365	4.489	4.183	4.151	4.231	4.240
455.0	92.80	296.5	565.0	901.3	1236	1460	1570	1619	1556	1443	1307	1158	1010	894.0	790.5	702.9	667.9	652.5	656.8	669.7	680.3	696.9	723.8	752.2	771.4	781.8	786.8	776.0	752.0	705.6	634.5	545.8	455.1	381.6	326.7	272.5	202.4	156.2	122.5	98.05	75.66	59.84	47.21	47.80	93.07	209.3	532.4	1138	195.1	12.84	4.207	4.325	4.636	4.722	5.336	5.501	5.962	6.019	7.060	7.093	6.703	6.420	6.134	5.960	5.423	5.403	5.126	4.884	4.640	4.465	4.211	4.051	4.184	3.834	3.958	4.086	4.086
460.0	82.89	292.2	680.1	904.0	1180	1411	1529	1578	1541	1425	1276	1148	986.5	862.9	758.8	672.2	634.3	622.3	623.7	636.5	644.5	658.3	678.6	715.6	731.9	741.1	755.8	748.4	727.5	690.8	628.0	547.3	461.0	388.4	328.4	288.2	227.9	172.5	137.3	111.0	88.36	72.33	56.95	47.54	50.84	72.60	152.5	697.0	1047	155.0	9.467	4.953	4.584	4.873	5.394	5.299	6.178	6.043	6.576	6.646	6.431	6.075	6.195	6.185	5.530	5.146	5.021	4.712	4.560	4.370	4.256	3.840	4.189	3.959	3.823	3.944	3.841
465.0	96.12	240.8	783.0	967.7	1156	1354	1511	1542	1506	1369	1252	1103	956.5	835.3	724.2	648.7	602.9	588.1	593.1	603.1	605.5	625.1	646.1	675.2	697.9	704.1	722.6	717.3	708.9	675.8	619.7	547.4	465.6	391.3	330.8	284.3	244.5	191.0	148.2	121.6	98.39	81.58	65.92	54.19	47.97	47.89	61.99	204.7	822.6	893.6	123.7	6.960	4.715	5.069	5.416	5.183	6.179	6.050	6.256	6.402	6.262	5.912	5.978	5.636	5.514	5.117	4.793	4.849	4.144	4.188	4.012	3.767	3.934	3.923	3.891	3.730	3.651
470.0	92.02	194.9	669.8	1301	1189	1285	1432	1482	1422	1320	1178	1045	899.5	777.0	676.3	599.3	555.5	538.3	548.2	550.1	557.0	572.1	593.8	619.8	642.2	655.2	667.9	671.3	669.5	644.8	599.3	530.5	458.8	390.0	328.9	278.5	242.4	206.1	162.3	129.9	108.1	90.31	75.34	61.26	53.95	48.42	46.80	73.46	232.7	588.6	739.1	298.2	13.03	5.103	5.110	5.142	5.855	5.947	5.915	5.951	5.913	5.871	5.547	5.385	4.973	4.739	4.590	4.433	4.094	4.037	3.924	3.559	3.444	3.622	3.504	3.550	3.300
475.0	79.01	167.1	469.6	1413	1546	1210	1314	1373	1315	1222	1087	968.6	839.4	722.3	622.7	543.4	504.9	490.6	494.2	496.4	500.5	517.4	536.2	560.7	583.6	603.3	611.2	622.8	619.9	607.8	568.0	510.8	445.2	381.8	325.3	273.0	233.4	206.7	174.2	137.2	112.6	94.08	78.44	67.23	57.36	51.69	45.52	44.71	72.65	145.5	305.6	768.4	207.0	16.79	4.872	4.861	5.389	5.531	5.513	5.748	5.442	5.340	5.251	5.134	4.610	4.602	4.231	4.041	3.919	3.992	3.405	3.364	3.234	3.335	3.240	3.177	3.278
480.0	85.36	161.0	377.0	1109	2046	1259	1250	1296	1249	1162	1040	917.0	798.2	679.6	585.3	512.0	476.1	455.8	463.3	465.9	468.3	476.4	501.6	520.5	542.2	562.6	577.1	587.7	593.3	579.1	542.7	491.9	435.6	374.0	320.4	271.7	229.5	198.0	175.9	145.9	115.2	96.09	79.90	67.81	58.62	51.06	46.03	39.26	37.01	46.34	79.85	364.9	773.6	190.0	11.93	4.658	5.676	5.393	5.480	5.218	5.295	5.127	5.136	4.669	4.515	4.475	3.988	3.824	3.803	3.618	3.375	3.184	2.933	3.043	2.993	2.992	2.994
485.0	76.60	150.1	367.9	815.4	2181	1554	1195	1239	1200	1109	1000	880.2	756.8	645.5	553.1	484.0	446.8	430.1	429.6	438.1	443.0	451.6	469.2	490.4	512.8	532.7	544.4	561.9	566.5	560.0	525.9	479.1	422.7	366.2	316.5	268.2	227.6	191.2	171.9	151.1	119.8	96.13	80.53	68.19	59.56	51.65	45.66	37.91	29.20	24.72	27.34	96.15	490.9	764.6	151.7	7.776	5.862	5.196	5.182	5.256	5.217	4.944	4.779	4.490	4.279	4.187	3.832	3.610	3.455	3.370	3.165	3.173	2.867	2.845	2.913	2.667	2.906
490.0	71.36	147.8	345.5	633.6	1574	2246	1257	1151	1118	1038	937.9	814.5	710.2	609.3	517.0	453.2	415.3	399.5	400.3	400.3	406.6	414.1	432.0	449.5	470.8	490.7	506.6	523.1	528.8	525.5	499.6	456.8	404.8	352.9	304.8	261.3	222.5	187.1	162.8	144.1	126.5	100.9	81.70	69.34	59.64	51.85	45.54	38.13	27.92	20.88	17.05	29.74	127.1	399.9	656.7	320.2	16.59	6.270	5.421	4.886	4.964	4.725	4.526	4.205	4.133	3.974	3.638	3.453	3.182	3.039	2.793	2.937	2.687	2.604	2.663	2.585	2.444
495.0	58.07	148.4	323.2	577.2	953.2	2196	1804	1081	1025	970.6	858.7	760.5	653.3	556.8	470.6	416.6	380.1	363.6	359.9	360.8	366.5	379.3	391.9	407.3	426.3	445.4	460.1	477.9	483.8	485.5	464.6	427.7	379.4	334.7	289.4	248.7	214.6	179.9	156.5	133.7	122.0	106.9	83.67	69.47	59.76	52.23	46.22	37.82	29.66	21.92	16.71	16.80	37.68	97.97	253.0	725.5	234.7	22.52	6.246	5.292	4.701	4.444	4.436	4.099	3.768	3.578	3.475	3.245	2.946	2.909	2.779	2.824	2.553	2.426	2.445	2.345	2.330
500.0	50.94	131.0	315.3	495.8	748.7	1590	2415	1098	946.5	883.0	800.5	700.7	603.9	520.7	438.1	378.5	349.2	334.7	329.5	331.4	335.8	345.3	355.3	373.0	388.1	407.0	421.1	442.0	451.6	451.9	434.4	399.0	357.2	313.2	274.5	236.3	203.1	173.2	147.9	127.2	113.2	105.7	86.61	69.98	58.27	52.79	46.18	38.79	30.87	23.30	18.27	15.66	19.88	33.14	69.84	316.6	753.1	221.9	17.43	5.763	4.678	4.400	4.082	3.737	3.668	3.341	3.389	3.081	2.941	2.889	2.459	2.583	2.232	2.263	2.314	2.251	2.146
505.0	57.04	110.7	296.7	495.1	669.1	1052	2498	1417	867.3	825.6	746.9	655.1	553.3	475.5	401.0	348.1	321.2	306.1	301.2	303.5	309.0	317.5	328.0	341.8	356.3	373.4	389.1	405.0	416.7	418.8	400.5	371.8	335.4	295.4	258.7	223.0	193.2	165.5	141.1	121.4	107.6	96.79	87.83	70.77	58.51	50.77	45.90	39.75	31.63	25.20	20.36	17.75	17.91	20.77	30.85	89.90	405.7	742.9	182.7	10.14	4.785	4.359	3.915	3.510	3.346	3.103	3.128	2.695	2.449	2.439	2.383	2.371	2.088	2.144	2.063	1.962	1.933
510.0	44.19	94.65	252.6	453.9	576.4	756.0	1667	2184	919.8	732.9	660.7	588.3	500.2	424.0	362.8	315.2	286.2	272.5	269.2	270.4	273.5	278.3	287.1	302.7	316.0	330.7	344.1	358.2	370.2	374.3	360.4	332.9	301.1	266.4	232.9	204.1	176.6	152.4	130.8	112.8	98.14	86.20	80.39	71.38	58.34	49.20	44.12	38.69	31.74	26.14	21.89	19.75	19.00	20.29	23.61	37.25	111.9	346.7	560.9	269.2	16.60	4.357	3.622	3.369	3.025	2.829	2.776	2.495	2.320	2.271	2.142	2.080	1.899	1.880	1.868	1.750	1.756
515.0	38.14	79.24	195.9	416.7	517.4	618.9	890.4	2220	1464	660.5	584.6	516.7	450.0	379.1	315.6	275.8	248.5	241.8	233.2	240.0	235.7	243.4	250.5	262.1	275.1	288.1	300.3	313.7	321.7	327.0	318.2	294.6	267.7	238.2	208.4	184.4	159.0	137.8	120.3	102.7	90.33	77.82	68.67	65.44	57.26	48.51	41.44	35.78	30.10	25.92	21.82	19.84	19.29	19.55	21.18	25.14	40.94	89.53	187.7	536.6	236.5	20.37	3.518	3.100	3.044	2.575	2.437	2.178	2.132	1.956	1.992	1.883	1.680	1.551	1.607	1.592	1.714
520.0	33.46	77.17	175.1	375.7	500.1	546.4	648.7	1537	2139	686.2	536.6	467.2	406.3	344.0	287.3	247.4	226.7	217.7	210.1	214.2	214.3	217.5	226.2	235.5	248.8	258.6	269.7	282.1	291.7	292.0	285.5	266.5	241.8	215.5	191.7	167.9	145.0	126.9	111.3	96.32	83.35	72.18	63.00	57.14	56.07	47.95	39.86	33.96	29.43	24.54	21.58	19.60	18.97	18.88	19.49	21.29	24.20	30.91	50.70	217.7	558.6	211.8	12.76	2.922	2.483	2.390	2.170	2.115	1.932	1.784	1.801	1.568	1.551	1.477	1.436	1.392	1.401
525.0	26.31	71.82	162.2	324.3	482.8	481.5	550.7	897.4	2381	993.5	492.8	431.4	366.3	310.4	261.3	223.5	203.6	194.5	191.9	190.2	190.0	196.8	202.9	211.2	222.7	230.3	242.7	253.3	261.3	266.7	259.8	241.8	219.4	197.2	176.1	153.6	134.3	115.8	102.0	88.53	77.55	66.67	58.33	52.07	51.43	47.78	38.81	32.47	27.43	23.25	20.55	18.52	17.73	18.27	18.45	19.31	18.62	17.52	19.17	56.40	277.2	549.1	163.2	6.324	2.306	2.100	2.198	1.947	1.702	1.749	1.629	1.317	1.404	1.419	1.268	1.173	1.358
530.0	28.01	62.65	138.4	260.5	423.1	459.1	474.2	574.8	1547	1868	539.2	382.7	321.7	268.7	231.3	196.6	177.8	170.7	165.3	164.7	165.3	171.1	176.6	182.7	191.0	201.3	210.8	219.5	226.9	231.8	226.7	211.5	192.9	172.8	155.0	135.3	120.8	104.5	91.50	79.12	69.63	60.62	53.08	47.12	43.77	42.08	38.47	31.90	25.47	21.41	18.79	16.72	16.12	16.39	16.80	16.94	15.88	13.29	11.33	17.57	69.14	241.9	405.6	200.5	14.00	2.329	2.052	1.699	1.626	1.553	1.435	1.214	1.337	1.225	1.242	1.099	1.115
535.0	27.11	49.79	114.9	211.7	331.8	432.7	405.8	440.7	710.7	2026	1067	334.2	275.6	235.8	199.0	168.7	152.4	146.0	141.3	138.4	142.1	145.2	147.2	155.6	162.5	170.8	178.9	184.3	192.5	197.7	190.0	180.5	167.0	148.9	134.1	117.4	103.6	90.74	81.67	69.39	60.87	53.88	47.33	41.91	37.88	35.67	34.47	31.31	23.62	19.32	17.31	15.20	14.27	14.61	15.27	15.13	13.94	11.65	8.595	8.687	18.97	56.99	127.5	381.1	225.4	17.23	1.992	1.607	1.420	1.289	1.244	1.121	1.232	1.017	1.064	0.940	1.049
540.0	27.47	46.86	95.24	184.6	268.4	387.9	376.6	379.7	444.3	1323	1778	346.3	244.3	205.5	172.2	149.8	134.4	129.7	126.7	122.6	124.5	126.5	131.2	135.2	139.2	147.1	152.0	160.0	169.4	174.0	167.6	158.4	145.9	131.7	118.6	104.3	91.77	81.19	72.14	61.50	55.00	48.24	43.24	38.10	33.70	31.04	30.27	28.22	23.96	18.94	15.75	14.08	13.22	13.17	13.44	13.77	12.60	9.780	7.617	6.265	7.813	15.69	31.32	147.8	404.3	187.8	9.839	1.498	1.341	1.147	1.171	1.052	1.097	0.977	0.888	1.000	0.975
545.0	21.00	39.14	96.16	159.2	228.3	334.3	365.8	336.1	349.8	661.2	2069	583.0	217.7	182.0	150.8	131.7	121.6	115.3	109.6	109.3	109.6	110.7	114.4	118.9	122.7	129.3	134.4	141.3	148.3	150.9	148.1	138.3	127.5	116.7	104.1	92.10	81.82	72.27	65.70	55.57	49.53	43.54	38.82	34.08	31.38	27.40	25.95	24.62	22.89	18.65	14.82	13.22	12.00	12.17	11.94	12.46	11.46	9.306	7.070	5.566	4.974	6.236	9.252	36.19	191.3	391.4	130.7	3.988	1.188	1.151	1.190	0.915	0.854	0.920	0.713	0.758	0.710
550.0	19.47	37.24	77.90	133.7	190.2	258.9	335.5	295.3	291.4	354.6	1242	1387	242.2	154.8	129.0	112.1	100.4	96.07	92.02	91.06	92.24	93.49	95.32	98.77	100.8	107.2	111.5	116.5	122.9	124.6	123.0	115.5	106.5	97.39	87.13	77.91	68.91	61.49	54.78	47.81	42.10	37.27	33.28	29.69	27.17	24.34	22.21	20.83	20.28	17.48	14.07	11.73	10.69	10.34	10.38	10.60	9.972	8.495	6.429	4.867	4.086	3.874	4.246	9.812	46.30	165.3	287.3	134.6	12.13	1.077	0.969	0.863	0.782	0.782	0.650	0.788	0.618
555.0	18.51	36.18	68.99	115.4	157.2	195.3	268.2	283.0	244.3	252.0	473.1	1632	611.0	127.5	104.6	90.38	82.56	77.83	76.43	73.04	73.06	74.27	76.15	79.50	81.77	85.31	89.31	93.68	98.20	101.5	98.08	92.41	86.86	79.45	71.16	63.44	56.69	50.76	45.00	39.41	34.76	31.03	27.90	24.65	22.61	20.98	18.65	16.89	16.09	15.38	13.53	11.01	9.529	9.092	8.683	9.055	8.445	7.413	5.906	4.694	3.463	3.123	2.825	3.842	11.72	38.26	87.09	293.6	186.4	13.73	0.934	0.724	0.727	0.702	0.692	0.528	0.555
560.0	21.54	38.60	76.54	104.5	143.5	163.1	215.8	280.9	223.9	222.1	260.1	1041	1240	142.8	93.49	75.70	68.88	63.87	63.14	62.49	59.79	62.65	64.00	65.67	68.87	70.79	74.55	77.82	81.92	83.20	81.93	77.74	74.01	65.10	60.19	53.40	47.71	43.11	38.19	33.78	30.03	26.63	23.64	21.11	19.97	17.89	16.35	14.51	13.24	13.24	12.70	10.24	8.766	8.279	8.033	7.848	7.501	6.284	5.518	4.569	3.286	2.740	2.323	2.624	4.162	9.739	20.85	115.9	263.2	128.8	6.386	0.786	0.670	0.666	0.523	0.447	0.491
565.0	26.92	48.14	93.80	108.1	128.5	149.5	173.7	261.4	221.9	210.1	215.6	480.3	1602	297.0	81.04	66.19	59.15	55.12	54.14	53.00	52.03	53.01	54.65	55.10	57.67	60.19	61.86	65.49	69.05	70.12	69.73	66.17	61.79	55.92	50.39	45.60	40.68	36.65	32.54	29.18	26.33	23.31	20.63	18.54	17.14	15.89	13.63	12.48	11.29	10.72	10.93	9.999	8.347	7.304	6.966	6.711	6.691	5.477	4.927	4.280	3.271	2.433	2.216	2.234	2.376	3.536	5.897	28.10	117.6	239.9	33.11	2.193	0.659	0.580	0.509	0.437	0.406
570.0	36.76	71.64	126.4	138.3	130.6	136.7	152.4	223.5	249.0	224.3	237.3	287.8	1017	943.1	94.84	54.00	48.33	44.58	42.93	42.42	41.41	42.87	43.44	44.50	46.10	48.16	50.45	52.80	55.64	56.20	55.42	52.99	49.65	44.86	40.77	36.68	32.89	29.45	26.81	23.83	21.52	19.14	16.97	15.79	14.07	12.71	11.64	10.67	9.465	8.919	8.473	8.804	7.771	6.735	6.030	5.594	5.450	4.605	4.121	3.685	3.272	2.614	2.149	2.131	2.012	2.129	2.679	7.568	28.45	99.34	155.1	88.06	9.361	0.577	0.470	0.438	0.402
575.0	45.21	94.73	176.3	172.5	144.3	131.4	141.0	184.4	273.4	267.2	284.4	281.1	428.9	1226	342.1	43.71	39.40	35.81	33.54	33.49	33.63	32.89	34.47	35.71	36.45	36.74	39.40	40.71	42.70	43.64	43.76	41.71	38.28	36.34	32.26	29.32	27.06	23.08	21.25	19.00	17.32	15.80	13.83	12.70	11.64	10.97	10.19	8.978	8.121	7.727	6.805	6.910	6.896	6.615	5.282	4.895	4.390	4.136	3.737	3.261	2.966	3.133	2.405	2.263	2.177	1.929	2.015	3.034	7.650	23.58	47.99	148.1	110.8	8.809	0.527	0.462	0.402
580.0	57.82	122.3	211.1	205.5	151.3	130.4	134.2	169.3	272.6	306.7	314.7	301.2	281.0	808.1	802.5	50.53	33.45	30.95	27.55	28.28	28.13	28.65	28.87	29.65	29.87	31.03	33.02	34.26	35.52	37.16	36.67	35.02	32.20	29.41	27.11	25.22	21.91	19.88	18.02	16.10	15.27	13.28	11.61	10.88	10.15	9.374	8.757	8.023	7.006	6.617	5.699	5.584	5.994	6.035	4.942	4.308	4.105	3.709	3.152	2.993	2.799	2.793	2.646	2.261	2.209	2.194	1.988	1.924	3.219	6.480	11.86	56.53	161.4	34.90	3.527	0.441	0.348
585.0	52.05	134.9	235.2	240.4	161.8	126.7	132.1	166.5	245.7	335.4	335.1	325.8	262.8	369.6	1092	106.0	28.11	25.82	23.64	24.16	23.94	24.41	24.23	24.70	25.79	27.31	27.61	29.11	29.59	30.99	31.75	29.54	26.69	24.81	22.90	21.14	18.51	17.34	15.76	13.66	12.60	11.07	10.27	9.572	9.011	7.689	7.466	6.798	6.160	5.931	5.232	4.934	5.084	5.324	4.904	4.273	3.984	3.446	3.086	2.585	2.603	2.581	2.643	2.609	2.262	2.172	1.973	1.849	2.298	3.022	3.810	14.11	72.50	135.8	29.89	1.453	0.381
590.0	57.03	152.0	261.6	259.9	174.5	131.7	125.8	164.5	226.3	346.2	368.6	343.8	271.0	192.9	667.5	551.4	36.82	21.38	19.75	19.68	19.60	19.40	19.40	19.92	20.10	21.11	22.15	23.06	24.03	25.31	24.79	23.21	21.40	20.10	18.47	17.12	15.10	14.16	12.69	11.02	10.37	9.180	8.580	7.897	7.077	6.583	6.304	5.831	5.459	5.181	4.704	4.320	3.912	4.196	4.351	4.070	3.455	3.110	2.587	2.455	2.457	2.347	2.543	2.608	2.455	2.383	2.061	2.052	2.054	2.120	1.944	4.030	17.57	57.62	96.29	56.19	6.525
595.0	60.92	163.7	279.1	291.3	183.3	129.8	120.8	157.1	215.7	313.9	389.7	349.0	276.6	151.1	209.9	753.4	99.87	17.22	16.11	15.12	15.36	15.57	15.38	15.59	15.72	16.17	17.82	18.15	18.85	18.87	19.08	17.80	17.08	16.18	14.81	12.77	11.81	11.16	10.28	9.045	8.367	6.882	6.850	6.074	5.523	5.256	5.014	4.888	4.687	4.166	4.020	3.750	3.349	3.241	3.652	3.552	3.237	2.773	2.458	2.107	2.284	2.131	2.145	2.189	2.506	2.719	2.282	2.291	2.014	2.053	1.542	1.867	4.663	13.36	29.14	87.19	36.35
600.0	63.15	159.4	268.9	271.8	183.9	134.9	117.7	145.5	198.2	286.0	390.3	350.1	274.3	139.2	84.03	492.5	431.8	20.46	13.21	12.79	12.94	13.19	12.83	13.55	13.50	13.61	14.52	14.46	15.84	15.47	15.57	14.90	14.15	13.33	12.08	10.89	9.775	9.168	8.270	7.214	6.739	6.216	5.510	5.356	5.122	4.422	4.639	4.091	4.149	3.831	3.512	3.574	2.956	2.857	2.803	3.237	2.970	2.708	2.282	1.922	2.265	1.856	2.123	2.194	2.327	2.695	2.345	2.179	2.105	1.960	1.500	1.374	1.708	3.600	7.015	32.93	86.62
605.0	54.06	143.8	265.5	259.5	180.4	128.4	116.2	138.6	190.0	265.9	369.0	354.0	269.9	138.1	54.69	193.9	639.9	61.37	11.76	11.21	10.59	10.58	10.56	10.63	11.74	11.32	12.20	12.27	13.35	13.99	13.42	12.82	12.34	10.99	10.20	9.024	8.428	7.853	6.990	6.467	5.493	5.481	4.744	4.599	4.119	3.923	3.821	3.810	3.709	3.521	3.270	3.171	2.774	2.638	2.509	2.662	2.870	2.648	2.157	1.983	1.952	1.868	1.925	1.991	2.097	2.687	2.368	2.071	1.875	1.816	1.304	1.167	0.897	1.321	2.027	8.035	39.35
610.0	49.35	140.2	241.6	257.7	171.9	121.5	106.8	126.7	178.2	241.6	322.9	351.7	252.2	129.9	49.01	63.53	414.7	328.0	16.20	8.942	8.558	8.734	8.731	8.974	8.984	8.837	9.581	9.571	10.47	10.88	10.77	9.928	9.748	8.712	7.977	7.410	6.902	6.106	5.533	5.106	4.696	4.309	3.844	3.644	3.316	3.199	3.207	2.986	3.058	2.771	2.681	2.503	2.339	2.174	2.201	2.163	2.207	2.361	2.024	1.726	1.636	1.642	1.745	1.945	2.007	2.067	2.154	1.994	1.808	1.647	1.269	0.946	0.796	0.726	0.797	2.097	9.311
615.0	46.43	112.0	223.1	228.0	161.6	114.6	96.61	119.1	161.4	220.7	279.9	317.3	245.5	123.4	46.07	30.85	123.1	491.9	71.21	7.540	6.903	7.055	6.874	7.284	7.019	6.728	7.206	7.693	7.808	8.479	8.463	7.841	7.189	6.569	6.099	5.557	5.182	4.930	4.301	3.790	3.777	3.448	3.056	2.849	2.537	2.440	2.448	2.404	2.462	2.283	2.240	2.030	2.000	1.671	1.826	1.653	1.825	1.999	1.860	1.652	1.473	1.400	1.602	1.621	1.746	1.797	1.921	1.965	1.877	1.470	1.266	0.892	0.677	0.559	0.475	0.728	2.325
620.0	44.16	110.1	210.3	213.2	155.4	106.0	92.06	106.7	145.5	204.8	257.7	283.8	237.0	115.6	44.61	22.58	38.60	341.9	279.3	8.665	5.982	6.010	5.895	5.326	5.556	5.835	5.521	5.916	6.574	6.669	6.449	6.259	5.928	5.675	5.172	4.732	4.370	3.860	3.640	3.055	2.950	2.724	2.252	2.482	2.084	2.212	2.142	1.926	1.964	1.991	1.827	1.789	1.657	1.557	1.586	1.487	1.467	1.376	1.621	1.606	1.474	1.363	1.317	1.307	1.645	1.495	1.542	1.457	1.809	1.380	1.248	0.815	0.577	0.438	0.345	0.385	0.728
625.0	37.60	96.72	190.1	198.5	149.7	99.91	87.24	106.1	137.0	184.3	235.0	250.4	230.2	113.9	43.56	20.46	18.48	137.9	437.5	30.51	5.178	5.040	4.583	4.269	4.784	5.000	5.020	5.051	5.202	5.236	5.462	5.183	4.691	4.505	4.207	4.070	3.315	3.504	3.161	2.642	2.355	2.285	2.053	2.070	1.952	1.839	1.832	1.885	1.708	1.793	1.655	1.717	1.422	1.319	1.270	1.197	1.222	1.066	1.490	1.264	1.217	1.251	1.255	1.275	1.370	1.333	1.406	1.350	1.501	1.357	1.084	0.783	0.618	0.472	0.321	0.306	0.372
630.0	34.83	87.40	170.6	183.2	129.5	91.92	77.96	89.68	119.1	163.0	203.6	215.9	198.4	114.6	41.36	19.47	13.29	39.56	306.6	181.3	7.477	3.996	3.628	3.613	3.627	3.813	3.922	3.918	4.225	4.199	4.140	4.047	3.880	3.554	3.222	3.186	2.773	2.620	2.383	1.958	1.835	1.875	1.748	1.654	1.373	1.410	1.393	1.438	1.479	1.273	1.348	1.429	1.205	1.132	1.015	1.011	1.001	0.894	0.992	1.016	1.117	1.080	1.020	1.123	1.137	1.134	1.251	1.208	1.211	1.117	1.060	0.709	0.540	0.368	0.288	0.300	0.296
635.0	26.76	67.37	153.8	155.1	116.9	78.76	71.30	81.12	104.4	144.3	176.3	182.0	163.0	115.3	42.84	19.46	11.71	14.61	90.93	349.2	48.86	3.230	3.056	2.927	2.977	3.126	3.174	3.155	3.364	3.136	3.181	2.945	2.795	2.627	2.470	2.322	2.157	1.881	1.690	1.454	1.518	1.525	1.199	1.226	1.077	1.129	1.106	1.127	1.028	1.085	1.064	1.130	1.008	0.916	0.793	0.765	0.780	0.827	0.801	0.761	1.039	1.002	0.932	0.939	0.928	0.945	1.089	1.034	0.931	0.928	0.896	0.675	0.589	0.374	0.205	0.262	0.219
640.0	18.63	65.41	133.7	137.5	102.9	75.04	64.29	71.36	94.20	126.5	158.9	160.5	142.4	105.7	45.63	19.01	12.39	9.494	25.38	262.1	180.3	3.924	2.581	2.361	2.449	2.431	2.537	2.457	2.435	2.785	2.578	2.503	2.377	2.323	2.058	1.742	1.529	1.603	1.467	1.276	1.313	1.072	0.943	0.908	0.815	0.924	0.939	0.982	0.833	0.898	0.919	0.987	0.860	0.779	0.795	0.566	0.685	0.619	0.650	0.759	0.806	0.988	0.940	0.874	0.966	0.833	0.994	0.924	0.782	0.895	0.739	0.674	0.600	0.327	0.247	0.183	0.166
645.0	20.66	62.38	110.3	119.7	95.06	69.04	60.98	67.91	87.81	115.5	137.4	144.7	125.3	92.72	52.13	21.25	12.28	8.409	9.801	114.3	305.1	17.71	2.459	2.354	1.959	1.907	2.063	2.268	2.047	2.138	2.199	2.273	2.195	2.072	1.653	1.582	1.352	1.303	1.149	1.087	0.917	0.932	0.895	0.805	0.674	0.714	0.704	0.803	0.677	0.795	0.809	0.947	0.803	0.727	0.732	0.576	0.614	0.537	0.558	0.689	0.658	0.782	0.771	0.847	0.842	0.754	0.838	0.724	0.707	0.763	0.645	0.551	0.560	0.378	0.240	0.232	0.162
650.0	22.37	45.26	98.10	111.8	90.59	64.01	55.21	59.15	84.50	104.0	126.0	131.3	113.4	81.37	55.83	22.73	12.86	7.869	6.287	33.68	296.2	63.18	2.217	1.789	1.887	1.912	1.865	1.849	1.671	1.945	1.839	1.821	1.728	1.656	1.318	1.388	1.227	1.168	1.083	0.923	0.720	0.689	0.661	0.641	0.665	0.673	0.653	0.653	0.594	0.685	0.742	0.707	0.689	0.627	0.617	0.474	0.538	0.559	0.472	0.543	0.549	0.712	0.665	0.815	0.811	0.630	0.742	0.656	0.655	0.705	0.637	0.516	0.459	0.412	0.264	0.248	0.164
