Sample:	'1
File name:	Default_20230129_154011.FD3
Run date:	'15:33:49, 01/29/2023
Operator:	dsjg
Comment:	'

Instrument
Model:	F-2700 FL Spectrophotometer
Serial number:	2198-001
ROM Version:	4J14000 07

Instrument parameters
Measurement type:	3-D scan
Data mode:	Fluorescence
EX  Start WL:	220.0 nm
EX  End WL:	600.0 nm
EX Sampling interval:	5.0 nm
EM  Start WL:	230.0 nm
EM  End WL:	650.0 nm
EM Sampling interval:	5.0 nm
Scan speed:	12000 nm/min
EX Slit:	5.0 nm
EM Slit:	5.0 nm
PMT Voltage:	700 V
Response:	Auto 
Corrected spectra:	Off
Contour interval:	50.000

Peak integration
Integration method:	Rectangular
Sensitivity:	1
Threshold:	1.000

Peaks
No.	ApexEX/EM(nm)	Height(Data)
1	225.0/610.0	16.51
2	230.0/345.0	 1552
3	230.0/615.0	17.09
4	240.0/265.0	153.8
5	245.0/270.0	141.9
6	250.0/450.0	973.9
7	255.0/280.0	192.2
8	265.0/400.0	852.4
9	265.0/410.0	853.4
10	265.0/580.0	52.86
11	270.0/595.0	45.24
12	275.0/610.0	53.19
13	280.0/340.0	 1107
14	280.0/620.0	49.64
15	475.0/350.0	5.379
16	500.0/435.0	4.288
17	505.0/450.0	4.425
18	510.0/455.0	4.443
19	560.0/345.0	5.288
20	565.0/340.0	5.325

Data points
	220.0	225.0	230.0	235.0	240.0	245.0	250.0	255.0	260.0	265.0	270.0	275.0	280.0	285.0	290.0	295.0	300.0	305.0	310.0	315.0	320.0	325.0	330.0	335.0	340.0	345.0	350.0	355.0	360.0	365.0	370.0	375.0	380.0	385.0	390.0	395.0	400.0	405.0	410.0	415.0	420.0	425.0	430.0	435.0	440.0	445.0	450.0	455.0	460.0	465.0	470.0	475.0	480.0	485.0	490.0	495.0	500.0	505.0	510.0	515.0	520.0	525.0	530.0	535.0	540.0	545.0	550.0	555.0	560.0	565.0	570.0	575.0	580.0	585.0	590.0	595.0	600.0
230.0	23.60	435.4	743.3	143.9	3.834	1.972	1.450	1.331	1.372	1.296	1.112	1.059	1.005	0.872	0.754	0.734	0.584	0.566	0.503	0.499	0.434	0.382	0.419	0.372	0.388	0.341	0.269	0.298	0.243	0.245	0.238	0.226	0.172	0.164	0.193	0.249	0.260	0.221	0.199	0.200	0.205	0.157	0.185	0.134	0.129	0.124	0.252	1.193	2.844	2.814	1.208	0.224	0.094	0.061	0.072	0.077	0.059	0.060	0.057	0.045	0.036	0.027	0.034	0.038	0.026	0.021	0.028	0.017	0.018	0.007	0.027	0.021	0.014	0.007	0.016	0.015	0.009
235.0	18.11	142.3	709.1	952.3	214.9	4.672	1.732	1.622	1.086	1.452	1.419	1.400	1.025	0.936	0.851	0.833	0.610	0.538	0.501	0.507	0.446	0.407	0.374	0.448	0.355	0.423	0.323	0.308	0.313	0.235	0.289	0.223	0.167	0.174	0.221	0.165	0.288	0.264	0.256	0.192	0.183	0.160	0.164	0.174	0.199	0.143	0.176	0.391	1.014	2.139	3.468	4.262	2.241	0.346	0.081	0.053	0.044	0.057	0.053	0.037	0.052	0.042	0.026	0.042	0.034	0.035	0.022	0.016	0.025	0.012	0.039	0.016	0.015	0.018	0.008	0.006	0.013
240.0	36.08	47.90	280.7	 1100	 1028	136.7	3.178	2.128	1.439	1.770	1.280	1.477	1.069	1.079	0.869	0.865	0.736	0.563	0.534	0.431	0.451	0.460	0.385	0.468	0.436	0.405	0.315	0.326	0.287	0.219	0.217	0.285	0.170	0.101	0.158	0.141	0.206	0.272	0.289	0.180	0.150	0.191	0.123	0.177	0.223	0.307	0.202	0.206	0.347	0.673	1.757	4.505	6.330	4.394	1.496	0.174	0.035	0.070	0.052	0.035	0.036	0.035	0.034	0.033	0.047	0.028	0.020	0.009	0.039	0.020	0.029	0.018	0.008	0.032	0.011	0.010	0.008
245.0	38.66	56.46	78.37	492.6	 1457	446.5	80.66	2.536	1.789	1.779	1.391	1.520	1.138	0.993	0.811	0.872	0.710	0.642	0.764	0.479	0.482	0.446	0.331	0.446	0.381	0.396	0.361	0.287	0.353	0.302	0.239	0.220	0.209	0.148	0.141	0.139	0.186	0.201	0.243	0.242	0.177	0.174	0.152	0.196	0.212	0.258	0.302	0.320	0.155	0.247	0.495	1.514	3.932	7.014	7.251	3.730	1.020	0.115	0.042	0.048	0.048	0.027	0.031	0.034	0.054	0.030	0.029	0.010	0.026	0.018	0.017	0.026	0.004	0.025	0.009	0.018	0.018
250.0	17.05	64.03	84.47	138.3	575.6	 1230	 1047	163.0	11.13	2.394	1.927	1.766	1.372	1.276	1.009	0.893	0.649	0.656	0.534	0.527	0.481	0.462	0.372	0.438	0.372	0.433	0.292	0.289	0.312	0.283	0.271	0.269	0.176	0.177	0.151	0.145	0.167	0.154	0.184	0.222	0.218	0.205	0.193	0.157	0.149	0.186	0.216	0.338	0.378	0.412	0.328	0.444	1.033	2.289	4.138	6.120	7.399	6.306	3.447	1.003	0.107	0.040	0.041	0.047	0.043	0.037	0.039	0.025	0.022	0.027	0.020	0.018	0.014	0.015	0.011	0.010	0.021
255.0	5.564	23.00	92.58	125.3	151.4	377.1	 1306	 1813	221.0	9.748	2.817	2.349	1.717	1.539	1.228	0.845	0.774	0.896	0.647	0.543	0.459	0.495	0.463	0.505	0.374	0.366	0.347	0.366	0.287	0.335	0.254	0.281	0.186	0.175	0.195	0.155	0.177	0.121	0.130	0.153	0.223	0.232	0.171	0.136	0.174	0.161	0.170	0.151	0.225	0.400	0.588	0.611	0.501	0.641	1.019	1.562	2.933	6.327	10.91	10.95	5.223	1.023	0.079	0.042	0.066	0.057	0.042	0.021	0.023	0.041	0.038	0.034	0.024	0.015	0.021	0.008	0.036
260.0	4.111	8.122	44.61	136.0	115.4	99.25	483.2	 1830	 1791	172.2	5.758	2.698	2.065	1.939	1.406	1.187	1.022	0.818	0.768	0.642	0.548	0.536	0.385	0.446	0.412	0.458	0.302	0.330	0.400	0.317	0.321	0.279	0.172	0.187	0.188	0.115	0.111	0.142	0.117	0.096	0.212	0.221	0.191	0.171	0.166	0.155	0.163	0.171	0.173	0.198	0.396	0.700	0.743	0.466	0.354	0.421	0.747	1.775	4.827	9.984	13.29	9.976	3.856	0.420	0.066	0.077	0.051	0.026	0.032	0.044	0.048	0.016	0.025	0.011	0.038	0.031	0.023
265.0	3.454	3.630	16.02	80.20	153.8	75.55	122.4	753.2	 2256	 1544	130.0	4.169	2.216	2.146	1.355	1.415	1.006	0.809	0.715	0.617	0.596	0.642	0.525	0.423	0.416	0.402	0.407	0.310	0.432	0.288	0.332	0.293	0.179	0.194	0.194	0.149	0.125	0.131	0.095	0.114	0.131	0.169	0.216	0.216	0.175	0.143	0.176	0.171	0.141	0.136	0.182	0.309	0.641	0.852	0.693	0.356	0.275	0.488	1.204	3.090	7.603	13.40	15.04	8.421	1.958	0.174	0.053	0.033	0.030	0.061	0.032	0.026	0.031	0.025	0.033	0.017	0.015
270.0	7.664	9.787	11.71	26.37	89.01	141.9	97.69	191.2	812.3	 1907	 1976	599.2	27.77	2.799	1.798	1.635	1.301	0.990	0.904	0.736	0.673	0.608	0.545	0.495	0.534	0.415	0.369	0.371	0.339	0.354	0.315	0.269	0.234	0.253	0.189	0.162	0.186	0.138	0.131	0.124	0.123	0.104	0.181	0.200	0.200	0.191	0.162	0.180	0.151	0.133	0.146	0.152	0.269	0.439	0.677	0.762	0.714	0.498	0.426	0.808	1.903	4.121	7.678	11.23	12.85	11.22	6.353	1.796	0.138	0.052	0.032	0.032	0.039	0.018	0.026	0.030	0.032
275.0	17.78	24.73	25.87	20.35	30.10	87.19	167.4	132.0	204.0	526.6	 1622	 2818	852.2	23.04	2.824	2.101	1.669	1.190	0.946	0.877	0.660	0.672	0.657	0.497	0.517	0.495	0.406	0.417	0.411	0.375	0.239	0.202	0.281	0.251	0.186	0.142	0.168	0.154	0.124	0.136	0.130	0.127	0.124	0.172	0.222	0.220	0.254	0.259	0.208	0.209	0.177	0.175	0.193	0.230	0.249	0.400	0.708	0.953	0.957	0.579	0.615	1.040	1.873	2.725	4.286	8.837	15.30	16.37	8.535	1.600	0.070	0.062	0.066	0.032	0.047	0.023	0.015
280.0	36.59	51.17	42.77	27.17	19.70	37.66	132.0	192.2	114.9	154.2	544.6	 2146	 2831	124.1	9.025	2.726	1.974	1.450	1.203	1.105	0.854	0.767	0.593	0.551	0.487	0.438	0.576	0.345	0.336	0.346	0.284	0.208	0.310	0.208	0.208	0.190	0.217	0.175	0.127	0.150	0.136	0.143	0.124	0.148	0.216	0.304	0.302	0.369	0.326	0.282	0.229	0.208	0.166	0.168	0.205	0.167	0.367	0.677	1.250	1.113	0.678	0.468	0.662	0.818	1.170	2.456	6.016	12.61	18.60	14.72	5.439	0.442	0.064	0.057	0.030	0.023	0.031
285.0	56.64	75.67	60.21	36.09	21.99	24.53	72.35	188.4	189.7	103.1	185.0	779.9	 2424	 2455	97.23	4.166	2.720	1.723	1.216	0.995	1.014	0.783	0.624	0.727	0.606	0.563	0.476	0.450	0.371	0.339	0.304	0.282	0.372	0.262	0.263	0.231	0.182	0.173	0.145	0.188	0.182	0.127	0.135	0.154	0.247	0.341	0.408	0.439	0.398	0.349	0.243	0.270	0.180	0.170	0.193	0.221	0.231	0.314	0.704	1.046	1.338	0.961	0.546	0.454	0.546	0.875	1.707	3.858	8.923	15.89	18.96	11.03	2.203	0.108	0.052	0.045	0.053
290.0	74.12	106.9	89.65	56.73	37.55	34.24	51.84	113.8	217.4	235.6	172.1	280.4	829.9	 1870	 2207	383.5	22.16	2.559	1.772	1.338	1.213	0.988	0.735	0.759	0.732	0.550	0.619	0.471	0.414	0.339	0.400	0.311	0.341	0.223	0.259	0.254	0.243	0.211	0.159	0.192	0.160	0.174	0.152	0.194	0.247	0.327	0.455	0.480	0.463	0.410	0.353	0.331	0.273	0.270	0.261	0.249	0.253	0.300	0.409	0.598	0.918	1.260	1.347	1.177	0.865	0.713	0.886	1.358	2.509	4.803	8.502	12.60	14.16	12.49	6.590	1.451	0.099
295.0	95.64	138.7	126.7	83.92	61.32	59.16	73.14	105.4	175.4	312.7	357.3	251.6	315.1	547.0	 1258	 2584	584.8	23.20	3.113	1.705	1.226	1.218	0.937	0.798	0.665	0.691	0.599	0.466	0.521	0.338	0.311	0.291	0.346	0.279	0.255	0.295	0.305	0.232	0.161	0.212	0.209	0.201	0.142	0.212	0.252	0.283	0.417	0.621	0.662	0.493	0.495	0.465	0.365	0.324	0.345	0.278	0.345	0.419	0.453	0.595	0.749	0.840	1.158	1.720	2.259	1.615	1.080	1.105	1.330	1.807	2.402	3.341	4.645	9.220	17.39	18.12	7.955
300.0	109.7	180.7	158.4	116.4	93.78	96.53	122.1	162.6	220.3	349.7	515.6	446.6	325.6	296.7	477.7	 1673	 2790	447.2	11.29	2.479	1.706	1.306	1.093	0.885	0.825	0.779	0.637	0.557	0.491	0.456	0.435	0.328	0.354	0.336	0.256	0.261	0.290	0.256	0.219	0.256	0.220	0.199	0.215	0.264	0.330	0.372	0.451	0.613	0.664	0.625	0.522	0.552	0.510	0.466	0.482	0.476	0.565	0.689	0.712	0.837	1.007	1.211	1.449	1.763	2.230	2.840	2.609	1.914	1.633	1.538	1.486	1.528	1.778	2.951	7.079	14.11	20.22
305.0	134.6	199.1	207.8	160.6	136.4	154.6	196.5	264.2	346.0	469.3	651.5	750.0	552.8	389.9	353.4	687.7	 2162	 2658	65.06	4.829	2.325	1.544	1.205	1.134	0.809	0.887	0.688	0.707	0.551	0.483	0.519	0.325	0.322	0.399	0.284	0.274	0.332	0.290	0.279	0.319	0.255	0.194	0.252	0.278	0.367	0.398	0.551	0.710	0.788	0.728	0.731	0.778	0.721	0.670	0.762	0.764	0.765	1.058	1.086	1.250	1.414	1.832	2.024	2.378	2.633	3.077	3.810	3.378	2.900	2.361	2.039	1.924	1.679	1.781	2.723	4.879	10.67
310.0	153.5	236.1	253.1	209.3	190.6	211.5	269.8	337.0	433.7	561.4	688.8	815.1	804.5	559.0	410.8	388.7	817.2	 1817	 2170	800.9	17.10	2.352	1.698	1.336	1.089	0.967	0.813	0.681	0.655	0.545	0.555	0.463	0.411	0.400	0.360	0.315	0.339	0.312	0.250	0.256	0.252	0.227	0.276	0.279	0.385	0.489	0.643	0.826	0.912	0.881	0.849	0.898	0.889	0.904	0.935	0.980	1.105	1.374	1.437	1.602	1.882	2.170	2.401	2.697	2.971	3.294	3.609	3.925	4.167	3.664	3.070	2.515	2.210	2.037	2.022	2.220	3.701
315.0	181.8	295.1	309.5	258.9	241.0	262.0	327.8	404.4	495.2	629.8	741.2	827.8	857.2	790.7	539.9	379.1	433.7	585.6	 1106	 2624	441.5	17.37	2.544	1.771	1.375	1.148	0.957	0.782	0.592	0.637	0.637	0.493	0.401	0.411	0.381	0.376	0.386	0.341	0.280	0.269	0.256	0.295	0.306	0.365	0.386	0.630	0.759	1.006	1.034	0.993	0.986	1.133	1.064	1.028	1.099	1.137	1.409	1.630	1.729	1.795	2.245	2.325	2.669	2.966	3.327	3.632	3.472	4.163	3.892	4.126	4.166	3.664	3.137	2.624	2.073	1.933	2.318
320.0	220.3	377.1	396.6	326.3	279.8	293.9	378.7	446.6	537.6	672.0	791.9	886.7	882.4	861.3	707.5	438.9	381.8	312.4	357.3	 1493	 2544	334.6	7.107	2.496	1.507	1.232	0.981	0.832	0.717	0.640	0.675	0.512	0.497	0.413	0.395	0.370	0.360	0.317	0.335	0.318	0.248	0.374	0.369	0.354	0.535	0.781	0.968	1.277	1.303	1.194	1.217	1.338	1.250	1.182	1.279	1.288	1.632	1.691	2.037	1.885	2.251	2.763	3.059	3.262	3.336	3.796	3.845	4.168	4.205	4.237	4.160	4.541	4.301	3.297	2.554	2.116	2.149
325.0	291.9	544.0	611.1	486.8	344.6	334.6	406.8	487.0	573.9	714.0	836.2	939.3	925.4	859.6	815.6	553.8	401.0	273.8	165.8	468.4	 1881	 2337	51.36	4.268	2.069	1.755	1.164	0.950	0.770	0.650	0.739	0.583	0.584	0.350	0.365	0.415	0.375	0.319	0.413	0.327	0.274	0.302	0.351	0.385	0.672	0.911	1.282	1.982	2.027	1.963	1.814	1.850	1.607	1.438	1.333	1.544	1.725	1.824	2.213	2.336	2.521	2.681	3.156	3.281	3.691	3.820	4.074	4.236	4.255	4.261	4.267	4.383	4.544	4.258	3.223	2.616	2.162
330.0	403.8	802.8	989.5	810.3	513.9	414.5	446.0	529.1	615.2	757.8	891.3	 1006	 1001	915.4	827.4	699.3	516.1	311.8	171.5	190.2	567.2	 1602	 1999	724.1	15.08	2.346	1.637	1.168	1.053	0.839	0.741	0.679	0.593	0.454	0.437	0.427	0.404	0.410	0.346	0.334	0.356	0.365	0.436	0.529	0.782	1.174	1.684	2.462	3.097	3.231	3.102	2.946	2.427	2.085	1.862	1.756	1.920	2.028	2.373	2.362	2.699	3.049	3.401	3.650	3.995	4.357	4.234	4.575	4.639	4.665	4.609	4.478	4.413	4.084	4.050	3.657	2.977
335.0	494.9	991.8	 1320	 1130	747.4	521.9	509.6	569.2	661.3	802.5	936.4	 1061	 1074	986.6	873.5	722.6	662.5	423.5	230.0	174.4	222.9	447.3	 1066	 2587	368.7	15.39	2.297	1.532	1.248	0.954	0.840	0.677	0.604	0.573	0.452	0.454	0.477	0.389	0.338	0.387	0.376	0.427	0.467	0.599	0.908	1.373	2.075	2.978	3.735	4.091	4.142	4.100	3.369	3.037	2.270	2.135	2.412	2.278	2.522	2.586	2.801	3.169	3.571	3.816	4.036	4.405	4.470	4.989	4.980	5.069	4.888	4.686	4.754	4.088	4.059	3.860	3.928
340.0	548.2	 1086	 1489	 1313	861.6	593.4	544.8	594.7	688.6	817.6	966.7	 1081	 1107	 1028	904.3	730.2	654.7	531.0	294.1	200.9	171.2	195.3	338.3	 1549	 2494	295.6	6.343	2.157	1.557	1.212	0.867	0.866	0.660	0.532	0.453	0.430	0.406	0.390	0.357	0.411	0.361	0.464	0.414	0.807	0.921	1.446	2.104	3.430	4.137	4.735	4.505	4.844	4.143	3.545	2.677	2.317	2.482	2.560	2.641	2.798	3.050	3.248	3.636	4.149	4.268	4.484	4.660	4.963	5.105	5.325	5.197	5.007	4.930	4.516	4.008	3.925	3.751
345.0	562.5	 1125	 1552	 1369	928.4	628.9	563.3	618.3	698.7	818.9	966.5	 1074	 1094	 1037	919.3	737.4	618.2	553.5	387.5	236.0	180.6	159.1	156.4	480.8	 2038	 2123	44.83	3.428	1.874	1.429	1.037	0.915	0.672	0.591	0.572	0.491	0.440	0.417	0.379	0.400	0.380	0.416	0.504	0.688	0.916	1.452	2.304	3.538	4.513	4.759	4.780	5.018	4.394	3.711	2.864	2.471	2.458	2.796	2.766	2.983	3.077	3.480	3.555	3.827	4.296	4.459	4.682	4.826	5.288	5.154	5.210	5.220	4.888	4.514	4.021	3.754	3.525
350.0	527.4	 1085	 1510	 1408	991.5	664.4	593.7	626.3	690.7	809.2	932.8	 1025	 1052	 1008	902.7	741.8	616.2	519.3	456.4	343.1	231.8	186.7	147.7	182.7	598.6	 1584	 1861	605.1	13.36	2.066	1.444	1.033	0.789	0.591	0.565	0.540	0.477	0.393	0.469	0.391	0.403	0.448	0.514	0.620	0.960	1.493	2.168	3.383	4.427	4.673	4.646	5.379	4.550	3.900	3.235	2.622	2.654	2.624	2.775	3.040	3.117	3.340	3.572	3.953	4.203	4.259	4.567	4.618	4.984	4.954	5.064	5.047	4.725	4.490	4.050	3.861	3.540
355.0	484.8	 1009	 1443	 1366	 1018	712.2	622.1	651.9	695.3	789.1	898.5	979.3	 1012	976.8	886.5	744.2	627.3	523.2	449.9	435.8	338.0	238.4	184.8	150.5	202.8	408.0	 1019	 2305	328.7	14.81	2.266	1.371	0.968	0.733	0.684	0.617	0.427	0.364	0.446	0.424	0.370	0.441	0.508	0.573	0.839	1.470	2.173	3.110	4.052	4.193	4.623	5.108	4.677	4.070	3.489	2.838	2.782	2.763	2.946	3.015	3.072	3.486	3.694	3.884	4.100	4.141	4.413	4.385	4.825	4.774	4.970	4.942	4.835	4.289	4.202	3.868	3.688
360.0	460.8	950.7	 1309	 1298	 1006	734.8	651.7	662.7	706.6	784.8	883.4	952.2	982.5	949.9	869.4	742.6	631.0	539.7	459.7	436.3	420.9	304.4	224.4	169.2	137.3	152.5	298.9	 1445	 2191	263.5	5.856	1.857	1.310	1.011	0.595	0.603	0.455	0.506	0.484	0.436	0.428	0.409	0.496	0.594	0.865	1.434	1.979	2.911	3.850	4.165	4.192	5.014	4.446	3.989	3.517	2.952	2.835	2.962	2.892	3.149	3.080	3.451	3.688	3.818	3.819	3.903	4.366	4.439	4.719	4.475	4.870	4.787	4.704	4.430	4.080	3.717	3.681
365.0	433.6	865.1	 1233	 1238	993.8	743.8	665.7	676.2	718.8	780.0	868.5	930.6	956.5	933.1	853.8	742.7	647.1	559.5	489.5	437.8	444.1	388.8	268.9	204.6	152.7	118.4	123.5	441.2	 1856	 1879	41.56	3.051	1.506	1.224	0.752	0.609	0.498	0.495	0.418	0.530	0.381	0.417	0.471	0.538	0.889	1.289	1.826	2.698	3.493	3.799	3.943	4.794	4.375	3.952	3.283	3.114	2.748	2.901	2.965	3.018	3.176	3.313	3.408	3.729	3.757	4.361	4.139	4.141	4.591	4.600	4.619	4.653	4.544	4.264	4.008	3.869	3.675
370.0	396.8	767.5	 1117	 1148	975.2	772.9	692.5	703.1	725.3	784.9	851.2	904.5	915.0	891.0	827.3	736.4	662.5	592.3	530.2	477.8	448.2	443.6	375.6	266.1	195.6	144.3	112.1	158.1	551.3	 1477	 1712	519.7	11.16	1.605	1.014	0.739	0.588	0.528	0.473	0.468	0.413	0.434	0.483	0.549	0.800	1.241	1.609	2.541	3.045	3.439	3.625	4.471	4.171	3.933	3.412	3.148	3.086	3.022	3.040	3.196	3.208	3.396	3.570	3.718	3.774	4.082	4.046	4.162	4.337	4.459	4.281	4.524	4.549	4.154	4.123	4.103	3.875
375.0	350.3	710.8	993.9	 1068	954.2	782.9	721.3	726.2	748.5	799.6	846.1	880.3	890.6	868.0	809.6	735.9	681.7	622.1	576.6	526.7	489.0	456.7	442.8	374.8	260.1	192.6	146.3	125.9	187.3	382.6	979.5	 2065	279.8	11.43	1.550	0.997	0.715	0.546	0.480	0.478	0.442	0.459	0.516	0.603	0.862	1.172	1.579	2.348	2.692	3.016	3.327	4.110	4.160	3.816	3.525	3.216	3.158	3.233	3.011	3.431	3.228	3.589	3.617	3.852	3.912	3.949	3.917	4.063	4.120	4.189	4.114	4.389	4.338	4.240	3.997	4.003	3.922
380.0	331.0	669.6	933.0	 1016	932.4	808.7	749.7	749.9	773.0	810.7	858.8	875.1	874.8	845.2	793.8	737.0	689.6	644.2	605.4	563.2	519.1	483.3	454.7	441.2	330.6	234.6	182.0	143.5	125.8	141.3	284.5	 1330	 1845	213.9	4.014	1.337	0.930	0.786	0.543	0.504	0.459	0.528	0.559	0.532	0.780	1.102	1.455	2.141	2.618	2.949	3.133	3.971	3.906	3.769	3.458	3.250	3.514	3.455	3.208	3.530	3.231	3.402	3.701	3.694	3.859	3.841	3.910	3.989	4.210	4.158	4.032	4.154	4.469	4.204	3.999	4.123	3.956
385.0	324.3	637.2	880.9	963.3	927.4	811.6	769.4	774.0	789.6	814.2	857.8	860.9	865.2	838.2	788.9	733.7	699.8	659.1	625.0	587.2	554.3	511.0	466.9	453.6	402.7	285.7	219.4	170.5	133.4	103.7	112.1	407.2	 1602	 1475	33.09	2.263	1.239	0.866	0.650	0.534	0.492	0.483	0.602	0.561	0.776	1.082	1.405	2.024	2.583	2.792	2.902	3.766	3.713	3.807	3.472	3.307	3.478	3.194	3.437	3.596	3.474	3.416	3.625	3.666	3.710	4.248	4.051	3.974	4.413	4.227	4.286	4.237	4.393	3.973	4.007	4.092	3.878
390.0	316.7	599.1	829.2	928.1	918.1	832.7	797.9	794.5	794.1	825.3	851.9	843.1	844.7	816.0	777.8	726.1	700.7	668.7	647.0	614.5	585.9	542.7	501.7	463.0	432.6	370.1	279.2	211.3	165.5	123.8	95.68	140.4	471.2	 1193	 1281	138.9	9.190	1.239	0.825	0.645	0.603	0.513	0.558	0.648	0.774	1.063	1.334	1.899	2.498	2.627	2.898	3.652	3.629	3.774	3.563	3.513	3.496	3.544	3.638	3.640	3.576	3.669	3.847	3.686	3.806	3.967	3.876	4.023	3.984	4.096	4.010	4.341	4.139	3.929	4.169	3.957	4.115
395.0	304.6	562.9	778.7	893.5	899.1	839.9	810.3	806.6	813.5	841.6	850.5	840.2	827.9	799.0	761.2	721.0	698.9	678.7	659.0	639.6	613.3	575.5	534.6	491.2	442.9	414.0	362.5	268.7	209.1	157.8	119.5	100.5	148.4	300.8	751.0	 1520	232.1	8.117	1.157	0.794	0.703	0.535	0.638	0.678	0.823	1.011	1.315	1.799	2.246	2.583	2.727	3.603	3.441	3.701	3.632	3.549	3.654	3.602	3.708	3.865	3.927	3.765	3.830	3.885	3.911	3.756	3.662	3.868	3.918	4.148	4.064	4.016	3.960	3.960	4.151	3.979	4.024
400.0	289.8	539.5	754.7	866.8	888.6	853.0	820.2	825.2	833.0	852.4	847.3	826.5	813.1	785.5	749.8	715.0	694.5	678.3	663.4	643.2	621.1	592.8	553.2	510.4	461.2	422.4	403.1	326.6	247.2	188.9	143.8	107.6	88.59	101.8	211.6	 1018	 1404	178.3	3.115	1.154	0.871	0.690	0.667	0.594	0.764	1.027	1.399	1.711	2.129	2.297	2.803	3.369	3.506	3.546	3.730	3.485	3.735	3.797	3.753	3.840	3.734	3.795	3.887	3.950	3.876	3.549	3.743	3.788	3.735	3.966	4.045	3.992	4.088	3.877	4.082	4.097	4.153
405.0	292.1	508.4	735.6	845.9	891.1	858.4	841.3	839.0	836.3	844.1	842.1	818.2	804.9	773.3	738.1	711.0	687.9	675.6	662.4	644.4	626.2	597.8	566.0	527.6	482.1	432.7	408.5	376.4	288.4	218.2	167.8	124.5	88.33	66.29	75.70	303.4	 1197	 1131	28.02	1.925	1.142	0.794	0.718	0.623	0.738	1.001	1.314	1.795	2.011	2.422	2.672	3.275	3.392	3.610	3.667	3.548	3.861	3.828	3.808	3.931	3.739	3.819	4.062	3.984	3.887	3.619	3.807	3.444	3.832	3.909	3.830	4.008	3.957	3.849	3.940	4.005	3.953
410.0	276.0	500.5	711.9	823.0	863.4	857.6	853.0	844.5	844.9	853.4	834.0	800.4	780.3	755.2	719.7	684.5	667.1	656.6	648.3	635.6	617.4	595.1	567.8	538.3	496.7	449.9	412.5	386.8	348.0	266.3	200.5	150.6	107.5	74.97	55.55	93.56	340.4	894.9	988.0	125.8	7.445	1.137	0.946	0.775	0.806	1.070	1.209	1.787	2.082	2.302	2.521	3.227	3.514	3.627	3.522	3.588	3.757	3.795	3.756	3.949	3.837	3.879	4.057	3.901	3.799	3.699	3.601	3.579	3.708	3.697	3.717	3.787	3.970	3.699	3.842	3.700	3.927
415.0	270.3	500.2	671.3	795.5	847.9	850.1	851.4	851.8	833.6	837.5	815.7	774.5	755.9	724.2	691.3	658.2	644.2	634.1	624.1	617.2	601.9	582.8	564.6	535.8	501.1	460.0	422.5	386.1	360.9	320.9	238.5	177.2	130.5	91.35	63.49	56.34	98.77	221.1	587.3	 1133	197.7	7.059	1.258	0.958	0.911	1.065	1.262	1.674	2.226	2.148	2.341	3.146	3.469	3.684	3.386	3.766	3.750	3.785	3.866	3.979	3.744	3.788	3.913	3.990	3.743	3.729	3.587	3.541	3.538	3.875	3.769	3.717	3.715	3.453	3.755	3.649	3.897
420.0	269.7	473.7	660.5	786.3	828.1	843.1	860.4	859.8	829.3	828.5	808.2	763.4	732.5	705.4	672.7	637.1	622.4	610.9	605.5	596.3	586.5	567.6	549.2	525.4	496.7	463.6	427.3	392.1	361.4	340.2	279.5	199.9	146.4	105.8	74.85	54.87	50.50	68.37	160.1	756.6	 1064	154.9	2.888	1.146	1.022	1.103	1.326	1.885	2.085	2.218	2.331	2.994	3.251	3.505	3.251	3.657	3.691	3.861	4.012	3.792	3.951	3.683	3.772	3.761	3.698	3.526	3.497	3.483	3.625	3.474	3.349	3.681	3.594	3.808	3.623	3.529	3.682
425.0	262.0	458.7	648.3	763.5	833.2	859.5	870.4	860.1	822.7	818.6	796.7	750.3	718.7	686.3	653.1	616.5	603.4	594.6	588.5	582.9	566.2	552.5	539.0	518.0	494.6	464.9	433.0	396.3	361.6	335.4	307.2	227.9	161.6	119.0	85.73	62.57	46.01	38.22	51.33	222.3	918.3	880.3	26.57	1.784	1.212	1.284	1.439	1.764	2.122	2.115	2.302	2.883	3.183	3.349	3.438	3.638	3.843	3.790	3.966	3.784	3.963	4.004	3.893	3.713	3.625	3.552	3.518	3.410	3.315	3.537	3.460	3.612	3.365	3.609	3.619	3.495	3.704
430.0	255.3	444.1	630.6	746.7	819.4	871.8	895.8	883.7	838.0	809.3	780.4	737.1	694.8	669.5	627.0	596.6	581.1	573.8	567.7	558.0	547.0	531.4	519.0	504.2	485.6	461.8	431.2	403.9	371.6	337.8	310.0	264.0	193.4	138.1	103.0	75.09	55.08	39.48	32.78	64.48	263.3	701.6	771.0	117.0	6.999	1.522	1.346	1.729	2.075	2.064	2.273	2.893	3.166	3.451	3.489	3.713	3.918	3.988	3.966	3.861	4.002	3.951	3.868	3.684	3.559	3.599	3.386	3.347	3.363	3.400	3.440	3.372	3.484	3.352	3.460	3.392	3.410
435.0	261.2	439.0	611.0	747.5	828.5	890.1	926.0	920.1	855.8	804.4	760.4	715.2	673.8	640.7	608.7	576.1	559.7	553.8	545.2	533.5	519.4	504.3	498.7	489.5	471.6	453.4	432.2	408.4	383.7	345.7	309.6	273.9	231.3	164.3	120.6	91.61	68.62	48.59	35.64	34.20	72.58	170.9	456.1	949.2	185.1	5.891	1.753	1.913	2.051	2.089	2.315	2.958	3.151	3.547	3.778	3.712	4.288	4.043	4.099	3.874	3.990	4.032	3.852	3.579	3.613	3.371	3.378	3.101	3.210	3.231	3.161	3.200	3.175	3.106	3.218	3.257	3.334
440.0	288.0	431.7	613.7	740.9	831.4	910.6	955.4	937.7	857.2	798.6	750.3	694.8	660.3	626.0	591.2	559.3	542.7	540.5	529.0	517.7	503.2	486.5	478.4	474.9	458.8	445.4	426.1	407.1	386.0	351.4	317.2	270.0	242.0	191.7	135.4	102.9	78.74	56.63	41.06	31.50	32.46	49.97	125.2	679.0	905.6	28.08	2.683	1.980	2.092	2.146	2.295	2.999	3.014	3.567	3.735	3.773	4.028	4.172	4.282	4.213	4.091	3.988	3.989	3.758	3.629	3.326	3.173	3.047	3.287	3.020	3.225	3.127	3.094	3.150	3.138	3.117	3.341
445.0	330.3	422.6	593.0	727.4	829.9	916.0	967.0	940.8	858.8	790.2	729.4	684.5	642.8	608.1	573.5	544.5	527.8	525.0	512.1	499.5	482.4	464.0	461.6	454.5	445.2	433.7	416.9	402.0	383.5	355.3	321.0	272.4	237.7	206.8	154.0	110.5	86.10	63.52	47.41	34.22	27.21	24.93	37.99	209.6	854.2	677.7	21.28	2.538	2.127	2.064	2.256	3.013	3.217	3.621	3.596	3.814	4.105	4.330	4.417	4.292	4.146	4.035	3.667	3.725	3.446	3.323	3.172	3.009	3.140	2.961	3.029	3.074	3.113	3.187	2.915	3.252	3.156
450.0	369.2	481.9	564.5	710.0	826.9	915.8	973.9	947.1	850.2	764.2	702.8	663.1	614.6	583.5	548.6	518.0	504.2	496.7	487.7	471.7	452.0	432.8	427.4	425.7	418.5	412.3	398.2	387.3	373.5	348.8	317.2	273.6	232.7	203.8	174.0	128.7	95.93	71.40	54.59	40.75	30.37	23.47	21.80	56.42	250.1	628.1	504.8	101.3	6.423	2.218	2.275	2.925	3.122	3.568	3.690	3.922	4.121	4.425	4.393	4.281	4.079	3.820	3.654	3.512	3.181	3.156	3.055	3.015	2.999	2.884	2.813	2.880	2.938	3.018	2.928	3.045	3.039
455.0	289.7	605.8	588.2	682.5	799.6	895.5	954.7	928.7	827.3	727.2	664.0	625.2	577.7	546.3	510.9	489.6	476.0	463.7	461.8	437.1	415.9	394.0	387.5	390.5	387.4	382.7	375.1	366.6	356.5	337.4	308.1	270.1	230.6	196.3	171.4	147.3	108.2	78.28	61.26	46.29	35.58	26.50	20.83	24.24	64.71	153.2	379.7	793.8	149.0	5.115	2.409	2.839	3.195	3.464	3.530	3.939	4.215	4.345	4.443	4.328	3.880	3.838	3.448	3.387	2.985	2.934	2.866	2.840	2.852	2.778	2.744	2.709	2.635	2.805	2.813	2.924	2.879
460.0	227.5	632.9	692.1	655.0	773.1	871.6	943.6	907.8	798.2	694.7	632.5	589.1	549.8	512.0	484.7	461.9	448.3	434.1	429.5	411.1	386.4	364.4	361.0	360.5	362.3	358.4	352.6	348.2	340.6	324.2	299.4	264.8	228.0	192.3	163.9	147.2	118.5	83.93	63.71	50.85	38.21	30.19	22.77	18.72	24.55	41.85	104.4	556.3	709.7	21.08	3.195	2.878	2.942	3.275	3.459	3.672	4.199	4.212	4.081	3.988	3.756	3.826	3.132	3.226	2.972	2.956	2.874	2.500	2.522	2.574	2.616	2.628	2.556	2.985	2.872	2.599	2.610
465.0	196.5	551.3	843.9	632.8	736.6	845.1	919.0	871.6	764.6	671.8	608.6	561.0	522.6	487.7	458.1	436.3	422.2	411.5	405.3	386.3	361.2	342.0	337.1	336.5	336.6	336.7	333.3	330.3	324.1	311.5	288.8	259.9	222.5	187.6	159.8	139.3	123.2	91.29	66.77	53.89	41.15	32.05	24.92	19.09	16.68	17.92	29.97	167.2	677.7	521.6	17.79	3.467	3.004	3.155	3.492	3.569	4.169	3.964	3.956	3.857	3.725	3.559	3.335	3.000	2.765	2.857	2.629	2.571	2.487	2.553	2.488	2.529	2.587	2.716	2.590	2.539	2.665
470.0	182.4	387.1	874.1	816.4	678.9	786.4	851.4	812.4	710.9	614.1	556.9	525.8	482.3	451.0	417.6	397.7	385.5	373.9	368.3	347.7	325.6	306.4	302.5	301.7	302.1	304.1	302.8	300.6	298.6	287.5	267.7	243.8	210.4	180.0	151.9	129.7	114.5	97.71	73.60	56.49	43.07	34.53	27.11	21.02	17.03	14.12	14.66	44.07	199.8	483.7	499.1	91.86	6.692	3.141	3.391	3.491	3.782	3.819	3.792	3.583	3.499	3.240	3.065	2.696	2.649	2.591	2.488	2.286	2.292	2.327	2.347	2.262	2.330	2.406	2.287	2.396	2.413
475.0	164.9	281.7	597.2	 1060	725.3	715.3	777.3	732.4	647.9	562.3	511.4	474.3	435.6	407.6	377.1	358.8	346.9	335.2	325.3	312.1	290.4	273.1	270.5	268.1	270.0	271.9	269.4	271.4	271.7	261.3	246.1	224.9	195.5	170.1	145.2	121.4	105.0	91.60	80.85	60.37	45.35	36.11	29.15	23.09	18.57	15.07	12.59	17.41	50.34	116.6	285.1	577.1	134.7	5.589	3.136	3.316	3.372	3.526	3.437	3.458	3.092	3.085	2.800	2.475	2.428	2.299	2.380	2.159	2.222	2.089	1.929	2.099	2.137	2.062	2.050	2.130	2.111
480.0	157.6	258.6	416.0	 1023	887.5	662.7	711.2	682.5	602.7	520.0	475.5	440.7	412.2	378.4	348.9	333.8	319.3	309.3	300.4	287.4	263.3	250.4	246.0	246.5	248.6	248.6	248.2	249.1	249.7	242.9	230.5	210.0	184.4	161.5	138.1	117.3	100.3	86.09	80.20	65.55	47.48	37.28	29.88	24.68	20.18	16.27	13.11	12.12	17.43	30.92	76.52	374.1	519.2	24.47	3.820	3.231	3.321	3.329	3.243	3.215	2.904	2.879	2.516	2.315	2.353	2.162	2.053	1.953	2.006	1.980	1.925	1.950	1.872	1.904	1.916	2.014	2.045
485.0	139.7	242.0	357.8	772.9	 1099	667.8	650.2	643.9	566.0	488.8	445.8	419.1	385.8	352.6	329.9	311.0	294.0	286.8	281.8	264.8	243.8	230.6	227.3	226.7	229.9	230.7	230.1	230.3	233.4	228.4	214.7	197.5	173.1	154.0	133.0	113.1	95.33	81.80	74.51	68.41	51.06	38.86	31.17	25.62	21.32	16.62	13.91	11.58	10.94	12.27	21.76	107.6	474.7	439.1	20.56	3.465	3.218	3.372	3.040	3.002	2.852	2.687	2.313	2.164	2.230	2.035	1.992	1.959	1.773	1.890	1.845	1.826	1.752	1.788	1.687	1.713	1.830
490.0	134.3	228.3	310.1	492.8	 1053	881.7	606.5	575.7	512.1	449.3	411.9	382.7	349.4	320.6	293.6	279.9	265.3	257.7	251.7	235.5	216.8	205.1	203.2	203.6	205.1	205.3	206.1	208.2	211.7	206.1	195.8	179.7	160.3	141.4	124.8	106.9	91.84	77.37	68.48	62.72	55.04	41.97	32.44	26.00	21.88	17.94	14.99	12.32	10.07	8.947	10.18	28.56	136.5	361.7	343.4	94.64	6.969	3.027	2.902	2.714	2.529	2.400	2.125	1.959	2.083	1.748	1.763	1.724	1.622	1.659	1.719	1.606	1.579	1.644	1.611	1.622	1.592
495.0	116.0	219.4	277.3	374.8	682.9	 1132	651.0	519.8	455.1	401.2	366.9	342.3	315.2	290.2	262.6	246.6	236.8	227.5	221.3	206.3	190.6	181.3	179.7	179.6	180.9	181.2	181.3	184.2	185.6	183.2	175.5	162.1	143.3	128.4	113.2	98.23	84.46	72.57	62.96	56.03	51.62	46.23	34.83	26.96	22.29	18.79	15.54	13.43	10.95	8.733	7.958	11.36	34.40	87.49	253.3	516.6	135.7	5.038	2.737	2.517	2.413	2.135	2.082	1.948	1.806	1.591	1.599	1.583	1.544	1.471	1.590	1.394	1.365	1.379	1.430	1.376	1.473
500.0	106.3	192.9	259.6	315.1	456.3	 1045	842.8	470.2	410.8	362.5	337.3	313.4	289.3	259.7	239.2	222.8	214.5	201.9	199.2	185.6	171.8	163.7	159.8	160.1	163.3	162.8	164.7	166.7	166.5	164.6	160.1	146.0	132.9	119.3	104.4	91.75	79.22	68.92	59.47	51.72	46.18	45.17	37.60	27.87	22.95	18.93	16.01	13.49	11.23	9.112	7.975	7.678	11.95	23.44	69.07	346.8	484.5	25.67	3.299	2.283	2.211	2.034	1.795	1.794	1.554	1.482	1.536	1.399	1.333	1.267	1.367	1.264	1.374	1.339	1.335	1.320	1.319
505.0	90.53	163.6	247.6	288.3	361.7	735.7	 1044	481.2	378.2	334.4	311.5	287.0	259.7	238.9	217.9	201.9	193.3	185.4	177.5	167.0	155.1	146.3	144.0	142.6	147.1	147.3	149.3	150.0	152.0	150.5	144.8	133.8	121.3	108.5	95.64	84.05	73.95	64.50	56.11	48.64	41.77	40.83	38.43	29.49	22.43	18.91	16.17	13.47	11.10	9.529	8.277	6.939	7.162	9.156	18.88	100.9	424.3	381.1	21.07	2.417	2.006	1.877	1.692	1.511	1.336	1.508	1.368	1.213	1.276	1.185	1.287	1.273	1.361	1.200	1.149	1.208	1.149
510.0	79.50	139.9	223.0	265.3	297.7	442.4	912.0	724.3	336.8	292.8	272.2	253.7	229.0	210.4	190.6	175.6	169.1	160.0	153.7	145.8	133.5	126.3	124.7	124.8	125.9	127.1	127.6	130.2	131.7	131.4	125.8	117.8	106.4	95.38	85.08	75.57	67.05	58.21	50.73	43.88	38.42	34.54	34.03	31.09	24.40	18.51	15.85	13.67	11.41	9.579	8.323	7.233	6.238	6.169	7.820	25.93	119.7	305.2	293.0	86.86	4.831	1.838	1.619	1.326	1.326	1.321	1.243	1.104	1.142	1.070	1.192	1.068	1.141	1.020	1.023	1.057	1.082
515.0	62.80	114.7	176.0	241.7	253.9	310.4	524.5	943.4	438.0	255.7	232.7	217.5	197.6	181.6	167.8	152.8	141.9	135.6	133.3	122.9	115.1	106.8	106.9	106.9	106.7	106.7	109.5	109.5	113.0	112.4	108.5	101.7	91.76	83.78	74.43	66.26	58.50	51.22	45.20	38.97	35.34	30.72	27.68	28.17	26.09	19.32	15.64	13.04	11.04	9.468	8.087	7.327	5.946	5.790	5.417	9.253	29.68	72.63	180.7	384.3	119.5	3.778	1.538	1.299	1.207	1.102	1.063	1.158	0.981	0.948	1.025	0.945	1.046	0.902	0.900	0.933	0.964
520.0	54.45	100.1	151.1	219.4	237.4	260.2	329.3	800.9	667.3	234.6	209.2	198.7	179.7	160.8	149.3	135.0	128.6	121.4	115.7	109.7	100.9	93.66	93.39	95.45	95.03	96.33	96.88	97.08	99.22	99.95	96.37	90.06	82.45	74.66	66.73	59.28	53.69	47.66	41.37	36.83	32.56	28.11	25.51	24.28	25.90	20.98	15.76	12.87	10.98	9.451	8.128	7.312	6.137	5.396	4.777	5.375	9.628	18.78	48.04	247.5	357.3	24.90	1.913	1.330	1.048	0.995	0.970	0.986	0.927	0.926	0.966	0.854	0.807	0.799	0.718	0.806	0.947
525.0	53.67	83.62	128.1	184.1	216.0	225.4	254.2	513.9	874.0	267.8	189.8	179.7	167.5	147.1	134.7	120.7	114.5	109.1	103.1	96.64	90.28	84.73	85.53	85.07	84.87	85.25	85.93	87.68	88.26	88.59	86.68	81.17	73.54	66.82	59.95	54.42	48.26	43.96	38.41	34.27	29.81	26.86	23.31	21.66	22.33	21.91	16.55	12.59	10.66	9.140	8.032	6.970	6.178	5.346	4.494	4.482	5.215	6.781	13.04	70.31	293.4	206.3	18.96	1.425	1.107	1.009	0.918	0.903	0.795	0.783	0.835	0.751	0.766	0.732	0.661	0.662	0.846
530.0	44.62	74.37	112.2	148.5	196.8	199.7	208.5	281.9	699.3	580.4	188.3	156.5	143.8	127.9	114.1	104.1	96.86	93.45	87.93	83.21	77.23	73.84	73.59	72.62	73.32	72.63	74.13	75.25	76.78	75.54	74.26	69.83	63.62	57.33	52.68	47.92	42.46	38.64	33.97	30.35	26.64	24.06	21.17	18.98	18.24	19.06	17.40	12.97	10.12	8.838	7.722	6.982	6.011	5.126	4.582	4.226	4.084	3.999	5.140	17.63	81.26	197.3	224.0	74.24	3.265	0.903	0.851	0.843	0.746	0.698	0.688	0.669	0.664	0.593	0.670	0.590	0.673
535.0	37.45	64.74	91.35	118.6	163.2	179.5	172.6	188.4	339.5	736.1	353.5	139.1	123.1	109.3	96.51	89.73	82.94	79.30	75.43	70.57	65.65	62.74	61.89	62.62	61.73	61.20	62.19	62.52	64.81	64.04	63.27	58.84	54.78	49.16	45.08	40.72	37.12	33.30	29.70	26.54	23.74	21.15	19.06	17.18	15.80	15.49	15.89	14.25	10.67	8.317	7.232	6.621	5.567	5.079	4.403	4.189	3.752	3.427	3.312	5.907	19.78	46.67	122.8	273.9	27.23	2.532	0.733	0.734	0.653	0.662	0.645	0.532	0.625	0.547	0.601	0.521	0.612
540.0	32.96	56.96	86.97	105.7	131.7	167.8	156.3	153.0	192.3	569.7	602.7	133.7	109.2	96.38	85.55	80.16	72.99	69.23	66.33	63.08	58.40	55.57	54.27	55.45	54.50	53.99	54.79	55.07	56.68	57.11	55.33	51.91	48.85	43.52	39.77	36.14	33.69	30.43	26.99	23.71	21.50	19.06	17.27	15.76	13.99	13.21	13.54	13.73	11.48	8.278	6.763	6.132	5.359	4.865	4.336	4.146	3.706	3.310	2.756	3.137	6.008	11.88	31.83	170.1	213.8	23.82	1.143	0.739	0.622	0.584	0.637	0.502	0.512	0.485	0.457	0.492	0.501
545.0	29.25	45.91	76.11	94.96	114.0	147.0	148.7	134.5	137.4	330.6	720.3	184.4	97.61	87.31	77.31	71.13	66.03	61.94	56.69	56.83	52.27	48.94	49.21	48.38	48.41	48.07	49.08	50.09	50.39	50.42	49.24	46.07	42.82	39.27	35.00	32.30	30.40	27.53	24.00	22.30	19.71	17.42	15.57	14.47	12.91	12.02	11.56	11.95	11.75	8.600	6.737	5.901	5.091	4.521	4.187	4.035	3.530	3.326	2.824	2.521	2.954	3.983	8.365	47.48	194.6	188.8	17.65	0.882	0.614	0.564	0.562	0.515	0.502	0.431	0.431	0.478	0.491
550.0	25.06	46.83	64.72	76.90	90.06	115.9	132.9	117.9	110.6	161.0	483.2	491.8	107.7	75.25	66.90	60.97	57.15	52.53	50.11	47.99	43.85	41.73	41.29	41.27	41.87	41.43	41.38	42.28	43.08	42.79	41.61	39.36	36.76	33.70	30.17	27.97	25.84	23.59	20.93	19.24	17.10	15.44	13.49	12.53	11.59	10.74	9.878	9.450	10.14	8.936	7.006	5.424	4.594	4.149	3.961	3.665	3.406	3.118	2.657	2.409	2.241	2.394	3.180	11.74	53.61	145.0	169.6	56.20	2.581	0.591	0.531	0.474	0.399	0.367	0.391	0.369	0.396
555.0	22.74	42.94	54.01	60.34	75.08	86.83	110.8	108.6	92.70	98.82	203.8	536.3	286.7	64.47	56.15	50.95	47.36	44.43	41.61	39.22	36.84	35.35	34.33	33.60	34.04	33.72	33.77	34.55	34.52	35.58	34.58	32.58	30.38	28.07	25.44	23.49	21.34	19.68	17.80	16.44	14.29	13.45	12.12	11.04	10.09	9.127	8.632	7.469	7.830	8.181	7.194	5.299	4.231	3.633	3.467	3.376	3.029	2.862	2.708	2.303	2.015	1.895	1.873	3.805	13.19	34.10	85.88	189.4	26.68	1.765	0.522	0.422	0.325	0.370	0.323	0.316	0.333
560.0	20.27	37.90	43.85	52.51	61.43	75.88	89.29	102.5	83.53	79.38	103.6	359.9	475.8	72.07	48.58	44.34	42.28	37.13	36.07	33.44	31.77	29.80	29.43	29.29	29.60	28.91	29.67	28.57	29.45	29.75	29.26	27.84	25.83	24.04	22.09	20.43	18.65	17.07	15.27	13.70	12.59	11.63	10.47	9.412	8.833	7.877	7.375	6.576	6.299	6.894	6.978	5.552	3.909	3.601	3.350	3.141	2.873	2.737	2.520	2.323	1.999	1.867	1.684	2.134	4.150	8.784	22.13	114.1	165.6	21.76	0.879	0.483	0.381	0.343	0.319	0.256	0.269
565.0	20.97	29.51	38.65	47.09	52.86	62.63	71.99	91.94	76.10	69.18	72.22	186.3	519.5	131.7	42.42	36.91	34.90	32.10	30.49	28.89	27.57	24.84	24.84	25.43	25.09	24.86	25.06	25.16	25.04	25.69	24.63	24.24	22.31	20.27	18.76	17.43	16.21	14.54	13.06	11.90	11.19	9.935	9.203	8.133	7.759	7.027	6.405	5.843	5.304	5.539	6.007	5.529	3.990	3.385	3.016	2.772	2.572	2.414	2.314	2.107	1.906	1.752	1.617	1.768	2.045	3.134	6.122	31.64	128.6	130.4	14.97	0.550	0.317	0.287	0.275	0.227	0.217
570.0	17.19	26.99	32.45	36.77	42.35	49.06	54.76	70.56	70.67	57.54	55.34	82.82	297.9	366.2	61.52	30.13	27.47	25.88	24.14	23.04	21.77	19.96	19.76	19.34	19.71	19.39	19.36	19.69	19.57	20.18	19.33	18.99	17.87	15.79	14.76	13.98	12.47	11.46	10.54	9.619	8.851	8.136	7.312	6.837	6.289	5.809	5.206	4.827	4.252	4.158	4.224	4.559	3.964	3.202	2.565	2.391	2.163	2.129	1.979	1.900	1.748	1.648	1.462	1.470	1.533	1.791	2.607	8.241	34.92	91.72	101.4	17.28	1.379	0.267	0.257	0.200	0.189
575.0	15.49	22.69	26.45	29.01	32.83	35.97	41.35	48.97	60.95	51.57	44.82	49.54	109.7	338.1	228.6	23.37	21.04	19.80	18.86	17.27	15.80	15.62	14.54	14.44	14.95	14.62	14.61	14.78	14.63	15.20	14.46	13.80	13.19	12.01	11.42	10.67	9.434	8.711	7.931	7.448	6.862	6.179	5.665	5.189	4.970	4.547	4.122	3.744	3.301	3.019	3.099	3.101	3.379	3.263	2.329	1.941	1.794	1.705	1.615	1.615	1.431	1.483	1.248	1.284	1.358	1.402	1.515	2.820	8.535	21.50	49.50	99.78	23.21	0.865	0.251	0.161	0.165
580.0	12.92	22.11	25.99	25.86	26.98	30.96	34.50	38.86	52.69	52.86	39.19	37.35	49.91	200.6	363.9	38.71	17.06	15.27	15.47	14.01	13.54	12.97	12.33	11.68	11.96	11.47	11.81	11.74	12.10	12.06	11.85	10.93	10.60	9.772	9.032	8.240	7.653	7.283	6.446	6.142	5.725	4.739	4.559	4.362	4.095	3.736	3.462	3.128	2.754	2.477	2.337	2.357	2.628	2.858	2.220	1.808	1.571	1.476	1.291	1.380	1.295	1.343	1.248	1.295	1.198	1.161	1.236	1.659	2.691	5.440	12.63	58.66	88.47	17.06	0.334	0.143	0.137
585.0	14.23	21.92	24.12	19.51	22.93	24.52	27.69	31.64	42.12	52.01	38.80	34.35	33.31	93.53	345.2	96.30	15.15	13.06	13.07	11.01	11.17	10.49	10.38	9.949	9.432	9.557	10.05	9.508	10.07	10.10	9.887	9.481	8.632	7.997	7.508	6.796	6.510	6.127	5.213	4.974	4.603	4.282	3.854	3.807	3.355	3.293	2.907	2.767	2.453	2.222	2.030	1.927	1.871	2.377	2.293	1.736	1.444	1.373	1.094	1.154	1.058	1.026	1.216	0.991	1.043	1.078	1.037	1.137	1.247	1.763	3.264	15.99	66.20	69.09	8.503	0.240	0.173
590.0	10.33	18.65	20.11	20.05	19.76	21.46	23.17	26.08	31.80	45.60	42.52	30.81	27.67	39.03	173.0	269.1	37.93	10.62	10.51	9.031	8.906	8.168	7.926	7.925	7.712	7.652	7.831	7.587	7.736	7.656	7.476	7.309	6.775	6.137	5.895	5.410	4.954	4.647	4.247	4.020	3.719	3.374	3.031	2.849	2.669	2.600	2.386	2.180	1.931	1.829	1.733	1.574	1.414	1.619	1.915	1.686	1.255	1.102	0.970	0.991	0.906	0.808	0.879	0.928	0.971	0.920	0.845	0.830	0.884	0.876	1.083	3.870	17.69	46.89	43.56	14.38	0.735
595.0	10.87	15.04	16.78	17.44	16.59	18.33	20.71	20.72	24.52	35.60	45.24	31.71	25.82	23.13	56.51	217.2	176.8	8.850	7.993	7.221	6.559	6.632	6.120	6.004	6.137	6.025	5.941	5.928	5.985	5.906	5.311	5.455	5.215	4.585	4.447	4.108	3.781	3.563	3.246	3.046	2.937	2.634	2.399	2.362	2.172	2.042	1.929	1.696	1.571	1.432	1.292	1.227	1.201	1.153	1.274	1.469	1.504	1.017	0.799	0.738	0.659	0.583	0.649	0.736	0.744	0.783	0.703	0.667	0.606	0.481	0.516	1.074	4.109	10.78	23.31	55.01	18.79
600.0	9.358	13.89	17.30	15.76	15.62	17.82	19.64	20.34	25.05	30.78	44.82	37.37	26.07	21.92	24.51	112.7	264.3	26.67	7.032	6.101	5.653	5.476	5.090	5.326	4.939	5.064	4.879	4.825	4.685	4.873	4.661	4.670	4.405	4.058	3.671	3.416	3.111	3.123	2.754	2.584	2.304	2.203	1.981	1.923	1.818	1.708	1.581	1.414	1.334	1.165	1.125	1.049	0.889	0.914	0.847	1.156	1.233	0.941	0.718	0.627	0.596	0.546	0.603	0.555	0.617	0.715	0.624	0.595	0.498	0.348	0.387	0.456	1.065	2.538	5.858	31.63	50.03
605.0	11.37	15.77	17.52	15.85	15.31	17.02	18.45	22.98	27.43	30.24	45.04	47.07	30.59	23.91	20.52	50.44	237.0	76.58	6.528	5.240	4.897	4.746	4.535	4.406	4.256	4.415	4.142	4.254	3.986	4.220	4.066	3.857	3.399	3.411	2.942	2.971	2.423	2.509	2.367	2.258	1.953	1.957	1.753	1.591	1.480	1.430	1.303	1.294	1.170	0.969	0.985	0.820	0.854	0.826	0.762	0.889	1.166	0.913	0.720	0.552	0.521	0.429	0.581	0.573	0.564	0.527	0.635	0.516	0.433	0.317	0.304	0.355	0.412	0.701	1.428	8.530	36.03
610.0	10.06	16.51	15.95	14.86	14.81	16.04	18.33	24.04	28.35	34.47	44.00	53.19	39.89	28.89	24.27	26.06	113.1	202.6	30.16	4.255	3.911	3.819	3.807	3.286	3.426	3.331	3.212	3.418	3.343	3.280	3.288	3.102	2.737	2.587	2.604	2.317	2.099	1.954	1.851	1.721	1.499	1.458	1.424	1.304	1.193	1.035	1.123	1.077	0.918	0.808	0.816	0.691	0.669	0.627	0.645	0.671	0.886	0.927	0.731	0.561	0.464	0.420	0.480	0.460	0.484	0.484	0.522	0.552	0.461	0.352	0.311	0.292	0.278	0.311	0.433	2.038	9.518
615.0	9.464	15.67	17.09	13.81	13.38	15.35	17.38	22.66	26.87	32.59	41.35	48.44	45.27	29.17	23.50	19.32	40.90	150.5	142.7	4.541	3.102	2.835	2.773	2.761	2.607	2.601	2.567	2.518	2.518	2.519	2.507	2.447	2.080	2.198	1.789	1.788	1.817	1.487	1.456	1.386	1.139	1.192	1.035	1.014	0.910	0.871	0.807	0.821	0.698	0.600	0.564	0.587	0.546	0.493	0.520	0.444	0.554	0.696	0.696	0.558	0.368	0.379	0.426	0.359	0.396	0.410	0.423	0.501	0.407	0.353	0.283	0.220	0.246	0.177	0.197	0.590	2.241
620.0	11.03	15.73	16.38	12.92	14.64	15.02	18.33	21.96	25.72	31.69	37.77	43.03	49.64	30.45	22.70	17.86	20.92	72.25	203.6	24.02	2.835	2.427	2.403	2.279	2.095	2.111	2.090	2.185	2.072	2.067	2.121	1.989	1.809	1.739	1.564	1.505	1.510	1.211	1.214	1.194	0.984	0.897	0.743	0.781	0.785	0.702	0.695	0.597	0.602	0.555	0.521	0.494	0.450	0.425	0.435	0.369	0.463	0.510	0.686	0.581	0.464	0.365	0.419	0.334	0.337	0.373	0.383	0.380	0.398	0.315	0.255	0.214	0.206	0.191	0.145	0.246	0.585
625.0	9.298	14.78	14.45	13.39	11.92	14.76	18.39	21.48	25.17	29.39	36.72	39.89	44.88	33.49	22.32	16.94	16.25	31.00	166.6	63.33	2.509	2.170	1.892	1.884	1.679	1.800	1.788	1.800	1.781	1.958	1.586	1.654	1.546	1.407	1.315	1.280	1.165	1.055	0.988	0.976	0.785	0.710	0.661	0.734	0.705	0.627	0.607	0.529	0.565	0.462	0.440	0.398	0.388	0.370	0.361	0.393	0.439	0.398	0.537	0.562	0.463	0.355	0.327	0.316	0.348	0.360	0.306	0.394	0.401	0.346	0.272	0.286	0.191	0.139	0.157	0.169	0.238
630.0	7.367	14.78	15.29	13.13	12.82	14.60	17.19	20.00	24.49	29.58	35.90	37.87	39.86	37.96	23.84	17.40	15.05	15.32	69.29	155.8	25.44	1.808	1.622	1.626	1.492	1.386	1.350	1.392	1.379	1.397	1.384	1.319	1.156	1.116	0.968	0.897	0.925	0.851	0.717	0.790	0.649	0.605	0.609	0.558	0.597	0.479	0.489	0.474	0.424	0.410	0.357	0.334	0.328	0.321	0.320	0.280	0.334	0.320	0.378	0.420	0.422	0.367	0.280	0.276	0.314	0.270	0.298	0.290	0.326	0.320	0.284	0.258	0.225	0.162	0.142	0.151	0.163
635.0	6.034	14.64	17.16	13.68	12.73	14.01	16.47	19.06	23.79	30.34	33.88	37.16	37.05	37.70	27.44	17.77	15.27	11.83	19.78	98.65	119.6	2.769	1.341	1.303	1.350	1.188	1.103	1.098	1.119	1.088	1.059	1.087	0.880	0.813	0.755	0.753	0.757	0.675	0.555	0.590	0.524	0.506	0.425	0.447	0.395	0.447	0.360	0.450	0.356	0.327	0.282	0.260	0.276	0.266	0.248	0.241	0.231	0.263	0.256	0.334	0.346	0.367	0.306	0.276	0.297	0.253	0.255	0.305	0.258	0.221	0.230	0.258	0.217	0.178	0.139	0.100	0.130
640.0	9.976	15.57	17.73	15.18	12.84	14.04	15.22	19.36	22.69	27.40	32.70	35.88	35.30	34.83	31.30	18.51	16.19	10.50	8.048	42.33	164.3	20.81	1.314	1.082	1.200	1.061	1.018	0.974	0.826	0.879	0.846	0.927	0.827	0.677	0.611	0.667	0.585	0.498	0.491	0.467	0.408	0.396	0.363	0.418	0.325	0.333	0.321	0.400	0.347	0.297	0.232	0.239	0.240	0.228	0.196	0.227	0.210	0.227	0.199	0.219	0.292	0.331	0.316	0.238	0.250	0.276	0.224	0.288	0.265	0.215	0.175	0.224	0.265	0.173	0.113	0.142	0.126
645.0	11.80	18.42	17.33	14.00	13.05	13.11	16.27	17.20	22.13	26.76	31.61	34.59	34.93	32.39	33.07	19.65	15.08	10.29	5.327	14.60	123.2	57.55	1.268	0.926	0.875	0.895	0.890	0.810	0.754	0.797	0.693	0.727	0.644	0.649	0.566	0.598	0.587	0.470	0.376	0.434	0.341	0.387	0.270	0.365	0.320	0.249	0.274	0.366	0.299	0.261	0.240	0.193	0.235	0.204	0.171	0.195	0.151	0.181	0.220	0.254	0.204	0.255	0.336	0.244	0.223	0.251	0.221	0.285	0.194	0.202	0.213	0.198	0.248	0.159	0.164	0.128	0.091
650.0	11.81	23.13	24.10	17.92	13.97	13.34	15.94	16.69	21.33	27.55	29.70	34.48	34.09	31.23	30.53	21.22	15.19	10.11	4.781	5.736	57.72	131.6	7.020	0.890	0.771	0.731	0.753	0.704	0.761	0.775	0.582	0.606	0.595	0.541	0.426	0.507	0.450	0.447	0.396	0.400	0.329	0.328	0.316	0.303	0.265	0.260	0.255	0.271	0.306	0.220	0.216	0.196	0.240	0.190	0.151	0.164	0.134	0.145	0.203	0.205	0.173	0.240	0.256	0.284	0.226	0.236	0.201	0.232	0.202	0.215	0.186	0.180	0.205	0.182	0.158	0.134	0.096
