Sample:	'1
File name:	Default_20231029_145401.FD3
Run date:	'14:47:40, 10/29/2023
Operator:	user
Comment:	'

Instrument
Model:	F-2700 FL Spectrophotometer
Serial number:	2190-003
ROM Version:	4J14000 07

Instrument parameters
Measurement type:	3-D scan
Data mode:	Fluorescence
EX  Start WL:	220.0 nm
EX  End WL:	600.0 nm
EX Sampling interval:	5.0 nm
EM  Start WL:	230.0 nm
EM  End WL:	650.0 nm
EM Sampling interval:	5.0 nm
Scan speed:	12000 nm/min
EX Slit:	5.0 nm
EM Slit:	5.0 nm
PMT Voltage:	700 V
Response:	Auto 
Corrected spectra:	Off
Contour interval:	50.000

Peak integration
Integration method:	Rectangular
Sensitivity:	1
Threshold:	1.000

Peaks
No.	ApexEX/EM(nm)	Height(Data)
1	225.0/255.0	73.60
2	225.0/305.0	83.73
3	225.0/515.0	65.41
4	225.0/545.0	52.30
5	225.0/575.0	73.62
6	225.0/625.0	40.72
7	225.0/640.0	75.04
8	230.0/270.0	46.59
9	230.0/310.0	73.84
10	230.0/540.0	51.62
11	230.0/585.0	39.48
12	230.0/615.0	50.05
13	235.0/280.0	63.72
14	235.0/400.0	219.6
15	235.0/500.0	92.43
16	240.0/295.0	47.32
17	240.0/435.0	153.9
18	240.0/515.0	92.28
19	240.0/635.0	30.68
20	245.0/265.0	132.5
21	245.0/465.0	137.2
22	245.0/535.0	68.21
23	245.0/605.0	30.29
24	250.0/270.0	132.5
25	250.0/310.0	48.76
26	250.0/370.0	375.2
27	250.0/435.0	175.6
28	250.0/495.0	812.0
29	250.0/540.0	78.91
30	250.0/585.0	36.54
31	250.0/595.0	26.94
32	250.0/630.0	28.02
33	255.0/280.0	211.5
34	255.0/415.0	211.2
35	255.0/455.0	161.7
36	255.0/480.0	109.5
37	255.0/555.0	61.04
38	255.0/600.0	24.92
39	255.0/620.0	13.95
40	260.0/235.0	16.38
41	260.0/285.0	291.1
42	260.0/445.0	166.9
43	260.0/565.0	63.65
44	260.0/610.0	16.20
45	260.0/635.0	17.22
46	265.0/240.0	16.35
47	265.0/290.0	277.4
48	265.0/430.0	170.2
49	265.0/490.0	104.5
50	265.0/525.0	763.1
51	265.0/580.0	61.51
52	265.0/625.0	21.15
53	270.0/295.0	337.0
54	270.0/425.0	172.2
55	270.0/445.0	164.4
56	270.0/590.0	52.92
57	275.0/300.0	394.0
58	275.0/450.0	161.6
59	275.0/600.0	51.17
60	275.0/635.0	15.76
61	280.0/310.0	374.3
62	280.0/460.0	137.2
63	280.0/520.0	59.46
64	280.0/610.0	37.87
65	285.0/255.0	11.40
66	285.0/315.0	360.2
67	285.0/340.0	121.8
68	285.0/365.0	142.0
69	285.0/410.0	156.7
70	285.0/500.0	79.86
71	285.0/630.0	25.87
72	290.0/320.0	391.8
73	290.0/360.0	132.6
74	290.0/390.0	148.2
75	290.0/640.0	24.57
76	295.0/265.0	6.584
77	295.0/395.0	155.1
78	300.0/255.0	5.293
79	300.0/275.0	6.109
80	300.0/335.0	258.0
81	300.0/385.0	145.7
82	300.0/405.0	153.4
83	305.0/235.0	4.576
84	305.0/250.0	4.514
85	305.0/265.0	5.496
86	305.0/340.0	298.9
87	305.0/575.0	10.92
88	310.0/245.0	3.896
89	310.0/345.0	272.9
90	310.0/395.0	155.2
91	315.0/290.0	5.359
92	315.0/390.0	149.4
93	315.0/405.0	156.5
94	315.0/560.0	11.81
95	320.0/360.0	246.4
96	325.0/365.0	243.0
97	330.0/280.0	3.958
98	330.0/370.0	202.3
99	335.0/380.0	217.4
100	335.0/630.0	4.091
101	340.0/240.0	2.565
102	340.0/275.0	2.900
103	340.0/385.0	222.6
104	340.0/600.0	5.224
105	345.0/295.0	3.028
106	345.0/390.0	193.5
107	345.0/610.0	3.197
108	350.0/265.0	2.208
109	350.0/285.0	2.810
110	350.0/395.0	187.9
111	355.0/405.0	183.9
112	355.0/635.0	2.299
113	360.0/265.0	2.299
114	360.0/280.0	2.257
115	360.0/410.0	161.1
116	365.0/415.0	155.5
117	365.0/620.0	2.743
118	370.0/235.0	2.056
119	370.0/425.0	148.4
120	370.0/640.0	2.200
121	375.0/240.0	1.855
122	375.0/430.0	126.4
123	375.0/635.0	1.959
124	380.0/435.0	119.2
125	385.0/265.0	2.092
126	385.0/445.0	108.8
127	385.0/640.0	1.964
128	390.0/235.0	2.215
129	390.0/450.0	88.45
130	395.0/455.0	79.44
131	395.0/615.0	2.316
132	400.0/285.0	1.801
133	400.0/465.0	71.22
134	405.0/470.0	56.00
135	410.0/475.0	47.42
136	415.0/325.0	1.553
137	415.0/485.0	42.00
138	420.0/490.0	35.14
139	425.0/265.0	1.481
140	425.0/380.0	1.974
141	425.0/495.0	30.15
142	430.0/505.0	25.01
143	430.0/635.0	1.708
144	435.0/510.0	19.26
145	440.0/515.0	15.98
146	445.0/405.0	1.616
147	445.0/525.0	14.00
148	450.0/530.0	12.01
149	455.0/280.0	1.340
150	455.0/540.0	9.629
151	460.0/545.0	8.655
152	480.0/575.0	3.204
153	485.0/365.0	1.766
154	485.0/580.0	2.756
155	490.0/590.0	1.973
156	495.0/595.0	2.200
157	500.0/395.0	1.646
158	500.0/600.0	1.546
159	505.0/375.0	1.821
160	520.0/375.0	1.625
161	540.0/365.0	1.554
162	545.0/360.0	1.631
163	550.0/305.0	1.879
164	550.0/495.0	1.422
165	560.0/480.0	1.392
166	565.0/345.0	1.317
167	575.0/500.0	1.550
168	580.0/325.0	1.884

Data points
	220.0	225.0	230.0	235.0	240.0	245.0	250.0	255.0	260.0	265.0	270.0	275.0	280.0	285.0	290.0	295.0	300.0	305.0	310.0	315.0	320.0	325.0	330.0	335.0	340.0	345.0	350.0	355.0	360.0	365.0	370.0	375.0	380.0	385.0	390.0	395.0	400.0	405.0	410.0	415.0	420.0	425.0	430.0	435.0	440.0	445.0	450.0	455.0	460.0	465.0	470.0	475.0	480.0	485.0	490.0	495.0	500.0	505.0	510.0	515.0	520.0	525.0	530.0	535.0	540.0	545.0	550.0	555.0	560.0	565.0	570.0	575.0	580.0	585.0	590.0	595.0	600.0
230.0	22.90	41.28	439.6	533.1	84.02	26.80	11.12	15.21	7.177	9.425	10.19	5.356	8.377	4.376	6.587	3.117	4.034	3.727	1.963	1.607	1.842	1.897	1.356	1.967	1.218	1.478	1.949	1.339	1.385	0.957	0.538	0.845	0.941	1.240	0.960	1.209	1.142	0.953	0.932	1.074	0.618	0.715	0.341	0.499	0.721	0.658	0.902	0.697	1.533	1.347	0.770	0.723	0.415	0.494	0.578	0.684	0.329	0.595	0.368	0.191	0.163	0.281	0.644	0.207	0.505	0.357	0.172	0.433	0.525	0.082	0.348	0.334	0.149	0.089	0.127	0.264	0.259
235.0	60.96	28.95	136.8	709.8	741.5	127.7	9.555	12.26	16.38	8.949	5.197	12.59	9.871	10.22	7.288	3.748	1.157	4.576	1.765	2.647	3.859	1.692	1.261	1.376	1.825	1.505	1.326	1.508	0.158	0.340	2.056	1.645	1.122	0.852	2.215	1.326	0.613	1.596	0.279	0.729	0.987	0.868	0.583	1.143	0.626	1.064	0.945	0.152	1.150	0.906	1.813	2.253	1.431	1.003	-0.076	0.779	-0.152	0.446	0.306	0.470	-0.005	0.226	0.476	0.378	0.656	0.906	-0.107	-0.012	0.076	-0.122	1.071	0.068	0.401	0.217	0.229	-0.251	0.017
240.0	21.76	39.91	78.49	349.6	 1087	736.8	96.77	20.60	12.55	16.35	13.63	6.793	9.638	5.655	4.076	4.427	4.554	1.653	1.229	1.372	2.022	1.711	0.326	2.435	2.565	2.068	2.167	1.331	1.508	0.442	1.326	1.855	0.728	0.647	1.758	1.094	1.521	1.190	0.256	0.943	1.081	0.634	0.826	1.159	0.799	0.632	0.780	0.147	1.124	0.263	1.008	1.543	3.075	2.120	0.879	1.016	0.209	0.536	0.323	0.865	0.732	0.486	0.219	0.336	0.076	0.202	-0.037	0.676	0.391	0.394	0.369	0.224	-0.106	-0.143	0.224	-0.026	0.121
245.0	21.58	81.19	51.47	130.2	578.1	 1406	702.9	42.98	17.02	10.00	9.645	7.959	9.197	6.913	6.549	3.261	0.805	2.761	3.896	1.084	2.754	1.856	0.861	0.928	1.636	1.904	1.981	1.859	1.011	0.923	1.703	1.512	0.188	0.821	1.567	0.840	0.780	0.366	0.190	1.095	0.600	-0.111	1.204	0.468	1.169	0.707	0.382	0.173	0.783	0.427	0.490	0.246	1.788	3.889	3.485	2.043	0.578	1.011	0.177	0.490	0.763	0.777	0.286	0.611	0.473	0.216	0.506	0.231	0.604	-0.042	0.020	0.400	0.000	-0.352	0.508	0.327	0.005
250.0	53.44	44.53	47.39	63.51	152.2	631.9	 1408	 1202	208.4	10.91	8.725	9.523	6.633	6.025	3.546	2.450	3.317	4.514	3.873	2.734	2.462	1.172	1.793	0.318	1.766	1.615	1.273	1.632	1.515	0.536	0.651	0.983	0.754	1.372	1.878	0.591	0.709	0.909	0.998	1.398	0.544	0.661	0.835	0.748	0.806	0.784	0.594	0.476	0.742	0.580	0.665	0.941	1.119	1.820	2.008	3.132	3.638	3.545	1.768	0.784	0.384	0.867	0.175	0.527	0.528	0.112	0.265	0.092	-0.159	0.053	0.631	0.755	0.054	0.009	0.050	0.192	0.118
255.0	65.91	73.60	49.04	96.60	109.4	172.6	463.8	 1865	 1842	227.2	9.963	3.887	8.239	11.40	7.806	2.038	5.293	2.635	1.850	2.114	2.370	1.325	1.091	0.807	0.293	1.724	2.142	1.953	1.173	0.307	0.550	1.170	1.325	0.487	0.667	0.652	0.792	1.176	1.041	0.633	0.999	1.027	0.971	0.705	0.712	1.105	0.810	0.486	0.649	0.420	0.632	0.698	0.555	0.603	0.887	1.331	1.761	3.737	6.647	5.924	1.664	0.838	0.414	0.863	0.657	0.673	0.313	0.028	-0.065	0.181	0.187	0.359	0.062	0.608	0.247	0.254	0.272
260.0	42.83	70.52	56.18	33.64	120.5	92.22	124.8	766.3	 2556	 1542	114.1	9.910	6.548	7.789	4.721	4.019	2.101	3.944	2.361	-0.198	1.045	0.221	1.715	-0.572	0.114	1.361	1.626	0.281	1.973	1.026	0.485	0.975	0.642	1.450	0.851	1.032	0.362	0.959	1.475	0.783	0.665	0.924	0.444	0.787	0.843	0.976	0.619	0.383	0.167	0.222	0.337	0.048	0.858	0.993	0.476	0.729	1.142	1.794	3.027	5.946	6.896	4.409	1.601	0.086	1.044	0.378	0.196	-0.126	0.063	0.415	0.752	0.115	0.458	0.045	0.384	0.172	0.224
265.0	26.66	43.26	33.33	37.93	83.68	132.5	53.53	201.0	 1178	 2970	 1221	58.50	10.58	7.781	4.686	6.584	4.110	5.496	1.826	2.273	2.252	1.029	2.478	0.844	2.056	1.527	2.208	0.545	2.299	1.804	0.420	0.655	1.202	2.092	0.619	0.153	0.740	0.969	1.189	0.267	0.280	1.481	1.051	1.019	0.513	1.106	0.668	0.281	0.296	0.498	0.206	0.298	0.493	1.125	0.583	0.861	0.268	0.375	1.424	2.041	4.689	7.462	7.228	3.698	0.669	0.364	0.449	0.373	0.689	0.598	0.339	0.394	0.355	0.167	0.594	0.138	0.232
270.0	25.99	37.52	46.59	32.58	43.40	97.76	132.5	97.25	295.0	 1231	 2507	 1918	262.6	9.246	6.593	6.450	4.400	3.757	2.043	2.119	1.352	0.080	2.804	2.049	2.030	1.726	1.888	0.398	2.298	2.126	1.120	0.690	0.398	0.559	1.313	0.667	0.905	1.256	0.486	0.621	0.269	0.979	0.895	0.810	0.412	1.222	0.862	1.109	0.508	0.322	0.444	0.600	0.472	0.595	0.633	1.000	0.582	0.932	0.894	0.739	1.518	2.457	4.019	6.567	6.369	5.716	2.415	0.864	0.924	0.632	0.269	0.336	0.333	0.528	0.788	0.674	0.443
275.0	5.594	19.12	21.71	25.00	23.52	52.99	111.1	208.1	114.7	303.7	776.3	 2770	 2692	226.7	4.511	4.887	6.109	4.769	2.646	2.526	1.519	1.049	2.835	1.789	2.900	0.885	0.850	0.800	1.012	1.261	1.845	1.397	0.739	0.392	1.379	0.115	0.845	0.828	0.673	0.585	0.792	1.167	0.857	1.091	0.870	0.797	0.526	1.032	0.711	0.585	0.410	0.569	0.214	0.183	-0.409	0.812	0.815	1.268	0.993	-0.004	0.941	1.062	1.120	2.614	2.675	6.137	9.945	7.362	2.854	0.999	0.168	0.095	0.366	0.456	0.163	0.509	0.793
280.0	5.782	30.38	16.70	63.72	17.53	29.83	56.40	211.5	189.2	109.8	201.4	 1050	 3530	 1105	111.8	5.003	5.052	5.337	1.320	1.266	2.667	2.650	3.958	2.118	1.735	0.865	1.720	1.490	2.257	1.837	1.199	0.470	-0.289	1.121	0.511	0.889	0.701	0.990	0.642	0.482	1.065	1.277	1.229	0.933	1.237	0.708	0.529	1.340	0.246	0.340	0.103	0.766	0.161	0.772	-0.099	1.030	0.611	1.130	1.167	0.715	0.906	0.780	0.858	1.194	1.361	2.198	4.957	8.084	10.05	5.683	0.911	0.212	0.138	0.388	0.461	-0.086	0.989
285.0	60.80	27.01	50.18	40.96	29.52	25.47	20.94	102.8	291.1	151.8	69.43	281.1	 1577	 3567	826.0	34.03	2.810	3.517	3.672	4.728	3.066	1.647	2.746	2.696	0.727	0.892	2.810	1.886	0.792	1.965	2.011	1.933	0.822	0.450	0.846	0.496	1.801	1.562	0.726	0.485	0.914	0.584	1.234	0.237	0.606	0.894	0.740	1.331	0.462	0.596	0.331	0.601	0.101	0.535	0.108	0.534	0.723	0.547	0.757	0.609	1.002	0.768	1.026	0.892	0.928	0.786	1.436	3.036	7.121	11.05	8.773	4.163	0.227	0.327	0.382	0.369	0.341
290.0	57.73	34.72	50.07	47.36	28.68	32.45	17.33	40.39	138.4	277.4	174.0	99.08	404.5	 1525	 2846	 1890	175.8	6.762	3.089	5.359	2.176	4.223	1.434	1.046	1.549	2.287	2.142	1.726	1.873	1.754	1.343	1.424	1.338	1.117	0.872	0.889	1.143	1.289	0.647	0.362	1.166	0.788	0.884	0.468	0.478	0.977	-0.033	0.625	0.441	0.469	0.516	0.612	0.266	0.776	0.308	0.258	0.947	0.764	0.542	0.759	1.139	0.883	0.811	0.941	0.656	0.828	0.243	0.918	2.162	3.721	6.135	8.689	8.862	5.555	2.914	1.011	0.066
295.0	38.16	44.26	44.97	25.08	47.32	22.94	33.21	35.50	59.61	131.8	337.0	176.8	134.0	375.0	876.4	 3112	 2409	164.6	6.194	4.373	4.592	4.384	1.627	2.113	0.545	3.028	1.542	1.741	1.032	1.606	1.547	1.370	2.023	0.874	0.745	1.048	1.289	1.258	0.914	0.616	0.497	0.030	0.850	0.413	0.052	0.399	0.297	0.378	0.880	1.030	0.600	0.715	0.671	-0.072	0.624	0.235	0.911	1.210	0.406	0.619	0.632	0.343	0.668	1.001	1.334	0.743	0.296	0.642	0.668	1.126	1.565	2.673	4.176	7.309	11.64	8.018	3.088
300.0	32.84	58.80	38.99	51.82	33.46	20.42	23.99	20.82	59.50	59.06	235.5	394.0	117.9	124.0	227.5	 1177	 3542	 1716	62.22	3.383	3.638	3.699	3.038	1.323	2.644	1.577	1.454	1.065	1.814	1.463	1.070	1.087	0.605	1.534	0.950	1.305	1.367	1.432	1.215	1.154	0.399	0.434	0.440	1.094	0.756	0.264	0.543	0.557	0.798	0.520	0.352	0.806	0.621	0.342	0.316	0.780	0.947	1.117	0.546	1.000	0.419	0.518	0.403	0.808	0.740	1.704	0.931	0.395	0.516	0.767	0.528	1.170	1.047	2.781	6.127	10.90	13.72
305.0	42.76	83.73	46.05	61.10	45.49	22.16	38.01	24.98	45.79	62.88	120.2	385.4	322.1	86.58	88.97	301.3	 1636	 3557	481.6	21.03	3.447	4.659	2.536	2.706	3.266	2.088	1.240	1.374	1.647	0.511	1.161	1.885	1.552	1.575	1.008	0.496	1.654	0.955	1.016	0.598	0.881	0.805	0.948	1.028	1.030	0.261	1.185	0.231	0.837	0.555	0.751	0.545	0.715	0.004	0.083	0.493	0.284	0.531	1.011	0.639	0.713	0.454	0.553	0.788	0.856	1.278	1.879	1.696	0.598	0.664	0.453	0.636	1.135	0.702	1.959	3.694	9.862
310.0	51.12	64.55	73.84	62.55	46.35	29.36	48.76	41.47	51.94	57.76	80.30	169.7	374.3	261.5	81.89	96.10	409.6	 1577	 2643	 1480	122.5	5.818	5.309	2.311	1.773	1.734	1.690	0.530	2.554	1.283	2.486	1.524	1.562	1.654	1.279	1.047	1.134	0.989	0.733	0.811	0.843	0.804	1.259	0.953	0.563	0.448	0.690	0.825	0.781	0.750	0.856	0.927	0.478	0.493	0.765	0.584	0.238	0.259	0.596	0.807	0.598	1.035	0.388	0.671	0.318	0.806	1.068	1.641	1.531	0.931	0.443	0.625	0.735	0.405	1.194	1.350	2.397
315.0	33.94	26.04	58.39	52.35	55.61	21.73	41.43	42.32	57.42	52.26	71.83	102.9	169.9	360.2	238.8	67.91	120.6	378.3	871.3	 2873	 2088	129.7	4.056	1.824	3.331	2.018	1.964	0.503	1.878	1.931	2.153	1.412	0.861	1.140	0.942	0.674	0.671	1.174	0.875	1.322	0.865	0.575	0.547	0.932	0.977	-0.117	0.803	0.750	1.049	0.322	0.551	0.907	0.675	0.768	0.995	0.456	1.045	0.770	0.598	0.813	0.753	1.048	0.030	1.400	0.630	0.869	0.422	1.143	0.676	1.161	1.199	0.640	1.068	0.834	0.706	0.979	0.900
320.0	34.74	50.31	66.92	46.85	47.28	32.36	52.30	49.55	40.07	65.57	79.51	90.21	102.6	232.8	391.8	135.3	56.79	110.6	218.9	 1195	 3359	 1428	46.94	3.894	3.173	1.732	2.603	2.229	1.827	2.115	1.934	1.792	1.198	1.292	0.911	0.665	0.783	0.697	1.622	0.431	0.828	0.754	0.428	0.582	0.480	0.833	0.719	0.831	1.231	0.659	0.492	0.518	0.568	1.192	0.449	0.194	0.758	0.267	1.071	0.583	0.558	0.406	0.627	1.131	0.859	0.567	0.728	0.237	0.393	0.628	1.264	1.190	1.523	0.749	0.928	0.715	0.188
325.0	36.65	55.09	84.85	79.65	69.22	51.29	62.64	62.69	61.61	80.89	86.55	98.25	94.22	124.8	305.2	294.5	72.59	52.83	71.54	300.1	 1676	 3186	334.1	16.15	3.349	2.794	2.256	2.420	2.648	1.275	1.837	2.102	1.448	1.093	0.998	1.330	1.189	0.672	0.488	1.553	0.579	0.674	0.860	1.216	0.372	-0.033	0.974	0.681	0.898	0.561	0.250	0.318	0.693	0.125	0.615	0.356	0.245	0.748	0.736	0.560	0.728	0.834	0.369	0.955	1.025	1.027	0.700	0.919	0.096	0.817	0.832	1.218	1.884	1.793	1.168	0.743	0.483
330.0	42.51	54.37	102.1	103.5	96.66	88.44	103.6	110.1	83.46	100.4	99.87	109.4	95.88	105.2	159.5	287.7	237.6	78.36	44.05	88.74	419.5	 1526	 2352	 1185	86.85	4.398	1.896	2.940	2.229	1.121	1.960	2.494	1.430	1.222	0.713	0.780	1.138	1.408	1.028	1.302	0.568	0.558	0.787	0.688	0.604	0.669	1.018	0.972	0.759	0.507	0.384	0.802	0.754	0.604	0.646	0.483	0.546	0.790	0.520	0.611	0.958	0.615	0.518	0.936	1.256	0.486	0.587	0.721	0.619	0.383	0.926	0.813	0.656	1.404	1.675	0.741	1.003
335.0	63.68	71.87	129.0	128.4	147.9	130.6	160.9	157.0	155.2	126.3	114.5	116.5	102.5	111.7	117.3	155.6	258.0	229.6	67.38	50.24	121.1	360.0	854.7	 2834	 1699	94.45	3.275	2.141	3.278	1.982	2.079	2.207	1.443	1.699	0.308	1.081	1.588	1.089	1.184	1.028	0.463	0.114	0.923	0.348	0.896	0.629	1.160	0.892	0.734	0.840	0.327	0.508	1.114	0.324	1.009	0.419	0.568	1.067	0.903	0.523	0.910	0.541	1.044	1.036	0.488	0.915	0.861	0.515	0.401	0.250	0.833	0.842	0.411	0.868	0.732	0.673	1.205
340.0	33.67	77.33	120.6	176.0	165.2	190.4	212.0	202.7	169.8	150.3	138.4	127.2	115.7	121.8	107.9	111.0	158.3	298.9	155.8	52.08	58.82	104.6	216.1	 1289	 3242	 1217	37.16	2.915	3.686	2.879	2.512	2.589	1.515	1.440	1.233	0.058	0.999	0.142	0.950	0.625	0.626	0.393	1.368	1.112	1.109	0.529	0.583	0.594	0.840	0.504	0.607	1.217	0.891	0.416	0.694	1.085	0.581	1.083	1.051	1.158	0.737	1.046	0.942	1.077	0.425	0.796	0.802	0.429	0.239	0.149	0.067	0.257	0.745	0.708	0.437	0.884	1.055
345.0	17.88	107.9	145.1	174.9	222.6	261.1	273.9	243.6	201.4	175.1	148.7	125.4	124.0	115.1	113.7	102.1	112.7	218.0	272.9	95.85	48.31	50.87	70.17	325.6	 1843	 3122	263.9	10.49	3.324	2.618	1.708	2.329	2.080	1.427	0.857	0.966	1.150	0.662	0.902	1.190	0.896	0.831	0.855	1.088	0.758	-0.166	1.010	0.742	0.548	0.450	0.154	1.168	0.824	1.076	1.376	0.834	1.135	0.780	1.250	0.882	1.263	0.441	0.824	1.338	0.443	0.755	0.289	0.628	0.205	1.317	-0.397	0.321	0.617	0.795	0.252	0.918	1.345
350.0	74.78	110.0	161.0	198.0	257.0	297.9	318.3	270.9	239.0	202.0	155.7	132.6	128.5	124.9	118.5	109.2	100.4	128.8	223.9	215.0	90.74	47.97	44.83	95.49	469.6	 1637	 2171	 1023	75.40	3.945	2.251	1.246	1.305	1.549	0.818	1.483	0.992	0.956	1.069	0.922	0.617	0.923	0.989	1.115	0.972	0.192	0.628	1.379	0.466	0.690	1.114	1.092	0.958	1.161	1.119	1.038	1.282	1.202	0.889	1.135	1.170	0.871	0.771	0.679	0.942	0.889	0.678	0.508	0.778	0.826	0.572	0.614	0.621	0.933	0.543	0.661	0.844
355.0	84.19	94.85	174.7	254.0	320.3	302.9	347.0	313.3	266.8	216.8	184.9	129.7	115.9	128.2	122.5	113.6	99.70	106.9	131.8	205.5	214.9	82.06	51.03	52.33	129.5	383.7	913.1	 2844	 1497	73.50	3.210	2.826	1.273	2.060	1.947	1.687	0.788	1.082	0.615	1.197	0.697	0.598	1.317	0.186	1.233	0.748	0.803	1.237	0.541	0.944	0.750	1.000	1.108	1.490	1.003	1.445	1.076	1.374	1.399	1.277	0.514	1.002	0.982	0.874	0.449	0.888	0.444	0.426	0.812	1.149	0.195	0.854	0.644	0.756	0.799	0.269	1.043
360.0	81.74	100.2	170.1	233.9	298.7	330.0	362.8	306.5	256.1	232.1	194.3	140.3	132.8	125.4	132.6	112.2	110.0	102.2	117.2	143.0	246.4	158.1	62.53	50.97	60.13	107.8	230.8	 1410	 3171	 1064	28.31	3.872	2.181	2.554	0.946	1.530	1.491	0.824	1.075	1.080	0.848	1.185	0.333	0.543	1.422	1.392	0.748	1.353	0.582	0.694	0.658	1.018	1.081	1.333	0.991	1.403	0.809	1.339	0.755	1.248	1.236	0.924	0.970	0.917	0.932	1.631	0.996	0.680	0.559	0.444	0.643	1.063	0.946	0.584	0.882	-0.076	-0.068
365.0	68.33	92.92	184.2	236.7	310.3	351.2	357.5	333.8	294.0	234.9	187.6	142.2	133.7	142.0	127.8	119.1	117.4	114.4	115.8	115.8	182.0	243.0	103.7	59.60	47.76	54.45	71.57	361.6	 1914	 3046	229.7	10.65	3.365	2.964	2.033	1.291	1.013	0.163	1.395	0.909	0.366	0.870	0.446	0.558	0.830	1.145	0.287	1.377	0.745	0.586	0.794	1.307	1.413	1.766	0.659	1.344	1.295	1.743	0.477	0.633	0.603	1.221	0.608	0.799	1.554	1.272	1.004	0.779	0.335	0.609	0.456	1.037	1.059	0.530	0.293	0.540	0.373
370.0	86.60	118.6	172.9	236.7	310.7	367.6	375.2	327.8	282.9	234.3	181.6	136.2	145.8	133.3	136.8	127.1	127.7	125.0	125.2	121.1	127.9	190.7	202.3	108.6	60.04	51.38	46.39	103.7	487.7	 1699	 2124	898.2	61.75	3.510	2.566	1.986	1.576	1.112	1.251	0.297	1.592	0.696	0.551	0.785	0.908	0.702	0.899	1.125	0.810	1.206	0.755	0.766	1.022	1.599	1.165	0.854	1.081	1.812	0.864	0.931	0.782	1.018	1.121	0.815	0.871	0.681	0.797	0.765	1.108	0.925	0.919	0.582	0.677	0.185	0.523	0.601	0.868
375.0	45.56	108.5	156.9	234.4	320.5	346.7	357.8	313.3	296.9	234.7	177.5	146.7	144.2	139.4	138.4	135.6	132.8	132.2	131.2	129.7	125.9	139.2	187.1	201.9	99.87	62.19	51.54	53.32	130.3	397.5	950.6	 2900	 1300	65.02	3.192	1.746	1.530	0.392	0.785	1.035	1.354	1.085	0.314	1.080	0.569	1.159	0.577	1.293	1.190	0.822	1.297	0.336	0.745	0.959	1.105	1.357	0.905	1.821	0.598	1.171	1.625	0.286	1.272	0.741	0.765	0.952	0.788	0.392	0.336	0.547	0.616	1.029	0.611	0.659	0.292	0.596	1.020
380.0	52.95	97.59	162.7	214.2	293.2	332.6	335.0	309.3	275.1	214.1	174.0	146.2	152.0	139.4	140.6	142.9	143.3	139.3	137.7	138.8	127.9	132.0	137.0	217.4	165.9	78.99	60.77	46.55	56.55	106.5	237.1	 1485	 3049	974.7	25.26	2.291	2.014	1.144	0.778	1.556	0.864	1.974	0.963	0.919	1.111	0.738	0.506	0.871	1.040	1.298	0.776	0.731	0.809	0.852	1.117	1.387	1.339	1.133	0.526	1.371	0.847	0.671	1.309	0.934	1.227	0.774	1.193	0.987	0.691	0.371	0.329	0.303	0.717	0.897	0.582	0.484	0.232
385.0	103.0	124.0	121.1	230.0	298.6	327.2	345.6	307.4	278.4	211.0	173.4	153.4	144.1	137.7	142.2	144.4	145.7	141.6	144.4	143.5	138.3	128.1	129.9	166.0	222.6	124.4	65.57	50.68	43.48	46.85	70.90	382.5	 1919	 2845	179.9	8.393	2.663	1.130	0.870	1.072	1.374	1.137	0.840	0.846	0.925	0.477	1.269	1.376	0.887	1.420	0.787	0.990	0.982	0.935	1.446	1.180	0.941	1.468	0.629	1.450	0.873	0.734	0.797	0.867	0.921	1.422	0.950	0.963	0.433	0.105	0.688	0.333	0.871	0.687	0.912	1.233	0.534
390.0	46.95	82.09	118.0	183.1	273.3	296.9	301.3	303.2	256.4	222.6	174.4	149.6	146.8	143.5	148.2	144.8	143.2	149.1	148.9	149.4	143.6	134.4	132.1	134.8	174.1	193.5	114.6	64.66	50.88	41.79	40.47	102.1	491.5	 1566	 2169	702.5	51.72	1.688	0.905	1.284	1.307	0.849	1.467	0.937	0.986	0.842	0.857	0.758	1.089	1.389	0.632	0.915	0.939	1.078	1.109	1.014	1.176	1.679	1.503	1.073	0.849	1.011	1.139	0.607	0.947	0.581	0.790	0.884	0.405	0.492	0.859	0.307	0.550	0.916	0.877	0.715	0.841
395.0	56.18	66.17	117.8	191.7	212.1	276.7	271.6	263.8	234.0	214.7	191.1	156.6	149.8	150.1	141.3	155.1	147.6	145.3	155.2	148.3	150.0	140.9	137.9	129.0	131.9	162.2	187.9	102.5	58.54	47.20	38.34	48.89	126.1	364.0	920.7	 2464	 1071	56.29	2.593	1.514	1.609	1.541	1.334	1.029	0.553	0.827	0.677	0.665	0.678	0.474	0.788	0.912	0.918	1.499	1.044	0.998	1.646	1.240	1.486	1.314	1.029	1.048	1.446	0.635	0.699	0.630	0.959	0.900	1.219	0.389	1.105	1.058	0.692	1.273	0.958	0.813	0.764
400.0	44.94	88.32	141.0	219.6	188.2	240.8	252.2	228.9	231.6	221.8	176.0	148.8	152.9	147.1	146.6	148.1	150.7	150.3	149.1	147.3	156.3	145.2	143.2	134.3	127.3	133.9	180.1	156.0	75.91	56.64	46.93	40.24	47.95	97.07	226.4	 1234	 2527	805.8	23.15	1.501	1.269	1.190	1.075	0.951	0.734	1.003	0.652	0.784	1.149	0.792	0.600	0.983	1.281	0.892	1.346	0.851	0.776	0.644	1.525	0.971	0.967	0.468	1.420	1.116	0.481	0.743	1.501	1.059	0.641	0.717	1.283	1.534	1.107	1.324	1.149	0.586	0.543
405.0	76.30	71.79	133.8	192.8	193.9	248.9	240.0	202.1	225.1	196.4	164.8	159.5	153.3	149.3	147.4	146.1	153.4	146.2	150.4	156.5	156.3	147.8	144.3	136.5	129.3	128.4	146.4	183.9	121.5	64.82	52.94	41.97	34.12	39.99	64.08	311.0	 1521	 2329	153.7	7.418	2.182	0.921	1.358	1.159	0.605	1.616	0.289	0.343	0.971	1.265	0.573	0.852	0.864	1.401	1.072	0.598	0.560	1.337	0.986	1.297	1.140	1.158	0.870	0.302	0.734	0.814	1.144	0.682	0.924	0.850	0.809	0.702	1.056	0.460	0.362	0.267	0.053
410.0	44.09	50.74	144.0	175.4	196.0	224.6	221.6	209.4	198.0	184.1	173.8	160.7	149.4	156.7	148.7	149.0	150.0	149.5	150.4	154.8	152.0	149.3	144.3	139.3	129.5	124.0	122.1	146.4	161.1	107.5	65.15	47.63	37.32	30.97	30.80	82.41	383.5	 1257	 1805	636.6	44.98	2.188	1.403	1.227	0.972	1.217	0.431	0.648	0.652	1.161	0.856	0.833	0.693	0.974	1.044	0.998	1.073	1.019	0.575	1.043	1.241	0.878	0.772	0.760	0.693	0.628	0.797	0.555	0.839	0.552	0.824	0.718	0.679	0.878	0.544	0.201	0.767
415.0	41.99	89.40	158.3	145.7	159.5	180.3	197.4	211.2	178.5	166.2	167.1	157.2	150.9	139.5	146.1	142.0	144.0	141.1	149.0	145.7	151.8	142.3	143.4	141.0	132.4	127.6	117.6	118.7	133.8	155.5	91.64	56.28	42.85	31.12	27.77	33.43	94.86	289.2	712.0	 1987	944.6	51.45	1.247	1.975	2.537	0.459	1.383	0.627	1.275	0.882	0.856	0.602	0.538	0.502	0.777	1.236	1.062	1.150	1.079	1.067	0.789	1.254	0.849	0.633	0.543	0.799	0.783	0.212	1.029	0.602	0.757	0.503	0.259	0.599	0.973	0.686	0.186
420.0	72.36	75.56	129.2	159.4	159.2	180.7	184.0	185.6	166.4	160.0	168.8	162.9	151.3	152.8	142.1	136.7	136.3	133.2	143.8	145.1	146.0	139.5	138.6	135.0	132.5	125.9	116.3	106.9	110.4	146.2	130.6	72.57	49.08	33.78	29.01	23.85	33.38	73.45	172.4	948.9	 2084	709.6	18.91	2.363	2.098	0.796	1.573	0.955	0.786	1.020	1.159	0.593	0.559	0.622	0.534	1.094	0.844	0.834	0.687	0.803	0.581	0.752	0.967	0.035	0.417	0.244	0.366	0.320	1.114	0.882	0.939	1.116	0.871	0.993	0.739	0.845	0.960
425.0	101.1	109.5	108.0	155.1	147.7	158.5	178.6	181.4	148.1	163.6	172.2	151.4	150.0	151.7	142.8	135.8	131.1	127.6	141.8	141.1	134.9	138.4	139.6	132.1	128.7	123.3	113.8	106.8	100.6	117.4	148.4	98.98	55.13	39.23	29.16	23.84	20.84	26.09	46.93	235.7	 1198	 1907	139.9	6.492	2.305	1.554	1.383	0.949	0.696	1.021	1.095	0.853	0.655	0.834	0.926	0.772	0.760	0.441	1.176	0.803	1.198	0.622	1.196	1.103	0.308	0.124	0.896	1.271	0.418	0.759	0.847	0.998	0.713	0.986	0.754	0.507	0.405
430.0	98.28	84.96	87.51	135.6	143.5	159.9	162.4	168.0	162.2	170.2	168.5	160.7	144.2	143.2	135.1	133.1	132.3	125.6	127.4	134.3	134.5	133.0	134.9	126.4	127.9	124.7	116.5	110.4	101.8	100.6	117.7	126.4	86.47	49.82	34.63	26.12	21.33	18.10	20.22	60.00	296.9	976.7	 1227	554.8	43.18	1.810	1.273	0.921	1.275	1.094	1.001	0.982	0.686	1.026	0.579	0.674	0.701	0.926	0.918	0.965	1.076	0.861	0.764	0.754	0.558	0.384	0.802	0.627	0.993	0.575	0.721	0.693	0.418	0.579	0.717	0.816	0.980
435.0	117.5	69.98	95.32	116.3	153.9	129.1	175.6	154.8	141.5	162.3	151.8	151.0	152.6	137.6	122.6	127.0	131.0	118.2	125.2	127.9	131.0	129.9	124.8	124.9	126.3	117.5	118.2	108.9	106.0	97.70	91.89	103.7	119.2	74.07	41.58	32.82	25.80	17.50	15.09	21.26	72.98	224.1	523.8	 1624	870.2	52.01	1.462	1.453	1.469	0.787	0.921	0.501	0.795	0.760	0.851	1.088	0.607	0.820	0.639	1.046	0.873	0.564	0.764	0.705	0.572	0.428	0.982	0.863	0.544	0.202	0.350	1.063	0.647	0.977	1.126	0.326	0.525
440.0	96.86	55.15	114.1	118.8	116.6	124.9	173.4	168.9	158.4	146.9	160.1	158.4	151.8	141.9	129.3	126.5	125.5	120.9	116.9	117.1	119.7	130.3	121.9	121.4	118.5	117.3	116.0	114.6	104.4	96.73	87.01	89.30	111.0	100.9	53.97	32.72	26.68	20.58	16.21	15.21	24.44	55.94	125.8	800.4	 1828	677.3	20.16	2.199	1.410	1.083	0.804	0.549	1.025	0.800	0.920	0.376	0.927	0.801	1.318	1.080	0.576	0.254	0.603	0.565	0.582	1.099	0.656	0.998	0.635	0.122	0.632	1.026	1.035	0.459	0.729	0.563	0.842
445.0	81.18	144.0	82.11	110.6	113.2	140.6	165.0	160.5	166.9	152.5	164.4	151.3	154.6	136.9	135.7	118.2	118.8	112.5	112.1	114.1	114.5	122.4	116.1	117.0	118.0	116.5	112.5	109.4	102.7	99.29	90.56	84.95	89.88	108.8	73.42	39.30	29.07	23.50	19.21	15.71	15.02	18.96	33.47	198.6	 1063	 1785	115.8	7.891	0.984	0.903	1.317	0.908	0.796	0.961	0.961	0.422	0.733	0.648	1.467	0.821	0.558	0.397	1.025	0.756	0.584	0.408	0.701	0.896	0.862	0.957	0.932	0.822	0.752	0.692	0.448	0.502	1.118
450.0	53.81	153.2	138.4	114.7	126.9	121.9	142.8	145.6	147.2	158.7	157.9	161.6	148.9	132.9	130.5	114.1	110.9	110.2	103.6	108.2	105.7	112.5	107.9	114.1	111.8	111.1	108.6	104.8	101.2	96.81	90.20	82.16	74.19	83.01	88.45	61.76	36.22	26.34	20.93	17.56	13.91	11.90	13.89	49.60	264.2	919.8	 1411	491.8	36.57	1.686	1.492	0.993	0.701	1.137	1.109	0.740	1.133	0.849	1.081	0.802	0.550	0.612	0.985	0.999	0.809	0.824	0.462	0.466	0.785	0.897	0.762	0.686	0.819	0.570	0.304	0.688	0.783
455.0	37.74	129.9	311.8	130.1	119.0	106.8	136.1	161.7	136.5	150.8	157.0	144.6	131.4	122.8	124.1	115.9	105.7	101.6	107.8	104.4	96.20	99.57	97.99	101.4	101.1	104.9	100.7	100.8	97.28	97.75	90.30	81.30	73.88	68.61	71.27	79.44	52.96	29.71	21.83	18.82	14.38	11.94	10.06	16.26	63.20	209.7	527.9	 1549	739.6	38.75	1.624	1.294	0.653	0.636	0.767	0.846	1.217	1.011	0.994	1.015	0.424	0.700	0.617	0.752	0.570	0.761	0.452	0.752	0.635	0.700	0.403	1.022	0.698	0.717	0.426	1.040	0.794
460.0	87.21	66.56	384.8	220.4	110.5	124.3	135.5	153.1	141.2	144.0	141.6	131.0	137.2	124.4	114.9	108.3	97.76	90.99	97.55	96.42	90.35	95.15	96.05	94.60	98.93	98.31	99.27	95.06	93.98	88.47	88.36	80.07	71.15	65.22	59.23	70.76	67.95	37.33	24.16	18.85	17.35	11.89	10.12	9.307	18.88	50.45	125.5	738.4	 1768	518.8	16.39	1.785	1.113	1.096	0.390	0.703	1.527	1.050	0.813	0.800	0.282	0.415	0.790	0.835	0.683	0.691	0.510	0.926	0.530	0.981	0.505	0.514	0.673	0.471	1.112	1.083	0.665
465.0	47.30	72.43	302.5	431.0	107.9	137.2	133.7	126.6	132.7	120.9	132.9	130.5	128.4	117.0	114.8	99.73	93.30	93.97	93.44	90.61	87.84	85.35	94.51	91.51	89.64	89.24	91.24	91.42	87.74	84.41	84.15	75.96	69.99	58.84	56.06	55.27	71.22	48.54	30.59	19.94	16.03	13.41	11.09	8.565	9.376	15.80	31.09	180.6	 1049	 1554	92.50	4.080	1.375	0.890	1.027	1.088	1.354	0.875	0.639	0.458	0.509	1.053	0.838	0.745	0.753	0.998	0.642	0.535	0.712	0.980	1.153	0.820	0.213	0.251	0.759	0.316	0.820
470.0	58.05	69.95	142.7	492.2	321.3	109.0	114.6	113.4	121.7	119.5	127.4	123.9	123.6	112.2	105.1	90.56	80.81	79.90	78.16	78.33	77.15	79.68	82.15	81.92	80.90	80.12	80.15	81.61	80.30	77.21	75.77	69.77	65.45	57.06	52.65	46.76	53.63	56.00	40.19	23.85	17.13	13.37	11.32	8.700	6.864	7.311	10.09	43.22	259.0	840.1	 1075	425.2	27.32	1.057	1.129	1.086	0.968	0.881	0.664	0.504	0.589	1.378	0.609	0.465	0.753	0.698	0.563	0.472	0.835	0.697	0.798	0.657	0.620	0.503	0.467	0.558	0.728
475.0	49.96	70.49	97.07	284.2	613.8	153.2	116.5	96.60	104.0	104.7	115.7	114.7	112.6	101.0	92.39	78.69	79.28	72.74	72.92	70.94	71.41	68.44	68.25	70.84	72.64	73.81	71.63	74.65	72.11	70.42	70.17	64.43	61.25	52.70	48.99	42.22	41.99	45.10	47.42	30.08	17.95	13.72	11.89	8.489	6.777	6.082	5.278	12.14	60.70	190.5	417.1	 1115	564.4	24.66	1.303	1.245	0.786	0.491	0.089	0.455	0.821	1.081	0.629	1.137	0.828	0.670	0.455	0.352	0.768	0.166	0.304	0.430	0.658	0.379	0.691	0.952	0.721
480.0	69.46	45.17	71.82	143.7	642.0	356.4	91.43	109.5	99.16	99.35	101.9	111.7	107.7	99.81	79.33	71.83	68.95	66.63	65.89	65.25	65.50	63.58	60.36	66.64	68.59	66.66	64.55	68.83	68.71	67.08	66.20	63.32	57.68	51.71	46.04	39.84	36.34	33.84	43.79	40.97	21.62	14.36	12.14	8.973	7.047	6.049	4.404	6.101	15.81	44.72	97.82	555.0	 1190	113.4	8.412	1.797	1.613	1.267	0.312	0.582	0.534	0.914	0.441	0.849	0.663	0.342	0.734	0.568	1.392	0.975	0.263	0.044	0.837	0.476	0.111	0.924	0.746
485.0	58.39	75.09	77.56	88.59	455.8	630.4	99.94	105.0	90.69	102.7	101.6	102.8	106.0	91.66	78.30	74.15	62.44	61.10	63.10	54.91	56.68	58.41	56.04	62.34	62.75	62.62	62.22	62.78	63.04	62.81	62.29	58.97	55.86	47.79	44.21	36.88	33.56	29.47	36.29	42.00	29.12	15.94	12.64	9.436	8.172	5.842	4.282	3.921	6.137	12.05	23.34	137.9	740.2	888.3	91.91	2.938	1.215	1.651	0.970	0.582	0.988	1.296	0.879	1.123	1.006	0.622	1.071	0.456	0.908	0.729	0.633	1.077	0.860	0.627	0.494	0.407	0.579
490.0	39.69	42.02	65.44	64.91	178.3	698.9	378.3	92.35	85.60	104.5	96.14	95.56	94.63	78.90	71.38	67.84	59.73	53.44	53.76	54.15	51.62	54.20	54.12	55.19	56.16	58.27	56.41	57.33	57.72	56.70	55.11	54.06	49.68	44.45	41.38	36.05	31.28	28.97	27.43	31.62	35.14	21.86	12.59	9.023	7.941	5.800	5.191	3.938	3.814	5.026	7.073	32.74	184.8	569.4	838.5	377.8	22.34	1.520	0.748	0.967	0.980	1.027	0.763	0.477	0.450	0.770	0.963	0.764	0.499	0.677	0.702	0.673	0.492	0.658	0.564	0.261	0.773
495.0	19.66	29.73	68.26	84.59	99.07	323.6	812.0	139.7	90.13	92.81	97.42	81.65	77.86	73.49	64.88	58.16	56.09	45.55	47.42	48.42	45.70	47.31	48.24	51.40	48.69	49.77	49.90	52.37	52.50	52.58	49.99	48.54	47.13	42.02	37.47	34.21	29.72	26.89	22.83	21.92	27.17	30.15	17.73	9.334	8.102	6.176	4.945	4.405	3.744	3.319	3.937	9.420	42.51	129.4	377.7	 1068	504.2	16.98	1.411	0.819	0.746	1.039	0.695	0.749	0.420	0.665	1.422	0.689	0.290	1.206	0.745	0.473	0.641	0.291	0.419	0.992	0.324
500.0	31.35	33.81	42.03	92.43	62.77	142.2	740.7	385.9	80.13	75.58	74.85	83.08	73.13	79.86	66.33	54.08	51.91	44.60	41.96	46.99	41.57	45.06	44.31	43.39	45.02	45.09	47.13	47.93	47.77	48.00	47.94	45.19	44.04	37.89	33.50	31.38	26.85	24.84	20.61	19.51	18.50	26.68	23.13	10.86	8.299	6.302	4.593	4.433	3.643	3.100	2.645	4.200	11.13	29.95	90.59	568.3	 1144	110.4	5.209	1.425	0.606	0.809	0.832	0.872	0.262	0.766	0.834	0.827	0.848	0.222	0.401	1.550	0.457	0.063	0.401	0.639	0.675
505.0	39.81	37.03	37.36	84.44	66.23	94.77	453.0	722.2	94.19	71.55	67.25	71.39	74.83	71.27	55.32	47.08	43.86	43.62	38.45	42.41	39.97	38.06	41.42	40.16	38.78	42.17	41.82	43.56	42.95	42.11	42.54	42.73	39.31	37.45	32.35	30.09	25.38	22.71	20.37	17.07	17.05	20.00	25.01	15.58	9.016	6.135	4.817	4.116	3.734	2.587	2.433	2.263	4.305	7.541	21.59	145.0	779.7	887.5	88.50	2.414	0.995	1.237	0.771	0.912	0.250	0.500	0.460	1.165	0.685	0.760	-0.181	0.846	0.371	0.801	0.519	0.316	0.383
510.0	38.10	56.68	47.81	79.66	83.72	68.94	181.2	783.1	411.0	67.95	65.56	65.02	61.41	57.54	46.67	46.18	40.01	37.52	33.55	37.27	33.93	34.55	34.22	35.50	33.69	37.80	36.00	37.46	36.87	39.03	39.44	37.99	36.17	32.54	27.49	26.65	23.54	21.23	18.47	16.40	14.44	14.18	18.37	19.26	12.48	7.269	4.598	3.966	3.565	3.022	2.071	2.593	3.022	2.411	6.327	33.82	200.5	596.3	801.5	303.8	15.63	1.324	1.218	0.549	0.335	0.527	0.565	0.745	0.363	0.450	0.472	0.704	0.407	0.721	0.516	0.283	0.368
515.0	45.56	65.41	50.10	50.02	92.28	58.17	77.00	372.9	838.8	134.5	54.31	49.05	56.26	52.30	45.91	42.19	35.69	30.42	31.79	30.41	27.09	30.34	31.27	30.26	28.58	30.09	31.36	31.13	30.97	34.01	34.69	31.27	31.45	28.28	24.92	23.02	21.62	18.11	16.14	14.20	12.25	10.71	10.71	15.00	15.98	9.451	5.605	4.615	2.632	3.141	2.042	2.751	1.839	1.399	2.304	8.881	46.39	135.4	379.8	934.5	368.6	9.366	1.540	0.591	0.609	0.764	0.282	0.583	0.560	0.391	0.523	-0.252	0.282	0.674	0.296	0.170	-0.009
520.0	48.52	62.98	33.29	33.06	81.41	38.59	56.82	137.3	797.6	411.2	53.56	46.78	59.46	48.19	42.39	34.60	32.24	28.82	28.59	25.37	23.16	25.77	27.20	28.43	25.40	26.27	28.44	29.45	27.93	29.97	26.99	28.04	27.55	24.04	21.87	20.02	20.96	16.17	14.10	13.95	11.17	9.227	9.939	10.67	14.42	13.17	6.905	4.332	2.997	2.634	2.300	1.948	1.903	1.388	1.307	3.581	11.56	30.98	91.95	534.2	890.0	98.84	2.339	0.553	0.142	0.358	1.051	0.776	0.842	0.350	0.254	0.292	0.599	0.656	-0.018	0.231	0.112
525.0	44.77	46.55	34.11	25.40	63.32	65.40	46.09	62.44	472.0	763.1	80.31	49.09	47.11	46.24	35.95	28.48	30.05	24.13	23.34	20.81	20.06	23.91	23.62	24.25	24.06	24.48	25.68	27.11	24.81	26.77	25.31	24.30	23.88	23.38	20.44	18.41	16.23	15.43	12.41	12.71	10.03	8.895	8.205	7.466	11.46	14.00	9.480	4.359	3.316	2.791	2.701	1.796	1.722	1.979	1.173	2.099	3.318	7.795	22.20	139.0	638.2	713.8	69.98	1.747	0.857	0.532	0.884	0.295	0.745	0.189	0.448	0.105	0.361	0.627	0.220	-0.112	0.472
530.0	58.04	58.01	26.43	46.04	53.73	65.42	52.74	50.57	165.3	727.9	407.6	42.36	38.75	39.36	34.61	25.71	27.44	25.17	21.37	21.01	21.21	20.54	20.87	19.70	21.44	23.48	21.33	22.55	21.20	22.55	23.28	21.60	20.43	21.11	18.71	16.19	15.44	13.82	11.28	11.55	9.685	8.097	7.462	5.855	7.313	10.21	12.01	6.920	3.973	2.316	2.301	1.706	1.616	1.849	1.454	1.149	1.823	2.522	5.892	32.11	166.3	480.7	584.0	204.1	8.897	0.782	0.556	0.839	0.558	0.756	0.247	0.554	0.478	0.461	0.488	0.027	0.705
535.0	82.70	48.10	16.57	50.50	41.43	68.21	57.44	37.79	71.17	308.7	799.9	128.6	33.93	34.60	25.27	20.82	23.55	21.59	19.77	19.00	18.36	17.21	17.60	16.18	17.61	18.59	19.06	19.52	18.78	18.89	20.41	19.14	16.61	18.29	16.55	14.15	13.40	11.89	10.58	10.11	7.738	6.551	6.561	5.542	5.767	5.734	9.587	9.624	5.115	2.713	2.092	2.430	1.744	1.184	1.322	1.320	1.083	1.523	1.963	8.284	37.93	109.6	290.9	672.3	106.1	4.715	0.407	0.394	0.562	0.544	0.854	0.565	0.221	0.311	0.227	0.203	0.651
540.0	51.04	44.26	51.62	31.25	44.39	44.95	78.91	49.00	45.11	112.3	778.4	359.1	30.47	36.81	30.22	18.42	23.35	16.95	17.09	16.71	15.98	16.55	16.77	15.34	15.11	16.48	16.32	18.21	15.84	17.17	17.51	16.72	15.62	14.78	14.17	14.08	11.36	11.47	9.042	7.926	7.387	6.775	5.533	4.887	4.733	5.062	6.495	9.629	7.538	3.319	2.355	2.097	1.844	1.689	1.579	1.354	1.175	0.675	1.356	2.558	9.491	24.81	71.82	399.5	592.8	83.15	1.331	0.347	0.817	0.513	0.275	1.196	0.599	0.515	0.464	0.581	0.303
545.0	39.43	52.30	49.90	43.34	30.14	33.37	63.62	48.09	37.20	66.08	426.8	685.2	56.51	31.53	26.83	15.52	18.90	16.99	17.09	16.57	14.29	13.91	14.19	12.28	12.95	13.83	13.22	15.52	14.40	14.44	17.43	14.39	14.69	13.78	13.11	12.54	11.34	9.782	8.057	8.075	8.266	5.980	5.146	4.860	3.565	4.532	4.564	7.346	8.655	4.574	2.050	1.398	1.824	1.587	1.584	0.706	1.042	0.965	0.922	1.828	3.302	5.839	17.12	106.9	469.2	488.2	50.87	0.461	0.545	0.345	0.550	0.311	0.585	0.437	0.249	0.476	-0.041
550.0	45.54	30.42	8.747	37.95	34.54	18.49	51.86	54.35	31.65	38.62	135.7	645.3	322.2	28.00	18.87	17.16	19.00	13.16	12.19	13.51	11.97	11.48	12.82	9.943	11.67	11.94	10.57	11.76	12.01	13.86	13.09	11.38	10.46	10.63	9.489	9.903	8.563	8.612	6.860	6.048	6.156	5.149	5.330	4.337	3.767	3.196	3.253	4.372	6.712	6.614	3.265	1.728	1.669	1.183	1.570	0.391	1.416	1.136	0.954	1.150	1.703	2.241	4.386	24.47	124.3	342.9	399.6	66.39	4.118	0.312	0.698	0.413	0.658	0.588	0.462	0.323	0.285
555.0	-3.082	26.62	27.13	35.80	30.34	25.34	30.56	61.04	32.26	28.00	45.76	253.4	674.4	77.77	14.78	14.53	12.72	12.74	11.44	9.827	10.06	8.805	8.687	9.611	9.249	8.232	8.801	9.643	11.44	10.67	10.38	8.577	8.797	9.729	8.796	8.051	7.403	5.916	6.297	5.502	4.648	4.432	4.867	3.017	3.611	2.522	2.589	2.424	3.295	5.641	5.193	2.222	1.533	1.158	1.120	0.789	1.145	1.014	1.285	0.585	1.050	0.959	1.308	6.001	27.83	78.24	214.6	424.8	89.93	2.287	0.833	0.693	0.732	0.742	0.512	0.477	0.238
560.0	54.76	36.25	48.52	27.57	36.51	14.05	20.93	45.42	47.34	19.76	27.31	86.73	577.3	275.8	16.20	17.75	10.80	12.43	9.741	11.81	11.23	7.408	8.448	8.644	8.411	7.723	7.668	9.174	8.405	9.149	9.777	6.938	8.402	7.046	6.249	7.361	6.151	5.298	6.600	4.836	4.227	4.989	4.054	3.399	2.382	2.786	2.404	2.554	2.077	3.573	5.004	3.988	1.795	1.020	1.163	1.319	1.405	1.148	1.227	0.547	0.674	0.467	0.453	1.844	6.458	17.91	54.29	272.5	370.2	60.78	1.136	0.730	0.502	0.343	0.901	0.422	0.517
565.0	38.73	33.35	23.80	26.43	18.11	18.37	21.95	41.62	63.65	34.37	28.84	39.23	310.1	514.1	32.34	16.94	7.272	9.237	7.719	9.820	8.944	6.626	5.284	6.907	5.690	7.591	8.652	7.369	8.004	8.767	7.875	7.569	7.869	7.356	5.219	5.785	5.172	4.291	5.293	4.388	3.513	4.554	2.998	2.832	2.165	2.135	2.018	1.974	1.614	2.865	3.533	3.923	2.123	1.038	1.444	0.675	0.907	0.988	0.508	0.493	0.863	0.544	0.642	0.630	2.047	4.386	12.66	75.36	311.1	284.6	29.29	0.829	0.179	0.235	0.511	0.542	-0.047
570.0	43.40	38.43	25.45	18.90	18.90	17.49	19.06	27.58	53.76	41.15	19.83	21.82	93.34	499.5	246.8	13.20	5.545	10.57	6.891	9.574	7.616	5.041	5.883	5.874	6.130	6.812	7.672	5.995	5.564	7.201	7.533	5.991	5.898	5.849	5.015	4.186	4.626	4.039	3.891	4.043	3.525	3.349	2.489	1.422	1.581	1.472	1.924	1.792	1.520	1.443	2.152	3.249	2.918	1.502	1.088	0.582	0.078	0.529	0.772	0.416	0.925	0.867	0.395	0.330	1.126	1.502	3.099	17.39	85.14	217.1	188.2	52.21	2.762	0.459	0.359	0.724	0.348
575.0	49.52	73.62	34.57	18.96	15.73	12.41	22.50	32.56	38.00	53.62	22.49	16.62	24.21	185.0	508.6	54.55	5.455	10.92	7.025	7.285	6.453	5.632	3.544	5.270	5.498	3.871	5.058	3.716	5.260	4.791	6.181	6.247	4.586	4.914	4.030	3.068	3.770	3.194	2.561	2.609	2.779	2.299	1.991	1.969	2.079	1.438	1.576	2.091	1.156	1.437	1.168	1.887	3.204	2.258	1.548	0.589	0.355	0.608	0.350	0.239	0.586	0.544	0.818	0.403	0.280	0.740	1.497	4.237	19.73	49.89	120.9	248.0	72.59	1.984	0.544	0.353	0.544
580.0	13.78	53.48	39.10	18.10	6.420	13.87	26.15	22.66	28.78	61.51	31.07	20.00	17.83	54.30	459.3	218.4	5.775	7.832	4.435	6.747	4.539	4.958	4.546	2.575	5.467	4.746	4.184	3.791	4.580	3.161	4.067	5.187	5.092	4.714	4.497	2.538	2.868	2.831	2.904	2.548	2.239	1.745	1.684	1.296	2.341	1.823	1.244	0.778	0.956	0.927	1.028	1.143	2.083	2.756	0.915	0.600	0.653	1.082	0.110	0.958	0.621	0.706	0.365	0.337	0.377	0.600	0.423	1.198	4.427	11.67	31.07	166.2	223.7	38.93	1.094	0.653	0.115
585.0	62.01	26.26	39.48	22.56	9.470	23.49	36.54	21.24	21.05	43.94	40.56	17.36	15.95	23.19	247.1	414.3	19.43	5.266	4.581	5.595	3.464	3.926	3.832	2.477	5.695	4.154	3.268	2.597	3.089	3.525	3.767	3.479	4.642	3.556	3.588	2.751	3.771	2.589	2.681	2.815	1.986	1.700	2.467	1.630	2.225	1.331	1.050	0.792	0.884	0.618	0.902	0.967	1.240	2.340	1.515	1.074	0.333	0.397	0.041	0.976	0.544	0.621	0.370	0.134	0.930	0.754	0.495	0.580	1.335	2.983	7.186	46.26	177.9	120.5	20.70	1.160	0.247
590.0	52.20	10.60	37.40	14.73	11.83	23.11	24.29	10.01	18.99	27.81	52.92	20.26	15.70	15.02	71.81	373.8	163.0	7.982	4.232	3.115	2.868	3.352	3.146	1.227	4.702	3.291	3.028	2.654	2.631	3.144	3.094	2.704	3.334	3.164	2.566	2.779	2.307	1.716	1.634	1.821	1.866	1.236	1.308	1.269	1.589	1.349	1.096	0.717	0.626	0.638	0.724	0.607	0.840	1.492	1.973	1.591	0.648	0.392	0.274	0.734	0.403	0.425	0.490	0.375	0.741	0.727	0.235	0.141	1.024	0.785	1.839	10.91	48.19	115.9	131.5	41.44	1.492
595.0	47.06	49.15	35.14	28.51	14.56	23.99	26.94	13.75	12.32	28.78	48.35	36.24	12.45	7.863	20.59	135.4	354.5	37.16	4.647	3.661	3.494	3.647	2.035	1.873	3.054	1.890	3.032	3.428	1.872	3.507	3.162	3.325	1.827	2.921	1.959	1.633	1.233	1.718	1.731	1.620	1.378	1.443	1.418	1.170	1.667	0.829	1.088	0.801	0.883	0.295	0.625	0.753	0.489	0.711	0.572	2.200	1.078	0.823	0.627	0.141	0.879	0.317	0.209	0.529	0.768	0.415	-0.165	0.838	0.748	0.721	0.450	2.789	11.34	26.99	71.89	154.8	49.26
600.0	58.12	51.45	46.44	42.58	17.98	19.17	24.57	24.92	6.998	13.66	22.13	51.17	18.54	7.303	12.85	41.60	308.4	137.7	5.029	2.074	2.691	3.579	3.461	1.226	5.224	1.805	2.286	3.200	2.392	2.725	2.657	2.578	1.946	2.502	1.594	1.256	1.237	1.090	1.134	1.288	2.310	1.763	1.955	0.936	0.835	0.657	1.022	1.174	0.663	0.998	0.006	0.558	0.283	1.066	0.427	1.367	1.546	1.040	0.853	0.246	0.540	0.540	0.556	0.552	0.541	0.521	0.478	0.508	0.186	0.338	0.156	0.919	3.058	6.583	18.52	95.21	127.9
605.0	43.05	36.82	30.63	28.87	17.66	30.29	17.74	14.08	14.29	19.60	18.10	45.55	17.96	8.779	10.03	10.66	155.9	270.9	14.82	2.998	4.303	2.803	2.051	1.754	2.039	2.205	1.968	2.072	2.678	1.715	1.990	1.448	1.562	1.742	1.539	1.736	1.078	1.216	1.625	1.033	1.717	0.565	1.078	1.245	0.868	0.677	1.139	1.103	0.905	0.943	0.393	0.552	0.100	0.655	0.503	0.952	0.721	1.134	0.737	0.399	0.788	0.572	0.136	0.669	0.374	0.394	0.549	0.257	0.147	0.606	0.755	0.347	0.681	1.580	4.501	26.22	100.5
610.0	67.54	36.82	46.28	37.80	20.39	12.79	17.97	4.368	16.20	16.02	9.137	28.20	37.87	14.25	6.804	7.571	43.89	258.5	123.8	3.774	3.334	3.839	1.192	2.476	2.386	3.197	1.995	1.778	0.649	2.207	2.254	1.629	1.509	1.380	1.206	1.543	0.918	1.692	1.520	0.753	0.899	1.022	0.789	1.137	0.245	0.354	0.696	0.823	0.479	0.631	0.300	0.556	0.099	0.502	0.487	0.663	0.562	1.223	0.940	0.649	0.387	0.373	0.195	0.514	0.772	0.468	0.295	0.372	0.168	0.449	0.403	0.261	0.898	0.429	1.135	6.298	27.02
615.0	44.35	28.38	50.05	22.65	8.006	14.71	5.559	6.901	15.30	14.26	10.56	17.13	37.04	17.79	5.596	10.83	11.90	91.84	264.9	25.35	2.737	2.449	2.453	2.605	2.146	2.436	1.258	2.621	1.231	2.531	1.087	1.919	1.729	1.318	1.422	2.316	1.527	1.159	0.930	0.560	0.664	0.612	0.890	0.920	0.425	0.791	0.893	0.876	0.447	0.569	0.359	0.363	0.420	0.669	0.182	0.239	0.634	1.008	1.276	1.411	-0.029	0.559	0.583	0.400	0.654	1.020	0.603	0.464	1.067	0.578	0.310	0.158	0.505	0.490	0.356	1.833	6.494
620.0	38.83	22.61	38.99	28.11	28.24	19.21	6.244	13.95	-2.248	19.40	6.730	17.26	35.71	25.60	10.57	5.340	5.425	25.09	234.5	108.0	4.226	1.866	0.372	2.185	2.233	2.329	1.276	2.209	0.705	2.743	1.123	1.699	2.128	1.422	1.651	2.053	0.967	0.822	1.485	0.626	0.739	0.916	0.252	0.560	0.665	0.954	0.715	0.878	0.585	-0.015	0.419	0.022	0.700	0.807	0.299	0.544	0.882	0.773	0.878	0.857	0.572	0.756	0.384	0.421	0.632	0.854	0.579	0.103	0.325	0.619	0.165	0.216	0.496	0.061	0.356	0.329	2.180
625.0	29.08	40.72	33.15	5.871	9.594	4.543	13.32	3.028	0.242	21.15	4.663	13.22	20.30	23.56	11.03	8.290	4.784	5.626	114.2	212.3	8.308	2.177	1.964	3.261	1.770	2.599	2.034	1.305	1.345	1.825	0.058	0.932	1.679	0.467	1.468	1.182	0.830	0.077	1.098	0.236	1.020	1.323	1.408	0.425	1.095	0.564	0.761	0.981	0.292	0.074	0.467	0.073	0.438	0.559	0.363	1.060	-0.096	0.651	0.960	1.002	0.724	1.085	0.149	0.286	0.422	0.485	0.751	0.833	0.285	0.177	0.291	1.031	0.465	-0.278	0.387	-0.043	1.342
630.0	44.05	16.41	12.28	5.178	23.07	14.74	28.02	8.697	10.96	6.541	7.414	12.66	16.49	25.87	16.47	6.196	4.469	5.998	34.51	205.0	94.17	3.575	2.400	4.091	0.869	2.261	1.127	1.290	1.173	1.170	0.433	1.324	1.247	0.702	1.544	1.413	1.104	0.713	1.074	1.051	1.022	0.968	0.846	0.938	1.092	0.519	0.897	0.692	0.645	0.569	0.388	0.552	0.535	0.095	0.321	0.587	0.099	0.365	0.891	0.713	0.643	0.733	0.552	0.373	0.135	0.479	0.411	0.445	0.243	0.237	0.286	0.542	0.625	0.457	0.761	0.319	0.733
635.0	54.26	46.48	0.797	21.86	30.68	17.99	19.40	8.649	17.22	6.483	9.375	15.76	10.70	19.07	24.26	7.998	5.561	5.300	11.93	77.39	212.3	19.08	2.525	3.392	2.108	0.639	2.068	2.299	1.604	0.770	1.314	1.959	1.650	1.442	1.490	1.219	1.433	0.867	0.818	0.938	1.074	0.460	1.708	0.592	1.057	1.041	0.347	1.086	0.480	0.331	0.321	0.717	0.512	0.147	0.347	0.243	0.407	0.426	0.224	0.757	1.364	0.693	0.889	-0.039	-0.115	0.996	0.163	0.247	0.150	0.514	-0.014	0.361	0.039	0.490	0.264	0.217	0.515
640.0	53.22	75.04	28.84	18.71	17.38	3.498	8.663	2.365	10.56	6.683	8.412	10.31	5.252	16.47	24.57	9.096	4.576	4.812	7.413	22.40	201.2	83.00	2.414	1.973	1.781	0.428	2.640	2.206	2.114	1.065	2.200	1.821	0.853	1.964	1.074	0.794	1.161	1.102	0.797	1.235	1.053	0.956	0.392	0.691	0.281	0.409	0.247	0.552	0.471	0.375	0.917	0.606	0.865	0.106	0.464	0.774	-0.281	0.634	0.301	0.558	1.026	0.591	1.129	0.579	0.145	0.015	0.462	0.604	0.518	0.265	0.219	0.466	0.290	0.450	0.170	0.764	-0.337
645.0	52.77	41.74	16.06	24.38	21.05	1.759	8.182	18.21	5.739	6.233	9.561	8.906	8.772	12.97	23.08	19.27	6.431	7.709	5.018	8.161	109.5	184.1	5.085	1.517	1.214	2.106	2.130	1.166	2.609	1.766	1.168	0.373	0.621	0.640	1.427	0.640	1.303	1.233	0.645	0.974	0.820	0.714	1.114	0.796	1.019	0.833	0.599	0.527	0.780	0.463	0.546	0.130	0.269	0.338	0.581	0.033	0.310	0.414	0.510	0.180	0.281	0.257	1.271	0.557	0.107	-0.239	0.113	-0.031	0.810	0.294	0.145	-0.017	0.114	0.145	0.454	0.114	0.151
650.0	33.23	51.61	48.65	41.01	17.79	0.096	17.11	14.06	11.22	17.79	9.477	10.87	12.99	8.019	18.55	20.90	7.380	3.782	4.368	4.256	34.42	209.9	35.01	1.985	1.423	2.116	1.854	0.828	2.185	1.524	0.792	0.959	-0.129	0.302	0.939	1.037	1.326	0.394	1.060	0.449	0.992	1.038	1.307	0.707	0.491	0.999	0.395	0.879	0.343	0.646	0.233	0.122	0.665	0.549	0.727	-0.030	0.311	0.220	1.110	0.523	0.572	0.427	0.666	0.776	0.726	0.443	0.960	0.452	0.552	-0.010	0.508	0.307	0.332	0.230	0.855	0.839	0.357
