Sample:	'1
File name:	t2025042110马四干南闸  4倍.FD3
Run date:	'11:04:48, 04/22/2025
Operator:	Administrator
Comment:	'

Instrument
Model:	F-2700 FL Spectrophotometer
Serial number:	23B8-004
ROM Version:	4J14000 07

Instrument parameters
Measurement type:	3-D scan
Data mode:	Fluorescence
EX  Start WL:	220.0 nm
EX  End WL:	600.0 nm
EX Sampling interval:	5.0 nm
EM  Start WL:	230.0 nm
EM  End WL:	650.0 nm
EM Sampling interval:	5.0 nm
Scan speed:	12000 nm/min
EX Slit:	5.0 nm
EM Slit:	5.0 nm
PMT Voltage:	700 V
Response:	Auto 
Corrected spectra:	Off
Contour interval:	50.000

Peak integration
Integration method:	Rectangular
Sensitivity:	1
Threshold:	1.000

Peaks
No.	ApexEX/EM(nm)	Height(Data)
1	225.0/305.0	4267
2	225.0/340.0	4490
3	225.0/605.0	286.0
4	230.0/495.0	340.9
5	235.0/510.0	274.3
6	240.0/520.0	227.7
7	245.0/535.0	196.0
8	250.0/545.0	169.4
9	255.0/560.0	169.1
10	275.0/305.0	7479
11	275.0/605.0	456.6
12	390.0/305.0	6.326
13	395.0/300.0	6.259
14	415.0/485.0	50.18
15	430.0/505.0	31.79
16	445.0/305.0	10.16
17	445.0/525.0	18.36
18	455.0/335.0	11.64
19	505.0/275.0	3.497
20	555.0/305.0	33.16

Data points
	220.0	225.0	230.0	235.0	240.0	245.0	250.0	255.0	260.0	265.0	270.0	275.0	280.0	285.0	290.0	295.0	300.0	305.0	310.0	315.0	320.0	325.0	330.0	335.0	340.0	345.0	350.0	355.0	360.0	365.0	370.0	375.0	380.0	385.0	390.0	395.0	400.0	405.0	410.0	415.0	420.0	425.0	430.0	435.0	440.0	445.0	450.0	455.0	460.0	465.0	470.0	475.0	480.0	485.0	490.0	495.0	500.0	505.0	510.0	515.0	520.0	525.0	530.0	535.0	540.0	545.0	550.0	555.0	560.0	565.0	570.0	575.0	580.0	585.0	590.0	595.0	600.0
230.0	44.95	1054	4104	1967	116.9	7.382	5.597	5.203	4.359	5.190	4.928	5.351	4.406	3.869	2.959	2.224	2.041	1.761	1.701	1.547	1.333	1.205	1.148	1.041	0.988	0.892	0.836	0.778	0.678	0.641	0.588	0.588	0.529	0.515	0.499	0.431	0.443	0.399	0.361	0.383	0.369	0.456	0.521	0.404	0.358	0.296	0.869	5.652	13.12	12.81	6.260	1.402	0.278	0.247	0.189	0.179	0.211	0.184	0.180	0.159	0.187	0.157	0.160	0.155	0.139	0.153	0.142	0.141	0.129	0.126	0.144	0.134	0.142	0.121	0.090	0.117	0.128
235.0	134.2	285.2	2012	4560	2397	196.3	8.461	7.690	5.313	5.349	5.908	5.955	4.673	3.749	3.124	2.421	2.669	1.851	1.720	1.517	1.388	1.401	1.068	1.049	1.015	0.842	0.900	0.876	0.739	0.670	0.716	0.507	0.532	0.583	0.492	0.432	0.455	0.391	0.320	0.336	0.298	0.324	0.452	0.642	0.530	0.453	0.442	1.568	4.079	8.235	14.08	18.60	11.11	2.936	0.367	0.221	0.220	0.226	0.205	0.188	0.168	0.157	0.144	0.129	0.135	0.136	0.175	0.121	0.135	0.113	0.135	0.158	0.146	0.088	0.138	0.128	0.147
240.0	157.5	175.8	547.9	2986	5367	2178	112.8	8.522	7.033	7.218	6.534	6.325	4.799	4.384	3.464	2.663	2.399	2.152	1.705	1.471	1.408	1.320	1.103	1.291	1.089	0.906	0.875	0.905	0.849	0.795	0.652	0.625	0.576	0.564	0.524	0.502	0.480	0.420	0.339	0.349	0.329	0.299	0.383	0.455	0.557	0.702	0.561	0.692	1.145	2.212	5.830	16.09	25.51	21.80	10.48	2.133	0.286	0.229	0.203	0.173	0.143	0.138	0.157	0.144	0.109	0.135	0.116	0.130	0.152	0.161	0.168	0.147	0.182	0.074	0.146	0.106	0.109
245.0	96.20	224.6	209.2	870.3	4525	6452	446.2	49.85	9.009	8.093	7.675	6.790	6.106	5.034	3.463	3.295	2.527	2.203	1.828	1.822	1.542	1.555	1.325	1.208	1.050	1.146	0.988	0.943	0.895	0.708	0.577	0.597	0.663	0.472	0.624	0.542	0.526	0.351	0.351	0.465	0.364	0.380	0.314	0.340	0.498	0.641	0.763	0.875	0.617	0.783	1.541	4.547	12.58	26.52	29.44	20.28	8.394	0.979	0.275	0.221	0.185	0.181	0.192	0.194	0.130	0.159	0.159	0.155	0.151	0.172	0.179	0.141	0.157	0.096	0.126	0.125	0.152
250.0	44.04	131.6	252.2	313.6	1276	4484	7160	3428	138.1	13.23	10.90	8.704	6.605	5.568	4.400	3.478	2.870	2.492	2.059	1.894	1.658	1.640	1.226	1.302	1.112	1.201	1.072	0.984	0.914	0.806	0.645	0.620	0.611	0.592	0.531	0.496	0.604	0.407	0.359	0.445	0.441	0.376	0.289	0.321	0.390	0.449	0.472	0.726	0.845	0.909	0.905	1.313	3.093	7.322	14.29	23.78	30.24	35.88	16.68	8.209	1.167	0.217	0.203	0.170	0.232	0.218	0.208	0.194	0.159	0.170	0.166	0.132	0.194	0.138	0.152	0.138	0.155
255.0	35.73	51.57	139.5	330.8	416.3	1066	3890	9999.9	2322	183.3	15.89	12.98	10.68	6.800	5.392	3.991	3.758	2.724	2.512	2.167	1.710	1.941	1.176	1.171	1.250	1.183	1.191	1.036	0.971	0.812	0.825	0.704	0.698	0.540	0.667	0.551	0.525	0.497	0.452	0.399	0.512	0.419	0.429	0.433	0.367	0.426	0.421	0.417	0.456	0.738	1.078	1.502	1.365	1.982	3.493	5.660	8.977	23.32	49.31	66.06	26.38	11.02	0.889	0.227	0.289	0.297	0.217	0.197	0.226	0.184	0.168	0.138	0.206	0.137	0.157	0.185	0.181
260.0	37.05	33.57	59.45	234.2	374.8	316.6	1029	6499	9999.9	1996	127.5	17.73	12.62	8.091	6.130	4.684	4.051	2.981	2.802	2.292	1.897	1.919	1.509	1.358	1.547	1.398	1.255	1.129	1.045	0.935	0.800	0.695	0.772	0.678	0.718	0.506	0.559	0.540	0.481	0.452	0.521	0.495	0.477	0.364	0.391	0.414	0.402	0.340	0.355	0.454	0.616	1.347	1.978	1.541	1.169	1.602	2.322	5.923	16.71	44.86	73.47	77.97	23.04	6.703	0.484	0.323	0.327	0.169	0.230	0.274	0.274	0.154	0.199	0.149	0.155	0.202	0.177
265.0	48.48	35.66	38.51	104.8	346.6	319.2	288.0	1865	9449	9999.9	1606	73.84	17.37	10.93	7.428	5.118	4.581	3.731	3.403	2.439	2.191	1.852	1.607	1.478	1.467	1.300	1.230	1.115	1.082	0.894	1.005	0.783	0.753	0.698	0.740	0.630	0.641	0.520	0.558	0.542	0.520	0.530	0.496	0.523	0.475	0.420	0.407	0.490	0.310	0.351	0.360	0.625	1.358	2.158	1.869	1.067	0.906	1.688	4.062	11.54	29.66	70.46	99.15	31.97	18.39	2.814	0.397	0.322	0.281	0.322	0.222	0.254	0.264	0.165	0.217	0.149	0.168
270.0	191.6	109.2	64.88	63.77	163.7	374.2	363.0	551.3	2691	9488	9999.9	6019	99.71	19.68	12.08	7.711	6.108	4.743	3.918	3.033	2.497	2.234	1.895	1.848	1.615	1.474	1.341	1.281	1.231	1.105	1.090	0.897	1.017	1.066	1.088	0.920	0.932	0.933	0.970	0.938	0.891	0.922	0.982	0.769	0.676	0.619	0.620	0.522	0.453	0.392	0.356	0.411	0.661	1.043	1.661	2.018	2.100	1.663	1.625	3.211	7.321	18.37	37.88	57.15	87.21	72.98	63.30	12.63	2.850	0.439	0.341	0.289	0.272	0.279	0.257	0.224	0.254
275.0	546.7	387.2	240.2	124.4	114.3	214.2	533.8	469.9	856.2	2446	6491	9999.9	8381	121.5	19.81	12.58	9.013	6.124	4.494	4.013	2.961	2.752	2.336	2.291	1.827	1.798	1.609	1.369	1.353	1.101	1.169	1.202	1.266	1.702	1.690	1.619	1.781	1.622	1.563	1.571	1.514	1.623	1.678	1.409	1.376	1.230	1.177	1.084	0.887	0.793	0.628	0.535	0.600	0.704	0.838	1.211	2.221	3.497	3.319	2.347	2.787	5.552	9.915	14.26	22.89	38.82	99.12	146.1	32.36	19.02	2.039	0.522	0.442	0.324	0.434	0.337	0.322
280.0	1045	778.5	524.9	246.3	169.7	218.3	440.7	856.0	780.7	1051	2126	9774	9999.9	5884	86.58	18.80	11.29	8.179	6.252	4.323	3.921	3.284	2.683	2.384	2.247	1.938	1.836	1.474	1.565	1.122	1.237	1.281	1.636	2.150	2.335	2.526	2.547	2.283	2.396	2.163	2.102	2.285	2.382	2.326	2.281	2.127	2.106	2.062	1.709	1.299	0.924	0.809	0.819	0.978	0.958	1.184	1.723	2.534	4.275	4.350	3.693	3.499	4.388	5.824	7.808	11.43	29.86	76.19	127.0	155.2	29.98	13.01	1.225	0.502	0.488	0.409	0.483
285.0	1569	1296	863.6	424.5	252.6	287.5	428.8	865.0	1278	1193	1495	3542	9999.9	9999.9	919.8	55.81	17.07	10.83	8.101	5.572	4.533	3.585	3.344	2.668	2.511	2.017	2.056	1.620	1.566	1.355	1.559	1.593	1.815	2.602	3.021	3.156	3.366	3.027	2.793	2.657	2.770	2.796	3.121	3.033	3.293	3.176	3.090	3.158	2.500	2.077	1.444	1.229	1.049	1.229	1.333	1.489	1.805	2.142	3.276	4.718	6.260	5.662	5.148	5.661	6.311	7.159	10.97	22.36	45.00	107.7	158.2	145.6	25.19	6.622	0.814	0.519	0.624
290.0	2555	2354	1543	757.3	425.9	464.7	614.6	1016	1784	2490	2712	3122	4731	9999.9	9999.9	3592	63.11	17.97	11.47	7.797	5.934	4.971	3.929	3.387	2.993	2.549	2.363	2.014	1.834	1.726	1.746	1.771	2.299	3.499	4.460	4.413	4.215	3.985	3.426	3.502	3.563	3.780	4.288	4.593	5.207	5.830	5.524	5.427	4.433	3.304	2.324	2.086	1.792	1.742	1.860	2.156	2.519	3.048	3.897	5.043	6.869	9.201	10.84	11.93	12.30	12.61	13.80	16.12	20.28	34.27	56.38	95.09	119.1	94.80	94.60	17.18	6.887
295.0	3656	3446	2280	1055	619.8	658.7	904.3	1387	2265	3649	4927	5007	4577	4356	6948	9999.9	5320	72.78	18.36	12.16	8.219	7.096	5.190	4.498	3.784	3.288	2.729	2.511	2.123	1.971	2.079	1.966	2.592	4.234	5.451	5.568	5.131	4.629	4.177	4.086	4.393	4.795	5.539	5.970	7.230	8.284	7.719	8.014	6.556	4.587	3.014	2.823	2.492	2.296	2.622	2.870	3.503	4.360	5.398	7.032	8.893	10.94	13.73	17.09	21.71	22.16	22.50	22.41	21.41	22.96	25.90	31.08	33.08	39.41	104.1	179.0	157.1
300.0	4123	4106	2605	1282	746.0	797.1	1128	1706	2741	4220	6034	6541	5335	3594	2538	9854	9999.9	3874	53.03	17.52	10.95	8.711	5.535	5.054	4.041	3.423	3.335	2.663	2.585	2.282	2.125	2.294	3.180	4.959	5.932	6.259	5.572	4.917	4.526	4.599	4.754	5.516	6.021	7.242	8.524	9.380	9.061	9.107	7.389	5.220	3.743	3.495	2.816	2.778	3.163	3.421	4.355	5.175	6.383	8.218	10.69	13.36	16.61	19.95	24.31	28.46	29.33	28.47	26.13	24.45	22.23	19.05	14.68	12.63	28.48	73.36	154.0
305.0	4244	4267	2791	1406	872.4	932.3	1313	1944	3046	4586	6354	7479	6075	3762	1613	2879	9999.9	9999.9	577.2	33.75	14.59	10.40	7.537	6.334	5.034	4.224	3.641	2.914	2.785	2.485	2.402	2.323	3.056	5.080	6.326	6.159	5.587	4.836	4.574	4.858	4.849	5.969	6.287	7.567	8.901	10.16	9.739	9.836	7.723	5.459	4.124	3.559	3.445	3.213	3.739	3.964	5.287	6.130	7.792	9.124	12.23	14.74	17.43	21.75	25.26	28.88	32.91	33.16	30.75	26.50	22.36	17.66	11.68	7.400	9.024	18.70	43.68
310.0	4116	4136	2737	1452	943.9	1029	1400	2045	3099	4546	6110	7120	6351	3968	1506	1048	3004	9999.9	9999.9	2408	42.63	15.65	10.47	7.753	5.899	4.999	4.392	3.360	3.258	2.820	2.380	2.682	2.983	4.647	5.845	5.732	5.099	4.517	4.428	4.350	4.783	5.428	6.071	6.890	8.530	9.953	9.658	9.394	7.712	5.382	4.111	3.746	3.582	3.550	4.138	4.532	5.690	6.778	8.097	10.02	12.21	14.96	17.96	21.75	24.88	27.95	30.37	31.53	30.98	28.38	24.37	17.89	11.17	7.208	5.548	6.657	11.79
315.0	3696	3913	2639	1420	975.8	1046	1408	2019	2950	4204	5530	6272	5642	4045	1629	731.6	971.8	2456	6884	9999.9	3719	49.56	15.95	10.26	7.351	6.406	4.831	3.942	3.643	2.978	2.789	2.592	2.844	4.287	5.458	5.085	4.587	4.215	4.058	4.190	4.308	5.026	5.668	6.031	7.586	8.954	8.914	8.917	7.189	5.194	4.071	3.882	3.705	3.724	4.110	4.434	5.716	6.598	8.018	9.231	11.76	14.06	16.59	20.27	22.69	25.12	27.25	27.31	26.83	25.38	23.38	18.78	12.39	7.645	5.342	4.441	5.101
320.0	3752	3975	2798	1522	1026	1085	1397	1971	2790	3870	5024	5642	5066	3734	1917	788.8	585.6	779.3	1810	9999.9	9999.9	2806	37.29	14.49	10.40	7.105	5.346	4.702	3.918	3.378	3.157	2.719	3.016	4.069	4.906	4.287	3.984	3.774	3.709	3.866	4.130	4.682	5.304	6.286	7.687	8.660	9.013	9.619	7.911	5.458	4.178	4.143	3.865	3.823	4.194	4.521	5.528	6.630	8.027	8.978	11.21	13.18	15.45	18.05	20.55	22.88	24.25	25.22	23.64	22.67	20.89	17.62	13.46	9.587	5.923	4.432	3.977
325.0	3621	4181	3260	1838	1135	1091	1389	1892	2618	3572	4565	5101	4602	3366	2034	976.0	582.5	459.6	570.6	2814	9999.9	9999.9	432.1	24.50	12.98	9.196	6.401	5.479	4.196	3.600	3.344	2.743	3.029	3.947	4.589	4.092	3.708	3.641	3.263	3.509	3.721	4.266	5.207	5.994	7.823	9.184	9.658	10.55	9.027	6.843	5.050	4.969	4.216	4.051	4.384	4.301	5.665	6.402	7.567	8.571	10.77	12.35	14.45	16.82	19.25	20.42	21.61	22.69	22.27	20.82	18.81	16.08	12.73	10.78	8.354	6.085	4.452
330.0	3593	4381	3798	2382	1465	1194	1369	1797	2389	3174	4005	4440	4066	3071	1895	1270	813.6	482.2	371.2	801.5	3014	9999.9	9999.9	1792	34.67	12.89	9.076	6.686	4.962	4.284	3.666	3.019	3.275	3.532	4.122	3.910	3.347	3.302	3.170	3.332	3.694	4.209	5.046	5.658	7.684	8.928	9.945	11.12	10.23	8.443	6.569	6.480	5.437	4.828	4.756	4.553	5.570	6.278	6.979	8.171	9.600	11.02	13.18	14.93	16.65	17.97	19.47	19.81	19.33	18.36	16.86	14.58	11.50	9.689	8.406	7.475	6.635
335.0	3597	4371	4084	2845	1814	1385	1379	1728	2203	2827	3491	3863	3619	2848	1866	1255	1051	676.8	410.6	415.9	863.9	2441	7392	9999.9	3009	40.43	13.53	9.203	6.731	5.098	4.309	3.501	3.304	3.420	3.905	3.703	3.294	3.258	2.978	2.998	3.550	4.206	4.648	5.732	7.343	9.063	10.29	11.64	10.82	9.596	7.634	8.042	7.007	5.792	5.557	5.170	5.537	6.220	6.899	7.869	8.812	10.51	11.73	13.36	14.42	15.56	16.94	17.27	16.79	16.44	15.68	13.96	12.03	9.291	8.089	7.310	6.787
340.0	3368	4490	4252	3033	2004	1489	1429	1668	2085	2631	3178	3509	3302	2700	1855	1258	1019	855.4	503.0	375.2	426.9	733.7	1973	9999.9	9999.9	2304	30.55	11.68	8.644	5.841	4.850	3.874	3.630	3.473	3.617	3.543	3.163	3.026	2.969	3.190	3.252	3.970	4.406	5.377	7.081	8.899	9.908	11.39	11.24	9.834	8.398	8.237	7.698	6.649	6.022	5.259	5.775	6.452	6.684	7.767	8.247	10.11	10.69	12.18	13.08	14.48	15.37	15.73	15.55	15.31	14.31	13.08	11.51	9.752	8.100	6.851	6.495
345.0	3174	4331	4216	3081	2128	1587	1428	1617	1999	2446	2911	3188	3013	2523	1813	1270	958.3	882.7	668.5	427.4	371.0	394.4	601.5	2931	9999.9	9999.9	372.4	18.34	10.51	7.097	5.538	4.756	3.983	3.434	3.560	3.286	3.002	3.153	2.992	2.922	2.975	3.572	4.374	5.266	6.489	8.592	9.453	11.32	11.07	9.604	8.641	8.484	8.007	7.011	6.538	5.698	5.697	6.083	6.719	7.560	8.151	9.298	10.12	11.47	12.02	13.24	13.49	14.09	14.26	14.01	13.05	12.06	11.03	9.191	8.284	7.201	6.594
350.0	2930	3822	3896	3064	2209	1670	1479	1611	1898	2260	2625	2825	2702	2304	1740	1251	955.0	805.1	749.1	588.0	430.3	369.7	339.5	795.6	3110	9999.9	9999.9	1581	29.14	10.07	7.221	5.281	4.479	3.698	3.644	3.026	3.043	2.973	2.875	2.913	3.035	3.333	3.963	4.803	6.030	7.582	8.538	10.12	10.10	9.463	8.145	8.749	8.325	7.254	6.518	5.940	5.900	6.245	6.885	7.193	7.849	8.852	9.549	10.56	10.87	12.10	12.00	12.73	12.60	12.56	11.79	11.47	10.53	9.402	8.040	7.065	6.613
355.0	2532	3344	3503	2843	2173	1700	1518	1582	1802	2104	2375	2502	2418	2095	1643	1229	961.2	800.4	701.1	696.4	568.9	410.3	318.1	356.5	808.5	2362	7328	9999.9	2649	34.73	10.14	7.134	5.136	4.254	3.946	3.109	2.906	2.785	2.749	2.919	2.980	3.021	3.769	4.345	5.391	6.913	7.726	9.268	9.203	8.407	7.559	8.330	8.074	7.226	6.522	6.197	5.804	6.171	6.738	7.067	7.392	8.241	9.238	9.837	10.53	10.71	10.79	11.38	11.21	10.94	10.48	10.37	9.990	9.022	7.638	7.174	6.554
360.0	2334	3112	3163	2656	2103	1729	1519	1564	1761	1993	2206	2299	2219	1947	1562	1201	967.5	807.8	700.9	668.3	676.0	493.8	346.3	283.4	319.7	607.5	1894	9999.9	9999.9	2052	25.20	8.560	6.319	4.793	4.205	3.281	3.107	2.745	2.698	2.896	2.910	2.921	3.521	3.940	5.096	6.280	7.233	8.288	8.498	7.835	7.138	8.462	7.718	7.250	6.624	6.039	5.983	6.271	6.688	6.712	7.467	8.237	8.534	9.624	9.679	9.546	10.35	10.19	10.67	10.25	9.792	9.159	8.972	8.489	7.323	6.734	6.833
365.0	2165	2799	2966	2512	2064	1712	1495	1539	1699	1907	2075	2137	2052	1809	1489	1173	966.0	824.8	717.8	651.2	670.4	601.5	396.9	293.5	228.9	231.5	483.2	2905	9999.9	9999.9	340.9	15.38	8.250	5.807	4.825	3.659	3.320	2.989	2.840	2.733	2.914	3.148	3.338	3.928	4.807	5.978	6.507	7.941	8.176	7.630	6.845	7.425	7.670	6.925	6.820	6.162	6.099	6.422	6.495	6.820	7.183	8.244	8.068	8.785	9.062	9.195	9.285	9.547	9.635	9.426	9.311	9.118	8.559	7.760	7.292	6.683	6.867
370.0	1972	2549	2617	2276	1980	1666	1485	1488	1608	1789	1921	1954	1874	1668	1393	1125	949.8	832.2	740.8	663.0	626.6	623.1	509.0	343.3	240.4	172.4	183.9	702.8	2995	9999.9	9999.9	1428	25.18	8.275	6.054	4.249	3.660	3.203	2.799	2.769	2.742	3.046	3.210	3.671	4.314	5.444	5.761	6.831	6.981	6.616	6.137	7.166	7.137	6.854	6.458	6.023	6.158	6.136	6.301	6.762	6.611	7.560	7.550	7.991	8.307	8.520	8.688	8.931	8.754	8.734	8.731	8.259	7.937	7.362	7.020	6.615	6.553
375.0	1784	2180	2308	2065	1859	1617	1425	1434	1501	1632	1754	1773	1699	1521	1294	1073	924.3	836.6	747.6	676.3	621.4	573.8	551.6	444.6	283.2	187.4	139.6	226.4	716.5	2337	7087	9999.9	2302	29.82	8.495	5.760	4.423	3.697	3.024	2.730	2.946	2.966	3.158	3.493	4.144	4.527	5.042	5.903	6.317	6.062	5.651	6.683	6.723	6.376	6.198	5.683	5.815	5.771	6.049	6.240	6.445	6.677	7.199	7.470	7.515	7.996	7.698	8.034	7.907	7.945	8.165	7.695	7.169	6.789	6.483	6.320	6.227
380.0	1596	2017	2111	1919	1749	1542	1375	1348	1430	1539	1640	1644	1569	1423	1217	1025	902.0	827.9	744.8	680.6	625.8	562.0	517.8	500.4	343.2	213.0	146.7	132.8	219.4	564.0	1848	8932	9999.9	1694	20.81	6.744	5.485	4.390	3.327	2.970	2.825	2.833	3.000	3.289	4.082	4.609	4.559	5.673	5.748	5.505	5.156	6.150	6.475	6.486	6.251	5.691	5.672	5.483	5.580	5.951	5.829	6.092	6.559	6.866	6.904	7.200	7.359	7.033	7.420	7.597	7.251	7.412	6.821	6.794	6.185	6.250	6.107
385.0	1489	1901	1929	1796	1669	1476	1335	1295	1341	1453	1528	1527	1456	1332	1158	994.3	891.4	812.3	745.5	681.5	624.5	562.9	491.7	477.8	410.1	246.3	163.8	126.4	121.2	177.1	453.3	2550	9999.9	9999.9	283.4	12.08	6.759	4.964	4.014	3.117	2.844	2.934	2.946	3.421	3.517	4.412	4.367	5.142	5.541	5.049	4.694	6.016	5.879	5.713	5.872	5.257	5.387	5.342	5.332	5.529	5.659	5.976	6.175	6.491	6.529	6.713	6.764	6.509	6.552	6.977	6.763	6.912	6.636	6.663	6.211	5.931	5.617
390.0	1313	1672	1710	1644	1533	1391	1238	1206	1239	1312	1384	1391	1327	1217	1075	941.4	848.1	785.4	722.4	669.5	611.6	557.1	484.3	434.5	405.6	323.6	207.1	146.3	116.4	107.4	150.8	607.3	2806	8032	9676	1132	20.84	6.824	4.929	3.878	3.152	3.082	2.992	3.131	3.375	4.155	4.039	4.703	4.814	4.628	4.313	5.366	5.363	5.625	5.558	5.064	5.216	5.162	5.080	5.400	5.291	5.599	5.870	6.007	6.181	6.024	5.971	6.051	6.254	6.249	6.242	6.067	6.042	6.059	5.652	5.595	5.543
395.0	1207	1516	1541	1493	1405	1297	1165	1122	1153	1205	1244	1252	1203	1115	994.2	883.3	802.8	749.6	691.9	637.3	594.3	541.1	478.7	421.9	372.9	336.8	285.3	183.6	138.0	111.5	101.0	184.7	661.4	1862	5572	9999.9	1968	26.15	6.480	4.739	3.752	3.430	3.267	3.118	3.298	3.817	3.857	4.676	4.323	4.358	4.042	4.599	5.081	4.994	5.305	4.881	4.928	4.754	4.942	5.147	5.136	5.156	4.988	5.521	5.788	5.460	5.497	5.651	5.653	5.688	5.583	5.540	5.499	5.363	5.206	5.402	5.240
400.0	1153	1370	1414	1396	1338	1239	1115	1079	1079	1124	1161	1174	1125	1042	939.9	839.7	775.7	721.9	670.8	617.4	579.3	532.7	473.5	425.3	365.4	319.8	318.5	239.1	161.9	129.7	104.7	103.5	192.5	448.7	1411	6597	9934	1572	19.20	6.083	4.158	3.768	3.404	3.251	3.293	3.538	3.749	4.175	4.096	3.945	3.925	4.538	4.731	4.965	5.164	4.617	4.637	4.603	4.825	5.017	4.590	4.937	4.766	5.014	5.059	5.245	5.081	5.257	5.112	5.262	5.515	5.031	5.144	5.265	5.250	4.975	5.359
405.0	1030	1262	1325	1309	1263	1189	1069	1037	1032	1054	1076	1087	1052	978.0	894.0	806.0	744.2	696.1	647.6	600.4	559.8	516.2	468.4	419.7	365.2	315.7	305.0	289.5	198.9	150.6	119.8	99.84	99.33	140.6	347.6	1786	7892	8489	264.9	12.74	5.169	3.915	3.414	3.075	3.123	3.552	3.408	3.988	3.819	3.852	3.737	4.359	4.694	4.689	4.739	4.253	4.426	4.242	4.833	4.456	4.179	4.665	4.757	5.035	4.872	4.504	4.635	4.922	4.975	4.868	5.066	4.942	5.004	4.744	4.913	4.988	4.956
410.0	942.2	1165	1226	1201	1170	1111	1018	985.6	978.2	985.3	998.0	995.0	967.5	901.4	826.5	749.3	694.7	652.8	607.3	568.1	526.5	493.1	446.7	409.9	363.9	316.6	285.7	285.0	258.5	190.8	142.1	111.8	90.39	83.66	116.8	428.6	2090	5849	6789	1179	19.50	5.317	4.154	3.419	3.339	3.539	3.419	3.665	3.605	3.567	3.446	4.177	4.386	4.242	4.415	4.107	4.351	4.162	4.271	4.286	4.163	4.294	4.344	4.518	4.383	4.490	4.336	4.431	4.604	4.431	4.557	4.684	4.424	4.679	4.444	4.590	4.514
415.0	873.1	1040	1126	1093	1075	1024	958.5	930.2	903.7	911.7	897.4	900.8	874.3	823.6	756.6	682.0	639.2	597.6	559.4	523.5	492.1	464.6	424.7	393.8	355.9	313.8	280.7	262.4	264.2	244.8	170.4	126.2	96.89	77.62	70.75	129.2	490.2	1343	3301	7556	1870	26.68	5.457	3.941	3.714	3.317	3.437	3.660	3.562	3.312	3.164	3.814	4.064	4.241	3.994	3.781	4.113	4.026	4.075	4.070	4.324	3.911	3.890	4.146	4.402	3.991	3.826	4.026	3.895	4.108	4.211	4.219	3.972	4.213	4.001	4.193	4.358
420.0	772.3	992.1	1045	994.9	1018	973.0	910.6	889.6	852.4	856.5	842.5	833.8	806.7	758.6	695.4	641.0	599.4	562.2	526.6	492.8	465.3	436.8	405.3	375.8	346.2	311.3	278.3	255.8	244.6	254.8	202.9	136.6	103.1	79.43	63.41	65.64	136.7	319.6	806.3	4249	7265	1551	20.36	4.910	3.932	3.765	3.328	3.408	3.517	3.196	3.014	3.766	3.909	3.790	3.925	3.800	3.947	4.044	3.967	3.920	4.119	3.949	4.040	3.832	3.848	3.727	3.771	3.475	3.641	3.621	3.829	3.988	3.862	3.669	3.770	3.826	3.796
425.0	745.6	908.3	963.4	945.6	943.8	922.2	861.7	855.2	806.1	804.1	797.5	774.4	750.6	708.6	652.1	596.8	559.3	529.2	494.2	468.4	438.2	412.0	385.5	365.2	335.6	306.5	277.1	255.1	235.8	233.4	227.2	159.4	112.2	85.64	67.28	54.71	60.85	93.18	195.7	1092	4909	6607	261.3	13.76	4.704	3.871	3.451	3.184	3.406	3.208	2.888	3.447	3.569	3.493	3.829	3.463	3.738	3.730	3.774	3.960	3.833	3.714	3.646	3.690	3.987	3.775	3.368	3.495	3.339	3.617	3.471	3.569	3.564	3.605	3.556	3.525	3.615
430.0	853.7	831.2	884.0	884.9	882.2	867.8	834.9	821.5	782.1	757.3	741.8	722.5	694.7	650.1	600.0	550.9	512.2	486.9	455.8	431.1	405.5	382.2	363.3	347.9	324.7	298.7	276.5	255.3	236.0	217.8	213.8	190.0	134.6	94.93	73.28	57.83	48.40	45.99	62.59	257.7	1237	3854	5240	2318	19.92	5.515	3.863	3.714	3.493	3.114	2.889	3.327	3.558	3.404	3.571	3.469	3.531	3.542	3.617	3.688	3.453	3.465	3.459	3.486	3.480	3.241	3.152	3.280	3.152	3.242	3.273	3.155	3.350	3.268	3.430	3.432	3.399
435.0	1346	782.7	793.7	819.3	817.7	803.7	793.2	782.5	744.4	720.4	698.0	669.5	640.8	598.2	547.9	504.1	470.9	443.1	414.6	396.5	374.4	359.7	339.5	329.5	309.1	292.1	269.8	251.3	235.8	217.5	197.9	185.8	165.4	113.1	81.36	64.28	48.89	40.12	36.88	74.30	288.4	875.3	2138	6271	1892	27.95	5.631	4.390	3.527	3.124	3.031	3.390	3.483	3.340	3.441	3.183	3.468	3.506	3.434	3.517	3.262	3.245	3.143	3.243	3.050	3.143	2.983	2.988	2.911	3.022	2.930	3.010	3.139	3.145	3.216	3.148	3.303
440.0	1807	973.5	740.5	770.7	769.3	766.6	749.5	748.8	716.7	686.1	654.6	630.9	598.5	550.0	509.8	467.9	435.7	414.9	390.8	373.7	350.9	338.3	322.1	313.4	298.4	282.7	261.3	247.8	232.9	213.3	191.4	170.4	167.7	134.5	90.34	68.19	53.42	41.27	33.10	36.22	79.02	207.7	508.2	2985	6643	1662	21.73	5.307	3.736	3.275	3.005	3.163	3.367	3.182	3.285	3.075	3.208	3.321	3.423	3.306	3.562	3.280	3.054	3.208	2.898	3.121	2.904	2.877	2.788	2.779	2.793	2.877	2.842	2.825	2.909	2.779	2.876
445.0	1785	1558	713.7	729.9	730.3	730.8	733.7	713.3	682.4	655.3	626.2	598.7	557.0	511.0	473.1	434.3	405.4	385.4	367.6	346.6	329.3	319.2	306.1	293.6	285.7	269.1	253.9	241.9	228.1	210.8	186.6	163.1	151.4	144.6	103.4	71.86	55.93	43.74	34.66	29.88	34.16	60.57	125.2	729.4	3848	6240	1250	18.15	4.287	3.601	2.910	3.207	3.306	3.140	3.029	3.085	3.057	3.313	3.367	3.332	3.155	3.106	3.044	2.994	2.666	2.908	2.727	2.848	2.562	2.783	2.563	2.714	2.669	2.640	2.780	2.669	2.860
450.0	1124	2272	1036	658.0	658.0	662.2	669.6	664.6	634.7	599.8	579.8	545.4	506.4	463.5	426.4	392.4	368.3	348.8	330.5	312.5	298.4	288.5	278.3	271.5	263.2	250.9	240.6	227.6	216.0	201.6	180.9	156.8	134.8	128.6	117.1	84.60	59.76	47.25	37.38	31.43	27.39	29.32	40.50	173.5	935.8	3108	5091	2337	89.38	5.218	3.417	3.270	3.227	3.201	3.203	2.887	3.239	3.164	3.267	3.146	3.081	3.087	3.137	3.010	2.769	2.704	2.512	2.507	2.337	2.443	2.508	2.463	2.605	2.395	2.360	2.516	2.519
455.0	589.1	2052	2389	667.0	599.0	603.5	623.3	601.8	584.2	551.1	523.8	491.0	454.6	417.2	383.4	349.7	331.1	308.9	293.4	279.0	266.4	257.5	252.2	244.8	238.5	228.0	222.0	209.8	201.7	191.5	170.2	148.9	127.2	111.9	106.7	100.6	70.86	50.04	40.44	34.15	27.70	24.44	23.63	50.07	217.8	703.0	1690	4869	1657	24.00	4.594	3.742	3.387	3.210	3.063	2.806	3.094	3.035	3.046	2.832	2.850	2.811	2.783	2.624	2.546	2.599	2.428	2.298	2.359	2.182	2.275	2.117	2.189	2.219	2.065	2.284	2.222
460.0	443.7	1268	3223	950.3	548.9	559.1	566.3	560.3	538.4	518.5	493.9	454.7	418.0	383.1	350.1	319.3	296.9	279.4	266.6	254.0	241.1	234.4	229.9	225.2	218.8	213.7	207.3	198.2	191.3	181.7	164.3	143.7	123.5	104.6	94.61	96.13	81.31	54.68	42.49	35.04	29.75	24.57	20.59	23.65	58.62	165.2	391.4	1962	4876	1409	19.50	4.715	3.599	3.234	3.003	3.133	2.837	2.846	2.746	2.456	2.759	2.787	2.676	2.475	2.445	2.214	2.237	2.196	2.188	2.088	2.135	2.002	1.876	1.955	2.047	2.059	2.096
465.0	369.5	667.9	3022	2126	522.9	504.5	528.4	520.5	503.5	475.0	461.9	420.2	383.1	351.8	319.0	294.7	270.9	254.3	243.2	232.3	223.6	217.4	210.9	207.6	204.3	198.3	192.9	187.2	180.0	170.1	157.8	137.8	118.1	102.1	87.90	85.17	83.97	63.35	45.02	36.05	30.83	24.89	20.84	18.61	23.69	45.37	95.47	464.8	2511	5052	1150	18.45	4.325	3.549	3.043	2.843	2.791	2.633	2.653	2.659	2.640	2.718	2.602	2.386	2.276	2.193	2.033	2.122	2.084	1.963	1.910	2.146	1.963	1.878	2.003	1.715	1.938
470.0	353.3	437.4	1583	3430	1099	470.2	466.2	473.5	456.5	429.3	411.8	376.0	343.9	310.9	279.9	257.3	237.5	224.4	213.5	205.2	196.4	191.3	186.6	185.0	181.9	176.6	171.6	169.7	165.7	157.2	142.7	127.3	110.5	94.88	81.88	73.31	71.48	69.14	51.49	37.70	31.56	26.05	21.27	18.20	16.66	19.62	28.94	110.6	596.6	2235	3406	2265	97.56	5.581	3.312	2.941	2.816	2.807	2.498	2.422	2.513	2.460	2.168	2.351	2.110	1.991	2.016	1.859	1.901	1.865	1.846	1.861	1.684	1.742	1.554	1.539	1.646
475.0	350.6	360.8	640.1	2751	2860	525.6	417.7	418.7	414.8	391.4	369.5	331.2	310.8	277.8	244.2	222.1	205.5	194.9	187.5	180.1	170.7	166.5	162.9	162.0	161.9	157.7	153.6	152.3	147.2	141.4	130.4	117.5	101.5	87.79	75.56	67.42	61.48	60.78	57.11	41.40	32.08	26.31	21.63	18.32	16.10	14.09	13.95	31.32	138.5	503.5	1006	3164	1665	27.50	4.629	2.919	2.735	2.458	2.434	2.378	2.270	2.173	2.026	1.925	2.007	1.802	1.682	1.781	1.675	1.616	1.579	1.656	1.544	1.637	1.531	1.526	1.586
480.0	315.4	354.1	398.9	1496	3945	1026	395.2	386.8	385.1	356.2	337.1	304.6	281.4	254.5	228.3	201.5	188.5	178.0	170.0	164.2	155.4	150.6	150.4	150.0	147.4	144.0	142.6	141.4	138.5	132.3	122.0	108.7	94.96	82.96	73.32	64.56	56.68	51.82	55.03	49.14	34.01	27.05	21.88	18.62	15.74	13.22	11.49	13.34	36.62	117.4	231.5	1132	3445	1535	24.29	3.481	3.059	2.527	2.443	2.232	2.258	2.014	2.077	1.957	1.791	1.821	1.627	1.655	1.511	1.486	1.560	1.527	1.282	1.388	1.480	1.293	1.452
485.0	280.6	344.0	331.9	678.8	3610	2295	396.8	360.4	361.8	332.9	314.1	286.5	260.4	235.9	209.4	186.6	175.0	164.0	159.8	151.4	143.8	139.1	140.4	138.3	137.9	134.7	132.7	131.1	127.9	124.2	115.3	103.5	90.38	79.74	70.42	61.86	53.95	47.73	49.37	50.18	38.54	28.00	22.48	18.65	15.62	13.52	11.45	10.00	14.21	31.43	56.51	265.2	1615	3741	1228	18.03	3.707	2.726	2.565	2.249	2.192	2.010	2.029	1.887	1.783	1.634	1.547	1.505	1.609	1.523	1.384	1.207	1.292	1.360	1.318	1.392	1.392
490.0	227.4	335.7	318.8	376.5	1812	3750	953.2	336.3	324.4	311.0	287.9	262.6	240.5	213.1	190.0	170.2	157.1	149.1	141.6	136.1	129.1	125.9	125.9	123.7	124.2	122.2	120.4	118.1	117.4	115.3	107.6	96.35	85.60	74.83	67.61	59.12	52.04	46.31	42.84	43.87	42.06	32.83	23.70	19.02	16.58	14.10	11.87	10.23	9.820	12.69	17.40	63.69	379.7	1515	2896	1687	108.1	5.023	2.899	2.231	2.213	2.039	1.929	1.769	1.664	1.607	1.464	1.448	1.438	1.443	1.362	1.199	1.297	1.288	1.247	1.295	1.248
495.0	201.9	282.0	340.9	275.8	640.6	3063	2918	378.4	301.6	286.2	260.9	241.7	213.9	194.7	169.1	152.5	140.2	132.1	126.2	118.4	114.5	113.8	111.1	110.4	109.3	108.6	108.0	106.3	107.6	103.6	98.70	87.06	77.59	69.56	62.54	56.59	48.68	43.74	39.33	36.89	38.11	37.01	27.33	20.02	16.53	14.42	11.94	10.47	9.359	8.840	8.704	18.56	88.69	341.9	865.8	2741	1829	30.36	4.322	2.613	2.199	1.928	1.846	1.791	1.679	1.553	1.490	1.328	1.289	1.447	1.106	1.171	1.098	1.168	1.087	1.081	1.147
500.0	167.6	234.2	327.2	259.0	339.2	1636	4353	854.5	271.4	265.9	238.7	227.2	196.8	175.7	156.8	139.0	126.0	119.2	114.1	107.0	106.3	101.4	99.86	100.8	98.88	98.50	97.24	96.95	97.04	96.09	89.54	81.17	72.09	64.80	58.14	52.44	46.27	41.24	37.14	33.12	32.49	34.57	31.06	21.11	17.05	14.54	11.93	10.59	9.227	8.045	7.296	8.813	23.88	80.08	198.6	972.0	3293	1637	26.40	3.352	2.508	2.026	1.776	1.691	1.560	1.472	1.496	1.291	1.117	1.284	1.105	1.038	1.206	1.151	1.164	1.019	1.050
505.0	146.6	189.3	279.0	266.3	246.8	665.6	4163	2169	271.9	241.1	219.8	203.5	178.5	159.9	142.3	127.4	114.7	109.0	103.6	98.18	95.31	92.23	91.82	91.68	90.83	90.68	89.43	88.81	88.42	87.68	82.84	75.41	67.40	60.45	55.03	48.41	43.11	38.87	34.99	31.89	28.59	29.77	31.79	24.13	17.52	13.86	12.08	10.30	9.045	8.099	6.802	6.421	9.376	21.63	48.40	226.5	1435	3329	1274	19.78	2.903	2.061	1.941	1.585	1.448	1.379	1.315	1.191	1.121	1.054	1.031	0.982	1.120	0.924	0.974	0.919	1.091
510.0	123.8	160.2	223.6	274.3	217.7	307.2	2091	4133	777.9	212.2	200.9	180.6	159.4	141.5	123.6	110.6	100.9	95.93	90.90	86.09	83.02	81.90	81.01	79.59	79.80	79.78	79.68	79.24	78.47	76.84	73.17	67.34	61.16	54.80	49.26	44.36	39.32	35.66	32.34	28.92	26.33	24.79	26.86	25.62	19.81	14.48	12.04	10.29	8.774	7.952	7.097	5.930	6.222	8.454	14.35	53.80	334.0	1285	2444	1058	103.5	3.629	1.882	1.665	1.406	1.310	1.272	1.232	1.090	0.980	1.010	0.908	0.971	0.883	0.878	0.805	0.869
515.0	113.6	132.5	168.2	246.6	216.7	209.9	651.8	3644	2418	245.9	172.5	161.6	141.3	125.0	109.1	96.01	89.30	84.44	77.97	74.88	72.91	71.45	70.33	68.59	70.08	68.38	68.58	69.82	68.46	67.16	65.65	59.50	53.96	48.38	42.73	40.17	35.91	32.59	29.84	26.51	24.17	21.72	21.28	22.57	21.86	16.22	11.59	9.622	8.561	7.384	6.922	6.563	5.787	5.562	6.603	14.88	77.41	289.4	686.6	2048	1721	30.45	2.731	1.780	1.493	1.311	1.144	1.135	1.067	0.886	0.952	0.848	0.789	0.813	0.801	0.727	0.796
520.0	101.0	128.2	132.8	203.4	227.7	176.4	275.8	1937	4598	673.5	156.9	146.1	130.0	113.3	99.79	86.48	79.96	75.49	70.86	67.68	64.80	64.43	63.15	61.71	62.91	61.34	61.45	62.16	61.60	60.40	58.93	53.63	48.68	44.75	39.94	36.16	32.75	30.03	26.87	25.17	22.99	20.26	18.44	18.85	20.80	17.84	12.04	9.844	8.201	7.432	6.681	6.258	5.558	4.811	4.693	6.078	20.03	67.38	157.2	733.2	2410	1434	24.83	2.299	1.557	1.355	1.240	1.168	0.972	0.993	0.888	0.840	0.833	0.773	0.740	0.708	0.675
525.0	95.38	110.1	119.4	163.4	219.9	165.2	183.8	711.3	4819	1875	162.3	132.0	116.3	101.9	89.89	80.40	73.50	66.73	62.81	61.84	58.34	57.14	56.70	56.63	55.62	56.57	56.24	56.39	56.20	54.23	53.08	49.15	44.45	40.59	36.95	33.46	29.79	27.60	24.97	23.29	20.53	19.22	16.94	16.43	17.80	18.36	13.34	10.00	7.944	7.204	6.212	5.693	5.397	4.772	4.006	4.206	7.277	17.53	37.74	170.1	1011	2531	949.2	17.40	1.953	1.472	1.107	1.017	1.002	0.927	0.933	0.706	0.800	0.733	0.685	0.634	0.685
530.0	90.66	102.1	112.7	125.3	185.3	184.6	144.3	271.3	2433	4536	673.3	120.7	103.3	90.75	77.63	69.70	63.28	59.88	54.56	53.80	50.72	48.87	48.93	48.98	48.53	50.01	49.20	48.52	49.26	48.14	46.32	43.12	39.20	35.39	32.22	29.77	26.89	24.61	22.73	20.61	18.75	17.15	15.20	13.97	14.11	15.92	15.00	11.24	7.881	6.875	6.017	5.405	4.955	4.545	4.039	3.634	4.145	6.235	10.70	40.17	235.1	979.1	1675	980.1	91.83	2.453	1.207	1.115	0.912	0.854	0.758	0.711	0.733	0.639	0.628	0.612	0.588
535.0	84.13	91.14	91.45	102.3	135.0	196.0	142.3	157.7	699.0	4294	3084	144.0	90.59	79.60	68.15	58.55	52.88	49.91	47.32	45.80	42.18	42.18	41.87	42.94	42.11	42.43	41.89	41.79	41.99	41.73	39.46	37.37	33.34	30.65	28.18	26.08	23.53	21.88	19.73	18.10	16.90	15.18	13.34	12.54	11.87	11.87	13.32	12.46	8.609	6.571	5.495	4.791	4.713	4.193	4.014	3.659	3.478	3.554	4.315	10.95	54.16	220.2	474.4	1536	1400	28.75	1.743	1.223	0.915	0.928	0.677	0.682	0.639	0.717	0.646	0.554	0.584
540.0	83.19	79.75	82.32	98.29	103.9	181.0	146.2	126.0	254.0	2183	5474	449.2	82.80	70.67	60.85	54.18	46.44	43.94	41.52	40.10	38.04	37.00	36.47	37.76	35.87	36.48	35.77	35.97	36.89	36.19	35.26	33.25	29.94	27.15	25.04	22.74	21.04	19.63	17.80	15.96	15.13	13.64	12.54	11.25	10.92	9.780	10.58	12.04	9.723	6.625	5.362	4.617	4.223	3.838	3.790	3.815	3.302	2.861	3.043	4.237	13.76	50.93	108.6	543.7	1804	989.9	21.95	1.687	1.057	0.934	0.755	0.658	0.659	0.680	0.523	0.526	0.512
545.0	96.25	83.33	80.43	83.02	87.85	145.7	169.4	112.9	146.6	747.6	5708	1436	81.05	64.46	54.79	46.42	42.81	40.42	37.86	35.48	33.46	33.95	32.59	33.04	32.48	32.92	32.03	32.81	33.12	31.96	31.52	28.94	26.71	23.78	22.52	19.79	18.50	17.38	15.69	14.33	13.32	12.55	11.40	10.41	9.284	8.441	8.483	10.16	9.925	7.211	5.207	4.266	3.961	3.655	3.419	3.399	3.308	2.659	2.504	2.694	4.846	12.95	25.99	125.9	753.7	1702	250.1	14.06	1.326	1.027	0.793	0.629	0.757	0.579	0.525	0.491	0.447
550.0	104.8	85.43	80.38	74.95	74.16	102.0	169.1	124.3	116.7	252.0	2696	4406	417.5	57.62	46.27	40.63	36.02	33.57	31.45	28.98	28.60	27.57	27.18	27.51	27.70	27.67	26.94	27.13	27.92	27.12	26.53	24.00	22.82	20.54	19.22	16.94	15.52	14.60	13.71	12.16	11.50	10.47	9.738	8.830	8.218	7.336	6.989	7.583	8.241	7.626	5.610	4.116	3.547	3.144	3.027	3.005	2.993	2.946	2.405	2.201	2.575	4.310	7.121	29.48	174.7	646.3	1060	679.4	19.09	1.668	0.816	0.701	0.714	0.519	0.485	0.506	0.381
555.0	134.2	108.0	85.08	67.48	67.27	76.27	132.4	152.6	109.1	142.3	724.5	4312	2327	67.58	38.88	33.36	29.77	27.47	25.73	24.70	23.23	22.81	22.01	22.30	22.26	22.36	21.58	23.07	22.68	22.42	21.36	19.98	17.56	16.58	15.44	14.42	13.13	12.31	11.96	10.37	9.373	8.750	8.028	7.707	6.930	6.412	5.820	5.746	6.040	6.972	6.112	3.957	2.942	2.922	2.851	2.519	2.632	2.594	2.416	2.031	1.926	2.188	2.751	7.872	40.03	145.3	300.4	984.3	863.1	27.91	1.246	0.812	0.699	0.507	0.466	0.435	0.426
560.0	140.1	124.8	94.75	75.16	59.73	71.49	98.03	169.1	116.7	122.3	250.0	2151	4553	150.8	36.65	28.20	25.07	23.94	21.63	20.97	19.43	19.75	18.48	18.44	18.92	19.45	18.40	19.51	18.73	18.46	17.72	17.06	15.52	14.51	12.92	12.38	11.20	10.66	10.10	9.082	8.079	7.572	7.099	6.467	6.147	5.720	5.168	4.924	4.525	5.479	5.909	4.238	3.032	2.643	2.512	2.128	2.432	2.141	2.292	2.203	1.656	1.761	1.729	2.897	10.15	33.61	68.57	339.6	1071	623.2	20.59	1.040	0.720	0.647	0.448	0.396	0.403
565.0	160.1	135.7	100.9	70.53	61.47	67.13	82.01	167.9	139.8	126.1	153.4	726.2	5049	981.1	36.45	25.82	22.90	20.95	18.88	18.22	17.29	16.81	15.53	16.12	15.75	16.75	15.81	16.02	16.41	16.04	15.42	14.32	13.49	12.10	11.66	10.76	9.840	9.677	8.517	7.746	7.054	6.597	6.472	5.536	5.140	4.973	4.548	4.265	4.123	4.001	4.951	4.606	3.213	2.371	2.057	1.946	2.172	1.966	1.936	2.223	1.809	1.657	1.432	1.721	3.326	8.649	16.48	78.48	428.8	1007	244.2	12.02	0.815	0.734	0.434	0.395	0.376
570.0	170.4	164.2	117.7	78.81	57.35	63.24	73.14	131.7	176.9	145.9	160.2	283.1	2451	3714	253.1	24.45	19.11	17.33	16.07	14.62	14.48	13.69	12.93	13.60	13.00	13.17	13.13	13.00	12.84	12.98	12.36	11.87	11.14	10.30	9.144	9.039	7.994	7.763	6.874	6.339	5.899	5.527	5.368	4.907	4.563	4.326	3.949	3.610	3.280	3.031	3.334	3.952	3.433	2.581	1.905	1.963	1.807	1.666	1.625	1.869	1.905	1.657	1.446	1.523	1.860	3.088	4.867	18.63	99.09	366.7	681.5	446.1	18.79	1.214	0.556	0.401	0.402
575.0	213.5	197.1	146.9	81.61	61.64	61.51	72.31	107.6	197.0	202.1	207.7	236.1	724.2	3787	1000	31.60	16.29	14.30	12.90	12.46	12.02	10.93	10.42	11.03	11.07	10.36	10.42	10.33	10.46	10.76	9.626	9.360	8.732	8.226	7.565	6.955	6.466	6.245	5.817	5.224	4.966	4.506	4.148	4.191	4.041	3.774	3.528	3.016	2.713	2.738	2.406	2.773	3.364	2.806	1.966	1.740	1.581	1.467	1.451	1.491	1.598	2.022	1.738	1.541	1.584	1.783	2.429	5.307	23.33	82.93	186.6	563.2	565.0	26.52	0.966	0.493	0.475
580.0	240.3	233.6	155.7	81.99	60.18	62.02	73.85	108.6	196.1	259.8	258.7	269.9	338.6	1919	3334	94.00	14.52	13.15	11.45	10.75	10.13	9.346	9.016	9.204	9.154	9.404	8.576	8.974	8.897	8.718	8.799	7.901	7.824	7.128	6.315	6.037	5.432	5.519	5.116	4.454	4.425	4.005	3.754	3.675	3.494	3.345	3.225	2.864	2.593	2.413	1.981	1.928	2.596	2.894	2.155	1.702	1.403	1.348	1.335	1.346	1.463	1.917	2.120	1.797	1.737	1.627	2.007	2.467	6.511	19.86	42.93	186.2	656.4	260.7	18.78	0.657	0.427
585.0	255.3	258.5	172.1	88.37	63.62	64.81	79.05	110.8	189.8	304.2	303.8	315.5	285.6	689.1	3872	641.4	15.44	12.20	10.59	9.600	9.040	8.275	7.840	8.094	7.887	7.877	7.263	7.696	7.339	7.287	7.794	7.374	6.637	6.082	5.202	5.337	4.980	4.732	4.395	3.908	3.656	3.668	3.444	3.209	3.307	3.143	2.868	2.615	2.392	2.141	1.851	1.603	2.063	2.475	2.305	1.668	1.535	1.292	1.377	1.255	1.364	1.831	2.002	2.085	2.140	1.771	1.961	1.933	2.814	5.918	10.74	43.22	247.2	573.9	220.5	10.78	0.505
590.0	283.9	278.7	190.4	95.93	62.82	64.13	82.41	112.5	189.2	309.8	370.6	365.9	310.2	305.1	1873	2524	63.47	10.88	9.230	7.947	7.594	6.979	6.829	6.464	6.308	6.525	6.165	6.294	6.183	6.101	6.231	5.796	5.223	5.016	4.452	4.367	4.215	3.757	3.852	3.458	3.111	2.936	2.847	2.691	2.657	2.501	2.522	2.414	2.073	1.826	1.612	1.430	1.465	1.841	2.047	1.914	1.468	1.214	1.187	1.247	1.389	1.528	1.680	2.367	2.276	2.109	2.086	2.172	2.117	2.892	3.708	10.80	56.99	202.7	386.4	299.1	18.23
595.0	302.3	285.8	187.5	100.1	64.82	64.12	81.19	122.2	188.4	295.4	420.4	407.4	333.8	231.7	508.7	2678	692.5	13.84	7.962	6.914	6.317	6.114	5.661	5.361	5.388	5.594	5.215	5.310	5.320	5.015	4.872	4.682	4.402	4.277	3.876	3.505	3.396	3.166	3.253	2.782	2.518	2.394	2.393	2.241	2.298	2.416	2.158	2.210	1.791	1.606	1.300	1.216	1.166	1.301	1.531	1.889	1.492	1.410	1.067	1.236	1.315	1.438	1.703	1.879	2.398	2.509	2.133	2.184	2.141	2.269	2.167	3.382	13.53	45.81	99.79	317.7	271.9
600.0	286.8	270.5	191.1	95.45	62.10	64.24	82.98	128.6	189.3	288.8	424.1	426.4	352.5	226.7	174.7	1387	2161	54.93	7.307	5.768	5.641	4.874	5.103	4.539	4.692	4.720	4.578	4.349	4.663	4.541	3.970	4.103	3.766	3.467	3.304	3.117	2.992	2.649	2.621	2.470	2.246	2.317	2.025	2.033	2.048	2.130	2.072	1.925	1.612	1.417	1.219	1.094	1.011	0.936	1.180	1.564	1.721	1.281	1.117	1.042	1.299	1.346	1.597	1.747	2.206	2.567	2.294	2.251	2.268	2.078	1.731	1.882	3.738	10.73	22.80	97.20	334.8
605.0	281.4	286.0	196.5	92.07	63.93	63.26	82.58	130.3	189.1	284.6	408.5	456.6	359.7	227.3	99.44	440.1	2634	405.8	7.627	5.658	5.228	4.878	4.430	4.004	4.133	3.920	4.039	3.680	3.799	4.280	3.581	3.273	3.176	2.915	3.117	2.786	2.506	2.527	2.623	2.153	2.150	2.016	1.940	1.793	1.829	1.978	1.774	1.760	1.571	1.314	0.955	0.960	0.967	0.872	1.069	1.295	1.596	1.418	1.208	1.263	1.363	1.311	1.397	1.765	2.030	2.484	2.425	2.126	2.159	1.921	1.683	1.436	1.577	2.877	5.435	22.36	117.4
610.0	263.6	269.1	176.9	90.94	62.17	64.21	82.10	123.1	189.5	276.1	380.1	456.4	363.1	222.2	85.96	124.7	1356	1727	42.89	5.771	4.593	4.323	3.875	3.619	3.235	3.361	3.572	3.108	3.084	3.305	3.098	2.733	2.730	2.557	2.656	2.401	2.174	2.169	2.081	1.712	1.658	1.619	1.642	1.535	1.513	1.697	1.652	1.519	1.396	1.114	0.883	0.869	0.868	0.751	0.863	0.852	1.245	1.298	1.297	1.127	1.168	1.297	1.430	1.786	1.991	2.173	2.356	2.388	2.156	1.839	1.671	1.268	1.028	1.202	1.594	5.307	26.90
615.0	242.4	260.2	165.1	89.41	61.12	65.43	83.41	117.0	181.7	262.4	355.3	424.5	359.3	215.4	82.75	51.02	347.9	1978	516.6	6.897	4.640	3.622	3.487	3.196	2.665	2.761	2.605	2.613	2.593	2.815	2.494	2.295	2.219	2.006	2.201	1.833	1.942	1.889	1.638	1.531	1.305	1.298	1.238	1.304	1.301	1.385	1.403	1.271	1.109	1.004	0.728	0.745	0.705	0.670	0.739	0.771	0.915	1.051	1.230	1.191	1.114	1.271	1.400	1.646	1.792	1.858	2.185	2.162	2.362	1.936	1.636	1.241	0.899	0.712	0.645	1.601	6.342
620.0	220.5	219.5	149.1	78.78	52.03	58.47	80.15	108.7	169.5	244.2	329.2	380.3	349.5	204.7	80.16	34.78	92.81	1099	1464	30.31	4.417	3.519	3.131	2.696	2.446	2.438	2.384	2.268	2.304	2.072	2.101	2.197	1.869	1.827	1.922	1.852	1.709	1.552	1.515	1.337	1.187	1.234	1.107	1.064	1.156	1.322	1.252	1.117	1.058	0.958	0.727	0.712	0.592	0.603	0.605	0.641	0.825	0.836	1.200	1.190	1.154	1.162	1.401	1.438	1.597	1.748	1.891	1.876	2.085	1.980	1.603	1.177	0.751	0.586	0.454	0.635	1.668
625.0	206.1	212.0	139.0	75.76	52.30	57.80	75.31	105.2	157.1	229.5	308.1	342.6	328.9	197.6	78.27	31.87	36.63	357.0	1889	229.5	4.555	3.304	2.824	2.289	2.185	2.182	1.943	2.263	1.907	1.937	2.089	1.917	1.654	1.547	1.823	1.687	1.682	1.449	1.341	1.119	1.063	1.008	1.009	1.075	0.983	1.081	1.091	1.024	0.956	0.797	0.691	0.689	0.594	0.503	0.621	0.576	0.673	0.701	1.014	1.187	1.080	1.149	1.320	1.350	1.363	1.678	1.853	1.743	2.056	1.845	1.532	1.060	0.793	0.580	0.434	0.419	0.613
630.0	184.0	180.6	127.6	73.28	51.87	55.36	71.98	101.8	142.7	205.0	271.3	305.7	287.7	194.9	74.02	31.28	23.13	93.58	1044	996.9	27.80	3.373	2.775	2.309	2.170	2.016	1.907	1.956	1.637	1.641	1.538	1.562	1.388	1.389	1.533	1.499	1.391	1.235	1.142	0.957	0.887	0.881	1.041	0.945	0.885	0.979	0.963	0.867	0.805	0.676	0.585	0.581	0.538	0.547	0.560	0.579	0.604	0.637	0.838	0.992	1.055	1.042	1.143	1.221	1.207	1.388	1.570	1.638	1.580	1.546	1.513	1.063	0.747	0.610	0.413	0.344	0.371
635.0	168.4	175.6	117.9	68.88	46.04	50.71	66.23	90.45	132.0	182.2	235.1	267.6	239.8	182.8	74.73	30.55	20.63	30.80	266.6	1428	362.2	4.182	2.497	2.342	2.056	1.777	1.613	1.549	1.526	1.559	1.575	1.224	1.267	1.268	1.216	1.148	1.085	0.940	0.961	0.855	0.793	0.798	0.800	0.863	0.660	0.825	0.853	0.792	0.766	0.590	0.531	0.519	0.425	0.432	0.509	0.560	0.536	0.598	0.677	0.764	0.862	1.012	0.983	1.075	1.279	1.372	1.379	1.400	1.354	1.267	1.174	1.045	0.720	0.578	0.416	0.346	0.352
640.0	157.2	165.9	121.8	63.25	44.19	47.30	60.32	84.83	116.4	164.8	213.3	242.3	217.8	169.1	81.24	31.52	20.51	17.07	66.90	892.8	1024	16.71	2.534	2.309	1.865	1.651	1.639	1.320	1.461	1.221	1.353	1.054	1.265	1.260	1.125	0.931	0.928	0.958	0.822	0.706	0.746	0.740	0.750	0.712	0.673	0.876	0.809	0.805	0.674	0.599	0.501	0.446	0.454	0.370	0.468	0.487	0.512	0.567	0.559	0.618	0.749	0.954	0.974	1.130	1.139	1.247	1.322	1.296	1.241	1.046	1.022	1.015	0.740	0.547	0.350	0.346	0.357
645.0	159.0	159.6	116.6	62.63	43.25	43.73	60.42	80.03	111.3	158.2	194.2	221.9	200.3	148.6	86.23	33.85	21.25	15.80	21.52	314.0	1435	62.52	2.961	2.164	1.942	1.708	1.378	1.344	1.353	1.209	1.162	1.164	1.014	1.064	0.952	0.891	0.854	0.853	0.745	0.664	0.697	0.730	0.673	0.658	0.646	0.791	0.733	0.738	0.614	0.579	0.412	0.457	0.394	0.321	0.471	0.480	0.479	0.517	0.410	0.594	0.722	0.696	0.852	1.052	1.029	1.136	1.209	1.220	1.092	1.028	0.866	0.855	0.803	0.598	0.375	0.298	0.294
650.0	148.6	166.8	127.1	62.49	45.08	41.17	55.99	76.16	104.2	141.3	178.7	200.2	181.6	132.6	86.82	38.24	20.88	15.15	11.92	83.37	1162	459.8	4.861	2.242	1.895	1.588	1.245	1.176	1.193	1.172	0.995	0.948	0.876	0.993	0.914	0.983	0.785	0.729	0.620	0.643	0.664	0.710	0.748	0.559	0.578	0.738	0.655	0.811	0.620	0.566	0.375	0.404	0.468	0.413	0.364	0.410	0.409	0.422	0.537	0.487	0.589	0.704	0.793	0.880	1.078	1.072	1.011	1.100	1.002	1.014	0.924	0.785	0.583	0.695	0.535	0.377	0.377
