Sample:	'1
File name:	S2025061901ÅË×¯¶þ´åÇÅ.FD3
Run date:	'09:28:46, 06/20/2025
Operator:	Administrator
Comment:	'

Instrument
Model:	F-2700 FL Spectrophotometer
Serial number:	23B8-004
ROM Version:	4J14000 07

Instrument parameters
Measurement type:	3-D scan
Data mode:	Fluorescence
EX  Start WL:	220.0 nm
EX  End WL:	600.0 nm
EX Sampling interval:	5.0 nm
EM  Start WL:	230.0 nm
EM  End WL:	650.0 nm
EM Sampling interval:	5.0 nm
Scan speed:	12000 nm/min
EX Slit:	5.0 nm
EM Slit:	5.0 nm
PMT Voltage:	700 V
Response:	Auto 
Corrected spectra:	Off
Contour interval:	50.000

Peak integration
Integration method:	Rectangular
Sensitivity:	1
Threshold:	1.000

Peaks
No.	ApexEX/EM(nm)	Height(Data)
1	225.0/600.0	35.85
2	225.0/635.0	32.06
3	230.0/340.0	713.1
4	230.0/400.0	720.6
5	230.0/500.0	323.0
6	235.0/380.0	709.7
7	235.0/510.0	282.8
8	240.0/265.0	407.2
9	240.0/395.0	729.5
10	240.0/410.0	720.9
11	240.0/525.0	237.4
12	245.0/270.0	391.4
13	245.0/405.0	719.0
14	245.0/535.0	203.4
15	250.0/550.0	167.5
16	255.0/285.0	556.3
17	255.0/560.0	142.1
18	260.0/290.0	545.9
19	260.0/575.0	119.1
20	265.0/295.0	710.7
21	265.0/585.0	99.39
22	270.0/300.0	970.9
23	270.0/600.0	94.28
24	275.0/305.0	995.6
25	275.0/340.0	650.3
26	275.0/365.0	598.5
27	275.0/615.0	75.42
28	280.0/310.0	895.9
29	280.0/625.0	67.70
30	285.0/320.0	869.7
31	285.0/640.0	48.47
32	290.0/325.0	753.5
33	300.0/335.0	483.4
34	305.0/345.0	424.9
35	310.0/350.0	370.0
36	315.0/355.0	366.5
37	320.0/365.0	359.9
38	325.0/370.0	352.5
39	330.0/375.0	347.6
40	335.0/380.0	346.0
41	340.0/390.0	319.9
42	345.0/395.0	302.7
43	350.0/400.0	299.1
44	360.0/415.0	259.4
45	365.0/420.0	247.2
46	425.0/500.0	42.59
47	455.0/540.0	14.01
48	505.0/275.0	3.150
49	510.0/280.0	3.354
50	520.0/285.0	3.484
51	530.0/290.0	3.435
52	535.0/270.0	58.97
53	535.0/295.0	4.256
54	545.0/300.0	5.319
55	550.0/305.0	5.256
56	560.0/310.0	4.867
57	570.0/315.0	5.072
58	580.0/320.0	4.898
59	585.0/325.0	4.388

Data points
	220.0	225.0	230.0	235.0	240.0	245.0	250.0	255.0	260.0	265.0	270.0	275.0	280.0	285.0	290.0	295.0	300.0	305.0	310.0	315.0	320.0	325.0	330.0	335.0	340.0	345.0	350.0	355.0	360.0	365.0	370.0	375.0	380.0	385.0	390.0	395.0	400.0	405.0	410.0	415.0	420.0	425.0	430.0	435.0	440.0	445.0	450.0	455.0	460.0	465.0	470.0	475.0	480.0	485.0	490.0	495.0	500.0	505.0	510.0	515.0	520.0	525.0	530.0	535.0	540.0	545.0	550.0	555.0	560.0	565.0	570.0	575.0	580.0	585.0	590.0	595.0	600.0
230.0	101.0	1848	3265	639.8	23.09	5.589	4.786	3.901	3.342	3.092	3.029	2.940	2.559	2.323	1.799	1.537	1.352	1.344	1.120	1.026	0.902	0.768	0.755	0.670	0.648	0.581	0.527	0.453	0.430	0.512	0.404	0.419	0.368	0.374	0.334	0.347	0.340	0.309	0.280	0.306	0.327	0.414	0.427	0.318	0.240	0.367	2.254	8.375	11.61	7.218	2.069	0.464	0.191	0.173	0.197	0.158	0.169	0.161	0.145	0.152	0.151	0.125	0.128	0.148	0.139	0.122	0.120	0.124	0.118	0.120	0.135	0.116	0.114	0.117	0.124	0.116	0.140
235.0	109.6	526.1	2629	3487	546.2	44.90	6.273	4.928	4.167	3.855	3.319	3.818	3.026	2.291	1.836	1.496	1.298	1.440	1.239	1.212	0.911	0.888	0.685	0.713	0.616	0.444	0.542	0.402	0.484	0.434	0.434	0.443	0.436	0.387	0.321	0.354	0.300	0.351	0.250	0.300	0.278	0.361	0.493	0.494	0.464	0.362	0.694	2.328	5.237	9.389	12.80	11.67	5.005	0.886	0.242	0.117	0.150	0.185	0.152	0.144	0.090	0.168	0.176	0.156	0.137	0.128	0.124	0.106	0.139	0.129	0.121	0.112	0.099	0.100	0.163	0.153	0.173
240.0	163.8	187.6	888.5	3701	3731	446.1	23.09	6.653	4.797	4.597	3.958	4.090	3.598	2.779	2.412	2.032	1.532	1.575	1.186	1.056	0.857	0.842	0.779	0.663	0.644	0.489	0.602	0.518	0.548	0.438	0.365	0.301	0.369	0.499	0.342	0.483	0.318	0.395	0.335	0.312	0.287	0.267	0.355	0.484	0.516	0.573	0.451	0.768	1.347	3.031	8.007	18.34	19.62	12.41	3.990	0.532	0.157	0.158	0.173	0.143	0.143	0.138	0.202	0.128	0.122	0.120	0.165	0.103	0.134	0.127	0.138	0.127	0.120	0.101	0.124	0.130	0.122
245.0	146.1	208.9	260.5	1472	4871	3463	345.4	12.17	6.143	5.469	4.482	4.191	3.835	2.703	2.381	1.896	1.840	1.486	1.230	1.191	0.880	0.895	0.831	0.608	0.647	0.515	0.536	0.494	0.486	0.499	0.384	0.476	0.410	0.407	0.389	0.404	0.368	0.392	0.290	0.375	0.287	0.206	0.295	0.364	0.384	0.675	0.756	0.614	0.564	0.872	2.072	6.812	16.73	25.57	22.51	11.70	2.537	0.245	0.143	0.202	0.202	0.174	0.182	0.178	0.127	0.137	0.112	0.144	0.124	0.236	0.128	0.120	0.163	0.158	0.106	0.141	0.095
250.0	61.32	184.1	258.8	410.6	1749	4591	4899	1323	77.78	8.841	6.166	5.295	4.653	3.279	2.690	2.287	1.953	1.771	1.370	1.229	1.063	0.862	0.865	0.789	0.735	0.595	0.682	0.558	0.588	0.546	0.485	0.458	0.414	0.389	0.398	0.464	0.345	0.325	0.337	0.391	0.358	0.307	0.319	0.305	0.293	0.374	0.566	0.781	0.944	0.800	0.862	1.795	4.325	8.961	16.17	24.13	28.63	19.74	11.67	3.090	0.370	0.199	0.197	0.188	0.154	0.156	0.148	0.153	0.160	0.202	0.140	0.102	0.160	0.138	0.121	0.170	0.134
255.0	32.97	66.76	218.8	354.5	460.9	1249	4956	8234	1902	85.07	9.932	7.367	5.435	4.086	3.228	2.507	2.185	2.030	1.744	1.462	1.213	1.114	1.110	0.866	0.632	0.771	0.750	0.714	0.650	0.582	0.592	0.488	0.480	0.397	0.373	0.398	0.334	0.320	0.405	0.410	0.329	0.404	0.306	0.339	0.302	0.315	0.330	0.410	0.592	1.060	1.322	1.417	1.300	2.218	3.843	6.142	12.33	28.16	48.90	29.61	17.76	3.230	0.351	0.257	0.198	0.160	0.194	0.164	0.163	0.234	0.152	0.104	0.144	0.156	0.092	0.153	0.147
260.0	27.68	33.07	97.73	330.0	318.8	325.2	1651	7908	9137	1472	39.79	11.71	7.906	5.643	3.825	3.056	2.583	2.265	2.006	1.558	1.233	1.144	1.167	0.868	0.754	0.865	0.739	0.676	0.677	0.661	0.558	0.543	0.562	0.445	0.469	0.419	0.378	0.394	0.352	0.390	0.352	0.331	0.317	0.294	0.254	0.275	0.310	0.275	0.353	0.516	1.005	1.735	1.548	1.128	1.144	1.597	3.077	8.067	23.74	46.32	63.84	28.45	13.39	1.581	0.307	0.197	0.244	0.209	0.232	0.204	0.185	0.136	0.163	0.172	0.134	0.188	0.174
265.0	26.50	24.51	46.13	180.1	407.2	226.1	410.8	2979	9999.9	9218	228.5	18.31	10.65	7.175	5.134	3.683	2.990	2.313	2.223	1.680	1.432	1.286	1.064	0.996	0.865	0.846	0.784	0.867	0.831	0.799	0.668	0.519	0.599	0.482	0.512	0.472	0.516	0.397	0.399	0.405	0.329	0.341	0.410	0.328	0.359	0.287	0.299	0.274	0.279	0.336	0.382	0.959	1.759	2.075	1.310	0.714	0.944	2.126	5.809	14.68	38.63	64.70	72.92	25.04	7.212	0.477	0.271	0.222	0.225	0.213	0.193	0.157	0.189	0.205	0.192	0.136	0.167
270.0	37.60	28.53	30.57	63.09	220.5	391.4	288.1	729.1	3531	9999.9	9999.9	3107	59.11	11.11	7.086	5.310	3.533	2.808	2.408	1.962	1.841	1.463	1.281	1.114	0.882	0.941	0.939	0.837	0.931	0.747	0.724	0.633	0.630	0.554	0.533	0.470	0.429	0.439	0.420	0.438	0.433	0.375	0.408	0.389	0.420	0.375	0.302	0.309	0.300	0.308	0.282	0.449	0.780	1.290	1.778	1.977	1.658	1.196	1.677	3.602	9.362	19.70	40.24	58.97	52.16	58.85	16.40	6.437	0.623	0.308	0.277	0.243	0.269	0.199	0.238	0.182	0.209
275.0	60.06	45.99	35.73	35.47	72.30	213.4	510.7	364.1	839.8	2577	9437	9999.9	1273	61.36	11.46	7.531	4.921	4.078	3.080	2.404	2.200	1.801	1.571	1.501	1.076	1.123	1.018	0.972	0.938	0.905	0.725	0.709	0.530	0.590	0.585	0.517	0.460	0.579	0.481	0.447	0.394	0.431	0.453	0.483	0.471	0.420	0.326	0.351	0.323	0.334	0.369	0.378	0.409	0.536	0.701	1.191	2.490	3.150	1.990	1.382	2.494	4.802	9.363	14.12	18.63	53.51	96.44	96.38	25.47	6.846	0.466	0.338	0.320	0.289	0.335	0.259	0.253
280.0	90.61	75.47	57.09	44.04	41.77	88.22	372.1	556.1	314.1	645.7	2823	9999.9	9999.9	935.4	30.28	10.90	6.333	5.150	4.291	3.060	2.347	2.113	1.643	1.455	1.484	1.184	1.091	0.925	1.002	0.887	0.824	0.681	0.719	0.736	0.686	0.609	0.631	0.594	0.534	0.537	0.479	0.369	0.524	0.546	0.513	0.518	0.477	0.475	0.388	0.318	0.324	0.337	0.335	0.377	0.479	0.505	1.152	2.241	3.354	2.829	1.646	1.509	2.537	3.557	4.790	13.93	36.43	81.70	113.8	34.31	20.23	2.670	0.413	0.366	0.295	0.298	0.312
285.0	126.1	122.9	88.07	64.24	45.40	54.14	165.4	556.3	352.7	249.7	729.9	3653	9999.9	8729	125.2	17.73	8.919	6.334	4.520	3.634	2.637	2.351	2.250	1.643	1.589	1.355	1.241	1.085	1.055	0.984	0.888	0.819	0.755	0.972	0.718	0.813	0.670	0.646	0.646	0.552	0.492	0.458	0.548	0.574	0.541	0.621	0.605	0.614	0.572	0.437	0.399	0.409	0.416	0.427	0.316	0.393	0.633	0.985	1.977	3.259	3.484	1.895	1.271	1.320	1.696	3.848	8.713	21.53	52.84	92.84	115.6	30.81	13.34	1.034	0.439	0.352	0.325
290.0	183.0	189.7	157.0	100.7	71.50	63.21	97.35	255.3	545.9	488.4	330.4	974.4	3639	9999.9	9999.9	2252	36.87	9.655	6.470	4.588	3.510	2.867	2.326	2.022	1.909	1.541	1.381	1.268	1.118	1.050	0.950	0.960	0.904	1.025	0.927	0.900	0.838	0.744	0.730	0.672	0.580	0.609	0.595	0.626	0.725	0.680	0.774	0.774	0.669	0.604	0.551	0.530	0.479	0.529	0.432	0.453	0.529	0.672	0.875	1.495	2.466	3.256	3.435	2.604	1.531	1.755	2.740	5.635	12.78	24.99	49.17	66.05	89.09	69.71	20.48	10.06	1.458
295.0	260.3	275.9	231.9	163.4	103.9	94.22	103.4	158.2	292.0	710.7	666.3	455.4	999.8	2533	8641	9999.9	712.7	36.07	9.648	6.404	4.249	3.724	2.756	2.306	2.170	1.684	1.727	1.467	1.324	1.197	0.937	0.931	0.825	0.979	1.025	0.959	0.861	0.839	0.830	0.654	0.648	0.710	0.684	0.752	0.862	0.887	0.789	0.929	0.992	0.823	0.755	0.633	0.681	0.653	0.580	0.569	0.650	0.686	0.739	0.993	1.180	1.524	2.330	4.256	4.141	3.234	2.033	2.398	3.994	6.654	11.86	15.66	23.86	43.97	87.69	112.4	32.73
300.0	318.6	338.0	314.8	211.1	133.1	118.9	131.1	163.9	231.5	484.2	970.9	591.2	478.5	741.0	2411	9999.9	9999.9	549.0	19.87	8.208	5.881	4.353	3.131	2.866	2.203	1.895	1.875	1.577	1.392	1.400	1.058	1.024	0.809	0.955	1.062	0.996	0.952	0.893	0.864	0.741	0.757	0.948	0.739	0.789	1.016	0.990	0.950	1.231	0.963	1.084	0.785	0.795	0.763	0.726	0.693	0.527	0.791	0.935	0.868	1.097	0.978	1.375	1.608	2.524	4.122	5.319	3.842	2.531	2.270	2.797	3.786	4.488	6.226	10.94	27.27	67.58	108.2
305.0	334.9	396.9	363.4	234.9	162.6	148.3	170.5	204.7	264.5	394.1	791.4	995.6	498.0	399.4	689.2	3181	9999.9	5330	77.69	12.88	6.906	5.566	3.576	3.216	2.546	2.057	1.771	1.488	1.403	1.335	1.125	1.033	0.948	1.062	1.046	0.991	1.073	1.083	0.947	0.676	0.726	0.827	0.808	0.875	1.044	1.218	1.149	1.311	1.160	1.081	0.963	0.893	0.854	0.844	0.712	0.889	0.883	1.115	1.031	1.324	1.184	1.446	1.528	2.132	2.764	4.110	5.256	5.102	3.306	2.379	2.341	2.349	2.554	3.425	6.971	16.87	40.36
310.0	393.3	464.3	426.5	286.6	198.4	174.9	207.4	247.5	308.7	404.3	576.2	894.1	895.9	479.5	351.7	826.1	3190	9069	8485	1623	25.75	7.764	4.885	4.098	2.803	2.320	2.089	1.834	1.500	1.391	1.297	1.230	1.079	1.158	1.072	1.031	1.096	1.067	0.929	0.764	0.861	0.791	0.830	0.981	1.092	1.252	1.359	1.461	1.378	1.254	1.055	1.075	1.000	0.935	0.855	0.918	1.068	1.192	1.167	1.350	1.479	1.672	1.852	2.130	2.395	2.823	3.540	4.362	4.867	4.630	3.563	2.442	2.033	2.022	2.497	4.627	9.824
315.0	406.7	528.2	490.0	332.7	226.5	205.0	239.0	285.0	342.4	438.8	548.7	671.2	846.4	844.5	376.7	322.7	798.5	2165	6461	9999.9	516.3	26.85	7.473	5.498	3.427	3.126	2.326	1.910	1.853	1.517	1.445	1.109	1.043	1.142	1.043	1.117	1.082	1.011	0.954	0.985	0.780	0.921	0.991	1.154	1.139	1.350	1.475	1.582	1.493	1.266	1.171	1.196	1.151	0.948	0.933	0.994	1.203	1.418	1.389	1.303	1.817	1.848	1.919	2.186	2.367	2.590	2.966	3.239	3.218	4.288	5.072	4.581	3.078	2.128	1.811	2.042	2.974
320.0	420.0	585.6	533.1	344.9	238.6	224.4	254.6	300.2	370.3	464.9	559.0	627.8	693.5	869.7	603.0	246.9	280.4	545.4	1713	8340	9765	427.8	15.57	7.036	4.500	3.652	2.669	2.133	2.047	1.726	1.753	1.260	1.207	1.319	1.158	1.172	1.105	0.966	0.995	0.807	0.781	0.906	0.952	1.194	1.227	1.704	1.539	1.738	1.886	1.419	1.114	1.239	1.061	1.066	0.933	1.099	1.109	1.288	1.400	1.477	1.842	1.912	2.126	2.287	2.609	2.734	2.824	3.027	3.164	3.513	3.845	4.689	4.898	3.653	2.064	1.610	1.736
325.0	499.6	613.5	578.5	389.6	261.6	228.9	268.6	311.9	386.0	479.1	573.1	629.5	643.7	671.3	753.5	362.6	183.8	194.0	429.6	2425	9787	4057	62.00	10.40	6.230	4.229	3.096	2.540	2.318	1.779	1.760	1.508	1.248	1.134	1.151	1.164	1.042	0.995	0.996	0.792	0.840	0.875	1.046	1.121	1.297	1.502	1.576	2.026	1.741	1.610	1.207	1.372	1.154	1.192	1.252	1.094	1.338	1.449	1.483	1.525	1.696	2.022	2.220	2.351	2.690	2.740	2.866	2.853	3.091	3.286	3.289	3.412	4.385	4.388	3.745	2.234	1.557
330.0	520.1	666.0	643.0	449.4	300.6	261.8	286.0	339.3	400.5	488.1	583.7	648.0	641.3	584.4	586.4	545.5	296.2	141.7	158.1	588.7	2797	6364	6459	1398	22.36	6.270	4.175	3.313	2.776	1.933	1.919	1.630	1.455	1.390	1.225	1.221	1.102	1.085	0.917	0.937	0.933	0.933	1.048	1.131	1.316	1.430	1.744	2.062	2.011	1.778	1.448	1.593	1.324	1.231	1.168	1.195	1.475	1.507	1.480	1.479	1.841	2.072	2.117	2.331	2.510	2.812	2.812	3.067	3.163	3.100	3.198	2.905	3.035	3.298	3.668	3.477	2.930
335.0	552.8	689.2	673.7	498.6	356.8	308.8	308.0	353.4	423.5	503.6	590.5	647.8	646.0	572.8	481.8	433.9	483.4	241.5	121.9	192.5	670.1	1513	4809	9496	437.8	24.27	6.181	4.645	3.150	2.466	2.162	1.853	1.461	1.574	1.323	1.140	1.253	1.120	1.130	0.884	0.852	0.957	1.077	1.159	1.392	1.655	1.755	2.111	2.230	1.915	1.645	1.635	1.541	1.424	1.378	1.226	1.553	1.607	1.609	1.625	1.863	2.177	2.136	2.439	2.602	2.969	2.927	3.060	3.043	2.984	2.962	2.857	2.858	2.770	2.659	2.650	2.865
340.0	524.3	701.5	713.1	532.7	378.4	342.4	331.7	369.1	433.4	503.4	585.3	650.3	638.6	577.7	468.8	364.9	428.2	401.1	162.8	122.0	206.8	380.9	1274	6906	8126	381.8	14.03	5.611	4.099	2.913	2.491	1.905	1.644	1.562	1.529	1.165	1.044	1.072	1.194	0.901	0.887	0.931	1.105	1.129	1.402	1.591	1.958	2.306	2.141	1.865	1.699	1.806	1.538	1.709	1.464	1.361	1.615	1.546	1.757	1.679	2.148	2.096	2.030	2.529	2.428	2.985	2.879	3.059	3.060	2.979	3.041	2.916	2.700	2.886	2.434	2.317	2.273
345.0	504.0	699.5	712.5	571.4	413.6	384.6	354.5	385.7	440.9	501.8	580.5	631.3	631.0	571.4	468.8	359.2	328.5	424.9	290.9	132.5	121.3	141.2	326.3	1980	7882	6543	55.10	8.528	5.032	3.486	2.874	2.128	2.002	1.609	1.577	1.165	1.112	1.081	1.138	0.958	0.991	0.918	1.060	1.109	1.327	1.598	1.891	2.231	1.991	1.769	1.703	1.945	1.679	1.761	1.695	1.452	1.611	1.574	1.746	1.737	1.880	2.042	2.108	2.452	2.655	2.951	2.809	2.897	3.137	3.121	3.115	3.131	2.740	2.766	2.275	2.200	2.228
350.0	500.6	693.2	710.8	587.9	461.1	411.8	394.7	411.9	448.1	502.1	574.8	614.0	607.7	562.9	472.4	373.2	312.4	323.0	370.0	264.0	141.5	113.3	133.7	488.3	2247	5771	5244	1247	20.14	5.056	3.477	2.561	2.229	1.794	1.527	1.334	1.272	1.134	1.095	1.021	0.935	1.063	0.998	1.142	1.278	1.544	1.883	2.093	2.117	1.822	1.785	1.983	1.824	1.962	1.732	1.670	1.834	1.769	1.764	1.817	2.047	2.264	2.183	2.405	2.571	2.795	2.838	3.029	3.059	2.930	2.974	2.964	2.784	2.720	2.480	2.198	2.247
355.0	494.0	659.7	694.4	593.4	520.3	465.8	440.5	448.5	467.0	512.4	567.6	597.5	592.6	564.7	482.2	393.0	335.6	302.0	303.2	366.5	257.6	142.6	117.0	173.7	548.0	1367	3810	7603	404.5	22.71	5.301	3.616	2.787	1.947	1.661	1.388	1.284	1.177	1.104	1.043	0.934	1.098	1.035	1.107	1.253	1.537	1.651	1.929	2.137	1.868	1.922	2.175	1.978	1.976	1.906	1.962	1.966	1.972	1.963	2.111	2.138	2.258	2.446	2.431	2.476	2.582	2.962	2.732	2.938	2.688	2.755	2.745	2.907	2.953	2.601	2.275	2.489
360.0	496.5	647.7	665.5	610.8	544.6	501.3	477.3	478.7	498.6	529.8	570.3	595.2	586.8	557.6	495.2	414.6	364.6	314.6	289.3	328.9	357.9	207.0	135.1	121.5	183.8	348.4	1015	5552	6851	359.9	12.49	4.363	3.420	2.162	2.106	1.536	1.447	1.212	1.230	1.014	0.974	1.079	1.074	1.030	1.368	1.584	1.639	2.001	2.001	1.928	1.870	2.294	2.046	2.067	2.116	2.014	2.084	2.165	2.187	2.086	2.423	2.253	2.325	2.609	2.441	2.834	2.878	2.870	2.998	2.685	2.753	2.941	3.121	2.812	2.726	2.546	2.598
365.0	472.3	635.5	668.8	630.0	584.0	534.2	516.9	502.8	518.7	545.5	579.6	598.5	591.1	558.9	503.3	430.7	379.8	338.9	306.1	298.5	359.9	315.5	173.9	129.5	118.1	132.8	268.7	1625	6790	3224	50.94	7.419	3.884	2.949	2.224	1.697	1.378	1.324	1.290	0.913	0.991	1.081	1.029	1.165	1.314	1.529	1.588	2.081	2.017	1.851	1.940	2.207	2.021	2.216	2.164	2.027	2.212	2.225	2.377	2.017	2.335	2.292	2.290	2.629	2.520	2.628	2.843	2.770	2.953	3.049	2.825	2.731	2.745	2.763	2.823	2.606	2.727
370.0	457.3	623.3	674.5	658.1	600.0	575.2	550.2	540.0	545.0	570.3	594.5	595.9	588.5	559.7	515.6	455.3	408.1	376.3	342.8	313.4	315.7	352.5	288.0	175.7	130.9	108.8	117.4	406.2	1966	4753	4898	1120	17.34	4.187	2.776	2.047	1.630	1.477	1.387	1.186	1.088	1.083	1.066	1.211	1.261	1.559	1.705	2.033	1.972	1.858	1.951	2.267	2.198	2.306	2.163	2.204	2.360	2.485	2.325	2.323	2.310	2.587	2.606	2.622	2.648	2.688	2.880	2.912	2.725	2.895	2.968	2.828	2.829	2.839	2.782	2.566	2.799
375.0	476.0	604.6	683.4	676.7	641.9	620.8	592.0	579.7	577.5	582.1	594.9	599.4	581.5	558.0	518.4	473.3	433.7	410.8	375.2	342.6	322.0	316.4	347.6	279.8	168.6	127.7	105.1	149.4	479.8	1141	3728	6856	345.6	19.40	3.812	2.476	2.166	1.756	1.552	1.249	1.105	1.209	1.187	1.123	1.278	1.580	1.798	1.948	2.123	1.936	2.085	2.328	2.366	2.502	2.397	2.261	2.485	2.526	2.351	2.592	2.536	2.666	2.879	2.846	2.852	2.686	2.903	2.715	2.710	2.738	2.705	2.685	2.882	2.996	2.899	2.585	2.741
380.0	463.7	612.2	703.0	709.7	676.5	634.5	616.2	599.5	589.8	601.1	600.1	601.7	581.4	561.3	521.3	479.0	454.0	420.4	392.9	363.9	336.5	310.7	319.7	346.0	227.2	150.5	118.1	105.4	156.4	290.9	1012	5236	5778	296.8	9.378	3.263	2.641	1.959	1.640	1.356	1.283	1.238	1.225	1.097	1.384	1.580	1.610	2.083	1.967	1.925	2.059	2.461	2.331	2.461	2.527	2.630	2.653	2.557	2.684	2.987	2.652	2.696	2.658	2.824	2.900	2.761	2.701	2.710	2.753	2.800	2.881	2.818	2.782	3.065	2.993	2.856	2.915
385.0	460.6	599.1	697.3	708.6	691.1	664.0	634.9	625.2	595.1	603.9	612.7	606.9	585.2	559.9	529.7	481.5	459.8	431.5	407.7	380.9	353.6	326.2	306.1	335.4	303.1	187.7	135.4	109.0	97.95	111.0	259.4	1556	5807	2688	40.98	5.279	3.534	2.291	1.851	1.468	1.300	1.242	1.271	1.344	1.411	1.442	1.778	2.029	1.961	1.912	2.136	2.344	2.368	2.440	2.652	2.765	2.631	2.523	2.662	2.653	2.672	2.861	2.750	2.969	3.030	2.773	2.645	2.851	2.775	2.772	2.756	2.883	2.893	3.028	3.018	3.104	3.120
390.0	482.4	611.5	696.6	700.4	704.5	685.0	651.5	638.0	616.5	613.1	619.2	606.4	588.2	555.9	527.0	485.3	466.6	441.9	423.5	396.2	371.8	343.2	315.8	306.1	319.9	271.7	179.3	132.9	105.3	88.06	102.5	379.3	1695	3883	3783	853.2	14.15	3.172	2.456	1.838	1.512	1.368	1.342	1.355	1.429	1.610	1.663	2.120	2.085	1.952	2.217	2.495	2.592	2.515	2.809	2.833	2.760	2.618	2.661	2.845	2.720	2.821	2.777	2.824	2.987	2.726	2.776	2.822	2.810	2.745	2.941	2.855	2.954	3.048	2.853	3.017	3.033
395.0	476.2	620.1	701.4	717.8	729.5	699.5	670.1	651.1	634.7	633.2	618.9	605.8	579.0	553.4	518.4	482.5	466.3	447.8	431.7	408.2	383.1	359.4	328.7	307.7	289.2	302.7	259.5	167.8	128.6	100.3	83.84	126.5	405.6	934.8	3007	5205	286.9	14.30	3.118	2.257	1.805	1.551	1.557	1.507	1.489	1.670	1.873	2.008	2.077	2.001	1.936	2.509	2.651	2.558	2.769	2.830	2.972	2.888	2.971	2.757	2.847	2.788	2.886	2.756	2.915	2.955	2.740	2.937	2.930	2.660	2.967	2.922	2.837	3.085	3.095	3.114	3.145
400.0	456.8	612.0	720.6	717.8	713.4	713.3	675.3	662.3	640.4	636.5	619.8	613.4	578.1	550.0	521.1	486.1	461.1	451.4	431.3	415.1	389.2	365.9	344.1	313.9	291.2	281.1	299.1	216.8	149.8	118.2	90.66	79.30	125.1	233.2	838.0	4133	4334	238.1	7.154	2.867	2.187	1.903	1.579	1.484	1.615	1.710	1.895	1.950	2.070	2.062	2.140	2.630	2.353	2.767	2.892	2.690	2.935	2.767	2.993	2.661	2.996	2.900	2.755	2.723	2.909	3.007	2.773	2.809	2.776	2.792	2.797	2.926	2.694	2.784	2.993	3.130	3.145
405.0	447.1	611.7	710.3	716.1	709.6	719.0	698.0	665.2	644.1	637.3	618.1	605.3	581.7	549.9	517.4	476.5	463.2	445.0	428.4	415.0	393.4	372.0	349.9	322.7	297.2	272.8	286.3	267.5	180.7	134.9	103.0	78.21	69.48	81.06	208.7	1247	4519	2276	35.41	4.553	2.634	1.943	1.699	1.751	1.731	1.732	1.769	2.039	2.261	2.145	2.104	2.640	2.579	2.752	2.625	3.008	2.927	3.075	3.002	2.945	3.014	3.074	2.942	2.840	2.808	2.728	2.747	2.801	2.847	2.725	2.789	2.653	2.910	2.717	2.690	3.124	2.962
410.0	469.9	619.3	696.8	717.2	720.9	713.5	695.3	677.0	664.0	640.1	614.4	596.9	570.5	540.7	505.6	465.5	448.4	436.2	418.1	407.7	392.5	372.7	355.1	332.6	308.0	279.7	265.0	271.3	244.1	169.1	122.1	91.87	69.13	56.61	73.24	298.5	1335	3092	3054	748.3	12.11	2.739	2.055	1.829	1.678	1.825	1.824	2.071	2.151	2.094	2.008	2.548	2.681	2.761	2.613	2.905	2.979	3.000	3.170	2.866	3.011	2.971	3.019	2.973	2.683	2.946	2.773	2.772	2.798	2.722	2.973	2.890	2.872	2.761	2.849	2.970	2.785
415.0	457.4	588.5	677.2	699.8	720.4	704.6	693.2	681.6	651.0	644.8	616.1	585.4	556.5	527.0	483.0	450.6	431.7	420.3	410.0	394.6	381.6	367.8	351.1	333.3	312.1	288.5	264.0	249.6	259.4	224.4	148.9	106.6	80.57	60.49	50.08	91.07	314.9	747.3	2377	4018	259.1	13.15	2.956	2.170	1.910	1.981	1.915	2.095	2.341	1.880	2.092	2.655	2.635	2.709	2.712	2.742	3.045	2.940	3.170	2.898	3.138	2.799	2.820	2.790	2.901	2.767	2.799	2.670	2.592	2.684	2.780	2.873	2.690	2.771	2.757	2.699	2.697
420.0	443.9	575.3	649.7	688.8	701.1	692.6	683.2	678.1	647.3	641.3	618.0	581.0	542.0	511.2	468.2	437.4	421.0	405.1	393.5	386.2	373.0	362.0	345.2	329.2	310.5	287.6	266.5	245.0	241.0	247.2	182.3	121.0	90.17	67.72	51.44	48.94	91.26	181.5	653.2	3134	3437	221.0	6.566	2.868	2.337	2.236	2.043	2.297	2.099	1.938	2.281	2.670	2.609	2.622	2.492	2.796	3.081	2.793	3.052	2.888	2.911	2.941	2.908	3.019	2.789	2.721	2.641	2.647	2.543	2.532	2.664	2.377	2.729	2.766	2.739	2.589	2.766
425.0	431.3	548.6	656.3	690.4	695.2	670.6	678.7	678.6	645.8	632.8	609.5	569.0	535.3	496.2	456.6	422.3	404.2	394.2	381.5	374.2	362.8	353.2	337.1	323.4	308.3	287.3	267.4	246.7	230.9	233.6	214.4	142.4	100.1	75.67	56.92	44.67	45.51	57.87	159.8	947.5	3487	2092	33.63	4.447	2.669	2.473	2.219	2.169	2.212	1.971	2.169	2.572	2.613	2.629	2.425	2.697	2.895	2.786	3.150	2.828	2.950	3.026	2.999	2.995	2.871	2.926	2.744	2.471	2.467	2.789	2.622	2.759	2.614	2.655	2.554	2.431	2.447
430.0	507.9	536.3	638.8	664.6	674.8	665.1	669.9	665.9	640.4	627.5	602.6	568.4	520.5	480.9	440.6	407.1	388.7	377.6	362.9	356.6	347.4	338.1	331.1	317.0	304.2	287.6	268.4	250.0	229.6	215.6	212.5	178.6	121.1	86.99	66.34	50.94	41.38	35.75	52.92	225.3	1013	2442	2567	677.8	11.79	3.180	2.352	2.273	2.191	2.098	2.113	2.458	2.549	2.607	2.583	2.647	2.910	2.770	3.121	2.819	2.924	3.012	2.880	2.886	2.749	2.699	2.737	2.485	2.728	2.577	2.450	2.553	2.494	2.535	2.490	2.396	2.481
435.0	928.0	550.0	615.3	636.6	643.7	649.1	658.1	655.1	641.6	626.8	595.3	556.9	506.7	469.8	428.0	394.9	376.9	361.3	348.6	341.3	331.4	324.2	318.3	309.3	297.1	282.1	266.6	251.2	234.3	213.5	196.9	185.6	156.7	104.1	77.67	60.24	46.79	37.25	33.78	66.82	238.6	583.0	1872	3505	247.6	14.00	3.209	2.825	2.255	2.204	2.084	2.556	2.590	2.632	2.493	2.666	2.741	2.718	2.952	2.847	3.177	3.195	2.860	3.076	2.804	2.585	2.473	2.479	2.523	2.609	2.431	2.456	2.400	2.378	2.410	2.161	2.416
440.0	1483	592.5	593.5	613.5	633.5	646.1	656.0	644.8	641.8	610.8	580.8	556.8	507.1	455.5	415.0	382.5	360.3	349.5	339.9	326.8	318.2	313.9	309.3	302.7	288.9	277.8	262.6	248.0	233.4	214.1	192.7	175.2	172.7	127.7	85.66	67.61	52.91	41.60	32.48	34.51	67.95	141.8	508.3	2651	3165	215.0	7.771	3.087	2.460	2.156	2.259	2.392	2.524	2.500	2.699	2.730	2.744	2.893	2.896	2.942	2.949	3.080	2.775	2.908	2.697	2.672	2.431	2.632	2.532	2.471	2.546	2.316	2.297	2.435	2.335	2.100	2.542
445.0	1826	961.3	574.8	590.4	614.3	627.3	638.5	628.0	624.6	599.1	578.8	547.9	495.0	439.8	400.1	365.7	347.1	333.2	323.0	315.8	306.0	302.0	297.8	289.8	281.9	272.0	257.8	248.3	234.3	215.9	192.8	169.0	163.3	146.7	99.12	73.01	58.85	45.58	37.06	30.18	32.67	44.99	125.0	787.2	3067	1945	29.69	5.198	2.904	2.312	2.388	2.578	2.585	2.559	2.663	2.612	2.941	2.779	2.890	2.706	2.816	2.681	2.675	2.814	2.828	2.618	2.525	2.588	2.332	2.498	2.431	2.398	2.311	2.295	2.207	2.145	2.467
450.0	1318	1969	724.0	552.5	583.7	600.3	611.1	593.2	600.7	581.3	563.3	521.1	470.3	427.8	377.2	349.5	326.9	313.2	301.3	295.2	286.5	281.7	280.5	272.8	265.9	257.5	245.4	238.3	226.3	212.2	189.9	164.9	147.6	141.9	122.3	87.63	64.93	50.85	41.85	33.99	29.06	26.72	40.95	186.8	870.5	2144	2304	666.3	11.35	2.961	2.317	2.662	2.613	2.342	2.417	2.489	2.714	2.793	2.817	2.738	2.690	2.671	2.725	2.730	2.573	2.618	2.406	2.444	2.172	2.197	2.300	2.334	2.310	2.064	2.115	2.101	2.279
455.0	632.7	2366	1268	538.9	546.9	572.9	567.6	575.3	570.5	554.1	532.6	491.1	441.5	401.6	355.7	323.2	302.5	288.2	277.8	270.7	265.5	261.5	256.5	255.3	247.5	236.2	232.5	224.2	215.5	204.0	185.1	162.7	140.7	125.0	123.6	107.7	74.36	56.37	46.63	37.83	31.02	25.81	24.32	54.03	203.2	505.3	1443	2989	208.3	12.98	2.746	2.605	2.455	2.412	2.577	2.392	2.501	2.813	2.602	2.749	2.637	2.669	2.468	2.624	2.496	2.523	2.399	2.333	2.129	1.999	2.171	2.099	2.106	1.881	1.847	1.837	2.023
460.0	391.5	1667	2623	667.2	515.6	532.3	542.1	548.5	544.9	539.2	512.8	473.8	418.8	378.4	337.6	302.6	283.1	271.5	260.8	253.4	248.4	244.0	240.3	236.6	229.4	225.1	218.6	212.3	205.2	196.1	179.7	158.1	137.3	118.8	112.6	111.6	84.85	61.08	49.42	40.90	32.92	27.58	22.50	25.22	55.61	121.5	372.1	1994	2552	172.8	8.220	3.084	2.690	2.513	2.461	2.328	2.547	2.521	2.766	2.359	2.433	2.414	2.426	2.736	2.486	2.383	2.423	2.078	2.161	1.900	2.102	1.982	2.030	1.904	1.782	2.000	1.849
465.0	307.4	909.8	3121	1275	480.6	492.7	513.3	513.5	516.1	510.7	486.6	447.4	391.0	358.6	318.1	281.8	265.2	250.5	241.1	234.8	228.7	226.1	223.3	221.7	216.3	208.8	207.4	200.8	197.3	187.5	171.9	152.2	134.9	115.7	103.3	100.6	95.01	67.87	51.17	42.42	34.20	28.94	23.25	20.19	23.98	36.43	91.31	560.1	2286	1461	142.7	5.747	3.028	2.522	2.273	2.137	2.454	2.579	2.459	2.472	2.444	2.215	2.428	2.333	2.454	2.270	2.409	2.094	2.040	2.054	2.070	2.014	1.956	1.985	1.729	1.861	1.894
470.0	284.5	476.7	2024	2700	607.8	450.3	461.6	474.0	474.9	465.6	448.1	411.6	368.0	327.1	291.0	259.5	240.4	227.6	218.3	210.9	206.8	202.1	201.0	197.6	195.9	190.9	186.3	182.2	179.7	171.8	159.6	143.6	126.9	110.8	96.20	88.53	87.68	77.19	57.50	43.84	36.06	30.03	24.22	20.61	17.79	18.67	28.96	132.1	625.7	1465	1650	622.3	12.47	3.121	2.470	2.340	2.292	2.373	2.328	2.360	2.290	2.219	2.101	2.164	2.248	2.245	1.974	1.989	1.802	1.805	1.868	1.727	1.713	1.894	1.777	1.648	1.738
475.0	281.6	343.0	835.0	2967	1749	421.4	427.6	427.6	427.6	426.2	411.2	379.8	336.0	301.0	265.8	238.4	216.9	203.6	194.6	189.4	186.0	178.4	176.9	176.8	174.8	169.9	167.1	165.0	161.9	158.4	147.5	133.1	117.8	104.2	90.65	81.05	75.14	73.75	66.35	47.80	38.08	31.12	25.78	21.07	17.75	15.67	15.65	36.90	145.3	338.4	841.2	2014	744.2	15.90	3.028	2.347	2.272	2.308	2.067	2.093	2.090	1.969	1.864	2.186	1.980	1.905	1.806	1.714	1.772	1.770	1.728	1.678	1.616	1.602	1.711	1.475	1.481
480.0	286.8	317.3	428.6	1993	2981	551.0	401.9	398.9	407.1	397.4	382.6	357.5	315.9	276.7	246.1	218.7	201.0	187.5	178.2	172.0	171.1	163.5	162.6	163.4	160.0	157.6	153.1	152.4	149.6	144.7	136.3	125.9	112.1	100.4	87.20	77.87	69.64	66.39	67.75	53.39	39.70	31.89	26.81	22.03	19.29	15.71	13.46	16.19	39.37	81.17	207.4	1095	1822	209.1	10.40	2.742	2.349	2.312	2.004	1.983	2.081	1.876	1.998	2.119	2.039	1.821	1.676	1.606	1.762	1.651	1.582	1.655	1.544	1.595	1.432	1.367	1.348
485.0	280.8	313.1	346.9	984.8	3394	1248	373.2	375.5	381.2	381.2	365.3	334.6	298.4	262.9	231.1	201.0	190.4	177.9	167.0	161.3	158.5	153.5	148.8	150.0	148.7	148.5	142.5	141.7	139.8	137.0	128.3	119.9	106.8	96.81	85.48	75.38	66.66	61.26	62.13	57.69	42.47	32.46	27.40	22.68	19.58	16.36	13.35	12.24	16.29	23.85	51.60	286.8	1394	1674	174.1	5.558	2.758	2.249	1.914	2.123	2.001	1.875	1.882	1.949	1.752	1.776	1.743	1.644	1.577	1.520	1.623	1.568	1.386	1.487	1.465	1.504	1.334
490.0	220.6	323.9	314.0	462.8	2127	2795	598.9	349.2	350.6	350.7	337.1	310.5	279.0	244.7	213.6	188.0	172.5	162.8	153.6	146.9	144.7	141.0	137.6	137.7	134.9	134.6	130.8	131.0	128.7	126.9	120.0	110.0	99.29	89.91	79.66	71.67	63.68	56.65	53.95	53.98	48.42	36.18	27.70	23.57	20.18	17.26	14.75	12.46	11.43	11.92	16.92	68.84	361.3	1052	1533	659.6	14.84	2.897	2.132	1.987	1.883	1.808	1.771	1.855	1.734	1.722	1.641	1.619	1.378	1.401	1.592	1.471	1.401	1.305	1.255	1.345	1.212
495.0	170.9	298.0	322.3	316.6	817.1	3048	1742	334.0	326.4	319.6	312.6	281.6	252.1	220.3	197.1	172.1	156.9	146.2	139.2	130.7	127.3	127.7	124.7	122.8	121.7	119.6	118.3	116.8	117.2	115.7	109.7	102.0	91.11	84.61	74.50	67.45	61.01	54.05	48.82	45.93	46.71	41.54	29.99	24.05	20.72	17.41	15.24	13.03	11.21	9.673	9.281	20.11	84.94	240.3	686.0	1836	967.1	20.76	2.671	2.074	1.893	1.849	1.608	1.757	1.686	1.535	1.519	1.436	1.284	1.371	1.401	1.275	1.355	1.265	1.129	1.121	1.162
500.0	145.1	239.8	323.0	273.8	391.4	2001	3015	408.3	299.1	298.8	288.7	259.5	233.4	207.7	180.6	155.1	143.6	133.9	125.0	119.5	118.0	114.5	112.9	112.3	111.2	110.7	107.1	107.5	106.3	105.1	100.6	93.79	84.68	77.68	69.43	63.52	57.49	50.26	46.96	41.80	40.63	42.59	34.35	24.78	20.75	17.73	15.32	13.06	11.24	9.417	8.029	9.739	23.25	57.48	164.3	883.9	1959	236.6	14.61	2.361	1.892	2.015	1.622	1.735	1.620	1.477	1.492	1.381	1.251	1.266	1.286	1.183	1.136	1.265	1.029	1.104	1.144
505.0	139.1	202.8	318.2	264.0	276.0	947.3	3507	1143	279.1	269.2	262.4	242.2	217.4	190.4	165.9	143.3	133.2	122.1	115.9	111.8	107.4	103.9	104.2	101.1	101.0	99.25	97.60	98.02	98.59	96.19	92.63	86.95	78.71	71.08	64.81	59.68	54.34	48.35	44.35	38.70	35.87	38.00	35.90	26.65	20.94	17.92	15.40	13.34	11.21	9.933	8.103	7.396	9.549	16.59	40.30	219.4	1138	1716	210.7	7.613	2.119	2.047	1.556	1.533	1.436	1.365	1.351	1.287	1.271	1.113	1.201	1.252	1.044	1.039	1.171	1.066	0.991
510.0	118.2	168.0	255.0	282.8	221.9	393.7	2174	2814	478.7	244.6	235.8	218.4	195.0	171.4	148.3	127.0	117.4	110.2	104.8	98.50	95.32	91.77	90.85	89.05	87.19	87.59	86.34	86.39	87.28	85.12	82.98	76.55	70.22	63.31	59.16	53.88	49.03	43.87	40.06	35.71	32.24	31.41	32.63	29.08	22.63	17.58	15.31	13.10	10.95	9.620	8.407	7.219	6.625	7.570	12.79	52.36	280.1	884.1	1297	578.9	15.81	2.280	1.757	1.545	1.372	1.302	1.336	1.092	1.167	1.045	0.927	1.059	0.905	0.904	0.977	0.922	0.864
515.0	104.9	151.3	190.1	266.2	212.6	237.8	751.1	3230	1624	228.1	211.9	192.4	171.0	151.5	131.6	114.2	102.9	95.84	89.68	86.15	82.05	80.07	78.09	78.30	75.96	75.39	73.91	74.67	75.67	73.67	72.10	68.29	62.29	56.08	51.30	48.15	44.42	39.96	35.64	32.31	29.70	26.90	26.29	27.46	25.54	18.15	14.71	12.61	10.85	9.144	8.086	7.598	5.898	5.694	6.695	15.12	65.46	200.6	457.8	1320	840.5	22.10	1.960	1.708	1.289	1.168	1.273	1.016	1.072	0.941	0.907	0.814	0.959	0.778	0.819	0.831	0.848
520.0	91.92	128.6	148.1	234.8	224.9	191.0	309.4	2122	3067	297.8	190.6	178.4	157.6	139.2	118.5	105.5	93.94	87.17	81.87	76.34	72.87	71.46	70.46	70.42	70.38	67.44	66.24	67.61	67.68	67.55	63.82	60.07	55.65	51.57	46.14	43.10	39.62	36.56	33.07	30.51	26.78	25.40	22.84	23.73	25.52	20.37	14.92	12.27	10.96	9.231	7.992	7.760	6.127	5.633	5.201	6.547	17.71	47.25	107.2	559.8	1414	244.7	15.56	1.719	1.441	1.246	1.061	0.896	0.955	0.904	0.860	1.018	0.865	0.829	0.843	0.755	0.802
525.0	92.64	119.7	128.3	193.8	237.4	175.9	193.2	935.9	3762	1038	177.5	162.8	144.9	126.5	107.4	95.20	85.26	78.53	73.25	68.45	66.76	63.45	64.64	63.35	63.07	61.40	59.72	61.20	60.59	61.09	59.08	54.67	50.66	47.56	42.95	39.48	36.86	33.26	30.81	27.65	25.91	23.53	20.92	20.16	22.52	21.88	16.02	12.01	10.44	8.693	7.914	7.254	6.131	5.699	4.741	4.800	7.078	13.44	26.41	135.0	714.7	1225	216.5	7.867	1.521	1.318	1.092	1.038	1.020	0.934	0.799	0.902	0.743	0.687	0.758	0.732	0.723
530.0	73.28	98.97	116.4	141.2	213.2	186.0	153.1	342.9	2331	2771	379.4	140.6	126.5	110.6	96.11	83.56	75.19	68.61	64.60	61.06	58.82	56.61	55.99	54.68	54.31	53.01	52.17	53.08	53.45	52.88	50.47	48.00	44.60	42.05	38.28	35.29	32.48	30.21	27.75	24.96	23.06	20.67	19.02	17.70	17.97	19.25	17.46	12.89	10.03	8.537	7.569	6.693	5.606	5.481	4.786	4.541	4.361	5.533	8.319	32.44	171.4	563.5	902.4	512.8	16.00	1.666	1.176	0.931	0.916	0.823	0.773	0.791	0.663	0.676	0.659	0.670	0.601
535.0	67.60	86.22	100.6	110.7	157.9	203.4	139.5	176.7	744.0	3392	1496	136.2	109.2	94.55	81.34	71.46	66.09	59.42	55.93	53.52	49.82	48.72	47.90	47.82	45.79	45.63	44.76	44.17	45.84	45.27	43.65	40.87	38.78	35.42	32.29	30.79	28.03	26.55	24.47	21.83	20.52	18.59	17.04	15.30	14.96	15.06	16.15	14.01	9.895	8.071	6.844	6.470	5.069	5.153	4.949	4.488	3.823	3.837	3.948	9.398	40.20	127.6	284.6	885.8	648.4	22.37	1.426	1.049	0.803	0.723	0.708	0.647	0.612	0.595	0.651	0.623	0.542
540.0	59.09	76.64	85.87	96.70	120.0	201.1	142.9	129.7	266.4	2126	3126	205.7	99.76	82.81	73.20	64.51	58.27	52.57	49.95	46.56	44.07	42.82	42.14	41.71	40.06	39.87	39.50	39.39	39.99	39.80	37.98	36.26	34.13	31.01	29.20	26.98	25.36	23.17	21.76	19.87	18.22	16.95	15.36	14.30	12.95	12.57	13.31	14.01	10.83	8.099	6.699	6.103	5.103	4.835	4.405	4.512	3.837	3.360	3.197	3.963	10.76	30.28	66.04	340.2	962.3	247.2	15.07	1.270	0.923	0.652	0.670	0.704	0.602	0.566	0.673	0.507	0.545
545.0	58.43	74.13	80.90	85.17	99.30	165.9	160.9	107.2	143.5	848.6	3822	774.4	90.56	73.85	66.11	57.98	53.03	46.40	44.80	42.55	39.72	37.69	37.61	35.98	34.68	35.10	34.37	34.50	34.78	34.73	34.40	31.82	29.76	27.34	25.61	23.54	22.53	21.05	19.38	17.80	16.44	14.81	13.87	12.72	12.22	11.29	11.15	12.35	11.45	8.152	6.398	5.487	4.655	4.326	4.149	4.375	3.964	3.075	2.800	2.823	4.201	8.517	16.31	80.28	442.2	851.5	208.2	6.960	1.105	0.683	0.650	0.659	0.536	0.597	0.678	0.496	0.512
550.0	49.67	61.57	67.87	69.93	79.01	113.0	167.5	101.7	103.1	276.5	2230	2361	146.0	65.40	57.02	48.82	43.83	39.74	37.02	34.89	32.26	31.98	30.97	30.26	29.48	29.13	28.48	29.66	28.87	29.29	28.63	27.08	25.22	23.36	21.63	20.22	18.83	17.24	16.32	14.97	14.05	13.07	12.01	10.95	10.20	9.626	8.757	9.351	10.12	8.588	6.413	4.966	4.299	3.763	3.605	3.605	3.647	3.175	2.596	2.451	2.536	3.492	5.056	19.25	104.5	363.3	606.1	300.0	15.25	1.052	0.676	0.624	0.501	0.493	0.490	0.510	0.419
555.0	41.98	52.14	57.78	58.67	61.82	75.90	137.9	122.3	78.73	121.5	648.9	3137	985.6	61.62	46.40	38.90	35.43	31.72	29.86	28.41	26.82	26.25	25.35	24.87	24.04	23.46	22.89	23.45	22.73	24.53	23.51	22.11	20.44	18.44	17.73	16.96	15.88	14.60	13.55	12.91	11.38	10.69	9.870	9.435	8.473	7.884	7.437	7.026	7.447	8.216	6.823	4.894	3.886	3.443	3.103	3.154	3.130	3.028	2.722	2.164	1.976	2.183	2.400	5.268	24.37	82.22	185.7	546.0	255.6	20.13	0.849	0.564	0.587	0.488	0.440	0.473	0.364
560.0	39.24	46.04	47.32	54.73	53.27	55.99	101.2	142.1	75.18	79.35	203.7	1956	2358	113.1	40.40	33.61	31.12	28.62	25.39	24.69	23.06	22.39	22.24	20.73	20.69	19.82	20.11	20.04	19.77	19.97	19.44	18.80	17.55	15.88	15.06	14.67	13.52	12.47	11.95	10.75	9.891	9.146	8.552	7.825	7.168	6.910	6.480	5.735	5.810	6.563	6.712	5.078	3.724	2.925	2.920	2.863	2.720	2.365	2.660	2.199	1.614	1.817	1.629	2.113	6.410	19.36	42.73	206.7	549.4	229.2	11.44	0.761	0.528	0.433	0.315	0.395	0.393
565.0	37.73	46.68	40.92	48.85	44.99	47.38	68.17	141.5	81.79	64.52	92.81	735.8	3154	446.6	37.81	30.34	27.32	24.19	22.49	20.30	19.68	19.08	18.62	17.35	16.95	17.47	17.32	17.13	16.63	16.93	17.14	15.65	14.62	13.17	12.81	12.01	10.97	10.71	10.27	9.147	8.661	8.090	7.767	6.840	6.455	6.292	5.759	4.967	4.765	4.846	5.833	5.100	3.451	2.611	2.610	2.630	2.327	1.939	2.157	2.322	1.736	1.692	1.451	1.386	2.546	5.144	10.37	48.55	252.0	521.3	166.2	4.321	0.591	0.480	0.398	0.320	0.407
570.0	31.98	42.14	40.14	39.31	39.96	39.73	49.00	104.3	105.6	58.12	60.73	214.2	1908	1722	78.88	25.84	22.53	20.29	18.11	16.95	16.38	15.85	15.04	14.30	13.99	13.99	13.92	13.70	13.80	13.90	13.73	12.88	11.93	10.86	10.71	9.828	9.445	8.809	8.372	7.745	7.139	6.747	6.372	5.654	5.459	5.061	4.780	4.225	3.978	3.505	4.111	4.497	3.617	2.664	2.267	2.127	1.991	1.825	1.878	1.926	1.969	1.617	1.345	1.275	1.428	1.923	3.057	11.67	59.28	211.8	360.3	146.1	13.51	0.679	0.376	0.308	0.359
575.0	35.52	38.89	36.58	37.81	34.31	33.87	36.36	60.49	119.1	63.78	51.21	81.61	537.7	2415	625.5	23.85	18.59	16.49	14.72	13.93	12.91	12.88	12.09	12.29	11.60	11.25	11.03	10.98	11.51	10.80	11.21	10.21	9.773	8.896	8.318	8.164	7.717	6.920	6.511	6.353	6.049	5.455	5.202	4.609	4.490	4.047	3.891	3.609	3.084	2.684	2.923	3.162	3.499	3.078	2.126	1.838	1.598	1.617	1.431	1.568	1.519	1.691	1.457	1.177	1.145	1.178	1.446	3.317	13.82	47.93	106.7	304.8	227.0	16.81	0.499	0.326	0.367
580.0	32.91	35.77	35.50	32.10	28.96	29.51	34.82	43.53	103.6	79.98	45.42	51.34	153.2	1533	1622	47.55	15.84	14.88	13.20	11.99	10.92	10.99	10.80	10.16	9.869	9.468	9.436	9.718	9.940	8.851	9.195	8.605	8.153	7.715	7.107	6.834	6.489	5.783	5.476	5.128	4.987	4.557	4.290	4.158	3.888	3.684	3.437	3.158	2.701	2.410	2.324	2.316	3.049	3.035	2.264	1.768	1.385	1.500	1.304	1.380	1.233	1.637	1.473	1.203	0.920	0.905	1.136	1.489	3.871	11.43	24.80	113.5	340.1	173.3	8.051	0.426	0.361
585.0	34.92	36.01	36.28	32.31	25.51	27.65	30.64	34.21	76.26	99.39	46.91	40.19	63.55	565.6	2244	113.0	14.46	12.73	11.02	11.03	9.884	9.941	8.947	9.163	8.145	7.998	7.877	8.433	8.344	7.837	8.172	7.422	7.101	6.798	6.174	5.926	5.444	5.465	4.983	4.670	4.313	4.203	3.660	3.619	3.383	3.234	2.983	2.625	2.411	2.258	2.001	2.066	2.436	2.709	2.466	1.802	1.445	1.246	1.236	1.184	1.086	1.191	1.449	1.255	0.934	0.984	0.915	0.958	1.562	3.153	6.200	26.72	149.1	314.2	35.79	2.883	0.425
590.0	36.05	34.17	32.63	29.16	24.89	24.25	26.81	29.19	47.03	97.31	61.67	38.97	42.22	156.5	1358	1071	39.54	10.93	9.542	9.305	8.307	8.073	7.258	7.220	6.793	6.617	6.723	6.654	6.650	6.453	6.660	6.180	5.663	5.580	5.165	4.660	4.535	4.441	4.269	3.714	3.686	3.345	3.147	2.924	2.853	2.765	2.478	2.241	2.023	1.770	1.734	1.650	1.675	1.973	2.386	1.871	1.514	1.177	1.029	0.937	0.970	1.065	1.097	1.311	1.129	0.962	0.798	0.799	0.890	1.275	1.869	6.462	34.99	124.2	197.8	115.3	11.85
595.0	30.48	34.90	34.90	27.83	21.79	21.02	22.88	25.76	32.82	67.46	88.03	39.96	34.38	55.40	378.0	1588	319.1	10.01	8.119	7.539	6.892	6.537	5.941	6.015	5.990	5.323	5.310	5.283	5.349	5.361	5.270	5.189	5.019	4.114	4.009	3.942	3.669	3.419	3.622	3.021	2.790	2.743	2.597	2.312	2.356	2.208	1.949	1.895	1.640	1.612	1.409	1.307	1.230	1.342	1.846	1.873	1.609	1.032	0.914	0.787	0.856	0.833	0.925	0.910	1.334	0.959	0.823	0.775	0.774	0.788	0.887	1.924	8.311	28.15	58.00	180.7	152.5
600.0	31.23	35.85	34.81	28.44	20.51	20.17	21.28	22.76	28.31	47.06	94.28	46.59	33.90	31.64	102.5	1058	776.0	19.36	7.605	6.805	5.847	5.416	5.083	4.671	5.042	4.737	4.523	4.497	4.624	4.793	4.398	4.282	4.389	3.773	3.454	3.294	3.163	3.024	2.829	2.585	2.335	2.284	2.288	1.949	1.945	1.826	1.760	1.714	1.405	1.209	1.210	1.160	1.092	1.062	1.332	1.667	1.597	1.185	0.952	0.824	0.776	0.840	0.842	0.664	1.076	1.147	0.872	0.794	0.755	0.661	0.620	0.893	2.293	6.651	13.40	65.24	198.0
605.0	32.62	31.67	31.93	24.68	20.34	17.14	21.10	22.85	26.50	34.61	81.84	60.02	33.53	26.53	36.99	402.1	1333	74.17	6.635	6.013	5.145	4.688	4.550	4.266	4.143	4.184	4.089	3.979	3.964	4.071	3.814	3.470	3.530	3.286	3.086	2.928	2.893	2.752	2.436	2.128	2.059	1.923	1.971	1.828	1.616	1.448	1.636	1.379	1.320	1.099	1.052	0.957	0.872	0.830	0.934	1.283	1.464	1.229	0.919	0.753	0.712	0.778	0.802	0.606	0.864	0.987	0.934	0.791	0.634	0.620	0.606	0.578	0.905	2.057	3.429	15.23	82.62
610.0	28.10	30.79	31.44	23.53	18.81	17.75	19.17	22.20	26.01	30.80	59.12	74.56	37.13	26.22	22.55	107.9	914.7	649.8	17.45	5.311	4.515	4.089	3.924	3.852	3.599	3.487	3.450	3.211	3.414	3.127	3.294	2.923	2.865	2.806	2.730	2.520	2.316	2.269	2.117	1.940	1.664	1.768	1.567	1.454	1.479	1.307	1.273	1.119	1.123	1.010	0.928	0.813	0.736	0.752	0.802	0.934	1.069	1.213	1.060	0.786	0.744	0.680	0.652	0.619	0.638	0.761	0.855	0.875	0.678	0.621	0.633	0.554	0.543	0.859	1.102	3.677	19.40
615.0	26.52	31.22	29.30	22.85	19.98	17.86	18.94	21.72	24.43	29.07	41.04	75.42	48.73	25.19	18.29	33.00	265.8	1054	78.68	4.509	3.796	3.387	3.346	3.223	3.038	2.803	2.803	2.646	2.687	2.654	2.694	2.410	2.379	2.330	2.359	2.322	1.911	1.886	1.774	1.491	1.353	1.399	1.141	1.292	1.106	1.198	1.032	0.972	0.920	0.930	0.850	0.672	0.652	0.612	0.616	0.695	0.744	1.100	1.001	0.793	0.628	0.627	0.525	0.574	0.542	0.696	0.648	0.872	0.737	0.560	0.563	0.506	0.423	0.583	0.545	1.165	4.596
620.0	26.51	29.01	28.23	17.67	17.00	18.00	16.99	20.37	22.52	25.68	34.11	60.03	60.71	24.79	17.28	15.85	69.65	780.0	506.0	7.870	3.286	3.377	2.897	2.906	2.686	2.409	2.436	2.469	2.316	2.106	2.281	2.186	1.992	2.270	2.100	2.114	1.877	1.696	1.653	1.525	1.271	1.231	1.152	1.181	0.995	0.796	0.925	0.848	0.802	0.733	0.692	0.682	0.543	0.531	0.566	0.523	0.635	0.908	0.746	0.682	0.523	0.541	0.538	0.512	0.516	0.602	0.663	0.629	0.748	0.586	0.531	0.500	0.426	0.396	0.404	0.563	1.319
625.0	28.78	29.90	25.62	17.54	16.44	15.50	15.64	19.29	22.37	24.48	30.07	45.38	67.70	29.44	16.51	12.48	22.98	325.5	906.1	43.01	3.257	3.019	2.846	2.421	2.432	1.995	2.188	2.131	2.005	2.006	2.131	1.968	1.817	1.874	1.683	1.798	1.870	1.646	1.325	1.236	0.991	1.001	0.905	1.002	0.764	0.750	0.910	0.720	0.738	0.570	0.550	0.574	0.475	0.590	0.564	0.507	0.480	0.606	0.767	0.782	0.494	0.497	0.452	0.461	0.430	0.509	0.554	0.460	0.666	0.752	0.584	0.409	0.419	0.364	0.462	0.452	0.584
630.0	29.60	29.40	25.27	18.43	14.55	14.06	16.35	18.64	22.10	24.45	28.12	35.95	58.30	39.52	16.86	11.77	10.93	85.48	691.0	388.9	8.136	2.659	2.414	1.975	1.941	1.832	1.858	1.716	1.814	1.672	1.887	1.576	1.571	1.569	1.477	1.494	1.333	1.423	1.130	1.131	1.022	0.911	0.783	0.816	0.624	0.697	0.701	0.582	0.592	0.516	0.509	0.508	0.416	0.458	0.464	0.401	0.413	0.455	0.536	0.722	0.590	0.517	0.442	0.449	0.413	0.457	0.456	0.463	0.546	0.622	0.629	0.453	0.415	0.324	0.407	0.316	0.368
635.0	31.89	32.06	26.17	16.66	14.52	14.61	14.29	16.20	19.10	22.64	27.08	31.18	41.14	48.01	19.81	10.68	7.868	23.49	214.6	763.1	57.78	2.516	2.247	1.786	1.728	1.610	1.455	1.363	1.459	1.290	1.538	1.244	1.350	1.375	1.179	1.196	1.054	1.231	0.965	0.847	0.926	0.712	0.656	0.746	0.538	0.558	0.554	0.582	0.534	0.408	0.454	0.458	0.355	0.383	0.362	0.294	0.439	0.424	0.397	0.467	0.566	0.516	0.505	0.392	0.408	0.388	0.371	0.372	0.434	0.373	0.586	0.591	0.395	0.372	0.354	0.322	0.301
640.0	29.72	31.64	27.31	15.98	13.38	13.21	14.62	16.16	19.77	21.88	25.36	28.60	33.78	48.47	25.26	10.97	8.073	9.092	55.32	626.6	323.6	4.119	1.990	1.834	1.531	1.273	1.350	1.317	1.302	1.168	1.303	0.972	1.125	1.152	1.042	1.060	0.967	1.059	0.943	0.762	0.820	0.708	0.672	0.601	0.553	0.480	0.540	0.521	0.444	0.401	0.409	0.391	0.375	0.288	0.317	0.299	0.401	0.361	0.311	0.397	0.450	0.494	0.489	0.332	0.360	0.416	0.415	0.341	0.366	0.292	0.448	0.639	0.484	0.354	0.343	0.293	0.244
645.0	27.38	26.56	24.64	16.59	13.13	13.51	13.00	15.41	18.77	23.18	25.29	28.69	30.91	39.68	31.67	10.58	7.493	5.905	15.57	292.7	586.6	24.09	2.222	1.462	1.405	1.206	1.218	1.187	1.229	1.063	1.152	1.049	1.115	1.065	1.066	1.044	1.006	0.951	0.834	0.836	0.716	0.734	0.571	0.526	0.529	0.423	0.416	0.474	0.418	0.316	0.325	0.322	0.280	0.290	0.296	0.325	0.328	0.293	0.319	0.325	0.348	0.462	0.347	0.379	0.321	0.375	0.423	0.390	0.419	0.258	0.359	0.511	0.542	0.362	0.339	0.276	0.257
650.0	29.42	26.16	25.44	16.56	12.27	11.52	12.64	14.08	17.09	20.63	24.54	28.79	28.00	31.79	36.02	12.31	7.533	5.391	6.275	85.44	652.4	68.08	2.187	1.457	1.287	1.142	1.111	0.995	1.005	0.984	1.091	0.818	0.915	0.921	0.939	1.089	0.965	0.908	0.725	0.727	0.624	0.628	0.589	0.504	0.518	0.455	0.382	0.381	0.417	0.289	0.270	0.287	0.311	0.293	0.277	0.344	0.278	0.304	0.235	0.275	0.417	0.319	0.350	0.320	0.278	0.312	0.322	0.365	0.316	0.289	0.378	0.383	0.491	0.423	0.294	0.282	0.260
