Sample:	'1
File name:	t2025061912恒业五路雨水管网.FD3
Run date:	'15:39:11, 06/23/2025
Operator:	Administrator
Comment:	'

Instrument
Model:	F-2700 FL Spectrophotometer
Serial number:	23B8-004
ROM Version:	4J14000 07

Instrument parameters
Measurement type:	3-D scan
Data mode:	Fluorescence
EX  Start WL:	220.0 nm
EX  End WL:	600.0 nm
EX Sampling interval:	5.0 nm
EM  Start WL:	230.0 nm
EM  End WL:	650.0 nm
EM Sampling interval:	5.0 nm
Scan speed:	12000 nm/min
EX Slit:	5.0 nm
EM Slit:	5.0 nm
PMT Voltage:	700 V
Response:	Auto 
Corrected spectra:	Off
Contour interval:	50.000

Peak integration
Integration method:	Rectangular
Sensitivity:	1
Threshold:	1.000

Peaks
No.	ApexEX/EM(nm)	Height(Data)
1	225.0/490.0	411.0
2	225.0/585.0	54.76
3	230.0/250.0	269.9
4	230.0/350.0	827.3
5	230.0/505.0	343.7
6	235.0/260.0	360.1
7	235.0/515.0	272.7
8	240.0/265.0	436.9
9	240.0/525.0	248.5
10	245.0/270.0	488.6
11	245.0/385.0	900.8
12	245.0/535.0	212.0
13	250.0/275.0	627.5
14	250.0/550.0	180.0
15	255.0/280.0	608.4
16	255.0/565.0	143.5
17	260.0/290.0	524.9
18	260.0/575.0	120.5
19	265.0/295.0	612.2
20	265.0/585.0	102.8
21	270.0/300.0	817.3
22	270.0/600.0	85.32
23	275.0/305.0	782.2
24	275.0/610.0	64.78
25	280.0/310.0	615.4
26	280.0/625.0	54.91
27	285.0/315.0	584.7
28	285.0/635.0	38.38
29	290.0/325.0	547.4
30	295.0/330.0	425.3
31	300.0/335.0	399.8
32	305.0/345.0	354.6
33	310.0/350.0	304.8
34	315.0/355.0	293.4
35	320.0/360.0	289.8
36	325.0/370.0	266.5
37	330.0/375.0	264.2
38	335.0/380.0	272.0
39	345.0/395.0	223.9
40	350.0/400.0	221.7
41	360.0/415.0	171.0
42	365.0/420.0	169.1
43	375.0/435.0	126.0
44	380.0/440.0	120.3
45	390.0/455.0	84.61
46	395.0/460.0	76.91
47	410.0/480.0	48.61
48	425.0/500.0	31.33
49	430.0/505.0	27.46
50	445.0/525.0	17.58
51	455.0/540.0	12.03
52	485.0/265.0	2.272
53	495.0/270.0	2.302
54	500.0/390.0	3.745
55	505.0/275.0	3.543
56	505.0/385.0	3.837
57	510.0/280.0	3.793
58	510.0/380.0	3.828
59	515.0/285.0	3.655
60	530.0/290.0	3.347
61	540.0/295.0	4.396
62	545.0/300.0	4.718
63	550.0/305.0	4.785
64	560.0/310.0	3.654
65	570.0/315.0	3.626
66	580.0/320.0	3.893
67	585.0/325.0	3.758

Data points
	220.0	225.0	230.0	235.0	240.0	245.0	250.0	255.0	260.0	265.0	270.0	275.0	280.0	285.0	290.0	295.0	300.0	305.0	310.0	315.0	320.0	325.0	330.0	335.0	340.0	345.0	350.0	355.0	360.0	365.0	370.0	375.0	380.0	385.0	390.0	395.0	400.0	405.0	410.0	415.0	420.0	425.0	430.0	435.0	440.0	445.0	450.0	455.0	460.0	465.0	470.0	475.0	480.0	485.0	490.0	495.0	500.0	505.0	510.0	515.0	520.0	525.0	530.0	535.0	540.0	545.0	550.0	555.0	560.0	565.0	570.0	575.0	580.0	585.0	590.0	595.0	600.0
230.0	105.4	1200	1715	349.4	13.36	5.841	5.429	4.013	3.424	3.168	2.602	2.572	2.414	1.809	1.452	1.321	1.144	1.048	0.968	0.944	0.785	0.741	0.677	0.676	0.698	0.636	0.533	0.533	0.530	0.531	0.453	0.464	0.487	0.424	0.444	0.409	0.382	0.384	0.409	0.389	0.599	0.903	0.707	0.445	0.383	0.400	1.749	5.093	6.219	3.380	1.029	0.329	0.239	0.272	0.261	0.258	0.277	0.235	0.259	0.276	0.236	0.271	0.258	0.255	0.281	0.250	0.249	0.291	0.268	0.239	0.260	0.295	0.266	0.285	0.280	0.256	0.282
235.0	196.0	365.7	1339	1554	370.0	18.01	6.218	4.279	3.520	3.148	3.308	2.418	2.386	1.827	1.640	1.317	1.364	1.166	0.967	0.869	0.844	0.747	0.720	0.679	0.669	0.573	0.592	0.591	0.519	0.522	0.524	0.527	0.542	0.441	0.477	0.392	0.410	0.433	0.420	0.383	0.406	0.596	0.769	0.945	0.699	0.380	0.627	1.523	2.830	4.345	5.513	4.971	1.881	0.474	0.338	0.250	0.289	0.268	0.272	0.261	0.246	0.225	0.238	0.266	0.307	0.312	0.221	0.237	0.249	0.254	0.231	0.257	0.282	0.290	0.304	0.310	0.292
240.0	303.5	193.1	457.8	1613	1517	260.4	10.21	3.903	3.892	3.505	2.848	2.597	2.390	1.961	1.576	1.429	1.148	1.206	0.850	0.890	0.863	0.652	0.711	0.689	0.631	0.605	0.575	0.526	0.485	0.576	0.500	0.476	0.451	0.466	0.453	0.365	0.397	0.426	0.366	0.405	0.341	0.433	0.423	0.762	0.955	0.844	0.629	0.678	0.889	1.542	3.705	7.789	7.967	4.265	1.473	0.363	0.285	0.296	0.275	0.242	0.279	0.226	0.269	0.270	0.263	0.286	0.210	0.277	0.304	0.274	0.290	0.279	0.227	0.259	0.262	0.276	0.260
245.0	220.0	280.0	165.7	663.8	2023	1426	167.0	5.981	4.605	3.918	3.785	2.746	2.501	2.273	1.685	1.425	1.188	1.072	0.835	0.870	0.801	0.685	0.830	0.671	0.649	0.550	0.549	0.588	0.576	0.528	0.492	0.518	0.452	0.407	0.413	0.448	0.383	0.391	0.369	0.417	0.333	0.384	0.382	0.455	0.718	0.944	1.159	0.836	0.486	0.523	1.080	3.191	6.773	9.655	8.015	3.911	0.933	0.312	0.265	0.237	0.279	0.248	0.238	0.307	0.227	0.248	0.283	0.275	0.267	0.268	0.308	0.247	0.254	0.300	0.231	0.276	0.247
250.0	87.01	245.7	269.9	237.4	750.6	1847	1894	222.2	23.33	4.980	4.405	2.973	2.587	2.241	1.793	1.413	1.308	1.278	0.988	0.863	0.868	0.695	0.761	0.647	0.680	0.654	0.590	0.540	0.541	0.590	0.509	0.524	0.460	0.408	0.390	0.387	0.346	0.362	0.362	0.433	0.335	0.362	0.370	0.391	0.448	0.485	0.740	1.129	1.079	0.780	0.622	0.990	1.887	3.729	5.935	8.756	10.69	8.207	3.903	1.043	0.308	0.251	0.279	0.345	0.257	0.277	0.267	0.292	0.244	0.286	0.296	0.269	0.265	0.278	0.217	0.252	0.262
255.0	45.35	82.31	246.6	339.1	244.0	533.7	1962	2638	279.7	21.80	5.652	3.783	3.208	2.417	1.942	1.697	1.289	1.331	1.070	0.910	0.944	0.866	0.740	0.712	0.641	0.674	0.617	0.573	0.493	0.628	0.550	0.630	0.552	0.454	0.361	0.364	0.378	0.415	0.383	0.441	0.400	0.413	0.351	0.375	0.391	0.415	0.388	0.473	0.669	1.078	1.423	1.198	0.925	1.161	1.648	2.414	4.949	11.03	17.32	14.04	6.028	1.130	0.306	0.324	0.240	0.308	0.267	0.261	0.250	0.298	0.276	0.316	0.336	0.270	0.304	0.253	0.293
260.0	38.71	34.27	110.6	360.1	304.7	184.8	702.4	2862	2268	214.8	10.97	5.055	3.567	3.235	2.118	1.734	1.514	1.498	1.023	0.857	0.974	0.937	0.780	0.718	0.725	0.627	0.711	0.559	0.661	0.612	0.591	0.599	0.553	0.433	0.480	0.409	0.379	0.404	0.373	0.388	0.397	0.464	0.397	0.377	0.359	0.317	0.316	0.382	0.415	0.584	1.039	1.812	1.770	1.007	0.817	0.964	1.518	3.474	8.848	16.80	20.79	13.38	4.028	0.591	0.281	0.294	0.344	0.308	0.264	0.291	0.285	0.236	0.312	0.235	0.260	0.265	0.343
265.0	37.59	25.38	42.26	195.2	436.9	245.2	225.0	1138	3639	1929	157.1	7.164	4.549	3.645	2.517	2.104	1.497	1.409	1.248	1.204	0.980	0.856	0.728	0.877	0.826	0.643	0.717	0.580	0.622	0.567	0.608	0.564	0.568	0.501	0.521	0.432	0.362	0.459	0.388	0.385	0.357	0.400	0.391	0.428	0.371	0.401	0.346	0.401	0.348	0.481	0.494	1.013	2.001	2.272	1.482	0.819	0.803	1.164	2.454	5.659	13.77	22.99	21.17	10.84	2.003	0.460	0.300	0.308	0.279	0.267	0.311	0.304	0.251	0.289	0.267	0.257	0.303
270.0	43.70	30.29	29.98	78.98	284.8	488.6	306.0	333.5	1319	3189	3208	638.0	23.87	4.383	3.209	2.397	1.832	1.578	1.349	1.215	1.014	0.952	0.910	0.916	0.888	0.652	0.720	0.606	0.654	0.577	0.660	0.644	0.632	0.494	0.489	0.452	0.464	0.526	0.376	0.411	0.455	0.383	0.401	0.395	0.393	0.377	0.301	0.382	0.353	0.318	0.346	0.577	0.948	1.537	2.191	2.302	1.988	1.229	1.063	1.735	3.612	7.254	12.45	18.48	21.20	17.84	8.874	2.136	0.395	0.327	0.367	0.295	0.309	0.326	0.280	0.262	0.325
275.0	81.80	46.96	36.87	55.71	138.0	337.5	627.5	326.7	349.4	868.1	3059	5049	815.5	17.28	4.451	3.755	2.187	1.884	1.698	1.534	1.212	1.038	0.918	0.953	0.811	0.663	0.651	0.731	0.653	0.716	0.593	0.602	0.713	0.668	0.556	0.630	0.657	0.689	0.506	0.535	0.444	0.430	0.494	0.441	0.460	0.500	0.430	0.442	0.368	0.384	0.353	0.531	0.697	0.831	1.076	1.620	2.893	3.543	2.409	1.141	1.212	2.029	3.173	4.697	7.498	16.38	29.13	27.75	12.85	2.029	0.377	0.311	0.320	0.314	0.325	0.293	0.321
280.0	124.9	93.05	54.43	58.01	110.7	206.5	483.4	608.4	217.4	247.8	964.8	4445	4627	134.9	9.915	4.476	2.976	2.264	1.901	1.518	1.327	1.180	0.976	0.896	0.901	0.818	0.794	0.698	0.653	0.695	0.687	0.695	0.675	0.728	0.768	0.818	0.825	0.796	0.642	0.643	0.586	0.585	0.578	0.499	0.647	0.526	0.502	0.515	0.448	0.372	0.338	0.489	0.577	0.692	0.814	1.038	1.575	2.709	3.793	3.045	1.415	0.983	1.171	1.501	2.039	4.535	11.39	23.92	32.94	24.98	8.438	1.011	0.439	0.367	0.302	0.337	0.362
285.0	199.2	137.2	76.74	62.38	92.45	144.6	255.4	607.8	341.0	141.5	281.1	1488	5255	3560	95.36	5.914	3.881	2.716	2.052	1.711	1.355	1.286	0.980	1.022	0.938	0.860	0.899	0.777	0.688	0.589	0.540	0.774	0.660	0.822	0.924	0.938	1.063	0.969	0.887	0.685	0.690	0.629	0.584	0.634	0.655	0.625	0.684	0.571	0.463	0.428	0.377	0.520	0.501	0.742	0.633	0.783	1.004	1.260	2.239	3.655	3.550	1.966	0.841	0.845	0.928	1.475	3.100	6.835	15.70	28.96	32.91	19.58	4.910	0.488	0.409	0.352	0.374
290.0	259.4	192.5	111.5	78.95	84.66	117.8	142.1	268.0	524.9	444.2	189.4	418.5	1632	3778	2901	402.8	18.40	3.763	2.623	2.143	1.595	1.529	1.265	1.060	0.990	0.967	0.880	0.827	0.727	0.657	0.651	0.742	0.792	1.049	1.120	1.221	1.211	1.164	1.015	0.829	0.880	0.803	0.759	0.803	0.790	0.792	0.740	0.723	0.710	0.512	0.434	0.472	0.522	0.613	0.628	0.635	0.812	0.801	1.053	1.568	2.407	3.073	3.347	2.432	1.314	0.991	1.259	2.114	4.191	8.033	14.24	21.12	25.19	23.13	13.94	4.347	0.713
295.0	294.9	243.1	149.8	94.59	82.64	93.48	102.6	131.2	233.6	612.2	558.3	227.7	452.4	953.6	2478	4582	548.9	13.55	3.619	2.766	2.199	1.793	1.468	1.299	1.223	1.063	0.955	0.927	0.710	0.684	0.683	0.611	0.869	0.968	1.372	1.331	1.351	1.335	1.267	0.918	0.896	0.817	0.821	0.843	0.863	0.837	0.919	0.800	0.663	0.539	0.502	0.553	0.480	0.613	0.638	0.679	0.694	0.687	0.686	1.013	1.162	1.394	2.188	3.639	4.396	2.489	1.360	1.218	1.525	2.408	3.775	5.218	7.000	13.19	26.79	32.74	19.42
300.0	330.8	265.5	175.0	114.5	89.26	95.92	97.90	116.4	152.4	367.2	817.3	410.6	216.2	284.2	718.3	3534	4070	83.30	6.869	3.078	2.463	1.812	1.618	1.454	1.141	1.018	0.899	0.876	0.803	0.736	0.716	0.690	0.770	1.053	1.381	1.477	1.273	1.308	1.203	1.083	0.896	0.948	0.836	0.937	0.883	0.943	1.064	0.812	0.694	0.638	0.617	0.613	0.605	0.568	0.563	0.701	0.794	0.811	0.779	0.915	0.933	1.004	1.234	2.124	3.532	4.718	3.671	1.556	1.304	1.257	1.495	1.733	2.097	3.566	8.470	19.56	32.47
305.0	361.7	296.7	209.1	132.1	112.1	109.5	121.2	135.4	159.9	248.3	587.6	782.2	210.4	159.6	221.1	1079	4105	3129	63.39	4.691	3.238	2.380	1.964	1.402	1.215	1.141	1.086	1.002	0.869	0.883	0.652	0.674	0.754	1.145	1.313	1.443	1.360	1.373	1.231	1.103	0.969	1.021	0.867	1.075	0.856	1.063	1.005	0.938	0.716	0.676	0.593	0.637	0.681	0.660	0.629	0.648	0.819	0.833	0.892	0.927	1.046	1.027	1.002	1.461	1.844	3.153	4.785	4.137	2.498	1.274	1.009	0.941	1.180	1.385	2.395	5.183	11.80
310.0	362.1	303.2	223.3	153.6	126.6	129.4	139.4	159.9	180.1	220.0	339.1	611.7	615.4	249.6	129.8	297.1	1204	2918	3004	293.2	15.41	2.982	2.351	1.693	1.429	1.078	1.124	0.987	1.041	0.953	0.795	0.776	0.871	1.199	1.303	1.338	1.330	1.269	1.256	1.032	1.059	1.013	0.962	0.934	0.904	1.084	0.900	1.015	0.863	0.716	0.647	0.703	0.778	0.719	0.707	0.740	0.853	0.927	0.915	1.047	1.105	1.096	1.132	1.245	1.401	1.712	2.549	3.279	3.654	3.489	2.229	1.284	0.974	0.998	1.043	1.650	3.286
315.0	395.5	345.5	243.3	179.4	139.7	134.8	154.5	178.2	195.6	220.4	273.3	343.8	507.0	584.7	147.6	133.0	318.9	709.9	1947	3666	437.9	12.29	3.131	2.371	1.756	1.319	1.255	1.015	1.072	1.077	0.883	0.887	0.881	1.169	1.037	1.274	1.312	1.333	1.114	1.214	1.036	0.976	0.967	0.918	0.910	0.952	0.975	1.034	0.890	0.792	0.735	0.810	0.789	0.780	0.780	0.830	0.892	0.916	0.950	1.171	1.106	1.237	1.210	1.234	1.301	1.653	1.687	1.845	2.124	2.748	3.626	3.452	2.146	1.104	0.831	0.851	1.349
320.0	426.1	389.3	316.7	221.8	161.5	155.8	165.4	184.7	202.2	225.7	256.2	290.2	339.2	574.3	405.0	121.0	128.9	198.3	525.4	2582	3258	65.36	6.605	2.893	1.980	1.723	1.358	1.182	1.108	1.065	0.894	0.997	0.927	1.168	1.136	1.209	1.261	1.259	1.028	1.090	1.056	0.959	0.949	1.047	1.026	1.241	1.109	1.108	1.044	0.901	0.843	0.825	0.832	0.758	0.949	0.770	0.908	0.966	1.002	1.093	1.095	1.307	1.321	1.237	1.262	1.514	1.433	1.624	1.640	1.908	2.266	3.364	3.893	2.564	1.378	0.925	0.957
325.0	476.2	505.5	483.2	314.3	205.0	165.9	172.6	196.7	209.3	236.9	265.5	289.4	294.3	382.4	547.4	256.4	104.1	93.64	153.1	741.6	2993	2610	54.44	4.462	2.496	1.941	1.711	1.314	1.201	1.107	1.030	1.017	0.921	1.150	1.024	1.205	1.274	1.137	1.095	1.027	1.041	1.067	1.000	1.181	1.305	1.439	1.353	1.515	1.401	1.219	1.149	1.153	1.027	0.910	1.005	0.893	1.035	1.004	1.101	1.132	1.118	1.287	1.278	1.261	1.306	1.562	1.620	1.551	1.755	1.595	1.617	2.038	2.817	3.758	3.151	1.680	1.180
330.0	546.2	622.8	642.3	455.7	276.3	207.9	196.3	216.0	222.7	250.0	279.9	303.1	304.2	298.6	367.3	425.3	233.0	91.56	82.99	200.8	853.7	2246	2466	244.0	14.24	2.736	1.935	1.613	1.192	1.158	1.045	0.996	1.008	1.102	1.105	1.076	1.199	1.231	1.112	1.016	1.060	1.115	1.125	1.192	1.449	1.643	1.643	1.802	1.845	1.658	1.427	1.667	1.270	1.087	1.086	1.033	1.130	1.114	1.162	1.260	1.284	1.234	1.247	1.317	1.469	1.507	1.632	1.678	1.763	1.632	1.655	1.654	1.819	2.342	2.720	2.998	2.635
335.0	611.5	665.0	718.0	550.4	352.5	263.1	231.9	233.7	245.2	266.3	295.6	316.9	322.4	299.2	272.6	300.7	399.8	196.6	84.89	92.19	225.7	545.2	1531	3120	389.5	13.78	2.659	1.909	1.548	1.335	1.058	1.035	1.072	1.083	1.113	1.186	1.086	1.107	1.101	1.039	1.083	1.182	1.228	1.270	1.488	1.651	1.721	2.052	2.077	1.771	1.954	1.986	1.518	1.465	1.181	1.152	1.252	1.443	1.408	1.545	1.305	1.272	1.311	1.375	1.371	1.561	1.616	1.673	1.614	1.716	1.673	1.617	1.767	1.841	1.909	1.823	2.452
340.0	659.1	720.5	779.3	616.9	430.8	321.2	278.8	273.9	274.2	287.3	316.0	335.1	337.3	318.5	269.0	240.3	331.8	344.1	130.6	78.45	96.22	158.7	414.8	2159	2784	301.0	6.266	2.478	1.791	1.457	1.393	1.263	1.082	1.114	1.254	1.116	0.982	1.143	1.069	1.023	1.096	1.149	1.151	1.339	1.642	1.751	1.883	2.269	2.200	1.975	2.076	2.234	1.737	1.661	1.494	1.474	1.458	1.442	1.359	1.463	1.438	1.388	1.449	1.454	1.460	1.607	1.737	1.813	1.745	1.789	1.823	1.983	1.736	1.707	1.654	1.451	1.703
345.0	669.0	788.3	822.4	687.6	504.7	386.7	332.7	318.3	312.4	315.5	334.4	347.1	352.7	332.2	284.8	236.5	237.6	354.6	251.5	97.58	77.99	81.47	127.5	619.2	2504	2284	49.32	3.673	2.184	1.784	1.291	1.213	1.024	1.172	1.232	1.070	1.065	1.048	1.100	1.060	1.024	1.181	1.192	1.416	1.487	1.812	1.882	2.306	2.331	2.182	2.105	2.124	2.020	1.865	1.896	1.644	1.572	1.660	1.527	1.429	1.713	1.537	1.673	1.436	1.759	1.799	1.687	1.842	1.887	1.961	1.807	1.952	1.891	1.775	1.694	1.585	1.543
350.0	674.7	778.7	827.3	741.2	595.7	496.2	438.9	402.2	389.2	378.2	377.3	376.8	375.7	357.0	310.2	258.8	220.3	242.3	304.8	215.3	101.2	79.52	78.31	177.0	715.9	1874	2039	218.3	13.68	2.344	1.720	1.286	1.176	1.117	1.142	1.134	1.107	0.994	1.068	0.957	1.209	1.214	1.190	1.353	1.444	1.802	1.860	2.208	2.356	2.120	2.123	2.489	2.377	2.242	2.046	1.969	1.986	2.102	2.036	1.944	2.117	2.067	1.994	1.892	2.025	1.952	1.902	1.977	2.055	1.979	1.934	2.066	2.125	1.853	1.910	1.777	1.735
355.0	690.7	756.9	818.4	786.9	684.1	625.5	571.1	532.6	521.6	480.8	453.7	436.0	418.1	392.0	346.2	291.7	245.3	216.4	225.6	293.4	204.9	104.2	83.66	91.30	199.0	458.5	1260	2473	349.5	13.31	2.132	1.670	1.240	1.224	1.192	1.077	1.124	1.048	1.066	1.253	1.258	1.087	1.209	1.408	1.482	1.795	1.904	2.249	2.330	2.182	2.118	2.592	2.580	2.655	2.399	2.541	2.474	2.600	2.564	2.396	2.643	2.537	2.392	2.428	2.152	2.167	2.012	2.246	2.299	1.975	2.294	2.212	2.061	2.087	2.129	1.937	1.956
360.0	673.7	740.8	807.7	805.7	758.5	701.5	653.6	611.9	605.8	564.7	518.0	481.4	452.2	416.9	378.4	317.7	266.0	228.2	206.6	242.4	289.8	160.4	100.6	84.61	93.18	136.8	342.5	1746	2361	274.0	5.332	2.112	1.340	1.424	1.279	1.045	1.146	1.014	1.174	1.396	1.104	1.145	1.265	1.383	1.503	1.739	1.869	2.076	2.237	2.364	2.129	2.670	2.902	2.660	2.726	2.724	3.010	2.908	2.925	2.899	3.034	2.902	2.922	2.770	2.391	2.523	2.301	2.643	2.237	2.120	2.511	2.271	2.436	2.333	2.182	2.000	2.180
365.0	666.1	744.2	812.6	815.1	793.7	761.1	712.5	682.7	671.2	629.8	567.0	521.5	474.8	439.6	397.0	338.4	282.6	243.6	209.9	204.6	276.6	251.0	127.0	93.58	78.20	73.31	106.8	510.8	2178	2004	45.37	3.532	1.831	1.597	1.447	1.048	1.256	1.219	1.263	1.133	1.245	1.357	1.460	1.356	1.430	1.655	1.910	2.187	2.299	2.199	2.268	2.845	2.948	3.041	3.140	3.052	3.125	3.091	3.058	3.069	3.268	3.147	2.902	3.063	2.940	2.653	2.610	2.690	2.466	2.372	2.645	2.501	2.687	2.425	2.255	2.170	2.075
370.0	683.8	767.4	814.9	823.4	841.1	823.5	783.8	751.9	736.3	691.9	630.0	566.6	511.3	464.5	419.7	360.3	310.0	266.8	232.5	208.1	217.4	266.5	223.9	129.6	91.93	72.76	65.01	142.9	626.9	1698	1853	196.1	11.67	1.997	1.571	1.368	1.372	1.409	1.163	1.171	1.279	1.363	1.399	1.504	1.605	1.662	1.853	2.222	2.219	2.197	2.313	3.031	3.025	3.126	3.139	3.151	3.400	3.306	3.307	3.345	3.439	3.407	3.359	3.244	3.230	2.893	2.904	2.757	2.544	2.634	2.610	2.526	2.478	2.441	2.353	2.409	2.370
375.0	695.7	764.2	822.3	842.4	866.4	883.4	857.1	802.9	787.0	746.3	674.0	605.6	542.9	486.3	429.4	383.3	332.0	291.0	257.3	226.7	210.0	214.0	264.2	219.3	122.2	91.05	71.02	71.66	168.0	412.0	1196	2190	299.8	10.79	2.069	1.714	1.364	1.564	1.324	1.300	1.370	1.392	1.480	1.522	1.660	1.742	1.823	2.066	2.219	2.156	2.331	3.024	3.144	3.367	3.357	3.392	3.605	3.712	3.540	3.401	3.534	3.466	3.623	3.339	3.391	3.266	2.885	2.765	2.947	2.682	2.560	2.499	2.523	2.418	2.542	2.432	2.391
380.0	684.6	754.0	795.2	853.9	881.8	890.7	884.5	838.1	803.1	764.1	705.3	629.4	560.8	495.1	438.2	391.2	345.3	302.4	268.3	242.4	220.5	208.2	231.7	272.0	179.2	110.1	83.28	65.66	72.66	116.9	325.8	1613	1931	221.3	4.449	2.159	1.508	1.405	1.352	1.324	1.450	1.423	1.494	1.634	1.481	1.829	1.756	2.079	2.256	2.183	2.226	2.911	3.237	3.362	3.426	3.614	3.636	3.594	3.828	3.525	3.546	3.649	3.691	3.710	3.380	3.266	3.057	2.807	2.727	3.076	2.620	2.677	2.486	2.541	2.518	2.257	2.640
385.0	671.8	746.7	801.0	843.0	882.2	900.8	866.8	825.3	814.5	774.2	710.6	636.1	573.8	501.1	444.0	392.1	352.2	311.1	278.3	253.1	231.2	213.5	207.8	249.9	243.6	138.7	95.98	73.26	59.96	56.06	94.14	476.2	1800	1539	36.12	2.862	1.931	1.825	1.406	1.379	1.389	1.348	1.537	1.663	1.661	1.862	1.809	2.097	2.159	2.032	2.225	2.915	3.143	3.392	3.396	3.570	3.547	3.837	3.692	3.719	3.700	3.617	3.706	3.495	3.344	3.225	2.965	2.879	2.870	3.115	2.677	2.865	2.935	2.879	2.402	2.657	2.577
390.0	707.0	748.0	783.0	824.0	855.7	880.3	865.8	834.7	802.9	767.4	712.4	640.1	572.3	505.3	445.8	394.3	354.7	319.5	288.9	263.8	243.6	225.7	210.8	213.0	242.3	207.9	126.7	88.05	67.77	52.38	49.02	126.7	521.0	1332	1348	152.3	9.623	2.159	1.842	1.543	1.520	1.479	1.555	1.563	1.744	1.854	1.935	2.073	2.113	2.057	2.214	2.845	3.151	3.301	3.330	3.493	3.745	3.709	3.670	3.652	3.709	3.532	3.611	3.609	3.328	3.431	3.145	2.991	2.877	3.023	2.615	2.730	2.755	2.700	2.534	2.517	2.545
395.0	709.1	726.2	752.5	781.1	853.2	866.8	851.1	816.0	795.1	745.8	697.1	629.8	567.3	497.3	439.7	394.6	354.5	323.8	298.2	272.3	248.9	234.4	219.0	206.3	203.6	223.9	190.6	110.7	79.56	61.25	48.95	54.91	134.5	323.4	926.1	1608	239.5	7.245	1.804	1.592	1.635	1.549	1.573	1.641	1.685	1.916	1.956	2.098	1.948	2.104	2.059	2.741	2.978	3.141	3.146	3.311	3.626	3.505	3.798	3.439	3.490	3.611	3.644	3.449	3.349	3.105	2.956	2.946	2.850	2.912	2.589	2.668	2.904	2.633	2.551	2.504	2.506
400.0	697.5	725.5	733.4	773.4	824.3	846.8	843.0	814.3	778.2	733.0	691.6	616.6	560.8	489.9	438.0	392.2	355.6	325.7	298.4	278.7	255.3	242.9	224.9	210.1	193.2	197.5	221.7	149.7	92.11	69.79	54.56	44.15	52.55	88.05	256.9	1226	1380	37.19	3.580	1.954	1.480	1.613	1.647	1.648	1.649	1.840	1.868	2.010	1.911	1.992	2.068	2.720	2.891	2.855	2.960	3.329	3.586	3.457	3.819	3.423	3.388	3.481	3.552	3.662	3.395	3.320	3.039	3.076	2.784	2.851	2.551	2.588	2.656	2.759	2.355	2.397	2.696
405.0	659.3	715.4	720.6	761.7	791.5	821.9	820.4	794.7	756.1	720.9	668.8	614.6	550.3	483.4	430.5	386.2	351.3	325.5	292.0	276.7	257.3	243.5	227.0	211.0	193.8	179.6	201.1	193.7	116.4	80.16	62.23	47.19	38.95	38.59	72.06	364.5	1340	1059	31.06	2.489	1.799	1.616	1.666	1.721	1.577	1.727	1.849	2.072	1.946	1.979	1.986	2.630	2.838	2.889	3.062	3.140	3.646	3.405	3.542	3.226	3.452	3.461	3.087	3.357	3.143	3.056	3.028	3.003	2.752	2.852	2.555	2.600	2.661	2.515	2.587	2.551	2.511
410.0	648.0	689.9	692.1	723.6	747.7	784.6	794.7	774.0	732.4	695.6	649.2	594.2	532.2	470.7	417.5	374.6	346.4	316.8	293.4	275.0	255.9	240.9	227.8	213.5	194.8	177.9	170.0	184.7	164.2	104.7	74.28	54.51	42.53	33.15	34.13	94.63	392.2	980.4	998.3	138.1	7.609	1.986	1.824	1.710	1.593	1.711	1.786	2.005	2.034	1.957	2.044	2.550	2.676	2.833	3.007	3.013	3.361	3.413	3.476	3.182	3.323	3.400	3.229	3.200	3.075	2.946	2.895	2.861	2.772	2.754	2.531	2.517	2.493	2.523	2.409	2.408	2.520
415.0	634.7	680.9	659.6	682.6	703.3	757.4	750.3	745.5	713.6	664.0	632.4	570.6	514.7	451.6	401.8	359.1	331.4	304.8	288.0	269.0	250.4	236.2	224.2	210.0	195.6	178.3	162.4	154.2	171.0	151.7	91.26	63.89	49.09	38.13	30.40	37.83	99.31	238.9	694.5	1150	202.9	6.181	2.082	1.863	1.688	1.605	1.835	1.913	1.813	1.843	1.987	2.377	2.552	2.643	2.782	3.031	3.233	3.162	3.203	3.139	3.214	3.230	3.093	3.165	3.092	2.760	2.828	2.650	2.583	2.590	2.505	2.414	2.405	2.209	2.256	2.467	2.286
420.0	603.5	622.7	656.4	636.1	690.3	725.9	723.3	716.6	694.3	650.2	607.1	556.0	497.0	437.8	389.2	352.8	322.7	300.6	275.0	261.4	245.8	235.6	218.6	207.9	194.3	178.2	160.1	147.8	149.5	169.1	119.9	73.70	56.14	41.85	32.23	27.55	36.51	63.86	192.7	882.3	1022	33.97	3.191	2.066	1.875	1.669	1.867	1.662	1.989	1.785	1.860	2.283	2.559	2.546	2.871	3.087	3.134	2.992	3.237	2.948	3.174	3.284	2.804	3.155	2.891	2.644	2.543	2.671	2.693	2.634	2.390	2.261	2.505	2.388	2.401	2.413	2.187
425.0	633.8	634.4	626.7	622.0	644.7	691.1	707.9	698.1	688.2	634.4	594.6	535.0	478.1	421.0	376.9	338.2	310.9	288.9	272.5	258.0	241.7	232.2	215.0	206.8	191.7	178.1	159.9	146.7	136.5	155.1	147.5	89.99	61.12	46.83	36.19	28.36	24.63	26.11	51.83	265.6	983.2	787.2	27.49	2.452	1.884	1.839	1.759	1.763	1.854	1.660	1.833	2.192	2.387	2.592	2.768	2.950	3.118	2.885	3.057	2.880	3.003	3.125	3.051	3.092	2.865	2.555	2.696	2.554	2.501	2.556	2.394	2.412	2.061	2.354	2.283	2.384	2.318
430.0	745.4	607.7	606.4	595.3	621.8	664.0	680.0	685.2	660.6	622.1	575.9	516.5	462.6	409.5	361.5	323.0	298.0	283.2	261.6	249.5	234.1	222.8	211.8	200.6	190.5	179.3	161.9	148.6	136.4	133.8	141.5	122.9	78.85	54.93	42.25	32.27	26.40	20.92	22.48	67.92	285.5	719.7	607.2	126.2	7.242	2.064	1.747	1.873	1.815	1.649	1.755	2.261	2.246	2.503	2.484	2.665	2.850	3.074	2.969	2.766	2.939	2.859	2.901	2.865	2.655	2.659	2.598	2.427	2.377	2.309	2.251	2.353	2.206	2.237	2.052	2.196	2.267
435.0	1289	596.2	593.3	570.3	596.0	637.9	647.7	655.7	639.1	610.1	559.1	502.6	446.4	392.3	350.0	310.1	289.1	273.5	253.0	243.1	223.4	215.3	206.9	197.0	185.6	174.7	161.2	150.3	138.9	128.5	121.7	126.0	110.9	67.61	48.00	37.68	30.21	23.62	19.06	26.27	71.58	174.1	493.8	950.9	191.7	6.233	2.053	1.971	1.699	1.664	1.694	1.929	2.133	2.368	2.332	2.709	2.863	2.798	3.078	2.798	2.915	2.966	2.889	2.847	2.684	2.750	2.628	2.417	2.259	2.087	2.300	2.157	2.151	2.184	1.843	2.046	1.992
440.0	1753	690.8	546.5	560.4	573.1	609.1	633.2	638.7	635.1	591.6	545.9	491.6	436.5	387.2	337.8	301.3	281.3	266.6	244.2	235.4	220.8	207.0	202.6	192.5	184.5	171.6	159.3	150.0	139.4	130.1	115.9	112.1	120.3	85.97	53.76	41.34	32.80	25.81	20.53	18.21	25.58	46.27	138.5	725.2	892.4	31.48	3.397	2.083	1.819	1.659	1.813	1.962	2.168	2.314	2.308	2.417	2.680	2.761	2.970	2.928	2.789	3.048	2.782	2.681	2.662	2.562	2.468	2.466	2.275	2.088	2.213	2.191	2.212	1.840	1.953	1.856	2.012
445.0	1939	960.2	539.5	526.8	552.5	586.0	613.1	622.2	620.6	583.1	538.3	474.4	420.9	363.9	331.5	291.0	270.8	256.3	239.8	224.6	215.0	201.0	194.9	186.3	178.8	169.8	159.0	149.7	140.5	129.9	116.2	104.0	109.5	104.6	64.97	45.11	37.02	28.70	23.07	18.10	16.32	18.98	37.53	219.6	852.3	717.3	24.77	2.639	1.950	1.673	1.695	2.022	2.044	2.074	2.283	2.315	2.571	2.624	2.824	2.858	2.738	2.741	2.936	2.684	2.276	2.460	2.373	2.301	2.288	2.251	2.157	2.090	1.998	1.724	1.852	2.060	1.964
450.0	1343	1568	624.9	509.1	519.6	553.2	576.6	589.8	588.7	560.0	515.7	451.2	405.4	352.3	312.6	274.7	252.1	239.6	224.6	211.5	201.1	188.8	183.9	176.9	169.9	161.7	153.0	146.2	138.1	130.2	115.5	102.1	94.04	95.49	84.39	56.07	41.03	31.81	25.95	21.03	17.20	14.53	16.66	55.86	247.3	642.7	690.8	115.4	6.567	1.869	1.778	1.937	2.021	1.973	2.194	2.195	2.605	2.563	2.751	2.721	2.679	2.607	2.594	2.584	2.289	2.440	2.399	2.232	2.211	2.254	2.087	2.077	1.970	1.794	1.866	1.841	1.800
455.0	705.3	1637	1058	470.4	485.7	511.5	534.0	551.7	555.7	521.7	491.6	433.5	385.3	333.4	291.8	261.3	235.7	223.3	206.6	198.1	187.9	175.8	171.1	164.6	159.4	152.0	145.9	139.4	133.4	125.9	113.9	100.0	88.03	80.17	84.61	72.86	48.84	34.95	28.85	24.08	19.18	15.54	13.68	20.27	61.81	154.5	415.0	787.5	161.6	6.532	1.876	2.093	2.052	2.042	2.189	2.071	2.271	2.465	2.469	2.513	2.461	2.445	2.386	2.380	2.400	2.243	2.298	2.182	2.077	2.178	2.060	1.936	1.959	1.806	1.594	1.840	1.706
460.0	502.8	1228	1522	515.6	447.0	480.1	509.4	519.7	530.5	496.4	464.6	414.5	368.8	318.7	274.1	247.3	226.7	211.2	193.6	184.6	174.0	166.6	161.9	156.4	150.5	143.4	138.7	133.3	128.7	123.1	111.9	99.29	85.96	74.75	72.88	76.91	58.63	37.76	31.20	26.25	21.11	16.99	13.67	12.97	20.43	40.13	109.5	540.9	704.4	117.4	3.701	2.184	2.030	2.015	1.962	2.059	2.223	2.327	2.242	2.407	2.261	2.335	2.246	2.334	2.301	2.359	2.091	2.089	2.038	2.007	1.963	1.754	1.699	1.810	1.587	1.749	1.678
465.0	427.7	728.6	1660	748.3	430.7	450.1	475.1	494.3	500.1	476.4	444.8	394.5	347.6	299.6	262.6	234.1	211.9	197.4	184.5	174.1	164.6	158.2	151.7	147.5	141.4	137.9	131.2	125.9	124.1	117.9	108.3	96.04	82.79	71.50	65.33	69.02	67.02	44.34	32.44	26.14	22.38	18.07	14.98	12.82	11.93	15.14	29.75	154.3	620.2	578.7	21.86	2.763	1.996	1.992	1.954	2.050	2.161	2.206	2.281	2.242	2.148	2.488	2.304	2.219	2.243	2.028	2.176	1.930	1.907	1.923	1.868	1.800	1.742	1.473	1.703	1.592	1.704
470.0	438.9	449.9	1120	1305	483.8	410.8	432.9	455.4	458.9	441.7	409.4	368.1	319.3	276.1	241.4	215.9	194.2	179.0	170.1	158.9	151.0	142.4	138.5	135.4	129.2	125.4	120.4	117.5	115.8	109.7	101.4	91.08	79.24	70.22	61.22	57.29	59.22	53.99	37.61	27.81	23.10	19.08	15.80	13.46	11.46	10.09	12.40	39.40	172.5	436.8	491.7	112.5	7.836	2.037	1.906	1.847	2.076	2.159	2.097	2.205	2.175	2.199	2.085	2.080	2.037	1.985	1.976	1.793	1.829	1.685	1.728	1.609	1.520	1.480	1.563	1.425	1.526
475.0	474.0	362.7	546.1	1402	867.9	377.6	385.2	410.5	416.6	402.9	377.5	331.9	294.4	253.0	219.7	195.1	176.5	164.3	153.0	144.8	135.8	129.2	125.4	122.4	117.9	114.3	110.7	106.9	105.6	101.1	93.55	85.79	74.60	66.26	56.52	51.48	48.39	51.08	46.31	31.43	23.58	19.75	16.70	14.33	12.29	9.907	9.372	14.21	42.74	102.9	238.9	524.0	165.0	8.767	1.993	1.853	1.921	1.934	1.936	2.021	2.002	2.117	1.925	1.895	1.754	1.892	1.734	1.829	1.540	1.553	1.482	1.595	1.527	1.523	1.319	1.315	1.435
480.0	476.5	371.2	352.2	992.6	1297	415.4	363.8	386.9	389.7	378.0	348.6	315.2	273.2	234.4	206.1	181.8	164.9	150.4	142.6	133.3	126.9	119.4	114.8	111.1	108.0	107.4	103.2	99.79	97.33	95.07	89.01	82.50	71.70	63.36	55.24	48.38	43.94	44.04	48.61	36.65	24.75	20.46	17.58	15.08	12.64	10.78	9.231	9.041	14.32	27.20	60.92	291.9	521.7	139.8	4.406	1.832	1.819	1.932	1.851	1.940	1.849	2.029	1.809	1.627	1.731	1.850	1.710	1.622	1.547	1.471	1.475	1.414	1.397	1.386	1.313	1.332	1.296
485.0	414.0	388.7	319.2	583.0	1456	576.4	347.0	365.4	369.5	360.4	334.8	299.2	259.9	225.8	197.4	171.2	155.0	141.8	133.5	125.7	117.8	113.5	108.2	105.3	100.1	101.3	97.07	94.83	93.41	90.38	85.16	77.53	69.02	60.85	54.29	47.64	42.20	39.02	42.54	42.09	29.37	21.01	17.73	15.25	13.18	11.21	10.11	8.128	8.650	10.63	17.44	78.60	378.0	484.9	27.00	2.645	1.934	1.815	1.661	1.922	1.765	1.902	1.855	1.882	1.870	1.637	1.580	1.555	1.551	1.375	1.482	1.381	1.382	1.559	1.365	1.289	1.213
490.0	340.3	411.0	312.0	346.7	988.3	1182	396.4	333.9	342.0	331.8	310.2	275.5	241.7	209.4	181.9	159.0	143.1	132.5	122.9	116.5	109.8	102.4	100.2	96.83	94.25	92.59	89.79	87.85	86.47	84.95	78.69	72.29	64.91	57.76	51.42	45.75	41.09	35.94	34.95	38.21	35.52	24.86	18.73	15.85	14.32	12.00	10.88	8.954	7.714	7.123	7.757	21.29	99.29	287.5	400.7	119.0	10.51	2.005	1.799	1.788	1.676	1.792	1.729	1.772	1.636	1.604	1.489	1.376	1.337	1.222	1.378	1.252	1.197	1.371	1.180	1.163	1.242
495.0	251.3	349.3	321.8	270.2	459.3	1309	765.0	308.4	313.6	305.9	281.8	253.8	226.0	192.9	170.4	145.3	131.7	120.9	113.1	106.0	100.7	92.80	90.16	88.42	85.95	82.06	80.97	80.45	78.27	78.61	74.31	68.00	61.27	52.84	48.43	43.51	38.74	33.58	30.96	30.37	33.80	30.81	20.96	16.51	14.54	12.74	10.79	9.865	8.645	6.877	6.208	8.733	25.44	67.56	178.0	463.1	203.3	12.41	2.018	1.853	1.663	1.688	1.493	1.577	1.660	1.480	1.381	1.369	1.333	1.132	1.246	1.413	1.208	1.262	1.127	1.201	1.152
500.0	220.8	298.9	335.9	247.4	280.5	925.7	1222	335.7	287.9	278.5	262.2	237.6	208.0	178.2	155.9	137.7	121.6	112.0	104.4	97.70	91.40	87.25	81.34	80.03	78.91	76.54	75.91	74.71	73.18	72.35	69.45	62.37	58.20	50.00	45.99	40.85	36.54	33.04	29.46	26.80	27.92	31.33	24.74	17.42	14.83	13.13	10.99	10.03	8.947	7.275	6.174	5.794	9.188	18.31	44.76	222.9	498.8	169.4	6.810	1.624	1.554	1.623	1.513	1.546	1.436	1.478	1.344	1.251	1.163	1.022	1.137	1.137	1.093	1.141	1.013	1.080	1.074
505.0	214.2	231.6	343.7	250.2	223.2	508.8	1413	421.3	262.5	257.2	245.7	223.9	193.5	167.5	142.4	126.3	113.6	104.9	97.79	88.67	82.58	79.28	75.69	73.78	72.68	70.63	69.66	68.87	68.36	66.36	63.18	57.84	53.44	48.24	43.03	38.01	34.86	31.04	28.35	25.58	24.86	26.92	27.46	19.88	14.76	12.62	11.42	10.36	8.385	7.436	6.383	5.201	5.558	7.278	12.92	56.90	287.1	465.8	31.28	3.546	1.651	1.501	1.534	1.393	1.293	1.362	1.238	1.116	1.018	1.096	1.052	0.956	0.976	1.065	0.982	0.974	1.007
510.0	188.4	196.9	277.9	271.1	199.6	276.7	938.0	1084	296.5	229.4	220.5	198.6	170.5	150.5	127.9	112.5	99.85	93.67	87.60	80.40	76.26	70.95	68.35	65.72	63.88	62.96	62.81	60.90	60.01	59.15	56.75	52.53	48.23	43.42	39.00	34.77	31.60	28.47	26.16	23.25	21.77	21.89	24.13	22.85	16.58	13.14	11.03	9.932	8.429	7.689	6.854	5.750	5.051	5.008	5.983	15.46	71.69	227.5	327.9	129.6	11.67	1.642	1.466	1.294	1.284	1.151	1.202	1.064	1.003	1.042	1.017	1.064	0.979	0.929	0.952	0.916	0.924
515.0	167.9	170.2	199.0	272.7	205.1	200.4	400.7	1262	680.6	211.7	197.6	174.7	155.7	132.6	115.0	101.0	88.51	82.62	78.74	72.67	66.88	63.63	60.08	58.13	57.36	55.46	54.60	54.13	52.58	51.92	50.65	46.32	42.86	38.26	35.81	31.44	29.26	26.42	23.58	21.28	19.80	18.71	18.77	21.16	19.98	14.21	11.18	9.489	8.487	7.365	6.727	6.325	5.104	4.862	4.421	6.180	18.61	53.08	114.0	332.8	205.8	14.83	1.421	1.357	1.245	1.221	1.172	1.150	1.025	0.964	1.068	0.912	0.903	0.999	0.828	0.773	0.863
520.0	152.0	149.7	172.8	239.6	226.5	176.4	222.1	865.3	1183	248.1	178.1	160.1	140.2	118.1	105.8	91.15	82.53	74.99	69.59	64.76	62.01	57.33	55.05	52.73	51.72	50.54	48.80	48.89	48.26	47.21	45.28	42.05	38.23	34.70	31.90	28.51	26.22	24.14	22.61	19.46	18.88	17.39	16.38	17.89	19.81	15.66	11.20	9.405	8.483	7.319	6.674	6.204	5.556	4.696	4.178	4.266	6.767	14.19	28.22	138.2	361.3	160.2	7.681	1.363	1.175	1.197	1.013	1.010	0.995	0.892	1.005	0.840	0.930	0.863	0.777	0.756	0.804
525.0	142.8	132.2	149.0	189.8	248.5	172.9	177.0	447.6	1395	466.7	160.9	146.9	125.5	110.4	92.46	82.12	73.37	69.39	62.31	59.33	56.38	54.05	48.57	48.39	46.92	44.64	44.38	43.82	43.35	43.66	41.09	37.85	35.28	32.12	29.46	26.93	24.37	22.79	20.33	18.72	17.87	15.92	15.00	14.54	17.19	17.58	12.61	9.082	8.087	7.206	6.338	5.684	5.757	5.063	4.224	4.013	4.173	5.477	8.536	34.42	176.5	337.4	32.62	3.598	1.184	1.121	1.042	1.088	0.987	0.927	0.837	0.934	0.706	0.845	0.697	0.745	0.764
530.0	128.1	119.2	128.5	141.3	219.9	185.5	149.9	220.7	883.2	1079	201.3	130.5	111.6	97.00	83.94	74.09	66.74	61.94	54.91	51.08	49.59	46.95	43.93	42.86	41.34	39.26	39.13	39.04	38.77	37.99	36.64	34.00	30.88	28.49	26.12	23.94	21.76	19.92	18.14	17.19	15.82	14.44	13.28	12.72	13.16	15.20	14.41	10.47	7.990	6.762	6.311	5.504	5.461	5.183	4.583	3.924	3.745	3.635	4.076	9.509	43.00	144.4	208.1	124.3	12.00	1.151	1.064	0.900	0.860	0.909	0.782	0.809	0.710	0.837	0.673	0.746	0.738
535.0	110.5	105.0	117.4	115.8	160.5	212.0	135.1	148.6	343.6	1219	595.7	116.5	95.88	85.26	73.32	63.80	57.03	53.73	48.75	44.75	42.18	39.97	37.89	36.45	35.75	32.99	33.39	32.73	33.03	32.74	31.56	29.39	26.14	24.14	22.54	20.80	18.79	17.46	16.47	14.72	13.73	12.69	11.70	10.93	11.23	11.76	12.98	11.98	8.180	6.405	5.674	5.088	5.081	4.561	4.726	4.333	3.357	3.022	2.943	3.976	11.23	33.66	65.26	216.5	177.5	14.49	1.111	0.882	0.804	0.798	0.803	0.791	0.618	0.837	0.632	0.777	0.642
540.0	99.76	98.02	100.9	97.64	122.5	204.2	149.9	121.7	170.4	766.2	1104	144.5	90.48	75.20	65.54	54.80	50.94	48.86	42.96	40.66	37.19	35.22	33.79	32.34	31.04	30.61	29.86	29.22	28.67	29.10	27.87	25.87	23.91	21.62	19.64	18.51	16.79	15.79	14.91	13.67	12.42	11.24	10.25	9.909	9.742	9.578	10.39	12.03	9.134	6.383	5.457	4.945	4.784	4.232	4.159	4.386	3.644	2.765	2.776	2.667	4.272	8.846	16.08	81.39	242.6	126.1	7.018	0.880	0.840	0.767	0.686	0.610	0.633	0.656	0.613	0.664	0.635
545.0	105.7	94.53	85.83	86.79	96.86	171.4	169.2	107.1	117.2	342.1	1311	222.5	79.93	66.36	58.69	50.86	45.55	42.58	38.23	36.36	33.36	32.23	29.50	29.24	28.79	27.14	26.90	26.21	25.89	25.30	24.65	23.08	21.44	19.52	17.68	16.83	15.34	14.35	13.12	12.48	11.47	10.43	9.812	9.115	8.900	8.161	8.529	10.22	9.712	7.007	5.334	4.655	4.320	4.021	3.977	3.938	3.787	2.846	2.516	2.195	2.604	3.363	4.904	20.05	107.4	227.9	32.69	2.725	0.737	0.667	0.743	0.527	0.613	0.695	0.596	0.546	0.624
550.0	86.68	84.33	74.26	73.32	77.51	118.2	180.0	109.6	93.54	148.2	768.1	866.9	110.2	58.86	49.52	43.62	39.20	35.55	32.59	30.22	28.12	27.17	25.71	24.60	24.15	22.78	21.79	22.08	21.49	21.82	20.69	19.67	18.24	16.64	15.32	14.17	13.37	12.05	11.21	10.87	9.944	9.205	8.424	7.711	7.526	6.988	6.703	7.343	8.425	7.450	5.495	4.334	3.767	3.739	3.391	3.233	3.492	3.097	2.580	2.114	2.118	2.200	2.344	5.588	25.94	91.89	148.3	89.03	10.51	0.669	0.719	0.530	0.612	0.627	0.543	0.515	0.554
555.0	80.10	80.99	68.27	63.80	67.23	80.18	148.4	129.3	78.97	88.71	255.0	1049	382.8	49.45	41.44	37.17	32.55	30.16	27.72	25.71	23.77	22.01	22.00	20.14	19.15	18.70	17.99	17.70	18.27	17.57	17.09	16.30	14.60	13.59	12.41	11.32	11.13	9.956	9.412	8.934	8.759	7.695	6.931	6.760	6.409	6.026	5.671	5.685	6.130	6.657	5.723	4.255	3.420	3.297	3.201	2.812	2.940	3.006	2.711	2.144	1.869	1.704	1.666	2.226	6.604	21.43	45.44	136.5	116.1	10.67	0.728	0.562	0.621	0.520	0.530	0.556	0.515
560.0	85.45	66.26	58.59	56.39	57.31	60.57	106.7	143.2	72.92	69.31	107.6	643.0	815.2	65.27	36.19	33.57	27.73	25.91	23.29	21.87	19.48	19.41	17.62	17.04	17.17	16.25	15.55	15.32	15.62	14.88	14.61	13.59	12.58	12.09	11.01	9.984	9.208	8.739	7.900	7.603	7.375	6.643	6.109	6.028	5.382	5.268	4.734	4.999	4.696	5.324	5.812	4.469	3.156	2.871	2.726	2.405	2.483	2.435	2.867	2.339	1.755	1.432	1.421	1.503	2.342	5.527	11.23	50.32	154.7	78.89	4.498	0.650	0.528	0.555	0.398	0.498	0.506
565.0	71.85	62.70	51.89	49.37	47.46	50.40	75.37	143.5	82.10	57.99	65.64	260.6	1020	143.1	31.96	28.94	24.14	22.21	19.70	19.39	17.46	16.25	15.80	14.38	14.64	14.24	13.67	13.50	13.29	12.95	12.63	11.22	10.85	10.18	9.759	8.751	8.134	7.477	6.787	6.639	6.271	5.705	5.586	5.491	5.052	4.215	3.954	4.252	3.928	4.279	5.196	4.646	3.118	2.567	2.426	2.211	2.285	1.910	2.250	2.447	1.764	1.347	1.249	1.224	1.387	2.054	3.304	12.17	66.87	135.9	30.79	1.854	0.531	0.559	0.454	0.444	0.463
570.0	69.58	54.41	44.58	39.77	42.23	41.52	52.40	103.9	107.7	53.37	51.26	95.42	597.4	607.7	51.21	23.27	20.12	17.98	16.36	15.90	14.43	12.87	12.61	11.87	11.56	11.22	10.71	10.87	10.83	10.85	10.60	9.520	8.805	8.381	7.794	6.965	6.680	6.204	5.739	5.447	5.306	4.952	4.546	4.432	4.185	3.810	3.503	3.509	3.156	3.142	3.675	4.069	3.573	2.635	2.166	2.050	1.984	1.853	1.745	1.906	1.874	1.515	1.164	1.055	1.061	1.181	1.446	3.413	16.05	53.26	88.31	54.51	7.734	0.587	0.480	0.420	0.443
575.0	70.48	51.06	43.06	33.34	33.84	36.03	39.60	61.05	120.5	65.19	42.08	52.04	183.7	762.7	130.9	20.23	16.82	15.02	13.27	13.42	11.93	10.39	10.10	10.10	9.263	9.477	8.930	9.028	8.826	8.688	8.779	7.974	7.213	6.665	6.388	5.393	5.535	5.239	4.766	4.579	4.272	4.291	4.056	3.657	3.372	3.268	3.004	2.956	2.664	2.588	2.538	3.007	3.176	2.839	2.100	1.788	1.570	1.561	1.544	1.501	1.500	1.615	1.192	1.131	0.856	0.915	0.962	1.330	4.060	12.45	25.90	78.72	70.34	7.120	0.551	0.391	0.456
580.0	58.77	53.10	40.25	29.85	28.60	30.90	33.55	42.66	99.78	82.63	39.62	38.89	64.84	464.6	523.8	28.20	14.88	12.96	11.43	10.69	10.23	9.280	8.807	8.705	8.167	8.088	7.703	7.675	7.562	7.643	7.743	6.853	6.329	5.912	5.429	4.953	4.748	4.230	4.277	3.915	3.852	3.672	3.412	3.156	2.906	2.793	2.636	2.599	2.393	2.132	1.962	2.099	2.815	2.902	2.124	1.791	1.535	1.393	1.356	1.246	1.322	1.518	1.406	1.089	0.938	0.907	0.908	0.817	1.481	3.301	6.351	28.52	89.86	33.30	3.039	0.355	0.461
585.0	49.96	54.76	35.76	32.15	27.87	26.94	28.91	33.38	66.52	102.8	40.78	33.86	34.98	175.5	704.2	81.53	12.87	11.15	10.09	9.452	9.075	8.121	7.643	8.110	7.205	6.748	6.720	6.382	6.582	6.773	6.291	6.000	5.383	5.040	4.798	4.131	3.962	3.821	3.650	3.414	3.107	2.993	3.086	2.524	2.688	2.468	2.414	2.330	2.058	1.781	1.703	1.749	2.068	2.533	2.286	1.793	1.455	1.381	1.219	1.096	1.119	1.173	1.452	1.247	0.901	0.812	0.773	0.644	0.832	1.201	1.801	7.096	37.48	78.54	26.27	1.204	0.407
590.0	51.79	45.77	36.32	26.59	24.38	23.65	25.18	27.00	39.91	94.86	58.00	28.97	26.16	57.61	411.3	380.8	21.95	9.603	8.606	7.966	7.091	7.198	6.070	6.267	6.058	5.767	5.741	5.394	5.570	5.287	5.051	4.932	4.517	4.231	3.951	3.637	3.455	3.340	2.868	2.827	2.694	2.509	2.388	2.278	2.233	1.950	1.996	1.841	1.836	1.557	1.465	1.504	1.583	1.858	2.130	1.895	1.379	1.275	1.131	0.915	1.066	1.023	1.045	1.228	1.025	0.805	0.657	0.628	0.618	0.747	0.880	1.983	9.041	31.19	53.81	35.06	4.879
595.0	48.44	43.17	31.69	23.67	20.32	20.85	22.03	22.48	26.74	59.28	76.61	28.70	23.31	26.32	119.2	498.1	88.48	8.084	7.376	6.274	6.379	5.638	5.400	5.284	4.963	4.711	4.649	4.724	4.280	4.233	4.228	3.789	4.027	3.414	3.220	3.095	2.992	2.614	2.339	2.338	2.228	2.137	2.055	1.983	1.926	1.653	1.627	1.591	1.584	1.289	1.288	1.285	1.219	1.319	1.616	1.899	1.478	1.152	1.061	0.944	0.823	0.843	0.767	0.905	1.031	0.954	0.651	0.538	0.641	0.553	0.627	0.776	2.357	7.258	15.41	46.29	34.12
600.0	42.48	37.95	29.78	23.80	23.42	19.69	20.67	20.46	22.88	38.78	85.32	34.32	20.94	18.00	37.99	314.3	306.9	11.28	6.218	5.542	5.297	4.620	4.431	4.305	4.378	4.192	4.001	4.052	3.872	3.450	3.797	3.405	3.237	2.710	2.793	2.551	2.488	2.317	2.066	1.913	1.745	1.753	1.542	1.782	1.625	1.415	1.488	1.353	1.415	1.077	1.139	1.020	1.057	0.994	1.152	1.617	1.492	1.146	0.878	0.703	0.811	0.725	0.746	0.787	0.778	0.939	0.815	0.544	0.564	0.472	0.547	0.551	0.940	1.993	3.866	16.40	49.17
605.0	44.44	41.43	28.53	22.20	20.17	18.48	17.14	20.82	20.85	27.42	73.27	49.50	18.99	15.44	17.16	122.1	432.8	41.34	5.361	4.777	4.701	3.943	4.114	3.789	3.596	3.581	3.124	3.483	3.249	3.076	3.122	2.796	2.886	2.541	2.478	2.265	2.354	1.869	2.083	1.743	1.707	1.536	1.386	1.362	1.571	1.310	1.392	1.265	1.179	0.878	0.942	0.962	0.902	0.856	0.942	1.299	1.466	1.197	0.926	0.787	0.723	0.748	0.680	0.657	0.638	0.851	0.850	0.666	0.534	0.525	0.494	0.497	0.535	0.743	1.196	4.101	20.82
610.0	43.05	38.30	24.22	20.88	16.77	17.85	16.25	18.47	19.57	22.55	45.40	64.78	22.99	15.57	12.53	37.31	280.8	222.6	9.882	4.308	3.984	3.535	3.365	3.146	3.182	2.955	2.881	2.735	2.556	2.707	2.662	2.453	2.260	2.028	1.926	1.964	1.836	1.729	1.792	1.488	1.364	1.350	1.315	1.222	1.218	1.091	1.138	1.028	0.992	0.920	0.800	0.807	0.753	0.767	0.774	0.902	1.177	1.166	0.978	0.780	0.683	0.637	0.636	0.610	0.637	0.715	0.793	0.770	0.573	0.464	0.466	0.447	0.471	0.532	0.574	1.216	5.099
615.0	46.10	35.03	24.83	18.10	14.84	14.38	14.21	16.96	19.76	20.38	28.36	60.80	34.98	13.74	9.720	14.64	83.41	332.7	57.77	3.622	3.176	3.005	2.980	2.377	2.732	2.382	2.305	2.355	2.230	2.163	2.151	2.089	1.832	1.716	1.578	1.662	1.359	1.388	1.472	1.251	1.173	1.058	1.005	1.041	1.042	1.029	0.917	0.937	0.859	0.725	0.642	0.754	0.696	0.688	0.701	0.666	0.785	0.901	1.043	0.917	0.613	0.610	0.509	0.511	0.646	0.550	0.629	0.680	0.769	0.450	0.348	0.447	0.439	0.431	0.400	0.550	1.386
620.0	38.57	28.38	26.26	18.01	14.61	14.99	16.14	15.91	19.51	18.98	21.47	45.73	46.79	13.54	9.628	8.793	25.03	236.8	187.1	5.132	2.765	2.644	2.279	2.185	2.336	2.077	1.877	2.203	1.837	1.904	1.716	1.911	1.535	1.539	1.631	1.488	1.170	1.344	1.334	1.158	0.982	0.946	0.936	0.972	0.836	0.798	0.861	0.806	0.799	0.642	0.606	0.640	0.535	0.690	0.618	0.574	0.580	0.787	0.873	0.896	0.684	0.538	0.412	0.532	0.585	0.495	0.545	0.533	0.826	0.636	0.406	0.360	0.371	0.377	0.471	0.402	0.536
625.0	38.36	29.53	24.73	18.92	15.03	14.93	15.34	15.24	17.43	16.86	18.28	29.81	54.91	17.76	8.840	7.722	10.35	97.89	298.2	19.71	2.524	2.262	2.105	1.871	1.962	1.861	1.590	1.823	1.642	1.577	1.555	1.467	1.385	1.311	1.280	1.397	1.173	1.165	1.148	0.962	0.828	0.841	0.941	0.870	0.736	0.795	0.759	0.735	0.605	0.588	0.560	0.472	0.560	0.565	0.670	0.579	0.518	0.581	0.691	0.817	0.710	0.551	0.411	0.483	0.444	0.424	0.520	0.471	0.644	0.616	0.376	0.355	0.375	0.376	0.331	0.350	0.450
630.0	40.18	30.10	24.73	19.33	13.70	13.98	13.34	13.96	14.97	15.65	17.77	21.43	43.39	29.14	8.870	7.426	6.659	27.63	215.0	130.3	4.206	2.046	1.854	1.694	1.566	1.514	1.330	1.504	1.506	1.361	1.388	1.296	1.195	1.143	1.040	1.007	0.963	0.872	0.839	0.835	0.873	0.766	0.720	0.747	0.674	0.675	0.617	0.549	0.552	0.503	0.471	0.498	0.476	0.504	0.481	0.545	0.503	0.493	0.553	0.669	0.650	0.489	0.423	0.460	0.452	0.428	0.404	0.454	0.424	0.570	0.537	0.376	0.366	0.370	0.349	0.333	0.439
635.0	33.66	30.42	24.61	16.57	11.77	12.63	12.52	12.71	13.30	13.83	15.67	17.47	26.27	38.38	11.60	7.066	5.527	9.275	66.41	246.3	32.11	1.728	1.705	1.394	1.420	1.303	1.205	1.282	1.302	1.062	1.183	1.241	1.041	0.999	0.806	0.776	0.831	0.802	0.745	0.681	0.906	0.679	0.680	0.635	0.653	0.543	0.505	0.505	0.532	0.470	0.440	0.452	0.399	0.432	0.388	0.445	0.441	0.483	0.460	0.483	0.618	0.611	0.475	0.376	0.384	0.343	0.417	0.386	0.403	0.445	0.490	0.498	0.439	0.374	0.365	0.353	0.399
640.0	34.49	29.00	23.91	16.57	12.45	11.24	13.44	12.29	12.91	13.34	14.53	15.08	18.77	37.92	17.35	6.648	4.995	4.853	18.56	193.4	73.59	2.501	1.511	1.296	1.342	1.228	0.991	1.012	1.173	1.127	0.898	0.869	0.899	0.846	0.803	0.679	0.785	0.672	0.581	0.544	0.670	0.675	0.598	0.483	0.636	0.507	0.515	0.523	0.425	0.446	0.385	0.404	0.376	0.388	0.371	0.480	0.492	0.428	0.409	0.400	0.462	0.518	0.445	0.462	0.390	0.397	0.353	0.380	0.367	0.373	0.422	0.453	0.449	0.374	0.315	0.350	0.415
645.0	34.59	25.24	21.46	15.50	12.27	10.55	11.24	12.27	11.63	13.35	13.16	13.72	14.38	28.34	23.88	7.376	4.695	3.747	6.497	87.92	195.3	9.981	1.350	1.274	1.177	0.896	0.964	1.010	0.875	1.061	0.740	0.774	0.783	0.748	0.780	0.691	0.715	0.676	0.581	0.595	0.579	0.735	0.501	0.424	0.521	0.529	0.447	0.423	0.435	0.372	0.348	0.372	0.353	0.363	0.333	0.390	0.400	0.337	0.359	0.378	0.470	0.492	0.483	0.431	0.386	0.381	0.349	0.345	0.408	0.401	0.407	0.429	0.522	0.351	0.304	0.327	0.357
650.0	31.84	34.20	23.07	17.75	12.44	11.40	11.68	12.12	11.49	13.21	13.33	14.05	13.09	20.19	28.02	9.071	5.257	3.951	3.573	27.22	208.6	48.62	1.364	1.222	1.122	0.936	0.884	1.025	0.841	0.756	0.909	0.751	0.751	0.695	0.711	0.507	0.663	0.568	0.535	0.544	0.420	0.540	0.560	0.484	0.592	0.510	0.444	0.387	0.404	0.371	0.346	0.358	0.403	0.361	0.400	0.366	0.301	0.386	0.333	0.351	0.360	0.451	0.408	0.447	0.334	0.371	0.372	0.360	0.321	0.321	0.415	0.384	0.426	0.504	0.346	0.319	0.394
