Sample:	'1
File name:	C2025060303圣泉集团生物质木糖集水池 500倍.FD3
Run date:	'10:39:05, 06/04/2025
Operator:	Administrator
Comment:	'

Instrument
Model:	F-2700 FL Spectrophotometer
Serial number:	23B8-004
ROM Version:	4J14000 07

Instrument parameters
Measurement type:	3-D scan
Data mode:	Fluorescence
EX  Start WL:	220.0 nm
EX  End WL:	600.0 nm
EX Sampling interval:	5.0 nm
EM  Start WL:	230.0 nm
EM  End WL:	650.0 nm
EM Sampling interval:	5.0 nm
Scan speed:	12000 nm/min
EX Slit:	5.0 nm
EM Slit:	5.0 nm
PMT Voltage:	700 V
Response:	Auto 
Corrected spectra:	Off
Contour interval:	50.000

Peak integration
Integration method:	Rectangular
Sensitivity:	1
Threshold:	1.000

Peaks
No.	ApexEX/EM(nm)	Height(Data)
1	225.0/310.0	5759
2	225.0/605.0	362.8
3	255.0/340.0	2786
4	270.0/320.0	2215
5	270.0/605.0	125.5
6	275.0/315.0	2184
7	275.0/610.0	127.1
8	305.0/400.0	1362
9	395.0/310.0	9.428
10	400.0/320.0	8.561
11	410.0/480.0	50.87
12	425.0/500.0	37.40
13	440.0/520.0	25.78
14	455.0/310.0	14.17
15	520.0/340.0	11.74
16	530.0/335.0	11.38
17	550.0/320.0	9.813
18	555.0/315.0	9.946
19	560.0/310.0	9.825

Data points
	220.0	225.0	230.0	235.0	240.0	245.0	250.0	255.0	260.0	265.0	270.0	275.0	280.0	285.0	290.0	295.0	300.0	305.0	310.0	315.0	320.0	325.0	330.0	335.0	340.0	345.0	350.0	355.0	360.0	365.0	370.0	375.0	380.0	385.0	390.0	395.0	400.0	405.0	410.0	415.0	420.0	425.0	430.0	435.0	440.0	445.0	450.0	455.0	460.0	465.0	470.0	475.0	480.0	485.0	490.0	495.0	500.0	505.0	510.0	515.0	520.0	525.0	530.0	535.0	540.0	545.0	550.0	555.0	560.0	565.0	570.0	575.0	580.0	585.0	590.0	595.0	600.0
230.0	65.05	1032	2014	454.7	21.70	6.822	5.273	4.419	3.649	3.240	2.984	2.412	2.331	1.856	1.562	1.506	1.463	1.356	1.286	1.240	1.027	1.108	0.941	0.847	0.845	0.861	0.747	0.729	0.621	0.767	0.660	0.645	0.556	0.507	0.524	0.520	0.491	0.478	0.433	0.426	0.460	0.596	0.547	0.440	0.398	0.367	1.115	3.930	5.059	3.235	1.227	0.423	0.336	0.287	0.311	0.263	0.284	0.280	0.262	0.298	0.247	0.220	0.290	0.260	0.249	0.256	0.228	0.278	0.229	0.271	0.217	0.242	0.281	0.249	0.240	0.226	0.304
235.0	89.46	298.6	1546	2103	477.5	31.39	5.948	5.803	4.545	4.141	2.805	2.654	2.415	1.928	1.738	1.426	1.268	1.501	1.523	1.285	1.059	1.084	0.918	1.010	0.852	0.744	0.760	0.596	0.714	0.677	0.534	0.606	0.542	0.680	0.609	0.518	0.493	0.474	0.550	0.404	0.507	0.484	0.478	0.575	0.531	0.395	0.518	1.311	2.276	4.400	5.514	5.330	2.071	0.578	0.303	0.284	0.258	0.243	0.289	0.326	0.269	0.236	0.287	0.255	0.249	0.281	0.254	0.223	0.237	0.256	0.228	0.240	0.284	0.251	0.264	0.241	0.281
240.0	116.3	117.8	503.3	2289	2104	385.5	13.59	5.909	4.038	4.095	3.312	2.606	2.471	2.225	1.904	1.611	1.529	1.281	1.528	1.196	1.126	1.156	0.926	0.912	0.797	0.816	0.717	0.777	0.783	0.685	0.567	0.682	0.521	0.573	0.519	0.502	0.459	0.504	0.503	0.426	0.372	0.451	0.436	0.539	0.587	0.456	0.460	0.576	0.847	1.559	3.487	8.142	7.890	5.372	1.656	0.417	0.294	0.292	0.293	0.306	0.328	0.267	0.252	0.308	0.270	0.273	0.237	0.266	0.249	0.344	0.206	0.234	0.254	0.352	0.279	0.242	0.265
245.0	91.03	127.0	150.2	899.1	2862	2308	232.4	7.805	5.252	4.161	3.308	3.195	2.580	2.227	2.162	2.066	1.701	1.562	1.411	1.204	1.227	1.035	0.931	1.024	0.888	0.977	0.733	0.816	0.656	0.811	0.597	0.728	0.521	0.555	0.476	0.475	0.504	0.585	0.487	0.439	0.471	0.473	0.444	0.484	0.441	0.575	0.504	0.566	0.498	0.582	1.025	3.071	7.114	10.85	8.877	4.557	1.371	0.378	0.335	0.317	0.388	0.254	0.240	0.331	0.240	0.311	0.234	0.266	0.271	0.257	0.225	0.221	0.262	0.301	0.257	0.223	0.316
250.0	47.85	96.96	131.7	242.3	1040	2958	2514	241.1	24.98	4.835	4.048	3.239	3.090	2.180	1.874	1.950	1.700	1.720	1.474	1.362	1.252	1.159	1.041	0.991	0.854	0.841	0.707	0.857	0.798	0.770	0.704	0.697	0.550	0.522	0.438	0.483	0.516	0.518	0.448	0.444	0.448	0.435	0.397	0.395	0.384	0.410	0.430	0.614	0.606	0.575	0.549	0.925	2.017	3.973	6.773	10.09	13.76	8.724	4.364	1.162	0.353	0.294	0.306	0.315	0.278	0.295	0.275	0.252	0.263	0.255	0.292	0.254	0.240	0.253	0.256	0.230	0.287
255.0	34.03	42.76	92.80	166.5	266.1	805.2	2602	2703	297.3	17.38	4.901	4.070	3.190	2.487	2.161	1.930	1.900	1.744	1.524	1.447	1.349	1.079	0.983	1.122	0.826	0.872	0.844	0.908	0.735	0.756	0.744	0.802	0.530	0.539	0.494	0.506	0.456	0.475	0.442	0.397	0.471	0.416	0.439	0.404	0.372	0.355	0.334	0.392	0.477	0.551	0.679	0.652	0.797	1.204	1.841	2.698	6.262	11.74	17.93	13.43	4.571	0.783	0.290	0.283	0.293	0.301	0.291	0.271	0.269	0.247	0.272	0.315	0.223	0.308	0.244	0.260	0.276
260.0	31.95	29.93	48.24	131.0	139.9	208.9	851.3	2854	2290	215.2	7.941	4.523	3.774	3.025	2.388	2.028	2.046	1.851	1.440	1.601	1.457	1.194	1.018	1.165	0.982	0.903	0.831	0.793	0.866	0.675	0.883	0.771	0.598	0.611	0.468	0.505	0.551	0.526	0.444	0.396	0.499	0.408	0.435	0.452	0.376	0.365	0.397	0.310	0.377	0.366	0.527	0.697	0.733	0.656	0.676	0.839	1.706	3.533	9.511	16.28	15.17	8.479	2.371	0.441	0.283	0.310	0.288	0.249	0.319	0.239	0.305	0.291	0.217	0.361	0.240	0.289	0.299
265.0	29.91	24.59	25.05	66.88	126.7	102.8	219.7	1079	3344	1781	119.8	5.622	4.269	2.850	2.183	2.376	2.323	2.191	1.715	1.499	1.337	1.092	1.028	1.001	0.945	1.031	0.756	0.877	0.731	0.737	0.718	0.726	0.597	0.589	0.520	0.539	0.505	0.477	0.478	0.521	0.495	0.354	0.403	0.400	0.327	0.420	0.386	0.345	0.361	0.279	0.382	0.520	0.713	0.771	0.614	0.528	0.735	1.079	2.524	5.444	10.16	14.33	12.24	5.439	1.147	0.356	0.336	0.290	0.264	0.235	0.258	0.264	0.250	0.259	0.239	0.269	0.285
270.0	27.89	26.32	18.79	32.47	76.10	121.8	107.6	266.6	1179	2540	1721	127.3	10.91	3.694	2.790	2.381	2.361	2.113	1.702	1.582	1.561	1.254	1.172	1.042	1.070	0.965	0.822	0.867	0.785	0.826	0.793	0.789	0.680	0.691	0.578	0.591	0.496	0.472	0.436	0.467	0.469	0.405	0.399	0.435	0.410	0.397	0.384	0.366	0.367	0.306	0.305	0.402	0.452	0.623	0.673	0.734	0.714	0.597	0.891	1.526	2.627	4.696	7.757	9.646	9.286	6.584	2.917	0.914	0.289	0.254	0.284	0.271	0.254	0.276	0.275	0.266	0.282
275.0	46.47	36.66	32.31	27.70	42.83	82.04	125.6	106.3	278.8	656.0	1754	1655	156.8	7.430	3.669	2.768	2.303	2.342	2.325	1.857	1.556	1.310	1.204	1.140	1.030	1.012	0.954	0.769	0.741	0.810	0.877	0.620	0.656	0.654	0.622	0.622	0.543	0.467	0.462	0.435	0.417	0.382	0.420	0.497	0.392	0.414	0.434	0.523	0.375	0.337	0.364	0.376	0.401	0.521	0.439	0.575	0.803	0.824	0.699	0.676	0.826	1.334	2.022	2.555	3.532	6.972	10.48	9.060	3.781	0.900	0.289	0.304	0.267	0.328	0.313	0.233	0.254
280.0	129.9	129.6	98.56	53.75	43.58	60.89	102.6	121.2	101.7	178.0	569.7	2332	1368	108.2	5.795	3.547	2.494	2.317	2.290	1.868	1.675	1.344	1.228	1.384	1.096	1.111	0.947	0.797	0.706	0.812	0.788	0.691	0.646	0.773	0.872	0.805	0.680	0.593	0.506	0.536	0.517	0.493	0.557	0.566	0.500	0.537	0.656	0.640	0.621	0.443	0.406	0.395	0.401	0.464	0.471	0.484	0.592	0.698	0.881	0.707	0.591	0.663	0.797	0.941	1.136	2.088	4.900	9.417	11.57	8.056	2.398	0.511	0.302	0.251	0.332	0.290	0.271
285.0	389.3	436.5	357.0	188.1	83.55	70.70	89.01	149.0	142.7	136.7	235.5	958.0	2820	1059	70.26	4.951	3.209	2.472	2.280	1.832	1.956	1.514	1.330	1.366	1.330	1.327	1.010	0.953	0.885	0.904	0.809	0.819	0.843	1.018	1.278	1.137	0.968	0.822	0.603	0.678	0.675	0.612	0.839	0.836	1.013	1.123	1.272	1.386	1.223	0.957	0.794	0.781	0.548	0.513	0.488	0.550	0.598	0.643	0.887	0.913	1.030	0.979	0.743	0.811	0.858	1.152	1.778	3.163	6.922	11.04	11.02	6.066	1.553	0.373	0.352	0.282	0.312
290.0	1314	1468	1100	656.4	292.8	161.9	163.8	234.2	362.8	421.6	443.2	617.1	1285	2339	2170	339.7	11.85	3.986	3.258	2.490	2.019	1.741	1.434	1.465	1.215	1.280	1.061	1.020	0.904	0.897	0.919	1.092	1.461	2.179	2.736	2.633	2.220	1.774	1.490	1.555	1.347	1.491	1.895	2.183	2.651	3.047	3.475	4.045	3.790	2.976	2.195	1.925	1.277	1.021	0.883	0.826	0.868	0.877	1.205	1.270	1.455	1.872	2.143	2.118	2.010	2.143	2.452	2.632	3.457	4.817	6.592	8.990	10.75	11.72	6.901	2.755	0.521
295.0	2840	3319	2734	1600	679.1	350.2	328.6	417.3	648.1	925.0	1039	1027	1020	978.6	2537	4291	97.00	11.08	5.180	3.301	2.672	2.345	1.969	1.713	1.370	1.458	1.216	1.155	1.085	1.112	1.108	1.468	2.275	3.979	5.104	4.922	4.485	3.630	2.867	2.791	2.655	3.052	3.472	4.143	5.267	6.502	7.164	7.803	7.562	5.808	4.647	3.977	2.573	1.936	1.511	1.437	1.446	1.608	1.776	2.099	2.566	3.023	3.535	4.172	4.864	4.583	4.704	4.677	4.667	4.755	4.646	4.100	4.356	8.892	16.35	24.58	12.71
300.0	3930	4654	3985	2321	1077	525.5	469.4	624.8	900.8	1258	1564	1517	1287	806.0	932.0	4398	4384	79.98	8.448	4.517	3.272	2.672	1.958	1.857	1.695	1.665	1.224	1.378	1.059	1.170	1.203	1.635	3.023	5.354	6.762	7.069	5.808	4.939	4.478	3.821	3.711	4.369	4.726	5.727	7.360	8.815	9.961	10.97	10.66	8.368	6.941	5.850	4.100	2.885	2.316	1.783	2.047	2.310	2.727	2.955	3.584	4.087	4.644	5.672	6.320	7.011	6.873	6.757	6.262	6.223	5.228	4.100	3.225	3.457	6.226	17.21	25.27
305.0	4614	5464	4858	2914	1398	708.6	612.5	799.6	1111	1512	1888	1940	1601	935.0	476.7	1523	6186	3541	61.32	7.352	4.462	3.761	2.774	2.246	1.967	1.775	1.456	1.407	1.369	1.304	1.324	1.804	3.463	6.044	8.229	8.668	7.234	6.861	5.582	4.883	4.728	5.077	5.722	6.792	8.714	10.57	11.81	13.67	12.43	10.00	8.545	7.214	5.309	3.839	3.057	2.351	2.477	2.759	3.188	3.656	4.193	5.456	6.178	6.682	7.501	8.530	8.960	8.716	8.298	7.670	6.506	5.414	3.351	2.320	2.612	5.038	10.83
310.0	4940	5759	5183	3294	1702	935.0	828.3	1031	1348	1719	2053	2173	1905	1154	473.1	493.8	2062	4552	4539	295.2	16.33	5.432	3.693	2.921	2.540	2.142	1.837	1.695	1.513	1.518	1.460	1.917	3.671	6.556	8.824	9.428	8.320	7.765	6.400	5.492	5.209	5.628	6.187	7.249	9.154	10.58	12.18	14.17	13.66	11.04	9.318	8.425	6.226	4.806	3.800	3.107	3.379	3.676	3.995	4.674	5.303	6.052	7.219	7.647	8.533	9.078	9.452	9.609	9.825	9.284	7.838	6.153	4.287	2.689	2.144	2.410	3.653
315.0	4641	5508	5027	3392	1918	1255	1180	1398	1661	1913	2153	2184	1993	1366	625.8	399.3	673.3	1248	4024	4606	438.9	15.08	5.358	4.200	3.177	2.599	2.059	1.906	1.644	1.602	1.578	1.888	3.442	5.980	8.375	9.358	8.546	8.291	6.891	5.718	5.503	5.534	5.974	7.074	8.896	10.49	11.66	13.79	12.93	10.99	9.416	8.817	7.001	5.714	4.697	4.444	4.376	4.962	5.445	6.054	6.816	7.447	8.042	8.120	9.173	9.505	9.406	9.946	9.517	9.414	8.790	7.137	4.990	3.601	2.812	2.519	2.807
320.0	4295	5180	4649	3339	2066	1521	1526	1749	1958	2086	2215	2156	1935	1472	812.5	500.3	477.3	544.3	1276	5010	4180	66.29	9.190	5.273	3.806	2.979	2.458	2.076	1.864	1.884	1.695	2.187	3.612	5.659	7.611	8.253	8.561	8.104	6.698	6.204	5.702	5.656	5.997	6.897	8.442	10.17	10.56	12.56	12.41	10.47	8.968	9.066	7.401	5.964	5.586	5.250	5.675	6.409	6.814	7.530	8.207	8.284	8.971	9.173	9.692	9.469	9.813	9.304	9.457	9.027	8.827	7.691	6.263	4.789	3.660	3.167	3.293
325.0	4153	4752	4331	3250	2195	1770	1822	2076	2195	2233	2189	2110	1893	1462	990.0	680.4	555.0	486.6	543.4	1681	6047	3593	54.11	7.979	4.977	3.929	2.785	2.435	2.116	1.975	1.881	2.092	3.215	5.207	7.014	7.605	7.272	7.612	6.558	6.227	5.452	5.379	5.682	6.784	8.040	9.230	9.882	11.28	11.20	9.586	8.579	9.260	7.384	6.266	6.175	6.137	6.428	7.599	7.869	8.498	9.396	9.430	10.10	9.891	9.871	9.314	9.777	8.988	9.327	9.088	8.637	7.455	6.398	5.578	4.989	4.109	3.851
330.0	3812	4320	4002	3145	2339	2051	2178	2412	2467	2380	2214	2034	1829	1473	1087	971.4	780.3	638.3	502.9	571.0	1897	4960	4727	1102	18.62	5.892	3.887	3.231	2.568	2.512	2.160	2.300	3.177	4.630	6.454	6.944	6.930	7.345	6.659	5.838	5.488	5.399	5.696	6.382	7.183	8.176	8.785	10.27	10.02	8.635	8.406	9.046	7.980	7.155	6.888	7.234	8.042	8.858	9.659	9.665	10.45	10.59	10.73	10.65	9.902	9.530	9.405	8.727	8.954	8.728	8.094	7.789	6.567	5.738	5.636	5.783	5.765
335.0	3437	3809	3599	2979	2409	2280	2468	2681	2657	2495	2193	1940	1746	1491	1184	1116	1098	864.0	622.4	402.5	566.0	1264	3882	7352	421.7	19.20	5.334	4.355	3.404	2.963	2.513	2.680	3.035	4.414	5.391	6.157	6.614	6.654	5.984	5.627	5.499	5.337	5.698	5.826	6.726	7.090	7.982	9.051	9.010	8.028	7.733	8.610	8.062	7.610	7.729	8.118	9.570	9.945	10.51	10.87	11.30	11.09	11.38	10.74	10.34	9.559	9.531	8.519	8.377	8.091	7.942	8.095	7.112	6.510	6.282	6.556	6.771
340.0	3208	3415	3329	2814	2397	2353	2555	2786	2697	2461	2135	1849	1676	1491	1242	1184	1186	1051	722.5	419.0	307.5	405.9	1102	5946	6759	354.3	9.551	5.379	3.935	3.665	2.750	2.669	3.180	3.785	4.956	5.616	6.293	6.190	5.677	5.335	4.970	5.084	5.464	5.441	6.267	6.544	7.238	8.883	8.429	7.109	7.178	8.474	7.982	7.844	8.036	8.390	9.368	10.00	10.92	11.58	11.74	11.35	10.69	11.01	10.04	9.071	9.198	8.278	8.042	7.706	7.998	7.679	7.327	6.587	6.565	6.991	7.095
345.0	2917	3106	3012	2638	2353	2341	2543	2744	2627	2379	2022	1730	1613	1450	1265	1233	1186	1140	843.4	471.1	285.3	244.9	342.6	1805	7031	3456	51.58	8.732	4.912	4.260	3.140	2.784	2.908	3.806	4.570	5.143	5.433	5.543	5.276	5.062	4.789	4.825	5.294	5.354	5.627	5.924	6.388	7.530	7.675	6.610	6.642	8.107	7.623	7.775	7.735	8.359	9.250	9.832	10.28	11.45	11.71	10.54	10.77	10.73	9.746	9.120	8.275	7.996	7.734	7.849	7.498	7.441	7.016	7.037	6.636	7.262	7.597
350.0	2622	2682	2612	2337	2172	2217	2393	2541	2419	2183	1861	1585	1479	1387	1268	1249	1200	1113	952.1	600.9	357.8	262.2	211.5	480.1	2062	5052	4865	1303	19.39	6.041	4.096	3.519	3.055	3.417	4.224	4.703	4.798	4.909	4.621	4.597	4.140	4.372	4.550	4.546	4.989	5.405	5.648	6.516	6.687	5.941	5.984	7.111	6.905	7.292	7.420	7.968	8.595	9.320	9.525	10.23	10.60	10.13	10.09	9.826	8.871	8.221	7.701	7.277	7.053	7.340	7.212	7.124	6.966	6.867	6.813	7.131	7.626
355.0	2274	2311	2244	2092	1930	2002	2163	2262	2163	1937	1677	1442	1367	1316	1259	1254	1214	1114	943.0	741.2	498.6	333.5	235.7	221.7	524.7	1208	3417	8351	409.0	25.46	5.808	4.350	3.843	3.372	3.555	4.090	4.334	4.174	4.156	4.032	3.817	4.142	4.007	3.872	4.416	4.815	4.928	5.636	5.603	5.176	5.094	6.140	6.371	6.640	6.815	7.626	7.911	9.017	8.757	9.342	9.239	9.113	8.957	8.353	8.204	7.367	6.961	6.776	6.275	6.549	6.465	6.700	6.809	6.940	7.100	7.643	7.345
360.0	2075	2013	1998	1889	1792	1855	1992	2057	1965	1780	1537	1333	1291	1258	1235	1242	1222	1130	959.0	760.9	629.1	424.9	282.5	195.1	206.5	325.2	902.7	5820	7145	384.9	16.69	6.176	4.321	3.755	3.620	3.761	4.069	3.940	3.782	4.021	3.564	3.937	3.684	3.694	4.002	4.386	4.281	5.059	5.015	4.708	4.666	5.724	5.562	6.326	6.298	6.908	7.209	7.948	8.098	8.084	8.304	8.739	8.284	7.875	7.306	7.130	6.885	6.135	6.053	6.410	6.671	6.668	6.567	6.817	6.999	7.379	7.676
365.0	1881	1880	1825	1732	1660	1725	1823	1905	1817	1633	1440	1282	1227	1233	1218	1251	1235	1151	995.4	787.6	685.1	556.2	350.8	228.5	166.5	147.5	250.0	1631	6497	7857	309.5	9.470	5.002	4.297	3.681	3.729	4.033	3.821	3.325	3.557	3.181	3.568	3.759	3.638	3.757	3.955	3.857	4.626	4.589	4.345	4.280	5.496	5.288	5.720	5.926	5.953	6.785	7.441	7.433	7.797	8.059	7.762	7.781	7.321	6.989	6.548	6.017	5.716	5.659	6.255	6.135	6.077	6.613	6.703	6.697	6.896	7.827
370.0	1696	1668	1655	1554	1519	1580	1658	1688	1603	1475	1331	1217	1179	1191	1212	1256	1259	1195	1067	876.1	741.7	659.9	499.5	311.6	204.2	142.8	125.9	409.2	1802	6306	5554	1317	20.34	5.732	4.258	4.019	3.842	3.654	3.482	3.264	3.135	3.380	3.441	3.488	3.449	3.871	3.661	4.059	4.262	3.852	3.891	5.055	4.735	5.245	5.388	5.416	6.198	6.739	6.711	6.832	6.915	6.889	6.689	6.704	6.381	6.015	5.541	5.473	5.341	5.972	5.865	6.108	6.446	6.847	6.723	7.192	7.727
375.0	1588	1544	1464	1395	1396	1431	1493	1503	1436	1325	1223	1151	1142	1171	1205	1269	1291	1246	1137	983.0	828.9	712.9	616.4	453.2	268.7	175.8	124.9	154.3	440.8	1466	3614	8587	1889	24.29	5.581	5.084	4.143	3.568	3.289	3.009	3.057	3.106	3.253	3.300	3.163	3.608	3.547	3.806	3.828	3.626	3.559	4.630	4.483	4.683	4.925	5.153	5.795	6.009	5.837	5.935	5.968	6.300	6.095	6.308	5.881	5.631	5.464	5.547	5.446	5.802	5.798	6.068	6.277	7.184	7.043	7.689	8.065
380.0	1456	1501	1398	1337	1315	1332	1387	1381	1313	1227	1160	1109	1109	1159	1201	1273	1309	1282	1192	1052	906.4	771.3	642.4	538.8	347.6	212.1	141.5	109.1	145.2	360.1	925.5	5607	6839	327.8	15.18	5.817	4.621	4.245	3.247	3.052	3.023	3.101	2.869	3.009	3.123	3.368	3.361	3.689	3.556	3.308	3.406	4.132	4.266	4.582	4.724	4.707	5.156	5.610	5.596	5.501	5.689	5.771	5.892	5.667	5.725	5.250	5.390	5.308	5.240	5.450	6.105	6.228	6.150	6.725	7.081	7.622	7.656
385.0	1429	1365	1324	1270	1265	1266	1285	1265	1220	1159	1102	1084	1094	1134	1197	1277	1327	1312	1247	1110	973.1	829.8	674.5	557.0	432.3	258.5	165.0	114.5	92.61	119.8	233.3	1523	5575	5526	263.1	9.046	5.322	4.262	3.649	3.198	3.129	2.864	3.019	3.131	3.041	3.056	3.217	3.646	3.444	3.214	3.280	4.186	4.160	4.535	4.308	4.636	5.050	5.186	5.278	5.315	5.560	5.395	5.699	4.939	5.214	5.204	5.210	4.797	5.599	5.346	5.481	6.146	6.081	6.957	6.989	7.318	7.753
390.0	1363	1324	1253	1203	1198	1189	1197	1170	1132	1074	1055	1047	1061	1118	1192	1278	1337	1342	1295	1183	1049	899.5	735.9	575.3	468.9	348.5	214.2	138.3	97.87	79.81	88.16	364.6	1504	4209	4131	1100	18.84	5.011	4.055	3.561	3.301	3.038	3.158	2.897	2.916	3.042	3.076	3.444	3.226	2.915	3.093	3.954	4.052	4.299	4.156	4.454	4.709	4.770	5.023	4.710	4.914	4.842	4.949	4.854	4.972	4.877	4.759	4.875	5.030	5.158	5.257	6.043	6.364	6.727	7.145	7.479	8.337
395.0	1258	1267	1198	1152	1113	1117	1117	1083	1039	1004	982.5	1003	1028	1093	1169	1275	1333	1361	1327	1231	1107	955.6	785.1	609.3	470.9	387.9	296.9	179.1	121.5	86.69	66.63	114.0	357.8	975.4	2605	7038	1754	22.12	4.677	3.894	3.494	3.365	3.054	2.893	2.805	2.876	3.075	3.199	3.061	2.867	3.031	3.938	3.658	4.096	4.074	4.296	4.464	4.418	4.433	4.586	4.439	4.557	4.344	4.566	4.622	4.681	4.542	4.868	4.725	4.968	5.209	5.615	6.193	6.554	6.871	7.608	8.204
400.0	1242	1205	1170	1133	1092	1088	1060	1024	976.2	949.6	942.4	965.0	1001	1064	1155	1258	1334	1362	1342	1246	1127	988.8	812.2	637.4	483.8	380.9	333.3	228.2	141.9	99.07	70.61	64.55	106.5	236.7	660.1	4450	6171	286.9	13.09	4.274	3.949	3.385	3.049	2.989	2.761	2.963	2.898	3.267	2.991	2.907	3.140	3.610	3.629	4.010	3.809	3.908	4.398	4.441	4.390	4.076	4.294	4.247	3.936	4.361	4.400	4.363	4.177	4.527	4.727	4.981	5.191	5.521	6.293	6.364	6.771	7.647	8.018
405.0	1159	1166	1114	1081	1071	1052	1000	961.2	925.1	901.5	913.6	929.1	971.7	1043	1134	1240	1319	1355	1327	1253	1130	1000	832.3	658.3	497.1	380.8	324.4	276.7	172.9	114.1	80.73	59.13	56.16	75.12	164.3	1193	4800	4415	235.4	7.293	4.144	3.436	3.393	2.963	2.939	2.755	2.702	3.092	3.093	2.736	2.848	3.566	3.516	3.704	3.847	3.601	4.123	4.237	4.025	3.865	3.904	4.142	3.959	4.025	4.239	4.140	4.246	4.450	4.223	4.728	5.065	5.168	6.090	6.350	6.671	7.298	8.098
410.0	1099	1090	1058	1040	1034	1005	937.0	895.9	838.2	834.0	843.6	879.4	918.9	990.1	1083	1189	1276	1308	1300	1229	1125	989.3	833.1	665.7	513.7	392.6	313.0	275.7	229.2	148.5	98.66	70.78	52.93	46.44	57.61	282.3	1276	3348	3471	960.1	16.58	4.269	3.593	3.252	3.000	2.608	2.598	2.958	2.997	2.831	2.728	3.455	3.588	3.532	3.670	3.492	3.867	3.754	3.802	3.811	3.719	3.598	3.715	3.899	3.793	3.762	4.073	4.154	4.221	4.463	4.575	5.131	5.874	6.136	6.381	7.183	7.665
415.0	1045	1001	1005	988.0	973.9	943.1	879.3	835.2	769.8	774.3	785.5	816.0	864.9	934.1	1022	1134	1209	1250	1255	1175	1084	969.8	818.2	661.1	520.4	403.1	316.0	261.7	237.4	202.8	125.2	83.05	61.14	46.72	39.08	82.69	299.2	775.2	2097	4588	1444	20.19	4.523	3.526	3.028	2.674	2.754	3.018	2.778	2.721	2.670	3.357	3.306	3.590	3.742	3.458	3.559	3.499	3.582	3.443	3.689	3.438	3.477	3.809	3.374	3.589	3.670	4.019	3.989	4.167	4.508	4.662	5.491	5.961	6.434	6.735	7.561
420.0	980.0	951.6	930.8	972.2	944.2	906.6	833.5	779.7	726.7	722.6	738.9	768.0	815.7	883.5	969.8	1084	1159	1198	1198	1140	1049	937.5	797.7	650.7	517.7	407.1	319.7	259.8	223.2	218.7	157.3	97.48	71.49	51.68	39.40	41.41	83.83	185.4	529.9	2887	4439	266.0	12.52	3.999	3.162	3.072	2.693	2.790	2.868	2.506	2.623	3.362	3.132	3.226	3.420	3.565	3.630	3.447	3.367	3.159	3.275	3.279	3.232	3.532	3.316	3.234	3.525	3.550	3.904	3.941	4.174	4.459	4.931	5.411	6.402	5.965	7.066
425.0	936.4	893.1	923.3	914.1	930.3	871.5	799.1	735.2	692.9	676.0	691.8	721.1	763.9	827.8	928.0	1019	1101	1141	1150	1097	1004	900.0	769.9	637.0	509.3	407.8	327.0	263.3	218.9	204.1	186.1	118.4	78.07	57.80	42.48	34.75	38.08	56.29	129.8	775.5	3415	3583	222.2	6.297	3.797	3.081	2.813	2.911	2.759	2.473	2.600	3.073	3.085	3.406	3.242	3.352	3.436	3.384	3.077	3.307	3.088	3.060	3.048	3.156	3.291	3.258	3.397	3.453	3.631	3.658	3.861	4.202	4.842	5.145	5.829	5.931	6.601
430.0	978.6	830.7	863.6	863.6	880.6	826.3	752.9	679.8	633.2	626.8	644.2	667.6	709.6	771.5	857.7	955.2	1034	1075	1076	1023	949.0	848.1	735.4	612.8	498.6	403.7	326.2	269.6	222.4	190.2	178.4	152.6	100.3	67.26	49.82	37.67	31.78	29.93	41.98	184.0	908.9	2648	3072	848.3	14.50	3.616	2.959	3.208	2.741	2.339	2.488	2.928	3.050	3.121	3.172	3.093	3.191	3.201	3.009	2.895	2.918	2.754	2.889	2.854	2.933	3.035	3.101	3.376	3.297	3.494	3.652	4.042	4.406	4.842	5.362	5.691	6.188
435.0	1418	794.8	795.5	834.7	838.4	797.2	711.2	640.5	584.4	579.0	595.1	609.0	653.2	704.0	791.1	887.8	956.1	1007	999.9	955.4	887.4	797.5	699.5	583.6	484.1	395.6	323.9	270.5	227.3	191.6	163.6	154.1	133.1	83.65	56.82	43.88	33.25	27.08	24.95	53.24	212.3	612.1	1883	3967	1222	16.76	3.731	3.328	2.862	2.519	2.466	3.037	2.922	3.173	3.139	2.980	3.057	2.904	2.847	2.854	2.737	2.617	2.694	2.574	2.899	2.872	2.729	3.063	3.087	3.350	3.448	3.758	3.874	4.499	5.026	5.406	5.787
440.0	1767	847.6	749.8	792.8	814.0	763.5	685.8	625.1	553.9	545.1	550.3	572.3	613.3	662.3	748.4	839.6	899.3	944.8	938.2	899.0	842.8	761.9	661.8	566.2	470.4	385.1	321.3	271.7	230.2	194.4	163.1	142.0	140.9	103.3	64.00	47.35	36.81	28.63	23.60	25.60	58.34	145.8	484.0	2652	3861	233.9	9.990	4.308	2.975	2.704	2.438	2.941	3.060	2.931	2.894	3.051	3.020	2.909	2.765	2.592	2.585	2.665	2.510	2.473	2.553	2.591	2.629	2.804	2.930	3.229	3.159	3.493	3.783	3.930	4.533	5.420	5.458
445.0	1892	1107	738.0	744.9	777.2	738.7	662.3	580.8	522.9	513.9	510.9	542.0	568.7	626.2	698.8	778.3	855.7	888.4	883.3	848.4	787.8	715.6	632.4	537.4	450.0	377.5	314.0	268.2	230.2	194.2	161.3	136.1	127.7	118.2	77.12	50.95	39.24	30.96	24.31	20.84	24.59	42.16	116.6	735.5	3245	2020	176.7	6.806	3.345	2.609	2.641	2.909	2.999	3.057	2.936	2.830	2.778	2.738	2.548	2.383	2.452	2.525	2.368	2.479	2.513	2.501	2.412	2.631	2.827	3.148	3.005	3.274	3.400	3.665	4.490	4.863	5.222
450.0	1284	1641	792.4	697.0	732.7	693.9	624.1	538.0	478.9	461.1	463.1	489.3	514.4	561.1	628.4	707.6	770.6	800.9	798.8	771.2	717.8	655.6	582.7	502.2	424.7	356.1	301.5	260.9	224.5	190.5	160.4	132.5	111.9	107.7	94.00	62.26	43.27	33.78	26.97	21.74	19.61	20.87	35.23	172.0	889.7	2042	2424	817.2	12.18	3.169	2.845	2.956	2.903	2.915	2.779	2.861	2.840	2.632	2.526	2.406	2.299	2.379	2.339	2.315	2.332	2.300	2.382	2.441	2.482	2.685	2.695	3.039	3.111	3.631	3.842	4.284	4.910
455.0	752.3	1702	1207	652.4	670.8	638.6	573.1	495.5	429.1	405.7	412.2	424.1	456.7	497.9	557.2	629.6	685.8	713.6	711.7	682.8	642.6	592.5	530.9	457.3	389.9	332.9	286.6	247.1	213.1	183.4	155.8	129.6	107.0	93.01	90.13	79.67	51.20	35.60	29.58	23.45	20.15	16.88	17.82	46.68	205.2	474.4	1393	4187	1029	13.57	3.341	3.261	2.958	2.955	2.588	2.686	2.600	2.576	2.378	2.272	2.347	2.041	2.083	2.082	2.075	2.142	2.098	2.108	2.227	2.339	2.542	2.664	3.033	3.416	3.441	3.914	4.102
460.0	570.4	1226	1614	695.8	630.6	608.7	528.0	453.3	401.3	377.9	376.0	392.9	406.2	447.7	503.8	570.2	619.9	646.3	648.6	618.4	583.1	541.8	489.6	422.6	365.4	313.2	268.8	234.2	204.6	177.0	151.0	126.0	104.8	87.69	79.42	82.42	62.45	40.07	30.99	24.96	21.23	17.49	14.55	19.37	53.29	112.4	352.7	2681	3365	179.2	9.020	3.620	2.895	2.748	2.701	2.705	2.588	2.387	2.325	2.189	2.200	1.960	2.007	1.954	1.922	1.962	2.017	1.948	2.266	2.166	2.249	2.502	2.828	3.018	3.024	3.717	3.756
465.0	487.0	754.4	1788	914.6	593.4	567.9	499.5	417.6	362.8	347.9	341.7	347.3	367.1	406.0	455.3	515.2	562.5	591.5	589.3	567.9	534.4	497.6	447.8	390.8	342.2	292.9	255.8	222.2	194.3	169.6	144.7	123.4	102.2	85.03	72.49	73.11	69.29	46.77	32.49	26.95	22.67	18.44	15.19	14.25	20.10	32.31	85.37	732.9	2822	2534	155.7	5.858	3.301	2.934	2.716	2.622	2.362	2.376	2.306	2.145	2.163	1.905	1.999	1.800	1.735	1.817	1.690	1.720	2.007	2.036	2.162	2.206	2.721	2.725	2.784	3.038	3.365
470.0	456.0	510.0	1257	1528	643.5	517.8	456.0	379.7	331.3	300.3	295.8	305.5	322.4	355.1	398.9	452.9	491.5	517.0	514.0	498.3	472.8	439.5	398.9	353.1	309.2	267.6	234.4	204.5	180.0	157.6	137.6	116.4	97.47	81.76	69.53	61.65	63.28	56.07	39.28	28.82	23.99	19.75	16.84	14.24	14.17	15.06	25.65	170.3	763.3	1924	1920	687.1	12.85	3.332	2.811	2.626	2.557	2.308	2.155	2.015	1.993	1.724	1.695	1.655	1.683	1.661	1.606	1.584	1.669	1.703	1.877	2.100	2.246	2.399	2.536	2.813	3.232
475.0	427.0	413.8	653.4	1666	1079	480.3	427.7	341.5	294.1	262.7	260.0	261.7	278.4	303.5	342.4	390.3	428.3	447.8	445.1	430.1	410.9	384.4	349.0	314.2	276.6	240.2	209.9	186.5	166.8	146.0	127.5	109.1	91.11	77.86	66.67	57.87	52.70	54.29	48.98	33.82	25.06	21.56	18.55	15.76	14.24	12.18	13.12	44.91	175.2	441.1	1018	2352	856.7	15.67	3.086	2.832	2.622	2.445	2.102	1.825	1.739	1.581	1.534	1.562	1.497	1.450	1.399	1.531	1.446	1.374	1.599	1.779	1.954	2.101	2.321	2.449	2.703
480.0	413.9	378.8	438.9	1204	1672	549.2	393.6	317.1	270.1	239.6	232.6	235.7	252.5	273.2	312.1	350.9	381.6	400.7	404.6	388.6	371.9	347.0	320.2	288.5	255.7	227.0	199.6	176.1	156.4	140.5	121.4	104.4	89.95	76.36	65.17	56.50	49.49	48.63	50.87	39.64	27.86	21.70	19.34	17.28	15.04	13.01	11.38	17.66	45.52	103.9	252.1	1319	2428	212.8	9.570	3.150	2.843	2.164	2.127	1.853	1.807	1.550	1.516	1.557	1.433	1.299	1.362	1.318	1.366	1.346	1.549	1.641	1.825	2.095	1.954	2.311	2.401
485.0	369.5	369.5	375.4	722.6	1927	899.2	366.3	295.6	250.0	223.7	212.1	217.3	230.5	249.1	284.1	325.5	349.6	367.1	370.8	356.4	341.6	320.8	299.4	270.7	239.5	211.7	189.7	168.4	150.9	133.5	116.6	100.7	87.54	75.35	64.28	56.44	48.88	44.41	46.54	45.21	32.88	23.79	20.33	18.31	15.86	14.39	12.10	12.09	17.54	29.31	62.07	349.5	1851	1739	167.8	5.484	3.073	2.393	2.039	1.764	1.692	1.524	1.460	1.520	1.426	1.255	1.202	1.403	1.295	1.282	1.572	1.586	1.809	1.875	1.935	1.944	2.413
490.0	323.2	366.0	339.6	442.2	1352	1796	427.0	275.6	223.8	202.0	189.5	195.0	203.5	221.9	252.2	288.3	314.6	328.9	332.1	320.6	308.5	291.3	272.5	249.4	222.7	197.5	176.7	159.4	142.2	124.2	110.7	96.52	83.94	72.79	63.00	55.92	49.56	43.55	41.52	43.63	39.95	29.51	22.91	19.54	17.23	15.24	13.49	11.93	11.93	13.46	20.12	83.75	488.5	1238	1623	689.1	14.34	2.729	2.401	1.891	1.611	1.467	1.351	1.332	1.292	1.238	1.239	1.219	1.288	1.220	1.405	1.409	1.557	1.703	1.728	1.909	2.056
495.0	276.6	328.5	323.6	353.6	646.8	1986	838.4	257.0	202.6	176.7	169.6	173.5	177.0	196.6	223.9	254.9	278.5	291.8	293.5	284.3	272.9	258.9	244.8	226.0	203.0	180.6	163.8	148.1	130.3	117.3	105.2	91.17	80.87	71.89	61.31	54.42	49.10	44.05	38.94	38.50	39.22	36.21	26.29	21.14	18.86	16.74	14.75	13.40	11.46	10.69	11.50	24.76	114.1	284.7	824.0	2260	1055	18.73	2.839	2.050	1.597	1.560	1.351	1.377	1.106	1.148	1.179	1.116	1.095	1.119	1.283	1.211	1.267	1.517	1.629	1.630	1.872
500.0	252.0	274.2	299.6	317.9	389.3	1373	1358	285.2	185.0	164.5	152.8	155.0	159.9	175.1	201.6	229.5	249.6	262.3	265.3	257.3	246.2	237.3	223.1	206.6	187.8	168.9	154.3	137.6	123.7	111.3	100.8	86.69	76.62	67.97	58.94	53.71	48.26	42.73	37.99	34.78	35.14	37.40	30.21	22.76	19.80	17.62	15.48	13.66	11.94	10.57	9.793	11.76	30.93	68.62	202.9	1215	2523	240.4	12.50	2.235	1.558	1.499	1.404	1.296	1.033	1.069	1.000	1.052	0.993	1.037	1.099	1.235	1.333	1.380	1.513	1.548	1.687
505.0	228.4	242.1	281.3	284.7	312.2	722.9	1574	417.6	171.2	146.8	138.1	145.5	144.0	162.1	180.7	206.8	224.3	239.8	239.5	235.1	224.7	214.8	201.9	187.1	175.6	158.6	144.3	128.7	116.1	104.6	94.81	83.20	72.85	64.45	56.55	51.60	45.68	42.09	37.00	34.38	31.97	34.65	33.57	25.71	20.47	17.62	15.43	13.82	12.49	11.00	9.768	9.405	12.64	20.13	49.83	312.5	1692	1948	209.3	4.960	1.879	1.371	1.376	1.196	1.189	1.079	0.921	1.034	1.003	1.012	1.001	1.206	1.293	1.319	1.404	1.451	1.625
510.0	204.0	216.4	239.2	265.6	275.0	368.6	1073	924.5	203.8	132.0	124.8	123.1	124.4	140.7	156.5	182.9	198.6	207.8	206.0	204.7	199.0	189.6	179.7	167.9	155.2	142.8	128.9	115.3	106.0	95.94	87.09	77.22	67.19	60.19	53.75	48.82	43.64	39.85	35.79	32.35	29.52	29.42	31.66	29.02	22.68	17.94	15.74	13.85	12.59	10.95	9.990	9.237	8.577	9.571	15.36	73.51	430.5	1235	1736	625.7	14.22	1.819	1.535	1.263	1.225	1.004	0.972	1.033	0.905	0.899	1.029	1.050	1.053	1.158	1.275	1.314	1.441
515.0	192.6	182.8	197.4	250.9	240.0	255.8	455.6	1061	359.3	117.5	105.9	103.5	106.0	119.5	133.8	155.3	170.1	175.1	177.0	175.8	169.7	162.8	157.5	147.7	134.8	125.9	114.3	105.2	95.74	87.98	79.46	69.96	61.53	56.23	50.47	45.23	41.12	37.69	34.56	30.80	28.78	25.80	25.96	27.83	25.28	19.23	15.22	13.84	12.17	10.44	9.486	8.349	7.155	6.890	7.843	19.96	99.05	279.9	714.0	1754	868.9	19.14	1.797	1.388	1.201	1.010	0.923	0.970	0.848	0.938	0.902	0.964	1.111	1.039	1.170	1.226	1.195
520.0	145.2	153.8	172.4	218.7	233.5	216.1	244.5	715.5	785.1	127.2	94.94	95.77	94.98	108.4	117.6	137.4	151.5	158.1	158.4	160.0	151.6	148.3	141.9	134.0	123.7	113.4	105.7	96.85	87.10	81.59	71.63	64.74	57.35	51.14	46.68	42.40	38.09	35.72	32.18	29.64	26.64	24.56	23.60	24.33	25.78	21.32	15.46	13.32	12.06	10.10	9.292	8.188	7.400	6.446	5.697	8.082	25.39	65.14	168.5	844.4	1723	245.1	14.38	1.741	1.113	0.995	0.895	0.850	0.893	0.868	0.971	0.852	0.837	0.943	1.186	1.038	1.164
525.0	142.3	151.4	146.9	189.1	218.1	190.6	186.2	366.8	969.9	237.1	85.00	88.33	87.19	96.44	104.7	123.1	134.7	139.9	141.2	140.5	136.4	132.8	129.3	120.2	112.3	102.7	94.48	87.99	80.58	72.95	68.13	59.73	53.72	48.20	43.45	39.67	36.51	33.17	30.14	27.99	25.46	23.62	21.62	20.96	23.54	22.15	16.72	13.37	11.60	9.731	9.160	7.947	6.985	6.095	5.275	5.285	8.967	17.15	40.12	207.7	971.2	1390	221.6	7.393	1.154	1.059	0.930	0.761	0.822	0.860	0.819	0.823	0.847	0.997	1.063	0.951	1.022
530.0	129.6	130.5	131.9	158.2	189.0	179.5	155.6	180.8	627.4	601.2	98.27	72.46	77.18	84.09	91.03	104.4	115.5	120.3	121.0	119.7	118.2	114.7	111.1	105.1	98.81	90.88	85.15	78.01	71.96	64.76	60.70	53.32	48.67	43.95	39.70	36.58	33.19	30.55	27.71	26.00	23.62	21.50	19.63	18.43	19.13	20.88	18.67	14.07	10.97	9.402	8.444	7.742	6.738	5.793	4.962	4.527	5.118	6.432	11.16	48.31	237.1	700.3	1241	677.1	15.56	1.395	0.891	0.915	0.829	0.853	0.800	0.753	0.823	0.847	0.821	0.899	1.009
535.0	111.7	116.8	119.3	127.0	161.1	165.0	133.5	118.9	236.2	708.2	223.7	63.30	65.83	69.17	77.61	86.64	95.92	99.62	101.2	102.4	100.4	97.93	94.04	88.97	84.05	79.54	75.11	69.22	64.21	57.98	53.94	48.52	42.90	39.34	35.37	32.49	31.03	27.17	24.85	22.99	21.46	19.35	17.73	17.00	16.08	16.07	17.73	15.69	11.02	9.047	8.017	6.961	6.071	5.330	4.527	4.303	3.952	3.876	4.933	12.41	54.52	158.1	423.9	1351	808.8	22.70	1.307	0.963	0.738	0.772	0.828	0.700	0.728	0.706	0.781	0.772	0.806
540.0	96.01	102.2	108.7	113.4	129.1	147.2	118.8	97.15	110.4	451.2	434.4	68.54	55.72	59.47	68.27	78.18	84.19	88.72	90.06	86.98	86.65	84.77	81.81	79.71	74.44	70.71	66.42	61.33	56.82	51.69	48.20	43.38	40.06	35.57	31.54	28.78	27.56	24.38	22.81	21.47	19.78	17.91	16.26	16.12	14.92	13.64	14.68	15.42	11.76	9.004	7.589	6.859	5.902	5.110	4.493	4.320	3.584	3.204	3.104	4.507	13.64	36.72	97.92	546.5	1319	256.1	15.37	1.073	0.928	0.670	0.716	0.579	0.698	0.533	0.832	0.807	0.768
545.0	97.16	89.94	97.88	103.7	116.3	130.6	111.1	81.42	74.95	196.2	521.5	124.6	49.54	54.51	59.67	67.35	73.31	76.42	79.49	76.56	75.63	74.40	72.04	69.65	65.29	63.42	57.60	54.79	51.16	46.90	42.51	38.89	35.85	32.84	29.31	26.22	24.51	22.00	20.96	19.50	17.69	16.60	15.03	14.11	13.39	12.51	12.18	13.49	12.29	9.353	7.357	6.296	5.355	4.751	4.095	4.169	3.396	2.926	2.543	2.857	4.405	9.531	23.32	129.1	620.1	1071	228.5	9.437	0.986	0.747	0.736	0.611	0.687	0.689	0.769	0.650	0.809
550.0	84.43	81.40	83.46	89.07	92.19	105.4	98.80	73.08	58.30	80.88	314.4	322.2	53.72	44.15	49.86	55.93	60.70	63.08	65.01	63.80	62.54	62.14	60.86	58.83	55.20	53.05	49.10	46.76	42.78	40.76	37.16	32.99	30.57	27.80	24.77	22.49	21.10	19.48	17.81	16.94	15.53	14.17	13.18	12.54	11.65	10.77	10.05	10.39	11.27	9.398	7.291	5.602	4.743	4.332	3.911	3.657	3.104	2.696	2.437	2.231	2.264	3.306	6.355	29.83	145.7	448.6	773.6	511.9	17.31	1.025	0.729	0.645	0.667	0.694	0.603	0.604	0.686
555.0	74.31	76.19	72.65	70.38	75.82	81.19	79.06	65.29	46.36	48.79	110.1	419.8	129.1	35.95	40.75	45.40	48.09	50.68	51.28	51.39	51.42	50.19	49.36	47.45	45.49	43.49	41.19	38.04	35.26	33.32	30.49	27.63	25.68	23.21	21.08	19.08	17.70	16.21	15.28	14.07	13.01	11.65	11.05	10.60	9.659	9.317	8.549	8.063	8.601	8.714	7.334	5.145	4.000	3.832	3.232	3.134	2.773	2.696	2.265	1.913	1.636	1.925	2.493	7.711	33.44	100.8	226.8	754.7	560.1	24.63	0.915	0.595	0.627	0.597	0.585	0.567	0.611
560.0	68.17	74.13	66.39	64.74	63.99	67.44	64.62	61.17	41.71	38.61	49.66	274.7	269.7	36.09	33.94	38.26	41.90	42.69	43.34	43.71	42.67	42.59	41.79	40.62	38.11	36.06	35.00	33.09	30.17	28.17	25.97	23.26	22.15	19.74	18.07	16.13	15.37	14.40	13.50	12.19	11.12	10.44	9.496	9.434	8.584	8.013	7.443	6.705	6.407	7.031	7.036	5.376	3.909	3.512	3.258	2.817	2.561	2.222	2.153	1.704	1.442	1.514	1.614	2.645	8.402	23.18	51.98	261.5	718.1	264.4	18.06	0.761	0.609	0.495	0.533	0.546	0.518
565.0	83.66	80.45	64.85	60.66	60.80	59.13	54.41	57.74	39.31	34.19	35.77	118.7	365.0	64.00	28.47	31.99	35.41	35.40	36.94	36.21	36.71	35.70	34.57	34.87	32.81	31.20	29.82	28.60	25.69	24.07	22.75	20.61	19.29	17.31	15.47	14.21	13.58	12.28	11.78	10.53	9.881	9.067	8.285	7.927	7.452	6.674	6.509	6.155	5.512	5.629	6.402	5.414	3.933	3.040	2.717	2.464	2.167	2.070	1.787	1.632	1.415	1.306	1.305	1.445	2.631	5.778	12.38	60.43	287.8	651.1	223.1	9.531	0.675	0.514	0.571	0.515	0.514
570.0	101.9	100.6	89.78	69.14	53.68	47.79	46.07	48.17	45.60	35.88	35.84	57.40	247.3	211.1	31.28	25.88	28.33	29.15	29.41	29.39	29.21	29.06	28.20	27.57	26.53	25.28	24.90	22.75	21.89	19.91	18.72	17.29	15.51	14.32	12.76	11.93	11.17	10.26	9.898	8.943	7.987	7.648	7.326	6.729	6.292	5.928	5.516	5.099	4.608	4.290	4.464	4.852	3.955	3.063	2.454	2.249	2.080	1.817	1.644	1.513	1.384	1.165	1.081	1.209	1.349	1.956	3.473	14.39	66.54	240.4	450.6	320.4	17.87	1.025	0.566	0.532	0.501
575.0	131.4	138.2	131.5	90.29	58.93	41.96	39.14	40.85	51.47	45.23	46.21	47.90	99.52	324.7	94.80	20.48	22.34	23.23	22.85	23.27	22.80	22.49	21.64	22.13	21.55	20.71	19.39	17.91	17.55	16.07	15.30	14.45	12.65	11.52	10.80	9.894	9.351	8.509	7.980	7.506	6.762	6.313	5.712	5.501	5.212	5.039	4.795	4.643	3.891	3.542	3.470	3.606	3.767	3.223	2.348	2.017	1.649	1.675	1.392	1.369	1.240	1.098	1.234	1.030	1.046	1.146	1.462	3.850	15.40	54.24	121.1	379.3	275.2	24.52	0.858	0.546	0.547
580.0	168.3	174.3	162.0	100.3	59.80	44.05	39.72	43.70	54.98	54.73	60.50	56.68	62.98	242.8	238.9	22.77	18.74	19.58	19.33	19.52	18.58	19.97	18.75	18.46	18.62	16.83	16.46	15.62	14.78	15.08	13.10	11.92	10.60	10.15	9.430	8.788	8.129	7.517	6.901	6.539	5.697	5.551	5.260	5.071	4.582	4.516	4.393	3.966	3.552	3.138	2.877	2.840	3.402	3.229	2.521	1.902	1.829	1.426	1.304	1.208	1.082	1.138	1.203	0.920	1.059	1.034	1.071	1.413	4.102	12.75	27.75	124.2	408.7	238.4	16.67	0.543	0.579
585.0	198.7	216.3	200.4	121.8	65.74	45.43	44.05	44.92	58.56	72.26	69.66	68.26	58.76	117.0	366.8	56.48	16.81	16.44	16.49	16.63	16.39	16.70	16.83	15.54	15.36	14.96	14.20	13.59	13.44	12.65	11.51	10.43	9.735	8.617	8.595	7.503	7.209	6.485	5.743	5.659	5.285	4.859	4.531	4.279	4.017	3.890	4.008	3.647	3.389	2.910	2.711	2.339	2.723	3.011	2.672	2.012	1.686	1.395	1.151	1.176	1.074	1.091	1.077	1.042	1.049	0.981	0.866	1.004	1.556	3.508	6.781	28.69	156.4	388.3	181.6	7.198	0.608
590.0	243.6	276.1	242.1	149.0	73.88	49.04	44.21	49.07	62.52	86.53	88.01	84.36	70.98	61.46	266.9	239.2	21.53	14.03	14.05	14.05	13.64	13.56	13.67	12.94	12.67	12.00	11.75	11.45	10.77	10.09	9.361	9.035	7.907	7.284	7.067	6.637	5.943	5.461	5.051	5.068	4.525	4.147	3.908	3.709	3.700	3.488	3.593	3.314	3.077	2.719	2.358	2.113	2.196	2.258	2.443	2.051	1.509	1.317	1.094	1.124	1.027	1.039	1.001	1.111	0.988	0.984	0.940	0.913	0.990	1.404	2.145	6.955	36.11	137.3	265.4	155.2	16.11
595.0	276.9	320.7	288.9	175.4	82.82	51.25	47.29	54.82	68.31	94.68	108.7	101.2	83.45	53.53	92.84	431.9	86.62	12.26	11.29	11.18	11.31	10.74	10.47	10.06	10.16	9.675	9.847	9.455	8.695	8.387	7.990	7.546	6.374	6.146	5.607	5.310	5.141	4.665	4.566	4.036	3.896	3.585	3.216	3.212	3.202	3.169	3.023	2.941	2.731	2.453	2.057	1.884	1.757	1.610	1.905	2.002	1.619	1.267	1.063	1.074	0.945	1.003	0.975	1.015	1.072	0.968	0.902	0.988	0.875	0.922	1.011	2.082	8.507	31.04	68.94	208.1	219.3
600.0	293.7	352.0	307.5	189.1	83.66	54.80	48.55	56.16	69.17	96.57	120.3	109.2	94.91	55.75	40.28	317.1	324.7	14.18	9.383	9.662	9.128	8.721	9.379	8.887	8.280	8.565	8.079	8.186	7.619	7.119	6.944	6.137	5.411	5.505	5.122	4.779	4.612	4.130	3.980	3.678	3.287	3.004	2.959	2.768	2.936	3.094	2.886	2.947	2.564	2.125	1.834	1.759	1.661	1.413	1.615	1.967	1.705	1.288	1.047	1.057	0.970	0.986	0.959	0.954	0.977	1.115	0.884	0.963	0.846	0.840	0.813	1.065	2.371	7.349	16.02	67.04	238.9
605.0	307.8	362.8	313.1	191.7	96.89	51.39	47.91	57.37	73.58	97.36	125.5	120.3	100.5	57.33	28.36	134.2	529.8	45.98	8.697	8.110	7.866	7.227	7.720	7.510	7.232	7.205	6.966	6.735	6.151	6.060	6.161	5.395	5.050	4.549	4.437	4.239	4.164	3.663	3.176	3.079	2.849	2.759	2.716	2.720	2.615	2.672	2.619	2.513	2.391	1.929	1.795	1.675	1.384	1.305	1.241	1.600	1.627	1.320	0.994	0.905	0.941	0.847	0.961	0.920	0.909	0.931	0.964	1.057	0.905	0.760	0.744	0.769	0.974	2.044	3.922	15.56	89.10
610.0	299.9	348.7	319.1	193.4	97.48	55.61	47.88	58.93	75.48	98.46	122.7	127.1	103.1	63.71	26.87	42.39	376.8	263.2	13.23	7.044	6.700	6.609	6.576	6.177	6.038	5.877	5.703	5.505	5.258	5.271	4.830	4.617	4.191	4.065	3.865	3.767	3.484	3.137	2.696	2.535	2.487	2.328	2.332	2.255	2.292	2.363	2.208	2.361	2.055	1.788	1.612	1.507	1.263	1.110	1.031	1.119	1.331	1.185	1.085	0.912	0.886	0.863	0.860	0.938	0.988	0.977	0.979	0.996	0.929	0.848	0.674	0.740	0.687	0.821	1.194	3.838	20.55
615.0	304.5	344.9	323.2	188.5	100.3	58.57	45.64	56.76	73.57	96.44	116.6	124.5	104.6	66.01	25.79	19.19	114.3	421.0	68.30	6.682	5.682	5.583	5.393	4.975	4.862	4.741	4.586	4.528	4.398	4.165	3.828	3.746	3.468	3.375	2.871	3.011	2.553	2.571	2.514	2.285	2.070	1.916	2.033	1.825	1.736	2.085	1.959	2.132	1.792	1.678	1.398	1.403	1.161	1.023	0.850	0.983	1.060	1.176	1.100	0.947	0.817	0.855	0.994	0.867	0.827	0.921	1.014	0.896	0.838	0.871	0.827	0.759	0.539	0.624	0.577	1.188	4.917
620.0	290.6	329.5	284.4	185.3	99.85	57.13	49.30	60.16	75.22	95.74	116.5	119.5	105.8	64.27	26.44	14.23	34.40	308.8	272.4	8.223	5.158	4.348	4.526	4.686	3.998	3.849	3.670	3.927	3.785	3.903	3.218	3.080	2.975	2.920	2.712	2.569	2.380	2.326	2.221	1.983	1.950	1.752	1.774	1.676	1.666	1.941	1.773	1.903	1.622	1.448	1.238	1.189	1.031	0.957	0.759	0.851	0.888	0.861	1.052	1.089	0.832	0.707	0.915	0.814	0.797	0.778	0.878	0.864	0.969	0.971	0.726	0.644	0.593	0.500	0.471	0.635	1.431
625.0	279.0	304.4	273.2	184.3	100.2	59.32	53.01	62.53	76.42	92.03	110.8	112.6	105.2	64.62	26.78	13.82	16.28	130.1	453.6	33.17	4.488	4.016	4.139	4.005	3.374	3.582	3.548	3.545	3.437	3.209	2.908	2.756	2.564	2.604	2.508	2.281	2.156	2.085	1.795	1.729	1.608	1.511	1.642	1.468	1.498	1.605	1.650	1.667	1.596	1.348	1.111	1.120	0.869	0.936	0.812	0.730	0.751	0.816	0.962	0.987	0.870	0.747	0.799	0.785	0.821	0.760	0.850	0.767	0.904	0.967	0.709	0.668	0.517	0.480	0.431	0.491	0.626
630.0	240.9	271.6	253.4	171.6	96.15	62.70	58.14	67.54	78.41	90.78	101.3	105.6	98.24	65.51	29.20	16.02	13.54	40.28	342.4	245.0	6.675	3.597	3.355	3.218	3.041	2.886	2.739	2.738	2.766	2.540	2.398	2.303	2.049	2.184	2.171	1.981	1.907	1.758	1.670	1.552	1.483	1.319	1.430	1.232	1.280	1.389	1.356	1.510	1.335	1.180	1.040	0.983	0.848	0.773	0.783	0.709	0.760	0.727	0.813	0.881	0.933	0.777	0.785	0.789	0.764	0.770	0.784	0.773	0.677	0.819	0.785	0.678	0.545	0.481	0.458	0.415	0.445
635.0	216.3	247.7	240.2	151.1	94.18	62.82	68.82	72.74	79.44	92.98	96.53	97.65	86.90	69.18	33.04	20.81	15.88	19.86	107.6	440.6	46.41	3.010	2.906	2.490	2.505	2.601	2.043	2.384	2.212	2.110	2.032	1.795	1.754	1.880	1.621	1.764	1.719	1.465	1.435	1.369	1.170	1.118	1.078	1.108	1.187	1.176	1.215	1.295	1.228	0.995	0.956	0.895	0.712	0.702	0.719	0.645	0.728	0.702	0.771	0.833	0.924	0.918	0.882	0.801	0.720	0.738	0.778	0.717	0.704	0.706	0.709	0.631	0.568	0.434	0.513	0.383	0.446
640.0	196.6	238.5	217.8	141.6	95.44	72.01	69.61	76.33	81.16	90.97	91.38	91.95	81.73	66.24	36.02	22.71	17.12	16.66	35.00	350.1	191.1	4.522	2.633	2.282	2.303	2.088	1.911	2.087	1.923	1.718	1.680	1.679	1.674	1.626	1.532	1.476	1.579	1.338	1.201	1.120	0.984	1.023	1.027	1.022	0.946	1.158	1.044	1.052	1.097	0.939	0.821	0.848	0.831	0.703	0.665	0.718	0.651	0.653	0.675	0.755	0.841	0.803	0.804	0.800	0.709	0.664	0.645	0.703	0.660	0.719	0.678	0.597	0.616	0.488	0.532	0.437	0.492
645.0	181.3	209.4	194.6	130.6	94.89	70.13	72.67	82.42	85.24	86.97	91.12	86.33	78.37	62.18	39.44	25.25	19.33	17.62	17.21	164.2	351.2	21.37	2.456	2.213	1.983	1.993	1.780	1.733	1.553	1.467	1.505	1.396	1.244	1.485	1.283	1.315	1.282	1.127	1.128	1.066	0.912	0.847	0.963	0.891	1.046	0.965	0.947	0.922	1.023	0.833	0.758	0.727	0.680	0.681	0.647	0.657	0.643	0.665	0.680	0.623	0.712	0.759	0.793	0.794	0.666	0.703	0.723	0.605	0.686	0.661	0.763	0.560	0.577	0.480	0.449	0.401	0.416
650.0	170.1	187.5	169.0	122.6	87.97	68.57	69.32	84.93	87.56	86.88	85.77	82.05	75.18	56.71	41.22	27.65	20.93	18.34	14.05	53.36	373.1	66.87	2.455	1.996	1.857	1.875	1.535	1.659	1.402	1.486	1.318	1.352	1.336	1.267	1.269	1.240	1.209	0.986	0.993	0.943	0.845	0.835	0.802	0.754	0.897	0.807	0.845	0.852	0.869	0.732	0.678	0.742	0.740	0.669	0.534	0.700	0.641	0.579	0.696	0.654	0.682	0.733	0.805	0.774	0.692	0.581	0.692	0.641	0.527	0.682	0.640	0.569	0.527	0.462	0.449	0.454	0.417
