Sample:	'1
File name:	Default_20230110_085627.FD3
Run date:	'08:50:07, 01/10/2023
Operator:	user
Comment:	'

Instrument
Model:	F-2700 FL Spectrophotometer
Serial number:	2190-003
ROM Version:	4J14000 07

Instrument parameters
Measurement type:	3-D scan
Data mode:	Fluorescence
EX  Start WL:	220.0 nm
EX  End WL:	600.0 nm
EX Sampling interval:	5.0 nm
EM  Start WL:	230.0 nm
EM  End WL:	650.0 nm
EM Sampling interval:	5.0 nm
Scan speed:	12000 nm/min
EX Slit:	5.0 nm
EM Slit:	5.0 nm
PMT Voltage:	700 V
Response:	Auto 
Corrected spectra:	Off
Contour interval:	50.000

Peak integration
Integration method:	Rectangular
Sensitivity:	1
Threshold:	1.000

Peaks
No.	ApexEX/EM(nm)	Height(Data)
1	245.0/265.0	11.12
2	245.0/530.0	-88.56
3	250.0/270.0	78.80
4	250.0/370.0	843.0
5	250.0/545.0	-62.98
6	255.0/280.0	272.8
7	255.0/555.0	-73.81
8	260.0/285.0	544.0
9	265.0/290.0	871.7
10	270.0/295.0	 1368
11	270.0/435.0	238.8
12	270.0/590.0	19.89
13	275.0/305.0	 1430
14	275.0/440.0	242.9
15	275.0/600.0	14.24
16	280.0/370.0	296.6
17	280.0/615.0	-4.304
18	285.0/375.0	300.1
19	285.0/625.0	-19.99
20	290.0/320.0	577.7
21	290.0/385.0	283.9
22	290.0/425.0	238.1
23	290.0/640.0	-18.13
24	300.0/335.0	348.2
25	305.0/340.0	392.4
26	310.0/345.0	339.0
27	310.0/395.0	283.6
28	315.0/350.0	288.2
29	320.0/360.0	309.1
30	325.0/365.0	322.8
31	330.0/370.0	283.7
32	335.0/380.0	298.9
33	340.0/385.0	289.9
34	345.0/390.0	261.8
35	350.0/395.0	255.2
36	355.0/405.0	244.1
37	360.0/410.0	215.1
38	365.0/415.0	201.3
39	370.0/425.0	193.4
40	380.0/435.0	148.5
41	385.0/445.0	140.3
42	400.0/465.0	76.68
43	415.0/485.0	38.94
44	420.0/490.0	31.50
45	425.0/495.0	26.24
46	430.0/505.0	20.08
47	435.0/510.0	14.49
48	440.0/515.0	11.49
49	445.0/525.0	9.249
50	450.0/530.0	6.774
51	455.0/540.0	4.646
52	460.0/545.0	3.480
53	465.0/550.0	2.174
54	470.0/380.0	-4.041
55	470.0/560.0	-0.456
56	485.0/360.0	-4.180
57	490.0/365.0	-3.878
58	535.0/295.0	-3.494
59	545.0/300.0	-3.114
60	550.0/305.0	-3.832
61	565.0/315.0	-5.049
62	580.0/325.0	-5.346

Data points
	220.0	225.0	230.0	235.0	240.0	245.0	250.0	255.0	260.0	265.0	270.0	275.0	280.0	285.0	290.0	295.0	300.0	305.0	310.0	315.0	320.0	325.0	330.0	335.0	340.0	345.0	350.0	355.0	360.0	365.0	370.0	375.0	380.0	385.0	390.0	395.0	400.0	405.0	410.0	415.0	420.0	425.0	430.0	435.0	440.0	445.0	450.0	455.0	460.0	465.0	470.0	475.0	480.0	485.0	490.0	495.0	500.0	505.0	510.0	515.0	520.0	525.0	530.0	535.0	540.0	545.0	550.0	555.0	560.0	565.0	570.0	575.0	580.0	585.0	590.0	595.0	600.0
230.0	-612.1	-448.0	184.0	214.6	-225.8	-218.4	-185.9	-162.7	-144.3	-122.7	-111.2	-97.62	-80.76	-67.45	-55.55	-44.52	-37.56	-33.05	-28.76	-24.84	-23.01	-21.48	-19.33	-18.79	-17.22	-16.21	-15.44	-14.87	-14.85	-14.36	-13.82	-13.04	-12.65	-11.65	-10.69	-9.556	-9.782	-9.504	-8.781	-8.579	-8.830	-8.711	-8.562	-7.982	-7.923	-7.911	-6.836	-6.517	-5.393	-4.226	-4.897	-6.399	-6.406	-6.684	-6.512	-6.719	-6.888	-6.885	-7.003	-7.052	-7.129	-7.090	-7.254	-7.380	-7.334	-7.213	-7.342	-7.370	-7.287	-7.357	-7.364	-7.616	-7.464	-7.454	-7.811	-7.982	-8.151
235.0	-615.7	-466.6	-130.5	875.4	680.3	-150.6	-185.3	-157.1	-148.2	-125.9	-114.1	-100.1	-77.96	-66.63	-57.88	-45.44	-38.94	-34.06	-27.97	-25.16	-23.45	-20.60	-19.75	-18.95	-17.39	-15.79	-15.61	-14.85	-15.00	-14.37	-14.08	-12.74	-12.07	-11.15	-10.72	-9.384	-9.568	-9.509	-8.533	-8.986	-8.508	-8.329	-7.912	-8.069	-7.923	-7.691	-6.762	-6.906	-5.747	-4.309	-3.772	-4.428	-5.150	-6.537	-6.755	-6.757	-6.908	-6.900	-6.933	-6.957	-6.697	-7.164	-7.585	-7.403	-6.734	-7.259	-6.981	-7.748	-7.464	-7.266	-7.636	-7.382	-7.694	-7.156	-7.448	-7.827	-8.205
240.0	-652.6	-500.7	-316.5	341.2	 1656	669.3	-147.7	-165.7	-139.6	-122.4	-111.2	-95.55	-77.36	-65.98	-56.89	-44.20	-38.73	-32.23	-28.09	-26.01	-23.37	-20.85	-18.24	-17.98	-17.17	-15.75	-15.79	-15.04	-14.64	-14.05	-12.86	-12.72	-11.57	-10.98	-10.68	-9.905	-9.708	-9.362	-9.103	-9.134	-7.762	-8.730	-8.609	-7.786	-7.973	-7.601	-7.051	-7.133	-6.053	-5.094	-4.243	-3.988	-1.859	-3.964	-5.806	-6.611	-6.626	-6.604	-6.883	-7.001	-7.008	-7.103	-7.508	-7.392	-7.119	-7.609	-7.581	-7.590	-7.356	-7.548	-7.696	-7.661	-7.800	-7.636	-7.825	-7.962	-7.738
245.0	-591.3	-483.4	-354.0	-131.3	999.3	 2065	514.3	-146.6	-144.5	-123.0	-108.6	-95.62	-76.42	-68.71	-55.25	-42.32	-37.61	-34.10	-29.21	-24.86	-22.72	-20.25	-19.01	-17.65	-17.58	-15.33	-14.69	-15.12	-13.97	-14.49	-13.41	-12.76	-11.77	-11.39	-10.67	-9.869	-10.22	-9.541	-9.342	-8.631	-8.748	-8.600	-8.593	-7.625	-7.820	-7.570	-6.876	-7.114	-6.348	-5.391	-5.048	-5.440	-3.889	-2.070	-2.155	-4.825	-6.542	-6.847	-7.147	-6.876	-6.977	-7.053	-7.238	-7.075	-7.349	-7.093	-7.218	-6.936	-7.676	-7.655	-7.716	-7.391	-7.615	-7.532	-7.946	-7.696	-7.970
250.0	-622.7	-494.1	-328.9	-230.6	73.42	 1089	 1948	936.3	24.57	-115.9	-112.3	-95.84	-79.83	-67.35	-55.27	-43.80	-36.76	-32.22	-29.60	-25.10	-23.58	-21.27	-19.93	-18.46	-17.08	-15.73	-15.48	-14.42	-14.41	-14.87	-13.40	-12.71	-11.93	-11.31	-10.63	-10.29	-9.903	-9.403	-9.115	-8.567	-8.515	-8.339	-8.405	-8.383	-7.865	-7.641	-6.681	-6.871	-6.239	-5.359	-5.660	-6.559	-5.760	-5.533	-3.457	-2.514	-1.726	-2.277	-4.833	-6.861	-7.017	-7.142	-7.222	-7.150	-7.223	-7.074	-7.103	-7.101	-7.447	-7.409	-7.635	-7.440	-7.468	-7.586	-7.985	-7.828	-8.226
255.0	-624.5	-491.0	-338.6	-157.6	-88.35	89.94	684.6	 2804	 1439	55.47	-99.92	-91.88	-82.05	-62.06	-54.53	-43.76	-38.43	-32.47	-30.54	-26.92	-23.98	-20.29	-18.53	-18.76	-16.16	-15.67	-16.55	-14.79	-14.24	-14.14	-13.70	-12.93	-12.24	-11.48	-10.88	-10.02	-9.422	-9.776	-8.898	-9.246	-8.861	-8.814	-8.429	-8.142	-7.917	-8.149	-7.020	-6.784	-6.321	-5.310	-5.165	-6.237	-6.149	-6.368	-5.950	-5.572	-5.081	-1.836	1.738	1.057	-4.555	-6.667	-7.072	-7.528	-7.046	-7.239	-7.080	-7.347	-7.349	-7.464	-7.635	-7.748	-7.251	-7.176	-8.163	-7.873	-8.445
260.0	-635.3	-502.4	-354.0	-241.8	-29.81	-83.63	28.90	 1257	 3565	 1183	-30.39	-90.78	-81.93	-65.55	-54.61	-45.48	-36.18	-31.72	-29.46	-26.35	-22.75	-20.09	-17.96	-17.75	-16.89	-15.78	-16.24	-15.28	-13.67	-14.44	-13.54	-13.07	-11.88	-11.90	-11.30	-10.17	-9.377	-9.552	-9.024	-9.021	-8.785	-8.760	-8.217	-8.229	-7.743	-7.619	-6.800	-7.080	-6.066	-5.462	-5.511	-6.011	-5.893	-6.351	-6.345	-6.867	-6.883	-5.760	-2.677	1.857	4.740	-0.762	-5.394	-7.334	-7.205	-6.884	-7.316	-7.399	-7.295	-7.692	-7.556	-7.548	-7.761	-7.639	-8.208	-8.163	-8.542
265.0	-565.6	-526.3	-402.3	-306.2	-83.88	11.12	-97.92	204.6	 1931	 4164	903.5	-64.74	-75.87	-67.05	-52.51	-44.78	-34.71	-32.65	-29.65	-27.02	-23.39	-20.90	-19.10	-17.91	-17.09	-15.63	-15.52	-15.12	-13.88	-14.21	-13.58	-13.03	-12.26	-11.09	-10.95	-9.972	-9.443	-9.693	-9.058	-8.903	-8.350	-8.775	-8.321	-8.292	-7.848	-7.921	-6.772	-7.082	-6.273	-5.280	-5.721	-6.455	-5.984	-6.136	-6.074	-6.733	-6.418	-6.709	-5.551	-4.262	0.012	4.789	4.702	-2.067	-6.113	-7.037	-7.212	-7.066	-7.375	-7.437	-7.830	-7.228	-7.380	-7.933	-8.371	-7.887	-8.171
270.0	-608.9	-500.5	-402.4	-303.5	-187.6	-8.733	78.80	-15.79	376.9	 1990	 3973	 2622	156.0	-62.39	-50.57	-42.33	-36.44	-32.02	-28.63	-25.80	-22.83	-21.66	-19.81	-18.62	-16.94	-15.74	-16.16	-15.23	-14.13	-14.23	-13.09	-12.92	-11.98	-11.04	-10.86	-9.762	-9.952	-9.516	-9.259	-8.705	-8.747	-8.547	-8.632	-8.344	-7.654	-7.823	-6.762	-6.933	-6.304	-5.476	-5.544	-6.297	-6.506	-6.608	-6.257	-6.072	-6.525	-6.534	-6.472	-6.271	-5.415	-3.444	0.040	2.454	4.691	1.683	-3.295	-6.912	-7.322	-7.605	-7.691	-7.253	-7.594	-7.893	-7.962	-8.087	-7.969
275.0	-577.4	-484.5	-418.2	-307.5	-232.2	-133.2	55.72	196.6	59.03	423.5	 1344	 4914	 4090	182.6	-47.71	-41.15	-37.75	-32.54	-28.68	-26.25	-21.60	-20.40	-20.18	-17.86	-17.69	-14.99	-15.29	-15.59	-14.19	-13.84	-12.38	-12.31	-11.88	-11.47	-9.518	-9.850	-9.823	-9.307	-8.755	-8.303	-8.892	-8.492	-7.994	-8.165	-7.936	-7.438	-6.585	-6.703	-6.174	-5.340	-5.247	-6.443	-6.114	-6.928	-6.097	-6.644	-6.138	-6.070	-6.014	-6.814	-6.730	-6.108	-5.547	-4.791	-2.411	3.136	9.542	5.920	-3.457	-7.364	-7.361	-7.003	-7.735	-7.522	-7.647	-7.791	-7.892
280.0	-596.8	-509.7	-393.5	-298.3	-218.9	-168.7	-53.08	272.8	250.8	204.2	472.4	 2092	 6280	 3176	34.15	-39.57	-37.33	-31.37	-27.99	-24.27	-22.91	-20.97	-19.61	-17.89	-16.55	-15.47	-15.14	-15.12	-14.27	-13.65	-13.33	-13.19	-11.54	-11.05	-10.19	-9.621	-9.926	-9.095	-9.000	-8.322	-8.790	-8.322	-8.361	-8.113	-7.323	-7.133	-6.574	-6.560	-6.150	-5.249	-5.684	-6.614	-6.581	-6.939	-6.416	-6.478	-6.582	-6.287	-5.657	-5.495	-6.312	-6.408	-6.647	-6.089	-5.628	-4.059	0.603	8.857	11.62	3.284	-5.517	-7.499	-7.683	-7.655	-7.797	-7.871	-8.057
285.0	-647.9	-486.4	-398.0	-293.1	-218.2	-164.9	-82.59	143.5	544.0	397.9	443.9	810.6	 3068	 6452	568.8	-17.07	-35.35	-30.03	-27.27	-26.92	-23.80	-20.43	-19.53	-17.47	-16.98	-16.63	-15.55	-15.34	-14.20	-14.58	-13.27	-13.58	-12.16	-10.76	-11.03	-9.858	-9.591	-9.635	-9.477	-8.220	-8.701	-8.878	-8.165	-8.075	-7.740	-7.824	-6.682	-7.042	-6.317	-5.237	-5.548	-6.405	-6.739	-6.864	-6.378	-6.345	-6.624	-6.328	-6.324	-5.199	-5.424	-6.074	-5.969	-5.927	-6.025	-5.449	-4.595	-1.555	5.851	13.88	9.677	-1.929	-6.998	-7.877	-7.579	-7.781	-8.310
290.0	-584.7	-426.2	-357.2	-263.4	-194.5	-151.2	-60.69	97.07	470.3	871.7	847.9	746.0	 1076	 2731	 4222	 2166	111.5	-28.58	-27.26	-25.60	-22.73	-20.35	-19.73	-18.03	-17.49	-15.95	-15.07	-15.33	-14.26	-14.41	-13.63	-13.31	-11.87	-11.22	-10.97	-9.621	-9.337	-9.775	-9.495	-8.656	-8.812	-8.794	-8.089	-8.180	-7.998	-7.152	-6.895	-6.858	-5.827	-5.199	-5.116	-6.523	-6.430	-6.530	-6.272	-6.331	-6.789	-6.698	-6.181	-6.058	-5.229	-4.996	-4.678	-4.836	-5.651	-5.605	-5.458	-5.039	-4.230	-0.509	3.670	7.372	7.443	3.405	-3.689	-7.627	-8.100
295.0	-589.9	-459.6	-328.6	-240.1	-182.6	-120.5	-19.04	131.1	414.8	830.0	 1368	 1034	689.2	747.5	 1313	 4511	 3131	149.4	-24.39	-24.87	-20.31	-20.37	-19.53	-17.42	-17.17	-15.98	-15.12	-15.50	-14.31	-13.69	-12.93	-12.77	-11.16	-11.30	-10.53	-9.567	-9.298	-9.653	-9.326	-8.881	-8.481	-8.216	-8.463	-8.585	-8.163	-7.345	-6.673	-6.717	-6.095	-4.895	-5.451	-6.580	-6.224	-6.360	-6.275	-6.442	-6.398	-6.447	-6.048	-5.937	-5.627	-5.049	-4.909	-3.494	-4.348	-4.663	-5.247	-5.787	-6.108	-5.700	-4.525	-3.646	-0.948	6.839	14.73	7.255	-3.244
300.0	-638.9	-427.0	-305.2	-233.9	-163.8	-87.52	9.241	159.9	410.5	746.7	 1290	 1369	671.2	333.2	342.7	 1694	 5509	 2385	67.19	-22.40	-20.91	-20.41	-18.46	-17.77	-17.29	-16.00	-14.91	-14.90	-13.34	-13.96	-13.47	-12.16	-11.27	-10.82	-10.60	-9.386	-9.981	-9.601	-9.931	-8.804	-9.199	-7.861	-8.486	-8.325	-7.912	-7.923	-6.840	-6.723	-5.596	-5.148	-5.289	-6.365	-6.347	-6.442	-6.138	-6.665	-6.666	-6.575	-6.388	-5.703	-5.599	-5.157	-4.821	-4.218	-3.536	-3.114	-4.325	-5.340	-6.053	-6.889	-6.521	-6.456	-6.085	-3.448	2.840	14.15	15.19
305.0	-580.5	-415.3	-277.5	-209.2	-153.8	-83.29	31.67	171.4	393.6	669.4	 1075	 1430	908.8	282.2	149.2	417.6	 2488	 5672	 1665	5.800	-20.60	-19.44	-17.63	-16.45	-16.38	-15.42	-14.80	-14.99	-13.45	-14.55	-13.46	-12.90	-11.92	-10.98	-10.46	-9.712	-9.534	-9.196	-8.938	-8.903	-8.439	-8.131	-8.222	-7.988	-8.177	-7.858	-6.686	-7.111	-5.948	-4.975	-5.426	-6.464	-6.205	-6.080	-6.467	-6.577	-6.787	-6.175	-6.054	-5.631	-6.245	-4.793	-5.321	-4.641	-4.679	-3.993	-3.832	-4.378	-6.051	-6.548	-6.634	-6.771	-7.081	-6.267	-4.816	-0.365	8.761
310.0	-573.5	-445.7	-288.3	-208.2	-138.1	-92.12	18.56	156.8	348.9	578.3	867.6	 1011	 1001	524.6	162.5	139.3	607.3	 2393	 4331	 2251	82.61	-18.07	-17.29	-15.94	-16.06	-14.86	-15.26	-13.53	-14.36	-14.34	-13.56	-12.42	-11.23	-10.92	-10.35	-9.742	-9.189	-9.561	-9.222	-8.950	-8.425	-8.446	-8.600	-8.302	-8.123	-7.597	-6.457	-7.005	-5.920	-5.275	-5.136	-6.493	-6.191	-6.235	-6.194	-6.293	-6.386	-6.258	-6.068	-5.944	-5.614	-4.845	-5.481	-4.939	-5.233	-4.764	-4.900	-4.575	-5.085	-5.555	-6.604	-6.957	-7.124	-7.280	-6.508	-6.104	-4.010
315.0	-625.9	-438.8	-288.6	-222.4	-117.2	-67.74	2.706	115.2	290.9	484.2	710.7	738.4	649.0	692.1	380.1	110.9	171.2	551.6	 1293	 4310	 2092	119.5	-16.57	-16.01	-15.10	-14.75	-13.45	-13.40	-15.03	-13.45	-13.48	-12.14	-11.32	-10.81	-10.71	-9.174	-9.400	-9.152	-9.230	-8.691	-8.510	-8.025	-8.576	-8.417	-8.041	-7.892	-6.722	-6.755	-6.126	-5.419	-5.104	-6.221	-6.032	-5.911	-5.990	-6.012	-6.254	-6.334	-5.932	-6.070	-5.357	-5.721	-5.704	-5.500	-5.223	-5.526	-5.409	-5.356	-6.060	-5.049	-5.513	-5.943	-7.083	-7.030	-7.281	-6.827	-7.449
320.0	-558.3	-452.1	-272.0	-188.7	-139.5	-57.15	-16.63	117.9	232.2	429.9	584.9	606.3	499.1	497.3	577.7	206.3	86.86	148.3	303.3	 1678	 4786	 1708	54.13	-15.01	-14.10	-14.06	-12.97	-14.16	-13.73	-12.83	-12.88	-12.52	-11.31	-11.19	-10.50	-9.156	-9.244	-9.195	-8.935	-8.349	-8.295	-8.250	-8.274	-8.198	-7.869	-7.690	-6.807	-6.717	-6.084	-5.541	-5.432	-6.117	-6.064	-6.039	-6.199	-6.535	-6.310	-5.568	-6.144	-6.348	-5.748	-5.913	-5.736	-5.615	-6.013	-5.452	-5.923	-6.108	-6.672	-5.813	-6.174	-5.745	-6.047	-7.060	-7.458	-7.274	-7.756
325.0	-611.3	-433.6	-301.9	-164.2	-124.1	-41.22	38.06	107.2	212.1	377.0	506.0	552.4	451.7	372.3	494.9	424.0	115.7	68.61	85.28	403.2	 2351	 4800	 1241	10.75	-14.93	-14.39	-13.40	-12.88	-13.80	-12.95	-13.00	-12.22	-12.04	-10.63	-10.50	-9.248	-9.625	-8.359	-8.637	-9.137	-8.150	-8.849	-7.784	-7.839	-8.091	-7.985	-6.401	-6.886	-6.101	-5.273	-5.306	-6.300	-6.054	-6.666	-5.941	-5.969	-5.954	-5.927	-6.260	-6.581	-5.819	-6.201	-5.972	-5.590	-6.033	-5.865	-5.786	-6.107	-6.537	-5.657	-6.655	-5.972	-5.346	-6.169	-6.778	-7.703	-8.012
330.0	-616.5	-436.0	-249.8	-87.91	-5.794	66.65	121.7	170.9	241.0	342.1	462.7	479.0	411.6	332.7	316.7	411.9	324.9	106.7	56.53	110.1	565.0	 2096	 3693	 1951	69.83	-12.39	-13.78	-13.08	-13.22	-14.00	-12.89	-12.64	-11.25	-10.83	-9.926	-9.169	-9.271	-9.168	-8.661	-8.824	-8.712	-8.705	-8.183	-8.114	-7.795	-7.611	-6.537	-6.560	-6.010	-4.964	-5.254	-6.087	-5.949	-6.273	-6.175	-6.231	-5.764	-6.190	-6.091	-6.057	-6.110	-6.233	-5.874	-5.693	-5.828	-5.935	-5.972	-6.173	-6.385	-6.457	-6.697	-6.560	-6.669	-6.135	-6.161	-6.249	-7.302
335.0	-563.7	-401.5	-219.7	23.59	156.8	259.4	282.6	303.9	307.2	346.9	429.2	412.8	386.7	324.3	272.4	252.6	348.2	310.8	94.23	65.19	147.5	481.4	 1167	 3834	 1574	104.4	-10.89	-12.48	-12.93	-12.81	-12.53	-11.81	-11.56	-10.17	-10.67	-9.354	-9.572	-8.853	-8.985	-8.966	-8.780	-8.267	-8.293	-8.667	-8.184	-7.433	-6.635	-6.675	-5.790	-4.774	-4.945	-5.652	-5.355	-5.764	-5.817	-6.037	-5.517	-5.350	-6.248	-6.030	-5.927	-5.857	-6.018	-6.074	-5.773	-5.702	-6.076	-6.178	-6.159	-6.559	-6.033	-6.711	-6.820	-6.892	-7.269	-6.399	-6.244
340.0	-576.4	-340.0	-107.1	118.6	261.1	372.7	459.0	420.9	383.7	390.4	409.1	376.2	379.2	321.8	273.7	217.6	233.8	392.4	212.7	71.08	67.71	132.3	278.3	 1501	 4265	 1397	58.63	-11.29	-12.70	-12.30	-12.54	-12.22	-10.78	-10.67	-10.48	-9.963	-9.544	-9.152	-8.485	-8.683	-8.532	-8.118	-8.639	-7.911	-7.442	-7.280	-6.384	-6.405	-5.850	-4.685	-4.959	-5.511	-4.777	-5.708	-4.884	-5.576	-5.958	-5.614	-5.654	-6.270	-5.872	-6.047	-5.548	-6.068	-5.784	-5.938	-6.165	-6.226	-6.498	-6.521	-6.482	-6.663	-6.851	-6.905	-6.847	-7.072	-7.123
345.0	-550.8	-390.9	-103.4	177.0	378.1	513.0	567.3	478.8	408.9	418.1	379.3	359.1	352.9	321.9	273.2	228.4	189.0	287.1	339.0	129.9	62.85	60.09	84.02	361.8	 2104	 4422	 1093	13.93	-12.51	-12.29	-12.67	-12.67	-11.10	-10.69	-9.506	-9.344	-9.180	-9.015	-9.399	-8.648	-8.260	-8.165	-8.683	-7.985	-8.042	-7.257	-6.472	-6.016	-5.923	-4.319	-4.460	-5.657	-4.741	-5.433	-5.021	-5.785	-5.526	-5.677	-5.372	-5.509	-5.605	-5.432	-5.802	-5.819	-5.665	-6.098	-6.133	-6.389	-6.385	-6.416	-5.870	-6.571	-7.268	-7.094	-7.587	-7.248	-7.135
350.0	-585.1	-360.3	-61.09	285.0	501.3	622.1	684.4	571.5	484.9	461.1	388.9	337.4	332.9	306.6	277.5	234.9	195.9	202.8	283.3	288.2	134.9	69.04	58.10	108.9	511.5	 1981	 3415	 1737	58.33	-10.53	-11.68	-11.63	-10.94	-11.14	-10.06	-9.337	-9.212	-9.062	-8.774	-8.557	-8.423	-8.207	-8.452	-8.032	-7.935	-7.324	-6.228	-6.214	-5.765	-4.286	-4.462	-5.222	-4.965	-4.773	-4.510	-4.724	-5.183	-5.443	-5.480	-5.555	-5.693	-5.763	-5.939	-5.721	-6.034	-6.384	-6.457	-6.282	-6.306	-6.609	-6.631	-6.448	-6.537	-6.782	-6.803	-7.488	-7.399
355.0	-598.5	-320.9	-51.18	368.3	601.2	738.0	759.6	649.0	601.5	476.7	372.0	321.5	311.0	314.6	282.1	238.9	213.5	197.9	203.4	280.4	271.0	125.8	73.85	70.96	144.5	462.5	 1118	 3545	 1335	81.03	-10.92	-12.23	-10.92	-10.75	-10.07	-9.057	-8.919	-9.183	-8.653	-8.995	-8.602	-8.730	-8.408	-8.216	-7.489	-7.878	-6.112	-6.439	-5.788	-4.345	-4.467	-4.690	-4.631	-4.751	-4.513	-4.604	-4.776	-5.383	-4.981	-5.206	-5.730	-5.385	-5.875	-5.950	-6.102	-6.444	-6.153	-6.077	-7.327	-6.579	-6.659	-6.363	-6.566	-6.506	-6.776	-6.859	-7.795
360.0	-557.0	-402.5	-52.17	326.5	637.2	763.7	820.8	675.4	581.6	458.7	368.6	312.7	303.3	302.3	286.2	249.5	224.6	208.1	199.3	215.5	309.1	227.6	100.5	77.32	76.65	132.6	271.1	 1484	 3973	 1179	39.01	-10.43	-11.04	-10.53	-9.709	-8.647	-9.564	-9.094	-8.789	-8.388	-8.425	-8.352	-8.037	-7.868	-7.629	-7.360	-6.437	-6.801	-5.528	-4.414	-4.705	-4.536	-4.501	-4.180	-4.267	-4.192	-4.451	-5.464	-5.155	-5.447	-5.595	-5.414	-6.005	-5.919	-6.279	-6.572	-6.185	-6.569	-6.397	-6.572	-5.952	-6.215	-6.923	-6.748	-6.715	-6.896	-6.855
365.0	-589.5	-346.0	-56.31	375.5	633.5	810.9	814.2	731.9	557.1	469.5	372.8	279.4	293.7	297.7	284.4	263.9	237.9	219.2	203.2	198.6	247.5	322.8	173.4	91.28	73.63	69.65	85.88	365.1	 2103	 4054	914.7	3.956	-10.11	-9.414	-9.792	-8.996	-9.339	-8.821	-8.838	-8.782	-8.681	-8.404	-8.308	-7.829	-7.707	-7.580	-6.286	-6.195	-5.612	-4.459	-4.671	-4.774	-4.338	-4.394	-3.878	-3.893	-4.413	-5.125	-4.855	-5.430	-5.803	-5.557	-6.183	-5.618	-5.983	-6.010	-6.492	-6.217	-6.686	-6.376	-5.915	-6.239	-6.699	-6.583	-6.598	-7.193	-7.261
370.0	-562.6	-321.4	-50.98	353.7	637.1	822.7	843.0	692.1	541.5	474.7	352.7	285.9	296.6	286.6	290.0	270.6	248.6	242.1	228.8	215.4	213.7	270.0	283.7	168.0	96.24	77.04	60.30	110.4	519.5	 1962	 3307	 1538	44.28	-8.848	-9.573	-8.967	-9.193	-8.759	-8.820	-8.753	-7.778	-8.252	-8.500	-8.176	-8.197	-7.292	-6.567	-6.404	-5.822	-4.392	-4.366	-5.079	-4.654	-4.412	-4.440	-4.277	-4.523	-4.802	-5.220	-5.404	-5.577	-5.398	-6.084	-6.099	-6.196	-6.153	-6.220	-6.200	-6.658	-6.433	-6.328	-6.497	-6.870	-6.530	-6.444	-7.251	-7.050
375.0	-596.0	-346.1	-39.24	322.9	590.7	723.3	767.8	688.6	525.8	438.7	342.4	275.1	292.7	300.1	287.0	273.2	262.0	253.0	245.3	237.4	225.4	223.0	255.8	293.5	161.1	103.9	74.68	67.90	142.7	452.7	 1174	 3585	 1087	58.98	-8.142	-7.983	-8.636	-8.642	-8.257	-8.718	-8.418	-8.247	-8.693	-7.677	-7.907	-7.226	-6.993	-6.614	-5.740	-4.409	-4.275	-5.021	-4.369	-4.450	-4.718	-4.780	-4.834	-5.132	-5.256	-5.569	-5.741	-5.551	-6.140	-6.441	-6.087	-6.212	-6.317	-6.217	-6.530	-6.384	-6.604	-6.281	-6.556	-6.587	-6.704	-7.137	-7.293
380.0	-554.0	-386.9	-70.16	246.8	582.7	661.3	699.2	606.7	486.2	432.3	331.4	271.0	287.2	280.4	277.6	271.3	266.9	272.4	259.2	246.7	239.7	225.0	224.9	298.9	248.0	134.5	88.75	67.29	63.22	125.6	283.5	 1648	 3691	920.9	23.61	-6.892	-7.944	-8.245	-7.705	-8.904	-7.986	-8.262	-8.325	-7.657	-7.697	-7.440	-6.924	-6.348	-5.773	-4.675	-4.041	-5.115	-4.706	-4.197	-4.264	-4.337	-4.707	-5.273	-5.509	-5.682	-5.721	-5.851	-6.259	-6.356	-6.123	-6.437	-6.275	-6.478	-6.352	-6.391	-6.794	-6.418	-6.811	-6.737	-6.522	-7.017	-7.588
385.0	-566.8	-397.0	-117.8	236.6	513.0	641.5	640.6	583.6	468.3	380.9	314.9	270.6	270.1	283.3	283.9	275.0	272.0	269.1	274.5	258.8	251.7	234.7	219.5	243.6	289.9	188.2	108.5	76.34	58.32	56.49	81.59	409.7	 2171	 3516	653.4	-0.074	-7.397	-8.063	-8.463	-8.574	-7.966	-8.590	-8.302	-7.700	-7.678	-7.681	-6.634	-5.996	-5.603	-4.417	-4.155	-4.603	-5.327	-4.808	-4.454	-4.506	-4.989	-4.923	-5.541	-5.659	-5.826	-5.760	-6.161	-6.317	-6.288	-6.777	-6.451	-6.505	-6.889	-6.171	-6.597	-6.650	-6.114	-6.473	-6.723	-7.023	-7.111
390.0	-568.0	-391.1	-112.3	184.4	466.4	567.6	577.2	520.0	425.2	358.0	300.0	261.2	271.5	280.8	278.3	271.6	277.0	277.6	278.5	267.0	263.2	247.8	227.5	218.3	247.0	261.8	174.3	103.1	73.50	54.80	46.17	108.4	543.5	 1840	 2723	 1114	32.53	-7.392	-7.986	-7.829	-8.138	-8.396	-8.308	-7.811	-7.801	-7.504	-6.790	-6.065	-5.492	-4.668	-4.540	-5.103	-5.243	-5.214	-4.601	-4.808	-5.255	-5.249	-5.487	-5.320	-5.929	-5.973	-6.151	-6.158	-6.351	-6.455	-6.398	-6.652	-6.603	-6.217	-6.431	-6.513	-6.380	-6.587	-7.148	-7.019	-7.231
395.0	-570.8	-403.3	-158.9	154.9	437.7	493.3	546.0	456.3	381.9	353.2	295.2	246.1	258.6	255.1	271.4	274.6	275.6	278.6	283.6	269.4	265.4	253.3	237.9	222.8	211.4	233.8	255.2	158.7	94.92	71.45	53.36	52.88	135.2	421.1	 1090	 2922	845.4	39.29	-7.791	-7.527	-7.439	-8.225	-7.736	-8.348	-7.593	-7.106	-6.709	-6.341	-5.442	-4.567	-4.475	-5.298	-4.831	-5.222	-4.923	-5.020	-5.368	-5.385	-5.336	-5.455	-5.856	-6.015	-5.942	-6.362	-6.489	-6.432	-6.693	-6.354	-6.548	-6.089	-6.776	-6.472	-5.993	-6.843	-6.559	-6.964	-6.988
400.0	-619.9	-386.4	-155.0	100.0	401.6	451.8	471.3	386.0	339.0	318.4	277.1	233.7	260.3	258.7	270.1	270.4	271.9	276.8	273.2	273.7	262.7	254.8	242.6	229.5	212.3	205.6	247.9	222.7	119.4	81.82	64.09	47.94	52.52	106.1	262.1	 1460	 2886	699.0	10.90	-7.534	-7.679	-8.102	-7.845	-7.658	-7.503	-6.831	-6.581	-6.339	-5.626	-4.819	-4.441	-5.343	-4.446	-5.535	-5.045	-4.795	-5.632	-5.598	-5.508	-5.989	-5.726	-5.984	-5.949	-6.348	-6.536	-6.316	-6.567	-6.178	-6.350	-6.507	-6.784	-6.493	-6.531	-6.826	-6.894	-6.974	-6.940
405.0	-547.1	-373.2	-112.6	91.01	319.9	380.8	426.4	366.2	315.6	293.4	273.2	233.7	253.5	257.8	271.0	266.0	261.7	264.9	270.3	272.1	263.9	256.3	249.2	232.7	212.9	198.8	208.0	244.1	165.0	94.49	70.75	53.01	40.31	40.50	68.87	366.0	 1774	 2648	473.7	-3.930	-7.353	-8.250	-7.787	-7.877	-8.033	-6.886	-6.817	-6.645	-5.713	-4.761	-4.410	-5.290	-5.099	-5.722	-5.133	-5.238	-5.603	-5.681	-6.125	-5.856	-6.034	-6.392	-6.162	-6.041	-6.777	-6.530	-6.304	-6.335	-6.422	-5.896	-6.981	-6.416	-6.161	-6.435	-7.242	-6.913	-7.134
410.0	-566.9	-422.7	-161.6	63.82	274.0	341.4	357.4	345.6	299.6	269.0	267.7	239.2	255.0	251.0	255.9	257.7	254.5	257.1	261.7	262.5	260.0	254.0	248.8	232.6	221.4	203.0	188.2	205.0	215.1	143.9	89.26	64.33	48.06	34.89	30.84	89.79	447.1	 1489	 2091	437.8	22.54	-7.717	-8.200	-7.846	-7.611	-7.152	-6.640	-6.426	-5.791	-4.676	-4.670	-5.553	-5.267	-5.400	-5.192	-5.257	-6.014	-5.572	-6.096	-6.325	-6.200	-6.137	-6.406	-6.067	-6.340	-6.541	-6.511	-6.455	-6.462	-6.596	-6.694	-6.849	-6.517	-6.639	-6.867	-6.809	-7.000
415.0	-558.3	-451.3	-189.3	15.61	240.5	311.5	306.8	291.6	268.7	258.9	247.7	240.9	243.0	252.4	233.9	247.1	238.4	243.3	247.2	247.0	243.9	245.6	239.4	233.1	218.9	205.9	188.6	183.7	192.3	201.3	129.9	78.56	57.89	41.73	29.20	32.53	106.3	337.4	885.8	 2153	697.4	26.81	-7.060	-7.358	-7.589	-7.092	-6.609	-6.810	-5.760	-5.117	-4.723	-5.606	-5.502	-5.862	-5.303	-5.240	-5.874	-5.877	-6.063	-6.488	-6.102	-6.257	-6.275	-6.400	-6.485	-6.001	-6.932	-6.478	-6.347	-6.473	-6.709	-6.739	-6.226	-6.430	-7.074	-6.901	-6.809
420.0	-588.0	-435.1	-219.5	5.531	181.1	263.2	294.2	255.9	257.4	244.3	239.6	230.2	229.9	244.3	235.7	229.2	232.9	240.6	241.3	238.7	237.9	238.3	227.5	222.1	221.0	203.9	187.0	176.7	168.9	198.7	170.0	98.99	65.25	47.86	31.88	23.80	33.94	79.71	210.5	 1187	 2196	535.4	1.787	-7.078	-6.988	-6.971	-6.354	-6.533	-5.828	-5.026	-4.732	-5.832	-5.253	-5.573	-5.669	-5.570	-6.358	-6.121	-5.738	-6.118	-6.149	-6.565	-6.296	-5.913	-6.491	-6.037	-6.893	-6.489	-6.715	-6.750	-6.983	-6.779	-6.719	-6.844	-6.792	-6.774	-6.556
425.0	-652.2	-441.1	-221.0	-15.89	128.2	227.6	247.8	263.0	239.7	243.8	225.7	229.4	231.9	235.9	238.1	225.3	235.2	220.9	236.2	231.4	228.4	226.3	219.0	216.1	216.5	204.3	191.4	178.0	163.5	168.1	193.4	130.2	73.67	54.01	35.91	26.83	19.62	24.04	49.12	305.0	 1461	 1928	84.80	-5.768	-6.227	-6.885	-6.218	-6.144	-5.814	-5.022	-4.664	-5.623	-5.495	-5.451	-5.438	-5.826	-5.795	-5.806	-6.208	-6.260	-6.277	-6.340	-6.530	-6.363	-6.879	-6.292	-6.982	-6.163	-6.355	-6.832	-6.620	-6.741	-6.785	-7.096	-6.743	-6.863	-7.178
430.0	-603.5	-416.7	-220.4	-38.98	116.9	184.0	226.7	247.6	232.7	232.2	235.1	237.0	232.9	226.1	230.6	212.9	215.9	211.2	220.1	222.5	220.3	217.5	217.3	215.0	207.7	201.9	190.8	181.7	167.2	152.8	168.1	165.5	109.8	66.21	45.07	33.07	21.99	15.78	16.59	70.00	371.5	 1146	 1531	387.1	18.32	-6.543	-6.034	-5.979	-5.506	-5.035	-4.755	-5.882	-5.553	-5.706	-5.441	-5.891	-5.927	-6.056	-5.655	-6.076	-6.030	-6.391	-6.224	-6.645	-6.491	-6.399	-6.662	-6.552	-6.489	-6.874	-6.553	-6.670	-6.857	-6.658	-6.466	-7.206	-7.214
435.0	-507.0	-462.7	-255.2	-75.97	77.49	160.6	220.5	232.3	218.3	232.1	238.8	237.6	233.9	228.1	226.3	201.0	203.8	200.5	205.2	211.4	201.9	205.6	207.7	206.0	203.1	198.7	192.9	183.5	170.3	157.2	147.1	147.3	148.5	94.92	57.11	40.13	29.48	18.15	13.44	19.47	84.59	257.0	717.4	 1800	611.4	19.54	-5.863	-5.990	-5.899	-5.004	-5.068	-5.809	-5.459	-5.780	-5.676	-5.804	-5.961	-5.670	-6.166	-6.427	-6.262	-6.174	-6.337	-6.353	-6.297	-6.473	-6.685	-6.435	-6.456	-6.529	-6.452	-6.518	-6.812	-6.894	-6.754	-7.356	-7.226
440.0	-521.0	-447.6	-219.8	-62.95	44.39	120.2	188.8	204.9	216.6	221.0	231.4	242.9	227.2	213.4	216.0	200.8	197.5	195.0	193.8	196.5	195.4	194.6	194.0	199.8	195.5	193.3	188.7	181.1	173.3	160.8	146.2	135.9	146.9	125.4	70.44	44.60	32.91	21.01	15.32	10.61	21.64	58.48	171.5	 1014	 1866	468.1	2.167	-5.734	-5.271	-4.897	-4.830	-6.099	-5.516	-5.782	-5.358	-6.152	-6.358	-5.866	-6.226	-6.420	-6.290	-5.833	-6.365	-5.882	-6.535	-6.857	-6.386	-6.513	-6.394	-6.613	-6.730	-6.205	-6.708	-6.799	-7.150	-7.089	-6.910
445.0	-604.3	-404.6	-253.0	-92.40	38.91	93.64	182.7	198.6	207.7	211.6	228.5	236.7	213.0	214.0	208.1	193.4	178.6	188.0	188.2	184.2	190.1	187.6	183.6	185.7	183.7	189.1	185.6	179.0	171.9	157.2	145.6	132.3	125.5	140.3	92.66	51.75	36.06	24.85	17.09	10.70	10.12	14.81	38.26	260.6	 1282	 1710	68.44	-4.178	-5.361	-4.625	-4.892	-5.636	-5.699	-6.128	-5.547	-5.895	-6.431	-6.098	-6.527	-6.114	-6.583	-6.249	-6.500	-6.092	-6.711	-6.961	-6.439	-6.715	-6.475	-6.659	-6.734	-6.398	-6.151	-7.176	-6.891	-7.090	-7.113
450.0	-560.7	-350.8	-256.7	-105.5	33.86	96.75	149.0	175.6	191.5	218.2	225.0	218.2	215.3	199.9	191.4	188.3	170.6	168.7	166.2	170.3	170.1	174.0	172.8	175.0	174.8	180.7	174.8	172.0	166.0	156.1	144.0	128.2	111.5	113.5	107.2	72.17	43.78	29.32	21.63	13.58	9.850	7.362	9.259	58.19	327.6	 1079	 1427	328.3	14.81	-4.516	-4.573	-5.722	-5.560	-6.036	-5.814	-6.045	-6.444	-5.830	-6.471	-5.898	-6.371	-6.620	-6.297	-6.639	-6.613	-6.631	-6.749	-6.548	-6.863	-6.355	-6.707	-6.733	-6.296	-6.731	-7.007	-7.226	-7.423
455.0	-581.4	-453.3	-89.70	-84.97	2.958	65.58	111.4	155.3	193.9	197.4	217.8	201.9	181.5	183.8	176.3	167.9	150.7	152.0	150.5	155.0	155.6	152.4	156.4	161.7	162.5	162.3	163.7	162.4	159.2	154.8	139.6	125.9	108.5	97.29	93.19	90.62	60.46	33.09	23.87	17.43	11.20	7.740	4.283	13.55	73.10	242.7	657.8	 1592	485.2	12.96	-4.425	-5.495	-5.771	-6.043	-5.754	-6.424	-6.262	-6.039	-6.270	-6.084	-6.735	-6.221	-6.629	-6.762	-6.432	-6.800	-7.018	-6.525	-6.867	-7.148	-7.064	-6.543	-6.791	-7.001	-7.268	-7.788	-7.476
460.0	-578.7	-463.8	5.733	-61.69	-27.86	48.47	101.7	134.8	162.6	191.3	201.6	179.4	182.5	170.9	157.0	146.2	136.3	138.8	137.8	135.7	137.1	142.2	144.3	147.1	148.4	154.9	152.3	150.8	148.5	145.8	134.2	120.0	101.8	89.60	78.21	85.57	73.42	40.60	26.10	19.57	12.39	8.316	4.908	3.943	15.68	53.11	156.3	923.3	 1565	322.5	1.107	-5.234	-5.365	-6.062	-5.512	-5.847	-6.234	-6.075	-6.521	-6.042	-6.433	-6.184	-5.957	-6.647	-6.734	-6.847	-6.661	-6.932	-7.176	-6.727	-6.584	-6.894	-7.307	-6.847	-7.263	-7.915	-7.382
465.0	-591.5	-467.3	-34.06	160.0	-44.80	32.01	93.12	132.1	143.7	155.1	175.8	157.0	166.8	165.3	138.7	143.6	129.7	129.7	121.4	122.7	128.7	136.3	133.1	135.9	138.3	141.6	140.1	140.6	142.1	136.9	126.5	115.5	100.6	84.30	71.38	69.95	76.68	50.19	28.41	18.66	13.16	8.689	5.362	3.163	3.278	10.76	34.19	239.4	 1136	 1294	54.36	-4.103	-4.799	-5.776	-5.695	-5.910	-6.467	-6.401	-6.178	-6.467	-6.187	-6.295	-6.447	-6.454	-6.736	-6.457	-6.582	-6.911	-6.868	-6.772	-6.959	-7.069	-6.801	-6.911	-7.334	-7.619	-7.069
470.0	-587.6	-453.1	-162.9	462.9	161.3	15.00	60.96	93.56	125.2	138.3	145.9	141.9	150.7	137.6	125.0	124.7	116.6	108.1	107.5	110.3	112.1	114.8	118.1	120.9	123.5	126.7	124.6	125.6	125.4	122.1	114.3	106.0	91.65	79.17	66.40	57.53	60.15	59.84	37.61	21.71	13.64	9.296	6.597	3.194	1.722	1.798	6.898	52.02	291.5	870.3	 1010	290.8	10.11	-5.396	-5.742	-6.109	-6.481	-6.536	-6.036	-6.362	-6.575	-6.411	-6.626	-6.573	-6.622	-6.632	-6.722	-6.876	-6.949	-6.703	-6.734	-7.111	-6.895	-6.732	-7.190	-8.003	-7.535
475.0	-626.1	-498.4	-287.1	233.5	700.8	20.99	23.25	54.53	92.21	104.9	140.7	116.3	128.4	116.2	109.1	104.6	99.35	92.36	96.80	90.37	94.34	99.59	102.1	104.2	105.4	113.2	111.6	110.7	112.7	109.0	102.6	97.03	84.47	74.75	61.85	51.85	44.84	50.52	46.62	28.40	15.41	8.834	5.319	3.446	1.854	0.122	0.872	10.28	63.29	195.0	473.8	 1077	389.6	8.471	-5.463	-5.924	-6.051	-6.431	-6.053	-6.188	-6.603	-6.343	-6.353	-6.983	-6.331	-6.678	-6.784	-6.784	-6.938	-7.004	-6.939	-7.129	-6.910	-6.964	-7.558	-7.445	-7.883
480.0	-589.4	-485.5	-351.2	-39.80	941.7	254.5	12.66	25.67	62.42	92.91	113.0	105.1	114.5	99.84	98.33	93.42	78.79	80.15	82.15	84.65	87.48	88.89	90.72	91.54	96.01	101.7	102.2	99.68	102.5	98.69	95.62	90.01	76.58	71.17	58.82	50.73	40.12	40.00	45.23	36.27	19.51	10.17	7.390	3.906	2.959	0.350	0.221	1.170	13.24	42.36	112.3	615.9	 1090	70.87	-2.161	-6.058	-6.333	-6.551	-6.398	-6.574	-6.347	-6.536	-6.547	-6.426	-6.497	-7.031	-6.685	-7.260	-7.229	-7.215	-6.845	-6.953	-7.062	-7.157	-7.296	-7.737	-7.983
485.0	-612.0	-438.3	-369.0	-178.1	680.8	676.9	-4.368	31.09	48.08	76.21	89.67	91.90	109.5	82.77	85.95	82.00	75.48	77.32	74.58	76.53	80.35	80.62	82.01	83.30	88.10	92.01	91.57	92.91	94.60	91.52	86.60	85.59	72.41	67.51	54.79	46.41	39.41	34.57	35.54	38.94	25.83	11.65	7.918	5.246	2.682	1.190	0.460	-0.888	1.222	8.159	23.38	159.1	790.7	928.7	54.51	-5.304	-6.027	-6.234	-6.584	-6.276	-6.426	-6.560	-6.594	-6.667	-6.615	-7.035	-7.159	-7.663	-6.628	-6.917	-7.493	-7.082	-7.612	-7.180	-7.206	-8.024	-8.040
490.0	-621.9	-441.5	-332.9	-209.8	140.5	992.9	325.2	12.72	28.96	70.11	75.25	75.87	88.71	77.87	76.86	72.35	61.80	65.47	68.05	68.72	70.05	71.19	73.45	73.54	76.58	80.11	80.64	83.26	83.51	82.36	80.55	76.53	66.62	60.50	51.10	44.23	36.09	30.33	26.91	30.96	31.50	18.99	9.310	5.174	3.080	1.800	0.959	-0.365	-0.811	0.816	3.936	32.76	202.0	605.0	725.0	275.9	8.798	-6.060	-6.302	-6.331	-6.448	-6.762	-6.460	-6.785	-6.572	-7.323	-6.761	-7.097	-7.166	-7.022	-6.955	-7.281	-7.472	-7.399	-7.357	-7.624	-7.639
495.0	-626.4	-486.7	-355.2	-230.1	-78.91	537.1	983.2	51.53	7.237	51.84	63.43	65.41	67.48	64.51	55.79	55.79	51.03	53.47	51.52	56.26	55.32	56.88	58.89	64.89	66.67	70.28	70.16	73.38	71.34	74.51	70.70	65.59	58.95	53.76	45.97	40.28	31.86	26.74	22.85	20.89	24.76	26.24	13.78	5.379	2.669	1.976	1.402	0.499	-0.824	-0.265	-0.386	4.432	42.27	133.0	381.4	988.0	404.9	5.870	-6.567	-6.347	-6.640	-6.650	-6.688	-6.898	-6.754	-6.997	-6.621	-7.139	-7.248	-7.025	-6.878	-6.920	-7.275	-7.008	-7.038	-7.402	-7.564
500.0	-574.7	-477.5	-333.1	-194.5	-136.3	93.62	 1174	333.0	6.244	26.87	46.61	52.21	50.57	53.60	53.74	47.68	44.49	45.10	44.75	48.38	50.05	49.44	54.56	56.76	60.80	61.49	60.88	63.97	63.83	65.83	63.74	60.86	52.54	47.75	40.34	35.40	30.67	25.41	19.75	18.14	17.88	22.91	18.99	7.260	3.284	1.682	1.385	-0.017	-0.465	-0.469	-1.719	-1.450	6.437	26.28	89.23	553.4	 1031	71.39	-2.773	-6.885	-6.281	-6.634	-6.827	-6.852	-6.932	-6.955	-6.798	-6.826	-7.207	-6.774	-7.050	-7.217	-7.241	-7.121	-6.888	-7.618	-7.972
505.0	-644.7	-498.5	-329.4	-202.7	-143.9	-64.05	755.9	855.4	10.20	12.07	22.82	43.14	47.41	34.14	40.69	41.26	40.59	39.11	35.88	45.44	45.12	45.51	49.45	49.12	52.15	52.99	52.07	55.05	58.10	56.50	57.29	56.30	49.66	43.75	37.24	33.30	27.73	23.11	18.34	16.11	14.76	17.14	20.08	11.14	4.165	1.714	2.018	-0.124	-0.458	-0.228	-1.386	-2.753	-1.594	2.689	16.94	139.1	733.9	873.4	57.14	-6.217	-6.522	-6.968	-6.854	-6.610	-7.331	-6.964	-7.027	-6.606	-6.863	-7.019	-7.414	-7.097	-7.164	-7.151	-7.440	-7.499	-7.789
510.0	-640.2	-500.1	-350.7	-206.1	-158.0	-102.8	198.4	 1060	400.6	4.573	11.20	25.12	26.45	26.67	31.64	29.47	31.38	31.30	30.69	33.12	32.90	35.82	38.54	41.15	42.74	43.92	45.13	45.90	47.86	47.69	48.34	45.53	40.74	36.99	31.27	28.68	23.83	20.40	16.61	14.60	11.55	10.06	13.83	14.49	7.589	2.405	1.645	-0.223	-0.401	-0.671	-1.271	-2.998	-3.293	-2.498	0.405	27.31	185.7	558.9	651.5	248.5	6.260	-6.417	-6.870	-6.895	-7.149	-7.163	-7.316	-7.002	-7.452	-7.359	-7.451	-7.270	-7.239	-7.388	-7.485	-7.553	-7.923
515.0	-609.1	-495.7	-360.2	-231.9	-119.5	-123.4	-31.37	486.5	 1124	59.53	0.618	12.83	17.75	11.85	25.83	21.79	21.14	22.60	22.54	23.77	26.73	28.03	28.62	30.75	33.37	33.93	37.50	36.48	39.85	37.71	38.14	37.17	32.58	30.88	27.60	23.10	21.59	15.20	13.51	11.24	10.14	7.799	7.902	11.18	11.49	4.866	2.097	0.077	-0.245	-0.793	-1.555	-3.195	-3.400	-4.163	-3.595	2.195	37.41	121.2	310.6	773.9	311.9	1.644	-6.779	-6.449	-6.931	-7.264	-7.038	-6.953	-7.311	-7.193	-7.258	-7.338	-7.198	-7.215	-7.353	-7.917	-7.796
520.0	-601.5	-455.0	-366.8	-235.1	-124.8	-146.2	-87.89	106.3	 1182	437.5	-16.11	-8.031	5.054	5.355	19.28	12.75	11.64	17.44	18.28	20.42	18.67	21.48	23.08	27.85	28.54	28.87	29.28	31.32	33.12	30.81	31.78	32.52	28.54	27.46	22.50	21.03	18.16	14.21	12.14	9.661	8.540	5.803	4.413	6.778	10.19	7.749	2.568	0.496	-0.216	-0.737	-1.435	-2.759	-2.939	-4.626	-4.119	-3.017	4.503	22.36	70.10	429.8	685.9	67.61	-4.606	-6.632	-6.537	-7.041	-7.155	-6.465	-7.375	-7.216	-7.452	-7.206	-7.636	-7.223	-7.772	-8.005	-7.502
525.0	-619.1	-424.6	-390.3	-274.9	-150.1	-127.1	-105.9	-48.03	699.4	 1007	10.08	-12.22	-3.629	2.143	3.918	6.271	7.477	9.650	11.21	12.85	15.90	16.75	17.90	22.45	21.75	24.72	25.02	27.45	27.58	27.57	28.07	28.48	25.00	21.61	19.54	19.08	15.35	11.94	11.25	7.927	6.672	4.931	3.198	3.392	6.332	9.249	4.981	-0.079	-0.350	-0.551	-1.370	-3.216	-3.516	-4.211	-4.397	-4.563	-2.537	0.741	11.50	106.9	502.3	578.8	49.83	-6.211	-6.383	-6.928	-6.922	-7.223	-7.215	-7.342	-7.240	-7.091	-7.559	-7.386	-7.674	-7.822	-8.182
530.0	-667.8	-463.7	-389.8	-281.1	-184.8	-88.56	-121.2	-80.49	159.2	 1108	480.1	-19.04	-12.94	-5.635	-2.456	-0.497	4.108	5.893	4.591	6.751	9.688	12.18	14.04	15.58	17.37	18.99	19.79	20.44	21.41	22.46	22.38	21.21	19.68	17.71	15.24	14.60	11.56	9.596	8.517	6.127	5.271	3.037	1.788	1.280	2.243	6.516	6.774	2.855	-0.728	-0.948	-1.675	-3.373	-3.705	-4.478	-4.347	-4.677	-5.158	-4.374	-2.015	19.30	123.7	368.1	478.8	178.6	1.363	-6.798	-7.013	-7.164	-7.183	-7.183	-7.433	-7.517	-7.518	-7.532	-7.613	-7.522	-8.215
535.0	-597.6	-557.0	-394.9	-283.4	-212.6	-111.1	-107.4	-96.28	-31.55	433.1	 1219	85.91	-20.70	-18.94	-7.251	-6.970	-1.471	-0.030	2.562	1.877	6.144	6.584	7.634	9.562	10.58	12.66	13.02	14.38	14.43	15.65	17.14	16.27	14.43	13.99	11.45	10.73	8.860	7.205	5.337	4.204	2.146	2.191	0.321	0.577	-0.071	1.925	4.820	4.616	1.117	-1.331	-1.933	-3.975	-3.947	-4.548	-4.065	-5.201	-5.461	-5.681	-4.941	-0.296	22.90	78.47	214.1	527.6	71.90	-1.154	-6.472	-7.287	-6.821	-7.252	-7.324	-7.717	-7.237	-7.639	-7.420	-8.210	-8.242
540.0	-612.5	-495.6	-386.8	-289.9	-225.4	-144.8	-78.14	-96.24	-69.90	73.67	 1173	509.5	-26.36	-20.17	-16.64	-11.16	-8.737	-8.729	2.225	0.339	3.018	4.748	5.832	4.707	5.464	10.77	11.76	10.83	11.65	13.18	12.23	12.93	12.39	10.61	9.077	8.327	6.538	6.235	4.513	3.594	0.677	0.100	0.555	0.335	-1.492	-0.918	2.188	4.646	3.106	-0.937	-1.626	-4.218	-4.376	-4.664	-4.546	-5.534	-5.382	-5.768	-5.780	-4.694	0.378	13.00	46.03	279.1	474.4	61.63	-5.467	-6.334	-7.220	-7.434	-7.173	-7.547	-7.192	-7.657	-7.444	-7.693	-8.109
545.0	-598.4	-469.5	-370.7	-276.6	-230.7	-161.7	-62.98	-83.83	-85.05	-35.69	591.9	 1068	-10.81	-31.03	-22.03	-19.51	-16.77	-7.502	-0.983	-3.583	-1.925	1.989	3.831	3.030	3.735	6.894	7.827	8.837	8.841	11.03	9.525	10.30	9.061	7.563	6.987	5.877	4.958	3.572	3.218	2.208	0.331	0.339	-0.915	-0.728	-1.076	-2.035	-0.262	1.723	3.480	0.684	-1.802	-3.759	-4.142	-4.722	-4.825	-5.559	-5.250	-6.112	-5.944	-6.103	-4.679	-1.953	5.142	64.87	329.9	403.2	42.20	-7.039	-7.407	-7.184	-7.603	-7.362	-7.518	-7.803	-7.607	-7.612	-8.172
550.0	-611.7	-479.6	-386.0	-298.8	-222.1	-172.5	-92.09	-85.43	-93.59	-67.37	118.6	 1002	459.1	-28.17	-28.39	-21.57	-16.95	-11.52	-8.893	-5.932	-5.561	-2.215	-1.682	-0.156	1.952	1.579	2.822	4.523	4.681	4.677	5.447	6.912	4.690	4.557	4.077	3.073	2.749	2.016	1.176	0.119	-0.618	-0.772	-1.911	-2.025	-1.857	-2.629	-1.422	-1.347	1.363	2.174	-0.805	-3.995	-4.281	-5.064	-4.874	-5.417	-5.517	-6.007	-6.053	-6.025	-6.128	-5.667	-3.850	9.462	78.53	248.5	316.1	109.0	-2.378	-7.234	-7.634	-7.414	-7.518	-7.398	-7.698	-8.027	-8.042
555.0	-621.0	-481.1	-368.5	-299.5	-209.5	-190.7	-127.7	-73.81	-88.98	-64.17	-15.66	337.6	 1103	78.96	-28.71	-24.28	-18.82	-16.66	-11.99	-9.967	-8.289	-6.771	-4.780	-4.535	-2.111	-2.115	-1.403	-0.770	0.388	0.137	0.985	2.938	1.067	2.016	0.982	0.321	0.542	-0.748	-0.576	-1.834	-2.150	-2.081	-2.630	-2.849	-2.936	-4.033	-3.251	-3.459	-1.527	0.892	-0.495	-3.628	-4.700	-5.242	-5.239	-5.892	-6.178	-6.122	-5.679	-6.062	-6.020	-6.294	-6.039	-3.244	12.27	50.88	140.5	337.5	65.95	-4.573	-7.284	-7.282	-7.494	-7.711	-8.048	-7.553	-7.650
560.0	-585.4	-508.1	-386.0	-296.4	-239.9	-203.3	-141.2	-77.77	-54.56	-63.23	-35.19	67.51	979.3	447.4	-31.62	-25.48	-23.59	-20.41	-15.57	-12.79	-9.848	-10.49	-7.869	-6.924	-4.707	-3.870	-3.345	-1.146	-2.826	-1.035	-1.851	0.260	-1.306	-0.863	-0.362	-1.135	-1.733	-1.460	-2.696	-3.133	-3.319	-4.028	-4.006	-3.440	-3.742	-4.314	-3.899	-3.750	-3.107	-0.552	-0.456	-2.419	-4.274	-5.621	-5.453	-5.584	-5.907	-6.313	-5.842	-5.987	-6.816	-6.711	-6.002	-6.025	-2.443	6.167	28.53	183.6	291.6	48.53	-6.486	-7.432	-7.662	-7.718	-7.796	-7.382	-7.770
565.0	-560.4	-529.5	-370.1	-305.3	-242.1	-191.7	-150.1	-95.40	-47.78	-58.01	-35.09	-1.173	476.7	909.7	-4.105	-28.61	-24.60	-21.99	-17.11	-15.59	-13.31	-11.24	-8.889	-7.051	-7.732	-4.633	-4.418	-3.038	-3.730	-1.665	-2.710	-2.777	-2.590	-2.571	-2.501	-1.938	-2.664	-2.674	-3.703	-3.157	-3.794	-3.743	-4.629	-4.930	-4.713	-4.412	-4.093	-4.212	-3.679	-2.237	-1.309	-2.443	-3.582	-5.501	-5.645	-5.638	-5.847	-6.277	-5.994	-6.194	-6.572	-6.746	-6.663	-6.476	-5.863	-3.743	1.164	41.90	211.3	234.2	23.30	-7.288	-7.658	-7.153	-7.306	-7.858	-7.895
570.0	-609.9	-491.2	-387.1	-294.2	-233.2	-201.2	-160.1	-121.6	-39.79	-45.85	-27.53	-7.728	105.1	805.6	368.0	-31.34	-27.15	-22.80	-19.11	-17.20	-14.85	-12.10	-11.58	-10.10	-9.322	-7.225	-7.021	-5.875	-6.576	-5.631	-4.686	-5.250	-4.195	-4.300	-3.926	-3.266	-4.121	-4.671	-4.706	-4.636	-4.641	-5.434	-5.495	-5.156	-5.069	-5.209	-4.273	-4.611	-4.126	-3.551	-2.993	-3.191	-3.069	-5.109	-5.388	-6.119	-6.240	-6.114	-6.323	-6.523	-6.184	-6.524	-7.138	-6.760	-6.605	-6.025	-5.223	3.838	49.24	150.1	178.8	35.43	-5.113	-7.322	-7.315	-7.882	-7.917
575.0	-620.4	-481.8	-436.4	-304.7	-239.5	-202.2	-166.8	-124.7	-68.98	-7.798	-17.05	-11.13	4.758	242.2	866.4	42.11	-32.40	-27.12	-21.08	-19.25	-16.34	-13.99	-13.07	-11.63	-10.62	-10.40	-8.560	-7.059	-9.414	-6.840	-6.509	-5.693	-6.895	-5.557	-5.684	-4.857	-5.606	-5.098	-5.768	-5.704	-6.045	-5.994	-5.999	-5.779	-6.059	-6.011	-4.979	-4.601	-4.858	-3.745	-3.951	-5.035	-3.485	-4.599	-5.138	-6.255	-6.547	-5.929	-6.322	-6.293	-6.440	-6.659	-6.665	-6.418	-6.555	-6.807	-6.218	-4.506	5.580	28.55	83.39	184.5	49.58	-6.383	-7.261	-7.562	-8.122
580.0	-632.1	-488.0	-392.6	-312.1	-245.1	-211.9	-162.1	-125.3	-86.84	2.051	-0.176	-14.52	-15.38	32.28	733.6	353.9	-32.04	-25.57	-22.55	-21.76	-15.99	-15.80	-15.32	-14.20	-13.02	-10.15	-10.40	-8.698	-9.674	-8.606	-8.140	-8.471	-7.006	-6.867	-6.136	-5.769	-6.229	-5.857	-5.828	-6.280	-5.946	-6.371	-6.325	-5.348	-5.943	-6.586	-5.094	-5.270	-4.963	-4.278	-4.458	-5.513	-4.102	-4.711	-5.174	-6.024	-6.537	-6.394	-6.175	-6.523	-6.364	-6.486	-6.527	-6.522	-6.582	-6.659	-6.414	-6.590	-4.262	1.068	14.90	107.3	162.9	26.83	-7.168	-7.380	-7.968
585.0	-631.2	-504.5	-369.3	-313.7	-243.7	-201.5	-147.4	-130.0	-100.3	7.577	11.38	-5.271	-18.24	-24.36	330.6	677.1	-11.15	-28.74	-23.87	-20.12	-18.32	-16.23	-14.19	-14.72	-12.89	-10.98	-11.09	-10.73	-10.46	-9.937	-8.727	-8.084	-8.029	-7.082	-7.362	-6.665	-6.153	-6.857	-6.258	-5.901	-5.765	-7.268	-6.645	-5.943	-6.679	-6.192	-5.510	-5.959	-5.119	-4.454	-4.701	-5.422	-5.200	-5.027	-4.823	-6.403	-6.366	-6.512	-6.548	-6.550	-6.483	-6.469	-6.169	-6.566	-6.883	-6.858	-7.011	-6.980	-6.599	-5.390	-2.134	23.42	125.6	125.1	8.550	-7.647	-7.547
590.0	-620.2	-537.4	-361.5	-293.9	-258.5	-196.2	-158.4	-128.3	-96.97	-35.18	19.89	1.867	-19.42	-39.88	58.54	557.9	249.5	-27.49	-25.72	-20.63	-20.40	-16.65	-15.38	-14.90	-13.49	-12.25	-11.70	-11.24	-11.09	-10.34	-10.74	-9.888	-8.813	-7.829	-7.936	-7.234	-6.892	-6.770	-6.798	-6.574	-6.609	-7.234	-7.163	-6.873	-6.535	-6.371	-5.905	-6.017	-5.337	-4.401	-4.714	-5.969	-5.396	-5.211	-4.865	-5.327	-6.338	-6.453	-6.690	-7.092	-6.443	-6.639	-6.937	-6.851	-6.918	-6.918	-7.053	-6.820	-6.991	-6.849	-6.045	-0.694	27.89	86.81	91.06	23.94	-6.597
595.0	-623.2	-491.6	-387.5	-304.8	-250.5	-209.3	-162.5	-119.7	-100.7	-65.55	12.97	10.23	-23.79	-44.53	-19.20	156.7	576.3	25.20	-24.36	-23.28	-20.19	-18.13	-16.46	-15.88	-14.56	-13.03	-12.25	-12.17	-11.70	-11.98	-10.88	-10.94	-9.206	-8.711	-8.764	-7.431	-8.263	-8.195	-7.152	-7.110	-7.022	-6.964	-7.117	-7.200	-6.697	-6.468	-5.635	-6.063	-5.430	-4.880	-4.721	-5.908	-5.769	-5.827	-5.622	-5.478	-6.054	-6.233	-6.653	-6.614	-6.695	-6.484	-6.921	-6.976	-7.021	-6.898	-7.268	-6.679	-6.862	-7.504	-7.139	-6.057	0.791	13.78	48.42	110.5	27.05
600.0	-551.7	-478.7	-397.2	-308.8	-239.7	-195.7	-163.3	-134.1	-111.3	-60.48	-8.796	14.24	-31.52	-46.77	-39.79	8.492	481.6	211.7	-24.70	-22.03	-21.48	-18.86	-18.28	-14.41	-14.85	-14.68	-12.97	-11.87	-11.64	-12.10	-11.63	-10.78	-9.104	-9.887	-8.841	-8.341	-8.238	-8.055	-7.259	-7.357	-7.731	-7.365	-7.113	-7.235	-6.752	-6.850	-6.057	-6.280	-6.107	-4.932	-4.774	-5.754	-5.688	-6.213	-6.076	-5.265	-5.828	-6.656	-6.787	-6.735	-7.018	-6.881	-6.968	-6.633	-7.107	-6.551	-6.819	-7.005	-7.163	-7.908	-7.236	-6.963	-5.988	-2.833	6.530	65.31	84.81
605.0	-566.9	-492.6	-398.3	-299.9	-244.2	-212.5	-162.5	-131.9	-101.5	-65.61	-26.05	12.86	-24.88	-44.52	-42.71	-27.39	212.3	455.6	-13.89	-23.59	-23.13	-20.09	-17.62	-15.42	-14.89	-14.09	-13.81	-14.05	-12.16	-12.50	-11.10	-11.29	-9.552	-9.569	-9.014	-8.476	-7.787	-7.909	-8.151	-7.778	-8.299	-8.006	-7.159	-7.543	-7.159	-7.109	-6.386	-6.259	-5.947	-5.044	-5.108	-5.793	-5.707	-6.249	-6.629	-6.079	-6.079	-6.661	-6.382	-6.689	-6.781	-6.845	-7.163	-6.956	-7.215	-6.945	-6.546	-7.211	-7.542	-7.644	-7.509	-7.619	-7.079	-6.533	-4.582	11.93	69.84
610.0	-590.6	-564.3	-428.9	-318.8	-249.5	-207.7	-168.4	-138.5	-105.1	-73.60	-42.23	-6.575	-10.01	-44.76	-42.48	-34.80	30.72	391.3	173.2	-22.50	-21.57	-19.39	-17.34	-16.26	-15.86	-14.05	-14.26	-13.00	-12.28	-12.97	-11.62	-11.36	-10.83	-9.675	-9.614	-8.515	-8.427	-8.558	-8.425	-7.959	-8.228	-7.914	-7.891	-7.733	-7.427	-7.105	-6.347	-6.532	-5.945	-4.787	-5.334	-5.922	-6.071	-6.411	-6.059	-6.226	-6.391	-6.102	-6.310	-6.682	-7.046	-7.154	-7.155	-6.999	-7.220	-6.985	-6.797	-6.757	-7.117	-7.439	-7.327	-7.571	-7.407	-7.190	-7.127	-3.474	13.15
615.0	-638.0	-545.9	-409.2	-325.4	-258.4	-197.5	-164.4	-129.5	-125.4	-83.84	-53.14	-30.31	-4.304	-38.69	-42.93	-36.98	-19.47	113.0	410.5	12.50	-22.23	-19.70	-19.34	-16.83	-15.73	-15.46	-15.06	-12.80	-13.70	-12.87	-12.32	-12.46	-11.62	-10.28	-9.579	-8.624	-8.983	-8.726	-8.244	-8.077	-7.966	-8.230	-7.979	-7.545	-7.517	-7.263	-6.262	-6.481	-5.479	-4.895	-5.385	-6.173	-6.323	-6.620	-6.147	-6.513	-7.037	-6.236	-6.454	-6.633	-6.776	-6.949	-7.358	-7.294	-6.905	-6.936	-7.009	-6.856	-7.158	-7.217	-7.695	-7.539	-7.443	-7.554	-7.664	-6.564	-3.519
620.0	-619.4	-500.3	-400.5	-327.5	-260.9	-215.7	-175.6	-137.7	-115.2	-84.35	-63.17	-46.19	-8.033	-28.34	-45.24	-36.81	-29.68	5.513	364.4	153.7	-21.74	-21.48	-18.45	-18.05	-15.78	-15.24	-14.80	-13.79	-13.31	-13.61	-12.30	-12.46	-11.30	-10.74	-9.353	-8.884	-8.768	-8.645	-8.713	-9.025	-8.223	-8.273	-8.081	-7.821	-7.633	-7.338	-6.631	-6.768	-5.923	-5.008	-5.144	-6.305	-6.430	-6.571	-6.492	-6.303	-6.811	-6.634	-6.487	-6.742	-6.466	-6.715	-7.174	-7.073	-6.958	-6.773	-7.087	-6.788	-7.030	-7.267	-7.505	-7.701	-7.717	-7.588	-7.673	-7.499	-7.241
625.0	-612.1	-516.8	-386.4	-335.4	-256.7	-214.7	-179.2	-144.8	-118.1	-99.16	-68.53	-48.13	-30.43	-19.99	-46.08	-38.70	-32.45	-22.24	162.4	298.8	-13.09	-19.68	-18.98	-17.30	-15.74	-15.41	-15.23	-14.28	-13.14	-13.63	-12.84	-12.70	-10.92	-10.68	-9.783	-9.086	-8.756	-8.139	-8.811	-8.338	-8.032	-8.312	-7.925	-7.957	-7.827	-7.763	-6.478	-6.727	-6.285	-5.215	-5.168	-6.467	-6.539	-6.437	-6.671	-6.888	-6.911	-6.941	-6.707	-6.443	-6.923	-7.288	-6.951	-7.021	-7.429	-7.249	-7.044	-6.918	-7.251	-7.514	-7.486	-7.399	-7.641	-7.263	-7.509	-7.835	-8.011
630.0	-607.4	-511.0	-390.9	-298.4	-251.5	-217.1	-176.7	-142.5	-116.1	-98.46	-77.84	-57.20	-46.07	-22.41	-35.66	-38.57	-32.51	-28.92	24.02	300.7	123.8	-19.84	-18.74	-16.48	-16.81	-15.42	-14.86	-13.76	-13.57	-13.49	-12.75	-12.60	-10.97	-10.86	-10.27	-9.152	-9.059	-8.397	-8.979	-8.341	-7.950	-8.193	-8.334	-8.038	-7.755	-7.755	-6.785	-6.431	-5.945	-5.264	-5.371	-6.259	-6.366	-6.693	-6.270	-6.776	-6.811	-6.971	-6.590	-6.842	-6.618	-6.881	-7.163	-7.116	-7.071	-7.146	-7.353	-7.007	-7.415	-7.308	-7.432	-7.383	-7.620	-7.274	-7.739	-7.898	-8.024
635.0	-665.0	-489.4	-381.0	-322.4	-248.7	-227.6	-185.3	-136.8	-120.4	-103.1	-84.23	-61.75	-55.01	-37.37	-20.34	-36.65	-29.51	-26.96	-14.54	90.75	317.0	4.267	-19.45	-17.30	-16.58	-15.83	-14.15	-14.48	-13.82	-13.52	-13.16	-12.62	-10.22	-10.98	-9.696	-9.179	-9.048	-8.488	-9.141	-8.505	-7.999	-7.815	-7.960	-8.127	-7.509	-7.423	-6.913	-6.540	-5.881	-5.211	-5.334	-6.112	-6.085	-6.621	-6.508	-6.938	-6.818	-7.031	-6.704	-6.702	-7.095	-7.000	-6.959	-7.110	-6.907	-7.031	-7.592	-7.077	-7.121	-7.120	-7.309	-7.335	-7.472	-7.905	-7.913	-8.139	-7.729
640.0	-594.3	-498.0	-391.6	-308.5	-248.4	-219.9	-189.1	-149.4	-134.9	-109.4	-85.94	-56.54	-61.96	-42.43	-18.13	-28.56	-28.92	-29.49	-24.23	6.566	291.1	111.2	-18.53	-17.51	-16.61	-15.56	-14.64	-14.75	-14.20	-13.57	-13.85	-12.77	-10.91	-10.93	-10.51	-9.337	-9.400	-8.881	-9.008	-8.558	-8.580	-8.431	-7.858	-8.358	-7.915	-7.749	-6.883	-6.825	-6.108	-5.368	-5.314	-6.587	-6.073	-6.657	-6.528	-7.006	-7.114	-6.947	-6.795	-6.853	-6.786	-7.298	-6.982	-7.199	-7.324	-7.114	-7.371	-7.281	-7.277	-7.149	-7.299	-7.370	-7.418	-7.693	-7.606	-7.762	-7.658
645.0	-574.1	-522.0	-401.5	-311.1	-242.6	-209.9	-185.5	-139.8	-137.2	-99.45	-87.42	-68.33	-58.44	-47.47	-21.91	-28.86	-31.68	-28.70	-25.88	-18.11	137.3	234.7	-12.66	-17.09	-15.94	-15.99	-14.60	-14.13	-14.23	-13.78	-12.97	-12.62	-11.69	-10.71	-10.30	-10.10	-8.723	-8.696	-8.948	-8.327	-8.885	-8.551	-8.145	-7.921	-7.935	-7.581	-7.191	-7.139	-6.126	-5.142	-5.176	-6.347	-6.228	-6.756	-6.577	-6.873	-6.772	-6.690	-6.941	-6.657	-6.832	-7.133	-6.932	-7.461	-7.155	-6.999	-7.149	-7.142	-7.355	-7.374	-7.232	-7.220	-7.349	-7.384	-7.303	-7.928	-8.082
650.0	-597.2	-552.0	-426.6	-303.2	-239.9	-225.5	-183.1	-151.3	-125.8	-108.7	-91.44	-70.22	-49.77	-52.99	-31.87	-23.59	-30.02	-29.39	-26.78	-22.81	28.56	283.6	34.67	-17.42	-17.02	-15.97	-14.64	-14.37	-14.13	-13.55	-12.01	-12.76	-11.76	-10.73	-10.09	-9.466	-9.547	-9.143	-9.128	-8.745	-8.460	-8.294	-8.509	-7.807	-7.753	-7.582	-7.458	-7.191	-6.357	-5.613	-5.240	-6.590	-6.493	-6.908	-6.878	-6.610	-6.877	-6.867	-7.002	-6.603	-6.893	-7.308	-6.943	-7.122	-6.850	-7.217	-7.668	-6.911	-7.587	-7.395	-7.363	-7.404	-6.765	-6.801	-7.610	-8.241	-8.225
