Sample:	'1
File name:	T2025031413光大水务排污口4倍.FD3
Run date:	'11:09:11, 03/17/2025
Operator:	Administrator
Comment:	'

Instrument
Model:	F-2700 FL Spectrophotometer
Serial number:	23B8-004
ROM Version:	4J14000 07

Instrument parameters
Measurement type:	3-D scan
Data mode:	Fluorescence
EX  Start WL:	220.0 nm
EX  End WL:	600.0 nm
EX Sampling interval:	5.0 nm
EM  Start WL:	230.0 nm
EM  End WL:	650.0 nm
EM Sampling interval:	5.0 nm
Scan speed:	12000 nm/min
EX Slit:	5.0 nm
EM Slit:	5.0 nm
PMT Voltage:	700 V
Response:	Auto 
Corrected spectra:	Off
Contour interval:	50.000

Peak integration
Integration method:	Rectangular
Sensitivity:	1
Threshold:	1.000

Peaks
No.	ApexEX/EM(nm)	Height(Data)
1	225.0/585.0	39.61
2	230.0/340.0	5038
3	230.0/635.0	106.9
4	235.0/255.0	329.1
5	240.0/265.0	368.8
6	240.0/525.0	317.1
7	245.0/270.0	382.5
8	250.0/275.0	476.9
9	250.0/455.0	1349
10	255.0/280.0	564.3
11	255.0/560.0	146.3
12	260.0/285.0	528.9
13	260.0/575.0	105.9
14	265.0/585.0	92.27
15	275.0/320.0	3572
16	275.0/615.0	210.9
17	280.0/315.0	3597
18	280.0/620.0	193.4
19	330.0/375.0	332.4
20	335.0/380.0	323.5
21	350.0/400.0	291.7
22	355.0/405.0	286.0
23	365.0/420.0	223.1
24	370.0/425.0	212.7
25	430.0/505.0	23.27
26	440.0/515.0	15.88
27	445.0/525.0	14.27
28	460.0/545.0	7.764
29	475.0/340.0	16.97
30	480.0/260.0	1.950
31	485.0/265.0	2.124
32	495.0/270.0	2.116
33	505.0/275.0	3.091
34	505.0/455.0	5.938
35	510.0/460.0	5.850
36	515.0/280.0	3.215
37	520.0/285.0	3.832
38	530.0/290.0	3.392
39	560.0/320.0	17.13
40	565.0/315.0	17.47

Data points
	220.0	225.0	230.0	235.0	240.0	245.0	250.0	255.0	260.0	265.0	270.0	275.0	280.0	285.0	290.0	295.0	300.0	305.0	310.0	315.0	320.0	325.0	330.0	335.0	340.0	345.0	350.0	355.0	360.0	365.0	370.0	375.0	380.0	385.0	390.0	395.0	400.0	405.0	410.0	415.0	420.0	425.0	430.0	435.0	440.0	445.0	450.0	455.0	460.0	465.0	470.0	475.0	480.0	485.0	490.0	495.0	500.0	505.0	510.0	515.0	520.0	525.0	530.0	535.0	540.0	545.0	550.0	555.0	560.0	565.0	570.0	575.0	580.0	585.0	590.0	595.0	600.0
230.0	56.26	822.5	1885	520.5	22.86	5.169	4.327	3.612	3.347	2.939	2.897	2.346	2.335	1.973	1.732	1.481	1.416	1.123	0.862	0.674	0.759	0.709	0.646	0.532	0.439	0.438	0.473	0.439	0.433	0.418	0.413	0.373	0.383	0.276	0.310	0.318	0.268	0.274	0.271	0.277	0.335	0.562	0.473	0.332	0.254	0.249	0.795	3.292	5.710	4.294	1.615	0.382	0.222	0.194	0.170	0.184	0.178	0.176	0.198	0.171	0.150	0.174	0.174	0.183	0.182	0.175	0.188	0.172	0.176	0.178	0.162	0.170	0.180	0.181	0.183	0.190	0.170
235.0	132.3	246.5	1180	1772	470.9	31.35	5.160	4.993	3.828	3.676	3.414	2.685	2.734	1.761	1.983	1.716	1.368	1.229	0.811	0.726	0.605	0.765	0.650	0.476	0.377	0.476	0.469	0.425	0.408	0.441	0.339	0.402	0.350	0.282	0.324	0.290	0.355	0.226	0.247	0.240	0.264	0.333	0.408	0.547	0.594	0.303	0.342	0.986	2.043	3.617	5.570	6.601	2.859	0.634	0.192	0.180	0.198	0.155	0.196	0.182	0.165	0.179	0.180	0.173	0.197	0.179	0.158	0.161	0.192	0.181	0.154	0.165	0.159	0.192	0.190	0.170	0.170
240.0	202.6	153.7	361.7	1473	1932	365.8	16.74	5.559	4.037	3.355	2.936	2.837	3.170	2.266	1.989	1.721	1.308	1.226	0.857	0.739	0.665	0.807	0.509	0.544	0.464	0.484	0.619	0.434	0.364	0.494	0.425	0.398	0.366	0.326	0.311	0.328	0.317	0.249	0.263	0.259	0.253	0.263	0.298	0.419	0.734	0.621	0.465	0.536	0.623	1.038	2.737	7.689	9.337	6.376	2.322	0.434	0.193	0.181	0.226	0.180	0.163	0.195	0.194	0.164	0.159	0.254	0.164	0.167	0.157	0.199	0.146	0.213	0.156	0.204	0.168	0.156	0.179
245.0	134.4	245.1	157.7	512.9	1999	1998	264.0	9.620	3.998	3.850	2.877	2.653	2.713	2.565	1.857	1.707	1.502	1.148	1.003	0.782	0.753	0.726	0.598	0.563	0.472	0.507	0.510	0.438	0.432	0.513	0.471	0.374	0.404	0.327	0.293	0.315	0.265	0.265	0.283	0.345	0.233	0.232	0.340	0.314	0.369	0.680	0.944	0.753	0.443	0.416	0.812	2.361	5.623	9.929	9.733	5.813	1.761	0.413	0.190	0.180	0.176	0.188	0.170	0.164	0.194	0.187	0.187	0.165	0.187	0.195	0.169	0.188	0.199	0.179	0.172	0.160	0.171
250.0	54.83	175.5	256.9	213.9	639.6	1984	2379	846.5	50.06	4.849	4.234	3.415	3.112	2.752	1.916	1.851	1.739	1.219	1.003	0.839	0.748	0.722	0.757	0.591	0.486	0.499	0.541	0.479	0.403	0.509	0.474	0.368	0.393	0.339	0.333	0.360	0.278	0.253	0.281	0.321	0.239	0.248	0.324	0.259	0.244	0.376	0.484	0.847	0.916	0.804	0.609	0.772	1.501	3.058	5.392	8.932	12.35	18.45	6.130	1.779	0.304	0.205	0.175	0.201	0.200	0.184	0.178	0.213	0.159	0.199	0.178	0.171	0.206	0.197	0.215	0.183	0.206
255.0	33.58	55.91	178.2	329.1	242.6	507.9	1722	3464	1239	43.69	5.555	4.751	4.035	2.638	2.243	1.768	1.824	1.260	0.950	0.880	0.766	0.930	0.808	0.583	0.571	0.596	0.505	0.484	0.423	0.579	0.535	0.394	0.465	0.340	0.332	0.300	0.269	0.265	0.291	0.409	0.259	0.285	0.308	0.267	0.247	0.278	0.291	0.351	0.443	0.748	1.264	1.452	0.855	0.924	1.408	2.245	4.267	15.18	16.72	17.27	9.558	2.182	0.280	0.201	0.199	0.205	0.175	0.232	0.187	0.235	0.168	0.192	0.188	0.177	0.213	0.176	0.196
260.0	32.03	26.97	72.86	278.7	319.9	171.7	514.1	2699	3996	247.3	22.25	6.154	4.542	3.407	2.706	1.935	1.739	1.395	0.976	0.916	0.842	0.969	0.829	0.639	0.549	0.595	0.540	0.560	0.474	0.518	0.478	0.436	0.475	0.332	0.331	0.328	0.319	0.309	0.351	0.321	0.240	0.277	0.286	0.246	0.276	0.187	0.243	0.269	0.250	0.378	0.769	1.670	1.950	1.127	0.647	0.716	1.180	3.943	6.293	14.22	22.16	19.01	7.532	1.281	0.239	0.216	0.209	0.219	0.188	0.220	0.184	0.174	0.165	0.204	0.213	0.206	0.200
265.0	29.80	20.47	29.94	128.3	368.8	254.0	152.9	891.6	3796	3593	194.6	12.24	5.649	4.294	3.469	2.475	2.094	1.625	1.290	1.011	0.889	0.999	0.860	0.645	0.583	0.681	0.576	0.581	0.501	0.443	0.457	0.508	0.496	0.416	0.344	0.398	0.365	0.267	0.329	0.353	0.255	0.297	0.298	0.268	0.273	0.214	0.232	0.245	0.238	0.248	0.333	0.780	1.647	2.124	1.628	0.747	0.537	1.129	1.681	3.965	10.42	20.24	26.24	18.62	5.058	0.587	0.222	0.250	0.207	0.216	0.242	0.195	0.183	0.189	0.217	0.211	0.214
270.0	40.34	23.92	24.37	44.45	175.3	382.5	280.2	252.6	1159	3211	3613	769.4	47.22	6.647	4.708	3.081	2.548	1.814	1.456	1.158	1.107	1.287	0.853	0.700	0.608	0.612	0.607	0.608	0.563	0.497	0.502	0.574	0.510	0.373	0.374	0.364	0.339	0.297	0.345	0.352	0.291	0.284	0.307	0.317	0.266	0.270	0.245	0.253	0.231	0.218	0.247	0.342	0.613	1.076	1.652	2.116	1.893	1.272	0.806	1.164	2.594	5.593	10.92	19.04	23.18	23.11	13.34	7.227	0.627	0.293	0.229	0.231	0.209	0.217	0.204	0.250	0.219
275.0	64.74	50.10	34.57	30.65	61.67	172.3	476.9	317.7	302.2	796.7	2581	6163	1090	48.72	6.944	4.082	3.644	2.341	1.664	1.320	1.306	1.496	0.943	0.704	0.683	0.635	0.698	0.674	0.612	0.522	0.523	0.606	0.534	0.436	0.443	0.480	0.408	0.376	0.336	0.385	0.350	0.373	0.388	0.340	0.288	0.267	0.334	0.281	0.342	0.248	0.224	0.269	0.370	0.463	0.640	0.935	1.778	3.091	2.457	1.215	0.908	1.565	2.777	4.612	6.329	12.31	24.58	57.35	20.74	5.895	0.418	0.271	0.238	0.257	0.202	0.225	0.236
280.0	87.09	73.32	55.35	39.11	38.55	74.94	274.1	564.3	244.0	220.8	723.9	3937	5953	808.6	23.70	5.761	4.404	2.926	1.904	1.644	1.404	1.556	0.952	0.900	0.850	0.707	0.592	0.620	0.698	0.601	0.615	0.590	0.627	0.472	0.535	0.618	0.560	0.425	0.391	0.395	0.342	0.341	0.365	0.374	0.399	0.335	0.379	0.373	0.373	0.252	0.246	0.273	0.315	0.352	0.383	0.467	0.835	1.753	3.136	3.215	1.702	0.894	1.004	1.367	1.762	3.200	7.754	30.27	32.12	32.17	15.82	3.202	0.366	0.308	0.209	0.291	0.232
285.0	126.3	114.0	83.28	52.24	36.78	49.76	111.5	434.3	528.9	161.5	230.3	1139	4578	5882	120.0	11.42	5.945	3.235	2.458	1.751	1.732	1.587	1.233	0.840	0.890	0.744	0.703	0.690	0.552	0.667	0.669	0.572	0.630	0.543	0.600	0.742	0.549	0.500	0.452	0.481	0.352	0.453	0.403	0.489	0.479	0.460	0.459	0.470	0.413	0.343	0.294	0.336	0.371	0.341	0.346	0.335	0.518	0.740	1.330	2.784	3.832	2.325	1.063	0.733	0.821	1.199	2.214	7.613	10.92	26.96	34.29	28.27	14.91	1.741	0.323	0.323	0.288
290.0	184.2	181.8	135.5	83.55	58.88	54.82	74.11	183.5	481.4	474.1	205.7	366.4	1283	4172	5154	1696	33.93	6.033	3.201	2.231	1.878	1.944	1.475	1.011	0.894	0.878	0.699	0.762	0.648	0.683	0.628	0.694	0.594	0.673	0.714	0.787	0.620	0.554	0.567	0.522	0.469	0.553	0.549	0.558	0.594	0.660	0.581	0.657	0.564	0.453	0.399	0.465	0.394	0.400	0.365	0.364	0.492	0.565	0.710	1.126	1.979	2.724	3.392	2.895	1.581	1.018	1.196	2.376	3.130	6.993	11.47	22.24	36.19	33.04	19.51	9.675	1.694
295.0	272.8	312.2	263.4	164.7	121.6	111.3	131.7	174.2	295.6	611.6	781.6	399.9	441.6	1117	2453	6734	694.4	42.44	6.039	3.263	2.233	2.475	1.746	1.132	0.926	0.905	0.841	0.855	0.783	0.725	0.744	0.654	0.679	0.699	0.787	0.845	0.717	0.702	0.661	0.650	0.656	0.659	0.658	0.722	0.733	0.784	0.887	1.026	0.925	0.633	0.594	0.752	0.658	0.591	0.658	0.644	0.738	0.854	0.879	1.044	1.286	1.598	2.178	3.565	4.796	3.933	2.072	1.820	1.877	2.894	3.643	5.900	9.203	12.24	22.53	43.69	30.06
300.0	476.4	557.6	494.3	351.6	286.2	291.3	356.2	353.3	645.3	942.3	1509	1243	927.5	882.3	1121	4197	5692	561.3	30.64	5.068	3.082	3.135	2.160	1.472	1.176	1.116	1.097	0.997	0.841	0.988	0.736	0.719	0.873	0.782	0.973	0.990	1.041	1.083	0.903	0.839	0.940	0.975	0.917	1.086	1.196	1.301	1.588	1.674	1.713	1.309	1.130	1.350	1.142	1.299	1.368	1.279	1.559	1.952	2.113	2.306	2.647	2.982	3.802	4.881	6.006	7.424	7.569	5.508	5.216	4.884	4.428	4.541	5.289	6.029	8.600	20.78	38.03
305.0	832.8	1001	964.2	685.1	549.6	534.4	828.7	1075	1467	1942	2505	2994	2325	1737	1585	2074	5624	4582	392.8	12.96	4.600	4.174	2.758	1.921	1.431	1.200	1.211	1.117	0.962	1.180	0.878	0.867	0.956	0.885	1.164	1.347	1.255	1.569	1.407	1.477	1.404	1.498	1.572	1.767	1.925	2.357	2.737	2.941	3.154	2.461	2.056	2.372	2.355	2.202	2.428	2.605	3.252	3.928	4.708	5.075	5.868	6.783	8.040	9.440	10.19	11.52	13.58	13.62	13.17	10.95	9.477	8.838	8.626	9.273	8.731	10.53	15.42
310.0	1230	1547	1503	1085	874.0	894.9	1187	1515	1886	2417	2928	3455	3384	2550	2077	1723	2618	3519	3584	1166	26.58	6.299	3.732	2.404	1.746	1.531	1.392	1.362	1.166	1.119	1.026	1.050	1.074	1.036	1.314	1.663	1.463	1.776	1.832	1.830	1.777	1.912	1.954	2.300	2.781	3.332	3.691	4.337	4.600	3.855	3.259	3.656	3.595	3.251	3.538	3.689	4.669	5.642	6.538	7.135	7.660	8.522	10.24	11.67	12.48	13.11	14.53	15.78	16.81	16.57	14.71	12.58	11.39	12.21	10.26	9.640	9.623
315.0	1527	2146	2005	1483	1179	1128	1409	1744	2047	2611	3126	3570	3597	3253	2494	1806	1888	1521	1756	4037	507.0	32.04	5.210	3.215	2.171	1.822	1.639	1.321	1.366	1.242	1.134	1.154	1.082	1.289	1.484	1.738	1.687	1.792	1.889	1.874	2.287	2.255	2.395	2.630	3.335	4.189	4.918	5.926	6.107	5.157	4.340	4.820	4.439	4.149	4.705	4.526	5.738	6.706	7.469	8.149	8.365	9.183	11.23	12.57	13.60	14.23	15.23	16.61	17.06	17.47	17.14	16.48	15.05	13.90	11.81	10.22	9.415
320.0	1778	2422	2343	1718	1308	1237	1503	1789	2062	2598	3142	3572	3546	3309	2854	1902	1733	1081	586.6	2232	4102	466.5	15.68	3.856	2.560	2.220	1.693	1.609	1.453	1.325	1.072	1.213	0.988	1.137	1.378	1.667	1.831	1.759	2.010	2.048	2.151	2.205	2.540	2.909	3.723	4.603	5.674	6.986	6.767	5.489	5.021	5.601	5.012	4.551	5.113	4.820	6.226	7.295	7.783	8.472	8.717	9.175	10.96	12.34	13.12	14.29	15.31	16.39	17.13	16.52	16.69	16.46	16.61	15.40	13.13	10.67	9.886
325.0	1967	2712	2774	2057	1430	1273	1470	1745	1925	2374	2874	3325	3317	3013	2805	1977	1608	944.4	326.1	644.5	3105	3904	61.08	8.217	3.075	2.308	1.957	1.719	1.459	1.534	1.198	1.252	1.145	1.000	1.350	1.696	1.854	1.709	2.008	2.024	2.139	2.331	2.667	3.210	4.051	5.495	6.382	7.676	7.732	6.562	6.143	6.365	5.697	4.845	5.084	5.111	6.000	6.825	7.604	8.174	7.876	8.577	10.08	10.98	12.27	13.18	14.11	14.43	15.98	15.56	15.16	14.98	14.86	15.78	13.82	11.58	9.643
330.0	2316	3361	3724	3142	2274	1588	1459	1642	1744	2114	2573	2993	3056	2791	2494	2031	1648	935.5	358.1	300.7	906.3	3284	3537	980.5	21.05	3.722	2.656	2.154	1.693	1.644	1.305	1.420	1.316	1.135	1.309	1.690	1.768	1.622	1.881	2.188	2.244	2.519	2.950	3.645	4.686	6.092	7.529	9.474	10.21	9.465	9.170	10.14	8.982	7.712	6.676	5.619	6.093	6.738	7.156	7.339	7.306	8.085	8.881	10.13	10.74	11.70	12.64	13.50	14.44	14.41	14.28	14.16	13.52	14.09	13.00	12.15	10.92
335.0	2667	4040	4884	4711	3736	2264	1594	1618	1650	1948	2382	2803	2925	2749	2424	1956	1830	1167	519.2	354.1	421.6	914.7	1922	3585	412.5	22.51	3.579	2.772	2.034	1.869	1.393	1.534	1.483	1.097	1.391	1.702	1.698	1.771	1.921	2.200	2.277	2.721	3.304	3.914	5.255	7.170	9.066	11.24	12.98	13.02	12.87	15.76	14.51	13.14	9.889	6.958	6.785	6.846	7.200	7.183	7.083	7.649	8.327	9.407	10.03	10.86	11.65	12.90	14.11	14.15	13.80	13.64	13.13	13.41	12.30	11.39	11.17
340.0	2666	4087	5038	4938	3994	2338	1524	1510	1494	1741	2114	2494	2633	2516	2218	1786	1620	1239	596.6	378.5	324.0	383.8	619.4	2144	2993	340.7	9.813	3.172	2.388	2.157	1.687	1.525	1.383	1.189	1.318	1.672	1.541	1.572	1.855	2.080	2.405	2.800	3.246	3.778	5.300	7.186	8.779	11.61	13.50	13.64	13.66	16.97	15.46	13.86	10.44	7.284	6.730	6.674	6.489	6.721	6.583	6.654	7.407	8.389	9.051	9.805	10.45	11.39	12.72	12.86	12.62	12.19	12.50	12.48	11.43	10.35	10.08
345.0	2498	3806	4715	4734	3754	2177	1382	1336	1304	1518	1827	2137	2267	2184	1933	1557	1336	1098	682.8	384.4	291.3	262.8	286.6	655.1	2370	2511	52.09	5.401	2.814	2.268	1.664	1.743	1.742	1.225	1.353	1.523	1.562	1.585	1.865	2.004	2.167	2.530	2.881	3.802	4.912	6.542	8.030	10.60	12.66	12.49	13.14	15.64	14.85	12.88	9.771	6.656	6.043	5.933	6.064	5.840	5.557	6.127	6.070	7.616	7.669	8.142	8.964	9.932	11.04	10.86	10.76	11.16	11.01	10.63	9.794	8.935	9.040
350.0	2259	3478	4409	4587	3765	2138	1273	1160	1135	1287	1552	1811	1923	1887	1691	1382	1168	907.1	692.3	502.7	320.4	255.8	234.3	263.7	674.9	1809	2458	835.5	16.35	2.931	2.057	1.928	1.757	1.189	1.334	1.610	1.421	1.454	1.600	1.791	1.977	2.341	2.806	3.591	4.336	5.914	7.492	9.928	11.68	11.80	12.61	15.22	14.52	12.85	9.402	6.361	5.487	5.243	5.415	5.258	5.079	5.279	5.678	6.240	6.499	7.373	7.686	8.171	9.202	9.358	9.414	9.555	9.479	9.449	8.644	8.247	7.919
355.0	1939	3015	3946	4190	3510	2025	1168	1018	981.5	1092	1291	1504	1607	1593	1445	1199	1018	786.5	573.1	542.5	417.6	265.8	227.2	187.0	207.0	439.1	1387	3211	367.9	17.53	2.750	2.277	2.043	1.249	1.370	1.473	1.246	1.391	1.437	1.584	1.782	2.060	2.526	3.265	4.051	5.159	6.433	9.102	10.34	10.76	11.47	13.98	13.70	12.54	9.147	5.905	4.981	4.773	4.716	4.620	4.471	4.631	5.029	5.128	5.513	6.184	6.481	7.021	7.915	7.567	8.241	8.277	8.542	8.042	7.258	6.795	6.771
360.0	1668	2598	3403	3615	3047	1773	1025	894.8	850.8	939.3	1086	1257	1349	1335	1222	1023	866.4	684.4	492.3	448.7	457.5	297.6	219.6	163.0	110.8	132.9	363.9	2131	2749	312.3	6.522	2.918	2.398	1.423	1.281	1.713	1.302	1.233	1.287	1.556	1.547	1.732	2.280	2.665	3.410	4.343	5.615	7.346	8.817	9.051	9.787	11.77	11.92	10.49	7.807	5.370	4.328	4.170	4.201	3.807	3.981	3.629	4.450	4.299	4.828	5.042	5.673	6.024	6.414	6.463	6.816	6.656	6.984	6.744	6.293	6.030	5.641
365.0	1459	2201	2914	3090	2651	1562	904.1	779.5	755.8	813.8	956.2	1075	1157	1135	1039	886.9	758.4	600.3	443.8	378.7	408.3	363.3	230.9	156.3	95.97	72.55	109.2	598.0	2430	2689	46.67	4.977	2.875	1.641	1.487	1.602	1.153	1.236	1.309	1.504	1.424	1.637	2.135	2.523	2.857	3.859	4.808	6.424	7.211	7.871	8.627	10.50	10.22	9.368	7.101	4.724	4.046	3.677	3.646	3.442	3.427	3.455	3.675	3.963	4.223	4.344	4.634	5.184	5.508	5.596	5.956	5.629	6.224	6.002	5.393	5.122	5.200
370.0	1218	1831	2419	2615	2309	1383	809.2	700.5	670.9	716.0	818.8	920.2	985.1	963.5	889.3	762.1	661.1	542.1	417.5	348.6	328.6	354.5	312.7	188.7	108.0	76.71	67.33	169.9	693.0	2225	2093	891.4	16.92	2.959	1.992	1.846	1.271	1.320	1.161	1.406	1.407	1.502	1.709	2.155	2.552	3.262	3.982	5.487	6.319	6.649	7.154	8.681	8.835	8.339	6.226	4.270	3.582	3.426	3.353	3.078	3.031	3.052	3.200	3.591	3.711	3.750	4.066	4.239	4.579	4.870	5.081	4.983	5.085	4.930	4.925	4.645	4.653
375.0	1026	1512	1962	2150	1935	1217	727.0	632.5	614.3	637.3	732.7	801.4	875.0	834.8	744.5	650.8	571.5	482.6	393.9	335.1	301.9	291.2	332.4	277.7	147.7	107.7	103.8	117.7	210.2	560.1	1344	3650	332.3	15.64	2.962	2.326	1.453	1.285	1.073	1.317	1.265	1.351	1.523	1.827	2.205	2.814	3.322	4.414	5.240	5.499	5.711	7.569	7.197	7.046	5.363	3.772	3.329	2.967	3.102	3.023	2.612	2.761	2.941	2.895	3.285	3.268	3.613	3.956	4.179	4.248	4.853	4.197	4.509	4.147	4.257	4.114	3.848
380.0	886.6	1256	1608	1827	1679	1101	681.3	588.8	559.5	592.2	682.3	730.9	812.2	764.5	658.6	575.4	506.7	441.4	372.6	328.0	295.3	271.6	294.2	323.5	211.6	136.3	138.7	132.1	124.7	196.5	426.1	2469	2715	232.2	6.686	2.887	1.528	1.261	1.185	1.410	1.283	1.223	1.478	1.569	2.010	2.385	2.956	3.957	4.344	4.807	4.891	6.271	6.193	6.244	5.052	3.687	3.033	2.975	2.627	2.715	2.483	2.680	2.741	2.855	2.963	3.163	3.289	3.610	3.453	4.039	4.222	3.910	3.982	3.850	3.563	3.608	3.463
385.0	771.3	1125	1431	1572	1504	1025	658.0	562.6	522.9	559.3	636.8	678.1	758.5	700.8	588.9	524.7	467.5	408.3	355.4	321.8	291.6	269.2	266.9	300.5	277.0	175.0	160.2	152.9	118.2	125.3	195.0	761.8	2929	1641	38.42	4.672	2.029	1.448	1.409	1.293	1.311	1.194	1.452	1.571	1.846	2.245	2.500	3.374	3.618	4.110	4.260	5.653	5.609	5.560	4.350	3.206	3.072	2.667	2.579	2.676	2.489	2.439	2.577	2.675	2.954	3.163	3.137	3.215	3.223	3.773	3.968	3.602	3.392	3.545	3.381	3.310	3.203
390.0	678.7	950.2	1240	1343	1291	943.0	642.0	551.5	504.7	517.8	574.2	606.7	666.7	617.5	521.1	471.3	426.8	381.7	340.1	309.9	287.0	267.3	257.0	257.3	267.9	242.8	185.8	155.1	119.0	108.4	130.6	245.0	846.5	1363	1823	871.4	11.23	1.861	1.401	1.453	1.370	1.169	1.373	1.475	1.611	1.950	2.248	2.901	3.362	3.508	3.730	4.752	5.013	5.041	3.985	3.125	2.841	2.639	2.563	2.519	2.402	2.320	2.360	2.533	2.702	2.892	2.769	2.945	3.097	3.322	3.437	3.176	3.197	3.181	3.063	2.960	2.894
395.0	611.9	851.3	1058	1171	1145	882.3	662.9	546.7	497.1	497.0	541.3	561.6	612.9	563.6	481.4	432.0	391.7	360.3	331.3	303.6	287.9	272.7	260.8	252.3	235.1	258.1	258.5	184.0	138.6	121.8	128.1	138.5	229.2	333.3	1140	3693	255.6	10.60	1.857	1.638	1.465	1.163	1.326	1.231	1.639	1.690	2.020	2.398	2.773	3.030	3.342	4.207	4.370	4.233	3.757	3.224	2.927	2.663	2.454	2.555	2.276	2.058	2.303	2.423	2.449	2.624	2.578	2.819	2.901	3.120	2.985	2.887	2.895	2.793	2.628	2.920	2.787
400.0	581.6	790.1	978.2	1074	1059	875.8	664.3	545.1	504.2	496.6	540.9	549.5	591.5	548.3	459.5	407.9	376.2	345.1	323.5	301.1	289.6	276.2	269.5	258.5	236.1	243.6	291.7	239.7	159.1	139.1	145.7	132.7	99.91	98.94	304.2	2347	1733	196.8	4.597	1.975	1.402	1.255	1.246	1.444	1.448	1.599	1.968	2.234	2.529	2.751	2.831	3.893	4.155	4.012	3.580	3.054	2.921	2.677	2.483	2.469	2.368	2.399	2.329	2.217	2.398	2.644	2.510	2.642	3.014	3.114	2.804	2.791	2.876	2.443	2.596	2.737	2.657
405.0	557.8	723.0	899.1	982.3	1006	848.1	672.5	567.9	502.4	484.6	529.4	534.9	580.3	529.8	442.5	393.3	363.3	335.2	314.5	295.6	285.4	277.2	273.5	264.5	245.1	234.6	276.1	286.0	190.2	153.9	158.0	135.9	76.67	51.33	86.75	647.9	1533	1284	33.35	3.044	1.828	1.343	1.370	1.478	1.578	1.638	1.793	2.279	2.565	2.530	2.616	3.654	3.784	3.859	3.319	3.085	2.954	2.714	2.666	2.469	2.339	2.328	2.261	2.273	2.356	2.491	2.439	2.588	2.757	3.120	2.807	2.873	2.468	2.309	2.460	2.612	2.529
410.0	522.0	674.4	819.8	918.6	944.8	839.9	695.4	588.1	500.5	475.1	504.1	505.9	535.0	490.3	420.2	375.9	348.3	322.1	306.7	291.3	278.5	270.5	269.5	263.1	247.1	232.3	242.5	262.0	235.4	173.9	152.1	127.9	74.51	46.22	42.53	161.4	429.5	1042	1221	436.4	11.07	1.687	1.419	1.383	1.397	1.536	1.661	2.146	2.372	2.280	2.531	3.259	3.501	3.556	3.387	3.053	3.079	2.888	2.784	2.579	2.331	2.282	2.248	2.179	2.189	2.353	2.384	2.360	2.574	2.772	2.578	2.576	2.467	2.318	2.325	2.473	2.345
415.0	479.9	648.7	767.2	846.0	903.8	825.8	725.2	621.5	509.7	469.2	476.6	483.0	492.2	450.3	397.9	360.4	334.1	313.4	295.3	282.0	270.6	260.6	258.5	257.6	242.4	229.7	226.8	224.3	226.5	213.3	158.2	122.9	77.03	50.26	38.15	56.61	109.9	249.5	731.5	1856	242.1	9.735	1.916	1.753	1.465	1.574	1.661	1.958	2.219	2.175	2.345	2.984	3.353	3.525	3.433	3.088	3.038	3.137	2.970	2.666	2.670	2.286	2.125	2.045	2.215	2.228	2.200	2.444	2.289	2.561	2.346	2.475	2.259	2.241	2.391	2.324	2.260
420.0	480.0	612.1	746.7	817.9	848.6	823.7	754.5	641.0	534.3	466.6	460.6	464.0	468.5	439.4	390.7	352.9	326.4	306.2	291.6	279.4	262.9	254.8	250.6	249.2	241.0	228.3	223.2	214.5	204.6	223.1	187.4	128.9	83.20	57.80	41.30	36.60	41.06	67.03	192.7	1290	1566	184.1	7.039	1.752	1.632	1.652	1.564	1.870	2.109	2.058	2.354	2.832	3.193	3.392	3.348	3.261	3.473	3.726	3.192	2.852	2.812	2.297	2.167	2.076	2.026	2.296	2.161	2.402	2.293	2.511	2.221	2.298	2.125	1.992	2.203	2.119	2.308
425.0	476.3	605.9	722.5	816.1	862.6	856.8	815.0	698.9	563.3	472.5	456.4	454.5	452.4	428.9	381.4	349.3	325.1	305.4	294.8	280.8	257.8	246.3	245.0	243.9	238.1	226.5	224.6	215.0	197.3	206.7	212.7	147.5	92.08	64.33	46.62	36.62	28.35	28.42	52.26	367.7	1284	1069	33.91	2.487	1.775	1.704	1.738	1.928	2.085	1.979	2.144	2.942	3.047	3.451	3.298	3.603	3.792	3.645	3.354	3.246	2.915	2.528	2.071	2.192	1.992	2.170	2.072	2.154	2.103	2.335	2.284	2.198	2.206	2.042	2.170	2.105	2.309
430.0	576.8	607.0	712.6	811.6	903.8	930.0	908.9	805.5	625.3	493.7	447.8	438.2	443.6	420.3	379.8	353.2	337.9	317.4	303.6	283.5	257.4	239.4	239.2	240.9	235.4	227.7	225.6	218.0	200.0	193.4	203.1	180.9	115.8	77.06	57.65	43.22	31.66	23.76	23.73	91.24	346.2	794.8	1065	133.9	9.460	2.202	1.915	2.161	2.100	2.051	2.279	2.901	3.259	3.430	3.717	3.805	4.286	3.825	3.930	3.460	3.093	2.761	2.376	2.240	2.125	2.070	2.015	2.068	2.129	2.285	2.215	2.236	2.190	2.138	2.233	2.142	2.310
435.0	1001	641.8	697.9	815.4	958.3	1041	1057	929.1	706.8	518.5	442.9	421.3	430.5	415.6	379.7	367.2	351.9	328.7	319.9	294.0	255.7	233.0	232.0	232.0	228.8	228.0	224.6	220.2	207.1	195.1	187.6	181.2	151.2	97.70	68.77	52.14	38.54	27.91	21.26	31.25	84.85	187.4	555.2	1238	219.3	14.16	2.304	2.438	2.234	2.231	2.435	2.946	3.510	3.548	3.806	4.141	4.893	4.467	4.658	4.220	3.519	3.161	2.772	2.465	2.125	2.102	1.753	1.823	2.045	2.445	2.096	2.159	2.320	2.298	2.362	2.288	2.236
440.0	1432	733.0	725.5	845.7	1014	1136	1169	1030	766.5	543.8	444.6	412.8	427.2	410.6	387.8	380.4	361.5	341.6	330.5	299.4	252.4	225.7	221.6	227.0	225.1	226.3	224.4	220.8	210.2	199.5	186.1	170.8	162.5	122.3	79.56	60.00	43.48	31.86	23.02	20.09	28.32	48.74	143.1	849.6	1082	203.4	6.785	2.830	2.398	2.315	2.356	3.279	3.632	3.834	4.046	4.437	4.953	4.833	4.926	4.444	3.896	3.491	2.707	2.401	2.219	2.025	2.004	1.934	2.122	2.304	2.132	2.334	2.283	2.388	2.306	2.460	2.422
445.0	1576	952.4	733.2	857.2	1050	1191	1265	1120	819.9	554.1	435.0	407.1	414.3	406.3	382.5	377.2	369.6	358.0	335.1	302.9	248.4	218.3	213.3	219.4	221.6	222.2	223.4	219.3	211.9	204.3	189.7	166.9	152.5	139.3	94.67	65.30	48.32	35.25	24.80	18.92	16.88	18.77	38.52	237.8	850.9	1120	28.51	4.542	2.519	2.260	2.529	3.240	3.589	3.961	4.242	4.582	5.189	5.270	5.215	4.691	4.073	3.669	2.839	2.217	2.162	1.985	1.925	1.940	2.013	2.130	2.212	2.207	2.329	2.374	2.418	2.403	2.592
450.0	1151	1478	871.5	861.2	1059	1225	1326	1189	856.2	558.4	417.9	384.2	394.0	393.2	374.8	374.4	369.3	358.4	341.1	300.4	242.8	205.5	199.1	207.5	208.8	212.6	214.5	213.5	210.8	203.0	190.3	166.4	142.2	132.8	114.1	79.15	53.27	39.05	28.96	21.56	16.94	14.15	16.19	59.04	227.4	723.0	867.2	420.7	10.14	2.697	2.606	3.367	3.826	4.055	4.619	4.855	5.437	5.834	5.449	5.070	4.234	3.759	2.903	2.320	2.045	1.967	1.921	1.922	1.932	2.019	2.197	2.154	2.140	2.287	2.346	2.293	2.482
455.0	670.1	1556	1251	852.5	1050	1240	1349	1213	877.7	552.5	398.9	366.9	372.0	374.1	359.9	365.1	362.0	348.0	335.3	293.0	229.0	190.6	183.4	188.8	194.2	199.6	204.0	204.8	202.4	196.3	185.2	165.3	138.2	118.5	110.3	96.09	62.31	42.64	32.11	24.17	18.82	15.07	12.25	19.82	56.08	168.2	390.8	1208	197.1	12.44	2.899	3.520	3.678	4.199	4.775	4.816	5.465	5.938	5.598	5.041	4.354	3.499	2.985	2.240	2.027	1.912	1.868	1.890	1.981	1.961	2.093	1.974	2.096	2.343	2.424	2.255	2.498
460.0	528.8	1163	1803	891.7	1012	1222	1335	1193	859.2	536.2	377.8	343.8	345.8	353.4	345.5	350.1	345.8	336.6	324.4	280.0	215.9	180.1	170.4	175.3	183.2	185.8	195.0	198.9	195.1	189.7	177.1	158.4	133.4	113.4	98.10	97.05	73.40	46.74	33.12	25.97	19.40	16.06	12.23	12.04	18.32	42.43	96.44	612.3	1003	160.8	10.14	3.509	3.540	4.096	4.530	4.664	5.634	5.731	5.850	5.336	4.247	3.412	2.849	2.318	1.987	1.797	1.671	1.650	1.776	1.837	1.946	1.987	2.024	2.095	2.167	2.411	2.401
465.0	473.3	803.8	1892	1199	985.4	1174	1294	1171	816.3	512.4	353.9	322.9	327.7	329.6	328.1	329.8	330.4	322.6	307.7	266.9	202.6	167.4	158.4	163.2	170.0	174.1	179.3	183.3	184.8	181.3	168.0	150.3	128.4	107.2	90.80	85.17	78.40	53.13	34.42	26.60	20.71	16.44	13.32	11.15	10.38	14.65	25.80	156.0	674.8	875.0	146.5	6.141	3.813	3.941	4.308	4.399	5.415	5.685	5.451	4.896	4.259	3.368	2.866	2.268	1.824	1.704	1.476	1.612	1.658	1.668	1.826	1.860	1.705	1.994	1.875	2.240	2.183
470.0	451.9	594.8	1250	1707	1034	1093	1180	1067	753.9	466.0	319.3	291.8	296.7	296.9	294.0	300.8	300.3	292.1	280.0	239.9	182.5	146.9	141.3	145.2	151.3	156.6	162.2	164.3	168.0	164.0	153.9	140.0	119.2	101.1	84.50	71.86	67.71	59.67	40.40	27.33	21.15	17.09	13.68	10.94	9.127	8.706	9.986	38.68	170.5	509.4	790.4	357.2	13.77	4.032	4.161	4.142	5.056	5.229	5.032	4.451	3.933	3.188	2.401	1.993	1.702	1.539	1.427	1.466	1.447	1.556	1.663	1.750	1.640	1.916	1.817	2.064	2.057
475.0	453.6	475.8	707.9	1599	1513	982.6	1057	955.2	674.7	413.4	288.0	262.3	263.7	266.6	264.5	268.0	266.6	259.4	246.4	212.2	161.9	129.6	123.2	128.2	132.1	139.5	141.7	147.2	148.6	147.9	138.8	127.2	108.5	94.08	77.82	64.97	55.73	52.63	47.93	31.40	21.77	17.04	13.60	10.99	9.394	7.805	6.761	12.66	41.31	117.0	271.0	789.0	207.1	18.76	3.903	3.907	4.557	4.894	4.679	3.853	3.350	2.703	2.311	1.704	1.589	1.395	1.349	1.415	1.461	1.348	1.569	1.607	1.394	1.609	1.489	1.707	1.751
480.0	443.1	458.2	539.9	1146	1948	1029	977.6	875.9	613.8	379.0	263.5	240.5	237.9	243.2	244.0	244.4	244.0	237.2	226.3	193.9	147.0	117.2	112.4	116.2	118.3	125.5	128.8	134.0	136.2	135.8	128.5	116.4	103.1	87.23	72.21	60.83	50.48	44.29	45.91	37.05	23.31	17.13	13.82	11.43	9.602	8.049	6.705	6.899	12.73	29.08	64.64	340.3	816.5	196.8	13.03	3.935	4.230	4.497	4.149	3.737	3.290	2.597	2.305	1.596	1.635	1.342	1.253	1.281	1.269	1.345	1.324	1.466	1.367	1.353	1.407	1.617	1.774
485.0	375.6	480.0	456.4	735.0	1911	1320	895.2	800.8	559.7	355.8	243.4	223.8	222.4	221.2	219.5	224.8	222.3	217.5	207.2	180.7	133.8	108.0	103.6	105.3	108.4	115.4	117.8	123.4	126.4	126.0	119.9	109.4	95.62	80.46	69.49	57.93	47.00	40.13	39.42	39.48	27.03	17.72	13.87	11.54	9.505	8.125	7.047	5.726	6.520	9.800	17.34	84.48	462.2	658.9	158.8	7.910	4.102	4.218	4.072	3.433	3.184	2.691	2.056	1.740	1.540	1.314	1.199	1.251	1.165	1.245	1.351	1.340	1.390	1.341	1.407	1.570	1.771
490.0	303.0	460.2	424.0	524.8	1263	1844	951.3	715.6	507.3	320.2	221.4	198.9	198.1	197.5	197.9	200.3	199.7	195.3	184.7	160.9	119.9	95.66	92.83	94.05	97.30	102.4	106.9	110.6	113.1	112.6	107.4	98.33	86.65	74.52	62.66	53.09	44.27	36.04	31.86	33.81	31.44	21.70	14.53	11.62	9.979	8.471	7.182	6.281	5.423	5.411	6.998	22.01	113.3	305.0	567.8	306.0	16.25	4.224	3.792	3.109	2.638	2.298	1.858	1.521	1.334	1.093	1.068	1.129	1.107	1.127	1.228	1.175	1.214	1.307	1.318	1.359	1.573
495.0	251.1	407.8	422.0	426.3	700.9	1709	1444	627.9	444.6	280.8	197.8	174.7	176.5	176.1	175.7	176.4	173.4	172.3	159.5	137.2	105.6	83.81	81.43	82.51	86.05	88.96	93.55	97.09	96.95	98.89	94.02	87.61	76.22	66.53	56.18	48.55	40.78	32.70	28.43	26.12	27.92	26.31	17.34	12.24	10.06	8.503	7.450	6.367	5.777	4.610	4.604	7.844	28.14	71.17	191.2	595.6	561.1	21.54	3.582	2.946	2.343	2.127	1.645	1.396	1.305	1.004	1.000	1.052	1.017	1.104	1.038	1.126	1.062	1.118	1.221	1.124	1.245
500.0	227.3	327.6	411.6	379.9	494.7	1169	1908	668.8	388.9	253.4	183.9	160.2	156.2	157.8	153.4	153.9	154.4	150.6	142.3	121.9	93.07	74.90	70.90	74.68	76.66	79.64	83.69	87.03	86.99	88.08	83.84	77.17	68.98	59.45	51.60	44.68	37.49	30.00	26.09	23.46	22.44	26.01	21.19	12.81	10.03	8.302	7.150	6.365	5.748	4.691	4.215	4.859	9.339	18.88	46.34	229.7	828.6	221.1	18.36	2.956	2.095	1.910	1.604	1.262	1.078	0.934	0.860	1.014	0.950	1.047	0.921	0.993	0.945	1.079	1.115	1.009	1.221
505.0	184.8	269.6	393.9	362.4	417.9	698.0	1926	1019	345.9	227.7	162.5	140.2	143.0	141.3	139.5	140.6	137.6	133.4	124.1	110.0	83.26	67.35	63.28	65.88	67.26	70.31	74.78	77.05	78.75	79.02	75.85	69.81	62.23	53.59	46.49	40.97	33.81	28.36	24.54	21.41	19.18	21.13	23.27	15.78	10.16	8.409	6.968	6.536	5.677	5.057	4.215	4.366	5.552	7.214	13.64	56.03	370.9	669.6	204.3	8.460	2.044	1.966	1.312	1.223	0.949	0.916	0.959	0.800	0.884	0.928	0.857	0.851	0.868	0.954	0.977	1.038	1.097
510.0	169.9	221.7	293.5	359.7	354.2	464.1	1200	1705	412.8	193.7	140.9	124.3	124.7	122.5	120.6	119.5	117.4	114.4	105.9	92.44	71.86	58.66	54.82	56.50	58.36	60.25	63.55	66.13	67.18	68.45	65.58	60.01	53.08	47.23	40.63	36.31	30.48	25.64	22.10	19.16	17.27	16.39	18.83	18.62	12.98	8.925	6.887	6.388	5.507	4.981	4.676	4.393	4.304	4.496	6.033	15.40	88.83	274.6	474.6	288.9	15.01	2.206	1.330	1.014	0.928	0.859	0.836	0.753	0.739	0.857	0.821	0.784	0.794	0.863	0.881	0.911	0.917
515.0	149.7	171.7	217.9	327.0	314.8	348.7	563.6	1605	850.7	173.8	120.8	108.3	107.1	103.2	99.86	98.29	97.54	93.79	88.14	77.74	59.54	49.76	46.03	47.72	49.64	50.57	53.35	55.15	56.31	57.12	54.39	51.07	45.96	41.40	35.26	31.43	26.74	22.86	20.16	17.21	14.62	13.71	13.99	15.86	15.88	10.70	7.117	6.118	5.411	5.034	4.687	4.715	4.184	3.939	4.199	6.167	22.29	63.91	136.1	400.6	229.9	22.54	1.444	1.042	0.870	0.700	0.743	0.790	0.679	0.720	0.642	0.676	0.684	0.748	0.767	0.705	0.851
520.0	141.3	146.2	171.6	267.4	315.9	305.2	365.6	973.0	1333	232.1	106.7	100.3	93.87	92.01	86.59	87.82	84.25	81.62	75.63	67.82	53.32	43.80	41.87	42.63	43.98	44.31	45.82	49.10	49.47	49.86	48.83	45.75	40.25	36.67	30.80	27.49	24.25	20.36	18.50	16.25	14.12	11.89	11.53	12.42	15.68	12.92	7.830	6.174	5.217	4.852	4.596	4.722	3.984	3.524	3.749	4.023	7.587	16.51	32.80	142.5	412.4	229.4	15.46	1.100	0.835	0.652	0.678	0.688	0.708	0.737	0.701	0.626	0.579	0.713	0.734	0.708	0.734
525.0	112.3	136.9	148.5	209.7	317.1	270.5	285.7	496.2	1438	514.6	99.98	89.48	85.62	84.95	77.73	77.60	74.89	72.26	68.01	58.58	45.53	39.16	38.01	38.17	38.32	38.89	40.83	43.65	43.98	45.38	42.27	39.52	35.83	31.84	28.51	25.07	22.44	19.20	16.91	14.53	13.09	11.39	10.42	9.970	12.86	14.27	9.026	6.295	5.106	4.652	4.499	4.189	4.286	3.948	3.454	3.262	4.081	5.816	9.208	34.29	179.2	609.9	176.6	6.663	0.848	0.647	0.673	0.690	0.650	0.676	0.634	0.585	0.563	0.541	0.753	0.713	0.674
530.0	96.60	116.9	126.0	158.1	256.8	261.0	230.3	261.1	846.9	1115	164.2	76.75	74.49	71.96	66.78	64.75	63.04	60.74	56.94	49.83	38.86	32.97	31.84	32.32	32.87	34.10	35.19	36.32	37.43	37.44	36.89	33.41	30.81	27.70	24.55	21.69	19.70	16.97	14.97	12.98	11.86	10.62	9.614	8.783	9.290	11.56	10.92	7.501	5.099	4.321	4.136	3.887	3.849	3.880	3.601	3.130	2.956	3.330	3.800	9.242	42.63	239.4	337.2	185.0	14.09	0.899	0.668	0.630	0.599	0.650	0.620	0.556	0.582	0.520	0.603	0.549	0.605
535.0	75.34	92.51	103.9	121.1	183.3	258.7	197.1	178.0	312.1	1119	639.1	75.27	64.91	62.24	58.08	54.65	53.05	50.87	46.82	41.27	33.33	28.18	27.07	27.21	27.63	29.02	29.92	30.21	32.22	31.64	31.04	28.80	26.52	23.01	20.89	18.65	17.10	15.00	13.07	10.94	10.42	9.087	8.413	7.524	7.298	7.924	9.636	9.344	6.027	4.189	3.807	3.534	3.625	3.168	3.518	3.289	2.799	2.440	2.473	3.475	10.71	54.56	94.03	280.0	221.4	17.93	0.886	0.704	0.487	0.580	0.544	0.550	0.519	0.519	0.562	0.565	0.568
540.0	70.28	87.48	90.41	99.88	135.7	237.0	188.1	146.9	151.3	648.7	1143	124.4	55.90	52.83	50.23	46.32	46.45	42.67	40.85	35.24	29.28	24.54	23.27	24.05	23.82	24.38	25.45	26.73	27.68	28.03	26.29	25.08	22.79	20.60	18.24	16.44	14.27	12.95	11.66	9.995	9.144	7.953	7.575	6.842	6.209	6.158	7.387	9.032	7.221	4.456	3.514	3.203	3.282	2.823	3.046	3.145	2.768	2.117	2.148	2.055	3.558	13.26	22.15	95.75	299.7	165.0	13.67	0.725	0.567	0.612	0.513	0.417	0.488	0.464	0.557	0.497	0.533
545.0	68.16	84.07	77.56	85.45	109.1	188.7	190.3	126.0	105.7	265.1	1273	375.6	51.33	47.78	43.34	41.81	39.45	36.47	34.70	29.81	24.93	20.26	20.31	21.53	21.57	21.59	21.94	22.54	23.62	23.58	22.69	21.47	20.03	17.89	16.15	14.60	13.31	11.32	10.30	8.930	8.264	7.393	7.124	6.534	5.751	5.483	5.568	7.361	7.764	5.066	3.547	2.964	2.900	2.744	2.641	2.766	2.809	2.325	1.873	1.751	1.840	3.914	5.822	22.58	122.0	271.9	139.6	4.931	0.635	0.545	0.412	0.412	0.498	0.512	0.442	0.426	0.427
550.0	59.56	62.79	68.41	70.49	87.05	124.4	182.9	118.3	82.72	105.3	678.4	1051	94.41	40.29	36.33	34.61	32.52	30.38	27.66	24.94	20.45	16.82	16.81	17.03	17.16	17.96	17.87	18.79	19.13	19.51	18.59	17.63	16.28	14.80	13.48	11.86	10.91	9.232	8.804	7.813	7.239	6.492	5.999	5.619	4.988	4.702	4.393	5.293	6.525	5.696	4.017	2.805	2.424	2.544	2.277	2.270	2.532	2.358	1.852	1.538	1.370	1.829	2.048	5.699	28.72	102.7	209.3	137.0	14.39	0.702	0.525	0.408	0.443	0.420	0.400	0.447	0.385
555.0	47.55	54.08	54.32	59.82	67.94	84.68	138.0	135.1	63.40	60.43	202.3	1112	418.9	38.13	30.16	28.02	25.55	23.25	22.57	19.62	16.74	14.26	13.48	13.48	13.59	14.30	14.29	14.55	15.36	15.53	15.06	14.25	12.78	12.03	10.69	9.339	8.695	7.938	7.149	6.792	6.002	5.503	4.958	4.553	4.219	3.882	3.643	3.765	4.299	5.309	4.766	2.972	2.286	2.129	2.101	1.838	2.015	2.075	1.983	1.482	1.099	1.160	1.123	1.946	7.032	23.58	56.09	244.2	202.5	17.44	0.569	0.401	0.375	0.386	0.392	0.333	0.454
560.0	41.65	50.07	48.63	48.95	56.30	65.82	97.11	146.3	63.61	44.84	75.45	618.3	849.8	84.18	25.88	23.42	21.40	19.87	19.09	16.26	13.25	12.10	11.82	10.99	11.14	11.94	12.00	11.87	12.30	12.54	12.77	12.11	10.95	10.36	8.798	8.221	7.762	6.745	6.245	5.482	4.897	4.836	4.365	3.982	3.733	3.370	2.943	3.021	3.229	3.929	4.460	3.425	2.156	2.018	1.770	1.507	1.724	1.876	1.997	1.594	1.003	1.005	0.917	1.030	2.069	5.811	13.13	85.24	230.4	137.7	10.24	0.444	0.395	0.412	0.342	0.393	0.359
565.0	40.62	44.93	42.93	40.87	46.03	54.91	66.71	137.1	73.10	37.11	42.98	224.2	1003	375.5	21.91	19.99	18.73	17.06	16.07	13.58	11.54	10.13	9.837	9.620	9.600	9.891	10.27	10.51	10.48	11.31	10.37	10.45	9.183	8.797	7.414	7.084	6.415	5.681	5.190	4.715	4.434	4.328	4.017	3.487	3.407	3.227	2.804	2.665	2.416	2.747	3.812	3.515	2.251	1.851	1.638	1.513	1.369	1.583	1.549	1.645	1.275	0.986	0.883	0.820	1.020	1.777	3.434	20.12	89.49	212.5	105.9	2.921	0.377	0.395	0.412	0.295	0.376
570.0	38.42	43.18	39.74	36.39	40.27	42.13	46.30	93.02	100.5	37.21	31.62	74.31	533.0	1322	50.34	16.18	14.93	14.09	12.94	11.06	9.490	8.279	8.050	7.830	7.843	8.070	8.637	8.514	8.905	9.121	8.803	8.072	7.419	7.144	6.569	5.878	5.190	4.784	4.327	4.123	3.801	3.639	3.260	3.013	2.713	2.625	2.415	2.223	2.076	1.996	2.583	2.995	2.887	1.832	1.445	1.353	1.335	1.225	1.198	1.241	1.453	1.116	0.753	0.702	0.733	0.843	1.286	5.037	20.93	77.44	174.5	77.28	10.15	0.542	0.348	0.294	0.350
575.0	37.23	38.85	37.15	34.63	31.59	32.19	37.56	52.71	105.9	48.84	28.74	37.85	154.0	1514	282.5	15.43	12.47	11.40	10.33	8.959	7.513	6.912	6.720	6.353	6.348	6.301	6.545	6.823	7.632	7.221	6.998	6.681	6.165	5.357	5.256	4.398	4.080	3.777	3.543	3.264	3.046	2.987	2.650	2.407	2.375	2.135	2.043	2.021	1.782	1.539	1.699	1.966	2.641	2.171	1.450	1.257	1.180	0.899	1.025	0.906	1.027	1.282	0.912	0.612	0.629	0.541	0.730	1.618	5.102	17.61	48.29	104.0	97.76	13.41	0.463	0.308	0.311
580.0	38.99	37.31	35.37	26.26	28.00	28.77	29.57	34.08	83.36	73.34	27.69	27.69	52.39	814.6	630.8	34.53	11.37	9.661	8.498	7.687	6.513	5.404	5.840	5.397	5.344	5.380	5.689	5.724	5.847	6.080	5.724	5.523	5.404	4.921	4.539	3.939	3.728	3.441	2.897	2.941	2.706	2.535	2.186	2.208	2.234	1.867	1.799	1.605	1.444	1.473	1.404	1.487	2.059	2.287	1.486	1.087	1.128	0.891	0.813	0.717	0.769	0.992	1.156	0.853	0.634	0.529	0.603	0.761	1.552	4.300	11.28	35.62	116.1	91.77	5.867	0.310	0.316
585.0	38.18	39.61	31.18	27.96	23.87	24.77	25.99	27.12	55.87	92.27	33.58	25.21	29.12	270.5	757.1	99.59	9.961	8.340	6.811	6.158	5.530	4.721	4.957	4.733	4.574	4.523	4.791	4.697	4.789	5.357	4.921	4.459	4.728	4.023	3.782	3.491	3.111	2.761	2.688	2.504	2.392	2.059	1.949	1.945	1.802	1.744	1.662	1.299	1.382	1.216	1.176	1.121	1.497	1.964	1.867	1.227	0.969	0.807	0.745	0.687	0.641	0.735	1.129	0.943	0.591	0.531	0.577	0.526	0.734	1.389	2.825	8.496	45.77	140.3	33.26	1.842	0.345
590.0	37.57	38.09	29.17	25.74	22.26	22.35	24.56	24.19	34.91	83.59	54.28	26.26	23.41	77.34	399.8	535.5	23.92	7.778	5.927	5.468	4.827	4.121	4.020	3.948	3.693	4.015	3.892	3.858	3.960	4.502	4.288	3.906	3.726	3.286	3.080	2.826	2.646	2.435	2.244	2.131	1.869	1.848	1.665	1.579	1.549	1.528	1.421	1.165	1.169	1.000	0.999	1.037	1.128	1.421	1.665	1.388	0.917	0.794	0.700	0.651	0.701	0.632	0.738	0.924	0.781	0.600	0.502	0.507	0.562	0.611	1.002	2.236	10.77	50.30	98.48	55.41	9.780
595.0	38.65	40.48	32.91	28.68	21.30	23.12	26.46	23.59	29.27	58.62	79.89	34.80	27.44	34.16	112.9	687.9	92.84	7.532	5.297	4.780	3.840	3.545	2.988	3.058	2.902	3.290	3.159	3.246	3.340	3.282	3.549	2.975	3.102	2.988	2.585	2.327	2.217	2.018	1.819	1.675	1.595	1.375	1.282	1.275	1.207	1.160	1.221	1.041	0.976	0.853	0.870	0.852	0.859	0.929	1.304	1.496	1.129	0.862	0.623	0.501	0.531	0.464	0.530	0.691	0.855	0.775	0.475	0.541	0.560	0.514	0.557	0.801	2.710	11.58	27.42	70.59	84.87
600.0	46.09	38.94	39.89	31.93	24.81	24.33	29.72	27.39	32.40	47.23	91.63	53.67	36.79	33.62	45.02	425.6	384.6	15.63	4.788	4.161	3.196	2.767	2.649	2.708	2.654	2.732	2.922	2.766	2.943	2.911	3.062	2.771	2.521	2.354	2.190	1.976	1.865	1.741	1.639	1.367	1.443	1.194	1.255	1.164	1.120	1.211	1.020	0.905	0.943	0.789	0.733	0.724	0.694	0.730	0.937	1.199	1.117	0.885	0.621	0.573	0.476	0.517	0.587	0.618	0.702	0.942	0.683	0.543	0.496	0.479	0.481	0.522	0.915	2.924	6.476	23.56	96.46
605.0	50.41	48.53	47.60	35.05	29.08	31.68	34.75	41.29	49.93	65.63	111.6	100.3	65.48	52.12	46.53	169.4	529.4	64.20	4.944	3.502	2.878	2.515	2.544	2.308	2.226	2.545	2.466	2.224	2.452	2.649	2.443	2.748	2.053	2.113	1.750	1.667	1.544	1.574	1.405	1.098	1.338	1.116	1.107	0.923	0.990	1.017	0.980	0.958	0.838	0.665	0.686	0.671	0.640	0.644	0.695	0.949	1.193	1.104	0.737	0.668	0.644	0.571	0.612	0.671	0.648	0.940	0.976	0.871	0.589	0.553	0.567	0.546	0.655	1.113	1.831	5.713	36.49
610.0	63.60	64.86	66.66	46.61	38.80	44.33	55.60	71.85	93.22	122.2	156.0	191.8	139.5	102.3	89.82	98.69	356.6	309.4	12.44	3.298	2.366	2.105	2.184	2.081	2.052	2.039	2.099	1.985	2.009	2.101	2.062	2.002	1.667	1.696	1.427	1.524	1.347	1.342	1.233	0.994	1.044	0.968	0.986	0.958	0.897	0.940	0.855	0.801	0.816	0.676	0.627	0.645	0.603	0.621	0.645	0.747	0.947	1.132	1.031	0.810	0.719	0.720	0.897	0.935	0.888	1.060	1.279	1.316	1.036	0.974	0.762	0.787	0.702	0.881	1.082	1.774	8.751
615.0	73.53	78.39	77.46	55.12	48.59	49.01	68.52	88.37	107.9	144.2	171.8	210.9	182.2	128.9	108.4	90.13	157.5	410.9	64.15	3.087	2.354	2.004	1.662	1.827	1.566	1.456	1.565	1.604	1.700	1.821	1.611	1.768	1.441	1.385	1.273	1.281	1.236	1.018	1.119	0.799	0.853	0.858	0.864	0.804	0.722	0.760	0.690	0.760	0.764	0.587	0.572	0.605	0.618	0.565	0.592	0.673	0.752	1.040	1.108	0.936	0.739	0.865	0.941	0.938	1.103	1.100	1.195	1.259	1.305	1.043	0.961	0.929	0.816	0.830	0.793	0.927	2.509
620.0	75.09	86.41	82.09	60.55	50.51	51.52	67.67	83.98	102.8	134.1	157.7	193.2	193.4	130.7	109.5	82.50	98.96	278.0	191.5	5.156	1.900	1.660	1.524	1.568	1.392	1.445	1.273	1.467	1.523	1.471	1.402	1.349	1.308	1.285	1.205	1.038	1.047	0.888	1.018	0.756	0.842	0.686	0.712	0.737	0.693	0.670	0.729	0.814	0.688	0.521	0.525	0.564	0.665	0.569	0.508	0.565	0.683	0.750	1.069	1.006	0.806	0.826	0.847	0.917	0.926	0.964	1.175	1.133	1.343	1.109	0.992	0.916	0.743	0.808	0.819	0.628	1.042
625.0	82.66	94.51	83.40	60.49	51.44	55.11	65.59	82.78	101.9	125.8	151.3	176.4	191.7	135.4	111.5	83.05	82.66	128.3	270.5	27.07	1.714	1.497	1.548	1.450	1.244	1.232	1.345	1.382	1.188	1.181	1.193	1.320	0.942	1.080	1.060	0.976	0.875	0.778	0.786	0.751	0.694	0.648	0.674	0.634	0.547	0.609	0.757	0.660	0.638	0.552	0.509	0.497	0.620	0.513	0.456	0.526	0.687	0.678	0.865	0.954	0.829	0.845	0.842	0.884	0.929	0.894	1.042	1.024	1.144	1.261	1.052	0.838	0.802	0.884	0.892	0.702	0.731
630.0	84.14	104.8	94.01	67.21	54.54	57.06	68.64	81.40	95.51	121.4	144.8	165.9	180.8	147.4	111.3	81.25	77.85	63.56	176.7	137.4	5.174	1.438	1.317	1.223	1.108	1.050	1.063	1.178	1.079	1.077	0.986	1.082	0.902	0.878	0.832	0.710	0.726	0.715	0.586	0.633	0.601	0.555	0.534	0.592	0.581	0.645	0.664	0.555	0.591	0.560	0.496	0.498	0.542	0.450	0.468	0.507	0.635	0.620	0.720	0.813	0.803	0.818	0.732	0.887	0.830	0.879	0.995	1.005	1.125	1.159	1.104	0.992	0.789	0.817	0.799	0.619	0.611
635.0	84.37	106.4	106.9	77.67	56.23	56.00	65.64	81.61	95.00	116.0	140.9	162.8	165.3	157.0	115.6	81.28	76.51	47.06	54.90	225.3	48.02	1.531	1.170	1.037	0.871	0.943	0.928	0.838	1.024	0.977	0.875	0.841	0.897	0.751	0.663	0.634	0.643	0.565	0.489	0.536	0.621	0.490	0.463	0.563	0.550	0.584	0.533	0.593	0.585	0.453	0.463	0.468	0.514	0.449	0.416	0.450	0.661	0.499	0.566	0.692	0.813	0.891	0.780	0.724	0.848	0.817	0.989	1.137	1.088	1.064	1.045	1.141	0.908	0.875	0.703	0.654	0.583
640.0	89.99	108.5	99.03	74.07	57.82	52.90	67.42	81.97	92.28	116.7	137.8	159.3	157.4	151.7	121.9	83.41	75.08	43.36	20.33	157.8	156.6	2.933	1.065	1.052	0.978	0.850	0.854	0.804	0.858	0.844	0.912	0.722	0.804	0.652	0.547	0.641	0.606	0.576	0.554	0.490	0.526	0.560	0.491	0.523	0.447	0.545	0.500	0.628	0.585	0.451	0.408	0.481	0.465	0.461	0.378	0.393	0.554	0.480	0.525	0.701	0.703	0.828	0.738	0.693	0.821	0.795	0.878	0.917	0.965	0.950	1.027	1.050	0.997	0.928	0.633	0.672	0.606
645.0	89.49	115.1	99.79	73.73	63.38	54.30	65.06	77.28	85.59	109.1	129.9	147.2	146.8	139.5	124.7	81.16	70.91	41.55	11.62	65.37	241.8	18.89	0.998	0.940	0.851	0.834	0.714	0.750	0.809	0.834	0.711	0.776	0.707	0.599	0.579	0.659	0.548	0.491	0.448	0.478	0.471	0.493	0.415	0.460	0.475	0.540	0.575	0.551	0.514	0.447	0.363	0.461	0.389	0.388	0.381	0.411	0.470	0.517	0.561	0.564	0.603	0.842	0.825	0.793	0.731	0.816	0.857	0.927	0.931	0.820	0.984	0.897	0.927	0.868	0.730	0.661	0.608
650.0	78.25	106.3	105.0	73.81	58.30	54.62	63.12	70.34	77.86	96.35	116.0	137.2	135.6	124.1	120.3	76.57	66.27	36.45	10.44	20.16	214.0	62.89	1.338	0.901	0.837	0.711	0.705	0.756	0.702	0.600	0.704	0.683	0.548	0.592	0.507	0.514	0.504	0.418	0.465	0.434	0.403	0.378	0.425	0.404	0.443	0.478	0.505	0.555	0.504	0.445	0.373	0.445	0.407	0.386	0.412	0.432	0.473	0.514	0.564	0.486	0.550	0.593	0.711	0.735	0.675	0.752	0.700	0.780	0.794	0.724	0.699	0.767	0.817	0.785	0.628	0.678	0.610
