Sample:	'1
File name:	t2025042405农业综合开发006桥.FD3
Run date:	'14:23:12, 04/27/2025
Operator:	Administrator
Comment:	'

Instrument
Model:	F-2700 FL Spectrophotometer
Serial number:	23B8-004
ROM Version:	4J14000 07

Instrument parameters
Measurement type:	3-D scan
Data mode:	Fluorescence
EX  Start WL:	220.0 nm
EX  End WL:	600.0 nm
EX Sampling interval:	5.0 nm
EM  Start WL:	230.0 nm
EM  End WL:	650.0 nm
EM Sampling interval:	5.0 nm
Scan speed:	12000 nm/min
EX Slit:	5.0 nm
EM Slit:	5.0 nm
PMT Voltage:	700 V
Response:	Auto 
Corrected spectra:	Off
Contour interval:	50.000

Peak integration
Integration method:	Rectangular
Sensitivity:	1
Threshold:	1.000

Peaks
No.	ApexEX/EM(nm)	Height(Data)
1	225.0/575.0	59.51
2	225.0/585.0	64.82
3	225.0/600.0	61.25
4	225.0/615.0	58.99
5	225.0/640.0	60.12
6	230.0/340.0	1512
7	235.0/515.0	253.4
8	240.0/525.0	219.7
9	245.0/540.0	188.9
10	250.0/550.0	153.2
11	255.0/280.0	532.9
12	255.0/565.0	126.3
13	260.0/290.0	545.1
14	260.0/575.0	110.1
15	265.0/295.0	749.8
16	265.0/585.0	96.73
17	270.0/300.0	1041
18	270.0/600.0	97.22
19	275.0/310.0	1234
20	275.0/335.0	1352
21	275.0/610.0	95.26
22	280.0/315.0	1281
23	280.0/625.0	83.09
24	285.0/320.0	1286
25	285.0/635.0	65.66
26	290.0/325.0	1434
27	320.0/365.0	403.7
28	330.0/375.0	360.0
29	335.0/380.0	344.4
30	350.0/400.0	298.2
31	425.0/500.0	32.74
32	440.0/520.0	19.26
33	455.0/540.0	10.83
34	460.0/345.0	5.487
35	470.0/560.0	5.275
36	475.0/355.0	4.632
37	505.0/275.0	3.882
38	510.0/280.0	3.997
39	520.0/285.0	4.494
40	530.0/290.0	4.453
41	545.0/300.0	7.272
42	550.0/305.0	7.939
43	560.0/310.0	8.454
44	570.0/315.0	8.433
45	575.0/320.0	8.246
46	585.0/325.0	8.289

Data points
	220.0	225.0	230.0	235.0	240.0	245.0	250.0	255.0	260.0	265.0	270.0	275.0	280.0	285.0	290.0	295.0	300.0	305.0	310.0	315.0	320.0	325.0	330.0	335.0	340.0	345.0	350.0	355.0	360.0	365.0	370.0	375.0	380.0	385.0	390.0	395.0	400.0	405.0	410.0	415.0	420.0	425.0	430.0	435.0	440.0	445.0	450.0	455.0	460.0	465.0	470.0	475.0	480.0	485.0	490.0	495.0	500.0	505.0	510.0	515.0	520.0	525.0	530.0	535.0	540.0	545.0	550.0	555.0	560.0	565.0	570.0	575.0	580.0	585.0	590.0	595.0	600.0
230.0	56.63	1289	3701	1189	49.05	9.504	7.926	6.650	5.936	5.173	5.118	4.878	4.106	3.823	2.981	2.578	2.637	2.145	2.029	2.380	1.598	1.479	1.438	1.361	1.181	1.230	1.083	1.017	1.019	1.025	0.957	0.951	0.923	0.823	0.884	0.793	0.710	0.657	0.679	0.625	0.684	0.740	0.712	0.593	0.582	0.593	1.398	6.591	14.51	13.21	5.551	1.340	0.520	0.470	0.392	0.436	0.445	0.415	0.453	0.420	0.423	0.434	0.414	0.443	0.377	0.447	0.428	0.395	0.397	0.414	0.386	0.406	0.405	0.408	0.392	0.389	0.415
235.0	87.67	376.0	2545	4474	594.4	85.04	10.94	8.677	6.400	5.571	5.315	5.348	4.311	4.591	3.236	2.890	2.613	2.191	1.970	2.276	1.632	1.749	1.345	1.325	1.236	1.307	1.030	1.119	1.151	1.040	0.895	0.940	0.998	0.802	0.888	0.743	0.748	0.733	0.637	0.597	0.682	0.664	0.660	0.680	0.739	0.561	0.706	2.009	5.352	11.21	19.53	21.57	10.60	2.493	0.513	0.445	0.594	0.449	0.426	0.472	0.405	0.477	0.427	0.371	0.381	0.421	0.380	0.445	0.450	0.426	0.385	0.430	0.459	0.382	0.386	0.382	0.417
240.0	132.0	159.8	786.0	4065	4633	482.0	43.70	10.15	7.994	7.343	6.425	5.371	4.917	4.629	3.411	2.887	2.494	2.470	2.351	2.355	1.780	1.767	1.360	1.533	1.253	1.335	1.106	1.237	1.139	1.009	1.014	1.138	0.911	0.910	0.907	0.804	0.693	0.734	0.671	0.634	0.594	0.670	0.632	0.663	0.914	0.829	0.766	1.003	1.607	3.380	9.940	24.92	31.42	22.88	8.895	1.573	0.612	0.584	0.476	0.500	0.422	0.504	0.478	0.393	0.502	0.452	0.431	0.461	0.435	0.378	0.381	0.503	0.497	0.400	0.402	0.377	0.417
245.0	111.5	175.7	233.8	1436	6121	3873	370.5	21.78	9.987	7.674	6.733	5.710	5.430	4.876	3.534	3.434	2.955	2.456	2.500	2.258	1.740	1.735	1.653	1.657	1.347	1.221	1.173	1.305	1.143	1.035	1.004	1.148	0.940	0.917	0.850	0.894	0.702	0.733	0.651	0.788	0.626	0.661	0.723	0.683	0.671	0.842	0.974	1.007	0.858	1.169	2.701	8.029	19.97	37.56	32.21	21.00	6.943	1.073	0.537	0.480	0.495	0.552	0.424	0.445	0.467	0.405	0.462	0.448	0.409	0.414	0.393	0.465	0.444	0.485	0.468	0.458	0.462
250.0	61.35	158.1	245.1	409.7	2037	5501	6077	1383	89.63	13.13	9.831	8.035	6.377	5.603	4.306	3.675	3.275	2.656	2.779	2.432	1.816	1.844	1.660	1.520	1.398	1.336	1.390	1.296	1.176	1.167	1.009	1.118	1.082	0.830	0.830	0.960	0.756	0.686	0.735	0.751	0.742	0.779	0.690	0.680	0.605	0.644	0.712	1.049	1.192	1.131	1.283	2.312	5.068	11.61	20.48	34.18	40.48	41.66	17.41	7.147	1.138	0.529	0.490	0.485	0.517	0.461	0.456	0.477	0.461	0.465	0.424	0.455	0.470	0.432	0.423	0.428	0.412
255.0	50.58	70.56	184.7	344.1	532.3	1440	5755	9999.9	1944	96.54	14.08	10.47	7.980	6.381	5.270	4.104	3.354	3.090	2.948	2.747	2.077	2.061	1.866	1.818	1.488	1.473	1.562	1.342	1.352	1.415	1.089	1.107	1.103	1.000	0.752	0.893	0.855	0.855	0.792	0.736	0.714	0.898	0.739	0.634	0.551	0.672	0.613	0.670	0.783	1.139	1.733	1.859	1.850	3.032	5.108	8.368	14.75	37.61	68.83	75.27	26.87	7.980	0.862	0.625	0.536	0.569	0.486	0.522	0.416	0.501	0.461	0.420	0.416	0.458	0.420	0.471	0.468
260.0	42.62	36.16	87.49	304.9	337.2	377.2	1858	9686	9999.9	1482	49.28	13.83	10.73	7.993	6.453	4.509	3.845	3.405	3.164	2.828	2.280	1.935	1.995	1.962	1.668	1.572	1.544	1.342	1.234	1.466	1.385	1.058	1.106	1.080	0.860	0.924	0.875	0.747	0.814	0.830	0.699	0.773	0.765	0.657	0.634	0.680	0.629	0.525	0.648	0.717	1.172	2.051	2.206	1.915	1.789	2.463	3.878	10.04	28.71	67.39	95.06	36.89	22.00	3.967	0.672	0.534	0.569	0.625	0.445	0.504	0.496	0.623	0.568	0.417	0.487	0.529	0.493
265.0	46.17	36.11	48.51	152.5	387.6	256.6	464.7	3442	9999.9	9999.9	224.9	25.66	14.20	9.607	7.893	5.149	4.429	4.207	3.619	3.092	2.368	2.372	2.026	1.999	1.637	1.757	1.513	1.428	1.480	1.326	1.479	1.244	1.214	1.132	1.072	0.893	0.876	0.818	0.790	0.797	0.802	0.767	0.728	0.597	0.706	0.682	0.763	0.568	0.593	0.613	0.742	1.269	2.021	2.526	1.911	1.384	1.413	2.799	7.117	19.59	49.41	88.78	113.7	34.33	15.41	1.419	0.701	0.597	0.503	0.600	0.506	0.703	0.535	0.506	0.524	0.487	0.432
270.0	64.80	54.67	47.90	67.46	203.1	375.8	310.7	838.2	3694	9999.9	9999.9	3831	64.29	15.59	10.64	7.790	6.062	5.088	4.552	3.684	2.938	2.620	2.264	2.168	1.885	1.871	1.784	1.638	1.551	1.572	1.485	1.372	1.295	1.292	1.184	0.997	0.924	0.933	0.802	0.788	0.799	0.765	0.762	0.805	0.814	0.795	0.774	0.679	0.679	0.602	0.564	0.770	1.028	1.575	2.250	2.491	2.301	1.824	2.275	5.092	11.93	25.65	55.34	78.94	111.4	86.85	22.11	10.80	1.557	0.682	0.578	0.608	0.531	0.522	0.546	0.556	0.540
275.0	109.1	114.5	92.07	65.85	82.57	198.8	482.3	393.6	883.2	2614	9999.9	9999.9	1239	64.31	16.83	10.30	8.066	6.272	5.668	4.690	3.296	2.955	2.656	2.386	2.145	2.160	2.266	1.705	1.835	1.730	1.722	1.568	1.339	1.353	1.230	1.002	1.176	1.079	0.810	0.876	0.876	0.780	0.980	0.856	0.904	0.928	0.967	0.787	0.890	0.701	0.656	0.815	0.719	0.864	1.051	1.548	2.457	3.882	2.861	2.196	3.362	6.422	12.97	18.75	33.19	68.37	136.2	158.2	34.87	12.71	1.075	0.824	0.725	0.560	0.647	0.709	0.625
280.0	163.6	183.9	142.1	86.63	63.27	90.71	348.7	532.9	334.2	665.4	3098	9999.9	9999.9	914.9	36.73	14.49	10.97	7.697	6.504	5.389	4.058	3.373	2.854	2.415	2.430	2.115	2.201	1.767	1.735	1.797	1.581	1.705	1.664	1.596	1.399	1.224	1.244	1.020	1.062	0.955	0.807	0.981	1.052	0.901	0.973	1.081	0.976	0.970	1.065	0.849	0.818	0.763	0.755	0.715	0.778	1.046	1.453	2.629	3.997	3.704	2.247	2.282	3.704	5.034	8.385	17.47	49.78	118.7	169.5	141.9	27.92	6.227	0.930	0.764	0.727	0.645	0.647
285.0	211.7	268.7	208.8	121.2	75.13	68.34	166.6	524.7	348.6	275.7	814.8	4050	9999.9	8794	125.2	22.89	14.99	9.595	8.392	6.558	4.588	3.822	2.959	2.957	2.433	2.282	2.307	1.909	1.852	2.148	1.835	1.622	1.629	1.781	1.660	1.368	1.316	1.241	1.046	1.086	0.935	0.973	1.013	1.042	1.237	1.213	1.258	1.296	1.226	1.145	0.950	0.911	0.772	0.854	0.848	0.769	1.053	1.423	2.492	4.062	4.494	2.860	1.976	2.267	2.928	4.947	12.33	31.26	73.14	151.0	184.7	40.42	20.83	2.377	0.846	0.714	0.775
290.0	306.2	375.0	329.9	195.1	105.6	85.06	115.7	272.9	545.1	501.1	412.6	1122	4084	9999.9	9999.9	2505	42.41	14.28	11.02	8.189	5.534	4.614	3.619	3.467	2.840	2.686	2.530	2.254	2.145	2.142	1.862	1.834	1.853	1.692	1.684	1.482	1.447	1.288	1.155	1.180	1.138	1.153	1.117	1.204	1.438	1.417	1.449	1.607	1.596	1.381	1.172	1.117	0.960	0.910	0.977	0.985	1.190	1.146	1.463	2.117	3.117	4.198	4.453	3.606	2.540	2.651	4.463	8.508	18.12	39.52	74.43	101.1	140.8	112.7	79.88	14.33	2.993
295.0	377.8	494.5	468.2	288.3	156.1	128.2	146.8	223.3	346.7	749.8	733.0	590.9	1182	2685	9999.9	9999.9	718.6	42.42	16.57	11.94	7.353	5.824	4.622	4.110	3.296	2.983	2.861	2.542	2.248	2.302	1.874	1.772	1.923	1.781	1.870	1.593	1.633	1.299	1.290	1.307	1.223	1.272	1.331	1.291	1.640	1.727	1.776	2.041	1.782	1.775	1.478	1.429	1.224	1.175	1.154	1.196	1.278	1.370	1.419	1.813	2.114	2.456	3.548	5.318	5.750	4.084	3.449	4.075	6.260	10.70	18.43	24.35	37.75	69.83	155.2	193.6	42.45
300.0	443.1	576.6	570.7	350.5	202.4	167.9	190.3	274.0	331.9	606.3	1041	745.5	649.3	875.0	3157	9999.9	9999.9	561.8	33.59	15.88	9.089	7.000	5.467	4.856	3.757	3.108	3.134	2.787	2.438	2.423	2.228	2.094	1.899	1.864	1.990	1.755	1.610	1.551	1.443	1.322	1.296	1.351	1.368	1.405	1.930	1.964	2.051	2.235	2.118	2.014	1.749	1.797	1.562	1.442	1.354	1.363	1.553	1.516	1.599	1.916	2.169	2.451	2.702	3.996	5.771	7.272	5.887	4.115	4.165	5.013	6.440	7.661	10.35	17.77	48.01	120.0	214.1
305.0	531.0	660.3	666.3	430.3	254.7	226.3	259.3	363.8	407.5	578.2	984.1	1184	712.4	577.9	1034	3828	9999.9	9999.9	446.8	22.63	12.13	8.402	6.527	5.254	4.282	3.709	3.423	3.011	2.373	2.625	2.132	2.233	2.131	2.022	1.887	1.961	1.637	1.487	1.373	1.468	1.417	1.425	1.489	1.489	2.145	2.337	2.363	2.465	2.461	2.230	1.953	1.997	1.598	1.542	1.655	1.689	1.774	1.918	2.137	2.266	2.584	2.647	3.054	3.811	4.648	6.349	7.939	7.115	5.449	4.592	4.628	4.518	4.714	6.238	12.40	30.47	80.08
310.0	590.6	742.2	766.3	508.7	313.8	291.0	336.1	481.8	521.1	687.5	894.0	1234	1175	723.2	721.3	1046	4127	9999.9	9999.9	1942	30.08	12.41	8.794	6.456	5.394	4.361	4.070	3.283	3.041	3.134	2.583	2.637	2.230	2.199	2.134	1.982	1.837	1.751	1.651	1.523	1.561	1.545	1.633	1.513	2.277	2.443	2.417	2.841	2.848	2.601	2.280	2.218	2.013	1.797	1.737	1.833	2.075	2.305	2.511	2.707	3.010	3.372	3.760	4.300	4.521	5.265	6.298	7.512	8.454	7.556	6.089	4.796	4.059	4.477	4.930	8.569	19.94
315.0	652.9	841.9	873.1	590.4	368.2	343.2	399.5	596.2	620.1	796.0	967.3	1156	1281	1154	871.0	480.7	1068	2535	9999.9	9999.9	520.1	30.38	12.82	9.070	6.807	5.417	4.849	4.070	3.475	3.599	2.848	2.750	2.494	2.479	2.038	2.063	1.780	1.789	1.672	1.662	1.642	1.588	1.713	1.729	2.596	2.548	2.596	2.921	3.333	2.879	2.538	2.467	2.143	1.967	2.177	2.248	2.593	2.500	2.876	3.173	3.655	3.639	4.190	4.647	5.494	5.647	6.160	6.687	7.105	7.737	8.433	7.708	5.872	4.727	3.914	4.241	7.021
320.0	718.9	966.1	980.7	666.2	429.7	384.1	446.3	679.3	686.0	877.3	1050	1200	1213	1286	1108	421.5	423.3	681.0	2932	9999.9	9999.9	418.2	20.39	11.31	8.041	6.319	5.306	3.982	3.835	3.877	3.186	3.052	2.707	2.394	2.270	2.229	1.884	1.814	1.780	1.672	1.668	1.763	1.746	1.864	2.700	3.028	3.053	3.437	3.581	3.187	2.611	2.798	2.301	2.121	2.214	2.437	2.677	2.783	2.995	3.448	3.938	4.035	4.469	5.108	5.583	6.270	6.255	7.023	7.102	7.245	7.867	8.246	8.209	6.580	4.288	3.536	4.317
325.0	790.0	1096	1143	765.2	485.8	422.3	484.9	732.6	740.3	949.7	1121	1271	1234	1186	1434	539.1	317.9	289.4	752.5	3925	9999.9	9999.9	61.71	15.87	10.68	7.704	6.531	4.705	4.105	4.329	3.452	3.474	2.831	2.462	2.370	2.191	2.123	1.926	1.836	1.542	1.671	1.807	1.808	2.008	2.875	3.494	3.194	4.013	3.832	3.799	2.972	3.241	2.852	2.524	2.355	2.698	2.895	3.051	3.169	3.611	4.119	4.244	5.250	5.932	5.948	6.533	6.827	7.438	7.160	7.252	7.314	7.254	8.033	8.289	6.095	4.169	4.187
330.0	861.1	1255	1351	930.4	580.0	475.1	520.6	789.4	782.8	1002	1169	1326	1284	1148	1402	769.1	424.0	240.4	286.9	973.7	3837	9999.9	9999.9	1480	24.90	10.60	8.492	6.015	5.216	4.856	3.957	3.481	3.063	2.761	2.569	2.236	2.065	1.886	1.755	1.755	1.747	1.838	1.929	2.102	3.029	3.376	3.687	4.552	4.632	4.348	3.571	3.616	3.137	2.765	2.680	2.733	3.037	3.292	3.460	3.781	4.249	4.576	5.269	5.839	6.313	6.623	7.005	7.829	7.847	7.727	7.274	7.027	7.015	7.287	6.486	6.130	6.219
335.0	883.4	1317	1494	1041	681.4	530.4	550.3	820.0	800.8	1018	1189	1352	1304	1165	1356	724.9	650.7	334.7	218.2	329.0	928.5	2517	9999.9	9999.9	432.2	24.90	11.99	8.049	6.303	6.215	4.651	3.998	3.383	3.088	2.711	2.299	2.272	2.114	1.799	1.928	1.935	1.919	2.009	2.300	3.198	3.424	3.965	4.978	5.091	4.658	3.891	3.975	3.562	3.268	2.928	3.066	3.395	3.229	3.613	4.051	4.275	4.986	5.457	5.676	6.474	6.633	7.327	7.536	8.077	7.619	7.783	7.228	7.023	7.090	5.840	5.355	7.020
340.0	883.5	1372	1512	1109	731.1	577.0	596.9	845.0	802.7	1012	1179	1318	1298	1166	1352	672.4	636.3	491.6	243.5	205.1	294.8	625.9	2902	9999.9	9999.9	358.7	18.14	10.34	7.604	6.788	5.120	4.443	3.965	3.316	2.725	2.511	2.314	2.201	2.116	1.768	2.046	1.901	2.097	2.178	3.138	3.477	4.021	4.968	5.235	4.691	4.080	4.268	3.763	3.305	3.254	3.081	3.337	3.488	3.622	4.005	4.420	4.649	5.421	5.633	6.219	6.727	7.228	7.776	7.783	7.453	7.886	7.249	6.869	6.925	5.628	5.050	6.123
345.0	875.3	1333	1498	1154	767.8	609.6	610.9	834.0	795.4	992.3	1140	1272	1256	1141	1320	661.6	548.2	551.5	350.4	200.2	170.5	214.8	708.1	3742	9999.9	9999.9	54.58	13.75	9.790	7.934	6.133	4.985	4.299	3.685	2.983	2.554	2.286	2.310	2.092	1.939	2.002	1.749	1.839	2.319	3.020	3.342	3.693	4.689	5.487	4.858	4.485	4.288	3.917	3.542	3.299	3.199	3.413	3.510	3.625	3.791	4.446	4.562	5.671	5.536	6.381	6.534	6.631	7.277	7.322	7.313	7.516	6.822	6.890	6.552	5.835	4.988	5.710
350.0	801.6	1214	1422	1145	803.8	649.6	618.4	801.7	779.3	944.4	1064	1187	1167	1071	1241	656.5	514.3	460.8	454.4	309.2	179.7	149.2	232.7	899.0	3778	9999.9	9999.9	1345	23.29	10.61	7.675	6.040	4.751	3.860	3.248	2.839	2.421	2.156	2.002	1.888	1.922	1.997	1.869	2.175	2.812	3.036	3.502	4.491	4.869	4.428	4.358	4.472	4.132	3.515	3.278	3.443	3.642	3.507	3.794	3.808	4.341	4.629	5.084	5.214	6.111	6.129	6.402	6.692	6.795	7.132	6.904	6.821	6.409	6.657	5.652	5.127	5.638
355.0	728.6	1137	1318	1117	814.2	699.2	650.4	787.8	758.8	897.2	1005	1087	1078	999.8	1154	657.2	525.5	433.5	401.3	425.9	275.4	167.0	153.1	275.2	894.6	2475	9999.9	9999.9	412.7	25.33	10.72	8.078	5.915	4.316	3.660	2.973	2.534	2.589	2.118	1.952	1.958	1.963	1.776	2.027	2.652	3.170	3.268	4.168	4.401	4.359	4.039	4.632	4.045	3.757	3.454	3.361	3.903	3.811	3.790	4.033	4.172	4.460	4.843	5.324	5.771	5.524	6.151	6.361	6.456	6.442	6.606	6.326	6.144	6.729	5.715	5.215	5.595
360.0	679.1	1010	1247	1053	842.9	714.5	675.8	784.8	756.7	873.9	951.7	1019	1015	944.1	1091	654.5	537.0	443.6	385.6	400.4	382.9	220.1	155.9	152.1	267.3	601.3	2827	9999.9	9999.9	363.5	17.61	10.32	7.366	4.947	4.200	3.289	2.915	2.484	2.149	1.955	2.045	2.037	1.839	2.058	2.431	3.001	3.224	3.781	3.990	4.128	3.972	4.465	4.113	3.759	3.462	3.473	4.174	3.986	3.909	4.041	4.008	4.465	4.664	5.255	5.322	5.241	5.588	6.011	6.048	6.149	6.369	6.098	5.775	6.044	5.475	5.345	5.539
365.0	659.5	950.6	1132	1024	862.0	736.6	694.4	774.8	766.7	850.8	917.1	974.7	961.9	901.5	1030	650.1	544.3	461.3	398.1	366.5	403.7	316.9	187.3	144.1	140.6	193.1	679.4	3487	9999.9	9999.9	52.58	13.61	9.359	6.152	4.642	3.516	3.062	2.587	2.244	2.306	2.000	2.006	2.046	2.022	2.336	2.878	2.888	3.613	3.703	3.746	3.954	4.405	4.015	3.680	3.715	3.641	4.128	4.112	4.067	4.183	4.327	4.305	4.880	4.964	5.223	5.290	5.281	5.543	5.998	6.018	5.957	5.742	5.806	5.872	5.308	5.187	5.125
370.0	613.5	879.5	1056	976.3	849.9	748.8	719.4	775.8	750.2	823.4	871.9	908.6	898.5	850.3	941.7	638.5	553.6	479.9	423.3	376.5	357.7	369.4	293.7	185.8	138.6	124.5	212.0	829.5	3587	9999.9	9999.9	1340	23.08	8.207	6.182	4.325	3.532	2.853	2.600	2.142	2.049	2.061	2.015	2.071	2.388	2.735	2.757	3.375	3.699	3.688	3.517	4.130	4.019	3.963	3.678	3.732	4.075	4.068	4.131	4.199	4.265	4.386	4.820	4.619	4.974	5.118	5.161	5.215	5.259	5.771	5.517	5.660	5.604	5.599	5.067	5.081	5.254
375.0	532.9	794.0	976.9	936.8	851.7	773.5	732.2	775.4	751.4	797.3	824.6	855.6	833.7	792.2	862.1	626.4	558.1	495.7	444.5	397.5	358.2	337.0	360.0	275.0	172.7	133.2	128.7	243.2	843.5	2484	9928	9999.9	2086	23.35	8.494	5.737	4.530	3.682	2.748	2.455	2.083	2.269	2.009	2.254	2.453	2.849	2.707	3.353	3.616	3.490	3.326	4.000	4.045	3.986	3.909	3.757	4.113	4.191	4.043	3.983	3.992	4.438	4.424	4.424	4.784	4.913	4.856	4.855	5.044	5.053	4.931	5.340	5.207	5.138	5.047	5.004	4.922
380.0	504.7	743.5	913.0	905.6	863.8	780.1	746.9	759.3	743.4	769.9	804.8	813.0	799.2	758.8	811.0	613.0	552.4	501.8	461.2	415.4	370.9	334.9	340.0	344.4	226.8	152.8	125.0	127.4	241.5	596.6	2758	9999.9	9999.9	319.1	15.29	7.097	5.185	4.135	3.123	2.505	2.501	2.314	2.146	2.235	2.396	2.714	2.736	3.093	3.398	3.295	3.414	3.823	3.898	3.919	3.938	3.826	4.113	4.125	4.255	3.943	3.988	4.535	4.470	4.690	4.768	4.950	4.897	5.109	4.757	4.903	4.849	5.042	4.801	5.388	4.700	4.786	4.891
385.0	507.7	702.5	874.9	876.9	846.0	777.3	739.6	748.7	722.7	757.4	777.8	780.8	772.0	719.9	764.5	594.7	547.0	503.0	466.6	426.1	388.1	346.0	322.0	343.5	300.2	187.1	139.6	113.9	118.8	182.3	657.8	3463	9999.9	9999.9	44.19	10.20	6.283	4.999	3.699	2.972	2.816	2.533	2.181	2.373	2.465	2.648	2.696	3.247	3.254	3.287	3.100	3.766	3.961	4.042	4.004	3.601	3.975	4.288	4.280	4.045	3.978	4.251	4.301	4.491	4.617	4.636	4.861	4.693	4.591	4.711	4.848	4.773	4.901	5.060	4.679	4.898	4.932
390.0	468.9	684.1	831.7	850.5	830.1	782.9	732.8	739.6	708.8	724.3	737.3	738.6	720.5	684.9	711.5	574.4	532.2	501.3	467.3	434.5	398.8	364.9	331.2	316.8	320.6	269.0	180.0	133.9	111.0	106.3	196.0	814.5	3393	9999.9	9999.9	1117	19.04	6.412	4.599	3.576	3.102	2.820	2.330	2.380	2.537	2.661	2.709	3.070	3.095	3.016	3.224	3.667	4.048	3.874	4.042	3.791	4.083	4.142	4.027	3.910	4.038	4.216	4.181	4.337	4.407	4.281	4.574	4.484	4.443	4.652	4.648	4.664	4.522	4.818	4.546	4.490	4.667
395.0	451.0	637.9	775.0	819.9	810.8	765.3	731.7	719.6	689.8	698.1	705.4	709.0	683.7	648.0	660.6	553.9	515.4	490.0	463.7	433.5	404.5	374.8	346.8	320.2	297.8	303.4	259.9	168.7	131.5	108.9	108.5	228.8	789.4	2362	7446	9999.9	1838	22.06	6.648	4.575	3.821	3.227	2.689	2.366	2.556	2.857	2.811	3.237	3.103	3.053	3.068	3.701	3.978	3.741	3.828	3.791	4.197	3.829	4.050	3.795	4.032	4.106	4.229	4.186	4.282	4.209	4.074	4.175	4.221	4.288	4.274	4.194	4.283	4.183	4.398	4.337	4.666
400.0	429.2	630.1	747.9	797.7	780.3	760.9	741.1	713.8	687.1	678.6	685.8	680.3	665.3	628.1	628.2	537.5	505.4	481.8	458.3	432.8	407.2	382.7	356.7	329.4	297.9	286.4	298.2	220.1	154.5	123.2	100.8	107.4	216.3	554.4	1982	8685	9999.9	292.0	14.99	6.079	4.294	3.506	2.947	2.544	2.592	2.627	2.827	3.103	3.026	2.991	2.871	3.681	3.709	3.669	3.843	4.017	4.011	4.003	3.904	3.767	3.923	4.165	3.963	4.089	4.355	4.102	4.207	4.179	4.299	4.181	4.243	4.255	4.187	4.483	4.506	4.199	4.694
405.0	419.2	605.7	725.9	781.0	770.3	753.0	713.8	700.4	678.3	670.9	670.1	649.5	641.7	605.4	600.7	520.2	492.6	467.9	449.4	427.0	403.6	379.6	363.6	336.1	303.3	280.9	289.3	269.1	185.5	140.6	109.0	88.57	95.19	156.6	468.6	2509	9920	8013	242.6	8.972	5.367	4.064	3.176	2.794	2.737	3.099	2.833	3.015	2.870	3.027	2.986	3.549	3.688	3.868	3.697	3.913	4.179	3.856	3.910	3.914	4.192	4.123	3.757	3.911	3.966	3.937	4.008	4.280	4.037	4.117	4.146	3.916	4.151	4.269	3.865	3.935	4.420
410.0	403.6	553.0	693.3	750.3	748.3	736.4	707.9	688.9	667.0	658.5	646.6	634.8	616.3	578.8	571.8	500.4	470.2	447.6	434.0	414.4	396.5	376.4	359.9	340.3	314.4	285.9	270.4	271.2	245.1	173.0	127.1	96.79	78.45	76.04	134.7	583.1	2781	6999	7577	1114	18.27	5.483	3.953	3.407	3.149	3.055	2.718	2.925	2.949	2.929	2.948	3.357	3.444	3.756	3.547	3.555	3.960	3.997	3.981	3.930	3.862	4.000	3.988	3.808	3.785	3.706	3.664	4.032	4.030	4.016	3.930	3.902	3.859	4.112	4.036	4.056	4.172
415.0	379.2	550.0	658.9	717.1	725.3	718.4	683.8	669.6	651.8	631.9	625.3	613.7	586.7	549.0	535.0	472.9	443.9	426.2	413.2	396.2	380.3	366.1	352.5	337.3	318.0	291.8	270.9	251.9	254.7	225.4	153.7	109.6	83.86	66.26	66.09	156.5	639.0	1625	4601	9034	1835	22.55	5.548	3.966	3.935	3.303	2.939	3.002	3.255	2.845	2.718	3.542	3.421	3.709	3.612	3.438	3.972	3.991	4.004	3.887	3.734	3.858	3.821	3.751	3.967	3.756	3.552	3.870	3.616	3.815	3.639	3.611	4.000	3.865	3.984	3.853	3.837
420.0	364.0	516.1	618.5	687.8	712.7	724.2	682.5	666.8	641.6	623.5	608.6	594.9	565.6	528.7	508.6	449.3	427.0	404.8	391.6	380.7	367.5	356.5	346.5	335.0	316.0	293.5	271.0	246.4	238.2	244.1	187.2	123.5	92.44	68.43	55.42	65.12	163.9	378.8	1173	6097	8911	290.2	15.05	5.512	4.307	3.635	3.269	3.243	3.232	2.863	2.914	3.548	3.390	3.696	3.638	3.619	3.786	3.769	3.992	3.845	3.833	3.677	3.648	3.650	3.795	3.672	3.567	3.671	3.386	3.790	3.657	3.519	3.660	3.657	3.777	3.430	3.620
425.0	348.1	507.3	626.3	661.6	685.2	697.7	676.9	652.2	641.2	616.5	601.2	575.9	548.9	514.1	485.7	426.0	404.6	386.8	377.4	362.5	350.7	345.6	335.0	328.9	314.8	292.7	271.3	247.8	231.4	229.5	215.2	144.2	99.64	74.69	56.78	47.16	61.00	102.4	276.8	1669	7511	7569	251.4	9.246	5.161	4.067	3.434	3.453	3.140	3.027	2.882	3.468	3.511	3.632	3.663	3.668	3.844	3.978	3.841	3.897	3.715	3.521	3.580	3.881	3.708	3.668	3.475	3.523	3.418	3.716	3.621	3.827	3.632	3.743	3.617	3.469	3.550
430.0	359.6	492.5	594.8	639.4	666.2	656.9	668.6	645.6	627.4	611.0	589.8	564.1	525.7	488.1	460.6	408.5	386.9	365.7	353.2	343.8	336.7	328.4	320.5	316.6	305.0	286.9	269.7	252.7	232.3	216.5	208.8	178.3	122.7	85.95	64.34	50.78	43.45	44.68	78.47	386.1	2018	5806	6540	1076	18.43	5.587	3.980	3.978	3.362	2.979	2.774	3.597	3.558	3.514	3.508	3.597	3.880	3.973	3.936	3.875	3.669	3.498	3.766	3.695	3.681	3.741	3.583	3.458	3.598	3.560	3.526	3.442	3.506	3.642	3.280	3.400	3.458
435.0	485.6	460.4	557.8	604.6	645.8	633.7	651.2	642.4	619.7	604.6	576.5	543.0	501.8	470.3	434.6	387.4	359.9	346.4	336.7	326.8	319.4	313.6	310.3	303.5	296.6	279.5	267.6	252.3	235.1	213.8	192.2	183.0	155.3	102.4	73.37	57.14	43.62	36.62	37.83	101.3	461.2	1333	3712	8417	1860	24.13	5.368	4.620	3.842	3.348	2.943	3.519	3.354	3.808	3.560	3.745	3.917	3.671	4.044	3.756	3.777	3.773	3.784	3.529	4.009	3.721	3.569	3.304	3.519	3.563	3.320	3.298	3.369	3.472	3.085	3.344	3.284
440.0	708.4	474.4	539.9	590.8	631.6	626.0	630.7	614.9	602.8	591.4	558.4	534.3	484.2	452.9	414.3	367.9	344.8	332.0	322.4	311.7	305.6	302.8	298.8	292.1	286.4	275.8	260.7	251.6	234.1	215.3	188.0	171.9	164.7	123.1	82.62	62.02	47.78	36.22	30.25	39.57	116.4	308.9	935.5	5513	9024	1468	16.30	5.621	4.483	3.653	3.221	3.710	3.492	3.826	3.714	3.547	3.941	3.676	3.751	3.846	3.684	3.585	3.784	3.818	3.669	3.592	3.616	3.278	3.368	3.236	3.213	3.386	3.176	3.361	3.185	3.276	3.097
445.0	890.2	663.9	507.9	579.6	593.7	614.9	618.0	603.9	592.1	579.5	550.2	517.9	476.5	438.8	397.2	356.3	332.1	318.3	306.3	294.9	287.7	288.4	281.4	281.1	275.2	265.8	256.6	246.0	231.2	211.9	188.3	164.2	153.7	138.4	95.76	67.58	51.44	38.93	30.72	28.19	41.03	81.26	219.7	1506	7311	7970	228.8	11.54	5.281	4.025	3.425	3.747	3.534	3.643	3.580	3.648	3.824	3.736	3.552	4.038	3.750	3.481	3.526	3.728	3.597	3.448	3.459	3.185	3.173	3.187	3.151	3.125	2.958	3.087	3.069	3.212	3.106
450.0	730.5	1287	629.9	541.8	566.8	585.4	582.5	575.2	567.3	550.9	528.8	498.6	446.9	407.5	371.1	328.4	305.2	293.6	281.6	272.9	267.3	267.0	262.6	261.0	255.0	249.4	242.0	232.5	221.2	206.1	184.6	158.7	139.7	129.8	112.7	78.11	55.71	42.99	34.59	27.46	26.10	31.66	59.75	346.5	1939	5767	6693	1069	17.29	5.282	3.892	3.977	3.752	3.672	3.556	3.675	3.844	3.747	3.568	3.806	3.679	3.486	3.611	3.268	3.350	3.494	3.307	3.198	3.207	3.154	3.006	2.991	2.910	2.979	2.972	2.968	2.992
455.0	394.2	1632	1159	526.2	526.1	533.5	546.9	534.5	531.7	515.7	499.7	459.8	415.3	374.7	340.4	298.8	277.9	267.4	254.6	248.2	240.8	240.2	238.3	236.3	234.3	229.1	221.3	215.9	208.9	196.1	177.7	153.3	132.7	114.9	109.7	95.43	65.59	46.76	35.81	29.74	24.60	21.89	25.35	87.34	440.6	1318	3290	7577	1617	20.37	5.078	4.597	3.886	3.983	3.478	3.442	3.464	3.658	3.278	3.602	3.714	3.413	3.528	3.064	3.545	3.313	3.111	3.143	3.056	2.932	2.733	2.760	2.874	2.777	2.722	2.705	2.753
460.0	261.5	1321	2361	655.6	495.5	496.0	512.0	507.9	500.5	490.1	479.3	436.3	389.8	349.5	317.7	279.8	259.4	247.9	237.0	227.3	222.8	221.5	220.8	219.0	216.0	214.2	207.7	202.0	197.2	186.6	169.3	147.9	128.2	109.3	97.32	97.45	74.47	50.14	38.24	30.86	24.72	21.02	18.32	30.31	107.3	302.7	800.7	4499	7336	1233	15.76	5.689	4.360	4.175	3.718	3.506	3.473	3.605	3.443	3.410	3.373	3.491	3.150	3.071	3.297	3.157	2.925	2.946	2.644	2.672	2.561	2.713	2.567	2.632	2.467	2.461	2.511
465.0	227.2	738.0	2957	1230	471.6	484.3	489.1	479.7	474.4	463.7	449.4	411.6	372.9	329.8	299.2	258.0	244.6	227.6	215.9	207.8	207.8	205.0	206.2	202.7	203.6	200.2	194.0	190.0	184.1	175.3	161.0	142.8	124.0	105.0	88.70	87.61	80.90	56.06	40.58	32.17	25.70	21.95	17.83	17.80	33.90	76.60	187.2	1181	5628	6444	198.8	13.05	4.831	4.306	3.804	3.650	3.712	3.577	3.359	3.290	3.114	3.264	3.052	3.143	3.183	2.919	2.969	2.926	2.564	2.581	2.732	2.422	2.584	2.681	2.611	2.555	2.505
470.0	217.7	395.7	2054	2780	596.3	440.9	442.2	439.8	433.9	429.8	411.5	377.1	339.5	301.5	268.7	238.1	216.9	206.5	195.7	186.8	183.9	182.1	183.2	182.1	181.2	177.9	175.1	171.1	168.3	162.0	148.8	133.6	115.9	98.26	82.92	74.58	72.50	63.84	45.77	34.02	27.27	22.23	18.15	16.22	17.77	26.04	49.51	271.2	1464	4333	4886	1041	18.37	5.212	4.223	3.878	3.719	3.477	3.390	3.152	3.191	3.160	3.012	2.990	2.937	2.668	2.639	2.560	2.471	2.638	2.469	2.354	2.331	2.347	2.355	2.378	2.235
475.0	240.2	278.3	838.0	3205	1921	403.3	394.7	400.6	389.7	385.1	370.2	339.3	305.8	270.9	242.8	211.0	191.6	181.9	174.7	165.0	163.1	161.3	161.0	161.7	160.4	157.2	156.2	153.6	149.7	147.3	135.8	122.2	106.2	90.94	78.88	67.23	60.80	60.17	52.61	37.61	27.66	22.00	18.29	15.93	14.65	14.67	18.72	67.43	332.1	981.1	2119	5636	1615	24.21	4.754	4.366	3.645	3.627	3.227	2.870	2.851	2.983	2.726	2.971	2.574	2.527	2.465	2.290	2.512	2.381	2.170	2.240	2.280	2.179	2.076	2.121	2.101
480.0	245.2	257.2	406.6	2304	3430	526.3	366.4	378.6	365.7	359.5	341.4	319.1	280.3	254.9	222.4	194.7	178.2	169.6	161.0	152.0	149.4	147.9	147.4	147.7	146.5	145.0	144.7	140.2	138.5	134.7	125.8	114.8	100.3	87.28	75.21	63.55	56.08	52.95	53.08	41.72	28.78	22.64	18.96	16.09	13.57	12.74	12.27	21.83	80.11	224.3	507.1	3143	5431	1370	17.72	4.917	3.829	3.686	3.267	2.846	2.944	2.930	2.847	2.766	2.530	2.619	2.436	2.349	2.331	2.126	2.048	2.190	2.065	2.221	2.029	2.160	1.921
485.0	216.7	257.3	292.1	1174	4117	1346	342.7	347.5	345.5	341.7	317.1	298.9	264.3	239.4	208.8	182.2	166.4	157.5	149.5	143.1	137.5	135.5	135.4	135.7	135.5	135.2	134.0	130.9	128.3	126.9	119.7	107.4	94.55	83.20	71.49	61.86	52.84	47.18	48.40	45.27	32.34	23.66	19.40	16.45	13.88	12.39	10.87	11.96	23.60	55.44	118.4	813.8	3803	5330	237.1	11.92	4.707	3.720	3.226	2.994	2.968	2.764	2.746	2.597	2.767	2.639	2.468	2.209	2.185	2.183	2.036	2.154	1.865	2.199	1.886	2.044	2.001
490.0	174.0	259.9	272.5	503.6	2772	3325	585.9	321.2	316.6	309.6	297.3	275.3	244.6	216.4	189.8	166.2	152.2	141.3	135.4	129.7	124.6	122.4	121.1	123.3	122.9	121.8	120.0	118.6	117.8	115.9	110.0	98.13	87.80	78.05	67.29	58.95	50.28	44.41	41.11	41.78	37.83	26.79	20.07	16.63	14.19	12.65	10.79	10.15	11.27	17.89	31.28	187.0	970.2	3185	4496	1091	19.94	4.994	3.914	3.344	3.168	2.993	2.465	2.556	2.563	2.409	2.250	2.087	2.085	1.999	1.974	1.988	1.894	1.862	1.773	1.739	1.762
495.0	130.1	245.4	275.1	310.5	1026	4024	1884	309.2	284.1	282.1	268.6	251.8	217.5	197.4	170.6	149.7	134.1	126.6	120.5	113.8	111.1	109.2	108.5	108.5	108.8	109.5	107.5	104.9	106.3	102.8	98.90	89.98	80.35	71.08	61.25	54.22	47.50	41.29	36.52	34.55	35.68	31.78	21.88	16.67	14.38	12.92	11.17	10.22	8.940	9.611	11.78	46.07	220.5	720.4	2024	5464	1895	27.43	4.650	3.679	3.093	2.923	2.605	2.388	2.490	2.456	2.132	2.064	2.163	1.809	1.887	1.817	1.828	1.759	1.629	1.768	1.545
500.0	125.9	209.8	280.6	257.9	433.8	2833	3416	382.8	261.8	258.8	247.6	232.1	202.5	179.2	156.4	134.3	122.9	116.3	112.0	103.8	102.4	99.14	98.51	98.26	96.42	95.56	97.05	96.41	96.41	95.35	89.18	82.39	74.59	66.84	58.09	50.27	45.00	38.99	34.43	31.42	30.65	32.74	25.57	17.14	14.69	12.95	11.01	9.808	8.495	7.603	7.539	14.67	53.46	165.1	482.2	2802	5855	1547	20.32	4.510	3.429	2.878	2.529	2.504	2.611	2.126	2.063	2.008	2.027	1.835	1.649	1.712	1.768	1.664	1.591	1.644	1.631
505.0	120.0	172.6	278.1	237.6	269.7	1369	4434	1162	247.8	237.1	229.0	207.7	186.4	164.8	144.9	123.8	112.5	105.8	102.1	95.83	92.13	90.60	89.30	89.82	88.86	89.38	87.62	87.75	87.14	86.25	83.27	74.17	68.61	60.92	53.32	47.01	41.76	37.47	32.66	28.78	25.76	28.55	27.82	19.24	14.32	12.26	10.46	9.322	8.344	7.233	6.466	7.734	15.98	41.02	112.3	702.2	3741	5306	269.5	12.44	3.823	2.966	2.589	2.585	2.488	2.001	1.934	1.865	1.938	1.715	1.728	1.559	1.586	1.687	1.575	1.547	1.511
510.0	108.4	138.9	233.0	244.4	209.3	496.4	3040	3430	420.4	216.5	206.2	185.9	165.1	146.3	127.7	111.9	100.2	92.61	88.73	84.05	81.53	79.50	78.35	78.13	77.33	77.13	76.27	76.39	76.55	75.36	72.49	67.04	60.13	54.09	47.53	42.54	38.06	33.31	29.51	26.17	23.22	22.87	24.87	22.52	15.87	12.36	10.34	8.935	7.947	7.219	6.153	6.098	7.246	12.73	28.79	160.7	936.9	2930	3828	1172	20.08	3.739	2.931	2.575	2.280	2.027	1.851	1.709	1.715	1.589	1.540	1.410	1.518	1.492	1.368	1.375	1.422
515.0	97.24	117.7	170.8	253.4	198.6	242.0	1067	4848	1675	198.9	180.1	165.8	143.7	127.0	112.1	99.12	88.69	78.81	76.62	72.93	73.07	67.81	68.08	66.15	66.45	66.61	66.37	65.75	67.04	66.01	62.94	57.27	52.74	47.64	42.10	38.12	33.69	28.91	26.61	23.71	20.84	19.67	19.05	21.07	19.14	13.29	10.24	8.817	7.511	6.644	6.072	6.108	5.299	6.154	9.920	39.27	212.0	659.8	1527	4333	1823	27.22	3.683	2.694	2.388	2.259	1.783	1.621	1.514	1.625	1.471	1.438	1.327	1.336	1.297	1.273	1.279
520.0	91.58	102.6	136.5	226.2	206.1	173.1	384.0	3588	3652	266.6	162.1	147.3	131.2	113.8	98.50	87.90	80.31	72.50	67.68	64.75	63.79	60.41	61.40	59.71	59.69	58.55	58.77	58.36	59.37	58.32	55.39	52.61	48.16	43.29	37.79	34.43	30.56	27.51	24.25	22.17	19.92	17.63	16.19	17.51	19.26	14.62	10.29	8.299	7.384	6.618	5.728	5.505	5.036	4.673	5.369	11.76	50.22	150.7	357.5	2095	4322	1350	19.63	3.247	2.447	2.094	1.840	1.785	1.685	1.561	1.366	1.415	1.267	1.320	1.243	1.257	1.164
525.0	81.15	106.5	121.3	183.7	219.7	154.3	204.2	1679	5107	963.0	150.3	136.7	118.5	104.3	89.97	79.72	72.42	66.01	62.41	58.86	56.44	54.68	55.46	54.50	53.94	52.98	51.73	53.36	52.56	52.36	50.21	46.74	42.47	38.77	34.72	31.65	28.04	25.06	22.26	20.67	18.25	16.06	14.87	14.47	16.98	16.00	11.11	8.207	7.114	6.011	5.490	5.076	4.977	4.491	3.959	5.360	14.09	36.66	83.21	513.8	2535	3862	275.2	10.73	2.652	2.210	1.821	1.765	1.655	1.528	1.304	1.299	1.272	1.291	1.269	1.085	1.167
530.0	66.44	89.46	104.2	133.2	205.1	161.0	145.6	524.9	3574	3171	311.5	122.4	106.1	92.00	78.92	68.95	61.58	57.00	53.23	52.03	48.87	47.11	47.24	46.50	46.11	45.29	45.09	45.43	45.54	44.96	43.26	40.56	36.93	33.40	30.98	27.55	24.54	22.18	20.00	18.35	15.88	14.64	13.11	12.29	12.94	14.55	13.16	8.993	6.642	5.848	5.226	4.772	4.476	4.353	4.093	3.935	5.818	10.86	21.22	117.5	621.1	2010	2481	1130	19.45	3.015	2.083	1.716	1.568	1.349	1.329	1.227	1.190	1.257	1.218	1.040	1.128
535.0	62.39	80.92	83.91	100.1	157.9	187.1	124.3	209.2	1168	4804	1425	114.9	93.34	79.92	70.36	60.97	52.11	49.17	45.45	44.36	41.08	39.81	41.37	39.51	39.22	38.34	39.45	38.25	37.98	38.37	37.36	35.19	31.13	29.12	26.30	23.84	22.09	19.29	17.45	16.07	14.42	13.04	11.50	10.43	10.52	10.68	12.39	10.07	7.030	5.470	4.963	4.517	3.895	3.811	3.895	3.814	3.371	4.633	7.079	28.49	141.0	452.1	992.0	3075	1631	26.01	2.767	1.862	1.406	1.342	1.314	1.189	1.161	1.193	1.128	1.033	0.994
540.0	56.84	74.65	82.38	91.28	117.4	188.9	121.9	126.4	362.7	3373	3622	171.4	82.22	71.86	62.97	52.65	46.77	42.83	40.19	38.93	36.45	36.07	35.33	34.94	33.81	34.73	34.00	33.26	34.02	32.98	32.65	30.36	27.72	25.63	22.92	20.96	19.31	17.74	15.95	14.48	12.90	11.61	10.29	9.843	9.201	8.475	9.979	10.83	7.499	5.150	4.471	4.093	3.628	3.611	3.631	3.728	3.162	3.148	3.521	8.665	33.80	103.0	231.1	1414	3258	1068	18.23	2.350	1.580	1.464	1.223	1.044	1.204	1.040	1.093	0.962	1.085
545.0	58.48	68.57	82.17	81.42	87.19	165.3	137.7	100.9	151.9	1417	5137	710.9	75.18	65.51	53.83	46.04	42.45	39.33	36.32	34.37	31.93	31.25	31.08	29.92	29.92	30.48	29.84	29.78	30.40	29.47	28.87	26.85	24.82	22.32	20.85	18.71	17.06	15.56	14.68	13.00	12.11	10.29	9.411	9.220	8.343	7.431	7.869	9.696	8.497	5.565	4.252	3.989	3.324	3.321	2.982	3.322	3.421	2.730	2.751	3.991	9.574	24.96	53.96	342.1	1820	2555	274.0	8.322	1.853	1.369	1.386	1.193	1.203	0.991	0.971	0.911	1.018
550.0	56.50	65.46	71.02	69.55	71.60	112.6	153.2	94.04	94.61	412.8	3365	2882	128.2	55.45	47.02	39.67	36.25	33.91	30.78	28.74	26.83	26.25	26.03	25.51	25.13	24.51	24.92	24.64	25.08	25.03	23.62	21.91	20.75	18.96	17.30	16.00	14.50	13.33	11.82	11.03	10.07	9.006	8.591	7.600	7.034	6.604	6.184	6.837	7.703	6.673	4.485	3.500	3.101	3.108	2.756	2.909	3.126	2.816	2.426	2.670	3.972	7.390	13.80	78.31	440.5	1344	1976	838.4	18.85	2.096	1.386	1.324	1.099	0.996	0.961	0.918	0.961
555.0	69.08	57.40	69.73	59.81	63.33	73.68	133.4	106.9	71.50	142.3	995.8	4677	1012	48.43	38.44	33.06	29.43	26.83	25.19	24.38	22.60	21.43	21.12	20.72	20.63	19.48	20.55	20.67	19.87	20.61	18.98	17.78	16.89	15.28	14.25	13.04	11.91	10.65	10.08	9.058	8.480	7.326	6.959	6.494	5.997	5.499	5.306	4.953	5.659	6.128	5.059	3.504	2.836	2.728	2.326	2.541	2.652	2.725	2.611	2.449	2.392	3.067	4.614	19.08	99.83	302.0	706.1	2001	1143	25.66	1.748	1.300	1.094	1.056	0.928	0.804	0.769
560.0	58.84	54.62	64.77	51.22	51.07	58.71	93.98	124.1	63.39	76.08	281.3	3174	3150	90.65	33.81	28.05	25.38	23.12	21.99	20.60	19.10	18.42	18.04	18.05	17.84	16.73	16.89	16.31	16.75	17.27	16.36	15.48	14.27	12.93	12.18	10.90	10.44	9.226	8.464	7.983	7.165	6.815	5.830	5.964	5.410	5.067	4.683	4.099	4.424	5.147	5.275	3.911	2.743	2.430	2.079	2.282	2.183	2.251	2.629	2.280	1.948	2.031	2.428	5.774	23.77	68.97	163.0	853.2	2019	306.8	17.23	1.433	1.205	1.119	0.907	0.840	0.757
565.0	56.40	56.80	56.54	48.21	44.11	48.05	69.08	126.3	70.83	60.31	105.5	1233	4677	487.3	30.71	25.27	22.40	20.10	18.11	17.75	15.94	16.03	15.21	15.51	14.76	14.75	14.46	15.03	14.60	14.16	13.98	13.03	12.22	11.53	10.31	9.319	8.871	8.170	7.177	6.541	6.425	5.647	5.256	5.187	4.525	4.382	3.950	3.674	3.490	4.045	4.524	4.115	2.720	2.347	2.061	2.070	1.988	1.985	2.181	2.356	1.914	1.736	1.848	2.757	6.681	16.85	38.12	202.1	1018	1638	268.2	7.529	1.362	1.036	0.989	0.862	0.823
570.0	56.57	58.27	54.87	44.51	38.67	38.32	45.94	93.98	91.65	52.35	62.60	336.9	3004	2237	74.13	21.96	19.16	16.82	15.35	14.41	13.15	12.97	12.55	12.69	11.88	12.02	11.66	11.95	12.13	11.67	11.46	10.67	10.21	9.122	8.497	7.645	7.147	6.654	6.146	5.669	5.274	4.720	4.526	4.207	4.038	3.582	3.536	3.113	3.005	2.743	3.168	3.701	3.056	2.359	1.795	1.768	1.701	1.686	1.760	2.022	2.117	1.729	1.619	1.857	2.818	4.983	9.818	46.58	241.7	760.5	1184	545.7	19.14	1.486	1.067	0.842	0.834
575.0	55.86	59.51	52.11	40.12	33.77	35.50	36.73	58.77	110.1	58.85	50.15	109.8	856.4	3647	745.4	20.95	16.22	13.39	12.43	11.95	10.78	10.54	10.71	10.42	10.03	9.031	9.412	9.134	9.603	9.203	9.158	8.703	7.786	7.402	6.978	6.227	5.997	5.380	4.964	4.510	4.291	3.851	3.861	3.342	3.492	2.900	2.906	2.699	2.530	2.170	2.197	2.604	3.035	2.637	1.767	1.511	1.528	1.664	1.544	1.472	1.903	2.091	1.547	1.566	1.835	2.266	3.373	11.60	55.06	170.8	374.6	1106	787.8	26.22	1.367	1.097	0.837
580.0	66.49	56.51	54.19	43.17	34.57	33.39	30.48	40.80	96.62	78.04	46.41	59.51	231.9	2391	2402	49.71	14.63	11.53	10.97	10.38	9.327	9.052	8.798	9.411	8.146	8.243	8.241	7.734	7.667	8.115	7.555	7.706	6.610	6.066	5.919	5.224	5.090	4.543	4.373	3.924	3.642	3.429	3.342	3.099	2.835	2.781	2.604	2.371	2.378	1.986	1.818	2.028	2.599	2.590	2.067	1.476	1.428	1.440	1.422	1.394	1.585	1.853	1.790	1.487	1.543	1.620	1.793	3.642	13.57	39.26	85.89	428.5	1203	307.2	17.82	1.258	0.852
585.0	57.72	64.82	53.21	39.20	31.32	29.49	28.75	34.76	74.43	96.73	48.92	48.11	82.17	891.5	3460	308.9	13.77	11.44	10.21	9.215	8.507	8.046	7.086	7.705	7.454	7.038	7.059	6.744	7.129	7.066	6.595	6.788	6.028	5.508	5.136	4.435	4.390	3.814	3.885	3.446	3.323	3.002	2.963	2.764	2.476	2.270	2.301	2.170	1.949	1.799	1.609	1.699	2.095	2.373	2.205	1.614	1.383	1.458	1.350	1.320	1.446	1.397	1.895	1.770	1.436	1.470	1.393	1.753	4.149	9.858	20.30	99.95	540.1	1032	256.4	7.796	1.120
590.0	60.71	59.81	55.08	36.79	29.09	28.71	26.28	31.70	47.65	94.50	65.47	47.41	49.33	241.5	2137	1556	45.15	10.47	9.119	8.224	7.009	6.882	6.367	6.332	6.497	6.206	5.788	5.611	5.559	5.620	5.585	5.284	5.009	4.627	4.096	3.679	3.724	3.303	3.317	2.937	2.836	2.658	2.508	2.378	2.270	1.999	1.984	1.750	1.647	1.560	1.430	1.416	1.526	1.874	2.088	1.797	1.428	1.263	1.128	1.186	1.266	1.176	1.510	1.683	1.601	1.289	1.115	1.295	1.970	3.157	5.557	23.22	125.8	424.3	701.5	375.5	20.03
595.0	64.99	54.40	56.40	36.06	26.26	26.73	25.85	28.65	38.72	69.10	89.43	50.92	42.58	77.93	594.0	2469	505.1	10.96	8.213	7.000	5.931	5.872	5.449	5.044	5.234	5.296	4.698	4.756	4.794	4.958	4.298	4.408	4.130	3.802	3.722	3.342	3.065	2.875	2.779	2.344	2.298	2.126	2.060	1.940	1.770	1.763	1.798	1.658	1.566	1.311	1.212	1.375	1.175	1.377	1.702	1.966	1.547	1.167	1.227	1.067	0.990	1.006	1.154	1.226	1.720	1.693	1.095	1.245	1.336	1.544	1.976	5.984	28.80	95.34	202.7	636.6	338.1
600.0	57.48	61.25	54.83	34.29	27.73	25.46	27.02	27.99	35.15	52.53	97.22	58.09	42.41	42.41	157.1	1625	1585	29.00	7.397	6.799	5.214	5.160	4.915	4.691	4.698	4.529	4.006	4.179	4.395	3.991	4.113	3.830	3.490	3.247	2.991	2.815	2.769	2.414	2.312	2.121	2.002	1.805	1.754	1.664	1.613	1.575	1.543	1.513	1.318	1.200	1.205	1.097	1.032	1.072	1.358	1.586	1.567	1.279	1.007	1.031	0.968	0.870	1.093	1.183	1.248	1.484	1.220	1.143	1.109	1.079	1.325	2.060	7.166	21.97	46.36	226.7	652.2
605.0	53.46	58.00	54.70	36.09	28.97	23.83	24.83	29.51	34.37	44.54	88.32	73.93	44.65	35.15	53.17	602.0	2321	87.17	7.300	5.943	4.713	4.819	4.233	4.035	3.730	3.867	3.646	3.586	3.875	3.512	3.640	3.384	2.971	2.801	2.735	2.422	2.272	2.231	1.924	2.025	1.747	1.693	1.544	1.622	1.408	1.391	1.324	1.259	1.222	1.041	1.011	1.098	1.025	0.963	0.957	1.363	1.590	1.300	1.086	0.956	0.923	0.926	0.919	0.954	0.985	1.295	1.401	1.133	1.027	0.983	0.979	1.257	2.382	5.520	11.07	52.54	273.4
610.0	52.04	56.27	52.44	36.92	25.97	24.19	25.21	30.23	35.96	41.40	68.20	95.26	51.81	35.74	30.82	158.2	1475	1123	30.63	5.728	4.459	4.177	3.672	3.582	3.401	3.197	3.162	3.090	3.106	3.082	2.860	2.746	2.540	2.469	2.323	2.141	2.039	1.859	1.812	1.671	1.462	1.378	1.313	1.324	1.257	1.242	1.160	1.133	1.193	0.997	0.849	0.918	0.862	0.833	0.917	1.003	1.377	1.287	1.026	0.993	0.843	0.893	0.879	0.928	1.003	1.068	1.305	1.171	1.098	0.956	0.880	0.946	1.184	1.830	3.136	12.33	63.20
615.0	45.95	58.99	50.27	33.86	26.66	24.50	26.52	30.66	37.14	42.75	53.84	88.88	64.52	36.72	28.98	47.90	406.7	1843	380.4	5.828	4.112	3.688	3.543	3.190	2.924	2.815	2.931	2.517	2.552	2.504	2.382	2.281	2.296	2.026	2.000	1.844	1.867	1.685	1.628	1.361	1.354	1.242	1.207	1.220	1.103	1.090	1.300	1.052	1.069	0.963	0.855	0.832	0.762	0.765	0.848	0.869	1.025	1.104	0.997	1.010	0.928	0.862	0.830	0.861	0.823	0.886	0.973	1.103	1.261	0.962	0.818	0.807	0.914	0.990	1.326	3.265	14.61
620.0	55.23	57.30	47.62	35.87	23.45	20.68	24.07	31.08	34.69	41.22	51.75	77.19	74.21	39.73	26.81	24.44	104.3	1273	1221	14.44	4.316	3.498	3.192	3.048	2.788	2.469	2.512	2.295	2.211	2.417	2.132	2.011	1.960	1.921	1.903	1.728	1.600	1.503	1.496	1.388	1.240	1.176	0.968	1.050	0.907	0.855	1.060	1.023	0.793	0.855	0.850	0.649	0.710	0.721	0.755	0.802	0.774	0.879	0.984	0.907	0.761	0.790	0.915	0.819	0.865	0.820	0.859	0.914	1.319	1.038	0.746	0.853	0.785	0.786	0.810	1.232	3.800
625.0	53.50	56.27	44.64	38.22	23.79	23.05	25.76	27.78	34.95	41.85	48.78	66.85	83.09	43.46	28.11	18.29	32.30	497.6	1936	64.43	4.454	3.250	2.569	2.694	2.444	2.028	2.283	2.121	2.239	1.950	2.039	2.054	1.927	1.582	1.567	1.581	1.405	1.442	1.309	1.257	1.100	1.109	0.894	0.967	0.986	1.000	0.904	1.002	0.751	0.784	0.792	0.652	0.610	0.566	0.693	0.721	0.767	0.724	0.907	1.016	0.853	0.657	0.817	0.707	0.799	0.819	0.900	0.918	1.064	1.182	0.957	0.836	0.782	0.700	0.654	0.812	1.347
630.0	49.70	53.48	48.95	37.60	23.96	22.67	24.29	28.67	36.55	42.40	49.05	59.21	74.72	55.50	29.81	18.02	15.76	128.3	1388	870.9	14.86	3.284	2.824	2.413	2.214	2.154	1.933	1.968	1.938	1.796	1.839	1.863	1.658	1.591	1.501	1.312	1.429	1.331	1.193	1.107	1.056	0.968	0.860	0.922	0.852	0.892	0.884	0.914	0.754	0.698	0.670	0.622	0.602	0.593	0.630	0.688	0.724	0.656	0.799	0.887	0.909	0.755	0.800	0.764	0.780	0.868	0.823	0.802	0.823	0.948	1.047	0.914	0.741	0.712	0.664	0.654	0.813
635.0	44.79	57.84	45.74	34.50	24.02	20.71	22.78	25.87	36.02	42.67	47.62	56.70	60.40	65.66	33.69	17.53	12.33	34.59	406.4	1579	68.94	3.441	2.752	2.281	1.936	2.045	1.984	1.664	1.665	1.734	1.520	1.729	1.577	1.414	1.363	1.283	1.287	1.132	1.024	0.995	0.962	0.849	0.916	0.792	0.833	0.782	0.794	0.888	0.712	0.677	0.559	0.537	0.641	0.672	0.655	0.703	0.690	0.627	0.670	0.770	0.924	0.872	0.825	0.729	0.819	0.692	0.800	0.810	0.710	0.746	0.873	0.988	0.764	0.686	0.657	0.622	0.702
640.0	50.61	60.12	46.76	34.62	25.50	22.76	23.65	27.98	36.45	41.73	48.09	57.06	55.62	63.27	39.24	18.05	12.18	14.27	103.0	1206	514.1	6.635	2.606	2.201	2.065	1.831	1.920	1.450	1.608	1.645	1.449	1.498	1.311	1.368	1.331	1.198	1.281	1.107	0.959	0.956	0.910	0.894	0.853	0.807	0.737	0.754	0.714	0.833	0.701	0.681	0.584	0.596	0.576	0.587	0.605	0.690	0.693	0.627	0.707	0.668	0.725	0.814	0.793	0.700	0.787	0.696	0.728	0.733	0.798	0.699	0.797	0.904	0.875	0.756	0.668	0.687	0.613
645.0	47.90	57.00	52.31	38.21	24.03	22.74	23.26	27.68	35.20	41.11	49.31	55.50	52.81	54.85	44.31	20.11	12.74	10.08	28.92	518.6	1164	43.03	2.674	2.334	1.847	1.809	1.669	1.463	1.393	1.628	1.465	1.479	1.419	1.268	1.277	1.399	1.159	0.956	1.123	0.908	0.808	0.918	0.878	0.754	0.825	0.728	0.680	0.742	0.820	0.633	0.584	0.669	0.575	0.555	0.552	0.594	0.607	0.637	0.658	0.568	0.664	0.801	0.813	0.739	0.738	0.785	0.760	0.766	0.799	0.772	0.691	0.862	0.874	0.906	0.569	0.711	0.669
650.0	53.63	49.82	51.37	36.93	25.86	23.27	24.55	27.18	33.86	40.51	49.24	54.28	51.90	48.67	49.16	21.71	12.32	9.885	12.23	145.8	1190	309.8	3.204	2.313	1.973	1.849	1.574	1.637	1.417	1.523	1.559	1.437	1.463	1.271	1.302	1.312	1.102	1.120	1.042	0.777	0.767	0.900	0.773	0.740	0.783	0.749	0.681	0.682	0.731	0.643	0.601	0.648	0.607	0.590	0.534	0.534	0.524	0.594	0.679	0.664	0.728	0.797	0.759	0.831	0.707	0.678	0.749	0.796	0.783	0.793	0.690	0.792	0.833	0.806	0.592	0.651	0.724
