Sample:	'1
File name:	t2025061911恒业四路雨洪口.FD3
Run date:	'15:30:52, 06/23/2025
Operator:	Administrator
Comment:	'

Instrument
Model:	F-2700 FL Spectrophotometer
Serial number:	23B8-004
ROM Version:	4J14000 07

Instrument parameters
Measurement type:	3-D scan
Data mode:	Fluorescence
EX  Start WL:	220.0 nm
EX  End WL:	600.0 nm
EX Sampling interval:	5.0 nm
EM  Start WL:	230.0 nm
EM  End WL:	650.0 nm
EM Sampling interval:	5.0 nm
Scan speed:	12000 nm/min
EX Slit:	5.0 nm
EM Slit:	5.0 nm
PMT Voltage:	700 V
Response:	Auto 
Corrected spectra:	Off
Contour interval:	50.000

Peak integration
Integration method:	Rectangular
Sensitivity:	1
Threshold:	1.000

Peaks
No.	ApexEX/EM(nm)	Height(Data)
1	225.0/575.0	113.3
2	225.0/620.0	71.70
3	225.0/640.0	63.25
4	230.0/345.0	1981
5	230.0/360.0	2024
6	240.0/265.0	376.9
7	240.0/385.0	2239
8	245.0/270.0	423.4
9	250.0/275.0	573.0
10	255.0/280.0	585.5
11	255.0/560.0	208.7
12	260.0/290.0	621.6
13	260.0/570.0	164.4
14	265.0/585.0	135.5
15	270.0/300.0	1104
16	270.0/600.0	120.1
17	275.0/305.0	1185
18	275.0/610.0	97.64
19	280.0/625.0	78.21
20	285.0/320.0	983.6
21	285.0/635.0	54.56
22	455.0/340.0	5.333
23	460.0/345.0	5.265
24	505.0/275.0	3.346
25	510.0/280.0	3.473
26	510.0/390.0	8.842
27	515.0/400.0	8.663
28	520.0/285.0	3.787
29	530.0/290.0	3.624
30	530.0/385.0	8.910
31	540.0/295.0	4.930
32	545.0/300.0	6.099
33	550.0/305.0	6.175
34	560.0/310.0	5.680
35	570.0/315.0	5.543
36	580.0/320.0	5.451
37	585.0/325.0	5.163

Data points
	220.0	225.0	230.0	235.0	240.0	245.0	250.0	255.0	260.0	265.0	270.0	275.0	280.0	285.0	290.0	295.0	300.0	305.0	310.0	315.0	320.0	325.0	330.0	335.0	340.0	345.0	350.0	355.0	360.0	365.0	370.0	375.0	380.0	385.0	390.0	395.0	400.0	405.0	410.0	415.0	420.0	425.0	430.0	435.0	440.0	445.0	450.0	455.0	460.0	465.0	470.0	475.0	480.0	485.0	490.0	495.0	500.0	505.0	510.0	515.0	520.0	525.0	530.0	535.0	540.0	545.0	550.0	555.0	560.0	565.0	570.0	575.0	580.0	585.0	590.0	595.0	600.0
230.0	94.05	1377	2242	459.0	18.35	7.671	6.244	4.953	4.225	4.106	3.666	3.884	3.197	2.436	2.196	1.766	1.652	1.458	1.398	1.309	1.141	1.093	1.035	0.873	0.880	0.747	0.779	0.668	0.743	0.688	0.635	0.644	0.617	0.568	0.572	0.481	0.465	0.421	0.374	0.429	0.487	0.588	0.608	0.422	0.348	0.403	1.815	6.137	8.097	4.756	1.434	0.400	0.281	0.250	0.286	0.287	0.283	0.276	0.295	0.271	0.256	0.259	0.296	0.237	0.292	0.260	0.278	0.253	0.282	0.272	0.248	0.256	0.264	0.294	0.300	0.282	0.257
235.0	112.4	409.0	1784	2371	469.4	26.06	6.477	4.843	4.541	4.904	3.798	3.686	2.843	3.064	2.074	1.835	1.688	1.730	1.337	1.562	1.056	1.048	1.071	1.027	0.981	0.843	0.804	0.689	0.636	0.631	0.678	0.684	0.613	0.616	0.446	0.480	0.422	0.429	0.363	0.466	0.436	0.466	0.499	0.563	0.555	0.355	0.704	1.896	3.836	6.338	8.479	7.459	3.214	0.699	0.305	0.317	0.288	0.298	0.270	0.289	0.254	0.264	0.270	0.253	0.251	0.263	0.266	0.257	0.264	0.262	0.283	0.281	0.217	0.307	0.319	0.279	0.272
240.0	161.6	162.8	621.3	2475	2434	347.5	14.60	7.115	5.662	4.263	3.769	4.043	3.401	2.857	2.235	1.708	1.817	1.642	1.521	1.479	1.071	1.238	1.138	0.945	0.929	0.814	0.867	0.792	0.795	0.640	0.738	0.669	0.594	0.623	0.581	0.383	0.368	0.439	0.421	0.417	0.407	0.483	0.484	0.510	0.744	0.533	0.509	0.751	1.130	2.277	5.540	12.26	12.91	7.281	2.147	0.461	0.281	0.284	0.279	0.259	0.249	0.254	0.238	0.271	0.271	0.259	0.312	0.226	0.341	0.249	0.230	0.273	0.249	0.251	0.321	0.289	0.287
245.0	146.3	199.9	188.0	979.2	3236	2312	237.2	9.915	6.403	4.739	4.703	4.132	3.853	3.243	2.568	1.695	1.823	1.529	1.614	1.244	1.183	1.211	1.025	0.944	0.895	0.952	0.906	0.807	0.815	0.548	0.926	0.586	0.546	0.557	0.503	0.487	0.450	0.495	0.405	0.449	0.426	0.367	0.418	0.384	0.580	0.706	0.836	0.668	0.556	0.753	1.589	4.775	11.05	16.08	13.72	6.202	1.434	0.363	0.241	0.266	0.240	0.318	0.272	0.250	0.288	0.252	0.293	0.252	0.312	0.351	0.237	0.291	0.253	0.259	0.258	0.295	0.285
250.0	67.48	174.5	218.9	291.8	1171	2968	3153	887.1	40.62	6.667	6.564	4.871	3.935	3.149	2.758	2.284	1.964	1.782	1.666	1.433	1.222	1.228	1.027	1.073	0.958	0.830	0.817	0.772	0.878	0.638	0.735	0.643	0.618	0.580	0.493	0.467	0.454	0.474	0.447	0.464	0.434	0.399	0.438	0.394	0.441	0.475	0.612	0.843	0.958	0.729	0.764	1.353	2.897	5.812	10.36	15.03	18.46	14.70	6.985	1.718	0.358	0.361	0.301	0.321	0.282	0.224	0.294	0.271	0.299	0.273	0.284	0.280	0.271	0.277	0.258	0.280	0.313
255.0	43.10	64.49	200.7	299.3	328.9	835.9	3217	4999	303.0	35.42	8.254	5.950	4.539	3.687	3.428	2.779	2.437	1.798	1.768	1.668	1.168	1.180	1.248	1.125	1.023	0.866	0.890	0.877	0.811	0.849	0.803	0.664	0.603	0.502	0.528	0.518	0.484	0.517	0.454	0.545	0.469	0.413	0.442	0.392	0.406	0.475	0.446	0.403	0.737	0.848	1.248	1.258	1.036	1.547	2.601	3.949	8.020	18.53	29.25	24.17	10.22	1.752	0.333	0.381	0.319	0.284	0.292	0.242	0.276	0.262	0.294	0.287	0.282	0.278	0.297	0.317	0.329
260.0	43.07	32.78	93.01	298.0	285.9	250.9	1115	5024	5164	249.5	19.72	8.547	6.009	4.769	3.470	2.945	2.428	1.900	1.831	1.626	1.437	1.406	1.295	0.964	1.080	1.067	0.913	0.881	0.892	0.825	0.775	0.683	0.551	0.651	0.610	0.516	0.536	0.532	0.524	0.442	0.433	0.482	0.476	0.454	0.448	0.434	0.411	0.395	0.417	0.524	0.927	1.767	1.513	0.992	0.963	1.244	2.311	5.529	14.76	29.57	32.22	22.09	7.574	0.846	0.351	0.262	0.367	0.309	0.305	0.296	0.269	0.273	0.260	0.250	0.304	0.316	0.331
265.0	40.19	28.21	40.47	170.0	376.9	232.3	319.9	1954	6820	4990	185.8	11.09	7.639	5.590	4.197	3.195	2.955	2.188	2.307	1.747	1.662	1.314	1.264	1.167	1.121	1.164	0.912	0.850	0.808	0.856	0.839	0.833	0.701	0.639	0.558	0.512	0.607	0.535	0.444	0.563	0.401	0.469	0.487	0.444	0.382	0.457	0.341	0.371	0.374	0.376	0.496	1.024	1.697	1.813	1.386	0.772	0.985	1.690	3.885	9.449	22.55	40.20	31.76	18.79	3.808	0.424	0.332	0.337	0.330	0.283	0.267	0.279	0.364	0.298	0.256	0.322	0.263
270.0	63.33	50.36	40.83	80.31	249.3	423.4	311.3	526.9	2399	6299	5601	775.6	41.03	8.594	5.530	3.993	3.384	2.661	2.350	1.880	1.741	1.535	1.366	1.299	1.215	1.151	0.962	0.933	0.875	0.950	0.901	0.816	0.733	0.672	0.692	0.581	0.627	0.562	0.553	0.518	0.460	0.490	0.478	0.532	0.433	0.567	0.419	0.436	0.365	0.365	0.346	0.600	0.838	1.450	1.953	2.091	1.862	1.400	1.455	2.611	5.757	12.40	21.38	34.76	35.63	34.08	13.25	3.967	0.502	0.349	0.284	0.306	0.365	0.290	0.275	0.359	0.345
275.0	145.7	120.1	79.05	73.56	138.1	306.3	573.0	364.4	611.8	1675	5768	9999.9	1066	35.31	8.020	5.689	4.249	3.320	2.480	1.940	2.008	1.654	1.567	1.396	1.311	1.229	1.032	0.959	1.090	1.008	0.819	0.879	0.753	0.814	0.850	0.776	0.844	0.699	0.714	0.687	0.631	0.717	0.644	0.623	0.778	0.654	0.545	0.548	0.450	0.439	0.342	0.498	0.702	0.928	1.156	1.507	2.616	3.346	2.200	1.526	1.830	3.231	5.336	8.473	12.50	30.27	55.94	32.95	20.72	3.820	0.499	0.391	0.384	0.361	0.327	0.385	0.364
280.0	252.5	214.1	135.3	100.5	125.9	212.3	454.5	585.5	305.6	482.2	1806	8950	9135	149.3	17.73	7.434	5.985	4.094	2.934	2.358	2.264	1.980	1.705	1.356	1.292	1.259	1.148	1.184	0.929	0.995	0.913	0.753	0.802	0.898	1.227	1.055	1.108	0.911	0.984	0.810	0.755	0.794	0.809	0.863	0.971	0.845	0.690	0.761	0.740	0.577	0.513	0.590	0.603	0.850	0.948	1.020	1.557	2.469	3.473	3.103	1.797	1.553	1.840	2.538	3.472	8.232	21.42	41.06	65.14	31.55	16.00	1.904	0.357	0.357	0.359	0.412	0.369
285.0	386.6	374.8	227.3	144.3	133.0	184.1	272.3	583.1	506.0	279.8	565.8	2982	9999.9	7059	112.3	12.10	7.148	4.663	3.719	2.853	2.389	2.111	1.853	1.629	1.401	1.222	1.182	1.198	1.077	0.927	0.944	0.854	0.931	1.116	1.336	1.396	1.241	1.201	1.018	1.009	1.095	1.138	0.897	1.042	1.229	1.259	1.104	1.242	0.902	0.682	0.579	0.856	0.744	0.855	0.839	0.818	1.089	1.468	2.453	3.398	3.787	2.220	1.478	1.352	1.579	2.907	5.833	11.68	29.81	55.24	68.16	27.67	9.708	0.726	0.412	0.450	0.388
290.0	565.1	535.5	381.9	230.1	167.5	182.7	206.8	335.4	621.6	613.6	421.6	916.0	3177	8016	7851	451.4	28.40	6.781	4.998	3.980	2.845	2.473	2.106	1.859	1.560	1.552	1.253	1.394	1.227	1.154	1.056	1.010	1.090	1.206	1.531	1.736	1.720	1.614	1.401	1.227	1.271	1.179	1.112	1.280	1.419	1.545	1.501	1.613	1.338	1.025	0.883	1.002	0.772	0.944	0.864	0.967	1.034	1.120	1.456	1.833	2.653	3.319	3.624	2.975	2.123	2.203	2.617	3.876	8.046	15.27	28.40	39.80	52.55	44.12	18.65	8.305	1.195
295.0	702.4	713.6	561.1	329.3	211.4	203.4	217.5	265.2	413.1	808.3	809.5	586.8	985.1	2050	5606	9956	666.1	26.75	6.498	5.028	3.479	3.002	2.449	2.229	1.801	1.782	1.470	1.305	1.101	1.271	1.012	1.030	1.110	1.248	1.709	1.837	1.985	1.833	1.642	1.516	1.506	1.377	1.342	1.431	1.773	1.829	1.943	1.992	1.727	1.477	1.200	1.151	1.005	1.007	1.047	1.126	1.121	1.258	1.392	1.556	1.817	2.102	2.878	4.487	4.930	3.863	2.707	2.573	3.436	4.758	7.568	9.920	14.33	25.31	52.48	69.78	29.86
300.0	775.7	807.3	665.2	400.7	264.5	236.2	258.8	297.8	397.7	649.8	1104	785.1	588.7	678.4	1594	7617	5917	497.8	13.87	5.758	4.349	3.418	2.823	2.584	2.311	1.795	1.575	1.447	1.447	1.155	1.111	1.031	1.063	1.331	1.815	1.945	2.103	2.095	1.726	1.746	1.597	1.483	1.547	1.661	1.821	1.914	2.123	2.260	2.062	1.709	1.405	1.313	1.241	1.103	1.077	1.226	1.316	1.458	1.565	1.690	1.729	2.172	2.422	3.369	4.687	6.099	4.811	3.459	2.959	2.850	3.100	3.456	4.442	6.705	16.04	39.86	67.40
305.0	809.4	842.4	706.7	469.7	313.0	282.7	309.9	371.6	455.8	613.4	979.3	1185	653.4	447.3	518.8	2288	8246	5025	75.10	8.965	6.306	4.187	3.245	2.798	2.215	2.099	1.593	1.593	1.652	1.215	1.173	1.090	1.201	1.401	1.679	2.077	2.089	2.120	1.922	1.716	1.547	1.663	1.626	1.646	1.828	2.248	2.279	2.310	2.203	1.786	1.540	1.525	1.407	1.293	1.360	1.446	1.572	1.629	1.750	1.939	2.100	2.311	2.691	3.136	3.772	5.095	6.175	6.039	3.988	2.773	2.614	2.416	2.327	2.645	4.661	10.36	23.46
310.0	852.1	886.9	758.3	517.4	368.1	340.8	379.2	436.5	524.8	659.8	842.4	1113	1049	573.0	349.6	650.3	2429	5993	6207	1448	23.18	5.601	4.218	3.213	2.639	2.297	1.893	1.693	1.650	1.439	1.269	1.198	1.244	1.424	1.631	1.936	1.934	2.000	1.797	1.644	1.587	1.696	1.562	1.657	2.066	2.179	2.283	2.413	2.323	1.974	1.706	1.813	1.581	1.528	1.459	1.509	1.808	1.823	2.087	2.269	2.311	2.590	2.917	3.265	3.661	4.118	4.484	5.158	5.680	5.384	3.971	2.978	2.274	2.156	2.259	3.329	6.192
315.0	835.3	917.8	818.1	554.4	413.8	394.3	423.7	489.3	587.1	706.7	832.6	927.5	1013	943.2	436.3	335.3	661.1	1460	4117	8333	510.9	22.59	6.004	4.366	3.198	3.111	2.149	1.857	1.729	1.424	1.529	1.255	1.176	1.412	1.750	1.863	1.839	1.813	1.831	1.561	1.611	1.762	1.633	1.650	1.946	2.243	2.107	2.567	2.260	2.134	1.872	1.957	1.721	1.761	1.788	1.795	1.969	2.158	2.161	2.607	2.566	2.774	3.277	3.426	3.597	4.080	4.279	4.405	4.485	4.926	5.543	5.151	3.514	2.648	1.838	2.117	2.570
320.0	908.1	1079	957.8	629.3	459.0	426.3	463.3	530.4	616.6	730.7	864.1	919.7	906.5	983.6	698.5	320.5	298.2	422.2	1104	5693	7212	414.3	13.62	5.571	4.124	3.285	2.336	2.135	1.925	1.806	1.818	1.389	1.329	1.319	1.674	1.736	1.675	1.730	1.662	1.576	1.606	1.737	1.613	1.686	2.217	2.479	2.509	3.061	2.715	2.489	2.054	2.067	1.900	1.707	1.816	1.849	2.019	2.050	2.471	2.681	2.626	2.892	3.371	3.621	3.868	4.146	4.365	4.440	4.118	4.313	4.523	5.169	5.451	4.249	2.746	1.980	2.002
325.0	1064	1345	1245	830.3	539.7	468.3	495.2	573.1	653.9	777.8	895.2	956.1	908.8	869.5	883.6	480.4	262.2	224.7	331.9	1614	6628	3974	61.00	8.738	5.000	3.795	3.155	2.144	2.043	1.926	1.902	1.402	1.381	1.605	1.729	1.741	1.866	1.840	1.649	1.676	1.663	1.817	1.886	1.919	2.313	2.851	3.217	3.706	3.453	2.932	2.471	2.511	2.128	2.114	2.093	2.000	2.191	2.280	2.600	2.712	2.900	3.239	3.224	3.785	4.015	4.112	4.128	4.476	4.215	4.587	4.333	4.359	4.839	5.163	4.575	2.995	2.413
330.0	1161	1548	1548	1101	697.9	542.2	539.8	605.4	693.4	812.1	939.0	1001	970.4	857.5	785.9	701.6	424.7	236.5	199.5	447.8	1875	4608	5110	1306	20.87	5.241	3.731	2.858	2.477	2.108	2.067	1.570	1.503	1.510	1.735	1.753	1.763	1.953	1.731	1.712	1.666	1.716	1.917	2.063	2.517	2.929	3.723	4.095	4.451	3.864	3.333	3.436	2.837	2.511	2.273	2.291	2.377	2.553	2.811	3.106	3.238	3.540	3.557	3.833	4.209	4.367	4.433	4.516	4.485	4.769	4.625	4.369	4.217	4.353	4.392	4.418	4.103
335.0	1226	1694	1783	1324	872.3	658.8	615.1	667.1	738.0	855.7	979.3	1050	1039	903.0	752.2	647.7	638.0	379.1	220.0	226.0	509.5	1124	3343	7289	436.5	24.07	5.680	3.999	3.063	2.278	1.951	1.890	1.617	1.604	1.772	1.716	1.743	1.857	1.653	1.761	1.684	1.746	2.179	2.319	2.520	3.121	4.213	4.686	4.580	4.302	3.818	4.144	3.527	3.181	2.782	2.667	2.812	2.693	3.077	3.221	3.445	3.617	3.862	3.875	4.392	4.737	4.824	4.758	4.857	4.954	4.826	4.632	4.268	4.060	3.987	3.659	4.230
340.0	1320	1758	1907	1484	1034	782.2	712.5	723.9	798.8	896.0	1009	1070	1070	957.6	792.5	632.8	618.5	554.5	296.8	213.5	238.3	346.2	906.9	4928	6514	381.2	13.02	5.219	3.801	2.881	2.223	2.004	1.860	1.652	1.708	1.892	1.842	1.893	1.756	1.732	1.811	1.834	2.021	2.156	2.782	3.197	4.119	5.333	4.903	4.454	4.290	4.495	3.992	3.392	3.282	3.059	3.150	3.005	3.414	3.401	3.521	3.728	4.100	4.050	4.486	4.792	4.867	4.847	4.898	4.861	5.358	4.681	4.867	4.447	4.111	3.767	3.404
345.0	1355	1791	1981	1619	1204	928.6	813.1	798.8	863.9	953.7	1043	1100	1090	991.9	846.7	666.4	570.1	607.9	454.3	263.7	217.8	205.3	296.4	1406	5912	3424	54.53	8.475	4.696	3.527	2.695	2.207	1.845	1.854	1.636	1.808	1.672	1.787	1.672	1.587	1.676	1.904	2.061	2.314	2.581	3.249	4.107	5.018	5.265	4.993	4.402	5.140	4.654	3.754	3.770	3.589	3.591	3.334	3.530	3.501	3.836	4.056	4.330	4.267	4.780	4.907	4.895	5.047	5.203	5.239	4.943	4.862	5.150	4.617	4.428	3.855	3.739
350.0	1297	1754	1971	1719	1408	1174	1033	997.3	1012	1064	1113	1150	1137	1048	909.0	746.7	622.3	569.5	572.9	434.9	293.4	236.6	212.9	421.2	1690	4045	4440	1188	20.48	5.084	3.739	2.686	2.101	1.898	1.800	1.841	1.810	1.762	1.794	1.704	1.739	1.872	1.978	2.266	2.758	3.331	3.838	4.884	5.178	4.961	4.869	5.721	5.166	4.853	4.491	4.387	4.456	4.304	4.352	4.478	4.189	4.665	4.930	4.914	5.226	4.971	5.146	5.380	5.434	5.331	5.181	5.329	5.431	4.820	4.750	4.222	4.133
355.0	1330	1711	1975	1861	1628	1469	1314	1282	1276	1266	1257	1259	1212	1125	992.9	849.2	721.4	618.8	578.2	596.4	464.4	321.8	256.7	250.6	486.4	1001	2938	6325	405.3	22.42	4.953	3.498	2.403	2.159	1.930	1.682	1.856	1.861	1.846	1.737	1.873	1.827	2.130	2.232	2.889	3.429	3.890	4.909	5.217	5.131	5.445	6.196	5.935	5.855	5.722	5.482	5.604	5.660	5.277	5.796	5.487	6.053	5.940	5.642	5.824	5.554	6.098	5.760	5.769	5.514	6.002	5.747	5.544	5.172	5.057	4.818	4.511
360.0	1292	1721	2024	1943	1782	1642	1534	1481	1473	1432	1404	1343	1289	1190	1071	913.4	798.9	696.0	619.0	606.7	605.4	428.9	316.6	252.5	253.5	318.3	798.7	4379	5970	357.6	12.39	4.371	3.194	2.615	2.005	2.000	2.027	1.727	1.938	2.028	1.859	2.010	2.202	2.436	2.934	3.154	3.857	4.978	5.170	5.181	5.448	6.416	6.477	6.233	6.202	6.269	6.371	6.514	6.187	6.212	6.156	6.851	6.469	6.414	6.442	6.132	6.346	6.467	6.091	6.181	6.037	5.869	5.726	5.526	5.514	5.301	5.202
365.0	1292	1712	2015	2018	1909	1816	1682	1632	1629	1596	1527	1430	1348	1256	1122	981.5	865.3	758.6	679.5	626.8	644.7	565.2	388.0	298.4	232.2	191.5	258.5	1267	5598	3200	50.90	7.266	4.000	3.120	2.406	2.331	2.032	1.999	1.962	2.205	2.085	2.056	2.279	2.671	2.877	3.483	3.853	4.771	5.248	5.079	5.395	6.650	6.743	6.942	6.324	6.583	6.883	6.810	6.993	7.167	6.856	7.632	7.131	7.319	6.721	6.876	6.323	6.302	6.568	6.461	5.964	6.092	5.998	6.266	6.009	5.597	5.659
370.0	1331	1694	1988	2098	2052	1972	1850	1802	1788	1733	1650	1535	1429	1311	1190	1054	943.5	845.3	764.0	696.7	659.8	652.6	546.3	388.6	286.9	212.1	172.4	359.4	1603	3939	4319	1089	17.50	4.358	3.164	2.530	2.360	2.209	2.089	2.114	2.064	2.224	2.333	2.529	2.739	3.368	3.809	4.586	5.109	5.080	5.393	7.004	7.110	7.366	7.207	7.125	7.505	7.280	7.657	7.675	7.699	7.752	7.666	7.824	7.492	7.068	6.859	6.834	6.895	6.780	6.463	6.803	6.358	6.552	6.319	5.953	6.084
375.0	1316	1689	1990	2128	2171	2118	2009	1925	1933	1856	1748	1659	1490	1374	1240	1112	1012	930.8	850.2	783.7	725.8	677.5	659.1	525.0	380.1	281.7	204.4	193.6	431.6	961.5	3013	5907	349.6	19.24	4.536	3.048	2.933	2.168	2.245	1.999	2.226	2.371	2.444	2.428	2.982	3.492	3.822	4.897	5.191	5.212	5.562	7.223	7.257	7.884	7.970	7.974	8.143	8.210	8.255	7.812	8.360	8.518	8.389	8.029	7.999	7.417	7.536	7.301	6.908	6.943	6.787	6.771	6.578	7.183	6.792	6.546	6.553
380.0	1366	1696	2023	2157	2216	2181	2068	1991	1973	1908	1818	1714	1545	1400	1263	1143	1048	971.2	904.6	839.5	780.3	720.3	671.9	638.9	478.4	346.8	251.5	188.2	194.8	281.5	821.5	4276	5068	295.6	9.819	4.028	3.271	2.794	2.335	2.267	2.226	2.353	2.452	2.249	2.975	3.628	3.875	4.791	5.229	5.132	5.578	7.026	7.272	8.137	8.216	8.240	8.270	8.226	8.273	8.509	8.216	8.653	8.824	8.428	8.158	7.723	7.383	7.359	7.417	7.176	6.992	6.858	7.172	6.901	6.533	7.052	6.564
385.0	1394	1659	2001	2155	2239	2235	2091	2018	1974	1937	1844	1729	1579	1410	1273	1149	1068	996.5	937.0	873.6	821.3	755.3	687.3	657.7	583.6	408.1	297.9	219.4	168.3	150.9	244.2	1250	4811	2662	40.94	5.881	3.892	3.169	2.590	2.315	2.249	2.455	2.623	2.484	3.130	3.345	3.936	4.720	5.215	4.972	5.801	7.394	7.674	8.160	7.921	8.113	8.514	8.504	8.571	8.381	8.500	8.415	8.910	8.412	8.210	8.217	7.644	7.575	7.342	7.473	7.098	7.432	7.071	7.029	6.400	6.856	6.734
390.0	1355	1674	1961	2131	2217	2206	2112	2017	1967	1904	1824	1715	1568	1405	1271	1154	1080	1017	959.4	903.5	852.1	789.7	715.9	654.3	615.1	515.7	363.7	264.5	198.3	151.0	136.5	335.5	1387	3252	3304	822.9	14.32	3.991	3.045	2.690	2.442	2.663	2.664	2.681	3.305	3.365	3.833	4.701	5.088	4.996	5.719	7.165	7.399	8.052	8.098	8.062	8.802	8.592	8.842	8.553	8.580	8.618	8.559	8.380	8.484	7.980	7.733	7.572	7.309	7.183	7.046	7.245	7.109	7.116	6.611	6.740	6.986
395.0	1347	1662	1892	2068	2170	2170	2075	2004	1944	1877	1780	1677	1537	1387	1257	1145	1078	1021	970.6	923.5	867.2	812.8	746.5	675.5	610.3	565.6	459.8	324.8	244.1	183.6	141.7	150.7	358.1	789.5	2414	4386	287.1	14.52	4.121	3.170	2.665	2.949	2.817	2.737	3.263	3.365	3.686	4.500	4.932	5.009	5.467	6.920	7.530	7.896	8.123	8.188	8.434	8.484	8.466	8.494	8.339	8.253	8.157	8.157	7.995	7.948	7.581	7.378	7.075	7.357	6.954	6.984	7.217	6.768	6.734	6.791	7.049
400.0	1337	1615	1853	2018	2114	2113	2060	1973	1906	1837	1741	1647	1510	1369	1234	1132	1064	1012	973.2	918.1	876.6	823.5	754.6	694.2	621.1	564.4	516.8	385.0	281.0	213.7	162.8	125.5	141.5	217.0	665.8	3302	3672	236.1	7.640	3.906	3.196	2.867	2.831	2.892	3.141	3.407	3.929	4.452	4.786	4.942	5.255	6.309	7.169	7.474	7.782	8.158	8.394	8.296	8.399	8.663	8.437	8.225	7.950	7.997	8.004	7.520	7.166	7.451	6.625	6.800	6.861	6.682	7.147	6.777	6.817	6.534	6.829
405.0	1286	1569	1837	1959	2075	2075	2006	1920	1849	1781	1698	1616	1481	1333	1208	1109	1043	999.2	958.1	913.7	866.4	828.0	763.0	704.8	631.3	556.9	517.1	448.1	323.7	244.3	184.6	136.4	105.9	98.75	183.8	972.5	3622	2226	35.43	5.220	3.495	3.303	3.166	2.971	2.935	3.455	3.949	4.349	4.657	4.569	5.095	6.464	6.903	7.472	7.470	7.978	8.190	8.384	8.301	8.202	8.120	8.006	7.913	7.708	7.570	7.609	7.257	7.225	6.765	6.688	6.617	6.495	6.471	6.605	6.728	6.571	6.966
410.0	1217	1510	1735	1851	1964	1988	1934	1864	1783	1716	1638	1549	1425	1284	1166	1063	1011	966.9	927.2	887.6	849.0	810.6	754.3	698.1	632.0	561.8	500.2	461.4	397.1	292.7	218.3	161.3	118.6	88.15	86.78	249.4	1055	2484	2516	648.9	12.48	3.722	3.277	3.099	3.113	3.534	3.796	4.256	4.397	4.581	4.797	6.348	6.537	6.922	7.207	7.359	8.005	7.908	7.861	7.793	7.422	7.600	7.914	7.723	7.268	7.172	6.942	7.100	6.674	6.861	6.546	6.468	6.477	6.189	6.277	6.468	6.293
415.0	1174	1448	1657	1741	1831	1866	1834	1793	1709	1656	1571	1473	1351	1222	1118	1011	962.7	925.9	881.9	852.1	816.3	777.9	731.5	682.8	628.8	560.8	497.9	443.5	416.4	356.8	255.5	187.8	139.0	101.3	78.26	97.49	264.7	603.0	1800	3072	255.4	12.38	4.026	3.408	2.984	3.282	3.631	4.145	4.438	4.573	4.445	5.823	6.094	6.674	7.112	6.899	7.855	7.517	7.830	7.360	7.288	7.323	7.372	7.358	7.056	6.818	6.637	6.504	6.507	6.496	6.381	6.376	6.102	6.134	5.797	5.930	6.085
420.0	1155	1412	1584	1682	1749	1804	1760	1729	1638	1585	1514	1408	1298	1175	1070	981.1	923.6	884.6	846.4	819.0	788.2	752.5	713.5	665.0	619.3	559.3	495.4	441.5	408.8	384.8	295.3	207.7	154.5	114.2	86.05	70.38	94.11	158.7	492.3	2313	2137	211.2	6.612	3.717	3.315	3.399	3.757	4.250	4.045	4.374	4.408	5.567	5.618	6.716	6.588	6.623	7.285	7.349	7.275	7.347	7.091	6.971	7.049	7.327	6.962	6.488	6.295	6.239	6.227	6.145	5.924	5.988	5.950	5.937	5.483	5.917	6.086
425.0	1108	1329	1536	1623	1674	1708	1712	1672	1610	1534	1465	1365	1242	1131	1031	940.1	886.1	859.3	816.1	787.2	755.0	730.2	690.8	649.9	607.0	549.8	493.0	444.7	400.3	375.9	332.9	232.3	166.6	127.8	94.40	71.99	62.46	63.97	130.3	689.6	2415	1910	33.12	4.877	3.567	3.526	3.678	4.128	4.205	4.111	4.334	5.374	5.632	6.241	6.342	6.479	6.887	7.074	7.234	7.165	6.743	7.010	6.924	7.123	6.622	6.331	5.796	6.278	5.928	5.974	5.817	5.558	5.685	5.721	5.484	5.584	5.757
430.0	1097	1264	1445	1512	1579	1621	1643	1607	1554	1488	1404	1318	1193	1077	972.7	892.7	839.8	809.0	770.3	744.1	716.1	690.4	658.6	625.2	585.9	540.8	490.3	443.9	404.0	362.5	334.8	274.7	195.8	144.8	109.8	82.66	65.43	51.46	55.94	173.8	703.2	1849	1945	521.4	11.62	3.954	3.774	3.964	4.120	3.878	4.187	5.262	5.434	5.948	5.784	6.068	6.773	6.884	6.875	6.753	6.625	6.874	6.730	6.618	6.229	6.308	6.024	5.714	5.745	5.524	5.646	5.370	5.705	5.320	5.344	5.170	5.284
435.0	1357	1231	1334	1427	1510	1526	1559	1531	1498	1442	1365	1260	1136	1021	920.0	845.1	795.5	765.4	727.8	707.5	677.7	652.2	624.1	599.5	566.4	526.6	482.3	445.1	405.3	367.5	322.3	286.1	238.5	166.8	124.2	96.82	75.03	56.97	46.50	63.92	175.3	443.9	1333	2462	240.1	13.05	4.239	4.030	4.063	3.745	3.750	4.982	5.297	5.467	5.924	5.817	6.674	6.660	6.464	6.577	6.321	6.084	6.147	6.467	5.960	6.190	5.801	5.464	5.581	5.237	5.335	5.513	5.422	4.874	5.100	4.881	4.929
440.0	1635	1229	1286	1366	1435	1483	1501	1495	1451	1399	1332	1214	1098	985.9	884.0	811.5	760.1	729.6	696.4	673.1	643.4	620.8	599.0	573.9	548.2	511.9	474.7	438.8	406.6	366.8	319.4	279.3	252.7	192.2	137.8	108.3	83.89	64.68	50.20	43.78	61.44	115.3	364.3	1836	1963	197.9	7.379	4.424	4.100	3.648	3.813	4.626	4.796	5.053	5.598	5.827	6.294	6.353	6.368	6.467	6.222	6.395	6.224	6.234	6.002	5.825	5.886	5.228	5.250	5.097	5.156	5.073	5.063	4.614	4.686	4.726	4.940
445.0	1855	1444	1208	1314	1353	1419	1441	1456	1407	1349	1277	1175	1052	941.5	850.6	776.1	725.2	694.7	665.4	642.7	611.2	596.0	573.9	548.1	523.2	490.2	464.0	428.0	400.5	362.1	320.5	272.9	248.5	212.8	153.3	116.5	90.20	70.75	54.76	43.69	39.80	45.50	96.80	544.6	2054	1722	28.85	5.906	4.236	3.732	3.811	4.413	4.671	4.868	5.188	5.358	5.882	6.140	6.154	6.261	6.058	6.283	6.009	5.989	5.682	5.778	5.542	5.236	4.948	4.880	5.033	4.774	4.830	4.780	4.605	4.719	4.648
450.0	1472	2022	1253	1203	1258	1299	1360	1371	1332	1278	1206	1113	996.0	889.9	800.2	720.3	672.1	642.5	620.4	593.2	568.5	552.8	530.8	512.7	489.6	461.7	439.8	411.7	389.0	356.5	317.2	271.0	233.8	212.1	177.4	131.5	100.1	80.51	63.39	51.03	41.09	35.10	40.42	137.0	591.6	1553	1763	478.5	10.98	4.058	3.765	4.474	4.474	4.710	4.955	5.114	5.684	5.750	5.781	5.743	5.945	6.078	5.602	5.669	5.321	5.349	5.066	5.023	4.776	4.755	4.722	4.469	4.324	4.506	4.444	4.450	4.411
455.0	993.7	2228	1707	1102	1136	1203	1255	1293	1253	1199	1133	1033	925.7	830.0	732.7	665.7	620.9	586.2	563.5	541.3	521.2	502.5	482.4	470.1	450.9	430.1	406.9	390.3	369.3	344.2	309.3	267.5	227.7	196.4	181.2	153.8	112.9	87.00	70.96	57.48	46.78	37.83	32.56	48.60	146.2	370.7	1074	2006	200.0	12.06	4.080	4.335	4.357	4.286	4.455	4.792	5.381	5.400	5.520	5.462	5.633	5.518	5.619	5.116	5.026	4.952	4.754	4.599	4.284	4.487	4.543	4.363	4.127	4.220	3.917	3.974	4.028
460.0	771.7	1762	2376	1132	1075	1132	1158	1220	1186	1137	1066	976.1	875.1	775.9	692.9	622.2	584.7	547.3	521.4	503.3	485.2	464.6	448.5	435.7	422.3	401.3	384.6	366.2	349.5	330.1	299.1	258.8	224.0	191.2	169.1	159.2	126.6	93.59	76.65	62.36	50.95	40.88	33.22	31.86	48.60	95.63	281.1	1335	1605	160.2	8.014	4.312	4.454	4.180	4.325	4.580	4.920	4.906	4.961	5.285	5.272	5.244	5.232	4.969	4.828	4.719	4.732	4.245	4.142	4.380	4.147	4.049	4.008	3.883	3.688	3.706	4.053
465.0	689.4	1197	2657	1453	995.9	1054	1097	1139	1112	1086	1007	925.8	826.0	728.6	652.2	581.3	540.3	507.9	487.7	466.1	447.0	430.6	419.1	407.6	393.0	379.0	359.9	345.6	331.7	312.5	286.8	251.1	216.4	186.3	159.4	151.0	133.4	101.4	80.27	66.65	54.59	44.71	36.08	29.85	29.03	36.03	74.48	376.3	1505	1314	129.8	5.880	4.689	4.206	4.102	4.235	4.624	4.898	4.903	4.915	4.819	5.020	4.877	4.613	4.533	4.413	4.436	4.223	4.062	3.984	4.017	3.630	3.831	3.714	3.388	3.675	3.640
470.0	642.9	814.4	1916	2270	1044	955.8	1002	1028	1024	993.7	930.2	844.9	752.7	665.4	590.8	524.5	485.6	458.7	437.7	417.4	400.1	385.2	374.8	364.7	352.4	342.3	325.5	315.1	305.9	290.4	267.1	235.1	204.6	177.4	153.2	135.8	127.4	112.1	87.16	69.17	58.52	48.72	40.19	32.41	27.70	24.97	30.57	95.20	416.2	1040	1243	422.3	12.35	4.580	4.139	4.049	4.444	4.457	4.420	4.589	4.690	4.632	4.681	4.276	4.133	4.112	4.088	3.852	3.631	3.546	3.685	3.528	3.405	3.288	3.242	3.315	3.337
475.0	597.2	663.2	1050	2411	1634	871.1	899.6	937.1	927.0	902.5	849.1	764.3	681.6	599.7	530.9	476.6	435.8	412.4	389.7	374.4	355.8	347.2	331.6	323.6	312.6	305.1	292.1	284.3	277.0	265.0	244.6	214.4	192.7	166.4	145.2	127.7	113.6	108.8	96.18	73.43	61.03	50.29	42.89	35.23	29.54	24.71	22.43	33.67	103.1	243.9	593.7	1310	207.2	14.80	4.527	3.910	4.248	3.851	4.007	4.368	4.361	4.309	4.050	4.125	3.916	3.928	3.559	3.357	3.308	3.282	3.217	3.209	3.008	3.021	3.115	2.990	3.053
480.0	575.4	625.4	750.9	1805	2328	916.8	833.4	860.2	860.3	848.7	792.8	718.2	631.2	560.3	490.7	443.0	406.8	379.4	360.0	342.7	325.8	315.4	305.7	296.9	287.6	284.0	270.6	260.6	256.9	245.7	229.8	203.5	182.1	159.4	139.7	124.4	107.5	100.9	97.08	79.26	63.07	51.81	43.71	37.38	31.43	25.90	22.33	21.76	34.16	63.90	149.2	712.5	1222	193.9	9.785	4.110	4.113	3.878	3.736	3.795	4.120	4.093	3.918	3.901	3.951	3.718	3.430	3.162	3.117	3.179	3.021	3.049	2.990	2.921	2.845	2.755	2.615
485.0	527.1	598.5	641.6	1122	2594	1283	790.4	809.6	816.0	796.0	747.8	681.2	595.7	527.1	461.0	416.3	379.8	351.2	334.7	316.1	303.8	292.0	282.9	276.4	269.0	261.6	251.0	245.3	243.5	233.7	218.9	194.3	173.9	154.7	136.4	120.0	105.9	95.66	91.87	84.80	67.33	53.73	46.05	38.84	33.64	27.98	23.55	20.41	20.17	24.56	41.88	189.9	902.6	1146	152.1	6.224	4.042	3.940	4.029	3.530	3.816	4.159	3.784	3.723	3.670	3.407	3.280	3.070	3.017	3.056	2.861	2.872	2.858	2.695	2.909	2.762	2.712
490.0	455.7	596.1	599.4	717.8	1829	2185	867.0	740.4	751.5	730.0	693.8	628.3	553.2	488.4	428.4	382.8	345.8	323.6	305.5	289.7	276.2	265.8	259.1	252.8	244.9	238.3	230.5	227.8	223.6	216.3	202.1	183.5	164.3	146.6	128.7	115.5	102.7	92.25	84.02	81.42	73.44	58.77	47.94	41.07	35.75	30.79	25.91	22.27	19.25	17.30	19.31	51.07	236.3	687.3	1005	439.0	14.89	4.253	3.799	3.356	3.579	3.655	3.517	3.284	3.316	3.254	3.042	2.912	2.824	2.813	2.662	2.575	2.710	2.589	2.435	2.598	2.503
495.0	379.3	533.4	580.4	575.4	937.3	2380	1471	682.0	686.7	669.3	635.3	574.5	506.1	444.6	391.8	344.3	312.8	293.3	273.7	264.1	249.4	239.2	231.0	225.1	219.2	213.9	211.4	205.3	204.0	198.4	186.8	170.4	152.9	136.4	121.6	110.8	98.08	89.61	79.96	74.35	72.82	65.20	52.00	43.30	38.02	32.78	27.80	24.38	20.31	17.26	15.69	21.17	60.55	161.3	434.3	1169	630.9	19.20	3.881	3.563	3.624	3.443	3.138	3.238	3.232	2.986	3.028	2.891	2.596	2.651	2.479	2.457	2.519	2.283	2.186	2.127	2.172
500.0	342.5	472.5	558.4	520.4	621.4	1698	2266	737.8	641.8	616.8	590.3	540.9	468.9	417.0	361.0	317.0	286.9	267.2	252.5	241.4	226.9	217.2	211.7	207.8	200.1	197.0	193.7	188.4	188.3	182.9	173.7	158.5	142.7	128.0	114.9	104.2	94.02	85.75	75.93	70.21	66.57	65.40	55.27	43.90	37.77	33.18	29.40	25.79	21.49	18.54	15.34	15.43	22.34	43.27	107.7	551.5	1238	226.7	13.34	3.741	3.415	3.283	2.991	2.923	3.103	2.789	2.767	2.652	2.506	2.449	2.373	2.334	2.419	1.937	2.079	1.990	2.055
505.0	315.2	413.6	527.4	494.9	521.4	984.9	2616	1092	590.3	567.9	551.8	503.5	436.6	382.2	333.9	293.3	263.0	247.4	232.3	217.6	206.4	201.7	193.5	189.6	186.1	179.3	176.7	174.4	172.0	169.1	161.6	148.2	134.8	121.3	109.4	98.82	89.27	81.55	73.02	68.01	62.56	62.06	58.49	46.57	39.43	34.33	30.38	25.92	23.11	19.67	16.56	14.49	14.43	17.65	30.79	139.4	699.3	1085	189.0	7.220	3.289	3.192	2.787	3.003	2.723	2.551	2.616	2.427	2.238	2.125	2.175	2.128	2.079	1.820	1.952	1.939	2.009
510.0	276.7	350.5	450.9	479.2	449.2	567.3	1759	2126	664.0	515.7	495.8	448.6	395.5	342.9	295.8	260.2	236.0	220.2	204.5	194.1	184.5	177.4	172.1	167.5	163.4	158.7	157.1	155.7	154.5	150.5	145.4	133.1	122.2	109.7	98.97	90.51	82.26	76.19	68.68	63.74	57.78	54.52	54.75	49.74	41.09	34.47	31.00	26.54	23.38	20.43	17.67	15.11	13.13	12.72	14.08	37.37	173.9	538.2	812.0	375.1	15.49	3.362	2.734	2.870	2.595	2.500	2.324	2.214	2.178	2.085	1.973	1.936	1.919	1.814	1.850	1.882	1.790
515.0	251.2	291.9	372.0	446.1	413.0	435.0	790.6	2425	1323	473.2	438.6	398.1	352.9	300.7	263.0	232.3	209.0	190.9	181.1	169.5	162.6	157.0	149.2	148.0	143.4	141.3	137.6	136.8	136.9	134.4	127.9	118.9	107.5	97.92	88.64	80.85	74.22	68.61	63.47	58.19	54.30	50.02	47.07	47.19	43.54	35.70	29.97	26.81	23.05	20.61	18.11	16.35	13.24	11.81	10.59	14.72	44.42	125.0	277.3	802.5	526.5	20.64	3.044	2.696	2.445	2.229	2.072	1.886	2.046	1.923	1.818	1.833	1.707	1.684	1.830	1.666	1.602
520.0	222.8	272.3	331.2	388.4	401.4	377.7	468.3	1698	2263	525.6	401.1	363.3	319.1	276.2	238.2	210.2	188.2	174.9	162.6	152.3	145.9	138.9	134.5	132.7	128.8	124.9	122.8	125.3	121.5	121.5	115.3	107.1	97.73	89.69	80.73	74.61	68.32	63.94	58.93	54.04	50.36	45.59	43.25	42.63	43.02	37.37	30.20	26.12	22.71	20.38	18.06	16.37	13.44	11.79	10.26	9.965	15.49	32.62	67.36	330.4	847.8	232.7	14.03	2.564	2.258	2.086	2.044	1.610	1.940	1.757	1.680	1.720	1.583	1.570	1.462	1.575	1.567
525.0	214.3	251.9	288.2	335.7	395.0	347.6	371.7	882.2	2734	920.7	368.7	333.9	294.1	248.4	216.4	193.9	169.3	157.0	145.9	138.6	131.6	124.3	121.4	118.7	115.9	112.5	112.3	112.6	111.3	110.3	106.3	98.82	90.64	83.53	73.02	67.90	63.26	58.97	53.92	51.45	46.54	42.95	40.89	38.72	39.83	38.01	30.97	25.63	21.96	20.29	17.65	15.80	13.96	11.99	9.943	8.684	9.093	12.18	19.28	81.13	411.2	764.8	190.7	7.076	2.406	2.040	1.931	1.724	1.786	1.687	1.628	1.474	1.353	1.435	1.411	1.463	1.392
530.0	179.9	225.2	245.6	274.6	347.4	333.5	315.1	453.0	1765	2156	463.0	295.3	258.6	219.8	188.6	167.7	149.5	138.5	127.7	120.7	115.8	109.6	106.4	103.2	101.0	99.91	98.82	98.95	98.52	97.24	94.20	86.37	80.57	72.77	65.67	60.61	56.50	52.84	48.62	46.39	42.02	39.62	37.19	34.71	33.43	34.25	31.25	25.98	21.22	19.18	16.69	14.98	13.01	11.55	9.898	8.580	7.628	7.558	8.358	21.76	99.46	332.3	541.9	278.4	15.46	2.139	1.838	1.722	1.519	1.494	1.445	1.497	1.255	1.289	1.264	1.321	1.278
535.0	157.9	188.9	206.3	229.2	286.7	329.2	283.4	316.8	692.3	2460	1214	264.8	220.1	189.6	165.9	141.4	127.9	120.7	111.4	103.2	99.17	94.40	91.44	88.61	86.51	85.38	84.67	84.28	83.22	83.43	80.35	74.68	68.89	62.60	57.05	53.62	48.86	46.39	42.96	40.44	37.42	34.60	32.94	31.37	29.21	29.19	28.65	26.01	20.59	17.84	16.04	14.19	12.32	10.83	9.918	8.516	7.342	6.508	5.852	8.545	25.52	76.85	164.2	505.1	247.5	20.38	1.820	1.802	1.375	1.418	1.221	1.297	1.114	1.041	1.109	1.157	1.115
540.0	149.3	174.8	190.9	202.0	236.8	316.7	276.3	260.5	354.5	1583	2022	318.5	198.9	173.4	147.8	130.3	113.0	106.4	97.94	91.31	88.26	83.44	80.49	78.57	77.37	76.03	74.80	73.92	73.71	73.78	71.29	65.81	60.05	55.57	50.63	47.97	44.38	41.25	38.86	36.62	34.28	31.30	29.30	29.01	26.37	25.25	25.00	25.54	20.73	17.06	15.18	13.15	11.64	10.28	9.031	8.525	7.185	5.919	5.254	5.159	8.701	19.90	39.34	188.4	526.3	222.7	12.96	1.860	1.322	1.371	1.235	1.344	1.132	1.066	0.940	1.001	0.916
545.0	140.0	157.0	166.8	181.3	199.6	271.4	272.2	227.7	254.6	716.4	2668	657.1	179.3	156.4	132.3	116.8	101.0	94.61	86.71	81.67	76.40	73.48	71.65	69.84	68.11	66.76	64.87	65.24	64.79	65.55	63.02	59.92	53.95	50.12	46.11	42.37	39.88	37.24	35.06	32.11	30.87	28.85	26.94	26.02	24.22	22.64	21.97	22.48	20.47	16.67	14.24	12.51	10.51	9.498	8.703	8.108	7.377	5.699	5.045	4.414	4.819	7.136	11.31	45.62	240.0	514.4	170.9	5.602	1.385	1.233	1.155	1.122	1.030	0.972	0.849	0.971	0.976
550.0	114.7	141.8	148.2	153.1	161.5	198.0	258.3	206.7	202.4	315.0	1589	1852	241.1	130.7	109.4	97.27	86.17	78.51	73.78	68.98	65.92	62.37	59.87	58.81	57.84	56.55	54.55	55.15	54.89	54.78	52.69	49.62	45.66	42.26	38.71	35.81	33.41	31.14	29.84	27.70	26.64	24.99	23.30	22.69	20.92	19.45	18.65	18.20	17.91	16.03	13.29	11.24	9.677	8.668	7.940	7.064	6.536	5.723	4.675	3.976	3.874	4.179	4.756	12.27	57.43	208.2	361.0	200.5	14.23	1.249	1.059	1.079	0.999	0.934	0.785	0.846	0.827
555.0	116.7	127.1	128.4	124.8	131.0	149.6	205.8	205.4	169.8	190.7	533.2	2237	811.9	112.4	90.78	80.33	71.41	64.17	59.81	56.80	52.94	50.07	48.69	49.45	46.56	47.33	45.73	45.10	44.70	45.00	43.01	39.65	37.13	34.17	31.76	29.66	27.60	25.95	25.34	22.98	21.66	21.14	19.46	18.37	17.74	16.44	15.60	14.30	13.96	13.67	12.75	10.32	8.223	7.716	6.798	6.264	5.568	5.358	4.703	3.915	3.454	3.083	3.043	4.469	14.65	47.90	106.2	341.4	227.7	17.64	1.005	1.044	0.891	0.846	0.797	0.753	0.838
560.0	112.1	122.3	119.7	111.7	113.5	120.4	168.4	208.7	149.5	149.4	230.4	1371	1475	138.3	78.82	67.88	60.24	55.07	51.31	48.46	44.32	42.44	42.14	41.28	38.53	39.27	38.76	38.32	38.82	38.58	36.73	33.67	31.61	29.47	26.96	24.56	23.40	21.66	21.34	19.26	18.69	17.77	16.30	15.47	15.23	14.25	13.33	12.47	11.48	11.86	11.63	9.570	7.507	7.198	6.058	5.721	5.013	4.813	4.489	3.847	3.036	2.691	2.617	2.720	4.778	11.98	25.19	123.9	338.7	177.2	9.003	0.983	0.839	0.831	0.720	0.719	0.678
565.0	113.6	111.8	110.2	97.75	100.9	109.3	128.5	202.1	149.2	134.5	148.5	554.6	2197	375.8	68.62	58.54	51.88	47.55	43.89	41.93	38.84	37.21	36.52	35.41	33.91	33.35	32.53	32.27	33.20	32.84	31.66	28.64	27.57	25.27	23.14	21.19	20.00	19.22	17.83	16.56	16.05	15.06	14.39	13.86	12.89	12.40	11.64	11.26	10.15	9.808	10.11	8.738	6.966	6.030	5.401	4.990	4.387	4.247	3.776	3.580	3.127	2.779	2.242	2.205	2.617	3.990	6.805	29.81	144.8	312.3	110.2	3.583	0.826	0.677	0.699	0.589	0.604
570.0	109.0	108.6	96.26	86.13	83.50	87.83	98.30	146.8	164.4	117.3	114.2	207.9	1319	1368	94.97	48.90	42.92	38.90	35.50	33.36	31.57	30.58	29.47	28.32	27.85	27.17	26.19	25.74	26.78	26.02	25.58	23.63	22.15	20.11	18.75	17.34	16.18	15.72	15.21	14.01	13.04	12.89	11.92	11.65	10.91	10.11	9.517	9.345	8.168	7.741	7.882	7.760	6.568	5.486	4.782	4.387	4.000	3.539	3.324	3.102	3.015	2.527	2.032	1.919	1.948	2.120	2.716	7.767	34.35	121.3	210.3	114.1	11.84	0.889	0.651	0.538	0.589
575.0	87.67	113.3	86.83	75.26	67.58	73.12	75.94	104.0	163.1	116.4	97.05	116.7	405.0	1740	514.1	41.01	35.28	31.87	28.98	27.34	24.51	24.15	23.71	21.86	21.98	21.90	21.24	20.58	21.68	21.17	20.71	18.46	17.55	16.68	15.04	14.19	13.26	12.64	11.91	11.21	10.70	10.51	9.795	9.333	8.740	8.541	7.887	7.578	6.671	6.070	6.034	5.837	5.962	5.144	4.110	3.585	3.159	3.014	2.871	2.497	2.625	2.492	2.188	1.736	1.556	1.685	1.574	2.637	8.540	27.94	60.51	177.1	152.8	13.69	0.664	0.630	0.513
580.0	91.22	108.5	84.86	67.44	60.92	60.45	68.95	80.63	137.9	125.5	92.78	88.15	146.1	1068	1053	56.34	30.81	27.49	24.08	23.93	21.23	20.46	19.74	19.09	18.09	17.88	17.97	17.85	18.14	18.20	16.93	15.81	14.59	13.78	12.58	11.83	11.59	10.76	10.17	9.636	9.341	8.981	8.685	7.972	7.807	7.196	6.752	6.331	5.930	5.597	4.980	4.650	4.873	4.740	3.951	3.208	3.196	2.674	2.568	2.118	2.048	2.387	2.192	1.566	1.634	1.551	1.315	1.568	2.643	7.130	14.50	62.41	196.9	106.9	6.072	0.698	0.640
585.0	92.83	89.10	85.08	63.33	55.51	54.51	56.64	68.82	104.3	135.5	86.63	81.85	80.94	406.2	1577	114.1	26.92	24.36	21.89	20.62	19.20	18.20	16.87	17.17	15.66	15.48	15.41	15.27	14.67	16.08	14.58	13.72	12.81	12.07	11.01	10.12	9.854	9.296	9.054	8.393	7.652	7.663	7.109	6.669	6.824	6.300	6.030	5.528	5.259	4.820	4.396	4.020	4.165	4.338	3.810	3.006	2.775	2.328	2.158	2.021	1.820	2.026	2.110	1.876	1.536	1.355	1.229	1.151	1.337	2.556	4.034	14.89	82.35	181.5	33.76	2.372	0.682
590.0	85.48	86.35	84.41	58.68	48.70	48.23	51.82	57.00	76.71	128.2	97.56	74.23	63.42	132.1	939.9	845.2	44.05	19.62	17.82	16.62	15.68	14.45	13.77	13.95	13.36	12.80	12.80	12.41	12.45	12.58	12.19	11.17	10.30	9.534	9.114	8.653	8.228	7.564	7.256	6.784	6.554	6.025	5.844	5.468	5.499	5.348	5.118	4.573	4.260	3.865	3.685	3.382	3.313	3.393	3.300	3.025	2.609	2.140	1.854	1.872	1.579	1.608	1.647	1.807	1.540	1.325	1.189	1.005	1.084	1.377	1.478	3.936	19.57	69.27	114.9	72.52	9.907
595.0	90.14	80.25	68.50	57.45	42.68	44.18	45.49	48.74	58.97	97.16	112.5	71.16	59.16	61.09	268.9	1151	274.9	17.75	14.97	14.12	12.97	11.21	11.56	10.32	10.84	10.35	9.695	10.01	10.01	9.725	9.735	9.240	8.401	8.097	7.405	7.060	6.455	6.111	5.779	5.432	5.345	4.624	4.803	4.511	4.577	4.266	4.256	3.729	3.390	3.445	3.110	2.808	2.745	2.695	2.710	2.779	2.398	1.758	1.597	1.644	1.435	1.302	1.224	1.397	1.479	1.393	1.183	0.987	0.923	1.126	0.916	1.515	4.924	15.93	32.56	102.5	91.53
600.0	83.58	76.83	63.07	53.96	43.07	41.45	42.97	45.56	52.86	75.10	120.1	74.11	53.70	44.90	84.28	742.0	707.7	23.95	13.11	12.03	10.69	10.05	10.07	9.066	8.927	8.634	8.124	8.370	8.097	8.181	8.004	7.565	6.894	6.617	6.131	5.874	5.675	5.113	4.719	4.721	4.417	4.320	4.010	4.163	4.064	3.659	3.421	3.117	3.082	2.707	2.682	2.303	2.362	2.171	2.082	2.345	2.280	1.841	1.471	1.587	1.242	1.144	1.150	1.205	1.307	1.413	1.069	0.915	0.820	0.779	0.859	0.951	1.601	3.974	7.815	35.76	112.7
605.0	80.83	76.64	62.59	48.04	41.65	38.97	39.00	45.24	50.33	62.14	106.6	84.73	51.28	39.45	38.12	283.1	1024	74.36	11.23	10.14	9.133	8.788	8.535	7.637	7.793	7.491	6.977	7.206	6.981	7.032	6.701	6.463	6.224	5.411	5.269	5.333	4.598	4.207	4.026	4.092	3.655	3.690	3.454	3.364	3.235	3.176	3.347	2.915	2.686	2.287	2.156	2.207	1.827	1.755	1.683	1.947	2.058	1.916	1.400	1.210	1.203	1.229	1.164	0.928	1.042	1.298	1.222	1.071	0.821	0.741	0.726	0.672	0.883	1.361	2.151	8.626	46.21
610.0	77.48	70.25	64.63	46.56	39.01	34.56	34.94	41.92	47.87	55.54	82.90	97.64	53.62	37.44	26.98	83.15	664.6	504.0	19.25	8.645	7.744	7.537	6.709	6.380	6.366	6.284	5.923	6.180	5.737	5.647	5.595	5.300	4.976	4.680	4.556	4.177	3.849	3.689	3.075	3.160	2.955	2.862	2.912	2.807	2.718	2.542	2.476	2.247	2.258	2.000	1.871	1.817	1.597	1.525	1.498	1.488	1.637	1.655	1.415	1.132	1.088	1.028	1.042	0.919	0.929	1.013	1.067	1.084	0.822	0.775	0.687	0.607	0.655	0.768	0.885	2.255	11.02
615.0	73.84	63.65	58.30	47.31	33.95	28.74	36.35	40.23	46.26	49.75	64.61	94.07	65.79	35.79	24.05	32.65	193.1	790.2	78.01	7.673	5.979	6.043	5.605	5.176	5.112	5.539	4.595	5.063	4.489	4.532	4.730	4.391	3.952	3.796	3.787	3.554	2.927	2.977	2.875	2.666	2.338	2.409	2.297	2.364	2.216	1.990	1.997	1.893	1.733	1.666	1.572	1.483	1.472	1.264	1.210	1.197	1.266	1.374	1.358	1.165	1.005	0.911	0.881	0.824	0.783	0.809	0.837	0.958	0.921	0.736	0.633	0.626	0.585	0.555	0.581	0.808	2.848
620.0	67.38	71.70	58.28	44.76	29.18	27.69	35.03	36.88	40.28	47.98	56.92	78.38	74.43	36.25	23.89	20.06	54.84	558.0	422.9	9.922	5.325	5.292	4.975	4.593	4.410	4.434	4.196	4.027	3.793	3.932	3.954	3.416	3.324	3.151	3.099	2.942	2.545	2.544	2.349	2.348	2.170	2.131	1.867	1.913	1.822	1.748	1.688	1.616	1.547	1.383	1.480	1.251	1.158	1.069	1.007	0.994	1.144	1.080	1.235	1.210	0.903	0.864	0.734	0.713	0.736	0.746	0.797	0.880	0.957	0.746	0.585	0.560	0.510	0.522	0.464	0.548	0.950
625.0	60.24	65.14	53.31	42.57	28.26	27.17	33.93	35.12	40.20	44.81	51.35	64.28	78.21	38.17	22.50	17.17	21.49	226.9	684.4	41.65	4.704	4.480	4.275	4.238	3.841	3.747	3.380	3.553	3.567	3.414	3.530	2.934	2.681	2.689	2.441	2.223	2.266	2.297	2.038	1.920	1.873	1.815	1.655	1.631	1.733	1.554	1.513	1.439	1.390	1.178	1.116	1.058	1.041	0.892	0.924	0.925	0.973	0.900	1.171	1.114	0.920	0.895	0.717	0.706	0.731	0.748	0.688	0.705	0.783	0.830	0.616	0.489	0.463	0.510	0.485	0.428	0.563
630.0	57.20	63.29	49.82	37.01	28.89	28.79	29.29	31.92	37.01	41.40	48.40	52.17	68.55	47.97	23.62	15.52	13.55	62.81	502.2	329.4	8.507	4.058	3.587	3.566	3.370	2.984	2.949	2.843	2.832	2.733	2.618	2.399	2.175	2.185	2.088	1.825	1.780	1.843	1.732	1.646	1.518	1.403	1.338	1.346	1.421	1.255	1.242	1.207	1.164	0.952	0.919	0.918	0.865	0.849	0.797	0.782	0.742	0.800	0.827	0.898	0.884	0.769	0.657	0.753	0.663	0.644	0.588	0.658	0.602	0.736	0.753	0.581	0.496	0.455	0.420	0.408	0.458
635.0	55.52	57.32	51.06	36.68	25.17	25.61	28.28	29.99	37.33	40.92	45.49	46.58	52.43	54.56	25.97	13.66	10.79	20.48	153.3	588.0	56.13	3.524	3.059	2.877	2.584	2.580	2.430	2.358	2.376	2.448	2.120	2.071	1.939	1.769	1.618	1.515	1.489	1.398	1.424	1.204	1.135	1.106	1.112	1.102	1.198	1.130	1.027	0.949	0.902	0.740	0.799	0.777	0.743	0.669	0.603	0.610	0.670	0.656	0.676	0.746	0.805	0.781	0.647	0.658	0.605	0.627	0.584	0.582	0.595	0.541	0.634	0.633	0.572	0.481	0.394	0.408	0.371
640.0	52.05	63.25	46.51	37.68	24.85	22.71	26.91	27.39	33.68	37.66	43.64	43.76	43.60	53.56	30.94	14.57	10.85	10.65	41.82	462.3	270.3	4.760	2.743	2.433	2.069	2.345	2.144	1.950	2.183	1.953	1.811	1.727	1.471	1.659	1.419	1.346	1.302	1.104	1.160	1.056	1.073	1.085	1.054	1.026	1.041	0.947	0.913	0.879	0.748	0.728	0.727	0.736	0.661	0.583	0.699	0.562	0.624	0.659	0.709	0.680	0.645	0.777	0.597	0.604	0.506	0.622	0.487	0.502	0.541	0.516	0.482	0.617	0.478	0.468	0.388	0.385	0.397
645.0	58.38	58.54	52.38	36.81	25.77	21.67	25.34	29.98	32.52	35.95	43.14	43.97	40.48	47.13	38.81	15.97	10.69	8.474	13.98	207.4	491.7	20.94	2.639	2.300	2.082	1.924	1.774	1.670	1.876	1.709	1.558	1.507	1.415	1.493	1.164	1.152	1.290	1.054	1.073	0.922	0.919	0.957	0.897	0.906	0.776	0.823	0.754	0.832	0.687	0.607	0.653	0.730	0.550	0.547	0.607	0.563	0.529	0.644	0.613	0.572	0.683	0.776	0.632	0.595	0.439	0.577	0.455	0.545	0.476	0.469	0.457	0.558	0.663	0.484	0.391	0.343	0.415
650.0	55.18	56.21	57.59	38.42	24.36	22.67	22.86	28.31	33.52	34.62	39.90	43.12	38.75	39.97	42.52	17.17	11.24	8.537	7.742	61.54	506.0	66.19	2.692	2.173	2.084	1.578	1.664	1.468	1.524	1.395	1.526	1.356	1.289	1.164	1.221	1.066	1.060	1.055	0.809	0.847	0.809	0.854	0.809	0.845	0.716	0.724	0.750	0.707	0.609	0.527	0.573	0.601	0.529	0.473	0.520	0.550	0.529	0.637	0.580	0.484	0.569	0.590	0.554	0.551	0.453	0.472	0.455	0.566	0.457	0.478	0.406	0.477	0.535	0.466	0.402	0.425	0.405
