Sample:	'1
File name:	G2025062403»ÆºÓÎåÂ·ÇÅ.FD3
Run date:	'15:07:53, 06/26/2025
Operator:	Administrator
Comment:	'

Instrument
Model:	F-2700 FL Spectrophotometer
Serial number:	23B8-004
ROM Version:	4J14000 07

Instrument parameters
Measurement type:	3-D scan
Data mode:	Fluorescence
EX  Start WL:	220.0 nm
EX  End WL:	600.0 nm
EX Sampling interval:	5.0 nm
EM  Start WL:	230.0 nm
EM  End WL:	650.0 nm
EM Sampling interval:	5.0 nm
Scan speed:	12000 nm/min
EX Slit:	5.0 nm
EM Slit:	5.0 nm
PMT Voltage:	700 V
Response:	Auto 
Corrected spectra:	Off
Contour interval:	50.000

Peak integration
Integration method:	Rectangular
Sensitivity:	1
Threshold:	1.000

Peaks
No.	ApexEX/EM(nm)	Height(Data)
1	225.0/565.0	174.9
2	230.0/340.0	5623
3	255.0/285.0	510.8
4	260.0/575.0	166.7
5	265.0/585.0	147.4
6	275.0/325.0	3032
7	275.0/615.0	179.4
8	280.0/625.0	154.2
9	455.0/340.0	15.54
10	460.0/345.0	14.99
11	475.0/350.0	13.12
12	505.0/275.0	2.799
13	510.0/280.0	3.581
14	520.0/285.0	3.589
15	535.0/270.0	52.04
16	555.0/325.0	13.86
17	570.0/335.0	13.55

Data points
	220.0	225.0	230.0	235.0	240.0	245.0	250.0	255.0	260.0	265.0	270.0	275.0	280.0	285.0	290.0	295.0	300.0	305.0	310.0	315.0	320.0	325.0	330.0	335.0	340.0	345.0	350.0	355.0	360.0	365.0	370.0	375.0	380.0	385.0	390.0	395.0	400.0	405.0	410.0	415.0	420.0	425.0	430.0	435.0	440.0	445.0	450.0	455.0	460.0	465.0	470.0	475.0	480.0	485.0	490.0	495.0	500.0	505.0	510.0	515.0	520.0	525.0	530.0	535.0	540.0	545.0	550.0	555.0	560.0	565.0	570.0	575.0	580.0	585.0	590.0	595.0	600.0
230.0	156.3	2152	3214	631.6	25.36	10.14	7.941	7.023	6.277	6.051	5.693	4.886	4.708	3.928	3.529	2.684	2.455	2.205	2.069	1.910	1.552	1.470	1.416	1.321	1.216	1.200	1.028	1.078	1.004	0.991	0.889	0.842	0.798	0.773	0.722	0.637	0.635	0.628	0.566	0.588	0.724	0.828	0.784	0.583	0.505	0.572	2.885	9.349	11.99	6.841	2.161	0.579	0.380	0.389	0.378	0.363	0.383	0.371	0.382	0.362	0.350	0.351	0.382	0.349	0.370	0.358	0.362	0.356	0.346	0.401	0.388	0.380	0.367	0.351	0.405	0.364	0.366
235.0	158.1	629.0	2544	3159	524.9	38.31	9.349	7.581	6.467	5.712	5.859	5.396	4.855	4.385	3.257	3.115	2.438	2.225	2.069	1.840	1.691	1.455	1.301	1.426	1.210	1.151	1.042	1.171	0.895	0.901	0.826	0.852	0.851	0.810	0.693	0.575	0.619	0.601	0.556	0.589	0.575	0.627	0.932	0.862	0.711	0.574	0.983	2.705	5.454	8.633	11.47	10.40	4.333	0.954	0.459	0.365	0.436	0.392	0.393	0.320	0.378	0.351	0.362	0.376	0.355	0.333	0.373	0.400	0.384	0.384	0.353	0.381	0.330	0.340	0.379	0.413	0.356
240.0	223.5	234.5	865.2	3362	3247	408.2	19.55	9.118	7.193	6.537	6.522	5.441	5.429	4.091	3.541	2.816	2.685	2.231	1.922	1.972	1.712	1.583	1.406	1.322	1.456	1.090	1.163	1.165	1.059	0.933	0.963	0.919	0.859	0.763	0.747	0.586	0.647	0.632	0.606	0.591	0.590	0.593	0.722	0.789	0.988	0.768	0.717	1.013	1.630	2.996	7.677	16.29	17.19	10.73	3.198	0.729	0.387	0.425	0.406	0.350	0.374	0.381	0.397	0.409	0.363	0.354	0.391	0.395	0.364	0.437	0.393	0.366	0.337	0.352	0.383	0.395	0.391
245.0	184.4	227.6	252.5	1355	4470	3111	285.4	13.77	8.865	7.023	6.649	5.868	5.173	4.357	3.673	3.074	2.813	2.070	2.246	1.891	1.611	1.691	1.495	1.351	1.239	1.049	1.165	0.978	1.155	1.110	0.946	0.933	0.841	0.798	0.693	0.615	0.608	0.582	0.652	0.633	0.582	0.597	0.555	0.675	0.702	0.927	1.003	0.923	0.688	1.027	2.134	6.483	14.80	22.61	19.22	8.755	2.294	0.524	0.425	0.426	0.385	0.428	0.385	0.472	0.402	0.361	0.361	0.414	0.392	0.354	0.417	0.377	0.378	0.397	0.397	0.414	0.392
250.0	80.64	189.6	234.9	375.7	1640	4206	4414	1121	56.39	9.926	8.132	6.622	5.652	5.114	4.162	3.638	2.910	2.518	2.421	2.095	1.592	1.768	1.586	1.375	1.347	1.152	1.222	1.204	1.183	1.113	0.844	0.907	0.793	0.773	0.799	0.686	0.717	0.656	0.600	0.612	0.574	0.564	0.539	0.580	0.574	0.615	0.766	1.028	1.040	0.936	0.923	1.820	3.943	8.244	14.32	21.06	25.11	18.33	10.14	2.582	0.557	0.416	0.433	0.450	0.416	0.405	0.407	0.389	0.430	0.386	0.383	0.392	0.379	0.392	0.454	0.394	0.423
255.0	53.01	77.06	197.2	300.0	430.6	1168	4741	7225	1532	51.89	11.95	9.084	7.036	6.045	4.608	3.807	3.393	2.710	2.735	2.161	1.966	1.675	1.538	1.679	1.336	1.408	1.284	1.055	1.365	1.103	0.887	1.025	0.802	0.822	0.761	0.718	0.708	0.762	0.625	0.568	0.642	0.586	0.624	0.565	0.560	0.585	0.559	0.561	0.757	1.039	1.289	1.397	1.400	2.202	3.590	5.462	11.12	26.16	42.75	28.03	14.83	2.455	0.544	0.430	0.487	0.388	0.508	0.413	0.466	0.453	0.402	0.364	0.349	0.455	0.470	0.392	0.403
260.0	49.62	43.23	94.52	286.6	279.7	306.6	1635	7446	7704	262.5	26.68	11.11	8.789	7.187	5.305	4.504	3.811	3.295	2.734	2.366	2.064	1.845	1.743	1.651	1.587	1.404	1.376	1.298	1.237	1.268	1.011	0.959	0.842	0.850	0.760	0.698	0.607	0.760	0.584	0.503	0.599	0.617	0.641	0.519	0.531	0.599	0.531	0.494	0.464	0.684	1.066	1.725	1.537	1.281	1.189	1.512	3.020	7.684	21.94	42.58	53.92	26.40	11.23	1.337	0.549	0.478	0.489	0.420	0.459	0.458	0.387	0.489	0.437	0.447	0.401	0.375	0.473
265.0	55.25	38.18	48.00	155.1	331.8	200.2	407.9	2912	9999.9	7234	205.8	17.13	10.60	8.731	6.101	4.679	4.122	3.551	2.923	2.673	2.395	1.945	1.877	1.564	1.541	1.510	1.255	1.427	1.417	1.187	1.064	1.135	0.914	0.827	0.738	0.841	0.648	0.678	0.668	0.653	0.648	0.585	0.585	0.589	0.587	0.617	0.513	0.557	0.495	0.490	0.578	1.053	1.621	1.957	1.306	0.913	1.112	2.272	5.581	14.24	35.26	58.46	62.05	22.73	5.803	0.668	0.527	0.470	0.429	0.434	0.441	0.496	0.509	0.465	0.419	0.394	0.495
270.0	102.2	76.18	54.70	68.55	194.7	330.3	261.1	716.4	3567	9494	9971	822.9	50.07	11.24	8.441	6.115	4.840	3.732	3.120	2.968	2.495	2.090	1.994	1.723	1.787	1.593	1.449	1.414	1.539	1.299	1.147	1.137	0.955	0.937	0.817	0.878	0.814	0.857	0.744	0.723	0.709	0.698	0.660	0.694	0.702	0.674	0.609	0.590	0.574	0.488	0.487	0.648	0.874	1.260	1.777	1.894	1.515	1.323	1.779	3.738	8.750	18.39	35.85	52.04	48.09	50.87	15.60	5.646	0.797	0.538	0.536	0.495	0.491	0.406	0.431	0.479	0.469
275.0	250.8	226.9	145.8	73.73	85.11	201.4	449.8	351.3	868.1	2527	9388	9999.9	1158	48.16	12.43	8.379	6.230	4.805	4.090	3.300	2.842	2.615	2.405	1.935	1.840	1.653	1.542	1.395	1.358	1.311	1.355	1.154	1.074	1.020	0.965	1.052	1.047	1.118	0.940	1.001	0.959	0.877	1.009	0.993	1.003	0.969	0.818	0.849	0.814	0.684	0.576	0.552	0.645	0.730	0.917	1.232	2.193	2.799	2.183	1.624	2.618	4.776	8.554	12.70	18.08	47.59	85.77	86.42	23.86	5.389	0.830	0.524	0.488	0.574	0.509	0.465	0.488
280.0	485.3	409.2	249.7	112.9	74.00	107.9	349.1	424.6	362.6	684.4	2912	9999.9	9999.9	817.9	25.40	10.59	7.487	5.731	4.445	3.834	3.173	2.819	2.481	2.181	1.859	1.850	1.620	1.646	1.513	1.359	1.393	1.050	1.161	1.028	1.322	1.276	1.374	1.381	1.226	1.250	1.296	1.131	1.510	1.305	1.263	1.572	1.289	1.408	1.035	0.811	0.708	0.683	0.616	0.712	0.765	0.806	1.335	2.258	3.581	2.852	1.842	1.903	2.791	3.746	5.050	12.74	33.86	75.03	101.6	33.72	19.27	2.565	0.716	0.594	0.538	0.483	0.508
285.0	706.2	620.7	369.3	173.7	97.60	95.08	191.2	510.8	373.9	345.5	847.4	3797	9999.9	8209	120.8	16.79	10.17	7.188	5.403	4.767	3.431	3.087	2.559	2.394	2.185	1.940	1.810	1.684	1.589	1.527	1.453	1.137	1.267	1.085	1.270	1.539	1.640	1.723	1.734	1.684	1.698	1.525	1.763	1.671	1.669	1.880	1.703	1.627	1.433	0.944	0.851	0.830	0.712	0.654	0.664	0.730	0.986	1.301	2.264	3.349	3.589	2.193	1.852	1.990	2.219	4.131	8.824	20.82	48.15	83.56	105.9	30.70	12.80	1.304	0.702	0.560	0.600
290.0	969.1	820.8	540.8	276.0	151.8	135.4	176.6	332.2	628.5	656.6	549.9	1165	3752	9999.9	9999.9	2097	36.36	10.99	7.541	5.671	4.508	3.535	3.131	2.575	2.456	2.102	1.915	1.709	1.790	1.773	1.494	1.286	1.292	1.277	1.448	1.934	2.098	2.248	2.144	2.021	2.040	1.915	2.149	2.155	2.305	2.474	2.261	2.149	1.987	1.378	1.104	1.138	0.902	0.879	0.862	0.899	1.088	1.197	1.481	1.936	2.918	3.719	4.005	3.438	2.627	2.698	3.666	6.321	12.45	23.17	45.21	62.58	82.61	66.55	20.39	10.03	1.700
295.0	1154	1032	704.7	401.4	255.0	241.6	287.2	366.7	541.2	959.4	959.7	780.3	1223	2644	8618	9999.9	704.9	39.39	12.03	7.849	5.818	4.475	3.617	2.870	2.714	2.435	2.186	1.924	1.831	1.876	1.591	1.345	1.353	1.344	1.598	1.977	2.368	2.579	2.316	2.559	2.276	2.389	2.395	2.477	2.700	2.691	2.694	2.518	2.241	1.750	1.531	1.417	1.308	1.185	1.270	1.314	1.556	1.531	1.858	2.151	2.438	2.867	3.569	5.341	5.721	4.592	3.622	3.661	5.188	7.288	11.77	15.54	22.53	40.48	85.20	113.4	33.36
300.0	1309	1210	865.5	556.7	401.0	410.4	459.9	600.1	769.2	1090	1532	1215	977.6	1063	2605	9999.9	9999.9	549.3	25.86	10.68	7.490	5.370	4.758	3.408	3.166	2.768	2.274	2.361	2.018	2.088	1.688	1.543	1.388	1.466	1.694	2.322	2.596	2.888	2.762	2.984	2.641	2.774	2.706	2.893	3.028	3.014	3.123	3.247	2.704	2.128	1.868	1.819	1.852	1.715	1.751	1.868	2.308	2.569	2.858	3.100	3.145	3.759	4.362	5.223	6.840	8.013	6.811	5.369	5.112	5.132	5.652	6.398	7.492	11.44	27.00	65.44	107.2
305.0	1546	1501	1100	749.4	582.0	588.1	788.9	1012	1272	1622	2049	2277	1467	1176	1296	3562	9999.9	5384	80.84	17.10	9.916	6.569	5.436	4.325	3.823	3.073	2.698	2.643	2.311	2.019	1.878	1.611	1.569	1.528	1.674	2.443	2.884	3.415	3.364	3.365	3.102	3.032	3.032	3.360	3.526	3.792	3.807	4.130	3.427	2.789	2.462	2.597	2.448	2.461	2.673	2.887	3.434	4.144	4.277	4.791	5.450	6.161	6.855	7.369	7.977	9.883	10.95	10.62	9.198	8.005	7.109	6.225	6.136	7.138	9.676	18.62	40.28
310.0	1757	1757	1384	980.0	823.1	884.4	1121	1381	1677	2055	2378	2700	2429	1698	1317	1505	3721	9578	9170	1754	29.98	9.697	7.039	5.400	4.300	3.729	3.165	2.844	2.482	2.152	2.157	1.794	1.660	1.653	1.907	2.362	3.242	3.817	3.679	3.739	3.567	3.583	3.562	3.661	3.885	4.392	4.405	4.678	4.162	3.393	3.106	3.370	3.228	3.300	3.510	3.915	4.679	5.295	5.795	6.531	7.112	7.698	8.973	9.718	10.29	10.88	11.54	12.50	13.15	12.01	10.08	8.329	7.664	7.661	7.276	8.575	13.04
315.0	2115	2138	1743	1277	1055	1111	1370	1634	1903	2259	2581	2806	2732	2351	1587	1196	1560	2616	6757	9999.9	534.6	31.48	10.21	6.747	5.539	4.222	3.538	3.204	2.774	2.462	2.487	1.876	1.756	1.799	1.849	2.443	3.020	3.685	3.769	4.062	3.869	4.027	4.222	4.223	4.529	5.198	5.064	5.565	5.169	4.127	3.836	4.182	3.970	4.004	4.437	4.546	5.432	6.297	6.975	7.391	8.224	9.118	10.06	10.79	11.30	11.95	12.13	12.91	13.30	12.93	13.35	12.04	10.11	8.943	7.689	7.195	7.243
320.0	2628	2978	2382	1535	1206	1257	1521	1802	2046	2415	2767	2979	2816	2584	1983	1264	1163	1043	1875	8876	9999.9	451.9	20.50	9.372	6.612	5.007	4.192	3.425	2.960	2.470	2.359	2.267	1.950	1.792	2.030	2.370	3.329	3.828	3.968	4.293	4.165	4.468	4.719	5.123	5.598	6.558	7.220	7.870	7.062	5.471	4.706	4.846	4.627	4.706	4.921	5.117	6.312	7.123	7.580	8.282	8.548	9.753	10.55	11.45	11.73	12.17	12.58	13.35	13.56	13.53	13.21	12.78	12.81	11.19	8.766	7.493	6.611
325.0	3379	4036	3335	2021	1413	1372	1623	1886	2094	2462	2805	3032	2893	2545	2240	1457	1113	733.6	622.9	2598	9999.9	9646	64.21	14.73	8.172	6.629	4.534	3.660	3.215	2.929	2.530	2.247	2.081	1.978	2.076	2.416	3.183	3.728	4.112	4.346	4.397	4.748	5.451	5.951	6.816	8.377	9.091	10.59	9.708	7.804	5.962	5.749	5.377	5.241	5.279	5.243	6.448	7.826	7.914	8.701	9.084	9.688	10.45	11.44	12.11	12.25	13.00	13.86	13.80	13.45	13.07	12.56	12.51	12.63	10.46	8.722	6.881
330.0	3832	4794	4312	2879	1932	1601	1686	1904	2083	2398	2735	2975	2877	2532	2158	1698	1255	740.1	433.8	767.2	2943	8491	7587	1553	26.73	8.979	6.229	4.614	3.721	3.388	2.834	2.380	2.284	2.190	2.035	2.505	3.130	3.598	4.113	4.443	4.545	5.257	5.692	6.799	7.479	9.423	10.63	12.50	12.27	10.11	8.451	8.634	7.295	6.836	6.263	6.035	6.850	7.610	8.236	8.635	9.092	9.581	10.25	11.11	11.70	12.54	12.79	13.32	13.72	13.29	13.17	12.70	11.94	11.61	11.20	10.19	8.855
335.0	4278	5509	5351	3820	2707	1969	1800	1952	2091	2378	2714	2949	2894	2615	2176	1721	1514	943.9	520.9	461.3	862.9	2086	5475	9999.9	2338	30.92	9.235	6.237	4.765	4.391	3.498	2.793	2.475	2.494	2.169	2.528	3.079	4.049	4.206	4.376	4.752	5.380	6.327	7.067	8.502	10.27	12.40	14.58	14.11	12.60	10.45	11.48	10.03	9.197	8.103	6.990	7.448	8.085	8.374	8.863	8.859	9.349	10.18	10.66	11.18	12.23	12.86	13.23	13.15	13.47	13.55	12.94	12.32	12.19	11.12	10.02	9.641
340.0	4498	5601	5623	4181	3023	2153	1860	1932	2068	2323	2617	2840	2813	2575	2158	1690	1479	1137	630.9	444.8	443.6	643.9	1512	7872	9999.9	406.2	20.33	8.197	5.946	4.423	3.913	3.083	2.434	2.543	2.358	2.610	3.106	3.643	4.290	4.574	5.090	5.507	6.660	7.472	8.927	10.67	12.59	15.54	14.80	13.45	11.86	12.71	11.27	10.21	9.096	7.803	7.692	7.780	8.199	8.401	8.628	9.318	9.930	10.58	11.37	12.06	12.11	12.62	12.99	13.49	12.86	12.93	12.54	11.70	10.95	9.424	9.267
345.0	4139	5310	5456	4220	3111	2211	1863	1875	1993	2203	2451	2649	2641	2443	2088	1649	1362	1149	779.4	487.6	385.3	357.6	489.7	2277	9675	8768	324.4	12.88	7.355	5.174	4.186	3.258	2.747	2.582	2.364	2.699	3.015	3.662	3.985	4.235	4.390	5.373	6.037	6.875	8.179	10.51	11.98	14.49	14.99	13.39	12.08	12.44	11.57	10.22	8.895	7.858	7.754	8.339	8.235	8.562	8.623	8.678	9.556	10.14	10.67	10.80	11.58	11.94	12.17	12.50	11.87	12.56	11.77	11.06	10.45	9.810	9.139
350.0	3763	4829	5057	4224	3206	2350	1936	1895	1956	2091	2300	2457	2438	2299	2001	1621	1339	1079	894.6	666.9	453.5	354.9	320.3	654.8	2752	7348	6517	1411	24.04	7.533	5.379	3.842	3.121	2.699	2.428	2.550	2.913	3.467	3.660	4.249	4.416	5.082	5.651	6.458	7.662	9.300	10.99	13.28	13.95	12.35	11.84	13.12	11.76	10.97	9.624	8.237	8.358	8.141	8.263	8.510	8.455	8.764	9.124	9.513	10.06	10.19	10.72	10.92	11.31	11.73	11.48	11.36	11.22	10.88	10.37	9.566	9.082
355.0	3492	4455	4609	4065	3275	2492	2061	2006	1994	2077	2219	2326	2303	2179	1929	1610	1354	1095	890.5	812.7	605.5	428.8	347.2	346.6	742.0	1769	4674	9999.9	2127	27.87	7.310	4.760	3.873	2.945	2.529	2.498	3.191	3.362	3.537	3.925	4.350	4.462	5.306	6.155	6.817	8.593	9.884	11.96	12.54	11.63	11.28	12.84	12.25	11.46	10.21	8.785	8.933	8.550	8.826	8.924	8.799	9.022	9.515	9.455	9.674	9.864	10.33	10.33	10.91	11.00	10.90	10.69	10.78	10.66	9.597	9.364	8.922
360.0	3239	4043	4283	3843	3225	2532	2146	2073	2061	2100	2174	2248	2195	2079	1871	1589	1361	1115	901.9	813.2	748.4	526.7	393.0	317.0	331.7	505.4	1256	7080	9633	384.1	17.54	6.324	4.575	3.530	2.887	2.614	3.154	3.271	3.507	3.718	4.138	4.410	5.217	5.931	6.570	8.130	8.988	10.72	11.08	10.57	10.74	11.93	11.77	11.34	10.13	8.837	8.968	8.537	9.006	8.866	9.068	9.050	9.400	9.513	9.477	9.855	10.13	9.812	10.37	10.61	10.26	10.58	10.59	10.14	9.605	9.439	8.884
365.0	3023	3686	3943	3622	3141	2560	2197	2141	2089	2106	2148	2170	2119	2020	1821	1565	1353	1140	945.4	821.0	779.1	662.6	463.5	353.8	277.1	253.1	377.9	2041	8898	7900	300.3	10.89	5.972	4.073	3.543	2.925	3.194	3.501	3.574	3.560	4.063	4.308	5.378	5.410	6.361	7.444	8.027	9.745	10.33	9.717	10.05	11.37	11.07	10.94	9.530	9.166	9.435	8.928	9.148	8.712	8.980	9.461	9.431	9.804	9.585	9.532	9.831	9.304	9.868	10.20	9.932	10.07	9.782	9.762	9.480	8.918	8.955
370.0	2790	3305	3578	3348	3055	2592	2273	2162	2152	2136	2139	2107	2038	1942	1763	1548	1368	1179	1008	874.7	785.5	744.2	611.5	444.9	329.6	254.0	224.0	550.3	2534	6908	6141	1274	20.75	6.040	4.241	3.442	3.544	3.505	3.610	3.769	3.903	4.432	4.799	5.291	5.954	6.913	7.211	8.858	9.208	8.857	9.295	11.00	10.71	10.74	10.06	9.347	9.717	9.202	9.417	9.014	9.374	9.487	9.340	9.534	9.442	9.482	9.632	9.310	9.476	9.541	9.615	9.787	9.460	9.432	9.327	9.058	8.956
375.0	2586	3012	3250	3109	2964	2619	2336	2218	2185	2153	2121	2069	1981	1861	1702	1531	1372	1222	1060	943.4	835.1	755.8	719.0	597.4	423.4	317.0	244.5	259.4	655.2	1654	4591	9131	1842	23.10	5.877	4.672	3.809	3.950	3.873	3.686	4.053	4.302	4.527	4.847	5.336	6.468	6.824	7.970	8.333	8.209	8.575	10.07	10.27	10.57	9.963	9.299	9.762	9.256	9.305	9.362	9.611	9.994	9.469	9.635	9.498	9.437	9.414	9.203	9.481	9.252	9.368	9.776	9.672	8.999	9.177	9.062	9.091
380.0	2438	2864	3069	2991	2865	2594	2368	2226	2184	2157	2116	2033	1932	1817	1669	1521	1378	1239	1099	982.1	880.8	794.5	737.2	703.7	513.8	379.6	288.5	229.9	265.2	447.9	1241	6657	8061	318.1	13.96	5.798	4.273	4.263	3.932	3.728	3.981	4.178	4.446	4.786	5.272	6.088	6.502	7.748	8.047	7.725	7.616	9.941	9.889	10.13	9.931	9.507	9.481	9.798	9.656	9.283	9.362	9.665	9.599	9.853	9.489	9.397	8.996	8.991	9.270	9.099	9.290	9.475	9.386	8.912	8.796	8.633	8.845
385.0	2388	2758	2856	2855	2779	2578	2351	2245	2163	2134	2071	2006	1906	1781	1638	1490	1363	1245	1118	1014	918.7	833.1	755.5	720.3	623.0	447.3	337.5	254.7	208.4	202.1	348.2	1934	7479	6172	240.0	8.286	5.252	4.514	4.267	4.074	4.020	4.308	4.357	4.885	5.225	5.770	6.326	7.172	7.530	7.275	7.633	9.246	9.664	10.16	9.851	9.371	9.453	9.728	9.707	9.347	9.528	9.664	9.151	9.560	9.302	9.373	8.776	9.050	9.222	8.957	8.850	9.070	9.026	8.927	8.356	8.439	9.020
390.0	2343	2596	2706	2720	2682	2510	2343	2210	2138	2090	2020	1939	1838	1715	1596	1462	1350	1247	1134	1038	954.5	874.7	794.8	720.3	670.8	564.9	412.6	312.2	242.0	185.6	177.0	498.6	2141	5477	4669	980.6	17.06	6.003	5.222	4.616	4.452	4.469	4.783	4.924	5.204	5.834	6.120	6.803	6.992	6.782	7.231	8.789	9.316	9.575	9.380	9.382	9.298	9.495	9.579	9.401	9.505	9.238	9.275	9.232	9.211	9.093	8.806	8.718	8.425	8.651	8.737	8.588	8.647	8.957	8.506	8.150	8.778
395.0	2226	2414	2553	2584	2576	2452	2313	2198	2106	2025	1968	1877	1778	1663	1531	1430	1328	1237	1143	1055	985.5	904.3	831.7	747.8	676.7	628.2	523.5	383.9	295.7	223.6	175.0	203.9	539.2	1311	3624	6693	1431	19.14	6.715	5.391	5.018	4.738	4.521	5.037	5.480	5.623	5.774	6.683	6.525	6.489	6.902	8.809	8.722	9.258	8.965	9.081	9.430	9.690	9.540	9.220	9.024	8.889	9.292	8.908	9.176	8.676	8.355	8.485	8.390	8.416	8.340	8.530	8.278	8.474	8.664	8.272	8.818
400.0	2158	2400	2433	2502	2508	2394	2305	2173	2080	2000	1925	1824	1745	1623	1508	1396	1305	1222	1138	1060	991.1	924.5	853.5	774.2	695.0	633.1	587.5	454.6	339.5	261.6	197.5	158.5	196.6	345.7	997.4	5071	5841	261.1	11.92	6.358	5.370	5.167	4.884	4.862	5.408	5.416	5.936	6.631	6.139	6.168	6.769	8.617	8.342	8.926	8.602	8.984	9.618	9.182	9.444	9.338	8.955	8.972	8.769	9.345	9.020	8.626	8.483	8.520	8.389	8.075	8.203	8.299	8.464	8.362	8.199	7.906	8.379
405.0	2134	2289	2362	2421	2438	2358	2274	2155	2030	1955	1890	1794	1705	1580	1477	1366	1280	1203	1124	1060	993.7	928.2	864.3	791.7	714.0	639.5	593.0	523.5	389.8	300.0	229.7	170.1	138.6	142.6	268.3	1490	5616	4404	37.70	8.438	5.900	5.420	5.156	4.915	5.299	5.272	5.573	6.408	6.331	6.171	6.361	8.306	8.502	8.545	8.489	9.054	9.559	9.153	9.294	8.884	8.700	8.535	8.976	8.983	8.740	8.474	8.359	8.260	8.342	7.904	8.208	8.033	7.724	8.071	7.961	7.788	8.376
410.0	2083	2213	2304	2317	2342	2279	2206	2119	1998	1917	1833	1740	1641	1530	1420	1315	1242	1167	1100	1036	978.8	919.0	862.5	800.9	728.9	657.3	591.8	547.6	470.7	357.6	272.2	204.1	152.2	118.7	120.7	374.9	1627	4096	3589	851.3	15.57	6.281	5.580	5.257	5.201	5.234	5.312	6.162	6.118	5.972	5.971	7.649	7.955	8.368	8.647	8.635	9.132	8.905	8.969	8.748	8.958	8.751	8.596	8.417	8.470	8.192	7.700	8.011	7.801	7.883	7.958	7.906	7.633	7.996	7.770	7.732	8.317
415.0	2041	2117	2175	2214	2236	2183	2164	2091	1970	1865	1772	1685	1563	1467	1357	1258	1188	1116	1061	1008	951.4	896.0	850.8	794.0	732.6	666.1	598.5	542.4	506.9	431.7	320.2	240.9	179.5	135.6	104.0	138.6	401.0	983.9	2759	4889	269.2	16.74	6.434	5.490	5.310	5.253	5.174	5.727	5.888	5.500	5.702	7.430	8.089	8.170	8.340	8.350	9.035	9.052	8.544	8.413	8.894	8.273	8.443	8.400	8.237	8.048	7.685	7.454	7.570	7.471	7.501	7.446	7.441	7.176	7.425	7.178	7.714
420.0	1972	2022	2110	2151	2177	2143	2121	2032	1934	1824	1712	1628	1507	1422	1305	1208	1146	1084	1024	974.9	918.6	875.4	832.7	782.6	728.0	670.4	603.9	544.0	503.1	467.4	364.9	267.0	204.3	151.1	112.8	95.84	135.1	251.3	757.1	3716	4118	234.3	10.52	6.047	5.559	5.183	5.172	5.687	5.790	5.432	5.803	7.006	7.138	7.896	8.029	8.151	8.930	8.888	8.474	8.672	8.873	8.355	8.163	7.929	7.949	7.547	7.407	7.302	7.041	7.229	7.203	7.322	7.150	7.104	7.286	7.355	7.222
425.0	1907	1984	2039	2077	2099	2100	2085	1989	1885	1776	1683	1595	1478	1364	1262	1164	1106	1045	991.5	939.5	891.9	845.1	809.2	769.1	721.2	667.5	609.3	550.3	500.2	465.8	409.4	297.1	223.4	168.8	125.5	97.29	84.56	93.84	196.9	1105	4096	2169	35.44	7.779	5.975	5.388	5.123	6.010	5.748	5.360	5.388	6.724	7.148	7.575	7.671	8.150	8.853	8.797	8.171	8.289	8.514	8.214	7.899	8.029	7.885	7.293	7.383	7.238	7.062	6.856	7.138	7.143	7.188	6.692	6.660	7.107	7.473
430.0	2061	1900	1943	1968	2010	2048	2029	1975	1867	1764	1652	1539	1426	1316	1210	1115	1058	998.9	953.6	905.5	857.1	815.2	785.1	749.8	706.4	661.4	611.0	558.5	510.9	461.8	421.6	352.8	259.9	194.4	147.8	112.9	87.33	70.87	79.50	272.9	1181	2773	2900	747.0	15.01	6.321	5.602	5.829	5.761	5.235	5.406	6.472	6.979	7.328	7.472	7.921	8.593	8.443	8.119	8.705	8.190	8.026	7.962	7.815	7.627	7.161	7.061	6.793	6.689	6.550	6.776	6.630	6.870	6.569	6.550	6.645	7.212
435.0	2715	1888	1851	1877	1920	2009	1999	1945	1844	1720	1626	1502	1376	1265	1162	1070	1003	959.5	913.3	863.6	818.7	779.7	754.0	722.6	687.0	649.5	609.0	564.1	521.1	472.5	420.2	376.5	308.9	225.4	171.5	132.0	99.51	76.54	62.67	93.50	287.3	665.9	2122	4056	252.6	16.70	6.463	6.023	5.694	5.087	5.153	6.531	6.990	7.316	7.272	7.569	8.592	8.384	8.538	8.655	8.180	8.006	7.966	7.444	7.743	7.036	6.681	7.117	6.563	6.944	6.331	6.455	6.290	6.341	6.369	6.181	6.580
440.0	3564	1965	1812	1823	1880	1950	1972	1945	1821	1698	1598	1459	1341	1221	1122	1031	974.8	923.9	879.2	835.5	787.2	746.6	729.8	702.1	669.4	636.5	601.8	567.0	525.0	481.3	426.5	372.9	332.0	253.6	188.7	145.0	110.5	85.81	65.68	59.53	92.24	170.3	580.5	3064	3626	220.2	10.64	6.375	5.989	5.115	5.249	6.547	6.424	6.926	7.395	7.204	8.276	8.341	8.247	8.602	8.167	7.879	7.409	7.298	7.256	6.810	6.771	6.721	6.478	6.407	6.249	6.411	5.968	5.887	6.149	6.095	6.207
445.0	3864	2422	1731	1770	1828	1887	1934	1911	1791	1661	1544	1424	1304	1187	1082	992.7	936.1	885.8	853.5	801.2	759.5	720.0	699.0	676.5	648.5	622.2	586.0	556.9	522.8	480.4	430.0	368.0	329.0	279.8	207.4	156.3	122.3	94.29	71.59	58.11	53.38	63.79	149.6	909.8	3546	1974	158.1	7.800	6.336	5.031	5.010	6.533	6.496	6.764	6.979	7.231	7.634	8.318	8.284	8.409	8.221	7.965	7.524	7.486	7.085	6.764	6.579	6.332	6.323	6.358	6.146	6.044	6.455	6.195	5.669	5.795	6.068
450.0	2955	3569	1828	1673	1724	1807	1860	1851	1715	1594	1476	1360	1231	1122	1015	937.3	872.7	833.7	791.8	750.6	708.5	671.8	654.9	634.6	611.2	587.8	560.5	534.5	508.3	474.0	423.9	369.1	315.0	279.4	230.8	172.8	133.1	104.2	81.04	63.72	51.68	44.56	56.60	221.7	1015	2426	2574	687.0	13.65	5.734	5.154	6.162	6.331	6.648	6.842	6.813	7.633	7.902	8.069	7.885	7.766	7.392	7.320	7.155	6.915	6.499	6.260	6.168	6.066	6.181	6.049	5.973	5.801	5.642	5.474	5.700	5.854
455.0	1775	3660	2588	1577	1578	1702	1773	1768	1651	1510	1390	1276	1152	1039	945.7	864.8	811.7	769.7	725.5	690.2	648.1	618.2	599.8	583.9	569.1	544.5	524.2	505.7	484.8	456.3	413.9	360.8	310.2	263.7	235.1	195.5	146.0	110.9	89.55	70.57	56.47	45.56	40.12	71.43	243.6	578.7	1672	3372	209.7	14.44	5.844	6.188	6.190	6.483	6.559	6.490	7.711	7.609	7.522	7.625	7.295	7.074	6.856	6.877	6.527	6.196	6.107	5.843	5.870	5.558	5.874	5.223	5.116	5.479	5.232	5.396	5.253
460.0	1405	2772	3567	1607	1501	1596	1663	1657	1559	1414	1302	1201	1084	976.5	884.7	812.0	759.6	715.7	678.8	641.8	600.7	574.7	556.2	548.0	531.0	515.8	495.5	475.3	463.2	437.5	397.5	351.6	301.5	255.5	223.7	201.9	157.9	117.6	95.40	75.05	60.93	48.00	39.20	39.31	73.32	145.1	437.1	2285	2857	173.6	10.79	6.599	6.081	6.006	6.126	6.223	7.165	7.174	7.417	7.143	6.930	6.772	6.575	6.862	6.082	5.709	5.664	5.306	5.684	5.148	5.475	4.846	4.943	5.082	4.767	5.052	5.098
465.0	1290	1835	3862	2048	1390	1487	1567	1554	1480	1341	1241	1122	1027	920.4	826.8	764.6	703.8	669.4	628.4	596.8	559.4	536.0	515.9	505.2	495.9	483.7	464.3	451.7	441.9	418.1	381.8	336.9	293.1	247.9	211.3	191.2	165.4	125.8	97.27	79.00	63.59	51.01	42.47	35.10	37.06	49.42	112.3	642.5	2593	2333	145.0	8.754	6.149	5.884	6.122	6.046	6.789	6.608	6.847	6.724	6.868	6.486	6.362	6.217	5.775	5.475	5.273	5.108	5.209	4.960	5.011	4.917	4.605	4.582	4.614	4.479	4.923
470.0	1150	1269	2707	3211	1460	1344	1415	1405	1344	1229	1142	1039	935.0	841.8	750.1	684.1	634.6	599.5	567.0	537.4	501.9	481.6	465.6	454.7	445.4	434.1	422.5	412.2	402.2	385.7	354.4	314.8	274.8	235.2	200.9	175.2	157.7	133.8	103.6	81.66	66.62	54.93	44.53	37.63	32.35	30.50	40.94	156.7	715.5	1806	1784	656.5	14.67	6.302	5.916	5.902	6.504	6.096	6.346	6.104	6.322	6.122	5.693	5.658	5.284	5.260	5.130	4.751	4.712	4.632	4.531	4.391	4.439	4.113	4.198	4.219	4.419
475.0	1056	1061	1497	3404	2250	1222	1283	1273	1209	1113	1018	950.5	839.2	752.5	679.7	610.5	565.2	535.5	498.5	478.7	447.8	422.5	411.5	402.7	394.2	385.3	377.8	368.4	358.3	349.0	323.3	289.0	256.7	220.7	189.9	163.1	142.4	130.6	109.8	85.60	68.34	57.10	47.25	40.05	34.31	28.40	27.24	49.73	171.1	418.9	931.1	2222	799.6	17.83	5.998	5.611	5.864	5.968	5.931	5.976	5.634	5.584	5.385	4.882	4.721	4.759	4.777	4.370	4.357	4.346	4.267	3.881	3.878	3.878	3.924	3.877	4.074
480.0	970.1	948.8	1072	2477	3250	1267	1177	1179	1123	1028	952.3	876.5	776.5	692.0	623.2	562.2	525.3	489.9	461.1	434.3	407.4	384.9	374.9	370.0	363.0	353.7	347.4	340.7	333.6	321.8	301.7	274.9	241.5	207.7	179.1	155.1	136.0	120.4	111.5	91.65	70.55	58.30	49.02	41.85	35.71	29.61	25.52	26.56	51.00	103.6	233.2	1222	1873	211.3	12.71	5.847	5.654	5.703	5.735	5.409	5.535	5.158	4.924	4.795	4.534	4.475	4.200	4.052	4.174	3.992	4.112	3.717	3.706	3.772	3.582	3.827	3.742
485.0	895.8	886.0	915.7	1525	3646	1765	1087	1099	1043	957.2	890.2	830.7	732.1	652.7	578.8	525.6	484.8	453.3	431.0	405.2	375.9	356.0	345.1	341.9	334.2	332.2	326.3	316.9	313.1	302.8	282.1	258.2	228.7	197.9	173.8	151.3	131.2	113.7	106.9	95.54	74.65	59.54	50.96	43.90	36.26	30.76	25.82	22.77	25.58	34.19	62.05	323.4	1506	1721	178.1	8.400	5.607	5.464	5.632	5.048	5.301	4.903	4.506	4.424	4.209	4.191	4.110	3.964	3.703	3.711	3.776	3.650	3.459	3.435	3.255	3.453	3.613
490.0	776.5	871.8	835.8	976.3	2509	3053	1189	990.7	952.4	882.5	823.5	760.7	681.0	597.5	528.8	477.4	440.3	413.9	388.2	368.6	340.1	323.7	314.3	310.9	303.9	299.0	296.2	288.4	285.2	278.3	261.2	238.7	212.4	187.1	162.8	143.4	124.7	108.7	98.90	91.01	80.22	63.04	52.24	44.62	38.19	32.76	27.84	23.61	21.16	20.31	24.91	81.74	392.4	1124	1635	695.0	17.06	5.836	5.214	4.907	4.878	4.613	4.295	4.210	4.064	3.968	3.658	3.636	3.507	3.562	3.422	3.497	3.222	3.330	3.025	3.041	3.204
495.0	641.8	776.5	779.9	764.3	1264	3355	2083	901.2	848.9	800.3	747.7	682.1	609.0	538.9	478.8	426.9	395.1	372.4	346.0	326.3	300.4	288.3	279.8	278.1	270.9	266.3	262.9	259.6	259.2	253.4	239.0	218.3	194.2	172.1	150.7	132.8	117.3	103.1	91.64	82.42	77.17	68.23	54.73	45.14	39.33	34.18	29.71	24.78	21.49	18.11	17.03	28.44	96.19	260.3	720.0	1956	1041	22.36	5.325	4.842	4.498	4.324	4.178	3.925	3.820	3.553	3.292	3.502	3.222	3.180	3.104	3.201	2.934	3.091	2.938	2.781	3.070
500.0	592.7	674.1	735.9	692.1	828.2	2404	3181	951.5	772.9	727.8	681.9	623.6	558.6	494.9	436.5	397.0	359.8	338.0	319.1	297.4	275.6	264.0	255.6	250.5	248.4	241.2	240.9	238.5	237.8	231.0	218.7	201.5	178.1	160.1	141.5	126.3	110.4	97.68	87.28	76.65	71.35	67.95	57.03	46.22	38.73	34.53	30.25	25.68	22.59	18.22	15.96	16.83	30.44	65.95	174.9	924.8	2085	241.6	16.68	4.944	4.284	3.934	3.989	3.665	3.454	3.132	3.246	3.188	2.896	2.979	2.941	2.821	2.753	2.697	2.810	2.848	2.816
505.0	539.4	598.4	672.3	635.9	664.9	1349	3688	1455	710.7	671.8	625.8	580.0	518.9	452.2	400.7	362.7	331.8	307.6	287.8	271.1	251.3	237.3	234.3	227.7	223.1	220.3	219.0	218.0	214.8	211.7	198.7	183.8	166.7	147.9	132.7	118.6	102.5	93.18	83.06	72.66	65.24	63.06	58.77	47.56	40.07	34.13	29.54	26.27	22.63	18.75	15.67	14.92	15.89	22.65	46.17	229.6	1177	1810	219.5	10.59	4.417	3.877	3.810	3.413	3.506	3.086	2.964	2.982	2.636	2.669	2.632	2.381	2.555	2.496	2.531	2.587	2.630
510.0	488.7	506.8	574.2	579.0	576.1	757.2	2476	2952	828.9	587.0	557.9	509.0	458.3	402.4	353.8	315.9	288.8	269.9	254.1	236.9	220.6	209.3	203.3	199.3	195.9	194.2	191.9	191.1	189.5	186.5	176.6	162.7	148.4	132.1	118.2	105.6	93.24	85.46	75.45	68.35	59.82	54.65	53.76	48.71	40.47	33.72	29.08	25.57	22.03	18.88	16.38	14.34	12.97	13.50	17.98	58.24	290.0	905.4	1356	691.6	17.61	4.028	3.557	3.132	3.123	2.866	2.687	2.556	2.545	2.483	2.358	2.347	2.338	2.426	2.243	2.401	2.388
515.0	399.7	442.8	460.3	533.1	496.4	536.3	1060	3440	1779	528.9	489.2	447.1	402.4	353.1	310.3	275.3	250.3	233.5	219.0	205.5	189.9	180.5	174.0	171.7	170.4	168.9	163.1	166.3	164.0	159.9	154.8	141.5	128.9	118.3	104.3	93.71	83.53	77.15	68.42	61.82	54.98	49.23	46.80	46.32	42.40	34.24	28.08	24.55	21.15	18.34	16.42	14.65	12.74	11.70	11.75	20.10	70.45	207.9	465.1	1378	904.2	23.92	3.871	3.109	3.035	2.882	2.590	2.494	2.294	2.330	2.228	2.096	2.162	2.025	2.092	2.032	2.352
520.0	359.0	383.4	393.1	464.8	476.8	460.6	610.6	2383	3136	616.0	439.8	404.4	358.7	320.0	277.0	246.7	224.1	208.9	194.7	183.8	170.6	162.2	157.4	154.1	153.1	149.3	148.0	146.9	147.4	144.2	137.5	127.4	117.2	106.0	94.38	84.64	77.19	69.51	63.07	57.50	51.69	45.71	41.87	41.01	41.08	34.85	27.85	24.05	20.85	18.20	16.67	14.49	13.20	11.30	10.14	11.14	21.98	52.09	110.7	560.6	1458	247.7	18.10	3.376	2.854	2.750	2.315	2.244	2.128	2.099	2.072	1.963	1.990	1.984	1.711	1.833	1.941
525.0	318.6	347.6	350.3	396.6	463.8	423.0	457.0	1186	3861	1219	406.9	364.4	323.0	287.9	251.9	224.5	202.7	185.5	174.8	163.2	154.4	148.0	141.1	138.2	136.9	135.2	132.1	132.6	130.3	131.1	122.2	115.1	104.9	95.42	86.16	77.90	71.68	64.34	58.05	52.43	47.67	43.49	39.87	37.07	36.91	35.42	28.37	23.67	20.18	17.42	15.53	13.89	13.05	10.70	10.01	9.494	11.17	17.12	29.58	135.3	698.4	1260	226.8	10.80	2.803	2.595	2.225	2.084	2.140	1.916	1.893	1.874	1.940	1.727	1.526	1.758	1.653
530.0	295.7	295.5	299.4	329.6	402.0	380.4	382.6	566.2	2487	2862	562.5	319.9	288.3	251.0	220.2	194.6	176.6	164.4	151.8	142.3	133.7	127.2	122.6	119.3	117.2	116.1	115.7	115.0	113.7	113.6	108.1	100.8	90.94	83.93	74.86	68.56	62.40	56.45	51.03	47.05	42.59	38.85	35.17	32.56	31.55	31.66	29.52	23.50	18.91	16.92	14.82	13.35	12.25	11.10	9.892	8.786	8.458	9.346	11.46	34.60	166.9	549.1	913.4	543.5	17.71	2.830	2.128	2.060	1.802	1.770	1.765	1.663	1.668	1.587	1.471	1.571	1.570
535.0	249.5	258.8	257.5	272.6	319.8	364.4	317.0	361.9	913.8	3529	1590	286.8	246.0	217.3	187.5	167.0	150.3	139.8	128.9	121.8	114.3	108.3	104.9	100.9	99.04	98.58	96.64	95.42	96.37	95.56	91.30	85.33	78.32	72.18	65.11	59.60	54.45	49.55	45.17	41.80	37.84	34.62	31.41	29.30	27.50	26.19	26.88	23.69	18.60	15.97	13.86	12.56	11.54	10.18	9.791	8.915	7.908	7.218	7.283	12.11	41.04	126.1	276.0	873.1	691.1	24.58	2.412	1.909	1.803	1.718	1.612	1.553	1.532	1.541	1.404	1.392	1.392
540.0	217.3	225.3	239.4	238.7	256.4	344.2	298.1	292.1	424.9	2271	3226	371.8	220.3	191.9	165.1	149.4	133.5	122.8	116.9	106.7	101.7	93.48	91.58	89.52	87.75	86.02	86.11	84.00	84.24	83.46	80.08	74.78	69.11	62.45	57.71	52.63	48.39	43.65	40.21	37.62	33.84	31.18	28.45	26.49	24.90	22.10	23.27	22.37	18.64	15.18	12.80	11.65	10.68	9.749	9.257	8.843	7.627	6.642	6.163	6.668	12.59	31.36	65.12	321.9	964.9	252.3	17.58	2.017	1.661	1.648	1.640	1.399	1.385	1.395	1.237	1.188	1.263
545.0	208.5	218.5	212.5	208.2	218.4	289.0	287.5	252.5	284.2	979.9	3977	876.7	194.1	170.2	148.1	132.6	117.4	107.5	103.0	92.15	88.20	83.71	82.15	78.74	77.73	76.74	76.00	75.29	74.09	72.49	70.15	65.29	60.97	55.54	50.89	46.86	43.91	40.36	36.53	33.74	30.62	28.15	25.93	24.05	21.87	20.60	20.36	20.37	18.66	14.62	12.31	10.64	10.02	9.222	8.586	8.373	7.516	6.213	5.652	5.241	6.387	10.18	17.36	76.45	420.9	871.2	218.2	8.491	1.567	1.558	1.370	1.347	1.280	1.250	1.148	1.128	1.250
550.0	189.1	193.5	183.4	179.2	183.1	215.3	273.2	224.1	221.5	385.2	2349	2463	288.0	143.0	126.5	111.4	99.74	91.03	85.84	79.87	73.77	69.18	67.80	66.08	64.88	63.88	63.37	62.82	61.98	61.34	59.15	54.91	50.68	46.64	42.55	40.01	36.36	33.63	31.48	28.98	26.59	24.10	22.05	20.59	19.09	17.81	16.63	16.05	16.77	14.79	11.83	9.759	8.818	8.352	7.496	7.194	6.826	6.293	5.365	4.506	4.678	5.175	6.502	19.45	99.34	356.8	603.4	371.9	16.53	1.733	1.306	1.325	1.193	1.157	1.123	1.034	1.077
555.0	185.7	175.1	160.0	152.3	150.8	160.6	216.7	219.5	181.3	214.6	744.6	3276	1071	125.3	102.0	92.45	81.40	76.42	69.33	64.89	60.72	56.77	54.56	53.42	53.02	51.81	51.24	50.50	50.41	49.84	47.79	45.05	41.84	37.58	35.30	32.56	29.91	27.53	25.73	23.76	21.93	20.19	18.95	17.44	16.18	15.17	13.97	13.08	12.98	13.21	11.18	9.001	7.476	7.184	6.565	6.286	6.117	5.673	5.218	4.221	3.768	3.565	4.060	6.582	24.20	81.41	176.6	546.3	260.3	21.82	1.579	1.352	1.084	1.052	1.004	0.968	0.942
560.0	192.7	170.5	140.7	131.9	125.0	135.1	169.0	215.7	160.8	165.3	285.2	2052	2556	156.0	88.83	77.68	67.41	65.09	58.52	55.66	50.10	47.23	46.94	44.79	44.81	43.77	43.56	42.47	42.46	42.04	40.43	38.31	35.30	32.93	29.66	27.76	25.53	22.99	21.99	20.20	18.56	17.44	16.04	15.17	13.82	13.16	12.46	11.14	10.62	10.88	10.64	8.710	6.844	6.358	5.737	5.374	4.986	4.978	4.646	4.034	3.412	3.214	3.037	3.467	7.382	19.94	41.32	196.4	544.3	235.4	13.10	1.340	0.990	0.943	0.893	0.899	0.872
565.0	169.0	174.9	141.2	122.8	108.6	116.2	135.4	196.1	153.2	139.6	165.9	808.4	3364	529.3	76.95	66.92	59.27	54.94	49.73	46.72	42.59	40.47	39.61	39.35	37.93	36.97	36.18	35.77	36.28	36.20	34.04	32.29	30.18	27.07	25.32	23.51	22.14	20.35	18.96	17.45	16.11	14.82	13.59	13.26	12.24	11.21	11.08	9.820	9.174	8.622	9.017	8.522	6.550	5.772	5.265	4.929	4.535	4.244	4.217	4.012	3.485	3.044	2.720	2.721	3.445	5.985	11.01	46.46	237.3	519.8	178.3	5.598	1.299	0.868	0.823	0.851	0.907
570.0	171.7	163.8	123.4	104.8	93.90	96.98	102.3	155.7	162.5	123.7	127.0	275.3	2020	1879	107.5	55.09	49.66	45.06	41.55	38.20	35.19	33.74	31.73	31.74	30.96	30.52	29.40	28.62	29.23	28.65	28.02	26.50	24.23	21.94	20.84	19.34	18.03	16.46	15.72	14.32	13.12	12.33	11.58	11.36	10.23	9.563	9.300	8.418	7.395	7.119	6.962	7.278	6.365	5.403	4.645	4.190	4.226	3.830	3.604	3.299	3.347	2.983	2.554	2.339	2.341	2.804	3.954	11.75	55.90	203.8	354.5	148.7	14.45	1.172	0.872	0.813	0.822
575.0	165.0	151.7	119.1	92.57	81.80	83.34	86.65	112.8	166.7	118.3	108.6	136.9	596.9	2633	706.8	48.96	41.14	37.13	33.73	30.87	29.24	27.64	26.05	25.52	24.75	24.55	23.03	23.09	23.18	22.65	22.11	20.65	19.33	18.15	17.26	15.33	14.43	13.63	13.16	11.66	10.99	9.952	9.498	9.165	8.584	7.954	7.407	7.035	6.209	5.985	5.395	5.588	5.705	5.230	4.320	3.789	3.745	3.077	2.999	2.910	2.694	3.067	2.631	2.103	1.929	2.056	2.151	4.063	13.67	46.65	101.4	291.0	232.8	18.33	0.973	0.817	0.822
580.0	161.1	140.4	116.5	83.05	72.70	68.87	77.84	87.21	140.9	129.8	101.5	102.9	197.3	1642	1833	73.21	35.34	31.15	29.18	25.93	24.18	23.06	21.33	21.95	20.20	20.05	19.53	19.96	19.51	19.13	18.81	17.67	16.50	15.34	14.60	13.01	12.02	11.46	10.69	10.12	9.784	8.946	8.473	7.819	7.136	7.025	6.680	5.779	5.499	5.034	4.444	4.505	5.033	4.929	4.095	3.550	3.413	2.894	2.653	2.678	2.522	2.727	2.485	1.976	1.748	1.736	1.631	2.091	4.092	11.50	23.92	104.1	323.4	178.4	9.677	0.861	0.722
585.0	153.3	134.2	109.1	79.36	64.04	66.33	73.28	77.23	111.8	147.4	100.7	90.95	100.1	615.0	2485	278.8	32.02	26.57	25.26	21.86	20.67	20.70	18.54	17.87	17.82	17.41	16.48	17.32	17.62	17.17	15.92	15.25	13.93	12.98	12.56	11.64	10.19	9.801	9.020	8.396	8.111	7.934	7.192	6.796	6.508	5.900	5.543	5.099	4.973	4.517	3.991	3.967	4.102	4.434	4.044	3.211	2.844	2.616	2.271	2.423	2.254	2.455	2.431	2.135	1.710	1.508	1.394	1.558	2.069	3.660	6.349	24.67	135.6	309.1	112.7	3.796	0.776
590.0	144.0	126.8	100.3	69.85	59.01	58.91	62.67	70.10	87.82	140.2	108.3	84.49	76.94	188.1	1478	1240	55.30	22.94	20.85	19.15	17.31	16.64	15.60	15.20	14.89	14.36	13.87	14.05	14.00	13.80	13.24	12.19	11.52	10.58	10.33	9.473	8.707	8.386	7.632	7.096	6.625	6.543	5.647	5.528	5.257	5.181	4.704	4.320	4.052	3.742	3.549	3.232	3.100	3.433	3.676	3.192	2.846	2.427	2.217	2.098	1.966	1.950	2.125	1.909	1.823	1.495	1.417	1.461	1.487	1.756	2.381	6.388	31.91	117.6	208.2	117.9	12.73
595.0	133.4	125.1	93.69	61.58	55.22	54.98	58.42	63.51	75.14	112.8	127.2	85.85	71.86	81.71	417.4	1788	401.1	20.01	17.65	15.38	13.85	13.06	12.71	12.38	12.58	11.11	11.16	11.06	11.42	10.58	10.58	10.10	9.320	8.316	8.110	7.762	7.146	6.703	6.334	6.326	5.691	5.513	4.799	4.688	4.262	4.344	3.947	3.743	3.328	2.981	2.821	2.731	2.785	2.546	2.933	2.967	2.680	2.132	2.024	1.826	1.785	1.653	1.636	1.570	1.808	1.698	1.339	1.287	1.321	1.353	1.345	2.181	7.817	26.76	58.21	172.8	154.0
600.0	134.3	118.2	98.86	65.09	54.65	53.56	58.56	71.48	77.26	99.05	137.4	95.77	73.05	61.14	127.0	1173	1106	32.57	15.90	13.70	12.44	11.61	11.28	10.46	10.95	9.855	9.336	9.544	9.765	9.412	8.645	8.391	8.025	7.313	7.252	6.634	6.377	5.729	5.512	5.164	4.800	4.500	4.299	3.814	4.023	3.677	3.467	3.151	3.038	2.581	2.372	2.325	2.290	2.233	2.483	2.502	2.498	2.163	1.848	1.738	1.611	1.588	1.479	1.343	1.575	1.732	1.430	1.257	1.219	1.236	1.028	1.270	2.443	6.489	13.75	60.73	191.8
605.0	133.6	114.8	95.62	66.77	54.97	56.54	60.82	71.11	86.44	99.53	142.4	122.5	84.79	63.66	66.79	452.0	1615	86.25	14.00	11.56	11.04	10.41	9.504	9.364	9.073	8.502	8.158	7.937	7.660	7.852	7.874	7.220	6.994	6.097	6.189	5.449	5.143	4.992	4.655	4.633	4.085	3.808	3.726	3.462	3.288	3.298	2.994	2.882	2.733	2.354	2.208	2.097	2.057	1.857	2.000	2.230	2.286	2.165	1.777	1.638	1.515	1.694	1.434	1.355	1.491	1.778	1.648	1.366	1.265	1.159	1.050	1.120	1.147	2.054	3.723	14.43	77.20
610.0	128.3	120.8	99.56	68.68	58.42	62.09	72.53	85.61	104.2	124.9	151.7	170.4	117.8	83.95	70.96	148.9	1082	799.1	28.11	10.07	9.358	8.303	7.639	7.473	7.340	6.911	6.405	6.634	6.386	6.641	6.196	5.911	5.740	5.334	5.051	4.559	4.438	4.353	3.907	3.664	3.471	3.320	2.997	2.825	2.812	2.726	2.638	2.546	2.275	1.987	1.843	1.853	1.650	1.677	1.683	1.888	2.044	2.206	1.879	1.603	1.467	1.553	1.452	1.456	1.432	1.581	1.700	1.457	1.486	1.256	1.213	1.085	1.057	1.166	1.521	3.880	18.41
615.0	135.8	112.1	100.3	75.24	59.82	63.56	76.05	94.31	110.3	132.7	151.4	179.4	142.6	96.48	76.01	76.11	338.5	1275	215.0	10.04	7.769	7.039	6.364	6.113	5.730	6.016	5.358	5.415	5.396	5.204	5.296	5.070	4.569	4.128	4.110	3.739	3.504	3.555	3.246	3.283	2.757	2.654	2.623	2.442	2.396	2.282	2.084	2.103	1.908	1.727	1.520	1.487	1.504	1.585	1.513	1.513	1.597	1.828	1.773	1.443	1.406	1.400	1.359	1.396	1.413	1.613	1.438	1.631	1.580	1.221	1.151	1.080	1.101	1.137	1.020	1.448	4.794
620.0	136.7	122.4	97.20	69.24	61.22	63.88	76.35	92.28	105.5	126.2	143.8	167.1	151.7	99.86	75.13	60.26	119.0	920.3	608.9	13.56	6.941	5.900	5.893	5.369	5.284	4.906	4.464	4.994	4.561	4.445	4.579	4.523	4.233	3.297	3.771	3.195	3.249	2.877	2.756	2.617	2.394	2.228	2.096	2.119	2.096	2.062	1.820	1.841	1.786	1.517	1.373	1.324	1.322	1.312	1.290	1.410	1.292	1.538	1.795	1.443	1.356	1.309	1.303	1.452	1.215	1.358	1.276	1.470	1.572	1.300	1.139	1.082	1.019	1.013	0.860	0.936	1.692
625.0	125.4	116.1	97.58	68.85	60.02	61.53	72.47	87.91	102.8	121.1	135.5	147.9	154.2	105.0	74.95	54.91	63.72	388.1	1111	53.28	6.579	5.424	5.271	4.777	4.442	4.195	4.372	3.888	3.985	3.721	4.128	3.835	3.249	3.213	2.987	2.793	2.600	2.537	2.449	2.395	2.103	2.074	1.949	1.865	1.872	1.750	1.835	1.633	1.497	1.416	1.242	1.230	1.206	1.135	1.144	1.166	1.153	1.265	1.370	1.448	1.243	1.222	1.093	1.114	1.269	1.248	1.230	1.274	1.470	1.469	1.111	1.046	0.976	0.863	0.908	0.884	1.032
630.0	119.8	108.5	92.19	70.86	59.36	66.05	73.95	84.77	99.26	115.3	130.1	137.5	146.0	112.4	76.41	54.48	50.86	117.6	826.6	443.8	11.82	4.966	4.506	4.160	3.635	3.473	3.586	3.432	3.203	3.409	3.236	2.940	2.759	2.519	2.522	2.397	2.188	2.242	2.095	2.055	1.905	1.666	1.711	1.670	1.484	1.583	1.573	1.424	1.304	1.143	1.061	1.156	0.990	0.997	1.066	1.002	0.986	1.118	1.256	1.270	1.324	1.282	1.078	1.159	1.245	1.173	1.105	1.127	1.221	1.327	1.224	1.066	0.940	0.909	0.881	0.807	0.794
635.0	116.0	116.7	95.52	72.33	60.36	59.85	73.71	84.75	95.50	112.9	126.2	132.0	132.2	122.9	77.95	53.95	46.86	47.21	254.9	932.5	63.87	4.734	3.905	3.856	3.015	3.064	3.001	2.721	2.690	2.762	2.665	2.237	2.347	2.204	1.989	1.942	1.923	1.687	1.770	1.633	1.728	1.544	1.437	1.318	1.349	1.467	1.342	1.201	1.136	1.027	0.958	1.110	0.957	1.006	0.892	0.932	0.891	1.031	0.952	1.147	1.181	1.236	1.034	1.093	1.136	1.076	1.209	1.068	1.105	1.168	1.052	1.137	0.997	0.872	0.813	0.695	0.702
640.0	122.4	116.1	103.6	71.35	59.65	67.58	70.48	85.17	96.24	108.8	123.5	130.8	123.4	122.2	83.88	53.45	47.12	32.35	70.08	752.3	415.6	6.297	3.637	3.094	3.079	2.624	2.568	2.441	2.377	2.412	2.307	1.940	2.068	1.955	1.844	1.717	1.804	1.628	1.545	1.309	1.456	1.407	1.234	1.197	1.272	1.092	1.160	1.104	1.056	0.904	0.881	0.920	0.938	0.888	0.852	0.824	0.942	0.873	1.023	0.962	1.050	1.077	1.032	1.091	1.117	0.949	1.077	1.128	1.153	1.053	1.169	1.205	0.968	0.865	0.897	0.767	0.663
645.0	142.7	137.4	116.1	75.08	62.01	63.37	70.36	82.74	92.35	107.1	121.3	128.8	121.8	115.4	90.15	56.20	46.29	28.54	24.42	344.0	788.9	31.64	3.461	2.838	2.821	2.435	2.293	2.137	2.035	2.096	2.101	1.909	1.858	1.578	1.682	1.453	1.643	1.511	1.250	1.188	1.400	1.263	1.142	1.168	1.212	0.936	1.102	1.087	0.993	0.842	0.837	0.796	0.845	0.754	0.788	0.780	0.770	0.892	0.982	0.913	0.989	1.094	1.086	1.041	1.142	0.996	1.075	1.003	1.091	0.922	0.978	0.938	1.056	1.066	0.815	0.806	0.707
650.0	163.0	160.9	134.8	79.45	60.69	57.03	70.55	80.11	89.75	102.5	115.9	128.5	115.9	104.0	95.27	59.29	45.54	27.90	14.90	102.8	824.9	187.2	3.582	2.477	2.355	2.231	2.322	2.036	2.110	1.902	1.828	1.775	1.678	1.601	1.493	1.419	1.395	1.431	1.234	1.067	1.203	1.101	1.165	1.034	1.126	0.976	1.053	1.046	0.964	0.853	0.693	0.797	0.789	0.702	0.859	0.714	0.751	0.853	0.839	0.830	0.882	1.038	1.031	0.985	1.057	1.008	1.129	0.888	1.105	0.893	0.894	0.927	0.893	0.960	0.859	0.818	0.648
