Sample:	'1
File name:	G2025062405¸ðÖÞ°ÓË®Îñ.FD3
Run date:	'15:31:14, 06/26/2025
Operator:	Administrator
Comment:	'

Instrument
Model:	F-2700 FL Spectrophotometer
Serial number:	23B8-004
ROM Version:	4J14000 07

Instrument parameters
Measurement type:	3-D scan
Data mode:	Fluorescence
EX  Start WL:	220.0 nm
EX  End WL:	600.0 nm
EX Sampling interval:	5.0 nm
EM  Start WL:	230.0 nm
EM  End WL:	650.0 nm
EM Sampling interval:	5.0 nm
Scan speed:	12000 nm/min
EX Slit:	5.0 nm
EM Slit:	5.0 nm
PMT Voltage:	700 V
Response:	Auto 
Corrected spectra:	Off
Contour interval:	50.000

Peak integration
Integration method:	Rectangular
Sensitivity:	1
Threshold:	1.000

Peaks
No.	ApexEX/EM(nm)	Height(Data)
1	225.0/630.0	63.23
2	230.0/345.0	2398
3	230.0/580.0	70.33
4	235.0/260.0	285.4
5	240.0/265.0	370.5
6	245.0/270.0	354.6
7	245.0/600.0	36.34
8	250.0/275.0	460.4
9	250.0/550.0	207.4
10	255.0/285.0	529.1
11	255.0/560.0	164.1
12	260.0/290.0	546.9
13	260.0/575.0	128.8
14	265.0/385.0	1367
15	265.0/585.0	115.4
16	270.0/375.0	1381
17	275.0/310.0	1924
18	275.0/320.0	1905
19	275.0/615.0	136.8
20	280.0/315.0	1904
21	280.0/625.0	116.5
22	475.0/340.0	7.351
23	495.0/270.0	2.045
24	505.0/275.0	3.035
25	510.0/280.0	3.053
26	515.0/285.0	3.447
27	525.0/290.0	3.441
28	550.0/305.0	8.867
29	560.0/310.0	9.685
30	570.0/315.0	9.956
31	580.0/320.0	9.459
32	585.0/325.0	9.766

Data points
	220.0	225.0	230.0	235.0	240.0	245.0	250.0	255.0	260.0	265.0	270.0	275.0	280.0	285.0	290.0	295.0	300.0	305.0	310.0	315.0	320.0	325.0	330.0	335.0	340.0	345.0	350.0	355.0	360.0	365.0	370.0	375.0	380.0	385.0	390.0	395.0	400.0	405.0	410.0	415.0	420.0	425.0	430.0	435.0	440.0	445.0	450.0	455.0	460.0	465.0	470.0	475.0	480.0	485.0	490.0	495.0	500.0	505.0	510.0	515.0	520.0	525.0	530.0	535.0	540.0	545.0	550.0	555.0	560.0	565.0	570.0	575.0	580.0	585.0	590.0	595.0	600.0
230.0	77.29	981.7	1497	320.0	16.35	8.044	6.881	5.743	4.778	4.450	4.163	3.688	3.273	2.813	2.422	2.058	1.859	1.693	1.429	1.314	1.255	1.118	1.076	1.016	0.919	0.825	0.825	0.759	0.793	0.766	0.747	0.683	0.618	0.585	0.557	0.515	0.515	0.536	0.510	0.488	0.476	0.497	0.497	0.443	0.426	0.400	1.308	3.858	4.913	2.943	1.105	0.462	0.355	0.351	0.352	0.300	0.357	0.363	0.396	0.344	0.354	0.340	0.386	0.358	0.356	0.367	0.345	0.354	0.368	0.401	0.404	0.374	0.373	0.390	0.418	0.375	0.379
235.0	90.31	300.0	1364	1630	390.4	22.97	9.463	6.299	5.145	4.417	4.987	3.863	3.700	2.825	2.472	1.917	1.647	1.670	1.279	1.301	1.147	1.141	0.998	0.983	0.996	0.849	0.837	0.730	0.696	0.735	0.686	0.701	0.725	0.620	0.577	0.554	0.527	0.591	0.539	0.517	0.546	0.461	0.530	0.500	0.585	0.438	0.596	1.333	2.700	4.323	5.721	5.354	2.141	0.694	0.389	0.355	0.391	0.426	0.348	0.348	0.343	0.406	0.369	0.319	0.344	0.346	0.353	0.386	0.317	0.364	0.396	0.384	0.373	0.429	0.434	0.374	0.378
240.0	142.1	138.1	491.0	1885	1745	300.9	15.04	6.662	4.930	5.078	4.782	4.023	3.509	3.027	2.681	2.280	1.955	1.687	1.313	1.210	1.224	1.196	1.018	1.098	1.037	0.859	0.849	0.818	0.712	0.782	0.628	0.724	0.645	0.602	0.513	0.502	0.503	0.537	0.467	0.430	0.490	0.468	0.435	0.547	0.663	0.682	0.514	0.639	0.901	1.638	4.106	8.717	8.884	5.521	1.821	0.524	0.406	0.403	0.343	0.350	0.352	0.325	0.368	0.336	0.373	0.395	0.351	0.436	0.366	0.325	0.444	0.327	0.383	0.378	0.405	0.357	0.417
245.0	122.9	167.4	160.1	784.9	2474	1700	195.5	9.186	6.653	5.263	4.578	4.107	3.602	3.003	2.587	2.481	2.168	1.769	1.435	1.442	1.212	1.250	1.027	1.148	1.038	0.813	0.854	0.763	0.917	0.793	0.753	0.700	0.596	0.562	0.573	0.492	0.547	0.571	0.396	0.434	0.512	0.436	0.488	0.548	0.545	0.713	0.764	0.776	0.602	0.615	1.289	3.764	8.160	11.82	9.928	4.772	1.140	0.410	0.387	0.394	0.343	0.339	0.357	0.435	0.405	0.384	0.374	0.430	0.392	0.375	0.389	0.400	0.346	0.356	0.350	0.375	0.430
250.0	64.19	155.6	212.3	246.5	934.9	2316	2345	635.5	31.14	6.679	5.418	4.331	3.857	3.205	2.731	2.718	2.194	1.763	1.438	1.472	1.323	1.334	1.228	1.091	0.883	0.979	0.826	0.871	0.879	0.775	0.711	0.669	0.633	0.570	0.592	0.504	0.535	0.530	0.453	0.496	0.511	0.464	0.490	0.486	0.430	0.530	0.600	0.884	0.930	0.835	0.707	1.182	2.374	4.538	7.926	11.32	13.13	10.36	5.027	1.355	0.435	0.402	0.375	0.421	0.407	0.363	0.377	0.414	0.406	0.378	0.372	0.418	0.384	0.386	0.353	0.398	0.420
255.0	44.21	60.54	204.6	276.7	273.2	646.9	2551	2860	290.6	25.59	7.319	6.014	4.228	3.569	3.184	2.488	2.486	1.704	1.556	1.442	1.281	1.156	1.231	1.053	0.856	0.910	0.909	0.835	0.945	0.799	0.668	0.722	0.632	0.627	0.611	0.478	0.478	0.438	0.501	0.472	0.580	0.498	0.504	0.418	0.473	0.412	0.470	0.494	0.679	0.965	1.254	1.212	1.002	1.342	2.137	3.142	6.528	14.38	22.02	17.69	7.471	1.384	0.445	0.410	0.396	0.372	0.405	0.413	0.381	0.408	0.351	0.405	0.416	0.385	0.400	0.421	0.414
260.0	38.42	35.08	93.08	285.4	268.0	188.6	869.3	3641	2344	230.0	15.59	7.049	4.978	3.816	3.424	2.815	2.392	2.143	1.650	1.715	1.289	1.299	1.233	1.176	1.041	1.075	1.025	0.890	0.915	0.745	0.776	0.800	0.678	0.602	0.586	0.615	0.442	0.548	0.484	0.553	0.419	0.491	0.468	0.444	0.408	0.512	0.442	0.368	0.394	0.595	0.918	1.613	1.530	1.041	0.842	1.022	1.845	4.560	11.97	22.89	26.06	16.96	5.173	0.792	0.471	0.338	0.421	0.373	0.372	0.383	0.417	0.358	0.438	0.401	0.403	0.391	0.445
265.0	41.11	32.40	42.31	152.4	370.5	177.0	230.7	1460	4709	2012	167.5	8.943	6.153	4.743	4.372	2.904	2.519	2.176	1.752	1.770	1.252	1.367	1.028	1.051	1.188	1.055	1.026	0.965	0.979	0.903	0.870	0.743	0.745	0.652	0.515	0.554	0.593	0.591	0.486	0.567	0.420	0.499	0.457	0.494	0.473	0.423	0.404	0.463	0.402	0.423	0.508	1.057	1.823	1.917	1.180	0.723	0.770	1.404	3.187	7.947	18.75	30.23	27.78	13.08	2.708	0.504	0.499	0.408	0.470	0.359	0.368	0.403	0.499	0.376	0.424	0.394	0.401
270.0	55.33	45.68	38.59	59.57	205.3	354.6	234.7	376.5	1719	4217	4040	676.8	29.47	6.213	5.009	3.723	3.104	2.480	1.865	1.655	1.488	1.473	1.268	1.282	1.133	1.064	1.020	1.031	0.948	0.842	0.889	0.693	0.678	0.647	0.603	0.602	0.695	0.560	0.497	0.509	0.473	0.479	0.467	0.484	0.541	0.428	0.465	0.486	0.453	0.401	0.423	0.566	0.841	1.292	1.701	2.045	1.623	1.006	1.124	2.225	4.849	9.889	17.54	23.85	27.69	20.03	10.62	2.553	0.583	0.416	0.406	0.424	0.431	0.379	0.410	0.388	0.486
275.0	107.3	106.4	91.43	62.71	81.18	206.3	460.4	274.7	435.4	1146	4246	6562	866.2	24.18	6.808	4.964	3.467	2.898	2.150	1.915	1.903	1.545	1.327	1.226	1.308	0.981	1.107	0.992	0.938	0.814	0.786	0.676	0.689	0.746	0.775	0.595	0.718	0.573	0.586	0.580	0.594	0.486	0.522	0.491	0.589	0.577	0.525	0.624	0.551	0.502	0.491	0.517	0.540	0.643	0.813	1.307	2.441	3.035	1.883	1.219	1.530	2.675	4.450	6.042	10.20	22.62	39.65	29.84	15.55	2.403	0.483	0.407	0.419	0.406	0.525	0.446	0.439
280.0	179.6	201.7	160.1	89.30	65.43	99.67	354.5	503.6	226.7	333.9	1346	6195	5798	140.2	11.51	5.886	4.391	3.242	2.682	2.110	1.893	1.548	1.468	1.292	1.300	1.164	1.027	1.004	0.962	1.033	0.882	0.863	0.724	0.763	0.859	0.708	0.786	0.646	0.691	0.575	0.591	0.517	0.508	0.557	0.830	0.760	0.773	0.883	0.759	0.650	0.569	0.520	0.556	0.501	0.549	0.773	1.153	2.399	3.053	2.669	1.515	1.151	1.600	2.014	2.992	6.425	16.23	32.87	46.53	26.83	9.494	1.185	0.511	0.417	0.486	0.508	0.478
285.0	254.7	288.9	246.2	133.6	76.77	74.44	170.0	529.1	338.0	196.9	418.4	2109	7190	4375	100.9	8.222	5.404	3.986	2.918	2.207	2.137	1.696	1.574	1.253	1.381	1.056	1.146	1.023	1.007	0.971	1.013	0.865	0.761	0.935	0.976	0.824	0.817	0.761	0.802	0.638	0.582	0.553	0.666	0.664	0.898	1.002	0.883	1.087	0.884	0.808	0.676	0.636	0.623	0.611	0.509	0.629	0.801	1.131	2.044	3.447	3.312	2.072	1.204	1.300	1.393	2.261	4.485	9.718	23.23	40.82	35.00	21.86	5.170	0.723	0.529	0.483	0.481
290.0	327.6	380.8	329.8	192.7	101.4	91.49	119.6	274.6	546.9	483.6	282.9	640.3	2315	5164	3716	412.1	20.95	5.396	3.740	2.705	2.323	2.046	1.722	1.469	1.345	1.206	1.162	1.164	1.001	0.928	0.974	0.868	0.884	0.878	0.976	0.930	0.802	0.883	0.781	0.759	0.700	0.694	0.733	0.818	0.951	1.101	1.140	1.283	1.129	0.969	0.813	0.760	0.697	0.683	0.628	0.623	0.757	0.886	1.163	1.727	2.505	3.441	3.402	2.788	1.760	1.576	1.971	3.186	6.317	11.61	18.06	28.62	30.14	29.70	14.80	4.689	0.789
295.0	388.3	442.6	400.6	259.7	152.3	132.5	153.0	220.7	352.4	743.8	699.2	443.0	738.8	1366	3525	5840	562.4	19.90	5.161	3.581	2.659	2.174	1.854	1.575	1.507	1.406	1.303	1.319	1.091	1.047	1.095	0.896	0.862	0.908	1.060	0.959	0.844	0.928	0.863	0.857	0.780	0.835	0.911	0.898	1.012	1.257	1.255	1.427	1.409	1.216	1.030	0.866	0.938	0.829	0.761	0.784	0.987	1.107	1.195	1.319	1.468	1.952	2.671	4.580	4.626	3.229	2.154	2.406	3.127	3.961	5.236	7.641	8.940	18.92	37.28	35.19	22.99
300.0	432.9	514.4	484.1	318.4	227.1	208.4	249.9	324.0	365.9	703.2	1166	802.7	599.3	610.8	1155	4916	4931	87.21	11.97	4.677	3.294	2.513	2.109	1.726	1.747	1.380	1.470	1.222	1.174	1.234	0.983	0.864	0.955	0.812	0.936	1.040	1.016	1.069	0.984	0.810	0.839	0.892	0.940	0.874	1.147	1.464	1.470	1.551	1.605	1.447	1.155	1.149	1.147	1.024	0.965	1.150	1.310	1.499	1.676	1.858	1.923	2.293	2.702	3.781	5.301	6.300	5.177	3.863	3.155	3.001	3.230	3.419	3.588	5.896	12.74	26.14	44.10
305.0	513.7	632.2	622.0	427.9	326.2	344.6	438.3	604.3	769.9	1040	1469	1611	1091	781.6	776.9	1800	5685	3785	69.77	7.972	4.221	3.073	2.517	2.005	1.960	1.479	1.518	1.328	1.314	1.233	1.046	0.949	0.949	1.011	1.141	1.029	1.064	1.077	1.006	1.057	1.050	0.953	1.062	1.057	1.371	1.678	1.644	1.795	2.012	1.674	1.501	1.535	1.440	1.455	1.499	1.662	1.996	2.244	2.666	2.905	3.280	3.717	4.375	4.843	5.664	7.072	8.867	8.541	6.534	4.897	4.601	4.000	4.006	4.685	5.558	8.658	17.50
310.0	581.3	758.2	751.3	559.4	451.3	491.2	631.9	821.3	1041	1328	1591	1924	1801	1167	920.6	920.4	2090	3986	3645	293.3	17.53	4.288	3.040	2.397	2.157	2.014	1.671	1.515	1.381	1.214	1.189	1.170	1.009	1.048	1.119	1.093	1.146	1.057	1.101	1.069	1.048	1.135	1.177	1.203	1.326	1.735	1.906	2.098	2.320	1.943	1.821	1.972	1.885	1.844	1.989	2.281	2.731	3.147	3.652	4.051	4.221	4.869	5.560	6.137	6.970	7.386	8.424	9.315	9.685	8.912	7.240	5.840	5.174	5.373	4.890	5.097	6.893
315.0	662.0	897.6	881.0	699.7	561.7	615.4	754.6	933.7	1164	1441	1681	1866	1904	1719	1120	823.1	1027	1222	2548	4313	441.2	14.71	4.193	3.161	2.570	2.410	1.713	1.492	1.644	1.336	1.242	1.146	0.993	1.054	1.064	1.143	1.238	1.172	1.098	1.056	1.009	1.187	1.231	1.468	1.653	1.877	2.257	2.802	2.602	2.313	2.175	2.328	2.394	2.257	2.477	2.737	3.323	3.667	4.222	4.374	5.080	5.577	6.286	7.002	7.441	7.852	8.110	7.978	9.026	9.190	9.956	8.956	7.276	6.105	5.478	4.887	5.022
320.0	733.5	1054	1079	831.8	649.8	689.3	823.3	1004	1215	1490	1730	1905	1850	1847	1457	901.6	855.2	633.2	773.4	3264	3732	65.78	8.362	4.029	2.943	2.340	2.049	1.560	1.541	1.495	1.231	1.078	1.017	1.006	1.070	1.185	1.128	1.135	1.069	1.113	1.079	1.186	1.275	1.432	1.853	2.104	2.386	3.008	3.096	2.846	2.511	2.768	2.621	2.816	2.933	3.098	3.497	3.946	4.757	4.776	5.163	5.698	6.404	6.960	7.186	8.169	8.102	8.594	8.920	9.065	9.385	9.303	9.459	8.180	6.348	5.287	5.020
325.0	825.3	1220	1315	967.8	757.5	741.2	853.3	1020	1186	1457	1707	1862	1798	1695	1641	1065	837.5	530.0	337.2	1001	3671	2927	54.76	6.236	3.634	2.763	2.471	1.772	1.652	1.465	1.250	1.200	1.138	1.041	1.020	1.142	1.116	1.037	1.147	1.112	1.074	1.215	1.310	1.492	1.886	2.191	2.811	3.652	3.750	3.585	3.133	3.348	3.016	2.984	3.039	3.259	3.464	4.055	4.345	4.741	4.977	5.447	6.429	7.122	7.240	7.780	7.939	8.430	9.016	9.004	8.599	8.553	8.975	9.766	7.684	6.290	5.136
330.0	965.5	1503	1782	1462	1063	865.2	884.5	1021	1156	1389	1626	1796	1755	1599	1487	1273	971.0	570.4	309.8	375.0	1108	2675	2797	244.5	16.23	3.672	2.804	2.005	1.883	1.527	1.467	1.259	1.264	1.095	1.070	1.069	1.112	1.249	1.152	1.237	1.140	1.280	1.400	1.614	2.059	2.682	3.453	4.628	4.827	4.623	4.611	4.821	4.144	3.871	3.519	3.499	3.730	4.038	4.328	4.795	4.955	5.343	6.210	6.908	6.847	7.469	7.643	8.259	8.608	8.223	8.458	8.250	7.878	8.432	8.013	7.688	6.949
335.0	1079	1760	2211	1989	1506	1080	956.7	1039	1162	1344	1574	1760	1749	1630	1460	1255	1226	751.4	415.2	323.9	401.0	711.7	1828	3463	388.1	15.08	3.834	2.694	2.154	1.813	1.586	1.417	1.535	1.217	1.114	1.102	1.278	1.381	1.106	1.300	1.241	1.332	1.512	1.769	2.274	2.951	3.785	5.253	5.667	5.813	5.688	6.426	5.663	5.250	4.550	3.969	4.063	4.143	4.560	4.799	4.983	5.488	5.757	6.468	6.753	7.219	7.552	7.932	8.246	8.157	8.264	8.048	7.819	8.352	7.655	7.398	7.466
340.0	1136	1845	2344	2186	1666	1169	996.5	1043	1142	1317	1527	1694	1724	1624	1453	1225	1191	966.2	524.4	360.7	284.1	287.2	549.7	2494	3044	300.0	7.615	3.364	2.576	2.001	1.677	1.695	1.569	1.273	1.139	1.231	1.228	1.376	1.194	1.272	1.339	1.285	1.565	1.847	2.130	3.260	3.906	5.481	6.169	6.114	6.575	7.351	6.388	5.657	4.733	4.201	4.201	4.544	4.258	4.758	5.238	5.426	5.860	6.382	6.738	7.106	7.037	7.820	7.966	8.278	8.331	7.881	8.069	8.348	7.727	6.955	6.948
345.0	1116	1807	2398	2245	1710	1202	1001	1043	1134	1271	1469	1600	1638	1583	1429	1209	1091	997.2	680.9	417.7	296.6	226.4	237.3	761.3	2856	2453	49.45	5.411	2.921	2.195	1.798	1.623	1.506	1.206	1.168	1.156	1.266	1.251	1.239	1.179	1.411	1.312	1.635	2.008	2.298	3.335	3.839	5.625	6.389	6.281	6.382	7.278	6.439	5.935	4.810	4.243	4.666	4.355	4.540	4.694	5.021	5.355	5.773	5.978	6.280	6.592	7.005	7.893	7.838	7.751	7.853	7.862	7.812	8.002	7.567	7.065	6.836
350.0	1089	1715	2316	2260	1812	1284	1062	1065	1126	1240	1399	1522	1554	1517	1396	1203	1067	916.3	798.6	586.4	374.8	271.0	218.5	285.2	853.7	2085	2187	218.1	14.28	3.246	2.264	1.775	1.491	1.416	1.173	1.130	1.162	1.259	1.132	1.166	1.254	1.303	1.532	1.811	2.348	3.058	3.807	5.395	6.050	6.158	6.426	7.276	6.901	6.303	5.270	4.526	4.679	4.494	4.451	4.794	5.012	5.214	5.547	6.036	6.239	6.170	6.697	7.240	7.438	7.435	7.665	7.682	7.712	7.737	7.385	7.050	7.101
355.0	1006	1631	2182	2207	1860	1370	1147	1125	1160	1255	1378	1460	1507	1457	1368	1224	1088	919.5	778.3	734.1	539.7	353.7	270.4	229.3	297.6	548.6	1399	2625	344.9	13.61	3.173	2.276	1.786	1.566	1.378	1.203	1.324	1.299	1.166	1.148	1.111	1.243	1.391	1.652	2.149	2.929	3.679	4.892	5.786	5.806	5.916	7.032	6.976	6.548	5.539	5.104	4.967	4.815	4.901	5.209	5.387	5.406	5.640	5.893	6.292	5.830	6.299	6.800	6.919	7.111	7.065	7.386	7.894	7.551	7.231	7.018	7.267
360.0	919.3	1545	2069	2107	1824	1419	1206	1178	1201	1281	1355	1441	1452	1431	1348	1226	1094	939.6	791.9	727.3	672.3	448.8	325.0	256.1	210.2	215.0	410.2	1908	2433	266.7	6.457	3.132	2.117	1.592	1.431	1.231	1.262	1.168	1.073	1.188	1.181	1.262	1.424	1.622	1.982	2.748	3.392	4.820	5.435	5.490	5.716	6.955	6.743	6.237	6.075	4.985	5.535	4.915	5.080	5.264	5.317	5.366	5.850	5.740	6.246	6.137	6.440	6.671	6.720	7.022	6.974	7.260	7.235	7.682	7.378	6.863	7.165
365.0	889.4	1483	1950	2041	1805	1468	1250	1225	1253	1291	1353	1420	1425	1399	1329	1207	1102	962.6	818.8	723.1	696.8	580.0	399.5	302.2	229.8	174.3	173.9	585.7	2312	2028	45.71	4.719	2.647	1.650	1.510	1.264	1.265	1.244	1.135	1.180	1.118	1.252	1.474	1.513	1.969	2.597	3.005	4.447	5.176	5.146	5.324	6.776	6.344	6.434	5.866	5.187	5.369	4.920	5.158	5.398	5.493	5.572	6.080	6.352	6.210	6.393	6.372	6.506	6.830	6.783	7.049	7.042	7.179	7.019	7.446	7.184	7.126
370.0	874.9	1366	1795	1923	1758	1483	1310	1270	1287	1323	1369	1401	1394	1359	1286	1189	1097	980.3	864.5	763.7	691.5	664.9	561.8	397.2	297.4	220.4	167.0	215.5	697.3	1775	1873	195.0	12.37	2.773	1.865	1.513	1.379	1.339	1.216	1.227	1.217	1.292	1.490	1.670	2.006	2.466	3.116	3.957	4.662	4.710	5.203	6.470	6.397	6.311	5.819	5.172	5.669	5.426	5.513	5.676	5.745	5.612	5.797	6.153	6.272	6.537	6.246	6.542	6.575	6.800	6.974	7.052	7.012	7.181	6.820	7.125	7.045
375.0	842.0	1259	1665	1831	1721	1496	1355	1295	1318	1343	1381	1374	1364	1324	1248	1169	1093	995.4	905.1	814.6	728.0	675.4	662.3	531.4	389.3	291.6	217.8	174.3	242.1	466.8	1245	2171	292.8	10.96	2.719	1.844	1.545	1.322	1.329	1.267	1.077	1.228	1.498	1.611	2.068	2.417	2.759	3.859	4.417	4.206	4.904	6.227	6.180	6.318	5.890	5.538	5.829	5.603	5.849	5.739	5.877	5.788	6.278	6.205	6.244	6.199	6.108	6.220	6.661	6.821	6.383	6.598	6.901	6.928	6.954	6.549	6.759
380.0	818.8	1237	1605	1774	1690	1530	1403	1333	1325	1354	1371	1368	1343	1288	1225	1147	1083	1001	919.4	843.2	767.2	701.9	670.8	646.6	484.4	357.8	270.8	200.6	168.4	179.9	366.8	1627	1885	211.6	5.330	2.594	1.698	1.482	1.446	1.199	1.279	1.215	1.512	1.602	1.910	2.373	2.922	3.553	4.116	4.233	4.677	6.004	6.089	6.106	5.540	5.351	5.958	5.720	5.922	6.054	6.057	6.205	6.033	6.501	6.101	6.123	6.298	6.474	6.443	6.383	6.109	6.474	6.680	6.691	6.853	6.754	7.042
385.0	807.7	1189	1522	1698	1642	1527	1410	1353	1337	1367	1367	1355	1311	1253	1188	1116	1056	994.0	929.3	870.5	798.1	739.1	685.4	672.0	592.2	427.7	321.9	244.3	182.1	139.9	146.8	501.4	1796	1472	36.06	3.887	2.450	1.780	1.495	1.204	1.222	1.142	1.414	1.537	1.847	2.261	2.761	3.409	3.840	4.260	4.548	5.647	5.940	6.057	5.483	5.472	5.766	5.796	5.722	5.854	6.038	6.006	5.991	6.038	6.127	6.109	6.076	6.247	6.381	6.284	6.641	6.250	6.527	6.440	6.613	6.945	6.892
390.0	777.1	1141	1458	1621	1613	1514	1413	1362	1335	1342	1348	1324	1271	1218	1148	1083	1028	978.6	921.8	879.0	825.0	776.0	723.5	678.6	646.2	543.7	405.3	308.0	236.0	173.8	129.4	174.4	543.1	1310	1294	152.3	10.33	2.370	1.855	1.412	1.288	1.363	1.417	1.598	1.834	2.340	2.649	3.358	3.636	4.010	4.284	5.524	5.740	5.896	5.692	5.482	5.773	5.852	5.816	5.865	5.794	5.898	6.172	5.942	6.161	6.061	5.947	6.095	6.169	6.205	6.174	6.202	6.451	6.494	6.328	6.526	6.540
395.0	767.6	1092	1363	1556	1573	1486	1410	1367	1333	1324	1315	1299	1233	1184	1118	1042	995.5	948.0	908.5	874.3	840.8	804.8	755.7	712.0	657.5	616.0	523.3	386.8	301.1	229.4	164.3	129.5	180.8	343.0	910.0	1520	231.7	8.270	2.550	1.597	1.336	1.408	1.312	1.672	1.903	2.212	2.699	3.246	3.626	3.606	4.151	5.295	5.613	5.987	5.487	5.503	5.767	5.858	5.721	5.977	5.802	5.644	5.774	5.740	5.917	5.973	5.900	5.800	6.102	5.905	5.905	5.888	5.907	6.441	6.284	6.489	6.119
400.0	740.6	1094	1323	1493	1512	1467	1382	1367	1326	1321	1298	1270	1209	1150	1088	1007	964.9	919.6	884.9	865.5	840.8	814.3	776.6	732.3	673.1	624.3	588.6	463.2	349.9	272.9	198.9	144.5	116.6	128.6	273.7	1176	1301	37.66	4.299	2.209	1.682	1.587	1.498	1.654	1.915	2.335	2.631	3.024	3.547	3.652	3.923	5.049	5.412	5.528	5.462	5.643	5.819	5.740	5.803	5.683	5.816	5.505	5.873	5.958	5.998	5.670	5.737	5.769	5.698	5.850	6.042	5.696	5.887	6.107	5.850	6.057	6.075
405.0	718.3	1078	1285	1455	1492	1436	1391	1341	1317	1296	1280	1249	1176	1113	1059	974.5	928.9	898.0	877.0	848.0	834.9	811.2	783.6	743.9	691.9	634.1	594.9	536.3	404.5	312.6	234.3	170.1	122.4	94.94	104.6	367.4	1283	1022	30.18	3.312	2.022	1.795	1.554	1.822	2.054	2.405	2.421	3.093	3.499	3.621	3.778	4.799	5.322	5.447	5.318	5.366	5.824	5.972	5.909	5.636	5.721	5.762	5.947	5.682	6.111	5.570	5.836	5.682	5.559	5.768	5.715	5.519	5.506	5.804	5.860	5.654	6.090
410.0	706.2	1022	1243	1379	1434	1409	1382	1324	1297	1269	1242	1199	1143	1071	1007	929.4	885.8	855.5	839.8	822.6	811.6	794.1	783.8	751.5	708.3	649.5	592.4	559.3	485.6	370.4	279.2	207.6	150.4	107.9	82.99	122.1	392.5	960.8	929.5	136.9	7.721	2.172	1.736	1.840	1.875	2.276	2.358	3.036	3.233	3.447	3.663	4.572	5.023	5.394	5.299	5.345	5.752	5.898	5.813	5.601	5.566	5.654	6.022	5.616	5.862	5.615	5.506	5.389	5.347	5.482	5.734	5.446	5.431	5.570	5.440	5.419	5.948
415.0	662.6	979.6	1199	1316	1377	1363	1356	1290	1260	1235	1210	1139	1103	1020	951.8	883.9	839.9	806.5	797.8	785.7	774.4	769.8	759.9	738.1	703.0	653.8	597.9	549.9	515.9	442.7	321.6	241.1	178.6	131.6	94.34	79.48	121.8	247.2	659.9	1072	194.1	6.309	2.095	1.813	1.819	2.037	2.410	2.887	3.336	3.303	3.653	4.630	4.723	5.022	5.217	4.905	5.731	5.508	5.427	5.465	5.487	5.473	5.412	5.327	5.552	5.406	5.239	4.837	5.206	5.455	5.294	5.023	5.242	5.533	5.560	5.462	5.445
420.0	650.8	921.5	1157	1256	1335	1348	1324	1278	1240	1202	1169	1116	1055	975.2	908.1	836.5	797.4	772.7	757.7	749.1	743.4	741.2	741.1	721.2	693.4	651.4	597.8	544.4	505.4	471.5	367.6	262.9	199.6	148.3	108.4	79.75	68.98	82.66	193.1	825.2	946.2	33.92	3.724	2.219	1.904	2.187	2.345	2.790	3.068	3.196	3.470	4.363	4.430	4.745	4.812	4.974	5.342	5.555	5.497	5.374	5.441	5.324	5.428	5.436	5.380	5.226	5.027	4.758	4.992	5.152	5.079	5.077	5.013	5.231	5.103	5.211	5.248
425.0	677.3	871.3	1092	1210	1284	1320	1313	1247	1211	1175	1128	1082	1028	940.2	874.8	801.6	757.6	736.8	726.6	711.1	713.0	712.8	711.9	698.6	681.0	640.9	593.8	544.4	493.7	465.7	406.8	292.7	217.9	162.5	121.6	88.76	65.60	52.17	66.19	256.4	917.2	726.2	27.70	2.858	2.069	2.156	2.379	2.812	2.866	2.991	3.301	4.275	4.160	4.916	4.901	4.892	5.309	5.518	5.358	5.116	5.518	5.276	5.380	5.240	5.263	4.971	5.109	4.777	4.716	5.029	5.056	4.622	5.109	4.732	4.592	4.945	5.083
430.0	658.2	854.6	1079	1169	1242	1272	1275	1231	1179	1159	1099	1051	989.6	899.3	830.8	766.2	716.2	700.1	684.6	676.2	673.6	675.5	672.9	671.4	651.5	623.9	584.5	543.1	496.3	451.0	412.2	339.7	248.9	184.5	140.4	104.5	75.78	55.09	44.82	78.46	273.4	668.6	569.8	123.6	7.318	2.694	2.548	2.772	2.915	2.888	3.078	4.172	4.149	4.544	4.643	4.718	5.304	5.127	5.219	5.245	5.209	5.125	5.119	5.150	5.025	4.888	4.842	4.848	4.710	4.745	4.911	4.634	4.563	4.585	4.502	4.655	4.756
435.0	759.0	823.4	995.5	1140	1189	1227	1241	1223	1152	1123	1072	1019	949.2	862.1	790.8	719.0	682.3	662.6	643.8	637.9	632.3	633.3	640.2	637.3	623.7	597.4	568.3	533.9	497.5	451.1	400.6	355.0	290.9	210.9	160.9	122.2	91.67	66.38	48.93	44.87	79.83	168.9	455.6	881.9	185.4	6.887	2.900	2.864	2.941	2.943	3.115	4.101	4.129	4.497	4.438	4.767	5.205	5.027	5.208	5.312	5.098	5.177	4.960	5.086	4.775	4.983	4.776	4.729	4.668	4.361	4.759	4.268	4.400	4.433	4.272	4.377	4.597
440.0	995.9	836.6	973.3	1088	1148	1196	1212	1199	1145	1108	1048	983.1	915.3	838.3	758.9	692.5	651.2	631.4	618.4	603.6	601.5	606.2	608.5	606.4	596.6	580.2	552.1	528.3	491.3	454.5	394.4	344.6	308.0	234.3	173.9	133.8	102.8	75.25	55.53	42.60	41.04	53.84	132.8	667.7	826.4	31.47	4.281	3.122	3.083	2.804	2.946	4.004	4.112	4.513	4.708	4.625	5.050	4.952	5.009	5.045	5.052	4.844	4.851	4.818	4.746	4.800	4.818	4.578	4.673	4.196	4.620	4.056	4.344	4.115	4.081	4.352	4.260
445.0	1149	929.3	937.6	1035	1119	1178	1188	1168	1123	1067	1010	959.9	884.4	809.2	723.5	660.4	623.8	596.8	589.7	575.5	570.8	571.6	577.5	571.8	567.2	552.5	535.2	514.9	478.9	444.1	394.5	337.6	299.8	256.7	189.7	142.9	110.7	84.11	63.69	46.56	35.53	30.98	44.60	205.0	785.5	661.8	24.59	3.701	3.071	2.913	3.211	3.951	4.024	4.384	4.334	4.512	4.785	4.931	5.050	4.873	4.889	5.023	4.685	4.953	5.020	4.576	4.496	4.100	4.324	4.426	4.317	4.168	4.138	4.047	4.023	4.174	3.964
450.0	917.5	1336	943.3	997.3	1071	1101	1126	1122	1074	1024	964.6	902.6	837.7	755.7	682.3	621.3	582.3	555.5	545.2	530.8	526.6	526.1	530.7	532.1	529.3	516.5	502.2	482.8	457.1	429.5	380.9	328.2	284.0	253.5	211.8	158.2	119.1	92.72	71.75	54.71	40.99	31.72	28.66	58.83	230.6	585.9	647.1	114.9	7.607	3.094	3.016	3.780	3.800	4.181	4.264	4.398	4.862	4.846	4.807	4.740	4.838	4.707	4.577	4.561	4.461	4.250	4.310	4.036	4.100	4.276	3.934	3.957	3.999	4.056	3.800	3.852	3.820
455.0	610.5	1463	1231	924.6	999.4	1034	1058	1055	1014	962.3	907.5	847.3	773.5	697.1	632.8	575.8	535.0	513.2	499.1	487.1	475.8	476.8	477.6	482.1	481.8	473.1	458.9	448.6	424.7	404.3	364.2	319.3	271.9	237.1	212.5	176.9	130.4	99.48	79.00	61.31	47.76	37.09	28.99	29.11	64.23	145.6	390.4	741.7	157.1	6.934	3.296	3.589	3.546	4.020	3.951	4.240	4.367	4.476	4.556	4.643	4.574	4.424	4.446	4.620	4.150	4.294	4.283	3.717	3.701	3.978	3.684	3.602	3.628	3.665	3.658	3.453	3.798
460.0	481.4	1168	1673	932.8	935.3	969.7	1004	994.2	966.9	911.5	860.7	796.0	733.5	654.2	592.3	537.0	495.5	475.6	461.6	448.0	438.9	441.7	442.5	444.6	446.3	437.3	427.2	417.2	400.5	380.4	346.9	310.0	263.6	225.2	198.7	180.6	142.3	105.8	84.71	65.54	51.93	40.76	31.27	25.33	28.91	43.70	106.9	506.4	663.5	24.32	4.676	3.775	3.523	3.866	3.877	3.852	4.302	4.489	4.432	4.680	4.262	4.250	4.097	4.081	4.234	3.895	3.762	3.864	3.585	3.509	3.560	3.522	3.414	3.649	3.308	3.243	3.547
465.0	409.4	807.1	1866	1140	869.9	929.8	951.2	939.0	897.6	867.0	812.3	748.8	686.0	614.4	552.8	502.6	465.7	441.3	427.3	413.4	404.7	403.1	409.6	408.8	410.5	401.8	395.8	388.0	377.6	361.3	331.4	296.0	253.4	219.5	188.7	171.3	150.7	112.5	87.25	69.17	55.01	42.85	34.30	26.70	23.09	22.36	34.02	147.2	585.5	526.2	21.98	4.376	3.794	3.812	3.602	3.766	3.996	4.356	4.233	4.487	4.182	3.987	4.128	3.771	3.926	3.692	3.629	3.859	3.627	3.159	3.372	3.392	3.223	3.256	3.211	3.203	3.204
470.0	381.1	581.5	1399	1728	887.7	827.6	868.7	858.7	825.4	783.2	736.3	683.6	624.3	562.7	494.8	449.3	418.8	400.2	382.9	369.2	360.9	355.6	361.8	362.9	363.2	357.8	353.3	346.6	339.8	326.4	302.6	272.2	237.4	207.2	177.7	155.3	142.0	121.6	93.09	71.91	58.33	46.09	37.08	29.52	23.78	19.61	19.09	41.66	165.3	407.7	462.2	111.4	9.120	3.789	3.501	3.402	3.796	3.799	3.922	4.006	3.752	3.665	3.815	3.333	3.533	3.464	3.548	3.452	3.200	3.125	3.193	3.160	3.188	3.098	2.873	2.917	2.824
475.0	380.3	470.8	805.0	1844	1297	750.7	777.3	767.1	745.5	705.8	672.9	610.5	560.6	505.6	447.4	400.9	369.6	354.4	338.5	325.0	315.6	313.4	315.1	315.8	317.8	314.6	312.2	306.6	302.8	288.6	272.7	248.6	218.2	192.0	165.5	144.1	127.4	117.2	101.6	76.49	60.66	49.59	39.94	32.20	25.65	21.09	17.36	19.72	44.91	98.55	225.8	502.6	158.9	9.227	3.439	3.260	3.369	3.474	3.452	3.435	3.327	3.477	3.526	3.464	3.122	3.248	3.223	3.021	2.860	2.769	2.922	2.791	2.798	2.789	2.708	2.705	2.587
480.0	357.8	450.1	595.1	1377	1844	771.2	710.0	706.1	690.4	655.3	619.8	579.1	520.1	471.1	414.8	371.1	340.0	322.6	308.8	296.2	289.0	284.7	288.1	285.6	289.3	285.3	285.3	279.5	275.8	269.1	251.8	229.9	203.6	181.5	157.5	137.4	120.0	108.1	102.2	82.30	61.46	50.72	41.11	33.16	27.84	22.90	17.68	15.14	18.82	28.91	59.77	280.2	495.7	133.4	5.139	3.227	3.467	3.201	3.351	3.175	3.241	3.179	3.201	3.260	3.037	2.909	2.829	2.598	2.670	2.768	2.757	2.728	2.663	2.574	2.499	2.640	2.341
485.0	314.2	440.4	514.5	867.5	2057	1013	654.7	659.8	646.6	610.6	582.9	533.4	490.4	441.0	389.8	344.9	318.7	300.9	286.1	275.8	265.2	263.9	261.9	263.1	263.8	263.3	259.2	258.3	257.8	252.4	237.7	216.1	193.1	171.4	149.8	133.3	114.4	101.5	96.09	86.43	64.93	51.23	42.65	34.18	28.89	23.71	19.14	15.48	13.35	13.77	19.68	76.88	360.8	465.4	26.74	3.942	3.354	3.055	3.177	3.231	2.992	3.030	3.008	3.262	2.756	2.789	2.517	2.480	2.619	2.696	2.628	2.484	2.600	2.364	2.448	2.095	2.375
490.0	278.6	426.9	463.7	592.9	1432	1686	702.1	600.1	594.2	564.8	534.8	492.3	443.5	402.6	356.3	315.1	289.5	271.0	259.2	246.2	237.7	235.6	236.6	235.9	238.4	236.7	234.0	233.5	232.7	228.5	215.7	199.1	179.2	160.6	141.8	126.7	109.8	96.20	87.32	81.61	70.37	55.18	43.18	35.79	29.99	25.23	20.54	16.93	13.71	11.48	11.30	23.07	96.60	276.9	386.4	119.0	11.06	3.189	3.139	3.117	2.827	2.860	2.864	2.787	2.605	2.708	2.445	2.480	2.468	2.440	2.347	2.373	2.286	2.337	2.137	2.026	2.366
495.0	243.8	377.0	455.7	485.9	742.0	1827	1132	542.3	536.9	509.6	478.5	447.4	401.0	359.2	319.4	284.4	255.9	241.7	230.1	219.0	212.9	206.3	209.7	207.1	209.7	204.8	206.8	204.7	206.9	203.4	194.7	179.3	163.7	144.5	129.5	116.2	102.0	89.54	80.97	71.83	69.03	60.36	45.88	36.85	30.57	26.28	21.64	18.21	15.04	11.89	10.16	11.44	26.63	66.78	170.3	447.9	202.6	12.82	2.980	3.042	2.683	2.664	2.507	2.534	2.354	2.369	2.423	2.356	2.162	2.362	2.128	2.345	2.064	1.956	2.086	1.823	2.097
500.0	211.3	338.5	455.2	439.3	504.7	1306	1677	572.7	488.5	461.3	437.0	411.9	368.8	333.9	291.0	256.4	235.3	218.8	208.0	199.4	191.3	185.0	190.5	185.6	189.0	187.6	187.1	185.7	187.7	182.5	175.2	163.1	151.3	134.9	121.3	107.2	96.95	85.19	75.61	68.09	62.50	59.93	48.42	36.98	31.10	26.61	21.88	18.32	15.85	12.30	10.46	8.958	11.50	19.71	43.62	215.7	497.4	162.8	7.337	2.866	2.720	2.527	2.449	2.293	2.124	2.168	2.190	2.208	1.997	2.055	2.020	1.992	2.064	1.934	1.909	1.536	1.875
505.0	180.9	280.5	422.8	406.9	416.9	758.0	1920	807.8	447.3	424.6	404.0	367.7	336.8	299.9	265.7	236.5	214.9	198.1	190.2	179.9	172.1	168.1	168.8	170.7	168.9	167.8	169.6	169.0	168.1	167.4	159.3	148.5	138.3	125.0	112.7	100.2	90.06	80.42	70.81	63.87	56.93	55.52	50.54	38.92	31.66	25.99	21.85	18.30	15.55	13.05	10.54	8.786	7.802	9.596	13.92	55.97	284.0	448.3	31.37	3.755	2.476	2.516	2.248	2.271	2.142	1.979	2.042	1.969	1.984	1.928	1.755	1.763	1.776	1.724	1.712	1.750	1.728
510.0	168.8	236.4	352.3	400.5	357.0	458.7	1294	1523	482.2	374.2	356.7	328.6	294.7	267.8	234.4	207.0	187.0	173.4	165.5	156.5	151.6	147.9	147.0	148.0	146.2	146.9	147.1	146.1	146.3	144.9	140.6	131.3	120.4	110.6	99.73	89.54	81.25	73.27	64.59	57.99	51.22	47.47	45.88	41.04	32.64	25.81	21.55	18.08	15.29	13.13	10.93	9.047	7.557	7.338	7.446	16.37	72.00	220.2	319.2	128.1	11.77	2.451	2.014	1.968	1.922	1.902	1.841	1.765	1.640	1.735	1.678	1.644	1.595	1.572	1.534	1.676	1.685
515.0	149.5	199.1	277.9	378.4	334.8	346.1	598.5	1715	915.3	332.2	312.1	287.7	257.1	233.7	203.4	179.1	159.4	149.6	143.1	134.0	130.1	127.0	123.9	126.6	125.1	124.4	125.2	123.4	124.5	125.9	118.7	113.0	104.9	95.87	87.12	78.59	71.42	64.12	58.23	51.26	47.24	41.52	37.63	38.17	33.99	26.08	20.87	17.75	14.73	12.68	10.79	9.709	7.905	6.645	5.947	7.825	19.62	52.46	111.2	320.3	201.4	14.32	1.871	1.882	1.824	1.508	1.748	1.649	1.503	1.590	1.551	1.497	1.519	1.469	1.477	1.387	1.362
520.0	135.7	182.1	232.8	332.6	336.2	291.1	367.8	1196	1537	367.0	281.7	258.7	229.3	204.9	181.6	160.5	144.6	134.0	127.8	122.0	116.0	115.0	110.5	112.3	110.5	110.1	109.6	108.7	110.5	111.1	106.1	101.9	93.51	85.66	79.26	71.33	65.84	58.38	52.85	48.01	42.91	38.79	33.75	32.90	33.63	27.33	20.69	16.95	14.73	12.06	10.42	9.465	7.861	7.053	5.942	5.852	8.047	15.20	28.45	134.2	348.0	154.9	7.409	1.902	1.664	1.505	1.661	1.594	1.366	1.407	1.592	1.466	1.405	1.496	1.282	1.181	1.252
525.0	122.3	168.0	204.2	258.2	327.3	273.5	287.4	625.8	1843	622.9	253.2	237.3	212.7	186.2	163.9	145.4	130.7	122.7	112.6	109.0	104.3	98.94	98.99	99.06	98.84	99.21	97.10	96.90	99.25	99.84	96.53	90.70	83.93	75.43	70.87	64.06	59.51	53.99	49.32	44.39	39.97	35.60	31.90	29.61	30.22	27.96	21.58	16.71	13.69	11.79	10.29	9.186	7.891	7.062	5.977	5.501	5.736	6.773	9.417	34.05	168.8	326.4	32.50	3.622	1.768	1.500	1.524	1.437	1.363	1.339	1.346	1.241	1.291	1.217	1.143	1.055	1.236
530.0	114.9	149.6	179.5	210.1	292.9	269.1	242.9	324.2	1198	1394	309.3	204.4	186.4	162.6	145.2	126.2	112.6	105.0	98.60	94.06	88.51	86.87	85.72	84.96	84.24	84.79	84.12	84.54	84.15	84.42	83.04	78.64	73.00	65.94	61.74	55.31	52.14	47.50	43.38	38.90	35.65	31.31	28.37	25.82	24.61	25.24	22.79	17.02	13.37	11.24	9.876	8.463	7.596	6.996	5.974	5.361	4.934	4.925	5.210	10.10	41.98	139.7	206.4	123.4	11.87	1.712	1.482	1.369	1.373	1.118	1.236	1.180	1.086	1.149	1.050	1.067	1.176
535.0	94.21	127.5	161.6	177.3	215.5	264.7	209.3	221.7	468.6	1620	763.1	182.2	160.2	138.3	123.4	107.7	96.47	88.93	83.84	78.82	75.20	73.39	71.79	71.93	71.07	71.61	71.49	71.23	70.19	71.63	69.38	65.88	61.70	56.09	52.48	48.62	45.44	40.99	37.07	34.10	31.65	27.78	25.27	22.70	20.66	20.22	20.52	17.70	13.06	10.58	9.352	8.149	6.970	6.296	6.119	5.641	5.011	4.525	4.049	4.661	11.73	33.22	65.12	214.7	172.2	14.04	1.248	1.318	1.223	1.018	1.152	1.067	1.067	1.033	0.967	0.960	0.986
540.0	89.63	109.7	134.9	149.8	180.9	252.3	206.1	183.1	239.0	1053	1402	202.5	138.6	120.7	106.7	96.78	85.98	77.42	72.01	68.58	66.71	63.24	62.69	62.79	62.24	60.64	61.21	62.45	61.32	62.49	60.90	57.96	54.01	49.68	45.58	43.46	39.93	36.63	32.63	30.69	28.24	25.02	22.94	20.53	18.27	17.05	17.50	17.58	13.73	10.30	8.569	7.341	6.543	5.928	5.746	5.753	4.931	4.105	3.816	3.402	5.059	9.492	16.46	80.82	241.0	122.5	6.616	1.277	1.141	0.944	0.966	1.032	0.898	1.059	0.854	0.929	0.834
545.0	84.32	104.5	127.7	132.7	150.2	215.8	202.3	158.5	172.5	484.7	1721	409.0	123.5	106.7	94.22	83.74	75.52	68.07	64.25	59.73	58.06	55.95	55.17	54.69	54.16	53.37	53.48	54.16	53.74	54.07	53.48	51.54	47.04	43.80	39.86	38.46	35.45	32.39	29.80	26.47	24.82	22.02	20.88	18.20	17.40	15.58	14.76	15.67	13.47	10.25	8.295	6.874	6.122	5.616	5.252	5.431	4.808	3.891	3.490	3.192	3.275	4.147	5.415	20.29	106.0	226.5	32.97	3.230	1.111	0.972	0.948	0.956	0.851	0.945	0.828	0.769	0.904
550.0	83.29	94.29	106.4	110.7	121.8	156.6	207.4	147.0	136.7	213.5	1047	1121	146.0	92.23	78.42	69.57	61.77	57.21	54.79	50.45	49.56	47.75	45.60	45.86	45.18	45.06	43.76	44.67	44.42	45.03	43.87	42.15	39.21	36.38	33.82	31.42	28.83	26.94	24.88	22.55	21.34	19.19	17.35	16.01	14.76	13.11	12.42	12.04	12.16	10.45	7.913	6.425	5.536	5.094	4.698	4.428	4.411	3.853	3.434	3.040	2.708	2.635	2.885	5.984	25.87	91.96	147.0	89.13	10.35	1.139	0.929	0.860	0.834	0.864	0.807	0.784	0.883
555.0	78.28	92.68	91.13	96.21	102.8	111.1	167.4	156.0	109.3	131.4	356.8	1387	471.7	76.39	65.09	56.16	50.26	47.62	44.61	40.88	40.12	38.06	37.99	37.32	36.15	36.51	35.70	36.40	36.59	36.26	34.75	33.70	31.13	29.90	27.26	25.06	22.93	21.89	20.38	18.33	17.25	15.92	14.21	13.30	12.01	11.10	9.905	9.392	8.923	9.744	7.944	5.960	5.073	4.361	4.086	3.770	3.742	3.577	3.388	2.609	2.413	2.297	2.240	2.819	7.033	21.77	44.77	138.7	112.3	10.32	0.943	0.881	0.852	0.816	0.661	0.726	0.716
560.0	83.20	84.04	93.57	91.54	84.44	88.07	127.7	164.1	104.3	101.4	149.0	885.5	1021	89.39	54.40	47.83	43.54	40.27	36.15	35.79	32.64	31.90	32.04	30.33	30.54	30.14	30.41	30.75	30.54	29.88	29.12	27.73	25.33	25.34	22.87	21.28	20.19	18.34	17.56	16.03	14.77	13.86	12.78	11.35	10.19	9.390	8.707	7.710	7.301	7.838	7.688	5.980	4.672	4.018	3.711	3.379	3.408	3.031	3.073	2.762	2.296	1.918	1.859	1.876	2.974	6.003	11.14	50.47	152.1	35.47	4.605	0.838	0.750	0.781	0.804	0.650	0.750
565.0	76.30	84.99	81.18	73.51	73.04	76.63	93.27	156.1	109.0	89.36	97.54	366.1	1338	156.6	47.50	40.56	36.63	32.95	32.30	30.71	27.35	26.98	27.04	25.92	26.34	25.11	25.68	26.08	25.82	25.74	24.97	23.33	21.91	21.39	19.50	17.81	17.51	15.92	15.08	13.68	12.59	11.94	10.89	10.01	8.607	8.218	7.523	6.495	6.061	6.147	6.643	6.158	4.544	3.944	3.315	3.148	2.900	2.844	2.709	2.914	2.349	1.899	1.760	1.614	1.877	2.385	3.581	12.54	66.21	128.5	30.81	1.858	0.824	0.711	0.674	0.633	0.700
570.0	72.26	78.36	79.15	65.56	63.74	63.59	67.99	120.7	122.7	76.97	74.44	137.0	824.9	762.9	66.07	33.07	30.68	27.52	25.35	24.11	22.57	21.50	21.42	21.35	21.03	20.71	20.49	20.86	20.84	20.65	19.98	19.06	17.68	16.79	15.43	14.85	13.73	12.72	12.06	11.04	10.38	9.843	8.550	8.232	7.659	6.826	6.341	5.570	5.081	4.844	5.115	5.352	4.548	3.578	2.956	2.849	2.611	2.495	2.371	2.456	2.401	1.830	1.628	1.481	1.443	1.544	1.755	3.871	16.24	51.63	88.48	55.79	7.613	0.724	0.632	0.652	0.607
575.0	65.43	79.89	67.14	61.39	52.49	54.95	53.58	73.64	128.8	77.63	65.27	75.02	256.0	998.5	273.9	27.78	24.38	23.59	20.16	20.75	18.19	17.78	16.87	16.88	16.71	15.52	16.20	16.32	16.96	16.25	16.13	15.18	14.83	13.50	12.40	11.54	11.19	10.41	9.656	9.060	8.320	8.179	7.053	6.784	6.292	5.764	5.286	4.749	4.211	3.989	3.616	3.996	4.326	3.879	2.814	2.383	2.113	2.045	2.098	2.017	2.019	1.897	1.763	1.355	1.289	1.346	1.275	1.759	4.487	12.35	26.15	79.82	67.95	6.590	0.660	0.561	0.619
580.0	66.91	69.40	70.33	58.93	47.30	48.92	47.85	56.98	113.4	95.94	60.13	59.33	94.94	643.2	660.9	36.05	20.81	20.08	17.70	16.46	15.67	14.81	14.45	14.67	14.45	13.26	13.52	14.42	14.54	13.58	13.88	12.72	12.29	11.19	10.26	9.582	9.517	8.659	8.188	7.565	6.742	6.352	6.290	5.792	5.227	5.023	4.470	4.180	3.707	3.251	3.208	3.063	3.699	3.674	2.753	2.407	1.948	1.887	1.755	1.772	1.587	1.789	1.740	1.424	1.391	1.265	1.226	1.183	1.783	3.626	6.639	28.62	86.66	33.40	3.025	0.574	0.555
585.0	62.10	67.24	68.64	53.79	39.00	44.55	41.99	49.26	90.43	115.4	59.40	52.76	55.17	250.8	905.1	93.44	18.51	17.49	15.01	14.31	13.88	12.76	12.21	12.59	12.13	12.02	11.29	12.65	12.30	11.66	11.68	10.61	10.25	9.293	8.984	8.313	8.088	7.654	7.254	6.386	6.093	5.804	5.353	5.010	4.545	4.338	3.802	3.723	3.335	2.703	2.762	2.519	2.747	3.326	2.857	2.333	1.883	1.725	1.549	1.611	1.533	1.496	1.737	1.510	1.292	1.168	1.139	1.110	1.170	1.573	2.279	7.272	36.12	78.82	26.31	1.499	0.554
590.0	59.54	63.69	61.57	46.11	38.90	37.72	38.78	43.54	57.83	107.6	73.99	50.27	43.24	84.76	550.4	451.2	28.67	13.82	13.10	11.50	10.72	10.70	9.710	10.05	9.809	9.811	9.610	9.741	10.06	9.540	9.273	8.828	8.432	7.766	7.411	6.693	6.523	6.182	5.883	5.376	5.145	4.908	4.532	4.226	3.998	3.611	3.323	3.002	2.922	2.484	2.236	2.134	2.168	2.444	2.697	2.383	1.809	1.693	1.368	1.378	1.354	1.206	1.379	1.445	1.413	1.123	1.027	1.026	1.059	0.994	1.161	2.234	8.910	30.32	55.16	36.10	4.877
595.0	57.19	61.80	52.81	49.49	37.64	33.28	33.34	39.23	46.51	79.22	97.71	51.83	41.84	44.17	162.1	622.4	93.85	12.15	10.27	9.580	8.811	8.793	8.150	8.032	8.161	7.462	8.191	7.608	7.746	7.385	7.804	7.001	6.784	6.164	5.717	5.789	5.233	5.085	4.496	4.302	4.073	3.523	3.520	3.335	3.314	3.121	2.737	2.596	2.331	1.971	1.832	1.842	1.629	1.831	2.037	2.034	1.851	1.506	1.303	1.347	1.165	1.178	1.159	1.043	1.363	1.158	0.978	0.946	0.928	0.903	0.864	1.052	2.534	7.178	15.85	47.12	34.74
600.0	53.21	62.69	48.46	41.71	34.55	36.34	33.16	39.09	44.93	62.42	105.1	59.45	43.87	35.43	57.55	415.1	357.7	15.48	8.871	8.199	7.863	7.336	7.317	6.724	7.030	6.291	6.657	6.311	6.438	6.479	6.211	5.747	5.659	5.537	5.201	4.716	4.424	4.556	3.846	3.963	3.550	3.032	2.931	2.849	2.669	2.605	2.329	2.233	2.038	1.667	1.654	1.563	1.455	1.343	1.622	1.864	1.800	1.464	1.318	1.252	1.045	1.009	1.034	0.996	1.165	1.391	0.872	0.866	0.857	0.795	0.784	0.863	1.070	2.049	4.059	16.95	50.02
605.0	59.54	61.03	55.55	44.13	36.03	34.26	35.94	43.39	48.68	61.03	104.9	85.35	53.25	40.06	37.60	169.7	532.8	50.27	8.254	7.473	6.698	6.626	6.499	5.865	5.963	5.877	5.811	5.560	5.398	5.459	5.117	5.020	4.620	4.502	4.329	4.092	3.996	3.846	3.454	3.188	2.944	2.676	2.544	2.659	2.359	2.257	2.257	1.941	1.707	1.543	1.399	1.409	1.225	1.275	1.349	1.499	1.628	1.564	1.197	1.132	1.110	0.968	0.981	0.962	1.025	1.268	1.060	0.960	0.937	0.770	0.789	0.790	0.638	0.882	1.358	4.334	20.65
610.0	66.11	58.99	51.46	42.20	37.20	37.94	45.79	52.06	64.55	81.21	107.3	128.9	79.62	56.56	48.01	70.27	373.1	266.9	13.12	6.364	5.934	5.332	5.012	4.859	4.716	4.724	4.793	4.621	4.473	4.337	4.308	4.112	4.025	3.549	3.403	3.279	3.289	2.915	2.795	2.616	2.441	2.351	2.029	2.110	1.897	1.811	1.827	1.675	1.597	1.342	1.171	1.232	1.082	1.172	1.128	1.164	1.352	1.539	1.217	1.027	1.031	1.061	1.045	0.988	0.994	1.061	1.211	1.158	1.048	0.946	0.815	0.862	0.738	0.796	0.797	1.497	5.253
615.0	58.15	62.17	59.45	43.23	37.61	40.57	45.83	57.09	70.83	88.22	102.7	136.8	98.43	64.63	54.14	49.42	134.7	414.0	62.00	5.554	4.948	4.558	4.342	3.946	3.866	3.853	3.687	3.664	3.424	3.458	3.539	3.222	3.399	3.135	2.676	2.472	2.611	2.332	2.194	2.089	2.034	1.737	1.857	1.800	1.662	1.396	1.498	1.432	1.268	1.161	1.085	1.136	0.973	1.069	0.994	1.017	1.035	1.326	1.182	1.057	0.982	1.038	0.887	1.017	0.998	0.936	1.145	1.267	1.174	0.920	0.883	0.917	0.825	0.779	0.733	0.833	1.693
620.0	55.22	62.45	51.77	41.25	37.55	38.76	44.87	56.30	67.52	85.32	96.71	118.1	111.7	66.96	53.34	42.37	59.79	303.0	207.1	6.554	4.155	3.874	3.505	3.615	3.469	3.431	3.108	3.211	2.842	3.335	2.883	2.814	2.737	2.755	2.441	2.146	2.084	1.977	2.019	1.705	1.633	1.713	1.566	1.433	1.500	1.199	1.202	1.080	1.043	1.010	0.889	0.984	0.925	0.915	0.924	0.912	0.864	1.157	1.255	1.062	1.158	0.979	0.879	0.863	1.030	0.987	1.028	1.115	1.199	0.894	0.912	0.803	0.714	0.855	0.648	0.728	0.833
625.0	50.08	62.44	52.94	42.73	37.55	37.57	45.41	54.92	63.15	79.01	90.47	107.5	116.5	72.41	52.62	39.41	41.79	135.4	339.9	21.34	3.930	3.558	3.254	3.042	3.053	2.976	2.950	2.942	2.541	2.881	2.725	2.431	2.425	2.156	2.054	1.921	1.669	1.752	1.839	1.518	1.486	1.320	1.455	1.293	1.321	1.051	1.118	0.932	0.957	0.890	0.887	0.878	0.820	0.818	0.849	0.780	0.787	0.923	1.088	1.161	1.017	0.915	0.938	0.892	0.833	0.900	0.922	0.897	1.070	0.988	0.884	0.744	0.697	0.772	0.664	0.612	0.725
630.0	59.52	63.23	50.97	41.88	38.39	37.14	44.64	52.96	59.43	75.45	85.40	93.83	107.9	79.60	53.56	37.47	36.63	49.02	255.3	140.4	5.391	3.154	2.684	2.588	2.556	2.420	2.462	2.521	2.198	2.254	2.427	2.082	1.919	1.686	1.733	1.566	1.473	1.504	1.441	1.290	1.267	1.228	1.229	1.134	1.057	1.044	0.934	0.935	0.935	0.759	0.745	0.744	0.702	0.723	0.766	0.689	0.741	0.746	0.891	1.049	1.042	0.886	0.918	0.869	0.755	0.875	0.846	0.900	0.891	0.894	0.925	0.824	0.708	0.719	0.678	0.598	0.676
635.0	59.76	52.95	53.15	43.99	37.57	38.50	39.80	49.29	59.71	71.30	80.62	89.34	92.40	91.60	57.50	37.06	36.11	26.84	82.32	278.8	34.63	2.973	2.258	2.184	1.937	2.056	2.037	1.826	1.850	1.911	1.822	1.843	1.829	1.375	1.343	1.259	1.338	1.236	1.174	1.055	0.992	1.000	0.986	0.975	1.028	0.860	0.872	0.801	0.800	0.729	0.635	0.632	0.719	0.683	0.743	0.640	0.601	0.653	0.830	0.816	0.915	0.860	0.764	0.769	0.747	0.764	0.723	0.804	0.867	0.813	0.969	0.892	0.845	0.691	0.682	0.655	0.529
640.0	59.42	61.91	54.07	42.85	36.44	34.88	41.10	50.28	58.30	67.38	80.14	87.66	84.68	89.84	63.85	38.58	36.77	21.97	26.11	227.2	124.5	3.407	2.400	1.963	1.851	1.988	1.817	1.844	1.534	1.732	1.567	1.629	1.530	1.237	1.194	1.166	1.127	1.196	1.123	1.027	0.918	0.923	0.879	0.910	0.857	0.822	0.845	0.822	0.670	0.630	0.649	0.658	0.663	0.578	0.687	0.581	0.712	0.673	0.750	0.683	0.686	0.811	0.733	0.798	0.795	0.759	0.794	0.772	0.928	0.855	0.932	0.947	0.883	0.709	0.749	0.611	0.561
645.0	59.74	64.68	53.72	45.86	35.74	33.64	40.79	48.77	54.04	66.38	76.09	82.89	78.52	82.75	69.50	39.83	36.58	21.58	12.77	106.6	228.0	10.84	2.182	1.656	1.764	1.753	1.634	1.491	1.366	1.501	1.424	1.339	1.337	1.186	1.009	1.052	1.011	1.008	0.830	0.822	0.817	0.866	0.778	0.822	0.693	0.705	0.663	0.783	0.695	0.581	0.540	0.581	0.516	0.574	0.577	0.584	0.618	0.669	0.749	0.544	0.713	0.840	0.714	0.766	0.705	0.728	0.849	0.643	0.803	0.819	0.816	0.911	0.884	0.672	0.612	0.628	0.639
650.0	55.50	61.78	54.35	47.15	37.03	32.18	41.36	44.19	52.49	62.98	71.97	78.73	74.20	72.35	71.92	40.99	35.63	21.91	10.19	34.43	238.9	49.20	2.198	1.671	1.617	1.389	1.478	1.569	1.276	1.465	1.199	1.221	1.191	1.072	0.926	0.921	0.947	0.957	0.757	0.817	0.720	0.751	0.713	0.722	0.632	0.626	0.557	0.703	0.707	0.537	0.451	0.590	0.580	0.617	0.545	0.559	0.561	0.568	0.593	0.568	0.623	0.808	0.759	0.791	0.766	0.713	0.716	0.599	0.721	0.689	0.781	0.809	0.863	0.820	0.676	0.571	0.587
