Sample:	'1
File name:	T2025041708 278ÏçµÀ.FD3
Run date:	'10:45:13, 04/21/2025
Operator:	Administrator
Comment:	'

Instrument
Model:	F-2700 FL Spectrophotometer
Serial number:	23B8-004
ROM Version:	4J14000 07

Instrument parameters
Measurement type:	3-D scan
Data mode:	Fluorescence
EX  Start WL:	220.0 nm
EX  End WL:	600.0 nm
EX Sampling interval:	5.0 nm
EM  Start WL:	230.0 nm
EM  End WL:	650.0 nm
EM Sampling interval:	5.0 nm
Scan speed:	12000 nm/min
EX Slit:	5.0 nm
EM Slit:	5.0 nm
PMT Voltage:	700 V
Response:	Auto 
Corrected spectra:	Off
Contour interval:	50.000

Peak integration
Integration method:	Rectangular
Sensitivity:	1
Threshold:	1.000

Peaks
No.	ApexEX/EM(nm)	Height(Data)
1	225.0/560.0	48.89
2	225.0/575.0	51.57
3	225.0/590.0	39.91
4	225.0/615.0	31.50
5	230.0/345.0	788.8
6	230.0/500.0	281.4
7	230.0/625.0	29.24
8	235.0/255.0	332.6
9	235.0/395.0	601.9
10	235.0/510.0	243.6
11	240.0/265.0	353.5
12	240.0/405.0	575.7
13	240.0/525.0	217.7
14	245.0/270.0	364.9
15	245.0/535.0	187.7
16	250.0/275.0	446.1
17	250.0/550.0	146.1
18	255.0/280.0	568.0
19	255.0/560.0	134.7
20	260.0/285.0	566.5
21	260.0/570.0	103.2
22	265.0/290.0	571.1
23	265.0/585.0	98.92
24	270.0/300.0	818.8
25	270.0/595.0	83.33
26	275.0/305.0	951.0
27	275.0/335.0	525.6
28	275.0/610.0	71.85
29	280.0/310.0	818.9
30	280.0/340.0	533.0
31	280.0/625.0	59.58
32	285.0/315.0	771.7
33	285.0/635.0	45.75
34	290.0/325.0	685.9
35	295.0/330.0	535.1
36	300.0/335.0	491.2
37	305.0/345.0	427.6
38	310.0/350.0	357.0
39	315.0/355.0	339.3
40	320.0/360.0	321.3
41	325.0/370.0	301.0
42	330.0/375.0	292.0
43	335.0/380.0	293.2
44	340.0/390.0	262.1
45	345.0/395.0	250.2
46	350.0/400.0	246.9
47	360.0/415.0	207.9
48	365.0/420.0	202.1
49	400.0/465.0	73.89
50	415.0/485.0	42.70
51	430.0/505.0	26.35
52	445.0/525.0	15.67
53	485.0/265.0	1.904
54	495.0/270.0	1.976
55	505.0/275.0	2.921
56	515.0/280.0	3.267
57	520.0/285.0	3.712
58	530.0/290.0	3.263
59	540.0/295.0	4.543
60	545.0/300.0	4.958
61	550.0/305.0	5.004
62	560.0/310.0	4.275
63	575.0/315.0	4.072
64	580.0/320.0	4.339
65	585.0/325.0	4.301

Data points
	220.0	225.0	230.0	235.0	240.0	245.0	250.0	255.0	260.0	265.0	270.0	275.0	280.0	285.0	290.0	295.0	300.0	305.0	310.0	315.0	320.0	325.0	330.0	335.0	340.0	345.0	350.0	355.0	360.0	365.0	370.0	375.0	380.0	385.0	390.0	395.0	400.0	405.0	410.0	415.0	420.0	425.0	430.0	435.0	440.0	445.0	450.0	455.0	460.0	465.0	470.0	475.0	480.0	485.0	490.0	495.0	500.0	505.0	510.0	515.0	520.0	525.0	530.0	535.0	540.0	545.0	550.0	555.0	560.0	565.0	570.0	575.0	580.0	585.0	590.0	595.0	600.0
230.0	41.12	485.9	1585	621.9	32.52	4.636	3.385	3.137	2.615	2.760	2.355	1.943	1.614	1.574	1.282	1.119	1.049	0.929	0.770	0.758	0.642	0.637	0.520	0.553	0.510	0.459	0.442	0.451	0.430	0.370	0.396	0.350	0.338	0.294	0.281	0.306	0.312	0.268	0.247	0.303	0.295	0.367	0.409	0.355	0.235	0.248	0.495	2.465	5.205	4.433	1.763	0.437	0.197	0.184	0.174	0.178	0.179	0.190	0.183	0.172	0.185	0.165	0.178	0.186	0.169	0.180	0.174	0.191	0.177	0.153	0.155	0.176	0.166	0.161	0.207	0.171	0.194
235.0	101.6	150.8	877.6	1720	541.1	55.37	3.749	3.178	3.061	2.338	2.728	2.212	2.118	1.526	1.460	1.122	0.950	0.911	0.856	0.695	0.559	0.630	0.551	0.574	0.587	0.362	0.385	0.345	0.361	0.313	0.294	0.353	0.388	0.339	0.375	0.329	0.319	0.271	0.261	0.284	0.246	0.302	0.358	0.473	0.391	0.327	0.317	0.799	1.873	3.539	5.471	6.358	3.299	0.852	0.231	0.183	0.194	0.169	0.199	0.174	0.185	0.183	0.172	0.163	0.187	0.164	0.159	0.148	0.167	0.196	0.174	0.181	0.183	0.175	0.187	0.196	0.211
240.0	155.8	131.1	259.4	1245	2001	436.6	27.92	5.596	3.466	2.806	2.976	2.202	2.020	1.692	1.578	0.979	1.056	0.899	0.985	0.764	0.589	0.682	0.478	0.560	0.567	0.418	0.494	0.357	0.413	0.313	0.312	0.357	0.362	0.430	0.323	0.257	0.322	0.287	0.299	0.250	0.244	0.295	0.302	0.436	0.484	0.528	0.398	0.467	0.647	1.032	2.531	6.942	9.548	6.987	2.644	0.522	0.249	0.206	0.206	0.183	0.165	0.160	0.176	0.166	0.187	0.143	0.165	0.207	0.203	0.163	0.155	0.188	0.191	0.198	0.191	0.191	0.165
245.0	91.60	205.9	142.9	392.6	1820	2166	327.3	14.58	4.317	3.307	3.080	2.305	2.631	1.624	1.741	1.241	1.012	0.940	0.962	0.772	0.768	0.640	0.570	0.636	0.572	0.393	0.498	0.377	0.477	0.393	0.446	0.370	0.389	0.359	0.281	0.311	0.306	0.287	0.325	0.218	0.315	0.307	0.319	0.350	0.304	0.514	0.752	0.778	0.484	0.404	0.732	2.148	5.692	10.05	11.02	6.803	2.096	0.355	0.167	0.176	0.161	0.201	0.179	0.170	0.159	0.160	0.222	0.187	0.188	0.192	0.180	0.176	0.223	0.192	0.157	0.223	0.148
250.0	43.04	136.1	248.3	199.8	544.3	1719	2455	1082	78.96	5.478	3.820	3.150	2.711	1.876	1.631	1.438	1.347	0.990	0.928	0.864	0.772	0.680	0.651	0.645	0.535	0.508	0.547	0.459	0.507	0.440	0.477	0.416	0.380	0.351	0.304	0.342	0.302	0.280	0.277	0.254	0.338	0.289	0.322	0.301	0.334	0.355	0.412	0.684	0.972	0.834	0.586	0.757	1.525	3.050	5.928	9.614	12.47	12.06	7.278	2.140	0.366	0.258	0.203	0.215	0.185	0.182	0.222	0.186	0.191	0.186	0.192	0.214	0.200	0.173	0.197	0.177	0.153
255.0	28.19	47.13	151.3	332.6	238.3	425.6	1495	3698	1570	92.79	5.340	4.001	3.794	2.755	1.929	1.704	1.434	1.118	0.898	0.953	0.982	0.597	0.662	0.691	0.685	0.473	0.517	0.542	0.508	0.404	0.495	0.450	0.442	0.337	0.310	0.335	0.282	0.322	0.246	0.255	0.303	0.319	0.320	0.302	0.277	0.325	0.274	0.341	0.469	0.771	1.149	1.342	0.933	0.891	1.554	2.391	4.241	9.448	19.11	21.19	11.11	2.794	0.325	0.187	0.184	0.195	0.217	0.164	0.200	0.187	0.209	0.184	0.205	0.169	0.159	0.174	0.213
260.0	27.64	28.66	59.31	254.2	341.2	166.9	423.2	2482	4343	1260	47.19	5.801	4.180	3.333	2.516	1.901	1.324	1.190	1.017	0.804	0.899	0.757	0.650	0.700	0.653	0.565	0.508	0.396	0.491	0.494	0.469	0.440	0.438	0.381	0.330	0.339	0.314	0.267	0.309	0.277	0.280	0.398	0.284	0.316	0.287	0.282	0.334	0.323	0.249	0.346	0.699	1.428	1.733	1.019	0.666	0.738	1.224	2.584	7.339	16.92	25.80	22.15	9.674	1.711	0.289	0.197	0.245	0.172	0.201	0.211	0.222	0.200	0.191	0.188	0.191	0.175	0.209
265.0	29.06	23.35	27.69	102.0	353.5	284.0	134.9	748.5	3562	4711	229.7	18.08	5.966	4.104	2.793	2.153	1.443	1.413	1.291	0.997	0.903	0.893	0.694	0.779	0.642	0.547	0.504	0.526	0.517	0.502	0.415	0.461	0.451	0.344	0.411	0.344	0.241	0.312	0.346	0.265	0.338	0.312	0.314	0.289	0.348	0.310	0.217	0.254	0.215	0.243	0.365	0.623	1.438	1.904	1.559	0.788	0.538	0.902	2.044	4.677	11.64	24.75	30.87	20.88	6.539	0.687	0.248	0.229	0.223	0.194	0.237	0.212	0.189	0.233	0.165	0.167	0.204
270.0	42.65	38.41	35.10	38.61	152.0	364.9	301.9	226.2	1026	3381	4997	1998	61.34	5.889	3.770	2.757	1.928	1.785	1.360	1.322	1.080	0.845	0.779	0.836	0.714	0.648	0.590	0.551	0.531	0.512	0.467	0.473	0.403	0.406	0.433	0.350	0.337	0.342	0.330	0.319	0.279	0.299	0.291	0.334	0.336	0.326	0.285	0.296	0.257	0.217	0.252	0.330	0.589	0.999	1.700	1.976	1.891	1.194	0.834	1.378	2.945	6.816	13.02	21.49	25.95	26.48	14.99	5.424	0.786	0.249	0.266	0.210	0.207	0.241	0.224	0.176	0.210
275.0	80.65	87.47	60.59	45.72	53.17	145.1	446.1	349.6	283.1	819.2	2567	6963	1246	67.90	6.390	4.034	2.753	2.271	1.592	1.421	1.180	0.861	1.002	0.771	0.757	0.719	0.708	0.520	0.542	0.616	0.542	0.592	0.454	0.553	0.503	0.371	0.467	0.417	0.382	0.376	0.304	0.316	0.328	0.410	0.422	0.415	0.418	0.418	0.361	0.274	0.295	0.284	0.373	0.384	0.652	0.809	1.660	2.921	2.338	1.124	1.007	1.810	3.209	5.230	7.215	14.79	31.26	32.61	23.73	6.073	0.567	0.357	0.288	0.264	0.295	0.228	0.249
280.0	126.7	143.3	105.2	65.19	41.28	58.84	244.6	568.0	264.4	238.3	700.4	3973	7018	933.0	29.46	5.952	3.311	2.706	2.023	1.637	1.268	0.890	1.023	0.922	0.842	0.859	0.656	0.555	0.660	0.625	0.530	0.478	0.540	0.560	0.577	0.451	0.430	0.466	0.476	0.374	0.370	0.325	0.396	0.446	0.439	0.543	0.448	0.576	0.484	0.364	0.391	0.346	0.380	0.301	0.442	0.375	0.810	1.697	3.110	3.267	1.594	0.943	1.160	1.561	2.045	3.816	10.17	22.96	45.64	32.27	17.68	2.947	0.312	0.269	0.230	0.310	0.255
285.0	174.7	201.3	157.5	92.19	53.60	44.56	100.9	415.2	566.5	188.7	234.5	1135	5151	6533	126.7	12.70	4.606	3.190	2.411	1.986	1.463	1.042	1.170	0.959	0.927	0.856	0.738	0.717	0.788	0.566	0.514	0.554	0.520	0.580	0.577	0.498	0.413	0.512	0.455	0.430	0.419	0.387	0.457	0.458	0.542	0.568	0.598	0.658	0.663	0.512	0.425	0.431	0.423	0.374	0.349	0.388	0.469	0.715	1.484	2.942	3.712	2.302	0.975	0.760	0.862	1.406	2.783	6.022	16.63	31.32	45.63	28.44	11.21	1.220	0.318	0.290	0.272
290.0	231.3	252.1	222.3	143.2	75.42	58.09	71.91	174.6	476.7	571.1	219.9	375.1	1427	4263	5265	1873	33.18	4.742	2.921	2.533	1.854	1.424	1.377	1.132	0.942	0.843	0.787	0.827	0.754	0.651	0.576	0.680	0.567	0.617	0.648	0.620	0.533	0.573	0.557	0.458	0.456	0.469	0.483	0.485	0.635	0.663	0.701	0.762	0.757	0.657	0.560	0.540	0.455	0.425	0.400	0.441	0.469	0.542	0.717	1.197	2.018	3.082	3.263	2.697	1.511	0.996	1.339	1.946	4.440	8.214	16.00	23.97	27.41	31.55	18.65	8.582	1.491
295.0	270.4	315.3	277.3	172.2	104.1	82.26	87.20	118.6	225.7	540.1	712.4	273.4	470.4	1073	2453	6822	703.8	32.92	4.414	3.009	2.135	1.704	1.462	1.312	1.061	0.963	0.797	0.842	0.755	0.605	0.612	0.597	0.546	0.719	0.786	0.647	0.618	0.656	0.624	0.518	0.485	0.491	0.585	0.667	0.720	0.708	0.736	0.867	0.798	0.766	0.546	0.690	0.574	0.504	0.500	0.373	0.509	0.547	0.572	0.828	1.007	1.378	1.882	3.273	4.543	3.135	1.679	1.385	1.835	2.600	4.367	6.008	7.224	13.31	28.36	44.53	29.25
300.0	265.4	344.7	325.1	206.6	122.3	105.1	115.9	135.6	187.1	347.5	818.8	624.7	323.8	374.8	684.7	3762	5598	539.1	14.33	3.931	2.651	2.081	1.631	1.417	1.175	1.073	0.980	0.824	0.740	0.733	0.636	0.713	0.593	0.791	0.760	0.617	0.706	0.632	0.635	0.559	0.511	0.480	0.654	0.598	0.676	0.864	0.818	1.086	0.978	0.885	0.667	0.760	0.585	0.636	0.531	0.564	0.615	0.716	0.733	0.806	0.919	1.092	1.358	1.952	3.448	4.958	4.092	2.139	1.514	1.502	1.852	2.179	2.295	3.748	8.312	21.05	38.34
305.0	278.8	352.8	325.9	236.5	145.5	128.4	146.2	174.3	219.2	303.0	584.8	951.0	480.7	274.9	270.2	1048	4281	4680	76.20	7.033	3.649	2.535	1.863	1.708	1.220	1.206	1.065	0.907	1.004	0.727	0.591	0.671	0.619	0.794	0.820	0.839	0.695	0.614	0.687	0.659	0.460	0.568	0.538	0.613	0.725	0.878	0.916	1.100	0.983	0.863	0.689	0.788	0.702	0.616	0.659	0.642	0.697	0.717	0.959	0.967	1.209	1.205	1.349	1.575	2.121	3.149	5.004	4.843	2.954	1.978	1.576	1.441	1.399	1.661	2.462	5.530	12.28
310.0	290.7	360.7	340.0	246.1	166.5	151.1	170.0	207.9	250.3	314.4	438.2	700.4	818.9	435.1	225.1	330.6	1183	3373	3904	1261	20.31	3.832	2.457	2.011	1.605	1.306	1.221	0.969	0.980	0.870	0.692	0.709	0.662	0.773	0.759	0.745	0.725	0.666	0.689	0.714	0.538	0.538	0.655	0.660	0.740	0.835	0.944	1.040	1.060	0.956	0.806	0.894	0.845	0.726	0.785	0.765	0.831	0.988	1.058	1.092	1.196	1.351	1.534	1.775	1.907	2.216	2.893	3.567	4.275	4.084	2.961	1.953	1.482	1.338	1.296	1.928	3.369
315.0	306.8	382.0	346.6	259.8	186.3	179.2	195.4	231.9	277.5	338.3	417.9	509.8	647.1	771.7	343.4	201.9	349.9	823.7	2064	5302	492.1	17.75	3.348	2.609	2.106	1.434	1.358	1.181	1.089	0.773	0.774	0.667	0.733	0.735	0.769	0.775	0.762	0.796	0.586	0.656	0.582	0.553	0.712	0.653	0.777	0.875	0.961	1.199	1.038	0.871	0.780	0.881	0.822	0.788	0.836	0.848	0.959	1.048	1.024	1.128	1.352	1.355	1.619	1.602	1.815	1.876	2.244	2.369	2.607	3.151	4.039	4.072	2.571	1.634	1.224	1.312	1.551
320.0	327.8	427.4	409.7	293.9	211.4	195.7	215.2	255.0	298.1	352.2	434.2	492.7	525.0	711.2	597.3	226.9	188.1	255.7	555.9	3339	3959	366.3	7.647	3.419	2.506	1.713	1.342	1.203	1.049	0.877	0.895	0.838	0.753	0.779	0.721	0.722	0.698	0.742	0.583	0.604	0.627	0.612	0.744	0.773	0.745	0.832	1.105	1.260	1.254	1.017	0.838	1.000	0.949	0.888	0.837	0.904	1.043	1.109	1.215	1.337	1.418	1.649	1.741	1.643	2.029	2.250	2.155	2.290	2.377	2.700	2.960	3.952	4.339	3.250	1.762	1.248	1.296
325.0	350.5	511.8	500.6	366.8	244.7	220.1	229.8	267.5	309.2	368.4	456.4	500.0	497.8	542.1	685.9	382.1	176.7	143.8	178.0	945.1	3546	3174	55.72	4.988	2.699	2.117	1.431	1.179	1.279	0.960	0.915	0.922	0.769	0.685	0.833	0.720	0.680	0.699	0.622	0.710	0.556	0.614	0.730	0.729	0.912	0.998	1.244	1.573	1.498	1.086	1.004	1.124	1.060	1.079	1.009	0.945	1.073	1.109	1.296	1.322	1.463	1.615	1.798	1.669	2.102	2.379	2.174	2.505	2.283	2.596	2.388	2.878	3.514	4.301	3.668	2.114	1.471
330.0	393.7	568.7	629.5	472.5	318.7	248.6	244.2	280.8	326.1	393.0	464.4	517.7	513.5	482.2	512.3	535.1	320.0	149.2	111.2	262.4	1006	2632	2875	771.6	14.18	2.943	1.958	1.564	1.422	1.200	1.115	0.901	0.848	0.747	0.759	0.832	0.678	0.721	0.600	0.672	0.621	0.654	0.704	0.794	0.882	1.142	1.415	1.849	1.749	1.651	1.464	1.378	1.268	1.129	1.087	0.992	1.155	1.120	1.335	1.430	1.534	1.656	1.795	1.829	2.022	2.263	2.275	2.388	2.386	2.529	2.437	2.558	2.607	2.969	3.376	3.314	2.894
335.0	456.9	639.0	718.5	569.2	388.5	291.3	268.6	296.7	341.1	406.7	475.6	525.6	523.4	489.9	439.7	419.8	491.2	275.1	124.7	126.7	269.2	636.8	1830	3625	382.7	12.17	2.507	1.960	1.742	1.358	1.230	1.040	0.823	0.830	0.788	0.730	0.763	0.665	0.607	0.615	0.656	0.648	0.808	0.784	0.835	1.180	1.550	1.959	1.985	1.899	1.713	1.725	1.373	1.228	1.288	1.238	1.180	1.321	1.592	1.347	1.701	1.744	2.015	1.930	2.171	2.327	2.326	2.457	2.703	2.427	2.441	2.592	2.337	2.337	2.397	2.486	2.936
340.0	458.6	653.0	771.0	625.4	434.8	323.3	293.9	307.6	351.9	408.9	475.1	524.9	533.0	493.5	429.8	363.0	419.7	420.0	178.9	113.8	116.8	181.1	499.0	2658	3089	290.3	5.165	2.577	2.101	1.509	1.240	1.084	1.080	0.839	0.908	0.757	0.713	0.733	0.739	0.589	0.587	0.635	0.748	0.831	0.954	1.175	1.620	1.951	1.945	1.993	1.747	1.955	1.561	1.383	1.361	1.244	1.291	1.281	1.316	1.456	1.790	1.675	1.869	1.843	2.026	2.240	2.147	2.470	2.427	2.559	2.498	2.619	2.385	2.477	2.194	2.122	2.278
345.0	441.4	635.7	788.8	663.1	452.4	339.9	306.2	317.6	352.5	412.3	461.6	517.0	520.7	490.3	430.8	361.3	331.2	427.6	302.6	135.5	97.54	90.45	146.8	784.3	3035	2532	45.92	3.755	2.736	1.983	1.569	1.067	0.845	0.827	0.931	0.732	0.750	0.699	0.743	0.586	0.567	0.607	0.680	0.824	0.981	1.262	1.481	2.070	2.018	2.041	1.760	2.076	1.807	1.502	1.514	1.270	1.446	1.517	1.231	1.547	1.697	1.686	1.937	2.150	2.213	2.140	2.315	2.495	2.516	2.443	2.457	2.516	2.480	2.576	2.170	2.097	2.084
350.0	419.8	612.4	762.3	652.4	480.7	370.1	323.2	331.9	359.4	409.8	454.6	498.5	512.2	485.0	435.0	365.9	310.7	318.0	357.0	254.8	125.5	89.02	82.65	211.6	889.2	2297	2246	209.3	12.39	2.550	1.823	1.310	0.943	1.017	0.878	0.805	0.696	0.717	0.667	0.592	0.665	0.681	0.697	0.856	1.092	1.142	1.339	1.841	1.947	2.008	1.735	1.943	1.839	1.612	1.559	1.489	1.397	1.491	1.318	1.520	1.697	1.702	1.858	2.057	2.143	2.179	2.283	2.299	2.365	2.392	2.356	2.409	2.324	2.525	2.219	2.115	1.892
355.0	409.9	569.4	712.4	644.4	498.5	411.8	356.3	358.2	373.0	409.7	457.7	489.5	494.8	472.6	435.9	374.1	317.8	288.5	280.3	339.3	232.5	117.0	88.75	98.91	234.4	557.5	1563	2759	335.1	10.15	2.320	1.729	1.222	1.092	1.046	0.790	0.819	0.693	0.660	0.725	0.705	0.648	0.854	0.814	0.804	1.101	1.357	1.707	1.951	1.852	1.731	1.961	1.893	1.458	1.638	1.605	1.482	1.554	1.559	1.619	1.665	1.763	1.832	1.998	1.971	2.110	2.229	2.324	2.266	2.518	2.202	2.474	2.411	2.374	2.425	2.330	1.996
360.0	368.2	546.5	662.5	638.0	512.0	434.8	378.8	375.4	386.2	414.0	457.2	484.8	491.1	468.8	431.2	380.0	333.1	293.9	257.6	296.4	321.3	173.6	107.3	87.90	99.46	156.8	432.6	2171	2659	50.96	4.306	2.054	1.329	1.067	1.102	0.857	0.760	0.771	0.649	0.848	0.634	0.645	0.785	0.806	0.817	1.097	1.287	1.780	1.815	1.758	1.656	2.012	2.013	1.597	1.517	1.617	1.766	1.634	1.473	1.645	1.825	1.668	1.976	1.975	2.073	1.994	2.193	2.143	2.240	2.163	2.392	2.352	2.213	2.423	2.338	2.199	2.191
365.0	360.1	516.0	656.8	625.3	522.6	452.3	400.2	387.7	404.0	419.5	455.2	476.7	479.2	463.3	435.4	382.7	341.8	300.9	267.4	257.4	319.1	272.4	139.7	98.24	80.57	76.99	126.0	666.0	2788	2049	41.39	3.239	1.734	1.312	1.185	1.011	0.843	0.847	0.636	0.746	0.604	0.668	0.697	0.799	0.860	1.128	1.248	1.747	1.779	1.697	1.590	2.004	1.990	1.795	1.827	1.725	1.792	1.608	1.660	1.809	1.740	1.911	2.127	1.971	2.062	1.959	2.239	2.040	2.267	2.209	2.651	2.385	2.462	2.616	2.366	2.356	2.171
370.0	347.4	499.0	619.1	610.5	538.3	472.2	427.5	410.8	415.7	431.0	451.0	473.3	471.3	459.2	433.0	389.8	354.1	323.3	288.4	264.4	262.9	301.0	244.9	140.1	99.06	75.83	70.38	179.0	836.2	2000	1962	188.4	10.54	1.900	1.355	1.147	0.849	0.807	0.754	0.741	0.631	0.637	0.771	0.769	0.899	1.229	1.123	1.550	1.668	1.611	1.648	1.824	2.059	1.820	1.942	1.676	1.682	1.879	1.864	1.755	1.809	2.052	2.067	2.043	1.954	2.124	2.115	2.129	2.156	2.271	2.365	2.400	2.459	2.412	2.324	2.341	2.232
375.0	337.8	485.4	597.5	601.1	562.4	499.0	455.4	441.3	432.3	448.4	462.6	468.9	466.1	450.1	429.2	394.7	366.4	341.0	309.5	283.2	259.3	254.8	292.0	235.6	131.6	95.85	76.69	83.40	216.1	490.6	1455	2437	281.2	8.288	1.776	1.411	1.105	0.862	0.756	0.820	0.735	0.635	0.731	0.772	0.717	1.095	1.098	1.539	1.602	1.535	1.750	1.871	2.075	2.000	1.922	1.857	1.739	1.915	1.890	1.819	1.989	2.138	1.972	2.008	2.059	2.303	2.087	2.146	2.072	2.275	2.438	2.535	2.346	2.493	2.309	2.239	2.269
380.0	333.0	467.2	589.4	599.4	556.0	514.0	475.1	448.0	444.3	450.4	461.3	465.4	464.9	450.4	424.7	397.1	372.9	347.7	324.5	297.1	269.4	249.2	261.3	293.2	187.1	115.6	89.12	73.39	86.86	136.2	408.4	1949	2052	42.79	4.056	1.708	1.299	1.050	0.776	0.802	0.776	0.639	0.671	0.823	0.824	1.109	1.055	1.458	1.490	1.551	1.455	1.864	1.957	1.930	1.914	2.059	1.927	1.995	1.967	1.922	1.878	2.082	2.051	2.186	2.154	2.183	2.139	2.249	2.194	2.271	2.366	2.572	2.260	2.453	2.355	2.389	2.375
385.0	340.4	459.1	562.4	591.6	558.5	526.7	480.6	464.3	456.1	457.0	459.7	462.8	460.2	440.9	422.1	393.1	372.9	352.9	333.3	308.7	279.1	256.5	244.1	278.6	257.9	150.6	105.2	82.23	67.10	65.21	118.0	592.9	2079	1586	35.19	2.687	1.540	1.200	0.872	0.723	0.781	0.657	0.790	0.804	0.936	1.072	1.186	1.349	1.497	1.440	1.493	1.843	2.033	1.913	2.033	1.892	1.916	2.173	2.067	2.103	2.057	1.938	2.060	2.080	2.171	2.192	2.026	2.083	2.196	2.249	2.213	2.264	2.134	2.564	2.397	2.475	2.288
390.0	338.3	468.4	559.4	582.9	563.1	537.0	500.4	476.3	472.2	463.3	462.5	460.5	456.6	436.8	413.0	388.9	368.8	353.4	337.5	318.1	294.6	271.0	249.0	243.1	262.1	228.7	143.5	102.9	79.67	63.48	61.41	157.2	608.8	1466	1516	152.3	9.777	1.798	1.145	0.885	0.817	0.822	0.863	0.754	0.905	1.071	1.247	1.422	1.531	1.449	1.523	1.790	2.107	1.966	2.073	1.999	2.037	2.158	2.113	2.170	2.003	2.096	2.038	2.212	2.022	2.063	1.928	2.216	2.269	2.206	2.159	2.176	2.311	2.434	2.215	2.248	2.475
395.0	327.5	440.1	552.2	601.9	557.6	544.5	509.6	485.0	481.5	465.6	471.8	463.7	454.6	429.5	407.7	383.1	368.4	353.9	338.9	321.1	303.6	285.6	262.4	242.6	233.6	250.2	214.7	134.4	99.98	78.72	60.45	67.96	159.0	356.4	1030	1798	246.0	10.28	1.682	1.174	0.885	0.871	0.943	0.937	0.931	1.099	1.180	1.326	1.475	1.526	1.500	1.810	2.077	2.187	2.061	1.998	2.119	2.094	2.086	2.177	2.021	1.995	2.034	2.095	2.175	2.031	2.169	2.210	2.165	2.160	2.220	2.036	2.322	2.398	2.160	2.179	2.451
400.0	304.6	433.3	540.0	575.7	567.2	546.4	520.1	494.5	483.6	468.5	473.0	461.2	449.0	425.8	404.3	382.8	362.5	352.2	342.2	321.4	308.5	288.0	271.2	250.0	228.9	228.2	246.9	181.1	118.8	93.19	71.40	57.82	63.43	98.46	279.3	1306	1606	200.6	4.282	1.341	0.949	1.078	0.932	0.938	0.907	1.106	1.136	1.426	1.370	1.548	1.501	1.705	1.973	2.017	2.054	2.080	2.229	2.097	2.253	2.252	2.020	2.024	2.250	2.094	2.095	2.144	2.273	2.229	2.084	2.178	2.018	2.113	2.206	2.329	2.399	2.175	2.526
405.0	317.6	447.2	526.4	567.0	575.7	549.1	527.1	509.6	483.5	477.3	467.7	463.3	440.4	421.0	399.2	374.8	356.8	346.5	334.5	323.0	308.1	291.1	276.6	254.6	235.1	216.9	232.3	227.8	147.7	106.5	82.59	62.89	48.12	46.13	78.92	375.2	1447	1397	33.69	2.334	1.383	1.061	1.005	0.972	0.914	1.185	1.075	1.438	1.428	1.581	1.454	1.793	1.877	2.205	1.958	2.146	2.249	2.244	2.178	2.220	2.162	2.101	2.156	2.241	2.232	2.217	2.225	2.171	2.162	2.099	2.075	2.203	2.175	2.287	2.240	2.237	2.491
410.0	318.9	432.7	526.7	559.0	566.8	540.7	524.7	513.8	488.6	478.2	467.2	456.0	434.4	415.3	390.3	366.5	348.8	335.8	327.4	313.8	301.8	289.9	276.5	260.6	239.3	220.4	209.4	221.5	201.9	138.9	99.32	74.44	54.99	41.37	38.96	99.41	405.5	1108	1210	147.4	10.30	1.426	1.148	0.998	1.018	1.203	1.188	1.361	1.389	1.550	1.435	1.890	1.953	2.149	2.059	2.070	2.353	2.161	2.161	2.207	2.182	2.130	2.244	2.177	2.200	2.107	2.056	2.062	2.096	2.039	2.064	2.115	2.136	2.217	2.103	2.058	2.354
415.0	316.4	417.5	515.1	550.7	553.3	536.6	523.5	515.2	492.6	479.0	465.5	451.4	420.5	397.4	375.7	350.5	326.7	322.7	313.4	305.6	291.7	284.0	274.4	260.0	244.5	224.4	207.4	197.2	207.9	190.9	122.6	85.81	63.47	46.56	36.58	41.85	104.0	263.2	684.3	1347	240.3	11.35	1.513	1.256	1.030	1.104	1.191	1.306	1.600	1.393	1.381	1.713	1.903	2.024	2.189	2.007	2.201	2.168	2.147	2.181	2.307	2.248	2.283	2.214	2.183	2.058	2.315	2.103	2.037	2.093	2.092	2.054	2.114	2.130	2.070	2.225	2.198
420.0	306.8	403.7	505.8	527.0	554.4	517.5	519.3	513.8	495.8	471.6	456.0	440.0	411.0	385.8	363.2	341.6	314.7	308.0	298.9	289.3	283.2	276.2	268.4	257.7	243.2	227.1	209.0	191.4	189.8	202.1	155.4	98.69	71.29	53.17	38.89	32.42	39.70	70.32	176.6	856.0	1330	197.6	5.323	1.556	1.210	1.103	1.218	1.332	1.392	1.344	1.423	1.692	1.992	1.967	2.064	1.883	2.199	2.200	2.059	2.292	2.173	2.200	2.293	1.937	2.047	2.055	2.086	2.032	1.923	2.005	1.926	1.880	1.964	1.998	2.086	2.195	2.192
425.0	281.4	389.5	494.6	511.5	529.8	520.3	515.9	498.3	493.2	468.4	453.3	433.4	406.9	380.1	349.3	323.5	307.2	297.4	288.0	285.0	275.1	267.2	262.3	250.7	238.9	226.3	211.3	192.0	178.6	185.8	180.5	119.8	78.23	59.67	44.08	33.65	27.71	29.22	49.15	233.2	1027	1126	33.22	2.839	1.320	1.323	1.221	1.343	1.538	1.324	1.444	1.799	2.051	1.831	1.803	1.890	2.025	2.052	2.059	2.186	2.090	2.181	2.269	2.051	2.170	2.006	1.978	2.023	1.844	1.901	2.001	1.873	1.855	2.062	2.016	2.126	2.034
430.0	323.7	382.6	462.0	503.9	508.5	513.7	500.5	497.1	488.5	465.7	451.3	427.9	399.0	366.1	335.9	308.2	294.7	284.1	276.0	268.3	262.5	254.9	252.7	245.0	233.4	222.9	209.0	192.7	179.7	169.6	170.6	152.5	99.92	69.31	51.76	39.37	30.35	24.08	23.73	61.32	271.5	750.9	1028	372.8	11.60	1.680	1.344	1.527	1.425	1.353	1.372	1.646	1.929	1.854	1.982	1.830	2.038	2.188	2.056	2.192	1.971	2.237	2.290	2.181	2.066	2.047	1.948	2.040	1.725	1.790	1.940	1.759	1.875	1.941	1.978	1.962	1.875
435.0	463.5	388.3	450.0	480.7	493.8	503.6	494.2	488.5	475.4	464.2	449.0	424.5	387.6	352.5	317.5	299.2	276.4	271.1	261.9	256.1	249.2	242.0	240.6	235.8	227.5	218.6	205.2	193.6	181.0	166.6	151.8	148.7	131.9	85.51	60.56	45.93	35.23	27.06	21.84	25.47	69.11	176.6	475.7	1188	238.7	16.12	1.789	1.556	1.566	1.361	1.346	1.658	1.838	1.765	1.892	1.951	2.198	2.007	2.219	2.157	2.119	2.225	2.134	2.043	2.072	2.170	1.873	2.025	1.922	1.945	1.963	1.707	2.001	1.844	1.833	1.759	1.852
440.0	623.7	432.2	426.9	463.3	481.8	490.9	490.3	473.9	475.4	456.7	445.3	408.7	381.6	348.1	312.6	286.1	268.1	255.9	250.0	244.3	237.9	235.8	231.4	226.9	219.6	213.8	203.5	192.3	181.2	164.7	147.6	134.5	137.9	107.9	67.85	51.23	38.35	30.61	23.42	19.79	25.68	46.91	119.1	630.2	1173	215.4	9.267	1.753	1.615	1.318	1.229	1.647	1.672	1.864	1.911	1.896	2.117	2.190	2.120	2.144	2.075	2.135	2.140	2.014	1.943	2.066	1.933	2.029	2.024	1.868	1.942	1.789	1.875	1.834	1.618	1.713	1.773
445.0	652.1	621.0	422.0	446.6	469.9	468.7	468.6	477.5	463.0	453.8	441.2	406.8	370.8	334.0	301.9	277.1	256.1	244.3	239.6	235.2	228.4	224.6	220.8	218.6	212.6	205.7	197.5	189.9	178.3	164.7	146.4	129.1	123.6	121.1	82.26	55.79	42.25	33.58	25.91	20.26	17.62	19.44	33.57	161.3	762.5	1176	161.3	5.525	1.842	1.405	1.346	1.594	1.700	1.697	1.936	1.772	2.007	2.121	2.024	2.188	2.061	2.086	2.095	2.164	2.046	2.077	1.843	1.932	1.970	1.734	1.901	1.713	1.719	1.911	1.596	1.652	1.795
450.0	455.7	962.8	535.5	426.0	443.4	444.5	450.3	450.5	447.4	430.4	420.8	389.2	351.6	316.0	286.5	257.9	239.1	228.0	220.9	217.4	209.1	207.8	204.9	202.8	200.1	193.3	186.4	179.2	171.0	161.9	144.1	125.9	110.6	107.7	97.85	68.87	47.29	36.51	29.60	23.16	18.32	14.75	15.73	42.43	192.4	663.0	947.0	418.0	12.07	1.738	1.468	1.620	1.708	1.786	1.858	1.826	1.859	2.047	1.864	1.954	2.061	2.077	2.108	2.043	1.872	2.036	1.925	1.771	1.826	1.812	1.738	1.761	1.674	1.685	1.477	1.680	1.690
455.0	284.7	937.5	994.4	427.4	416.1	404.0	416.9	426.6	425.0	406.8	395.6	367.3	329.2	292.5	263.2	240.8	219.9	212.3	203.5	195.5	191.9	190.3	187.7	185.7	183.6	179.4	174.0	169.0	162.7	152.0	138.4	122.8	105.0	92.95	91.13	85.58	57.40	39.73	32.15	26.16	20.27	16.01	12.83	16.88	49.30	153.5	342.0	1008	575.7	15.88	1.753	1.714	1.693	1.620	1.692	1.639	1.799	1.853	1.863	1.905	2.147	2.006	1.958	1.970	1.711	1.851	1.875	1.761	1.666	1.572	1.474	1.788	1.702	1.523	1.555	1.491	1.563
460.0	223.2	627.8	1342	552.0	383.4	391.4	396.3	412.1	405.0	388.2	375.9	345.9	315.2	276.9	248.7	223.2	202.4	197.3	188.1	182.0	176.1	176.3	174.9	172.8	170.5	167.5	162.5	157.7	154.9	145.2	132.5	117.3	100.3	88.27	79.14	83.91	69.05	45.06	34.06	27.36	22.01	17.62	13.55	12.27	18.26	39.62	82.46	445.7	1061	179.2	11.04	1.972	1.761	1.793	1.619	1.713	1.764	1.872	1.858	1.867	2.107	1.822	1.866	1.899	1.767	1.849	1.635	1.787	1.584	1.628	1.469	1.729	1.391	1.462	1.471	1.465	1.463
465.0	200.4	370.7	1285	869.4	370.1	370.8	379.9	389.3	379.7	370.9	355.7	332.4	296.5	263.2	232.2	206.9	190.9	184.1	176.1	168.9	166.6	161.8	161.4	160.1	157.9	154.9	152.6	148.6	144.2	138.4	126.6	112.3	96.86	85.26	72.57	72.10	73.89	51.70	35.39	28.76	23.28	18.56	14.55	12.17	11.54	14.84	23.19	110.0	577.7	906.2	150.0	7.190	1.818	1.698	1.719	1.711	1.755	1.815	1.818	1.740	1.895	1.666	1.875	1.751	1.752	1.706	1.660	1.614	1.556	1.444	1.378	1.542	1.373	1.479	1.390	1.360	1.302
470.0	207.2	264.7	760.4	1404	531.8	340.7	347.2	347.3	349.3	342.1	327.0	304.4	271.1	241.0	210.8	189.1	172.7	166.2	158.4	151.4	147.6	144.5	145.6	142.9	142.1	139.9	138.1	134.0	131.9	126.5	117.0	105.2	91.34	79.54	69.42	62.55	62.93	58.75	42.23	29.95	23.74	19.51	15.89	13.09	10.75	9.987	10.65	29.33	141.4	444.8	672.1	377.5	13.34	1.994	1.588	1.621	1.573	1.615	1.702	1.631	1.578	1.628	1.613	1.630	1.591	1.462	1.384	1.475	1.442	1.338	1.384	1.359	1.287	1.318	1.237	1.218	1.307
475.0	230.5	235.5	381.3	1204	1133	344.6	306.5	313.8	317.0	305.8	302.0	277.1	247.0	219.2	189.5	170.8	155.3	149.3	142.8	136.0	131.4	129.6	127.7	126.8	125.9	123.4	122.6	119.9	117.2	114.3	107.8	96.86	85.51	74.26	64.65	57.26	52.09	51.96	50.14	34.51	25.12	19.57	16.78	13.83	11.40	9.884	8.262	11.64	35.77	102.7	215.2	628.5	214.0	17.87	1.726	1.589	1.589	1.542	1.490	1.506	1.501	1.390	1.710	1.607	1.582	1.445	1.325	1.343	1.461	1.186	1.302	1.031	1.168	1.154	1.138	1.190	1.126
480.0	214.5	237.4	268.9	743.0	1534	484.5	299.3	302.5	296.8	292.2	279.3	265.5	230.4	200.9	175.2	157.8	144.6	135.5	130.2	125.9	119.0	116.8	118.1	116.6	115.5	114.8	113.1	112.5	108.9	105.1	100.9	91.37	80.90	71.00	62.38	54.12	48.89	45.06	48.55	39.97	26.36	20.47	16.90	13.92	12.12	10.39	8.560	8.215	12.39	26.48	51.74	243.9	689.4	203.2	11.88	1.648	1.655	1.458	1.500	1.419	1.584	1.307	1.369	1.377	1.329	1.416	1.331	1.303	1.195	1.372	1.271	1.089	0.979	1.145	1.057	1.109	1.169
485.0	192.0	259.0	238.6	420.8	1443	880.3	287.7	282.0	275.4	272.7	265.7	246.9	220.9	192.7	170.9	147.9	137.6	129.8	119.7	116.8	109.7	108.9	108.8	108.0	107.5	106.2	104.6	105.0	102.2	100.8	94.85	87.00	76.53	67.86	59.06	52.33	44.92	40.14	41.66	42.70	32.15	21.81	17.55	14.90	12.56	10.60	9.498	7.721	7.406	9.890	14.80	59.70	360.2	786.9	167.2	6.111	1.739	1.432	1.426	1.545	1.437	1.265	1.263	1.372	1.260	1.136	1.302	1.302	1.217	1.223	1.084	1.047	1.063	1.063	1.096	1.092	1.006
490.0	143.1	253.4	238.9	281.6	816.7	1433	412.8	257.2	256.1	254.0	247.0	229.3	204.3	178.1	157.4	135.9	125.5	116.2	108.9	105.3	100.3	99.61	98.86	97.63	97.47	96.38	95.17	94.77	93.83	91.14	87.92	80.46	70.97	63.76	55.78	49.10	43.26	38.48	35.30	37.07	35.73	26.30	18.29	15.19	12.99	11.24	9.729	7.931	6.855	6.443	6.839	16.34	87.43	352.3	575.5	317.4	14.63	1.758	1.535	1.397	1.440	1.308	1.277	1.277	1.301	1.154	1.244	1.202	1.214	1.078	1.023	1.035	1.100	1.140	1.002	0.984	0.990
495.0	120.5	222.2	258.5	228.1	358.5	1244	1055	253.8	234.0	232.4	223.8	210.0	185.1	162.5	142.3	123.4	113.3	108.3	97.12	94.18	90.79	87.77	88.61	86.80	85.64	85.47	84.28	83.85	84.60	82.95	80.06	72.71	65.58	59.36	52.05	45.65	40.28	35.92	32.40	30.32	31.45	30.38	21.73	15.63	12.95	11.36	9.912	8.734	7.214	6.049	5.295	7.122	22.12	81.19	188.0	604.6	496.3	20.34	1.760	1.337	1.345	1.252	1.208	1.152	1.277	1.209	1.129	1.091	1.043	0.970	0.954	0.980	0.933	1.043	0.844	0.797	0.872
500.0	105.2	186.3	281.4	210.6	225.1	728.2	1549	362.1	218.6	212.4	206.1	195.7	173.6	148.9	129.6	113.4	104.1	97.37	91.53	86.75	81.96	82.34	79.21	80.17	78.91	78.58	77.83	77.79	75.50	75.58	72.58	66.53	60.31	55.27	48.35	42.55	37.98	33.98	30.57	27.31	26.40	29.57	25.44	16.94	13.50	11.17	9.920	8.554	7.461	6.272	4.902	5.123	7.805	20.53	44.96	230.4	758.6	220.8	13.35	1.560	1.321	1.225	1.008	1.144	1.202	1.110	1.003	1.019	0.998	0.888	0.958	0.893	0.904	0.933	0.919	0.742	0.833
505.0	99.29	146.9	255.9	224.6	184.6	365.7	1531	761.3	206.3	199.6	186.4	178.0	162.6	137.5	122.4	104.0	95.60	88.27	83.05	79.16	77.53	74.06	72.95	72.18	71.77	71.39	69.48	71.02	70.35	70.01	66.25	61.40	55.50	49.93	45.79	39.98	36.21	31.97	29.40	25.05	23.26	25.10	26.35	19.51	13.97	11.15	9.987	8.849	7.328	6.453	5.351	4.570	4.456	7.030	12.30	55.65	354.7	673.5	181.4	5.849	1.391	1.296	1.013	1.083	1.079	1.043	0.992	0.863	0.919	0.879	0.841	0.815	0.771	0.774	0.806	0.754	0.681
510.0	90.49	120.6	194.7	243.6	172.4	209.7	830.9	1420	293.6	175.0	165.2	159.3	139.9	124.7	108.4	93.82	85.69	77.63	73.19	68.96	67.83	64.82	63.95	63.39	63.37	61.90	62.42	61.86	60.93	61.48	58.69	54.04	49.27	44.51	41.01	36.44	32.59	29.41	26.33	22.61	20.47	19.79	22.55	21.41	16.28	11.43	9.760	8.579	7.204	6.372	5.564	4.744	3.985	4.244	5.034	14.51	84.58	286.2	505.9	260.0	13.71	1.498	1.038	1.068	1.042	0.995	0.889	0.917	0.859	0.831	0.852	0.761	0.774	0.780	0.743	0.767	0.670
515.0	79.31	100.1	138.8	230.6	186.6	151.0	319.4	1317	954.8	174.4	148.9	140.0	123.4	111.2	95.02	82.32	75.16	67.38	63.38	63.12	58.29	56.96	54.96	55.62	54.56	53.75	53.53	53.04	52.24	52.83	51.33	48.03	44.36	39.12	36.06	33.33	29.21	26.24	23.50	20.92	18.99	16.92	16.82	19.46	18.78	13.42	9.390	8.157	7.075	6.197	5.329	5.181	4.193	3.407	3.318	5.241	20.93	65.47	153.2	485.0	232.8	18.31	1.061	0.973	0.973	0.832	0.772	0.867	0.668	0.775	0.787	0.669	0.641	0.670	0.699	0.689	0.548
520.0	74.31	89.62	108.4	185.5	209.3	136.2	181.3	761.2	1515	261.1	137.0	128.7	112.4	97.01	86.34	75.88	68.18	62.12	57.48	55.34	52.77	50.46	49.55	49.87	48.86	47.47	47.56	47.54	47.82	47.61	46.09	43.47	39.72	35.67	32.70	30.26	25.88	24.48	21.32	19.16	18.00	15.78	14.75	15.42	18.27	14.78	10.14	8.102	6.823	5.863	5.139	4.910	4.373	3.283	2.906	3.248	6.653	16.48	36.19	184.8	515.6	201.1	10.81	1.126	0.895	0.732	0.770	0.729	0.631	0.642	0.642	0.638	0.642	0.615	0.709	0.614	0.572
525.0	69.23	81.31	102.6	144.4	217.7	136.6	131.2	335.0	1606	667.9	130.4	115.0	104.5	89.01	79.17	67.37	61.90	55.46	52.08	48.41	47.80	45.93	45.24	44.33	43.71	42.06	43.52	42.05	44.26	42.73	42.18	38.71	35.52	33.51	29.53	27.30	23.90	22.45	19.73	17.86	16.24	14.07	13.44	12.58	15.06	15.67	11.72	8.131	6.585	5.646	4.993	4.505	4.363	3.598	2.768	2.780	3.354	5.432	9.697	44.29	244.3	486.9	155.7	4.119	0.833	0.794	0.780	0.693	0.687	0.735	0.683	0.640	0.681	0.594	0.642	0.573	0.651
530.0	64.22	71.50	85.54	106.5	181.2	166.8	113.9	162.5	879.4	1432	203.4	102.0	91.49	80.71	68.98	60.21	54.89	47.79	45.44	42.56	41.80	40.52	38.85	38.45	37.34	36.97	37.10	36.99	37.61	37.36	35.94	33.68	31.33	28.62	26.31	23.57	21.07	19.91	17.58	15.90	14.20	12.92	12.06	10.92	11.33	13.08	13.00	9.195	6.397	5.292	4.724	4.352	3.918	3.823	3.178	2.643	2.538	2.823	3.653	11.23	58.65	207.9	357.8	134.6	12.02	0.935	0.797	0.707	0.597	0.636	0.583	0.514	0.572	0.568	0.519	0.514	0.568
535.0	53.62	64.20	74.86	79.60	115.2	187.7	113.7	108.4	297.4	1374	844.1	99.07	79.02	68.43	57.90	52.60	44.88	41.35	39.19	37.06	35.46	33.42	33.13	32.39	31.56	32.13	32.14	32.28	32.36	31.65	31.15	29.53	26.92	24.07	22.61	20.43	19.12	17.04	16.03	14.24	12.72	11.31	10.45	9.317	8.844	9.531	11.13	10.64	7.054	5.000	4.368	4.213	3.630	3.210	3.293	2.804	2.342	2.222	2.312	3.823	14.37	47.49	108.6	347.3	218.2	15.08	0.833	0.696	0.623	0.538	0.612	0.518	0.591	0.490	0.518	0.450	0.469
540.0	47.36	51.66	68.59	74.10	87.10	170.8	123.4	88.93	132.4	759.0	1459	167.2	70.84	62.39	51.08	46.29	41.41	38.27	34.13	33.29	31.59	29.75	28.55	28.10	27.71	28.47	27.30	28.34	28.76	28.39	27.10	25.42	23.98	21.43	20.26	18.02	16.96	15.23	14.35	12.59	11.25	10.25	9.515	8.482	7.873	8.147	9.284	10.52	8.140	5.118	3.966	3.689	3.262	2.912	2.984	3.051	2.552	2.002	1.844	2.157	4.294	11.63	25.40	135.2	382.7	167.9	7.235	0.741	0.654	0.567	0.516	0.490	0.516	0.523	0.490	0.465	0.431
545.0	45.78	50.24	64.69	63.28	71.94	126.6	145.9	79.67	89.40	292.6	1572	478.7	64.75	53.89	45.08	41.00	36.43	33.59	31.02	29.53	27.22	26.34	26.48	25.79	24.90	25.16	23.77	25.08	25.06	23.98	24.60	22.82	21.27	19.16	17.52	15.96	14.87	13.66	12.70	11.46	10.12	9.603	8.738	7.624	7.201	7.188	7.265	8.755	8.536	5.870	3.915	3.577	3.140	2.758	2.834	2.788	2.729	2.214	1.816	1.712	2.087	3.465	6.573	32.28	180.4	345.0	32.76	2.367	0.723	0.535	0.526	0.497	0.449	0.451	0.475	0.485	0.428
550.0	48.51	49.00	57.94	54.88	57.28	78.79	146.1	90.73	71.23	119.0	794.1	1216	120.5	46.65	38.67	35.46	31.13	27.75	26.37	24.62	22.73	22.56	22.13	21.68	20.48	21.38	20.38	20.67	20.50	20.42	20.33	19.04	17.66	16.34	14.78	13.63	12.44	11.62	10.55	9.821	9.026	8.019	7.520	6.662	6.431	5.959	5.646	6.042	7.343	6.258	4.564	3.230	2.762	2.577	2.366	2.364	2.505	2.365	1.879	1.533	1.532	1.747	2.412	8.076	43.01	144.9	215.8	121.6	10.79	0.668	0.547	0.495	0.398	0.442	0.454	0.417	0.368
555.0	42.14	47.28	52.10	46.81	50.07	52.69	110.9	124.6	59.26	68.55	242.0	1218	586.2	42.12	31.90	29.30	26.10	23.14	22.02	20.13	18.31	18.40	18.33	17.20	16.74	16.82	16.99	16.19	16.78	17.00	16.21	15.79	14.67	12.89	12.09	10.96	10.04	9.311	8.600	8.076	7.147	6.506	6.299	5.647	5.472	5.137	4.730	4.476	4.998	5.819	5.429	3.183	2.471	2.126	1.977	1.942	1.941	2.065	2.059	1.342	1.218	1.226	1.246	2.541	10.28	32.92	68.33	220.9	173.8	12.00	0.579	0.455	0.484	0.375	0.368	0.425	0.356
560.0	48.73	48.89	44.56	45.15	41.53	42.57	73.92	134.7	60.34	50.83	94.79	635.0	1149	79.31	28.00	25.00	22.76	20.04	18.35	17.31	16.10	15.36	15.32	14.41	14.10	13.68	14.66	13.87	14.02	14.18	14.32	12.93	12.36	11.23	10.15	9.835	8.682	7.964	7.351	6.888	5.894	5.562	5.278	5.007	4.364	4.189	3.940	3.683	3.554	4.206	5.146	3.541	2.362	1.827	1.782	1.897	1.812	1.681	1.878	1.535	1.091	1.111	0.936	1.121	2.992	7.993	16.13	83.82	262.1	115.6	4.936	0.474	0.453	0.325	0.353	0.386	0.385
565.0	40.92	42.53	40.88	42.34	37.24	38.42	48.80	122.7	76.72	45.75	56.69	229.6	1288	158.6	25.28	21.86	18.83	17.03	16.18	14.90	13.61	12.94	13.38	12.28	11.97	11.38	12.15	11.93	12.08	12.26	11.62	11.20	10.30	9.567	8.687	8.317	7.401	6.703	6.397	6.078	5.410	4.749	4.664	4.286	3.858	3.778	3.334	3.227	3.035	3.146	4.132	3.872	2.434	1.753	1.618	1.691	1.467	1.445	1.470	1.783	1.121	0.919	0.827	0.914	1.306	2.319	4.161	19.83	120.5	220.1	32.23	1.734	0.524	0.404	0.347	0.374	0.343
570.0	42.35	47.39	44.70	36.73	33.49	31.84	36.14	78.48	103.2	44.59	41.75	81.77	649.8	861.8	62.13	17.84	15.88	14.20	12.86	12.24	11.13	10.50	10.65	10.18	9.674	9.790	9.776	9.792	10.32	9.800	9.061	9.004	8.156	7.877	6.984	6.664	6.159	5.513	5.330	5.009	4.261	4.182	3.951	3.618	3.295	3.136	2.936	2.723	2.554	2.334	2.822	3.347	2.819	1.977	1.433	1.512	1.302	1.240	1.204	1.386	1.451	1.088	0.841	0.774	0.842	1.021	1.488	4.933	28.68	89.23	140.0	79.31	8.742	0.433	0.325	0.337	0.325
575.0	44.77	51.57	41.66	33.63	26.51	28.55	28.44	43.75	102.1	63.44	37.38	43.15	183.2	909.0	375.3	16.58	12.63	10.87	10.42	10.09	9.175	8.410	8.221	8.069	7.866	7.741	7.775	7.659	7.708	7.976	7.732	7.037	6.541	5.893	5.778	5.362	5.062	4.577	4.432	3.993	3.785	3.192	3.193	3.002	2.709	2.559	2.617	2.173	1.966	1.823	1.902	2.312	2.572	2.270	1.350	1.262	1.093	1.007	0.986	0.993	1.057	1.349	0.970	0.724	0.713	0.718	0.786	1.644	6.875	20.38	41.38	123.8	100.7	8.538	0.323	0.308	0.328
580.0	40.22	38.92	39.20	31.81	24.31	25.56	24.74	30.23	80.35	84.38	34.42	32.77	62.72	478.8	787.9	33.32	10.97	9.676	8.586	8.496	7.472	7.156	7.024	6.862	6.654	6.550	6.386	6.661	6.528	6.492	6.592	6.015	5.699	4.944	4.913	4.344	3.944	3.960	3.420	3.513	3.148	2.903	2.899	2.477	2.443	2.267	2.295	1.997	1.654	1.629	1.491	1.663	2.218	2.374	1.692	1.225	1.147	0.938	0.915	0.867	0.846	1.053	1.079	0.732	0.728	0.665	0.644	0.883	1.953	4.968	9.781	44.31	134.8	34.70	4.208	0.304	0.344
585.0	36.44	38.25	36.50	31.47	23.15	22.89	22.80	24.25	52.40	98.92	40.17	31.22	35.80	166.0	911.9	104.2	9.871	8.296	8.051	7.220	6.799	6.738	6.171	5.855	5.834	5.351	5.332	5.706	5.463	5.480	5.495	5.270	4.604	4.361	4.112	3.912	3.688	3.269	3.027	2.881	2.696	2.447	2.432	2.235	2.131	1.930	1.941	1.768	1.669	1.402	1.250	1.376	1.580	2.065	1.702	1.399	0.962	0.861	0.990	0.688	0.756	0.732	1.092	0.903	0.609	0.599	0.667	0.688	0.874	1.509	2.663	10.53	56.30	118.7	31.11	1.458	0.362
590.0	38.29	39.91	34.11	29.95	22.40	20.14	20.21	21.32	33.20	83.11	63.92	29.35	27.73	53.92	455.2	521.7	28.58	7.349	6.431	6.144	5.624	5.356	5.092	5.162	4.801	4.635	4.517	4.445	4.208	4.773	4.463	4.168	3.704	3.584	3.299	3.109	3.012	2.723	2.723	2.579	2.148	2.014	1.947	1.746	1.838	1.671	1.508	1.407	1.328	1.247	1.093	1.086	1.113	1.421	1.674	1.525	1.089	0.755	0.799	0.692	0.661	0.585	0.737	0.992	0.892	0.603	0.537	0.513	0.588	0.698	0.943	2.704	13.29	47.13	82.95	53.37	7.329
595.0	34.79	36.79	33.71	23.99	18.80	19.10	17.93	18.74	23.49	50.17	83.33	33.74	25.27	25.53	122.5	578.6	191.6	7.002	5.504	4.925	4.499	4.510	4.028	4.305	3.916	3.967	3.746	3.854	3.268	3.925	3.677	3.465	2.900	3.112	2.705	2.572	2.649	2.206	2.192	2.079	1.813	1.681	1.572	1.406	1.455	1.341	1.315	1.226	1.079	1.045	0.865	0.923	0.835	0.841	1.176	1.394	1.171	0.762	0.671	0.552	0.608	0.551	0.530	0.671	0.941	0.846	0.532	0.408	0.518	0.497	0.517	0.921	3.263	10.79	23.00	71.00	66.54
600.0	35.00	37.61	29.66	23.60	17.52	16.43	16.95	18.13	21.81	32.04	83.16	44.25	23.76	19.83	38.10	314.8	437.9	14.49	4.748	4.368	3.597	3.604	3.380	3.418	3.234	3.186	3.103	3.112	2.865	3.028	3.067	2.879	2.812	2.596	2.198	2.195	2.094	1.962	1.849	1.755	1.505	1.363	1.459	1.235	1.318	1.152	1.164	0.903	0.879	0.872	0.816	0.690	0.729	0.738	0.863	1.225	1.302	0.895	0.602	0.570	0.619	0.419	0.438	0.500	0.711	0.882	0.541	0.519	0.469	0.462	0.434	0.543	0.988	2.672	5.411	24.07	80.04
605.0	37.49	31.76	30.38	23.86	17.95	17.54	14.93	17.98	21.13	25.18	64.75	60.09	23.68	16.94	18.69	106.3	536.5	66.23	4.540	3.580	3.197	3.291	3.072	2.770	2.692	2.791	2.751	2.821	2.373	2.444	2.718	2.310	2.321	2.008	2.055	2.011	1.691	1.646	1.670	1.477	1.390	1.309	1.188	1.030	0.999	1.077	0.988	0.901	0.793	0.829	0.666	0.755	0.568	0.577	0.670	0.979	1.226	0.982	0.604	0.521	0.480	0.411	0.418	0.464	0.521	0.743	0.725	0.518	0.461	0.506	0.361	0.379	0.453	0.918	1.421	5.754	30.86
610.0	32.14	29.05	26.19	21.96	17.68	16.97	15.58	17.64	21.21	23.91	42.73	71.85	33.42	18.38	14.92	32.40	289.7	312.2	14.18	3.285	2.884	2.685	2.591	2.384	2.320	2.465	2.270	2.353	2.207	2.092	2.207	2.128	2.030	1.829	1.668	1.669	1.459	1.504	1.391	1.171	1.141	1.092	1.022	0.942	0.892	0.872	0.848	0.763	0.739	0.674	0.543	0.627	0.531	0.512	0.481	0.637	0.875	1.017	0.716	0.523	0.442	0.422	0.424	0.392	0.411	0.488	0.645	0.628	0.451	0.405	0.390	0.358	0.335	0.462	0.585	1.498	7.245
615.0	29.02	31.50	23.86	18.78	16.08	12.82	14.56	15.19	20.12	22.65	30.01	59.44	48.87	19.58	14.58	14.83	78.13	375.6	74.28	3.043	2.792	2.281	2.136	2.047	2.083	1.885	1.991	1.865	1.755	1.798	1.793	1.766	1.406	1.330	1.253	1.340	1.158	1.135	1.067	0.950	0.979	0.944	0.829	0.782	0.776	0.745	0.701	0.740	0.600	0.514	0.524	0.515	0.451	0.514	0.405	0.449	0.565	0.732	0.723	0.552	0.447	0.497	0.473	0.371	0.375	0.382	0.460	0.552	0.572	0.411	0.350	0.351	0.383	0.369	0.336	0.559	1.886
620.0	27.47	29.69	29.16	17.95	15.63	14.04	14.19	14.81	20.75	21.88	24.96	43.66	59.24	22.03	13.41	9.947	23.64	220.7	274.5	7.643	2.224	2.084	1.827	1.811	1.743	1.600	1.424	1.564	1.447	1.564	1.491	1.415	1.338	1.187	1.069	1.214	1.170	0.988	0.819	0.942	0.812	0.777	0.787	0.680	0.681	0.547	0.644	0.594	0.551	0.493	0.409	0.392	0.418	0.470	0.405	0.402	0.433	0.545	0.752	0.606	0.377	0.444	0.373	0.401	0.370	0.369	0.329	0.439	0.611	0.445	0.354	0.430	0.323	0.302	0.257	0.311	0.641
625.0	25.03	28.55	29.24	20.45	13.46	12.61	14.13	15.70	20.21	21.63	24.07	31.01	59.58	29.26	13.15	9.076	10.41	77.18	369.9	42.18	1.952	1.873	1.547	1.539	1.437	1.340	1.473	1.228	1.467	1.420	1.279	1.380	1.182	1.148	1.029	1.057	1.008	0.890	0.855	0.726	0.783	0.661	0.794	0.626	0.573	0.550	0.556	0.568	0.464	0.459	0.348	0.397	0.366	0.372	0.389	0.321	0.430	0.428	0.604	0.672	0.428	0.359	0.358	0.394	0.334	0.329	0.320	0.381	0.473	0.558	0.436	0.383	0.264	0.283	0.261	0.246	0.311
630.0	27.33	24.33	23.83	17.33	13.57	11.98	13.27	14.40	17.77	20.36	22.22	26.21	44.09	40.66	13.84	9.187	7.528	21.86	215.2	211.3	6.986	1.566	1.436	1.291	1.270	1.135	1.167	1.042	1.149	1.181	1.063	1.051	1.002	1.012	0.883	0.934	0.787	0.739	0.713	0.617	0.705	0.523	0.593	0.579	0.519	0.448	0.453	0.476	0.393	0.407	0.342	0.362	0.324	0.371	0.314	0.298	0.395	0.361	0.475	0.501	0.470	0.420	0.366	0.352	0.269	0.360	0.313	0.363	0.344	0.483	0.496	0.397	0.311	0.268	0.263	0.245	0.271
635.0	26.12	24.46	24.32	17.03	13.69	10.33	12.21	14.32	18.03	19.10	21.88	22.89	29.97	45.75	18.76	8.817	6.949	8.801	58.16	289.6	54.62	1.668	1.218	1.208	1.133	1.030	1.015	1.029	0.916	0.811	0.874	0.827	0.779	0.897	0.686	0.779	0.632	0.583	0.535	0.574	0.554	0.508	0.466	0.452	0.477	0.376	0.397	0.422	0.312	0.349	0.296	0.332	0.311	0.340	0.317	0.298	0.290	0.300	0.337	0.426	0.514	0.477	0.365	0.287	0.295	0.316	0.305	0.306	0.300	0.408	0.482	0.509	0.409	0.269	0.276	0.242	0.237
640.0	22.16	25.27	21.28	15.82	13.86	10.25	12.10	13.62	17.88	19.51	20.84	22.46	23.31	38.80	26.38	9.475	6.454	6.026	16.07	187.8	179.6	3.793	1.120	1.114	1.075	0.881	0.941	0.933	0.840	0.798	0.885	0.678	0.803	0.932	0.803	0.716	0.632	0.593	0.496	0.468	0.423	0.471	0.409	0.427	0.378	0.334	0.345	0.403	0.365	0.302	0.293	0.302	0.291	0.269	0.240	0.317	0.268	0.296	0.260	0.360	0.370	0.445	0.396	0.246	0.326	0.271	0.303	0.280	0.282	0.354	0.344	0.487	0.436	0.313	0.280	0.296	0.239
645.0	25.42	26.48	21.82	16.73	12.18	11.28	13.37	12.21	15.35	19.28	18.72	21.41	21.86	30.30	33.27	11.21	6.671	5.518	6.573	68.41	258.7	22.54	1.142	1.115	0.947	0.832	0.735	0.721	0.805	0.794	0.896	0.629	0.640	0.816	0.652	0.677	0.610	0.544	0.490	0.447	0.388	0.436	0.443	0.335	0.314	0.341	0.374	0.362	0.274	0.296	0.268	0.238	0.225	0.260	0.252	0.295	0.273	0.280	0.326	0.279	0.318	0.388	0.384	0.304	0.309	0.250	0.303	0.267	0.255	0.370	0.267	0.395	0.443	0.371	0.276	0.331	0.213
650.0	25.25	25.89	26.68	17.49	10.94	11.22	12.69	12.76	15.05	17.26	19.32	21.74	20.95	23.23	35.14	14.14	7.036	5.228	4.403	19.27	212.8	65.53	1.454	0.993	0.897	0.803	0.804	0.718	0.800	0.782	0.651	0.735	0.743	0.784	0.685	0.644	0.566	0.570	0.454	0.489	0.391	0.375	0.463	0.395	0.310	0.291	0.344	0.362	0.282	0.234	0.230	0.268	0.243	0.284	0.261	0.244	0.301	0.284	0.268	0.248	0.296	0.290	0.377	0.357	0.284	0.282	0.262	0.286	0.230	0.281	0.252	0.278	0.402	0.374	0.323	0.255	0.207
