Sample:	'1
File name:	Î÷±ÃÕ¾.FD3
Run date:	'14:52:55, 06/17/2025
Operator:	dsjg
Comment:	'

Instrument
Model:	F-2700 FL Spectrophotometer
Serial number:	2198-001
ROM Version:	4J14000 07

Instrument parameters
Measurement type:	3-D scan
Data mode:	Fluorescence
EX  Start WL:	220.0 nm
EX  End WL:	600.0 nm
EX Sampling interval:	5.0 nm
EM  Start WL:	230.0 nm
EM  End WL:	650.0 nm
EM Sampling interval:	5.0 nm
Scan speed:	12000 nm/min
EX Slit:	5.0 nm
EM Slit:	5.0 nm
PMT Voltage:	700 V
Response:	Auto 
Corrected spectra:	Off
Contour interval:	50.000

Peak integration
Integration method:	Rectangular
Sensitivity:	1
Threshold:	1.000

Peaks
No.	ApexEX/EM(nm)	Height(Data)
1	225.0/640.0	42.47
2	230.0/405.0	892.9
3	235.0/415.0	934.9
4	275.0/600.0	55.69
5	280.0/620.0	46.99
6	290.0/410.0	 1469

Data points
	220.0	225.0	230.0	235.0	240.0	245.0	250.0	255.0	260.0	265.0	270.0	275.0	280.0	285.0	290.0	295.0	300.0	305.0	310.0	315.0	320.0	325.0	330.0	335.0	340.0	345.0	350.0	355.0	360.0	365.0	370.0	375.0	380.0	385.0	390.0	395.0	400.0	405.0	410.0	415.0	420.0	425.0	430.0	435.0	440.0	445.0	450.0	455.0	460.0	465.0	470.0	475.0	480.0	485.0	490.0	495.0	500.0	505.0	510.0	515.0	520.0	525.0	530.0	535.0	540.0	545.0	550.0	555.0	560.0	565.0	570.0	575.0	580.0	585.0	590.0	595.0	600.0
230.0	85.60	 1602	 3772	957.1	39.66	12.09	10.62	8.335	7.605	6.841	6.482	5.536	5.587	4.878	3.934	3.675	3.233	2.992	2.935	2.697	2.645	2.406	2.431	2.206	2.243	2.081	2.125	1.964	1.976	1.814	1.939	1.815	1.635	1.533	1.523	1.351	1.390	1.226	1.202	1.132	1.141	1.083	1.083	1.054	0.945	0.906	1.068	3.503	8.651	10.46	6.136	1.985	0.853	0.684	0.686	0.729	0.699	0.694	0.693	0.662	0.627	0.711	0.661	0.676	0.672	0.648	0.645	0.672	0.682	0.650	0.690	0.688	0.658	0.658	0.633	0.616	0.674
235.0	57.20	447.2	 2309	 3451	712.4	61.09	11.45	8.884	9.365	7.481	6.102	6.697	5.850	6.019	3.814	3.920	3.387	3.078	3.083	2.910	2.473	2.439	2.347	2.209	2.522	2.600	2.227	1.841	1.793	1.897	1.745	1.670	1.626	1.365	1.563	1.263	1.465	1.110	1.317	1.133	0.977	1.103	1.200	1.031	0.900	1.073	0.911	1.596	2.862	5.590	8.863	12.98	9.659	2.901	0.946	0.744	0.770	0.711	0.702	0.693	0.673	0.778	0.596	0.603	0.648	0.601	0.647	0.640	0.655	0.614	0.734	0.619	0.657	0.765	0.657	0.601	0.620
240.0	59.55	137.2	725.8	 2784	 3382	569.6	30.53	11.79	8.765	8.568	7.010	6.523	5.459	5.045	4.732	4.126	3.301	3.221	3.069	2.753	2.551	2.447	2.583	2.402	2.310	2.138	2.172	2.073	1.768	1.998	1.684	1.695	1.677	1.332	1.316	1.282	1.338	1.254	1.145	1.223	1.156	1.084	1.063	1.155	0.970	1.193	0.918	1.063	1.320	1.914	3.844	9.958	16.82	15.60	7.817	2.083	0.749	0.605	0.766	0.771	0.673	0.622	0.556	0.612	0.672	0.673	0.669	0.582	0.830	0.644	0.691	0.626	0.722	0.643	0.734	0.606	0.591
245.0	61.28	90.88	196.6	998.1	 3397	 3461	420.6	19.59	9.972	9.010	7.546	7.634	5.870	5.396	4.152	4.286	3.658	3.733	3.465	3.194	2.778	2.429	2.611	2.589	2.336	2.088	2.174	2.189	2.170	1.911	2.001	1.819	1.697	1.471	1.346	1.438	1.154	1.182	1.176	1.285	1.002	1.154	1.025	1.021	0.878	0.937	0.950	1.018	0.892	1.041	1.438	3.256	8.150	16.48	20.68	15.69	5.659	1.091	0.698	0.787	0.642	0.712	0.652	0.687	0.670	0.831	0.652	0.594	0.656	0.701	0.739	0.637	0.597	0.789	0.746	0.677	0.715
250.0	43.27	68.42	100.7	263.5	 1133	 3189	 3890	 1571	104.7	10.40	8.918	7.811	6.724	6.056	4.634	4.529	3.717	3.663	3.316	3.136	2.828	2.378	2.703	2.567	2.354	2.297	2.054	2.021	2.150	2.139	1.916	1.834	1.688	1.522	1.406	1.523	1.253	1.300	1.225	1.274	1.145	1.087	1.062	1.010	1.044	0.846	0.914	0.986	1.014	0.906	0.982	1.368	2.538	5.190	9.875	16.12	21.58	20.31	13.63	5.118	1.184	0.728	0.725	0.731	0.660	0.724	0.664	0.616	0.662	0.696	0.714	0.678	0.603	0.683	0.686	0.754	0.761
255.0	42.21	41.35	66.67	122.6	286.1	820.5	 2819	 5607	 2365	137.1	12.64	9.249	7.604	7.079	4.952	4.360	4.211	3.504	3.263	3.247	3.022	2.966	2.618	2.304	2.557	2.493	2.056	2.110	2.038	2.131	1.925	2.020	1.900	1.643	1.466	1.479	1.101	1.360	1.121	1.326	1.039	1.264	1.180	1.000	0.970	0.814	0.863	0.934	0.896	0.911	0.907	1.148	1.353	1.790	2.835	4.246	7.237	15.47	28.58	33.33	20.66	6.204	0.911	0.737	0.671	0.677	0.672	0.709	0.728	0.637	0.666	0.663	0.554	0.622	0.701	0.688	0.696
260.0	40.98	35.60	35.79	89.83	127.7	206.3	854.0	 4153	 6431	 1927	73.21	11.90	8.716	7.509	5.737	5.275	4.435	4.004	3.754	3.479	3.066	3.058	3.083	2.467	2.661	2.597	2.095	2.245	2.115	1.954	2.104	1.972	1.753	1.807	1.694	1.539	1.322	1.293	1.218	1.261	1.167	1.208	1.150	1.084	1.060	0.937	0.903	0.815	0.824	0.802	0.745	1.076	1.216	1.293	1.308	1.588	2.185	4.417	11.33	25.30	38.95	33.26	15.60	2.880	0.942	0.611	0.647	0.660	0.600	0.757	0.686	0.776	0.560	0.691	0.625	0.631	0.689
265.0	45.66	34.39	31.52	50.21	100.9	100.7	215.6	 1365	 5638	 6792	336.9	36.06	11.86	8.391	6.376	6.198	4.414	4.191	3.613	3.349	3.294	3.091	2.979	2.465	3.032	2.482	2.399	2.009	2.640	2.099	2.075	1.947	1.915	1.639	1.584	1.454	1.303	1.396	1.172	1.182	1.168	1.217	1.153	1.012	1.028	0.907	0.953	1.060	0.786	0.792	0.618	0.887	1.024	1.253	1.204	1.049	1.039	1.586	3.193	7.407	18.55	34.89	41.03	29.48	9.871	1.321	0.715	0.608	0.617	0.594	0.594	0.725	0.657	0.737	0.608	0.678	0.682
270.0	50.77	50.29	36.95	33.59	56.15	95.53	108.3	333.3	 1707	 5004	 6766	 3302	117.4	12.90	9.000	7.414	6.105	4.602	4.333	3.815	3.470	3.320	2.967	2.789	2.898	2.589	2.504	2.278	2.379	2.219	2.097	1.921	1.982	1.811	1.569	1.499	1.432	1.361	1.157	1.269	1.125	1.069	1.265	1.107	1.030	1.045	1.042	0.996	0.904	0.838	0.759	0.740	0.832	0.855	1.036	1.072	1.135	1.157	1.417	2.257	4.881	10.07	18.22	29.91	33.75	36.18	20.54	9.225	1.643	0.747	0.694	0.716	0.698	0.719	0.661	0.718	0.795
275.0	81.99	86.71	61.97	35.00	31.25	52.69	103.8	149.9	413.0	 1225	 3667	 8685	 5783	154.3	13.26	8.464	7.438	5.630	4.837	4.258	3.941	3.759	3.499	2.877	3.251	2.580	2.502	2.506	2.628	2.057	2.173	2.337	2.043	1.898	1.852	1.594	1.635	1.329	1.425	1.414	1.328	1.118	1.375	1.208	1.237	1.138	1.038	1.258	1.006	0.855	0.795	0.833	0.808	0.795	0.831	0.922	1.140	1.266	1.288	1.376	1.856	2.862	4.907	7.618	10.41	22.14	42.71	54.75	31.17	9.337	1.202	0.728	0.782	0.743	0.728	0.855	0.707
280.0	114.8	124.8	93.96	48.43	29.89	34.81	75.38	142.8	169.7	323.0	 1049	 5072	9999.9	 1720	103.5	11.55	8.354	7.042	5.332	4.911	4.312	3.666	3.886	3.199	3.149	2.758	2.566	2.519	2.372	2.272	2.312	2.236	2.250	2.122	1.697	1.779	1.517	1.571	1.627	1.384	1.255	1.136	1.169	1.268	1.260	1.260	1.147	1.315	1.105	0.903	0.762	0.853	0.747	0.771	0.871	0.852	1.010	0.993	1.375	1.521	1.535	1.459	1.850	2.504	3.147	6.177	15.15	34.52	56.29	40.62	23.89	4.365	0.835	0.769	0.731	0.780	0.808
285.0	158.5	162.5	120.0	61.97	37.33	33.78	54.04	122.4	175.1	170.1	320.7	 1563	 6376	 9827	 1430	60.22	11.68	8.915	6.969	5.670	4.801	4.068	3.826	3.202	3.355	3.069	3.107	2.789	2.423	2.721	2.207	2.268	2.295	1.878	1.808	1.715	1.585	1.790	1.506	1.366	1.186	1.324	1.215	1.362	1.275	1.425	1.250	1.291	1.187	1.109	0.876	0.935	0.912	0.875	0.900	0.829	0.974	0.960	1.130	1.330	1.514	1.429	1.410	1.401	1.498	2.320	4.335	9.924	23.41	42.19	62.55	37.08	15.67	1.793	0.770	0.814	0.810
290.0	207.9	214.8	156.8	83.22	51.46	45.99	58.91	95.39	174.6	241.7	259.3	520.1	 1874	 5364	 8317	 5088	82.20	13.25	9.119	7.091	5.612	4.909	4.211	4.061	3.573	3.347	3.285	2.988	2.766	2.552	2.373	2.209	2.289	1.997	1.997	1.816	1.743	1.788	1.691	1.498	1.345	1.418	1.557	1.459	1.495	1.613	1.406	1.477	1.382	1.226	1.007	1.031	0.949	0.992	0.990	0.951	1.043	0.996	1.072	1.141	1.368	1.581	1.788	1.815	1.642	1.841	2.229	3.523	6.561	12.06	23.81	35.16	48.21	45.36	23.22	11.08	1.695
295.0	256.9	253.1	198.3	116.5	68.89	58.86	78.22	105.2	166.7	279.6	371.5	388.3	641.5	 1397	 3400	 9054	 7623	108.1	13.47	9.455	6.965	6.328	5.108	4.742	3.875	3.456	3.588	3.291	2.995	2.613	2.591	2.515	2.393	2.181	2.050	2.068	1.951	1.977	1.894	1.757	1.519	1.496	1.703	1.515	1.606	1.653	1.672	1.589	1.511	1.161	1.198	1.054	1.007	1.016	1.015	1.125	1.091	1.139	1.189	1.212	1.315	1.525	1.608	2.207	2.333	2.357	2.369	2.541	3.026	3.957	6.441	9.029	13.63	23.17	47.71	72.16	35.75
300.0	264.1	294.0	238.0	134.3	82.92	75.20	90.22	127.2	189.4	288.6	430.5	497.8	447.3	515.8	980.9	 4277	9999.9	 6105	75.14	12.67	8.705	7.540	5.860	5.414	4.177	3.454	3.613	3.171	3.481	2.936	2.872	2.503	2.277	2.290	1.961	1.921	2.077	1.865	2.103	1.825	1.778	1.759	1.751	1.679	1.714	1.879	1.805	1.822	1.656	1.441	1.220	1.251	1.105	0.969	0.984	1.026	1.094	1.274	1.292	1.286	1.248	1.708	1.810	2.109	2.565	2.923	3.111	2.652	2.475	2.628	2.921	3.240	4.255	6.504	16.15	39.10	68.25
305.0	290.8	320.2	260.3	152.9	93.53	85.07	106.3	148.8	211.4	315.6	441.8	570.8	517.0	379.6	383.2	 1245	 5489	9999.9	 4519	49.54	11.95	9.007	7.074	5.989	4.783	4.141	4.031	3.496	3.527	3.119	2.700	2.674	2.555	2.360	1.905	2.096	2.003	2.146	1.922	2.094	1.695	1.822	1.718	1.775	1.734	1.991	1.794	1.737	1.811	1.429	1.231	1.165	1.228	1.145	1.173	1.056	1.230	1.343	1.312	1.474	1.478	1.772	1.980	2.294	2.851	2.847	3.238	3.387	3.023	2.580	2.392	2.206	2.235	2.543	4.633	10.95	25.37
310.0	323.3	355.7	286.0	178.9	117.5	108.3	128.9	174.8	253.3	352.8	470.8	586.6	630.0	497.6	323.6	409.9	 1503	 5040	9999.9	 6402	61.90	13.41	8.931	7.349	5.619	4.884	4.495	3.959	3.551	3.178	3.060	3.063	2.603	2.444	2.093	2.230	2.135	2.225	2.147	2.150	1.884	1.880	1.961	1.692	1.844	2.003	1.763	1.907	1.810	1.588	1.298	1.304	1.363	1.172	1.262	1.179	1.304	1.430	1.474	1.547	1.684	1.936	2.183	2.194	2.828	2.833	2.986	3.272	3.521	3.538	2.919	2.499	2.050	1.912	2.323	3.551	6.705
315.0	349.2	393.8	318.9	205.7	135.1	128.0	156.7	210.7	299.1	414.0	534.9	636.1	678.9	648.2	456.3	284.6	445.8	 1213	 3409	9999.9	 6081	82.03	13.48	9.972	7.147	5.829	5.344	4.648	4.126	3.889	3.115	3.346	2.658	2.793	2.389	2.083	2.316	2.207	2.159	2.242	1.979	1.975	2.009	1.808	1.837	2.178	1.871	2.160	1.902	1.716	1.389	1.393	1.365	1.328	1.314	1.329	1.354	1.643	1.549	1.652	1.925	1.900	2.423	2.375	2.800	3.266	3.402	3.239	3.572	3.536	3.673	3.548	2.539	2.171	2.058	2.107	2.697
320.0	366.2	425.3	362.0	237.0	152.3	152.0	175.3	242.9	339.8	461.6	590.0	694.5	721.7	694.5	590.2	334.1	244.2	356.9	881.2	 4193	9999.9	 5003	60.26	12.50	9.724	7.208	5.999	5.256	4.337	3.942	3.727	3.144	2.879	2.497	2.428	2.179	2.556	2.355	2.477	2.321	2.332	2.295	2.075	2.024	1.916	2.046	2.002	2.240	2.167	1.642	1.473	1.485	1.425	1.309	1.378	1.393	1.441	1.535	1.709	1.828	2.132	2.293	2.722	2.854	3.171	3.480	3.550	3.794	3.895	3.608	3.545	3.701	3.584	2.950	2.313	1.768	1.905
325.0	385.3	491.1	404.9	256.4	169.9	171.8	205.2	273.5	379.3	512.8	668.6	744.5	782.4	737.2	648.3	448.4	238.2	195.0	272.3	 1123	 5573	9999.9	 3809	42.00	12.42	8.646	6.538	5.687	4.808	4.374	3.966	3.563	2.976	2.796	2.372	2.554	2.727	2.520	2.330	2.178	2.190	2.179	1.943	1.923	2.141	2.191	2.129	2.220	2.230	1.890	1.564	1.479	1.463	1.440	1.433	1.410	1.468	1.718	1.882	2.079	2.313	2.465	2.883	3.293	3.627	3.732	3.909	3.947	3.885	4.142	3.811	3.605	3.556	3.569	2.801	2.321	1.951
330.0	443.8	529.8	453.5	309.1	210.2	204.8	241.2	313.1	436.1	590.6	747.4	843.4	883.6	823.1	686.8	537.1	370.0	215.3	172.4	328.8	 1444	 5319	9999.9	 6744	51.94	13.08	9.232	6.985	6.076	4.946	4.474	3.778	3.565	3.252	2.795	2.619	2.690	2.666	2.381	2.292	2.459	2.283	2.017	2.145	2.279	2.301	2.248	2.435	2.380	1.958	1.751	1.734	1.623	1.538	1.769	1.632	1.853	1.874	1.972	2.182	2.562	2.770	3.060	3.361	3.774	3.900	4.183	4.386	4.492	4.400	4.171	4.026	3.479	3.517	3.213	2.983	2.657
335.0	475.7	562.9	489.0	344.9	252.5	244.3	287.6	361.2	499.6	651.7	831.8	949.3	992.0	916.5	766.6	567.1	474.6	343.3	207.3	193.1	408.4	 1262	 3404	9999.9	 4955	68.83	14.10	9.393	7.996	6.125	5.221	4.384	4.025	3.356	2.783	2.751	2.823	2.708	2.574	2.346	2.325	2.297	2.296	2.184	2.337	2.370	2.361	2.835	2.517	2.087	1.869	1.932	1.985	1.714	1.786	1.812	2.080	2.065	2.047	2.526	2.805	3.016	3.509	3.716	4.076	4.446	4.310	4.545	4.877	4.555	4.333	4.350	4.189	3.743	3.124	3.052	2.919
340.0	517.6	593.8	536.4	380.7	284.5	270.3	315.2	405.5	547.3	709.2	889.3	 1005	 1061	987.8	828.1	612.5	487.5	451.0	292.2	201.3	206.9	366.1	870.6	 4496	9999.9	 4304	54.15	12.73	9.884	7.222	5.713	4.773	4.389	3.531	2.959	2.983	2.785	2.667	2.596	2.446	2.617	2.244	2.253	2.307	2.323	2.446	2.525	2.835	2.549	2.341	2.022	1.967	1.942	1.748	1.911	1.971	2.123	2.105	2.326	2.847	2.997	3.243	3.547	3.896	4.289	4.680	4.579	4.927	5.119	4.958	4.866	4.441	4.151	3.924	3.631	3.222	2.797
345.0	527.1	619.6	585.2	410.1	318.9	306.6	347.4	445.6	570.6	744.6	915.9	 1031	 1092	 1032	878.9	661.5	509.8	470.6	408.7	260.2	200.1	200.2	285.4	 1191	 6622	9999.9	 3270	38.61	12.00	8.775	6.450	5.572	4.740	3.655	3.359	3.166	2.835	3.075	2.789	2.573	2.593	2.468	2.484	2.335	2.291	2.533	2.632	2.843	2.464	2.543	2.083	2.253	2.143	1.947	1.873	2.137	2.145	2.368	2.513	2.668	3.163	3.311	3.672	3.912	4.561	4.651	4.737	4.853	5.102	5.224	5.076	4.685	4.248	3.970	3.617	3.347	3.143
350.0	550.6	633.2	578.6	443.7	360.9	351.2	385.0	477.9	602.3	782.4	942.2	 1050	 1112	 1064	931.4	724.2	571.0	497.9	477.3	416.4	293.4	236.3	216.9	383.4	 1705	 6081	9999.9	 6518	48.16	13.82	9.080	7.127	5.408	4.288	3.750	3.414	3.155	3.122	2.966	2.552	2.539	2.400	2.446	2.574	2.419	2.712	2.682	2.796	2.798	2.460	2.143	2.263	2.380	2.206	2.076	2.282	2.418	2.483	2.704	3.018	3.294	3.503	3.753	4.232	4.497	4.585	4.936	5.078	5.115	5.215	5.126	4.968	4.798	4.289	3.909	3.673	3.492
355.0	530.8	642.2	601.0	481.1	413.3	404.6	432.5	523.8	648.2	804.4	968.7	 1065	 1127	 1095	977.9	792.4	660.7	573.5	533.9	527.1	469.0	348.0	286.0	273.3	519.0	 1470	 3580	9999.9	 4500	64.68	13.53	9.902	6.773	5.558	4.521	3.593	3.307	3.356	2.902	2.743	2.863	2.407	2.522	2.569	2.650	2.828	2.796	2.814	2.923	2.453	2.272	2.450	2.662	2.490	2.314	2.519	2.693	2.614	2.754	3.000	3.386	3.624	3.820	4.377	4.724	4.825	4.883	5.073	5.105	5.087	5.158	5.453	5.024	4.724	4.276	3.896	4.058
360.0	558.1	672.2	612.1	518.7	451.4	440.4	471.6	557.9	686.0	822.0	976.3	 1082	 1139	 1105	 1007	849.9	735.1	652.2	600.7	577.1	587.4	477.2	368.5	307.5	303.3	462.8	927.0	 4812	9999.9	 3985	51.27	11.90	8.766	6.314	4.855	4.194	3.443	3.575	3.034	2.888	2.819	2.703	2.498	2.601	2.832	2.650	2.785	2.741	2.944	2.577	2.410	2.712	2.572	2.591	2.404	2.690	2.691	2.723	2.958	3.089	3.499	3.726	4.005	4.442	4.994	4.829	5.129	5.177	5.396	5.018	5.222	5.226	5.071	4.638	4.544	4.137	4.215
365.0	532.0	668.3	629.9	539.8	482.2	473.0	509.5	574.5	712.5	840.1	984.6	 1088	 1139	 1131	 1038	889.9	790.7	729.7	680.5	642.6	646.1	618.2	476.9	381.1	308.2	282.0	332.1	 1264	 7240	9999.9	 3024	36.45	11.18	7.605	5.792	4.628	3.877	3.694	3.286	2.929	2.856	2.635	2.552	2.707	2.704	2.864	2.839	2.864	2.951	2.675	2.614	2.707	2.610	2.653	2.709	2.735	3.001	2.945	3.216	3.465	3.637	3.764	4.071	4.624	4.639	4.907	5.119	5.316	5.542	5.371	5.259	5.369	5.324	4.913	4.716	4.529	4.247
370.0	558.0	679.9	654.1	580.5	537.7	522.8	554.7	615.7	734.3	862.7	 1003	 1103	 1165	 1157	 1089	965.8	883.2	835.7	794.2	756.6	729.2	722.0	661.7	517.9	405.7	320.9	260.1	409.5	 1858	 6659	9999.9	 6322	41.85	12.19	7.498	5.452	4.759	4.275	3.536	3.410	3.060	2.816	2.665	2.660	3.014	2.983	2.898	3.230	3.197	2.670	2.668	2.864	2.945	2.860	2.947	3.014	3.250	3.397	3.194	3.575	3.747	4.039	4.205	4.522	4.704	4.875	5.116	5.135	5.482	5.404	5.263	5.731	5.549	5.113	5.047	4.813	5.114
375.0	564.7	699.9	691.1	649.4	588.5	588.4	600.3	664.8	760.3	891.9	 1026	 1112	 1191	 1199	 1154	 1049	995.2	952.3	916.3	884.1	849.5	817.6	783.1	706.4	543.3	422.9	320.2	282.4	545.5	 1586	 3912	9999.9	 3858	54.32	11.81	7.403	6.262	5.049	4.036	3.925	3.344	3.274	2.800	2.908	3.071	3.062	3.155	3.295	3.280	2.768	2.811	3.152	3.377	3.087	3.083	3.151	3.317	3.549	3.469	3.750	4.163	3.901	4.458	4.642	4.790	5.301	5.076	5.004	5.271	5.552	5.673	5.621	5.559	5.697	5.432	5.425	5.579
380.0	592.6	713.2	716.8	678.7	628.1	621.5	631.5	690.0	784.4	895.1	 1032	 1142	 1210	 1238	 1202	 1120	 1072	 1042	999.7	974.8	941.8	891.4	845.4	816.3	671.8	512.1	396.6	304.2	295.5	478.0	996.5	 5222	9999.9	 3351	41.54	10.75	7.581	5.594	5.054	3.946	3.441	3.456	3.047	2.773	3.366	3.198	3.187	3.348	3.410	3.082	2.762	3.409	3.200	3.158	3.286	3.320	3.412	3.577	3.838	3.872	4.064	4.144	4.441	4.626	4.786	5.421	5.226	5.302	5.368	5.547	5.693	5.581	5.653	5.874	5.688	5.855	5.513
385.0	611.7	729.7	762.9	721.0	686.0	660.2	673.7	731.3	817.8	909.5	 1036	 1151	 1233	 1273	 1257	 1196	 1144	 1116	 1080	 1046	 1017	970.3	915.9	872.9	795.4	620.6	475.1	368.5	289.6	272.5	338.0	 1363	 7528	9999.9	 2395	28.30	9.979	7.139	5.963	4.290	3.994	3.650	3.460	3.174	3.322	3.216	3.119	3.259	3.522	3.191	2.916	3.508	3.415	3.362	3.503	3.447	3.812	4.046	4.123	3.965	4.337	4.245	4.460	4.915	5.153	5.241	5.259	5.713	5.402	5.764	5.482	5.977	6.162	6.148	6.005	6.090	5.959
390.0	800.0	749.0	800.7	776.6	744.3	717.5	729.4	774.8	856.8	948.6	 1067	 1185	 1268	 1334	 1334	 1282	 1235	 1205	 1165	 1140	 1108	 1076	 1023	961.2	890.4	784.7	619.5	485.6	381.9	308.1	257.6	433.0	 1933	 6419	9999.9	 4854	35.03	10.97	7.308	5.700	4.641	3.960	3.617	3.522	3.493	3.511	3.332	3.565	3.547	3.368	3.106	3.557	3.818	3.717	3.688	3.609	4.077	4.040	4.321	4.246	4.406	4.366	4.605	4.988	5.174	5.484	5.408	5.567	5.615	6.058	5.943	6.343	6.478	6.313	6.311	6.508	6.451
395.0	677.2	771.7	845.7	825.6	798.9	779.4	791.7	822.8	890.5	988.9	 1103	 1213	 1308	 1391	 1402	 1358	 1310	 1284	 1239	 1216	 1188	 1161	 1122	 1064	981.9	899.5	800.8	635.1	509.2	411.0	320.5	286.1	560.3	 1526	 3733	9999.9	 3129	46.32	11.10	7.455	6.086	4.423	4.211	3.777	3.369	3.592	3.801	3.687	3.697	3.542	3.304	4.117	4.198	4.148	3.878	4.121	4.384	4.260	4.569	4.435	4.746	4.787	4.848	5.160	5.176	5.418	5.786	5.944	6.225	6.089	6.317	6.788	6.736	6.591	6.847	7.157	6.786
400.0	670.4	798.3	848.6	865.6	832.5	810.1	826.6	857.4	922.4	 1014	 1117	 1231	 1326	 1421	 1442	 1405	 1355	 1321	 1286	 1250	 1241	 1216	 1183	 1138	 1054	965.6	894.1	767.3	612.1	494.0	391.1	299.7	292.1	454.2	939.6	 4739	9999.9	 2798	36.66	10.20	6.961	5.539	4.611	4.099	3.818	3.817	3.860	3.794	3.872	3.729	3.613	4.301	4.428	4.117	4.304	4.230	4.465	4.344	4.593	4.703	4.792	5.049	4.913	5.217	5.501	5.502	5.844	6.196	5.956	6.313	6.242	6.899	7.231	6.784	6.923	6.857	7.077
405.0	669.2	811.8	892.9	892.3	868.5	848.3	853.3	886.7	961.4	 1037	 1140	 1254	 1353	 1450	 1466	 1424	 1384	 1344	 1306	 1278	 1269	 1252	 1220	 1189	 1116	 1019	942.0	865.2	716.3	571.9	459.3	351.3	267.1	242.7	305.6	 1212	 6398	9999.9	 2099	27.30	8.671	6.322	5.264	4.440	4.156	4.030	3.733	4.073	4.053	3.816	3.523	4.256	4.430	4.356	4.362	4.435	4.453	4.663	4.447	4.901	4.827	5.069	5.048	5.467	5.218	5.320	5.763	6.014	6.198	6.857	6.652	6.888	6.974	7.221	7.061	7.014	7.075
410.0	676.5	811.2	883.9	927.4	887.4	874.7	892.6	912.3	988.5	 1063	 1160	 1261	 1368	 1451	 1469	 1433	 1386	 1353	 1323	 1287	 1278	 1272	 1253	 1231	 1171	 1092	 1004	930.5	842.0	692.2	550.7	428.4	316.9	239.8	197.4	359.8	 1605	 5579	 9406	 4119	31.41	9.761	6.635	5.222	4.446	4.261	4.114	4.109	3.869	3.892	3.743	4.466	4.478	4.609	4.430	4.566	4.618	4.852	4.792	5.036	4.919	5.313	5.096	5.585	5.358	5.755	5.938	5.972	6.246	6.719	6.695	7.083	6.983	7.131	7.290	7.141	7.385
415.0	645.6	796.4	886.0	934.9	910.6	896.6	911.1	940.4	 1006	 1077	 1159	 1252	 1353	 1429	 1453	 1412	 1358	 1326	 1301	 1271	 1270	 1264	 1262	 1249	 1198	 1135	 1058	972.2	898.0	808.0	646.4	499.8	382.0	281.8	210.6	200.0	442.2	 1309	 3369	 9661	 2788	41.77	9.526	6.926	5.481	5.083	4.368	4.387	4.206	3.973	3.759	4.669	4.848	4.714	4.409	4.545	4.874	4.904	5.054	5.234	4.839	5.289	5.395	5.579	5.540	5.653	5.915	6.247	6.353	6.587	6.898	6.710	7.099	7.069	7.014	7.184	7.389
420.0	652.5	798.3	869.3	918.7	913.4	900.2	907.0	957.7	 1017	 1090	 1161	 1250	 1334	 1404	 1417	 1384	 1340	 1301	 1263	 1253	 1235	 1240	 1255	 1238	 1202	 1146	 1076	997.8	920.2	851.5	718.4	558.4	423.9	321.0	239.0	184.2	202.6	363.3	824.4	 4145	 9984	 2510	34.82	9.314	6.556	5.548	4.709	4.593	4.236	4.152	3.946	4.748	4.627	4.735	4.683	4.490	5.053	4.801	5.113	5.261	4.783	5.210	5.602	5.529	5.640	5.633	5.894	5.945	6.244	6.191	6.622	6.407	6.937	6.983	6.833	7.148	7.194
425.0	635.4	793.3	892.7	912.4	923.7	913.5	922.2	980.1	 1033	 1085	 1165	 1240	 1313	 1380	 1380	 1333	 1301	 1270	 1234	 1212	 1217	 1224	 1238	 1230	 1200	 1153	 1087	 1011	936.2	857.1	773.7	614.5	461.9	357.8	268.8	203.1	166.9	169.4	246.5	 1037	 5571	 9494	 1882	24.70	8.587	6.473	5.271	4.863	4.274	4.168	4.081	4.619	4.673	4.505	4.805	4.514	5.022	5.180	5.323	5.319	4.990	5.209	5.345	5.327	5.451	5.593	5.692	5.756	6.162	6.234	6.337	6.505	6.592	7.028	6.760	6.916	7.041
430.0	638.5	754.7	855.4	907.0	924.6	926.5	935.4	978.8	 1021	 1080	 1147	 1222	 1277	 1330	 1325	 1289	 1237	 1215	 1185	 1173	 1171	 1183	 1200	 1197	 1172	 1135	 1085	 1020	951.5	877.3	789.5	676.8	529.7	406.8	314.5	243.5	192.4	154.4	141.5	295.6	 1395	 4818	 7484	 3324	29.09	9.547	6.414	5.796	4.906	4.171	4.067	4.610	4.885	4.647	4.862	4.604	5.204	5.264	5.311	5.246	5.394	5.655	5.467	5.477	5.586	5.778	5.700	5.726	5.872	6.071	6.088	6.454	6.405	6.564	6.604	6.597	6.733
435.0	828.4	739.9	819.5	891.5	915.4	931.2	943.8	978.3	 1030	 1079	 1133	 1192	 1234	 1271	 1258	 1229	 1180	 1156	 1132	 1116	 1115	 1129	 1146	 1150	 1137	 1105	 1069	 1018	960.4	890.0	795.5	699.6	593.7	463.0	362.2	288.7	229.8	182.5	145.0	155.3	377.8	 1128	 2666	 8093	 2573	38.33	9.927	6.998	5.616	4.532	4.292	4.593	4.762	4.985	4.925	4.790	5.014	5.080	5.483	5.498	5.315	5.443	5.459	5.466	5.777	5.652	5.475	5.681	5.462	5.792	5.919	6.264	6.103	6.204	6.304	6.436	6.553
440.0	 1182	741.9	818.8	871.9	910.3	934.6	937.4	995.7	 1034	 1072	 1114	 1172	 1186	 1231	 1207	 1170	 1133	 1104	 1086	 1066	 1068	 1084	 1094	 1108	 1097	 1071	 1048	998.5	951.9	884.8	799.8	700.3	613.7	508.7	395.2	318.6	260.2	206.8	165.3	140.1	166.0	315.3	660.3	 3728	 8953	 2147	28.57	9.009	6.335	5.107	4.386	4.680	5.133	5.061	4.925	4.690	5.070	5.239	5.128	5.511	5.598	5.397	5.231	5.403	5.745	5.645	5.371	5.660	5.593	5.494	5.734	5.853	5.906	6.009	6.239	6.264	6.285
445.0	 1575	882.9	782.3	850.6	883.6	917.1	929.8	992.4	 1020	 1065	 1112	 1139	 1157	 1185	 1148	 1116	 1074	 1061	 1037	 1021	 1021	 1034	 1051	 1064	 1052	 1035	 1012	976.4	934.6	880.7	802.2	701.9	610.8	534.8	429.7	343.7	283.3	229.7	187.4	154.3	134.5	147.0	204.7	953.8	 5387	 8412	297.9	20.73	7.623	5.667	4.748	5.052	4.759	5.045	4.968	4.824	5.150	5.395	5.391	5.139	5.323	5.205	5.153	5.295	5.934	5.505	5.511	5.359	5.364	5.354	5.806	5.657	5.698	5.801	5.926	5.759	5.972
450.0	 1451	 1613	807.2	820.9	868.4	874.8	921.4	970.4	 1002	 1031	 1071	 1086	 1091	 1103	 1079	 1034	991.2	979.2	956.5	946.8	946.4	955.1	974.9	982.3	980.1	967.1	949.3	926.0	890.8	852.6	786.7	696.5	606.4	536.4	462.1	380.2	312.5	261.2	220.6	183.5	154.6	133.5	122.6	269.3	 1351	 4542	 6633	 2882	24.19	7.686	5.675	5.665	5.235	5.172	4.916	4.859	5.137	5.343	5.345	5.453	5.225	5.160	5.294	5.353	5.289	5.258	5.215	4.959	5.188	5.276	5.304	5.486	5.106	5.633	5.600	5.615	5.704
455.0	845.0	 2370	 1163	761.0	820.6	844.1	896.2	928.8	966.9	980.0	 1012	 1021	 1012	 1008	990.3	945.8	907.1	887.1	867.2	856.9	857.0	868.1	878.7	892.6	892.2	885.4	872.4	858.8	827.9	811.2	753.2	678.2	596.0	524.3	462.6	412.3	348.0	291.5	249.5	214.8	184.3	151.3	123.2	131.5	350.9	 1054	 2434	 7004	 2124	27.97	7.734	6.390	5.696	5.154	4.883	4.953	5.000	5.158	5.150	5.199	5.103	5.145	5.196	4.881	4.823	5.037	5.044	4.721	4.926	5.114	5.027	4.876	5.149	5.233	5.090	5.354	5.341
460.0	549.8	 2170	 1786	764.6	784.2	815.3	853.9	894.9	922.8	930.4	965.2	965.9	957.4	957.3	929.9	878.8	837.0	817.3	800.1	793.5	791.3	802.2	811.9	824.1	826.2	824.8	813.5	802.6	789.3	772.1	720.6	652.8	582.9	517.4	457.6	416.3	370.8	307.9	268.7	232.3	201.0	168.4	132.7	110.0	135.7	276.0	587.7	 3144	 7293	 1610	21.99	7.376	5.989	5.496	5.010	4.910	5.094	5.297	5.249	4.858	5.031	4.730	5.022	4.691	4.812	4.681	4.855	4.703	4.693	4.820	4.723	4.729	5.051	4.885	4.803	4.998	4.997
465.0	439.2	 1386	 2360	955.7	741.6	779.6	815.0	851.5	876.6	892.8	921.1	918.5	901.5	894.3	861.9	814.5	779.0	764.5	746.9	736.1	734.9	744.4	749.7	759.3	767.6	763.7	758.5	753.1	740.3	726.5	685.2	626.9	568.4	503.7	446.9	407.9	377.1	321.3	277.1	244.3	212.4	178.3	143.3	110.8	93.46	108.0	162.7	782.1	 4371	 6520	 1148	17.74	7.284	5.760	5.420	4.903	5.018	5.393	5.053	5.019	4.873	4.510	5.123	4.668	4.801	4.613	4.647	4.301	4.269	4.476	4.541	4.589	4.536	4.614	4.601	4.601	4.669
470.0	403.5	725.3	 1979	 1744	769.0	723.9	765.8	782.0	817.2	827.4	847.1	835.8	820.3	814.1	775.0	728.3	700.5	680.4	667.6	655.5	654.1	658.8	670.0	680.1	681.8	683.2	681.0	675.0	670.4	664.8	633.3	586.1	534.0	478.0	428.6	385.9	357.0	326.0	286.1	249.9	217.8	186.1	151.3	117.2	90.08	75.11	72.87	202.2	 1084	 3486	 5051	 2285	23.03	7.193	5.635	5.318	5.137	4.962	4.823	5.130	4.555	4.409	4.581	4.464	4.629	4.431	4.275	4.387	4.260	4.141	4.219	4.175	4.172	4.130	4.045	4.121	4.246
475.0	364.0	496.1	 1008	 2250	 1242	674.1	697.4	725.1	747.3	755.7	774.8	759.1	740.5	727.8	686.2	652.7	619.2	600.6	583.9	579.4	580.0	580.3	586.6	596.1	595.7	602.9	601.4	602.2	599.3	597.8	577.1	537.2	493.2	446.9	408.1	365.2	336.1	311.2	289.2	253.4	218.5	187.5	151.4	121.1	92.42	72.10	57.61	75.94	263.8	797.1	 1709	 4991	 1963	30.13	6.757	5.788	5.361	4.988	4.799	4.702	4.318	4.369	4.162	4.229	4.063	4.007	3.923	3.832	3.889	3.676	3.778	3.978	3.861	3.596	3.525	3.761	3.762
480.0	343.0	403.4	596.7	 1810	 1969	719.3	657.1	680.5	696.8	715.9	714.2	701.7	684.6	671.8	633.3	599.5	569.0	546.4	537.4	529.7	528.2	528.4	536.3	543.3	549.1	549.0	549.7	549.2	550.8	553.6	534.9	504.2	466.9	425.7	383.5	349.6	322.7	295.9	278.8	254.6	219.3	185.2	153.3	122.9	95.00	73.45	55.51	50.39	83.91	196.8	405.4	 2086	 5180	 1622	23.44	6.779	5.570	4.971	4.712	4.542	4.367	4.475	4.109	3.867	3.790	3.864	3.689	3.656	3.815	3.635	3.773	3.626	3.409	3.482	3.423	3.424	3.505
485.0	327.1	380.6	471.6	 1093	 2406	989.1	620.9	632.6	651.6	662.7	668.1	654.6	634.7	621.4	587.5	550.6	526.4	506.6	493.1	486.0	484.5	482.2	493.1	495.9	503.3	503.4	508.7	507.2	516.5	512.9	498.1	474.1	435.5	403.5	367.9	335.4	309.6	286.4	266.0	248.2	219.5	185.0	152.1	121.9	98.93	76.36	57.96	47.31	46.07	65.32	107.4	506.5	 2921	 5082	283.5	16.32	6.208	5.298	4.770	4.644	4.267	4.084	4.314	3.715	3.897	3.902	3.653	3.503	3.645	3.467	3.319	3.510	3.290	3.371	3.253	3.295	3.491
490.0	300.1	342.7	408.6	603.6	 1791	 1882	645.3	580.7	592.8	609.0	611.4	594.1	583.4	562.1	525.9	494.6	469.9	445.9	439.8	433.0	428.5	429.2	436.9	443.6	446.4	447.3	454.3	453.7	460.8	462.7	452.3	428.8	399.4	371.6	341.0	314.0	291.2	269.1	249.7	233.1	214.6	184.0	151.2	123.0	99.47	78.86	61.86	49.90	41.24	38.45	43.64	129.4	710.3	 2455	 3867	 1225	23.55	6.550	5.106	4.635	3.964	4.051	3.787	3.541	3.747	3.616	3.412	3.240	3.201	3.341	3.291	3.152	3.139	3.092	2.952	2.945	3.124
495.0	253.3	299.7	364.3	441.1	839.6	 2228	 1243	536.4	531.4	554.2	551.8	540.8	519.6	499.7	464.4	432.0	410.9	396.5	388.2	381.4	375.3	377.8	382.8	384.4	393.4	393.5	395.7	399.7	402.6	406.3	403.3	382.3	357.8	335.6	310.8	287.0	267.7	249.3	230.8	213.7	200.1	180.2	149.5	120.7	98.23	79.56	64.19	53.03	42.50	35.70	31.34	46.73	173.5	562.4	 1425	 4223	 2013	31.08	6.327	4.799	4.248	3.855	3.680	3.437	3.464	3.445	3.145	3.213	3.016	2.944	3.009	3.003	2.854	2.886	2.651	2.684	2.778
500.0	226.9	282.1	334.1	365.7	493.3	 1643	 2010	569.1	490.8	495.3	498.1	493.7	470.2	454.3	419.2	394.3	367.7	357.1	349.2	344.4	339.1	338.0	342.8	345.8	350.3	352.0	355.7	360.6	366.5	367.8	365.1	348.1	325.7	307.5	288.1	264.7	248.3	232.6	215.0	199.5	185.2	171.4	148.0	117.7	96.14	79.98	64.93	53.78	43.87	36.41	30.45	30.56	54.86	140.0	338.7	 1810	 4728	 1580	23.93	5.841	4.493	3.938	3.518	3.391	3.192	3.245	2.813	2.959	2.844	2.921	2.669	2.723	2.518	2.638	2.534	2.526	2.548
505.0	205.3	249.7	310.1	337.0	375.4	929.8	 2386	966.4	452.0	457.9	465.7	454.1	435.8	412.0	383.3	353.7	330.8	322.0	314.6	307.1	306.0	307.2	308.1	312.0	314.4	317.5	320.7	321.6	332.1	333.6	331.0	317.0	298.9	282.2	264.3	244.3	230.1	217.6	200.7	187.1	171.7	158.2	142.7	117.5	94.06	78.15	63.55	54.53	44.32	37.13	31.49	27.14	29.54	46.27	88.28	440.1	 2572	 4467	296.8	14.64	4.707	4.249	3.512	3.287	2.882	2.925	2.756	2.786	2.626	2.506	2.419	2.542	2.437	2.444	2.557	2.480	2.318
510.0	175.5	223.2	271.5	303.6	318.6	482.4	 1584	 1927	580.4	400.4	412.5	398.9	384.2	359.2	335.0	306.8	289.1	280.8	270.1	268.2	261.7	264.2	268.5	269.0	269.4	272.0	276.5	281.5	286.5	288.7	286.7	276.7	264.2	246.7	232.1	217.5	205.5	193.4	182.1	168.4	154.5	141.1	127.4	111.8	92.70	75.86	63.09	54.32	45.24	37.60	32.17	27.71	24.33	25.52	32.57	109.6	622.3	 2133	 3171	 1241	21.88	4.715	3.608	3.385	2.971	2.794	2.605	2.528	2.378	2.484	2.334	2.369	2.240	1.974	2.206	2.352	2.073
515.0	167.6	189.3	225.7	270.4	269.0	325.4	662.2	 2035	 1340	360.5	356.2	343.9	325.0	312.9	289.7	264.1	250.1	239.5	228.6	226.7	228.5	225.9	229.7	227.8	228.9	232.7	235.7	238.9	243.4	246.4	244.7	237.9	227.7	213.7	203.0	189.8	179.6	170.8	160.3	148.5	137.3	124.1	112.3	100.4	89.14	73.56	60.92	52.67	44.40	36.94	32.40	27.73	23.10	21.45	20.40	36.05	148.5	484.9	 1073	 3217	 1811	28.07	4.529	3.454	3.002	2.743	2.462	2.466	2.276	2.093	2.216	2.103	2.074	1.824	1.949	1.853	1.855
520.0	153.7	183.6	203.1	242.0	247.2	273.9	361.7	 1344	 2117	429.7	322.3	310.3	295.7	276.9	259.8	235.1	222.0	210.3	204.8	204.8	200.8	200.4	201.5	202.7	206.5	206.0	209.1	211.1	217.1	220.0	219.4	211.9	203.2	192.6	180.5	170.3	161.9	155.6	145.0	135.7	125.2	112.5	101.7	90.95	83.77	72.72	59.11	50.58	42.60	36.11	32.01	28.11	23.49	20.13	17.90	19.73	43.17	116.4	252.1	 1377	 3505	 1192	18.89	3.721	2.891	2.805	2.580	2.507	2.285	2.133	1.919	2.089	1.995	1.996	1.901	1.975	1.836
525.0	138.5	166.5	179.2	219.7	233.0	239.0	278.8	684.2	 2273	 1020	294.8	284.2	267.6	252.8	227.9	211.8	200.2	189.9	185.8	182.3	181.4	178.7	182.2	182.2	182.1	182.9	186.9	188.1	193.7	196.7	197.4	193.1	179.9	174.4	163.7	153.7	145.7	139.5	130.7	123.9	113.9	103.2	92.60	82.66	74.74	70.02	58.37	48.45	40.66	34.86	30.75	26.74	22.65	19.83	17.15	16.44	19.69	34.67	63.76	331.9	 1845	 3180	276.4	9.610	3.391	2.764	2.441	2.332	2.193	2.073	1.956	1.779	1.867	1.742	1.736	1.718	1.748
530.0	122.1	144.6	158.8	185.3	199.8	220.1	227.6	338.4	 1342	 1961	527.0	247.3	236.2	217.8	200.3	183.6	171.6	164.3	161.0	156.8	155.1	155.0	156.3	155.1	155.7	157.3	158.8	162.7	166.0	170.1	171.2	165.0	158.2	149.0	142.5	134.5	128.9	121.8	115.0	108.5	101.2	92.61	82.93	73.94	67.07	62.30	56.08	47.79	39.38	33.43	29.45	25.69	21.92	19.62	16.70	14.97	14.52	15.74	21.08	80.15	442.7	 1532	 2148	962.5	19.39	3.306	2.430	2.196	2.023	2.053	1.841	1.769	1.698	1.677	1.628	1.764	1.662
535.0	104.8	133.1	134.4	154.6	173.7	192.8	191.6	225.9	512.7	 1755	 1475	241.2	202.5	185.7	173.4	153.9	148.6	145.0	137.7	134.5	132.2	131.1	133.3	134.1	132.8	134.1	134.9	139.6	140.9	145.5	144.6	139.6	135.2	127.9	121.5	115.7	111.2	104.6	99.83	94.68	87.71	80.79	73.16	65.30	58.95	54.35	50.04	46.10	37.94	32.01	28.64	24.51	20.95	18.70	15.86	14.81	13.06	11.82	11.41	23.92	103.5	347.0	739.7	 2335	 1383	26.03	3.176	2.521	2.113	1.824	1.803	1.724	1.638	1.630	1.549	1.513	1.562
540.0	104.6	119.2	116.1	137.2	150.1	177.2	172.3	186.6	259.4	 1039	 2125	332.6	183.3	166.2	153.3	137.6	130.6	125.0	120.4	120.2	118.3	115.0	117.1	118.0	117.6	119.6	119.7	121.0	125.9	128.3	126.9	124.3	119.3	114.2	107.6	101.1	98.89	93.44	88.94	84.64	77.83	72.30	67.27	59.51	53.50	48.66	44.23	43.64	38.16	31.01	27.58	23.80	20.18	18.05	15.49	13.82	12.29	10.09	9.288	11.15	27.88	81.94	173.2	986.1	 2541	308.4	16.86	2.601	2.065	1.771	1.588	1.806	1.420	1.542	1.417	1.326	1.443
545.0	103.5	110.0	112.1	120.3	127.5	149.0	162.6	168.7	185.5	484.9	 1954	 1099	170.7	150.2	136.7	125.5	117.2	112.9	107.2	105.8	106.8	102.1	103.7	104.5	104.3	106.3	106.2	108.0	113.7	114.5	114.4	111.0	106.5	100.7	95.54	90.18	88.19	85.05	80.52	76.79	69.99	65.69	59.80	54.31	49.05	44.77	40.46	39.25	36.61	30.09	25.80	22.97	18.81	16.98	15.03	13.90	12.02	10.12	8.564	7.983	11.41	22.41	42.57	238.2	 1347	 2176	260.5	7.435	2.426	1.944	1.750	1.588	1.570	1.435	1.351	1.162	1.338
550.0	85.04	97.95	102.5	103.3	113.6	126.0	138.9	145.6	152.2	225.2	997.0	 1811	479.9	130.5	117.8	107.4	100.8	97.36	93.28	91.62	91.13	88.60	88.28	89.98	89.51	89.74	91.47	93.39	95.33	96.11	96.41	92.55	90.37	86.18	81.43	78.30	74.13	72.66	69.11	65.14	61.70	57.62	51.74	47.51	43.63	39.54	35.49	33.44	31.55	28.86	24.30	21.05	17.31	15.98	14.36	12.89	11.43	10.13	8.383	7.454	7.473	9.556	13.36	56.58	323.3	 1086	 1644	717.3	17.89	2.307	1.857	1.535	1.411	1.345	1.360	1.364	1.187
555.0	80.92	85.78	97.92	95.55	96.54	103.5	115.3	124.6	127.4	144.8	347.6	 1331	 1432	147.8	101.0	92.20	85.15	80.46	77.15	76.51	75.13	74.27	73.04	74.42	75.07	75.79	75.10	78.96	78.39	79.32	81.00	77.19	75.53	70.84	68.58	65.73	62.55	59.75	57.68	54.14	51.52	48.58	44.15	40.10	37.51	34.07	31.33	27.66	26.83	25.20	23.60	19.24	15.73	14.31	13.22	11.45	9.994	9.254	7.978	7.026	6.211	6.172	6.555	15.85	75.27	245.6	550.9	 1657	978.7	23.50	2.198	1.594	1.493	1.428	1.266	1.133	1.121
560.0	68.85	69.26	81.81	82.49	86.44	90.55	99.03	115.7	114.5	118.2	164.5	703.8	 1837	244.7	86.85	80.70	71.95	70.64	67.55	64.66	64.98	64.18	62.08	63.30	63.52	65.01	64.76	65.97	66.02	68.47	68.73	64.77	66.14	62.00	58.55	56.27	53.74	51.96	49.20	47.71	45.07	41.75	38.67	35.21	33.34	30.25	27.34	23.96	22.65	21.32	21.59	18.01	14.90	12.99	11.84	10.59	9.660	8.502	7.608	6.618	5.646	5.046	4.933	6.691	19.79	57.60	128.6	691.8	 1758	295.0	13.14	1.774	1.484	1.410	1.366	1.209	1.165
565.0	74.97	73.62	71.21	71.88	77.19	77.16	88.08	100.5	101.8	100.2	111.2	301.7	 1459	 1045	82.93	69.42	64.27	61.65	58.71	55.36	55.60	54.24	53.48	54.92	55.00	54.80	55.56	55.28	55.43	58.27	58.96	56.69	54.48	51.62	49.52	46.69	46.45	44.51	42.71	41.43	38.08	35.80	33.25	31.07	28.44	25.88	23.60	21.63	20.04	18.27	18.30	16.77	13.98	11.73	10.47	9.745	8.708	7.717	7.081	5.929	5.322	4.780	4.322	4.534	6.984	15.34	31.13	166.1	912.0	 1425	228.2	4.802	1.533	1.617	1.329	1.161	1.209
570.0	68.39	65.23	64.47	58.66	59.01	61.85	69.09	81.02	89.26	85.13	89.63	129.8	673.4	 1516	438.4	55.13	51.07	49.99	46.63	44.56	43.93	44.58	43.61	43.98	43.98	44.07	44.37	44.37	45.68	46.53	46.80	45.04	43.87	40.61	40.12	37.85	37.33	35.73	34.40	33.15	30.77	28.63	27.21	24.99	22.88	21.40	19.75	18.00	16.39	14.82	14.28	13.86	12.40	10.77	8.888	8.086	7.519	6.887	6.064	5.112	4.589	4.441	3.933	3.634	4.167	5.693	9.051	39.10	218.3	693.8	 1017	416.9	15.00	1.632	1.155	1.195	1.099
575.0	60.93	56.75	54.65	49.92	49.38	49.45	55.53	61.67	75.67	76.88	71.71	82.76	215.1	935.4	 1296	92.46	40.99	38.87	36.16	35.56	34.27	33.66	33.38	34.11	34.42	32.90	33.57	34.34	35.82	36.87	36.40	34.12	33.63	31.72	30.86	29.71	29.47	27.85	26.22	25.25	24.13	22.82	20.79	18.78	18.45	17.32	15.75	14.45	12.94	11.54	10.73	10.68	10.10	9.450	7.859	6.788	6.440	5.898	5.268	4.607	3.890	3.925	3.830	3.286	2.911	3.142	4.065	10.58	50.25	156.8	334.4	927.0	308.6	18.45	1.377	1.165	1.069
580.0	60.84	55.53	53.22	47.09	44.16	43.21	46.99	53.32	63.79	72.84	68.47	69.14	93.99	448.8	 1492	409.9	34.18	33.73	30.01	29.80	29.20	27.99	27.43	28.73	27.74	27.92	27.75	27.87	28.78	29.40	29.93	29.63	27.90	26.09	26.02	24.68	24.44	22.65	21.25	21.22	18.87	19.14	17.32	16.62	14.85	14.10	13.34	12.37	11.39	9.974	9.262	8.703	8.338	8.386	7.266	6.355	5.586	5.272	4.380	3.955	3.938	3.757	3.421	2.869	2.756	2.424	2.603	3.971	12.79	36.49	78.00	383.7	908.1	249.8	7.806	1.221	1.131
585.0	58.78	53.74	48.21	40.03	39.12	41.87	41.75	45.63	52.11	65.70	64.70	61.48	59.78	177.9	 1037	 1017	37.74	28.65	26.09	24.98	23.26	23.81	22.98	23.59	23.85	24.02	23.75	23.93	23.96	24.56	24.37	25.04	23.42	22.13	21.42	20.72	19.60	19.10	17.99	17.47	16.84	15.47	14.64	13.70	12.42	11.67	11.14	10.54	9.495	8.296	7.668	7.509	6.887	7.423	6.808	5.788	4.936	4.627	4.343	3.818	3.476	3.432	3.079	2.759	2.420	2.250	2.204	2.519	4.571	9.608	18.95	92.20	485.9	783.4	41.68	3.186	1.082
590.0	54.22	50.41	42.83	37.51	32.07	34.24	35.18	37.79	44.47	56.06	62.68	54.48	51.75	71.99	428.7	 1240	370.3	23.75	20.85	21.10	19.15	19.08	18.57	19.31	19.18	19.03	18.97	19.49	19.14	20.24	19.90	19.80	18.95	17.98	16.98	16.50	15.58	15.29	14.31	13.96	13.30	12.77	11.85	10.87	10.18	9.813	9.242	8.677	7.578	7.028	6.354	6.204	5.402	5.670	5.829	5.220	4.593	4.011	3.646	3.407	3.051	2.783	2.654	2.485	2.285	2.160	2.050	2.081	2.440	3.491	5.519	21.83	116.5	371.2	516.1	176.2	13.15
595.0	49.93	47.30	40.02	33.46	28.09	28.89	30.10	32.99	38.87	46.90	61.55	55.12	45.33	45.84	126.3	650.0	 1100	59.74	17.62	17.02	16.17	15.65	15.40	15.99	15.50	15.75	15.16	15.39	15.48	15.94	15.34	16.18	15.07	14.37	13.75	13.41	12.86	12.07	11.39	10.94	10.55	9.437	9.067	8.719	8.559	8.254	7.292	6.649	6.287	5.669	5.343	5.211	4.406	4.680	4.456	4.572	4.308	3.627	3.121	3.110	2.663	2.517	2.290	2.282	2.109	2.104	1.989	1.817	1.856	2.104	2.424	5.942	27.08	84.07	170.5	490.2	271.9
600.0	46.16	45.35	43.62	31.84	25.06	27.07	29.36	31.48	33.96	39.07	53.38	55.69	43.62	38.57	49.15	281.3	 1210	344.2	16.89	14.67	14.04	13.77	13.17	12.53	12.87	13.49	13.09	13.00	13.42	14.12	13.54	14.50	12.56	13.56	11.86	11.87	11.82	10.43	9.858	9.528	9.057	8.204	7.793	7.716	7.106	6.642	6.157	5.837	5.532	4.965	4.670	4.289	3.936	3.828	3.650	3.966	3.791	3.484	2.953	2.785	2.483	2.176	2.163	2.024	1.835	1.860	1.885	1.682	1.608	1.675	1.667	2.410	6.998	19.78	40.00	203.0	522.9
605.0	48.77	44.75	37.36	27.78	23.40	25.36	26.91	29.21	33.01	37.22	49.14	55.57	44.49	34.44	31.61	99.97	773.9	855.3	21.43	12.58	11.94	11.64	12.13	11.33	11.46	11.23	10.97	11.70	12.37	12.57	12.46	12.30	11.46	12.03	11.21	10.93	10.77	9.350	8.807	8.245	7.523	6.876	6.847	6.423	5.856	5.754	5.179	4.966	4.641	4.174	4.020	3.703	3.500	3.359	3.387	3.572	3.579	3.072	2.781	2.382	2.195	2.169	1.984	2.030	1.749	1.789	1.676	1.638	1.423	1.511	1.300	1.633	2.473	5.281	9.733	49.21	266.1
610.0	45.91	43.80	33.02	26.18	22.07	22.38	23.47	26.79	30.08	34.64	42.06	50.62	44.97	33.48	25.87	37.23	296.7	 1018	322.1	12.23	10.42	9.987	9.715	9.576	9.445	9.616	9.668	9.809	10.05	10.69	10.46	11.04	10.86	10.92	10.48	10.48	9.620	8.296	7.573	7.041	6.383	5.853	5.447	5.428	4.842	4.880	4.464	4.264	3.900	3.571	3.536	3.163	2.991	2.935	2.862	2.926	2.986	2.947	2.466	2.166	1.916	1.890	1.769	1.776	1.676	1.643	1.525	1.641	1.480	1.377	1.136	1.279	1.504	2.045	3.012	11.82	63.89
615.0	43.22	42.17	33.67	23.49	21.79	23.15	21.84	21.68	26.57	31.07	37.35	45.27	45.98	32.46	23.65	21.47	80.70	495.1	944.9	50.55	8.926	8.375	7.751	7.804	7.692	7.781	8.028	7.833	8.331	8.712	8.946	9.380	8.837	9.175	8.915	8.942	7.804	6.953	6.258	5.868	5.170	4.658	4.757	4.292	3.792	4.137	3.909	3.553	3.240	2.906	2.840	2.590	2.490	2.451	2.309	2.309	2.527	2.338	2.332	1.882	1.891	1.770	1.572	1.731	1.478	1.700	1.455	1.417	1.328	1.242	1.059	1.133	1.219	1.180	1.422	3.422	14.89
620.0	42.06	40.70	32.87	24.93	19.11	20.33	18.31	21.80	25.12	28.90	35.20	40.74	46.99	33.32	23.87	16.53	27.11	195.2	 1017	317.6	8.241	7.435	6.930	7.151	7.011	6.791	6.520	6.881	6.827	7.278	7.582	7.833	7.514	7.750	7.053	6.884	6.411	5.729	5.316	5.016	4.602	3.946	3.900	3.768	3.385	3.507	3.167	2.777	2.844	2.579	2.266	2.314	2.012	2.042	1.993	2.007	1.901	1.898	2.150	2.029	1.782	1.370	1.455	1.447	1.307	1.506	1.286	1.260	1.284	1.301	1.076	1.048	1.057	0.994	1.077	1.378	4.008
625.0	45.69	39.45	28.25	22.06	17.92	21.15	18.98	20.52	24.66	27.84	34.51	40.88	43.98	35.00	24.60	16.88	14.50	63.81	624.6	782.5	14.39	6.799	6.484	6.141	6.469	6.185	5.987	5.974	5.871	6.432	6.531	6.617	6.103	6.373	6.165	5.886	5.707	4.902	4.491	4.070	4.019	3.711	3.549	3.308	3.042	2.975	2.591	2.519	2.366	2.350	1.969	2.104	1.974	1.813	1.824	1.755	1.626	1.647	1.729	1.839	1.653	1.451	1.369	1.290	1.232	1.029	1.132	1.258	1.303	1.215	1.260	0.978	1.040	0.996	0.979	0.969	1.521
630.0	40.39	36.56	29.87	24.29	18.02	16.65	16.75	20.34	22.85	27.87	33.30	37.93	40.85	38.94	25.85	16.05	11.78	21.28	223.1	884.7	277.9	7.037	5.620	5.444	5.581	5.059	4.961	4.938	5.168	5.454	5.388	5.386	5.240	5.177	5.251	4.740	4.696	4.209	3.599	3.673	3.082	3.214	2.753	2.738	2.607	2.499	2.207	2.156	2.007	1.952	1.723	1.694	1.754	1.566	1.512	1.557	1.387	1.586	1.432	1.562	1.381	1.387	1.284	1.192	1.100	1.152	1.028	1.094	1.108	1.103	1.117	1.015	0.882	0.881	0.894	0.857	1.133
635.0	46.62	39.12	30.65	25.02	19.87	17.43	15.60	20.05	23.24	25.65	34.13	38.02	37.20	37.41	30.19	16.28	11.16	11.20	57.65	399.2	816.0	38.48	5.316	4.733	4.772	4.737	4.602	4.306	4.367	4.353	4.625	4.605	4.350	4.641	4.255	4.086	3.686	3.237	3.160	2.971	2.531	2.538	2.314	2.290	2.219	2.008	1.784	1.859	1.813	1.573	1.400	1.497	1.564	1.312	1.402	1.268	1.356	1.429	1.229	1.300	1.359	1.304	1.203	0.976	1.157	0.968	1.118	1.084	1.288	1.016	1.108	1.082	0.994	0.809	0.840	0.877	1.020
640.0	38.64	42.47	31.50	25.27	18.24	17.93	14.23	17.99	20.70	26.73	31.98	36.89	35.28	33.51	31.94	17.48	11.55	10.04	18.45	144.0	892.1	259.1	5.733	4.282	4.566	4.208	4.013	3.872	4.011	3.680	4.103	4.401	3.957	4.054	4.186	3.931	3.506	2.991	2.605	2.603	2.210	2.433	2.257	2.134	1.937	1.944	1.662	1.647	1.493	1.293	1.331	1.348	1.292	1.235	1.369	1.111	1.192	1.306	1.229	1.171	1.205	1.260	1.217	1.028	1.087	1.041	1.039	0.977	1.077	1.049	0.930	0.952	0.865	0.860	0.798	0.740	0.844
645.0	45.75	41.72	31.54	20.98	16.21	17.65	12.66	17.26	22.23	26.84	32.92	36.13	34.63	30.71	33.13	19.09	12.12	8.338	10.08	44.93	536.2	669.9	10.71	4.138	3.857	3.842	3.640	3.712	3.821	3.730	3.648	3.555	3.369	3.596	3.587	3.447	3.217	2.600	2.286	2.267	2.042	2.075	2.111	1.849	1.919	1.687	1.503	1.513	1.218	1.132	1.095	1.220	1.281	1.200	1.353	1.141	1.123	1.137	1.072	1.052	1.152	1.145	1.127	1.069	1.107	1.050	1.052	0.964	1.056	0.944	0.914	0.880	0.986	0.894	0.803	0.796	0.836
650.0	49.96	40.68	33.75	21.28	16.97	16.34	16.16	16.20	21.15	25.78	29.91	34.01	34.86	31.59	29.10	21.54	13.35	8.752	8.154	15.24	217.8	892.5	70.94	4.276	3.709	3.603	3.277	3.150	3.596	3.241	3.208	3.162	2.953	3.306	3.193	2.948	2.831	2.558	2.118	2.000	1.907	1.726	1.801	1.679	1.554	1.549	1.409	1.484	1.193	1.180	1.135	1.103	1.205	1.091	1.123	1.104	1.094	0.976	0.917	0.926	0.952	0.986	1.068	1.063	1.064	0.988	0.786	0.966	1.012	0.974	0.864	0.856	0.880	0.886	0.849	0.798	0.844
