Sample:	'1
File name:	T2025041711 颜家村东南桥.FD3
Run date:	'11:07:07, 04/21/2025
Operator:	Administrator
Comment:	'

Instrument
Model:	F-2700 FL Spectrophotometer
Serial number:	23B8-004
ROM Version:	4J14000 07

Instrument parameters
Measurement type:	3-D scan
Data mode:	Fluorescence
EX  Start WL:	220.0 nm
EX  End WL:	600.0 nm
EX Sampling interval:	5.0 nm
EM  Start WL:	230.0 nm
EM  End WL:	650.0 nm
EM Sampling interval:	5.0 nm
Scan speed:	12000 nm/min
EX Slit:	5.0 nm
EM Slit:	5.0 nm
PMT Voltage:	700 V
Response:	Auto 
Corrected spectra:	Off
Contour interval:	50.000

Peak integration
Integration method:	Rectangular
Sensitivity:	1
Threshold:	1.000

Peaks
No.	ApexEX/EM(nm)	Height(Data)
1	225.0/635.0	34.09
2	230.0/345.0	839.2
3	230.0/500.0	294.4
4	230.0/570.0	51.35
5	235.0/510.0	250.1
6	240.0/265.0	359.5
7	240.0/405.0	612.3
8	240.0/525.0	218.7
9	245.0/270.0	358.5
10	245.0/535.0	188.8
11	250.0/275.0	435.1
12	250.0/545.0	151.8
13	255.0/280.0	560.8
14	255.0/560.0	130.7
15	260.0/285.0	554.7
16	260.0/570.0	104.5
17	265.0/290.0	582.2
18	265.0/585.0	100.7
19	270.0/300.0	854.7
20	270.0/595.0	85.06
21	275.0/305.0	999.6
22	275.0/335.0	583.6
23	275.0/610.0	76.68
24	280.0/310.0	866.4
25	280.0/340.0	583.6
26	280.0/625.0	62.11
27	285.0/315.0	796.1
28	285.0/635.0	45.88
29	290.0/325.0	703.0
30	295.0/330.0	547.5
31	300.0/335.0	502.1
32	305.0/345.0	435.5
33	310.0/350.0	369.5
34	315.0/355.0	348.6
35	320.0/360.0	334.2
36	325.0/370.0	311.4
37	330.0/375.0	305.1
38	335.0/380.0	303.4
39	340.0/390.0	276.4
40	345.0/395.0	261.6
41	350.0/400.0	262.5
42	360.0/415.0	221.2
43	365.0/420.0	216.1
44	415.0/485.0	45.32
45	430.0/505.0	28.17
46	440.0/515.0	20.47
47	445.0/525.0	17.05
48	495.0/270.0	1.927
49	505.0/275.0	2.991
50	510.0/280.0	3.236
51	520.0/285.0	3.603
52	530.0/290.0	3.330
53	540.0/295.0	4.780
54	545.0/300.0	5.032
55	550.0/305.0	4.861
56	560.0/310.0	4.553
57	570.0/315.0	4.645
58	585.0/325.0	4.285

Data points
	220.0	225.0	230.0	235.0	240.0	245.0	250.0	255.0	260.0	265.0	270.0	275.0	280.0	285.0	290.0	295.0	300.0	305.0	310.0	315.0	320.0	325.0	330.0	335.0	340.0	345.0	350.0	355.0	360.0	365.0	370.0	375.0	380.0	385.0	390.0	395.0	400.0	405.0	410.0	415.0	420.0	425.0	430.0	435.0	440.0	445.0	450.0	455.0	460.0	465.0	470.0	475.0	480.0	485.0	490.0	495.0	500.0	505.0	510.0	515.0	520.0	525.0	530.0	535.0	540.0	545.0	550.0	555.0	560.0	565.0	570.0	575.0	580.0	585.0	590.0	595.0	600.0
230.0	43.87	536.9	1691	648.9	35.46	5.427	4.241	3.888	3.222	2.871	2.662	2.192	1.985	1.899	1.534	1.423	1.045	1.033	0.768	0.858	0.736	0.726	0.609	0.580	0.580	0.521	0.495	0.457	0.466	0.439	0.432	0.391	0.403	0.418	0.346	0.341	0.375	0.324	0.319	0.326	0.319	0.468	0.436	0.373	0.288	0.291	0.647	3.039	7.716	5.055	2.059	0.529	0.264	0.205	0.215	0.200	0.231	0.267	0.221	0.225	0.218	0.228	0.230	0.260	0.249	0.192	0.212	0.215	0.206	0.219	0.216	0.217	0.221	0.213	0.209	0.213	0.206
235.0	100.9	169.5	949.3	1859	548.2	59.03	4.133	4.643	3.575	3.389	2.687	2.352	2.078	2.115	1.562	1.295	1.210	0.871	0.886	0.806	0.690	0.773	0.775	0.664	0.564	0.644	0.533	0.439	0.520	0.555	0.513	0.323	0.354	0.384	0.333	0.312	0.304	0.359	0.310	0.269	0.306	0.347	0.444	0.521	0.543	0.426	0.367	0.955	2.690	4.095	5.961	6.571	3.680	0.989	0.239	0.231	0.209	0.247	0.219	0.237	0.226	0.227	0.220	0.281	0.257	0.213	0.197	0.237	0.217	0.239	0.212	0.212	0.222	0.202	0.190	0.246	0.246
240.0	144.2	141.4	279.5	1411	2126	449.2	34.00	5.216	3.819	3.814	3.376	2.800	2.383	1.822	1.715	1.401	1.045	0.793	0.923	0.857	0.775	0.866	0.636	0.624	0.551	0.639	0.436	0.545	0.499	0.491	0.519	0.408	0.310	0.369	0.405	0.299	0.283	0.335	0.383	0.292	0.314	0.266	0.310	0.526	0.472	0.658	0.458	0.485	0.827	1.257	2.820	7.545	10.57	8.022	3.414	0.653	0.254	0.267	0.221	0.230	0.247	0.232	0.201	0.235	0.271	0.222	0.187	0.216	0.208	0.221	0.208	0.254	0.235	0.252	0.208	0.269	0.222
245.0	113.9	216.9	132.9	446.6	1943	2301	344.6	16.98	5.086	4.441	3.548	3.415	2.602	1.922	1.568	1.660	1.160	1.020	0.914	0.810	0.827	0.839	0.620	0.631	0.551	0.645	0.437	0.580	0.508	0.601	0.581	0.396	0.498	0.389	0.369	0.305	0.283	0.382	0.359	0.340	0.344	0.261	0.248	0.338	0.394	0.636	0.749	0.802	0.521	0.509	0.824	2.332	6.241	11.22	13.21	7.366	2.559	0.403	0.289	0.272	0.249	0.198	0.228	0.274	0.193	0.258	0.215	0.201	0.215	0.219	0.212	0.211	0.240	0.217	0.213	0.227	0.192
250.0	48.11	140.3	238.9	214.6	580.8	1843	2748	1145	82.00	5.773	4.399	3.634	3.162	2.417	1.906	1.668	1.315	1.252	1.150	0.868	0.809	0.810	0.654	0.730	0.704	0.650	0.620	0.608	0.532	0.508	0.479	0.439	0.458	0.410	0.398	0.357	0.350	0.352	0.356	0.340	0.352	0.325	0.324	0.329	0.308	0.346	0.484	0.787	0.940	0.901	0.659	0.827	1.671	3.444	6.848	10.37	14.38	13.55	8.249	2.751	0.447	0.280	0.233	0.253	0.218	0.219	0.247	0.220	0.228	0.215	0.215	0.301	0.282	0.207	0.217	0.214	0.231
255.0	28.90	52.61	142.1	317.8	244.6	460.6	1669	3941	1667	98.01	5.964	4.701	3.629	2.857	2.418	1.874	1.490	1.149	1.220	0.913	0.935	0.819	0.668	0.724	0.713	0.611	0.530	0.562	0.583	0.537	0.562	0.480	0.460	0.434	0.419	0.308	0.424	0.320	0.310	0.323	0.369	0.369	0.350	0.333	0.376	0.344	0.326	0.426	0.466	0.808	1.232	1.414	1.006	0.990	1.760	2.676	4.845	10.59	20.62	24.98	13.58	3.330	0.456	0.244	0.342	0.239	0.217	0.275	0.206	0.224	0.255	0.218	0.263	0.201	0.227	0.249	0.266
260.0	33.02	27.34	54.46	239.5	341.5	175.0	472.2	2596	4749	1339	48.40	7.791	4.944	3.055	2.517	2.256	1.620	1.326	1.331	1.027	0.878	0.902	0.762	0.700	0.652	0.649	0.516	0.530	0.555	0.551	0.546	0.613	0.536	0.389	0.392	0.392	0.369	0.334	0.283	0.315	0.354	0.352	0.310	0.351	0.352	0.284	0.314	0.356	0.335	0.420	0.692	1.524	1.820	1.247	0.777	0.855	1.419	2.890	7.722	19.08	28.45	25.04	11.40	1.783	0.360	0.328	0.304	0.241	0.233	0.227	0.291	0.225	0.238	0.202	0.259	0.216	0.274
265.0	32.72	23.13	27.70	103.1	359.5	280.6	146.8	778.4	3791	5121	228.4	20.24	6.067	3.829	3.220	2.489	2.030	1.593	1.641	1.129	0.961	0.989	0.843	0.912	0.665	0.623	0.658	0.606	0.641	0.515	0.578	0.537	0.507	0.412	0.461	0.415	0.422	0.391	0.402	0.317	0.363	0.320	0.328	0.354	0.356	0.311	0.281	0.331	0.350	0.277	0.366	0.753	1.517	1.981	1.594	0.719	0.575	0.954	2.067	5.374	12.68	27.61	32.55	22.32	7.366	0.737	0.307	0.268	0.316	0.269	0.254	0.221	0.260	0.294	0.273	0.282	0.261
270.0	47.34	35.73	37.10	44.62	148.2	358.5	301.8	233.8	1086	3599	5365	2166	63.25	6.550	4.320	3.279	2.342	1.987	1.662	1.302	1.036	1.155	0.957	0.837	0.787	0.724	0.652	0.610	0.653	0.613	0.656	0.572	0.535	0.505	0.461	0.506	0.478	0.443	0.396	0.350	0.358	0.402	0.325	0.380	0.390	0.385	0.350	0.330	0.344	0.290	0.277	0.404	0.622	0.973	1.653	1.927	1.870	1.126	0.904	1.525	3.166	7.501	13.89	23.19	27.44	29.37	15.55	6.239	0.902	0.287	0.342	0.263	0.285	0.314	0.292	0.282	0.303
275.0	77.48	83.52	85.56	47.44	56.44	145.8	435.1	345.6	298.1	869.0	2727	7578	1256	69.50	6.578	4.700	3.121	2.363	1.855	1.677	1.180	1.176	1.219	0.949	0.887	0.722	0.719	0.726	0.694	0.731	0.584	0.593	0.584	0.541	0.487	0.490	0.463	0.381	0.435	0.388	0.404	0.427	0.385	0.375	0.446	0.434	0.466	0.519	0.491	0.390	0.346	0.392	0.375	0.512	0.666	0.923	1.741	2.991	2.600	1.196	1.066	2.085	3.453	5.658	7.679	16.66	33.35	46.13	23.98	7.001	0.636	0.378	0.307	0.313	0.291	0.288	0.382
280.0	115.4	129.8	139.5	80.51	46.33	62.03	241.8	560.8	272.5	253.9	741.0	4248	7694	941.9	31.88	5.621	3.801	2.830	2.281	1.648	1.643	1.416	1.098	0.964	0.849	0.873	0.719	0.767	0.625	0.652	0.610	0.537	0.529	0.591	0.550	0.600	0.537	0.500	0.438	0.395	0.513	0.392	0.519	0.423	0.469	0.564	0.587	0.543	0.621	0.456	0.392	0.414	0.361	0.332	0.434	0.522	0.766	1.746	3.236	3.146	1.671	0.958	1.224	1.672	2.168	4.290	10.70	26.66	43.88	32.90	19.32	3.738	0.468	0.364	0.337	0.295	0.486
285.0	173.3	205.1	199.2	105.5	56.81	45.79	108.7	401.4	554.7	197.6	249.3	1209	5564	6871	615.1	13.06	5.846	3.568	2.770	2.022	1.723	1.449	1.132	0.947	0.993	1.009	0.791	0.770	0.723	0.692	0.801	0.685	0.695	0.650	0.693	0.690	0.536	0.502	0.510	0.472	0.484	0.530	0.585	0.540	0.556	0.758	0.779	0.807	0.835	0.633	0.567	0.487	0.451	0.360	0.376	0.439	0.507	0.809	1.535	2.833	3.603	2.402	1.183	0.915	1.092	1.532	3.017	6.962	15.97	32.00	50.29	30.78	12.68	1.496	0.344	0.311	0.363
290.0	220.0	285.3	269.6	158.6	83.71	65.28	81.18	181.4	461.5	582.2	233.7	415.6	1544	4443	5784	1880	34.54	5.243	3.506	2.677	2.044	1.596	1.287	1.103	1.020	1.076	0.872	0.917	0.713	0.725	0.759	0.653	0.704	0.743	0.690	0.772	0.695	0.629	0.566	0.560	0.532	0.495	0.677	0.588	0.748	0.806	0.887	0.977	0.986	0.799	0.664	0.602	0.627	0.454	0.483	0.459	0.564	0.588	0.815	1.232	2.097	3.063	3.330	2.766	1.829	1.410	1.499	2.324	4.411	8.355	17.11	28.33	35.32	34.38	19.97	9.545	1.676
295.0	265.9	337.8	336.6	215.7	116.7	88.29	103.6	135.8	239.6	554.9	745.0	375.0	535.7	1129	2616	6889	709.2	34.45	5.236	3.336	2.553	2.022	1.449	1.258	1.136	1.262	1.095	0.892	0.804	0.773	0.821	0.654	0.757	0.772	0.731	0.800	0.723	0.722	0.646	0.649	0.544	0.582	0.685	0.731	0.837	0.888	1.004	1.173	1.083	0.981	0.788	0.744	0.693	0.634	0.631	0.557	0.732	0.759	0.705	0.926	1.111	1.399	1.875	3.535	4.780	3.460	1.782	1.686	2.024	2.967	4.793	7.106	8.982	14.69	30.23	48.80	30.81
300.0	288.9	387.0	382.8	243.9	142.7	118.7	129.7	154.0	211.4	382.1	854.7	674.8	384.1	417.2	734.8	3782	5762	549.6	16.47	4.591	2.926	2.373	1.973	1.547	1.217	1.328	1.143	1.048	0.811	0.897	0.858	0.672	0.738	0.790	0.801	0.862	0.843	0.747	0.774	0.641	0.608	0.687	0.686	0.744	0.944	1.027	1.033	1.229	1.191	0.980	0.768	0.853	0.794	0.772	0.763	0.650	0.787	0.780	0.931	1.011	1.168	1.280	1.403	2.031	3.559	5.032	4.306	2.563	2.070	1.929	2.289	2.545	2.738	4.010	8.729	22.87	41.48
305.0	324.5	413.8	401.6	267.9	174.6	147.3	166.5	198.8	246.0	348.1	637.3	999.6	544.1	315.2	301.8	1056	4492	4852	77.04	7.587	3.845	2.964	2.248	1.885	1.304	1.415	1.045	0.990	1.053	0.876	0.709	0.816	0.779	0.694	0.868	0.826	0.896	0.829	0.775	0.779	0.705	0.690	0.745	0.765	1.000	1.102	1.024	1.176	1.285	1.043	0.976	0.946	0.750	0.892	0.827	0.776	0.858	0.977	1.085	1.184	1.481	1.340	1.716	1.993	2.376	3.400	4.861	4.436	3.458	2.291	1.841	1.727	1.540	1.780	2.632	5.989	13.12
310.0	345.4	410.9	412.1	287.3	197.9	172.8	197.7	231.7	284.9	365.3	499.9	764.1	866.4	476.5	247.8	338.8	1235	3578	4184	1255	21.46	4.138	2.864	2.235	1.790	1.572	1.249	1.098	1.034	0.941	0.869	0.812	0.852	0.838	0.930	0.921	0.898	0.797	0.786	0.814	0.700	0.675	0.755	0.830	0.998	1.063	1.125	1.329	1.310	1.079	1.032	1.042	0.909	0.899	0.966	0.757	0.953	1.030	1.148	1.289	1.548	1.524	1.731	1.965	2.060	2.543	3.204	3.662	4.553	4.533	3.395	2.224	1.574	1.522	1.515	2.057	3.613
315.0	356.2	435.1	418.1	302.4	217.2	200.2	223.8	260.0	315.9	386.6	483.7	580.9	706.5	796.1	364.4	210.7	362.4	870.5	2181	5185	496.9	19.76	4.073	2.734	2.086	1.832	1.456	1.249	1.123	0.964	0.968	0.799	0.865	0.774	0.885	0.928	0.880	0.816	0.745	0.841	0.765	0.771	0.749	0.805	0.931	1.094	1.091	1.392	1.357	1.168	1.037	1.066	0.962	0.982	0.902	0.924	1.163	1.024	1.338	1.401	1.623	1.599	1.831	1.966	2.197	2.494	2.782	2.709	2.977	3.657	4.645	4.606	2.827	1.760	1.309	1.562	1.636
320.0	397.9	487.7	487.1	339.1	233.2	223.5	242.0	275.8	333.8	410.7	497.6	544.4	585.5	737.9	605.3	237.7	193.7	269.9	584.3	3200	4066	384.1	8.851	3.460	2.385	1.982	1.599	1.339	1.167	0.998	1.109	0.881	0.991	0.772	0.910	0.927	0.839	0.822	0.842	0.820	0.756	0.754	0.843	0.934	1.108	1.297	1.233	1.530	1.511	1.324	1.019	1.172	1.070	1.069	0.939	1.120	1.229	1.265	1.371	1.406	1.588	1.791	1.701	2.203	2.274	2.386	2.680	2.619	2.607	2.952	3.413	4.330	4.251	3.291	1.786	1.446	1.364
325.0	423.0	567.0	559.9	406.7	266.9	242.6	260.1	287.2	347.9	427.4	503.0	564.2	557.7	574.8	703.0	396.2	185.8	149.2	187.2	899.9	3730	3436	56.77	5.507	3.241	2.523	1.798	1.461	1.366	1.255	1.104	0.858	0.830	0.937	0.845	0.959	0.856	0.850	0.806	0.746	0.773	0.771	0.826	0.912	1.066	1.356	1.376	1.658	1.881	1.558	1.236	1.347	1.089	1.074	1.057	1.134	1.178	1.296	1.377	1.516	1.681	1.975	1.875	2.175	2.235	2.446	2.695	2.503	2.752	2.912	2.729	3.144	3.816	4.285	3.428	2.169	1.639
330.0	449.5	647.0	698.8	526.5	334.0	268.5	281.1	308.7	360.9	436.0	514.8	578.2	573.3	521.5	534.2	547.5	329.5	158.4	117.6	254.1	1051	2880	3198	858.9	15.62	3.380	2.233	1.808	1.622	1.219	1.122	0.999	1.035	0.881	0.828	0.849	0.921	0.829	0.761	0.796	0.745	0.727	0.878	0.920	1.151	1.412	1.595	1.865	2.028	1.941	1.569	1.564	1.439	1.218	1.201	1.212	1.279	1.358	1.503	1.544	1.715	1.904	1.872	2.332	2.318	2.571	2.527	2.656	2.824	2.793	2.694	2.758	2.778	3.078	3.177	3.554	3.092
335.0	484.3	696.6	787.9	624.2	410.6	312.9	304.1	330.9	373.3	447.4	527.4	583.6	583.0	533.8	473.7	439.2	502.1	280.6	133.5	129.9	283.4	693.7	1975	3725	393.9	14.18	3.133	2.346	1.820	1.621	1.317	0.970	1.098	0.851	0.914	0.815	0.835	0.858	0.792	0.855	0.670	0.775	0.919	0.969	1.205	1.463	1.738	2.164	2.426	2.010	1.867	1.747	1.601	1.582	1.446	1.328	1.496	1.417	1.579	1.680	1.635	1.885	2.059	2.322	2.425	2.418	2.712	2.820	2.863	2.693	2.928	2.643	2.632	2.627	2.406	2.673	3.180
340.0	471.6	701.4	836.3	681.4	445.2	340.9	316.8	339.8	384.8	449.3	532.3	582.9	583.6	544.6	470.1	388.9	431.5	426.4	188.5	119.7	123.7	197.5	531.9	2784	3266	305.8	5.972	2.803	2.007	1.652	1.307	1.086	1.028	0.982	0.982	0.801	0.801	0.871	0.796	0.887	0.740	0.946	0.847	0.956	1.236	1.492	1.694	2.146	2.427	2.348	2.064	1.876	1.789	1.605	1.515	1.354	1.477	1.455	1.815	1.819	1.929	1.953	2.113	2.341	2.358	2.501	2.678	2.658	2.671	2.827	2.857	2.827	2.609	2.607	2.416	2.311	2.455
345.0	474.4	701.4	839.2	701.8	488.0	369.3	337.4	353.9	390.6	453.3	521.9	564.6	580.7	544.7	473.7	385.5	350.2	435.5	309.2	141.6	100.5	98.45	156.6	819.7	3348	2714	47.02	4.554	2.674	2.146	1.550	1.297	1.052	0.997	1.005	0.886	0.868	0.776	0.745	0.840	0.773	0.807	0.878	0.939	1.264	1.359	1.598	2.190	2.343	2.193	2.075	1.931	1.997	1.679	1.599	1.447	1.610	1.508	1.778	1.852	1.879	1.899	2.044	2.316	2.429	2.445	2.598	2.616	2.685	2.833	2.820	2.848	2.684	2.690	2.531	2.301	2.369
350.0	466.2	674.2	795.4	698.9	521.5	402.9	363.3	363.9	397.4	450.1	506.4	549.5	555.8	525.1	472.2	391.6	333.0	330.8	369.5	263.4	131.7	96.23	89.05	222.0	980.6	2430	2518	213.1	12.65	2.599	1.876	1.524	1.144	0.999	0.998	0.921	0.858	0.749	0.831	0.755	0.736	0.849	0.848	0.953	1.140	1.388	1.576	2.155	2.106	2.075	1.985	2.177	2.002	1.826	1.714	1.526	1.589	1.651	1.701	1.884	1.857	1.873	2.151	2.272	2.301	2.392	2.476	2.626	2.722	2.754	2.729	2.731	2.704	2.692	2.369	2.393	2.528
355.0	430.5	629.0	738.5	695.4	531.2	437.0	391.4	391.1	416.9	450.4	499.8	529.4	540.6	520.9	473.6	400.4	344.6	304.6	294.4	348.6	239.0	125.1	95.18	103.7	257.4	588.9	1719	3058	342.4	11.46	2.782	1.993	1.616	1.113	1.095	1.101	0.836	0.862	0.732	0.750	0.707	0.792	0.796	1.117	1.016	1.465	1.540	2.181	2.053	1.931	1.930	2.221	1.976	1.937	1.776	1.656	1.719	1.751	1.812	1.808	1.962	2.016	1.991	2.114	2.289	2.569	2.574	2.575	2.659	2.539	2.653	2.626	2.841	2.796	2.731	2.422	2.504
360.0	449.0	614.4	690.8	671.9	545.5	454.9	416.3	402.4	420.0	456.8	484.9	519.8	529.1	512.0	474.6	408.8	361.5	313.0	274.9	306.0	334.2	184.4	115.4	94.81	107.7	165.6	472.2	2382	2783	268.7	5.428	2.506	1.774	1.285	1.133	1.005	0.975	0.919	0.729	0.756	0.767	0.794	0.836	0.966	0.967	1.303	1.480	1.872	2.064	1.894	1.758	2.218	1.918	1.958	1.947	1.865	1.751	1.714	1.899	1.924	2.026	1.971	2.215	2.316	2.500	2.439	2.432	2.458	2.678	2.648	2.626	2.678	2.645	2.616	2.715	2.454	2.508
365.0	401.2	580.6	706.2	658.6	553.0	484.8	435.0	417.9	435.4	461.7	487.7	507.3	521.1	503.6	469.4	409.9	369.6	328.3	287.7	271.2	327.6	282.1	149.2	107.5	88.63	83.00	137.2	726.5	2879	2340	43.25	3.652	2.088	1.506	1.283	1.094	0.968	0.784	0.772	0.837	0.738	0.783	0.814	0.946	0.998	1.368	1.346	1.770	2.072	1.860	1.811	2.204	2.054	2.291	1.963	1.778	1.898	1.721	1.922	1.832	1.935	1.841	2.180	2.333	2.174	2.342	2.454	2.464	2.542	2.493	2.626	2.577	2.753	2.616	2.403	2.605	2.609
370.0	396.2	555.9	661.9	636.1	561.0	501.4	455.3	438.8	452.4	464.8	491.6	507.4	512.0	495.1	468.6	420.6	384.1	350.3	312.1	280.7	278.5	311.4	253.2	149.9	106.3	83.15	75.70	195.1	862.9	2233	2318	191.9	11.29	2.389	1.722	1.249	1.142	0.917	0.828	0.927	0.794	0.854	0.772	0.942	0.944	1.331	1.358	1.657	1.954	1.813	1.848	2.141	2.051	2.136	1.949	1.827	2.059	1.913	2.011	2.088	2.035	2.064	2.189	2.241	2.368	2.460	2.403	2.438	2.531	2.581	2.504	2.563	2.645	2.718	2.534	2.621	2.620
375.0	386.9	504.9	642.9	625.0	581.0	526.0	490.0	470.8	472.1	478.1	494.1	502.2	504.2	484.4	464.3	424.5	393.8	363.1	338.4	305.2	277.0	271.1	305.1	245.1	140.8	104.5	79.74	89.79	224.5	545.7	1725	2734	292.2	9.797	2.267	1.531	1.273	0.973	0.863	0.935	0.822	0.811	0.899	0.947	0.869	1.186	1.315	1.607	1.917	1.603	1.622	2.173	2.235	1.955	2.028	1.880	2.001	2.082	2.061	2.005	2.117	2.157	2.278	2.241	2.440	2.478	2.259	2.232	2.689	2.591	2.417	2.440	2.675	2.532	2.443	2.434	2.562
380.0	391.9	509.2	617.5	623.5	590.5	544.3	505.9	485.5	477.4	486.4	501.1	499.9	504.1	479.3	458.7	425.7	396.4	373.7	350.2	321.3	286.7	267.6	274.8	303.4	193.1	124.2	93.02	79.39	91.22	151.1	482.1	2188	2318	218.2	4.463	2.043	1.560	1.193	1.005	1.024	0.852	0.832	0.953	0.930	0.911	1.185	1.255	1.628	1.926	1.555	1.648	2.168	2.262	2.080	2.202	1.976	2.090	2.178	2.201	2.247	1.955	2.338	2.112	2.237	2.261	2.295	2.422	2.203	2.472	2.593	2.552	2.380	2.376	2.564	2.540	2.448	2.542
385.0	379.7	506.8	604.3	623.2	597.5	560.6	513.3	496.1	489.8	499.8	500.8	493.2	493.8	472.7	456.5	424.1	399.6	381.8	356.1	331.7	302.6	277.4	259.1	287.6	264.5	159.2	111.9	89.13	72.45	70.71	134.7	666.0	2355	1823	36.20	3.267	1.688	1.379	1.118	1.004	0.981	0.953	0.960	1.007	1.079	1.111	1.307	1.520	1.714	1.604	1.729	2.212	2.131	1.915	2.256	1.900	2.197	2.225	2.222	2.302	2.118	2.282	2.228	2.443	2.279	2.455	2.506	2.531	2.336	2.463	2.510	2.469	2.581	2.742	2.659	2.353	2.481
390.0	371.0	481.5	597.1	619.1	602.9	568.6	520.8	516.3	498.7	493.6	494.9	494.8	484.2	469.1	447.1	418.8	400.8	383.4	364.4	340.5	314.9	291.6	268.3	259.3	276.4	236.4	152.8	109.6	85.32	68.90	67.82	175.4	691.2	1666	1763	555.8	10.24	1.929	1.541	1.095	0.925	0.941	0.901	0.982	1.088	1.235	1.245	1.512	1.817	1.582	1.733	2.067	2.183	2.115	2.251	2.048	2.184	2.275	2.261	2.259	2.242	2.350	2.384	2.347	2.348	2.254	2.309	2.352	2.313	2.377	2.484	2.448	2.408	2.567	2.590	2.514	2.540
395.0	366.2	476.3	586.4	615.0	604.6	575.8	550.0	524.8	510.3	503.7	490.9	492.3	483.2	462.2	440.3	415.6	399.8	382.5	369.0	345.1	327.1	306.6	279.4	259.7	247.0	261.6	227.7	144.0	106.6	84.62	68.13	75.38	178.7	403.8	1204	2374	255.4	10.73	1.873	1.429	1.006	1.056	1.019	1.024	1.038	1.121	1.276	1.522	1.776	1.689	1.630	2.066	2.218	2.111	2.479	2.068	2.258	2.281	2.379	2.292	2.168	2.189	2.184	2.302	2.489	2.286	2.185	2.173	2.406	2.285	2.359	2.410	2.189	2.508	2.470	2.520	2.705
400.0	374.2	480.3	581.8	610.9	607.8	583.3	549.6	531.0	514.8	505.3	500.3	493.7	481.3	462.4	434.7	407.7	399.3	376.2	364.7	347.3	333.1	313.9	292.5	268.8	245.9	240.3	262.5	191.9	128.8	100.9	79.06	60.97	69.91	110.6	325.2	1776	1844	204.5	4.944	2.009	1.251	1.050	1.084	1.013	1.043	1.233	1.278	1.530	1.660	1.628	1.639	2.058	2.168	2.078	2.168	2.254	2.358	2.340	2.511	2.393	2.330	2.314	2.275	2.250	2.748	2.419	2.234	2.173	2.611	2.428	2.291	2.501	2.540	2.361	2.577	2.608	2.428
405.0	354.2	503.9	577.3	598.3	612.3	584.1	557.2	531.3	521.9	511.7	498.9	486.4	472.4	452.6	429.3	404.9	388.8	373.5	362.1	345.6	331.6	314.0	296.5	276.0	252.0	233.4	246.8	240.7	159.5	118.0	91.39	68.98	53.64	50.47	91.27	506.1	1685	1516	33.82	3.438	1.612	1.252	1.189	1.113	1.050	1.197	1.261	1.604	1.560	1.655	1.630	2.021	2.323	2.177	2.087	2.144	2.374	2.384	2.445	2.506	2.418	2.294	2.421	2.225	2.423	2.165	2.412	2.383	2.337	2.293	2.444	2.225	2.442	2.396	2.396	2.355	2.602
410.0	347.5	490.0	568.9	598.1	589.9	579.9	558.7	543.3	530.2	510.1	498.8	479.8	467.1	442.9	423.7	395.6	378.5	367.1	354.0	340.6	328.8	314.3	298.3	279.4	260.7	240.8	228.9	238.4	217.2	151.5	106.8	81.36	60.43	46.03	44.61	130.2	471.7	1230	1380	497.4	10.41	1.700	1.433	1.227	1.213	1.347	1.292	1.590	1.706	1.730	1.632	1.943	2.235	2.131	2.150	2.225	2.331	2.389	2.441	2.554	2.420	2.400	2.477	2.449	2.370	2.282	2.347	2.254	2.269	2.345	2.281	2.399	2.533	2.204	2.340	2.386	2.522
415.0	351.6	467.1	549.1	578.9	579.7	564.4	553.1	550.1	523.7	506.9	490.4	474.9	460.5	435.0	401.5	378.9	358.6	350.9	339.1	326.6	319.1	306.9	294.8	279.2	267.1	247.6	225.8	215.8	221.2	200.6	134.0	94.91	72.25	52.55	39.73	50.20	120.3	293.2	794.9	1943	242.3	11.76	1.743	1.387	1.292	1.249	1.331	1.736	1.550	1.667	1.613	2.063	2.071	2.197	2.194	2.358	2.334	2.458	2.516	2.602	2.443	2.322	2.279	2.496	2.424	2.157	2.275	2.280	2.332	2.439	2.279	2.267	2.314	2.276	2.231	2.428	2.356
420.0	349.3	448.3	541.1	558.2	568.4	571.8	546.3	541.4	527.8	516.5	488.5	466.2	444.1	423.8	392.5	361.7	346.1	337.5	327.0	316.1	304.7	298.8	290.7	278.8	262.9	249.1	227.4	209.6	204.0	216.1	166.4	107.7	79.38	59.61	44.36	36.61	45.32	77.63	205.8	1212	1470	205.7	6.063	1.648	1.455	1.333	1.292	1.520	1.589	1.530	1.547	1.978	2.227	2.204	2.159	2.100	2.305	2.184	2.503	2.400	2.316	2.439	2.312	2.350	2.308	2.143	2.150	2.169	2.231	2.250	2.215	2.071	2.275	2.303	2.058	2.212	2.291
425.0	338.7	443.7	527.7	556.8	568.1	553.6	541.5	533.0	524.8	513.9	481.1	463.8	437.4	412.3	381.1	350.0	332.3	320.2	315.7	308.1	296.0	290.7	281.6	272.8	259.4	248.3	228.0	213.0	196.8	200.0	195.5	128.4	87.04	65.39	49.45	37.89	30.77	31.86	56.84	328.9	1155	1316	33.76	3.152	1.593	1.376	1.346	1.564	1.723	1.485	1.545	1.888	2.324	2.087	2.138	2.147	2.367	2.408	2.333	2.452	2.325	2.398	2.435	2.337	2.316	2.195	2.089	2.130	2.099	2.223	2.172	2.119	2.354	2.145	2.281	2.194	2.169
430.0	373.4	426.7	508.6	538.6	551.8	547.1	535.0	532.6	520.5	508.0	486.4	459.6	429.0	402.1	366.6	338.6	316.5	303.6	299.4	291.3	285.0	278.8	273.0	268.0	258.1	244.2	228.5	213.5	198.4	186.3	184.5	163.0	110.0	75.83	57.14	43.85	32.95	26.26	26.38	83.63	306.3	889.5	1174	435.6	12.47	1.889	1.555	1.612	1.666	1.617	1.500	1.919	2.096	2.073	2.101	2.127	2.296	2.356	2.410	2.350	2.261	2.335	2.366	2.441	2.320	2.223	2.151	2.085	2.170	2.222	1.990	1.984	2.158	2.119	2.070	2.072	2.094
435.0	543.2	440.3	473.6	522.0	536.4	524.0	524.8	526.3	509.8	501.1	487.7	456.2	417.2	386.9	348.9	323.5	302.4	291.9	285.4	277.2	270.4	266.4	261.4	258.1	249.9	237.4	225.5	211.7	198.4	183.1	169.3	160.3	142.4	93.77	66.15	50.74	38.73	30.23	23.42	31.23	77.94	207.8	551.4	1415	243.5	16.80	1.907	1.799	1.782	1.600	1.506	1.774	1.994	2.153	2.223	2.142	2.219	2.453	2.230	2.388	2.303	2.364	2.260	2.210	2.320	2.161	2.225	2.138	2.029	2.070	2.072	2.063	1.955	2.105	1.961	1.857	2.002
440.0	691.7	489.5	469.4	505.5	530.7	521.2	519.0	512.1	504.1	494.0	477.0	449.6	407.5	377.4	335.3	306.9	292.7	282.0	272.4	264.7	260.4	254.7	251.0	248.7	241.2	232.4	220.5	212.6	199.2	185.1	164.0	150.1	146.2	116.0	74.76	57.16	43.57	33.10	25.72	22.72	29.20	54.82	137.1	759.6	1391	223.6	9.932	2.193	1.785	1.668	1.594	1.819	1.823	2.112	1.973	2.217	2.132	2.439	2.217	2.468	2.355	2.105	2.311	2.302	2.274	2.024	2.131	2.027	2.177	2.114	1.798	2.094	1.884	2.059	1.776	1.997	2.020
445.0	720.3	658.1	465.4	485.9	516.2	506.3	507.7	496.5	497.1	489.8	464.7	435.4	397.8	365.4	326.2	297.1	279.1	269.6	257.9	252.4	248.7	242.6	241.5	238.3	234.1	226.7	216.1	204.8	194.4	180.6	162.6	143.6	134.4	129.5	89.16	61.60	47.07	36.97	27.46	22.63	19.31	21.75	38.20	195.8	914.0	1343	168.3	5.853	2.008	1.761	1.624	1.851	2.061	2.081	1.925	2.155	2.291	2.404	2.259	2.268	2.266	2.278	2.192	2.271	2.352	2.155	2.084	2.058	2.072	1.956	1.796	2.019	1.954	1.965	1.817	2.039	1.966
450.0	489.4	1012	581.0	464.7	472.0	480.3	483.2	481.1	477.6	465.9	444.0	417.6	380.4	345.4	307.2	277.5	261.3	249.2	239.5	234.5	230.9	227.0	225.1	222.3	219.3	212.8	206.5	196.1	189.1	176.4	159.2	140.1	122.1	117.1	105.5	74.21	51.93	40.61	31.43	24.95	19.83	16.96	17.86	50.83	230.9	760.3	1067	470.4	12.67	2.032	1.661	1.864	2.022	1.980	1.929	1.948	2.177	2.283	2.178	2.156	2.077	2.284	2.063	2.368	2.255	2.095	1.941	2.089	1.980	1.902	1.815	1.790	1.808	1.689	1.920	1.814	1.821
455.0	288.8	965.1	1066	464.4	442.7	446.1	458.4	458.9	449.0	447.7	424.1	395.2	351.2	320.8	286.0	257.8	238.0	227.3	220.9	212.5	208.1	208.4	206.8	204.4	200.3	196.9	189.7	184.0	178.4	167.8	153.4	135.9	116.5	103.6	97.82	91.49	61.45	44.13	34.80	27.74	22.29	17.64	14.77	19.57	58.00	175.7	386.9	1134	681.9	16.97	1.913	1.970	1.989	1.905	1.779	1.795	2.038	2.026	2.133	2.066	1.959	2.158	2.137	2.135	2.138	1.856	1.810	1.965	1.717	1.871	1.648	1.752	1.692	1.690	1.653	1.800	1.709
460.0	242.7	652.1	1455	602.7	414.3	424.5	427.8	434.5	426.2	418.2	399.7	374.5	336.5	301.6	269.4	237.4	225.1	212.8	204.0	194.6	193.5	192.6	189.0	188.1	186.9	183.3	178.1	175.4	169.2	160.4	149.0	131.5	112.6	96.70	86.82	88.31	73.15	48.84	36.84	29.83	23.64	18.94	14.90	13.21	20.21	44.96	93.56	504.2	1290	184.0	11.68	2.102	2.008	1.834	1.763	1.608	1.963	1.853	1.874	2.063	2.045	2.024	2.119	1.922	1.927	1.728	1.735	1.906	1.781	1.827	1.549	1.644	1.501	1.701	1.600	1.580	1.563
465.0	221.7	406.3	1410	901.0	405.9	396.7	404.3	413.1	407.8	395.8	391.2	357.8	322.7	286.3	254.3	225.2	211.9	198.3	191.1	181.2	180.8	176.1	176.6	173.7	172.6	170.6	166.7	164.0	157.9	150.6	141.9	126.0	107.9	94.63	80.29	77.73	78.04	56.96	39.17	30.67	25.85	20.27	16.19	13.25	12.29	16.46	26.35	124.0	723.2	1115	155.6	8.296	2.209	1.796	1.703	1.703	1.990	1.839	1.833	1.910	1.814	1.894	1.914	1.747	1.866	1.735	1.889	1.741	1.674	1.677	1.641	1.634	1.539	1.749	1.491	1.524	1.535
470.0	227.3	301.2	817.9	1500	565.2	364.4	366.0	377.5	372.8	368.8	355.6	326.8	297.5	260.3	229.4	203.7	189.1	179.3	172.2	163.3	160.8	157.6	157.0	155.2	156.2	153.6	150.0	148.4	144.9	138.9	131.3	117.3	102.4	89.18	76.73	67.91	66.99	63.68	46.28	32.36	26.61	21.19	16.76	14.08	11.68	11.16	11.99	32.68	177.4	547.0	779.6	442.1	14.08	2.144	1.788	1.672	1.969	1.764	1.778	1.811	1.703	1.830	1.857	1.781	1.826	1.642	1.747	1.599	1.642	1.613	1.564	1.489	1.383	1.492	1.424	1.411	1.431
475.0	256.6	260.7	406.7	1287	1215	371.2	336.2	341.2	342.4	339.8	322.0	300.8	269.4	238.8	207.9	185.2	169.6	159.9	154.6	146.0	143.4	140.9	138.8	138.9	139.1	136.0	134.9	133.0	131.7	125.3	120.0	108.5	94.95	83.26	71.10	63.22	56.20	56.34	52.99	36.92	26.71	22.18	17.85	15.36	12.34	10.50	9.403	12.65	44.01	125.8	250.3	748.8	524.0	18.97	2.071	1.798	2.006	1.884	1.703	1.652	1.673	1.674	1.762	1.709	1.703	1.441	1.504	1.480	1.348	1.460	1.385	1.373	1.336	1.293	1.282	1.286	1.289
480.0	244.6	264.3	292.1	766.0	1668	521.5	317.2	324.6	318.9	315.2	304.8	283.4	256.1	223.0	194.1	171.0	159.5	148.1	140.2	135.1	131.2	130.0	128.1	127.3	126.3	127.2	124.4	122.2	120.9	116.6	111.6	100.4	89.01	78.79	67.82	60.18	51.81	48.80	51.11	41.77	29.13	22.23	18.25	15.45	13.29	11.15	9.371	8.621	14.48	32.00	60.09	289.8	866.6	206.8	13.80	2.008	1.759	1.773	1.545	1.731	1.619	1.583	1.575	1.677	1.565	1.520	1.414	1.406	1.442	1.364	1.366	1.349	1.315	1.281	1.190	1.203	1.198
485.0	214.2	266.3	256.4	423.0	1570	982.9	304.6	302.9	297.7	295.4	288.7	264.8	241.3	205.5	181.8	161.9	147.7	139.9	132.3	123.7	121.0	121.0	119.3	118.1	117.5	116.6	115.0	115.0	113.1	110.9	105.8	95.89	85.44	75.68	64.54	56.79	50.74	43.97	44.45	45.32	33.43	23.47	19.31	16.38	13.24	11.02	9.736	7.987	8.201	11.35	16.97	70.68	435.6	843.9	182.1	7.172	1.868	1.697	1.526	1.592	1.557	1.588	1.452	1.492	1.500	1.554	1.356	1.351	1.436	1.325	1.322	1.201	1.116	1.206	1.172	1.104	1.123
490.0	173.5	276.1	256.1	284.9	886.9	1581	425.8	278.8	275.2	273.1	263.4	245.6	221.7	194.4	167.2	148.8	135.1	126.0	118.3	113.7	110.4	108.7	108.2	107.0	107.4	105.8	104.7	103.7	104.1	102.3	96.47	88.08	80.23	70.57	62.33	54.45	47.95	42.18	38.62	39.32	37.93	28.30	20.20	16.27	13.98	12.32	10.41	8.899	7.614	7.021	7.619	19.43	105.2	375.2	730.8	417.6	15.32	2.010	1.661	1.571	1.442	1.445	1.508	1.528	1.467	1.320	1.317	1.369	1.234	1.225	1.164	1.100	1.156	1.166	1.082	1.097	1.083
495.0	139.6	233.6	292.8	239.2	387.3	1353	1174	276.4	245.0	250.9	240.0	225.4	203.1	174.6	152.4	135.0	121.8	114.4	108.1	102.0	98.99	96.55	96.33	95.94	95.47	93.90	93.35	93.19	93.12	91.33	88.55	80.70	72.60	64.86	57.24	50.97	45.36	40.20	35.18	32.41	34.15	33.64	22.94	16.83	14.15	12.22	10.45	9.239	7.766	6.321	5.812	7.954	26.25	86.51	241.1	702.7	558.4	21.04	1.886	1.656	1.434	1.377	1.500	1.387	1.331	1.256	1.287	1.100	1.169	1.070	0.958	1.030	1.222	1.101	1.027	0.922	0.972
500.0	130.1	181.7	294.4	222.2	247.2	787.8	1693	390.2	231.7	231.0	221.9	209.9	186.0	161.0	139.3	122.2	111.9	104.8	97.99	94.82	89.53	87.70	88.18	85.15	86.63	86.36	85.63	84.26	85.19	83.43	81.15	74.69	66.05	59.94	53.89	48.05	42.93	37.54	33.44	29.76	29.09	32.28	26.77	18.00	14.84	12.71	10.66	9.002	7.974	6.516	5.578	5.544	8.770	22.08	57.16	268.2	838.2	227.0	15.02	1.911	1.448	1.372	1.358	1.377	1.245	1.258	1.082	1.102	1.141	1.080	0.964	1.001	1.024	0.980	0.846	0.888	1.014
505.0	110.4	137.3	260.8	240.4	200.8	388.0	1656	859.0	224.8	211.0	203.1	197.2	173.5	151.5	129.5	112.8	102.6	96.24	88.24	86.17	81.74	80.00	80.51	77.83	78.74	77.74	78.07	76.48	78.04	76.72	73.61	68.50	61.80	56.18	50.60	44.58	39.12	35.43	31.58	28.45	25.45	26.77	28.17	21.00	14.86	12.42	10.73	9.248	7.751	7.070	5.741	4.795	4.985	7.576	15.18	64.38	393.5	766.6	193.6	8.232	1.420	1.350	1.210	1.331	1.148	1.154	1.122	1.084	1.085	0.948	1.026	0.939	0.994	0.953	0.849	0.893	0.993
510.0	100.3	131.3	201.1	250.1	187.0	226.9	893.0	1541	392.3	187.3	185.5	172.7	154.5	133.4	115.8	101.2	89.78	85.49	80.41	75.39	72.26	70.88	69.96	68.97	69.92	67.30	68.29	66.66	68.38	66.57	65.70	60.67	54.98	49.80	44.90	40.29	35.55	32.39	28.76	25.37	23.11	21.94	23.59	23.03	17.18	12.19	10.52	8.977	7.813	6.868	5.945	5.071	4.407	4.510	5.892	16.46	93.99	325.4	577.9	379.3	14.65	1.591	1.273	1.157	1.135	1.010	1.016	0.958	1.028	0.981	0.912	0.918	0.852	0.878	0.813	0.839	0.932
515.0	84.29	111.4	145.9	233.7	196.0	170.4	341.4	1406	1081	187.0	163.6	149.9	133.8	118.1	103.5	90.12	81.70	76.53	69.81	66.54	63.20	61.08	60.74	59.40	59.55	58.16	58.89	59.09	58.39	58.83	57.50	52.52	48.44	44.18	40.19	36.24	32.63	28.92	25.81	22.67	20.70	18.55	17.93	20.40	20.47	13.95	10.28	8.785	7.468	6.396	5.654	5.513	4.200	3.999	3.924	5.978	22.92	74.41	175.6	602.8	238.0	19.77	1.321	1.156	1.034	1.020	0.944	0.928	0.862	0.839	0.944	0.860	0.812	0.749	0.718	0.811	0.824
520.0	78.44	100.3	125.2	193.0	214.3	150.7	189.2	802.8	1691	273.9	149.6	136.3	124.2	108.2	93.44	80.74	73.53	67.29	63.54	60.18	56.26	56.02	54.44	53.98	52.58	53.25	52.97	52.41	51.83	52.69	50.87	47.80	44.11	40.07	36.18	32.69	29.68	26.07	24.04	20.59	19.37	17.13	15.90	16.27	18.91	16.73	10.67	8.529	7.233	6.241	5.600	5.215	4.656	3.994	3.517	3.641	7.227	18.55	41.36	230.3	584.1	217.6	12.71	1.304	1.062	0.968	1.005	0.910	0.735	0.886	0.816	0.825	0.738	0.690	0.669	0.717	0.696
525.0	66.68	90.08	105.9	144.5	218.7	150.3	142.5	352.2	1749	734.1	140.1	125.6	110.1	97.34	85.48	74.06	66.60	61.24	56.45	54.21	51.43	50.62	48.57	49.00	47.71	47.95	46.85	47.47	46.80	46.89	46.90	43.34	39.81	36.82	32.53	30.28	26.59	23.79	22.10	19.94	17.74	15.91	14.92	13.71	16.75	17.05	12.06	8.811	7.029	5.965	5.394	5.079	4.514	4.016	3.299	2.971	3.729	5.886	11.05	54.79	277.7	590.4	173.4	5.286	0.991	0.889	0.991	0.860	0.692	0.795	0.733	0.724	0.770	0.693	0.581	0.716	0.641
530.0	68.98	75.85	94.25	110.2	188.6	170.8	122.6	173.5	939.8	1536	213.2	112.2	97.22	86.11	75.45	63.93	57.32	53.93	50.31	47.60	44.90	43.76	42.40	41.41	41.44	41.59	40.70	40.91	41.15	40.66	39.88	37.46	34.31	31.97	29.19	26.37	23.83	21.69	19.49	17.70	16.15	14.25	13.54	12.26	12.58	14.40	13.59	10.02	7.058	5.743	5.109	4.719	4.115	3.982	3.483	2.822	2.823	3.170	4.094	13.72	66.35	253.9	424.3	225.9	13.29	1.110	0.892	0.784	0.733	0.763	0.648	0.697	0.640	0.654	0.614	0.691	0.712
535.0	58.21	65.80	80.27	87.86	124.4	188.8	119.6	117.9	310.3	1455	943.8	105.2	85.40	73.30	63.85	56.44	49.22	46.31	42.67	41.01	38.79	37.31	36.34	35.59	36.35	34.79	34.47	35.42	35.66	34.11	34.18	32.82	29.31	27.03	24.63	22.77	20.68	19.25	17.12	15.68	14.29	13.10	11.66	10.38	10.15	10.48	12.27	11.48	7.346	5.637	4.836	4.244	3.795	3.678	3.642	3.142	2.608	2.403	2.462	4.546	16.06	57.80	129.4	421.7	232.6	16.93	0.984	0.732	0.683	0.783	0.586	0.651	0.575	0.627	0.621	0.552	0.598
540.0	50.73	57.87	76.16	80.51	94.92	171.1	129.7	97.96	147.0	786.5	1616	179.6	78.31	66.48	56.45	50.92	43.80	42.01	37.62	36.03	34.78	33.22	32.46	32.25	31.42	30.91	30.72	30.86	30.60	30.06	30.35	28.45	26.52	23.90	21.73	20.41	18.28	16.58	15.61	13.61	12.86	11.58	10.86	9.099	8.929	8.780	9.956	10.93	8.349	5.538	4.572	3.825	3.487	3.414	3.235	3.036	2.766	2.420	2.107	2.404	5.087	14.20	30.46	161.6	448.2	195.0	8.723	0.929	0.715	0.689	0.550	0.620	0.615	0.568	0.565	0.503	0.618
545.0	54.78	59.18	73.03	73.33	79.23	133.3	151.8	86.63	97.17	309.7	1693	547.6	69.17	61.13	51.17	45.20	39.65	38.01	32.81	31.18	30.04	28.64	29.14	29.10	27.56	27.21	26.91	26.26	27.52	26.61	27.35	25.25	22.83	21.83	19.29	18.07	16.16	15.44	13.80	11.94	11.31	10.47	9.495	8.743	8.203	7.593	7.868	9.289	9.142	6.062	4.402	3.768	3.389	3.156	2.888	2.935	2.923	2.279	1.942	1.908	2.495	4.361	7.994	38.52	208.4	432.2	135.5	3.378	0.715	0.649	0.600	0.510	0.604	0.525	0.506	0.432	0.507
550.0	49.49	57.18	63.32	63.78	63.10	86.39	147.4	92.99	74.37	127.5	849.9	1373	127.2	50.58	43.74	37.49	33.71	31.59	28.36	26.72	25.00	24.31	24.30	23.14	23.19	22.20	22.67	22.44	23.15	22.68	22.55	21.35	19.29	18.34	16.68	15.21	14.06	12.93	11.53	10.41	9.882	9.034	7.946	7.730	7.096	6.393	6.287	6.776	7.715	6.713	4.650	3.573	3.104	2.772	2.525	2.547	2.606	2.508	1.918	1.634	1.709	1.998	2.775	9.498	49.70	180.4	310.6	132.8	11.88	0.731	0.610	0.617	0.509	0.458	0.467	0.386	0.484
555.0	59.02	54.63	53.24	53.53	52.85	61.72	107.3	115.2	65.27	72.81	256.7	1345	676.8	47.27	35.25	31.28	27.45	25.03	22.95	21.98	20.80	20.06	20.03	19.47	18.95	17.89	18.51	17.92	18.16	18.37	18.05	17.16	15.90	15.08	13.49	12.13	11.45	10.60	9.954	8.821	8.170	7.406	6.757	6.119	5.662	5.397	5.042	4.985	5.535	6.294	5.044	3.847	2.898	2.389	2.300	2.112	2.000	2.222	2.114	1.716	1.416	1.422	1.636	2.964	11.94	41.08	93.85	262.0	195.3	14.41	0.689	0.570	0.444	0.426	0.368	0.462	0.400
560.0	49.52	50.94	48.56	49.33	43.42	49.07	74.91	130.7	65.02	57.59	98.84	697.0	1300	90.83	32.53	26.49	23.97	22.25	20.41	18.63	17.70	17.00	16.67	15.68	15.97	15.55	15.69	15.27	14.50	15.62	15.30	14.92	13.23	12.58	11.47	10.57	9.852	8.695	8.367	7.884	7.092	6.458	6.231	5.283	4.940	4.719	4.565	4.203	4.050	4.859	5.143	4.024	2.636	2.326	2.048	1.764	1.732	1.941	1.991	1.815	1.305	1.252	1.152	1.433	3.396	9.956	22.00	98.79	281.3	142.9	6.422	0.530	0.497	0.440	0.426	0.433	0.388
565.0	48.87	41.62	50.31	44.75	39.30	40.74	48.99	121.9	76.61	50.94	58.66	250.7	1445	332.0	28.12	22.92	19.66	19.31	16.89	16.23	14.80	14.55	14.04	13.38	13.68	13.10	12.78	13.44	13.15	13.18	13.07	12.28	11.37	10.47	9.525	8.984	8.456	8.073	6.847	6.462	5.845	5.955	5.117	4.608	4.443	4.207	4.044	3.668	3.192	3.417	4.403	3.942	2.766	2.088	1.828	1.803	1.573	1.636	1.561	1.837	1.429	1.300	1.068	1.000	1.396	2.897	5.631	23.49	125.7	261.4	33.24	2.415	0.561	0.425	0.385	0.398	0.315
570.0	48.06	48.54	51.35	40.84	35.48	33.09	38.86	79.87	104.5	50.32	44.69	89.80	714.2	976.8	68.20	19.28	16.63	15.68	14.19	12.92	12.19	11.97	11.49	11.20	10.88	10.60	10.68	10.88	10.52	10.62	10.82	9.921	9.319	8.481	8.040	7.159	6.795	6.482	5.779	5.686	5.030	4.833	4.347	3.932	3.672	3.406	3.275	2.877	2.679	2.712	3.012	3.509	2.948	2.145	1.690	1.546	1.450	1.342	1.413	1.408	1.575	1.286	1.037	0.867	0.956	1.311	1.849	5.969	29.75	104.7	164.9	100.1	10.65	0.601	0.412	0.352	0.328
575.0	50.49	49.52	45.49	38.88	30.78	28.34	29.61	43.59	103.9	64.39	38.26	48.06	203.1	1016	415.9	17.44	13.63	12.76	11.18	10.54	10.38	9.450	8.957	9.282	8.919	8.612	8.264	8.528	8.341	8.696	8.502	7.824	7.486	6.823	6.116	5.950	5.426	4.951	4.892	4.234	4.043	3.682	3.617	3.180	3.132	2.651	2.718	2.521	2.286	2.086	2.137	2.466	2.850	2.443	1.698	1.310	1.123	1.122	1.153	1.111	1.276	1.377	1.095	0.753	0.796	0.902	0.978	1.964	7.181	23.95	48.78	159.5	131.7	11.60	0.466	0.361	0.334
580.0	59.18	54.00	48.65	32.79	29.24	25.46	27.31	31.16	80.74	85.88	38.35	38.88	71.66	524.2	868.6	37.99	11.87	10.81	9.903	9.030	8.696	8.039	7.796	7.516	7.407	7.316	6.926	7.438	7.128	6.971	7.080	6.740	6.474	6.000	5.272	4.986	4.759	4.009	3.977	3.601	3.470	3.021	3.316	2.912	2.629	2.468	2.311	2.251	2.003	1.726	1.675	1.811	2.337	2.452	1.849	1.287	1.114	1.104	1.050	0.999	1.053	1.228	1.122	0.693	0.702	0.752	0.780	1.102	2.103	5.863	11.50	58.32	174.9	91.94	4.970	0.408	0.363
585.0	51.10	46.94	48.88	37.95	27.15	23.57	24.76	27.89	52.76	100.7	44.83	36.37	38.34	178.9	986.8	107.6	11.56	9.004	8.503	8.016	7.231	7.106	6.889	6.444	6.634	6.589	6.318	5.945	6.180	6.447	6.178	6.019	5.429	4.942	4.568	4.520	4.207	3.789	3.504	3.080	3.028	2.636	2.731	2.407	2.243	2.242	1.930	1.980	1.760	1.545	1.417	1.483	1.662	2.193	1.991	1.335	1.110	1.021	0.821	0.961	0.851	0.956	1.115	0.991	0.721	0.779	0.768	0.750	0.972	1.820	3.121	13.87	72.61	157.8	32.61	2.078	0.388
590.0	40.53	45.94	47.55	33.68	24.38	21.67	20.75	23.97	33.84	84.27	65.63	34.73	32.04	58.69	487.3	581.7	31.78	7.676	6.955	6.332	5.989	5.883	5.741	5.244	5.351	5.536	5.186	4.800	5.069	5.077	5.136	4.651	4.484	4.119	3.846	3.488	3.238	3.002	3.095	2.769	2.462	2.474	2.311	2.121	1.944	1.861	1.667	1.656	1.581	1.333	1.277	1.206	1.198	1.619	1.847	1.714	1.100	0.910	0.745	0.800	0.769	0.716	0.898	1.069	0.907	0.688	0.671	0.648	0.707	0.833	1.061	3.531	17.14	59.54	102.1	67.30	8.982
595.0	46.60	45.08	45.33	26.60	22.33	19.48	18.36	22.24	24.59	49.24	85.06	37.42	30.29	30.22	132.3	645.7	216.3	7.641	5.923	5.498	5.107	5.043	5.015	4.534	4.067	4.407	3.984	3.949	3.903	4.033	4.059	3.671	3.594	3.358	3.193	2.861	2.951	2.558	2.393	2.138	2.075	1.924	2.050	1.688	1.624	1.502	1.432	1.294	1.376	1.179	1.093	1.114	0.951	1.035	1.372	1.647	1.349	0.845	0.778	0.703	0.645	0.673	0.706	0.804	0.914	0.913	0.628	0.570	0.610	0.589	0.581	1.139	4.132	13.66	28.68	89.32	82.55
600.0	39.72	40.70	41.57	27.53	19.44	18.40	17.27	22.13	22.37	34.44	84.77	50.33	30.36	22.89	41.28	347.7	489.5	16.47	5.147	4.753	4.335	4.372	4.312	4.155	3.524	3.814	3.607	3.413	3.372	3.462	3.785	3.118	2.977	2.899	2.640	2.352	2.309	2.025	2.097	1.830	1.723	1.599	1.732	1.315	1.453	1.438	1.302	1.088	1.124	1.022	0.823	1.033	0.846	0.819	0.931	1.215	1.252	0.913	0.682	0.659	0.601	0.642	0.642	0.658	0.767	1.044	0.692	0.540	0.537	0.496	0.492	0.682	1.284	3.391	6.773	30.32	96.14
605.0	47.12	37.81	38.10	25.95	20.86	18.46	19.91	19.88	23.00	30.76	67.68	66.68	31.55	22.24	19.56	117.6	596.3	68.08	4.959	4.224	3.714	3.799	3.421	3.215	3.126	2.859	3.215	2.992	3.075	2.692	3.057	2.971	2.640	2.551	2.395	2.123	2.014	1.891	1.606	1.739	1.535	1.375	1.399	1.187	1.241	1.201	1.135	0.972	0.938	0.849	0.768	0.720	0.721	0.660	0.748	0.974	1.236	1.072	0.758	0.622	0.607	0.501	0.572	0.571	0.556	0.856	0.797	0.597	0.519	0.515	0.423	0.494	0.559	1.045	1.795	7.132	37.17
610.0	36.55	34.75	39.31	27.60	20.09	18.65	18.19	19.55	22.20	28.24	45.89	76.68	38.04	22.36	16.70	35.91	320.0	346.2	15.59	3.731	3.423	2.899	3.063	2.678	2.580	2.599	2.641	2.507	2.621	2.332	2.520	2.472	2.277	2.016	1.926	1.849	1.724	1.622	1.427	1.387	1.260	1.190	1.200	1.021	1.072	0.983	0.941	0.901	0.871	0.759	0.684	0.594	0.714	0.583	0.629	0.709	0.985	1.073	0.859	0.592	0.511	0.543	0.534	0.450	0.532	0.602	0.749	0.771	0.573	0.516	0.451	0.460	0.469	0.542	0.643	1.830	8.710
615.0	46.24	32.27	33.00	27.24	16.88	15.31	15.75	17.97	21.12	25.51	32.56	61.96	51.88	23.39	16.06	15.20	87.21	412.9	76.45	3.390	2.910	2.192	2.457	2.232	2.113	2.295	1.962	2.118	2.006	2.071	2.066	1.895	1.781	1.827	1.648	1.517	1.492	1.400	1.110	1.114	1.042	0.955	0.938	0.972	0.956	0.811	0.796	0.650	0.718	0.689	0.544	0.524	0.596	0.490	0.532	0.603	0.677	0.811	0.829	0.583	0.521	0.502	0.482	0.366	0.544	0.505	0.490	0.671	0.688	0.409	0.527	0.414	0.424	0.364	0.453	0.713	2.255
620.0	36.65	32.94	35.00	24.17	16.57	15.48	15.39	15.92	20.01	25.62	29.37	45.85	61.43	24.85	14.57	10.87	25.60	241.9	304.2	7.915	2.269	2.092	2.120	2.105	1.864	1.846	1.836	1.756	1.651	1.816	1.718	1.605	1.621	1.587	1.420	1.319	1.324	1.237	1.035	1.015	0.953	0.858	0.883	0.758	0.752	0.729	0.697	0.618	0.622	0.528	0.551	0.483	0.463	0.530	0.470	0.519	0.477	0.646	0.808	0.663	0.512	0.468	0.459	0.380	0.434	0.460	0.497	0.472	0.651	0.527	0.483	0.419	0.359	0.347	0.424	0.453	0.752
625.0	29.49	30.23	33.93	22.72	15.16	14.57	16.40	16.73	18.75	24.36	29.80	34.70	62.11	29.27	14.35	9.633	10.83	84.25	407.9	44.35	2.200	2.090	1.839	1.839	1.535	1.662	1.558	1.481	1.432	1.611	1.499	1.504	1.300	1.403	1.108	1.287	1.172	1.110	0.896	0.845	0.837	0.855	0.753	0.769	0.689	0.684	0.587	0.542	0.554	0.434	0.482	0.446	0.391	0.453	0.433	0.449	0.433	0.485	0.682	0.624	0.617	0.404	0.436	0.341	0.550	0.434	0.437	0.408	0.588	0.624	0.443	0.353	0.289	0.343	0.354	0.338	0.442
630.0	32.36	29.76	29.72	19.57	16.36	13.56	15.45	16.17	18.77	21.79	26.70	30.60	46.54	42.94	15.80	9.160	8.313	24.27	234.4	230.5	8.058	1.786	1.614	1.595	1.334	1.383	1.244	1.356	1.187	1.346	1.383	1.208	1.242	1.190	1.039	1.112	0.990	0.976	0.815	0.772	0.734	0.715	0.610	0.601	0.628	0.585	0.549	0.545	0.465	0.503	0.402	0.423	0.425	0.355	0.368	0.371	0.372	0.403	0.470	0.582	0.612	0.487	0.394	0.383	0.444	0.435	0.380	0.419	0.472	0.507	0.587	0.430	0.277	0.352	0.335	0.344	0.354
635.0	27.25	34.09	28.04	20.32	15.45	12.28	15.05	16.14	18.15	20.73	24.27	27.02	31.31	45.88	21.74	9.537	7.411	9.516	63.38	309.6	56.95	1.700	1.541	1.292	1.261	1.290	0.970	1.104	0.974	1.122	1.090	1.038	0.978	0.998	1.003	0.829	0.957	0.677	0.748	0.577	0.672	0.594	0.496	0.540	0.483	0.463	0.488	0.469	0.462	0.435	0.358	0.391	0.343	0.373	0.372	0.361	0.360	0.336	0.442	0.412	0.576	0.517	0.432	0.303	0.371	0.339	0.406	0.435	0.415	0.404	0.449	0.510	0.334	0.392	0.324	0.309	0.343
640.0	26.36	32.00	29.48	18.38	15.28	13.19	15.99	15.02	16.62	20.67	23.15	24.52	27.26	39.65	27.20	10.46	7.460	6.292	17.67	197.2	201.0	3.902	1.331	1.216	1.117	1.235	0.942	0.966	0.998	1.073	0.997	0.886	0.897	0.989	0.843	0.832	0.938	0.632	0.731	0.630	0.575	0.571	0.448	0.515	0.416	0.431	0.483	0.475	0.425	0.401	0.361	0.359	0.353	0.364	0.315	0.373	0.369	0.366	0.356	0.406	0.491	0.466	0.445	0.372	0.367	0.410	0.362	0.431	0.320	0.394	0.372	0.513	0.465	0.414	0.315	0.307	0.355
645.0	28.95	32.65	24.40	20.99	14.75	11.73	15.56	15.46	17.16	20.57	21.92	26.32	26.10	31.87	33.46	12.06	7.925	5.712	6.829	73.25	293.9	26.90	1.317	1.201	1.022	0.894	0.899	0.961	0.861	1.064	1.122	1.038	0.832	0.921	0.883	0.935	0.844	0.910	0.801	0.631	0.522	0.464	0.463	0.455	0.473	0.420	0.412	0.358	0.329	0.393	0.331	0.308	0.285	0.365	0.310	0.323	0.404	0.363	0.360	0.352	0.363	0.422	0.446	0.387	0.357	0.330	0.359	0.409	0.296	0.345	0.347	0.380	0.427	0.465	0.306	0.290	0.356
650.0	28.78	33.78	25.32	21.24	13.92	12.84	13.63	14.74	17.24	19.73	22.61	25.28	23.51	24.12	35.39	14.38	7.475	5.633	4.838	20.98	244.6	67.38	1.771	1.195	1.074	0.933	0.942	0.880	0.718	0.892	0.967	1.003	0.750	0.915	0.878	1.102	0.955	0.787	0.622	0.511	0.451	0.454	0.418	0.429	0.420	0.420	0.420	0.348	0.321	0.339	0.298	0.272	0.307	0.317	0.317	0.245	0.307	0.353	0.350	0.336	0.335	0.406	0.408	0.420	0.456	0.359	0.351	0.347	0.415	0.362	0.351	0.338	0.382	0.551	0.329	0.308	0.307
