Sample:	'1
File name:	t2025061903ÕÅÐ¤ÌÃ¸ÉÇþ.FD3
Run date:	'14:22:15, 06/23/2025
Operator:	Administrator
Comment:	'

Instrument
Model:	F-2700 FL Spectrophotometer
Serial number:	23B8-004
ROM Version:	4J14000 07

Instrument parameters
Measurement type:	3-D scan
Data mode:	Fluorescence
EX  Start WL:	220.0 nm
EX  End WL:	600.0 nm
EX Sampling interval:	5.0 nm
EM  Start WL:	230.0 nm
EM  End WL:	650.0 nm
EM Sampling interval:	5.0 nm
Scan speed:	12000 nm/min
EX Slit:	5.0 nm
EM Slit:	5.0 nm
PMT Voltage:	700 V
Response:	Auto 
Corrected spectra:	Off
Contour interval:	50.000

Peak integration
Integration method:	Rectangular
Sensitivity:	1
Threshold:	1.000

Peaks
No.	ApexEX/EM(nm)	Height(Data)
1	225.0/635.0	30.24
2	230.0/360.0	684.6
3	235.0/405.0	891.5
4	240.0/265.0	396.3
5	240.0/395.0	884.2
6	240.0/410.0	891.0
7	240.0/525.0	305.9
8	245.0/270.0	417.1
9	245.0/415.0	891.6
10	245.0/535.0	255.2
11	250.0/275.0	529.1
12	250.0/420.0	884.1
13	250.0/550.0	206.3
14	255.0/285.0	548.1
15	255.0/560.0	162.0
16	260.0/290.0	494.2
17	260.0/575.0	125.7
18	265.0/295.0	603.6
19	265.0/585.0	110.1
20	270.0/300.0	832.6
21	270.0/600.0	89.52
22	275.0/305.0	854.6
23	275.0/610.0	72.39
24	280.0/310.0	730.2
25	280.0/625.0	60.09
26	285.0/315.0	663.8
27	285.0/635.0	40.65
28	290.0/325.0	599.7
29	295.0/330.0	462.5
30	300.0/335.0	437.8
31	305.0/345.0	404.1
32	310.0/350.0	358.7
33	315.0/355.0	365.2
34	320.0/365.0	377.1
35	325.0/370.0	384.6
36	330.0/375.0	394.9
37	335.0/380.0	403.5
38	505.0/275.0	3.339
39	510.0/280.0	3.410
40	515.0/285.0	3.367
41	520.0/420.0	4.155
42	530.0/290.0	3.110
43	540.0/295.0	3.952
44	545.0/300.0	4.710
45	550.0/305.0	5.015
46	560.0/310.0	4.258
47	570.0/315.0	4.136
48	580.0/320.0	3.740
49	585.0/325.0	4.077

Data points
	220.0	225.0	230.0	235.0	240.0	245.0	250.0	255.0	260.0	265.0	270.0	275.0	280.0	285.0	290.0	295.0	300.0	305.0	310.0	315.0	320.0	325.0	330.0	335.0	340.0	345.0	350.0	355.0	360.0	365.0	370.0	375.0	380.0	385.0	390.0	395.0	400.0	405.0	410.0	415.0	420.0	425.0	430.0	435.0	440.0	445.0	450.0	455.0	460.0	465.0	470.0	475.0	480.0	485.0	490.0	495.0	500.0	505.0	510.0	515.0	520.0	525.0	530.0	535.0	540.0	545.0	550.0	555.0	560.0	565.0	570.0	575.0	580.0	585.0	590.0	595.0	600.0
230.0	119.7	1742	2454	442.1	17.51	6.634	5.492	5.037	4.011	3.816	3.229	3.036	2.631	2.176	1.669	1.529	1.330	1.268	1.117	1.094	0.924	0.965	0.827	0.789	0.796	0.701	0.681	0.695	0.651	0.660	0.573	0.595	0.511	0.471	0.486	0.466	0.417	0.391	0.405	0.387	0.443	0.537	0.523	0.382	0.364	0.452	2.357	7.107	8.526	4.346	1.284	0.382	0.317	0.278	0.283	0.295	0.255	0.267	0.269	0.261	0.285	0.257	0.253	0.264	0.288	0.278	0.249	0.295	0.253	0.286	0.270	0.311	0.304	0.263	0.297	0.279	0.292
235.0	107.3	519.7	2193	2545	463.5	26.04	6.271	5.167	4.935	3.822	3.940	2.887	2.557	2.276	1.881	1.477	1.480	1.322	1.097	1.116	1.002	0.884	0.699	0.918	0.715	0.707	0.688	0.692	0.608	0.696	0.617	0.613	0.546	0.501	0.493	0.453	0.453	0.461	0.381	0.445	0.392	0.444	0.513	0.516	0.489	0.438	0.805	2.140	4.391	7.009	9.183	7.407	2.797	0.633	0.357	0.267	0.319	0.262	0.292	0.240	0.307	0.258	0.258	0.294	0.261	0.309	0.229	0.363	0.270	0.312	0.243	0.287	0.299	0.260	0.282	0.236	0.313
240.0	175.0	190.2	775.1	2950	2592	331.2	13.92	5.948	5.319	4.172	4.187	3.187	2.420	2.829	2.047	1.658	1.454	1.587	1.011	1.021	1.000	0.901	0.853	0.831	0.748	0.730	0.646	0.753	0.622	0.666	0.654	0.556	0.538	0.537	0.448	0.395	0.492	0.454	0.407	0.416	0.524	0.380	0.441	0.491	0.616	0.741	0.526	0.784	1.260	2.558	6.384	13.09	12.83	7.294	1.971	0.370	0.352	0.244	0.330	0.273	0.276	0.244	0.241	0.295	0.297	0.271	0.251	0.280	0.255	0.241	0.230	0.246	0.271	0.248	0.279	0.307	0.311
245.0	148.1	199.8	225.3	1224	3760	2369	230.7	8.852	5.121	4.895	4.010	3.593	2.826	2.746	1.980	1.488	1.552	1.641	1.189	1.128	0.927	1.128	0.859	0.835	0.709	0.734	0.666	0.824	0.721	0.626	0.617	0.592	0.486	0.481	0.484	0.302	0.404	0.455	0.414	0.397	0.405	0.374	0.385	0.411	0.490	0.716	0.829	0.727	0.555	0.822	1.786	5.233	12.08	17.62	14.03	5.724	1.361	0.340	0.298	0.308	0.322	0.237	0.243	0.262	0.259	0.274	0.270	0.285	0.237	0.231	0.255	0.270	0.293	0.276	0.264	0.313	0.354
250.0	71.82	176.1	236.2	353.5	1399	3316	3313	841.8	35.89	6.444	4.781	4.267	3.286	2.841	2.171	1.773	1.611	1.462	1.317	1.175	1.013	1.128	0.884	0.880	0.790	0.669	0.747	0.687	0.816	0.679	0.632	0.567	0.543	0.518	0.494	0.381	0.421	0.507	0.430	0.415	0.434	0.398	0.411	0.408	0.385	0.422	0.642	0.788	0.914	0.803	0.793	1.502	3.231	6.713	11.42	15.87	17.95	13.96	6.737	1.605	0.389	0.319	0.289	0.295	0.273	0.286	0.294	0.299	0.292	0.260	0.288	0.278	0.345	0.340	0.257	0.308	0.329
255.0	38.03	67.39	199.8	320.9	377.1	934.4	3560	4957	298.0	33.52	6.370	5.862	4.003	3.048	2.270	1.959	1.770	1.461	1.406	0.992	1.114	1.117	1.127	0.970	0.887	0.833	0.801	0.745	0.720	0.699	0.624	0.616	0.517	0.600	0.476	0.403	0.419	0.446	0.381	0.397	0.434	0.401	0.421	0.457	0.430	0.454	0.418	0.425	0.697	1.014	1.242	1.419	1.135	1.800	2.869	4.229	8.603	18.81	29.06	23.13	9.431	1.663	0.294	0.324	0.355	0.282	0.282	0.265	0.317	0.307	0.331	0.321	0.297	0.322	0.278	0.294	0.323
260.0	36.85	35.50	90.76	307.6	297.9	260.1	1213	5141	4749	242.8	16.93	7.291	4.436	3.897	2.579	2.122	1.788	1.606	1.568	1.347	1.169	1.128	0.969	0.841	0.808	0.936	0.811	0.679	0.751	0.726	0.697	0.788	0.535	0.550	0.488	0.423	0.442	0.412	0.469	0.414	0.387	0.372	0.380	0.429	0.379	0.347	0.344	0.361	0.428	0.511	0.884	1.788	1.413	1.053	1.002	1.330	2.345	5.628	15.16	28.56	31.48	20.30	6.216	0.751	0.410	0.325	0.359	0.294	0.294	0.288	0.274	0.293	0.289	0.286	0.345	0.289	0.324
265.0	31.79	29.91	39.59	173.2	396.3	227.5	325.5	2009	6501	4371	177.8	10.67	5.451	4.409	3.052	2.405	2.082	1.733	1.632	1.360	1.092	1.231	0.899	0.949	0.894	0.861	0.797	0.814	0.725	0.628	0.672	0.631	0.533	0.561	0.579	0.476	0.385	0.406	0.437	0.408	0.410	0.475	0.387	0.411	0.377	0.336	0.380	0.329	0.310	0.321	0.443	1.033	1.724	1.958	1.359	0.772	0.965	1.628	3.954	9.456	22.22	36.61	30.10	16.90	3.181	0.447	0.371	0.274	0.329	0.291	0.357	0.303	0.315	0.314	0.324	0.283	0.355
270.0	43.35	31.40	27.94	72.17	234.2	417.1	292.6	521.8	2305	5671	4834	744.6	34.43	6.683	4.435	3.051	2.709	2.088	1.712	1.470	1.336	1.189	1.152	0.997	0.980	0.955	0.872	0.931	0.749	0.690	0.668	0.677	0.603	0.663	0.575	0.526	0.472	0.469	0.444	0.435	0.453	0.487	0.434	0.400	0.436	0.425	0.366	0.340	0.300	0.350	0.333	0.575	0.860	1.351	1.811	2.085	1.799	1.290	1.378	2.529	5.633	11.71	19.77	30.12	31.48	28.34	12.24	3.269	0.575	0.366	0.338	0.283	0.357	0.348	0.332	0.350	0.340
275.0	64.74	48.10	36.77	48.58	108.4	265.4	529.1	340.0	563.9	1506	5048	8143	986.4	27.67	6.399	4.258	3.447	2.530	2.120	1.972	1.535	1.491	1.200	1.257	1.015	1.127	0.908	0.917	0.661	0.695	0.724	0.704	0.735	0.709	0.517	0.614	0.510	0.467	0.461	0.539	0.548	0.421	0.451	0.376	0.520	0.484	0.402	0.401	0.363	0.305	0.343	0.449	0.542	0.749	0.905	1.421	2.520	3.339	2.156	1.144	1.742	3.047	4.844	7.355	11.39	26.27	45.67	31.68	18.25	2.887	0.454	0.372	0.367	0.378	0.437	0.358	0.302
280.0	88.13	69.72	51.78	47.18	75.78	148.5	400.4	543.0	246.7	387.9	1580	7341	7297	145.1	13.47	5.443	3.954	3.282	2.528	2.111	1.765	1.652	1.429	1.059	1.200	1.113	1.080	0.952	0.747	0.768	0.741	0.782	0.725	0.634	0.724	0.733	0.709	0.595	0.555	0.528	0.596	0.607	0.608	0.457	0.483	0.510	0.476	0.487	0.456	0.374	0.381	0.432	0.410	0.632	0.701	0.818	1.290	2.324	3.410	2.724	1.333	1.226	1.520	2.161	2.992	7.100	17.97	35.20	51.54	29.33	12.48	1.383	0.437	0.343	0.416	0.378	0.337
285.0	128.4	106.2	73.35	55.28	69.29	108.4	203.8	548.1	338.6	169.4	427.0	2485	8407	5597	104.8	8.220	5.360	3.695	2.698	2.347	2.034	1.562	1.367	1.297	1.287	1.069	0.997	0.938	0.760	0.889	0.707	0.773	0.758	0.743	0.735	0.735	0.710	0.697	0.577	0.652	0.609	0.730	0.535	0.512	0.577	0.572	0.593	0.537	0.519	0.431	0.412	0.485	0.456	0.584	0.635	0.678	0.876	1.108	1.999	3.367	3.224	1.911	1.040	1.043	1.197	2.171	4.577	10.07	24.57	43.33	51.38	24.33	6.979	0.716	0.366	0.417	0.343
290.0	177.6	161.3	116.5	80.59	76.16	94.58	119.9	250.9	494.2	431.5	236.4	671.9	2642	6063	5610	434.8	23.87	5.411	3.463	2.697	2.325	1.806	1.543	1.368	1.307	1.235	1.062	1.062	0.829	0.954	0.821	0.809	0.784	0.821	0.770	0.761	0.798	0.738	0.674	0.762	0.722	0.690	0.582	0.621	0.653	0.731	0.593	0.715	0.661	0.557	0.463	0.491	0.518	0.581	0.614	0.656	0.746	0.827	0.991	1.494	2.235	3.076	3.110	2.237	1.356	1.316	1.744	2.935	6.333	12.04	21.87	31.19	32.01	33.25	16.45	6.129	0.838
295.0	214.9	217.3	179.3	114.5	93.48	97.60	105.3	142.2	247.4	603.6	575.5	326.8	724.6	1539	4215	6496	619.7	18.76	5.251	3.489	3.058	2.102	1.734	1.529	1.410	1.337	1.252	0.927	1.003	0.895	0.948	0.817	0.669	0.713	0.868	0.859	0.854	0.859	0.756	0.647	0.666	0.805	0.749	0.737	0.775	0.797	0.724	0.857	0.795	0.673	0.605	0.667	0.573	0.598	0.641	0.628	0.685	0.837	0.776	0.846	1.096	1.462	2.076	3.409	3.952	2.680	1.546	1.559	2.392	3.407	5.609	7.758	9.248	19.52	39.13	49.16	25.62
300.0	256.1	262.0	210.2	137.0	111.7	116.9	120.3	140.7	190.9	405.3	832.6	497.7	346.5	464.9	1212	5456	5506	87.33	9.841	4.484	3.435	2.458	1.893	1.748	1.363	1.441	1.272	1.026	1.151	0.921	0.980	0.805	0.790	0.850	0.846	1.002	0.901	0.826	0.799	0.719	0.623	0.976	0.703	0.835	0.756	0.890	0.873	1.035	0.926	0.776	0.653	0.802	0.649	0.655	0.688	0.670	0.808	0.910	0.858	0.976	1.045	1.167	1.439	2.258	3.446	4.710	3.687	2.081	1.719	1.709	2.257	2.524	2.820	5.259	12.52	28.95	48.16
305.0	272.9	311.4	257.0	175.2	133.9	133.1	152.3	178.3	216.0	318.7	658.5	854.6	381.0	264.6	372.4	1689	6183	4329	69.71	6.289	4.123	3.058	2.205	2.087	1.478	1.486	1.272	1.150	1.168	0.905	0.947	0.916	0.819	0.932	0.940	0.873	0.867	0.838	0.738	0.693	0.734	0.775	0.649	0.790	0.816	0.901	0.980	1.069	0.938	0.764	0.748	0.747	0.712	0.728	0.789	0.772	0.885	0.972	0.986	1.119	1.097	1.172	1.439	1.756	2.178	3.275	5.015	4.360	2.758	1.836	1.529	1.584	1.506	1.949	3.565	7.544	17.60
310.0	304.8	314.0	276.1	194.4	151.9	147.5	171.0	203.9	244.9	313.9	443.8	715.0	730.2	350.2	214.1	458.6	1829	4403	4465	305.0	17.90	4.056	2.940	2.575	1.887	1.695	1.345	1.222	1.219	1.035	0.882	0.875	0.945	0.944	0.930	0.955	0.974	0.853	0.862	0.823	0.745	0.872	0.767	0.805	0.872	1.016	0.934	1.104	1.033	0.863	0.799	0.852	0.908	0.854	0.842	0.857	0.926	1.038	1.174	1.141	1.219	1.453	1.507	1.742	1.804	2.329	3.070	3.696	4.258	3.685	2.844	1.803	1.471	1.388	1.589	2.333	4.740
315.0	295.8	325.1	290.4	224.5	174.4	167.7	184.3	222.6	258.0	325.7	396.8	485.5	631.1	663.8	263.2	202.2	476.4	1064	2949	5410	478.7	16.43	4.014	3.051	2.487	1.880	1.534	1.431	1.401	1.413	1.041	0.994	0.929	0.897	0.953	0.904	0.940	0.818	0.895	0.785	0.724	0.845	0.788	0.854	0.972	1.021	1.085	1.167	0.984	0.904	0.916	0.948	0.929	0.940	1.080	0.877	1.037	1.154	1.274	1.296	1.309	1.502	1.463	1.618	1.904	2.126	2.231	2.387	2.734	3.136	4.136	3.676	2.500	1.466	1.250	1.315	1.801
320.0	325.9	386.4	339.0	253.4	192.7	180.5	200.9	242.5	278.8	333.4	399.4	435.6	469.5	658.8	478.4	175.9	188.4	287.4	787.7	3857	4117	370.3	8.442	4.010	2.987	2.209	1.735	1.574	1.389	1.526	1.045	0.987	0.899	0.967	0.961	0.981	0.960	0.967	1.020	0.855	0.744	0.843	0.774	0.860	1.000	1.096	1.013	1.279	1.046	0.936	0.968	0.956	0.931	0.877	0.956	1.003	1.153	1.069	1.291	1.371	1.436	1.560	1.573	1.871	1.903	2.087	2.068	2.205	2.356	2.399	2.824	3.449	3.740	2.727	1.623	1.188	1.253
325.0	360.4	449.5	408.0	294.4	215.1	195.2	211.2	250.3	291.3	345.2	398.5	436.1	429.5	478.2	599.7	295.2	142.6	127.4	216.5	1102	4281	3501	57.43	5.467	3.545	2.520	2.065	1.550	1.367	1.342	1.348	1.054	1.011	0.929	0.939	0.901	0.946	0.916	1.049	0.783	0.777	0.799	0.931	0.901	0.973	1.147	1.195	1.438	1.333	1.094	1.100	1.096	1.063	1.043	1.093	0.990	1.145	1.249	1.287	1.264	1.362	1.482	1.633	1.808	2.057	2.048	1.920	2.297	2.135	2.254	2.273	2.575	3.027	4.077	3.447	1.763	1.351
330.0	398.5	513.0	501.7	381.2	271.2	231.1	229.3	269.8	306.5	360.0	414.2	448.1	438.1	406.0	441.0	462.5	264.6	120.4	107.8	287.6	1225	3213	3486	939.2	16.95	3.508	2.727	2.053	1.740	1.564	1.272	1.138	1.096	1.046	0.991	1.016	0.942	0.887	0.931	0.779	0.807	0.812	0.875	0.957	0.979	1.341	1.400	1.601	1.685	1.430	1.192	1.451	1.168	1.202	1.134	1.196	1.312	1.290	1.327	1.367	1.479	1.573	1.836	1.842	2.165	2.110	2.050	2.149	2.366	2.227	2.308	2.368	2.484	2.779	3.060	3.287	2.722
335.0	444.5	565.6	575.5	446.4	347.2	268.1	261.8	293.4	327.0	376.6	427.6	468.0	457.3	412.6	368.7	362.0	437.8	233.4	112.7	126.6	317.4	771.6	2203	4511	412.1	16.82	3.773	2.568	2.039	1.744	1.352	1.314	1.224	1.064	1.040	1.099	0.915	0.852	0.877	0.834	0.853	0.806	0.991	0.986	1.108	1.365	1.479	1.753	1.785	1.629	1.426	1.607	1.420	1.409	1.277	1.270	1.466	1.393	1.523	1.462	1.600	1.664	1.834	2.017	2.168	2.404	2.287	2.322	2.254	2.309	2.398	2.391	2.381	2.282	2.353	2.322	2.624
340.0	467.6	596.8	615.7	514.6	391.0	316.1	289.7	305.2	343.8	394.3	438.5	484.4	475.0	430.3	369.7	311.4	385.1	381.3	162.6	107.7	131.2	217.0	588.8	3093	3427	331.9	7.582	3.166	2.452	1.767	1.513	1.384	1.281	1.163	0.943	0.956	0.978	0.839	0.846	0.894	0.883	0.778	0.941	0.960	1.208	1.254	1.450	2.015	2.050	1.737	1.645	1.841	1.573	1.563	1.490	1.375	1.570	1.512	1.531	1.494	1.706	1.863	2.046	2.165	2.107	2.279	2.400	2.545	2.321	2.431	2.486	2.429	2.506	2.232	2.180	1.956	2.233
345.0	445.2	602.9	639.3	554.1	429.8	355.3	322.2	337.6	364.7	404.9	462.1	487.9	487.0	440.9	383.5	313.5	303.2	404.1	289.9	133.4	106.2	108.1	177.2	885.8	3462	2982	50.78	5.353	3.017	2.102	1.821	1.417	1.207	1.155	0.972	1.005	0.885	0.947	0.816	1.030	0.786	0.923	0.914	1.105	1.206	1.284	1.517	1.937	1.982	1.809	1.653	2.055	1.846	1.671	1.530	1.589	1.734	1.625	1.713	1.544	1.619	1.907	1.937	2.087	2.259	2.197	2.271	2.424	2.403	2.467	2.443	2.430	2.625	2.266	2.071	1.859	1.913
350.0	475.5	597.2	653.8	585.8	494.3	426.3	379.6	382.1	398.2	435.4	477.5	496.2	493.8	461.0	406.5	340.5	299.1	315.1	358.7	264.3	147.0	115.0	107.9	248.4	997.6	2598	2829	765.0	15.57	3.221	2.155	1.647	1.376	1.214	1.080	0.913	1.033	0.953	0.885	0.916	0.825	0.935	0.989	1.077	1.099	1.294	1.486	1.772	1.906	1.838	1.786	2.128	2.004	1.935	1.723	1.772	1.810	1.882	1.811	1.684	1.925	1.879	2.081	2.188	2.286	2.256	2.360	2.472	2.478	2.380	2.366	2.537	2.475	2.307	2.252	2.093	2.101
355.0	487.2	574.3	680.8	623.6	558.1	494.8	451.7	445.3	452.4	478.1	516.2	522.6	520.8	488.6	431.9	376.7	331.6	306.0	302.9	365.2	268.4	159.6	126.9	135.2	275.3	636.9	1781	3348	373.4	15.48	3.037	1.994	1.641	1.389	1.099	1.055	1.008	0.987	0.905	0.909	0.934	1.004	1.034	0.989	1.166	1.383	1.641	1.717	1.989	1.873	1.888	2.260	2.176	2.215	1.979	1.922	2.150	2.136	2.142	2.063	2.076	2.099	2.460	2.499	2.475	2.607	2.546	2.681	2.657	2.481	2.571	2.710	2.677	2.659	2.355	2.376	2.422
360.0	487.6	598.3	684.6	646.3	600.8	543.9	502.4	496.7	502.3	519.1	537.1	540.7	538.1	503.0	458.3	400.7	362.5	327.1	302.0	338.7	370.8	231.1	156.7	132.6	139.8	193.3	485.0	2438	3061	300.7	7.083	2.890	2.070	1.602	1.252	1.148	0.928	1.064	0.838	0.941	0.870	1.013	1.086	0.977	1.321	1.432	1.512	1.844	1.903	1.905	1.896	2.240	2.293	2.299	2.181	2.200	2.361	2.306	2.279	2.266	2.226	2.371	2.526	2.634	2.503	2.635	2.582	2.606	2.706	2.563	2.777	2.888	2.821	2.658	2.470	2.608	2.712
365.0	484.5	631.6	673.1	672.0	635.5	587.4	549.4	549.5	544.7	556.5	563.9	568.2	549.6	521.7	479.8	426.1	392.6	358.7	324.9	315.9	377.1	338.1	203.4	155.0	130.1	115.8	156.7	720.9	2987	2643	46.96	4.333	2.507	1.883	1.462	1.330	0.970	0.982	0.933	0.974	0.921	0.980	0.933	0.999	1.166	1.409	1.567	1.856	1.964	1.889	2.053	2.298	2.292	2.357	2.395	2.332	2.586	2.519	2.620	2.437	2.517	2.544	2.582	2.903	2.899	2.753	2.782	2.812	2.740	2.542	2.828	2.903	2.707	2.692	2.638	2.811	2.588
370.0	484.1	603.3	689.0	713.3	698.3	647.6	609.2	599.4	592.4	608.0	608.6	597.7	576.1	550.2	506.3	461.2	426.8	397.0	368.4	344.9	349.6	384.6	326.0	216.7	165.2	129.4	109.7	213.4	870.6	2337	2531	658.6	13.61	2.717	1.838	1.427	1.150	1.039	1.017	0.925	0.977	1.033	1.025	1.149	1.249	1.489	1.484	1.890	2.187	1.931	2.054	2.481	2.674	2.588	2.696	2.620	2.696	2.838	2.680	2.662	2.748	2.793	2.849	2.891	3.074	3.029	2.979	2.887	2.750	2.717	2.939	2.929	2.906	2.723	2.692	2.972	2.914
375.0	514.3	618.0	715.2	767.1	762.2	711.7	677.2	664.0	651.6	649.1	660.6	635.9	604.2	567.9	536.6	489.4	462.9	435.5	413.1	387.7	370.3	363.9	394.9	331.4	218.5	167.7	129.8	124.5	243.0	575.2	1660	2970	317.7	13.27	2.650	1.781	1.442	1.110	1.145	1.031	0.966	1.070	0.979	1.292	1.189	1.536	1.567	2.019	2.051	1.991	2.280	2.696	2.711	2.784	2.964	2.858	3.018	3.017	2.777	2.988	3.000	2.951	3.029	3.137	3.198	3.129	2.959	3.057	2.910	3.012	3.183	3.255	3.137	2.849	2.824	2.793	3.228
380.0	521.8	631.5	739.3	768.7	779.2	758.6	713.8	707.1	693.3	694.0	681.5	654.7	624.5	588.7	547.2	507.9	481.7	457.8	441.0	418.2	394.3	376.0	379.0	403.5	288.7	203.5	156.5	123.2	124.5	175.1	458.6	2216	2555	244.3	5.778	2.111	1.904	1.337	1.144	1.129	0.977	1.021	1.023	1.188	1.213	1.549	1.635	2.082	2.150	2.103	2.311	2.922	2.783	3.088	3.063	2.905	3.173	3.166	2.931	3.200	3.416	3.049	3.178	3.416	3.327	3.258	3.216	3.043	3.309	3.113	3.371	3.178	3.140	3.065	3.215	3.100	3.263
385.0	505.6	638.9	769.8	801.6	825.4	795.3	753.0	730.8	718.4	716.9	698.7	677.8	644.7	604.6	560.7	521.7	498.6	479.1	464.7	442.5	420.5	396.0	375.4	399.7	370.0	249.1	188.1	142.8	115.0	100.4	144.7	660.3	2469	2054	37.77	3.478	2.211	1.522	1.281	1.115	1.204	1.081	1.141	1.274	1.312	1.453	1.887	1.996	2.089	2.150	2.280	2.816	2.939	3.313	3.076	2.639	3.155	3.378	3.397	3.393	3.380	3.264	3.384	3.307	3.213	3.234	3.203	3.219	3.326	3.136	3.158	3.290	3.253	3.304	3.213	3.063	3.369
390.0	548.7	673.6	779.4	822.1	832.5	822.1	802.6	771.1	749.2	739.3	727.7	696.4	661.2	620.1	578.2	544.6	521.9	500.2	489.5	469.2	448.7	426.2	398.8	385.5	395.1	339.9	241.4	181.0	143.4	110.8	95.38	188.2	727.4	1828	1823	157.7	11.10	2.262	1.661	1.357	1.281	1.201	1.246	1.225	1.329	1.639	1.899	1.986	2.231	2.173	2.262	2.926	2.916	3.249	3.246	3.049	3.449	3.427	3.329	3.372	3.326	3.501	3.529	3.643	3.584	3.402	3.302	3.273	3.363	3.108	3.103	3.240	3.258	3.497	3.285	3.317	3.455
395.0	566.1	698.1	803.7	848.0	884.2	860.3	824.7	810.6	769.6	776.2	759.2	717.5	676.1	640.2	589.2	559.9	539.3	524.0	507.4	482.3	473.4	449.5	425.1	398.2	378.7	387.6	332.3	228.6	182.1	141.8	108.9	103.3	202.7	453.1	1289	2152	256.1	9.196	2.306	1.569	1.260	1.315	1.390	1.326	1.450	1.667	1.628	2.146	2.162	2.158	2.389	3.140	2.850	3.327	3.280	3.466	3.395	3.623	3.452	3.696	3.676	3.648	3.504	3.513	3.603	3.567	3.590	3.710	3.162	3.431	3.310	3.469	3.346	3.590	3.332	3.488	3.554
400.0	580.2	707.0	782.8	873.1	873.8	879.0	862.9	826.4	806.1	792.4	769.6	731.1	692.5	645.3	599.7	564.9	546.8	529.8	517.1	499.9	485.6	465.4	444.2	419.7	386.2	374.3	379.0	289.2	213.3	168.7	130.2	98.98	98.93	138.4	366.2	1681	1847	187.9	4.572	2.082	1.563	1.455	1.338	1.392	1.592	1.689	1.668	1.992	2.184	2.122	2.529	3.021	3.228	3.217	3.394	3.655	3.610	3.475	3.685	3.776	3.635	3.807	3.662	3.541	3.436	3.383	3.401	3.599	3.321	3.343	3.124	3.581	3.474	3.509	3.418	3.448	3.498
405.0	550.1	703.7	797.3	891.5	880.8	882.3	862.9	845.1	818.0	802.6	793.7	744.3	705.4	650.0	603.3	564.8	546.7	528.3	518.2	507.1	493.5	476.9	461.4	436.5	402.5	377.5	377.4	352.4	252.8	194.2	154.6	115.1	89.14	78.09	114.1	511.0	1845	1463	32.42	3.000	2.013	1.580	1.637	1.376	1.547	1.639	1.703	2.204	2.083	2.205	2.351	3.018	3.242	3.264	3.441	3.506	3.496	3.672	3.635	3.698	3.638	3.857	3.693	3.783	3.516	3.538	3.305	3.606	3.565	3.458	3.253	3.484	3.599	3.390	3.358	3.670	3.565
410.0	568.3	713.6	815.8	868.0	891.0	887.5	878.2	855.4	836.6	827.1	800.1	752.4	706.3	655.5	603.2	561.6	544.0	529.8	519.5	508.2	493.6	481.2	466.3	449.2	418.6	387.6	365.7	363.3	322.0	241.5	185.5	141.3	106.8	78.59	68.65	144.9	550.1	1368	1341	144.0	8.973	2.204	1.807	1.612	1.637	1.785	1.855	2.034	2.224	2.194	2.385	2.937	3.172	3.419	3.323	3.385	3.629	3.765	3.834	3.633	3.810	3.667	3.937	3.926	3.578	3.704	3.412	3.332	3.583	3.489	3.194	3.469	3.601	3.576	3.343	3.473	3.311
415.0	565.3	713.7	806.9	871.7	888.6	891.6	883.2	871.7	853.9	837.2	804.0	747.4	703.1	645.1	592.9	561.2	530.8	521.3	514.8	500.5	488.0	479.7	467.5	450.6	427.3	398.0	364.7	347.1	343.9	303.1	220.5	167.3	127.9	95.00	72.00	72.02	149.8	340.0	953.4	1561	219.8	7.551	2.359	1.935	1.816	1.835	1.961	2.027	2.311	2.217	2.398	2.900	3.003	3.223	3.269	3.291	3.497	3.808	4.051	4.009	4.015	3.568	3.845	3.853	3.537	3.543	3.618	3.376	3.376	3.310	3.197	3.402	3.298	3.312	3.416	3.285	3.176
420.0	550.7	706.5	799.8	842.3	876.1	882.3	884.1	882.5	859.5	828.5	810.3	749.0	692.4	648.1	590.1	545.7	518.6	513.7	498.9	487.5	481.6	469.8	464.0	447.2	423.9	398.6	370.7	347.0	332.4	331.0	256.6	186.8	144.3	108.0	81.22	64.79	66.94	99.08	269.1	1218	1365	35.17	4.094	2.342	2.089	1.966	1.829	2.022	2.351	2.123	2.379	3.046	3.276	3.108	3.404	3.249	3.833	3.627	3.984	3.677	4.155	3.698	3.738	3.824	3.702	3.398	3.661	3.576	3.506	3.422	3.422	3.400	3.342	3.333	3.145	3.239	3.272
425.0	561.1	655.6	778.8	830.8	859.3	864.6	870.3	871.5	847.6	835.9	809.3	746.2	690.8	626.7	572.6	531.7	510.3	496.5	490.9	477.8	469.8	461.5	455.1	441.2	423.7	404.0	378.6	350.5	327.2	322.8	291.4	211.8	156.4	121.5	92.43	71.29	55.69	50.85	80.26	371.7	1344	1059	29.32	3.103	2.248	2.047	2.063	2.194	2.234	2.207	2.293	3.075	3.110	3.413	3.435	3.301	3.581	3.576	4.025	3.874	3.849	3.871	3.810	3.685	3.637	3.649	3.344	3.540	3.345	3.333	3.231	3.296	3.181	3.403	3.252	3.115	3.284
430.0	637.6	663.9	758.0	820.2	840.1	864.7	860.9	865.6	847.5	834.4	791.5	746.7	679.0	615.6	566.8	517.3	497.6	482.9	472.2	464.2	452.4	446.3	444.8	434.8	419.9	398.5	379.2	353.5	329.4	310.1	295.9	253.6	184.8	139.9	107.0	83.99	63.79	49.10	45.55	102.8	395.5	981.4	1031	133.6	8.916	2.528	2.177	2.386	2.327	2.207	2.376	2.967	2.896	3.157	3.335	3.336	3.494	3.544	3.731	3.847	3.721	3.768	3.844	3.872	3.696	3.667	3.462	3.475	3.292	3.192	3.318	3.115	3.169	3.173	3.098	3.107	3.429
435.0	996.4	677.2	738.1	802.1	809.5	850.5	860.4	855.6	837.6	830.0	787.2	741.4	673.3	610.7	554.8	502.0	483.8	465.3	453.4	445.9	439.0	431.9	430.6	424.0	412.2	393.1	374.0	355.5	335.1	310.5	285.0	264.7	226.0	162.4	123.8	98.65	76.51	58.17	45.92	49.77	107.8	243.1	711.5	1278	208.9	8.455	2.649	2.457	2.412	2.285	2.337	2.864	2.882	3.288	3.232	3.584	3.427	3.663	3.857	3.795	3.665	3.645	3.910	3.786	3.950	3.801	3.400	3.234	3.348	3.114	3.184	3.295	3.051	3.163	3.223	3.120	3.039
440.0	1464	716.5	714.0	797.4	809.3	848.5	855.2	850.4	838.9	820.7	782.2	731.0	662.6	594.0	540.6	492.5	470.7	456.1	445.2	436.8	425.6	420.5	419.3	414.0	402.1	386.2	370.7	353.5	336.3	311.9	283.1	255.7	241.9	186.2	135.9	108.8	85.92	66.65	51.93	42.14	48.48	72.34	201.3	977.1	1203	32.48	4.781	2.731	2.505	2.311	2.289	2.853	3.219	3.187	3.363	3.236	3.456	3.691	3.842	3.800	3.905	3.858	3.618	3.894	3.552	3.513	3.355	3.195	3.281	3.220	2.984	3.117	3.138	3.195	3.054	3.266	3.000
445.0	1715	988.8	694.0	755.5	777.3	816.2	828.3	830.7	827.6	807.0	784.6	716.9	644.6	583.3	527.4	480.8	456.4	443.6	430.7	421.2	411.9	406.7	403.6	398.6	387.5	377.0	363.9	349.1	335.1	311.3	281.0	250.0	233.0	208.8	152.3	116.5	94.15	74.19	59.50	46.50	39.22	37.74	61.28	298.6	1152	965.5	26.52	3.717	2.706	2.319	2.476	2.676	2.981	3.095	3.197	3.168	3.386	3.721	3.565	3.693	3.870	3.892	3.731	3.764	3.607	3.597	3.385	3.371	3.028	3.159	3.270	2.908	3.091	3.198	3.084	2.962	2.998
450.0	1281	1718	792.4	719.8	749.7	781.9	799.5	809.0	797.4	785.0	757.1	690.4	625.8	559.1	499.1	456.4	434.0	417.1	406.6	395.6	385.3	383.5	383.6	374.6	367.6	358.7	349.4	334.0	322.6	306.1	277.8	246.8	219.4	205.1	175.1	131.7	103.9	84.00	68.25	54.54	43.46	36.15	34.87	83.19	337.6	859.7	934.1	120.8	8.543	2.580	2.489	2.780	2.892	2.831	3.069	3.078	3.377	3.387	3.489	3.575	3.581	3.518	3.559	3.672	3.526	3.427	3.344	3.166	3.223	3.122	3.081	2.804	2.965	2.932	2.851	2.938	2.997
455.0	666.5	2009	1261	688.8	707.8	741.8	754.1	758.4	758.4	743.5	718.1	666.1	595.1	525.5	466.1	431.1	401.7	388.0	376.9	364.1	358.7	352.1	353.5	346.7	343.0	334.3	324.4	316.5	307.8	294.4	268.6	240.3	214.6	188.5	176.7	152.7	115.0	91.82	75.54	63.04	51.20	41.33	34.46	38.95	90.42	211.0	566.4	1058	176.7	8.352	2.702	2.994	2.900	2.950	2.801	2.893	3.263	3.347	3.460	3.387	3.426	3.498	3.535	3.339	3.339	3.467	3.228	3.244	3.023	3.053	2.781	2.791	2.740	2.866	2.875	2.806	2.537
460.0	459.6	1460	2100	755.3	666.6	707.2	719.9	724.7	734.2	728.7	691.6	637.1	570.0	502.5	446.9	405.6	385.3	365.1	353.9	343.2	334.8	331.5	328.3	325.4	320.0	314.9	307.7	298.4	292.3	283.1	259.5	233.7	206.0	180.5	164.6	158.5	130.1	97.62	79.69	67.67	56.57	44.87	35.79	31.68	38.09	60.81	153.7	734.4	945.9	132.2	5.221	3.154	2.775	2.806	2.738	2.754	3.215	3.057	3.168	3.358	3.407	3.354	3.335	3.289	3.217	3.013	3.088	3.106	3.076	3.119	2.777	2.840	2.675	2.627	2.550	2.614	2.505
465.0	395.8	874.2	2441	1115	635.9	650.0	673.6	683.2	697.8	685.2	645.0	598.9	540.1	477.5	430.1	383.0	360.1	346.1	334.3	319.2	312.6	309.8	309.6	303.7	299.9	293.0	289.1	281.7	279.6	271.1	249.8	225.0	199.6	176.2	154.1	149.4	136.0	104.8	83.11	70.41	59.48	48.02	40.14	31.78	27.91	29.24	46.23	212.0	845.6	773.5	22.59	4.202	3.031	2.728	2.752	2.845	3.048	3.046	3.205	2.894	3.307	3.199	3.267	3.306	2.921	3.030	2.929	2.923	2.958	2.838	2.754	2.610	2.687	2.581	2.525	2.512	2.338
470.0	394.5	539.1	1667	2089	695.9	601.8	632.6	631.7	647.0	631.6	604.9	561.7	498.9	442.3	395.4	354.8	331.4	313.4	299.6	289.6	283.0	277.7	277.8	273.4	272.0	266.3	262.3	257.5	255.9	249.0	232.5	210.1	188.8	167.6	147.3	134.5	128.1	113.4	88.82	72.04	62.36	51.54	42.36	34.37	28.19	24.06	24.64	58.20	238.3	595.8	661.8	115.9	9.553	3.095	2.807	2.714	3.019	2.871	3.011	2.887	3.048	3.036	3.019	2.928	2.877	2.798	2.733	2.673	2.690	2.651	2.534	2.397	2.496	2.386	2.312	2.478	2.286
475.0	385.9	411.6	792.0	2247	1419	547.0	580.3	576.4	586.8	586.3	559.1	517.4	462.1	404.8	361.1	328.2	299.0	284.1	274.7	259.0	254.0	250.5	245.4	246.7	242.0	242.7	236.3	233.6	232.4	224.9	212.5	194.4	175.9	157.1	138.9	124.9	113.4	110.6	97.35	76.40	62.28	52.93	44.09	36.28	31.03	24.93	21.08	25.03	63.01	143.2	326.6	711.4	180.9	10.76	2.984	2.641	2.873	2.645	2.694	2.611	2.874	2.882	2.647	2.833	2.570	2.602	2.435	2.702	2.470	2.408	2.454	2.159	2.240	2.197	2.101	2.291	2.101
480.0	363.5	387.9	499.7	1583	2230	601.7	528.3	545.9	549.7	554.8	528.7	486.9	434.2	384.2	337.7	302.0	280.5	260.0	253.7	237.7	234.8	229.1	230.7	227.3	224.6	221.7	219.2	217.0	214.6	211.1	199.7	182.7	166.1	148.3	131.3	119.5	105.5	102.0	97.80	80.56	64.63	53.75	45.25	37.87	32.67	26.62	21.86	19.33	25.19	40.81	85.33	402.2	702.8	159.4	5.987	2.895	2.859	2.637	2.424	2.445	2.680	2.509	2.539	2.600	2.447	2.515	2.503	2.575	2.418	2.288	2.274	2.137	2.080	2.062	2.091	2.023	2.120
485.0	339.7	407.7	417.7	891.6	2522	1014	507.2	515.8	517.0	519.5	507.9	458.5	414.4	363.2	321.4	287.2	264.0	245.6	236.0	228.4	220.4	214.5	212.3	212.2	208.3	206.0	202.9	202.9	201.3	197.3	191.0	174.9	159.1	142.9	128.1	114.7	102.4	94.51	91.04	84.87	68.39	54.44	46.09	39.99	33.92	27.93	23.26	19.91	17.22	18.27	27.04	110.5	518.7	650.0	27.80	4.076	3.006	2.845	2.560	2.459	2.426	2.633	2.539	2.607	2.378	2.378	2.320	2.381	2.246	2.233	2.208	2.081	2.024	1.883	1.771	2.020	1.865
490.0	286.6	413.4	392.3	513.0	1652	2002	608.6	480.2	484.8	482.0	469.3	433.6	382.4	339.6	297.3	265.0	242.6	228.9	217.1	206.1	201.3	196.6	193.7	192.5	189.3	187.2	186.1	185.4	185.6	181.4	174.8	162.3	148.6	134.1	121.6	109.3	98.49	89.13	82.53	80.57	72.73	57.60	47.82	41.54	35.25	29.46	25.42	20.70	17.01	14.92	14.89	32.01	138.6	392.5	548.5	244.4	12.50	2.933	2.607	2.268	2.484	2.437	2.337	2.469	2.334	2.404	2.211	2.158	2.033	1.932	2.035	2.014	1.812	1.894	1.777	1.829	1.890
495.0	245.3	364.7	401.0	393.4	745.4	2171	1259	448.8	440.7	444.0	429.9	394.4	351.2	314.0	274.1	241.8	221.9	210.2	195.9	187.0	183.7	176.7	173.0	172.9	170.3	169.4	170.2	169.1	168.6	165.4	159.6	149.7	136.7	123.1	113.8	102.2	93.10	84.04	77.32	72.31	70.40	62.68	48.38	41.28	36.34	30.40	26.38	22.59	18.56	15.02	12.89	15.33	37.66	93.99	244.9	651.5	222.6	14.82	2.816	2.201	2.297	2.293	2.195	2.143	2.179	2.183	2.059	1.903	1.849	1.964	1.901	1.814	1.656	1.690	1.642	1.769	1.514
500.0	217.6	308.3	400.3	356.5	444.4	1480	2038	503.3	406.8	414.4	388.5	364.5	326.0	288.2	252.1	223.4	204.7	193.1	180.3	171.5	164.8	163.2	157.3	158.8	157.3	154.6	154.5	152.6	153.9	152.6	147.2	137.4	126.4	115.5	106.6	96.80	88.61	78.90	72.90	66.53	63.64	62.31	52.86	42.07	35.71	30.66	27.25	23.33	19.50	16.06	13.30	12.22	15.90	27.13	62.24	312.4	675.8	190.3	8.381	2.530	2.339	2.104	2.248	1.957	2.029	2.014	1.899	1.801	1.820	1.816	1.865	1.621	1.539	1.674	1.508	1.699	1.569
505.0	191.3	277.3	379.7	350.3	361.9	787.2	2346	847.8	380.3	381.4	367.5	343.8	304.0	272.5	236.9	208.7	190.5	177.2	166.8	157.6	152.3	150.3	144.1	144.0	142.9	142.1	141.4	141.8	139.7	139.7	135.6	127.2	116.0	107.8	99.88	91.18	83.29	75.89	69.88	62.20	57.41	57.57	54.47	42.78	35.82	31.29	27.15	22.75	19.87	16.96	13.97	11.80	11.07	12.86	19.46	80.53	393.3	619.8	31.91	4.412	2.253	2.188	2.174	1.725	2.044	1.741	1.817	1.774	1.765	1.559	1.638	1.587	1.476	1.448	1.454	1.478	1.523
510.0	181.7	236.2	318.2	350.4	314.0	424.6	1486	1799	466.0	338.8	331.4	306.4	274.2	244.5	214.9	185.7	171.6	158.3	149.8	140.4	135.3	131.7	129.1	128.0	126.6	124.2	124.1	123.5	124.8	123.3	121.3	114.0	104.5	96.13	89.85	82.41	75.54	69.10	62.79	58.13	52.44	49.79	48.98	45.09	36.77	30.75	26.36	22.60	19.55	16.88	14.66	12.35	10.88	9.537	10.26	22.99	99.41	307.3	442.1	214.5	12.95	2.292	1.994	1.787	1.881	1.663	1.724	1.649	1.614	1.521	1.417	1.489	1.371	1.351	1.415	1.426	1.347
515.0	157.6	192.9	261.3	336.3	297.6	296.5	612.1	2031	1060	307.3	296.1	273.0	243.7	215.7	186.4	164.9	149.9	140.2	130.0	125.6	117.8	114.5	113.0	110.5	108.9	109.4	108.7	108.4	110.6	107.8	105.8	98.44	93.08	85.70	79.11	73.55	66.99	61.98	56.79	52.65	47.64	44.21	41.98	42.05	38.18	30.75	25.67	22.31	19.11	16.77	14.66	12.91	11.09	9.154	8.671	10.42	26.92	72.78	155.0	459.8	224.0	16.20	2.056	1.872	1.777	1.573	1.623	1.310	1.416	1.413	1.438	1.502	1.393	1.343	1.247	1.204	1.244
520.0	145.6	176.5	226.0	298.9	299.0	248.6	337.9	1350	1844	358.5	265.5	251.4	220.1	193.0	168.7	151.1	137.0	127.9	118.3	112.6	106.2	104.8	102.1	99.65	98.99	96.61	99.05	97.15	100.3	98.22	96.17	91.67	84.07	77.76	72.42	66.50	61.78	56.77	52.82	48.40	44.40	40.54	37.61	37.01	37.89	31.93	25.53	21.61	19.37	16.21	14.59	13.25	11.07	9.557	8.522	8.153	10.92	20.28	38.80	191.7	473.5	189.9	9.909	1.908	1.661	1.496	1.434	1.388	1.267	1.326	1.261	1.304	1.247	1.261	1.180	1.102	1.174
525.0	131.4	163.2	190.0	255.7	305.9	242.6	261.2	679.3	2204	692.6	246.6	232.9	205.9	179.5	156.5	138.2	125.2	115.4	106.8	104.5	97.40	95.44	91.95	89.33	89.53	89.73	86.71	87.48	89.01	87.53	86.63	82.41	76.09	71.37	64.84	59.98	56.90	52.46	49.48	45.03	41.26	38.09	34.26	32.20	34.51	32.67	26.24	20.92	18.40	16.32	14.03	13.07	11.05	9.847	8.397	7.371	7.511	8.791	12.26	48.11	235.9	451.0	138.5	4.372	1.598	1.446	1.335	1.297	1.254	1.241	1.189	1.183	1.150	1.192	1.123	1.003	1.058
530.0	118.8	146.4	168.9	199.4	272.0	245.2	215.9	325.8	1374	1645	327.2	203.1	178.3	157.9	139.1	122.1	110.5	102.5	94.96	90.33	86.13	83.64	80.75	79.66	78.30	76.44	75.36	75.60	76.80	76.41	75.81	71.99	67.48	63.05	57.37	53.27	50.07	46.16	43.03	40.32	36.84	34.11	30.93	29.06	28.99	28.55	26.92	21.60	17.61	15.35	13.39	12.28	10.62	9.764	8.542	7.404	6.707	6.533	6.279	13.87	58.18	195.8	323.9	135.3	13.08	1.623	1.424	1.217	1.048	1.055	1.088	1.089	1.037	0.965	1.086	0.995	0.930
535.0	97.55	120.2	142.6	165.9	208.0	255.2	195.4	208.6	514.2	1849	907.2	180.0	156.8	136.9	120.4	105.6	96.68	88.19	81.44	77.58	75.14	71.92	67.58	67.30	66.84	65.77	66.30	66.44	65.76	66.29	64.24	60.90	57.96	53.50	50.06	46.12	43.57	39.81	38.09	35.36	32.10	29.79	27.87	25.77	24.73	23.73	24.72	22.06	17.16	14.23	12.56	11.78	10.12	8.711	8.638	7.376	6.854	5.801	4.979	6.379	15.67	46.23	99.85	290.1	214.4	16.82	1.473	1.235	1.148	0.979	0.979	0.984	0.916	0.894	0.913	0.909	0.859
540.0	98.21	112.6	131.5	144.3	170.9	239.7	188.2	170.2	247.6	1169	1671	215.1	141.8	123.9	106.8	95.49	86.12	78.91	72.78	68.32	64.90	63.49	59.05	58.95	59.10	58.32	57.41	58.99	57.70	58.57	57.25	54.18	51.66	47.27	45.23	41.33	38.57	35.74	33.84	31.59	28.86	26.59	25.01	23.73	22.19	20.53	20.99	21.48	17.11	13.65	12.42	10.93	9.295	8.403	7.946	7.425	6.602	5.594	4.706	4.332	6.116	12.79	24.42	111.0	328.0	166.8	8.757	1.214	1.181	1.007	0.881	0.908	0.840	0.855	0.742	0.796	0.852
545.0	86.81	94.39	103.5	125.8	143.1	208.4	199.7	157.7	170.6	520.2	1970	470.7	127.0	111.2	94.34	85.08	76.11	70.15	65.13	62.12	58.03	56.64	54.08	53.08	52.66	52.09	51.19	50.62	52.17	52.20	51.06	48.56	44.57	41.99	40.43	36.97	34.04	31.63	30.35	28.13	26.07	24.41	22.80	21.04	20.02	18.52	17.88	18.34	16.99	13.67	11.11	10.15	8.677	8.166	7.428	7.013	6.755	5.360	4.565	3.990	4.216	5.094	7.567	27.37	148.2	311.2	33.73	3.647	1.221	1.161	0.936	0.820	0.801	0.851	0.832	0.863	0.860
550.0	77.54	86.83	94.73	104.9	113.2	148.2	206.3	145.1	134.8	222.2	1152	1323	152.6	92.63	81.20	71.72	65.32	59.14	54.24	51.46	48.63	46.55	45.00	45.18	44.12	42.79	42.69	42.64	43.50	43.17	42.17	40.50	37.73	35.74	33.41	31.27	28.72	27.32	25.63	24.53	22.17	20.82	19.78	18.12	17.45	15.84	14.95	14.41	14.88	13.34	10.78	8.981	7.773	7.217	6.653	6.257	6.042	5.347	4.437	3.728	3.332	3.303	3.541	7.888	35.98	127.0	198.1	116.4	11.66	1.083	0.918	0.867	0.749	0.729	0.802	0.694	0.735
555.0	59.74	74.70	79.48	90.89	90.39	106.0	165.1	153.0	116.6	129.4	380.2	1565	552.5	79.89	67.44	58.09	54.47	48.65	44.42	42.80	40.39	39.66	37.04	37.29	36.55	35.47	34.43	34.24	35.49	35.07	34.55	32.75	30.96	28.32	27.54	25.96	23.58	22.40	21.65	19.63	18.18	16.95	16.33	15.26	14.57	13.39	12.15	11.46	11.71	12.00	10.40	8.013	6.925	6.374	6.002	5.574	4.953	4.762	4.345	3.715	2.916	2.705	2.573	3.375	9.578	29.70	60.31	189.3	150.3	13.08	1.032	0.829	0.740	0.678	0.612	0.590	0.684
560.0	55.67	68.42	71.14	79.15	79.33	84.45	124.0	162.0	103.2	102.1	155.7	964.5	1181	99.29	57.13	50.75	46.69	40.35	37.96	36.70	34.54	33.84	31.10	31.33	30.32	30.17	29.28	29.51	29.19	30.33	29.40	28.36	25.75	24.33	23.54	21.53	20.21	18.60	18.49	16.80	15.59	15.25	14.03	12.96	12.37	11.18	10.53	9.817	9.411	9.704	10.04	8.138	6.586	5.774	5.507	4.825	4.519	4.257	4.272	3.566	2.701	2.634	2.409	2.228	3.524	7.903	14.92	70.54	203.0	106.2	5.526	0.803	0.670	0.705	0.539	0.629	0.630
565.0	62.00	64.21	60.78	66.10	67.61	73.02	92.36	155.2	100.5	82.49	93.47	392.6	1506	161.6	51.14	45.10	40.69	36.95	33.60	30.73	30.81	28.79	27.77	27.18	26.00	25.92	24.83	25.03	25.43	26.12	25.66	23.94	22.29	21.14	19.69	18.66	17.12	15.86	15.26	14.46	13.32	12.84	12.50	11.16	10.57	9.854	9.408	8.446	8.096	7.775	8.586	7.960	6.306	5.053	4.765	4.380	4.142	3.753	3.593	3.477	2.537	2.264	2.093	1.819	2.020	2.909	4.505	17.21	87.93	187.0	32.79	2.265	0.787	0.585	0.565	0.601	0.554
570.0	61.85	59.89	56.55	57.04	54.76	60.54	67.58	114.8	121.4	72.38	71.09	145.1	890.1	876.5	74.55	36.20	32.77	30.43	27.53	25.80	24.02	23.90	22.56	22.50	21.13	20.30	20.71	21.05	20.50	20.78	20.59	19.51	17.86	17.61	15.66	15.23	13.94	13.37	12.53	12.03	11.30	10.64	10.20	9.019	8.863	8.351	7.726	7.010	6.617	6.110	6.583	6.913	5.910	4.705	3.998	3.738	3.536	3.217	3.061	2.873	2.868	2.409	1.848	1.732	1.653	1.769	2.009	4.811	21.13	73.70	118.5	71.32	8.809	0.650	0.479	0.572	0.524
575.0	55.05	58.25	46.66	50.36	48.85	47.82	55.45	72.42	125.7	78.27	59.36	74.17	271.4	1110	332.4	29.65	26.60	24.79	21.90	21.39	19.82	18.82	18.03	17.45	17.09	16.89	16.28	16.44	16.87	16.70	16.17	15.66	14.29	13.74	12.77	12.28	11.41	11.15	10.21	9.870	8.822	8.430	7.982	7.457	7.203	6.798	6.302	5.888	5.583	5.145	4.841	5.052	5.156	4.561	3.686	3.395	2.928	2.661	2.669	2.439	2.467	2.400	1.753	1.656	1.329	1.331	1.438	2.022	5.521	17.09	35.02	106.3	89.15	8.121	0.624	0.507	0.511
580.0	54.95	53.75	44.15	38.59	42.65	43.07	49.38	52.22	109.3	94.63	54.50	55.07	96.45	687.2	780.1	39.93	22.67	20.75	18.72	17.53	16.38	15.87	15.32	14.43	14.92	13.89	13.74	14.49	13.95	13.63	13.49	13.60	12.32	11.55	10.59	10.59	9.544	9.069	8.835	8.470	7.535	6.982	6.608	6.668	6.400	6.044	5.570	5.188	4.666	4.434	4.008	3.922	4.324	4.516	3.549	2.894	2.591	2.578	2.508	2.165	2.089	2.060	2.059	1.398	1.248	1.241	1.180	1.241	2.012	4.490	8.564	38.41	117.1	34.82	3.819	0.515	0.503
585.0	48.64	48.45	40.96	35.51	36.43	39.14	40.00	44.56	77.39	110.1	53.32	48.55	53.55	267.4	1027	101.2	20.32	17.84	16.95	14.90	14.77	13.79	13.23	12.52	12.94	12.62	11.87	12.61	11.79	11.61	12.20	11.72	10.63	10.02	9.301	8.874	8.206	7.565	7.509	7.436	6.753	6.258	5.824	5.730	5.861	5.172	4.778	4.486	4.058	3.840	3.648	3.288	3.437	3.937	3.528	2.745	2.393	2.126	2.208	1.893	1.678	1.744	1.889	1.696	1.172	1.195	1.068	1.071	1.199	1.661	2.508	9.346	49.61	103.7	29.84	1.453	0.550
590.0	44.64	50.03	39.27	33.67	34.31	33.60	34.56	37.70	51.95	100.5	67.64	43.92	41.27	87.53	601.9	533.3	30.87	14.87	13.92	12.45	11.94	11.34	11.11	10.80	10.05	10.17	9.774	10.27	9.712	9.502	9.818	9.191	8.481	7.974	7.459	7.335	6.883	6.622	6.045	5.720	5.497	5.134	4.874	4.663	4.801	4.370	3.881	3.787	3.519	3.185	2.961	2.824	2.654	3.071	3.114	2.837	2.196	1.912	1.849	1.653	1.564	1.469	1.414	1.670	1.331	1.227	1.032	0.971	0.922	0.957	1.143	2.636	11.87	41.06	71.80	45.85	6.228
595.0	49.06	43.86	38.17	29.57	29.38	28.76	28.17	30.87	36.63	67.69	89.01	40.77	35.55	40.35	175.3	713.2	97.41	12.94	11.34	10.13	9.966	9.133	8.869	8.975	8.407	8.393	7.831	7.585	8.125	8.099	8.071	7.663	6.635	6.459	6.349	6.108	5.370	5.392	5.131	4.679	4.331	4.068	3.803	3.894	3.865	3.625	3.261	3.128	2.831	2.665	2.381	2.265	2.082	2.218	2.564	2.585	2.324	1.825	1.509	1.574	1.403	1.221	1.341	1.233	1.402	1.330	0.993	0.796	0.725	0.796	0.832	1.110	3.153	9.623	20.67	62.75	36.37
600.0	40.54	36.11	35.94	27.77	27.02	23.14	25.54	28.33	31.56	48.05	89.52	44.03	30.41	29.23	56.02	460.2	428.7	17.30	10.10	8.407	8.654	7.852	7.294	7.077	7.207	6.971	6.912	6.986	6.954	6.826	6.473	6.481	5.892	5.719	4.953	4.754	4.586	4.399	4.470	3.814	3.738	3.566	3.357	3.294	3.198	2.996	2.887	2.519	2.546	2.102	2.163	1.904	1.805	1.822	2.161	2.154	2.113	1.677	1.345	1.493	1.212	1.110	1.063	1.087	1.300	1.387	1.020	0.855	0.765	0.776	0.794	0.815	1.151	2.586	5.104	22.43	64.45
605.0	38.92	37.97	31.02	29.18	23.02	22.14	26.49	28.33	30.23	37.46	80.16	56.70	30.30	25.35	26.45	178.6	613.2	57.69	8.625	7.672	7.325	6.533	6.270	6.068	6.252	6.110	5.560	6.096	5.939	5.716	5.476	5.446	5.036	4.774	4.447	4.176	4.232	3.748	3.749	3.366	3.320	2.935	3.040	2.730	2.762	2.690	2.556	2.203	2.250	1.940	1.909	1.698	1.740	1.647	1.561	1.785	2.015	1.649	1.284	1.250	1.086	0.997	0.998	1.024	1.055	1.161	1.062	0.841	0.701	0.675	0.562	0.659	0.637	0.956	1.589	5.485	27.21
610.0	40.00	39.22	31.35	26.88	21.51	22.93	22.61	24.62	26.83	33.08	56.02	72.39	33.86	23.24	18.72	54.02	400.6	315.9	13.62	6.498	5.944	5.444	5.443	5.214	4.944	4.984	4.823	4.583	4.901	4.819	4.620	4.645	4.080	3.905	3.769	3.464	3.326	3.160	3.015	2.742	2.771	2.500	2.388	2.321	2.233	2.256	2.030	1.814	1.769	1.658	1.548	1.482	1.332	1.364	1.221	1.378	1.607	1.537	1.320	1.143	0.874	0.932	0.878	0.873	0.913	0.916	0.958	0.951	0.706	0.607	0.587	0.589	0.520	0.567	0.741	1.561	6.681
615.0	35.25	36.19	26.84	25.86	19.38	19.72	22.82	21.55	24.99	28.84	37.32	66.43	42.70	21.96	15.40	20.85	119.9	477.7	67.12	5.735	4.956	4.788	4.445	4.045	4.046	3.819	3.906	4.002	3.564	4.008	3.796	3.832	3.308	3.228	3.047	2.746	2.709	2.538	2.509	2.270	2.353	2.212	1.887	1.650	1.874	1.809	1.482	1.525	1.438	1.401	1.263	1.171	1.139	1.071	1.062	1.140	1.211	1.326	1.217	1.166	0.821	0.747	0.703	0.705	0.834	0.712	0.698	0.848	0.707	0.578	0.570	0.484	0.423	0.501	0.533	0.723	1.827
620.0	37.16	30.25	27.86	22.82	20.98	18.91	20.10	20.07	23.70	25.75	31.39	51.63	53.56	21.44	15.57	13.15	35.76	338.7	256.1	6.978	4.324	3.865	3.673	3.555	3.464	3.329	3.330	3.145	3.248	3.074	3.225	3.099	2.962	2.773	2.666	2.393	2.521	2.091	2.237	1.920	1.774	1.800	1.730	1.503	1.582	1.596	1.340	1.287	1.233	1.091	1.064	1.084	1.128	0.863	0.923	1.007	0.940	1.005	1.271	1.087	0.913	0.709	0.631	0.644	0.699	0.803	0.515	0.719	0.859	0.652	0.505	0.488	0.518	0.469	0.470	0.522	0.692
625.0	30.95	29.15	28.39	19.40	18.62	17.91	19.42	20.31	20.91	24.95	26.63	39.24	60.09	24.46	15.12	10.71	14.31	141.7	417.6	26.42	4.062	3.389	3.209	3.289	3.061	2.990	2.954	2.624	2.935	2.733	2.808	2.741	2.594	2.486	2.116	2.067	1.983	1.830	1.865	1.764	1.648	1.565	1.531	1.395	1.410	1.314	1.128	1.074	1.114	1.063	0.974	0.891	0.876	0.875	0.855	0.765	0.723	0.809	1.080	0.991	0.814	0.692	0.584	0.657	0.590	0.681	0.571	0.563	0.778	0.735	0.584	0.462	0.468	0.493	0.472	0.454	0.517
630.0	32.03	29.73	27.32	20.91	17.94	16.54	16.64	18.23	19.89	22.86	25.03	28.65	49.03	33.70	14.32	9.935	9.180	40.07	304.4	171.4	6.131	3.170	2.813	2.962	2.415	2.544	2.375	2.323	2.260	2.233	2.260	2.132	2.077	2.060	1.844	1.825	1.459	1.571	1.429	1.472	1.407	1.267	1.191	1.220	1.193	1.022	1.029	0.938	0.868	0.837	0.832	0.758	0.786	0.735	0.677	0.690	0.690	0.662	0.754	0.892	0.815	0.627	0.631	0.568	0.583	0.545	0.555	0.515	0.666	0.616	0.720	0.568	0.471	0.432	0.412	0.422	0.449
635.0	29.43	30.24	25.31	18.91	17.96	16.60	15.69	17.02	18.29	19.48	22.55	24.60	33.50	40.65	15.63	8.942	7.757	13.20	94.04	340.6	42.96	2.620	2.372	2.268	2.124	2.282	1.915	1.885	2.125	1.888	1.548	1.622	1.722	1.681	1.783	1.534	1.246	1.306	1.271	1.340	1.168	1.172	0.959	0.955	0.901	0.866	0.807	0.836	0.676	0.701	0.598	0.512	0.567	0.670	0.618	0.635	0.555	0.608	0.592	0.660	0.709	0.699	0.693	0.461	0.549	0.485	0.473	0.454	0.481	0.473	0.584	0.620	0.582	0.451	0.409	0.366	0.393
640.0	35.24	30.06	21.36	17.51	17.66	14.35	16.16	15.67	18.01	19.46	21.76	24.45	25.06	40.24	20.80	9.240	7.313	7.245	26.39	271.7	158.8	3.311	2.228	1.998	1.863	1.658	1.581	1.769	1.770	1.517	1.632	1.372	1.385	1.389	1.479	1.180	1.219	1.023	1.039	1.132	0.977	0.983	0.783	0.882	0.807	0.792	0.724	0.724	0.590	0.627	0.601	0.487	0.436	0.577	0.580	0.565	0.504	0.532	0.498	0.481	0.586	0.622	0.622	0.494	0.454	0.434	0.460	0.405	0.448	0.487	0.479	0.562	0.592	0.374	0.332	0.401	0.392
645.0	31.00	24.95	25.21	18.91	13.90	14.71	13.88	16.50	15.56	18.51	20.11	22.16	20.20	32.54	28.77	9.353	6.444	5.461	9.162	123.1	285.3	13.70	2.083	1.863	1.728	1.509	1.526	1.651	1.415	1.422	1.462	1.414	1.320	1.105	1.142	1.162	1.061	0.987	1.044	0.897	0.862	0.794	0.815	0.729	0.683	0.666	0.648	0.543	0.598	0.603	0.529	0.448	0.524	0.560	0.569	0.576	0.470	0.539	0.475	0.387	0.500	0.543	0.564	0.412	0.442	0.434	0.441	0.404	0.405	0.433	0.422	0.534	0.532	0.417	0.422	0.465	0.371
650.0	37.96	32.05	28.26	18.74	13.99	13.45	14.07	14.56	16.18	17.88	19.45	20.28	19.48	24.08	32.34	10.26	6.190	5.018	4.989	37.49	293.6	56.52	2.066	1.774	1.561	1.644	1.301	1.316	1.283	1.218	1.218	1.218	1.224	1.154	1.121	1.052	1.023	0.955	1.006	0.888	0.862	0.820	0.743	0.645	0.597	0.590	0.622	0.590	0.515	0.516	0.490	0.462	0.418	0.495	0.471	0.496	0.426	0.467	0.463	0.360	0.478	0.514	0.560	0.507	0.415	0.455	0.380	0.351	0.445	0.442	0.391	0.401	0.457	0.619	0.373	0.394	0.315
