Sample:	'1
File name:	J2025051408×Í²©Â·ÇÅ.FD3
Run date:	'16:36:59, 05/15/2025
Operator:	Administrator
Comment:	'

Instrument
Model:	F-2700 FL Spectrophotometer
Serial number:	23B8-004
ROM Version:	4J14000 07

Instrument parameters
Measurement type:	3-D scan
Data mode:	Fluorescence
EX  Start WL:	220.0 nm
EX  End WL:	600.0 nm
EX Sampling interval:	5.0 nm
EM  Start WL:	230.0 nm
EM  End WL:	650.0 nm
EM Sampling interval:	5.0 nm
Scan speed:	12000 nm/min
EX Slit:	5.0 nm
EM Slit:	5.0 nm
PMT Voltage:	700 V
Response:	Auto 
Corrected spectra:	Off
Contour interval:	50.000

Peak integration
Integration method:	Rectangular
Sensitivity:	1
Threshold:	1.000

Peaks
No.	ApexEX/EM(nm)	Height(Data)
1	225.0/585.0	66.95
2	225.0/595.0	62.87
3	225.0/610.0	45.37
4	230.0/345.0	1245
5	230.0/560.0	72.62
6	235.0/355.0	1198
7	240.0/265.0	375.4
8	240.0/525.0	268.4
9	245.0/270.0	381.2
10	245.0/535.0	219.8
11	250.0/275.0	489.3
12	250.0/550.0	172.6
13	255.0/280.0	549.2
14	255.0/560.0	150.3
15	260.0/290.0	561.9
16	260.0/575.0	121.8
17	265.0/295.0	739.3
18	265.0/585.0	106.6
19	270.0/300.0	1013
20	270.0/600.0	97.42
21	275.0/305.0	1057
22	275.0/610.0	83.59
23	280.0/315.0	979.2
24	280.0/350.0	1073
25	280.0/625.0	69.32
26	285.0/320.0	1030
27	285.0/635.0	53.63
28	290.0/325.0	934.2
29	505.0/275.0	3.010
30	510.0/280.0	3.341
31	515.0/285.0	3.371
32	530.0/290.0	3.597
33	540.0/295.0	4.803
34	545.0/300.0	5.093
35	550.0/305.0	5.383
36	560.0/310.0	5.353
37	575.0/320.0	5.578
38	585.0/325.0	5.755

Data points
	220.0	225.0	230.0	235.0	240.0	245.0	250.0	255.0	260.0	265.0	270.0	275.0	280.0	285.0	290.0	295.0	300.0	305.0	310.0	315.0	320.0	325.0	330.0	335.0	340.0	345.0	350.0	355.0	360.0	365.0	370.0	375.0	380.0	385.0	390.0	395.0	400.0	405.0	410.0	415.0	420.0	425.0	430.0	435.0	440.0	445.0	450.0	455.0	460.0	465.0	470.0	475.0	480.0	485.0	490.0	495.0	500.0	505.0	510.0	515.0	520.0	525.0	530.0	535.0	540.0	545.0	550.0	555.0	560.0	565.0	570.0	575.0	580.0	585.0	590.0	595.0	600.0
230.0	38.03	470.8	1645	644.1	36.22	6.828	5.501	4.579	3.725	3.229	3.147	3.082	2.358	2.489	1.961	1.740	1.443	1.352	1.215	1.084	1.027	0.906	0.832	0.830	0.777	0.698	0.694	0.622	0.609	0.508	0.503	0.491	0.454	0.395	0.421	0.417	0.434	0.382	0.391	0.371	0.308	0.347	0.366	0.321	0.299	0.302	0.489	2.346	5.121	4.313	2.031	0.572	0.244	0.219	0.241	0.221	0.207	0.231	0.246	0.225	0.214	0.234	0.213	0.227	0.225	0.224	0.218	0.241	0.228	0.217	0.246	0.285	0.219	0.235	0.225	0.269	0.248
235.0	77.98	147.4	1007	2090	581.5	52.12	6.176	5.333	3.953	4.019	3.274	3.474	3.100	2.433	2.253	1.573	1.433	1.383	1.152	1.067	1.060	0.944	0.841	0.738	0.618	0.629	0.716	0.591	0.498	0.559	0.551	0.495	0.462	0.469	0.414	0.350	0.405	0.482	0.362	0.357	0.310	0.352	0.398	0.381	0.426	0.345	0.374	0.731	1.954	3.772	6.388	7.619	3.734	1.005	0.276	0.225	0.225	0.289	0.252	0.234	0.185	0.228	0.206	0.227	0.245	0.221	0.243	0.259	0.217	0.234	0.201	0.302	0.223	0.226	0.215	0.246	0.280
240.0	118.9	112.0	303.2	1686	2474	458.4	28.51	6.198	4.659	4.285	3.669	4.008	2.837	2.810	2.520	1.750	1.725	1.269	1.294	1.063	0.994	0.940	0.930	0.730	0.750	0.669	0.667	0.651	0.569	0.690	0.471	0.513	0.399	0.484	0.375	0.499	0.367	0.425	0.316	0.376	0.377	0.383	0.338	0.369	0.501	0.498	0.518	0.400	0.636	1.174	3.220	8.724	11.40	8.574	3.113	0.606	0.294	0.286	0.241	0.275	0.235	0.258	0.215	0.242	0.230	0.237	0.260	0.225	0.222	0.240	0.238	0.263	0.204	0.288	0.244	0.250	0.221
245.0	92.34	172.9	131.7	562.4	2499	2613	331.6	12.89	6.377	4.413	4.176	4.027	3.221	2.936	2.109	1.963	1.775	1.298	1.306	1.156	1.080	0.862	0.932	0.792	0.845	0.688	0.693	0.651	0.538	0.679	0.515	0.508	0.447	0.447	0.411	0.367	0.376	0.440	0.403	0.391	0.329	0.317	0.314	0.346	0.379	0.532	0.681	0.581	0.433	0.435	0.933	2.943	7.208	13.59	14.26	7.923	2.437	0.423	0.310	0.282	0.238	0.235	0.219	0.225	0.252	0.268	0.239	0.249	0.266	0.253	0.259	0.225	0.208	0.283	0.226	0.242	0.273
250.0	54.36	131.5	214.3	224.3	771.5	2409	3180	1117	64.80	6.466	5.338	4.459	3.728	3.101	2.502	2.006	1.865	1.371	1.474	1.264	1.115	0.974	0.976	0.878	0.843	0.711	0.715	0.699	0.578	0.676	0.567	0.534	0.446	0.443	0.522	0.422	0.401	0.440	0.371	0.353	0.320	0.366	0.370	0.334	0.317	0.356	0.460	0.644	0.818	0.695	0.650	0.954	1.919	4.294	7.981	12.75	15.99	14.81	8.325	2.348	0.409	0.277	0.223	0.272	0.220	0.265	0.271	0.251	0.240	0.246	0.264	0.283	0.247	0.286	0.242	0.259	0.263
255.0	36.76	51.02	161.0	315.1	268.4	611.7	2406	4955	1517	57.87	7.892	5.420	5.010	3.687	2.668	2.187	1.826	1.646	1.679	1.367	1.296	1.081	0.994	0.831	0.848	0.777	0.809	0.748	0.693	0.632	0.654	0.508	0.460	0.458	0.473	0.438	0.408	0.426	0.473	0.364	0.403	0.398	0.370	0.327	0.373	0.283	0.325	0.368	0.473	0.773	1.109	1.288	0.927	1.251	2.051	3.271	5.835	13.97	25.75	25.49	12.70	2.378	0.414	0.288	0.237	0.241	0.289	0.326	0.214	0.250	0.281	0.251	0.276	0.254	0.259	0.241	0.275
260.0	34.67	32.65	68.74	275.9	315.0	194.2	734.5	4067	5468	271.3	25.86	7.464	5.167	4.137	3.144	2.695	1.807	1.958	1.689	1.278	1.200	1.271	1.054	0.875	0.812	0.921	0.761	0.634	0.704	0.654	0.629	0.495	0.532	0.469	0.412	0.442	0.456	0.410	0.377	0.350	0.317	0.404	0.366	0.357	0.304	0.296	0.300	0.293	0.348	0.413	0.727	1.512	1.631	0.960	0.778	1.040	1.622	3.915	11.32	24.59	32.33	24.14	9.613	1.334	0.333	0.280	0.286	0.308	0.238	0.289	0.365	0.282	0.296	0.238	0.369	0.299	0.276
265.0	40.27	28.79	33.14	129.2	375.4	240.2	201.9	1372	5877	5288	212.8	10.93	6.307	5.121	3.887	2.988	1.974	1.923	1.751	1.658	1.173	1.216	1.076	0.961	0.831	0.893	0.750	0.750	0.722	0.591	0.698	0.553	0.528	0.562	0.491	0.452	0.434	0.503	0.368	0.351	0.369	0.392	0.397	0.375	0.376	0.351	0.328	0.301	0.320	0.289	0.396	0.732	1.451	1.903	1.271	0.647	0.635	1.181	2.933	7.136	17.72	34.36	32.77	20.92	5.194	0.551	0.297	0.264	0.285	0.289	0.404	0.272	0.248	0.276	0.336	0.303	0.265
270.0	54.61	46.46	44.49	54.61	183.6	381.2	267.6	354.8	1905	5611	6518	801.5	40.57	7.065	4.898	3.583	2.717	2.284	1.977	1.485	1.442	1.291	1.085	1.093	0.964	0.977	0.814	0.879	0.747	0.705	0.690	0.590	0.645	0.510	0.569	0.423	0.459	0.458	0.386	0.375	0.416	0.385	0.402	0.424	0.453	0.350	0.378	0.407	0.329	0.332	0.311	0.453	0.638	1.144	1.648	2.005	1.695	1.025	1.080	1.970	4.401	10.11	17.95	30.40	32.54	32.29	14.59	4.793	0.668	0.396	0.338	0.352	0.316	0.311	0.303	0.293	0.283
275.0	97.31	116.1	119.9	70.41	71.61	188.5	489.3	315.3	476.6	1436	5289	9294	1051	30.64	8.116	4.775	3.636	2.546	2.474	1.622	1.481	1.276	1.244	1.165	1.014	0.952	0.872	0.763	0.848	0.905	0.756	0.647	0.684	0.594	0.685	0.530	0.524	0.514	0.473	0.416	0.352	0.473	0.446	0.479	0.532	0.488	0.463	0.568	0.542	0.509	0.434	0.462	0.424	0.506	0.767	1.074	2.430	3.010	1.908	1.068	1.373	2.654	4.420	7.268	10.27	24.58	47.95	33.04	22.02	4.795	0.510	0.332	0.363	0.316	0.327	0.361	0.292
280.0	169.6	186.4	197.2	112.1	60.91	87.41	335.7	549.2	251.5	397.7	1615	8146	8279	145.8	14.82	6.029	4.442	3.209	2.591	2.018	1.862	1.480	1.354	1.175	1.089	1.014	1.007	0.763	0.832	0.852	0.725	0.746	0.674	0.633	0.697	0.642	0.591	0.661	0.575	0.420	0.397	0.488	0.538	0.488	0.590	0.620	0.698	0.727	0.681	0.620	0.455	0.575	0.414	0.498	0.493	0.554	1.108	2.123	3.341	2.584	1.386	1.069	1.474	2.136	2.873	6.617	17.64	35.60	57.56	32.04	16.77	2.202	0.395	0.431	0.338	0.334	0.339
285.0	216.0	276.8	283.4	163.7	74.01	67.14	156.6	531.0	353.9	216.8	479.3	2678	9766	6128	104.1	8.850	5.812	3.863	2.886	2.281	1.986	1.569	1.383	1.292	1.290	1.256	0.904	0.930	0.867	0.847	0.798	0.800	0.767	0.738	0.848	0.734	0.660	0.577	0.644	0.466	0.447	0.528	0.618	0.498	0.680	0.765	0.854	1.036	1.003	0.687	0.590	0.680	0.499	0.463	0.396	0.501	0.666	0.980	1.947	3.371	3.237	2.111	1.190	1.075	1.440	2.070	4.680	9.969	24.95	47.22	60.99	28.35	9.821	1.012	0.430	0.327	0.365
290.0	265.2	379.9	383.5	223.3	108.2	85.48	110.9	263.3	561.9	503.2	301.7	778.0	3078	7142	6432	426.7	20.89	5.502	3.910	2.796	2.579	1.867	1.643	1.370	1.477	1.260	1.088	1.005	0.888	0.906	0.826	0.900	0.819	0.792	0.857	0.844	0.673	0.715	0.580	0.618	0.591	0.562	0.550	0.636	0.816	0.846	1.045	1.308	1.152	0.997	0.808	0.786	0.633	0.526	0.537	0.574	0.677	0.674	1.075	1.603	2.261	3.311	3.597	2.785	1.587	1.520	1.985	3.275	6.466	12.93	23.98	34.85	43.42	39.83	18.20	7.917	1.136
295.0	313.8	454.6	444.7	278.8	153.7	118.0	132.4	192.1	334.4	739.3	696.0	463.0	906.9	1853	5272	6570	571.5	14.82	5.655	3.872	2.668	2.101	1.930	1.661	1.608	1.319	1.239	1.082	0.936	0.857	0.845	0.773	0.792	0.800	0.776	0.968	0.794	0.786	0.670	0.629	0.580	0.552	0.654	0.685	0.845	0.981	1.171	1.397	1.384	1.242	0.996	0.944	0.823	0.582	0.696	0.637	0.771	0.822	0.955	1.189	1.394	1.713	2.703	4.342	4.803	2.942	2.109	2.115	2.837	4.206	6.366	8.786	11.83	20.76	42.87	57.54	28.84
300.0	356.2	479.9	478.6	322.3	187.0	156.4	170.4	217.8	300.7	558.0	1013	636.5	500.9	611.7	1566	6638	5340	82.92	8.991	5.110	3.359	2.753	2.163	1.772	1.428	1.388	1.344	1.112	1.165	0.863	0.811	0.804	0.795	0.800	0.920	1.044	0.806	0.803	0.673	0.580	0.588	0.652	0.625	0.690	0.855	1.028	1.174	1.462	1.518	1.352	1.050	1.139	0.943	0.794	0.847	0.798	0.883	1.029	1.057	1.233	1.372	1.486	1.845	2.908	4.431	5.093	3.962	2.618	2.352	2.382	2.822	3.248	3.674	5.617	13.20	32.26	54.06
305.0	360.1	498.0	519.7	351.2	226.7	199.0	218.4	277.6	352.2	498.4	903.3	1057	556.0	405.0	521.5	2193	7380	4008	61.33	6.817	4.039	3.132	2.431	2.192	1.601	1.535	1.537	1.224	1.065	0.948	0.896	0.785	1.098	0.863	0.844	0.842	0.887	0.828	0.646	0.635	0.588	0.611	0.688	0.678	0.902	1.173	1.131	1.537	1.465	1.419	1.201	1.191	1.102	0.895	1.061	0.894	1.113	1.176	1.411	1.490	1.645	1.768	1.969	2.431	3.109	4.075	5.383	5.151	3.586	2.587	2.224	2.359	2.162	2.280	3.870	8.467	18.71
310.0	336.9	496.8	520.8	384.8	262.7	239.1	268.0	330.9	415.2	521.9	713.5	1022	952.6	507.3	346.9	624.4	2342	5138	4453	285.7	14.34	4.363	3.102	2.401	2.040	1.848	1.579	1.343	1.294	1.073	0.970	0.905	1.041	0.938	0.904	0.864	0.871	0.779	0.674	0.690	0.589	0.655	0.605	0.746	0.957	1.051	1.189	1.438	1.584	1.411	1.224	1.333	1.195	1.060	1.117	1.070	1.306	1.487	1.494	1.711	1.999	2.008	2.266	2.564	2.823	3.168	3.933	4.840	5.353	4.777	3.658	2.649	2.183	2.020	1.970	2.901	5.024
315.0	352.7	485.4	532.0	418.8	308.4	290.8	326.9	389.4	473.2	577.1	690.7	824.8	979.2	901.1	420.1	329.3	651.9	1309	3852	4452	409.5	10.86	4.353	3.134	2.668	1.996	1.904	1.489	1.322	1.107	1.049	0.897	0.964	1.001	0.993	0.887	0.880	0.862	0.770	0.680	0.697	0.703	0.644	0.750	0.954	1.194	1.215	1.440	1.645	1.375	1.261	1.313	1.238	1.274	1.291	1.326	1.369	1.591	1.696	1.722	2.019	2.197	2.485	2.716	3.181	3.276	3.532	3.695	4.414	4.620	5.099	4.826	3.423	2.472	1.873	1.946	2.316
320.0	381.1	503.3	583.2	469.8	362.6	340.8	374.5	432.1	523.9	618.7	745.7	818.4	871.8	1030	688.2	348.9	343.6	427.4	1150	4667	3851	61.93	7.155	4.071	3.071	2.232	1.874	1.658	1.444	1.318	1.211	1.041	0.959	0.937	1.024	0.883	0.897	0.823	0.849	0.643	0.646	0.689	0.631	0.754	1.031	1.166	1.351	1.683	1.708	1.436	1.411	1.449	1.381	1.599	1.506	1.654	1.736	1.786	1.799	2.114	2.354	2.328	2.862	2.628	3.326	3.453	3.594	3.552	4.248	4.105	4.384	5.578	5.163	4.359	2.617	2.182	2.014
325.0	409.5	593.6	722.1	579.7	437.2	387.4	414.9	472.5	558.7	674.7	791.9	869.4	863.1	914.4	934.2	500.7	334.9	277.3	378.1	1580	5165	2997	47.71	5.462	3.642	2.333	2.213	1.723	1.621	1.449	1.250	1.127	0.994	0.921	1.079	0.833	0.870	0.812	0.801	0.761	0.612	0.693	0.720	0.788	1.021	1.280	1.592	1.970	1.924	1.775	1.709	1.762	1.712	1.709	1.578	1.665	1.996	1.834	2.007	2.140	2.514	2.473	2.924	3.101	3.573	3.534	3.886	3.957	4.467	4.209	4.252	4.625	4.827	5.755	4.187	3.128	2.382
330.0	466.4	730.9	924.2	789.8	553.6	469.4	464.3	513.2	605.4	742.5	867.0	933.4	927.7	878.4	870.9	778.3	489.5	303.4	249.7	468.9	1663	3732	3384	231.6	12.30	3.526	2.791	2.050	1.729	1.560	1.354	1.113	1.024	0.968	0.988	0.789	0.856	0.750	0.766	0.753	0.651	0.763	0.772	0.837	1.064	1.330	1.722	2.153	2.476	2.352	2.376	2.501	2.070	1.997	1.858	1.900	2.079	2.098	2.294	2.310	2.588	2.826	3.151	3.508	3.695	3.702	4.153	4.423	4.508	4.529	4.403	4.320	4.231	4.665	4.751	4.954	4.275
335.0	494.3	820.2	1107	994.1	699.0	571.0	529.2	563.8	663.7	802.9	932.0	1007	1021	946.3	841.1	794.4	766.6	448.1	290.6	268.6	465.4	951.8	2956	3589	347.8	9.414	3.845	2.799	1.935	1.745	1.631	1.252	1.070	1.031	0.958	0.962	0.993	0.823	0.752	0.803	0.668	0.700	0.827	0.789	1.280	1.504	1.688	2.531	2.737	2.791	2.938	2.963	2.675	2.360	2.170	2.195	2.185	2.329	2.479	2.508	2.874	2.939	3.479	3.812	4.058	4.139	4.366	4.443	4.878	4.884	4.870	4.654	4.400	4.603	4.322	4.444	4.833
340.0	533.3	869.5	1187	1091	786.7	619.9	580.4	601.3	700.6	828.5	955.4	1045	1059	991.7	888.8	774.2	799.1	644.4	357.9	260.8	230.2	289.3	874.0	3711	3181	53.15	6.385	3.529	2.578	1.968	1.454	1.483	1.135	1.216	0.998	0.951	0.962	0.903	0.747	0.839	0.727	0.701	0.903	0.858	1.216	1.547	2.041	2.651	2.993	3.036	3.075	3.173	2.836	2.556	2.525	2.339	2.502	2.405	2.657	2.769	3.049	3.087	3.576	3.782	4.016	4.140	4.393	4.422	4.839	4.706	4.962	4.674	4.811	4.598	4.432	4.339	4.604
345.0	524.0	887.8	1245	1159	865.2	676.9	609.3	624.0	717.5	834.6	962.7	1056	1071	1016	912.3	776.0	727.9	731.6	488.1	295.1	208.0	168.9	267.1	1239	4086	2548	43.60	4.507	2.967	2.227	1.694	1.536	1.344	1.250	1.117	1.025	0.917	0.940	0.782	0.780	0.868	0.848	0.706	0.848	1.219	1.617	1.933	2.823	3.285	3.154	3.303	3.678	3.155	2.941	2.781	2.628	2.575	2.640	2.719	2.923	3.000	3.324	3.521	3.761	4.002	4.087	4.514	4.572	4.849	4.823	5.115	4.950	4.742	4.949	4.715	4.464	4.147
350.0	519.4	889.3	1204	1192	927.7	740.6	655.1	645.5	732.5	850.4	963.7	1047	1073	1023	930.1	801.3	713.0	658.1	616.7	430.5	258.8	185.5	167.6	358.4	1307	2912	2716	211.9	12.27	3.113	2.258	1.789	1.427	1.267	1.143	1.009	0.967	0.982	0.738	0.752	0.844	0.770	0.787	0.935	1.190	1.579	1.943	2.621	3.214	3.217	3.356	3.835	3.312	3.168	2.984	2.770	2.782	2.717	2.829	2.980	3.081	3.347	3.666	3.968	4.230	4.020	4.365	4.756	4.902	5.105	5.018	4.922	5.005	5.154	4.761	4.713	4.462
355.0	490.6	846.6	1182	1198	973.5	805.2	710.8	703.9	767.1	851.3	954.3	1038	1060	1031	941.6	843.7	747.2	644.5	587.8	584.4	390.0	246.7	195.0	197.1	367.9	740.2	2173	3174	333.4	10.73	3.094	2.094	1.615	1.320	1.203	0.952	1.084	0.859	0.778	0.798	0.791	0.787	0.724	0.921	1.178	1.506	2.033	2.458	3.150	3.069	3.269	3.843	3.533	3.249	3.205	2.934	3.069	3.044	3.032	3.252	3.348	3.671	3.747	3.952	4.137	4.149	4.723	4.807	4.717	4.811	4.918	4.955	4.978	5.116	4.968	4.818	4.497
360.0	484.2	806.7	1149	1185	1002	854.0	750.3	741.2	789.0	872.6	969.4	1038	1054	1022	953.4	860.0	776.4	671.2	583.1	580.4	521.4	327.3	238.0	195.2	185.6	231.4	624.8	2774	2902	52.41	5.711	2.774	1.974	1.389	1.220	1.063	1.060	0.867	0.816	0.865	0.864	0.796	0.840	0.970	1.153	1.434	1.736	2.373	2.912	3.153	3.010	3.794	3.608	3.305	3.393	2.977	3.333	3.299	3.072	3.309	3.336	3.755	3.797	3.893	4.086	4.152	4.290	4.733	4.702	4.621	4.958	5.077	5.057	4.992	4.839	4.583	4.917
365.0	470.2	788.6	1120	1148	1037	887.4	787.7	771.9	816.9	890.3	962.2	1029	1033	1016	956.1	873.2	796.0	700.6	613.3	564.6	570.5	451.9	296.1	230.4	177.8	141.6	198.6	877.4	3211	2410	44.43	4.349	2.242	1.804	1.393	1.097	0.982	0.951	0.813	0.836	0.823	0.761	0.776	0.907	1.169	1.450	1.665	2.302	2.661	3.201	2.934	3.608	3.545	3.637	3.459	3.258	3.492	3.485	3.481	3.461	3.446	3.674	3.761	4.013	4.123	4.222	4.279	4.528	4.783	4.709	4.840	4.934	5.378	4.977	4.806	4.556	4.847
370.0	452.9	756.7	1054	1137	1066	921.4	830.6	813.4	844.3	906.5	969.4	1004	1016	998.2	948.7	876.4	809.6	734.3	654.6	595.1	551.9	542.3	434.7	304.2	226.6	165.4	134.5	256.1	977.5	2394	2449	199.2	12.56	2.761	1.785	1.341	1.084	1.040	0.835	0.839	0.784	0.802	0.804	0.951	1.277	1.477	1.622	2.261	2.794	2.806	2.913	3.657	3.633	3.793	3.619	3.369	3.585	3.421	3.550	3.537	3.765	3.931	4.005	4.084	4.143	4.251	4.319	4.613	4.612	4.583	4.901	5.007	4.974	4.852	5.093	4.849	4.860
375.0	451.1	705.5	1019	1100	1048	958.7	859.8	836.1	856.7	902.4	944.0	1001	993.5	979.3	929.1	867.4	816.4	757.6	696.1	638.6	573.2	535.2	538.4	430.9	289.1	214.3	156.0	145.0	277.2	599.4	1734	2824	312.9	12.18	2.706	1.817	1.296	1.157	0.869	0.794	0.877	0.753	0.907	0.987	1.130	1.441	1.687	2.168	2.709	2.637	2.882	3.926	3.705	3.820	3.618	3.524	3.606	3.704	3.647	3.674	3.683	3.805	3.837	4.222	4.106	4.159	4.309	4.447	4.594	4.686	4.612	4.741	4.844	4.869	4.722	4.874	5.210
380.0	430.0	701.3	986.6	1098	1069	973.1	879.0	844.2	856.0	908.5	952.1	986.7	986.2	946.5	921.7	865.7	820.6	772.2	721.5	666.4	605.1	550.6	537.4	518.6	366.1	255.9	191.3	145.4	140.3	186.4	487.8	2151	2499	242.3	5.910	2.202	1.500	1.242	0.945	0.943	0.991	0.754	0.789	0.923	1.138	1.315	1.675	2.180	2.614	2.759	2.865	3.702	3.594	4.028	3.757	3.498	3.712	3.667	3.642	3.476	3.706	3.824	3.909	4.070	4.320	4.166	4.148	4.473	4.321	4.333	4.735	4.661	4.795	4.795	5.075	4.812	5.333
385.0	436.2	677.5	968.6	1092	1047	969.8	893.2	857.1	862.9	908.3	934.7	951.7	957.1	917.3	900.7	852.9	808.2	776.5	727.2	683.7	630.7	576.5	534.7	531.9	458.0	311.0	228.9	172.6	132.7	112.4	156.3	643.6	2351	2005	38.49	3.506	1.930	1.462	1.154	0.968	1.068	0.892	0.895	1.005	1.218	1.295	1.492	2.124	2.453	2.507	2.686	3.569	3.737	3.902	3.940	3.586	3.746	3.763	3.519	3.888	3.584	3.924	4.024	3.952	4.311	4.139	4.191	4.298	4.534	4.401	4.451	4.806	5.022	4.762	4.998	4.588	4.946
390.0	431.2	673.8	928.3	1055	1030	978.5	913.3	862.3	869.9	895.3	921.5	936.3	931.0	898.5	871.9	822.5	794.9	766.6	728.9	697.4	652.9	608.6	562.8	524.4	502.6	419.5	297.6	222.5	171.3	129.6	107.7	191.2	680.9	1670	1753	503.5	12.19	2.324	1.493	1.086	1.042	0.961	1.024	1.014	1.149	1.365	1.549	2.175	2.412	2.425	2.748	3.449	3.652	3.890	3.714	3.537	3.832	3.778	3.592	3.771	3.726	3.853	3.820	3.832	4.069	4.081	4.020	4.226	4.211	4.118	4.392	4.432	4.629	4.719	4.814	4.549	4.932
395.0	394.8	683.7	902.4	1033	1034	978.8	920.5	868.0	860.4	880.8	893.7	910.0	899.8	871.3	844.3	802.3	774.5	752.1	718.0	694.8	666.8	632.3	591.6	543.9	499.2	475.4	402.4	286.4	221.1	170.2	130.6	114.4	199.1	413.8	1052	2079	272.4	13.80	2.460	1.383	1.230	0.975	1.110	1.021	1.160	1.412	1.635	2.022	2.369	2.365	2.727	3.670	3.607	3.602	3.629	3.475	3.820	3.722	3.689	3.585	4.134	3.715	3.692	3.780	3.827	3.983	3.952	4.146	4.045	4.381	4.545	4.417	4.376	4.562	4.682	4.687	4.648
400.0	406.1	675.9	882.7	993.7	1024	991.6	901.9	874.9	865.3	871.6	893.1	890.7	874.9	851.6	818.0	773.3	748.9	729.8	710.8	688.5	666.8	639.2	605.5	562.1	514.2	475.3	457.9	357.3	261.7	207.2	158.5	117.2	105.7	132.4	290.4	1334	1822	227.1	6.721	1.872	1.305	1.136	1.100	1.095	1.049	1.626	1.623	2.093	2.227	2.435	2.588	3.617	3.476	3.662	3.668	3.590	3.643	3.595	3.776	3.574	3.865	3.564	3.598	3.873	3.884	3.793	3.841	3.859	4.280	4.048	4.035	4.231	4.255	4.590	4.480	4.490	4.608
405.0	407.4	681.0	875.9	987.0	1001	976.7	916.5	872.9	863.6	854.1	879.8	869.7	861.7	829.1	795.0	752.6	731.6	711.0	694.8	680.0	660.6	639.9	616.4	572.5	527.2	483.4	458.4	422.0	312.9	242.4	186.0	136.9	102.3	84.36	101.7	376.2	1449	1553	36.30	3.604	1.846	1.330	1.095	1.111	1.133	1.429	1.591	2.001	2.347	2.514	2.427	3.334	3.221	3.756	3.685	3.621	3.663	3.876	3.670	3.839	3.677	3.735	3.502	3.958	4.023	3.967	3.776	3.939	4.025	3.904	4.154	4.188	4.391	4.516	4.328	4.567	4.684
410.0	379.5	642.9	841.8	965.3	988.4	950.9	919.0	863.1	851.6	845.0	860.5	850.7	829.6	796.6	760.5	717.7	693.5	677.6	664.1	654.1	640.4	629.5	611.0	579.7	539.2	496.9	456.2	437.1	388.8	297.9	225.0	169.6	125.2	93.07	74.55	120.4	402.9	1101	1288	429.8	11.78	1.901	1.316	1.199	1.173	1.462	1.545	2.012	2.260	2.382	2.491	3.346	3.155	3.656	3.616	3.508	3.938	3.663	3.754	3.556	3.648	3.695	3.760	3.826	3.823	3.698	3.692	3.744	3.822	3.643	3.956	3.993	4.202	4.225	4.150	4.444	4.243
415.0	373.6	595.7	796.0	940.3	977.2	941.0	895.1	860.8	844.0	828.8	830.9	816.1	800.0	768.4	723.8	678.5	652.4	631.6	631.9	618.3	615.1	606.9	594.7	573.7	541.0	507.8	460.1	429.9	410.0	367.2	268.2	199.5	150.3	112.5	83.43	73.43	122.2	270.2	656.3	1455	254.7	13.93	2.032	1.379	1.376	1.366	1.628	1.815	2.168	2.231	2.520	3.105	3.277	3.566	3.672	3.752	3.997	3.717	3.852	3.575	3.839	3.421	3.569	3.768	3.529	3.602	3.607	3.778	3.478	3.575	3.956	3.629	3.906	3.783	3.959	4.277	4.238
420.0	361.1	578.6	780.1	897.5	922.8	920.2	888.4	847.0	828.2	819.5	812.0	790.8	763.2	731.9	695.0	644.5	616.7	606.4	595.5	593.3	589.0	583.5	577.2	560.3	539.8	505.7	465.4	425.7	398.7	387.1	311.1	222.8	167.9	126.5	94.81	69.67	65.76	85.84	174.4	837.7	1329	212.6	6.706	1.756	1.431	1.498	1.698	1.965	2.252	2.271	2.494	3.063	3.079	3.399	3.518	3.338	3.801	3.577	3.504	3.704	3.715	3.645	3.546	3.569	3.460	3.687	3.489	3.392	3.530	3.481	3.610	3.693	3.595	3.842	3.819	3.839	3.989
425.0	359.2	567.5	771.1	864.4	900.9	906.5	859.9	833.5	807.8	802.3	802.3	766.3	740.7	706.9	658.8	617.4	592.7	577.8	565.2	564.4	557.6	557.2	555.6	548.0	531.9	499.1	465.3	430.3	394.8	378.1	345.6	253.3	185.7	138.9	107.3	77.96	58.73	49.47	59.17	228.0	952.8	1155	34.81	3.339	1.748	1.710	1.491	2.018	2.102	2.136	2.382	2.919	3.085	3.214	3.316	3.345	3.815	3.769	3.399	3.410	3.610	3.537	3.522	3.628	3.459	3.625	3.381	3.358	3.473	3.395	3.398	3.477	3.586	3.650	3.448	3.781	3.653
430.0	368.5	539.0	741.7	849.0	878.1	874.4	851.5	819.6	800.2	787.3	777.9	751.4	714.5	674.0	629.9	584.3	560.3	543.0	532.6	529.4	525.1	527.6	528.7	522.7	513.6	488.1	461.4	433.1	396.6	367.8	342.7	293.3	217.4	158.7	123.0	93.14	69.18	50.51	40.32	69.05	254.5	738.8	960.2	360.7	11.82	2.263	1.786	2.087	2.014	2.039	2.294	2.793	3.049	3.271	3.293	3.211	3.420	3.607	3.579	3.517	3.497	3.540	3.474	3.541	3.387	3.359	3.253	3.307	3.302	3.323	3.284	3.313	3.471	3.545	3.196	3.475	3.636
435.0	429.4	502.7	704.8	817.6	841.6	849.6	834.6	804.5	789.1	775.2	754.9	746.1	686.9	645.3	602.0	555.5	524.5	511.7	498.0	495.3	490.1	497.4	496.0	498.9	490.9	473.4	451.3	428.0	400.7	370.5	331.3	299.6	255.2	185.7	139.3	108.8	82.74	60.23	42.96	40.24	73.90	178.6	458.5	1172	240.6	14.76	2.230	2.153	2.091	2.077	2.364	2.834	2.893	3.053	3.148	3.327	3.436	3.608	3.423	3.438	3.596	3.561	3.503	3.460	3.531	3.451	3.215	3.084	3.286	3.170	3.243	3.191	3.221	3.211	3.180	3.395	3.445
440.0	540.0	525.3	682.3	778.6	822.3	828.4	824.2	789.9	778.3	757.9	749.7	715.9	670.2	617.8	572.5	529.3	498.0	481.1	473.3	467.6	463.4	467.9	475.7	474.9	473.3	455.2	441.6	420.5	396.8	367.6	327.6	288.0	264.8	210.8	151.9	118.9	91.42	67.56	50.08	38.27	37.39	55.09	120.2	665.3	1129	203.1	6.978	2.285	2.248	2.142	2.190	2.905	2.895	3.068	3.194	3.046	3.541	3.579	3.576	3.275	3.518	3.388	3.434	3.329	3.268	3.297	3.215	3.123	3.305	3.114	3.148	2.822	3.255	3.287	3.237	3.049	3.384
445.0	565.9	597.0	647.6	722.3	808.2	803.4	809.6	785.5	759.7	744.4	724.4	694.0	642.3	600.3	545.3	503.6	472.4	459.0	445.0	443.0	438.0	443.0	448.4	452.9	447.1	440.6	425.3	409.2	385.9	362.3	326.1	283.9	252.3	227.3	171.1	127.5	99.05	76.15	57.36	41.76	32.53	30.71	40.59	179.5	811.7	1032	29.46	4.057	2.343	2.212	2.206	2.882	2.791	3.152	2.988	3.010	3.659	3.506	3.363	3.546	3.413	3.532	3.389	3.356	3.298	3.374	3.357	3.088	3.064	2.884	3.099	3.159	3.128	3.056	3.028	3.039	3.140
450.0	411.6	874.1	702.5	697.0	757.2	762.3	761.7	743.9	730.9	712.9	693.4	656.4	609.5	557.8	507.3	468.2	439.6	425.9	412.6	406.6	401.2	407.3	412.9	418.3	412.8	411.7	397.9	387.4	369.9	349.4	317.1	276.7	239.5	216.7	189.5	142.9	108.6	84.36	64.46	49.16	37.87	29.73	26.51	52.81	215.0	653.9	851.1	315.5	10.51	2.492	2.291	2.761	2.772	2.898	2.872	3.029	3.206	3.266	3.198	3.194	3.152	3.209	3.273	3.105	3.153	3.075	2.966	2.893	2.901	2.870	2.981	3.058	3.048	2.726	2.812	2.752	2.841
455.0	268.9	952.6	1071	673.9	709.0	707.7	722.6	705.0	692.0	668.4	659.3	618.9	563.5	521.2	469.0	426.1	401.8	387.2	374.6	368.5	365.5	368.8	372.9	380.0	377.8	373.3	362.5	357.9	348.3	331.9	304.3	268.7	229.8	200.6	182.9	159.7	118.9	91.67	70.51	56.35	44.34	34.21	26.49	27.83	59.30	155.7	377.1	960.2	196.6	11.73	2.499	2.645	2.657	2.738	2.821	2.724	2.955	3.015	3.178	3.046	3.101	3.146	3.138	2.937	3.104	2.784	2.662	2.804	2.719	2.667	2.779	2.709	2.755	2.684	2.693	2.677	2.703
460.0	239.9	731.2	1429	762.0	666.0	680.9	684.6	671.6	644.8	641.1	610.6	580.1	527.4	484.8	437.3	395.9	372.1	357.6	345.4	338.1	335.0	335.9	342.1	348.2	345.4	345.5	336.8	332.3	327.1	312.0	289.8	256.2	223.5	192.9	170.2	160.7	132.8	95.90	74.48	61.11	49.06	38.32	28.90	23.46	26.14	44.44	96.26	515.7	864.7	153.6	7.147	2.867	2.745	2.745	2.595	2.519	2.962	2.994	2.858	2.951	2.982	2.941	2.779	2.752	2.913	2.626	2.543	2.578	2.619	2.469	2.543	2.614	2.538	2.458	2.398	2.276	2.464
465.0	225.4	486.1	1601	992.3	621.8	643.2	647.4	635.1	614.8	596.5	579.5	552.6	492.9	452.4	406.9	373.8	341.4	333.1	320.5	315.4	307.0	309.0	314.4	319.2	320.1	319.1	312.7	310.7	306.1	292.5	274.3	245.6	216.3	185.7	162.7	148.9	136.7	104.9	78.65	63.82	51.66	41.22	31.44	24.73	20.19	20.85	29.90	137.0	622.5	734.6	119.9	4.320	2.743	2.558	2.647	2.502	2.735	2.913	2.655	2.798	2.825	2.913	2.713	2.766	2.720	2.551	2.563	2.504	2.460	2.372	2.336	2.503	2.396	2.283	2.419	2.316	2.354
470.0	226.9	348.7	1072	1753	707.4	584.3	582.0	573.6	566.3	551.9	527.3	501.8	453.8	414.8	369.1	334.3	310.5	297.0	286.0	279.1	272.9	273.5	279.0	282.6	284.9	283.2	279.3	277.3	275.1	267.9	250.5	226.3	200.1	175.6	152.0	135.1	124.6	110.8	85.52	65.73	53.24	43.20	34.31	26.64	20.88	17.26	16.22	38.33	164.1	459.5	591.3	231.6	10.08	2.684	2.383	2.342	2.596	2.571	2.599	2.518	2.640	2.643	2.504	2.559	2.454	2.294	2.339	2.319	2.308	2.365	2.200	2.119	2.301	2.235	2.120	2.169	2.033
475.0	214.8	292.5	569.5	1754	1367	548.0	529.4	516.9	509.7	495.4	479.8	456.7	414.8	373.6	329.7	296.7	279.6	265.7	251.0	246.2	242.4	239.2	247.6	244.0	249.1	247.0	248.2	245.9	243.7	238.7	226.7	207.0	181.9	161.2	142.8	123.8	111.4	104.9	91.45	70.49	54.74	44.07	35.43	28.33	23.08	18.19	14.30	17.10	43.34	108.6	245.5	612.0	186.3	11.46	2.573	2.350	2.465	2.334	2.404	2.582	2.424	2.374	2.200	2.589	2.234	2.122	2.302	2.103	2.032	2.191	2.183	1.903	1.998	2.022	1.900	2.032	1.754
480.0	210.0	270.8	414.6	1183	1974	617.3	484.9	477.9	477.2	471.4	452.9	426.9	385.5	344.2	302.8	272.9	255.3	244.2	230.8	223.4	223.1	217.9	223.0	221.8	225.4	226.1	225.7	224.7	225.6	221.2	209.3	191.5	169.1	152.1	135.1	117.6	104.2	93.77	90.61	75.65	56.13	44.43	36.32	29.62	23.62	19.56	14.88	13.18	16.78	29.88	62.43	318.7	611.6	158.6	5.889	2.408	2.407	2.289	2.320	2.447	2.199	2.247	2.231	2.188	2.092	1.993	1.997	1.935	2.063	1.913	1.829	1.884	1.908	1.838	1.971	1.729	1.753
485.0	204.3	288.8	351.0	686.2	2116	1031	453.5	453.4	442.1	438.2	420.3	387.8	360.8	318.5	282.7	256.9	237.4	225.4	211.6	209.0	202.6	200.7	203.1	205.9	206.8	206.9	207.9	206.6	209.5	204.7	194.0	179.5	162.5	145.8	128.5	112.2	99.56	88.04	82.25	77.95	60.53	45.47	37.06	30.19	24.88	20.48	16.11	12.98	11.55	13.04	19.38	84.93	423.8	581.8	27.81	3.358	2.565	2.530	2.150	2.104	2.200	2.123	2.175	2.005	1.978	2.133	1.953	1.832	1.987	1.815	1.813	1.720	1.751	1.678	1.746	1.661	1.725
490.0	175.2	280.5	337.0	439.0	1339	1851	574.0	417.0	406.0	401.9	385.6	360.6	329.7	290.1	259.5	235.0	214.5	204.5	192.5	186.1	180.0	181.8	181.6	183.7	184.5	186.0	185.7	188.2	187.1	183.9	178.5	164.8	150.2	134.3	120.2	105.9	94.92	83.91	75.06	71.26	65.07	49.68	37.77	30.80	25.83	21.77	17.41	14.11	11.48	10.07	10.66	24.30	112.2	348.2	504.4	120.6	10.96	2.585	2.144	1.998	1.977	2.065	1.962	1.937	1.945	1.943	1.832	1.821	1.707	1.770	1.634	1.571	1.604	1.525	1.518	1.481	1.515
495.0	128.4	257.7	336.9	358.1	627.6	1922	1199	381.1	367.4	366.2	356.6	328.3	295.2	262.4	232.7	210.7	193.4	183.7	173.4	166.6	162.3	160.8	158.7	163.0	162.8	165.8	166.4	163.9	165.3	164.3	158.9	146.5	134.6	123.2	110.0	98.46	87.49	79.07	69.40	62.37	60.72	53.67	40.22	31.19	26.26	22.47	18.69	15.49	12.95	10.63	9.387	11.40	30.11	82.99	235.1	550.4	206.1	11.83	2.350	2.141	1.918	1.940	1.882	1.792	1.778	1.669	1.664	1.591	1.608	1.617	1.443	1.540	1.467	1.391	1.332	1.400	1.409
500.0	126.2	211.4	318.0	322.2	386.2	1294	1910	429.0	341.9	339.8	320.6	297.6	272.0	245.5	216.4	189.7	177.2	166.4	157.2	152.2	147.0	143.8	145.4	145.5	146.8	149.4	149.0	146.6	150.8	148.4	146.2	134.6	122.4	113.8	101.9	93.10	82.16	73.57	65.43	57.87	54.17	53.35	44.23	31.92	25.96	23.40	18.48	15.53	13.44	11.09	9.250	8.873	12.34	23.20	60.06	289.5	583.7	166.1	5.942	2.109	1.891	1.785	1.764	1.683	1.586	1.709	1.520	1.559	1.474	1.391	1.479	1.480	1.316	1.418	1.321	1.389	1.450
505.0	110.8	172.7	308.5	307.2	308.0	675.0	2189	784.4	310.1	305.0	293.2	276.7	249.5	225.0	197.7	172.5	162.3	153.1	142.0	136.5	132.0	130.6	132.2	132.4	132.3	133.2	133.4	135.9	136.3	136.1	134.1	121.7	113.5	104.8	94.08	85.46	76.70	68.92	61.10	54.28	48.64	47.86	45.34	33.58	26.53	22.85	19.21	15.78	13.67	11.40	9.748	8.758	8.576	10.80	18.02	76.90	380.0	533.6	30.47	2.988	1.837	1.727	1.644	1.559	1.347	1.447	1.478	1.428	1.406	1.277	1.331	1.316	1.305	1.330	1.227	1.291	1.261
510.0	96.96	151.3	256.2	302.4	275.1	360.5	1422	1740	389.9	269.3	263.2	243.9	219.3	196.7	173.2	154.4	141.6	132.0	125.6	119.4	116.5	114.1	114.4	114.9	114.7	116.0	116.9	117.5	118.7	118.5	115.9	106.9	99.81	92.02	83.57	76.03	68.87	61.93	55.85	49.29	44.74	40.65	39.66	35.76	27.38	21.84	18.36	15.58	13.47	11.81	10.22	8.983	7.887	8.016	8.883	21.47	98.75	301.0	401.4	125.4	9.965	1.666	1.594	1.504	1.375	1.354	1.314	1.355	1.290	1.306	1.223	1.244	1.075	1.167	1.172	1.160	1.101
515.0	86.77	117.5	192.7	286.1	257.6	256.1	568.1	2079	957.6	241.3	229.8	209.6	195.0	171.4	149.6	133.8	124.2	114.3	108.5	103.1	101.2	96.40	97.48	97.05	97.73	98.03	99.25	100.0	99.92	101.3	98.76	93.13	86.71	79.55	73.00	66.12	60.53	55.77	48.65	44.76	40.10	35.16	33.14	33.27	30.21	21.87	17.80	15.18	13.16	11.75	10.06	9.182	7.921	7.284	6.797	9.323	25.87	70.55	168.0	424.6	190.3	10.35	1.524	1.416	1.222	1.270	1.177	1.188	1.249	1.032	1.088	1.106	0.973	1.105	1.164	0.964	0.975
520.0	65.92	108.6	158.0	256.0	263.3	225.5	290.0	1424	1823	285.4	207.7	191.1	171.9	152.0	133.6	119.2	109.5	103.3	96.24	90.82	87.82	87.69	88.35	87.04	85.77	87.04	86.77	88.86	90.02	89.56	87.34	84.51	77.43	70.74	66.09	59.97	55.14	50.77	45.24	40.37	37.00	31.62	29.17	28.57	29.94	24.16	17.15	14.97	12.36	10.80	9.782	8.847	8.036	7.238	6.303	6.169	9.365	18.70	41.90	209.6	422.3	139.3	4.736	1.417	1.221	1.225	1.223	1.112	1.093	1.074	0.963	1.043	0.960	1.017	0.945	0.950	0.955
525.0	59.78	103.9	133.4	210.7	268.4	203.8	211.7	688.2	2362	591.3	191.7	175.5	154.1	139.6	121.6	106.5	96.72	90.73	88.02	82.34	78.79	79.74	78.50	76.87	76.15	78.44	76.43	79.42	79.65	81.64	78.55	74.53	69.60	63.08	59.66	54.52	50.10	45.88	41.37	38.10	34.00	29.17	27.11	25.12	26.72	23.79	18.32	14.29	11.78	10.33	9.276	8.203	7.976	7.012	6.112	5.470	5.700	7.297	11.92	53.93	253.7	375.8	30.73	2.215	1.148	1.186	1.072	1.027	1.023	0.974	0.859	0.970	0.915	0.912	0.863	0.840	0.801
530.0	71.90	92.71	120.5	160.0	239.7	207.7	172.6	293.9	1583	1690	226.2	151.5	136.5	119.8	106.4	94.37	85.45	80.17	75.38	71.24	69.48	66.78	66.99	66.17	65.90	66.79	66.85	67.61	67.56	69.34	66.82	64.77	60.15	55.24	51.31	47.71	43.71	40.42	36.83	33.59	30.00	26.34	24.15	22.02	21.06	21.35	19.60	14.55	11.27	9.677	8.557	7.765	7.255	6.977	6.077	5.223	4.625	4.503	5.209	14.09	64.41	198.1	249.0	118.2	9.191	1.221	1.042	0.907	0.912	0.832	0.852	0.815	0.897	0.784	0.821	0.793	0.781
535.0	65.43	78.79	111.1	130.6	179.6	219.8	154.1	176.8	568.4	2235	795.8	132.2	116.7	100.5	91.13	80.13	72.72	68.06	64.08	60.06	58.41	57.26	55.24	56.80	55.67	56.21	55.70	56.61	57.54	58.42	56.90	54.30	50.42	46.34	43.09	40.84	37.49	34.53	31.24	29.34	25.98	23.39	21.17	19.26	17.27	17.53	18.68	15.10	11.38	8.748	8.025	7.240	6.386	6.258	5.792	5.106	4.193	3.867	3.362	5.081	16.09	45.90	98.43	293.9	166.3	9.787	1.068	0.887	0.814	0.845	0.726	0.704	0.827	0.714	0.734	0.693	0.674
540.0	53.28	74.28	89.95	110.3	134.9	216.3	151.6	134.2	232.2	1540	1703	159.3	103.5	90.34	81.01	70.95	64.58	60.04	55.58	53.51	50.48	49.93	48.79	50.83	49.15	48.39	48.09	49.07	50.14	50.51	49.23	47.66	44.08	40.70	37.67	35.69	33.54	30.81	27.42	25.38	23.52	21.46	19.09	16.91	15.48	14.29	15.31	14.74	11.76	8.716	7.461	6.954	6.163	5.741	5.374	4.878	4.211	3.801	2.905	3.105	5.318	11.86	24.22	132.4	306.1	117.4	4.259	0.874	0.845	0.803	0.785	0.639	0.680	0.723	0.653	0.648	0.608
545.0	51.37	76.73	81.63	96.98	106.4	178.7	163.4	115.8	138.4	683.6	2337	374.1	92.24	79.61	69.85	63.24	55.62	53.16	49.52	46.33	44.64	44.97	43.09	43.56	42.74	42.46	42.51	42.44	45.19	44.14	43.59	41.84	38.93	36.47	33.13	31.18	29.30	27.46	24.36	22.36	20.64	18.52	17.23	15.19	13.96	12.80	12.39	13.12	11.92	8.695	7.270	6.392	5.714	5.303	4.881	5.002	4.108	3.476	2.867	2.596	2.793	4.257	6.788	32.89	165.5	269.9	30.57	2.156	0.872	0.872	0.676	0.677	0.616	0.747	0.641	0.592	0.537
550.0	52.19	65.04	77.83	82.55	89.34	123.6	172.6	111.9	101.4	240.3	1539	1334	121.3	70.16	58.74	52.76	46.26	43.18	41.01	38.98	37.26	36.77	35.60	35.37	34.76	34.74	35.64	35.27	36.69	36.47	36.04	34.12	31.76	30.01	27.59	26.06	24.68	22.70	20.90	19.17	17.51	16.08	14.23	13.02	11.97	10.80	9.989	10.19	10.56	9.079	7.078	5.675	5.062	4.755	4.104	4.264	3.787	3.506	2.871	2.453	2.172	2.431	2.794	8.588	40.91	129.5	182.0	95.79	9.133	0.903	0.722	0.646	0.624	0.603	0.645	0.583	0.598
555.0	57.30	68.14	69.05	74.95	77.18	88.30	141.9	132.4	81.16	115.8	490.0	2028	502.0	58.49	48.62	42.71	39.81	36.12	33.26	31.92	30.04	29.72	28.70	27.80	27.83	28.14	27.80	28.28	29.77	29.10	29.30	27.47	26.04	24.56	22.44	20.98	20.10	18.77	16.88	15.34	14.54	13.25	11.93	10.99	10.16	9.170	8.114	7.675	8.014	8.427	6.932	5.238	4.493	4.120	3.635	3.485	3.203	3.109	2.896	2.343	1.917	1.795	1.773	3.003	10.20	29.81	62.20	180.9	122.0	9.243	0.849	0.716	0.580	0.584	0.497	0.581	0.477
560.0	55.72	52.43	72.62	64.91	62.94	64.81	102.5	150.3	75.94	80.06	170.0	1395	1257	70.87	40.68	36.41	33.55	30.27	27.87	26.90	24.67	24.22	23.99	24.06	23.13	23.99	23.13	23.13	23.55	24.58	22.99	22.93	21.48	20.42	18.19	17.47	16.65	15.73	14.28	13.16	12.05	11.16	10.03	9.319	8.537	8.101	7.175	6.689	6.290	7.095	6.897	5.396	4.012	3.647	3.101	3.102	2.761	2.523	2.677	2.388	1.863	1.608	1.646	1.745	3.195	7.567	15.23	71.82	185.2	34.79	4.072	0.694	0.582	0.448	0.482	0.459	0.470
565.0	52.36	59.80	69.54	59.12	58.26	56.52	69.69	140.5	84.58	68.94	87.49	569.1	1886	149.3	34.59	31.20	27.92	25.24	24.20	22.64	21.13	20.54	20.57	21.01	20.02	20.48	19.53	20.75	19.76	20.40	19.61	19.42	18.31	17.59	15.70	15.46	14.39	13.53	12.70	11.24	10.91	9.797	8.920	8.161	7.357	6.904	6.642	5.587	5.390	5.596	6.133	5.253	3.922	3.325	2.912	2.902	2.519	2.331	2.310	2.404	1.759	1.457	1.428	1.376	1.812	2.546	4.277	17.68	85.11	152.5	30.84	1.860	0.597	0.458	0.437	0.412	0.483
570.0	53.50	64.98	67.28	55.97	48.94	43.73	49.79	102.3	108.6	62.56	61.85	179.4	1261	929.3	55.81	25.33	23.09	21.01	19.19	17.91	17.23	16.72	16.37	16.43	16.11	16.04	15.83	16.19	16.06	16.48	16.00	15.48	14.56	13.66	12.89	12.09	11.67	10.73	9.989	9.001	8.698	7.904	7.489	6.799	6.166	5.725	5.368	4.616	4.322	4.201	4.407	4.555	4.096	3.055	2.450	2.422	2.189	2.062	1.930	2.045	1.958	1.472	1.394	1.230	1.316	1.428	1.863	4.792	20.61	64.76	104.4	64.97	8.386	0.592	0.477	0.442	0.409
575.0	47.00	63.25	65.58	54.97	41.60	37.94	41.42	59.79	121.8	68.08	54.62	78.17	377.0	1485	311.6	20.98	18.09	17.14	15.99	15.10	14.13	13.79	13.01	12.86	12.54	13.04	12.64	12.98	13.08	13.07	12.55	12.36	11.37	11.43	10.18	9.424	9.128	8.306	8.009	7.156	7.091	6.512	6.084	5.454	5.073	4.804	4.322	3.869	3.499	3.334	3.330	3.438	3.772	3.107	2.299	2.108	2.076	1.860	1.565	1.574	1.627	1.793	1.515	1.126	1.158	1.153	1.184	1.999	5.422	15.24	31.00	95.06	82.05	8.357	0.467	0.410	0.414
580.0	47.15	61.77	63.58	48.16	38.63	37.02	37.89	45.27	105.5	87.32	52.24	54.67	119.0	1022	867.3	27.12	15.98	14.22	13.46	12.43	11.92	11.08	10.96	11.72	11.04	11.30	10.80	10.69	10.99	11.27	10.72	9.875	9.815	9.194	8.635	8.203	7.404	6.666	6.517	6.305	5.981	5.542	5.210	4.764	4.177	3.851	3.824	3.326	3.061	2.875	2.609	2.715	3.143	3.260	2.202	1.961	1.760	1.559	1.439	1.444	1.491	1.788	1.588	1.123	1.195	1.093	1.163	1.268	2.048	4.167	7.892	33.35	103.3	34.77	3.774	0.472	0.403
585.0	51.02	66.95	65.88	44.78	35.66	35.25	32.85	34.98	76.10	106.6	53.53	47.39	55.77	399.6	1308	86.93	14.78	12.33	11.41	10.97	10.49	9.578	9.452	9.648	8.830	9.279	9.077	9.022	9.164	9.338	8.880	8.320	8.087	7.708	7.187	6.705	6.529	6.024	5.809	5.440	5.031	4.776	4.295	3.968	3.904	3.391	3.503	2.847	2.647	2.384	2.211	2.079	2.358	2.767	2.234	1.802	1.700	1.304	1.310	1.253	1.263	1.399	1.693	1.315	1.081	1.069	1.021	1.130	1.254	1.678	2.456	8.282	41.62	91.84	29.55	1.851	0.488
590.0	48.53	56.83	59.34	44.22	33.72	30.56	29.50	31.96	50.33	103.0	65.88	43.40	41.02	118.3	849.3	600.4	23.78	10.34	9.863	8.980	8.706	8.163	7.937	7.616	7.355	7.581	7.376	7.192	7.164	7.430	7.211	6.995	6.259	6.172	5.983	5.612	5.347	4.967	4.756	4.445	4.007	3.959	3.529	3.265	3.199	2.833	2.755	2.553	2.243	2.083	1.860	1.795	1.781	2.142	2.248	1.969	1.528	1.269	1.187	1.085	1.085	1.070	1.235	1.281	1.131	1.032	0.933	0.971	0.972	1.076	1.221	2.496	9.971	34.28	62.49	44.76	7.007
595.0	50.24	62.87	50.95	38.83	29.37	27.21	25.92	27.86	37.06	73.77	87.53	43.65	35.49	46.47	246.0	921.1	92.99	9.153	7.928	7.189	6.996	6.347	6.453	5.820	6.129	6.262	6.031	5.790	5.836	6.018	5.779	5.548	5.013	5.080	4.814	4.600	4.241	4.287	3.757	3.558	3.203	2.979	3.024	2.679	2.648	2.271	2.215	1.980	2.020	1.620	1.483	1.490	1.289	1.365	1.729	1.929	1.654	1.132	1.031	0.978	0.918	0.888	1.018	0.963	1.233	1.094	0.867	0.849	0.996	0.830	0.979	1.149	2.746	8.069	16.76	50.02	36.88
600.0	45.17	45.92	51.25	38.33	28.06	26.09	25.96	28.47	33.69	52.30	97.42	50.12	33.50	30.21	72.04	631.8	474.1	12.36	6.782	6.147	6.103	5.262	5.445	5.349	4.956	5.495	5.024	4.797	4.966	4.770	5.131	4.374	4.177	4.200	4.161	3.839	3.524	3.395	3.169	2.933	2.705	2.476	2.420	2.292	2.243	1.954	1.830	1.724	1.711	1.339	1.376	1.318	1.137	1.203	1.358	1.622	1.677	1.356	0.863	0.837	0.768	0.797	0.935	0.752	0.879	1.038	0.964	0.838	0.752	0.725	0.726	0.776	1.024	2.163	4.086	16.05	54.29
605.0	42.91	42.71	49.38	36.00	24.82	24.59	27.58	29.78	31.62	42.69	85.72	65.75	35.26	27.79	30.19	246.0	746.5	52.13	6.264	5.395	5.373	4.827	4.875	4.707	4.243	4.637	4.480	4.200	4.096	3.984	4.140	3.817	3.429	3.625	3.431	3.341	2.985	2.880	2.576	2.655	2.331	2.183	2.106	2.074	1.970	1.753	1.524	1.408	1.377	1.250	1.085	1.013	1.018	0.933	1.126	1.315	1.607	1.323	0.867	0.726	0.773	0.706	0.781	0.680	0.749	1.069	0.991	0.839	0.702	0.773	0.681	0.621	0.578	0.900	1.261	3.992	20.53
610.0	39.99	45.37	43.97	33.10	25.25	22.42	24.92	25.97	31.35	37.78	61.14	83.59	40.65	27.85	21.75	69.29	511.9	358.9	11.07	4.609	4.329	4.106	3.851	3.936	3.524	3.987	3.643	3.347	3.402	3.419	3.537	3.256	2.960	3.017	2.828	2.696	2.530	2.223	2.129	2.139	1.915	1.883	1.735	1.630	1.596	1.428	1.317	1.209	1.183	1.060	0.985	0.924	0.920	0.829	0.916	1.007	1.226	1.237	0.896	0.760	0.692	0.653	0.674	0.655	0.695	0.728	0.888	0.889	0.684	0.636	0.575	0.607	0.568	0.630	0.600	1.219	4.941
615.0	41.47	35.66	43.05	31.16	23.40	20.73	23.52	27.15	31.16	35.97	44.98	80.23	52.75	29.66	19.62	24.52	150.9	573.1	68.51	4.077	3.578	3.317	3.376	2.960	2.840	2.959	2.978	2.792	2.829	2.930	3.039	2.680	2.335	2.547	2.248	2.121	2.018	1.795	1.778	1.636	1.557	1.480	1.414	1.259	1.308	1.205	1.102	1.029	0.981	0.786	0.823	0.819	0.822	0.746	0.700	0.724	0.816	1.021	1.114	0.719	0.663	0.661	0.671	0.662	0.647	0.655	0.705	0.818	0.783	0.657	0.469	0.556	0.519	0.505	0.469	0.561	1.434
620.0	39.49	36.68	37.13	30.87	24.05	19.70	24.41	25.91	29.42	34.31	40.86	64.37	64.51	29.04	20.06	14.44	43.79	416.6	294.7	5.872	3.080	2.939	3.023	2.614	2.594	2.546	2.513	2.447	2.422	2.505	2.323	2.166	2.034	1.992	1.963	1.739	1.781	1.620	1.503	1.528	1.240	1.276	1.147	1.078	1.093	1.063	1.010	0.878	0.813	0.666	0.737	0.692	0.728	0.635	0.612	0.583	0.688	0.805	0.794	0.796	0.654	0.627	0.559	0.651	0.580	0.602	0.519	0.720	0.731	0.751	0.554	0.541	0.450	0.448	0.465	0.382	0.645
625.0	29.47	36.29	32.23	27.84	21.89	18.40	22.65	25.55	27.05	32.21	36.70	51.61	69.32	32.24	19.55	12.66	17.03	172.8	491.0	27.13	2.977	2.538	2.569	2.478	2.155	2.233	2.115	1.994	2.066	2.080	1.947	1.841	1.779	1.851	1.743	1.589	1.446	1.460	1.248	1.281	1.177	1.118	1.005	1.002	0.959	0.865	0.858	0.756	0.686	0.710	0.643	0.587	0.589	0.575	0.518	0.592	0.644	0.655	0.742	0.745	0.753	0.572	0.505	0.516	0.596	0.553	0.480	0.556	0.627	0.817	0.694	0.532	0.450	0.458	0.426	0.374	0.443
630.0	32.45	34.88	34.38	27.18	22.62	19.93	21.44	22.97	27.13	31.92	36.44	42.78	61.15	43.94	20.78	12.60	11.12	47.66	361.7	191.9	5.050	2.418	2.089	1.959	1.844	1.988	1.789	1.587	1.852	1.969	1.598	1.515	1.537	1.493	1.422	1.374	1.233	1.267	1.050	1.011	1.008	0.957	0.872	0.830	0.862	0.773	0.789	0.641	0.673	0.588	0.576	0.558	0.479	0.540	0.497	0.549	0.582	0.529	0.582	0.673	0.676	0.560	0.510	0.508	0.539	0.518	0.506	0.455	0.532	0.604	0.617	0.538	0.466	0.413	0.384	0.344	0.378
635.0	32.79	35.45	34.41	27.34	21.65	19.14	20.73	24.09	24.72	32.39	34.07	40.33	46.11	53.63	24.06	14.14	10.52	16.49	111.3	393.2	45.56	2.324	1.822	1.712	1.712	1.555	1.538	1.298	1.567	1.542	1.314	1.269	1.121	1.184	1.145	1.167	1.074	1.073	0.947	0.972	0.817	0.877	0.832	0.658	0.637	0.627	0.616	0.580	0.652	0.518	0.476	0.525	0.452	0.495	0.508	0.498	0.522	0.449	0.428	0.512	0.666	0.578	0.500	0.522	0.544	0.459	0.449	0.423	0.433	0.538	0.640	0.600	0.496	0.402	0.388	0.336	0.346
640.0	34.57	35.24	31.94	26.31	22.39	21.21	20.81	21.44	24.70	30.99	34.41	38.07	38.65	52.67	29.41	15.14	11.46	10.26	31.87	318.0	182.0	3.116	1.671	1.587	1.427	1.360	1.502	1.282	1.317	1.310	1.234	1.088	1.107	0.995	0.954	1.147	0.909	0.829	0.710	0.752	0.691	0.723	0.661	0.558	0.577	0.571	0.546	0.562	0.530	0.421	0.424	0.468	0.428	0.380	0.429	0.412	0.420	0.417	0.429	0.410	0.526	0.505	0.569	0.485	0.443	0.383	0.427	0.413	0.473	0.465	0.507	0.489	0.579	0.403	0.393	0.391	0.370
645.0	30.83	43.03	33.62	28.20	22.46	18.44	19.39	21.06	27.01	29.93	35.02	38.03	36.20	46.23	37.36	17.43	13.14	9.381	12.67	146.5	328.0	13.78	1.668	1.581	1.403	1.248	1.278	1.171	1.067	1.268	0.975	0.937	0.972	0.947	0.893	0.815	0.790	0.829	0.651	0.741	0.612	0.567	0.593	0.555	0.549	0.536	0.469	0.458	0.508	0.424	0.358	0.425	0.449	0.365	0.406	0.400	0.386	0.462	0.389	0.363	0.487	0.486	0.521	0.441	0.459	0.479	0.424	0.437	0.440	0.467	0.511	0.392	0.560	0.557	0.356	0.365	0.420
650.0	31.44	37.97	36.20	26.21	20.38	19.93	21.12	22.73	25.01	29.21	33.17	39.31	36.07	40.38	42.38	19.77	12.73	10.70	8.167	45.30	334.2	59.14	1.633	1.290	1.468	1.157	1.156	1.104	1.019	1.040	0.869	1.007	0.900	0.964	0.775	0.673	0.732	0.751	0.669	0.601	0.565	0.477	0.537	0.466	0.510	0.467	0.538	0.384	0.413	0.358	0.401	0.436	0.430	0.314	0.411	0.396	0.357	0.399	0.439	0.395	0.415	0.430	0.521	0.521	0.483	0.474	0.426	0.450	0.432	0.507	0.520	0.440	0.505	0.567	0.399	0.368	0.391
