Sample:	'1
File name:	章丘二厂6.23 10.00 鲁洪对面西 25倍.FD3
Run date:	'09:53:24, 06/24/2025
Operator:	Administrator
Comment:	'

Instrument
Model:	F-2700 FL Spectrophotometer
Serial number:	23B8-004
ROM Version:	4J14000 07

Instrument parameters
Measurement type:	3-D scan
Data mode:	Fluorescence
EX  Start WL:	220.0 nm
EX  End WL:	600.0 nm
EX Sampling interval:	5.0 nm
EM  Start WL:	230.0 nm
EM  End WL:	650.0 nm
EM Sampling interval:	5.0 nm
Scan speed:	12000 nm/min
EX Slit:	5.0 nm
EM Slit:	5.0 nm
PMT Voltage:	700 V
Response:	Auto 
Corrected spectra:	Off
Contour interval:	50.000

Peak integration
Integration method:	Rectangular
Sensitivity:	1
Threshold:	1.000

Peaks
No.	ApexEX/EM(nm)	Height(Data)
1	225.0/305.0	8734
2	225.0/490.0	245.3
3	225.0/595.0	623.4
4	230.0/500.0	229.0
5	235.0/260.0	378.3
6	235.0/515.0	179.0
7	240.0/265.0	445.1
8	240.0/525.0	164.4
9	245.0/270.0	452.8
10	245.0/540.0	147.0
11	250.0/275.0	597.8
12	250.0/550.0	125.7
13	255.0/565.0	128.2
14	260.0/575.0	169.1
15	265.0/590.0	235.9
16	270.0/300.0	3581
17	270.0/600.0	264.5
18	275.0/305.0	3445
19	300.0/335.0	449.6
20	305.0/345.0	375.4
21	310.0/350.0	307.8
22	315.0/355.0	286.8
23	320.0/360.0	271.7
24	325.0/370.0	236.5
25	330.0/375.0	228.0
26	335.0/380.0	230.8
27	345.0/395.0	181.5
28	350.0/400.0	182.3
29	360.0/415.0	150.2
30	365.0/420.0	152.1
31	375.0/435.0	115.3
32	380.0/440.0	109.2
33	390.0/300.0	16.15
34	395.0/460.0	65.76
35	410.0/480.0	37.63
36	415.0/485.0	32.90
37	425.0/500.0	25.21
38	430.0/505.0	22.26
39	440.0/520.0	16.11
40	445.0/525.0	13.95
41	455.0/305.0	21.55
42	455.0/540.0	9.415
43	470.0/560.0	4.847
44	485.0/265.0	2.273
45	495.0/270.0	2.147
46	505.0/275.0	3.180
47	510.0/280.0	3.901
48	545.0/300.0	18.21
49	550.0/305.0	18.31

Data points
	220.0	225.0	230.0	235.0	240.0	245.0	250.0	255.0	260.0	265.0	270.0	275.0	280.0	285.0	290.0	295.0	300.0	305.0	310.0	315.0	320.0	325.0	330.0	335.0	340.0	345.0	350.0	355.0	360.0	365.0	370.0	375.0	380.0	385.0	390.0	395.0	400.0	405.0	410.0	415.0	420.0	425.0	430.0	435.0	440.0	445.0	450.0	455.0	460.0	465.0	470.0	475.0	480.0	485.0	490.0	495.0	500.0	505.0	510.0	515.0	520.0	525.0	530.0	535.0	540.0	545.0	550.0	555.0	560.0	565.0	570.0	575.0	580.0	585.0	590.0	595.0	600.0
230.0	117.3	1514	2160	450.9	14.74	4.420	3.821	3.346	2.768	2.768	2.758	2.513	2.157	1.405	1.135	0.912	0.823	0.699	0.715	0.596	0.580	0.522	0.524	0.430	0.467	0.427	0.393	0.385	0.337	0.335	0.363	0.333	0.310	0.290	0.286	0.275	0.334	0.292	0.236	0.317	0.540	0.894	0.752	0.354	0.269	0.339	2.198	6.761	8.149	4.652	1.374	0.361	0.193	0.185	0.193	0.185	0.202	0.186	0.202	0.179	0.163	0.162	0.163	0.165	0.221	0.158	0.159	0.174	0.179	0.165	0.175	0.158	0.196	0.172	0.160	0.162	0.194
235.0	191.3	453.0	1666	2083	441.1	21.51	3.950	3.648	2.547	2.907	2.464	2.649	2.353	1.467	1.181	0.952	0.918	0.813	0.623	0.659	0.571	0.489	0.563	0.509	0.467	0.540	0.297	0.325	0.310	0.321	0.381	0.339	0.329	0.303	0.279	0.256	0.254	0.337	0.297	0.304	0.347	0.521	0.680	0.679	0.754	0.323	0.651	1.899	3.903	5.952	7.700	6.971	2.813	0.555	0.192	0.200	0.171	0.233	0.194	0.158	0.158	0.161	0.174	0.184	0.159	0.180	0.189	0.172	0.234	0.228	0.202	0.138	0.195	0.187	0.142	0.175	0.196
240.0	302.8	215.2	562.8	2157	1944	327.7	9.810	3.611	3.066	3.715	2.831	2.757	2.118	1.494	1.168	0.923	0.872	0.735	0.665	0.543	0.558	0.500	0.547	0.449	0.411	0.466	0.366	0.354	0.302	0.372	0.365	0.285	0.297	0.331	0.281	0.282	0.255	0.332	0.307	0.280	0.283	0.296	0.451	0.695	0.952	0.802	0.569	0.668	1.048	1.989	5.199	10.46	11.30	6.785	2.068	0.321	0.177	0.224	0.153	0.180	0.162	0.153	0.177	0.183	0.148	0.188	0.166	0.207	0.192	0.197	0.197	0.215	0.173	0.193	0.210	0.140	0.175
245.0	248.9	305.4	190.1	853.8	2552	1795	214.5	6.854	4.005	4.301	3.516	2.996	2.323	1.659	1.527	1.024	0.868	0.905	0.788	0.629	0.619	0.595	0.550	0.578	0.497	0.414	0.444	0.432	0.375	0.296	0.551	0.291	0.266	0.329	0.301	0.238	0.271	0.354	0.308	0.239	0.262	0.228	0.272	0.344	0.566	1.054	1.061	0.806	0.499	0.688	1.449	3.880	9.267	13.89	11.38	5.636	1.133	0.254	0.162	0.178	0.195	0.138	0.203	0.177	0.150	0.174	0.144	0.183	0.161	0.240	0.180	0.236	0.196	0.139	0.193	0.143	0.167
250.0	99.84	258.1	304.0	285.1	929.2	2175	2301	662.7	26.72	5.342	4.061	3.476	2.601	1.967	1.453	1.334	1.107	0.942	0.807	0.654	0.644	0.589	0.586	0.491	0.457	0.408	0.460	0.414	0.377	0.384	0.412	0.309	0.347	0.296	0.314	0.273	0.336	0.303	0.269	0.285	0.277	0.237	0.286	0.290	0.366	0.465	0.674	0.993	1.027	0.833	0.665	1.107	2.456	4.986	8.499	12.60	14.28	11.60	5.496	1.272	0.284	0.187	0.208	0.210	0.205	0.220	0.219	0.163	0.146	0.215	0.177	0.192	0.179	0.148	0.213	0.208	0.165
255.0	45.30	84.49	254.5	372.9	283.0	616.5	2273	2860	287.9	23.55	5.823	4.742	3.511	2.773	1.722	1.553	1.237	0.910	0.955	0.589	0.571	0.779	0.607	0.546	0.535	0.486	0.463	0.387	0.312	0.399	0.389	0.416	0.370	0.343	0.352	0.273	0.318	0.300	0.262	0.316	0.272	0.298	0.392	0.266	0.285	0.371	0.318	0.419	0.629	1.054	1.367	1.246	0.939	1.353	2.096	3.377	6.510	14.26	22.29	18.84	7.533	1.236	0.256	0.197	0.197	0.198	0.203	0.180	0.191	0.173	0.217	0.174	0.160	0.189	0.207	0.248	0.186
260.0	34.24	37.57	111.7	378.3	309.4	193.1	781.1	3254	2326	229.9	11.58	5.786	4.046	2.951	2.230	1.860	1.285	1.038	1.088	0.826	0.708	0.666	0.671	0.557	0.572	0.475	0.469	0.395	0.394	0.463	0.377	0.326	0.460	0.371	0.315	0.352	0.335	0.225	0.276	0.302	0.285	0.307	0.367	0.280	0.281	0.276	0.230	0.276	0.317	0.476	1.007	1.796	1.589	1.062	0.725	1.045	1.736	4.336	10.97	21.53	26.49	18.83	4.779	0.550	0.245	0.193	0.235	0.212	0.283	0.159	0.231	0.212	0.139	0.188	0.248	0.203	0.174
265.0	31.16	26.87	45.22	204.6	445.1	225.2	228.2	1280	4030	2017	162.4	8.204	4.644	3.339	2.772	1.826	1.381	1.002	1.192	0.941	0.776	0.655	0.529	0.520	0.474	0.549	0.563	0.505	0.450	0.486	0.404	0.328	0.402	0.367	0.368	0.359	0.326	0.261	0.307	0.262	0.282	0.286	0.394	0.267	0.324	0.304	0.235	0.250	0.260	0.246	0.404	0.982	2.014	2.273	1.335	0.664	0.704	1.263	2.878	7.133	17.01	31.81	27.95	14.21	2.855	0.314	0.254	0.223	0.215	0.167	0.231	0.182	0.181	0.194	0.214	0.211	0.188
270.0	62.60	56.23	43.07	78.44	270.1	452.8	284.6	351.2	1457	3782	3677	670.1	28.29	5.690	3.490	2.414	1.828	1.333	1.364	1.023	0.939	0.777	0.778	0.604	0.549	0.609	0.477	0.587	0.450	0.459	0.408	0.435	0.400	0.428	0.507	0.400	0.420	0.411	0.311	0.346	0.306	0.315	0.375	0.350	0.376	0.329	0.291	0.335	0.306	0.223	0.265	0.476	0.875	1.478	2.136	2.147	1.735	1.038	1.036	1.957	4.336	9.803	16.23	25.08	28.44	20.59	10.85	2.401	0.354	0.207	0.212	0.248	0.170	0.205	0.211	0.215	0.208
275.0	178.7	181.9	117.4	78.04	114.0	288.5	597.8	310.8	387.7	1028	3794	5949	856.2	23.65	5.555	4.006	2.556	1.891	1.359	1.014	1.041	0.841	0.860	0.740	0.735	0.682	0.526	0.527	0.528	0.504	0.420	0.610	0.501	0.632	0.849	0.650	0.639	0.446	0.505	0.425	0.422	0.444	0.538	0.456	0.519	0.550	0.549	0.732	0.539	0.447	0.313	0.435	0.531	0.675	0.874	1.413	2.630	3.180	2.218	1.067	1.279	2.532	4.023	6.221	10.04	23.11	39.63	30.08	15.81	2.408	0.358	0.315	0.309	0.252	0.258	0.267	0.241
280.0	630.1	659.0	469.2	206.9	114.1	165.9	478.1	654.4	288.5	404.4	1347	5637	5383	140.4	14.48	5.217	3.458	2.030	1.582	1.284	1.216	0.985	0.764	0.796	0.747	0.670	0.557	0.648	0.640	0.436	0.539	0.703	0.898	1.421	1.647	1.541	1.107	0.778	0.800	0.676	0.850	0.866	1.057	1.112	1.298	1.627	1.652	1.747	1.415	1.105	0.723	0.646	0.573	0.519	0.702	0.830	1.428	2.608	3.901	3.009	1.693	1.402	1.652	2.341	3.396	6.863	16.48	32.75	48.98	28.52	9.749	1.132	0.358	0.312	0.290	0.297	0.328
285.0	1929	1713	1187	603.0	213.8	180.8	333.5	806.0	785.1	641.3	948.6	2427	6767	4266	105.0	8.382	4.233	2.324	2.059	1.656	1.187	1.213	0.926	0.889	0.674	0.668	0.708	0.674	0.672	0.536	0.535	0.896	1.941	3.427	4.381	3.672	2.661	1.816	1.728	1.567	1.840	1.891	2.584	2.748	3.689	4.292	4.708	5.152	4.187	3.190	2.029	1.464	0.980	0.638	0.821	0.861	1.068	1.604	2.844	4.617	4.812	3.505	2.676	3.192	3.769	4.626	6.908	11.57	25.88	44.36	34.90	22.06	6.561	0.670	0.452	0.432	0.426
290.0	4599	4924	3573	1506	459.8	284.8	406.3	776.4	1413	1678	1673	1949	3034	5168	4673	413.7	19.76	3.828	2.904	1.987	1.675	1.462	1.173	1.027	1.011	0.829	0.777	0.828	0.670	0.631	0.685	1.480	3.707	6.926	9.445	8.579	5.810	3.705	3.293	3.104	3.618	4.371	5.330	6.471	8.436	10.40	10.79	12.10	9.984	7.435	5.004	3.524	1.896	1.289	1.066	1.297	1.613	1.983	2.698	3.747	5.475	7.024	8.354	7.801	8.132	8.265	9.159	9.425	12.15	17.12	20.11	28.61	32.07	30.19	15.34	6.142	0.952
295.0	6864	7528	5575	2375	701.8	397.0	544.8	921.3	1566	2566	2935	2530	2141	1728	3736	5799	549.3	14.05	4.089	2.828	2.052	1.819	1.432	1.168	1.067	1.039	0.933	0.942	0.815	0.726	0.938	2.003	5.424	9.869	14.36	12.35	8.450	5.563	4.789	5.013	5.122	6.455	8.069	9.973	12.89	15.74	16.33	18.43	16.20	11.37	8.069	5.144	2.991	1.793	1.527	1.693	2.031	2.630	3.384	4.302	5.771	7.333	9.750	12.14	14.59	14.01	13.01	11.75	12.36	11.59	9.376	9.034	9.876	19.72	39.94	51.82	23.58
300.0	8166	8705	6347	2696	820.8	450.4	636.2	1030	1661	2590	3581	3030	2095	946.3	1120	4939	4351	83.05	7.362	3.705	2.919	2.038	1.811	1.358	1.233	1.162	0.874	0.847	0.994	0.800	0.824	2.287	6.184	11.89	16.15	14.48	9.864	6.492	5.475	5.451	6.332	7.306	8.826	11.34	14.14	17.69	19.07	21.32	18.22	13.21	8.994	6.211	3.504	2.223	1.618	1.868	2.428	2.981	3.545	4.699	6.282	7.933	9.941	11.70	15.52	18.21	16.60	13.72	12.49	11.61	7.324	4.616	3.648	5.947	13.54	32.03	45.76
305.0	8148	8734	6510	2751	844.5	470.1	658.1	1053	1668	2482	3384	3445	2153	801.1	386.2	1558	4801	3199	62.19	5.406	3.233	2.350	2.030	1.628	1.418	1.296	1.039	1.019	0.936	0.941	0.960	2.481	6.271	12.06	16.03	14.77	10.43	6.824	5.639	5.311	6.403	7.569	9.075	12.02	14.31	18.05	19.40	21.55	18.83	13.77	9.362	6.244	3.656	2.252	2.030	1.891	2.398	3.098	4.059	4.971	6.521	7.601	9.646	11.69	14.61	16.63	18.31	16.20	13.70	10.82	7.010	3.771	2.365	2.574	4.004	8.772	17.53
310.0	7060	7839	5692	2467	784.2	463.5	622.5	980.6	1515	2187	2792	2972	2309	830.7	242.2	418.8	1452	3312	3157	290.8	14.40	3.088	2.319	1.876	1.561	1.326	1.194	1.084	0.969	1.018	0.943	2.148	5.370	10.97	14.81	13.56	9.248	6.113	5.023	5.130	5.717	6.833	8.367	10.59	12.96	15.96	17.10	19.03	16.70	12.18	8.022	5.731	3.319	2.120	1.861	1.857	2.503	2.951	3.736	4.644	5.959	7.222	9.003	10.39	12.55	13.47	13.99	14.37	13.88	11.71	7.906	3.849	2.308	1.822	2.006	3.029	4.852
315.0	5460	6255	4505	1977	677.4	435.6	575.5	852.0	1286	1813	2227	2220	1885	1091	294.6	188.0	389.2	813.8	2268	3807	425.0	11.72	3.302	2.310	1.742	1.563	1.287	1.096	0.908	0.910	0.954	1.841	4.688	9.073	11.90	10.91	7.784	5.238	4.296	4.349	4.892	5.637	6.868	8.595	10.21	12.86	13.34	15.18	13.17	9.543	6.410	4.880	2.733	1.909	1.624	1.840	2.173	2.871	3.212	4.022	5.120	5.890	7.630	8.669	9.806	10.90	11.06	10.92	10.53	9.676	8.324	6.084	3.217	1.794	1.565	1.651	1.972
320.0	4517	5022	3614	1636	596.5	416.2	548.3	792.8	1133	1534	1847	1816	1462	1031	531.1	178.6	166.8	234.8	622.6	2861	3255	64.43	6.261	2.984	2.152	1.665	1.398	1.199	1.051	1.064	0.978	1.564	3.931	7.309	9.721	9.106	6.438	4.561	3.623	3.870	3.930	4.825	5.460	7.069	8.719	10.75	11.11	12.04	10.75	7.647	5.473	3.816	2.323	1.928	1.751	1.877	2.266	2.677	2.990	3.789	4.597	5.360	6.728	7.484	8.276	8.626	9.231	8.508	8.651	7.588	6.253	5.752	5.086	3.613	1.911	1.462	1.448
325.0	3638	4005	2956	1353	532.9	410.8	516.8	713.6	1000	1320	1574	1527	1209	764.7	675.5	308.6	128.1	115.7	179.6	840.2	3245	2635	53.74	4.356	2.541	2.131	1.590	1.344	1.286	1.066	1.020	1.655	3.289	6.172	7.789	7.187	5.312	3.765	3.215	3.398	3.310	4.033	4.638	5.887	7.537	8.747	9.221	9.760	8.432	6.316	4.350	3.188	2.334	1.747	1.682	1.776	1.993	2.467	2.923	3.401	4.089	4.755	5.691	6.432	7.111	7.682	7.748	7.265	7.275	6.238	4.809	3.771	4.106	4.293	3.563	2.137	1.551
330.0	2823	3029	2235	1085	500.1	401.8	491.3	652.0	870.6	1093	1287	1250	999.7	615.7	497.4	492.3	260.6	113.4	92.77	224.5	944.1	2457	2482	240.4	13.78	2.706	1.839	1.405	1.283	1.073	0.939	1.528	2.601	4.448	5.982	5.391	4.122	2.956	2.537	2.909	2.835	3.285	3.832	4.586	5.614	6.526	6.735	7.476	6.593	4.938	3.471	2.683	2.046	1.692	1.657	1.778	2.017	2.454	2.686	3.193	3.773	4.174	4.786	5.440	5.937	6.154	6.301	6.051	6.090	5.188	4.152	3.278	2.838	3.083	3.342	3.415	3.031
335.0	2208	2266	1722	877.4	477.5	397.3	475.1	609.7	761.4	921.5	1061	1038	853.2	560.2	398.4	375.4	449.6	220.9	91.72	98.20	240.4	589.3	1665	3152	381.8	12.85	2.478	1.737	1.734	1.220	1.188	1.345	1.961	3.357	4.396	3.983	3.240	2.441	2.096	2.224	2.320	2.697	2.974	3.581	4.253	4.858	5.049	5.470	4.959	3.721	2.835	2.537	1.837	1.618	1.616	1.841	1.959	2.361	2.721	2.902	3.503	3.902	4.224	4.602	4.938	5.067	5.210	4.928	4.781	4.526	3.818	3.055	2.599	2.369	2.265	2.330	2.980
340.0	1788	1856	1408	775.0	452.4	399.1	463.1	570.6	690.9	827.5	935.0	906.6	767.3	530.9	376.8	293.9	378.4	372.0	134.4	78.16	90.66	156.2	447.0	2288	2898	302.7	5.244	2.278	1.709	1.512	1.200	1.434	1.926	2.773	3.691	3.341	2.645	2.436	1.945	2.028	2.078	2.339	2.608	3.066	3.453	4.001	4.214	4.675	3.950	3.181	2.372	2.062	1.785	1.593	1.660	1.787	1.947	2.284	2.556	2.946	3.287	3.506	3.624	4.081	4.401	4.572	4.278	4.628	4.064	3.912	3.517	2.983	2.566	2.453	2.028	2.129	1.983
345.0	1548	1541	1148	674.8	427.9	391.2	444.6	534.7	644.8	750.6	840.2	808.5	704.2	512.7	372.2	278.9	267.8	375.4	253.3	85.08	64.50	65.65	122.2	661.3	2766	2721	47.41	3.142	2.081	1.645	1.344	1.418	1.605	2.259	2.765	2.641	2.522	2.026	1.754	1.691	1.653	2.077	2.427	2.452	3.098	3.343	3.544	3.805	3.347	2.725	2.144	1.864	1.777	1.550	1.625	1.707	1.829	2.109	2.278	2.781	3.029	3.286	3.625	3.773	3.828	4.101	4.147	3.822	3.878	3.677	3.018	2.848	2.444	2.352	1.994	1.885	1.771
350.0	1237	1234	938.0	578.6	407.4	380.7	423.9	503.4	582.8	672.3	729.5	720.4	625.9	485.4	370.0	280.2	232.7	250.8	307.8	203.3	83.39	58.00	57.85	170.3	794.7	2379	2052	213.9	12.86	2.213	1.562	1.552	1.461	1.862	2.327	2.172	1.969	1.666	1.616	1.660	1.493	1.811	2.049	2.152	2.610	2.876	2.890	3.025	2.639	2.142	1.752	1.788	1.548	1.490	1.511	1.663	1.779	2.139	2.131	2.410	2.765	3.197	3.202	3.504	3.472	3.693	3.632	3.640	3.449	3.237	2.906	2.749	2.518	2.274	2.038	1.791	1.739
355.0	1073	1017	769.3	499.4	389.5	368.0	404.5	477.0	542.5	604.0	651.2	638.8	570.1	462.4	365.5	282.9	234.9	205.2	216.5	286.8	180.8	73.07	56.96	69.25	199.1	566.1	1340	2501	348.6	11.76	2.167	1.725	1.624	1.511	1.921	1.791	1.727	1.565	1.453	1.413	1.422	1.600	1.621	1.903	2.323	2.334	2.463	2.622	2.179	1.726	1.541	1.805	1.402	1.376	1.445	1.644	1.743	2.039	2.180	2.318	2.606	2.788	3.010	3.076	3.037	3.467	3.383	3.157	3.045	3.015	2.801	2.734	2.494	2.215	2.056	1.899	1.780
360.0	927.3	876.1	695.6	455.9	363.2	364.1	393.1	460.4	504.7	561.8	593.3	592.4	537.9	447.0	360.2	284.9	242.5	203.1	183.8	232.4	271.7	125.0	66.02	55.74	72.87	146.7	358.5	1831	2580	280.6	5.076	2.397	1.671	1.648	1.781	1.588	1.573	1.539	1.403	1.412	1.335	1.568	1.555	1.726	2.043	2.135	2.126	2.159	1.962	1.571	1.380	1.609	1.474	1.405	1.560	1.525	1.788	1.917	2.121	2.320	2.498	2.655	2.915	2.969	2.857	3.136	2.999	2.985	2.766	2.830	2.726	2.533	2.438	2.266	2.152	2.040	1.795
365.0	844.8	783.4	613.3	441.9	350.5	357.6	383.5	450.9	487.0	534.4	564.0	565.9	512.8	433.9	361.0	290.8	250.8	211.0	187.5	186.4	258.2	217.6	94.21	60.98	51.10	58.38	97.61	536.0	2474	2391	45.06	3.300	2.003	1.628	1.813	1.537	1.470	1.485	1.534	1.332	1.447	1.410	1.600	1.618	1.629	2.014	1.944	1.970	1.725	1.375	1.341	1.479	1.418	1.401	1.429	1.482	1.725	1.865	2.072	2.276	2.306	2.558	2.833	2.826	2.970	2.949	2.828	2.707	2.705	2.707	2.499	2.429	2.349	2.172	2.097	1.949	1.851
370.0	777.4	727.7	544.5	422.6	342.5	351.1	379.2	426.2	461.2	512.4	534.1	526.6	474.3	416.2	353.4	299.7	259.5	232.8	207.5	184.2	195.0	236.5	191.0	91.52	59.04	48.21	45.41	136.4	706.7	2128	2303	199.4	11.54	2.105	1.942	1.716	1.589	1.413	1.424	1.321	1.407	1.373	1.544	1.527	1.708	1.856	1.763	1.857	1.588	1.252	1.192	1.479	1.347	1.315	1.451	1.434	1.675	1.757	1.930	2.134	2.278	2.430	2.552	2.715	2.753	2.805	2.734	2.661	2.551	2.538	2.419	2.310	2.241	2.097	2.039	1.946	2.008
375.0	694.1	668.1	504.5	396.8	341.3	350.6	364.0	411.2	444.8	479.3	497.3	491.2	459.7	401.0	348.6	300.3	268.6	246.2	223.1	201.1	186.2	180.0	228.0	177.8	82.42	56.10	41.62	52.73	172.7	505.3	1560	2900	299.1	9.984	2.359	2.004	1.567	1.455	1.501	1.273	1.235	1.390	1.441	1.516	1.727	1.548	1.646	1.685	1.550	1.288	1.093	1.332	1.470	1.331	1.448	1.324	1.563	1.741	1.864	1.954	2.197	2.164	2.520	2.470	2.523	2.720	2.454	2.590	2.402	2.361	2.269	2.524	2.168	2.199	2.037	1.961	2.023
380.0	657.4	614.5	480.5	368.3	334.7	337.1	358.6	392.5	423.9	456.8	475.0	466.2	439.2	387.3	344.2	301.6	277.8	251.6	233.5	211.1	189.2	167.2	191.5	230.8	128.9	67.49	47.77	38.87	58.24	127.3	418.4	2304	2138	222.8	4.538	2.135	1.706	1.558	1.388	1.350	1.296	1.351	1.343	1.351	1.586	1.585	1.696	1.549	1.359	1.349	1.178	1.461	1.422	1.347	1.448	1.288	1.552	1.508	1.858	1.943	2.039	2.104	2.203	2.544	2.438	2.502	2.276	2.312	2.197	2.312	1.998	2.437	2.185	2.011	2.229	2.012	1.955
385.0	620.9	580.6	462.1	365.3	314.3	334.2	360.2	380.4	419.5	436.8	462.9	445.5	416.8	382.1	335.1	300.0	276.9	257.4	241.3	218.6	198.4	172.3	165.9	210.5	192.3	93.70	57.13	42.20	37.75	47.21	107.9	679.4	2074	1723	36.25	2.895	2.036	1.663	1.436	1.356	1.377	1.337	1.249	1.340	1.660	1.545	1.528	1.430	1.358	1.287	1.116	1.383	1.322	1.308	1.444	1.229	1.598	1.604	1.734	1.763	1.991	2.159	2.299	2.321	2.212	2.378	2.535	2.248	2.284	2.346	2.086	2.081	2.161	2.015	2.138	1.915	1.978
390.0	595.4	535.9	431.5	356.2	309.4	319.4	342.9	367.2	394.1	417.5	436.5	429.7	396.5	367.3	328.6	296.3	274.6	260.9	248.3	227.4	206.8	182.7	164.8	164.6	191.7	164.3	85.84	53.41	42.31	36.75	43.99	167.1	600.5	1528	1677	155.7	10.02	2.164	1.611	1.485	1.399	1.339	1.390	1.407	1.486	1.379	1.453	1.390	1.270	1.169	1.057	1.330	1.265	1.213	1.329	1.335	1.651	1.623	1.774	1.801	1.845	1.985	2.165	2.047	2.169	2.254	2.194	2.110	2.184	2.038	1.997	2.035	1.985	2.016	2.010	2.019	1.946
395.0	548.3	488.0	420.2	344.0	308.0	309.6	327.7	345.9	372.3	394.9	410.3	406.4	379.2	349.0	319.7	289.6	272.6	264.1	250.8	231.6	211.4	193.3	171.8	155.9	151.2	181.5	151.7	74.94	54.21	43.62	36.99	57.68	148.3	365.5	1202	2062	255.9	8.065	1.940	1.740	1.330	1.423	1.246	1.382	1.474	1.383	1.345	1.303	1.243	1.071	1.084	1.212	1.377	1.181	1.279	1.405	1.497	1.651	1.567	1.764	1.732	1.897	1.793	2.008	2.226	2.142	2.106	2.042	2.033	1.901	1.945	1.924	1.684	1.735	1.999	2.019	2.128
400.0	529.5	473.1	397.8	331.7	303.9	309.1	308.3	336.1	359.8	378.7	394.0	389.9	362.3	337.0	311.1	282.5	271.1	258.9	248.8	232.0	214.5	194.6	177.0	156.6	142.0	150.4	182.3	114.5	65.73	51.62	40.49	37.17	50.39	94.82	331.4	1592	1811	37.76	3.717	1.854	1.571	1.430	1.335	1.393	1.290	1.346	1.296	1.256	1.101	1.069	1.037	1.235	1.276	1.267	1.292	1.308	1.350	1.512	1.543	1.662	1.836	1.646	1.998	2.001	2.057	1.874	1.985	1.967	1.833	2.030	1.836	1.957	1.860	1.789	1.888	1.859	2.050
405.0	503.5	449.9	390.8	314.4	288.3	306.9	302.4	324.7	340.1	363.3	376.8	374.5	347.6	325.1	301.0	274.2	261.7	255.2	244.6	231.0	213.8	196.8	175.9	160.0	142.8	131.8	161.8	158.0	89.56	59.39	46.62	36.37	32.72	36.09	85.51	469.6	1762	1556	31.83	2.563	1.724	1.446	1.458	1.312	1.331	1.307	1.252	1.291	1.159	1.014	1.122	1.250	1.209	1.104	1.313	1.235	1.431	1.328	1.470	1.604	1.638	1.701	1.765	2.149	2.063	1.884	1.841	1.926	1.909	1.794	1.898	1.883	1.761	1.914	1.938	1.836	2.027
410.0	468.7	420.6	368.2	301.3	285.5	288.2	292.2	306.5	324.9	344.9	360.4	357.5	329.0	306.4	284.3	264.5	250.4	246.1	234.9	225.9	209.9	195.4	179.3	163.0	147.5	132.2	131.3	154.6	140.8	84.44	58.18	44.86	34.84	27.82	32.59	115.4	513.4	1456	1300	142.4	7.933	1.726	1.573	1.302	1.384	1.292	1.173	1.257	1.087	0.966	0.914	1.172	1.182	1.109	1.134	1.176	1.394	1.331	1.499	1.422	1.632	1.721	1.623	1.884	1.825	1.882	1.930	1.893	1.893	1.582	1.771	1.829	1.776	1.769	1.799	1.660	1.838
415.0	446.4	418.1	337.4	295.9	280.3	268.1	279.0	291.0	303.0	322.1	336.7	337.1	307.8	286.8	265.3	246.4	236.4	234.7	223.8	212.1	201.4	186.7	175.0	161.6	148.5	136.1	126.3	126.3	150.2	134.6	76.60	52.91	41.20	30.53	25.52	37.85	124.4	349.0	931.9	1477	212.1	6.360	1.761	1.636	1.701	1.349	1.168	1.238	1.068	1.088	0.911	0.999	1.193	1.236	1.114	1.292	1.378	1.290	1.349	1.309	1.658	1.604	1.613	1.625	1.703	1.757	1.774	1.665	1.707	1.493	1.592	1.764	1.679	1.750	1.599	1.653	1.715
420.0	413.8	367.8	316.1	286.5	275.0	254.4	269.3	277.6	297.9	305.4	319.1	320.0	295.7	274.5	250.8	237.0	227.9	220.4	215.3	205.4	191.9	183.5	170.9	160.6	149.6	138.5	127.2	118.3	127.8	152.1	105.5	62.55	46.34	35.58	26.91	24.01	38.57	86.97	256.7	1172	1247	34.74	3.269	1.729	1.660	1.238	1.058	1.192	0.911	0.946	0.936	1.073	1.152	1.181	1.082	1.127	1.210	1.228	1.304	1.320	1.375	1.442	1.575	1.615	1.632	1.773	1.695	1.624	1.581	1.458	1.466	1.742	1.721	1.533	1.543	1.707	1.510
425.0	383.2	338.7	317.1	268.7	258.8	249.3	253.4	263.6	282.1	293.2	306.1	303.4	282.2	260.5	239.2	226.7	216.8	212.3	205.8	198.1	184.5	178.6	165.5	157.3	148.3	140.0	129.1	118.1	115.7	136.2	134.7	80.39	51.69	39.55	30.12	24.03	21.96	29.29	65.05	356.4	1218	969.4	29.76	2.293	1.566	1.368	1.150	1.146	1.036	0.762	0.778	0.966	1.089	1.192	1.083	1.104	1.285	1.282	1.237	1.375	1.572	1.459	1.499	1.578	1.519	1.504	1.720	1.537	1.452	1.477	1.542	1.556	1.484	1.605	1.420	1.627	1.519
430.0	566.9	344.3	293.1	257.6	242.1	238.2	242.9	251.1	262.4	278.2	285.7	282.4	263.0	245.6	223.9	211.3	202.8	200.8	193.0	184.6	175.6	168.4	160.1	154.9	146.8	139.4	131.1	122.3	115.6	114.9	128.1	112.5	69.61	46.53	34.63	27.14	21.66	18.90	23.60	87.05	352.5	892.8	1142	133.5	8.413	1.572	1.313	1.206	1.027	0.953	0.946	1.036	1.108	1.093	1.048	1.096	1.176	1.271	1.252	1.207	1.446	1.512	1.365	1.376	1.459	1.429	1.667	1.420	1.580	1.502	1.445	1.541	1.414	1.368	1.326	1.471	1.409
435.0	1282	323.1	287.7	251.1	232.7	233.4	237.7	246.0	248.8	266.9	272.6	268.5	246.1	227.3	211.5	195.6	190.0	187.0	182.0	172.8	166.9	160.0	154.5	150.7	144.9	138.7	129.6	125.3	119.1	110.4	108.1	115.3	100.3	58.99	39.36	31.63	23.43	19.78	16.72	27.83	85.05	213.4	780.3	1276	214.0	7.685	1.427	1.162	1.104	0.847	0.967	1.008	1.020	1.022	1.065	1.063	1.145	1.257	1.307	1.326	1.239	1.350	1.380	1.419	1.373	1.351	1.463	1.339	1.386	1.285	1.298	1.392	1.372	1.250	1.210	1.326	1.352
440.0	2064	450.6	266.6	240.2	228.4	221.5	225.3	232.1	240.2	260.5	262.4	254.2	231.4	215.3	201.7	186.9	180.7	176.7	171.0	163.8	158.0	153.1	147.1	142.9	139.2	136.3	129.0	123.8	117.4	111.1	101.3	101.7	109.2	76.10	45.14	33.86	26.78	20.94	16.79	15.78	26.32	53.76	209.6	968.8	1328	163.4	3.208	1.407	1.131	0.949	0.916	1.035	0.884	0.923	1.105	1.042	1.207	1.110	1.154	1.255	1.114	1.165	1.195	1.464	1.376	1.342	1.436	1.339	1.253	1.292	1.240	1.356	1.398	1.136	1.232	1.201	1.301
445.0	2240	892.3	252.1	228.6	221.4	211.3	211.2	224.8	230.6	244.8	251.8	239.5	224.4	206.8	190.5	177.9	174.0	165.1	160.8	155.1	149.3	144.0	141.2	137.3	135.7	131.2	126.3	123.2	117.1	109.3	100.2	92.23	95.93	92.62	56.01	37.07	28.67	22.53	17.99	14.46	14.31	18.78	52.41	286.5	1260	1014	26.11	1.787	1.310	1.018	0.921	1.071	0.980	1.062	1.025	0.942	1.111	1.192	1.019	0.952	1.253	1.260	1.273	1.260	1.248	1.282	1.327	1.363	1.100	1.218	1.322	1.327	1.164	1.156	1.246	1.218	1.244
450.0	1368	1778	397.7	210.2	211.2	197.5	200.2	207.0	215.9	223.8	229.8	220.7	206.0	188.4	173.1	163.1	154.7	149.9	146.0	140.5	134.9	130.7	128.8	127.4	125.9	124.3	120.7	117.0	112.6	106.6	96.74	85.94	79.30	84.59	73.88	46.27	31.32	24.54	19.63	15.97	13.19	11.56	17.65	68.82	360.4	847.7	900.0	119.7	6.554	1.187	0.975	1.000	0.990	0.950	1.097	0.957	1.047	1.045	1.065	1.050	1.216	1.196	1.145	1.174	1.204	1.184	1.185	1.085	1.043	1.165	1.216	1.083	1.182	1.065	1.254	1.146	1.118
455.0	573.5	1924	1017	208.2	195.3	180.3	185.3	193.9	199.9	207.3	207.4	198.9	189.1	170.2	155.4	145.2	139.6	136.6	129.8	125.4	120.6	117.9	118.2	115.0	114.7	114.7	111.5	109.3	105.4	100.9	91.98	82.12	72.87	66.15	72.57	62.61	38.09	25.50	21.04	17.07	13.98	11.87	10.55	20.65	84.30	200.7	537.5	971.0	169.7	6.562	1.159	1.185	0.905	0.911	0.956	0.873	1.009	0.956	1.112	1.003	1.088	1.077	1.027	1.062	1.046	1.094	1.108	1.077	0.903	1.211	1.055	1.025	1.087	0.994	1.045	0.958	0.954
460.0	316.5	1270	1687	300.2	177.7	166.6	170.7	178.9	185.3	186.2	192.3	177.4	168.9	151.6	144.6	131.0	127.6	125.3	120.3	113.7	108.8	110.1	108.3	107.0	105.6	106.6	103.2	101.9	98.34	95.09	87.48	79.34	67.97	59.01	59.48	65.76	47.21	28.17	22.03	17.91	15.18	12.14	10.01	10.60	23.27	48.71	139.6	673.2	833.0	129.0	2.880	1.223	1.020	0.934	0.879	0.853	0.962	0.885	1.056	0.953	1.033	1.034	0.957	1.010	1.003	1.012	0.895	1.098	0.974	0.997	0.935	0.890	1.056	1.014	0.877	0.870	0.943
465.0	243.2	620.1	1831	660.9	172.2	158.9	160.9	169.3	177.4	173.4	174.6	171.9	151.7	140.7	131.6	121.0	116.4	112.8	108.3	103.8	99.63	98.83	96.07	98.48	96.30	98.20	96.25	94.31	92.71	88.91	83.81	75.46	64.79	55.49	50.58	56.75	55.78	33.50	22.91	18.45	15.17	12.55	10.49	8.721	9.905	14.87	34.72	191.3	753.9	703.3	21.88	2.006	1.185	1.002	0.912	0.810	0.999	1.020	0.963	0.973	0.920	0.954	1.089	0.959	0.979	1.144	0.887	0.924	0.894	0.947	0.959	0.896	0.899	0.913	0.873	0.957	0.821
470.0	264.8	282.2	1133	1489	291.4	145.9	143.7	149.3	152.0	154.3	155.6	150.9	136.8	124.9	116.2	107.4	103.3	99.11	95.13	91.45	87.53	87.14	86.46	86.45	86.04	86.65	85.00	84.77	83.65	80.73	75.70	69.16	60.05	52.15	44.95	43.12	48.56	42.67	27.86	19.40	15.86	12.87	10.77	8.662	7.815	7.745	11.42	45.83	209.5	536.0	651.2	115.2	7.795	1.149	1.002	0.977	0.929	0.918	0.915	0.908	0.901	0.899	0.921	0.924	0.873	0.962	0.814	0.841	0.829	0.840	0.832	0.835	0.818	0.817	0.842	0.842	0.796
475.0	292.0	189.2	415.5	1540	681.2	132.2	134.3	131.7	137.2	136.4	136.9	132.3	119.4	109.9	102.5	94.25	89.29	84.85	83.53	79.12	76.15	76.16	75.06	74.23	75.91	76.25	76.15	72.84	74.94	71.78	69.23	62.81	55.91	47.68	41.14	37.92	35.48	40.82	36.50	22.41	16.04	13.60	10.85	9.179	7.890	6.618	6.295	13.33	49.39	124.2	326.4	682.9	178.7	8.680	1.204	0.923	0.844	0.822	0.747	0.833	0.796	0.910	0.883	0.863	0.782	0.823	0.944	0.836	0.709	0.671	0.688	0.691	0.723	0.615	0.767	0.720	0.730
480.0	292.7	199.0	207.4	984.6	1421	222.8	119.7	122.3	124.4	127.0	122.2	122.6	109.9	99.98	91.59	84.75	82.61	76.82	73.28	71.22	69.16	69.57	68.05	67.63	69.30	68.78	68.50	66.46	68.55	66.93	63.74	56.67	51.43	45.27	39.14	35.34	30.79	33.67	37.63	28.37	17.59	13.61	11.25	9.561	8.497	7.141	5.877	6.610	14.12	30.45	81.23	386.4	682.0	159.9	4.501	1.043	0.972	0.738	0.785	0.807	0.790	0.788	0.769	0.818	0.851	0.735	0.784	0.752	0.710	0.624	0.707	0.678	0.699	0.718	0.588	0.643	0.756
485.0	277.3	224.6	145.2	466.2	1607	492.6	112.6	114.3	117.3	117.8	114.7	111.4	102.7	91.72	84.27	77.93	75.82	69.82	68.49	66.43	63.87	62.77	63.16	62.80	63.07	63.73	62.90	62.89	62.48	61.97	59.41	53.66	49.09	42.28	37.93	32.70	29.45	27.74	32.43	32.90	21.26	14.30	12.04	10.01	8.191	7.685	6.335	5.290	6.437	9.533	20.78	103.0	499.7	681.1	27.55	2.226	1.081	0.903	0.791	0.709	0.840	0.733	0.775	0.674	0.791	0.710	0.778	0.683	0.600	0.658	0.703	0.660	0.606	0.641	0.672	0.618	0.647
490.0	189.9	245.3	145.1	199.9	990.9	1205	211.4	104.1	104.9	108.4	103.8	100.5	92.22	82.97	76.25	71.25	66.40	64.00	61.05	59.38	57.58	56.50	56.51	55.69	56.57	56.59	56.36	57.08	56.86	56.72	53.30	50.03	45.59	39.61	35.17	31.36	28.09	25.96	25.45	29.37	27.03	17.60	12.57	10.88	9.333	8.114	6.960	5.968	5.337	5.180	7.493	25.68	130.0	407.9	556.3	228.6	10.58	1.065	0.906	0.756	0.786	0.695	0.723	0.687	0.764	0.764	0.710	0.631	0.580	0.675	0.595	0.631	0.550	0.580	0.697	0.623	0.663
495.0	137.3	210.9	181.3	125.0	350.0	1300	718.5	99.55	94.28	97.49	94.80	91.86	84.06	76.01	69.26	61.49	61.59	58.34	54.72	53.92	50.73	50.25	49.75	51.31	50.21	49.58	49.70	50.47	50.37	50.64	47.19	45.08	41.17	36.90	32.91	30.31	26.53	24.26	21.55	22.04	26.22	24.05	15.48	11.13	9.367	8.494	7.220	6.714	6.066	5.059	4.978	8.857	31.63	94.04	246.7	612.7	221.3	13.47	1.165	0.782	0.693	0.649	0.785	0.672	0.593	0.661	0.652	0.533	0.660	0.660	0.583	0.591	0.663	0.479	0.637	0.566	0.562
500.0	99.18	162.4	229.0	106.9	150.5	819.1	1257	158.0	89.28	89.32	86.11	82.87	77.63	70.56	62.37	55.92	53.55	51.96	50.41	48.76	45.52	45.31	45.36	46.12	45.76	44.04	45.18	46.19	45.65	46.54	45.14	41.29	37.93	34.04	30.97	28.47	25.29	22.93	20.51	19.12	21.00	25.21	19.19	12.21	10.19	8.913	7.761	6.637	6.196	5.074	4.455	5.530	10.09	23.53	59.97	297.0	714.0	190.0	6.615	0.935	0.788	0.763	0.681	0.658	0.710	0.614	0.570	0.541	0.661	0.567	0.494	0.559	0.521	0.468	0.578	0.539	0.469
505.0	97.11	125.9	222.3	127.0	97.48	370.4	1447	353.1	81.39	77.94	81.34	78.25	71.60	64.98	56.38	53.75	48.55	47.50	45.37	43.49	42.18	40.84	40.60	40.40	41.47	41.30	41.35	41.18	42.08	43.09	41.63	38.33	35.58	31.44	29.40	26.65	24.55	21.62	20.03	18.13	16.92	21.02	22.26	14.97	9.931	8.761	8.001	7.020	6.156	5.660	4.669	4.459	5.348	8.017	15.86	74.92	425.0	616.6	31.56	3.049	0.888	0.783	0.652	0.613	0.621	0.615	0.575	0.526	0.605	0.542	0.501	0.532	0.612	0.433	0.539	0.522	0.469
510.0	92.23	92.39	165.6	161.5	87.28	144.0	878.4	1078	156.2	72.40	69.04	67.24	61.74	56.25	50.07	46.74	42.77	41.11	39.45	37.51	37.02	35.25	35.73	35.87	36.75	35.79	36.31	36.45	37.32	37.98	36.35	33.70	31.89	29.09	26.30	24.27	22.75	20.23	18.24	16.61	15.15	15.69	19.26	18.18	12.26	9.008	7.659	6.755	6.119	5.589	5.030	4.543	4.133	4.488	5.946	18.78	104.7	303.7	453.8	242.0	11.71	0.924	0.734	0.619	0.558	0.472	0.523	0.519	0.497	0.523	0.503	0.519	0.480	0.514	0.527	0.529	0.440
515.0	77.58	77.49	97.71	179.0	102.3	82.90	289.1	1262	602.9	68.81	62.72	59.68	53.49	48.18	44.17	40.01	37.82	35.17	35.37	33.05	31.48	30.62	30.76	30.47	30.60	30.13	30.42	31.47	31.64	32.93	31.79	29.63	28.44	25.66	23.18	22.01	20.53	17.95	17.09	15.61	13.97	13.04	14.03	17.39	15.57	10.26	7.739	6.417	5.850	5.472	5.086	4.953	3.985	3.703	3.705	6.083	25.12	69.37	159.9	522.2	227.5	15.79	0.854	0.703	0.604	0.506	0.489	0.489	0.398	0.493	0.452	0.405	0.428	0.526	0.491	0.357	0.434
520.0	68.05	68.95	66.37	154.8	134.9	68.14	116.4	817.8	1163	123.1	57.49	53.92	47.49	44.09	39.51	35.93	33.98	30.84	30.81	29.12	28.32	28.08	28.14	26.97	27.34	27.87	27.86	28.53	29.08	28.72	29.38	27.07	25.77	23.11	21.53	20.69	19.23	16.35	16.22	14.13	13.42	12.32	11.32	13.98	16.11	12.65	8.283	6.659	5.608	5.236	4.675	4.735	4.227	3.314	2.848	3.239	7.302	16.82	37.76	217.1	499.5	202.1	9.628	0.813	0.579	0.437	0.472	0.419	0.405	0.390	0.453	0.419	0.417	0.456	0.512	0.388	0.426
525.0	63.91	65.85	60.93	108.3	164.4	73.51	66.47	353.5	1412	272.2	52.59	49.01	42.98	39.79	35.91	31.92	31.74	28.22	29.21	27.18	25.48	25.76	24.71	24.29	24.26	25.34	24.63	25.25	26.42	25.97	25.62	24.51	22.67	21.58	20.21	19.08	17.60	15.60	15.40	13.25	12.85	11.90	10.60	10.88	13.89	13.95	9.708	6.565	5.794	4.792	4.406	4.288	4.151	3.549	2.740	2.475	3.341	5.201	9.669	52.19	251.5	550.0	153.2	3.433	0.625	0.473	0.438	0.404	0.422	0.463	0.433	0.389	0.400	0.381	0.400	0.375	0.349
530.0	51.98	57.05	49.73	69.31	145.9	104.9	53.95	124.6	856.9	1111	119.2	42.08	38.93	35.32	31.15	28.12	27.30	24.89	24.04	23.20	21.99	22.03	21.45	20.99	21.64	21.79	21.94	22.03	23.06	22.89	22.76	21.68	19.88	18.81	17.91	16.85	15.51	14.24	13.46	12.13	11.83	10.48	9.628	9.382	10.28	12.13	11.33	7.676	5.276	4.700	4.269	3.677	3.817	3.768	3.043	2.374	2.310	2.417	3.323	12.61	60.49	243.7	382.4	203.4	12.70	0.659	0.501	0.445	0.387	0.389	0.444	0.335	0.373	0.329	0.383	0.391	0.359
535.0	50.68	46.74	45.63	44.21	97.29	139.5	57.47	62.68	269.4	1347	544.6	41.75	33.91	30.69	27.10	23.60	23.21	22.19	19.82	18.89	18.92	18.34	18.12	17.61	18.49	18.28	18.90	19.08	19.90	20.73	19.17	18.48	17.89	16.53	15.67	15.06	13.94	12.79	11.92	10.88	10.52	9.231	8.820	7.843	7.902	8.415	10.29	9.254	5.628	4.310	3.976	3.524	3.206	3.146	3.026	2.488	2.054	1.677	1.835	3.743	14.34	55.20	116.1	385.5	225.4	16.77	0.654	0.487	0.423	0.352	0.421	0.355	0.423	0.332	0.348	0.353	0.307
540.0	46.55	45.38	46.80	35.62	63.63	147.0	76.71	46.08	94.76	826.3	1110	77.96	29.68	27.81	23.84	22.08	20.84	18.78	17.98	17.56	16.80	16.32	16.17	15.68	16.24	16.10	17.07	16.93	17.28	17.95	17.27	16.42	15.85	14.81	14.22	13.63	12.61	11.87	10.46	10.08	8.972	8.593	8.076	7.416	7.052	6.719	8.176	9.415	6.964	4.276	3.555	3.210	2.858	2.630	2.833	2.532	2.035	1.475	1.437	1.702	3.924	12.91	26.86	148.1	368.5	178.0	9.711	0.471	0.398	0.444	0.377	0.401	0.411	0.346	0.313	0.301	0.268
545.0	48.36	48.03	42.74	35.03	41.96	116.9	107.9	39.29	49.62	324.6	1353	200.1	26.56	25.92	21.11	18.78	18.10	16.85	16.36	15.89	15.44	15.02	14.29	13.97	14.36	14.48	14.29	14.64	14.94	15.65	15.36	15.01	13.86	12.88	12.00	11.85	10.94	10.33	9.820	9.341	8.207	7.885	7.148	6.714	6.149	6.000	6.394	8.181	7.609	5.075	3.396	2.956	2.616	2.360	2.217	2.425	2.138	1.570	1.224	1.189	1.609	3.607	6.663	34.98	167.2	332.0	127.3	2.793	0.447	0.404	0.385	0.328	0.320	0.321	0.299	0.283	0.228
550.0	56.66	52.31	43.38	31.16	29.93	67.20	125.7	49.93	35.45	103.5	788.5	913.9	67.67	21.61	18.29	16.55	15.44	14.22	13.80	13.46	12.93	12.34	12.01	11.79	11.96	12.26	11.92	12.58	12.53	13.52	12.62	12.48	11.47	11.12	10.32	10.15	9.230	8.798	8.193	8.099	6.994	6.636	6.139	5.819	5.541	5.118	4.945	5.686	6.857	5.886	3.784	2.748	2.402	2.030	1.989	1.858	1.967	1.991	1.194	1.029	0.986	1.483	2.049	8.422	39.57	134.4	230.9	113.8	11.58	0.528	0.368	0.346	0.295	0.324	0.298	0.287	0.289
555.0	71.63	54.71	53.24	29.00	24.09	40.70	103.2	85.47	33.86	48.42	238.0	1152	367.9	20.52	14.92	13.75	12.70	11.58	11.36	11.18	10.40	10.10	9.589	9.279	10.13	9.899	9.906	10.63	10.84	10.78	10.12	10.31	9.486	9.023	8.206	8.593	7.856	7.407	6.828	6.485	6.179	5.804	5.412	5.006	4.826	4.155	4.135	3.918	4.723	5.395	4.504	3.042	2.037	1.890	1.632	1.622	1.453	1.729	1.481	1.012	0.853	0.886	1.091	2.481	9.316	30.57	68.87	186.1	162.8	14.75	0.430	0.358	0.288	0.285	0.293	0.279	0.275
560.0	93.21	91.91	69.98	36.92	24.20	26.94	68.78	115.0	41.49	40.84	90.21	731.0	863.2	42.31	14.53	12.24	10.06	10.03	9.488	9.156	9.111	8.423	8.194	8.212	8.331	8.467	8.588	8.406	9.082	8.913	8.883	8.387	7.809	7.663	7.292	7.153	6.746	6.329	6.207	5.768	5.491	4.969	4.749	4.418	4.310	3.748	3.708	3.426	3.283	4.212	4.847	3.308	1.903	1.885	1.449	1.389	1.278	1.257	1.513	1.155	0.826	0.722	0.787	1.135	2.504	7.354	15.97	68.73	218.7	128.1	5.701	0.363	0.355	0.290	0.300	0.243	0.211
565.0	162.1	153.7	114.9	55.87	29.17	24.87	46.84	128.2	64.73	50.52	71.74	306.6	1135	135.0	13.13	11.24	9.215	8.824	8.123	7.845	7.092	7.267	7.154	6.772	7.148	7.153	6.837	7.103	7.633	7.808	7.646	7.562	6.979	6.895	6.759	6.123	5.675	5.699	5.339	5.269	4.832	4.480	4.361	4.063	3.905	3.448	3.357	3.055	2.879	3.209	4.058	3.500	2.106	1.667	1.302	1.205	1.174	1.037	1.306	1.501	0.996	0.786	0.811	0.861	0.983	2.174	4.123	16.30	95.04	222.1	33.31	2.015	0.312	0.318	0.337	0.266	0.299
570.0	275.8	289.2	220.2	97.94	37.74	26.26	36.53	106.4	123.4	88.94	105.2	155.1	724.9	736.3	37.82	8.914	7.653	7.238	6.774	6.098	6.024	5.837	5.949	5.710	5.746	5.598	6.077	5.891	6.159	6.267	6.059	6.217	6.036	5.964	5.966	5.400	5.142	4.694	4.495	4.208	3.959	3.682	3.670	3.565	3.329	3.322	3.246	3.048	2.623	2.340	2.877	3.285	2.577	1.733	1.207	1.172	0.993	0.916	0.995	1.204	1.317	1.064	0.879	0.909	0.957	1.152	1.582	4.282	22.77	86.35	142.7	76.66	10.40	0.406	0.281	0.357	0.284
575.0	414.9	411.0	309.6	134.8	44.77	30.58	39.26	82.01	169.1	139.0	147.0	149.9	276.6	1017	128.1	8.356	6.006	6.008	5.583	4.922	4.581	4.677	4.651	4.645	4.872	4.540	4.878	4.590	4.933	5.154	4.887	4.794	4.893	4.853	4.934	4.824	4.581	4.317	3.837	3.399	3.491	3.219	3.219	3.185	3.079	3.070	3.197	2.869	2.489	2.160	1.911	2.393	2.744	2.090	1.176	1.078	0.915	0.803	0.892	0.982	1.241	1.459	1.109	0.936	1.045	1.123	1.184	1.881	5.815	19.92	43.10	117.3	110.7	9.880	0.285	0.293	0.278
580.0	464.6	516.2	367.3	159.5	55.24	34.04	43.33	74.91	168.5	183.8	172.3	167.4	160.4	672.1	526.5	18.63	6.170	5.214	4.690	4.492	3.810	3.989	3.813	3.963	4.416	4.107	4.128	4.182	4.304	4.458	3.967	4.373	4.431	4.317	4.467	4.381	3.771	3.667	3.420	3.062	3.110	2.836	2.772	2.904	2.861	2.918	2.920	2.767	2.635	2.083	1.647	1.768	2.258	2.102	1.549	1.003	0.793	0.787	0.729	0.865	0.920	1.230	1.467	1.105	1.159	1.215	1.191	1.273	2.089	5.170	10.18	42.44	142.4	35.81	3.721	0.359	0.271
585.0	552.0	583.5	430.4	182.9	58.38	37.83	46.88	74.08	148.0	222.5	201.3	185.6	138.1	272.9	738.4	74.90	5.497	4.691	4.157	4.071	3.472	3.034	3.575	3.568	3.496	3.586	3.595	3.615	3.488	3.718	3.872	3.674	4.060	3.940	4.389	4.077	3.493	3.207	2.879	2.859	2.796	2.692	2.443	2.718	2.792	2.880	2.738	2.768	2.466	2.048	1.450	1.324	1.577	2.018	1.712	1.187	0.739	0.792	0.722	0.732	0.867	1.090	1.529	1.467	1.135	1.307	1.279	1.100	1.456	1.926	2.880	10.32	60.53	116.9	30.64	1.761	0.331
590.0	588.9	619.4	453.5	192.9	60.72	38.23	49.03	77.05	129.9	235.9	234.3	201.0	145.4	107.5	452.1	381.1	14.36	4.024	3.626	3.332	2.999	3.049	2.828	2.938	2.851	2.888	2.975	2.980	3.194	3.158	3.061	3.004	3.369	3.650	3.894	3.629	3.029	2.830	2.567	2.504	2.363	2.305	2.307	2.348	2.497	2.614	2.617	2.703	2.316	1.994	1.533	1.255	1.208	1.407	1.688	1.361	0.936	0.720	0.683	0.737	0.804	1.025	1.192	1.668	1.455	1.266	1.317	1.242	1.250	1.331	1.250	2.744	14.27	45.90	80.97	61.68	7.801
595.0	596.4	623.4	458.9	203.6	63.88	35.59	48.47	73.75	123.5	208.5	264.1	208.3	146.3	65.38	133.5	539.3	82.75	3.481	3.062	2.994	2.858	2.342	2.299	2.434	2.490	2.324	2.491	2.572	2.509	2.460	2.658	2.449	2.843	2.994	3.272	3.150	2.675	2.271	2.203	2.051	2.045	1.925	2.073	2.073	2.387	2.430	2.507	2.486	2.276	1.806	1.343	1.116	0.943	1.022	1.267	1.593	1.144	0.751	0.652	0.740	0.810	0.966	1.023	1.525	1.621	1.643	1.486	1.227	1.167	1.008	0.880	1.014	3.577	10.54	23.33	86.12	66.80
600.0	579.2	602.7	438.8	200.0	65.78	34.02	49.76	75.41	116.4	183.3	264.5	209.1	141.9	55.87	41.07	363.3	277.7	7.670	2.780	2.707	2.241	2.205	2.069	2.253	2.068	2.069	2.265	2.228	2.095	2.446	2.260	2.075	2.504	2.571	2.851	2.761	2.353	2.123	1.819	1.656	1.812	1.952	1.733	1.862	2.140	2.178	2.266	2.216	2.233	1.697	1.319	0.987	0.829	0.700	0.954	1.293	1.224	0.892	0.666	0.701	0.815	0.816	0.950	1.239	1.356	1.693	1.426	1.129	1.324	0.990	0.763	0.598	1.059	2.617	5.486	29.93	81.99
605.0	550.6	590.7	421.4	178.2	62.88	34.31	47.31	74.10	112.6	159.9	248.8	214.4	137.1	52.20	19.09	142.8	415.7	35.59	2.602	2.264	2.055	1.882	1.875	1.920	1.725	2.055	1.802	1.928	1.744	2.086	1.764	1.882	2.406	2.418	2.671	2.448	2.029	1.775	1.722	1.427	1.603	1.747	1.642	1.816	1.934	1.970	2.186	2.146	2.029	1.439	1.163	0.894	0.752	0.682	0.664	0.906	1.137	0.934	0.793	0.606	0.687	0.768	0.824	1.132	1.135	1.485	1.503	1.149	1.213	0.994	0.757	0.466	0.487	0.850	1.445	7.151	33.60
610.0	477.3	538.9	383.4	165.8	55.12	32.15	44.74	65.37	101.8	146.3	207.5	210.0	129.1	48.51	13.69	39.55	282.8	180.7	6.043	2.048	1.820	1.620	1.548	1.649	1.473	1.650	1.630	1.552	1.458	1.666	1.514	1.578	1.847	2.151	2.123	2.058	1.718	1.648	1.420	1.281	1.442	1.387	1.422	1.614	1.735	1.881	1.788	1.970	1.726	1.339	1.025	0.731	0.676	0.487	0.563	0.676	0.828	0.987	0.812	0.677	0.631	0.756	0.869	0.917	0.994	1.199	1.421	1.252	1.136	0.820	0.628	0.395	0.371	0.442	0.578	1.840	7.967
615.0	407.8	481.8	334.7	145.1	48.49	29.71	39.67	57.04	90.85	133.3	166.3	192.3	128.8	44.47	11.86	13.75	85.02	322.3	52.01	2.181	1.415	1.519	1.474	1.313	1.165	1.325	1.236	1.522	1.258	1.439	1.190	1.266	1.490	1.698	1.953	1.875	1.490	1.310	1.230	1.110	1.095	1.242	1.300	1.312	1.408	1.518	1.722	1.614	1.559	1.046	0.885	0.686	0.606	0.437	0.410	0.445	0.557	0.894	0.792	0.720	0.543	0.747	0.774	0.923	0.838	1.050	1.080	1.143	1.055	0.893	0.559	0.322	0.344	0.299	0.338	0.598	1.954
620.0	388.0	407.1	311.5	134.0	47.12	29.29	35.74	53.08	83.04	120.2	146.6	165.2	129.9	42.14	11.84	7.968	24.24	237.8	176.6	3.120	1.371	1.406	1.246	1.133	1.032	1.179	1.030	1.245	1.009	1.168	1.170	1.136	1.210	1.556	1.767	1.544	1.341	1.115	1.162	0.996	0.997	1.026	1.050	1.161	1.330	1.496	1.476	1.531	1.375	1.039	0.753	0.634	0.528	0.465	0.434	0.369	0.390	0.675	0.774	0.740	0.657	0.648	0.740	0.837	0.845	0.856	0.983	0.955	1.093	0.883	0.556	0.362	0.370	0.238	0.330	0.310	0.621
625.0	334.9	355.6	265.9	121.9	42.33	25.19	31.29	49.85	75.04	105.1	130.3	140.9	130.5	43.23	11.81	6.885	9.031	98.66	298.6	17.81	1.419	1.339	1.165	1.048	1.118	1.094	0.987	0.981	1.026	0.871	1.130	0.984	1.033	1.488	1.458	1.213	1.155	0.945	0.868	0.991	0.950	0.828	0.950	0.902	1.035	1.180	1.217	1.313	1.209	0.870	0.743	0.541	0.488	0.436	0.440	0.405	0.431	0.487	0.709	0.727	0.554	0.620	0.587	0.587	0.730	0.801	0.794	0.904	0.901	1.060	0.601	0.368	0.332	0.352	0.279	0.244	0.366
630.0	291.7	312.3	225.4	106.0	36.44	24.01	29.93	43.77	67.65	91.36	113.5	113.9	109.7	50.12	12.08	6.536	5.325	27.55	226.5	134.7	2.885	1.146	0.955	0.863	0.914	0.925	0.850	0.795	0.824	0.873	0.871	0.873	0.864	1.167	1.293	1.083	0.877	0.854	0.800	0.910	0.876	0.777	0.811	0.796	1.004	1.023	1.100	1.104	1.022	0.798	0.617	0.481	0.385	0.343	0.358	0.347	0.381	0.411	0.487	0.679	0.671	0.639	0.583	0.578	0.791	0.747	0.701	0.719	0.737	0.769	0.627	0.397	0.341	0.271	0.278	0.267	0.282
635.0	234.1	256.3	184.7	90.18	29.77	21.65	30.63	37.61	57.39	77.34	96.19	92.92	81.78	57.37	13.13	6.049	5.079	8.997	72.13	258.8	27.43	1.024	0.872	0.833	0.845	0.773	0.775	0.801	0.704	0.831	0.762	0.685	0.752	1.003	0.988	0.946	0.858	0.707	0.648	0.634	0.827	0.649	0.681	0.749	0.810	0.998	0.967	0.922	0.840	0.697	0.468	0.412	0.326	0.328	0.308	0.337	0.301	0.374	0.404	0.537	0.623	0.698	0.560	0.504	0.665	0.591	0.555	0.602	0.652	0.579	0.559	0.487	0.326	0.249	0.223	0.269	0.236
640.0	203.6	226.8	155.7	78.94	29.52	21.88	26.26	35.24	49.19	71.45	82.80	79.73	67.77	53.54	19.93	6.672	5.103	5.261	19.77	206.0	71.36	1.692	0.852	0.790	0.830	0.660	0.739	0.720	0.684	0.656	0.555	0.593	0.635	0.897	0.817	0.803	0.730	0.583	0.545	0.588	0.608	0.643	0.678	0.668	0.698	0.797	0.786	0.807	0.697	0.581	0.445	0.407	0.248	0.303	0.233	0.273	0.263	0.287	0.360	0.389	0.426	0.550	0.615	0.531	0.560	0.526	0.632	0.495	0.490	0.475	0.494	0.461	0.418	0.368	0.193	0.191	0.219
645.0	180.2	196.7	137.0	67.55	24.97	19.68	23.16	32.17	43.90	62.29	75.11	69.95	56.99	44.20	28.25	7.520	5.130	4.000	6.497	92.09	177.4	8.307	0.905	0.764	0.675	0.636	0.566	0.656	0.503	0.603	0.455	0.599	0.675	0.830	0.701	0.806	0.598	0.571	0.488	0.412	0.510	0.642	0.732	0.590	0.633	0.683	0.720	0.652	0.637	0.541	0.426	0.293	0.314	0.296	0.226	0.249	0.299	0.299	0.376	0.349	0.387	0.561	0.577	0.543	0.495	0.559	0.522	0.464	0.478	0.535	0.358	0.400	0.436	0.338	0.220	0.227	0.202
650.0	161.9	175.5	120.6	58.23	26.22	19.35	22.58	29.26	39.91	56.10	66.00	63.55	49.84	34.83	33.50	9.221	5.391	3.891	3.809	27.68	193.6	48.06	1.094	0.660	0.734	0.718	0.533	0.652	0.570	0.580	0.541	0.606	0.588	0.670	0.645	0.699	0.528	0.531	0.475	0.463	0.428	0.550	0.711	0.487	0.459	0.584	0.625	0.582	0.589	0.427	0.395	0.362	0.347	0.279	0.212	0.256	0.322	0.310	0.305	0.321	0.335	0.497	0.579	0.568	0.539	0.497	0.518	0.455	0.508	0.455	0.282	0.311	0.463	0.410	0.217	0.243	0.217
