Sample:	'1
File name:	T2025042705ª≥º“”—“Í«≈.FD3
Run date:	'10:43:19, 04/29/2025
Operator:	Administrator
Comment:	'

Instrument
Model:	F-2700 FL Spectrophotometer
Serial number:	23B8-004
ROM Version:	4J14000 07

Instrument parameters
Measurement type:	3-D scan
Data mode:	Fluorescence
EX  Start WL:	220.0 nm
EX  End WL:	600.0 nm
EX Sampling interval:	5.0 nm
EM  Start WL:	230.0 nm
EM  End WL:	650.0 nm
EM Sampling interval:	5.0 nm
Scan speed:	12000 nm/min
EX Slit:	5.0 nm
EM Slit:	5.0 nm
PMT Voltage:	700 V
Response:	Auto 
Corrected spectra:	Off
Contour interval:	50.000

Peak integration
Integration method:	Rectangular
Sensitivity:	1
Threshold:	1.000

Peaks
No.	ApexEX/EM(nm)	Height(Data)
1	225.0/595.0	64.72
2	225.0/615.0	57.74
3	225.0/630.0	54.09
4	230.0/340.0	1492
5	235.0/510.0	260.8
6	240.0/525.0	218.3
7	245.0/535.0	192.4
8	250.0/550.0	157.0
9	255.0/280.0	545.0
10	255.0/565.0	130.4
11	260.0/290.0	552.1
12	260.0/575.0	114.1
13	265.0/585.0	100.0
14	270.0/300.0	1074
15	270.0/600.0	97.19
16	275.0/310.0	1304
17	275.0/335.0	1467
18	275.0/615.0	92.31
19	280.0/315.0	1342
20	280.0/625.0	86.30
21	285.0/320.0	1406
22	285.0/635.0	68.53
23	315.0/355.0	417.1
24	320.0/365.0	391.8
25	325.0/370.0	366.1
26	330.0/375.0	352.5
27	335.0/380.0	344.7
28	425.0/500.0	36.04
29	440.0/520.0	20.83
30	460.0/345.0	5.174
31	505.0/275.0	3.239
32	520.0/285.0	3.967
33	530.0/290.0	3.812
34	540.0/295.0	5.240
35	545.0/300.0	6.329
36	550.0/305.0	6.769
37	565.0/340.0	7.502
38	570.0/315.0	7.920
39	575.0/320.0	8.058
40	585.0/325.0	7.441

Data points
	220.0	225.0	230.0	235.0	240.0	245.0	250.0	255.0	260.0	265.0	270.0	275.0	280.0	285.0	290.0	295.0	300.0	305.0	310.0	315.0	320.0	325.0	330.0	335.0	340.0	345.0	350.0	355.0	360.0	365.0	370.0	375.0	380.0	385.0	390.0	395.0	400.0	405.0	410.0	415.0	420.0	425.0	430.0	435.0	440.0	445.0	450.0	455.0	460.0	465.0	470.0	475.0	480.0	485.0	490.0	495.0	500.0	505.0	510.0	515.0	520.0	525.0	530.0	535.0	540.0	545.0	550.0	555.0	560.0	565.0	570.0	575.0	580.0	585.0	590.0	595.0	600.0
230.0	69.14	1661	4542	1679	76.98	11.15	8.234	7.526	6.204	6.586	5.452	5.211	4.663	4.142	3.684	3.147	2.932	2.686	2.535	2.250	1.977	1.871	1.691	1.530	1.579	1.709	1.284	1.264	1.242	1.113	1.167	1.155	0.973	0.932	0.965	0.835	0.828	0.706	0.728	0.681	0.642	0.723	0.787	0.597	0.632	0.611	1.594	7.795	17.27	13.40	5.963	1.433	0.500	0.475	0.422	0.397	0.439	0.439	0.395	0.374	0.386	0.386	0.428	0.390	0.396	0.396	0.355	0.374	0.349	0.356	0.335	0.325	0.317	0.309	0.328	0.352	0.359
235.0	92.71	459.8	3144	5891	2418	128.9	10.26	9.774	7.225	6.371	6.097	5.417	4.519	4.898	3.663	3.105	2.830	2.952	2.704	2.352	2.082	1.867	1.482	1.539	1.735	1.614	1.353	1.406	1.359	1.232	1.062	1.218	1.010	0.982	0.981	0.835	0.782	0.743	0.719	0.658	0.729	0.658	0.723	0.782	0.738	0.736	0.895	2.309	6.508	11.98	19.64	21.93	11.30	2.973	0.624	0.487	0.509	0.458	0.402	0.355	0.406	0.366	0.393	0.359	0.345	0.375	0.313	0.393	0.359	0.366	0.374	0.344	0.345	0.301	0.348	0.354	0.347
240.0	141.6	181.8	964.6	5329	7592	514.2	58.70	12.19	8.821	9.123	7.320	6.392	5.413	4.765	4.550	3.448	3.213	3.084	2.871	2.413	2.004	2.053	1.904	1.716	1.618	1.800	1.344	1.554	1.184	1.457	1.139	1.322	0.885	1.049	0.972	0.841	0.820	0.777	0.719	0.754	0.737	0.648	0.662	0.648	0.843	0.922	0.823	1.013	1.874	3.661	10.29	26.27	34.36	22.74	11.23	1.885	0.513	0.492	0.459	0.349	0.458	0.373	0.435	0.365	0.398	0.384	0.330	0.402	0.358	0.342	0.329	0.389	0.348	0.372	0.345	0.381	0.422
245.0	133.1	195.4	282.8	1886	8266	8000	396.9	29.09	11.61	10.69	8.237	6.689	5.593	5.324	4.552	3.947	3.446	3.614	2.813	2.289	2.040	2.346	1.843	1.738	1.810	2.012	1.510	1.483	1.343	1.342	1.045	1.199	0.900	1.010	1.000	0.855	0.845	0.813	0.780	0.816	0.656	0.640	0.663	0.593	0.743	0.858	1.141	0.998	0.947	1.192	2.795	8.257	21.82	41.50	48.82	20.86	7.462	0.960	0.540	0.506	0.409	0.436	0.459	0.406	0.405	0.515	0.392	0.371	0.416	0.365	0.363	0.355	0.319	0.334	0.347	0.435	0.355
250.0	72.30	152.8	252.8	518.8	2666	8466	9393	1451	103.6	15.91	11.12	9.030	7.443	6.015	5.575	4.267	3.983	3.483	3.192	2.770	2.506	2.198	1.969	1.905	1.823	1.927	1.593	1.667	1.399	1.301	1.222	1.190	1.028	1.015	0.994	1.021	0.832	0.818	0.810	0.819	0.748	0.634	0.763	0.679	0.630	0.697	0.870	1.109	1.235	1.147	1.296	2.327	5.466	13.13	27.16	39.03	40.42	43.22	16.00	7.118	1.024	0.522	0.512	0.461	0.413	0.451	0.440	0.387	0.422	0.457	0.425	0.391	0.392	0.358	0.339	0.368	0.378
255.0	52.49	67.48	187.3	376.7	684.2	2146	7786	9999.9	2078	136.8	16.58	13.25	10.23	7.521	6.525	4.870	4.479	3.803	3.307	3.053	2.731	2.479	2.033	2.002	1.945	2.092	1.773	1.727	1.494	1.349	1.264	1.249	1.035	1.099	1.140	0.900	0.878	0.964	0.806	0.832	0.821	0.746	0.724	0.777	0.706	0.766	0.678	0.798	0.794	1.134	1.541	1.745	1.995	3.446	6.547	9.489	15.22	40.65	77.91	79.37	24.05	8.239	0.797	0.562	0.471	0.459	0.402	0.506	0.401	0.480	0.483	0.445	0.348	0.379	0.403	0.450	0.409
260.0	47.51	42.52	82.87	306.0	386.7	539.2	2428	9999.9	9999.9	1735	73.19	17.99	13.19	10.67	7.129	5.438	5.092	4.311	3.544	3.249	3.045	2.554	2.297	2.458	2.039	2.222	1.801	1.876	1.582	1.479	1.332	1.249	1.147	1.149	1.166	0.905	0.878	1.018	0.958	0.836	0.873	0.794	0.682	0.708	0.885	0.769	0.642	0.665	0.689	0.788	1.117	1.884	1.926	1.762	2.083	2.564	3.978	10.89	32.58	73.51	97.61	80.38	19.58	3.879	0.638	0.525	0.556	0.475	0.417	0.519	0.466	0.456	0.428	0.481	0.489	0.421	0.386
265.0	53.32	40.49	45.34	154.0	395.2	302.0	596.0	3912	9999.9	9999.9	1203	34.74	17.98	13.05	8.788	6.415	5.904	5.362	4.181	3.621	2.844	2.597	2.443	2.330	2.280	2.369	1.778	1.937	1.864	1.546	1.398	1.528	1.293	1.160	1.114	1.055	1.040	0.930	0.840	0.921	0.888	0.951	0.810	0.739	0.809	0.760	0.669	0.695	0.645	0.607	0.652	1.100	1.818	2.334	1.969	1.286	1.489	2.929	8.001	21.11	52.82	103.9	118.2	30.02	13.93	1.622	0.723	0.606	0.477	0.529	0.498	0.443	0.416	0.410	0.482	0.509	0.358
270.0	67.46	55.56	48.14	68.96	208.4	384.8	338.6	951.7	4012	9999.9	9999.9	4320	75.88	20.20	13.43	9.153	7.450	6.088	4.838	4.393	3.735	3.189	2.800	2.501	2.590	2.634	2.017	1.876	1.845	1.676	1.694	1.707	1.400	1.411	1.313	1.100	1.093	0.983	0.883	0.907	0.899	0.977	0.793	0.888	0.922	0.794	0.792	0.696	0.685	0.617	0.570	0.722	1.006	1.449	1.973	2.296	2.072	1.690	2.455	5.250	12.84	29.68	57.47	82.40	114.4	91.68	60.12	9.716	1.516	0.609	0.627	0.510	0.446	0.511	0.480	0.497	0.428
275.0	118.1	109.2	91.24	63.91	84.14	209.6	485.5	424.6	959.2	2771	9999.9	9999.9	1281	81.08	21.72	13.47	10.32	7.700	6.287	5.335	4.297	3.718	3.362	2.913	3.089	3.166	2.216	2.184	1.968	1.750	1.712	1.856	1.623	1.413	1.558	1.217	1.153	1.128	0.966	0.967	0.909	1.010	0.895	0.903	1.041	0.986	0.954	0.866	0.748	0.691	0.772	0.751	0.769	0.762	1.038	1.411	2.526	3.239	2.498	2.107	3.536	7.266	13.49	19.45	34.58	75.76	159.7	166.8	29.89	11.52	1.135	0.638	0.689	0.566	0.569	0.419	0.665
280.0	164.8	177.3	138.2	87.78	62.37	98.78	341.6	545.0	357.0	712.7	3361	9999.9	9999.9	985.3	52.07	20.14	13.94	10.10	7.583	6.399	5.126	4.212	3.404	3.427	3.616	3.596	2.502	2.430	2.203	1.787	2.020	1.847	1.657	1.714	1.665	1.412	1.252	1.198	1.026	1.020	1.054	1.014	1.050	1.028	1.103	1.064	1.138	1.086	0.868	0.739	0.755	0.795	0.694	0.658	0.803	0.915	1.424	2.430	3.398	3.048	2.085	2.500	3.735	5.151	8.621	19.27	56.79	131.9	182.4	150.3	24.48	5.731	1.008	0.602	0.728	0.566	0.643
285.0	229.3	249.1	197.2	122.9	73.01	77.79	165.4	522.6	354.6	293.5	884.7	4609	9999.9	9999.9	683.5	30.64	18.44	12.80	9.484	7.266	5.682	4.754	3.977	3.546	3.298	3.667	2.934	2.606	2.262	1.950	2.024	1.872	1.776	1.660	1.813	1.494	1.314	1.345	1.040	1.070	1.250	1.127	1.102	1.118	1.219	1.311	1.333	1.079	1.087	0.944	0.896	0.795	0.762	0.828	0.782	0.785	1.008	1.499	2.164	3.455	3.967	2.593	1.772	2.074	2.807	5.138	13.84	34.76	82.20	166.1	205.3	33.99	17.85	2.105	0.878	0.752	0.770
290.0	317.2	374.3	309.7	191.1	109.8	91.55	117.2	272.0	552.1	509.3	435.1	1258	4776	9999.9	9999.9	2758	51.10	20.27	13.87	9.763	7.424	5.985	4.761	4.550	3.927	3.924	3.220	3.181	2.560	2.271	2.226	2.184	1.849	1.898	1.901	1.676	1.574	1.473	1.249	1.215	1.272	1.285	1.245	1.266	1.427	1.355	1.522	1.576	1.392	1.223	1.149	1.082	0.930	0.929	0.925	0.860	1.024	1.190	1.354	1.790	2.838	3.663	3.812	3.205	2.203	2.501	4.390	9.156	20.08	43.83	85.03	110.7	153.2	120.0	95.55	12.59	3.306
295.0	399.1	501.8	425.8	289.9	165.8	132.4	146.9	215.6	351.7	742.1	747.2	639.3	1352	2813	9999.9	9999.9	3926	57.66	21.52	14.64	9.594	7.820	6.469	5.236	4.757	4.832	3.617	3.182	2.864	2.606	2.744	2.370	2.183	1.955	2.138	1.938	1.758	1.750	1.432	1.464	1.412	1.323	1.348	1.481	1.520	1.534	1.873	1.831	1.819	1.535	1.413	1.399	1.122	1.062	1.180	1.149	1.085	1.232	1.317	1.446	2.063	2.220	3.036	4.552	5.240	4.060	2.952	3.925	6.351	11.56	20.57	26.51	40.85	78.97	194.4	234.4	35.92
300.0	462.9	570.0	525.6	359.2	215.8	182.0	197.5	251.5	336.5	611.5	1074	775.6	708.1	939.0	3388	9999.9	9999.9	613.8	39.11	20.48	12.70	9.778	7.401	5.964	5.357	5.892	3.926	3.424	3.150	2.936	2.904	2.683	2.247	2.147	2.204	1.894	1.935	1.828	1.649	1.506	1.620	1.529	1.492	1.453	1.745	1.824	2.117	2.242	2.203	1.891	1.657	1.708	1.326	1.276	1.297	1.433	1.317	1.484	1.654	1.625	1.897	2.286	2.541	3.379	4.917	6.329	4.787	3.692	3.787	4.847	6.915	7.901	10.86	20.03	60.12	144.4	233.1
305.0	515.0	680.6	632.6	442.2	273.0	233.8	262.4	319.4	417.1	585.3	1012	1219	751.9	629.5	1046	4452	9999.9	9999.9	435.6	29.15	16.48	12.18	8.565	7.447	6.214	6.239	4.490	3.916	3.628	3.236	3.077	2.824	2.419	2.310	2.417	1.958	1.872	1.963	1.764	1.627	1.600	1.507	1.551	1.708	1.863	2.007	2.433	2.480	2.441	2.190	1.971	2.063	1.533	1.540	1.445	1.482	1.596	1.769	1.960	2.036	2.063	2.520	2.836	3.178	3.970	5.425	6.769	5.846	4.993	4.015	4.420	4.320	4.546	6.290	15.15	36.44	87.21
310.0	583.9	804.5	766.1	528.6	343.7	290.3	326.5	412.1	525.6	688.7	951.6	1304	1239	809.9	636.3	1224	4772	9999.9	9999.9	2063	39.28	17.35	11.86	9.392	7.306	7.797	5.075	4.790	4.057	3.471	3.268	3.155	2.457	2.480	2.617	2.198	2.068	1.988	1.763	1.775	1.632	1.717	1.603	1.826	2.046	2.166	2.657	2.915	2.862	2.520	2.242	2.128	1.921	1.834	1.636	1.713	1.844	2.115	2.286	2.393	2.695	3.197	3.357	3.575	4.191	4.726	5.708	6.350	6.992	6.733	5.735	4.398	3.958	3.898	5.543	9.890	21.01
315.0	659.1	931.3	873.3	619.6	410.4	351.5	403.7	499.9	642.6	821.4	1039	1236	1342	1230	714.3	556.0	1229	2628	9999.9	9999.9	3022	40.83	18.37	13.14	9.463	9.392	5.880	5.592	4.463	3.943	3.416	3.347	2.641	2.793	2.811	2.363	2.230	2.165	1.873	1.799	1.833	1.763	1.741	2.013	2.310	2.509	2.945	3.287	3.058	2.635	2.500	2.322	2.008	2.084	1.979	1.839	2.366	2.462	2.423	2.744	3.316	3.730	3.921	4.170	4.780	5.163	5.626	5.965	6.418	7.159	7.920	7.405	5.377	4.118	3.693	4.207	6.449
320.0	713.7	1008	1001	696.9	449.4	411.7	455.8	550.9	711.9	915.2	1150	1312	1286	1406	980.6	477.2	477.0	710.7	3241	9999.9	9999.9	455.0	30.67	17.36	12.84	11.15	6.463	5.954	5.143	3.882	3.916	3.622	3.022	3.090	2.777	2.669	2.238	2.325	2.108	1.942	1.975	2.174	1.862	1.921	2.547	2.725	3.272	3.576	3.584	2.857	2.797	2.621	2.496	2.264	2.057	2.089	2.597	2.678	2.834	3.237	3.723	4.196	4.440	4.303	5.137	5.655	6.151	5.968	6.360	6.429	7.367	8.058	7.456	5.716	3.949	3.457	3.458
325.0	804.1	1160	1158	798.0	509.2	454.5	494.4	595.6	774.8	985.9	1220	1383	1310	1313	1192	598.1	349.2	301.1	829.9	4479	9999.9	9999.9	344.4	24.23	16.20	14.06	7.922	7.265	5.476	4.454	4.237	3.814	3.159	3.192	3.054	2.658	2.141	2.315	2.174	1.995	1.941	1.979	1.933	2.125	2.686	2.894	3.288	3.851	3.964	3.333	3.004	3.024	2.750	2.408	2.326	2.499	2.736	2.748	2.952	3.080	3.695	4.154	4.465	4.995	5.517	5.438	6.187	6.374	6.625	6.879	6.928	6.986	7.255	7.441	5.588	3.918	2.956
330.0	887.3	1312	1343	967.8	602.3	505.4	532.6	641.5	822.7	1037	1278	1453	1362	1275	1106	820.6	451.8	246.0	304.7	1104	4522	9999.9	9999.9	1653	34.00	19.85	11.27	9.271	6.831	5.301	5.182	4.265	3.583	3.190	3.168	2.703	2.415	2.319	2.228	2.145	2.067	1.913	2.043	2.223	2.761	2.975	3.903	4.279	4.574	3.938	3.410	3.359	2.768	2.665	2.603	2.567	2.726	3.050	3.235	3.409	3.835	4.447	4.899	5.164	5.797	5.735	6.172	6.579	6.798	7.052	7.106	6.743	6.513	6.360	6.051	5.529	4.541
335.0	938.6	1374	1446	1082	690.9	566.4	572.4	666.7	849.2	1062	1294	1467	1392	1287	1024	764.9	661.9	339.1	216.5	357.8	1086	2615	9999.9	9999.9	2549	42.10	16.33	12.83	8.733	6.705	5.834	5.321	3.995	3.605	3.647	2.964	2.608	2.472	2.338	2.391	2.179	2.165	2.185	2.393	2.878	3.046	4.115	4.583	5.035	4.060	3.788	3.870	3.352	3.097	2.799	2.842	3.115	3.224	3.181	3.553	3.908	4.326	4.937	5.226	5.841	6.043	6.867	7.002	7.110	7.144	6.995	6.446	6.546	5.794	5.460	4.733	4.904
340.0	918.5	1382	1492	1139	739.3	615.2	600.0	680.7	853.9	1038	1261	1441	1368	1273	1013	711.8	642.1	496.0	246.9	207.9	333.1	652.5	3155	9999.9	9999.9	404.1	25.75	15.88	10.73	8.110	6.577	5.594	4.619	4.003	3.743	3.032	2.892	2.465	2.395	2.136	2.257	2.243	2.212	2.456	2.912	3.107	4.124	4.768	4.950	4.218	4.031	3.959	3.147	3.215	2.854	2.735	3.062	3.285	3.422	3.684	3.858	4.476	4.946	5.443	5.984	6.065	6.612	6.512	6.921	7.502	7.057	6.568	6.580	5.840	5.261	4.301	4.115
345.0	909.8	1356	1456	1157	784.6	636.2	617.1	671.0	836.0	1015	1219	1378	1322	1224	992.1	690.6	546.4	548.1	354.5	197.3	180.4	224.0	773.0	4433	9999.9	9999.9	304.9	21.33	13.04	9.350	7.581	6.233	4.591	4.340	3.993	3.237	2.678	2.437	2.493	2.164	2.047	2.168	2.223	2.298	2.850	3.056	4.055	4.569	5.174	4.199	3.919	4.105	3.598	3.278	3.020	3.019	2.997	3.214	3.281	3.534	3.892	4.460	4.806	5.179	5.525	5.639	6.546	6.355	6.615	7.077	7.016	6.649	6.391	5.773	4.898	4.158	3.803
350.0	823.8	1253	1383	1147	797.6	661.4	621.3	668.0	797.8	965.7	1131	1269	1220	1144	942.2	675.8	514.0	452.1	446.3	304.2	180.4	150.4	251.0	1062	4874	9999.9	9999.9	1521	29.12	13.20	10.13	7.770	5.518	4.887	4.430	3.549	3.007	2.736	2.419	2.208	2.255	2.287	2.224	2.224	2.718	3.215	3.942	4.295	4.816	4.143	4.065	4.177	3.577	3.366	3.133	3.131	3.115	3.304	3.354	3.524	3.886	4.254	4.371	4.895	5.223	5.344	5.708	5.769	6.040	6.349	6.376	6.049	5.931	5.478	4.854	4.221	3.889
355.0	777.5	1143	1253	1112	822.5	700.1	656.6	682.5	784.2	911.2	1036	1160	1119	1049	891.6	660.6	521.7	418.0	385.9	417.1	271.4	165.8	157.9	313.3	1147	2685	9999.9	9999.9	2381	30.51	13.92	9.912	6.712	5.390	4.835	3.851	3.245	2.631	2.548	2.339	2.245	2.119	2.397	2.148	2.599	2.999	3.586	3.734	4.451	3.744	3.922	3.870	3.600	3.537	3.320	3.271	3.271	3.434	3.164	3.674	4.005	3.986	4.373	4.542	4.681	5.216	5.262	5.416	5.661	5.875	5.827	5.612	5.496	4.999	4.817	4.413	4.048
360.0	715.9	1051	1166	1063	832.5	715.2	674.1	690.6	773.9	882.8	978.2	1086	1044	985.8	857.9	651.4	529.8	432.8	372.1	388.6	378.8	219.3	156.0	163.6	328.0	659.6	2986	9999.9	9999.9	371.8	25.33	12.61	8.505	6.575	5.551	4.317	3.517	2.910	2.794	2.428	2.388	2.101	2.306	2.330	2.384	2.818	3.469	3.911	4.225	3.625	3.705	3.796	3.703	3.433	3.446	3.233	3.468	3.474	3.385	3.546	3.876	4.156	4.432	4.468	4.699	4.720	4.877	5.170	5.352	5.462	5.660	5.402	5.349	4.694	4.627	4.276	3.882
365.0	663.2	969.7	1122	1021	819.9	723.6	678.5	690.1	762.6	851.9	926.5	1024	982.4	934.4	815.9	643.6	535.5	447.5	383.2	351.6	391.8	316.3	186.3	148.0	159.3	213.2	723.2	4132	9999.9	9999.9	303.2	18.70	10.44	8.100	6.831	5.039	3.642	3.162	2.947	2.518	2.476	2.159	2.218	2.240	2.421	2.806	3.355	3.656	3.885	3.773	3.601	3.898	3.598	3.498	3.491	3.351	3.403	3.378	3.539	3.555	3.878	3.948	3.991	4.519	4.601	4.625	4.920	4.911	5.213	5.071	5.331	5.152	5.080	4.831	4.563	4.242	4.090
370.0	590.0	886.6	1031	989.4	839.3	741.8	701.0	702.6	752.8	814.8	870.8	939.2	907.9	863.1	768.5	631.0	541.8	462.9	408.8	363.4	351.7	366.1	290.8	183.4	146.2	133.1	225.3	983.1	4103	9999.9	9999.9	1387	25.57	11.41	8.692	5.997	4.334	3.728	3.297	2.768	2.655	2.379	2.288	2.225	2.439	2.661	3.296	3.417	3.593	3.493	3.332	3.838	3.921	3.503	3.483	3.400	3.640	3.547	3.501	3.569	3.732	3.802	4.086	4.322	4.408	4.132	4.587	4.680	4.582	4.857	4.904	4.820	4.757	4.589	4.619	3.992	4.069
375.0	574.6	793.2	952.2	936.9	836.5	752.1	718.5	701.5	739.3	784.1	823.4	863.4	843.3	804.5	721.0	613.2	543.9	480.7	433.6	388.3	351.5	332.8	352.5	277.1	176.8	137.8	132.3	282.9	963.9	2504	9999.9	9999.9	2192	28.65	12.23	8.113	5.454	4.565	3.707	3.069	2.910	2.628	2.477	2.291	2.417	2.574	3.311	3.138	3.297	3.266	3.147	3.770	3.516	3.612	3.477	3.452	3.473	3.394	3.597	3.594	3.800	3.574	4.032	4.127	4.390	4.040	4.325	4.311	4.380	4.574	4.490	4.474	4.382	4.509	4.421	3.926	3.915
380.0	552.8	756.9	901.9	896.1	824.5	753.7	725.2	702.4	725.6	762.0	793.7	813.2	795.5	756.3	683.7	600.7	538.4	489.0	447.2	407.4	365.0	325.9	330.4	344.7	229.6	156.9	127.8	139.5	272.6	606.1	2924	9999.9	9999.9	322.6	22.25	10.24	6.651	5.583	3.838	3.299	2.871	2.813	2.504	2.326	2.499	2.776	3.237	3.042	3.246	3.078	3.099	3.543	3.574	3.662	3.522	3.427	3.590	3.575	3.416	3.579	3.700	3.610	4.001	3.974	4.060	3.992	4.221	4.334	3.974	4.300	4.043	4.421	4.388	4.163	4.170	4.120	3.855
385.0	521.6	726.6	849.9	891.5	815.0	772.8	718.2	703.4	715.1	733.6	760.7	778.1	754.9	720.9	658.4	590.4	529.8	488.6	449.1	418.5	379.9	339.3	315.3	337.4	302.2	190.5	143.3	121.4	129.9	190.0	701.3	3701	9999.9	9999.9	265.5	15.67	8.448	6.686	4.644	3.667	3.106	3.013	2.809	2.741	2.573	2.635	3.175	3.161	3.229	2.798	2.932	3.559	3.721	3.661	3.544	3.412	3.667	3.761	3.788	3.556	3.747	3.643	3.828	3.898	3.913	3.891	3.915	3.897	3.863	4.109	3.881	3.987	3.985	4.025	3.950	4.019	3.847
390.0	487.5	679.2	821.9	841.0	803.6	755.8	717.4	702.5	706.0	709.9	730.6	735.2	711.8	679.9	628.2	566.9	521.6	486.5	455.0	423.5	389.5	356.5	324.7	310.1	319.2	271.2	183.5	139.7	118.0	112.1	210.3	873.0	3450	9999.9	9999.9	1141	21.26	9.190	6.286	4.731	3.794	3.543	2.909	2.679	2.823	2.708	3.156	3.037	3.117	2.980	2.978	3.469	3.643	3.734	3.527	3.583	3.644	3.735	3.606	3.523	3.564	3.670	3.697	3.783	3.687	3.624	3.760	3.760	3.682	3.909	3.704	3.878	3.792	4.025	3.723	3.761	3.778
395.0	464.6	660.9	785.4	814.2	789.1	765.2	713.2	697.1	686.5	685.6	694.6	694.5	668.4	640.2	597.3	546.6	503.9	477.6	453.6	422.4	399.1	367.7	340.3	314.6	294.8	302.3	258.8	175.1	138.2	113.8	115.2	244.1	804.6	2404	9682	9999.9	1972	26.27	8.962	6.211	4.932	4.246	3.406	2.993	2.997	2.764	3.140	3.127	2.994	2.920	3.069	3.493	3.589	3.636	3.588	3.503	3.749	3.498	3.624	3.601	3.661	3.600	3.604	3.474	3.495	3.512	3.593	3.714	3.615	3.768	3.579	3.766	3.834	3.686	3.727	3.508	3.463
400.0	442.4	640.2	736.9	793.5	757.9	756.6	703.7	683.2	681.0	666.1	686.7	665.8	650.0	619.3	572.8	529.4	491.9	468.0	451.1	422.5	401.3	373.8	350.3	322.7	297.2	284.6	296.9	225.3	157.5	128.4	106.6	113.8	222.1	569.9	2578	9999.9	9999.9	1606	19.20	7.675	5.472	4.897	3.728	3.194	2.918	2.872	3.401	3.028	3.284	2.882	3.030	3.579	3.447	3.617	3.360	3.433	3.675	3.719	3.598	3.569	3.522	3.509	3.538	3.469	3.404	3.527	3.604	3.341	3.686	3.432	3.553	3.389	3.657	3.553	3.595	3.547	3.369
405.0	442.4	603.2	714.4	773.5	758.5	733.1	700.4	679.6	669.3	658.8	662.0	645.3	626.9	598.7	557.3	510.5	482.1	458.8	440.0	419.5	397.1	374.7	356.3	331.7	302.7	278.4	284.3	274.7	189.8	143.6	115.1	93.04	99.04	163.5	607.4	3000	9999.9	9999.9	255.6	12.99	6.815	5.492	4.289	3.315	3.236	3.027	3.279	3.049	3.082	2.764	3.066	3.148	3.301	3.402	3.282	3.395	3.874	3.675	3.761	3.572	3.551	3.346	3.517	3.502	3.577	3.413	3.596	3.467	3.371	3.439	3.659	3.572	3.510	3.395	3.333	3.537	3.439
410.0	428.3	585.5	691.9	747.6	752.7	716.3	696.8	680.2	655.7	647.8	641.6	624.7	598.7	571.4	530.3	492.2	461.9	442.3	426.5	409.2	390.5	375.7	357.1	334.6	310.2	284.4	269.5	270.1	246.6	177.3	130.2	100.0	80.23	79.82	168.8	697.4	2954	9999.9	9999.9	3226	20.32	7.852	5.282	4.379	3.628	3.264	3.409	3.165	3.065	2.772	2.917	3.270	3.467	3.424	3.346	3.319	3.675	3.725	3.673	3.428	3.421	3.341	3.496	3.471	3.365	3.299	3.429	3.460	3.200	3.421	3.514	3.277	3.294	3.337	3.139	3.376	3.508
415.0	411.5	550.4	669.1	719.3	724.0	707.3	696.1	677.4	651.5	628.9	623.9	603.9	570.1	541.5	508.0	467.8	441.3	426.5	410.4	393.1	378.2	364.8	353.2	331.7	312.0	288.8	269.3	247.0	254.4	231.0	157.6	112.9	85.88	68.41	76.85	184.9	679.5	2315	6636	9999.9	1903	25.36	7.702	5.217	4.711	3.611	3.839	3.304	3.328	2.691	3.012	3.434	3.487	3.525	3.328	3.507	3.751	3.515	3.480	3.544	3.315	3.370	3.501	3.483	3.220	3.156	3.310	3.164	3.138	3.065	3.134	2.942	3.054	3.070	3.129	3.268	3.463
420.0	394.6	536.0	645.2	691.3	719.3	690.6	699.0	669.6	647.0	620.6	615.0	581.0	545.1	524.2	490.5	451.0	426.3	411.7	397.7	379.7	368.1	352.2	342.1	329.3	311.8	290.5	269.1	247.5	239.4	246.0	189.9	125.9	95.11	72.02	59.75	74.16	175.1	536.0	1691	8162	9999.9	1582	19.67	6.487	5.522	4.178	4.096	3.596	3.075	2.844	2.777	3.298	3.327	3.362	3.214	3.341	3.578	3.815	3.463	3.320	3.481	3.433	3.294	3.292	3.250	3.216	3.016	2.945	2.978	3.153	3.089	3.020	2.938	2.899	3.128	3.100	3.334
425.0	364.8	530.4	620.0	667.5	703.4	673.8	674.7	659.9	644.1	623.2	597.6	565.9	545.5	499.9	466.8	433.5	408.6	400.5	383.1	366.0	353.7	342.7	336.6	319.9	309.2	290.6	268.2	248.9	232.4	230.2	217.0	147.8	102.5	78.12	60.66	52.19	65.22	141.1	395.9	2248	9888	9999.9	251.3	13.67	6.490	4.894	4.704	3.964	3.324	2.959	2.928	3.499	3.341	3.576	3.313	3.346	3.424	3.707	3.434	3.458	3.283	3.680	3.448	3.349	3.246	3.175	2.993	2.893	3.028	2.949	2.926	3.064	2.957	3.042	2.963	2.876	3.053
430.0	423.8	495.4	602.5	636.8	661.9	665.9	669.1	655.4	636.5	607.7	586.2	547.4	523.7	482.8	449.1	412.6	391.6	382.1	367.7	349.7	337.1	326.9	322.6	311.6	301.8	286.3	266.8	248.6	232.9	214.8	209.3	181.8	124.9	88.25	68.29	53.42	46.51	55.70	107.4	517.9	2644	8231	9999.9	3211	19.82	6.749	5.663	4.471	3.705	3.085	2.948	3.288	3.494	3.629	3.467	3.467	3.680	3.655	3.478	3.525	3.314	3.427	3.318	3.266	3.205	3.156	3.155	2.978	2.854	3.034	2.919	2.884	2.887	2.982	2.795	2.784	3.081
435.0	702.1	492.2	575.7	603.1	636.4	654.5	648.8	653.4	619.7	593.8	572.2	542.4	500.0	466.2	423.8	395.4	373.1	361.8	348.9	332.0	319.7	310.9	307.2	303.1	289.9	279.0	265.3	249.2	234.4	212.7	192.3	180.1	156.2	103.7	76.74	58.97	47.17	40.52	45.80	132.5	603.1	1888	5438	9999.9	1851	25.14	7.691	5.228	4.268	3.582	3.207	3.543	3.644	3.798	3.525	3.468	3.550	3.633	3.625	3.529	3.315	3.620	3.140	3.293	3.140	2.907	3.038	2.914	3.074	2.865	2.806	2.645	2.770	2.869	2.648	2.856	2.742
440.0	1047	543.2	549.6	593.9	612.7	633.6	644.4	634.7	622.1	583.6	559.3	524.8	488.2	447.3	411.5	381.4	357.9	351.1	336.9	313.9	305.6	296.6	296.3	291.3	279.0	272.2	257.5	249.3	232.8	211.7	188.3	167.6	163.8	125.3	85.11	63.39	50.27	40.76	34.63	48.38	150.0	435.4	1356	7140	9999.9	1557	20.10	6.886	4.819	3.966	3.626	3.735	3.665	3.716	3.409	3.567	3.405	3.650	3.504	3.448	3.288	3.717	3.320	3.148	3.310	3.228	3.105	2.813	2.950	2.762	2.823	2.717	2.661	2.843	2.634	2.676	2.747
445.0	1403	841.9	526.5	579.6	608.5	621.3	627.3	620.9	605.1	580.8	550.1	510.2	477.2	431.6	399.3	364.0	346.0	334.4	320.6	302.1	290.5	282.3	282.9	278.5	270.5	263.2	251.0	242.3	225.6	209.6	186.3	161.9	151.5	139.4	98.23	69.06	54.50	43.48	34.05	31.26	51.03	111.5	316.7	1942	9192	9999.9	218.8	14.52	5.905	4.419	3.978	3.718	3.594	3.680	3.595	3.367	3.214	3.756	3.658	3.288	3.278	3.539	3.186	3.389	3.111	3.074	2.853	2.838	2.820	2.658	2.720	2.620	2.693	2.569	2.706	2.620	2.720
450.0	1053	1767	718.4	544.7	569.4	593.1	604.6	597.8	577.0	549.5	523.1	482.1	445.0	404.6	374.5	343.9	323.5	311.5	296.6	282.0	268.5	262.8	263.6	259.0	254.0	248.1	239.6	229.6	218.3	203.4	181.8	159.2	138.7	130.4	115.6	80.89	58.74	46.84	37.26	30.70	31.04	40.54	84.18	445.8	2439	7239	9999.9	3368	17.47	6.093	4.636	4.290	3.823	3.797	3.728	3.431	3.417	3.745	3.666	3.259	3.227	3.481	3.161	3.222	2.957	2.892	2.693	2.816	2.680	2.556	2.746	2.529	2.536	2.362	2.495	2.464	2.505
455.0	502.7	2224	1722	542.9	529.5	546.8	564.1	560.4	541.6	525.1	488.0	457.0	410.5	377.5	347.1	318.8	297.0	287.1	273.8	256.1	243.9	243.1	240.6	237.0	233.6	228.9	222.5	216.6	205.8	195.6	177.9	153.1	132.7	116.6	111.5	97.29	68.01	49.12	40.29	32.32	28.29	26.48	32.98	111.2	554.3	1651	4974	9999.9	1568	20.43	6.225	4.978	4.297	4.178	3.802	3.583	3.442	3.862	3.420	3.380	3.353	3.255	3.088	3.192	2.906	2.662	2.692	2.793	2.688	2.620	2.456	2.421	2.438	2.230	2.412	2.401	2.518
460.0	332.1	1619	3046	747.9	512.1	513.3	529.1	525.1	519.4	498.3	463.2	435.0	386.7	355.1	319.4	295.7	280.4	270.7	253.9	235.8	227.5	223.9	221.6	219.6	217.3	211.5	205.9	202.4	194.7	186.4	168.9	147.6	127.3	110.6	100.6	98.15	78.21	53.51	41.68	33.92	27.92	23.88	21.87	37.90	135.0	378.6	1208	6014	9978	1268	17.05	6.208	4.816	4.469	4.015	3.499	3.365	3.385	3.308	3.355	3.219	2.957	2.968	2.948	2.917	2.698	2.642	2.550	2.469	2.504	2.527	2.385	2.418	2.175	2.304	2.233	2.287
465.0	258.6	885.4	3621	1782	476.9	487.2	495.2	500.2	492.2	466.2	441.6	414.8	364.9	334.2	301.6	273.4	261.5	250.5	237.9	221.8	212.3	210.1	207.3	205.4	201.6	195.8	193.8	187.8	184.2	174.3	160.3	143.1	123.1	105.4	91.83	89.09	83.08	60.34	43.22	34.81	28.90	24.80	20.89	21.42	41.39	94.67	281.1	1563	7461	8501	1053	15.15	5.926	4.931	4.479	3.835	3.620	3.559	3.472	3.391	3.195	2.910	2.843	2.800	2.732	2.658	2.500	2.445	2.354	2.381	2.486	2.153	2.199	2.230	2.201	2.286	2.130
470.0	242.3	436.5	2420	4250	820.2	449.9	451.7	455.9	446.5	427.0	405.7	371.8	338.6	303.0	274.1	249.2	232.9	224.8	212.6	199.3	188.0	185.4	184.6	183.9	181.6	176.5	174.9	169.1	167.1	160.7	148.8	133.2	115.8	100.3	86.45	77.14	74.10	66.91	49.11	36.02	30.27	25.51	21.30	18.68	21.56	31.62	72.85	358.6	1924	5463	7246	2788	18.28	6.430	4.941	4.252	3.887	3.549	3.523	3.129	2.994	3.073	2.821	2.757	2.736	2.687	2.425	2.265	2.205	2.097	2.280	2.041	2.059	2.166	2.000	2.051	2.127
475.0	254.6	308.2	928.3	4943	2446	436.1	406.3	412.1	409.0	385.2	365.8	338.7	306.9	272.5	245.3	222.8	207.4	199.2	190.1	177.5	165.5	166.4	161.1	161.0	160.4	157.7	156.8	153.7	149.7	145.8	135.9	121.0	107.3	93.34	80.51	69.40	62.10	62.24	57.46	39.27	31.03	25.78	21.32	18.56	16.51	17.03	25.72	88.08	435.7	1236	3007	7550	1600	24.84	6.096	4.483	3.925	3.543	3.314	3.041	2.928	2.909	2.749	2.604	2.468	2.537	2.333	2.164	2.027	1.988	2.075	1.907	1.776	2.024	1.924	1.925	1.732
480.0	247.1	270.7	445.8	3351	4303	562.4	380.3	386.1	376.7	357.9	342.9	320.3	281.8	246.1	228.0	207.4	194.6	183.9	176.2	163.7	155.3	151.6	147.5	148.0	147.8	143.7	142.6	141.3	137.7	135.2	125.5	116.1	102.0	89.05	77.13	67.37	59.33	55.55	56.70	45.29	32.12	25.36	21.58	18.79	16.04	14.72	15.06	28.30	104.3	282.2	715.2	3815	7639	1490	19.50	5.578	4.317	3.817	3.336	3.079	2.860	2.821	2.790	2.499	2.403	2.236	2.225	1.988	2.150	1.935	1.946	1.794	1.842	1.822	1.733	1.833	1.659
485.0	228.6	281.8	320.0	1545	5052	1761	364.9	354.9	361.1	341.0	323.2	301.6	262.7	238.7	216.7	191.5	176.3	169.9	164.2	150.3	141.7	139.0	138.0	138.1	138.1	134.4	133.7	130.8	130.0	126.2	118.1	109.0	94.47	84.68	73.56	63.63	55.61	49.48	51.97	47.89	34.89	26.83	22.08	18.76	16.29	14.65	13.24	14.60	30.65	69.60	166.4	962.6	5236	7814	1149	14.98	5.269	4.101	3.482	3.030	3.001	3.008	2.712	2.554	2.284	2.377	2.220	2.072	1.898	1.901	1.858	1.637	1.788	1.688	1.590	1.822	1.677
490.0	196.5	275.1	288.0	599.0	3258	4463	714.5	330.4	331.3	318.8	296.9	276.2	247.4	218.8	197.6	175.0	163.7	156.3	147.3	137.1	129.1	125.4	125.4	123.0	124.5	122.2	119.8	119.6	118.6	115.6	108.9	100.4	88.05	78.60	69.63	60.46	52.48	46.96	43.99	44.04	40.82	30.28	22.54	19.18	16.78	14.55	12.61	12.13	14.12	21.92	43.14	220.8	1325	4482	6929	2979	20.00	5.579	4.087	3.284	3.211	2.978	2.604	2.429	2.302	2.222	2.138	1.907	1.810	1.796	1.761	1.620	1.715	1.679	1.598	1.711	1.715
495.0	161.6	249.6	293.6	330.2	1153	5428	2474	327.3	304.8	287.5	269.7	251.1	221.0	199.2	177.9	157.7	146.2	141.0	129.1	122.1	116.8	113.6	112.0	109.8	110.6	108.8	107.1	106.9	105.0	104.0	97.54	90.20	81.74	73.73	65.48	56.75	50.07	44.19	38.46	36.68	38.92	35.20	24.93	19.61	16.54	14.82	12.82	11.50	10.78	11.34	15.58	54.84	300.2	1012	2985	8012	1809	27.28	5.646	3.874	3.298	2.855	2.616	2.536	2.306	2.315	2.018	1.958	1.742	1.879	1.702	1.688	1.573	1.367	1.520	1.627	1.537
500.0	127.6	220.5	298.3	261.0	467.0	3723	4663	397.2	272.1	260.9	247.5	230.4	208.7	183.5	163.5	146.6	135.4	130.7	119.1	111.1	106.6	102.9	101.2	99.18	101.4	97.77	96.95	97.89	96.08	94.50	89.17	82.54	76.79	67.36	60.79	52.43	47.86	41.36	37.07	33.94	33.47	36.04	27.37	19.92	16.65	14.53	12.99	11.44	9.988	8.770	9.158	17.70	71.98	231.0	705.2	3859	7813	1635	21.84	4.417	3.684	3.164	2.546	2.620	2.210	2.166	1.939	1.847	1.843	1.700	1.716	1.600	1.557	1.465	1.456	1.509	1.426
505.0	129.0	170.9	279.8	247.0	286.8	1695	5789	1486	258.3	245.8	229.5	219.4	190.1	167.5	149.0	133.5	125.3	115.3	108.0	101.3	96.63	95.50	91.80	92.07	91.21	90.15	87.58	88.15	87.63	86.44	81.71	77.30	70.34	62.51	57.21	49.94	44.46	38.80	35.14	31.25	28.81	31.16	29.61	22.46	17.05	14.73	12.84	11.12	9.798	8.539	7.708	9.194	20.70	56.67	163.1	954.2	4875	7497	1255	14.99	4.382	3.289	2.709	2.668	2.238	2.087	1.939	1.800	1.774	1.520	1.513	1.475	1.445	1.344	1.365	1.394	1.243
510.0	111.1	147.5	236.9	260.8	228.0	578.9	3824	3985	535.1	220.3	207.6	194.0	170.4	151.4	134.6	119.6	110.5	103.5	95.62	89.08	85.19	83.45	81.01	79.20	81.17	78.19	77.95	77.94	77.45	75.95	73.70	68.75	62.38	56.17	50.62	45.29	40.75	36.01	32.42	28.57	26.18	25.21	26.91	24.64	18.27	14.40	12.50	10.77	9.198	8.282	7.334	7.189	9.163	17.03	41.04	217.9	1207	4037	5660	2284	19.81	4.412	3.049	2.703	2.379	2.001	1.870	1.810	1.705	1.466	1.408	1.408	1.447	1.401	1.284	1.252	1.213
515.0	99.40	129.3	176.7	249.5	206.6	272.1	1275	5434	2051	213.1	183.7	170.9	150.3	132.9	117.9	105.4	95.69	90.72	82.57	77.38	75.47	72.49	69.38	69.02	68.01	69.14	67.32	68.03	66.98	66.80	63.68	59.62	54.28	49.57	44.05	40.70	37.07	32.69	29.46	26.12	24.01	21.33	20.94	23.00	20.80	15.10	11.97	10.31	9.243	7.984	7.074	6.679	6.572	7.830	13.37	52.61	273.4	908.0	2128	5752	1835	26.96	4.289	2.867	2.570	2.038	1.893	1.731	1.613	1.375	1.442	1.299	1.463	1.372	1.276	1.107	1.261
520.0	91.43	108.6	150.0	217.4	211.4	194.0	438.0	3803	4915	286.9	168.9	155.2	138.2	118.9	105.9	91.46	86.43	81.07	76.14	69.66	65.85	65.37	63.29	63.40	61.47	60.95	59.87	60.82	59.02	59.63	57.55	53.93	49.58	44.30	40.10	36.30	33.16	29.38	26.81	24.50	22.18	19.42	18.30	20.30	20.83	16.35	11.89	10.01	9.043	7.565	6.865	6.789	6.213	5.827	6.895	15.61	64.65	206.4	495.2	2636	6047	1589	21.36	3.395	2.735	2.245	1.906	1.837	1.616	1.354	1.398	1.322	1.131	1.265	1.303	1.156	1.125
525.0	85.38	103.9	120.3	185.1	218.3	166.1	224.4	1688	6708	1381	157.6	141.8	123.5	107.3	94.42	84.81	78.15	72.03	67.79	64.35	58.30	57.98	56.73	55.81	55.37	55.72	53.69	55.13	53.71	55.33	51.01	49.24	45.36	40.33	36.43	32.61	29.98	27.43	25.23	22.81	21.20	18.19	16.51	16.33	18.39	17.76	13.12	9.856	8.353	7.244	6.839	6.179	6.077	5.497	5.287	7.093	18.00	49.59	114.7	639.4	3477	5662	1230	13.28	3.232	2.401	1.913	1.817	1.481	1.229	1.472	1.227	1.114	1.075	1.202	1.151	1.056
530.0	74.33	89.29	110.1	132.9	207.2	171.2	156.4	528.6	4574	5134	441.7	126.4	111.5	97.28	83.57	74.70	69.61	62.36	59.01	54.84	51.47	50.33	48.48	48.34	48.59	47.91	46.54	46.73	46.90	46.89	44.57	43.01	38.99	35.13	32.36	29.24	26.78	24.21	22.50	20.38	18.49	16.75	15.32	14.06	14.48	15.72	14.67	10.44	7.842	6.705	6.341	5.588	5.359	5.353	4.568	4.900	7.417	14.39	28.96	146.0	846.2	2845	4216	1077	19.57	3.137	2.390	1.887	1.641	1.337	1.337	1.249	1.144	1.122	1.124	1.076	1.023
535.0	74.28	79.29	96.71	105.5	154.2	192.4	135.9	215.8	1430	7181	1722	122.5	97.08	83.32	73.81	64.62	59.60	55.86	51.45	46.41	45.05	42.55	42.25	41.43	40.96	40.64	40.13	40.32	40.84	39.57	38.30	36.41	33.77	30.15	28.29	24.78	23.67	21.49	19.83	17.75	16.36	14.79	13.95	12.71	12.22	12.14	13.81	12.23	8.485	6.461	5.803	5.136	4.976	4.619	4.693	4.269	4.663	5.961	9.208	35.35	191.0	638.9	1456	3954	1809	26.32	3.059	1.990	1.672	1.510	1.367	1.113	1.053	1.072	1.068	1.003	0.940
540.0	74.17	80.05	83.77	89.30	117.9	187.4	131.9	132.3	422.4	4867	5468	194.9	86.99	74.69	66.97	58.25	53.48	48.75	44.76	42.73	39.33	37.53	38.87	36.97	36.48	35.40	34.84	35.45	35.56	34.65	33.68	32.00	30.18	26.70	25.51	22.42	20.98	19.48	17.53	16.05	14.21	13.23	12.43	11.09	10.90	10.20	11.30	12.17	9.065	6.176	5.595	4.818	4.619	4.205	4.295	4.374	3.917	3.881	4.827	10.52	45.13	145.5	335.2	1759	4429	1433	20.05	2.569	1.884	1.575	1.333	1.068	1.084	1.008	0.980	0.916	0.925
545.0	64.47	75.17	79.02	81.97	92.49	165.5	145.6	106.3	174.7	1929	7674	983.4	82.87	69.84	58.96	53.59	46.18	44.13	39.63	37.43	35.12	33.30	33.62	32.47	32.31	31.22	30.21	30.64	31.44	30.95	30.26	28.16	26.65	23.98	22.64	20.25	19.06	16.69	15.71	13.98	12.98	11.70	11.08	10.46	9.670	9.173	9.381	10.80	9.474	6.473	5.367	4.310	4.178	3.991	3.906	4.124	3.992	3.364	3.578	4.456	12.61	35.02	77.70	420.5	2369	3946	250.1	12.16	2.235	1.654	1.436	1.126	1.103	1.047	0.903	0.862	0.833
550.0	61.46	67.25	69.88	76.48	76.28	111.3	157.0	100.9	104.2	533.3	4798	4310	144.6	59.61	51.23	44.65	40.47	36.99	33.88	31.32	29.74	28.51	28.25	27.20	27.23	26.28	25.60	25.51	26.17	25.85	25.49	23.32	21.92	20.01	18.73	17.23	15.88	14.30	13.28	12.14	11.33	10.17	9.672	8.682	8.156	7.689	7.395	8.048	8.487	7.265	5.460	4.068	3.733	3.555	3.539	3.452	3.557	3.370	3.043	2.901	4.721	9.785	19.44	96.06	567.5	1859	2863	1061	18.47	2.492	1.675	1.294	1.086	1.049	0.958	0.957	0.871
555.0	67.93	61.96	62.22	61.58	59.67	69.34	133.3	107.3	80.87	174.5	1367	6030	1187	58.08	42.73	37.22	33.16	30.45	28.45	26.37	24.61	22.95	22.37	22.30	22.28	21.77	21.00	21.43	21.00	20.64	20.46	19.08	17.40	16.16	15.27	14.37	13.19	12.08	10.73	10.47	9.252	8.417	8.201	7.797	6.959	6.758	5.971	5.748	6.540	6.974	5.923	4.101	3.341	3.026	3.115	2.905	2.766	3.228	3.123	2.420	2.750	3.792	6.123	23.01	128.4	417.1	977.2	2802	1620	25.82	2.311	1.397	1.182	1.073	0.867	0.909	0.822
560.0	62.22	64.42	64.48	57.32	54.57	58.07	97.65	129.1	73.95	89.60	371.7	3913	4335	120.6	38.36	32.59	28.95	26.50	25.20	22.36	20.96	20.28	19.29	18.59	18.30	18.35	18.32	17.69	18.04	17.78	17.67	16.14	14.74	14.23	12.98	12.08	11.21	10.44	9.679	8.929	8.311	7.131	6.991	6.409	6.103	5.989	5.331	4.969	4.734	5.706	5.834	4.251	3.230	2.616	2.882	2.692	2.508	2.667	2.731	2.429	2.073	2.310	3.000	6.755	30.33	94.92	224.4	1158	2925	1145	19.35	1.761	1.189	1.118	0.869	0.828	0.848
565.0	59.99	61.66	58.95	52.95	48.43	49.87	68.50	130.4	75.33	66.02	129.6	1491	6318	692.6	36.98	28.99	24.66	22.79	21.14	19.24	19.05	17.33	16.90	16.22	15.49	14.80	15.58	15.46	15.49	15.02	14.85	13.43	12.57	12.09	11.51	10.72	9.349	8.859	8.444	7.736	7.247	6.449	6.407	5.758	5.258	5.087	4.900	4.372	4.017	4.402	5.080	4.571	3.216	2.537	2.544	2.348	2.366	2.353	2.271	2.565	2.154	1.950	2.066	2.924	8.276	22.67	51.99	272.3	1409	2496	255.5	11.11	1.450	1.219	0.917	0.841	0.809
570.0	57.37	59.87	54.00	47.11	41.75	43.01	48.96	99.14	98.20	57.13	69.68	403.3	3949	3578	88.18	25.49	21.19	19.24	17.01	16.24	15.13	14.27	14.12	13.17	12.74	12.85	12.45	12.36	12.63	11.82	12.10	11.17	10.76	9.645	9.179	8.580	7.952	7.294	6.864	6.419	5.831	5.581	5.127	4.794	4.553	4.286	4.083	3.531	3.338	3.271	3.668	3.993	3.501	2.530	2.181	2.200	2.116	2.017	1.998	2.141	2.382	1.902	1.734	1.857	3.133	6.377	13.11	62.40	331.4	1067	1686	865.8	18.40	1.795	1.055	0.874	0.869
575.0	56.60	56.36	51.02	40.83	35.60	34.48	38.24	59.69	114.1	66.53	51.66	128.2	1099	5005	872.6	26.55	19.07	16.59	14.25	13.61	12.08	11.21	11.01	10.51	10.66	10.39	9.995	10.08	10.66	9.878	9.884	8.991	8.815	7.945	7.379	7.280	6.577	5.865	5.629	4.943	4.845	4.352	4.424	3.942	3.733	3.571	3.389	3.023	2.954	2.425	2.391	2.812	3.411	2.736	2.264	1.891	1.848	1.632	1.708	1.772	2.041	2.179	1.813	1.525	1.840	2.621	4.214	15.34	75.15	239.3	520.1	1501	1139	26.39	1.585	0.874	0.864
580.0	54.91	55.69	53.01	43.23	32.77	31.59	32.32	42.78	96.62	81.37	47.08	65.17	289.9	3165	3450	73.15	17.33	14.63	12.76	11.51	10.79	10.20	9.352	9.186	9.491	8.658	8.635	8.567	8.868	8.658	8.487	7.326	7.235	6.573	6.243	5.938	5.628	5.058	4.826	4.527	4.253	3.849	3.801	3.352	3.537	2.948	2.985	2.645	2.552	2.167	2.061	2.063	2.870	2.948	2.357	1.880	1.844	1.643	1.510	1.389	1.670	1.884	1.809	1.477	1.534	1.707	2.254	4.748	18.01	54.61	118.6	560.7	1632	833.2	19.43	1.216	0.902
585.0	57.49	60.86	47.27	41.05	30.43	30.20	31.05	38.03	72.90	100.0	49.65	49.96	98.48	1142	5005	498.3	16.93	13.18	11.71	10.01	9.812	8.938	8.387	8.416	8.180	7.721	7.156	7.640	7.426	7.312	7.340	6.456	6.330	5.872	5.681	5.117	5.022	4.638	4.157	4.028	3.684	3.361	3.403	2.991	3.060	3.004	2.609	2.387	2.337	1.977	1.898	1.716	2.165	2.622	2.647	1.947	1.656	1.358	1.409	1.413	1.472	1.526	1.820	1.645	1.384	1.422	1.585	2.352	5.144	13.37	27.77	129.9	701.8	1596	257.5	11.06	1.060
590.0	51.63	60.31	47.19	38.33	31.40	28.17	29.91	32.93	49.31	95.29	66.58	48.11	54.50	300.3	3020	2768	54.77	12.20	10.27	9.099	8.490	7.829	7.427	6.851	6.980	6.659	6.632	5.934	6.145	5.794	5.775	5.321	5.114	5.292	4.876	4.245	4.090	3.717	3.532	3.150	3.045	2.819	2.702	2.708	2.517	2.456	2.198	2.114	2.068	1.741	1.584	1.502	1.558	1.952	2.238	2.027	1.610	1.314	1.309	1.233	1.239	1.274	1.456	1.639	1.497	1.247	1.327	1.531	2.208	3.972	7.288	30.07	162.4	628.6	1045	600.8	19.01
595.0	54.64	64.72	49.35	36.58	28.53	26.93	26.04	31.44	38.20	69.75	91.85	49.84	46.93	93.18	816.1	3854	631.8	13.44	9.233	7.636	6.860	7.206	6.199	5.768	5.565	5.797	4.980	4.962	5.364	5.151	4.637	4.741	4.225	4.001	3.841	3.509	3.280	2.956	2.837	2.482	2.581	2.604	2.259	2.163	2.134	2.021	1.894	1.891	1.755	1.545	1.497	1.231	1.214	1.389	1.880	1.916	1.670	1.326	1.132	1.104	1.211	1.126	1.195	1.221	1.512	1.287	1.184	1.276	1.467	1.838	2.529	7.564	37.13	141.2	294.7	856.2	788.8
600.0	50.48	57.23	47.78	37.30	30.40	25.30	26.06	30.09	35.17	53.28	97.19	58.93	44.77	48.27	209.0	2449	2368	44.27	8.801	7.002	6.257	5.863	5.219	5.086	5.179	4.894	4.384	4.337	4.418	4.693	4.344	4.256	3.625	3.549	3.282	3.269	2.746	2.751	2.522	2.447	2.355	2.293	2.239	1.799	1.855	1.780	1.772	1.549	1.561	1.331	1.315	1.158	1.108	1.164	1.471	1.646	1.819	1.550	1.136	1.044	1.159	0.920	1.133	1.124	1.336	1.447	1.379	1.238	1.254	1.323	1.451	2.396	9.043	32.34	67.00	292.5	979.9
605.0	45.36	58.04	48.13	34.15	28.61	24.76	27.10	29.22	33.27	43.22	89.47	74.36	45.40	39.89	69.56	891.2	3426	309.3	9.013	7.413	5.718	5.324	4.963	4.743	4.838	4.359	4.002	4.083	3.825	3.728	3.690	3.832	3.219	3.374	2.910	2.839	2.371	2.532	2.297	2.105	2.169	1.952	1.967	1.617	1.686	1.708	1.628	1.523	1.455	1.253	1.255	1.131	1.074	1.039	1.116	1.363	1.652	1.470	1.122	1.052	1.080	0.972	0.975	1.065	1.213	1.336	1.405	1.309	1.059	1.232	1.288	1.329	2.687	8.028	15.79	67.44	383.5
610.0	52.44	56.34	52.51	38.57	27.26	23.99	27.34	29.57	36.44	43.90	67.59	90.96	53.86	40.13	38.69	228.2	2115	1844	38.10	6.945	5.421	4.862	4.418	4.086	4.105	4.041	3.515	3.411	3.412	3.108	3.292	3.244	2.987	2.891	2.528	2.664	2.312	2.089	1.977	1.780	1.793	1.734	1.686	1.417	1.489	1.375	1.450	1.310	1.166	1.116	1.052	0.979	0.995	0.923	1.001	1.078	1.384	1.394	1.230	0.964	0.953	0.924	0.946	0.965	1.106	1.077	1.293	1.338	1.083	1.112	1.068	0.986	1.378	2.460	4.265	15.72	87.95
615.0	49.56	57.74	50.46	36.66	29.40	25.58	27.45	28.46	38.11	44.31	54.65	92.31	69.78	42.78	33.75	65.14	576.5	2679	475.3	7.608	5.143	4.379	3.991	3.357	3.466	3.261	2.956	2.848	3.017	2.957	2.991	2.757	2.499	2.585	2.327	2.276	2.060	1.908	1.790	1.618	1.546	1.571	1.385	1.281	1.271	1.286	1.266	1.214	1.019	0.941	0.894	0.946	0.841	0.766	0.881	0.948	1.129	1.238	1.196	1.071	1.010	0.927	0.963	0.975	1.039	0.911	1.138	1.284	1.268	1.077	1.082	0.986	0.976	1.169	1.633	4.158	20.20
620.0	48.99	51.55	46.94	37.40	26.80	22.50	23.98	29.40	36.54	43.50	51.37	78.20	83.49	44.33	32.06	30.02	145.7	1792	1689	23.38	5.193	4.351	3.951	3.204	3.147	2.970	2.701	2.793	2.783	2.568	2.543	2.490	2.367	2.148	2.348	2.133	1.850	1.797	1.532	1.434	1.410	1.427	1.266	1.193	1.310	1.061	1.119	1.108	0.985	0.854	0.808	0.870	0.802	0.826	0.770	0.770	0.900	1.033	1.070	1.060	1.054	0.778	0.921	0.861	0.952	0.931	0.997	1.041	1.273	1.214	1.181	0.901	0.956	0.776	0.949	1.508	5.020
625.0	46.09	51.80	51.15	35.37	24.72	22.70	23.09	31.25	35.81	44.20	51.47	63.89	86.30	48.72	34.02	21.80	42.71	682.9	2586	72.79	5.880	4.109	3.943	3.266	2.790	2.633	2.394	2.438	2.445	2.182	2.387	2.289	2.100	1.730	2.126	2.008	1.572	1.682	1.379	1.247	1.269	1.299	1.236	1.144	1.130	1.131	1.041	1.044	0.952	0.785	0.819	0.842	0.739	0.715	0.790	0.746	0.811	0.864	1.015	1.112	1.031	0.827	0.905	0.917	0.800	0.965	0.977	0.868	1.134	1.161	1.160	0.787	0.832	0.711	0.784	0.832	1.613
630.0	52.29	54.09	51.43	39.15	25.01	22.76	23.89	29.49	36.07	43.27	51.58	58.51	78.19	59.39	34.64	19.95	19.24	173.0	1759	1165	23.57	4.344	3.513	3.082	2.756	2.512	2.428	2.137	2.255	2.056	2.001	1.985	1.864	1.752	1.781	1.660	1.561	1.500	1.215	1.226	1.194	1.022	1.144	0.932	1.039	0.979	0.970	0.966	0.799	0.793	0.755	0.732	0.711	0.660	0.664	0.684	0.748	0.705	0.804	0.969	0.958	0.888	0.771	0.845	0.870	0.894	0.926	0.834	0.956	1.046	1.043	0.939	0.808	0.640	0.677	0.629	0.794
635.0	53.62	51.84	45.22	36.37	26.89	21.44	25.01	28.07	35.74	42.38	51.97	56.35	63.56	68.53	38.89	19.43	14.39	46.14	499.6	2198	311.3	4.536	3.649	3.059	2.536	2.476	2.146	2.159	2.047	1.848	1.938	1.764	1.605	1.877	1.676	1.508	1.598	1.467	1.195	1.164	1.117	0.984	0.956	0.929	0.829	0.865	0.884	0.856	0.719	0.693	0.653	0.674	0.657	0.602	0.717	0.800	0.715	0.651	0.790	0.722	0.884	0.870	0.830	0.826	0.861	0.897	0.886	0.807	0.851	0.917	0.955	0.878	0.834	0.662	0.676	0.637	0.603
640.0	49.78	48.51	46.65	36.59	24.48	22.67	24.59	28.01	36.55	42.85	49.47	54.35	59.27	67.62	44.32	20.41	13.53	18.33	124.0	1661	1107	11.10	3.562	2.995	2.701	2.404	2.042	1.946	1.874	1.822	1.724	1.812	1.588	1.753	1.634	1.412	1.377	1.300	1.188	1.139	1.140	0.969	0.924	0.908	0.758	0.790	0.856	0.841	0.703	0.653	0.569	0.606	0.621	0.625	0.560	0.746	0.652	0.643	0.785	0.670	0.811	0.921	0.800	0.857	0.790	0.839	0.885	0.818	0.818	0.787	0.993	0.891	0.801	0.671	0.718	0.584	0.546
645.0	46.10	45.10	56.55	38.14	24.77	22.32	25.26	26.70	34.38	42.39	49.46	55.94	56.00	60.79	51.54	22.25	13.34	11.63	34.77	700.2	1873	53.94	3.772	3.073	2.792	2.284	2.000	1.859	1.987	1.799	1.841	1.606	1.565	1.592	1.612	1.561	1.348	1.236	1.143	1.072	0.991	0.972	0.942	0.822	0.857	0.712	0.830	0.863	0.744	0.686	0.628	0.625	0.601	0.594	0.570	0.702	0.662	0.712	0.693	0.600	0.655	0.819	0.836	0.696	0.768	0.731	0.817	0.773	0.840	0.740	0.861	0.861	0.894	0.707	0.654	0.558	0.508
650.0	44.81	55.63	56.40	39.73	25.57	22.07	21.70	26.09	35.10	42.67	48.40	54.78	53.89	55.28	55.92	23.55	13.81	10.01	13.28	195.0	1823	421.7	5.153	2.864	2.648	2.559	1.808	1.846	1.865	1.767	1.756	1.620	1.634	1.596	1.586	1.601	1.401	1.304	1.114	1.067	1.038	0.899	0.988	0.887	0.863	0.742	0.811	0.872	0.817	0.671	0.629	0.599	0.578	0.660	0.514	0.584	0.724	0.694	0.650	0.675	0.643	0.764	0.774	0.686	0.796	0.717	0.811	0.840	0.775	0.752	0.829	0.749	0.761	0.798	0.675	0.592	0.570
