Sample:	'1
File name:	Default_20230225_115118.FD3
Run date:	'11:44:56, 02/25/2023
Operator:	dsjg
Comment:	'

Instrument
Model:	F-2700 FL Spectrophotometer
Serial number:	2198-001
ROM Version:	4J14000 07

Instrument parameters
Measurement type:	3-D scan
Data mode:	Fluorescence
EX  Start WL:	220.0 nm
EX  End WL:	600.0 nm
EX Sampling interval:	5.0 nm
EM  Start WL:	230.0 nm
EM  End WL:	650.0 nm
EM Sampling interval:	5.0 nm
Scan speed:	12000 nm/min
EX Slit:	5.0 nm
EM Slit:	5.0 nm
PMT Voltage:	700 V
Response:	Auto 
Corrected spectra:	Off
Contour interval:	50.000

Peak integration
Integration method:	Rectangular
Sensitivity:	1
Threshold:	1.000

Peaks
No.	ApexEX/EM(nm)	Height(Data)
1	225.0/345.0	 2721
2	270.0/595.0	183.3
3	275.0/350.0	 4420
4	455.0/350.0	9.581
5	560.0/350.0	20.26

Data points
	220.0	225.0	230.0	235.0	240.0	245.0	250.0	255.0	260.0	265.0	270.0	275.0	280.0	285.0	290.0	295.0	300.0	305.0	310.0	315.0	320.0	325.0	330.0	335.0	340.0	345.0	350.0	355.0	360.0	365.0	370.0	375.0	380.0	385.0	390.0	395.0	400.0	405.0	410.0	415.0	420.0	425.0	430.0	435.0	440.0	445.0	450.0	455.0	460.0	465.0	470.0	475.0	480.0	485.0	490.0	495.0	500.0	505.0	510.0	515.0	520.0	525.0	530.0	535.0	540.0	545.0	550.0	555.0	560.0	565.0	570.0	575.0	580.0	585.0	590.0	595.0	600.0
230.0	93.87	 1398	 2178	374.4	12.09	6.276	5.134	4.564	4.382	4.403	4.593	4.289	3.651	3.129	2.550	2.180	1.860	1.689	1.622	1.610	1.454	1.422	1.346	1.338	1.340	1.219	1.284	1.125	1.095	1.092	1.049	0.962	0.990	0.881	0.850	0.877	0.803	0.729	0.740	0.658	0.608	0.632	0.625	0.555	0.504	0.470	1.109	5.554	12.63	11.94	5.350	1.090	0.416	0.345	0.308	0.337	0.347	0.319	0.309	0.277	0.283	0.255	0.248	0.245	0.225	0.252	0.231	0.224	0.195	0.206	0.198	0.194	0.179	0.194	0.199	0.197	0.197
235.0	43.58	430.3	 1863	 2553	337.9	18.16	5.615	5.366	5.363	4.685	4.631	4.460	3.711	3.466	2.710	2.224	1.634	1.845	1.787	1.599	1.457	1.465	1.453	1.166	1.490	1.375	1.324	1.138	1.060	1.109	1.068	1.048	0.875	0.906	0.842	0.774	0.858	0.807	0.704	0.640	0.639	0.625	0.665	0.584	0.594	0.493	0.591	1.631	4.190	8.191	12.98	16.03	8.853	1.915	0.416	0.361	0.370	0.279	0.278	0.289	0.284	0.279	0.238	0.247	0.235	0.263	0.222	0.248	0.212	0.228	0.219	0.210	0.173	0.188	0.199	0.193	0.200
240.0	44.73	114.8	701.7	 2828	 2588	261.9	9.209	6.913	6.070	5.202	5.412	4.585	3.919	3.609	3.020	2.133	1.705	1.883	1.764	1.555	1.438	1.492	1.569	1.346	1.540	1.401	1.328	1.192	1.271	1.181	1.061	0.955	0.917	0.834	0.808	0.734	0.768	0.780	0.685	0.593	0.603	0.561	0.614	0.509	0.611	0.616	0.548	0.722	1.369	2.425	5.901	15.75	21.92	17.26	7.146	1.088	0.336	0.293	0.297	0.254	0.340	0.304	0.241	0.304	0.208	0.237	0.247	0.269	0.211	0.276	0.201	0.205	0.241	0.202	0.202	0.206	0.209
245.0	44.81	61.69	181.4	 1288	 3723	 2423	183.2	8.341	6.491	5.895	5.488	5.116	4.055	3.639	3.067	2.408	1.975	2.080	1.774	1.749	1.522	1.372	1.485	1.522	1.484	1.401	1.292	1.252	1.294	1.089	1.154	0.899	0.933	0.816	0.755	0.811	0.772	0.714	0.747	0.663	0.676	0.674	0.590	0.563	0.531	0.575	0.616	0.603	0.729	0.935	1.658	5.235	13.20	25.25	23.33	15.63	4.702	0.506	0.334	0.308	0.264	0.276	0.274	0.295	0.291	0.295	0.233	0.264	0.208	0.244	0.233	0.179	0.229	0.204	0.205	0.192	0.212
250.0	25.82	52.58	83.57	324.2	 1536	 4026	 3375	820.1	37.59	7.878	6.938	6.250	5.113	4.185	3.330	2.693	2.184	2.094	2.044	1.929	1.561	1.512	1.594	1.562	1.456	1.314	1.314	1.220	1.244	1.194	1.182	0.925	0.996	0.928	0.792	0.710	0.799	0.688	0.680	0.739	0.758	0.627	0.636	0.612	0.552	0.542	0.557	0.605	0.655	0.688	0.751	1.497	3.454	8.237	14.56	24.65	27.12	27.66	11.84	4.778	0.636	0.321	0.302	0.308	0.282	0.290	0.297	0.254	0.229	0.235	0.211	0.183	0.201	0.178	0.184	0.220	0.245
255.0	15.34	26.47	62.61	126.4	363.1	 1227	 3915	 5397	 1224	35.72	9.651	8.330	6.212	4.497	3.640	3.044	2.584	2.092	2.001	2.111	1.927	1.718	1.628	1.565	1.692	1.516	1.360	1.395	1.354	1.293	1.141	1.070	0.977	0.921	0.859	0.762	0.790	0.716	0.660	0.624	0.740	0.729	0.658	0.606	0.628	0.520	0.510	0.554	0.534	0.642	0.737	0.869	1.168	2.127	3.573	6.136	10.68	25.93	45.66	49.37	18.94	5.399	0.468	0.350	0.306	0.344	0.309	0.241	0.245	0.256	0.191	0.236	0.237	0.219	0.235	0.195	0.228
260.0	16.16	16.50	34.82	89.88	125.4	294.8	 1480	 5627	 5696	202.0	21.21	10.05	7.059	5.445	4.810	3.392	3.059	2.422	1.851	2.065	2.053	1.862	1.750	1.580	1.577	1.508	1.544	1.534	1.326	1.334	1.243	1.071	1.007	0.939	0.804	0.782	0.760	0.801	0.651	0.651	0.691	0.682	0.689	0.631	0.620	0.510	0.497	0.544	0.505	0.539	0.522	0.703	0.888	0.906	1.193	1.762	2.743	7.326	20.94	44.73	60.99	25.64	15.62	2.539	0.394	0.351	0.316	0.306	0.269	0.247	0.241	0.246	0.229	0.209	0.246	0.205	0.235
265.0	21.09	15.37	18.06	56.53	97.05	106.7	366.7	 2376	 7128	 5357	163.6	14.68	9.891	6.781	5.490	3.957	3.181	2.678	2.439	2.170	2.129	2.036	1.838	1.562	1.584	1.669	1.674	1.488	1.404	1.426	1.214	1.222	1.148	1.141	0.845	0.833	0.751	0.857	0.724	0.660	0.654	0.773	0.845	0.746	0.671	0.615	0.569	0.538	0.534	0.482	0.449	0.561	0.742	0.924	0.860	0.725	1.001	1.967	5.278	14.00	35.10	58.50	70.77	23.66	9.879	0.883	0.338	0.354	0.352	0.276	0.285	0.294	0.250	0.229	0.280	0.228	0.237
270.0	56.48	34.35	26.25	33.07	68.76	117.7	152.9	611.1	 2659	 6341	 6649	 2281	49.21	9.596	7.121	5.100	3.923	3.406	2.882	2.603	2.329	2.208	2.029	1.816	1.678	1.672	1.600	1.581	1.531	1.489	1.308	1.300	1.116	1.041	1.006	0.883	0.826	0.929	0.856	0.913	0.961	0.949	1.023	0.891	0.870	0.728	0.684	0.658	0.635	0.527	0.459	0.485	0.552	0.664	0.767	0.868	0.897	1.072	1.713	3.622	8.717	18.04	34.86	49.41	63.75	50.32	15.41	7.583	1.044	0.368	0.333	0.358	0.285	0.248	0.289	0.270	0.239
275.0	132.4	86.55	54.78	42.92	50.69	102.9	179.9	266.7	704.9	 1838	 5726	 9366	 1021	58.11	9.893	6.578	4.876	3.966	3.511	2.935	2.775	2.481	2.282	2.077	1.885	1.985	1.727	1.651	1.463	1.538	1.415	1.368	1.210	1.212	1.007	1.103	0.957	1.092	1.124	1.170	1.230	1.325	1.360	1.191	1.084	1.004	0.869	0.858	0.732	0.649	0.490	0.548	0.555	0.527	0.673	0.760	1.005	1.259	1.362	1.635	2.604	4.750	8.501	12.26	21.24	42.20	73.75	86.83	23.61	9.010	0.625	0.366	0.326	0.299	0.260	0.283	0.307
280.0	252.6	179.6	101.8	57.04	58.07	94.69	196.8	288.9	361.6	680.3	 2148	 7696	 8218	840.8	36.26	9.287	6.412	4.767	3.923	3.471	2.995	2.870	2.591	2.424	2.075	2.049	1.944	1.675	1.704	1.590	1.425	1.462	1.368	1.246	1.107	1.156	1.101	1.339	1.344	1.456	1.467	1.635	1.624	1.563	1.435	1.418	1.217	1.129	1.065	0.803	0.625	0.693	0.602	0.563	0.707	0.753	0.908	1.183	1.651	1.746	1.920	2.305	3.328	4.189	6.309	12.30	30.80	67.11	95.18	84.63	18.62	3.195	0.442	0.365	0.366	0.327	0.326
285.0	438.1	333.5	204.4	96.36	80.64	125.4	217.5	384.9	526.6	687.0	 1090	 3312	 8682	 7010	631.0	17.34	8.391	5.935	4.700	4.549	3.160	2.980	2.707	2.546	2.186	1.982	2.040	1.904	1.769	1.700	1.628	1.470	1.329	1.368	1.181	1.272	1.258	1.599	1.578	1.664	1.897	1.996	2.111	2.152	1.994	1.934	1.794	1.733	1.503	1.080	0.812	0.788	0.702	0.684	0.770	0.840	1.003	1.323	1.714	2.086	2.615	2.836	3.098	3.498	4.259	5.780	9.999	21.84	48.26	91.57	106.0	26.53	11.67	0.776	0.505	0.378	0.418
290.0	797.8	657.0	411.5	189.9	137.5	184.6	302.2	525.7	862.0	 1210	 1391	 1905	 3613	 6914	 7418	 2399	35.52	9.356	6.666	5.425	4.169	3.584	3.160	2.730	2.624	2.353	2.186	2.130	1.990	1.968	1.718	1.611	1.466	1.407	1.393	1.575	1.671	1.951	1.967	2.179	2.379	2.488	2.817	2.974	2.985	2.932	2.856	2.766	2.315	1.736	1.271	1.146	0.935	0.944	1.058	1.042	1.286	1.726	2.035	2.600	3.370	4.322	5.270	5.978	6.428	6.998	7.983	10.52	16.05	29.35	49.30	64.73	88.56	70.07	15.72	7.650	0.791
295.0	 1150	992.6	637.4	300.4	202.7	252.4	409.2	692.9	 1139	 1720	 2117	 2128	 2004	 2288	 5032	9999.9	 3678	41.72	10.28	7.606	5.682	4.668	3.832	3.349	3.046	2.706	2.466	2.362	2.055	2.187	2.064	1.648	1.641	1.605	1.570	1.645	1.968	2.271	2.274	2.629	2.834	3.173	3.434	3.666	3.991	4.078	3.828	4.089	3.272	2.504	1.837	1.561	1.358	1.176	1.229	1.470	1.699	2.203	2.717	3.383	4.273	5.382	6.873	8.256	9.679	10.06	9.837	10.21	10.31	11.80	14.67	17.20	28.60	54.82	105.6	126.1	24.42
300.0	 1305	 1238	770.5	381.2	243.5	297.8	481.4	803.5	 1302	 1973	 2531	 2483	 1868	 1195	 1769	 6866	9999.9	520.0	29.07	9.660	7.038	5.478	4.702	3.599	3.276	3.094	2.754	2.425	2.313	2.147	2.142	1.810	1.635	1.520	1.579	1.976	2.070	2.371	2.582	2.772	2.924	3.324	3.916	4.232	4.430	4.801	4.717	4.797	3.827	2.946	2.181	1.824	1.488	1.427	1.428	1.668	2.035	2.254	3.081	3.938	4.944	6.328	7.748	9.108	10.91	11.67	12.04	11.43	9.977	9.112	7.672	6.624	8.229	15.71	41.50	98.24	139.4
305.0	 1434	 1355	889.7	439.1	285.6	349.6	542.5	885.1	 1427	 2108	 2729	 2769	 2036	 1092	750.1	 2416	 8567	9999.9	425.9	16.55	9.272	6.765	5.273	4.577	4.208	3.416	2.951	2.504	2.659	2.310	2.227	1.977	1.710	1.733	1.749	1.948	2.239	2.560	2.605	2.781	2.947	3.433	3.866	4.403	4.668	5.016	4.961	5.059	4.238	3.166	2.427	2.186	1.851	1.611	1.641	1.799	2.192	2.681	3.461	4.291	5.459	7.014	8.636	10.07	11.37	12.51	13.25	13.11	11.20	9.116	6.861	5.028	4.236	5.242	10.94	29.20	69.27
310.0	 1465	 1431	977.3	500.9	349.9	407.0	603.9	953.2	 1506	 2180	 2753	 2872	 2293	 1302	688.0	802.8	 2700	 7539	9999.9	 1786	29.20	10.08	7.415	5.717	4.964	4.016	3.542	3.144	2.960	2.582	2.351	1.982	1.868	1.728	1.791	2.015	2.290	2.506	2.732	2.898	3.030	3.402	3.743	4.395	4.689	5.146	5.237	5.412	4.514	3.377	2.573	2.355	1.910	1.719	1.822	1.975	2.447	2.983	3.747	4.610	5.922	7.288	8.831	10.32	11.77	13.07	13.23	13.47	12.62	10.87	7.987	5.749	4.212	3.583	4.139	7.970	17.60
315.0	 1518	 1531	 1060	573.5	415.9	479.2	689.1	 1050	 1597	 2264	 2837	 2940	 2496	 1669	872.7	571.5	816.0	 1936	 5129	9999.9	 2958	34.82	10.78	7.698	6.078	4.735	4.110	3.420	3.302	2.928	2.602	2.276	2.039	1.861	1.868	2.098	2.414	2.535	2.718	2.785	2.923	3.330	3.876	4.358	4.918	5.370	5.512	5.643	4.894	3.585	2.798	2.440	2.281	2.030	2.094	2.364	2.847	3.257	4.081	5.174	6.361	7.803	9.067	10.71	12.07	13.03	13.60	13.54	13.15	11.66	9.906	7.451	5.671	4.312	3.587	3.773	5.578
320.0	 1685	 1736	 1183	635.8	476.0	550.0	793.1	 1160	 1721	 2401	 2968	 3091	 2681	 1939	 1211	645.4	472.4	593.9	 1499	 6948	9999.9	393.8	25.30	9.937	7.910	5.884	4.762	3.854	3.796	3.243	3.036	2.597	2.232	2.130	2.001	2.221	2.339	2.486	2.649	2.995	3.021	3.403	3.898	4.279	5.154	5.785	6.180	6.286	5.418	3.757	2.935	2.794	2.444	2.232	2.376	2.585	3.247	3.642	4.577	5.511	6.631	8.395	9.722	11.39	12.56	13.76	14.13	14.07	13.59	12.31	11.14	8.911	7.544	5.650	3.912	3.401	3.104
325.0	 1885	 1957	 1357	719.3	552.3	637.3	905.1	 1285	 1890	 2575	 3148	 3298	 2904	 2189	 1500	836.3	476.2	339.0	448.6	 2125	 9103	9999.9	344.9	15.89	9.893	7.212	5.721	4.477	4.053	3.577	3.422	2.813	2.504	2.312	2.189	2.179	2.464	2.533	2.765	2.947	3.059	3.627	4.196	4.763	5.637	6.285	7.068	7.075	6.222	4.350	3.303	3.020	2.722	2.670	2.622	3.056	3.685	4.266	5.096	6.429	7.471	9.361	10.71	12.44	13.31	14.22	15.01	15.17	14.37	13.66	12.10	9.956	9.027	7.103	5.204	3.940	3.145
330.0	 2122	 2206	 1550	868.4	674.0	763.4	 1042	 1488	 2133	 2851	 3422	 3618	 3276	 2574	 1802	 1091	612.5	352.8	259.7	576.1	 2587	 8158	9999.9	 4247	26.94	10.09	7.592	5.555	4.857	4.293	3.672	3.238	2.825	2.493	2.211	2.314	2.393	2.538	2.681	2.873	3.207	3.685	4.353	4.932	6.104	7.128	7.370	7.976	6.857	4.941	3.932	3.613	3.087	2.993	3.036	3.570	4.220	4.944	5.949	7.094	8.474	10.13	11.91	13.52	14.82	15.35	15.89	16.13	16.10	15.18	13.42	12.15	10.63	8.459	6.828	5.432	4.162
335.0	 2394	 2497	 1762	 1012	819.8	915.5	 1221	 1709	 2398	 3178	 3762	 4000	 3705	 3016	 2138	 1276	807.6	463.7	278.0	268.4	665.2	 1970	 5332	9999.9	 2549	32.07	10.27	7.924	6.244	4.950	4.448	3.589	3.097	2.776	2.667	2.352	2.503	2.661	2.822	3.020	3.420	4.137	4.629	5.522	6.835	7.798	8.488	8.974	7.391	5.581	4.241	4.275	3.601	3.644	3.579	4.208	4.904	5.676	6.799	8.137	9.373	11.22	13.18	14.92	16.01	17.25	17.58	17.98	18.04	16.76	15.71	14.21	12.51	9.960	7.747	6.048	5.492
340.0	 2595	 2692	 1884	 1119	920.2	 1016	 1351	 1850	 2589	 3354	 3998	 4235	 3960	 3300	 2377	 1407	882.5	578.8	333.4	234.0	267.0	523.7	 1443	 7589	9999.9	 1982	24.30	10.24	7.822	5.886	4.985	3.932	3.340	3.053	2.782	2.665	2.570	2.835	2.799	3.170	3.512	4.030	4.893	6.013	7.068	8.205	8.933	9.369	7.954	6.113	4.641	4.531	3.953	3.926	4.010	4.458	5.329	6.271	7.341	8.896	10.47	11.64	14.00	15.85	16.84	18.12	18.51	19.00	19.17	18.06	16.90	15.51	13.40	11.02	8.395	6.506	5.414
345.0	 2664	 2721	 1943	 1212	990.8	 1084	 1428	 1945	 2672	 3481	 4115	 4361	 4116	 3481	 2524	 1492	913.0	637.3	425.3	266.5	211.5	230.2	407.0	 2217	9999.9	9999.9	307.4	16.49	9.888	7.269	5.568	4.401	3.794	3.234	2.812	2.675	2.602	2.883	2.987	3.212	3.554	4.112	4.805	6.019	7.412	8.647	8.899	9.470	8.341	6.099	4.834	4.861	4.153	4.327	4.342	4.767	5.528	6.693	7.834	9.233	10.91	12.34	14.09	16.12	17.15	18.74	19.26	19.67	20.04	19.02	17.36	16.66	14.40	11.86	8.911	7.140	5.717
350.0	 2668	 2697	 1928	 1231	 1038	 1147	 1472	 2006	 2738	 3540	 4157	 4420	 4197	 3585	 2629	 1567	961.6	664.4	521.7	382.6	267.7	221.4	223.8	597.8	 2830	 9025	9999.9	 4152	25.82	10.23	7.411	5.677	4.302	3.710	3.082	3.143	2.868	2.826	3.047	3.249	3.547	4.139	5.037	6.069	7.291	8.655	8.995	9.581	8.205	6.134	4.977	5.095	4.306	4.497	4.636	4.946	5.837	6.672	8.031	9.342	11.05	12.57	14.59	16.36	17.27	18.36	19.11	19.95	20.26	19.47	17.66	17.10	15.19	12.36	9.302	7.661	6.033
355.0	 2624	 2628	 1886	 1256	 1082	 1209	 1530	 2020	 2725	 3528	 4109	 4379	 4175	 3601	 2661	 1623	 1024	724.6	572.1	511.8	402.1	302.2	254.8	295.1	746.0	 2155	 5566	9999.9	 2410	31.44	10.51	7.862	5.867	4.335	3.853	3.158	3.109	3.048	3.038	3.280	3.528	4.249	5.012	6.213	7.103	8.660	8.556	9.237	7.780	5.959	5.003	5.151	4.704	4.649	4.888	5.185	5.935	6.920	7.901	9.539	11.12	12.77	14.23	15.86	17.31	18.36	18.96	19.45	19.76	19.12	18.12	17.04	15.41	12.19	9.915	7.815	6.523
360.0	 2538	 2535	 1864	 1261	 1117	 1221	 1524	 2011	 2690	 3454	 4025	 4259	 4097	 3556	 2655	 1642	 1071	782.6	630.1	569.4	522.2	402.2	321.5	279.0	323.1	586.7	 1469	 7759	9999.9	 1952	23.98	9.651	6.925	5.170	3.998	3.438	3.229	3.254	3.300	3.399	3.688	4.301	4.892	6.069	7.125	8.562	8.465	8.867	7.528	5.775	4.906	4.915	4.713	4.750	4.970	5.134	5.907	7.153	7.962	9.520	10.87	12.55	14.22	15.72	16.94	17.91	18.17	19.16	19.26	18.69	17.71	16.86	15.76	12.20	9.930	7.880	6.623
365.0	 2461	 2446	 1815	 1248	 1127	 1244	 1519	 1977	 2638	 3356	 3885	 4114	 3971	 3481	 2617	 1653	 1115	843.7	701.4	632.5	600.5	524.9	408.6	330.9	277.1	270.6	424.1	 2198	9999.9	9999.9	299.6	16.29	8.614	6.265	4.680	3.715	3.594	3.471	3.503	3.419	3.627	4.088	4.925	5.834	7.044	8.471	8.328	8.484	7.341	5.655	4.843	4.980	4.646	4.835	4.890	5.460	6.131	6.969	7.693	9.153	10.42	12.63	13.66	15.29	16.46	17.52	17.43	18.66	18.71	18.42	17.05	16.70	15.25	11.96	9.995	8.123	6.804
370.0	 2328	 2306	 1713	 1246	 1159	 1260	 1497	 1919	 2513	 3166	 3673	 3904	 3764	 3321	 2541	 1667	 1181	944.2	821.9	756.1	699.0	657.7	575.6	447.0	348.9	267.5	236.2	583.7	 2819	 9450	9999.9	 4228	22.61	8.943	6.294	4.758	4.062	3.712	3.685	3.639	3.847	4.228	4.999	5.818	6.705	7.850	7.971	8.052	7.104	5.415	4.696	4.884	5.004	5.020	4.992	5.492	6.169	7.030	7.889	8.827	10.31	11.96	13.26	14.44	15.59	16.27	16.78	17.65	17.71	17.21	16.22	16.07	14.62	11.93	9.997	8.555	7.344
375.0	 2181	 2162	 1662	 1235	 1198	 1271	 1473	 1834	 2363	 2946	 3412	 3617	 3514	 3144	 2449	 1678	 1261	 1062	954.5	904.7	840.9	780.4	730.4	618.4	466.2	346.0	256.9	266.9	715.1	 2220	 5871	9999.9	 2165	27.34	8.708	6.239	4.961	4.197	3.896	3.771	4.128	4.467	5.090	5.741	6.280	7.382	7.507	7.858	6.793	5.409	4.722	5.128	5.107	5.154	5.244	5.719	6.077	6.929	7.834	8.654	9.612	11.08	12.23	13.79	14.68	15.52	15.86	15.85	16.58	16.34	15.50	15.18	14.17	11.44	9.749	9.058	7.836
380.0	 2028	 2055	 1625	 1273	 1223	 1286	 1460	 1765	 2257	 2764	 3205	 3399	 3321	 2997	 2382	 1687	 1316	 1147	 1052	 1011	946.1	877.8	813.9	739.5	576.0	418.8	307.4	233.1	276.3	572.2	 1508	 7979	9999.9	 1743	20.57	8.120	6.077	4.923	4.484	4.195	4.256	4.570	5.043	5.459	6.322	7.209	7.144	7.683	6.589	5.286	4.653	5.006	5.191	5.260	5.512	5.475	6.132	6.744	7.612	8.237	9.108	10.49	11.77	12.88	13.83	15.03	14.56	14.85	15.91	15.78	14.35	14.72	13.89	11.41	9.736	8.975	8.026
385.0	 1947	 1960	 1586	 1266	 1226	 1286	 1433	 1708	 2137	 2618	 3007	 3206	 3136	 2871	 2318	 1687	 1357	 1211	 1132	 1096	 1034	963.1	882.3	804.5	683.8	499.2	367.0	267.8	214.0	234.7	411.0	 2248	9999.9	9999.9	247.9	13.33	7.123	5.633	5.064	4.398	4.302	4.772	4.801	5.562	6.298	7.193	6.942	7.206	6.234	5.059	4.833	5.408	5.533	5.701	5.522	5.668	6.152	6.638	7.333	7.977	8.674	10.11	11.02	12.06	12.97	13.85	13.63	14.49	14.90	15.19	14.32	14.04	12.89	11.28	9.930	9.001	8.619
390.0	 1815	 1863	 1538	 1283	 1258	 1304	 1407	 1617	 1990	 2420	 2770	 2945	 2901	 2680	 2219	 1698	 1418	 1291	 1226	 1198	 1136	 1067	982.5	882.4	779.1	631.7	471.0	348.6	268.4	215.9	210.1	585.6	 2782	 8611	9999.9	 3419	19.26	8.090	5.951	5.240	4.527	4.800	5.004	5.614	6.146	6.826	6.713	6.896	6.258	5.128	4.855	5.491	5.411	5.739	5.585	5.795	6.256	6.655	7.045	7.688	8.487	9.495	10.45	11.29	11.76	12.63	13.04	13.40	13.76	13.77	13.50	13.39	12.41	11.07	9.839	9.093	8.965
395.0	 1672	 1705	 1493	 1303	 1270	 1297	 1379	 1543	 1848	 2212	 2528	 2702	 2664	 2482	 2109	 1697	 1459	 1356	 1297	 1278	 1217	 1157	 1077	975.5	856.8	733.2	598.0	454.0	352.0	277.5	220.1	256.2	705.5	 2020	 5279	9999.9	 1798	24.06	8.120	6.507	5.469	4.971	5.170	5.258	6.205	6.725	6.223	6.546	6.024	5.097	4.897	5.437	5.401	5.669	5.691	5.777	6.213	6.417	7.062	7.503	8.163	9.227	9.592	10.55	10.79	11.43	12.05	12.50	12.43	12.75	12.52	12.45	11.74	10.92	9.998	9.468	8.764
400.0	 1588	 1604	 1439	 1299	 1285	 1304	 1352	 1493	 1752	 2088	 2369	 2534	 2503	 2359	 2034	 1669	 1473	 1384	 1334	 1310	 1258	 1206	 1128	 1033	913.4	781.0	676.7	545.1	424.7	335.8	261.6	212.4	268.3	526.5	 1340	 7024	9999.9	 1475	18.53	7.813	6.192	5.771	5.299	5.392	5.900	6.514	6.296	6.355	5.854	5.031	4.861	5.647	5.676	5.552	5.830	5.815	6.231	6.394	6.746	7.210	7.872	8.534	9.310	9.640	10.45	10.88	11.25	11.62	11.95	12.01	12.05	11.82	11.64	10.63	9.817	9.031	9.082
405.0	 1487	 1555	 1415	 1272	 1285	 1290	 1326	 1446	 1683	 1981	 2233	 2374	 2360	 2234	 1957	 1642	 1473	 1388	 1344	 1326	 1276	 1226	 1158	 1071	956.7	827.8	717.4	620.6	498.1	393.3	311.9	234.4	196.2	211.2	362.3	 1926	 8818	9999.9	222.4	12.81	6.884	6.571	5.796	5.645	5.807	6.184	6.208	6.140	5.910	4.877	4.914	5.592	5.587	5.657	5.790	5.749	6.269	6.400	6.560	7.026	7.554	8.370	8.833	9.456	10.29	10.31	10.78	10.84	11.06	11.26	11.21	11.24	11.13	10.38	9.620	9.160	9.367
410.0	 1387	 1451	 1354	 1258	 1281	 1270	 1308	 1405	 1602	 1849	 2089	 2199	 2173	 2072	 1844	 1581	 1440	 1372	 1332	 1321	 1274	 1235	 1172	 1097	999.9	879.6	761.5	678.7	594.5	480.9	380.8	291.6	221.8	173.8	166.9	488.7	 2364	 7387	 9053	 2862	17.92	8.062	6.763	6.190	5.771	6.003	5.793	5.917	5.500	4.847	4.761	5.600	5.669	5.743	5.754	5.721	6.008	6.244	6.780	6.783	7.478	7.900	8.188	8.859	9.390	9.688	9.697	10.22	10.46	10.51	10.30	10.59	10.32	9.776	9.131	9.162	9.073
415.0	 1244	 1360	 1310	 1244	 1243	 1246	 1268	 1348	 1507	 1727	 1939	 2027	 1996	 1907	 1712	 1501	 1390	 1329	 1290	 1284	 1245	 1211	 1167	 1106	 1025	916.1	809.3	724.2	660.1	578.2	462.2	356.2	269.0	200.2	152.3	188.7	581.9	 1719	 4682	9999.9	 1598	21.69	8.369	6.777	6.148	5.925	5.513	5.732	5.451	4.889	4.668	5.539	5.635	5.785	5.633	5.768	5.920	6.175	6.380	6.529	7.052	7.466	7.608	8.506	8.624	8.862	9.041	9.606	9.537	9.687	9.748	9.832	9.776	9.596	8.983	8.840	8.720
420.0	 1151	 1273	 1253	 1212	 1223	 1224	 1237	 1310	 1452	 1651	 1818	 1900	 1874	 1777	 1616	 1431	 1341	 1289	 1248	 1246	 1210	 1186	 1150	 1100	 1027	933.0	835.6	753.9	687.0	628.0	524.0	401.0	307.0	230.8	169.7	140.0	199.8	432.4	 1175	 6103	 9901	 1312	17.65	8.022	6.638	6.211	5.634	5.655	5.445	4.650	4.644	5.446	5.452	5.791	5.658	5.528	6.033	6.180	6.209	6.607	6.662	7.274	7.524	7.968	8.260	8.543	8.659	8.980	9.161	9.387	9.420	9.034	9.024	8.618	8.692	8.417	8.668
425.0	 1086	 1208	 1202	 1187	 1191	 1208	 1214	 1274	 1408	 1591	 1743	 1795	 1756	 1673	 1530	 1378	 1284	 1237	 1208	 1209	 1178	 1154	 1125	 1084	 1025	940.4	853.1	778.8	713.4	650.8	575.9	452.2	344.5	262.5	193.6	147.0	130.7	158.4	307.0	 1660	 7760	 8333	209.2	11.87	7.825	6.678	5.950	5.731	5.277	4.634	4.782	5.594	5.581	5.598	5.794	5.521	5.920	6.242	6.021	6.473	6.699	7.024	7.326	7.584	8.017	8.209	8.334	8.645	8.622	8.842	9.012	8.837	8.703	7.979	8.263	8.167	8.039
430.0	 1007	 1117	 1142	 1166	 1151	 1174	 1183	 1238	 1360	 1511	 1648	 1683	 1638	 1551	 1419	 1293	 1216	 1173	 1147	 1149	 1123	 1111	 1089	 1060	 1012	943.4	868.0	804.8	748.2	682.4	610.9	517.2	402.9	308.2	236.9	180.8	143.5	120.4	131.3	416.2	 2104	 6125	 7217	847.1	17.12	7.939	6.545	5.989	5.442	4.815	4.657	5.481	5.466	5.684	5.480	5.503	5.863	6.048	6.052	6.327	6.484	6.768	7.183	7.353	7.708	7.874	7.850	8.064	8.100	7.995	8.283	8.038	8.295	7.913	7.709	7.941	7.633
435.0	 1014	 1062	 1098	 1122	 1121	 1132	 1155	 1203	 1312	 1448	 1550	 1576	 1525	 1437	 1321	 1207	 1141	 1097	 1079	 1082	 1065	 1057	 1048	 1029	994.1	942.3	876.9	825.3	778.9	720.4	644.0	558.6	469.4	363.9	284.4	223.5	176.1	139.5	113.8	154.3	512.5	 1426	 3840	 8912	 1473	20.62	7.875	6.707	5.751	5.058	4.708	5.196	5.540	5.551	5.439	5.389	5.775	5.797	5.903	6.039	6.390	6.546	6.975	7.216	7.404	7.304	7.569	7.281	7.651	7.485	7.532	7.731	7.625	7.298	7.057	7.221	7.239
440.0	 1154	 1000	 1063	 1082	 1094	 1121	 1117	 1175	 1272	 1377	 1485	 1501	 1433	 1356	 1251	 1143	 1089	 1049	 1026	 1033	 1017	 1013	 1011	 1000	979.9	931.0	876.2	832.4	797.7	747.4	673.5	581.7	502.3	409.3	320.4	254.4	205.4	161.4	124.1	108.7	168.0	356.5	979.3	 5923	 8864	 1114	14.85	7.384	6.327	5.239	5.110	5.449	5.325	5.359	5.381	5.397	5.820	5.678	6.198	5.851	5.888	6.581	6.917	6.784	7.050	7.153	7.313	7.025	7.228	7.050	7.176	7.417	7.094	6.953	6.812	6.910	6.840
445.0	 1388	968.9	 1027	 1061	 1073	 1077	 1085	 1139	 1223	 1336	 1425	 1423	 1361	 1283	 1179	 1082	 1029	994.5	976.1	981.5	968.2	967.6	972.1	965.5	951.0	918.0	869.7	830.0	801.5	758.3	688.8	599.8	515.2	440.6	352.5	279.6	229.1	181.2	140.9	109.8	100.1	125.7	251.9	 1696	 7741	 7228	162.4	10.60	6.991	5.586	5.201	5.287	5.238	5.336	5.236	5.331	5.450	5.485	6.028	5.915	5.792	6.334	6.444	6.460	6.838	7.042	6.973	6.762	6.688	6.778	6.638	6.995	6.475	6.523	6.701	6.540	6.691
450.0	 1464	 1237	974.8	998.4	 1017	 1024	 1034	 1071	 1151	 1249	 1316	 1307	 1247	 1169	 1077	991.4	941.5	911.8	895.2	901.9	894.3	900.6	904.8	908.4	902.9	877.0	840.2	814.7	794.5	756.9	696.8	614.2	528.0	455.2	387.8	314.7	256.3	206.6	162.7	126.2	99.40	85.58	98.43	410.0	 2130	 5997	 6709	741.8	14.35	6.605	5.544	5.560	5.461	5.318	5.139	5.152	5.381	5.363	5.676	5.661	5.707	5.877	6.092	6.080	6.313	6.435	6.403	6.410	6.486	6.360	6.247	6.169	6.379	5.992	6.004	6.002	6.285
455.0	 1060	 1739	 1048	920.6	942.1	949.0	974.9	987.3	 1061	 1138	 1196	 1180	 1120	 1051	964.4	891.3	844.6	816.2	807.5	816.6	813.6	819.5	829.3	840.6	840.5	823.7	794.4	776.8	768.2	736.0	687.1	608.9	530.8	458.5	399.4	345.5	283.8	227.8	183.4	145.3	111.7	86.89	73.43	129.6	502.6	 1401	 3703	 7898	 1211	15.41	6.417	6.098	5.458	5.252	4.923	4.874	5.392	5.304	5.187	5.383	5.379	5.387	5.425	5.712	5.937	5.793	5.961	5.809	5.914	5.803	5.794	5.605	5.781	5.528	5.362	5.554	5.689
460.0	743.3	 1816	 1360	859.1	891.2	901.1	921.8	939.4	991.2	 1057	 1101	 1095	 1032	963.0	886.1	818.4	777.8	752.5	743.1	751.3	750.3	761.7	769.1	782.7	784.8	772.0	754.7	739.1	740.9	714.3	670.0	599.3	524.4	453.3	395.0	352.7	299.7	240.2	194.0	154.9	120.7	93.35	72.69	71.82	144.4	336.8	936.0	 5248	 7202	841.3	12.07	6.911	5.656	5.451	4.848	5.108	5.020	5.128	5.041	5.011	5.155	5.037	5.117	5.663	5.358	5.685	5.332	5.652	5.518	5.386	5.327	5.422	5.384	5.229	5.245	5.255	5.138
465.0	601.2	 1463	 1826	899.6	842.5	859.2	856.4	883.4	939.4	983.8	 1036	 1018	958.0	890.7	818.9	754.5	717.2	691.0	678.2	695.1	692.6	704.0	713.0	729.4	734.4	727.8	713.2	701.1	701.9	684.0	641.1	581.8	511.5	445.2	389.2	346.3	305.9	247.0	199.7	160.8	127.1	98.96	76.61	62.41	67.51	102.1	230.1	 1488	 6505	 5517	133.7	8.988	6.196	5.410	5.117	4.869	4.898	4.830	4.693	4.874	5.006	4.920	4.825	5.148	5.119	5.018	5.123	5.065	5.093	5.073	4.940	4.802	4.810	4.877	4.637	4.905	4.553
470.0	499.2	880.9	 1940	 1379	778.0	775.2	780.4	801.3	848.4	885.3	931.8	909.0	857.1	790.6	723.3	668.9	632.1	613.5	603.9	613.7	612.6	625.0	635.0	651.0	659.0	656.9	644.2	637.2	640.4	630.1	594.9	544.3	481.9	423.1	372.0	330.1	294.4	251.2	205.4	164.2	131.7	104.4	82.49	65.20	55.24	53.44	74.79	351.6	 1820	 4706	 4992	681.2	13.36	6.073	5.354	4.993	4.920	4.572	4.666	4.449	4.503	4.683	4.623	4.692	4.611	4.640	4.707	4.673	4.597	4.580	4.569	4.301	4.171	4.215	4.265	4.300	4.110
475.0	434.8	596.2	 1249	 2126	932.7	682.6	702.5	710.7	757.1	793.8	819.6	805.5	750.0	690.1	632.2	583.9	553.6	535.7	528.0	535.6	537.1	545.4	560.2	574.8	582.1	583.9	572.0	571.5	577.1	571.7	539.4	499.3	447.4	393.3	350.7	309.1	275.5	241.7	206.6	167.3	133.7	107.8	86.51	68.29	55.75	45.60	42.55	98.93	421.1	 1091	 2680	 5561	 1071	15.75	6.048	5.156	4.772	4.454	4.336	4.070	4.240	4.109	4.209	4.300	4.327	4.250	4.101	4.195	3.979	4.053	3.959	3.826	3.913	3.718	3.847	3.681	3.645
480.0	406.5	491.3	769.5	 2127	 1449	634.6	639.9	655.3	694.7	734.1	750.2	725.8	681.0	625.9	573.2	527.3	500.8	481.8	480.1	486.2	487.2	495.9	508.1	523.4	530.5	533.5	525.1	524.9	533.5	525.5	501.6	465.2	417.1	372.0	331.5	295.1	262.0	228.9	202.1	169.3	135.4	108.9	88.47	71.24	58.12	45.47	37.80	44.37	111.1	257.3	676.4	 3509	 5135	179.2	12.02	5.764	4.953	4.503	4.091	3.953	4.078	4.082	3.884	3.993	4.037	4.038	3.848	3.932	3.801	3.735	3.555	3.557	3.477	3.497	3.406	3.408	3.304
485.0	373.5	444.0	572.6	 1541	 2134	707.1	590.9	610.5	651.2	672.5	685.8	673.3	629.7	575.4	526.6	483.3	458.3	440.5	438.3	445.3	444.5	454.8	463.2	477.7	487.9	486.2	482.5	484.6	491.2	491.2	470.9	435.6	393.0	353.6	316.6	284.1	253.3	220.8	193.9	169.9	136.4	109.7	89.87	72.87	60.55	47.82	38.84	34.72	44.04	73.15	164.6	971.5	 4596	 4356	153.3	8.063	5.428	4.637	4.252	4.084	3.862	3.771	3.965	3.898	3.932	3.783	3.686	3.538	3.540	3.482	3.281	3.194	3.215	3.210	3.131	2.945	3.344
490.0	323.9	407.5	479.2	823.1	 2166	 1395	559.4	557.7	581.3	608.1	621.7	602.9	563.6	516.4	464.4	429.2	404.0	390.1	384.2	394.4	393.9	403.2	411.7	424.8	432.6	432.5	430.3	434.1	441.1	442.2	425.3	394.9	360.4	324.6	292.4	264.5	236.9	208.1	181.4	160.5	137.8	111.8	91.71	75.73	63.09	51.80	43.02	35.66	32.98	34.98	52.67	231.2	 1264	 3528	 4150	688.5	13.66	5.487	4.602	4.066	3.751	3.615	3.568	3.460	3.473	3.397	3.141	3.255	3.242	3.113	3.140	2.942	3.019	2.884	2.883	2.779	2.944
495.0	291.0	359.0	410.7	506.2	 1264	 2279	790.0	501.1	522.8	543.0	553.7	534.9	497.7	454.1	408.0	373.9	350.8	338.6	336.1	340.7	341.9	349.2	359.9	370.6	378.8	379.3	377.5	382.2	389.4	391.0	377.9	353.3	325.0	292.5	265.5	240.7	217.0	193.4	168.8	148.7	130.8	114.6	92.70	77.55	66.32	55.80	46.74	39.93	34.08	30.39	30.89	68.03	296.3	826.5	 2588	 5177	 1123	15.70	5.146	4.319	3.887	3.619	3.297	3.209	3.145	3.024	2.923	2.952	3.013	2.884	2.829	2.765	2.534	2.607	2.443	2.481	2.509
500.0	258.9	331.0	374.9	407.4	675.2	 2225	 1406	472.5	476.8	492.5	500.6	484.2	448.7	406.0	364.5	335.0	314.4	303.8	299.5	304.9	304.3	314.4	322.1	332.6	339.6	340.2	340.0	343.4	354.3	353.6	342.8	321.1	297.6	269.7	242.8	223.3	201.6	180.9	159.8	139.9	124.4	112.5	94.48	78.89	67.85	57.83	49.08	42.45	36.68	31.14	27.87	33.57	82.34	199.2	663.8	 3356	 4869	190.2	10.78	4.625	3.835	3.476	3.107	3.033	3.023	2.783	2.782	2.810	2.678	2.536	2.504	2.430	2.423	2.345	2.315	2.187	2.168
505.0	226.5	292.6	342.3	363.9	436.4	 1513	 2147	577.5	445.2	457.6	458.1	444.9	411.1	365.9	330.4	300.2	282.5	271.7	270.6	270.5	273.6	281.4	289.2	297.0	305.2	306.1	309.3	310.8	318.0	319.7	314.4	293.4	273.2	247.4	224.5	206.6	187.7	168.2	151.3	132.2	117.1	106.3	94.73	79.16	67.97	59.08	51.30	44.51	38.04	32.76	28.85	26.99	35.14	60.06	162.5	933.7	 4187	 3855	159.9	6.241	3.967	3.389	3.053	2.975	2.907	2.723	2.557	2.591	2.299	2.353	2.258	2.189	2.209	2.080	2.111	2.040	2.010
510.0	192.7	255.2	301.0	321.7	336.1	697.3	 2046	 1413	429.3	406.3	409.4	391.2	359.8	320.9	286.8	259.1	244.0	235.5	231.5	234.6	238.6	242.6	249.2	256.4	261.4	266.0	266.3	269.8	277.3	279.1	274.1	257.6	239.0	217.2	199.4	182.7	168.3	152.0	136.9	122.1	108.3	96.84	89.58	79.85	68.81	58.59	51.61	45.56	39.51	34.08	29.96	26.80	25.46	29.35	49.80	220.5	 1143	 3019	 2702	699.0	11.81	3.848	3.205	2.965	2.756	2.500	2.311	2.328	2.197	2.045	2.055	1.926	2.008	1.887	1.835	1.864	1.897
515.0	174.2	213.7	253.7	280.9	286.5	368.5	 1044	 2261	777.1	356.6	358.2	339.9	310.6	275.5	241.6	220.8	205.6	197.8	197.8	200.1	199.0	206.5	211.6	217.8	223.0	227.5	226.2	230.7	238.6	238.2	233.5	222.4	207.4	187.3	172.1	161.1	147.7	134.2	122.6	110.1	98.44	88.02	80.12	75.16	69.13	58.57	51.41	45.54	39.86	34.85	30.78	27.14	23.77	22.67	24.64	60.80	263.3	694.9	 1679	 3891	 1050	13.26	3.250	3.128	2.728	2.461	2.365	2.115	2.063	1.849	1.802	1.668	1.682	1.692	1.627	1.589	1.641
520.0	154.5	185.9	225.7	249.1	254.3	278.3	493.5	 2033	 1524	339.5	322.0	305.7	276.9	244.3	217.2	195.3	183.8	178.1	175.3	177.6	176.4	182.0	186.3	191.4	197.7	203.4	200.7	205.1	209.9	211.9	209.5	198.3	183.5	169.0	153.9	144.4	134.0	123.0	112.3	101.3	92.35	81.44	75.30	70.06	67.07	58.45	50.84	44.77	39.10	34.69	30.91	27.09	23.46	20.91	19.16	24.62	67.49	162.0	422.8	 2447	 3589	186.5	7.488	3.235	2.591	2.335	2.143	1.930	1.878	1.782	1.634	1.593	1.669	1.575	1.446	1.393	1.430
525.0	135.7	161.1	198.9	222.3	232.2	239.3	297.8	 1249	 2258	520.6	288.3	273.9	249.7	222.3	195.2	173.5	164.0	158.0	155.8	158.1	157.2	162.2	167.7	170.9	177.1	179.9	178.9	182.4	187.7	190.1	187.0	177.6	164.9	152.8	140.4	129.9	121.9	111.4	102.7	92.48	85.26	77.08	70.10	64.30	62.16	58.05	49.47	43.56	38.42	33.91	30.47	26.86	23.13	20.28	17.33	16.40	23.63	43.07	100.6	666.3	 2913	 2729	26.31	4.202	2.705	2.346	2.113	1.895	1.747	1.712	1.683	1.559	1.525	1.460	1.335	1.383	1.231
530.0	116.1	144.1	171.8	182.8	209.9	203.5	224.0	523.6	 1919	 1392	319.4	239.8	217.8	191.0	167.3	150.3	139.6	135.4	134.0	136.1	134.9	138.3	142.7	146.5	151.3	153.1	153.3	156.9	162.2	164.1	161.7	153.9	142.8	131.8	122.6	114.4	105.3	97.88	89.98	82.44	76.12	69.13	63.04	58.34	55.45	53.38	48.72	42.02	36.81	32.05	29.13	25.28	22.08	19.21	16.64	14.26	13.76	16.39	27.90	153.5	778.4	 2099	 2073	622.6	10.11	2.414	2.141	1.950	1.618	1.558	1.467	1.340	1.213	1.266	1.248	1.233	1.135
535.0	105.8	131.6	142.7	155.4	177.3	182.8	186.4	264.0	860.5	 2107	847.1	208.7	184.8	160.5	142.3	126.7	116.3	115.7	112.4	115.1	112.8	116.8	120.9	123.9	126.9	128.6	129.6	133.8	137.4	138.8	136.2	130.7	121.6	111.9	104.0	97.00	90.73	83.81	78.72	72.64	66.88	61.20	56.99	52.40	49.79	46.16	44.45	40.54	34.55	30.49	27.07	24.03	20.38	18.37	15.31	13.23	11.17	10.22	11.52	38.80	177.1	480.5	 1156	 2809	200.1	11.62	2.393	1.968	1.498	1.385	1.363	1.198	1.153	1.190	1.086	0.970	1.005
540.0	94.76	118.5	129.6	141.4	153.3	169.0	167.8	193.4	373.8	 1692	 1502	225.7	166.8	144.0	124.9	112.7	104.8	102.9	99.85	101.2	101.2	104.1	106.0	108.0	112.0	113.7	114.3	117.2	122.7	123.3	120.6	114.7	107.0	100.8	92.05	85.42	81.38	74.70	70.43	65.81	59.82	55.57	52.12	48.33	46.04	42.39	40.93	38.67	33.78	28.63	25.60	22.50	19.68	17.13	14.44	12.34	10.35	8.542	8.077	13.13	43.41	110.6	285.4	 1690	 2503	181.8	5.748	2.061	1.589	1.378	1.256	1.239	1.040	1.020	0.982	0.974	0.901
545.0	85.54	103.0	116.5	122.1	129.9	157.1	153.9	164.6	221.3	960.2	 2117	525.4	148.1	129.2	112.0	99.39	94.17	90.59	89.49	90.77	89.66	92.59	93.89	97.08	100.3	101.2	102.0	104.1	108.0	110.3	107.3	102.2	95.77	89.19	82.73	77.23	72.12	67.59	63.18	58.85	54.38	50.84	47.71	44.78	42.49	38.93	36.70	35.23	33.03	27.58	24.16	21.10	18.78	16.37	13.95	12.15	9.956	8.081	7.120	7.381	13.50	28.13	67.15	451.5	 2039	 1579	26.44	2.794	1.851	1.330	1.353	1.175	1.019	0.928	0.893	0.818	0.891
550.0	78.91	91.89	102.3	104.8	111.0	128.7	141.6	146.3	165.4	387.3	 1495	 1436	214.0	110.8	95.88	85.96	79.28	75.62	76.27	76.60	75.97	77.95	79.38	81.82	85.43	85.59	86.27	87.76	90.53	93.03	91.37	87.31	81.10	75.86	70.19	65.60	61.84	57.53	54.84	51.13	47.70	44.50	41.98	39.50	37.73	34.63	32.34	30.54	29.70	26.33	22.66	19.54	16.92	15.04	12.87	11.24	9.302	7.951	6.559	5.829	6.590	9.434	17.92	103.7	538.1	 1386	 1617	533.9	9.375	1.609	1.268	1.101	1.014	0.858	0.836	0.816	0.785
555.0	71.47	81.90	85.96	85.60	92.99	103.4	122.6	129.2	139.5	190.3	595.5	 1689	821.2	96.94	79.99	71.84	64.80	63.43	62.57	62.68	62.25	64.68	64.34	67.75	70.30	70.82	71.26	72.66	75.50	76.11	75.39	71.54	66.69	62.40	58.86	54.00	51.96	48.34	46.10	43.30	40.30	37.23	35.11	34.04	32.20	30.47	28.15	26.19	25.15	23.48	20.96	17.70	15.33	13.46	11.40	10.17	8.407	7.257	6.288	5.263	4.788	5.265	6.730	25.85	122.3	316.3	799.8	 1959	206.3	10.44	1.388	1.146	0.952	0.754	0.783	0.853	0.713
560.0	76.62	75.79	77.04	77.79	80.17	93.11	111.0	122.8	129.6	147.0	252.7	 1178	 1508	118.5	68.10	61.55	55.63	55.17	54.42	53.05	54.62	55.41	56.23	58.14	59.07	59.88	60.70	62.39	65.03	64.45	64.07	60.42	57.65	53.82	50.38	45.96	44.15	41.54	39.92	37.43	35.19	32.28	31.52	29.76	27.98	27.23	25.25	22.85	21.70	20.43	19.35	16.24	13.73	12.07	10.07	9.097	7.779	6.673	5.742	5.049	4.579	4.300	4.225	8.407	29.44	72.90	193.6	 1102	 1639	175.9	4.022	1.256	0.989	0.908	0.740	0.716	0.635
565.0	77.56	73.70	72.54	71.59	72.17	81.31	93.89	115.2	123.9	133.4	159.0	613.0	 1716	502.5	59.14	52.85	49.31	45.80	45.49	46.47	46.48	47.24	47.55	49.14	50.83	51.30	51.31	52.24	54.60	55.02	54.74	52.49	48.51	45.33	42.20	39.50	38.59	35.87	33.80	32.48	30.36	28.85	26.81	25.99	24.59	23.42	21.79	20.43	18.38	17.11	16.90	14.86	12.68	10.78	9.207	8.168	6.922	6.157	5.278	4.644	4.049	3.675	3.604	4.178	8.646	18.29	45.39	283.2	 1250	 1361	26.66	1.904	0.965	0.835	0.776	0.604	0.664
570.0	83.80	75.12	65.68	58.82	59.44	68.26	78.85	102.9	124.8	134.0	147.9	262.3	 1047	 1186	173.6	43.05	38.85	36.86	36.54	36.50	37.10	37.60	37.72	39.17	40.19	40.23	40.73	41.79	42.67	43.05	42.97	41.37	38.53	35.94	33.64	31.63	30.64	29.01	27.27	25.86	23.91	22.96	21.73	21.05	20.42	18.99	17.95	16.67	14.99	14.14	13.55	12.64	10.93	9.143	7.862	7.043	5.977	5.241	4.626	4.086	3.718	3.467	3.113	3.122	4.002	5.934	11.91	64.87	320.8	898.6	 1023	331.5	7.725	0.920	0.751	0.706	0.579
575.0	95.63	80.95	67.30	50.14	50.23	54.66	67.75	86.49	125.3	141.2	154.4	172.1	401.0	 1205	731.0	38.24	30.90	28.47	28.58	28.36	28.73	28.97	29.34	29.98	31.06	31.08	31.14	31.93	32.02	32.80	32.75	30.96	29.43	27.42	25.31	24.66	23.40	22.84	21.46	19.85	18.89	18.03	17.01	16.10	15.98	15.03	14.07	13.15	12.03	11.00	10.37	9.728	8.822	8.073	6.506	5.956	5.012	4.519	4.126	3.518	3.315	3.096	2.880	2.775	2.969	3.122	4.281	16.00	72.94	203.6	453.7	 1083	195.2	7.561	0.809	0.594	0.567
580.0	96.21	85.64	63.62	47.95	44.18	49.97	61.63	81.34	121.9	147.9	162.6	158.8	185.8	752.8	 1319	78.06	25.07	23.70	24.17	23.55	23.62	23.10	23.62	24.46	25.28	26.13	25.70	25.55	26.41	26.38	26.95	25.72	23.70	22.60	20.36	20.25	19.33	19.03	17.59	16.15	15.62	14.89	13.75	13.66	12.98	12.52	11.68	10.97	9.936	9.155	8.629	7.787	7.340	6.904	5.821	5.229	4.399	3.888	3.589	3.071	2.884	2.861	2.731	2.544	2.422	2.457	2.615	5.003	17.53	46.73	108.4	575.8	933.6	152.5	2.452	0.619	0.506
585.0	97.34	89.22	66.73	47.38	39.21	44.08	58.35	78.77	118.8	153.1	168.7	159.9	136.7	358.0	 1295	503.8	22.18	20.01	20.05	19.84	19.38	19.34	20.10	20.15	21.30	20.96	21.18	21.59	22.10	22.14	22.53	21.45	20.04	18.74	17.45	16.68	16.34	15.83	14.49	13.72	13.09	12.44	11.50	11.42	11.40	10.34	9.764	9.604	8.621	8.029	7.057	6.656	5.976	5.981	5.277	4.493	4.055	3.416	3.140	2.744	2.694	2.447	2.550	2.391	2.290	2.203	2.135	2.511	5.266	11.65	25.33	145.6	653.7	757.4	25.41	1.120	0.614
590.0	104.9	90.56	65.18	43.15	34.66	41.35	53.00	75.39	112.0	159.2	180.0	167.2	127.4	141.1	658.9	 1093	157.9	16.53	15.90	15.85	15.37	15.51	16.15	16.13	16.55	16.49	16.69	16.87	17.45	17.41	17.36	16.81	15.46	14.38	13.46	13.24	12.52	12.25	11.47	11.23	10.17	9.988	9.086	9.128	8.943	8.467	7.982	7.672	6.982	6.385	5.830	5.168	4.733	4.669	4.541	4.161	3.381	2.922	2.692	2.437	2.288	2.235	2.145	2.279	2.099	2.074	1.999	1.928	2.455	3.679	6.580	33.36	164.9	470.3	554.4	114.6	6.282
595.0	103.3	96.33	65.20	38.54	30.38	36.19	48.62	69.03	104.5	150.4	183.3	169.4	125.3	84.56	207.2	854.6	593.5	18.64	12.62	12.23	12.06	12.36	12.62	12.57	12.58	12.89	13.18	13.00	13.33	13.56	13.48	12.72	12.38	11.29	10.29	10.29	9.711	9.583	8.803	8.511	8.067	7.976	7.114	6.990	7.225	6.627	6.525	5.950	5.527	5.173	4.625	4.077	3.718	3.602	3.621	3.344	3.036	2.460	2.250	2.080	1.934	1.867	2.014	2.072	1.962	2.034	1.785	1.703	1.817	1.898	2.353	8.129	37.32	106.3	234.1	575.6	177.5
600.0	102.6	95.55	67.64	36.62	29.62	33.24	48.12	66.66	100.6	143.0	179.6	168.8	127.2	69.88	72.56	450.5	 1104	62.42	11.19	10.78	10.12	10.38	10.50	10.81	10.75	10.80	11.43	10.77	11.19	11.49	11.35	10.94	10.04	9.196	8.605	8.739	8.090	7.787	7.357	6.972	6.665	6.519	6.041	6.018	5.894	5.517	5.560	5.041	4.708	4.314	3.865	3.678	3.188	2.933	3.022	2.958	2.821	2.374	2.050	1.874	1.904	1.824	1.815	1.747	1.868	1.839	1.677	1.506	1.524	1.409	1.442	2.558	8.885	24.30	55.36	300.0	549.2
605.0	97.03	92.73	65.58	33.37	29.10	31.46	41.86	62.60	94.48	137.9	170.2	167.9	123.1	67.95	41.12	181.1	984.9	450.0	11.14	9.463	8.759	9.420	9.205	9.192	9.000	9.373	9.232	9.033	9.546	9.949	9.817	9.089	8.766	8.168	7.745	7.251	7.172	6.565	6.278	6.023	5.581	5.497	5.130	5.135	5.027	4.835	4.603	4.396	4.029	3.574	3.398	3.040	2.635	2.458	2.538	2.547	2.527	2.214	1.882	1.670	1.666	1.664	1.555	1.661	1.702	1.762	1.673	1.510	1.443	1.325	1.228	1.220	2.536	5.981	12.94	75.63	366.6
610.0	93.19	87.33	61.61	35.74	27.12	29.88	40.28	58.71	90.38	127.4	156.7	165.4	123.5	67.97	35.24	58.78	444.5	938.1	160.2	8.119	7.596	7.425	7.410	7.329	7.498	7.563	7.250	7.530	7.850	7.908	8.108	7.710	7.308	6.884	6.497	6.226	5.916	5.526	5.260	4.884	4.524	4.469	4.174	4.293	4.102	4.019	3.863	3.562	3.183	2.924	2.750	2.564	2.284	2.025	1.985	1.983	2.047	1.863	1.805	1.522	1.461	1.459	1.442	1.510	1.572	1.547	1.480	1.506	1.345	1.124	1.010	0.848	1.095	1.777	3.316	17.37	92.01
615.0	88.40	79.47	53.82	33.59	25.34	28.92	37.13	56.81	83.70	120.9	146.1	150.1	122.1	69.15	35.36	28.47	126.2	642.2	728.0	14.28	6.398	6.140	6.292	5.804	6.122	6.182	5.887	6.169	6.086	6.180	6.370	6.041	6.193	5.228	5.342	5.179	4.924	4.547	4.360	3.860	3.655	3.401	3.349	3.376	3.196	3.315	3.106	2.787	2.604	2.399	2.231	2.039	1.840	1.753	1.622	1.493	1.407	1.451	1.578	1.328	1.284	1.256	1.301	1.345	1.428	1.325	1.410	1.319	1.268	1.017	0.808	0.709	0.716	0.880	1.073	4.257	20.84
620.0	81.68	78.00	55.26	31.90	25.57	26.94	35.70	53.50	78.08	112.6	139.2	142.7	121.6	70.46	36.60	22.27	40.40	299.7	 1006	55.46	5.957	5.357	5.685	5.158	5.377	5.058	4.989	5.089	5.152	5.057	5.212	5.050	5.072	4.515	4.453	4.338	4.248	3.926	3.470	3.378	3.017	2.946	2.797	2.874	2.740	2.861	2.792	2.369	2.219	2.004	1.830	1.726	1.663	1.471	1.370	1.239	1.284	1.277	1.426	1.393	1.176	1.176	1.161	1.185	1.242	1.220	1.215	1.180	1.120	0.996	0.910	0.677	0.640	0.580	0.687	1.335	5.054
625.0	84.73	73.34	53.06	31.21	24.00	27.08	34.30	51.79	76.66	105.5	131.2	136.2	116.1	73.05	38.70	21.49	19.96	109.9	791.3	420.4	6.588	5.011	4.908	4.500	4.671	4.297	4.435	4.157	4.496	4.419	4.651	4.142	4.219	3.872	3.756	3.646	3.678	3.333	2.980	2.724	2.555	2.552	2.477	2.271	2.250	2.335	2.311	1.989	1.917	1.850	1.555	1.421	1.345	1.380	1.096	1.193	1.149	1.099	1.260	1.239	1.190	1.068	1.051	1.117	1.126	1.150	1.063	1.217	1.147	1.029	0.850	0.717	0.587	0.529	0.529	0.592	1.399
630.0	80.08	72.66	50.98	28.47	24.40	26.24	34.29	49.13	73.88	101.4	123.7	129.5	110.4	76.77	42.66	23.98	16.59	33.69	315.9	831.3	150.9	4.572	4.089	3.783	3.942	3.685	3.710	3.415	3.675	3.784	3.754	3.504	3.335	3.272	3.181	3.010	2.923	2.758	2.424	2.254	2.238	2.050	2.027	1.869	1.947	1.857	1.820	1.721	1.635	1.503	1.332	1.197	1.143	1.165	0.983	1.005	0.958	0.897	0.996	1.091	1.058	0.983	0.932	1.011	0.958	1.040	0.989	1.087	1.027	0.978	0.817	0.773	0.633	0.567	0.511	0.461	0.612
635.0	75.47	73.55	51.64	31.02	24.57	25.88	34.31	49.14	70.53	100.0	119.3	126.2	106.7	79.55	48.57	26.42	16.97	15.40	82.84	498.9	667.0	11.41	3.377	3.405	3.400	3.139	3.020	2.869	2.913	3.093	3.268	2.766	2.843	2.662	2.692	2.493	2.495	2.231	2.040	1.873	1.817	1.729	1.528	1.667	1.617	1.611	1.530	1.487	1.397	1.201	1.124	0.983	0.926	0.930	0.841	0.759	0.830	0.787	0.857	0.869	0.932	0.962	0.925	0.872	0.968	0.924	0.936	1.004	0.980	0.841	0.801	0.667	0.649	0.555	0.475	0.444	0.427
640.0	79.32	76.99	52.75	32.31	23.75	25.50	36.10	50.59	71.14	96.56	117.3	124.7	106.8	79.29	53.39	28.33	17.03	12.07	24.16	208.0	878.6	49.75	3.563	3.147	2.863	2.885	2.739	2.639	2.648	2.927	2.758	2.610	2.496	2.307	2.404	2.148	2.193	1.996	1.646	1.685	1.654	1.626	1.497	1.377	1.392	1.360	1.401	1.314	1.172	1.009	0.944	0.918	0.835	0.745	0.755	0.714	0.728	0.763	0.724	0.811	0.801	0.880	0.881	0.862	0.893	0.912	0.931	0.876	0.953	0.910	0.743	0.614	0.558	0.532	0.449	0.486	0.426
645.0	81.85	79.37	49.86	30.06	23.37	27.38	36.34	48.77	70.78	93.37	113.3	122.6	105.9	81.33	56.18	31.28	17.77	12.03	11.00	68.25	650.8	375.9	4.832	2.897	2.717	2.675	2.252	2.297	2.220	2.452	2.425	2.162	2.139	2.113	2.011	1.890	1.971	1.638	1.406	1.458	1.408	1.335	1.425	1.156	1.289	1.268	1.174	1.221	1.048	0.884	0.917	0.843	0.861	0.707	0.720	0.640	0.717	0.680	0.680	0.712	0.649	0.827	0.803	0.930	0.828	0.900	0.916	0.906	0.881	0.887	0.664	0.643	0.591	0.540	0.458	0.418	0.379
650.0	82.86	80.17	52.52	30.88	23.64	24.86	33.16	49.81	71.81	95.15	111.9	120.8	104.4	82.48	57.10	33.85	18.67	11.45	7.967	20.66	299.2	757.3	32.16	2.669	2.510	2.381	2.203	2.094	2.044	2.192	2.123	1.985	1.850	1.757	1.779	1.761	1.577	1.372	1.479	1.235	1.097	1.231	1.272	1.064	1.064	1.209	1.086	1.054	0.971	0.806	0.827	0.662	0.645	0.676	0.614	0.602	0.615	0.588	0.670	0.745	0.644	0.795	0.816	0.880	0.882	0.873	0.748	0.862	0.875	0.807	0.654	0.644	0.593	0.514	0.484	0.371	0.313
