Sample:	'1
File name:	º£´´.FD3
Run date:	'14:31:01, 06/17/2025
Operator:	dsjg
Comment:	'

Instrument
Model:	F-2700 FL Spectrophotometer
Serial number:	2198-001
ROM Version:	4J14000 07

Instrument parameters
Measurement type:	3-D scan
Data mode:	Fluorescence
EX  Start WL:	220.0 nm
EX  End WL:	600.0 nm
EX Sampling interval:	5.0 nm
EM  Start WL:	230.0 nm
EM  End WL:	650.0 nm
EM Sampling interval:	5.0 nm
Scan speed:	12000 nm/min
EX Slit:	5.0 nm
EM Slit:	5.0 nm
PMT Voltage:	700 V
Response:	Auto 
Corrected spectra:	Off
Contour interval:	50.000

Peak integration
Integration method:	Rectangular
Sensitivity:	1
Threshold:	1.000

Peaks
No.	ApexEX/EM(nm)	Height(Data)
1	225.0/625.0	20.37
2	235.0/635.0	23.82
3	240.0/385.0	 1912
4	270.0/595.0	83.45
5	275.0/600.0	88.49
6	280.0/620.0	80.02
7	285.0/370.0	 2250
8	485.0/385.0	8.764

Data points
	220.0	225.0	230.0	235.0	240.0	245.0	250.0	255.0	260.0	265.0	270.0	275.0	280.0	285.0	290.0	295.0	300.0	305.0	310.0	315.0	320.0	325.0	330.0	335.0	340.0	345.0	350.0	355.0	360.0	365.0	370.0	375.0	380.0	385.0	390.0	395.0	400.0	405.0	410.0	415.0	420.0	425.0	430.0	435.0	440.0	445.0	450.0	455.0	460.0	465.0	470.0	475.0	480.0	485.0	490.0	495.0	500.0	505.0	510.0	515.0	520.0	525.0	530.0	535.0	540.0	545.0	550.0	555.0	560.0	565.0	570.0	575.0	580.0	585.0	590.0	595.0	600.0
230.0	15.83	384.6	 1143	427.5	17.16	4.218	4.036	2.924	3.050	2.479	2.710	2.650	2.664	2.164	1.672	1.840	1.533	1.452	1.425	1.300	1.324	1.150	1.039	1.027	0.872	0.823	0.798	0.728	0.784	0.595	0.583	0.556	0.552	0.468	0.472	0.539	0.507	0.435	0.372	0.347	0.266	0.334	0.333	0.327	0.310	0.285	0.326	0.989	2.958	3.762	2.367	0.684	0.235	0.176	0.176	0.158	0.180	0.186	0.173	0.191	0.204	0.170	0.162	0.159	0.196	0.215	0.136	0.170	0.169	0.165	0.201	0.202	0.209	0.174	0.207	0.174	0.237
235.0	19.90	111.8	752.8	 1548	561.7	27.97	4.251	3.600	3.506	2.729	2.274	2.948	1.684	1.787	1.713	1.730	1.379	1.417	1.490	1.427	1.384	1.065	0.884	1.120	0.841	0.793	0.607	0.949	0.629	0.815	0.596	0.452	0.538	0.572	0.496	0.403	0.459	0.546	0.424	0.354	0.304	0.465	0.337	0.393	0.325	0.300	0.233	0.507	0.989	2.205	3.927	5.805	4.068	1.339	0.300	0.180	0.167	0.196	0.188	0.152	0.167	0.122	0.122	0.199	0.226	0.276	0.200	0.161	0.153	0.153	0.144	0.128	0.207	0.204	0.180	0.145	0.253
240.0	33.04	45.00	237.2	 1320	 1963	435.3	16.75	4.182	3.452	2.441	3.047	3.436	2.811	1.611	1.765	1.549	1.277	1.260	1.600	1.307	1.391	1.082	1.075	0.822	0.876	0.844	0.699	0.996	0.682	0.765	0.693	0.487	0.417	0.476	0.425	0.441	0.377	0.498	0.458	0.339	0.337	0.477	0.308	0.358	0.406	0.332	0.349	0.264	0.441	0.649	1.604	4.977	8.393	7.704	3.344	0.665	0.211	0.251	0.217	0.123	0.203	0.174	0.131	0.147	0.159	0.257	0.197	0.196	0.192	0.125	0.178	0.229	0.257	0.214	0.228	0.130	0.196
245.0	33.56	54.81	78.40	465.5	 1943	 1955	305.3	7.285	3.830	2.675	3.631	3.071	2.690	2.232	1.736	1.360	1.710	1.535	1.457	1.331	1.474	1.079	1.285	0.969	0.964	0.725	0.942	0.808	0.717	0.631	0.623	0.645	0.468	0.520	0.407	0.316	0.467	0.488	0.400	0.431	0.443	0.453	0.332	0.328	0.366	0.377	0.496	0.394	0.425	0.217	0.600	1.539	4.337	8.591	10.46	6.506	2.251	0.432	0.222	0.260	0.176	0.187	0.174	0.161	0.167	0.182	0.180	0.174	0.201	0.122	0.161	0.178	0.178	0.177	0.255	0.161	0.198
250.0	13.24	50.66	82.74	140.4	624.2	 1748	 1999	750.1	48.04	4.348	3.803	3.665	2.833	2.495	2.434	1.847	2.169	1.622	1.645	1.332	1.364	1.268	1.162	1.078	1.114	0.964	0.922	0.827	0.698	0.769	0.676	0.502	0.609	0.484	0.406	0.354	0.408	0.365	0.380	0.399	0.433	0.365	0.307	0.304	0.305	0.326	0.407	0.331	0.485	0.421	0.415	0.515	1.170	2.699	5.033	7.774	9.802	8.683	5.125	1.778	0.348	0.213	0.153	0.181	0.175	0.218	0.206	0.193	0.183	0.160	0.186	0.179	0.205	0.228	0.225	0.211	0.163
255.0	7.752	17.83	67.52	125.4	175.6	443.3	 1386	 2513	415.8	49.07	5.344	4.861	3.430	2.830	2.220	1.824	2.222	1.620	1.657	1.166	1.229	1.160	1.386	1.031	1.147	1.011	0.823	0.872	0.925	0.788	0.841	0.661	0.491	0.382	0.387	0.481	0.366	0.335	0.334	0.357	0.434	0.314	0.269	0.318	0.324	0.292	0.320	0.221	0.323	0.373	0.502	0.666	0.700	0.859	1.385	1.961	3.211	7.060	11.66	12.91	7.101	1.711	0.325	0.154	0.156	0.243	0.167	0.212	0.211	0.179	0.207	0.221	0.161	0.219	0.153	0.098	0.188
260.0	8.302	12.60	32.43	110.7	130.6	119.5	411.3	 1843	 2445	346.9	21.45	5.057	3.651	3.029	2.613	1.865	2.244	1.740	1.610	1.344	1.473	1.294	1.454	1.128	0.974	1.053	0.882	0.718	0.943	0.830	0.706	0.697	0.475	0.518	0.477	0.403	0.344	0.307	0.335	0.419	0.436	0.261	0.320	0.323	0.256	0.293	0.332	0.261	0.247	0.303	0.323	0.694	0.991	0.770	0.542	0.669	0.991	1.964	4.767	10.29	13.73	11.36	4.848	0.865	0.192	0.241	0.150	0.220	0.237	0.197	0.239	0.185	0.211	0.217	0.151	0.175	0.199
265.0	6.863	10.19	13.41	54.77	145.5	104.9	110.2	597.0	 2208	 2284	278.2	10.42	4.447	3.689	2.889	2.407	2.131	1.801	1.713	1.613	1.583	1.349	1.736	1.268	1.174	1.052	0.798	0.758	1.070	0.661	0.779	0.583	0.637	0.624	0.496	0.330	0.463	0.433	0.360	0.312	0.250	0.343	0.422	0.309	0.310	0.291	0.260	0.280	0.263	0.262	0.300	0.449	0.719	0.942	0.844	0.514	0.385	0.582	1.262	3.075	6.960	12.30	14.59	9.447	2.838	0.392	0.204	0.244	0.264	0.228	0.203	0.174	0.171	0.217	0.187	0.215	0.245
270.0	10.98	8.592	10.58	22.12	70.87	130.8	109.6	160.0	670.2	 1753	 2188	997.0	76.19	5.181	3.530	3.097	2.674	2.068	1.891	1.841	1.619	1.482	1.470	1.357	1.171	0.971	1.015	0.881	0.806	0.704	0.700	0.603	0.478	0.572	0.554	0.472	0.512	0.430	0.396	0.332	0.291	0.290	0.341	0.326	0.249	0.341	0.340	0.309	0.329	0.291	0.262	0.292	0.329	0.479	0.741	0.879	0.897	0.664	0.539	0.980	1.930	3.523	6.401	9.616	11.84	11.18	7.205	2.640	0.488	0.205	0.206	0.187	0.212	0.201	0.222	0.239	0.293
275.0	23.18	17.72	19.91	24.23	40.26	80.78	166.3	153.5	196.6	468.4	 1261	 2637	 1504	96.84	5.730	3.941	2.865	2.976	2.289	1.745	1.947	1.542	1.495	1.344	1.350	0.987	1.114	0.979	0.946	0.663	0.749	0.607	0.591	0.567	0.564	0.416	0.448	0.529	0.263	0.431	0.376	0.372	0.274	0.268	0.277	0.331	0.373	0.294	0.385	0.225	0.298	0.269	0.283	0.327	0.462	0.444	0.861	1.370	1.086	0.872	0.732	1.063	1.828	2.504	3.903	7.282	13.70	16.67	10.73	2.674	0.324	0.333	0.234	0.220	0.234	0.230	0.276
280.0	38.63	42.12	45.57	47.46	66.04	88.52	164.3	246.9	189.5	216.8	468.6	 1663	 2881	 1196	51.32	4.874	4.077	3.224	2.842	2.182	1.797	1.605	1.598	1.225	1.179	1.142	0.997	1.061	0.925	0.740	0.780	0.612	0.595	0.498	0.672	0.523	0.531	0.499	0.325	0.446	0.440	0.381	0.260	0.337	0.368	0.363	0.418	0.301	0.408	0.351	0.389	0.301	0.381	0.446	0.503	0.578	0.859	1.063	1.311	1.578	1.060	0.793	0.964	1.106	1.507	2.538	5.288	11.77	18.05	17.08	8.017	1.308	0.266	0.333	0.190	0.158	0.243
285.0	53.47	66.35	79.22	87.27	107.7	133.5	171.7	259.1	314.9	255.7	314.8	704.1	 2017	 2860	902.0	22.53	4.642	3.305	2.704	2.290	1.633	1.810	1.683	1.530	1.383	1.205	1.245	1.132	0.906	0.593	0.757	0.716	0.646	0.638	0.578	0.567	0.692	0.541	0.601	0.398	0.362	0.440	0.470	0.380	0.310	0.418	0.433	0.383	0.465	0.377	0.429	0.430	0.528	0.630	0.644	0.788	1.058	0.944	1.156	1.630	1.968	1.633	1.287	1.225	1.469	1.661	2.241	4.192	8.060	15.17	19.96	15.16	4.769	0.475	0.239	0.314	0.189
290.0	92.86	103.9	129.9	150.6	192.1	240.0	261.3	285.5	391.8	471.4	477.0	560.1	903.3	 1724	 2439	 1362	62.52	5.534	3.753	2.840	2.058	2.119	1.942	1.575	1.582	1.293	1.325	1.001	0.995	0.868	0.839	0.814	0.710	0.696	0.688	0.720	0.762	0.602	0.577	0.555	0.461	0.469	0.453	0.462	0.446	0.469	0.561	0.555	0.579	0.534	0.601	0.817	0.884	1.001	1.016	1.184	1.320	1.325	1.361	1.546	1.819	2.079	2.374	2.214	2.305	2.263	2.216	2.834	3.637	5.419	8.421	12.26	15.87	15.32	10.04	3.837	0.486
295.0	125.9	154.8	182.7	226.6	275.4	341.2	373.6	386.2	439.6	598.9	794.3	768.9	787.0	838.5	 1234	 2651	 1115	78.60	5.368	3.895	2.883	2.505	2.109	2.107	1.533	1.437	1.171	1.077	1.070	1.034	0.980	0.748	0.746	0.674	0.749	0.740	0.844	0.850	0.655	0.690	0.637	0.675	0.560	0.639	0.572	0.681	0.676	0.642	0.850	0.761	0.718	1.082	1.260	1.244	1.489	1.461	1.916	1.908	1.790	1.805	2.038	2.188	2.608	3.127	3.773	3.908	3.274	3.478	3.530	3.802	3.878	4.598	5.509	8.488	17.20	23.96	15.69
300.0	155.4	181.6	222.1	263.3	344.1	412.5	463.0	479.1	521.6	659.3	928.7	 1045	926.2	791.9	703.4	 1453	 3109	965.3	47.20	5.052	3.485	2.691	2.336	1.990	1.797	1.923	1.501	1.060	1.151	1.031	1.000	1.085	0.922	0.799	0.804	0.772	0.906	0.721	0.646	0.716	0.645	0.800	0.667	0.714	0.744	0.868	0.688	0.651	0.844	0.903	0.800	1.137	1.351	1.361	1.676	1.998	2.175	2.224	2.387	2.199	2.408	2.208	2.972	3.060	3.950	5.035	4.645	4.534	4.200	4.108	3.635	3.427	3.147	3.550	6.689	13.94	24.04
305.0	176.9	203.8	241.7	301.6	371.7	465.5	522.8	557.5	609.7	730.1	977.6	 1238	 1179	924.0	685.5	697.2	 1778	 3512	770.6	19.87	4.642	3.505	2.598	2.094	1.960	1.740	1.758	1.292	1.126	1.085	0.978	1.049	1.003	0.659	0.937	0.971	0.922	0.919	0.908	0.823	0.686	0.694	0.684	0.768	0.840	0.751	0.776	0.753	0.909	0.994	0.885	1.364	1.582	1.587	1.828	2.263	2.370	2.506	2.772	2.651	2.955	2.870	3.273	3.442	3.942	4.750	5.115	6.073	5.553	4.722	4.377	3.798	3.119	3.007	3.134	4.890	9.715
310.0	198.3	216.9	266.3	337.2	409.7	500.1	571.7	623.5	696.4	814.3	 1016	 1257	 1391	 1193	842.7	597.6	670.4	 1700	 2951	 1699	46.65	5.599	3.658	2.872	2.188	2.041	1.794	1.519	1.382	1.261	1.175	1.176	0.886	0.853	0.923	0.897	0.975	0.900	0.893	0.827	0.759	0.841	0.791	0.807	0.862	0.807	0.894	0.846	0.956	0.972	1.061	1.428	1.705	1.756	2.043	2.367	2.709	2.861	3.075	2.978	3.268	3.336	3.517	3.798	4.420	4.735	5.217	5.953	6.254	6.031	5.532	4.729	3.764	3.447	2.939	2.735	3.296
315.0	207.5	235.7	297.4	357.1	431.9	523.3	608.3	671.9	757.4	887.3	 1056	 1257	 1397	 1412	 1078	680.8	452.1	557.1	 1100	 3150	 2710	60.57	5.797	4.109	2.868	2.385	1.910	1.572	1.433	1.444	1.265	1.133	0.801	0.919	0.948	0.885	0.914	0.930	0.881	0.821	0.715	0.770	0.899	0.946	0.831	0.823	0.999	0.969	1.153	0.899	1.120	1.499	1.851	1.835	2.054	2.434	2.723	3.131	3.096	3.245	3.512	3.880	3.828	4.285	4.750	4.847	5.105	5.687	5.810	6.388	5.946	5.994	5.231	4.238	3.269	2.601	2.229
320.0	246.9	298.2	366.6	410.2	455.9	525.6	622.4	696.4	797.0	933.2	 1101	 1277	 1402	 1445	 1272	826.4	483.6	358.0	410.7	 1372	 4076	730.4	38.22	5.682	3.690	2.802	2.171	1.796	1.796	1.376	1.287	1.090	1.017	0.921	1.027	1.029	0.988	1.079	0.836	0.730	0.791	0.793	0.839	0.958	0.870	0.976	0.975	1.078	1.302	1.258	1.204	1.484	1.790	2.087	2.212	2.543	2.771	3.360	3.310	3.180	3.715	3.802	4.036	3.980	4.591	4.913	5.243	5.819	5.874	6.439	6.352	5.978	6.183	5.258	3.863	3.145	2.529
325.0	280.0	386.9	487.5	493.7	510.9	557.8	636.0	719.1	823.6	965.7	 1146	 1323	 1453	 1454	 1348	 1028	598.7	400.4	302.6	483.8	 1978	 4029	613.6	20.37	5.434	3.642	2.387	2.113	1.853	1.277	1.288	1.125	0.998	1.224	0.998	1.088	0.916	0.946	0.880	0.751	0.790	0.935	0.873	0.892	0.905	1.182	1.116	1.371	1.744	1.573	1.689	1.907	1.993	2.210	2.356	2.499	2.977	3.235	3.360	3.212	3.827	3.908	4.164	4.530	4.895	5.287	5.495	6.176	6.009	6.361	6.595	5.968	6.635	6.036	5.158	3.830	3.019
330.0	338.5	532.7	705.9	702.9	635.4	629.3	688.2	759.1	869.1	 1034	 1220	 1409	 1539	 1545	 1407	 1200	874.2	568.4	410.3	355.1	655.7	 1925	 3344	 1819	41.50	7.681	3.555	2.767	2.197	1.807	1.665	1.363	1.200	1.186	1.128	1.140	0.903	0.991	0.930	0.878	0.789	1.000	0.876	0.903	1.056	1.262	1.411	1.860	2.287	2.269	2.259	2.672	2.556	2.678	2.611	2.717	3.177	3.275	3.648	3.592	3.985	4.183	4.545	4.792	5.348	5.510	5.933	6.503	6.423	6.658	6.886	6.562	6.412	6.263	5.693	5.294	4.434
335.0	402.4	670.8	896.5	931.7	796.3	753.7	769.5	833.5	939.3	 1112	 1311	 1504	 1640	 1671	 1542	 1310	 1115	857.8	603.7	476.0	453.2	665.8	 1272	 3838	 2839	56.65	8.621	4.548	3.192	2.234	2.028	1.602	1.263	1.187	1.257	1.078	1.109	1.090	1.005	0.878	0.974	0.921	0.885	0.932	1.183	1.570	1.655	2.146	2.598	2.829	2.854	3.390	3.337	3.227	3.101	3.041	3.417	3.542	3.721	4.084	4.213	4.803	4.734	4.951	5.772	5.958	6.397	6.306	6.912	7.149	7.503	6.973	7.011	6.490	6.145	6.163	5.516
340.0	437.1	785.9	 1068	 1099	952.7	889.3	853.3	926.4	 1018	 1188	 1395	 1595	 1739	 1765	 1657	 1439	 1222	 1096	814.4	622.6	520.0	485.1	559.4	 1738	 4820	610.3	40.93	7.304	3.652	2.753	2.055	1.962	1.892	1.355	1.416	1.249	1.124	1.066	1.005	0.941	1.007	0.973	0.982	1.160	1.203	1.580	2.037	2.523	3.195	3.405	3.305	4.074	4.080	4.061	3.585	3.632	3.864	4.029	4.160	4.211	4.555	4.847	5.309	5.453	6.094	6.320	6.865	6.687	7.327	7.655	7.587	7.608	7.710	7.278	6.731	6.493	5.599
345.0	469.7	873.1	 1185	 1242	 1103	 1017	958.2	998.2	 1113	 1274	 1466	 1670	 1807	 1851	 1776	 1575	 1344	 1218	 1048	791.8	647.0	549.4	477.1	706.6	 2575	 4491	526.4	24.69	6.320	3.398	2.494	1.993	1.662	1.308	1.284	1.092	1.169	1.114	1.216	1.087	0.971	0.944	1.031	1.138	1.381	1.777	2.333	2.976	3.344	3.747	3.759	4.666	4.774	4.451	4.555	4.190	4.426	4.588	4.632	4.713	4.997	5.230	5.568	5.997	6.532	6.815	7.026	7.074	7.727	8.141	7.537	7.909	7.753	7.841	7.230	7.130	6.265
350.0	525.0	925.9	 1272	 1400	 1278	 1203	 1127	 1170	 1263	 1405	 1587	 1774	 1912	 1969	 1903	 1735	 1532	 1370	 1262	 1093	875.3	729.5	600.7	551.8	910.7	 2297	 3608	 1938	38.28	7.059	3.903	2.572	2.140	1.657	1.438	1.333	1.225	1.187	1.202	1.070	1.001	1.056	1.135	1.168	1.474	1.900	2.222	3.000	3.800	3.960	3.896	5.206	5.624	5.170	5.237	4.973	5.278	5.289	5.477	5.485	5.843	5.933	6.306	6.529	6.584	7.166	7.310	7.543	8.046	8.140	8.301	8.609	8.561	8.627	7.903	7.836	7.381
355.0	537.7	950.5	 1366	 1532	 1488	 1392	 1314	 1345	 1464	 1596	 1746	 1906	 2047	 2096	 2041	 1900	 1718	 1566	 1439	 1351	 1196	954.8	783.5	650.7	603.4	776.8	 1346	 4004	 2666	51.48	7.106	4.111	2.530	2.029	1.777	1.407	1.349	1.317	1.134	1.066	1.208	1.053	1.211	1.248	1.460	1.860	2.394	3.213	3.690	4.016	4.404	5.955	6.284	5.840	6.160	5.529	5.996	5.934	6.217	6.194	6.596	6.884	7.020	7.487	7.554	7.843	7.919	8.049	8.427	8.891	8.559	9.228	8.911	8.824	8.472	8.444	8.499
360.0	579.2	992.4	 1445	 1622	 1590	 1508	 1422	 1449	 1570	 1725	 1854	 1997	 2120	 2164	 2120	 1994	 1848	 1720	 1590	 1476	 1399	 1168	940.8	769.0	619.3	497.4	512.9	 1758	 4782	561.4	35.19	6.329	3.486	2.462	1.961	1.566	1.600	1.433	1.164	1.056	1.200	0.962	1.292	1.234	1.577	1.961	2.359	3.566	3.757	4.583	4.672	5.870	6.456	6.364	6.473	6.305	6.284	6.613	6.560	6.700	7.095	7.435	6.934	7.837	7.828	8.095	8.148	8.471	9.341	8.863	8.902	9.769	9.091	9.499	9.191	9.074	9.231
365.0	643.4	 1024	 1498	 1680	 1688	 1595	 1523	 1530	 1646	 1796	 1957	 2078	 2175	 2201	 2156	 2067	 1959	 1842	 1716	 1601	 1506	 1382	 1109	899.1	707.4	512.7	376.0	590.7	 2596	 4373	483.1	19.15	5.045	3.215	2.151	1.680	1.596	1.692	1.361	1.161	1.385	1.116	1.211	1.430	1.692	2.047	2.504	3.508	4.143	4.713	4.880	6.174	7.069	6.982	6.748	6.460	7.041	6.913	7.094	7.047	7.212	7.713	7.770	7.819	8.185	8.605	8.189	8.476	8.853	9.009	9.414	9.664	9.657	9.680	9.332	9.255	9.062
370.0	660.8	 1081	 1528	 1752	 1800	 1695	 1625	 1661	 1766	 1902	 2026	 2141	 2221	 2250	 2197	 2123	 2046	 1966	 1875	 1767	 1643	 1540	 1356	 1100	861.5	637.5	451.9	382.1	786.5	 2318	 3572	 1599	32.31	5.408	3.125	2.153	1.886	1.574	1.395	1.249	1.358	1.259	1.468	1.634	1.829	2.188	2.668	3.574	4.211	4.615	5.002	6.735	7.315	7.356	7.429	6.996	7.260	7.478	7.374	7.677	7.717	8.313	8.496	8.421	8.626	8.638	9.072	8.857	9.293	9.390	9.361	9.520	9.724	9.738	9.882	9.594	9.553
375.0	684.0	 1102	 1575	 1798	 1877	 1798	 1723	 1728	 1816	 1953	 2095	 2194	 2236	 2241	 2194	 2146	 2112	 2055	 1999	 1908	 1793	 1648	 1504	 1334	 1042	780.7	575.9	424.0	406.2	666.4	 1351	 3900	 2325	41.39	5.899	3.092	2.450	1.878	1.543	1.439	1.368	1.285	1.534	1.545	1.834	2.487	2.775	3.865	4.621	4.542	5.223	6.938	7.604	7.492	7.807	7.626	7.675	7.810	7.510	7.937	8.386	8.349	8.886	8.877	8.968	9.126	9.123	9.126	9.463	9.776	9.774	9.541	9.944	10.10	9.388	10.17	9.989
380.0	682.1	 1130	 1578	 1814	 1910	 1862	 1750	 1770	 1874	 1965	 2090	 2206	 2227	 2220	 2183	 2143	 2114	 2086	 2050	 1982	 1871	 1732	 1571	 1445	 1189	892.2	666.0	497.8	368.6	328.5	428.3	 1755	 4326	466.8	26.82	4.644	2.906	2.416	1.872	1.605	1.334	1.397	1.593	1.706	1.928	2.530	2.851	3.622	4.272	4.709	5.301	6.982	7.594	8.175	7.917	7.609	8.233	8.198	7.752	7.724	8.009	7.923	8.585	9.161	8.987	9.122	8.724	8.821	9.059	9.597	9.474	9.526	9.768	9.303	9.775	10.04	10.10
385.0	707.2	 1105	 1586	 1815	 1912	 1875	 1778	 1769	 1863	 1965	 2070	 2174	 2195	 2168	 2141	 2105	 2084	 2077	 2059	 1997	 1912	 1781	 1611	 1467	 1301	996.7	744.0	562.0	403.8	288.4	236.0	517.3	 2424	 3607	381.4	12.36	3.826	2.803	2.175	1.677	1.544	1.515	1.682	1.809	1.910	2.309	2.842	3.859	4.415	4.634	5.086	6.747	7.700	8.764	8.164	7.493	7.828	7.849	8.000	7.736	7.977	8.257	8.642	9.073	9.134	9.200	8.672	9.083	9.146	9.233	9.331	9.428	9.311	9.556	9.336	9.970	10.19
390.0	697.5	 1099	 1525	 1826	 1904	 1872	 1798	 1755	 1826	 1939	 2020	 2123	 2117	 2092	 2066	 2028	 2032	 2035	 2022	 1981	 1914	 1805	 1652	 1490	 1339	 1122	856.6	642.3	477.7	340.5	243.7	239.4	664.5	 1928	 2770	 1191	25.27	4.500	2.801	1.952	1.750	1.446	1.714	1.770	1.975	2.407	2.817	3.662	4.425	4.830	5.160	6.827	7.600	8.589	8.213	7.648	8.352	7.911	8.383	7.865	8.095	8.315	8.259	8.500	8.863	8.668	8.969	8.851	8.882	8.810	8.948	9.084	9.046	8.991	8.970	9.592	9.802
395.0	661.7	 1093	 1498	 1774	 1876	 1862	 1798	 1754	 1771	 1883	 1943	 2015	 2032	 1986	 1951	 1917	 1945	 1953	 1949	 1931	 1869	 1788	 1656	 1502	 1338	 1158	975.9	737.3	557.7	411.8	298.7	222.9	256.4	502.0	 1043	 2981	 1726	33.95	4.641	2.780	1.909	1.564	1.776	1.806	2.078	2.501	2.758	3.678	4.463	4.547	5.013	7.041	7.539	7.941	7.564	8.010	8.033	7.784	8.102	8.123	7.800	8.349	8.260	8.408	8.238	8.144	8.848	8.535	8.261	8.588	8.348	8.699	8.856	8.345	8.675	8.991	8.999
400.0	640.4	 1065	 1454	 1715	 1818	 1822	 1782	 1741	 1752	 1823	 1885	 1934	 1948	 1898	 1849	 1827	 1844	 1866	 1874	 1861	 1825	 1745	 1633	 1496	 1345	 1154	 1008	823.6	608.7	463.4	341.5	248.0	189.5	198.8	300.4	 1355	 3194	393.1	22.89	4.127	2.283	2.079	1.769	1.707	1.959	2.585	2.907	3.542	4.298	4.462	4.836	6.804	7.445	7.343	7.490	7.700	8.083	7.743	7.865	7.902	7.473	8.142	8.224	8.249	7.924	7.818	8.461	8.079	8.171	8.118	8.062	8.402	8.057	8.353	8.448	8.516	8.579
405.0	657.8	 1053	 1398	 1631	 1782	 1785	 1736	 1681	 1708	 1745	 1813	 1859	 1859	 1815	 1759	 1742	 1759	 1779	 1794	 1790	 1750	 1690	 1588	 1467	 1331	 1147	995.1	873.9	671.0	503.9	379.9	282.2	201.7	156.7	143.8	379.1	 1748	 2689	324.2	11.99	3.075	2.517	1.915	1.848	2.065	2.594	2.622	3.461	4.152	4.396	4.803	6.389	7.021	7.339	7.382	7.731	8.032	7.698	7.877	7.626	7.774	7.711	7.794	8.244	7.911	7.677	7.823	7.672	7.815	7.826	8.059	8.230	8.028	7.869	8.146	8.392	8.228
410.0	625.6	963.2	 1309	 1567	 1702	 1730	 1670	 1622	 1641	 1674	 1715	 1756	 1737	 1681	 1639	 1620	 1620	 1647	 1662	 1662	 1639	 1592	 1515	 1409	 1285	 1133	980.3	862.4	738.2	569.7	428.8	324.7	239.6	175.0	131.4	154.9	468.3	 1412	 2112	907.1	22.12	3.583	2.270	2.113	2.128	2.234	2.681	3.372	4.064	4.147	4.557	5.940	6.969	7.025	7.146	7.183	7.790	7.936	7.550	7.505	7.651	6.912	7.628	7.588	7.430	7.322	7.446	7.639	7.320	7.366	7.284	7.239	7.276	7.252	7.570	7.636	7.632
415.0	558.1	905.4	 1241	 1469	 1592	 1642	 1594	 1571	 1569	 1592	 1597	 1649	 1597	 1543	 1502	 1479	 1475	 1499	 1518	 1523	 1507	 1471	 1409	 1331	 1233	 1093	960.0	838.8	735.5	634.2	484.8	364.1	271.8	204.3	150.5	121.3	165.7	358.4	788.5	 2168	 1246	29.93	3.548	2.623	2.239	2.412	2.504	3.166	3.689	3.906	4.321	5.654	6.263	7.063	6.662	6.692	7.786	7.727	7.295	7.236	7.430	6.983	6.864	7.177	6.783	6.638	6.878	6.907	6.851	6.910	6.710	6.756	6.894	6.605	6.868	7.291	7.256
420.0	545.6	864.3	 1184	 1370	 1512	 1577	 1541	 1534	 1511	 1522	 1522	 1550	 1505	 1446	 1395	 1368	 1363	 1382	 1416	 1414	 1401	 1368	 1324	 1265	 1173	 1062	940.5	819.9	719.6	650.8	534.7	391.2	296.1	225.4	168.2	127.1	109.0	128.5	215.0	956.7	 2322	355.6	19.89	3.491	2.476	2.842	2.596	3.058	3.416	3.626	4.127	5.278	6.406	6.840	6.579	6.738	7.271	7.276	7.040	7.157	6.946	6.693	6.785	6.724	6.395	6.293	6.332	6.723	6.248	6.547	6.230	5.977	6.273	5.903	6.427	6.799	6.610
425.0	530.4	814.5	 1123	 1283	 1465	 1496	 1492	 1495	 1470	 1459	 1454	 1468	 1416	 1360	 1315	 1282	 1284	 1299	 1318	 1317	 1310	 1290	 1253	 1200	 1122	 1022	923.1	807.9	713.4	630.7	562.8	428.1	314.9	244.5	183.8	137.7	105.2	87.57	87.20	256.9	 1266	 2013	293.7	8.678	3.069	2.774	2.946	3.007	3.518	3.782	3.938	5.151	5.886	6.421	6.342	6.557	7.305	7.060	6.724	6.922	6.889	6.518	6.281	6.463	6.259	6.382	5.884	6.063	5.986	6.269	6.186	5.833	5.823	6.015	5.726	6.242	6.266
430.0	494.5	773.7	 1046	 1230	 1370	 1438	 1427	 1432	 1410	 1391	 1381	 1370	 1321	 1261	 1212	 1176	 1176	 1182	 1194	 1205	 1199	 1187	 1157	 1115	 1053	972.0	885.7	793.2	700.6	617.2	547.4	466.8	354.4	266.9	205.9	156.9	118.8	89.73	69.35	92.87	331.8	 1051	 1563	685.3	19.77	3.687	3.187	3.190	3.436	3.599	3.720	4.969	5.663	6.099	6.006	6.194	6.950	6.470	6.808	6.462	6.363	6.262	6.221	6.264	6.167	5.831	5.612	5.662	5.520	5.666	5.279	5.538	5.192	5.538	5.641	5.628	5.763
435.0	478.5	708.2	984.1	 1162	 1297	 1351	 1357	 1367	 1349	 1323	 1302	 1270	 1220	 1168	 1107	 1074	 1065	 1074	 1085	 1086	 1089	 1077	 1064	 1026	972.0	916.2	838.0	767.3	685.5	605.0	534.2	464.6	398.0	295.7	226.1	175.7	137.0	103.9	77.75	67.60	107.3	259.8	577.6	 1702	997.8	26.42	4.195	3.515	3.545	3.652	3.663	4.661	5.326	5.605	5.850	5.998	6.360	6.005	6.607	6.243	6.334	5.888	5.784	5.627	6.023	5.624	5.275	5.024	5.006	5.275	5.321	5.107	4.554	4.909	5.259	5.151	5.496
440.0	484.1	678.1	917.7	 1106	 1212	 1288	 1316	 1318	 1302	 1269	 1240	 1201	 1151	 1090	 1042	 1004	997.5	994.8	 1002	 1012	 1016	 1005	988.9	959.9	920.1	864.5	805.3	739.9	668.6	597.4	524.0	452.4	399.4	324.8	242.8	187.9	151.3	114.9	88.45	68.98	62.60	87.22	155.2	801.3	 1915	310.1	14.92	4.186	3.814	3.670	3.448	4.316	4.852	5.220	5.574	5.624	6.046	5.902	6.367	6.312	6.189	5.570	5.760	5.495	5.626	5.147	5.109	4.803	4.880	4.769	4.877	4.752	4.645	4.983	4.858	4.865	4.945
445.0	525.6	656.5	866.8	 1037	 1154	 1250	 1266	 1282	 1250	 1217	 1178	 1150	 1093	 1045	982.4	940.3	930.0	920.9	933.4	940.0	943.1	934.6	922.4	903.9	871.9	819.0	770.2	710.6	649.8	590.3	518.9	447.2	384.7	340.8	262.1	201.1	161.0	124.7	97.22	76.18	59.68	53.12	61.04	216.1	 1132	 1679	215.2	7.741	4.323	3.530	3.382	4.333	4.583	4.967	5.346	5.240	5.978	5.820	5.699	6.242	5.807	5.643	5.756	5.610	5.224	4.935	4.906	4.566	4.494	4.605	4.427	4.423	4.609	4.627	4.727	4.295	4.452
450.0	500.2	739.1	807.1	947.5	 1079	 1173	 1183	 1203	 1194	 1137	 1104	 1063	 1006	952.8	891.0	850.0	835.2	834.0	836.9	840.1	846.9	841.6	834.7	820.2	795.2	755.3	714.7	665.8	619.0	565.4	507.5	436.4	372.9	327.9	284.1	222.5	174.2	138.0	110.5	89.33	68.25	55.65	47.17	73.76	296.6	935.8	 1342	561.6	16.89	4.292	3.531	4.182	4.391	4.574	4.909	4.942	5.633	5.307	5.547	5.835	5.395	5.458	5.231	5.082	4.876	4.820	4.648	4.612	4.241	4.242	4.141	4.111	4.167	4.071	4.221	4.037	4.088
455.0	379.1	817.3	828.1	866.7	969.5	 1073	 1094	 1119	 1112	 1057	 1013	982.3	915.1	859.8	810.8	755.0	749.3	738.7	734.6	742.7	749.5	747.0	744.4	732.6	715.2	685.3	652.6	614.2	575.0	533.9	483.4	428.0	363.9	313.7	276.0	245.0	191.9	149.3	121.6	100.1	80.92	63.99	51.41	49.20	92.03	230.0	503.8	 1392	763.5	19.78	4.212	4.295	4.531	4.525	4.397	4.595	4.953	4.934	5.143	5.115	5.279	5.006	4.715	4.733	4.459	4.544	4.374	4.242	3.949	3.942	3.838	3.779	3.835	3.608	3.835	3.657	3.492
460.0	331.2	763.2	990.8	817.7	891.9	 1003	 1013	 1074	 1035	 1016	955.7	913.7	854.9	792.1	746.0	699.9	683.8	672.3	667.8	681.2	682.2	679.5	678.1	665.1	652.9	633.6	606.9	572.1	541.9	504.1	464.2	417.1	357.9	304.9	267.2	244.0	206.8	161.3	131.3	107.1	88.49	71.33	56.89	48.33	49.81	73.42	133.2	639.7	 1477	227.5	13.15	4.569	4.745	4.307	4.235	4.335	4.542	4.746	4.759	4.698	5.216	4.747	4.522	4.284	4.284	4.096	4.138	3.802	3.814	3.727	3.527	3.487	3.538	3.582	3.394	3.264	3.322
465.0	304.0	616.6	 1169	846.7	840.4	920.9	966.6	 1010	973.8	953.6	895.3	860.5	797.2	732.7	690.9	644.3	634.3	621.6	614.8	625.7	624.2	620.1	619.1	610.0	604.0	583.6	565.0	532.9	508.2	480.3	442.5	396.7	346.0	299.1	259.6	231.8	213.8	173.1	137.6	113.4	93.48	77.32	61.49	51.66	43.50	41.62	48.68	169.0	873.2	 1241	172.9	7.486	4.688	4.562	4.043	4.441	4.471	4.717	4.862	4.633	4.755	4.383	4.438	4.103	3.969	3.865	3.758	3.713	3.609	3.489	3.407	3.238	3.220	3.207	3.020	3.393	3.332
470.0	268.9	439.7	 1004	 1172	804.0	833.2	887.3	915.7	899.5	876.1	823.4	787.4	718.0	658.1	612.5	576.5	563.7	550.8	547.6	549.5	549.4	542.7	545.4	540.6	534.4	521.4	502.8	483.5	463.7	441.0	412.8	370.7	327.6	286.6	249.4	219.4	200.4	180.9	146.6	119.9	98.59	81.59	67.31	55.39	46.10	37.75	32.79	54.83	226.2	683.4	952.7	427.5	16.43	4.686	3.843	4.059	4.442	4.279	4.345	4.323	4.364	4.250	4.057	3.860	3.622	3.548	3.276	3.244	3.071	2.996	3.039	2.918	2.850	2.856	2.938	2.896	2.973
475.0	231.8	355.5	632.6	 1378	938.8	755.3	801.3	837.0	828.3	798.8	749.0	699.5	642.6	594.7	548.2	508.4	494.8	488.5	481.4	474.8	479.0	473.4	477.4	473.8	467.6	459.0	450.5	431.7	421.1	402.0	378.1	341.5	306.4	272.5	238.4	210.3	188.7	170.4	154.5	126.9	101.8	85.15	71.09	58.72	49.27	40.15	32.63	31.97	65.30	164.6	334.8	950.9	271.4	19.46	4.149	3.987	4.123	3.988	4.045	4.184	4.039	3.727	4.042	3.663	3.355	3.051	3.198	3.174	2.904	2.738	2.458	2.606	2.429	2.265	2.423	2.707	2.663
480.0	221.0	325.6	486.1	 1132	 1336	733.1	744.8	762.2	771.6	747.6	701.2	652.7	603.1	549.4	503.7	468.8	450.9	442.8	436.6	434.5	433.4	429.4	430.1	431.6	425.3	418.9	410.0	400.1	388.8	375.3	351.7	323.9	292.8	257.9	228.0	203.3	180.3	163.6	151.7	131.9	106.3	86.94	74.57	60.91	52.23	41.27	33.47	28.02	30.92	49.05	86.60	409.3	961.6	237.8	12.09	4.040	4.126	3.896	3.836	3.896	3.685	3.467	3.407	3.195	3.036	2.973	2.869	2.847	2.715	2.492	2.393	2.433	2.389	2.553	2.401	2.571	2.420
485.0	216.8	314.7	421.0	768.8	 1536	805.0	692.9	719.3	725.5	701.6	654.3	600.2	569.7	508.8	470.4	436.7	414.9	404.3	396.6	401.1	396.3	393.4	394.4	397.8	388.4	381.3	375.2	369.1	358.8	354.4	329.3	305.6	277.0	246.1	221.0	196.2	174.5	156.8	143.0	133.3	110.9	87.91	74.42	62.42	53.42	43.86	35.44	28.82	24.56	25.18	29.92	106.4	561.2	933.6	182.6	6.312	4.210	3.823	3.516	3.692	3.544	3.304	3.339	3.269	3.016	2.739	2.818	2.617	2.592	2.282	2.236	2.440	2.224	2.334	2.333	2.272	2.272
490.0	179.2	283.3	376.5	527.9	 1173	 1246	676.9	655.2	655.9	632.6	599.4	554.2	512.2	465.0	421.3	390.1	368.8	359.8	355.0	352.9	350.3	351.0	348.7	349.0	345.5	343.2	337.5	329.4	325.1	320.2	300.0	278.9	254.1	229.1	207.6	185.0	166.3	148.6	133.4	123.6	113.6	92.34	74.73	62.45	53.84	46.07	37.29	30.93	24.77	20.91	19.13	33.50	142.1	464.3	753.7	351.1	16.10	4.058	3.611	3.506	3.179	3.227	3.004	2.881	2.773	2.664	2.452	2.315	2.215	2.138	2.074	2.148	2.057	2.192	2.006	1.936	2.130
495.0	158.8	258.6	336.7	437.3	668.5	 1333	925.2	579.4	591.5	565.7	535.3	496.8	450.4	409.9	370.6	341.1	321.1	315.3	309.6	305.9	305.9	305.6	300.8	302.4	302.6	300.1	296.1	290.7	288.4	284.9	268.5	250.8	229.6	208.2	190.8	172.8	155.0	138.1	124.1	112.1	103.5	94.92	78.34	61.98	54.13	44.51	37.84	32.26	26.17	20.39	17.59	18.61	39.96	110.8	282.0	814.1	281.6	18.58	3.541	3.212	3.019	2.962	2.807	2.653	2.504	2.411	2.304	2.214	2.087	1.891	2.036	1.780	1.960	2.089	1.869	1.643	1.858
500.0	133.8	234.3	310.5	380.8	474.7	 1011	 1222	567.0	543.2	512.0	488.5	453.5	405.8	370.1	338.9	308.8	289.0	284.8	278.4	275.3	272.8	272.8	268.1	268.9	268.8	265.0	268.0	261.7	258.7	256.6	243.1	228.7	211.6	192.6	174.5	158.6	144.2	130.6	116.9	105.2	94.85	89.89	78.54	62.69	52.74	43.62	38.09	31.95	26.01	21.23	17.64	15.79	18.04	32.12	71.10	351.0	853.5	239.3	9.962	3.386	2.757	2.885	2.706	2.309	2.508	2.134	2.159	2.163	2.087	1.832	1.985	1.684	1.815	1.820	1.808	1.623	1.546
505.0	127.9	189.4	302.8	355.0	398.2	654.5	 1315	695.2	479.7	473.7	448.3	417.6	374.3	340.7	307.7	278.4	263.4	257.6	250.1	246.4	246.8	244.8	242.0	242.0	241.6	240.4	239.2	239.2	234.7	231.0	222.5	209.2	193.4	177.9	161.1	147.7	133.8	119.8	109.0	98.02	87.89	83.08	77.73	64.28	50.83	42.74	36.67	31.11	25.54	21.49	17.72	15.38	13.39	14.83	22.22	89.23	481.1	809.6	39.52	4.900	2.810	2.812	2.541	2.354	2.158	2.046	2.025	1.860	1.940	1.617	1.578	1.643	1.485	1.563	1.529	1.590	1.571
510.0	107.0	170.1	254.7	316.3	340.5	425.4	889.6	 1033	475.1	413.9	398.4	363.9	328.9	294.2	265.0	244.1	232.4	218.8	216.3	211.9	211.5	209.0	206.1	206.5	208.1	205.7	205.0	203.9	202.5	200.4	195.7	183.6	171.7	156.0	143.9	131.0	120.9	109.3	98.74	88.20	80.15	71.42	67.52	63.65	50.90	41.14	35.11	30.01	25.05	20.93	17.74	15.17	12.59	11.30	11.66	25.59	120.5	398.4	567.7	165.7	14.20	2.724	2.477	2.161	2.035	1.712	1.748	1.632	1.599	1.497	1.409	1.389	1.431	1.410	1.375	1.352	1.388
515.0	96.34	142.2	213.1	274.2	288.9	328.4	489.4	997.9	714.8	358.4	344.5	312.1	278.6	252.0	231.6	206.5	196.4	188.3	183.3	181.6	177.1	175.5	175.0	174.6	176.3	172.8	172.5	174.2	172.5	172.3	166.4	158.8	150.2	134.8	125.2	115.1	105.1	96.81	88.95	80.12	70.34	63.43	56.94	54.82	51.63	41.76	33.12	28.03	24.08	20.23	17.23	14.94	11.94	10.54	9.589	11.47	32.03	93.49	198.5	575.4	265.4	15.54	2.404	2.019	1.695	1.747	1.505	1.523	1.330	1.302	1.334	1.240	1.210	1.217	1.074	1.021	1.054
520.0	85.84	127.2	185.6	241.8	265.1	288.5	337.5	711.9	961.0	367.8	309.1	281.6	252.3	228.3	206.6	186.5	174.1	166.3	161.9	163.4	156.0	154.2	153.9	154.4	156.8	151.8	153.0	154.8	154.1	151.4	147.5	142.2	133.3	121.5	111.0	103.3	96.13	87.20	80.25	71.96	65.44	58.13	52.12	47.63	48.15	42.29	33.01	26.96	22.83	19.14	16.43	14.49	11.92	10.45	8.918	8.436	12.56	25.31	49.25	253.8	618.2	197.7	6.224	2.079	1.686	1.613	1.382	1.361	1.213	1.142	1.182	1.161	1.045	1.065	0.996	0.997	1.068
525.0	76.36	116.1	155.5	212.5	256.7	255.2	271.6	443.2	973.4	523.6	283.8	256.1	226.3	206.5	184.3	165.8	154.7	150.2	144.1	142.8	142.8	140.7	136.6	137.3	136.0	134.9	137.4	135.7	138.3	134.7	132.3	127.8	119.2	108.8	102.2	94.00	86.39	79.57	71.80	65.54	59.39	53.11	47.58	42.82	42.08	40.57	32.67	26.27	21.85	18.27	16.29	13.89	11.70	10.22	8.423	7.888	8.034	10.01	14.67	63.73	335.5	555.8	37.71	3.203	1.683	1.402	1.326	1.400	1.190	1.072	1.095	1.131	1.085	0.901	1.046	0.908	0.864
530.0	63.59	98.45	133.8	170.5	224.6	228.5	231.8	285.6	627.4	795.2	318.1	222.4	197.9	177.8	158.2	145.7	135.1	128.7	124.7	122.8	119.9	119.5	117.3	116.8	116.7	115.4	118.0	116.5	117.1	117.2	113.4	109.3	102.5	95.02	88.82	80.62	75.83	69.55	63.91	58.50	52.08	47.57	42.19	38.10	35.37	34.48	32.31	26.77	20.76	17.35	15.24	13.11	11.14	10.00	8.732	7.478	6.909	6.367	7.078	17.31	82.72	275.2	329.4	153.1	10.95	1.573	1.292	1.161	1.134	0.966	0.903	0.968	0.860	0.870	0.877	0.851	0.850
535.0	58.70	85.23	122.7	139.8	180.5	210.4	199.3	218.0	320.8	707.1	567.5	200.0	171.1	152.3	134.0	123.1	114.9	107.9	106.2	104.2	102.3	100.2	99.17	98.35	97.69	97.34	98.88	97.87	97.33	98.64	97.65	91.94	86.85	81.06	75.58	70.72	65.11	60.72	55.28	50.84	45.92	41.35	36.83	34.62	30.55	28.62	28.25	26.43	20.60	16.21	14.22	12.18	10.32	9.281	8.518	7.281	6.467	5.349	4.944	6.638	21.08	63.62	123.3	408.7	226.5	11.04	1.344	1.088	1.038	0.896	0.723	0.915	0.688	0.920	0.846	0.731	0.752
540.0	49.98	77.76	103.7	122.4	143.2	191.0	181.2	189.4	220.2	456.8	766.3	244.6	152.1	138.3	120.5	108.1	101.8	95.88	91.77	92.88	91.70	87.92	87.13	86.37	86.99	86.83	86.25	87.20	87.08	86.56	85.93	81.17	75.55	71.94	67.32	62.11	57.59	53.75	49.12	45.31	41.42	37.03	33.54	31.03	27.75	25.25	24.62	24.55	20.49	15.57	12.94	11.09	9.843	8.575	7.688	7.396	6.286	5.320	4.554	4.548	7.111	16.57	30.46	178.0	441.6	150.3	3.958	1.190	0.958	0.767	0.701	0.784	0.621	0.660	0.678	0.800	0.799
545.0	45.36	67.52	91.46	112.2	132.1	161.8	174.1	168.9	178.4	271.4	690.8	338.6	136.7	121.1	106.8	98.85	90.54	86.33	83.14	83.26	80.89	77.73	76.32	76.56	76.81	76.33	75.94	75.87	76.07	78.14	76.41	73.01	68.29	63.79	59.88	55.77	51.95	48.63	44.80	40.81	37.38	33.27	30.54	27.49	24.33	22.77	20.85	21.13	20.13	15.76	12.26	10.54	8.832	8.042	7.135	6.651	6.065	5.022	4.471	3.689	3.983	5.805	8.768	44.59	238.9	393.9	35.33	1.878	0.968	0.793	0.750	0.694	0.655	0.645	0.642	0.658	0.641
550.0	42.00	58.76	72.16	95.08	111.5	127.2	155.2	147.2	148.8	169.1	392.1	580.4	197.2	105.4	92.72	83.37	76.48	74.15	71.52	70.19	67.86	65.06	65.93	64.53	65.61	65.35	64.87	63.99	64.27	65.39	64.46	60.87	58.25	54.66	51.17	47.09	44.01	40.92	38.83	35.09	32.56	29.18	26.93	23.88	21.64	19.81	17.78	17.03	17.38	15.72	12.41	9.801	8.381	7.576	6.722	5.981	5.527	4.931	4.368	3.425	3.095	3.212	3.694	11.32	58.72	194.6	267.5	129.8	9.023	0.894	0.649	0.697	0.625	0.507	0.564	0.528	0.568
555.0	35.00	47.67	64.95	78.07	95.96	100.7	130.8	141.2	126.5	131.6	187.5	451.2	440.5	93.86	77.12	69.06	64.06	60.75	59.55	57.69	55.24	53.86	53.80	53.37	53.81	53.33	53.39	54.50	53.74	55.29	53.65	50.18	47.41	44.31	42.40	38.60	36.21	34.36	32.66	29.76	26.78	24.59	22.21	20.41	18.74	16.99	15.29	14.38	13.54	13.38	12.10	9.585	7.403	6.627	5.743	5.262	4.863	4.581	3.870	3.278	2.906	2.622	2.369	4.034	14.29	44.62	93.48	286.1	163.4	7.305	0.819	0.760	0.506	0.541	0.442	0.537	0.538
560.0	33.77	45.32	53.32	71.99	80.57	89.22	107.2	128.8	113.3	115.1	125.4	272.3	558.0	162.8	65.10	60.92	54.76	51.22	50.16	49.32	47.14	46.68	46.26	45.74	45.14	45.90	44.86	45.38	45.10	46.00	45.41	42.46	41.79	37.75	35.70	32.89	31.32	29.56	27.83	25.75	23.13	20.82	19.34	17.23	15.97	14.39	13.21	12.24	11.04	10.52	11.26	9.728	7.083	5.858	5.214	5.028	4.534	3.842	3.534	3.200	2.554	2.376	2.044	2.230	4.366	11.26	22.67	121.5	293.8	39.65	2.687	0.651	0.490	0.475	0.561	0.426	0.506
565.0	30.25	46.51	50.59	57.50	69.56	75.42	87.76	111.8	109.8	103.1	102.1	153.1	462.2	329.8	59.45	50.23	46.09	44.25	42.95	40.73	39.90	39.65	38.94	38.81	37.69	39.70	37.35	38.42	38.55	39.32	39.03	36.08	35.52	32.25	30.59	28.17	27.24	25.28	23.58	21.76	19.39	17.42	16.10	15.07	14.02	12.75	11.44	10.35	9.288	8.742	9.296	9.324	6.860	5.388	4.705	4.295	3.985	3.354	3.249	2.914	2.512	2.205	1.976	1.786	2.100	3.680	6.165	29.93	155.2	236.0	31.24	1.108	0.526	0.432	0.642	0.405	0.500
570.0	21.74	33.80	46.19	52.55	60.20	69.55	76.12	87.99	100.9	93.44	93.40	99.52	242.7	444.7	132.6	40.35	37.00	35.47	34.05	32.64	32.40	31.24	30.69	30.67	29.90	30.42	30.17	30.29	30.53	30.87	30.42	29.03	27.66	25.28	23.75	22.40	21.30	19.68	18.42	17.72	15.72	14.07	13.45	12.13	11.48	10.21	9.303	8.423	7.449	7.021	6.603	7.092	6.412	5.114	4.057	3.615	3.347	2.848	2.888	2.547	2.229	2.051	1.735	1.365	1.466	1.636	2.273	7.501	37.92	118.8	165.8	75.03	5.364	0.487	0.438	0.457	0.415
575.0	27.97	37.07	37.71	49.42	54.41	59.76	64.15	69.96	86.15	91.54	86.91	82.64	114.2	293.0	362.4	43.68	28.57	27.28	26.04	24.73	24.73	24.03	23.84	23.24	23.82	23.02	22.44	22.51	23.14	23.51	23.16	21.48	21.17	19.04	18.92	17.27	15.98	15.16	14.68	12.94	12.26	11.25	10.17	9.083	8.726	7.816	7.147	6.430	5.848	5.426	5.116	4.957	5.508	4.617	3.568	3.047	2.770	2.444	2.546	2.111	1.863	1.729	1.425	1.236	1.224	1.097	1.372	2.416	9.134	27.20	56.56	155.6	40.56	3.800	0.457	0.420	0.307
580.0	26.31	29.21	32.90	42.57	46.89	51.76	59.04	64.14	72.18	90.87	81.93	78.86	79.97	162.6	428.5	119.2	24.36	22.60	21.10	21.12	20.19	20.32	18.47	18.25	18.39	18.49	18.09	18.44	18.79	19.21	18.71	17.86	17.27	15.91	15.01	14.10	13.01	12.28	11.57	10.61	10.10	9.625	8.264	7.354	7.226	6.569	5.932	5.508	4.820	4.431	4.267	3.835	4.182	4.277	3.351	2.771	2.358	2.260	2.082	1.828	1.630	1.445	1.342	1.233	1.117	1.039	1.089	1.295	2.823	6.600	13.58	66.05	144.9	34.54	1.588	0.353	0.432
585.0	21.59	28.16	25.22	36.13	46.00	52.47	55.95	61.67	66.80	84.09	82.22	77.42	68.55	88.57	311.5	274.7	22.56	18.09	17.33	17.21	17.13	16.59	16.06	15.12	15.61	15.43	15.10	14.45	15.12	15.60	15.40	14.84	14.03	13.41	12.02	11.68	11.13	10.47	9.644	9.015	8.242	7.458	6.883	6.262	6.349	5.554	4.975	4.617	4.153	3.720	3.352	3.435	3.006	3.584	3.266	2.763	2.224	1.845	1.817	1.564	1.589	1.421	1.291	1.286	1.064	0.916	0.949	0.995	1.144	1.970	3.631	16.32	78.84	126.0	24.94	0.681	0.277
590.0	23.20	26.95	27.94	35.03	41.77	48.05	51.86	55.31	58.33	73.15	83.17	77.37	69.89	62.52	148.9	346.5	94.53	14.76	14.30	13.66	13.46	13.18	12.73	12.41	12.45	11.73	11.81	12.06	12.46	12.29	12.16	11.29	11.39	10.00	9.888	8.941	8.523	8.060	7.698	6.971	6.404	5.957	5.540	5.086	4.878	4.496	4.006	3.786	3.424	3.095	2.776	2.545	2.345	2.514	2.815	2.383	2.033	1.680	1.646	1.309	1.251	1.153	1.161	1.046	1.028	0.909	0.883	0.856	0.847	0.904	1.338	4.052	19.24	61.10	87.65	27.40	3.306
595.0	27.15	24.27	29.32	33.72	39.24	45.25	47.70	52.16	51.72	65.39	83.45	81.03	73.57	60.98	67.00	202.6	300.6	23.06	11.23	11.62	10.38	10.14	10.09	9.559	8.987	9.908	8.833	9.270	9.135	9.165	9.282	9.215	8.492	8.016	7.187	6.725	6.564	6.463	5.917	5.384	5.056	4.714	4.387	4.206	3.859	3.470	3.241	3.021	2.676	2.369	2.395	2.161	2.053	1.865	2.145	2.187	2.147	1.494	1.247	1.310	1.095	0.881	1.031	0.882	0.797	0.995	0.912	0.790	0.717	0.802	0.744	1.432	4.684	14.07	29.30	78.23	37.76
600.0	25.66	22.01	26.60	30.93	34.59	41.58	44.80	46.99	49.69	59.30	79.18	88.49	73.04	61.15	45.37	102.3	342.0	91.64	9.751	9.243	8.927	8.491	8.181	7.963	7.759	8.282	7.350	7.360	7.610	7.659	7.609	7.022	7.218	6.875	6.082	5.723	5.331	5.360	4.951	4.838	4.167	3.958	3.625	3.468	3.316	2.791	2.491	2.415	2.224	2.106	2.019	1.782	1.602	1.363	1.583	1.854	2.004	1.481	1.261	1.111	0.881	0.783	0.800	0.805	0.817	0.979	0.795	0.767	0.629	0.608	0.694	0.775	1.481	3.461	6.972	33.66	80.78
605.0	19.90	20.18	28.82	26.16	33.43	37.16	45.31	46.83	45.72	55.71	73.69	87.07	73.28	60.85	42.91	50.48	233.5	233.4	11.04	8.277	8.134	7.223	7.077	6.967	7.265	7.313	6.183	6.289	6.358	6.607	6.239	6.023	6.011	5.594	5.606	4.820	4.747	4.360	4.057	3.766	3.679	3.305	2.997	2.832	2.840	2.510	2.269	2.296	1.856	1.697	1.574	1.476	1.290	1.327	1.331	1.699	1.708	1.742	1.368	1.012	0.889	0.738	0.703	0.870	0.742	0.824	0.692	0.767	0.681	0.580	0.497	0.699	0.654	1.187	1.880	8.431	42.47
610.0	18.39	18.70	22.65	25.93	29.37	36.69	40.20	41.21	45.19	52.18	66.84	83.47	77.47	60.54	45.51	34.22	97.21	289.1	77.36	7.192	6.390	6.178	5.740	5.954	5.556	5.641	5.173	5.292	5.098	5.361	5.113	4.781	4.698	4.369	4.232	3.990	3.816	3.527	3.357	2.950	2.945	2.566	2.409	2.260	2.221	1.895	1.927	1.943	1.552	1.454	1.309	1.242	1.204	1.164	1.038	1.141	1.339	1.506	1.360	0.950	0.815	0.749	0.730	0.724	0.721	0.649	0.599	0.839	0.650	0.612	0.485	0.517	0.540	0.664	0.737	2.122	10.45
615.0	18.16	16.85	18.72	24.80	28.52	34.49	39.65	40.01	44.66	49.06	63.67	73.01	79.49	60.31	47.58	32.88	36.01	148.7	262.0	16.20	4.939	4.735	5.027	5.010	4.690	4.403	4.437	4.143	4.190	4.037	4.093	4.157	3.644	3.603	3.215	3.149	2.868	2.694	2.469	2.349	2.146	2.098	2.187	1.597	1.695	1.526	1.404	1.479	1.259	1.100	1.023	1.049	0.998	0.990	0.857	0.784	0.832	1.209	1.190	1.082	0.791	0.601	0.717	0.565	0.633	0.688	0.575	0.742	0.718	0.544	0.438	0.493	0.417	0.356	0.452	0.807	2.641
620.0	16.89	15.24	20.67	21.74	28.20	31.02	37.71	39.75	42.95	49.97	58.48	68.32	80.02	65.25	47.90	31.91	22.04	63.42	290.9	80.11	4.579	4.062	4.385	3.991	4.100	3.729	3.893	3.495	3.460	3.444	3.279	3.328	3.210	2.966	2.526	2.622	2.448	2.023	2.046	2.085	1.875	1.628	1.649	1.328	1.532	1.407	1.111	1.176	1.100	0.982	0.819	0.905	0.871	0.888	0.920	0.799	0.812	0.818	1.092	1.022	0.775	0.652	0.591	0.592	0.542	0.552	0.511	0.657	0.673	0.605	0.475	0.427	0.455	0.376	0.436	0.460	0.794
625.0	18.87	20.37	20.08	19.35	25.84	28.45	35.15	39.68	41.99	45.49	53.17	62.76	73.88	69.84	46.71	31.21	18.90	26.65	186.4	216.1	5.937	3.746	3.946	3.494	3.311	3.356	3.303	2.904	2.721	2.868	2.657	2.866	2.609	2.338	1.926	2.375	1.963	1.726	1.845	1.845	1.618	1.457	1.369	1.238	1.338	1.179	1.097	0.896	0.870	0.885	0.807	0.783	0.752	0.709	0.695	0.667	0.712	0.648	0.898	0.952	0.686	0.594	0.569	0.468	0.541	0.558	0.468	0.509	0.463	0.732	0.601	0.369	0.402	0.403	0.336	0.332	0.568
630.0	18.24	19.09	20.16	19.94	23.92	27.42	31.13	35.64	38.32	43.36	53.02	60.12	67.04	68.34	49.89	32.78	18.87	15.43	70.53	253.2	63.77	3.462	2.975	2.799	2.883	2.601	2.477	2.308	2.289	2.479	2.392	2.258	2.213	1.934	1.670	1.731	1.689	1.479	1.462	1.453	1.248	1.204	1.107	1.135	1.028	0.879	0.863	0.802	0.720	0.675	0.607	0.604	0.610	0.641	0.542	0.600	0.556	0.567	0.657	0.665	0.763	0.635	0.564	0.504	0.499	0.484	0.465	0.508	0.435	0.590	0.627	0.478	0.387	0.442	0.373	0.403	0.347
635.0	15.87	19.81	19.55	23.82	21.98	24.03	31.06	34.28	35.37	41.99	48.92	57.42	61.40	63.78	52.77	33.19	19.79	13.84	22.80	121.2	228.7	11.25	2.650	2.392	2.167	2.381	2.299	2.054	2.031	1.957	2.006	1.858	1.640	1.692	1.554	1.436	1.402	1.235	1.182	1.050	0.958	1.060	0.782	0.734	0.756	0.730	0.745	0.673	0.650	0.529	0.534	0.523	0.499	0.497	0.544	0.491	0.428	0.590	0.448	0.554	0.663	0.699	0.578	0.521	0.486	0.435	0.517	0.475	0.444	0.340	0.546	0.537	0.536	0.478	0.319	0.395	0.259
640.0	15.40	15.36	19.33	19.77	22.15	23.01	30.28	30.81	37.74	42.25	46.48	54.19	56.13	60.82	53.54	34.63	21.37	14.77	12.49	47.39	254.3	66.00	2.376	2.505	1.881	1.816	1.693	1.771	1.561	1.657	1.769	1.560	1.608	1.263	1.246	1.076	1.057	1.015	0.955	0.942	0.935	0.731	0.755	0.696	0.681	0.652	0.559	0.711	0.515	0.491	0.453	0.508	0.419	0.403	0.464	0.492	0.434	0.444	0.444	0.477	0.484	0.624	0.446	0.479	0.473	0.450	0.394	0.447	0.433	0.416	0.557	0.541	0.553	0.433	0.349	0.333	0.266
645.0	16.14	19.33	23.85	23.64	22.81	23.15	27.70	30.85	35.68	40.32	46.04	50.43	54.97	56.59	55.02	36.76	21.73	15.52	11.19	18.16	157.7	181.8	3.830	2.205	1.905	1.680	1.699	1.437	1.475	1.261	1.343	1.335	1.338	1.081	1.037	0.994	1.000	1.076	0.797	0.934	0.723	0.609	0.747	0.548	0.630	0.487	0.512	0.563	0.562	0.470	0.370	0.474	0.413	0.372	0.452	0.463	0.420	0.541	0.401	0.446	0.412	0.517	0.559	0.492	0.590	0.461	0.291	0.369	0.444	0.393	0.407	0.462	0.437	0.426	0.348	0.299	0.254
650.0	21.01	21.19	24.47	24.01	21.67	23.02	28.79	29.68	31.91	38.36	45.33	50.51	52.55	54.27	52.57	40.55	23.43	15.94	11.57	10.26	66.61	247.7	26.55	2.063	1.877	1.808	1.377	1.382	1.365	1.117	1.396	1.309	1.045	0.990	1.051	0.811	0.912	0.844	0.675	0.795	0.577	0.565	0.674	0.537	0.596	0.463	0.498	0.535	0.562	0.369	0.351	0.385	0.410	0.379	0.393	0.350	0.396	0.394	0.479	0.323	0.312	0.432	0.473	0.484	0.548	0.403	0.395	0.388	0.370	0.469	0.330	0.441	0.410	0.515	0.422	0.306	0.306
