Sample:	'1
File name:	5.1å§Ñô101ºÅ1200±¶.FD3
Run date:	'16:19:37, 05/15/2024
Operator:	horiz
Comment:	'

Instrument
Model:	F-2700 FL Spectrophotometer
Serial number:	23B8-004
ROM Version:	4J14000 07

Instrument parameters
Measurement type:	3-D scan
Data mode:	Fluorescence
EX  Start WL:	220.0 nm
EX  End WL:	600.0 nm
EX Sampling interval:	5.0 nm
EM  Start WL:	230.0 nm
EM  End WL:	650.0 nm
EM Sampling interval:	5.0 nm
Scan speed:	12000 nm/min
EX Slit:	5.0 nm
EM Slit:	5.0 nm
PMT Voltage:	700 V
Response:	Auto 
Corrected spectra:	Off
Contour interval:	50.000

Peak integration
Integration method:	Rectangular
Sensitivity:	1
Threshold:	1.000

Peaks
No.	ApexEX/EM(nm)	Height(Data)
1	230.0/500.0	137.4
2	235.0/510.0	117.2
3	240.0/260.0	416.2
4	240.0/525.0	131.0
5	245.0/270.0	430.8
6	245.0/425.0	154.3
7	245.0/435.0	148.7
8	245.0/535.0	123.4
9	250.0/275.0	511.4
10	250.0/445.0	148.5
11	250.0/550.0	116.1
12	255.0/280.0	861.9
13	255.0/560.0	136.1
14	260.0/285.0	1172
15	260.0/575.0	147.9
16	265.0/290.0	1437
17	265.0/585.0	167.0
18	270.0/300.0	1694
19	270.0/595.0	142.9
20	275.0/305.0	1585
21	275.0/325.0	2070
22	275.0/610.0	101.4
23	280.0/625.0	68.45
24	285.0/640.0	70.80
25	310.0/350.0	336.3
26	315.0/355.0	289.0
27	320.0/360.0	270.5
28	330.0/375.0	187.8
29	335.0/380.0	193.2
30	345.0/395.0	119.0
31	350.0/400.0	124.6
32	355.0/405.0	103.0
33	365.0/420.0	86.95
34	370.0/425.0	77.09
35	375.0/430.0	58.15
36	380.0/440.0	53.35
37	385.0/445.0	46.99
38	390.0/290.0	8.258
39	390.0/450.0	38.10
40	395.0/455.0	37.09
41	400.0/465.0	32.67
42	405.0/470.0	24.99
43	410.0/475.0	22.10
44	415.0/485.0	20.04
45	420.0/490.0	15.85
46	425.0/495.0	14.59
47	430.0/505.0	13.26
48	435.0/510.0	10.53
49	440.0/520.0	9.018
50	445.0/295.0	3.477
51	445.0/335.0	18.31
52	445.0/525.0	8.254
53	450.0/530.0	6.571
54	455.0/540.0	5.479
55	460.0/545.0	4.547
56	470.0/560.0	2.559
57	480.0/260.0	1.215
58	480.0/575.0	0.778
59	485.0/265.0	1.644
60	485.0/580.0	0.636
61	495.0/270.0	1.653
62	505.0/275.0	3.033
63	515.0/280.0	4.392
64	520.0/285.0	5.516
65	530.0/290.0	6.380
66	540.0/295.0	8.254
67	545.0/300.0	8.089
68	550.0/305.0	6.962
69	550.0/325.0	9.062
70	560.0/335.0	8.018

Wavelength data
No.	EX/EM(nm)	Height(Data)	

Data points
	220.0	225.0	230.0	235.0	240.0	245.0	250.0	255.0	260.0	265.0	270.0	275.0	280.0	285.0	290.0	295.0	300.0	305.0	310.0	315.0	320.0	325.0	330.0	335.0	340.0	345.0	350.0	355.0	360.0	365.0	370.0	375.0	380.0	385.0	390.0	395.0	400.0	405.0	410.0	415.0	420.0	425.0	430.0	435.0	440.0	445.0	450.0	455.0	460.0	465.0	470.0	475.0	480.0	485.0	490.0	495.0	500.0	505.0	510.0	515.0	520.0	525.0	530.0	535.0	540.0	545.0	550.0	555.0	560.0	565.0	570.0	575.0	580.0	585.0	590.0	595.0	600.0
230.0	-30.20	1305	4547	1458	35.95	-12.95	-11.26	-9.577	-8.547	-7.706	-6.581	-5.845	-5.421	-4.465	-3.915	-3.390	-3.025	-2.671	-2.428	-2.155	-2.098	-2.068	-1.910	-1.856	-1.742	-1.755	-1.711	-1.704	-1.657	-1.651	-1.590	-1.576	-1.467	-1.421	-1.278	-1.158	-1.154	-1.114	-1.148	-1.146	-0.952	-0.619	-0.642	-0.845	-1.015	-1.021	0.337	7.442	13.99	10.10	2.928	-0.446	-0.949	-0.925	-0.950	-0.969	-1.014	-1.053	-1.052	-1.082	-1.073	-1.087	-1.106	-1.112	-1.106	-1.086	-1.155	-1.158	-1.119	-1.167	-1.177	-1.218	-1.180	-1.224	-1.249	-1.265	-1.264
235.0	95.62	314.3	1962	3792	637.3	71.18	-9.941	-9.448	-7.465	-7.477	-6.165	-5.602	-4.851	-4.243	-3.828	-3.291	-3.144	-2.687	-2.499	-2.254	-1.835	-2.076	-1.911	-1.864	-1.745	-1.762	-1.741	-1.700	-1.689	-1.596	-1.595	-1.449	-1.422	-1.382	-1.339	-1.181	-1.196	-1.145	-1.178	-1.150	-1.027	-1.008	-0.820	-0.524	-0.646	-0.880	-0.599	1.071	4.080	7.694	11.59	11.71	4.620	0.197	-0.902	-0.944	-1.041	-1.076	-1.018	-1.067	-1.054	-1.115	-1.111	-1.109	-1.084	-1.153	-1.113	-1.142	-1.121	-1.170	-1.200	-1.242	-1.200	-1.242	-1.223	-1.234	-1.249
240.0	125.4	166.2	500.5	2368	3679	503.9	24.31	-6.853	-7.405	-6.017	-5.461	-5.471	-4.992	-4.033	-3.599	-3.085	-2.817	-2.613	-2.343	-2.109	-2.062	-2.008	-1.931	-1.769	-1.711	-1.711	-1.754	-1.524	-1.603	-1.587	-1.574	-1.522	-1.359	-1.408	-1.386	-1.247	-1.162	-1.150	-1.167	-0.991	-1.068	-1.092	-0.986	-0.727	-0.548	-0.204	-0.329	-0.322	0.308	1.468	5.067	12.89	15.97	11.32	3.083	-0.543	-1.020	-1.006	-1.058	-1.067	-1.044	-1.071	-1.106	-1.120	-1.097	-1.136	-1.160	-1.133	-1.163	-1.176	-1.180	-1.156	-1.191	-1.259	-1.212	-1.267	-1.232
245.0	43.68	233.9	190.0	671.5	3018	3525	381.7	6.357	-5.714	-5.655	-6.159	-4.970	-4.736	-4.283	-3.558	-3.283	-2.622	-2.498	-2.423	-2.101	-2.023	-1.845	-1.827	-1.723	-1.685	-1.607	-1.715	-1.660	-1.743	-1.736	-1.609	-1.523	-1.421	-1.378	-1.295	-1.245	-1.232	-1.148	-1.149	-1.068	-1.064	-1.092	-1.097	-0.959	-0.891	-0.387	-0.074	-0.024	-0.450	-0.194	0.619	3.169	9.296	17.28	16.83	8.867	1.270	-0.793	-1.018	-1.045	-0.960	-1.102	-1.118	-1.094	-1.066	-1.131	-1.182	-1.155	-1.149	-1.100	-1.209	-1.199	-1.194	-1.180	-1.183	-1.262	-1.274
250.0	-40.76	109.9	279.6	271.7	793.8	2462	3291	1365	86.16	-2.903	-4.446	-4.205	-3.826	-4.053	-3.128	-2.994	-2.450	-2.350	-2.194	-2.163	-2.000	-1.773	-1.864	-1.686	-1.729	-1.652	-1.656	-1.614	-1.692	-1.711	-1.563	-1.483	-1.493	-1.332	-1.282	-1.251	-1.219	-1.244	-1.193	-1.005	-1.039	-1.085	-1.050	-1.019	-0.995	-0.878	-0.526	-0.179	0.083	0.209	-0.016	0.233	1.484	4.418	8.341	12.55	15.70	14.24	7.070	1.222	-0.835	-1.035	-1.118	-1.069	-1.058	-1.076	-1.078	-1.146	-1.113	-1.141	-1.191	-1.208	-1.157	-1.225	-1.236	-1.220	-1.270
255.0	-70.55	-15.44	136.2	388.8	310.0	580.7	1736	5306	1846	89.75	-2.240	-2.955	-2.353	-3.123	-3.087	-3.207	-2.508	-2.318	-1.993	-2.098	-1.841	-2.054	-1.846	-1.668	-1.658	-1.661	-1.665	-1.622	-1.669	-1.619	-1.452	-1.539	-1.345	-1.366	-1.328	-1.225	-1.173	-1.235	-1.173	-1.138	-1.083	-1.074	-1.116	-0.999	-1.012	-0.972	-0.803	-0.767	-0.549	0.051	0.663	1.004	0.183	0.412	1.190	2.300	4.260	11.53	19.86	21.52	10.58	1.382	-0.945	-1.095	-1.029	-1.097	-1.084	-1.145	-1.134	-1.136	-1.178	-1.208	-1.180	-1.206	-1.247	-1.260	-1.261
260.0	-68.86	-40.20	17.49	255.1	416.2	203.3	460.4	3260	5111	1349	40.43	-1.127	-2.126	-2.350	-2.574	-2.768	-2.249	-2.339	-2.070	-2.043	-1.796	-1.839	-1.761	-1.642	-1.613	-1.623	-1.640	-1.539	-1.638	-1.529	-1.466	-1.525	-1.341	-1.342	-1.275	-1.210	-1.243	-1.202	-1.218	-1.201	-1.048	-1.051	-1.004	-1.017	-0.960	-0.966	-0.888	-0.875	-0.759	-0.528	0.029	1.119	1.215	0.444	-0.174	-0.117	0.297	2.248	6.957	16.73	24.32	20.58	7.591	0.088	-1.014	-1.096	-1.063	-1.128	-1.081	-1.141	-1.129	-1.211	-1.198	-1.174	-1.229	-1.208	-1.276
265.0	-65.03	-48.03	-18.32	78.32	402.6	327.8	140.6	867.7	3829	4654	251.5	10.16	0.196	-1.729	-1.791	-2.250	-2.148	-2.019	-2.026	-1.809	-1.794	-1.687	-1.565	-1.552	-1.626	-1.584	-1.608	-1.486	-1.543	-1.451	-1.408	-1.441	-1.331	-1.295	-1.255	-1.183	-1.133	-1.162	-1.232	-1.141	-1.047	-1.047	-0.913	-1.070	-0.987	-1.014	-0.843	-0.927	-0.848	-0.714	-0.540	-0.114	0.794	1.644	1.112	-0.147	-0.584	-0.227	0.900	3.862	11.18	22.46	27.16	17.12	3.720	-0.669	-1.063	-1.081	-1.152	-1.128	-1.126	-1.193	-1.153	-1.156	-1.216	-1.172	-1.255
270.0	114.8	28.33	-2.752	15.65	149.6	430.8	342.8	307.1	1102	3201	4589	911.7	59.82	0.863	-0.244	-1.616	-1.540	-1.905	-1.841	-1.542	-1.721	-1.623	-1.491	-1.514	-1.633	-1.490	-1.436	-1.532	-1.489	-1.474	-1.380	-1.133	-0.562	-0.129	-0.294	-0.328	-0.579	-0.732	-0.761	-0.684	-0.648	-0.665	-0.568	-0.534	-0.584	-0.727	-0.672	-0.843	-0.768	-0.656	-0.635	-0.660	-0.360	0.302	0.873	1.653	1.350	0.280	-0.172	0.436	2.166	5.590	11.14	15.42	19.20	20.82	12.75	3.113	-0.687	-1.072	-1.086	-1.117	-1.072	-1.112	-1.159	-1.164	-1.203
275.0	684.3	339.0	94.47	28.52	54.01	187.4	511.4	433.4	526.4	1019	2501	6130	1311	67.86	2.559	0.013	-0.923	-1.210	-1.829	-1.537	-1.604	-1.515	-1.387	-1.353	-1.500	-1.438	-1.410	-1.482	-1.485	-1.423	-1.220	-0.310	1.083	2.515	2.368	1.820	1.362	0.555	0.501	0.480	0.567	0.662	0.746	0.859	0.605	0.313	-0.008	-0.290	-0.484	-0.531	-0.635	-0.753	-0.646	-0.426	-0.260	0.296	1.624	3.033	2.469	0.860	0.797	1.658	3.173	4.080	5.746	12.57	19.61	30.51	18.50	3.822	-0.694	-1.000	-0.909	-0.951	-1.036	-1.018	-1.095
280.0	1271	646.6	213.5	63.57	51.78	118.5	379.3	861.9	690.7	707.4	1081	3736	5856	977.9	30.15	1.173	-0.256	-0.797	-1.200	-1.296	-1.506	-1.314	-1.180	-1.316	-1.523	-1.370	-1.374	-1.352	-1.465	-1.481	-1.118	0.353	2.646	4.935	4.999	4.123	3.088	1.995	1.752	1.521	1.712	1.899	2.008	2.027	1.804	1.442	0.821	0.347	-0.100	-0.443	-0.505	-0.631	-0.684	-0.509	-0.447	-0.206	0.260	1.800	4.047	4.392	2.485	1.652	2.287	2.383	2.633	4.184	7.411	18.41	24.42	29.64	13.71	1.539	-0.834	-0.900	-0.888	-0.864	-0.914
285.0	1679	971.6	365.6	97.59	66.47	116.1	276.3	717.3	1172	876.3	880.2	1397	4329	6053	652.6	8.486	1.301	-0.313	-0.759	-0.943	-1.065	-1.318	-1.181	-1.451	-1.483	-1.355	-1.377	-1.437	-1.398	-1.540	-0.974	0.635	3.761	6.611	7.245	5.737	4.059	3.217	2.410	2.217	2.409	2.654	2.804	3.165	2.448	2.582	1.605	0.842	0.334	-0.286	-0.411	-0.592	-0.753	-0.551	-0.515	-0.242	0.025	0.775	2.130	4.152	5.516	4.880	3.103	2.841	2.604	3.083	3.298	5.340	9.406	16.71	33.10	25.33	8.491	0.402	-0.846	-0.731	-0.949
290.0	1930	1223	506.8	158.1	88.27	139.6	266.1	474.9	1074	1437	1095	891.8	1362	4029	5192	1395	33.90	1.491	0.171	-0.547	-0.659	-1.207	-1.011	-1.311	-1.395	-1.214	-1.273	-1.312	-1.364	-1.315	-0.912	0.914	4.100	7.334	8.258	6.953	5.204	3.906	2.840	2.722	2.702	3.094	3.380	3.648	3.268	3.206	2.226	1.450	0.781	0.167	-0.209	-0.410	-0.554	-0.444	-0.390	-0.137	0.143	0.562	1.287	2.202	3.764	5.465	6.380	6.067	4.441	3.599	3.302	2.704	3.201	4.532	10.62	13.59	21.79	20.41	16.26	7.035	0.706
295.0	1911	1284	612.7	217.6	126.4	168.0	288.9	426.8	761.6	1347	1684	943.1	642.8	1028	2360	5258	751.9	34.99	1.462	0.123	-0.203	-0.726	-0.849	-0.918	-1.098	-1.199	-1.225	-1.257	-1.216	-1.352	-1.033	0.609	3.677	6.934	8.035	6.661	5.216	3.731	2.813	2.695	2.365	2.972	3.372	3.289	3.299	3.477	2.449	1.924	0.963	0.323	-0.069	-0.371	-0.371	-0.316	-0.232	-0.094	0.220	0.732	1.047	1.729	2.552	3.194	4.646	6.824	8.254	6.489	4.042	2.862	2.212	1.826	2.648	2.911	4.640	7.205	17.03	30.45	26.33
300.0	1743	1216	637.0	253.5	152.5	202.4	321.8	428.4	692.0	1045	1694	1306	535.9	381.9	621.5	2980	4719	564.5	13.68	1.389	0.369	-0.263	-0.784	-0.785	-1.041	-1.036	-1.081	-1.210	-1.318	-1.224	-0.905	0.671	3.154	5.666	6.821	6.062	4.854	3.263	2.404	2.105	1.936	2.452	2.811	2.787	2.895	3.141	2.483	2.073	0.980	0.447	0.082	-0.192	-0.219	-0.162	-0.008	0.066	0.390	0.745	1.221	1.620	2.231	2.793	3.794	4.303	6.188	8.089	6.855	3.857	2.338	1.372	0.965	0.758	0.792	1.366	3.978	12.04	25.30
305.0	1529	1136	614.6	247.5	166.3	222.8	340.2	423.6	641.9	876.1	1227	1585	692.5	259.7	228.6	807.0	3493	3957	84.94	5.143	1.766	0.141	-0.395	-0.606	-1.131	-1.071	-0.866	-1.145	-1.313	-1.108	-0.833	0.319	2.671	4.696	5.662	5.154	3.822	2.597	1.962	1.673	1.691	2.199	2.294	2.482	2.370	2.429	2.156	1.871	1.013	0.573	0.127	-0.167	-0.164	-0.115	-0.061	0.146	0.613	0.710	1.194	1.889	2.167	2.503	3.263	3.558	4.230	5.266	6.962	6.421	4.241	1.793	0.509	0.179	-0.052	-0.046	0.520	2.297	6.624
310.0	1594	1251	631.4	263.5	184.0	236.8	356.4	416.9	606.1	806.1	971.7	1174	1096	483.8	185.1	269.5	948.9	2677	3436	992.1	23.24	1.239	0.246	-0.326	-0.637	-0.705	-0.903	-1.089	-1.164	-1.187	-0.927	-0.114	1.629	3.293	4.262	3.527	3.002	2.160	1.405	1.223	1.456	1.695	2.157	2.289	2.646	2.588	2.287	1.824	1.147	0.703	0.174	-0.132	-0.082	-0.029	0.121	0.357	0.546	0.783	1.137	1.717	2.229	2.502	3.014	3.361	3.349	3.815	4.133	4.643	5.000	4.322	2.862	1.187	0.164	-0.177	-0.097	0.224	1.225
315.0	2866	2032	1168	434.7	270.5	327.5	464.7	577.6	816.8	1056	1267	1320	1259	1222	559.6	277.3	331.7	676.4	1738	3897	526.0	24.51	1.350	0.539	-0.221	-0.466	-0.759	-0.810	-0.947	-0.981	-0.908	-0.426	0.893	2.370	2.910	2.671	2.165	1.926	1.358	1.592	2.001	2.827	4.061	5.174	6.875	7.764	6.337	4.787	2.935	1.480	0.583	0.240	0.300	0.215	0.482	0.751	1.177	1.680	1.884	2.407	3.059	3.646	4.068	4.628	4.783	5.030	5.328	4.860	5.068	4.710	5.512	5.311	3.428	1.668	0.927	0.575	0.395
320.0	5087	4548	2099	740.0	399.6	433.4	531.6	786.5	1121	1487	1774	1862	1642	1622	1129	507.2	297.9	295.6	511.7	2327	4401	414.0	8.866	1.197	0.347	-0.338	-0.446	-0.836	-0.811	-0.911	-0.873	-0.531	0.525	1.535	2.373	2.128	2.172	1.947	1.625	2.363	3.354	4.334	6.535	9.090	12.27	14.37	12.07	9.845	5.855	2.948	1.511	0.925	0.935	0.735	0.861	1.241	1.752	2.387	2.820	3.794	4.341	5.244	5.659	6.618	6.751	7.307	7.787	7.229	7.062	6.458	6.460	6.566	7.015	5.804	2.992	1.753	1.209
325.0	5759	5699	2690	982.5	484.0	488.6	562.0	847.3	1208	1609	1963	2070	1859	1617	1455	803.1	337.9	234.7	224.6	692.3	3871	3093	62.00	3.557	1.046	0.106	-0.190	-0.608	-0.742	-0.820	-0.965	-0.505	0.217	1.134	1.501	1.761	1.850	1.727	2.038	2.715	3.301	4.807	7.348	10.52	14.74	17.54	15.37	12.85	8.295	4.172	2.074	1.387	1.178	0.972	0.962	1.407	1.953	2.520	2.809	4.124	4.699	5.574	6.537	7.355	7.689	8.245	9.062	8.342	7.682	7.188	6.943	6.445	6.325	7.217	5.412	3.363	1.809
330.0	6108	5998	2866	907.6	509.0	484.1	548.2	830.3	1181	1568	1922	2061	1877	1558	1236	964.7	510.7	235.5	167.4	243.7	1077	2254	2628	854.8	16.49	1.191	0.220	-0.317	-0.499	-0.823	-0.789	-0.474	0.063	0.626	1.174	1.384	1.469	1.606	1.869	2.695	3.345	4.968	7.730	10.60	14.89	18.22	16.04	13.62	8.401	4.629	2.386	1.732	1.193	0.937	1.037	1.360	1.950	2.406	2.865	3.923	4.670	5.542	6.364	6.963	7.508	8.052	8.553	8.395	7.885	7.526	6.998	6.364	5.600	5.001	4.905	4.086	3.283
335.0	6149	6084	2982	921.8	531.1	485.0	518.8	809.1	1138	1521	1857	2019	1867	1542	1117	774.8	684.8	365.8	170.8	151.3	311.0	538.8	1472	3500	406.0	17.47	1.237	0.225	-0.204	-0.535	-0.515	-0.552	-0.009	0.372	0.641	0.814	1.120	1.314	1.817	2.585	3.202	5.053	7.269	10.73	14.80	18.31	16.34	14.32	8.954	5.117	2.507	1.897	1.323	0.971	1.046	1.268	1.776	2.269	2.762	3.408	4.161	5.012	5.939	6.491	7.170	7.564	7.961	7.981	8.018	7.243	6.879	6.206	5.729	4.476	3.882	2.906	2.817
340.0	5376	5469	2748	878.7	510.0	443.8	462.1	691.8	980.6	1320	1615	1757	1652	1377	981.5	624.6	530.6	510.4	207.9	123.5	137.1	159.3	379.0	2219	2864	332.6	5.971	0.679	0.224	-0.109	-0.222	-0.562	-0.123	0.249	0.555	0.517	0.913	1.061	1.178	2.104	2.861	4.396	6.475	9.409	12.70	15.92	15.15	13.07	8.188	4.638	2.347	1.578	1.128	0.908	0.852	1.127	1.538	1.957	2.517	3.204	3.631	4.250	4.811	5.756	6.052	6.443	6.775	7.257	6.760	6.550	6.204	5.556	4.956	3.979	3.111	2.268	1.577
345.0	4247	4403	2285	767.3	454.1	403.2	471.6	576.4	806.2	1076	1321	1448	1357	1125	816.7	501.1	348.9	452.3	326.6	120.1	92.62	78.40	112.6	615.9	2464	2496	52.47	2.253	0.620	0.203	-0.225	-0.397	-0.409	-0.084	-0.024	0.303	0.526	0.692	0.888	1.633	2.133	3.441	5.136	7.301	10.28	13.18	12.32	10.73	6.883	3.676	2.071	1.646	0.919	0.838	0.871	1.129	1.190	1.587	1.735	2.497	2.987	3.357	3.961	4.683	5.277	5.395	5.182	5.729	5.365	5.229	4.818	4.292	3.844	3.244	2.357	1.636	0.981
350.0	3157	3367	1764	769.5	412.6	354.8	407.5	449.7	633.7	837.6	1018	1115	1049	885.8	642.7	397.0	247.3	252.5	336.3	229.2	95.79	63.30	57.55	164.5	693.3	1941	1992	219.6	13.87	0.720	-0.085	-0.255	-0.376	-0.277	-0.057	0.114	0.214	0.376	0.589	1.066	1.486	2.477	3.704	5.599	7.825	10.28	9.290	8.311	5.227	2.934	1.662	1.205	0.872	0.662	0.544	0.700	0.782	1.160	1.247	1.629	2.136	2.355	2.994	3.412	3.652	3.838	3.955	4.225	4.011	3.659	3.572	3.158	2.736	2.241	1.644	1.117	0.534
355.0	2621	2374	1263	659.1	372.8	306.8	338.1	339.0	464.5	602.4	740.6	809.4	769.3	655.3	485.6	307.6	186.0	150.6	179.9	289.0	185.2	71.43	51.28	68.93	177.8	452.4	1223	2454	354.8	14.97	0.530	0.058	-0.263	-0.245	-0.140	-0.190	-0.089	0.102	0.250	0.362	1.096	1.461	2.547	3.608	5.486	7.129	6.539	5.890	3.996	2.210	1.363	0.858	0.513	0.500	0.435	0.466	0.463	0.790	0.843	1.042	1.497	1.688	1.894	2.224	2.321	2.572	2.736	2.791	2.735	2.663	2.513	2.177	2.037	1.628	1.043	0.731	0.208
360.0	2023	1751	1203	557.4	336.3	280.5	286.8	334.1	362.6	461.2	562.5	605.1	579.6	499.5	380.5	238.3	150.7	115.2	112.8	194.5	270.5	107.7	54.92	51.86	66.83	119.6	317.1	1739	2267	301.1	5.236	0.663	-0.147	-0.172	-0.336	-0.244	-0.235	-0.101	-0.093	0.131	0.664	0.948	1.777	2.346	3.858	5.084	4.820	4.455	3.014	1.694	1.138	0.728	0.574	0.384	0.277	0.182	0.400	0.380	0.453	0.589	0.961	0.943	1.540	1.517	1.609	1.763	1.778	1.979	1.791	1.699	1.701	1.520	1.428	1.065	0.569	0.368	-0.075
365.0	1508	1541	969.3	494.6	322.5	259.6	251.0	297.4	276.8	364.6	438.3	470.5	449.7	383.3	293.8	194.8	125.0	98.95	90.82	113.5	231.7	198.4	70.77	51.43	45.82	48.15	85.78	496.0	2082	2303	48.33	1.774	0.231	-0.142	-0.221	-0.388	-0.352	-0.299	-0.322	-0.010	0.124	0.381	0.980	1.639	2.715	3.602	3.669	3.124	2.326	1.507	0.794	0.621	0.566	0.308	0.119	0.144	0.273	0.192	0.310	0.347	0.497	0.635	0.768	0.921	1.171	1.203	1.275	1.429	1.110	0.926	1.080	0.894	0.733	0.445	0.163	0.018	-0.299
370.0	1057	1168	762.6	429.0	296.5	241.0	227.0	241.9	262.5	292.4	319.1	343.9	330.3	286.3	224.2	153.7	105.1	94.56	94.20	88.20	123.8	197.0	158.6	66.87	44.37	35.09	35.65	123.1	591.8	1866	1974	198.5	11.90	0.444	0.034	-0.128	-0.326	-0.288	-0.331	-0.238	-0.133	0.064	0.531	0.957	1.647	2.250	2.335	2.106	1.579	1.019	0.596	0.541	0.418	0.170	0.190	0.108	0.066	0.051	0.080	0.126	0.224	0.295	0.434	0.513	0.710	0.656	0.774	0.701	0.735	0.536	0.546	0.390	0.298	0.087	-0.017	-0.232	-0.278
375.0	711.3	816.9	583.0	374.2	273.0	220.8	196.2	200.9	221.1	241.3	271.1	242.6	235.0	205.3	168.6	121.4	107.3	90.70	90.80	85.39	93.37	103.8	187.8	143.6	55.42	34.95	26.73	39.86	140.6	430.9	1249	2265	308.4	12.32	0.334	-0.069	-0.192	-0.260	-0.351	-0.350	-0.239	-0.085	-0.036	0.392	0.906	1.479	1.461	1.344	0.866	0.672	0.414	0.389	0.451	0.243	0.133	0.079	-0.187	-0.161	-0.207	-0.221	-0.138	0.070	0.156	0.087	0.116	0.216	0.182	0.234	0.284	0.066	0.238	0.052	0.011	-0.195	-0.255	-0.410	-0.513
380.0	521.1	604.7	484.2	334.3	258.8	208.1	179.4	174.8	183.8	205.6	224.7	223.5	180.8	161.0	133.2	119.6	100.6	87.48	85.65	82.67	84.38	82.05	123.1	193.2	87.23	37.77	25.50	23.36	40.92	104.1	321.5	1606	1986	236.9	3.621	0.287	0.039	-0.297	-0.358	-0.445	-0.423	-0.338	-0.127	0.229	0.530	0.881	0.876	0.773	0.727	0.402	0.354	0.272	0.236	0.194	-0.037	-0.071	-0.302	-0.323	-0.101	-0.302	-0.219	-0.078	-0.042	-0.112	-0.069	-0.013	-0.055	-0.068	0.020	-0.055	-0.140	-0.169	-0.206	-0.352	-0.374	-0.484	-0.586
385.0	391.8	484.3	394.1	303.2	254.6	197.7	159.6	152.9	158.2	176.2	185.5	194.6	175.5	158.2	131.9	109.2	90.94	82.60	81.44	79.56	81.42	72.42	74.44	153.9	149.9	55.31	25.58	19.64	19.36	30.38	79.26	454.2	1817	1666	39.33	1.446	0.144	-0.156	-0.163	-0.488	-0.297	-0.296	-0.261	-0.035	0.118	0.383	0.490	0.494	0.522	0.348	0.211	0.127	0.156	0.094	-0.034	-0.114	-0.224	-0.338	-0.278	-0.321	-0.306	-0.185	-0.174	-0.289	-0.142	-0.244	-0.243	-0.244	-0.172	-0.201	-0.206	-0.291	-0.284	-0.417	-0.541	-0.578	-0.698
390.0	275.5	366.0	316.9	266.3	232.4	186.8	153.9	138.8	136.2	142.4	151.4	158.3	150.3	134.3	113.9	96.86	83.47	78.21	77.19	75.47	76.57	68.25	67.32	81.48	136.2	114.3	42.12	20.18	15.13	15.25	24.05	106.8	510.8	1373	1461	160.5	10.81	0.226	-0.031	-0.393	-0.427	-0.426	-0.398	-0.260	-0.106	0.140	0.212	0.216	0.246	0.190	0.197	0.060	0.152	-0.042	0.003	-0.110	-0.259	-0.383	-0.411	-0.416	-0.415	-0.417	-0.369	-0.357	-0.346	-0.406	-0.397	-0.396	-0.388	-0.394	-0.419	-0.478	-0.499	-0.524	-0.346	-0.577	-0.774
395.0	182.9	257.0	247.1	226.5	212.4	179.1	137.6	125.0	115.8	116.1	120.5	127.1	120.8	107.4	95.65	84.86	76.52	72.38	74.02	70.18	71.47	65.37	62.25	62.83	67.09	119.0	96.72	31.33	14.98	12.45	11.98	28.77	118.4	315.9	935.9	1797	267.3	10.14	0.171	-0.170	-0.346	-0.354	-0.447	-0.330	-0.344	-0.113	-0.016	0.005	0.033	0.032	0.004	0.069	-0.047	-0.181	0.002	-0.179	-0.262	-0.476	-0.464	-0.328	-0.499	-0.581	-0.461	-0.504	-0.507	-0.541	-0.528	-0.457	-0.492	-0.573	-0.539	-0.517	-0.625	-0.638	-0.571	-0.469	-0.596
400.0	121.7	216.0	212.5	208.4	206.4	168.8	130.9	114.8	101.2	99.36	103.9	107.8	103.4	94.47	85.78	78.96	70.34	68.03	70.83	69.45	68.77	63.33	58.67	56.63	53.09	72.20	124.6	57.71	19.18	12.71	10.59	12.37	30.81	74.91	239.0	1257	1739	206.0	3.501	0.202	-0.191	-0.198	-0.488	-0.377	-0.414	-0.188	-0.205	-0.125	-0.177	0.022	-0.039	0.023	-0.065	-0.191	-0.048	-0.215	-0.271	-0.470	-0.428	-0.544	-0.539	-0.591	-0.565	-0.598	-0.543	-0.662	-0.713	-0.587	-0.588	-0.672	-0.521	-0.632	-0.692	-0.842	-0.737	-0.688	-0.528
405.0	101.1	179.6	193.1	192.0	195.7	161.3	130.8	111.9	99.11	90.55	91.89	94.07	93.05	86.29	78.86	72.18	67.33	66.78	66.23	65.94	66.72	61.49	58.21	54.01	48.42	51.25	90.82	103.0	38.75	15.02	10.20	9.122	12.14	20.45	57.43	348.5	1509	1350	35.75	1.030	0.019	-0.201	-0.454	-0.434	-0.429	-0.268	-0.246	-0.294	-0.176	-0.011	-0.038	0.026	-0.050	-0.115	-0.082	-0.317	-0.337	-0.533	-0.458	-0.555	-0.626	-0.633	-0.583	-0.620	-0.649	-0.646	-0.725	-0.673	-0.613	-0.641	-0.625	-0.684	-0.725	-0.790	-0.707	-0.743	-0.737
410.0	70.75	135.0	159.1	178.3	178.4	153.2	129.8	115.3	91.06	83.24	82.65	79.03	78.92	74.82	69.48	64.61	61.44	63.57	62.60	62.74	64.61	58.12	56.04	52.16	47.29	42.94	48.94	84.57	82.72	35.42	13.42	9.344	8.380	9.222	16.16	81.69	409.5	1034	1202	151.6	9.763	-0.027	-0.266	-0.321	-0.443	-0.330	-0.284	-0.241	-0.252	-0.136	-0.157	0.021	-0.125	-0.070	-0.153	-0.262	-0.365	-0.489	-0.486	-0.518	-0.608	-0.627	-0.652	-0.667	-0.704	-0.765	-0.742	-0.710	-0.772	-0.734	-0.779	-0.736	-0.765	-0.862	-0.813	-0.766	-0.815
415.0	66.52	111.0	140.6	157.4	164.4	148.7	132.9	118.3	92.29	76.98	66.16	68.87	66.88	63.75	64.09	59.55	56.99	60.15	61.14	60.27	60.57	56.06	54.40	51.65	46.53	42.07	38.76	49.10	78.31	75.77	28.65	10.78	7.609	7.148	7.292	21.10	93.91	233.8	660.4	1306	243.9	11.07	0.068	-0.235	-0.361	-0.390	-0.412	-0.362	-0.384	-0.212	-0.110	-0.039	-0.159	-0.145	-0.239	-0.298	-0.325	-0.325	-0.411	-0.565	-0.617	-0.642	-0.582	-0.792	-0.796	-0.793	-0.821	-0.747	-0.839	-0.806	-0.826	-0.781	-0.770	-0.856	-0.814	-0.836	-0.813
420.0	63.39	92.42	131.7	142.9	160.0	146.9	133.8	125.2	95.34	69.29	58.28	61.88	60.71	57.59	58.69	54.06	53.71	58.38	57.70	58.20	58.94	54.08	52.01	51.82	47.27	41.53	37.17	37.08	46.35	86.95	53.45	15.72	8.307	6.165	5.434	7.799	23.20	54.55	160.3	816.3	1288	203.0	4.242	-0.057	-0.081	-0.372	-0.333	-0.390	-0.369	-0.244	-0.136	-0.133	-0.142	-0.224	-0.180	-0.247	-0.395	-0.338	-0.423	-0.478	-0.505	-0.542	-0.638	-0.718	-0.775	-0.778	-0.818	-0.748	-0.925	-0.797	-0.799	-0.738	-0.863	-0.930	-0.814	-0.806	-0.852
425.0	67.59	76.84	114.6	138.1	147.6	154.3	135.9	121.9	96.76	67.83	56.40	54.20	55.45	54.26	52.01	52.76	51.89	54.85	55.62	56.35	57.38	52.95	51.19	52.24	46.55	41.54	37.55	34.50	35.58	58.97	77.09	33.09	10.01	6.303	5.064	5.250	7.571	13.96	38.18	214.0	993.9	1117	35.04	1.114	0.011	-0.204	-0.369	-0.277	-0.402	-0.240	-0.192	-0.300	-0.220	-0.164	-0.217	-0.253	-0.359	-0.410	-0.434	-0.464	-0.412	-0.610	-0.714	-0.766	-0.775	-0.808	-0.865	-0.753	-0.858	-0.872	-0.855	-0.855	-0.840	-0.869	-0.956	-0.854	-0.972
430.0	582.7	70.91	103.8	132.7	143.0	145.4	137.8	128.8	101.3	64.62	50.76	49.04	48.86	46.62	48.34	49.23	50.02	52.41	55.45	54.97	57.10	52.59	51.40	51.35	47.65	43.87	40.02	36.51	32.85	38.64	56.59	58.15	26.27	7.993	4.932	4.574	4.623	5.322	10.45	49.90	258.0	746.5	959.6	360.6	10.81	0.036	-0.221	-0.241	-0.280	-0.263	-0.227	-0.270	-0.262	-0.222	-0.176	-0.339	-0.271	-0.336	-0.401	-0.451	-0.488	-0.529	-0.697	-0.799	-0.807	-0.863	-0.865	-0.865	-0.875	-0.905	-0.952	-0.895	-0.879	-0.955	-0.965	-0.967	-0.940
435.0	1918	126.3	90.31	124.4	141.1	148.7	142.5	135.7	109.3	65.59	46.16	44.01	42.94	42.47	43.82	45.13	47.16	49.59	51.78	54.68	57.81	52.95	50.30	50.73	48.30	45.96	42.39	37.20	34.09	30.94	33.69	48.68	50.13	19.37	5.929	4.080	4.259	3.867	4.628	12.88	59.35	171.1	474.3	1197	241.7	14.43	0.150	-0.087	-0.264	-0.198	-0.147	-0.265	-0.199	-0.207	-0.238	-0.237	-0.305	-0.283	-0.289	-0.458	-0.520	-0.600	-0.717	-0.795	-0.807	-0.912	-0.845	-0.911	-0.916	-0.912	-0.921	-0.955	-0.923	-0.971	-1.025	-0.877	-0.961
440.0	2658	523.6	83.87	116.6	135.5	143.1	147.3	143.6	109.3	63.58	41.47	39.63	40.80	40.44	41.92	42.83	44.00	47.27	50.05	53.75	55.83	52.40	50.07	50.35	47.86	45.84	42.99	39.04	35.14	30.24	26.19	33.70	53.35	40.55	9.868	4.374	3.394	3.467	3.268	4.852	15.09	40.03	111.7	677.9	1204	211.5	6.233	0.159	-0.114	-0.174	-0.109	-0.223	-0.209	-0.225	-0.268	-0.147	-0.205	-0.253	-0.307	-0.476	-0.408	-0.649	-0.744	-0.815	-0.771	-0.885	-0.817	-0.977	-0.926	-0.969	-0.944	-0.906	-0.918	-0.867	-1.019	-0.831	-1.000
445.0	2252	1471	96.64	106.9	127.8	142.5	148.5	148.1	104.3	63.31	38.90	35.92	34.54	38.13	39.50	39.74	43.15	45.82	49.19	51.62	53.37	50.66	49.33	49.61	48.34	46.04	43.07	39.44	35.33	30.32	24.18	22.51	40.51	46.99	22.40	5.528	3.175	2.751	2.878	3.210	5.045	10.41	27.12	170.6	853.0	1172	145.6	2.483	0.002	-0.131	-0.124	-0.203	-0.208	-0.308	-0.248	-0.128	-0.197	-0.309	-0.319	-0.456	-0.407	-0.621	-0.670	-0.855	-0.748	-0.951	-0.878	-1.002	-0.842	-0.872	-0.993	-0.971	-0.959	-0.928	-1.033	-0.938	-0.981
450.0	979.5	2189	601.5	96.99	121.6	138.6	144.6	142.7	106.3	57.22	36.32	33.72	32.40	34.36	35.94	36.77	40.21	43.76	45.60	48.33	49.76	48.02	46.91	47.24	47.52	45.22	41.78	39.12	36.07	30.12	23.06	18.67	21.07	32.86	38.10	17.99	4.577	2.623	2.266	2.508	2.961	3.731	7.388	39.83	215.0	701.9	970.9	378.8	9.928	0.083	0.045	-0.131	-0.200	-0.235	-0.199	-0.175	-0.239	-0.375	-0.263	-0.387	-0.546	-0.542	-0.794	-0.840	-0.829	-0.960	-0.915	-0.939	-0.964	-0.931	-0.992	-1.015	-1.043	-1.005	-0.978	-0.995	-1.025
455.0	267.2	1475	1750	147.5	112.0	129.0	138.3	136.6	104.7	52.37	33.93	29.76	29.20	29.44	31.75	32.75	36.31	39.46	42.17	44.37	45.39	44.95	44.02	44.81	44.72	43.48	40.02	38.49	33.73	29.51	21.89	16.18	13.38	15.43	31.35	37.09	13.10	2.827	2.141	2.052	2.323	2.220	2.808	10.04	49.30	159.5	401.4	1054	208.5	12.75	0.241	-0.038	-0.055	-0.182	-0.140	-0.177	-0.184	-0.308	-0.314	-0.286	-0.505	-0.572	-0.823	-0.845	-0.920	-0.913	-0.918	-0.997	-0.975	-0.948	-1.005	-1.004	-1.033	-0.935	-0.977	-0.992	-0.968
460.0	87.71	748.8	2446	529.3	104.7	119.6	129.1	134.3	96.55	50.39	28.69	25.87	24.43	27.10	28.35	30.76	32.69	35.38	39.35	40.93	44.03	42.39	42.92	44.57	41.96	40.23	39.66	36.75	32.39	28.10	21.91	15.73	11.62	9.323	16.13	35.65	26.32	6.628	1.971	1.666	1.760	1.801	1.972	3.093	11.77	36.51	91.00	517.7	950.4	173.7	8.098	0.190	0.027	-0.038	-0.210	-0.273	-0.313	-0.265	-0.380	-0.289	-0.492	-0.532	-0.829	-0.765	-0.871	-0.885	-0.917	-1.059	-0.927	-0.912	-1.082	-1.083	-1.001	-1.024	-0.954	-1.023	-0.990
465.0	61.76	237.3	2069	1201	103.5	116.0	123.4	125.4	91.39	47.83	25.78	22.93	21.40	23.51	26.15	25.96	29.50	33.37	36.90	38.94	40.10	38.61	39.54	40.19	40.13	38.58	37.29	33.73	30.77	27.11	20.50	14.90	9.684	7.299	8.144	21.47	32.67	14.94	3.174	1.420	1.363	1.367	1.845	1.425	3.441	8.983	21.26	123.7	616.8	877.8	144.4	3.300	0.046	-0.043	-0.235	-0.258	-0.277	-0.454	-0.368	-0.452	-0.527	-0.636	-0.781	-0.833	-0.953	-0.882	-0.923	-0.965	-0.952	-1.003	-1.061	-1.019	-0.994	-1.052	-1.041	-1.015	-1.015
470.0	90.31	77.34	824.3	2033	440.8	106.0	111.3	107.4	80.39	41.62	22.14	18.69	19.68	19.98	22.27	23.97	26.46	29.78	32.07	34.36	36.00	34.74	34.91	35.87	35.41	34.09	33.50	30.72	28.39	24.33	18.76	13.15	8.816	6.502	4.903	8.875	20.54	24.99	11.49	2.308	1.204	1.080	1.264	1.230	1.466	2.461	5.285	28.17	151.0	480.4	770.4	318.6	11.31	0.102	-0.103	-0.129	-0.348	-0.354	-0.456	-0.480	-0.664	-0.686	-0.827	-0.875	-0.913	-0.916	-0.955	-0.999	-0.985	-1.049	-1.048	-0.998	-1.052	-1.030	-1.026	-1.083	-1.078
475.0	113.1	51.55	217.4	1316	1476	149.3	102.5	99.73	70.06	36.41	17.37	15.18	15.16	16.91	18.89	20.48	22.02	25.58	27.89	30.45	30.37	31.20	30.63	31.11	31.03	30.20	30.01	27.29	25.00	21.23	17.07	11.65	8.237	4.976	3.991	4.670	7.347	16.83	22.10	9.019	1.441	0.762	0.627	0.748	1.087	1.031	1.400	6.549	33.99	108.0	264.2	672.0	215.5	17.12	0.064	-0.229	-0.334	-0.453	-0.328	-0.441	-0.568	-0.662	-0.866	-0.891	-0.896	-0.887	-0.968	-1.034	-1.034	-1.080	-0.984	-1.051	-0.996	-1.066	-1.028	-1.113	-1.103
480.0	95.60	79.10	78.62	609.7	1979	421.0	92.98	94.74	64.98	33.40	15.29	13.08	13.78	15.58	15.41	17.13	19.69	23.08	25.24	26.05	29.10	27.75	27.32	28.50	28.77	28.00	26.92	24.92	22.96	19.43	15.31	10.94	7.792	4.618	3.472	3.006	3.210	8.167	20.56	16.58	4.350	0.800	0.649	0.663	0.582	0.805	0.741	1.502	7.792	24.42	60.97	273.0	735.7	206.7	10.44	0.129	-0.233	-0.394	-0.496	-0.468	-0.637	-0.758	-0.795	-0.955	-0.897	-0.956	-1.010	-1.007	-0.944	-0.996	-0.951	-1.070	-1.055	-1.040	-1.125	-1.112	-1.132
485.0	50.47	114.9	40.06	198.3	1631	996.6	94.60	86.71	61.54	30.10	14.01	13.14	13.51	13.32	14.32	16.49	19.16	21.84	22.45	23.32	26.10	24.82	25.50	25.85	26.14	25.99	24.90	23.51	20.87	17.99	14.11	10.31	6.810	4.718	3.155	2.559	2.085	3.716	11.55	20.04	10.05	1.758	0.480	0.484	0.340	0.534	0.674	0.403	1.751	5.679	14.03	65.21	401.3	767.6	168.1	5.136	-0.078	-0.381	-0.472	-0.492	-0.625	-0.718	-0.813	-0.855	-0.913	-1.071	-0.999	-1.020	-1.004	-1.006	-0.985	-1.109	-1.071	-1.127	-1.013	-1.108	-1.060
490.0	3.408	113.1	62.09	69.12	654.7	1598	332.6	76.66	54.89	24.72	12.06	9.807	11.30	11.32	12.78	14.06	16.49	17.91	20.51	20.34	22.79	21.86	22.44	22.78	22.79	23.20	22.38	20.70	18.22	16.25	12.61	9.174	6.131	4.015	2.770	2.063	1.600	1.851	4.315	12.28	15.85	7.756	1.466	0.265	0.178	0.232	0.445	0.502	0.431	1.298	3.284	14.74	93.74	348.8	615.7	354.6	15.74	0.144	-0.390	-0.521	-0.562	-0.722	-0.820	-0.861	-0.906	-0.994	-1.005	-1.011	-1.040	-1.044	-1.049	-1.112	-1.027	-1.113	-1.085	-1.137	-1.139
495.0	-24.86	66.87	113.6	44.94	181.0	1064	1151	102.3	48.16	21.77	10.56	7.186	8.475	9.443	9.987	11.94	12.63	14.21	17.74	17.66	20.39	18.61	18.92	20.19	20.24	20.80	19.02	18.04	15.54	13.93	11.22	7.954	5.259	3.746	2.505	1.892	1.371	1.075	1.880	4.032	10.61	14.59	6.145	0.743	0.132	0.092	0.082	0.321	0.429	0.281	0.665	3.170	21.06	77.98	195.3	663.5	614.8	22.25	-0.180	-0.395	-0.575	-0.717	-0.806	-0.908	-0.953	-1.043	-0.992	-1.074	-0.986	-1.059	-1.092	-1.117	-0.952	-1.119	-1.123	-1.201	-1.110
500.0	-33.35	6.530	137.4	55.69	67.20	400.6	1565	303.2	44.17	19.20	8.753	7.396	6.406	8.201	8.151	10.94	11.04	12.56	15.25	15.67	16.93	15.77	16.99	17.55	17.37	17.82	17.21	16.38	14.58	12.60	9.734	7.039	4.655	3.426	2.124	1.668	1.137	0.961	0.954	1.553	4.661	13.14	11.29	3.046	0.169	-0.086	-0.060	-0.018	0.395	0.375	0.208	0.538	4.699	17.52	44.50	251.8	854.9	234.0	14.53	-0.330	-0.544	-0.639	-0.836	-0.877	-0.970	-1.036	-1.040	-1.027	-0.994	-1.045	-1.071	-1.112	-1.057	-1.126	-1.166	-1.151	-1.181
505.0	-41.72	-14.05	109.8	86.52	40.00	145.4	1310	759.4	44.70	17.94	8.337	6.870	6.026	6.712	7.540	9.577	10.19	11.26	13.53	13.49	15.02	13.37	15.06	15.45	15.45	16.13	15.33	13.79	12.84	10.78	8.646	6.149	3.821	2.838	1.665	1.239	0.818	0.724	0.866	0.805	1.623	7.979	13.26	7.034	0.883	-0.107	-0.128	-0.236	0.181	0.491	0.158	-0.181	0.852	3.845	10.16	58.96	381.2	740.8	192.9	5.990	-0.516	-0.642	-0.819	-0.860	-0.931	-0.937	-0.990	-1.069	-1.027	-1.082	-1.094	-1.090	-1.119	-1.111	-1.081	-1.126	-1.198
510.0	-44.15	-24.62	47.40	117.2	46.51	59.70	538.1	1314	217.7	15.98	5.997	4.285	4.292	5.143	6.334	6.824	7.958	9.960	10.67	11.66	12.26	11.66	12.33	13.07	12.84	12.75	12.58	11.85	10.54	8.982	7.210	5.281	3.468	2.326	1.477	1.011	0.736	0.522	0.566	0.364	0.694	2.736	8.425	10.53	4.740	0.554	-0.173	-0.301	-0.153	0.030	0.391	0.011	-0.101	0.557	2.099	13.20	86.65	308.0	520.4	277.2	14.66	-0.264	-0.763	-0.837	-0.909	-1.014	-1.014	-1.023	-1.046	-1.045	-1.044	-1.084	-1.106	-1.119	-1.106	-1.116	-1.198
515.0	-56.64	-35.62	1.718	100.2	83.75	30.52	151.3	978.7	870.4	35.63	4.552	4.552	3.612	4.213	4.504	5.275	6.219	7.622	7.682	9.525	9.573	9.552	10.29	10.30	11.21	10.00	10.23	9.750	8.649	7.194	5.891	4.280	3.018	1.833	0.954	0.911	0.602	0.312	0.292	0.232	0.304	0.748	2.483	7.494	8.937	3.418	0.044	-0.383	-0.303	-0.254	0.073	0.355	-0.040	-0.174	0.199	2.837	19.20	68.71	152.2	494.3	244.0	21.79	-0.565	-0.852	-0.915	-0.982	-0.978	-1.033	-1.086	-1.064	-0.958	-1.168	-1.128	-1.118	-1.102	-1.091	-1.237
520.0	-52.63	-42.39	-14.72	58.39	116.7	29.75	57.30	394.9	1331	186.0	4.135	2.801	2.500	2.719	3.288	3.697	5.107	6.091	6.595	7.718	7.668	7.937	9.110	9.412	9.466	8.749	8.394	8.257	7.202	6.069	5.015	3.540	2.260	1.408	0.802	0.634	0.346	0.422	0.284	0.107	0.109	0.209	0.660	3.493	9.018	6.343	1.222	-0.425	-0.455	-0.352	-0.154	0.138	0.281	-0.222	-0.405	0.299	3.958	15.12	34.39	181.7	544.5	223.1	13.02	-0.681	-0.883	-0.928	-0.963	-1.026	-1.058	-1.102	-1.046	-1.147	-1.117	-1.160	-1.113	-1.130	-1.233
525.0	-58.19	-40.57	-18.67	18.71	131.0	47.16	31.52	137.2	1233	562.1	7.365	1.873	1.176	1.933	2.690	3.745	3.791	5.085	5.923	7.108	6.911	6.986	7.487	7.821	7.542	7.587	6.998	7.533	6.196	5.256	4.382	3.132	1.806	1.269	0.744	0.478	0.329	0.104	0.028	-0.017	-0.028	-0.026	0.004	1.081	5.574	8.254	3.632	0.028	-0.546	-0.418	-0.347	-0.280	0.253	0.038	-0.520	-0.343	0.531	3.122	7.543	42.14	250.6	528.2	173.8	5.172	-0.693	-0.906	-0.948	-0.953	-0.957	-1.056	-1.026	-1.103	-1.100	-1.130	-1.096	-1.160	-1.211
530.0	-63.55	-42.02	-22.02	-2.571	85.39	92.01	24.17	47.98	539.3	1167	147.2	1.512	0.672	1.110	1.663	2.562	2.935	4.108	4.437	5.390	5.464	5.886	5.928	6.405	5.997	6.319	5.883	5.589	5.136	4.096	3.488	2.180	1.309	0.895	0.418	0.286	0.147	-0.008	-0.166	-0.196	-0.178	-0.217	-0.203	0.073	1.758	5.657	6.571	2.253	-0.220	-0.393	-0.427	-0.477	-0.292	0.201	-0.051	-0.385	-0.306	0.325	1.377	9.087	58.49	212.8	383.7	218.7	13.84	-0.640	-0.912	-0.953	-1.007	-1.025	-1.074	-1.115	-1.150	-1.126	-1.180	-1.159	-1.221
535.0	-58.52	-47.28	-22.78	-10.81	30.90	123.4	38.82	26.96	141.4	968.3	709.8	12.04	0.284	0.608	1.365	1.235	1.996	2.567	3.193	3.757	4.411	4.564	4.377	4.817	4.716	4.820	4.506	4.267	4.096	3.029	2.555	1.759	0.962	0.518	0.014	0.054	-0.096	-0.194	-0.126	-0.313	-0.379	-0.331	-0.298	-0.298	0.083	1.716	5.196	4.928	1.458	-0.341	-0.462	-0.522	-0.577	-0.443	0.040	-0.083	-0.515	-0.441	-0.204	1.489	12.61	47.10	107.8	369.1	236.7	19.76	-0.696	-0.947	-1.033	-1.052	-1.027	-1.140	-1.172	-1.171	-1.190	-1.125	-1.192
540.0	-52.93	-44.26	-22.66	-13.43	5.737	104.4	72.66	21.45	46.55	423.4	1199	104.5	-0.147	-0.406	0.429	1.051	1.574	1.717	2.387	2.704	3.254	3.338	3.087	3.471	3.270	3.627	3.352	3.423	3.122	2.484	1.776	1.377	0.688	0.291	0.044	-0.060	-0.230	-0.247	-0.163	-0.391	-0.481	-0.302	-0.477	-0.460	-0.297	0.018	2.460	5.479	3.312	0.399	-0.441	-0.665	-0.601	-0.593	-0.367	0.207	-0.277	-0.636	-0.617	-0.216	2.329	10.03	23.99	130.5	388.7	205.5	11.96	-0.824	-0.989	-1.053	-1.104	-1.132	-1.141	-1.175	-1.162	-1.143	-1.173
545.0	-30.17	-36.19	-25.30	-12.50	-4.714	62.02	107.6	27.97	32.70	150.7	1174	361.8	1.196	-0.609	0.091	-0.123	0.525	1.379	1.512	1.984	2.681	2.328	2.588	2.698	2.785	2.673	2.580	2.572	2.097	1.882	1.354	1.023	0.557	0.234	0.013	0.031	-0.143	-0.283	-0.286	-0.490	-0.453	-0.437	-0.433	-0.425	-0.463	-0.452	0.555	3.556	4.547	1.647	-0.233	-0.722	-0.736	-0.634	-0.567	-0.238	0.072	-0.567	-0.730	-0.584	-0.068	1.883	4.925	29.95	167.4	391.9	150.2	4.104	-0.874	-0.949	-1.142	-1.035	-1.134	-1.132	-1.159	-1.143	-1.237
550.0	12.95	-9.241	-21.40	-13.58	-5.843	24.24	116.1	61.13	38.50	70.96	524.2	904.7	81.69	-1.109	-0.798	-0.499	0.107	0.161	0.942	1.456	1.901	1.651	1.958	1.796	1.873	2.091	1.738	1.932	1.672	1.285	0.784	0.450	0.438	0.146	0.127	0.000	-0.217	-0.366	-0.313	-0.363	-0.429	-0.420	-0.407	-0.369	-0.581	-0.537	-0.223	1.005	3.429	3.007	0.834	-0.517	-0.771	-0.753	-0.706	-0.561	-0.207	-0.097	-0.567	-0.628	-0.562	-0.120	0.630	6.257	38.49	148.7	280.9	139.2	13.63	-0.738	-1.047	-0.985	-1.107	-1.091	-1.183	-1.071	-1.261
555.0	59.72	9.307	-11.90	-12.11	-5.367	9.274	72.04	114.9	47.13	64.05	167.9	843.4	431.0	2.831	-1.118	-0.956	-0.535	0.017	-0.039	0.782	0.999	0.812	0.971	1.084	1.078	1.370	0.968	0.917	0.934	0.462	0.366	0.004	-0.020	0.024	0.035	-0.053	-0.209	-0.406	-0.423	-0.441	-0.496	-0.431	-0.502	-0.519	-0.437	-0.599	-0.461	-0.215	0.964	2.760	2.301	0.278	-0.659	-0.742	-0.748	-0.612	-0.634	-0.227	-0.029	-0.609	-0.739	-0.552	-0.330	1.016	8.088	32.75	73.99	228.3	210.4	19.58	-0.756	-1.029	-1.087	-1.119	-1.163	-1.041	-1.224
560.0	73.28	38.61	-10.96	-10.94	-8.260	3.785	43.54	136.1	68.71	68.03	90.12	413.1	837.9	45.15	-0.978	-0.957	-0.817	-0.457	-0.322	0.002	0.158	0.473	0.158	0.469	0.532	0.500	0.426	0.340	0.335	0.379	-0.009	-0.125	-0.169	0.074	-0.068	-0.068	-0.287	-0.398	-0.545	-0.418	-0.587	-0.445	-0.469	-0.461	-0.602	-0.580	-0.547	-0.560	-0.163	1.411	2.559	0.934	-0.536	-0.693	-0.809	-0.685	-0.718	-0.540	-0.074	-0.188	-0.710	-0.648	-0.587	-0.276	1.454	6.832	16.19	75.18	259.1	160.9	11.35	-0.993	-1.031	-1.052	-1.151	-1.154	-1.130
565.0	99.11	43.93	-7.038	-13.22	-9.969	2.567	28.00	127.0	103.4	77.14	78.93	164.7	918.4	161.0	-0.394	-1.029	-1.050	-0.857	-0.817	-0.502	-0.301	-0.138	0.058	0.178	0.249	0.291	0.092	0.092	-0.198	-0.393	-0.152	-0.297	-0.223	0.077	-0.046	-0.302	-0.276	-0.386	-0.482	-0.392	-0.625	-0.519	-0.527	-0.421	-0.542	-0.517	-0.621	-0.663	-0.558	0.204	1.644	1.465	-0.039	-0.709	-0.827	-0.706	-0.835	-0.682	-0.373	0.009	-0.376	-0.682	-0.541	-0.574	-0.178	1.100	3.205	16.87	99.04	247.5	109.1	3.253	-0.990	-1.047	-1.100	-1.179	-1.127
570.0	100.7	51.79	2.377	-10.53	-10.02	-0.022	17.57	79.34	143.8	88.05	83.05	83.96	448.4	603.7	40.73	-1.121	-1.551	-1.297	-1.114	-0.857	-0.667	-0.507	-0.432	-0.390	-0.237	-0.181	-0.228	-0.290	-0.347	-0.662	-0.593	-0.572	-0.310	-0.065	-0.116	-0.190	-0.271	-0.461	-0.492	-0.595	-0.612	-0.522	-0.509	-0.416	-0.599	-0.524	-0.546	-0.636	-0.593	-0.429	0.383	1.242	0.648	-0.284	-0.761	-0.824	-0.803	-0.789	-0.618	-0.323	-0.068	-0.381	-0.590	-0.551	-0.489	-0.174	0.203	3.249	22.39	89.61	172.4	97.59	12.48	-0.768	-1.058	-1.095	-1.152
575.0	98.42	65.80	4.455	-9.363	-9.994	-0.450	12.95	45.17	147.9	120.4	88.81	67.87	132.3	660.4	249.6	-0.148	-1.501	-1.603	-1.431	-1.186	-0.847	-1.033	-0.885	-0.644	-0.463	-0.440	-0.707	-0.503	-0.701	-0.801	-0.662	-0.781	-0.347	-0.067	-0.257	-0.136	-0.377	-0.517	-0.600	-0.612	-0.618	-0.596	-0.620	-0.449	-0.603	-0.629	-0.573	-0.726	-0.647	-0.565	-0.394	0.118	0.778	0.436	-0.523	-0.794	-0.833	-0.800	-0.820	-0.646	-0.293	-0.119	-0.433	-0.571	-0.677	-0.471	-0.455	0.133	4.319	19.38	46.80	130.3	132.2	15.62	-0.898	-1.100	-1.142
580.0	100.1	58.87	8.259	-12.08	-10.29	-1.544	13.94	35.56	116.4	146.4	88.10	64.40	52.62	352.2	548.3	15.49	-1.475	-1.679	-1.627	-1.436	-1.166	-1.053	-1.093	-0.985	-0.985	-0.877	-0.923	-0.708	-0.893	-0.749	-0.910	-0.883	-0.549	0.020	-0.145	-0.290	-0.509	-0.661	-0.706	-0.774	-0.712	-0.548	-0.530	-0.539	-0.555	-0.609	-0.604	-0.684	-0.640	-0.634	-0.603	-0.424	0.491	0.636	-0.018	-0.681	-0.857	-0.857	-0.869	-0.771	-0.562	-0.130	-0.022	-0.599	-0.510	-0.558	-0.589	-0.591	0.257	3.591	9.878	39.66	150.8	97.73	7.411	-1.019	-1.166
585.0	96.67	56.85	11.59	-11.59	-10.44	-1.521	11.29	33.37	84.11	167.0	98.20	67.16	34.80	123.8	667.1	93.17	-1.521	-1.762	-1.714	-1.559	-1.153	-0.763	-1.005	-1.114	-1.101	-0.919	-1.174	-0.953	-0.982	-1.116	-1.100	-1.015	-0.799	-0.275	0.211	-0.344	-0.482	-0.647	-0.762	-0.771	-0.766	-0.603	-0.749	-0.559	-0.625	-0.706	-0.675	-0.697	-0.681	-0.678	-0.616	-0.705	-0.128	0.543	0.355	-0.452	-0.692	-0.888	-0.859	-0.795	-0.727	-0.480	0.008	-0.321	-0.533	-0.650	-0.727	-0.662	-0.635	0.001	1.470	8.383	53.15	142.0	36.24	2.343	-1.128
590.0	77.36	51.16	12.07	-10.04	-10.32	-2.662	11.21	28.86	59.43	139.1	120.6	65.88	31.83	36.53	343.9	385.9	12.31	-1.737	-1.660	-1.609	-1.373	-1.209	-1.330	-1.198	-1.207	-1.218	-1.071	-1.051	-1.060	-1.059	-1.143	-1.087	-0.763	-0.549	-0.151	-0.218	-0.754	-0.711	-0.767	-0.816	-0.803	-0.655	-0.750	-0.663	-0.634	-0.639	-0.693	-0.742	-0.701	-0.674	-0.616	-0.792	-0.684	-0.071	0.287	-0.053	-0.636	-0.846	-0.883	-0.835	-0.808	-0.675	-0.463	-0.203	-0.284	-0.729	-0.715	-0.758	-0.795	-0.780	-0.453	1.115	11.47	47.83	88.24	65.83	11.73
595.0	60.02	28.22	6.916	-10.76	-9.212	-3.449	9.268	24.23	45.40	90.76	142.9	67.66	30.72	15.55	89.85	484.9	94.94	-1.322	-1.786	-1.565	-1.748	-1.356	-1.507	-1.380	-1.284	-1.393	-1.131	-1.247	-1.335	-1.331	-1.334	-1.131	-0.945	-0.675	-0.586	-0.306	-0.713	-0.795	-0.767	-0.846	-0.808	-0.771	-0.823	-0.773	-0.772	-0.747	-0.668	-0.719	-0.715	-0.747	-0.638	-0.840	-0.853	-0.681	-0.199	-0.028	-0.332	-0.727	-0.870	-0.749	-0.821	-0.844	-0.757	-0.540	-0.231	-0.506	-0.743	-0.815	-0.818	-0.926	-0.794	-0.569	1.630	9.817	22.99	74.07	90.81
600.0	30.25	27.39	2.132	-11.65	-9.246	-5.735	6.309	23.77	40.60	68.74	131.2	76.80	28.54	12.11	23.27	283.8	284.6	4.577	-1.635	-1.730	-1.478	-1.633	-1.476	-1.464	-1.506	-1.432	-1.290	-1.474	-1.389	-1.462	-1.403	-1.241	-1.015	-0.878	-0.779	-0.494	-0.692	-0.768	-0.871	-0.974	-0.884	-0.872	-0.954	-0.828	-0.813	-0.805	-0.735	-0.762	-0.726	-0.735	-0.659	-0.880	-0.859	-0.847	-0.569	-0.166	-0.158	-0.532	-0.854	-0.676	-0.799	-0.906	-0.838	-0.768	-0.444	-0.396	-0.669	-0.856	-0.885	-0.918	-0.944	-0.956	-0.475	1.380	4.327	24.02	94.15
605.0	16.98	15.56	-2.243	-11.29	-11.36	-4.495	7.752	21.74	39.60	56.47	105.4	90.75	27.65	10.78	7.408	102.5	398.4	43.07	-1.446	-1.706	-1.646	-1.694	-1.569	-1.478	-1.480	-1.375	-1.446	-1.464	-1.328	-1.435	-1.491	-1.268	-1.065	-1.006	-0.832	-0.719	-0.628	-0.695	-0.912	-0.974	-0.868	-0.889	-0.854	-0.819	-0.854	-0.847	-0.747	-0.834	-0.735	-0.771	-0.711	-0.859	-0.859	-0.912	-0.811	-0.387	-0.248	-0.305	-0.791	-0.827	-0.770	-0.919	-0.823	-0.728	-0.667	-0.403	-0.422	-0.801	-0.874	-1.028	-1.018	-1.051	-0.959	-0.607	0.097	4.652	29.29
610.0	4.192	3.727	-3.490	-13.13	-11.05	-4.505	5.789	19.43	32.82	47.18	70.60	101.4	32.63	9.874	3.907	26.02	243.3	206.2	4.912	-1.797	-1.728	-1.713	-1.702	-1.496	-1.599	-1.492	-1.443	-1.517	-1.433	-1.492	-1.399	-1.312	-1.213	-1.119	-0.925	-0.885	-0.817	-0.715	-0.879	-0.994	-1.031	-0.950	-0.994	-0.901	-0.948	-0.864	-0.743	-0.862	-0.782	-0.767	-0.735	-0.863	-0.874	-0.922	-0.873	-0.745	-0.366	-0.404	-0.660	-0.805	-0.855	-0.846	-0.818	-0.775	-0.797	-0.692	-0.513	-0.636	-0.935	-1.059	-1.068	-1.106	-1.062	-0.953	-0.879	0.163	5.836
615.0	-12.85	-9.779	-4.156	-14.57	-12.81	-5.245	2.257	13.53	27.64	36.37	49.99	83.24	49.03	9.316	2.882	6.374	67.01	304.8	63.78	-1.672	-1.883	-1.710	-1.787	-1.582	-1.660	-1.602	-1.587	-1.582	-1.501	-1.602	-1.464	-1.372	-1.272	-1.132	-1.046	-0.873	-0.956	-0.922	-0.825	-0.926	-1.021	-1.022	-1.057	-0.967	-0.914	-0.839	-0.749	-0.812	-0.835	-0.788	-0.740	-0.884	-0.850	-0.895	-0.894	-0.848	-0.765	-0.609	-0.578	-0.628	-0.847	-0.835	-0.888	-0.773	-0.830	-0.870	-0.826	-0.684	-0.757	-1.036	-1.081	-1.126	-1.126	-1.079	-1.132	-0.851	0.347
620.0	-15.12	-13.16	-12.75	-16.25	-11.24	-5.338	0.992	13.16	23.96	33.64	43.24	59.05	63.95	11.94	2.750	1.820	16.52	206.0	201.3	0.507	-1.615	-1.725	-1.780	-1.621	-1.741	-1.612	-1.501	-1.656	-1.506	-1.582	-1.476	-1.443	-1.271	-1.182	-1.039	-0.910	-1.059	-0.979	-0.795	-0.952	-1.033	-1.085	-1.086	-0.984	-0.973	-0.831	-0.754	-0.908	-0.842	-0.807	-0.746	-0.935	-0.898	-0.927	-0.928	-0.896	-0.954	-0.762	-0.443	-0.526	-0.748	-0.945	-0.924	-0.876	-0.851	-0.871	-0.933	-0.791	-0.765	-0.876	-1.052	-1.070	-1.150	-1.147	-1.145	-1.105	-0.840
625.0	-20.84	-8.304	-10.83	-14.99	-13.73	-7.127	1.391	8.661	21.53	31.61	38.85	44.98	68.45	20.44	3.670	2.253	4.576	84.64	327.0	21.91	-1.517	-1.845	-1.855	-1.702	-1.709	-1.674	-1.543	-1.620	-1.514	-1.588	-1.507	-1.514	-1.283	-1.272	-1.038	-0.969	-1.041	-1.073	-0.955	-0.968	-1.066	-1.014	-1.058	-1.005	-0.983	-0.881	-0.835	-0.903	-0.904	-0.799	-0.717	-0.939	-0.911	-0.962	-0.879	-0.911	-0.909	-0.855	-0.695	-0.510	-0.786	-0.875	-0.953	-0.946	-0.919	-0.857	-0.910	-0.866	-0.839	-0.802	-1.025	-1.133	-1.196	-1.198	-1.187	-1.207	-1.167
630.0	2.009	7.949	-9.473	-12.51	-11.55	-5.260	0.901	10.64	20.67	30.89	38.23	39.49	56.13	39.55	7.336	3.616	1.942	20.80	229.9	139.5	0.984	-1.734	-1.699	-1.622	-1.649	-1.586	-1.620	-1.652	-1.518	-1.599	-1.459	-1.498	-1.334	-1.228	-1.124	-0.955	-1.113	-1.168	-1.058	-1.021	-0.999	-1.038	-1.125	-1.004	-0.881	-0.923	-0.871	-0.885	-0.856	-0.806	-0.750	-0.928	-0.900	-0.921	-0.929	-0.936	-0.985	-0.933	-0.858	-0.709	-0.755	-0.775	-0.928	-0.874	-0.942	-0.965	-1.024	-0.953	-0.988	-0.867	-0.845	-1.012	-1.121	-1.151	-1.132	-1.177	-1.204
635.0	60.77	60.73	3.407	-10.02	-9.023	-2.897	4.575	17.30	27.28	37.71	48.47	50.01	50.22	60.94	21.94	8.428	3.993	5.596	68.73	262.9	38.41	-1.431	-1.613	-1.708	-1.668	-1.685	-1.723	-1.611	-1.690	-1.673	-1.644	-1.533	-1.310	-1.220	-1.172	-1.129	-1.148	-1.164	-1.103	-1.058	-0.897	-0.913	-0.971	-0.882	-0.773	-0.806	-0.664	-0.773	-0.819	-0.739	-0.784	-0.966	-0.935	-0.878	-0.939	-0.929	-0.989	-0.998	-0.928	-0.802	-0.783	-0.674	-0.858	-0.835	-0.814	-0.834	-1.002	-0.993	-0.905	-0.891	-0.916	-0.936	-0.999	-1.057	-1.108	-1.061	-1.273
640.0	129.9	123.9	38.31	-4.266	-6.684	1.026	9.706	22.75	36.55	52.74	63.04	63.95	59.59	70.80	38.92	13.61	6.748	4.731	18.29	202.1	129.8	-0.416	-1.680	-1.677	-1.758	-1.680	-1.686	-1.601	-1.697	-1.713	-1.652	-1.510	-1.456	-1.299	-1.134	-1.033	-1.158	-1.205	-1.123	-1.029	-0.912	-0.835	-0.858	-0.718	-0.665	-0.532	-0.329	-0.649	-0.741	-0.684	-0.720	-0.923	-0.921	-0.877	-0.876	-0.853	-0.986	-0.913	-0.927	-0.820	-0.787	-0.700	-0.734	-0.736	-0.798	-0.785	-0.825	-0.929	-0.927	-0.880	-0.844	-0.828	-0.891	-0.999	-1.106	-1.116	-1.251
645.0	165.0	171.3	60.10	4.804	-4.565	4.593	10.37	24.29	42.98	56.54	71.28	72.91	70.52	69.97	55.08	19.73	9.536	5.460	6.816	79.12	235.0	11.32	-1.655	-1.697	-1.664	-1.415	-1.648	-1.684	-1.642	-1.622	-1.489	-1.513	-1.407	-1.311	-1.231	-1.154	-1.135	-1.160	-1.122	-1.051	-0.906	-0.900	-0.744	-0.698	-0.535	-0.441	-0.386	-0.472	-0.618	-0.641	-0.698	-0.877	-0.914	-0.883	-0.885	-0.893	-0.977	-0.957	-0.888	-0.920	-0.773	-0.636	-0.709	-0.719	-0.788	-0.814	-0.788	-0.841	-0.880	-0.898	-0.850	-0.813	-0.638	-0.896	-1.093	-1.011	-1.218
650.0	191.5	175.2	70.86	7.280	-0.740	2.178	12.65	25.52	39.30	59.31	70.91	74.42	69.70	64.60	65.13	25.14	10.95	6.164	3.892	25.10	244.5	58.04	-1.481	-1.604	-1.504	-1.672	-1.690	-1.708	-1.675	-1.718	-1.614	-1.490	-1.429	-1.295	-1.261	-1.140	-1.233	-1.205	-1.057	-1.153	-0.979	-0.927	-0.752	-0.703	-0.499	-0.421	-0.313	-0.471	-0.639	-0.671	-0.715	-0.897	-0.902	-0.952	-0.895	-0.946	-1.008	-0.868	-0.920	-0.922	-0.823	-0.745	-0.685	-0.667	-0.798	-0.741	-0.720	-0.740	-0.858	-0.734	-0.778	-0.818	-0.850	-0.759	-1.023	-1.130	-1.155
