Sample:	'1
File name:	Default_20230506_105629.FD3
Run date:	'10:50:08, 05/06/2023
Operator:	user
Comment:	'

Instrument
Model:	F-2700 FL Spectrophotometer
Serial number:	2190-003
ROM Version:	4J14000 07

Instrument parameters
Measurement type:	3-D scan
Data mode:	Fluorescence
EX  Start WL:	220.0 nm
EX  End WL:	600.0 nm
EX Sampling interval:	5.0 nm
EM  Start WL:	230.0 nm
EM  End WL:	650.0 nm
EM Sampling interval:	5.0 nm
Scan speed:	12000 nm/min
EX Slit:	5.0 nm
EM Slit:	5.0 nm
PMT Voltage:	700 V
Response:	Auto 
Corrected spectra:	Off
Contour interval:	50.000

Peak integration
Integration method:	Rectangular
Sensitivity:	1
Threshold:	1.000

Peaks
No.	ApexEX/EM(nm)	Height(Data)
1	225.0/525.0	60.17
2	225.0/545.0	57.16
3	225.0/565.0	54.27
4	225.0/600.0	52.97
5	225.0/625.0	52.91
6	230.0/495.0	86.12
7	230.0/535.0	59.34
8	230.0/580.0	52.35
9	230.0/640.0	52.85
10	235.0/505.0	88.56
11	235.0/560.0	44.45
12	235.0/635.0	46.07
13	240.0/525.0	97.49
14	245.0/265.0	226.1
15	245.0/530.0	92.45
16	250.0/270.0	264.1
17	250.0/365.0	 4989
18	250.0/545.0	89.16
19	250.0/580.0	28.25
20	250.0/605.0	28.25
21	255.0/280.0	369.8
22	255.0/555.0	86.02
23	255.0/620.0	22.80
24	260.0/285.0	520.1
25	260.0/565.0	80.79
26	265.0/290.0	531.7
27	265.0/580.0	96.75
28	270.0/245.0	16.80
29	270.0/295.0	765.5
30	270.0/590.0	86.98
31	275.0/305.0	833.0
32	275.0/600.0	86.74
33	280.0/310.0	760.2
34	280.0/615.0	69.18
35	285.0/250.0	10.84
36	285.0/315.0	683.9
37	285.0/625.0	53.82
38	290.0/320.0	647.7
39	290.0/640.0	47.81
40	295.0/325.0	501.9
41	305.0/340.0	500.7
42	310.0/345.0	468.4
43	315.0/525.0	15.03
44	320.0/355.0	314.9
45	320.0/635.0	200.3
46	325.0/365.0	288.7
47	330.0/370.0	224.6
48	335.0/375.0	218.6
49	340.0/385.0	212.9
50	345.0/390.0	177.7
51	345.0/440.0	51.62
52	350.0/395.0	172.7
53	355.0/405.0	168.7
54	360.0/410.0	139.9
55	365.0/415.0	132.3
56	370.0/425.0	120.5
57	375.0/430.0	99.36
58	380.0/435.0	92.15
59	385.0/255.0	2.820
60	385.0/445.0	84.92
61	390.0/450.0	68.42
62	395.0/455.0	64.43
63	400.0/465.0	53.89
64	405.0/470.0	41.29
65	410.0/475.0	34.48
66	415.0/485.0	32.29
67	420.0/490.0	25.97
68	425.0/495.0	23.81
69	430.0/505.0	20.46
70	435.0/510.0	17.04
71	440.0/515.0	15.49
72	445.0/525.0	14.63
73	450.0/530.0	11.51
74	455.0/535.0	9.798
75	460.0/545.0	8.575
76	475.0/565.0	4.535
77	485.0/580.0	3.039
78	495.0/365.0	17.63
79	495.0/595.0	2.645
80	505.0/275.0	2.708
81	510.0/280.0	2.772
82	515.0/285.0	3.038
83	530.0/290.0	3.114
84	540.0/300.0	4.135
85	550.0/305.0	4.098
86	560.0/310.0	3.345
87	570.0/315.0	3.621
88	575.0/320.0	3.327
89	580.0/325.0	3.485
90	590.0/330.0	3.119

Data points
	220.0	225.0	230.0	235.0	240.0	245.0	250.0	255.0	260.0	265.0	270.0	275.0	280.0	285.0	290.0	295.0	300.0	305.0	310.0	315.0	320.0	325.0	330.0	335.0	340.0	345.0	350.0	355.0	360.0	365.0	370.0	375.0	380.0	385.0	390.0	395.0	400.0	405.0	410.0	415.0	420.0	425.0	430.0	435.0	440.0	445.0	450.0	455.0	460.0	465.0	470.0	475.0	480.0	485.0	490.0	495.0	500.0	505.0	510.0	515.0	520.0	525.0	530.0	535.0	540.0	545.0	550.0	555.0	560.0	565.0	570.0	575.0	580.0	585.0	590.0	595.0	600.0
230.0	52.06	174.2	 1483	 1280	116.7	23.83	19.65	18.99	16.98	14.61	10.66	10.69	8.440	8.644	6.943	6.755	5.723	4.259	4.550	3.369	3.327	3.207	2.580	2.476	2.447	2.418	2.465	2.134	2.405	2.021	2.087	2.098	1.930	1.701	1.968	1.637	1.865	1.709	1.796	1.537	1.302	1.607	1.270	1.415	1.552	1.380	1.350	2.707	4.935	4.337	2.384	1.111	1.217	0.885	1.080	1.051	1.144	1.033	1.065	0.972	1.028	1.028	1.016	0.933	1.028	1.200	0.993	1.090	1.104	1.068	1.068	0.903	0.951	0.926	1.116	1.066	1.089
235.0	64.56	71.51	550.2	 1829	 1418	125.9	18.33	20.34	18.48	14.95	12.50	11.38	8.617	6.370	7.326	6.667	5.590	5.024	3.806	3.934	3.147	4.099	2.527	2.378	2.261	2.569	2.684	2.240	1.827	2.081	2.515	2.223	1.539	1.737	2.165	1.673	1.679	1.771	1.908	1.218	1.391	1.477	1.611	1.013	1.476	1.389	0.888	1.355	2.151	3.800	4.859	4.962	2.896	1.044	1.318	1.188	0.954	0.891	1.110	0.875	1.260	1.085	1.147	1.011	1.032	1.153	0.894	0.892	1.177	1.129	1.167	0.979	1.328	0.970	1.091	1.159	1.270
240.0	52.51	66.61	166.1	882.5	 2411	 1119	75.52	22.88	15.09	13.74	13.67	13.46	7.689	7.641	6.823	5.097	5.451	5.225	3.478	3.371	3.748	3.383	3.182	2.877	2.410	2.256	2.248	2.148	2.432	2.138	2.120	2.241	1.671	1.691	1.849	1.672	1.704	1.490	1.536	1.357	1.389	1.663	1.360	1.381	1.053	1.563	1.325	1.343	1.174	1.774	2.871	5.676	6.801	5.406	2.225	1.496	1.035	1.078	1.491	1.121	0.903	1.014	1.103	0.961	0.933	1.455	1.130	1.215	1.064	1.212	1.260	1.156	1.123	1.251	0.772	0.976	1.089
245.0	50.17	69.79	80.37	247.3	 1393	 2384	875.8	46.95	16.53	13.11	16.80	12.99	7.324	10.40	6.892	4.621	5.965	4.507	3.977	4.145	2.932	3.416	3.478	2.290	2.818	2.323	2.538	2.387	2.365	2.883	2.135	2.233	2.084	2.008	1.630	1.545	1.570	1.269	1.388	1.546	1.685	1.440	1.604	1.485	1.434	1.698	1.018	1.574	1.327	1.209	1.421	2.416	4.569	7.585	8.624	4.679	1.676	0.924	1.089	1.193	0.824	1.161	1.048	1.080	0.830	1.090	1.218	1.170	1.084	0.912	0.989	0.939	0.905	1.299	1.003	1.178	1.000
250.0	51.60	68.35	94.95	130.5	372.7	 1272	 2428	 1686	255.5	17.24	14.01	14.00	9.264	10.84	7.815	5.240	5.384	5.151	4.317	3.516	3.773	3.283	3.076	2.501	3.072	2.354	2.467	2.284	2.244	2.476	1.763	2.349	1.541	1.877	1.700	1.666	1.841	1.651	1.615	1.779	1.755	1.301	1.572	1.258	1.424	1.302	1.132	1.328	1.304	1.104	1.210	1.417	1.901	3.202	5.380	7.202	7.624	5.759	3.480	1.515	0.992	1.098	1.078	1.064	0.923	1.211	1.233	1.150	1.180	1.271	0.961	0.911	1.035	1.239	0.792	1.016	0.910
255.0	45.16	50.14	69.97	134.4	187.9	312.0	892.8	 3061	 1472	262.9	14.75	12.78	7.434	10.03	9.051	6.790	7.079	4.758	4.463	3.120	3.453	3.478	2.938	2.789	2.039	2.561	2.804	1.951	2.316	2.307	1.793	2.410	1.738	2.820	1.638	1.760	1.489	1.451	1.665	1.534	1.392	1.286	1.739	1.152	1.428	1.391	1.348	0.945	1.375	0.900	1.152	1.515	1.293	1.720	2.082	2.423	3.339	6.481	9.957	8.454	4.169	1.232	0.997	1.067	1.168	1.232	1.117	0.969	0.940	1.075	0.764	1.204	0.950	0.948	0.751	0.926	1.137
260.0	50.04	36.96	50.77	82.27	186.4	152.3	235.3	 1417	 3805	 1262	113.4	13.54	13.43	8.984	8.683	7.034	5.929	4.839	4.957	3.914	3.261	3.531	2.846	2.678	2.207	2.215	3.112	2.452	2.766	1.985	2.310	1.724	1.874	2.018	1.637	1.425	1.370	1.572	1.011	1.148	1.424	1.220	1.602	1.348	1.340	1.354	1.309	1.506	1.101	0.930	0.959	1.603	2.088	1.488	1.367	1.141	1.720	2.729	5.278	9.168	10.71	7.284	2.781	1.150	1.039	0.938	1.245	1.251	0.904	1.199	0.968	0.959	0.832	1.138	0.944	1.093	1.266
265.0	48.57	46.25	48.21	49.25	140.6	226.1	110.1	373.7	 2032	 4073	974.5	43.07	13.23	8.524	9.813	6.892	6.571	5.956	4.587	4.409	3.618	3.769	2.749	2.109	2.632	2.629	2.152	2.439	2.026	1.892	2.377	2.353	2.010	1.762	1.766	1.833	1.551	1.646	1.460	1.328	1.589	1.389	1.546	1.523	0.956	1.310	0.815	1.284	1.194	0.772	0.749	1.157	1.822	1.842	1.682	1.197	1.291	1.551	2.231	3.529	6.747	10.81	11.32	5.978	1.451	1.013	0.871	1.169	0.812	1.024	0.904	0.987	0.904	0.915	1.178	1.010	1.127
270.0	49.95	49.66	40.27	39.30	65.53	181.1	264.1	165.8	516.2	 1828	 3147	 2029	236.1	12.03	9.443	7.362	6.469	5.774	5.746	4.267	3.952	3.057	2.872	2.675	3.295	2.814	2.024	2.866	2.034	1.899	2.300	1.817	1.924	1.631	1.489	1.813	1.662	1.618	1.397	1.355	1.350	1.388	1.533	1.252	1.406	1.195	1.044	1.113	1.023	1.085	0.760	1.179	1.117	1.363	1.737	2.154	1.791	1.589	1.377	1.693	2.493	4.184	6.829	9.036	9.756	8.189	3.992	1.548	1.092	1.000	1.020	0.966	1.087	1.008	1.042	1.121	1.079
275.0	49.23	48.14	49.07	36.37	42.15	72.05	226.6	365.6	197.3	440.8	 1015	 3174	 2836	232.2	9.887	9.609	7.220	5.382	5.499	3.534	3.768	2.975	3.309	2.422	2.635	3.426	2.341	2.203	1.894	2.259	2.063	2.392	1.998	2.289	1.281	1.826	1.663	1.356	1.319	1.781	1.293	1.085	1.480	1.442	1.458	1.342	1.154	1.253	1.028	1.039	0.943	1.021	0.926	1.240	1.351	1.628	2.108	2.708	2.215	1.396	1.582	1.832	2.497	3.269	4.114	8.469	13.43	11.30	3.999	1.036	0.965	0.918	1.381	1.211	0.935	0.795	0.817
280.0	56.57	46.97	52.97	44.14	36.24	44.34	98.75	369.8	355.0	150.7	282.6	 1218	 3878	 2160	96.01	9.424	7.052	5.920	5.343	3.698	4.033	2.958	3.698	3.339	2.898	3.282	2.376	2.521	2.081	1.754	1.788	2.030	1.618	2.209	1.539	1.527	1.926	1.302	1.407	1.762	1.451	1.537	1.510	1.763	1.244	1.081	1.245	1.067	1.087	0.857	0.871	1.100	1.229	1.170	1.153	1.048	1.561	2.248	2.772	2.585	1.844	1.386	1.677	1.670	2.112	2.994	6.554	13.27	14.43	8.162	2.091	1.143	1.217	1.056	1.114	0.906	0.858
285.0	64.64	66.65	62.74	44.85	32.34	36.43	45.98	189.6	520.1	261.4	135.4	363.9	 1679	 4055	643.1	33.97	8.434	6.594	4.885	3.773	4.188	3.611	3.821	2.836	3.462	2.446	2.048	2.107	1.882	2.435	2.036	2.190	2.112	1.848	1.694	1.709	1.612	1.280	1.118	1.733	1.572	1.335	1.231	1.669	1.636	1.470	1.019	0.837	1.074	0.888	1.037	1.066	0.825	1.097	1.318	0.967	1.165	1.396	2.044	3.038	2.819	2.160	1.611	1.213	1.663	1.734	2.490	4.971	10.16	14.95	13.07	4.796	1.441	1.388	1.090	1.078	1.020
290.0	74.42	68.66	72.71	57.89	34.79	35.86	42.58	87.27	282.0	531.7	355.8	225.2	516.7	 1644	 2951	 1937	161.8	8.765	5.620	3.986	4.318	3.668	3.814	2.714	2.835	2.546	2.349	2.381	2.762	2.189	2.273	1.950	2.179	1.820	1.802	1.652	1.756	1.598	1.431	1.681	1.537	1.428	1.458	1.496	1.359	1.326	1.140	1.475	1.304	1.017	1.060	1.205	1.040	1.193	1.145	0.974	1.372	1.411	1.367	1.790	2.415	2.990	3.114	2.377	1.710	1.536	1.820	2.425	3.433	5.655	8.334	10.94	10.11	7.852	3.657	1.476	1.022
295.0	76.55	80.26	85.92	68.51	44.52	47.01	48.50	69.35	130.5	308.2	765.5	417.4	290.5	481.4	883.7	 3143	 2538	171.3	7.927	5.204	4.787	3.077	3.480	3.158	3.188	2.530	2.570	2.235	2.300	1.767	2.431	2.124	2.205	1.855	2.082	1.989	1.620	1.861	1.902	1.457	1.390	1.456	1.538	1.539	1.412	1.375	1.339	1.461	1.278	1.226	1.244	1.204	1.138	1.297	1.317	1.081	1.318	1.243	1.361	1.481	1.601	2.089	2.744	3.829	3.989	1.758	1.738	1.888	2.270	2.558	2.765	3.740	4.480	10.47	15.40	10.89	3.582
300.0	84.41	77.58	94.76	73.11	46.27	46.48	57.19	70.28	103.8	207.0	594.7	805.3	337.9	246.4	264.0	 1118	 3476	 1822	77.40	5.736	4.888	4.998	4.709	3.023	2.951	2.720	2.331	2.483	2.566	2.557	2.208	2.003	2.299	1.854	1.878	1.946	1.477	1.913	1.612	1.460	1.516	1.498	1.553	1.100	1.324	1.669	1.378	1.414	1.866	1.116	1.252	1.113	0.900	1.440	1.280	1.281	1.199	1.246	1.249	1.307	1.405	2.097	2.170	2.402	4.135	4.012	3.181	1.942	1.955	2.081	1.576	1.790	1.740	3.421	8.180	13.95	15.12
305.0	79.00	72.79	109.2	79.96	60.29	52.37	57.69	74.05	112.2	179.0	344.5	833.0	665.5	225.5	126.2	296.0	 1492	 3506	401.1	27.35	6.024	4.775	4.020	3.495	3.024	2.834	3.015	2.426	2.643	2.335	2.444	1.841	2.226	1.824	1.902	1.642	1.404	1.649	1.286	1.187	1.558	1.396	1.374	1.571	1.483	1.430	1.175	1.185	1.263	1.088	1.067	1.216	1.214	1.010	1.100	1.667	1.171	1.163	1.090	1.357	1.435	1.561	1.505	1.889	2.577	3.564	4.098	3.300	2.131	1.848	1.706	1.267	1.361	1.908	2.831	4.803	11.14
310.0	67.96	96.58	113.3	81.45	56.98	62.10	69.28	79.27	121.4	162.4	250.5	457.7	760.2	537.8	139.2	111.1	377.2	 1408	 2362	 1377	117.4	6.187	4.318	3.351	2.999	2.818	2.614	2.452	2.643	2.122	2.315	2.378	2.096	2.014	1.783	1.834	1.676	1.533	1.567	1.198	1.669	1.606	1.404	1.471	1.459	1.317	1.103	1.337	1.265	1.222	1.087	1.148	1.172	1.594	0.973	1.247	1.277	1.345	1.290	1.381	1.520	1.781	1.610	1.632	2.004	2.192	2.983	3.196	3.345	2.897	1.975	1.501	1.135	1.329	1.684	1.738	3.468
315.0	79.04	95.59	115.7	94.99	86.32	98.68	96.80	123.9	142.3	177.1	226.1	300.7	390.8	683.9	430.2	90.50	121.8	347.3	700.8	 2386	 2052	134.4	5.459	3.849	3.248	2.739	3.128	3.431	2.651	2.294	2.465	2.325	1.742	1.994	1.618	1.586	1.806	1.497	1.591	1.482	1.411	1.584	1.503	1.751	1.590	1.136	1.096	1.235	1.131	1.125	1.207	1.183	1.311	1.952	1.226	1.516	1.376	1.403	1.659	1.558	1.814	1.730	1.763	1.418	1.826	1.584	1.865	2.010	2.219	3.007	3.621	2.465	1.178	1.759	1.342	1.536	1.704
320.0	77.14	103.1	154.1	131.6	167.5	182.8	179.1	201.3	207.0	230.5	240.1	256.3	275.7	418.9	647.7	235.3	74.74	115.0	186.5	887.1	 2980	 1393	60.45	4.862	3.301	3.291	3.225	2.757	2.980	2.888	2.295	2.413	1.997	2.022	1.757	1.691	1.745	1.702	1.490	1.726	1.272	1.499	1.419	1.601	1.618	1.468	1.155	1.362	1.112	1.266	1.194	1.379	1.507	1.854	1.454	1.592	1.981	1.601	1.708	1.998	1.662	1.618	1.576	1.907	1.704	1.751	1.930	1.629	1.783	2.118	3.036	3.327	2.877	1.840	1.601	1.232	1.207
325.0	106.4	148.2	201.8	261.3	313.9	391.5	399.3	386.5	354.1	322.5	284.0	263.9	255.3	267.7	486.7	501.9	126.8	68.98	72.94	230.5	 1312	 2706	291.0	22.76	4.594	3.941	3.357	3.198	2.865	3.088	2.370	2.443	1.795	2.114	1.621	1.688	1.518	1.770	1.737	1.506	1.651	1.482	1.807	1.437	1.326	1.415	1.485	1.436	1.548	1.467	1.257	1.764	2.334	2.460	2.442	2.406	2.778	2.232	2.348	2.302	1.810	2.193	2.224	1.884	1.708	1.788	2.028	1.687	2.016	1.624	2.020	2.378	3.485	2.806	2.150	1.464	1.339
330.0	151.0	236.0	392.8	591.2	792.8	934.7	 1007	918.2	768.9	622.8	438.9	306.5	271.0	241.0	272.6	445.0	414.2	142.2	70.94	91.12	335.3	 1131	 1799	 1038	90.59	4.969	3.385	3.417	3.492	2.916	2.527	2.402	2.291	2.097	1.803	1.744	1.449	1.865	1.804	1.575	1.564	1.529	1.877	1.504	1.495	1.860	1.640	2.094	2.163	1.876	2.209	2.995	3.845	4.156	4.190	4.577	4.374	3.925	4.142	3.410	3.381	3.142	2.943	2.404	2.166	1.950	1.801	1.580	2.061	1.713	1.612	1.566	2.059	2.646	3.119	2.453	1.750
335.0	214.8	362.8	668.5	 1091	 1539	 1790	 1928	 1739	 1426	 1098	702.6	376.1	309.6	267.3	242.7	254.2	418.3	426.6	135.1	76.23	113.0	275.7	573.4	 2006	 1522	111.6	4.510	3.361	4.096	2.548	2.529	2.306	2.120	1.848	1.630	1.874	2.098	2.111	1.947	1.762	1.436	1.729	2.074	1.932	1.846	2.070	2.368	2.597	3.325	3.132	3.412	5.366	5.490	6.863	6.832	7.690	7.097	6.420	6.483	5.533	5.532	4.695	4.160	3.358	2.374	2.057	1.993	2.123	1.915	1.739	1.808	1.651	1.704	2.028	2.241	2.532	2.906
340.0	268.3	515.7	969.5	 1542	 2110	 2469	 2715	 2447	 1977	 1489	915.9	434.2	342.2	302.5	264.7	226.0	281.3	500.7	301.4	95.04	70.91	89.10	151.4	783.1	 2324	 1140	52.45	4.031	4.189	2.307	3.054	2.437	2.666	2.390	1.919	1.985	1.979	2.008	1.942	1.495	1.407	1.838	1.683	2.083	2.342	2.386	2.700	2.869	3.984	4.355	4.886	7.400	8.001	8.617	9.201	9.526	10.28	9.455	7.965	7.098	6.612	5.289	4.783	3.761	2.609	2.190	1.764	2.274	1.766	1.823	1.958	1.774	1.737	1.875	1.817	1.922	2.189
345.0	336.2	661.9	 1211	 1904	 2628	 3228	 3391	 3092	 2489	 1865	 1145	503.5	354.8	312.4	287.9	234.4	234.7	366.2	468.4	179.6	65.52	50.47	55.03	199.2	 1096	 2303	234.0	18.58	3.970	3.037	3.411	3.115	2.447	2.245	2.146	2.250	2.056	1.926	1.864	1.749	1.515	1.809	2.241	1.948	2.420	2.598	3.362	3.646	4.281	4.912	6.168	8.648	9.722	10.79	11.65	11.73	12.77	11.42	11.11	8.626	8.009	7.284	5.706	4.652	2.920	2.428	2.085	2.077	2.187	2.015	2.101	1.809	1.671	1.697	1.693	1.757	1.787
350.0	414.6	833.8	 1380	 2313	 3184	 3945	 4182	 3748	 2999	 2291	 1320	562.8	381.5	333.5	306.0	262.3	236.3	258.2	365.4	356.2	145.9	50.54	37.25	64.50	274.4	 1010	 1507	845.0	76.73	4.128	3.485	3.132	2.466	2.225	2.014	1.921	1.851	1.814	2.207	1.590	1.552	1.968	2.123	2.098	2.288	3.036	3.663	4.604	5.366	5.836	7.347	9.851	11.51	13.49	14.23	14.86	14.88	14.06	12.62	10.28	9.293	8.118	6.717	4.993	3.676	2.724	2.124	1.969	2.271	2.020	2.097	2.076	2.014	1.834	1.795	1.802	1.775
355.0	467.1	919.3	 1588	 2535	 3598	 4503	 4718	 4217	 3356	 2606	 1435	602.7	375.4	345.3	318.7	275.8	247.6	241.6	238.5	294.2	314.9	103.4	36.56	34.83	77.80	241.4	522.3	 1707	 1243	81.98	3.845	3.127	3.114	2.635	2.078	2.198	1.964	1.946	1.680	1.663	2.004	2.164	2.263	2.142	2.878	3.295	4.079	4.937	6.523	6.434	8.302	10.95	12.50	15.25	16.05	16.45	16.66	15.84	13.24	10.88	10.33	9.034	8.167	5.310	3.938	2.847	2.865	2.088	1.998	1.973	2.191	1.883	2.070	2.116	1.830	1.702	1.712
360.0	493.9	915.6	 1630	 2742	 3753	 4639	 4956	 4420	 3533	 2719	 1490	605.9	372.7	357.9	323.6	292.9	263.9	241.6	212.8	197.1	305.4	210.7	53.49	33.03	35.48	70.26	136.1	711.1	 1977	875.2	36.08	3.118	3.452	2.749	2.098	2.320	1.991	1.930	1.931	1.343	1.855	1.888	2.010	2.272	2.674	3.889	4.148	5.340	6.129	6.433	8.149	11.91	12.73	15.64	16.23	17.56	16.93	16.04	13.17	12.18	10.92	9.919	7.664	5.676	3.521	3.199	2.559	1.950	2.303	1.944	2.099	1.950	2.232	1.803	1.908	2.132	1.964
365.0	476.6	948.8	 1714	 2727	 3773	 4619	 4989	 4458	 3525	 2693	 1482	596.5	369.1	346.0	321.7	285.0	269.0	241.4	207.1	162.0	200.5	288.7	131.6	38.49	31.31	33.06	43.80	181.3	984.4	 1941	202.6	12.06	3.395	2.882	2.338	2.000	1.904	1.998	2.100	1.720	1.916	2.013	1.988	1.975	2.651	3.760	3.711	4.895	6.056	6.776	7.970	11.74	13.58	15.03	17.06	17.63	16.69	15.88	14.53	11.63	11.17	10.09	7.069	5.817	4.405	3.138	2.756	2.247	1.983	1.774	2.124	1.997	2.186	1.969	1.931	2.010	2.024
370.0	429.8	902.8	 1615	 2609	 3625	 4452	 4737	 4255	 3335	 2574	 1419	582.6	361.2	332.9	313.8	284.7	260.6	242.7	202.1	151.3	126.6	184.9	224.6	106.7	38.22	29.00	28.31	55.50	246.6	910.5	 1382	709.4	57.45	3.428	2.457	2.086	1.929	1.976	1.999	1.727	2.181	2.296	2.045	2.276	2.635	3.619	3.568	5.111	5.382	6.379	7.676	11.48	13.22	14.81	16.25	17.08	17.04	16.29	13.64	11.38	10.32	8.627	7.448	5.392	3.868	2.661	2.490	2.090	2.127	1.841	2.086	1.989	2.131	2.002	1.925	2.177	1.988
375.0	386.7	839.2	 1541	 2453	 3326	 4073	 4419	 3854	 3133	 2324	 1315	535.9	340.2	310.8	300.4	272.9	256.3	224.3	194.7	145.8	110.3	102.0	160.5	218.6	87.29	33.10	30.08	30.99	70.68	216.5	503.4	 1582	962.5	56.20	3.153	2.486	2.197	2.187	2.101	1.914	2.279	1.666	1.978	1.881	2.375	3.103	3.463	4.681	5.167	6.292	7.383	9.857	11.81	13.71	14.61	15.40	15.86	15.46	12.64	11.43	8.803	8.347	6.711	5.240	3.828	2.632	2.187	2.000	1.950	1.604	2.107	1.905	2.392	1.983	1.994	1.684	2.287
380.0	367.8	766.5	 1379	 2197	 3155	 3739	 4041	 3559	 2888	 2105	 1226	489.0	320.9	285.4	279.5	261.4	242.2	224.1	190.9	145.5	106.1	80.47	94.35	199.7	174.5	56.24	30.96	26.81	32.66	59.81	127.4	720.8	 1703	629.5	20.18	2.678	2.339	2.293	1.843	1.972	2.221	1.849	2.082	2.250	2.569	2.826	3.617	4.486	4.969	5.481	7.380	9.296	11.28	11.84	13.16	14.06	14.29	13.23	11.70	10.09	8.744	8.032	6.572	4.889	3.432	2.604	1.992	1.835	1.791	1.641	2.133	1.902	2.066	1.931	1.969	1.921	2.530
385.0	353.6	701.3	 1275	 1967	 2840	 3397	 3579	 3227	 2545	 1928	 1083	461.8	297.9	273.0	273.2	242.5	234.4	217.3	187.7	138.1	98.73	75.98	69.62	117.8	212.9	114.3	37.00	26.06	25.27	28.30	40.27	183.9	951.7	 1432	152.3	6.618	2.503	2.505	2.145	2.139	2.011	2.206	1.792	1.882	2.592	3.331	3.286	3.688	4.440	5.570	6.778	8.761	10.02	11.42	12.15	13.30	12.86	11.66	10.01	9.641	7.924	7.092	6.098	4.343	3.165	2.407	1.799	1.624	1.748	1.676	1.794	2.064	1.831	1.716	1.821	2.179	2.049
390.0	308.1	634.9	 1144	 1696	 2407	 2884	 3049	 2751	 2152	 1657	916.7	399.1	269.7	247.2	241.7	224.9	215.7	192.4	168.0	134.1	98.76	76.07	65.89	73.50	130.5	177.7	96.95	37.41	27.27	22.81	22.31	52.87	242.2	773.4	 1090	501.8	38.32	2.922	2.754	2.099	2.128	1.953	1.875	1.721	2.569	2.880	2.954	3.625	4.207	4.739	5.493	7.899	8.647	9.791	10.26	10.89	10.75	10.23	8.894	7.200	6.680	5.999	5.489	3.984	2.746	2.056	1.666	1.615	1.702	1.557	2.031	1.986	1.657	1.635	1.888	1.847	1.982
395.0	269.4	492.8	892.9	 1378	 1972	 2333	 2550	 2299	 1768	 1373	780.7	351.0	232.2	224.8	216.7	197.7	194.1	172.3	154.0	122.3	93.49	76.71	63.71	63.39	74.68	119.1	172.7	87.77	32.14	24.26	19.69	24.47	63.78	181.6	445.4	 1266	646.7	30.52	2.682	1.806	2.201	2.107	1.955	1.711	2.187	2.649	2.384	3.639	3.675	3.917	4.365	7.029	7.781	8.158	8.785	9.111	9.058	8.694	7.600	6.734	6.186	5.610	5.008	3.549	2.229	2.014	1.599	1.855	1.735	1.261	1.949	1.917	1.517	1.486	1.721	1.794	1.660
400.0	265.4	436.8	744.8	 1180	 1703	 1957	 2172	 1941	 1539	 1178	675.8	316.4	214.8	213.2	192.2	189.2	179.9	159.4	142.3	116.5	90.62	75.28	64.15	61.88	63.43	74.24	145.5	150.2	50.07	26.63	21.83	18.67	24.91	48.40	112.3	641.8	 1262	144.2	11.26	2.400	2.369	2.179	1.837	2.002	2.104	1.991	2.250	3.233	3.167	3.242	4.461	5.828	6.245	7.513	7.677	8.054	7.851	7.689	6.532	5.689	5.178	5.028	3.928	3.051	2.292	1.613	1.618	1.528	1.888	1.741	1.627	1.850	1.729	1.599	1.629	2.003	1.821
405.0	202.0	348.7	654.9	 1016	 1420	 1708	 1804	 1603	 1307	986.8	576.2	282.7	197.0	197.1	185.2	174.0	163.2	152.6	132.4	110.7	85.83	73.66	63.70	61.87	59.50	55.24	90.82	168.7	103.4	35.07	24.40	19.15	17.30	19.85	33.07	166.0	768.3	 1063	119.4	4.004	2.152	1.932	2.139	2.374	2.138	1.981	2.128	2.931	3.408	3.088	3.952	5.384	5.649	6.157	6.642	7.858	6.674	6.610	5.639	4.815	4.745	4.199	3.404	3.244	2.288	1.702	1.643	1.669	1.863	1.520	1.427	1.564	1.935	1.408	1.743	1.602	1.764
410.0	168.5	319.8	549.5	811.9	 1143	 1349	 1426	 1309	 1043	791.1	469.9	231.5	176.2	171.3	160.4	155.0	146.6	138.1	121.4	100.0	82.31	70.11	65.01	62.66	57.32	54.22	60.41	102.0	139.9	84.18	31.74	22.69	18.61	15.22	15.59	44.13	197.7	624.0	828.5	365.1	26.93	2.181	2.252	1.925	2.048	1.723	2.007	2.461	3.029	2.507	3.285	4.318	4.819	5.181	5.240	6.103	5.774	5.699	4.846	4.072	3.810	3.508	2.815	2.902	2.215	1.566	1.525	1.565	1.587	1.543	1.614	1.421	1.613	1.216	1.702	1.586	1.798
415.0	155.3	262.3	421.6	649.6	880.1	 1069	 1163	 1035	795.5	622.4	376.5	206.9	152.5	148.3	145.4	136.0	131.7	124.2	109.1	91.46	74.59	65.48	64.40	59.02	56.87	53.65	52.85	61.34	90.64	132.3	67.87	26.05	17.60	15.65	12.78	17.17	50.02	145.8	357.2	903.4	448.8	21.82	2.237	1.869	1.898	2.027	1.970	1.987	2.478	2.250	2.820	3.192	3.937	4.445	4.467	5.133	4.678	4.536	4.436	3.311	2.910	3.348	2.703	2.586	2.039	1.570	1.515	1.537	1.538	1.465	1.513	1.401	1.164	1.099	1.414	1.539	1.603
420.0	142.2	220.0	351.0	569.0	767.5	892.3	951.1	838.7	674.4	524.3	322.3	184.0	139.8	134.2	139.4	119.6	120.8	111.7	100.3	84.83	73.08	67.49	60.46	56.01	57.77	52.06	51.46	49.39	58.02	113.4	108.2	39.89	20.63	16.22	13.53	11.29	16.77	38.05	89.93	473.8	904.5	126.7	7.059	2.300	2.032	2.142	1.846	2.100	2.013	2.337	2.166	2.987	3.262	3.917	3.827	3.914	3.893	3.628	3.542	3.001	3.061	2.686	2.558	2.378	1.733	1.684	1.290	1.612	1.852	1.715	1.166	1.376	1.333	1.011	1.457	1.600	1.396
425.0	134.0	196.4	320.1	461.3	608.4	734.0	776.5	703.7	584.8	446.7	282.6	160.9	126.4	114.7	124.3	117.6	107.7	105.0	92.29	79.14	68.31	63.27	57.52	56.68	54.57	50.12	50.67	46.61	46.87	70.32	120.5	74.66	26.69	17.21	14.00	11.33	10.57	13.37	25.21	123.8	576.1	759.7	98.27	3.198	2.040	1.979	1.757	1.837	1.588	2.017	2.115	2.762	2.970	3.396	3.906	3.195	3.886	3.329	3.631	2.923	3.299	2.339	2.351	2.118	1.364	1.755	1.207	1.529	1.619	1.966	1.199	1.339	1.320	1.511	1.410	1.405	1.642
430.0	134.8	162.2	249.2	369.1	476.1	599.3	617.1	565.4	464.5	366.0	241.0	137.3	113.9	104.1	111.0	104.6	96.35	94.20	84.34	74.27	62.73	57.08	55.16	56.06	52.15	51.00	51.27	46.52	45.09	48.75	76.21	99.36	59.56	22.49	15.07	12.49	11.11	8.886	10.46	32.29	149.2	444.9	644.7	261.6	19.03	1.963	1.604	1.687	1.768	1.779	2.061	2.610	2.723	2.730	3.212	2.837	2.810	2.850	2.733	2.338	2.651	2.017	2.067	1.996	1.626	1.383	1.295	1.315	1.472	1.333	1.251	1.361	1.461	1.429	1.476	1.416	1.355
435.0	193.7	148.5	196.3	289.2	377.2	464.7	475.4	434.3	347.3	294.5	202.8	123.2	104.9	98.19	96.79	88.94	87.36	81.11	77.33	64.40	57.39	57.57	54.73	50.15	50.24	49.68	49.36	48.55	42.78	41.96	45.15	68.11	92.15	48.22	17.68	13.47	11.04	9.732	7.715	11.91	37.42	104.1	297.9	712.1	336.1	17.53	1.674	1.651	1.721	1.462	1.944	2.293	2.380	2.447	2.436	2.562	2.538	2.550	2.271	2.223	2.288	2.132	1.780	1.525	1.535	1.425	1.922	1.291	1.629	1.267	1.381	1.776	1.343	1.269	1.306	1.446	1.692
440.0	237.0	197.4	159.6	253.8	311.5	362.6	391.1	376.1	304.1	268.2	178.1	115.8	104.8	87.10	88.61	83.09	80.11	77.58	72.33	60.93	56.69	55.30	51.99	51.83	50.04	51.62	45.99	44.23	41.82	41.30	35.90	44.59	77.74	78.92	29.34	14.96	11.55	9.656	7.901	8.213	12.49	26.71	74.90	393.7	741.2	110.9	6.603	1.664	1.552	1.361	1.825	2.024	2.144	2.354	2.354	2.336	1.971	2.206	2.342	1.874	1.945	2.046	1.965	1.717	1.260	1.239	1.327	1.228	1.279	1.107	1.333	1.292	1.348	1.282	1.104	1.513	1.486
445.0	234.2	304.9	142.2	220.7	273.2	308.5	326.7	308.1	260.8	222.1	155.1	107.6	95.77	91.16	87.51	77.00	74.67	71.37	61.18	58.24	53.96	47.92	49.08	51.21	48.06	48.16	48.55	44.39	42.96	38.40	36.80	37.75	50.77	84.92	50.85	19.46	13.59	10.56	8.626	7.887	7.311	9.938	21.35	105.1	499.6	689.5	81.32	2.426	1.547	1.596	1.719	1.825	1.936	2.007	2.091	2.037	2.253	2.243	2.113	1.707	1.709	1.934	1.718	1.539	1.348	1.376	1.029	1.379	1.401	1.379	1.475	1.526	1.692	1.493	1.345	1.309	1.421
450.0	134.9	431.5	291.0	181.5	215.8	259.4	279.3	252.4	220.7	183.1	135.0	96.40	85.42	78.77	79.08	74.93	67.41	61.94	57.62	53.42	48.41	46.29	44.57	45.59	45.18	43.35	43.02	44.01	41.08	37.72	35.62	33.96	35.58	52.79	68.42	40.07	17.24	11.12	8.653	7.857	6.752	6.515	8.463	26.62	131.4	431.5	625.8	225.2	14.58	1.685	1.393	1.948	1.809	2.199	1.661	1.853	2.055	1.990	1.824	1.710	1.565	1.591	1.661	1.765	1.561	1.613	1.212	1.436	1.383	1.420	1.275	1.234	1.445	1.297	1.166	1.427	1.598
455.0	84.70	321.0	729.4	186.9	178.6	216.2	228.1	196.9	184.8	147.9	112.5	90.41	74.04	74.04	71.11	67.56	61.69	53.23	51.73	48.95	43.07	43.43	42.80	43.41	40.62	40.60	39.38	39.03	37.32	37.69	34.93	30.51	30.14	32.36	46.81	64.43	33.60	12.95	9.046	8.146	7.119	6.928	5.846	8.906	32.45	101.1	295.0	630.1	265.6	10.09	1.703	1.775	1.618	2.071	1.999	2.061	1.922	1.835	1.625	1.605	1.411	1.487	1.268	1.560	1.241	1.425	1.127	1.363	1.377	1.381	1.211	0.967	1.246	1.310	1.268	1.204	1.239
460.0	68.78	152.7	862.8	452.0	145.8	190.1	192.8	162.5	157.3	126.9	102.5	84.52	65.71	68.53	62.97	59.32	55.31	48.15	47.22	47.02	39.44	39.94	38.55	38.49	37.58	36.73	39.11	37.78	36.71	35.11	32.86	29.82	26.52	25.81	28.09	54.44	49.99	19.28	9.774	8.184	6.988	6.565	6.230	5.264	9.884	25.30	73.97	357.6	612.5	77.10	4.306	1.662	1.541	1.863	1.447	1.809	1.849	1.833	1.742	1.526	1.293	1.670	1.298	1.444	1.230	1.332	1.202	1.459	1.291	1.350	1.444	1.269	1.457	1.471	1.321	1.283	1.335
465.0	53.87	75.41	664.0	880.9	149.9	166.3	162.6	152.2	138.4	128.6	94.92	73.63	68.96	67.10	60.40	53.25	53.41	45.91	45.06	40.84	39.49	35.83	33.85	36.64	37.36	35.53	36.42	34.09	33.69	32.05	29.40	28.35	24.70	24.13	21.63	34.23	53.89	33.48	12.05	8.313	7.220	6.738	5.951	4.601	5.561	8.098	19.62	95.56	430.0	488.8	61.28	2.488	1.683	1.624	1.343	1.682	1.993	1.737	1.245	1.216	1.398	1.600	1.373	1.532	1.330	1.182	1.502	1.346	1.230	1.106	1.283	1.282	1.411	1.648	1.232	1.131	1.078
470.0	60.18	72.03	275.4	 1045	519.5	124.9	123.6	122.2	110.7	104.2	85.99	69.52	62.65	57.14	54.68	48.36	44.99	41.75	39.00	36.29	37.68	34.21	33.31	33.93	34.22	32.66	31.82	32.64	32.18	29.11	28.74	27.07	24.65	21.63	18.99	21.95	33.12	41.29	23.72	10.35	7.172	6.229	5.817	4.621	4.606	4.767	7.144	24.03	112.4	324.1	402.3	164.6	10.15	1.738	1.551	1.588	1.558	1.651	1.480	1.363	1.393	1.560	1.454	1.534	1.535	1.135	1.402	1.408	1.207	1.332	1.317	1.281	1.512	1.238	1.225	1.130	1.199
475.0	58.14	70.68	116.9	565.8	 1036	188.9	105.8	109.2	99.19	80.10	78.58	61.43	59.31	47.50	48.43	43.97	41.35	35.14	35.96	33.73	30.01	31.70	30.61	28.50	27.90	30.00	27.67	29.10	27.39	28.41	25.36	24.37	22.29	20.03	17.71	17.69	19.28	29.10	34.48	19.21	7.897	5.902	5.445	4.650	3.996	3.927	4.146	7.720	27.22	75.13	190.0	430.3	91.74	8.759	1.681	1.578	1.389	1.530	1.535	1.479	1.190	1.283	1.325	1.058	1.313	1.044	1.147	1.314	1.299	1.255	1.506	1.170	1.562	1.176	1.323	1.456	1.211
480.0	57.34	74.73	71.95	232.5	 1115	442.7	94.07	85.57	91.50	85.09	72.29	61.98	53.57	49.98	45.26	41.72	38.91	35.87	33.47	29.55	27.59	29.24	27.45	26.38	24.93	27.76	28.47	25.84	26.15	27.01	25.07	23.04	21.10	19.33	16.64	15.14	14.35	18.39	31.97	28.15	12.59	5.888	5.796	4.941	4.840	4.168	3.514	4.265	8.351	18.75	48.04	240.7	415.8	81.70	3.803	1.424	1.247	1.480	1.374	1.029	1.615	1.286	1.392	1.424	1.426	1.504	1.090	1.075	1.161	1.038	1.301	1.266	1.303	1.331	1.208	1.231	1.350
485.0	46.74	66.70	69.55	104.5	731.7	914.2	105.1	73.61	80.91	73.33	64.89	58.34	48.82	47.01	41.80	38.33	34.70	34.15	29.81	25.38	26.90	26.87	24.38	24.55	25.12	26.19	25.46	23.61	24.55	24.25	23.27	21.69	20.93	18.51	16.01	14.27	14.10	12.92	20.79	32.29	20.65	7.999	5.811	5.205	4.599	3.911	3.513	3.791	4.004	5.867	12.31	64.28	296.7	385.2	57.23	2.061	1.498	1.434	1.424	1.391	1.366	1.152	1.192	1.312	1.367	1.284	1.274	1.099	1.201	1.434	1.258	0.992	1.199	1.196	1.144	1.281	1.599
490.0	58.98	69.77	65.65	73.33	270.2	988.6	459.8	68.76	72.57	64.30	61.82	50.43	43.68	46.48	37.60	32.10	30.95	29.77	26.61	24.97	25.89	24.42	22.78	22.61	24.10	23.95	23.09	22.76	22.61	21.75	21.50	20.03	18.67	16.89	15.19	13.44	11.87	10.69	12.81	20.83	25.97	16.93	6.641	5.460	4.530	4.009	3.802	3.220	3.123	3.090	4.248	16.42	77.47	235.2	332.0	142.4	9.207	1.488	1.317	1.436	1.276	1.315	1.266	1.335	1.471	1.246	1.359	1.281	1.311	1.077	1.426	1.171	1.178	1.025	1.048	1.310	1.405
495.0	58.54	58.52	86.12	67.97	107.0	509.3	 1056	158.1	67.89	65.77	52.41	47.38	39.74	39.79	35.23	31.15	29.00	26.10	24.40	21.14	19.69	21.51	19.45	19.69	20.61	20.89	19.12	19.89	20.34	19.97	19.13	18.27	16.65	15.99	12.93	12.89	10.13	10.05	10.02	12.39	18.75	23.81	12.57	5.665	4.762	3.996	4.000	2.828	2.855	2.980	2.499	5.581	19.00	54.73	153.0	379.2	97.20	7.891	1.513	1.447	1.327	1.183	1.310	1.379	1.437	1.119	1.373	1.251	1.426	1.004	1.146	1.103	1.155	1.030	1.482	1.300	1.270
500.0	62.82	40.01	84.02	84.28	62.86	192.7	 1087	481.2	54.91	55.51	48.94	48.03	39.16	35.95	30.21	27.84	28.37	22.78	24.64	20.75	20.41	19.16	18.08	17.82	19.56	19.23	17.57	18.41	19.91	20.85	18.01	17.40	16.46	14.18	12.66	11.33	10.36	9.786	8.642	8.419	11.42	21.31	17.64	8.043	4.264	4.305	3.584	3.105	3.034	2.562	2.163	2.956	5.986	13.97	38.45	206.9	380.5	81.47	3.122	1.430	1.394	1.121	1.182	1.106	1.297	1.006	1.109	1.192	1.380	1.135	1.049	1.204	1.084	1.320	1.359	1.090	1.354
505.0	47.67	40.10	72.52	88.56	56.66	91.92	716.3	945.6	95.30	52.46	50.53	40.71	37.79	36.11	26.55	25.79	24.27	21.32	22.72	19.29	19.35	18.97	17.65	18.18	17.01	17.71	16.88	18.09	17.40	17.51	17.62	17.01	13.69	13.83	12.03	10.36	9.385	9.628	8.062	7.889	8.142	13.81	20.46	13.43	5.416	3.647	3.359	3.846	2.562	2.793	2.224	2.728	2.815	4.622	10.40	54.04	261.9	345.7	56.57	1.724	1.007	1.165	1.223	1.167	1.113	1.235	1.041	1.021	1.306	1.156	1.224	1.094	1.389	1.326	1.019	1.176	1.556
510.0	51.90	39.08	62.91	87.38	68.11	59.66	246.9	 1044	538.7	51.42	40.29	38.10	33.12	30.84	28.05	25.32	22.33	20.05	19.28	17.23	16.64	16.41	16.40	15.29	15.95	15.00	15.13	15.88	14.04	15.67	16.07	14.28	13.36	12.04	10.35	9.548	8.476	8.367	8.047	7.226	6.697	8.057	14.47	17.04	10.59	4.699	3.576	3.163	2.643	2.530	2.372	2.533	2.512	2.301	3.993	13.39	67.77	205.6	277.2	63.93	7.693	1.263	1.174	1.233	1.244	1.230	1.149	1.037	1.146	1.186	1.004	1.181	1.190	1.313	1.259	1.281	1.338
515.0	50.41	52.99	55.12	76.04	83.79	50.25	89.55	474.8	 1199	156.7	38.52	35.30	35.96	29.20	25.69	23.97	21.38	17.24	17.50	15.97	13.99	12.85	14.34	14.21	13.86	12.39	13.63	13.30	13.81	13.26	13.96	13.70	12.26	10.91	9.934	9.178	7.696	7.187	7.430	6.408	5.188	6.252	7.483	13.63	15.49	8.971	3.755	3.009	2.418	2.351	2.427	2.410	2.261	1.608	2.272	4.543	16.59	47.42	121.8	286.9	90.19	5.416	1.195	1.513	1.028	0.897	1.157	1.158	0.930	1.114	1.001	1.317	1.202	1.237	1.028	1.162	1.143
520.0	46.26	49.56	42.80	50.98	91.00	58.06	50.51	161.2	 1139	505.9	35.48	33.86	29.33	25.29	21.53	19.72	18.80	15.96	15.32	13.65	12.95	11.58	13.38	13.35	13.13	11.63	12.52	12.91	13.04	12.07	12.43	11.46	11.14	10.89	9.577	8.299	7.255	6.277	5.805	6.273	5.325	5.498	4.992	7.966	14.17	12.55	5.516	2.561	2.542	2.415	2.478	2.035	2.357	1.998	1.889	2.194	5.027	12.16	30.35	155.6	279.9	70.33	2.755	1.559	1.107	0.840	1.146	1.253	0.750	0.946	0.978	1.165	0.963	1.312	1.239	1.043	1.030
525.0	48.61	60.17	45.38	45.26	97.49	80.79	40.09	67.96	632.0	999.9	79.10	30.21	27.37	22.41	23.96	17.33	16.81	14.73	13.56	15.03	13.81	11.13	12.48	12.27	10.23	11.33	12.13	10.52	12.48	10.66	10.90	11.14	9.613	8.960	8.302	7.290	7.288	6.853	6.623	5.362	4.702	4.613	4.280	5.023	10.11	14.63	8.397	3.946	2.680	2.407	2.004	1.931	2.180	2.295	1.945	1.883	2.395	4.354	8.003	40.00	184.0	248.4	45.26	1.792	1.074	1.041	1.126	1.190	1.089	1.018	0.987	1.027	1.236	1.259	1.173	1.112	0.964
530.0	44.16	51.24	48.83	42.95	61.22	92.45	49.44	41.46	196.2	939.4	471.8	33.23	26.04	21.36	20.56	16.33	16.47	13.92	13.22	12.21	10.95	9.778	11.66	9.810	9.807	9.333	10.05	10.25	10.96	9.916	10.19	8.466	8.447	8.209	7.562	6.580	6.408	5.769	5.696	4.987	4.603	4.019	3.987	3.757	5.616	9.969	11.51	7.057	3.082	2.027	2.155	1.737	2.054	2.047	2.262	1.653	1.872	2.172	3.114	10.10	47.25	143.3	190.5	58.33	5.257	1.071	1.211	1.046	1.181	0.871	0.979	1.046	1.038	1.104	1.115	1.090	0.902
535.0	45.29	52.53	59.34	34.95	38.17	80.27	67.82	36.50	64.98	361.0	922.3	145.0	22.11	23.02	19.36	15.67	16.18	13.17	10.80	10.57	10.79	9.811	11.08	9.864	8.374	8.640	8.548	9.489	8.486	7.822	8.923	8.603	7.622	7.140	7.485	6.597	6.016	4.932	5.630	4.858	3.861	3.839	3.610	3.911	4.310	4.674	9.425	9.798	4.831	2.118	1.850	1.678	1.962	1.719	2.070	1.961	1.745	1.997	1.880	3.504	12.01	33.36	80.34	199.5	79.28	3.822	1.085	1.082	1.137	1.151	0.949	0.849	1.027	1.365	0.994	1.633	1.251
540.0	55.53	55.35	49.76	29.50	34.83	58.90	85.91	37.57	35.88	115.1	804.9	446.4	25.08	18.48	19.45	15.67	13.55	11.15	10.30	9.305	10.31	8.471	9.181	7.791	8.508	9.158	7.115	7.973	7.655	7.472	7.809	6.715	7.067	5.985	6.457	5.344	5.269	4.981	4.689	4.628	4.274	3.890	3.410	3.529	3.234	3.637	6.005	9.377	7.839	3.222	1.863	1.762	1.821	1.700	1.540	2.033	1.503	1.727	1.547	1.932	3.932	8.572	19.72	104.2	201.9	53.44	2.021	1.251	1.173	1.291	1.352	0.790	1.184	1.364	0.893	1.387	1.411
545.0	46.41	57.16	40.68	39.30	34.28	44.25	89.16	48.92	29.60	47.27	403.9	787.2	59.28	15.92	16.03	14.80	12.43	11.04	9.208	8.764	10.05	8.266	8.729	8.105	7.749	8.291	7.324	6.216	7.997	7.850	6.302	7.069	6.283	6.097	5.064	5.537	5.017	4.464	4.491	4.530	3.836	3.571	3.601	3.054	3.005	2.778	3.755	6.617	8.575	4.651	2.231	1.618	1.809	1.512	1.588	1.872	2.365	1.857	1.269	1.682	1.665	3.031	5.650	27.36	131.4	166.7	26.59	1.366	1.167	1.246	1.199	0.924	1.238	1.014	0.848	1.043	1.165
550.0	45.08	45.87	37.49	35.97	32.92	37.80	68.29	77.84	34.30	31.05	125.6	675.3	393.4	20.00	13.23	12.89	11.38	10.17	9.149	8.207	8.231	7.233	7.782	6.873	6.803	6.804	7.016	6.468	6.941	6.694	5.719	5.999	5.853	5.327	4.917	5.273	4.188	3.880	3.973	3.974	3.636	3.167	2.773	2.938	2.543	2.321	2.241	3.992	6.510	6.392	3.999	1.920	1.787	1.368	1.635	1.607	1.729	1.809	1.533	1.350	1.414	1.636	2.409	7.251	34.10	102.3	117.7	45.26	3.348	1.174	1.234	1.052	1.170	1.039	0.986	0.953	1.004
555.0	52.68	38.46	32.21	36.82	32.38	31.43	39.66	86.02	50.57	24.21	44.13	244.0	715.2	112.6	13.03	10.09	9.547	9.258	9.039	8.554	8.563	6.954	7.637	6.005	5.266	5.776	6.059	6.510	5.449	5.916	5.596	4.820	4.690	4.264	4.921	4.688	3.960	3.699	3.607	3.645	2.955	2.956	2.576	2.444	2.384	2.244	2.241	2.588	3.571	5.921	5.369	2.516	1.905	1.656	1.468	1.576	1.746	1.813	1.842	1.781	1.574	1.294	1.772	2.819	8.694	23.77	55.07	134.3	52.54	2.663	1.299	1.036	1.167	0.965	0.990	1.042	1.183
560.0	45.18	43.83	33.16	44.45	31.38	28.57	29.01	68.90	62.97	26.42	26.29	78.90	589.0	353.9	13.49	10.12	9.993	8.407	7.856	6.626	6.637	6.685	7.000	7.256	5.205	5.489	5.735	5.647	4.988	4.810	5.791	4.631	4.423	3.868	5.028	4.128	3.425	3.316	3.197	2.761	2.838	2.587	2.451	2.821	2.199	2.111	1.866	1.931	2.464	4.055	5.301	3.607	2.095	1.832	1.282	1.662	1.364	1.492	1.672	1.872	1.497	1.354	1.375	1.866	2.978	6.419	14.34	74.75	125.7	30.53	1.489	1.153	1.163	0.690	0.965	1.307	1.190
565.0	47.17	54.27	33.20	42.37	26.28	23.54	22.41	52.18	80.79	32.06	24.32	39.46	287.1	628.9	49.37	10.61	8.018	6.921	7.190	6.801	6.039	5.921	6.753	6.153	5.107	4.870	4.541	4.459	4.660	5.593	5.104	3.923	4.102	4.290	3.611	3.408	2.941	2.899	3.323	2.690	2.639	2.508	2.378	2.478	1.992	1.952	1.959	1.703	1.650	2.397	4.346	4.535	2.851	1.684	1.159	1.623	1.407	1.153	1.540	1.856	1.686	1.569	1.302	1.463	1.600	2.351	4.292	20.57	86.80	97.76	14.75	1.105	1.109	0.967	0.986	1.021	1.243
570.0	47.35	38.11	35.45	37.47	32.12	27.62	26.95	30.96	80.76	52.29	25.71	31.50	89.04	519.4	417.2	12.69	8.102	6.926	7.159	6.296	5.586	5.756	4.973	4.615	3.929	3.854	4.251	4.159	4.353	4.246	4.553	3.648	3.335	3.902	3.214	3.017	2.838	2.775	2.856	2.482	2.128	2.039	2.046	2.148	1.874	1.873	1.976	1.741	1.717	1.587	2.544	3.677	3.577	2.256	1.566	1.308	1.263	1.179	1.571	1.454	1.986	1.647	1.253	1.131	1.398	1.501	1.839	5.451	23.56	62.74	74.55	25.01	2.093	1.066	1.185	1.095	1.119
575.0	54.62	45.62	42.79	25.83	30.28	24.08	26.38	24.18	42.71	93.08	33.86	25.89	36.52	176.1	762.5	73.93	8.546	7.081	6.281	6.388	5.386	4.748	5.299	4.177	4.176	4.023	3.893	3.141	3.847	3.981	3.919	3.147	3.173	3.103	2.967	2.536	2.581	2.433	2.627	2.338	1.697	2.144	1.586	1.872	2.152	1.832	1.717	1.696	1.563	1.465	1.488	2.337	3.163	2.662	1.924	1.335	1.208	1.133	1.368	1.210	1.574	1.645	1.225	1.137	1.081	1.181	1.461	2.471	6.469	15.34	36.03	76.13	29.20	1.484	1.364	1.034	1.027
580.0	45.90	49.76	52.35	33.53	39.62	25.22	28.25	25.43	33.90	96.75	47.99	28.51	28.85	58.79	567.5	263.0	8.179	6.619	5.022	5.756	5.752	3.369	4.720	4.302	4.031	4.515	3.700	3.112	3.436	3.623	3.655	3.365	2.676	2.822	2.568	2.248	2.530	2.573	2.525	2.340	2.130	1.761	1.496	2.367	2.136	1.498	1.542	1.514	1.319	1.402	1.240	1.923	2.663	3.039	2.645	1.235	1.191	0.965	1.007	1.192	1.265	1.278	1.409	1.197	1.209	1.033	1.269	1.716	2.428	4.427	9.637	46.36	76.17	15.34	1.441	0.962	1.308
585.0	47.42	46.25	44.65	36.35	30.13	25.66	23.99	26.64	25.52	75.35	69.88	29.95	26.86	31.80	244.7	458.2	24.58	7.050	5.222	5.118	4.862	4.394	4.607	4.296	3.259	3.864	3.773	3.193	3.609	3.792	3.053	3.178	2.972	2.852	3.057	2.176	2.203	2.302	2.307	1.885	2.281	1.788	1.524	2.018	1.923	1.223	1.704	1.528	1.294	1.052	1.279	1.428	1.930	2.877	2.504	1.970	1.322	0.917	1.171	1.370	1.078	1.158	1.836	1.301	1.250	1.289	1.313	1.302	1.345	1.882	3.042	13.67	56.95	53.77	8.471	1.296	1.045
590.0	48.42	50.63	32.68	38.42	26.28	26.36	23.96	22.82	25.67	44.68	86.98	40.59	28.86	22.55	72.78	363.6	203.6	7.163	5.853	5.590	4.756	4.693	3.865	3.489	2.735	3.436	3.243	2.898	2.926	3.403	3.147	2.704	2.504	2.635	2.447	2.064	1.898	1.762	1.908	1.733	1.833	1.931	1.749	1.549	1.744	1.227	1.152	1.352	1.323	0.866	1.241	1.223	1.385	2.091	2.370	2.322	1.485	1.342	1.231	1.099	1.022	1.223	1.439	1.436	1.242	1.181	1.246	1.324	1.097	1.336	1.511	3.978	15.95	38.63	45.21	20.61	1.809
595.0	47.23	50.22	42.35	33.35	24.91	22.53	24.83	21.69	22.81	28.82	67.54	69.67	30.07	20.80	26.31	117.8	373.3	44.76	5.238	4.942	4.809	4.224	3.672	3.374	2.770	2.841	3.389	2.556	3.545	2.755	2.339	2.536	2.430	2.376	2.420	2.102	1.871	1.754	1.873	1.773	1.757	1.599	1.682	1.391	1.707	1.290	1.189	1.290	0.842	1.149	1.111	1.036	1.080	1.609	1.650	2.645	1.979	1.378	1.371	1.166	1.040	1.174	1.086	1.027	1.506	1.199	1.361	1.256	1.114	1.161	1.208	1.851	4.214	9.895	23.80	71.92	19.70
600.0	50.87	52.97	44.27	33.30	25.24	23.92	27.22	20.33	23.95	25.67	45.56	86.74	29.23	20.79	14.63	34.31	298.7	165.2	6.036	3.265	4.306	3.407	3.490	3.023	3.259	3.124	2.974	2.149	2.660	2.788	2.533	2.733	2.380	2.238	2.543	1.752	1.832	1.791	1.730	2.015	1.802	1.566	1.484	1.447	1.568	1.488	1.240	1.153	1.152	1.024	1.007	1.199	1.319	1.151	1.318	2.103	1.964	1.457	1.042	1.056	0.949	1.136	1.139	1.268	1.400	1.126	1.353	1.034	1.115	1.465	1.045	1.125	1.930	3.166	6.664	47.15	47.64
605.0	53.85	42.39	42.01	32.25	29.33	24.46	28.25	19.53	20.90	26.51	37.93	82.05	44.24	22.41	13.14	14.82	139.7	295.3	17.48	3.956	4.232	3.630	3.460	2.739	3.184	2.597	2.959	2.328	2.209	2.488	2.424	2.763	2.357	2.144	2.036	1.914	1.524	1.822	1.707	1.861	1.556	1.596	1.431	1.599	1.337	1.404	1.134	1.399	1.042	0.968	1.007	1.137	1.080	1.122	1.156	1.683	2.110	1.639	1.416	1.118	1.015	0.979	1.401	1.050	1.498	1.274	1.337	0.758	1.444	0.994	0.960	1.093	1.417	1.457	2.238	14.21	36.14
610.0	51.06	46.62	39.65	31.32	30.56	23.55	19.01	19.49	21.87	21.90	29.35	55.15	62.03	21.84	12.00	11.87	41.70	247.7	136.6	5.427	4.224	4.240	3.454	3.439	3.440	2.902	3.198	2.548	2.430	2.257	2.454	2.367	2.170	1.721	1.900	1.680	1.721	1.720	1.609	1.806	1.342	1.464	1.395	1.519	1.397	1.452	1.204	1.285	1.060	0.971	1.251	1.014	1.159	1.061	1.131	1.297	1.637	1.969	1.547	1.418	1.017	0.981	0.947	1.181	1.254	1.240	1.534	1.036	1.242	1.006	0.969	0.986	1.250	1.154	1.462	3.888	10.65
615.0	46.85	48.12	41.38	29.11	23.56	24.38	20.81	19.16	22.46	21.57	27.73	33.53	69.18	32.52	12.79	10.72	16.94	81.44	274.9	32.61	4.134	2.777	3.778	3.473	2.753	2.127	2.997	2.609	2.200	1.702	2.039	1.814	2.577	1.911	2.144	1.852	1.955	1.738	1.500	1.707	1.534	1.808	1.528	1.328	1.409	1.559	1.129	1.229	1.006	1.219	0.937	1.220	1.160	1.135	0.982	0.998	1.097	1.481	1.403	1.693	1.295	1.006	1.291	0.915	1.292	1.376	1.259	1.390	1.219	1.031	0.954	0.957	1.480	0.940	1.021	1.400	3.229
620.0	49.03	48.10	34.47	39.56	27.44	24.56	21.06	22.80	21.04	19.64	22.47	27.36	56.88	42.78	13.47	9.705	10.08	25.09	231.7	118.4	4.821	4.075	3.357	2.741	2.568	2.554	2.620	2.511	2.592	1.911	2.608	2.007	2.144	2.075	2.059	1.689	1.968	1.636	1.506	1.554	1.416	1.663	1.429	0.921	1.226	1.447	1.061	1.223	0.967	1.188	0.871	1.044	1.113	1.118	1.023	1.101	1.109	1.527	1.784	1.354	1.394	0.987	1.194	1.096	1.253	1.260	1.217	1.230	1.482	1.198	1.135	0.737	1.267	1.278	1.209	1.067	1.705
625.0	46.18	52.91	34.84	42.02	28.15	22.29	20.54	21.48	21.41	20.99	23.72	25.05	36.94	53.82	16.86	10.39	9.951	10.26	108.9	221.2	11.93	3.388	3.325	2.955	3.146	2.031	2.963	2.223	2.303	2.538	2.367	2.194	1.907	1.730	1.775	1.657	1.684	1.639	1.607	1.741	1.441	1.395	1.218	1.430	1.201	1.584	0.901	1.338	0.951	0.775	0.840	0.849	1.136	0.991	1.139	1.084	1.155	1.246	1.412	1.419	1.523	1.103	1.082	0.974	1.400	1.169	1.197	1.277	1.023	1.374	1.098	1.150	1.060	1.089	1.165	1.059	1.188
630.0	43.09	44.35	39.94	41.43	31.40	26.76	17.39	21.11	23.05	20.57	23.86	24.82	25.30	51.70	26.64	9.479	7.976	7.771	32.43	193.2	95.62	4.316	3.780	3.399	2.556	2.710	2.392	2.453	2.782	2.442	2.321	2.213	1.831	1.701	1.633	1.900	1.535	1.682	1.547	1.434	1.263	1.432	1.078	1.433	1.285	1.351	1.172	1.235	1.039	0.930	0.789	0.957	0.988	0.963	1.189	1.126	1.235	1.167	1.155	1.604	1.485	1.087	0.940	1.046	1.090	1.116	1.102	1.156	1.161	1.463	1.057	1.407	1.153	1.069	1.063	1.153	1.133
635.0	47.62	37.24	38.07	46.07	41.14	26.68	20.82	23.40	23.14	24.30	22.02	24.06	18.52	33.39	41.73	11.25	7.150	7.564	11.75	67.73	200.3	20.61	4.287	2.804	3.265	2.297	2.086	2.342	2.473	2.705	2.487	2.548	1.963	1.930	1.897	1.750	1.337	1.323	1.685	1.527	1.424	1.469	1.036	1.765	0.962	1.073	1.190	1.204	0.883	0.794	0.889	0.875	0.965	1.045	1.141	1.056	1.254	1.211	0.831	1.392	1.297	1.393	1.208	1.254	1.301	1.068	0.893	0.969	0.892	1.183	0.979	1.316	1.233	0.951	0.919	1.070	0.963
640.0	46.18	41.25	52.85	40.38	34.06	27.27	26.81	29.23	21.57	24.73	22.18	19.23	18.00	25.43	47.81	16.62	7.124	5.933	6.750	21.42	174.5	75.59	3.688	2.887	3.203	2.190	2.223	2.163	1.949	2.550	2.542	1.904	1.600	1.774	1.922	1.499	1.493	1.405	1.706	1.557	1.446	1.277	1.415	1.405	1.063	0.996	0.935	1.193	0.896	0.942	0.765	0.781	1.120	1.198	1.065	1.113	0.975	1.351	0.970	0.982	1.608	1.169	1.104	1.195	0.969	1.166	0.822	1.203	1.322	1.098	1.240	1.281	0.895	1.147	1.253	1.137	1.153
645.0	46.19	41.94	44.24	35.53	34.14	35.06	27.62	27.56	21.20	26.16	21.51	22.09	17.18	18.25	38.32	26.96	8.991	6.964	7.009	8.984	87.05	153.0	8.378	3.110	2.581	2.571	1.989	2.499	2.057	2.346	2.449	2.030	1.872	1.853	1.873	1.691	1.450	1.388	1.343	1.523	1.587	1.598	1.358	1.225	1.209	1.321	1.063	1.069	0.890	0.966	0.806	1.290	1.069	1.286	1.010	0.998	0.929	0.827	1.187	1.162	1.154	1.239	1.135	1.031	1.000	1.127	1.164	1.016	1.156	1.042	0.961	1.219	0.978	1.166	1.120	1.406	1.049
650.0	50.90	38.38	42.47	33.59	42.74	40.26	36.02	36.28	24.71	26.64	21.48	21.29	16.26	16.85	24.74	35.90	9.297	6.972	6.058	5.799	28.80	170.0	39.33	3.426	3.218	2.851	1.978	2.278	2.556	2.335	2.152	2.138	1.595	2.196	1.505	1.649	1.542	1.423	1.371	1.454	1.522	1.487	1.480	1.438	1.084	1.350	1.227	1.619	1.063	0.830	0.713	1.530	1.084	1.145	1.250	1.169	1.321	1.333	1.186	1.245	0.986	1.209	1.351	1.142	0.875	1.243	1.366	0.959	0.988	0.947	0.869	1.263	0.963	1.247	1.043	1.212	1.052
