Sample:	'1
File name:	G2025070113∫Í §≥¡µÌ≥ÿ 50±∂.FD3
Run date:	'15:46:11, 07/03/2025
Operator:	Administrator
Comment:	'

Instrument
Model:	F-2700 FL Spectrophotometer
Serial number:	23B8-004
ROM Version:	4J14000 07

Instrument parameters
Measurement type:	3-D scan
Data mode:	Fluorescence
EX  Start WL:	220.0 nm
EX  End WL:	600.0 nm
EX Sampling interval:	5.0 nm
EM  Start WL:	230.0 nm
EM  End WL:	650.0 nm
EM Sampling interval:	5.0 nm
Scan speed:	12000 nm/min
EX Slit:	5.0 nm
EM Slit:	5.0 nm
PMT Voltage:	700 V
Response:	Auto 
Corrected spectra:	Off
Contour interval:	50.000

Peak integration
Integration method:	Rectangular
Sensitivity:	1
Threshold:	1.000

Peaks
No.	ApexEX/EM(nm)	Height(Data)
1	225.0/340.0	3187
2	225.0/620.0	35.09
3	230.0/500.0	295.4
4	235.0/510.0	231.2
5	240.0/265.0	478.4
6	240.0/525.0	215.2
7	245.0/270.0	520.8
8	245.0/540.0	190.8
9	250.0/275.0	666.5
10	250.0/550.0	146.0
11	255.0/285.0	661.3
12	255.0/565.0	125.6
13	260.0/290.0	574.3
14	260.0/575.0	105.6
15	265.0/295.0	694.6
16	265.0/585.0	89.56
17	270.0/300.0	877.1
18	270.0/600.0	80.78
19	275.0/305.0	808.1
20	275.0/340.0	785.3
21	275.0/415.0	1538
22	275.0/435.0	1548
23	275.0/610.0	62.06
24	280.0/625.0	53.58
25	285.0/320.0	694.5
26	285.0/635.0	40.27
27	290.0/325.0	637.9
28	300.0/335.0	509.5
29	305.0/345.0	443.9
30	310.0/350.0	337.7
31	315.0/355.0	290.6
32	320.0/360.0	258.5
33	325.0/370.0	202.9
34	330.0/375.0	186.7
35	335.0/380.0	183.1
36	350.0/435.0	690.5
37	355.0/410.0	692.1
38	360.0/415.0	695.3
39	425.0/500.0	14.28
40	430.0/505.0	12.56
41	440.0/520.0	9.488
42	445.0/525.0	7.957
43	450.0/535.0	6.432
44	455.0/340.0	9.571
45	455.0/540.0	5.669
46	470.0/560.0	3.141
47	485.0/265.0	2.649
48	505.0/275.0	4.470
49	505.0/445.0	4.799
50	510.0/280.0	4.674
51	520.0/285.0	4.315
52	525.0/290.0	3.834
53	535.0/270.0	64.52
54	540.0/295.0	4.767
55	540.0/420.0	5.059
56	545.0/300.0	5.213
57	550.0/305.0	5.426
58	550.0/340.0	4.709
59	550.0/440.0	4.977
60	555.0/415.0	5.086
61	560.0/310.0	4.506
62	560.0/435.0	4.970
63	570.0/315.0	4.506
64	580.0/320.0	4.797
65	585.0/325.0	4.839

Data points
	220.0	225.0	230.0	235.0	240.0	245.0	250.0	255.0	260.0	265.0	270.0	275.0	280.0	285.0	290.0	295.0	300.0	305.0	310.0	315.0	320.0	325.0	330.0	335.0	340.0	345.0	350.0	355.0	360.0	365.0	370.0	375.0	380.0	385.0	390.0	395.0	400.0	405.0	410.0	415.0	420.0	425.0	430.0	435.0	440.0	445.0	450.0	455.0	460.0	465.0	470.0	475.0	480.0	485.0	490.0	495.0	500.0	505.0	510.0	515.0	520.0	525.0	530.0	535.0	540.0	545.0	550.0	555.0	560.0	565.0	570.0	575.0	580.0	585.0	590.0	595.0	600.0
230.0	110.6	2079	4498	1178	38.22	8.829	6.364	6.012	4.875	4.524	4.458	3.806	2.992	3.568	2.360	2.123	2.022	1.682	1.575	1.603	1.483	1.475	1.174	0.972	0.929	0.885	0.832	0.835	0.822	0.894	0.784	0.727	0.741	0.645	0.619	0.596	0.578	0.517	0.482	0.510	0.745	1.082	0.983	0.595	0.425	0.495	2.339	9.175	12.94	7.853	2.912	0.562	0.379	0.324	0.357	0.362	0.363	0.399	0.362	0.318	0.318	0.344	0.304	0.316	0.338	0.321	0.321	0.331	0.307	0.301	0.316	0.309	0.339	0.339	0.337	0.328	0.314
235.0	206.5	571.6	2927	4349	541.7	43.03	8.339	5.952	5.510	4.701	4.382	3.952	3.218	3.796	2.569	1.978	2.233	1.651	1.554	1.822	1.555	1.424	1.598	1.034	0.819	1.026	0.836	0.944	0.724	0.864	0.802	0.711	0.652	0.690	0.624	0.633	0.547	0.529	0.539	0.424	0.500	0.617	0.873	1.175	0.853	0.724	0.853	2.499	5.190	8.220	11.63	10.16	4.301	0.899	0.375	0.352	0.415	0.387	0.367	0.337	0.334	0.393	0.332	0.335	0.354	0.351	0.353	0.344	0.316	0.384	0.331	0.318	0.309	0.336	0.334	0.317	0.330
240.0	314.9	247.9	910.8	4167	3849	396.8	20.11	7.485	6.252	5.039	5.319	4.379	3.370	4.138	2.681	2.003	2.289	1.750	1.604	1.790	1.485	1.555	1.340	0.951	0.969	1.023	0.823	0.841	0.828	0.963	0.737	0.735	0.638	0.691	0.591	0.648	0.616	0.546	0.493	0.476	0.436	0.491	0.524	0.920	1.204	1.180	0.735	0.947	1.430	2.665	6.801	13.82	15.20	9.293	3.813	0.803	0.430	0.410	0.343	0.349	0.315	0.397	0.297	0.289	0.308	0.379	0.367	0.347	0.383	0.396	0.361	0.296	0.306	0.302	0.366	0.321	0.297
245.0	222.3	328.5	295.5	1548	4988	3220	266.9	13.05	7.213	5.836	5.915	5.485	3.500	4.169	2.633	2.337	2.556	1.818	1.701	1.931	1.624	1.520	1.255	1.169	0.912	0.916	0.821	0.768	0.932	0.911	0.819	0.786	0.669	0.647	0.611	0.578	0.586	0.502	0.554	0.523	0.428	0.553	0.454	0.587	0.862	1.070	1.296	1.047	0.700	0.888	1.846	4.910	11.66	18.68	22.72	12.57	3.886	0.520	0.359	0.364	0.342	0.392	0.386	0.323	0.357	0.329	0.376	0.405	0.343	0.314	0.337	0.326	0.320	0.321	0.380	0.356	0.344
250.0	91.51	237.2	323.3	448.3	1765	4354	4035	1067	53.95	8.966	7.564	5.480	4.288	5.213	3.029	2.678	2.446	1.905	1.795	1.953	1.700	1.627	1.295	1.099	0.933	1.050	0.996	0.941	1.004	1.002	0.857	0.835	0.689	0.722	0.663	0.646	0.632	0.548	0.504	0.524	0.497	0.502	0.541	0.574	0.555	0.605	0.903	1.222	1.297	1.065	0.954	1.450	3.126	6.601	15.91	26.08	34.39	36.55	10.84	2.264	0.491	0.357	0.400	0.383	0.362	0.343	0.337	0.356	0.372	0.329	0.300	0.309	0.334	0.332	0.366	0.343	0.367
255.0	55.18	85.85	261.5	407.3	483.7	1198	4199	7061	1422	48.47	10.94	7.583	5.358	6.572	3.633	3.448	2.957	2.369	1.890	2.115	1.837	1.836	1.424	1.162	1.083	1.157	1.096	0.967	1.057	1.008	1.011	0.809	0.716	0.742	0.681	0.595	0.600	0.557	0.490	0.612	0.497	0.529	0.579	0.548	0.454	0.513	0.511	0.629	0.805	1.298	1.665	1.565	1.257	1.825	4.003	6.530	14.81	44.54	47.18	27.23	15.00	2.478	0.462	0.432	0.409	0.401	0.318	0.385	0.381	0.379	0.346	0.346	0.345	0.360	0.311	0.355	0.302
260.0	45.74	48.56	111.9	374.3	383.4	347.1	1441	7205	7293	242.0	26.87	9.601	7.249	7.741	4.158	3.901	2.975	2.264	2.267	2.228	1.836	1.689	1.720	1.167	1.180	1.188	1.073	1.085	0.979	1.055	0.951	0.872	0.755	0.704	0.696	0.623	0.648	0.535	0.458	0.597	0.582	0.561	0.612	0.561	0.505	0.582	0.448	0.470	0.464	0.709	1.223	2.312	2.135	1.413	1.460	1.921	3.913	12.60	23.52	35.40	50.74	25.97	11.88	1.658	0.536	0.401	0.387	0.357	0.351	0.380	0.350	0.365	0.335	0.348	0.360	0.398	0.392
265.0	41.46	42.12	52.51	206.4	478.4	295.9	404.4	2806	9643	7277	195.1	14.30	8.267	8.493	4.668	4.328	3.472	2.609	2.200	2.367	2.118	1.933	1.614	1.191	1.218	1.176	1.161	1.112	1.000	1.101	1.004	0.971	0.801	0.722	0.824	0.704	0.665	0.569	0.517	0.590	0.545	0.550	0.568	0.459	0.452	0.538	0.508	0.456	0.404	0.450	0.598	1.547	2.348	2.649	1.850	1.183	1.555	3.464	6.051	11.58	32.28	53.64	62.73	25.44	6.733	0.629	0.401	0.403	0.358	0.384	0.371	0.377	0.324	0.405	0.290	0.361	0.440
270.0	63.04	50.99	45.35	92.88	306.4	520.8	343.3	724.4	3361	9471	9999.9	755.8	39.96	14.92	6.730	5.516	4.531	3.379	2.666	2.799	2.585	2.290	1.546	1.510	1.377	1.332	1.215	1.283	1.124	1.227	1.055	1.051	0.986	0.939	0.803	0.798	0.768	0.697	0.653	0.639	0.653	0.571	0.655	0.525	0.534	0.515	0.558	0.534	0.415	0.416	0.446	0.787	1.276	1.907	2.669	2.805	2.572	1.920	2.088	3.198	8.057	16.58	34.63	64.52	46.72	46.04	14.72	5.683	0.677	0.468	0.426	0.421	0.385	0.395	0.419	0.391	0.426
275.0	104.5	74.60	53.54	68.10	156.0	367.1	666.5	410.6	811.2	2456	9669	9999.9	1016	58.34	10.48	8.087	5.972	3.881	3.357	3.553	2.799	2.667	1.754	1.555	1.393	1.401	1.377	1.352	1.196	1.433	1.039	1.249	1.123	1.212	0.969	0.952	0.939	0.710	0.742	0.687	0.697	0.672	0.696	0.553	0.643	0.578	0.603	0.572	0.442	0.433	0.478	0.557	0.855	1.162	1.434	2.007	3.630	4.470	2.827	1.594	2.387	4.313	8.227	15.35	16.40	39.10	64.77	76.12	23.30	6.831	0.688	0.460	0.574	0.451	0.441	0.431	0.451
280.0	127.8	103.7	65.43	64.22	118.5	226.0	527.6	643.2	308.1	603.7	2903	9999.9	9147	859.1	20.74	10.34	7.782	4.780	3.864	4.403	3.414	2.783	2.031	1.647	1.650	1.489	1.351	1.242	1.244	1.325	1.215	1.190	1.305	1.301	1.128	1.094	1.040	0.881	0.755	0.790	0.691	0.775	0.816	0.593	0.759	0.685	0.678	0.643	0.487	0.506	0.464	0.604	0.753	0.825	1.090	1.407	2.129	3.590	4.674	3.513	1.900	1.535	2.431	4.030	4.199	10.16	24.70	62.88	79.60	34.63	18.42	1.967	0.641	0.481	0.551	0.423	0.465
285.0	162.9	129.2	90.61	67.36	105.6	167.2	279.9	661.3	333.4	219.4	722.9	3644	9999.9	8678	112.7	15.27	9.654	5.795	4.459	4.739	3.285	3.098	2.013	1.868	1.653	1.391	1.342	1.268	1.330	1.547	1.287	1.334	1.262	1.279	1.352	1.251	1.099	0.911	0.820	0.824	0.839	0.822	0.881	0.785	0.830	0.751	0.664	0.678	0.544	0.481	0.527	0.595	0.713	0.827	0.904	1.144	1.284	1.822	2.913	4.165	4.315	2.285	1.316	1.525	1.459	2.915	6.201	16.93	36.72	81.44	95.68	28.89	11.86	1.055	0.566	0.508	0.453
290.0	225.5	184.0	120.2	78.89	90.09	130.0	160.3	305.4	574.3	466.8	292.0	930.8	3449	9999.9	9632	1893	31.28	8.276	6.141	6.433	4.511	3.612	2.555	2.049	1.664	1.808	1.589	1.554	1.410	1.656	1.459	1.456	1.318	1.470	1.405	1.271	1.229	1.066	0.962	0.968	0.951	0.836	0.916	0.866	0.934	0.896	0.843	0.879	0.726	0.600	0.546	0.607	0.604	0.752	0.831	0.870	1.009	1.166	1.408	1.958	2.814	3.834	3.824	2.778	1.536	1.384	2.146	4.641	9.171	21.65	40.04	45.60	66.83	57.01	19.71	9.406	1.466
295.0	275.4	230.7	153.8	93.23	84.32	104.0	115.8	150.0	266.8	694.6	586.5	364.9	887.3	2569	8120	9999.9	653.1	24.16	8.408	8.716	6.090	4.294	3.113	2.207	2.076	2.051	1.740	1.474	1.510	1.656	1.396	1.660	1.612	1.681	1.821	1.341	1.431	1.172	1.017	1.048	1.033	1.044	1.055	0.993	1.042	1.029	0.986	1.092	0.855	0.650	0.584	0.742	0.681	0.637	0.767	0.811	0.888	0.932	1.051	1.160	1.250	1.765	2.542	4.536	4.767	2.702	1.739	2.187	2.936	5.773	9.759	11.04	17.94	34.35	79.13	100.6	32.19
300.0	309.4	256.6	177.1	100.4	79.84	90.69	102.8	117.3	170.1	424.3	877.1	441.9	341.0	680.2	2297	9999.9	9999.9	459.9	14.39	11.85	7.393	5.503	3.829	2.939	2.306	2.385	1.798	1.540	1.746	1.847	1.653	1.560	1.566	1.674	1.814	1.452	1.660	1.274	1.077	1.075	1.093	1.057	1.138	0.995	1.132	1.107	1.044	1.057	0.869	0.755	0.697	0.684	0.601	0.644	0.698	0.861	0.844	0.894	0.963	1.029	1.044	1.259	1.501	2.571	4.249	5.213	3.914	2.352	1.739	2.473	3.220	3.427	4.736	8.724	24.93	60.64	104.6
305.0	349.2	286.0	204.1	111.9	85.42	89.27	105.0	129.2	161.8	271.1	673.6	808.1	305.8	273.9	583.6	3392	9999.9	4937	72.13	16.04	9.747	6.633	4.222	3.280	2.462	2.421	1.971	1.879	1.647	1.970	1.564	1.557	1.577	1.819	1.957	1.506	1.521	1.359	1.171	1.052	1.184	1.000	1.171	1.108	1.150	1.249	1.175	1.145	1.011	0.762	0.757	0.821	0.641	0.697	0.781	0.930	0.881	0.862	1.001	1.255	1.301	1.357	1.393	1.778	2.496	3.912	5.426	4.923	2.788	1.964	1.816	1.715	1.906	2.714	6.366	15.18	39.53
310.0	359.3	319.7	222.7	128.3	95.07	97.51	113.3	139.8	177.7	242.9	389.2	688.5	654.9	276.3	210.1	821.4	3769	8336	8420	1738	27.63	9.577	5.376	3.808	2.799	2.870	2.131	2.364	1.657	2.077	1.651	1.754	1.620	1.953	1.897	1.617	1.499	1.316	1.265	1.160	1.293	1.178	1.290	1.205	1.242	1.419	1.196	1.282	1.018	0.901	0.771	0.740	0.757	0.855	0.862	0.939	1.033	1.009	0.987	1.159	1.195	1.462	1.528	1.742	1.943	2.315	3.038	3.949	4.506	4.153	2.895	1.779	1.315	1.437	2.251	4.054	9.562
315.0	486.8	445.4	300.3	161.5	115.1	119.7	139.0	171.7	213.9	268.0	337.6	421.1	604.6	604.2	161.6	249.7	893.1	2022	7178	9999.9	512.1	24.78	7.660	5.224	3.703	3.429	2.685	2.394	1.823	2.211	1.809	1.776	1.606	1.954	1.889	1.592	1.730	1.459	1.259	1.278	1.252	1.379	1.365	1.407	1.506	1.730	1.807	1.637	1.290	1.136	0.814	0.860	0.838	0.878	0.999	0.948	1.114	1.152	1.231	1.367	1.427	1.543	1.538	1.858	1.857	2.104	2.269	2.563	2.657	3.533	4.506	4.191	2.286	1.588	1.383	1.732	2.897
320.0	1022	1063	648.5	251.4	157.1	156.5	188.8	243.7	292.7	355.1	415.5	441.4	476.7	694.5	415.7	151.2	263.8	496.9	1974	9999.9	9999.9	392.2	14.18	6.329	4.099	3.758	2.768	2.609	2.286	2.471	2.161	1.985	1.879	1.964	1.966	1.702	1.739	1.751	1.528	1.500	1.504	1.982	1.877	2.143	2.517	3.067	3.175	3.474	2.543	1.587	1.139	1.084	0.974	0.898	1.181	1.169	1.309	1.446	1.485	1.742	1.722	2.075	2.001	2.363	2.365	2.587	2.640	2.749	2.475	2.715	3.490	4.424	4.797	3.165	1.684	1.326	1.575
325.0	1622	1718	1142	458.1	239.2	215.6	250.6	315.0	391.9	479.7	534.8	544.5	501.1	567.5	637.9	269.4	145.5	170.8	488.5	3591	9999.9	4022	59.49	8.789	5.415	4.565	3.091	2.995	2.405	2.417	2.232	2.229	2.038	1.938	2.005	1.907	2.107	1.822	1.778	1.953	1.983	2.334	2.563	3.039	3.855	4.735	5.418	5.675	4.564	2.606	1.687	1.568	1.233	1.147	1.314	1.341	1.569	1.828	1.698	2.037	2.257	2.638	2.655	2.772	2.944	3.112	3.150	3.178	3.156	2.869	2.948	3.429	4.186	4.839	3.717	2.026	1.497
330.0	1999	2350	1762	862.4	480.1	351.2	346.4	397.8	475.6	560.0	625.6	650.2	586.6	530.7	541.8	515.1	268.2	139.2	182.4	868.9	3457	9626	7495	1193	18.61	6.521	4.186	3.673	2.677	2.888	2.606	2.350	2.135	2.170	2.011	2.047	2.149	1.979	1.970	2.127	2.333	2.623	3.206	3.781	4.764	6.024	6.474	7.060	5.994	3.963	3.105	2.717	2.317	2.138	1.908	1.896	1.974	2.116	2.105	2.341	2.631	2.850	3.231	3.392	3.660	3.717	3.779	3.621	3.514	3.426	3.362	3.234	3.287	3.609	3.897	3.978	3.258
335.0	2501	3036	2328	1303	801.6	530.5	461.2	487.0	573.2	653.1	738.7	757.9	699.6	608.8	506.5	479.5	509.5	253.7	151.6	279.2	840.0	2322	6209	8599	415.9	20.17	5.941	4.740	3.138	3.416	2.653	2.782	2.215	2.196	2.304	2.119	2.298	2.342	2.275	2.638	2.573	3.289	3.838	4.287	5.643	6.950	7.748	8.895	7.583	5.559	4.351	4.348	3.818	3.258	2.634	2.451	2.421	2.715	2.648	2.634	3.162	3.487	3.584	3.709	4.032	4.121	4.323	4.143	4.215	3.914	3.856	3.630	3.771	3.649	3.225	3.261	3.928
340.0	2637	3187	2563	1476	931.0	608.5	489.3	516.8	596.6	685.5	766.9	785.3	733.1	642.9	513.9	414.0	475.1	416.7	179.1	152.7	261.9	573.6	1675	6905	6928	356.8	11.60	6.160	4.356	4.047	3.167	3.012	2.433	2.479	2.313	2.271	2.384	2.597	2.284	2.691	2.993	3.239	3.768	4.622	5.946	7.455	8.416	9.571	8.210	6.052	4.924	4.757	4.228	3.666	3.104	2.654	2.669	2.574	2.878	2.910	3.187	3.663	3.671	3.896	4.160	4.376	4.709	4.283	4.341	4.292	4.145	3.992	3.704	3.599	3.242	3.060	3.286
345.0	2449	2965	2487	1515	972.0	649.1	498.6	503.7	568.0	653.6	729.3	751.5	715.1	625.9	500.6	389.7	354.2	443.9	278.6	132.0	131.5	185.4	415.5	2060	7266	3390	52.34	8.559	5.200	5.090	3.685	2.989	2.567	2.402	2.359	2.252	2.887	2.528	2.378	2.800	2.762	3.180	3.617	4.368	5.578	7.048	7.674	8.667	7.961	5.900	5.112	5.170	4.345	3.726	3.157	2.771	2.702	2.752	2.752	2.911	3.151	3.379	3.631	3.549	3.880	3.972	4.346	4.165	4.163	4.308	4.222	3.834	3.526	3.546	3.326	2.941	2.708
350.0	2160	2607	2235	1480	980.1	648.9	483.7	467.8	523.8	596.5	655.0	683.6	664.6	590.5	481.2	376.6	304.9	308.9	337.7	223.4	115.6	104.0	138.7	488.4	2090	5616	5092	1269	18.63	7.090	4.436	3.522	2.698	2.634	2.458	2.261	2.693	2.414	2.422	2.767	2.752	3.107	3.382	3.992	5.029	6.269	6.809	7.922	7.093	5.430	4.848	5.210	4.497	3.875	3.086	2.834	2.664	2.613	2.619	2.553	2.823	3.195	3.438	3.362	3.463	3.809	3.877	3.851	3.936	3.841	3.796	3.696	3.601	3.219	3.032	2.795	2.686
355.0	1833	2194	1956	1360	936.5	614.3	454.6	421.1	459.5	521.2	576.7	607.8	582.0	533.5	445.2	351.3	280.0	232.6	228.6	290.6	184.9	91.00	80.07	140.5	488.4	1323	3617	8216	402.7	25.89	6.201	4.502	3.009	3.100	2.482	2.282	2.625	2.523	2.329	2.671	2.631	2.825	3.270	3.390	4.625	5.128	6.051	6.691	5.979	5.121	4.518	4.925	4.013	3.687	3.095	2.638	2.237	2.511	2.375	2.273	2.592	2.864	2.933	3.039	3.128	3.241	3.404	3.357	3.587	3.200	3.222	3.342	3.371	2.786	2.591	2.786	2.778
360.0	1629	1890	1704	1196	842.0	560.3	406.3	373.2	410.9	454.7	516.1	531.9	515.9	476.0	410.3	325.6	256.0	205.7	178.2	221.3	258.5	125.7	68.44	65.81	133.7	317.3	931.3	5689	6553	376.5	16.07	5.390	3.731	3.359	2.755	2.452	2.769	2.324	2.482	2.577	2.550	2.746	2.865	3.119	3.799	4.623	5.122	5.449	5.260	4.675	4.125	4.329	3.898	3.267	2.923	2.651	2.423	2.177	2.280	2.182	2.382	2.659	2.694	2.701	3.034	2.990	2.871	3.314	3.124	3.095	3.144	2.974	3.147	2.709	2.621	2.556	2.550
365.0	1329	1578	1424	1095	775.9	525.6	382.6	339.2	365.7	400.8	453.1	465.2	463.7	428.4	369.0	302.6	241.5	192.0	159.5	156.7	232.9	199.4	73.02	51.33	57.34	94.31	226.7	1568	6024	7674	305.1	8.580	4.391	4.077	2.835	2.450	2.742	2.449	2.448	2.342	2.520	2.528	2.533	3.046	3.468	3.945	4.391	4.855	4.476	4.063	3.530	3.935	3.653	2.970	2.670	2.248	2.258	2.122	2.042	1.921	2.244	2.157	2.312	2.450	2.630	2.718	2.702	3.080	2.802	2.765	2.853	2.687	2.736	2.647	2.384	2.359	2.264
370.0	1149	1310	1186	921.7	683.3	474.3	345.6	305.4	317.1	345.4	379.4	398.6	392.3	371.4	324.3	272.4	227.0	184.4	152.5	134.4	150.3	202.9	162.0	61.11	44.73	47.62	70.21	365.4	1663	6238	5599	1246	18.64	5.434	3.804	3.097	2.863	2.642	2.285	2.362	2.243	2.260	2.469	2.743	2.943	3.249	3.706	4.054	3.850	3.357	3.061	3.505	3.278	2.802	2.497	2.039	2.084	1.923	1.833	1.803	1.952	1.942	2.197	2.167	2.227	2.193	2.438	2.530	2.429	2.601	2.389	2.375	2.426	2.200	2.370	2.212	2.143
375.0	941.0	1069	979.7	763.3	598.3	415.1	314.7	265.2	268.7	291.2	320.7	330.1	334.0	321.3	285.6	246.8	207.8	179.7	150.9	131.3	119.5	133.7	186.7	142.8	56.18	41.70	38.86	98.05	382.4	1436	3698	7413	1815	23.24	5.466	3.681	3.676	2.630	2.347	2.206	2.297	2.213	2.203	2.370	2.538	2.691	3.171	3.253	3.175	2.652	2.680	3.083	2.798	2.379	2.215	1.828	1.886	1.750	1.898	1.709	1.645	1.718	1.875	1.818	1.860	1.841	2.078	2.022	2.098	2.179	2.064	1.977	2.072	1.984	2.117	1.904	2.011
380.0	839.9	888.1	819.1	676.7	544.4	395.7	294.2	250.1	242.8	258.0	284.4	301.8	301.8	292.4	262.5	230.9	198.8	178.3	155.5	136.3	119.5	113.2	138.5	183.1	97.87	46.28	35.05	42.40	100.7	334.8	938.4	4859	6654	318.8	14.40	5.106	4.093	3.216	2.412	2.394	2.234	2.358	2.311	2.224	2.322	2.522	2.710	2.938	2.742	2.384	2.328	2.687	2.535	2.434	2.154	1.862	1.684	1.707	1.571	1.463	1.579	1.705	1.754	1.687	1.719	1.872	1.820	1.817	1.909	1.984	1.893	1.937	1.826	1.727	1.993	1.902	1.967
385.0	721.4	757.6	715.0	612.2	495.9	383.4	290.0	249.9	230.4	242.1	274.2	281.6	288.4	276.9	254.2	224.6	199.2	176.6	159.2	142.6	124.2	116.1	112.3	157.0	162.3	61.96	42.59	36.46	44.56	95.38	228.1	1321	5449	6020	257.4	9.288	5.624	3.754	2.796	2.596	2.289	1.933	2.072	2.200	2.248	2.399	2.375	2.675	2.526	2.445	2.187	2.578	2.406	2.361	1.937	1.789	1.757	1.692	1.511	1.398	1.551	1.524	1.505	1.594	1.630	1.707	1.774	1.677	1.926	1.724	1.792	1.795	1.875	1.926	1.862	1.777	1.831
390.0	651.5	668.1	640.1	557.8	484.3	390.0	317.9	278.2	273.5	291.2	323.1	336.6	332.9	319.5	284.5	249.5	218.2	197.8	182.5	168.2	153.9	145.8	136.6	142.2	179.8	165.4	95.08	70.86	67.48	74.30	90.39	330.7	1480	4695	4089	1017	20.53	7.420	4.041	2.947	2.618	2.163	2.094	2.078	2.168	2.264	2.085	2.376	2.286	2.128	2.000	2.299	2.194	2.342	1.947	1.743	1.882	1.695	1.692	1.578	1.541	1.556	1.589	1.697	1.719	1.742	1.718	1.816	1.805	1.939	1.887	1.901	1.959	2.063	1.938	1.896	1.740
395.0	610.9	604.6	618.5	552.8	508.1	456.4	414.2	367.3	413.5	463.6	522.8	546.0	510.4	474.8	408.1	337.4	284.1	250.7	236.9	230.7	227.2	225.5	220.9	218.6	230.4	262.7	253.3	187.3	165.2	157.1	150.8	187.3	421.4	1148	2633	5686	1691	26.39	7.807	4.066	3.055	2.553	2.351	2.231	2.327	2.127	2.046	2.383	2.221	2.108	1.984	2.344	2.305	2.314	2.255	2.052	2.121	2.236	2.152	1.925	1.867	1.785	2.144	2.222	2.322	2.271	2.329	2.436	2.350	2.389	2.342	2.255	2.204	2.182	2.268	2.192	2.119
400.0	642.7	614.0	633.5	614.8	576.2	547.2	546.0	548.0	615.0	710.7	804.8	826.9	772.3	689.9	583.0	464.5	376.7	329.7	311.2	309.5	315.0	325.5	337.3	339.0	347.5	363.4	411.3	363.1	307.2	293.8	270.7	251.1	263.4	394.8	763.6	3697	6285	278.8	18.75	5.859	3.642	2.860	2.662	2.348	2.565	2.378	2.251	2.194	2.276	2.123	2.055	2.681	2.468	2.592	2.661	2.393	2.669	2.650	2.567	2.477	2.484	2.508	2.886	2.782	2.813	3.171	3.145	3.096	3.087	2.956	3.064	2.744	2.964	2.898	2.699	2.530	2.738
405.0	664.1	653.3	675.5	675.2	672.4	679.8	692.7	730.9	841.0	998.9	1127	1148	1078	949.7	783.2	608.3	485.7	418.3	396.1	399.5	418.3	439.6	469.2	484.4	491.7	486.6	546.5	562.1	457.4	439.6	417.2	377.8	324.0	301.5	349.3	1118	5047	4256	220.6	10.41	4.561	3.475	3.035	2.642	2.565	2.663	2.390	2.378	2.399	2.320	2.353	2.750	2.705	2.868	2.887	2.859	3.274	3.188	3.051	3.027	3.014	3.386	3.604	3.544	3.837	3.930	3.667	3.877	4.012	3.576	3.699	3.537	3.660	3.727	3.081	2.977	2.992
410.0	671.5	688.1	714.0	733.0	763.5	795.9	835.2	917.5	1065	1268	1436	1463	1365	1192	975.2	753.4	585.3	496.4	472.5	487.0	512.8	547.3	588.4	617.5	636.0	647.0	664.7	692.1	676.1	617.5	568.0	503.2	415.1	345.1	308.8	434.8	1455	3230	2848	885.9	15.85	4.405	3.523	3.042	2.913	2.968	2.690	2.695	2.591	2.500	2.442	3.109	3.060	3.139	3.200	3.255	3.445	3.498	3.498	3.661	3.718	3.855	4.250	4.416	4.545	4.833	4.633	4.852	4.711	4.693	4.555	4.396	4.386	4.072	3.889	3.545	3.492
415.0	665.9	653.4	694.3	717.5	781.6	818.1	877.0	958.3	1124	1324	1511	1538	1429	1247	1025	783.2	610.1	514.2	494.1	505.3	531.3	573.7	612.3	648.0	664.4	674.9	680.9	680.3	695.3	679.8	599.0	518.2	423.3	345.7	291.7	274.1	447.4	799.2	1678	4075	1166	18.00	4.262	3.266	3.236	2.925	2.629	2.785	2.485	2.390	2.477	2.880	3.275	3.154	3.233	3.170	3.663	3.714	3.975	3.793	3.944	4.017	4.380	4.808	4.737	4.830	4.905	5.086	4.848	4.843	4.470	4.772	4.423	4.266	4.106	3.494	3.597
420.0	631.6	620.3	656.8	702.3	751.2	807.9	877.0	971.4	1115	1303	1471	1517	1391	1227	1003	764.6	594.4	502.4	485.8	499.0	524.7	567.0	597.5	629.6	648.4	655.3	652.3	645.3	643.4	654.7	596.0	499.1	403.7	326.1	271.1	224.4	210.9	236.6	437.8	2612	3527	247.4	9.901	3.660	3.308	2.940	2.810	2.754	2.460	2.337	2.345	2.846	3.188	3.239	3.307	3.102	3.505	3.672	3.790	3.702	3.939	4.124	4.322	4.443	5.059	4.513	4.874	4.855	4.652	4.423	4.510	4.528	4.207	4.059	3.909	3.641	3.804
425.0	628.1	600.7	638.5	696.0	765.7	827.5	899.1	987.9	1112	1297	1463	1498	1379	1216	991.2	759.9	584.3	493.7	485.1	498.1	517.9	558.1	594.6	619.5	641.6	648.8	645.4	633.9	614.5	620.4	599.7	500.4	396.4	317.9	265.5	211.7	156.6	109.0	120.5	707.8	2843	2141	196.9	5.464	3.752	3.047	2.755	2.699	2.653	2.359	2.412	3.066	2.876	3.196	3.356	3.387	3.863	3.757	3.758	3.795	3.803	3.951	4.075	4.426	4.561	4.593	4.608	4.554	4.623	4.734	4.476	4.436	4.353	4.186	3.893	3.691	3.391
430.0	1039	616.3	640.9	702.3	786.9	882.2	972.3	1056	1175	1338	1503	1536	1419	1248	1025	779.8	598.6	509.9	498.0	506.5	530.8	571.9	611.6	646.4	665.8	674.0	674.7	664.7	643.9	628.8	617.5	556.0	431.9	339.2	279.1	224.6	153.7	84.90	51.65	168.7	765.1	2039	2661	774.3	14.22	3.701	2.921	2.971	2.615	2.472	2.498	2.861	3.022	3.143	3.647	3.602	4.013	4.284	4.193	4.153	4.133	4.059	4.542	4.618	4.907	4.679	4.635	4.748	4.798	4.816	4.393	4.400	4.317	4.246	3.917	3.627	3.231
435.0	2119	658.4	667.5	723.5	829.7	946.7	1055	1121	1233	1388	1536	1548	1437	1261	1036	794.6	608.9	522.9	501.6	515.5	539.6	572.1	612.9	653.1	677.5	687.4	690.5	685.8	668.5	650.3	620.4	569.4	474.2	362.8	290.9	233.0	160.9	83.56	38.66	48.72	176.8	471.5	1648	3447	1253	18.13	3.887	3.148	2.844	2.669	2.534	3.234	3.188	3.374	3.722	4.047	4.323	4.580	4.526	4.155	4.412	4.364	4.472	4.892	4.783	4.874	4.869	4.821	4.970	4.784	4.452	4.397	4.628	4.349	3.859	3.715	3.423
440.0	3080	937.8	650.6	724.6	831.7	955.4	1067	1143	1199	1341	1446	1491	1379	1203	999.2	770.9	595.4	508.6	492.7	498.0	511.8	547.4	592.3	628.2	651.7	662.6	664.6	663.1	643.2	624.8	589.7	533.7	465.1	368.0	287.3	228.3	156.6	81.15	34.66	21.43	45.25	110.2	422.1	2324	4018	235.0	9.578	3.435	3.107	2.784	2.575	2.968	3.316	3.452	3.834	4.098	4.476	4.666	4.744	4.257	4.670	4.488	4.454	4.635	4.677	4.817	4.977	4.552	4.578	4.550	4.437	4.568	4.447	4.149	3.737	3.506	3.583
445.0	3230	1557	623.9	687.8	817.1	951.1	1050	1102	1140	1225	1335	1370	1270	1123	920.8	718.5	559.6	479.8	466.4	468.1	474.3	504.0	544.5	577.0	596.2	608.5	607.8	609.0	586.8	569.3	535.3	477.5	413.9	349.0	271.4	206.6	142.9	74.06	32.04	15.48	16.16	29.46	99.34	641.9	3396	3232	172.5	4.908	3.517	2.823	2.586	3.011	3.409	3.407	3.952	3.994	4.483	4.799	4.685	4.469	4.587	4.260	4.320	4.271	4.498	4.545	4.285	4.012	4.202	4.356	4.023	4.164	3.978	3.943	3.613	3.621	3.500
450.0	2048	2786	858.8	644.7	766.2	910.4	1009	1042	1035	1078	1155	1174	1093	969.0	809.2	630.2	496.9	431.5	415.0	416.1	416.4	438.3	470.3	494.2	510.2	518.5	521.0	515.9	499.2	484.4	454.2	402.8	338.2	290.3	247.0	182.0	121.6	63.35	27.95	13.23	9.981	11.06	26.43	147.4	929.5	2494	2455	662.4	11.39	3.070	2.608	2.978	3.462	3.590	3.667	4.091	4.436	4.622	4.520	4.315	4.059	3.906	3.863	3.872	3.710	3.912	3.927	3.663	3.612	3.707	3.646	3.717	3.437	3.329	3.106	3.199	3.045
455.0	952.3	2756	1998	614.4	727.3	845.9	958.9	969.6	944.0	933.5	982.3	994.3	930.3	833.1	698.1	554.0	436.6	380.0	364.8	362.9	363.3	376.1	399.8	425.7	431.5	443.1	446.7	443.5	430.1	412.6	388.4	343.3	286.6	236.2	208.5	171.3	108.6	54.64	24.49	11.81	8.171	7.441	9.650	36.55	210.8	573.6	1474	2913	932.9	13.19	3.127	3.188	3.294	3.545	3.396	4.185	4.402	4.340	4.279	4.255	4.132	3.735	3.394	3.540	3.211	3.446	3.316	3.242	3.152	3.028	3.287	3.225	2.938	2.950	3.026	2.909	2.694
460.0	594.2	1822	3148	744.0	677.9	819.3	911.8	905.3	857.3	854.5	888.1	885.5	839.2	748.3	624.0	497.1	406.3	346.4	335.8	331.0	327.5	335.3	359.9	383.4	391.1	399.8	399.3	397.6	386.8	375.9	352.5	311.9	258.1	209.1	179.5	159.3	110.6	53.28	23.59	11.27	7.682	6.453	6.176	11.77	50.47	131.6	372.4	1907	3295	175.2	8.191	3.289	3.150	3.393	3.354	3.863	4.422	4.037	4.223	3.985	3.827	3.490	3.338	3.231	2.971	2.922	2.976	3.036	2.902	2.751	2.980	3.005	2.809	2.798	2.885	2.557	2.335
465.0	487.8	980.0	3469	1262	645.0	770.8	853.8	848.7	797.0	773.1	800.8	804.4	752.3	668.7	566.3	448.7	363.0	318.6	307.6	298.5	294.2	305.5	324.5	346.7	352.6	362.1	362.6	357.1	354.5	340.8	322.9	284.7	233.8	188.6	159.0	139.0	108.1	55.87	22.62	10.72	7.590	6.236	6.011	6.002	14.52	32.85	86.87	521.1	2911	2604	146.3	5.029	3.220	3.506	3.460	3.722	4.246	3.957	4.070	3.668	3.374	3.349	3.135	3.071	2.658	2.945	2.735	2.905	2.723	2.758	2.861	2.830	2.512	2.731	2.451	2.292	2.501
470.0	473.0	535.9	2188	2352	787.3	687.7	767.7	757.2	685.2	661.7	677.7	682.7	639.2	571.7	479.2	386.6	310.8	275.0	265.0	257.3	250.6	257.2	273.9	290.3	300.5	306.1	308.5	304.2	300.0	289.0	274.6	243.2	200.4	162.0	135.9	111.1	89.51	57.84	25.78	10.48	6.951	5.543	5.136	4.706	6.241	10.17	22.29	119.3	787.9	1972	1677	620.3	11.57	3.357	3.563	3.468	3.944	3.722	3.608	3.388	3.122	2.948	2.876	2.597	2.427	2.486	2.543	2.530	2.365	2.410	2.425	2.400	2.270	2.255	2.144	2.076	2.169
475.0	492.0	382.5	871.7	2508	1658	608.9	665.8	657.0	587.2	543.0	549.8	551.4	522.5	465.1	393.7	317.7	258.2	228.4	219.8	213.1	204.4	207.7	220.2	234.4	240.2	244.1	248.8	247.1	242.6	232.2	221.3	194.1	162.9	130.7	109.4	88.90	65.71	48.20	31.40	13.31	6.773	5.151	4.226	3.929	4.602	4.910	7.344	29.00	177.9	449.1	883.2	2038	782.4	15.00	3.399	3.339	3.608	3.180	3.267	3.019	2.626	2.490	2.473	2.224	2.119	2.144	2.117	2.063	1.992	1.984	2.038	2.027	1.922	2.052	1.796	1.817	1.705
480.0	449.4	356.1	427.5	1706	2780	706.7	585.7	574.1	508.7	468.9	463.6	467.8	441.5	391.9	338.5	271.8	224.9	200.8	192.7	184.4	173.5	174.3	185.7	197.9	202.6	206.1	207.5	207.9	203.2	198.4	185.3	164.8	135.7	110.4	91.57	72.73	53.18	35.72	30.44	18.68	7.136	5.180	4.271	3.628	3.951	3.979	3.948	8.563	41.82	102.2	216.9	1157	2286	203.3	8.976	3.222	3.549	3.370	3.158	2.826	2.574	2.400	2.237	2.093	1.745	1.832	1.718	1.872	1.834	1.881	1.704	1.753	1.726	1.747	1.520	1.641	1.629
485.0	390.7	356.4	321.3	880.6	3326	1296	531.7	514.8	446.2	403.2	397.0	399.7	371.3	339.7	287.3	238.2	198.3	177.7	167.3	162.7	150.1	151.4	158.3	169.1	175.4	177.4	177.1	177.8	174.0	169.6	159.0	140.9	116.7	95.81	78.95	62.04	45.08	28.04	23.88	21.49	10.68	5.229	4.019	3.513	3.427	3.517	3.204	3.981	11.37	24.83	50.56	307.3	1766	1660	165.1	5.309	3.572	3.294	2.957	2.470	2.293	2.226	1.883	2.034	1.721	1.685	1.544	1.602	1.629	1.587	1.535	1.470	1.563	1.531	1.392	1.554	1.530
490.0	298.1	366.7	282.7	418.1	2270	2709	610.4	445.3	380.4	336.8	334.7	333.4	311.9	280.9	240.3	199.2	166.6	148.8	143.8	137.5	126.1	126.4	132.9	138.3	145.7	147.4	148.9	146.9	145.2	141.5	133.2	117.3	97.01	79.18	65.97	51.94	37.38	22.40	16.02	17.44	16.18	8.276	4.276	3.386	3.119	3.140	2.982	3.056	4.382	7.295	13.02	70.59	463.6	1190	1753	660.3	13.89	3.450	2.789	2.489	2.219	2.154	1.806	1.692	1.518	1.462	1.372	1.372	1.431	1.499	1.369	1.287	1.394	1.314	1.431	1.399	1.285
495.0	225.8	313.6	288.6	260.5	886.1	3121	1274	379.7	319.8	279.4	273.6	271.7	258.1	232.5	195.7	166.2	137.1	123.7	117.5	113.0	105.8	103.9	110.1	115.2	118.7	122.6	122.7	122.5	117.5	117.1	110.2	97.36	82.24	66.21	54.82	43.25	31.48	19.28	11.91	10.36	14.91	13.14	6.568	3.500	3.005	2.904	2.687	2.957	3.090	3.251	4.447	17.60	105.3	271.4	915.3	2196	954.6	17.95	2.843	2.406	2.255	1.861	1.495	1.530	1.261	1.252	1.273	1.258	1.167	1.320	1.102	1.019	1.218	1.210	1.233	1.263	1.202
500.0	192.1	248.9	295.4	220.3	392.3	2210	2202	438.4	279.1	244.8	238.1	229.8	218.7	201.9	168.5	141.7	117.7	107.4	102.4	95.71	89.64	87.83	93.00	97.40	101.8	103.0	104.8	106.4	102.0	100.5	94.71	84.12	70.52	57.24	47.45	37.60	28.08	17.17	10.08	7.487	9.801	14.28	9.358	4.103	3.088	2.798	2.385	2.567	2.873	2.428	2.400	5.627	25.32	62.63	223.3	1197	2447	232.2	9.898	2.490	2.161	1.849	1.471	1.473	1.307	1.207	1.146	1.154	1.021	1.183	1.035	0.986	1.113	1.100	1.228	1.100	1.187
505.0	161.3	199.9	293.9	227.6	259.7	1119	2725	895.7	244.4	207.4	202.1	199.9	189.7	171.0	143.7	120.7	100.6	92.65	88.71	84.29	77.41	76.03	79.21	83.19	87.64	88.44	90.06	90.73	86.92	85.85	80.72	71.70	61.14	49.07	41.57	32.63	23.84	14.78	8.984	6.491	6.371	11.46	12.56	6.145	3.023	2.666	2.147	2.124	2.480	2.512	1.996	2.685	7.351	15.93	52.09	306.8	1725	1902	186.5	5.019	2.098	1.751	1.512	1.347	1.244	1.095	1.169	1.028	1.003	0.995	0.969	0.903	0.996	0.939	0.972	0.990	1.075
510.0	147.5	143.2	226.4	231.2	196.6	437.5	1851	2309	285.3	173.2	167.8	161.6	150.8	139.0	115.5	97.32	83.10	75.55	71.62	68.19	62.67	61.20	64.26	66.44	70.17	71.44	71.22	71.83	70.07	68.67	65.57	57.90	48.93	40.04	33.62	26.36	19.81	12.76	7.648	5.496	4.865	6.534	10.50	9.749	5.051	2.669	2.064	1.960	1.995	2.176	2.174	2.076	3.056	5.015	13.30	70.25	442.3	1319	1538	582.1	13.24	2.050	1.508	1.267	1.110	1.072	0.977	0.986	0.921	0.878	0.870	0.808	0.843	0.852	0.807	0.891	0.972
515.0	117.7	125.5	151.0	223.8	188.0	230.0	696.3	3119	1222	144.0	130.9	128.2	118.6	109.7	91.70	78.33	63.73	59.72	55.56	53.32	50.01	47.37	49.82	51.69	53.83	54.84	55.31	56.40	54.63	53.91	51.11	45.60	37.78	31.00	26.38	20.67	16.05	10.23	6.484	4.814	4.251	4.115	5.893	9.701	8.808	3.732	2.060	1.845	1.760	1.724	1.995	2.427	2.095	2.568	4.203	17.23	100.2	298.4	661.3	1616	733.3	19.19	1.704	1.391	1.107	1.024	0.847	0.784	0.773	0.817	0.705	0.722	0.880	0.835	0.719	0.711	0.851
520.0	98.99	108.3	119.7	192.2	195.9	169.7	291.3	2231	2357	215.9	110.4	108.1	96.86	92.27	76.04	64.49	53.81	50.19	47.79	45.51	40.69	38.65	42.20	42.26	44.42	44.51	46.61	46.20	43.60	43.97	40.71	37.06	31.06	25.78	22.09	17.64	13.63	8.935	5.764	4.544	3.451	3.335	3.599	6.405	9.488	6.008	2.552	1.831	1.716	1.569	1.712	2.102	2.035	1.801	2.295	5.239	23.89	68.25	155.9	770.7	1475	242.6	12.55	1.651	1.070	0.989	0.793	0.775	0.858	0.760	0.647	0.831	0.725	0.721	0.668	0.632	0.740
525.0	90.08	91.75	94.16	149.1	215.2	154.8	179.2	1013	3667	725.4	95.44	91.56	82.22	78.58	65.64	52.80	47.51	42.82	40.38	37.22	33.83	32.45	34.57	35.73	37.17	38.14	38.53	38.27	37.22	36.86	34.75	31.35	26.31	21.51	18.19	15.21	11.72	7.601	5.310	3.824	3.198	2.967	2.952	4.037	7.883	7.957	3.847	2.032	1.576	1.586	1.494	1.912	2.160	1.829	1.805	2.418	6.697	16.87	36.48	188.3	834.4	1590	210.6	8.191	1.234	0.884	0.832	0.792	0.804	0.818	0.610	0.557	0.673	0.631	0.680	0.682	0.687
530.0	83.56	75.83	73.26	101.1	191.8	156.3	135.2	336.8	2438	2668	158.6	72.40	66.49	62.20	52.23	43.73	37.84	34.08	31.77	30.56	28.16	26.54	27.70	28.89	29.57	30.24	29.96	29.95	30.25	28.79	27.81	24.64	21.16	17.99	14.71	12.22	9.346	6.506	4.590	3.530	2.816	2.737	2.555	2.565	4.352	6.796	6.243	3.104	1.588	1.491	1.283	1.609	1.732	1.976	1.846	1.712	2.706	5.098	9.491	43.40	203.0	791.4	1141	673.5	14.80	1.171	0.892	0.830	0.750	0.775	0.666	0.563	0.572	0.619	0.623	0.609	0.659
535.0	76.62	68.92	60.31	70.39	136.7	185.7	111.8	146.1	736.8	3842	931.5	64.79	53.81	50.04	40.96	35.73	30.32	26.34	25.18	23.83	22.69	20.58	20.98	22.53	22.63	23.91	23.76	24.12	23.53	22.97	21.35	19.39	16.29	13.64	11.86	9.941	7.288	5.154	3.932	3.196	2.612	2.392	2.139	2.116	2.378	3.937	6.432	5.086	2.389	1.349	1.234	1.337	1.327	1.552	2.003	1.883	1.646	2.195	3.130	10.75	46.27	178.0	389.6	1344	687.1	20.65	1.138	0.754	0.785	0.651	0.620	0.587	0.608	0.627	0.654	0.544	0.603
540.0	69.28	60.50	49.83	58.40	94.60	190.8	117.6	92.44	223.0	2468	1850	112.4	45.10	42.66	35.57	28.70	24.50	22.53	21.73	19.80	18.45	17.58	18.05	18.23	18.25	19.84	19.93	19.36	20.03	18.51	18.07	15.82	13.51	11.63	9.613	7.908	6.428	4.735	3.585	2.512	2.368	2.265	2.072	2.077	2.010	2.381	4.570	5.669	3.621	1.586	1.097	1.136	1.156	1.305	1.768	2.016	1.558	1.540	1.718	3.300	11.26	40.84	89.76	538.9	1108	247.4	14.08	0.956	0.725	0.651	0.677	0.566	0.542	0.538	0.615	0.581	0.581
545.0	65.48	48.45	41.93	53.26	68.53	157.1	132.0	74.21	93.84	944.0	3075	446.8	39.70	36.45	29.74	24.43	21.32	19.15	18.07	16.80	15.20	14.49	14.67	15.01	15.52	16.39	16.73	16.54	15.96	15.38	15.04	13.86	11.57	9.568	8.594	6.796	5.477	4.237	3.088	2.547	2.101	1.947	1.825	1.812	1.649	1.779	2.639	5.198	4.473	2.301	1.165	1.065	1.120	1.200	1.296	1.801	1.740	1.385	1.382	1.598	3.257	10.07	21.03	126.2	523.2	972.3	208.3	6.298	0.830	0.756	0.639	0.567	0.588	0.564	0.539	0.540	0.558
550.0	53.38	46.91	42.10	42.86	51.74	95.07	146.0	74.85	55.44	259.5	1922	1804	92.30	30.51	23.69	19.98	17.56	15.08	14.09	13.62	12.38	11.48	12.14	12.08	12.68	12.86	12.77	12.91	12.47	12.45	11.89	10.83	9.346	7.601	6.601	5.712	4.451	3.424	2.662	2.200	1.884	1.701	1.581	1.613	1.467	1.594	1.710	2.771	4.166	3.523	1.809	1.080	0.983	1.049	1.088	1.219	1.689	1.595	1.281	1.129	1.484	2.978	5.425	29.06	123.2	411.4	581.8	463.2	15.94	1.009	0.635	0.628	0.544	0.549	0.502	0.469	0.492
555.0	52.97	48.66	36.68	34.01	38.65	59.33	125.3	98.32	39.35	85.97	530.1	2459	676.5	31.48	18.54	15.29	13.75	11.97	10.95	10.58	9.433	9.458	9.134	9.168	9.791	9.628	9.456	9.890	9.612	9.366	9.335	8.276	7.155	6.157	5.001	4.475	3.638	3.020	2.191	1.881	1.588	1.599	1.495	1.436	1.156	1.334	1.205	1.456	2.523	3.405	2.790	1.468	0.917	0.976	1.002	0.920	1.222	1.430	1.712	1.007	0.937	1.286	1.884	7.204	28.13	92.44	170.7	906.8	460.9	22.87	0.922	0.606	0.563	0.539	0.474	0.453	0.455
560.0	50.63	46.93	35.63	32.00	31.79	44.57	87.08	123.1	39.61	43.01	144.9	1521	1400	88.63	15.71	12.56	10.29	10.17	9.254	8.481	7.862	7.777	7.259	7.245	7.476	7.608	7.644	7.597	7.637	7.574	7.321	6.805	5.868	5.040	4.273	3.620	3.155	2.400	1.859	1.749	1.476	1.466	1.264	1.159	1.191	1.237	1.132	1.145	1.426	2.578	3.141	1.907	0.966	0.866	0.788	0.851	0.947	1.144	1.722	1.257	0.765	0.896	0.993	2.182	6.891	21.15	39.05	339.7	588.6	247.3	14.84	0.700	0.555	0.516	0.502	0.533	0.480
565.0	52.10	41.36	32.14	25.77	28.84	33.04	53.06	125.6	51.92	30.74	52.11	555.6	2341	597.4	13.15	11.71	9.563	8.537	7.968	7.037	6.654	6.473	5.956	5.950	5.935	6.301	6.890	6.216	6.491	6.267	5.777	5.914	4.615	3.752	3.687	3.115	2.488	2.103	1.682	1.561	1.327	1.322	1.166	1.129	1.113	1.075	1.037	0.931	0.986	1.614	2.488	2.363	1.257	0.816	0.746	0.689	0.974	0.944	1.151	1.506	1.008	0.760	0.769	1.120	2.057	5.255	9.259	78.31	235.3	599.4	191.2	9.134	0.683	0.573	0.558	0.490	0.432
570.0	49.74	38.20	27.81	22.55	24.47	27.50	34.16	88.25	83.79	27.19	27.98	151.1	1420	3092	58.67	10.26	8.078	6.862	6.181	6.245	5.143	5.123	5.079	4.823	4.705	4.999	5.265	4.909	4.932	5.075	4.695	4.341	3.741	3.269	3.028	2.397	2.080	1.665	1.422	1.285	1.185	1.107	1.031	1.037	1.013	0.951	0.843	0.777	0.789	0.958	1.429	2.191	1.829	1.170	0.735	0.733	0.763	0.743	0.813	1.151	1.252	0.889	0.659	0.812	0.958	1.651	2.573	18.17	54.32	226.5	346.9	280.9	16.38	0.943	0.667	0.504	0.462
575.0	51.22	40.58	25.99	20.74	20.09	23.55	21.10	44.25	105.6	43.59	22.23	49.79	390.2	3869	525.8	10.20	6.505	5.918	4.955	4.782	4.671	4.079	3.952	3.988	3.731	3.876	4.141	3.748	3.724	3.834	3.828	3.418	3.083	2.595	2.451	1.907	1.757	1.350	1.258	1.097	1.048	1.017	1.022	0.927	0.907	0.759	0.726	0.740	0.761	0.716	0.802	1.378	1.861	1.543	0.825	0.687	0.576	0.661	0.631	0.719	0.967	1.163	0.850	0.648	0.601	0.756	1.011	4.535	12.57	50.93	93.44	323.0	261.6	23.79	0.918	0.498	0.393
580.0	49.43	36.04	26.14	18.51	19.34	21.77	17.27	29.45	89.31	65.67	22.52	28.09	105.4	2205	1353	34.08	5.766	5.339	4.626	4.170	3.784	3.747	3.610	3.489	3.233	3.499	3.530	3.164	3.241	3.238	3.417	2.822	2.760	2.166	2.064	1.758	1.721	1.250	1.092	0.901	0.883	0.940	0.889	0.858	0.822	0.732	0.737	0.719	0.715	0.656	0.603	0.862	1.654	1.664	1.119	0.705	0.633	0.562	0.611	0.585	0.731	0.989	1.219	0.817	0.544	0.599	0.697	1.434	3.184	11.79	21.39	103.7	365.7	237.1	16.87	0.768	0.528
585.0	43.90	35.03	27.22	18.29	14.50	18.36	17.27	21.29	58.24	89.56	24.47	22.23	38.58	748.0	1838	107.7	5.480	4.811	4.015	4.216	3.418	3.037	3.149	2.800	3.043	2.840	2.785	2.855	2.583	2.801	2.951	2.644	2.447	2.006	1.913	1.616	1.442	1.044	1.008	0.955	0.836	0.937	0.765	0.749	0.806	0.708	0.632	0.752	0.601	0.618	0.615	0.606	1.088	1.474	1.381	0.898	0.661	0.602	0.654	0.570	0.510	0.815	1.120	1.014	0.582	0.460	0.533	0.800	1.086	3.085	5.166	23.89	139.0	420.9	202.7	8.276	0.578
590.0	40.49	36.99	25.28	17.78	12.42	15.02	14.62	16.14	30.23	84.60	45.57	20.79	22.07	191.4	1089	1063	29.99	4.578	3.679	3.941	3.060	2.543	2.794	2.401	2.482	2.367	2.472	2.472	2.386	2.544	2.495	2.189	1.726	1.662	1.737	1.540	1.189	1.002	0.874	0.830	0.765	0.851	0.707	0.617	0.714	0.663	0.657	0.687	0.633	0.508	0.521	0.508	0.682	1.024	1.441	1.088	0.711	0.633	0.536	0.520	0.485	0.603	0.767	1.058	0.842	0.504	0.489	0.562	0.597	1.123	1.533	5.738	32.00	149.1	319.8	204.5	16.38
595.0	47.37	33.20	23.60	17.55	12.65	14.44	13.67	14.24	19.45	52.42	73.92	22.88	18.11	53.93	293.9	1558	301.6	4.759	3.780	3.522	2.655	2.457	2.374	2.162	2.061	2.045	2.146	2.171	1.981	2.451	2.009	1.802	1.631	1.440	1.393	1.446	1.076	0.858	0.917	0.767	0.782	0.669	0.682	0.663	0.737	0.611	0.508	0.643	0.616	0.470	0.442	0.429	0.543	0.681	1.062	1.239	0.923	0.687	0.516	0.474	0.551	0.539	0.530	0.784	0.923	0.689	0.544	0.621	0.475	0.628	0.729	1.644	7.512	33.65	82.90	247.6	211.7
600.0	40.86	30.95	20.85	15.08	11.24	11.60	13.38	13.18	16.83	31.13	80.78	29.54	15.90	22.91	75.91	1025	754.7	16.12	3.345	3.454	2.502	2.105	2.148	1.730	1.716	1.801	1.768	1.941	2.024	1.889	1.678	1.620	1.547	1.265	1.259	1.179	1.178	0.905	0.777	0.730	0.766	0.623	0.586	0.609	0.607	0.551	0.531	0.576	0.488	0.412	0.461	0.461	0.490	0.524	0.740	1.147	0.998	0.711	0.516	0.474	0.475	0.445	0.464	0.574	0.809	0.926	0.726	0.604	0.432	0.482	0.554	0.693	2.054	7.919	18.97	78.48	227.5
605.0	37.64	32.89	22.89	13.70	11.52	10.61	12.94	11.73	14.31	22.74	67.28	44.95	16.39	14.91	23.01	383.0	1247	72.41	3.473	2.932	2.543	1.845	2.037	1.750	1.650	1.695	1.535	1.902	1.537	1.596	1.434	1.432	1.404	1.197	1.010	1.147	1.138	0.911	0.766	0.715	0.635	0.563	0.557	0.629	0.549	0.584	0.545	0.547	0.536	0.426	0.405	0.411	0.441	0.500	0.515	0.986	0.979	0.823	0.498	0.517	0.397	0.437	0.484	0.524	0.556	0.828	0.803	0.637	0.401	0.456	0.441	0.494	0.815	2.159	4.656	18.13	84.36
610.0	35.87	31.98	23.72	13.80	12.45	11.17	10.97	12.35	14.27	18.88	41.57	62.06	21.19	13.45	11.77	97.76	824.8	644.2	16.59	3.305	2.115	1.837	1.967	1.502	1.419	1.603	1.430	1.559	1.473	1.416	1.309	1.369	1.225	1.085	0.967	0.962	0.850	0.936	0.717	0.633	0.639	0.577	0.562	0.538	0.582	0.541	0.518	0.501	0.472	0.462	0.364	0.386	0.434	0.424	0.451	0.631	0.806	0.857	0.684	0.509	0.412	0.411	0.455	0.498	0.475	0.520	0.674	0.800	0.480	0.431	0.456	0.434	0.536	0.830	1.400	4.462	19.50
615.0	36.32	33.84	22.31	15.18	12.21	11.08	10.15	13.00	14.72	16.46	25.89	58.95	34.13	12.99	8.119	26.70	233.0	1008	78.71	3.847	2.370	1.899	1.757	1.443	1.287	1.403	1.327	1.351	1.125	1.358	1.300	1.277	1.035	0.975	1.029	0.841	0.721	0.916	0.780	0.636	0.648	0.570	0.489	0.571	0.463	0.471	0.493	0.409	0.486	0.403	0.348	0.358	0.397	0.372	0.408	0.481	0.564	0.694	0.865	0.537	0.391	0.331	0.424	0.490	0.389	0.451	0.464	0.706	0.654	0.501	0.393	0.420	0.413	0.549	0.609	1.355	4.687
620.0	34.38	35.09	24.60	15.46	10.70	10.11	9.814	11.95	12.92	17.63	19.56	44.96	46.48	13.45	7.395	10.15	59.35	713.8	529.4	9.479	2.392	1.836	1.529	1.385	1.392	1.267	1.105	1.223	1.036	1.218	1.239	1.126	0.922	0.935	0.986	0.762	0.612	0.737	0.806	0.606	0.572	0.544	0.490	0.524	0.507	0.484	0.473	0.426	0.395	0.385	0.361	0.402	0.379	0.395	0.364	0.381	0.436	0.539	0.752	0.582	0.485	0.399	0.392	0.462	0.371	0.451	0.509	0.520	0.718	0.667	0.432	0.452	0.437	0.452	0.469	0.631	1.312
625.0	39.11	30.07	21.91	14.55	9.559	11.04	9.378	11.10	13.06	16.08	17.75	30.98	53.58	16.63	7.582	6.733	17.37	282.2	914.5	56.35	2.486	1.827	1.548	1.333	1.231	1.311	1.055	1.276	1.182	1.292	1.228	0.924	0.818	0.708	0.823	0.724	0.653	0.639	0.622	0.808	0.498	0.531	0.570	0.521	0.519	0.598	0.445	0.476	0.391	0.366	0.357	0.410	0.355	0.462	0.309	0.399	0.429	0.467	0.649	0.662	0.472	0.513	0.379	0.482	0.396	0.466	0.484	0.564	0.632	0.667	0.599	0.488	0.443	0.370	0.431	0.461	0.645
630.0	37.26	33.98	21.88	14.70	11.06	9.858	10.54	10.84	13.43	15.32	16.01	21.13	43.88	29.71	7.661	6.235	7.549	71.89	669.8	630.2	8.753	2.075	1.599	1.273	1.227	1.137	1.055	1.042	1.079	1.181	1.054	0.913	0.811	0.748	0.733	0.726	0.617	0.532	0.570	0.723	0.606	0.530	0.564	0.444	0.511	0.473	0.419	0.397	0.433	0.338	0.340	0.403	0.353	0.375	0.396	0.398	0.421	0.421	0.501	0.668	0.550	0.492	0.411	0.455	0.443	0.401	0.480	0.479	0.436	0.614	0.604	0.507	0.407	0.397	0.509	0.357	0.444
635.0	44.40	32.85	24.90	15.41	11.22	9.790	11.56	12.17	13.65	15.00	15.82	17.93	27.64	40.27	11.66	5.371	4.976	18.90	198.6	1122	62.55	2.184	1.621	1.225	1.149	1.000	1.046	1.059	0.992	0.966	0.943	0.884	0.820	0.755	0.583	0.632	0.572	0.533	0.498	0.529	0.654	0.552	0.539	0.463	0.505	0.479	0.360	0.392	0.425	0.342	0.321	0.382	0.350	0.306	0.426	0.415	0.411	0.429	0.403	0.581	0.531	0.568	0.479	0.457	0.381	0.414	0.359	0.392	0.425	0.446	0.502	0.708	0.463	0.387	0.420	0.355	0.403
640.0	55.61	44.04	31.25	16.47	11.12	10.44	10.02	14.25	14.34	16.54	17.47	18.43	20.09	39.08	18.05	5.498	5.183	6.944	50.34	870.3	363.6	4.148	1.613	1.130	1.057	1.002	1.106	1.035	1.000	1.017	0.985	0.876	0.748	0.751	0.619	0.548	0.528	0.547	0.471	0.577	0.514	0.644	0.578	0.528	0.496	0.495	0.375	0.447	0.406	0.361	0.305	0.343	0.333	0.313	0.367	0.399	0.447	0.363	0.389	0.471	0.504	0.571	0.482	0.453	0.384	0.353	0.366	0.410	0.418	0.468	0.418	0.726	0.632	0.408	0.393	0.376	0.434
645.0	71.69	70.67	42.21	17.58	14.29	12.16	11.63	15.89	16.29	18.80	20.62	20.55	20.63	32.69	25.33	7.240	5.387	4.544	14.27	379.4	675.3	28.09	1.630	1.177	1.235	0.967	1.053	0.924	0.851	1.060	0.829	0.803	0.838	0.759	0.699	0.587	0.572	0.591	0.461	0.531	0.422	0.676	0.558	0.544	0.531	0.580	0.551	0.539	0.445	0.421	0.272	0.298	0.284	0.375	0.334	0.375	0.362	0.459	0.394	0.398	0.435	0.522	0.502	0.474	0.435	0.374	0.383	0.372	0.405	0.386	0.403	0.525	0.540	0.534	0.429	0.399	0.378
650.0	81.18	95.60	57.12	22.97	12.47	12.99	14.79	16.84	19.11	21.48	23.18	23.44	21.71	27.21	30.20	10.52	5.419	4.665	6.223	109.2	706.5	168.5	2.150	1.189	1.120	0.879	1.050	0.894	0.918	1.036	0.925	0.789	0.761	0.705	0.684	0.596	0.601	0.608	0.460	0.482	0.535	0.575	0.657	0.514	0.600	0.565	0.540	0.555	0.522	0.367	0.359	0.287	0.388	0.417	0.389	0.366	0.403	0.376	0.375	0.402	0.381	0.525	0.584	0.591	0.422	0.402	0.402	0.486	0.382	0.429	0.355	0.431	0.575	0.568	0.377	0.376	0.355
