Sample:	'1
File name:	Default_20230619_161757.FD3
Run date:	'16:11:36, 06/19/2023
Operator:	user
Comment:	'

Instrument
Model:	F-2700 FL Spectrophotometer
Serial number:	2190-003
ROM Version:	4J14000 07

Instrument parameters
Measurement type:	3-D scan
Data mode:	Fluorescence
EX  Start WL:	220.0 nm
EX  End WL:	600.0 nm
EX Sampling interval:	5.0 nm
EM  Start WL:	230.0 nm
EM  End WL:	650.0 nm
EM Sampling interval:	5.0 nm
Scan speed:	12000 nm/min
EX Slit:	5.0 nm
EM Slit:	5.0 nm
PMT Voltage:	700 V
Response:	Auto 
Corrected spectra:	Off
Contour interval:	50.000

Peak integration
Integration method:	Rectangular
Sensitivity:	1
Threshold:	1.000

Peaks
No.	ApexEX/EM(nm)	Height(Data)
1	230.0/325.0	 2752
2	255.0/280.0	126.3
3	255.0/555.0	-134.9
4	260.0/285.0	265.1
5	260.0/565.0	-115.6
6	265.0/290.0	270.3
7	265.0/580.0	-86.75
8	285.0/320.0	*****   
9	285.0/630.0	404.2
10	290.0/640.0	414.1
11	310.0/410.0	136.3
12	315.0/420.0	126.7
13	320.0/360.0	384.5
14	325.0/365.0	318.0
15	335.0/375.0	188.5
16	340.0/385.0	172.4
17	345.0/390.0	136.8
18	350.0/395.0	134.1
19	355.0/405.0	129.1
20	360.0/410.0	105.9
21	365.0/415.0	102.5
22	370.0/420.0	87.65
23	375.0/430.0	75.31
24	380.0/435.0	71.35
25	385.0/445.0	62.79
26	390.0/450.0	50.40
27	395.0/455.0	45.16
28	395.0/495.0	1.260
29	400.0/460.0	37.89
30	405.0/470.0	28.10
31	410.0/475.0	23.08
32	415.0/485.0	20.44
33	420.0/490.0	14.22
34	425.0/495.0	11.34
35	430.0/505.0	8.856
36	435.0/510.0	5.484
37	440.0/515.0	3.733
38	445.0/525.0	2.824
39	450.0/530.0	2.162
40	455.0/540.0	0.825
41	460.0/330.0	-3.483
42	460.0/545.0	-0.527
43	465.0/325.0	-3.006
44	465.0/550.0	-1.573
45	490.0/590.0	-7.541
46	500.0/600.0	-8.619
47	515.0/285.0	-8.767
48	570.0/325.0	19.28
49	575.0/320.0	19.19

Data points
	220.0	225.0	230.0	235.0	240.0	245.0	250.0	255.0	260.0	265.0	270.0	275.0	280.0	285.0	290.0	295.0	300.0	305.0	310.0	315.0	320.0	325.0	330.0	335.0	340.0	345.0	350.0	355.0	360.0	365.0	370.0	375.0	380.0	385.0	390.0	395.0	400.0	405.0	410.0	415.0	420.0	425.0	430.0	435.0	440.0	445.0	450.0	455.0	460.0	465.0	470.0	475.0	480.0	485.0	490.0	495.0	500.0	505.0	510.0	515.0	520.0	525.0	530.0	535.0	540.0	545.0	550.0	555.0	560.0	565.0	570.0	575.0	580.0	585.0	590.0	595.0	600.0
230.0	-838.6	-612.8	 1223	 1134	-257.1	-296.5	-249.6	-214.2	-180.1	-156.9	-140.5	-123.9	-103.7	-87.23	-72.91	-61.68	-53.67	-47.74	-43.12	-38.45	-34.64	-32.22	-29.89	-27.34	-26.13	-24.56	-23.62	-22.99	-22.18	-22.09	-20.95	-20.04	-18.72	-17.19	-16.40	-15.12	-14.63	-14.34	-13.55	-13.36	-13.09	-12.97	-12.71	-12.38	-12.00	-11.64	-9.975	-8.943	-6.515	-5.378	-7.318	-9.631	-9.357	-10.03	-9.444	-10.19	-10.09	-10.24	-10.08	-10.15	-10.26	-10.13	-10.19	-10.37	-10.11	-10.17	-10.18	-10.36	-10.40	-10.50	-10.56	-10.39	-10.56	-10.70	-10.95	-10.91	-11.14
235.0	-822.3	-710.3	50.85	 2225	 1634	-141.8	-245.7	-210.0	-182.2	-159.7	-141.8	-118.5	-105.0	-89.26	-72.02	-62.83	-53.03	-47.13	-42.82	-38.50	-34.93	-32.04	-29.61	-28.22	-26.43	-24.77	-23.36	-22.48	-22.51	-22.51	-20.76	-19.62	-18.40	-17.46	-16.30	-15.10	-14.61	-14.32	-14.07	-12.91	-12.85	-12.74	-12.88	-12.18	-12.04	-11.38	-9.998	-10.19	-8.318	-5.801	-4.398	-5.486	-7.833	-9.730	-9.743	-10.34	-10.18	-10.23	-10.44	-10.20	-9.986	-10.32	-10.31	-10.50	-10.36	-10.30	-9.986	-10.05	-10.45	-10.57	-10.49	-10.52	-10.70	-10.48	-10.66	-10.83	-10.90
240.0	-792.6	-731.1	-432.6	826.1	 3506	 1541	-178.6	-207.3	-186.0	-153.5	-139.2	-121.0	-106.0	-88.07	-71.14	-61.52	-54.19	-45.77	-42.77	-39.02	-34.49	-31.45	-29.99	-28.52	-26.15	-24.06	-23.00	-22.78	-21.78	-21.95	-20.72	-20.04	-18.90	-17.47	-15.86	-15.10	-14.12	-14.48	-13.40	-13.49	-12.91	-13.20	-12.51	-12.60	-11.69	-11.74	-10.42	-10.15	-9.309	-7.656	-6.319	-3.678	-3.049	-6.110	-8.663	-9.827	-10.09	-10.30	-10.12	-10.07	-10.23	-10.29	-10.55	-10.19	-10.19	-10.13	-10.20	-10.54	-10.40	-10.65	-10.84	-10.55	-10.88	-10.34	-10.67	-11.31	-11.09
245.0	-817.7	-689.4	-554.2	-151.4	 1937	 4419	 1207	-179.5	-182.8	-159.1	-138.0	-121.3	-104.8	-87.97	-72.36	-58.61	-54.74	-46.93	-42.71	-37.88	-34.06	-32.14	-30.19	-28.30	-26.09	-24.93	-23.76	-23.19	-22.32	-21.81	-20.90	-19.73	-18.18	-17.37	-15.97	-14.93	-14.56	-14.50	-13.82	-13.96	-13.05	-13.13	-12.92	-12.20	-11.83	-11.70	-10.33	-10.04	-9.308	-8.253	-7.627	-7.825	-4.714	-1.100	-3.190	-6.887	-9.869	-10.32	-10.38	-10.35	-10.11	-10.23	-10.33	-10.19	-10.14	-10.45	-10.24	-10.39	-10.42	-10.58	-10.36	-10.74	-10.67	-10.54	-10.83	-11.10	-11.10
250.0	-852.7	-719.0	-517.7	-340.7	213.9	 2192	 4533	 2684	144.2	-153.8	-134.4	-119.4	-106.4	-87.54	-72.33	-60.33	-53.98	-47.45	-42.88	-38.63	-34.40	-32.53	-29.84	-27.88	-26.60	-24.91	-23.85	-23.32	-22.47	-21.89	-20.89	-20.18	-18.12	-17.46	-16.19	-15.12	-14.75	-14.57	-13.89	-13.52	-13.16	-12.83	-12.78	-12.18	-11.74	-11.60	-10.35	-10.35	-9.250	-7.990	-7.897	-9.244	-8.260	-7.209	-4.506	-3.056	-2.732	-4.588	-7.782	-9.964	-10.06	-10.00	-10.45	-10.38	-10.44	-10.46	-10.35	-10.49	-10.58	-10.55	-10.40	-10.66	-10.49	-10.68	-10.79	-11.13	-11.10
255.0	-874.2	-727.6	-579.8	-343.6	-160.1	267.1	 1561	 6294	 4543	153.5	-141.0	-118.6	-103.9	-87.05	-71.32	-60.48	-53.44	-47.73	-43.37	-37.65	-35.18	-32.25	-29.42	-27.84	-25.29	-24.55	-23.75	-23.15	-21.89	-22.21	-21.22	-19.56	-18.26	-17.84	-16.81	-15.10	-14.79	-14.72	-13.86	-13.10	-12.98	-13.06	-12.92	-12.02	-11.98	-11.54	-10.49	-10.69	-9.617	-8.172	-7.888	-9.340	-9.014	-9.489	-8.188	-8.533	-6.856	-3.456	-0.628	-2.257	-7.292	-9.989	-10.20	-10.47	-10.20	-10.53	-10.44	-10.35	-10.66	-10.65	-10.49	-10.46	-10.39	-10.53	-10.74	-11.00	-11.09
260.0	-852.4	-740.8	-605.6	-406.5	-180.7	-108.2	176.5	 2862	 8030	 1467	-47.05	-116.6	-100.7	-85.75	-70.74	-59.17	-53.01	-47.15	-41.53	-37.95	-34.99	-31.87	-29.74	-26.90	-26.08	-24.46	-23.17	-22.92	-21.93	-21.81	-21.26	-19.63	-18.68	-17.44	-16.73	-14.99	-14.35	-14.57	-13.79	-13.64	-12.89	-13.32	-12.23	-11.89	-11.85	-11.83	-10.14	-10.40	-9.390	-8.295	-8.125	-8.867	-8.968	-9.382	-9.149	-9.797	-9.347	-8.300	-5.838	0.801	0.189	-4.145	-8.210	-10.16	-10.43	-10.40	-10.36	-10.47	-10.42	-10.76	-10.65	-10.60	-10.45	-10.62	-10.77	-10.94	-10.64
265.0	-880.1	-754.7	-606.9	-446.2	-240.5	-90.56	-122.5	549.3	 4268	 6917	 1046	-87.08	-101.0	-87.54	-70.16	-59.73	-53.42	-46.51	-43.12	-37.84	-33.80	-31.71	-30.36	-27.90	-25.64	-25.16	-23.56	-22.56	-22.00	-21.12	-20.43	-19.86	-18.41	-17.76	-16.77	-14.91	-14.49	-14.22	-14.02	-13.58	-12.90	-13.29	-12.69	-12.38	-11.98	-11.82	-9.996	-10.20	-9.257	-8.652	-8.370	-9.744	-8.650	-8.980	-9.142	-9.962	-9.930	-9.850	-9.342	-6.517	-3.573	0.924	1.763	-5.812	-10.03	-10.30	-10.43	-10.44	-10.28	-10.52	-10.03	-10.66	-10.57	-10.50	-10.93	-11.10	-11.24
270.0	-881.0	-764.4	-609.0	-458.6	-328.4	-145.3	-9.991	13.99	920.4	 3234	 4545	 3856	150.5	-81.98	-69.75	-57.68	-51.76	-46.85	-41.90	-37.69	-34.62	-31.90	-29.45	-27.30	-25.83	-25.05	-23.76	-22.50	-22.40	-21.51	-20.66	-19.74	-18.44	-17.58	-16.39	-15.03	-14.13	-14.15	-13.92	-13.12	-13.24	-13.22	-12.56	-12.42	-11.82	-11.63	-10.17	-10.35	-9.252	-8.316	-8.334	-9.829	-9.104	-9.656	-9.085	-9.115	-9.495	-9.943	-10.02	-9.194	-8.632	-6.542	-3.129	-1.051	0.473	-2.197	-7.187	-9.705	-10.59	-10.56	-10.36	-10.60	-10.48	-10.53	-10.77	-11.11	-11.19
275.0	-904.1	-718.8	-598.7	-463.6	-356.9	-261.3	-63.02	121.4	117.6	621.6	 1430	 7893	 4094	95.16	-68.09	-56.58	-50.10	-46.19	-41.38	-37.47	-34.73	-31.30	-30.59	-27.65	-26.32	-24.60	-24.02	-23.06	-22.52	-21.14	-20.79	-19.29	-18.42	-17.51	-16.13	-15.09	-14.64	-14.14	-14.05	-13.60	-13.46	-13.01	-12.80	-12.63	-11.75	-11.34	-10.41	-10.27	-9.485	-8.186	-8.438	-10.05	-9.384	-9.960	-9.127	-9.709	-9.499	-9.139	-9.397	-9.912	-9.837	-9.518	-8.657	-7.788	-6.222	-0.736	5.218	2.960	-6.848	-10.26	-10.45	-10.44	-10.72	-10.60	-10.60	-11.04	-11.18
280.0	-887.1	-751.2	-598.3	-447.7	-360.0	-294.4	-192.8	126.3	122.7	47.31	248.5	 3021	 6530	849.5	-7.466	-55.59	-49.43	-44.97	-40.67	-37.79	-35.09	-31.67	-29.64	-27.83	-25.98	-23.79	-23.15	-22.85	-22.10	-21.74	-20.67	-19.29	-17.93	-17.78	-16.15	-14.96	-14.90	-14.10	-14.15	-13.46	-13.32	-13.42	-12.82	-12.24	-11.68	-11.39	-10.42	-10.13	-9.437	-8.173	-8.182	-9.846	-9.203	-10.13	-9.286	-10.20	-9.679	-9.349	-9.119	-9.650	-9.943	-10.20	-9.716	-9.601	-9.213	-7.803	-3.494	3.947	6.979	-1.549	-8.730	-10.56	-10.90	-10.65	-10.94	-11.19	-11.02
285.0	-812.9	-744.9	-613.2	-447.8	-350.8	-294.0	-232.6	-54.31	265.1	20.18	-21.56	652.1	 3035	 5342	615.6	-36.55	-48.82	-44.06	-39.87	-36.96	-34.23	-31.00	-28.59	-27.25	-25.91	-24.55	-23.45	-22.93	-22.36	-22.22	-20.48	-19.61	-18.02	-17.30	-16.15	-15.29	-14.76	-14.24	-13.84	-13.56	-13.45	-13.15	-12.89	-12.33	-11.73	-11.57	-10.28	-10.28	-9.429	-8.323	-8.170	-9.481	-9.260	-9.734	-9.497	-9.973	-10.20	-9.418	-9.790	-8.767	-8.809	-9.469	-10.03	-10.08	-9.931	-9.740	-8.784	-5.995	-0.308	5.365	3.771	-4.777	-10.09	-10.36	-10.69	-11.10	-10.89
290.0	-799.9	-720.8	-575.4	-430.5	-351.6	-294.8	-236.4	-160.3	42.00	270.3	109.5	138.3	724.2	 2478	 4172	 2403	111.9	-38.96	-38.60	-36.18	-33.84	-31.87	-28.60	-27.16	-25.24	-24.33	-23.35	-22.56	-22.46	-21.24	-20.13	-19.14	-18.02	-17.47	-16.04	-15.16	-14.54	-14.43	-13.73	-13.12	-13.16	-13.11	-12.99	-11.94	-11.87	-11.75	-10.34	-10.23	-9.175	-8.196	-8.221	-9.535	-9.434	-9.912	-9.338	-10.18	-10.22	-10.04	-9.921	-9.737	-9.108	-9.027	-8.987	-9.303	-9.838	-10.30	-9.828	-8.967	-7.871	-5.536	-1.419	2.250	2.507	-1.533	-6.390	-10.26	-11.22
295.0	-795.7	-633.0	-449.0	-346.0	-314.6	-268.3	-220.9	-150.1	-49.42	162.1	580.4	369.6	459.8	914.2	 1670	 5425	 3282	168.2	-28.19	-35.03	-32.72	-31.06	-28.64	-27.22	-25.83	-24.67	-23.67	-21.88	-21.64	-21.88	-20.57	-19.71	-18.41	-17.27	-16.25	-14.93	-14.29	-14.39	-13.72	-13.80	-13.11	-12.84	-12.47	-12.10	-11.33	-11.32	-10.29	-9.815	-8.963	-8.116	-7.954	-9.670	-9.377	-10.05	-9.423	-10.46	-10.16	-10.34	-10.19	-10.05	-9.612	-9.531	-8.890	-8.189	-8.279	-8.781	-9.255	-8.974	-9.120	-8.251	-7.373	-6.788	-4.885	1.461	11.30	4.811	-5.998
300.0	-609.4	-372.7	-60.64	-63.77	-177.9	-201.6	-163.5	-110.4	50.36	268.8	878.0	 1145	 1014	 1039	 1657	 3091	 6068	 2561	70.86	-30.62	-31.41	-29.96	-27.88	-26.90	-25.20	-24.24	-24.18	-22.19	-21.97	-21.76	-21.04	-19.64	-18.61	-17.71	-16.13	-15.08	-13.81	-14.29	-13.58	-13.47	-12.79	-13.38	-12.65	-12.18	-11.57	-10.96	-9.586	-9.223	-8.290	-7.277	-7.423	-9.470	-8.994	-9.972	-9.075	-10.04	-10.15	-10.13	-9.742	-9.801	-9.506	-9.278	-8.861	-8.167	-7.060	-6.531	-6.522	-7.160	-6.777	-6.624	-6.090	-6.372	-6.361	-4.078	1.777	11.37	10.38
305.0	-422.3	37.40	592.0	444.8	51.87	-97.02	-94.34	25.99	244.3	686.7	 1389	 2568	 3131	 3299	 3312	 3056	 4149	 6282	418.6	0.297	-28.99	-29.51	-28.19	-27.00	-26.09	-23.86	-23.48	-22.03	-21.87	-21.12	-20.68	-18.81	-17.72	-17.16	-16.15	-14.41	-14.13	-13.62	-13.30	-13.01	-12.50	-12.65	-11.99	-12.03	-10.63	-10.18	-8.748	-8.236	-7.378	-6.361	-6.933	-8.179	-8.501	-9.290	-9.002	-9.792	-9.775	-9.440	-9.057	-8.877	-8.751	-8.017	-7.495	-6.914	-5.933	-4.356	-2.439	-2.038	-1.690	-1.995	-1.515	-0.764	-1.535	-1.721	-1.771	0.176	5.797
310.0	-89.45	731.1	 1548	 1219	457.9	87.90	26.46	217.5	590.0	 1360	 2524	 4284	 6035	 6738	 6512	 5225	 3714	 3601	 4468	 1660	96.53	-26.64	-27.35	-25.35	-24.94	-23.50	-22.29	-21.78	-21.25	-21.31	-19.96	-19.11	-17.93	-16.71	-15.34	-14.33	-13.45	-13.55	-12.59	-13.04	-12.48	-12.11	-11.66	-11.20	-10.12	-9.390	-7.077	-6.776	-5.820	-5.151	-5.553	-7.378	-7.867	-9.138	-8.968	-9.539	-9.475	-9.269	-8.630	-8.187	-7.429	-6.804	-5.759	-4.035	-2.284	-0.744	1.179	4.348	5.531	7.093	6.897	7.523	6.094	4.227	2.265	1.048	-0.592
315.0	238.7	 1337	 2278	 1791	778.4	238.9	144.5	401.8	904.2	 1994	 3511	 5869	 8136	 9961	 9469	 7409	 4620	 2126	 1635	 4468	 2510	129.3	-24.65	-24.65	-23.99	-23.62	-21.89	-20.91	-21.02	-20.84	-20.70	-19.47	-17.50	-16.92	-15.22	-14.25	-13.89	-13.62	-12.46	-12.50	-11.98	-11.71	-11.56	-10.69	-9.641	-8.183	-6.416	-5.137	-4.034	-3.804	-4.399	-6.806	-7.097	-8.462	-8.811	-9.019	-9.203	-8.594	-8.520	-7.877	-6.479	-5.531	-3.377	-2.111	0.522	3.490	5.732	8.375	11.15	14.29	15.57	15.34	14.16	11.29	8.303	4.931	0.208
320.0	313.2	 1626	 2550	 2006	882.8	310.3	213.6	494.6	 1044	 2207	 3944	 6561	 8996	9999.9	9999.9	 8420	 5144	 1910	674.7	 1845	 4944	 1980	52.99	-22.76	-22.58	-23.06	-21.60	-21.42	-21.04	-20.88	-20.50	-18.89	-17.46	-15.91	-14.59	-13.78	-12.98	-13.17	-12.80	-12.50	-11.86	-12.39	-11.65	-10.66	-9.445	-7.390	-5.934	-4.662	-4.034	-3.190	-3.824	-6.553	-7.175	-7.969	-8.502	-8.624	-8.867	-8.194	-8.540	-7.727	-6.236	-5.068	-2.684	-1.725	1.985	5.411	7.854	10.09	13.99	15.46	18.32	19.19	17.47	14.54	10.64	6.391	1.089
325.0	331.5	 1814	 2752	 2220	871.7	323.5	259.1	512.0	 1067	 2259	 4079	 6616	 9198	9999.9	9999.9	 8877	 5237	 1892	483.1	500.1	 2440	 5086	 1385	0.864	-22.15	-22.66	-21.20	-20.73	-20.71	-20.71	-20.79	-17.91	-17.14	-16.43	-14.68	-13.40	-12.70	-13.04	-12.83	-12.52	-11.79	-11.91	-11.26	-10.47	-9.476	-7.301	-5.475	-4.102	-3.653	-3.006	-4.042	-6.178	-7.265	-8.184	-8.532	-8.298	-8.393	-8.635	-7.889	-7.104	-6.038	-4.211	-2.482	-1.489	2.220	4.204	8.199	9.921	14.02	16.37	19.28	18.07	18.24	15.28	11.35	8.198	1.158
330.0	226.6	 1469	 2390	 1984	822.8	271.9	226.6	451.3	 1019	 2091	 3833	 6115	 8428	 9821	 9785	 8212	 5110	 1843	458.7	207.7	609.4	 2306	 3744	 1240	85.74	-19.91	-20.79	-21.20	-20.40	-20.36	-20.64	-18.57	-17.24	-16.86	-14.58	-13.46	-13.00	-13.08	-12.61	-12.85	-11.84	-11.75	-11.43	-10.50	-9.619	-8.084	-5.669	-4.403	-3.483	-3.711	-4.637	-6.265	-7.685	-8.282	-8.537	-8.778	-8.838	-8.757	-7.879	-7.357	-5.932	-5.255	-3.594	-1.874	0.459	3.451	6.178	9.694	12.34	14.53	17.44	16.98	14.78	14.55	11.54	6.132	1.156
335.0	45.15	 1128	 1949	 1594	665.5	198.2	189.4	387.1	859.1	 1762	 3246	 5188	 7186	 8477	 8412	 6878	 4475	 1850	479.9	178.9	197.5	547.2	 1188	 3761	 2030	126.8	-19.57	-21.17	-20.62	-19.71	-19.97	-18.84	-17.69	-16.82	-15.30	-13.14	-13.29	-13.16	-12.53	-12.57	-11.73	-12.09	-11.87	-10.93	-10.30	-8.663	-7.047	-5.998	-4.278	-3.891	-5.120	-6.833	-7.826	-8.570	-8.385	-9.063	-8.881	-8.623	-8.548	-7.383	-6.492	-5.951	-4.622	-2.633	-1.081	1.696	3.141	7.107	8.324	10.12	12.06	12.04	10.80	10.27	6.607	3.832	0.023
340.0	-66.58	751.4	 1663	 1232	480.4	150.4	123.2	311.5	715.8	 1485	 2709	 4353	 6035	 7183	 7074	 5768	 3694	 1751	603.9	211.2	135.0	168.9	289.0	 1532	 4501	 1758	67.36	-19.18	-20.08	-20.89	-20.11	-18.61	-17.52	-15.51	-15.33	-12.68	-13.48	-13.50	-12.78	-12.45	-12.11	-11.66	-12.01	-10.74	-9.797	-9.256	-7.199	-6.081	-4.959	-4.804	-5.670	-7.810	-7.992	-8.942	-8.560	-9.266	-9.088	-9.160	-8.974	-8.075	-7.141	-6.272	-5.278	-3.067	-1.960	-0.455	1.852	6.105	5.932	8.304	8.824	9.419	8.253	6.398	4.275	2.421	-2.012
345.0	-173.8	590.9	 1338	 1017	386.2	103.3	70.70	242.6	590.4	 1227	 2232	 3592	 4937	 5925	 5804	 4749	 3021	 1452	723.1	279.3	141.2	108.8	93.14	364.9	 2240	 4841	 1286	14.07	-19.98	-20.42	-20.28	-18.47	-17.64	-15.61	-15.00	-13.89	-13.24	-13.42	-12.70	-13.04	-11.54	-12.08	-11.72	-11.08	-10.61	-9.693	-7.730	-7.127	-5.830	-5.452	-5.994	-7.711	-8.339	-9.018	-8.836	-9.098	-9.336	-9.685	-8.951	-8.549	-7.370	-7.206	-5.649	-4.573	-3.160	-2.292	0.071	3.038	3.721	4.492	5.335	6.283	4.599	4.152	2.049	-0.808	-3.420
350.0	-351.2	298.7	768.5	639.6	213.3	-3.913	10.33	141.2	422.0	895.7	 1653	 2642	 3680	 4397	 4339	 3564	 2293	 1065	602.9	441.5	212.5	105.2	61.74	94.76	528.9	 2222	 3447	 1871	79.73	-17.85	-19.48	-18.23	-17.51	-16.35	-15.03	-13.97	-13.34	-13.35	-13.31	-13.08	-12.30	-12.28	-12.32	-11.30	-10.34	-10.23	-8.026	-7.849	-6.369	-6.116	-6.340	-8.171	-8.333	-9.253	-8.684	-9.424	-9.496	-9.203	-9.136	-8.749	-7.989	-7.763	-7.193	-6.131	-5.192	-4.675	-2.897	-0.813	-0.446	0.642	1.667	1.777	1.088	0.754	-0.963	-2.837	-5.574
355.0	-484.1	3.954	408.8	293.9	65.84	-46.26	-37.38	63.65	272.3	629.4	 1126	 1837	 2583	 3131	 3070	 2519	 1665	803.1	412.6	415.2	367.5	145.4	62.61	35.57	119.4	491.1	 1102	 3749	 1782	115.7	-18.01	-17.57	-16.00	-16.18	-14.80	-14.05	-13.74	-13.86	-13.29	-12.91	-12.65	-12.32	-12.25	-11.82	-11.39	-10.50	-8.808	-8.696	-6.877	-6.566	-7.088	-8.681	-8.566	-9.644	-8.846	-9.434	-9.724	-9.502	-8.953	-8.943	-8.595	-8.498	-8.482	-7.535	-6.397	-5.412	-5.096	-3.793	-3.009	-2.641	-1.220	-1.370	-2.450	-2.018	-3.924	-5.174	-6.884
360.0	-580.2	-137.1	199.2	163.4	-39.83	-103.5	-68.90	-3.251	169.8	450.9	847.5	 1402	 1912	 2380	 2299	 1909	 1305	640.1	344.6	302.9	384.5	244.5	68.70	24.62	28.81	104.9	244.6	 1536	 4198	 1547	65.10	-16.98	-15.90	-16.43	-15.06	-13.95	-13.86	-14.11	-13.17	-12.57	-12.69	-12.80	-12.48	-11.77	-11.38	-10.29	-9.178	-9.062	-7.865	-7.141	-7.374	-8.955	-8.965	-9.536	-9.207	-9.595	-9.926	-9.594	-9.243	-9.329	-9.015	-8.989	-8.865	-8.196	-7.348	-6.942	-5.981	-5.575	-5.400	-4.511	-3.223	-4.390	-4.262	-4.415	-5.775	-6.425	-7.822
365.0	-614.0	-311.1	-42.68	35.07	-106.8	-152.4	-103.6	-29.16	99.32	336.3	646.3	 1044	 1471	 1795	 1802	 1506	 1033	527.4	310.2	239.0	281.2	318.0	125.0	27.03	9.011	20.57	47.90	352.6	 2116	 4037	 1214	21.88	-16.45	-15.70	-15.22	-14.53	-13.36	-13.98	-13.01	-13.07	-12.50	-12.40	-12.48	-11.81	-11.34	-10.71	-9.624	-9.038	-8.480	-7.415	-7.554	-8.780	-9.225	-9.698	-9.027	-9.640	-9.804	-9.521	-9.602	-9.884	-9.219	-8.851	-8.357	-8.538	-7.959	-7.458	-6.990	-6.964	-6.555	-5.723	-5.052	-5.563	-5.746	-6.406	-6.616	-7.492	-8.658
370.0	-653.1	-419.6	-170.2	-104.3	-146.9	-162.0	-122.2	-64.04	37.24	210.5	431.9	725.4	 1026	 1249	 1279	 1055	746.3	417.3	260.1	201.2	191.5	224.0	217.5	81.38	10.66	1.528	6.406	73.00	494.2	 1802	 3178	 1799	72.48	-14.18	-14.92	-14.48	-13.31	-13.74	-13.02	-13.10	-12.59	-12.44	-12.30	-11.72	-11.43	-10.74	-9.592	-9.337	-8.605	-7.442	-7.706	-9.163	-9.000	-9.848	-9.226	-9.730	-9.949	-9.812	-9.654	-9.484	-9.481	-9.347	-9.061	-8.901	-8.440	-8.518	-8.153	-7.925	-7.472	-6.994	-7.189	-7.107	-7.072	-7.168	-7.580	-8.111	-9.011
375.0	-695.8	-507.4	-328.6	-211.4	-207.5	-194.5	-140.2	-94.56	-0.329	105.3	263.5	478.7	684.2	830.0	837.9	734.4	543.6	309.5	207.9	170.1	145.6	127.6	160.7	188.5	53.07	3.632	-1.962	11.20	104.6	395.7	 1018	 3586	 2834	97.52	-13.70	-13.90	-12.98	-13.64	-13.32	-12.70	-12.31	-12.18	-12.46	-12.24	-11.45	-11.17	-9.416	-9.576	-8.754	-7.754	-7.756	-9.316	-9.015	-9.806	-9.069	-9.879	-9.689	-9.926	-9.626	-9.625	-9.710	-9.737	-9.629	-9.062	-8.876	-8.833	-8.615	-8.411	-8.129	-8.191	-8.220	-8.222	-8.210	-8.395	-8.411	-9.055	-9.800
380.0	-702.7	-582.5	-380.8	-271.8	-229.7	-212.3	-164.6	-104.3	-33.71	64.84	177.7	340.1	509.0	620.6	611.5	542.8	412.9	252.9	182.9	155.4	127.4	99.05	91.48	174.4	129.7	20.81	0.764	0.026	19.88	84.55	225.8	 1473	 4389	 1278	45.76	-13.20	-12.91	-13.57	-13.29	-12.92	-12.37	-12.39	-12.48	-12.16	-11.52	-11.16	-9.691	-9.839	-8.905	-7.886	-7.820	-9.190	-9.380	-9.642	-9.459	-10.06	-9.904	-10.02	-9.812	-9.455	-9.392	-9.912	-9.821	-9.494	-9.115	-8.958	-8.945	-8.688	-8.736	-8.609	-8.977	-8.679	-8.799	-8.699	-9.440	-9.698	-9.760
385.0	-754.2	-599.7	-410.2	-296.5	-258.2	-215.8	-176.7	-112.2	-56.11	24.12	118.1	241.3	360.4	479.0	479.1	421.7	333.2	218.0	169.7	146.4	116.0	86.11	68.86	104.6	172.4	71.45	7.812	2.059	2.907	14.68	46.02	342.2	 2214	 3756	924.4	3.647	-12.47	-13.43	-12.58	-12.73	-12.31	-12.71	-12.53	-12.12	-11.43	-11.59	-10.05	-10.09	-8.994	-7.817	-8.062	-9.264	-9.257	-9.791	-9.352	-10.02	-9.885	-10.32	-9.795	-9.510	-9.506	-9.953	-9.813	-9.600	-9.215	-9.312	-9.513	-9.484	-9.166	-8.949	-8.985	-9.243	-9.220	-8.748	-9.060	-10.04	-9.859
390.0	-806.6	-614.6	-446.5	-310.7	-270.0	-225.1	-179.7	-116.2	-83.77	-5.974	70.51	157.1	245.7	336.5	331.6	303.9	257.4	181.9	154.0	131.7	114.3	86.60	60.48	56.02	100.7	136.8	63.04	8.285	0.361	2.163	5.925	71.37	520.6	 1739	 2722	 1244	49.09	-12.49	-12.57	-12.82	-12.16	-12.60	-12.40	-12.07	-11.55	-11.47	-9.782	-9.934	-8.969	-7.719	-8.111	-9.349	-9.378	-9.942	-9.243	-9.794	-10.16	-10.05	-10.09	-9.614	-9.815	-9.900	-9.639	-9.586	-9.588	-9.550	-9.368	-9.637	-9.477	-8.964	-9.478	-9.303	-9.277	-9.390	-9.446	-9.872	-9.934
395.0	-782.7	-650.3	-486.3	-329.9	-278.4	-211.6	-185.5	-127.2	-89.88	-35.77	24.55	84.81	161.6	224.9	239.9	228.7	195.9	158.4	136.8	128.8	113.2	88.31	63.06	45.17	44.72	86.95	134.1	52.82	7.504	-0.530	-0.451	13.43	110.5	382.1	937.0	 2743	 1157	69.02	-11.80	-11.81	-12.11	-12.35	-12.52	-12.41	-11.68	-11.06	-9.976	-10.33	-8.920	-7.956	-7.873	-9.477	-9.253	-9.975	-9.313	-10.03	-10.04	-9.963	-10.03	-9.686	-9.827	-9.945	-9.881	-9.961	-9.495	-9.755	-9.359	-10.02	-9.910	-9.633	-10.00	-9.778	-9.555	-9.878	-9.805	-9.706	-10.05
400.0	-819.4	-679.1	-497.6	-338.1	-275.3	-223.3	-172.2	-131.0	-86.23	-56.39	2.397	51.86	108.6	149.2	194.7	187.7	162.2	152.2	133.1	125.5	119.0	89.16	61.69	41.96	31.74	43.93	117.2	114.5	24.41	2.046	-0.018	0.593	20.29	80.13	207.7	 1209	 2934	989.6	30.06	-11.75	-11.53	-11.98	-12.24	-11.86	-11.71	-11.42	-9.850	-10.07	-8.977	-7.976	-7.848	-9.510	-9.405	-9.996	-9.412	-10.01	-9.935	-10.07	-9.716	-10.02	-10.18	-9.900	-9.859	-9.982	-9.576	-9.689	-9.810	-9.830	-9.921	-9.689	-10.18	-9.813	-9.494	-9.588	-9.838	-10.21	-10.84
405.0	-874.5	-681.0	-484.7	-363.8	-285.5	-214.7	-177.8	-124.8	-103.3	-74.97	-28.11	31.28	84.44	125.0	151.2	151.9	143.6	142.9	134.7	128.4	118.2	95.27	66.41	46.17	32.57	31.40	62.45	129.1	73.87	8.591	0.264	-0.765	1.326	12.43	40.32	282.2	 1589	 2923	753.2	-0.811	-11.72	-11.77	-12.26	-12.05	-12.24	-11.22	-10.28	-9.891	-9.226	-7.898	-8.043	-9.366	-8.980	-9.847	-9.659	-9.790	-10.08	-10.02	-9.589	-9.795	-10.04	-9.941	-9.959	-9.963	-10.24	-10.02	-10.04	-10.27	-9.744	-10.14	-10.27	-9.722	-9.977	-9.778	-10.22	-10.32	-10.37
410.0	-841.9	-705.1	-518.3	-358.7	-275.8	-218.1	-183.5	-136.6	-107.3	-69.45	-32.35	11.01	51.06	91.60	117.6	131.8	126.3	131.6	136.3	126.3	116.6	94.78	73.34	52.40	36.07	30.53	33.72	70.92	105.9	57.12	10.71	0.040	-2.284	-1.495	2.726	56.21	378.2	 1454	 2507	 1185	34.30	-11.44	-11.87	-11.63	-11.16	-11.02	-10.13	-9.814	-8.818	-7.942	-8.105	-9.378	-9.090	-9.844	-9.298	-9.789	-10.30	-10.02	-9.632	-9.852	-10.24	-9.684	-10.24	-9.696	-9.886	-9.969	-9.888	-10.19	-10.04	-10.05	-10.09	-10.01	-10.12	-9.954	-10.33	-10.23	-10.64
415.0	-840.1	-687.3	-520.2	-388.4	-284.6	-227.3	-182.7	-143.9	-104.5	-81.49	-53.04	-16.16	39.01	62.48	92.74	106.8	117.5	123.1	129.2	123.5	117.1	93.75	74.88	54.41	40.66	31.97	27.85	33.94	63.90	102.5	44.74	4.394	-1.888	-4.521	-4.708	6.369	78.86	318.3	926.5	 2872	932.1	51.40	-11.45	-11.63	-11.03	-11.29	-9.864	-10.17	-8.877	-8.062	-8.251	-9.812	-9.271	-9.945	-9.174	-9.741	-10.14	-10.34	-9.995	-9.894	-10.16	-9.840	-9.991	-9.976	-9.796	-9.900	-9.603	-10.33	-10.30	-9.783	-9.854	-10.08	-10.32	-9.988	-10.14	-10.21	-10.67
420.0	-841.1	-680.4	-518.4	-376.8	-282.8	-220.0	-173.8	-140.5	-111.7	-81.72	-56.54	-20.51	35.48	42.89	69.33	93.83	97.14	116.5	123.3	126.7	115.1	100.1	81.54	58.39	47.16	33.13	26.44	25.64	31.42	83.26	87.65	21.64	-0.768	-4.137	-4.655	-3.976	12.16	64.10	207.7	 1374	 2298	821.3	6.621	-11.37	-11.34	-11.00	-9.975	-10.05	-9.130	-8.039	-8.032	-9.724	-8.965	-9.916	-9.583	-9.707	-10.30	-10.19	-10.14	-9.907	-9.958	-9.554	-9.946	-9.764	-10.21	-9.932	-10.18	-10.24	-10.06	-9.954	-10.01	-10.06	-10.32	-10.05	-9.965	-10.51	-10.52
425.0	-843.6	-676.0	-545.2	-408.5	-289.2	-227.8	-181.5	-139.6	-115.1	-91.48	-63.25	-27.53	21.91	33.66	67.02	82.44	92.80	116.2	120.3	119.3	119.8	107.2	82.89	63.57	52.13	37.33	29.41	25.46	20.69	43.58	87.54	54.31	6.089	-2.920	-5.099	-4.751	-3.120	7.851	40.53	328.7	 1373	 2630	120.5	-7.859	-10.96	-10.99	-9.729	-9.904	-9.107	-8.031	-8.109	-9.668	-9.140	-9.892	-9.386	-10.02	-9.927	-10.12	-9.968	-9.853	-9.925	-9.736	-9.812	-9.991	-10.06	-10.31	-9.996	-10.12	-9.989	-10.12	-10.09	-9.923	-10.19	-10.28	-9.931	-10.35	-10.67
430.0	-797.3	-713.9	-540.4	-403.3	-289.8	-219.7	-181.5	-142.1	-108.5	-87.21	-58.38	-34.98	2.547	29.31	49.22	77.34	89.52	100.8	109.8	115.6	113.2	98.05	82.78	65.61	54.10	41.74	34.00	26.48	22.14	24.01	46.03	75.31	41.34	5.767	-3.859	-4.730	-4.544	-2.933	2.905	67.55	331.4	 1426	 1783	505.6	24.65	-10.55	-9.808	-9.610	-8.692	-7.861	-8.132	-9.377	-9.166	-9.905	-9.067	-9.874	-10.00	-10.22	-9.992	-10.03	-9.921	-9.912	-10.11	-9.914	-10.16	-10.07	-9.766	-10.11	-10.17	-10.16	-10.17	-10.21	-10.32	-10.26	-10.04	-10.13	-10.79
435.0	-613.8	-676.1	-519.8	-397.6	-298.5	-217.8	-191.5	-147.3	-107.7	-82.83	-67.86	-39.29	-6.985	18.52	41.75	65.87	79.97	95.80	108.2	111.1	107.7	95.58	82.73	69.48	55.01	46.73	37.81	31.90	21.38	18.22	22.64	41.30	71.35	32.57	1.187	-2.065	-3.679	-4.721	-3.641	9.550	67.51	314.0	777.5	 1907	771.6	27.03	-9.246	-9.609	-8.806	-7.846	-7.921	-9.226	-8.835	-9.982	-9.564	-9.760	-10.16	-10.11	-9.999	-10.19	-10.07	-10.02	-10.22	-9.966	-10.12	-9.977	-9.849	-10.07	-10.21	-10.21	-10.25	-10.20	-9.749	-10.38	-10.19	-10.40	-10.82
440.0	-488.5	-566.5	-536.5	-388.4	-298.8	-237.3	-184.8	-148.9	-108.7	-81.04	-63.02	-40.03	-8.530	12.27	39.17	57.48	72.31	93.70	100.6	99.56	102.2	95.44	84.78	72.54	55.87	48.39	38.29	31.13	23.12	18.78	16.13	19.35	53.74	60.00	14.38	-0.774	-2.381	-4.317	-3.352	-2.252	9.705	64.79	176.0	 1049	 1946	576.9	1.294	-9.264	-8.833	-7.787	-8.025	-9.276	-8.831	-9.775	-9.504	-9.937	-9.884	-9.697	-9.946	-10.06	-10.05	-9.799	-10.17	-9.813	-10.39	-10.08	-10.01	-10.15	-9.823	-9.800	-10.36	-10.16	-10.01	-10.49	-10.20	-10.74	-10.89
445.0	-557.0	-341.0	-510.2	-413.9	-283.8	-232.7	-181.7	-153.3	-106.9	-92.09	-69.72	-43.99	-15.17	6.427	34.68	44.10	69.66	89.23	92.20	98.69	100.9	93.03	78.11	68.82	58.57	50.94	38.35	30.58	24.88	18.06	13.84	13.12	28.93	62.79	37.79	4.155	-1.272	-3.013	-3.404	-4.399	-2.418	8.397	34.13	259.1	 1273	 1862	92.73	-7.174	-8.368	-7.513	-7.644	-9.230	-9.072	-9.740	-9.302	-9.653	-9.953	-9.753	-9.647	-10.10	-9.773	-10.03	-10.09	-9.863	-10.08	-10.33	-10.11	-10.10	-10.26	-10.02	-9.871	-9.884	-10.20	-10.36	-10.56	-10.30	-10.84
450.0	-764.6	-159.2	-281.1	-389.2	-288.3	-240.2	-183.8	-147.7	-114.1	-90.04	-71.96	-49.28	-21.51	-4.258	26.42	38.55	60.60	73.41	85.43	86.48	90.86	86.64	79.21	66.70	59.85	49.14	37.89	31.15	24.47	18.63	15.22	12.13	14.08	31.88	50.40	26.69	5.023	-1.411	-2.676	-4.128	-4.790	-3.394	1.693	51.63	317.6	 1140	 1572	410.0	14.43	-7.431	-7.683	-9.044	-8.914	-9.688	-9.372	-9.603	-10.14	-9.944	-9.854	-10.17	-9.641	-9.855	-10.18	-10.26	-10.03	-10.47	-9.862	-10.24	-10.23	-10.07	-10.29	-10.36	-10.36	-10.14	-10.57	-10.38	-10.80
455.0	-795.7	-426.9	251.3	-323.7	-300.7	-244.8	-191.0	-149.3	-121.9	-94.04	-78.50	-50.08	-29.43	-7.993	18.01	33.35	49.62	60.54	71.71	79.31	80.42	75.35	74.60	58.72	53.23	47.26	37.91	28.60	22.18	18.98	15.94	13.59	10.13	13.64	27.22	45.16	22.48	2.218	-1.918	-3.361	-4.623	-5.612	-4.430	5.559	64.70	251.3	740.4	 1647	551.6	8.398	-7.598	-9.108	-8.447	-9.689	-9.342	-9.861	-10.08	-10.06	-9.984	-9.945	-9.815	-10.12	-9.969	-10.09	-10.24	-10.26	-10.20	-10.34	-10.60	-10.24	-10.45	-10.60	-10.19	-10.40	-10.18	-10.53	-10.70
460.0	-830.4	-614.2	500.5	-9.723	-293.4	-247.8	-193.6	-156.5	-135.8	-99.47	-79.68	-57.38	-33.31	-11.08	8.948	27.04	40.08	55.11	63.18	70.44	69.10	68.39	69.47	57.80	49.87	42.81	34.65	24.56	21.14	16.42	16.23	11.77	9.335	8.713	11.66	36.46	37.89	9.304	-0.439	-3.324	-3.729	-5.585	-6.378	-4.458	8.487	50.13	172.7	983.0	 1547	79.86	-2.784	-8.778	-8.379	-9.462	-9.182	-9.672	-10.00	-10.07	-10.03	-9.927	-10.05	-10.18	-9.824	-9.937	-10.21	-10.44	-10.19	-10.25	-10.01	-10.08	-10.42	-10.48	-10.50	-10.27	-10.50	-10.48	-10.82
465.0	-844.3	-675.7	219.7	663.4	-265.3	-252.7	-204.0	-163.2	-129.2	-102.0	-86.20	-55.34	-42.18	-11.42	0.943	17.49	30.82	43.87	56.43	60.69	59.96	65.45	60.20	50.99	42.97	38.47	32.56	24.06	19.75	13.83	12.55	9.248	7.730	5.878	6.514	17.12	36.37	21.79	1.697	-4.081	-5.306	-5.240	-6.503	-6.034	-4.603	4.821	33.47	255.2	 1153	 1223	68.95	-8.219	-8.574	-9.325	-9.075	-9.807	-9.871	-9.887	-9.698	-10.36	-10.06	-10.09	-10.06	-9.753	-10.15	-10.14	-10.40	-10.17	-10.28	-10.36	-10.45	-10.26	-10.22	-10.49	-10.45	-10.50	-10.93
470.0	-814.6	-691.7	-337.2	988.3	289.2	-244.8	-203.8	-172.1	-127.8	-102.5	-83.06	-62.01	-42.91	-19.17	-10.44	8.313	25.68	33.50	43.77	48.97	53.71	51.77	48.66	44.52	39.02	33.69	27.64	21.62	17.34	11.59	10.62	8.633	6.840	4.710	4.095	6.639	18.03	28.10	13.57	-1.015	-4.650	-5.638	-6.694	-7.039	-6.890	-5.155	2.322	51.47	298.0	889.5	898.9	315.7	4.357	-9.334	-9.036	-9.563	-9.922	-9.818	-9.804	-9.972	-9.751	-9.930	-10.11	-9.636	-10.17	-10.02	-10.35	-10.14	-10.13	-10.33	-10.30	-10.30	-10.17	-10.22	-10.30	-10.70	-10.92
475.0	-835.2	-694.7	-517.1	319.3	 1336	-118.5	-206.0	-166.9	-137.3	-114.4	-83.53	-70.05	-46.79	-29.13	-9.289	-6.046	16.92	24.77	35.30	36.18	41.46	40.69	39.14	37.68	33.88	27.17	22.58	15.47	14.74	8.586	8.733	7.574	5.751	5.100	2.946	3.404	6.052	15.88	23.08	7.416	-3.807	-5.043	-7.312	-7.084	-7.213	-7.638	-5.172	5.101	61.20	197.3	512.2	 1080	367.8	0.733	-8.884	-9.531	-9.857	-9.711	-9.754	-9.943	-9.582	-10.18	-9.943	-9.900	-10.23	-10.30	-10.26	-10.10	-10.30	-10.39	-10.53	-10.18	-10.12	-10.39	-10.07	-10.76	-10.91
480.0	-835.8	-689.8	-571.2	-206.5	 1595	415.2	-205.6	-175.1	-139.8	-107.6	-83.45	-71.94	-53.92	-42.63	-21.83	-4.903	5.746	14.26	25.22	26.85	36.79	32.66	34.43	32.27	28.98	23.79	17.43	14.03	10.62	8.524	6.967	6.340	3.729	3.570	1.848	0.226	2.120	4.704	19.02	18.39	1.063	-4.908	-7.082	-7.354	-7.135	-7.772	-6.474	-4.691	8.313	39.77	122.6	684.7	 1069	86.62	-6.793	-9.568	-9.763	-9.817	-9.795	-9.930	-9.917	-10.09	-10.14	-10.11	-10.25	-10.06	-10.32	-10.12	-10.16	-10.45	-10.41	-10.47	-9.959	-10.26	-10.36	-10.90	-11.12
485.0	-799.8	-686.1	-586.1	-360.2	910.1	 1340	-171.7	-175.3	-147.1	-117.6	-94.90	-78.18	-50.02	-41.76	-21.77	-2.174	0.419	5.518	16.57	20.98	27.56	28.09	29.21	27.89	22.87	22.87	15.45	10.09	9.761	6.844	5.815	5.843	2.021	1.294	2.400	-0.018	0.744	-0.197	8.442	20.44	9.659	-3.765	-6.002	-6.787	-7.831	-7.981	-6.340	-6.859	-3.413	4.622	22.89	183.5	858.5	787.2	59.39	-9.043	-9.425	-9.760	-9.638	-9.792	-10.00	-10.16	-9.971	-10.34	-9.995	-10.25	-10.30	-10.36	-10.27	-10.21	-10.40	-10.24	-9.974	-10.21	-10.50	-10.93	-11.07
490.0	-798.3	-712.1	-548.1	-411.0	50.39	 1673	552.4	-174.6	-143.7	-117.2	-101.0	-76.05	-55.79	-45.10	-23.08	-10.96	-4.266	0.800	11.13	16.33	18.85	22.94	24.30	23.75	17.02	17.78	13.03	9.711	6.462	6.199	3.971	3.312	2.255	1.557	0.703	0.931	-0.004	-1.582	0.511	9.708	14.22	4.023	-4.567	-6.777	-7.291	-6.934	-6.338	-6.987	-5.459	-3.352	0.395	35.00	225.2	639.4	836.7	288.3	3.443	-9.646	-9.727	-9.767	-10.10	-9.898	-10.08	-10.07	-10.22	-10.15	-10.19	-10.27	-10.37	-10.40	-10.50	-10.23	-10.36	-10.21	-10.66	-10.80	-11.06
495.0	-855.0	-734.4	-547.3	-429.5	-234.9	641.7	 1844	-39.77	-137.3	-120.6	-100.2	-84.76	-64.35	-46.41	-29.38	-17.68	-7.955	-1.495	9.234	9.669	14.55	13.06	18.31	17.28	13.84	12.38	7.503	4.714	3.924	2.507	1.531	0.454	1.422	0.755	-0.296	1.260	-1.254	-1.484	-0.811	-0.372	6.328	11.34	0.730	-6.054	-7.124	-7.076	-6.218	-6.538	-5.835	-5.090	-4.668	1.891	44.25	139.3	496.9	 1045	386.7	-0.026	-9.879	-9.627	-10.02	-9.943	-9.550	-10.05	-10.26	-10.31	-9.923	-10.21	-10.51	-10.23	-10.42	-10.31	-10.32	-10.35	-10.71	-10.88	-11.25
500.0	-822.4	-729.4	-515.1	-407.6	-299.7	-26.29	 2007	622.2	-139.9	-124.4	-101.4	-84.26	-66.46	-48.18	-31.93	-20.68	-10.38	-7.545	1.865	2.156	8.554	10.50	13.08	10.40	11.67	8.215	6.569	3.042	2.139	0.302	-1.007	-1.951	0.460	-0.944	0.205	-0.455	-1.925	-2.228	-1.372	-3.007	-0.422	9.835	6.481	-3.774	-7.285	-6.680	-6.957	-6.963	-5.933	-5.546	-5.829	-4.976	3.828	24.91	119.1	663.7	 1099	88.28	-6.809	-9.434	-9.826	-9.873	-10.07	-10.09	-9.801	-10.41	-9.747	-10.21	-10.04	-10.34	-10.40	-9.974	-10.46	-10.61	-10.65	-11.15	-11.25
505.0	-845.6	-728.0	-568.2	-403.1	-333.1	-219.2	 1122	 1629	-106.2	-126.0	-105.3	-85.58	-70.49	-52.33	-32.49	-23.96	-12.90	-9.732	-2.632	0.922	2.029	4.425	6.141	6.093	8.505	3.609	4.016	1.182	0.060	-1.008	-1.327	-1.314	-1.338	-3.196	-1.213	-2.492	-2.275	-3.235	-3.000	-4.658	-4.163	2.429	8.856	1.653	-5.624	-7.011	-6.189	-6.952	-6.369	-5.445	-5.941	-7.162	-5.003	-0.601	20.81	173.5	866.8	814.5	65.75	-8.848	-9.679	-10.05	-10.19	-9.693	-9.954	-10.34	-10.12	-10.18	-10.07	-10.61	-10.20	-10.35	-10.62	-10.57	-10.30	-10.78	-10.81
510.0	-885.7	-753.0	-577.3	-404.8	-333.8	-255.9	169.3	 1872	659.2	-123.3	-108.6	-91.60	-69.60	-57.90	-42.35	-32.41	-20.32	-13.95	-8.964	-3.223	-0.148	3.247	2.623	0.988	2.833	-0.249	0.543	-2.158	-2.187	-3.160	-3.153	-2.179	-2.438	-4.000	-3.782	-2.508	-3.118	-3.629	-4.009	-5.507	-4.743	-3.895	2.748	5.484	-0.802	-6.353	-6.452	-6.876	-6.190	-5.252	-5.682	-7.376	-6.992	-6.551	-1.754	32.20	223.8	652.2	741.6	235.5	1.707	-9.846	-9.979	-9.903	-10.03	-10.16	-10.17	-10.22	-10.19	-10.29	-10.60	-10.31	-10.64	-10.55	-10.43	-10.91	-10.86
515.0	-823.5	-792.3	-615.7	-421.3	-318.8	-272.4	-128.5	729.0	 1925	25.41	-112.9	-97.54	-75.38	-62.70	-42.06	-36.82	-23.68	-19.53	-13.33	-10.72	-6.758	-4.468	-3.079	-3.601	-1.359	-2.303	-3.048	-3.362	-3.209	-5.891	-6.170	-4.192	-4.066	-5.560	-3.711	-3.903	-5.236	-5.542	-5.867	-5.736	-5.681	-5.953	-4.332	0.518	3.733	-2.923	-5.845	-6.850	-5.961	-5.848	-5.746	-7.204	-7.119	-7.986	-6.835	0.352	43.38	141.6	380.6	824.9	95.84	-2.552	-9.653	-9.987	-10.06	-10.20	-10.28	-10.52	-10.41	-10.34	-10.46	-10.15	-10.41	-10.47	-10.31	-11.24	-10.97
520.0	-872.2	-721.5	-597.1	-433.7	-302.3	-265.5	-207.9	65.40	 1881	592.5	-113.5	-96.93	-77.83	-65.62	-47.71	-41.60	-30.07	-23.81	-15.36	-13.16	-9.280	-8.400	-7.780	-5.968	-3.463	-5.342	-4.643	-5.495	-7.671	-7.595	-5.033	-4.699	-5.279	-6.196	-5.385	-5.405	-5.594	-5.724	-5.547	-6.773	-6.381	-7.160	-6.286	-3.447	2.701	0.995	-4.504	-6.943	-6.489	-5.499	-5.907	-7.223	-7.170	-7.885	-7.621	-6.435	3.009	25.13	86.79	508.4	705.3	79.00	-8.133	-9.846	-9.919	-10.01	-10.36	-10.22	-10.78	-10.45	-10.20	-10.18	-10.47	-10.38	-10.71	-10.98	-11.09
525.0	-869.8	-748.7	-606.6	-441.2	-299.4	-257.8	-232.0	-130.2	980.8	 1509	-76.39	-94.99	-78.81	-65.63	-50.88	-39.57	-33.01	-27.80	-19.62	-14.31	-8.892	-11.19	-9.092	-7.867	-4.718	-8.434	-5.579	-6.724	-9.112	-8.561	-7.726	-5.093	-4.763	-6.237	-6.651	-6.586	-6.373	-6.355	-6.160	-7.441	-6.662	-7.882	-7.287	-6.001	-1.082	2.824	-0.901	-6.338	-6.520	-5.190	-6.005	-7.679	-7.501	-7.922	-7.525	-7.979	-6.085	-1.434	12.99	130.1	542.2	638.2	59.28	-9.579	-9.953	-9.995	-10.48	-10.15	-10.48	-10.68	-10.59	-10.22	-10.32	-10.66	-10.85	-10.79	-11.19
530.0	-858.9	-749.6	-585.1	-459.7	-331.0	-236.9	-227.4	-182.1	152.5	 1498	497.1	-93.39	-81.87	-62.80	-53.85	-42.33	-32.56	-27.71	-23.77	-18.20	-13.94	-13.91	-11.41	-10.64	-8.857	-10.51	-8.552	-8.893	-9.710	-9.042	-9.727	-8.802	-7.476	-7.389	-6.517	-6.703	-6.705	-7.149	-7.346	-8.019	-6.898	-8.103	-8.099	-8.038	-5.834	-0.748	2.162	-3.870	-6.019	-5.259	-5.930	-7.567	-7.284	-7.978	-7.950	-8.479	-7.966	-7.285	-3.984	21.93	135.1	433.4	544.7	222.0	0.942	-10.14	-10.24	-10.05	-10.29	-10.66	-10.40	-10.44	-10.45	-10.45	-10.65	-10.67	-11.13
535.0	-846.1	-727.4	-615.2	-452.6	-362.3	-244.4	-209.2	-190.0	-89.89	505.6	 1345	10.57	-88.69	-65.08	-55.61	-44.46	-36.86	-30.84	-27.03	-22.17	-16.73	-14.38	-15.00	-14.51	-11.53	-12.50	-11.22	-11.86	-9.820	-9.474	-10.24	-10.91	-9.716	-7.795	-8.113	-7.344	-7.496	-7.455	-7.827	-7.593	-7.813	-8.552	-8.456	-8.219	-7.079	-5.223	-0.673	-0.132	-3.868	-5.277	-6.008	-7.613	-7.725	-8.285	-7.854	-7.977	-8.340	-8.905	-7.583	-2.412	23.16	90.94	260.6	735.2	96.03	-3.376	-9.943	-10.14	-10.19	-10.70	-10.45	-10.57	-10.58	-10.58	-10.72	-10.98	-11.10
540.0	-887.7	-755.1	-606.7	-454.1	-357.8	-264.0	-184.6	-192.6	-141.9	28.31	 1206	393.3	-91.74	-72.08	-56.78	-46.72	-39.92	-32.85	-29.66	-23.33	-18.75	-16.60	-14.52	-15.02	-14.19	-11.94	-12.11	-12.36	-12.37	-11.09	-12.44	-10.41	-10.08	-9.516	-8.376	-6.939	-7.840	-8.352	-8.384	-9.185	-8.174	-8.344	-9.885	-8.604	-7.762	-7.468	-3.635	0.825	-1.162	-5.041	-5.968	-7.957	-7.684	-8.572	-8.351	-7.991	-8.460	-8.792	-8.791	-7.747	-1.967	13.12	55.39	428.6	625.3	78.95	-8.022	-10.45	-10.04	-10.30	-10.42	-10.71	-10.72	-10.58	-10.56	-10.73	-10.99
545.0	-860.9	-783.4	-604.0	-458.1	-361.9	-280.2	-175.2	-183.4	-160.6	-102.0	581.7	949.4	-68.44	-72.48	-56.32	-49.36	-42.09	-34.99	-26.95	-24.26	-23.83	-20.66	-17.13	-17.19	-15.50	-13.03	-13.72	-13.25	-12.58	-12.55	-12.58	-11.95	-10.13	-11.20	-9.080	-8.846	-8.999	-7.848	-8.888	-8.956	-8.422	-8.880	-10.11	-8.861	-8.469	-8.119	-5.867	-2.129	-0.527	-3.241	-6.320	-7.729	-7.979	-8.613	-8.063	-8.558	-8.760	-8.952	-9.223	-8.742	-7.543	-4.653	5.049	107.2	443.2	455.9	49.90	-9.887	-10.01	-10.15	-10.52	-10.44	-10.60	-10.75	-10.81	-10.86	-11.00
550.0	-842.8	-739.5	-593.0	-455.2	-355.5	-297.6	-201.5	-157.1	-162.2	-131.5	71.02	961.2	325.0	-72.52	-60.83	-49.82	-41.94	-37.89	-32.45	-28.08	-24.57	-22.03	-19.91	-17.34	-16.90	-14.88	-14.80	-15.38	-13.77	-14.31	-13.86	-13.65	-11.02	-11.89	-10.01	-9.736	-9.887	-9.327	-9.298	-9.837	-9.214	-9.705	-10.09	-9.474	-8.942	-8.566	-7.191	-5.659	-2.429	-1.573	-4.859	-8.241	-7.847	-8.862	-8.204	-8.807	-9.118	-9.019	-9.153	-9.138	-9.193	-8.359	-6.310	16.53	105.4	281.9	351.8	122.2	-3.917	-10.24	-10.49	-10.30	-10.68	-10.66	-10.62	-10.89	-10.97
555.0	-847.2	-725.5	-628.4	-466.8	-365.8	-301.3	-234.4	-134.9	-144.6	-140.3	-84.22	304.0	872.0	-13.57	-65.55	-53.25	-45.07	-39.95	-32.95	-30.35	-26.22	-23.25	-21.14	-20.34	-18.12	-17.09	-16.66	-16.88	-16.12	-15.91	-15.12	-14.79	-13.29	-12.77	-11.18	-10.22	-10.20	-10.38	-10.15	-9.601	-9.694	-10.48	-10.11	-10.16	-9.514	-9.598	-7.766	-7.572	-5.318	-2.227	-2.879	-7.580	-8.211	-8.982	-8.325	-8.817	-9.273	-9.347	-9.216	-8.902	-9.543	-9.352	-8.906	-4.100	16.00	55.93	157.2	355.5	84.35	-6.175	-10.33	-10.57	-10.41	-10.74	-10.69	-11.12	-10.98
560.0	-853.6	-738.0	-612.9	-471.9	-366.9	-296.1	-243.6	-144.8	-138.3	-145.9	-114.2	10.31	813.1	292.8	-62.72	-54.34	-47.15	-39.77	-34.27	-32.44	-27.69	-25.34	-23.30	-21.93	-19.49	-19.07	-17.67	-17.16	-17.35	-16.87	-16.05	-14.65	-13.93	-13.83	-12.34	-11.20	-10.95	-11.00	-10.45	-10.39	-9.968	-10.56	-11.04	-10.14	-9.992	-9.750	-8.206	-8.392	-7.084	-4.031	-3.248	-6.062	-7.816	-8.871	-8.091	-9.110	-9.350	-9.576	-9.101	-9.222	-9.824	-9.670	-9.767	-8.865	-3.576	4.887	29.63	189.9	313.7	62.73	-9.006	-10.59	-10.35	-10.71	-10.63	-11.07	-11.21
565.0	-837.1	-746.4	-611.3	-482.4	-360.8	-304.1	-242.8	-174.5	-115.6	-144.3	-126.6	-85.43	389.1	720.4	-47.97	-56.89	-48.97	-41.12	-34.44	-33.13	-29.32	-25.83	-24.53	-22.58	-20.95	-20.44	-18.10	-18.25	-17.99	-18.14	-16.64	-15.82	-14.69	-13.86	-13.40	-11.77	-11.75	-11.83	-11.49	-11.33	-10.25	-10.74	-11.09	-10.43	-10.41	-9.707	-8.612	-8.282	-7.642	-5.786	-3.867	-5.544	-7.270	-8.629	-8.385	-9.439	-9.554	-9.713	-9.433	-9.417	-9.592	-9.833	-10.01	-9.687	-8.307	-6.648	-1.093	41.43	215.7	266.8	30.80	-10.10	-10.45	-10.75	-10.47	-10.95	-11.02
570.0	-867.7	-746.5	-607.8	-467.5	-360.8	-292.2	-243.6	-191.8	-119.1	-126.4	-130.2	-107.2	37.73	724.2	235.2	-53.07	-48.87	-42.42	-36.22	-33.21	-29.55	-28.14	-24.55	-23.51	-22.45	-20.12	-19.88	-18.85	-19.04	-17.95	-17.81	-16.55	-15.50	-14.44	-13.42	-12.67	-12.30	-12.58	-11.88	-11.64	-10.71	-11.02	-11.00	-10.68	-10.36	-10.19	-9.029	-9.001	-8.231	-6.804	-5.837	-6.543	-6.697	-8.449	-8.755	-9.319	-9.528	-9.433	-9.412	-9.500	-9.207	-9.784	-9.940	-9.849	-9.723	-8.981	-7.956	1.476	47.64	164.1	206.5	48.73	-7.124	-10.64	-10.82	-10.97	-11.28
575.0	-865.0	-767.2	-605.6	-470.3	-359.1	-294.3	-247.7	-202.9	-151.5	-98.26	-130.8	-108.4	-61.60	223.6	701.1	2.915	-48.68	-43.42	-38.32	-34.90	-30.86	-28.52	-25.48	-23.81	-22.70	-21.29	-20.87	-19.59	-20.57	-19.09	-18.02	-17.33	-16.34	-14.63	-14.01	-13.17	-12.56	-12.82	-11.29	-11.98	-11.31	-11.70	-11.37	-11.22	-10.72	-10.54	-9.267	-9.471	-8.327	-7.042	-6.930	-8.393	-7.036	-8.068	-8.542	-9.306	-9.859	-9.475	-9.571	-9.422	-9.334	-9.495	-10.03	-10.16	-10.10	-9.628	-9.418	-7.306	2.515	28.86	87.72	215.3	68.32	-8.606	-10.80	-11.24	-11.09
580.0	-821.0	-772.3	-588.5	-458.1	-363.0	-305.6	-243.0	-200.3	-171.8	-86.75	-122.4	-104.2	-83.32	1.068	677.9	258.8	-47.19	-45.22	-38.28	-34.81	-32.57	-29.27	-26.84	-24.74	-22.00	-23.20	-20.12	-20.60	-20.87	-19.42	-18.71	-17.16	-16.70	-14.81	-14.51	-13.45	-12.66	-13.13	-12.55	-11.69	-12.07	-11.83	-11.49	-11.44	-10.57	-10.91	-9.627	-9.526	-8.710	-7.238	-7.219	-8.913	-7.262	-7.880	-7.792	-9.472	-9.713	-9.088	-9.663	-9.523	-9.647	-9.777	-9.817	-10.37	-10.18	-9.728	-10.03	-9.404	-7.381	-1.570	13.26	113.9	199.7	37.75	-10.41	-11.17	-11.36
585.0	-868.7	-769.7	-580.2	-456.3	-372.3	-301.9	-241.3	-202.0	-172.8	-108.1	-99.50	-106.1	-88.69	-55.11	316.4	620.6	-34.17	-42.17	-38.30	-34.41	-33.26	-29.65	-26.30	-24.85	-23.48	-22.32	-20.90	-21.07	-20.63	-19.52	-18.49	-17.53	-16.93	-15.36	-14.74	-13.41	-13.46	-13.23	-12.65	-12.26	-11.96	-11.61	-11.68	-11.96	-10.64	-10.73	-9.570	-9.538	-8.829	-7.640	-7.402	-9.138	-8.211	-7.991	-7.859	-9.120	-9.856	-9.902	-9.754	-9.411	-9.766	-10.03	-9.835	-9.674	-10.06	-10.23	-10.52	-9.764	-9.628	-8.373	-5.076	21.27	141.6	148.1	13.73	-11.05	-11.15
590.0	-853.6	-751.9	-573.0	-458.3	-366.5	-303.8	-246.3	-207.2	-173.2	-127.5	-71.20	-91.57	-77.20	-58.31	55.74	647.3	178.8	-41.12	-38.72	-35.62	-32.70	-29.82	-27.66	-25.74	-23.86	-22.85	-21.43	-20.79	-20.38	-19.96	-19.34	-17.92	-17.39	-15.93	-14.93	-13.51	-13.78	-13.41	-12.77	-12.35	-12.27	-11.95	-12.07	-11.84	-11.05	-10.89	-9.712	-9.655	-8.803	-7.659	-7.681	-9.528	-8.868	-8.700	-7.541	-8.754	-9.652	-10.05	-9.780	-9.613	-9.887	-10.01	-9.951	-9.909	-9.926	-10.26	-10.23	-10.08	-10.09	-9.979	-9.036	-3.201	28.90	91.18	104.7	29.90	-9.259
595.0	-834.2	-734.8	-601.6	-442.9	-361.5	-294.3	-246.2	-212.4	-165.9	-128.9	-65.28	-56.56	-46.17	-27.88	10.19	247.3	530.4	1.130	-37.41	-35.67	-32.64	-29.98	-27.82	-25.87	-24.39	-23.00	-22.16	-21.16	-21.65	-20.10	-19.91	-18.26	-17.24	-16.05	-15.33	-14.12	-13.65	-13.69	-13.36	-12.93	-12.41	-12.48	-12.34	-11.49	-11.52	-10.80	-9.816	-9.832	-9.085	-7.755	-7.781	-9.470	-8.795	-9.412	-8.434	-8.831	-9.340	-9.856	-9.814	-9.949	-9.826	-9.895	-10.32	-10.01	-9.274	-9.889	-9.920	-10.36	-10.17	-10.30	-9.942	-8.727	-1.324	12.49	43.64	119.0	38.28
600.0	-828.7	-708.6	-586.3	-430.2	-366.8	-295.9	-244.9	-211.0	-168.5	-123.7	-68.00	-12.26	-7.761	15.76	38.22	89.53	533.2	183.8	-37.73	-34.60	-33.03	-30.70	-28.58	-26.72	-24.32	-23.03	-21.92	-21.64	-21.20	-20.19	-19.63	-19.29	-17.41	-16.80	-14.81	-14.26	-13.74	-13.76	-13.36	-13.45	-12.50	-12.46	-12.32	-11.87	-11.38	-10.60	-10.20	-9.869	-9.020	-7.720	-7.915	-9.585	-8.785	-9.794	-8.852	-8.738	-8.619	-9.733	-9.819	-9.939	-9.816	-9.768	-10.05	-10.19	-9.952	-9.957	-9.952	-10.04	-10.21	-10.00	-10.12	-10.05	-8.203	-5.504	2.807	63.67	111.0
605.0	-870.3	-714.1	-565.8	-411.7	-358.3	-298.3	-248.8	-201.4	-160.5	-115.8	-64.29	36.41	52.10	80.11	86.07	80.60	301.8	457.9	-29.58	-36.10	-33.75	-31.57	-28.63	-26.60	-25.21	-22.69	-21.97	-21.26	-21.15	-20.60	-20.13	-19.36	-17.25	-16.36	-15.37	-14.23	-14.19	-13.61	-13.42	-12.98	-12.71	-12.34	-12.34	-12.09	-11.78	-10.76	-9.916	-9.909	-8.882	-7.773	-8.044	-9.279	-9.254	-9.904	-9.102	-9.251	-8.970	-8.911	-9.838	-10.07	-9.932	-9.955	-10.07	-10.24	-10.06	-9.986	-9.895	-9.716	-9.560	-9.962	-9.816	-9.883	-9.578	-9.235	-7.391	9.255	82.29
610.0	-839.2	-692.1	-552.4	-409.9	-338.8	-297.6	-238.3	-201.5	-155.5	-99.48	-34.17	64.85	141.9	169.7	170.7	138.0	132.5	484.4	141.3	-34.61	-34.22	-30.36	-28.87	-26.58	-25.19	-23.28	-22.74	-21.26	-21.47	-21.18	-20.23	-19.37	-17.41	-16.68	-15.61	-14.44	-14.06	-13.85	-13.45	-12.87	-12.53	-12.65	-12.44	-12.07	-11.49	-11.23	-9.936	-9.781	-8.814	-7.980	-8.083	-9.362	-9.088	-9.881	-9.164	-9.590	-9.556	-9.034	-9.401	-9.990	-9.923	-9.931	-9.895	-9.880	-9.829	-9.972	-9.624	-9.656	-9.532	-9.991	-9.700	-9.709	-9.804	-9.509	-9.732	-6.042	13.71
615.0	-794.6	-657.4	-520.5	-395.6	-310.4	-289.5	-240.9	-193.6	-149.7	-89.64	-10.07	86.65	237.5	255.8	251.0	196.5	118.8	195.7	415.8	-10.95	-33.46	-30.09	-28.68	-27.24	-25.29	-23.05	-22.50	-22.01	-21.23	-21.46	-20.03	-18.91	-17.83	-17.02	-15.90	-14.88	-14.11	-14.04	-13.16	-13.27	-12.77	-12.54	-12.70	-11.79	-10.85	-10.75	-9.997	-9.828	-8.831	-7.771	-8.024	-9.509	-8.982	-9.629	-9.419	-9.775	-9.899	-9.891	-9.312	-9.888	-9.972	-10.17	-9.900	-10.04	-9.827	-9.445	-9.623	-9.497	-9.287	-9.909	-9.460	-9.781	-9.399	-9.611	-10.26	-9.250	-4.998
620.0	-774.1	-662.5	-482.0	-378.6	-311.7	-282.2	-243.3	-189.4	-139.7	-75.91	16.71	118.7	274.0	304.7	289.1	238.8	136.4	60.13	396.7	104.7	-33.09	-30.47	-29.22	-27.32	-25.41	-24.02	-22.22	-22.91	-21.91	-21.61	-20.73	-18.70	-17.70	-16.75	-16.01	-14.92	-13.66	-13.33	-13.44	-13.24	-12.78	-12.77	-13.25	-11.90	-11.65	-11.15	-9.929	-9.882	-9.126	-8.029	-8.031	-9.460	-9.179	-9.677	-9.130	-9.864	-9.786	-9.501	-9.648	-9.624	-9.779	-10.27	-9.960	-9.915	-9.521	-9.788	-9.743	-9.190	-9.300	-9.449	-9.477	-9.252	-9.717	-9.950	-10.04	-10.16	-9.242
625.0	-807.2	-651.4	-450.1	-352.9	-317.2	-274.6	-237.0	-183.9	-123.3	-62.77	31.57	138.8	275.2	358.5	346.5	266.6	152.5	34.48	211.5	298.4	-28.61	-29.62	-28.79	-27.81	-25.46	-24.08	-22.73	-22.31	-22.59	-21.91	-20.01	-19.29	-17.24	-17.05	-15.73	-14.32	-13.77	-13.81	-13.86	-13.06	-12.93	-13.07	-13.28	-12.55	-11.66	-11.13	-10.06	-9.903	-8.870	-7.890	-8.035	-9.468	-9.175	-9.677	-9.453	-10.00	-10.40	-10.08	-9.651	-9.331	-9.280	-10.27	-9.976	-9.689	-9.912	-9.518	-9.499	-9.631	-9.346	-9.453	-9.309	-9.478	-9.278	-9.765	-9.981	-10.35	-9.885
630.0	-802.7	-663.1	-452.6	-346.2	-312.3	-285.6	-236.7	-187.5	-129.0	-68.30	35.26	161.6	283.9	404.2	383.7	295.4	165.8	30.77	39.23	324.7	96.00	-30.42	-29.06	-28.02	-26.20	-24.65	-23.69	-22.18	-22.16	-21.30	-20.71	-19.50	-18.24	-16.97	-16.16	-14.59	-13.91	-14.07	-13.98	-13.56	-12.74	-13.06	-12.87	-12.41	-11.75	-11.19	-9.788	-9.668	-8.985	-8.052	-7.997	-9.472	-9.127	-9.925	-9.411	-10.14	-10.17	-10.35	-9.905	-9.635	-9.415	-9.902	-10.09	-9.889	-9.846	-9.534	-9.652	-9.348	-9.372	-9.502	-9.074	-9.418	-9.509	-9.503	-9.794	-10.47	-10.42
635.0	-797.6	-667.3	-419.5	-355.9	-319.3	-284.8	-234.7	-187.1	-126.3	-61.49	35.81	171.7	298.4	396.2	411.5	308.5	169.0	36.83	-8.722	103.9	304.7	-8.037	-27.90	-27.29	-25.10	-25.00	-23.86	-22.73	-22.54	-21.27	-20.77	-20.10	-18.09	-16.81	-16.01	-14.65	-13.63	-14.39	-13.95	-13.27	-12.86	-12.53	-12.67	-12.26	-11.75	-11.19	-10.42	-10.06	-9.127	-7.967	-8.286	-9.564	-9.244	-9.863	-9.729	-10.21	-10.19	-10.25	-10.08	-10.05	-9.583	-9.558	-9.814	-9.896	-9.530	-9.653	-9.562	-9.412	-9.307	-9.295	-9.079	-9.338	-9.309	-9.330	-9.380	-10.22	-10.58
640.0	-827.5	-681.7	-442.2	-365.1	-317.1	-273.7	-235.7	-192.0	-127.5	-60.82	46.73	164.5	283.0	381.3	414.1	312.6	164.1	33.05	-20.81	0.948	303.9	88.46	-28.76	-27.75	-25.33	-23.60	-23.06	-22.82	-21.95	-21.51	-21.10	-19.71	-18.15	-17.20	-16.21	-15.19	-13.69	-14.36	-14.06	-13.53	-12.63	-12.80	-12.64	-12.56	-11.55	-11.27	-10.27	-10.28	-9.008	-7.944	-8.307	-9.748	-9.524	-9.962	-9.565	-10.06	-10.07	-10.21	-9.908	-9.660	-9.806	-9.662	-9.681	-10.22	-9.821	-9.349	-9.628	-9.456	-9.701	-9.474	-9.345	-9.423	-9.348	-9.639	-9.512	-10.05	-10.73
645.0	-784.6	-655.3	-474.6	-363.1	-318.6	-263.4	-228.0	-182.6	-136.4	-56.98	41.02	161.8	280.7	371.5	390.5	308.3	168.0	32.24	-22.57	-24.90	161.1	230.6	-23.60	-27.24	-26.00	-23.90	-22.81	-22.16	-22.22	-21.61	-20.50	-20.17	-18.65	-17.16	-16.58	-15.12	-14.01	-14.76	-13.59	-13.77	-12.38	-12.83	-12.50	-12.44	-11.56	-11.43	-10.24	-10.08	-9.067	-8.050	-8.375	-10.07	-9.355	-9.832	-9.580	-10.13	-10.21	-10.19	-9.775	-9.759	-10.03	-9.801	-9.898	-10.07	-9.922	-9.650	-9.915	-9.868	-9.571	-9.545	-9.243	-9.804	-9.412	-9.347	-9.630	-10.39	-10.71
650.0	-769.1	-689.7	-462.2	-369.8	-318.4	-282.0	-235.1	-186.7	-144.2	-68.72	22.91	143.9	258.2	333.6	360.9	291.7	157.2	21.67	-26.20	-31.79	30.60	304.4	17.47	-27.63	-25.46	-24.06	-22.88	-22.19	-22.10	-21.69	-20.99	-19.59	-19.10	-17.06	-16.28	-14.89	-14.48	-14.61	-13.76	-13.76	-12.69	-13.03	-12.94	-12.20	-11.79	-11.46	-9.960	-9.826	-9.326	-7.961	-8.197	-9.492	-9.601	-9.914	-9.593	-10.27	-10.30	-10.25	-10.09	-9.762	-10.42	-9.847	-9.585	-9.548	-9.696	-10.06	-9.682	-9.677	-9.067	-9.570	-9.340	-9.825	-9.478	-9.040	-9.604	-10.35	-10.50
