Sample:	'1
File name:	振德老污水池 9.11 8时52.FD3
Run date:	'13:48:47, 09/12/2024
Operator:	horiz
Comment:	'

Instrument
Model:	F-2700 FL Spectrophotometer
Serial number:	23B8-004
ROM Version:	4J14000 07

Instrument parameters
Measurement type:	3-D scan
Data mode:	Fluorescence
EX  Start WL:	220.0 nm
EX  End WL:	600.0 nm
EX Sampling interval:	5.0 nm
EM  Start WL:	230.0 nm
EM  End WL:	650.0 nm
EM Sampling interval:	5.0 nm
Scan speed:	12000 nm/min
EX Slit:	5.0 nm
EM Slit:	5.0 nm
PMT Voltage:	700 V
Response:	Auto 
Corrected spectra:	Off
Contour interval:	50.000

Peak integration
Integration method:	Rectangular
Sensitivity:	1
Threshold:	1.000

Peaks
No.	ApexEX/EM(nm)	Height(Data)
1	225.0/320.0	*****   
2	225.0/570.0	317.7
3	225.0/605.0	275.7
4	260.0/575.0	153.4
5	265.0/585.0	150.9
6	275.0/615.0	231.7
7	280.0/335.0	7488
8	280.0/630.0	249.2
9	390.0/610.0	11.86
10	455.0/340.0	57.62
11	565.0/335.0	39.64

Wavelength data
No.	EX/EM(nm)	Height(Data)	

Data points
	220.0	225.0	230.0	235.0	240.0	245.0	250.0	255.0	260.0	265.0	270.0	275.0	280.0	285.0	290.0	295.0	300.0	305.0	310.0	315.0	320.0	325.0	330.0	335.0	340.0	345.0	350.0	355.0	360.0	365.0	370.0	375.0	380.0	385.0	390.0	395.0	400.0	405.0	410.0	415.0	420.0	425.0	430.0	435.0	440.0	445.0	450.0	455.0	460.0	465.0	470.0	475.0	480.0	485.0	490.0	495.0	500.0	505.0	510.0	515.0	520.0	525.0	530.0	535.0	540.0	545.0	550.0	555.0	560.0	565.0	570.0	575.0	580.0	585.0	590.0	595.0	600.0
230.0	224.9	5912	9999.9	3299	102.6	22.40	17.49	15.34	13.17	12.46	12.00	11.45	10.72	10.21	8.518	7.282	6.677	6.274	5.659	5.269	4.871	4.486	4.313	3.891	3.771	3.645	3.431	3.180	3.270	3.021	3.110	3.021	3.216	3.002	2.772	2.622	2.560	2.295	2.248	2.169	2.149	2.217	2.209	1.964	1.961	2.053	8.372	32.41	52.01	36.54	11.39	2.921	1.433	1.341	1.279	1.269	1.283	1.159	1.154	1.065	1.058	1.004	0.964	0.936	0.909	0.880	0.890	0.793	0.817	0.770	0.777	0.733	0.705	0.641	0.682	0.663	0.642
235.0	190.6	1598	8180	9999.9	3392	183.3	24.62	19.02	16.09	13.64	13.60	12.29	11.06	11.30	8.851	7.942	6.743	6.574	5.982	5.396	5.299	4.621	4.566	4.306	3.972	3.991	3.543	3.095	3.443	3.213	3.395	3.298	3.025	3.235	2.857	2.846	2.624	2.428	2.410	2.223	1.993	2.150	2.186	2.241	2.199	2.006	3.314	9.351	21.24	38.87	57.05	26.78	19.00	5.545	1.452	1.344	1.324	1.332	1.242	1.144	1.078	1.054	1.085	0.939	0.947	0.959	0.840	0.961	0.783	0.718	0.804	0.762	0.726	0.659	0.768	0.652	0.715
240.0	225.9	475.4	2583	9999.9	9999.9	2698	111.7	25.09	20.08	17.14	16.77	13.52	12.79	11.58	9.274	8.335	7.407	6.718	6.231	5.817	5.148	4.452	4.356	4.485	4.082	4.095	3.593	3.543	3.373	3.424	3.291	3.071	3.259	3.261	2.922	2.868	2.745	2.587	2.471	2.176	2.106	2.137	2.129	2.106	2.301	2.240	2.167	3.354	6.128	12.18	32.34	72.27	93.89	27.52	16.03	3.443	1.475	1.432	1.272	1.118	1.142	1.114	1.054	1.049	0.973	0.944	0.871	0.970	0.773	0.789	0.812	0.715	0.771	0.669	0.722	0.602	0.697
245.0	181.5	281.5	665.7	4033	9999.9	9999.9	1934	53.29	24.84	21.50	20.21	16.08	15.08	13.07	10.33	9.272	7.899	6.851	6.737	6.187	5.293	4.824	4.568	4.148	4.131	4.184	3.946	3.448	3.461	3.384	3.315	3.271	3.094	3.175	2.879	2.733	2.800	2.683	2.499	2.200	2.166	2.087	2.177	2.077	2.131	2.260	2.344	2.329	2.760	3.968	8.732	25.37	66.90	105.2	111.4	26.00	12.88	2.213	1.509	1.222	1.193	1.083	1.055	1.076	0.931	0.902	0.928	0.943	0.831	0.873	0.793	0.693	0.766	0.741	0.726	0.729	0.710
250.0	112.4	197.2	339.5	1017	4217	9999.9	9999.9	6722	129.0	31.98	25.54	21.93	17.47	15.07	11.76	10.72	8.975	7.751	7.350	6.371	5.882	5.500	4.849	4.480	4.621	4.442	4.067	4.091	3.791	3.801	3.555	3.249	3.322	3.199	3.007	2.886	2.793	2.745	2.678	2.425	2.329	2.239	2.198	2.095	2.191	2.122	2.133	2.248	2.484	2.562	3.343	6.986	16.93	34.38	67.43	94.42	130.7	101.2	62.59	10.51	2.438	1.334	1.228	1.120	1.104	1.019	1.021	0.964	0.916	0.917	0.891	0.775	0.771	0.808	0.775	0.730	0.857
255.0	104.6	115.4	214.3	453.7	1045	2786	9999.9	9999.9	9979	164.9	39.69	27.99	22.97	18.93	14.49	11.76	10.26	9.459	8.177	7.058	6.148	5.486	5.310	5.151	4.815	4.761	4.267	4.158	4.061	4.225	3.857	3.296	3.446	3.352	2.947	2.999	2.830	2.662	2.810	2.622	2.175	2.281	2.199	2.141	2.231	2.234	2.017	1.981	2.123	2.260	2.785	3.565	5.310	8.797	16.34	23.29	47.55	107.1	200.6	197.3	29.28	14.25	1.911	1.327	1.214	1.263	1.211	1.021	1.013	0.947	0.985	0.755	0.873	0.818	0.914	0.759	0.791
260.0	109.1	91.72	115.4	299.5	452.2	714.9	3646	9999.9	9999.9	1797	123.8	39.42	31.35	23.70	17.70	14.26	11.56	10.55	8.578	7.177	6.413	6.233	5.510	5.400	5.345	4.842	4.783	4.263	4.220	4.334	3.935	3.790	3.543	3.556	3.379	2.962	2.895	2.679	2.803	2.723	2.538	2.417	2.331	2.267	2.265	2.275	2.217	2.089	1.902	1.916	2.153	3.027	3.581	3.741	5.045	6.552	12.09	29.11	84.59	182.2	234.6	189.1	25.34	9.332	1.636	1.319	1.287	1.184	1.078	0.966	0.897	0.863	0.958	0.831	0.931	0.859	0.781
265.0	122.8	100.3	90.44	167.0	360.3	345.8	908.3	5432	9999.9	9999.9	1482	83.20	41.08	30.01	21.01	17.03	13.46	11.53	9.349	8.248	7.341	6.456	5.958	5.721	5.371	5.015	5.211	4.753	4.430	4.605	4.607	4.046	3.883	3.531	3.336	3.216	2.989	2.606	2.772	2.872	2.329	2.481	2.482	2.383	2.526	2.507	2.153	2.123	1.994	1.757	1.732	2.308	2.879	3.447	3.281	2.898	4.097	7.962	20.78	52.59	129.0	254.2	245.0	169.6	20.69	4.391	1.353	1.357	1.258	1.148	1.065	1.097	1.058	0.874	0.935	0.885	0.789
270.0	371.8	335.5	253.4	156.8	215.0	365.6	441.5	1362	5645	9999.9	9999.9	5998	109.2	49.39	31.95	23.27	18.39	14.03	11.88	9.819	8.564	7.848	7.030	6.415	5.697	5.688	5.339	4.958	4.869	4.768	4.805	4.563	4.036	4.080	3.774	3.505	3.478	3.160	2.993	3.005	2.831	2.917	3.098	2.903	3.025	3.007	2.877	2.662	2.608	2.148	1.827	2.076	2.138	2.633	3.105	3.291	3.489	3.836	6.339	13.25	31.16	70.93	126.8	219.4	233.6	211.2	118.1	14.46	5.051	1.453	1.319	1.242	1.204	1.117	1.036	1.059	1.045
275.0	970.6	973.3	671.3	304.3	160.9	236.2	505.8	579.2	1434	2967	9999.9	9999.9	8802	127.2	51.10	34.61	24.96	19.24	15.31	12.54	10.57	9.229	7.844	7.137	6.663	6.349	5.799	5.414	5.404	5.132	5.143	4.925	4.476	4.605	4.527	4.248	4.199	4.023	3.828	3.660	3.805	3.765	3.811	4.008	4.388	4.490	4.361	4.422	3.921	3.296	2.380	2.230	2.000	2.181	2.175	2.591	3.432	4.502	4.615	5.119	8.871	17.57	30.22	51.52	67.63	153.9	337.9	429.9	200.1	22.37	4.055	1.818	1.416	1.359	1.325	1.087	1.172
280.0	1565	1555	1079	450.8	179.9	190.7	388.2	635.5	567.7	897.1	3836	9999.9	9999.9	6562	103.0	49.09	32.71	25.16	19.32	14.66	12.17	10.52	9.104	8.162	7.680	7.056	6.287	5.876	5.820	5.468	5.553	5.276	4.925	4.977	4.917	5.150	4.843	4.576	3.890	4.037	4.254	4.429	4.658	5.227	5.659	5.911	5.789	5.966	5.553	4.147	2.883	2.680	2.235	2.334	2.158	2.292	2.639	3.721	4.912	5.143	4.905	6.286	8.744	13.61	17.34	38.50	109.0	273.2	451.0	258.6	32.56	16.89	2.539	1.705	1.547	1.469	1.421
285.0	1965	2109	1540	634.8	231.8	208.7	302.7	595.3	693.0	532.7	1176	5458	9999.9	9999.9	902.5	83.94	45.27	32.14	23.05	18.24	14.77	11.79	10.53	9.585	8.465	8.011	7.052	6.679	6.127	6.028	5.832	5.642	5.150	5.081	5.525	5.781	5.452	5.127	4.686	4.653	4.771	5.099	5.326	6.059	6.436	7.254	7.076	7.700	6.870	5.234	3.680	3.209	2.422	2.467	2.162	2.518	2.601	2.983	4.043	4.945	5.579	5.082	4.736	5.772	6.584	11.14	26.96	68.59	166.8	326.9	485.1	247.8	28.98	11.11	2.118	2.043	1.606
290.0	2465	2622	2015	877.7	357.1	299.4	369.6	515.1	804.5	908.5	906.3	1841	5940	9999.9	9999.9	9999.9	287.4	51.41	33.97	24.71	18.56	15.06	12.84	11.41	10.09	9.253	8.071	7.540	6.866	6.614	6.375	5.967	5.345	5.692	6.126	6.354	6.436	5.788	5.614	5.682	5.516	5.988	6.303	6.733	7.904	8.733	8.797	9.206	8.261	6.563	4.800	3.969	3.194	3.080	2.800	2.898	3.141	3.406	3.948	4.161	5.044	5.957	6.594	6.254	5.925	6.457	10.08	19.23	41.38	83.42	171.8	270.0	379.2	364.1	274.2	19.70	10.11
295.0	2817	3047	2464	1200	559.7	467.8	529.7	663.6	845.5	1252	1551	1549	2371	3377	9999.9	9999.9	9999.9	90.03	55.83	36.87	25.59	19.96	16.55	13.35	12.01	11.02	9.380	8.728	7.924	7.453	7.199	6.561	5.993	5.556	6.428	6.829	7.223	7.026	6.769	6.666	6.194	6.688	7.357	7.753	8.915	9.746	10.18	10.82	9.799	7.743	5.896	5.093	4.163	3.914	3.681	3.670	4.055	4.207	4.478	4.698	5.207	5.672	6.651	8.224	9.847	9.159	8.765	10.85	16.19	24.83	44.13	65.70	94.27	153.6	378.5	587.0	271.8
300.0	3205	3481	2883	1545	823.0	679.2	767.9	907.6	1118	1530	2225	2255	2188	2072	3957	9999.9	9999.9	4602	83.46	50.51	34.81	25.51	20.50	16.02	14.17	12.23	10.23	9.367	9.012	8.331	7.805	7.515	6.788	6.370	6.916	7.216	7.973	7.475	7.650	7.661	7.015	7.516	8.154	8.483	9.361	10.72	11.32	12.11	10.98	9.064	7.308	6.289	5.239	4.650	4.654	4.692	5.206	5.458	5.662	5.958	6.609	7.221	8.088	8.844	11.03	13.09	12.93	12.48	13.45	14.78	18.29	22.57	27.96	40.97	104.3	269.9	508.2
305.0	3642	3950	3332	1942	1108	949.8	1070	1261	1568	2036	2753	3335	2998	2426	2199	5289	9999.9	9999.9	3482	72.82	46.41	32.36	24.92	19.14	16.34	13.26	11.96	10.43	9.680	8.708	8.647	7.588	7.221	7.221	6.958	7.442	8.167	8.170	8.583	8.604	8.103	8.505	9.049	9.810	10.46	11.98	12.74	13.96	12.52	10.33	8.515	7.870	6.614	5.914	5.429	5.722	6.392	7.009	7.602	8.038	9.115	9.638	10.46	11.82	13.58	15.33	17.13	18.48	17.00	16.82	16.29	16.61	15.84	18.06	30.54	67.72	155.7
310.0	4131	4651	3919	2359	1442	1245	1432	1678	2036	2633	3417	4097	4217	3351	2391	2284	5631	9999.9	9999.9	9999.9	219.4	49.22	34.81	25.76	19.85	16.29	14.10	12.20	11.31	9.867	9.685	8.833	7.606	7.659	7.485	7.809	8.690	8.887	8.917	9.232	8.988	9.450	9.972	10.90	12.13	13.41	14.56	15.77	14.67	12.05	9.948	9.179	7.874	7.161	6.906	7.398	8.183	8.586	9.188	10.21	10.78	11.99	13.49	14.94	16.99	18.32	19.92	21.88	22.78	22.60	21.65	19.16	17.28	15.87	16.41	22.70	40.69
315.0	5393	6387	5136	2951	1833	1591	1800	2090	2551	3303	4249	4936	5167	4577	3113	1984	2125	2960	9999.9	9999.9	9999.9	256.9	52.58	36.25	25.84	20.55	16.61	14.18	12.93	11.63	10.34	9.668	8.140	8.087	7.671	8.583	9.120	9.639	9.726	10.20	10.08	10.88	12.01	13.19	15.17	17.13	19.19	20.68	18.95	14.82	11.74	11.26	9.724	8.824	8.576	8.911	10.08	10.47	11.22	12.10	13.31	14.79	16.52	18.40	20.87	22.63	23.79	26.19	26.27	27.56	27.37	25.72	22.78	18.97	15.90	14.84	17.23
320.0	8651	9999.9	7866	3932	2194	1908	2196	2616	3206	4146	5275	6004	6102	5478	3991	2280	1531	1238	3329	9999.9	9999.9	3639	152.0	48.23	33.30	25.79	19.41	16.97	14.19	13.07	11.19	10.35	9.178	8.547	8.807	9.143	9.664	10.64	11.04	11.79	12.27	13.27	15.33	18.17	21.96	27.29	29.59	31.29	28.09	21.36	15.04	13.42	11.53	10.23	10.14	10.39	11.86	12.72	13.58	14.77	16.45	17.45	20.40	23.26	25.15	27.80	29.22	30.90	31.97	32.22	31.69	30.28	28.53	23.77	18.97	14.70	13.36
325.0	9999.9	9999.9	9999.9	5348	2631	2181	2512	3065	3781	4864	6124	6913	6959	6116	4700	2763	1574	957.2	1126	4730	9999.9	9999.9	2813	64.03	43.09	32.86	23.42	18.87	16.28	14.54	12.26	11.48	10.17	9.334	9.245	9.379	10.28	11.50	12.26	13.15	13.77	15.38	18.56	22.25	27.90	35.15	40.27	46.44	39.82	28.75	19.70	16.31	13.40	11.48	11.18	11.59	12.97	14.00	15.68	17.31	19.19	20.42	23.53	26.27	28.86	31.82	33.18	34.66	36.54	36.47	35.31	32.95	31.53	28.20	22.91	17.56	14.03
330.0	9999.9	9999.9	9999.9	6390	3155	2426	2664	3242	3990	5094	6394	7211	7274	6376	4869	3154	1839	1015	720.9	1397	5343	9999.9	9999.9	9999.9	183.7	46.98	32.62	24.32	20.19	17.07	15.30	12.82	11.48	10.54	9.877	9.884	10.86	11.96	12.56	13.55	14.35	16.71	19.45	23.63	30.36	38.09	44.16	51.27	45.76	34.22	23.46	19.80	15.50	13.36	12.34	12.18	13.60	15.26	16.26	17.84	19.67	21.61	24.45	27.42	29.86	32.86	35.21	36.22	37.82	38.05	37.07	34.47	32.04	29.33	24.04	20.21	16.32
335.0	9999.9	9999.9	9999.9	7247	3791	2763	2842	3415	4198	5289	6601	7412	7488	6614	5043	3265	2157	1270	775.4	751.8	1569	2788	9999.9	9999.9	9999.9	217.1	48.90	33.94	26.35	21.22	18.16	15.02	12.97	11.85	10.64	10.97	10.91	12.45	13.06	14.51	15.32	18.12	20.94	25.96	33.10	42.21	48.29	57.58	50.62	37.71	26.30	22.63	18.35	15.44	13.79	13.41	14.69	15.85	17.15	18.78	20.76	22.87	25.68	28.84	30.83	33.85	35.94	37.89	38.61	39.64	38.54	36.04	33.47	30.14	24.54	20.49	18.03
340.0	9999.9	9999.9	9999.9	7601	3948	2852	2820	3371	4121	5183	6445	7224	7261	6454	4980	3236	2137	1459	870.5	650.9	759.9	915.8	3418	9999.9	9999.9	3101	130.6	45.37	33.23	25.79	21.13	17.08	14.12	12.76	11.51	11.45	11.48	12.48	13.29	14.69	15.13	18.39	21.27	25.77	33.20	42.09	49.08	57.62	51.42	38.74	27.35	23.71	19.13	16.42	13.85	13.61	15.13	15.68	17.09	18.54	20.76	22.56	25.78	28.02	29.71	33.75	34.67	35.76	38.10	38.27	37.02	35.31	32.58	29.55	25.19	20.96	17.34
345.0	9999.9	9999.9	9999.9	7156	3792	2723	2674	3124	3789	4754	5887	6600	6663	5947	4646	3062	1989	1453	993.9	663.6	595.1	522.2	996.8	5232	9999.9	9999.9	2458	58.24	41.68	31.17	24.72	19.42	15.94	13.85	12.24	11.39	11.79	12.32	12.98	13.79	14.31	16.70	19.54	23.54	29.57	38.06	43.68	51.46	47.71	35.71	26.24	22.57	18.46	15.79	13.36	13.14	14.20	14.88	16.11	17.12	19.58	20.83	23.90	26.26	28.24	30.32	31.70	33.06	34.47	35.22	34.36	33.45	30.42	27.54	23.24	19.98	16.36
350.0	9606	9999.9	9999.9	6388	3601	2600	2476	2835	3377	4181	5132	5747	5818	5256	4155	2818	1869	1352	1080	818.8	627.2	488.6	498.6	1383	6153	9999.9	9999.9	9999.9	163.5	44.12	32.37	23.91	18.34	15.90	13.54	11.88	12.00	12.32	12.44	13.06	13.35	15.22	17.42	20.63	25.66	32.72	37.21	43.10	40.31	31.24	23.55	21.39	17.48	14.89	13.26	12.52	13.27	13.66	14.81	15.56	17.01	18.81	20.90	22.88	25.12	26.57	28.05	29.26	30.41	30.76	30.08	29.10	27.47	25.04	21.20	18.03	15.50
355.0	8243	9999.9	9319	5581	3380	2484	2300	2577	3018	3658	4454	4945	5009	4565	3669	2576	1791	1328	1066	952.9	771.3	557.2	457.1	567.1	1555	2774	9999.9	9999.9	9999.9	186.4	46.87	32.43	23.48	19.55	15.00	12.76	12.74	13.08	12.80	12.80	12.58	14.48	15.87	18.24	22.59	27.67	31.52	36.87	34.40	27.34	21.03	19.25	16.55	14.23	12.73	11.94	12.29	12.91	13.57	14.72	15.71	16.68	18.45	20.06	21.76	23.31	24.18	25.22	26.75	27.07	26.33	25.54	24.28	23.03	19.13	16.85	14.51
360.0	6977	8980	8067	5006	3155	2361	2163	2363	2731	3285	3919	4331	4419	4029	3306	2386	1725	1322	1072	957.6	899.9	658.9	499.5	426.9	567.3	789.0	3731	9999.9	9999.9	2879	112.7	42.51	29.59	22.97	17.71	14.38	13.57	13.15	12.87	12.38	12.30	13.07	14.81	17.06	19.97	24.22	26.92	31.44	29.54	23.70	18.80	18.21	15.56	13.95	12.36	11.51	12.06	12.29	12.86	13.57	14.41	15.31	17.20	18.58	19.11	20.40	21.59	22.10	23.57	23.73	23.41	23.04	21.80	20.29	17.55	15.60	13.73
365.0	6001	7588	6944	4477	2926	2229	2076	2205	2498	2944	3482	3830	3901	3595	2999	2223	1671	1328	1101	972.5	941.4	799.5	575.1	451.6	390.9	375.0	997.7	6243	9999.9	9999.9	2270	53.67	38.81	28.76	21.18	16.50	14.92	13.42	13.14	12.74	12.26	12.56	14.05	15.29	17.54	21.28	23.12	27.13	25.01	21.02	16.87	16.78	15.00	13.23	11.93	10.89	11.46	11.69	12.47	12.66	13.29	13.87	15.53	16.74	17.57	18.19	19.04	19.85	20.71	21.22	21.05	20.53	19.43	18.49	16.36	14.74	13.47
370.0	4935	6211	5722	3909	2737	2161	1990	2083	2269	2620	3052	3327	3376	3142	2666	2071	1634	1358	1181	1053	979.0	911.9	757.4	558.0	431.2	343.5	417.8	1561	7438	9999.9	9999.9	9749	141.5	40.50	28.91	21.16	17.87	15.39	14.11	12.96	12.33	12.44	13.28	13.78	15.51	18.30	19.85	22.59	21.11	18.00	15.16	15.36	14.05	12.32	11.59	10.63	11.31	11.57	11.71	11.72	12.35	13.22	13.86	15.05	15.60	16.46	16.71	17.56	17.96	18.53	18.23	18.30	17.08	16.85	14.88	13.78	13.01
375.0	4207	5056	4756	3467	2595	2121	1963	1970	2109	2364	2694	2891	2945	2759	2397	1934	1617	1405	1266	1154	1066	971.2	896.1	736.3	536.9	409.6	340.0	528.6	1796	3037	9999.9	9999.9	9999.9	162.6	41.31	29.10	22.64	18.43	16.04	13.94	13.18	13.09	12.97	13.38	14.27	16.32	16.86	18.96	17.91	15.73	13.85	14.50	13.29	12.42	11.56	10.87	11.31	10.97	11.14	11.35	11.97	12.11	12.59	13.56	14.35	14.87	15.07	15.28	15.61	16.05	16.13	15.97	15.60	14.79	14.38	13.05	12.38
380.0	3569	4402	4108	3175	2527	2095	1921	1911	2003	2203	2451	2608	2653	2508	2224	1852	1593	1438	1316	1220	1133	1026	940.5	859.7	647.1	476.6	368.1	329.9	561.0	812.7	4459	9999.9	9999.9	2442	89.39	36.44	28.95	21.62	17.72	15.38	13.85	13.33	13.56	12.96	13.56	15.26	15.74	17.16	16.65	14.27	12.57	14.12	12.92	12.00	11.68	10.81	11.14	11.01	11.02	11.41	11.86	12.00	12.07	12.55	13.39	13.93	14.13	13.96	14.60	14.58	15.09	14.58	14.25	13.88	13.53	12.67	11.77
385.0	3273	3855	3739	2999	2481	2098	1905	1903	1938	2097	2280	2404	2448	2327	2095	1796	1588	1464	1364	1273	1191	1090	980.8	906.4	769.9	559.2	415.1	323.6	311.8	323.0	1130	7856	9999.9	9999.9	319.5	55.15	35.29	26.73	20.73	16.46	15.19	13.72	13.46	12.92	13.40	14.03	14.95	15.94	15.27	13.29	12.33	13.68	12.95	12.03	11.77	11.08	11.28	10.94	11.00	11.52	11.52	11.48	11.54	12.18	12.45	12.92	13.16	13.08	13.70	13.94	14.13	13.59	13.73	13.07	12.63	12.21	11.80
390.0	2957	3396	3357	2838	2426	2122	1947	1880	1881	1964	2109	2206	2238	2134	1963	1733	1583	1491	1410	1336	1254	1157	1046	939.1	842.3	687.6	500.9	376.9	300.0	247.2	386.8	1889	7714	9999.9	9999.9	7940	121.1	35.27	26.99	21.23	17.18	15.39	14.43	13.38	13.44	14.13	14.06	15.17	14.32	12.54	12.11	13.29	12.74	12.04	11.62	11.16	11.32	11.16	10.99	11.12	11.10	10.91	11.33	11.59	11.92	12.09	12.08	12.34	12.38	12.58	13.04	12.67	12.79	12.49	12.34	11.84	11.73
395.0	2685	3048	3028	2694	2413	2138	1950	1867	1824	1867	1956	2030	2060	1966	1846	1676	1561	1503	1445	1367	1296	1206	1104	989.4	865.3	766.0	625.2	448.5	346.0	269.8	248.9	543.2	1818	3206	9999.9	9999.9	9999.9	137.6	37.51	28.15	21.57	17.80	15.78	14.54	13.84	13.80	13.41	14.15	14.11	12.30	11.75	13.09	12.62	12.45	11.76	11.32	11.61	11.47	11.19	10.84	10.96	10.91	10.92	11.17	11.54	11.12	11.52	11.72	11.77	11.71	12.14	11.91	12.17	11.97	11.79	11.52	11.96
400.0	2607	2883	2899	2635	2354	2138	1944	1857	1787	1814	1874	1927	1929	1859	1767	1628	1547	1501	1448	1382	1312	1230	1129	1016	890.9	779.7	688.1	524.1	389.0	303.3	240.1	260.3	510.8	815.2	4657	9999.9	9999.9	2087	79.20	34.51	24.74	21.02	17.47	15.58	14.49	14.50	13.51	13.94	13.82	12.35	11.74	13.19	12.45	12.57	11.83	11.44	11.66	11.56	11.43	10.66	10.96	10.86	11.01	10.76	10.90	10.91	10.77	11.09	10.80	11.40	11.17	11.65	11.71	11.05	11.40	11.63	11.54
405.0	2483	2745	2768	2522	2322	2127	1953	1846	1773	1765	1818	1848	1836	1774	1700	1579	1525	1485	1443	1382	1313	1237	1134	1033	911.4	788.3	701.3	596.0	440.7	338.4	261.1	212.9	232.9	277.4	1139	7462	9999.9	9999.9	286.4	50.71	29.88	24.10	20.06	16.72	15.24	14.66	13.76	13.60	13.18	11.89	11.62	13.04	12.61	12.53	11.76	11.12	11.80	11.78	11.57	11.08	11.05	10.50	10.56	10.36	10.67	10.63	10.68	10.61	10.58	10.99	10.94	11.06	11.55	10.86	11.29	11.47	11.42
410.0	2306	2528	2588	2462	2287	2093	1944	1815	1738	1711	1733	1731	1720	1674	1601	1517	1478	1440	1403	1348	1286	1216	1131	1033	920.8	806.9	702.7	621.0	521.7	394.7	300.6	230.8	191.2	168.8	341.1	1764	7183	9999.9	9999.9	7449	109.6	31.54	24.87	19.48	16.84	15.67	14.21	13.89	13.22	11.83	11.79	12.86	12.43	12.09	11.73	11.28	11.55	11.56	11.34	11.14	11.06	10.51	10.49	10.40	10.36	10.35	10.27	10.04	10.30	10.34	10.35	10.37	10.49	10.77	10.71	10.58	11.00
415.0	2147	2380	2410	2356	2186	2052	1893	1769	1686	1645	1655	1631	1597	1564	1491	1441	1400	1379	1348	1301	1238	1171	1099	1018	914.4	810.2	706.9	617.4	553.5	464.9	343.3	261.4	200.7	159.0	170.7	470.1	1669	3098	9999.9	9999.9	9999.9	127.9	32.58	23.55	20.26	17.30	14.43	14.65	13.36	12.18	11.94	12.62	12.11	11.96	11.84	11.23	11.64	11.50	11.14	10.88	10.75	10.63	10.26	9.958	9.764	9.454	9.486	9.570	9.895	9.581	10.11	9.608	9.585	10.41	10.27	9.809	10.33
420.0	2031	2230	2317	2247	2128	1982	1861	1743	1647	1606	1580	1539	1513	1480	1420	1367	1342	1315	1288	1238	1194	1127	1065	987.8	900.9	805.0	706.4	616.3	548.2	499.0	386.1	282.1	217.8	169.9	142.2	187.6	441.4	761.9	4279	9999.9	9999.9	1945	75.30	29.21	23.64	19.45	15.66	15.15	13.95	12.10	11.59	13.04	12.43	11.70	11.72	11.19	11.73	11.14	11.05	10.56	10.52	10.15	10.42	10.04	9.546	9.185	9.240	8.982	9.132	9.389	9.597	9.316	9.791	9.491	10.12	9.736	9.930
425.0	1910	2093	2196	2130	2065	1911	1793	1690	1602	1535	1518	1488	1442	1397	1343	1299	1277	1255	1232	1187	1137	1088	1024	958.5	882.0	795.3	700.9	616.3	543.4	493.7	423.1	310.2	234.6	182.6	144.1	130.3	169.0	232.3	1029	6513	9999.9	9999.9	1553	37.46	27.30	21.61	17.39	16.11	14.12	11.96	11.61	12.50	12.64	11.76	11.29	11.26	11.63	10.82	11.12	10.82	10.25	9.933	9.813	9.431	9.372	9.143	9.126	9.041	8.974	9.133	9.005	9.123	9.216	9.344	9.239	9.469	9.743
430.0	2178	1957	2062	2029	1958	1837	1738	1649	1562	1481	1453	1411	1359	1306	1256	1213	1193	1179	1154	1115	1068	1017	967.9	913.0	846.3	771.0	688.0	613.2	541.5	483.9	430.0	355.5	262.5	199.4	157.6	126.9	116.8	117.4	287.2	1528	5976	9999.9	9999.9	7211	110.0	29.29	21.47	18.39	15.11	12.63	12.12	13.00	12.53	11.76	11.22	11.07	11.46	11.05	11.00	10.47	9.923	9.747	9.828	9.445	9.167	9.059	8.624	8.733	8.581	8.545	8.558	8.642	8.712	8.867	8.725	8.973	8.968
435.0	4068	1892	1936	1915	1847	1762	1673	1586	1494	1419	1375	1333	1278	1217	1169	1122	1105	1094	1077	1032	987.7	950.6	908.3	861.6	806.5	742.0	673.9	604.1	541.5	482.3	419.1	365.0	300.8	225.0	173.7	138.3	113.2	98.83	124.9	394.4	1382	2744	9999.9	9999.9	9999.9	138.8	29.24	22.46	17.94	14.53	12.58	13.67	12.73	12.32	11.41	10.97	11.52	11.13	10.79	10.22	9.782	9.786	9.873	9.322	9.058	8.397	8.628	8.199	7.986	7.948	8.398	8.304	8.335	8.335	8.331	8.370	8.710
440.0	6157	2211	1804	1812	1779	1685	1611	1542	1442	1380	1323	1272	1214	1156	1104	1059	1036	1026	1012	968.0	932.2	900.2	867.2	817.6	769.6	714.0	653.8	594.9	540.6	478.1	416.3	358.6	317.7	249.8	185.5	148.0	119.5	101.4	93.75	144.3	359.1	667.8	3612	9999.9	9999.9	1894	89.93	28.24	20.93	16.12	13.65	14.38	12.78	12.24	11.42	10.94	11.81	11.02	10.60	10.45	10.02	9.745	9.000	8.725	8.546	8.309	8.391	8.137	7.897	8.019	8.064	7.887	7.946	7.786	7.874	7.927	8.119
445.0	7071	3643	1679	1722	1669	1613	1558	1489	1378	1317	1260	1210	1144	1108	1046	1002	979.4	967.4	940.0	912.5	878.9	844.9	813.4	777.3	736.5	681.7	624.2	578.0	528.6	471.7	414.9	351.7	310.0	266.7	200.7	157.2	127.7	106.5	92.29	93.01	133.7	200.6	868.2	5107	9999.9	9999.9	1529	56.20	24.64	18.19	15.19	14.86	13.12	12.47	12.01	10.95	11.59	10.90	10.77	10.07	9.806	9.631	9.011	8.724	8.658	7.878	8.007	7.889	7.469	7.330	7.471	7.721	7.529	7.541	7.325	7.602	7.920
450.0	4738	6844	2288	1569	1539	1508	1444	1382	1294	1239	1185	1135	1051	1009	959.7	911.4	885.7	876.5	846.6	828.7	797.6	768.7	740.7	711.5	676.4	631.6	589.3	545.8	503.3	458.1	402.5	345.2	295.4	262.9	223.3	172.6	137.0	115.9	99.53	88.82	89.20	98.22	243.4	1198	5120	9999.9	9999.9	6984	102.3	24.10	18.56	17.52	14.69	13.23	12.21	11.57	11.70	11.09	10.41	9.849	9.595	9.265	9.018	8.602	8.297	7.785	7.741	7.534	7.142	7.105	7.298	7.389	7.080	7.229	6.972	7.116	7.486
455.0	2173	7438	5292	1518	1417	1365	1318	1262	1202	1129	1092	1038	962.8	905.5	855.9	824.1	791.9	779.8	753.0	733.3	712.1	686.7	664.4	636.0	609.6	573.9	540.2	503.9	468.9	436.1	388.1	334.6	284.8	247.8	220.5	191.1	149.2	124.0	108.3	94.35	83.80	78.45	103.8	311.0	1184	2542	9999.9	9999.9	9999.9	131.2	24.68	20.52	17.21	14.53	12.84	11.68	11.77	10.85	10.27	9.629	9.314	9.010	8.756	8.392	7.980	7.554	7.364	7.140	6.658	6.833	6.940	6.540	6.669	6.817	6.383	6.665	6.806
460.0	1338	5014	8565	2147	1314	1277	1217	1184	1118	1062	1019	958.9	883.5	841.6	789.3	748.4	728.5	709.9	679.8	664.4	643.9	624.1	601.6	580.4	560.1	534.4	502.3	470.6	445.2	410.5	368.4	323.0	277.5	239.9	210.1	197.3	163.4	129.9	113.0	97.28	85.94	75.06	73.56	113.4	304.2	611.1	2812	9999.9	9999.9	8610	102.6	26.47	19.63	16.07	14.19	11.98	12.12	11.20	10.76	9.798	9.428	9.092	8.913	8.137	7.803	6.929	6.928	6.570	6.603	6.638	6.925	6.217	6.162	6.410	6.139	5.984	6.380
465.0	1099	2588	9927	4552	1247	1170	1146	1103	1042	994.0	947.3	892.7	820.8	768.8	722.9	682.5	656.4	645.6	621.6	605.5	585.1	566.9	553.3	531.6	517.0	489.6	464.1	438.9	417.5	386.4	350.7	311.9	268.8	230.8	201.5	186.6	169.7	138.0	114.8	101.0	88.55	75.39	68.23	70.01	106.1	173.5	669.7	3527	9999.9	9999.9	1410	86.11	24.23	18.55	15.70	13.59	13.01	11.42	10.73	9.839	9.045	8.832	8.848	8.046	7.817	7.238	6.832	6.831	6.363	6.400	6.323	6.016	6.179	5.797	6.097	5.882	6.168
470.0	969.4	1334	6243	9935	2365	1047	1026	985.5	940.0	902.6	854.1	803.1	741.1	685.1	640.6	603.1	582.4	563.4	545.3	527.1	510.1	497.0	485.7	469.3	456.1	433.5	414.4	394.4	376.6	352.5	321.3	287.5	250.2	217.6	191.6	169.8	157.6	145.2	121.3	102.8	88.85	76.51	66.13	58.49	60.95	72.50	180.8	824.3	3618	9999.9	9999.9	7349	119.6	25.02	18.55	15.03	13.82	11.91	10.67	9.672	9.018	8.528	8.188	7.842	7.672	6.953	6.327	6.476	5.962	6.032	5.959	5.603	5.830	5.511	5.661	5.634	5.332
475.0	842.3	932.6	2313	9999.9	7023	1075	907.8	880.7	838.7	818.0	761.3	723.1	655.6	607.6	563.5	521.5	508.2	488.5	472.7	455.1	439.4	428.2	419.5	409.8	395.2	380.0	363.8	348.8	333.7	316.2	293.2	260.4	231.0	203.2	179.6	159.0	143.6	135.9	125.4	103.3	87.92	76.13	64.90	54.37	48.41	47.07	67.87	209.3	832.1	2311	8135	9999.9	9999.9	179.7	24.35	16.86	14.72	12.33	10.80	9.067	8.534	7.909	7.619	7.205	7.052	6.496	6.032	6.195	5.256	5.228	5.441	5.161	5.252	5.000	5.079	4.648	4.789
480.0	785.5	844.5	1150	6408	9999.9	2030	828.3	804.6	778.1	749.7	709.1	658.3	599.5	554.7	511.9	473.6	456.9	439.6	423.3	406.9	390.5	387.6	377.8	370.0	358.5	347.5	333.1	318.5	309.3	293.0	273.1	244.0	217.4	193.1	173.0	153.2	137.7	126.4	122.3	106.1	88.30	74.76	63.41	53.71	45.43	40.73	40.96	70.67	208.5	539.9	1972	9999.9	9999.9	9999.9	145.9	20.99	16.42	13.62	11.86	9.838	8.917	7.961	7.195	7.368	6.821	6.654	5.894	5.584	5.672	4.796	5.079	4.736	4.961	4.640	4.968	4.450	4.496
485.0	719.2	797.0	829.0	2822	9999.9	3869	805.0	758.4	733.0	692.0	656.3	619.0	562.3	515.7	474.4	444.8	419.9	403.6	390.8	374.3	359.2	352.6	343.9	337.5	329.2	318.4	306.4	298.9	288.6	274.7	256.2	230.9	208.3	182.8	164.9	145.3	131.0	120.5	115.1	109.4	90.42	74.67	63.52	53.30	45.02	39.11	33.99	39.56	68.48	141.6	463.7	2627	9999.9	9999.9	1762	31.22	20.57	15.32	12.37	10.82	9.241	8.126	7.484	7.214	6.593	6.573	5.780	5.517	5.139	4.976	4.994	4.705	4.564	4.664	4.504	4.452	4.288
490.0	629.3	724.2	726.4	1202	6532	9999.9	1948	680.1	665.5	631.7	600.0	559.7	511.6	461.6	429.4	398.7	376.1	357.8	345.1	331.5	319.5	311.7	305.2	302.2	294.8	286.0	276.9	268.0	260.6	249.5	235.5	214.0	194.0	170.7	154.9	137.9	125.7	114.2	106.7	101.0	93.03	77.06	63.32	53.29	45.27	38.68	33.29	31.86	35.77	50.69	122.6	609.2	2726	9307	9999.9	7745	742.6	23.61	15.51	12.09	10.25	8.783	7.889	7.458	6.660	6.329	5.645	5.265	5.077	4.739	4.708	4.395	4.384	4.284	4.206	4.181	3.990
495.0	538.0	612.4	663.6	741.0	2189	9999.9	7333	745.3	597.7	576.1	538.8	507.7	452.5	414.4	378.7	350.4	332.9	311.0	300.3	290.0	279.8	274.4	269.1	265.9	258.0	253.5	243.1	238.8	232.4	225.5	210.5	193.2	175.7	157.9	144.1	129.3	117.7	107.6	100.1	92.91	87.59	79.03	64.06	52.51	45.48	38.61	32.94	30.12	27.23	29.26	45.35	154.5	626.9	2112	6193	9999.9	9999.9	224.9	24.11	14.56	11.54	9.634	8.574	7.609	6.957	6.190	5.461	5.250	4.970	4.663	4.577	4.353	4.107	3.808	3.992	3.938	3.885
500.0	489.0	559.7	613.6	611.9	929.4	6446	9999.9	1656	552.5	533.9	501.7	459.4	415.9	381.4	345.7	321.3	294.9	281.4	268.5	261.4	251.5	243.7	239.3	238.6	231.9	226.7	221.2	216.1	211.9	206.6	193.0	177.9	161.8	147.1	133.6	121.2	111.7	101.5	94.93	86.08	80.52	77.74	65.58	51.98	44.32	38.10	32.89	29.62	25.38	23.94	26.63	51.22	156.5	490.5	1461	8137	9999.9	9999.9	186.0	18.64	13.37	10.52	8.752	7.488	6.660	6.201	5.361	5.132	4.580	4.428	4.261	3.861	4.008	3.660	3.787	3.736	3.692
505.0	442.1	483.5	560.4	557.4	602.8	2695	9999.9	4815	530.1	482.3	459.1	425.6	382.7	344.6	314.1	292.8	267.3	254.1	241.3	235.0	227.0	218.4	216.7	213.6	209.4	204.5	202.9	198.2	194.1	188.6	176.9	163.4	150.6	135.7	122.7	112.7	104.7	95.29	88.74	81.02	74.86	71.36	66.08	52.70	43.46	37.22	32.13	28.48	24.71	22.79	22.04	27.96	51.11	126.4	347.3	1989	9999.9	9999.9	9999.9	32.80	16.51	11.74	9.278	7.954	6.643	5.950	5.437	5.122	4.612	4.550	4.220	3.834	3.559	3.483	3.678	3.587	3.528
510.0	384.7	417.1	469.9	511.5	494.2	984.0	6869	9999.9	1382	431.0	405.8	380.6	344.9	304.6	277.3	252.9	235.1	221.5	210.4	202.9	196.4	190.0	187.7	184.6	181.8	178.1	174.4	171.4	169.8	164.7	156.2	145.3	132.9	122.0	110.3	102.6	94.66	87.20	80.90	73.52	67.96	62.19	59.51	53.44	43.08	36.18	31.50	27.49	24.22	21.88	20.46	21.03	25.99	42.86	92.70	461.2	2478	8524	9999.9	8488	758.6	18.92	11.10	9.086	7.418	6.210	5.267	5.092	4.543	4.430	4.081	3.825	3.548	3.366	3.367	3.180	3.198
515.0	336.5	367.7	395.5	444.2	434.1	520.5	2132	9999.9	6582	488.3	361.5	334.3	298.6	266.7	239.9	217.2	202.7	189.9	180.8	172.0	166.6	162.3	160.3	159.2	156.4	151.9	149.5	146.8	146.7	142.5	137.2	128.4	116.1	107.1	98.61	91.75	84.62	77.76	72.47	66.16	61.48	55.09	51.16	48.38	44.07	35.67	29.90	26.93	22.87	20.64	19.42	19.15	19.26	22.86	33.84	116.0	567.7	1925	4498	9999.9	9999.9	229.7	18.62	10.86	8.131	6.673	5.727	5.346	4.464	4.208	3.788	3.720	3.481	3.082	3.024	2.962	2.980
520.0	305.3	323.0	346.2	392.4	408.1	390.2	761.8	7032	9999.9	1239	331.7	304.7	267.7	240.7	215.9	194.3	178.9	168.1	160.7	153.2	148.5	144.0	142.5	141.6	137.6	135.9	132.7	131.2	131.1	127.7	122.2	115.1	104.7	96.49	89.04	83.13	78.11	71.95	66.48	61.04	55.97	51.35	46.23	43.87	41.99	35.72	28.86	25.57	22.10	19.74	18.39	18.21	16.89	17.16	19.78	37.70	139.6	443.7	1048	6201	9999.9	9999.9	185.5	14.75	9.437	7.471	6.180	5.347	4.469	3.828	4.048	3.613	3.418	3.303	2.989	2.692	2.858
525.0	296.5	281.6	307.7	334.7	391.3	340.7	417.3	2844	9999.9	4373	322.1	279.0	246.6	219.6	196.8	176.6	162.5	151.9	143.0	137.9	132.3	130.1	126.0	126.5	123.6	121.9	119.3	117.9	117.1	116.4	111.2	104.3	96.87	88.99	81.66	75.27	70.81	65.65	61.24	56.68	51.66	47.22	43.11	38.87	38.79	35.53	29.50	24.01	20.97	19.02	17.68	16.78	15.98	15.38	15.59	19.66	42.91	111.2	249.3	1486	8615	9999.9	8567	31.66	12.32	8.361	6.610	5.571	4.808	4.156	3.731	3.655	3.104	3.093	2.963	2.774	2.741
530.0	251.9	255.7	269.0	284.9	342.0	321.4	309.9	894.3	7549	9999.9	1037	252.2	216.8	193.5	171.5	154.6	139.9	129.6	124.0	117.2	113.9	110.9	109.3	108.7	106.5	105.8	103.1	102.1	101.2	100.0	96.40	91.29	83.86	76.88	71.53	65.68	62.26	58.03	54.38	50.16	46.44	42.54	38.33	34.61	32.71	32.52	29.11	23.74	19.56	18.20	16.40	15.54	14.76	14.12	13.74	14.13	19.61	35.13	66.66	344.4	2062	7064	9999.9	8465	721.2	14.82	7.903	6.155	5.058	4.420	3.840	3.470	3.196	2.957	2.693	2.555	2.614
535.0	229.7	237.7	236.5	238.5	261.0	306.4	260.0	387.4	2243	9999.9	6469	279.0	190.8	167.9	148.4	132.3	119.7	112.9	103.8	100.8	97.52	93.97	92.70	91.80	91.08	88.47	88.27	85.97	86.42	85.48	82.04	76.73	71.35	65.70	60.72	57.24	52.87	50.90	48.15	43.02	39.93	37.51	33.67	30.56	28.51	27.17	26.87	24.34	19.70	16.39	15.65	14.17	13.45	12.71	12.66	12.00	13.15	16.83	24.01	86.43	469.7	1589	3548	9999.9	9999.9	224.5	13.40	7.441	5.564	4.550	4.002	3.620	3.212	2.821	2.859	2.561	2.594
540.0	216.6	236.3	220.1	211.8	221.2	275.5	241.2	255.1	690.5	7303	9999.9	820.0	173.8	150.0	133.4	119.0	104.5	99.24	93.79	86.66	86.52	81.67	81.82	80.86	79.54	78.11	77.35	76.24	75.90	75.71	71.83	68.67	62.71	58.10	54.68	50.92	47.95	45.24	41.99	38.87	36.40	33.67	30.49	27.98	25.72	23.88	23.08	23.18	18.73	15.65	14.53	13.34	12.58	11.92	11.49	11.16	11.04	11.74	13.50	27.58	113.1	364.1	816.9	4720	9999.9	9829	34.31	10.18	6.278	4.806	4.066	3.865	3.308	2.901	2.759	2.429	2.377
545.0	235.1	239.8	224.3	195.0	192.5	239.0	240.6	208.9	313.9	2779	9999.9	3382	167.1	137.3	118.0	105.6	94.86	86.42	82.58	76.97	74.14	72.68	72.07	69.94	68.35	67.95	68.33	67.55	66.65	66.78	64.69	60.94	55.94	52.56	48.62	44.74	42.32	39.13	37.46	34.86	32.71	30.39	27.71	25.18	23.42	21.66	20.71	20.86	19.31	15.22	13.23	12.69	11.93	11.02	10.76	10.69	10.15	9.838	10.18	13.57	32.89	89.27	192.1	1111	6398	9999.9	2001	29.03	8.194	5.392	4.486	3.830	3.106	2.836	2.685	2.424	2.399
550.0	254.1	264.1	229.5	178.5	163.9	181.7	221.3	186.3	200.7	795.2	7396	9999.9	667.6	118.6	103.5	88.62	79.67	73.86	68.90	64.87	62.59	61.16	60.01	58.47	57.12	56.30	56.26	56.46	55.31	54.79	53.39	49.99	46.50	43.47	41.00	38.53	36.62	33.81	31.59	29.50	27.43	25.36	23.84	21.82	20.24	18.69	17.65	17.06	17.36	15.02	13.12	11.54	10.41	9.925	9.626	9.384	9.357	8.904	8.832	8.833	13.60	26.54	49.65	255.9	1510	5458	9999.9	6667	138.6	10.76	5.560	4.247	3.409	2.929	2.634	2.287	2.234
555.0	290.7	267.4	227.7	162.1	133.7	145.8	180.1	185.0	155.8	293.4	2050	9999.9	5083	131.9	87.85	76.05	66.06	60.63	57.47	53.32	50.46	49.67	48.35	47.50	47.24	46.61	45.80	45.18	45.43	44.74	43.07	41.13	38.54	36.35	34.28	31.69	29.99	28.32	26.21	24.36	22.98	21.51	19.39	18.06	17.18	16.12	14.87	14.00	13.80	13.31	12.31	10.30	9.170	8.773	8.530	7.987	7.984	8.056	7.897	7.240	8.005	10.97	16.57	62.83	343.0	1225	3049	9999.9	8485	213.1	8.689	4.935	3.910	3.101	2.522	2.170	2.110
560.0	287.4	297.8	228.2	145.9	117.4	125.6	150.6	184.5	139.6	167.2	572.6	6987	9999.9	474.8	78.59	64.53	58.09	51.19	48.86	45.74	43.88	43.25	40.20	40.46	39.66	39.76	39.41	37.96	39.40	37.45	37.19	34.44	32.60	31.14	28.78	26.86	25.60	23.67	23.31	21.32	19.90	18.94	16.66	16.25	15.25	13.70	12.83	12.27	11.49	11.82	11.43	10.10	8.275	7.901	7.423	7.244	6.969	6.768	7.179	6.589	6.352	6.802	8.759	19.01	81.85	279.1	695.3	3729	9999.9	5724	32.85	6.407	4.310	3.234	2.752	2.188	2.118
565.0	290.4	311.7	248.7	147.3	106.6	105.9	123.5	170.7	136.5	131.7	222.2	2540	9999.9	2443	78.41	58.34	51.28	46.05	41.93	39.42	37.26	37.60	34.91	34.46	34.50	33.52	34.29	33.38	33.10	32.45	31.62	29.92	27.98	26.03	24.97	23.31	21.84	21.67	20.29	18.71	17.48	16.19	14.91	14.27	13.44	12.41	11.57	10.75	10.03	9.837	10.24	9.704	7.761	7.282	6.912	6.910	6.549	5.927	6.302	6.249	5.624	5.666	6.261	8.495	22.84	67.52	161.3	863.4	4532	9999.9	1936	26.04	5.629	3.604	2.840	2.427	2.161
570.0	297.7	317.7	253.0	140.2	93.43	89.52	98.14	135.5	149.3	116.4	134.4	693.9	7391	9550	395.4	53.56	43.59	39.54	34.61	32.50	31.30	29.87	29.37	28.67	28.37	27.44	27.40	26.89	26.77	26.54	25.65	24.47	23.35	21.33	20.60	19.24	18.38	17.56	16.21	15.54	14.59	13.72	12.43	12.00	11.70	11.10	10.14	9.621	8.743	8.080	7.852	8.173	7.433	6.725	6.040	5.861	5.851	5.436	5.381	5.506	5.241	5.185	4.947	5.382	8.806	19.05	40.30	197.3	1057	4094	6891	4038	130.1	6.746	3.224	2.525	2.119
575.0	299.4	308.3	250.1	136.5	83.62	80.10	83.03	105.1	153.4	120.8	110.8	236.1	2051	9999.9	3646	59.57	38.88	33.54	28.73	27.00	25.69	24.94	24.69	23.56	22.97	22.22	22.93	22.01	22.32	21.49	21.15	20.11	19.26	17.74	16.81	15.64	15.35	14.18	13.30	13.20	12.10	11.14	10.40	9.789	9.736	9.323	8.617	7.981	7.300	6.973	6.546	6.784	6.929	6.202	5.471	5.055	4.957	4.725	4.538	4.687	4.605	4.814	4.380	4.409	5.022	7.384	12.40	47.35	239.2	916.6	2033	6303	4868	34.88	4.969	3.092	2.435
580.0	304.6	299.8	247.1	136.7	81.09	74.26	79.24	89.29	139.7	136.1	106.9	134.4	556.5	6862	7790	109.8	36.29	29.80	26.00	24.07	22.68	21.66	21.36	20.46	19.56	19.23	19.28	19.11	19.38	18.33	18.29	17.09	16.45	15.50	14.27	13.16	13.37	12.43	11.99	11.24	10.93	10.08	9.152	8.974	8.731	8.624	7.786	7.367	6.682	6.161	5.694	5.736	6.079	5.722	5.077	4.654	4.628	4.461	4.320	4.312	4.014	4.304	4.156	3.970	3.744	4.598	5.860	13.53	56.73	208.0	462.2	2300	6799	2019	29.97	3.819	2.712
585.0	292.9	300.9	235.4	132.5	77.58	68.62	77.13	85.77	117.0	150.9	114.5	119.6	207.4	2503	9999.9	772.6	35.62	28.64	24.46	21.70	20.35	19.10	17.96	18.11	17.58	16.69	16.31	16.55	16.28	15.74	16.16	15.14	14.27	13.73	12.45	11.59	11.42	10.81	10.69	10.21	9.463	8.730	8.445	8.060	7.823	7.382	7.171	6.665	5.998	5.792	5.342	5.208	5.146	5.354	5.030	4.509	4.258	4.387	3.861	3.845	3.776	3.692	3.900	3.998	3.694	3.551	4.077	5.798	15.46	49.35	106.9	531.7	2944	5873	1652	21.90	3.446
590.0	280.3	288.3	228.6	127.8	74.82	67.79	73.76	82.84	99.32	147.8	135.4	122.5	136.3	677.4	6639	6742	233.7	26.06	22.07	19.35	17.64	15.91	16.11	15.47	15.01	14.51	13.86	13.98	13.89	13.69	13.63	12.75	11.85	11.51	10.96	9.954	9.898	9.142	8.969	8.484	8.303	7.511	7.364	7.193	6.705	6.656	6.022	6.041	5.406	4.961	4.739	4.638	4.222	4.585	4.764	4.408	3.972	3.779	3.572	3.501	3.392	3.421	3.466	3.770	3.760	3.341	3.225	3.721	6.038	13.69	26.61	121.6	683.8	2371	4013	2019	123.5
595.0	283.4	278.0	213.9	132.7	74.50	64.94	69.44	81.58	96.15	131.9	160.1	132.1	130.9	232.9	1819	9252	2247	31.34	21.34	17.96	15.42	14.13	13.75	13.18	12.90	12.48	11.87	11.77	11.56	11.48	11.38	10.91	10.39	9.948	9.755	8.596	8.440	7.971	7.699	7.177	6.924	6.417	6.184	6.181	5.644	5.943	5.242	5.202	4.500	4.490	4.045	3.758	3.712	3.771	4.165	4.259	4.075	3.722	3.387	3.346	3.135	3.123	2.925	3.072	3.455	3.363	3.064	3.020	3.405	5.262	8.316	29.62	154.7	531.3	1157	3434	2158
600.0	261.8	259.5	210.4	127.0	74.74	62.62	72.54	83.91	92.51	122.8	172.8	154.9	139.7	143.8	484.1	5837	5645	77.15	20.23	16.41	14.34	13.16	12.03	11.66	11.23	11.12	10.75	10.55	10.79	10.45	10.53	9.795	10.00	9.684	9.596	8.614	7.998	7.430	6.992	6.938	6.509	5.817	5.575	5.499	5.148	5.313	4.819	4.665	4.320	4.131	3.789	3.590	3.339	3.409	3.721	3.908	3.987	3.619	2.999	3.070	2.924	2.780	2.547	2.952	3.142	3.268	2.953	2.649	2.712	3.259	3.954	8.826	36.50	120.8	262.7	1234	3722
605.0	241.7	275.7	210.4	137.9	79.02	70.17	77.64	86.23	96.47	127.8	176.0	184.5	158.5	133.3	180.1	2134	8552	560.1	20.73	16.04	12.89	12.24	11.34	11.09	10.07	10.17	9.543	9.508	9.873	10.36	10.10	10.43	10.09	10.32	10.16	9.387	8.408	7.312	6.456	6.072	5.764	5.431	4.986	4.856	4.782	4.798	4.473	4.485	4.163	3.709	3.536	3.271	3.113	3.080	3.249	3.484	3.797	3.572	3.112	2.986	2.856	2.731	2.608	2.875	2.911	3.044	3.100	2.862	2.670	2.728	2.853	4.083	10.23	28.76	61.04	284.7	1592
610.0	240.7	274.5	222.4	140.1	84.65	75.91	83.49	93.48	111.2	142.9	183.3	222.6	188.7	157.5	126.5	568.4	5383	4794	57.16	16.46	12.84	11.53	10.70	10.28	9.422	9.342	9.023	9.332	9.454	10.25	10.59	11.13	11.36	11.44	11.86	10.90	9.195	7.459	6.145	5.525	5.066	4.833	4.479	4.429	4.237	4.323	4.062	3.963	3.715	3.420	3.211	3.104	2.894	2.812	2.945	3.187	3.540	3.461	3.170	2.838	2.900	2.831	2.660	2.795	2.702	2.886	3.070	2.999	2.831	2.707	2.624	2.806	4.103	8.391	15.55	65.49	368.2
615.0	241.8	272.9	228.8	144.0	88.74	78.53	87.09	100.6	118.0	150.0	193.1	231.7	216.9	169.6	122.8	185.1	1498	7102	1412	18.80	13.02	10.49	10.06	9.328	8.635	8.431	8.567	8.193	8.775	9.662	10.07	10.59	11.26	11.26	11.46	10.92	8.744	7.128	5.648	5.169	4.618	4.254	3.802	3.859	3.774	3.815	3.594	3.630	3.451	3.087	2.968	2.886	2.652	2.615	2.684	2.783	2.977	3.210	3.110	2.832	2.658	2.512	2.638	2.717	2.822	2.771	2.754	2.774	2.983	2.656	2.613	2.371	2.591	3.701	5.113	16.33	83.71
620.0	259.9	261.5	226.2	142.6	93.99	78.63	89.30	99.11	120.1	155.3	190.5	227.8	233.3	177.0	126.4	100.9	394.7	4834	4180	50.43	13.29	10.17	9.360	8.049	7.684	7.288	7.628	7.031	7.750	8.460	8.327	8.638	9.488	9.726	9.753	9.264	7.579	6.401	5.126	4.684	4.397	3.964	3.803	3.646	3.542	3.647	3.292	3.498	3.357	2.877	2.763	2.527	2.571	2.446	2.639	2.525	2.589	2.868	2.897	2.736	2.495	2.343	2.515	2.727	2.708	2.521	2.654	2.569	2.946	2.646	2.539	2.263	2.283	2.364	2.677	5.227	20.21
625.0	249.3	265.1	231.4	143.0	92.64	77.42	92.54	101.2	118.0	154.2	192.8	224.3	247.8	190.1	133.1	84.83	131.6	1867	6649	383.3	13.54	10.14	8.846	7.700	6.751	6.533	6.909	6.415	6.848	7.015	7.274	7.038	7.591	7.492	7.720	7.351	6.137	5.435	4.676	4.449	3.854	3.363	3.478	3.327	3.266	3.477	3.034	3.250	2.876	2.600	2.502	2.513	2.320	2.484	2.277	2.404	2.348	2.545	2.811	2.621	2.286	2.365	2.271	2.523	2.533	2.570	2.472	2.538	2.705	2.930	2.413	2.281	2.288	2.066	2.000	2.551	5.915
630.0	259.3	264.8	233.5	141.8	98.27	81.73	93.09	102.2	123.4	158.3	198.2	228.9	249.2	208.3	141.0	86.42	72.00	481.3	4593	3154	40.53	10.25	8.476	7.094	6.466	6.032	5.837	5.718	5.780	5.883	6.168	5.838	5.954	5.804	6.053	5.781	4.976	4.342	4.090	3.958	3.508	3.156	3.128	3.023	3.049	3.086	2.989	3.083	2.875	2.489	2.397	2.417	2.165	2.183	2.135	2.210	2.148	2.321	2.426	2.350	2.496	2.400	2.252	2.327	2.404	2.416	2.325	2.431	2.551	2.601	2.476	2.148	2.179	1.977	1.838	1.897	2.547
635.0	279.0	286.8	243.8	148.1	100.4	86.08	92.40	104.8	125.2	158.8	206.5	236.3	246.4	228.1	151.0	89.00	59.98	134.0	1312	5529	474.5	12.01	8.370	7.026	6.101	5.462	5.234	5.237	5.081	5.245	5.273	5.105	4.936	5.109	5.051	4.842	4.365	3.775	3.594	3.348	3.392	3.123	2.947	2.863	2.990	2.898	2.764	3.040	2.803	2.499	2.305	2.212	2.001	2.037	1.944	1.968	1.984	2.109	2.198	2.134	2.240	2.327	2.191	2.352	2.260	2.190	2.308	2.220	2.484	2.340	2.470	2.334	2.105	1.948	1.602	1.639	1.747
640.0	315.5	353.9	271.8	154.4	101.8	86.13	94.17	111.8	136.0	166.3	211.8	246.2	251.3	231.5	164.2	93.34	58.91	56.10	326.9	4123	2817	32.62	8.659	7.252	5.815	5.389	4.732	4.627	4.715	4.790	4.503	4.643	4.704	4.703	4.721	4.374	3.888	3.694	3.299	3.228	3.062	3.136	2.723	2.816	2.925	2.950	3.059	3.050	2.876	2.331	2.111	1.970	2.051	1.928	1.980	1.966	1.961	2.049	2.052	1.938	2.022	2.080	2.179	2.277	2.299	2.226	2.278	2.318	2.396	2.121	2.341	2.341	2.135	1.889	1.678	1.647	1.425
645.0	418.6	501.3	354.5	166.9	104.0	91.23	99.99	117.2	144.4	184.9	231.1	260.7	261.5	241.6	177.9	101.1	61.67	40.82	90.56	1712	4879	255.3	9.596	6.938	6.249	5.444	4.835	4.255	4.468	4.839	4.306	4.329	4.824	4.572	4.567	4.239	3.776	3.702	3.193	3.126	2.782	3.232	3.210	2.794	3.077	3.268	3.444	3.184	2.993	2.353	2.086	2.212	2.038	1.958	1.892	1.943	2.014	2.116	2.072	1.962	2.079	2.074	2.195	2.288	2.303	2.242	2.347	2.280	2.386	2.353	2.332	2.300	2.335	2.141	1.694	1.606	1.379
650.0	481.5	587.9	438.4	204.4	106.2	98.19	104.0	129.6	156.1	201.6	244.3	276.6	277.1	245.5	192.7	107.8	62.63	39.04	38.30	475.1	4717	1404	13.31	6.932	6.178	5.229	4.683	4.343	4.121	4.337	4.304	4.187	4.284	4.338	4.255	3.994	3.763	3.418	3.053	2.981	2.727	2.891	3.196	2.688	2.996	3.444	3.542	3.616	3.108	2.453	2.177	2.094	1.973	1.967	1.814	1.921	2.052	2.023	2.094	1.880	2.020	2.004	2.225	2.318	2.296	2.292	2.398	2.368	2.473	2.224	2.332	2.319	1.971	2.111	1.692	1.458	1.345
