Sample:	'1
File name:	Default_20230112_144754.FD3
Run date:	'14:41:33, 01/12/2023
Operator:	dsjg
Comment:	'

Instrument
Model:	F-2700 FL Spectrophotometer
Serial number:	2198-001
ROM Version:	4J14000 07

Instrument parameters
Measurement type:	3-D scan
Data mode:	Fluorescence
EX  Start WL:	220.0 nm
EX  End WL:	600.0 nm
EX Sampling interval:	5.0 nm
EM  Start WL:	230.0 nm
EM  End WL:	650.0 nm
EM Sampling interval:	5.0 nm
Scan speed:	12000 nm/min
EX Slit:	5.0 nm
EM Slit:	5.0 nm
PMT Voltage:	700 V
Response:	Auto 
Corrected spectra:	Off
Contour interval:	50.000

Peak integration
Integration method:	Rectangular
Sensitivity:	1
Threshold:	1.000

Peaks
No.	ApexEX/EM(nm)	Height(Data)
1	225.0/625.0	14.43
2	230.0/345.0	 1049
3	230.0/605.0	14.26
4	245.0/270.0	154.1
5	245.0/425.0	486.3
6	255.0/280.0	202.2
7	255.0/420.0	498.2
8	255.0/440.0	508.3
9	265.0/410.0	484.7
10	265.0/585.0	42.33
11	270.0/400.0	488.9
12	270.0/595.0	39.98
13	275.0/610.0	44.69
14	280.0/315.0	680.8
15	280.0/335.0	736.4
16	280.0/620.0	39.35
17	285.0/320.0	676.2
18	285.0/630.0	31.28
19	290.0/640.0	26.28
20	320.0/360.0	299.8
21	325.0/370.0	293.4
22	330.0/375.0	285.9
23	335.0/380.0	294.5
24	445.0/525.0	15.11
25	460.0/340.0	3.517
26	460.0/545.0	8.319
27	465.0/345.0	3.678
28	475.0/360.0	3.340
29	560.0/310.0	3.681
30	575.0/320.0	3.600
31	580.0/325.0	3.579

Data points
	220.0	225.0	230.0	235.0	240.0	245.0	250.0	255.0	260.0	265.0	270.0	275.0	280.0	285.0	290.0	295.0	300.0	305.0	310.0	315.0	320.0	325.0	330.0	335.0	340.0	345.0	350.0	355.0	360.0	365.0	370.0	375.0	380.0	385.0	390.0	395.0	400.0	405.0	410.0	415.0	420.0	425.0	430.0	435.0	440.0	445.0	450.0	455.0	460.0	465.0	470.0	475.0	480.0	485.0	490.0	495.0	500.0	505.0	510.0	515.0	520.0	525.0	530.0	535.0	540.0	545.0	550.0	555.0	560.0	565.0	570.0	575.0	580.0	585.0	590.0	595.0	600.0
230.0	27.65	542.3	 1192	296.2	7.547	2.217	1.826	1.393	1.028	1.026	1.145	1.133	0.831	0.849	0.702	0.625	0.564	0.487	0.468	0.516	0.454	0.417	0.430	0.400	0.377	0.371	0.343	0.286	0.291	0.283	0.292	0.269	0.269	0.242	0.216	0.323	0.354	0.287	0.269	0.266	0.230	0.263	0.260	0.234	0.171	0.176	0.295	1.386	3.885	4.239	2.153	0.444	0.138	0.097	0.106	0.107	0.082	0.093	0.063	0.056	0.063	0.042	0.049	0.062	0.044	0.029	0.039	0.029	0.023	0.033	0.020	0.020	0.028	0.028	0.014	0.003	0.010
235.0	29.21	164.1	932.8	 1464	339.3	11.53	2.021	2.312	1.543	1.516	1.257	1.189	0.939	0.907	0.929	0.631	0.734	0.555	0.469	0.604	0.515	0.385	0.543	0.472	0.410	0.332	0.338	0.316	0.313	0.280	0.274	0.304	0.221	0.261	0.194	0.276	0.291	0.289	0.263	0.243	0.276	0.222	0.194	0.255	0.268	0.240	0.226	0.476	1.225	2.759	4.505	5.927	3.558	0.829	0.131	0.083	0.079	0.091	0.053	0.058	0.059	0.080	0.029	0.058	0.035	0.028	0.064	0.031	0.027	0.028	0.019	0.028	0.017	0.031	0.014	0.026	0.016
240.0	46.90	59.08	325.0	 1448	 1640	250.9	5.480	2.380	1.746	1.740	1.410	1.318	1.026	0.962	0.936	0.653	0.712	0.750	0.462	0.579	0.500	0.373	0.536	0.402	0.437	0.391	0.386	0.367	0.261	0.310	0.341	0.285	0.252	0.222	0.168	0.233	0.225	0.285	0.344	0.264	0.209	0.210	0.203	0.242	0.260	0.331	0.350	0.241	0.402	0.817	2.022	5.534	8.279	7.221	2.866	0.434	0.096	0.098	0.083	0.052	0.063	0.064	0.043	0.047	0.048	0.027	0.056	0.041	0.028	0.035	0.008	0.022	0.036	0.035	0.022	0.023	0.002
245.0	46.30	71.71	90.87	583.6	 1961	 1548	173.3	3.517	1.882	1.791	1.356	1.451	1.129	0.988	0.916	0.866	0.648	0.566	0.550	0.431	0.569	0.444	0.509	0.489	0.510	0.379	0.331	0.305	0.341	0.285	0.308	0.232	0.244	0.226	0.143	0.234	0.212	0.238	0.301	0.277	0.242	0.221	0.203	0.189	0.198	0.293	0.397	0.392	0.285	0.324	0.602	1.734	4.610	9.063	9.989	6.025	1.627	0.152	0.079	0.079	0.081	0.051	0.051	0.065	0.043	0.031	0.043	0.035	0.025	0.057	0.017	0.007	0.031	0.031	0.014	0.018	0.017
250.0	18.39	73.05	100.2	164.6	719.9	 1794	 2010	584.0	25.34	2.941	2.175	1.737	1.501	1.225	0.948	0.948	0.726	0.680	0.588	0.529	0.549	0.448	0.423	0.508	0.492	0.376	0.399	0.362	0.351	0.327	0.332	0.217	0.224	0.266	0.187	0.210	0.209	0.206	0.234	0.264	0.248	0.231	0.227	0.182	0.179	0.235	0.291	0.378	0.544	0.497	0.397	0.531	1.200	2.810	5.011	7.602	9.993	9.037	5.131	1.705	0.190	0.062	0.059	0.080	0.043	0.035	0.038	0.045	0.044	0.051	0.011	0.028	0.016	0.020	0.010	0.012	0.019
255.0	8.460	26.53	100.0	150.5	187.9	498.4	 1822	 2359	245.7	25.57	3.563	2.519	1.723	1.643	1.171	1.106	0.852	0.757	0.764	0.584	0.606	0.545	0.515	0.535	0.403	0.332	0.373	0.337	0.324	0.301	0.412	0.291	0.229	0.236	0.250	0.227	0.205	0.159	0.213	0.200	0.245	0.238	0.267	0.215	0.262	0.206	0.206	0.247	0.236	0.393	0.680	0.711	0.646	0.760	1.270	1.866	3.596	7.337	13.92	14.99	8.443	1.771	0.135	0.096	0.079	0.050	0.067	0.060	0.050	0.059	0.045	0.045	0.018	0.027	0.019	0.020	0.022
260.0	4.109	9.340	46.01	143.0	133.4	130.3	612.8	 2381	 2753	208.9	11.91	3.450	2.155	1.681	1.522	1.334	0.968	0.804	0.741	0.606	0.697	0.542	0.558	0.696	0.465	0.344	0.433	0.412	0.402	0.305	0.436	0.332	0.280	0.236	0.249	0.198	0.213	0.213	0.209	0.206	0.244	0.236	0.331	0.214	0.287	0.259	0.193	0.241	0.185	0.243	0.389	0.658	0.833	0.648	0.505	0.546	0.962	2.048	5.913	13.04	18.57	14.88	5.810	0.728	0.108	0.057	0.066	0.050	0.063	0.029	0.043	0.032	0.013	0.021	0.026	0.015	0.022
265.0	3.156	4.606	16.55	82.39	159.3	93.87	155.8	916.0	 3058	 1718	163.9	6.167	3.016	2.385	1.875	1.557	0.985	1.065	0.819	0.704	0.775	0.694	0.604	0.597	0.575	0.420	0.518	0.383	0.384	0.418	0.440	0.319	0.289	0.251	0.293	0.206	0.228	0.202	0.216	0.224	0.155	0.182	0.301	0.285	0.280	0.318	0.204	0.236	0.161	0.199	0.233	0.349	0.684	1.114	0.778	0.438	0.290	0.595	1.523	3.962	9.920	18.05	21.36	12.66	3.153	0.242	0.074	0.063	0.078	0.024	0.056	0.066	0.036	0.039	0.029	0.024	0.052
270.0	8.806	10.24	11.04	27.15	87.47	154.1	113.6	229.8	 1038	 2376	 2529	685.9	42.08	3.436	2.487	1.881	1.318	1.092	1.015	0.841	0.862	0.684	0.652	0.613	0.580	0.499	0.491	0.426	0.380	0.479	0.401	0.324	0.361	0.295	0.270	0.239	0.213	0.226	0.225	0.186	0.154	0.196	0.234	0.287	0.285	0.257	0.249	0.244	0.206	0.214	0.194	0.207	0.306	0.484	0.703	0.820	0.755	0.558	0.560	1.003	2.480	5.334	9.933	15.08	18.26	15.74	9.134	2.834	0.356	0.059	0.064	0.045	0.040	0.054	0.031	0.023	0.050
275.0	21.57	26.43	22.21	18.18	27.83	80.37	173.8	150.3	255.2	629.1	 2019	 3888	 1027	46.95	3.622	2.486	1.712	1.397	1.304	1.003	0.914	0.684	0.754	0.737	0.567	0.532	0.421	0.452	0.485	0.423	0.392	0.346	0.376	0.350	0.257	0.253	0.273	0.198	0.250	0.204	0.190	0.189	0.189	0.241	0.334	0.292	0.328	0.317	0.239	0.247	0.243	0.180	0.207	0.231	0.276	0.444	0.755	1.054	0.932	0.688	0.783	1.340	2.425	3.624	6.051	11.65	21.82	24.76	18.08	2.232	0.091	0.052	0.045	0.032	0.065	0.025	0.050
280.0	38.78	47.23	35.15	22.81	18.49	34.83	124.5	202.2	130.9	172.8	637.5	 2767	 4065	794.5	20.19	3.227	2.491	1.759	1.479	1.220	0.976	0.975	0.753	0.917	0.636	0.532	0.521	0.533	0.447	0.441	0.409	0.298	0.444	0.352	0.326	0.271	0.243	0.253	0.245	0.189	0.176	0.240	0.192	0.206	0.282	0.365	0.362	0.405	0.357	0.288	0.212	0.237	0.201	0.195	0.219	0.262	0.347	0.747	1.331	1.285	0.869	0.531	0.719	1.001	1.552	3.177	8.458	19.14	38.93	22.52	7.501	0.652	0.062	0.065	0.055	0.052	0.034
285.0	56.12	64.70	56.35	31.42	18.42	23.93	61.93	180.8	198.9	101.8	192.2	944.3	 3286	 3839	104.9	7.394	3.089	2.354	1.697	1.515	1.273	1.020	0.917	0.805	0.654	0.707	0.616	0.566	0.596	0.539	0.375	0.384	0.447	0.432	0.358	0.303	0.287	0.303	0.228	0.207	0.267	0.226	0.200	0.240	0.283	0.408	0.470	0.491	0.438	0.352	0.336	0.269	0.246	0.229	0.181	0.219	0.231	0.401	0.718	1.126	1.439	1.069	0.606	0.458	0.660	1.014	2.223	5.692	17.52	25.33	27.32	17.01	3.483	0.206	0.066	0.050	0.071
290.0	71.77	94.89	79.23	49.06	29.40	29.04	44.02	98.21	204.7	227.3	159.4	301.5	 1046	 2638	 3402	 1505	29.77	3.532	2.487	1.914	1.613	1.182	1.124	0.912	0.716	0.794	0.683	0.587	0.492	0.482	0.463	0.479	0.388	0.416	0.358	0.344	0.318	0.331	0.255	0.254	0.228	0.270	0.240	0.234	0.316	0.406	0.433	0.554	0.498	0.473	0.405	0.360	0.290	0.235	0.235	0.244	0.239	0.316	0.396	0.596	0.922	1.231	1.426	1.156	0.881	0.717	0.977	1.678	4.465	7.440	12.46	19.11	21.75	19.13	10.40	2.376	0.130
295.0	94.48	121.4	106.0	73.75	48.32	49.35	57.39	86.55	146.1	276.8	336.4	222.9	354.7	711.8	 1814	 4175	 2253	36.06	3.775	2.876	1.959	1.544	1.549	1.200	1.025	0.792	0.700	0.626	0.628	0.612	0.566	0.504	0.453	0.444	0.390	0.373	0.395	0.346	0.330	0.296	0.193	0.281	0.264	0.288	0.277	0.392	0.436	0.584	0.610	0.558	0.381	0.476	0.338	0.358	0.270	0.294	0.337	0.406	0.468	0.501	0.589	0.783	1.071	1.643	1.961	1.845	1.110	1.026	1.654	2.253	3.230	4.790	7.168	15.00	27.70	27.37	13.17
300.0	101.3	152.2	134.8	96.13	72.97	74.92	91.25	125.6	174.9	280.9	448.1	413.0	289.8	275.0	594.6	 2475	 4772	536.1	20.87	4.024	2.470	2.054	1.745	1.325	0.923	0.803	0.824	0.691	0.646	0.598	0.622	0.585	0.515	0.457	0.446	0.468	0.347	0.326	0.277	0.333	0.235	0.351	0.290	0.363	0.344	0.413	0.528	0.666	0.606	0.657	0.582	0.592	0.412	0.475	0.368	0.512	0.525	0.578	0.623	0.631	0.750	0.901	1.174	1.457	2.127	2.483	2.190	1.737	1.477	1.507	1.607	1.725	2.133	4.358	11.08	23.39	33.97
305.0	120.8	179.1	166.7	129.8	105.9	114.7	150.1	202.6	263.3	363.6	522.7	659.0	474.8	315.4	324.0	881.3	 3228	 4352	412.9	8.195	3.327	2.432	1.984	1.546	1.172	1.000	0.983	0.914	0.797	0.695	0.626	0.552	0.457	0.419	0.498	0.448	0.501	0.431	0.358	0.320	0.356	0.347	0.290	0.353	0.419	0.471	0.536	0.648	0.635	0.869	0.637	0.628	0.577	0.631	0.685	0.599	0.651	0.836	0.925	0.970	1.113	1.333	1.525	1.806	2.077	2.547	3.147	3.292	2.680	2.050	1.582	1.568	1.553	1.900	3.358	7.351	16.92
310.0	137.5	210.6	199.6	167.9	144.4	155.9	199.5	258.7	330.9	424.1	535.0	668.8	677.5	460.7	331.7	382.1	 1061	 2795	 3806	 1544	22.30	3.668	2.852	2.281	1.460	1.269	1.131	0.887	0.859	0.815	0.730	0.658	0.561	0.551	0.498	0.517	0.453	0.442	0.386	0.323	0.356	0.345	0.361	0.375	0.439	0.563	0.678	0.881	0.895	0.753	0.674	0.788	0.769	0.785	0.766	0.824	0.937	1.131	1.229	1.261	1.462	1.670	1.886	2.170	2.397	2.571	2.953	3.401	3.681	3.407	2.535	2.040	1.814	1.768	1.850	2.525	4.909
315.0	163.4	259.0	249.6	202.1	178.3	194.6	243.2	309.6	370.1	468.8	567.7	647.7	680.8	649.2	436.2	310.7	422.5	785.0	 1768	 4824	 2259	26.81	4.285	2.931	2.101	1.570	1.242	1.173	1.057	0.936	0.844	0.719	0.528	0.532	0.541	0.606	0.461	0.515	0.521	0.331	0.381	0.397	0.413	0.420	0.552	0.760	0.685	0.977	0.966	0.963	0.808	0.858	0.925	0.892	0.880	0.993	1.084	1.327	1.447	1.497	1.700	1.835	2.259	2.250	2.646	2.597	2.965	3.153	3.194	3.454	3.419	2.996	2.348	2.130	1.659	1.602	2.263
320.0	213.9	334.7	321.4	245.7	202.5	218.7	269.2	338.1	398.6	503.0	600.6	668.6	671.6	676.2	580.2	342.7	307.8	323.6	514.1	 2505	 5402	402.3	17.28	4.008	2.777	1.896	1.398	1.359	1.091	1.019	0.897	0.749	0.691	0.533	0.568	0.588	0.482	0.548	0.512	0.454	0.495	0.429	0.496	0.502	0.618	0.827	0.940	1.179	1.267	1.220	1.065	1.031	1.075	0.930	1.001	1.113	1.199	1.403	1.612	1.515	1.761	2.029	2.357	2.465	2.628	2.990	3.140	3.173	3.372	3.389	3.470	3.600	3.351	2.685	1.901	1.611	1.669
325.0	279.1	473.3	482.6	339.4	245.1	244.1	287.9	360.7	415.6	523.0	613.3	692.6	687.3	647.7	637.3	442.5	299.3	231.5	185.2	720.5	 3479	 5078	337.1	7.605	3.535	2.393	1.811	1.385	1.289	1.018	0.968	0.961	0.747	0.569	0.650	0.588	0.575	0.556	0.498	0.507	0.466	0.496	0.492	0.544	0.686	1.094	1.285	1.708	1.845	1.793	1.529	1.258	1.229	1.101	1.199	1.151	1.379	1.457	1.603	1.734	1.859	2.138	2.466	2.617	2.677	3.057	3.192	3.486	3.434	3.369	3.294	3.266	3.579	3.454	2.578	1.740	1.620
330.0	359.2	644.1	713.6	538.6	344.7	283.2	314.0	379.0	433.2	533.3	630.6	708.6	714.1	648.0	593.0	529.7	390.9	234.5	136.1	221.5	955.1	 3150	 3978	 1395	19.71	3.417	2.520	1.929	1.555	1.177	1.165	1.036	0.829	0.769	0.673	0.669	0.596	0.546	0.476	0.466	0.451	0.476	0.537	0.632	0.823	1.143	1.524	2.114	2.517	2.463	2.184	2.093	1.806	1.493	1.417	1.304	1.505	1.541	1.693	1.832	1.910	2.221	2.495	2.784	2.874	3.174	3.326	3.364	3.437	3.402	3.376	3.225	3.065	3.215	3.142	2.776	2.317
335.0	415.7	798.6	918.8	725.8	490.3	352.2	343.2	395.7	449.8	542.8	636.2	720.6	736.4	674.9	591.2	498.9	483.7	322.9	160.4	138.8	278.8	772.7	 1931	 6021	 2026	23.82	3.701	2.612	2.008	1.526	1.400	1.225	0.905	0.802	0.695	0.736	0.632	0.624	0.481	0.546	0.513	0.521	0.591	0.685	0.861	1.341	1.865	2.668	3.213	2.939	2.810	2.888	2.683	2.095	1.741	1.548	1.648	1.762	1.929	2.030	2.055	2.343	2.460	2.877	2.907	3.330	3.371	3.445	3.623	3.735	3.448	3.394	2.989	2.994	2.843	2.768	2.870
340.0	438.3	853.6	 1013	837.7	561.8	398.8	369.3	415.8	456.5	534.7	636.6	721.8	732.9	686.9	600.8	484.3	451.5	406.0	209.9	137.1	142.7	236.1	527.0	 3195	 5788	344.2	12.95	3.364	2.411	2.052	1.533	1.363	0.957	0.982	0.850	0.752	0.746	0.618	0.555	0.637	0.542	0.546	0.673	0.680	0.975	1.465	1.936	2.868	3.517	3.433	3.224	3.131	3.102	2.234	1.878	1.782	1.738	1.861	1.998	2.196	2.039	2.332	2.311	2.792	2.957	3.260	3.199	3.330	3.438	3.450	3.270	3.504	3.188	3.069	2.791	2.804	2.662
345.0	436.9	858.1	 1049	877.4	602.2	413.8	382.7	416.2	452.0	526.8	613.9	695.3	712.2	670.4	589.2	472.5	398.7	392.4	289.9	159.4	124.1	127.2	173.0	882.6	 4030	 4688	272.7	5.595	3.037	2.291	1.858	1.512	1.133	1.090	0.911	0.850	0.743	0.684	0.545	0.603	0.526	0.552	0.657	0.704	0.965	1.391	1.940	2.782	3.371	3.678	3.225	3.297	3.148	2.429	1.987	1.678	1.834	1.822	2.035	2.065	2.157	2.297	2.411	2.606	2.772	3.002	3.251	3.350	3.548	3.399	3.264	3.267	3.241	3.022	2.831	2.453	2.416
350.0	416.4	786.6	 1005	877.3	629.0	432.4	383.2	410.3	437.5	497.1	574.7	645.4	666.7	636.1	570.5	461.7	384.1	337.6	319.5	250.5	153.6	123.7	113.1	249.2	 1081	 3102	 3345	 1147	17.32	3.278	2.232	1.923	1.426	1.171	0.952	0.877	0.742	0.658	0.585	0.589	0.538	0.604	0.605	0.695	0.957	1.351	1.897	2.513	3.186	3.516	3.068	3.288	3.185	2.556	2.236	1.767	1.801	1.810	1.949	2.142	2.170	2.176	2.363	2.575	2.721	2.902	2.973	3.099	3.300	3.251	3.059	3.185	3.015	3.015	2.726	2.330	2.247
355.0	383.1	708.1	937.8	850.3	633.4	460.2	393.6	412.8	433.4	470.3	538.7	604.5	625.8	598.5	546.1	455.0	382.9	325.2	283.9	298.0	242.3	153.3	121.8	128.5	287.0	736.1	 1678	 4699	 1768	23.32	3.478	2.668	1.736	1.422	1.073	0.942	0.828	0.727	0.610	0.575	0.593	0.575	0.657	0.670	0.929	1.310	1.693	2.419	2.927	3.106	3.113	3.162	3.060	2.699	2.331	1.902	1.885	1.892	1.918	2.040	2.089	2.070	2.401	2.627	2.608	2.605	2.812	2.856	3.088	3.102	3.280	3.110	2.964	2.727	2.654	2.353	2.254
360.0	345.5	640.3	873.3	803.6	623.0	454.8	403.3	417.7	435.4	462.4	525.1	570.9	589.6	573.0	530.2	447.3	383.1	326.7	279.4	277.5	299.8	203.0	139.5	117.2	124.1	204.2	441.2	 2625	 5056	328.3	12.56	3.211	2.253	1.646	1.243	0.948	0.850	0.815	0.685	0.654	0.622	0.618	0.662	0.649	0.926	1.214	1.547	2.347	2.775	2.846	2.794	3.340	2.988	2.598	2.257	2.027	1.859	1.833	1.978	2.213	2.182	2.105	2.446	2.421	2.598	2.555	2.686	2.556	2.861	2.801	2.928	2.988	2.955	2.781	2.648	2.364	2.250
365.0	319.3	592.3	790.5	749.0	604.8	463.7	411.5	417.5	432.1	456.1	505.3	550.6	563.7	551.1	511.6	443.7	384.0	335.6	292.8	268.3	291.5	274.8	173.5	128.3	102.8	98.54	136.2	719.5	 3675	 4525	260.4	5.689	2.822	1.988	1.615	1.117	0.916	0.751	0.814	0.621	0.717	0.633	0.598	0.669	0.825	1.162	1.490	2.127	2.539	2.681	2.575	2.932	2.928	2.506	2.321	2.080	1.945	1.872	1.911	2.086	2.088	2.080	2.291	2.359	2.563	2.562	2.320	2.500	2.648	2.758	2.960	2.793	2.800	2.733	2.562	2.256	2.172
370.0	288.2	521.6	697.6	691.0	581.8	466.3	415.6	426.1	427.1	452.8	490.5	529.3	539.4	522.0	492.1	433.0	389.8	347.6	313.0	286.5	276.5	293.4	255.4	172.2	122.8	95.18	84.19	198.5	988.3	 3121	 3512	 1070	16.02	3.047	2.093	1.459	1.101	0.958	0.860	0.699	0.718	0.722	0.586	0.678	0.787	1.056	1.397	1.875	2.284	2.268	2.352	2.752	2.792	2.511	2.328	1.956	2.003	1.973	2.015	2.007	2.009	2.129	2.334	2.365	2.324	2.380	2.429	2.462	2.676	2.703	2.825	2.668	2.837	2.657	2.544	2.454	2.208
375.0	255.7	459.4	620.8	638.7	560.1	475.9	424.7	433.2	430.3	457.5	487.2	514.1	525.8	506.9	478.0	429.4	398.2	364.2	332.8	312.3	290.9	276.3	285.9	256.3	162.4	119.6	96.30	104.0	260.2	739.0	 1897	 4843	 1638	20.30	2.959	1.955	1.436	1.205	0.996	0.767	0.774	0.744	0.535	0.721	0.824	0.919	1.273	1.627	2.026	2.055	2.094	2.658	2.530	2.448	2.351	2.065	2.075	1.953	2.135	2.149	2.248	2.185	2.227	2.309	2.446	2.354	2.319	2.535	2.637	2.552	2.706	2.438	2.377	2.599	2.509	2.419	2.427
380.0	236.7	438.1	568.6	595.8	546.3	484.2	439.1	446.8	441.6	463.0	484.4	507.9	516.5	500.2	469.6	426.5	397.8	374.1	351.4	330.2	307.8	284.3	277.6	294.5	217.8	144.6	115.0	100.6	112.7	203.7	495.5	 2767	 4987	280.8	11.64	2.540	1.868	1.377	1.087	0.908	0.804	0.753	0.609	0.650	0.910	1.053	1.222	1.567	1.882	1.899	2.120	2.446	2.459	2.421	2.360	2.157	2.071	2.096	2.178	2.066	2.319	2.068	2.344	2.370	2.345	2.281	2.349	2.597	2.540	2.590	2.498	2.455	2.517	2.532	2.562	2.407	2.437
385.0	241.8	397.2	527.2	574.7	539.5	481.0	447.9	452.3	447.3	455.6	483.6	508.3	510.9	493.5	463.7	423.1	402.5	382.1	362.0	343.6	322.4	300.1	278.8	282.2	271.8	182.2	136.0	112.3	92.57	93.55	149.7	765.6	 3694	 4068	220.3	4.716	2.255	1.705	1.319	0.944	0.910	0.820	0.761	0.701	0.734	1.035	1.194	1.520	1.753	1.981	2.036	2.293	2.379	2.466	2.360	2.118	2.212	2.294	2.149	2.283	2.269	2.148	2.396	2.038	2.326	2.310	2.391	2.542	2.489	2.468	2.511	2.518	2.513	2.654	2.399	2.356	2.212
390.0	219.4	369.6	492.5	545.8	525.2	481.2	460.5	464.7	458.4	464.4	481.8	495.6	488.6	481.2	452.5	418.5	402.5	388.3	372.8	354.8	337.5	318.5	295.2	275.5	273.8	242.8	176.3	132.6	104.2	82.98	80.84	208.2	993.4	 2858	 2966	876.7	13.51	2.291	1.707	1.220	1.065	0.937	0.844	0.815	0.837	1.064	1.151	1.470	1.682	1.803	1.867	2.194	2.394	2.411	2.288	2.047	2.291	2.276	2.194	2.187	2.155	2.065	2.321	2.268	2.373	2.305	2.406	2.339	2.468	2.388	2.375	2.502	2.503	2.474	2.381	2.370	2.380
395.0	218.3	345.7	460.2	520.3	518.6	494.7	469.3	479.8	462.5	476.1	483.8	485.8	483.3	467.5	447.1	415.5	400.9	391.7	379.7	365.7	351.3	335.7	310.7	287.4	262.7	257.1	238.9	168.2	126.4	97.64	79.52	94.13	250.3	666.1	 1621	 4244	 1390	17.72	2.439	1.743	1.349	1.056	0.830	0.939	0.914	1.026	1.209	1.496	1.644	1.667	1.759	2.203	2.314	2.499	2.193	2.138	2.412	2.351	2.267	2.266	2.108	2.226	2.358	2.197	2.370	2.341	2.535	2.224	2.237	2.463	2.311	2.397	2.441	2.280	2.383	2.530	2.425
400.0	205.0	350.1	454.7	499.9	509.0	506.3	474.7	485.0	470.7	476.1	488.9	487.3	475.7	457.5	437.7	413.1	398.8	391.3	381.0	368.2	357.4	340.8	320.7	296.8	268.8	250.8	257.3	213.8	148.9	114.3	90.44	78.13	91.28	171.5	410.7	 2445	 4160	242.4	10.64	2.056	1.532	1.360	0.919	0.834	0.923	1.091	1.218	1.428	1.607	1.644	1.607	2.074	2.184	2.370	2.370	2.224	2.410	2.390	2.387	2.239	2.232	2.243	2.221	2.243	2.461	2.293	2.315	2.227	2.222	2.463	2.354	2.305	2.295	2.417	2.365	2.465	2.514
405.0	219.9	349.9	440.6	487.0	498.4	497.3	482.0	489.6	477.4	480.3	485.7	482.3	472.2	453.1	427.7	409.8	394.0	388.3	376.6	368.0	360.0	345.3	325.1	304.4	276.4	251.4	248.7	248.7	179.3	128.4	103.4	83.78	65.28	66.62	110.2	656.7	 2980	 3415	198.2	4.514	1.936	1.426	1.227	0.987	0.968	1.075	1.205	1.423	1.679	1.582	1.657	2.031	2.301	2.345	2.345	2.216	2.224	2.364	2.328	2.221	2.297	2.252	2.260	2.264	2.305	2.299	2.256	2.222	2.360	2.409	2.227	2.209	2.217	2.382	2.371	2.350	2.344
410.0	199.2	325.4	424.4	478.0	487.4	496.3	484.2	492.4	482.3	484.7	482.5	473.2	459.2	443.1	420.4	395.7	382.5	379.9	371.1	364.5	355.6	343.6	326.8	308.4	285.9	259.4	241.8	238.0	221.0	161.7	119.2	93.70	66.83	49.94	48.50	163.3	779.0	 2317	 2544	807.7	12.50	1.939	1.422	1.204	1.164	1.200	1.184	1.522	1.680	1.592	1.587	2.043	2.193	2.248	2.358	2.225	2.279	2.354	2.396	2.273	2.330	2.317	2.324	2.313	2.378	2.236	2.253	2.272	2.183	2.258	2.238	2.220	2.252	2.256	2.406	2.226	2.345
415.0	199.8	316.4	399.2	463.7	473.7	487.8	483.0	495.9	475.9	480.9	475.3	460.3	442.7	425.1	404.0	379.0	368.0	365.5	359.1	353.1	345.2	334.3	319.3	306.8	286.9	264.4	242.4	224.0	220.0	203.6	145.1	104.2	76.05	54.28	41.24	57.40	187.9	535.7	 1385	 3354	 1200	16.56	2.047	1.574	1.303	1.311	1.145	1.391	1.592	1.517	1.529	1.918	2.156	2.022	2.208	2.206	2.231	2.303	2.262	2.278	2.255	2.303	2.410	2.292	2.312	2.223	2.057	2.322	2.205	2.114	2.166	2.310	2.214	2.194	2.119	2.234	2.246
420.0	184.9	309.3	389.1	457.6	471.6	483.6	495.2	498.2	482.9	474.1	468.1	456.5	432.8	410.8	391.8	369.3	357.7	353.9	348.6	341.6	335.0	323.9	316.1	302.2	284.8	262.6	243.3	224.2	208.8	209.1	174.0	119.5	85.11	60.42	43.82	38.37	59.09	131.5	344.7	 1864	 3391	226.6	10.14	1.872	1.555	1.420	1.336	1.416	1.556	1.546	1.539	2.009	2.163	2.121	2.145	2.292	2.347	2.243	2.399	2.311	2.417	2.263	2.452	2.251	2.285	2.223	2.045	2.166	2.135	2.078	2.188	2.022	2.226	2.172	2.062	2.084	2.206
425.0	195.8	296.2	389.6	444.1	464.5	486.3	479.5	490.2	479.9	468.5	460.9	447.2	421.6	398.8	380.5	356.1	346.0	340.6	337.8	330.6	323.9	317.4	309.5	298.7	281.2	264.2	245.3	226.5	207.1	198.7	192.9	138.0	93.08	68.06	49.43	37.13	34.02	43.48	87.28	491.9	 2407	 2849	190.0	3.912	1.900	1.699	1.511	1.601	1.622	1.510	1.581	1.905	2.048	2.183	2.069	2.203	2.351	2.261	2.457	2.352	2.328	2.245	2.316	2.204	2.190	2.059	2.051	2.004	2.056	2.136	2.005	2.014	2.165	2.069	1.973	1.973	2.032
430.0	184.8	289.8	371.1	427.4	459.5	477.7	484.8	493.1	480.2	467.8	453.7	437.4	411.9	387.2	363.9	344.6	335.7	330.4	323.9	318.0	312.2	305.3	298.4	289.2	275.8	260.7	244.1	228.8	209.8	191.9	183.0	163.4	115.5	77.84	57.90	43.50	33.16	28.33	32.63	119.7	635.5	 1922	 2138	726.5	11.83	2.119	1.639	1.743	1.712	1.573	1.622	1.798	2.120	2.216	2.218	2.167	2.233	2.403	2.391	2.449	2.271	2.261	2.285	2.294	2.188	2.138	2.078	2.030	2.042	1.985	2.000	1.999	1.994	1.896	2.036	1.943	1.957
435.0	193.3	271.4	355.3	420.5	446.7	473.8	498.1	495.5	484.3	459.0	445.2	425.3	399.4	375.2	351.8	330.0	321.4	315.4	309.7	305.6	299.0	293.0	289.7	279.6	267.7	254.4	241.3	228.3	213.2	194.3	173.2	162.2	142.9	96.43	67.44	51.67	38.40	29.52	24.36	39.34	150.3	442.2	 1092	 2929	 1122	15.48	2.193	1.966	1.747	1.680	1.692	1.997	2.189	2.205	2.085	2.253	2.292	2.453	2.389	2.630	2.484	2.228	2.322	2.183	2.089	2.067	2.050	1.972	1.883	1.896	1.977	1.927	1.979	1.898	1.881	1.981	1.945
440.0	248.3	268.7	354.2	403.0	450.5	478.3	498.6	508.3	477.4	455.6	444.0	416.8	391.5	366.8	342.1	322.0	314.9	303.2	301.6	296.2	286.2	281.0	276.4	269.0	261.1	250.0	237.0	228.0	214.3	195.9	172.6	154.3	145.9	116.9	76.27	57.22	43.58	32.70	24.72	23.62	43.77	106.4	271.4	 1732	 3077	208.1	7.497	2.258	1.798	1.735	1.722	1.941	2.035	2.136	2.210	2.259	2.532	2.464	2.463	2.404	2.510	2.366	2.240	2.293	2.202	2.126	2.010	1.836	1.985	1.785	1.872	1.959	1.941	1.784	1.891	1.904	1.911
445.0	323.7	280.4	342.6	403.2	440.0	475.1	499.0	507.0	474.9	452.9	429.6	409.8	381.3	355.1	331.0	312.4	302.1	294.8	289.2	282.9	277.2	268.0	264.5	260.5	251.5	242.8	235.3	223.4	211.7	195.2	174.7	151.6	136.1	127.3	89.45	61.94	47.38	35.74	26.90	21.46	21.86	32.61	68.05	473.6	 2338	 1701	149.0	3.849	2.151	1.805	1.712	2.005	2.030	2.146	2.282	2.174	2.361	2.407	2.561	2.452	2.405	2.453	2.299	2.240	2.144	2.057	1.828	1.907	1.882	1.807	1.721	1.801	1.900	1.863	1.828	1.861	1.885
450.0	350.0	400.7	328.6	382.7	427.3	471.2	485.7	498.8	462.3	434.5	415.2	391.1	361.3	339.8	313.8	296.9	284.4	279.6	272.5	267.0	258.3	250.2	247.5	243.7	237.9	230.4	224.2	214.5	204.9	190.0	172.5	149.6	128.7	118.4	104.6	74.65	52.95	39.84	30.55	23.78	19.11	18.48	23.54	112.4	620.5	 1638	 2000	645.5	10.02	2.206	1.896	2.011	2.088	2.167	2.127	2.247	2.399	2.470	2.399	2.382	2.418	2.238	2.225	2.120	2.003	1.924	1.946	1.691	1.735	1.729	1.797	1.760	1.656	1.760	1.765	1.724	1.782
455.0	257.8	611.1	402.7	361.0	409.0	452.1	469.7	477.8	444.3	422.3	394.2	369.4	340.6	317.7	294.1	279.7	263.5	258.7	252.4	246.1	238.6	231.2	226.2	223.6	220.4	212.7	211.7	201.0	196.5	182.2	166.3	147.1	125.1	108.6	98.91	87.63	63.01	44.40	34.75	26.42	21.53	17.24	15.08	32.76	144.3	378.2	 1079	 2546	938.4	12.19	2.255	2.044	2.092	2.120	2.175	2.165	2.308	2.296	2.434	2.349	2.271	2.140	2.083	1.975	1.925	1.763	1.810	1.700	1.766	1.615	1.695	1.610	1.654	1.636	1.540	1.523	1.649
460.0	176.2	616.7	592.9	349.0	395.7	431.9	457.4	458.5	429.2	402.0	377.8	353.4	327.8	300.0	276.6	258.9	247.1	241.3	238.7	229.7	221.1	212.8	211.0	209.3	206.2	199.9	197.5	192.2	186.0	176.3	162.5	142.8	121.8	105.3	90.95	88.09	72.21	48.67	37.15	28.05	22.44	18.16	14.38	16.05	39.11	90.03	267.6	 1468	 2553	156.1	7.387	2.238	2.163	2.142	2.199	2.151	2.277	2.149	2.372	2.290	2.207	2.132	2.037	1.888	1.702	1.778	1.729	1.746	1.709	1.546	1.618	1.473	1.530	1.583	1.392	1.512	1.487
465.0	144.9	489.8	825.9	392.9	376.2	407.0	437.1	440.1	412.5	378.1	356.2	335.1	310.3	285.8	261.3	245.6	232.7	228.4	222.3	213.2	205.9	199.2	198.1	195.5	191.7	189.6	186.8	181.9	175.6	168.8	156.4	139.7	117.8	101.6	86.07	80.04	75.90	55.24	38.47	30.24	23.56	18.89	14.61	12.76	16.23	26.05	64.76	392.4	 1963	 2032	123.4	3.634	2.297	2.279	2.098	1.968	2.271	2.316	2.298	2.244	2.100	1.996	1.789	1.623	1.645	1.584	1.695	1.681	1.600	1.398	1.485	1.480	1.366	1.464	1.412	1.510	1.306
470.0	125.8	278.3	837.0	713.5	363.9	379.3	404.8	409.1	376.9	350.0	327.4	310.3	285.0	262.0	239.4	226.2	211.7	206.0	200.9	194.2	185.4	178.1	177.6	174.4	173.8	170.3	169.6	166.3	162.7	155.6	144.1	129.6	112.5	97.13	82.62	71.49	68.26	61.11	44.24	31.93	24.68	20.06	16.06	13.12	11.88	12.39	19.87	92.41	526.5	 1470	 1505	568.6	10.22	2.478	2.176	2.080	2.209	2.153	2.161	2.090	1.989	1.885	1.843	1.567	1.530	1.615	1.553	1.502	1.471	1.394	1.420	1.382	1.265	1.273	1.346	1.348	1.213
475.0	116.5	193.1	485.3	 1055	494.7	339.1	364.8	372.4	340.9	314.9	299.9	286.0	259.0	235.7	214.6	202.2	191.6	182.3	179.6	175.3	163.9	158.7	157.3	155.3	155.1	152.0	152.1	149.8	145.9	141.9	132.3	120.9	106.0	89.84	78.25	66.33	58.97	55.85	51.02	36.29	26.23	20.71	17.20	13.58	11.71	9.788	10.36	25.69	121.3	336.3	741.5	 1986	759.7	12.01	2.408	2.045	2.199	1.950	2.030	1.821	1.746	1.762	1.746	1.506	1.413	1.412	1.304	1.263	1.352	1.257	1.280	1.286	1.234	1.277	1.246	1.137	1.132
480.0	117.6	168.6	285.2	965.1	825.6	332.0	339.5	345.9	324.2	298.0	280.9	265.1	238.9	219.7	199.0	184.8	175.2	168.8	165.4	160.4	152.4	145.4	144.0	142.4	141.8	140.8	139.8	138.2	136.0	133.2	124.4	113.8	100.9	85.96	75.02	63.85	54.73	49.59	49.61	40.41	28.73	22.05	17.92	14.54	11.65	9.991	8.323	10.96	31.33	78.68	181.7	 1056	 1981	171.6	7.042	2.215	2.050	1.893	1.968	1.833	1.713	1.690	1.657	1.367	1.391	1.264	1.234	1.327	1.267	1.139	1.221	1.112	1.133	1.159	1.188	1.007	1.063
485.0	117.0	157.3	216.1	626.6	 1140	403.0	318.7	320.0	303.0	281.0	267.1	247.2	226.6	204.9	187.4	172.5	162.6	157.9	154.7	147.2	139.7	134.2	132.8	132.9	131.1	131.3	128.9	129.2	126.7	125.1	117.8	105.6	95.29	82.08	72.12	61.91	53.05	46.07	44.11	43.16	32.36	22.33	18.32	15.10	12.37	10.30	8.259	7.874	11.64	21.41	44.10	273.0	 1469	 1430	140.4	3.282	2.135	1.984	1.840	1.819	1.698	1.578	1.495	1.401	1.352	1.288	1.151	1.201	1.175	1.102	1.150	1.103	1.134	1.036	0.980	0.987	1.072
490.0	103.7	152.0	182.1	324.4	992.6	811.9	317.3	291.6	270.7	256.5	243.7	226.0	205.9	189.7	169.5	155.2	145.8	142.2	138.0	132.6	125.1	120.4	118.8	118.8	118.1	117.0	116.0	115.9	115.2	113.8	106.7	97.54	87.72	76.16	66.74	58.70	50.43	42.92	38.50	38.16	35.89	26.16	19.04	15.53	13.00	10.99	9.007	7.852	7.515	8.770	13.41	64.29	382.2	 1047	 1401	523.2	10.07	2.107	1.996	1.770	1.710	1.566	1.433	1.359	1.193	1.178	1.133	1.025	1.147	1.043	0.971	0.951	0.917	0.933	0.904	0.988	1.029
495.0	79.64	145.6	169.6	214.3	520.9	 1160	507.7	258.2	242.9	228.0	217.7	205.1	186.7	166.3	154.6	140.8	131.1	124.8	119.5	115.6	110.1	106.1	105.5	104.2	103.8	104.0	103.3	102.6	102.3	100.9	95.40	87.94	78.65	69.63	61.53	54.83	46.76	40.45	35.90	31.89	32.26	30.28	21.74	16.41	13.50	11.47	9.397	8.226	7.003	6.492	6.652	17.60	88.10	240.4	730.1	 1768	198.4	11.94	1.961	1.745	1.546	1.471	1.344	1.249	1.139	1.067	1.044	1.054	0.889	0.984	0.954	0.905	0.948	0.928	0.839	0.886	0.791
500.0	68.78	134.8	165.8	181.0	277.2	997.2	896.1	251.9	219.3	209.6	198.6	184.5	172.4	151.9	139.4	127.9	119.5	111.0	107.9	104.2	100.3	95.23	94.26	94.73	94.06	93.02	93.75	92.61	93.68	91.44	87.28	80.12	72.31	63.54	56.32	50.40	43.75	38.19	33.08	29.64	27.65	29.64	24.87	17.26	13.58	11.24	9.970	8.827	7.055	5.998	5.517	7.241	22.54	56.37	179.9	969.3	 1589	181.2	6.019	1.754	1.462	1.349	1.223	1.237	1.192	1.036	0.924	0.974	0.941	0.940	0.860	0.903	0.875	0.809	0.833	0.769	0.734
505.0	63.38	108.9	159.5	165.0	196.1	609.0	 1209	317.0	201.0	192.3	180.1	168.4	156.7	139.6	126.9	116.7	109.9	102.3	96.55	95.18	89.18	87.21	84.29	85.52	84.73	83.83	84.81	83.44	84.24	82.64	79.96	73.34	66.14	59.18	52.08	47.23	40.77	35.98	31.21	27.79	24.97	25.41	25.35	19.26	13.92	11.17	9.965	8.311	6.991	6.138	5.287	5.100	8.145	15.34	42.97	252.8	 1232	 1447	26.38	2.450	1.554	1.323	1.263	1.132	1.040	1.047	0.859	0.856	0.891	0.871	0.804	0.763	0.667	0.723	0.819	0.757	0.756
510.0	56.68	94.45	141.6	152.9	161.9	286.0	957.2	758.5	210.1	171.2	158.4	151.9	137.2	123.4	110.6	99.81	94.43	89.81	86.05	82.68	77.71	74.96	74.45	72.24	73.47	72.61	73.55	72.83	73.50	72.46	69.73	64.34	58.57	52.53	46.56	41.74	36.73	32.18	28.79	25.02	22.73	20.83	21.51	20.83	15.83	11.59	9.547	8.074	6.834	6.196	5.275	4.706	4.801	6.115	12.12	58.84	321.6	952.0	 1200	408.6	9.255	1.409	1.243	1.145	1.021	0.879	0.806	0.813	0.845	0.792	0.721	0.717	0.626	0.643	0.657	0.613	0.580
515.0	43.55	74.88	111.1	148.5	140.4	174.6	435.0	 1044	438.6	146.4	139.5	132.8	119.8	106.9	96.79	87.05	81.67	76.57	73.60	69.36	66.61	63.62	64.94	63.03	62.73	61.62	62.04	62.81	61.89	61.21	59.53	56.19	50.38	45.99	41.72	37.10	32.77	28.84	25.40	22.77	20.15	18.05	17.09	18.09	17.79	12.79	9.435	7.856	6.826	5.797	5.244	4.725	4.104	3.986	5.040	15.37	73.70	216.8	560.8	 1378	201.6	10.71	1.354	1.013	1.032	0.851	0.806	0.732	0.721	0.756	0.563	0.656	0.615	0.567	0.558	0.523	0.504
520.0	35.08	65.55	91.42	138.4	134.9	134.2	214.3	836.6	805.7	157.7	128.9	120.6	106.7	96.39	87.20	79.00	72.74	68.37	65.11	62.37	59.32	56.56	56.50	55.14	54.62	54.31	55.21	55.60	55.23	54.92	53.52	49.60	45.19	41.81	37.26	33.47	30.04	26.53	24.01	20.88	18.78	16.53	14.97	15.24	17.09	14.41	9.641	7.516	6.678	5.717	5.118	4.709	3.899	3.538	3.495	5.672	18.53	50.29	135.6	751.6	 1290	173.7	4.140	1.071	1.009	0.742	0.689	0.705	0.619	0.656	0.503	0.545	0.562	0.531	0.506	0.479	0.444
525.0	33.96	58.87	77.34	119.3	133.0	118.6	141.3	472.0	 1050	240.7	116.3	107.7	97.29	86.66	77.80	71.22	65.05	62.47	57.74	56.55	52.73	50.56	50.66	49.51	49.84	49.65	49.32	49.76	49.82	49.62	47.39	45.25	41.81	37.57	33.18	30.55	27.14	24.04	21.92	19.21	17.38	15.28	13.74	12.97	14.25	15.11	11.03	7.904	6.548	5.449	5.032	4.433	4.044	3.677	3.132	3.381	6.191	13.07	32.12	194.7	948.5	 1113	26.64	1.780	0.952	0.842	0.737	0.697	0.641	0.589	0.488	0.528	0.541	0.454	0.466	0.447	0.416
530.0	30.89	48.72	64.00	90.30	121.0	109.5	109.7	205.7	757.4	753.8	143.0	96.65	84.52	75.51	67.87	61.26	56.06	53.56	49.74	47.84	46.18	44.25	43.31	43.05	42.87	42.48	41.93	42.87	43.01	43.07	41.53	39.25	35.57	32.44	29.00	27.03	24.01	21.44	19.47	17.43	15.53	14.12	12.48	11.57	11.30	12.61	11.99	9.217	6.325	5.385	4.667	4.297	3.734	3.459	2.904	2.841	3.180	4.538	8.661	44.98	244.2	726.7	870.6	306.3	7.957	0.904	0.748	0.717	0.643	0.524	0.507	0.448	0.444	0.429	0.411	0.349	0.328
535.0	27.43	37.83	54.21	71.32	94.60	106.6	91.86	115.3	304.2	892.1	451.7	84.71	72.22	65.26	57.68	52.43	48.68	45.22	42.66	40.56	38.90	37.75	37.14	36.85	35.42	36.05	36.32	36.30	35.98	36.54	35.86	33.20	30.28	28.03	25.24	23.51	20.73	19.24	16.97	15.63	13.90	12.30	11.41	10.18	9.543	9.158	10.46	10.28	7.073	5.176	4.476	4.038	3.444	3.299	3.042	2.761	2.544	2.539	3.300	11.38	55.45	164.9	394.0	991.9	195.6	8.758	0.806	0.651	0.629	0.504	0.394	0.470	0.344	0.334	0.382	0.319	0.388
540.0	25.07	34.89	49.13	61.33	77.99	106.2	87.03	87.39	133.2	621.1	802.9	112.5	65.55	59.44	52.82	47.06	41.78	40.98	36.93	35.44	34.68	33.54	31.90	32.86	32.41	31.61	31.79	31.56	31.96	32.27	31.72	29.17	27.10	24.66	22.90	20.13	18.30	16.77	15.30	14.14	12.39	10.92	10.47	9.506	8.563	7.832	8.667	10.08	7.849	5.285	4.246	3.827	3.285	2.987	2.964	2.567	2.259	2.041	2.091	3.761	13.43	37.97	94.60	537.2	943.2	156.8	2.806	0.750	0.595	0.523	0.411	0.474	0.338	0.325	0.301	0.304	0.349
545.0	21.55	31.63	44.88	53.45	62.29	95.06	86.41	76.11	87.56	309.1	911.9	187.4	59.63	53.79	46.94	42.05	38.11	37.27	34.24	31.86	31.09	30.11	29.47	28.80	28.71	28.23	28.99	28.52	28.65	28.99	28.53	25.76	24.61	22.43	20.15	18.24	17.03	15.09	13.87	12.82	11.29	10.10	9.123	8.545	7.863	7.205	7.285	8.098	8.319	6.069	4.219	3.597	3.107	2.858	2.619	2.475	2.334	2.005	1.806	2.040	4.203	9.479	22.15	137.9	675.4	804.5	25.94	1.095	0.633	0.450	0.408	0.444	0.295	0.280	0.299	0.305	0.316
550.0	22.99	29.34	39.72	45.70	52.49	69.19	84.58	69.38	66.26	124.3	544.2	649.5	98.20	45.41	40.37	35.82	33.25	30.76	29.11	27.42	26.18	25.32	24.59	24.27	24.61	24.33	24.22	24.36	24.39	24.34	23.57	22.39	20.82	19.26	17.25	15.69	14.55	13.14	12.02	11.11	9.879	8.915	8.316	7.326	7.118	6.425	6.016	6.205	6.901	6.656	4.654	3.500	2.948	2.528	2.387	2.232	2.170	1.919	1.650	1.491	1.925	3.045	5.835	31.67	173.0	514.7	629.3	116.1	7.179	0.593	0.427	0.375	0.316	0.301	0.269	0.297	0.259
555.0	19.49	26.18	33.86	37.47	40.82	47.45	71.98	66.48	53.78	67.78	190.8	631.1	429.1	41.36	33.41	30.14	26.63	25.63	24.79	23.53	22.30	20.84	20.37	19.81	20.44	20.07	19.22	20.63	19.95	19.99	19.71	18.34	16.94	15.71	14.33	13.26	12.01	10.97	10.06	9.239	8.394	7.846	7.004	6.462	6.140	5.733	5.132	4.777	4.811	5.750	5.308	3.810	2.643	2.388	2.053	1.955	1.945	1.810	1.661	1.471	1.419	1.603	2.043	7.829	39.26	116.5	274.6	693.5	192.4	6.373	0.537	0.325	0.275	0.284	0.223	0.227	0.210
560.0	15.65	25.28	28.86	32.36	35.59	38.22	55.36	66.30	51.41	50.37	78.94	387.7	689.1	80.47	29.49	26.71	23.54	22.23	21.11	19.36	18.99	17.91	16.98	17.42	16.96	17.56	16.71	17.12	17.54	17.22	17.30	15.99	14.76	13.10	12.10	11.38	10.33	9.342	8.732	8.015	7.379	6.870	6.250	5.739	5.195	4.987	4.538	4.221	3.957	4.455	5.092	4.144	2.722	2.264	1.999	2.013	1.791	1.569	1.426	1.379	1.196	1.244	1.214	2.404	9.402	26.73	65.29	367.6	740.0	135.2	1.879	0.406	0.270	0.300	0.240	0.246	0.181
565.0	17.62	18.63	28.65	27.90	33.09	32.14	42.39	61.14	50.30	43.25	46.83	171.9	666.5	278.6	25.64	22.00	19.90	18.71	17.55	16.47	16.06	15.15	14.63	14.81	14.73	14.29	14.05	14.81	14.85	14.65	14.56	13.56	12.55	11.66	10.68	9.721	8.924	8.245	7.503	7.020	6.317	6.030	5.452	5.055	4.567	4.302	3.864	3.648	3.207	3.409	4.037	4.312	2.885	2.041	1.807	1.651	1.539	1.360	1.240	1.201	1.052	0.985	0.944	1.121	2.657	6.686	15.34	92.55	499.8	542.8	24.63	0.790	0.305	0.224	0.223	0.184	0.187
570.0	15.33	18.19	22.62	23.44	26.49	26.11	31.10	43.89	50.81	34.96	35.04	64.79	344.2	551.3	70.25	18.00	16.21	14.80	13.83	13.25	12.88	12.14	11.98	11.80	11.50	11.34	11.17	11.60	11.62	11.33	11.32	10.80	9.947	9.125	8.431	7.699	7.060	6.447	5.961	5.804	5.022	4.861	4.397	4.039	3.786	3.611	3.231	2.943	2.638	2.469	2.804	3.406	2.944	2.059	1.579	1.438	1.351	1.190	1.106	1.011	1.020	0.874	0.763	0.796	1.119	2.001	3.979	21.30	125.8	324.5	303.9	106.7	5.304	0.304	0.233	0.178	0.183
575.0	18.26	16.77	22.54	19.60	19.83	20.55	24.54	29.42	45.71	37.03	30.14	35.00	108.0	433.0	379.1	17.71	12.43	11.40	10.37	10.38	9.484	9.548	8.862	8.916	8.478	8.613	8.485	8.541	8.702	8.797	8.418	8.118	7.532	6.778	6.238	6.263	5.209	4.716	4.809	4.501	4.015	3.691	3.432	3.106	2.963	2.756	2.543	2.139	2.051	1.978	1.846	2.248	2.500	2.099	1.591	1.114	1.027	0.938	0.921	0.854	0.856	0.787	0.737	0.668	0.693	0.914	1.348	5.248	28.41	73.28	144.1	398.4	150.1	4.001	0.258	0.179	0.203
580.0	12.33	15.00	16.67	16.02	16.14	18.09	20.08	22.65	38.00	42.11	25.82	27.12	41.27	227.6	560.3	65.63	10.31	9.013	9.036	8.820	7.683	7.836	7.775	7.486	6.733	7.207	7.106	7.050	6.974	7.216	6.816	6.322	6.314	5.622	4.956	4.662	4.422	4.008	3.723	3.715	3.344	3.051	2.820	2.637	2.453	2.318	2.056	1.865	1.685	1.586	1.450	1.498	1.934	2.005	1.532	1.168	0.863	0.758	0.774	0.743	0.662	0.705	0.703	0.619	0.566	0.588	0.834	1.496	6.705	16.70	34.46	201.9	374.5	28.30	1.017	0.204	0.164
585.0	13.40	13.72	15.82	13.61	13.64	16.67	16.37	19.84	29.64	42.33	27.48	22.79	25.77	92.33	472.6	261.8	9.281	7.769	7.272	6.702	6.473	6.046	6.216	6.007	5.866	5.801	5.879	5.628	5.944	5.648	5.564	5.406	5.192	4.513	4.313	3.996	3.555	3.526	3.239	3.002	2.565	2.757	2.300	2.184	2.252	2.018	1.803	1.599	1.500	1.297	1.249	1.274	1.278	1.674	1.627	1.159	0.784	0.721	0.634	0.632	0.498	0.617	0.702	0.691	0.523	0.434	0.577	0.709	1.851	3.986	8.015	50.79	244.6	307.1	22.00	0.408	0.156
590.0	8.859	13.47	14.08	13.22	12.80	13.85	13.62	16.18	21.70	36.62	36.04	23.15	20.99	33.20	212.4	438.4	52.15	6.753	6.126	5.417	5.064	5.103	4.973	4.767	4.730	4.666	4.639	4.499	4.627	4.479	4.426	4.214	4.031	3.534	3.336	3.182	2.904	2.779	2.554	2.411	2.105	2.120	1.942	1.741	1.809	1.738	1.484	1.316	1.232	1.102	1.038	0.989	0.941	1.104	1.360	1.255	0.931	0.600	0.608	0.541	0.506	0.510	0.520	0.514	0.495	0.418	0.415	0.445	0.684	1.141	2.068	11.58	60.98	185.3	207.3	79.69	3.369
595.0	8.483	12.13	12.90	12.91	11.41	11.95	12.33	14.35	17.81	27.32	39.98	25.65	19.34	19.36	60.84	290.9	316.5	10.53	4.985	4.258	4.058	4.058	3.883	3.737	3.634	3.619	3.426	3.831	3.343	3.578	3.430	3.345	2.920	2.808	2.648	2.548	2.256	2.200	1.998	1.891	1.721	1.683	1.457	1.454	1.403	1.419	1.163	1.040	1.086	0.841	0.790	0.809	0.716	0.736	0.874	1.219	1.011	0.720	0.547	0.425	0.436	0.414	0.393	0.396	0.436	0.478	0.368	0.312	0.416	0.447	0.669	2.777	13.76	41.79	85.84	220.1	30.42
600.0	7.924	13.64	13.96	10.45	9.601	10.15	11.01	14.35	16.99	22.67	37.92	32.88	21.24	16.13	22.27	136.3	427.6	55.03	4.365	3.779	3.602	3.379	3.374	2.952	3.195	2.977	2.835	2.972	2.880	2.919	2.838	2.710	2.438	2.367	2.186	2.125	1.873	1.994	1.661	1.549	1.521	1.302	1.161	1.199	1.177	1.070	0.976	0.902	0.855	0.768	0.672	0.698	0.602	0.523	0.595	0.970	0.936	0.747	0.495	0.403	0.345	0.363	0.332	0.402	0.328	0.442	0.422	0.354	0.328	0.302	0.352	0.851	3.250	9.475	20.26	108.1	188.0
605.0	7.732	13.33	14.26	10.96	10.31	10.95	12.97	15.08	18.50	23.68	36.64	41.36	25.31	18.53	16.74	52.04	333.0	232.2	4.527	3.089	3.028	3.020	3.002	2.654	2.565	2.689	2.499	2.636	2.529	2.440	2.264	2.377	2.138	1.931	1.877	1.796	1.522	1.540	1.336	1.301	1.313	1.105	1.057	0.969	0.998	0.972	0.817	0.813	0.712	0.651	0.571	0.594	0.549	0.505	0.518	0.652	0.855	0.868	0.478	0.357	0.338	0.352	0.326	0.351	0.341	0.356	0.411	0.375	0.296	0.269	0.276	0.395	0.863	2.242	4.699	26.79	124.6
610.0	7.631	12.12	12.94	10.15	10.46	11.23	14.04	17.28	21.51	26.61	35.10	44.69	33.59	21.79	17.99	22.49	140.8	356.4	80.73	2.928	2.548	2.441	2.398	2.205	2.071	2.089	2.008	2.101	2.025	2.040	1.937	1.944	1.831	1.653	1.565	1.479	1.406	1.221	1.180	1.037	1.040	0.877	0.834	0.827	0.808	0.791	0.669	0.672	0.607	0.561	0.517	0.495	0.432	0.382	0.393	0.442	0.600	0.810	0.590	0.429	0.325	0.367	0.281	0.363	0.319	0.356	0.347	0.391	0.312	0.246	0.268	0.263	0.370	0.616	1.193	6.119	30.95
615.0	7.923	11.44	13.81	10.10	10.58	12.37	11.85	15.79	20.55	24.61	30.33	38.68	38.54	23.50	16.45	15.13	42.73	210.3	296.3	8.636	2.219	2.082	1.941	1.760	1.733	1.748	1.569	1.635	1.777	1.659	1.464	1.463	1.395	1.248	1.249	1.150	1.097	0.962	0.943	0.886	0.703	0.709	0.651	0.646	0.565	0.620	0.588	0.546	0.459	0.475	0.419	0.389	0.372	0.296	0.314	0.369	0.391	0.549	0.534	0.523	0.346	0.305	0.268	0.253	0.290	0.326	0.282	0.323	0.355	0.269	0.241	0.203	0.220	0.268	0.386	1.487	7.024
620.0	8.714	13.20	13.24	10.02	10.87	11.43	14.08	14.33	19.82	22.71	28.43	33.43	39.35	26.32	17.63	13.61	18.61	90.39	363.3	52.67	2.034	1.683	1.466	1.531	1.390	1.400	1.222	1.320	1.420	1.253	1.335	1.188	1.068	1.146	0.974	0.983	0.831	0.757	0.803	0.712	0.701	0.640	0.595	0.579	0.539	0.506	0.525	0.480	0.464	0.408	0.384	0.367	0.275	0.276	0.254	0.308	0.327	0.354	0.410	0.537	0.348	0.333	0.283	0.227	0.248	0.285	0.232	0.271	0.307	0.252	0.202	0.170	0.162	0.177	0.192	0.431	1.669
625.0	8.044	14.43	11.44	11.19	11.49	12.30	13.26	14.88	19.11	22.45	26.71	30.65	35.93	27.68	17.71	12.75	12.38	33.65	257.7	223.5	2.710	1.519	1.413	1.424	1.232	1.186	1.206	1.127	1.310	1.049	0.983	1.091	1.036	0.984	0.800	0.807	0.677	0.686	0.615	0.611	0.569	0.540	0.508	0.490	0.480	0.402	0.435	0.444	0.422	0.385	0.337	0.326	0.212	0.296	0.289	0.271	0.262	0.286	0.341	0.462	0.330	0.265	0.208	0.221	0.249	0.251	0.222	0.265	0.356	0.254	0.228	0.205	0.172	0.164	0.139	0.205	0.469
630.0	9.286	12.27	13.13	11.59	8.894	10.59	13.22	14.47	17.50	21.60	25.85	28.34	30.83	31.28	19.76	13.30	11.73	14.46	95.60	306.4	74.20	1.425	1.330	1.267	1.137	1.148	1.050	0.931	1.039	0.939	0.817	0.864	0.829	0.777	0.740	0.666	0.588	0.623	0.552	0.426	0.400	0.466	0.408	0.371	0.406	0.363	0.366	0.365	0.342	0.316	0.277	0.246	0.216	0.255	0.203	0.229	0.208	0.238	0.235	0.362	0.333	0.254	0.222	0.197	0.212	0.221	0.206	0.215	0.240	0.242	0.251	0.231	0.131	0.129	0.127	0.146	0.220
635.0	8.887	13.65	13.82	10.30	9.061	8.546	11.02	14.32	16.67	22.15	25.39	27.10	27.26	29.63	23.01	13.94	11.78	10.41	24.96	156.3	260.4	6.508	1.163	1.012	1.027	0.882	0.849	0.776	0.800	0.756	0.731	0.700	0.700	0.604	0.578	0.562	0.514	0.456	0.420	0.396	0.371	0.388	0.329	0.338	0.320	0.330	0.356	0.285	0.278	0.317	0.242	0.237	0.193	0.211	0.159	0.194	0.193	0.153	0.202	0.174	0.279	0.296	0.297	0.188	0.183	0.199	0.172	0.213	0.226	0.225	0.209	0.219	0.236	0.143	0.130	0.136	0.149
640.0	10.11	15.17	14.16	10.25	9.381	9.792	12.27	14.86	16.82	21.13	24.27	25.82	26.02	26.15	26.28	14.16	12.14	9.131	8.441	58.25	308.6	45.54	1.234	0.989	0.753	0.681	0.643	0.721	0.689	0.710	0.664	0.661	0.588	0.527	0.501	0.468	0.449	0.402	0.440	0.401	0.367	0.340	0.264	0.292	0.253	0.260	0.267	0.256	0.213	0.264	0.250	0.217	0.158	0.158	0.149	0.164	0.184	0.166	0.185	0.136	0.245	0.351	0.221	0.208	0.193	0.166	0.192	0.173	0.214	0.180	0.181	0.173	0.181	0.171	0.127	0.082	0.111
645.0	9.375	17.78	17.94	10.82	9.921	9.708	12.45	13.48	16.62	20.13	22.37	26.50	26.21	24.38	26.15	15.48	11.51	8.002	4.672	17.84	206.4	191.4	2.239	0.890	0.771	0.696	0.689	0.573	0.757	0.538	0.576	0.564	0.472	0.423	0.442	0.427	0.416	0.373	0.345	0.326	0.305	0.266	0.302	0.257	0.251	0.257	0.259	0.244	0.283	0.238	0.207	0.191	0.134	0.156	0.160	0.146	0.150	0.153	0.194	0.160	0.193	0.233	0.231	0.206	0.188	0.180	0.176	0.179	0.184	0.181	0.120	0.170	0.209	0.142	0.116	0.069	0.127
650.0	11.17	19.32	19.20	14.46	9.747	9.580	12.30	13.83	15.81	19.56	22.72	25.58	25.24	21.99	24.79	17.89	11.46	7.898	3.974	6.071	89.56	287.5	25.82	0.799	0.693	0.679	0.570	0.550	0.626	0.546	0.539	0.466	0.439	0.448	0.324	0.324	0.357	0.313	0.328	0.328	0.314	0.235	0.238	0.243	0.209	0.239	0.238	0.220	0.251	0.198	0.200	0.192	0.145	0.143	0.165	0.134	0.168	0.127	0.178	0.144	0.167	0.218	0.242	0.198	0.223	0.151	0.162	0.167	0.157	0.157	0.152	0.156	0.187	0.185	0.109	0.081	0.109
