Sample:	'1
File name:	t2025042301反帝沟入小清河.FD3
Run date:	'10:17:59, 04/24/2025
Operator:	Administrator
Comment:	'

Instrument
Model:	F-2700 FL Spectrophotometer
Serial number:	23B8-004
ROM Version:	4J14000 07

Instrument parameters
Measurement type:	3-D scan
Data mode:	Fluorescence
EX  Start WL:	220.0 nm
EX  End WL:	600.0 nm
EX Sampling interval:	5.0 nm
EM  Start WL:	230.0 nm
EM  End WL:	650.0 nm
EM Sampling interval:	5.0 nm
Scan speed:	12000 nm/min
EX Slit:	5.0 nm
EM Slit:	5.0 nm
PMT Voltage:	700 V
Response:	Auto 
Corrected spectra:	Off
Contour interval:	50.000

Peak integration
Integration method:	Rectangular
Sensitivity:	1
Threshold:	1.000

Peaks
No.	ApexEX/EM(nm)	Height(Data)
1	225.0/575.0	52.95
2	225.0/600.0	46.58
3	230.0/345.0	1128
4	230.0/565.0	58.83
5	230.0/585.0	54.64
6	230.0/605.0	45.93
7	235.0/365.0	1009
8	235.0/505.0	272.2
9	240.0/265.0	346.3
10	240.0/385.0	889.6
11	240.0/520.0	241.9
12	245.0/535.0	201.9
13	250.0/545.0	166.5
14	255.0/280.0	560.7
15	255.0/560.0	143.0
16	260.0/570.0	114.7
17	265.0/585.0	109.7
18	270.0/300.0	1020
19	270.0/595.0	97.13
20	275.0/305.0	1176
21	275.0/340.0	937.6
22	275.0/610.0	86.57
23	280.0/310.0	1055
24	280.0/625.0	74.98
25	285.0/315.0	992.2
26	285.0/635.0	55.92
27	290.0/325.0	911.9
28	305.0/345.0	572.2
29	315.0/355.0	462.3
30	320.0/360.0	438.5
31	330.0/375.0	403.1
32	335.0/380.0	397.1
33	430.0/505.0	32.24
34	445.0/525.0	19.13
35	465.0/340.0	3.363
36	485.0/265.0	2.125
37	505.0/275.0	3.215
38	510.0/280.0	3.410
39	520.0/285.0	3.769
40	530.0/290.0	3.569
41	535.0/270.0	45.03
42	540.0/295.0	5.152
43	545.0/300.0	5.849
44	555.0/305.0	5.815
45	560.0/310.0	5.548
46	570.0/315.0	5.587
47	580.0/320.0	5.786
48	585.0/325.0	5.712

Data points
	220.0	225.0	230.0	235.0	240.0	245.0	250.0	255.0	260.0	265.0	270.0	275.0	280.0	285.0	290.0	295.0	300.0	305.0	310.0	315.0	320.0	325.0	330.0	335.0	340.0	345.0	350.0	355.0	360.0	365.0	370.0	375.0	380.0	385.0	390.0	395.0	400.0	405.0	410.0	415.0	420.0	425.0	430.0	435.0	440.0	445.0	450.0	455.0	460.0	465.0	470.0	475.0	480.0	485.0	490.0	495.0	500.0	505.0	510.0	515.0	520.0	525.0	530.0	535.0	540.0	545.0	550.0	555.0	560.0	565.0	570.0	575.0	580.0	585.0	590.0	595.0	600.0
230.0	28.39	672.6	1820	583.4	27.71	4.577	3.437	3.149	3.124	2.851	2.899	2.625	2.099	1.931	1.881	1.393	1.223	1.031	0.964	0.915	0.747	0.671	0.678	0.559	0.554	0.551	0.487	0.478	0.490	0.399	0.416	0.319	0.392	0.329	0.360	0.324	0.314	0.264	0.252	0.264	0.277	0.312	0.309	0.274	0.248	0.214	1.010	4.196	7.149	4.887	1.728	0.368	0.174	0.162	0.148	0.165	0.185	0.152	0.138	0.121	0.148	0.146	0.130	0.150	0.151	0.142	0.150	0.156	0.138	0.136	0.131	0.148	0.159	0.143	0.132	0.120	0.148
235.0	56.49	194.4	1318	2492	523.7	49.10	5.524	4.251	3.452	3.524	3.249	2.751	2.505	2.106	2.259	1.554	1.383	1.127	1.099	1.062	0.892	0.777	0.831	0.613	0.649	0.524	0.551	0.456	0.424	0.500	0.431	0.390	0.321	0.301	0.339	0.318	0.311	0.293	0.266	0.277	0.224	0.279	0.324	0.428	0.333	0.198	0.448	1.219	3.074	6.190	9.037	9.050	3.836	0.766	0.160	0.193	0.163	0.186	0.145	0.115	0.143	0.132	0.167	0.165	0.170	0.165	0.120	0.132	0.155	0.128	0.116	0.116	0.133	0.138	0.130	0.117	0.129
240.0	87.17	101.0	418.3	2286	3083	422.2	22.71	6.831	4.015	4.012	3.604	3.084	2.374	2.285	1.792	1.682	1.376	1.278	0.962	0.884	0.867	0.684	0.693	0.650	0.616	0.635	0.681	0.544	0.477	0.417	0.459	0.406	0.360	0.349	0.288	0.283	0.301	0.331	0.293	0.246	0.247	0.272	0.277	0.365	0.370	0.440	0.300	0.499	0.863	1.943	5.714	13.49	16.46	9.895	3.142	0.406	0.174	0.174	0.158	0.148	0.151	0.137	0.160	0.157	0.161	0.152	0.151	0.140	0.157	0.128	0.141	0.140	0.139	0.162	0.167	0.142	0.129
245.0	68.97	135.5	145.1	811.1	3527	3075	307.4	11.96	5.581	4.583	3.853	3.369	3.046	2.401	1.832	1.718	1.408	1.323	1.078	0.895	0.868	0.764	0.753	0.805	0.548	0.642	0.605	0.506	0.536	0.387	0.545	0.407	0.387	0.297	0.268	0.341	0.273	0.252	0.279	0.325	0.245	0.257	0.264	0.301	0.338	0.547	0.588	0.530	0.416	0.585	1.499	4.887	13.12	20.84	18.36	8.594	1.956	0.263	0.197	0.182	0.156	0.163	0.145	0.130	0.156	0.134	0.139	0.140	0.173	0.121	0.142	0.123	0.146	0.145	0.145	0.158	0.138
250.0	29.92	99.70	192.3	265.6	1136	3290	3999	1160	69.09	6.539	5.759	4.634	3.768	2.539	2.084	1.980	1.631	1.428	1.283	1.057	0.965	0.833	0.851	0.837	0.647	0.711	0.583	0.548	0.502	0.514	0.493	0.407	0.392	0.364	0.336	0.304	0.300	0.301	0.277	0.312	0.305	0.287	0.246	0.313	0.289	0.299	0.393	0.658	0.773	0.738	0.657	1.346	3.352	7.262	13.26	19.60	24.31	17.43	8.977	1.925	0.284	0.221	0.160	0.180	0.155	0.143	0.155	0.148	0.161	0.139	0.155	0.169	0.146	0.170	0.152	0.158	0.153
255.0	27.37	37.76	146.7	302.6	343.9	837.9	3385	6475	1609	69.02	9.040	6.438	5.810	3.543	2.580	2.170	1.899	1.705	1.163	1.331	1.106	0.975	0.799	0.765	0.888	0.756	0.572	0.487	0.638	0.545	0.491	0.371	0.447	0.412	0.275	0.364	0.303	0.289	0.341	0.332	0.234	0.316	0.249	0.353	0.291	0.232	0.258	0.344	0.550	0.799	1.189	1.178	1.109	1.802	3.167	4.893	10.46	24.24	39.16	26.98	13.40	2.116	0.255	0.213	0.203	0.160	0.169	0.166	0.189	0.165	0.236	0.177	0.174	0.163	0.239	0.158	0.172
260.0	22.58	21.53	61.75	257.1	314.0	242.1	1022	5452	7218	1201	31.51	8.406	6.679	4.043	3.317	2.684	1.968	1.872	1.436	1.415	1.195	1.152	0.899	0.824	0.921	0.656	0.564	0.717	0.649	0.644	0.492	0.454	0.559	0.356	0.411	0.406	0.316	0.306	0.366	0.269	0.268	0.324	0.320	0.285	0.258	0.220	0.246	0.298	0.328	0.409	0.836	1.625	1.580	1.000	0.998	1.352	2.645	6.850	19.25	38.40	49.15	24.41	9.896	0.911	0.254	0.263	0.186	0.207	0.219	0.169	0.178	0.149	0.196	0.147	0.192	0.145	0.158
265.0	30.78	20.37	26.79	111.2	346.3	242.1	266.8	1826	7768	7168	208.1	14.89	8.237	5.199	4.021	2.808	2.255	1.905	1.637	1.516	1.316	1.256	0.980	0.783	0.804	0.719	0.652	0.690	0.837	0.653	0.453	0.549	0.534	0.475	0.431	0.427	0.334	0.350	0.333	0.332	0.279	0.338	0.273	0.292	0.312	0.257	0.279	0.214	0.240	0.260	0.395	0.880	1.873	2.125	1.303	0.700	0.862	1.801	4.752	12.41	31.15	52.35	56.61	20.86	4.595	0.465	0.294	0.246	0.204	0.230	0.228	0.253	0.201	0.156	0.177	0.173	0.167
270.0	39.42	38.86	33.96	48.38	164.3	353.4	284.2	461.2	2413	7055	8698	2498	52.17	8.620	5.889	3.885	2.924	2.496	2.013	1.762	1.477	1.471	0.971	0.938	0.961	0.868	0.857	0.763	0.771	0.718	0.631	0.572	0.618	0.555	0.483	0.445	0.433	0.361	0.382	0.357	0.330	0.328	0.317	0.341	0.372	0.304	0.261	0.325	0.279	0.278	0.274	0.400	0.767	1.235	1.755	1.972	1.586	1.024	1.341	3.050	7.573	16.05	32.26	45.03	42.28	44.47	14.41	5.083	0.497	0.301	0.263	0.268	0.238	0.211	0.203	0.198	0.232
275.0	91.20	101.1	103.1	62.74	68.93	167.4	456.9	349.6	592.3	1734	6084	9999.9	1160	52.88	9.367	5.748	4.176	3.112	2.324	2.278	1.390	1.559	1.159	1.145	1.024	1.060	0.901	0.850	0.809	0.834	0.699	0.594	0.785	0.669	0.543	0.524	0.457	0.433	0.497	0.440	0.445	0.370	0.391	0.494	0.492	0.433	0.530	0.535	0.483	0.369	0.327	0.409	0.436	0.605	0.658	1.204	2.409	3.215	2.067	1.390	2.084	3.934	7.635	10.76	15.02	39.96	72.14	73.66	22.81	5.102	0.486	0.327	0.292	0.247	0.236	0.252	0.201
280.0	153.3	198.5	176.9	105.3	61.58	78.34	289.0	560.7	304.7	462.5	1703	9262	9899	858.6	24.35	7.992	5.831	3.327	3.108	2.826	1.956	1.624	1.313	1.177	1.086	1.054	1.090	0.896	0.849	0.794	0.806	0.612	0.681	0.707	0.591	0.638	0.507	0.547	0.534	0.452	0.520	0.385	0.455	0.492	0.529	0.628	0.706	0.798	0.642	0.519	0.416	0.463	0.365	0.383	0.496	0.602	1.098	2.306	3.410	2.829	1.509	1.356	2.244	2.927	3.893	10.36	26.80	60.59	87.59	32.46	17.91	2.287	0.378	0.276	0.311	0.241	0.215
285.0	202.3	277.6	268.4	165.7	84.91	66.82	138.3	484.4	530.0	246.4	497.5	2830	9999.9	8024	119.0	12.92	7.503	4.986	3.535	3.092	2.264	1.860	1.540	1.326	1.368	1.188	1.158	0.915	0.868	0.831	0.777	0.674	0.807	0.730	0.877	0.682	0.693	0.628	0.635	0.542	0.501	0.389	0.543	0.665	0.614	0.814	1.006	1.023	0.930	0.726	0.681	0.497	0.474	0.418	0.395	0.527	0.569	0.985	2.029	3.533	3.769	2.032	1.192	1.235	1.649	2.981	6.663	16.25	39.71	66.76	86.41	29.81	13.57	0.957	0.396	0.304	0.276
290.0	256.5	392.4	362.8	236.2	120.2	88.13	113.2	238.0	550.3	602.3	367.9	833.3	3035	8781	9210	1986	32.30	7.521	5.189	4.091	2.907	2.133	1.881	1.636	1.466	1.319	1.189	1.003	0.963	0.882	0.832	0.755	0.865	0.776	0.904	0.824	0.719	0.680	0.608	0.589	0.580	0.540	0.607	0.690	0.790	0.961	1.130	1.181	1.266	1.132	0.807	0.737	0.634	0.540	0.555	0.611	0.627	0.741	1.061	1.669	2.601	3.216	3.569	2.736	1.931	1.780	2.548	4.597	9.966	18.11	34.87	49.02	73.07	55.26	19.96	10.00	1.541
295.0	297.0	441.5	468.0	305.7	164.4	122.9	143.0	199.0	323.5	692.3	810.9	527.0	929.3	2200	6065	9999.9	678.6	31.06	7.351	5.667	3.864	3.003	2.056	1.947	1.695	1.604	1.238	1.182	0.951	1.028	0.869	0.782	0.843	0.848	0.807	0.797	0.787	0.957	0.728	0.593	0.604	0.604	0.645	0.691	0.878	1.089	1.296	1.416	1.365	1.310	0.992	0.890	0.877	0.719	0.754	0.677	0.707	0.802	1.049	1.381	1.467	1.751	2.604	4.063	5.152	3.427	2.298	2.634	3.686	5.368	8.959	12.10	18.82	30.09	62.75	89.28	32.47
300.0	322.7	502.2	524.3	355.1	217.3	166.0	183.1	233.2	299.7	510.0	1020	772.7	550.3	721.3	1678	7926	9999.9	520.5	15.86	7.506	4.575	3.360	2.656	2.283	2.077	1.662	1.296	1.147	1.152	1.096	0.992	0.949	0.997	0.872	1.026	0.874	0.886	0.911	0.763	0.584	0.650	0.576	0.628	0.780	0.946	1.207	1.265	1.613	1.526	1.414	1.197	1.038	0.921	0.887	0.868	0.880	0.976	1.032	1.254	1.234	1.446	1.541	2.009	2.838	4.645	5.849	4.797	3.062	2.855	3.042	3.474	3.914	5.352	7.861	18.75	47.62	80.26
305.0	327.9	502.7	531.5	400.6	249.8	203.2	239.7	285.0	351.6	483.7	835.2	1176	652.9	474.9	564.3	2335	9809	5084	74.21	12.08	6.037	4.399	3.363	2.449	2.197	1.744	1.445	1.390	1.317	0.995	0.998	1.027	1.011	0.843	1.069	0.928	0.900	0.826	0.822	0.806	0.724	0.706	0.625	0.800	0.956	1.251	1.374	1.790	1.768	1.557	1.168	1.364	1.166	1.058	1.090	0.961	1.203	1.315	1.344	1.638	1.725	1.880	2.125	2.634	3.285	4.668	5.688	5.815	3.993	3.063	2.603	2.497	2.641	2.897	5.134	12.03	26.79
310.0	351.0	508.7	541.8	420.0	284.6	252.0	285.9	338.1	416.9	531.3	713.3	1019	1055	620.4	388.1	664.9	2789	6368	6666	1665	23.68	6.210	4.433	3.047	2.643	1.982	1.717	1.473	1.354	1.234	1.101	1.055	1.074	0.993	1.020	1.006	0.925	0.904	0.805	0.795	0.761	0.806	0.680	0.782	0.969	1.219	1.305	1.711	1.703	1.621	1.357	1.435	1.232	1.218	1.127	1.199	1.425	1.604	1.687	1.834	2.054	2.194	2.359	2.878	3.136	3.589	4.244	5.007	5.548	5.241	4.283	3.091	2.369	2.279	2.408	3.606	6.825
315.0	347.2	502.6	568.9	442.9	318.6	297.5	334.3	387.5	476.5	584.9	717.8	851.3	959.4	992.2	495.2	340.6	745.5	1543	4432	9999.9	502.4	25.20	6.339	4.045	3.532	2.482	1.923	1.663	1.514	1.364	1.159	1.099	1.157	1.118	1.131	1.046	0.866	0.918	0.715	0.782	0.810	0.771	0.854	0.789	1.006	1.155	1.449	1.875	1.774	1.704	1.483	1.479	1.353	1.273	1.320	1.360	1.452	1.670	1.892	1.822	2.304	2.540	2.678	3.056	3.074	3.358	3.771	3.949	4.380	4.599	5.587	5.552	4.030	2.616	2.242	2.020	2.581
320.0	378.9	550.6	640.6	501.1	363.7	337.0	364.3	422.9	513.8	628.5	751.6	854.4	859.3	987.2	774.1	352.1	338.9	458.1	1181	7341	8139	421.6	13.83	5.187	4.342	2.909	2.361	1.969	1.629	1.578	1.229	1.185	1.252	1.134	1.137	1.088	0.900	0.913	0.904	0.830	0.748	0.809	0.874	0.938	1.068	1.303	1.519	1.820	2.034	1.902	1.635	1.594	1.564	1.426	1.528	1.599	1.584	1.826	1.882	1.993	2.376	2.555	2.740	2.871	3.332	3.636	3.775	4.297	4.121	3.965	4.667	5.472	5.786	4.566	2.972	2.031	1.963
325.0	415.3	644.7	791.2	608.5	421.1	367.8	399.9	460.2	557.3	661.3	791.9	885.2	869.2	859.6	911.9	534.1	287.0	247.1	357.8	2069	7381	3917	59.66	8.790	5.135	3.626	2.835	2.025	1.780	1.673	1.590	1.294	1.247	1.019	1.095	1.015	0.982	0.924	0.914	0.757	0.746	0.989	0.810	0.904	1.274	1.447	1.673	2.067	2.400	2.284	1.862	1.833	1.679	1.656	1.644	1.651	1.618	2.154	2.169	2.163	2.378	2.523	2.877	3.110	3.612	3.922	3.791	4.360	4.269	4.003	4.207	4.196	5.013	5.712	4.897	3.078	2.412
330.0	452.8	749.0	942.8	792.8	520.2	430.4	441.2	499.7	585.6	702.3	824.7	917.7	897.9	829.9	772.5	717.6	457.2	250.1	206.6	552.5	2062	4751	5413	1342	21.20	5.129	3.616	2.719	2.160	1.919	1.716	1.494	1.287	1.168	1.126	1.050	0.937	0.882	0.837	0.833	0.786	0.868	0.860	1.016	1.233	1.439	2.043	2.537	2.897	2.668	2.384	2.213	2.127	1.801	1.904	1.829	1.902	2.142	2.364	2.306	2.593	2.807	3.188	3.484	3.751	4.079	4.042	4.274	4.393	4.397	4.366	4.060	4.252	4.565	4.497	4.567	4.099
335.0	455.7	804.1	1064	895.6	622.5	493.6	485.1	526.6	616.8	723.5	847.5	936.8	932.3	850.9	737.1	638.6	658.8	400.6	216.0	248.6	537.2	1139	3556	7564	1904	23.71	4.878	3.812	2.746	2.211	2.064	1.705	1.478	1.227	1.180	1.078	1.091	0.954	0.816	0.975	0.786	0.819	0.964	0.981	1.231	1.718	2.032	2.677	2.935	3.101	2.605	2.743	2.375	2.240	1.988	1.982	2.316	2.367	2.432	2.451	2.796	3.000	3.217	3.660	3.702	4.148	4.210	4.103	4.579	4.272	4.593	4.161	4.257	4.257	3.990	3.713	4.096
340.0	460.2	822.6	1105	976.8	687.2	546.4	519.9	536.4	631.5	734.2	849.7	937.6	937.0	864.5	746.4	605.4	600.7	571.2	288.2	201.2	219.4	318.1	933.0	5015	7299	377.8	13.41	4.691	3.283	2.738	2.376	1.889	1.602	1.360	1.156	1.178	1.009	0.908	0.883	0.894	0.835	0.856	0.991	0.993	1.407	1.753	2.254	2.718	3.156	3.363	2.843	3.015	2.679	2.357	2.322	2.131	2.280	2.380	2.473	2.704	2.813	3.067	3.417	3.641	3.636	4.172	4.039	4.369	4.564	4.389	4.594	4.428	4.343	4.071	3.920	3.569	3.610
345.0	470.8	817.1	1128	1026	731.8	585.8	550.3	557.9	625.1	731.5	835.9	931.0	919.7	868.8	744.8	605.3	530.3	572.2	428.7	229.0	167.2	153.3	265.6	1392	6236	5665	52.81	7.596	4.187	3.206	2.482	1.872	1.724	1.345	1.108	1.085	0.917	1.012	0.809	0.848	0.868	0.914	0.977	1.044	1.323	1.696	2.016	2.853	3.186	3.317	3.064	3.260	2.863	2.575	2.443	2.358	2.437	2.475	2.373	2.741	2.822	3.125	3.193	3.533	3.622	3.939	3.937	4.025	4.369	4.666	4.735	4.469	4.333	4.124	3.683	3.570	3.295
350.0	427.8	779.3	1064	1016	793.3	648.6	580.8	585.1	638.4	726.7	815.7	890.3	889.6	843.2	739.7	616.1	522.0	480.6	489.1	366.4	206.7	147.8	142.4	369.6	1734	4369	4432	1236	20.12	4.336	3.213	2.267	2.000	1.520	1.217	1.161	1.003	0.962	0.841	0.834	0.806	0.954	0.945	1.085	1.172	1.627	1.966	2.595	3.113	3.134	2.938	3.203	2.957	2.864	2.549	2.390	2.571	2.409	2.511	2.782	2.779	3.161	3.248	3.448	3.793	3.867	3.993	3.915	4.252	4.212	4.294	4.104	4.211	4.242	3.765	3.717	3.445
355.0	408.4	714.8	995.2	1007	839.8	698.6	635.6	626.9	667.4	732.5	795.6	859.0	861.4	823.4	741.5	635.2	543.5	469.9	430.7	462.3	337.2	191.9	146.5	167.1	443.8	1034	2763	6246	1808	25.18	4.576	3.027	2.475	1.794	1.429	1.298	1.125	1.001	1.038	0.797	0.867	0.970	0.876	1.008	1.233	1.680	1.781	2.402	2.876	2.834	2.857	3.206	3.104	3.068	2.809	2.605	2.725	2.811	2.865	2.815	2.855	3.284	3.275	3.364	3.725	3.537	3.997	4.064	4.103	4.321	4.408	4.201	4.274	3.987	3.993	3.796	3.690
360.0	407.2	683.5	951.1	979.9	857.4	748.2	681.7	658.7	692.2	739.1	792.0	841.2	838.6	805.3	732.6	641.0	560.8	485.5	424.1	426.5	438.5	268.5	175.0	143.0	174.9	279.7	719.4	4019	6140	367.8	14.71	3.886	3.078	2.302	1.486	1.317	1.190	1.258	1.009	0.868	0.840	0.814	0.926	0.928	1.278	1.649	1.786	2.272	2.635	2.845	2.936	3.292	3.339	3.085	2.905	2.813	2.875	2.812	2.936	3.105	3.192	3.118	3.330	3.451	3.713	3.892	3.755	4.116	4.168	4.029	4.128	4.182	4.218	4.157	3.815	3.792	3.652
365.0	384.8	649.7	919.6	1009	872.2	778.8	710.2	679.9	702.4	737.2	793.1	833.6	821.0	795.5	728.7	650.2	574.8	510.0	443.2	405.4	432.0	379.9	225.0	163.1	134.9	128.6	205.9	1113	5046	5316	294.4	6.852	4.016	2.405	1.777	1.467	1.277	1.246	1.136	0.931	0.875	0.800	0.933	1.101	1.246	1.426	1.866	2.206	2.586	2.706	2.877	3.388	3.213	2.963	3.085	2.902	2.842	2.942	3.013	3.057	3.277	3.185	3.697	3.526	3.492	3.781	3.696	3.852	4.052	4.139	3.919	4.069	4.042	4.049	3.955	3.915	3.792
370.0	370.2	641.5	866.9	950.5	884.5	794.1	743.7	724.2	727.4	754.6	791.9	807.7	801.9	774.3	721.2	650.8	589.4	538.3	473.9	425.0	401.3	413.5	346.4	220.8	158.9	122.4	113.3	296.3	1380	4035	4175	1171	19.02	3.751	2.490	1.794	1.442	1.392	1.180	1.012	0.901	0.875	0.947	1.042	1.167	1.406	1.731	2.272	2.557	2.398	2.674	3.273	3.462	3.157	3.068	3.160	2.984	3.107	3.217	3.347	3.209	3.225	3.553	3.568	3.623	3.525	3.689	3.699	3.884	3.819	3.911	4.033	3.919	3.919	4.124	3.916	4.024
375.0	357.0	600.8	827.2	924.3	888.1	829.3	766.3	746.0	751.6	766.1	786.6	792.7	776.2	754.9	707.7	648.0	600.5	551.3	507.1	459.7	410.1	386.7	403.1	337.0	208.5	151.5	118.1	133.5	351.6	951.2	2517	5549	1744	22.45	3.850	2.391	1.819	1.527	1.261	0.951	0.935	0.973	1.007	0.999	1.129	1.418	1.556	2.050	2.447	2.464	2.542	3.352	3.197	3.270	3.093	3.152	3.085	3.177	3.235	3.311	3.187	3.190	3.565	3.661	3.738	3.469	3.742	3.734	3.631	3.868	3.858	3.842	4.047	3.842	4.126	3.881	4.071
380.0	337.2	586.9	789.2	902.8	884.4	847.9	793.3	763.3	754.6	764.1	772.3	773.1	764.1	739.5	701.4	646.1	602.6	561.3	524.7	475.9	432.5	388.7	379.9	397.1	276.9	180.2	138.1	112.7	137.7	253.4	652.1	3467	5734	312.4	12.53	3.057	2.060	1.681	1.417	1.047	1.015	0.978	0.931	1.001	1.191	1.343	1.690	1.983	2.266	2.265	2.577	3.284	3.223	3.286	3.277	3.371	3.304	3.340	3.334	3.415	3.438	3.456	3.434	3.533	3.563	3.490	3.629	3.285	3.517	3.631	3.987	3.833	3.787	3.723	3.967	4.033	3.954
385.0	348.6	566.9	775.5	878.1	889.6	851.2	794.1	768.7	755.9	758.3	765.2	765.3	755.6	725.9	686.9	641.4	603.8	564.0	533.5	491.7	447.7	403.1	370.7	384.8	355.0	229.4	163.1	126.4	104.2	109.7	184.0	945.5	4575	4184	246.0	6.238	2.576	1.952	1.525	1.341	1.034	1.036	0.921	1.118	1.135	1.206	1.568	2.155	2.235	2.374	2.340	3.149	3.304	3.187	3.347	3.353	3.539	3.427	3.376	3.518	3.585	3.539	3.531	3.671	3.516	3.489	3.464	3.602	3.528	3.715	3.804	3.959	3.905	3.923	3.850	3.737	4.060
390.0	343.2	529.2	758.0	858.6	879.9	853.9	801.9	774.2	759.0	745.4	760.1	750.3	736.2	705.0	670.0	624.6	598.3	563.1	535.5	501.7	463.0	426.2	384.7	363.3	366.3	316.1	215.9	157.8	122.1	99.08	94.05	248.2	1244	3037	3136	926.8	15.52	2.953	1.938	1.607	1.222	1.158	1.132	1.162	1.260	1.352	1.657	2.175	2.240	2.415	2.361	2.989	3.277	3.149	3.413	3.355	3.394	3.389	3.198	3.378	3.360	3.428	3.523	3.607	3.536	3.432	3.427	3.371	3.648	3.708	3.490	3.762	3.792	3.722	3.725	3.758	3.864
395.0	334.6	514.9	733.9	837.8	856.1	846.8	806.5	771.1	754.6	742.5	743.5	732.9	714.6	692.9	650.6	609.0	580.9	560.1	535.7	502.7	475.3	441.5	403.7	373.6	343.1	346.1	302.1	202.9	153.7	121.5	95.58	107.4	312.3	714.8	1854	4118	1384	19.42	2.969	1.929	1.470	1.219	1.211	1.293	1.244	1.494	1.555	1.989	2.225	2.435	2.396	2.877	3.435	3.165	3.365	3.233	3.526	3.448	3.425	3.464	3.250	3.375	3.386	3.535	3.394	3.652	3.268	3.108	3.432	3.925	3.320	3.531	3.555	3.564	3.622	3.738	3.737
400.0	309.4	510.1	699.2	817.4	852.9	847.5	799.2	770.0	758.4	742.5	732.2	720.4	706.8	674.3	638.2	602.1	567.4	547.0	528.6	500.5	478.5	448.3	418.0	387.7	349.0	334.9	341.9	260.5	181.0	144.3	111.1	87.34	115.0	190.2	480.1	2571	3922	267.5	11.50	2.666	1.714	1.512	1.283	1.277	1.361	1.496	1.633	1.842	2.147	2.260	2.377	3.072	3.299	3.033	3.342	3.024	3.675	3.494	3.278	3.428	3.172	3.273	3.295	3.272	3.538	3.498	3.037	3.241	3.455	3.437	3.587	3.482	3.424	3.358	3.691	3.545	3.700
405.0	304.1	504.3	694.6	809.0	847.9	828.0	807.0	775.1	758.7	742.5	726.8	713.2	691.3	660.1	625.3	588.3	561.7	539.7	519.5	496.5	473.3	453.3	424.2	393.5	360.3	332.3	333.1	316.6	223.2	167.3	129.2	96.66	79.39	79.90	133.7	695.3	2947	3255	216.4	5.278	2.246	1.655	1.361	1.342	1.354	1.495	1.497	1.696	2.254	2.333	2.428	2.917	3.122	3.074	3.226	3.170	3.604	3.484	3.397	3.555	3.146	3.526	3.418	3.313	3.211	3.372	3.137	3.114	3.411	3.489	3.365	3.521	3.375	3.770	3.580	3.496	3.631
410.0	315.3	488.6	687.1	782.8	833.5	815.2	798.3	774.0	749.4	726.5	718.1	698.0	676.3	645.6	606.4	568.0	539.8	522.4	502.5	483.1	463.7	448.4	425.0	401.9	371.1	340.7	319.6	318.2	288.3	211.3	154.2	115.7	86.75	67.33	64.43	179.9	788.6	2314	2532	829.3	14.10	2.221	1.810	1.527	1.404	1.482	1.558	1.901	2.148	2.282	2.228	2.813	3.126	3.037	3.231	3.118	3.436	3.487	3.421	3.558	3.335	3.331	3.306	3.391	3.316	3.366	3.169	3.100	3.170	3.316	3.194	3.303	3.261	3.607	3.520	3.647	3.545
415.0	300.9	463.4	652.9	760.9	813.1	800.8	788.4	754.0	739.0	714.1	699.4	685.1	646.3	617.3	584.6	540.4	515.8	499.0	473.2	462.6	447.9	436.5	417.8	400.0	375.3	344.7	320.2	299.9	299.3	269.4	186.0	134.2	99.61	73.93	57.06	70.60	196.9	539.2	1415	3120	1156	18.02	2.227	1.773	1.799	1.564	1.526	1.871	2.028	2.154	2.207	2.928	3.083	2.897	3.107	2.882	3.324	3.404	3.577	3.355	3.327	3.262	3.415	3.354	3.162	3.245	3.250	3.035	3.236	3.151	3.065	3.353	3.368	3.407	3.292	3.201	3.366
420.0	288.1	438.5	634.2	736.8	770.6	772.9	763.7	756.9	729.4	707.9	686.6	668.6	631.4	591.8	565.6	517.4	490.4	476.3	460.6	443.4	432.7	422.9	406.0	394.0	373.0	345.7	320.0	295.9	282.2	284.2	223.7	149.7	111.1	82.30	60.81	49.96	68.91	137.1	357.7	1845	3031	250.7	10.30	2.285	2.021	1.753	1.580	1.864	2.027	2.069	2.074	2.614	2.861	2.853	3.104	2.882	3.263	3.504	3.468	3.260	3.439	3.098	3.232	3.205	3.227	3.184	3.133	3.115	2.914	3.181	2.896	3.304	3.314	3.195	3.307	3.195	3.310
425.0	291.9	420.7	610.5	708.4	753.5	771.6	761.3	739.5	719.4	697.1	680.6	653.8	615.8	575.5	535.6	491.7	466.4	460.7	442.0	423.5	412.0	405.0	396.3	385.5	368.2	346.9	324.1	296.6	272.9	272.3	251.7	173.8	121.5	89.38	67.61	50.78	43.65	50.50	93.95	490.7	2184	2083	206.6	4.447	2.448	1.738	1.776	2.091	1.954	2.028	2.151	2.592	2.887	2.909	3.119	2.913	3.236	3.603	3.340	3.154	3.257	3.213	3.194	3.042	3.210	3.153	2.850	2.737	2.960	2.840	3.016	3.081	3.044	3.124	3.089	3.149	3.199
430.0	298.3	411.8	576.6	691.6	737.3	741.0	744.8	725.1	706.0	684.0	665.7	632.5	598.0	554.8	513.4	473.9	443.4	430.3	417.9	405.1	393.7	387.5	383.1	372.7	360.6	341.0	321.4	296.8	275.3	255.8	243.8	211.0	145.7	103.6	78.49	58.92	44.48	35.91	37.64	122.0	570.6	1605	2132	757.6	13.89	2.333	2.049	2.082	1.947	2.143	2.088	2.686	3.010	2.944	2.932	3.013	3.150	3.340	3.281	3.312	3.197	3.336	3.001	3.177	3.209	3.113	2.911	2.834	3.011	2.799	2.862	3.020	2.970	2.865	2.835	2.825	2.914
435.0	389.2	403.5	539.6	672.3	713.6	722.5	728.2	715.0	705.0	671.4	652.2	618.6	572.8	532.7	490.8	449.6	421.3	406.0	389.8	379.9	373.3	367.1	362.4	357.3	348.6	333.1	316.6	300.8	278.6	256.2	227.4	211.9	181.1	125.6	87.99	68.65	52.06	38.43	29.94	43.19	138.6	371.9	1063	2750	1171	17.51	2.582	2.304	1.984	2.021	2.039	2.538	2.900	2.812	2.851	2.977	3.173	3.119	3.152	3.186	3.280	3.309	3.159	2.899	3.120	3.233	2.911	2.822	2.783	2.809	2.715	2.807	2.732	2.714	2.822	2.683	2.847
440.0	507.4	446.5	541.0	639.1	694.7	703.7	712.5	704.3	688.4	669.0	646.0	608.5	555.9	513.9	466.4	434.5	403.8	389.1	375.8	366.4	355.7	352.4	349.5	345.3	336.9	323.9	310.8	292.4	277.7	254.2	225.1	198.4	188.5	147.8	98.55	74.71	57.31	42.94	32.21	28.19	44.95	93.14	264.4	1609	2943	231.6	10.04	2.548	2.257	2.177	2.176	2.480	2.723	2.825	2.799	2.886	3.104	2.953	2.892	3.097	3.214	3.371	3.174	3.150	2.945	3.166	2.823	2.789	2.650	2.567	2.667	2.675	2.628	2.630	2.577	2.573	2.777
445.0	543.8	565.1	521.6	605.4	661.7	687.7	690.6	697.6	675.8	654.4	630.6	597.2	538.9	496.8	452.8	408.3	387.3	369.0	359.4	346.6	339.3	332.7	332.2	332.4	321.6	315.0	298.9	287.0	271.1	252.3	221.6	190.7	177.8	163.6	113.1	80.65	61.30	46.53	35.47	26.84	25.48	32.26	68.28	423.5	2068	1909	174.3	5.760	2.543	2.409	2.160	2.443	2.726	2.674	2.702	2.836	2.990	3.027	3.015	3.139	3.000	3.034	3.021	3.108	2.959	3.021	2.703	2.802	2.730	2.678	2.681	2.508	2.617	2.424	2.461	2.507	2.414
450.0	413.8	921.3	631.6	573.0	623.6	647.8	658.3	658.3	644.4	627.8	597.6	565.8	512.3	465.2	420.9	381.2	358.3	342.0	331.3	322.4	314.7	309.4	307.4	308.4	302.1	292.8	283.1	274.0	261.9	244.6	219.2	187.3	163.4	152.0	131.7	94.40	66.48	50.99	39.26	29.80	24.30	21.65	25.99	102.9	534.1	1365	1782	673.6	12.11	2.727	2.363	2.593	2.749	2.475	2.778	2.670	2.926	2.823	2.833	3.012	2.914	2.865	3.038	3.107	2.901	2.894	2.686	2.512	2.527	2.623	2.549	2.459	2.327	2.332	2.298	2.384	2.462
455.0	251.5	975.2	1081	570.0	580.5	607.8	624.9	626.9	610.0	594.1	564.9	528.8	478.3	433.2	391.3	352.8	327.8	311.7	302.6	294.6	285.2	282.5	280.2	281.7	276.0	269.2	263.5	255.2	244.9	231.8	209.4	181.0	154.5	133.9	124.3	111.6	77.02	55.76	43.14	34.10	26.20	21.60	18.45	32.27	126.7	314.8	836.3	2159	888.8	14.67	2.727	2.658	2.650	2.528	2.632	2.590	2.864	2.776	2.726	2.914	2.826	2.977	2.808	2.841	2.714	2.759	2.526	2.458	2.380	2.356	2.422	2.604	2.374	2.164	2.220	2.188	2.016
460.0	195.3	704.1	1672	711.5	540.6	567.7	587.9	592.6	563.5	570.7	534.8	499.7	446.8	409.7	367.4	330.3	304.0	289.0	282.5	270.9	262.3	261.3	259.6	259.8	253.5	251.0	247.5	237.3	231.1	220.2	200.7	175.9	150.2	125.9	113.2	111.2	89.94	60.90	45.74	36.73	28.74	23.02	18.19	17.83	37.19	77.16	204.2	1160	2140	179.1	9.619	2.815	2.446	2.530	2.737	2.548	2.836	2.640	2.689	2.771	2.496	2.633	2.733	2.605	2.691	2.513	2.446	2.455	2.058	2.179	2.294	2.250	2.155	2.320	2.014	2.153	2.099
465.0	178.6	420.7	1769	1201	503.4	530.1	552.2	562.0	545.2	532.0	504.5	478.9	422.0	384.5	341.0	309.3	283.8	268.6	260.5	251.6	243.0	241.7	239.9	239.0	236.6	231.9	230.6	222.5	217.8	208.7	190.9	169.0	143.9	124.3	106.4	100.5	95.51	67.98	48.25	38.36	30.85	24.34	19.10	15.63	17.71	24.88	51.94	296.7	1468	1467	145.8	6.360	2.773	2.575	2.489	2.455	2.650	2.430	2.519	2.441	2.619	2.440	2.676	2.501	2.512	2.532	2.332	2.065	2.115	1.875	2.101	2.038	1.996	2.128	1.872	1.954	2.016
470.0	178.4	285.4	1085	2072	757.1	478.4	498.7	501.3	498.5	485.0	465.5	434.7	386.0	344.6	312.7	277.2	256.8	241.2	234.9	224.2	216.6	215.5	214.8	213.8	212.6	208.4	205.6	201.1	197.4	189.3	175.1	156.1	135.6	116.2	99.42	87.93	84.41	75.59	54.87	39.75	31.81	25.78	20.66	16.90	14.75	14.27	18.67	72.55	375.5	1038	1289	608.2	12.68	2.893	2.353	2.394	2.447	2.331	2.413	2.279	2.292	2.436	2.498	2.257	2.267	2.304	2.170	1.879	1.990	1.856	1.941	1.854	1.751	1.905	1.709	1.841	1.832
475.0	163.2	239.5	490.5	1914	1707	462.9	444.0	447.1	448.3	435.2	423.4	387.2	349.5	310.1	274.4	243.2	227.0	213.5	206.0	195.3	192.7	190.0	191.0	187.3	188.2	183.3	181.8	177.4	173.5	170.6	157.9	142.7	125.1	107.8	92.77	79.61	71.87	69.07	62.40	44.35	32.35	26.53	21.58	17.83	15.06	13.00	11.55	22.40	88.83	237.5	529.8	1582	675.2	16.83	2.869	2.346	2.227	2.387	2.273	2.164	2.106	2.242	2.247	2.113	2.168	2.083	1.820	1.731	2.000	1.772	1.787	1.531	1.589	1.694	1.619	1.762	1.613
480.0	156.2	225.0	318.5	1177	2522	562.8	405.2	409.9	415.6	412.2	387.9	364.1	324.6	288.3	254.0	225.0	207.3	197.6	186.8	180.2	177.5	173.9	171.3	169.9	171.0	165.1	167.8	162.6	158.3	155.4	145.8	133.7	118.3	102.7	88.23	76.55	67.08	60.47	61.86	49.13	35.41	27.66	22.18	18.18	15.09	13.10	10.81	12.04	25.58	57.69	127.1	737.2	1481	202.6	12.11	2.593	2.287	2.196	2.142	2.024	2.046	2.029	2.077	2.049	1.997	1.838	1.911	1.616	1.650	1.582	1.656	1.527	1.625	1.594	1.533	1.661	1.605
485.0	143.2	236.3	285.9	590.0	2470	1306	393.8	389.1	391.3	384.9	362.8	338.4	303.2	267.2	238.5	211.8	194.9	179.8	174.5	167.6	162.7	159.1	156.7	156.7	156.8	154.6	154.6	151.4	148.7	144.9	136.6	124.6	111.9	96.98	85.11	73.52	62.94	54.69	54.59	52.73	39.16	27.95	23.67	18.61	15.99	14.05	11.52	9.919	11.72	17.83	32.51	182.5	910.3	1355	177.9	6.403	2.571	2.289	2.211	2.044	1.960	1.833	2.074	1.818	1.800	1.888	1.800	1.713	1.597	1.684	1.487	1.579	1.452	1.544	1.382	1.606	1.316
490.0	116.3	229.7	270.6	353.1	1374	2408	661.8	357.6	362.0	354.9	339.8	313.2	279.0	245.2	216.4	193.0	175.8	166.0	158.0	150.6	146.7	143.5	141.6	141.1	141.0	139.6	137.6	137.4	135.3	133.1	125.9	115.6	103.9	91.05	79.39	68.89	59.63	51.93	47.73	46.76	44.40	32.99	24.35	19.66	16.61	14.55	11.94	10.41	9.131	9.493	11.74	44.66	226.2	715.8	1163	612.3	14.76	2.563	2.182	1.983	1.945	1.861	1.858	1.660	1.746	1.606	1.723	1.551	1.562	1.441	1.386	1.446	1.271	1.356	1.314	1.309	1.361
495.0	92.46	186.4	287.6	277.6	552.8	2206	1750	352.8	319.1	320.2	309.8	283.9	256.0	225.6	193.0	172.7	157.5	147.4	139.6	133.8	128.2	128.6	125.5	125.6	124.6	125.0	122.2	120.9	120.0	119.5	113.3	103.2	93.49	82.11	72.09	64.78	56.93	49.71	43.56	40.00	40.33	37.97	26.95	20.36	17.84	14.86	12.72	10.91	9.236	7.683	7.472	14.30	53.99	163.5	447.8	1469	832.7	20.70	2.316	2.001	1.842	1.819	1.862	1.748	1.750	1.601	1.646	1.470	1.639	1.301	1.269	1.531	1.255	1.164	1.233	1.226	1.214
500.0	83.48	160.2	286.9	267.6	318.2	1304	2667	546.9	290.1	294.2	287.9	263.1	232.2	202.7	177.6	155.5	145.1	135.2	127.4	122.6	117.2	116.2	114.3	113.1	112.8	112.2	110.4	109.2	110.1	108.9	102.5	94.06	85.14	77.04	67.29	59.04	53.43	46.66	40.89	36.74	34.92	37.31	30.66	21.77	17.57	14.77	12.83	10.86	9.517	7.889	6.617	7.583	15.88	39.96	106.3	638.1	1495	230.5	14.38	2.091	1.883	1.665	1.755	1.561	1.455	1.573	1.327	1.386	1.468	1.187	1.313	1.197	1.120	1.061	1.102	0.997	1.095
505.0	82.92	132.3	257.5	272.2	246.1	595.2	2708	1225	283.6	269.3	258.8	242.7	213.4	186.3	160.3	141.6	132.6	124.1	116.4	111.2	107.6	106.2	104.8	102.9	101.3	101.8	101.3	100.1	99.12	99.07	93.79	86.34	77.87	71.21	62.92	56.46	49.86	44.12	38.71	34.90	30.36	31.68	32.24	24.29	17.09	14.99	12.67	10.92	9.425	8.329	6.787	6.304	7.554	12.66	27.18	154.3	783.9	1298	206.1	7.560	2.137	1.687	1.901	1.513	1.364	1.596	1.209	1.359	1.321	1.193	1.156	1.156	1.062	0.940	1.013	0.975	0.977
510.0	70.43	115.4	196.7	263.9	220.1	308.4	1467	2438	517.7	240.4	234.3	214.8	190.7	165.7	143.5	126.1	116.8	108.3	102.9	97.42	95.17	91.93	90.37	89.40	88.73	89.40	88.42	86.90	86.57	86.13	82.18	76.14	69.30	63.46	56.06	51.11	44.55	40.54	35.63	31.22	27.70	26.07	27.60	26.59	20.19	15.01	12.14	10.68	9.263	8.056	7.008	6.362	5.754	6.547	9.615	37.70	189.6	609.7	1019	519.4	15.35	2.104	1.783	1.364	1.298	1.336	1.103	1.206	1.116	1.050	1.061	1.025	1.081	1.016	0.901	0.917	0.852
515.0	58.39	100.5	149.7	250.9	224.6	214.1	508.0	2319	1645	238.0	205.4	187.5	164.0	141.4	125.6	110.7	102.8	94.38	87.78	84.68	81.37	79.80	77.12	76.76	75.88	74.79	75.92	73.38	74.82	74.21	70.65	64.84	60.65	55.39	49.12	44.68	40.05	36.17	32.25	28.83	24.82	22.92	21.92	23.79	22.32	16.48	11.84	10.94	9.266	7.761	6.761	6.551	5.450	5.267	5.639	11.47	45.09	138.7	331.0	965.6	673.9	22.26	2.037	1.470	1.350	1.112	1.060	1.084	1.024	1.038	0.956	0.976	1.019	0.792	0.895	0.825	0.743
520.0	53.95	88.43	123.6	196.5	241.9	183.7	253.7	1299	2752	425.0	182.1	170.8	148.4	127.1	113.5	100.5	89.69	83.69	77.97	76.73	72.52	71.43	68.37	67.47	67.18	67.63	66.82	66.22	66.23	65.84	63.78	59.24	54.47	49.61	43.87	39.39	35.92	33.79	29.61	26.65	23.13	20.78	19.45	19.84	21.30	18.95	12.88	10.40	8.991	7.554	6.816	6.190	5.650	4.883	4.676	5.688	12.77	33.26	77.36	380.4	1046	236.1	16.45	1.610	1.341	1.235	1.142	1.019	0.937	0.904	0.884	0.898	0.989	0.728	0.837	0.744	0.705
525.0	53.50	70.60	110.0	155.8	238.8	174.1	180.3	526.8	2973	1127	176.9	155.8	134.0	117.1	101.8	90.08	80.38	76.42	70.46	69.02	64.67	63.52	61.18	60.62	61.47	59.79	60.01	59.09	60.13	58.35	56.50	53.34	49.66	45.40	39.52	36.03	33.24	29.96	26.94	23.98	21.89	19.15	17.28	16.31	18.48	19.13	14.06	10.26	8.382	7.540	6.454	5.825	5.305	4.800	4.160	4.208	5.597	9.729	19.50	90.54	493.3	954.8	219.8	8.482	1.335	1.193	1.083	0.913	0.966	0.880	0.794	0.927	0.793	0.727	0.753	0.641	0.673
530.0	45.75	64.06	92.55	127.0	194.6	198.1	148.9	229.7	1535	2454	420.5	136.2	118.9	102.7	89.71	78.10	71.57	64.77	61.26	59.45	55.68	55.09	52.66	52.37	52.66	51.46	51.48	51.88	51.63	50.65	48.99	45.65	42.40	38.80	34.69	32.49	29.38	26.38	23.69	21.23	19.46	17.46	15.63	14.47	14.56	15.89	15.08	11.46	8.056	6.966	5.923	5.499	4.834	4.837	4.212	3.655	3.718	4.386	6.436	22.18	117.3	409.1	846.1	422.0	15.81	1.503	1.118	0.949	0.822	0.772	0.815	0.807	0.720	0.693	0.672	0.684	0.702
535.0	40.72	57.22	84.00	99.73	134.5	201.9	141.9	151.3	465.8	2400	1547	136.1	103.1	89.51	75.42	66.99	61.64	54.21	52.28	50.55	48.10	46.39	45.30	45.61	44.63	42.29	43.20	42.99	43.19	42.44	41.40	38.85	35.38	33.29	29.70	28.29	25.10	22.88	20.79	18.96	16.89	15.78	14.12	12.73	12.02	12.15	13.49	12.50	8.334	6.487	5.532	5.068	4.285	4.289	4.279	3.724	3.112	3.052	3.204	6.568	27.70	92.84	251.0	650.2	547.0	23.22	1.302	0.950	0.868	0.803	0.682	0.781	0.539	0.628	0.564	0.608	0.486
540.0	37.30	54.43	71.07	87.16	100.1	180.8	153.2	119.5	196.4	1233	2899	206.7	92.73	77.70	66.59	59.92	53.05	49.02	45.55	45.77	42.91	39.60	39.28	38.96	38.33	37.79	37.75	37.91	38.61	37.81	35.61	34.51	31.81	29.45	26.45	24.38	22.09	20.58	18.59	16.73	15.86	14.00	12.87	11.54	11.17	9.876	10.68	11.86	9.551	6.713	5.264	4.556	4.065	4.030	3.743	3.840	2.981	2.752	2.479	3.016	7.647	21.82	57.71	230.2	730.8	240.4	15.94	1.058	0.862	0.700	0.769	0.662	0.612	0.588	0.677	0.495	0.450
545.0	38.82	51.24	67.98	82.26	86.16	138.8	166.5	104.3	123.2	443.3	3038	877.1	85.59	70.61	61.08	51.65	47.55	42.96	41.54	40.30	37.94	36.15	34.70	33.88	33.22	33.39	32.95	33.30	33.40	33.57	32.03	30.61	28.26	25.59	23.86	21.89	19.66	18.62	16.74	14.80	14.21	12.58	11.39	10.63	9.831	8.940	8.878	10.17	10.07	7.009	4.901	4.316	3.748	3.559	3.173	3.617	3.316	2.488	2.311	1.964	3.107	6.097	14.08	53.85	309.2	655.3	203.8	9.329	0.907	0.822	0.621	0.558	0.593	0.530	0.567	0.565	0.436
550.0	35.19	49.87	63.11	69.22	74.14	94.02	162.9	109.2	93.03	168.3	1445	2131	231.8	60.14	51.80	43.04	38.45	36.45	34.15	32.82	31.30	30.17	29.45	27.95	27.48	27.78	27.64	27.81	27.76	27.38	26.37	25.15	23.24	21.13	19.52	18.02	16.89	15.19	14.20	13.03	11.84	11.05	9.612	9.033	8.324	7.886	7.129	7.394	8.493	7.686	5.585	4.075	3.390	3.068	2.849	2.910	2.933	2.816	2.165	1.754	1.754	2.484	4.164	13.08	72.18	254.3	470.1	332.6	16.93	1.103	0.616	0.588	0.515	0.573	0.456	0.488	0.449
555.0	31.14	50.64	60.53	58.22	58.15	65.94	117.4	131.3	76.41	95.58	399.1	2276	1065	58.17	42.17	35.47	32.74	29.53	27.26	25.89	25.47	23.59	23.11	22.74	22.26	22.47	21.90	22.36	22.53	21.75	21.44	20.38	18.72	16.91	16.07	14.69	13.67	12.30	11.44	10.67	10.01	8.982	8.112	7.736	6.913	6.510	5.850	5.668	5.946	6.626	5.968	4.281	3.076	2.808	2.602	2.487	2.242	2.412	2.250	1.678	1.452	1.631	1.953	3.939	16.93	57.48	132.3	435.1	451.5	22.66	0.919	0.638	0.556	0.538	0.513	0.362	0.356
560.0	36.64	52.13	55.36	60.35	49.71	53.60	80.73	143.0	75.78	70.00	142.5	1154	2226	118.1	35.82	30.59	28.05	25.35	23.49	21.42	21.40	20.31	19.34	19.25	19.18	19.09	18.49	18.56	18.34	18.41	17.71	17.63	15.71	14.52	13.27	12.66	11.38	10.85	9.967	9.088	8.326	7.758	7.048	6.746	5.959	5.408	5.227	4.697	4.542	5.421	5.713	4.241	2.952	2.541	2.354	2.181	1.918	1.948	2.249	1.828	1.451	1.301	1.320	1.838	4.676	13.78	30.62	147.0	544.2	231.1	15.10	0.707	0.615	0.539	0.365	0.346	0.341
565.0	40.20	50.33	58.83	52.10	45.60	46.49	57.05	129.2	90.87	60.68	77.96	391.1	2517	533.1	32.59	26.89	23.29	22.22	20.79	18.70	18.39	17.48	16.80	16.29	16.32	16.19	15.73	15.86	15.80	15.32	15.03	14.82	13.45	12.22	11.47	10.72	9.512	9.165	8.375	7.938	7.127	6.518	5.956	5.627	5.175	5.093	4.295	4.087	3.524	3.971	4.537	4.465	3.070	2.319	2.181	2.045	1.773	1.550	1.833	1.988	1.550	1.076	1.161	1.258	1.806	3.816	7.580	34.23	215.4	442.2	171.2	7.351	0.612	0.502	0.370	0.338	0.336
570.0	36.08	50.98	56.77	48.62	37.98	39.73	43.37	86.09	114.7	60.79	58.29	128.0	1256	1574	83.05	23.33	19.28	18.12	16.86	15.38	14.94	13.94	13.69	13.12	13.53	12.89	12.79	12.50	12.90	12.74	12.38	11.89	10.85	10.20	9.364	8.688	7.877	7.430	6.787	6.346	5.928	5.344	4.902	4.668	4.460	4.154	3.769	3.309	3.022	2.920	3.186	3.815	3.196	2.342	1.782	1.713	1.535	1.367	1.435	1.578	1.623	1.249	1.056	0.984	1.104	1.519	2.392	8.320	49.85	164.4	277.8	202.6	15.86	1.040	0.418	0.359	0.367
575.0	38.67	52.95	51.62	43.18	34.13	32.62	35.57	51.24	113.8	76.33	50.08	64.56	336.6	1772	708.0	21.29	16.29	15.48	13.54	12.65	11.78	11.35	11.32	10.15	10.69	10.36	10.10	10.27	10.38	9.889	9.883	9.191	8.822	7.962	7.399	6.960	6.174	5.749	5.624	5.175	4.842	4.404	3.906	4.014	3.670	3.223	3.266	2.873	2.547	2.219	2.316	2.669	3.108	2.724	1.892	1.465	1.294	1.124	1.129	1.122	1.376	1.480	1.158	0.970	0.835	0.973	1.208	2.458	11.72	37.28	74.50	289.7	249.9	23.97	0.584	0.364	0.444
580.0	43.82	45.00	54.08	41.32	29.28	27.91	30.46	41.07	90.10	98.02	49.00	49.91	106.2	943.7	1600	53.81	14.61	12.34	11.65	10.91	9.641	9.399	9.125	8.820	8.481	9.091	8.807	8.607	8.320	8.727	8.355	8.141	7.041	6.827	6.364	5.948	5.417	5.047	4.643	4.229	3.810	3.787	3.418	3.433	3.080	2.842	2.738	2.403	2.251	1.999	1.918	1.849	2.591	2.605	1.924	1.355	1.235	1.161	1.017	0.927	1.033	1.268	1.267	0.968	0.955	0.815	0.922	1.110	3.264	8.987	17.27	95.33	339.5	217.2	12.99	0.450	0.334
585.0	39.34	43.98	54.64	40.79	29.33	27.22	30.21	33.70	63.56	109.7	55.23	45.95	53.47	317.1	1887	259.3	12.39	11.51	9.998	9.178	8.683	8.000	8.466	8.119	7.348	7.483	7.611	7.188	7.232	7.357	6.979	6.550	6.035	5.766	5.512	4.953	4.645	4.167	3.978	3.598	3.392	3.261	2.967	2.819	2.740	2.454	2.301	2.286	1.968	1.813	1.642	1.543	1.904	2.192	2.167	1.489	1.278	1.044	0.902	0.866	0.890	1.024	1.328	1.112	0.871	0.766	0.782	0.806	1.329	2.571	4.438	22.12	130.6	308.7	123.2	5.220	0.379
590.0	37.38	45.17	48.72	37.94	28.37	24.10	28.09	29.86	42.45	93.93	77.04	44.96	41.69	95.81	969.4	988.9	40.66	9.627	8.404	7.716	7.055	6.623	6.646	6.606	6.003	5.994	5.959	6.091	5.964	5.944	5.520	5.423	4.983	4.968	4.637	4.027	3.807	3.325	3.260	2.982	2.936	2.756	2.501	2.319	2.225	2.033	1.904	1.818	1.631	1.431	1.426	1.263	1.355	1.621	1.918	1.570	1.243	0.974	0.817	0.763	0.739	0.783	0.944	1.048	0.927	0.802	0.694	0.696	0.771	1.081	1.505	5.439	30.14	103.3	171.8	103.4	14.89
595.0	31.93	46.00	46.56	38.03	27.39	22.61	23.85	27.17	34.21	62.21	97.13	50.91	37.46	42.43	252.2	1185	330.3	8.990	7.333	6.253	5.445	5.677	5.101	4.972	4.979	4.568	5.075	4.459	4.657	4.575	4.412	4.171	3.896	3.887	3.618	3.255	2.953	2.810	2.677	2.376	2.354	2.357	2.120	1.903	1.910	1.833	1.584	1.499	1.394	1.203	1.140	1.052	0.997	0.958	1.412	1.654	1.239	0.962	0.780	0.667	0.598	0.681	0.783	0.782	1.051	0.821	0.750	0.669	0.660	0.676	0.755	1.541	7.113	23.38	44.06	120.2	149.5
600.0	32.29	46.58	40.30	36.57	26.93	22.46	24.33	28.41	30.60	43.50	93.73	57.23	35.91	30.39	71.37	677.2	753.1	21.04	6.608	5.609	4.907	5.003	4.193	4.230	4.425	4.101	3.974	3.985	4.004	3.700	3.747	3.449	3.331	3.271	2.824	2.958	2.615	2.401	2.072	2.147	2.119	2.017	1.611	1.579	1.707	1.450	1.364	1.244	1.284	1.014	0.948	0.920	0.794	0.762	0.911	1.305	1.505	1.038	0.658	0.650	0.635	0.613	0.573	0.645	0.729	0.926	0.759	0.599	0.624	0.524	0.614	0.658	1.934	5.505	10.18	37.40	150.2
605.0	37.24	36.29	45.93	32.75	22.87	19.70	22.60	25.39	29.79	37.92	77.52	72.94	36.68	29.23	31.22	229.0	1066	77.98	5.841	4.567	4.317	4.399	3.970	3.704	3.786	3.532	3.512	3.498	3.483	3.120	3.170	2.846	3.210	2.542	2.491	2.618	2.413	2.114	1.987	1.755	1.708	1.684	1.388	1.372	1.492	1.189	1.222	1.119	1.040	1.005	0.901	0.920	0.734	0.762	0.700	1.103	1.289	1.084	0.649	0.566	0.618	0.555	0.515	0.586	0.555	0.839	0.782	0.687	0.574	0.508	0.426	0.574	0.749	1.542	2.504	8.756	52.07
610.0	33.76	36.33	42.81	30.69	24.53	19.62	22.37	26.63	31.03	36.48	57.41	86.57	46.37	29.76	23.10	64.18	631.7	539.8	18.33	4.378	4.018	3.654	3.351	3.063	3.277	2.821	2.741	2.804	2.863	2.523	2.632	2.512	2.604	2.078	2.250	1.958	1.859	1.871	1.694	1.376	1.405	1.348	1.194	1.140	1.194	1.042	1.062	1.013	0.901	0.847	0.739	0.719	0.651	0.643	0.613	0.734	0.982	1.048	0.823	0.558	0.566	0.534	0.534	0.550	0.503	0.638	0.728	0.705	0.598	0.477	0.456	0.461	0.483	0.613	0.825	2.198	11.98
615.0	29.96	33.38	36.20	28.77	20.29	19.34	21.71	24.54	28.42	37.00	45.52	73.84	62.05	30.43	21.48	24.73	172.7	797.9	77.94	3.776	3.340	2.941	2.840	2.683	2.643	2.516	2.356	2.534	2.350	2.012	2.377	2.057	1.973	1.670	1.700	1.626	1.473	1.467	1.396	1.229	1.235	1.016	1.076	0.967	0.935	0.859	0.913	0.793	0.751	0.717	0.615	0.652	0.563	0.485	0.519	0.553	0.661	0.951	0.840	0.639	0.487	0.460	0.556	0.479	0.455	0.470	0.497	0.706	0.669	0.560	0.482	0.391	0.337	0.393	0.429	0.669	2.914
620.0	25.57	30.76	35.42	30.24	20.18	18.34	22.11	23.34	27.13	34.14	41.12	60.02	71.83	31.44	21.40	15.45	46.84	528.3	466.9	8.401	2.914	2.649	2.373	2.397	2.058	2.184	2.201	2.125	1.920	1.798	2.054	1.773	1.745	1.495	1.463	1.454	1.260	1.288	1.280	1.062	0.896	0.935	0.931	0.797	0.858	0.814	0.700	0.749	0.587	0.667	0.503	0.472	0.461	0.427	0.503	0.479	0.505	0.549	0.800	0.645	0.493	0.428	0.392	0.420	0.425	0.447	0.517	0.534	0.819	0.699	0.449	0.350	0.367	0.359	0.372	0.365	0.864
625.0	23.23	31.68	30.43	29.12	18.19	16.55	22.40	21.52	28.63	33.86	39.69	48.02	74.98	38.37	19.89	13.44	17.15	197.7	717.0	47.65	2.855	2.304	2.235	2.249	1.970	1.770	1.818	1.618	1.644	1.617	1.674	1.545	1.519	1.271	1.399	1.234	1.041	1.189	1.105	0.974	0.751	0.840	0.707	0.746	0.780	0.681	0.716	0.660	0.578	0.560	0.513	0.472	0.425	0.392	0.452	0.419	0.467	0.475	0.743	0.610	0.559	0.469	0.479	0.339	0.396	0.383	0.412	0.451	0.628	0.717	0.437	0.331	0.435	0.327	0.315	0.343	0.444
630.0	23.18	30.64	28.94	25.42	17.78	17.75	20.66	22.28	25.61	30.69	37.78	40.92	61.06	49.08	20.89	12.33	10.68	52.19	483.9	376.3	7.911	2.037	1.938	1.841	1.748	1.497	1.443	1.482	1.490	1.335	1.351	1.219	1.295	1.149	1.085	1.007	0.960	0.992	0.872	0.819	0.750	0.778	0.607	0.645	0.628	0.592	0.603	0.498	0.532	0.428	0.382	0.430	0.350	0.365	0.353	0.369	0.381	0.365	0.536	0.566	0.576	0.499	0.407	0.358	0.413	0.345	0.395	0.362	0.500	0.540	0.508	0.394	0.369	0.290	0.256	0.265	0.279
635.0	20.44	30.75	28.77	24.72	17.07	16.18	18.59	22.21	24.82	29.94	35.71	39.25	46.22	55.92	25.18	12.64	9.629	16.84	137.7	623.9	58.05	2.205	1.618	1.304	1.301	1.366	1.239	1.263	1.231	1.167	1.128	0.936	1.046	1.083	0.978	0.840	0.774	0.807	0.718	0.572	0.660	0.661	0.521	0.571	0.577	0.449	0.485	0.454	0.426	0.340	0.287	0.336	0.294	0.390	0.351	0.340	0.321	0.346	0.397	0.409	0.580	0.489	0.396	0.371	0.378	0.365	0.390	0.334	0.350	0.333	0.465	0.522	0.422	0.282	0.248	0.228	0.192
640.0	20.78	26.52	29.57	23.04	18.64	17.30	17.87	23.01	24.03	28.16	35.24	38.41	38.93	51.09	32.34	14.70	10.15	9.353	36.10	464.9	290.2	3.849	1.569	1.240	1.090	1.363	1.151	1.121	1.015	1.058	1.003	0.930	0.904	0.855	0.801	0.774	0.706	0.545	0.633	0.532	0.570	0.634	0.432	0.509	0.518	0.420	0.429	0.438	0.425	0.423	0.319	0.388	0.329	0.308	0.344	0.315	0.293	0.346	0.317	0.440	0.556	0.450	0.478	0.354	0.365	0.386	0.392	0.317	0.361	0.331	0.374	0.441	0.479	0.261	0.287	0.215	0.204
645.0	25.49	25.27	29.76	21.36	16.95	17.30	19.10	21.20	23.33	27.75	33.92	38.04	36.34	44.07	40.06	16.13	10.94	8.259	12.29	197.3	502.3	26.33	1.477	1.293	1.131	1.140	0.906	1.046	1.004	0.966	0.854	0.938	0.755	0.774	0.682	0.715	0.661	0.476	0.586	0.516	0.535	0.521	0.401	0.435	0.423	0.387	0.349	0.354	0.378	0.380	0.288	0.309	0.327	0.279	0.273	0.285	0.290	0.252	0.256	0.290	0.338	0.405	0.421	0.404	0.309	0.333	0.359	0.307	0.330	0.321	0.439	0.402	0.458	0.274	0.299	0.266	0.205
650.0	24.53	32.66	28.67	24.53	18.93	15.82	18.88	19.88	23.38	27.30	33.06	37.00	35.75	37.56	42.73	17.96	11.08	8.076	6.985	56.12	491.8	140.4	1.710	1.353	1.158	1.036	0.930	0.993	0.817	0.827	0.733	0.835	0.682	0.731	0.615	0.595	0.601	0.489	0.532	0.447	0.427	0.458	0.485	0.428	0.383	0.333	0.364	0.333	0.361	0.354	0.346	0.326	0.310	0.276	0.286	0.231	0.331	0.261	0.250	0.332	0.249	0.391	0.465	0.337	0.349	0.299	0.347	0.289	0.379	0.296	0.380	0.357	0.387	0.373	0.454	0.280	0.222
