Sample:	'1
File name:	Default_20230214_150948.FD3
Run date:	'15:03:27, 02/14/2023
Operator:	dsjg
Comment:	'

Instrument
Model:	F-2700 FL Spectrophotometer
Serial number:	2198-001
ROM Version:	4J14000 07

Instrument parameters
Measurement type:	3-D scan
Data mode:	Fluorescence
EX  Start WL:	220.0 nm
EX  End WL:	600.0 nm
EX Sampling interval:	5.0 nm
EM  Start WL:	230.0 nm
EM  End WL:	650.0 nm
EM Sampling interval:	5.0 nm
Scan speed:	12000 nm/min
EX Slit:	5.0 nm
EM Slit:	5.0 nm
PMT Voltage:	700 V
Response:	Auto 
Corrected spectra:	Off
Contour interval:	50.000

Peak integration
Integration method:	Rectangular
Sensitivity:	1
Threshold:	1.000

Peaks
No.	ApexEX/EM(nm)	Height(Data)
1	230.0/345.0	115.5
2	230.0/360.0	114.6
3	230.0/505.0	58.04
4	235.0/260.0	124.7
5	235.0/515.0	58.33
6	240.0/265.0	147.6
7	240.0/400.0	143.6
8	240.0/530.0	53.72
9	245.0/270.0	141.8
10	245.0/540.0	51.31
11	250.0/275.0	167.0
12	250.0/420.0	136.2
13	250.0/550.0	41.66
14	255.0/280.0	181.4
15	255.0/560.0	34.00
16	260.0/575.0	26.89
17	265.0/585.0	24.85
18	270.0/300.0	234.5
19	270.0/405.0	131.3
20	270.0/595.0	21.88
21	275.0/305.0	249.8
22	275.0/605.0	18.10
23	280.0/310.0	220.4
24	280.0/385.0	141.8
25	280.0/405.0	138.8
26	280.0/620.0	15.45
27	285.0/315.0	209.4
28	285.0/630.0	11.69
29	290.0/325.0	198.8
30	295.0/330.0	162.3
31	300.0/335.0	170.8
32	305.0/340.0	161.8
33	310.0/350.0	141.1
34	315.0/355.0	137.4
35	320.0/360.0	145.9
36	325.0/370.0	123.4
37	330.0/375.0	120.0
38	335.0/380.0	136.0
39	340.0/385.0	124.2
40	350.0/400.0	110.4
41	355.0/405.0	107.8
42	360.0/410.0	88.25
43	365.0/415.0	82.96
44	370.0/425.0	80.48
45	375.0/430.0	66.67
46	380.0/435.0	59.91
47	385.0/445.0	54.25
48	390.0/450.0	44.40
49	395.0/455.0	39.37
50	400.0/465.0	35.16
51	405.0/470.0	27.40
52	410.0/475.0	23.89
53	415.0/485.0	21.30
54	420.0/490.0	17.79
55	425.0/495.0	14.79
56	430.0/505.0	13.58
57	435.0/510.0	10.71
58	440.0/520.0	9.194
59	445.0/525.0	8.272
60	450.0/530.0	6.676
61	460.0/545.0	4.891
62	470.0/560.0	3.188
63	475.0/565.0	2.531
64	540.0/295.0	1.476
65	545.0/300.0	1.623
66	550.0/305.0	1.504
67	570.0/315.0	1.329
68	580.0/320.0	1.350
69	585.0/325.0	1.286

Data points
	220.0	225.0	230.0	235.0	240.0	245.0	250.0	255.0	260.0	265.0	270.0	275.0	280.0	285.0	290.0	295.0	300.0	305.0	310.0	315.0	320.0	325.0	330.0	335.0	340.0	345.0	350.0	355.0	360.0	365.0	370.0	375.0	380.0	385.0	390.0	395.0	400.0	405.0	410.0	415.0	420.0	425.0	430.0	435.0	440.0	445.0	450.0	455.0	460.0	465.0	470.0	475.0	480.0	485.0	490.0	495.0	500.0	505.0	510.0	515.0	520.0	525.0	530.0	535.0	540.0	545.0	550.0	555.0	560.0	565.0	570.0	575.0	580.0	585.0	590.0	595.0	600.0
230.0	15.11	195.7	435.1	111.7	3.665	1.671	1.285	0.904	0.580	0.927	0.670	0.570	0.549	0.446	0.408	0.319	0.347	0.244	0.249	0.238	0.215	0.221	0.251	0.191	0.205	0.169	0.149	0.185	0.161	0.167	0.159	0.138	0.127	0.128	0.165	0.253	0.243	0.224	0.255	0.222	0.196	0.198	0.185	0.165	0.159	0.128	0.154	0.470	1.150	1.458	0.783	0.224	0.097	0.096	0.099	0.075	0.076	0.088	0.095	0.066	0.071	0.066	0.061	0.049	0.064	0.053	0.066	0.058	0.057	0.040	0.050	0.043	0.040	0.042	0.036	0.053	0.057
235.0	13.03	60.69	366.4	543.3	189.6	6.631	1.295	1.123	1.107	1.105	0.895	0.548	0.519	0.488	0.359	0.364	0.438	0.351	0.340	0.269	0.206	0.166	0.191	0.203	0.228	0.209	0.170	0.141	0.205	0.207	0.167	0.122	0.174	0.150	0.131	0.129	0.221	0.238	0.235	0.201	0.182	0.171	0.226	0.234	0.213	0.170	0.136	0.249	0.434	0.946	1.551	2.173	1.548	0.435	0.102	0.076	0.093	0.064	0.086	0.079	0.077	0.067	0.064	0.056	0.093	0.071	0.051	0.046	0.064	0.021	0.046	0.019	0.050	0.026	0.036	0.050	0.054
240.0	24.55	27.35	133.3	571.8	493.4	153.5	4.008	1.374	0.878	1.081	0.822	0.652	0.582	0.478	0.424	0.341	0.309	0.244	0.272	0.293	0.247	0.210	0.232	0.151	0.185	0.177	0.158	0.154	0.220	0.157	0.137	0.128	0.154	0.123	0.106	0.155	0.154	0.233	0.259	0.260	0.231	0.199	0.165	0.158	0.202	0.209	0.179	0.161	0.210	0.338	0.758	2.041	3.472	2.795	1.374	0.267	0.097	0.065	0.081	0.094	0.057	0.062	0.061	0.053	0.075	0.063	0.052	0.105	0.044	0.074	0.030	0.014	0.031	0.042	0.065	0.071	0.058
245.0	29.22	45.96	41.92	244.6	846.4	760.9	88.76	2.557	1.275	1.194	0.774	0.794	0.513	0.544	0.589	0.501	0.303	0.313	0.311	0.249	0.303	0.213	0.239	0.289	0.209	0.161	0.212	0.135	0.159	0.160	0.219	0.161	0.136	0.145	0.116	0.098	0.118	0.200	0.235	0.272	0.186	0.223	0.165	0.147	0.160	0.223	0.262	0.291	0.228	0.176	0.274	0.700	1.950	3.636	4.413	2.921	1.014	0.191	0.098	0.081	0.068	0.070	0.065	0.079	0.072	0.049	0.056	0.081	0.059	0.055	0.073	0.054	0.046	0.039	0.056	0.063	0.075
250.0	15.16	48.71	71.57	81.02	326.3	918.2	747.5	162.1	13.86	1.457	1.073	1.148	0.770	0.512	0.515	0.448	0.439	0.315	0.319	0.299	0.324	0.231	0.287	0.253	0.218	0.199	0.180	0.222	0.157	0.188	0.224	0.170	0.160	0.131	0.125	0.119	0.120	0.132	0.183	0.214	0.201	0.254	0.183	0.172	0.177	0.180	0.197	0.298	0.348	0.363	0.263	0.280	0.550	1.146	2.231	3.625	4.870	4.502	2.504	0.788	0.171	0.076	0.064	0.087	0.045	0.052	0.071	0.067	0.066	0.055	0.057	0.057	0.065	0.050	0.052	0.039	0.058
255.0	6.451	15.75	73.30	111.9	95.79	260.5	793.5	 1216	215.9	14.02	1.964	0.978	0.904	0.624	0.583	0.387	0.574	0.422	0.407	0.287	0.262	0.254	0.221	0.287	0.237	0.208	0.162	0.190	0.183	0.221	0.215	0.192	0.164	0.137	0.152	0.131	0.163	0.146	0.120	0.153	0.231	0.253	0.220	0.155	0.196	0.213	0.205	0.169	0.184	0.306	0.518	0.578	0.378	0.400	0.608	0.941	1.689	3.727	6.402	7.134	4.135	1.023	0.107	0.094	0.064	0.064	0.071	0.086	0.053	0.038	0.076	0.070	0.092	0.082	0.042	0.049	0.047
260.0	6.048	7.052	34.87	124.7	104.2	74.35	279.3	 1104	 1239	174.2	6.263	1.643	1.160	0.893	0.779	0.456	0.620	0.448	0.374	0.337	0.374	0.281	0.233	0.222	0.254	0.207	0.176	0.221	0.228	0.205	0.165	0.154	0.123	0.138	0.163	0.137	0.162	0.110	0.096	0.107	0.140	0.199	0.215	0.147	0.235	0.206	0.196	0.149	0.158	0.179	0.312	0.647	0.767	0.574	0.313	0.340	0.511	1.095	2.723	6.192	8.559	7.102	2.895	0.453	0.093	0.057	0.087	0.083	0.092	0.075	0.066	0.066	0.072	0.063	0.028	0.030	0.058
265.0	4.948	4.462	10.62	70.32	147.6	78.23	75.44	425.1	 1350	 1204	130.7	3.080	1.700	1.135	1.014	0.768	0.601	0.506	0.396	0.362	0.276	0.271	0.332	0.300	0.242	0.235	0.214	0.254	0.247	0.159	0.147	0.146	0.153	0.140	0.126	0.101	0.157	0.117	0.161	0.125	0.118	0.165	0.202	0.217	0.260	0.215	0.211	0.173	0.168	0.106	0.158	0.332	0.674	0.767	0.723	0.275	0.242	0.361	0.745	1.897	4.445	8.358	9.565	5.803	1.469	0.137	0.066	0.092	0.045	0.063	0.068	0.060	0.048	0.065	0.055	0.015	0.034
270.0	5.778	5.037	6.045	20.99	82.90	141.8	95.25	112.8	457.2	 1167	 1342	485.1	30.40	1.618	1.167	0.792	0.821	0.560	0.463	0.419	0.347	0.329	0.345	0.325	0.253	0.260	0.246	0.256	0.229	0.182	0.180	0.186	0.204	0.143	0.134	0.140	0.115	0.112	0.101	0.152	0.230	0.139	0.170	0.182	0.225	0.245	0.195	0.154	0.145	0.143	0.133	0.209	0.296	0.420	0.725	0.757	0.825	0.546	0.338	0.514	1.121	2.507	4.594	6.693	7.892	7.423	4.106	1.250	0.156	0.076	0.067	0.072	0.066	0.062	0.054	0.041	0.043
275.0	5.243	5.050	4.935	6.987	22.89	78.39	167.0	120.8	115.2	307.2	954.3	 1606	710.5	29.63	1.581	1.125	0.883	0.631	0.482	0.544	0.466	0.416	0.456	0.323	0.304	0.232	0.240	0.204	0.223	0.246	0.252	0.180	0.174	0.203	0.212	0.131	0.128	0.161	0.119	0.156	0.125	0.117	0.105	0.146	0.261	0.220	0.177	0.181	0.157	0.195	0.182	0.167	0.163	0.167	0.273	0.362	0.711	1.040	0.919	0.487	0.387	0.723	1.146	1.657	2.633	5.428	8.960	9.845	5.333	1.043	0.096	0.067	0.065	0.054	0.074	0.054	0.069
280.0	7.403	8.455	6.734	4.328	9.053	29.23	121.4	181.4	84.69	82.25	303.7	 1151	 1680	517.4	10.18	1.376	0.890	0.905	0.551	0.523	0.527	0.452	0.360	0.312	0.315	0.281	0.261	0.280	0.278	0.201	0.202	0.205	0.191	0.179	0.166	0.166	0.145	0.137	0.117	0.152	0.127	0.109	0.081	0.131	0.192	0.230	0.189	0.203	0.156	0.173	0.180	0.156	0.153	0.176	0.179	0.205	0.333	0.599	1.103	1.132	0.747	0.356	0.384	0.485	0.715	1.527	3.713	7.374	10.53	9.167	3.314	0.382	0.073	0.077	0.063	0.050	0.031
285.0	9.112	9.764	8.513	6.343	6.339	11.58	50.94	167.8	161.2	55.19	87.45	397.7	 1360	 1519	95.93	3.492	1.395	1.135	0.762	0.621	0.568	0.519	0.376	0.390	0.283	0.278	0.290	0.272	0.267	0.235	0.218	0.182	0.192	0.212	0.207	0.183	0.150	0.169	0.121	0.145	0.105	0.114	0.116	0.091	0.115	0.215	0.258	0.219	0.178	0.217	0.207	0.211	0.193	0.212	0.127	0.144	0.204	0.263	0.547	1.063	1.266	0.883	0.368	0.290	0.257	0.445	1.058	2.267	5.303	10.71	11.41	6.915	1.505	0.121	0.079	0.080	0.064
290.0	12.37	13.82	13.26	9.432	8.392	8.944	19.60	71.94	160.0	161.8	81.36	116.6	436.2	 1048	 1262	361.3	22.41	1.563	0.993	0.760	0.615	0.572	0.459	0.437	0.327	0.390	0.251	0.316	0.319	0.232	0.233	0.193	0.187	0.177	0.203	0.165	0.150	0.158	0.157	0.136	0.105	0.173	0.109	0.109	0.096	0.162	0.192	0.229	0.229	0.197	0.193	0.210	0.175	0.177	0.165	0.136	0.187	0.185	0.255	0.431	0.693	0.983	1.119	0.977	0.519	0.335	0.441	0.682	1.417	3.375	5.268	7.505	8.343	7.279	4.297	1.077	0.120
295.0	17.73	20.13	18.33	14.68	11.80	11.10	16.30	30.95	72.85	179.7	190.8	89.03	129.6	277.7	720.9	 1460	544.5	23.22	1.369	1.034	0.745	0.690	0.558	0.448	0.451	0.369	0.331	0.322	0.278	0.247	0.232	0.248	0.184	0.176	0.168	0.177	0.193	0.207	0.148	0.116	0.123	0.174	0.143	0.101	0.142	0.176	0.163	0.198	0.268	0.210	0.208	0.182	0.229	0.180	0.158	0.188	0.139	0.179	0.169	0.226	0.319	0.425	0.666	1.165	1.476	1.058	0.467	0.338	0.503	0.914	1.388	1.917	2.897	5.667	10.54	11.22	4.964
300.0	22.92	25.92	21.68	18.37	14.12	14.64	16.35	24.66	42.79	110.8	234.5	162.5	74.37	89.99	223.6	932.6	 1636	405.5	7.962	1.365	1.039	0.878	0.649	0.588	0.497	0.422	0.403	0.358	0.263	0.218	0.255	0.207	0.223	0.227	0.155	0.195	0.159	0.205	0.162	0.152	0.164	0.198	0.114	0.116	0.130	0.175	0.155	0.144	0.227	0.238	0.228	0.206	0.225	0.223	0.178	0.193	0.192	0.208	0.169	0.216	0.273	0.276	0.359	0.581	1.168	1.623	1.174	0.544	0.401	0.427	0.426	0.578	0.817	1.692	4.417	9.584	11.88
305.0	20.82	26.09	27.46	20.69	17.29	15.65	18.57	25.09	37.68	66.15	168.3	249.8	119.9	53.25	71.93	306.6	 1182	 1587	61.91	2.858	1.274	1.010	0.774	0.630	0.542	0.523	0.492	0.436	0.296	0.379	0.268	0.260	0.242	0.209	0.190	0.212	0.166	0.215	0.168	0.159	0.141	0.171	0.126	0.121	0.123	0.169	0.146	0.147	0.190	0.209	0.256	0.191	0.231	0.261	0.195	0.190	0.264	0.229	0.222	0.255	0.260	0.250	0.262	0.367	0.619	1.058	1.504	1.338	0.778	0.351	0.325	0.345	0.379	0.533	1.216	3.008	6.689
310.0	23.77	25.60	30.45	23.52	19.09	20.13	22.28	27.07	37.67	52.33	92.52	178.2	220.4	95.59	43.15	85.65	356.3	 1002	 1374	582.8	16.27	1.358	0.997	0.799	0.711	0.548	0.466	0.401	0.324	0.363	0.295	0.239	0.248	0.241	0.236	0.207	0.177	0.200	0.189	0.142	0.149	0.181	0.156	0.164	0.126	0.147	0.138	0.151	0.181	0.195	0.196	0.255	0.272	0.264	0.195	0.206	0.227	0.248	0.235	0.269	0.255	0.269	0.308	0.345	0.399	0.583	0.763	1.082	1.289	1.193	0.683	0.360	0.286	0.253	0.457	0.840	1.709
315.0	23.62	27.21	30.15	25.54	21.82	21.34	26.50	32.01	41.54	51.53	69.31	94.20	161.1	209.4	85.45	39.01	93.81	249.7	671.7	 1614	408.1	16.68	1.261	1.120	0.783	0.643	0.619	0.487	0.402	0.440	0.380	0.252	0.248	0.212	0.197	0.196	0.235	0.215	0.215	0.190	0.187	0.195	0.227	0.149	0.162	0.165	0.173	0.120	0.175	0.177	0.141	0.232	0.232	0.281	0.167	0.237	0.234	0.245	0.266	0.279	0.277	0.280	0.296	0.304	0.334	0.429	0.471	0.635	0.683	1.027	1.329	1.130	0.581	0.299	0.253	0.367	0.538
320.0	28.12	33.93	42.51	29.33	25.72	24.20	30.74	37.01	45.63	55.74	68.29	79.38	104.6	187.5	177.2	49.90	38.82	69.23	190.7	897.8	 1722	319.6	6.008	1.406	1.046	0.738	0.574	0.544	0.552	0.429	0.387	0.246	0.244	0.210	0.169	0.192	0.196	0.224	0.214	0.203	0.200	0.196	0.229	0.161	0.157	0.164	0.192	0.215	0.225	0.213	0.142	0.202	0.257	0.288	0.229	0.249	0.245	0.244	0.306	0.287	0.294	0.303	0.372	0.303	0.356	0.407	0.404	0.456	0.502	0.523	0.900	1.285	1.350	0.622	0.303	0.234	0.274
325.0	35.59	51.87	57.15	39.68	30.87	29.73	34.01	40.10	50.87	59.23	75.33	79.14	86.71	122.4	198.8	93.98	34.53	31.91	55.25	266.7	 1183	 1654	48.40	2.511	1.282	0.931	0.832	0.649	0.520	0.442	0.445	0.301	0.348	0.253	0.226	0.292	0.205	0.231	0.159	0.240	0.185	0.171	0.219	0.156	0.175	0.184	0.243	0.250	0.285	0.253	0.258	0.220	0.234	0.279	0.266	0.275	0.337	0.240	0.271	0.364	0.299	0.286	0.402	0.384	0.410	0.419	0.420	0.539	0.492	0.512	0.565	0.775	1.133	1.286	0.789	0.319	0.217
330.0	41.88	64.62	75.60	49.25	39.77	36.21	38.52	44.73	54.17	65.40	80.10	86.30	87.48	89.70	124.3	162.3	102.4	35.70	28.65	72.43	333.8	 1036	 1333	542.9	13.65	1.388	1.001	0.789	0.649	0.488	0.471	0.409	0.348	0.300	0.310	0.337	0.218	0.234	0.236	0.237	0.193	0.171	0.184	0.149	0.160	0.210	0.251	0.264	0.345	0.343	0.276	0.242	0.219	0.229	0.269	0.312	0.347	0.308	0.350	0.360	0.353	0.339	0.405	0.443	0.439	0.511	0.433	0.546	0.540	0.493	0.484	0.490	0.638	0.828	1.024	1.024	0.715
335.0	43.04	77.84	94.48	65.69	52.03	48.35	49.09	55.73	61.17	75.38	88.11	95.38	97.62	92.87	89.63	108.2	170.8	74.11	32.04	34.11	87.84	251.6	644.1	 1676	339.2	14.61	1.435	0.903	0.814	0.613	0.528	0.459	0.424	0.336	0.312	0.310	0.230	0.194	0.259	0.255	0.170	0.164	0.191	0.205	0.212	0.272	0.249	0.323	0.393	0.409	0.291	0.342	0.296	0.272	0.279	0.356	0.363	0.362	0.408	0.378	0.359	0.389	0.431	0.481	0.487	0.544	0.461	0.510	0.559	0.447	0.452	0.568	0.570	0.514	0.601	0.805	1.115
340.0	53.86	87.50	111.2	79.74	68.48	57.57	61.01	65.61	70.42	82.50	95.29	107.4	108.4	105.7	93.89	84.17	131.4	161.8	57.47	30.27	38.31	71.01	176.6	937.6	 1752	272.6	5.514	1.355	1.024	0.796	0.576	0.442	0.404	0.412	0.285	0.297	0.273	0.285	0.288	0.264	0.208	0.217	0.175	0.189	0.231	0.297	0.286	0.304	0.403	0.419	0.348	0.430	0.366	0.275	0.315	0.358	0.389	0.506	0.404	0.477	0.474	0.409	0.510	0.455	0.492	0.551	0.566	0.579	0.647	0.580	0.510	0.627	0.540	0.527	0.474	0.495	0.746
345.0	48.82	89.07	115.5	87.97	74.69	67.74	66.81	72.58	77.11	87.91	99.79	111.4	114.3	112.7	98.73	82.22	90.20	155.7	124.8	41.49	31.31	34.49	54.26	273.1	 1296	 1597	42.13	2.464	1.050	0.896	0.642	0.548	0.457	0.400	0.422	0.369	0.307	0.223	0.271	0.296	0.204	0.186	0.193	0.199	0.264	0.255	0.286	0.327	0.392	0.419	0.374	0.443	0.335	0.350	0.390	0.347	0.344	0.497	0.498	0.490	0.546	0.455	0.442	0.517	0.530	0.512	0.571	0.590	0.694	0.616	0.645	0.592	0.606	0.552	0.522	0.386	0.513
350.0	51.31	86.22	113.8	97.25	85.81	77.62	73.43	78.09	79.70	90.38	103.7	111.6	119.2	117.8	104.9	87.77	77.37	97.89	141.1	99.72	44.23	31.75	31.04	75.99	359.6	 1072	 1440	538.0	11.93	1.285	0.960	0.652	0.524	0.453	0.447	0.376	0.318	0.264	0.214	0.262	0.217	0.217	0.187	0.226	0.238	0.276	0.273	0.311	0.402	0.429	0.394	0.445	0.398	0.377	0.462	0.362	0.398	0.455	0.474	0.568	0.573	0.455	0.538	0.520	0.573	0.545	0.577	0.606	0.673	0.654	0.629	0.632	0.625	0.610	0.535	0.459	0.495
355.0	54.32	85.56	112.6	103.7	95.22	91.08	86.39	87.84	87.86	93.04	105.3	115.0	121.1	122.2	112.9	92.78	79.52	78.74	90.71	137.4	108.0	44.10	32.19	37.50	94.94	256.2	694.5	 1828	309.2	13.49	1.365	0.949	0.633	0.486	0.487	0.454	0.330	0.280	0.213	0.275	0.219	0.167	0.208	0.255	0.201	0.293	0.262	0.333	0.435	0.426	0.410	0.463	0.417	0.412	0.416	0.453	0.404	0.355	0.405	0.551	0.531	0.507	0.570	0.618	0.511	0.583	0.553	0.622	0.616	0.665	0.713	0.750	0.618	0.602	0.554	0.549	0.624
360.0	52.23	82.76	114.6	106.8	104.4	98.27	92.74	95.13	92.26	97.61	108.2	119.1	122.6	125.7	116.9	97.75	84.99	78.71	76.99	103.6	145.9	60.04	37.73	33.00	39.70	70.38	182.6	 1065	 1610	250.7	4.526	1.041	0.891	0.563	0.486	0.496	0.337	0.340	0.256	0.327	0.287	0.207	0.181	0.234	0.207	0.280	0.275	0.333	0.380	0.381	0.406	0.437	0.446	0.459	0.493	0.466	0.499	0.393	0.458	0.522	0.603	0.564	0.622	0.606	0.523	0.525	0.672	0.705	0.670	0.643	0.728	0.707	0.684	0.649	0.561	0.556	0.627
365.0	50.64	79.08	110.3	112.7	107.0	105.6	97.95	99.03	97.54	99.56	110.8	118.9	123.8	125.6	119.3	101.8	89.17	81.34	75.94	81.77	127.3	123.4	52.25	35.85	30.69	32.34	52.60	296.0	 1245	 1477	39.27	2.219	0.992	0.693	0.560	0.450	0.414	0.361	0.326	0.284	0.275	0.190	0.216	0.216	0.299	0.272	0.278	0.322	0.388	0.407	0.385	0.460	0.451	0.578	0.528	0.513	0.425	0.489	0.491	0.562	0.533	0.663	0.603	0.589	0.585	0.620	0.638	0.668	0.635	0.718	0.698	0.678	0.593	0.677	0.595	0.654	0.546
370.0	47.06	75.79	108.0	114.5	114.0	111.8	104.1	103.9	101.4	103.4	114.5	120.2	124.1	125.7	120.7	106.1	97.00	90.18	83.30	79.74	90.62	123.4	112.0	57.33	36.32	29.37	28.71	78.42	344.0	 1033	 1299	452.9	10.93	1.154	0.775	0.552	0.408	0.400	0.349	0.312	0.295	0.256	0.256	0.251	0.246	0.248	0.284	0.344	0.398	0.456	0.426	0.484	0.501	0.537	0.553	0.502	0.502	0.493	0.524	0.476	0.540	0.624	0.611	0.633	0.625	0.591	0.660	0.692	0.704	0.757	0.642	0.722	0.652	0.623	0.632	0.575	0.592
375.0	47.44	76.04	105.5	123.3	121.8	116.8	111.9	108.2	105.8	109.0	119.9	124.2	131.6	129.8	123.7	113.5	103.6	98.68	92.25	86.79	83.46	89.01	120.0	114.5	50.96	36.64	30.70	38.33	90.81	247.9	667.4	 1577	270.0	12.32	1.077	0.682	0.519	0.523	0.365	0.286	0.273	0.244	0.294	0.247	0.245	0.294	0.294	0.385	0.417	0.408	0.433	0.517	0.532	0.517	0.545	0.517	0.509	0.578	0.587	0.480	0.546	0.621	0.570	0.614	0.660	0.621	0.668	0.701	0.701	0.732	0.641	0.782	0.701	0.611	0.692	0.621	0.644
380.0	46.65	82.43	107.6	125.2	132.0	125.4	118.6	114.8	111.6	113.5	125.4	131.1	138.5	135.8	126.1	116.6	110.7	104.4	98.27	92.98	86.81	83.04	95.36	136.0	87.24	45.41	37.44	33.94	39.20	69.38	180.1	923.3	 1470	221.5	4.198	0.955	0.735	0.521	0.482	0.297	0.295	0.277	0.317	0.242	0.315	0.311	0.291	0.306	0.394	0.401	0.399	0.484	0.588	0.608	0.592	0.566	0.583	0.569	0.613	0.509	0.557	0.648	0.598	0.643	0.736	0.639	0.657	0.686	0.705	0.755	0.763	0.735	0.770	0.745	0.677	0.650	0.662
385.0	46.75	82.19	110.4	125.8	138.0	134.1	122.7	117.8	116.5	118.3	124.3	131.0	141.8	141.3	130.3	120.0	116.0	109.7	103.1	95.63	90.63	84.66	84.07	112.4	124.2	64.33	43.45	38.06	31.17	32.43	57.19	267.7	 1146	 1322	32.69	1.785	0.860	0.613	0.601	0.400	0.347	0.282	0.276	0.249	0.296	0.252	0.322	0.313	0.401	0.390	0.434	0.532	0.597	0.648	0.636	0.558	0.645	0.653	0.617	0.544	0.521	0.655	0.565	0.590	0.760	0.659	0.673	0.708	0.732	0.744	0.805	0.839	0.743	0.724	0.736	0.732	0.633
390.0	46.63	76.75	103.3	130.9	140.2	134.1	124.6	119.2	118.5	120.0	126.4	130.1	139.3	138.3	130.3	123.9	119.6	116.1	107.6	101.0	94.98	88.58	82.68	88.47	109.7	106.0	62.03	42.59	32.09	26.69	30.58	75.79	316.1	923.4	 1060	379.0	9.195	0.848	0.674	0.501	0.409	0.278	0.290	0.325	0.272	0.265	0.311	0.334	0.411	0.403	0.468	0.496	0.590	0.658	0.640	0.593	0.650	0.622	0.629	0.641	0.597	0.686	0.692	0.636	0.689	0.656	0.670	0.725	0.717	0.766	0.746	0.712	0.747	0.754	0.757	0.745	0.693
395.0	48.91	73.48	105.1	129.9	140.2	132.6	130.5	126.6	123.8	123.4	129.8	129.7	136.1	135.3	130.9	126.6	121.9	118.7	111.3	104.6	97.58	91.29	85.78	81.98	83.09	100.9	104.0	57.30	37.23	30.22	27.50	34.88	81.02	217.3	540.9	 1308	227.4	11.25	0.844	0.666	0.450	0.351	0.312	0.316	0.275	0.331	0.305	0.343	0.401	0.436	0.407	0.532	0.616	0.625	0.618	0.587	0.621	0.563	0.604	0.601	0.586	0.605	0.665	0.668	0.645	0.641	0.691	0.655	0.775	0.715	0.791	0.669	0.717	0.781	0.693	0.753	0.770
400.0	49.20	74.93	106.7	129.3	143.6	142.3	130.9	126.3	126.6	124.9	130.4	130.8	136.0	134.3	130.8	128.0	122.9	119.3	111.6	104.3	98.51	92.91	87.25	83.20	77.27	81.27	110.4	86.25	45.63	33.90	30.84	29.20	30.85	56.29	138.7	756.9	 1176	189.6	3.873	0.728	0.504	0.417	0.338	0.352	0.300	0.302	0.318	0.348	0.390	0.453	0.462	0.616	0.637	0.618	0.594	0.668	0.707	0.611	0.630	0.625	0.667	0.620	0.636	0.645	0.598	0.644	0.603	0.741	0.782	0.747	0.758	0.771	0.789	0.801	0.756	0.776	0.765
405.0	47.69	69.29	111.4	128.2	140.4	137.7	133.0	128.4	127.2	127.0	131.3	129.0	138.8	132.5	126.4	124.7	122.8	118.9	112.1	104.5	99.28	93.29	89.56	84.15	76.52	73.45	89.65	107.8	62.10	38.07	33.36	30.01	22.02	21.09	37.23	205.8	866.1	 1062	29.52	1.574	0.678	0.533	0.431	0.302	0.323	0.255	0.343	0.400	0.438	0.409	0.512	0.570	0.635	0.662	0.608	0.650	0.739	0.700	0.627	0.663	0.680	0.602	0.676	0.603	0.595	0.675	0.581	0.693	0.660	0.718	0.718	0.673	0.754	0.774	0.774	0.774	0.782
410.0	47.61	70.16	104.0	125.8	138.3	136.2	135.7	131.0	128.1	123.4	128.5	127.3	131.6	128.4	123.5	120.4	119.5	115.3	109.1	102.8	96.69	92.64	87.36	83.34	77.30	70.63	71.31	88.12	88.25	54.52	36.38	30.50	21.34	15.34	15.92	51.47	231.0	718.9	999.6	302.0	8.442	0.674	0.509	0.387	0.397	0.323	0.353	0.380	0.447	0.405	0.491	0.568	0.580	0.665	0.612	0.673	0.645	0.650	0.630	0.659	0.665	0.589	0.628	0.589	0.685	0.651	0.607	0.673	0.687	0.694	0.760	0.769	0.754	0.735	0.745	0.764	0.733
415.0	48.20	66.49	100.8	120.4	135.8	135.7	132.5	131.6	124.2	122.3	122.4	124.1	122.8	123.2	118.4	115.6	113.7	111.4	104.5	98.13	93.04	89.87	85.54	81.35	76.67	69.42	65.32	66.40	77.15	82.96	45.67	32.01	22.18	16.15	13.13	18.08	56.61	167.3	487.3	991.7	203.9	10.48	0.735	0.551	0.440	0.418	0.402	0.361	0.382	0.430	0.411	0.525	0.508	0.659	0.587	0.639	0.666	0.607	0.606	0.614	0.669	0.664	0.687	0.586	0.721	0.540	0.662	0.547	0.693	0.646	0.701	0.697	0.594	0.722	0.692	0.700	0.804
420.0	46.48	70.29	91.96	118.5	125.2	134.8	136.2	130.7	126.4	120.6	121.5	119.4	120.2	118.5	114.3	112.3	110.0	106.9	100.5	94.82	90.45	87.35	82.72	79.23	74.77	68.71	64.37	59.90	61.32	81.49	68.36	36.80	24.30	17.91	13.80	12.19	18.29	41.67	121.5	557.0	964.6	172.7	3.917	0.653	0.535	0.444	0.451	0.385	0.430	0.481	0.470	0.505	0.540	0.627	0.665	0.642	0.658	0.609	0.717	0.567	0.642	0.574	0.667	0.534	0.673	0.547	0.653	0.584	0.646	0.604	0.678	0.664	0.684	0.702	0.687	0.670	0.837
425.0	49.10	64.95	92.32	116.9	129.0	129.3	133.0	128.6	127.2	121.0	122.1	116.4	114.5	113.2	108.7	105.9	104.5	101.0	95.54	90.84	87.18	82.88	79.92	77.65	73.39	68.41	63.57	59.20	54.70	65.49	80.48	45.44	27.04	19.90	14.74	11.60	10.88	14.00	31.20	149.7	710.6	847.0	27.99	1.342	0.614	0.485	0.410	0.385	0.394	0.436	0.478	0.518	0.622	0.594	0.573	0.596	0.626	0.568	0.687	0.619	0.747	0.658	0.674	0.600	0.629	0.597	0.634	0.616	0.613	0.695	0.689	0.688	0.656	0.606	0.678	0.638	0.781
430.0	45.17	63.57	92.36	112.5	125.5	128.7	127.5	128.0	124.7	118.9	118.1	114.0	112.2	107.7	102.6	100.8	96.58	94.52	91.93	86.36	83.10	79.93	77.16	74.09	71.15	66.61	63.44	58.82	53.94	53.97	64.98	66.67	40.61	23.50	16.84	13.18	10.67	9.097	11.63	36.84	189.9	566.0	689.7	117.3	8.213	0.702	0.462	0.455	0.412	0.458	0.444	0.543	0.594	0.537	0.594	0.542	0.600	0.651	0.675	0.631	0.664	0.633	0.622	0.601	0.625	0.640	0.586	0.531	0.645	0.613	0.621	0.657	0.637	0.608	0.657	0.647	0.662
435.0	63.45	66.01	89.39	106.9	120.5	125.0	122.6	128.9	124.6	117.7	115.5	108.6	107.2	99.84	98.07	94.54	91.20	88.52	83.91	81.28	77.44	75.48	73.41	70.34	68.53	65.06	62.66	58.80	53.80	51.50	51.44	58.06	59.91	33.33	19.62	15.46	11.95	9.155	8.212	12.51	45.25	130.9	331.6	841.1	194.5	9.389	0.639	0.558	0.537	0.471	0.466	0.518	0.524	0.521	0.645	0.558	0.570	0.679	0.722	0.602	0.661	0.642	0.609	0.573	0.596	0.609	0.655	0.609	0.644	0.547	0.523	0.615	0.584	0.480	0.574	0.580	0.635
440.0	98.90	63.76	86.71	102.0	117.4	119.2	123.3	125.1	121.0	119.8	112.5	109.5	102.3	95.59	91.99	87.78	85.31	83.27	80.59	76.29	73.93	72.94	69.54	68.72	65.58	63.31	60.67	57.27	53.39	50.20	46.81	47.05	58.97	47.63	24.18	16.89	13.21	10.24	8.039	7.741	13.60	32.00	83.20	504.4	877.5	155.1	2.654	0.623	0.597	0.485	0.469	0.574	0.563	0.573	0.648	0.532	0.580	0.630	0.593	0.628	0.615	0.611	0.640	0.586	0.557	0.535	0.552	0.547	0.629	0.520	0.464	0.522	0.605	0.495	0.542	0.555	0.544
445.0	145.7	62.26	82.87	97.15	111.1	114.4	119.7	121.9	118.7	115.8	113.5	106.8	98.83	93.13	87.29	83.68	83.10	79.60	76.01	73.37	71.44	68.67	67.01	66.23	63.54	61.08	58.94	56.20	53.63	50.61	45.59	42.43	48.30	54.25	33.15	18.83	14.43	11.07	8.783	6.945	7.010	10.16	21.09	139.1	672.8	809.0	22.86	1.355	0.686	0.532	0.485	0.509	0.488	0.585	0.654	0.569	0.619	0.582	0.700	0.669	0.673	0.611	0.627	0.569	0.552	0.539	0.554	0.521	0.500	0.563	0.576	0.521	0.548	0.427	0.468	0.508	0.529
450.0	154.6	115.6	77.45	90.96	106.4	107.2	113.7	115.2	113.7	111.7	110.5	102.4	95.11	87.29	82.46	77.00	75.55	73.06	69.95	68.01	65.27	63.91	62.51	61.36	59.64	58.59	55.97	54.05	51.75	49.11	45.30	41.35	39.12	44.02	44.40	27.65	16.50	12.49	9.733	7.614	6.273	5.855	7.660	33.44	178.8	573.3	677.0	243.7	6.749	0.651	0.517	0.535	0.564	0.542	0.595	0.521	0.655	0.644	0.657	0.583	0.600	0.625	0.547	0.589	0.569	0.565	0.540	0.506	0.493	0.479	0.481	0.542	0.517	0.478	0.478	0.483	0.522
455.0	101.4	184.2	98.21	83.30	97.13	102.1	107.4	106.7	106.9	107.0	103.6	95.04	86.35	81.20	75.36	71.40	67.85	64.57	64.21	62.04	59.87	57.84	56.43	57.02	54.96	54.06	53.06	50.85	49.41	46.70	44.37	40.00	35.12	33.40	37.50	39.37	23.55	13.45	10.91	8.668	6.913	5.605	5.114	10.00	42.01	132.3	330.0	753.4	165.1	7.676	0.704	0.559	0.567	0.623	0.579	0.482	0.574	0.667	0.601	0.577	0.610	0.530	0.558	0.568	0.539	0.494	0.579	0.470	0.527	0.448	0.439	0.509	0.407	0.468	0.431	0.432	0.476
460.0	58.85	187.7	161.5	82.38	92.81	94.90	100.5	101.3	100.6	103.0	98.24	91.18	82.00	74.86	70.32	66.01	63.97	59.90	58.53	56.37	54.49	53.92	53.77	52.73	52.30	50.91	49.71	48.43	47.68	46.36	43.72	39.01	33.86	30.13	29.65	37.92	32.05	16.47	11.53	8.883	6.951	5.757	4.919	5.098	11.58	31.53	81.76	422.3	790.2	122.3	2.805	0.683	0.558	0.653	0.603	0.557	0.564	0.618	0.539	0.530	0.617	0.578	0.534	0.595	0.506	0.455	0.518	0.504	0.490	0.447	0.425	0.439	0.429	0.384	0.438	0.407	0.410
465.0	36.54	138.2	253.1	97.95	84.29	93.21	97.83	97.09	96.34	97.73	94.18	88.06	79.00	71.15	65.76	60.96	59.74	56.22	53.83	51.77	50.53	50.42	49.91	48.95	48.27	47.10	47.16	45.81	45.17	43.91	41.49	37.74	33.40	29.44	26.13	29.79	35.16	21.52	12.70	9.431	7.259	6.010	4.854	4.149	5.024	8.974	20.11	113.8	615.2	646.2	18.68	1.291	0.635	0.631	0.586	0.557	0.559	0.576	0.478	0.523	0.542	0.605	0.512	0.540	0.481	0.463	0.500	0.428	0.476	0.432	0.450	0.479	0.411	0.432	0.423	0.466	0.440
470.0	30.72	70.64	270.8	230.2	87.91	84.25	88.08	91.93	90.90	90.28	88.12	80.51	72.33	65.99	58.64	54.46	52.22	50.44	48.53	46.81	45.66	45.01	44.42	44.61	43.54	43.06	42.50	42.28	41.47	40.03	38.46	34.82	31.21	27.42	24.03	22.86	27.23	27.40	17.89	10.56	7.831	6.235	5.173	4.262	3.867	4.191	6.356	27.14	164.3	450.5	570.8	92.97	6.446	0.633	0.622	0.572	0.544	0.556	0.485	0.534	0.532	0.512	0.522	0.458	0.481	0.486	0.460	0.472	0.424	0.401	0.381	0.419	0.395	0.375	0.396	0.367	0.360
475.0	30.39	46.06	146.6	393.2	150.1	80.09	82.54	83.92	82.55	83.98	80.89	74.95	67.03	58.59	53.40	49.48	45.99	44.25	41.71	41.60	40.49	39.45	39.02	39.33	38.63	38.72	37.87	37.52	38.31	36.98	35.14	32.97	29.55	26.33	22.53	19.73	19.55	23.06	23.89	14.28	8.407	6.435	5.564	4.680	3.892	3.328	3.328	7.750	37.97	103.4	256.1	545.7	153.6	7.365	0.645	0.613	0.562	0.508	0.418	0.452	0.506	0.582	0.460	0.511	0.397	0.427	0.409	0.391	0.396	0.378	0.298	0.327	0.316	0.300	0.345	0.311	0.322
480.0	35.81	38.60	78.66	378.2	290.9	76.40	71.75	77.66	75.80	79.73	74.92	70.65	63.32	55.62	49.79	45.88	42.46	39.98	38.48	38.02	36.79	36.54	35.19	35.84	36.31	35.21	35.09	34.39	35.43	34.77	32.83	30.67	27.65	24.61	21.93	19.20	17.06	17.80	23.33	19.11	9.704	6.958	5.682	4.803	3.888	3.242	2.840	3.558	9.938	24.37	62.53	297.5	564.6	125.5	2.654	0.599	0.642	0.579	0.476	0.401	0.472	0.509	0.426	0.486	0.405	0.367	0.367	0.324	0.352	0.349	0.301	0.315	0.309	0.376	0.336	0.359	0.300
485.0	32.22	39.69	49.63	249.3	446.2	116.9	69.35	71.56	71.25	72.70	69.95	65.70	59.59	53.19	46.41	42.40	39.26	36.94	35.21	35.03	33.70	33.45	32.23	33.81	33.11	32.77	32.27	33.04	32.49	32.56	31.15	28.60	26.79	23.95	20.76	18.69	16.16	14.61	18.26	21.30	13.83	7.694	5.709	4.922	3.867	3.478	2.871	2.680	3.715	6.686	15.23	77.89	425.4	539.8	22.22	1.093	0.602	0.583	0.534	0.462	0.411	0.437	0.454	0.451	0.437	0.362	0.376	0.334	0.362	0.350	0.346	0.356	0.322	0.326	0.298	0.338	0.279
490.0	32.74	44.02	41.75	105.1	424.7	311.4	75.70	67.62	67.92	68.81	66.04	60.17	54.51	47.00	42.26	38.19	35.83	33.98	32.28	31.22	30.87	29.73	30.07	30.05	29.80	29.99	29.43	29.68	29.48	29.64	28.61	26.88	24.46	22.03	19.66	17.13	15.45	13.59	13.39	16.79	17.79	10.89	6.290	5.075	4.185	3.611	3.072	2.721	2.511	2.889	4.705	18.52	111.8	347.6	441.6	96.72	6.259	0.678	0.518	0.469	0.430	0.454	0.458	0.404	0.429	0.386	0.383	0.361	0.315	0.346	0.305	0.321	0.301	0.299	0.268	0.265	0.308
495.0	22.74	44.52	41.77	57.09	208.6	488.1	166.4	62.18	62.35	63.66	59.99	54.68	51.04	43.93	37.79	34.56	31.31	30.09	29.07	28.04	26.91	26.94	26.05	26.45	26.52	26.64	26.30	26.44	26.59	26.98	25.97	24.99	21.92	20.12	18.21	16.36	14.23	12.87	11.29	11.35	14.27	14.79	9.009	5.382	4.379	3.755	3.181	2.874	2.365	2.191	2.223	5.266	25.98	80.04	229.0	514.5	157.6	6.528	0.578	0.458	0.447	0.449	0.418	0.415	0.410	0.382	0.328	0.339	0.303	0.362	0.303	0.299	0.254	0.249	0.292	0.261	0.245
500.0	18.30	40.43	51.56	44.35	94.72	424.3	324.6	66.75	56.80	56.83	54.65	50.89	43.79	40.27	35.61	31.51	28.56	27.59	26.61	24.86	24.37	23.92	24.27	23.77	24.07	23.64	23.29	24.20	24.28	24.72	23.69	22.35	20.24	18.76	16.77	15.28	13.39	11.56	10.60	9.570	10.60	14.41	11.83	6.358	4.432	3.701	3.281	2.780	2.459	2.132	1.806	2.288	6.843	18.89	56.70	286.2	527.3	124.9	2.065	0.562	0.390	0.392	0.410	0.400	0.320	0.349	0.364	0.357	0.268	0.297	0.295	0.259	0.260	0.275	0.233	0.211	0.270
505.0	12.92	33.81	58.04	43.72	56.35	253.0	467.0	116.6	54.26	53.04	52.01	46.63	42.33	36.96	32.41	28.63	27.07	24.61	23.56	22.77	21.96	21.54	21.90	21.64	21.42	21.48	21.83	21.34	21.94	22.18	21.72	20.80	19.02	17.45	15.46	14.37	12.34	11.03	9.890	8.812	8.599	11.24	13.58	8.081	4.729	3.754	3.309	2.866	2.541	2.207	1.884	1.775	2.582	5.105	13.54	75.69	382.4	472.9	22.68	0.859	0.408	0.415	0.375	0.405	0.309	0.327	0.312	0.326	0.275	0.251	0.276	0.231	0.232	0.264	0.240	0.234	0.236
510.0	13.14	24.39	51.25	50.41	40.83	101.3	381.1	319.7	61.77	47.49	43.79	41.90	36.14	31.86	28.58	25.37	23.62	21.14	20.22	19.90	18.82	18.73	18.96	18.89	18.95	18.78	18.72	19.17	19.25	19.82	19.07	18.52	16.81	15.47	13.52	12.85	11.60	10.04	9.175	8.194	7.416	7.760	10.62	10.71	6.773	4.083	3.324	2.857	2.426	2.112	1.984	1.643	1.617	2.116	3.930	17.74	100.1	298.2	283.3	98.84	5.806	0.472	0.356	0.332	0.310	0.266	0.276	0.283	0.261	0.249	0.250	0.247	0.216	0.219	0.233	0.216	0.221
515.0	11.00	17.67	37.30	58.33	39.46	50.40	165.2	447.2	166.3	41.67	39.48	35.28	31.85	27.50	24.80	22.18	20.09	17.64	17.97	17.39	15.86	16.03	16.55	15.93	16.20	16.25	16.08	16.53	16.73	16.38	16.26	15.70	14.60	13.69	11.92	10.90	10.15	9.200	8.225	7.487	6.387	6.102	6.575	9.225	9.039	5.659	3.311	2.736	2.306	2.029	1.932	1.711	1.515	1.509	1.753	4.786	23.04	68.12	149.3	403.3	143.7	4.558	0.420	0.326	0.312	0.255	0.293	0.265	0.219	0.211	0.262	0.196	0.205	0.208	0.192	0.204	0.177
520.0	9.383	15.02	27.07	56.71	42.56	35.44	71.46	352.6	327.4	47.50	36.41	32.48	28.88	25.05	22.75	19.75	17.96	16.78	15.82	15.36	14.75	14.21	14.81	14.44	14.21	14.58	14.63	14.36	14.89	14.89	15.15	14.43	13.31	12.01	11.07	10.17	9.322	8.185	7.481	6.884	5.875	5.552	5.200	6.644	9.194	7.298	3.775	2.716	2.319	2.091	1.714	1.675	1.653	1.341	1.321	1.834	5.868	15.86	36.89	224.7	390.2	25.78	1.479	0.381	0.323	0.308	0.279	0.235	0.260	0.184	0.186	0.155	0.173	0.215	0.164	0.179	0.171
525.0	10.20	13.27	21.23	46.40	52.20	31.04	41.04	190.4	441.3	106.1	33.27	29.36	26.91	22.68	20.65	18.23	16.25	15.00	14.27	13.53	13.66	12.85	13.31	12.85	12.86	13.28	13.43	13.25	13.37	13.82	13.69	12.92	12.05	11.16	10.19	9.215	8.657	7.485	6.751	6.316	5.678	5.019	4.693	4.663	7.246	8.272	5.231	2.867	2.207	1.995	1.730	1.700	1.541	1.315	1.113	1.102	1.994	4.185	8.895	58.94	275.9	310.2	21.30	0.676	0.328	0.259	0.295	0.251	0.200	0.206	0.167	0.199	0.181	0.175	0.157	0.176	0.165
530.0	9.888	12.30	17.06	29.50	53.72	35.42	31.17	74.16	320.8	287.0	51.22	26.72	23.40	20.21	18.25	15.16	14.04	12.99	12.10	11.91	11.64	11.50	11.12	11.04	10.85	11.27	11.38	11.13	11.51	12.15	11.73	11.14	10.35	9.579	8.651	8.063	7.407	6.590	6.116	5.509	5.035	4.521	4.037	3.884	4.632	6.522	6.676	4.086	2.250	1.817	1.622	1.542	1.334	1.272	1.091	0.885	1.073	1.526	2.495	13.69	71.62	206.2	234.3	88.54	4.375	0.335	0.256	0.232	0.199	0.199	0.152	0.165	0.168	0.159	0.183	0.192	0.177
535.0	7.923	11.69	14.35	20.09	40.56	50.72	27.63	35.87	122.9	363.8	169.5	24.09	20.23	17.91	15.54	13.33	12.14	11.89	10.45	9.487	9.925	9.480	9.746	9.676	9.280	9.645	9.828	9.404	9.842	9.783	10.13	9.571	8.817	8.109	7.735	7.024	6.364	5.813	5.561	4.869	4.435	4.112	3.548	3.462	3.262	4.022	5.776	5.595	3.152	1.739	1.476	1.406	1.279	1.054	1.088	0.979	0.910	0.953	1.054	3.476	16.45	47.08	113.5	301.7	121.5	3.160	0.243	0.279	0.175	0.197	0.180	0.118	0.142	0.148	0.134	0.189	0.147
540.0	6.638	10.09	12.30	15.50	29.00	51.31	28.45	24.81	48.02	255.9	331.0	37.34	18.43	15.81	13.77	11.76	10.90	10.17	9.620	8.771	8.495	8.261	8.694	8.471	8.120	8.423	8.578	8.561	8.960	8.757	8.948	8.404	7.952	7.087	7.028	6.302	5.871	5.411	4.987	4.261	4.034	3.762	3.249	3.296	2.860	2.991	4.040	5.495	4.305	2.071	1.439	1.288	1.121	1.013	0.983	1.090	0.917	0.764	0.673	1.206	4.059	10.93	27.67	164.2	299.9	24.92	0.972	0.288	0.207	0.207	0.175	0.120	0.160	0.133	0.123	0.135	0.136
545.0	9.152	10.24	12.51	13.06	19.07	46.53	36.92	21.68	26.60	128.3	383.7	113.4	16.77	14.77	13.13	10.75	9.390	9.323	8.928	8.040	7.889	7.525	7.869	7.350	7.396	7.372	7.519	7.785	7.614	7.919	7.805	7.517	7.444	6.584	5.959	5.485	5.236	4.717	4.284	3.948	3.589	3.302	3.012	2.890	2.678	2.443	2.721	4.332	4.891	2.722	1.608	1.222	1.024	1.019	0.907	0.992	0.964	0.752	0.578	0.670	1.272	2.854	6.664	42.74	212.1	201.8	19.71	0.424	0.239	0.208	0.121	0.179	0.117	0.095	0.120	0.113	0.108
550.0	8.376	7.434	11.38	12.35	13.94	29.79	41.66	23.31	20.17	48.14	233.6	268.8	40.73	12.66	10.26	9.294	8.358	7.805	7.396	6.823	6.809	6.812	6.791	6.483	6.575	6.291	6.431	6.457	6.578	6.861	6.576	6.310	6.266	5.470	5.223	4.799	4.485	4.239	3.845	3.643	3.188	2.974	2.628	2.529	2.328	2.205	2.142	2.662	3.978	3.668	2.248	1.264	0.975	0.851	0.793	0.751	0.836	0.818	0.589	0.562	0.668	0.978	1.782	9.911	54.96	146.9	192.0	73.53	3.422	0.211	0.171	0.175	0.119	0.101	0.109	0.127	0.084
555.0	5.771	5.868	9.321	11.29	11.24	17.10	34.73	28.98	16.25	21.79	79.57	267.9	138.9	11.65	8.610	7.679	7.006	6.335	6.160	6.033	5.547	5.554	5.371	5.375	5.079	5.345	5.366	5.237	5.662	5.619	5.329	5.232	5.238	4.383	4.349	3.851	3.670	3.685	3.285	2.992	2.615	2.596	2.277	2.190	1.933	1.828	1.659	1.812	2.400	3.245	3.122	1.705	0.885	0.832	0.691	0.667	0.658	0.680	0.706	0.481	0.498	0.493	0.691	2.552	12.49	33.50	87.41	220.0	26.84	2.344	0.198	0.154	0.119	0.105	0.096	0.078	0.092
560.0	5.368	6.115	8.582	8.854	11.68	11.32	26.62	34.00	16.25	15.13	28.99	163.8	255.4	29.04	7.673	6.965	6.343	5.804	5.573	5.107	4.851	4.670	4.781	4.601	4.695	4.479	4.591	4.524	4.790	4.594	4.945	4.441	4.562	3.942	3.649	3.499	3.308	3.037	2.818	2.543	2.384	2.359	1.917	1.988	1.787	1.713	1.531	1.483	1.595	2.394	3.188	2.238	0.977	0.730	0.618	0.670	0.568	0.547	0.610	0.627	0.371	0.376	0.436	0.823	3.029	7.767	21.24	116.9	195.4	24.12	0.717	0.180	0.134	0.120	0.125	0.115	0.122
565.0	5.319	6.352	6.940	7.158	9.460	9.864	17.38	33.79	20.73	12.85	14.80	73.75	262.9	99.42	6.958	6.219	5.303	4.847	4.618	4.131	4.011	4.010	4.063	4.040	3.898	3.802	4.081	4.067	4.273	4.043	4.269	3.838	3.802	3.461	3.169	2.973	2.950	2.676	2.384	2.262	2.084	1.943	1.715	1.641	1.566	1.340	1.301	1.294	1.210	1.427	2.406	2.531	1.165	0.701	0.574	0.633	0.508	0.475	0.458	0.600	0.453	0.282	0.337	0.364	0.916	1.990	4.975	30.14	137.2	172.5	17.68	0.248	0.137	0.136	0.110	0.107	0.121
570.0	5.228	4.685	6.314	6.366	7.114	8.313	11.11	23.84	26.67	12.59	11.09	25.96	140.8	210.2	34.10	4.962	4.495	3.884	3.891	3.483	3.250	3.017	3.035	3.156	3.109	3.062	3.220	3.182	3.290	3.310	3.295	3.078	2.926	2.674	2.622	2.293	2.379	2.033	1.880	1.774	1.659	1.530	1.395	1.392	1.238	1.144	1.100	0.947	0.918	0.890	1.370	1.904	1.610	1.022	0.562	0.502	0.418	0.408	0.381	0.443	0.444	0.381	0.270	0.286	0.380	0.653	1.319	6.902	35.02	106.2	128.9	45.93	1.944	0.139	0.132	0.083	0.111
575.0	5.770	5.478	4.642	6.570	6.020	5.669	6.265	14.23	26.89	16.11	8.779	12.08	44.61	177.0	137.3	6.143	3.554	3.407	2.908	2.883	2.530	2.360	2.388	2.415	2.322	2.293	2.395	2.628	2.541	2.455	2.487	2.614	2.193	2.125	2.035	1.725	1.788	1.505	1.502	1.238	1.320	1.101	1.092	0.951	1.007	0.971	0.896	0.789	0.718	0.678	0.820	0.947	1.552	1.289	0.730	0.386	0.362	0.327	0.296	0.282	0.339	0.329	0.344	0.230	0.261	0.317	0.467	1.710	7.969	24.09	55.57	131.6	25.52	1.343	0.114	0.097	0.072
580.0	5.193	4.201	4.853	4.393	5.590	6.578	6.338	8.462	21.01	21.99	8.993	8.234	15.85	102.3	198.5	28.14	2.600	2.514	2.320	2.426	2.084	2.096	1.986	2.009	2.151	1.945	1.952	2.026	2.016	1.932	2.032	1.980	1.816	1.607	1.608	1.604	1.464	1.190	1.181	1.082	1.063	0.986	0.941	0.815	0.842	0.816	0.698	0.602	0.599	0.567	0.568	0.599	1.111	1.375	0.972	0.506	0.262	0.288	0.268	0.264	0.273	0.325	0.281	0.211	0.196	0.202	0.233	0.546	1.897	5.503	13.35	68.55	110.7	20.57	0.426	0.081	0.067
585.0	4.221	4.657	3.972	3.645	4.610	4.660	5.255	5.938	14.54	24.85	10.98	6.872	8.239	43.62	174.9	83.74	2.987	2.350	2.051	1.885	1.791	1.887	1.753	1.726	1.597	1.702	1.605	1.595	1.675	1.639	1.611	1.635	1.731	1.501	1.348	1.249	1.153	1.126	1.094	0.955	0.964	0.870	0.788	0.634	0.704	0.746	0.612	0.578	0.492	0.455	0.446	0.459	0.673	1.159	1.079	0.595	0.303	0.292	0.261	0.249	0.224	0.282	0.289	0.311	0.235	0.182	0.177	0.267	0.560	1.357	3.129	17.48	74.65	91.83	12.72	0.187	0.084
590.0	2.855	4.015	3.566	3.870	4.214	3.917	4.615	4.358	8.524	21.96	17.74	6.587	6.221	13.90	85.19	163.4	29.84	1.937	1.740	1.602	1.456	1.339	1.392	1.379	1.361	1.332	1.304	1.389	1.303	1.427	1.260	1.309	1.366	1.170	1.102	0.942	0.905	0.898	0.866	0.859	0.759	0.671	0.635	0.594	0.490	0.575	0.460	0.437	0.408	0.349	0.377	0.321	0.412	0.654	0.872	0.799	0.496	0.280	0.234	0.216	0.180	0.188	0.217	0.264	0.268	0.182	0.148	0.159	0.220	0.417	0.803	4.019	18.95	54.73	68.26	17.19	1.384
595.0	4.139	3.487	3.502	4.305	3.465	4.013	3.840	3.892	5.530	13.64	21.88	9.851	5.438	5.778	24.61	115.3	114.1	3.562	1.634	1.321	1.171	1.107	0.970	1.048	1.048	1.004	1.048	1.202	0.944	0.983	1.006	1.076	0.953	0.891	0.870	0.809	0.722	0.740	0.693	0.670	0.574	0.632	0.548	0.517	0.467	0.399	0.363	0.309	0.339	0.337	0.286	0.279	0.306	0.311	0.523	0.834	0.615	0.389	0.260	0.189	0.145	0.124	0.146	0.194	0.223	0.186	0.142	0.105	0.126	0.224	0.257	0.990	4.300	12.41	28.21	72.28	23.90
600.0	5.339	3.684	3.193	2.977	3.170	3.505	2.958	3.149	5.272	8.612	19.54	14.03	5.143	4.194	7.843	56.71	151.9	25.99	1.241	1.163	1.008	1.045	0.954	1.009	0.895	0.941	0.947	0.908	0.935	0.924	0.987	0.956	0.778	0.813	0.741	0.679	0.658	0.610	0.543	0.608	0.481	0.431	0.430	0.452	0.392	0.352	0.307	0.261	0.298	0.270	0.279	0.282	0.216	0.211	0.307	0.649	0.690	0.527	0.206	0.126	0.121	0.149	0.135	0.144	0.164	0.232	0.164	0.101	0.130	0.136	0.170	0.309	1.011	2.857	6.822	36.44	64.70
605.0	4.038	3.477	3.115	3.200	3.338	3.127	3.093	3.190	4.361	5.229	15.11	18.10	5.871	3.412	4.256	20.80	123.8	70.49	1.423	1.037	1.010	0.915	0.775	0.880	0.749	0.792	0.769	0.812	0.732	0.789	0.758	0.726	0.734	0.644	0.653	0.593	0.586	0.530	0.466	0.507	0.423	0.425	0.399	0.406	0.356	0.320	0.312	0.243	0.259	0.249	0.214	0.192	0.163	0.165	0.203	0.400	0.636	0.523	0.265	0.121	0.166	0.150	0.159	0.147	0.118	0.162	0.196	0.154	0.122	0.117	0.131	0.135	0.305	0.719	1.602	9.268	41.20
610.0	3.530	3.850	2.693	2.578	2.631	3.091	3.010	3.039	3.890	4.616	9.174	17.83	9.878	3.365	2.889	6.307	55.45	124.8	27.87	0.993	0.842	0.718	0.689	0.693	0.619	0.655	0.615	0.633	0.643	0.649	0.600	0.658	0.670	0.514	0.493	0.501	0.500	0.468	0.420	0.375	0.347	0.343	0.330	0.257	0.262	0.252	0.270	0.242	0.206	0.212	0.210	0.170	0.155	0.164	0.159	0.231	0.357	0.502	0.363	0.185	0.152	0.121	0.108	0.079	0.104	0.113	0.158	0.195	0.132	0.110	0.106	0.091	0.145	0.235	0.413	2.218	10.30
615.0	3.144	3.347	2.737	2.635	2.440	1.757	2.487	2.644	3.804	3.607	5.688	12.67	14.84	3.955	2.246	2.835	15.15	78.90	101.5	3.120	0.646	0.649	0.573	0.555	0.494	0.490	0.562	0.594	0.501	0.480	0.509	0.528	0.528	0.494	0.432	0.416	0.329	0.388	0.379	0.249	0.264	0.243	0.261	0.218	0.226	0.241	0.232	0.188	0.143	0.132	0.169	0.140	0.134	0.132	0.121	0.165	0.189	0.303	0.379	0.301	0.154	0.126	0.110	0.077	0.140	0.110	0.124	0.186	0.214	0.112	0.084	0.114	0.108	0.097	0.173	0.526	2.346
620.0	2.407	3.304	3.545	2.234	2.688	2.160	1.602	2.823	3.221	3.217	4.556	8.460	15.45	5.614	2.230	1.837	4.419	36.41	126.9	26.31	0.528	0.757	0.612	0.443	0.402	0.455	0.553	0.520	0.496	0.429	0.433	0.395	0.414	0.378	0.384	0.361	0.301	0.320	0.332	0.237	0.238	0.212	0.226	0.218	0.247	0.210	0.240	0.145	0.163	0.124	0.157	0.121	0.123	0.125	0.141	0.119	0.156	0.233	0.299	0.350	0.188	0.114	0.098	0.081	0.081	0.119	0.070	0.123	0.163	0.116	0.114	0.083	0.054	0.124	0.111	0.175	0.573
625.0	2.982	3.313	2.977	2.477	2.483	1.723	2.567	2.293	2.625	2.921	3.506	6.037	13.11	9.351	2.327	1.596	2.139	12.14	92.77	61.94	0.746	0.583	0.543	0.404	0.473	0.350	0.499	0.432	0.491	0.391	0.424	0.330	0.319	0.363	0.316	0.341	0.252	0.298	0.260	0.242	0.210	0.163	0.208	0.238	0.168	0.168	0.170	0.139	0.168	0.130	0.122	0.104	0.128	0.147	0.106	0.108	0.100	0.140	0.218	0.346	0.215	0.144	0.070	0.080	0.118	0.110	0.055	0.084	0.136	0.120	0.128	0.083	0.080	0.084	0.071	0.109	0.218
630.0	3.089	2.860	2.581	2.133	1.980	2.710	2.320	2.226	2.621	2.900	3.355	4.048	8.270	11.69	3.652	1.595	1.569	3.822	37.39	103.7	24.33	0.607	0.442	0.477	0.369	0.363	0.405	0.317	0.349	0.323	0.386	0.311	0.285	0.313	0.274	0.258	0.241	0.232	0.248	0.187	0.211	0.172	0.152	0.156	0.179	0.152	0.153	0.106	0.155	0.145	0.105	0.117	0.106	0.115	0.117	0.098	0.098	0.105	0.125	0.246	0.239	0.191	0.108	0.095	0.082	0.074	0.074	0.078	0.084	0.104	0.145	0.147	0.060	0.074	0.083	0.081	0.107
635.0	2.112	2.361	2.411	1.956	1.999	2.412	2.322	2.070	1.795	3.429	3.049	3.615	5.423	10.17	6.884	1.610	1.227	1.568	9.532	58.23	84.85	2.336	0.603	0.365	0.312	0.324	0.353	0.274	0.256	0.295	0.297	0.255	0.233	0.286	0.231	0.224	0.194	0.193	0.193	0.181	0.152	0.184	0.163	0.135	0.134	0.154	0.129	0.107	0.095	0.097	0.105	0.118	0.111	0.100	0.066	0.109	0.097	0.074	0.109	0.120	0.195	0.179	0.120	0.089	0.063	0.099	0.083	0.082	0.128	0.088	0.131	0.154	0.109	0.077	0.104	0.046	0.079
640.0	3.308	3.348	3.008	2.208	2.406	2.456	2.324	2.372	1.991	2.438	3.344	3.418	3.683	7.215	9.088	2.235	1.482	1.230	2.846	23.88	102.7	21.70	0.560	0.316	0.318	0.292	0.278	0.260	0.247	0.252	0.235	0.193	0.199	0.220	0.227	0.168	0.231	0.162	0.136	0.173	0.125	0.154	0.121	0.132	0.103	0.102	0.128	0.124	0.085	0.091	0.083	0.098	0.077	0.084	0.072	0.073	0.066	0.118	0.087	0.088	0.176	0.187	0.157	0.120	0.086	0.087	0.090	0.043	0.095	0.082	0.074	0.115	0.115	0.077	0.068	0.082	0.100
645.0	2.420	3.340	3.987	2.064	2.429	2.455	2.045	2.078	2.265	2.591	3.501	3.385	3.557	5.309	10.48	3.417	1.297	1.096	1.287	7.675	71.81	53.30	0.894	0.410	0.325	0.346	0.332	0.280	0.229	0.238	0.248	0.222	0.167	0.224	0.177	0.154	0.173	0.162	0.118	0.154	0.114	0.184	0.103	0.098	0.101	0.132	0.127	0.092	0.077	0.090	0.074	0.126	0.072	0.076	0.073	0.090	0.083	0.102	0.066	0.074	0.102	0.193	0.134	0.128	0.084	0.106	0.069	0.071	0.066	0.069	0.074	0.100	0.169	0.094	0.067	0.050	0.073
650.0	3.918	4.441	3.177	2.760	1.739	1.900	2.316	2.451	2.316	2.580	3.215	3.276	3.492	4.047	8.530	5.511	1.320	1.070	0.952	2.442	33.80	91.02	9.825	0.327	0.270	0.343	0.277	0.229	0.166	0.211	0.271	0.235	0.259	0.176	0.191	0.161	0.197	0.176	0.132	0.124	0.152	0.131	0.107	0.120	0.106	0.144	0.108	0.098	0.089	0.110	0.073	0.083	0.067	0.087	0.061	0.076	0.092	0.092	0.081	0.069	0.069	0.138	0.132	0.121	0.086	0.112	0.050	0.079	0.105	0.081	0.076	0.107	0.113	0.109	0.056	0.062	0.083
