Sample:	'1
File name:	光大二厂20万吨系统出水.FD3
Run date:	'15:33:00, 05/13/2025
Operator:	Administrator
Comment:	'

Instrument
Model:	F-2700 FL Spectrophotometer
Serial number:	23B8-004
ROM Version:	4J14000 07

Instrument parameters
Measurement type:	3-D scan
Data mode:	Fluorescence
EX  Start WL:	220.0 nm
EX  End WL:	600.0 nm
EX Sampling interval:	5.0 nm
EM  Start WL:	230.0 nm
EM  End WL:	650.0 nm
EM Sampling interval:	5.0 nm
Scan speed:	12000 nm/min
EX Slit:	5.0 nm
EM Slit:	5.0 nm
PMT Voltage:	700 V
Response:	Auto 
Corrected spectra:	Off
Contour interval:	50.000

Peak integration
Integration method:	Rectangular
Sensitivity:	1
Threshold:	1.000

Peaks
No.	ApexEX/EM(nm)	Height(Data)
1	225.0/575.0	62.55
2	230.0/345.0	1322
3	230.0/615.0	43.44
4	240.0/385.0	1040
5	240.0/395.0	1028
6	255.0/280.0	443.8
7	255.0/560.0	131.5
8	260.0/290.0	466.8
9	260.0/575.0	103.4
10	265.0/295.0	625.3
11	265.0/585.0	90.41
12	270.0/300.0	872.3
13	270.0/600.0	82.73
14	275.0/310.0	952.6
15	275.0/610.0	75.12
16	280.0/315.0	941.3
17	280.0/345.0	1209
18	280.0/625.0	66.72
19	285.0/320.0	978.3
20	285.0/640.0	50.80
21	475.0/355.0	4.322
22	520.0/285.0	3.165
23	545.0/300.0	4.857
24	555.0/305.0	5.201
25	560.0/310.0	5.435

Data points
	220.0	225.0	230.0	235.0	240.0	245.0	250.0	255.0	260.0	265.0	270.0	275.0	280.0	285.0	290.0	295.0	300.0	305.0	310.0	315.0	320.0	325.0	330.0	335.0	340.0	345.0	350.0	355.0	360.0	365.0	370.0	375.0	380.0	385.0	390.0	395.0	400.0	405.0	410.0	415.0	420.0	425.0	430.0	435.0	440.0	445.0	450.0	455.0	460.0	465.0	470.0	475.0	480.0	485.0	490.0	495.0	500.0	505.0	510.0	515.0	520.0	525.0	530.0	535.0	540.0	545.0	550.0	555.0	560.0	565.0	570.0	575.0	580.0	585.0	590.0	595.0	600.0
230.0	60.36	2551	4621	1597	73.84	12.54	11.47	8.821	7.929	7.046	6.524	5.638	5.212	4.376	3.692	2.940	2.826	2.518	2.151	2.054	1.859	1.674	1.635	1.514	1.398	1.440	1.264	1.190	1.263	1.179	1.020	1.041	0.937	0.916	0.811	0.742	0.785	0.691	0.636	0.597	0.602	0.588	0.601	0.581	0.508	0.541	1.483	7.402	14.99	11.62	4.357	1.003	0.429	0.413	0.384	0.368	0.405	0.414	0.381	0.392	0.399	0.383	0.376	0.365	0.414	0.384	0.408	0.396	0.389	0.410	0.406	0.411	0.400	0.411	0.400	0.432	0.447
235.0	81.51	697.9	3113	5990	652.8	119.8	14.05	11.55	8.318	8.045	6.617	6.537	5.111	4.608	3.940	2.857	3.060	2.440	2.344	2.240	1.780	1.837	1.731	1.719	1.323	1.468	1.434	1.263	1.112	1.060	1.206	1.115	0.963	0.979	0.791	0.709	0.773	0.682	0.662	0.641	0.597	0.566	0.618	0.638	0.544	0.595	0.663	2.152	5.815	11.52	18.67	20.42	9.241	2.059	0.427	0.383	0.384	0.434	0.424	0.357	0.439	0.431	0.382	0.412	0.414	0.405	0.393	0.418	0.411	0.405	0.401	0.379	0.380	0.371	0.408	0.380	0.397
240.0	103.7	233.6	950.2	5443	5109	540.9	65.92	13.59	10.93	9.267	8.122	7.320	5.830	4.661	3.952	3.063	2.893	2.602	2.289	2.141	1.709	1.637	1.838	1.681	1.506	1.487	1.419	1.373	1.185	1.167	1.271	1.162	1.003	0.877	0.910	0.734	0.740	0.676	0.716	0.662	0.572	0.610	0.575	0.599	0.652	0.566	0.570	0.838	1.694	3.542	10.24	27.14	28.34	20.62	7.931	1.221	0.478	0.498	0.501	0.412	0.468	0.528	0.386	0.394	0.440	0.415	0.443	0.410	0.405	0.483	0.422	0.423	0.381	0.369	0.449	0.416	0.412
245.0	86.81	168.3	273.9	1881	7827	7436	421.5	28.74	13.29	11.24	8.848	7.126	5.970	5.163	4.375	3.228	2.917	2.490	2.454	2.177	1.839	1.812	1.913	1.634	1.549	1.539	1.626	1.520	1.205	1.198	1.111	1.054	1.028	0.840	0.852	0.730	0.760	0.690	0.688	0.649	0.606	0.554	0.587	0.638	0.635	0.680	0.683	0.785	0.787	1.098	2.754	9.124	22.69	41.59	28.66	17.87	5.324	0.771	0.497	0.445	0.441	0.440	0.434	0.420	0.521	0.412	0.485	0.397	0.354	0.464	0.433	0.456	0.398	0.418	0.419	0.390	0.416
250.0	63.22	123.5	200.9	500.7	2549	7972	9733	1525	107.6	15.11	12.35	9.877	7.171	5.993	4.946	3.913	3.301	2.831	2.753	2.349	2.035	1.930	1.960	1.706	1.597	1.677	1.524	1.455	1.284	1.211	1.229	1.064	1.028	0.975	0.875	0.789	0.711	0.685	0.690	0.664	0.692	0.599	0.603	0.613	0.530	0.579	0.564	0.798	0.828	0.905	1.096	2.504	5.742	13.61	23.17	38.42	41.21	41.31	14.66	5.898	0.879	0.542	0.496	0.428	0.476	0.479	0.470	0.432	0.417	0.438	0.494	0.423	0.416	0.412	0.414	0.459	0.455
255.0	61.31	76.67	129.6	298.5	651.9	2017	8197	9999.9	2191	119.2	16.77	13.49	9.366	6.136	5.442	4.234	3.711	3.379	2.912	2.402	2.243	2.100	1.969	1.659	1.667	1.647	1.396	1.677	1.557	1.432	1.319	1.120	1.040	1.000	0.865	0.849	0.799	0.669	0.723	0.706	0.658	0.629	0.619	0.637	0.524	0.597	0.476	0.603	0.627	0.781	1.111	1.554	1.893	3.414	5.634	9.465	16.90	45.75	75.22	72.50	22.88	6.192	0.789	0.525	0.490	0.474	0.506	0.434	0.468	0.446	0.514	0.460	0.434	0.526	0.424	0.507	0.480
260.0	60.64	61.33	62.52	222.6	333.5	521.5	2515	9999.9	9999.9	1657	59.61	17.00	12.36	8.364	6.591	5.127	4.201	3.868	2.872	2.815	2.371	2.041	2.040	1.851	1.860	1.589	1.491	1.717	1.526	1.398	1.307	1.127	1.083	1.025	0.989	0.852	0.766	0.729	0.664	0.719	0.590	0.744	0.621	0.706	0.606	0.605	0.537	0.541	0.547	0.541	0.809	1.526	1.615	1.536	1.817	2.641	4.319	12.36	34.26	74.52	94.16	31.50	18.31	3.069	0.633	0.479	0.482	0.532	0.562	0.446	0.478	0.455	0.469	0.467	0.456	0.465	0.523
265.0	59.99	66.88	40.64	121.3	299.0	281.8	629.2	3846	9999.9	9999.9	1146	27.80	15.51	10.69	7.518	6.127	4.852	4.082	3.267	3.053	2.426	2.218	2.058	1.721	1.800	1.878	1.577	1.505	1.443	1.422	1.350	1.241	1.109	1.103	1.040	0.835	0.801	0.788	0.774	0.711	0.622	0.786	0.647	0.612	0.645	0.519	0.568	0.544	0.508	0.486	0.538	0.989	1.412	1.816	1.554	1.158	1.572	3.362	8.439	22.38	54.54	90.84	104.0	29.22	12.48	1.247	0.493	0.580	0.477	0.491	0.492	0.540	0.454	0.475	0.529	0.596	0.539
270.0	75.93	77.83	52.25	68.58	169.5	335.8	341.1	944.3	4183	9999.9	9999.9	3791	66.64	16.17	11.04	7.740	5.961	4.882	3.889	3.254	2.900	2.682	2.347	1.963	2.031	2.147	1.829	1.595	1.608	1.619	1.414	1.321	1.144	1.117	1.107	0.923	0.894	0.813	0.783	0.749	0.725	0.749	0.677	0.670	0.732	0.645	0.582	0.592	0.543	0.510	0.511	0.658	0.838	1.305	1.698	1.714	1.845	1.683	2.537	5.583	13.27	27.78	55.00	77.37	96.28	74.02	18.34	9.187	1.330	0.630	0.645	0.544	0.558	0.488	0.544	0.529	0.557
275.0	109.4	126.6	95.76	76.95	95.14	200.2	428.8	410.8	997.4	2781	9999.9	9999.9	1287	64.19	15.76	10.89	7.627	5.555	4.682	3.925	3.213	2.714	2.530	2.371	2.232	2.137	1.972	1.970	1.727	1.631	1.641	1.433	1.249	1.253	1.224	0.968	1.015	0.902	0.872	0.796	0.812	0.789	0.748	0.695	0.781	0.742	0.707	0.741	0.674	0.660	0.516	0.664	0.711	0.900	0.997	1.305	2.210	2.935	2.118	1.980	3.558	6.801	12.97	18.45	31.31	67.25	118.1	124.9	29.20	11.18	1.060	0.771	0.631	0.567	0.508	0.555	0.580
280.0	143.7	178.7	152.5	109.1	84.56	122.2	311.6	443.8	356.0	708.3	3555	9999.9	9999.9	911.3	31.23	13.99	9.657	7.029	5.769	4.791	3.624	3.258	2.884	2.651	2.371	2.503	2.096	2.156	1.644	1.526	1.605	1.581	1.409	1.354	1.434	1.070	1.005	0.930	0.862	0.782	0.781	0.757	0.778	0.687	0.904	0.847	0.846	0.930	0.843	0.742	0.586	0.715	0.735	0.821	0.874	0.947	1.330	2.218	3.001	2.576	1.919	2.330	3.642	4.942	7.719	17.55	47.16	105.2	136.0	111.6	23.18	5.321	0.830	0.632	0.649	0.618	0.644
285.0	187.8	238.2	201.4	141.9	96.36	107.4	171.7	441.2	362.1	282.4	925.4	4952	9999.9	8805	123.2	20.90	12.73	8.916	6.520	5.011	4.297	3.639	3.287	2.937	2.495	2.429	1.935	2.174	1.843	1.845	1.750	1.506	1.459	1.379	1.186	1.277	1.016	0.943	0.940	0.879	0.815	0.899	0.837	0.825	0.824	0.946	1.058	1.121	0.972	0.889	0.750	0.900	0.729	0.836	0.812	0.912	0.968	1.322	1.955	2.957	3.165	2.063	1.689	1.945	2.712	4.751	11.69	28.89	64.90	125.5	139.8	33.73	17.32	1.970	0.715	0.708	0.656
290.0	236.4	306.2	273.7	185.5	114.0	108.8	130.6	237.0	466.8	439.9	393.2	1315	4877	9999.9	9999.9	2224	36.79	12.60	8.658	6.335	5.335	4.162	3.647	3.020	2.763	2.942	2.352	2.096	2.081	2.003	1.882	1.673	1.580	1.353	1.286	1.315	1.059	1.007	0.948	0.989	0.917	0.959	0.889	0.901	0.902	0.963	1.148	1.234	1.148	1.080	0.930	0.968	0.803	0.852	0.817	0.890	0.948	1.069	1.183	1.665	2.302	2.876	3.143	2.646	2.025	2.386	3.844	7.699	16.00	34.27	61.03	79.71	107.0	82.38	57.77	11.73	2.244
295.0	261.5	358.0	336.0	236.8	139.1	129.3	134.8	185.0	306.0	625.3	603.8	571.0	1305	2876	9999.9	9999.9	697.6	33.77	12.44	9.079	6.564	5.038	4.259	3.706	3.320	3.326	2.467	2.276	2.384	2.005	1.932	1.709	1.629	1.395	1.432	1.247	1.326	1.048	1.097	1.115	1.009	0.898	0.894	0.945	0.958	1.122	1.312	1.471	1.243	1.105	1.059	0.975	0.965	0.814	0.870	1.081	1.073	1.089	1.119	1.301	1.469	1.892	2.519	3.964	4.237	3.173	2.528	3.256	5.069	9.063	14.81	19.09	29.89	54.79	114.7	133.8	34.48
300.0	272.7	394.0	383.4	274.5	176.6	160.8	179.7	224.7	301.4	516.4	872.3	605.5	580.2	836.5	3450	9999.9	9999.9	512.5	19.42	11.99	7.881	5.762	4.796	4.423	3.628	3.396	2.599	2.496	2.196	2.328	1.874	1.678	1.624	1.476	1.500	1.304	1.347	1.187	1.134	1.047	1.005	1.004	0.942	0.903	1.044	1.229	1.229	1.555	1.454	1.299	1.177	1.175	1.055	1.012	1.016	1.042	1.193	1.217	1.442	1.424	1.723	1.709	2.154	2.872	4.264	4.857	4.052	3.062	3.140	3.707	4.930	5.663	7.865	13.98	37.78	86.46	128.7
305.0	282.5	412.6	414.0	290.4	214.1	201.2	236.4	286.0	358.1	488.3	821.4	927.5	547.2	456.0	955.0	4549	9999.9	5195	75.14	15.54	9.900	7.074	5.865	4.821	3.943	3.734	2.870	2.802	2.457	2.406	2.299	1.705	1.709	1.548	1.688	1.362	1.384	1.349	1.225	1.098	1.010	0.980	0.978	0.882	1.208	1.315	1.308	1.507	1.501	1.453	1.254	1.347	1.263	1.143	1.243	1.256	1.427	1.574	1.610	1.902	2.023	2.238	2.456	2.730	3.396	4.272	5.182	5.201	3.788	3.093	3.061	2.985	3.276	4.513	9.678	22.38	51.86
310.0	305.1	426.5	433.8	329.2	255.4	246.3	292.0	361.3	436.8	549.1	705.7	952.6	867.4	504.6	445.3	1180	4367	9999.9	9999.9	1561	25.84	10.27	7.534	5.513	4.738	4.524	3.394	2.964	2.847	2.537	2.328	1.896	1.804	1.713	1.699	1.387	1.397	1.283	1.277	1.229	1.033	1.004	1.035	1.005	1.114	1.249	1.361	1.542	1.485	1.441	1.330	1.477	1.347	1.369	1.357	1.455	1.593	1.761	1.940	2.074	2.203	2.499	2.728	3.044	3.246	3.517	4.074	4.774	5.435	4.867	3.966	3.124	2.676	2.780	3.584	6.208	12.93
315.0	317.9	456.6	473.4	361.1	291.1	300.3	353.0	416.7	516.7	621.0	730.4	840.9	941.3	821.7	442.0	464.7	1122	2682	9999.9	9999.9	496.3	24.22	10.69	7.658	5.603	5.234	3.979	3.296	3.010	2.771	2.432	2.231	1.766	1.728	1.686	1.509	1.470	1.393	1.181	1.161	1.125	1.082	0.980	1.048	1.088	1.224	1.414	1.548	1.598	1.599	1.291	1.521	1.613	1.734	1.597	1.636	1.866	1.947	2.079	2.337	2.502	2.730	3.139	3.257	3.477	3.757	3.808	4.153	4.564	4.836	5.414	4.942	3.672	2.893	2.539	3.171	4.200
320.0	358.1	507.8	543.0	421.9	345.8	357.6	400.3	472.4	570.3	687.4	804.8	867.4	881.2	978.3	663.0	402.9	471.1	756.6	3142	9999.9	9999.9	383.9	16.73	9.600	6.723	6.409	4.580	3.680	3.340	3.017	2.576	2.641	1.901	1.909	1.704	1.596	1.476	1.459	1.159	1.198	1.061	1.066	1.045	1.143	1.137	1.358	1.591	1.857	1.869	1.712	1.508	1.581	1.712	1.864	1.878	1.970	2.097	2.195	2.152	2.412	2.932	3.032	3.359	3.560	3.837	3.969	4.117	4.509	4.344	4.536	4.950	5.569	5.560	4.483	3.228	2.900	3.030
325.0	412.6	621.3	710.7	564.0	419.6	407.5	438.7	530.7	618.3	762.4	887.4	949.9	928.9	932.4	898.6	524.2	393.2	375.2	852.2	4026	9999.9	3955	57.81	13.24	9.138	8.085	5.170	4.211	3.758	3.274	2.700	2.559	2.142	1.925	1.700	1.569	1.485	1.381	1.275	1.226	1.136	1.041	1.065	1.218	1.257	1.534	1.755	2.162	2.355	1.873	1.909	2.033	1.960	1.954	2.088	2.124	2.122	2.378	2.556	2.788	2.996	3.035	3.598	3.783	4.151	4.578	4.383	4.556	4.796	4.974	4.599	4.785	5.466	5.713	4.805	3.647	3.054
330.0	448.6	775.3	975.8	827.0	561.0	482.8	491.0	578.4	689.0	839.8	975.8	1055	1031	947.9	901.9	777.3	523.0	358.4	380.9	1054	3872	9973	8343	1275	21.80	11.25	6.571	5.182	4.197	3.750	3.136	2.754	2.436	2.095	1.975	1.658	1.602	1.476	1.316	1.175	1.147	1.198	1.146	1.339	1.436	1.772	2.097	2.696	2.905	2.874	2.556	2.788	2.530	2.312	2.341	2.269	2.534	2.588	2.857	3.003	3.194	3.437	3.672	4.201	4.411	4.757	4.909	5.237	5.104	5.161	5.202	5.030	5.218	5.516	5.394	5.309	4.566
335.0	486.4	883.8	1147	1031	726.5	576.3	563.2	631.3	759.7	916.0	1057	1147	1132	1045	928.0	828.9	779.0	485.5	349.0	430.6	977.5	2566	8901	9999.9	412.0	24.84	9.013	6.957	5.072	4.399	3.611	2.781	2.772	2.373	2.069	1.703	1.763	1.504	1.355	1.333	1.246	1.312	1.293	1.353	1.385	1.901	2.406	2.917	3.381	3.407	3.205	3.361	2.934	2.729	2.542	2.708	2.773	2.857	2.905	3.012	3.477	3.598	3.879	4.408	4.897	5.028	5.153	5.541	5.505	5.603	6.002	5.594	5.532	5.439	5.438	5.069	5.124
340.0	531.4	930.8	1294	1136	812.7	652.4	605.9	675.4	783.6	948.6	1097	1187	1191	1107	982.4	831.7	827.6	662.9	404.9	333.7	368.4	667.5	2698	9999.9	9999.9	339.7	13.73	8.955	5.811	4.995	4.044	3.234	2.909	2.619	2.092	1.804	1.829	1.444	1.422	1.460	1.178	1.270	1.227	1.351	1.562	1.986	2.505	3.102	3.729	3.579	3.587	3.872	3.356	2.879	2.821	2.789	2.830	3.038	2.980	3.364	3.648	3.735	4.399	4.808	4.762	5.073	5.311	5.544	5.902	5.947	6.124	5.871	5.852	5.955	5.546	5.311	4.966
345.0	547.1	1002	1322	1223	878.0	702.7	642.0	686.0	797.7	952.1	1110	1189	1209	1144	1010	849.6	771.9	753.5	515.9	347.5	268.9	274.7	697.9	3638	9999.9	9999.9	51.18	11.40	7.644	5.764	4.491	3.564	3.044	2.756	2.195	1.927	1.811	1.577	1.488	1.500	1.258	1.232	1.288	1.359	1.626	1.900	2.428	3.310	3.850	3.689	3.792	3.905	3.565	2.972	3.101	2.935	2.879	3.241	3.226	3.527	3.662	4.070	4.307	4.873	4.913	5.276	5.350	5.637	6.020	6.191	6.068	6.107	6.239	5.719	5.766	5.271	5.456
350.0	520.1	926.4	1286	1235	935.3	761.1	687.0	720.5	806.3	957.1	1092	1181	1193	1142	1027	881.7	771.0	705.6	645.5	469.5	306.4	240.2	288.6	919.6	3554	9999.9	7097	1199	20.25	7.700	5.722	4.168	3.419	2.802	2.235	1.974	1.830	1.591	1.608	1.551	1.185	1.327	1.289	1.347	1.609	1.834	2.352	3.249	3.701	3.575	3.701	4.193	3.628	3.327	3.188	2.966	3.171	3.336	3.210	3.692	3.881	3.951	4.365	4.755	4.979	5.311	5.333	5.608	5.742	5.887	5.871	6.154	6.413	5.963	5.827	5.540	5.429
355.0	501.8	841.8	1210	1204	977.1	810.2	742.7	751.5	845.3	972.4	1083	1163	1173	1135	1041	914.2	809.2	711.0	637.9	617.2	427.3	297.3	250.8	350.9	893.5	2602	6936	9999.9	386.9	21.73	7.588	5.193	4.114	3.189	2.507	2.263	1.959	1.611	1.639	1.432	1.240	1.196	1.245	1.503	1.490	1.847	2.267	2.843	3.475	3.342	3.671	4.322	3.775	3.625	3.315	3.112	3.450	3.346	3.385	3.878	3.943	4.032	4.458	4.929	5.019	5.228	5.232	5.498	5.472	5.998	5.774	6.073	5.914	6.333	5.683	5.920	5.467
360.0	468.3	836.6	1131	1173	991.4	857.5	773.0	800.2	885.0	974.6	1086	1142	1159	1123	1047	934.5	844.9	738.6	652.3	637.2	561.1	380.8	287.8	261.0	331.7	675.6	2000	9173	9177	335.9	12.82	7.152	5.094	3.664	2.876	2.354	1.956	1.727	1.713	1.473	1.356	1.265	1.369	1.420	1.412	1.842	2.311	2.759	3.344	3.364	3.632	4.185	3.775	3.898	3.419	3.266	3.596	3.616	3.514	3.851	4.190	4.161	4.305	4.912	4.965	5.293	5.245	5.556	5.643	5.730	6.090	6.017	6.053	6.050	5.955	5.830	5.521
365.0	448.1	794.4	1095	1135	999.8	879.4	818.4	822.3	892.6	993.2	1079	1126	1140	1106	1038	940.8	864.7	770.8	682.3	634.3	621.0	500.3	354.2	286.1	245.0	271.9	526.0	2934	9999.9	7481	49.00	10.30	6.169	4.519	3.285	2.534	2.145	1.846	1.841	1.583	1.423	1.248	1.366	1.493	1.546	1.759	1.975	2.883	3.304	3.554	3.466	4.184	3.693	3.970	3.472	3.679	3.644	3.664	3.843	3.744	4.109	4.286	4.626	5.057	5.104	5.149	5.030	5.518	5.440	5.632	6.187	6.016	6.134	6.036	5.577	5.803	5.556
370.0	442.8	754.5	1044	1103	1012	915.3	860.7	856.1	911.6	998.8	1073	1110	1115	1077	1028	943.0	882.2	807.5	737.1	682.3	629.0	605.7	492.9	368.0	283.3	231.7	232.6	737.5	3107	7850	6350	1191	19.17	6.397	4.267	3.107	2.498	1.958	1.877	1.597	1.479	1.380	1.465	1.485	1.575	1.689	2.001	2.770	3.185	3.232	3.391	4.020	3.861	3.918	3.706	3.671	3.828	4.123	3.924	3.925	4.119	4.387	4.762	4.765	5.014	4.984	5.161	5.295	5.372	5.436	5.823	5.557	5.882	5.735	5.800	5.988	5.834
375.0	437.8	692.5	977.9	1068	1022	946.9	895.0	882.9	926.1	1014	1060	1104	1085	1053	1012	943.4	890.4	838.7	783.0	732.7	670.5	629.7	613.7	499.4	359.9	275.8	213.8	280.4	772.2	1908	5392	9068	347.8	21.32	5.979	4.059	3.189	2.367	1.955	1.661	1.504	1.551	1.487	1.276	1.612	1.813	2.024	2.429	2.868	3.046	3.209	3.894	3.919	3.811	3.975	3.511	4.079	3.706	4.108	4.009	4.115	4.541	4.556	5.072	4.886	5.136	5.079	5.262	5.186	5.034	5.602	5.235	5.664	5.781	5.829	5.706	5.979
380.0	414.1	667.8	945.7	1055	1039	950.0	912.6	902.5	937.6	1001	1045	1075	1071	1019	985.0	931.8	897.4	855.0	808.2	767.4	714.7	656.4	628.6	599.5	443.8	329.7	249.1	209.2	278.1	499.9	1498	7029	7422	302.9	12.22	5.069	3.693	2.675	2.250	1.942	1.629	1.540	1.490	1.570	1.407	1.770	1.860	2.414	2.816	2.977	3.068	4.066	3.998	3.927	3.805	3.890	4.131	3.863	4.126	4.177	4.324	4.551	4.528	4.879	4.925	4.650	5.046	5.178	5.242	5.101	5.569	4.976	5.493	5.503	5.531	5.812	5.766
385.0	395.6	657.4	908.0	1010	1040	961.4	920.1	911.7	938.5	993.8	1028	1050	1043	1003	966.7	917.6	890.7	857.6	827.1	797.1	747.0	696.6	643.3	631.4	543.5	390.6	293.5	227.2	197.0	207.3	402.6	2085	7288	5759	42.20	8.222	4.652	3.141	2.581	1.916	1.658	1.588	1.489	1.572	1.495	1.625	1.833	2.451	2.744	2.849	3.108	3.893	3.897	4.123	3.822	3.802	4.203	3.989	4.115	4.139	4.186	4.566	4.856	4.814	4.791	4.757	4.996	5.054	4.978	5.256	5.485	5.112	5.383	5.821	5.672	5.492	5.671
390.0	373.5	638.8	869.9	994.3	1006	980.5	934.5	920.5	940.3	970.9	1005	1028	1012	978.7	933.8	897.5	871.9	850.3	832.9	809.6	778.9	735.3	683.2	638.4	598.7	508.6	375.0	287.7	230.0	186.7	191.7	535.7	2083	4971	4209	980.3	17.05	4.547	3.139	2.434	1.747	1.603	1.524	1.495	1.511	1.643	1.876	2.283	2.648	2.705	3.110	3.841	3.923	3.986	3.828	3.889	4.252	4.070	4.231	4.343	4.236	4.598	4.639	4.695	4.798	4.730	4.867	4.911	4.952	4.984	5.312	5.199	5.360	5.566	5.380	5.412	5.413
395.0	363.9	617.0	811.8	968.8	1028	982.6	944.8	932.9	930.4	967.5	991.5	989.6	974.7	945.8	908.4	873.3	847.9	828.4	827.7	814.9	796.0	764.3	724.1	670.6	618.1	580.0	486.2	365.5	293.6	232.8	185.3	221.4	534.0	1191	2896	5739	1493	19.67	4.654	3.148	2.240	1.744	1.579	1.560	1.490	1.843	1.789	2.363	2.568	2.685	2.933	3.594	3.844	3.968	4.102	4.152	4.263	4.167	4.160	4.301	4.305	4.624	4.563	4.729	4.897	4.875	4.810	4.721	5.083	5.025	5.376	5.169	5.119	5.332	5.225	5.442	5.616
400.0	362.8	595.8	817.2	959.5	1014	984.0	951.2	925.1	937.8	956.2	977.0	976.1	952.5	921.0	884.8	852.2	824.0	816.4	814.2	809.9	798.4	774.0	744.9	694.8	639.9	599.6	554.3	439.6	343.7	278.1	215.5	178.0	209.4	330.2	775.7	3780	5086	272.9	13.30	3.904	2.801	2.182	1.734	1.677	1.647	1.883	1.994	2.209	2.584	2.525	2.845	3.489	3.810	3.936	3.941	4.085	4.390	4.190	4.263	4.332	4.395	4.399	4.424	4.533	4.692	4.528	4.510	4.648	4.918	4.784	5.032	5.157	5.089	5.294	4.768	5.597	5.428
405.0	376.9	577.1	828.3	953.4	1008	974.4	948.7	932.5	935.7	941.9	952.6	956.4	928.0	898.5	857.8	820.5	802.1	797.0	796.3	797.2	788.1	774.8	750.7	711.6	661.9	627.1	564.0	519.9	403.3	321.6	252.9	195.4	159.8	154.9	229.0	1046	4048	3929	220.8	6.789	3.423	2.575	1.967	1.640	1.620	1.770	1.880	2.389	2.526	2.603	2.787	3.606	3.855	4.070	3.963	3.838	4.037	4.037	4.353	4.208	4.297	4.397	4.508	4.217	4.601	4.394	4.533	4.566	4.685	4.696	4.824	4.968	5.107	5.263	4.828	5.477	5.212
410.0	355.6	574.0	789.2	931.8	987.0	974.1	938.7	920.0	915.6	925.6	927.2	924.7	899.4	864.4	825.4	792.3	770.0	766.3	764.2	770.0	768.3	762.7	749.0	719.0	677.4	669.6	572.9	539.4	484.1	388.4	304.2	236.1	181.4	143.4	128.5	287.8	1102	2878	2866	885.6	15.61	3.481	2.412	1.907	1.763	1.848	1.792	2.330	2.433	2.480	2.734	3.529	3.761	3.936	3.789	3.938	4.080	4.232	4.162	4.241	4.137	4.311	4.393	4.293	4.373	4.346	4.356	4.563	4.617	4.548	4.564	4.649	4.866	4.814	4.850	5.243	4.990
415.0	350.0	537.2	779.3	916.7	963.2	952.3	925.0	911.2	891.7	893.4	909.8	899.4	865.6	824.3	785.3	749.8	729.8	722.9	724.5	733.7	735.2	735.1	732.7	710.6	675.9	695.6	580.3	541.4	515.7	465.9	361.9	278.6	215.4	164.1	127.8	136.6	294.6	685.6	1579	3552	1239	19.00	3.504	2.369	2.135	2.109	1.935	2.265	2.417	2.472	2.737	3.540	3.535	3.843	3.807	4.009	4.002	4.127	4.015	4.184	4.211	4.403	4.192	4.301	4.071	4.307	4.272	4.375	4.250	4.309	4.331	4.636	4.505	4.429	4.605	4.789	4.956
420.0	324.2	509.5	745.0	901.9	932.1	925.3	916.0	896.6	891.2	876.9	886.4	876.1	835.9	801.0	762.3	715.6	693.1	688.9	691.6	700.0	705.8	711.0	709.0	698.9	673.1	693.9	591.2	547.2	514.6	495.8	408.0	312.9	242.9	188.0	143.1	115.3	125.3	193.0	410.3	2085	3310	255.3	11.50	3.108	2.344	2.097	1.838	2.306	2.491	2.242	2.536	3.295	3.548	3.797	3.663	3.691	4.149	4.252	4.049	4.173	4.232	4.393	4.147	4.358	4.070	4.152	4.020	4.267	4.193	4.005	4.322	4.258	4.441	4.505	4.252	4.468	4.532
425.0	336.9	517.6	707.3	862.6	933.2	914.8	904.7	892.3	879.7	855.4	873.5	839.3	810.2	777.1	725.7	688.1	669.3	661.8	666.2	672.9	672.4	684.4	687.4	677.8	658.2	682.7	593.1	551.8	516.3	491.3	447.0	347.7	265.9	206.8	160.9	121.6	99.51	92.84	124.7	559.8	2353	2157	206.8	6.130	2.877	2.511	2.103	2.304	2.481	2.365	2.557	3.308	3.414	3.779	3.666	3.757	3.977	3.948	4.149	3.967	4.479	4.151	4.155	4.107	4.026	4.014	3.845	3.969	4.361	4.066	4.065	4.154	4.251	4.476	4.273	4.270	4.411
430.0	407.6	496.8	692.8	846.5	898.2	902.9	891.6	869.3	859.1	843.3	845.7	813.3	776.6	738.4	687.4	653.6	639.6	627.6	627.2	635.2	636.9	648.2	650.7	649.9	640.0	668.7	585.9	552.9	519.4	488.9	451.2	394.4	305.8	234.3	184.5	143.4	109.3	84.24	71.82	155.4	621.8	1645	2121	738.6	14.24	3.412	2.641	2.541	2.583	2.280	2.598	3.295	3.376	3.542	3.738	3.598	3.953	4.043	3.928	3.904	4.065	4.159	4.088	3.974	3.965	4.008	3.732	3.920	4.046	3.959	4.102	3.919	4.027	4.189	4.161	4.055	4.368
435.0	706.4	505.8	683.0	810.0	867.3	883.1	876.0	860.8	840.4	830.4	817.5	791.2	749.6	706.1	661.6	619.3	600.5	596.4	589.1	589.5	596.9	613.4	617.8	623.1	617.2	656.7	574.4	551.1	520.2	490.9	447.7	407.5	348.0	266.2	209.8	166.7	130.0	97.70	76.34	77.45	169.5	394.4	1060	2601	1027	18.18	3.668	3.054	2.700	2.364	2.692	3.358	3.169	3.497	3.419	3.686	3.941	4.021	4.325	4.032	3.940	3.619	3.890	3.952	4.000	4.089	3.726	3.804	3.813	3.769	4.055	4.065	4.004	3.990	4.055	4.189	4.099
440.0	1026	606.6	667.1	782.0	852.7	884.9	858.4	853.0	842.5	810.6	800.7	770.2	722.1	682.9	632.1	600.3	575.9	567.4	566.3	564.2	568.5	584.8	589.7	599.3	592.5	634.9	562.8	541.4	517.7	491.9	447.2	398.6	361.1	296.8	227.3	181.7	143.2	111.5	85.14	68.49	77.28	116.6	277.0	1516	2601	233.8	10.80	3.518	3.012	2.524	2.561	3.085	3.187	3.410	3.436	3.536	3.662	3.929	4.003	3.933	3.912	3.925	3.890	4.137	3.921	3.850	3.620	3.767	3.770	3.974	3.731	3.826	3.880	3.846	3.945	3.858	3.897
445.0	1216	976.3	627.3	750.6	827.6	848.6	845.8	842.0	820.5	803.1	781.0	750.0	705.6	664.5	610.2	576.7	550.0	544.1	538.8	534.9	540.7	554.7	557.6	570.0	566.6	614.1	544.2	530.2	511.3	483.4	446.6	396.3	354.4	317.7	248.4	194.7	158.4	124.1	96.72	76.05	64.06	62.01	89.59	411.8	1872	1918	174.1	6.334	3.530	2.639	2.659	3.173	3.261	3.475	3.416	3.416	3.630	3.837	4.139	3.940	3.901	3.900	3.859	4.150	3.914	3.870	3.570	3.728	3.620	3.774	3.657	3.826	3.882	3.597	3.837	3.586	3.912
450.0	844.3	1927	878.6	719.1	780.3	813.6	822.8	814.6	790.3	769.7	748.3	713.1	664.1	626.2	576.3	537.9	512.8	501.6	497.8	493.5	497.6	510.5	517.1	524.0	524.4	569.7	510.5	500.4	487.0	466.4	431.4	385.9	343.2	306.8	269.5	214.7	172.4	138.3	112.8	90.79	74.15	60.99	55.94	118.1	497.3	1368	1750	610.3	12.58	3.273	3.061	3.300	3.175	3.534	3.403	3.382	3.710	3.714	3.815	3.801	3.869	3.776	3.732	3.870	3.688	3.590	3.432	3.464	3.434	3.504	3.500	3.571	3.562	3.549	3.578	3.452	3.668
455.0	405.9	2134	2099	720.6	728.0	762.3	775.8	764.8	745.3	723.8	707.9	671.0	619.5	578.4	532.1	495.9	472.5	460.5	451.1	447.4	448.5	461.6	465.0	476.0	478.3	517.1	469.4	463.9	458.1	441.3	416.1	373.4	330.8	290.0	266.0	233.3	189.0	152.7	127.0	106.8	87.11	71.48	57.75	59.61	133.7	325.7	817.3	1994	745.4	13.68	3.431	3.388	3.108	3.361	3.321	3.331	3.651	3.610	3.716	3.644	3.697	3.754	3.556	3.651	3.578	3.538	3.420	3.300	3.313	3.194	3.317	3.308	3.415	3.277	2.988	3.355	3.355
460.0	273.9	1537	3448	936.6	703.8	720.8	720.1	724.4	716.0	695.4	668.4	626.5	589.0	543.6	502.6	461.6	440.4	426.7	417.9	414.8	413.2	421.6	431.1	434.4	439.3	475.7	437.8	433.8	429.5	415.9	392.7	358.3	321.3	285.4	253.6	235.7	203.2	160.7	136.0	115.3	97.69	79.31	62.72	50.76	56.64	91.42	207.4	1106	1779	174.8	9.200	4.132	3.310	3.192	3.315	3.214	3.424	3.476	3.463	3.473	3.380	3.426	3.630	3.363	3.479	3.503	3.197	3.062	3.215	3.172	3.154	2.958	3.079	3.143	3.122	2.963	3.260
465.0	226.9	792.0	3881	2057	667.0	688.1	696.4	688.8	682.2	650.8	632.3	588.9	548.2	513.8	469.6	434.0	414.2	397.4	388.4	384.5	385.1	389.6	395.9	401.9	406.3	435.9	408.9	403.5	401.9	392.4	373.5	344.7	308.2	273.4	245.5	225.7	209.0	171.0	140.4	119.9	103.6	85.91	68.14	51.49	42.29	41.69	61.40	293.4	1324	1394	144.8	6.039	3.556	3.575	3.120	3.007	3.421	3.098	3.196	3.328	3.327	3.160	3.226	3.275	3.321	3.323	3.054	3.110	2.896	3.091	2.800	2.836	3.080	3.026	3.066	2.995	2.947
470.0	210.1	417.6	2361	4266	1145	625.5	638.2	636.3	618.2	600.0	578.5	542.9	507.0	463.9	428.3	392.5	371.1	356.5	347.8	340.8	339.6	344.1	354.3	357.0	359.9	387.1	362.8	362.7	361.7	354.9	340.1	315.3	285.6	256.4	229.3	207.2	196.1	176.4	146.7	123.2	106.0	87.95	71.12	54.35	42.24	33.14	31.09	78.22	348.4	951.6	1192	448.3	12.16	3.873	3.153	3.141	3.261	3.079	2.981	3.032	3.268	2.986	3.026	3.090	3.054	2.844	2.924	2.803	2.781	2.698	2.624	2.700	2.756	2.731	2.661	2.914	2.879
475.0	210.2	292.4	900.0	4357	3247	611.4	567.5	571.3	559.2	545.4	525.2	495.3	450.7	420.4	388.1	352.7	327.1	316.6	309.2	302.8	299.3	303.6	307.8	310.0	316.5	341.7	318.4	319.6	320.8	319.3	308.0	285.2	263.1	238.4	214.1	192.3	180.1	167.1	150.5	125.0	105.9	88.06	72.83	56.23	44.46	32.98	26.78	31.82	87.99	222.5	514.7	1264	208.7	15.07	3.410	3.175	2.900	2.851	2.981	2.779	2.835	2.610	2.656	2.828	2.715	2.673	2.737	2.457	2.579	2.463	2.521	2.392	2.544	2.397	2.399	2.361	2.563
480.0	212.3	272.6	479.4	2730	5235	1006	540.5	542.0	524.6	508.1	497.5	462.2	428.7	385.7	360.7	322.7	304.6	291.9	278.7	274.7	274.1	274.1	278.8	283.7	286.2	310.1	288.0	291.9	293.3	293.4	286.3	266.3	246.3	224.2	202.2	183.0	169.4	155.8	147.8	128.5	107.7	87.98	73.57	58.06	45.21	34.80	26.75	22.83	31.38	58.91	129.6	672.6	1201	193.6	8.099	3.523	3.112	2.965	2.914	2.707	2.798	2.455	2.633	2.844	2.454	2.479	2.485	2.325	2.326	2.257	2.386	2.151	2.501	2.169	2.157	2.295	2.516
485.0	176.7	281.0	361.0	1266	5618	2376	513.1	517.1	493.5	475.9	463.7	436.0	398.0	367.3	333.9	302.4	283.1	270.4	261.5	254.0	254.7	253.0	256.4	261.4	265.2	282.9	267.7	271.2	272.0	273.2	266.4	249.6	230.4	212.5	193.1	175.1	161.6	147.2	138.9	129.9	109.0	87.72	73.05	58.59	45.88	35.77	27.68	22.64	20.33	23.84	37.72	178.9	879.0	1113	29.30	5.205	3.424	2.829	2.805	2.684	2.681	2.649	2.571	2.543	2.325	2.396	2.409	2.330	2.237	2.398	2.403	2.085	2.307	2.065	2.088	2.030	2.271
490.0	162.1	262.6	342.8	593.7	3310	4925	913.3	467.6	450.1	438.3	430.2	398.0	369.2	334.0	305.2	272.5	257.6	245.5	235.6	230.8	228.0	226.4	229.4	235.5	238.0	252.7	239.6	243.1	245.5	245.8	243.1	228.7	210.9	196.5	181.9	166.5	151.9	139.0	128.1	122.0	112.0	90.58	72.81	59.25	47.99	37.91	30.34	24.17	19.91	17.85	18.93	48.82	233.1	688.8	942.0	389.1	13.11	3.485	2.957	2.736	2.527	2.522	2.449	2.412	2.144	2.299	2.200	2.232	2.127	2.057	2.093	1.899	2.104	1.904	2.025	1.966	2.058
495.0	143.1	232.9	309.9	387.5	1188	5157	2981	433.6	412.7	405.4	393.0	358.4	334.7	302.1	273.5	247.6	231.3	221.7	214.7	206.3	201.8	203.5	202.2	208.2	210.5	220.9	211.0	213.9	217.8	219.6	216.7	205.3	190.9	178.2	166.8	152.5	140.6	128.2	118.5	109.6	105.4	92.73	73.89	59.62	48.39	39.60	31.62	26.29	21.93	18.27	16.23	21.59	61.39	163.5	454.3	1138	232.1	15.67	3.462	2.893	2.514	2.432	2.302	2.337	2.126	2.199	2.003	2.043	2.042	2.113	1.836	1.757	1.796	1.776	1.925	1.795	1.751
500.0	120.6	200.1	315.6	323.5	533.5	3221	5218	663.7	383.5	368.1	357.5	331.3	304.6	278.9	248.4	229.9	212.6	200.7	195.8	187.0	184.1	181.8	181.9	188.5	188.4	200.5	190.0	195.0	198.0	201.0	197.6	190.8	175.9	164.6	155.0	142.6	132.9	122.2	112.1	103.0	95.77	89.64	74.79	59.15	47.90	40.11	32.91	27.36	22.85	19.56	16.60	16.46	23.99	45.66	116.5	602.9	1130	203.1	8.581	3.025	2.604	2.229	2.311	2.183	2.147	2.081	1.921	1.899	1.751	1.850	1.841	1.820	1.776	1.739	1.765	1.733	1.723
505.0	111.0	172.8	301.5	296.1	353.0	1472	5915	1745	354.2	335.5	335.7	303.9	284.2	251.5	231.0	210.2	191.2	183.6	177.4	171.0	167.9	166.7	164.9	170.7	170.5	180.4	173.2	176.5	181.9	181.0	178.5	175.0	161.4	152.6	142.7	133.2	122.9	113.8	105.2	96.85	88.99	83.05	74.38	60.34	47.52	39.32	32.73	27.81	23.86	20.49	18.09	15.91	16.34	19.84	35.02	160.5	774.1	975.4	31.98	4.762	2.612	2.381	2.178	2.177	1.954	1.967	1.906	1.828	1.733	1.741	1.701	1.695	1.493	1.699	1.631	1.635	1.717
510.0	100.1	152.0	249.4	299.1	287.0	578.6	3614	4149	600.6	304.6	293.6	270.8	248.7	226.3	205.6	183.7	169.5	161.8	155.1	149.8	147.0	144.8	145.2	148.5	148.3	155.2	151.6	153.4	157.4	158.1	156.2	152.5	142.7	134.2	126.5	118.8	110.4	101.4	94.92	86.62	79.40	72.26	67.59	59.94	47.99	38.37	32.59	27.45	23.68	20.95	18.54	16.42	15.47	14.95	17.24	44.37	203.5	579.3	742.8	291.1	12.11	2.528	2.159	2.020	1.876	1.860	1.579	1.639	1.582	1.670	1.559	1.518	1.471	1.540	1.483	1.469	1.571
515.0	97.30	128.3	186.7	276.6	265.0	325.5	1227	5121	2134	280.2	257.3	237.9	219.8	200.3	177.4	159.4	148.4	140.1	132.7	129.7	126.7	126.7	124.1	127.4	128.7	133.6	128.6	131.4	134.8	136.6	135.8	130.6	122.5	116.3	110.0	104.0	96.45	90.63	84.77	77.76	71.14	63.49	58.36	54.84	47.80	37.94	30.69	26.47	23.34	20.43	18.76	16.65	15.41	13.72	13.68	18.33	52.62	136.4	320.9	812.2	228.7	14.15	2.212	1.866	1.761	1.589	1.587	1.487	1.460	1.450	1.401	1.387	1.539	1.454	1.250	1.351	1.496
520.0	89.37	120.3	161.8	232.5	261.9	249.4	471.8	3450	4483	315.7	234.6	216.3	199.1	178.2	156.7	144.0	134.8	126.6	120.4	116.5	113.2	111.0	110.9	111.9	114.0	118.2	113.6	116.0	120.4	120.8	119.2	115.9	109.8	104.7	98.15	92.74	87.29	81.79	76.93	70.42	65.66	58.43	51.90	48.50	45.73	37.39	30.38	25.77	21.96	19.66	17.78	16.21	15.04	13.32	12.81	12.84	19.08	36.33	80.50	410.2	766.6	192.4	7.205	2.026	1.780	1.557	1.472	1.324	1.422	1.547	1.292	1.327	1.289	1.387	1.279	1.239	1.248
525.0	85.54	108.4	149.0	202.4	255.2	215.3	272.8	1566	5676	1254	213.7	201.7	179.4	162.0	145.0	129.6	121.2	113.0	107.9	104.3	100.4	100.8	100.7	99.52	100.3	104.4	101.5	103.6	107.2	109.0	107.5	105.0	99.64	95.58	88.88	84.38	79.47	74.28	70.57	64.02	60.33	53.36	48.76	43.88	42.41	37.21	30.90	24.54	21.13	19.41	17.19	15.97	15.07	13.28	12.17	11.28	11.60	13.86	23.09	105.8	480.7	689.8	32.53	3.562	1.713	1.576	1.439	1.390	1.415	1.359	1.273	1.189	1.237	1.167	1.096	1.204	1.089
530.0	80.24	94.73	127.4	163.3	223.8	215.8	207.5	534.0	3709	3893	393.2	173.6	158.9	139.2	126.2	113.7	102.0	98.66	94.29	90.28	86.95	84.99	87.16	86.14	85.68	90.03	87.38	88.88	92.05	93.69	93.35	89.43	86.04	82.19	77.34	72.79	69.28	64.71	61.03	56.36	52.22	48.19	42.32	38.47	35.29	34.07	30.75	24.37	20.55	18.09	16.47	14.67	13.76	12.79	11.69	10.27	9.416	8.909	10.08	27.68	123.0	374.7	504.1	136.6	11.82	1.756	1.433	1.346	1.372	1.214	1.128	1.148	1.202	1.167	1.097	1.057	1.039
535.0	77.87	88.26	113.3	133.6	175.8	214.0	171.5	244.6	1238	4969	1581	156.8	137.7	123.2	108.1	98.02	90.72	84.58	80.54	75.89	74.41	71.41	73.84	72.46	72.84	76.05	74.43	74.08	76.67	78.13	78.20	76.34	73.08	70.46	65.77	61.85	58.95	55.17	52.59	49.25	45.79	41.01	37.63	33.08	30.10	28.14	28.26	24.86	19.00	16.24	14.91	13.46	12.26	11.66	11.11	9.532	8.624	7.742	6.540	10.13	30.65	86.77	195.6	521.2	223.2	13.59	1.498	1.325	1.220	1.176	0.961	0.968	0.950	1.118	1.065	0.950	0.977
540.0	69.52	74.77	97.96	115.2	139.8	199.6	167.1	165.7	406.0	3371	3675	204.1	120.1	108.2	94.37	85.66	79.32	73.86	70.01	66.47	65.06	64.61	64.82	62.72	64.16	67.02	62.96	65.73	66.74	68.48	68.01	67.31	63.72	61.33	58.02	55.57	52.34	48.88	46.03	43.45	39.97	36.39	33.12	30.01	27.30	25.57	24.65	23.31	18.92	15.64	13.77	12.96	11.48	11.03	9.994	9.231	7.952	6.998	5.865	5.785	10.37	22.00	47.92	245.3	530.2	178.2	6.675	1.324	1.226	1.232	0.921	0.852	0.897	0.970	0.943	0.937	1.095
545.0	67.43	72.22	93.43	102.8	115.8	175.5	170.5	134.4	191.2	1487	4922	735.6	110.0	99.17	84.40	76.53	70.22	64.34	60.85	59.30	58.28	56.18	56.04	55.75	55.16	58.12	56.12	57.86	59.04	61.85	60.48	58.86	54.87	53.26	50.85	48.35	45.92	42.89	40.44	38.82	36.62	33.10	29.97	26.29	24.48	22.45	21.01	20.90	18.81	14.94	13.17	11.81	10.57	10.36	9.234	8.923	7.706	6.535	5.538	5.164	5.471	7.759	13.36	62.03	295.0	476.5	32.92	2.898	1.252	1.094	1.011	1.064	0.900	0.809	0.899	0.928	0.926
550.0	61.66	64.11	81.96	87.65	95.42	127.4	168.7	125.5	128.0	454.3	3223	2567	148.9	82.34	70.98	63.47	58.07	54.02	50.43	49.16	47.91	45.99	46.56	46.26	46.58	48.79	46.99	47.88	48.37	49.97	49.84	48.34	45.62	44.13	42.83	40.55	38.68	36.85	34.23	32.38	30.16	27.65	25.37	22.49	20.92	18.87	17.55	16.95	16.69	14.30	11.84	10.42	9.317	9.013	8.147	7.720	6.993	6.423	5.334	4.567	4.164	4.319	5.337	15.98	73.24	230.1	320.0	133.4	11.57	1.259	1.099	0.958	0.900	0.811	0.843	0.886	0.835
555.0	58.16	61.29	71.49	74.96	79.27	94.80	138.0	129.5	97.18	174.9	1019	3898	922.5	70.91	59.53	52.07	46.80	44.66	41.37	40.72	38.83	37.39	37.49	36.88	37.03	39.22	37.02	37.62	39.78	40.37	39.72	38.26	38.04	35.55	33.59	32.28	31.03	29.94	28.54	26.57	24.78	22.86	20.74	18.91	17.32	15.59	14.19	13.46	12.92	13.03	11.43	8.960	7.988	7.823	6.737	6.411	6.148	5.464	4.890	4.068	3.753	3.317	3.411	5.572	18.16	52.97	112.1	308.1	199.3	13.88	1.200	0.902	0.853	0.762	0.817	0.783	0.721
560.0	60.98	59.55	68.07	67.87	67.45	76.90	103.7	131.5	86.97	102.0	306.6	2751	2412	103.1	50.76	44.31	40.66	38.97	35.61	34.77	33.35	32.80	31.46	32.36	31.04	32.89	31.75	31.76	33.50	33.61	33.78	32.54	31.28	30.01	28.83	27.69	26.56	24.62	23.78	22.81	21.23	19.52	17.74	16.36	14.58	13.50	12.76	11.11	10.79	11.09	10.70	8.645	7.238	6.937	6.172	5.604	5.273	4.900	4.417	3.961	3.488	3.011	2.839	3.205	5.865	13.62	27.20	128.1	318.4	143.3	6.960	0.967	0.910	0.763	0.754	0.807	0.651
565.0	62.74	60.78	64.87	65.27	60.67	66.17	79.45	125.4	85.69	78.45	125.6	1169	3493	386.6	44.93	39.86	33.88	32.65	29.71	29.17	28.37	28.41	27.18	26.89	25.59	26.93	26.73	27.17	28.42	28.43	28.67	27.65	26.75	25.68	23.92	23.11	22.11	20.70	19.97	19.32	17.52	16.32	14.99	14.22	12.89	11.86	10.93	9.706	8.993	9.091	9.270	8.410	6.898	6.174	5.598	5.296	4.762	4.347	4.400	4.083	3.282	2.745	2.677	2.638	2.978	4.860	7.726	31.47	152.4	283.8	34.03	2.850	0.996	0.781	0.681	0.777	0.690
570.0	55.76	59.30	62.16	58.48	49.26	52.55	58.52	97.77	101.4	67.95	76.36	336.5	2378	1698	77.36	32.29	28.05	26.78	25.00	23.92	22.87	22.17	22.11	21.47	21.42	21.94	21.21	21.64	22.31	23.16	22.56	22.24	21.65	20.55	19.80	18.49	17.78	17.04	16.18	15.14	14.46	13.46	12.47	11.57	10.40	9.779	8.854	7.998	7.521	6.846	7.105	7.235	6.422	5.596	4.928	4.558	4.182	3.754	3.619	3.426	3.075	2.702	2.449	2.328	2.320	2.742	3.266	8.433	37.02	118.9	180.3	104.8	11.35	0.945	0.695	0.661	0.711
575.0	58.99	62.55	54.56	51.31	44.79	42.11	46.17	61.98	103.4	68.74	58.51	116.6	729.2	2629	555.8	27.81	23.59	21.80	19.78	19.35	18.13	18.25	17.26	17.79	17.07	17.52	17.77	17.17	17.42	18.66	17.71	17.69	17.06	15.87	15.02	14.88	13.85	13.64	12.50	11.92	11.16	10.75	9.935	9.478	8.511	7.985	7.143	6.731	6.310	5.649	5.524	5.506	5.713	5.113	4.207	3.830	3.682	3.429	3.080	2.970	2.788	2.799	2.350	1.955	2.017	2.037	2.303	3.373	9.633	27.90	54.70	165.0	138.5	13.38	0.987	0.697	0.682
580.0	55.65	58.26	57.56	45.17	41.25	39.83	40.19	48.16	91.28	77.03	53.18	67.33	206.6	1843	1507	46.19	20.94	19.20	17.47	16.43	15.50	15.19	15.46	15.16	14.33	15.34	14.78	14.23	14.41	15.26	14.55	15.34	14.09	13.25	12.84	12.35	11.89	11.79	11.05	10.43	9.589	8.727	8.536	7.992	7.514	6.815	6.353	5.749	5.265	4.942	4.633	4.342	4.785	4.678	4.008	3.579	3.266	2.988	2.638	2.591	2.470	2.603	2.267	2.044	1.949	1.796	2.000	2.021	3.453	7.376	13.51	60.08	176.9	101.8	6.793	0.690	0.658
585.0	53.77	57.03	51.55	43.71	35.10	36.79	35.86	38.26	69.27	90.41	52.89	52.95	79.11	757.4	2211	111.0	18.08	17.30	15.61	14.20	13.79	13.57	13.20	12.76	12.01	13.01	12.47	12.24	12.48	12.69	12.89	12.84	12.10	11.66	10.68	10.34	10.25	10.27	9.255	9.457	8.288	7.851	7.305	6.875	6.450	6.074	5.443	4.982	4.852	4.135	4.007	3.734	3.981	4.381	3.782	3.299	2.899	2.680	2.367	2.409	2.242	2.267	2.205	2.064	1.783	1.713	1.872	1.793	2.000	3.079	4.054	14.85	73.03	163.6	34.55	2.988	0.759
590.0	51.31	55.51	49.90	42.27	33.21	33.75	31.91	35.13	48.12	88.24	63.63	46.73	48.13	211.4	1457	982.1	38.14	14.46	12.83	11.63	11.51	10.81	10.49	10.14	10.30	10.64	9.808	10.17	10.47	10.50	10.32	10.16	9.964	9.426	8.962	8.948	8.500	8.249	7.442	7.194	6.840	6.368	5.954	5.363	5.066	5.094	4.685	3.970	3.909	3.707	3.309	3.134	3.116	3.342	3.470	3.207	2.699	2.367	2.130	1.971	1.954	1.909	1.814	2.086	1.820	1.609	1.489	1.587	1.638	1.756	1.861	4.264	17.59	60.62	110.2	75.56	11.30
595.0	48.72	47.86	49.80	37.77	30.72	30.04	29.90	32.02	38.41	66.57	80.38	48.51	41.25	70.80	434.2	1507	278.4	12.44	10.16	9.874	8.997	9.132	8.594	8.504	8.346	8.902	8.443	8.367	8.312	8.235	8.540	8.381	7.890	7.461	7.352	7.247	6.671	6.528	6.050	6.045	5.452	5.099	4.664	4.487	4.402	4.252	3.885	3.267	3.117	3.028	2.628	2.541	2.487	2.468	2.777	2.836	2.504	2.030	1.874	1.812	1.641	1.762	1.561	1.563	1.606	1.741	1.531	1.352	1.305	1.360	1.418	1.764	4.578	14.18	30.51	93.62	97.32
600.0	48.27	48.38	45.06	35.41	27.57	27.72	29.00	32.91	33.79	53.12	82.73	51.98	38.48	38.12	120.9	1054	725.0	20.20	9.448	9.146	7.814	7.591	7.624	7.422	6.974	7.477	7.098	7.216	7.235	7.080	7.098	7.105	6.749	6.066	6.362	5.986	5.768	5.216	5.012	5.048	4.441	4.374	4.071	3.787	3.694	3.422	3.360	2.916	2.744	2.374	2.310	2.218	2.052	2.107	2.208	2.496	2.570	1.901	1.783	1.566	1.559	1.558	1.405	1.421	1.511	1.536	1.388	1.454	1.085	1.223	1.197	1.190	1.737	3.795	7.501	30.80	103.1
605.0	45.92	46.82	43.34	36.50	26.94	28.09	28.62	31.61	34.77	46.04	77.13	62.19	37.94	30.20	42.64	434.6	1183	73.59	8.999	7.704	7.289	6.788	6.858	6.388	5.992	6.719	6.300	6.148	6.049	6.321	6.299	5.887	5.611	5.212	5.402	4.971	4.710	4.648	4.350	4.235	3.782	3.355	3.549	3.248	2.950	3.034	2.701	2.681	2.419	2.188	1.989	1.965	1.888	1.889	1.944	2.054	2.256	1.932	1.575	1.499	1.371	1.365	1.315	1.279	1.376	1.464	1.426	1.319	1.008	1.181	1.132	1.013	1.068	1.450	2.194	7.533	37.72
610.0	48.69	40.21	40.61	32.79	28.33	26.05	26.88	30.38	35.02	41.32	61.41	75.12	42.31	29.87	26.50	120.0	823.1	527.0	19.40	6.776	6.267	5.639	5.561	5.422	5.225	5.647	5.214	5.131	5.028	5.115	5.052	4.935	4.616	4.241	4.266	4.008	3.937	3.769	3.596	3.500	3.249	3.121	2.857	2.679	2.553	2.504	2.094	2.234	2.042	1.721	1.639	1.704	1.586	1.554	1.505	1.544	1.825	1.814	1.511	1.264	1.253	1.149	1.192	1.159	1.157	1.206	1.295	1.315	1.043	0.941	0.987	0.859	0.915	0.917	1.052	2.224	9.141
615.0	43.00	39.94	43.44	32.00	23.94	26.73	25.35	28.70	35.60	39.52	47.80	72.08	49.78	29.94	22.54	38.20	252.8	872.7	78.15	6.673	5.488	4.830	4.204	4.446	4.433	4.891	4.385	4.306	4.220	4.142	4.327	4.187	3.751	3.617	3.216	3.164	3.142	3.033	2.986	2.826	2.674	2.518	2.276	2.089	1.941	2.109	1.781	1.881	1.621	1.517	1.438	1.429	1.219	1.142	1.312	1.170	1.360	1.473	1.561	1.202	1.181	1.006	1.028	1.022	1.083	1.006	1.031	1.183	1.106	0.942	0.940	0.831	0.815	0.780	0.751	1.063	2.601
620.0	40.24	41.41	38.76	31.33	25.52	24.97	23.08	28.67	32.96	37.57	45.54	59.53	57.15	29.91	21.54	19.54	69.22	647.4	446.3	9.874	5.216	4.451	4.407	3.914	3.717	4.342	3.523	3.735	3.890	3.780	3.637	3.424	3.446	3.081	3.235	2.722	2.717	2.602	2.559	2.340	2.438	2.197	2.113	1.837	1.740	1.678	1.636	1.617	1.411	1.239	1.282	1.221	1.134	1.177	1.174	1.089	1.128	1.125	1.531	1.257	1.153	1.007	0.886	0.912	0.942	1.019	0.948	1.065	1.135	0.999	0.942	0.837	0.781	0.700	0.717	0.770	1.204
625.0	41.34	41.85	32.10	28.19	24.78	23.40	23.86	26.14	32.81	37.66	44.57	52.06	66.72	32.73	21.28	15.67	24.63	284.3	739.7	45.33	4.841	4.079	3.861	3.473	3.299	3.650	3.086	3.286	3.439	3.383	3.157	3.125	2.918	2.700	2.834	2.399	2.335	2.072	2.128	2.062	1.926	1.949	1.709	1.670	1.624	1.587	1.434	1.425	1.305	1.161	1.166	1.028	0.984	0.997	1.030	1.006	1.079	0.968	1.245	1.239	1.063	0.912	0.898	0.806	0.832	0.928	0.937	0.872	0.916	0.982	0.899	0.795	0.768	0.788	0.690	0.670	0.726
630.0	44.17	42.39	36.70	28.82	24.08	23.37	23.92	28.65	33.37	36.56	42.04	45.46	59.62	41.46	20.94	15.00	14.05	78.37	555.8	338.1	9.262	3.869	3.298	2.907	2.929	3.354	2.825	2.657	2.774	2.753	2.636	2.634	2.464	2.200	2.190	2.052	1.969	1.864	1.909	1.725	1.645	1.500	1.513	1.400	1.289	1.337	1.223	1.188	1.076	0.973	0.988	0.957	0.901	0.830	0.823	0.852	0.886	0.881	0.943	0.973	1.025	0.810	0.800	0.898	0.837	0.839	0.835	0.856	0.800	0.918	0.938	0.754	0.720	0.721	0.639	0.680	0.591
635.0	43.00	35.66	36.58	28.00	23.14	24.15	25.31	26.18	31.53	35.78	42.80	40.68	46.70	49.69	24.40	16.43	13.04	25.30	179.7	598.1	58.24	3.528	3.042	2.821	2.580	3.096	2.693	2.327	2.325	2.435	2.231	2.288	2.087	1.922	1.911	1.750	1.637	1.544	1.400	1.543	1.467	1.383	1.344	1.194	1.119	1.125	1.034	1.020	0.920	0.882	0.764	0.808	0.812	0.729	0.740	0.721	0.960	0.859	0.842	0.850	0.884	0.866	0.769	0.768	0.766	0.748	0.824	0.749	0.774	0.796	0.787	0.743	0.774	0.640	0.584	0.621	0.653
640.0	36.25	42.51	37.79	30.12	23.52	19.63	25.17	25.66	30.27	34.81	40.15	39.58	43.11	50.80	28.86	18.06	14.37	14.08	50.76	480.7	271.8	5.198	2.857	2.850	2.364	3.020	2.380	2.174	2.248	2.198	2.183	1.894	1.851	1.794	1.784	1.549	1.342	1.477	1.331	1.304	1.213	1.204	1.148	1.000	1.032	1.030	0.912	0.871	0.861	0.763	0.711	0.691	0.751	0.681	0.729	0.693	0.730	0.797	0.736	0.702	0.828	0.881	0.795	0.707	0.720	0.743	0.713	0.789	0.636	0.719	0.701	0.763	0.832	0.614	0.640	0.604	0.565
645.0	38.52	42.32	36.13	28.65	22.07	21.91	23.21	26.77	28.76	34.13	40.53	40.37	39.15	46.79	37.82	19.56	15.46	12.38	18.74	231.0	488.1	24.83	2.591	2.490	2.256	2.801	2.322	2.192	2.025	1.847	1.759	1.803	1.521	1.583	1.541	1.446	1.235	1.138	1.192	1.089	1.079	1.091	1.084	0.954	0.891	0.870	0.882	0.782	0.735	0.661	0.714	0.693	0.636	0.685	0.632	0.619	0.659	0.675	0.722	0.597	0.720	0.721	0.790	0.715	0.683	0.721	0.745	0.705	0.666	0.747	0.755	0.748	0.880	0.638	0.612	0.632	0.590
650.0	40.04	42.89	36.57	30.93	24.28	23.29	24.05	24.24	29.19	34.33	38.70	40.30	38.93	42.59	41.31	21.38	15.47	12.50	11.25	74.55	506.3	67.62	2.992	2.385	2.136	2.571	2.054	1.810	1.939	1.785	1.447	1.548	1.361	1.419	1.280	1.334	1.115	1.108	1.185	0.924	0.981	0.888	1.092	0.923	0.792	0.756	0.790	0.653	0.683	0.614	0.633	0.622	0.552	0.623	0.605	0.657	0.592	0.580	0.742	0.631	0.713	0.727	0.793	0.730	0.654	0.646	0.704	0.627	0.744	0.687	0.674	0.626	0.826	0.734	0.618	0.621	0.644
