Sample:	'1
File name:	Default_20250318_113610.FD3
Run date:	'11:29:48, 03/18/2025
Operator:	dsjg
Comment:	'

Instrument
Model:	F-2700 FL Spectrophotometer
Serial number:	2198-001
ROM Version:	4J14000 07

Instrument parameters
Measurement type:	3-D scan
Data mode:	Fluorescence
EX  Start WL:	220.0 nm
EX  End WL:	600.0 nm
EX Sampling interval:	5.0 nm
EM  Start WL:	230.0 nm
EM  End WL:	650.0 nm
EM Sampling interval:	5.0 nm
Scan speed:	12000 nm/min
EX Slit:	5.0 nm
EM Slit:	5.0 nm
PMT Voltage:	700 V
Response:	Auto 
Corrected spectra:	Off
Contour interval:	50.000

Peak integration
Integration method:	Rectangular
Sensitivity:	1
Threshold:	1.000

Peaks
No.	ApexEX/EM(nm)	Height(Data)
1	225.0/615.0	24.79
2	230.0/345.0	716.6
3	235.0/380.0	605.6
4	245.0/390.0	613.7
5	250.0/395.0	619.7
6	260.0/285.0	235.0
7	265.0/380.0	624.8
8	265.0/580.0	52.86
9	270.0/300.0	415.3
10	270.0/595.0	44.96
11	275.0/305.0	516.4
12	275.0/605.0	39.90
13	280.0/310.0	517.1
14	280.0/340.0	593.8
15	280.0/620.0	33.58
16	285.0/315.0	501.7
17	285.0/630.0	26.19
18	290.0/645.0	22.72
19	310.0/350.0	276.3
20	315.0/355.0	267.1
21	320.0/360.0	284.2
22	325.0/370.0	267.4
23	330.0/375.0	263.3
24	335.0/380.0	279.5
25	340.0/385.0	271.3
26	350.0/400.0	258.7
27	430.0/505.0	30.12
28	440.0/515.0	21.45
29	450.0/530.0	15.31
30	455.0/535.0	13.10
31	560.0/340.0	3.406
32	565.0/355.0	3.347
33	585.0/325.0	3.256

Data points
	220.0	225.0	230.0	235.0	240.0	245.0	250.0	255.0	260.0	265.0	270.0	275.0	280.0	285.0	290.0	295.0	300.0	305.0	310.0	315.0	320.0	325.0	330.0	335.0	340.0	345.0	350.0	355.0	360.0	365.0	370.0	375.0	380.0	385.0	390.0	395.0	400.0	405.0	410.0	415.0	420.0	425.0	430.0	435.0	440.0	445.0	450.0	455.0	460.0	465.0	470.0	475.0	480.0	485.0	490.0	495.0	500.0	505.0	510.0	515.0	520.0	525.0	530.0	535.0	540.0	545.0	550.0	555.0	560.0	565.0	570.0	575.0	580.0	585.0	590.0	595.0	600.0
230.0	54.57	 1639	 3776	 1124	36.79	5.134	3.835	3.177	2.832	2.352	2.619	2.140	1.708	1.385	1.360	1.138	1.032	0.949	0.894	0.835	0.782	0.792	0.711	0.661	0.673	0.674	0.573	0.584	0.559	0.507	0.500	0.460	0.471	0.447	0.352	0.403	0.377	0.372	0.328	0.322	0.308	0.299	0.346	0.283	0.255	0.234	0.452	3.143	9.646	11.95	6.055	1.267	0.263	0.168	0.146	0.140	0.148	0.148	0.120	0.113	0.117	0.113	0.125	0.104	0.113	0.104	0.105	0.104	0.121	0.091	0.092	0.080	0.089	0.075	0.087	0.087	0.090
235.0	56.68	449.9	 2343	 3833	510.6	49.86	5.656	4.356	3.469	2.570	2.525	2.181	2.228	1.459	1.441	1.209	0.929	0.918	0.852	0.863	0.690	0.726	0.679	0.708	0.654	0.567	0.649	0.632	0.603	0.570	0.464	0.432	0.466	0.405	0.392	0.388	0.435	0.377	0.387	0.328	0.288	0.248	0.316	0.349	0.352	0.337	0.306	0.869	2.894	6.565	11.11	15.33	9.518	2.424	0.265	0.129	0.181	0.174	0.151	0.136	0.157	0.096	0.123	0.117	0.114	0.101	0.102	0.103	0.075	0.111	0.108	0.103	0.087	0.093	0.103	0.101	0.091
240.0	78.96	141.9	716.2	 3178	 4029	402.4	18.06	4.577	4.914	3.105	3.164	2.314	2.069	1.927	1.301	1.312	1.083	1.016	1.032	0.824	0.803	0.719	0.784	0.750	0.713	0.661	0.781	0.654	0.523	0.594	0.475	0.378	0.325	0.389	0.399	0.377	0.346	0.406	0.332	0.360	0.299	0.269	0.311	0.288	0.406	0.440	0.415	0.423	0.782	1.775	4.603	12.72	20.75	17.68	7.194	0.998	0.189	0.180	0.180	0.174	0.132	0.091	0.111	0.154	0.110	0.112	0.102	0.121	0.093	0.196	0.087	0.119	0.104	0.097	0.109	0.066	0.079
245.0	65.33	127.9	192.0	 1132	 4644	 3286	280.3	9.287	5.485	4.254	4.180	3.129	2.405	1.913	1.607	1.259	1.302	1.163	0.940	1.109	0.879	0.674	0.769	0.591	0.818	0.777	0.738	0.592	0.638	0.718	0.477	0.445	0.439	0.391	0.377	0.339	0.382	0.321	0.303	0.393	0.294	0.283	0.286	0.290	0.313	0.316	0.498	0.599	0.404	0.555	1.205	3.784	10.71	20.91	23.72	15.25	4.792	0.464	0.200	0.174	0.141	0.138	0.113	0.109	0.124	0.154	0.118	0.113	0.091	0.138	0.108	0.131	0.071	0.079	0.087	0.072	0.081
250.0	32.87	94.01	144.0	301.5	 1556	 3751	 3572	 1092	61.56	6.763	5.500	3.944	2.816	2.291	1.894	1.688	1.181	1.223	0.967	1.090	0.938	0.852	0.792	0.710	0.785	0.702	0.713	0.674	0.621	0.618	0.528	0.561	0.533	0.433	0.430	0.357	0.349	0.319	0.343	0.339	0.332	0.297	0.302	0.238	0.242	0.264	0.345	0.504	0.592	0.583	0.611	1.087	2.669	6.192	11.69	17.82	22.98	19.75	12.33	4.246	0.459	0.160	0.166	0.167	0.143	0.138	0.126	0.109	0.114	0.114	0.105	0.116	0.082	0.116	0.105	0.080	0.118
255.0	20.17	34.51	99.24	201.7	390.1	969.9	 2883	 5425	 1574	75.22	7.843	4.747	3.502	2.894	2.562	1.764	1.393	1.206	1.100	1.051	0.954	0.858	0.881	0.712	0.855	0.738	0.625	0.776	0.588	0.564	0.540	0.488	0.486	0.464	0.391	0.414	0.332	0.339	0.348	0.374	0.304	0.408	0.340	0.222	0.263	0.264	0.287	0.270	0.327	0.493	0.714	1.082	0.964	1.559	2.812	4.353	7.692	16.59	30.59	28.75	18.54	4.959	0.411	0.174	0.190	0.168	0.142	0.133	0.132	0.121	0.098	0.135	0.129	0.100	0.094	0.111	0.107
260.0	21.47	19.80	45.05	154.7	204.6	242.6	895.2	 4353	 5652	 1237	54.03	6.752	4.579	3.317	2.931	2.157	1.684	1.570	1.192	1.257	1.118	0.875	0.956	0.798	0.705	0.652	0.656	0.658	0.612	0.562	0.608	0.507	0.490	0.472	0.396	0.371	0.333	0.331	0.297	0.293	0.284	0.352	0.382	0.255	0.356	0.228	0.276	0.226	0.249	0.279	0.491	0.938	1.059	0.957	0.890	1.188	1.905	4.381	12.58	26.21	39.67	27.99	15.50	2.164	0.217	0.220	0.145	0.156	0.179	0.156	0.129	0.131	0.134	0.112	0.091	0.109	0.073
265.0	22.57	16.27	21.43	75.96	182.7	140.9	220.9	 1480	 5399	 5681	 1130	16.54	6.744	4.260	3.033	2.544	1.716	1.734	1.384	1.346	0.987	1.007	1.002	0.837	0.719	0.839	0.816	0.613	0.576	0.678	0.630	0.607	0.510	0.470	0.492	0.409	0.320	0.349	0.339	0.291	0.319	0.324	0.306	0.279	0.354	0.231	0.218	0.235	0.234	0.199	0.271	0.422	0.829	1.224	1.050	0.675	0.631	1.181	3.102	7.598	19.30	36.54	48.89	25.18	9.108	0.754	0.181	0.151	0.168	0.165	0.144	0.124	0.165	0.135	0.114	0.123	0.160
270.0	37.30	29.03	27.58	33.44	88.95	161.6	146.1	364.0	 1675	 4646	 8091	 2590	62.14	6.641	4.435	3.432	2.508	2.148	1.790	1.629	1.254	1.156	1.075	0.891	0.913	0.894	0.814	0.714	0.776	0.692	0.643	0.646	0.581	0.506	0.472	0.453	0.411	0.345	0.336	0.355	0.297	0.340	0.292	0.281	0.318	0.276	0.373	0.270	0.268	0.245	0.251	0.296	0.381	0.611	0.929	1.006	1.063	0.829	0.961	1.899	4.676	10.36	20.78	29.86	38.72	34.62	16.84	7.876	0.955	0.216	0.170	0.117	0.158	0.139	0.126	0.145	0.138
275.0	74.27	76.69	53.07	32.79	35.99	78.73	182.2	198.3	405.5	 1154	 4431	 8284	 3809	76.77	7.361	4.727	2.899	2.478	2.102	2.026	1.592	1.427	1.091	1.024	1.018	0.869	0.911	0.812	0.752	0.669	0.747	0.649	0.627	0.598	0.506	0.595	0.414	0.348	0.365	0.336	0.325	0.308	0.325	0.363	0.348	0.442	0.508	0.346	0.387	0.289	0.318	0.273	0.255	0.335	0.362	0.494	0.783	1.421	1.404	0.993	1.381	2.568	4.867	7.050	11.21	22.22	42.22	54.92	25.78	8.598	0.577	0.190	0.175	0.141	0.141	0.124	0.185
280.0	106.9	103.8	85.89	44.49	27.75	37.85	121.0	223.2	187.3	299.8	 1248	 5175	 7965	981.2	44.87	6.542	4.104	3.200	2.514	2.346	1.941	1.647	1.375	1.209	1.194	1.057	0.969	0.832	0.780	0.719	0.770	0.747	0.599	0.709	0.562	0.637	0.461	0.381	0.415	0.450	0.385	0.325	0.354	0.412	0.457	0.468	0.643	0.510	0.471	0.448	0.368	0.321	0.273	0.312	0.280	0.342	0.446	0.849	1.372	1.536	1.222	0.906	1.322	1.925	2.856	5.719	15.03	33.78	52.95	52.28	20.02	3.368	0.279	0.177	0.153	0.202	0.196
285.0	131.6	156.7	125.0	59.37	30.94	29.87	63.78	180.9	235.0	156.5	344.6	 1586	 5565	 7084	763.1	23.25	6.273	4.403	3.224	2.753	2.024	1.806	1.553	1.402	1.270	1.136	1.073	0.981	0.840	0.733	0.747	0.740	0.719	0.687	0.671	0.682	0.617	0.533	0.390	0.449	0.413	0.461	0.348	0.401	0.458	0.610	0.661	0.666	0.617	0.558	0.459	0.385	0.366	0.306	0.305	0.330	0.365	0.501	0.861	1.290	1.764	1.332	0.861	0.862	1.063	1.761	3.861	9.162	21.31	43.61	58.04	29.52	13.32	0.873	0.198	0.178	0.165
290.0	173.2	202.1	166.1	88.71	48.29	39.50	54.72	103.8	214.3	259.2	219.8	468.2	 1652	 4244	 5868	 2883	41.92	6.917	4.466	3.309	2.592	2.257	1.818	1.514	1.382	1.186	1.160	1.038	0.930	0.847	0.852	0.760	0.854	0.753	0.807	0.753	0.690	0.631	0.595	0.539	0.490	0.481	0.432	0.475	0.591	0.618	0.767	0.784	0.779	0.667	0.514	0.466	0.465	0.414	0.335	0.407	0.388	0.414	0.583	0.730	1.091	1.489	1.812	1.709	1.317	1.152	1.552	2.737	5.454	11.82	21.62	32.11	45.00	39.43	18.22	8.552	0.885
295.0	208.5	237.6	208.7	121.9	70.96	57.44	66.73	92.99	153.0	277.0	379.6	270.9	505.4	 1090	 2644	 6797	 4134	52.99	6.934	4.689	3.543	2.573	2.282	1.872	1.698	1.411	1.221	1.270	1.076	0.907	1.027	0.775	0.945	0.789	0.891	0.821	0.853	0.721	0.588	0.569	0.531	0.551	0.484	0.535	0.590	0.705	0.791	0.955	0.861	0.902	0.708	0.585	0.490	0.430	0.368	0.393	0.502	0.497	0.628	0.729	0.856	0.998	1.370	1.769	2.540	2.064	1.595	1.624	2.213	3.524	5.547	7.979	12.41	20.85	43.22	63.74	28.07
300.0	208.1	269.2	241.2	147.8	89.16	75.34	83.21	107.0	148.2	239.7	415.3	407.9	308.1	374.7	761.9	 3388	 7933	 3146	36.73	6.271	4.323	3.413	2.609	2.044	1.955	1.722	1.495	1.376	1.188	1.121	1.105	0.944	0.931	0.991	0.872	0.890	0.831	0.756	0.653	0.646	0.642	0.605	0.458	0.619	0.598	0.838	0.969	1.049	0.982	0.895	0.767	0.679	0.610	0.505	0.485	0.549	0.517	0.654	0.746	0.790	0.853	0.867	1.237	1.416	2.210	2.699	2.665	2.043	1.698	1.889	2.147	2.472	3.401	5.598	14.15	35.97	59.93
305.0	238.0	298.0	264.1	163.2	109.6	91.60	104.1	130.5	168.1	241.5	375.2	516.4	384.3	255.9	276.2	991.9	 4357	 8565	525.3	22.86	5.870	4.319	3.421	2.533	2.307	1.949	1.635	1.371	1.295	1.222	1.074	0.916	0.913	0.928	0.846	0.910	0.969	0.860	0.797	0.768	0.737	0.622	0.499	0.537	0.672	0.796	0.914	1.062	1.072	0.950	0.802	0.791	0.703	0.581	0.623	0.578	0.655	0.727	0.745	0.863	0.856	1.061	1.395	1.521	1.824	2.243	2.935	3.341	2.523	1.921	1.543	1.528	1.553	1.979	3.668	9.690	22.39
310.0	240.5	310.8	297.7	182.5	123.7	111.6	131.4	160.5	203.2	267.3	356.6	466.0	517.1	353.9	207.8	302.4	 1181	 4135	 6410	 2171	33.77	6.605	4.383	3.325	2.643	2.333	1.875	1.772	1.505	1.381	1.172	1.109	0.969	0.969	0.912	1.041	0.956	0.887	0.775	0.711	0.636	0.609	0.549	0.662	0.798	0.859	1.001	1.129	1.121	1.053	0.834	0.845	0.786	0.691	0.745	0.707	0.800	0.887	0.887	0.997	1.127	1.280	1.466	1.743	1.743	2.018	2.283	2.887	3.117	3.008	2.427	1.678	1.424	1.346	1.442	2.729	5.525
315.0	270.8	335.6	326.1	209.1	146.2	132.9	150.3	185.3	236.4	307.4	382.0	440.9	485.4	501.7	298.4	177.9	327.7	983.0	 2320	 6883	 3435	44.58	6.825	4.613	3.611	2.766	2.291	2.262	1.788	1.521	1.386	1.317	1.116	1.187	1.065	1.103	0.955	0.853	0.861	0.754	0.651	0.636	0.575	0.724	0.834	0.885	1.045	1.275	1.314	1.069	0.986	0.870	0.817	0.786	0.752	0.810	0.952	0.962	1.022	1.222	1.267	1.489	1.645	1.807	1.944	2.140	2.337	2.481	2.528	2.997	3.176	3.076	2.191	1.475	1.165	1.233	1.860
320.0	296.8	412.3	382.1	257.7	166.9	152.8	175.6	213.0	269.7	345.5	415.2	457.2	482.3	492.4	428.3	203.4	155.7	273.2	600.3	 3003	 8415	 2661	31.81	6.247	4.600	3.236	2.853	2.160	2.025	1.735	1.541	1.395	1.177	1.087	1.102	1.109	0.938	0.928	0.799	0.748	0.802	0.673	0.592	0.698	0.945	1.061	1.182	1.547	1.480	1.274	1.092	1.111	0.978	0.826	0.959	0.958	1.032	1.148	1.071	1.335	1.559	1.447	1.831	2.030	2.121	2.285	2.638	2.652	2.445	2.852	2.925	3.073	3.312	2.423	1.491	1.061	1.147
325.0	351.7	502.2	499.6	298.5	193.0	174.6	193.0	240.7	297.4	370.6	454.8	502.8	506.0	468.3	466.4	314.5	143.4	129.4	179.3	793.3	 4294	 8552	423.8	21.99	5.790	4.249	3.405	2.707	2.259	1.912	1.728	1.384	1.375	1.187	1.184	1.164	1.024	0.912	0.948	0.784	0.771	0.742	0.713	0.790	0.902	1.151	1.539	1.823	1.876	1.612	1.251	1.359	1.019	1.149	1.019	0.923	1.079	1.121	1.262	1.373	1.541	1.718	2.206	2.139	2.305	2.392	2.799	2.740	2.742	2.781	2.720	2.746	3.171	3.256	2.617	1.431	1.100
330.0	388.1	580.6	590.0	380.1	234.3	200.0	218.1	262.4	326.2	404.3	486.1	541.6	540.8	480.0	420.8	376.9	251.9	129.0	103.1	224.5	 1089	 3990	 6546	 3498	30.18	6.609	4.311	3.357	2.795	2.310	1.976	1.668	1.404	1.362	1.251	1.171	1.118	0.984	0.856	0.828	0.768	0.774	0.774	0.846	0.964	1.284	1.585	2.060	2.080	1.971	1.628	1.605	1.353	1.157	1.101	1.080	1.251	1.306	1.391	1.474	1.744	1.846	2.274	2.382	2.435	2.720	2.829	3.052	2.873	3.114	2.692	2.714	2.591	2.646	2.605	2.332	1.923
335.0	426.2	611.2	673.0	443.6	294.3	238.2	247.7	287.1	359.2	438.9	513.1	577.8	577.5	511.2	419.7	337.0	329.1	228.6	114.0	110.4	291.5	935.7	 2237	 7539	 2979	40.55	6.448	4.498	3.664	2.722	2.278	1.787	1.626	1.449	1.407	1.203	1.105	1.019	0.983	0.775	0.782	0.700	0.743	1.019	1.178	1.312	1.735	2.061	2.355	2.283	1.742	1.717	1.638	1.426	1.262	1.249	1.325	1.442	1.534	1.668	1.870	1.943	2.381	2.454	2.507	2.913	2.947	3.034	3.275	3.248	3.093	2.923	2.871	2.522	2.182	2.105	2.342
340.0	437.1	640.3	709.6	497.0	334.8	267.5	268.2	308.7	372.6	457.5	529.9	585.0	593.8	530.6	434.1	331.2	293.8	311.5	167.3	102.5	123.2	253.9	557.9	 3117	 8788	 2461	30.60	5.994	4.208	3.341	2.902	1.970	1.805	1.506	1.509	1.186	1.141	1.043	1.023	0.834	0.832	0.871	0.853	0.918	1.163	1.438	1.776	2.189	2.703	2.317	1.882	1.916	1.708	1.389	1.358	1.422	1.392	1.694	1.542	1.664	2.014	2.075	2.568	2.653	2.647	3.002	2.984	3.226	3.406	3.278	3.241	3.241	2.960	2.563	2.296	1.996	1.961
345.0	429.0	639.4	716.6	536.3	376.2	301.1	289.9	326.6	385.8	464.2	532.7	583.3	588.3	538.7	444.3	336.4	273.7	297.9	258.9	129.8	99.02	109.3	164.6	792.4	 4654	 8574	373.4	21.49	5.102	3.954	3.051	2.339	2.000	1.606	1.496	1.224	1.065	1.114	0.966	0.938	0.829	0.962	0.930	0.897	1.116	1.386	1.721	2.112	2.409	2.274	1.997	2.030	1.816	1.681	1.498	1.524	1.619	1.698	1.648	1.847	1.904	2.169	2.452	2.590	2.745	2.891	3.102	3.225	3.232	3.214	3.307	2.996	2.935	2.717	2.484	2.001	1.890
350.0	411.0	619.3	703.6	555.6	420.1	352.6	334.6	365.8	411.0	472.7	536.2	577.8	587.7	539.6	453.7	358.0	283.1	257.4	276.3	230.6	132.5	100.4	94.15	220.1	 1153	 4100	 6250	 3436	28.51	6.224	3.932	2.742	2.334	1.881	1.725	1.464	1.183	1.110	0.991	0.900	0.828	0.806	0.917	0.950	1.108	1.304	1.623	2.073	2.305	2.296	2.096	2.077	2.075	1.921	1.581	1.777	1.782	1.896	1.919	2.173	2.188	2.300	2.761	2.554	2.822	2.964	3.113	3.147	3.158	3.315	3.130	3.017	2.970	2.657	2.431	2.168	2.047
355.0	388.9	578.1	676.5	567.1	471.9	407.5	399.7	424.9	456.8	510.9	556.3	578.7	588.4	540.5	470.9	381.9	310.3	266.8	242.1	267.1	231.2	133.1	100.6	109.7	301.9	951.5	 2106	 7381	 2791	40.18	6.228	3.900	2.900	2.322	1.955	1.501	1.373	1.248	1.113	0.903	0.977	0.856	0.860	0.848	1.010	1.252	1.524	2.172	2.300	2.294	2.063	2.213	2.297	2.197	2.067	2.029	2.160	2.342	2.277	2.392	2.263	2.818	2.909	2.909	2.895	2.966	3.169	3.169	3.086	3.347	3.154	3.232	2.897	2.865	2.290	2.454	2.217
360.0	380.1	533.1	654.4	589.7	508.3	459.2	445.2	459.4	493.5	541.5	569.7	585.7	586.4	550.4	477.3	397.2	333.9	287.2	250.1	246.3	284.2	193.4	120.7	99.39	125.2	254.4	516.7	 3014	 7967	 2375	30.51	5.380	3.611	2.670	2.097	1.705	1.434	1.285	1.149	1.044	0.911	0.843	0.887	0.792	1.111	1.317	1.448	1.854	2.179	2.275	2.122	2.295	2.481	2.394	2.305	2.132	2.311	2.359	2.453	2.507	2.630	2.886	2.824	3.249	3.133	2.824	3.131	3.215	3.194	3.289	3.206	3.178	2.994	2.882	2.646	2.307	2.459
365.0	360.8	524.9	635.6	580.8	540.6	489.8	480.7	498.6	520.4	562.9	587.0	586.6	578.8	553.2	484.5	412.7	353.0	307.3	266.5	241.9	262.5	266.8	159.1	113.9	98.51	109.5	152.8	747.7	 4232	 8072	356.4	19.88	4.584	3.365	2.387	1.966	1.719	1.185	1.319	0.989	0.955	0.884	0.927	0.933	1.202	1.303	1.597	1.908	2.048	2.140	2.048	2.307	2.518	2.407	2.558	2.344	2.474	2.456	2.744	2.730	2.745	2.966	3.046	3.143	3.208	3.028	3.152	3.346	3.238	3.152	3.100	3.068	3.026	2.835	2.843	2.515	2.453
370.0	352.0	494.9	613.6	591.8	559.2	536.4	531.6	538.7	559.8	584.9	597.0	592.6	578.0	542.6	492.3	425.0	369.9	329.8	294.3	263.1	249.9	267.4	245.8	160.9	116.3	95.91	85.86	204.7	 1043	 3898	 6165	 3042	25.69	5.077	3.134	2.466	1.887	1.513	1.400	1.093	0.936	0.970	0.913	1.026	1.158	1.253	1.529	1.868	2.066	2.090	2.084	2.416	2.615	2.573	2.781	2.525	2.714	2.648	2.786	2.974	2.969	3.143	3.203	3.331	3.236	3.171	3.219	3.295	3.190	3.115	3.202	3.066	3.116	2.934	2.877	2.603	2.637
375.0	315.7	473.2	593.5	602.0	586.8	575.1	571.5	574.4	585.4	607.4	606.7	603.4	581.7	538.2	495.0	437.5	389.8	353.9	321.1	291.2	265.4	250.0	263.3	251.1	158.4	117.2	91.61	99.98	270.2	899.2	 2109	 6719	 2506	34.52	4.835	3.035	2.238	1.893	1.329	1.369	1.233	1.163	0.977	0.890	1.127	1.321	1.420	1.863	1.867	2.197	2.024	2.384	2.650	2.629	2.840	2.729	3.008	3.092	3.049	3.169	3.155	3.234	3.320	3.309	3.189	3.136	2.971	3.433	3.297	3.081	3.087	2.990	3.410	2.798	2.697	2.725	2.745
380.0	323.3	449.0	580.1	605.6	603.1	593.1	593.0	593.8	613.9	624.8	611.6	604.2	579.2	535.4	490.7	441.6	400.3	371.4	340.8	310.2	281.9	259.0	251.8	279.5	219.7	142.8	108.8	89.81	109.0	234.5	508.1	 2810	 7396	 2027	25.02	4.061	2.647	2.077	1.627	1.387	1.218	1.205	1.042	1.135	1.267	1.261	1.466	1.737	1.878	2.121	1.970	2.441	2.708	2.670	2.799	2.924	3.041	3.041	3.161	3.099	3.311	3.260	3.206	3.322	3.515	3.362	3.379	3.366	3.168	3.197	3.384	3.125	3.136	2.918	2.840	2.750	2.772
385.0	313.7	419.2	575.6	600.1	604.4	611.6	599.6	596.3	612.8	621.1	616.5	600.1	579.2	536.8	487.9	440.8	406.9	382.7	350.7	325.4	298.2	275.1	254.6	261.0	271.3	183.0	129.2	100.3	82.59	94.85	144.3	693.8	 4019	 6679	295.5	15.52	3.436	2.430	1.888	1.438	1.265	1.128	1.111	1.089	1.152	1.187	1.535	1.749	1.895	2.060	2.006	2.543	2.612	2.770	2.900	2.987	3.167	3.196	3.115	3.276	3.136	3.208	3.367	3.388	3.252	3.206	3.155	3.351	3.166	3.275	3.110	3.018	3.069	2.895	2.851	3.038	2.837
390.0	295.9	421.0	552.5	592.7	609.1	613.7	612.4	599.0	611.8	617.4	601.3	592.0	566.6	535.6	486.0	442.6	413.2	386.6	361.8	340.0	315.2	293.8	271.4	256.6	263.5	249.5	176.9	125.4	98.14	80.41	75.55	184.6	985.1	 3257	 4821	 2313	20.63	3.865	2.478	1.917	1.463	1.242	1.141	1.236	1.134	1.263	1.422	1.723	1.796	1.966	1.946	2.526	2.638	2.829	2.863	2.979	3.131	3.237	3.144	3.177	3.220	3.305	3.324	3.236	3.225	3.315	3.305	3.221	3.165	3.127	3.109	3.129	3.116	2.941	2.915	3.124	2.803
395.0	297.1	404.5	541.0	577.0	599.7	610.3	619.7	609.6	605.4	604.7	596.8	582.7	557.7	526.9	485.0	440.0	415.9	391.3	368.0	349.1	329.2	312.7	291.3	271.2	253.2	255.6	245.2	169.5	121.2	95.08	76.50	81.81	248.4	747.9	 1665	 5219	 2015	29.09	3.641	2.485	2.022	1.414	1.262	1.183	1.156	1.320	1.351	1.659	1.834	1.852	2.030	2.460	2.809	2.939	2.946	2.929	3.237	3.362	3.459	3.078	3.037	3.307	3.268	3.303	3.339	3.179	3.186	3.378	3.257	3.092	3.041	2.911	3.330	2.979	2.892	2.925	2.949
400.0	303.5	395.2	532.8	573.2	584.4	608.7	617.1	601.5	605.7	603.4	591.5	572.2	554.0	516.0	479.1	437.0	411.1	396.0	374.7	354.8	335.3	321.1	302.8	283.9	262.0	247.4	258.7	220.1	145.6	112.0	86.88	68.56	89.96	190.1	398.1	 2214	 5430	 1698	21.31	3.362	2.319	1.781	1.470	1.309	1.352	1.594	1.397	1.640	1.746	1.963	2.100	2.286	2.651	2.802	2.870	3.010	3.264	3.208	3.316	3.246	3.275	3.342	3.213	3.165	3.133	3.014	3.189	3.198	3.093	3.031	2.856	2.976	3.144	2.904	2.917	2.991	2.985
405.0	293.1	391.8	514.7	560.0	582.8	591.5	598.1	597.9	601.2	593.7	581.6	566.2	543.3	510.5	468.0	435.5	406.7	392.0	375.2	357.3	339.7	325.6	309.8	293.8	271.9	250.4	242.8	249.2	184.8	130.7	100.5	74.61	62.39	72.19	109.0	540.4	 2888	 5271	261.9	13.79	2.581	2.039	1.671	1.292	1.376	1.490	1.351	1.595	1.844	1.911	1.884	2.341	2.601	2.680	2.848	2.908	3.328	3.100	3.185	3.155	3.127	3.154	2.913	3.264	3.227	3.065	2.943	2.919	2.821	2.875	2.957	2.930	3.021	2.890	2.746	3.019	2.770
410.0	286.3	379.0	492.2	542.7	582.4	586.1	590.8	596.1	588.8	578.7	567.6	551.7	527.1	497.9	461.6	424.0	395.8	382.7	369.5	353.7	338.6	327.2	313.8	299.9	282.3	259.0	239.5	237.6	228.5	171.2	120.5	90.05	67.48	54.11	50.95	139.4	699.2	 2556	 3694	 1118	17.95	3.059	2.093	1.622	1.447	1.514	1.462	1.614	1.946	1.846	1.855	2.309	2.617	2.781	2.790	2.768	3.151	2.996	3.212	3.193	3.102	3.087	3.055	3.063	3.155	2.931	2.862	2.813	2.859	2.774	2.876	2.898	3.010	2.870	2.600	2.893	2.672
415.0	274.9	368.2	469.8	524.5	549.8	574.7	586.0	581.4	578.7	571.6	559.0	535.4	515.8	477.1	451.2	411.7	383.5	372.6	355.0	347.2	334.0	324.8	315.1	301.1	291.0	267.2	246.0	228.7	224.4	217.5	152.9	106.2	78.35	58.89	45.09	55.28	172.8	583.5	 1310	 3819	 1723	25.38	3.098	2.015	1.747	1.595	1.604	1.712	1.910	1.850	1.895	2.336	2.464	2.708	2.814	2.745	3.026	3.005	3.171	3.209	3.082	3.060	3.161	3.078	3.030	2.827	2.981	2.911	2.793	2.694	2.727	2.831	2.994	2.782	2.695	2.616	2.653
420.0	273.5	359.6	449.1	514.7	538.0	564.1	579.7	573.5	576.8	565.6	547.9	526.4	501.1	473.5	438.0	396.1	376.9	366.2	345.5	340.1	325.8	318.2	311.6	301.1	290.4	270.9	249.2	227.8	213.9	219.3	187.5	122.9	88.43	64.88	48.30	39.78	58.35	144.0	309.5	 1651	 4128	 1402	18.57	2.657	2.032	1.786	1.549	1.758	1.817	1.802	1.859	2.264	2.405	2.655	2.768	2.733	2.980	2.921	3.170	2.986	2.951	3.100	3.144	2.863	2.956	2.847	3.000	2.763	2.535	2.721	2.604	2.739	2.818	2.634	2.825	2.566	2.600
425.0	260.5	356.2	453.8	491.0	521.4	540.9	567.8	567.0	560.9	555.3	539.9	517.6	493.3	466.5	424.2	389.3	365.7	353.0	337.4	330.8	317.1	310.0	306.3	296.5	287.3	271.1	253.1	231.8	213.0	206.3	202.8	147.9	98.03	72.06	54.31	41.06	36.50	48.70	80.98	402.0	 2266	 3883	246.0	9.933	2.307	1.952	1.853	1.826	1.878	1.703	1.848	2.266	2.440	2.578	2.711	2.553	3.051	2.931	2.996	2.924	2.916	3.080	3.103	2.791	2.966	2.691	2.602	2.693	2.624	2.667	2.807	2.871	2.815	2.640	2.609	2.491	2.463
430.0	268.0	352.0	430.7	478.9	502.7	531.7	553.1	561.0	560.2	553.8	536.4	507.7	476.2	447.8	408.6	376.1	351.4	336.4	325.7	318.1	307.4	302.1	297.6	290.7	283.8	269.1	253.5	234.4	217.3	201.1	190.7	174.1	124.8	84.53	62.25	47.67	36.67	31.77	33.34	100.9	554.2	 1955	 2865	999.0	15.63	2.746	2.068	2.014	1.925	1.808	1.802	2.199	2.355	2.580	2.462	2.544	2.932	2.979	2.920	2.970	3.023	2.985	2.978	2.812	2.724	2.823	2.748	2.783	2.667	2.620	2.745	2.719	2.604	2.576	2.487	2.382	2.423
435.0	428.6	315.6	400.7	455.4	479.9	510.5	537.4	552.0	553.3	547.4	530.9	502.3	465.0	431.7	398.8	358.6	331.9	321.2	311.7	305.6	295.2	290.3	287.0	283.4	278.9	265.9	253.7	236.4	220.5	202.2	181.5	166.9	152.8	107.4	72.92	56.46	42.64	32.63	26.96	36.38	133.8	444.9	 1054	 3184	 1504	21.18	2.749	2.229	2.038	1.874	1.844	2.183	2.317	2.484	2.506	2.674	2.796	2.800	2.844	2.866	2.963	3.129	2.967	2.884	2.952	2.768	2.824	2.648	2.671	2.432	2.579	2.643	2.486	2.292	2.407	2.391	2.253
440.0	776.0	329.6	390.0	454.7	470.1	502.1	525.9	544.0	552.5	539.4	521.6	495.3	454.0	419.0	381.4	345.7	322.8	311.6	297.7	293.0	286.2	279.6	278.4	275.4	271.6	258.8	249.9	235.0	220.8	203.8	182.0	160.0	153.9	129.0	83.90	61.43	47.03	35.37	27.78	24.35	41.55	108.0	249.8	 1529	 3623	 1041	12.33	2.684	2.168	1.889	1.909	2.187	2.452	2.483	2.533	2.564	2.818	2.858	2.957	2.903	2.902	3.007	3.028	3.032	2.888	2.817	2.647	2.495	2.671	2.494	2.594	2.552	2.302	2.290	2.376	2.344	2.154
445.0	 1169	433.4	375.6	438.0	457.9	491.6	516.9	534.2	550.2	536.1	514.3	481.0	445.6	406.5	367.4	335.2	310.3	303.2	286.3	282.6	273.3	268.9	266.3	266.7	260.2	253.2	244.2	231.0	216.9	203.1	182.7	159.7	144.0	136.2	99.31	66.62	51.04	39.01	30.00	23.81	22.66	34.15	63.71	383.7	 2267	 3259	188.8	6.057	2.435	2.208	1.966	2.123	2.419	2.527	2.346	2.342	2.803	2.894	2.902	2.822	2.932	3.115	2.979	2.754	2.792	2.653	2.667	2.439	2.546	2.356	2.609	2.326	2.215	2.385	2.223	2.280	2.041
450.0	 1141	984.4	418.1	411.7	430.6	462.2	495.4	513.8	526.2	511.3	497.2	462.9	421.8	384.1	347.2	314.6	291.9	280.0	267.8	261.4	255.7	251.0	249.5	250.2	246.4	241.2	230.1	221.2	209.3	198.3	179.6	157.2	135.1	123.3	113.1	82.03	57.48	43.54	34.16	26.31	21.12	20.03	23.49	93.13	563.9	 1857	 2124	776.6	12.86	2.555	2.146	2.266	2.406	2.394	2.297	2.470	2.672	2.760	2.837	2.849	2.780	2.991	2.702	2.715	2.761	2.564	2.514	2.473	2.436	2.442	2.365	2.226	2.173	2.092	2.073	2.155	2.119
455.0	589.7	 1798	808.6	379.5	410.7	427.0	465.7	486.0	497.2	491.3	470.6	433.9	397.5	356.2	323.7	291.3	268.3	254.4	248.4	242.9	235.9	230.8	228.9	229.5	228.7	223.1	214.1	207.8	199.7	191.1	171.7	153.3	130.7	112.0	101.7	95.90	69.27	48.00	37.06	28.97	23.08	18.92	16.66	29.48	132.4	422.0	928.6	 2788	 1212	15.31	2.562	2.374	2.281	2.322	2.339	2.342	2.588	2.805	2.759	2.662	2.661	2.652	2.573	2.729	2.668	2.459	2.531	2.487	2.289	2.229	2.258	2.063	2.080	1.991	2.160	1.971	1.997
460.0	295.5	 1719	 1588	413.7	382.8	411.6	440.6	462.1	474.7	470.8	454.3	417.7	378.2	337.1	306.1	273.0	253.9	240.0	232.2	224.8	220.5	213.7	214.2	214.2	212.9	208.6	204.2	198.3	191.1	183.1	167.3	149.6	128.0	108.6	93.99	91.40	80.51	53.72	39.65	30.70	25.10	19.74	15.85	15.86	36.84	100.2	220.7	 1385	 3022	180.2	10.01	2.664	2.458	2.365	2.395	2.335	2.389	2.446	2.638	2.508	2.587	2.621	2.568	2.621	2.614	2.416	2.266	2.176	2.142	2.115	1.998	2.052	1.961	1.775	1.906	1.917	1.941
465.0	196.9	 1046	 2272	655.8	362.7	389.0	418.4	439.0	447.4	441.5	435.0	400.1	356.8	321.8	285.6	258.5	240.7	225.7	216.8	209.5	205.5	201.0	199.1	203.7	197.5	195.4	191.7	188.6	181.5	174.0	161.6	143.9	124.2	106.4	90.96	83.08	81.59	61.42	42.57	32.32	25.93	21.01	17.08	13.99	16.87	28.76	55.32	346.7	 1974	 2358	150.0	5.413	2.624	2.410	2.490	2.220	2.265	2.429	2.527	2.488	2.443	2.549	2.386	2.619	2.475	2.228	2.267	2.162	1.947	2.052	1.916	1.906	1.894	1.757	1.749	1.756	1.704
470.0	172.3	431.9	 1943	 1750	430.8	355.7	384.3	408.0	417.1	413.1	398.3	370.0	327.9	297.0	262.2	235.8	216.2	203.2	195.6	190.2	186.6	182.7	181.8	182.5	178.8	177.6	173.5	171.0	167.5	161.2	149.9	135.2	117.3	101.0	86.44	74.61	71.62	65.84	49.77	35.55	27.79	22.16	17.81	14.69	13.08	14.04	18.70	82.71	497.3	 1446	 1558	661.5	12.34	2.786	2.375	2.409	2.404	2.348	2.322	2.301	2.365	2.346	2.241	2.291	2.261	2.194	2.095	1.966	1.853	1.900	1.652	1.780	1.809	1.700	1.592	1.618	1.595
475.0	161.6	247.1	802.9	 2461	 1057	323.8	349.2	371.5	383.4	384.4	368.3	335.4	304.0	265.6	236.2	212.4	197.3	184.8	176.0	171.0	167.8	162.9	162.7	163.7	160.7	159.8	155.8	155.0	151.6	146.4	137.8	123.7	110.5	94.20	82.30	70.90	62.16	58.85	56.37	41.29	29.54	23.22	18.92	15.75	13.54	11.94	10.72	24.18	115.6	328.4	659.9	 1999	901.6	15.78	2.810	2.265	2.408	2.213	2.102	2.157	2.184	2.254	2.151	2.009	2.007	2.014	1.881	1.994	1.768	1.848	1.598	1.735	1.571	1.661	1.531	1.417	1.540
480.0	156.7	192.5	371.0	 1967	 2011	368.5	322.6	348.0	356.4	362.3	341.3	312.1	280.2	250.1	219.1	198.1	181.7	172.6	163.1	158.1	153.4	150.2	150.6	151.5	148.6	148.0	144.7	140.9	140.1	135.9	128.6	117.1	106.1	90.59	78.77	68.60	59.26	53.01	53.19	47.17	33.06	24.49	19.99	16.91	14.21	11.72	9.732	11.63	31.01	77.58	157.0	943.3	 2053	200.9	10.45	2.520	2.272	2.211	2.174	2.239	2.163	2.041	1.989	2.089	1.925	1.841	1.800	1.641	1.657	1.864	1.547	1.573	1.461	1.406	1.588	1.436	1.297
485.0	152.6	186.5	252.2	 1011	 2667	666.5	305.5	329.7	339.8	338.2	320.2	295.1	267.1	235.8	207.5	184.3	170.1	160.0	151.0	145.5	143.7	140.0	139.6	139.2	138.2	136.2	133.2	132.8	131.8	127.9	123.0	110.9	100.3	88.25	76.70	64.84	56.55	50.62	46.83	47.73	37.81	25.66	20.77	17.39	14.79	12.08	10.33	9.374	12.45	21.94	39.39	232.3	 1294	 1620	173.0	4.859	2.601	2.219	2.042	2.101	2.063	1.949	1.978	1.894	1.782	1.862	1.647	1.650	1.711	1.575	1.502	1.404	1.389	1.320	1.343	1.315	1.357
490.0	131.0	192.5	210.8	424.1	 1959	 1634	355.8	299.7	311.8	307.1	296.6	274.6	242.5	214.3	190.7	167.9	155.2	145.7	137.2	133.8	130.4	126.8	126.1	125.7	123.4	122.0	121.1	121.1	119.3	117.2	113.0	103.2	92.40	82.64	71.45	61.80	54.03	47.60	42.73	41.59	40.92	31.30	22.41	18.47	15.34	13.22	11.16	9.611	8.862	9.838	13.13	55.82	320.8	972.5	 1479	619.7	13.05	2.399	2.120	2.073	1.907	1.895	1.836	1.691	1.709	1.729	1.544	1.543	1.525	1.430	1.475	1.391	1.312	1.219	1.236	1.303	1.277
495.0	115.1	168.3	191.5	246.9	774.5	 2128	920.7	271.4	280.7	282.3	269.3	249.5	220.9	194.8	168.5	151.3	139.4	129.6	122.3	119.2	114.9	113.4	111.6	112.3	111.5	109.6	108.1	107.6	106.7	105.9	99.96	94.71	84.75	75.31	65.93	57.40	51.64	44.16	40.19	36.21	35.63	34.61	25.68	19.40	15.79	13.48	12.05	9.992	9.128	7.613	7.490	16.43	75.09	221.3	627.1	 1741	850.5	16.34	2.445	2.032	1.943	1.736	1.868	1.766	1.551	1.582	1.313	1.477	1.314	1.314	1.176	1.193	1.322	1.198	1.036	1.086	1.053
500.0	96.60	158.3	190.1	199.6	342.5	 1558	 1701	322.3	256.7	257.0	249.0	230.5	202.7	178.2	154.7	140.4	128.2	118.9	114.6	107.2	105.8	102.0	101.1	101.4	100.9	99.03	97.53	97.76	98.06	96.03	92.09	86.64	77.41	68.88	60.74	55.29	49.58	41.77	37.88	33.52	30.93	33.19	29.86	21.36	16.22	13.74	12.21	10.12	8.904	7.689	6.308	7.992	20.38	52.77	148.6	819.6	 1849	217.1	10.50	2.170	1.964	1.787	1.737	1.620	1.409	1.547	1.361	1.359	1.275	1.256	1.215	1.201	1.145	1.137	1.091	0.949	0.885
505.0	84.64	123.2	188.1	185.6	214.2	789.5	 2122	768.3	235.1	235.1	227.6	208.6	188.8	164.0	142.5	128.1	118.4	109.8	104.0	98.52	97.24	94.04	90.25	90.15	91.47	89.79	88.71	88.90	88.59	87.33	83.99	77.82	71.14	64.85	56.99	50.16	46.06	40.44	36.32	32.43	28.15	28.59	30.12	23.93	16.63	13.93	12.38	10.44	9.143	7.784	6.530	6.049	8.248	15.21	36.28	201.0	 1115	 1589	179.2	4.653	2.047	1.635	1.638	1.463	1.281	1.448	1.272	1.159	1.273	1.053	1.098	1.026	0.958	0.887	0.993	1.037	0.886
510.0	76.50	100.0	163.2	178.3	169.8	319.9	 1427	 1947	335.4	213.0	201.2	186.2	165.0	145.8	124.9	113.0	103.1	96.74	91.17	87.82	83.91	81.90	80.08	79.29	79.95	78.20	76.99	77.19	76.64	76.65	73.93	69.47	63.73	57.76	50.88	45.71	41.42	36.68	33.08	29.20	25.90	24.17	25.08	24.84	19.25	14.18	12.16	10.33	9.094	7.808	6.787	5.813	5.760	6.676	11.13	47.53	274.0	863.9	 1207	505.1	12.84	1.913	1.630	1.381	1.362	1.290	1.127	1.151	1.186	1.051	0.956	0.964	0.934	0.879	0.823	0.907	0.856
515.0	68.06	91.94	125.1	164.3	150.3	184.4	529.6	 2149	970.4	189.5	177.3	161.0	145.8	127.4	110.8	98.62	89.06	83.28	80.31	74.68	73.83	70.35	70.03	68.87	70.01	67.65	66.96	66.48	66.71	66.06	65.16	61.51	54.91	49.98	44.64	40.41	36.38	32.99	29.59	25.87	24.15	21.19	19.95	21.28	21.45	16.45	11.90	10.23	8.841	7.730	6.651	6.243	5.465	4.842	5.530	13.24	63.53	195.7	445.0	 1262	675.6	16.49	1.957	1.328	1.299	1.251	1.067	1.029	1.001	0.885	0.898	0.769	0.758	0.724	0.814	0.739	0.835
520.0	58.40	78.19	100.6	144.8	149.9	143.4	231.5	 1399	 1736	238.3	160.9	147.9	131.4	115.8	100.3	89.40	80.25	74.87	73.10	68.39	65.87	62.72	62.97	61.89	62.10	59.38	61.02	60.68	59.88	59.16	57.94	55.06	50.61	45.51	41.87	37.35	33.40	30.39	27.19	24.47	22.29	20.12	18.33	18.05	19.93	18.56	12.49	10.11	8.662	7.609	6.571	5.934	5.087	4.299	4.278	5.634	16.64	45.94	104.4	571.3	 1313	211.2	9.621	1.432	1.265	1.140	0.970	0.986	0.889	0.860	0.834	0.775	0.766	0.697	0.854	0.710	0.756
525.0	58.46	69.90	86.97	124.8	149.2	131.9	148.1	648.2	 2021	657.6	149.7	134.0	121.2	105.4	91.60	81.17	72.22	69.46	65.11	61.68	58.51	57.54	56.56	56.43	55.87	53.10	54.34	53.79	54.61	53.55	52.88	48.97	45.74	40.90	37.77	34.16	30.69	28.17	25.52	23.54	20.38	18.96	16.70	16.18	16.36	18.52	14.53	10.12	8.709	7.292	6.592	5.623	5.001	4.409	3.926	4.020	6.147	12.48	25.38	138.6	732.7	 1120	169.2	3.710	1.323	1.088	0.862	0.946	0.886	0.872	0.735	0.660	0.759	0.638	0.713	0.675	0.657
530.0	53.08	68.75	79.32	97.71	129.1	124.0	119.7	249.6	 1227	 1546	296.2	118.5	106.5	91.40	80.66	69.55	63.55	61.29	57.00	53.79	51.46	49.93	48.90	49.07	48.12	47.31	47.23	46.56	47.33	46.95	46.30	43.15	40.90	36.25	33.34	29.91	27.56	24.99	22.87	21.05	19.37	17.08	15.55	14.33	13.64	15.21	15.31	11.54	8.310	7.022	6.212	5.415	4.591	4.464	3.908	3.483	3.650	4.974	7.452	32.77	177.1	577.4	861.9	373.4	12.11	1.271	0.986	0.895	0.808	0.786	0.685	0.673	0.659	0.592	0.595	0.605	0.533
535.0	40.50	52.07	76.35	78.28	100.8	118.1	105.5	136.8	425.7	 1550	 1105	111.3	91.16	79.38	69.45	62.21	55.80	53.37	49.58	47.04	44.44	43.03	42.25	41.44	41.01	41.19	40.41	39.94	40.70	40.98	39.37	36.99	34.68	31.50	28.81	26.41	24.10	22.35	20.64	18.04	16.97	15.43	13.98	12.65	12.16	11.88	12.73	13.10	9.082	6.740	5.992	5.210	4.283	4.148	3.786	3.556	3.011	3.144	3.488	9.036	41.08	130.5	294.7	879.9	233.3	15.90	1.140	0.861	0.705	0.621	0.669	0.680	0.585	0.512	0.545	0.457	0.490
540.0	43.49	50.62	67.47	68.39	84.01	112.2	100.9	102.5	177.8	949.9	 1858	179.0	81.61	72.98	63.03	55.83	50.45	47.22	44.53	42.16	39.42	38.12	37.69	38.00	36.88	36.92	35.75	35.34	35.98	35.91	34.64	33.09	30.83	28.04	26.22	24.02	21.55	20.23	18.38	16.83	15.33	14.37	12.83	12.19	11.11	9.941	10.21	12.10	10.43	7.007	5.551	4.693	4.085	3.870	3.475	3.488	2.999	2.772	2.484	3.669	10.81	30.66	68.41	375.9	867.1	209.9	8.228	1.013	0.782	0.654	0.559	0.576	0.628	0.450	0.442	0.501	0.475
545.0	43.02	53.02	63.40	69.52	70.16	96.78	98.35	92.77	111.0	425.5	 1887	724.9	75.91	64.14	56.67	50.32	45.29	43.34	39.02	37.65	36.10	34.38	33.71	33.67	32.61	32.36	32.36	31.34	31.82	31.55	31.35	29.03	28.28	25.67	23.36	22.01	19.59	18.57	16.95	15.84	14.12	13.01	11.77	10.79	9.914	9.311	8.675	9.897	10.21	7.838	5.317	4.631	4.086	3.611	3.315	3.285	2.984	2.779	2.327	2.462	4.002	8.261	16.56	90.19	473.9	834.8	159.9	3.132	0.947	0.694	0.588	0.577	0.563	0.468	0.478	0.419	0.486
550.0	37.99	45.36	53.47	59.28	59.45	74.01	92.76	84.97	85.95	164.6	978.2	 1531	240.9	56.65	48.80	42.37	38.67	36.77	34.58	32.89	31.11	29.79	29.55	29.02	28.66	27.62	27.63	27.18	27.57	27.15	26.86	25.57	24.18	22.05	19.79	18.91	17.28	15.75	14.37	13.78	12.60	11.52	10.55	9.846	8.910	8.585	7.694	7.520	8.642	8.174	5.996	4.361	3.751	3.408	3.137	2.908	2.858	2.589	2.391	2.062	2.322	3.144	4.882	21.34	113.8	403.9	597.5	284.7	11.40	0.872	0.678	0.544	0.523	0.462	0.403	0.416	0.375
555.0	35.47	40.31	47.03	50.18	47.04	55.36	77.06	85.54	71.27	88.29	308.1	 1282	905.3	58.60	41.45	36.84	33.53	31.46	29.95	27.91	26.47	25.42	24.11	23.95	23.78	23.29	22.94	22.59	22.98	22.57	22.25	21.31	19.76	18.30	16.83	15.55	14.71	13.08	12.26	11.80	10.75	9.931	9.259	8.249	7.780	7.468	6.510	6.133	6.158	6.881	6.610	4.850	3.537	2.844	2.885	2.627	2.480	2.267	2.264	1.865	1.802	1.905	2.209	5.815	26.29	91.21	191.9	595.0	230.9	14.21	0.763	0.546	0.500	0.448	0.367	0.400	0.339
560.0	34.54	41.60	41.55	45.87	43.36	44.00	61.37	84.14	65.86	65.68	117.4	679.9	 1343	126.9	36.59	31.16	29.19	26.51	25.96	24.39	22.44	21.58	20.58	20.63	20.54	20.41	20.08	19.11	19.31	19.61	19.36	18.14	16.99	15.73	14.51	13.67	12.69	11.43	10.77	10.22	9.560	8.642	7.849	7.492	6.784	6.543	5.674	5.440	5.187	5.534	6.242	5.131	3.418	2.853	2.470	2.431	2.229	2.185	2.207	1.858	1.659	1.611	1.458	2.293	6.841	21.29	44.53	237.9	584.5	192.0	6.257	0.667	0.401	0.412	0.358	0.385	0.320
565.0	33.50	41.06	38.63	41.85	37.13	39.43	49.07	70.81	64.61	56.00	67.43	270.6	 1189	595.3	33.73	27.39	24.59	23.46	21.97	20.40	18.92	18.64	17.45	17.60	17.94	17.31	16.92	16.82	17.07	17.47	16.58	15.88	14.67	13.17	12.68	11.84	10.91	10.03	9.237	8.832	7.959	7.499	6.898	6.622	5.842	5.668	5.141	4.730	4.433	4.405	4.972	4.956	3.653	2.664	2.318	2.301	2.052	1.855	1.911	1.882	1.656	1.465	1.317	1.423	2.637	5.745	10.98	56.38	294.5	532.5	31.84	2.137	0.462	0.443	0.319	0.328	0.313
570.0	32.35	34.88	35.88	32.67	31.84	33.63	37.02	52.13	63.73	47.72	47.98	96.60	565.4	 1052	205.9	22.88	20.73	19.04	17.43	16.72	15.65	15.20	14.37	14.35	14.02	14.09	13.37	13.60	13.68	13.56	12.96	12.44	11.84	10.94	10.12	9.354	8.744	8.052	7.519	7.298	6.493	5.961	5.640	5.351	4.881	4.721	4.078	3.926	3.491	3.391	3.419	3.908	3.651	2.655	2.050	1.865	1.755	1.560	1.538	1.557	1.467	1.333	1.310	1.202	1.574	2.140	3.325	13.49	69.83	240.0	326.0	129.6	9.679	0.518	0.359	0.339	0.263
575.0	27.65	30.08	33.32	29.77	26.12	25.76	29.50	37.56	55.13	50.07	38.86	49.09	167.8	735.0	769.8	31.84	16.60	15.16	13.72	12.89	12.37	11.74	11.49	11.28	10.80	11.23	10.19	10.94	10.27	10.37	9.852	9.239	9.269	8.416	7.753	7.509	6.836	6.338	5.967	5.482	5.068	4.720	4.506	4.171	3.804	3.748	3.481	3.334	2.771	2.635	2.472	2.615	2.935	2.795	1.921	1.507	1.584	1.361	1.311	1.315	1.208	1.255	1.177	1.066	1.113	1.275	1.398	3.769	16.30	54.25	102.3	306.8	196.8	10.51	0.494	0.292	0.294
580.0	26.68	28.53	30.70	24.20	21.39	22.80	23.78	28.90	44.72	52.86	36.39	36.40	59.66	367.7	 1038	93.65	14.01	12.29	11.30	10.83	10.08	9.775	9.184	9.072	9.030	9.067	8.354	8.460	8.665	8.559	8.319	7.938	7.388	7.020	6.309	6.090	5.615	5.178	5.017	4.782	4.383	4.040	3.662	3.543	3.291	3.085	2.973	2.642	2.316	2.035	2.065	1.993	2.366	2.545	2.101	1.519	1.287	1.337	1.198	1.111	0.991	1.121	1.234	1.000	0.981	0.959	0.948	1.555	4.349	12.71	23.76	120.4	338.0	122.6	3.269	0.385	0.234
585.0	20.85	27.79	29.00	20.91	20.29	19.13	20.87	24.14	35.04	50.45	38.53	31.84	35.22	140.6	812.0	523.5	14.43	10.68	9.994	9.125	8.665	8.193	8.100	7.629	7.707	7.466	7.416	6.925	6.860	7.107	7.313	6.632	6.323	6.024	5.313	5.085	4.830	4.542	4.267	3.889	3.608	3.335	2.985	3.228	2.874	2.590	2.449	2.191	1.936	1.807	1.716	1.575	1.886	2.054	2.365	1.483	1.075	1.143	1.115	0.993	0.904	0.905	1.030	0.982	0.913	0.927	0.884	1.072	1.569	3.452	5.847	28.47	164.5	266.5	29.52	1.109	0.251
590.0	22.47	28.63	27.24	21.16	18.20	15.84	18.18	20.82	26.56	41.77	42.02	29.79	27.95	47.74	346.3	827.4	174.8	9.059	8.362	7.560	7.016	6.455	6.574	6.091	6.407	5.930	5.832	5.601	5.714	5.684	5.667	5.392	5.167	4.644	4.513	3.955	3.892	3.546	3.323	3.119	2.814	2.778	2.519	2.520	2.336	2.242	1.978	1.790	1.655	1.528	1.332	1.252	1.317	1.463	1.875	1.606	1.252	0.947	0.898	0.878	0.757	0.761	0.783	0.830	0.827	0.876	0.771	0.765	0.896	1.264	1.727	6.796	38.86	116.9	172.5	91.69	7.216
595.0	22.77	25.55	25.45	18.83	16.25	16.31	16.16	17.76	20.69	31.90	44.96	32.12	25.91	25.39	95.32	493.6	627.0	19.39	6.950	5.853	5.511	5.166	5.460	4.879	5.184	5.064	4.536	4.467	4.647	4.390	4.637	4.120	3.944	3.597	3.445	3.160	3.052	2.687	2.639	2.503	2.231	2.155	1.935	2.045	1.797	1.846	1.665	1.520	1.374	1.286	1.160	1.034	1.066	0.944	1.359	1.458	1.235	0.890	0.742	0.661	0.681	0.707	0.728	0.730	0.764	0.838	0.686	0.582	0.737	0.669	0.797	1.881	8.941	26.35	52.85	162.7	110.9
600.0	18.74	26.19	23.44	18.23	17.33	13.37	15.11	16.64	20.08	24.68	39.55	35.64	23.89	18.98	31.12	216.6	801.3	73.36	6.106	5.129	4.568	4.458	4.648	4.430	4.099	3.907	3.732	4.039	3.949	3.886	3.959	3.512	3.207	3.126	2.767	3.034	2.481	2.284	2.120	2.063	1.947	1.951	1.739	1.728	1.533	1.453	1.442	1.291	1.136	1.065	0.963	0.912	0.829	0.838	0.968	1.223	1.307	1.062	0.661	0.672	0.652	0.577	0.579	0.604	0.606	0.747	0.679	0.561	0.653	0.526	0.425	0.790	2.236	6.113	12.16	61.91	172.3
605.0	19.09	22.60	22.78	17.28	12.90	11.81	14.93	14.72	19.13	22.11	33.87	39.90	23.80	18.29	17.39	74.07	577.5	432.2	7.690	4.805	4.179	4.129	3.988	3.741	3.911	3.525	3.468	3.360	3.440	3.362	3.306	2.961	2.825	2.673	2.313	2.585	2.166	2.017	1.948	1.730	1.570	1.508	1.479	1.437	1.328	1.441	1.216	1.156	1.060	0.913	0.875	0.824	0.745	0.711	0.738	0.984	1.157	1.011	0.776	0.572	0.618	0.507	0.541	0.578	0.538	0.651	0.673	0.591	0.539	0.444	0.427	0.472	0.734	1.618	2.909	14.65	81.92
610.0	18.42	23.53	21.92	15.00	12.18	11.38	13.17	15.08	17.17	20.12	27.96	38.39	28.23	18.04	13.27	23.95	222.7	646.1	153.1	4.538	3.764	3.637	3.284	3.003	3.239	2.927	2.768	2.718	2.668	2.665	2.711	2.562	2.318	2.038	1.957	1.841	1.914	1.704	1.549	1.461	1.356	1.264	1.223	1.243	1.109	1.137	0.970	0.962	0.844	0.797	0.755	0.703	0.596	0.585	0.550	0.627	0.809	0.943	0.813	0.617	0.555	0.462	0.500	0.508	0.487	0.504	0.577	0.578	0.500	0.437	0.428	0.377	0.405	0.622	0.842	3.490	19.29
615.0	17.68	24.79	17.11	14.22	11.66	11.50	11.65	13.29	15.08	19.09	23.30	30.56	31.83	19.44	12.59	11.71	58.34	355.3	534.3	16.06	3.345	3.036	2.800	2.491	2.532	2.540	2.169	2.208	2.162	2.118	2.154	2.110	1.961	1.801	1.500	1.584	1.396	1.305	1.222	1.074	1.143	1.062	0.991	0.920	0.745	0.990	0.823	0.819	0.672	0.617	0.591	0.613	0.522	0.490	0.477	0.473	0.569	0.651	0.746	0.621	0.461	0.427	0.433	0.384	0.416	0.484	0.496	0.484	0.564	0.425	0.371	0.306	0.344	0.350	0.435	0.917	4.444
620.0	19.73	22.97	14.52	13.75	11.40	10.89	10.75	12.66	14.04	18.06	22.08	27.78	33.58	20.64	12.90	9.544	17.96	140.9	660.7	64.20	3.113	2.763	2.294	2.227	2.175	2.091	1.999	1.758	1.791	1.902	1.922	1.602	1.562	1.699	1.222	1.378	1.353	1.143	1.135	1.003	0.927	0.912	0.887	0.841	0.574	0.856	0.671	0.721	0.609	0.592	0.492	0.512	0.496	0.394	0.391	0.410	0.379	0.531	0.598	0.693	0.501	0.415	0.350	0.397	0.361	0.469	0.422	0.397	0.462	0.479	0.384	0.316	0.275	0.277	0.281	0.398	1.140
625.0	19.29	20.90	16.90	13.02	10.69	9.157	9.677	11.29	13.11	17.60	20.49	24.87	30.76	24.44	13.06	8.487	8.658	44.87	442.6	392.0	4.794	2.280	2.111	2.175	1.863	1.633	1.806	1.646	1.611	1.665	1.646	1.497	1.383	1.381	1.148	1.158	1.180	1.070	0.980	0.841	0.787	0.847	0.908	0.703	0.645	0.651	0.668	0.605	0.494	0.494	0.404	0.417	0.421	0.342	0.383	0.367	0.380	0.478	0.544	0.556	0.547	0.449	0.356	0.322	0.302	0.423	0.388	0.406	0.353	0.429	0.390	0.256	0.313	0.258	0.253	0.234	0.367
630.0	15.59	20.00	18.89	11.90	10.34	8.857	9.865	11.28	14.20	16.43	20.05	21.81	25.42	26.19	14.80	7.965	6.045	13.54	158.0	535.6	134.2	2.361	2.005	1.873	1.592	1.542	1.460	1.477	1.373	1.355	1.503	1.312	1.233	1.139	1.018	0.958	0.911	0.866	0.737	0.716	0.671	0.672	0.747	0.586	0.562	0.588	0.535	0.519	0.449	0.442	0.340	0.385	0.371	0.336	0.305	0.366	0.301	0.371	0.392	0.486	0.524	0.459	0.368	0.304	0.330	0.334	0.350	0.320	0.327	0.364	0.352	0.293	0.301	0.253	0.209	0.212	0.247
635.0	15.19	20.90	20.02	11.85	11.83	8.641	9.907	12.12	13.30	16.24	19.20	20.30	21.78	25.10	18.69	8.100	5.994	5.963	39.35	261.9	461.7	12.38	2.020	1.645	1.548	1.507	1.256	1.162	1.188	1.179	1.207	1.046	0.976	1.004	0.841	0.793	0.651	0.683	0.705	0.611	0.583	0.549	0.576	0.440	0.592	0.488	0.420	0.445	0.356	0.405	0.317	0.302	0.326	0.293	0.312	0.312	0.277	0.291	0.279	0.299	0.408	0.378	0.338	0.273	0.329	0.307	0.301	0.301	0.315	0.282	0.291	0.302	0.313	0.210	0.202	0.164	0.207
640.0	19.00	22.70	19.91	11.62	9.916	8.590	8.886	10.58	13.26	16.15	19.52	20.10	20.40	21.99	22.05	9.280	5.906	4.606	11.68	93.33	542.4	55.61	1.740	1.359	1.310	1.334	1.058	1.102	1.136	1.163	0.974	0.938	0.842	0.786	0.768	0.861	0.629	0.611	0.573	0.661	0.587	0.474	0.527	0.398	0.467	0.431	0.412	0.406	0.346	0.366	0.323	0.290	0.301	0.327	0.249	0.265	0.256	0.260	0.259	0.264	0.360	0.393	0.354	0.342	0.287	0.285	0.276	0.279	0.260	0.272	0.271	0.292	0.317	0.206	0.166	0.150	0.161
645.0	17.68	21.88	22.40	12.34	9.600	8.646	9.116	10.97	12.95	15.60	17.99	19.34	20.28	19.69	22.72	11.44	5.883	4.381	5.282	27.13	349.0	325.9	3.797	1.298	1.185	1.109	0.880	0.863	1.077	0.982	0.774	0.908	0.663	0.652	0.749	0.753	0.668	0.613	0.539	0.551	0.478	0.418	0.530	0.414	0.424	0.423	0.349	0.377	0.331	0.342	0.298	0.302	0.277	0.249	0.251	0.214	0.217	0.189	0.280	0.214	0.304	0.301	0.311	0.305	0.276	0.246	0.251	0.227	0.244	0.207	0.231	0.223	0.313	0.244	0.208	0.163	0.127
650.0	19.14	28.14	23.52	14.51	9.771	8.992	8.899	10.32	12.52	16.28	18.37	19.01	19.69	17.47	19.87	13.83	6.097	4.364	3.479	8.146	141.0	490.8	35.69	1.334	1.205	1.031	1.028	0.931	0.853	0.881	0.791	0.802	0.734	0.711	0.720	0.707	0.623	0.539	0.495	0.496	0.442	0.373	0.454	0.496	0.432	0.380	0.329	0.362	0.247	0.308	0.252	0.257	0.235	0.210	0.234	0.213	0.194	0.228	0.273	0.210	0.298	0.277	0.292	0.317	0.270	0.230	0.260	0.291	0.257	0.187	0.244	0.196	0.250	0.273	0.221	0.115	0.160
