Sample:	'1
File name:	G2025062007’≈’‘«≈.FD3
Run date:	'12:48:20, 06/24/2025
Operator:	Administrator
Comment:	'

Instrument
Model:	F-2700 FL Spectrophotometer
Serial number:	23B8-004
ROM Version:	4J14000 07

Instrument parameters
Measurement type:	3-D scan
Data mode:	Fluorescence
EX  Start WL:	220.0 nm
EX  End WL:	600.0 nm
EX Sampling interval:	5.0 nm
EM  Start WL:	230.0 nm
EM  End WL:	650.0 nm
EM Sampling interval:	5.0 nm
Scan speed:	12000 nm/min
EX Slit:	5.0 nm
EM Slit:	5.0 nm
PMT Voltage:	700 V
Response:	Auto 
Corrected spectra:	Off
Contour interval:	50.000

Peak integration
Integration method:	Rectangular
Sensitivity:	1
Threshold:	1.000

Peaks
No.	ApexEX/EM(nm)	Height(Data)
1	225.0/630.0	92.55
2	230.0/340.0	3244
3	235.0/260.0	309.1
4	240.0/265.0	391.4
5	240.0/525.0	268.2
6	245.0/270.0	457.9
7	245.0/535.0	215.4
8	250.0/275.0	591.9
9	250.0/550.0	175.5
10	255.0/280.0	611.0
11	255.0/560.0	143.2
12	260.0/290.0	556.4
13	260.0/575.0	115.4
14	265.0/585.0	106.6
15	275.0/320.0	2589
16	275.0/615.0	165.8
17	280.0/315.0	2589
18	280.0/625.0	147.9
19	475.0/340.0	9.124
20	485.0/265.0	2.086
21	505.0/275.0	3.224
22	510.0/280.0	3.623
23	515.0/285.0	3.536
24	570.0/315.0	12.34
25	575.0/320.0	12.35

Data points
	220.0	225.0	230.0	235.0	240.0	245.0	250.0	255.0	260.0	265.0	270.0	275.0	280.0	285.0	290.0	295.0	300.0	305.0	310.0	315.0	320.0	325.0	330.0	335.0	340.0	345.0	350.0	355.0	360.0	365.0	370.0	375.0	380.0	385.0	390.0	395.0	400.0	405.0	410.0	415.0	420.0	425.0	430.0	435.0	440.0	445.0	450.0	455.0	460.0	465.0	470.0	475.0	480.0	485.0	490.0	495.0	500.0	505.0	510.0	515.0	520.0	525.0	530.0	535.0	540.0	545.0	550.0	555.0	560.0	565.0	570.0	575.0	580.0	585.0	590.0	595.0	600.0
230.0	85.89	1110	1761	382.7	15.46	7.603	5.741	4.887	4.643	4.423	4.054	3.369	3.350	2.732	2.293	1.950	1.898	1.480	1.245	1.156	1.062	1.053	0.980	0.909	0.845	0.760	0.734	0.681	0.704	0.673	0.607	0.609	0.577	0.495	0.465	0.445	0.460	0.428	0.442	0.458	0.447	0.548	0.514	0.405	0.381	0.416	1.606	5.170	6.563	3.876	1.200	0.376	0.281	0.325	0.284	0.317	0.311	0.285	0.308	0.297	0.287	0.299	0.318	0.279	0.309	0.288	0.313	0.326	0.299	0.262	0.310	0.341	0.290	0.293	0.293	0.310	0.302
235.0	105.4	339.0	1469	1958	427.7	23.04	6.832	6.259	4.643	4.261	3.947	3.377	3.233	3.107	2.327	2.114	1.860	1.490	1.198	1.089	1.177	1.032	0.953	0.894	0.920	0.679	0.763	0.698	0.543	0.643	0.557	0.563	0.581	0.461	0.453	0.464	0.549	0.459	0.436	0.470	0.442	0.431	0.486	0.564	0.514	0.423	0.644	1.576	3.244	5.358	6.863	6.339	2.569	0.520	0.304	0.312	0.326	0.309	0.384	0.290	0.267	0.284	0.281	0.312	0.291	0.280	0.285	0.289	0.404	0.281	0.287	0.332	0.289	0.296	0.284	0.255	0.262
240.0	163.0	150.2	511.1	2119	2004	328.8	12.79	7.119	5.546	4.762	3.995	4.383	3.200	2.841	2.548	2.006	1.799	1.394	1.221	1.105	1.286	0.977	0.939	0.954	0.769	0.758	0.732	0.677	0.542	0.656	0.623	0.553	0.579	0.431	0.498	0.396	0.525	0.428	0.449	0.461	0.463	0.364	0.401	0.538	0.623	0.711	0.590	0.624	1.007	1.906	4.609	10.10	10.82	6.368	2.006	0.399	0.324	0.297	0.318	0.294	0.352	0.308	0.284	0.287	0.330	0.318	0.284	0.315	0.332	0.282	0.258	0.302	0.285	0.263	0.256	0.271	0.272
245.0	144.2	192.1	162.5	867.8	2735	1956	219.9	8.267	6.203	5.283	4.707	4.489	3.408	3.061	2.935	2.152	1.583	1.405	1.367	1.100	1.108	1.192	0.921	0.834	0.773	0.738	0.730	0.661	0.637	0.619	0.650	0.656	0.659	0.547	0.499	0.424	0.572	0.484	0.448	0.422	0.400	0.360	0.372	0.464	0.480	0.972	0.901	0.720	0.560	0.678	1.368	4.143	9.376	13.83	11.94	5.224	1.271	0.357	0.295	0.344	0.289	0.286	0.298	0.272	0.329	0.275	0.323	0.262	0.315	0.296	0.279	0.291	0.323	0.262	0.346	0.310	0.332
250.0	68.07	171.4	219.4	264.1	1010	2549	2561	774.6	34.06	6.551	5.328	4.671	3.716	3.353	2.736	2.281	1.938	1.567	1.296	1.229	1.171	1.108	0.921	0.854	0.866	0.834	0.731	0.724	0.789	0.641	0.647	0.579	0.599	0.608	0.543	0.467	0.521	0.455	0.457	0.428	0.360	0.410	0.407	0.437	0.428	0.585	0.622	0.823	0.928	0.861	0.670	1.248	2.572	5.123	8.832	12.86	15.22	12.43	5.819	1.543	0.372	0.333	0.337	0.309	0.278	0.265	0.312	0.277	0.283	0.290	0.305	0.313	0.329	0.288	0.352	0.367	0.301
255.0	44.34	66.37	198.0	305.1	298.3	729.9	2730	4317	295.8	31.36	6.804	5.670	4.944	3.693	3.255	2.713	2.125	1.627	1.534	1.325	1.196	1.193	0.965	0.991	0.926	0.937	0.674	0.764	0.796	0.611	0.688	0.515	0.603	0.516	0.577	0.409	0.515	0.444	0.455	0.447	0.351	0.473	0.491	0.483	0.401	0.394	0.397	0.466	0.612	0.993	1.273	1.275	1.036	1.422	2.322	3.484	7.027	16.54	25.00	21.13	8.589	1.474	0.349	0.328	0.312	0.298	0.294	0.333	0.290	0.276	0.290	0.337	0.315	0.302	0.299	0.449	0.287
260.0	38.74	34.69	91.95	309.1	290.2	229.7	951.9	4350	4375	240.7	16.25	7.716	5.361	4.067	3.128	2.854	2.203	1.803	1.689	1.374	1.343	1.205	1.105	1.121	0.880	0.813	0.765	0.817	0.859	0.745	0.767	0.658	0.582	0.557	0.595	0.495	0.530	0.411	0.503	0.457	0.471	0.405	0.396	0.454	0.504	0.372	0.298	0.327	0.448	0.503	0.961	1.794	1.452	1.056	0.975	1.238	1.993	5.029	12.41	25.10	30.36	19.91	6.381	0.774	0.356	0.364	0.320	0.381	0.281	0.308	0.338	0.381	0.338	0.389	0.294	0.395	0.289
265.0	37.14	34.83	44.71	173.6	391.4	244.1	286.7	1706	5738	4253	179.9	10.37	7.528	4.731	3.544	3.176	2.508	1.988	1.880	1.374	1.379	1.257	1.140	1.021	0.974	0.903	0.913	0.725	0.753	0.770	0.745	0.594	0.636	0.684	0.572	0.516	0.563	0.435	0.490	0.449	0.524	0.479	0.464	0.420	0.475	0.393	0.347	0.384	0.333	0.403	0.475	1.087	1.800	2.086	1.374	0.919	0.972	1.587	3.363	8.291	19.75	35.04	30.34	17.07	3.510	0.433	0.304	0.363	0.345	0.370	0.336	0.324	0.308	0.438	0.365	0.375	0.370
270.0	52.57	51.27	41.92	83.75	265.3	457.9	318.7	469.0	2024	5347	4836	743.4	35.84	7.389	5.036	4.240	2.932	2.607	2.018	1.816	1.489	1.428	1.208	1.089	0.988	1.063	0.979	0.858	0.911	0.826	0.792	0.750	0.694	0.745	0.649	0.599	0.589	0.455	0.466	0.513	0.505	0.538	0.505	0.530	0.511	0.455	0.420	0.399	0.360	0.345	0.367	0.611	0.902	1.569	1.962	2.328	2.145	1.387	1.407	2.331	5.119	11.05	18.61	30.24	31.18	29.10	12.82	3.552	0.530	0.375	0.435	0.313	0.373	0.368	0.370	0.355	0.353
275.0	112.2	111.0	90.75	88.39	159.9	329.7	591.9	363.4	517.8	1414	4889	8632	1004	30.60	7.260	5.249	3.836	3.036	2.452	2.019	1.521	1.400	1.233	1.237	1.086	1.003	1.088	0.822	0.885	0.941	0.764	0.879	0.792	0.694	0.694	0.640	0.631	0.670	0.552	0.621	0.467	0.604	0.601	0.551	0.646	0.626	0.568	0.604	0.515	0.419	0.494	0.564	0.652	0.947	1.150	1.743	2.726	3.224	2.240	1.370	1.623	2.927	4.777	7.594	10.82	25.72	47.49	32.16	19.51	3.176	0.504	0.394	0.336	0.388	0.376	0.406	0.346
280.0	192.8	206.1	153.2	113.9	146.2	222.2	468.5	611.0	265.7	390.9	1515	7551	8083	144.9	15.32	6.760	4.861	3.456	2.610	2.127	1.786	1.627	1.506	1.257	1.338	1.075	1.004	0.904	0.870	0.796	0.795	0.789	0.808	0.751	0.739	0.784	0.772	0.770	0.623	0.605	0.585	0.647	0.758	0.622	0.758	0.856	0.692	0.787	0.676	0.564	0.539	0.648	0.668	0.852	0.986	1.228	1.749	2.610	3.623	2.943	1.547	1.247	1.713	2.189	3.017	6.855	18.09	36.20	56.14	30.32	14.43	1.596	0.390	0.371	0.388	0.374	0.392
285.0	275.7	282.7	241.6	146.3	149.6	189.0	278.6	598.6	348.7	212.2	448.0	2480	9215	6168	107.1	9.866	5.845	4.336	2.931	2.553	2.253	1.977	1.622	1.397	1.277	1.214	1.138	0.921	0.976	0.773	0.859	0.929	0.835	0.896	0.952	0.920	0.906	0.809	0.777	0.708	0.701	0.690	0.781	0.806	0.874	0.987	0.904	0.977	0.886	0.761	0.669	0.691	0.816	0.782	0.850	1.068	1.210	1.504	2.206	3.536	3.523	2.126	1.222	1.122	1.349	2.130	4.834	10.27	25.49	46.37	58.76	26.28	7.990	0.798	0.404	0.461	0.473
290.0	371.6	422.5	337.7	216.1	165.2	179.4	203.4	323.0	556.4	505.7	326.5	723.8	2850	6598	6409	439.7	26.58	6.795	4.270	3.076	2.349	2.267	1.870	1.573	1.295	1.253	1.240	1.006	1.032	0.940	0.754	0.782	0.856	0.902	1.011	0.985	1.010	0.900	0.868	0.906	0.805	0.853	0.873	0.921	1.086	1.156	1.252	1.170	1.237	1.088	0.848	0.915	0.793	0.842	0.902	1.016	1.068	1.139	1.324	1.806	2.523	3.321	3.548	2.669	1.709	1.586	2.108	3.241	6.705	12.89	24.55	34.37	34.25	39.02	17.49	7.261	1.051
295.0	475.1	541.7	459.7	296.5	210.7	211.4	227.7	272.7	382.0	761.4	762.2	507.9	895.4	1737	4595	6654	635.1	28.12	6.106	4.194	2.938	2.555	2.092	1.700	1.575	1.356	1.207	1.194	1.158	1.084	1.026	0.811	0.980	0.997	1.109	1.141	1.131	1.077	1.002	0.907	0.887	0.996	0.883	1.046	1.250	1.406	1.462	1.452	1.621	1.339	1.119	1.234	1.008	1.006	1.079	1.126	1.270	1.311	1.268	1.661	1.696	2.012	2.804	4.251	4.822	3.491	2.362	2.340	3.131	4.438	6.729	8.733	10.05	21.88	44.94	57.95	28.04
300.0	638.2	720.3	629.5	416.7	308.3	304.9	361.5	387.4	526.7	818.3	1301	979.2	765.8	803.6	1505	5990	5711	480.3	17.29	6.317	3.785	2.955	2.355	2.091	1.855	1.560	1.345	1.317	1.204	1.099	1.127	0.943	0.986	1.070	1.110	1.050	1.336	1.362	1.144	1.114	1.006	1.061	1.098	1.280	1.453	1.714	1.729	2.095	1.988	1.567	1.434	1.550	1.415	1.322	1.363	1.459	1.719	1.920	1.997	2.169	2.349	2.663	3.235	4.101	5.420	6.812	5.560	4.148	3.879	3.950	4.096	4.066	4.452	6.926	14.76	34.40	55.98
305.0	814.7	949.5	867.4	625.7	502.0	512.1	630.2	799.8	1027	1348	1845	1741	1379	1111	1101	2281	7255	4767	76.17	10.44	5.785	3.791	3.037	2.684	1.992	1.831	1.487	1.545	1.347	1.222	1.207	0.959	1.101	1.045	1.132	1.227	1.399	1.539	1.408	1.393	1.342	1.308	1.599	1.670	1.957	2.259	2.201	2.711	2.432	2.205	1.966	2.049	1.970	1.958	1.999	2.195	2.569	3.078	3.280	3.744	4.140	4.815	5.680	6.539	6.797	8.692	10.15	9.479	8.139	6.641	6.264	5.497	5.243	5.997	7.194	11.21	22.14
310.0	1016	1257	1174	869.9	707.5	728.4	904.4	1117	1367	1723	2100	2441	2357	1692	1333	1269	2729	5285	5066	1215	21.15	5.064	3.751	3.259	2.259	2.237	1.871	1.492	1.515	1.442	1.233	1.113	1.074	1.168	1.309	1.346	1.687	1.516	1.562	1.619	1.607	1.661	1.758	2.005	2.272	2.668	2.877	3.455	3.401	2.971	2.590	2.926	2.716	2.684	2.880	2.990	3.609	4.320	4.847	5.131	5.608	6.197	7.229	8.154	8.481	9.436	10.30	11.24	11.92	11.01	9.762	8.204	7.430	7.459	6.863	6.866	9.068
315.0	1217	1579	1515	1119	907.7	903.3	1101	1304	1523	1879	2224	2517	2589	2315	1644	1184	1408	1648	3354	6538	495.0	20.70	5.448	4.053	2.651	2.593	2.222	1.571	1.477	1.531	1.394	1.152	1.070	1.196	1.412	1.539	1.742	1.593	1.525	1.666	1.750	1.900	2.004	2.118	2.639	3.340	3.483	4.307	4.304	3.543	3.301	3.848	3.348	3.287	3.394	3.851	4.552	5.136	5.747	5.833	6.017	6.832	7.766	8.437	9.111	10.13	10.91	11.45	11.68	11.54	12.34	11.75	10.02	8.787	7.517	6.269	6.733
320.0	1399	1882	1769	1332	1028	1003	1182	1401	1584	1942	2302	2589	2566	2476	2012	1278	1180	848.1	990.8	4518	4253	391.1	10.80	4.996	3.135	2.754	2.222	1.811	1.916	1.739	1.513	1.364	1.265	1.346	1.337	1.546	1.724	1.535	1.699	1.680	1.689	1.950	1.927	2.318	2.783	3.647	4.239	4.891	4.987	4.107	3.735	4.434	3.922	3.746	3.889	3.835	4.733	5.600	5.888	6.194	6.427	7.316	7.761	9.120	9.207	10.59	11.13	11.75	12.05	11.77	11.77	12.35	12.10	11.16	8.817	7.013	6.393
325.0	1628	2148	2108	1592	1158	1025	1190	1388	1532	1872	2236	2508	2485	2290	2141	1427	1121	681.6	398.0	1330	4851	3751	59.17	7.461	4.621	3.388	2.362	2.151	1.884	1.811	1.603	1.295	1.217	1.461	1.383	1.521	1.656	1.592	1.765	1.771	1.718	2.151	2.144	2.484	3.129	4.082	4.787	5.810	6.149	4.877	4.549	4.965	4.254	3.886	4.047	4.255	4.807	5.382	5.635	6.425	6.438	6.866	7.640	8.535	9.146	10.05	10.88	11.23	12.02	11.31	10.87	10.89	11.97	11.66	10.35	7.739	6.431
330.0	1789	2517	2686	2195	1519	1160	1163	1313	1438	1741	2077	2350	2346	2142	1930	1581	1201	674.2	328.1	440.2	1431	3718	4081	1115	19.12	4.534	3.131	2.630	2.341	1.902	1.633	1.410	1.292	1.305	1.437	1.499	1.589	1.612	1.814	1.726	1.886	2.049	2.347	2.697	3.415	4.497	5.448	6.841	7.339	6.431	6.349	7.047	5.963	5.001	4.759	4.417	4.673	5.239	5.413	6.179	6.055	6.548	7.243	7.932	8.539	9.084	9.861	10.64	11.28	10.70	10.55	10.20	10.42	10.17	9.446	9.316	8.073
335.0	1862	2755	3154	2728	1976	1368	1170	1264	1351	1603	1920	2180	2208	2061	1798	1460	1365	793.8	392.5	305.3	452.3	945.5	2604	5485	423.9	19.56	4.154	3.178	2.535	2.230	1.694	1.636	1.546	1.362	1.446	1.644	1.513	1.598	1.722	1.773	1.916	2.059	2.511	2.861	3.644	4.831	5.736	7.548	8.187	7.693	8.128	8.678	7.618	6.401	5.631	4.604	4.873	5.083	5.387	5.668	5.655	6.252	6.651	7.618	8.065	8.415	8.968	9.352	10.73	10.09	9.854	9.818	9.793	9.466	8.773	7.857	8.069
340.0	1894	2751	3244	2840	2103	1411	1134	1201	1256	1479	1763	1995	2046	1934	1681	1349	1240	938.2	467.2	299.5	256.8	318.9	729.5	3713	3552	349.4	9.903	4.026	3.236	2.596	1.953	1.587	1.518	1.420	1.411	1.605	1.447	1.442	1.611	1.668	1.834	1.973	2.309	2.611	3.488	4.640	5.777	7.771	8.490	8.205	8.402	9.124	8.029	6.913	5.803	4.674	4.816	5.064	5.094	5.222	5.474	5.869	6.243	6.552	7.201	7.881	8.501	9.032	9.264	9.369	9.803	9.356	9.534	9.031	8.512	7.709	7.086
345.0	1799	2578	3190	2869	2107	1384	1106	1110	1164	1352	1591	1807	1857	1776	1555	1248	1075	922.3	594.8	331.6	233.7	198.8	251.6	1067	4045	3224	52.22	5.734	3.599	2.800	2.053	1.808	1.622	1.591	1.632	1.557	1.385	1.564	1.519	1.629	1.775	1.872	2.268	2.804	3.416	4.820	5.389	7.342	7.906	8.018	8.229	8.858	8.043	7.283	5.639	4.724	4.668	4.667	5.080	5.019	5.145	5.330	5.692	6.163	6.666	7.083	7.809	8.195	8.401	8.716	9.201	8.651	8.435	8.366	7.751	7.138	6.515
350.0	1653	2402	2970	2763	2116	1381	1059	1035	1085	1224	1434	1588	1645	1590	1416	1162	981.3	791.1	661.2	474.4	281.4	209.0	178.6	314.7	1165	3061	3402	951.7	16.72	3.519	2.548	2.041	1.682	1.473	1.448	1.404	1.400	1.482	1.484	1.465	1.601	1.803	2.106	2.549	3.412	4.248	5.046	6.747	7.363	7.573	7.740	8.636	7.890	7.132	5.685	4.462	4.591	4.424	4.735	4.609	4.660	5.050	5.260	5.668	5.849	6.400	6.763	7.217	7.443	7.510	8.008	7.954	7.496	7.550	6.955	6.770	6.321
355.0	1462	2119	2627	2587	2018	1370	1047	1004	1031	1142	1286	1408	1460	1421	1287	1082	923.2	740.8	594.8	574.4	410.1	256.0	195.9	176.6	324.7	743.4	2142	4423	388.4	17.28	3.706	2.445	2.035	1.573	1.647	1.557	1.485	1.514	1.371	1.425	1.490	1.711	1.986	2.263	2.896	3.917	4.353	5.983	6.772	6.956	7.293	8.058	7.550	6.816	5.554	4.587	4.243	4.232	4.229	4.313	4.628	4.771	5.179	5.518	5.472	5.907	6.259	6.044	6.754	6.775	7.025	7.145	6.476	7.089	6.771	6.364	5.798
360.0	1343	1919	2368	2336	1892	1303	1020	984.6	983.9	1092	1202	1284	1339	1303	1188	1019	878.6	720.1	570.7	535.6	515.6	327.6	225.4	167.0	157.2	221.2	574.5	3054	3252	326.3	8.482	3.262	2.423	1.896	1.491	1.462	1.557	1.508	1.304	1.427	1.588	1.518	1.899	1.984	2.623	3.563	4.078	5.302	6.143	6.331	6.359	7.571	7.079	6.459	5.148	4.565	4.245	4.176	4.152	4.480	4.440	4.344	4.957	5.018	5.345	5.262	5.527	5.794	6.166	6.377	6.508	6.187	6.207	6.689	6.391	5.833	5.744
365.0	1254	1782	2139	2150	1792	1271	996.4	951.4	956.2	1039	1139	1191	1233	1205	1106	961.7	846.7	707.3	578.2	510.3	515.5	433.1	270.3	190.1	139.0	122.9	178.0	882.9	3588	2967	48.47	5.520	2.898	2.233	1.712	1.483	1.522	1.584	1.374	1.523	1.409	1.500	1.731	2.093	2.410	3.478	3.804	4.888	5.318	5.654	5.604	6.740	6.720	5.895	5.108	4.298	4.131	4.230	4.049	4.470	4.164	4.289	4.457	4.767	5.037	5.151	5.270	5.356	5.620	5.794	5.996	5.826	5.753	6.137	5.835	5.617	5.711
370.0	1097	1563	1906	1934	1660	1227	994.9	939.5	947.2	997.0	1068	1121	1138	1108	1029	914.5	820.7	711.1	601.8	523.1	477.7	476.2	389.6	247.4	173.1	131.2	114.9	251.5	1042	2863	3143	846.1	15.27	3.129	2.216	1.749	1.673	1.464	1.369	1.314	1.436	1.490	1.540	1.934	2.222	2.991	3.411	4.384	4.687	4.872	5.157	6.104	6.229	5.743	4.857	4.383	4.211	3.971	3.998	3.927	4.021	4.284	4.289	4.464	4.716	4.844	5.052	4.957	5.227	5.357	5.476	5.382	5.199	5.524	5.500	5.622	5.491
375.0	1025	1377	1682	1707	1535	1214	977.3	944.0	948.8	971.3	1030	1056	1073	1037	961.4	867.5	793.7	710.0	618.6	548.3	486.6	443.8	449.3	363.4	224.7	169.3	133.7	139.0	290.2	704.9	2080	3918	335.0	15.38	3.336	2.167	1.845	1.430	1.473	1.459	1.389	1.672	1.653	1.757	2.168	2.539	2.947	4.096	4.281	4.320	4.835	5.542	5.598	5.301	5.018	4.405	4.022	4.003	3.879	3.881	4.121	4.169	4.316	4.326	4.311	4.440	4.865	4.669	4.977	5.208	5.470	5.119	5.263	5.127	5.130	4.897	5.357
380.0	945.0	1269	1495	1577	1425	1182	969.6	939.2	939.8	957.3	995.1	1020	1027	993.2	912.6	836.5	766.9	695.5	624.2	562.6	502.9	444.0	429.0	430.0	294.3	205.6	162.1	135.9	140.2	213.7	582.1	2830	2789	265.6	7.182	2.790	2.169	1.628	1.450	1.459	1.353	1.472	1.687	1.741	2.092	2.530	2.974	3.538	3.919	4.026	4.385	5.383	5.239	5.182	4.803	3.975	4.113	3.900	3.795	3.961	4.182	4.265	4.009	4.349	4.406	4.242	4.741	4.555	4.823	4.915	4.941	4.742	4.604	5.102	4.845	4.669	5.215
385.0	896.8	1207	1389	1474	1359	1148	963.1	918.8	921.1	933.5	973.8	987.4	983.5	947.8	878.5	809.1	750.8	686.1	624.9	566.7	509.1	455.3	415.5	422.8	377.4	250.5	191.6	154.7	123.1	117.4	190.4	845.4	3038	2406	39.31	4.250	2.591	1.861	1.706	1.608	1.311	1.411	1.690	1.863	2.157	2.531	2.667	3.420	3.623	3.795	4.136	4.818	4.829	4.878	4.472	3.916	4.080	3.911	3.965	4.189	3.862	4.113	4.076	4.226	4.175	4.407	4.305	4.693	4.704	4.773	4.782	4.791	4.583	4.680	4.709	4.950	4.614
390.0	851.8	1094	1298	1366	1289	1098	966.1	917.3	906.9	906.2	935.1	938.5	937.5	896.2	833.7	770.6	720.7	673.3	619.8	569.1	522.8	476.4	432.3	400.4	392.9	337.9	239.4	185.4	143.9	115.6	115.4	241.3	887.6	2265	2337	605.6	11.89	2.625	2.033	1.702	1.439	1.410	1.604	1.838	1.952	2.393	2.698	3.190	3.377	3.362	3.609	4.696	4.555	4.439	4.369	3.878	3.907	4.016	3.860	3.748	3.976	4.058	4.289	4.250	4.050	4.277	4.148	4.284	4.361	4.421	4.575	4.674	4.393	4.468	4.565	4.505	4.553
395.0	797.2	1036	1214	1263	1205	1061	957.2	905.3	896.2	893.2	900.6	906.7	896.4	851.9	793.0	740.5	694.9	656.4	612.7	568.2	528.8	490.7	453.2	411.2	377.9	372.4	327.1	230.3	175.6	142.0	120.6	122.6	238.2	552.3	1618	2874	272.8	11.02	2.617	2.025	1.714	1.577	1.533	1.792	1.928	2.122	2.658	3.096	3.416	3.296	3.468	4.336	4.363	4.209	4.058	3.907	3.982	3.858	3.975	3.470	3.777	3.903	4.013	4.191	3.923	3.937	4.084	3.997	4.295	4.151	4.326	4.163	4.216	4.510	4.328	4.278	4.457
400.0	751.2	992.0	1170	1204	1168	1056	939.0	892.0	875.1	894.5	892.3	881.2	869.0	832.5	773.8	714.7	676.1	638.8	603.4	571.7	528.7	496.2	466.2	426.9	385.6	366.4	374.2	290.4	210.4	169.1	140.9	112.9	107.1	157.1	449.4	2163	2223	210.7	5.437	2.315	2.028	1.633	1.742	1.627	1.888	2.012	2.430	3.120	3.255	3.059	3.298	3.921	4.122	3.952	3.858	3.678	3.993	3.793	3.903	3.654	3.651	4.136	3.949	3.753	3.789	3.883	3.989	3.826	3.832	4.369	4.063	3.902	4.365	4.104	4.076	4.032	4.201
405.0	703.1	939.4	1095	1179	1104	1032	929.4	900.8	873.1	879.3	891.1	862.5	856.4	809.2	749.1	701.8	653.1	618.4	595.2	561.2	531.8	500.6	472.3	441.8	399.6	366.8	371.5	351.3	251.8	195.1	161.9	126.8	89.40	78.39	130.8	642.1	2330	1877	34.07	3.584	2.134	1.799	1.829	1.689	1.898	1.953	2.200	2.713	3.066	2.776	3.052	3.780	3.895	3.885	4.006	3.715	3.870	3.705	3.980	3.850	3.879	3.995	3.866	3.811	3.831	4.030	4.029	3.708	3.892	4.000	3.982	3.779	4.104	4.070	3.996	4.154	4.198
410.0	679.6	909.3	1039	1087	1073	981.2	927.4	878.6	865.1	858.7	859.1	842.7	823.5	772.7	719.4	671.7	628.0	600.0	573.2	546.1	521.3	494.6	470.1	447.4	410.9	375.8	357.6	357.2	316.5	237.9	184.8	143.8	100.3	73.01	68.25	170.9	686.3	1749	1761	149.0	10.00	2.280	1.857	1.818	1.888	2.006	2.270	2.605	2.801	2.781	2.893	3.585	3.773	3.792	3.883	3.661	3.647	3.756	4.020	3.889	3.760	3.943	3.615	3.786	3.753	3.744	3.910	3.771	3.817	3.775	3.654	3.982	3.966	3.920	3.963	3.848	3.855
415.0	656.9	839.7	984.5	1009	1008	945.2	911.2	863.9	842.8	828.3	833.3	806.7	781.4	736.4	680.0	629.2	593.1	564.5	545.2	517.5	500.7	482.0	461.3	441.1	411.7	380.2	353.0	334.7	326.8	287.5	206.9	155.5	114.2	82.04	62.19	70.37	174.6	423.4	1229	2037	238.0	9.109	2.311	2.048	2.091	1.991	2.160	2.580	2.609	2.554	2.760	3.475	3.431	3.647	3.421	3.583	3.629	3.848	3.876	3.761	3.796	3.778	3.607	3.652	3.784	3.530	3.677	3.539	3.725	3.692	3.455	4.152	3.471	3.850	3.976	3.689	3.660
420.0	632.7	785.9	914.9	967.3	957.5	929.0	889.5	843.1	827.2	813.3	814.2	781.7	750.7	699.0	648.9	596.1	560.1	539.3	519.7	500.4	478.5	465.9	449.5	433.8	409.3	378.7	354.1	328.4	310.3	309.0	237.7	166.9	124.4	89.38	66.00	52.91	64.68	111.2	335.7	1582	1810	184.8	4.405	2.304	2.186	2.201	2.082	2.525	2.671	2.453	2.681	3.547	3.486	3.332	3.376	3.592	3.347	3.386	3.728	3.586	3.648	3.757	3.794	3.747	3.815	3.467	3.455	3.481	3.344	3.550	3.472	3.589	3.603	3.461	3.589	3.481	3.644
425.0	617.0	761.6	861.9	919.8	928.6	898.1	863.3	835.3	804.2	798.5	795.2	760.1	722.1	670.1	622.7	573.7	535.7	520.0	495.3	482.4	464.0	449.4	437.6	420.4	403.4	377.6	353.1	325.7	301.0	295.8	269.0	187.5	130.8	98.81	71.80	53.57	43.27	44.48	88.40	474.1	1765	1448	31.01	3.334	2.466	2.369	2.041	2.283	2.524	2.414	2.701	3.287	3.385	3.398	3.389	3.536	3.549	3.832	3.616	3.509	3.616	3.678	3.713	3.650	3.639	3.178	3.430	3.461	3.150	3.347	3.628	3.374	3.255	3.449	3.468	3.511	3.418
430.0	644.9	713.5	845.6	882.0	886.8	857.3	845.1	813.8	790.8	786.5	765.5	739.1	690.7	643.8	588.4	542.3	510.0	489.3	471.5	456.0	440.8	429.5	420.8	408.7	392.9	373.2	351.4	325.8	299.7	277.7	267.2	224.4	154.4	110.0	82.07	61.89	45.26	35.05	37.37	118.3	510.9	1313	1387	138.9	9.821	2.637	2.217	2.330	2.506	2.374	2.454	3.149	3.236	3.308	3.393	3.310	3.394	3.565	3.404	3.495	3.557	3.660	3.615	3.603	3.400	3.252	3.331	3.315	3.132	3.267	3.348	3.356	3.183	3.280	3.167	3.162	3.271
435.0	855.8	691.5	823.9	849.7	832.6	832.9	806.1	815.5	784.9	762.5	739.9	710.4	662.7	610.4	560.6	514.4	479.7	459.8	444.3	431.2	417.9	410.4	402.3	391.9	377.7	362.5	346.0	325.7	302.9	275.1	246.2	230.4	189.7	130.2	92.45	72.05	52.78	39.29	30.01	42.62	125.5	314.3	953.3	1710	226.7	10.09	2.659	2.737	2.481	2.265	2.454	2.978	3.110	3.207	3.254	3.158	3.401	3.574	3.299	3.332	3.447	3.496	3.446	3.394	3.480	3.328	3.277	3.194	3.149	3.287	3.259	3.051	3.108	3.132	3.156	3.091	3.234
440.0	1115	724.3	776.9	816.0	792.9	821.0	801.0	798.7	776.4	750.4	731.8	692.5	646.3	594.1	540.7	495.5	460.4	441.2	424.2	409.7	396.5	389.4	384.3	376.4	366.5	351.3	333.0	321.2	300.1	272.3	243.3	217.7	201.5	151.0	102.4	78.23	59.09	43.57	33.00	29.02	41.72	80.93	260.8	1315	1609	178.4	4.785	2.825	2.660	2.257	2.366	2.867	3.267	3.114	3.045	3.151	3.507	3.522	3.438	3.254	3.487	3.342	3.395	3.408	3.603	3.315	3.361	3.020	3.021	2.946	3.067	2.832	3.175	2.829	3.128	3.007	2.974
445.0	1288	926.3	731.7	776.4	784.5	788.7	784.1	770.5	759.6	731.7	712.1	671.5	613.9	571.2	514.2	474.7	442.8	418.4	404.0	390.1	376.6	371.2	366.5	360.3	351.7	339.3	320.9	312.7	291.7	268.9	239.2	206.7	190.5	165.2	115.1	82.98	64.81	47.86	36.39	28.44	25.65	30.32	67.91	393.5	1550	1324	27.47	3.683	2.683	2.316	2.528	2.838	2.845	2.924	2.956	3.069	3.434	3.321	3.288	3.168	3.429	3.342	3.287	3.354	3.285	2.973	3.071	3.097	2.781	2.882	2.900	2.874	2.955	2.903	2.779	2.991	2.818
450.0	1009	1373	771.8	719.0	729.8	741.3	755.9	736.5	723.9	700.4	674.5	628.9	583.3	533.1	476.1	436.1	409.1	386.8	372.6	362.3	346.2	344.6	338.9	335.1	328.4	316.4	303.5	292.1	277.7	259.2	231.8	197.9	172.8	158.3	134.6	94.45	69.14	52.47	41.00	31.68	25.16	21.59	26.50	96.82	444.1	1156	1260	349.1	8.946	2.537	2.452	2.738	2.920	2.837	2.921	2.941	3.184	3.174	3.366	3.228	3.160	3.138	3.270	3.135	3.011	3.023	2.955	2.802	2.700	2.748	2.685	2.671	2.791	2.587	2.618	2.818	2.760
455.0	617.3	1611	1189	675.5	673.9	704.0	717.0	683.7	682.9	657.9	622.9	589.5	536.4	489.2	441.4	401.7	374.6	355.9	339.3	330.1	316.2	310.4	307.0	306.1	298.0	290.0	281.2	271.1	259.0	242.5	220.7	191.9	162.8	141.9	132.5	111.3	77.95	56.42	44.57	35.71	27.70	22.47	18.85	31.81	107.0	274.2	754.8	1474	189.4	9.073	2.748	2.843	2.855	2.801	2.612	2.803	3.076	2.895	3.060	3.031	3.258	3.123	3.001	3.141	3.004	2.639	2.556	2.708	2.777	2.640	2.687	2.687	2.585	2.501	2.590	2.631	2.474
460.0	439.1	1290	1727	710.3	629.1	658.5	666.5	666.6	644.3	616.6	596.8	561.1	510.2	453.2	413.6	372.3	346.2	326.5	313.9	303.7	291.4	285.1	283.9	280.5	279.3	268.7	264.3	256.1	244.7	231.7	208.2	185.1	158.9	134.6	121.7	114.7	87.20	59.85	47.85	38.39	30.21	24.28	18.95	19.13	32.98	68.53	196.5	991.8	1272	146.4	5.254	2.965	2.619	2.760	2.680	2.685	2.773	2.850	2.902	2.963	2.972	2.857	2.818	2.962	2.858	2.713	2.768	2.540	2.472	2.473	2.613	2.486	2.447	2.377	2.410	2.357	2.330
465.0	402.1	816.3	1957	922.4	593.7	610.2	630.6	621.0	607.5	578.3	551.7	523.7	476.6	427.0	381.2	344.1	319.3	298.4	290.5	279.4	267.7	264.0	264.3	258.4	256.3	251.0	247.8	238.9	230.3	218.0	200.3	177.5	153.1	130.0	110.4	106.2	94.90	66.94	49.38	40.35	31.60	25.52	20.57	17.32	17.48	23.30	50.54	279.2	1135	1041	23.17	3.728	2.708	2.729	2.709	2.702	2.781	2.745	2.797	2.860	2.810	2.791	2.841	2.638	2.693	2.695	2.537	2.602	2.340	2.455	2.349	2.333	2.256	2.107	2.228	2.310	2.145
470.0	382.0	516.5	1389	1689	647.0	565.6	571.8	563.7	550.3	530.7	512.5	478.8	429.2	387.7	344.2	309.2	284.9	270.4	259.8	250.3	238.7	233.7	234.5	230.7	228.4	224.7	220.8	215.9	208.9	198.9	181.6	164.7	141.8	121.9	103.9	92.88	88.31	75.46	54.73	41.07	32.70	26.93	21.83	17.47	14.90	14.12	18.31	68.42	312.7	792.3	891.7	316.9	9.826	2.752	2.695	2.552	2.606	2.561	2.687	2.605	2.474	2.605	2.634	2.620	2.445	2.475	2.513	2.322	2.252	2.265	2.190	2.185	2.166	1.965	2.064	2.002	1.975
475.0	388.2	429.2	707.3	1856	1168	506.8	505.1	511.1	497.1	475.3	459.3	429.9	388.1	347.2	308.5	275.4	250.5	240.0	228.3	221.1	210.9	206.0	204.0	205.4	200.2	198.6	194.6	190.2	186.1	178.8	164.1	147.1	128.5	112.3	97.79	83.66	75.93	72.78	63.95	44.74	34.07	27.60	23.02	18.69	15.75	12.57	12.12	21.81	75.26	183.8	432.7	987.1	197.0	12.13	2.768	2.419	2.484	2.517	2.371	2.269	2.265	2.327	2.403	2.401	2.327	2.273	2.118	2.093	2.000	1.981	1.936	1.974	1.868	1.948	1.887	1.739	1.817
480.0	364.3	367.7	476.2	1358	1789	562.8	475.5	464.9	453.0	441.8	432.2	396.8	361.3	319.5	283.2	253.6	233.7	219.0	207.4	203.4	193.4	189.6	185.7	186.8	182.9	177.5	175.4	173.8	169.7	164.9	153.0	139.3	121.7	104.6	91.63	77.83	68.40	64.71	64.00	50.01	35.88	28.79	24.02	19.13	16.83	13.83	11.36	12.05	22.17	45.90	107.7	540.4	934.9	178.4	6.499	2.431	2.498	2.501	2.384	2.168	2.161	2.051	2.231	2.216	2.083	2.208	2.115	1.934	1.886	1.745	1.837	1.826	1.737	1.901	1.754	1.527	1.649
485.0	333.5	378.1	388.8	776.4	2029	874.5	443.7	432.2	424.2	406.0	406.2	374.5	335.2	298.4	267.1	235.6	213.9	206.4	194.2	184.9	178.7	174.2	172.0	170.5	167.9	164.0	163.3	161.5	159.4	152.7	144.2	130.2	115.3	100.5	87.49	75.84	66.20	57.69	57.96	54.59	38.92	29.55	24.45	19.91	16.94	14.39	12.00	9.878	10.95	15.24	28.50	142.6	692.7	875.8	28.68	3.686	2.542	2.565	2.219	2.205	2.128	2.139	2.160	2.105	2.115	2.032	2.173	1.801	1.778	1.756	1.645	1.770	1.624	1.775	1.587	1.591	1.539
490.0	272.5	381.3	366.1	460.7	1378	1667	528.1	403.9	391.5	378.3	369.6	346.5	308.4	273.8	242.4	214.0	196.5	185.8	174.0	167.9	161.0	155.1	154.0	153.3	150.8	148.9	146.0	145.6	144.0	139.5	132.1	119.7	107.7	94.21	82.35	71.95	62.05	54.19	49.74	50.24	44.35	32.65	24.87	20.24	17.36	14.66	12.64	10.50	9.171	8.799	10.85	35.76	180.2	526.7	748.7	331.0	12.35	2.760	2.287	2.003	2.015	1.937	2.016	1.895	1.845	2.070	1.846	1.816	1.777	1.696	1.595	1.677	1.466	1.576	1.492	1.541	1.420
495.0	220.4	330.7	363.6	352.7	636.5	1845	1083	372.7	348.4	344.0	329.3	312.4	284.0	243.9	217.9	193.3	176.9	164.7	154.6	148.4	141.9	135.6	135.3	136.9	133.8	131.9	129.7	129.4	128.9	124.4	117.4	107.7	95.89	86.22	75.58	66.02	58.78	51.71	45.43	41.99	42.47	38.70	27.25	20.94	17.81	15.08	12.86	10.98	9.499	7.771	7.264	12.38	43.95	121.6	332.2	892.0	231.7	16.17	2.413	2.041	2.114	1.907	1.792	1.672	1.701	1.803	1.651	1.737	1.570	1.507	1.556	1.548	1.440	1.442	1.382	1.404	1.261
500.0	202.1	289.0	358.6	308.7	389.7	1289	1745	404.1	327.3	314.9	302.1	287.9	260.0	222.1	195.0	176.2	160.2	150.7	140.7	135.8	129.4	124.9	121.8	123.8	121.1	119.8	117.5	116.7	116.0	112.4	108.0	99.21	88.27	79.78	70.63	62.44	54.14	49.29	43.06	37.47	37.03	38.34	30.41	22.27	17.66	15.04	12.97	11.23	9.721	7.787	6.485	7.096	13.52	30.52	80.87	425.5	896.3	209.6	10.21	1.997	1.975	1.897	1.802	1.640	1.647	1.630	1.547	1.559	1.481	1.431	1.388	1.442	1.307	1.427	1.343	1.332	1.306
505.0	180.8	237.9	343.9	292.4	296.0	687.5	2017	789.6	297.7	290.6	278.2	266.9	236.6	203.3	180.8	161.3	147.2	135.3	127.2	122.3	117.8	112.1	112.1	111.0	110.2	109.1	106.0	105.6	105.6	103.0	100.4	91.12	79.75	73.22	65.64	57.71	50.50	45.64	40.33	34.82	32.24	34.40	32.48	24.22	17.79	14.84	12.73	11.04	9.718	8.136	6.671	5.990	6.653	9.900	21.13	106.1	529.0	838.8	168.2	4.826	2.117	1.820	1.675	1.596	1.589	1.556	1.509	1.669	1.385	1.350	1.315	1.380	1.300	1.230	1.132	1.170	1.162
510.0	163.2	193.0	284.4	298.5	260.6	349.5	1322	1774	382.8	253.6	248.0	234.0	205.7	179.7	158.5	141.3	128.7	119.9	113.2	106.6	102.7	97.70	96.54	97.29	95.05	94.83	93.03	93.35	92.89	91.27	86.81	79.32	71.25	65.30	58.93	51.95	45.62	41.51	37.15	32.11	29.25	28.08	28.58	26.51	19.41	14.92	12.73	10.91	9.310	7.952	6.967	6.120	5.228	5.435	7.647	26.22	131.0	419.1	635.0	292.0	13.50	1.815	1.636	1.473	1.432	1.599	1.389	1.366	1.314	1.132	1.158	1.106	1.196	1.232	1.174	1.012	1.113
515.0	135.8	162.3	225.3	284.8	252.5	239.5	531.8	2035	962.7	229.5	217.5	204.0	180.4	154.5	138.1	121.1	112.7	104.5	98.28	90.96	88.04	83.22	82.15	83.06	81.24	81.35	80.58	78.89	80.56	77.29	74.53	68.99	62.25	57.61	51.98	46.13	40.91	36.18	32.56	29.14	26.47	24.19	22.57	24.31	22.63	15.87	12.31	10.54	9.357	7.834	6.896	6.355	5.023	4.554	4.718	8.726	31.62	95.95	217.7	630.8	239.0	17.90	1.773	1.463	1.412	1.457	1.258	1.265	1.212	1.173	1.159	0.873	1.117	1.036	1.065	0.992	0.915
520.0	127.2	155.7	184.2	249.0	257.9	208.6	277.8	1338	1743	276.6	193.1	183.3	163.2	137.8	124.6	110.9	97.76	91.46	87.99	80.77	77.49	75.77	73.91	73.07	72.27	71.34	70.58	69.98	70.34	69.06	66.80	60.85	55.75	51.92	47.04	41.04	36.83	33.51	30.23	27.47	24.37	21.73	19.75	20.13	22.09	17.81	12.41	10.48	8.985	7.530	6.483	6.378	5.380	4.371	4.190	4.552	9.599	23.79	51.56	260.8	641.1	215.2	11.13	1.620	1.365	1.286	1.106	1.079	1.144	1.121	0.984	0.879	1.037	0.908	0.987	0.943	0.943
525.0	124.0	140.5	157.6	196.1	268.2	200.5	203.9	635.1	2136	645.6	176.1	165.4	148.6	128.3	111.7	100.6	88.40	83.02	77.90	72.58	68.39	67.89	66.57	66.44	64.40	63.87	61.83	63.37	63.07	62.90	59.11	55.87	50.97	45.74	42.87	37.20	34.25	30.74	28.09	24.81	22.34	19.61	18.23	17.08	19.70	18.71	13.58	10.08	8.427	7.437	6.268	5.735	5.130	4.730	3.876	3.807	4.428	7.560	13.70	62.92	320.6	609.5	171.9	5.166	1.433	1.303	1.122	1.029	1.060	0.898	1.010	0.752	1.004	0.836	0.942	0.870	0.942
530.0	105.2	118.9	131.5	157.6	232.8	207.2	168.3	276.2	1347	1680	226.4	144.5	128.8	111.1	97.74	85.37	78.77	72.64	67.31	63.81	59.52	57.96	57.12	56.40	56.17	56.14	53.84	54.58	54.14	53.57	51.22	48.40	43.86	39.66	36.39	32.32	30.06	27.22	24.79	22.00	19.97	17.31	16.23	15.07	15.13	16.54	15.19	11.13	8.308	6.819	5.815	5.458	4.894	4.807	3.944	3.493	3.311	3.896	5.030	15.85	76.74	264.1	444.9	228.6	14.08	1.343	1.171	1.047	1.007	0.987	0.869	0.859	0.896	0.855	0.848	0.761	0.787
535.0	89.29	97.06	109.9	130.9	174.8	215.4	157.9	168.6	470.2	1938	914.7	130.7	111.4	97.07	83.20	73.68	67.33	61.58	57.54	53.95	51.47	48.79	48.60	48.16	47.42	46.81	45.83	45.58	45.94	46.06	42.96	40.42	37.55	34.17	30.62	27.76	25.62	23.71	21.47	18.88	17.56	15.55	14.51	13.14	12.34	12.31	14.13	12.70	8.527	6.537	5.693	5.271	4.594	4.293	4.136	3.635	2.980	3.047	3.018	5.342	18.72	60.50	134.9	413.0	239.9	18.76	1.325	1.011	0.898	0.922	0.754	0.724	0.866	0.726	0.759	0.748	0.733
540.0	90.93	87.94	104.5	113.3	133.0	209.0	155.0	132.5	203.9	1212	1784	176.6	98.04	85.28	75.01	65.52	59.17	55.40	51.79	48.03	45.20	43.61	41.98	42.54	41.67	40.66	40.24	39.75	39.68	38.97	37.59	36.13	33.22	30.03	27.48	24.61	22.48	21.01	19.71	17.64	16.19	14.39	12.83	12.02	11.18	10.34	11.12	12.51	9.562	6.618	5.382	4.832	4.246	4.031	3.821	3.944	3.314	2.790	2.348	2.924	5.694	14.83	31.76	155.2	440.8	204.8	11.23	1.035	0.938	0.793	0.680	0.676	0.726	0.823	0.714	0.764	0.715
545.0	75.36	87.04	94.78	100.2	109.0	179.4	165.1	115.3	131.6	519.1	2169	487.3	89.16	74.77	66.05	57.57	52.37	49.69	45.25	43.50	39.63	38.77	36.93	36.59	36.45	35.87	35.23	35.68	35.08	33.99	33.67	31.99	29.21	26.91	24.48	21.77	20.77	18.80	17.11	15.39	13.59	12.77	11.74	10.59	9.935	9.095	8.922	10.62	9.877	6.752	4.917	4.192	3.881	3.520	3.353	3.429	3.355	2.581	2.310	2.370	2.844	4.698	8.307	36.99	200.1	429.1	146.3	4.110	0.992	0.796	0.767	0.731	0.693	0.747	0.664	0.637	0.634
550.0	82.31	85.96	86.27	84.19	90.63	123.0	175.5	115.2	99.81	194.8	1252	1489	130.3	63.78	55.90	49.14	43.47	40.96	36.58	35.23	33.48	31.97	30.75	30.77	30.38	29.39	29.43	29.25	28.75	28.93	28.02	26.33	24.13	22.15	20.03	18.47	17.54	15.83	14.57	13.07	11.82	11.01	10.21	9.038	8.797	7.813	7.414	7.575	8.423	7.556	5.316	4.038	3.469	3.235	2.995	2.949	3.105	2.757	2.159	1.920	2.086	2.401	3.030	9.363	47.59	174.5	301.7	138.1	13.26	0.910	0.806	0.709	0.643	0.670	0.627	0.585	0.603
555.0	71.78	73.87	76.23	75.17	76.60	88.20	144.4	125.0	84.09	102.3	385.6	1796	630.6	56.16	46.12	39.80	35.90	32.63	30.05	28.38	28.05	25.93	25.19	24.84	24.06	23.50	23.76	23.90	23.47	23.22	22.78	21.09	19.07	18.20	16.25	15.13	13.99	12.94	11.72	10.89	10.30	9.055	8.534	7.645	7.405	6.516	6.083	5.680	6.177	7.297	5.741	3.957	3.321	2.747	2.672	2.361	2.366	2.598	2.475	1.911	1.568	1.690	1.732	3.210	11.60	39.71	88.71	255.9	207.2	15.74	0.938	0.646	0.555	0.645	0.512	0.563	0.581
560.0	63.10	73.35	73.36	69.32	64.35	70.38	107.6	143.2	75.84	76.79	141.4	1091	1359	85.57	39.72	33.02	30.18	28.42	25.52	25.01	23.78	22.02	21.90	21.03	20.64	20.20	19.64	20.27	20.26	19.41	19.29	17.41	16.26	15.34	14.05	13.14	11.94	11.10	10.19	9.086	8.525	7.962	7.216	6.895	6.525	5.895	5.304	5.023	4.715	5.899	5.535	4.357	2.977	2.525	2.302	2.293	2.146	2.308	2.410	1.832	1.404	1.406	1.376	1.737	3.407	9.603	20.79	94.52	283.7	146.2	7.405	0.670	0.577	0.634	0.515	0.436	0.546
565.0	66.39	69.89	64.62	63.29	58.17	60.76	78.31	141.8	88.91	64.46	78.99	420.1	1807	294.8	34.56	29.64	25.58	23.91	21.43	20.45	19.76	18.95	18.68	17.69	18.15	17.29	17.33	16.46	16.26	16.84	16.40	14.68	14.43	13.23	12.32	10.98	10.58	9.606	8.918	7.839	6.987	6.883	6.507	5.855	5.288	4.947	4.577	4.359	4.027	4.259	4.657	4.538	3.012	2.371	2.172	2.108	2.011	1.803	1.863	1.905	1.821	1.339	1.285	1.177	1.625	2.914	5.519	22.49	122.0	260.0	34.43	2.795	0.645	0.621	0.581	0.442	0.445
570.0	63.81	71.43	61.76	52.83	46.99	50.35	54.54	105.4	111.4	59.95	59.65	139.4	1059	1103	67.21	24.63	21.69	19.37	18.28	17.12	15.92	15.02	14.97	14.61	14.43	14.24	14.49	13.55	13.36	13.85	13.05	12.07	11.59	10.51	9.685	9.058	8.425	7.772	7.422	6.479	5.860	5.499	5.511	4.852	4.609	4.122	3.806	3.573	3.293	3.194	3.378	3.883	3.306	2.492	1.873	1.847	1.657	1.616	1.531	1.751	1.968	1.519	1.228	1.049	1.115	1.485	2.032	5.804	28.86	102.0	163.5	98.83	10.88	0.662	0.531	0.493	0.430
575.0	70.86	65.90	62.19	51.69	43.24	40.25	42.34	65.56	115.4	68.73	48.88	68.36	311.6	1379	405.6	22.34	17.48	15.69	14.41	14.00	12.52	12.41	11.94	11.73	11.52	10.65	11.08	11.25	10.99	10.87	10.31	9.715	9.039	8.667	8.021	7.353	6.973	6.099	6.096	5.574	4.910	4.529	4.348	3.981	3.784	3.634	3.318	3.035	2.814	2.542	2.427	2.584	3.205	2.755	1.929	1.586	1.439	1.370	1.349	1.369	1.580	1.464	1.259	1.000	0.879	1.173	1.189	2.044	7.162	23.34	48.13	151.2	126.5	11.69	0.618	0.499	0.448
580.0	74.77	70.13	64.31	46.87	39.01	34.93	38.73	47.00	97.61	88.44	50.16	50.01	101.1	832.0	954.1	37.07	15.56	13.63	12.63	11.99	11.09	10.75	10.56	9.921	10.20	9.825	9.107	9.093	9.041	9.129	8.692	7.870	7.446	7.108	6.845	6.191	5.715	5.498	4.907	4.937	4.143	3.866	3.612	3.328	3.211	3.021	2.817	2.681	2.527	2.021	1.918	2.068	2.580	2.710	2.033	1.550	1.395	1.235	1.244	1.159	1.200	1.278	1.455	1.057	0.903	1.017	0.931	1.211	2.244	5.945	11.45	54.48	165.8	89.93	4.851	0.497	0.453
585.0	70.76	70.08	60.50	45.09	37.69	34.48	36.51	41.29	72.15	106.6	52.26	46.07	52.49	313.2	1297	103.4	14.01	12.05	11.07	10.09	9.546	8.811	9.022	8.077	8.615	8.491	7.937	7.680	7.956	7.684	7.891	7.047	6.627	5.904	5.847	5.199	5.013	4.590	4.136	4.075	3.696	3.527	3.269	2.960	2.854	2.579	2.636	2.423	2.338	1.909	1.699	1.668	2.068	2.436	2.188	1.627	1.309	1.181	1.057	1.093	1.135	1.119	1.382	1.181	1.078	0.922	0.871	0.886	1.150	1.936	3.212	13.02	69.77	154.7	32.58	1.801	0.527
590.0	67.10	62.10	60.75	42.37	34.37	29.98	34.00	37.31	49.41	101.1	71.34	45.93	42.25	98.23	749.2	664.9	31.57	10.56	9.381	8.336	8.023	7.298	7.260	6.912	6.760	6.670	6.463	6.334	6.517	6.218	6.339	5.880	5.216	4.836	4.799	4.455	4.108	3.851	3.597	3.306	3.011	2.927	2.807	2.566	2.436	2.353	2.197	1.998	1.896	1.664	1.486	1.430	1.502	1.836	1.936	1.726	1.292	1.151	1.024	0.984	1.015	0.909	1.090	1.180	1.055	0.832	0.815	0.810	0.873	0.992	1.300	3.481	16.58	58.98	101.6	64.39	8.782
595.0	62.33	65.50	54.57	43.10	35.27	31.66	29.72	34.72	41.01	72.77	95.47	50.78	41.07	43.79	213.6	912.1	212.9	9.268	8.095	7.280	6.580	6.086	6.082	5.943	5.403	5.359	5.860	5.039	5.299	5.017	4.697	4.564	4.187	4.080	3.795	3.900	3.484	3.161	2.892	2.644	2.572	2.400	2.133	2.269	1.972	1.865	1.823	1.684	1.521	1.374	1.347	1.176	1.173	1.251	1.591	1.638	1.444	1.079	0.999	0.874	0.921	0.764	0.806	1.019	1.084	1.072	0.841	0.805	0.797	0.779	0.767	1.274	4.176	13.51	29.19	89.04	79.91
600.0	64.75	66.34	54.72	43.05	35.45	33.91	30.31	38.38	42.57	61.86	102.9	61.78	46.73	37.08	70.45	582.9	568.9	17.18	7.509	6.507	5.954	5.383	5.174	5.104	5.007	4.702	4.771	4.606	4.642	4.308	4.041	4.085	3.845	3.420	3.374	3.096	2.864	2.709	2.457	2.328	2.242	2.154	1.966	1.873	1.689	1.603	1.768	1.588	1.405	1.270	1.116	1.198	1.136	1.105	1.240	1.410	1.453	1.099	1.067	0.813	0.802	0.727	0.849	0.792	0.930	1.101	0.855	0.823	0.801	0.736	0.677	0.752	1.437	3.495	6.881	31.86	98.60
605.0	58.62	68.67	55.56	47.85	38.56	34.35	36.57	46.85	50.83	68.33	113.9	95.59	60.75	46.42	46.09	229.9	806.4	67.23	6.922	5.645	4.640	4.734	4.380	4.334	4.118	4.155	4.181	3.935	3.929	3.791	3.471	3.507	3.089	3.096	2.853	2.538	2.675	2.342	2.014	1.993	1.811	1.853	1.674	1.625	1.541	1.492	1.471	1.439	1.222	1.148	1.019	1.062	0.884	0.863	0.977	1.201	1.297	1.165	0.920	0.906	0.814	0.775	0.786	0.751	0.860	1.152	1.047	0.935	0.835	0.675	0.691	0.670	0.789	1.241	1.998	7.690	40.44
610.0	68.49	76.16	65.98	52.13	42.03	43.06	49.26	63.07	76.62	96.57	124.7	150.7	104.0	75.96	63.57	93.03	537.6	417.4	15.06	4.642	4.219	4.001	3.744	3.950	3.314	3.416	3.367	3.255	3.184	3.151	3.099	2.944	2.571	2.494	2.366	2.116	2.116	2.078	1.846	1.637	1.620	1.482	1.506	1.305	1.325	1.323	1.239	1.158	1.078	0.998	0.836	0.865	0.827	0.810	0.800	1.009	1.237	1.243	1.020	0.839	0.784	0.871	0.795	0.890	0.960	1.088	1.163	1.226	1.068	0.898	0.749	0.767	0.740	0.837	1.008	2.229	9.825
615.0	75.27	80.94	74.79	53.05	46.70	43.57	55.30	72.89	85.27	104.2	127.5	165.8	133.8	92.68	74.23	64.27	188.6	624.9	73.27	4.406	3.496	3.564	3.211	2.944	2.911	2.481	2.660	2.636	2.558	2.556	2.570	2.284	2.375	2.095	2.076	1.919	1.842	1.772	1.485	1.503	1.452	1.274	1.214	1.179	1.135	1.100	1.164	1.027	1.041	0.860	0.840	0.842	0.746	0.734	0.770	0.924	0.838	1.005	1.195	1.041	0.891	0.806	0.751	0.991	1.014	1.049	1.062	1.277	1.370	1.014	0.844	0.775	0.814	0.854	0.736	1.107	2.668
620.0	73.57	84.83	71.06	61.36	47.80	46.45	54.24	70.85	81.51	99.25	116.7	148.6	145.3	94.97	73.94	54.97	82.39	449.2	332.6	6.426	3.426	3.324	2.848	2.498	2.663	2.457	2.441	2.279	2.100	2.301	2.349	1.986	2.053	1.944	1.714	1.733	1.492	1.559	1.342	1.275	1.235	1.153	1.054	1.110	1.043	1.062	0.940	0.981	0.977	0.752	0.712	0.680	0.653	0.725	0.801	0.749	0.736	0.943	1.054	0.917	0.926	0.830	0.770	0.871	0.918	1.006	0.925	1.188	1.283	1.029	0.826	0.906	0.888	0.775	0.666	0.879	1.080
625.0	70.92	89.06	74.19	62.02	46.74	46.54	56.59	66.92	79.38	92.73	113.5	132.2	147.9	98.04	73.50	54.82	56.43	197.4	534.8	32.58	3.253	2.902	2.344	2.217	2.313	2.299	2.039	2.033	1.747	1.844	1.925	1.935	1.762	1.700	1.613	1.490	1.467	1.456	1.207	1.147	1.087	1.038	0.889	1.019	0.980	0.895	0.822	0.808	0.773	0.692	0.601	0.632	0.584	0.654	0.680	0.646	0.749	0.750	0.859	0.993	0.898	0.822	0.883	0.860	0.757	1.032	0.928	1.008	1.031	1.105	0.948	0.873	0.725	0.694	0.639	0.760	0.729
630.0	70.62	92.55	79.10	57.42	48.08	47.63	54.58	66.26	76.25	93.56	106.7	121.1	138.4	109.0	74.78	53.80	48.65	69.12	391.2	249.9	5.779	2.609	2.288	1.891	2.027	1.936	1.807	1.718	1.578	1.694	1.715	1.573	1.473	1.491	1.475	1.291	1.235	1.213	1.079	1.004	0.947	0.857	0.880	0.904	0.808	0.771	0.737	0.742	0.762	0.662	0.608	0.676	0.566	0.580	0.608	0.545	0.707	0.635	0.795	0.921	0.897	0.849	0.834	0.721	0.809	0.899	0.891	0.878	0.966	1.094	1.006	0.889	0.722	0.759	0.694	0.659	0.589
635.0	77.12	90.93	84.13	60.77	49.58	47.38	54.47	62.18	74.95	94.96	107.8	120.0	125.9	119.7	81.25	54.47	49.62	36.27	121.3	448.6	48.62	2.430	1.935	1.628	1.765	1.725	1.831	1.539	1.434	1.418	1.322	1.436	1.147	1.262	1.137	1.060	1.055	1.081	0.938	0.821	0.817	0.752	0.815	0.768	0.690	0.725	0.735	0.775	0.742	0.607	0.565	0.606	0.535	0.439	0.514	0.539	0.598	0.677	0.694	0.798	0.802	0.862	0.808	0.772	0.782	0.860	0.810	0.825	0.897	0.979	0.886	0.980	0.793	0.806	0.690	0.634	0.687
640.0	86.03	91.06	87.90	62.10	49.48	47.74	52.53	62.48	72.02	92.50	104.6	120.2	115.2	119.7	86.06	55.49	49.98	30.17	35.86	352.6	204.8	3.595	1.717	1.645	1.477	1.558	1.686	1.419	1.303	1.333	1.316	1.277	1.129	1.183	1.113	1.052	1.008	0.887	0.846	0.730	0.822	0.684	0.716	0.775	0.629	0.761	0.568	0.732	0.693	0.536	0.507	0.537	0.455	0.489	0.474	0.515	0.595	0.654	0.614	0.739	0.760	0.817	0.812	0.795	0.761	0.770	0.746	0.810	0.871	0.991	0.864	0.921	0.905	0.836	0.688	0.762	0.616
645.0	81.07	98.37	83.55	59.80	51.26	49.22	51.49	62.46	69.07	87.58	98.65	112.0	109.9	106.7	91.75	55.00	47.96	28.16	15.28	159.6	370.5	15.59	1.910	1.635	1.532	1.341	1.448	1.129	1.246	1.080	1.206	1.232	1.069	0.993	0.926	1.048	0.934	0.901	0.833	0.759	0.673	0.625	0.761	0.698	0.571	0.732	0.574	0.644	0.625	0.488	0.528	0.531	0.485	0.449	0.468	0.493	0.613	0.589	0.626	0.585	0.569	0.779	0.805	0.716	0.727	0.820	0.838	0.746	0.925	0.863	0.798	0.810	0.973	0.863	0.626	0.737	0.571
650.0	77.84	88.43	91.39	62.58	54.15	48.44	50.10	59.20	65.45	79.43	91.25	104.2	100.1	97.73	93.11	56.35	46.08	26.42	11.80	49.16	377.3	62.25	1.880	1.558	1.395	1.181	1.183	1.156	0.995	1.094	0.906	1.041	0.974	0.952	0.936	0.830	0.833	0.831	0.775	0.688	0.572	0.685	0.614	0.629	0.612	0.661	0.550	0.593	0.542	0.489	0.464	0.482	0.474	0.456	0.530	0.454	0.581	0.548	0.602	0.547	0.594	0.706	0.732	0.795	0.743	0.758	0.814	0.828	0.778	0.764	0.862	0.757	0.822	0.874	0.710	0.640	0.580
