Sample:	'1
File name:	广利河西五路桥省控断面2.FD3
Run date:	'20:20:24, 06/11/2025
Operator:	Administrator
Comment:	'

Instrument
Model:	F-2700 FL Spectrophotometer
Serial number:	23B8-004
ROM Version:	4J14000 07

Instrument parameters
Measurement type:	3-D scan
Data mode:	Fluorescence
EX  Start WL:	220.0 nm
EX  End WL:	600.0 nm
EX Sampling interval:	5.0 nm
EM  Start WL:	230.0 nm
EM  End WL:	650.0 nm
EM Sampling interval:	5.0 nm
Scan speed:	12000 nm/min
EX Slit:	5.0 nm
EM Slit:	5.0 nm
PMT Voltage:	700 V
Response:	Auto 
Corrected spectra:	Off
Contour interval:	50.000

Peak integration
Integration method:	Rectangular
Sensitivity:	1
Threshold:	1.000

Peaks
No.	ApexEX/EM(nm)	Height(Data)
1	225.0/585.0	97.66
2	230.0/345.0	1956
3	250.0/545.0	199.0
4	255.0/280.0	567.5
5	255.0/560.0	163.7
6	260.0/285.0	624.0
7	260.0/570.0	129.0
8	265.0/585.0	122.0
9	270.0/300.0	1112
10	270.0/375.0	1292
11	270.0/600.0	110.3
12	275.0/305.0	1353
13	275.0/610.0	102.6
14	280.0/310.0	1289
15	280.0/340.0	1395
16	280.0/620.0	86.04
17	285.0/320.0	1251
18	285.0/635.0	66.36
19	460.0/340.0	5.257
20	515.0/280.0	3.474
21	520.0/285.0	3.695
22	530.0/290.0	3.909
23	540.0/295.0	5.583
24	545.0/300.0	6.110
25	555.0/305.0	6.530
26	560.0/310.0	6.415
27	565.0/335.0	6.565
28	570.0/315.0	6.773
29	570.0/345.0	6.571
30	580.0/320.0	6.604
31	585.0/325.0	6.953

Data points
	220.0	225.0	230.0	235.0	240.0	245.0	250.0	255.0	260.0	265.0	270.0	275.0	280.0	285.0	290.0	295.0	300.0	305.0	310.0	315.0	320.0	325.0	330.0	335.0	340.0	345.0	350.0	355.0	360.0	365.0	370.0	375.0	380.0	385.0	390.0	395.0	400.0	405.0	410.0	415.0	420.0	425.0	430.0	435.0	440.0	445.0	450.0	455.0	460.0	465.0	470.0	475.0	480.0	485.0	490.0	495.0	500.0	505.0	510.0	515.0	520.0	525.0	530.0	535.0	540.0	545.0	550.0	555.0	560.0	565.0	570.0	575.0	580.0	585.0	590.0	595.0	600.0
230.0	75.05	1284	5058	2416	134.1	9.449	6.410	5.611	5.362	4.658	4.188	3.723	3.673	2.929	2.465	2.125	1.887	1.648	1.546	1.321	1.224	1.075	1.075	0.920	0.950	0.826	0.862	0.742	0.695	0.633	0.605	0.631	0.555	0.475	0.475	0.471	0.391	0.400	0.384	0.379	0.416	0.563	0.650	0.497	0.387	0.339	1.050	7.403	16.51	14.32	6.135	1.417	0.331	0.247	0.291	0.208	0.254	0.205	0.228	0.200	0.241	0.212	0.224	0.191	0.211	0.227	0.188	0.209	0.254	0.179	0.199	0.210	0.188	0.223	0.200	0.232	0.198
235.0	172.4	364.2	2279	4947	2607	211.9	9.176	7.732	6.224	4.992	4.578	4.035	3.839	3.247	2.723	2.250	2.213	1.689	1.411	1.627	1.389	1.140	1.055	0.907	1.079	0.872	0.795	0.716	0.679	0.736	0.642	0.635	0.563	0.505	0.646	0.410	0.417	0.378	0.381	0.381	0.407	0.356	0.528	0.762	0.638	0.512	0.518	1.973	5.023	9.420	15.01	18.33	10.27	2.649	0.407	0.225	0.243	0.259	0.186	0.188	0.228	0.191	0.222	0.226	0.289	0.227	0.212	0.228	0.225	0.252	0.159	0.205	0.229	0.218	0.227	0.181	0.201
240.0	188.5	219.9	614.6	3028	5510	2250	122.4	9.008	7.893	5.536	5.134	5.031	4.215	3.464	3.047	2.528	2.213	1.896	1.845	1.536	1.395	1.105	0.998	0.992	1.093	0.932	0.927	0.704	0.654	0.756	0.572	0.588	0.474	0.525	0.550	0.446	0.457	0.431	0.475	0.407	0.443	0.446	0.446	0.527	0.610	0.786	0.602	0.713	1.408	2.526	5.974	16.56	25.23	20.57	9.017	1.878	0.308	0.256	0.257	0.253	0.224	0.229	0.235	0.252	0.245	0.267	0.195	0.227	0.187	0.197	0.174	0.188	0.228	0.227	0.191	0.201	0.207
245.0	124.9	274.1	232.2	867.4	4358	6276	1712	53.34	9.736	7.177	5.841	5.674	4.327	3.931	3.059	2.744	2.161	2.127	1.702	1.602	1.368	1.079	1.160	1.111	0.880	0.944	0.877	0.821	0.662	0.857	0.685	0.583	0.638	0.595	0.452	0.517	0.523	0.420	0.471	0.414	0.436	0.390	0.430	0.454	0.422	0.580	0.952	0.810	0.757	0.892	1.587	4.618	12.97	26.04	28.69	19.61	6.972	1.004	0.280	0.242	0.207	0.249	0.262	0.227	0.223	0.208	0.246	0.262	0.210	0.201	0.229	0.216	0.241	0.269	0.180	0.189	0.288
250.0	58.38	153.5	267.3	326.5	1216	4247	6880	3109	135.5	12.87	8.645	7.126	5.521	4.734	3.590	3.075	2.427	2.328	1.825	1.680	1.519	1.373	1.255	1.163	0.994	0.987	0.919	0.850	0.801	0.855	0.720	0.723	0.619	0.599	0.558	0.515	0.437	0.465	0.445	0.447	0.463	0.370	0.427	0.421	0.354	0.409	0.572	0.732	0.962	1.037	0.995	1.417	3.199	7.201	14.12	23.69	29.34	32.77	15.94	7.040	1.002	0.348	0.251	0.297	0.277	0.235	0.230	0.248	0.224	0.231	0.236	0.226	0.231	0.277	0.220	0.213	0.249
255.0	44.91	58.71	149.8	334.2	405.7	1009	3577	9858	2316	176.4	13.33	10.79	8.184	5.613	4.354	3.292	3.130	2.561	2.066	1.831	1.796	1.713	1.357	1.177	1.016	0.954	0.863	0.968	0.849	0.787	0.751	0.788	0.571	0.621	0.475	0.536	0.440	0.418	0.514	0.524	0.442	0.408	0.457	0.365	0.344	0.450	0.362	0.464	0.520	0.746	1.205	1.454	1.381	1.937	3.415	5.666	8.846	22.28	47.81	58.96	25.48	9.475	0.879	0.351	0.267	0.359	0.288	0.300	0.216	0.241	0.241	0.258	0.254	0.262	0.218	0.242	0.244
260.0	45.07	43.78	62.11	225.7	372.6	311.9	948.9	5973	9999.9	1936	116.7	15.45	9.600	7.519	5.482	4.076	3.406	2.950	2.276	2.027	1.890	1.594	1.471	1.237	1.191	1.087	1.003	0.999	0.952	0.813	0.749	0.834	0.753	0.563	0.595	0.474	0.396	0.490	0.482	0.510	0.436	0.396	0.432	0.441	0.536	0.496	0.401	0.361	0.377	0.498	0.660	1.445	1.922	1.350	1.209	1.513	2.299	5.698	16.49	41.60	68.31	67.04	22.15	5.260	0.477	0.463	0.362	0.343	0.298	0.278	0.304	0.184	0.288	0.224	0.218	0.270	0.266
265.0	44.50	39.63	38.47	94.44	334.2	308.2	267.1	1720	8780	9999.9	1520	57.67	14.05	10.11	6.315	5.007	4.038	3.213	2.648	2.151	1.857	1.727	1.526	1.202	1.515	1.385	1.134	1.212	1.128	0.873	0.885	0.748	0.801	0.637	0.655	0.496	0.573	0.480	0.675	0.493	0.435	0.491	0.495	0.567	0.508	0.483	0.393	0.364	0.360	0.359	0.378	0.739	1.406	2.097	1.914	1.008	0.940	1.616	4.209	11.02	28.72	63.37	87.32	31.71	17.43	2.266	0.399	0.342	0.285	0.307	0.233	0.317	0.265	0.255	0.273	0.280	0.273
270.0	84.04	75.89	56.61	54.72	138.7	335.6	341.0	459.3	2467	8379	9999.9	5509	90.60	15.34	9.407	6.765	5.136	3.830	3.433	2.775	2.251	1.882	1.710	1.620	1.420	1.381	1.361	1.159	1.014	0.975	0.916	0.925	0.891	0.758	0.753	0.654	0.663	0.589	0.634	0.485	0.539	0.549	0.531	0.621	0.550	0.573	0.440	0.501	0.464	0.357	0.346	0.474	0.664	1.024	1.617	2.022	1.976	1.457	1.441	2.853	6.918	16.59	33.91	49.98	76.62	64.99	52.77	11.87	2.490	0.538	0.390	0.351	0.301	0.309	0.382	0.398	0.285
275.0	197.2	190.4	135.5	82.95	70.50	139.3	416.8	409.3	629.5	1995	5917	9999.9	7258	107.2	16.14	10.37	7.236	5.141	4.288	3.821	2.746	2.424	2.173	1.607	1.813	1.696	1.386	1.361	1.044	1.091	1.041	1.041	0.871	0.806	0.735	0.764	0.750	0.727	0.664	0.599	0.678	0.594	0.724	0.638	0.759	0.775	0.723	0.670	0.645	0.506	0.472	0.536	0.545	0.554	0.752	0.936	1.762	2.914	2.929	1.596	2.084	4.255	8.180	11.77	19.90	34.87	86.43	119.4	32.68	17.38	1.897	0.428	0.384	0.382	0.482	0.321	0.290
280.0	335.2	316.4	247.1	134.0	74.65	78.41	232.9	567.5	372.3	553.7	1584	8944	9999.9	1142	66.58	13.58	8.890	6.418	5.222	4.159	3.150	2.778	2.304	1.756	1.781	1.703	1.537	1.576	1.150	1.267	1.042	1.020	0.866	0.986	0.903	0.942	0.974	0.859	0.841	0.769	0.777	0.873	0.920	0.894	0.991	1.026	1.071	1.035	0.798	0.740	0.651	0.625	0.590	0.534	0.622	0.586	0.827	1.780	3.130	3.474	2.140	1.649	2.495	3.443	5.298	8.809	25.42	62.40	105.0	124.2	29.53	11.16	0.859	0.437	0.450	0.379	0.321
285.0	476.2	476.8	357.9	202.9	101.4	75.95	127.2	413.3	624.0	323.8	512.7	2572	9999.9	9999.9	845.2	33.40	12.23	8.034	6.080	5.038	3.605	3.233	2.608	2.163	1.957	1.751	1.611	1.412	1.442	1.361	1.139	1.077	0.965	1.176	1.029	1.122	1.066	1.093	1.172	1.101	0.979	1.025	1.039	1.040	1.305	1.419	1.363	1.318	1.169	1.018	0.792	0.709	0.609	0.568	0.566	0.574	0.693	0.974	1.625	2.968	3.695	2.789	1.739	1.634	2.012	3.042	6.698	15.50	35.78	86.30	123.8	112.4	24.27	5.521	0.571	0.446	0.363
290.0	639.1	666.9	526.1	300.8	154.9	112.2	131.8	239.2	548.6	702.2	456.1	848.7	2943	9999.9	9999.9	3099	51.91	12.41	8.459	6.547	4.443	3.746	3.152	2.382	2.046	2.027	1.693	1.519	1.607	1.439	1.346	1.180	1.067	1.120	1.149	1.159	1.291	1.371	1.273	1.326	1.231	1.310	1.311	1.404	1.538	1.811	1.770	1.668	1.557	1.389	1.025	1.042	0.810	0.682	0.641	0.728	0.776	0.935	1.167	1.565	2.401	3.254	3.909	3.525	2.602	2.198	2.980	4.864	9.308	21.47	39.86	70.07	89.27	71.08	71.29	16.23	6.062
295.0	808.1	855.2	671.1	381.8	214.0	171.2	182.7	238.9	365.9	711.5	945.2	658.8	1006	2509	5994	9999.9	4455	58.95	12.20	8.292	5.893	4.606	4.020	2.848	2.465	2.388	1.774	1.825	1.662	1.529	1.325	1.263	1.161	1.071	1.201	1.190	1.537	1.485	1.556	1.525	1.268	1.588	1.527	1.624	1.494	2.047	2.132	2.073	1.857	1.665	1.308	1.271	1.044	0.833	0.852	0.906	1.153	1.174	1.275	1.330	1.631	2.026	2.774	4.432	5.583	4.226	2.987	2.940	3.990	6.488	10.47	17.05	21.90	27.84	75.64	125.5	113.9
300.0	920.6	944.6	788.8	471.7	263.6	217.4	241.5	291.3	383.1	586.0	1112	985.2	700.3	891.8	1663	8656	9999.9	665.8	37.65	10.66	7.930	5.503	4.343	3.593	2.955	2.652	2.073	1.946	1.652	1.582	1.546	1.310	1.304	1.210	1.220	1.397	1.617	1.762	1.743	1.629	1.459	1.627	1.630	1.808	1.768	2.246	2.162	2.503	2.129	1.866	1.547	1.467	1.229	1.084	1.236	1.201	1.301	1.459	1.358	1.550	1.684	2.037	2.308	3.292	4.456	6.110	5.662	3.980	3.429	3.620	4.304	5.563	6.319	7.533	20.09	51.18	109.2
305.0	965.1	1013	848.4	537.3	307.9	268.0	297.1	361.0	465.4	610.2	947.9	1353	874.3	630.0	647.7	2432	9999.9	9999.9	516.6	18.98	9.906	6.648	4.999	4.086	3.221	2.865	2.511	2.207	1.911	1.741	1.654	1.443	1.334	1.296	1.284	1.298	1.525	1.772	1.823	1.814	1.634	1.786	1.997	1.843	2.002	2.244	2.395	2.461	2.355	2.107	1.672	1.495	1.374	1.244	1.344	1.274	1.678	1.459	1.738	1.836	2.206	2.357	2.732	3.132	3.684	4.760	6.223	6.530	5.232	4.163	3.473	3.372	3.500	3.226	5.743	12.61	30.72
310.0	1017	1087	925.6	595.5	374.9	318.6	361.9	443.7	545.0	692.4	897.3	1198	1289	824.0	517.9	743.6	2837	9438	9556	2074	34.55	9.700	6.374	4.879	3.858	3.388	2.795	2.333	2.094	1.903	1.784	1.744	1.455	1.307	1.360	1.306	1.544	1.935	1.831	1.872	1.719	1.833	1.996	2.061	2.248	2.516	2.710	2.747	2.699	2.167	1.742	1.810	1.552	1.465	1.523	1.640	1.786	1.851	2.062	2.297	2.505	2.708	2.979	3.475	3.892	4.314	4.745	5.662	6.415	6.346	5.190	4.025	3.150	2.864	2.994	4.128	8.105
315.0	1058	1155	1002	661.5	422.5	382.3	414.4	511.8	625.9	783.8	956.8	1107	1213	1229	679.0	444.0	808.8	2255	5899	9999.9	2978	37.23	10.20	6.412	5.129	3.836	3.244	2.676	2.211	1.973	2.153	1.764	1.568	1.422	1.325	1.359	1.623	1.872	1.751	1.604	1.810	1.891	1.918	2.306	2.264	2.858	2.832	2.980	2.832	2.564	1.979	1.971	1.674	1.645	1.820	1.768	2.036	2.110	2.316	2.573	2.807	3.067	3.612	3.587	4.246	4.374	4.587	4.925	5.410	5.836	6.773	6.633	5.222	3.511	2.920	2.879	3.338
320.0	1185	1331	1151	753.4	500.7	450.8	486.1	566.0	694.9	838.8	1025	1149	1165	1251	999.0	482.2	422.9	663.9	1562	8252	9999.9	483.2	22.23	8.899	6.305	4.586	3.373	3.073	2.540	2.151	2.039	1.752	1.496	1.255	1.428	1.418	1.570	2.085	1.838	1.903	1.762	2.001	2.168	2.270	2.646	3.008	3.078	3.482	3.135	2.788	2.120	2.151	1.976	1.837	1.968	1.947	2.233	2.334	2.627	2.657	3.111	3.446	3.609	3.882	4.489	4.503	4.995	5.296	5.184	5.685	5.885	6.442	6.604	5.461	3.732	2.964	2.725
325.0	1346	1540	1383	927.9	586.1	505.3	532.6	620.9	734.6	907.4	1086	1209	1210	1151	1163	688.0	396.8	349.9	484.1	2345	9999.9	9999.9	373.2	13.75	7.971	5.402	4.421	3.517	2.713	2.470	2.214	1.948	1.655	1.637	1.410	1.511	1.692	2.120	1.805	1.995	1.925	2.215	2.141	2.574	2.614	3.242	3.169	4.090	3.898	3.208	2.524	2.678	2.250	2.042	2.082	2.164	2.433	2.345	2.835	2.884	3.254	3.558	4.018	4.335	4.647	4.919	5.155	5.332	5.347	5.668	5.548	5.623	6.122	6.953	5.655	3.994	3.145
330.0	1423	1739	1651	1172	737.8	582.9	584.2	666.8	793.2	970.9	1144	1274	1292	1171	1063	912.0	590.9	357.5	294.0	652.3	2827	8413	7730	1618	25.76	8.233	5.958	4.370	3.295	2.797	2.516	2.099	1.764	1.730	1.491	1.616	1.730	1.930	1.858	2.011	2.098	2.235	2.282	2.557	2.956	3.351	3.727	4.559	4.582	3.863	3.219	3.313	2.834	2.417	2.430	2.381	2.579	2.663	2.929	3.239	3.334	3.727	4.318	4.649	4.871	5.392	5.616	5.942	5.944	6.211	6.018	5.684	5.684	5.825	5.379	5.676	4.826
335.0	1443	1869	1852	1369	895.0	691.5	663.8	715.8	849.6	1029	1199	1346	1368	1238	1067	878.5	832.4	530.6	320.6	325.2	739.7	1987	5436	9999.9	2407	30.28	8.086	5.711	4.345	3.478	3.173	2.316	2.185	1.958	1.549	1.704	1.782	1.802	1.774	2.006	1.984	2.263	2.354	2.922	3.108	3.613	3.928	4.966	5.029	4.295	3.691	3.914	3.282	2.958	2.927	2.728	2.935	3.116	3.065	3.369	3.618	3.868	4.323	4.714	4.895	5.613	5.658	6.073	6.264	6.565	6.474	6.275	6.220	5.848	5.465	5.015	5.235
340.0	1510	1916	1942	1506	1003	795.1	728.8	772.0	896.6	1056	1234	1365	1395	1282	1098	883.4	818.9	718.3	407.9	287.6	303.2	529.2	1431	7834	9999.9	413.6	18.09	7.023	5.490	4.098	3.536	2.556	2.187	1.922	1.745	1.719	1.726	1.874	1.946	1.950	2.094	2.094	2.472	2.980	3.222	3.794	4.188	5.129	5.257	4.628	4.122	4.189	3.819	3.400	3.092	3.032	3.220	3.313	3.216	3.741	3.947	4.098	4.400	4.712	5.310	5.766	5.812	6.053	6.469	6.377	6.524	6.434	6.151	6.225	5.838	4.984	5.202
345.0	1507	1926	1956	1546	1103	872.1	785.4	818.3	917.7	1069	1242	1366	1388	1292	1129	904.3	761.9	760.0	552.5	321.0	234.8	230.9	398.9	2238	9741	9257	329.9	11.13	6.611	4.809	3.704	2.661	2.338	1.957	1.842	1.717	1.811	1.912	1.854	2.263	2.040	2.178	2.334	2.677	2.960	3.766	4.109	5.020	5.227	4.715	4.370	4.525	4.063	3.526	3.308	3.189	3.333	3.428	3.393	3.606	4.079	4.315	4.369	4.935	5.179	5.843	5.586	5.992	6.309	6.405	6.571	6.127	6.058	6.134	5.623	5.313	4.924
350.0	1445	1789	1907	1611	1223	982.7	886.9	866.0	951.0	1094	1229	1344	1361	1287	1146	944.0	780.8	696.0	648.6	483.7	284.7	213.3	205.6	582.1	2747	7599	6466	1428	22.93	6.750	4.541	3.360	2.807	2.187	1.963	1.849	1.974	1.845	1.918	2.003	2.012	2.141	2.392	2.717	3.043	3.814	3.948	4.771	5.163	4.832	4.410	4.681	4.362	4.063	3.746	3.456	3.770	3.727	3.693	3.892	4.324	4.417	4.628	4.918	5.220	5.778	5.714	5.758	6.361	6.132	6.441	6.053	6.313	6.069	5.497	5.338	5.086
355.0	1428	1704	1831	1604	1307	1111	1018	968.3	1024	1137	1245	1327	1342	1273	1156	979.5	832.1	710.7	618.1	609.1	429.2	266.3	209.7	251.8	695.2	1794	4558	9949	2195	28.28	6.933	4.778	3.367	2.602	1.999	1.848	1.889	1.758	1.884	2.000	1.976	2.259	2.222	2.551	2.890	3.567	3.878	4.712	4.886	4.606	4.269	4.789	4.707	4.351	4.263	3.796	4.311	4.105	4.222	4.181	4.459	4.674	5.042	5.078	5.299	5.390	5.695	5.548	5.936	6.168	6.088	6.181	6.486	6.108	5.857	5.736	5.612
360.0	1365	1672	1776	1616	1370	1195	1085	1039	1097	1180	1259	1324	1332	1272	1152	1002	870.3	747.9	629.1	594.2	554.8	352.6	248.0	208.1	264.9	476.3	1205	6834	9544	388.0	18.63	6.230	4.142	3.073	2.327	2.063	2.036	2.057	2.081	1.882	2.011	2.012	2.566	2.620	2.779	3.416	3.747	4.564	4.796	4.573	4.493	4.958	4.994	4.786	4.435	4.229	4.460	4.391	4.312	4.436	4.629	4.956	5.105	5.223	5.242	5.433	5.763	5.915	5.921	5.981	5.914	5.999	6.286	6.366	6.093	5.616	5.607
365.0	1321	1639	1772	1631	1391	1252	1137	1120	1145	1211	1285	1310	1323	1258	1157	1007	892.9	772.7	660.5	582.1	573.8	477.2	306.1	231.1	196.9	205.4	336.0	1940	8515	8016	315.7	10.08	5.160	3.931	2.952	2.250	2.087	1.901	2.077	1.898	1.936	2.076	2.535	2.370	2.891	3.333	3.690	4.416	4.526	4.543	4.279	4.888	5.034	4.937	4.796	4.323	4.795	4.938	4.706	4.553	4.768	5.053	5.332	5.471	5.470	5.836	5.631	5.527	5.951	6.119	5.737	6.018	6.303	6.446	6.144	5.801	6.125
370.0	1294	1574	1671	1607	1413	1311	1216	1164	1187	1236	1290	1309	1286	1231	1148	1012	909.8	807.7	703.9	616.1	556.2	538.9	448.0	303.4	225.9	182.5	172.8	500.3	2378	6553	5957	1339	21.30	5.332	3.735	2.856	2.318	2.247	2.061	2.233	2.021	2.164	2.503	2.604	2.768	3.388	3.474	4.372	4.350	4.235	4.237	4.763	5.035	5.030	5.014	4.743	4.886	4.885	4.951	4.962	5.119	5.073	5.467	5.375	5.709	5.480	5.650	5.566	5.793	5.915	6.040	6.059	6.316	6.134	5.822	5.799	6.004
375.0	1288	1516	1615	1551	1437	1348	1272	1200	1226	1255	1292	1275	1257	1194	1121	1007	917.5	827.7	740.1	662.8	582.6	529.1	527.4	430.7	285.1	217.4	166.7	204.7	592.5	1544	4111	8896	2019	25.06	5.386	3.689	2.977	2.483	2.326	2.445	2.225	2.445	2.625	2.478	2.646	3.392	3.404	4.153	4.330	4.167	3.883	4.718	4.926	4.802	5.146	4.847	4.972	5.217	5.011	5.022	5.039	5.301	5.513	5.460	5.599	5.471	5.240	5.478	5.656	5.644	5.756	6.012	6.318	6.214	5.913	6.113	5.596
380.0	1238	1455	1557	1547	1442	1357	1274	1214	1230	1255	1267	1257	1223	1163	1084	999.1	910.0	836.9	759.9	691.9	606.2	541.4	516.7	510.2	361.4	255.2	191.4	160.6	212.1	399.7	1076	5941	8180	331.1	15.83	4.776	3.493	2.922	2.726	2.454	2.242	2.412	2.412	2.593	2.741	3.379	3.349	4.152	4.269	3.942	3.838	4.599	4.941	4.939	4.832	5.123	5.045	5.054	4.864	5.096	5.256	5.237	5.671	5.585	5.706	5.376	5.342	5.717	5.501	5.575	5.664	5.450	5.787	5.782	5.814	5.553	5.927
385.0	1267	1444	1510	1520	1452	1346	1272	1237	1219	1240	1237	1235	1190	1135	1062	974.3	901.6	838.3	772.8	701.3	628.5	562.2	510.1	507.6	447.8	309.8	222.3	171.1	145.3	158.8	288.6	1641	6841	6455	270.9	8.356	4.182	3.357	2.840	2.540	2.430	2.270	2.590	2.482	2.826	3.214	3.359	3.842	4.329	4.082	4.058	4.658	4.931	5.059	4.885	4.946	5.155	5.162	4.864	5.249	5.295	5.214	5.190	5.611	5.650	5.411	5.459	5.399	5.529	5.677	5.523	5.527	5.744	5.639	5.655	5.436	5.828
390.0	1204	1390	1446	1458	1424	1347	1280	1228	1208	1212	1211	1192	1146	1094	1023	940.6	877.8	821.6	769.4	708.1	649.6	588.9	535.9	494.6	471.8	404.3	284.5	211.0	163.8	133.4	133.2	411.4	1851	4854	4442	1091	18.47	4.733	3.437	2.958	2.519	2.420	2.674	2.605	2.921	3.102	3.328	3.786	3.953	3.917	3.835	4.587	4.818	4.976	4.864	4.904	5.223	5.143	5.094	5.084	5.308	5.373	5.246	5.211	5.497	5.370	5.239	5.197	5.415	5.599	5.481	5.350	5.365	5.424	5.246	5.403	5.338
395.0	1185	1331	1401	1397	1390	1342	1273	1216	1194	1191	1181	1145	1097	1040	973.7	902.8	852.0	802.2	752.9	711.1	658.1	606.0	559.1	508.6	463.9	437.6	378.5	264.5	201.7	156.1	123.4	155.5	453.5	1131	2767	6533	1780	24.26	4.628	3.478	2.939	2.679	2.564	2.724	3.003	3.297	3.231	3.693	3.782	3.696	3.635	4.632	4.620	4.978	5.056	4.801	5.440	5.154	5.285	4.963	4.969	5.107	5.218	5.182	5.152	4.857	5.131	4.973	5.303	5.048	5.264	5.031	5.346	5.431	5.127	5.061	5.423
400.0	1105	1298	1346	1347	1370	1289	1245	1199	1176	1161	1146	1125	1063	1002	943.4	869.3	823.4	780.9	736.4	699.2	651.3	614.6	572.2	529.1	471.0	430.8	423.6	331.1	236.3	184.0	140.1	112.6	155.2	289.1	704.9	3914	6218	288.9	16.92	4.406	3.450	2.958	2.627	3.104	2.963	3.109	3.253	3.678	3.603	3.462	3.504	4.211	4.840	4.674	4.819	4.708	5.159	5.130	5.012	4.992	4.906	4.832	5.125	5.120	5.218	4.742	5.015	4.655	4.947	4.831	4.923	5.054	5.004	5.217	5.039	4.935	5.191
405.0	1084	1276	1316	1333	1318	1280	1233	1182	1148	1131	1123	1091	1024	975.3	911.9	833.1	795.6	754.5	715.5	684.9	649.7	607.0	576.4	536.9	486.2	435.4	416.3	389.3	281.3	210.9	161.1	119.1	101.1	108.9	188.9	1030	4531	5163	255.4	10.13	4.047	3.355	2.989	3.117	2.697	2.981	3.132	3.597	3.651	3.452	3.558	4.349	4.904	4.365	4.690	4.683	5.131	5.124	4.872	5.120	4.882	4.992	5.041	4.808	5.244	4.655	4.949	4.496	4.447	4.797	4.671	4.805	4.581	4.988	4.745	5.007	4.841
410.0	1068	1204	1266	1275	1245	1242	1219	1157	1139	1100	1081	1038	982.7	927.9	861.4	790.7	754.7	715.9	685.0	656.9	627.7	599.1	574.1	541.8	496.0	445.6	408.1	390.5	351.0	261.2	191.1	141.1	105.2	83.38	83.28	259.0	1176	3368	4334	1137	18.58	4.297	3.451	3.231	2.830	3.206	3.072	3.421	3.582	3.323	3.402	4.167	4.581	4.492	4.629	4.641	4.887	5.064	4.779	5.109	5.010	5.013	4.930	4.701	4.786	4.696	4.692	4.419	4.447	4.688	4.639	4.524	4.477	4.564	4.630	4.612	4.690
415.0	1011	1133	1182	1222	1202	1188	1194	1136	1111	1075	1039	994.2	940.7	878.8	819.7	745.8	698.8	670.1	649.3	625.4	601.0	578.4	560.9	534.4	499.1	451.1	414.4	377.6	362.8	323.5	228.6	165.4	121.8	91.50	70.66	94.02	287.8	776.9	1951	4817	1714	24.76	4.543	3.532	3.257	3.277	3.230	3.278	3.400	3.179	3.184	4.050	4.241	4.398	4.134	4.461	4.931	5.178	4.884	4.808	4.665	4.850	4.661	4.803	4.889	4.657	4.625	4.410	4.458	4.226	4.265	4.550	4.400	4.311	4.231	4.347	4.549
420.0	955.0	1099	1155	1169	1181	1158	1152	1123	1079	1037	1011	967.4	896.7	838.4	776.8	713.7	666.7	637.0	616.9	595.8	576.0	556.8	543.9	524.1	491.7	451.3	413.7	376.6	350.4	340.9	273.2	185.0	135.0	101.6	74.12	63.54	94.15	194.9	475.3	2518	4773	1349	19.16	4.155	3.517	3.081	3.236	3.484	3.103	3.211	3.039	3.900	4.238	4.295	4.358	4.556	4.934	4.780	4.722	4.719	4.683	4.533	4.614	4.706	4.570	4.183	4.252	4.333	3.922	4.251	4.087	4.319	4.124	4.313	4.159	3.984	4.462
425.0	960.9	1056	1081	1143	1119	1128	1107	1093	1045	1010	971.3	933.1	870.7	810.9	737.0	675.9	633.4	609.5	588.4	572.9	554.9	531.3	524.7	505.6	482.9	448.6	417.1	378.6	347.2	326.8	301.6	214.6	149.5	111.4	84.00	63.48	56.29	68.81	125.3	636.2	2966	4342	260.6	12.75	3.920	3.601	3.365	3.499	3.215	3.186	3.020	3.858	3.946	4.275	4.297	4.235	4.757	4.746	4.519	4.599	4.546	4.672	4.582	4.531	4.470	4.211	4.333	4.327	3.882	3.987	4.045	4.156	3.965	3.899	4.055	3.908	4.222
430.0	1420	1034	1052	1069	1075	1087	1082	1058	1023	994.3	947.0	894.8	830.1	768.7	695.4	639.1	596.0	573.7	554.0	537.9	522.6	508.5	501.1	484.9	465.6	441.4	411.4	383.0	349.7	318.2	293.1	253.6	182.3	129.1	96.00	73.93	56.78	48.20	51.58	159.8	739.1	2341	3365	1099	18.96	4.843	3.741	3.509	3.236	3.117	2.921	3.693	3.816	4.107	4.021	4.068	4.526	4.450	4.407	4.505	4.529	4.413	4.423	4.491	4.262	4.022	4.190	4.008	3.947	3.950	3.809	3.849	3.882	3.828	3.746	3.924	3.730
435.0	2522	1089	1002	1008	1023	1055	1060	1041	999.6	973.3	921.3	866.7	797.7	730.3	661.7	602.4	559.9	536.4	517.0	503.3	490.6	481.8	473.4	465.1	452.0	429.0	404.6	381.0	353.0	318.5	282.7	253.6	218.0	155.5	112.2	87.48	66.80	52.11	42.12	58.54	181.9	536.9	1284	3808	1757	27.37	4.903	4.084	3.484	3.046	2.942	3.633	3.712	3.901	4.192	3.845	4.437	4.362	4.325	4.606	4.257	4.411	4.203	4.337	4.139	3.934	4.030	4.196	3.794	3.454	3.810	3.663	3.650	3.871	3.410	3.635	3.553
440.0	3225	1541	965.4	961.9	1005	1003	1021	1006	977.9	948.9	903.6	843.9	770.6	704.5	636.6	576.7	534.4	509.8	495.5	480.3	467.8	457.2	453.7	446.6	436.1	421.5	398.7	377.0	352.4	320.4	280.5	247.1	225.5	181.4	125.4	96.90	75.02	57.48	45.46	40.38	61.13	135.1	308.2	1761	4194	1477	19.98	4.519	3.927	3.120	2.962	3.520	3.832	3.791	3.976	3.676	4.434	4.081	4.474	4.202	4.151	4.225	4.160	4.305	4.064	3.931	4.040	3.842	3.688	3.311	3.657	3.642	3.629	3.566	3.339	3.519	3.498
445.0	2899	2470	964.8	943.7	956.7	968.3	968.3	981.2	962.8	919.1	876.5	827.4	737.6	670.7	606.5	547.8	509.4	489.2	471.6	454.4	443.9	437.7	433.3	427.5	414.7	404.8	387.2	368.8	347.6	320.9	280.3	244.8	217.3	197.2	146.1	105.2	81.69	64.13	50.60	40.19	37.09	48.58	83.69	431.4	2296	4088	1010	15.30	4.206	3.449	3.048	3.433	3.814	3.819	3.922	3.668	4.313	4.068	4.293	4.162	4.138	4.269	4.228	4.230	3.902	3.879	3.812	3.665	3.572	3.258	3.536	3.561	3.335	3.433	3.363	3.430	3.360
450.0	1654	3486	1630	880.4	898.9	917.6	931.4	929.6	911.0	876.0	842.9	786.7	703.0	628.6	565.3	509.3	470.8	449.4	431.3	419.8	409.2	402.2	400.6	395.7	387.5	377.5	363.8	349.9	332.5	312.2	278.4	241.2	208.2	185.3	163.4	123.9	90.75	71.82	58.30	45.36	37.45	33.21	35.69	109.5	557.4	1944	3204	1002	17.63	4.579	3.276	3.660	3.702	3.766	3.733	3.593	4.126	4.026	4.043	3.968	4.002	3.919	4.036	4.000	3.797	3.848	3.489	3.598	3.517	3.191	3.485	3.334	3.174	3.111	3.154	3.158	3.106
455.0	857.3	2811	3219	938.6	826.6	843.1	866.3	860.6	854.2	825.2	789.8	735.8	655.8	589.7	517.9	471.4	431.1	409.2	393.7	379.4	372.4	362.0	363.0	360.1	352.5	346.8	339.0	325.0	313.0	296.1	267.9	234.1	201.0	173.3	156.7	140.6	105.4	79.45	63.63	51.95	40.84	32.89	28.02	40.24	136.3	444.4	1024	2954	1538	22.33	4.167	3.699	3.440	3.472	3.619	3.673	4.044	3.839	3.754	3.755	3.934	4.019	3.823	3.958	3.724	3.678	3.461	3.199	3.058	3.374	3.127	3.063	2.859	2.869	2.932	2.837	2.951
460.0	681.5	1673	4013	1534	778.4	781.0	826.3	814.8	808.8	779.2	743.5	706.4	621.7	553.7	487.9	439.0	402.6	378.9	364.7	352.5	342.2	332.6	331.8	331.1	326.1	320.8	314.7	307.7	295.2	281.5	259.4	226.3	195.2	167.4	146.3	138.7	118.4	86.64	67.70	55.69	45.28	36.29	28.31	26.85	44.67	110.0	240.5	1207	3262	1212	17.90	4.363	3.916	3.323	3.552	3.452	3.713	3.728	3.529	3.559	3.651	3.929	3.506	3.780	3.317	3.275	3.320	3.150	3.131	3.078	2.833	3.016	2.624	2.719	3.006	2.657	2.762
465.0	615.2	950.0	3526	2736	776.3	739.6	769.8	769.0	761.3	734.1	701.3	664.3	585.0	518.3	458.5	407.4	372.7	353.4	336.2	324.7	315.5	308.6	307.6	308.8	302.2	299.3	295.5	285.6	279.8	270.5	248.0	217.9	191.5	164.2	141.5	128.6	122.4	95.37	71.18	57.73	47.96	38.96	30.65	25.34	25.43	37.11	63.50	289.7	1657	3058	946.5	16.02	4.279	3.625	3.415	3.487	3.367	3.747	3.549	3.500	3.460	3.573	3.400	3.369	3.143	3.187	3.162	3.099	2.784	2.991	2.729	2.794	2.574	2.478	2.738	2.553	2.316
470.0	573.4	641.5	1867	3820	1444	673.9	694.4	702.9	698.5	673.7	649.0	601.1	534.6	473.0	417.1	368.4	335.1	318.2	302.8	291.4	281.3	274.1	273.7	275.0	269.6	268.4	264.7	259.0	254.9	247.7	229.2	204.2	179.3	155.5	135.0	118.3	109.8	101.4	79.14	60.25	48.94	40.15	33.08	26.36	22.89	21.78	24.82	73.64	396.6	1364	2209	913.0	79.92	4.332	3.565	3.206	3.599	3.380	3.441	3.252	3.323	3.423	3.116	3.180	3.161	2.927	3.069	2.825	2.679	2.624	2.642	2.549	2.455	2.299	2.373	2.373	2.195
475.0	540.5	553.9	866.6	2895	3111	752.1	635.3	627.9	637.2	616.7	597.3	544.3	482.9	425.9	369.6	330.8	302.0	278.7	268.5	259.2	249.7	242.5	243.5	241.1	238.0	236.6	234.1	230.1	229.6	222.1	209.2	189.0	166.1	145.6	126.8	110.7	97.31	92.16	85.94	66.94	51.41	41.27	34.57	28.26	23.32	19.75	17.41	26.16	96.21	310.5	660.7	1888	1409	25.56	3.885	2.997	3.192	3.275	3.065	3.020	3.119	3.079	3.045	2.971	2.918	2.860	2.549	2.712	2.367	2.199	2.397	2.215	2.193	2.131	2.064	2.147	2.020
480.0	508.9	539.6	566.0	1599	3964	1287	587.5	594.3	586.4	578.0	548.3	506.2	456.0	396.1	347.4	305.1	280.2	258.7	247.1	236.4	230.8	222.1	221.7	219.9	220.0	215.5	214.6	215.3	213.6	205.7	193.1	178.3	156.2	137.4	121.7	107.2	92.74	85.53	82.46	72.25	53.51	42.30	34.92	28.83	24.43	20.36	16.26	16.16	29.63	76.03	154.8	712.5	2314	1188	20.41	3.395	3.427	2.947	3.152	2.888	3.006	2.779	2.701	2.826	2.653	2.835	2.409	2.481	2.335	2.175	2.199	2.106	2.102	2.066	1.860	2.021	1.910
485.0	444.6	543.2	492.7	818.8	3552	2481	597.6	554.1	555.2	535.8	512.6	479.3	433.4	376.6	323.1	285.8	262.8	242.3	229.5	220.2	210.4	205.9	205.7	205.1	202.1	200.7	198.5	199.0	198.7	192.9	180.2	168.0	148.5	132.2	117.0	102.2	90.21	80.66	75.69	72.75	59.17	43.61	36.36	30.15	25.50	20.72	17.68	14.71	15.01	24.39	40.70	170.4	1110	2318	222.6	14.54	3.704	3.171	3.079	2.979	2.779	2.604	2.482	2.761	2.651	2.611	2.275	2.419	2.100	2.061	2.114	2.054	2.079	1.933	1.738	2.014	1.763
490.0	387.7	517.5	478.9	531.7	1853	3736	1212	512.9	507.1	499.2	478.4	445.5	399.8	344.1	298.6	262.9	238.3	221.3	210.1	199.7	191.8	187.8	186.0	183.2	183.0	181.0	179.8	179.8	181.0	178.5	166.2	155.9	139.0	125.4	111.2	97.37	86.36	77.36	69.15	65.52	62.54	48.95	37.33	31.11	26.05	21.41	18.44	15.18	12.96	13.31	15.61	43.82	264.2	963.6	1580	925.9	87.63	4.159	3.048	2.755	2.744	2.666	2.540	2.561	2.460	2.411	2.341	2.158	2.174	2.074	2.120	1.781	1.922	1.804	1.696	1.824	1.610
495.0	318.4	421.9	467.9	431.2	741.5	3013	2916	565.0	453.4	454.2	432.8	405.7	361.7	312.4	271.3	238.1	216.4	199.1	186.7	180.7	169.5	166.9	164.8	162.1	161.4	161.0	159.7	160.2	159.7	158.8	151.2	141.0	127.2	114.0	102.2	90.42	80.93	73.56	64.51	58.70	56.34	52.35	40.15	31.58	26.58	21.82	18.98	15.64	13.49	11.34	10.31	15.40	63.83	219.3	517.6	1783	1505	27.77	3.563	2.924	2.748	2.389	2.395	2.421	2.275	2.327	2.058	2.105	2.175	1.699	1.957	1.666	1.819	1.678	1.614	1.577	1.683
500.0	299.6	362.0	446.2	395.2	450.7	1669	4082	994.4	413.7	414.2	395.8	372.1	336.5	284.6	242.5	214.6	196.6	183.1	168.9	162.9	153.5	149.7	149.6	147.4	144.4	145.2	145.8	146.5	146.6	143.8	138.0	130.0	116.0	106.7	94.79	84.80	77.73	68.84	60.70	54.50	49.85	49.24	43.59	32.62	26.23	22.27	18.77	15.69	13.66	11.07	9.210	9.034	19.31	53.45	121.3	667.7	2187	1158	22.05	3.047	2.700	2.447	2.320	2.228	2.074	1.984	1.751	1.960	1.916	1.811	1.821	1.587	1.615	1.687	1.407	1.485	1.473
505.0	254.0	305.6	418.9	386.2	373.3	755.2	3849	2121	402.7	379.5	371.1	336.3	303.7	262.5	224.2	196.3	179.5	168.4	156.5	149.1	139.2	136.7	135.1	133.8	133.6	131.6	132.5	132.1	132.0	131.7	126.3	117.1	106.0	97.11	88.25	78.88	71.97	64.83	57.57	51.08	45.14	43.76	44.45	34.45	27.05	22.09	18.65	15.91	13.07	11.07	8.961	8.077	9.354	16.22	31.24	157.8	988.1	2151	241.4	14.74	2.826	2.572	2.320	2.190	2.089	1.895	1.747	1.832	1.783	1.506	1.514	1.465	1.466	1.550	1.385	1.452	1.498
510.0	231.7	263.6	334.6	384.4	326.2	404.1	1990	3588	909.7	341.3	327.6	302.3	266.4	234.3	202.0	174.0	158.0	145.7	136.6	128.9	121.4	118.1	118.2	117.7	116.4	115.6	114.6	114.8	115.2	114.5	111.5	103.5	94.74	86.52	78.32	71.02	64.40	58.18	51.79	46.76	41.45	37.96	38.07	35.83	28.48	21.91	18.26	15.64	12.98	11.05	9.339	7.975	6.874	7.817	10.93	38.75	232.7	868.0	1435	843.9	19.20	3.096	2.354	2.190	1.881	1.765	1.732	1.681	1.619	1.525	1.428	1.414	1.258	1.289	1.314	1.213	1.253
515.0	200.9	222.9	250.1	327.0	319.1	300.4	697.3	3315	2408	359.6	286.4	268.0	233.9	205.6	173.7	153.0	138.3	126.5	118.3	112.3	105.8	101.9	102.3	100.2	100.0	98.22	99.22	99.31	100.1	98.84	96.66	90.98	83.01	75.80	68.57	63.15	57.93	51.10	46.94	41.27	38.34	33.96	32.21	31.98	30.04	23.31	17.55	15.11	12.69	10.54	8.968	8.059	6.564	6.429	6.282	12.59	55.20	196.6	432.5	1394	1139	27.25	2.652	2.095	1.633	1.619	1.555	1.474	1.499	1.309	1.341	1.181	1.164	1.172	1.024	1.106	1.114
520.0	189.8	200.3	221.2	276.3	314.5	259.8	352.9	1861	4160	707.4	258.1	243.6	212.0	186.2	160.0	138.2	125.0	112.3	105.8	99.59	95.53	91.65	90.46	87.37	88.14	88.04	88.25	88.70	88.79	88.82	86.07	81.40	75.08	68.33	63.18	56.47	51.81	47.89	43.53	39.68	35.10	31.26	28.62	27.44	28.04	24.54	17.63	14.33	12.17	10.36	8.753	7.841	6.800	5.878	5.240	6.385	15.66	46.89	100.6	521.1	1588	827.4	20.54	2.281	1.734	1.602	1.492	1.535	1.272	1.145	1.184	1.134	1.020	1.235	1.069	1.040	1.065
525.0	166.8	186.8	205.5	233.4	304.1	246.2	252.1	764.0	4351	1796	246.0	219.9	194.5	171.2	142.7	127.0	111.8	102.3	97.64	91.51	85.22	84.28	80.42	79.99	77.78	78.20	79.51	79.67	79.78	80.01	77.88	73.37	66.16	62.36	57.88	51.68	47.24	42.25	39.20	35.80	32.71	28.69	26.21	24.54	24.65	24.91	18.88	14.10	11.94	10.24	8.529	7.655	6.881	6.021	4.893	4.788	6.665	13.43	25.17	122.4	702.1	1532	241.7	12.79	1.909	1.738	1.377	1.514	1.287	1.082	1.145	1.180	1.063	1.124	0.953	1.044	1.047
530.0	145.2	157.5	179.3	182.6	253.4	251.5	208.6	332.9	2296	3986	657.3	192.4	168.7	149.5	126.4	109.9	98.51	89.53	85.18	78.57	74.34	72.84	69.84	69.97	67.95	68.05	69.04	69.02	69.35	68.72	67.66	63.71	58.62	54.60	50.06	45.17	41.39	37.79	35.78	32.01	28.71	25.60	23.33	21.31	20.18	20.71	19.56	15.06	11.48	9.436	8.121	7.072	6.142	6.048	5.291	4.453	4.359	5.812	8.330	29.94	165.8	623.4	1018	615.3	17.78	2.122	1.395	1.354	1.111	1.117	0.997	0.999	0.988	0.993	0.881	0.925	0.850
535.0	125.9	149.9	144.5	154.7	185.0	247.6	189.6	206.9	702.8	3827	1899	193.8	146.8	129.2	111.2	94.84	85.71	77.26	72.50	66.72	64.01	61.28	59.49	59.25	58.71	57.85	57.36	58.94	57.59	58.68	57.33	53.58	49.43	45.29	42.83	38.90	35.70	33.46	31.21	27.84	25.24	22.54	20.98	18.84	16.88	16.40	17.19	15.91	11.29	8.764	7.286	6.693	5.884	5.320	5.093	4.443	3.881	4.048	4.348	9.129	39.07	141.1	305.5	982.9	786.8	25.48	1.740	1.397	1.167	1.001	0.912	0.981	0.849	0.881	0.684	0.860	0.824
540.0	120.6	128.8	122.1	133.9	143.1	221.9	196.8	163.1	283.5	2020	4202	404.0	129.9	113.0	98.03	83.54	73.83	68.08	64.26	58.28	56.74	53.93	52.00	51.70	50.32	50.85	50.64	51.09	51.58	51.40	50.30	47.58	43.94	39.35	37.99	33.87	32.04	29.08	27.52	24.76	22.24	20.51	18.06	17.04	15.51	14.23	13.88	15.52	12.20	8.805	7.034	6.150	5.209	4.932	4.477	4.439	3.838	3.579	3.194	4.206	10.83	33.46	70.64	360.5	1088	252.9	18.77	1.500	1.068	1.098	0.966	0.867	0.766	0.783	0.630	0.698	0.725
545.0	112.6	127.2	114.3	118.4	120.3	182.4	199.0	142.4	173.2	743.1	4615	1288	117.9	101.3	86.45	74.66	66.60	59.93	55.28	52.14	49.41	48.43	45.23	46.14	43.88	44.76	44.89	43.93	45.20	45.89	45.44	40.77	38.71	36.31	32.39	30.62	28.12	26.45	24.16	22.07	20.20	17.93	16.47	14.58	13.87	12.37	11.98	12.63	12.09	9.321	6.715	5.752	4.836	4.539	4.168	4.112	4.168	3.322	3.006	2.912	4.636	9.409	17.67	84.37	473.6	958.9	232.2	9.933	1.328	1.018	0.969	0.878	0.699	0.735	0.710	0.662	0.661
550.0	99.81	112.7	105.6	104.2	103.2	124.7	193.3	140.4	130.5	266.2	2274	3650	334.8	85.13	73.11	62.70	56.49	51.36	47.08	43.01	41.47	39.58	37.81	38.83	37.26	36.20	36.94	37.19	37.43	37.55	37.05	34.64	32.41	29.92	27.40	25.64	23.51	21.87	20.50	18.32	16.85	15.23	13.82	12.81	11.92	10.80	9.729	9.859	10.27	9.256	7.271	5.326	4.444	4.155	3.753	3.659	3.721	3.465	2.974	2.562	2.858	3.879	5.687	20.64	111.2	387.0	702.5	435.1	17.41	1.654	1.092	0.932	0.768	0.677	0.702	0.646	0.571
555.0	94.75	104.3	95.71	92.14	85.05	91.48	145.2	158.4	109.1	137.5	634.6	3711	1315	81.18	59.86	49.96	46.67	39.99	37.25	36.32	33.00	32.52	31.05	31.17	30.58	29.28	29.43	29.53	30.12	30.25	29.47	28.38	26.61	24.05	22.33	20.43	19.23	17.72	16.44	15.05	13.80	12.47	11.61	10.47	10.22	9.013	8.325	7.748	7.597	8.202	7.321	5.083	4.025	3.522	3.289	3.271	3.103	3.032	3.374	2.445	2.395	2.414	2.915	6.325	26.22	87.92	203.5	609.3	536.0	24.95	1.459	0.998	0.821	0.672	0.570	0.631	0.464
560.0	93.89	102.2	85.61	83.38	72.28	78.52	101.0	163.7	101.9	102.1	211.0	1894	3419	147.2	52.28	44.33	39.54	35.12	31.51	31.85	27.39	27.83	26.12	25.82	25.57	24.68	24.39	24.68	25.72	25.79	25.41	23.58	22.16	20.27	18.73	17.33	15.93	14.96	14.09	12.59	11.88	11.05	10.32	9.165	8.842	8.091	6.816	6.613	5.927	6.646	6.704	5.189	3.813	3.269	3.125	2.816	3.009	2.778	3.229	2.697	2.435	2.128	2.370	3.003	7.628	21.28	47.46	212.7	673.4	252.4	17.10	1.234	0.910	0.799	0.624	0.464	0.359
565.0	95.71	102.6	83.17	75.48	67.50	63.84	76.25	141.0	111.0	82.57	108.8	635.5	4017	780.9	47.48	38.63	33.84	29.76	27.05	25.91	24.23	23.02	22.51	22.53	21.48	21.85	20.73	20.78	21.44	20.61	21.56	20.00	19.01	17.43	16.19	14.76	13.33	13.73	12.27	11.23	10.53	9.127	8.615	8.153	7.715	7.081	6.095	5.746	5.072	5.149	5.835	5.344	3.708	3.135	2.980	2.858	2.649	2.514	2.780	3.009	2.638	2.289	2.417	2.584	3.437	6.550	12.49	50.03	271.1	586.8	210.6	9.102	1.016	0.847	0.644	0.431	0.457
570.0	95.95	92.22	78.45	66.48	59.44	54.95	58.68	98.63	129.0	78.07	78.40	200.8	2028	2729	100.8	32.89	27.70	24.64	22.37	21.01	20.21	18.55	17.98	17.72	17.52	17.62	17.11	16.91	17.61	17.15	17.05	16.31	15.24	13.87	13.20	12.61	11.35	10.86	9.670	9.196	8.550	7.750	7.176	6.802	6.472	5.747	5.293	4.887	4.236	4.131	4.177	4.603	4.055	3.042	2.546	2.480	2.524	2.482	2.504	2.800	3.029	2.645	2.651	2.663	2.972	3.552	4.744	13.24	64.01	217.9	400.8	281.1	16.81	1.288	0.669	0.486	0.482
575.0	102.0	91.13	86.62	58.26	50.51	47.29	50.80	65.50	125.6	91.10	65.67	94.87	540.4	2927	880.9	32.47	23.85	20.30	18.10	17.41	16.15	15.17	14.63	14.30	14.13	13.87	13.10	13.91	14.14	13.62	13.29	13.24	11.72	11.35	10.46	9.983	8.754	8.673	7.952	7.307	6.651	6.242	5.810	5.272	5.240	4.583	4.200	3.879	3.565	3.300	3.113	3.440	3.730	3.327	2.636	2.364	2.385	2.341	2.249	2.505	2.531	2.985	2.853	2.773	2.741	2.893	3.090	5.035	16.27	50.49	109.1	329.2	258.7	24.33	0.983	0.618	0.477
580.0	93.63	94.33	76.04	56.72	45.88	44.04	44.18	49.99	99.63	110.2	66.16	72.24	164.9	1539	2425	76.59	20.06	17.55	16.46	15.14	13.88	13.03	12.50	12.59	12.06	11.71	11.13	11.56	12.39	11.47	11.24	10.48	10.59	9.593	9.269	8.161	8.194	7.313	6.620	6.338	5.374	5.172	4.895	4.619	4.301	4.083	3.784	3.508	3.347	2.836	2.756	2.576	3.148	3.229	2.805	2.187	2.108	2.178	2.254	2.256	2.398	2.853	2.860	2.728	2.575	2.717	2.809	3.249	5.524	13.02	26.26	107.2	352.0	230.0	16.03	0.746	0.524
585.0	91.12	97.66	78.00	55.22	40.94	40.43	39.51	44.36	77.00	122.0	70.11	64.10	77.44	506.1	2920	429.1	18.79	15.74	13.82	13.13	11.64	11.08	10.73	10.57	10.20	9.841	9.671	9.801	10.11	9.884	9.577	9.262	8.763	8.106	7.643	7.148	7.301	6.147	5.735	5.501	4.731	4.581	4.288	3.908	3.763	3.453	3.362	2.953	2.714	2.553	2.392	2.248	2.378	2.924	2.797	2.437	1.890	1.881	2.017	2.035	2.152	2.397	2.680	2.788	2.558	2.580	2.331	2.439	2.980	4.625	7.444	25.48	133.5	351.5	174.0	8.078	0.634
590.0	90.47	90.55	75.47	51.96	37.47	37.12	36.60	40.68	55.83	107.4	88.39	59.34	58.36	149.3	1486	1719	54.60	13.61	12.05	11.11	9.942	9.524	9.255	8.635	8.092	7.934	8.243	7.915	8.090	8.043	8.113	7.522	6.827	6.619	6.314	5.609	5.467	5.164	4.680	4.674	3.880	3.682	3.646	3.268	3.249	2.968	2.726	2.659	2.386	2.142	1.870	1.872	1.896	2.105	2.249	2.404	1.914	1.657	1.648	1.656	1.850	2.001	2.054	2.318	2.333	2.311	2.074	2.002	2.059	2.400	2.877	6.688	31.16	118.7	237.8	146.6	16.90
595.0	82.21	85.27	79.88	48.76	37.43	32.18	34.24	35.58	44.42	71.81	109.5	63.45	52.37	62.33	388.7	1972	549.8	12.84	10.07	9.402	8.166	7.215	7.312	6.378	6.638	6.713	7.166	6.303	6.761	6.513	6.545	6.129	5.349	5.490	4.897	4.636	4.276	4.157	4.003	3.643	3.474	3.064	3.121	2.731	2.529	2.343	2.266	2.251	2.057	1.798	1.655	1.511	1.393	1.635	1.710	2.036	1.898	1.489	1.372	1.473	1.466	1.416	1.653	1.851	1.810	1.956	1.791	1.611	1.669	1.622	1.665	2.235	7.697	27.13	60.31	169.9	209.7
600.0	84.16	86.46	70.82	45.94	33.71	29.61	30.65	33.59	42.74	55.49	110.3	72.74	51.24	42.77	109.9	1090	1435	36.37	8.930	7.728	7.339	6.554	6.112	5.625	5.610	5.786	5.517	5.586	5.681	5.294	5.474	5.077	4.678	4.685	4.039	4.023	3.664	3.484	3.442	3.061	2.928	2.642	2.539	2.352	2.187	2.017	2.004	1.924	1.749	1.497	1.364	1.350	1.241	1.160	1.474	1.695	1.789	1.578	1.182	1.223	1.275	1.264	1.287	1.361	1.612	1.838	1.511	1.308	1.284	1.426	1.313	1.231	2.365	6.675	14.02	50.75	201.9
605.0	85.46	80.21	66.34	45.55	33.01	25.83	30.94	36.15	38.04	48.84	89.24	89.76	51.43	39.23	45.23	361.8	1828	91.47	8.377	7.129	6.521	5.775	5.679	5.041	5.173	5.032	4.835	4.569	4.556	4.791	4.401	4.023	4.166	4.110	3.788	3.328	3.347	3.269	2.919	2.625	2.513	2.242	2.135	1.983	2.120	1.958	1.689	1.701	1.678	1.401	1.231	1.248	1.086	0.956	1.196	1.451	1.814	1.558	1.317	1.062	1.145	1.271	1.259	1.264	1.306	1.577	1.612	1.201	1.203	1.166	1.066	0.911	1.161	2.007	3.630	11.81	68.23
610.0	77.41	77.84	66.30	43.37	30.63	26.94	29.63	33.31	38.69	46.38	68.07	102.6	60.25	39.79	32.20	98.59	1011	948.4	31.63	6.400	5.484	5.053	4.621	4.342	4.291	4.262	4.083	3.883	3.869	3.999	3.578	3.581	3.505	3.337	3.322	3.102	2.823	2.785	2.567	2.297	2.068	1.843	1.898	1.788	1.683	1.574	1.513	1.364	1.304	1.172	1.093	1.029	0.904	0.851	0.944	1.010	1.336	1.367	1.272	1.057	1.022	1.048	1.121	1.137	1.137	1.261	1.291	1.316	1.210	0.965	0.999	0.881	0.773	0.925	1.227	3.040	15.80
615.0	72.45	75.63	60.08	41.25	27.37	25.66	29.09	34.29	36.02	45.58	56.66	90.55	78.33	40.38	30.22	36.27	262.8	1293	341.1	6.016	4.637	4.493	4.011	3.934	3.580	3.273	3.447	3.417	3.392	3.540	3.299	2.930	2.891	2.763	2.750	2.471	2.480	2.026	2.110	1.859	1.701	1.630	1.530	1.400	1.256	1.379	1.211	1.217	1.168	0.965	0.873	0.804	0.770	0.660	0.791	0.869	0.874	1.045	1.218	1.055	0.873	0.903	1.017	0.971	0.947	0.975	0.982	1.130	1.188	0.884	0.865	0.825	0.913	0.661	0.720	1.036	3.925
620.0	62.68	68.80	55.27	37.55	29.22	23.91	25.96	33.69	34.82	45.93	51.67	72.83	86.04	44.99	29.71	21.39	70.23	773.1	918.6	15.92	4.316	3.905	3.754	3.361	2.910	3.129	2.979	2.811	2.794	2.872	2.722	2.676	2.572	2.327	2.640	2.239	2.123	2.054	2.032	1.578	1.439	1.410	1.330	1.273	1.107	1.152	1.112	1.064	0.934	0.762	0.760	0.768	0.749	0.705	0.709	0.724	0.726	0.834	1.038	1.038	0.904	0.861	0.892	0.833	0.924	0.875	0.864	1.059	1.005	0.964	0.785	0.737	0.613	0.607	0.629	0.555	1.217
625.0	58.98	67.88	56.30	42.40	27.46	24.36	25.96	29.51	36.28	43.57	52.37	61.21	83.88	48.66	28.98	17.63	25.72	268.8	1252	67.54	4.181	3.545	3.177	2.999	2.593	2.595	2.356	2.142	2.198	2.380	2.520	2.216	2.394	2.081	2.120	2.036	2.063	1.755	1.728	1.602	1.263	1.171	1.284	1.137	1.076	1.093	1.000	0.913	0.834	0.639	0.853	0.679	0.624	0.685	0.659	0.677	0.746	0.681	0.788	1.046	0.895	0.797	0.805	0.783	0.758	0.786	0.685	0.943	0.984	0.938	0.862	0.821	0.604	0.587	0.483	0.412	0.606
630.0	59.79	64.39	56.50	38.03	25.57	24.43	25.83	27.73	35.51	42.57	51.10	54.25	71.91	61.60	30.33	17.67	15.27	70.73	753.5	663.1	17.85	3.330	2.847	2.527	2.368	2.208	2.056	2.090	2.038	2.120	1.937	1.906	1.845	1.797	1.793	1.619	1.669	1.520	1.499	1.485	1.186	1.000	0.980	0.929	0.975	0.878	0.863	0.831	0.757	0.636	0.647	0.580	0.547	0.526	0.539	0.548	0.610	0.566	0.721	0.874	0.810	0.768	0.745	0.711	0.674	0.768	0.712	0.827	0.827	0.786	0.906	0.787	0.564	0.544	0.474	0.421	0.540
635.0	66.54	63.67	60.12	33.52	25.04	20.97	23.91	27.58	33.99	40.92	50.18	52.34	58.44	66.36	36.94	18.80	13.60	23.22	199.2	969.4	204.0	3.540	2.863	2.261	2.243	1.967	1.935	1.831	1.675	1.766	1.615	1.523	1.530	1.457	1.491	1.519	1.325	1.210	1.220	1.189	1.018	0.916	0.950	0.806	0.790	0.664	0.684	0.736	0.690	0.582	0.503	0.456	0.458	0.464	0.434	0.450	0.569	0.471	0.660	0.614	0.751	0.712	0.656	0.545	0.578	0.733	0.607	0.693	0.658	0.713	0.763	0.870	0.621	0.498	0.440	0.443	0.417
640.0	58.39	61.16	56.72	35.47	25.73	22.90	23.71	24.90	33.28	39.81	47.50	53.35	51.87	61.96	43.64	20.72	14.06	13.54	51.85	643.3	533.5	8.547	2.326	2.033	1.996	1.800	1.645	1.449	1.545	1.581	1.573	1.358	1.406	1.435	1.386	1.352	1.248	1.133	1.158	1.007	0.907	0.952	0.810	0.682	0.651	0.678	0.684	0.700	0.542	0.526	0.406	0.479	0.422	0.415	0.426	0.446	0.507	0.482	0.508	0.511	0.652	0.574	0.651	0.581	0.598	0.657	0.576	0.633	0.584	0.564	0.584	0.697	0.647	0.510	0.375	0.462	0.438
645.0	67.31	59.42	57.47	33.41	27.71	24.47	25.42	27.73	33.74	38.74	46.80	50.55	51.49	54.79	50.68	22.72	15.22	11.50	17.59	239.0	879.9	50.22	2.553	2.110	1.954	1.852	1.489	1.359	1.351	1.513	1.341	1.236	1.364	1.211	1.139	1.176	1.218	1.068	1.075	0.976	0.850	0.827	0.735	0.694	0.705	0.593	0.584	0.568	0.491	0.490	0.444	0.451	0.332	0.385	0.386	0.441	0.465	0.442	0.486	0.502	0.455	0.528	0.582	0.519	0.582	0.620	0.558	0.628	0.562	0.521	0.579	0.519	0.645	0.677	0.497	0.404	0.375
650.0	70.43	65.90	62.06	37.40	29.67	24.63	23.62	27.03	32.84	37.42	46.52	48.68	50.40	47.36	51.40	26.13	15.97	11.78	10.35	64.66	764.5	314.3	3.386	1.950	1.778	1.649	1.421	1.297	1.424	1.253	1.215	1.170	1.281	1.169	1.195	0.968	1.118	1.018	0.898	0.942	0.832	0.841	0.775	0.716	0.630	0.575	0.573	0.645	0.467	0.535	0.423	0.452	0.404	0.415	0.440	0.441	0.390	0.406	0.448	0.467	0.416	0.543	0.581	0.519	0.554	0.516	0.508	0.473	0.537	0.542	0.508	0.483	0.597	0.622	0.519	0.405	0.356
