Sample:	'1
File name:	G2025062701 ÎºÇÅ´ó¹µ.FD3
Run date:	'13:10:08, 06/30/2025
Operator:	Administrator
Comment:	'

Instrument
Model:	F-2700 FL Spectrophotometer
Serial number:	23B8-004
ROM Version:	4J14000 07

Instrument parameters
Measurement type:	3-D scan
Data mode:	Fluorescence
EX  Start WL:	220.0 nm
EX  End WL:	600.0 nm
EX Sampling interval:	5.0 nm
EM  Start WL:	230.0 nm
EM  End WL:	650.0 nm
EM Sampling interval:	5.0 nm
Scan speed:	12000 nm/min
EX Slit:	5.0 nm
EM Slit:	5.0 nm
PMT Voltage:	700 V
Response:	Auto 
Corrected spectra:	Off
Contour interval:	50.000

Peak integration
Integration method:	Rectangular
Sensitivity:	1
Threshold:	1.000

Peaks
No.	ApexEX/EM(nm)	Height(Data)
1	225.0/335.0	1870
2	225.0/635.0	73.24
3	230.0/345.0	1882
4	245.0/535.0	250.8
5	250.0/545.0	190.9
6	255.0/560.0	161.2
7	260.0/285.0	611.8
8	260.0/570.0	128.7
9	265.0/585.0	123.8
10	270.0/300.0	1197
11	270.0/595.0	117.0
12	275.0/305.0	1415
13	275.0/345.0	1596
14	275.0/610.0	105.3
15	280.0/310.0	1333
16	280.0/620.0	90.35
17	285.0/320.0	1264
18	285.0/635.0	68.82
19	455.0/345.0	6.601
20	460.0/340.0	6.571
21	520.0/285.0	4.715
22	535.0/355.0	8.550
23	540.0/295.0	6.383
24	545.0/300.0	7.658
25	555.0/305.0	8.199
26	555.0/345.0	8.627
27	560.0/310.0	7.949
28	560.0/340.0	8.512
29	570.0/315.0	7.916
30	585.0/325.0	7.923

Data points
	220.0	225.0	230.0	235.0	240.0	245.0	250.0	255.0	260.0	265.0	270.0	275.0	280.0	285.0	290.0	295.0	300.0	305.0	310.0	315.0	320.0	325.0	330.0	335.0	340.0	345.0	350.0	355.0	360.0	365.0	370.0	375.0	380.0	385.0	390.0	395.0	400.0	405.0	410.0	415.0	420.0	425.0	430.0	435.0	440.0	445.0	450.0	455.0	460.0	465.0	470.0	475.0	480.0	485.0	490.0	495.0	500.0	505.0	510.0	515.0	520.0	525.0	530.0	535.0	540.0	545.0	550.0	555.0	560.0	565.0	570.0	575.0	580.0	585.0	590.0	595.0	600.0
230.0	142.4	4100	9534	3068	105.8	17.22	13.79	11.96	9.985	9.874	9.319	8.518	7.741	6.611	5.921	5.193	4.633	4.436	3.974	3.707	3.147	2.894	2.664	2.494	2.464	2.132	1.999	1.801	1.785	1.654	1.634	1.432	1.359	1.216	1.170	1.020	1.026	0.926	0.867	0.804	0.908	0.970	0.917	0.742	0.703	0.762	4.741	21.25	35.70	24.30	8.614	1.657	0.595	0.522	0.510	0.504	0.477	0.475	0.480	0.481	0.452	0.441	0.442	0.451	0.496	0.423	0.408	0.433	0.468	0.433	0.412	0.415	0.408	0.392	0.378	0.409	0.415
235.0	158.8	1125	6280	9999.9	3310	196.3	19.09	13.48	12.51	12.20	11.22	9.525	8.469	7.562	5.616	5.438	5.217	4.416	4.124	3.702	3.058	2.937	2.732	2.593	2.466	2.220	2.053	1.862	1.790	1.660	1.540	1.558	1.485	1.370	1.381	1.034	1.054	0.992	0.998	0.816	0.835	0.859	0.981	1.055	0.987	0.865	1.652	5.710	14.51	25.67	37.61	25.12	16.11	3.659	0.600	0.516	0.592	0.470	0.517	0.477	0.483	0.529	0.444	0.503	0.498	0.410	0.414	0.498	0.444	0.476	0.396	0.420	0.433	0.435	0.453	0.450	0.413
240.0	174.4	368.9	1905	9205	9999.9	2659	117.7	19.91	15.56	13.04	11.53	11.54	9.467	8.082	7.162	5.701	5.449	4.693	4.240	3.734	3.240	2.988	2.845	2.908	2.764	2.191	2.120	1.690	1.851	1.736	1.629	1.384	1.685	1.257	1.279	1.200	0.930	0.929	0.979	0.817	0.867	0.876	0.840	1.024	1.144	1.146	1.047	1.863	3.802	7.707	20.34	47.70	64.60	25.72	13.79	1.980	0.608	0.626	0.557	0.495	0.415	0.546	0.479	0.502	0.485	0.507	0.482	0.441	0.453	0.441	0.446	0.429	0.449	0.428	0.383	0.502	0.426
245.0	135.3	282.9	513.1	3186	9999.9	9999.9	1955	59.84	20.27	17.95	15.06	12.95	9.700	9.392	7.892	6.783	5.400	4.867	4.532	3.950	3.609	3.611	2.924	2.981	2.591	2.402	2.181	2.101	1.953	1.630	1.658	1.487	1.477	1.264	1.164	1.300	1.024	1.054	0.906	0.853	0.948	0.979	0.839	0.806	0.996	1.107	1.243	1.344	1.493	2.222	5.262	16.48	45.27	75.23	79.39	23.82	10.05	1.219	0.626	0.706	0.612	0.619	0.594	0.506	0.555	0.490	0.458	0.541	0.449	0.443	0.472	0.455	0.531	0.398	0.467	0.441	0.472
250.0	88.82	183.1	321.8	823.9	3559	9999.9	9999.9	6263	137.7	27.49	20.02	16.69	13.21	10.88	9.415	7.462	6.370	5.421	5.076	4.245	3.794	3.629	3.395	3.089	2.784	2.470	2.290	2.399	1.935	2.036	1.683	1.621	1.587	1.386	1.422	1.281	1.107	1.064	1.024	0.947	0.955	0.961	0.846	0.858	0.873	0.903	0.986	1.281	1.462	1.369	1.846	4.261	11.18	24.21	49.10	71.37	98.17	80.23	17.71	8.879	1.383	0.649	0.599	0.554	0.635	0.499	0.493	0.549	0.521	0.532	0.490	0.463	0.524	0.451	0.460	0.494	0.528
255.0	76.20	89.76	199.8	447.0	900.3	2613	9999.9	9999.9	9835	178.5	34.57	24.16	18.58	13.87	11.75	8.955	7.420	6.056	5.867	4.806	4.277	4.059	3.424	3.256	3.034	2.919	2.440	2.465	2.228	2.167	1.799	1.859	1.701	1.482	1.423	1.306	1.143	1.227	1.168	1.038	1.083	0.907	0.868	0.938	0.843	0.872	0.870	0.934	0.995	1.292	1.796	2.326	3.265	5.964	11.57	17.31	36.46	86.56	157.3	160.9	27.58	11.71	1.097	0.708	0.775	0.631	0.580	0.549	0.629	0.524	0.621	0.561	0.471	0.541	0.485	0.551	0.521
260.0	82.52	72.47	104.9	295.7	445.4	671.9	3199	9999.9	9999.9	1907	131.0	34.44	24.56	18.61	13.19	10.31	8.615	7.167	6.300	5.301	4.764	4.068	3.608	3.685	3.281	2.884	2.768	2.631	2.530	2.419	2.024	1.848	1.789	1.627	1.395	1.319	1.219	1.241	1.259	1.260	1.094	1.063	1.052	0.945	0.807	0.895	0.826	0.839	0.865	0.871	1.298	2.115	2.584	2.702	3.328	4.495	8.904	23.31	68.39	155.7	206.3	163.4	23.93	6.560	1.036	0.678	0.625	0.655	0.637	0.506	0.625	0.611	0.572	0.521	0.606	0.533	0.607
265.0	80.45	70.09	69.67	150.3	381.5	350.3	797.4	4383	9999.9	9999.9	1575	89.10	33.53	23.27	16.99	12.76	9.973	8.245	6.752	6.172	5.092	4.441	3.994	3.837	3.464	3.156	2.884	2.698	2.632	2.273	2.208	2.054	1.783	1.693	1.649	1.353	1.374	1.287	1.171	1.186	1.156	1.108	1.157	1.097	0.944	0.924	0.861	0.801	0.840	0.759	0.875	1.247	1.996	2.597	2.369	1.880	2.721	6.041	16.49	44.92	112.9	222.2	236.1	147.0	17.99	2.666	0.991	0.786	0.695	0.655	0.658	0.736	0.708	0.604	0.567	0.635	0.673
270.0	112.6	99.22	77.41	78.64	195.4	370.5	417.1	1084	4584	9999.9	9999.9	6342	111.3	39.55	24.86	17.53	13.10	10.43	8.547	7.274	6.062	5.064	4.690	4.340	3.724	3.415	3.101	2.908	3.020	2.501	2.421	2.316	1.982	1.939	1.741	1.477	1.454	1.507	1.274	1.190	1.259	1.160	1.064	1.266	1.107	1.030	1.032	1.010	0.815	0.824	0.722	0.919	1.157	1.679	2.198	2.476	2.557	2.601	4.585	10.90	26.82	62.23	117.5	192.0	217.2	180.8	107.5	12.85	3.398	1.033	0.886	0.846	0.781	0.772	0.700	0.703	0.731
275.0	193.6	189.8	134.0	91.08	101.3	186.9	468.7	507.8	1126	2663	9999.9	9999.9	9186	133.0	40.29	26.44	19.46	13.48	10.64	8.839	7.139	6.401	5.610	5.042	4.219	4.193	3.419	3.352	3.118	2.878	2.844	2.470	2.263	2.210	1.954	1.899	1.709	1.829	1.559	1.549	1.313	1.295	1.317	1.326	1.245	1.354	1.201	1.234	1.143	0.888	0.846	0.941	0.929	1.104	1.226	1.442	2.811	3.772	3.513	3.675	6.910	14.85	27.29	44.45	61.84	134.5	298.7	256.5	174.0	19.23	2.709	1.210	1.050	0.914	0.936	0.944	0.811
280.0	301.3	292.4	226.5	141.3	101.0	117.6	308.9	584.4	467.1	745.5	3158	9999.9	9999.9	6703	102.7	38.89	24.72	17.58	13.26	10.91	8.625	7.178	6.359	5.543	5.079	4.694	3.940	3.738	3.451	2.969	2.983	2.970	2.464	2.288	2.247	2.175	1.942	2.063	1.600	1.744	1.415	1.564	1.581	1.581	1.557	1.690	1.473	1.533	1.368	1.090	1.006	0.961	1.009	1.011	1.062	1.209	1.731	2.607	3.948	4.270	3.457	4.755	7.227	11.20	15.21	33.31	95.78	210.1	375.4	251.2	31.37	14.24	1.747	1.167	1.091	0.944	0.936
285.0	453.7	427.0	342.0	209.0	130.5	118.2	184.9	478.1	611.8	380.4	934.1	4110	9999.9	9999.9	951.2	76.28	32.79	23.22	17.22	13.19	10.69	7.806	6.978	5.995	5.402	5.058	4.391	3.908	3.613	3.482	3.161	2.993	2.541	2.600	2.479	2.436	2.356	2.248	1.991	1.926	1.727	1.701	1.608	1.856	1.818	1.860	1.942	1.935	1.758	1.442	1.231	1.200	1.238	1.238	1.126	1.202	1.380	1.681	2.442	3.870	4.715	3.824	3.299	4.093	5.099	9.242	23.14	52.75	137.9	275.9	390.1	230.9	25.85	8.370	1.453	1.164	1.137
290.0	638.8	635.1	524.1	330.1	209.7	169.2	188.7	301.0	599.3	717.3	627.4	1289	4352	9999.9	9999.9	9999.9	265.4	36.33	23.93	17.33	13.61	9.847	8.274	7.030	6.068	5.545	4.678	4.314	3.783	3.760	3.384	3.224	2.939	2.824	2.816	2.949	2.703	2.662	2.345	2.217	2.124	1.909	1.998	2.311	2.345	2.399	2.362	2.510	2.189	1.982	1.563	1.540	1.431	1.396	1.396	1.412	1.496	1.621	1.866	2.325	3.208	4.347	4.884	4.477	3.971	4.446	7.457	14.12	33.29	68.74	136.1	214.2	283.4	282.3	142.7	18.47	8.288
295.0	781.2	823.7	701.3	451.7	306.5	235.8	247.7	302.7	438.0	791.1	1049	848.6	1416	2704	9999.9	9999.9	5725	87.00	38.69	25.44	17.41	12.80	10.50	8.634	6.860	6.609	5.649	4.748	4.256	4.104	3.634	3.382	3.161	3.053	3.126	3.215	2.988	2.967	2.712	2.455	2.375	2.274	2.350	2.440	2.544	2.946	2.884	2.974	2.837	2.408	1.947	2.039	1.887	1.647	1.782	1.735	1.773	2.020	2.035	2.322	2.538	3.170	3.678	5.537	6.383	5.893	5.033	6.361	10.33	17.96	32.91	50.05	68.73	111.4	249.9	416.8	260.0
300.0	863.4	968.2	806.5	550.3	364.9	298.2	310.8	359.5	456.1	677.1	1197	1089	885.1	994.7	2945	9999.9	9999.9	4417	72.00	34.70	22.99	16.44	12.64	9.624	8.606	7.278	6.237	5.390	5.041	4.662	4.159	3.656	3.175	3.337	3.346	3.544	3.559	3.373	2.949	2.823	2.675	2.606	2.432	2.732	2.747	3.250	3.100	3.421	3.163	2.641	2.220	2.275	2.267	2.038	2.046	1.923	2.038	2.319	2.428	2.564	2.859	3.047	3.681	4.550	6.018	7.658	7.114	5.671	5.987	7.278	10.28	13.81	17.51	27.40	67.21	183.2	359.4
305.0	944.3	1029	873.5	617.6	412.5	353.6	365.2	429.5	527.4	692.0	1034	1415	979.3	699.8	965.2	3641	9999.9	9999.9	608.1	58.41	30.31	20.97	15.16	11.60	9.574	8.159	6.953	6.300	5.453	4.822	4.638	4.213	3.390	3.540	3.429	3.676	3.547	3.388	3.263	2.782	2.761	2.850	2.688	2.838	2.942	3.515	3.224	3.595	3.339	2.915	2.557	2.650	2.421	2.176	2.224	2.221	2.359	2.549	2.754	3.019	3.186	3.308	4.000	4.375	4.863	6.228	7.882	8.199	6.536	5.516	5.776	5.971	6.321	8.643	17.05	43.71	104.5
310.0	978.8	1095	927.4	663.1	465.4	406.7	421.1	497.5	592.8	751.7	960.4	1253	1333	862.2	603.3	1043	3932	9999.9	9999.9	9999.9	58.43	30.60	20.99	15.43	11.62	9.420	8.120	6.879	6.034	5.178	5.080	4.314	3.727	3.814	3.619	3.581	3.597	3.572	3.377	2.941	2.979	2.956	2.834	2.987	3.038	3.607	3.411	3.768	3.635	3.164	2.810	2.838	2.647	2.440	2.426	2.616	2.678	2.991	3.148	3.239	3.458	3.803	4.328	4.612	4.825	5.463	6.310	6.985	7.949	7.522	6.690	5.227	4.449	4.886	6.256	11.78	25.24
315.0	1031	1162	1007	717.7	518.7	470.7	497.7	569.0	675.3	823.9	1001	1156	1255	1226	707.4	530.7	1072	2520	9999.9	9999.9	4095	65.41	31.02	21.26	15.36	11.90	9.428	8.185	6.787	5.950	5.467	4.782	4.333	4.037	3.966	3.829	3.535	3.698	3.330	3.235	3.009	3.014	3.028	3.049	3.621	3.950	3.743	4.288	3.979	3.355	2.809	3.073	2.951	2.787	2.648	2.737	3.037	3.189	3.331	3.584	3.864	4.214	4.613	5.010	5.290	5.778	6.157	6.309	6.627	6.898	7.916	7.589	6.105	4.782	4.110	5.023	7.971
320.0	1170	1285	1143	799.8	578.2	530.0	565.0	639.9	744.3	915.0	1082	1206	1215	1264	1001	525.8	497.5	750.9	2796	9999.9	9999.9	3371	56.04	28.97	19.91	13.90	10.58	9.456	7.616	6.936	5.699	5.244	4.477	3.968	4.090	3.690	3.703	3.885	3.448	3.582	3.150	3.080	3.011	3.563	3.718	4.275	4.311	4.536	4.241	3.693	3.090	3.215	3.057	3.176	2.953	3.056	3.337	3.471	3.870	3.930	4.248	4.545	5.037	5.246	5.836	6.222	6.461	6.563	6.596	6.286	6.598	7.576	7.662	6.583	4.738	4.219	4.363
325.0	1314	1516	1357	930.0	658.4	593.5	628.3	706.9	831.9	1008	1184	1301	1278	1188	1155	722.2	438.9	406.3	798.6	3624	9999.9	9999.9	468.1	47.19	25.37	17.76	12.89	10.13	8.589	7.643	6.194	5.722	4.874	4.300	4.124	3.794	3.945	3.686	3.519	3.363	3.374	3.208	3.298	3.722	4.081	4.778	4.722	4.966	5.061	4.275	3.461	3.558	3.308	3.234	3.419	3.206	3.438	3.727	4.291	4.138	4.418	4.773	5.347	6.038	6.141	6.799	6.638	6.720	6.732	6.977	7.029	7.124	7.356	7.923	7.015	5.097	4.339
330.0	1425	1708	1558	1139	812.7	718.6	732.9	823.9	963.0	1139	1301	1402	1375	1233	1099	947.6	643.9	419.3	408.8	980.3	3979	9999.9	9999.9	9441	47.33	26.08	17.68	13.51	10.20	9.112	7.414	6.022	5.257	4.634	4.325	3.880	3.948	3.760	3.645	3.493	3.276	3.353	3.578	3.851	4.349	4.923	5.267	5.655	5.565	4.858	4.303	4.283	4.002	3.562	3.669	3.699	4.012	4.280	4.748	4.807	5.086	5.259	6.042	6.562	6.619	7.031	7.260	7.473	7.529	7.335	7.558	7.178	7.091	6.907	7.167	6.658	6.420
335.0	1519	1870	1770	1333	971.9	861.9	865.2	962.1	1113	1284	1436	1516	1494	1343	1154	958.7	904.2	610.7	407.3	437.6	1033	2487	9999.9	9999.9	3366	53.70	25.63	18.48	13.28	10.73	8.431	7.114	6.009	4.890	4.808	4.361	4.329	3.840	3.687	3.833	3.548	3.495	3.883	4.184	4.780	5.554	5.793	5.888	6.157	5.393	4.867	4.966	4.831	4.237	4.382	4.313	4.686	4.769	4.911	5.382	5.636	6.215	6.611	7.309	7.204	7.673	7.529	8.293	8.232	7.988	8.100	7.461	7.400	7.039	7.006	6.301	6.466
340.0	1500	1866	1868	1432	1105	975.1	979.0	1053	1208	1373	1518	1578	1535	1408	1215	990.9	912.5	807.9	497.3	363.0	409.6	680.7	2862	9999.9	9999.9	2793	45.75	23.16	16.37	12.29	9.929	8.279	6.467	5.574	5.121	4.665	4.253	3.856	3.975	3.800	3.555	3.828	3.875	4.278	4.429	5.437	5.702	6.508	6.571	5.852	5.168	5.430	5.137	4.834	4.904	4.724	5.124	5.509	5.557	5.668	6.078	6.719	7.055	7.655	7.607	7.935	8.353	8.459	8.512	8.196	8.003	7.778	7.642	7.676	6.996	6.465	6.386
345.0	1484	1860	1882	1525	1200	1067	1054	1129	1274	1423	1557	1596	1548	1415	1250	1027	893.0	864.8	655.2	402.5	308.7	304.8	759.5	3857	9999.9	9999.9	401.8	36.72	20.65	15.25	11.45	9.205	7.388	5.716	5.115	4.722	4.378	4.080	3.795	3.585	3.552	3.696	3.920	4.216	4.581	5.077	5.417	6.601	6.483	5.806	5.311	5.567	5.328	5.190	5.025	4.969	5.609	5.536	6.164	6.195	6.755	6.903	7.088	7.844	8.160	8.173	8.203	8.627	8.293	8.169	7.686	7.986	7.899	7.594	7.333	6.903	6.680
350.0	1446	1777	1831	1560	1304	1185	1170	1227	1327	1462	1573	1595	1530	1416	1269	1084	928.6	835.8	770.4	571.5	369.3	282.9	332.8	989.3	4280	9999.9	9999.9	7515	40.83	20.62	14.87	11.01	8.253	6.402	5.659	5.040	4.629	4.389	4.089	4.034	3.662	3.651	3.817	4.245	4.414	5.278	5.336	6.281	6.333	5.834	5.281	5.985	5.697	5.477	5.455	5.536	6.029	6.029	6.495	6.499	6.824	7.410	7.294	8.004	8.151	8.136	8.091	8.104	8.184	8.173	8.137	7.883	8.024	7.908	7.541	7.133	7.143
355.0	1422	1741	1793	1611	1413	1300	1274	1326	1410	1498	1577	1587	1505	1407	1274	1138	993.9	871.8	769.4	724.2	532.3	354.3	296.5	385.0	1072	2507	9999.9	9999.9	3030	45.67	20.45	14.13	10.11	7.712	6.155	5.378	4.855	4.480	4.216	3.863	3.970	3.694	3.967	4.142	4.489	5.089	5.374	5.839	6.173	5.857	5.230	5.964	6.182	5.859	5.895	5.664	6.186	6.408	6.496	6.794	7.217	7.698	7.864	8.550	7.911	8.220	8.265	8.198	8.155	7.744	7.941	8.079	8.254	7.803	7.124	7.233	7.404
360.0	1344	1676	1750	1639	1472	1370	1351	1390	1472	1530	1581	1582	1485	1392	1296	1160	1037	920.5	800.1	731.2	664.1	454.0	331.6	286.4	383.0	665.0	2962	9999.9	9999.9	2445	38.55	17.41	12.07	9.411	7.103	5.895	5.013	4.564	4.258	4.007	3.882	3.754	3.739	4.055	4.381	4.949	5.162	5.927	6.007	5.755	5.347	5.867	6.240	6.070	6.256	6.131	6.145	6.814	6.592	7.240	7.539	7.614	7.799	8.038	7.914	8.107	8.138	8.076	7.885	7.812	7.906	7.732	8.358	8.127	7.762	7.610	7.616
365.0	1332	1618	1715	1626	1521	1422	1400	1424	1506	1550	1572	1540	1457	1375	1277	1166	1062	957.5	840.0	739.3	707.1	580.7	400.0	303.5	259.3	274.7	757.6	4053	9999.9	9999.9	362.4	28.78	15.41	11.33	8.162	6.504	5.575	4.854	4.534	4.445	3.771	3.948	3.904	3.908	4.378	4.782	5.069	5.251	5.810	5.413	5.317	6.184	6.317	6.319	6.340	6.306	6.817	6.732	7.100	7.449	7.553	7.986	7.998	8.060	8.155	8.243	8.102	7.945	7.958	7.954	7.867	7.609	8.012	7.765	7.802	7.604	7.811
370.0	1258	1558	1651	1603	1542	1466	1438	1457	1506	1539	1541	1497	1418	1339	1249	1164	1079	995.5	893.3	793.5	708.5	667.7	542.9	378.1	283.3	230.0	289.4	1002	4412	9999.9	9999.9	6277	32.44	15.69	10.48	8.071	6.690	5.655	4.847	4.477	4.239	4.137	3.893	4.021	4.381	4.732	4.859	5.198	5.739	5.288	5.259	6.177	6.387	6.538	6.579	6.452	6.730	7.015	7.009	7.190	7.499	7.783	7.674	8.103	7.918	8.103	7.932	7.760	7.377	7.601	7.573	7.547	7.770	7.784	7.679	7.429	7.691
375.0	1224	1474	1598	1581	1557	1506	1467	1442	1493	1507	1516	1446	1379	1299	1224	1144	1088	1020	933.0	841.3	753.8	676.6	643.2	510.0	349.2	265.5	221.7	338.4	1068	2553	9999.9	9999.9	2552	36.74	15.32	10.52	8.174	6.188	5.595	4.663	4.466	4.129	4.018	4.118	4.313	4.684	4.631	5.591	5.459	5.132	5.091	6.120	6.119	6.406	6.525	6.574	7.109	6.874	7.254	7.001	7.617	7.742	7.680	8.014	7.875	7.714	7.695	7.320	7.445	7.682	7.588	7.295	7.640	7.638	7.345	7.636	7.941
380.0	1230	1433	1541	1568	1563	1502	1465	1446	1475	1483	1473	1430	1344	1265	1196	1129	1079	1021	956.9	869.5	780.8	702.6	649.5	596.7	429.7	309.0	240.8	216.2	339.4	646.7	3060	9999.9	9999.9	1977	28.27	12.82	9.705	7.240	6.073	4.927	4.801	4.217	4.329	4.348	4.366	4.547	4.748	5.316	5.402	5.145	5.197	6.180	6.409	6.413	6.614	6.693	7.087	7.171	7.161	7.132	7.377	7.685	7.579	7.617	7.821	7.602	7.736	7.244	7.166	7.024	7.138	7.191	7.542	7.418	7.191	7.394	7.770
385.0	1209	1397	1503	1547	1535	1483	1450	1439	1442	1452	1437	1396	1301	1240	1163	1100	1067	1011	963.3	886.7	807.4	728.9	655.3	613.8	516.0	368.3	275.3	215.6	200.2	235.5	758.6	4013	9999.9	9999.9	293.3	20.41	12.26	8.723	7.003	5.286	5.276	4.725	4.276	4.105	4.421	4.655	4.526	5.171	5.380	4.989	4.809	6.334	6.343	6.399	6.758	6.822	6.888	6.928	7.096	7.075	7.246	7.587	7.218	7.586	7.635	7.515	7.284	7.097	7.017	7.068	7.152	6.930	7.240	7.230	7.239	7.403	7.805
390.0	1167	1354	1463	1526	1512	1483	1440	1400	1399	1394	1379	1332	1256	1189	1122	1069	1036	996.5	950.3	898.3	826.8	762.3	686.7	617.0	568.5	477.6	345.9	260.3	206.6	175.3	258.5	969.2	4018	9999.9	9999.9	4572	26.06	11.95	8.466	6.593	5.509	5.159	4.640	4.452	4.435	4.617	4.747	5.175	5.182	4.978	4.795	5.952	6.264	6.243	6.717	6.781	6.830	6.876	7.118	6.859	7.155	7.219	7.231	7.444	7.212	6.970	6.834	6.709	6.642	6.773	6.829	6.743	6.900	6.976	6.976	7.148	7.377
395.0	1104	1339	1414	1487	1481	1445	1398	1356	1351	1342	1310	1281	1211	1147	1083	1032	994.2	973.3	932.1	895.9	834.9	783.3	716.3	644.2	576.6	535.5	448.7	323.4	248.2	197.4	174.6	300.0	955.9	2477	9999.9	9999.9	2107	30.53	12.24	8.110	6.693	6.068	5.229	4.794	4.905	4.545	4.859	5.310	5.068	5.015	4.702	5.744	6.297	6.266	6.333	6.523	6.732	6.671	6.744	6.919	7.220	6.920	6.824	7.109	6.856	6.776	6.615	6.411	6.533	6.643	6.602	6.392	6.800	6.702	6.982	6.906	7.097
400.0	1172	1314	1381	1450	1446	1413	1376	1342	1322	1303	1275	1246	1180	1118	1055	1005	967.4	948.6	923.7	883.9	832.4	788.2	727.3	660.9	592.6	542.7	506.0	386.2	288.7	228.1	178.0	166.5	284.5	606.5	2818	9999.9	9999.9	1687	24.19	10.86	7.810	6.469	5.504	5.150	4.797	4.794	4.884	4.971	5.227	4.988	4.734	5.828	6.281	6.259	6.392	6.513	6.859	6.848	7.008	7.130	6.754	6.891	6.813	7.017	6.834	6.490	6.537	6.194	6.730	6.199	6.345	6.272	6.333	6.791	6.608	6.709	7.359
405.0	1114	1259	1366	1415	1417	1386	1351	1320	1305	1262	1250	1204	1147	1091	1028	985.8	945.5	919.6	902.6	868.8	828.3	790.4	738.0	678.2	607.8	546.6	515.4	452.5	335.8	257.1	199.5	153.7	148.9	196.6	679.1	3418	9999.9	9999.9	263.5	16.71	9.177	7.622	6.208	5.476	5.126	4.871	4.885	5.286	5.361	4.970	4.754	5.676	6.120	6.160	6.391	6.189	7.011	6.527	6.731	6.940	6.767	6.942	6.804	6.669	6.670	6.104	6.282	6.070	6.270	6.097	6.074	6.340	6.296	6.170	6.644	6.594	6.962
410.0	1032	1209	1309	1345	1355	1351	1330	1293	1262	1226	1208	1167	1107	1048	984.6	931.9	899.2	881.7	860.0	835.6	806.8	776.3	736.4	683.3	619.6	562.1	511.9	476.2	410.7	310.4	232.6	177.1	139.2	121.1	208.0	810.0	3393	9999.9	9999.9	3725	22.47	9.474	7.224	6.239	5.242	5.114	4.852	5.087	5.186	4.816	4.769	5.465	6.057	6.072	6.138	5.965	6.670	6.388	6.541	6.784	6.322	6.539	6.666	6.502	6.515	6.117	6.320	5.894	5.997	6.039	5.949	6.199	6.094	6.082	6.018	6.372	6.346
415.0	978.0	1131	1252	1292	1305	1318	1284	1255	1218	1187	1159	1114	1058	1004	935.2	874.6	843.4	828.2	815.8	803.2	778.2	753.4	718.8	676.6	624.4	573.6	521.8	466.5	441.2	378.0	271.1	206.5	155.7	118.5	114.6	231.4	793.7	2391	8154	9999.9	1918	27.05	9.567	6.948	6.237	5.352	4.966	5.290	5.153	4.649	4.575	5.317	5.931	5.873	5.893	5.905	6.275	6.367	6.306	6.581	6.321	6.366	6.559	6.254	6.171	6.183	5.796	5.736	5.557	5.517	5.538	5.738	5.905	5.693	5.663	5.949	6.053
420.0	950.5	1115	1206	1244	1268	1279	1258	1217	1190	1155	1125	1081	1008	956.1	888.3	826.1	799.8	786.6	776.6	762.4	743.6	722.7	699.2	660.9	622.9	573.6	519.8	469.5	433.4	402.1	311.8	225.0	170.0	127.9	101.1	108.1	218.1	564.3	2156	9961	9999.9	1576	21.45	8.387	6.959	6.174	5.043	5.339	5.050	4.644	4.468	5.379	5.825	5.864	5.869	5.507	6.046	6.324	6.191	6.466	6.136	6.003	6.014	6.280	5.871	6.064	5.775	5.250	5.597	5.716	5.391	5.429	5.645	5.650	5.460	5.893	5.894
425.0	908.4	1070	1160	1211	1245	1233	1216	1189	1168	1132	1087	1053	980.0	914.0	855.0	798.2	761.0	747.2	738.4	728.6	710.5	695.4	674.9	643.5	609.0	564.9	517.8	472.7	426.9	397.1	347.8	249.8	185.3	140.8	105.5	87.30	94.52	159.6	510.0	2895	9999.9	9999.9	254.4	14.99	7.714	6.439	5.791	5.503	4.935	4.652	4.382	5.431	5.814	5.526	5.731	5.700	6.124	6.224	5.825	6.033	6.341	6.127	6.127	6.155	5.825	5.552	5.681	5.475	5.285	5.459	5.232	5.242	5.556	5.520	5.430	5.341	5.546
430.0	1211	1009	1123	1156	1180	1179	1168	1156	1128	1091	1053	1012	939.1	875.4	804.1	751.0	714.5	697.3	696.3	684.5	670.6	658.1	641.8	622.3	588.8	553.7	513.7	472.2	425.5	384.4	348.9	291.5	213.4	157.4	119.7	94.13	77.36	76.57	144.9	671.5	2852	8735	9999.9	3318	21.41	8.611	6.472	6.080	5.299	4.675	4.412	5.414	5.484	5.224	5.721	5.548	5.972	6.095	6.067	5.844	5.867	5.858	5.936	5.806	5.699	5.583	5.473	5.070	5.392	5.116	5.179	5.129	5.154	5.248	5.004	5.251	5.046
435.0	2309	1043	1050	1104	1125	1127	1121	1112	1093	1058	1042	977.0	911.3	830.5	761.3	708.6	672.8	652.3	645.7	641.1	630.4	618.7	607.4	590.6	568.3	535.2	503.6	468.4	427.6	384.7	337.1	301.9	251.7	180.6	135.6	106.1	82.88	66.29	69.16	177.4	657.2	2016	5848	9999.9	1888	26.98	8.523	6.716	5.722	5.127	4.437	4.982	5.565	5.156	5.517	5.212	5.752	5.871	6.020	5.743	5.549	5.723	5.753	5.944	5.162	5.461	5.320	4.985	4.882	4.913	5.034	4.674	4.837	5.121	4.598	4.917	4.870
440.0	3706	1378	997.1	1058	1070	1105	1096	1089	1063	1043	1012	956.4	878.6	797.2	731.2	670.2	635.5	618.1	610.9	604.8	596.8	588.7	581.9	560.5	545.7	520.9	489.4	462.3	423.4	385.8	337.4	294.8	265.9	204.1	147.3	114.6	88.54	68.73	56.67	70.04	170.7	469.4	1478	7541	9999.9	1627	20.73	8.304	6.517	5.345	4.862	5.189	5.594	5.208	4.983	5.127	5.589	5.665	5.753	5.703	5.532	5.468	5.286	5.512	5.406	5.247	5.077	4.791	4.912	4.996	4.901	4.744	4.513	4.871	4.478	4.725	4.779
445.0	4084	2603	992.5	1008	1023	1050	1056	1057	1040	1008	978.4	930.1	846.5	766.1	694.1	632.0	600.4	583.1	575.6	568.8	568.0	556.1	552.0	539.5	520.6	501.4	473.7	448.3	417.2	382.2	332.7	290.2	257.2	220.4	163.2	121.3	95.82	73.19	57.27	50.20	65.50	125.6	348.9	2064	9202	9999.9	224.5	17.77	7.561	5.893	5.026	5.204	5.302	5.101	5.368	5.104	5.823	5.570	5.494	5.366	5.529	5.396	5.554	5.171	5.598	4.972	4.924	5.097	4.803	4.712	4.703	4.731	4.762	4.697	4.185	4.537	4.627
450.0	2713	5028	1676	948.0	960.6	983.9	994.1	985.2	979.2	956.7	933.1	876.6	788.2	717.4	646.9	586.8	553.6	534.9	529.5	520.3	518.4	508.7	507.6	494.5	480.8	467.1	442.4	420.8	395.7	368.0	325.5	280.9	240.5	213.1	182.1	136.0	102.7	79.20	62.12	50.34	45.19	52.00	97.58	477.3	2432	7180	9562	3452	19.62	7.413	5.547	5.740	5.708	5.102	5.269	4.985	5.344	5.329	5.539	5.410	5.348	5.287	5.505	5.145	5.044	4.961	4.944	4.791	4.621	4.510	4.457	4.440	4.332	4.405	4.098	4.148	4.555
455.0	1196	5356	4531	996.2	878.4	889.9	914.1	917.4	914.4	891.5	869.7	810.9	729.1	650.3	591.8	534.1	500.7	485.0	478.3	469.1	467.8	455.6	455.7	449.0	438.8	423.2	403.7	389.5	368.2	344.4	310.0	273.7	232.2	197.8	177.6	154.3	112.1	83.39	67.52	54.62	43.28	39.06	43.14	123.6	556.3	1637	4315	9999.9	1648	23.03	6.992	6.257	6.016	5.415	4.978	5.043	4.930	5.140	5.298	5.015	5.213	4.769	5.087	5.052	4.996	4.854	4.679	4.436	4.499	4.175	4.165	3.973	4.106	4.134	3.852	3.844	3.920
460.0	699.6	3460	7082	1681	822.2	825.0	861.9	859.6	864.9	828.1	811.2	764.2	681.8	612.8	546.4	491.4	461.0	443.5	437.6	429.8	424.1	416.5	416.2	411.9	404.4	391.9	376.6	362.4	349.5	324.9	297.8	259.9	225.9	189.8	164.5	154.0	123.4	88.71	70.55	57.29	45.30	37.47	32.28	45.90	139.6	378.3	1033	5376	9739	1370	18.99	7.367	5.961	5.558	5.093	4.761	5.074	4.960	5.358	4.933	5.033	4.728	4.730	4.998	4.505	4.243	4.310	4.217	4.260	4.106	3.903	3.800	3.884	3.717	3.762	3.692	3.647
465.0	577.4	1628	7605	3903	802.8	779.0	801.9	800.9	811.2	780.7	760.9	708.8	637.7	570.9	509.1	456.8	426.5	409.4	397.1	396.6	386.6	382.6	382.0	376.1	373.2	361.4	349.0	338.2	323.6	307.3	283.1	249.2	216.1	182.9	155.9	141.2	127.7	95.21	73.84	58.77	46.58	37.64	30.99	29.81	47.13	98.46	243.6	1349	6490	8628	1132	18.42	7.051	5.849	5.497	4.812	4.907	4.916	5.003	4.828	4.844	4.633	4.671	4.640	4.273	4.169	3.990	4.056	4.107	3.686	3.582	3.636	3.654	3.454	3.283	3.470	3.262
470.0	531.3	811.7	4312	7342	1870	709.7	718.9	724.1	726.4	712.3	682.5	642.0	573.8	514.0	456.7	408.4	377.5	362.9	353.2	348.3	342.5	337.4	337.1	333.2	327.6	320.3	311.1	302.0	292.6	277.9	256.9	228.2	199.6	170.2	145.5	127.5	116.5	102.4	78.62	60.49	48.30	39.66	32.95	27.57	28.13	36.67	67.05	312.9	1618	4757	6620	2991	93.91	7.535	5.710	5.091	5.021	4.904	4.817	4.396	4.490	4.581	4.198	4.164	4.102	3.867	3.850	3.665	3.704	3.467	3.470	3.502	3.393	3.390	3.176	3.260	3.027
475.0	526.5	598.9	1514	7169	4820	794.7	632.9	643.6	653.8	638.3	612.0	574.3	518.9	455.7	402.4	362.6	335.0	318.1	311.3	301.1	298.8	296.7	294.2	288.6	287.3	278.9	271.1	263.1	260.5	247.0	229.1	208.2	183.8	156.1	136.1	115.9	103.6	94.98	84.70	63.15	48.79	40.15	32.92	28.01	24.75	23.47	27.70	80.78	369.6	1073	2275	6340	1725	27.58	7.108	5.326	4.872	4.586	4.438	4.110	4.217	3.970	3.800	3.969	3.749	3.546	3.645	3.452	3.436	3.258	3.047	3.199	2.945	2.894	2.962	2.685	2.679
480.0	504.0	517.6	717.1	4210	8824	1734	578.2	601.7	607.7	591.9	566.4	526.4	481.4	421.3	370.6	329.4	301.7	287.9	283.4	276.3	270.1	268.4	266.8	262.9	257.1	253.3	247.2	242.8	235.8	228.2	210.6	193.4	169.9	149.1	128.1	110.0	97.09	85.76	82.36	68.97	50.33	40.39	33.94	27.81	24.02	21.59	19.64	29.22	92.17	247.6	527.5	2620	6538	1626	23.99	6.045	5.161	4.707	4.206	4.165	4.067	3.738	3.876	3.821	3.484	3.306	3.219	3.004	3.196	3.061	2.791	2.904	2.931	2.728	2.537	2.643	2.528
485.0	433.9	499.4	526.6	1768	9230	3791	596.3	554.3	559.8	557.1	530.6	491.1	448.0	389.8	343.8	303.2	280.0	270.7	263.3	254.2	248.4	247.1	244.3	242.9	238.0	232.8	228.8	224.5	218.0	212.3	198.3	178.9	158.6	140.2	122.8	105.8	92.91	80.91	74.67	70.33	54.66	41.36	34.85	28.28	24.45	21.14	18.20	18.53	30.62	63.64	125.6	627.0	3607	6438	1365	19.09	5.717	4.826	4.346	4.229	3.832	3.553	3.721	3.896	3.274	3.174	3.360	3.167	2.937	2.729	2.777	2.793	2.617	2.513	2.467	2.402	2.542
490.0	349.8	476.8	474.6	760.4	5010	8860	1815	512.7	510.7	506.3	488.6	447.2	406.3	357.6	312.9	279.2	256.0	242.7	234.9	225.2	221.2	218.8	216.5	216.4	210.7	206.4	202.4	200.6	197.6	192.7	182.6	162.9	147.2	130.5	113.5	100.2	87.97	76.51	68.40	63.96	58.55	45.16	35.28	29.29	25.46	21.50	18.39	16.83	17.50	23.19	35.77	147.5	862.5	2907	5185	2839	114.0	7.751	4.797	4.290	3.978	3.576	3.692	3.324	3.128	3.110	3.003	2.839	2.773	2.570	2.734	2.494	2.315	2.234	2.237	2.228	2.313
495.0	302.8	411.3	461.2	478.4	1584	8438	6454	638.4	453.5	452.1	434.2	406.6	366.0	325.3	283.1	246.7	228.3	212.0	206.9	198.4	198.8	192.8	192.2	188.8	187.2	182.8	179.0	177.5	173.1	171.9	162.6	149.6	134.7	119.9	104.5	93.62	81.48	70.94	63.64	56.03	54.78	49.25	37.70	30.30	25.54	22.14	19.05	16.43	15.32	14.20	16.00	40.38	198.7	654.9	1686	5339	4336	31.77	6.603	4.626	4.005	3.632	3.507	3.140	3.154	2.872	2.788	2.858	2.474	2.611	2.294	2.471	2.068	2.192	2.152	2.109	2.172
500.0	263.2	339.6	437.4	390.6	649.8	4769	9999.9	1604	423.1	407.2	395.6	370.9	334.5	292.1	251.5	224.1	205.3	195.7	186.8	179.9	178.4	173.3	173.4	171.2	168.0	166.7	161.4	159.8	159.1	154.6	147.2	137.3	123.5	110.3	96.50	86.81	75.53	67.64	60.11	52.35	48.32	48.12	41.20	31.49	25.41	22.03	19.36	16.60	14.45	13.14	11.51	16.35	50.54	152.5	388.1	2030	6330	1840	28.39	5.728	4.011	3.510	3.277	3.057	2.902	2.731	2.741	2.596	2.053	2.344	2.147	2.340	2.033	1.937	2.042	1.952	2.051
505.0	244.7	286.2	386.4	381.6	403.4	1872	9999.9	4594	439.7	379.3	369.0	339.2	307.6	266.9	232.8	205.7	190.4	179.6	169.2	165.5	160.3	157.6	155.8	151.1	151.5	147.7	145.8	145.5	145.0	141.1	135.8	125.3	113.1	100.9	89.82	79.50	70.78	63.82	55.84	49.40	43.64	42.65	40.92	32.15	25.11	21.81	19.00	16.68	14.30	12.63	10.73	10.61	17.54	40.20	93.03	477.2	2919	5854	1542	21.83	4.584	3.716	3.154	3.060	2.973	2.675	2.420	2.294	2.380	2.053	1.970	1.934	1.820	1.858	1.844	1.913	1.826
510.0	224.4	248.5	320.4	364.5	327.9	682.8	5702	9999.9	1429	345.8	323.9	303.3	270.9	235.2	206.3	179.8	164.2	155.7	149.3	145.3	139.8	138.8	136.6	132.2	132.0	129.4	128.4	125.7	125.4	122.8	119.2	110.0	100.9	89.71	80.58	72.47	64.16	57.95	51.49	44.83	39.69	37.18	36.24	33.79	27.02	21.52	18.59	16.10	13.79	12.27	10.78	9.563	10.44	15.02	26.65	112.3	687.4	2470	4278	2623	111.3	5.902	3.481	2.928	2.737	2.603	2.326	2.206	2.103	2.081	2.031	1.866	1.772	1.782	1.698	1.689	1.706
515.0	202.2	214.8	265.1	343.0	308.2	362.7	1660	9999.9	6679	452.9	283.0	265.8	236.6	204.6	178.9	158.2	143.6	134.9	130.3	124.0	120.8	118.0	115.2	115.1	112.7	112.4	109.1	109.3	107.7	106.8	100.9	95.50	86.62	78.51	70.65	63.70	57.75	50.99	46.20	41.58	36.54	32.24	30.24	30.49	29.04	22.44	18.24	15.65	13.59	12.15	11.11	9.530	9.135	9.000	11.41	30.45	158.7	556.5	1289	4033	1922	31.54	4.900	3.160	2.767	2.738	2.141	2.099	1.810	1.943	2.080	1.770	1.657	1.707	1.506	1.552	1.670
520.0	192.9	197.0	222.7	291.8	312.3	278.6	577.2	5563	9999.9	1341	260.4	237.4	212.6	189.9	158.4	141.5	130.6	121.0	115.3	110.1	108.3	104.5	102.2	103.0	99.88	98.26	98.25	96.50	96.33	94.07	90.55	84.94	76.97	71.01	63.96	57.82	52.67	47.03	42.17	38.32	34.01	29.61	27.14	26.66	28.65	24.24	18.40	14.90	13.64	11.67	10.36	9.151	9.100	7.799	8.285	12.33	40.52	129.4	295.9	1495	4182	1725	26.51	4.159	2.895	2.353	2.220	2.054	1.927	1.974	1.797	1.710	1.604	1.521	1.472	1.417	1.562
525.0	161.9	180.1	197.2	239.8	299.9	241.3	308.5	1982	9999.9	4647	259.9	225.1	195.2	171.6	143.5	130.5	118.1	111.4	104.5	100.5	96.79	94.98	93.68	94.03	89.88	87.91	88.78	86.74	87.39	85.37	82.64	76.83	68.67	63.98	57.47	52.89	48.78	42.72	38.83	34.95	31.78	28.75	26.06	23.54	24.76	24.17	19.48	14.62	12.74	11.16	10.00	8.805	8.791	7.726	7.412	8.070	14.04	33.91	70.93	350.0	1938	4103	1344	19.13	3.430	2.595	2.320	1.946	1.983	1.741	1.551	1.742	1.471	1.469	1.344	1.323	1.411
530.0	149.5	158.4	180.6	188.1	257.0	243.0	224.9	627.5	6091	9999.9	1118	202.9	172.2	149.3	128.4	113.7	101.9	96.20	90.73	87.59	83.70	82.28	81.08	79.50	77.74	75.91	76.77	74.37	75.14	74.06	71.24	67.15	60.34	55.48	51.14	46.19	42.70	38.21	34.67	31.69	27.98	25.74	23.49	21.19	20.74	21.58	19.81	15.31	12.17	10.63	9.548	8.539	7.968	7.573	7.153	6.780	7.991	12.34	20.19	82.44	455.9	1693	2968	1537	104.0	4.134	2.401	1.957	1.819	1.712	1.523	1.607	1.416	1.347	1.282	1.293	1.261
535.0	136.7	136.5	149.4	153.6	197.1	250.8	194.9	278.7	1668	9999.9	6945	225.3	151.5	128.9	111.6	97.30	86.53	83.42	80.28	76.41	72.45	70.07	69.15	68.14	66.68	64.12	64.14	62.71	63.21	62.72	61.15	57.22	52.58	48.46	43.75	40.11	36.62	33.25	30.58	28.17	25.05	22.69	20.54	18.95	17.63	16.96	18.02	16.41	12.64	9.967	9.070	7.971	7.539	7.004	6.768	6.527	6.456	7.073	8.467	22.42	105.1	381.1	875.9	2678	1826	30.84	3.459	2.236	1.865	1.632	1.561	1.488	1.290	1.233	1.177	1.250	1.161
540.0	124.5	121.6	132.9	133.8	158.4	223.2	184.7	187.4	513.4	5465	9999.9	936.0	136.7	116.5	101.4	85.19	78.15	73.10	70.30	67.78	63.95	62.27	60.73	58.94	58.36	55.86	55.48	55.43	54.70	55.30	52.97	49.56	46.43	42.55	38.85	35.28	32.44	30.00	27.40	24.97	22.54	20.54	18.52	17.01	15.67	14.59	15.23	15.33	13.06	9.820	8.776	7.557	6.631	6.498	6.250	6.678	5.899	5.891	5.892	8.728	26.88	88.24	200.7	986.1	2929	1474	24.90	2.457	2.050	1.787	1.481	1.351	1.234	1.318	1.178	1.313	1.154
545.0	122.2	115.5	123.9	120.1	131.6	180.4	190.9	154.5	231.0	1822	9999.9	3873	139.8	105.7	90.97	77.88	71.41	65.45	61.73	59.82	56.31	55.38	53.37	52.05	51.33	49.03	49.87	48.66	48.21	48.54	46.70	43.11	41.26	38.01	34.90	31.74	29.06	26.01	24.75	22.16	20.64	18.15	17.02	15.52	14.35	13.58	12.56	13.68	13.06	9.935	8.062	6.938	6.486	6.027	5.829	6.311	5.614	5.390	5.120	5.396	9.221	22.59	48.01	230.1	1304	2816	970.2	17.13	2.476	1.932	1.442	1.530	1.206	1.237	1.119	1.170	1.088
550.0	105.9	115.6	109.7	107.3	109.2	131.1	181.7	144.1	147.0	525.8	5726	9999.9	654.6	95.16	78.48	66.89	60.47	55.25	52.54	49.66	46.86	45.45	44.25	43.67	42.36	41.62	41.02	40.74	39.97	40.66	38.66	36.57	33.68	31.77	29.23	26.70	24.11	22.38	20.45	19.24	17.56	16.23	14.83	13.51	12.22	11.47	10.70	10.55	11.22	10.31	8.066	6.565	5.884	5.459	5.316	5.349	5.382	5.344	4.677	4.348	5.055	7.775	13.21	53.84	305.1	1119	1826	1021	94.98	2.988	1.570	1.512	1.243	1.190	1.076	0.961	0.962
555.0	100.5	101.1	100.2	92.39	92.53	98.74	142.5	150.4	118.5	203.8	1499	9999.9	5269	124.1	65.85	56.21	50.57	45.69	43.76	40.55	38.15	36.65	36.40	35.71	35.30	34.32	33.08	33.17	32.27	32.80	31.72	29.38	27.15	25.63	23.78	21.94	20.09	18.94	16.85	15.72	14.24	13.51	12.61	11.65	10.58	9.819	8.859	8.666	8.491	8.975	8.111	6.391	5.463	5.005	4.877	4.718	4.766	4.840	4.566	3.802	3.508	4.014	5.199	14.06	69.91	251.3	537.8	1670	1379	30.16	2.199	1.400	1.191	1.129	1.085	0.934	0.840
560.0	109.4	95.09	91.84	82.38	82.28	83.01	111.2	161.2	109.6	123.2	421.0	5225	9999.9	516.8	60.74	50.27	43.56	38.90	36.51	34.92	32.53	31.99	31.46	30.47	29.83	28.86	27.69	27.79	28.33	27.45	26.75	25.12	23.31	21.33	20.14	18.53	17.57	16.44	14.54	13.75	12.37	11.75	10.92	9.942	9.195	8.589	7.713	7.283	6.742	7.332	7.574	6.509	4.990	4.506	4.238	4.214	4.143	4.220	4.027	3.745	3.046	3.028	3.111	5.195	17.39	57.88	123.2	606.5	1823	945.7	22.90	1.736	1.365	1.090	0.915	0.899	0.838
565.0	102.8	96.22	87.53	77.52	70.02	71.69	80.40	150.0	112.7	96.17	165.7	1668	9999.9	2510	61.83	44.63	38.55	34.38	32.74	30.28	28.24	27.44	26.16	26.27	25.59	24.21	23.81	23.61	23.89	24.17	23.58	21.61	20.47	18.51	17.72	16.13	15.44	14.03	12.32	11.87	10.86	10.50	9.516	8.580	8.125	7.640	6.821	6.268	6.211	5.834	6.482	6.476	4.693	4.115	3.858	3.613	3.918	3.543	3.350	3.924	2.986	2.695	2.665	2.972	5.609	14.61	29.40	141.4	772.5	1668	260.6	13.88	1.454	1.236	0.971	1.003	0.880
570.0	107.4	102.2	88.30	71.28	61.41	62.50	67.37	109.5	128.7	86.15	101.1	455.3	5656	8493	408.3	40.30	33.95	29.36	27.05	25.23	23.59	22.33	21.56	22.35	20.75	20.22	19.48	19.27	19.12	18.91	19.04	17.56	16.70	15.31	14.03	12.96	12.40	11.15	10.25	9.950	9.120	8.715	7.953	7.159	6.893	6.428	5.946	5.413	5.015	4.670	5.015	5.211	4.778	4.075	3.320	3.228	3.308	3.057	3.048	3.196	3.094	2.587	2.303	2.259	2.762	4.809	8.103	33.23	180.4	657.0	1058	635.9	19.25	1.911	1.140	0.909	0.835
575.0	89.11	100.4	86.25	69.25	57.39	53.86	55.15	72.34	126.6	96.25	81.56	163.0	1467	9210	3454	52.16	29.04	24.67	22.51	21.75	19.78	18.80	18.23	17.62	16.42	16.09	16.02	15.66	16.17	15.35	15.08	14.43	13.47	12.30	11.64	10.49	9.898	9.158	8.636	7.900	7.737	6.945	6.604	5.795	5.669	5.411	4.909	4.628	4.234	3.785	3.757	3.755	4.204	3.837	3.187	2.862	3.091	2.556	2.631	2.464	2.646	2.440	2.320	1.970	1.991	2.494	3.121	8.682	41.60	147.9	309.7	971.6	793.8	27.30	1.428	0.977	0.763
580.0	103.7	94.25	82.43	60.77	50.70	51.66	53.42	57.82	108.2	115.1	76.72	97.09	387.4	4874	7721	113.6	28.46	22.46	19.87	18.93	16.85	16.07	16.11	15.15	14.81	13.72	13.95	12.97	14.15	12.95	12.86	12.73	11.66	10.34	9.946	9.169	8.767	8.141	7.265	7.100	6.358	6.181	5.596	5.253	5.034	4.474	4.411	4.014	3.740	3.363	3.324	3.150	3.618	3.700	3.075	2.583	2.633	2.517	2.489	2.137	2.253	2.379	2.338	2.002	1.610	1.811	1.981	3.342	10.59	34.35	70.97	348.6	1055	272.4	19.15	1.171	1.008
585.0	104.9	102.3	87.23	60.28	49.01	47.83	51.30	51.20	86.39	123.8	79.56	78.49	140.4	1564	9447	799.0	29.07	20.87	18.34	16.93	15.68	13.74	13.79	12.80	13.12	12.49	12.13	11.39	11.97	10.71	11.56	10.79	9.910	8.828	8.465	8.021	7.663	6.853	6.744	5.952	5.468	5.345	4.958	4.634	4.297	4.182	3.948	3.569	3.427	2.913	2.891	2.706	2.768	3.471	3.081	2.653	2.331	2.271	2.213	2.118	1.817	2.225	2.215	1.915	1.799	1.600	1.651	2.028	3.704	9.050	17.10	81.28	446.3	919.0	241.6	10.79	1.182
590.0	96.46	95.64	85.55	63.26	50.41	43.93	45.81	46.50	64.66	112.5	94.70	72.85	81.02	410.0	4925	5395	210.0	19.45	16.64	14.58	13.34	12.08	11.58	11.29	10.78	10.27	9.820	9.594	9.744	9.324	9.156	8.878	8.143	7.376	6.923	6.687	6.108	5.888	5.531	5.108	4.725	4.424	4.082	4.080	3.653	3.504	3.272	3.155	2.827	2.689	2.493	2.274	2.339	2.697	2.881	2.607	2.253	2.086	1.951	1.842	1.717	1.756	1.744	1.877	1.768	1.606	1.599	1.601	2.041	3.055	4.908	19.36	103.9	361.6	637.4	412.5	18.77
595.0	88.61	89.72	79.17	59.25	50.02	39.87	40.12	42.95	51.24	79.54	117.0	77.32	70.44	132.3	1254	6625	1826	25.30	14.84	13.28	11.83	10.21	10.01	9.698	8.944	8.666	8.309	8.195	8.429	7.835	7.516	7.263	6.402	6.001	6.023	5.219	5.061	4.628	4.611	4.346	3.869	3.467	3.608	3.290	3.127	3.051	2.767	2.666	2.327	2.091	2.068	1.976	1.882	2.002	2.252	2.548	2.214	1.910	1.748	1.672	1.710	1.487	1.471	1.555	1.693	1.587	1.383	1.329	1.568	1.582	2.166	5.137	24.07	81.68	178.6	551.1	491.7
600.0	81.77	89.39	79.17	55.41	47.32	36.16	40.25	44.60	47.33	64.91	114.8	86.00	61.96	67.57	314.1	3840	4689	72.51	14.25	12.24	10.85	9.047	8.728	8.285	7.966	7.586	7.170	7.225	6.881	6.822	6.452	5.780	5.901	5.350	5.227	4.726	4.383	3.822	3.962	3.721	3.562	3.085	3.047	2.768	3.007	2.660	2.370	2.385	2.265	1.938	1.735	1.676	1.607	1.687	1.881	2.290	2.151	1.804	1.536	1.477	1.726	1.390	1.321	1.411	1.532	1.675	1.502	1.330	1.183	1.243	1.478	1.932	6.275	19.08	41.15	188.6	606.8
605.0	82.09	90.17	76.85	55.45	44.10	38.41	35.93	41.50	46.10	59.18	98.82	93.95	60.68	51.44	97.16	1281	6242	518.7	15.21	11.41	9.533	8.406	7.697	7.038	6.968	6.564	6.397	6.397	5.602	5.876	5.629	5.243	5.031	4.822	4.330	4.142	3.909	3.533	3.507	3.316	2.997	2.779	2.616	2.776	2.510	2.461	2.199	2.241	1.891	1.857	1.586	1.593	1.552	1.591	1.610	1.927	2.034	1.659	1.541	1.410	1.412	1.212	1.243	1.428	1.430	1.397	1.569	1.150	1.199	1.148	1.046	1.322	2.148	5.019	10.03	43.83	243.2
610.0	88.07	83.20	69.66	50.99	41.34	37.10	34.42	39.68	46.13	55.14	77.47	105.3	66.65	49.14	48.65	323.4	3648	3415	53.38	10.52	8.553	7.657	6.826	6.470	6.054	5.494	5.606	5.245	5.090	5.010	5.038	4.795	4.402	4.027	3.803	3.591	3.359	3.162	2.793	2.725	2.574	2.564	2.299	2.319	2.090	2.034	1.964	1.849	1.782	1.580	1.448	1.378	1.362	1.359	1.424	1.487	1.699	1.763	1.556	1.343	1.226	1.149	1.144	1.180	1.229	1.205	1.394	1.425	1.198	1.114	1.028	1.111	1.148	1.798	3.006	10.47	56.45
615.0	81.32	78.23	63.55	53.94	35.76	34.38	35.73	38.45	43.49	51.06	65.21	94.47	82.40	47.68	36.56	90.61	953.7	4739	586.1	12.77	8.141	7.065	6.556	5.952	5.388	4.765	4.954	4.463	4.513	4.251	3.943	4.232	3.803	3.228	3.295	2.975	2.889	2.835	2.506	2.184	2.150	2.018	2.074	1.928	1.870	1.658	1.660	1.713	1.446	1.401	1.191	1.283	1.120	1.222	1.181	1.208	1.215	1.504	1.284	1.244	1.156	1.069	1.160	1.068	1.069	1.244	1.104	1.196	1.202	1.110	0.971	0.935	1.083	1.122	1.357	2.945	13.27
620.0	81.23	77.71	59.30	52.86	34.90	31.21	33.76	37.87	40.81	50.39	59.35	80.85	90.35	48.55	33.27	38.40	235.5	3047	2904	42.08	7.852	6.876	6.164	5.226	4.796	4.426	4.292	4.201	3.808	3.973	3.547	3.472	3.122	2.967	2.758	2.622	2.625	2.571	2.247	1.979	1.945	1.760	1.801	1.638	1.664	1.480	1.523	1.432	1.384	1.197	1.082	1.083	1.013	1.206	1.090	1.068	1.148	1.165	1.250	1.265	1.135	0.981	0.993	1.019	1.043	1.041	0.978	1.166	1.193	1.208	1.001	0.868	1.004	0.972	0.980	1.301	3.559
625.0	74.27	71.65	62.42	47.18	36.84	31.51	32.83	34.16	39.60	49.08	55.04	68.49	89.80	51.09	33.39	25.37	66.15	1098	4441	307.6	8.179	6.444	5.811	4.680	4.635	4.100	3.639	3.918	3.437	3.316	3.329	3.309	2.790	2.723	2.421	2.466	2.327	2.299	2.003	2.061	1.847	1.682	1.699	1.598	1.622	1.419	1.355	1.266	1.179	1.060	0.981	1.007	0.985	0.989	0.931	1.049	1.111	1.058	1.121	1.222	1.155	1.080	0.908	0.946	0.853	0.945	0.880	1.088	1.068	1.289	0.924	0.927	0.847	0.928	0.839	0.875	1.479
630.0	76.26	68.78	56.17	43.69	35.15	28.96	30.85	33.38	38.09	46.57	51.44	61.26	75.58	61.46	34.04	22.55	27.19	274.4	2904	2236	34.33	6.965	5.701	4.616	4.413	3.815	3.411	3.491	3.070	3.097	2.881	2.825	2.626	2.339	2.178	2.241	1.936	1.931	1.797	1.777	1.649	1.476	1.528	1.305	1.353	1.262	1.221	1.219	1.105	0.952	0.921	0.906	0.826	0.872	0.845	0.836	0.903	0.939	0.909	1.048	1.038	0.993	0.941	0.952	0.844	0.929	0.906	0.911	1.018	1.180	0.977	0.969	0.859	0.932	0.890	0.842	0.944
635.0	67.67	73.24	53.00	39.38	31.34	30.72	29.18	33.97	37.25	44.95	50.73	56.46	62.22	68.82	37.71	21.46	18.28	71.96	790.6	3594	432.7	8.039	5.536	4.588	4.268	3.498	3.152	3.106	2.840	2.657	2.664	2.659	2.276	2.205	1.981	1.814	2.007	1.598	1.543	1.468	1.411	1.290	1.269	1.119	1.238	1.206	1.074	1.041	0.989	0.858	0.887	0.881	0.768	0.881	0.871	0.827	0.810	0.963	0.912	0.872	0.974	0.947	1.001	0.812	0.886	0.873	0.933	0.912	0.865	1.023	0.963	1.052	1.004	0.919	0.930	0.888	0.830
640.0	72.96	68.16	58.29	38.64	31.74	29.73	31.51	34.57	39.73	43.88	50.71	57.27	54.79	63.61	45.68	23.37	17.65	26.98	193.9	2567	1882	22.95	6.012	4.595	4.044	3.397	3.164	2.846	2.590	2.638	2.461	2.350	2.128	1.827	1.904	1.853	1.862	1.493	1.366	1.392	1.274	1.218	1.281	1.115	1.176	1.096	0.963	1.051	0.981	0.840	0.736	0.753	0.760	0.729	0.765	0.770	0.768	0.852	0.784	0.779	0.869	0.860	0.938	0.842	0.808	0.826	0.984	0.846	0.805	0.981	0.960	1.003	1.035	0.886	0.898	0.793	0.957
645.0	72.07	80.59	61.57	40.42	31.67	28.61	30.37	33.54	36.65	44.14	51.34	55.95	52.92	57.33	52.47	25.91	17.86	17.24	52.63	1013	3160	66.55	6.479	4.412	3.764	3.167	2.795	2.722	2.606	2.589	2.276	2.121	2.112	1.800	1.813	1.729	1.726	1.573	1.391	1.327	1.249	1.329	1.139	1.144	1.134	0.980	0.990	1.098	0.859	0.747	0.734	0.765	0.754	0.672	0.714	0.679	0.719	0.819	0.741	0.697	0.832	0.851	0.853	0.851	0.834	0.882	0.809	0.899	0.824	0.959	0.872	0.920	1.051	0.949	0.874	0.843	0.877
650.0	79.76	80.59	56.17	43.69	34.57	28.95	31.77	33.40	36.50	43.35	49.66	58.29	53.97	51.09	55.50	28.29	18.34	15.78	20.99	271.2	2980	501.9	9.366	4.638	3.880	2.953	2.799	2.693	2.316	2.542	2.227	2.139	2.103	1.690	1.786	1.697	1.561	1.621	1.362	1.214	1.090	1.191	1.259	1.020	1.036	1.020	0.916	0.919	0.859	0.782	0.687	0.752	0.719	0.682	0.659	0.738	0.709	0.740	0.652	0.714	0.774	0.798	0.775	0.861	0.816	0.884	0.812	0.918	0.834	0.926	0.843	0.779	0.968	0.906	0.799	0.864	0.743
