Sample:	'1
File name:	t2025041603高家铺村南.FD3
Run date:	'15:49:33, 04/17/2025
Operator:	Administrator
Comment:	'

Instrument
Model:	F-2700 FL Spectrophotometer
Serial number:	23B8-004
ROM Version:	4J14000 07

Instrument parameters
Measurement type:	3-D scan
Data mode:	Fluorescence
EX  Start WL:	220.0 nm
EX  End WL:	600.0 nm
EX Sampling interval:	5.0 nm
EM  Start WL:	230.0 nm
EM  End WL:	650.0 nm
EM Sampling interval:	5.0 nm
Scan speed:	12000 nm/min
EX Slit:	5.0 nm
EM Slit:	5.0 nm
PMT Voltage:	700 V
Response:	Auto 
Corrected spectra:	Off
Contour interval:	50.000

Peak integration
Integration method:	Rectangular
Sensitivity:	1
Threshold:	1.000

Peaks
No.	ApexEX/EM(nm)	Height(Data)
1	245.0/535.0	189.7
2	250.0/550.0	156.1
3	255.0/560.0	137.3
4	260.0/575.0	112.6
5	265.0/585.0	99.44
6	270.0/595.0	84.62
7	275.0/305.0	774.0
8	275.0/610.0	71.59
9	280.0/310.0	698.7
10	280.0/625.0	62.23
11	285.0/315.0	672.9
12	285.0/640.0	49.04
13	290.0/325.0	612.1
14	295.0/330.0	481.4
15	300.0/335.0	448.1
16	305.0/345.0	382.4
17	310.0/350.0	317.7
18	315.0/355.0	301.0
19	320.0/360.0	284.7
20	325.0/370.0	254.1
21	330.0/375.0	243.0
22	335.0/380.0	249.6
23	340.0/385.0	228.9
24	350.0/400.0	204.7
25	355.0/405.0	188.6
26	365.0/420.0	164.4
27	370.0/425.0	151.9
28	385.0/445.0	106.0
29	400.0/465.0	73.80
30	410.0/475.0	53.22
31	415.0/485.0	46.09
32	420.0/490.0	40.52
33	430.0/505.0	32.92

Data points
	220.0	225.0	230.0	235.0	240.0	245.0	250.0	255.0	260.0	265.0	270.0	275.0	280.0	285.0	290.0	295.0	300.0	305.0	310.0	315.0	320.0	325.0	330.0	335.0	340.0	345.0	350.0	355.0	360.0	365.0	370.0	375.0	380.0	385.0	390.0	395.0	400.0	405.0	410.0	415.0	420.0	425.0	430.0	435.0	440.0	445.0	450.0	455.0	460.0	465.0	470.0	475.0	480.0	485.0	490.0	495.0	500.0	505.0	510.0	515.0	520.0	525.0	530.0	535.0	540.0	545.0	550.0	555.0	560.0	565.0	570.0	575.0	580.0	585.0	590.0	595.0	600.0
230.0	256.3	9999.9	9999.9	9999.9	301.6	53.43	44.03	36.78	34.10	32.43	32.28	32.96	29.84	26.31	24.11	20.82	20.09	19.10	18.61	17.40	16.05	15.02	14.09	13.51	12.69	11.93	10.74	10.08	10.33	10.31	9.936	9.433	9.319	8.872	8.128	7.499	6.942	6.268	5.779	5.639	5.263	5.089	5.261	4.982	4.845	4.863	13.35	62.56	121.6	97.17	39.03	7.043	3.690	3.297	3.164	2.941	3.028	2.786	2.645	2.521	2.384	2.215	2.187	2.068	1.956	1.969	1.798	1.665	1.651	1.514	1.432	1.284	1.308	1.297	1.230	1.147	1.108
235.0	239.2	2722	9999.9	9999.9	9999.9	340.4	60.75	49.10	43.04	37.73	38.07	35.13	32.08	27.75	24.42	21.74	20.84	20.29	18.78	18.67	16.64	15.76	14.98	13.53	12.84	12.84	11.39	10.86	10.58	10.50	9.844	9.327	9.174	9.249	8.666	7.768	6.850	6.513	6.236	5.835	5.158	5.132	5.369	5.201	5.062	4.902	6.495	18.27	47.61	91.82	140.5	150.9	25.00	12.76	3.718	3.180	3.170	2.884	2.959	2.539	2.473	2.421	2.273	2.207	2.009	2.019	2.005	1.789	1.678	1.524	1.542	1.368	1.345	1.275	1.273	1.209	1.155
240.0	271.2	789.4	3903	9999.9	9999.9	3826	230.2	68.74	57.15	48.01	42.99	39.62	37.73	32.40	28.24	23.83	23.10	20.06	19.17	18.71	17.19	16.18	15.93	15.00	13.78	12.82	12.00	11.47	11.20	10.71	10.22	9.555	9.518	8.976	8.708	8.247	7.499	6.422	6.517	5.897	5.595	5.538	4.985	5.156	5.428	5.102	5.238	7.605	14.01	28.64	78.38	196.1	207.2	153.8	21.48	8.749	3.385	3.361	3.137	2.813	2.588	2.630	2.386	2.270	2.096	2.051	2.003	1.802	1.738	1.599	1.535	1.501	1.398	1.302	1.277	1.347	1.331
245.0	258.3	434.2	1051	6701	9999.9	9999.9	3006	147.8	77.02	62.04	52.06	45.80	42.27	35.79	31.69	26.88	24.85	21.92	20.79	18.91	17.52	17.20	15.90	15.51	14.57	13.39	12.55	11.81	11.49	11.25	10.59	9.620	9.592	8.662	8.504	8.561	7.819	6.949	6.831	6.070	5.955	5.870	5.192	5.244	5.198	5.082	5.108	5.389	6.614	9.620	21.40	67.80	167.7	303.6	211.8	135.7	18.36	5.055	3.322	2.922	2.807	2.743	2.399	2.420	2.282	2.137	2.135	1.879	1.736	1.673	1.596	1.558	1.510	1.420	1.378	1.389	1.252
250.0	212.7	311.4	510.2	1725	8311	9999.9	9999.9	9999.9	200.6	98.66	75.54	62.52	53.02	43.49	37.25	31.18	28.31	25.19	23.49	21.03	18.76	17.82	17.08	16.52	15.38	14.67	13.76	13.07	12.76	11.60	11.20	10.20	9.849	9.072	8.678	8.389	8.109	7.436	7.039	6.545	6.006	5.912	5.663	5.524	5.236	5.216	4.889	5.092	5.307	5.499	8.029	18.26	43.18	103.0	175.2	293.8	318.9	273.6	105.6	13.63	5.072	3.152	2.965	2.670	2.437	2.479	2.254	2.026	1.908	1.738	1.693	1.654	1.666	1.483	1.496	1.467	1.378
255.0	222.7	230.1	352.4	706.7	2054	4409	9999.9	9999.9	9999.9	235.4	128.2	91.85	73.80	57.49	45.13	35.70	32.89	28.94	26.22	22.74	21.16	19.38	18.09	17.69	16.63	15.64	14.73	14.40	13.30	12.63	12.51	10.77	10.06	9.655	9.137	8.687	8.502	8.137	7.472	6.744	6.649	6.225	5.845	5.772	5.700	5.315	4.773	4.974	4.827	4.672	5.637	7.640	12.97	26.25	42.41	73.60	146.6	378.8	631.1	569.4	31.07	18.00	4.248	3.540	3.120	2.844	2.448	2.408	2.232	2.158	1.986	1.887	1.865	1.809	1.632	1.603	1.525
260.0	250.4	226.6	246.5	464.0	773.4	1205	8661	9999.9	9999.9	9999.9	208.8	135.3	95.70	72.22	53.55	42.29	37.81	33.09	29.23	25.78	23.08	21.42	19.01	17.99	17.69	17.11	16.05	15.36	14.63	13.75	13.31	11.43	10.46	9.968	9.379	8.741	8.459	8.308	7.672	7.220	6.994	6.464	6.200	6.223	6.241	5.606	5.122	5.215	4.935	4.333	4.874	5.972	7.158	9.362	12.89	19.86	37.20	107.7	316.5	666.0	800.3	234.9	28.71	13.71	4.125	3.398	2.886	2.750	2.712	2.575	2.045	2.107	2.089	1.995	1.929	1.769	1.744
265.0	310.6	241.8	216.9	304.3	553.3	563.8	2237	9999.9	9999.9	9999.9	1708	201.7	135.1	94.20	70.84	53.27	44.27	38.87	33.01	29.16	26.06	23.88	20.81	20.44	18.80	18.06	16.83	16.43	15.26	15.04	14.82	12.73	11.71	10.79	10.07	8.944	8.753	8.251	7.913	7.956	7.397	6.689	6.798	6.411	6.203	5.836	5.527	5.236	4.936	4.400	4.407	4.896	5.821	6.621	6.949	8.095	12.09	27.91	77.71	212.8	535.4	888.5	960.5	219.4	23.69	7.606	4.064	3.478	3.178	2.788	2.383	2.500	2.245	2.104	2.144	1.719	2.022
270.0	362.3	279.9	230.9	224.7	360.0	530.6	823.2	2737	9999.9	9999.9	9999.9	9999.9	524.8	156.4	106.1	77.08	59.17	48.46	40.59	35.30	31.02	27.13	24.37	22.77	21.40	19.82	18.46	17.59	16.81	16.30	15.61	14.29	13.50	11.77	10.79	10.16	9.405	9.009	8.275	7.919	8.049	7.576	7.270	7.082	6.818	6.530	6.273	5.850	5.327	4.887	4.740	4.794	4.917	5.323	6.042	6.466	7.136	10.37	21.11	51.41	130.1	281.2	562.9	812.7	1026	728.1	132.6	17.27	8.170	4.183	3.427	3.137	2.907	2.683	2.522	2.367	2.332
275.0	428.9	335.2	258.1	222.2	249.8	358.1	663.0	926.4	2548	8277	9999.9	9999.9	9889	567.0	172.4	112.0	85.16	66.39	52.80	44.40	37.46	32.42	28.92	26.20	24.46	22.42	20.51	19.65	17.93	18.06	17.01	15.40	14.77	13.78	12.46	11.12	10.25	9.853	8.731	8.535	8.626	8.381	7.951	7.515	7.705	7.009	6.758	6.350	5.508	5.126	5.236	4.912	5.164	5.017	5.096	5.610	6.944	8.099	9.628	15.24	33.10	66.70	130.2	192.7	348.6	785.0	1455	1489	229.6	25.06	7.560	4.651	3.906	3.551	3.320	3.146	3.229
280.0	501.5	388.3	280.8	235.0	226.3	252.9	482.5	716.6	873.9	2259	9999.9	9999.9	9999.9	7325	337.8	166.5	115.4	85.02	66.62	53.48	43.35	38.06	33.61	30.37	27.56	25.52	23.02	21.59	20.01	19.65	18.27	17.09	16.07	14.60	13.40	12.18	10.79	10.25	9.288	9.231	8.331	8.697	8.113	8.044	7.632	7.241	7.099	6.958	6.028	5.620	5.248	5.188	5.104	5.412	5.007	5.382	6.136	6.627	8.165	8.857	11.80	18.77	33.17	47.55	83.32	202.5	585.3	1339	1785	1389	33.72	19.18	5.773	5.137	4.236	3.789	3.699
285.0	541.5	412.7	304.3	250.9	220.8	231.5	316.6	618.7	653.4	815.1	2866	9999.9	9999.9	9999.9	978.9	249.7	158.7	111.0	84.01	63.12	52.51	43.55	37.14	34.00	29.66	27.43	25.30	23.27	21.88	20.65	19.51	17.97	16.63	15.92	14.39	13.44	12.15	11.20	10.03	9.780	8.733	8.497	8.959	8.396	8.249	8.177	7.235	7.080	6.576	5.998	5.526	5.735	5.358	5.215	5.364	5.501	5.666	5.818	6.525	7.986	8.340	8.989	11.69	14.82	23.03	50.19	137.9	362.8	886.9	1767	1890	262.1	29.78	13.87	5.650	5.035	4.500
290.0	576.3	469.5	345.2	275.1	219.9	223.4	241.4	367.4	624.7	658.4	979.2	3092	9999.9	9999.9	9999.9	9999.9	384.2	174.8	121.6	88.27	68.71	54.83	46.46	40.69	35.74	32.09	28.04	26.35	24.60	23.58	21.84	19.54	18.04	17.21	15.55	14.93	13.63	12.53	11.13	10.75	9.865	9.313	8.990	8.873	8.817	8.752	7.821	7.638	7.035	6.155	5.925	6.031	5.785	5.626	5.543	5.726	5.761	5.657	5.845	6.213	6.922	8.067	8.744	8.744	10.08	15.80	35.58	86.07	206.8	470.5	853.8	1155	1552	1241	809.4	21.95	13.11
295.0	636.1	511.9	379.2	280.6	235.2	229.6	227.5	257.6	368.4	679.7	726.9	1026	2646	9964	9999.9	9999.9	5629	415.3	191.8	130.9	93.62	71.04	59.20	49.88	43.17	38.48	34.16	31.03	27.15	26.59	24.07	21.45	20.13	18.82	16.48	16.50	14.42	13.91	12.27	11.70	10.74	10.12	9.764	8.817	9.168	9.106	8.525	8.328	7.438	6.670	6.187	6.346	6.303	6.176	6.001	5.814	5.900	6.072	5.908	5.847	6.010	6.331	6.964	8.451	8.836	8.966	12.69	23.88	50.72	110.0	195.1	265.9	420.6	853.7	1937	2099	280.1
300.0	703.8	547.6	402.8	306.8	251.3	228.8	226.2	233.5	276.7	465.9	796.2	642.7	932.9	2690	9999.9	9999.9	9999.9	4573	313.1	179.6	123.3	92.74	73.70	60.39	49.54	43.97	38.66	34.56	30.58	28.90	27.00	23.48	21.87	20.20	17.46	16.92	15.60	14.59	13.86	12.75	11.77	10.93	10.20	9.823	9.332	9.541	8.816	8.715	7.827	6.961	6.371	6.607	6.339	6.474	6.207	6.210	6.274	6.240	6.176	5.829	6.074	6.164	6.049	6.712	8.062	9.300	8.701	10.35	16.27	29.35	48.27	64.74	100.0	205.5	597.1	1420	2310
305.0	731.0	578.4	438.3	330.2	266.0	245.5	235.7	240.3	262.4	348.5	646.8	774.0	571.6	952.3	2881	9999.9	9999.9	9999.9	653.4	258.6	168.9	118.9	92.41	73.02	58.71	50.71	42.51	38.45	34.57	31.79	29.26	25.52	24.14	20.89	19.00	17.72	16.62	15.77	14.60	13.83	12.21	11.48	10.55	10.26	9.628	9.589	9.224	9.279	8.456	7.344	6.955	6.724	6.797	6.716	6.868	6.363	6.537	6.386	6.172	6.440	6.251	6.154	6.088	6.256	6.856	8.376	8.889	9.074	9.419	11.75	15.86	19.71	28.05	51.68	140.2	349.8	875.4
310.0	735.1	613.2	457.5	344.9	271.8	246.1	249.1	251.5	267.6	313.5	434.2	679.5	698.7	569.9	972.9	3020	9999.9	9999.9	9999.9	9999.9	341.8	183.1	128.9	96.27	75.33	61.80	52.20	45.95	40.61	36.23	33.05	29.29	26.95	23.15	21.02	19.06	17.68	17.11	15.64	14.93	13.56	12.84	11.88	11.25	10.63	10.55	9.802	9.702	8.945	8.049	7.334	7.398	7.173	7.188	7.141	6.961	7.239	6.869	6.795	6.842	6.929	6.622	6.554	6.624	6.636	7.100	7.356	8.285	9.000	9.117	9.424	9.610	11.54	16.70	36.87	83.80	202.7
315.0	774.0	649.4	494.9	359.4	288.0	259.1	253.9	268.4	272.7	308.8	361.4	457.2	634.9	672.9	518.4	954.6	2588	8775	9999.9	9999.9	9999.9	387.9	193.0	138.8	100.0	79.23	64.25	55.02	48.25	42.85	38.10	33.38	29.31	26.15	23.84	20.90	19.27	18.45	16.91	16.32	15.07	13.86	13.06	12.74	12.09	11.13	11.01	10.23	9.716	8.307	8.038	8.584	8.187	7.799	7.669	7.710	7.559	7.560	7.339	6.995	7.165	7.345	6.898	6.969	6.893	7.038	6.905	7.075	7.559	7.598	9.328	8.662	8.345	8.836	13.31	23.77	50.51
320.0	811.8	680.0	517.2	367.6	297.7	271.0	255.4	258.5	283.4	309.8	345.4	395.8	466.4	661.9	526.1	467.7	854.4	2343	9999.9	9999.9	9999.9	3746	323.0	186.9	131.5	97.58	77.47	63.89	55.74	47.84	42.57	37.20	33.00	28.47	25.95	22.72	21.11	19.74	18.20	16.62	15.67	14.76	14.17	13.79	12.76	12.26	11.32	11.19	10.05	8.795	8.598	9.045	8.434	8.178	7.928	7.860	7.994	7.876	7.853	7.612	7.309	7.411	7.313	7.229	7.033	6.884	6.863	6.901	6.892	6.977	7.559	8.304	8.831	8.211	8.184	10.38	16.47
325.0	875.5	732.8	594.0	406.9	300.7	275.2	263.3	259.1	283.8	314.3	350.9	384.9	395.0	498.5	612.1	399.9	425.6	784.7	2727	9999.9	9999.9	9999.9	2962	267.9	174.1	124.8	94.15	74.85	63.23	55.33	48.01	40.74	35.89	30.69	27.94	24.43	22.75	21.14	18.96	17.98	16.44	15.27	14.69	14.25	13.17	12.78	11.96	12.10	10.31	8.966	8.767	9.129	8.589	8.470	8.562	8.318	8.154	8.184	7.721	7.814	7.551	7.589	7.316	7.368	7.541	7.265	7.100	6.583	6.963	6.826	6.943	7.127	7.887	8.645	7.970	7.923	8.686
330.0	860.2	770.4	652.8	470.2	335.5	281.3	261.5	264.9	280.7	315.4	344.8	377.3	377.1	383.0	459.9	481.4	361.5	383.2	841.7	2789	9999.9	9999.9	9999.9	9999.9	325.5	184.0	131.3	97.67	78.19	66.05	56.27	47.21	40.67	34.59	30.72	26.52	24.01	22.34	20.66	18.43	17.44	16.39	15.41	14.62	14.05	13.57	12.71	12.20	11.03	9.445	8.900	9.284	8.701	8.924	8.562	8.216	8.512	8.265	8.274	7.863	8.121	7.640	7.669	7.517	7.534	7.394	7.160	6.951	7.287	7.074	6.769	6.804	7.001	7.457	7.891	8.162	8.220
335.0	895.3	794.5	705.9	531.6	368.2	296.8	263.8	268.2	281.8	311.1	346.7	375.7	370.0	348.2	347.2	378.6	448.1	309.5	368.9	830.6	2494	7379	9999.9	9999.9	9999.9	366.4	190.6	137.8	103.6	83.11	68.93	56.48	48.38	40.54	34.88	30.42	26.61	25.14	22.17	20.87	19.28	17.53	16.70	15.67	15.04	14.87	13.94	13.06	11.71	10.23	9.734	10.32	9.466	9.621	9.133	8.760	9.168	8.867	9.186	8.614	8.166	7.707	7.932	7.644	7.852	7.740	7.605	7.141	7.202	7.003	7.016	7.112	6.941	6.944	6.956	7.037	7.338
340.0	882.8	826.6	734.4	542.9	390.5	320.5	280.3	270.9	285.0	313.6	342.2	373.6	368.0	338.7	310.3	296.1	393.3	371.9	261.7	359.7	760.7	1938	9999.9	9999.9	9999.9	3337	313.0	179.5	130.8	100.3	80.36	63.30	53.94	44.56	38.05	32.08	28.43	26.17	23.08	21.63	19.80	18.62	17.24	16.19	15.24	14.97	14.33	13.61	12.01	10.45	9.790	10.28	9.418	9.571	9.507	8.954	9.388	8.597	9.008	8.571	8.330	8.089	8.145	7.974	7.941	7.805	7.792	7.111	7.089	7.035	7.172	7.106	6.481	6.827	6.728	6.852	6.694
345.0	831.2	804.9	716.9	549.6	396.8	327.4	287.8	276.0	280.0	301.2	329.6	356.8	351.5	329.2	298.7	263.7	289.5	382.4	285.1	240.5	342.9	635.8	2592	9999.9	9999.9	9999.9	2931	257.3	165.5	123.7	93.50	73.25	58.60	48.98	40.35	34.22	30.40	26.97	23.86	21.94	19.89	18.89	17.33	16.26	15.14	14.83	13.82	13.41	11.86	10.17	9.451	10.21	9.092	9.225	8.921	9.292	9.167	8.690	8.490	7.942	8.209	8.004	8.108	8.032	7.644	7.563	7.444	7.199	6.932	7.019	7.133	6.805	6.473	6.605	6.695	6.226	6.600
350.0	817.4	752.7	689.2	544.0	410.6	340.6	293.9	276.9	278.4	290.6	311.0	332.1	333.4	311.9	280.9	247.7	236.4	269.7	317.7	263.6	226.5	303.5	768.5	2631	9999.9	9999.9	9999.9	9999.9	314.0	172.9	125.8	92.24	70.16	55.89	45.23	37.41	33.03	28.82	25.81	22.96	20.38	18.97	17.78	16.85	15.32	14.87	13.81	13.45	12.09	10.45	9.679	10.03	9.418	8.929	8.981	8.879	8.874	8.455	8.308	8.262	7.999	7.643	7.692	7.687	7.176	7.258	7.057	7.131	6.913	6.802	6.678	6.615	6.148	6.164	6.065	5.999	6.102
355.0	760.1	732.9	647.9	531.3	417.7	341.3	297.1	283.7	281.7	292.9	304.0	315.2	312.8	295.0	271.7	240.6	220.8	212.3	235.3	301.0	239.5	208.6	317.8	759.5	2443	5074	9999.9	9999.9	9999.9	366.5	182.4	125.1	91.32	68.03	53.96	43.06	37.08	32.04	28.09	24.46	21.80	19.21	18.28	16.84	15.80	14.99	13.65	13.46	12.45	10.92	9.888	10.06	9.423	9.129	8.905	8.475	8.756	8.332	8.532	8.135	8.094	7.473	7.375	7.596	6.784	7.267	6.934	6.804	6.677	6.589	6.690	6.450	6.168	6.125	5.843	5.855	6.025
360.0	748.2	677.2	607.3	513.8	407.3	347.9	306.9	286.5	283.6	291.6	299.2	306.1	305.8	287.5	263.2	238.0	220.9	202.6	198.0	247.6	284.7	202.8	209.0	319.3	717.2	1361	8970	9999.9	9999.9	9999.9	324.0	166.0	115.6	83.28	62.63	50.18	41.16	34.82	30.23	27.09	23.20	20.75	18.84	17.32	16.18	15.93	14.39	13.92	12.66	11.05	9.939	10.08	9.414	9.256	8.721	8.732	8.425	8.475	8.546	8.250	7.888	7.639	7.330	7.383	7.126	7.194	6.561	6.662	6.698	6.142	6.692	6.258	6.005	6.110	5.897	6.074	5.723
365.0	747.7	651.3	606.7	511.4	408.5	351.4	319.2	302.5	290.3	289.9	297.1	298.4	295.4	282.9	261.0	237.5	218.4	202.5	191.7	200.2	268.7	253.4	187.5	205.8	310.3	481.7	2263	9999.9	9999.9	9999.9	3063	268.1	149.6	107.6	75.08	57.04	46.79	39.21	33.36	29.66	25.24	22.99	20.33	18.41	16.74	16.25	14.57	14.06	12.53	11.38	9.917	10.74	10.03	9.172	9.042	9.003	8.982	8.963	8.553	8.361	8.177	7.743	7.245	7.426	7.326	6.799	6.812	6.821	6.412	6.398	6.478	6.282	6.172	5.928	5.843	5.951	5.798
370.0	736.0	643.9	584.0	511.7	424.7	365.0	332.3	310.3	300.1	298.6	298.4	299.2	287.8	277.0	259.2	236.8	221.8	203.6	194.3	186.8	206.6	254.1	232.4	181.8	198.5	250.1	670.5	2509	9999.9	9999.9	9999.9	9999.9	291.5	157.3	105.6	76.31	57.65	46.40	38.56	33.53	27.81	25.24	22.37	20.17	17.72	16.89	15.30	14.67	13.04	11.37	10.44	10.65	10.23	9.725	8.896	8.844	9.152	8.780	8.478	8.345	8.078	7.862	7.614	7.461	7.223	6.946	6.866	6.446	6.401	6.275	6.203	6.219	6.053	5.950	5.869	5.784	5.794
375.0	716.2	630.2	579.2	506.0	441.6	388.8	344.2	319.0	310.2	307.1	302.7	298.2	287.4	271.6	252.6	237.4	223.1	206.6	197.7	187.0	184.5	198.7	243.0	224.2	171.2	178.4	281.8	715.8	2421	4105	9999.9	9999.9	9999.9	332.1	156.0	104.7	76.83	58.80	47.15	37.92	31.81	27.78	24.60	21.74	18.74	18.07	16.26	14.82	13.48	11.73	10.80	10.74	10.57	9.959	9.382	9.349	8.890	9.136	8.719	8.088	7.916	8.000	7.741	7.445	7.174	6.695	6.544	6.287	6.559	6.277	6.088	5.891	6.029	5.639	5.928	5.607	5.629
380.0	729.7	622.7	557.2	495.4	442.6	391.8	351.8	331.6	316.2	306.1	305.3	301.2	291.0	268.9	253.8	238.3	222.2	212.0	203.6	189.8	180.9	180.3	204.8	249.6	188.2	158.0	181.1	292.7	696.8	1126	7004	9999.9	9999.9	9999.9	283.8	137.6	94.88	72.48	53.89	44.92	35.80	30.85	26.17	22.99	20.71	19.14	17.01	15.53	14.08	12.14	11.01	11.36	11.10	10.33	9.804	9.445	9.568	9.097	8.727	8.495	8.358	8.268	8.072	7.680	7.685	6.843	6.632	6.553	6.652	6.331	6.493	6.282	6.201	5.994	5.944	5.877	5.805
385.0	698.0	619.8	545.5	496.2	438.0	401.8	362.0	338.1	316.1	311.6	307.3	304.0	294.6	272.0	251.1	233.3	223.7	211.9	203.1	195.2	184.5	176.7	179.0	223.1	228.9	163.3	152.4	183.1	291.6	411.2	1787	9999.9	9999.9	9999.9	9999.9	228.9	121.4	88.60	66.52	50.16	39.75	33.60	28.74	25.13	21.75	20.12	17.98	16.30	14.13	12.43	11.13	11.71	11.12	10.49	9.985	9.751	9.666	8.977	8.742	8.485	8.331	8.018	7.940	7.977	7.888	6.979	6.925	6.700	6.709	6.289	6.176	6.134	6.271	5.848	5.976	6.060	5.874
390.0	675.9	593.9	552.1	495.4	449.4	412.3	377.1	349.3	323.9	311.7	305.4	300.4	288.9	268.6	248.5	231.3	223.3	213.1	203.6	197.1	186.5	178.8	172.0	181.7	211.0	201.0	154.0	149.5	177.9	218.3	543.2	2439	9213	9999.9	9999.9	9999.9	942.0	128.1	88.35	65.18	49.42	39.68	33.14	27.94	24.57	22.12	19.33	17.80	15.33	12.96	11.61	12.14	11.09	10.87	10.15	9.990	10.11	9.644	9.034	9.018	8.537	8.026	8.026	7.785	7.778	7.225	7.171	6.824	6.523	6.502	6.236	6.129	6.200	6.008	6.066	5.935	5.800
395.0	678.4	592.7	543.4	482.6	451.4	412.7	382.8	357.4	331.5	314.6	306.2	296.2	281.6	268.0	245.9	229.6	220.2	208.3	203.9	197.9	188.3	181.7	173.3	169.7	173.0	200.5	192.4	145.8	143.9	156.2	237.6	673.3	2203	3351	9999.9	9999.9	9999.9	286.1	128.6	87.77	64.95	48.06	39.16	32.38	27.49	24.97	21.36	19.53	16.68	13.97	12.45	12.74	11.49	11.32	10.79	10.15	10.43	10.04	9.109	9.211	8.665	8.021	8.183	8.141	7.263	7.697	7.133	7.184	7.106	6.378	6.362	6.007	6.215	6.251	5.805	6.254	6.291
400.0	659.7	577.2	534.4	465.6	433.5	409.2	386.5	362.4	331.4	314.7	307.6	293.6	277.4	260.4	247.4	226.3	217.1	207.2	200.6	194.4	185.8	181.3	171.8	164.4	159.3	171.8	204.7	167.9	135.0	134.1	156.7	262.9	613.0	900.6	5206	9999.9	9999.9	9999.9	247.6	112.8	78.24	59.80	44.70	36.15	29.97	26.14	22.29	20.53	17.59	14.76	12.95	12.88	11.92	11.47	10.57	10.39	10.43	10.03	9.784	9.558	8.537	8.039	8.036	7.796	7.172	7.212	7.619	7.120	6.870	6.639	6.245	6.147	5.809	6.187	5.793	5.824	6.118
405.0	623.2	543.4	509.1	458.0	420.7	402.0	387.5	358.7	337.3	320.4	302.2	289.3	274.5	257.0	240.6	222.0	213.4	207.5	196.7	194.3	184.3	177.8	171.9	164.5	156.9	152.2	178.8	188.6	143.8	127.3	131.3	155.8	242.3	319.0	1321	8785	9999.9	9999.9	9999.9	202.0	97.56	70.20	53.27	40.20	33.42	28.37	23.55	21.69	18.65	15.62	13.42	13.40	12.17	11.05	10.60	10.68	10.88	9.837	9.515	9.386	8.667	8.054	8.249	7.710	7.211	7.390	7.206	6.798	6.593	6.450	6.187	5.985	5.683	6.024	5.656	5.701	6.170
410.0	575.9	524.3	488.3	447.7	417.1	396.3	379.7	352.2	339.9	321.0	304.0	285.4	266.5	249.2	231.4	215.4	207.8	202.1	194.5	189.0	182.0	174.9	169.1	161.4	154.8	146.5	150.8	172.5	172.0	136.3	119.4	120.3	140.8	164.3	397.8	2103	7631	9999.9	9999.9	9603	866.4	100.1	69.87	52.25	40.32	32.63	26.49	23.53	20.10	16.24	14.07	14.27	12.56	11.79	11.03	10.65	10.73	10.48	10.03	9.395	8.989	8.445	8.206	7.687	7.280	7.249	6.970	6.698	6.570	6.745	6.529	6.171	6.045	6.014	5.756	5.501	5.992
415.0	556.3	499.0	458.4	432.8	404.0	380.7	368.0	350.8	335.9	323.1	306.5	281.1	264.6	242.0	223.7	210.2	197.6	191.8	185.1	183.2	177.1	170.4	163.8	159.5	152.9	144.8	140.4	144.0	161.7	162.8	121.7	105.6	108.1	113.3	169.9	558.7	1807	3062	9999.9	9999.9	9999.9	260.1	100.1	69.42	51.08	40.66	30.55	26.52	21.42	17.99	15.63	15.10	13.41	12.24	12.16	11.21	11.15	10.70	9.970	9.783	9.025	8.739	8.149	8.148	7.375	7.639	6.918	6.997	6.882	6.487	6.303	6.090	5.955	5.927	5.886	5.713	5.815
420.0	518.6	471.9	448.7	418.4	400.5	375.0	354.8	337.6	336.7	315.7	304.2	279.4	257.9	235.0	214.7	202.7	190.9	187.2	178.1	173.6	169.5	165.0	159.7	156.7	149.0	142.3	135.6	133.8	140.3	164.4	138.3	103.0	96.75	94.80	109.7	201.5	490.7	796.9	4423	9999.9	9999.9	9999.9	218.8	89.35	62.01	48.69	35.70	29.29	23.63	19.18	16.71	16.12	14.13	13.37	12.36	11.91	11.64	10.52	10.34	9.832	9.408	8.828	8.623	8.484	7.484	7.575	7.085	6.940	6.899	6.603	6.505	6.218	6.018	6.066	5.604	5.789	5.675
425.0	551.7	477.0	431.5	400.0	386.4	370.1	351.5	344.8	329.0	310.7	297.9	279.8	251.9	229.7	208.3	196.6	187.2	179.7	173.3	168.0	163.2	159.9	156.5	150.6	144.1	138.7	131.8	128.7	127.3	142.5	151.9	110.7	92.03	84.66	88.62	111.2	183.0	263.0	1107	7563	9999.9	9999.9	9999.9	171.4	78.08	57.76	42.28	32.78	25.85	20.97	17.09	16.67	15.33	14.22	12.93	12.34	11.95	11.48	10.44	9.768	9.373	9.177	8.734	8.319	7.746	7.836	6.836	6.912	6.732	6.397	6.251	6.049	5.915	5.926	5.711	5.772	5.580
430.0	1069	450.2	429.2	390.6	368.8	356.2	346.9	336.2	328.1	308.4	297.2	273.3	250.3	224.0	201.8	188.6	178.2	171.1	166.8	160.3	158.2	154.0	151.7	147.8	142.8	135.7	129.7	125.1	120.5	123.0	135.2	129.8	99.48	80.21	78.17	81.74	101.4	126.5	324.2	1798	6971	9999.9	9999.9	9000	189.7	86.00	56.13	43.13	31.71	23.76	19.77	18.72	16.67	15.45	13.85	13.22	12.58	12.03	11.03	10.33	9.587	9.160	8.953	8.387	8.218	7.972	6.919	6.770	6.569	6.384	6.169	5.754	5.948	5.857	5.690	5.570	5.496
435.0	2551	553.9	401.8	391.2	362.2	354.9	339.0	332.5	324.8	312.0	293.0	270.9	248.4	220.2	199.6	179.7	167.6	166.3	158.2	152.5	150.3	147.8	145.9	144.5	138.6	132.1	126.8	124.0	119.7	114.9	112.7	120.2	117.9	86.18	73.28	70.04	74.58	83.76	133.0	469.4	1638	2899	9999.9	9999.9	9999.9	234.2	84.06	57.60	42.33	29.90	23.54	21.66	18.85	16.94	15.37	14.81	13.78	13.34	11.94	10.78	10.38	9.555	9.244	8.934	8.733	7.856	7.218	6.862	6.658	6.480	6.433	5.742	5.878	5.653	5.866	5.319	5.929
440.0	6042	1299	404.2	373.5	362.8	346.7	328.8	327.5	326.4	307.4	293.5	268.5	240.6	215.8	194.2	176.8	162.8	159.0	154.0	148.2	145.0	143.5	142.4	138.3	134.4	129.6	125.3	121.0	117.1	111.7	106.7	105.1	117.2	98.59	73.35	67.25	66.86	69.65	83.60	163.9	434.1	743.6	4482	9999.9	9999.9	9999.9	183.9	77.56	52.12	36.18	26.88	24.16	20.89	19.07	16.52	15.81	15.30	13.89	12.50	11.39	10.92	10.15	9.388	8.894	8.411	8.027	7.430	6.850	7.027	6.567	6.268	5.976	5.763	5.839	5.959	5.347	5.525
445.0	7786	4161	443.3	358.4	357.6	335.6	333.3	320.4	316.6	305.7	287.5	263.5	237.7	213.0	189.6	171.4	159.2	153.6	149.6	143.1	140.3	137.4	137.1	133.5	129.9	125.9	122.5	117.5	116.1	109.1	104.7	96.66	103.4	106.0	80.63	66.02	63.11	62.29	66.84	88.54	155.2	237.6	1109	7873	9999.9	9999.9	9999.9	151.6	66.31	43.45	33.72	28.29	23.30	20.48	18.02	16.49	15.80	14.70	13.65	12.23	11.15	10.45	9.671	8.917	8.550	8.228	7.862	7.474	7.219	6.406	6.256	5.793	5.693	5.622	5.442	5.540	5.531
450.0	5381	9999.9	2379	361.7	340.9	326.3	325.5	313.5	306.0	295.2	280.5	257.6	228.9	204.5	181.0	166.8	152.0	145.8	140.3	137.2	133.5	129.4	129.8	126.8	124.9	121.1	117.1	115.0	113.4	108.0	103.0	93.00	89.85	94.82	91.36	71.81	61.17	58.67	59.28	65.53	83.80	110.0	316.3	1865	7024	9999.9	9999.9	7911	159.5	65.38	44.36	37.16	28.88	24.46	20.44	18.43	17.34	16.16	14.80	13.61	12.00	10.99	10.51	9.792	9.162	8.494	8.305	7.576	7.595	6.881	6.597	6.419	6.163	5.915	5.727	5.725	5.974
455.0	1851	9999.9	8823	608.7	330.4	315.2	304.0	299.7	288.3	285.9	268.3	244.4	217.9	193.7	172.4	154.2	145.0	136.1	129.3	129.6	123.1	123.0	118.5	116.9	117.8	113.0	111.1	108.5	106.4	103.4	100.0	89.79	81.73	78.62	83.89	81.72	63.35	56.06	54.50	54.01	60.09	69.21	122.4	476.2	1642	3025	9999.9	9999.9	9999.9	173.1	66.01	47.09	35.23	29.24	22.99	20.65	19.37	17.08	15.49	13.81	12.47	11.28	10.55	10.13	9.390	8.981	8.089	7.754	7.376	6.951	6.733	6.390	5.720	5.763	5.696	5.610	6.120
460.0	770.2	8689	9999.9	2601	327.7	306.7	294.8	292.6	282.1	277.0	260.7	238.7	212.1	184.6	165.2	150.1	136.9	128.6	121.7	121.4	116.8	115.4	113.0	110.6	109.3	107.0	105.2	104.5	103.7	99.98	95.11	87.52	78.65	72.93	72.25	80.25	70.35	55.36	51.26	49.73	51.27	55.42	72.12	157.6	427.1	762.4	4082	9999.9	9999.9	9999.9	147.8	63.95	43.88	34.69	27.52	23.55	21.73	18.98	16.80	14.63	13.38	11.99	11.04	10.48	9.515	9.087	8.367	7.954	7.570	7.134	7.125	6.576	6.252	5.852	5.680	5.461	6.001
465.0	553.6	3870	9999.9	6472	381.6	299.2	289.2	279.8	271.4	265.4	253.1	227.5	199.2	180.4	159.9	141.8	131.2	123.0	119.4	114.5	109.3	109.7	106.9	105.7	104.7	102.6	100.3	100.3	97.96	96.20	91.54	84.94	75.71	70.17	64.32	69.86	73.80	59.12	50.32	48.07	48.46	49.96	56.63	81.91	147.7	235.4	1004	7126	9999.9	9999.9	8997	136.2	57.91	42.89	32.48	27.91	24.03	21.13	18.21	15.98	14.21	13.25	12.08	10.51	9.992	9.480	8.903	8.337	7.551	7.942	7.000	6.749	6.739	6.546	5.801	5.773	5.763
470.0	495.2	1227	9999.9	9999.9	2487	295.1	276.3	270.1	260.0	250.9	242.4	217.3	189.7	170.3	148.5	131.7	120.8	115.0	111.6	104.4	101.5	97.52	97.20	96.65	96.48	93.23	91.54	91.03	90.86	88.93	85.54	79.59	71.90	65.42	60.03	58.44	63.05	61.59	51.46	45.39	44.30	44.84	47.10	55.37	75.15	100.9	280.7	1680	6309	9999.9	9999.9	7424	155.7	62.09	42.84	34.43	28.76	23.81	20.22	17.62	15.26	13.96	12.99	11.28	10.53	9.997	9.089	8.594	8.026	7.636	7.221	6.767	6.636	6.469	5.947	5.825	5.777
475.0	454.1	538.7	3235	9999.9	9999.9	457.9	253.5	240.0	234.5	234.3	222.7	200.2	174.4	155.5	133.3	121.5	111.3	103.4	98.56	93.82	91.97	88.21	86.72	86.39	84.78	83.40	81.17	82.15	80.63	80.70	76.86	72.50	65.79	59.74	55.46	50.56	49.17	53.16	53.22	42.84	38.75	38.07	38.88	41.81	47.51	56.95	100.5	418.8	1461	2719	9999.9	9999.9	9999.9	193.3	57.39	40.44	32.52	25.93	21.37	17.68	15.89	13.77	12.33	11.32	10.38	9.646	8.638	8.135	7.640	7.057	6.835	6.412	5.878	5.955	5.707	5.376	4.908
480.0	438.9	407.3	979.3	9999.9	9999.9	2631	251.1	237.4	223.5	215.5	208.9	191.3	169.1	150.2	128.3	114.0	105.9	97.95	91.64	89.53	85.25	81.93	80.80	80.83	79.24	78.02	77.82	74.90	75.06	75.33	71.71	66.57	61.35	56.72	51.89	47.75	44.57	45.72	50.76	45.52	37.42	34.75	35.51	36.56	38.06	42.89	55.44	130.3	366.6	661.6	3375	9999.9	9999.9	9999.9	155.9	53.57	38.72	29.71	24.86	19.63	16.90	14.76	12.81	11.40	10.50	9.863	9.000	7.940	7.701	7.112	6.768	6.512	5.554	5.717	5.466	5.335	4.821
485.0	443.0	380.0	457.3	5169	9999.9	9999.9	299.0	228.6	222.4	214.5	200.7	183.2	160.9	143.6	122.7	108.5	99.53	94.24	87.96	83.63	80.72	77.88	78.01	76.45	74.48	73.95	72.44	71.37	71.93	70.39	68.28	64.87	58.65	53.57	49.76	45.18	42.36	40.89	44.37	46.09	38.36	33.67	33.76	33.52	33.82	36.23	39.40	61.25	116.1	187.2	810.6	5526	9999.9	9999.9	9600	118.2	50.38	34.99	28.33	22.98	19.00	15.81	14.14	12.24	11.04	9.974	9.330	8.328	7.607	7.014	6.993	6.772	5.930	5.999	5.299	5.340	5.246
490.0	376.4	373.9	330.3	1486	9999.9	9999.9	2096	233.3	213.6	207.8	193.5	174.4	155.9	135.4	117.4	102.8	94.73	86.82	82.63	77.70	75.26	73.02	72.31	70.30	69.19	69.03	66.46	66.73	66.30	64.79	63.48	59.77	54.99	50.44	46.59	42.77	39.69	37.44	37.16	40.21	40.52	33.95	31.40	30.88	31.16	32.23	33.29	39.17	53.31	71.20	215.4	1292	5711	9999.9	9999.9	7729	161.4	55.03	36.50	28.13	22.58	18.50	15.59	13.65	12.04	10.72	10.08	8.894	8.161	7.697	7.293	6.911	6.470	6.101	5.561	5.477	5.415
495.0	354.8	327.9	310.5	522.9	3779	9999.9	9999.9	335.1	209.7	199.3	182.1	169.5	149.6	128.4	110.0	97.72	87.18	81.63	75.69	72.16	69.17	68.83	65.04	64.56	62.81	63.52	60.16	60.48	61.07	61.30	58.24	54.63	51.59	47.13	43.13	40.42	37.65	35.53	33.36	33.06	37.25	36.15	30.53	29.25	28.93	29.16	29.46	31.00	35.12	39.42	73.80	320.4	1316	2611	9999.9	9999.9	9999.9	209.2	54.96	36.33	26.96	21.69	17.60	15.24	12.82	12.19	10.43	9.487	8.632	8.124	7.318	6.731	6.501	5.892	5.811	5.285	5.569
500.0	313.4	286.0	315.0	304.8	1079	9999.9	9999.9	1937	210.8	190.6	172.1	157.9	138.0	121.9	103.0	90.37	82.48	75.88	71.66	66.90	65.58	63.56	60.17	61.58	58.45	58.01	56.63	55.77	57.96	57.10	55.21	50.52	47.46	44.33	41.23	37.87	35.99	33.45	31.47	30.03	32.03	35.39	32.23	27.37	27.28	27.04	27.25	27.75	27.96	28.55	38.70	98.73	326.3	631.7	3437	9999.9	9999.9	9999.9	171.9	47.82	32.44	25.27	19.84	16.59	13.72	12.15	10.95	9.256	8.887	8.128	7.449	6.972	6.150	5.714	5.699	5.330	5.208
505.0	306.0	267.4	299.9	245.4	410.8	6676	9999.9	9484	221.5	182.8	167.6	150.2	131.6	115.0	98.20	84.12	77.85	71.86	67.96	61.87	61.22	58.71	57.15	56.59	55.11	53.36	52.00	51.85	53.34	52.65	51.30	47.80	44.02	41.57	38.41	36.49	33.19	32.46	29.73	28.55	27.76	32.38	32.92	27.99	25.12	25.71	25.58	25.47	24.51	24.74	28.05	46.02	99.57	175.7	822.1	4968	9999.9	9999.9	9999.9	125.9	41.34	29.11	22.98	18.27	15.01	12.35	11.30	9.891	9.020	8.191	7.605	6.907	6.034	5.713	5.893	5.316	5.221
510.0	266.7	236.5	249.8	249.8	246.6	1862	9999.9	9999.9	1264	183.4	163.3	142.2	121.5	106.6	93.30	79.54	71.58	65.14	61.21	57.67	56.10	52.24	52.38	50.89	49.82	48.32	47.81	47.67	48.17	48.55	46.87	44.15	40.80	37.10	35.08	33.26	31.45	29.51	28.04	26.75	25.53	26.76	29.42	29.15	25.22	23.27	23.11	22.88	22.32	21.73	23.02	28.72	43.62	64.04	214.7	1158	5206	9999.9	9999.9	8411	162.5	43.80	28.56	21.27	17.34	14.20	12.06	10.30	9.330	8.062	7.430	6.817	6.241	5.780	5.535	4.997	5.045
515.0	259.7	215.3	209.6	246.3	205.7	558.0	4320	9999.9	9999.9	247.3	162.1	136.1	116.8	98.82	86.26	73.36	65.60	60.65	55.34	53.24	50.79	47.90	47.16	45.77	44.64	43.25	43.50	42.96	43.71	43.35	42.65	39.96	37.85	34.50	32.17	29.86	28.83	27.14	25.85	24.77	23.57	23.29	24.16	27.19	26.46	22.73	21.16	20.69	19.80	18.93	19.48	22.33	27.04	34.09	70.93	284.9	1197	2449	9999.9	9999.9	9999.9	220.2	43.77	27.67	20.90	16.80	13.27	11.55	9.497	8.795	7.405	6.934	6.255	5.873	5.472	5.089	5.267
520.0	244.5	200.8	183.0	222.4	208.2	252.5	1190	9999.9	9999.9	1523	163.9	138.6	111.1	93.43	81.34	69.82	62.77	56.52	52.50	50.24	47.46	46.71	43.34	42.34	41.46	40.36	40.55	40.58	40.58	40.78	39.55	36.34	34.91	31.94	30.19	27.59	26.52	25.22	24.39	23.20	21.65	21.47	21.09	23.50	26.00	22.68	19.62	18.50	18.56	17.18	17.51	19.81	21.31	24.13	35.57	86.43	295.2	587.2	2804	9999.9	9999.9	9999.9	182.9	35.64	24.76	18.96	14.99	12.47	10.15	9.045	7.392	7.304	6.571	5.934	5.534	4.929	4.989
525.0	228.0	203.9	167.7	183.6	214.4	184.7	400.8	8294	9999.9	9623	184.5	133.6	111.7	90.03	77.32	66.57	60.54	53.91	50.01	46.83	44.33	42.49	41.43	39.74	39.34	38.02	37.42	38.36	37.49	37.62	36.38	34.51	30.89	29.75	27.78	25.76	24.63	23.57	22.44	21.39	20.42	19.62	19.64	20.10	23.14	23.43	19.40	17.34	16.80	15.53	16.45	17.55	19.27	19.91	24.71	38.91	88.90	159.3	667.8	3569	9999.9	9999.9	9999.9	136.1	31.73	22.33	16.97	13.78	11.22	9.767	7.795	7.602	6.403	6.056	5.400	5.087	5.024
530.0	212.9	185.3	156.5	144.8	191.1	176.4	209.0	2292	9999.9	9999.9	2286	140.6	110.2	89.57	73.11	64.09	55.92	49.85	46.55	42.92	40.86	39.06	37.82	36.30	36.05	34.52	34.23	34.24	34.31	33.88	33.30	31.32	29.04	26.82	25.11	23.25	22.55	21.21	20.39	18.99	18.69	18.20	17.87	17.53	18.61	20.63	19.85	17.06	15.12	13.96	14.32	15.66	16.36	17.48	19.03	23.90	37.74	55.90	173.9	832.7	3717	9999.9	9999.9	8735	820.6	31.75	22.06	16.16	13.17	10.78	8.695	7.715	6.617	6.292	5.596	5.268	4.813
535.0	222.7	178.4	136.6	124.1	155.2	189.7	153.3	633.7	4779	9999.9	9999.9	187.2	113.6	89.49	70.82	61.36	52.13	46.92	42.26	39.16	36.87	35.07	34.13	32.78	33.43	31.62	30.86	30.15	30.20	30.29	29.29	28.06	27.01	24.55	22.55	20.52	19.70	18.63	18.22	17.22	17.20	16.51	16.18	15.72	16.02	16.34	18.47	17.20	14.36	12.69	12.57	13.91	14.54	15.43	16.15	18.08	22.18	28.56	56.94	206.3	855.4	2320	9999.9	9999.9	9999.9	238.8	33.99	21.14	15.90	12.11	10.10	8.395	6.804	6.406	5.963	5.408	4.770
540.0	213.5	160.0	134.1	120.3	123.0	178.6	145.9	250.3	1298	9999.9	9999.9	1154	115.6	89.34	70.10	58.63	49.68	45.55	39.25	36.97	34.66	32.64	31.24	30.87	30.57	29.13	28.07	28.11	27.75	27.62	26.77	25.56	24.59	22.79	21.42	19.87	18.20	17.51	16.49	15.86	15.88	15.32	14.94	14.52	14.46	14.52	15.76	16.70	14.43	11.81	11.39	12.62	12.78	13.75	14.69	16.16	17.28	19.96	28.01	63.22	210.7	545.4	2408	9999.9	9999.9	9999.9	201.1	30.14	19.32	13.78	11.38	9.262	8.054	6.966	6.038	5.677	4.711
545.0	199.0	162.2	131.6	116.7	108.1	154.4	155.3	151.1	402.0	8193	9999.9	8284	130.5	88.37	69.13	55.90	48.11	41.55	37.71	35.31	31.62	31.55	30.22	28.30	28.24	26.82	26.59	26.64	26.46	25.05	24.96	23.35	22.90	21.01	18.98	18.57	17.76	16.27	15.48	14.77	14.77	13.81	13.68	13.75	13.25	13.99	13.80	14.92	14.28	12.28	10.42	11.39	11.41	12.44	13.30	14.83	15.03	16.17	19.30	28.72	63.52	141.6	565.8	2641	9999.9	9999.9	9999.9	159.5	26.25	16.80	12.88	10.06	8.760	7.186	6.317	5.658	4.930
550.0	190.8	147.4	121.6	104.9	91.83	115.7	156.1	126.6	186.7	2212	9999.9	9999.9	726.7	97.63	70.40	56.15	45.04	40.28	35.62	33.49	29.45	28.92	27.43	25.79	25.37	24.33	23.62	23.73	23.44	22.56	21.79	20.91	19.90	19.12	17.33	16.54	15.73	15.07	14.03	13.31	12.83	12.28	12.15	12.30	12.04	11.98	11.85	12.41	12.95	11.96	10.06	10.25	10.08	10.65	11.44	12.54	13.33	13.76	14.70	17.73	27.11	46.19	143.2	612.4	2706	9999.9	9999.9	9015	928.2	27.23	16.77	12.15	9.649	8.284	6.701	5.876	5.330
555.0	172.0	136.1	107.9	87.41	81.31	88.11	130.2	131.9	119.9	589.9	4248	9999.9	9686	135.5	71.78	56.63	43.62	38.34	32.78	30.92	27.45	25.94	24.89	23.52	22.66	21.64	21.05	21.20	21.28	20.05	19.34	18.02	17.85	16.56	15.61	14.60	14.58	13.56	12.61	11.83	11.48	11.43	10.82	10.91	11.08	10.84	10.64	10.34	10.81	11.07	10.06	9.525	9.061	9.341	9.842	10.64	11.25	11.88	12.51	12.97	15.78	21.33	44.56	150.6	621.1	2265	5780	9999.9	9999.9	261.2	28.04	16.02	11.16	9.048	7.214	6.395	5.606
560.0	157.3	126.3	101.4	82.80	73.26	75.10	101.4	137.3	99.23	212.4	1141	9999.9	9999.9	806.4	79.06	55.75	44.02	35.89	31.49	28.91	25.96	24.79	22.69	21.38	20.63	20.28	19.25	19.22	19.43	18.74	18.30	16.66	16.15	15.37	14.89	13.63	12.93	12.10	11.91	10.78	9.946	10.24	9.625	9.617	10.04	10.06	9.831	9.430	9.334	9.636	9.779	8.997	8.349	8.667	8.761	9.409	10.08	10.85	11.64	11.53	11.91	13.88	20.59	45.53	152.3	523.5	1351	8040	9999.9	9999.9	231.9	22.68	13.59	10.20	7.837	6.649	5.760
565.0	169.8	119.5	93.61	82.72	70.95	66.30	77.22	131.0	95.03	116.6	349.6	7527	9999.9	6216	89.95	57.33	44.45	35.04	30.55	27.14	25.26	23.34	21.12	20.14	19.36	18.42	18.26	17.90	17.53	17.15	15.99	15.68	15.20	14.26	13.38	12.70	11.86	11.28	10.88	10.46	9.691	9.386	9.181	9.087	8.927	8.725	8.947	8.353	8.240	8.437	9.071	9.085	8.112	7.933	8.265	8.497	9.435	9.679	10.07	10.48	10.39	11.01	13.19	20.17	44.88	130.2	320.7	1908	9999.9	9999.9	9999.9	185.9	18.83	12.05	8.792	6.808	6.004
570.0	148.3	108.4	87.07	68.42	62.19	61.14	62.87	98.39	109.7	89.14	150.0	2018	9999.9	9999.9	520.8	66.04	45.92	35.72	30.08	26.47	23.81	22.65	20.17	18.95	17.94	17.05	16.48	16.49	16.23	15.39	15.17	14.41	13.33	12.77	11.66	11.38	10.90	10.21	9.919	9.281	8.920	8.546	8.296	8.315	8.216	8.227	7.995	7.707	7.488	7.284	7.582	8.333	7.783	7.270	7.359	7.615	8.141	8.340	8.635	8.992	9.257	9.485	10.05	12.26	18.70	39.17	83.20	440.4	2357	7529	9999.9	9999.9	978.6	22.15	11.13	8.094	6.538
575.0	145.3	103.7	82.00	61.07	53.75	54.49	52.12	71.37	112.6	82.11	93.85	525.2	4089	9999.9	7058	93.99	48.49	37.50	31.20	26.65	22.78	21.72	19.63	18.21	16.81	15.74	15.37	15.14	15.09	14.54	14.13	13.08	12.56	11.44	10.86	10.30	10.04	9.511	9.286	8.551	8.223	7.952	7.841	7.545	7.521	7.519	7.174	7.007	6.867	6.292	6.398	6.983	7.431	7.094	6.861	6.951	7.182	7.055	7.456	7.653	8.209	8.305	8.753	9.070	11.00	16.74	27.00	108.0	536.8	1695	3353	9999.9	9999.9	1524	23.23	10.85	7.291
580.0	132.3	106.3	79.76	61.09	49.43	51.87	51.09	54.41	100.5	91.36	74.26	180.8	1098	9999.9	9999.9	515.3	54.97	39.82	31.48	25.26	22.22	20.83	19.91	17.40	16.41	14.93	15.29	14.48	13.58	13.44	13.64	12.42	11.79	11.32	10.29	9.656	9.289	8.933	9.108	8.485	8.022	7.599	7.070	7.077	6.943	7.044	6.842	6.725	6.454	5.968	6.142	6.089	6.638	6.987	6.661	6.589	6.794	6.760	6.932	6.999	7.264	7.405	8.123	8.106	8.587	10.29	13.02	32.23	128.4	389.2	771.7	4277	9999.9	9999.9	246.2	16.19	9.046
585.0	125.8	97.61	76.08	59.22	50.07	44.45	46.13	46.21	76.70	99.44	66.62	96.79	319.0	7078	9999.9	3960	63.74	41.78	31.81	26.09	22.31	20.56	18.79	17.54	15.81	14.54	14.46	13.60	13.57	12.54	12.93	12.01	11.13	10.61	9.930	9.297	8.769	8.766	8.533	7.904	7.653	7.071	6.994	6.953	6.800	6.919	6.405	6.247	6.027	5.531	5.603	5.649	5.702	6.613	6.352	6.344	6.339	6.170	6.345	6.288	6.638	6.670	7.433	7.654	7.376	7.982	8.882	13.93	36.26	95.76	183.7	992.7	5648	9999.9	9999.9	37.80	12.94
590.0	114.8	98.36	69.77	53.03	47.06	43.78	41.17	40.73	54.93	90.48	70.21	68.42	126.4	1897	9999.9	9999.9	363.7	47.02	34.30	27.03	22.48	19.69	18.44	17.15	15.42	13.98	13.55	13.18	12.75	11.99	12.10	11.28	10.34	10.08	9.569	8.670	8.240	8.094	8.088	7.074	7.154	6.762	6.725	6.515	6.480	6.295	6.069	5.913	5.654	5.215	4.942	4.993	5.240	5.738	6.249	6.140	6.099	5.923	5.733	5.486	5.898	5.854	6.191	6.772	6.814	6.684	6.873	8.443	14.07	27.68	48.34	230.5	1306	4946	9999.9	9402	967.6
595.0	102.6	85.51	61.09	45.09	43.36	40.67	37.90	37.10	41.18	65.79	84.62	57.84	71.72	477.2	3926	9999.9	4942	64.65	36.71	28.74	23.36	19.61	17.60	16.32	15.06	14.06	12.57	12.06	12.54	11.69	11.65	10.68	10.27	9.293	9.190	8.182	7.897	7.502	7.485	6.906	6.812	6.562	6.312	6.420	6.160	6.175	5.887	5.683	5.387	4.918	4.576	4.519	4.692	4.924	5.436	6.091	5.761	5.663	5.184	5.304	5.224	5.277	5.319	5.550	6.081	5.880	5.853	6.316	7.746	11.20	15.90	57.38	298.2	1111	2741	9999.9	9999.9
600.0	102.4	75.13	58.58	48.54	40.10	34.34	31.76	35.51	37.67	49.50	82.12	57.87	56.89	154.2	1041	9999.9	9999.9	292.2	40.70	31.13	23.73	20.01	17.79	15.34	14.69	13.78	12.59	12.02	12.35	11.30	10.78	9.821	9.501	9.059	8.832	8.364	7.919	7.176	6.971	6.972	6.787	6.166	6.098	5.897	5.920	5.712	5.621	5.557	5.034	4.778	4.452	4.475	4.368	4.512	4.868	5.782	5.676	5.434	4.717	5.052	4.777	4.872	4.756	4.929	5.211	5.399	5.758	5.644	5.982	6.856	8.229	17.82	72.11	254.4	623.6	3233	9999.9
605.0	101.0	75.08	53.18	41.42	36.32	33.71	30.95	30.82	34.84	41.13	74.65	63.12	51.60	77.12	283.8	6793	9999.9	2322	46.96	33.09	25.19	20.76	17.90	16.06	14.23	13.24	11.86	11.83	11.52	11.23	10.19	9.707	9.163	8.859	8.298	8.111	7.818	7.245	7.003	6.522	6.439	5.938	5.712	5.610	5.634	5.566	5.346	5.104	4.764	4.568	4.327	4.196	4.227	4.203	4.501	4.995	5.252	5.239	4.774	4.616	4.472	4.536	4.356	4.745	4.714	5.010	5.415	5.106	5.053	5.606	6.072	8.182	20.63	62.00	146.0	739.1	3993
610.0	100.7	74.48	54.72	40.82	34.91	34.14	30.77	30.18	32.83	35.75	53.81	71.59	49.05	55.59	103.8	1815	9999.9	9999.9	257.5	35.50	26.38	22.62	18.14	16.25	14.08	13.16	12.57	11.47	11.37	11.17	10.51	9.588	8.900	8.479	7.631	7.556	7.269	6.897	6.567	6.077	6.045	5.787	5.592	5.424	5.240	5.540	5.190	5.008	4.703	4.294	4.159	3.957	3.957	3.967	4.132	4.587	4.817	4.992	4.673	4.433	4.291	4.199	4.140	4.229	4.282	4.239	4.837	4.624	4.659	4.689	4.572	5.208	8.506	17.62	37.04	170.5	912.3
615.0	86.74	74.72	53.63	38.66	31.94	28.19	30.50	28.15	32.11	33.49	40.92	65.99	51.96	44.62	58.17	445.0	3960	9999.9	3577	46.40	28.24	24.02	18.82	15.82	13.67	13.34	12.45	11.41	10.86	10.56	10.39	9.317	8.761	8.038	7.500	7.186	7.321	6.583	6.498	5.945	5.778	5.533	5.354	5.192	5.050	5.084	5.156	4.724	4.542	4.141	3.856	3.973	3.743	3.909	3.736	4.050	4.448	4.393	4.630	4.329	4.251	3.812	4.000	3.889	3.708	3.982	4.197	4.077	4.226	4.091	3.867	4.009	4.938	6.892	11.71	41.82	207.4
620.0	85.14	73.73	48.95	38.94	32.55	27.27	29.55	28.45	29.74	32.37	36.71	54.54	59.86	40.55	44.05	134.2	1055	9999.9	9999.9	76.55	31.82	24.94	19.74	16.94	13.81	12.89	12.20	11.39	10.64	10.74	10.24	9.164	9.056	8.009	7.769	7.155	6.884	6.298	6.571	5.755	5.318	5.441	5.381	5.471	5.187	5.012	4.939	4.870	4.758	4.080	3.739	3.931	3.737	3.799	3.822	3.863	3.984	3.939	4.294	4.084	4.215	3.841	3.809	3.826	3.641	3.630	3.600	3.711	3.749	3.734	3.721	3.703	3.709	4.270	5.596	12.54	49.88
625.0	86.11	74.69	48.80	35.34	32.31	27.92	28.61	27.86	28.39	31.31	34.51	43.43	62.23	41.13	37.97	61.57	280.4	6815	9999.9	541.6	36.57	25.89	21.21	16.89	14.44	13.42	11.62	10.95	10.83	10.58	9.715	9.451	8.969	7.928	7.742	6.933	6.557	6.159	5.997	5.764	5.329	5.221	5.179	5.013	5.084	5.110	4.924	4.852	4.381	4.107	3.658	3.697	3.641	3.631	3.600	3.797	3.658	3.856	3.982	4.140	3.952	3.611	3.602	3.488	3.297	3.540	3.275	3.201	3.595	3.513	3.492	3.366	3.332	3.426	3.914	5.743	14.35
630.0	80.75	64.27	48.11	34.38	31.55	27.06	26.59	25.76	26.82	28.55	32.77	35.18	54.42	44.30	33.66	39.40	94.91	1832	9999.9	9999.9	171.4	30.19	22.29	18.48	15.07	13.43	11.68	11.19	11.02	10.18	9.860	9.031	8.943	8.203	7.558	6.929	6.366	6.101	5.813	5.499	5.459	5.185	4.907	4.929	4.739	4.779	4.867	4.583	4.267	3.936	3.647	3.577	3.398	3.460	3.571	3.507	3.700	3.836	3.706	3.764	3.776	3.535	3.328	3.372	3.225	3.305	3.115	3.031	2.980	3.092	3.366	3.180	3.007	3.003	3.089	3.596	5.643
635.0	83.15	57.54	44.94	34.29	27.30	24.75	25.27	24.85	25.68	27.65	29.37	32.53	40.08	48.88	30.86	31.59	46.53	442.4	4140	9999.9	2446	37.18	24.06	19.95	15.79	14.31	12.29	10.82	11.07	10.40	9.566	8.948	8.908	7.845	7.433	7.033	6.434	5.973	5.877	5.291	5.294	4.996	4.913	4.855	4.590	4.937	4.416	4.370	4.235	3.779	3.436	3.466	3.287	3.483	3.421	3.371	3.443	3.663	3.335	3.323	3.546	3.164	3.332	3.051	3.062	3.099	3.188	2.824	2.737	2.585	2.991	3.023	2.641	2.892	2.582	2.841	3.343
640.0	74.41	59.41	45.48	33.74	27.45	25.81	22.69	23.79	25.63	24.94	27.40	29.75	33.39	49.04	33.76	27.64	33.22	127.6	1113	9999.9	9999.9	60.95	27.10	20.52	16.66	14.32	12.08	10.62	10.79	10.84	9.765	8.716	8.798	7.968	7.338	6.647	6.452	6.013	5.419	5.344	5.192	4.961	4.947	4.699	4.858	4.522	4.544	4.507	4.163	3.702	3.491	3.413	3.236	3.267	3.316	3.281	3.415	3.358	3.045	3.507	3.208	3.157	3.019	2.887	2.834	2.829	2.792	2.707	2.633	2.613	2.623	2.611	2.486	2.674	2.494	2.710	2.627
645.0	78.87	58.71	46.20	33.22	27.68	24.16	21.78	22.01	23.88	25.62	28.68	28.54	30.96	42.33	37.12	26.09	28.89	52.76	288.1	7179	9999.9	424.2	29.68	21.76	16.90	14.97	12.56	10.77	10.72	10.57	10.07	9.051	8.337	8.411	7.367	6.794	6.403	6.163	5.568	5.103	4.791	5.093	4.997	4.528	4.677	4.722	4.354	4.415	4.120	3.793	3.593	3.314	3.406	3.332	3.234	3.383	3.443	3.312	3.073	3.203	3.111	2.953	3.010	3.057	2.960	2.776	2.592	2.770	2.429	2.543	2.435	2.323	2.316	2.390	2.451	2.357	2.364
650.0	89.63	58.47	41.73	33.92	28.07	23.23	21.38	21.82	23.02	22.93	26.21	28.47	28.22	34.34	38.88	25.39	25.99	33.68	92.03	2318	9999.9	3431	37.89	22.87	18.13	15.23	12.58	11.24	11.01	10.45	9.600	8.930	8.327	7.844	7.412	6.914	6.150	5.947	5.466	4.948	4.706	4.857	5.008	4.574	4.513	4.419	4.456	4.369	4.014	3.696	3.760	3.495	3.255	3.221	3.232	3.323	3.481	3.361	3.128	2.910	2.842	2.920	2.808	2.924	2.773	2.592	2.535	2.510	2.500	2.509	2.474	2.002	2.257	2.189	2.248	2.183	2.221
