Sample:	'1
File name:	Default_20230216_152551.FD3
Run date:	'15:19:30, 02/16/2023
Operator:	dsjg
Comment:	'

Instrument
Model:	F-2700 FL Spectrophotometer
Serial number:	2198-001
ROM Version:	4J14000 07

Instrument parameters
Measurement type:	3-D scan
Data mode:	Fluorescence
EX  Start WL:	220.0 nm
EX  End WL:	600.0 nm
EX Sampling interval:	5.0 nm
EM  Start WL:	230.0 nm
EM  End WL:	650.0 nm
EM Sampling interval:	5.0 nm
Scan speed:	12000 nm/min
EX Slit:	5.0 nm
EM Slit:	5.0 nm
PMT Voltage:	700 V
Response:	Auto 
Corrected spectra:	Off
Contour interval:	50.000

Peak integration
Integration method:	Rectangular
Sensitivity:	1
Threshold:	1.000

Peaks
No.	ApexEX/EM(nm)	Height(Data)
1	225.0/495.0	63.86
2	225.0/625.0	3.588
3	230.0/350.0	144.1
4	230.0/505.0	71.50
5	230.0/620.0	3.574
6	235.0/260.0	157.0
7	235.0/380.0	140.4
8	235.0/520.0	69.81
9	240.0/265.0	173.8
10	240.0/400.0	152.6
11	240.0/530.0	64.58
12	245.0/270.0	161.7
13	245.0/540.0	56.39
14	250.0/275.0	196.6
15	250.0/445.0	126.6
16	250.0/550.0	48.17
17	255.0/280.0	219.5
18	255.0/560.0	39.84
19	260.0/405.0	133.6
20	260.0/575.0	32.58
21	265.0/585.0	33.17
22	270.0/300.0	307.2
23	270.0/595.0	27.55
24	275.0/305.0	330.6
25	275.0/610.0	23.08
26	280.0/310.0	279.4
27	280.0/360.0	130.7
28	280.0/385.0	149.3
29	280.0/405.0	140.9
30	280.0/620.0	19.92
31	285.0/315.0	264.4
32	285.0/630.0	13.79
33	290.0/325.0	252.3
34	295.0/330.0	197.8
35	300.0/335.0	201.1
36	305.0/345.0	186.9
37	310.0/350.0	163.5
38	315.0/355.0	161.7
39	320.0/360.0	163.9
40	325.0/370.0	139.0
41	330.0/375.0	137.4
42	335.0/380.0	150.5
43	340.0/385.0	132.6
44	345.0/395.0	112.7
45	350.0/400.0	121.9
46	355.0/405.0	115.6
47	365.0/420.0	91.18
48	370.0/425.0	85.21
49	380.0/440.0	63.89
50	385.0/445.0	55.65
51	395.0/460.0	39.79
52	400.0/465.0	35.64
53	410.0/480.0	24.52
54	415.0/485.0	21.59
55	420.0/490.0	17.90
56	430.0/505.0	13.77
57	435.0/510.0	11.00
58	440.0/520.0	9.631
59	445.0/525.0	8.480
60	450.0/530.0	6.817
61	460.0/545.0	4.772
62	520.0/285.0	1.583
63	530.0/290.0	1.358
64	540.0/295.0	1.596
65	545.0/300.0	1.889
66	550.0/305.0	1.790
67	560.0/310.0	1.661
68	570.0/315.0	1.614
69	575.0/320.0	1.578
70	585.0/325.0	1.483

Data points
	220.0	225.0	230.0	235.0	240.0	245.0	250.0	255.0	260.0	265.0	270.0	275.0	280.0	285.0	290.0	295.0	300.0	305.0	310.0	315.0	320.0	325.0	330.0	335.0	340.0	345.0	350.0	355.0	360.0	365.0	370.0	375.0	380.0	385.0	390.0	395.0	400.0	405.0	410.0	415.0	420.0	425.0	430.0	435.0	440.0	445.0	450.0	455.0	460.0	465.0	470.0	475.0	480.0	485.0	490.0	495.0	500.0	505.0	510.0	515.0	520.0	525.0	530.0	535.0	540.0	545.0	550.0	555.0	560.0	565.0	570.0	575.0	580.0	585.0	590.0	595.0	600.0
230.0	26.32	414.4	584.3	99.94	2.067	0.876	0.748	0.596	0.523	0.490	0.449	0.302	0.378	0.297	0.162	0.180	0.194	0.242	0.209	0.129	0.131	0.160	0.138	0.133	0.151	0.115	0.124	0.107	0.129	0.123	0.087	0.088	0.113	0.098	0.112	0.224	0.230	0.176	0.161	0.153	0.182	0.205	0.198	0.154	0.106	0.110	0.254	1.025	2.128	1.923	0.679	0.147	0.076	0.057	0.059	0.051	0.037	0.038	0.036	0.036	0.030	0.026	0.019	0.026	0.012	0.013	0.015	0.010	0.012	0.021	0.004	0.005	0.004	-0.002	-0.010	-0.009	-0.002
235.0	22.30	128.2	550.6	650.2	134.3	3.392	1.023	0.662	0.800	0.623	0.435	0.517	0.603	0.254	0.163	0.150	0.170	0.210	0.244	0.138	0.171	0.240	0.129	0.136	0.228	0.112	0.140	0.119	0.113	0.105	0.111	0.096	0.087	0.065	0.086	0.148	0.200	0.182	0.149	0.200	0.181	0.198	0.165	0.275	0.203	0.135	0.166	0.285	0.787	1.618	2.229	2.689	1.287	0.207	0.079	0.081	0.033	0.024	0.017	0.028	0.014	0.016	0.028	0.020	0.014	0.021	0.023	0.017	0.009	0.009	0.009	0.001	0.003	-0.007	-0.002	-0.005	-0.004
240.0	48.36	43.64	213.1	793.7	566.6	94.26	1.979	1.274	0.736	0.862	0.451	0.525	0.651	0.385	0.303	0.229	0.178	0.198	0.172	0.255	0.123	0.139	0.104	0.115	0.204	0.094	0.112	0.149	0.142	0.100	0.119	0.092	0.081	0.105	0.133	0.053	0.150	0.273	0.205	0.213	0.180	0.194	0.170	0.166	0.243	0.249	0.195	0.175	0.301	0.573	1.175	2.992	3.712	2.664	0.946	0.127	0.056	0.038	0.015	0.032	0.019	0.016	0.032	0.009	0.013	0.024	0.041	0.022	0.007	0.018	0.002	0.009	-0.010	0.028	-0.008	0.001	0.000
245.0	58.15	64.16	61.28	361.2	963.8	463.6	52.77	1.447	1.308	0.977	0.666	0.613	0.468	0.327	0.389	0.278	0.210	0.253	0.159	0.221	0.220	0.196	0.184	0.134	0.166	0.121	0.156	0.134	0.186	0.136	0.115	0.137	0.123	0.056	0.118	0.076	0.121	0.151	0.194	0.178	0.159	0.183	0.188	0.181	0.174	0.318	0.419	0.307	0.220	0.223	0.353	1.091	2.532	4.067	4.249	2.275	0.512	0.043	0.073	0.032	0.035	0.026	0.035	0.021	0.019	0.034	0.033	0.013	0.020	0.048	0.013	0.014	-0.005	0.009	-0.007	-0.009	0.014
250.0	23.97	75.50	96.77	109.7	387.6	832.9	717.8	154.4	6.542	1.640	0.846	0.686	0.637	0.663	0.427	0.270	0.290	0.271	0.254	0.206	0.202	0.189	0.156	0.144	0.177	0.124	0.187	0.136	0.133	0.148	0.111	0.087	0.106	0.097	0.095	0.080	0.071	0.082	0.133	0.208	0.195	0.183	0.178	0.145	0.143	0.181	0.248	0.366	0.450	0.446	0.296	0.349	0.691	1.413	2.493	3.749	4.473	3.541	1.863	0.444	0.056	0.032	0.022	0.015	0.033	0.031	0.018	0.040	0.017	0.032	0.019	0.016	-0.003	0.004	-0.008	0.005	0.021
255.0	7.214	26.84	102.3	141.1	112.1	255.4	825.7	 1099	218.7	8.125	1.324	1.012	0.781	0.779	0.557	0.483	0.449	0.298	0.221	0.154	0.235	0.184	0.193	0.170	0.175	0.208	0.146	0.110	0.185	0.204	0.136	0.084	0.161	0.096	0.073	0.086	0.059	0.068	0.066	0.119	0.230	0.194	0.161	0.143	0.164	0.124	0.176	0.171	0.248	0.439	0.643	0.683	0.419	0.429	0.639	1.054	1.799	3.832	6.354	5.766	2.869	0.463	0.054	0.022	0.024	0.012	0.025	0.032	0.020	0.017	0.015	0.008	-0.002	0.003	0.017	0.004	-0.002
260.0	4.469	7.507	45.63	157.0	118.3	71.45	300.6	 1124	 1141	185.3	3.245	1.093	0.861	0.823	0.589	0.517	0.388	0.401	0.266	0.232	0.268	0.205	0.180	0.164	0.195	0.167	0.168	0.113	0.153	0.167	0.140	0.158	0.119	0.119	0.080	0.055	0.077	0.047	0.079	0.081	0.175	0.165	0.155	0.132	0.155	0.141	0.146	0.134	0.138	0.207	0.415	0.822	0.820	0.578	0.279	0.336	0.486	1.157	2.962	6.132	7.499	5.500	1.751	0.155	0.034	0.012	0.030	0.032	0.035	0.028	0.014	0.014	-0.002	0.024	0.022	0.003	-0.001
265.0	2.860	4.639	15.15	90.81	173.8	75.19	79.11	456.3	 1403	 1390	107.4	1.931	1.373	0.890	0.541	0.528	0.398	0.446	0.296	0.392	0.227	0.264	0.120	0.187	0.142	0.168	0.173	0.127	0.135	0.163	0.190	0.112	0.125	0.078	0.110	0.092	0.095	0.069	0.083	0.088	0.083	0.151	0.192	0.175	0.162	0.178	0.122	0.112	0.140	0.137	0.173	0.361	0.723	0.975	0.708	0.264	0.168	0.333	0.786	2.036	4.555	7.916	7.741	4.458	0.870	0.072	0.017	0.046	0.045	0.015	0.026	0.028	0.010	0.011	0.023	0.017	0.005
270.0	2.734	4.226	5.590	28.12	101.1	161.7	103.8	122.7	498.4	 1358	 1166	404.8	15.85	1.447	1.047	0.765	0.505	0.456	0.447	0.370	0.287	0.254	0.144	0.241	0.186	0.198	0.201	0.157	0.185	0.166	0.149	0.145	0.125	0.078	0.085	0.083	0.091	0.075	0.061	0.086	0.083	0.094	0.146	0.174	0.181	0.183	0.132	0.159	0.141	0.121	0.131	0.172	0.281	0.501	0.735	0.937	0.816	0.471	0.286	0.522	1.144	2.406	4.068	6.018	6.870	5.571	3.136	0.786	0.088	0.025	0.032	0.028	0.011	0.018	0.017	0.008	0.009
275.0	8.567	6.076	6.803	10.06	26.47	93.84	196.6	126.8	126.2	363.8	892.8	 1527	172.6	10.20	1.493	0.872	0.634	0.676	0.520	0.509	0.267	0.249	0.241	0.234	0.145	0.267	0.194	0.156	0.182	0.179	0.160	0.102	0.113	0.093	0.117	0.095	0.141	0.132	0.069	0.078	0.090	0.075	0.076	0.137	0.184	0.201	0.151	0.152	0.128	0.130	0.154	0.153	0.113	0.165	0.240	0.452	0.800	1.170	0.973	0.521	0.336	0.628	1.006	1.491	2.476	5.007	8.502	8.480	5.848	0.645	0.068	0.036	0.030	0.028	0.011	0.018	0.012
280.0	9.178	10.88	9.543	6.803	9.654	34.67	146.7	219.5	89.11	98.47	291.2	 1150	 1369	130.6	4.543	1.281	0.800	0.645	0.594	0.505	0.298	0.339	0.270	0.271	0.211	0.232	0.188	0.169	0.192	0.122	0.137	0.078	0.121	0.105	0.120	0.091	0.112	0.104	0.070	0.087	0.072	0.077	0.062	0.069	0.176	0.241	0.194	0.201	0.195	0.160	0.152	0.201	0.104	0.126	0.125	0.173	0.337	0.848	1.300	1.391	0.703	0.320	0.329	0.406	0.665	1.482	3.554	7.558	15.17	7.212	1.996	0.140	0.015	0.023	0.021	0.016	0.029
285.0	12.17	13.89	10.60	8.314	6.754	13.39	61.47	199.0	193.1	61.71	87.77	406.1	 1264	 1135	94.50	2.092	1.298	0.775	0.675	0.583	0.394	0.447	0.218	0.337	0.205	0.291	0.237	0.151	0.170	0.220	0.124	0.148	0.083	0.137	0.147	0.131	0.114	0.122	0.130	0.086	0.097	0.101	0.071	0.091	0.077	0.207	0.232	0.238	0.199	0.183	0.155	0.154	0.109	0.103	0.098	0.118	0.140	0.302	0.615	1.257	1.583	0.995	0.364	0.260	0.272	0.505	0.980	2.428	7.479	9.220	9.198	4.811	0.743	0.035	0.036	0.008	0.032
290.0	20.92	22.27	21.27	14.09	9.854	10.15	25.17	87.43	200.5	204.5	90.33	128.3	421.4	976.9	 1044	367.2	16.43	1.227	0.862	0.679	0.544	0.431	0.326	0.353	0.330	0.247	0.269	0.174	0.178	0.179	0.214	0.166	0.156	0.146	0.139	0.152	0.140	0.134	0.171	0.093	0.101	0.104	0.121	0.084	0.117	0.180	0.215	0.238	0.256	0.235	0.183	0.168	0.138	0.121	0.124	0.139	0.119	0.166	0.279	0.472	0.886	1.130	1.358	1.140	0.484	0.316	0.428	0.722	1.946	2.882	4.758	6.543	7.489	6.033	2.971	0.571	0.029
295.0	28.41	35.36	28.70	19.46	10.68	12.27	19.94	40.05	92.80	229.1	243.0	104.6	139.0	269.0	676.7	 1413	503.7	9.402	1.248	0.909	0.612	0.400	0.446	0.452	0.359	0.276	0.298	0.304	0.284	0.224	0.184	0.108	0.142	0.138	0.138	0.149	0.185	0.163	0.197	0.114	0.131	0.113	0.103	0.088	0.104	0.140	0.181	0.222	0.261	0.319	0.241	0.168	0.146	0.103	0.141	0.178	0.123	0.155	0.215	0.240	0.378	0.475	0.711	1.284	1.596	1.074	0.522	0.428	0.690	0.837	1.277	1.709	2.812	5.640	9.721	9.046	3.343
300.0	34.60	43.84	35.19	23.16	17.34	15.42	21.64	32.10	56.35	146.7	307.2	197.1	88.81	95.88	217.5	940.5	 1478	83.14	3.545	1.176	0.746	0.530	0.600	0.439	0.444	0.382	0.345	0.295	0.294	0.179	0.138	0.214	0.130	0.131	0.174	0.163	0.213	0.166	0.158	0.132	0.115	0.113	0.147	0.124	0.083	0.153	0.163	0.181	0.242	0.321	0.234	0.240	0.171	0.205	0.134	0.176	0.216	0.176	0.228	0.220	0.260	0.354	0.387	0.745	1.268	1.889	1.570	0.678	0.462	0.415	0.533	0.591	0.774	1.649	4.358	8.983	11.16
305.0	36.40	46.03	37.42	25.31	23.07	20.14	24.18	31.24	49.47	89.54	217.5	330.6	141.2	63.83	75.79	317.2	 1163	 1284	64.04	1.954	1.109	0.795	0.607	0.587	0.359	0.402	0.335	0.246	0.247	0.205	0.159	0.262	0.184	0.139	0.157	0.194	0.193	0.130	0.110	0.122	0.125	0.115	0.091	0.154	0.123	0.156	0.135	0.200	0.158	0.274	0.258	0.238	0.205	0.217	0.213	0.180	0.194	0.189	0.210	0.224	0.300	0.280	0.366	0.520	0.705	1.192	1.790	1.735	0.881	0.472	0.339	0.333	0.294	0.498	1.127	2.780	6.264
310.0	35.81	46.44	38.86	29.61	24.88	25.75	26.35	35.71	49.35	72.36	123.3	236.0	279.4	112.1	49.35	91.19	357.4	956.7	906.7	277.4	13.72	1.110	0.669	0.664	0.480	0.482	0.375	0.409	0.266	0.241	0.223	0.206	0.210	0.164	0.169	0.171	0.200	0.180	0.157	0.136	0.142	0.159	0.094	0.125	0.135	0.169	0.138	0.185	0.167	0.176	0.235	0.260	0.239	0.223	0.236	0.189	0.201	0.203	0.258	0.243	0.262	0.324	0.373	0.425	0.480	0.619	0.898	1.391	1.661	1.418	0.776	0.361	0.283	0.291	0.387	0.739	1.636
315.0	37.21	50.98	40.46	33.28	26.92	27.67	30.89	38.85	51.83	69.82	90.06	124.7	207.4	264.4	96.51	44.88	97.85	241.9	581.0	 1363	411.9	8.966	1.159	0.703	0.580	0.621	0.378	0.488	0.353	0.228	0.479	0.254	0.231	0.180	0.147	0.188	0.187	0.151	0.170	0.121	0.110	0.128	0.161	0.116	0.151	0.152	0.180	0.197	0.238	0.180	0.157	0.176	0.244	0.208	0.250	0.253	0.239	0.197	0.227	0.269	0.260	0.333	0.355	0.364	0.458	0.562	0.593	0.606	0.908	1.324	1.614	1.310	0.518	0.301	0.250	0.268	0.472
320.0	38.02	60.21	50.15	37.95	31.95	30.47	37.27	43.10	55.45	71.71	87.80	99.42	131.8	242.7	211.3	54.49	43.93	70.61	171.1	862.4	 1367	63.61	3.569	1.034	0.713	0.513	0.402	0.470	0.424	0.259	0.300	0.222	0.223	0.173	0.141	0.175	0.220	0.208	0.156	0.079	0.119	0.152	0.183	0.151	0.133	0.171	0.231	0.233	0.262	0.238	0.213	0.163	0.256	0.271	0.287	0.277	0.213	0.283	0.233	0.304	0.319	0.363	0.381	0.357	0.444	0.527	0.480	0.502	0.573	0.684	1.009	1.578	1.393	0.636	0.262	0.208	0.242
325.0	52.37	77.72	71.96	44.88	37.93	34.76	42.15	47.23	60.29	77.63	89.27	100.4	107.1	152.5	252.3	112.0	39.17	34.82	52.32	260.4	 1063	 1141	52.46	1.908	0.912	0.684	0.510	0.445	0.390	0.302	0.289	0.244	0.244	0.229	0.202	0.178	0.177	0.196	0.162	0.167	0.175	0.166	0.178	0.178	0.143	0.257	0.245	0.271	0.281	0.269	0.261	0.191	0.193	0.328	0.274	0.307	0.273	0.297	0.271	0.331	0.306	0.336	0.449	0.373	0.409	0.472	0.490	0.600	0.511	0.513	0.662	0.904	1.413	1.483	0.790	0.299	0.264
330.0	56.96	92.12	95.52	57.87	46.57	41.05	46.60	51.60	62.81	81.37	92.89	104.0	103.9	106.1	152.9	197.8	114.1	37.30	29.97	72.40	309.7	857.7	 1041	227.4	11.96	1.088	0.707	0.518	0.482	0.403	0.375	0.320	0.296	0.199	0.231	0.207	0.206	0.192	0.192	0.184	0.169	0.151	0.147	0.164	0.166	0.240	0.254	0.334	0.407	0.362	0.301	0.268	0.229	0.270	0.286	0.325	0.310	0.271	0.336	0.379	0.353	0.450	0.447	0.431	0.450	0.472	0.484	0.560	0.514	0.518	0.542	0.555	0.703	0.993	1.288	1.106	0.796
335.0	64.73	107.0	113.3	76.69	56.07	52.67	57.29	61.96	70.19	86.73	102.3	111.2	110.2	104.7	102.4	129.7	201.1	86.10	33.47	35.43	84.00	213.8	581.2	 1314	342.5	9.256	0.980	0.821	0.623	0.461	0.419	0.405	0.344	0.201	0.258	0.267	0.233	0.210	0.191	0.184	0.166	0.162	0.169	0.202	0.181	0.325	0.305	0.366	0.404	0.452	0.361	0.391	0.294	0.287	0.300	0.338	0.412	0.406	0.423	0.443	0.474	0.475	0.473	0.395	0.484	0.507	0.497	0.539	0.567	0.513	0.561	0.581	0.474	0.600	0.664	0.869	1.271
340.0	73.32	117.2	141.2	96.78	70.91	67.31	68.35	71.70	78.41	91.43	105.8	118.8	121.0	114.5	101.8	95.61	159.6	182.3	62.65	32.68	39.04	63.08	164.8	853.6	 1305	54.73	3.001	0.896	0.643	0.565	0.445	0.373	0.365	0.287	0.257	0.264	0.205	0.213	0.227	0.144	0.166	0.197	0.234	0.216	0.225	0.303	0.326	0.392	0.410	0.458	0.402	0.471	0.358	0.377	0.362	0.332	0.429	0.499	0.522	0.434	0.473	0.498	0.464	0.426	0.499	0.653	0.577	0.606	0.611	0.582	0.606	0.664	0.531	0.434	0.488	0.533	0.768
345.0	76.54	126.9	140.5	108.2	84.85	74.67	75.00	78.19	83.35	93.02	108.2	121.9	126.2	121.3	109.0	89.62	103.1	186.9	135.8	43.85	33.22	32.88	51.81	257.7	 1084	 1038	44.16	1.596	0.773	0.564	0.533	0.425	0.340	0.307	0.320	0.327	0.201	0.239	0.206	0.207	0.144	0.190	0.213	0.179	0.216	0.241	0.324	0.453	0.469	0.605	0.400	0.451	0.375	0.374	0.336	0.368	0.393	0.512	0.478	0.521	0.482	0.503	0.505	0.489	0.527	0.566	0.583	0.591	0.635	0.646	0.662	0.689	0.533	0.478	0.576	0.449	0.489
350.0	73.05	120.5	144.1	116.5	95.18	84.63	82.32	83.89	87.12	94.97	109.7	123.3	126.8	122.8	113.5	91.61	84.68	114.1	163.5	113.1	47.20	33.08	31.65	74.08	314.3	831.2	743.5	201.3	9.710	0.997	0.684	0.481	0.391	0.405	0.342	0.241	0.231	0.182	0.183	0.166	0.180	0.239	0.159	0.163	0.206	0.235	0.361	0.479	0.444	0.552	0.416	0.511	0.472	0.460	0.384	0.381	0.411	0.417	0.466	0.487	0.543	0.525	0.527	0.538	0.585	0.548	0.575	0.601	0.623	0.613	0.722	0.654	0.610	0.558	0.572	0.464	0.460
355.0	74.16	112.1	136.0	122.4	101.8	92.84	91.40	90.31	94.09	98.38	111.2	122.7	127.8	126.1	115.5	98.03	85.09	86.04	104.1	161.7	110.6	44.71	33.53	37.94	85.07	205.6	510.6	 1177	297.4	7.002	0.848	0.678	0.562	0.410	0.325	0.261	0.258	0.269	0.238	0.199	0.165	0.190	0.191	0.210	0.211	0.276	0.338	0.404	0.455	0.531	0.419	0.497	0.493	0.493	0.495	0.400	0.437	0.467	0.495	0.560	0.546	0.523	0.612	0.565	0.580	0.665	0.640	0.609	0.630	0.597	0.704	0.684	0.599	0.595	0.582	0.531	0.566
360.0	76.33	112.6	132.6	126.2	114.6	101.6	97.93	97.03	96.91	103.8	113.0	123.2	130.7	126.2	120.1	102.5	89.21	82.81	83.50	123.0	163.9	69.95	39.53	34.40	37.76	58.92	145.6	806.5	 1147	48.85	2.349	0.858	0.664	0.465	0.323	0.315	0.311	0.213	0.264	0.195	0.216	0.187	0.156	0.198	0.250	0.263	0.336	0.370	0.486	0.495	0.467	0.508	0.560	0.497	0.500	0.443	0.434	0.521	0.569	0.496	0.547	0.534	0.627	0.628	0.577	0.622	0.604	0.675	0.758	0.632	0.662	0.729	0.660	0.597	0.629	0.503	0.551
365.0	72.85	101.6	129.8	128.2	117.1	110.2	103.3	103.3	99.65	106.5	110.5	124.3	129.9	127.4	121.7	107.0	93.34	87.34	82.98	90.48	146.2	132.5	56.24	37.96	31.75	29.23	44.70	244.9	 1043	951.1	39.12	1.546	0.795	0.566	0.370	0.368	0.322	0.201	0.305	0.192	0.225	0.169	0.232	0.153	0.202	0.256	0.258	0.317	0.448	0.506	0.430	0.570	0.490	0.516	0.541	0.448	0.550	0.436	0.531	0.429	0.581	0.518	0.565	0.587	0.613	0.624	0.636	0.577	0.646	0.707	0.602	0.744	0.724	0.708	0.680	0.550	0.552
370.0	66.10	107.9	126.3	127.6	121.4	114.8	108.5	108.6	103.2	108.6	114.3	124.5	128.8	127.8	122.3	109.8	100.5	93.86	87.38	85.67	101.7	139.0	116.9	53.65	37.47	29.12	27.26	67.82	308.3	824.4	729.4	171.3	8.389	0.930	0.562	0.411	0.354	0.267	0.269	0.246	0.208	0.200	0.212	0.223	0.220	0.274	0.323	0.356	0.432	0.466	0.451	0.513	0.508	0.568	0.548	0.467	0.556	0.498	0.527	0.521	0.501	0.525	0.581	0.598	0.541	0.622	0.636	0.641	0.696	0.695	0.662	0.677	0.724	0.646	0.645	0.666	0.568
375.0	60.35	94.87	128.1	133.2	131.6	119.3	120.0	113.0	112.4	114.4	121.1	127.6	136.5	132.2	124.0	112.8	107.6	102.2	97.69	91.89	90.05	98.71	137.4	119.9	55.18	37.81	31.76	37.85	83.94	206.0	558.7	 1086	246.3	5.541	0.908	0.525	0.437	0.337	0.350	0.259	0.253	0.197	0.206	0.211	0.261	0.259	0.307	0.362	0.430	0.397	0.493	0.543	0.548	0.654	0.629	0.456	0.559	0.565	0.628	0.540	0.547	0.520	0.564	0.623	0.653	0.646	0.629	0.710	0.781	0.855	0.672	0.714	0.743	0.651	0.703	0.645	0.755
380.0	65.31	99.55	130.2	140.4	138.7	129.6	123.1	122.5	117.3	117.1	125.3	134.3	144.5	138.2	125.9	116.2	110.7	106.4	101.5	95.58	91.32	88.95	108.3	150.5	90.50	47.71	39.81	37.80	39.60	61.72	167.4	779.9	979.9	40.41	1.806	0.681	0.504	0.457	0.357	0.270	0.211	0.262	0.257	0.324	0.226	0.308	0.279	0.398	0.463	0.484	0.490	0.508	0.625	0.712	0.614	0.672	0.626	0.615	0.601	0.482	0.510	0.599	0.566	0.631	0.684	0.685	0.751	0.797	0.801	0.819	0.785	0.712	0.785	0.669	0.649	0.725	0.756
385.0	64.58	108.2	126.6	138.4	146.7	136.6	127.3	124.6	119.4	121.3	130.0	136.9	149.3	138.8	127.7	118.2	115.8	110.5	106.6	102.0	94.56	89.27	91.80	130.2	132.6	61.15	46.86	42.53	34.33	33.22	59.03	260.6	932.2	730.6	29.21	0.967	0.702	0.494	0.263	0.286	0.321	0.241	0.177	0.280	0.280	0.298	0.282	0.419	0.472	0.448	0.487	0.599	0.562	0.707	0.668	0.677	0.633	0.598	0.629	0.542	0.569	0.581	0.576	0.563	0.679	0.576	0.742	0.738	0.768	0.767	0.813	0.784	0.739	0.682	0.804	0.741	0.666
390.0	70.02	100.2	126.8	141.9	149.8	139.9	130.7	130.4	123.9	122.7	131.3	134.6	145.9	137.7	126.3	120.9	116.3	112.9	109.9	105.6	98.95	93.53	88.22	96.91	122.9	109.3	64.95	46.37	35.57	28.65	33.63	78.14	290.5	685.2	574.0	127.7	5.533	0.618	0.424	0.366	0.314	0.267	0.231	0.237	0.280	0.266	0.307	0.417	0.450	0.448	0.442	0.607	0.641	0.635	0.723	0.597	0.646	0.613	0.631	0.556	0.606	0.607	0.591	0.602	0.642	0.602	0.666	0.697	0.760	0.801	0.740	0.696	0.743	0.661	0.695	0.748	0.715
395.0	69.92	97.55	123.5	143.7	150.8	139.5	134.4	132.4	127.2	122.3	129.3	134.1	140.9	135.2	126.1	123.1	119.0	115.4	112.0	107.5	101.6	95.98	89.82	88.29	90.77	112.7	108.7	58.76	39.88	31.78	30.80	37.26	76.06	168.5	443.8	827.2	188.3	3.228	0.580	0.491	0.300	0.312	0.289	0.243	0.261	0.304	0.320	0.383	0.453	0.398	0.426	0.616	0.541	0.660	0.658	0.584	0.667	0.613	0.632	0.654	0.680	0.623	0.596	0.624	0.634	0.603	0.664	0.658	0.741	0.772	0.815	0.679	0.788	0.796	0.753	0.830	0.728
400.0	71.82	96.39	131.0	142.1	152.6	137.9	135.1	131.6	127.9	127.5	134.4	135.6	139.0	134.8	125.4	120.0	119.1	116.6	113.3	108.4	102.7	97.74	92.62	87.28	82.46	91.62	121.9	88.01	47.24	36.01	33.75	32.25	30.39	45.55	126.0	623.0	754.5	32.86	1.251	0.541	0.380	0.297	0.302	0.245	0.320	0.242	0.322	0.404	0.490	0.470	0.429	0.589	0.661	0.687	0.618	0.613	0.641	0.655	0.753	0.614	0.648	0.667	0.635	0.551	0.581	0.627	0.591	0.703	0.692	0.810	0.841	0.714	0.751	0.720	0.658	0.776	0.826
405.0	65.31	93.13	129.3	141.3	150.6	140.5	132.5	133.6	133.6	125.5	134.9	133.3	140.9	131.8	125.4	120.1	118.9	115.1	112.2	108.0	103.5	98.06	93.81	89.42	83.55	79.21	103.3	115.6	59.10	41.33	37.64	33.81	22.50	18.81	34.43	199.0	725.5	546.2	24.46	0.703	0.511	0.354	0.298	0.257	0.245	0.288	0.409	0.415	0.490	0.444	0.471	0.580	0.652	0.686	0.660	0.711	0.633	0.677	0.711	0.616	0.583	0.701	0.702	0.554	0.597	0.616	0.587	0.628	0.735	0.815	0.770	0.698	0.673	0.703	0.722	0.775	0.767
410.0	59.75	92.16	125.5	134.7	143.6	142.3	136.1	132.6	131.7	130.1	132.9	130.5	134.3	128.4	120.7	115.9	113.4	113.3	109.1	105.3	101.0	96.01	93.38	88.55	82.17	75.24	79.16	99.65	94.34	52.30	39.49	34.26	21.95	14.78	15.18	50.20	218.7	526.1	454.8	111.2	3.912	0.526	0.350	0.319	0.289	0.300	0.353	0.391	0.437	0.458	0.469	0.552	0.641	0.649	0.706	0.605	0.661	0.639	0.683	0.621	0.621	0.644	0.623	0.571	0.628	0.612	0.609	0.590	0.673	0.718	0.700	0.649	0.700	0.624	0.727	0.701	0.738
415.0	55.20	89.66	122.0	134.3	137.6	137.2	129.9	131.3	131.2	127.2	128.6	123.8	126.9	119.3	115.3	111.8	109.6	106.0	103.1	100.9	97.76	92.75	90.99	85.78	80.15	72.92	71.48	73.85	87.96	86.66	48.21	33.92	23.28	15.92	12.66	17.61	53.49	129.0	360.6	631.5	33.28	2.728	0.561	0.339	0.253	0.370	0.339	0.355	0.412	0.441	0.512	0.585	0.555	0.555	0.612	0.641	0.667	0.665	0.612	0.636	0.667	0.694	0.624	0.654	0.678	0.588	0.623	0.622	0.674	0.670	0.560	0.642	0.693	0.522	0.676	0.701	0.690
420.0	52.03	86.22	114.2	128.3	137.8	139.5	131.3	130.3	130.6	126.3	122.9	121.1	121.3	117.5	110.8	105.5	106.9	99.88	101.4	97.34	92.97	90.12	88.47	84.77	78.05	71.32	68.82	65.84	69.48	91.18	69.16	37.80	24.81	17.57	13.32	11.37	16.93	32.73	102.1	474.8	547.5	31.20	1.089	0.435	0.339	0.394	0.313	0.367	0.420	0.408	0.537	0.568	0.567	0.602	0.621	0.616	0.670	0.576	0.654	0.536	0.602	0.656	0.677	0.556	0.605	0.561	0.562	0.683	0.590	0.636	0.592	0.613	0.632	0.623	0.639	0.591	0.648
425.0	60.22	89.08	111.0	125.1	134.4	134.2	131.9	129.6	127.9	128.5	126.1	123.0	118.2	113.1	105.4	103.5	102.3	99.02	96.87	94.31	92.01	88.10	85.73	81.48	77.30	71.53	67.26	64.32	59.96	75.21	85.21	49.95	27.92	19.06	14.59	11.20	10.08	11.78	26.42	144.4	543.7	263.0	23.70	0.694	0.500	0.407	0.366	0.420	0.426	0.416	0.475	0.542	0.627	0.661	0.626	0.645	0.616	0.592	0.602	0.539	0.565	0.692	0.638	0.542	0.556	0.553	0.629	0.662	0.604	0.592	0.606	0.647	0.734	0.581	0.608	0.620	0.603
430.0	58.98	80.30	109.7	121.9	129.7	127.4	131.4	128.4	126.4	124.0	122.3	118.2	114.1	108.7	100.3	97.53	94.89	93.32	89.75	88.85	87.18	83.35	82.04	79.26	74.79	71.38	66.48	63.16	57.71	59.81	73.23	70.99	39.44	22.18	16.58	12.64	10.02	8.165	10.17	35.58	163.9	368.6	371.1	102.1	3.896	0.484	0.390	0.441	0.430	0.414	0.457	0.515	0.599	0.582	0.616	0.598	0.613	0.637	0.599	0.624	0.592	0.614	0.569	0.534	0.567	0.642	0.617	0.552	0.587	0.563	0.579	0.600	0.586	0.590	0.572	0.575	0.574
435.0	74.42	71.23	99.00	121.7	123.2	124.4	128.5	125.4	123.3	122.4	118.0	113.6	109.5	101.0	95.10	91.94	88.79	88.60	84.98	82.69	82.32	78.43	77.09	76.60	72.33	69.01	65.92	62.46	56.82	54.59	54.47	65.11	61.14	32.26	19.47	14.38	11.30	8.914	7.241	11.72	39.29	89.80	278.1	528.1	137.3	2.360	0.543	0.427	0.454	0.373	0.466	0.522	0.534	0.589	0.593	0.521	0.554	0.611	0.606	0.592	0.687	0.618	0.563	0.563	0.560	0.646	0.574	0.593	0.505	0.554	0.586	0.529	0.551	0.583	0.566	0.590	0.569
440.0	122.2	75.20	95.97	113.9	116.9	117.2	124.4	124.8	122.0	119.6	118.5	112.5	105.2	99.60	93.35	87.66	85.31	83.12	81.59	78.96	78.66	75.93	74.25	73.16	70.91	67.76	64.95	62.29	57.32	53.81	49.67	51.99	63.89	45.67	23.54	15.93	12.43	9.868	7.659	6.952	11.93	22.62	78.74	409.5	500.9	26.91	0.872	0.467	0.527	0.405	0.491	0.529	0.521	0.488	0.573	0.588	0.621	0.622	0.648	0.584	0.635	0.561	0.522	0.530	0.601	0.579	0.558	0.518	0.514	0.528	0.540	0.518	0.484	0.535	0.493	0.537	0.559
445.0	198.3	81.71	91.29	107.6	113.2	116.7	126.6	126.1	122.6	118.1	116.9	107.7	104.3	96.08	87.88	85.32	81.22	79.08	78.12	75.47	74.47	73.11	71.07	69.93	67.94	65.94	62.19	60.55	58.19	53.70	48.87	45.46	53.66	55.65	31.04	17.18	13.50	10.35	8.409	6.063	6.285	7.879	20.13	139.0	530.9	240.6	16.00	0.641	0.543	0.446	0.453	0.489	0.567	0.562	0.533	0.644	0.605	0.593	0.655	0.612	0.607	0.600	0.595	0.592	0.557	0.627	0.480	0.508	0.535	0.455	0.580	0.442	0.501	0.490	0.521	0.448	0.540
450.0	211.5	167.6	93.11	100.2	113.4	115.7	120.0	118.6	118.4	116.5	114.1	103.9	97.77	89.19	82.37	78.87	74.91	73.58	72.85	69.90	68.84	67.91	65.84	65.54	64.02	62.66	59.85	57.78	55.80	52.11	46.96	42.75	40.26	46.83	43.93	25.89	15.61	11.82	9.282	6.905	5.648	4.868	7.223	33.67	162.3	342.0	337.1	89.72	3.099	0.524	0.426	0.540	0.549	0.515	0.535	0.592	0.570	0.558	0.697	0.543	0.527	0.561	0.538	0.541	0.527	0.563	0.535	0.526	0.511	0.468	0.549	0.461	0.436	0.419	0.444	0.411	0.433
455.0	126.0	299.0	129.0	95.05	104.2	108.0	115.5	113.6	111.3	108.6	106.4	96.95	90.86	82.43	74.71	71.69	68.98	65.40	64.54	63.61	61.81	61.60	60.68	60.41	59.50	58.02	55.71	55.19	52.50	49.62	45.95	41.80	35.64	34.40	40.38	39.30	21.95	13.26	10.18	8.067	6.386	4.929	4.972	9.754	38.18	84.02	243.3	454.8	26.61	2.213	0.557	0.568	0.531	0.455	0.540	0.540	0.519	0.518	0.615	0.517	0.586	0.514	0.559	0.454	0.518	0.526	0.450	0.541	0.540	0.574	0.408	0.445	0.450	0.407	0.413	0.442	0.380
460.0	63.46	321.7	228.7	88.55	96.10	102.5	108.8	110.3	106.8	101.3	100.9	95.12	86.66	77.84	71.24	66.49	64.87	63.06	60.63	58.98	57.85	58.57	56.72	57.48	56.06	54.36	52.89	51.23	51.08	47.31	45.29	39.66	34.14	30.05	30.84	39.79	30.43	15.26	10.91	8.439	6.808	5.396	4.526	4.805	10.69	20.72	67.12	345.2	381.4	20.08	0.851	0.631	0.605	0.485	0.473	0.460	0.607	0.487	0.571	0.437	0.549	0.540	0.516	0.434	0.487	0.433	0.460	0.449	0.490	0.420	0.475	0.444	0.409	0.367	0.346	0.408	0.399
465.0	48.35	229.8	362.2	107.8	84.71	95.34	102.7	105.5	102.8	101.2	100.3	90.27	82.12	73.64	66.81	62.22	59.26	57.72	56.61	54.12	54.11	54.28	53.51	52.70	52.04	51.24	49.88	48.61	48.98	46.24	42.84	37.80	33.77	28.26	26.63	31.74	35.64	20.07	11.58	8.755	6.992	5.520	4.956	4.074	4.811	6.669	16.75	108.5	397.3	175.9	15.54	0.741	0.625	0.531	0.467	0.473	0.623	0.533	0.566	0.412	0.495	0.493	0.516	0.456	0.485	0.436	0.422	0.513	0.453	0.410	0.519	0.415	0.381	0.394	0.403	0.343	0.365
470.0	40.65	112.6	380.8	269.1	86.46	86.70	95.28	96.01	91.73	95.17	91.99	83.15	75.79	67.03	61.76	55.66	53.47	51.18	50.38	49.29	48.10	48.35	47.85	47.50	46.85	46.60	45.51	44.59	44.68	42.79	40.29	35.55	31.65	26.58	24.15	23.60	28.11	27.44	16.67	9.931	7.544	6.195	5.257	4.210	3.672	3.537	5.463	25.99	118.9	252.2	253.1	80.56	3.135	0.584	0.506	0.450	0.490	0.498	0.419	0.447	0.473	0.453	0.438	0.446	0.458	0.449	0.373	0.460	0.395	0.362	0.388	0.353	0.318	0.355	0.296	0.315	0.300
475.0	39.65	63.37	212.2	475.7	150.0	84.02	84.22	87.92	84.60	84.64	81.48	75.14	68.67	59.62	56.86	50.61	49.01	45.37	45.24	43.76	42.12	43.34	42.61	42.58	41.45	41.47	41.35	40.06	39.18	39.21	36.66	33.26	29.80	24.86	22.55	19.91	19.41	23.65	24.46	12.95	7.991	6.559	5.372	4.417	3.708	3.143	3.115	7.339	27.92	60.15	158.1	334.9	27.12	2.335	0.558	0.463	0.475	0.457	0.498	0.471	0.492	0.426	0.416	0.446	0.436	0.441	0.396	0.411	0.354	0.358	0.331	0.292	0.232	0.288	0.300	0.305	0.293
480.0	49.05	49.88	99.73	448.2	291.6	77.60	81.56	82.52	81.39	80.21	76.92	71.69	64.07	56.70	50.93	46.28	45.00	42.30	41.28	40.91	39.15	39.50	38.27	38.20	38.56	38.48	38.62	36.81	37.03	37.10	34.28	31.18	27.74	24.27	21.54	18.46	16.84	18.01	24.52	18.76	9.159	6.572	5.615	4.423	4.067	3.274	2.762	3.286	7.524	14.58	43.13	227.2	204.0	23.49	0.950	0.499	0.511	0.453	0.451	0.424	0.419	0.443	0.364	0.375	0.353	0.348	0.389	0.359	0.389	0.369	0.296	0.353	0.239	0.328	0.311	0.282	0.230
485.0	50.66	52.61	61.71	296.1	456.4	104.3	75.15	74.51	75.46	75.77	72.22	66.36	60.12	53.71	47.18	43.86	40.96	39.87	38.00	37.87	37.19	36.30	36.20	35.85	34.95	35.62	35.28	34.65	34.64	33.98	32.86	29.56	26.80	23.59	20.79	17.71	15.74	14.31	18.83	21.59	12.93	7.383	5.775	4.769	3.843	3.124	2.953	2.443	3.104	4.610	10.80	65.32	256.1	197.9	17.92	0.620	0.503	0.424	0.435	0.453	0.326	0.384	0.374	0.416	0.398	0.287	0.351	0.389	0.364	0.254	0.310	0.323	0.271	0.288	0.309	0.306	0.252
490.0	44.13	59.37	51.23	123.0	418.7	290.1	73.88	69.38	71.17	70.20	67.47	62.37	54.45	49.42	44.21	40.18	36.69	35.49	34.10	33.64	33.09	32.66	32.67	31.60	31.25	32.00	31.72	31.73	31.83	31.07	29.97	27.74	24.98	21.82	19.18	17.11	14.69	13.15	13.45	17.17	17.90	10.70	6.326	4.819	4.123	3.317	3.029	2.479	2.201	2.307	3.585	15.71	73.95	194.7	237.5	80.28	2.923	0.519	0.444	0.391	0.358	0.322	0.350	0.379	0.347	0.296	0.342	0.308	0.301	0.264	0.292	0.249	0.235	0.246	0.274	0.265	0.263
495.0	28.09	63.86	55.20	67.76	199.4	473.0	153.2	64.25	64.34	63.08	59.73	57.57	50.28	46.27	40.72	35.39	32.71	31.70	29.89	29.48	28.94	29.06	29.11	28.54	28.76	29.05	28.56	28.34	28.79	28.43	26.87	24.59	22.33	20.17	18.02	16.18	14.24	12.48	11.23	11.57	15.35	15.27	8.272	5.082	4.554	3.354	3.031	2.661	2.206	2.022	2.023	4.500	17.40	46.40	169.9	311.3	28.42	2.008	0.444	0.387	0.344	0.335	0.390	0.297	0.382	0.291	0.335	0.320	0.284	0.316	0.241	0.176	0.241	0.208	0.550	0.246	0.220
500.0	22.39	61.79	65.05	52.82	92.31	420.9	295.6	63.01	60.36	60.22	55.16	52.59	46.49	39.49	36.65	31.49	30.53	28.68	27.05	26.72	26.46	26.35	25.72	26.17	26.16	25.86	25.47	25.43	25.40	25.23	23.89	22.93	21.43	18.55	16.69	14.82	13.53	11.40	10.43	9.673	11.37	15.07	11.48	6.343	4.249	3.552	3.254	2.632	2.236	1.985	1.664	2.064	4.723	11.26	44.97	217.6	233.9	26.00	0.878	0.389	0.424	0.405	0.347	0.341	0.349	0.268	0.330	0.272	0.276	0.266	0.195	0.227	0.180	0.197	0.235	0.192	0.191
505.0	23.04	46.12	71.50	45.21	56.77	253.1	434.0	94.98	54.25	53.46	51.99	46.88	42.39	36.28	32.92	29.26	27.51	26.09	25.61	23.89	24.50	23.22	22.96	24.02	23.40	23.37	23.11	23.53	22.48	22.78	22.02	20.82	19.44	16.88	15.74	13.88	12.48	10.87	9.433	8.583	8.734	11.81	13.77	8.450	4.751	3.570	2.944	2.613	2.361	2.009	1.702	1.681	2.016	3.424	10.91	61.66	235.8	214.4	19.37	0.430	0.419	0.341	0.321	0.345	0.327	0.248	0.284	0.237	0.224	0.247	0.224	0.201	0.220	0.165	0.218	0.184	0.169
510.0	18.80	29.17	66.82	55.77	42.68	104.8	356.2	275.2	58.80	48.10	44.96	42.18	38.30	33.18	29.45	25.96	23.91	22.69	21.86	20.71	21.15	20.02	19.99	20.44	20.12	20.32	19.89	20.75	20.15	20.42	19.63	18.44	16.79	15.07	13.77	12.39	11.08	9.840	8.857	7.740	7.355	7.999	10.70	11.00	6.717	3.846	2.995	2.783	2.238	2.094	1.825	1.497	1.295	1.669	3.217	14.55	66.44	178.1	205.1	66.93	2.816	0.369	0.293	0.289	0.273	0.212	0.217	0.220	0.258	0.227	0.238	0.179	0.177	0.168	0.200	0.151	0.151
515.0	15.09	23.12	43.10	67.18	40.96	51.59	153.0	409.7	148.3	41.57	39.58	37.10	33.54	28.93	25.39	23.12	21.22	19.27	19.10	17.67	17.52	17.36	17.14	17.55	16.98	17.47	17.57	17.37	17.56	17.49	17.07	15.86	14.71	13.20	12.06	10.90	10.14	8.914	7.981	6.911	6.505	6.168	6.778	9.513	9.600	5.335	2.834	2.620	2.234	1.878	1.809	1.656	1.328	1.250	1.508	3.982	15.57	42.37	115.0	228.4	29.59	1.707	0.333	0.326	0.252	0.230	0.189	0.254	0.232	0.171	0.179	0.146	0.175	0.114	0.160	0.146	0.171
520.0	12.70	17.29	31.38	69.81	48.93	36.27	67.10	334.1	294.7	44.86	36.44	34.74	30.81	27.31	23.19	19.74	18.88	17.97	16.80	16.06	15.96	15.63	15.14	15.85	14.84	15.60	15.01	15.62	15.68	15.25	15.19	14.87	13.31	12.50	10.95	9.832	9.508	7.883	7.461	6.423	5.844	5.658	5.429	6.526	9.631	7.369	3.569	2.286	2.328	1.853	1.550	1.636	1.547	1.133	1.057	1.488	4.115	10.10	29.29	157.3	205.1	24.40	0.629	0.269	0.267	0.209	0.199	0.193	0.197	0.182	0.174	0.144	0.142	0.107	0.144	0.091	0.135
525.0	10.46	17.84	22.70	58.29	60.77	30.39	39.67	190.3	442.2	90.80	34.67	31.88	26.72	24.09	21.58	19.21	16.84	15.83	14.99	14.42	14.11	13.68	14.12	14.36	13.44	13.83	13.65	14.54	14.21	14.12	13.61	13.11	11.79	11.06	9.841	8.772	8.773	7.622	6.842	6.016	5.424	4.811	4.677	4.834	7.519	8.480	5.056	2.624	2.095	1.730	1.560	1.411	1.518	1.129	0.963	0.977	1.581	2.760	7.065	43.91	176.9	167.4	16.79	0.304	0.251	0.201	0.244	0.233	0.172	0.163	0.137	0.129	0.141	0.102	0.096	0.114	0.119
530.0	8.558	14.02	16.30	34.45	64.58	40.44	29.42	71.78	324.1	284.5	42.90	27.15	23.86	21.17	17.97	16.94	14.35	13.96	13.13	12.57	12.16	11.56	11.91	12.25	11.57	12.05	11.88	12.21	11.93	12.55	11.96	11.02	10.27	9.486	9.011	7.889	7.544	6.536	5.895	5.118	5.058	4.257	4.027	3.801	4.761	6.779	6.817	3.943	2.095	1.719	1.498	1.391	1.320	1.243	1.082	0.854	0.920	1.190	2.054	10.33	48.60	132.3	146.1	18.91	1.884	0.196	0.247	0.237	0.138	0.181	0.146	0.134	0.124	0.102	0.081	0.102	0.091
535.0	8.796	12.52	14.33	22.31	47.69	55.36	27.91	35.88	121.5	377.9	149.6	23.07	20.48	17.18	15.65	14.15	12.91	11.92	11.36	10.37	10.99	10.08	10.12	10.24	10.29	9.952	10.30	10.31	10.45	10.07	10.08	9.663	8.592	8.554	7.732	6.935	6.336	5.714	5.175	4.461	4.529	3.712	3.800	3.185	3.244	3.994	6.265	5.487	3.025	1.625	1.478	1.200	1.074	1.043	1.065	0.850	0.763	0.729	0.971	2.745	11.20	30.63	80.08	163.8	26.92	1.306	0.291	0.214	0.135	0.218	0.136	0.122	0.123	0.096	0.056	0.090	0.085
540.0	8.260	12.43	14.03	16.54	30.96	56.39	30.17	25.73	49.69	272.7	251.1	30.98	18.17	15.78	13.62	12.32	11.70	11.06	9.929	9.657	9.257	8.433	8.537	8.909	9.183	8.950	9.215	9.213	8.840	8.916	8.856	8.805	7.614	7.375	6.671	6.116	5.914	5.287	4.599	4.154	3.900	3.620	3.334	2.997	2.827	2.806	4.321	5.432	4.122	1.944	1.389	1.333	0.969	0.974	1.000	0.931	0.773	0.601	0.659	1.015	2.872	7.209	20.67	104.4	152.1	22.21	1.657	0.242	0.165	0.146	0.160	0.091	0.133	0.112	0.057	0.115	0.094
545.0	6.159	10.56	12.66	16.22	21.64	52.23	38.90	21.18	28.59	141.8	338.1	81.37	16.45	14.96	12.51	11.04	10.51	9.547	8.782	8.899	8.326	7.777	7.852	8.002	7.806	7.610	8.001	7.983	8.300	8.152	7.926	7.815	7.247	6.559	6.166	5.913	5.123	4.523	4.355	3.943	3.552	3.277	2.915	2.794	2.594	2.308	2.685	4.484	4.772	2.623	1.380	1.112	0.844	0.929	0.920	0.875	0.803	0.598	0.500	0.651	0.968	1.952	5.021	29.55	129.8	121.8	25.32	0.480	0.207	0.185	0.139	0.104	0.120	0.063	0.060	0.084	0.088
550.0	5.941	9.680	11.00	13.18	15.99	33.36	48.17	22.32	20.89	52.28	220.1	227.5	29.77	12.34	11.36	9.695	8.616	8.220	7.509	7.550	7.464	6.762	6.792	6.914	6.525	6.498	6.645	7.005	6.891	6.843	6.989	6.396	5.876	5.653	5.264	4.798	4.304	4.305	3.604	3.430	3.093	2.858	2.604	2.405	2.190	2.057	2.067	2.670	4.009	3.727	2.172	1.102	0.824	0.851	0.786	0.745	0.767	0.796	0.537	0.460	0.521	0.729	1.433	6.890	35.59	94.24	167.1	86.95	2.588	0.215	0.149	0.082	0.083	0.066	0.061	0.075	0.088
555.0	4.701	10.01	8.297	10.10	11.06	18.20	41.18	32.63	17.13	23.92	76.21	246.9	130.9	10.34	9.381	8.533	7.252	6.859	6.725	6.014	6.326	5.713	5.516	5.766	5.619	5.320	5.793	5.430	5.655	5.859	5.272	5.552	5.164	4.651	4.413	4.001	3.580	3.537	2.999	2.856	2.613	2.362	2.236	2.035	1.909	1.669	1.565	1.630	2.302	3.370	3.115	1.529	0.814	0.718	0.726	0.637	0.625	0.713	0.681	0.413	0.350	0.378	0.578	1.734	8.151	21.89	72.67	346.2	30.92	1.373	0.164	0.075	0.111	0.083	0.086	0.048	0.047
560.0	4.383	7.381	5.984	7.971	11.76	12.32	29.61	39.84	15.44	15.83	29.14	159.3	195.3	18.68	7.892	7.523	6.597	5.740	5.354	5.267	4.907	5.156	4.416	4.684	4.610	4.762	4.836	4.864	4.831	5.212	4.793	4.460	4.364	3.865	3.823	3.550	3.089	2.915	2.738	2.490	2.213	2.063	1.834	1.843	1.666	1.588	1.390	1.361	1.414	2.452	3.074	2.191	0.948	0.635	0.623	0.505	0.500	0.502	0.599	0.503	0.355	0.269	0.348	0.642	2.023	5.106	18.21	216.8	245.8	24.84	0.273	0.104	0.098	0.058	0.069	0.033	0.025
565.0	4.173	6.887	4.727	7.055	9.819	9.198	18.72	39.23	21.33	12.60	16.30	71.87	236.6	66.54	6.702	6.258	5.420	5.062	4.740	4.455	4.198	4.495	4.201	4.130	3.949	4.029	4.203	4.350	4.029	4.332	4.201	3.980	3.584	3.505	3.278	2.948	2.760	2.496	2.251	1.947	1.997	1.693	1.621	1.503	1.398	1.435	1.192	1.155	1.020	1.564	2.469	2.395	1.193	0.622	0.544	0.499	0.452	0.454	0.427	0.539	0.374	0.302	0.263	0.284	0.642	1.305	4.337	58.74	206.5	198.8	10.93	0.136	0.090	0.045	0.036	0.028	0.030
570.0	4.349	4.753	5.501	6.238	6.969	7.913	10.56	27.04	32.35	12.27	12.03	24.94	134.3	170.4	22.46	4.983	4.426	3.791	3.904	3.528	3.422	3.361	3.384	3.256	3.254	3.242	3.192	3.338	3.265	3.415	3.151	3.029	2.934	2.743	2.476	2.400	2.210	1.900	1.872	1.713	1.604	1.428	1.312	1.158	1.167	1.126	1.012	0.931	0.869	0.881	1.381	1.987	1.590	0.854	0.513	0.421	0.426	0.333	0.320	0.395	0.444	0.312	0.224	0.210	0.277	0.415	1.097	13.35	54.75	153.0	144.8	14.87	0.607	0.059	0.028	0.029	0.022
575.0	4.331	3.172	5.011	5.701	5.246	6.811	7.266	13.76	32.58	18.27	9.642	12.18	43.59	163.6	103.5	4.206	3.485	3.141	3.200	3.068	2.634	2.566	2.589	2.397	2.526	2.328	2.398	2.481	2.542	2.538	2.414	2.325	2.441	2.240	1.807	1.741	1.681	1.571	1.433	1.327	1.210	1.227	1.033	0.936	0.942	0.916	0.772	0.707	0.654	0.644	0.715	1.230	1.571	1.391	0.658	0.357	0.326	0.260	0.269	0.261	0.272	0.394	0.265	0.193	0.156	0.259	0.398	3.119	12.36	35.17	90.27	77.94	17.80	0.370	0.040	0.042	0.032
580.0	3.813	5.409	5.671	5.084	4.356	5.340	5.701	7.831	26.98	25.83	9.687	9.439	16.10	95.53	170.1	12.93	2.993	2.895	2.608	2.291	1.998	1.991	1.921	2.022	2.171	1.988	1.956	1.990	2.158	2.024	1.930	1.736	1.808	1.778	1.553	1.510	1.395	1.305	1.220	0.939	0.982	0.943	0.808	0.804	0.734	0.627	0.592	0.579	0.544	0.455	0.494	0.664	1.050	1.440	0.828	0.397	0.283	0.233	0.235	0.238	0.225	0.321	0.313	0.198	0.113	0.171	0.161	0.802	2.895	7.968	22.88	51.15	54.40	9.079	0.104	0.041	0.039
585.0	3.734	4.871	3.822	4.016	3.757	3.864	4.550	6.355	18.76	33.17	11.51	7.936	8.972	40.42	168.2	60.93	2.480	2.242	2.132	1.865	1.819	1.728	1.549	1.686	1.711	1.591	1.560	1.598	1.826	1.774	1.639	1.534	1.504	1.390	1.332	1.236	1.155	1.004	0.972	0.789	0.842	0.812	0.723	0.630	0.622	0.525	0.506	0.441	0.456	0.436	0.396	0.405	0.634	1.126	1.063	0.496	0.247	0.216	0.196	0.175	0.151	0.261	0.322	0.263	0.158	0.142	0.156	0.320	0.796	1.896	5.239	14.69	46.30	32.40	4.585	0.059	0.012
590.0	2.574	5.185	3.885	4.996	3.329	4.037	3.839	4.865	10.21	26.68	19.70	7.620	6.680	13.84	85.80	133.0	15.84	1.706	1.516	1.561	1.547	1.429	1.444	1.349	1.292	1.398	1.313	1.341	1.405	1.242	1.349	1.184	1.145	1.030	1.031	1.035	0.820	0.744	0.798	0.673	0.682	0.573	0.545	0.519	0.524	0.503	0.461	0.395	0.344	0.362	0.289	0.294	0.361	0.655	0.987	0.762	0.368	0.212	0.171	0.149	0.140	0.152	0.192	0.251	0.203	0.132	0.123	0.172	0.278	0.532	1.258	3.348	13.02	29.90	32.33	9.900	0.328
595.0	2.424	3.573	3.141	3.470	2.915	3.932	3.659	3.932	6.335	17.22	27.55	10.57	5.910	6.605	24.89	114.7	82.29	1.869	1.291	1.326	0.999	1.195	1.076	1.027	1.053	1.189	1.000	0.997	1.088	1.020	1.072	1.001	0.835	0.906	0.831	0.807	0.650	0.648	0.582	0.559	0.634	0.518	0.536	0.387	0.440	0.423	0.424	0.276	0.261	0.278	0.258	0.206	0.245	0.332	0.607	0.731	0.536	0.207	0.128	0.088	0.130	0.138	0.114	0.173	0.170	0.224	0.120	0.088	0.155	0.241	0.351	0.800	2.943	6.998	18.68	35.46	10.69
600.0	2.725	3.163	2.665	2.873	2.280	2.384	3.076	3.316	4.744	10.58	25.64	15.11	5.624	4.670	7.908	62.80	133.7	9.603	1.089	1.170	0.901	0.955	0.847	1.118	0.939	0.954	0.819	0.841	0.945	0.759	0.874	0.831	0.678	0.685	0.636	0.592	0.522	0.538	0.515	0.502	0.509	0.397	0.433	0.370	0.341	0.379	0.314	0.289	0.223	0.201	0.186	0.177	0.214	0.214	0.332	0.585	0.622	0.399	0.164	0.129	0.112	0.131	0.111	0.118	0.134	0.255	0.143	0.081	0.122	0.111	0.161	0.202	0.707	1.612	4.837	23.42	30.92
605.0	3.399	3.760	2.257	3.201	2.350	2.068	2.687	3.512	4.719	6.676	19.47	21.25	5.540	4.173	4.215	24.03	125.2	49.57	1.098	1.004	0.945	0.826	0.758	0.706	0.781	0.702	0.706	0.904	0.742	0.636	0.854	0.724	0.619	0.574	0.573	0.510	0.479	0.439	0.437	0.334	0.405	0.320	0.375	0.315	0.346	0.269	0.235	0.204	0.236	0.188	0.200	0.174	0.134	0.146	0.187	0.387	0.556	0.500	0.245	0.104	0.071	0.080	0.091	0.096	0.074	0.213	0.201	0.138	0.096	0.089	0.075	0.096	0.195	0.374	1.106	6.739	26.27
610.0	2.675	3.263	2.226	2.063	2.059	2.199	2.594	3.001	3.997	5.376	12.33	23.08	9.785	3.952	3.023	7.354	59.14	101.1	14.57	0.857	0.789	0.691	0.697	0.537	0.605	0.569	0.539	0.611	0.570	0.543	0.637	0.551	0.510	0.471	0.478	0.342	0.376	0.358	0.313	0.371	0.299	0.246	0.246	0.195	0.240	0.208	0.214	0.205	0.176	0.151	0.173	0.133	0.123	0.134	0.153	0.199	0.333	0.460	0.354	0.147	0.099	0.065	0.087	0.059	0.054	0.101	0.161	0.160	0.113	0.080	0.062	0.063	0.081	0.107	0.286	1.535	7.331
615.0	1.894	2.447	2.986	1.995	2.067	1.917	2.344	2.200	3.402	4.683	7.200	15.79	17.03	4.276	2.997	3.150	16.09	82.18	67.26	1.211	0.739	0.554	0.443	0.448	0.541	0.455	0.472	0.470	0.457	0.605	0.558	0.487	0.385	0.426	0.398	0.339	0.360	0.292	0.229	0.279	0.214	0.207	0.231	0.154	0.163	0.174	0.213	0.181	0.152	0.139	0.134	0.096	0.086	0.088	0.086	0.131	0.183	0.313	0.402	0.235	0.114	0.053	0.093	0.080	0.056	0.068	0.085	0.129	0.159	0.090	0.046	0.036	0.042	0.042	0.086	0.365	1.656
620.0	1.431	1.944	3.574	1.700	2.054	1.719	2.607	1.991	3.164	4.807	5.225	10.54	19.92	5.296	2.552	2.132	4.834	40.29	104.8	9.728	0.491	0.385	0.480	0.466	0.499	0.385	0.467	0.429	0.339	0.397	0.503	0.313	0.294	0.444	0.379	0.366	0.298	0.233	0.207	0.224	0.150	0.204	0.211	0.165	0.166	0.169	0.160	0.111	0.115	0.108	0.130	0.063	0.069	0.067	0.086	0.065	0.117	0.184	0.317	0.285	0.122	0.059	0.068	0.058	0.069	0.064	0.068	0.091	0.137	0.127	0.057	0.021	0.026	0.033	0.032	0.088	0.394
625.0	1.373	3.588	3.122	2.402	1.394	1.911	1.702	2.296	2.638	3.921	4.359	7.137	18.09	8.965	2.552	1.641	2.288	14.46	90.75	44.70	0.541	0.325	0.341	0.425	0.426	0.287	0.390	0.282	0.356	0.300	0.362	0.316	0.277	0.255	0.348	0.292	0.260	0.222	0.218	0.209	0.160	0.244	0.125	0.102	0.136	0.129	0.126	0.120	0.093	0.093	0.095	0.062	0.078	0.074	0.052	0.089	0.068	0.128	0.187	0.308	0.210	0.098	0.072	0.056	0.064	0.045	0.036	0.098	0.089	0.132	0.109	0.033	0.016	0.068	0.015	0.030	0.125
630.0	1.049	2.519	2.397	2.238	0.988	1.801	1.658	2.210	2.739	3.638	4.169	5.195	12.16	13.79	3.276	1.690	1.674	4.327	39.96	82.37	11.73	0.401	0.356	0.340	0.314	0.305	0.339	0.300	0.269	0.233	0.312	0.277	0.235	0.205	0.227	0.173	0.163	0.193	0.169	0.174	0.152	0.175	0.097	0.103	0.121	0.099	0.095	0.109	0.079	0.088	0.085	0.060	0.076	0.084	0.051	0.064	0.050	0.082	0.111	0.196	0.188	0.132	0.062	0.024	0.033	0.044	0.051	0.086	0.054	0.080	0.139	0.053	0.030	0.030	0.012	0.014	0.047
635.0	1.592	2.244	1.748	2.049	1.685	1.079	1.651	2.031	2.774	3.301	3.813	4.623	6.458	13.38	7.363	1.711	1.357	1.699	10.57	57.77	56.19	0.951	0.331	0.310	0.306	0.263	0.281	0.256	0.234	0.235	0.269	0.227	0.179	0.164	0.228	0.165	0.172	0.133	0.111	0.093	0.111	0.123	0.098	0.088	0.072	0.090	0.082	0.061	0.054	0.076	0.060	0.076	0.064	0.066	0.045	0.053	0.062	0.034	0.045	0.109	0.141	0.152	0.073	0.018	0.036	0.055	0.057	0.044	0.037	0.047	0.127	0.095	0.049	0.014	0.037	0.020	0.008
640.0	1.530	3.057	1.711	1.689	2.392	1.034	1.973	1.906	2.686	3.694	3.754	3.977	4.882	10.34	11.29	2.419	1.382	1.323	2.965	26.85	83.54	8.458	0.328	0.240	0.324	0.218	0.195	0.228	0.162	0.157	0.156	0.170	0.160	0.168	0.156	0.140	0.144	0.112	0.122	0.073	0.065	0.118	0.080	0.105	0.064	0.071	0.065	0.064	0.089	0.071	0.053	0.055	0.045	0.089	0.063	0.046	0.042	0.033	0.015	0.057	0.124	0.145	0.105	0.032	0.027	0.019	0.020	0.044	0.036	0.043	0.066	0.062	0.067	0.009	0.016	0.011	0.004
645.0	2.683	1.859	2.545	1.550	1.749	1.429	1.774	2.160	2.633	3.283	3.550	4.099	4.307	6.788	12.73	3.815	1.276	1.172	1.236	8.684	68.78	36.21	0.479	0.271	0.329	0.244	0.168	0.225	0.222	0.147	0.165	0.203	0.144	0.155	0.117	0.117	0.089	0.126	0.094	0.115	0.083	0.116	0.076	0.058	0.042	0.088	0.051	0.065	0.081	0.037	0.056	0.041	0.049	0.037	0.033	0.022	0.020	0.035	0.031	0.035	0.045	0.117	0.145	0.122	0.069	0.054	0.026	0.050	0.041	0.029	0.048	0.028	0.079	0.040	-0.001	0.010	-0.005
650.0	2.880	4.908	2.579	1.457	1.396	1.066	2.100	2.411	2.934	2.860	3.662	3.964	3.703	4.383	10.87	6.025	1.488	1.047	0.935	2.698	36.19	64.49	2.809	0.267	0.300	0.194	0.176	0.197	0.170	0.163	0.181	0.150	0.142	0.143	0.110	0.083	0.093	0.089	0.102	0.095	0.073	0.091	0.094	0.076	0.076	0.082	0.049	0.050	0.052	0.036	0.049	0.025	0.066	0.032	0.056	0.032	0.025	0.034	0.037	0.023	0.029	0.058	0.102	0.152	0.061	0.049	0.038	0.050	0.067	0.026	0.025	0.013	0.051	0.076	0.042	0.012	-0.005
