Sample:	'1
File name:	Default_20230129_093215.FD3
Run date:	'09:25:54, 01/29/2023
Operator:	user
Comment:	'

Instrument
Model:	F-2700 FL Spectrophotometer
Serial number:	2190-003
ROM Version:	4J14000 07

Instrument parameters
Measurement type:	3-D scan
Data mode:	Fluorescence
EX  Start WL:	220.0 nm
EX  End WL:	600.0 nm
EX Sampling interval:	5.0 nm
EM  Start WL:	230.0 nm
EM  End WL:	650.0 nm
EM Sampling interval:	5.0 nm
Scan speed:	12000 nm/min
EX Slit:	5.0 nm
EM Slit:	5.0 nm
PMT Voltage:	700 V
Response:	Auto 
Corrected spectra:	Off
Contour interval:	50.000

Peak integration
Integration method:	Rectangular
Sensitivity:	1
Threshold:	1.000

Peaks
No.	ApexEX/EM(nm)	Height(Data)
1	245.0/265.0	3.342
2	245.0/360.0	594.6
3	245.0/370.0	589.0
4	250.0/365.0	587.6
5	250.0/545.0	-94.06
6	255.0/555.0	-67.13
7	270.0/295.0	 2555
8	270.0/585.0	113.4
9	275.0/300.0	 2606
10	275.0/600.0	88.57
11	290.0/640.0	-16.58
12	295.0/405.0	894.6
13	300.0/335.0	357.9
14	305.0/340.0	373.3
15	310.0/345.0	331.9
16	315.0/350.0	265.4
17	320.0/360.0	297.8
18	325.0/365.0	297.9
19	330.0/370.0	255.6
20	335.0/375.0	269.2
21	340.0/385.0	270.8
22	345.0/390.0	243.9
23	350.0/395.0	222.4
24	355.0/405.0	223.4
25	360.0/410.0	184.3
26	365.0/415.0	183.7
27	370.0/425.0	174.9
28	375.0/430.0	152.9
29	380.0/435.0	139.9
30	385.0/445.0	126.2
31	395.0/455.0	89.11
32	400.0/465.0	74.31
33	410.0/475.0	46.95
34	415.0/485.0	37.99
35	420.0/490.0	30.45
36	425.0/495.0	23.49
37	430.0/505.0	19.14
38	435.0/510.0	13.79
39	440.0/515.0	10.79
40	445.0/525.0	8.346
41	450.0/530.0	6.252
42	455.0/540.0	3.659
43	460.0/545.0	2.749
44	465.0/550.0	0.885
45	470.0/555.0	0.220
46	480.0/365.0	-4.381
47	490.0/375.0	-4.574
48	495.0/355.0	-4.450
49	505.0/275.0	-5.313
50	540.0/295.0	-0.848
51	545.0/300.0	-0.970
52	590.0/390.0	-4.584

Data points
	220.0	225.0	230.0	235.0	240.0	245.0	250.0	255.0	260.0	265.0	270.0	275.0	280.0	285.0	290.0	295.0	300.0	305.0	310.0	315.0	320.0	325.0	330.0	335.0	340.0	345.0	350.0	355.0	360.0	365.0	370.0	375.0	380.0	385.0	390.0	395.0	400.0	405.0	410.0	415.0	420.0	425.0	430.0	435.0	440.0	445.0	450.0	455.0	460.0	465.0	470.0	475.0	480.0	485.0	490.0	495.0	500.0	505.0	510.0	515.0	520.0	525.0	530.0	535.0	540.0	545.0	550.0	555.0	560.0	565.0	570.0	575.0	580.0	585.0	590.0	595.0	600.0
230.0	-607.2	-445.3	248.9	313.2	-218.9	-227.8	-194.2	-170.1	-149.0	-134.4	-117.1	-99.21	-86.54	-72.38	-56.21	-46.96	-39.68	-35.16	-30.81	-27.04	-24.16	-22.90	-20.91	-19.15	-17.71	-17.10	-15.83	-15.60	-15.00	-14.49	-14.48	-13.65	-12.22	-11.43	-11.08	-10.04	-9.365	-9.812	-9.138	-8.880	-8.783	-8.411	-8.481	-8.078	-8.038	-7.890	-6.825	-6.586	-5.098	-4.082	-4.882	-6.526	-6.326	-6.884	-6.424	-6.897	-7.115	-6.934	-7.033	-7.192	-6.808	-6.984	-7.036	-7.323	-7.193	-6.898	-7.273	-7.361	-7.197	-7.332	-7.386	-7.462	-7.339	-7.465	-7.373	-7.780	-8.200
235.0	-600.2	-499.1	-98.78	919.9	638.8	-159.4	-187.9	-161.3	-143.1	-135.6	-117.8	-99.64	-87.50	-71.56	-56.35	-47.18	-42.16	-35.07	-29.65	-25.49	-22.56	-22.92	-19.66	-18.81	-18.00	-17.45	-15.71	-15.39	-15.22	-14.60	-14.00	-13.27	-12.98	-11.86	-11.25	-9.570	-9.981	-9.573	-9.166	-9.256	-9.181	-8.092	-8.698	-8.367	-7.915	-8.075	-6.852	-7.245	-5.953	-4.448	-4.052	-4.272	-4.890	-6.190	-6.856	-6.621	-6.881	-6.712	-6.804	-7.272	-6.989	-7.007	-6.772	-7.432	-7.288	-7.169	-6.958	-7.453	-7.685	-7.466	-7.275	-7.941	-7.907	-7.559	-8.186	-8.127	-7.973
240.0	-621.1	-475.2	-343.5	351.9	 1594	646.9	-154.7	-171.1	-148.3	-130.8	-117.2	-96.30	-80.87	-67.92	-59.95	-47.08	-41.57	-33.92	-31.82	-26.64	-23.43	-22.23	-19.44	-18.60	-17.72	-16.86	-15.63	-15.83	-15.05	-13.89	-13.93	-12.96	-12.62	-11.74	-10.96	-10.10	-9.510	-9.212	-9.010	-8.903	-9.073	-8.396	-8.646	-7.914	-7.737	-8.186	-6.884	-6.784	-6.360	-5.200	-4.876	-3.605	-2.191	-3.925	-5.724	-6.662	-6.860	-6.540	-6.678	-6.914	-7.100	-7.101	-6.618	-6.868	-7.039	-7.004	-6.986	-7.721	-7.723	-7.474	-7.507	-7.529	-6.864	-7.762	-7.538	-7.911	-8.354
245.0	-600.5	-466.4	-366.5	-153.4	930.3	 2008	479.1	-158.9	-155.4	-133.6	-121.8	-96.15	-82.58	-68.28	-58.01	-48.46	-41.29	-31.95	-30.50	-26.25	-24.77	-22.52	-20.73	-19.25	-18.25	-16.47	-16.45	-15.45	-15.26	-14.20	-14.52	-13.01	-11.98	-11.28	-10.86	-9.928	-9.471	-9.762	-9.328	-9.181	-8.822	-8.788	-8.407	-7.914	-8.376	-8.063	-6.708	-6.709	-6.266	-5.004	-5.271	-5.744	-4.301	-2.472	-2.475	-4.213	-6.253	-6.878	-6.766	-6.746	-6.680	-7.281	-6.959	-7.177	-7.324	-7.311	-6.407	-7.836	-7.023	-7.788	-7.542	-7.389	-7.219	-7.089	-7.337	-7.524	-8.105
250.0	-591.8	-479.6	-341.2	-234.9	38.87	 1019	 1874	958.0	18.13	-130.3	-112.9	-101.7	-82.23	-70.32	-54.56	-46.35	-40.44	-35.57	-29.97	-27.05	-24.16	-21.71	-21.06	-19.40	-18.30	-16.77	-15.96	-15.17	-14.81	-14.72	-13.50	-13.49	-11.98	-11.30	-10.72	-10.13	-9.804	-9.544	-9.202	-9.315	-8.418	-8.670	-8.329	-8.207	-8.274	-8.114	-6.699	-6.809	-6.254	-5.054	-5.502	-6.492	-5.915	-5.352	-3.995	-2.544	-2.357	-2.579	-5.078	-6.487	-6.838	-7.079	-7.033	-7.131	-7.489	-7.274	-6.863	-7.476	-6.960	-7.286	-7.567	-7.145	-6.923	-7.325	-7.335	-7.950	-8.051
255.0	-575.5	-492.6	-360.0	-187.8	-117.4	70.84	619.0	 2565	 1425	44.12	-117.3	-101.7	-82.30	-71.15	-57.05	-45.41	-38.97	-36.33	-30.01	-27.30	-25.62	-21.54	-19.50	-19.57	-18.17	-17.30	-16.53	-15.56	-14.46	-14.81	-14.50	-13.44	-11.09	-11.29	-10.91	-10.35	-9.380	-9.273	-9.409	-8.980	-8.519	-8.435	-8.539	-7.719	-8.525	-7.399	-6.759	-7.122	-6.081	-5.026	-5.529	-6.365	-6.081	-6.884	-6.046	-5.848	-5.173	-2.377	1.130	1.214	-4.137	-6.491	-7.020	-7.023	-7.464	-7.306	-7.119	-7.122	-7.130	-7.351	-7.704	-7.522	-6.986	-7.458	-7.467	-7.764	-8.152
260.0	-591.4	-526.9	-410.2	-244.4	-59.43	-87.52	5.357	 1098	 3337	 1199	-24.03	-96.45	-86.06	-69.12	-58.50	-44.69	-39.54	-35.18	-29.82	-25.87	-24.56	-21.65	-21.22	-19.87	-17.94	-17.15	-16.60	-15.76	-15.11	-14.32	-14.80	-13.50	-11.04	-11.46	-11.06	-10.28	-9.978	-9.618	-9.129	-9.142	-8.463	-8.612	-8.553	-8.194	-8.158	-7.716	-6.848	-6.040	-6.566	-5.168	-5.400	-6.501	-5.871	-6.873	-5.973	-6.616	-6.665	-6.005	-3.406	0.715	3.609	-0.519	-4.988	-7.069	-7.511	-7.203	-7.461	-7.765	-7.370	-7.174	-7.766	-7.176	-7.241	-7.440	-7.500	-7.888	-8.209
265.0	-589.3	-546.6	-400.4	-301.8	-99.21	3.342	-118.7	155.0	 1702	 3998	946.6	-66.31	-83.97	-65.98	-54.39	-46.38	-40.24	-34.72	-30.73	-27.44	-24.26	-21.68	-21.43	-19.69	-18.30	-16.87	-16.67	-15.40	-14.67	-14.00	-14.20	-12.52	-12.35	-10.92	-10.87	-9.996	-9.524	-10.33	-9.519	-9.079	-8.454	-8.652	-8.622	-8.456	-7.838	-7.645	-6.901	-6.504	-6.320	-5.337	-5.553	-6.311	-6.194	-6.469	-5.676	-6.618	-6.925	-7.131	-5.828	-4.677	-1.195	2.906	3.619	-2.429	-6.765	-7.289	-7.449	-7.672	-7.374	-6.836	-7.558	-7.415	-7.327	-7.462	-7.434	-7.829	-7.786
270.0	-587.6	-526.2	-384.9	-319.0	-211.7	-20.62	60.43	-43.54	325.7	 1794	 3848	 2543	173.9	-64.62	-54.76	-46.15	-39.55	-34.31	-28.94	-26.65	-23.52	-21.94	-21.16	-19.64	-18.26	-16.57	-16.06	-15.09	-15.53	-14.46	-13.98	-13.02	-11.78	-11.29	-11.19	-10.18	-9.359	-9.640	-9.240	-9.332	-8.963	-8.628	-8.695	-8.289	-8.316	-7.411	-6.814	-6.846	-6.509	-5.542	-5.604	-6.604	-6.105	-6.821	-5.592	-6.320	-6.505	-6.819	-6.794	-6.400	-5.676	-3.577	-0.552	1.875	3.499	1.431	-3.896	-6.521	-7.468	-6.976	-7.265	-7.699	-7.289	-7.348	-7.503	-7.773	-8.254
275.0	-590.8	-477.7	-385.4	-319.8	-246.6	-150.9	71.58	202.2	86.82	455.1	 1364	 4560	 4226	206.5	-48.09	-43.63	-38.18	-34.14	-27.90	-25.56	-24.15	-22.19	-20.65	-19.68	-17.04	-17.65	-16.00	-14.92	-15.38	-14.76	-14.64	-13.02	-12.41	-11.83	-10.50	-9.579	-10.01	-9.597	-9.517	-9.251	-8.787	-8.689	-7.943	-8.235	-7.879	-7.466	-6.714	-6.938	-6.660	-5.288	-5.607	-6.725	-6.292	-6.778	-6.319	-6.688	-6.612	-5.313	-6.527	-6.275	-6.498	-6.031	-5.302	-4.598	-3.419	2.625	9.924	7.349	-2.923	-7.025	-7.244	-7.767	-7.472	-7.470	-7.612	-7.494	-7.922
280.0	-585.9	-454.3	-383.7	-314.7	-252.9	-163.3	6.974	379.0	404.2	456.1	789.1	 2181	 6308	 3237	52.93	-42.73	-36.11	-32.01	-26.31	-25.63	-24.77	-22.51	-20.67	-18.43	-16.68	-17.48	-15.78	-15.42	-15.68	-14.45	-13.99	-13.10	-11.32	-11.30	-10.54	-9.751	-10.34	-9.043	-9.399	-9.163	-8.966	-8.388	-8.321	-8.092	-7.726	-7.831	-6.498	-6.901	-6.282	-5.484	-5.299	-6.143	-6.209	-6.850	-6.119	-6.779	-6.694	-5.743	-5.730	-4.937	-5.753	-5.821	-5.735	-5.099	-5.171	-3.509	1.676	11.25	12.33	2.869	-5.839	-7.641	-7.553	-7.567	-7.441	-7.746	-8.057
285.0	-520.5	-460.6	-350.6	-285.1	-217.8	-121.8	3.760	333.5	861.1	896.7	 1124	 1387	 3211	 6370	585.2	-12.04	-35.41	-33.00	-27.07	-26.07	-24.39	-21.77	-19.88	-17.89	-17.43	-16.64	-15.18	-15.00	-15.90	-13.77	-13.66	-12.85	-12.02	-11.89	-10.51	-9.824	-10.21	-9.071	-9.717	-8.988	-8.547	-8.608	-8.381	-8.208	-8.182	-7.410	-6.752	-6.799	-5.958	-5.393	-5.671	-6.204	-5.928	-6.434	-5.576	-6.456	-6.083	-6.420	-5.559	-4.493	-4.495	-4.972	-4.914	-4.358	-5.216	-4.300	-3.356	-0.289	5.488	12.96	8.804	-1.795	-7.157	-7.522	-7.422	-8.123	-7.866
290.0	-523.8	-414.3	-316.4	-250.8	-190.4	-69.11	96.99	387.7	994.3	 1611	 1859	 1694	 1533	 2699	 4218	 2258	122.7	-30.68	-27.11	-25.78	-22.49	-20.94	-19.94	-18.31	-17.15	-16.67	-15.35	-15.80	-15.32	-14.00	-13.98	-12.92	-12.47	-11.56	-10.84	-9.952	-10.08	-9.721	-9.332	-9.070	-8.436	-8.694	-8.668	-8.683	-8.064	-7.766	-6.685	-6.747	-5.889	-5.184	-5.237	-6.236	-6.259	-6.223	-5.817	-6.527	-6.108	-6.169	-5.788	-4.879	-4.334	-3.490	-3.063	-2.928	-3.532	-3.307	-3.498	-3.215	-3.060	-0.881	2.994	6.278	7.238	2.243	-3.561	-7.245	-8.015
295.0	-544.5	-361.2	-312.8	-231.6	-145.2	-41.43	143.0	499.1	 1003	 1740	 2555	 2159	 1326	838.0	 1283	 4405	 3246	158.4	-26.22	-25.44	-21.10	-20.97	-20.08	-18.48	-17.61	-15.96	-15.34	-15.24	-14.12	-13.95	-14.70	-12.88	-12.40	-11.56	-10.58	-9.845	-9.505	-9.528	-9.210	-8.991	-8.417	-8.967	-8.644	-8.103	-7.416	-7.481	-6.336	-6.440	-5.788	-5.154	-5.302	-6.255	-6.440	-6.434	-5.763	-6.654	-6.275	-5.734	-5.411	-4.585	-4.176	-3.417	-2.709	-1.313	-0.848	-2.698	-2.531	-4.174	-5.205	-5.320	-4.695	-4.189	-0.893	5.503	13.55	7.168	-2.781
300.0	-544.5	-348.1	-275.6	-200.2	-141.2	-41.95	195.5	530.5	 1022	 1687	 2529	 2606	 1349	477.3	361.7	 1614	 5406	 2451	67.39	-22.70	-20.50	-20.96	-18.70	-18.57	-17.55	-15.38	-15.62	-14.24	-14.79	-14.26	-14.06	-13.01	-11.86	-11.57	-10.77	-10.25	-9.483	-9.620	-9.367	-9.081	-8.536	-8.400	-8.386	-8.310	-7.890	-7.678	-6.626	-6.493	-5.777	-4.918	-5.269	-6.559	-6.092	-6.605	-6.229	-6.373	-6.029	-6.328	-5.428	-4.795	-4.612	-3.386	-3.411	-1.903	-1.039	-0.970	-1.900	-3.391	-5.154	-5.740	-6.693	-6.138	-5.652	-3.422	2.648	11.72	13.40
305.0	-538.8	-358.0	-266.7	-234.3	-131.5	-26.73	181.4	511.3	999.3	 1606	 2169	 2520	 1575	432.5	186.9	413.7	 2364	 5537	 1688	7.926	-19.30	-19.83	-20.05	-19.20	-17.21	-15.85	-15.89	-14.75	-13.94	-14.02	-13.46	-13.29	-11.13	-11.04	-11.00	-10.11	-9.753	-9.709	-9.732	-9.064	-8.419	-8.994	-8.285	-7.832	-7.971	-7.657	-6.844	-6.223	-5.575	-5.244	-4.805	-6.095	-5.796	-6.464	-6.324	-5.699	-6.367	-5.789	-5.580	-4.711	-4.495	-3.880	-3.247	-2.573	-1.465	-1.559	-1.496	-2.913	-5.535	-6.410	-6.721	-6.421	-6.531	-6.046	-5.140	-0.834	6.925
310.0	-523.7	-375.6	-255.7	-200.9	-107.7	-18.13	152.0	443.0	828.1	 1335	 1799	 1919	 1531	663.2	209.2	162.3	577.2	 2250	 4148	 2228	87.18	-17.70	-18.02	-17.46	-16.96	-15.26	-15.00	-14.88	-15.09	-13.91	-13.64	-13.10	-11.49	-11.81	-10.80	-9.968	-9.729	-9.489	-9.181	-8.833	-8.864	-8.667	-8.151	-8.208	-7.748	-7.705	-6.835	-6.487	-5.906	-5.126	-5.364	-5.968	-5.602	-6.286	-6.189	-5.779	-6.249	-6.013	-5.364	-5.117	-4.834	-4.169	-3.728	-3.099	-3.108	-3.384	-2.882	-3.164	-4.479	-5.639	-5.958	-7.039	-6.782	-6.933	-6.768	-6.034	-4.059
315.0	-536.1	-356.7	-247.9	-142.9	-93.23	-19.29	122.9	335.0	665.2	 1080	 1416	 1460	 1127	828.9	463.1	135.9	172.6	521.4	 1219	 4113	 2136	126.3	-15.84	-15.64	-16.85	-15.29	-14.86	-14.18	-14.07	-14.16	-12.98	-12.98	-11.80	-11.71	-10.93	-9.576	-9.497	-9.561	-9.224	-9.281	-8.549	-8.447	-8.447	-8.262	-7.226	-7.391	-6.334	-6.749	-6.067	-5.221	-5.146	-5.985	-5.412	-6.236	-6.044	-6.186	-6.085	-5.592	-5.793	-5.382	-4.818	-4.467	-3.884	-4.084	-3.266	-3.823	-4.117	-4.559	-5.215	-5.106	-4.408	-6.752	-6.488	-6.786	-7.162	-7.265	-6.986
320.0	-575.1	-363.7	-193.9	-148.4	-93.82	-32.50	103.4	290.3	543.8	869.5	 1154	 1181	900.2	619.7	684.2	258.5	100.5	144.2	285.8	 1535	 4650	 1750	57.16	-15.54	-16.09	-15.12	-15.63	-14.76	-14.09	-14.72	-13.87	-12.36	-10.61	-11.59	-10.74	-9.586	-9.475	-9.028	-9.790	-9.132	-8.406	-8.626	-8.507	-8.200	-7.467	-7.499	-6.510	-6.577	-5.848	-5.284	-5.054	-6.393	-5.917	-6.377	-6.172	-5.649	-6.195	-5.979	-5.840	-6.339	-5.016	-5.385	-4.572	-4.868	-3.840	-4.536	-4.046	-4.822	-5.539	-5.485	-5.290	-5.987	-5.686	-6.535	-7.022	-7.094	-7.261
325.0	-581.5	-378.7	-206.4	-104.5	-72.15	-23.03	106.7	279.8	465.4	739.0	978.4	 1010	783.7	476.0	574.1	470.9	120.6	67.20	85.11	366.2	 2194	 4630	 1285	11.26	-15.44	-15.45	-14.36	-14.83	-14.55	-14.18	-13.53	-12.57	-11.30	-11.68	-10.26	-9.666	-9.158	-9.452	-9.363	-8.893	-7.942	-8.933	-8.711	-7.916	-7.556	-7.578	-6.535	-6.662	-5.849	-4.910	-5.248	-6.383	-6.123	-6.364	-5.560	-5.812	-6.096	-6.006	-5.568	-6.175	-5.558	-5.421	-4.799	-4.982	-4.479	-4.431	-5.008	-5.206	-5.344	-5.891	-6.050	-6.274	-5.657	-5.867	-7.023	-6.829	-7.807
330.0	-563.0	-382.9	-189.8	-32.21	16.88	46.38	149.6	240.6	421.0	619.1	800.4	799.5	660.6	427.1	386.1	452.5	330.5	105.0	49.71	100.6	519.2	 1978	 3645	 1899	66.13	-14.21	-13.81	-14.21	-14.24	-13.68	-13.90	-12.27	-11.61	-11.19	-11.02	-9.784	-9.478	-9.753	-8.998	-9.351	-8.404	-8.793	-8.658	-8.183	-7.801	-7.663	-6.567	-6.516	-5.693	-4.627	-5.013	-5.893	-5.705	-6.140	-5.639	-6.122	-6.059	-5.887	-5.480	-5.837	-5.373	-5.803	-5.116	-5.423	-5.024	-5.338	-5.338	-5.254	-5.741	-5.723	-6.249	-6.399	-6.135	-6.114	-5.870	-6.349	-7.444
335.0	-523.1	-365.3	-157.9	32.51	112.0	170.4	266.5	253.0	400.3	528.6	634.0	656.0	553.1	426.9	333.7	288.0	357.9	299.0	81.04	55.76	135.3	451.8	 1136	 3829	 1593	98.00	-11.76	-14.07	-13.69	-13.20	-13.24	-12.33	-11.61	-11.56	-10.75	-9.688	-9.541	-9.710	-9.165	-9.143	-8.756	-8.892	-8.500	-8.404	-7.835	-7.640	-6.266	-6.493	-5.489	-4.745	-4.728	-5.991	-5.837	-5.833	-5.009	-5.594	-6.027	-6.136	-6.008	-5.439	-5.814	-5.457	-6.033	-5.436	-5.123	-5.203	-5.573	-4.975	-6.354	-6.480	-6.777	-6.050	-6.208	-6.719	-6.473	-6.704	-6.183
340.0	-509.4	-376.8	-114.1	74.44	198.6	300.6	346.3	346.8	390.9	470.1	563.5	566.6	517.5	412.2	324.7	255.0	247.2	373.3	200.8	59.72	57.45	119.6	264.7	 1510	 4182	 1402	54.30	-12.99	-12.71	-12.24	-12.67	-12.88	-11.63	-11.37	-10.30	-9.431	-9.034	-9.499	-9.164	-9.144	-8.374	-9.055	-8.378	-8.415	-8.207	-7.622	-6.472	-6.331	-5.718	-4.962	-4.466	-5.813	-5.656	-6.027	-5.289	-5.505	-6.241	-5.791	-5.568	-5.798	-5.768	-5.865	-6.056	-5.022	-5.455	-5.978	-5.550	-5.905	-6.119	-6.063	-6.369	-6.083	-6.607	-7.057	-6.794	-7.015	-6.779
345.0	-571.9	-331.1	-107.6	121.1	280.4	365.1	413.4	394.4	390.4	458.4	494.0	486.4	458.5	387.6	322.6	231.7	192.2	275.2	331.9	121.4	51.67	53.89	74.31	361.3	 2069	 4338	 1080	10.47	-12.32	-12.85	-12.69	-11.69	-11.96	-11.10	-9.951	-9.949	-9.577	-9.743	-9.287	-8.774	-8.539	-8.409	-8.486	-8.460	-7.771	-8.172	-6.807	-6.626	-6.004	-4.869	-4.373	-5.711	-5.128	-5.711	-5.141	-5.628	-5.923	-5.733	-5.674	-5.535	-5.685	-5.626	-6.083	-5.520	-5.357	-5.787	-5.885	-6.058	-6.192	-6.248	-6.581	-6.432	-6.370	-7.003	-6.849	-7.278	-6.923
350.0	-541.3	-344.7	-84.76	197.4	340.3	488.7	484.6	437.1	417.7	444.3	429.6	415.1	411.2	351.4	309.9	239.5	186.0	183.2	262.9	265.4	120.2	54.42	45.14	99.69	501.3	 1935	 3332	 1725	58.22	-11.22	-12.33	-11.39	-11.35	-10.92	-9.973	-9.412	-10.05	-9.258	-8.729	-8.651	-8.866	-8.637	-8.443	-8.109	-7.912	-7.706	-6.687	-6.474	-5.843	-4.578	-4.797	-5.500	-5.140	-5.733	-4.826	-4.879	-5.374	-5.873	-5.427	-5.333	-5.788	-5.822	-5.896	-5.790	-6.400	-5.734	-6.035	-6.147	-6.132	-6.397	-6.432	-6.335	-6.463	-6.806	-7.169	-7.139	-7.404
355.0	-527.3	-354.8	-71.12	161.6	396.3	561.6	570.7	469.7	433.6	404.7	406.4	356.6	378.7	344.3	312.8	250.0	209.9	180.9	178.7	249.6	268.4	104.5	57.92	53.11	137.1	446.9	 1079	 3566	 1362	81.02	-11.22	-10.97	-11.03	-10.52	-9.703	-9.443	-9.339	-9.826	-9.115	-8.821	-8.461	-8.853	-8.615	-8.190	-8.732	-7.366	-6.861	-6.613	-5.480	-4.473	-4.879	-5.693	-4.855	-5.420	-4.888	-4.450	-5.222	-5.081	-5.582	-5.514	-5.392	-5.496	-5.876	-5.990	-6.007	-5.836	-6.201	-6.256	-6.322	-6.525	-6.305	-6.063	-6.300	-6.549	-6.962	-6.880	-7.531
360.0	-552.2	-352.3	-65.92	218.7	464.7	594.6	573.5	486.0	440.9	411.6	383.4	340.5	348.6	343.4	318.3	276.3	236.3	201.4	184.0	191.8	297.8	211.7	86.14	60.24	64.04	122.6	259.6	 1483	 4040	 1189	39.44	-10.07	-10.42	-9.872	-9.713	-9.500	-9.106	-9.804	-9.157	-9.389	-7.953	-8.381	-8.381	-8.377	-8.530	-7.621	-6.356	-6.393	-5.396	-4.728	-4.677	-5.539	-4.581	-5.131	-4.844	-4.925	-5.522	-5.074	-6.077	-5.474	-5.567	-5.780	-5.510	-5.567	-6.199	-6.117	-6.407	-6.366	-6.471	-6.496	-6.195	-5.992	-6.137	-5.939	-6.733	-6.599	-6.929
365.0	-558.2	-315.8	-78.60	249.0	508.2	571.3	587.6	501.8	424.8	382.2	347.5	336.2	343.1	359.6	338.6	313.5	271.1	236.5	203.0	188.1	230.3	297.9	157.4	78.75	59.11	62.65	81.66	362.3	 2132	 4032	920.2	4.188	-10.09	-11.06	-9.373	-8.976	-8.320	-9.292	-9.192	-9.197	-8.316	-8.430	-8.430	-8.105	-8.082	-7.534	-6.370	-6.388	-5.838	-4.372	-4.626	-5.407	-4.381	-4.978	-4.870	-4.956	-5.320	-5.664	-5.917	-5.413	-5.540	-6.026	-5.303	-6.078	-5.952	-6.198	-6.252	-6.299	-6.649	-6.402	-6.403	-6.192	-6.415	-6.078	-7.068	-6.711	-6.850
370.0	-531.2	-323.9	-61.67	237.1	476.8	589.0	576.7	478.5	419.9	369.0	341.0	335.3	347.0	389.3	407.6	389.6	348.9	307.1	262.3	218.8	206.5	244.9	255.6	154.0	84.36	64.82	53.72	103.1	519.1	 1927	 3257	 1537	45.08	-9.632	-9.247	-8.826	-8.553	-8.945	-9.005	-8.922	-8.405	-8.248	-8.725	-7.675	-7.710	-7.556	-6.723	-6.425	-5.425	-4.458	-4.580	-5.235	-4.813	-5.069	-4.733	-5.052	-5.146	-5.601	-5.767	-5.461	-5.388	-6.070	-5.652	-6.183	-5.992	-6.060	-6.240	-6.040	-6.602	-6.334	-5.993	-6.269	-6.245	-6.113	-6.235	-6.587	-6.537
375.0	-548.2	-363.1	-39.42	243.5	524.0	559.8	559.0	471.8	404.7	378.9	355.0	338.1	399.7	461.6	490.9	486.9	453.6	396.9	342.2	275.9	222.9	207.2	239.8	269.2	143.0	84.33	61.54	57.24	136.7	442.3	 1152	 3560	 1101	58.93	-8.364	-8.414	-8.294	-9.478	-8.753	-8.361	-8.481	-9.022	-8.607	-8.620	-7.675	-7.221	-6.172	-6.035	-5.467	-4.669	-4.415	-5.152	-4.837	-5.623	-4.574	-5.324	-5.504	-5.347	-5.352	-6.062	-5.702	-6.382	-5.847	-6.598	-6.201	-6.412	-6.563	-6.371	-6.504	-6.402	-5.947	-6.236	-6.102	-5.803	-6.083	-5.945	-6.590
380.0	-576.4	-369.7	-18.93	231.5	444.1	554.0	547.2	458.5	381.1	346.1	345.3	352.4	424.8	503.6	573.5	582.5	528.5	480.9	405.6	316.5	249.7	205.6	205.1	268.6	209.3	110.8	72.66	54.70	60.34	115.6	273.4	 1597	 3605	926.5	23.00	-8.431	-8.462	-8.440	-8.617	-8.398	-8.320	-8.652	-8.468	-8.138	-7.431	-7.388	-6.286	-6.279	-5.367	-4.558	-4.243	-5.257	-4.830	-5.470	-4.837	-5.295	-5.508	-5.868	-5.576	-6.021	-5.922	-6.380	-5.891	-6.130	-6.252	-6.205	-6.430	-6.485	-6.036	-6.055	-5.832	-6.159	-5.974	-5.012	-5.655	-5.798	-6.368
385.0	-589.6	-373.5	-19.39	245.7	443.6	524.1	512.8	414.5	365.8	342.1	354.1	378.6	462.6	569.2	644.9	675.1	621.9	547.8	453.8	352.1	275.2	218.8	196.9	218.5	270.8	174.0	90.11	63.90	51.07	49.95	76.29	391.4	 2084	 3434	646.4	-1.326	-7.181	-8.332	-8.801	-8.347	-8.115	-8.590	-8.210	-8.171	-7.378	-7.339	-6.609	-6.841	-5.109	-4.658	-4.295	-5.158	-4.992	-5.014	-4.847	-5.522	-5.757	-5.600	-5.655	-5.851	-6.191	-5.803	-6.250	-6.303	-6.197	-6.241	-6.118	-5.898	-5.842	-5.928	-5.688	-5.773	-5.304	-4.868	-5.500	-5.939	-5.863
390.0	-575.6	-347.7	-26.50	243.9	442.6	463.2	436.5	360.2	339.2	321.4	333.4	391.3	512.8	631.0	729.5	768.2	725.9	623.6	510.8	394.9	299.7	242.3	211.1	191.9	222.7	243.9	146.2	84.87	62.80	45.67	40.26	100.5	516.6	 1795	 2676	 1115	31.97	-7.482	-7.960	-7.882	-7.870	-8.018	-8.006	-7.785	-7.374	-7.534	-6.666	-6.611	-5.347	-4.620	-4.381	-4.997	-4.921	-5.436	-4.978	-5.457	-5.784	-5.713	-5.679	-5.945	-6.231	-5.959	-5.866	-6.029	-6.054	-6.282	-5.986	-5.619	-5.919	-5.912	-5.416	-5.440	-5.498	-4.878	-4.584	-5.412	-5.693
395.0	-536.4	-337.6	-83.95	253.8	415.2	387.8	413.3	313.1	285.0	311.5	318.5	399.3	548.1	676.5	795.3	841.3	784.4	700.6	552.3	423.0	316.0	259.1	221.2	195.2	188.5	207.0	222.4	135.3	76.20	55.52	40.53	43.47	128.3	407.7	 1066	 3014	856.6	40.18	-6.952	-7.493	-8.112	-8.477	-8.164	-7.891	-6.973	-7.290	-6.556	-5.935	-5.304	-5.109	-4.533	-5.271	-5.024	-4.967	-5.204	-5.556	-5.569	-6.138	-6.041	-5.633	-5.826	-6.109	-5.798	-6.344	-6.573	-5.939	-6.183	-6.004	-5.755	-5.651	-5.361	-4.774	-4.892	-4.918	-5.169	-5.320	-5.322
400.0	-529.9	-326.2	-70.10	241.3	409.5	397.8	342.6	302.5	266.6	277.6	306.6	396.2	535.6	684.9	833.3	879.3	815.8	721.2	565.1	434.3	321.9	261.9	224.8	198.1	180.2	175.9	217.6	196.4	99.08	67.60	49.88	38.44	45.16	101.0	253.3	 1511	 2889	709.8	11.45	-7.192	-7.866	-7.847	-8.260	-7.496	-7.456	-7.244	-6.740	-6.062	-5.681	-5.064	-4.517	-5.193	-5.091	-5.500	-5.457	-5.749	-5.102	-6.322	-6.014	-5.478	-5.812	-5.906	-5.617	-6.226	-6.253	-6.318	-6.304	-5.891	-5.928	-5.523	-5.614	-4.511	-4.940	-5.059	-4.993	-4.570	-5.136
405.0	-539.0	-343.5	-111.6	168.5	368.0	382.3	318.2	273.0	259.7	255.5	319.3	398.2	525.8	714.2	828.7	894.6	820.3	726.2	564.0	441.6	323.5	265.6	224.5	200.1	186.3	162.1	177.2	223.4	144.4	81.99	56.16	45.42	33.68	36.09	65.48	376.5	 1798	 2607	488.7	-2.781	-7.605	-7.364	-7.366	-7.340	-7.842	-7.367	-6.549	-6.714	-5.471	-4.876	-4.697	-5.182	-5.095	-5.470	-5.300	-5.674	-5.240	-5.920	-6.114	-5.848	-5.950	-5.922	-6.313	-6.320	-5.985	-6.161	-6.001	-5.204	-5.729	-5.551	-5.502	-5.368	-5.232	-5.186	-4.759	-5.128	-4.704
410.0	-531.8	-348.1	-106.0	161.4	308.2	319.3	266.1	250.6	224.9	254.6	325.3	397.2	542.2	690.8	829.6	856.4	807.5	689.4	550.7	412.3	316.7	255.7	221.8	202.0	189.6	167.8	159.7	178.8	184.3	125.8	74.07	53.38	38.37	28.94	25.55	90.94	450.3	 1447	 2047	447.1	24.32	-7.232	-7.461	-7.826	-7.647	-7.398	-6.521	-6.299	-5.623	-4.668	-4.671	-5.422	-5.256	-5.319	-5.607	-5.859	-5.612	-6.158	-6.035	-6.193	-6.366	-6.241	-6.104	-6.624	-5.833	-6.190	-5.850	-5.355	-5.884	-5.580	-5.356	-5.298	-4.795	-5.067	-4.664	-4.831	-5.271
415.0	-570.7	-386.7	-125.5	122.8	257.8	278.7	262.3	232.8	203.5	246.1	302.8	390.3	517.8	655.6	758.5	789.8	754.3	643.0	522.1	389.1	298.9	246.7	219.2	202.7	180.7	171.2	158.0	149.4	158.8	183.7	115.0	66.40	48.86	34.11	25.10	30.85	106.7	325.7	846.9	 2120	714.3	28.76	-7.387	-7.271	-7.492	-7.262	-5.981	-6.341	-5.643	-4.713	-4.494	-5.484	-5.243	-5.899	-5.445	-6.097	-6.093	-6.592	-6.841	-6.330	-6.033	-5.803	-5.959	-6.456	-5.883	-6.098	-5.932	-5.934	-5.835	-5.435	-5.097	-5.448	-5.194	-4.925	-5.269	-5.745	-5.187
420.0	-534.2	-405.7	-146.4	81.55	225.8	212.3	225.7	201.0	204.8	229.8	298.2	362.9	496.1	618.0	715.5	749.6	703.8	614.0	490.2	372.6	290.1	238.8	211.1	197.2	184.5	169.6	160.2	143.0	144.5	176.4	160.0	86.09	55.44	41.80	27.72	21.80	32.30	75.77	199.1	 1142	 2181	556.8	2.962	-6.886	-7.820	-7.195	-6.124	-6.477	-5.794	-4.930	-4.596	-5.442	-5.017	-6.081	-5.422	-6.229	-6.181	-5.952	-5.943	-6.133	-6.221	-6.020	-5.753	-6.245	-6.411	-6.048	-6.333	-6.142	-5.525	-5.599	-5.325	-4.957	-5.405	-5.010	-5.314	-5.688	-5.885
425.0	-541.8	-369.0	-108.6	51.85	180.5	200.9	206.6	186.2	199.4	219.5	282.1	344.0	454.3	568.7	664.9	698.4	642.6	570.0	449.3	350.8	270.2	220.7	204.6	187.7	181.2	166.1	159.8	149.6	139.6	150.4	174.9	118.9	64.11	46.77	33.58	23.40	17.43	21.40	46.31	289.6	 1415	 1956	87.21	-4.371	-6.894	-6.812	-6.511	-6.425	-5.647	-5.038	-4.509	-5.826	-5.378	-5.742	-5.483	-6.248	-6.231	-6.059	-6.061	-5.717	-6.167	-6.360	-6.237	-6.410	-6.243	-6.412	-5.936	-5.968	-5.316	-5.912	-5.987	-5.185	-5.432	-5.324	-5.413	-5.595	-5.945
430.0	-573.8	-386.8	-162.0	24.26	135.1	180.0	159.8	164.2	180.2	218.2	264.9	331.1	425.4	514.4	597.9	629.2	587.6	513.7	406.2	318.2	254.2	207.1	192.1	185.1	174.8	167.8	164.7	153.9	139.1	136.1	146.5	152.9	100.8	60.29	41.37	29.15	19.39	14.43	15.19	66.58	356.7	 1137	 1671	394.5	18.52	-6.587	-6.467	-6.332	-5.723	-4.487	-4.573	-5.986	-5.798	-5.787	-5.414	-5.817	-6.238	-6.198	-6.332	-6.140	-5.912	-6.600	-6.337	-6.162	-6.453	-6.272	-6.224	-6.174	-5.834	-6.245	-5.642	-5.730	-5.472	-5.435	-5.718	-5.951	-5.589
435.0	-567.0	-396.2	-212.8	-21.30	98.41	144.8	138.9	141.9	149.0	205.5	244.8	308.1	402.1	466.1	531.3	559.8	513.2	453.4	362.5	289.9	232.5	196.4	186.6	178.0	169.3	165.8	160.3	156.5	146.9	136.1	130.6	134.1	139.9	84.25	50.30	36.56	24.43	16.21	12.04	18.46	80.03	254.8	766.4	 1786	622.7	22.17	-6.001	-5.049	-5.952	-4.407	-4.578	-5.574	-5.469	-5.494	-5.709	-5.894	-5.949	-6.238	-6.135	-6.153	-6.131	-6.218	-6.243	-6.386	-6.297	-6.313	-6.078	-6.425	-6.289	-6.663	-6.021	-5.417	-5.828	-5.943	-5.869	-6.159	-5.877
440.0	-546.7	-387.5	-208.1	-41.21	103.1	118.6	120.9	134.2	149.1	192.2	243.0	269.2	367.0	428.2	481.8	511.6	472.9	410.1	331.9	267.8	212.9	188.0	173.4	166.8	170.6	163.8	163.8	153.6	147.4	137.0	130.1	118.8	136.3	113.3	63.34	42.80	29.19	19.86	11.52	9.984	20.36	56.97	180.7	999.0	 1862	482.2	2.289	-5.094	-5.743	-4.546	-4.921	-5.868	-5.540	-6.079	-5.663	-5.794	-6.111	-6.455	-6.055	-6.155	-6.088	-6.411	-6.470	-6.364	-6.348	-6.553	-6.513	-6.279	-6.390	-6.645	-6.139	-5.679	-6.116	-6.039	-6.206	-6.303	-6.353
445.0	-510.2	-379.7	-234.3	-66.73	67.49	52.85	109.0	125.7	169.2	192.8	218.8	268.9	346.9	384.2	438.4	453.2	419.5	364.5	305.9	251.6	198.7	177.5	167.5	160.7	162.5	158.9	159.5	155.2	149.0	137.9	132.8	117.1	117.1	126.2	86.41	47.73	31.88	22.89	14.79	10.25	8.775	14.84	40.11	254.5	 1276	 1756	69.71	-3.564	-5.452	-4.710	-4.861	-5.680	-5.700	-6.165	-6.015	-5.845	-6.196	-6.299	-6.198	-6.252	-5.509	-6.574	-6.177	-6.543	-6.357	-6.456	-6.621	-6.597	-6.683	-6.288	-6.089	-5.655	-6.313	-6.410	-6.466	-6.197	-6.680
450.0	-552.0	-365.1	-212.1	-75.62	21.50	57.97	103.3	117.9	153.1	181.8	219.9	254.0	308.1	345.6	374.9	379.1	366.6	316.3	261.5	214.7	181.6	157.9	150.1	152.0	149.6	152.7	150.3	149.4	140.6	138.1	131.0	116.5	104.3	104.8	102.9	69.53	40.00	26.37	19.17	13.83	8.835	7.435	10.02	56.05	324.0	 1081	 1433	333.7	15.51	-4.458	-4.597	-5.589	-5.699	-6.053	-6.027	-6.127	-6.657	-6.447	-6.094	-6.219	-6.081	-6.317	-6.190	-6.310	-6.482	-6.543	-6.644	-6.748	-6.640	-6.461	-6.385	-6.531	-5.931	-6.518	-6.574	-6.482	-6.907
455.0	-560.4	-337.4	-69.70	-45.93	1.420	45.17	86.52	107.0	148.1	172.2	184.6	227.7	261.7	286.0	320.1	318.9	303.2	264.9	225.5	184.0	160.1	141.3	132.7	135.7	136.2	140.5	140.8	138.7	137.6	131.2	125.5	110.9	97.67	87.59	88.42	89.11	55.44	32.35	22.20	16.22	11.78	7.332	5.310	12.20	71.14	241.5	645.9	 1596	492.9	14.75	-4.663	-5.681	-5.587	-5.630	-5.884	-5.927	-6.517	-6.306	-6.530	-6.524	-6.544	-6.794	-6.386	-6.489	-6.485	-6.551	-6.235	-6.739	-6.615	-6.623	-6.544	-6.729	-6.034	-6.559	-6.528	-6.581	-6.692
460.0	-579.7	-412.4	8.943	3.691	-49.86	18.89	61.42	76.33	125.0	148.6	161.1	185.1	242.4	243.7	285.7	275.3	262.5	238.1	196.1	158.8	142.3	125.7	126.3	125.9	124.1	130.7	125.6	128.6	128.8	127.2	118.2	105.1	93.65	83.63	72.56	83.73	69.56	38.26	24.07	18.00	13.73	8.966	4.224	3.410	15.14	52.22	151.8	908.8	 1572	334.9	2.187	-5.379	-5.229	-5.552	-5.587	-5.925	-6.646	-6.321	-6.213	-6.430	-6.255	-6.666	-6.331	-6.255	-6.362	-6.646	-6.677	-6.552	-6.568	-7.028	-6.770	-6.077	-6.534	-5.772	-6.341	-7.058	-6.804
465.0	-563.9	-446.0	31.38	235.5	-38.73	-23.04	35.79	65.44	92.63	114.3	139.2	172.0	212.0	230.1	247.0	234.0	237.2	206.7	168.8	145.2	127.7	115.1	115.7	114.3	115.6	123.0	124.6	120.4	118.8	117.6	110.3	101.4	91.03	80.18	67.09	70.23	74.31	51.06	28.92	19.37	14.06	9.508	5.445	2.350	3.400	10.48	31.94	233.4	 1108	 1310	55.77	-4.578	-5.182	-5.747	-5.427	-5.945	-6.688	-6.340	-6.368	-6.360	-6.632	-7.082	-6.000	-6.575	-6.581	-6.678	-6.891	-6.443	-6.526	-6.336	-6.458	-6.972	-6.144	-6.679	-6.545	-6.922	-6.576
470.0	-578.3	-451.9	-158.0	492.6	181.8	-26.50	11.44	47.80	83.44	103.8	124.3	143.3	171.9	190.5	201.8	200.8	186.2	168.2	142.8	120.9	107.2	101.6	99.83	100.9	104.1	105.8	107.9	105.5	106.3	107.3	100.2	95.94	83.27	74.21	64.11	57.01	57.24	57.44	37.27	21.69	14.06	9.527	6.327	2.576	1.394	1.258	6.447	50.20	281.0	848.4	 1012	297.3	11.17	-5.711	-5.861	-5.904	-6.316	-6.323	-6.254	-6.420	-6.069	-6.531	-6.034	-6.295	-6.672	-6.577	-6.690	-6.404	-6.790	-6.822	-6.784	-6.797	-6.656	-6.713	-6.957	-6.712	-6.927
475.0	-579.0	-450.7	-285.2	248.3	674.9	10.16	2.393	7.289	55.58	72.70	101.2	125.4	160.7	148.0	166.3	164.1	150.2	137.3	116.8	100.5	94.61	88.30	88.28	84.26	89.61	92.78	96.49	91.43	96.43	95.28	93.37	89.75	77.93	68.14	57.95	49.67	43.63	46.20	46.95	29.22	15.25	10.16	5.166	4.263	1.095	-0.103	0.544	9.120	60.82	189.2	468.3	 1061	399.8	9.380	-5.698	-5.992	-6.241	-6.362	-6.793	-6.386	-6.194	-6.893	-6.210	-6.331	-6.360	-6.644	-7.054	-6.656	-7.182	-6.390	-6.394	-6.700	-6.933	-6.607	-6.633	-7.396	-7.231
480.0	-560.9	-455.9	-326.1	-21.00	880.3	199.6	-3.062	18.07	30.83	49.22	81.63	112.6	131.1	128.0	144.4	139.9	135.0	113.5	96.85	91.40	83.97	78.56	74.43	77.94	81.77	84.45	88.05	85.64	87.84	88.69	84.84	81.15	71.35	64.45	53.75	44.99	39.07	36.53	43.78	37.09	19.25	10.67	6.541	3.977	1.449	0.335	-0.094	0.375	11.56	40.53	109.7	595.3	 1079	295.4	-2.264	-6.036	-6.480	-5.620	-6.828	-6.546	-6.195	-6.702	-6.771	-6.625	-6.715	-6.914	-6.729	-6.847	-6.936	-6.764	-6.587	-6.878	-6.609	-6.499	-7.062	-7.089	-7.539
485.0	-591.9	-430.7	-334.2	-162.3	616.3	653.9	-22.36	-0.775	22.10	39.01	63.38	96.83	101.8	119.0	122.5	126.2	116.2	97.64	82.88	77.23	70.23	65.55	67.81	70.03	69.99	73.81	80.40	81.75	82.06	82.27	79.08	76.37	69.21	59.45	50.88	42.59	36.24	30.33	34.65	37.99	24.75	11.63	6.588	3.819	1.618	0.474	-0.882	-1.531	1.228	7.732	22.62	151.3	759.5	971.6	55.55	-5.129	-6.534	-6.036	-6.894	-5.863	-6.453	-6.591	-6.678	-6.953	-6.596	-6.787	-6.862	-6.592	-6.202	-6.659	-6.946	-7.130	-6.882	-7.024	-7.553	-7.253	-7.644
490.0	-614.6	-478.0	-361.0	-211.2	106.3	926.7	259.7	-21.67	9.589	20.08	52.66	79.40	74.79	90.78	100.1	102.0	94.67	79.16	73.71	63.04	59.15	55.16	58.13	61.57	63.93	65.58	68.93	71.95	72.42	74.25	70.40	66.56	62.70	54.03	46.70	41.09	33.96	28.12	26.05	29.73	30.45	18.41	7.441	4.468	1.963	0.811	-0.337	-1.468	-1.105	0.210	2.973	30.49	190.6	593.1	713.2	286.8	9.461	-5.851	-6.329	-6.350	-6.347	-6.665	-6.717	-6.819	-6.780	-6.949	-6.683	-6.362	-6.904	-6.883	-6.729	-7.045	-7.198	-7.322	-6.873	-7.214	-7.740
495.0	-602.3	-495.6	-334.7	-211.7	-100.1	441.2	884.9	10.15	6.508	13.17	33.71	59.60	56.18	68.26	77.52	78.61	74.10	63.34	59.66	53.94	45.66	45.40	50.35	50.65	54.56	56.49	60.39	61.71	64.17	62.24	66.65	59.94	58.27	49.01	40.26	37.39	30.89	24.94	22.45	19.65	23.08	23.49	12.25	4.670	3.814	0.575	0.262	-1.224	-1.175	-1.314	-1.069	4.350	39.29	130.6	360.7	987.9	407.8	8.746	-6.358	-6.111	-6.564	-6.695	-6.838	-7.009	-6.223	-6.814	-6.528	-6.297	-6.728	-7.150	-6.513	-7.106	-7.154	-7.376	-7.396	-7.537	-7.624
500.0	-599.8	-513.5	-326.9	-219.5	-140.5	62.54	 1027	259.0	-11.15	1.272	21.75	45.93	48.97	53.15	63.09	58.53	58.44	51.76	47.71	44.24	39.20	40.00	41.79	44.03	46.41	49.84	50.67	52.81	53.75	55.59	56.11	51.79	50.80	43.52	37.66	32.71	28.55	24.30	20.01	15.52	17.10	22.49	17.42	6.786	3.360	0.486	0.465	-1.391	-0.738	-1.191	-2.049	-2.001	5.986	25.81	82.91	543.6	 1028	74.08	-2.727	-5.848	-6.415	-6.732	-7.034	-6.876	-6.969	-6.601	-6.732	-6.972	-7.036	-7.076	-7.171	-7.068	-7.188	-7.105	-6.978	-7.756	-7.590
505.0	-574.1	-481.7	-329.3	-231.4	-166.4	-74.12	670.8	732.0	-16.22	-10.03	9.074	32.02	36.82	43.49	53.14	48.74	50.91	44.33	41.75	36.22	33.13	32.50	38.79	38.43	40.68	42.48	43.59	45.25	49.74	47.73	49.91	43.64	42.02	38.70	34.30	30.30	25.96	21.88	18.63	13.90	14.06	16.32	19.14	10.86	4.227	0.826	0.414	-0.752	-1.387	-1.772	-1.844	-3.270	-1.912	1.768	15.21	134.4	707.3	961.6	59.28	-5.005	-6.262	-6.646	-6.829	-6.764	-7.180	-6.946	-7.149	-7.210	-7.124	-7.396	-6.999	-7.111	-6.875	-7.131	-7.246	-7.371	-7.404
510.0	-579.9	-497.8	-371.9	-214.1	-168.2	-123.8	143.2	966.2	351.4	-29.49	-9.931	11.89	22.34	25.42	35.55	36.05	36.75	29.30	26.34	26.44	24.61	26.95	27.61	29.20	31.72	35.07	34.71	38.53	40.52	40.19	41.23	40.17	36.94	31.78	29.61	25.68	22.62	17.86	15.86	12.91	11.02	11.05	12.99	13.79	8.000	0.989	0.591	-0.996	-1.013	-1.402	-2.055	-3.733	-3.704	-3.324	-0.199	25.94	176.3	607.8	681.7	261.8	6.828	-6.625	-6.688	-6.592	-7.193	-7.043	-7.334	-6.977	-7.266	-7.207	-7.133	-7.123	-6.958	-6.964	-7.286	-7.404	-7.503
515.0	-595.3	-519.4	-382.7	-220.7	-164.9	-155.9	-45.78	422.0	 1012	50.02	-17.65	0.744	20.38	17.32	20.41	23.14	23.23	19.65	19.00	18.92	17.67	17.39	19.35	23.06	22.67	30.02	28.96	31.54	33.07	31.75	34.13	31.88	29.56	26.86	23.23	22.97	17.47	14.66	14.01	9.634	8.063	6.409	6.748	10.44	10.79	4.081	0.745	-1.853	-1.364	-0.948	-1.697	-3.480	-4.213	-4.754	-3.769	2.117	34.69	132.8	324.0	810.6	330.2	3.135	-6.850	-6.720	-7.160	-7.240	-6.619	-6.946	-7.161	-7.353	-7.169	-7.049	-7.057	-7.194	-7.006	-7.411	-8.111
520.0	-606.4	-489.8	-388.8	-269.8	-167.1	-153.4	-107.0	59.02	 1082	383.0	-25.28	-16.88	-1.939	6.788	14.74	15.80	13.95	15.54	14.92	16.39	13.64	12.78	13.85	18.68	20.19	24.09	23.18	24.51	25.23	26.60	27.61	26.04	24.24	23.19	21.24	19.71	16.44	12.67	10.75	8.319	6.737	4.353	4.248	5.454	10.44	7.490	1.488	-1.417	-1.379	-0.873	-1.566	-3.978	-4.345	-5.175	-4.657	-3.761	2.877	25.41	73.06	441.8	761.3	68.76	-4.456	-6.710	-6.979	-7.367	-6.631	-6.907	-7.027	-7.210	-7.001	-7.061	-7.452	-7.285	-7.281	-7.885	-7.790
525.0	-628.0	-491.9	-397.9	-282.4	-158.4	-128.4	-124.0	-64.53	593.4	930.8	-8.653	-26.52	-8.010	-4.969	4.979	13.44	5.516	6.529	9.033	11.35	10.02	9.808	13.38	14.79	16.15	21.00	18.73	20.48	22.34	22.80	23.37	20.23	21.50	19.17	15.65	16.52	14.21	10.40	8.945	6.915	5.674	4.433	3.831	2.473	6.285	8.346	3.585	-0.751	-1.401	-1.520	-2.098	-3.985	-4.144	-4.961	-4.758	-4.567	-3.740	0.916	11.70	109.0	507.6	594.0	51.47	-5.823	-6.773	-6.767	-6.314	-6.829	-7.165	-6.843	-7.079	-6.747	-7.371	-7.097	-7.515	-7.450	-7.416
530.0	-586.4	-524.7	-405.6	-289.6	-187.7	-121.4	-126.5	-94.97	115.5	 1036	431.9	-30.40	-22.66	-13.13	-5.704	0.545	4.838	-1.037	3.521	4.263	5.090	5.218	7.955	8.742	12.16	12.25	14.18	15.53	16.85	19.55	18.98	17.68	16.57	15.49	12.61	12.69	11.23	7.798	7.403	5.869	4.608	2.454	1.835	1.234	1.630	5.505	6.252	1.387	-1.328	-1.689	-2.412	-4.073	-4.058	-4.673	-4.989	-5.484	-5.205	-4.162	-1.754	19.50	124.0	376.5	507.5	178.7	0.892	-6.542	-6.671	-6.833	-7.161	-7.317	-7.082	-6.973	-7.250	-6.957	-7.582	-7.582	-8.028
535.0	-587.6	-498.1	-394.3	-283.9	-236.7	-135.0	-115.1	-112.7	-45.93	373.0	 1143	51.97	-29.38	-21.71	-14.07	-6.125	-1.982	-3.397	-1.476	0.140	0.614	-0.375	4.842	3.005	8.019	10.34	9.084	9.766	11.85	13.83	13.78	12.41	11.91	9.901	8.706	9.157	8.742	5.791	5.033	3.187	3.279	1.532	-0.186	-0.157	-0.542	0.442	3.774	3.456	-0.026	-2.001	-2.660	-4.433	-4.600	-4.833	-4.775	-5.117	-5.990	-5.189	-5.180	-0.489	22.85	80.15	231.0	551.9	72.07	-1.101	-6.582	-7.195	-7.036	-7.306	-6.822	-7.248	-7.329	-7.070	-7.253	-7.747	-7.841
540.0	-583.8	-465.6	-377.3	-295.7	-238.6	-158.0	-100.0	-120.0	-96.16	45.60	 1116	493.4	-25.77	-25.24	-20.22	-10.93	-9.451	-8.009	-6.040	-5.286	-4.665	-2.822	-0.087	1.365	3.572	4.672	6.002	6.163	9.859	9.017	8.458	10.64	8.938	8.245	7.625	6.225	6.132	4.163	2.171	2.389	1.919	-0.033	-0.692	-0.945	-1.044	-1.249	0.575	3.659	1.603	-1.614	-2.543	-4.315	-4.388	-4.752	-5.077	-5.447	-6.081	-5.946	-6.141	-5.036	0.430	13.29	50.49	293.8	475.0	61.42	-5.513	-6.593	-6.951	-7.012	-6.920	-7.578	-7.026	-7.441	-7.224	-7.896	-7.630
545.0	-609.7	-494.2	-371.1	-316.5	-241.8	-185.4	-94.06	-108.6	-109.3	-57.76	570.9	 1033	-9.159	-32.70	-20.78	-18.40	-16.45	-11.07	-7.271	-8.229	-6.809	-2.114	-2.333	-1.939	1.056	2.825	2.737	3.291	6.081	6.793	6.143	6.794	5.805	6.400	5.810	5.061	3.929	1.563	1.291	1.487	0.675	-0.367	-1.192	-1.546	-2.461	-1.881	-1.103	1.897	2.749	-0.543	-2.355	-4.316	-4.273	-5.228	-4.968	-5.593	-5.585	-6.254	-5.960	-5.804	-4.690	-2.164	6.380	69.88	336.8	416.3	41.55	-6.873	-7.356	-7.088	-7.111	-7.643	-7.128	-7.336	-7.900	-7.082	-7.812
550.0	-603.3	-506.3	-400.8	-310.5	-247.2	-197.5	-121.7	-87.47	-99.22	-71.45	124.1	953.7	467.3	-36.52	-29.21	-22.36	-20.67	-14.53	-13.45	-11.00	-9.321	-6.396	-4.298	-3.803	-1.908	0.285	-0.635	0.124	2.032	3.905	2.974	3.905	3.103	2.766	2.930	2.319	1.743	0.166	0.607	-0.677	-0.984	-1.776	-2.769	-2.548	-3.165	-3.553	-2.343	-1.826	0.649	0.885	-1.662	-4.303	-4.656	-5.463	-5.288	-5.805	-5.679	-6.088	-5.858	-6.404	-6.036	-5.323	-3.349	10.63	80.49	255.4	328.0	115.0	-2.415	-7.089	-7.235	-7.210	-7.317	-7.504	-7.947	-7.307	-7.557
555.0	-621.6	-520.0	-389.4	-314.5	-256.7	-198.2	-147.1	-67.13	-87.35	-67.22	19.06	324.8	 1095	71.19	-31.95	-25.68	-21.51	-19.40	-19.71	-13.93	-10.94	-9.206	-8.811	-7.805	-5.122	-4.813	-3.929	-2.150	-1.647	-1.141	0.217	-1.330	0.841	0.374	-0.161	0.140	-1.676	-1.100	-0.962	-2.086	-2.860	-2.764	-4.098	-3.567	-3.539	-4.312	-3.295	-3.676	-2.564	0.081	0.220	-3.568	-5.139	-5.294	-5.361	-5.927	-5.910	-5.862	-5.541	-5.955	-6.179	-6.122	-5.713	-3.158	12.41	52.35	147.5	356.7	68.56	-4.659	-7.248	-7.436	-7.445	-7.087	-7.527	-7.294	-7.627
560.0	-589.7	-532.0	-403.7	-319.2	-248.1	-191.4	-149.7	-74.13	-57.13	-46.15	3.113	87.67	962.6	474.0	-39.33	-32.79	-24.34	-21.62	-18.03	-15.37	-15.48	-12.22	-9.860	-9.288	-7.734	-6.250	-6.328	-4.079	-3.184	-3.960	-2.910	-2.235	-2.413	-1.829	-1.065	-0.910	-2.719	-2.369	-2.023	-2.638	-3.448	-3.662	-3.854	-4.042	-4.501	-4.607	-3.711	-4.287	-3.854	-1.760	-0.277	-2.882	-4.705	-5.578	-5.417	-5.967	-6.304	-5.655	-5.503	-6.177	-6.543	-6.672	-6.398	-5.962	-2.402	6.765	30.46	194.6	318.1	48.40	-6.947	-6.633	-7.689	-7.484	-7.403	-7.892	-7.757
565.0	-626.0	-503.1	-389.6	-327.3	-248.6	-195.1	-161.8	-95.84	-21.90	-12.58	10.27	43.45	458.6	929.5	-15.11	-34.74	-27.80	-24.93	-21.73	-17.01	-14.98	-14.19	-11.64	-9.537	-7.715	-9.024	-7.526	-6.244	-5.128	-5.826	-3.957	-3.315	-3.465	-2.435	-2.439	-2.000	-3.134	-4.162	-3.604	-4.239	-3.181	-4.362	-3.943	-5.477	-4.975	-5.363	-4.686	-4.670	-3.787	-2.901	-1.477	-2.714	-4.276	-5.686	-5.570	-5.772	-6.472	-5.907	-6.090	-5.915	-6.277	-6.766	-6.541	-6.458	-6.519	-3.648	1.662	45.43	236.3	239.1	22.35	-6.793	-7.372	-7.259	-7.543	-7.815	-7.806
570.0	-630.1	-500.5	-393.8	-319.0	-245.4	-198.6	-155.8	-106.7	-1.496	23.88	37.06	53.18	132.7	790.1	359.0	-33.78	-30.99	-25.52	-22.80	-19.28	-16.08	-16.28	-13.51	-10.95	-11.06	-10.01	-8.881	-8.578	-7.744	-7.181	-5.124	-5.509	-5.248	-5.174	-4.608	-4.326	-4.894	-5.254	-4.374	-4.778	-4.149	-5.236	-5.422	-5.690	-5.462	-5.425	-5.132	-5.078	-4.692	-3.666	-3.206	-3.429	-3.494	-5.292	-5.682	-5.986	-6.512	-6.573	-6.662	-6.265	-6.507	-6.528	-6.670	-6.432	-6.773	-5.921	-4.248	4.522	56.71	155.2	175.1	36.04	-5.612	-7.313	-7.503	-7.846	-8.162
575.0	-592.8	-490.1	-379.0	-288.8	-258.7	-206.7	-158.7	-101.0	-15.21	67.78	78.30	68.07	53.13	235.6	854.1	49.08	-29.84	-24.17	-22.38	-21.32	-18.52	-17.59	-15.04	-14.04	-11.96	-10.36	-10.89	-9.903	-9.485	-9.437	-7.046	-6.857	-6.506	-6.623	-6.732	-5.566	-6.283	-5.527	-5.526	-5.417	-5.666	-6.167	-6.396	-6.437	-6.131	-6.322	-4.800	-5.147	-4.786	-4.041	-4.302	-4.908	-3.664	-4.609	-5.615	-6.236	-6.243	-6.458	-6.483	-6.212	-6.410	-6.118	-5.990	-6.375	-6.393	-6.522	-6.274	-4.350	7.221	29.64	81.59	183.5	49.97	-5.940	-7.262	-7.381	-8.051
580.0	-573.5	-502.5	-374.7	-300.3	-249.3	-214.2	-160.6	-104.3	-32.89	66.99	90.76	78.37	32.36	29.53	713.1	351.4	-30.57	-29.20	-24.46	-20.03	-19.85	-17.06	-16.26	-15.75	-13.47	-11.66	-11.61	-11.00	-9.956	-9.900	-9.176	-7.933	-8.393	-7.401	-7.307	-6.494	-6.758	-6.759	-6.625	-6.406	-6.549	-6.493	-6.579	-6.740	-5.959	-6.056	-5.325	-5.451	-5.003	-4.328	-4.510	-5.792	-4.487	-4.631	-5.135	-6.292	-6.279	-6.405	-6.385	-6.294	-6.582	-6.693	-6.211	-6.702	-6.304	-6.553	-6.708	-6.093	-3.648	1.124	14.73	107.5	162.1	27.10	-7.274	-7.576	-8.128
585.0	-563.4	-474.0	-411.6	-317.6	-254.0	-208.3	-147.7	-106.4	-50.27	51.29	113.4	84.78	26.49	-24.69	315.2	706.1	-15.12	-30.23	-24.88	-21.54	-20.69	-18.36	-17.85	-15.40	-13.08	-12.76	-12.04	-11.64	-10.98	-9.867	-10.17	-8.885	-9.429	-8.171	-7.585	-7.324	-7.320	-7.464	-7.247	-7.381	-6.917	-6.676	-6.869	-7.064	-6.147	-6.619	-5.839	-5.487	-5.491	-4.391	-4.574	-6.090	-5.015	-4.823	-5.024	-6.369	-6.410	-6.603	-6.604	-6.062	-6.568	-6.514	-6.421	-6.281	-6.880	-6.752	-6.630	-6.459	-6.404	-5.297	-2.247	23.42	125.2	131.8	7.912	-7.580	-8.108
590.0	-607.7	-515.0	-384.0	-303.2	-259.0	-208.3	-153.7	-116.8	-52.69	18.23	113.2	88.04	22.61	-36.19	52.17	555.9	247.9	-27.60	-26.26	-23.27	-20.79	-19.36	-17.90	-15.04	-14.61	-13.18	-12.60	-12.63	-11.87	-11.37	-11.17	-9.842	-9.137	-8.952	-8.760	-7.734	-7.657	-7.730	-7.664	-7.448	-7.141	-6.921	-7.234	-7.404	-6.450	-6.312	-6.108	-5.876	-5.474	-4.764	-4.916	-6.041	-5.668	-5.757	-5.025	-5.670	-6.355	-6.475	-6.863	-6.282	-6.611	-6.770	-6.593	-6.463	-6.379	-6.871	-6.691	-6.900	-6.908	-7.030	-6.045	-0.506	27.95	89.70	91.59	23.89	-6.727
595.0	-615.9	-521.8	-412.0	-311.3	-243.9	-214.7	-159.9	-125.2	-56.24	-4.358	92.78	73.42	11.76	-36.22	-23.79	153.4	548.3	28.11	-26.61	-24.44	-22.63	-19.98	-18.33	-16.40	-15.54	-13.46	-13.92	-13.29	-12.64	-12.69	-11.86	-10.66	-9.681	-9.180	-8.964	-7.740	-7.755	-8.026	-8.434	-7.598	-7.158	-7.132	-8.004	-7.054	-7.229	-6.645	-5.945	-6.081	-5.489	-4.962	-5.021	-5.966	-6.275	-5.930	-5.355	-5.848	-6.338	-6.634	-6.666	-6.348	-6.458	-6.684	-6.592	-6.503	-6.676	-6.500	-7.065	-7.342	-7.014	-7.277	-7.189	-5.893	0.366	14.56	47.47	108.9	26.14
600.0	-623.1	-486.9	-418.5	-312.1	-248.1	-203.7	-166.7	-119.8	-76.92	-10.33	58.33	88.57	18.46	-44.03	-37.89	4.871	452.2	244.8	-25.30	-24.54	-22.30	-20.39	-18.37	-16.77	-14.61	-13.92	-13.09	-12.82	-13.68	-12.45	-11.64	-11.18	-10.48	-9.932	-8.670	-8.114	-8.046	-8.479	-8.114	-8.113	-7.661	-7.778	-7.705	-7.544	-7.322	-7.258	-6.166	-6.447	-5.816	-5.033	-4.963	-6.209	-6.139	-6.165	-5.987	-5.979	-6.500	-6.489	-7.158	-6.848	-6.304	-6.724	-6.982	-6.813	-6.807	-6.865	-7.211	-7.329	-7.038	-7.388	-7.156	-7.092	-5.492	-2.357	6.207	67.16	85.87
605.0	-621.4	-478.1	-417.9	-326.7	-247.3	-206.0	-169.1	-136.0	-77.68	-27.74	34.42	68.39	5.821	-43.30	-38.72	-28.66	200.8	507.0	-17.38	-24.60	-21.57	-18.62	-19.60	-17.12	-16.00	-13.77	-14.15	-12.97	-12.88	-12.77	-12.79	-11.71	-10.80	-9.927	-9.259	-8.704	-9.134	-7.857	-8.543	-7.749	-8.421	-8.425	-7.914	-7.665	-7.202	-7.143	-6.423	-6.642	-5.942	-4.564	-5.240	-6.429	-6.228	-6.311	-5.853	-6.011	-5.548	-6.126	-6.485	-6.797	-6.356	-7.003	-6.257	-6.653	-6.486	-6.907	-6.623	-7.242	-6.834	-7.318	-7.153	-7.448	-6.819	-6.067	-4.839	12.60	69.51
610.0	-608.4	-497.9	-400.2	-319.3	-259.9	-217.5	-176.1	-136.0	-85.94	-44.82	8.604	42.88	28.65	-43.08	-39.74	-37.51	27.12	434.5	166.3	-24.61	-23.38	-20.22	-20.06	-17.93	-16.54	-15.32	-14.40	-13.40	-13.85	-13.09	-12.81	-12.16	-11.46	-10.49	-9.704	-9.523	-8.507	-8.360	-8.374	-8.151	-8.363	-8.268	-8.133	-7.797	-7.645	-7.373	-6.560	-6.722	-6.158	-5.086	-5.442	-6.326	-6.328	-6.510	-6.018	-6.402	-6.237	-5.942	-6.427	-6.791	-6.520	-6.961	-6.607	-7.041	-6.742	-6.861	-7.026	-6.705	-7.165	-7.435	-7.389	-7.223	-7.170	-6.810	-6.811	-2.922	13.29
615.0	-602.2	-529.6	-414.0	-311.6	-272.5	-219.0	-171.4	-133.9	-83.94	-61.57	-11.16	12.28	22.23	-36.95	-45.31	-37.73	-22.24	124.8	399.7	12.40	-23.58	-21.65	-19.66	-19.03	-16.46	-16.03	-15.90	-15.31	-15.07	-12.71	-12.70	-12.37	-11.75	-10.46	-9.946	-9.488	-9.014	-8.747	-8.055	-8.340	-7.865	-8.605	-8.675	-8.055	-7.626	-7.538	-6.426	-6.662	-5.971	-5.248	-5.245	-6.142	-6.298	-6.454	-6.566	-6.829	-6.463	-6.370	-6.260	-6.805	-6.491	-7.054	-6.863	-6.923	-6.762	-7.101	-7.488	-6.639	-7.133	-7.393	-7.031	-7.298	-7.502	-6.986	-7.234	-6.946	-2.838
620.0	-594.5	-526.6	-388.0	-332.5	-254.8	-230.8	-183.4	-129.9	-103.1	-63.76	-20.80	3.899	0.360	-26.42	-45.71	-39.19	-32.23	8.241	339.3	155.4	-23.68	-22.42	-18.68	-18.72	-16.28	-15.10	-14.87	-14.63	-14.43	-13.57	-13.13	-12.52	-11.47	-10.69	-10.74	-9.137	-9.773	-9.331	-8.727	-8.668	-8.090	-8.288	-8.364	-8.013	-7.628	-7.897	-6.338	-6.926	-5.880	-5.122	-5.571	-6.527	-6.379	-6.694	-6.182	-6.985	-6.940	-6.863	-6.386	-6.613	-6.398	-6.588	-7.207	-7.006	-6.935	-6.657	-6.872	-7.178	-6.937	-7.432	-7.117	-7.403	-7.020	-7.423	-7.214	-7.637	-6.807
625.0	-594.5	-491.2	-381.9	-323.1	-268.7	-225.0	-177.5	-140.1	-104.9	-78.42	-40.01	-14.14	-11.26	-14.46	-44.12	-39.64	-34.75	-21.26	158.5	308.6	-14.33	-22.84	-18.08	-18.37	-17.24	-15.80	-14.80	-14.54	-14.44	-13.97	-13.44	-12.36	-11.97	-11.05	-10.54	-9.204	-8.758	-9.231	-9.150	-8.751	-8.464	-8.058	-8.331	-7.728	-7.955	-7.287	-6.778	-6.615	-5.988	-5.229	-5.792	-6.570	-6.069	-6.447	-6.025	-6.772	-6.730	-6.680	-6.420	-6.605	-6.587	-7.001	-6.988	-6.942	-6.976	-6.771	-6.868	-7.357	-7.061	-7.435	-7.264	-6.973	-7.219	-7.432	-7.348	-8.026	-7.609
630.0	-631.5	-501.3	-401.0	-313.7	-258.3	-221.1	-178.5	-145.8	-116.0	-81.61	-51.05	-29.02	-26.22	-17.49	-33.45	-37.20	-35.79	-29.03	23.35	299.8	122.4	-21.02	-19.32	-18.74	-17.20	-16.37	-15.54	-15.21	-14.85	-13.26	-13.11	-12.53	-11.85	-10.85	-10.39	-9.520	-9.068	-9.092	-9.435	-8.928	-8.437	-7.811	-8.281	-7.705	-8.152	-7.603	-6.796	-6.820	-6.287	-5.195	-5.572	-6.555	-6.189	-6.710	-6.235	-6.835	-6.646	-6.701	-6.572	-6.726	-6.576	-6.986	-7.145	-6.889	-6.895	-7.216	-7.349	-6.822	-7.383	-7.180	-7.288	-7.107	-7.496	-7.166	-7.570	-7.584	-7.439
635.0	-616.6	-450.1	-390.4	-335.9	-251.6	-228.0	-175.4	-153.6	-120.6	-89.38	-56.86	-45.06	-39.38	-30.58	-17.40	-35.90	-38.12	-30.59	-16.98	88.84	312.9	6.685	-20.17	-18.59	-16.64	-15.30	-16.09	-15.05	-14.97	-14.16	-13.13	-12.55	-12.17	-11.25	-10.53	-9.239	-9.156	-9.269	-9.334	-9.218	-8.088	-8.722	-8.634	-7.817	-7.791	-7.492	-6.934	-7.078	-6.445	-4.983	-5.362	-6.556	-6.424	-6.771	-6.493	-6.762	-7.084	-6.752	-6.534	-6.895	-6.638	-6.856	-7.018	-6.586	-7.423	-6.863	-6.826	-7.479	-7.195	-7.622	-7.047	-7.274	-7.275	-7.388	-6.930	-7.597	-7.798
640.0	-622.3	-494.8	-393.5	-324.9	-256.4	-201.9	-181.5	-152.4	-115.9	-90.49	-68.39	-51.70	-43.46	-42.43	-16.58	-30.67	-33.08	-30.29	-25.03	5.215	277.2	111.9	-19.58	-17.26	-18.29	-16.55	-15.68	-15.28	-14.63	-13.99	-13.47	-11.70	-12.92	-10.47	-10.26	-9.624	-9.116	-9.740	-9.157	-8.995	-8.643	-8.948	-8.706	-8.415	-8.132	-7.461	-6.757	-6.945	-6.219	-5.175	-5.435	-6.470	-6.438	-6.448	-6.698	-6.709	-6.713	-6.790	-6.684	-7.059	-6.608	-6.452	-6.676	-6.924	-7.297	-6.865	-6.555	-7.060	-7.026	-7.169	-7.356	-7.283	-7.127	-7.446	-7.015	-7.902	-7.981
645.0	-625.2	-496.5	-380.1	-313.1	-252.8	-199.8	-182.0	-156.6	-117.8	-96.11	-73.15	-60.60	-46.10	-47.89	-25.91	-25.46	-34.89	-29.85	-27.76	-18.59	128.1	236.3	-14.75	-18.12	-18.05	-17.00	-16.11	-15.25	-13.89	-14.19	-14.62	-12.54	-12.72	-10.92	-10.31	-9.496	-9.698	-9.455	-8.703	-9.295	-8.576	-8.804	-8.444	-8.184	-8.221	-7.594	-6.554	-7.047	-6.570	-5.617	-5.261	-6.607	-6.435	-6.594	-6.693	-6.037	-6.855	-6.983	-6.694	-7.178	-6.802	-6.975	-6.735	-6.501	-7.171	-6.981	-6.746	-7.454	-6.771	-7.363	-7.352	-7.252	-7.354	-7.115	-7.003	-7.824	-7.726
650.0	-647.8	-496.9	-406.5	-314.9	-249.1	-210.1	-173.0	-157.1	-119.7	-97.40	-79.00	-60.46	-54.35	-50.07	-33.26	-19.31	-35.84	-30.21	-27.73	-24.40	23.60	282.1	33.19	-17.21	-18.28	-16.46	-14.89	-15.22	-14.78	-14.03	-14.44	-13.41	-12.32	-11.12	-10.55	-9.645	-9.524	-9.548	-9.276	-8.890	-8.829	-8.979	-8.279	-7.859	-8.317	-7.721	-6.724	-7.244	-6.240	-5.395	-5.677	-6.393	-6.710	-6.934	-6.427	-6.686	-6.976	-7.162	-6.956	-6.837	-6.711	-6.648	-7.053	-7.046	-6.897	-6.577	-6.868	-7.388	-7.401	-7.444	-7.293	-7.356	-7.449	-7.284	-7.573	-7.588	-8.633
