Sample:	'1
File name:	Default_20230210_150817.FD3
Run date:	'15:01:56, 02/10/2023
Operator:	dsjg
Comment:	'

Instrument
Model:	F-2700 FL Spectrophotometer
Serial number:	2198-001
ROM Version:	4J14000 07

Instrument parameters
Measurement type:	3-D scan
Data mode:	Fluorescence
EX  Start WL:	220.0 nm
EX  End WL:	600.0 nm
EX Sampling interval:	5.0 nm
EM  Start WL:	230.0 nm
EM  End WL:	650.0 nm
EM Sampling interval:	5.0 nm
Scan speed:	12000 nm/min
EX Slit:	5.0 nm
EM Slit:	5.0 nm
PMT Voltage:	700 V
Response:	Auto 
Corrected spectra:	Off
Contour interval:	50.000

Peak integration
Integration method:	Rectangular
Sensitivity:	1
Threshold:	1.000

Peaks
No.	ApexEX/EM(nm)	Height(Data)
1	225.0/610.0	16.70
2	225.0/620.0	16.49
3	230.0/345.0	353.6
4	230.0/360.0	349.6
5	235.0/365.0	355.4
6	240.0/405.0	368.4
7	245.0/270.0	129.7
8	245.0/425.0	360.0
9	250.0/545.0	75.12
10	255.0/280.0	166.0
11	255.0/560.0	59.67
12	260.0/405.0	339.1
13	260.0/570.0	44.42
14	265.0/585.0	37.76
15	270.0/300.0	349.9
16	270.0/415.0	343.8
17	270.0/595.0	36.24
18	275.0/305.0	413.3
19	275.0/610.0	30.05
20	280.0/310.0	383.4
21	280.0/345.0	396.8
22	280.0/620.0	26.08
23	305.0/345.0	240.1
24	310.0/350.0	220.1
25	315.0/355.0	219.5
26	320.0/360.0	228.3
27	325.0/370.0	229.0
28	330.0/375.0	229.2
29	335.0/380.0	238.3
30	445.0/525.0	16.96
31	555.0/305.0	2.402
32	570.0/315.0	2.302
33	580.0/320.0	2.273

Data points
	220.0	225.0	230.0	235.0	240.0	245.0	250.0	255.0	260.0	265.0	270.0	275.0	280.0	285.0	290.0	295.0	300.0	305.0	310.0	315.0	320.0	325.0	330.0	335.0	340.0	345.0	350.0	355.0	360.0	365.0	370.0	375.0	380.0	385.0	390.0	395.0	400.0	405.0	410.0	415.0	420.0	425.0	430.0	435.0	440.0	445.0	450.0	455.0	460.0	465.0	470.0	475.0	480.0	485.0	490.0	495.0	500.0	505.0	510.0	515.0	520.0	525.0	530.0	535.0	540.0	545.0	550.0	555.0	560.0	565.0	570.0	575.0	580.0	585.0	590.0	595.0	600.0
230.0	24.45	452.1	813.9	208.2	9.417	4.940	4.035	3.559	2.816	2.752	2.161	1.937	1.805	1.683	1.296	1.092	1.054	0.925	0.948	0.829	0.755	0.772	0.707	0.686	0.612	0.611	0.627	0.594	0.594	0.566	0.522	0.487	0.471	0.461	0.454	0.530	0.489	0.519	0.446	0.446	0.456	0.444	0.387	0.388	0.349	0.355	0.423	1.177	3.265	3.412	1.625	0.506	0.298	0.279	0.245	0.269	0.286	0.279	0.276	0.259	0.260	0.270	0.236	0.257	0.275	0.259	0.271	0.249	0.248	0.236	0.244	0.250	0.259	0.263	0.291	0.263	0.271
235.0	22.12	142.9	760.8	 1214	290.9	11.69	5.076	3.561	3.255	3.046	2.508	2.075	1.730	1.678	1.265	1.264	1.019	1.061	0.866	0.897	0.882	0.785	0.689	0.676	0.644	0.563	0.619	0.567	0.627	0.536	0.541	0.554	0.475	0.519	0.455	0.466	0.508	0.498	0.478	0.543	0.416	0.437	0.359	0.408	0.421	0.339	0.369	0.537	1.256	2.700	4.690	6.023	3.315	0.768	0.269	0.275	0.302	0.262	0.266	0.255	0.262	0.267	0.232	0.260	0.276	0.260	0.305	0.222	0.234	0.256	0.304	0.261	0.267	0.228	0.260	0.229	0.246
240.0	29.96	48.23	284.3	 1308	 1432	219.2	6.624	4.224	3.293	2.838	2.568	2.478	1.704	1.747	1.441	1.239	1.190	1.121	0.961	1.073	0.841	0.857	0.640	0.654	0.642	0.626	0.616	0.605	0.675	0.600	0.528	0.514	0.444	0.437	0.462	0.436	0.389	0.502	0.485	0.466	0.394	0.376	0.409	0.417	0.448	0.430	0.352	0.411	0.504	0.969	2.372	6.364	9.298	6.654	2.451	0.506	0.320	0.268	0.244	0.287	0.241	0.240	0.263	0.282	0.282	0.245	0.242	0.253	0.284	0.266	0.312	0.243	0.263	0.215	0.273	0.226	0.242
245.0	31.74	44.88	80.89	570.7	 1837	 1377	141.1	5.803	3.992	3.597	3.164	2.347	1.879	1.828	1.548	1.400	1.084	0.973	1.117	0.971	0.899	0.829	0.734	0.623	0.676	0.595	0.664	0.617	0.614	0.555	0.579	0.511	0.516	0.531	0.467	0.424	0.389	0.436	0.476	0.443	0.406	0.389	0.426	0.358	0.402	0.425	0.412	0.459	0.380	0.429	0.763	2.234	5.945	9.917	10.64	5.727	1.640	0.306	0.268	0.273	0.258	0.243	0.275	0.254	0.252	0.232	0.285	0.234	0.251	0.276	0.244	0.264	0.266	0.245	0.253	0.235	0.254
250.0	21.39	52.29	79.31	160.2	714.2	 1727	 1706	496.4	20.62	4.594	3.624	2.906	2.300	1.752	1.738	1.502	1.200	1.091	1.043	0.914	0.869	0.873	0.734	0.734	0.724	0.647	0.662	0.595	0.639	0.561	0.636	0.505	0.516	0.511	0.440	0.414	0.408	0.391	0.424	0.475	0.468	0.449	0.438	0.430	0.390	0.397	0.380	0.492	0.589	0.467	0.506	0.785	1.656	3.456	6.234	8.849	10.51	9.060	5.094	1.517	0.322	0.284	0.289	0.277	0.275	0.226	0.281	0.234	0.229	0.235	0.251	0.290	0.256	0.304	0.262	0.244	0.245
255.0	13.54	25.10	81.33	126.7	183.6	495.0	 1720	 2192	227.7	19.56	4.949	3.839	2.654	1.987	1.989	1.638	1.369	1.065	0.970	1.017	0.886	0.914	0.676	0.867	0.781	0.659	0.654	0.646	0.678	0.592	0.600	0.504	0.518	0.507	0.480	0.395	0.370	0.401	0.389	0.448	0.433	0.436	0.460	0.442	0.449	0.379	0.368	0.367	0.406	0.508	0.694	0.837	0.771	1.023	1.607	2.289	4.365	9.408	15.34	14.86	7.701	1.588	0.330	0.318	0.253	0.277	0.276	0.251	0.262	0.251	0.265	0.269	0.262	0.252	0.252	0.250	0.279
260.0	14.31	17.28	39.49	124.2	119.3	129.0	609.0	 2323	 1840	187.4	11.14	4.473	3.189	2.368	1.921	1.740	1.481	1.142	1.148	1.192	1.113	0.874	0.786	0.740	0.762	0.630	0.696	0.674	0.716	0.606	0.599	0.563	0.477	0.515	0.439	0.424	0.407	0.410	0.432	0.390	0.396	0.474	0.479	0.426	0.396	0.432	0.370	0.352	0.375	0.378	0.551	0.875	0.897	0.720	0.625	0.798	1.206	2.919	7.339	14.84	19.16	14.49	5.261	0.885	0.307	0.285	0.262	0.295	0.265	0.257	0.275	0.263	0.230	0.250	0.303	0.272	0.262
265.0	15.13	12.53	17.49	71.32	141.7	81.85	154.9	931.5	 2828	 1608	147.4	6.456	3.660	2.957	2.095	1.768	1.557	1.153	0.945	1.180	1.117	0.963	0.786	0.850	0.718	0.748	0.692	0.647	0.602	0.622	0.665	0.599	0.547	0.553	0.493	0.396	0.420	0.369	0.386	0.420	0.346	0.424	0.455	0.430	0.411	0.412	0.396	0.360	0.410	0.306	0.346	0.578	0.783	1.038	0.818	0.528	0.492	0.961	1.982	4.970	11.13	19.70	21.02	12.02	3.057	0.452	0.278	0.257	0.284	0.259	0.248	0.255	0.281	0.248	0.290	0.243	0.257
270.0	15.96	16.79	14.23	26.77	81.55	129.7	102.5	232.2	 1016	 2357	 2349	633.2	37.92	3.992	2.827	2.083	1.803	1.518	1.206	1.280	1.116	0.958	0.763	0.824	0.783	0.742	0.780	0.666	0.645	0.641	0.618	0.562	0.530	0.493	0.509	0.399	0.420	0.383	0.351	0.385	0.387	0.431	0.380	0.446	0.421	0.433	0.429	0.384	0.357	0.312	0.307	0.368	0.441	0.623	0.867	1.020	0.890	0.738	0.746	1.396	2.875	6.160	10.59	15.67	18.38	16.00	9.346	2.944	0.470	0.288	0.258	0.268	0.279	0.260	0.281	0.271	0.293
275.0	21.15	26.43	23.33	19.69	28.62	74.61	153.4	129.1	245.5	637.4	 2043	 3596	943.1	41.71	3.778	2.561	2.180	1.699	1.433	1.403	1.280	1.105	0.996	0.844	0.805	0.825	0.735	0.705	0.706	0.722	0.691	0.589	0.485	0.539	0.463	0.430	0.457	0.423	0.346	0.326	0.379	0.408	0.351	0.404	0.411	0.475	0.474	0.376	0.383	0.363	0.332	0.334	0.371	0.398	0.403	0.603	0.895	1.122	1.036	0.804	0.973	1.641	2.680	3.965	6.385	12.11	21.76	23.64	13.17	2.745	0.344	0.270	0.300	0.311	0.296	0.288	0.298
280.0	28.40	37.05	36.12	26.17	19.30	30.72	112.4	166.0	114.7	169.7	666.0	 2724	 3582	719.4	16.66	3.561	2.442	2.125	1.689	1.476	1.263	1.238	1.208	0.863	0.809	0.907	0.816	0.917	0.759	0.685	0.684	0.554	0.582	0.552	0.447	0.502	0.443	0.408	0.387	0.373	0.356	0.347	0.337	0.329	0.418	0.405	0.448	0.461	0.433	0.364	0.367	0.377	0.335	0.333	0.382	0.382	0.487	0.931	1.174	1.189	0.879	0.754	0.942	1.198	1.761	3.502	8.878	17.90	25.76	21.01	8.597	1.035	0.316	0.342	0.307	0.291	0.283
285.0	34.67	53.27	54.14	32.14	20.77	19.42	54.32	152.0	163.4	96.23	198.0	966.3	 3077	 3335	99.22	6.968	3.289	2.476	2.010	1.492	1.348	1.190	1.055	0.896	0.971	0.909	0.728	0.840	0.767	0.666	0.670	0.706	0.589	0.516	0.485	0.482	0.464	0.509	0.387	0.405	0.330	0.387	0.392	0.322	0.409	0.519	0.446	0.550	0.512	0.420	0.387	0.405	0.401	0.342	0.392	0.402	0.426	0.539	0.761	1.106	1.313	1.017	0.688	0.668	0.797	1.234	2.505	5.376	12.18	22.10	26.45	17.31	4.363	0.443	0.337	0.261	0.318
290.0	47.33	75.16	77.19	48.49	28.33	24.94	39.05	89.40	176.2	195.8	155.6	309.9	 1016	 2392	 2819	 1224	27.70	3.340	2.409	1.953	1.614	1.474	1.207	1.029	1.010	0.899	0.827	0.837	0.842	0.697	0.748	0.684	0.595	0.657	0.574	0.506	0.470	0.494	0.453	0.461	0.346	0.363	0.378	0.313	0.380	0.454	0.489	0.602	0.574	0.541	0.465	0.474	0.408	0.418	0.358	0.391	0.427	0.426	0.573	0.717	1.009	1.243	1.315	1.222	0.969	0.923	1.256	1.827	3.431	6.564	11.62	16.82	19.81	18.25	10.55	3.249	0.516
295.0	64.36	95.46	104.3	67.88	40.87	35.65	49.81	75.49	127.4	242.9	297.4	216.2	345.7	656.5	 1580	 3338	 1832	31.58	3.443	2.568	1.736	1.860	1.322	1.236	1.136	1.053	0.901	0.911	0.826	0.830	0.841	0.812	0.597	0.605	0.611	0.553	0.518	0.493	0.446	0.482	0.417	0.393	0.402	0.349	0.409	0.457	0.458	0.677	0.652	0.669	0.488	0.502	0.489	0.460	0.463	0.464	0.477	0.494	0.603	0.639	0.746	0.874	1.208	1.519	1.817	1.516	1.269	1.248	1.588	2.119	3.187	4.318	6.120	11.24	21.82	26.39	14.40
300.0	67.23	112.6	121.3	80.68	53.33	48.06	58.43	82.76	123.5	217.5	349.9	318.5	234.3	246.8	500.6	 1984	 3726	495.1	16.48	2.937	2.286	2.059	1.711	1.296	1.244	1.092	0.966	0.993	0.872	0.809	0.870	0.765	0.630	0.619	0.552	0.512	0.516	0.510	0.462	0.481	0.380	0.434	0.397	0.373	0.405	0.453	0.465	0.661	0.667	0.613	0.596	0.594	0.538	0.530	0.467	0.474	0.499	0.593	0.637	0.674	0.796	0.819	1.011	1.274	1.681	2.168	2.008	1.594	1.335	1.292	1.502	1.624	1.937	3.285	8.075	17.72	27.78
305.0	73.35	128.0	134.1	90.68	59.40	58.95	68.87	98.48	140.0	205.8	323.4	413.3	277.9	176.0	185.2	644.3	 2444	 3434	380.2	6.457	2.677	2.453	2.130	1.592	1.398	1.206	1.003	1.005	0.899	0.896	0.922	0.733	0.717	0.573	0.491	0.577	0.578	0.537	0.456	0.471	0.430	0.376	0.422	0.397	0.435	0.399	0.536	0.644	0.674	0.674	0.650	0.571	0.584	0.538	0.498	0.557	0.610	0.663	0.679	0.747	0.844	0.900	0.962	1.181	1.386	1.950	2.261	2.402	1.789	1.270	1.232	1.036	1.080	1.378	2.287	5.096	12.06
310.0	74.43	132.5	141.3	99.86	69.30	73.00	85.11	113.8	152.5	212.7	285.7	374.3	383.4	236.5	137.6	198.6	722.7	 2050	 2881	 1272	21.42	3.488	2.396	1.889	1.597	1.397	1.144	1.075	1.023	0.942	0.902	0.776	0.754	0.657	0.629	0.575	0.507	0.585	0.493	0.472	0.424	0.392	0.474	0.412	0.417	0.487	0.556	0.657	0.708	0.661	0.627	0.698	0.658	0.575	0.579	0.612	0.666	0.695	0.794	0.802	0.899	0.969	1.104	1.220	1.375	1.624	1.892	2.120	2.273	2.121	1.686	1.185	1.016	0.939	0.986	1.584	3.193
315.0	73.90	134.8	146.7	109.6	80.44	83.67	101.5	131.2	169.0	224.4	286.0	328.3	353.1	346.1	190.7	113.0	204.6	508.3	 1280	 3336	 1767	28.08	2.930	2.312	1.763	1.644	1.321	1.267	1.172	0.968	0.930	0.801	0.705	0.667	0.647	0.611	0.544	0.586	0.501	0.446	0.483	0.443	0.499	0.459	0.455	0.526	0.521	0.674	0.750	0.752	0.600	0.660	0.681	0.676	0.567	0.633	0.703	0.735	0.870	0.905	0.911	1.004	1.261	1.313	1.414	1.605	1.779	1.792	1.819	1.965	2.302	2.082	1.402	0.923	0.769	0.898	1.201
320.0	79.65	150.0	176.5	124.6	99.09	91.50	111.5	141.8	179.2	236.2	292.5	323.5	324.5	344.4	283.6	125.2	102.7	152.0	359.6	 1692	 3627	393.1	14.75	2.712	2.372	1.865	1.441	1.317	1.163	1.044	0.955	0.860	0.729	0.670	0.683	0.592	0.573	0.569	0.526	0.508	0.472	0.430	0.462	0.502	0.429	0.543	0.546	0.730	0.735	0.778	0.676	0.721	0.661	0.692	0.672	0.693	0.736	0.811	0.911	0.982	1.096	1.045	1.257	1.386	1.518	1.556	1.690	1.666	1.702	1.781	1.956	2.201	2.273	1.525	0.949	0.763	0.886
325.0	86.00	162.3	208.6	151.7	113.2	101.6	118.0	151.1	192.0	250.8	304.5	333.2	326.0	309.2	320.9	198.6	93.32	82.37	110.9	491.5	 2230	 3242	311.1	5.952	3.069	1.960	1.592	1.487	1.217	1.182	1.060	0.862	0.807	0.700	0.768	0.712	0.608	0.497	0.519	0.588	0.457	0.441	0.467	0.457	0.413	0.622	0.587	0.794	0.950	0.945	0.718	0.817	0.707	0.682	0.733	0.720	0.766	0.867	0.912	1.036	1.114	1.110	1.441	1.430	1.581	1.716	1.749	1.788	1.817	1.674	1.802	1.789	2.087	2.039	1.615	0.980	0.856
330.0	98.02	199.4	254.9	210.0	136.8	121.2	134.7	165.1	213.1	263.5	318.5	352.5	346.3	307.1	281.9	264.7	171.4	88.99	69.75	142.2	610.9	 2058	 2759	 1173	19.57	2.853	2.171	1.757	1.536	1.341	1.182	1.092	0.864	0.848	0.785	0.692	0.658	0.524	0.554	0.546	0.497	0.479	0.482	0.499	0.487	0.579	0.658	0.864	1.084	1.055	0.934	1.064	0.873	0.767	0.792	0.806	0.960	0.890	1.012	1.102	1.152	1.167	1.401	1.553	1.606	1.832	1.880	1.918	1.904	1.841	1.771	1.799	1.673	1.809	1.730	1.705	1.437
335.0	108.0	226.9	298.4	261.8	176.4	148.8	160.3	185.1	228.1	281.1	337.6	370.0	371.5	332.1	281.4	240.9	250.0	158.5	81.67	77.95	171.3	496.8	 1177	 3437	 1724	24.29	3.059	2.333	1.959	1.615	1.392	1.143	0.979	0.887	0.783	0.706	0.728	0.593	0.530	0.525	0.506	0.567	0.472	0.483	0.527	0.565	0.716	1.012	1.149	1.262	1.072	1.217	1.038	1.006	0.886	0.855	1.009	1.043	1.143	1.169	1.338	1.270	1.416	1.595	1.715	1.860	1.963	1.953	2.093	1.881	1.956	1.965	1.828	1.772	1.508	1.550	1.747
340.0	114.8	232.8	326.7	299.8	206.7	171.0	176.8	205.1	243.6	290.8	347.0	381.3	387.9	351.9	298.9	236.9	229.4	232.5	119.2	77.85	84.63	145.2	318.3	 1714	 3803	337.1	14.39	2.868	2.316	1.702	1.463	1.256	1.037	0.910	0.812	0.729	0.693	0.635	0.522	0.586	0.505	0.499	0.489	0.490	0.557	0.619	0.727	1.018	1.331	1.379	1.300	1.388	1.154	1.127	0.980	0.906	0.955	1.139	1.164	1.248	1.324	1.432	1.608	1.616	1.828	1.841	1.894	1.979	2.253	2.067	2.073	2.017	1.935	1.842	1.570	1.536	1.484
345.0	114.5	246.5	353.6	321.7	237.3	193.0	195.1	215.3	252.6	300.5	353.6	382.8	396.8	365.2	313.3	243.4	209.2	240.1	190.6	98.68	76.59	76.97	104.1	476.1	 2394	 2751	273.7	6.181	2.662	1.945	1.742	1.317	1.135	1.010	0.921	0.688	0.630	0.703	0.492	0.577	0.492	0.577	0.484	0.539	0.502	0.578	0.785	0.978	1.300	1.336	1.376	1.491	1.273	1.195	1.077	0.980	1.087	1.238	1.286	1.262	1.396	1.401	1.583	1.729	1.819	1.874	1.863	2.031	2.084	1.953	2.134	2.067	2.075	1.994	1.586	1.552	1.416
350.0	107.8	237.9	352.9	329.3	266.7	223.2	212.2	230.1	263.8	303.9	353.2	388.4	395.7	371.2	323.1	260.0	214.3	205.9	220.1	174.5	103.8	79.52	71.95	142.8	638.3	 1846	 2570	 1065	18.18	2.738	2.089	1.565	1.201	1.049	0.968	0.753	0.732	0.735	0.615	0.581	0.519	0.523	0.537	0.504	0.549	0.663	0.753	0.994	1.275	1.386	1.377	1.546	1.387	1.229	1.215	1.078	1.222	1.236	1.378	1.399	1.500	1.498	1.616	1.763	1.861	1.905	1.957	2.057	1.990	2.089	2.028	2.165	1.994	1.957	1.742	1.604	1.473
355.0	107.2	227.5	342.5	345.6	293.0	247.8	230.5	248.3	273.5	310.1	357.2	384.1	392.8	374.2	334.3	276.1	233.3	208.4	196.5	219.5	177.2	105.8	82.86	84.95	178.8	443.2	 1116	 3327	 1615	23.51	2.691	1.883	1.595	1.156	1.028	0.768	0.768	0.680	0.672	0.693	0.597	0.552	0.511	0.552	0.538	0.640	0.658	0.916	1.187	1.377	1.407	1.494	1.446	1.443	1.235	1.213	1.235	1.294	1.405	1.503	1.473	1.550	1.494	1.701	1.844	1.897	2.027	2.051	2.038	2.242	2.111	2.122	2.043	2.115	1.762	1.660	1.559
360.0	104.6	224.3	349.6	346.8	298.6	261.2	252.9	260.2	281.7	313.0	352.1	384.7	390.5	376.7	342.1	288.9	248.0	221.4	199.6	205.2	228.3	148.1	100.2	84.24	86.72	129.2	292.5	 1706	 3731	320.4	13.93	2.448	1.783	1.409	0.991	0.885	0.847	0.754	0.706	0.719	0.626	0.546	0.506	0.557	0.578	0.613	0.708	0.899	1.225	1.296	1.334	1.554	1.502	1.341	1.349	1.203	1.386	1.429	1.404	1.450	1.452	1.539	1.671	1.825	1.873	1.956	2.118	1.966	2.019	2.119	2.110	2.098	2.148	2.065	1.900	1.754	1.681
365.0	99.54	219.1	325.3	355.4	308.1	273.9	265.8	270.0	290.5	316.8	350.7	381.5	386.4	378.0	345.4	297.8	263.4	234.5	213.6	202.2	228.2	208.7	129.0	97.17	76.97	68.80	92.85	460.2	 2435	 2609	260.2	5.549	2.205	1.788	1.330	1.025	0.851	0.785	0.696	0.717	0.649	0.515	0.454	0.580	0.668	0.688	0.793	1.053	1.157	1.292	1.362	1.544	1.622	1.497	1.429	1.309	1.510	1.440	1.479	1.540	1.564	1.539	1.741	1.770	1.931	1.872	2.011	2.042	2.075	2.018	1.955	2.036	2.017	1.917	1.852	1.850	1.871
370.0	94.31	206.4	319.1	353.1	318.5	291.9	280.3	279.4	290.5	319.5	353.3	374.5	384.9	372.9	348.0	305.7	276.1	254.9	234.4	218.7	213.0	229.0	198.8	133.8	95.50	72.46	61.50	131.4	642.5	 1840	 2568	954.6	15.77	2.394	1.558	1.266	1.020	0.893	0.765	0.718	0.663	0.543	0.521	0.611	0.608	0.641	0.718	0.970	1.250	1.250	1.323	1.577	1.537	1.578	1.520	1.388	1.556	1.491	1.553	1.483	1.590	1.558	1.738	1.765	1.895	1.893	2.021	1.950	2.061	2.002	2.034	2.076	2.088	2.021	1.942	1.876	1.860
375.0	97.64	190.2	311.4	349.2	329.5	301.8	292.7	290.3	298.9	326.3	355.0	361.6	376.0	365.1	346.1	313.0	290.1	273.1	255.1	237.9	224.4	216.8	229.2	201.5	126.7	92.57	70.49	69.25	171.6	437.4	 1182	 3115	 1369	20.13	2.278	1.629	1.239	0.988	0.824	0.793	0.658	0.581	0.580	0.545	0.632	0.647	0.737	1.002	1.190	1.094	1.213	1.604	1.510	1.648	1.486	1.449	1.590	1.618	1.638	1.481	1.589	1.633	1.788	1.833	1.948	1.907	2.004	1.996	1.921	1.888	2.043	2.075	2.103	1.932	1.939	1.849	1.838
380.0	97.33	195.6	304.6	350.5	333.1	316.5	302.4	300.6	310.0	327.7	351.7	360.0	367.1	360.9	344.1	317.0	297.1	283.8	271.8	255.9	239.9	225.2	221.3	238.3	171.6	113.0	84.75	67.38	75.27	123.3	303.5	 1640	 3203	273.4	11.10	2.140	1.432	1.070	0.892	0.801	0.754	0.621	0.656	0.597	0.611	0.653	0.773	0.985	1.085	1.121	1.265	1.650	1.636	1.675	1.583	1.501	1.730	1.633	1.548	1.645	1.559	1.747	1.677	1.889	1.939	1.872	1.976	1.952	1.935	2.037	1.994	2.047	2.162	1.976	2.055	1.831	1.879
385.0	93.65	192.5	311.3	345.8	338.5	325.6	311.4	310.1	312.3	327.9	355.3	360.6	365.5	358.8	343.2	317.8	299.5	292.7	282.2	267.6	254.1	237.1	221.5	230.9	219.9	141.6	101.0	78.56	62.93	61.63	91.75	440.1	 2158	 2215	210.0	4.186	1.687	1.294	1.117	0.780	0.748	0.601	0.632	0.637	0.631	0.660	0.754	0.960	1.162	1.153	1.289	1.579	1.643	1.714	1.600	1.561	1.712	1.541	1.684	1.673	1.657	1.751	1.773	1.762	1.878	1.980	1.810	2.046	1.944	2.066	2.064	2.066	2.012	2.015	2.103	1.952	2.089
390.0	90.13	190.4	299.3	345.5	347.2	331.8	321.3	318.5	321.4	327.9	348.7	358.4	358.5	351.2	341.2	319.8	306.7	299.4	291.6	280.5	269.8	253.5	236.6	224.9	226.0	197.2	137.0	100.2	78.37	62.73	55.43	122.2	572.4	 1579	 2040	743.9	13.00	1.921	1.371	1.029	0.829	0.689	0.652	0.642	0.658	0.672	0.745	0.942	1.032	1.112	1.274	1.542	1.678	1.703	1.653	1.592	1.763	1.653	1.762	1.645	1.715	1.764	1.785	1.702	1.777	1.847	1.895	1.930	1.970	2.083	2.030	2.038	2.130	2.076	2.172	2.034	2.061
395.0	95.01	196.8	289.4	341.1	356.5	343.2	332.4	323.7	331.2	329.7	348.9	355.6	353.4	351.0	335.5	316.7	306.6	303.3	295.6	287.9	280.8	268.8	252.2	237.0	220.7	217.9	196.0	134.4	101.7	79.95	62.75	63.04	151.2	373.9	949.3	 2454	 1077	16.51	1.863	1.324	0.969	0.879	0.783	0.737	0.701	0.699	0.807	0.933	1.004	1.061	1.181	1.680	1.763	1.679	1.703	1.700	1.829	1.735	1.702	1.732	1.745	1.778	1.764	1.766	1.747	1.847	1.943	1.868	1.995	2.086	1.971	2.094	2.137	2.163	2.108	1.931	2.169
400.0	93.22	183.3	285.9	348.8	366.0	345.6	335.8	331.8	333.0	330.9	349.6	350.0	347.3	346.9	329.4	315.6	307.6	303.7	299.1	292.9	285.6	277.6	263.8	248.4	228.2	213.2	217.8	175.0	123.1	96.43	74.56	57.72	63.88	104.2	242.8	 1313	 2520	231.6	8.747	1.733	1.208	0.922	0.770	0.689	0.681	0.707	0.828	0.887	1.013	1.100	1.208	1.686	1.729	1.755	1.708	1.635	1.739	1.859	1.735	1.782	1.788	1.781	1.860	1.675	1.713	1.773	1.888	1.932	1.989	1.968	2.074	1.933	2.085	2.053	1.952	1.883	2.051
405.0	94.69	181.9	281.4	345.8	368.4	352.6	347.5	336.6	339.1	334.9	346.3	349.1	345.6	343.5	327.3	314.3	304.6	303.9	297.3	292.6	287.9	281.2	271.5	255.9	236.1	215.4	212.9	207.5	151.1	111.6	87.82	66.27	52.00	49.95	72.64	349.8	 1666	 1860	181.3	3.533	1.406	1.053	0.885	0.754	0.666	0.739	0.803	0.898	1.070	1.153	1.258	1.485	1.699	1.772	1.677	1.683	1.869	1.770	1.839	1.776	1.748	1.708	1.784	1.758	1.811	1.826	1.836	1.834	1.908	1.905	1.995	2.005	2.005	2.035	1.924	1.929	1.938
410.0	94.42	177.0	279.7	340.5	364.4	357.4	346.9	344.7	335.7	340.8	339.7	342.3	341.6	335.1	318.4	307.2	299.7	293.9	293.3	289.2	286.7	280.7	274.0	262.8	244.2	225.1	208.9	208.4	191.4	143.4	106.3	81.51	60.86	47.02	41.20	95.77	435.9	 1263	 1685	621.7	10.73	1.541	1.145	0.904	0.774	0.802	0.831	0.962	1.104	1.158	1.246	1.620	1.711	1.739	1.750	1.656	1.854	1.866	1.921	1.806	1.817	1.803	1.764	1.804	1.791	1.791	1.836	1.781	1.859	1.912	1.956	2.032	2.046	1.916	1.885	1.939	1.999
415.0	91.53	173.5	271.3	339.0	363.9	359.0	347.8	341.3	335.3	336.1	343.8	338.1	334.3	325.1	309.6	294.9	285.1	285.3	284.6	283.2	279.8	275.9	271.5	262.1	248.6	231.9	215.8	201.5	198.1	184.0	131.5	96.34	72.78	54.51	41.15	44.01	113.5	296.7	779.8	 1951	780.1	13.62	1.608	1.111	1.026	0.872	0.911	0.914	1.230	1.030	1.248	1.595	1.723	1.707	1.820	1.770	1.927	1.765	1.914	2.034	1.799	1.884	1.790	1.797	1.769	1.790	1.739	1.750	1.861	1.877	1.896	1.845	1.959	1.837	1.835	1.848	1.893
420.0	92.06	166.4	269.1	328.6	351.9	359.2	352.1	346.6	333.0	336.9	340.7	331.7	326.9	317.3	300.5	283.7	277.4	278.2	274.8	274.3	272.1	271.3	266.4	259.4	249.4	234.2	218.9	202.0	189.3	192.8	158.3	110.8	82.18	62.12	46.29	36.60	44.79	79.41	195.6	 1036	 1875	207.0	7.291	1.460	1.142	0.901	0.863	0.946	1.152	1.155	1.196	1.456	1.675	1.799	1.753	1.856	1.862	1.810	1.915	1.879	1.774	1.732	1.712	1.913	1.874	1.760	1.655	1.729	1.652	1.772	1.791	1.788	1.831	1.783	1.825	1.914	1.948
425.0	87.81	167.2	257.0	324.3	347.5	360.0	353.6	343.9	339.4	340.2	333.6	328.7	319.5	307.3	294.8	276.2	269.7	269.5	266.0	264.6	263.9	263.9	259.6	256.6	248.5	235.1	220.1	205.0	188.7	184.6	177.3	130.2	91.20	68.81	51.80	39.49	33.20	33.86	55.33	274.1	 1323	 1615	160.5	2.550	1.359	1.131	0.968	1.021	1.065	1.093	1.245	1.529	1.671	1.826	1.852	1.677	1.826	1.796	1.756	1.794	1.883	1.859	1.811	1.779	1.903	1.642	1.777	1.751	1.784	1.669	1.722	1.746	1.884	1.774	1.727	1.672	1.792
430.0	83.94	160.8	249.3	315.9	344.1	356.6	350.5	344.2	339.5	334.3	327.6	321.0	313.1	300.2	282.9	268.3	258.4	255.8	255.7	251.9	250.6	252.7	252.4	250.1	243.3	231.8	220.1	207.7	191.2	178.2	170.9	152.8	110.8	79.44	60.46	47.11	35.83	28.42	27.09	71.66	351.5	 1058	 1372	481.6	9.441	1.484	1.149	1.173	1.205	1.154	1.219	1.542	1.634	1.759	1.795	1.747	1.832	1.888	1.764	1.884	1.912	1.876	1.862	1.789	1.816	1.681	1.787	1.707	1.767	1.742	1.730	1.774	1.813	1.771	1.699	1.773	1.844
435.0	86.61	158.7	243.8	315.3	339.8	351.7	349.2	344.0	338.2	327.8	324.2	316.0	306.1	290.6	272.9	256.5	249.8	242.8	241.7	239.0	237.4	240.2	241.2	239.5	236.7	228.5	218.5	207.5	194.4	180.4	163.2	151.1	135.4	96.39	69.38	54.74	42.39	32.24	24.89	29.60	88.71	246.9	646.2	 1661	206.7	11.35	1.599	1.252	1.291	1.123	1.146	1.546	1.596	1.798	1.755	1.795	1.888	1.695	1.912	1.823	1.886	1.852	1.806	1.755	1.870	1.638	1.715	1.707	1.770	1.656	1.757	1.663	1.810	1.705	1.668	1.748	1.831
440.0	108.5	154.6	232.7	302.1	337.5	338.6	346.6	341.0	340.5	331.5	325.2	314.1	298.4	280.3	265.4	248.7	235.5	234.7	231.1	228.6	229.5	230.7	231.4	231.4	230.3	224.2	214.2	207.0	193.7	179.6	163.0	145.1	139.4	113.5	78.21	59.79	47.07	36.62	27.02	22.63	31.74	64.04	162.7	984.4	 1607	179.9	4.164	1.571	1.361	1.311	1.251	1.647	1.623	1.775	1.677	1.739	1.792	1.816	1.934	1.840	1.794	1.811	1.875	1.756	1.801	1.748	1.737	1.728	1.790	1.684	1.598	1.639	1.608	1.617	1.688	1.636	1.771
445.0	135.1	156.4	232.9	291.5	332.5	330.4	339.4	339.5	334.8	318.3	318.7	311.2	290.7	272.2	255.8	241.1	228.6	225.1	223.5	219.1	219.7	221.0	222.5	221.2	221.2	215.2	209.7	202.1	191.3	178.9	161.4	142.8	131.6	122.1	90.17	64.53	51.01	39.42	30.67	23.39	20.78	24.43	44.01	270.2	 1293	 1391	23.99	2.295	1.486	1.320	1.272	1.529	1.590	1.708	1.543	1.720	1.747	1.788	1.994	1.813	1.868	1.810	1.770	1.743	1.838	1.733	1.874	1.554	1.748	1.560	1.792	1.488	1.565	1.715	1.590	1.603	1.711
450.0	155.2	229.8	224.2	277.3	314.3	326.4	327.4	325.8	324.8	316.3	311.4	297.7	277.8	258.6	240.5	223.5	214.3	210.0	206.2	202.6	202.4	205.0	206.5	206.7	206.6	202.9	199.1	191.9	184.6	174.1	159.3	141.5	123.5	114.9	103.5	77.19	56.58	43.46	34.47	26.59	21.26	17.89	19.25	67.61	346.0	 1010	 1205	397.0	7.702	1.599	1.298	1.582	1.615	1.665	1.541	1.660	1.835	1.786	1.855	1.789	1.878	1.784	1.770	1.703	1.749	1.547	1.647	1.493	1.577	1.492	1.580	1.562	1.501	1.536	1.479	1.626	1.494
455.0	113.3	376.7	268.0	258.2	292.1	310.8	313.5	320.5	309.8	307.4	299.0	282.9	258.8	242.7	222.4	205.9	197.5	194.2	189.2	185.1	184.5	186.7	188.4	190.3	189.0	188.3	184.8	180.2	175.4	166.0	153.0	137.9	120.2	104.4	97.39	88.60	65.15	47.60	37.94	29.97	23.57	18.55	15.53	23.82	83.70	234.4	602.4	 1400	172.0	8.481	1.668	1.691	1.586	1.707	1.603	1.623	1.843	1.755	1.675	1.753	1.805	1.698	1.776	1.731	1.736	1.552	1.537	1.496	1.560	1.540	1.542	1.533	1.403	1.510	1.276	1.553	1.470
460.0	80.71	417.5	410.0	254.9	276.4	286.4	304.8	301.9	299.1	289.1	287.4	267.1	250.0	232.9	211.9	194.7	184.8	180.0	177.0	172.1	173.0	171.8	175.9	177.3	175.9	176.5	173.7	169.3	166.6	159.3	148.5	132.8	116.7	100.5	90.09	87.77	74.13	51.31	39.71	32.05	25.34	20.02	16.20	14.93	25.96	58.05	149.8	820.0	 1258	132.8	3.870	1.858	1.609	1.640	1.531	1.517	1.640	1.848	1.702	1.681	1.633	1.706	1.680	1.581	1.524	1.568	1.487	1.508	1.507	1.423	1.432	1.421	1.436	1.404	1.331	1.413	1.331
465.0	66.14	319.4	617.1	294.7	265.4	276.1	287.2	286.4	281.1	273.8	270.9	258.8	235.3	219.7	197.8	185.0	173.3	169.6	165.3	163.0	161.9	160.3	163.0	164.8	165.7	163.0	162.2	159.2	156.7	151.4	143.5	128.3	113.2	97.95	85.54	80.63	77.66	56.81	41.78	33.32	27.32	21.54	17.47	13.59	14.11	19.55	38.82	221.9	 1029	 1039	19.01	2.463	1.809	1.733	1.626	1.502	1.546	1.641	1.688	1.663	1.604	1.581	1.596	1.462	1.532	1.461	1.459	1.503	1.567	1.435	1.404	1.437	1.459	1.343	1.305	1.278	1.277
470.0	57.82	174.7	652.8	598.3	262.7	254.7	264.9	263.9	261.5	258.9	254.7	238.7	218.9	203.1	181.1	167.4	157.6	152.9	151.2	146.3	145.1	144.8	145.2	148.9	149.8	147.6	147.0	144.7	142.9	140.2	132.6	120.1	106.8	92.99	81.92	73.01	69.18	61.99	47.97	35.25	28.53	22.60	18.53	15.00	12.73	12.01	14.73	54.45	278.9	769.8	875.2	331.5	7.697	1.796	1.641	1.551	1.628	1.583	1.544	1.564	1.481	1.581	1.565	1.441	1.393	1.388	1.348	1.286	1.419	1.315	1.308	1.304	1.349	1.232	1.250	1.190	1.168
475.0	54.77	116.3	370.0	947.1	410.8	233.3	240.2	242.0	248.8	240.1	233.6	218.2	200.4	184.2	166.3	151.7	142.3	137.2	133.7	131.4	129.0	129.1	127.8	130.6	133.3	131.9	131.6	130.9	129.4	127.4	121.3	110.3	98.74	88.30	77.50	68.14	60.62	56.87	52.76	39.93	29.28	24.16	20.10	16.26	13.37	11.31	10.25	17.70	66.41	178.2	415.6	 1073	163.6	8.293	1.857	1.521	1.554	1.533	1.509	1.396	1.376	1.423	1.422	1.389	1.288	1.312	1.290	1.364	1.277	1.227	1.265	1.137	1.244	1.165	1.114	1.154	1.022
480.0	58.61	99.03	200.6	869.9	729.4	235.8	224.1	224.8	233.2	222.0	221.8	205.0	187.9	171.1	156.2	142.7	132.9	127.7	123.0	122.0	117.6	118.1	118.5	120.3	121.4	120.5	121.2	120.8	118.9	118.3	113.9	103.4	93.78	83.78	74.96	65.51	57.07	51.67	51.72	44.44	31.56	24.47	20.66	17.01	13.99	11.95	9.682	10.12	19.68	43.64	103.2	588.7	911.6	136.9	3.630	1.736	1.480	1.404	1.430	1.353	1.386	1.400	1.348	1.310	1.362	1.168	1.284	1.230	1.132	1.173	1.185	1.086	1.127	1.090	1.096	1.129	1.048
485.0	54.73	87.97	140.9	550.8	 1051	324.4	211.5	214.7	218.8	210.8	208.8	193.1	177.8	162.2	145.6	134.3	125.2	119.8	115.4	112.9	110.1	108.4	111.5	111.1	113.3	110.9	112.9	112.8	111.8	110.3	106.3	98.64	89.51	80.16	70.47	63.30	55.41	48.69	46.93	46.06	35.21	26.02	21.48	17.69	14.75	12.80	10.20	8.699	9.766	13.96	26.67	155.2	725.6	820.5	22.65	2.206	1.526	1.516	1.420	1.347	1.323	1.382	1.403	1.332	1.273	1.205	1.180	1.147	1.171	1.133	1.030	1.083	1.002	1.118	1.047	0.946	1.015
490.0	54.60	89.81	126.1	263.5	914.8	730.0	223.1	199.7	200.9	197.7	191.7	179.1	163.4	149.4	133.9	121.3	113.2	109.6	104.8	102.3	99.29	97.84	99.43	99.90	101.1	101.0	100.8	100.8	101.0	101.1	95.88	90.59	82.31	74.67	66.59	59.68	52.91	46.09	41.43	40.92	38.07	29.21	22.18	18.49	15.65	13.33	11.09	9.378	8.135	7.811	10.08	38.29	192.4	560.9	722.5	266.6	7.880	1.638	1.462	1.329	1.294	1.270	1.197	1.206	1.194	1.204	1.121	1.051	1.056	1.108	1.022	0.963	1.009	0.925	0.987	0.943	0.944
495.0	49.73	91.03	113.5	160.2	442.4	 1077	353.3	183.1	182.7	180.4	173.3	163.9	149.6	135.8	121.7	110.3	100.7	97.49	91.71	89.96	86.51	86.67	87.09	89.12	89.11	89.53	88.90	90.34	90.68	90.05	86.47	81.17	75.36	68.42	61.89	54.89	48.81	42.60	38.35	35.31	34.55	33.00	25.08	18.82	15.89	13.70	11.86	9.850	8.306	7.236	6.714	12.25	45.99	130.2	390.9	912.9	175.6	7.994	1.621	1.386	1.224	1.232	1.117	1.142	1.139	1.014	0.997	0.993	1.047	1.067	0.930	1.023	0.889	0.912	0.922	0.864	0.923
500.0	42.99	80.21	118.6	132.4	222.4	902.8	743.2	182.4	165.9	164.8	162.3	150.8	137.1	122.1	111.8	100.9	90.89	88.72	83.72	82.42	79.80	78.29	78.64	80.36	81.01	80.84	80.00	81.36	83.30	81.23	79.01	74.67	69.01	63.10	56.41	51.11	46.25	40.55	36.69	32.54	29.61	31.97	27.09	19.82	16.31	14.13	12.13	10.10	8.989	7.353	6.196	6.794	13.63	31.93	97.64	513.8	846.4	143.2	3.413	1.439	1.228	1.204	1.110	1.252	1.059	0.932	0.996	1.022	0.898	0.928	0.860	0.862	0.845	0.877	0.871	0.831	0.810
505.0	36.65	67.71	117.6	118.1	156.4	530.1	 1042	270.7	155.1	153.2	148.2	140.0	125.4	111.3	100.7	92.56	85.00	81.65	77.95	74.08	73.22	71.14	71.57	72.08	72.93	73.29	73.20	73.10	74.68	75.16	72.41	68.30	63.76	57.79	51.96	47.58	43.34	37.81	34.69	30.75	27.41	28.01	27.87	21.84	16.88	13.81	11.92	10.53	8.761	7.670	6.409	5.590	6.537	10.29	24.68	136.4	641.1	721.2	24.43	1.934	1.366	1.323	1.109	1.173	0.990	0.922	1.042	0.963	0.822	0.871	0.856	0.876	0.778	0.792	0.866	0.835	0.827
510.0	32.18	56.04	104.6	121.5	123.0	235.9	838.1	707.6	168.9	136.8	133.6	124.5	113.6	100.2	89.17	80.36	74.91	70.96	68.46	65.47	64.10	62.54	62.60	63.66	63.10	63.66	63.92	63.88	64.44	64.56	63.48	61.08	56.39	51.12	47.00	42.62	38.53	34.26	31.44	28.15	25.00	23.95	23.90	22.97	18.33	14.08	11.90	10.58	8.852	7.830	6.684	5.578	5.144	5.466	8.328	32.90	169.1	476.8	624.8	107.2	7.328	1.268	1.074	1.016	0.949	0.847	0.892	0.817	0.791	0.810	0.821	0.750	0.691	0.709	0.762	0.693	0.717
515.0	28.48	45.87	80.13	116.8	112.0	133.2	371.6	965.6	395.9	122.4	116.3	110.8	98.66	88.34	78.15	71.43	64.47	62.44	58.88	56.86	54.24	53.63	54.32	54.34	54.66	54.80	54.53	55.56	56.09	55.99	54.05	52.68	49.51	44.90	41.35	38.01	34.51	31.37	28.13	25.41	23.03	20.64	19.86	20.66	20.13	15.17	11.55	10.02	8.681	7.667	6.465	5.987	4.974	4.600	4.763	9.835	39.95	109.7	295.8	638.6	170.2	6.838	1.163	0.929	0.897	0.827	0.891	0.800	0.760	0.772	0.804	0.688	0.699	0.650	0.659	0.696	0.682
520.0	26.63	42.35	65.07	110.8	109.9	103.0	172.0	762.7	759.2	133.8	106.7	100.5	89.61	79.90	70.44	64.10	58.48	56.43	52.86	50.55	48.71	47.91	47.91	48.54	48.78	48.70	48.36	48.66	50.06	49.79	49.31	47.20	44.00	41.57	37.24	34.75	31.35	28.68	25.81	23.66	21.56	19.23	17.87	17.84	19.54	16.58	11.89	9.876	8.625	7.640	6.454	5.732	5.009	4.332	4.041	4.881	11.21	26.40	72.45	359.7	613.4	124.3	2.511	1.032	0.868	0.834	0.782	0.780	0.655	0.748	0.713	0.694	0.645	0.588	0.565	0.741	0.705
525.0	26.67	40.63	59.03	92.83	108.4	94.71	111.6	428.2	995.9	219.5	99.87	90.65	83.33	71.95	65.14	57.46	52.82	50.84	47.92	46.00	44.72	42.89	42.49	43.53	42.81	43.94	44.48	44.57	45.57	45.40	44.05	42.60	39.46	37.01	34.25	31.29	28.42	25.97	23.72	21.76	19.94	17.68	16.25	15.47	16.39	16.96	13.06	9.732	8.262	7.353	6.393	5.330	4.647	4.293	3.943	3.628	4.830	7.845	17.90	94.69	441.3	517.4	23.15	1.387	0.885	0.882	0.754	0.776	0.649	0.671	0.649	0.622	0.646	0.538	0.528	0.648	0.661
530.0	23.13	36.67	50.78	72.58	96.81	88.82	87.63	178.3	723.5	685.2	127.5	81.13	73.20	63.44	55.95	49.98	46.42	44.62	42.45	40.29	39.09	37.04	37.66	37.98	37.00	37.66	38.47	38.54	39.25	38.53	38.60	36.73	35.21	32.28	29.44	27.75	25.60	23.56	21.19	19.62	17.78	16.15	14.93	13.83	13.47	14.61	13.76	10.49	8.173	6.835	6.129	5.177	4.594	4.248	3.668	3.223	3.266	3.687	5.690	22.61	114.4	333.8	404.2	102.7	6.161	0.897	0.791	0.705	0.654	0.709	0.584	0.551	0.604	0.529	0.540	0.596	0.533
535.0	21.04	30.95	46.05	56.46	77.69	87.88	78.07	97.63	291.5	842.9	406.3	70.60	64.01	55.98	47.62	43.65	40.06	38.16	36.40	34.67	33.33	33.01	32.57	31.85	31.80	32.11	32.56	32.67	33.91	33.25	33.73	31.51	29.97	28.54	25.95	23.84	22.14	20.45	18.37	17.50	15.66	14.37	13.19	12.23	11.77	11.04	12.15	11.48	8.394	6.325	5.661	5.160	4.333	3.943	3.570	3.238	2.869	2.747	2.710	6.339	26.75	76.47	180.7	448.6	156.4	5.423	0.844	0.752	0.667	0.689	0.576	0.541	0.535	0.543	0.523	0.542	0.457
540.0	20.15	29.80	40.38	49.95	62.26	84.45	71.92	72.19	124.0	605.3	742.9	96.69	57.15	50.62	42.30	39.30	36.82	33.91	32.62	30.34	30.43	29.54	28.74	28.02	28.76	29.03	29.03	29.18	29.34	29.73	29.10	28.45	26.94	25.20	23.42	21.40	20.32	18.08	16.96	15.81	14.58	13.34	12.30	11.08	10.70	9.740	10.03	10.94	9.020	6.278	5.573	4.992	4.194	3.672	3.335	3.233	2.759	2.422	2.157	2.816	7.183	18.08	44.01	240.6	436.5	26.57	2.100	0.742	0.646	0.587	0.558	0.483	0.493	0.445	0.513	0.474	0.476
545.0	19.86	28.86	38.85	44.59	51.60	74.04	75.12	61.43	77.86	310.2	861.3	174.5	52.61	44.75	39.28	35.09	32.55	30.69	29.06	27.87	27.44	25.93	25.57	25.13	25.35	25.58	25.55	26.16	25.66	26.85	26.29	25.42	23.43	22.23	20.99	19.20	17.92	16.77	15.59	14.60	13.54	12.57	11.22	10.46	9.757	8.961	8.357	9.698	9.278	6.829	5.116	4.495	4.081	3.618	3.190	3.042	2.705	2.215	2.065	1.851	2.760	5.166	10.84	62.54	301.3	353.5	22.74	1.055	0.636	0.623	0.514	0.498	0.457	0.435	0.461	0.443	0.452
550.0	18.40	25.47	36.07	37.81	41.84	58.30	74.14	58.39	58.22	120.8	546.9	599.7	86.73	39.61	34.10	31.08	27.72	26.20	25.74	23.92	22.83	22.39	22.35	21.78	21.61	22.12	22.19	22.46	22.90	22.76	22.82	21.80	20.77	18.96	17.86	16.71	15.45	14.60	13.36	12.45	11.55	10.76	10.09	9.190	8.427	7.876	7.308	7.573	8.184	7.325	5.371	4.253	3.631	3.355	3.076	2.832	2.611	2.212	2.024	1.609	1.746	2.215	3.358	14.85	77.47	225.0	247.0	95.05	5.363	0.642	0.526	0.526	0.467	0.411	0.472	0.466	0.444
555.0	20.99	23.75	30.34	32.77	35.58	42.95	60.17	59.60	47.29	61.01	200.2	625.6	360.6	34.67	29.53	25.55	23.81	22.48	21.41	19.91	19.35	19.39	18.85	18.28	18.26	18.34	18.32	18.24	19.01	18.66	18.75	17.70	17.14	15.75	15.04	13.74	13.30	12.12	11.32	10.62	9.730	9.276	8.514	7.757	7.393	6.987	6.560	5.862	5.929	6.618	6.039	4.304	3.337	2.903	2.746	2.484	2.397	2.104	1.877	1.688	1.440	1.492	1.703	4.129	17.98	51.44	113.4	305.8	133.6	4.245	0.571	0.456	0.451	0.415	0.477	0.459	0.418
560.0	17.66	23.24	26.25	33.41	30.61	37.01	48.78	59.67	45.02	45.30	80.72	404.0	597.3	66.21	26.67	22.00	21.32	19.27	18.38	17.53	16.33	16.35	16.35	15.56	16.11	15.67	15.42	15.68	16.12	16.04	16.20	15.68	14.83	13.65	12.89	11.89	11.52	10.53	9.744	9.546	8.685	7.834	7.577	6.870	6.654	5.960	5.693	5.279	4.849	5.366	5.837	4.628	3.220	2.626	2.481	2.254	2.003	1.805	1.859	1.634	1.326	1.213	1.143	1.625	4.718	12.22	27.59	156.0	300.8	26.75	1.411	0.569	0.397	0.500	0.390	0.386	0.394
565.0	18.06	23.14	25.38	29.48	28.77	31.76	37.32	54.01	42.57	39.20	46.18	190.9	616.7	221.7	22.71	19.25	18.00	16.83	16.02	15.38	14.04	14.11	13.91	13.86	14.05	13.56	13.28	13.62	13.74	13.93	13.93	13.34	12.77	11.59	11.10	10.41	9.806	9.211	8.723	8.294	7.429	6.947	6.856	6.310	5.675	5.347	4.932	4.658	4.196	4.321	4.799	4.583	3.121	2.554	2.226	1.978	1.891	1.654	1.585	1.564	1.342	1.053	1.166	1.148	1.774	3.408	6.738	39.74	193.5	208.1	21.05	0.688	0.490	0.441	0.388	0.377	0.367
570.0	17.67	21.43	23.55	24.05	24.96	25.63	29.36	41.78	44.42	33.69	34.54	71.52	349.7	472.9	59.12	16.51	14.69	14.07	13.22	12.39	11.79	11.27	11.16	11.22	11.29	10.80	10.80	10.95	10.98	11.27	11.46	10.70	10.39	9.398	9.170	8.647	8.033	7.497	6.888	6.601	6.201	5.922	5.351	5.071	4.735	4.582	4.157	3.835	3.412	3.360	3.458	3.775	3.253	2.529	1.928	1.858	1.693	1.459	1.358	1.286	1.242	1.040	1.011	0.918	1.059	1.412	2.142	9.446	49.04	132.2	172.6	66.09	3.449	0.474	0.397	0.377	0.376
575.0	17.90	19.84	22.25	19.71	20.03	20.77	21.42	30.68	41.90	32.85	28.31	35.58	118.7	406.8	300.9	14.84	11.83	10.88	10.31	9.278	9.319	8.708	9.020	8.724	8.408	8.564	8.535	8.336	8.527	8.550	8.443	8.273	8.113	7.373	6.779	6.747	6.274	5.695	5.541	5.188	4.685	4.474	4.271	4.092	3.945	3.512	3.298	3.111	2.732	2.604	2.430	2.508	2.868	2.544	1.848	1.516	1.387	1.232	1.243	1.047	1.062	0.995	0.946	0.837	0.808	0.917	1.079	2.597	11.40	30.31	71.03	172.6	27.55	2.479	0.455	0.350	0.364
580.0	17.96	18.86	20.70	17.37	17.78	17.63	19.53	21.93	35.08	36.49	26.40	25.96	44.67	238.3	462.9	48.10	9.842	9.100	8.598	7.773	7.585	7.375	7.372	7.188	7.119	6.807	7.114	7.017	7.242	7.102	7.198	6.718	6.791	6.304	5.708	5.389	5.204	4.966	4.632	4.082	3.885	3.823	3.440	3.348	3.363	2.949	2.784	2.589	2.361	2.128	1.953	1.959	2.298	2.420	1.789	1.439	1.254	1.070	1.082	0.923	0.922	0.857	0.890	0.811	0.781	0.658	0.755	1.032	3.079	7.232	17.28	86.44	149.1	23.72	0.938	0.332	0.318
585.0	20.02	18.61	19.62	16.53	15.18	16.00	18.27	19.68	29.48	37.76	26.62	24.98	25.47	106.1	422.2	194.0	8.393	8.249	7.132	6.609	6.203	6.320	6.294	6.120	5.979	5.927	5.798	6.067	5.998	6.213	5.911	5.741	5.605	5.263	4.965	4.648	4.362	4.212	3.951	3.795	3.296	3.201	2.869	2.854	2.803	2.473	2.470	2.280	1.952	1.725	1.562	1.566	1.748	2.037	1.870	1.465	1.099	0.967	0.974	0.826	0.789	0.817	0.798	0.824	0.778	0.631	0.655	0.662	1.135	2.096	4.280	22.02	98.26	124.3	17.18	0.482	0.333
590.0	15.32	18.91	18.48	16.44	13.66	14.22	15.50	16.69	22.71	34.03	32.22	23.42	20.59	36.56	210.5	362.4	43.30	6.655	5.810	5.445	5.192	5.238	5.197	5.009	4.803	4.706	4.799	4.956	4.762	4.858	4.894	4.621	4.422	4.195	4.008	3.710	3.520	3.445	3.135	3.011	2.801	2.598	2.414	2.375	2.251	2.035	1.947	1.815	1.665	1.525	1.383	1.335	1.306	1.430	1.755	1.476	1.109	0.891	0.838	0.724	0.786	0.752	0.638	0.782	0.693	0.571	0.609	0.558	0.675	0.866	1.343	5.259	24.86	71.95	91.75	36.84	2.099
595.0	16.20	18.39	18.04	13.69	11.80	13.17	12.61	14.67	17.25	26.02	36.24	23.60	18.76	18.85	64.95	269.7	247.8	7.830	4.898	4.562	4.271	4.407	4.073	3.999	4.119	3.951	3.651	3.888	3.843	3.921	3.676	3.677	3.461	3.317	3.247	3.140	2.833	2.658	2.556	2.351	2.157	2.202	2.068	1.852	1.652	1.702	1.628	1.447	1.359	1.240	1.094	1.102	1.069	0.949	1.222	1.431	1.174	0.914	0.732	0.667	0.660	0.639	0.608	0.708	0.653	0.611	0.581	0.526	0.552	0.533	0.624	1.507	5.906	16.50	36.46	91.15	26.50
600.0	15.32	16.62	16.52	12.86	11.28	11.63	12.57	13.49	15.40	21.90	32.40	25.42	18.19	15.18	21.80	139.9	354.6	37.94	4.504	4.004	3.657	3.674	3.356	3.606	3.377	3.516	3.281	3.386	3.194	3.232	3.274	3.130	2.942	2.703	2.659	2.494	2.396	2.195	2.203	1.978	1.934	1.812	1.796	1.706	1.493	1.526	1.394	1.335	1.149	1.029	1.059	0.950	0.852	0.790	0.897	1.140	1.217	0.910	0.761	0.634	0.664	0.626	0.591	0.533	0.665	0.646	0.607	0.542	0.496	0.508	0.416	0.667	1.658	3.999	8.883	44.62	83.11
605.0	14.93	15.47	15.12	14.81	10.37	10.04	10.93	11.88	14.45	19.57	28.82	28.86	19.02	14.27	12.13	56.84	298.8	153.2	4.251	3.668	3.393	3.165	3.035	2.899	2.950	2.957	2.740	2.887	2.805	2.881	2.739	2.718	2.708	2.416	2.300	2.103	2.142	2.015	1.937	1.655	1.669	1.578	1.397	1.477	1.367	1.360	1.224	1.138	1.048	0.898	0.948	0.858	0.795	0.802	0.777	0.879	1.196	1.044	0.743	0.582	0.568	0.575	0.536	0.504	0.509	0.573	0.603	0.596	0.472	0.435	0.408	0.473	0.677	1.172	2.223	11.46	52.53
610.0	15.32	16.70	14.79	13.13	10.35	9.224	10.46	10.82	14.32	16.68	24.34	30.05	20.60	12.90	9.859	18.27	134.2	271.4	34.68	3.157	2.742	2.554	2.574	2.422	2.474	2.397	2.271	2.408	2.259	2.478	2.508	2.191	2.137	1.927	1.911	1.843	1.815	1.614	1.487	1.466	1.417	1.302	1.156	1.194	1.127	1.200	1.071	0.976	0.919	0.777	0.769	0.754	0.682	0.707	0.693	0.728	0.859	0.900	0.746	0.553	0.490	0.505	0.522	0.518	0.487	0.521	0.581	0.564	0.471	0.422	0.371	0.406	0.445	0.546	0.748	2.832	13.29
615.0	15.84	14.35	13.99	11.21	10.76	9.557	10.23	11.07	12.91	16.28	19.53	25.85	24.11	12.55	9.250	8.371	38.12	183.4	195.4	4.929	2.586	2.052	2.004	2.010	1.946	2.104	1.973	2.002	1.806	1.972	1.906	1.795	1.950	1.679	1.632	1.550	1.654	1.449	1.258	1.200	1.155	1.185	1.005	0.960	0.955	0.959	0.945	0.782	0.700	0.664	0.579	0.641	0.645	0.587	0.545	0.548	0.644	0.761	0.733	0.585	0.461	0.482	0.505	0.478	0.407	0.455	0.523	0.491	0.554	0.424	0.342	0.367	0.368	0.401	0.426	0.903	3.275
620.0	16.24	16.49	13.65	10.53	9.284	8.674	9.895	10.04	11.73	15.03	16.60	22.01	26.08	14.15	8.873	6.299	11.97	87.72	274.4	36.24	2.386	1.923	1.892	1.812	1.670	1.594	1.709	1.700	1.707	1.706	1.612	1.552	1.615	1.454	1.427	1.322	1.229	1.297	1.112	1.105	1.047	1.066	0.974	0.861	0.819	0.777	0.748	0.716	0.674	0.619	0.599	0.477	0.469	0.515	0.503	0.473	0.541	0.660	0.657	0.637	0.511	0.456	0.450	0.398	0.399	0.473	0.422	0.437	0.438	0.483	0.382	0.332	0.333	0.350	0.367	0.491	0.983
625.0	13.41	13.91	11.91	11.40	8.514	8.716	9.490	9.312	10.75	13.67	16.06	18.45	24.03	16.26	8.793	5.662	5.433	33.08	214.4	139.8	2.504	1.792	1.633	1.654	1.591	1.592	1.552	1.519	1.483	1.473	1.437	1.362	1.407	1.295	1.173	1.227	1.112	1.161	1.097	0.944	0.875	0.913	0.828	0.797	0.782	0.697	0.675	0.679	0.624	0.524	0.528	0.444	0.425	0.482	0.444	0.436	0.445	0.541	0.556	0.634	0.572	0.481	0.440	0.429	0.407	0.434	0.402	0.414	0.400	0.446	0.394	0.309	0.375	0.296	0.329	0.417	0.497
630.0	14.29	13.63	13.24	10.90	9.116	8.631	8.690	10.20	10.32	12.79	14.78	16.30	19.41	18.62	9.085	5.787	4.371	10.30	88.09	220.4	30.81	1.640	1.426	1.529	1.428	1.322	1.291	1.277	1.296	1.335	1.362	1.178	1.149	1.060	1.063	1.030	0.910	0.934	0.918	0.851	0.756	0.741	0.709	0.637	0.635	0.649	0.574	0.583	0.512	0.490	0.431	0.424	0.414	0.410	0.424	0.405	0.419	0.462	0.461	0.553	0.503	0.455	0.415	0.382	0.363	0.408	0.394	0.412	0.393	0.385	0.430	0.355	0.368	0.304	0.307	0.311	0.368
635.0	14.52	13.56	12.70	9.455	7.910	7.400	7.899	8.949	9.804	11.89	14.40	15.03	15.21	17.94	11.91	6.089	3.983	4.897	23.47	130.1	170.2	3.728	1.384	1.425	1.264	1.177	1.096	1.041	1.167	1.191	1.115	1.024	1.058	0.962	0.936	0.858	0.865	0.768	0.845	0.792	0.667	0.632	0.591	0.599	0.526	0.564	0.499	0.530	0.427	0.439	0.401	0.433	0.391	0.437	0.405	0.411	0.361	0.409	0.386	0.456	0.437	0.413	0.425	0.377	0.328	0.377	0.334	0.356	0.367	0.358	0.399	0.415	0.366	0.375	0.275	0.318	0.325
640.0	14.61	12.76	11.67	10.27	8.984	7.527	7.638	7.866	9.276	12.04	14.38	14.55	14.17	15.40	14.23	6.479	4.160	3.595	7.178	55.12	221.8	31.61	1.390	1.213	1.158	1.017	1.084	0.956	1.084	1.066	0.986	0.859	0.841	0.884	0.881	0.781	0.798	0.693	0.711	0.708	0.644	0.645	0.539	0.527	0.431	0.496	0.471	0.460	0.397	0.409	0.357	0.371	0.378	0.383	0.319	0.347	0.376	0.368	0.373	0.355	0.399	0.487	0.515	0.394	0.380	0.397	0.356	0.322	0.382	0.331	0.327	0.360	0.352	0.352	0.322	0.345	0.313
645.0	13.67	14.21	12.96	9.115	8.160	8.131	8.122	8.053	9.549	10.72	13.43	13.51	13.07	12.98	15.22	7.423	4.253	3.461	3.515	18.14	163.5	120.4	1.802	1.126	1.117	1.008	0.966	0.968	0.970	0.924	0.936	0.879	0.823	0.817	0.831	0.793	0.687	0.687	0.636	0.668	0.691	0.514	0.572	0.565	0.421	0.478	0.475	0.486	0.398	0.347	0.333	0.344	0.371	0.325	0.290	0.310	0.320	0.328	0.304	0.329	0.372	0.390	0.438	0.449	0.356	0.409	0.342	0.380	0.373	0.308	0.299	0.337	0.401	0.367	0.322	0.311	0.319
650.0	12.46	13.99	13.58	9.526	8.142	7.890	7.864	8.656	9.713	11.33	12.79	13.89	13.25	12.04	13.53	8.928	4.776	3.532	2.736	6.031	77.08	192.1	11.84	1.038	1.097	0.922	1.000	0.851	0.898	0.893	0.879	0.817	0.663	0.787	0.812	0.835	0.780	0.718	0.636	0.627	0.595	0.470	0.546	0.529	0.447	0.391	0.479	0.410	0.342	0.350	0.303	0.312	0.351	0.298	0.297	0.334	0.325	0.356	0.349	0.285	0.338	0.375	0.402	0.410	0.372	0.330	0.348	0.336	0.327	0.322	0.356	0.278	0.341	0.442	0.361	0.276	0.271
