Sample:	'1
File name:	Default_20230927_154228.FD3
Run date:	'15:36:07, 09/27/2023
Operator:	user
Comment:	'

Instrument
Model:	F-2700 FL Spectrophotometer
Serial number:	2190-003
ROM Version:	4J14000 07

Instrument parameters
Measurement type:	3-D scan
Data mode:	Fluorescence
EX  Start WL:	220.0 nm
EX  End WL:	600.0 nm
EX Sampling interval:	5.0 nm
EM  Start WL:	230.0 nm
EM  End WL:	650.0 nm
EM Sampling interval:	5.0 nm
Scan speed:	12000 nm/min
EX Slit:	5.0 nm
EM Slit:	5.0 nm
PMT Voltage:	700 V
Response:	Auto 
Corrected spectra:	Off
Contour interval:	50.000

Peak integration
Integration method:	Rectangular
Sensitivity:	1
Threshold:	1.000

Peaks
No.	ApexEX/EM(nm)	Height(Data)
1	225.0/315.0	287.6
2	225.0/525.0	260.3
3	225.0/560.0	235.6
4	225.0/640.0	224.5
5	230.0/290.0	222.4
6	230.0/305.0	248.1
7	235.0/500.0	269.4
8	240.0/515.0	223.2
9	240.0/525.0	213.4
10	240.0/620.0	151.1
11	245.0/265.0	213.8
12	245.0/520.0	204.9
13	250.0/270.0	215.5
14	250.0/365.0	 3861
15	250.0/540.0	170.3
16	255.0/275.0	277.1
17	255.0/575.0	113.0
18	255.0/610.0	97.41
19	260.0/285.0	349.8
20	260.0/560.0	142.4
21	260.0/605.0	89.51
22	265.0/290.0	391.5
23	265.0/580.0	131.6
24	265.0/615.0	86.40
25	265.0/625.0	87.27
26	270.0/295.0	560.4
27	270.0/590.0	119.5
28	270.0/620.0	85.64
29	275.0/305.0	776.9
30	275.0/600.0	106.3
31	280.0/310.0	781.1
32	280.0/615.0	100.3
33	285.0/315.0	732.3
34	290.0/320.0	658.7
35	290.0/405.0	482.9
36	290.0/645.0	63.12
37	295.0/330.0	489.7
38	300.0/235.0	24.80
39	300.0/335.0	435.3
40	305.0/340.0	464.1
41	310.0/280.0	17.19
42	310.0/345.0	419.5
43	315.0/355.0	379.7
44	320.0/360.0	393.9
45	325.0/365.0	365.6
46	330.0/285.0	13.59
47	330.0/375.0	333.7
48	335.0/275.0	11.53
49	335.0/380.0	349.6
50	340.0/235.0	10.12
51	340.0/385.0	340.0
52	345.0/260.0	10.34
53	345.0/275.0	9.809
54	350.0/305.0	9.726
55	350.0/400.0	320.3
56	350.0/585.0	16.70
57	355.0/250.0	9.098
58	355.0/405.0	299.8
59	360.0/240.0	8.987
60	360.0/295.0	10.52
61	360.0/410.0	280.2
62	360.0/620.0	11.03
63	360.0/640.0	10.22
64	365.0/235.0	8.932
65	365.0/280.0	8.791
66	365.0/415.0	263.5
67	370.0/285.0	8.627
68	370.0/425.0	240.8
69	375.0/255.0	8.290
70	380.0/320.0	7.808
71	380.0/625.0	9.530
72	385.0/260.0	7.127
73	385.0/445.0	175.8
74	390.0/325.0	6.293
75	400.0/465.0	113.2
76	405.0/300.0	5.987
77	410.0/245.0	5.921
78	415.0/485.0	71.38
79	420.0/365.0	5.723
80	425.0/335.0	6.058
81	425.0/390.0	6.284
82	425.0/495.0	52.87
83	430.0/505.0	43.61
84	435.0/510.0	37.65
85	440.0/275.0	5.158
86	440.0/635.0	5.584
87	445.0/255.0	5.059
88	445.0/525.0	27.92
89	455.0/400.0	5.532
90	455.0/540.0	20.87
91	485.0/585.0	7.246
92	485.0/630.0	4.471
93	495.0/360.0	12.92
94	500.0/355.0	12.99
95	500.0/605.0	5.614
96	505.0/445.0	5.745
97	515.0/625.0	4.808
98	530.0/460.0	5.607
99	545.0/300.0	5.617
100	550.0/305.0	6.236
101	560.0/240.0	4.493
102	560.0/310.0	5.630
103	565.0/420.0	5.430
104	570.0/315.0	5.701
105	575.0/320.0	5.359
106	580.0/325.0	5.327
107	595.0/380.0	5.444

Data points
	220.0	225.0	230.0	235.0	240.0	245.0	250.0	255.0	260.0	265.0	270.0	275.0	280.0	285.0	290.0	295.0	300.0	305.0	310.0	315.0	320.0	325.0	330.0	335.0	340.0	345.0	350.0	355.0	360.0	365.0	370.0	375.0	380.0	385.0	390.0	395.0	400.0	405.0	410.0	415.0	420.0	425.0	430.0	435.0	440.0	445.0	450.0	455.0	460.0	465.0	470.0	475.0	480.0	485.0	490.0	495.0	500.0	505.0	510.0	515.0	520.0	525.0	530.0	535.0	540.0	545.0	550.0	555.0	560.0	565.0	570.0	575.0	580.0	585.0	590.0	595.0	600.0
230.0	206.8	217.6	545.6	676.0	188.3	106.9	89.29	68.63	69.62	58.82	53.71	43.92	36.53	33.90	25.70	23.70	19.08	16.12	16.85	14.29	11.77	11.44	10.60	10.02	9.688	9.866	8.461	8.509	8.357	7.923	7.769	6.354	6.649	6.047	5.302	4.909	5.277	4.768	4.498	4.882	4.666	4.907	4.350	3.839	3.772	4.057	3.370	3.720	3.997	4.217	3.803	3.744	3.125	3.674	3.214	3.542	3.358	3.646	3.687	3.276	3.170	3.622	3.359	3.590	3.496	3.439	3.269	3.104	3.233	3.337	3.381	3.052	3.680	3.375	3.681	3.425	3.687
235.0	198.9	198.4	337.9	829.6	886.2	225.0	96.27	63.30	70.14	57.75	49.47	46.39	38.91	35.69	23.99	23.28	24.80	13.24	14.62	13.02	11.56	10.72	11.19	8.761	10.12	8.039	8.933	8.201	7.397	8.932	8.335	5.168	6.268	7.441	5.076	5.729	5.119	5.058	5.168	4.622	5.223	4.539	4.173	4.214	4.180	3.828	3.564	3.684	3.325	3.201	4.206	5.480	4.272	3.404	3.268	3.572	3.130	3.584	2.870	3.153	3.268	3.415	3.184	3.477	3.197	3.064	2.875	3.555	3.539	3.468	3.200	3.670	3.307	3.176	3.829	3.651	3.834
240.0	217.0	189.1	201.7	447.3	 1302	910.1	158.3	83.44	72.72	71.40	56.44	38.87	40.62	33.58	22.46	23.62	23.87	14.12	13.75	13.30	12.35	11.92	10.47	9.431	9.428	8.019	8.050	7.717	8.987	8.323	7.155	6.098	6.895	6.529	6.023	4.935	4.390	5.000	5.821	5.366	4.340	4.513	4.638	4.435	3.955	4.710	3.519	3.382	3.546	2.980	4.185	5.121	6.109	5.912	4.506	3.791	2.739	3.217	3.631	3.385	3.313	3.431	3.095	3.739	3.874	3.283	2.526	3.801	4.493	3.417	2.811	4.274	3.628	3.492	3.374	4.190	3.936
245.0	258.5	211.1	208.1	212.8	734.5	 1640	886.1	124.1	77.15	60.42	47.67	41.54	35.21	32.96	25.67	24.36	22.20	14.62	16.02	14.43	13.27	9.702	10.66	9.070	9.972	8.543	7.343	8.999	7.530	7.199	7.016	6.617	6.646	6.636	6.674	4.919	4.455	4.473	5.921	4.237	4.490	4.577	4.653	4.654	4.352	4.136	3.486	3.059	3.424	2.978	3.176	3.630	4.471	6.725	7.601	5.720	3.678	3.112	3.295	3.138	3.238	3.634	3.498	3.391	3.484	2.765	2.890	3.852	3.468	3.491	3.535	3.803	3.052	3.700	3.587	3.853	3.929
250.0	260.3	225.8	228.5	196.8	269.3	775.3	 1733	 1478	367.1	63.70	47.11	42.28	38.13	33.04	23.95	20.78	22.48	17.34	16.13	14.31	11.92	10.30	10.87	10.36	8.863	9.823	7.407	9.098	7.122	6.241	6.466	6.586	6.544	6.632	5.542	5.041	4.677	4.794	4.627	4.568	4.591	4.655	4.423	4.164	4.576	4.008	3.598	3.325	3.314	2.800	3.059	3.496	3.566	4.585	5.561	7.218	8.509	7.900	5.520	3.857	3.751	3.426	3.506	3.436	3.894	3.572	2.672	3.843	3.291	3.652	3.243	3.772	2.948	3.817	3.548	3.477	3.812
255.0	207.7	206.6	214.1	210.5	204.1	247.5	584.8	 2231	 2136	385.0	51.30	41.93	41.69	33.96	26.34	22.14	22.27	18.09	14.93	13.75	12.18	11.67	10.20	10.52	7.798	9.928	8.034	8.564	8.409	7.539	6.057	8.290	5.330	5.710	5.812	5.304	5.198	5.485	5.179	5.380	4.374	4.651	4.757	3.774	4.007	5.059	3.074	3.639	3.172	3.093	3.286	3.226	3.560	3.510	3.923	3.724	5.257	6.768	11.16	11.60	7.385	3.328	3.286	3.339	3.206	3.127	2.270	3.366	3.537	3.420	3.408	3.487	3.808	3.978	3.692	3.726	3.780
260.0	223.5	213.3	162.6	167.0	201.8	170.5	210.5	917.2	 3926	 1788	240.6	46.47	45.29	34.20	28.57	22.89	19.01	16.36	17.16	14.30	13.83	11.40	9.537	11.08	8.621	10.34	8.525	8.160	7.823	7.782	5.285	6.596	6.152	7.127	6.061	5.665	4.796	5.552	4.682	4.919	5.263	3.843	4.426	3.830	4.098	4.470	3.922	3.773	3.222	3.421	3.293	3.064	3.680	3.259	3.056	3.374	4.193	4.833	7.114	10.50	13.84	11.56	5.721	3.283	3.047	3.129	3.565	3.038	3.433	3.247	3.385	3.584	3.829	3.138	3.410	3.601	3.595
265.0	227.6	183.5	151.9	146.3	188.3	213.8	145.3	289.6	 1713	 3945	 1488	115.2	42.62	36.77	31.13	24.09	20.57	14.12	15.06	13.87	13.34	12.11	11.05	10.57	9.089	8.500	8.353	6.884	8.127	6.733	6.410	6.324	5.489	7.006	5.867	5.609	4.981	4.591	4.734	4.964	4.983	4.830	5.119	4.318	4.083	3.199	3.475	3.623	3.144	3.105	2.903	3.616	3.066	3.390	4.064	3.762	3.909	3.902	4.220	5.254	8.469	15.68	16.62	9.812	4.376	3.314	3.846	2.817	3.374	3.625	2.796	3.279	3.252	3.300	3.150	3.283	3.405
270.0	209.8	191.2	174.3	148.4	139.5	195.3	215.5	191.0	466.5	 1599	 3608	 3106	410.8	39.51	29.44	25.18	21.83	15.44	16.10	14.20	12.17	10.55	9.766	10.23	8.723	8.495	9.188	7.819	8.317	7.194	6.860	6.970	5.414	6.819	5.501	5.578	4.541	4.542	5.228	4.927	4.551	4.750	4.587	4.134	4.249	3.665	4.106	3.465	3.408	2.865	2.892	3.752	3.159	3.849	3.910	3.731	4.204	3.972	3.663	3.959	4.129	7.558	10.20	12.78	14.80	13.03	8.214	3.843	3.434	3.466	2.950	3.115	3.384	3.283	3.857	3.436	3.789
275.0	247.4	196.8	176.6	138.6	133.5	140.6	183.4	277.1	205.8	417.8	 1052	 4159	 5025	435.3	33.66	26.39	18.62	16.22	16.29	13.71	13.55	10.85	10.43	11.53	7.885	9.809	8.324	7.315	6.974	6.988	8.481	7.748	5.985	5.970	6.174	5.871	4.755	5.335	5.001	5.148	3.719	4.307	5.083	4.015	5.158	3.337	4.217	4.108	4.027	2.372	2.982	3.158	2.515	3.227	3.191	4.145	3.678	4.292	4.354	3.495	3.755	4.317	5.824	4.774	7.335	13.06	21.51	19.35	8.273	4.056	3.020	3.165	3.121	3.285	3.151	3.783	4.208
280.0	238.2	208.0	229.5	132.8	120.4	114.8	125.7	274.4	282.9	173.6	310.5	 1443	 6059	 4146	207.4	31.30	18.14	16.12	17.19	12.65	12.62	11.68	11.11	9.410	8.672	8.802	8.457	7.830	7.331	8.791	8.122	7.518	5.892	5.541	5.841	6.189	5.705	5.065	4.553	4.741	3.950	4.321	5.030	3.963	4.081	3.436	3.493	4.107	3.816	2.685	2.721	3.419	3.150	3.371	3.751	3.471	3.528	3.928	4.259	3.364	3.977	3.645	3.749	3.849	3.700	5.702	11.75	20.17	25.19	16.13	6.812	3.105	3.097	3.322	3.156	3.315	2.758
285.0	209.8	191.6	211.9	159.9	126.9	107.5	103.5	155.0	349.8	227.1	175.2	422.3	 2439	 7114	895.3	80.17	26.55	19.12	15.98	16.24	12.39	13.37	13.59	9.825	9.387	9.101	9.510	7.112	7.522	7.632	8.627	8.215	6.080	5.503	6.164	5.710	6.065	4.730	4.717	5.110	4.111	4.948	4.486	4.286	3.698	3.721	3.274	3.826	3.624	3.046	2.601	3.685	3.780	3.089	3.395	2.911	3.641	3.530	3.943	4.123	4.282	4.602	3.945	3.551	3.302	4.089	5.897	8.145	16.75	25.31	23.25	11.24	4.876	3.694	3.239	4.106	4.043
290.0	212.5	213.5	222.4	174.7	147.8	130.6	127.2	125.9	226.6	391.5	315.7	241.4	700.4	 2723	 5206	 3054	244.0	21.00	18.38	14.40	15.25	12.63	12.12	9.385	8.856	9.072	7.227	9.089	8.122	7.295	7.821	6.800	6.396	5.394	6.256	5.915	5.873	4.240	4.880	5.113	4.179	4.551	4.228	4.347	4.113	3.753	3.279	3.926	3.381	3.153	2.644	3.606	3.656	3.793	3.553	3.213	3.297	3.423	3.809	4.005	4.049	4.460	4.743	4.277	3.888	3.800	4.025	5.227	6.478	10.07	15.28	20.33	22.07	16.73	9.296	4.626	3.871
295.0	195.0	225.8	212.5	218.4	134.3	146.9	140.8	149.6	181.1	290.2	560.4	409.5	371.9	776.5	 1532	 5427	 4405	268.7	18.23	16.73	15.74	11.35	11.62	11.82	8.312	8.402	8.169	8.494	10.52	7.678	7.657	7.173	6.042	5.729	5.484	5.898	5.855	4.928	5.302	4.430	4.948	4.874	4.563	4.345	4.275	3.510	3.762	3.463	3.453	3.023	3.092	3.757	3.345	3.433	3.873	3.496	3.750	3.410	3.465	3.580	3.489	3.264	5.325	5.009	4.144	4.302	4.017	4.342	4.214	5.204	6.428	7.623	9.835	18.51	28.03	23.80	9.862
300.0	185.3	249.9	243.2	234.5	170.2	172.7	159.6	189.8	228.8	299.7	535.8	708.5	424.7	390.9	475.7	 1944	 6938	 3295	133.6	17.15	14.40	13.23	11.17	12.15	10.85	9.638	9.022	8.576	9.718	6.456	7.495	7.299	6.644	6.371	5.471	4.352	5.767	5.987	4.833	4.886	5.252	4.464	4.544	4.246	3.641	4.052	3.308	3.890	3.201	3.392	3.641	3.737	3.860	3.567	3.123	3.793	3.709	4.276	3.527	3.899	3.936	3.265	4.488	4.898	4.674	5.617	5.286	4.220	4.616	4.398	4.105	5.232	4.559	6.736	14.99	27.87	32.24
305.0	229.9	240.7	248.1	242.8	216.1	191.8	187.3	230.0	251.2	352.1	447.0	776.9	658.4	357.2	261.2	535.3	 2969	 7366	 2271	53.92	16.00	13.68	13.11	12.08	11.05	8.506	9.726	8.384	8.247	7.963	7.410	6.929	6.176	5.358	5.253	4.600	5.362	5.796	4.957	5.508	4.697	4.077	4.587	3.790	4.529	4.000	3.797	4.000	3.778	3.451	3.280	4.038	3.470	3.629	2.791	3.474	3.961	4.298	4.031	3.755	3.940	3.464	4.756	4.274	4.421	5.284	6.236	5.698	4.865	4.156	3.937	3.877	3.845	4.715	6.611	11.52	21.17
310.0	245.0	271.3	242.1	240.6	220.9	219.3	221.9	267.9	311.5	384.4	468.5	604.6	781.1	593.7	278.6	234.3	747.8	 3015	 5627	 2999	161.9	16.95	13.47	11.72	12.06	10.26	9.404	9.316	8.453	7.948	8.567	6.386	6.821	5.643	5.496	5.471	4.716	5.900	4.693	5.020	4.564	4.664	4.300	4.217	3.970	3.679	3.644	3.818	3.832	2.945	3.070	3.532	3.678	3.656	3.831	3.758	3.572	4.010	3.787	4.034	3.890	3.984	4.349	4.583	4.477	4.608	5.276	5.350	5.630	5.128	4.703	4.108	3.865	4.268	4.412	5.516	7.914
315.0	225.9	287.6	280.6	263.0	217.9	234.7	265.9	298.7	357.3	439.2	499.1	558.1	611.7	732.3	478.2	195.3	249.2	722.9	 1671	 5768	 3007	193.7	14.85	12.31	12.20	9.696	8.706	8.172	8.508	8.247	8.478	6.191	6.874	5.731	5.275	5.246	4.495	5.653	5.695	4.993	4.495	4.808	5.258	3.893	3.591	4.353	3.883	3.784	3.633	2.892	3.099	3.130	4.047	3.452	3.771	4.380	3.865	3.953	4.174	4.207	4.314	3.663	4.542	3.944	4.630	4.321	4.095	4.753	5.203	5.071	5.701	4.386	3.306	4.988	4.298	4.020	4.856
320.0	262.9	267.5	303.4	274.5	276.3	300.4	340.1	353.0	392.1	451.6	502.3	528.8	541.5	588.8	658.7	282.2	150.5	224.0	422.7	 2227	 6970	 2381	93.38	13.10	10.71	9.345	9.259	9.378	7.769	7.808	7.087	6.690	7.808	5.732	4.800	5.048	4.672	5.363	4.803	5.080	4.814	5.084	5.699	4.620	3.823	4.344	4.149	3.413	3.604	3.230	3.190	3.298	3.289	3.748	3.454	3.636	4.328	3.814	4.590	4.529	4.716	3.901	4.458	4.758	4.914	4.948	3.953	4.415	5.004	4.558	4.819	5.359	4.529	4.789	3.811	3.755	3.595
325.0	228.3	258.9	353.8	336.0	406.8	449.1	476.8	476.2	488.8	504.7	559.2	557.5	529.0	508.9	566.9	464.7	175.1	129.7	148.7	563.0	 3396	 6622	 1669	35.87	13.32	12.59	9.381	10.08	8.512	7.811	7.007	7.378	6.784	5.005	6.293	4.940	4.277	5.690	5.268	5.337	5.050	4.639	4.847	4.266	3.409	4.775	3.756	3.368	3.609	3.278	3.575	3.515	3.919	3.923	3.763	4.134	4.615	4.567	4.917	4.904	4.369	4.292	4.872	5.227	4.777	4.221	4.753	4.341	4.488	4.606	4.656	5.112	5.327	4.537	3.702	3.469	3.323
330.0	267.2	361.5	464.0	609.6	703.9	825.5	890.5	826.3	753.2	698.3	625.7	572.8	533.7	496.5	445.1	489.7	372.7	166.0	119.7	184.8	840.8	 3059	 5221	 2492	115.5	13.21	10.43	9.197	9.718	8.663	8.281	6.993	5.923	6.455	5.967	5.061	5.055	5.466	5.286	5.133	5.307	5.213	4.910	5.021	4.133	4.691	3.590	4.313	3.666	4.107	4.141	4.241	4.962	5.100	4.919	5.486	5.517	5.147	5.650	5.138	5.131	5.397	4.670	5.111	4.919	5.012	4.683	4.785	4.617	4.591	4.363	4.655	4.216	4.538	4.451	4.034	4.212
335.0	312.5	411.5	609.3	907.9	 1214	 1423	 1525	 1377	 1139	 1023	790.1	621.0	551.8	488.9	422.3	379.9	435.3	360.2	156.6	126.5	249.6	728.4	 1774	 5816	 2210	144.1	12.06	10.74	11.39	8.711	8.244	5.446	6.848	6.773	6.063	5.350	5.444	4.890	5.169	5.185	4.797	6.058	5.168	4.358	4.356	4.712	3.637	4.510	4.026	4.341	4.610	7.006	5.767	6.394	7.085	6.622	6.982	6.774	6.825	6.170	6.087	5.838	5.529	5.410	5.144	4.598	4.841	4.396	4.580	5.043	4.408	4.801	3.937	5.058	4.244	4.466	5.172
340.0	303.3	443.8	802.3	 1219	 1570	 1949	 2107	 1885	 1515	 1287	893.2	645.9	572.9	522.8	422.5	367.4	359.7	464.1	271.2	142.1	138.1	217.3	445.4	 2557	 6264	 1814	78.70	11.52	9.779	9.991	8.852	7.754	6.860	7.876	5.114	5.016	4.787	4.972	5.675	5.081	4.660	4.662	4.930	4.773	4.936	4.338	3.553	5.441	4.189	4.832	4.662	7.384	6.854	7.396	7.526	8.264	7.988	8.583	8.072	7.645	5.787	6.527	5.949	6.077	4.860	4.545	5.232	4.557	4.745	4.169	4.602	4.475	4.352	4.659	3.899	4.355	3.864
345.0	354.2	531.2	950.0	 1526	 2043	 2460	 2677	 2329	 1853	 1485	 1046	687.4	567.1	535.7	455.6	390.4	338.6	401.3	419.5	201.7	122.8	119.3	153.7	642.4	 3575	 6086	 1349	28.67	9.945	10.31	9.306	9.031	7.155	7.343	5.812	5.451	5.099	5.327	6.049	4.459	5.120	4.452	4.901	4.316	4.099	4.702	4.205	5.084	5.075	5.122	5.302	8.310	7.900	9.192	9.377	9.859	10.10	9.165	9.227	8.563	6.535	7.003	7.645	5.540	4.809	4.878	5.364	4.632	4.399	4.897	4.647	4.205	4.568	4.683	4.237	4.362	4.533
350.0	356.6	578.8	 1116	 1826	 2494	 3076	 3180	 2828	 2240	 1756	 1161	710.2	562.6	541.0	485.7	418.4	350.7	342.7	406.2	353.1	189.9	124.6	107.0	198.9	906.3	 3148	 4939	 2239	100.7	11.88	10.51	8.367	7.594	7.872	6.414	5.766	5.517	5.899	5.817	4.081	4.760	4.651	5.248	4.646	4.178	4.835	3.963	5.073	4.977	5.407	5.955	8.230	9.231	9.876	10.31	11.36	11.36	10.56	9.957	8.704	8.306	7.299	7.509	5.866	5.637	4.990	4.521	4.455	4.862	4.101	4.553	4.522	4.703	4.244	4.016	3.939	5.022
355.0	369.8	611.7	 1203	 1955	 2786	 3426	 3625	 3153	 2474	 1931	 1245	722.6	584.4	553.2	514.2	452.8	398.1	361.5	332.2	379.7	339.3	178.5	116.7	115.9	256.6	745.5	 1905	 5666	 1878	116.4	11.59	10.81	9.416	8.313	6.067	5.938	5.230	4.864	4.507	5.185	4.909	4.002	5.586	4.291	4.360	5.066	4.420	4.866	5.421	5.886	6.303	8.405	10.20	11.47	11.27	11.36	12.99	10.98	10.96	9.851	9.034	8.396	7.053	6.343	5.973	5.583	4.685	4.504	4.472	4.039	4.618	4.869	5.149	5.180	5.080	4.629	4.716
360.0	398.7	628.8	 1340	 2084	 2986	 3645	 3800	 3296	 2636	 2064	 1336	726.9	613.9	560.1	519.1	463.2	419.9	382.7	345.2	335.9	393.9	275.7	148.6	117.3	127.5	216.5	479.0	 2757	 5798	 1546	66.40	10.34	9.499	8.750	6.959	6.111	6.022	5.335	4.718	4.409	5.091	4.927	4.890	4.501	4.402	4.499	5.495	4.727	6.083	5.920	6.691	9.373	10.81	11.54	11.84	12.92	12.67	10.90	10.88	9.770	8.663	8.646	7.055	6.151	5.265	5.480	5.541	4.413	4.481	4.852	4.487	5.140	4.617	4.561	5.031	4.971	5.172
365.0	384.6	641.9	 1323	 2107	 3060	 3671	 3861	 3315	 2647	 2103	 1315	752.2	607.3	545.9	523.5	478.6	448.2	404.8	370.0	318.2	347.1	365.6	209.7	135.0	114.8	116.7	157.0	704.7	 3513	 5736	 1168	22.89	9.096	7.845	7.411	6.186	5.618	5.315	4.937	4.043	5.723	4.823	5.700	4.441	4.819	5.166	5.329	4.986	5.536	5.590	6.612	9.188	10.60	12.04	12.65	12.89	12.58	12.00	10.91	10.09	8.773	8.333	7.636	6.586	5.810	5.749	4.320	5.216	4.900	4.752	4.474	4.435	4.840	5.267	4.707	4.577	5.304
370.0	370.8	680.9	 1277	 2017	 2916	 3660	 3769	 3290	 2571	 2026	 1273	739.9	591.9	545.0	534.9	500.7	468.8	430.1	391.3	347.1	312.0	342.9	327.9	206.7	140.4	116.9	103.1	206.2	905.1	 3177	 4846	 2011	81.68	9.468	9.066	6.012	6.767	5.326	5.187	5.295	5.108	4.923	4.798	4.174	5.023	4.759	4.949	5.072	5.095	6.313	6.486	8.959	9.913	11.34	11.31	12.46	11.54	11.67	10.49	9.908	9.111	8.385	8.172	6.654	5.918	5.355	4.431	4.815	4.628	4.830	4.721	4.829	4.262	5.230	4.758	4.815	5.657
375.0	364.7	616.4	 1140	 1979	 2725	 3403	 3629	 3127	 2442	 1894	 1235	758.5	581.8	534.2	551.6	508.7	480.5	446.5	418.2	373.7	321.2	308.4	333.7	326.2	196.6	139.9	112.8	117.1	251.0	746.6	 1966	 5405	 1567	97.13	8.934	7.633	6.720	5.894	5.227	5.499	4.680	5.255	4.997	5.182	4.718	4.363	4.742	5.335	5.219	5.178	6.562	8.883	9.805	10.53	10.78	11.90	11.55	11.67	10.20	9.114	8.684	7.362	7.683	6.380	5.541	4.976	5.055	5.258	4.393	4.510	5.199	4.909	4.076	5.496	4.803	5.268	4.770
380.0	328.5	615.0	 1109	 1936	 2555	 3078	 3261	 2932	 2281	 1828	 1218	731.8	596.9	547.4	524.4	504.0	486.1	462.5	432.5	386.2	339.0	304.2	296.6	349.6	278.9	170.5	130.7	111.3	120.3	213.7	489.4	 2752	 5482	 1290	49.37	8.457	6.878	6.582	4.972	5.684	4.705	6.109	5.419	5.200	4.690	5.220	5.347	5.440	4.956	5.650	6.103	8.731	9.011	10.16	10.60	12.02	11.78	10.26	9.171	7.750	8.014	8.080	6.919	6.520	4.904	5.166	5.009	4.340	4.466	4.833	4.467	5.159	5.341	4.936	5.156	5.444	4.399
385.0	376.9	538.0	995.1	 1783	 2335	 2893	 3089	 2708	 2131	 1683	 1147	692.6	580.4	543.0	510.4	505.6	476.6	455.1	436.5	399.5	349.7	323.4	294.0	310.5	340.0	229.0	153.2	126.9	102.6	104.9	148.8	710.4	 3509	 5049	911.2	18.77	8.224	7.381	6.245	5.093	5.746	5.906	5.726	4.854	5.291	4.261	5.246	5.363	5.316	5.190	6.334	8.224	8.359	9.734	9.552	11.80	10.75	9.517	9.171	7.956	7.626	8.200	6.662	6.494	5.508	4.705	4.730	4.727	4.493	4.789	4.895	4.973	4.770	4.185	4.961	5.189	5.430
390.0	334.6	521.2	933.8	 1523	 2112	 2546	 2670	 2392	 1920	 1505	 1044	639.8	541.5	529.1	490.3	494.5	474.5	460.8	441.7	411.3	369.4	341.2	309.2	293.9	315.3	314.1	214.8	152.4	119.0	99.95	90.60	201.6	904.8	 2828	 4015	 1672	64.70	8.646	6.187	5.866	4.806	6.284	5.428	5.357	4.722	5.435	4.363	5.048	5.024	5.058	5.939	7.704	7.701	9.131	8.596	9.680	9.004	9.410	8.594	8.239	7.629	7.246	6.923	5.820	4.946	4.949	4.803	4.313	4.530	4.997	4.555	5.289	5.248	4.539	4.864	4.568	5.239
395.0	323.3	492.2	748.0	 1319	 1751	 2221	 2249	 1998	 1618	 1348	938.6	615.8	531.0	504.3	490.8	468.2	464.2	461.1	438.1	403.5	387.4	348.1	331.6	294.9	287.4	306.9	310.1	203.7	146.0	116.6	94.87	95.50	241.3	661.2	 1680	 4508	 1241	79.46	8.333	6.199	5.261	5.171	5.417	5.010	4.603	4.734	4.101	5.290	4.961	5.028	5.249	7.280	7.157	7.743	8.535	9.325	9.212	8.456	7.337	7.451	7.320	6.645	6.619	5.819	5.093	4.792	4.214	4.318	4.537	4.675	4.464	5.288	3.934	5.407	4.696	4.635	4.827
400.0	304.7	465.5	722.9	 1198	 1587	 1917	 1942	 1740	 1450	 1188	867.7	602.0	510.4	497.8	474.1	467.7	449.8	445.2	417.8	409.5	376.6	355.9	345.8	311.7	289.2	280.8	320.3	262.4	174.2	132.7	99.77	84.20	101.6	179.3	412.4	 2254	 4321	 1064	42.45	7.658	5.521	4.951	4.865	5.793	4.717	5.134	4.113	5.532	4.436	4.543	4.842	6.321	7.082	7.715	8.239	7.903	9.020	7.207	6.921	7.036	6.126	6.559	5.816	5.580	4.691	4.922	4.946	5.053	4.646	4.839	4.378	4.864	4.536	4.588	4.674	4.695	4.546
405.0	281.8	473.2	639.3	 1097	 1410	 1643	 1698	 1567	 1334	 1071	791.6	573.1	507.3	469.9	482.9	457.8	450.1	438.0	418.7	401.0	371.8	362.2	344.1	318.6	294.8	278.9	281.4	299.8	228.8	153.4	123.2	92.19	76.79	78.82	120.5	576.1	 2673	 4106	780.7	16.98	7.115	7.017	5.182	4.788	4.433	5.095	3.941	4.034	4.047	4.922	4.364	5.997	6.599	7.247	7.149	7.329	7.118	7.659	6.412	6.419	5.898	6.247	5.866	4.898	5.224	4.486	5.225	4.923	5.142	4.722	5.042	5.228	4.235	5.244	4.488	5.143	3.993
410.0	304.9	396.7	560.1	893.6	 1191	 1383	 1490	 1316	 1127	929.1	725.3	538.5	496.3	447.2	467.6	443.8	423.3	422.0	400.5	390.1	374.2	356.5	345.2	325.3	308.0	285.6	260.5	275.4	280.2	206.0	143.3	109.0	86.48	65.88	62.33	155.0	678.0	 2239	 3201	 1388	57.48	7.322	5.356	4.841	4.931	5.193	4.006	4.441	4.553	4.485	4.431	5.606	5.591	5.940	6.179	6.487	6.399	6.734	5.827	6.181	6.125	6.113	5.585	5.014	5.126	5.084	5.152	4.313	5.147	4.664	4.256	5.078	4.008	5.156	4.827	5.301	4.661
415.0	297.8	419.4	487.4	742.8	991.4	 1189	 1204	 1143	975.6	837.4	653.2	535.9	476.8	440.1	435.6	417.1	402.3	387.1	395.0	370.3	357.9	343.6	341.3	324.9	297.5	279.8	262.8	253.0	258.4	263.5	185.9	124.9	99.95	73.84	57.43	66.71	174.6	518.0	 1246	 3393	 1096	74.79	5.323	5.434	6.112	5.755	4.333	4.617	4.294	3.905	3.683	5.138	4.591	5.499	6.181	5.706	6.560	5.551	6.368	4.934	5.706	5.298	5.325	4.828	4.870	4.643	4.500	4.853	4.648	5.230	5.025	4.828	4.156	4.829	5.073	4.657	5.649
420.0	342.5	326.6	481.1	669.7	908.1	995.2	 1080	974.7	855.0	746.8	596.4	514.0	458.1	437.9	416.5	407.8	389.7	386.8	372.8	358.6	353.8	334.8	335.0	326.1	301.3	290.2	264.3	245.5	242.4	257.9	229.7	144.6	107.3	80.42	61.33	52.88	66.31	136.0	303.0	 1613	 3344	938.0	37.64	6.658	5.287	5.283	4.311	4.387	3.813	3.954	3.365	4.944	4.214	5.912	6.093	5.350	5.888	5.679	5.946	4.973	5.127	5.577	4.900	4.873	4.929	4.255	5.099	5.301	4.700	5.430	4.864	4.397	3.841	4.655	5.162	5.002	4.582
425.0	310.8	348.0	483.7	639.5	764.9	903.7	936.1	866.0	796.8	696.0	584.5	480.0	450.8	425.5	403.5	392.1	368.1	372.3	359.4	344.7	337.4	329.4	322.5	309.2	303.2	292.2	268.1	246.3	232.5	229.6	240.8	181.7	117.9	88.56	70.04	55.13	44.68	54.76	85.42	403.2	 1964	 3153	670.4	14.27	5.171	5.485	4.518	4.935	4.657	3.627	3.936	5.084	4.628	5.171	5.057	5.268	5.672	5.753	6.701	5.137	4.751	5.576	4.142	4.610	5.008	4.340	5.049	4.723	4.784	4.507	4.730	4.002	3.502	4.892	4.362	5.011	4.019
430.0	246.0	313.0	415.4	577.8	683.4	789.3	807.7	783.8	697.3	626.8	537.7	460.0	438.4	413.4	386.7	374.0	356.4	353.5	337.3	335.5	323.5	319.9	315.9	301.1	294.0	281.0	267.5	248.2	228.6	215.6	215.2	211.4	153.0	102.8	77.24	61.37	47.87	42.74	41.23	106.7	491.3	 1643	 2502	 1101	54.10	6.362	5.163	4.989	4.153	3.917	4.091	4.540	4.740	4.627	4.919	4.929	5.175	5.472	5.317	4.784	4.629	5.146	4.855	5.068	4.822	4.338	4.242	4.879	4.777	4.885	5.059	4.284	3.977	4.783	4.417	4.844	4.503
435.0	312.4	294.4	386.4	505.7	627.6	710.6	723.1	698.5	646.7	588.5	529.3	454.4	412.3	406.4	371.5	346.8	346.1	341.8	312.7	321.2	304.4	307.6	305.5	286.4	282.1	280.2	259.8	251.1	232.0	218.0	201.3	189.2	191.5	133.6	90.61	69.77	56.71	45.95	35.94	44.05	125.3	381.8	986.6	 2795	 1006	71.71	5.440	5.844	4.458	3.537	4.521	4.387	5.212	5.318	5.532	5.375	5.060	4.485	5.080	5.085	4.759	5.162	4.606	4.307	4.599	4.563	4.200	4.698	4.459	4.411	4.522	4.277	4.367	4.846	4.577	5.055	5.279
440.0	316.7	274.5	375.2	515.8	550.4	633.0	641.6	630.8	600.6	525.2	510.7	439.2	418.1	396.9	371.2	336.9	335.6	311.4	316.1	301.4	292.4	294.9	288.2	275.7	277.0	271.3	258.8	248.6	236.4	218.8	199.8	176.3	185.1	162.8	104.5	77.83	62.21	48.68	38.62	34.93	46.58	101.0	240.9	 1391	 2946	872.4	35.14	5.915	4.211	3.837	4.395	4.525	4.254	4.681	5.426	4.750	5.445	5.176	4.739	5.063	4.781	4.360	4.604	4.428	5.051	3.855	4.152	4.235	4.164	4.093	4.599	4.552	4.213	4.526	4.764	4.675	4.974
445.0	247.7	322.5	364.0	416.4	550.5	593.0	615.7	609.3	554.3	496.6	481.6	430.3	406.3	381.9	368.6	332.0	309.6	307.1	307.7	290.4	288.5	282.0	272.8	271.8	264.7	263.0	250.6	245.7	228.9	219.1	201.1	171.5	163.6	175.8	127.6	85.82	68.96	53.32	42.82	33.30	32.43	39.05	69.04	351.2	 1737	 3077	587.1	15.20	4.879	4.086	3.673	4.565	4.427	4.583	4.711	3.997	4.488	5.745	4.598	4.506	4.467	4.672	4.198	3.933	4.308	3.887	3.807	3.786	4.287	4.599	4.237	4.612	4.311	4.042	3.976	4.349	4.170
450.0	230.8	348.6	400.8	372.6	452.6	506.8	543.5	534.2	501.3	479.0	443.3	424.8	374.5	361.8	344.7	309.4	292.8	288.3	273.9	272.6	265.3	265.2	255.6	256.3	250.2	244.6	238.7	233.8	224.1	212.2	197.0	171.6	151.5	149.9	141.9	106.7	74.50	59.74	46.87	38.13	32.94	29.53	31.74	91.94	435.8	 1627	 2378	 1049	43.48	4.505	4.367	4.503	4.642	4.652	4.934	4.060	4.573	5.050	4.774	4.549	4.807	4.743	4.546	4.176	4.455	3.826	3.802	4.124	4.025	4.412	3.972	4.343	4.316	4.330	4.350	4.437	4.059
455.0	245.5	302.1	491.5	380.1	415.0	480.9	467.6	479.1	462.6	437.5	417.8	389.5	363.9	335.4	322.3	280.9	268.5	259.6	251.8	252.6	241.2	240.0	236.5	241.4	229.4	226.0	227.7	223.9	204.6	204.3	188.5	170.4	147.6	136.4	127.1	127.0	92.91	67.07	52.22	43.73	37.83	30.75	26.73	34.42	109.0	374.6	892.4	 2552	802.4	48.85	5.281	4.559	4.962	4.400	4.496	4.370	4.710	5.432	4.622	4.967	4.358	4.570	5.347	4.880	4.250	4.155	3.964	3.630	4.241	4.521	4.076	3.812	4.264	4.961	4.279	4.472	4.600
460.0	230.7	267.9	526.7	489.2	403.8	437.9	449.2	431.8	459.4	429.0	400.7	372.0	335.9	318.5	297.7	273.9	251.7	252.8	234.0	237.6	222.2	218.8	227.8	224.7	223.6	214.8	216.7	211.7	197.6	196.2	187.0	164.3	146.3	125.0	113.0	119.4	110.9	75.94	57.74	46.26	39.07	32.19	27.19	23.66	37.09	94.84	214.6	 1229	 2536	611.4	28.78	5.068	5.458	5.002	4.721	4.630	4.836	5.001	4.640	4.789	4.580	3.702	5.607	4.324	3.842	4.094	3.665	4.286	4.498	4.525	4.509	3.591	4.318	4.161	4.361	4.025	4.292
465.0	214.1	264.3	453.1	601.3	405.8	373.0	400.3	417.0	427.9	407.2	387.2	369.7	320.4	299.6	284.2	266.2	233.2	235.2	226.3	209.4	214.7	215.8	207.1	209.6	202.3	207.8	200.0	196.9	193.5	188.3	180.0	160.1	140.4	121.3	106.6	104.8	113.2	85.65	59.78	48.55	40.04	33.64	26.50	22.28	21.49	33.07	57.89	306.6	 1533	 2274	490.0	9.509	5.373	5.605	5.399	5.159	4.906	4.660	4.252	4.913	4.465	4.242	5.554	4.679	4.314	4.306	3.635	4.394	4.165	4.743	4.525	4.701	4.122	4.313	3.924	4.262	3.857
470.0	263.2	225.2	334.2	776.7	573.4	347.1	379.9	377.4	361.1	356.7	346.5	332.3	304.1	281.8	266.7	243.6	224.1	213.9	209.0	198.8	193.4	196.7	188.2	188.0	183.5	184.9	178.3	183.0	177.6	172.8	162.7	148.8	135.6	116.1	101.0	93.64	94.97	94.04	70.61	51.24	41.22	33.90	29.09	23.87	20.80	20.40	23.48	78.09	381.2	 1245	 1758	460.1	36.03	5.472	4.811	4.770	4.668	4.677	4.458	4.860	4.618	4.322	4.871	4.993	4.245	4.526	3.896	4.320	4.012	4.156	4.533	3.860	4.304	4.342	3.788	4.336	4.164
475.0	245.8	255.2	255.5	516.8	869.6	399.4	324.5	338.5	333.7	333.6	336.4	318.8	272.9	253.4	239.7	214.7	199.7	191.1	185.4	175.4	169.5	172.3	169.8	169.9	169.3	172.0	160.5	161.4	160.9	152.1	148.0	139.6	127.8	109.8	96.98	85.55	81.56	80.37	78.81	57.51	41.76	36.23	30.59	23.69	21.32	19.07	17.28	27.90	93.91	285.7	671.6	 1667	689.3	39.43	4.483	4.575	4.651	4.663	4.282	4.132	4.845	4.548	4.114	3.924	4.377	4.312	3.328	4.021	4.202	3.841	4.044	3.935	3.831	4.424	4.046	3.746	3.892
480.0	250.4	209.6	238.3	323.9	899.2	610.1	311.7	326.3	320.1	313.6	302.2	316.8	267.8	233.9	222.2	201.8	190.1	178.1	168.7	164.6	161.6	162.5	159.4	160.5	156.5	156.8	151.7	147.0	152.8	143.1	140.3	127.4	115.7	101.1	93.16	82.41	75.16	68.29	74.72	67.48	47.88	36.87	31.78	27.42	20.93	18.84	15.59	16.47	29.36	71.08	161.3	841.5	 1794	555.0	15.01	5.028	4.658	4.589	4.089	4.448	3.929	4.615	4.410	3.878	3.637	4.009	3.629	3.624	3.963	4.284	4.467	4.261	4.486	4.274	3.689	4.158	3.903
485.0	205.0	229.4	250.6	276.0	658.3	899.7	325.8	298.6	300.6	298.6	296.5	291.4	269.3	235.3	199.3	192.9	177.9	168.5	158.1	153.3	152.2	149.2	147.3	147.8	141.7	151.8	144.4	140.2	144.9	134.5	130.5	123.8	114.4	99.23	90.20	81.12	70.67	65.15	65.28	71.38	53.56	38.35	29.82	27.93	22.57	19.73	16.59	15.54	15.90	23.13	42.79	214.0	 1144	 1645	102.2	7.490	4.617	4.604	4.266	4.777	4.309	4.185	4.520	3.852	3.895	4.294	4.044	3.441	4.314	3.810	4.466	3.885	4.114	4.513	3.947	4.313	4.244
490.0	233.4	249.3	249.8	270.7	373.8	953.5	659.1	278.4	279.4	285.6	290.4	260.3	249.5	222.4	194.8	178.6	167.9	156.7	148.7	140.5	135.7	135.1	134.7	135.3	133.3	133.7	131.0	130.7	130.9	126.5	121.0	115.3	106.0	93.85	85.93	76.80	68.33	62.16	56.41	59.35	58.18	45.46	32.48	27.94	24.08	20.43	17.58	15.54	13.80	13.09	16.20	54.04	290.3	934.4	 1107	446.8	31.63	5.260	4.652	4.452	4.433	4.564	4.691	4.291	3.960	4.255	3.798	3.693	4.045	3.835	4.162	4.382	3.894	4.306	3.762	4.509	4.613
495.0	269.5	225.2	245.4	235.7	256.9	548.3	 1101	345.6	261.4	258.4	245.6	232.4	221.8	207.3	184.3	162.3	148.5	135.5	133.8	128.9	121.5	119.2	119.0	124.0	119.8	116.5	117.3	120.7	115.6	115.1	111.8	109.5	95.91	89.61	76.12	73.02	63.80	60.01	53.32	50.61	52.46	52.87	37.83	27.95	22.99	20.89	18.45	15.13	13.02	11.87	10.28	17.88	70.67	215.3	546.3	 1603	665.5	28.97	4.625	4.843	4.693	4.601	4.445	4.124	3.777	3.753	3.921	4.244	3.592	4.544	3.587	3.886	3.711	4.125	4.226	4.740	4.275
500.0	265.3	244.5	252.2	269.4	215.4	304.1	 1073	712.0	238.8	254.1	236.6	219.0	216.2	189.2	173.8	151.8	142.7	130.0	121.2	119.5	111.1	114.1	109.1	114.8	111.7	105.7	105.5	111.0	110.4	102.9	104.9	97.29	87.91	84.18	74.40	70.72	61.64	55.22	50.99	47.01	44.06	49.21	42.20	31.58	23.02	21.24	18.72	14.67	14.83	11.54	10.67	10.20	21.82	52.67	134.1	885.2	 1699	474.9	12.10	4.365	4.589	4.761	3.892	3.160	3.406	3.669	3.580	3.985	3.658	3.282	3.790	3.809	3.402	3.822	3.943	4.491	4.725
505.0	219.5	239.8	211.5	226.7	218.4	229.0	736.0	 1125	266.2	249.6	229.5	208.8	188.8	180.8	159.9	141.1	132.1	119.6	113.7	109.7	101.8	103.6	104.1	100.3	104.8	97.51	99.11	101.8	100.3	100.3	94.27	90.01	82.66	76.13	68.69	64.84	59.26	52.90	46.64	43.54	40.31	42.00	43.61	34.59	24.13	22.58	19.74	16.09	14.44	12.28	10.51	9.945	11.07	17.65	35.08	229.3	 1163	 1550	101.2	6.066	4.597	4.223	4.218	3.787	4.053	3.494	4.014	4.306	3.301	4.037	4.130	4.215	3.901	3.919	3.717	4.622	4.764
510.0	210.5	254.2	209.4	227.8	205.1	199.2	347.9	 1140	823.0	229.2	204.0	197.2	185.6	159.1	141.0	133.2	119.5	109.6	105.6	99.59	97.06	92.14	92.01	90.84	93.94	92.32	89.97	89.18	89.54	89.52	86.95	81.40	74.72	70.51	62.03	57.23	54.64	48.72	45.09	39.54	36.84	35.79	36.07	37.65	29.17	22.47	18.39	16.35	14.28	12.28	10.48	10.43	8.738	10.10	13.02	56.10	301.7	949.5	 1069	393.7	24.20	4.481	4.160	4.615	3.669	3.870	4.338	4.001	4.219	3.999	3.957	3.918	3.881	4.046	3.627	3.555	4.326
515.0	216.6	259.0	216.9	217.3	223.2	202.7	225.8	580.6	 1569	319.1	185.9	184.9	167.5	147.5	136.8	116.6	114.2	102.9	95.43	87.58	86.66	81.94	82.31	79.87	82.36	78.91	79.42	81.49	77.27	76.28	76.52	71.93	67.78	62.48	55.01	51.76	48.47	44.30	40.97	37.49	33.99	32.28	28.24	33.24	32.79	24.66	18.24	15.86	14.12	11.37	10.19	9.982	8.375	8.569	8.535	17.66	73.41	218.5	550.9	 1336	521.1	15.51	4.200	4.506	3.600	4.226	4.080	3.512	4.242	3.665	3.805	4.155	4.527	4.403	4.334	3.627	3.943
520.0	209.6	252.0	203.0	200.1	195.6	204.9	183.9	290.0	 1370	724.8	163.6	167.7	154.5	136.2	130.4	108.3	102.8	89.06	82.92	80.02	74.98	75.62	72.98	71.63	73.82	71.50	70.07	73.86	70.43	68.01	69.22	66.41	62.66	59.40	52.21	47.57	44.97	41.10	36.91	34.63	31.87	30.62	25.67	26.89	29.90	27.69	18.80	16.06	14.79	11.33	10.18	9.244	7.862	7.964	7.903	9.638	21.56	53.19	137.9	777.6	 1282	106.8	7.684	3.809	3.940	4.495	4.267	3.920	3.491	3.875	3.926	3.363	3.575	3.954	4.097	3.689	4.161
525.0	214.5	260.3	205.5	196.0	213.4	199.0	171.6	205.1	799.2	 1226	201.2	165.7	144.9	130.9	109.8	102.5	93.56	85.84	78.44	73.33	73.70	68.26	66.85	67.64	64.22	65.91	64.34	66.75	65.60	63.96	67.94	59.87	58.23	54.81	49.46	46.62	43.07	40.13	34.65	34.38	29.00	28.52	24.01	23.84	25.46	27.92	21.49	15.69	12.48	10.73	9.876	8.961	8.421	7.884	7.391	6.838	9.191	17.03	35.95	206.2	919.9	871.2	83.66	4.715	4.231	3.839	3.939	3.282	4.354	3.279	4.312	3.365	3.920	3.747	4.246	3.777	4.302
530.0	239.0	245.5	212.0	175.9	198.3	190.6	168.4	165.7	321.2	 1194	719.0	153.7	137.4	111.4	105.1	95.15	84.96	79.41	71.03	67.04	66.05	62.97	57.90	59.09	55.80	58.71	56.24	56.60	56.38	56.67	56.92	54.36	50.97	47.25	43.57	41.53	38.01	35.21	32.09	30.50	26.48	24.75	23.57	20.59	20.36	23.83	23.46	17.36	12.64	10.70	9.666	8.947	8.447	8.295	6.865	7.104	7.136	8.528	12.49	50.00	242.4	663.8	807.2	287.8	15.07	3.961	4.061	3.480	4.171	3.800	4.140	3.521	3.702	4.074	3.895	4.132	4.106
535.0	246.8	225.2	194.7	199.0	157.8	154.5	159.8	148.7	188.8	524.8	 1425	268.3	118.0	101.6	96.24	82.59	76.02	64.74	61.37	57.11	60.74	55.17	54.04	52.30	47.93	51.42	47.89	49.58	49.73	49.63	47.59	46.78	42.66	40.89	38.56	35.01	33.19	31.48	28.12	28.29	23.22	21.52	20.90	20.35	17.99	18.12	20.45	20.04	15.28	10.98	9.934	8.681	7.970	7.213	7.331	6.793	6.881	6.730	6.499	15.68	58.54	154.0	415.9	956.5	111.6	9.879	4.348	3.628	4.337	4.100	3.647	3.854	3.755	3.747	3.913	3.790	3.854
540.0	267.4	212.3	195.6	181.1	141.3	141.3	170.3	153.7	143.5	245.2	 1278	719.2	115.2	105.6	82.38	72.67	68.20	61.59	52.47	57.46	49.47	49.50	51.12	46.56	44.64	45.74	42.49	43.28	46.49	45.24	43.21	40.59	40.70	37.18	34.60	31.98	30.52	29.67	25.44	24.09	21.53	21.16	18.92	18.86	16.64	16.21	17.14	20.87	17.87	11.05	8.882	8.526	7.596	6.944	6.650	6.623	6.341	5.942	5.783	7.856	17.00	37.95	104.5	579.3	807.1	93.05	5.801	3.540	4.261	3.846	3.947	4.267	3.634	4.031	4.243	3.356	4.089
545.0	243.5	200.2	169.3	182.4	155.6	127.0	160.5	147.1	137.8	142.8	676.6	 1286	149.3	96.61	74.90	73.67	62.59	56.86	48.55	53.68	47.38	47.84	44.96	40.33	44.93	40.03	42.66	41.39	40.68	40.15	40.30	38.19	35.34	33.37	30.52	28.53	26.61	26.75	24.46	21.94	21.09	20.03	16.85	16.61	15.53	14.64	14.66	16.04	16.92	12.13	9.220	7.944	7.518	7.245	6.588	6.887	6.731	6.005	5.466	5.630	7.881	11.64	27.21	158.5	653.6	662.2	64.55	4.045	4.168	4.125	3.939	4.005	3.310	3.233	3.641	2.868	4.105
550.0	248.5	187.7	159.0	164.7	162.3	154.0	154.4	149.4	126.2	120.5	254.0	 1181	674.8	92.13	66.96	67.42	57.32	53.06	46.86	46.09	45.28	41.44	39.78	36.68	38.10	34.26	36.60	35.73	36.65	34.87	33.76	33.56	30.31	29.39	28.86	25.21	23.45	22.35	21.83	19.20	19.50	17.97	15.62	14.69	14.08	13.75	12.50	12.75	14.45	13.03	10.10	7.966	6.740	6.841	6.126	6.187	5.942	5.505	5.376	4.849	5.877	6.216	9.670	38.72	176.2	483.2	547.6	174.7	9.120	4.513	3.420	3.620	3.791	3.533	3.703	3.252	3.702
555.0	237.0	212.8	158.3	156.1	127.2	126.4	136.9	146.9	125.3	111.8	137.6	457.1	 1315	194.7	70.24	60.06	46.20	45.48	40.82	39.81	38.07	35.19	32.19	32.53	31.77	30.27	29.58	30.97	29.93	29.46	28.49	28.16	26.43	25.96	22.03	20.78	20.21	19.59	19.45	16.92	17.49	14.99	13.26	12.23	12.69	11.72	11.25	11.44	11.07	11.92	11.09	8.122	6.813	5.518	5.686	5.747	5.659	5.076	5.149	5.223	4.790	4.646	5.556	12.12	42.59	113.0	303.4	623.9	102.4	6.737	3.720	3.903	3.845	3.848	3.168	4.014	3.306
560.0	222.2	235.6	177.7	153.4	132.4	124.3	108.4	136.6	142.4	101.3	102.9	188.4	 1144	619.0	60.02	53.02	44.45	40.73	35.49	38.13	33.00	30.21	28.87	26.56	28.75	28.71	24.84	25.82	26.75	25.37	23.80	25.56	23.40	21.97	20.21	20.85	17.23	17.01	16.70	16.06	15.16	12.66	11.96	11.53	11.31	11.19	9.209	9.886	8.442	9.621	9.975	9.193	6.310	6.908	5.306	5.675	5.138	5.224	5.264	5.085	5.074	4.937	4.733	5.476	12.49	28.12	78.92	403.1	524.6	73.15	3.866	3.573	3.696	3.306	3.338	4.471	3.774
565.0	210.7	233.8	211.8	167.6	152.3	111.0	106.5	107.6	136.1	91.06	85.88	109.7	583.2	 1138	87.92	51.56	41.66	36.38	33.53	32.18	30.25	27.98	27.60	25.59	23.03	24.76	22.19	21.95	23.17	23.12	21.51	23.48	19.60	19.77	17.93	18.77	15.65	15.79	14.98	15.07	13.50	12.11	10.56	10.24	10.13	10.56	8.156	8.637	7.478	8.414	8.423	8.962	5.993	5.785	5.382	5.087	5.390	4.773	4.740	4.514	4.508	4.127	3.822	4.748	5.536	9.230	21.04	113.8	455.7	395.1	39.59	3.991	4.188	3.292	4.051	3.618	3.723
570.0	234.4	219.3	191.8	131.9	140.1	119.0	96.86	109.3	131.5	107.3	81.54	81.24	205.5	 1046	533.6	47.44	37.91	33.18	28.84	28.14	24.97	26.28	25.04	22.15	21.94	22.69	21.32	20.00	21.14	20.93	19.61	19.66	16.59	17.17	16.20	14.95	15.02	12.96	12.41	12.46	12.07	10.27	10.22	9.067	9.834	8.805	7.877	6.840	7.472	6.958	6.454	8.189	6.689	6.046	5.343	4.986	4.738	4.477	4.792	4.575	4.450	4.262	3.780	4.278	4.442	5.445	7.565	28.99	127.9	316.8	310.7	61.10	6.400	3.391	4.026	4.122	4.406
575.0	201.4	200.2	194.6	153.1	114.6	119.4	83.50	113.0	94.43	115.0	85.04	73.43	91.33	373.3	 1154	147.2	33.06	29.31	23.92	23.22	22.64	23.59	18.88	18.95	19.59	18.81	17.99	17.57	19.38	19.49	16.45	16.70	14.09	14.91	13.58	13.44	12.02	11.51	10.94	10.97	9.736	9.421	9.238	7.958	7.929	7.633	7.062	6.631	6.287	6.450	5.353	6.274	6.780	6.705	5.394	5.355	4.050	4.157	4.241	3.784	4.344	4.326	4.248	3.668	4.175	4.445	5.007	9.899	31.49	75.29	181.6	345.9	86.76	5.111	4.314	3.242	4.553
580.0	250.6	211.3	174.0	131.8	140.2	116.3	104.9	102.2	87.76	131.6	79.93	71.23	72.75	131.6	994.5	501.6	35.88	26.78	25.25	26.00	21.36	19.73	18.97	16.99	18.12	16.40	14.93	16.66	16.17	15.17	15.97	17.73	14.55	13.41	13.09	11.60	10.86	10.56	10.09	10.02	8.945	8.762	8.432	7.952	6.297	8.193	6.717	6.450	5.473	5.382	5.057	5.608	5.245	6.335	5.768	4.235	4.578	5.084	4.069	3.991	4.097	4.026	4.397	3.836	4.354	3.991	4.192	5.458	10.33	19.02	48.92	231.8	302.1	56.14	4.807	4.135	3.916
585.0	263.5	237.7	180.0	131.7	137.9	96.23	102.0	93.48	83.35	119.2	102.7	79.09	68.03	73.78	494.1	953.7	53.06	27.78	25.44	23.12	19.95	20.57	16.12	17.39	15.63	15.86	16.70	16.13	14.34	14.21	14.05	15.00	13.73	12.43	12.04	10.40	9.969	10.31	8.932	9.079	9.542	8.041	6.669	7.583	5.713	6.842	6.429	5.939	5.715	5.009	4.228	5.334	4.581	7.246	5.129	5.085	4.913	4.814	4.154	4.188	3.366	4.019	3.575	4.413	4.024	4.032	4.092	4.041	5.248	6.861	13.99	67.62	244.8	231.5	29.96	3.728	3.605
590.0	260.1	237.4	171.4	140.7	126.9	91.55	99.58	95.04	82.03	93.17	119.5	82.19	62.78	55.68	160.8	840.8	395.4	27.68	23.39	18.98	18.51	17.08	15.22	14.77	14.24	14.72	14.55	14.78	13.65	14.28	12.77	12.65	11.62	11.17	10.08	9.391	9.626	8.946	8.005	8.126	8.147	7.616	6.503	6.957	6.324	6.011	6.480	5.484	5.223	4.457	4.255	4.836	4.767	5.896	5.160	5.079	4.551	4.595	3.899	3.937	4.250	3.835	3.860	4.083	3.571	3.512	3.368	4.230	3.913	4.203	6.067	18.08	68.51	177.2	165.5	54.10	5.911
595.0	231.6	230.4	147.4	168.4	118.8	113.8	106.4	89.67	89.83	79.11	101.1	96.72	67.02	57.35	71.20	292.6	848.6	96.25	22.83	19.53	16.75	16.22	16.23	14.15	13.40	12.14	14.06	11.58	13.21	13.33	11.46	11.96	10.58	11.08	9.762	9.187	8.453	7.601	8.335	7.633	7.309	7.251	6.165	6.212	6.746	5.587	5.607	4.779	4.731	3.939	4.495	4.718	3.838	4.545	5.692	4.928	4.983	4.248	3.420	3.848	3.714	3.659	4.222	3.483	3.724	4.063	3.604	3.878	3.183	3.504	4.102	6.844	18.31	43.21	97.36	210.0	69.23
600.0	260.9	201.5	178.9	150.3	123.2	98.61	95.78	89.84	87.94	80.40	82.21	106.3	78.47	57.91	46.30	96.49	727.7	338.2	19.19	18.97	18.24	15.03	14.59	14.04	13.79	12.67	13.29	10.69	10.79	11.74	10.03	10.91	9.820	10.22	9.442	8.224	7.935	6.832	7.625	6.271	6.695	7.384	6.548	6.059	5.694	5.795	5.044	4.783	4.376	4.191	3.855	4.235	4.172	3.989	4.566	4.336	5.319	4.134	4.019	3.669	3.263	3.630	3.967	3.662	3.566	4.131	3.970	4.407	3.438	3.734	4.125	3.966	7.189	12.73	27.19	136.1	191.1
605.0	248.7	213.2	178.4	146.8	122.9	98.33	90.40	78.28	89.51	79.55	79.23	102.2	80.09	58.60	44.32	48.51	346.9	604.1	32.63	16.86	15.69	14.18	13.00	12.40	12.13	12.24	12.79	9.758	9.851	11.90	10.76	9.127	10.26	9.496	8.388	7.405	7.419	6.544	6.710	6.369	6.087	6.141	5.885	5.880	5.076	4.645	5.072	4.749	4.293	3.977	3.743	3.941	3.493	4.150	4.419	4.306	5.614	4.157	4.547	4.149	3.463	3.864	3.195	3.397	3.599	3.806	4.100	4.166	3.630	3.624	3.568	3.626	4.366	5.781	9.422	40.01	147.4
610.0	215.1	207.8	189.5	135.3	129.7	110.9	86.18	97.41	84.60	81.40	85.30	90.49	91.58	57.75	40.63	33.25	109.0	579.7	285.3	18.49	15.74	13.39	12.63	12.49	11.63	12.38	10.26	10.18	10.35	10.47	10.17	9.482	9.553	7.854	8.132	7.437	7.535	6.507	6.333	5.927	6.142	5.737	5.733	5.145	5.324	5.191	4.197	4.986	3.992	3.575	3.163	3.976	3.690	4.026	3.990	3.881	4.730	4.542	4.277	3.792	4.027	3.703	3.670	3.775	3.818	3.608	3.756	3.932	3.810	3.475	3.320	3.606	4.112	3.874	4.950	11.75	41.31
615.0	234.5	208.4	168.0	143.7	128.9	114.3	95.72	81.49	85.93	86.40	75.18	78.00	100.3	65.01	39.26	31.50	45.82	201.8	614.1	65.13	15.77	12.81	11.01	10.91	10.76	10.93	8.689	10.15	10.36	8.598	9.094	7.998	8.354	7.169	7.682	7.360	6.289	7.225	6.184	5.331	5.681	6.144	6.038	5.369	4.562	4.491	4.018	5.148	3.651	3.497	3.141	4.042	4.320	3.909	3.147	3.441	3.632	4.736	4.076	4.229	3.804	4.537	3.836	3.807	3.389	3.616	3.522	4.440	3.719	3.686	3.642	3.511	4.143	3.946	3.894	5.868	12.15
620.0	239.5	204.6	148.4	137.4	151.1	108.4	83.44	85.77	80.73	78.21	85.64	72.15	91.55	71.02	42.36	26.97	27.88	61.05	535.0	262.3	14.31	12.74	14.78	11.70	10.57	9.650	9.404	9.415	11.03	9.374	8.863	7.579	8.554	7.645	6.582	6.887	6.301	6.718	5.847	5.477	5.535	5.734	5.272	5.766	4.771	4.565	4.782	4.265	3.699	3.591	3.728	4.198	4.191	3.380	3.628	3.216	3.547	4.612	4.463	4.806	4.151	3.521	3.521	3.886	3.033	3.362	3.383	3.372	3.463	4.051	3.341	3.723	3.919	3.235	3.814	4.841	5.310
625.0	245.0	205.3	181.3	157.1	117.7	114.3	85.86	88.40	76.79	87.27	80.68	65.11	78.69	78.20	40.43	27.83	23.80	28.27	271.5	472.8	29.40	12.28	15.31	11.35	10.28	9.542	8.839	9.745	9.597	9.139	8.373	8.614	9.530	7.739	6.495	6.311	6.477	6.497	6.227	5.893	4.881	5.872	4.326	4.788	4.869	4.524	4.402	4.437	3.929	3.162	3.112	3.302	3.706	3.575	3.432	3.096	3.539	3.910	4.214	4.808	3.879	3.335	3.599	3.791	3.301	2.935	3.983	3.540	3.355	3.424	3.371	3.732	3.283	4.179	3.847	4.251	4.094
630.0	244.9	195.9	168.6	139.6	135.7	119.5	95.98	99.83	72.87	78.86	72.71	67.65	66.11	73.02	47.09	28.18	25.98	22.39	83.38	470.7	233.4	13.86	11.88	11.88	10.14	10.10	9.273	8.426	9.822	8.595	8.349	8.163	7.890	6.675	7.262	6.801	6.038	5.904	5.668	5.002	4.543	5.715	4.644	5.346	4.926	4.427	4.576	4.184	3.699	3.308	3.105	3.705	3.267	4.471	3.383	3.962	3.718	3.442	3.832	4.269	3.812	3.102	3.280	4.236	3.570	3.629	3.445	3.681	3.677	3.294	3.785	3.724	3.325	3.238	3.322	3.848	3.834
635.0	262.7	183.9	192.1	141.1	125.0	104.3	103.7	103.6	78.79	81.92	73.74	70.79	61.69	61.95	57.13	31.27	25.45	23.09	28.65	178.2	525.8	46.23	11.49	10.19	9.187	9.233	8.327	8.393	8.564	9.512	7.859	7.088	8.075	6.176	6.846	6.007	6.114	5.967	5.020	4.654	5.128	5.476	4.497	4.870	5.584	3.968	4.115	4.557	3.444	2.928	2.823	3.531	3.270	4.173	3.637	4.231	4.104	3.294	3.909	3.597	3.668	3.524	4.098	4.355	3.730	3.635	4.082	3.606	3.352	3.164	3.185	3.609	3.774	3.795	3.824	3.516	4.231
640.0	217.7	224.5	162.9	175.4	136.7	119.3	98.44	95.10	61.76	68.56	72.15	69.75	65.00	55.06	60.20	36.15	26.71	18.82	18.75	56.53	478.8	184.0	12.05	9.913	10.90	9.826	10.66	8.281	10.22	7.792	6.974	6.717	7.824	6.970	7.615	6.069	5.818	5.854	4.692	4.443	5.271	5.704	4.138	4.647	4.342	4.575	3.935	3.776	3.434	3.403	2.701	2.819	4.054	4.126	3.343	3.578	4.110	3.409	4.050	2.881	4.386	3.713	3.263	3.967	3.769	3.431	3.500	3.462	3.546	3.365	3.954	3.081	3.762	3.680	3.430	3.386	3.580
645.0	249.9	223.6	178.4	150.4	145.1	127.8	98.82	94.94	66.73	79.89	70.42	62.36	61.49	54.82	63.12	44.05	23.69	20.80	19.07	26.47	249.3	375.8	19.97	8.998	10.77	10.43	7.882	8.663	9.400	7.361	7.902	7.754	8.238	7.712	5.867	5.669	5.952	5.695	5.241	5.137	4.809	5.537	3.692	5.032	4.530	4.072	3.604	3.127	3.081	3.169	3.233	3.393	3.122	4.031	3.621	3.892	3.227	3.331	3.498	3.302	4.251	3.445	3.629	2.797	3.670	3.284	3.460	3.939	3.824	4.148	3.527	2.948	4.246	4.539	3.249	3.620	3.685
650.0	224.4	209.2	187.1	154.6	143.3	110.7	103.1	83.79	76.26	76.36	64.09	70.32	60.29	53.43	51.74	44.54	22.84	20.25	18.46	18.40	84.34	452.0	86.53	10.20	9.826	9.368	9.186	9.076	8.809	6.606	8.413	7.410	7.780	7.333	5.972	6.085	6.300	5.253	5.179	5.018	5.460	5.224	4.517	4.538	3.747	3.533	4.220	3.194	3.357	3.368	3.111	3.246	2.769	3.435	3.582	3.886	3.613	3.407	2.818	3.453	3.848	4.326	3.785	2.965	4.116	3.434	3.303	3.980	4.118	3.448	3.052	2.685	3.542	3.405	3.801	3.267	3.715
