Sample:	'1
File name:	G2025051304»ª·ú»¯¹¤»º³å³Ø.FD3
Run date:	'13:00:29, 05/20/2025
Operator:	Administrator
Comment:	'

Instrument
Model:	F-2700 FL Spectrophotometer
Serial number:	23B8-004
ROM Version:	4J14000 07

Instrument parameters
Measurement type:	3-D scan
Data mode:	Fluorescence
EX  Start WL:	220.0 nm
EX  End WL:	600.0 nm
EX Sampling interval:	5.0 nm
EM  Start WL:	230.0 nm
EM  End WL:	650.0 nm
EM Sampling interval:	5.0 nm
Scan speed:	12000 nm/min
EX Slit:	5.0 nm
EM Slit:	5.0 nm
PMT Voltage:	700 V
Response:	Auto 
Corrected spectra:	Off
Contour interval:	50.000

Peak integration
Integration method:	Rectangular
Sensitivity:	1
Threshold:	1.000

Peaks
No.	ApexEX/EM(nm)	Height(Data)
1	230.0/305.0	1046
2	230.0/600.0	84.32
3	235.0/595.0	81.62
4	235.0/610.0	76.12
5	240.0/265.0	167.6
6	245.0/270.0	229.9
7	250.0/275.0	356.9
8	260.0/400.0	1941
9	260.0/575.0	169.5
10	265.0/590.0	192.5
11	270.0/600.0	219.8
12	275.0/305.0	2829
13	275.0/385.0	1996
14	275.0/610.0	194.9
15	505.0/275.0	2.329
16	545.0/300.0	12.16
17	550.0/305.0	12.96

Data points
	220.0	225.0	230.0	235.0	240.0	245.0	250.0	255.0	260.0	265.0	270.0	275.0	280.0	285.0	290.0	295.0	300.0	305.0	310.0	315.0	320.0	325.0	330.0	335.0	340.0	345.0	350.0	355.0	360.0	365.0	370.0	375.0	380.0	385.0	390.0	395.0	400.0	405.0	410.0	415.0	420.0	425.0	430.0	435.0	440.0	445.0	450.0	455.0	460.0	465.0	470.0	475.0	480.0	485.0	490.0	495.0	500.0	505.0	510.0	515.0	520.0	525.0	530.0	535.0	540.0	545.0	550.0	555.0	560.0	565.0	570.0	575.0	580.0	585.0	590.0	595.0	600.0
230.0	20.05	53.80	147.2	65.19	8.005	4.913	4.265	3.800	3.488	3.626	3.175	3.115	2.698	2.187	1.870	1.773	1.541	1.325	1.278	1.114	1.065	0.894	0.909	0.816	0.751	0.737	0.634	0.634	0.650	0.578	0.500	0.511	0.441	0.447	0.374	0.421	0.437	0.369	0.333	0.349	0.350	0.324	0.322	0.336	0.291	0.273	0.296	0.498	0.724	0.509	0.334	0.263	0.223	0.227	0.205	0.228	0.248	0.239	0.216	0.212	0.243	0.243	0.217	0.240	0.239	0.250	0.240	0.232	0.258	0.244	0.240	0.268	0.253	0.227	0.268	0.288	0.270
235.0	20.36	25.34	98.70	208.8	111.7	11.94	5.049	4.176	4.243	3.965	3.473	3.399	2.745	2.154	1.715	1.646	1.325	1.223	1.123	0.998	1.050	0.852	0.822	0.777	0.761	0.963	0.612	0.620	0.650	0.554	0.525	0.530	0.401	0.396	0.414	0.395	0.395	0.416	0.346	0.396	0.294	0.371	0.268	0.311	0.274	0.230	0.242	0.310	0.427	0.544	0.769	0.989	0.654	0.331	0.209	0.222	0.235	0.232	0.252	0.256	0.249	0.321	0.284	0.240	0.275	0.290	0.206	0.269	0.215	0.265	0.272	0.228	0.253	0.238	0.261	0.244	0.229
240.0	21.37	21.57	37.02	188.0	359.7	138.9	10.33	4.571	4.107	4.288	4.117	3.189	3.113	2.208	1.756	1.773	1.345	1.279	1.204	1.078	1.174	0.969	0.811	0.869	0.800	0.721	0.669	0.610	0.627	0.557	0.636	0.467	0.450	0.399	0.389	0.358	0.357	0.387	0.343	0.410	0.325	0.270	0.267	0.321	0.252	0.246	0.244	0.235	0.299	0.332	0.591	1.169	1.589	1.501	0.713	0.312	0.253	0.218	0.255	0.260	0.243	0.251	0.277	0.216	0.271	0.258	0.246	0.269	0.242	0.263	0.225	0.223	0.249	0.339	0.265	0.227	0.246
245.0	27.30	25.26	22.92	72.55	404.3	487.7	121.0	5.811	4.578	4.361	3.669	3.403	2.970	2.198	1.941	1.708	1.566	1.304	1.440	1.204	1.014	0.962	0.961	0.951	0.748	0.759	0.673	0.609	0.631	0.610	0.556	0.495	0.531	0.455	0.467	0.381	0.361	0.357	0.394	0.375	0.363	0.300	0.338	0.288	0.266	0.257	0.262	0.330	0.256	0.201	0.365	0.563	1.139	2.549	3.054	1.736	0.726	0.242	0.244	0.259	0.263	0.237	0.266	0.229	0.253	0.226	0.254	0.252	0.252	0.238	0.245	0.250	0.279	0.274	0.283	0.237	0.254
250.0	24.40	24.83	41.80	37.32	142.8	567.3	786.3	219.2	25.57	4.264	4.319	3.844	3.131	2.373	2.227	1.876	1.669	1.364	1.230	1.234	1.026	0.948	1.019	0.902	0.755	0.855	0.653	0.681	0.656	0.600	0.554	0.540	0.486	0.448	0.409	0.366	0.429	0.297	0.399	0.350	0.374	0.310	0.431	0.307	0.321	0.290	0.250	0.327	0.330	0.276	0.317	0.345	0.473	1.011	1.970	3.125	4.664	4.379	2.732	0.885	0.316	0.226	0.235	0.253	0.250	0.293	0.291	0.310	0.236	0.230	0.236	0.289	0.279	0.286	0.242	0.246	0.306
255.0	25.65	21.99	37.22	82.67	63.14	160.7	734.4	1537	280.7	22.64	5.177	4.574	3.520	3.139	2.208	1.937	1.710	1.462	1.173	1.122	1.011	0.773	0.987	0.932	0.868	0.798	0.651	0.551	0.630	0.614	0.569	0.499	0.476	0.430	0.427	0.337	0.385	0.372	0.351	0.277	0.307	0.368	0.379	0.360	0.312	0.348	0.236	0.262	0.268	0.321	0.493	0.615	0.393	0.462	0.654	1.002	1.951	4.511	8.534	9.209	4.296	0.971	0.266	0.242	0.281	0.277	0.237	0.282	0.226	0.247	0.283	0.215	0.250	0.288	0.257	0.252	0.299
260.0	27.58	19.32	25.77	87.20	108.1	75.97	251.2	1385	1795	219.4	11.85	4.960	4.221	3.207	2.279	2.155	1.696	1.559	1.420	1.097	1.129	0.938	0.994	0.880	0.840	0.739	0.797	0.595	0.629	0.659	0.540	0.538	0.398	0.445	0.531	0.395	0.385	0.351	0.346	0.269	0.291	0.390	0.348	0.339	0.317	0.282	0.257	0.301	0.251	0.240	0.393	0.549	0.691	0.389	0.411	0.534	0.733	1.491	3.962	8.748	11.81	9.055	3.461	0.543	0.258	0.281	0.253	0.269	0.229	0.245	0.244	0.242	0.233	0.272	0.248	0.244	0.272
265.0	27.98	18.35	16.11	47.65	167.6	123.9	96.39	521.1	2070	1760	153.4	7.358	4.620	3.309	2.661	2.371	1.754	1.736	1.522	1.188	1.179	1.064	1.109	0.953	0.870	0.701	0.816	0.581	0.573	0.705	0.456	0.562	0.496	0.465	0.480	0.415	0.398	0.316	0.332	0.348	0.336	0.297	0.388	0.338	0.311	0.316	0.255	0.254	0.260	0.230	0.262	0.446	0.745	1.002	0.802	0.583	0.503	0.627	1.178	2.874	7.029	12.89	14.03	8.385	2.033	0.373	0.244	0.289	0.201	0.272	0.280	0.286	0.228	0.296	0.250	0.252	0.232
270.0	30.97	20.85	18.09	29.66	106.9	229.9	181.9	169.7	729.1	2176	2260	545.4	20.81	4.382	3.114	2.589	2.099	1.929	1.459	1.242	1.090	1.109	0.994	0.968	0.926	0.792	0.735	0.577	0.655	0.651	0.565	0.673	0.538	0.535	0.443	0.391	0.468	0.387	0.335	0.334	0.331	0.311	0.367	0.406	0.354	0.351	0.313	0.294	0.272	0.246	0.248	0.335	0.458	0.778	1.094	1.332	1.034	0.796	0.624	1.002	2.000	4.029	7.383	11.74	14.00	12.26	6.928	2.040	0.356	0.282	0.308	0.282	0.250	0.297	0.260	0.265	0.321
275.0	39.35	34.26	27.75	33.51	68.69	163.4	356.9	219.3	228.5	623.8	2070	3474	169.2	16.36	4.545	3.315	2.280	2.262	1.633	1.595	1.348	1.214	1.068	1.001	0.939	0.817	0.743	0.598	0.697	0.669	0.540	0.710	0.541	0.516	0.416	0.486	0.483	0.414	0.374	0.368	0.387	0.314	0.319	0.342	0.374	0.378	0.328	0.330	0.331	0.256	0.288	0.353	0.379	0.479	0.681	0.907	1.692	2.329	1.319	0.827	0.858	1.331	2.206	3.282	4.795	9.831	19.26	19.87	9.789	1.880	0.384	0.323	0.258	0.275	0.249	0.247	0.279
280.0	54.87	59.58	58.32	64.93	76.55	125.2	289.7	400.9	217.5	280.3	789.2	3249	3029	126.0	10.28	3.901	2.903	2.405	2.058	1.723	1.394	1.161	1.142	0.935	0.931	0.835	0.799	0.759	0.751	0.716	0.656	0.559	0.592	0.576	0.535	0.511	0.563	0.453	0.344	0.362	0.408	0.385	0.357	0.354	0.428	0.445	0.413	0.404	0.357	0.380	0.336	0.387	0.417	0.500	0.631	0.762	1.150	1.888	2.550	2.043	1.062	0.891	1.232	1.509	1.831	3.269	7.779	16.50	22.95	18.52	6.907	0.978	0.371	0.325	0.286	0.307	0.252
285.0	85.46	131.2	183.2	162.7	132.8	142.6	214.7	500.2	346.8	316.7	552.1	1449	3940	1149	85.95	6.280	3.710	2.482	2.143	1.768	1.401	1.356	1.441	0.899	1.037	0.921	0.790	0.846	0.768	0.720	0.659	0.564	0.588	0.522	0.492	0.478	0.509	0.409	0.429	0.410	0.392	0.320	0.385	0.393	0.469	0.443	0.516	0.678	0.673	0.607	0.631	0.670	0.590	0.709	0.693	0.775	0.843	1.246	1.971	2.897	3.004	2.102	1.839	1.994	1.991	2.475	3.590	5.949	11.85	21.47	25.20	15.17	4.171	0.688	0.326	0.325	0.307
290.0	156.7	306.5	468.3	450.2	313.0	237.0	271.8	460.4	840.5	1056	1091	1264	1951	2862	2238	334.9	11.78	3.213	2.723	2.191	1.875	1.526	1.475	1.159	1.057	1.031	0.855	0.823	0.807	0.762	0.724	0.689	0.617	0.567	0.493	0.490	0.544	0.536	0.450	0.430	0.445	0.416	0.492	0.477	0.515	0.591	0.761	1.278	1.341	1.380	1.423	1.557	1.225	1.124	1.056	1.134	1.190	1.496	1.839	2.218	3.346	4.320	4.948	4.863	4.481	4.723	5.119	5.614	6.831	9.067	13.04	16.57	19.26	17.94	10.56	3.505	0.652
295.0	237.9	507.0	797.0	751.3	491.3	344.1	376.1	569.2	952.6	1678	1931	1763	1622	1273	2269	3216	92.52	8.717	3.886	2.517	2.207	1.698	1.499	1.388	1.221	1.178	0.958	0.839	0.851	0.842	0.789	0.670	0.593	0.513	0.538	0.603	0.677	0.543	0.544	0.526	0.471	0.484	0.577	0.514	0.664	0.806	1.151	1.706	2.033	2.060	2.238	2.372	1.796	1.630	1.381	1.220	1.724	1.816	2.135	2.826	3.463	4.472	5.965	7.853	9.120	8.847	8.108	7.655	7.949	7.698	7.618	6.662	6.601	10.72	19.90	25.42	15.03
300.0	274.6	593.0	961.3	931.6	616.4	417.5	448.5	668.0	1077	1752	2556	2294	1791	1005	852.7	2960	2590	72.33	5.569	3.309	2.491	1.972	1.753	1.481	1.370	1.074	1.008	1.080	1.017	0.809	0.899	0.805	0.622	0.587	0.560	0.629	0.638	0.584	0.544	0.525	0.554	0.472	0.561	0.616	0.778	0.929	1.211	1.931	2.551	2.637	2.629	2.700	2.464	1.927	1.680	1.486	1.998	2.143	2.760	3.160	3.982	4.974	6.120	8.175	10.23	12.16	11.09	9.609	8.970	8.155	7.363	5.267	3.759	3.645	6.943	15.77	24.96
305.0	291.2	638.1	1046	1030	690.0	470.4	502.6	737.6	1173	1796	2621	2829	2015	1065	471.1	1067	3290	1886	49.42	3.992	3.189	2.045	1.782	1.512	1.385	1.248	1.160	1.042	1.002	0.904	0.852	0.820	0.705	0.728	0.633	0.666	0.631	0.568	0.549	0.516	0.544	0.473	0.522	0.627	0.684	0.971	1.327	2.160	2.629	2.918	2.950	3.133	2.653	2.148	1.957	1.882	2.043	2.315	3.065	3.541	4.605	5.535	6.500	8.478	9.951	11.80	12.96	12.45	10.37	9.324	8.159	5.425	3.477	2.709	2.750	4.659	9.613
310.0	274.2	616.9	1015	1018	694.3	500.6	552.7	789.8	1204	1768	2407	2792	2389	1220	475.8	413.0	1123	2320	1660	232.2	8.061	2.932	2.210	1.915	1.551	1.376	1.248	1.037	0.957	0.992	0.796	0.822	0.723	0.715	0.669	0.660	0.641	0.608	0.549	0.520	0.474	0.454	0.565	0.512	0.657	0.981	1.330	1.926	2.521	2.621	2.916	3.223	2.597	2.235	2.090	1.894	2.200	2.430	3.140	3.775	4.433	5.596	6.412	8.203	9.398	10.45	11.68	12.31	12.24	11.15	9.788	6.316	3.882	2.734	2.135	2.174	3.121
315.0	258.9	556.1	895.3	924.8	657.7	499.2	556.8	791.2	1183	1674	2191	2437	2304	1543	605.6	340.3	402.4	644.7	1678	2400	66.38	6.508	2.915	2.219	1.866	1.514	1.588	1.113	1.046	1.015	0.934	0.847	0.810	0.700	0.710	0.736	0.581	0.555	0.528	0.571	0.609	0.510	0.457	0.470	0.672	0.974	1.259	1.796	2.203	2.360	2.511	2.943	2.512	2.142	2.045	1.994	2.128	2.368	3.159	3.599	4.571	5.109	6.071	7.528	8.575	9.968	10.56	10.69	10.23	10.70	10.59	8.188	5.071	3.355	2.342	2.088	2.134
320.0	229.3	506.0	801.5	839.8	618.4	491.3	573.0	798.9	1171	1601	2066	2246	2080	1657	856.9	403.3	289.5	259.8	541.5	2193	1889	54.53	4.454	2.684	2.143	1.572	1.612	1.293	1.102	1.066	1.014	0.940	0.827	0.706	0.764	0.604	0.616	0.570	0.642	0.519	0.531	0.538	0.523	0.552	0.672	0.841	1.060	1.694	2.204	2.139	2.195	2.702	2.345	2.114	1.868	1.984	2.304	2.443	3.080	3.637	4.514	5.105	6.052	7.194	8.073	9.464	9.782	9.871	9.597	9.402	9.267	8.538	7.107	5.229	3.144	2.434	2.372
325.0	227.2	466.4	759.1	787.9	593.3	510.2	599.5	822.0	1148	1554	1979	2147	1973	1537	1119	559.3	326.2	212.4	211.1	768.1	2370	1376	39.59	3.982	2.387	1.917	1.665	1.152	1.203	1.210	0.946	0.992	0.927	0.670	0.720	0.661	0.604	0.640	0.648	0.476	0.472	0.524	0.550	0.546	0.619	0.950	1.078	1.486	1.967	2.026	2.203	2.465	2.106	1.936	1.896	2.063	2.220	2.540	3.262	3.977	4.305	5.170	6.389	7.384	7.493	8.629	9.084	9.777	9.160	8.547	8.271	7.346	6.901	6.521	5.490	3.385	2.651
330.0	205.4	419.2	690.4	724.6	600.3	550.7	650.1	855.1	1155	1521	1892	2063	1921	1484	1130	875.5	500.8	284.0	196.4	268.8	811.8	1700	1244	188.4	7.417	2.484	1.829	1.427	1.248	1.218	1.022	1.001	0.894	0.713	0.779	0.675	0.578	0.611	0.578	0.555	0.471	0.482	0.494	0.547	0.604	0.735	0.968	1.443	1.750	1.897	2.077	2.329	2.084	2.007	2.046	2.251	2.594	2.961	3.468	3.841	4.415	5.083	5.948	6.845	7.209	8.188	8.729	8.923	8.829	8.321	8.246	7.248	6.215	6.028	5.835	5.422	4.512
335.0	191.6	378.0	635.8	723.3	662.2	632.6	718.7	915.9	1186	1516	1840	1977	1900	1551	1155	941.8	805.4	438.0	267.1	212.4	283.2	482.4	1312	1859	55.43	5.793	2.255	1.938	1.484	1.352	1.143	1.017	0.958	0.875	0.849	0.705	0.610	0.643	0.547	0.545	0.447	0.489	0.520	0.539	0.696	0.694	0.866	1.238	1.637	1.744	1.993	2.316	2.257	2.383	2.272	2.397	2.697	2.849	3.432	4.026	4.590	5.445	5.906	6.953	6.991	7.988	8.437	8.484	8.691	8.189	8.047	7.540	6.872	6.286	5.609	5.505	5.593
340.0	197.0	369.2	615.9	730.8	698.2	709.4	783.9	962.3	1201	1509	1801	1967	1896	1606	1220	957.9	876.2	648.3	357.2	249.6	204.7	204.8	442.4	1723	1493	47.44	4.251	2.619	1.917	1.369	1.328	0.998	1.079	0.809	0.884	0.746	0.597	0.640	0.572	0.565	0.519	0.496	0.530	0.477	0.530	0.713	0.979	1.296	1.564	1.790	2.083	2.378	2.326	2.500	2.567	2.670	3.107	3.064	3.651	4.115	4.721	5.300	6.208	6.773	6.953	7.634	7.848	8.475	8.732	8.400	7.965	7.856	7.182	6.716	6.042	5.566	5.078
345.0	192.9	363.5	582.8	743.2	768.9	793.2	866.2	1006	1234	1516	1773	1926	1876	1627	1300	1016	853.0	799.8	511.4	316.9	234.5	180.0	192.3	616.2	1836	1140	37.13	3.715	2.126	1.434	1.349	1.033	1.117	0.894	0.832	0.767	0.579	0.680	0.631	0.500	0.563	0.491	0.589	0.559	0.606	0.679	0.833	1.213	1.492	1.898	1.912	2.589	2.461	2.766	2.726	3.085	3.366	3.524	3.966	4.227	4.761	5.379	5.928	6.665	7.179	7.528	8.112	8.417	8.552	8.108	8.167	7.739	7.339	6.710	6.198	5.901	5.554
350.0	183.1	340.5	567.3	755.8	859.0	925.3	1005	1105	1305	1533	1746	1881	1851	1663	1388	1122	909.8	807.1	718.8	500.1	341.5	256.7	203.3	250.4	639.4	1297	973.6	176.0	8.172	2.249	1.743	1.253	1.049	0.936	0.789	0.766	0.727	0.676	0.635	0.559	0.572	0.536	0.542	0.543	0.629	0.695	0.784	1.124	1.580	1.813	1.853	2.712	2.789	3.178	3.182	3.485	3.918	4.093	4.422	4.714	5.065	5.596	6.102	6.561	7.128	7.516	7.749	8.004	8.159	8.042	8.208	7.894	7.734	7.229	6.841	6.453	5.839
355.0	162.4	323.9	556.0	787.7	966.1	1095	1182	1285	1425	1615	1774	1890	1856	1704	1487	1240	1033	883.7	777.8	740.6	532.4	376.3	289.9	241.0	263.2	390.0	936.1	1459	52.61	6.897	2.483	1.480	1.116	1.236	0.834	0.853	0.647	0.685	0.594	0.601	0.585	0.504	0.544	0.620	0.655	0.787	0.808	1.191	1.437	1.762	2.023	2.843	3.263	3.561	3.740	4.155	4.518	4.473	5.118	5.487	5.611	6.125	6.275	7.029	7.456	7.345	7.969	8.008	7.919	8.624	8.309	7.828	7.974	7.943	7.321	6.902	6.673
360.0	178.3	312.6	546.0	817.9	1058	1233	1314	1411	1549	1689	1822	1897	1868	1740	1549	1322	1139	986.0	851.3	812.5	724.2	505.7	380.5	293.1	229.5	200.1	327.5	1242	1277	47.89	4.769	2.037	1.487	1.210	0.827	0.849	0.881	0.680	0.716	0.577	0.578	0.581	0.528	0.598	0.646	0.796	0.796	1.166	1.458	1.691	2.098	2.967	3.272	3.870	4.365	4.714	5.112	5.148	5.738	5.740	6.286	6.404	7.002	7.126	7.458	7.718	7.963	7.919	8.291	8.377	8.084	8.149	8.469	8.280	7.689	7.384	7.068
365.0	182.7	312.2	567.0	829.2	1124	1309	1413	1527	1659	1767	1861	1920	1899	1785	1606	1400	1227	1086	951.9	850.3	828.8	677.4	479.7	364.4	272.1	196.6	169.6	437.4	1423	1043	38.08	3.429	1.995	1.178	1.094	0.966	0.883	0.701	0.689	0.667	0.590	0.603	0.643	0.575	0.586	0.660	0.821	1.158	1.366	1.619	2.234	3.204	3.643	4.022	4.624	4.880	5.285	5.728	5.876	6.460	6.702	7.314	7.651	7.280	8.153	8.107	7.795	7.781	8.161	8.460	8.341	8.540	8.630	8.476	8.053	8.145	7.410
370.0	176.9	314.6	560.4	864.1	1185	1399	1560	1655	1762	1847	1926	1956	1925	1821	1676	1495	1351	1218	1090	970.0	890.3	835.9	678.1	483.7	366.5	264.6	186.6	193.2	477.9	1052	848.0	171.4	9.438	2.017	1.367	1.036	0.965	0.727	0.749	0.704	0.519	0.683	0.565	0.600	0.664	0.723	0.762	1.082	1.383	1.676	2.084	3.107	3.769	4.319	4.960	5.214	5.852	6.352	6.534	6.972	6.911	7.481	7.634	7.979	8.218	8.041	8.203	8.186	8.237	8.497	8.251	8.680	8.814	8.296	8.592	8.240	8.077
375.0	166.8	328.3	561.7	882.4	1226	1489	1667	1756	1845	1907	1958	1975	1931	1855	1728	1567	1460	1340	1226	1102	989.0	906.2	856.4	673.0	486.3	359.4	256.7	188.4	198.8	307.7	721.9	1253	239.7	7.542	2.107	1.312	1.180	0.797	0.714	0.712	0.521	0.680	0.513	0.643	0.654	0.695	0.896	1.316	1.447	1.608	2.158	3.176	3.916	4.389	5.188	5.567	6.281	6.786	7.284	7.138	7.518	8.296	8.126	8.419	8.342	8.174	8.215	8.470	8.219	8.801	8.395	8.987	8.622	8.905	8.498	8.868	9.288
380.0	169.1	329.6	556.2	896.0	1283	1532	1719	1831	1910	1952	1983	1995	1956	1867	1761	1628	1527	1420	1316	1195	1087	971.0	897.6	816.8	598.0	434.6	318.7	224.5	170.2	150.7	243.3	956.6	1093	42.02	4.416	1.992	1.366	0.914	0.724	0.798	0.693	0.650	0.648	0.603	0.636	0.728	0.866	1.257	1.458	1.694	2.268	3.473	4.092	4.628	5.249	6.045	6.563	6.879	7.314	7.636	7.792	8.126	7.794	8.463	8.332	8.399	7.921	8.513	8.319	8.730	8.603	8.822	8.870	8.859	8.873	8.748	9.365
385.0	157.9	334.3	572.5	908.4	1288	1574	1751	1865	1930	1964	1996	1996	1955	1878	1778	1653	1570	1476	1379	1266	1152	1040	928.8	871.0	720.0	513.9	378.6	275.5	199.4	142.9	125.5	319.4	1020	841.8	33.43	3.379	1.752	1.133	0.831	0.851	0.775	0.629	0.664	0.649	0.544	0.730	0.853	1.097	1.343	1.796	2.130	3.254	4.024	4.909	5.247	5.996	6.544	6.697	7.332	7.637	7.832	8.279	8.065	8.335	8.625	8.447	7.906	8.410	8.655	8.816	8.966	8.993	8.825	9.142	8.862	9.136	9.372
390.0	171.2	315.9	565.4	917.1	1287	1572	1773	1875	1946	1948	1970	1958	1933	1867	1785	1690	1611	1526	1435	1336	1227	1111	997.6	892.0	798.6	647.8	469.1	348.2	259.3	188.7	135.3	142.4	326.6	722.0	598.1	142.9	9.649	1.986	1.244	0.945	0.702	0.736	0.736	0.681	0.627	0.722	0.835	1.161	1.453	1.811	2.207	3.344	3.891	4.722	5.419	5.903	6.716	7.026	7.568	7.500	8.077	8.231	8.365	8.161	8.491	8.152	8.398	8.244	8.496	8.796	8.883	8.903	8.881	9.265	9.196	9.290	9.709
395.0	185.4	312.7	560.8	892.5	1275	1571	1806	1908	1936	1934	1937	1923	1898	1843	1765	1701	1649	1565	1481	1383	1282	1169	1061	940.4	828.0	737.4	595.5	429.0	327.3	245.9	179.2	134.7	143.7	213.1	429.2	873.1	219.9	9.196	2.256	1.407	0.967	0.755	0.656	0.691	0.715	0.796	0.812	1.172	1.411	1.736	2.185	3.416	3.724	4.875	5.489	6.099	6.695	7.160	7.644	7.845	8.193	8.068	7.942	8.085	8.290	7.857	8.449	8.136	8.306	8.703	8.921	8.865	8.922	9.010	9.543	9.535	9.751
400.0	174.5	318.0	547.9	886.3	1289	1593	1793	1913	1941	1914	1894	1878	1851	1807	1755	1686	1639	1576	1493	1400	1306	1200	1097	975.2	858.4	754.3	674.3	510.7	379.3	298.3	220.3	161.7	121.5	109.0	148.5	575.2	798.9	38.23	5.299	1.987	1.099	0.842	0.771	0.779	0.818	0.765	0.838	1.249	1.497	1.599	2.030	3.294	3.970	4.852	5.391	6.050	6.955	7.331	7.603	7.771	8.000	8.021	7.604	8.076	8.082	7.799	8.237	7.995	8.261	8.225	8.810	8.951	8.529	9.456	9.044	9.091	9.821
405.0	167.5	297.6	556.3	882.1	1252	1576	1801	1894	1923	1890	1858	1843	1801	1779	1720	1658	1612	1572	1491	1404	1310	1212	1112	1001	879.2	768.0	685.0	589.2	439.5	339.5	260.2	190.7	138.6	103.9	87.10	187.9	630.4	643.7	33.14	3.610	1.448	0.988	0.933	0.710	0.689	0.807	0.817	1.148	1.406	1.620	1.972	3.221	3.987	4.546	5.186	5.930	6.855	6.968	7.488	7.904	8.116	8.139	7.884	7.923	7.829	7.619	8.161	8.084	7.970	8.416	8.240	8.790	8.417	9.291	9.107	9.137	9.601
410.0	156.5	297.5	541.8	859.8	1241	1542	1781	1864	1893	1848	1812	1779	1738	1711	1658	1609	1570	1531	1460	1376	1289	1205	1115	1016	901.6	790.6	686.5	618.7	532.2	410.0	310.2	236.2	176.1	129.1	95.58	94.48	199.9	471.5	438.8	137.9	9.762	1.613	1.022	0.825	0.753	0.816	0.871	1.129	1.464	1.662	1.931	3.277	3.851	4.536	4.990	5.852	6.757	7.014	7.399	7.613	7.728	8.188	7.959	7.891	7.694	7.351	7.698	7.603	7.695	7.989	8.056	7.983	8.137	8.662	8.650	8.783	9.030
415.0	147.5	269.7	510.6	843.1	1181	1511	1747	1858	1872	1823	1754	1713	1668	1626	1567	1532	1495	1463	1401	1331	1252	1167	1102	1010	907.6	801.1	701.5	623.8	575.9	496.2	369.8	280.3	214.8	162.4	118.3	91.47	92.05	139.1	264.3	600.7	200.0	8.810	1.651	1.195	0.911	0.911	0.909	1.122	1.390	1.636	1.898	2.983	3.534	4.482	5.116	5.415	6.878	7.048	7.498	7.424	7.489	8.012	7.685	7.792	7.585	7.078	7.342	7.480	7.245	7.644	7.446	7.814	7.881	8.215	8.357	8.376	8.955
420.0	155.0	258.4	502.5	810.7	1144	1456	1698	1815	1835	1780	1718	1660	1608	1555	1493	1462	1438	1411	1350	1280	1215	1141	1072	992.3	902.3	808.8	715.0	636.7	575.4	533.5	426.8	316.5	244.0	186.8	138.4	101.2	77.85	70.68	90.66	360.1	577.7	35.96	4.696	1.525	0.962	0.883	0.813	1.210	1.436	1.484	2.011	2.794	3.660	4.504	5.018	5.562	6.417	6.635	7.291	7.294	7.419	7.922	7.435	7.885	7.340	7.066	6.885	7.139	6.858	7.263	7.004	7.231	7.161	7.967	7.723	7.843	8.326
425.0	154.8	263.3	479.1	775.4	1095	1418	1640	1791	1817	1749	1693	1617	1548	1502	1436	1393	1371	1345	1293	1226	1167	1102	1041	970.4	892.9	808.2	721.7	646.1	580.9	533.9	476.2	354.4	268.3	206.4	156.3	116.7	85.82	63.31	52.72	112.8	411.8	487.5	31.69	2.719	1.375	1.080	0.869	1.099	1.342	1.479	1.932	2.838	3.584	4.318	4.944	5.540	6.337	6.871	7.109	7.334	7.580	7.671	7.242	7.676	7.306	6.926	7.228	6.968	6.837	7.198	7.055	7.281	7.294	7.324	7.383	7.660	7.992
430.0	170.5	243.1	455.8	751.0	1060	1376	1609	1767	1778	1728	1650	1562	1485	1417	1356	1306	1293	1265	1214	1158	1104	1050	993.6	937.2	870.2	796.2	725.9	657.9	598.3	540.7	487.5	412.5	311.7	236.6	179.7	134.7	102.1	72.57	53.03	52.84	123.0	325.7	355.4	125.4	8.895	1.578	1.232	1.125	1.245	1.449	1.778	2.821	3.440	4.053	4.648	5.216	6.229	6.590	6.950	7.352	7.639	7.280	7.443	7.410	7.130	6.843	6.850	6.890	6.757	6.791	6.681	6.939	7.030	7.144	7.036	7.281	7.539
435.0	210.2	235.1	428.6	732.5	1012	1321	1564	1719	1744	1704	1606	1507	1425	1362	1274	1227	1198	1173	1138	1084	1045	992.7	950.1	894.7	840.7	786.2	724.6	666.5	614.0	557.8	493.4	435.3	365.6	269.3	205.0	157.9	119.8	87.64	63.64	47.93	52.98	91.36	196.0	482.9	184.9	8.467	1.746	1.407	1.422	1.412	1.653	2.700	3.453	3.950	4.661	5.249	5.739	6.648	6.697	7.390	7.047	7.251	7.373	7.242	7.095	6.787	6.481	6.420	6.508	6.303	6.587	6.598	6.649	6.716	6.735	6.856	6.949
440.0	203.0	233.9	405.2	692.2	988.1	1275	1522	1700	1729	1671	1577	1476	1374	1294	1210	1166	1138	1108	1077	1031	988.5	945.9	909.0	862.9	818.4	765.8	711.1	664.7	623.6	565.8	500.8	435.7	384.2	305.8	223.2	171.7	132.6	98.91	72.58	52.28	42.09	41.39	62.22	284.1	492.8	32.88	4.311	1.657	1.549	1.538	1.703	2.657	3.237	3.756	4.244	4.865	5.617	6.468	6.766	7.109	7.036	7.050	7.330	7.090	6.622	6.363	6.289	6.526	6.239	6.264	6.141	6.306	6.249	6.327	6.094	6.332	6.614
445.0	204.0	265.2	387.6	652.2	968.1	1231	1474	1640	1684	1633	1537	1422	1323	1232	1155	1107	1068	1044	1017	975.2	933.0	899.3	867.2	826.2	789.1	747.1	701.0	664.0	622.2	570.1	506.0	434.2	382.3	330.9	246.2	185.6	142.3	109.1	80.00	59.61	44.00	34.40	31.29	85.59	353.7	414.4	26.51	2.739	1.647	1.526	1.790	2.764	3.244	3.779	4.144	4.529	5.498	6.058	6.405	6.744	6.838	6.813	6.902	6.713	6.707	6.336	6.090	6.267	5.797	5.766	6.077	5.861	6.129	5.965	6.165	6.319	6.360
450.0	145.2	279.6	381.0	610.0	882.7	1151	1397	1553	1592	1556	1474	1347	1237	1142	1063	1010	979.5	952.4	926.6	889.7	854.3	821.7	795.9	768.2	740.0	703.8	669.6	638.2	603.8	559.7	502.9	436.0	375.5	325.2	270.4	204.4	153.4	118.9	90.39	68.95	50.48	37.86	29.62	34.96	101.9	275.7	293.3	110.7	7.568	1.790	1.845	2.541	2.917	3.437	3.861	4.382	5.141	5.723	6.257	6.290	6.783	6.721	6.470	6.513	6.492	6.025	5.696	5.875	5.822	5.444	5.643	5.420	5.647	5.670	5.633	6.050	5.876
455.0	98.79	237.8	385.4	544.4	811.1	1081	1288	1442	1472	1458	1377	1263	1145	1045	965.8	912.6	885.0	858.4	829.6	796.4	771.8	740.7	724.0	706.7	681.2	649.3	624.1	602.4	573.8	539.8	491.0	430.8	365.6	311.0	269.1	224.6	167.6	128.1	99.97	77.41	58.11	43.77	33.08	27.55	37.59	72.51	151.4	384.2	144.4	6.980	2.020	2.462	2.712	3.056	3.682	4.207	4.630	5.657	5.916	5.828	6.548	5.932	5.920	6.257	6.082	5.429	5.496	5.247	5.366	5.120	5.131	5.077	5.172	5.169	5.055	5.142	5.305
460.0	94.46	198.3	409.6	530.5	749.6	1000	1188	1375	1396	1386	1301	1185	1072	982.8	888.8	840.0	809.9	781.2	757.8	731.7	703.4	681.0	671.3	653.9	635.7	610.3	587.4	567.4	548.8	517.3	475.0	419.6	355.6	303.0	256.4	226.5	180.7	133.9	103.8	82.60	63.00	49.35	36.72	28.60	25.26	29.10	45.23	214.3	372.1	98.37	4.106	2.770	2.599	3.126	3.519	3.865	4.584	5.238	5.433	5.200	5.914	5.794	5.987	5.933	5.579	5.585	5.258	4.995	4.954	4.847	4.768	4.822	4.869	4.724	4.782	4.494	5.076
465.0	92.16	164.6	378.6	539.4	690.6	913.3	1122	1284	1324	1301	1233	1117	1005	919.4	829.0	771.6	746.4	717.1	701.0	676.0	647.2	629.6	618.6	602.9	590.7	568.2	554.5	539.5	517.7	498.4	458.3	404.5	347.7	293.0	245.4	216.6	188.0	143.3	107.9	85.87	68.29	52.62	40.76	30.97	24.57	20.92	20.60	62.37	265.3	311.5	21.80	3.441	2.632	2.728	3.171	3.847	4.527	4.879	5.011	5.113	5.392	5.312	5.583	5.477	5.388	5.144	5.102	4.724	4.800	4.776	4.425	4.561	4.579	4.477	4.510	4.417	4.450
470.0	81.18	140.7	290.5	548.6	647.3	827.7	1013	1164	1210	1179	1118	1020	914.8	820.8	745.0	686.4	659.1	634.5	615.7	596.3	575.2	559.2	547.4	537.8	526.1	513.7	500.6	490.4	477.9	459.2	427.1	377.6	329.7	280.6	235.5	200.2	176.5	150.6	114.8	88.30	71.74	56.13	44.83	34.43	27.04	21.52	17.70	23.83	75.12	197.3	205.2	95.73	7.594	2.999	2.940	3.593	4.053	4.078	4.563	4.735	4.911	5.139	5.177	5.044	4.933	4.882	4.799	4.280	4.198	3.998	4.175	4.037	4.171	4.090	3.932	3.869	4.129
475.0	79.72	119.1	234.5	493.4	655.7	742.0	915.3	1039	1108	1067	1011	934.8	827.4	732.8	665.0	610.3	578.7	556.8	540.4	524.6	503.6	491.3	479.9	474.8	464.6	457.7	447.5	441.2	433.6	417.1	390.4	349.4	305.7	264.2	222.8	187.2	162.4	144.0	123.7	92.64	73.35	59.52	48.90	38.07	30.80	24.33	19.27	16.85	25.73	51.67	98.64	255.1	109.4	7.483	3.184	3.188	3.704	3.721	4.150	4.219	4.703	4.413	4.697	4.698	4.318	4.536	4.129	3.928	3.794	3.787	3.541	3.914	3.604	3.691	3.668	3.423	3.810
480.0	79.25	100.1	197.4	405.5	709.2	707.4	841.0	967.1	1009	997.1	946.0	868.8	760.1	674.1	614.6	564.4	532.1	507.2	492.9	476.6	460.1	449.3	435.4	431.5	425.2	422.4	413.3	407.0	405.6	393.1	367.4	331.4	291.1	251.3	215.2	182.8	155.2	134.3	124.0	100.2	76.70	61.37	50.44	40.98	33.48	27.19	21.33	16.61	16.07	19.68	30.15	137.9	235.2	28.77	4.757	3.158	3.554	3.674	3.838	4.062	4.305	4.164	4.230	4.178	4.225	4.440	3.950	3.794	3.380	3.602	3.368	3.601	3.523	3.480	3.264	3.403	3.467
485.0	68.32	100.5	181.4	335.8	707.1	745.9	790.7	897.9	952.6	937.5	892.2	815.2	713.5	636.5	568.9	525.7	490.7	469.6	454.1	439.1	424.5	410.8	408.6	399.8	394.3	391.1	387.0	381.8	378.3	366.4	344.8	312.7	275.5	241.4	207.1	176.1	151.9	131.0	117.6	106.0	81.38	64.48	52.55	44.02	36.07	29.33	23.21	18.06	14.76	13.38	14.30	41.68	178.2	214.6	24.16	3.848	3.480	3.504	3.742	3.935	3.961	3.981	4.056	4.192	3.784	3.803	3.742	3.689	3.576	3.424	3.272	3.100	3.277	3.297	3.253	3.235	3.211
490.0	61.43	96.76	168.8	283.7	587.7	873.3	747.7	814.1	872.7	865.8	822.2	749.1	661.0	587.0	520.5	475.1	443.8	422.4	408.1	391.1	383.5	369.0	364.7	362.7	358.8	354.4	350.3	351.6	347.9	338.1	318.0	290.8	259.1	227.0	195.4	169.6	146.0	126.5	110.1	101.2	88.00	68.31	54.65	46.19	38.53	31.82	26.03	20.97	16.44	13.92	11.77	16.51	51.65	140.2	197.0	89.06	8.432	3.521	3.674	3.560	3.716	3.651	3.630	3.775	3.622	3.543	3.424	3.458	3.209	3.244	3.257	2.996	2.964	2.968	2.882	2.857	2.908
495.0	66.52	92.41	163.6	264.6	427.7	870.9	860.3	733.9	778.1	776.6	745.8	678.7	604.1	527.7	466.5	422.0	391.1	376.5	360.6	349.1	339.2	330.8	321.9	323.0	319.1	317.6	314.8	313.4	313.6	307.1	292.1	266.3	240.5	208.6	182.4	159.9	139.5	121.7	104.2	93.04	87.39	74.75	59.14	47.64	40.17	33.55	28.64	23.55	18.58	15.09	12.38	12.30	18.59	37.84	97.26	237.2	112.7	7.721	3.461	3.531	3.589	3.630	3.367	3.435	3.261	3.205	2.989	2.879	2.856	3.137	2.895	2.821	2.756	2.841	2.504	2.657	2.518
500.0	55.60	78.69	148.2	236.3	370.9	712.7	995.6	705.8	712.3	716.8	679.6	619.3	549.7	485.2	426.7	385.4	357.3	342.2	331.1	316.8	303.8	300.7	293.2	291.8	289.3	286.0	286.4	287.8	285.3	281.5	269.2	244.9	221.8	194.5	171.9	150.8	131.7	114.6	101.9	87.64	79.75	75.47	61.83	48.70	40.56	34.74	29.46	24.87	19.52	16.44	13.26	11.57	11.93	14.68	28.76	126.5	246.3	30.82	4.976	3.570	3.153	3.129	3.304	3.410	3.032	2.916	2.797	2.776	2.752	2.650	2.607	2.584	2.426	2.569	2.347	2.310	2.544
505.0	48.28	73.15	144.1	209.9	331.0	529.2	1036	761.9	661.1	651.0	629.2	573.9	506.3	442.4	391.5	351.8	328.0	311.3	296.0	285.4	276.6	271.7	265.6	264.6	264.2	260.3	261.4	262.0	260.8	256.9	245.5	226.9	204.3	181.4	159.8	141.5	125.1	108.8	96.51	82.72	73.39	69.57	63.85	49.74	41.79	34.81	29.73	24.92	20.41	17.40	14.24	12.24	10.63	10.17	12.39	37.18	160.8	210.1	26.25	3.859	3.240	3.129	3.058	2.976	3.019	2.711	2.771	2.622	2.478	2.352	2.267	2.532	2.384	2.414	2.217	2.303	2.248
510.0	47.22	63.44	125.3	205.3	282.9	404.4	807.0	966.3	609.7	577.7	557.0	508.8	451.8	392.7	346.5	310.0	287.4	274.6	261.3	251.6	241.3	237.3	232.5	230.7	230.6	228.0	227.3	229.4	229.9	226.6	217.6	200.6	183.4	162.0	144.1	127.7	114.1	100.1	88.94	77.18	68.82	62.14	59.35	52.26	42.30	34.25	30.01	24.75	20.97	18.10	14.81	12.65	11.08	9.898	9.142	13.87	45.49	126.2	165.0	72.03	7.774	3.047	2.785	2.809	2.605	2.437	2.511	2.424	2.098	2.210	2.275	2.242	2.046	2.106	1.884	1.968	1.943
515.0	48.57	55.71	103.0	183.5	247.2	330.0	511.5	1017	716.5	516.1	486.8	446.1	397.3	343.4	305.3	271.3	250.7	235.4	223.2	217.1	206.5	202.6	200.6	198.2	199.5	198.0	197.7	197.3	200.0	196.6	189.6	174.5	159.8	143.9	126.2	114.0	102.0	89.14	80.49	70.86	63.32	56.13	52.42	49.74	44.28	34.63	29.30	24.57	20.78	18.42	15.20	13.63	10.99	10.14	8.872	9.128	15.30	32.74	71.73	179.4	88.87	6.543	2.663	2.539	2.396	2.102	2.134	2.147	1.972	2.226	1.897	1.781	1.921	1.842	1.543	1.844	1.733
520.0	41.89	54.51	87.26	171.5	238.9	298.3	392.2	824.1	956.7	480.1	443.3	400.5	359.3	313.6	271.0	241.9	223.8	209.8	200.8	193.2	185.1	180.2	179.9	175.7	177.0	175.4	176.1	175.0	177.3	179.6	171.5	155.9	144.5	128.3	114.9	104.6	93.75	82.64	74.43	65.59	59.53	52.74	47.53	44.44	44.91	35.39	28.86	24.09	20.20	17.83	15.60	13.14	11.08	10.08	8.917	8.133	8.908	11.74	20.70	90.06	176.7	30.91	3.960	2.504	2.445	2.072	1.951	2.061	1.825	1.796	1.697	1.705	1.655	1.721	1.627	1.637	1.505
525.0	44.25	43.81	80.76	144.5	230.4	267.1	342.6	562.7	1078	537.7	403.1	365.9	327.2	280.5	247.0	219.5	200.4	189.6	178.3	171.7	167.3	161.8	158.7	159.6	158.6	158.9	156.9	158.0	158.9	160.5	152.8	141.4	128.9	116.9	105.3	95.31	85.43	76.91	69.17	61.60	54.79	48.71	44.95	40.53	40.94	36.18	29.21	23.83	20.06	17.24	15.21	13.11	11.39	10.11	9.029	7.994	7.485	7.027	8.405	25.67	108.4	149.4	25.82	2.977	2.228	1.993	1.884	1.798	1.814	1.595	1.558	1.623	1.568	1.467	1.503	1.591	1.474
530.0	36.27	43.42	67.86	117.6	206.4	250.1	286.7	373.5	817.9	832.2	381.4	320.4	281.6	243.4	212.9	192.8	174.8	164.6	155.8	148.6	144.2	139.5	137.9	137.7	136.0	135.6	135.1	136.9	136.3	137.5	133.0	123.5	113.5	101.9	92.87	84.29	75.36	68.19	61.63	55.06	50.25	44.35	40.15	36.26	34.68	33.58	29.89	23.48	18.90	16.51	14.28	12.81	11.18	10.53	8.958	7.935	6.921	6.181	6.002	9.221	30.03	82.10	118.3	59.50	6.449	1.786	1.871	1.652	1.730	1.619	1.455	1.489	1.466	1.418	1.277	1.444	1.316
535.0	33.88	44.20	60.03	96.18	164.7	234.8	248.7	289.1	450.4	977.4	513.2	277.9	237.8	207.5	181.7	163.4	149.5	139.9	133.9	125.9	121.1	120.5	117.8	116.1	115.9	114.0	114.9	116.6	114.6	116.6	111.7	106.9	98.21	88.65	79.77	72.68	66.33	60.17	54.52	49.01	44.82	40.34	35.44	32.45	29.56	28.28	28.22	23.77	18.19	15.35	13.75	12.26	10.45	9.579	8.919	7.897	6.781	5.792	5.534	5.728	9.931	21.34	45.87	127.2	33.02	5.665	1.750	1.433	1.473	1.425	1.400	1.212	1.366	1.160	1.173	1.323	1.175
540.0	29.21	40.01	52.71	80.66	143.7	218.8	227.2	256.3	307.9	750.6	777.1	258.6	210.0	188.2	161.9	144.1	131.6	120.9	116.3	110.9	106.0	104.7	102.3	101.9	101.5	99.30	101.5	101.8	100.6	102.5	99.83	93.89	85.33	77.78	71.01	65.20	59.05	53.41	48.32	43.54	39.60	35.18	32.40	29.59	27.08	24.00	24.75	23.44	18.10	14.59	12.60	11.38	9.911	9.261	8.722	7.541	6.925	6.024	5.175	4.778	5.328	7.610	12.87	58.35	115.1	30.45	3.112	1.480	1.487	1.364	1.357	1.248	1.123	1.065	1.060	1.103	1.019
545.0	27.51	31.70	44.79	68.36	116.2	195.9	225.2	220.2	243.8	441.6	962.1	310.5	190.2	162.8	145.2	124.5	114.2	109.4	100.2	97.53	93.97	90.82	90.02	89.97	88.56	88.30	87.77	88.74	88.56	89.58	87.59	82.04	74.62	69.15	63.95	57.50	51.72	47.66	44.06	38.76	34.91	31.75	28.86	26.55	24.82	21.42	20.91	21.71	18.88	14.08	12.10	10.54	9.412	9.129	8.103	7.391	6.555	5.718	4.914	4.464	4.039	4.275	5.305	16.20	66.44	108.2	24.94	1.822	1.247	1.297	1.131	1.097	0.974	1.013	0.983	0.974	1.032
550.0	31.40	27.64	41.57	61.39	96.42	149.5	208.2	194.9	202.1	254.0	689.1	612.3	176.3	140.2	121.6	107.2	96.33	91.04	85.32	81.70	78.85	76.75	75.45	75.19	72.94	73.01	72.28	73.55	74.09	74.10	71.83	67.62	62.51	58.31	52.79	48.48	43.31	40.57	36.75	32.95	30.19	27.59	24.78	23.05	21.00	19.03	17.43	16.93	16.65	14.07	11.42	9.632	8.536	8.153	7.213	6.720	6.074	5.419	4.741	4.159	3.776	3.471	3.375	5.548	17.95	53.05	80.43	44.24	5.467	1.248	1.001	1.024	0.884	0.995	0.913	0.807	0.843
555.0	31.73	26.08	39.19	50.98	80.70	109.6	172.1	181.1	166.7	182.4	314.0	804.9	269.4	115.0	99.63	87.03	78.12	74.21	69.14	66.36	64.30	62.68	60.39	60.81	59.23	58.27	59.09	59.53	60.01	60.27	57.83	54.35	51.53	47.53	42.45	39.50	36.29	32.45	30.33	27.43	24.77	22.85	20.35	19.07	17.28	15.96	14.57	12.90	13.29	13.04	10.71	8.964	7.364	6.890	6.416	5.919	5.447	5.054	4.568	3.654	3.249	3.001	2.834	3.214	5.688	13.41	28.18	79.18	32.89	4.798	0.950	0.973	0.758	0.813	0.823	0.786	0.751
560.0	25.83	26.14	33.08	45.52	69.03	95.18	132.2	176.4	150.0	157.6	187.3	597.2	509.4	106.5	86.52	73.69	68.16	62.28	58.34	56.22	54.09	51.90	50.99	49.11	48.57	49.13	48.15	50.18	50.07	50.41	48.75	46.49	43.01	38.86	36.10	32.95	30.97	27.47	25.66	23.15	21.39	19.18	17.52	16.40	14.84	13.90	12.57	11.64	10.72	11.01	10.67	8.348	6.829	6.214	5.444	5.437	4.989	4.540	4.412	3.613	3.199	2.981	2.789	2.594	2.991	4.367	7.813	32.44	73.53	28.89	2.363	0.958	0.769	0.806	0.684	0.658	0.688
565.0	25.17	27.24	32.26	47.84	60.96	76.69	103.8	167.2	140.0	135.9	146.6	317.3	719.6	142.7	72.47	63.77	56.79	52.89	49.76	47.50	45.87	43.91	43.65	42.75	41.22	42.17	40.39	42.34	42.35	42.38	41.60	39.73	36.15	33.31	30.35	28.39	25.90	24.02	22.67	19.83	18.48	17.00	15.43	14.10	13.04	12.30	10.87	10.22	8.949	9.046	9.227	8.181	6.302	5.586	4.938	4.884	4.500	4.056	3.798	3.588	2.853	2.729	2.159	2.162	2.093	2.465	3.046	8.932	36.29	68.67	22.07	1.426	0.759	0.797	0.645	0.664	0.609
570.0	29.64	37.44	40.28	51.76	55.41	66.24	89.86	139.8	155.3	134.1	144.6	178.7	534.1	407.1	68.05	49.84	46.05	43.08	40.87	37.63	37.00	35.34	34.73	34.28	32.76	33.72	32.46	34.21	34.22	34.00	33.98	32.13	28.89	26.63	24.09	22.55	21.06	19.17	17.79	16.00	15.04	13.80	12.87	11.53	10.71	9.970	8.830	8.343	7.345	7.037	7.162	7.084	6.094	4.948	4.298	4.181	4.073	3.539	3.181	3.079	2.856	2.501	2.158	1.942	1.865	1.904	1.912	3.250	9.630	28.95	46.82	23.61	4.078	0.722	0.620	0.585	0.582
575.0	33.79	44.84	53.22	63.61	58.62	59.54	75.84	106.3	169.5	148.1	151.1	154.4	244.0	592.7	124.5	42.45	38.66	33.92	32.55	29.86	29.28	27.74	27.72	27.40	27.21	26.80	26.88	27.57	26.77	26.46	26.03	25.12	23.39	21.09	19.47	17.79	16.34	15.03	14.11	13.12	12.32	11.19	10.42	9.536	8.634	8.165	7.434	6.886	5.967	5.674	5.276	5.444	5.676	4.798	3.831	3.735	3.317	2.795	2.838	2.524	2.588	2.545	2.176	1.955	1.901	1.784	1.528	1.992	3.249	7.422	14.82	40.88	30.78	4.419	0.646	0.590	0.528
580.0	34.31	52.94	59.62	66.39	59.03	57.59	72.93	90.24	159.7	168.3	162.1	159.0	157.5	439.0	330.3	40.15	32.31	29.90	27.35	25.02	24.62	24.11	23.34	22.64	22.31	22.79	22.26	22.11	23.04	22.13	21.62	20.53	19.49	17.13	16.33	14.62	13.71	12.65	11.78	10.83	10.26	9.050	8.929	7.869	7.603	6.972	6.145	5.888	5.276	4.854	4.566	4.321	4.891	4.477	3.576	3.213	2.804	2.765	2.568	2.329	2.332	2.494	2.282	1.945	1.921	1.733	1.571	1.761	1.808	2.493	4.294	15.52	42.87	25.34	2.103	0.593	0.464
585.0	33.73	58.51	65.98	67.66	59.33	56.44	67.21	87.19	140.8	188.0	172.0	167.8	143.1	220.1	490.9	64.50	27.24	24.86	23.62	21.70	20.18	19.86	19.22	19.26	20.20	19.36	18.44	18.72	18.62	18.74	18.42	17.23	17.04	14.48	13.77	12.36	11.73	11.12	10.27	8.738	8.619	7.789	7.115	6.742	6.496	5.769	5.510	4.958	4.560	4.456	3.986	3.555	4.081	4.087	3.658	2.976	2.795	2.536	2.345	2.142	1.883	2.100	2.110	1.885	1.849	1.767	1.571	1.600	1.577	1.487	1.869	4.298	18.29	41.24	17.77	1.199	0.500
590.0	37.70	57.13	76.02	79.82	59.95	51.95	62.08	77.97	117.8	192.5	190.7	174.3	142.7	115.4	338.9	215.7	26.91	19.99	19.12	17.24	16.85	16.61	15.69	15.19	15.78	15.07	15.17	14.92	15.35	15.11	15.03	13.78	13.42	11.88	10.95	10.17	9.231	8.735	8.376	7.642	6.759	6.448	6.133	5.701	5.501	4.879	4.690	4.280	3.800	3.610	3.296	3.080	3.064	3.224	3.595	2.808	2.416	2.157	2.188	2.048	1.679	1.748	1.927	2.037	1.883	1.595	1.542	1.517	1.418	1.280	1.305	1.674	4.797	15.61	27.88	19.99	3.689
595.0	32.59	65.53	75.03	81.62	57.53	47.06	56.57	74.83	107.1	164.8	211.9	180.0	140.0	91.02	121.6	353.8	72.12	16.08	15.30	14.13	13.80	12.86	12.88	12.35	12.80	11.52	11.91	11.86	12.21	12.27	11.85	10.97	10.87	9.515	8.780	8.359	7.572	6.819	6.591	6.270	5.664	4.875	5.017	4.860	4.231	3.936	3.676	3.749	3.144	3.004	2.923	2.593	2.440	2.375	2.645	2.729	2.275	1.926	1.729	1.672	1.459	1.674	1.556	1.732	1.871	1.817	1.599	1.455	1.333	1.140	1.199	1.097	1.661	4.008	7.899	22.91	23.69
600.0	33.89	62.73	84.32	78.24	59.65	47.10	50.99	72.32	100.8	148.9	219.8	180.7	145.0	84.74	55.26	256.8	194.7	16.91	12.91	11.37	10.91	11.15	10.90	10.57	10.55	10.02	9.988	10.25	10.44	10.18	9.705	9.326	8.709	7.771	7.587	7.116	6.146	6.125	5.600	4.922	4.800	4.300	4.473	4.077	3.820	3.402	3.035	3.136	2.859	2.544	2.419	2.249	1.987	1.907	2.161	2.479	2.161	1.856	1.558	1.313	1.337	1.399	1.433	1.556	1.742	1.704	1.482	1.545	1.397	1.272	1.041	0.953	0.887	1.389	2.233	7.545	24.90
605.0	39.83	57.33	80.18	73.83	54.08	42.52	49.07	65.69	98.23	139.5	202.5	187.4	141.5	80.76	38.67	112.5	297.9	31.33	11.27	10.31	9.422	9.186	9.356	8.649	8.467	8.819	8.337	8.602	8.378	8.388	8.125	7.708	7.359	6.504	6.339	5.850	5.023	5.403	4.626	4.318	4.069	3.725	3.780	3.358	3.108	3.176	2.780	2.711	2.359	2.294	1.895	1.960	1.721	1.797	1.663	1.927	1.969	1.845	1.508	1.400	1.341	1.368	1.453	1.395	1.529	1.675	1.566	1.489	1.305	1.127	1.036	0.926	0.727	0.758	0.927	2.077	9.359
610.0	35.44	57.41	75.86	76.12	50.98	42.73	46.82	61.86	89.47	127.1	176.6	194.9	139.0	77.06	34.99	42.28	210.9	138.7	11.83	8.809	7.952	7.707	7.326	6.694	6.834	6.942	6.700	6.818	6.473	7.064	6.787	6.420	5.728	5.308	4.946	4.621	4.287	4.083	3.761	3.561	3.189	2.989	2.993	2.648	2.536	2.504	2.187	2.119	1.969	1.868	1.659	1.655	1.456	1.539	1.397	1.585	1.708	1.719	1.450	1.258	1.242	1.160	1.221	1.256	1.386	1.297	1.449	1.457	1.202	1.071	0.921	0.848	0.688	0.618	0.619	0.853	2.515
615.0	28.07	47.73	72.49	69.86	50.78	40.40	45.12	58.43	85.57	113.1	152.0	188.3	140.0	73.60	32.46	23.35	71.77	228.2	41.20	6.855	6.647	5.915	5.331	5.999	5.245	5.664	5.107	5.339	5.560	5.344	5.303	5.041	4.605	4.167	3.818	3.542	3.241	3.139	2.946	2.627	2.404	2.357	2.334	2.236	1.937	1.854	1.801	1.674	1.655	1.517	1.434	1.444	1.350	1.206	1.205	1.128	1.206	1.441	1.271	1.213	1.075	1.071	1.094	1.167	1.208	1.136	1.199	1.315	1.271	0.987	0.824	0.705	0.621	0.559	0.505	0.501	0.985
620.0	37.33	48.55	63.60	63.15	49.47	36.29	40.63	53.27	76.82	105.1	134.3	166.4	143.0	73.63	32.32	19.24	27.16	170.3	120.6	6.681	5.574	5.142	5.008	5.076	4.556	4.603	4.563	4.459	4.616	4.291	4.392	4.120	3.917	3.316	3.460	3.064	3.023	2.619	2.494	2.251	2.120	2.031	1.850	1.930	1.688	1.585	1.469	1.446	1.395	1.287	1.232	1.174	1.133	1.090	1.035	0.972	0.979	1.111	1.289	1.139	0.973	1.020	1.038	0.980	1.023	1.103	1.172	1.208	1.200	1.138	0.935	0.767	0.581	0.481	0.495	0.471	0.589
625.0	34.34	42.96	60.84	58.12	43.47	31.16	37.28	52.26	71.80	97.36	124.6	144.4	142.5	71.17	31.79	18.37	15.80	77.52	196.7	14.75	4.932	4.357	3.990	4.035	3.823	4.030	3.692	3.943	4.225	3.929	3.572	3.172	3.223	2.793	2.779	2.489	2.309	2.286	1.988	2.009	1.813	1.670	1.501	1.467	1.545	1.438	1.271	1.274	1.204	1.076	1.083	1.059	0.894	0.923	0.774	0.914	0.888	0.917	1.193	1.035	0.875	1.034	0.924	1.030	1.015	1.057	0.971	0.884	1.064	1.233	0.976	0.742	0.579	0.499	0.446	0.473	0.451
630.0	32.18	40.28	52.95	50.29	38.51	30.69	33.36	46.05	65.84	87.95	111.5	123.9	124.9	78.62	32.37	18.17	12.82	26.07	148.7	88.69	4.918	3.843	3.442	3.420	3.225	3.153	2.988	3.238	3.139	3.193	2.980	2.537	2.547	2.204	2.277	1.934	1.825	1.756	1.617	1.503	1.397	1.406	1.266	1.194	1.284	1.073	1.163	1.036	0.950	0.872	0.853	0.826	0.811	0.752	0.700	0.706	0.695	0.739	0.844	0.906	0.843	0.853	0.756	0.879	0.842	0.852	0.884	0.819	0.913	0.935	0.950	0.659	0.523	0.509	0.420	0.427	0.391
635.0	30.79	39.85	50.82	44.56	34.44	28.02	30.36	42.28	56.50	77.01	99.44	107.0	106.1	83.42	34.33	18.93	12.09	12.14	49.64	159.4	21.76	3.211	2.844	3.000	2.574	2.695	2.405	2.616	2.599	2.505	2.628	2.188	2.159	1.981	1.668	1.827	1.550	1.442	1.372	1.265	1.098	1.129	0.995	1.029	0.992	0.829	0.961	0.830	0.790	0.772	0.674	0.693	0.665	0.593	0.710	0.593	0.675	0.581	0.634	0.713	0.800	0.856	0.674	0.724	0.839	0.751	0.818	0.810	0.816	0.942	0.792	0.828	0.603	0.476	0.474	0.390	0.333
640.0	31.15	36.30	42.94	41.06	29.44	26.61	32.55	41.08	54.02	72.27	94.91	101.6	95.52	81.23	38.76	20.04	13.16	9.571	16.93	128.1	65.12	3.610	2.394	2.370	2.225	2.179	1.993	2.247	2.158	1.899	2.197	1.846	1.784	1.669	1.404	1.382	1.374	1.237	1.205	1.059	0.896	1.024	0.819	0.990	0.817	0.740	0.838	0.737	0.691	0.662	0.604	0.644	0.618	0.566	0.540	0.529	0.599	0.550	0.640	0.573	0.790	0.767	0.715	0.675	0.714	0.830	0.652	0.783	0.813	0.863	0.690	0.736	0.648	0.553	0.409	0.421	0.413
645.0	26.74	35.86	38.05	38.39	28.01	26.46	30.99	39.23	51.84	70.38	87.50	94.91	84.48	73.03	44.17	20.87	13.62	9.486	8.935	62.00	128.7	7.782	2.190	2.142	1.963	1.846	1.774	1.777	1.783	1.661	1.667	1.812	1.628	1.458	1.214	1.252	1.000	0.955	0.993	1.001	0.781	0.893	0.810	0.758	0.747	0.677	0.645	0.621	0.686	0.651	0.540	0.584	0.558	0.469	0.514	0.492	0.541	0.438	0.558	0.511	0.640	0.732	0.697	0.698	0.671	0.678	0.686	0.720	0.703	0.747	0.600	0.648	0.650	0.513	0.399	0.411	0.379
650.0	25.85	29.89	35.67	36.95	26.62	26.14	27.43	37.10	51.66	60.97	84.03	90.01	79.34	61.31	48.53	22.77	15.09	9.312	6.849	21.51	136.6	33.39	2.001	1.821	1.658	1.622	1.627	1.633	1.560	1.528	1.501	1.325	1.284	1.311	0.976	0.916	0.960	0.851	0.919	0.812	0.648	0.659	0.760	0.609	0.605	0.687	0.674	0.633	0.596	0.510	0.472	0.541	0.494	0.486	0.486	0.415	0.477	0.439	0.545	0.441	0.526	0.639	0.833	0.541	0.610	0.716	0.646	0.648	0.583	0.647	0.639	0.611	0.476	0.535	0.414	0.406	0.433
