Sample:	'1
File name:	Default_20230321_125234.FD3
Run date:	'12:46:13, 03/21/2023
Operator:	dsjg
Comment:	'

Instrument
Model:	F-2700 FL Spectrophotometer
Serial number:	2198-001
ROM Version:	4J14000 07

Instrument parameters
Measurement type:	3-D scan
Data mode:	Fluorescence
EX  Start WL:	220.0 nm
EX  End WL:	600.0 nm
EX Sampling interval:	5.0 nm
EM  Start WL:	230.0 nm
EM  End WL:	650.0 nm
EM Sampling interval:	5.0 nm
Scan speed:	12000 nm/min
EX Slit:	5.0 nm
EM Slit:	5.0 nm
PMT Voltage:	700 V
Response:	Auto 
Corrected spectra:	Off
Contour interval:	50.000

Peak integration
Integration method:	Rectangular
Sensitivity:	1
Threshold:	1.000

Peaks
No.	ApexEX/EM(nm)	Height(Data)
1	225.0/340.0	 1436
2	225.0/600.0	59.02
3	240.0/425.0	572.4
4	265.0/585.0	51.71
5	270.0/595.0	56.36
6	275.0/340.0	 1557
7	275.0/610.0	57.30
8	455.0/345.0	5.391
9	565.0/340.0	7.933

Data points
	220.0	225.0	230.0	235.0	240.0	245.0	250.0	255.0	260.0	265.0	270.0	275.0	280.0	285.0	290.0	295.0	300.0	305.0	310.0	315.0	320.0	325.0	330.0	335.0	340.0	345.0	350.0	355.0	360.0	365.0	370.0	375.0	380.0	385.0	390.0	395.0	400.0	405.0	410.0	415.0	420.0	425.0	430.0	435.0	440.0	445.0	450.0	455.0	460.0	465.0	470.0	475.0	480.0	485.0	490.0	495.0	500.0	505.0	510.0	515.0	520.0	525.0	530.0	535.0	540.0	545.0	550.0	555.0	560.0	565.0	570.0	575.0	580.0	585.0	590.0	595.0	600.0
230.0	187.3	 3212	 5986	 1346	30.27	6.824	5.703	4.828	4.072	3.729	3.140	2.970	2.827	2.222	1.913	1.788	1.565	1.461	1.431	1.352	1.290	1.256	1.278	1.300	1.164	1.128	1.068	1.055	0.994	0.967	0.957	0.952	0.868	0.840	0.793	0.804	0.818	0.711	0.635	0.625	0.587	0.692	0.752	0.597	0.472	0.489	1.677	10.59	24.68	23.08	9.163	1.711	0.395	0.293	0.288	0.293	0.260	0.268	0.209	0.214	0.178	0.169	0.161	0.178	0.172	0.140	0.145	0.139	0.128	0.113	0.102	0.096	0.099	0.097	0.092	0.079	0.074
235.0	94.22	931.8	 4343	 5728	426.9	46.07	7.332	5.908	4.413	4.452	3.099	3.179	3.006	2.429	2.069	1.806	1.807	1.650	1.437	1.493	1.260	1.410	1.298	1.362	1.356	1.246	1.131	1.042	1.081	0.971	0.964	0.851	0.985	0.755	0.768	0.735	0.688	0.693	0.626	0.615	0.495	0.548	0.694	0.675	0.693	0.569	0.756	2.776	7.791	14.75	22.55	20.41	13.85	2.823	0.363	0.327	0.285	0.238	0.222	0.204	0.173	0.156	0.199	0.189	0.185	0.162	0.148	0.154	0.130	0.158	0.105	0.096	0.109	0.097	0.087	0.079	0.074
240.0	103.3	251.3	 1477	 5594	 5755	356.4	21.26	8.467	6.111	5.097	3.949	3.625	3.144	2.769	2.313	2.139	1.951	1.736	1.504	1.564	1.365	1.412	1.267	1.240	1.383	1.145	1.105	1.221	1.082	1.112	0.878	0.822	0.957	0.691	0.811	0.683	0.641	0.733	0.702	0.608	0.527	0.481	0.594	0.610	0.759	0.825	0.774	0.979	2.096	4.152	9.917	24.59	37.48	20.48	10.07	1.376	0.328	0.269	0.232	0.233	0.181	0.177	0.214	0.210	0.189	0.197	0.134	0.163	0.107	0.135	0.140	0.086	0.108	0.079	0.087	0.102	0.114
245.0	88.38	140.6	372.0	 2236	 7154	 5743	267.1	14.17	8.186	6.371	5.284	4.691	3.655	3.283	2.430	2.148	1.987	1.906	1.588	1.691	1.434	1.465	1.380	1.286	1.217	1.343	1.192	1.210	1.115	1.050	1.043	0.903	0.876	0.735	0.756	0.695	0.715	0.763	0.772	0.632	0.687	0.609	0.666	0.558	0.613	0.729	0.843	0.870	0.918	1.223	2.643	7.767	21.97	37.78	43.00	18.16	6.111	0.566	0.297	0.362	0.237	0.197	0.264	0.234	0.203	0.225	0.173	0.169	0.156	0.126	0.132	0.106	0.113	0.089	0.113	0.112	0.098
250.0	42.56	101.4	172.2	553.5	 2627	 6761	 5891	 1077	67.66	9.459	7.552	6.116	4.878	4.135	3.155	2.617	2.234	2.131	1.905	1.814	1.658	1.574	1.527	1.367	1.345	1.393	1.232	1.234	1.138	1.112	1.086	1.020	0.895	0.856	0.743	0.754	0.683	0.655	0.664	0.640	0.656	0.584	0.634	0.503	0.582	0.579	0.586	0.758	0.849	0.831	1.026	2.094	5.535	12.03	23.71	33.97	34.73	37.14	12.77	5.328	0.655	0.300	0.251	0.216	0.238	0.190	0.167	0.184	0.143	0.132	0.143	0.136	0.122	0.120	0.117	0.128	0.099
255.0	20.24	38.26	110.1	224.3	621.4	 1855	 6337	9999.9	 1598	79.83	11.68	8.544	6.663	4.911	3.694	3.298	2.750	2.623	2.087	2.104	1.839	1.749	1.504	1.559	1.414	1.442	1.312	1.367	1.295	1.149	1.118	1.083	0.934	0.829	0.813	0.678	0.689	0.594	0.589	0.556	0.598	0.636	0.665	0.579	0.600	0.497	0.525	0.545	0.614	0.672	0.969	1.183	1.702	2.999	5.676	8.258	14.46	37.47	61.41	62.94	19.87	6.148	0.442	0.303	0.296	0.240	0.201	0.186	0.169	0.146	0.151	0.137	0.156	0.116	0.101	0.132	0.125
260.0	20.10	21.17	51.47	150.5	226.3	443.6	 2150	 9266	9999.9	 1290	53.88	12.13	8.155	6.134	4.584	3.750	2.871	3.027	2.264	2.280	2.066	1.765	1.733	1.807	1.517	1.455	1.316	1.484	1.279	1.205	1.118	1.010	1.000	0.889	0.819	0.794	0.699	0.665	0.571	0.622	0.542	0.694	0.687	0.611	0.594	0.534	0.508	0.478	0.507	0.511	0.676	0.982	1.241	1.232	1.654	2.172	3.591	10.50	27.84	59.56	78.53	61.67	15.76	2.611	0.329	0.310	0.255	0.252	0.186	0.161	0.189	0.142	0.162	0.109	0.161	0.142	0.104
265.0	20.13	17.05	25.49	78.74	163.5	169.6	515.9	 3460	9999.9	9999.9	 1010	24.88	10.38	8.144	5.609	4.348	3.559	3.377	2.666	2.424	2.531	1.683	1.803	1.602	1.515	1.542	1.450	1.541	1.348	1.269	1.185	1.101	1.060	0.955	0.808	0.775	0.711	0.735	0.536	0.637	0.553	0.706	0.610	0.738	0.662	0.571	0.510	0.454	0.490	0.479	0.436	0.681	0.951	1.174	1.081	0.971	1.149	2.645	6.828	18.50	44.92	81.57	87.08	24.18	10.77	0.919	0.275	0.232	0.209	0.200	0.178	0.148	0.172	0.111	0.165	0.118	0.139
270.0	56.78	54.20	42.32	38.34	84.88	150.3	194.9	824.5	 3531	9999.9	9999.9	 3915	61.49	12.72	8.434	6.067	4.679	3.984	3.263	2.851	2.648	2.253	1.958	1.795	1.777	1.696	1.526	1.451	1.433	1.439	1.264	1.261	1.082	1.112	0.963	1.004	0.788	0.764	0.674	0.653	0.746	0.679	0.645	0.773	0.714	0.715	0.739	0.702	0.604	0.519	0.448	0.467	0.581	0.658	0.898	1.100	1.073	1.199	1.909	4.544	10.88	24.53	44.38	59.97	76.99	60.56	39.85	8.204	1.118	0.311	0.242	0.233	0.215	0.159	0.162	0.160	0.198
275.0	153.5	147.4	95.35	44.46	38.47	85.72	177.4	284.4	831.4	 2587	 8128	9999.9	 6063	74.82	13.41	8.580	6.755	4.941	4.266	3.593	3.054	2.694	2.330	2.181	1.880	1.775	1.942	1.699	1.596	1.625	1.420	1.327	1.242	1.225	1.279	1.234	0.968	0.942	0.860	0.903	0.820	0.888	0.890	1.021	0.953	1.013	1.026	1.042	0.781	0.652	0.570	0.526	0.516	0.519	0.592	0.658	1.098	1.535	1.419	1.626	2.823	5.850	10.31	14.36	25.35	51.91	96.57	103.2	24.46	10.22	0.533	0.340	0.276	0.244	0.237	0.212	0.216
280.0	248.2	240.8	156.4	62.58	34.42	47.17	131.8	224.6	280.9	647.6	 2507	9999.9	9999.9	 4584	52.65	12.49	8.688	6.407	4.897	3.999	3.505	2.984	2.615	2.453	2.028	2.075	1.975	1.844	1.595	1.634	1.562	1.507	1.296	1.276	1.405	1.393	1.259	1.158	1.053	1.000	0.961	1.051	1.086	1.095	1.082	1.306	1.399	1.418	1.107	0.887	0.711	0.604	0.475	0.475	0.518	0.532	0.704	1.087	1.420	1.618	1.490	1.887	2.829	3.701	6.317	13.97	37.93	78.91	109.5	101.0	19.78	4.081	0.361	0.253	0.304	0.243	0.282
285.0	339.0	339.0	237.5	85.57	41.97	43.87	86.27	196.8	248.8	264.8	682.7	 3463	9999.9	9999.9	715.3	32.07	12.00	8.732	6.364	5.022	3.909	3.610	2.941	2.534	2.230	2.332	2.199	1.832	1.632	1.861	1.623	1.543	1.381	1.536	1.498	1.693	1.603	1.376	1.338	1.227	1.074	1.190	1.286	1.413	1.533	1.561	1.650	1.730	1.509	1.180	0.761	0.652	0.538	0.514	0.531	0.542	0.566	0.721	0.982	1.433	1.688	1.554	1.444	1.548	2.143	3.901	9.485	22.95	53.61	105.2	123.5	27.57	13.91	1.031	0.464	0.294	0.289
290.0	467.4	485.9	343.1	136.5	73.38	62.59	89.14	156.7	280.5	323.2	413.0	 1025	 3383	 9352	9999.9	 6807	43.09	13.24	9.035	6.946	5.413	4.493	3.793	3.112	2.811	2.657	2.256	2.214	1.876	1.831	1.781	1.687	1.512	1.625	1.837	1.919	1.964	1.740	1.540	1.325	1.377	1.369	1.601	1.763	1.889	2.017	2.108	2.119	1.864	1.495	1.023	0.928	0.693	0.691	0.676	0.614	0.644	0.720	0.841	1.142	1.448	1.828	2.242	2.048	2.001	2.241	3.465	6.493	13.73	30.08	53.37	70.97	99.52	78.07	58.60	9.024	1.066
295.0	584.3	643.1	466.1	215.4	117.9	98.71	125.1	179.4	284.8	445.8	589.0	649.4	 1080	 2472	 6227	9999.9	 4303	52.90	14.00	10.39	7.368	5.875	4.787	4.125	3.562	2.923	2.514	2.587	2.256	2.143	1.971	1.803	1.750	1.762	1.994	2.315	2.447	2.141	1.982	1.695	1.667	1.785	1.985	2.131	2.197	2.505	2.590	2.694	2.415	1.794	1.372	1.119	1.018	0.876	0.904	0.816	0.795	0.855	1.026	1.255	1.341	1.672	2.148	2.733	3.363	3.109	3.045	3.455	4.985	8.550	13.45	17.52	29.96	55.04	119.1	139.6	27.52
300.0	651.1	742.1	563.2	269.2	157.0	135.3	164.1	227.8	328.0	476.2	713.8	748.9	674.4	838.0	 1887	 8021	9999.9	 3491	39.42	13.87	9.761	7.219	5.589	4.539	4.069	3.241	3.056	2.729	2.535	2.121	2.146	1.958	1.810	1.907	2.159	2.605	2.573	2.687	2.209	1.936	1.867	1.914	2.127	2.393	2.530	2.732	2.792	3.066	2.743	2.129	1.622	1.342	1.228	1.042	0.955	0.961	1.011	1.088	1.263	1.537	1.576	1.963	2.303	2.822	3.631	4.031	4.043	3.544	3.709	3.991	4.861	5.366	7.790	14.89	42.30	95.27	146.4
305.0	731.5	819.4	633.6	331.4	194.3	163.4	202.0	270.8	380.9	524.2	754.8	898.0	723.6	548.1	623.2	 2569	9999.9	9999.9	459.1	28.69	12.84	9.001	7.122	5.450	4.614	3.826	3.509	3.066	2.659	2.386	2.197	2.266	1.863	2.115	2.470	2.833	2.705	2.633	2.470	2.217	2.224	2.147	2.239	2.477	2.627	3.027	3.090	3.095	2.973	2.224	1.857	1.537	1.356	1.224	1.101	1.216	1.201	1.399	1.438	1.623	1.809	2.256	2.467	3.183	3.585	4.175	4.630	4.838	4.359	3.664	3.428	3.000	3.152	4.440	10.53	26.43	63.12
310.0	804.1	913.6	731.5	405.8	252.9	222.1	254.7	333.0	461.2	619.7	827.4	977.7	923.0	650.2	424.4	721.0	 2958	 9082	9999.9	 7640	34.96	13.24	9.656	7.184	5.855	4.688	3.978	3.594	2.980	2.854	2.532	2.353	2.108	2.045	2.405	2.768	2.916	2.842	2.683	2.437	2.367	2.229	2.398	2.572	2.766	3.151	3.305	3.530	3.262	2.646	1.978	1.872	1.548	1.415	1.253	1.341	1.481	1.645	1.761	1.930	2.215	2.666	3.011	3.515	4.097	4.460	4.850	5.194	5.240	4.980	4.108	3.168	2.638	2.527	3.606	6.801	15.35
315.0	912.5	 1038	836.2	475.6	309.7	282.7	324.2	413.1	563.1	731.6	952.0	 1079	 1028	875.8	529.5	366.5	764.7	 2191	 5474	9999.9	9999.9	42.73	14.03	9.769	7.395	5.786	5.016	4.415	3.623	3.313	2.941	2.551	2.283	2.267	2.505	2.875	3.026	2.940	2.759	2.544	2.443	2.466	2.725	2.732	3.134	3.339	3.460	3.860	3.538	2.898	2.177	2.083	1.865	1.685	1.536	1.593	1.698	2.005	2.172	2.373	2.714	3.118	3.606	4.069	4.627	5.042	5.483	5.758	5.441	5.469	5.474	4.807	3.465	2.669	2.429	2.671	4.401
320.0	986.9	 1147	906.4	523.9	362.4	327.1	363.7	480.7	642.2	828.3	 1056	 1185	 1107	956.7	683.7	346.9	306.2	568.5	 1504	 7572	9999.9	 2723	33.99	12.69	10.14	7.224	5.734	4.858	4.043	3.579	3.105	2.853	2.458	2.465	2.637	3.033	3.270	3.069	2.865	2.738	2.404	2.636	2.838	2.965	3.482	3.672	3.841	4.237	3.725	3.156	2.222	2.163	2.056	1.997	1.781	1.726	1.904	2.202	2.485	2.696	3.094	3.645	4.034	4.456	5.084	5.524	5.904	5.990	6.179	5.787	5.888	5.421	4.689	3.385	2.445	2.096	2.234
325.0	 1073	 1233	986.5	565.0	406.4	366.2	413.6	535.7	713.9	907.2	 1160	 1294	 1204	 1002	781.4	445.4	239.4	222.4	399.4	 2185	9999.9	9999.9	 2087	25.40	12.30	8.709	6.855	5.879	4.548	4.069	3.512	3.068	2.735	2.607	2.594	2.946	3.168	3.232	2.934	2.805	2.733	2.797	3.075	3.027	3.761	3.790	4.068	4.471	4.201	3.399	2.479	2.524	2.210	2.115	1.919	1.873	2.203	2.371	2.842	3.031	3.238	3.935	4.322	5.013	5.580	5.926	6.389	6.453	6.555	6.177	5.839	5.255	5.029	4.513	3.254	2.338	1.899
330.0	 1164	 1321	 1101	635.6	459.6	419.5	476.3	603.8	799.9	 1015	 1281	 1417	 1327	 1094	817.3	546.1	319.4	180.8	169.7	545.1	 2736	 9396	9999.9	 7352	30.88	13.01	9.494	7.405	5.770	4.642	4.119	3.553	3.036	2.788	2.873	3.156	3.222	3.262	3.003	2.990	2.771	2.968	3.116	3.461	3.944	4.233	4.437	4.941	4.585	3.626	2.828	2.739	2.458	2.226	2.174	2.048	2.407	2.621	2.935	3.256	3.785	4.534	5.067	5.639	6.081	6.683	6.966	7.115	7.208	7.041	6.276	5.630	5.141	4.432	3.804	3.176	2.539
335.0	 1214	 1428	 1177	699.2	504.1	469.7	531.4	674.6	879.0	 1105	 1375	 1518	 1425	 1187	877.3	556.5	410.7	249.0	143.7	188.4	654.1	 2192	 5639	9999.9	9999.9	37.87	13.72	10.20	7.395	5.904	4.805	4.119	3.478	3.047	3.110	3.544	3.302	3.447	3.094	3.041	2.906	3.101	3.240	3.618	4.039	4.458	4.739	5.139	4.819	3.727	2.854	2.972	2.635	2.323	2.312	2.295	2.710	2.817	3.261	3.860	4.255	4.786	5.422	6.013	6.712	6.988	7.496	7.505	7.596	7.552	6.758	6.316	5.465	4.564	3.496	3.128	2.858
340.0	 1250	 1436	 1199	726.0	537.2	507.3	557.8	709.0	908.2	 1138	 1415	 1557	 1469	 1228	908.6	565.9	399.5	318.0	174.6	121.3	199.9	529.6	 1455	 8124	9999.9	 2369	31.39	12.96	9.185	6.885	5.709	4.838	3.835	3.440	3.237	3.389	3.494	3.425	3.348	3.123	2.930	3.112	3.391	3.632	4.265	4.810	4.723	5.253	4.867	3.880	2.945	3.048	2.732	2.416	2.320	2.512	2.765	2.914	3.339	3.852	4.143	4.888	5.635	6.140	6.889	7.032	7.652	7.681	7.843	7.933	7.146	6.503	5.653	4.708	3.581	3.152	2.616
345.0	 1246	 1430	 1191	731.2	558.1	518.3	578.7	715.8	930.8	 1153	 1409	 1551	 1477	 1236	918.6	575.4	382.5	325.2	237.1	127.2	109.1	168.0	366.7	 2251	9999.9	9999.9	318.3	24.27	11.27	8.881	6.535	5.356	4.352	3.733	3.604	3.490	3.403	3.549	3.095	3.126	2.961	3.180	3.457	3.599	4.388	4.643	4.859	5.391	4.950	3.779	3.204	3.126	2.808	2.492	2.477	2.557	2.902	3.072	3.536	3.799	4.280	5.059	5.571	6.268	6.822	6.998	7.318	7.491	7.777	7.667	7.165	6.481	5.664	4.712	3.958	3.209	2.714
350.0	 1186	 1380	 1137	714.9	567.2	530.5	582.4	707.8	907.4	 1121	 1362	 1499	 1426	 1209	911.8	576.6	385.3	293.8	271.1	202.3	121.1	108.2	139.3	550.5	 2760	9999.9	9999.9	 6883	28.61	12.47	8.851	6.567	4.965	4.273	3.890	3.741	3.495	3.547	3.176	3.135	3.081	3.172	3.174	3.683	4.102	4.621	4.750	5.166	4.741	3.804	3.099	2.985	2.891	2.573	2.580	2.468	2.855	3.126	3.464	3.798	4.297	4.967	5.474	5.999	6.606	7.042	7.046	7.490	7.595	7.445	6.809	6.368	5.564	4.572	3.932	3.277	2.843
355.0	 1108	 1281	 1075	690.1	577.3	536.1	578.4	699.5	868.0	 1083	 1283	 1416	 1342	 1150	877.3	574.4	397.7	297.2	254.4	253.5	197.2	126.4	110.1	187.6	663.6	 2320	 5984	9999.9	 9172	36.46	12.54	9.106	6.685	5.018	4.323	4.012	3.697	3.701	3.097	3.230	3.082	3.021	3.059	3.681	3.930	4.672	4.662	4.936	4.337	3.602	3.100	3.082	2.796	2.717	2.620	2.635	2.882	2.969	3.406	3.699	4.229	4.637	5.424	5.945	6.257	6.694	6.652	6.962	7.086	6.847	6.577	5.973	5.458	4.554	3.807	3.288	2.790
360.0	 1046	 1211	 1033	682.5	581.7	548.1	582.1	685.7	857.1	 1023	 1226	 1334	 1273	 1090	841.2	567.4	403.6	312.2	262.4	248.1	254.1	172.2	122.9	120.4	209.2	562.7	 1514	 8550	9999.9	 2253	29.92	11.21	7.917	6.155	4.929	4.104	3.977	3.694	3.420	3.319	3.025	3.026	3.049	3.346	3.818	4.256	4.433	4.842	4.353	3.595	3.103	2.987	2.643	2.701	2.650	2.655	2.892	3.104	3.280	3.686	4.025	4.483	5.183	5.804	5.935	6.363	6.336	6.675	6.741	6.465	6.103	5.790	4.982	4.416	3.701	3.215	2.824
365.0	990.2	 1124	975.7	672.1	567.5	540.0	573.1	662.2	821.1	972.4	 1163	 1265	 1206	 1037	809.3	555.4	410.6	327.7	280.9	249.5	261.9	238.9	156.8	124.0	123.6	183.1	381.4	 2331	9999.9	9999.9	 1743	22.20	9.667	7.443	5.695	4.589	3.952	3.863	3.521	3.240	2.964	3.158	3.185	3.323	3.759	4.102	4.297	4.837	4.267	3.528	2.974	2.957	2.765	2.723	2.492	2.474	2.940	3.091	3.311	3.384	4.039	4.291	4.998	5.607	5.800	5.864	6.095	6.464	6.302	6.011	5.923	5.507	5.063	4.282	3.680	3.242	2.946
370.0	929.2	 1055	933.9	636.1	575.7	537.4	565.2	644.1	766.4	903.6	 1078	 1161	 1101	962.8	759.4	542.9	419.0	348.6	310.4	279.6	265.3	271.6	234.4	165.4	130.7	118.5	142.3	563.7	 2784	9999.9	9999.9	 6243	25.09	10.42	7.420	5.785	4.544	4.141	3.623	3.403	3.064	3.007	3.168	3.382	3.527	3.974	3.946	4.285	3.888	3.365	2.836	2.995	2.724	2.667	2.637	2.632	2.812	3.032	3.124	3.365	3.895	4.295	4.583	5.124	5.351	5.624	5.703	5.938	5.909	5.744	5.473	5.372	4.790	4.117	3.490	3.311	3.057
375.0	844.5	988.7	865.3	627.2	574.7	548.5	554.8	612.3	726.2	836.9	972.9	 1046	994.7	879.7	707.6	529.5	426.2	371.9	340.7	319.3	294.9	278.9	279.5	245.0	168.2	129.1	109.0	181.5	660.9	 2309	 6230	9999.9	 8396	30.97	10.53	7.280	5.751	4.715	4.065	3.444	3.148	3.244	3.261	3.454	3.368	3.889	3.786	3.972	3.540	3.071	2.632	2.824	2.827	2.668	2.672	2.609	2.747	2.932	3.043	3.212	3.577	4.065	4.300	4.718	4.933	5.163	5.092	5.319	5.409	5.421	4.958	5.013	4.507	3.951	3.496	3.191	2.928
380.0	790.6	919.3	828.6	611.0	568.3	547.6	549.2	600.0	687.7	779.3	915.4	962.6	929.4	816.1	668.3	519.8	435.7	386.5	365.3	347.4	319.7	298.1	286.3	290.2	218.7	151.3	116.1	110.8	198.3	553.0	 1557	 8459	9999.9	 1957	24.46	8.906	7.216	5.452	4.351	3.682	3.420	3.369	3.224	3.488	3.630	3.727	3.673	3.925	3.595	2.976	2.597	2.822	2.954	2.731	2.620	2.751	2.794	2.819	3.071	3.286	3.451	3.794	4.110	4.528	4.687	4.869	4.804	5.137	5.078	4.838	4.619	4.687	4.245	3.693	3.357	3.103	3.034
385.0	746.8	862.1	800.3	596.8	580.6	545.9	552.1	583.0	663.6	735.0	852.5	904.6	868.2	771.2	644.5	509.4	439.8	401.4	382.2	366.2	343.3	321.7	297.7	296.4	271.7	186.2	135.7	108.5	107.0	170.5	384.8	 2301	9999.9	9999.9	 1428	17.73	8.349	6.439	4.982	3.947	3.543	3.218	3.250	3.394	3.481	3.658	3.688	3.795	3.580	2.940	2.652	2.876	2.797	2.736	2.694	2.620	2.830	2.866	2.986	3.223	3.382	3.736	3.849	4.282	4.405	4.593	4.604	4.706	4.735	4.422	4.522	4.473	4.103	3.560	3.293	3.241	3.153
390.0	679.3	818.6	761.8	594.5	579.9	547.3	542.2	571.4	624.6	684.8	784.1	830.0	794.5	715.8	606.5	498.2	440.8	415.7	402.1	390.2	374.4	351.2	324.7	306.2	291.3	252.6	181.5	135.5	109.6	104.2	135.9	551.4	 2750	 9262	9999.9	 4996	20.76	8.449	6.054	4.915	3.962	3.547	3.373	3.537	3.423	3.498	3.509	3.670	3.439	2.963	2.588	2.797	2.910	2.799	2.687	2.635	2.878	2.819	2.997	2.998	3.124	3.391	3.627	3.885	4.057	4.219	4.167	4.350	4.336	4.291	4.047	4.147	3.785	3.526	3.192	3.196	3.158
395.0	634.6	764.4	732.6	596.8	591.2	560.5	541.7	554.9	592.9	641.8	719.1	753.3	730.6	662.5	577.7	487.8	443.0	425.4	417.9	413.1	400.8	378.6	356.3	329.5	303.3	286.2	249.4	177.0	137.4	112.7	98.61	173.1	648.8	 2126	 5490	9999.9	 6884	26.45	8.301	6.317	4.838	4.006	3.501	3.524	3.432	3.485	3.433	3.622	3.350	2.914	2.621	2.991	2.980	2.879	2.889	2.740	2.997	2.805	2.997	2.947	2.989	3.149	3.344	3.525	3.782	3.928	3.733	3.937	4.126	4.034	4.008	3.837	3.734	3.356	3.347	3.289	3.020
400.0	598.2	741.3	696.6	584.4	579.7	558.5	545.7	548.4	575.9	614.4	674.6	717.8	691.2	629.5	557.9	478.8	445.2	428.7	422.8	424.0	413.6	396.4	376.8	348.2	317.3	292.5	279.7	223.0	163.3	131.4	103.3	101.2	189.3	506.5	 1356	 7349	9999.9	 1658	21.02	7.772	5.728	4.673	3.987	3.684	3.524	3.578	3.596	3.601	3.470	2.955	2.557	3.091	3.068	2.821	2.973	2.738	2.970	2.939	2.897	2.931	2.941	3.211	3.364	3.440	3.657	3.601	3.723	3.827	3.805	3.902	3.727	3.880	3.633	3.393	3.226	3.196	3.082
405.0	582.9	713.6	695.1	579.7	588.9	557.2	536.7	544.0	554.1	589.1	655.0	683.1	658.0	602.7	542.2	472.6	442.3	432.9	432.5	425.2	418.8	406.3	388.5	363.0	333.7	300.6	281.2	264.0	198.4	153.0	118.6	96.58	95.57	152.3	333.3	 1957	 9447	9999.9	 1266	16.06	6.449	5.248	4.360	3.969	3.641	3.499	3.488	3.613	3.382	3.029	2.662	3.105	3.009	2.868	2.888	2.768	3.086	2.940	2.728	2.951	3.087	3.146	3.063	3.246	3.367	3.425	3.551	3.675	3.689	3.648	3.532	3.576	3.499	3.255	2.917	3.074	3.224
410.0	545.7	671.6	672.9	577.9	588.9	556.5	535.6	539.7	546.1	569.8	619.2	646.9	616.8	570.7	513.6	461.8	435.8	429.8	429.2	428.0	423.4	412.7	398.0	380.3	349.8	318.6	289.5	274.7	247.8	191.6	146.5	114.4	91.16	85.02	112.8	465.3	 2452	 7651	9999.9	 4129	18.64	7.056	5.383	4.551	3.959	3.629	3.517	3.554	3.228	2.954	2.730	3.123	3.049	2.822	2.779	2.739	2.970	3.006	2.851	2.926	2.907	3.163	3.026	3.211	3.329	3.316	3.373	3.406	3.511	3.392	3.391	3.375	3.344	3.225	3.079	3.086	3.102
415.0	533.3	641.4	649.9	573.6	574.6	554.4	538.9	527.5	534.0	554.6	599.3	609.4	582.1	544.4	493.0	447.1	425.1	420.1	420.1	419.6	415.8	409.2	398.7	385.2	360.0	336.0	303.0	278.9	264.1	241.0	181.0	138.5	105.1	83.24	72.93	139.3	572.4	 1749	 4674	9999.9	 1654	24.38	7.151	5.285	4.627	4.057	3.462	3.446	3.283	2.834	2.702	3.039	3.131	2.842	2.687	2.810	2.821	2.872	2.871	2.935	2.875	3.013	3.029	3.024	3.162	3.136	3.268	3.397	3.159	3.387	3.217	3.176	3.092	3.085	2.919	3.049	3.015
420.0	502.9	635.6	627.9	564.3	564.2	547.9	532.6	513.4	525.4	539.7	582.6	590.4	563.1	519.2	477.1	435.8	415.0	411.5	408.6	410.4	409.2	405.2	397.7	382.8	364.1	343.1	312.2	287.4	264.3	257.7	213.7	156.3	117.2	91.14	71.27	72.74	158.3	413.3	 1129	 5833	9999.9	 1549	19.78	6.673	5.046	4.570	3.819	3.617	3.496	3.008	2.715	2.942	3.023	2.941	2.921	2.779	2.891	2.861	3.029	2.792	2.993	2.936	3.009	3.007	3.054	3.218	3.209	3.170	3.072	3.237	3.264	3.046	3.139	2.912	3.051	3.004	2.911
425.0	457.0	593.4	602.3	552.3	572.4	544.7	530.0	522.3	518.8	530.7	563.0	579.3	540.6	501.8	458.8	419.5	406.9	400.2	398.6	401.6	402.3	393.7	390.9	381.6	366.1	343.5	319.5	295.2	269.2	256.1	235.5	180.2	130.8	102.2	78.40	64.67	72.05	119.1	273.4	 1501	 7541	9999.9	 1207	14.74	5.910	5.113	4.272	3.691	3.478	3.134	2.700	2.959	3.064	2.962	3.101	2.872	2.859	2.762	2.930	2.819	2.916	3.050	3.182	3.080	2.974	3.097	3.105	3.200	3.100	3.112	3.235	3.067	3.147	2.831	2.839	2.877	2.953
430.0	505.5	557.9	585.5	538.0	565.6	538.1	526.3	520.2	518.8	521.4	551.6	558.7	516.5	479.3	443.3	407.8	394.6	384.2	386.3	387.0	385.6	383.5	376.8	374.1	362.5	342.7	322.5	301.7	278.4	257.0	238.5	209.2	157.0	117.0	90.86	72.60	60.50	60.06	85.76	354.9	 1943	 6421	 8654	 3457	17.18	6.442	5.037	4.394	3.703	3.259	2.827	3.129	3.068	3.045	3.075	2.905	3.008	2.970	2.928	2.870	2.908	3.082	3.110	2.998	3.070	2.935	3.040	2.925	2.994	3.012	2.909	2.945	2.904	2.856	2.761	2.942	2.848
435.0	901.7	539.7	565.9	522.1	562.4	530.6	520.2	514.2	513.6	514.9	538.4	537.1	500.8	459.8	419.3	391.9	377.5	365.3	370.6	369.6	368.0	365.7	363.3	360.7	353.6	338.8	323.3	307.8	284.3	262.3	238.0	214.3	188.3	137.7	105.4	83.75	67.75	54.54	50.19	102.9	450.6	 1460	 3671	9999.9	 1569	22.72	6.333	5.143	4.235	3.429	2.920	3.281	3.114	2.843	3.133	3.068	3.116	2.970	3.013	2.862	2.980	2.933	3.244	3.079	3.032	2.820	3.028	2.839	2.876	2.826	2.917	2.663	2.689	2.737	2.618	2.615	2.683
440.0	 1436	545.8	542.8	514.5	535.5	520.2	511.1	514.7	506.7	500.3	528.2	522.0	485.4	443.3	408.0	380.5	365.0	352.4	354.4	353.7	354.4	354.5	352.7	350.6	346.3	334.4	316.8	304.2	287.6	265.4	241.6	210.8	193.7	155.6	116.4	91.15	73.70	57.72	45.88	50.14	121.1	342.5	880.8	 5446	9999.9	 1400	16.69	6.113	4.665	3.766	3.131	3.438	3.169	3.186	3.096	2.979	3.128	3.003	2.861	2.877	2.871	2.945	3.055	2.910	3.133	2.790	2.939	2.915	2.768	2.768	2.715	2.563	2.543	2.624	2.613	2.605	2.639
445.0	 2436	768.1	534.1	497.6	526.1	509.9	501.1	507.5	493.9	493.2	515.1	502.3	466.2	422.2	393.1	362.0	350.2	341.4	339.0	339.8	338.4	339.6	337.8	337.7	333.3	325.0	311.2	298.8	283.9	264.3	243.5	210.8	187.5	168.8	130.5	98.70	79.29	62.06	49.55	41.62	51.31	95.78	212.7	 1415	 7444	 9483	179.3	12.19	5.289	4.077	3.633	3.524	3.350	3.222	3.039	3.019	3.045	3.046	2.834	2.777	2.954	2.949	2.990	2.888	2.874	2.765	2.822	2.836	2.776	2.719	2.619	2.386	2.405	2.555	2.610	2.483	2.714
450.0	 2394	 1937	587.6	472.9	495.7	493.1	481.6	477.8	474.1	474.7	487.4	478.7	437.2	398.3	368.5	341.1	325.6	317.9	317.6	314.8	315.6	313.9	313.9	314.8	312.5	307.8	297.1	287.7	275.0	259.9	238.6	210.1	181.6	162.5	143.6	112.3	86.38	68.72	55.16	45.13	40.11	44.80	65.75	330.7	 1904	 5974	 8076	 3110	14.66	5.345	4.025	3.895	3.618	3.222	3.025	2.987	2.954	3.030	3.012	2.868	2.905	2.894	2.784	2.875	2.891	2.753	2.627	2.619	2.586	2.591	2.444	2.356	2.425	2.349	2.483	2.380	2.473
455.0	 1211	 3165	 1226	444.9	463.9	457.6	455.7	443.3	452.0	445.1	453.1	444.3	403.6	370.5	339.2	316.3	297.9	292.7	287.6	287.3	284.5	286.8	286.2	288.6	290.4	286.4	275.6	268.2	260.7	248.1	228.3	204.2	175.9	153.7	138.5	125.0	97.81	75.23	60.49	50.16	41.90	37.24	36.04	90.32	437.4	 1356	 3492	 9242	 1334	17.26	5.102	4.218	3.728	3.423	3.234	2.888	2.988	3.007	2.719	2.841	2.800	2.672	2.809	2.669	2.758	2.588	2.758	2.475	2.347	2.478	2.323	2.175	2.363	2.115	2.229	2.213	2.369
460.0	545.3	 2942	 2411	482.8	441.3	438.8	424.7	424.8	427.4	422.5	433.5	418.4	384.2	348.1	317.1	294.0	276.0	270.8	267.0	263.5	263.9	263.1	266.4	270.0	269.1	267.1	261.4	255.7	248.2	238.8	220.7	198.1	173.3	148.1	131.3	123.3	105.7	78.87	65.28	53.84	43.97	36.94	31.12	38.72	112.0	314.5	828.8	 4742	 8607	 1062	13.17	4.985	4.195	3.534	3.217	2.857	3.030	2.934	2.706	2.636	2.886	2.713	2.721	2.645	2.653	2.383	2.526	2.314	2.352	2.246	2.252	2.175	2.214	2.095	2.118	2.081	2.371
465.0	331.0	 1899	 3577	625.6	409.2	403.3	405.2	408.0	402.6	401.2	406.0	397.4	358.3	324.1	295.9	273.7	257.7	250.3	248.0	245.9	244.2	244.2	249.2	248.8	250.6	251.6	243.7	239.1	235.7	226.4	210.8	190.7	167.5	145.0	127.3	116.2	108.8	85.33	67.40	56.41	46.89	39.11	31.98	29.18	40.98	83.25	196.5	 1205	 6152	 7508	763.3	10.40	4.609	3.948	3.562	3.002	2.937	2.865	2.763	2.677	2.550	2.565	2.528	2.549	2.505	2.441	2.385	2.154	2.160	2.176	2.243	2.043	2.118	2.084	1.879	2.025	2.079
470.0	273.8	786.3	 3149	 2368	448.4	367.9	375.7	369.6	371.9	366.4	372.0	361.6	324.7	291.9	267.1	247.0	231.5	224.6	222.0	219.6	218.0	219.0	221.6	224.1	225.4	224.6	220.5	216.8	213.7	207.5	195.3	177.6	156.5	137.5	120.6	108.1	100.1	90.46	72.89	58.39	48.44	41.32	33.52	28.13	26.57	32.44	55.34	279.0	 1581	 4805	 6117	 2369	13.93	4.955	3.951	3.449	3.083	3.016	2.769	2.531	2.422	2.483	2.385	2.421	2.316	2.300	2.203	2.110	2.050	2.002	1.990	1.962	1.915	1.847	1.756	1.829	1.807
475.0	252.8	391.6	 1413	 3746	 1315	336.4	340.2	334.6	333.4	327.8	332.3	324.2	295.4	261.9	237.1	221.1	204.7	198.4	194.8	194.3	192.8	193.6	194.8	197.6	198.9	197.8	196.1	193.4	191.7	185.8	176.5	163.7	144.9	128.0	113.8	100.9	90.97	83.47	76.90	62.20	49.09	42.39	35.10	28.70	24.32	21.82	24.40	71.95	360.1	 1088	 2461	 6663	 1295	17.77	4.789	3.571	3.406	3.105	2.611	2.484	2.288	2.305	2.200	2.263	2.014	2.055	1.897	2.030	1.873	1.836	1.782	1.898	1.692	1.667	1.659	1.639	1.553
480.0	238.6	291.5	587.9	 3124	 2718	385.7	317.4	313.5	309.6	301.8	307.0	300.4	271.6	241.4	218.6	201.4	189.4	180.4	176.4	177.0	176.1	175.9	176.4	180.1	182.7	180.3	180.3	178.5	175.8	173.8	165.9	152.9	136.1	122.1	108.4	97.77	87.14	77.86	73.77	66.49	51.34	42.64	35.73	29.24	24.64	20.31	17.79	26.58	88.83	249.7	582.3	 3252	 6320	 1131	13.95	4.192	3.574	3.210	2.709	2.455	2.211	2.188	2.230	2.254	2.093	1.965	1.830	1.870	1.648	1.656	1.618	1.690	1.615	1.508	1.541	1.558	1.406
485.0	221.5	264.8	339.3	 1740	 3894	884.6	295.6	298.2	291.5	283.8	287.2	281.2	247.6	225.4	204.9	187.4	174.4	167.3	163.4	162.6	162.4	162.2	161.5	165.9	168.0	166.1	167.2	164.3	162.4	160.0	153.8	142.2	127.7	114.5	103.3	93.85	83.39	73.90	68.46	65.98	54.45	43.07	35.41	30.52	24.99	20.68	17.61	17.13	29.33	63.58	137.4	810.2	 4463	 6271	176.1	9.626	4.190	3.444	2.915	2.729	2.417	2.071	2.130	2.223	1.974	1.975	1.793	1.788	1.602	1.555	1.657	1.690	1.421	1.435	1.420	1.383	1.374
490.0	187.5	257.2	260.2	655.7	 3171	 2543	334.1	267.1	267.1	258.8	261.9	253.9	224.8	205.5	183.5	166.8	157.0	150.2	148.3	145.5	142.9	143.7	144.4	147.8	149.5	148.4	147.7	147.0	147.3	145.5	139.7	130.2	118.2	106.6	96.43	88.24	78.31	70.03	63.55	60.38	56.27	45.46	36.70	30.86	26.20	21.44	18.53	16.30	17.09	23.18	38.75	188.6	 1131	 3765	 5191	 2092	14.20	4.477	3.275	2.879	2.610	2.196	2.071	2.063	1.976	1.822	1.787	1.646	1.518	1.551	1.516	1.389	1.455	1.286	1.233	1.293	1.272
495.0	158.3	234.5	233.6	317.0	 1297	 3890	 1374	245.8	243.5	233.9	235.9	229.6	203.2	181.4	161.6	147.8	139.7	131.5	130.1	125.8	127.1	126.4	127.9	129.4	131.7	132.4	128.9	130.4	131.7	128.7	124.5	116.8	107.2	95.80	87.75	81.59	73.15	65.55	59.78	54.28	52.23	48.54	38.56	31.16	26.60	22.31	19.29	17.37	15.54	15.40	17.71	51.05	260.6	856.7	 2470	 6493	 1372	17.87	4.427	3.369	2.744	2.252	1.982	1.934	1.795	1.572	1.654	1.499	1.486	1.418	1.359	1.244	1.274	1.177	1.209	1.116	1.202
500.0	138.8	204.3	224.8	223.7	488.5	 3115	 2646	287.8	222.7	215.4	214.7	208.1	185.3	166.1	148.9	134.0	127.3	119.5	115.6	113.0	112.8	114.6	115.1	116.4	115.4	119.2	116.5	116.9	118.9	117.9	113.5	106.5	97.77	89.04	81.20	75.21	68.32	62.25	56.53	50.07	46.89	46.42	40.59	32.52	26.73	23.31	19.99	18.03	15.94	14.67	13.98	21.04	66.94	200.1	594.4	 3335	 6125	 1133	13.23	3.438	2.750	2.485	2.069	1.747	1.825	1.611	1.536	1.445	1.434	1.363	1.275	1.320	1.234	1.135	1.222	0.964	0.996
505.0	127.2	179.6	213.2	188.6	262.7	 1656	 3991	885.8	203.7	199.7	199.5	192.0	171.3	150.7	133.0	121.6	113.7	105.7	104.8	102.2	103.0	102.4	103.4	104.8	106.3	107.6	107.1	106.4	106.6	106.9	104.3	97.07	90.69	81.84	75.78	70.22	63.74	58.78	53.03	48.82	43.62	41.73	40.53	33.78	27.59	23.69	20.57	18.21	16.28	14.83	13.29	14.40	24.06	53.94	141.8	845.1	 4293	 5493	185.4	7.256	2.963	2.474	2.051	1.918	1.736	1.726	1.493	1.436	1.318	1.250	1.196	1.229	1.147	1.088	1.079	0.948	0.989
510.0	107.1	143.6	186.4	178.5	187.4	573.8	 2965	 2678	361.4	176.1	173.8	169.1	149.9	130.5	116.5	105.7	98.43	93.07	91.93	89.43	88.58	88.31	89.79	91.21	93.05	92.41	91.81	92.55	92.49	93.78	91.47	86.11	78.96	73.13	68.04	62.32	57.43	53.32	48.05	44.47	39.98	37.18	35.66	34.10	28.82	23.45	20.47	18.18	16.52	14.68	13.37	12.92	14.31	20.87	40.04	196.5	 1093	 3358	 4204	769.4	12.92	3.071	2.314	1.941	1.716	1.575	1.429	1.315	1.221	1.139	1.122	1.035	1.002	0.959	0.924	0.901	0.884
515.0	93.74	122.3	146.9	158.8	152.5	242.4	 1089	 3612	 1427	159.4	154.1	146.3	129.5	114.8	100.5	92.19	85.20	79.98	77.80	77.92	75.45	75.46	76.18	77.71	78.66	79.05	78.52	78.50	80.76	80.56	78.68	74.50	68.46	63.11	59.54	55.16	51.57	47.48	43.09	39.77	35.93	33.32	30.93	30.46	29.56	24.38	19.84	17.61	16.08	13.99	13.32	12.45	11.86	13.07	16.83	51.15	249.4	760.2	 1835	 4546	 1320	16.52	2.765	2.024	1.751	1.528	1.316	1.361	1.151	1.124	1.006	0.910	0.900	0.806	0.861	0.748	0.730
520.0	77.42	103.7	121.7	145.5	144.0	152.5	372.9	 2642	 2987	210.3	140.2	132.2	116.5	101.7	90.75	82.11	75.32	71.36	69.25	68.30	66.98	68.34	67.55	68.29	69.56	69.81	68.79	70.96	70.91	71.16	70.07	66.55	62.51	56.75	52.94	49.80	46.54	43.31	39.86	36.87	33.52	30.95	27.86	27.15	27.68	24.81	19.74	16.70	15.10	14.01	12.79	11.77	11.07	10.69	11.03	18.31	61.23	174.5	437.0	 2437	 4543	970.3	10.90	2.333	1.776	1.477	1.231	1.153	1.109	1.040	0.920	0.841	0.852	0.846	0.800	0.628	0.736
525.0	70.58	92.79	108.0	125.8	141.7	125.1	179.6	 1285	 3796	934.8	128.3	119.5	107.0	92.78	82.53	74.17	68.31	64.60	62.60	60.55	60.38	59.99	59.96	61.54	63.13	61.93	61.54	63.43	64.06	63.68	63.21	59.95	56.20	51.40	48.26	45.17	42.43	39.00	36.17	33.78	31.53	28.99	26.44	24.53	24.67	24.42	20.21	16.70	14.58	13.17	12.34	11.28	10.33	9.984	9.525	10.31	18.85	43.58	102.0	618.9	 3123	 3923	176.4	4.898	2.059	1.522	1.313	1.153	1.113	0.995	0.899	0.860	0.777	0.803	0.722	0.681	0.672
530.0	64.25	82.66	91.74	103.1	123.7	113.6	122.0	416.1	 2534	 2766	367.5	106.0	92.87	81.70	71.54	64.25	59.85	56.22	53.98	52.82	52.35	51.87	51.22	53.49	54.51	53.94	53.89	54.33	55.15	55.95	54.19	51.70	49.38	44.86	42.79	39.57	37.24	34.31	31.91	30.20	28.13	26.02	23.69	21.71	20.90	20.89	20.52	17.14	13.93	12.31	11.68	10.57	9.606	9.152	8.354	7.884	9.118	13.86	26.31	141.5	788.7	 2428	 3031	743.6	11.75	2.050	1.508	1.231	1.056	0.955	0.845	0.805	0.680	0.675	0.630	0.623	0.622
535.0	56.98	73.36	75.46	84.50	100.7	112.0	99.86	165.0	857.1	 3184	 1342	104.5	80.93	70.01	61.04	54.47	50.35	47.14	46.78	44.65	44.85	43.88	43.81	44.72	46.37	46.10	46.11	46.75	47.44	47.82	46.76	44.07	42.23	39.24	36.30	34.19	32.31	30.05	28.42	26.10	24.69	23.06	21.10	19.75	18.35	17.74	18.17	16.97	13.83	11.66	10.85	10.01	8.730	8.406	7.519	6.974	6.368	6.893	9.133	34.28	178.1	548.1	 1307	 3314	 1196	15.50	1.969	1.267	1.125	0.998	0.938	0.678	0.680	0.616	0.511	0.603	0.542
540.0	51.46	67.34	71.16	71.69	83.75	102.6	89.00	102.1	275.5	 2127	 3052	163.5	74.10	62.04	53.11	50.88	44.14	43.13	40.58	40.45	40.07	39.42	39.07	40.35	41.12	41.15	41.13	40.98	41.60	41.79	41.53	39.58	37.41	34.92	32.36	31.37	29.41	26.62	25.17	23.58	22.00	21.24	19.08	18.09	16.77	16.10	15.83	16.13	14.14	11.32	9.936	9.288	8.320	7.764	6.762	6.589	5.599	4.950	5.077	10.34	42.08	124.4	309.5	 1734	 3280	201.8	9.629	1.690	1.148	1.076	0.855	0.722	0.612	0.565	0.500	0.564	0.459
545.0	53.45	68.16	66.16	65.37	73.08	91.37	88.37	80.57	121.5	969.3	 3458	987.7	68.27	56.55	50.24	44.16	40.30	37.93	36.52	36.41	35.57	35.19	34.86	35.32	35.85	36.05	36.25	36.03	36.94	37.34	36.62	35.49	33.22	31.25	29.75	27.78	26.14	23.91	22.92	21.76	20.22	19.36	17.25	16.76	15.32	14.63	13.93	14.28	13.79	11.43	9.706	8.410	7.805	7.160	6.292	6.378	5.348	4.282	4.080	4.800	11.51	30.10	71.39	438.5	 2208	 2697	173.5	3.833	1.369	0.973	0.853	0.764	0.629	0.546	0.437	0.522	0.562
550.0	54.63	66.92	62.13	56.05	58.76	71.53	83.34	74.41	78.05	300.4	 2021	 2618	327.7	49.96	43.81	37.22	34.64	32.64	31.42	31.20	29.84	30.27	29.83	30.48	30.93	30.92	30.73	31.15	31.80	32.05	31.40	30.34	28.16	26.67	25.39	23.70	22.58	21.10	19.82	18.82	17.68	16.60	15.54	14.78	13.73	12.73	12.03	11.75	11.91	11.03	9.300	7.906	6.994	6.406	5.852	5.470	4.722	4.041	3.613	3.549	4.683	8.718	17.94	99.85	556.8	 1698	 1894	690.4	11.05	1.343	0.938	0.822	0.696	0.573	0.502	0.482	0.481
555.0	50.62	63.52	58.62	49.58	49.05	53.63	69.84	70.90	61.29	111.3	628.9	 2506	 1592	53.01	36.47	32.10	28.65	27.50	26.67	25.68	25.12	25.76	25.06	25.37	25.64	25.25	25.51	25.62	26.20	26.51	25.85	25.58	23.41	22.68	20.98	20.02	18.89	17.88	16.74	15.84	15.30	14.18	13.08	12.66	11.73	11.02	10.54	9.792	9.662	9.951	9.167	7.260	6.221	5.767	5.023	4.601	4.201	3.806	3.414	3.017	2.851	3.675	5.750	23.85	125.5	383.2	851.6	 2380	 1005	14.20	1.269	0.821	0.722	0.632	0.555	0.466	0.406
560.0	50.55	62.17	52.25	44.21	41.54	44.60	55.60	66.74	58.69	65.68	190.2	 1494	 2612	114.7	32.95	27.82	25.47	23.15	23.34	22.14	21.80	21.88	21.58	21.96	21.95	21.62	21.69	21.79	22.19	23.40	22.22	21.70	20.20	18.83	18.29	17.17	15.91	15.60	14.79	13.95	13.11	12.31	11.33	11.10	10.26	9.674	9.018	8.549	8.101	7.996	8.175	7.220	5.746	5.019	4.596	4.141	3.805	3.336	2.962	2.629	2.338	2.501	3.051	6.866	29.53	87.01	201.8	 1203	 2337	203.9	7.406	0.906	0.697	0.582	0.436	0.465	0.411
565.0	54.52	59.67	48.63	38.99	37.67	37.21	44.56	60.63	57.19	50.99	79.34	618.1	 2570	815.3	30.23	24.78	21.82	20.73	20.47	19.24	18.14	18.99	18.72	18.64	18.89	19.06	18.87	18.21	19.35	19.57	19.46	18.52	17.15	15.91	15.27	15.14	13.94	13.33	12.52	12.13	11.38	10.96	10.00	9.765	8.908	8.620	8.090	7.654	6.840	6.682	6.906	6.973	5.300	4.522	4.185	3.710	3.463	3.054	2.744	2.453	2.145	2.161	2.098	2.862	7.932	20.79	46.56	299.0	 1488	 1649	160.8	2.585	0.851	0.617	0.474	0.432	0.406
570.0	51.74	53.60	44.87	33.41	31.16	31.43	35.44	46.93	53.79	45.34	50.75	184.4	 1330	 2181	301.5	20.66	18.20	16.91	16.11	15.27	14.90	15.06	14.92	15.04	14.89	15.16	15.07	15.04	15.60	15.56	15.25	14.71	13.69	12.97	12.21	12.22	11.25	10.58	10.08	9.653	9.343	8.662	8.239	7.924	7.357	7.118	6.537	6.220	5.595	5.173	5.260	5.639	4.925	4.131	3.544	3.202	2.822	2.596	2.289	2.144	1.906	1.919	1.657	1.800	2.903	5.820	11.57	67.92	369.4	 1027	 1329	470.4	9.619	0.796	0.577	0.417	0.389
575.0	56.48	55.97	47.57	28.72	27.84	26.28	29.08	35.53	51.05	46.59	42.66	72.83	390.7	 1773	 1501	30.73	14.45	13.73	13.10	12.25	11.54	11.77	11.49	12.13	11.37	11.91	11.38	11.69	11.86	11.99	12.02	11.36	10.63	9.941	9.483	9.281	8.660	8.046	7.685	7.435	7.219	7.006	6.504	6.100	5.980	5.490	5.299	5.100	4.562	4.222	4.121	4.091	4.239	3.677	3.002	2.743	2.308	2.224	1.833	1.792	1.537	1.583	1.359	1.412	1.595	2.309	3.588	16.13	83.17	231.5	525.1	 1325	214.5	11.99	0.646	0.450	0.392
580.0	51.67	55.95	44.45	27.99	24.22	21.91	24.66	29.17	45.34	49.09	41.40	47.72	119.6	942.6	 2233	84.40	12.82	12.02	10.96	10.45	9.798	9.764	9.940	10.12	9.314	9.754	9.400	9.549	9.681	10.33	9.728	9.016	8.676	8.375	7.819	7.689	7.344	6.790	6.488	6.053	5.852	5.768	5.412	5.231	4.949	4.792	4.415	4.132	3.763	3.477	3.346	3.059	3.364	3.387	2.783	2.442	1.979	1.877	1.651	1.552	1.337	1.420	1.386	1.296	1.347	1.434	1.623	4.508	19.31	52.49	122.6	641.9	 1167	186.6	4.542	0.584	0.400
585.0	53.52	48.16	45.14	26.85	20.37	19.96	21.94	27.22	38.05	51.71	45.44	41.50	54.95	371.8	 1934	631.5	13.19	9.747	9.445	8.557	8.568	8.366	8.110	8.487	7.874	8.074	8.129	8.039	8.117	8.190	8.325	7.839	7.343	7.054	6.435	6.262	6.208	5.720	5.472	5.308	4.970	4.887	4.523	4.184	4.041	4.173	3.828	3.624	3.229	3.077	2.868	2.698	2.654	2.803	2.738	2.240	1.885	1.676	1.539	1.363	1.205	1.282	1.311	1.265	1.172	1.121	1.198	1.793	5.114	12.42	28.21	158.3	748.7	972.4	28.40	1.445	0.454
590.0	49.88	54.63	45.90	25.36	18.94	17.90	20.57	24.65	32.14	47.16	51.12	42.30	40.79	111.6	881.8	 1779	251.6	8.864	7.906	7.531	7.128	6.735	6.429	6.969	6.830	6.705	6.711	6.689	6.314	6.840	6.563	6.340	5.879	5.422	5.172	5.035	4.970	4.693	4.559	4.293	4.156	3.907	3.749	3.491	3.408	3.380	3.155	2.973	2.754	2.520	2.284	2.075	2.141	2.125	2.308	2.198	1.720	1.443	1.334	1.189	1.040	1.077	1.047	1.051	1.098	0.996	0.988	1.114	1.818	3.423	6.860	35.97	184.7	541.3	716.0	273.5	8.834
595.0	49.26	54.71	45.58	25.69	17.91	15.78	17.71	21.67	28.01	38.75	56.36	45.30	38.69	46.11	243.3	 1252	 1367	20.16	7.223	6.119	5.863	5.583	5.516	5.359	5.399	5.592	5.326	5.395	5.089	5.463	5.087	4.716	4.561	4.479	4.232	4.182	3.966	3.750	3.430	3.476	3.184	3.213	2.832	2.785	2.786	2.764	2.447	2.262	2.216	2.051	1.825	1.687	1.622	1.573	1.721	1.762	1.555	1.290	1.032	1.065	0.999	0.994	0.858	0.869	1.022	0.965	0.948	0.732	0.960	1.306	2.026	8.482	41.62	121.8	273.9	723.5	211.8
600.0	48.49	59.02	46.57	25.80	17.12	15.59	18.23	22.15	27.21	37.17	54.13	51.03	39.39	32.89	68.81	596.6	 1909	66.37	6.743	5.703	5.394	4.923	4.857	4.870	4.428	4.773	4.434	4.286	4.403	4.426	4.358	4.070	3.898	3.763	3.658	3.599	3.436	3.078	3.169	2.870	2.644	2.716	2.510	2.390	2.394	2.353	2.210	1.956	1.859	1.767	1.693	1.528	1.399	1.220	1.351	1.513	1.453	1.371	1.005	1.015	0.885	0.857	0.810	0.829	0.948	0.941	0.835	0.613	0.804	0.770	1.011	2.381	9.785	27.58	63.66	333.2	668.6
605.0	47.69	53.42	41.70	26.13	17.17	15.83	16.10	21.84	27.13	34.52	51.30	56.05	39.97	30.06	30.09	213.0	 1515	848.6	7.844	5.414	4.820	4.312	4.356	4.191	3.956	3.965	3.735	3.661	4.083	3.857	3.911	3.497	3.719	3.390	3.102	3.103	2.913	2.798	2.599	2.526	2.327	2.411	2.058	2.047	2.080	2.003	2.094	1.744	1.662	1.554	1.452	1.274	1.234	1.202	1.137	1.286	1.419	1.299	1.069	0.917	0.840	0.755	0.738	0.783	0.776	0.813	0.775	0.627	0.725	0.632	0.653	0.945	2.543	6.502	14.69	81.04	401.4
610.0	44.32	53.54	41.10	24.95	15.89	15.48	16.32	19.52	26.24	34.38	47.38	57.30	43.59	30.04	20.89	58.47	625.0	 1494	214.4	4.989	4.396	3.988	3.730	3.649	3.409	3.420	3.431	3.175	3.200	3.241	3.174	3.104	3.083	2.705	2.654	2.637	2.455	2.384	2.195	1.989	1.881	1.940	1.794	1.754	1.810	1.746	1.649	1.576	1.418	1.280	1.184	1.086	1.001	0.983	0.949	0.950	1.096	1.168	1.022	0.806	0.684	0.676	0.704	0.687	0.688	0.766	0.694	0.699	0.663	0.609	0.543	0.653	0.946	1.731	3.592	18.38	97.96
615.0	41.93	51.92	41.86	23.49	15.92	15.18	16.57	19.38	26.53	33.54	44.63	51.36	48.40	30.97	20.37	22.37	161.7	929.4	 1153	18.85	4.048	3.365	3.404	3.102	3.144	2.902	2.933	2.707	2.694	2.694	2.801	2.640	2.577	2.140	2.204	2.388	2.104	1.847	1.832	1.720	1.646	1.603	1.479	1.470	1.399	1.453	1.532	1.286	1.193	1.086	1.014	0.955	0.883	0.771	0.765	0.787	0.801	0.879	0.969	0.793	0.644	0.628	0.589	0.606	0.627	0.601	0.573	0.714	0.740	0.557	0.507	0.454	0.522	0.721	1.090	4.345	22.04
620.0	41.64	50.79	37.65	21.56	15.48	14.28	15.61	19.94	25.79	33.33	41.53	51.22	50.28	33.58	19.55	14.10	42.36	399.8	 1535	224.4	4.153	3.270	2.905	2.708	2.747	2.531	2.647	2.485	2.344	2.520	2.215	2.320	2.073	1.953	2.035	1.950	1.940	1.738	1.630	1.449	1.423	1.267	1.341	1.213	1.177	1.224	1.315	1.198	1.001	0.907	0.830	0.839	0.673	0.680	0.636	0.717	0.697	0.749	0.796	0.697	0.647	0.601	0.552	0.683	0.586	0.560	0.540	0.569	0.629	0.606	0.452	0.398	0.381	0.475	0.514	1.224	5.129
625.0	43.16	49.07	38.58	25.03	16.20	15.02	16.78	20.05	26.13	33.39	40.89	46.81	49.31	36.60	20.45	12.78	14.91	132.4	 1150	835.6	5.681	3.217	2.752	2.548	2.432	2.246	2.434	2.359	2.127	2.153	2.034	2.095	1.786	1.790	1.813	1.714	1.731	1.594	1.544	1.355	1.291	1.170	1.149	1.151	1.074	1.078	1.086	1.081	0.909	0.829	0.763	0.818	0.615	0.669	0.626	0.600	0.582	0.649	0.677	0.691	0.675	0.606	0.594	0.532	0.591	0.557	0.503	0.534	0.502	0.635	0.450	0.433	0.326	0.341	0.389	0.491	1.374
630.0	44.54	46.21	40.20	24.21	15.16	15.10	16.52	19.87	26.33	33.66	41.87	45.40	46.79	40.47	22.98	13.21	9.264	35.31	436.2	 1272	194.4	3.167	2.632	2.386	2.154	2.114	2.099	1.975	1.649	1.781	1.710	1.800	1.495	1.527	1.560	1.424	1.518	1.308	1.215	1.133	1.223	1.043	0.946	1.022	0.952	0.964	0.970	0.937	0.833	0.763	0.698	0.646	0.560	0.565	0.570	0.508	0.518	0.547	0.512	0.544	0.620	0.627	0.515	0.461	0.481	0.475	0.525	0.445	0.452	0.527	0.487	0.400	0.325	0.326	0.281	0.323	0.495
635.0	41.38	47.46	38.94	23.18	13.96	14.41	16.83	21.21	26.77	32.32	40.99	44.83	44.48	40.03	26.82	12.94	8.187	12.33	108.5	705.1	 1025	16.33	2.761	2.200	2.229	1.926	1.838	1.660	1.670	1.673	1.562	1.406	1.346	1.319	1.340	1.336	1.231	1.023	0.986	1.012	1.040	1.040	0.831	0.894	0.767	0.834	0.832	0.848	0.632	0.696	0.561	0.605	0.538	0.470	0.549	0.497	0.460	0.415	0.497	0.484	0.527	0.562	0.488	0.504	0.452	0.508	0.525	0.467	0.501	0.426	0.479	0.434	0.338	0.277	0.243	0.215	0.246
640.0	42.44	48.89	39.89	22.33	15.69	13.18	16.47	20.28	25.59	31.73	42.46	45.90	44.33	39.33	30.21	14.63	8.212	7.008	28.31	271.7	 1305	199.4	2.632	2.260	2.001	1.943	1.578	1.693	1.674	1.412	1.447	1.281	1.352	1.033	1.311	1.003	1.121	0.973	0.886	0.958	0.832	0.947	0.885	0.787	0.686	0.799	0.790	0.765	0.589	0.629	0.544	0.555	0.498	0.412	0.453	0.420	0.394	0.412	0.445	0.424	0.461	0.506	0.530	0.447	0.436	0.431	0.420	0.431	0.453	0.450	0.411	0.479	0.348	0.317	0.248	0.212	0.168
645.0	45.26	51.79	41.27	23.04	17.01	14.20	15.46	20.10	25.26	32.13	42.63	48.16	44.93	38.75	32.19	16.35	8.147	5.974	10.19	81.74	927.0	719.2	4.769	2.550	1.967	1.902	1.517	1.653	1.457	1.427	1.283	1.345	1.177	1.139	1.255	1.008	0.988	0.986	0.801	0.906	0.787	0.841	0.968	0.749	0.659	0.726	0.679	0.730	0.588	0.574	0.498	0.470	0.399	0.402	0.436	0.345	0.390	0.401	0.416	0.375	0.379	0.399	0.513	0.466	0.423	0.390	0.485	0.479	0.418	0.407	0.338	0.428	0.348	0.286	0.207	0.174	0.179
650.0	45.64	50.26	41.09	22.49	14.54	15.40	16.39	20.12	26.59	33.77	41.94	45.69	43.97	37.48	30.83	18.40	8.677	5.851	5.653	22.30	408.2	 1140	35.65	2.621	1.889	1.803	1.404	1.564	1.491	1.437	1.234	1.112	1.105	1.061	1.116	0.918	0.947	0.898	0.724	0.810	0.713	0.781	0.812	0.768	0.657	0.650	0.699	0.612	0.606	0.584	0.467	0.463	0.418	0.385	0.361	0.449	0.356	0.364	0.362	0.382	0.378	0.385	0.434	0.456	0.388	0.377	0.411	0.388	0.350	0.360	0.334	0.402	0.345	0.350	0.261	0.201	0.189
