Sample:	'1
File name:	T2025032007º«µêºÓ7.FD3
Run date:	'10:04:11, 03/21/2025
Operator:	Administrator
Comment:	'

Instrument
Model:	F-2700 FL Spectrophotometer
Serial number:	23B8-004
ROM Version:	4J14000 07

Instrument parameters
Measurement type:	3-D scan
Data mode:	Fluorescence
EX  Start WL:	220.0 nm
EX  End WL:	600.0 nm
EX Sampling interval:	5.0 nm
EM  Start WL:	230.0 nm
EM  End WL:	650.0 nm
EM Sampling interval:	5.0 nm
Scan speed:	12000 nm/min
EX Slit:	5.0 nm
EM Slit:	5.0 nm
PMT Voltage:	700 V
Response:	Auto 
Corrected spectra:	Off
Contour interval:	50.000

Peak integration
Integration method:	Rectangular
Sensitivity:	1
Threshold:	1.000

Peaks
No.	ApexEX/EM(nm)	Height(Data)
1	225.0/615.0	38.28
2	225.0/640.0	42.55
3	230.0/340.0	1369
4	230.0/500.0	238.6
5	230.0/570.0	33.11
6	230.0/635.0	41.12
7	235.0/510.0	227.2
8	240.0/265.0	407.8
9	240.0/525.0	213.4
10	245.0/270.0	413.6
11	245.0/535.0	187.3
12	250.0/275.0	529.5
13	250.0/440.0	519.7
14	250.0/550.0	153.6
15	255.0/280.0	609.3
16	255.0/560.0	137.0
17	260.0/290.0	570.3
18	260.0/575.0	115.3
19	265.0/585.0	101.4
20	270.0/600.0	92.38
21	275.0/615.0	117.8
22	280.0/315.0	1687
23	280.0/385.0	601.5
24	280.0/625.0	104.5
25	285.0/320.0	1652
26	285.0/635.0	85.18
27	315.0/355.0	358.1
28	320.0/360.0	334.7
29	325.0/370.0	297.7
30	330.0/375.0	299.8
31	335.0/380.0	324.4
32	345.0/395.0	275.0
33	350.0/400.0	306.8
34	355.0/405.0	298.7
35	365.0/420.0	210.5
36	370.0/405.0	179.9
37	370.0/425.0	197.5
38	395.0/460.0	78.71
39	410.0/480.0	45.18
40	415.0/485.0	40.49
41	430.0/505.0	25.42
42	455.0/540.0	11.22
43	475.0/340.0	4.394
44	485.0/265.0	2.199
45	495.0/270.0	2.157
46	505.0/275.0	3.318
47	510.0/280.0	3.772
48	520.0/285.0	3.848
49	530.0/290.0	3.521
50	555.0/305.0	8.080
51	560.0/310.0	8.823
52	570.0/315.0	9.038
53	580.0/320.0	8.933
54	585.0/325.0	8.820

Data points
	220.0	225.0	230.0	235.0	240.0	245.0	250.0	255.0	260.0	265.0	270.0	275.0	280.0	285.0	290.0	295.0	300.0	305.0	310.0	315.0	320.0	325.0	330.0	335.0	340.0	345.0	350.0	355.0	360.0	365.0	370.0	375.0	380.0	385.0	390.0	395.0	400.0	405.0	410.0	415.0	420.0	425.0	430.0	435.0	440.0	445.0	450.0	455.0	460.0	465.0	470.0	475.0	480.0	485.0	490.0	495.0	500.0	505.0	510.0	515.0	520.0	525.0	530.0	535.0	540.0	545.0	550.0	555.0	560.0	565.0	570.0	575.0	580.0	585.0	590.0	595.0	600.0
230.0	29.20	548.2	1268	395.8	16.23	4.057	3.312	2.920	2.439	2.204	2.212	1.938	1.678	1.552	1.225	1.138	0.809	0.766	0.649	0.567	0.613	0.585	0.489	0.477	0.413	0.407	0.344	0.343	0.387	0.348	0.321	0.297	0.272	0.280	0.234	0.223	0.218	0.180	0.180	0.192	0.230	0.251	0.258	0.197	0.155	0.185	0.683	2.535	4.332	3.163	1.142	0.270	0.127	0.122	0.131	0.132	0.126	0.140	0.139	0.135	0.134	0.118	0.127	0.124	0.138	0.132	0.133	0.144	0.147	0.122	0.123	0.130	0.154	0.171	0.138	0.141	0.153
235.0	66.19	164.5	979.9	1678	439.0	25.90	4.429	3.533	2.948	2.413	2.216	1.932	1.953	1.602	1.594	1.108	0.953	0.739	0.698	0.576	0.665	0.508	0.494	0.359	0.426	0.421	0.331	0.408	0.337	0.375	0.355	0.289	0.241	0.266	0.194	0.232	0.201	0.258	0.206	0.167	0.179	0.197	0.263	0.337	0.319	0.226	0.285	0.751	1.947	3.606	5.503	5.786	2.513	0.544	0.156	0.143	0.126	0.140	0.141	0.131	0.113	0.128	0.120	0.142	0.142	0.124	0.131	0.123	0.121	0.135	0.131	0.123	0.130	0.125	0.201	0.133	0.135
240.0	116.5	112.4	320.0	1636	1934	356.9	13.81	3.989	3.454	2.848	2.682	2.140	1.885	1.751	1.624	1.169	1.025	0.962	0.752	0.642	0.623	0.462	0.526	0.417	0.431	0.403	0.336	0.510	0.293	0.333	0.314	0.312	0.288	0.244	0.214	0.190	0.209	0.211	0.252	0.176	0.213	0.198	0.204	0.273	0.423	0.439	0.353	0.337	0.632	1.232	3.181	7.727	9.515	6.464	2.145	0.308	0.172	0.139	0.135	0.149	0.120	0.130	0.149	0.133	0.152	0.150	0.135	0.137	0.133	0.136	0.124	0.155	0.137	0.179	0.159	0.173	0.131
245.0	99.05	176.0	131.4	588.1	2289	2150	249.7	7.797	3.980	3.505	2.721	2.633	1.951	1.694	1.610	1.442	1.142	0.938	1.040	0.678	0.601	0.560	0.572	0.499	0.424	0.397	0.370	0.423	0.307	0.404	0.340	0.272	0.262	0.260	0.256	0.179	0.192	0.265	0.253	0.199	0.223	0.223	0.212	0.231	0.315	0.520	0.679	0.607	0.318	0.415	0.849	2.896	7.051	11.80	10.93	5.944	1.441	0.246	0.172	0.162	0.179	0.158	0.180	0.155	0.127	0.135	0.130	0.129	0.142	0.155	0.134	0.127	0.148	0.134	0.153	0.234	0.117
250.0	40.22	141.7	234.7	217.9	776.3	2406	2611	867.3	44.48	4.632	3.361	2.801	2.687	2.017	1.816	1.524	1.262	0.979	0.921	0.730	0.627	0.534	0.523	0.487	0.427	0.484	0.394	0.380	0.416	0.339	0.371	0.327	0.316	0.294	0.257	0.210	0.198	0.241	0.203	0.193	0.173	0.224	0.211	0.185	0.209	0.281	0.426	0.707	0.830	0.743	0.548	0.851	1.850	3.879	7.327	11.03	13.85	12.10	6.338	1.709	0.252	0.182	0.163	0.154	0.161	0.142	0.147	0.140	0.130	0.175	0.170	0.133	0.156	0.185	0.137	0.160	0.167
255.0	24.14	46.84	182.4	329.3	263.4	626.6	2188	4096	1189	37.67	4.541	3.669	3.533	3.038	1.708	1.604	1.194	1.170	0.790	0.756	0.619	0.683	0.656	0.568	0.438	0.447	0.532	0.468	0.414	0.404	0.397	0.360	0.343	0.340	0.235	0.279	0.217	0.231	0.209	0.221	0.247	0.221	0.195	0.221	0.233	0.235	0.215	0.301	0.403	0.947	1.270	1.209	0.786	1.034	1.819	2.746	5.200	12.89	21.66	20.78	9.380	1.663	0.217	0.169	0.186	0.154	0.178	0.168	0.146	0.175	0.144	0.115	0.132	0.160	0.181	0.132	0.165
260.0	20.48	23.15	70.75	291.2	323.9	194.3	674.8	3491	4405	245.5	19.10	6.139	4.355	3.219	1.943	1.667	1.299	1.265	0.956	0.837	0.784	0.631	0.653	0.592	0.460	0.499	0.526	0.472	0.377	0.397	0.458	0.280	0.372	0.324	0.284	0.277	0.244	0.259	0.227	0.181	0.265	0.246	0.240	0.213	0.169	0.234	0.176	0.210	0.274	0.419	0.872	1.631	1.545	0.925	0.659	0.792	1.389	3.544	9.443	20.97	27.90	20.30	6.792	0.894	0.186	0.169	0.157	0.175	0.173	0.177	0.158	0.155	0.149	0.155	0.180	0.147	0.153
265.0	21.24	19.87	26.52	141.1	407.8	242.6	188.4	1199	4790	4157	190.6	10.27	5.339	3.766	2.542	2.042	1.681	1.273	1.138	0.997	0.857	0.701	0.648	0.640	0.545	0.500	0.424	0.538	0.416	0.434	0.337	0.352	0.406	0.342	0.330	0.267	0.254	0.228	0.217	0.223	0.284	0.235	0.223	0.226	0.219	0.205	0.203	0.188	0.206	0.192	0.324	0.829	1.710	2.199	1.437	0.630	0.487	1.018	2.466	6.294	15.37	28.15	29.82	17.54	3.988	0.355	0.206	0.178	0.227	0.194	0.172	0.163	0.201	0.150	0.156	0.154	0.153
270.0	29.75	22.57	22.30	47.75	201.8	413.6	279.9	319.1	1531	4312	4150	754.4	39.24	5.412	3.510	2.601	2.083	1.452	1.271	1.073	0.827	0.801	0.657	0.710	0.682	0.611	0.452	0.573	0.437	0.485	0.443	0.409	0.468	0.354	0.330	0.332	0.324	0.272	0.266	0.209	0.237	0.208	0.261	0.258	0.206	0.225	0.217	0.225	0.186	0.197	0.221	0.363	0.633	1.166	1.843	2.157	1.846	1.044	0.919	1.690	3.796	8.188	15.11	24.26	27.20	25.27	12.70	3.638	0.503	0.219	0.196	0.191	0.210	0.189	0.150	0.155	0.186
275.0	61.08	55.40	43.25	37.02	70.38	196.1	529.5	323.8	390.4	1086	3468	7224	1039	35.71	5.444	3.816	2.710	1.851	1.609	1.327	0.932	0.823	0.741	0.742	0.613	0.561	0.666	0.549	0.393	0.501	0.508	0.512	0.454	0.391	0.405	0.420	0.309	0.339	0.289	0.261	0.232	0.249	0.321	0.318	0.314	0.299	0.333	0.240	0.276	0.244	0.218	0.234	0.309	0.441	0.691	1.081	2.333	3.318	2.422	1.052	1.143	2.154	3.696	5.855	8.210	18.53	36.44	31.36	19.62	3.800	0.365	0.278	0.271	0.192	0.145	0.188	0.157
280.0	97.77	97.45	67.56	46.79	44.66	82.66	339.0	609.3	252.2	307.3	1016	5425	6856	717.6	17.13	5.096	3.395	2.566	1.878	1.435	1.155	1.051	0.829	0.903	0.678	0.730	0.697	0.574	0.510	0.536	0.411	0.477	0.458	0.456	0.460	0.459	0.465	0.400	0.372	0.303	0.292	0.297	0.401	0.360	0.407	0.401	0.429	0.407	0.364	0.301	0.267	0.239	0.265	0.305	0.394	0.465	0.985	2.233	3.772	3.128	1.457	0.974	1.248	1.699	2.248	4.826	12.40	26.75	43.49	29.67	14.41	1.893	0.325	0.217	0.205	0.252	0.215
285.0	135.6	149.9	107.4	64.18	46.34	58.61	144.1	535.1	546.8	192.1	319.4	1634	6560	5716	114.3	8.417	4.591	3.208	2.303	1.791	1.535	1.296	0.990	0.936	0.794	0.643	0.704	0.669	0.544	0.447	0.407	0.468	0.565	0.545	0.521	0.495	0.500	0.415	0.451	0.393	0.312	0.357	0.438	0.428	0.425	0.450	0.419	0.477	0.418	0.372	0.356	0.336	0.321	0.307	0.370	0.376	0.448	0.896	1.881	3.443	3.848	2.071	1.010	0.930	1.005	1.669	3.333	7.050	17.02	34.09	46.87	25.83	8.290	0.805	0.255	0.255	0.198
290.0	180.8	195.6	166.5	99.49	66.63	63.09	89.09	232.4	570.3	517.4	238.7	490.9	1890	4888	5207	444.0	27.69	4.988	2.824	2.175	1.638	1.307	1.176	1.027	0.768	0.760	0.774	0.672	0.583	0.514	0.457	0.485	0.533	0.611	0.528	0.572	0.492	0.503	0.499	0.436	0.409	0.462	0.437	0.453	0.533	0.584	0.557	0.589	0.616	0.490	0.433	0.447	0.436	0.382	0.311	0.371	0.464	0.586	0.822	1.377	2.281	3.188	3.521	2.585	1.527	1.104	1.364	2.304	4.457	9.019	17.26	25.92	28.20	31.03	17.01	7.229	1.066
295.0	217.7	246.2	224.7	146.9	104.2	90.53	108.8	158.5	288.9	660.9	718.1	294.9	566.3	1228	3092	6259	652.6	30.29	4.969	2.882	2.362	1.670	1.357	1.222	0.873	0.790	0.800	0.741	0.632	0.551	0.644	0.570	0.466	0.506	0.643	0.659	0.571	0.470	0.591	0.490	0.423	0.446	0.493	0.495	0.642	0.695	0.760	0.864	0.762	0.659	0.559	0.583	0.504	0.515	0.486	0.499	0.519	0.624	0.772	0.943	1.107	1.416	2.231	3.675	4.847	3.165	1.668	1.524	1.770	2.957	4.507	6.476	7.499	14.59	30.28	45.51	26.63
300.0	254.8	321.1	294.4	221.4	163.7	158.8	203.0	247.6	310.5	570.6	1105	760.2	486.7	529.0	971.8	4281	5489	503.0	17.02	4.243	3.226	2.183	1.674	1.273	1.293	1.082	0.863	0.828	0.717	0.625	0.658	0.605	0.496	0.598	0.705	0.691	0.611	0.570	0.508	0.448	0.474	0.507	0.482	0.631	0.668	0.817	0.913	1.009	0.960	0.869	0.799	0.674	0.698	0.643	0.768	0.684	0.819	0.935	1.285	1.292	1.407	1.672	2.089	2.835	4.421	5.793	5.149	3.101	2.538	2.525	2.598	2.789	3.171	4.588	9.388	23.14	40.56
305.0	330.3	423.8	423.9	332.7	265.5	288.8	382.8	487.8	621.7	848.1	1286	1575	1001	714.8	712.3	1500	5192	4588	76.38	8.459	3.760	2.606	2.033	1.902	1.369	1.165	1.077	0.777	0.900	0.845	0.769	0.585	0.684	0.695	0.725	0.727	0.758	0.665	0.550	0.492	0.544	0.664	0.552	0.782	0.905	1.059	1.202	1.295	1.385	1.223	1.170	1.083	1.209	1.077	1.341	1.214	1.528	1.811	2.072	2.308	2.482	2.768	3.491	4.094	4.752	6.043	7.551	8.080	6.307	4.675	3.957	3.617	3.767	4.042	4.771	7.626	14.79
310.0	411.8	554.4	613.3	477.6	397.8	408.6	530.2	674.7	813.9	1049	1308	1666	1684	1086	835.9	824.9	1834	3900	4119	1120	20.95	3.953	2.753	1.962	1.572	1.356	1.138	1.005	0.886	0.785	0.778	0.703	0.688	0.631	0.734	0.724	0.701	0.710	0.665	0.640	0.654	0.705	0.694	0.819	1.013	1.206	1.470	1.634	1.921	1.741	1.473	1.658	1.520	1.508	1.670	1.716	2.178	2.639	2.815	3.203	3.386	3.755	4.506	4.827	5.288	6.080	6.777	8.013	8.823	8.311	6.896	5.461	4.921	4.892	4.473	4.688	5.891
315.0	489.7	723.5	781.5	617.7	502.3	507.1	636.2	770.3	897.3	1135	1354	1556	1687	1624	1042	750.1	921.6	1182	2345	5073	493.6	19.73	3.715	2.661	1.977	1.533	1.370	1.247	0.893	1.018	0.820	0.690	0.701	0.827	0.642	0.694	0.709	0.798	0.782	0.743	0.714	0.703	0.775	0.905	1.209	1.532	1.866	2.137	2.423	2.177	1.886	2.177	1.905	2.025	2.217	2.047	2.546	3.031	3.352	3.507	3.794	4.277	4.664	5.233	5.760	6.248	6.659	7.157	7.791	8.221	9.038	8.500	7.091	5.650	4.770	4.278	4.472
320.0	549.0	862.5	917.6	717.9	574.6	551.4	674.2	816.4	944.6	1147	1365	1565	1573	1652	1359	794.3	740.5	575.5	665.8	3223	4073	388.2	9.131	3.603	2.631	1.953	1.521	1.165	1.171	1.021	0.938	0.886	0.695	0.964	0.747	0.727	0.829	0.684	0.753	0.721	0.760	0.729	0.869	1.015	1.346	1.654	2.036	2.764	2.683	2.485	2.100	2.366	2.208	2.307	2.356	2.279	2.589	3.319	3.451	3.603	3.733	4.195	5.018	5.512	5.673	6.053	6.835	7.296	7.809	7.221	7.804	8.692	8.933	7.622	5.380	4.414	4.255
325.0	592.8	938.9	1005	824.8	614.1	553.6	655.5	792.3	877.9	1081	1283	1478	1448	1414	1439	915.9	671.9	432.4	243.5	915.0	3714	3433	58.02	5.944	3.325	2.164	1.735	1.420	1.262	1.193	1.034	0.875	0.804	0.836	0.846	0.773	0.808	0.763	0.782	0.733	0.661	0.764	0.912	1.057	1.410	1.808	2.256	2.985	3.134	2.751	2.500	2.585	2.364	2.107	2.228	2.284	2.691	3.018	3.584	3.719	3.641	4.146	4.559	5.106	5.324	5.684	6.380	6.830	7.089	6.913	7.077	7.405	8.005	8.820	7.271	5.063	4.205
330.0	612.9	1006	1226	1093	790.2	603.7	612.8	723.1	793.8	963.5	1157	1316	1311	1206	1149	1008	745.7	392.2	174.8	271.9	1050	2850	3256	904.3	16.71	3.214	2.264	1.629	1.405	1.223	1.054	0.946	0.911	0.816	0.744	0.777	0.775	0.719	0.730	0.741	0.744	0.745	0.910	1.045	1.453	1.836	2.417	3.237	3.493	3.356	3.170	3.557	3.002	2.715	2.476	2.215	2.461	2.734	3.124	3.308	3.412	3.729	4.134	4.542	4.963	5.304	5.737	6.184	6.511	6.183	6.399	6.228	6.238	6.619	6.201	6.181	5.286
335.0	599.1	1057	1348	1280	1002	659.6	565.4	650.5	699.7	850.7	1007	1143	1158	1058	928.3	801.4	850.2	476.3	184.5	151.2	298.0	705.0	1981	4114	406.4	15.96	3.284	2.019	1.645	1.712	1.187	0.977	0.895	0.811	0.843	0.781	0.696	0.670	0.683	0.651	0.770	0.797	0.920	1.073	1.333	1.897	2.404	3.427	3.802	3.802	3.836	4.360	3.801	3.533	2.770	2.336	2.275	2.616	2.863	3.015	3.127	3.259	3.605	4.109	4.351	4.557	5.039	5.210	5.703	5.735	5.779	5.338	5.278	5.353	4.794	4.702	4.835
340.0	598.2	1013	1369	1292	1039	663.3	531.2	585.2	628.0	746.1	881.8	1005	1025	938.8	816.7	655.7	697.2	594.3	231.9	135.7	143.2	215.0	546.0	2786	3318	322.9	7.110	2.702	1.976	1.701	1.360	1.112	0.885	0.835	0.747	0.726	0.702	0.713	0.692	0.625	0.681	0.712	0.768	1.007	1.390	1.862	2.452	3.083	3.690	3.964	3.883	4.394	3.956	3.553	2.834	2.207	2.263	2.372	2.545	2.572	2.899	2.880	3.199	3.572	3.566	3.917	4.504	4.878	5.074	5.145	5.112	4.626	4.896	4.516	4.121	3.644	3.822
345.0	541.9	968.8	1304	1297	1040	656.8	504.7	525.5	574.4	659.2	779.1	881.6	905.3	838.6	715.4	575.2	532.5	562.7	352.6	150.8	117.8	116.6	174.9	803.4	3202	2819	49.61	4.310	2.423	1.951	1.428	1.145	0.942	0.889	0.845	0.808	0.738	0.633	0.684	0.592	0.680	0.580	0.716	1.097	1.291	1.663	2.210	3.023	3.419	3.871	3.862	4.347	4.152	3.524	2.891	2.108	2.025	2.101	2.357	2.314	2.460	2.783	2.960	2.958	3.482	3.219	3.842	4.093	4.189	4.870	4.371	4.174	4.191	3.891	3.503	3.211	3.215
350.0	486.1	836.5	1197	1261	1066	670.4	480.9	486.2	515.3	592.5	676.6	757.2	765.9	723.4	626.4	508.3	440.1	400.1	400.7	276.8	142.1	110.4	107.1	223.2	924.1	2425	2542	218.1	13.48	2.407	1.699	1.326	1.042	0.912	0.827	0.774	0.719	0.620	0.687	0.542	0.629	0.629	0.683	0.859	1.221	1.641	1.899	2.890	3.176	3.541	3.755	4.388	4.047	3.827	2.898	2.228	2.023	1.989	2.212	2.212	2.239	2.385	2.638	2.882	2.964	3.122	3.372	3.512	3.552	3.718	3.728	3.916	3.633	3.567	3.213	2.897	2.905
355.0	433.9	720.3	1020	1155	1002	673.0	482.1	468.4	482.4	525.9	587.7	647.3	653.0	621.7	549.2	453.7	391.1	326.0	293.7	358.1	243.6	126.9	104.2	107.5	242.7	585.6	1671	3054	353.8	11.11	2.698	1.715	1.288	0.897	0.888	0.718	0.662	0.601	0.661	0.619	0.565	0.598	0.749	0.905	1.150	1.459	1.792	2.314	2.816	3.044	3.405	4.104	3.505	3.947	2.872	2.037	1.933	1.916	2.221	2.059	2.148	2.208	2.451	2.592	2.736	2.889	2.753	2.975	3.143	3.074	3.284	3.249	3.159	2.935	2.835	2.859	2.549
360.0	384.8	645.4	935.0	1062	946.4	653.5	473.7	460.4	469.3	501.9	541.2	587.5	591.3	560.9	494.9	421.7	367.2	299.8	254.1	293.1	334.7	181.4	117.0	90.72	100.9	163.6	457.9	2312	2756	263.5	5.220	2.290	1.443	1.159	0.949	0.804	0.739	0.690	0.640	0.695	0.581	0.535	0.669	0.818	1.037	1.354	1.624	2.017	2.733	2.598	3.043	3.740	3.518	3.496	2.782	2.123	1.993	2.063	1.985	2.035	2.159	1.975	2.270	2.395	2.474	2.673	2.657	2.728	2.766	2.738	2.745	2.935	2.926	2.778	2.681	2.657	2.530
365.0	346.7	569.6	850.2	980.3	906.5	647.8	471.2	457.4	452.1	489.0	517.8	537.1	543.5	514.4	461.0	396.7	351.1	296.3	249.3	240.9	314.5	275.6	143.3	99.18	79.59	78.16	132.2	696.2	2755	2254	44.32	4.003	2.183	1.388	1.119	0.856	0.723	0.732	0.681	0.627	0.599	0.604	0.610	0.712	1.009	1.152	1.420	2.035	2.437	2.469	2.876	3.467	3.188	3.484	2.812	2.225	1.925	1.934	2.091	2.149	2.113	2.056	1.910	2.363	2.351	2.399	2.453	2.522	2.518	2.784	2.661	2.766	2.454	2.750	2.563	2.533	2.392
370.0	320.6	535.2	775.6	901.2	860.8	643.0	480.3	452.5	450.1	480.4	498.4	510.5	514.0	489.2	434.8	377.8	339.9	297.1	255.8	233.9	245.5	297.7	246.0	137.0	97.45	78.61	81.33	195.6	829.0	2123	2158	192.9	14.07	3.002	1.494	1.015	0.826	0.787	0.683	0.611	0.558	0.610	0.688	0.797	0.882	1.013	1.284	1.859	2.102	2.259	2.576	3.162	3.009	3.415	2.693	2.104	1.925	2.004	1.833	2.062	2.049	2.132	2.101	2.261	2.277	2.268	2.311	2.393	2.417	2.494	2.527	2.508	2.377	2.525	2.404	2.297	2.402
375.0	301.1	467.6	715.1	827.7	852.7	672.2	500.6	463.0	470.5	491.9	509.8	518.8	553.2	494.3	412.0	367.2	334.7	300.8	270.6	244.0	231.8	244.9	299.8	250.6	145.5	117.1	123.2	142.2	252.4	559.2	1614	2537	293.3	13.13	2.580	1.462	1.018	0.856	0.758	0.625	0.526	0.662	0.638	0.723	0.849	1.034	1.282	1.751	1.926	2.073	2.411	2.856	3.056	3.442	2.769	2.321	2.030	2.022	1.951	2.146	2.161	2.282	2.275	2.152	2.286	2.395	2.337	2.306	2.408	2.785	2.814	2.422	2.266	2.162	2.144	2.091	2.250
380.0	304.7	457.4	669.2	820.3	851.8	690.1	526.9	475.0	475.3	508.7	533.5	530.2	591.9	509.3	404.1	360.4	331.7	306.1	278.4	258.4	241.2	232.3	270.6	324.4	214.0	154.7	166.5	169.4	153.8	214.9	548.2	2093	2125	207.4	4.870	1.800	1.218	1.005	0.760	0.661	0.565	0.678	0.678	0.602	0.785	1.016	1.119	1.730	1.971	1.917	2.261	2.926	3.096	3.233	2.999	2.405	2.046	2.201	2.211	2.210	2.028	2.070	2.214	2.333	2.373	2.620	2.696	2.387	2.619	3.138	3.348	2.658	2.299	2.067	2.277	2.092	2.289
385.0	277.8	447.8	637.6	789.4	835.9	692.7	533.8	490.0	485.8	505.8	537.2	531.2	601.5	522.0	393.1	355.1	324.4	303.5	282.3	265.5	253.3	238.6	246.0	310.6	295.2	193.9	196.5	193.8	148.4	149.8	260.4	745.3	2198	1596	34.42	2.963	1.661	1.013	0.829	0.789	0.758	0.568	0.650	0.784	0.828	1.097	1.095	1.551	1.784	1.856	2.152	2.826	2.921	3.183	2.637	2.245	2.106	2.336	2.125	2.076	2.182	2.139	2.211	2.321	2.403	2.679	2.585	2.400	2.530	3.102	3.140	2.808	2.269	2.183	2.177	2.068	2.228
390.0	258.3	407.3	582.1	712.8	760.0	654.2	522.3	481.9	471.9	481.6	511.0	500.8	550.2	481.9	379.4	340.3	320.4	301.2	284.5	268.8	257.4	241.7	237.3	253.5	285.9	257.2	207.3	185.8	138.7	128.3	171.6	270.3	680.6	1540	1439	148.6	7.788	1.549	1.076	0.880	0.793	0.704	0.727	0.675	0.786	0.929	1.060	1.398	1.624	1.800	1.879	2.414	2.649	3.024	2.596	2.332	2.289	2.182	2.168	1.934	2.118	2.132	2.171	2.267	2.233	2.459	2.369	2.336	2.407	2.750	2.852	2.441	2.115	2.108	2.120	2.036	2.062
395.0	249.4	398.8	540.6	661.0	721.2	633.3	522.6	486.5	467.7	473.4	495.1	479.6	520.4	461.9	364.8	327.5	312.6	301.1	280.5	271.7	260.8	245.1	241.0	239.9	237.7	275.0	269.1	201.4	145.3	128.3	156.5	163.4	197.3	383.2	1080	1685	226.8	5.615	1.411	0.976	0.862	0.728	0.782	0.679	0.773	0.994	0.981	1.369	1.413	1.599	1.839	2.290	2.635	2.716	2.561	2.324	2.246	2.118	2.157	1.922	2.207	1.963	2.074	2.255	2.447	2.299	2.164	2.291	2.258	2.652	2.817	2.271	2.100	1.862	1.997	2.181	2.045
400.0	250.7	374.3	526.3	634.7	679.5	619.3	519.2	485.2	464.8	468.2	491.6	480.3	517.7	451.2	358.4	325.2	310.9	293.4	281.1	271.3	264.7	251.2	247.1	244.8	231.1	245.0	306.8	249.4	165.6	145.7	167.8	155.2	96.03	109.1	304.1	1367	1431	35.85	2.730	1.201	1.026	0.836	0.754	0.712	0.856	0.973	1.073	1.265	1.421	1.655	1.833	2.338	2.450	2.508	2.540	2.124	2.313	2.108	2.190	2.066	2.024	2.051	2.028	2.170	2.276	2.447	2.005	2.100	2.246	2.639	2.661	2.195	2.168	2.005	1.895	1.950	1.822
405.0	244.8	364.1	502.0	620.5	654.6	606.4	523.4	484.3	471.1	469.7	487.9	476.4	513.2	444.3	354.3	317.2	303.3	290.1	277.7	267.8	265.6	252.3	251.3	249.3	235.9	228.0	290.3	298.7	187.6	157.8	179.9	159.6	79.86	50.81	84.07	420.7	1469	1074	29.03	1.852	1.215	0.885	0.742	0.856	0.746	0.962	0.978	1.285	1.549	1.547	1.630	2.172	2.280	2.443	2.366	2.254	2.359	2.017	2.124	1.966	2.075	2.186	2.218	2.057	2.252	2.306	2.163	1.873	2.135	2.492	2.660	2.167	1.998	2.055	1.825	1.870	1.914
410.0	231.1	332.7	469.0	575.1	622.9	582.9	507.9	477.3	466.8	453.3	461.3	446.3	470.4	411.7	338.6	303.3	290.0	280.4	272.2	258.9	254.1	245.6	243.1	242.0	226.3	215.8	236.7	268.2	227.2	165.1	162.2	141.2	73.69	42.36	38.32	107.8	437.0	1048	1023	134.5	6.493	1.067	0.910	0.818	0.775	0.919	0.948	1.247	1.457	1.446	1.494	1.972	2.079	2.214	2.329	2.135	2.281	2.078	1.996	2.031	2.069	2.068	2.081	2.054	2.197	2.248	2.137	2.032	2.150	2.321	2.450	2.146	2.043	2.009	1.743	1.832	1.846
415.0	203.9	321.5	434.4	523.4	562.2	546.3	501.8	485.3	454.3	438.9	437.6	414.4	419.1	376.0	317.4	289.9	278.3	267.6	261.3	247.4	244.2	236.5	232.2	230.7	214.7	203.6	209.7	210.2	216.0	197.7	155.0	123.7	70.57	44.03	32.36	41.00	109.8	256.3	744.4	1183	194.3	4.487	1.153	0.958	0.821	0.888	0.939	1.234	1.282	1.414	1.434	1.835	2.051	2.140	2.152	2.137	2.037	1.943	1.964	1.981	2.069	2.051	1.986	1.878	1.884	1.946	2.058	1.777	2.028	2.106	2.177	2.022	1.757	1.865	1.688	1.755	1.934
420.0	200.0	309.8	408.6	509.1	534.9	520.6	504.5	469.2	440.8	424.5	416.7	399.1	394.5	352.4	309.7	281.8	266.8	259.7	249.8	240.3	234.7	228.2	224.1	221.2	210.1	202.3	198.6	190.3	186.7	210.5	175.2	122.0	74.38	48.15	33.93	28.95	38.19	67.63	206.4	921.8	1029	32.74	2.180	1.114	1.055	0.898	0.895	1.117	1.237	1.357	1.477	1.811	1.975	1.996	2.024	1.999	2.140	1.954	1.956	1.937	2.074	2.037	2.013	1.819	1.929	1.760	1.816	1.945	2.042	2.073	1.974	1.840	1.752	1.836	1.768	1.784	1.818
425.0	193.2	291.7	396.8	484.9	522.8	516.8	493.2	474.0	443.0	421.9	408.3	386.2	382.2	342.9	298.7	272.0	259.2	250.5	240.1	234.2	228.3	220.6	217.3	216.9	205.5	195.6	196.0	186.6	169.4	188.9	197.5	135.4	79.12	53.02	37.83	28.94	25.03	26.64	54.85	280.5	1009	786.3	26.59	1.544	1.209	0.988	1.067	1.106	1.208	1.273	1.428	1.823	1.878	1.859	2.120	2.013	2.052	1.824	2.022	1.968	2.005	1.920	1.895	1.965	1.888	1.846	1.883	1.792	1.797	1.836	1.799	1.911	1.640	1.614	1.677	1.833	1.750
430.0	209.7	286.0	383.7	459.1	499.7	510.5	494.7	478.9	447.4	416.4	399.2	375.0	361.5	326.6	284.0	261.6	247.5	240.8	232.0	227.1	217.4	212.1	207.4	207.2	197.8	190.1	188.5	180.5	161.1	161.1	179.6	163.3	94.67	59.83	43.51	33.63	26.02	20.83	23.23	70.85	292.2	721.0	603.5	125.7	6.600	1.212	1.094	1.171	1.196	1.218	1.317	1.715	1.752	1.810	2.063	1.894	2.182	2.076	2.041	1.975	1.889	1.891	1.939	1.900	1.876	1.882	1.809	1.736	1.711	1.816	1.897	1.747	1.606	1.617	1.573	1.702	1.735
435.0	296.3	274.1	364.9	437.5	469.8	513.1	497.4	491.3	454.3	411.0	385.4	353.6	337.9	309.1	270.3	252.3	239.3	231.5	225.7	217.1	207.3	200.7	196.7	198.1	189.0	182.5	178.6	171.5	157.6	149.7	147.8	154.4	123.2	72.78	49.52	38.13	30.15	23.00	18.54	25.64	72.92	173.2	476.7	953.3	190.7	6.068	1.298	1.304	1.258	1.306	1.255	1.652	1.791	1.707	2.038	1.950	2.141	2.227	1.992	2.066	1.990	1.832	1.919	1.890	1.777	1.838	1.786	1.744	1.772	1.661	1.719	1.588	1.480	1.624	1.609	1.506	1.642
440.0	413.6	286.9	354.2	419.0	478.9	518.1	519.7	497.5	450.0	407.5	379.4	348.0	323.8	297.4	264.6	245.9	235.0	227.1	220.3	209.9	198.9	192.4	188.6	186.5	182.9	175.7	173.5	167.0	154.7	143.3	136.4	133.2	131.8	92.81	56.20	42.83	33.24	25.16	19.77	17.20	24.86	45.43	131.5	694.6	895.5	31.53	2.936	1.419	1.317	1.330	1.306	1.709	1.839	1.795	1.990	1.961	2.065	2.085	2.348	2.088	2.019	1.965	1.896	1.928	1.876	1.864	1.695	1.541	1.655	1.630	1.775	1.662	1.513	1.571	1.448	1.456	1.547
445.0	485.2	392.3	352.0	411.3	465.5	501.9	518.9	505.4	450.0	400.6	363.1	340.6	310.8	290.5	255.1	237.3	226.3	221.0	211.8	204.8	190.5	183.7	179.8	180.7	174.6	168.3	167.0	160.0	151.7	140.9	132.0	120.4	116.2	109.4	68.59	46.84	35.78	28.24	21.89	16.99	15.48	17.97	35.58	202.8	802.5	736.3	25.32	2.103	1.506	1.327	1.321	1.586	1.829	1.873	1.880	1.944	2.003	2.091	2.234	2.263	2.074	2.132	1.949	1.742	1.815	1.560	1.578	1.587	1.637	1.623	1.649	1.411	1.351	1.564	1.496	1.636	1.557
450.0	360.0	683.2	401.8	384.4	444.8	493.9	506.3	501.8	442.5	387.9	351.6	319.5	300.4	273.8	241.8	226.6	214.2	207.9	201.0	192.4	180.2	171.9	168.2	169.1	163.1	160.7	157.9	154.6	145.2	138.1	128.8	114.3	99.60	100.6	88.48	57.87	40.16	31.35	24.60	18.89	15.60	13.36	15.18	51.07	224.2	594.2	685.3	117.9	7.289	1.423	1.303	1.558	1.665	1.857	1.915	2.064	2.118	2.095	2.225	2.199	1.995	2.007	1.842	1.855	1.888	1.495	1.506	1.405	1.477	1.579	1.422	1.382	1.378	1.471	1.394	1.598	1.469
455.0	205.6	749.9	700.4	370.0	433.4	466.6	496.9	479.8	424.0	368.8	336.0	300.9	281.5	253.2	225.4	209.2	203.2	195.0	186.8	177.8	166.9	155.5	156.8	154.5	150.8	147.2	145.8	141.4	136.7	129.3	123.3	106.9	93.70	82.55	85.07	77.63	47.40	34.84	27.42	21.00	17.37	13.70	11.77	17.97	55.41	140.5	364.1	762.5	173.1	7.864	1.455	1.652	1.624	1.822	1.885	2.063	2.076	2.178	2.138	2.103	1.799	1.863	1.841	1.681	1.638	1.511	1.590	1.309	1.456	1.313	1.328	1.371	1.328	1.425	1.311	1.326	1.270
460.0	172.1	574.1	1113	424.0	409.7	443.9	476.7	468.4	409.7	354.2	315.7	285.6	266.2	240.1	214.9	197.0	192.5	183.2	173.4	167.7	153.1	146.1	144.4	143.4	141.2	137.3	138.7	133.9	129.7	124.7	117.0	103.6	87.99	75.66	72.22	78.71	59.16	37.14	28.16	22.52	18.90	14.92	11.59	11.49	18.56	36.34	92.68	463.3	707.7	133.6	4.231	1.832	1.607	1.675	1.730	2.039	2.067	2.051	2.080	2.008	1.822	1.901	1.767	1.542	1.468	1.430	1.408	1.350	1.350	1.246	1.167	1.270	1.244	1.256	1.263	1.246	1.273
465.0	148.8	343.4	1235	707.0	388.8	438.7	448.8	443.7	393.8	338.5	305.3	271.2	250.9	226.5	198.9	187.5	180.2	171.5	161.2	153.5	141.9	135.4	131.3	133.1	129.9	128.6	128.2	126.0	120.9	117.8	110.6	99.15	83.65	71.39	63.59	67.23	67.04	43.02	30.14	23.74	20.26	15.84	12.51	10.27	10.60	13.50	25.04	125.3	539.4	600.8	22.49	2.867	1.703	1.796	1.777	1.980	1.925	1.957	2.060	1.916	1.831	1.886	1.586	1.553	1.451	1.419	1.349	1.402	1.277	1.223	1.243	1.132	1.147	1.169	1.200	1.240	1.296
470.0	147.1	217.4	805.9	1320	495.2	396.6	409.3	408.3	362.3	312.6	272.8	249.1	227.5	205.4	185.1	169.5	162.4	154.4	147.8	138.1	127.7	120.0	117.6	118.9	117.2	116.0	115.2	114.0	111.2	108.5	100.8	90.83	78.14	67.23	58.90	54.64	57.81	53.09	35.95	24.92	20.11	17.10	13.84	11.14	9.639	8.678	10.43	32.08	142.4	381.7	468.5	113.3	9.367	1.868	1.774	1.838	1.837	1.861	1.967	1.769	1.687	1.585	1.507	1.520	1.310	1.389	1.168	1.241	1.195	1.110	1.215	1.110	1.149	1.124	1.080	1.092	1.151
475.0	152.5	181.0	373.6	1327	1035	364.3	371.4	364.7	327.5	280.7	249.4	224.2	204.8	184.1	168.0	151.2	142.0	137.0	133.1	123.5	112.4	105.3	103.1	104.2	103.5	103.0	102.7	101.7	100.2	98.05	91.69	83.30	72.45	62.12	53.77	47.52	45.24	48.20	44.78	29.13	21.66	17.39	14.41	12.07	9.817	8.352	7.385	11.54	35.35	88.70	190.0	473.1	184.0	12.19	1.827	1.839	1.878	1.634	1.832	1.564	1.451	1.527	1.284	1.262	1.388	1.292	1.055	1.011	1.014	1.005	1.087	1.017	0.979	0.996	0.985	1.030	1.095
480.0	159.8	178.8	245.6	864.7	1605	453.9	350.0	340.6	303.6	258.4	234.9	209.1	187.9	172.6	154.0	139.2	129.5	125.0	121.2	112.6	101.0	95.32	93.79	95.57	94.09	95.46	94.22	93.30	91.81	89.51	85.42	78.53	67.98	59.87	50.68	44.81	40.51	39.88	45.18	35.11	23.16	17.74	14.68	12.59	10.61	9.122	7.012	7.300	11.55	23.19	47.14	225.2	504.7	162.9	6.257	1.824	1.805	1.546	1.630	1.617	1.370	1.443	1.407	1.249	1.129	1.183	1.078	1.022	1.030	1.059	0.948	0.897	0.920	0.961	0.844	0.964	0.932
485.0	146.0	185.5	201.6	454.2	1716	814.7	335.6	317.5	287.4	246.9	217.1	195.4	177.9	158.1	143.6	131.8	123.8	116.4	111.1	103.1	93.88	87.85	88.38	87.42	87.74	88.91	87.64	86.35	84.84	84.80	80.41	74.09	64.33	56.32	48.86	44.46	38.30	35.93	39.23	40.49	26.86	18.54	15.18	13.05	11.20	9.437	7.840	6.494	6.925	8.646	13.53	57.77	310.0	488.5	28.37	3.587	1.709	1.551	1.484	1.553	1.463	1.356	1.236	1.239	1.135	1.137	0.948	1.037	0.950	1.020	0.901	0.861	0.927	0.903	0.898	0.775	0.909
490.0	111.0	213.2	195.2	267.8	1046	1553	413.8	293.7	263.5	227.2	201.4	182.0	166.0	148.2	129.8	121.3	113.4	106.9	100.1	94.11	84.96	80.36	80.34	80.33	78.87	78.69	79.61	78.87	78.55	77.91	73.44	68.87	60.57	52.83	46.00	42.08	36.65	32.11	31.11	34.21	32.79	23.12	15.94	13.47	11.61	10.08	8.524	7.055	6.443	5.859	6.447	15.92	78.42	248.8	384.3	197.9	11.88	1.787	1.711	1.589	1.263	1.323	1.239	1.126	1.080	0.980	0.936	0.970	0.905	0.916	0.876	0.799	0.911	0.803	0.824	0.781	0.899
495.0	84.03	188.6	219.0	208.5	432.8	1516	1037	279.0	233.5	206.8	181.9	168.0	152.8	131.4	121.7	110.0	100.4	94.17	89.41	83.89	75.84	72.16	73.15	71.23	71.81	70.75	71.77	70.44	70.75	69.48	66.13	62.85	55.16	48.94	43.59	38.99	34.96	30.24	28.34	26.56	29.92	28.74	19.79	13.71	12.18	10.36	8.902	7.804	7.021	5.978	5.216	6.893	20.42	58.41	144.9	424.8	212.7	15.90	1.741	1.482	1.268	0.992	1.123	1.070	1.083	0.956	0.871	0.896	0.784	0.777	0.724	0.832	0.836	0.816	0.694	0.728	0.834
500.0	71.15	147.7	238.6	192.4	248.9	953.6	1641	350.2	218.2	191.3	169.2	154.8	138.2	123.8	107.6	97.81	90.59	87.50	82.27	76.10	70.12	65.63	66.20	64.49	65.28	63.59	65.47	64.19	65.96	63.98	61.60	57.78	51.83	45.93	41.28	36.62	32.76	28.49	26.16	24.01	24.74	28.56	23.61	14.70	12.10	10.56	9.458	8.095	7.382	6.224	5.188	4.972	7.652	15.86	35.57	176.2	454.9	188.4	9.913	1.474	1.244	1.043	1.106	1.011	0.902	0.843	0.766	0.751	0.797	0.806	0.797	0.722	0.711	0.679	0.721	0.741	0.762
505.0	66.53	120.8	220.6	198.7	194.1	469.9	1797	707.5	205.0	177.8	158.6	143.3	129.9	114.2	100.2	91.23	83.77	79.61	73.71	69.48	64.19	59.61	58.83	58.58	59.67	58.42	59.22	58.79	59.44	60.10	55.94	52.76	47.32	42.67	38.28	33.54	30.17	27.27	24.17	22.49	21.30	24.18	25.42	18.03	12.49	10.78	9.847	8.177	7.279	6.524	5.543	5.004	4.846	6.361	10.67	43.82	230.9	445.8	137.0	4.008	1.281	1.096	1.158	0.959	0.844	0.839	0.782	0.823	0.705	0.771	0.724	0.616	0.706	0.679	0.745	0.650	0.712
510.0	58.56	94.11	177.3	227.2	171.9	239.9	1039	1487	274.5	159.8	146.0	128.6	114.2	99.99	87.39	79.51	72.69	69.96	64.81	60.63	57.03	53.37	51.95	52.22	52.22	51.96	51.97	52.21	53.56	52.25	50.49	46.67	42.27	37.81	34.15	30.67	27.97	25.41	22.96	20.16	18.93	19.04	22.26	21.00	15.00	11.29	9.512	8.446	7.429	6.583	5.887	5.175	4.445	4.296	5.057	12.13	56.69	195.6	327.7	129.1	12.23	1.178	1.047	0.946	0.834	0.792	0.663	0.729	0.613	0.665	0.618	0.623	0.664	0.645	0.612	0.558	0.709
515.0	50.54	73.67	118.5	225.6	176.2	167.7	393.6	1584	866.6	157.9	130.9	115.7	98.56	88.15	76.26	69.32	64.75	59.81	56.10	52.52	48.94	45.98	45.46	45.17	45.53	45.51	45.10	45.73	46.31	46.45	43.99	40.65	37.93	32.97	30.42	27.64	25.11	22.76	20.81	18.76	16.63	15.55	16.78	19.36	18.91	13.13	9.827	8.198	7.438	6.485	5.828	5.669	4.184	3.718	3.771	5.049	14.92	45.50	103.3	296.4	203.5	15.34	1.080	0.969	0.865	0.746	0.689	0.660	0.593	0.573	0.563	0.568	0.586	0.563	0.461	0.498	0.612
520.0	46.01	70.99	97.13	188.9	192.9	145.2	199.4	991.3	1557	224.5	118.6	106.2	90.19	80.31	68.52	62.57	58.52	53.10	50.67	48.27	44.92	41.47	41.19	39.88	40.52	40.56	40.25	41.95	41.09	42.17	38.98	37.11	33.56	30.05	27.59	24.72	22.88	20.73	19.23	17.44	16.03	14.55	14.10	15.91	18.56	14.88	9.984	8.019	7.258	6.603	5.480	5.470	4.671	3.847	3.513	3.480	5.549	11.95	25.00	116.4	331.8	161.2	7.934	0.938	0.855	0.735	0.599	0.658	0.558	0.514	0.504	0.562	0.530	0.486	0.507	0.546	0.541
525.0	49.64	65.66	81.11	138.2	213.4	146.1	146.1	447.1	1821	561.5	105.9	95.62	85.36	73.08	64.05	57.40	52.82	47.67	45.35	42.54	39.91	36.92	36.65	35.11	36.74	35.96	37.04	38.10	36.75	37.53	35.76	32.57	30.25	27.99	25.59	23.31	20.69	19.53	17.65	15.92	15.08	12.97	12.61	12.76	16.13	16.01	11.45	8.106	7.169	6.219	5.546	5.085	4.973	4.021	3.415	3.099	3.430	4.425	7.275	28.53	154.4	313.1	106.6	2.959	0.724	0.654	0.559	0.622	0.523	0.471	0.461	0.456	0.416	0.584	0.468	0.463	0.500
530.0	40.39	54.15	72.38	97.59	192.1	158.1	121.9	193.5	1087	1424	175.8	85.46	73.63	65.57	55.11	49.07	45.64	42.46	39.42	36.79	33.16	32.70	32.04	31.39	32.27	31.99	32.46	32.69	32.22	32.36	31.12	28.66	26.14	24.34	21.80	20.39	18.47	17.04	15.78	14.23	13.25	12.16	11.19	10.99	11.95	14.33	13.53	9.148	6.883	5.995	5.273	4.872	4.431	4.123	3.597	2.922	2.753	2.659	3.134	7.816	37.23	131.5	216.7	117.4	10.66	0.805	0.581	0.571	0.490	0.506	0.482	0.487	0.470	0.448	0.399	0.431	0.480
535.0	33.68	50.00	62.58	76.29	127.8	187.3	112.5	117.3	361.0	1606	733.9	78.93	65.36	56.70	47.44	42.65	38.73	36.75	32.70	31.29	28.81	27.52	27.77	26.64	26.83	27.57	27.16	27.69	27.93	28.06	26.27	25.33	22.82	20.93	19.70	17.59	15.85	15.15	13.59	12.38	11.90	10.76	9.828	9.610	9.335	10.40	12.56	11.18	7.568	5.457	5.055	4.403	4.001	3.847	3.592	3.246	2.548	2.246	1.991	3.077	9.420	30.44	66.58	205.9	160.9	12.67	0.740	0.558	0.462	0.483	0.436	0.436	0.406	0.397	0.352	0.403	0.437
540.0	31.28	38.48	53.39	67.02	83.57	175.8	118.0	93.20	149.6	975.5	1439	127.8	59.34	49.15	42.37	37.40	33.34	31.70	29.55	28.16	24.79	24.70	24.19	23.45	23.98	23.74	24.06	24.27	24.45	24.14	23.25	21.93	20.55	18.26	17.62	14.90	14.58	13.63	12.34	11.05	10.85	10.26	9.247	8.806	8.626	8.134	9.646	11.22	8.447	5.585	4.733	4.219	3.697	3.414	3.279	3.302	2.732	2.065	1.709	1.965	3.198	7.783	16.09	77.40	226.2	113.7	5.738	0.603	0.426	0.502	0.516	0.408	0.404	0.394	0.371	0.323	0.365
545.0	31.21	41.49	49.01	55.06	67.58	143.5	142.4	81.21	92.82	390.9	1736	369.2	51.76	44.80	38.88	32.46	30.43	27.93	25.87	25.02	21.56	22.00	20.86	21.98	21.13	20.79	20.75	21.05	21.09	20.98	20.60	19.71	17.98	16.22	14.93	13.46	12.79	11.61	10.82	10.12	9.502	9.111	8.256	7.898	7.755	7.329	7.397	9.769	9.413	6.158	4.393	3.923	3.318	3.068	2.982	3.044	2.809	2.236	1.782	1.573	1.750	2.777	4.529	18.81	101.0	212.4	31.26	2.201	0.467	0.463	0.464	0.395	0.356	0.337	0.370	0.316	0.329
550.0	33.51	36.43	42.74	45.50	53.09	91.36	153.6	88.33	69.00	137.8	987.1	1158	97.84	38.85	32.24	27.65	26.07	22.95	21.61	20.07	18.81	17.79	17.08	17.84	17.62	17.30	17.29	17.83	17.86	17.65	17.12	15.83	14.62	13.60	12.75	11.69	10.73	9.891	9.493	8.754	8.199	7.737	7.162	7.053	6.357	5.969	5.820	6.587	7.872	6.994	4.654	3.576	3.037	2.715	2.758	2.493	2.560	2.386	1.718	1.444	1.366	1.542	1.852	5.007	24.18	86.38	139.3	79.93	9.122	0.573	0.446	0.378	0.325	0.370	0.293	0.365	0.294
555.0	28.22	28.56	39.36	41.70	44.60	54.84	124.6	118.0	57.58	70.53	291.9	1389	482.9	34.92	26.78	22.78	21.45	19.10	17.76	16.00	14.96	14.33	14.32	14.54	14.28	14.00	14.45	14.56	14.24	14.00	13.59	12.79	11.95	11.33	10.17	9.532	8.537	8.083	7.958	7.330	6.713	6.300	6.130	5.845	5.672	4.910	4.512	4.715	5.300	6.542	5.378	3.590	2.585	2.621	2.170	2.100	1.993	2.133	1.865	1.503	1.275	1.234	1.336	1.949	6.183	20.00	41.97	125.1	101.1	8.727	0.506	0.432	0.266	0.322	0.276	0.293	0.333
560.0	27.79	33.38	37.97	38.68	36.70	44.46	83.93	137.0	59.19	49.53	102.7	835.3	1075	57.99	22.26	19.67	17.86	16.34	15.58	13.84	12.78	11.80	11.89	12.20	11.83	12.05	12.44	12.16	11.94	11.60	11.77	10.93	10.68	9.241	8.712	7.860	7.085	7.092	6.625	6.230	5.941	5.670	5.133	4.829	4.874	4.321	4.126	3.794	3.984	4.968	5.351	4.061	2.540	2.257	1.943	1.994	1.927	1.825	2.000	1.751	1.272	1.128	1.095	1.243	2.154	5.110	10.23	46.94	136.0	33.54	3.727	0.401	0.271	0.307	0.328	0.307	0.325
565.0	30.39	32.80	30.43	33.15	33.67	37.18	55.94	135.6	71.34	43.95	56.95	312.3	1378	144.9	20.25	16.78	15.35	14.14	13.15	12.23	11.82	10.66	10.16	10.13	10.22	10.47	10.35	10.39	10.35	10.17	10.23	9.784	8.659	7.990	7.480	7.234	6.153	6.024	5.603	5.299	5.207	4.949	4.665	4.101	3.991	3.729	3.594	3.227	3.147	3.593	4.746	4.056	2.755	1.876	1.651	1.731	1.628	1.411	1.689	1.864	1.283	1.138	1.017	0.976	1.085	1.783	2.969	11.56	58.77	117.2	28.67	1.307	0.331	0.293	0.237	0.284	0.306
570.0	31.15	31.75	33.11	28.10	27.12	30.91	36.82	97.02	102.5	42.33	40.77	101.1	809.5	792.9	46.74	14.61	12.79	11.69	10.44	10.10	9.207	8.840	8.604	8.123	8.899	8.614	8.570	8.517	8.247	8.342	8.205	7.478	6.927	6.294	6.122	5.955	5.423	5.111	4.805	4.356	4.128	4.176	3.583	3.368	3.412	3.322	3.048	2.709	2.480	2.575	3.145	3.568	3.053	2.015	1.550	1.408	1.359	1.166	1.289	1.400	1.513	1.222	0.991	0.903	0.930	1.110	1.326	3.270	14.36	49.42	81.19	48.13	5.497	0.336	0.319	0.247	0.256
575.0	29.58	30.53	28.29	27.92	23.47	23.75	28.50	50.44	115.3	54.37	35.36	45.75	231.3	1032	280.9	13.06	10.67	9.148	8.503	8.232	7.419	7.180	7.110	6.965	6.482	6.947	6.504	6.831	6.911	6.841	6.642	5.749	5.508	5.190	5.072	4.892	4.352	3.933	3.822	3.453	3.208	3.403	3.028	2.784	2.692	2.642	2.532	2.195	2.029	1.966	1.898	2.500	3.043	2.269	1.587	1.293	1.143	1.125	1.073	1.066	1.251	1.437	1.130	0.750	0.832	0.967	1.102	1.380	3.809	11.58	24.37	74.21	33.41	4.344	0.294	0.254	0.223
580.0	29.87	30.27	27.15	24.33	22.16	23.04	24.71	31.93	95.99	78.22	33.23	33.44	72.35	633.4	699.1	24.35	9.240	8.574	7.309	7.298	6.598	6.053	6.018	6.075	5.943	6.088	5.872	5.552	5.717	5.572	5.538	4.715	4.706	4.166	4.260	3.938	3.726	3.165	3.116	3.107	2.813	2.884	2.511	2.541	2.267	2.312	2.043	1.965	1.828	1.728	1.600	1.742	2.427	2.414	1.685	1.110	1.047	1.092	0.948	0.928	0.943	1.339	1.246	0.853	0.854	0.730	0.879	0.887	1.433	3.161	5.967	27.36	73.92	30.02	1.793	0.256	0.284
585.0	30.26	30.05	26.42	22.66	20.21	19.37	22.50	24.96	67.03	101.4	34.15	29.50	34.47	232.5	938.8	85.28	8.350	7.396	6.313	6.051	5.416	5.025	5.181	5.055	4.804	5.260	4.631	4.588	5.022	4.607	4.708	4.207	4.055	3.660	3.623	3.316	3.152	2.837	2.793	2.431	2.318	2.416	2.153	1.884	1.971	1.922	1.843	1.663	1.494	1.558	1.294	1.273	1.664	2.215	1.758	1.341	0.992	0.942	0.814	0.852	0.827	0.954	1.247	1.063	0.849	0.760	0.816	0.702	0.919	1.115	1.730	6.687	33.71	71.46	22.94	0.733	0.264
590.0	25.12	28.41	25.50	21.19	17.71	17.39	19.98	21.62	37.75	92.75	53.29	28.41	25.21	68.76	556.0	485.5	20.39	6.611	5.395	5.027	4.849	4.071	4.364	4.101	4.091	4.180	4.007	3.816	4.039	3.782	3.881	3.604	3.182	3.013	2.865	2.663	2.629	2.513	2.367	2.105	1.981	2.027	1.846	1.707	1.682	1.739	1.552	1.421	1.301	1.309	1.162	1.130	1.212	1.615	1.771	1.560	1.110	0.840	0.703	0.775	0.645	0.737	0.893	1.101	0.907	0.733	0.690	0.668	0.634	0.605	0.778	1.784	8.113	29.07	49.28	23.02	3.432
595.0	23.93	24.01	25.24	22.17	19.06	17.55	18.14	19.53	25.80	65.54	83.17	30.82	23.11	28.10	155.8	660.8	90.27	5.909	4.608	3.790	3.829	3.327	3.533	3.308	3.452	3.477	3.284	3.304	3.268	3.000	3.076	2.951	2.698	2.780	2.282	2.269	2.186	1.863	1.825	1.601	1.661	1.728	1.507	1.321	1.561	1.432	1.319	1.128	1.187	1.024	0.925	0.980	0.945	0.976	1.369	1.472	1.218	0.797	0.635	0.616	0.487	0.630	0.583	0.784	0.973	0.799	0.580	0.525	0.576	0.490	0.450	0.693	2.082	6.715	14.35	41.92	30.79
600.0	28.18	25.71	25.02	20.78	18.83	18.90	19.59	21.58	24.99	42.55	92.38	40.51	24.06	20.79	47.67	426.5	386.8	11.15	4.235	3.403	3.179	2.979	2.726	2.964	2.768	2.778	2.967	2.634	2.596	2.520	2.574	2.573	2.203	2.241	1.925	1.959	1.745	1.593	1.499	1.410	1.330	1.403	1.299	1.051	1.193	1.267	1.201	1.105	1.048	0.905	0.728	0.821	0.700	0.733	0.926	1.443	1.288	0.942	0.698	0.570	0.444	0.484	0.525	0.565	0.826	0.961	0.671	0.493	0.498	0.410	0.385	0.439	0.743	1.710	3.539	15.44	45.04
605.0	24.09	32.96	26.07	23.81	20.59	19.76	22.97	24.76	29.34	39.17	88.05	65.32	32.25	26.39	27.50	163.8	578.7	55.46	4.017	3.437	2.729	2.598	2.448	2.410	2.360	2.375	2.505	2.221	2.624	2.243	2.357	2.042	1.930	1.840	1.541	1.669	1.489	1.346	1.346	1.182	1.191	1.242	1.073	1.042	1.036	1.049	0.959	0.876	0.915	0.837	0.681	0.709	0.628	0.683	0.682	0.971	1.152	1.070	0.674	0.651	0.487	0.481	0.490	0.477	0.774	0.769	0.802	0.531	0.500	0.481	0.389	0.396	0.511	0.662	1.042	3.792	19.00
610.0	28.34	32.25	30.14	25.62	21.27	22.85	29.53	35.84	45.06	55.19	84.18	110.0	61.76	44.29	38.06	62.93	382.6	338.1	10.77	2.943	2.316	2.416	2.073	2.177	2.102	1.834	2.066	1.883	2.007	2.152	1.850	1.689	1.520	1.485	1.390	1.403	1.273	1.153	1.146	1.063	0.982	0.965	0.934	0.850	0.814	0.815	0.817	0.804	0.761	0.706	0.610	0.597	0.579	0.581	0.589	0.636	0.960	1.029	0.832	0.605	0.489	0.564	0.542	0.528	0.638	0.737	0.825	0.860	0.612	0.518	0.498	0.476	0.518	0.498	0.558	1.155	4.657
615.0	28.61	38.28	36.71	29.61	21.98	27.78	32.85	39.39	49.07	62.82	83.90	117.8	87.18	54.61	46.42	42.36	129.1	507.0	63.57	2.438	2.014	1.828	1.714	1.771	1.501	1.607	1.707	1.380	1.571	1.404	1.506	1.314	1.377	1.107	1.231	1.097	1.004	0.970	0.901	0.762	0.913	0.771	0.752	0.655	0.583	0.753	0.624	0.717	0.641	0.534	0.478	0.525	0.446	0.451	0.479	0.506	0.665	0.789	0.916	0.688	0.483	0.510	0.618	0.548	0.536	0.644	0.676	0.842	0.810	0.591	0.598	0.489	0.401	0.434	0.408	0.609	1.292
620.0	25.44	37.01	33.28	30.88	21.22	27.16	33.35	38.07	46.94	60.20	72.74	100.5	101.4	57.23	44.99	35.74	56.41	357.0	243.5	4.369	2.075	1.729	1.644	1.613	1.282	1.369	1.330	1.503	1.314	1.090	1.343	1.037	1.083	0.942	0.959	0.918	0.948	0.906	0.805	0.717	0.646	0.723	0.677	0.576	0.565	0.696	0.634	0.649	0.499	0.472	0.433	0.488	0.414	0.372	0.462	0.484	0.505	0.598	0.872	0.738	0.500	0.442	0.505	0.539	0.479	0.664	0.628	0.664	0.993	0.714	0.551	0.427	0.409	0.403	0.386	0.408	0.574
625.0	23.73	36.42	39.66	29.21	25.46	26.60	33.33	39.06	46.00	58.55	65.35	86.26	104.5	60.17	44.88	33.57	37.67	152.0	388.5	24.32	1.788	1.491	1.348	1.395	1.315	1.263	1.152	1.118	1.160	1.122	1.211	0.838	0.867	0.885	0.993	0.766	0.824	0.760	0.609	0.631	0.556	0.588	0.637	0.488	0.485	0.562	0.520	0.558	0.477	0.469	0.458	0.389	0.349	0.399	0.355	0.441	0.473	0.462	0.741	0.726	0.654	0.406	0.449	0.523	0.537	0.552	0.504	0.611	0.751	0.816	0.609	0.426	0.429	0.434	0.439	0.389	0.382
630.0	29.24	35.44	38.31	30.19	25.32	27.63	32.83	37.66	44.37	54.54	65.19	75.94	95.60	71.88	45.34	33.13	32.12	51.37	275.8	164.4	4.225	1.508	1.147	1.064	1.132	0.964	1.014	0.958	0.892	0.969	0.979	0.774	0.871	0.707	0.818	0.619	0.584	0.602	0.516	0.499	0.493	0.531	0.504	0.496	0.425	0.437	0.507	0.412	0.398	0.408	0.359	0.353	0.351	0.360	0.340	0.359	0.406	0.429	0.529	0.596	0.602	0.472	0.448	0.458	0.550	0.456	0.508	0.556	0.611	0.695	0.656	0.496	0.421	0.434	0.408	0.371	0.322
635.0	27.00	36.11	41.12	34.28	28.17	25.29	30.60	36.90	45.32	54.70	61.80	70.44	77.21	85.18	49.37	33.32	30.40	24.71	83.07	322.2	42.33	1.331	1.241	1.005	0.893	0.851	0.830	0.839	0.838	0.873	0.823	0.676	0.616	0.679	0.653	0.602	0.519	0.542	0.436	0.449	0.414	0.374	0.465	0.378	0.395	0.412	0.422	0.348	0.372	0.419	0.356	0.305	0.385	0.301	0.362	0.361	0.351	0.411	0.358	0.398	0.578	0.489	0.456	0.428	0.468	0.454	0.484	0.518	0.580	0.626	0.538	0.592	0.475	0.514	0.342	0.339	0.318
640.0	29.97	42.55	41.09	33.22	26.95	26.68	31.52	37.28	39.56	52.01	60.98	68.68	70.92	81.26	56.05	33.75	30.18	18.41	24.32	243.9	156.0	2.289	1.156	0.930	0.833	0.811	0.778	0.713	0.687	0.741	0.725	0.571	0.595	0.554	0.526	0.496	0.531	0.480	0.346	0.364	0.387	0.408	0.390	0.431	0.389	0.373	0.411	0.370	0.337	0.405	0.279	0.280	0.296	0.301	0.307	0.281	0.309	0.345	0.333	0.348	0.511	0.550	0.526	0.483	0.420	0.503	0.473	0.410	0.488	0.486	0.458	0.627	0.548	0.436	0.337	0.350	0.310
645.0	25.97	39.93	39.83	30.42	26.91	24.68	27.54	38.85	38.02	52.62	59.78	66.98	66.90	73.60	63.13	33.08	29.99	17.09	9.881	103.6	271.1	13.45	1.048	0.902	0.778	0.782	0.755	0.731	0.659	0.563	0.580	0.605	0.566	0.498	0.438	0.444	0.494	0.419	0.345	0.342	0.322	0.332	0.321	0.348	0.412	0.346	0.328	0.350	0.299	0.343	0.229	0.261	0.324	0.222	0.232	0.263	0.255	0.324	0.313	0.304	0.437	0.440	0.538	0.381	0.407	0.487	0.472	0.453	0.438	0.492	0.470	0.517	0.597	0.472	0.398	0.302	0.340
650.0	30.79	41.50	35.88	32.82	26.39	22.61	28.85	33.37	36.34	46.30	52.16	60.55	61.00	59.44	63.94	33.09	27.03	17.05	6.516	30.10	260.8	58.50	1.178	0.800	0.691	0.694	0.723	0.602	0.516	0.579	0.584	0.632	0.463	0.431	0.493	0.465	0.443	0.342	0.374	0.302	0.310	0.284	0.233	0.278	0.333	0.270	0.359	0.333	0.356	0.264	0.249	0.266	0.282	0.257	0.192	0.260	0.243	0.279	0.322	0.276	0.350	0.358	0.382	0.403	0.419	0.407	0.424	0.510	0.424	0.449	0.384	0.356	0.504	0.470	0.529	0.332	0.354
