Sample:	'1
File name:	Default_20231010_224901.FD3
Run date:	'22:42:39, 10/10/2023
Operator:	dsjg
Comment:	'

Instrument
Model:	F-2700 FL Spectrophotometer
Serial number:	2198-001
ROM Version:	4J14000 07

Instrument parameters
Measurement type:	3-D scan
Data mode:	Fluorescence
EX  Start WL:	220.0 nm
EX  End WL:	600.0 nm
EX Sampling interval:	5.0 nm
EM  Start WL:	230.0 nm
EM  End WL:	650.0 nm
EM Sampling interval:	5.0 nm
Scan speed:	12000 nm/min
EX Slit:	5.0 nm
EM Slit:	5.0 nm
PMT Voltage:	700 V
Response:	Auto 
Corrected spectra:	Off
Contour interval:	50.000

Peak integration
Integration method:	Rectangular
Sensitivity:	1
Threshold:	1.000

Peaks
No.	ApexEX/EM(nm)	Height(Data)
1	225.0/350.0	281.1
2	225.0/565.0	22.44
3	225.0/580.0	16.36
4	225.0/610.0	8.347
5	225.0/635.0	6.437
6	230.0/500.0	138.4
7	235.0/515.0	102.9
8	240.0/265.0	159.6
9	240.0/525.0	81.15
10	245.0/535.0	65.79
11	250.0/550.0	55.04
12	255.0/285.0	181.3
13	255.0/565.0	45.46
14	260.0/290.0	197.0
15	260.0/575.0	36.49
16	265.0/585.0	33.19
17	270.0/300.0	334.5
18	270.0/595.0	27.55
19	275.0/305.0	347.3
20	275.0/355.0	281.7
21	275.0/415.0	 2100
22	275.0/435.0	 2204
23	275.0/610.0	23.14
24	280.0/620.0	20.70
25	285.0/315.0	278.0
26	290.0/325.0	242.3
27	300.0/335.0	181.3
28	305.0/345.0	164.5
29	310.0/350.0	142.7
30	315.0/355.0	135.7
31	320.0/360.0	147.3
32	325.0/365.0	128.9
33	330.0/375.0	127.9
34	335.0/380.0	143.7
35	345.0/415.0	 1023
36	345.0/435.0	 1096
37	430.0/505.0	18.39
38	445.0/525.0	10.91
39	460.0/545.0	6.341
40	470.0/560.0	4.153
41	545.0/300.0	2.120
42	555.0/435.0	8.782

Data points
	220.0	225.0	230.0	235.0	240.0	245.0	250.0	255.0	260.0	265.0	270.0	275.0	280.0	285.0	290.0	295.0	300.0	305.0	310.0	315.0	320.0	325.0	330.0	335.0	340.0	345.0	350.0	355.0	360.0	365.0	370.0	375.0	380.0	385.0	390.0	395.0	400.0	405.0	410.0	415.0	420.0	425.0	430.0	435.0	440.0	445.0	450.0	455.0	460.0	465.0	470.0	475.0	480.0	485.0	490.0	495.0	500.0	505.0	510.0	515.0	520.0	525.0	530.0	535.0	540.0	545.0	550.0	555.0	560.0	565.0	570.0	575.0	580.0	585.0	590.0	595.0	600.0
230.0	104.6	 1484	 1919	300.6	5.013	1.095	0.690	1.087	0.560	0.885	0.652	0.941	0.878	0.662	0.524	0.502	0.417	0.309	0.450	0.348	0.393	0.372	0.434	0.401	0.487	0.428	0.373	0.448	0.414	0.414	0.396	0.332	0.281	0.303	0.229	0.393	0.316	0.261	0.176	0.144	0.228	0.371	0.388	0.227	0.119	0.124	0.653	3.981	7.875	6.598	2.588	0.416	0.070	0.059	0.019	0.025	0.038	0.033	-0.014	-0.009	-0.006	-0.052	-0.042	-0.035	-0.030	-0.047	-0.040	-0.058	-0.034	-0.074	-0.084	-0.060	-0.045	-0.046	-0.070	-0.093	-0.054
235.0	64.26	449.5	 1574	 1701	298.7	5.551	1.516	1.504	0.753	0.901	1.102	0.588	0.907	0.836	0.692	0.934	0.442	0.274	0.399	0.274	0.298	0.324	0.520	0.484	0.407	0.463	0.449	0.463	0.445	0.364	0.383	0.363	0.337	0.343	0.241	0.282	0.263	0.305	0.273	0.253	0.228	0.195	0.265	0.466	0.390	0.208	0.224	1.023	2.560	4.742	7.009	7.665	3.803	0.716	0.025	0.022	0.026	0.048	0.042	-0.048	0.034	-0.008	-0.057	-0.042	0.023	-0.073	-0.074	-0.061	-0.036	-0.067	-0.023	-0.126	-0.042	-0.031	-0.075	-0.023	-0.092
240.0	105.5	131.4	580.7	 1858	 1581	203.3	2.519	1.794	1.478	0.838	1.081	0.922	0.726	1.015	0.649	0.707	0.438	0.458	0.500	0.330	0.218	0.439	0.426	0.621	0.483	0.384	0.480	0.483	0.466	0.402	0.398	0.397	0.301	0.300	0.265	0.249	0.186	0.259	0.295	0.192	0.208	0.173	0.183	0.291	0.430	0.436	0.277	0.329	0.694	1.334	3.378	8.280	10.62	8.115	2.549	0.283	0.105	0.060	0.043	0.011	0.034	0.041	-0.077	-0.061	0.014	-0.096	-0.101	-0.039	-0.045	-0.061	-0.001	-0.108	-0.060	-0.124	-0.118	-0.063	-0.090
245.0	106.6	120.2	151.3	830.8	 2183	 1384	120.1	3.335	2.349	1.219	1.613	1.006	1.296	0.962	0.861	0.397	0.631	0.572	0.475	0.513	0.238	0.558	0.444	0.484	0.352	0.379	0.462	0.506	0.378	0.373	0.476	0.381	0.292	0.307	0.258	0.294	0.284	0.254	0.278	0.160	0.283	0.184	0.169	0.210	0.281	0.347	0.585	0.417	0.341	0.370	0.836	2.711	6.786	12.08	12.33	6.391	1.364	0.038	0.032	-0.013	-0.008	-0.032	-0.077	-0.074	0.006	-0.049	-0.074	-0.046	-0.045	-0.089	-0.100	-0.120	-0.061	-0.020	-0.127	-0.124	-0.089
250.0	42.90	115.0	124.9	220.5	890.9	 2003	 1775	168.8	14.23	2.306	2.044	1.817	1.203	0.914	1.037	0.596	0.696	0.550	0.442	0.446	0.404	0.521	0.510	0.598	0.522	0.551	0.536	0.481	0.436	0.323	0.474	0.393	0.448	0.289	0.221	0.286	0.237	0.187	0.270	0.212	0.229	0.170	0.175	0.201	0.228	0.214	0.392	0.446	0.510	0.435	0.405	0.716	1.701	3.952	7.224	10.99	12.94	10.96	5.765	1.493	0.053	-0.020	-0.047	-0.044	0.030	-0.048	-0.047	-0.075	-0.056	-0.093	-0.053	-0.109	-0.072	-0.081	-0.115	-0.105	-0.154
255.0	10.03	40.35	122.9	147.1	219.0	620.1	 2047	 2177	224.5	12.87	2.561	2.874	1.626	1.498	1.187	1.177	0.749	0.657	0.723	0.545	0.481	0.545	0.466	0.581	0.661	0.486	0.460	0.530	0.389	0.450	0.497	0.384	0.311	0.247	0.274	0.223	0.284	0.160	0.206	0.179	0.215	0.284	0.263	0.205	0.190	0.166	0.154	0.217	0.239	0.486	0.691	0.634	0.652	0.944	1.658	2.739	5.139	11.56	18.87	17.88	8.343	1.353	0.039	0.000	0.055	-0.004	-0.024	-0.022	-0.040	-0.049	-0.013	-0.073	-0.063	-0.129	-0.057	-0.088	-0.096
260.0	1.618	10.93	60.37	150.9	125.2	155.1	786.0	 2651	 1878	177.0	7.351	3.591	2.277	1.778	1.519	1.247	0.702	0.647	0.548	0.698	0.474	0.518	0.596	0.482	0.641	0.447	0.501	0.465	0.488	0.386	0.495	0.564	0.376	0.334	0.323	0.245	0.331	0.168	0.164	0.077	0.192	0.282	0.198	0.243	0.163	0.235	0.178	0.136	0.090	0.221	0.421	0.794	0.800	0.527	0.519	0.695	1.239	3.278	8.956	18.19	23.34	16.25	5.748	0.470	0.095	-0.001	-0.056	-0.037	-0.011	-0.022	-0.008	-0.056	-0.092	-0.111	-0.071	-0.058	-0.124
265.0	3.086	3.230	19.27	91.38	159.6	80.60	195.5	 1162	 3117	 1614	133.2	4.873	3.386	2.360	1.721	1.450	1.117	0.761	0.586	0.778	0.454	0.600	0.600	0.584	0.635	0.606	0.522	0.527	0.610	0.572	0.408	0.455	0.334	0.360	0.323	0.311	0.201	0.180	0.118	0.074	0.128	0.217	0.155	0.285	0.153	0.161	0.187	0.151	0.128	0.123	0.230	0.404	0.745	0.917	0.663	0.287	0.331	0.847	2.175	5.904	14.15	24.02	24.44	13.58	2.699	0.085	-0.021	0.030	0.034	-0.004	-0.068	-0.051	-0.152	-0.054	-0.090	-0.067	-0.057
270.0	17.39	14.31	11.91	29.46	98.31	139.9	108.7	289.2	 1198	 2668	 2444	596.4	31.43	3.270	2.197	1.634	1.358	0.814	0.731	0.766	0.634	0.719	0.604	0.623	0.646	0.633	0.516	0.623	0.564	0.574	0.553	0.487	0.402	0.394	0.393	0.380	0.270	0.247	0.161	0.175	0.186	0.193	0.167	0.271	0.217	0.229	0.249	0.159	0.164	0.132	0.163	0.187	0.269	0.499	0.734	0.844	0.692	0.555	0.590	1.402	3.483	7.540	13.26	19.24	22.34	18.17	10.19	2.868	0.137	0.003	-0.030	-0.052	-0.072	-0.060	-0.069	-0.076	-0.095
275.0	55.26	46.22	24.32	13.69	29.24	89.74	173.8	137.1	289.6	769.4	 2405	 3588	875.8	32.67	3.368	2.619	1.667	1.332	1.271	0.877	0.895	0.741	0.696	0.620	0.700	0.644	0.669	0.615	0.492	0.611	0.433	0.441	0.593	0.434	0.507	0.509	0.333	0.316	0.275	0.223	0.258	0.238	0.259	0.356	0.296	0.349	0.354	0.242	0.246	0.198	0.123	0.148	0.116	0.229	0.274	0.416	0.678	1.078	0.876	0.644	0.919	1.823	3.025	4.572	7.870	16.51	27.37	27.32	13.79	2.302	0.023	0.003	-0.052	-0.073	-0.027	-0.075	-0.104
280.0	92.34	67.10	40.98	13.39	13.71	40.17	140.9	180.9	120.8	204.6	834.9	 3117	 3611	664.7	14.13	3.161	2.005	1.601	1.723	1.023	0.786	0.800	0.918	0.735	0.640	0.631	0.611	0.571	0.775	0.521	0.492	0.486	0.555	0.617	0.781	0.811	0.476	0.301	0.301	0.331	0.358	0.320	0.263	0.365	0.378	0.385	0.417	0.359	0.279	0.339	0.136	0.101	0.144	0.134	0.141	0.178	0.293	0.791	1.157	1.020	0.700	0.615	0.876	1.161	1.973	4.565	11.41	23.55	32.08	23.24	8.119	0.654	0.088	0.063	0.076	-0.081	-0.040
285.0	130.9	103.1	51.20	18.39	12.83	22.75	73.01	181.3	163.1	98.07	237.7	 1183	 3583	 3429	100.5	6.383	2.927	2.082	1.892	1.152	1.100	0.942	0.813	0.786	0.694	0.773	0.738	0.677	0.590	0.603	0.519	0.493	0.545	0.694	0.921	0.693	0.624	0.435	0.410	0.375	0.337	0.306	0.348	0.310	0.436	0.443	0.512	0.574	0.435	0.400	0.204	0.183	0.184	0.119	0.089	0.122	0.201	0.325	0.717	1.114	1.214	0.821	0.610	0.469	0.675	1.331	2.840	7.070	16.49	28.18	30.20	18.38	3.753	0.131	0.051	-0.043	-0.024
290.0	166.8	134.0	77.48	33.59	17.92	23.48	40.72	103.7	197.0	188.3	153.3	343.9	 1220	 2902	 3240	 1270	26.61	3.173	2.302	1.835	1.424	1.117	1.111	1.034	0.959	0.907	0.817	0.758	0.751	0.586	0.642	0.525	0.632	0.827	1.111	1.105	0.748	0.613	0.466	0.518	0.423	0.430	0.440	0.439	0.502	0.512	0.536	0.610	0.496	0.378	0.286	0.252	0.221	0.168	0.165	0.183	0.172	0.214	0.327	0.501	0.796	1.157	1.336	1.094	0.747	0.750	1.041	1.918	4.237	8.235	14.68	21.81	24.64	21.04	12.02	2.826	0.088
295.0	198.3	170.5	104.8	42.27	28.14	30.13	41.53	70.52	132.3	248.0	269.5	203.8	357.4	784.1	 2086	 4165	611.0	30.33	3.679	2.294	1.801	1.639	1.343	1.162	1.122	1.064	0.848	0.702	0.822	0.762	0.644	0.675	0.644	0.861	1.156	1.216	1.008	0.662	0.582	0.493	0.447	0.437	0.409	0.615	0.536	0.617	0.556	0.591	0.661	0.442	0.384	0.342	0.312	0.172	0.218	0.297	0.222	0.305	0.325	0.345	0.510	0.716	1.205	1.394	1.784	1.272	0.910	0.879	1.417	2.225	3.539	5.302	8.195	16.28	31.41	31.35	16.20
300.0	212.9	176.3	109.5	55.56	35.86	34.09	45.74	68.44	108.1	204.4	334.5	263.8	189.6	243.9	649.3	 2757	 4225	507.1	16.38	3.122	2.452	1.885	1.628	1.356	1.264	1.199	0.994	0.823	0.805	0.894	0.793	0.632	0.787	1.020	1.128	1.178	1.078	0.736	0.599	0.636	0.567	0.428	0.478	0.559	0.633	0.648	0.608	0.537	0.669	0.528	0.362	0.338	0.320	0.269	0.280	0.309	0.243	0.302	0.235	0.370	0.464	0.574	0.778	1.051	1.629	2.120	1.718	1.048	0.938	1.036	1.204	1.478	2.119	4.472	12.25	26.60	39.07
305.0	206.2	184.2	114.2	58.99	44.75	37.49	49.15	71.24	107.5	166.4	287.6	347.3	176.3	133.6	188.3	905.8	 3261	 4114	388.4	6.603	3.152	2.333	2.017	1.548	1.444	1.230	1.184	1.122	0.873	0.957	0.741	0.612	0.770	0.967	1.192	1.247	1.078	0.853	0.626	0.599	0.489	0.545	0.565	0.516	0.647	0.559	0.519	0.564	0.582	0.553	0.414	0.392	0.361	0.265	0.288	0.214	0.256	0.302	0.353	0.427	0.481	0.654	0.717	0.713	0.952	1.614	1.990	1.871	1.298	0.821	0.692	0.706	0.702	1.154	2.940	7.845	19.22
310.0	184.7	175.6	125.3	67.29	50.33	45.54	58.49	77.68	112.0	151.5	215.1	298.1	295.1	168.1	95.24	231.9	973.1	 2709	 3506	 1440	22.38	3.287	2.447	2.072	1.785	1.519	1.377	1.207	1.083	0.935	0.732	0.759	0.891	0.955	1.101	1.102	0.888	0.751	0.637	0.587	0.558	0.535	0.495	0.575	0.618	0.588	0.615	0.576	0.561	0.482	0.421	0.423	0.353	0.306	0.330	0.330	0.366	0.342	0.372	0.402	0.501	0.615	0.667	0.708	0.920	1.086	1.349	1.658	1.947	1.636	1.086	0.682	0.481	0.463	0.794	1.906	4.641
315.0	192.0	175.6	131.0	75.88	52.23	51.31	67.15	88.90	117.9	152.6	193.4	225.5	269.1	278.0	113.2	87.22	238.7	659.6	 1691	 4230	 2121	27.16	3.542	2.789	2.042	1.816	1.608	1.400	1.063	0.921	1.039	0.877	0.953	0.878	1.143	1.245	0.829	0.703	0.589	0.562	0.539	0.670	0.509	0.541	0.460	0.622	0.573	0.532	0.529	0.510	0.393	0.399	0.357	0.418	0.344	0.321	0.371	0.467	0.497	0.535	0.453	0.634	0.699	0.750	0.893	1.040	1.162	1.146	1.230	1.403	1.828	1.581	0.900	0.365	0.390	0.608	1.195
320.0	207.4	178.3	134.8	77.46	59.19	58.40	73.41	96.40	123.4	163.0	192.2	218.4	225.0	267.3	208.6	77.78	81.16	166.6	468.1	 2271	 4666	411.4	17.32	3.568	2.587	2.139	1.809	1.515	1.361	1.176	1.307	1.097	0.960	0.852	1.017	1.114	0.879	0.669	0.633	0.630	0.531	0.557	0.487	0.567	0.603	0.575	0.563	0.647	0.506	0.467	0.462	0.424	0.393	0.486	0.456	0.359	0.383	0.507	0.504	0.559	0.537	0.558	0.800	0.893	0.906	1.002	1.062	1.080	1.040	0.968	1.340	1.716	1.644	0.793	0.470	0.327	0.433
325.0	211.0	187.7	141.2	91.09	66.88	66.71	84.40	104.1	138.9	173.2	204.9	220.3	210.8	220.2	242.3	137.6	55.99	60.53	122.5	655.5	 2927	 3442	344.2	7.743	3.278	2.712	2.009	1.761	1.409	1.317	1.313	1.154	0.920	0.816	1.024	1.083	0.900	0.832	0.786	0.620	0.594	0.603	0.570	0.643	0.631	0.625	0.626	0.676	0.536	0.465	0.394	0.412	0.365	0.491	0.460	0.354	0.459	0.497	0.554	0.553	0.637	0.746	0.808	0.939	1.028	1.047	1.150	0.990	1.097	1.009	1.096	1.197	1.510	1.554	0.984	0.448	0.304
330.0	228.1	222.0	160.9	114.2	84.26	84.77	96.16	116.6	153.4	189.1	221.2	235.1	227.1	200.1	192.2	194.5	114.7	50.27	50.78	165.4	795.7	 2339	 3483	 1366	21.27	4.048	2.715	2.189	1.916	1.625	1.381	1.255	1.097	0.929	1.073	1.050	0.882	0.828	0.724	0.643	0.561	0.523	0.567	0.572	0.656	0.690	0.704	0.705	0.681	0.549	0.459	0.462	0.445	0.432	0.496	0.484	0.578	0.554	0.625	0.636	0.743	0.838	0.891	1.030	1.091	1.138	1.246	1.242	1.162	1.068	1.056	1.031	0.963	1.203	1.199	1.117	0.842
335.0	248.1	259.3	191.4	133.6	97.77	102.5	109.0	133.7	166.9	213.9	242.8	253.9	249.3	217.6	170.9	151.7	181.3	79.50	44.84	63.47	198.4	556.8	 1566	 4609	 2171	27.76	4.152	3.129	2.313	1.939	1.533	1.351	1.279	1.039	1.044	1.038	0.831	0.764	0.723	0.588	0.643	0.558	0.553	0.701	0.664	0.793	0.657	0.847	0.774	0.619	0.594	0.566	0.530	0.404	0.479	0.540	0.728	0.653	0.737	0.742	0.911	0.836	0.973	0.993	1.187	1.127	1.298	1.226	1.270	1.289	1.254	1.104	0.978	1.041	0.686	0.879	1.188
340.0	266.7	264.9	203.2	143.9	112.7	110.2	116.2	143.3	178.6	223.8	254.1	270.4	261.0	230.5	175.3	131.8	149.8	163.4	66.31	43.89	69.01	145.2	413.7	 2313	 5336	363.7	18.04	3.822	2.803	2.053	1.754	1.471	1.355	1.026	1.139	1.060	0.905	0.770	0.631	0.735	0.670	0.598	0.639	0.758	0.726	0.817	0.720	0.845	0.778	0.672	0.693	0.612	0.573	0.479	0.573	0.588	0.803	0.652	0.738	0.895	0.966	0.969	0.973	1.238	1.243	1.233	1.402	1.408	1.389	1.255	1.258	1.180	0.964	0.912	0.772	0.718	0.722
345.0	271.3	279.8	206.4	153.2	120.5	117.9	126.4	151.9	189.7	232.0	257.9	276.6	272.1	238.2	181.4	130.3	113.9	164.5	129.5	50.01	43.03	56.47	115.2	634.6	 3337	 5038	314.1	8.471	3.272	2.808	2.014	1.654	1.332	1.322	1.222	1.079	1.010	0.805	0.765	0.726	0.716	0.646	0.694	0.672	0.773	0.834	0.784	0.866	0.865	0.670	0.620	0.615	0.590	0.527	0.519	0.638	0.668	0.671	0.725	0.901	0.978	1.019	1.031	1.256	1.269	1.220	1.412	1.363	1.296	1.437	1.189	1.140	1.027	0.910	0.739	0.655	0.604
350.0	265.8	281.1	210.1	156.0	127.0	118.0	133.6	160.1	197.7	235.3	267.3	279.4	274.0	245.3	190.9	133.9	103.2	110.7	142.7	103.4	51.22	41.71	52.46	165.5	869.1	 2966	 3461	 1314	20.50	3.799	2.789	2.018	1.616	1.344	1.163	1.124	0.956	0.905	0.808	0.680	0.622	0.595	0.647	0.681	0.766	0.916	0.793	0.892	0.785	0.650	0.632	0.598	0.655	0.575	0.577	0.704	0.664	0.647	0.768	0.945	0.979	1.045	1.193	1.351	1.284	1.283	1.357	1.367	1.401	1.391	1.271	1.164	1.100	0.921	0.796	0.666	0.621
355.0	280.5	276.8	204.8	160.6	133.8	128.3	142.5	167.6	203.4	237.0	271.4	281.7	276.8	248.6	196.3	140.7	107.2	92.82	97.43	135.7	110.7	49.95	43.70	64.48	213.3	686.5	 1524	 4940	 2148	27.87	3.810	2.729	2.008	1.550	1.301	1.229	1.188	1.051	0.832	0.737	0.590	0.594	0.638	0.726	0.760	0.860	0.790	0.829	0.869	0.605	0.644	0.680	0.661	0.584	0.654	0.700	0.632	0.614	0.763	0.852	1.082	1.019	1.124	1.421	1.314	1.276	1.354	1.343	1.532	1.393	1.447	1.383	1.155	0.952	0.786	0.772	0.596
360.0	269.1	262.5	210.9	158.5	138.8	135.8	145.9	170.9	203.2	237.3	266.5	276.7	275.1	248.2	199.4	144.1	111.5	93.49	84.36	107.0	147.3	82.22	47.09	44.67	70.54	169.6	380.9	 2428	 5502	 1560	17.73	3.321	2.419	2.017	1.575	1.246	1.125	1.123	0.930	0.656	0.728	0.702	0.586	0.658	0.716	0.911	0.839	0.847	0.839	0.630	0.661	0.774	0.623	0.593	0.655	0.681	0.639	0.644	0.880	0.853	0.955	1.093	1.231	1.336	1.362	1.364	1.320	1.280	1.451	1.254	1.338	1.349	1.108	0.965	0.826	0.745	0.589
365.0	263.9	260.0	206.6	161.5	143.8	139.8	147.9	171.8	200.7	237.1	262.5	275.6	269.9	248.7	203.4	148.2	117.0	97.75	85.19	87.90	128.5	128.9	58.42	44.17	42.58	57.50	99.86	632.9	 3480	 5243	302.7	7.729	3.020	2.324	1.874	1.582	1.298	1.006	0.868	0.740	0.710	0.625	0.573	0.696	0.802	0.922	0.750	0.913	0.813	0.641	0.604	0.673	0.686	0.650	0.715	0.668	0.768	0.728	0.882	0.997	0.907	1.011	1.138	1.216	1.389	1.386	1.264	1.302	1.395	1.466	1.318	1.324	1.054	0.953	0.940	0.776	0.740
370.0	259.4	252.6	201.6	162.4	148.6	144.5	152.3	173.2	203.5	234.5	260.6	271.1	266.8	245.4	199.7	154.4	125.1	108.0	96.13	90.43	97.17	127.7	116.5	63.77	42.60	38.43	41.45	156.1	892.4	 3071	 3467	 1189	17.86	3.370	2.472	1.970	1.551	1.140	0.977	0.835	0.741	0.732	0.699	0.764	0.831	0.845	0.815	0.823	0.813	0.632	0.635	0.756	0.735	0.643	0.757	0.689	0.775	0.704	0.873	0.871	0.947	1.101	1.193	1.309	1.354	1.362	1.423	1.363	1.297	1.328	1.194	1.199	1.150	1.050	0.883	0.846	0.774
375.0	245.8	245.5	202.7	163.0	157.2	152.0	161.1	174.5	204.3	233.7	255.1	264.7	263.8	240.7	202.5	161.9	135.5	118.7	109.5	100.0	96.42	100.0	127.9	120.4	54.76	43.13	35.14	54.56	213.6	706.0	 1628	 4774	 1836	23.05	3.760	2.756	2.029	1.475	1.128	0.884	0.860	0.766	0.850	0.782	0.729	0.825	0.832	0.812	0.682	0.658	0.631	0.780	0.673	0.791	0.724	0.742	0.754	0.838	0.926	0.945	0.934	1.041	1.176	1.317	1.308	1.281	1.402	1.287	1.300	1.391	1.280	1.314	1.144	1.212	0.961	0.843	0.803
380.0	260.2	227.0	207.6	170.3	165.0	161.4	163.7	177.3	207.5	237.0	256.7	267.0	261.5	245.1	212.1	168.0	141.8	128.2	119.8	110.0	104.4	97.95	108.8	143.7	96.09	52.19	41.75	38.19	68.17	173.9	404.8	 2470	 4898	295.6	14.63	4.430	3.069	2.109	1.340	1.043	0.925	0.708	0.857	0.839	0.909	0.839	0.822	0.786	0.803	0.693	0.653	0.701	0.757	0.840	0.694	0.800	0.778	0.854	0.934	0.898	0.985	0.990	1.141	1.141	1.351	1.317	1.229	1.370	1.468	1.314	1.260	1.305	1.083	1.079	1.014	0.815	0.809
385.0	239.1	240.8	205.5	175.2	168.3	165.7	175.7	183.9	217.7	245.0	270.4	276.4	278.3	257.1	224.9	180.7	155.1	138.0	131.3	124.9	116.9	110.0	108.1	132.0	141.5	81.56	51.88	46.10	46.43	64.35	112.9	655.2	 3287	 3977	241.7	9.410	5.441	3.257	1.882	1.299	0.983	0.807	0.808	0.844	0.852	0.965	0.813	0.906	0.788	0.706	0.696	0.735	0.788	0.728	0.845	0.784	0.914	0.906	0.973	0.860	1.055	0.988	1.071	1.225	1.314	1.280	1.382	1.386	1.352	1.372	1.272	1.280	1.321	0.962	1.115	0.963	0.960
390.0	238.0	246.9	213.7	193.1	192.9	193.5	202.8	222.4	259.2	312.3	353.5	369.7	364.8	342.2	293.8	239.5	197.6	176.0	164.8	161.5	159.3	156.5	155.9	159.9	181.1	172.8	126.0	101.0	85.40	84.16	88.30	202.3	889.3	 2571	 2807	920.3	21.39	9.916	4.436	2.099	1.271	1.116	0.857	0.988	0.846	0.933	0.924	0.954	0.843	0.782	0.828	0.967	0.839	0.963	0.952	0.940	1.017	1.003	1.165	1.064	1.221	1.224	1.418	1.505	1.677	1.658	1.845	1.780	1.725	1.803	1.685	1.768	1.639	1.422	1.332	1.352	1.284
395.0	256.3	263.3	248.9	234.6	246.9	258.6	277.3	315.5	412.5	520.0	595.4	636.3	630.8	577.8	491.9	394.3	304.1	256.8	240.8	245.0	255.2	268.8	281.8	287.2	294.3	310.6	305.4	256.9	229.1	214.4	203.0	207.1	335.4	697.8	 1475	 3833	 1457	31.13	12.41	4.610	2.340	1.617	1.296	1.177	1.026	1.116	1.108	1.202	1.092	1.070	1.063	1.315	1.249	1.280	1.258	1.370	1.411	1.392	1.569	1.579	1.692	1.772	2.001	2.281	2.427	2.636	2.796	2.923	2.787	2.813	2.752	2.615	2.525	2.246	1.995	1.890	1.731
400.0	296.0	299.3	289.2	294.1	301.7	343.5	372.3	462.2	625.0	803.7	947.1	 1017	 1001	915.2	772.5	602.1	444.5	357.0	338.0	349.9	377.7	413.5	432.3	436.4	428.5	484.7	507.8	400.8	383.3	372.8	358.0	337.1	331.9	373.2	548.7	 2240	 3988	259.4	27.74	8.835	3.542	2.084	1.784	1.448	1.393	1.362	1.472	1.499	1.358	1.477	1.367	1.707	1.521	1.643	1.646	1.731	1.806	1.767	1.982	2.097	2.379	2.447	2.887	3.696	3.796	4.097	4.157	4.287	4.221	4.205	4.061	4.017	3.792	3.458	2.855	2.730	2.635
405.0	325.6	338.4	348.2	367.4	399.2	435.7	517.7	640.8	869.6	 1155	 1366	 1443	 1446	 1316	 1108	807.9	607.5	480.9	449.1	475.5	509.6	580.5	640.3	681.6	699.6	713.0	731.4	724.0	672.4	633.4	604.6	552.2	484.6	432.1	393.9	841.7	 2880	 3229	215.9	15.44	5.003	2.732	2.357	1.928	1.715	1.664	1.658	1.735	1.748	1.822	1.788	2.029	2.133	2.153	2.323	2.232	2.225	2.428	2.601	2.704	3.357	3.487	4.284	4.980	5.387	5.531	6.065	6.023	6.037	6.048	5.702	5.626	5.054	4.402	4.423	3.685	3.397
410.0	356.8	384.7	416.3	440.1	485.5	538.4	648.1	814.4	 1137	 1506	 1803	 1949	 1900	 1713	 1450	 1099	780.9	604.3	563.1	601.7	669.1	755.1	837.7	904.3	940.7	950.1	954.9	965.9	952.5	890.8	840.6	773.9	670.7	571.0	507.6	552.7	 1005	 2287	 2407	778.8	15.30	4.012	2.894	2.342	2.213	1.998	1.968	2.107	2.170	2.143	2.176	2.561	2.622	2.785	2.741	2.692	2.895	2.942	3.057	3.377	3.933	4.635	5.398	6.256	6.830	7.129	7.788	7.802	7.754	7.616	7.418	7.084	6.613	5.897	5.425	4.820	4.253
415.0	364.7	389.1	436.2	458.3	515.3	567.3	695.1	869.6	 1214	 1614	 1927	 2100	 2031	 1834	 1541	 1169	829.5	641.2	596.5	645.3	720.9	807.0	899.4	974.1	 1010	 1023	 1020	 1014	 1008	980.8	911.4	831.3	715.0	608.8	535.6	491.9	497.6	665.6	 1304	 3001	 1053	15.40	3.503	2.654	2.482	2.232	2.172	2.293	2.351	2.322	2.285	2.728	2.757	2.821	2.839	2.757	3.244	3.152	3.248	3.597	4.019	4.948	5.726	6.662	7.414	7.917	8.199	8.278	8.132	8.240	7.790	7.488	7.027	6.127	5.783	5.159	4.300
420.0	349.4	391.8	423.3	455.4	494.3	569.1	680.4	862.0	 1197	 1583	 1912	 2060	 1995	 1818	 1518	 1160	816.0	633.4	588.1	638.5	714.9	798.6	892.1	965.1	995.2	 1004	 1003	990.4	966.8	957.4	906.8	806.4	692.8	588.2	514.7	452.8	364.2	282.9	371.8	 1745	 2896	224.2	7.947	2.986	2.571	2.442	2.228	2.235	2.256	2.245	2.258	2.680	2.918	2.804	2.704	2.746	2.925	3.001	3.349	3.663	4.016	4.965	5.835	6.807	7.294	7.832	7.990	7.962	7.920	7.901	7.559	7.232	7.052	6.002	5.621	5.189	4.274
425.0	330.8	376.5	413.3	452.3	485.5	550.0	674.7	850.9	 1183	 1574	 1894	 2037	 1982	 1790	 1504	 1150	808.2	630.2	590.0	644.4	714.7	804.7	891.9	965.8	994.4	997.8	995.1	979.7	948.6	926.3	898.9	801.0	680.7	574.0	506.6	437.9	329.2	194.6	136.0	482.7	 2165	 1888	170.4	3.965	2.746	2.603	2.241	2.413	2.286	2.336	2.338	2.620	2.862	2.639	2.622	2.814	2.836	2.887	3.366	3.533	4.052	4.891	5.870	6.459	7.300	7.697	8.049	8.079	8.083	7.792	7.918	7.201	6.697	6.073	5.548	5.076	4.273
430.0	343.7	373.7	427.5	462.8	508.4	568.2	696.3	892.1	 1238	 1642	 1990	 2142	 2069	 1870	 1572	 1198	840.9	651.7	613.0	665.0	748.1	844.8	935.2	 1012	 1046	 1055	 1046	 1029	997.5	955.8	934.0	862.3	730.6	607.5	533.9	464.0	343.8	188.0	90.25	129.7	586.0	 1569	 1879	601.4	10.62	2.954	2.430	2.586	2.532	2.416	2.400	2.791	2.953	2.817	2.777	2.915	2.914	3.126	3.322	3.699	4.126	4.795	5.876	6.729	7.321	7.582	8.259	8.434	8.398	8.056	8.006	7.445	7.197	6.360	5.690	5.146	4.562
435.0	501.9	373.8	424.6	473.2	532.7	606.9	725.1	921.5	 1278	 1716	 2043	 2204	 2138	 1920	 1610	 1233	860.4	660.1	626.6	679.5	769.9	867.9	964.3	 1049	 1087	 1096	 1088	 1073	 1041	992.2	960.2	891.5	783.2	646.8	563.3	491.1	365.6	198.0	85.95	53.69	141.7	365.2	 1013	 2400	223.2	11.92	2.974	2.924	2.836	2.524	2.521	2.932	3.181	3.058	2.866	2.913	2.982	3.362	3.435	3.809	4.195	5.176	5.951	6.774	7.836	7.800	8.481	8.782	8.669	8.132	7.980	7.927	7.323	6.280	5.653	5.392	4.759
440.0	804.3	374.7	410.4	454.0	521.3	585.5	720.1	898.8	 1252	 1667	 1984	 2142	 2075	 1866	 1555	 1191	836.0	644.1	607.9	660.5	746.5	837.8	936.2	 1016	 1057	 1067	 1058	 1046	 1015	965.9	927.3	858.7	761.6	644.8	552.9	480.1	361.7	195.3	82.97	36.45	43.36	89.59	258.2	 1565	 1818	188.1	5.089	2.944	2.810	2.653	2.379	2.799	3.066	2.988	2.979	3.135	3.019	3.093	3.322	3.605	4.442	4.914	5.916	6.940	7.759	7.710	8.028	8.572	8.442	8.069	7.999	7.752	7.148	6.056	5.520	5.029	4.375
445.0	 1176	428.6	394.9	431.7	482.9	558.7	664.2	850.0	 1154	 1542	 1843	 1972	 1912	 1726	 1441	 1105	777.2	601.4	567.5	617.9	696.4	782.4	871.1	940.9	979.2	987.2	980.4	967.0	936.2	889.4	856.3	786.4	693.9	602.8	515.9	441.7	331.7	181.1	79.79	33.54	22.08	28.71	64.23	447.6	 1890	 1624	25.15	3.543	2.830	2.541	2.452	2.775	2.757	2.826	2.786	2.795	2.968	3.039	3.431	3.411	3.974	4.757	5.282	6.596	6.795	7.357	7.427	7.476	7.410	7.635	7.377	7.184	6.478	5.668	5.035	4.569	4.055
450.0	 1222	798.4	371.6	380.6	432.3	489.1	582.1	739.3	 1011	 1333	 1585	 1690	 1641	 1484	 1241	950.4	672.3	526.8	496.8	540.4	608.8	682.0	756.9	815.3	843.6	847.5	839.2	823.8	800.3	760.7	727.7	668.1	580.8	504.3	450.4	382.7	282.4	156.3	70.40	31.65	18.70	15.95	21.66	106.1	527.7	 1475	 1639	490.8	8.807	2.527	2.393	2.500	2.418	2.510	2.374	2.391	2.610	2.699	2.981	2.963	3.537	4.233	4.655	5.457	5.972	6.279	6.539	6.488	6.665	6.474	6.263	5.960	5.483	5.092	4.517	3.997	3.394
455.0	707.4	 1303	504.3	334.6	378.5	430.0	515.2	638.1	879.0	 1156	 1357	 1444	 1406	 1270	 1058	818.5	579.8	454.6	434.4	467.1	524.3	590.3	652.5	700.9	726.2	725.4	713.8	703.5	681.4	649.1	619.2	566.5	491.3	420.6	379.7	336.3	244.4	135.1	63.69	30.17	18.64	14.50	13.37	30.47	122.8	344.3	941.1	 2000	187.2	9.258	2.394	2.310	2.339	2.319	2.312	2.189	2.373	2.269	2.455	2.577	3.157	3.703	4.078	4.782	5.179	5.502	5.553	5.619	5.728	5.642	5.399	5.116	4.798	4.102	4.151	3.550	2.889
460.0	357.0	 1315	819.9	325.0	350.1	390.5	472.6	580.6	798.4	 1040	 1231	 1308	 1254	 1141	956.2	738.8	517.7	411.3	393.7	421.0	475.4	533.3	590.5	635.5	655.6	656.7	649.7	635.6	613.4	585.7	559.6	510.2	441.5	378.2	338.1	306.0	230.4	126.6	59.75	30.01	18.70	14.61	11.77	13.75	33.08	81.60	237.4	 1292	 1531	146.7	4.337	2.476	2.369	2.223	2.153	2.109	2.097	2.224	2.251	2.558	2.831	3.215	3.705	4.218	4.633	4.881	5.320	5.016	4.869	5.118	4.640	4.506	4.172	3.811	3.695	3.039	2.724
465.0	226.3	923.9	 1221	372.2	324.6	369.8	432.2	536.3	733.4	951.6	 1112	 1190	 1147	 1036	869.0	670.3	474.4	376.6	357.4	385.7	434.9	486.9	537.8	579.8	598.3	597.8	589.1	582.8	561.9	535.5	509.0	467.1	405.5	345.3	308.5	276.4	218.8	122.6	57.74	29.99	19.32	15.20	12.14	10.24	13.67	23.13	57.22	363.6	 1524	 1254	21.15	2.951	2.320	1.998	1.923	1.921	2.042	2.168	2.130	2.362	2.714	2.998	3.332	3.697	4.276	4.491	4.584	4.805	4.689	4.593	4.303	4.220	3.872	3.325	3.405	2.873	2.522
470.0	188.2	426.0	 1209	748.4	301.2	321.7	376.8	469.7	630.6	822.9	954.0	 1016	984.3	890.8	743.0	572.5	408.4	323.8	307.7	333.1	371.9	416.3	459.9	496.2	511.3	511.0	506.8	497.9	480.6	459.8	435.7	400.3	347.6	296.7	263.4	232.8	183.4	116.0	57.54	28.81	19.43	15.26	12.09	10.29	9.436	10.13	17.02	85.00	424.8	 1114	 1217	406.1	8.308	2.139	1.923	1.746	1.840	1.802	1.907	1.999	2.264	2.703	2.965	3.288	3.742	3.731	3.888	4.057	4.094	3.764	3.648	3.534	3.280	3.018	2.632	2.326	2.173
475.0	178.1	223.5	647.3	 1183	426.9	268.5	313.0	388.0	514.6	668.3	787.3	824.1	804.8	727.2	606.4	466.1	333.9	266.9	258.6	274.7	305.7	341.3	374.9	401.5	418.3	419.1	412.6	405.2	390.1	375.0	355.1	326.0	282.9	242.9	216.3	190.1	146.7	95.53	57.71	30.42	19.71	14.83	12.19	10.06	8.802	7.525	8.199	22.63	97.48	257.3	638.5	 1439	184.0	8.940	1.996	1.716	1.582	1.573	1.705	1.734	1.891	2.313	2.412	2.857	3.016	3.096	3.226	3.364	3.164	3.179	3.013	2.714	2.737	2.457	2.249	1.941	1.696
480.0	185.4	168.9	316.7	 1109	735.6	243.5	275.6	334.7	448.1	573.2	662.6	701.6	674.8	612.6	519.5	394.2	283.1	228.0	220.2	238.0	263.7	292.2	322.4	341.3	353.7	354.4	350.3	340.9	330.9	316.7	299.6	276.6	237.1	205.0	182.3	159.1	123.9	78.84	53.31	34.21	20.74	15.03	12.28	10.29	8.734	7.067	6.332	8.593	24.87	60.03	159.0	846.0	 1285	159.6	3.954	1.810	1.659	1.570	1.464	1.528	1.848	1.996	2.035	2.433	2.627	2.812	2.732	2.710	2.767	2.607	2.583	2.222	2.294	2.052	1.988	1.684	1.524
485.0	167.7	155.9	192.6	721.4	 1089	300.1	246.8	295.8	384.8	492.0	572.9	606.6	575.7	522.3	443.1	340.1	244.4	199.9	189.8	208.3	227.8	252.4	277.9	295.9	302.9	303.1	300.6	293.9	283.3	268.6	255.5	236.3	205.4	177.6	156.5	136.7	106.9	67.68	44.30	35.30	23.45	15.04	12.34	10.48	8.634	7.217	5.762	5.531	8.653	16.11	37.96	226.4	 1078	 1164	25.12	2.458	1.673	1.486	1.377	1.399	1.449	1.747	1.839	2.096	2.285	2.330	2.457	2.336	2.303	2.158	2.230	2.093	1.933	1.958	1.487	1.474	1.206
490.0	136.4	155.2	146.6	314.6	 1046	659.1	230.0	252.5	325.4	410.5	475.9	499.0	479.9	431.5	363.7	280.8	207.6	167.3	161.5	172.7	192.1	210.9	232.2	244.9	251.6	251.9	248.5	243.1	234.1	222.8	211.5	195.6	169.5	147.2	130.6	113.7	89.32	56.56	35.72	29.60	26.24	17.95	12.56	10.44	8.610	7.427	6.155	5.606	5.253	6.315	11.00	53.04	287.4	840.7	 1043	374.3	8.611	1.539	1.404	1.283	1.343	1.482	1.671	1.715	1.846	1.926	2.000	2.006	2.075	1.814	1.810	1.701	1.553	1.495	1.309	1.273	0.999
495.0	98.01	142.8	133.3	163.5	523.0	 1115	346.2	210.4	272.4	337.0	385.0	406.3	398.7	354.5	296.0	232.4	172.9	139.2	132.4	143.7	158.6	174.1	190.8	200.7	206.7	205.7	203.8	198.5	192.1	183.7	175.5	162.1	139.8	121.0	107.8	94.69	74.73	47.70	30.78	22.76	23.20	21.81	14.37	10.33	8.556	7.524	6.182	5.543	5.017	4.524	5.059	14.31	66.28	193.9	572.9	 1333	204.6	9.732	1.634	1.252	1.225	1.342	1.405	1.364	1.468	1.699	1.640	1.523	1.585	1.562	1.478	1.450	1.224	1.082	1.125	0.958	0.906
500.0	77.66	129.1	138.4	120.9	228.6	 1029	708.4	199.2	233.3	288.4	332.4	345.7	332.5	301.8	252.8	196.8	146.1	120.6	114.4	122.0	134.0	149.1	161.6	171.6	176.5	176.4	173.8	170.7	164.9	156.9	149.2	138.6	119.5	104.2	92.92	82.86	64.57	42.54	27.63	20.11	18.37	21.14	17.30	10.92	8.695	7.269	6.282	5.718	5.046	4.302	3.914	5.723	17.19	45.44	141.9	762.8	 1258	175.8	4.112	1.257	1.320	1.155	1.208	1.306	1.340	1.446	1.463	1.257	1.364	1.280	1.241	1.178	1.064	0.949	0.908	0.753	0.764
505.0	67.25	104.0	133.6	102.8	136.4	632.0	 1065	262.2	206.7	251.2	285.1	296.6	282.7	254.6	216.2	168.2	124.6	103.5	100.3	106.0	116.0	127.0	140.0	146.5	151.7	151.5	148.3	147.2	142.2	134.9	129.9	118.9	103.9	89.86	80.77	71.80	56.38	37.95	24.55	18.32	15.78	17.57	18.39	12.84	8.704	7.298	6.159	5.516	5.037	4.341	3.794	3.829	6.181	12.32	33.82	201.1	959.7	 1102	27.89	2.048	1.208	1.075	1.102	1.077	1.356	1.216	1.211	1.212	1.304	1.105	1.157	0.863	0.921	0.911	0.851	0.727	0.570
510.0	54.87	75.00	109.7	100.1	98.27	253.8	925.3	672.6	191.0	203.6	230.8	239.1	227.7	206.9	173.7	135.8	102.2	84.82	81.80	86.65	94.69	102.8	112.5	117.7	121.7	121.6	119.3	118.3	113.8	108.1	104.2	95.89	84.20	73.15	65.64	58.30	45.82	31.93	21.51	16.34	13.84	13.14	15.12	15.03	10.46	7.389	6.092	5.518	4.965	4.349	4.120	3.491	3.630	4.876	9.565	46.63	250.5	725.5	881.6	322.2	8.841	1.071	1.039	1.023	1.039	0.989	1.043	0.958	0.959	0.947	0.828	0.765	0.792	0.706	0.603	0.625	0.495
515.0	45.66	54.85	80.87	102.9	81.76	116.3	413.7	 1017	276.9	160.6	182.0	183.9	180.7	159.5	134.3	106.6	81.16	66.16	64.14	67.96	73.70	81.32	87.87	93.54	94.08	95.08	92.46	91.98	88.16	84.07	80.51	73.64	66.59	57.17	51.61	45.88	37.18	25.99	18.35	14.25	12.14	10.83	11.00	13.11	12.75	8.663	6.206	5.470	4.627	4.123	4.153	3.654	3.182	3.110	3.980	12.06	57.32	165.0	396.5	995.7	209.0	9.304	1.211	0.900	0.858	0.863	0.889	0.705	0.836	0.694	0.656	0.627	0.499	0.674	0.537	0.502	0.350
520.0	39.58	48.55	58.47	93.46	77.30	77.26	172.5	857.7	681.1	151.1	150.4	152.8	148.5	131.0	110.7	88.65	68.18	55.37	53.92	56.86	61.43	67.31	72.30	76.72	78.42	78.47	78.14	75.77	73.07	70.40	67.04	61.65	54.93	47.30	42.32	37.87	31.63	22.24	16.41	13.09	11.04	9.799	9.381	10.57	12.38	9.992	6.823	5.222	4.366	3.948	3.805	3.549	3.102	2.596	2.724	4.260	14.27	38.10	95.40	536.4	925.1	165.3	3.125	0.932	0.797	0.741	0.673	0.590	0.729	0.652	0.634	0.506	0.452	0.552	0.343	0.321	0.274
525.0	30.17	39.51	48.58	76.17	81.15	67.43	89.26	481.4	989.8	221.1	126.3	129.4	124.2	112.8	94.59	74.96	57.54	47.45	47.19	48.60	53.62	56.80	61.19	64.19	65.75	66.12	63.69	63.85	61.57	58.96	56.48	52.14	46.29	40.70	35.69	32.50	26.61	19.66	14.74	11.53	10.07	9.194	8.486	8.235	10.32	10.91	7.880	5.071	4.315	3.790	3.515	3.224	2.953	2.478	2.486	2.460	4.524	9.601	22.54	137.2	638.2	791.0	27.68	1.539	0.779	0.783	0.630	0.566	0.556	0.519	0.542	0.371	0.419	0.318	0.300	0.314	0.268
530.0	27.20	35.13	40.84	54.71	75.63	60.40	63.32	180.5	785.9	655.8	138.3	105.8	101.1	90.74	76.16	60.56	47.09	39.04	38.54	39.23	42.93	45.92	49.04	52.49	52.56	53.17	51.41	51.09	49.71	47.35	44.94	42.19	37.54	32.69	29.85	26.63	22.12	16.50	12.56	9.931	8.923	8.170	7.593	6.967	7.213	9.110	8.853	6.069	4.132	3.563	3.226	2.959	2.681	2.636	2.272	1.959	2.298	3.280	5.994	31.54	161.6	485.7	615.5	124.4	8.075	0.694	0.547	0.532	0.465	0.444	0.417	0.294	0.302	0.326	0.242	0.174	0.233
535.0	19.01	28.11	33.70	36.01	63.13	65.79	50.38	81.04	316.6	897.6	374.7	85.54	79.80	72.43	61.17	47.35	38.43	31.02	30.57	32.17	34.32	36.34	39.35	40.32	41.51	42.52	41.35	40.49	39.41	37.83	35.91	34.07	29.88	26.44	23.65	22.08	17.82	13.90	10.38	8.780	7.789	7.127	6.703	5.946	5.815	6.281	7.827	7.478	4.857	3.389	3.067	2.675	2.451	2.248	2.113	1.925	1.674	1.779	2.237	7.832	36.67	109.8	257.5	676.3	206.0	8.882	0.654	0.413	0.460	0.358	0.361	0.251	0.237	0.237	0.273	0.150	0.109
540.0	15.84	25.16	29.30	31.26	45.78	63.42	46.80	53.99	122.5	688.4	703.6	96.08	67.32	61.18	51.40	40.01	32.11	26.99	26.14	26.60	28.61	30.87	33.26	34.84	34.55	34.93	34.61	33.93	32.94	31.65	29.84	28.38	25.31	22.57	20.34	18.86	15.53	11.97	9.126	7.976	7.078	6.317	6.028	5.456	5.128	4.847	5.969	7.141	5.774	3.465	2.872	2.569	2.224	1.987	1.846	1.857	1.453	1.337	1.381	2.518	8.891	25.09	61.09	348.3	683.8	160.1	2.796	0.488	0.437	0.348	0.246	0.244	0.168	0.158	0.090	0.174	0.022
545.0	19.12	22.72	27.73	24.62	33.94	59.07	52.07	42.88	63.73	365.5	876.9	172.7	58.49	50.77	42.70	33.96	27.96	23.54	21.33	23.12	24.80	25.98	28.42	28.90	29.76	29.66	29.90	29.05	27.87	27.36	25.91	24.12	22.11	19.76	17.48	16.44	13.23	10.38	8.254	7.153	6.275	5.798	5.456	4.929	4.769	4.226	4.659	5.947	6.341	3.939	2.747	2.354	1.948	1.894	1.682	1.573	1.369	1.208	1.138	1.289	2.585	6.199	14.31	88.07	443.7	594.8	28.15	1.044	0.456	0.372	0.287	0.215	0.186	0.216	0.109	0.087	0.187
550.0	17.60	21.09	23.82	20.53	25.06	42.00	55.04	39.12	44.79	130.7	595.5	583.0	85.63	40.13	34.68	27.48	23.28	19.06	18.37	19.67	19.67	20.57	22.93	23.15	23.87	24.00	24.08	23.48	22.50	21.89	21.43	19.39	17.83	16.01	14.36	13.13	11.14	8.692	7.159	6.131	5.450	5.077	4.666	4.413	4.071	3.883	3.722	4.205	5.256	4.833	3.224	2.265	1.757	1.715	1.529	1.397	1.319	1.274	0.952	0.882	1.157	1.909	3.753	20.10	111.2	345.8	445.0	122.7	7.368	0.336	0.251	0.178	0.131	0.121	0.081	0.109	0.096
555.0	21.97	18.76	18.51	17.90	19.24	27.50	46.42	42.13	35.13	55.86	215.5	671.6	335.2	33.18	27.83	22.59	17.89	15.64	15.05	15.25	16.00	16.21	18.07	18.41	18.54	18.70	18.85	18.24	17.67	17.31	17.17	15.33	14.08	12.39	11.46	10.32	8.754	7.160	5.970	5.235	4.511	4.064	3.908	3.561	3.524	3.208	3.282	2.960	3.551	4.271	4.105	2.399	1.617	1.439	1.451	1.161	1.112	1.073	1.024	0.745	0.738	0.816	1.220	4.875	25.20	78.03	175.7	465.8	189.4	6.463	0.269	0.143	0.130	0.068	0.064	0.037	0.053
560.0	17.18	18.41	18.91	15.93	15.45	20.02	35.21	43.70	30.82	36.83	77.45	454.9	597.6	59.59	22.51	18.59	14.30	12.96	12.30	12.49	12.98	13.97	14.39	15.03	15.15	15.29	15.15	13.90	14.12	13.96	13.47	12.06	11.73	10.19	9.255	8.469	7.276	6.470	4.913	4.530	3.944	3.847	3.528	3.251	3.099	2.789	2.833	2.573	2.588	3.300	4.153	2.950	1.556	1.393	1.130	0.988	1.042	0.878	0.878	0.891	0.680	0.579	0.718	1.528	5.938	17.69	41.34	225.8	461.6	31.46	1.856	0.196	0.092	0.052	0.027	0.043	0.003
565.0	13.82	22.44	15.21	12.39	14.31	17.05	26.67	45.46	32.90	29.88	39.69	216.8	672.5	128.6	19.32	15.02	11.67	10.66	10.23	10.48	10.65	11.52	12.10	12.33	11.98	12.61	12.14	11.96	11.94	11.44	10.89	10.22	9.525	8.891	7.826	7.081	6.194	5.163	3.984	3.986	3.394	3.412	2.992	2.662	2.752	2.392	2.520	2.154	1.966	2.308	3.297	3.046	1.823	1.303	0.966	0.889	0.826	0.853	0.740	0.748	0.593	0.423	0.528	0.639	1.676	4.249	9.631	55.80	279.2	361.1	26.86	0.505	0.103	0.092	0.094	0.114	0.083
570.0	16.36	18.32	13.27	10.69	11.02	13.60	16.33	32.63	35.77	24.78	27.24	73.28	397.4	482.3	56.81	11.39	9.240	8.337	8.081	8.165	8.447	8.534	9.136	9.502	9.248	9.504	9.421	9.127	8.922	8.771	8.465	7.833	7.088	6.561	5.955	5.542	4.856	4.181	3.373	3.161	2.840	2.640	2.414	2.179	2.222	1.943	1.923	1.855	1.565	1.662	1.923	2.499	2.058	1.331	0.924	0.785	0.677	0.589	0.576	0.584	0.539	0.471	0.375	0.407	0.706	1.213	2.374	12.76	68.93	204.4	240.8	99.64	4.951	0.179	0.035	0.067	0.035
575.0	11.24	14.34	12.34	8.673	8.640	9.652	11.39	19.04	36.49	25.94	21.36	30.16	129.6	479.4	310.1	10.85	7.466	6.047	5.851	6.320	6.287	6.583	6.886	6.879	6.767	6.969	7.110	6.753	6.761	6.675	6.304	5.677	5.172	4.831	4.600	3.937	3.727	2.993	2.754	2.408	2.106	2.013	1.847	1.845	1.818	1.523	1.435	1.493	1.225	1.177	1.370	1.510	1.846	1.473	0.955	0.587	0.567	0.560	0.439	0.472	0.480	0.487	0.378	0.286	0.332	0.513	0.697	3.073	15.55	46.02	94.83	256.4	116.6	3.353	0.123	0.032	0.011
580.0	15.72	16.36	11.53	9.461	6.591	8.186	8.977	14.11	29.28	28.74	20.29	21.48	42.25	291.1	513.2	47.87	5.912	5.375	4.644	4.913	4.804	5.190	5.345	6.017	5.425	5.898	5.755	5.387	5.095	5.153	4.763	4.804	4.427	3.932	3.539	3.407	3.074	2.474	2.386	1.706	1.808	1.635	1.440	1.442	1.489	1.335	1.117	1.106	1.014	0.929	1.030	0.935	1.365	1.585	1.015	0.681	0.577	0.441	0.316	0.326	0.391	0.407	0.396	0.338	0.243	0.228	0.347	0.833	3.562	10.38	22.34	122.7	244.1	29.47	0.920	0.042	-0.022
585.0	15.91	10.76	11.07	7.567	5.317	8.256	8.821	10.66	23.20	33.19	19.55	18.41	21.55	127.5	502.4	201.2	5.317	4.360	3.994	3.978	3.960	4.067	4.198	4.558	4.372	4.800	4.880	4.323	4.387	4.150	3.939	4.008	3.644	3.373	2.765	2.628	2.583	2.275	1.872	1.423	1.664	1.298	1.286	1.246	1.351	1.191	1.121	0.900	0.848	0.719	0.768	0.694	0.843	1.338	1.206	0.718	0.519	0.389	0.277	0.274	0.339	0.291	0.369	0.428	0.285	0.186	0.198	0.331	0.893	2.487	5.105	30.27	147.7	186.8	22.70	0.161	0.026
590.0	13.98	12.77	8.821	5.046	4.044	6.063	7.138	8.787	15.61	30.97	24.19	15.99	15.65	39.84	261.5	418.6	42.06	3.541	3.303	3.071	3.205	3.225	3.532	3.602	3.500	3.562	3.559	3.459	3.388	3.335	3.088	3.018	2.835	2.572	2.289	2.118	1.991	1.746	1.541	1.285	1.234	1.058	1.046	0.911	1.034	0.850	0.808	0.748	0.686	0.679	0.593	0.569	0.540	0.815	1.052	0.902	0.564	0.323	0.294	0.216	0.259	0.171	0.220	0.319	0.321	0.175	0.183	0.183	0.320	0.641	1.213	6.834	36.61	105.7	139.4	55.14	2.593
595.0	6.829	12.07	7.339	3.955	3.733	4.524	6.169	7.941	12.75	22.49	27.55	16.81	13.71	16.25	76.82	343.4	265.7	5.530	2.889	2.363	2.619	2.545	2.496	2.627	2.854	2.753	2.818	2.769	2.873	2.761	2.390	2.438	2.210	1.892	1.888	1.719	1.673	1.294	1.144	1.054	0.981	0.854	0.835	0.830	0.771	0.592	0.745	0.622	0.603	0.549	0.424	0.351	0.414	0.415	0.711	0.796	0.606	0.371	0.241	0.172	0.213	0.194	0.129	0.178	0.251	0.220	0.130	0.225	0.211	0.238	0.288	1.592	8.163	23.80	53.98	142.0	32.38
600.0	12.30	10.74	8.368	4.610	2.676	3.600	4.507	7.447	9.576	16.05	27.55	18.85	12.14	10.34	22.20	185.6	405.1	39.75	2.226	1.954	2.190	2.095	2.381	2.335	2.371	2.170	2.273	2.177	2.163	2.275	1.971	2.113	1.907	1.668	1.478	1.373	1.307	1.138	0.939	0.901	0.766	0.745	0.780	0.710	0.648	0.648	0.547	0.506	0.517	0.430	0.341	0.340	0.316	0.310	0.461	0.662	0.777	0.430	0.226	0.222	0.119	0.138	0.167	0.144	0.126	0.311	0.177	0.126	0.115	0.173	0.133	0.390	1.808	5.368	12.60	69.15	127.7
605.0	9.391	6.499	7.720	5.681	2.218	3.271	4.142	5.813	8.012	12.44	23.43	22.54	11.57	9.180	9.173	71.35	367.5	174.3	2.557	1.883	1.844	1.897	1.855	1.914	1.644	1.847	1.810	1.915	1.913	1.964	1.836	1.769	1.524	1.627	1.431	1.126	1.148	1.022	0.826	0.755	0.736	0.645	0.572	0.608	0.531	0.560	0.468	0.405	0.414	0.396	0.377	0.312	0.279	0.267	0.294	0.461	0.578	0.684	0.275	0.197	0.109	0.101	0.166	0.095	0.189	0.203	0.225	0.166	0.073	0.105	0.061	0.125	0.365	1.173	2.912	17.44	81.09
610.0	6.087	8.347	6.768	3.313	2.742	3.411	3.792	5.272	6.814	10.04	17.15	23.14	14.11	7.812	5.981	19.90	171.7	329.4	36.43	1.587	1.618	1.637	1.483	1.582	1.569	1.586	1.590	1.660	1.565	1.539	1.590	1.419	1.310	1.267	1.174	1.072	0.976	0.930	0.673	0.630	0.535	0.422	0.456	0.444	0.470	0.400	0.397	0.372	0.343	0.314	0.296	0.272	0.174	0.215	0.185	0.243	0.354	0.549	0.301	0.150	0.081	0.143	0.140	0.125	0.094	0.097	0.189	0.191	0.063	0.115	0.010	0.027	0.066	0.277	0.624	3.914	20.18
615.0	5.826	5.917	5.991	2.215	1.959	3.223	3.292	4.520	6.094	9.073	12.63	19.89	18.24	7.732	4.677	7.042	46.33	241.1	229.1	4.217	1.456	1.140	1.267	1.323	1.189	1.187	1.251	1.253	1.267	1.337	1.327	1.305	1.079	1.074	1.056	0.836	0.709	0.641	0.573	0.587	0.454	0.372	0.391	0.299	0.370	0.343	0.323	0.242	0.240	0.237	0.197	0.203	0.170	0.137	0.083	0.142	0.258	0.403	0.367	0.218	0.090	0.151	0.109	0.124	0.076	0.089	0.114	0.162	0.114	0.064	-0.031	-0.029	0.032	0.074	0.077	0.867	4.518
620.0	9.268	7.496	4.903	1.766	2.081	3.179	1.936	3.782	6.446	8.207	10.18	16.63	20.70	9.142	4.751	3.702	12.17	117.0	328.7	38.86	1.275	1.121	1.273	1.103	1.001	0.850	0.981	0.968	1.186	1.140	0.930	1.177	0.819	0.820	0.939	0.714	0.620	0.544	0.613	0.515	0.404	0.443	0.223	0.302	0.316	0.271	0.283	0.213	0.247	0.202	0.141	0.145	0.147	0.146	0.095	0.113	0.200	0.234	0.260	0.236	0.136	0.125	0.053	0.140	0.008	0.073	0.122	0.060	0.111	0.077	0.005	0.014	0.018	-0.008	0.076	0.147	1.023
625.0	4.445	5.385	5.259	1.426	2.073	2.285	3.152	4.064	5.929	8.308	9.589	12.31	18.98	11.46	4.599	2.833	4.487	41.89	271.0	162.2	1.622	1.273	1.087	0.903	1.014	0.937	0.965	0.891	1.051	0.810	0.749	0.920	0.775	0.732	0.699	0.551	0.559	0.385	0.447	0.389	0.326	0.334	0.172	0.241	0.249	0.222	0.312	0.243	0.179	0.127	0.171	0.123	0.053	0.115	0.130	0.181	0.079	0.118	0.230	0.266	0.162	0.101	0.013	0.124	-0.030	0.041	0.058	-0.014	0.136	0.031	0.029	-0.025	-0.004	0.006	-0.047	0.006	0.223
630.0	2.875	5.871	4.481	2.709	1.680	2.268	2.275	4.089	5.601	6.790	8.971	10.02	14.59	13.68	5.263	2.572	2.439	11.17	113.4	274.5	33.28	1.094	1.004	0.794	0.788	0.815	0.783	0.741	0.864	0.687	0.727	0.703	0.610	0.596	0.551	0.532	0.475	0.362	0.303	0.341	0.363	0.247	0.180	0.159	0.200	0.212	0.187	0.204	0.145	0.121	0.131	0.094	0.065	0.113	0.079	0.121	0.017	0.085	0.074	0.176	0.190	0.098	0.057	0.061	0.056	0.038	0.031	0.028	0.078	0.044	0.021	0.023	-0.038	-0.039	-0.066	-0.007	0.036
635.0	2.700	6.437	4.661	2.705	1.543	2.258	3.434	3.814	4.690	7.068	9.242	8.990	9.804	13.49	7.179	2.647	1.669	3.689	28.90	170.4	209.0	3.943	0.850	0.745	0.686	0.757	0.650	0.767	0.772	0.633	0.576	0.673	0.565	0.565	0.432	0.417	0.473	0.380	0.327	0.233	0.212	0.263	0.180	0.153	0.225	0.225	0.135	0.174	0.131	0.127	0.101	0.084	0.042	0.111	0.022	0.048	0.056	-0.006	0.021	0.070	0.119	0.126	0.042	0.028	0.000	0.007	0.050	0.018	0.026	0.033	-0.045	0.033	0.042	-0.014	-0.091	-0.090	-0.034
640.0	3.060	3.669	4.268	1.546	1.906	1.683	2.349	3.891	4.530	6.530	7.889	8.306	8.756	11.55	10.01	3.444	1.814	2.072	7.760	74.81	282.6	35.03	0.782	0.802	0.610	0.809	0.692	0.714	0.623	0.519	0.539	0.565	0.495	0.528	0.434	0.406	0.383	0.311	0.230	0.210	0.187	0.199	0.170	0.123	0.159	0.215	0.095	0.213	0.122	0.113	0.093	0.038	0.080	0.048	0.075	0.020	0.043	0.007	-0.017	0.024	0.087	0.141	0.114	0.032	-0.042	0.078	0.009	-0.024	0.001	-0.001	-0.011	0.025	0.053	0.015	-0.057	-0.034	-0.020
645.0	0.480	3.001	2.046	3.142	1.501	0.983	2.115	2.801	5.200	6.372	7.791	8.219	7.522	8.812	10.68	3.827	1.844	1.736	2.884	24.07	214.0	144.8	1.551	0.720	0.657	0.647	0.764	0.588	0.550	0.518	0.579	0.495	0.447	0.403	0.362	0.359	0.329	0.242	0.156	0.234	0.152	0.192	0.239	0.135	0.128	0.152	0.152	0.120	0.058	0.100	0.033	-0.006	0.039	0.036	0.068	-0.012	0.056	0.076	-0.020	0.004	0.029	0.134	0.095	0.025	0.036	0.031	-0.038	-0.025	-0.006	-0.071	-0.016	-0.009	0.043	-0.036	-0.076	-0.031	-0.045
650.0	-0.236	3.339	3.304	2.620	2.210	1.172	1.918	3.231	4.382	6.183	7.014	7.844	7.911	7.265	10.03	5.434	1.864	1.906	1.441	6.670	105.6	241.2	14.12	0.611	0.621	0.693	0.637	0.554	0.472	0.431	0.356	0.483	0.488	0.384	0.431	0.275	0.261	0.196	0.173	0.266	0.137	0.081	0.259	0.218	0.181	0.091	0.099	0.086	0.073	0.138	0.035	0.041	-0.003	-0.009	0.055	0.055	0.085	0.043	0.033	0.007	-0.019	0.077	0.070	-0.027	0.057	0.022	0.023	-0.022	-0.017	-0.032	0.037	-0.020	-0.028	0.013	-0.025	-0.099	-0.071
