Sample:	'1
File name:	G2025051423µÂÈð·áÊÂ¹Ê³Ø 25±¶.FD3
Run date:	'16:39:04, 05/21/2025
Operator:	Administrator
Comment:	'

Instrument
Model:	F-2700 FL Spectrophotometer
Serial number:	23B8-004
ROM Version:	4J14000 07

Instrument parameters
Measurement type:	3-D scan
Data mode:	Fluorescence
EX  Start WL:	220.0 nm
EX  End WL:	600.0 nm
EX Sampling interval:	5.0 nm
EM  Start WL:	230.0 nm
EM  End WL:	650.0 nm
EM Sampling interval:	5.0 nm
Scan speed:	12000 nm/min
EX Slit:	5.0 nm
EM Slit:	5.0 nm
PMT Voltage:	700 V
Response:	Auto 
Corrected spectra:	Off
Contour interval:	50.000

Peak integration
Integration method:	Rectangular
Sensitivity:	1
Threshold:	1.000

Peaks
No.	ApexEX/EM(nm)	Height(Data)
1	225.0/490.0	173.7
2	230.0/500.0	159.6
3	235.0/515.0	133.5
4	240.0/265.0	382.9
5	240.0/525.0	126.1
6	245.0/270.0	425.3
7	245.0/540.0	118.6
8	250.0/275.0	631.6
9	250.0/550.0	117.7
10	255.0/565.0	135.1
11	260.0/290.0	1043
12	260.0/575.0	138.9
13	265.0/295.0	1119
14	265.0/585.0	123.6
15	270.0/300.0	1155
16	270.0/600.0	97.89
17	275.0/610.0	63.32
18	280.0/625.0	48.29
19	285.0/320.0	563.3
20	285.0/635.0	34.12
21	290.0/325.0	483.3
22	295.0/330.0	328.1
23	300.0/335.0	314.8
24	305.0/345.0	275.1
25	310.0/350.0	197.4
26	315.0/355.0	193.7
27	320.0/365.0	170.7
28	325.0/370.0	146.8
29	330.0/375.0	145.4
30	335.0/380.0	150.0
31	345.0/395.0	110.0
32	350.0/400.0	118.8
33	355.0/405.0	106.0
34	360.0/410.0	92.05
35	365.0/420.0	90.99
36	370.0/425.0	81.99
37	375.0/430.0	63.68
38	380.0/435.0	55.59
39	385.0/445.0	50.63
40	390.0/290.0	7.157
41	390.0/450.0	38.45
42	395.0/455.0	32.96
43	400.0/465.0	29.43
44	405.0/470.0	22.88
45	410.0/475.0	19.06
46	415.0/485.0	17.56
47	420.0/490.0	13.78
48	425.0/500.0	12.92
49	430.0/505.0	11.57
50	435.0/510.0	9.228
51	440.0/520.0	9.018
52	445.0/290.0	9.936
53	445.0/525.0	7.693
54	455.0/540.0	5.370
55	460.0/550.0	4.386
56	465.0/555.0	3.508
57	470.0/560.0	3.031
58	485.0/265.0	2.217
59	495.0/270.0	2.401
60	505.0/275.0	3.759
61	510.0/280.0	4.596
62	520.0/285.0	5.235
63	525.0/290.0	5.372
64	540.0/295.0	5.906
65	545.0/300.0	6.315
66	550.0/305.0	5.434
67	560.0/310.0	3.766
68	570.0/315.0	3.454
69	580.0/320.0	3.411
70	585.0/325.0	3.521

Data points
	220.0	225.0	230.0	235.0	240.0	245.0	250.0	255.0	260.0	265.0	270.0	275.0	280.0	285.0	290.0	295.0	300.0	305.0	310.0	315.0	320.0	325.0	330.0	335.0	340.0	345.0	350.0	355.0	360.0	365.0	370.0	375.0	380.0	385.0	390.0	395.0	400.0	405.0	410.0	415.0	420.0	425.0	430.0	435.0	440.0	445.0	450.0	455.0	460.0	465.0	470.0	475.0	480.0	485.0	490.0	495.0	500.0	505.0	510.0	515.0	520.0	525.0	530.0	535.0	540.0	545.0	550.0	555.0	560.0	565.0	570.0	575.0	580.0	585.0	590.0	595.0	600.0
230.0	79.46	763.3	2147	791.5	47.05	6.800	5.883	5.019	3.949	3.199	3.144	2.810	2.349	2.019	1.705	1.342	1.148	1.167	1.046	1.076	1.010	0.763	0.745	0.663	0.791	0.630	0.646	0.634	0.604	0.593	0.579	0.484	0.482	0.472	0.482	0.449	0.464	0.456	0.412	0.428	0.517	0.797	0.898	0.589	0.378	0.353	0.864	3.884	6.327	5.126	1.989	0.604	0.305	0.314	0.309	0.293	0.291	0.290	0.297	0.291	0.290	0.314	0.311	0.307	0.304	0.278	0.301	0.293	0.298	0.255	0.312	0.296	0.286	0.313	0.336	0.327	0.306
235.0	203.4	236.5	1110	2191	617.8	58.18	7.206	5.187	5.947	4.238	3.526	2.735	2.596	1.744	1.677	1.318	1.127	1.019	1.102	1.091	0.984	0.860	0.833	0.725	0.816	0.647	0.638	0.711	0.761	0.666	0.577	0.503	0.549	0.437	0.449	0.433	0.490	0.400	0.428	0.516	0.497	0.521	0.686	0.915	0.875	0.529	0.448	1.163	2.428	4.446	6.429	7.765	3.942	0.964	0.302	0.248	0.295	0.295	0.324	0.334	0.281	0.299	0.296	0.301	0.311	0.296	0.278	0.296	0.307	0.287	0.335	0.279	0.349	0.344	0.348	0.314	0.340
240.0	264.8	211.2	335.0	1611	2879	463.3	27.10	5.441	5.381	4.084	3.546	2.802	2.444	2.136	1.798	1.306	1.180	1.172	0.957	1.070	0.959	0.747	0.866	0.793	0.725	0.682	0.616	0.675	0.715	0.668	0.618	0.556	0.508	0.466	0.496	0.471	0.434	0.497	0.443	0.444	0.387	0.447	0.512	0.651	0.904	0.910	0.677	0.606	0.839	1.443	3.339	9.284	12.46	7.948	2.487	0.571	0.413	0.322	0.297	0.352	0.305	0.255	0.354	0.306	0.303	0.325	0.278	0.295	0.298	0.282	0.318	0.264	0.303	0.312	0.371	0.283	0.345
245.0	178.8	301.5	170.3	521.8	2807	2591	325.2	10.71	5.720	4.287	4.096	3.428	2.607	2.571	2.030	1.399	1.244	1.271	1.084	1.073	1.041	0.811	0.868	0.668	0.833	0.704	0.654	0.680	0.632	0.624	0.651	0.555	0.502	0.497	0.491	0.493	0.483	0.402	0.459	0.452	0.420	0.416	0.426	0.493	0.630	0.804	1.249	0.926	0.589	0.577	0.995	3.098	8.042	12.96	11.04	6.752	1.816	0.375	0.361	0.329	0.320	0.353	0.344	0.339	0.349	0.351	0.322	0.299	0.283	0.270	0.326	0.283	0.300	0.281	0.306	0.277	0.287
250.0	76.56	191.3	293.2	233.0	873.4	2333	3903	942.9	66.58	5.950	5.137	3.635	2.928	2.526	2.282	1.542	1.437	1.378	1.263	1.111	1.038	0.832	0.918	0.774	0.866	0.733	0.708	0.691	0.676	0.605	0.703	0.578	0.523	0.564	0.455	0.425	0.451	0.463	0.507	0.468	0.416	0.389	0.499	0.392	0.447	0.509	0.746	1.001	1.096	0.997	0.767	1.096	2.129	4.175	6.512	10.78	12.45	10.53	6.035	2.058	0.438	0.342	0.365	0.323	0.343	0.352	0.277	0.296	0.291	0.290	0.321	0.281	0.300	0.300	0.303	0.325	0.330
255.0	43.07	73.21	202.9	356.7	304.4	587.6	3122	3958	1534	52.06	6.306	5.256	4.464	2.996	2.407	1.517	1.792	1.331	1.360	1.145	1.081	0.831	0.887	0.876	1.102	0.746	0.839	0.605	0.775	0.531	0.773	0.546	0.533	0.578	0.442	0.403	0.420	0.447	0.435	0.443	0.472	0.492	0.533	0.395	0.453	0.395	0.481	0.545	0.631	0.997	1.426	1.606	1.051	1.309	1.742	2.800	4.774	10.21	18.43	19.19	9.614	2.551	0.413	0.337	0.354	0.322	0.336	0.329	0.296	0.345	0.332	0.303	0.401	0.306	0.291	0.307	0.378
260.0	43.47	43.47	81.49	309.9	334.7	193.3	937.4	3268	5434	263.8	24.54	7.362	4.451	3.190	2.760	1.601	1.793	1.247	1.488	1.137	1.492	0.987	0.894	0.935	1.089	0.792	0.693	0.636	0.760	0.662	0.621	0.563	0.605	0.637	0.514	0.428	0.386	0.458	0.465	0.467	0.451	0.492	0.481	0.420	0.423	0.439	0.382	0.355	0.375	0.498	0.961	2.077	1.856	1.147	0.760	0.983	1.401	3.016	8.145	18.69	24.86	21.51	7.324	1.062	0.445	0.338	0.320	0.346	0.308	0.359	0.282	0.322	0.352	0.328	0.338	0.278	0.360
265.0	65.31	49.51	45.60	146.8	382.9	258.0	252.4	1110	5601	4532	207.2	12.27	6.053	3.896	3.450	1.907	1.917	1.391	1.564	1.202	1.671	0.771	1.022	0.902	1.056	0.917	0.784	0.695	0.715	0.690	0.707	0.555	0.698	0.582	0.595	0.464	0.402	0.465	0.495	0.416	0.466	0.463	0.456	0.485	0.500	0.500	0.477	0.327	0.431	0.343	0.501	1.055	1.746	2.217	1.522	0.851	0.668	1.052	2.153	5.685	13.52	27.61	29.15	15.15	7.672	0.730	0.313	0.326	0.337	0.330	0.313	0.318	0.334	0.353	0.331	0.336	0.320
270.0	652.4	610.0	356.2	153.7	221.7	425.3	311.0	340.3	1846	4610	5995	784.6	42.44	5.546	4.338	2.548	2.151	1.722	1.834	1.512	1.430	1.006	1.028	1.000	1.114	0.834	0.804	0.803	0.771	0.738	0.730	0.686	0.992	1.142	1.361	1.191	0.934	0.835	0.844	0.839	0.821	1.046	1.116	1.315	1.576	1.635	1.557	1.567	1.208	0.792	0.616	0.680	0.862	1.426	1.911	2.401	1.902	1.222	1.013	1.864	3.802	8.297	14.72	19.98	36.99	28.68	12.27	3.860	0.715	0.413	0.395	0.345	0.366	0.349	0.349	0.349	0.345
275.0	2180	1822	1189	416.9	173.8	268.0	631.6	412.0	662.1	1391	4812	7875	1032	25.49	6.553	3.453	2.648	2.251	2.092	1.953	1.655	1.117	1.031	0.930	1.174	0.862	0.962	0.938	0.911	0.751	0.844	0.923	1.765	2.453	3.620	3.293	2.530	1.990	1.758	1.967	2.138	2.675	2.777	3.709	4.289	5.006	4.754	4.835	3.622	2.113	1.267	1.046	0.827	0.947	1.020	1.634	2.801	3.759	2.778	1.846	2.142	2.956	4.648	5.899	12.44	21.33	31.24	32.50	20.20	4.269	0.534	0.412	0.393	0.537	0.451	0.416	0.437
280.0	3320	3178	1944	647.9	212.0	214.0	536.9	829.5	588.5	673.0	1681	6678	7791	142.3	15.02	4.293	3.825	2.703	2.469	2.135	1.830	1.365	1.098	1.068	1.328	0.995	0.961	0.992	1.005	0.694	0.895	1.025	2.328	3.904	5.300	5.107	3.670	2.889	2.256	2.844	2.783	3.628	4.429	5.097	6.675	7.611	7.377	7.216	5.319	3.308	1.852	1.287	0.884	0.898	0.922	1.184	1.823	3.423	4.596	3.900	2.813	2.575	2.891	3.199	4.433	6.895	12.25	29.35	45.68	30.30	15.18	2.060	0.475	0.556	0.471	0.526	0.528
285.0	4256	4187	2547	873.9	281.9	229.5	392.8	888.2	936.6	646.4	775.1	2277	8990	4523	111.0	6.682	4.368	3.567	2.782	2.525	1.936	1.448	1.493	1.092	1.371	1.027	1.176	1.052	0.929	0.825	0.931	1.064	2.680	4.798	6.953	5.879	4.548	3.451	3.301	3.287	3.855	4.753	5.777	7.121	9.044	9.690	9.309	9.409	7.050	4.487	2.467	1.622	1.166	0.908	1.104	1.194	1.564	2.301	3.354	5.001	5.235	4.030	3.102	2.920	2.910	3.694	4.415	8.458	19.18	35.47	51.64	26.20	7.728	1.046	0.726	0.615	0.589
290.0	4499	4355	2710	953.3	316.6	253.9	357.3	608.5	1043	1006	652.3	736.0	2739	5043	6667	401.5	18.48	4.392	3.729	2.817	2.432	1.628	1.619	1.464	1.709	1.062	1.183	0.938	1.009	0.831	0.890	1.176	2.764	5.332	7.157	6.375	4.807	3.859	3.420	3.464	4.022	4.987	6.024	7.582	9.051	9.936	9.774	9.630	7.680	4.400	2.668	1.974	1.276	1.174	1.190	1.341	1.601	1.834	2.404	3.019	4.323	5.372	5.283	4.504	3.193	3.074	2.767	3.134	5.047	9.467	20.23	25.12	28.76	32.00	14.23	5.568	1.201
295.0	4081	3935	2457	885.1	319.8	264.8	332.4	472.1	703.1	1119	960.9	426.6	709.7	1268	4996	5176	549.7	11.87	5.727	3.727	3.215	1.873	1.631	1.638	1.845	1.288	1.322	1.147	1.154	0.930	0.969	1.239	2.771	5.124	6.820	6.145	4.930	3.445	3.179	3.555	3.768	4.730	5.807	6.982	8.384	9.520	9.030	9.283	7.034	4.142	2.493	2.032	1.324	1.206	1.138	1.308	1.505	1.621	1.926	2.357	2.876	3.490	4.235	5.512	5.906	4.208	2.706	1.856	1.897	2.794	5.078	6.235	7.717	15.98	25.15	34.42	25.42
300.0	3548	3408	2093	786.8	295.4	254.4	313.1	408.8	549.6	791.7	1155	523.4	284.4	358.8	1408	4405	4722	80.63	8.028	4.628	4.157	2.274	1.958	1.755	1.872	1.374	1.368	1.287	0.984	0.921	0.962	1.290	2.622	4.436	6.147	5.357	4.292	3.075	3.072	3.158	3.312	4.157	5.071	6.223	7.326	8.328	7.608	7.819	6.243	3.774	2.379	1.890	1.360	1.285	1.134	1.257	1.535	1.600	1.794	2.154	2.343	2.774	3.065	3.750	5.058	6.315	4.556	2.139	1.384	1.347	1.800	2.079	2.288	4.353	8.121	18.99	37.85
305.0	2922	2815	1747	672.0	285.5	236.9	285.0	368.8	474.1	571.7	882.9	843.8	224.7	169.0	373.7	1386	5436	3514	60.42	6.435	5.573	2.613	2.241	2.042	2.398	1.500	1.474	1.182	1.206	0.957	1.003	1.233	2.305	4.088	4.856	4.798	3.748	3.040	2.807	3.010	2.951	3.735	4.484	5.360	5.845	6.855	6.683	6.409	5.147	3.109	2.081	1.601	1.246	1.286	1.093	1.160	1.420	1.508	1.698	1.867	2.162	2.428	2.521	2.690	3.053	4.682	5.434	4.379	2.259	1.311	1.175	1.176	1.189	1.553	2.414	5.181	13.03
310.0	2107	2019	1294	518.2	239.3	211.9	252.5	314.8	389.1	448.1	525.0	689.8	574.4	213.2	150.1	350.2	1655	4243	4499	295.2	17.76	3.275	3.129	2.262	2.811	1.679	1.565	1.282	1.270	1.014	1.117	1.181	1.960	3.025	3.832	3.676	3.049	2.503	2.226	2.420	2.402	2.950	3.268	3.997	4.458	5.136	5.029	4.758	3.761	2.509	1.673	1.521	1.191	1.115	1.016	1.105	1.332	1.336	1.447	1.593	1.826	1.960	2.201	2.336	2.325	2.734	3.124	3.467	3.766	3.316	2.187	1.275	0.963	1.077	1.101	1.739	3.491
315.0	1418	1364	907.1	389.0	200.9	187.7	213.5	264.7	314.7	359.9	375.8	378.6	518.7	523.8	137.7	119.0	394.7	1038	3811	4554	456.1	7.769	4.126	2.880	3.393	1.861	1.784	1.306	1.353	1.063	1.266	1.101	1.713	2.318	3.011	2.954	2.416	2.039	1.898	1.922	1.857	2.215	2.555	2.777	3.128	3.465	3.398	3.401	2.914	1.960	1.346	1.271	1.179	0.980	0.948	1.034	1.229	1.231	1.357	1.415	1.655	1.729	1.875	1.873	1.980	2.048	2.108	1.992	2.054	2.656	3.454	3.155	1.604	1.069	0.888	0.951	1.356
320.0	1101	1019	663.5	310.4	179.1	169.6	194.7	230.7	276.2	313.6	316.1	286.4	314.6	563.3	312.1	80.07	118.4	254.2	1077	4978	4216	59.83	6.461	3.164	4.164	1.969	1.849	1.833	1.560	1.159	1.346	1.010	1.408	2.003	2.298	2.381	2.206	1.737	1.797	1.572	1.682	1.739	2.149	2.255	2.525	2.760	2.601	2.641	2.212	1.474	1.118	1.137	1.037	0.964	0.884	0.968	1.234	1.179	1.220	1.270	1.361	1.493	1.698	1.686	1.753	1.826	1.646	1.486	1.624	1.644	2.264	3.146	3.411	2.418	1.137	0.773	0.886
325.0	835.9	784.9	522.7	274.0	163.3	160.2	180.8	208.0	246.8	287.1	289.1	252.2	231.0	354.8	483.3	117.2	61.49	82.28	263.4	1639	7643	2460	48.58	4.601	5.154	2.625	2.043	1.902	1.512	1.126	1.514	1.072	1.277	1.761	2.027	2.051	1.882	1.587	1.418	1.495	1.471	1.548	1.782	1.737	2.168	2.253	2.038	2.038	1.777	1.261	1.026	0.988	0.850	0.897	0.913	0.950	1.059	1.098	1.169	1.182	1.234	1.361	1.652	1.490	1.589	1.637	1.436	1.400	1.365	1.395	1.376	1.860	2.727	3.521	2.334	1.319	0.855
330.0	652.1	591.0	409.7	228.4	156.9	148.0	166.4	192.2	220.1	254.6	259.2	239.4	205.7	212.7	316.7	328.1	133.9	48.08	79.16	387.8	2460	3023	4127	233.0	16.41	3.776	2.637	2.114	1.950	1.312	1.427	1.070	1.354	1.515	1.763	1.646	1.599	1.388	1.375	1.314	1.150	1.248	1.491	1.472	1.619	1.804	1.661	1.674	1.452	1.068	0.907	0.975	0.885	0.862	0.903	0.867	1.014	1.127	1.094	1.064	1.226	1.297	1.376	1.431	1.409	1.480	1.416	1.313	1.341	1.312	1.235	1.345	1.537	1.882	2.232	2.389	2.300
335.0	480.7	457.7	327.9	201.3	145.1	141.7	160.1	175.6	199.6	227.9	235.5	226.9	196.4	170.2	168.1	231.3	314.8	85.15	40.54	104.0	563.0	738.7	3479	3602	408.4	10.59	3.701	2.779	2.565	1.453	1.722	1.063	1.317	1.271	1.494	1.440	1.429	1.296	1.224	1.192	1.045	1.076	1.258	1.278	1.323	1.527	1.480	1.288	1.108	0.968	0.864	0.864	0.944	0.694	0.814	0.866	0.963	0.959	0.986	1.113	1.284	1.233	1.324	1.345	1.380	1.363	1.425	1.176	1.215	1.196	1.250	1.181	1.234	1.110	1.257	1.359	2.124
340.0	415.9	373.4	285.1	180.6	141.4	141.3	149.9	168.4	191.5	208.5	219.7	215.6	186.7	162.2	133.9	130.9	274.4	227.4	51.73	41.83	140.7	176.2	972.8	3705	7538	54.39	6.140	3.240	2.814	1.732	1.732	1.260	1.497	1.188	1.402	1.386	1.362	1.230	1.157	1.150	1.034	0.955	0.949	1.119	1.224	1.314	1.187	1.102	1.030	0.870	0.776	0.811	0.860	0.873	0.788	0.869	0.931	0.836	0.939	1.080	1.105	1.237	1.293	1.269	1.266	1.256	1.264	1.149	1.191	1.220	1.139	1.003	1.083	1.106	0.901	1.044	1.224
345.0	373.3	335.6	262.0	171.1	135.0	137.4	142.4	159.2	174.6	194.6	203.5	204.6	180.1	156.3	123.2	95.52	148.8	275.1	87.26	32.78	46.76	51.20	231.4	1185	8448	2849	43.71	4.310	3.426	1.905	1.923	1.457	1.578	1.125	1.279	1.447	1.272	1.237	1.025	1.234	0.819	0.964	0.951	1.012	1.135	1.160	1.060	1.103	1.004	0.831	0.742	0.815	0.824	0.798	0.807	0.755	0.852	0.800	0.911	0.912	1.067	0.979	1.166	1.240	1.250	1.319	1.121	1.197	1.153	1.313	1.070	1.122	0.987	0.992	0.870	0.901	0.867
350.0	317.1	292.9	229.4	164.1	137.1	127.9	132.6	147.6	160.8	177.2	186.7	186.4	169.5	146.4	116.8	84.39	83.63	144.4	197.4	106.4	34.01	24.65	64.24	277.6	2513	3822	3573	213.7	13.53	2.577	2.563	1.729	1.729	1.324	1.350	1.218	1.347	1.147	1.054	1.144	0.824	0.929	0.892	1.011	1.033	1.069	0.980	0.950	0.833	0.834	0.744	0.803	0.778	0.802	0.777	0.789	0.789	0.852	0.892	0.951	1.022	1.008	1.028	1.110	1.165	1.120	1.065	1.132	1.085	1.040	1.055	1.043	0.966	0.890	0.790	0.817	0.852
355.0	286.0	258.1	190.0	158.3	125.6	121.0	124.9	138.8	143.9	160.6	168.5	163.7	154.3	137.9	109.6	81.51	65.83	71.41	109.7	193.7	71.45	23.30	27.98	74.15	571.2	920.8	2921	3271	363.7	8.910	3.172	2.020	1.978	1.497	1.355	1.224	1.167	0.964	0.907	1.028	0.778	0.949	0.948	0.828	0.926	1.081	0.920	0.838	0.802	0.720	0.788	0.777	0.779	0.752	0.726	0.695	0.723	0.987	0.875	0.891	1.005	1.000	1.027	1.006	0.981	1.000	1.114	1.077	1.005	1.053	1.133	0.984	0.956	0.876	0.865	0.829	0.800
360.0	259.5	225.8	189.2	152.5	125.1	118.5	119.1	126.8	136.0	145.0	156.3	155.6	144.0	130.7	105.2	76.79	63.31	55.26	60.92	142.6	170.4	50.21	23.72	30.70	140.4	216.9	793.2	3176	3236	51.26	5.835	2.379	2.339	1.430	1.361	1.310	1.147	0.962	0.976	0.990	0.868	0.834	0.936	0.880	0.876	0.880	0.919	0.904	0.849	0.704	0.653	0.710	0.755	0.716	0.690	0.652	0.810	0.864	0.813	0.915	0.818	1.027	0.902	1.061	1.006	1.061	1.017	1.000	0.951	1.026	0.995	0.966	0.998	0.878	0.861	0.774	0.808
365.0	251.9	224.1	181.5	154.1	131.6	117.8	117.3	121.1	132.9	137.2	146.5	151.3	134.9	122.2	100.5	75.83	63.63	53.99	49.29	76.91	170.7	124.8	32.90	22.43	45.85	60.53	188.3	982.6	4443	2490	45.68	3.583	2.768	1.784	1.417	1.353	1.190	0.972	0.995	0.929	0.866	0.768	0.918	0.841	0.881	0.870	0.931	0.806	0.808	0.732	0.684	0.765	0.863	0.702	0.671	0.655	0.736	0.850	0.780	0.883	0.876	0.835	0.798	0.915	0.951	0.983	0.969	0.946	1.026	1.071	1.092	0.905	0.961	0.827	0.792	0.710	0.821
370.0	225.5	209.0	173.8	153.3	131.2	120.8	113.7	111.0	119.1	125.4	134.3	137.3	127.8	113.6	96.02	75.96	63.32	53.98	47.95	51.33	87.80	146.8	99.11	34.98	27.57	27.89	54.33	231.7	1331	2459	3557	199.5	14.92	2.187	1.872	1.530	1.277	1.090	1.117	0.942	0.825	0.797	0.864	0.803	0.854	0.858	0.793	0.723	0.832	0.681	0.653	0.814	0.803	0.652	0.703	0.712	0.789	0.794	0.823	0.776	0.777	0.876	0.763	0.903	0.925	0.915	0.887	0.903	0.971	0.921	0.979	0.846	0.955	0.834	0.710	0.761	0.740
375.0	205.7	189.4	159.4	142.2	128.5	117.6	113.0	105.2	107.3	119.6	122.8	128.6	119.6	104.4	91.28	73.32	62.40	56.02	50.78	47.72	52.49	78.10	145.4	99.46	33.22	23.28	28.10	64.45	306.9	582.3	2533	2949	342.4	11.65	2.364	1.740	1.445	1.304	1.207	1.056	0.976	0.781	0.891	0.819	0.926	0.764	0.666	0.790	0.808	0.674	0.733	0.773	0.782	0.698	0.713	0.766	0.740	0.799	0.720	0.793	0.649	0.867	0.800	0.859	0.804	0.834	0.809	0.821	0.845	0.903	0.832	0.784	0.886	0.744	0.858	0.810	0.738
380.0	212.4	181.9	150.9	138.5	128.4	118.2	108.2	101.0	97.73	109.0	115.6	118.3	111.8	99.40	87.31	71.49	63.75	56.40	51.55	47.79	45.69	52.22	97.77	150.0	58.16	26.97	23.91	28.41	81.50	139.9	667.4	2540	3950	247.5	5.255	2.145	1.492	1.424	1.211	1.202	1.089	0.957	0.856	0.830	0.931	0.767	0.800	0.746	0.718	0.590	0.630	0.754	0.792	0.733	0.668	0.708	0.773	0.725	0.732	0.794	0.734	0.794	0.820	0.876	0.847	0.788	0.889	0.894	0.804	0.816	0.710	0.849	0.743	0.784	0.784	0.779	0.805
385.0	194.9	181.4	165.3	140.4	134.8	120.4	102.4	97.95	98.05	104.3	113.0	109.2	104.6	95.57	84.09	70.15	63.81	55.27	53.70	48.59	45.41	45.60	60.92	124.8	119.9	44.10	25.14	23.50	32.22	42.08	160.2	734.5	3494	2155	38.60	3.132	1.934	1.613	1.235	1.215	0.992	0.839	0.916	0.727	0.779	0.851	0.740	0.828	0.751	0.648	0.627	0.715	0.704	0.706	0.649	0.619	0.779	0.648	0.681	0.685	0.723	0.697	0.722	0.726	0.768	0.775	0.841	0.812	0.857	0.712	0.716	0.802	0.781	0.758	0.819	0.837	0.786
390.0	168.5	165.9	156.7	138.2	129.8	119.2	98.66	94.26	95.18	98.08	102.9	104.9	97.74	90.89	79.27	68.10	61.78	57.10	54.19	50.64	48.54	46.65	50.09	70.37	116.1	103.3	43.36	26.99	24.93	23.49	47.67	173.4	947.3	1800	2115	612.8	11.95	1.997	1.505	1.277	1.016	0.843	0.902	0.757	0.778	0.870	0.708	0.767	0.713	0.620	0.613	0.775	0.825	0.738	0.701	0.577	0.739	0.657	0.672	0.638	0.748	0.706	0.736	0.676	0.762	0.749	0.789	0.752	0.850	0.786	0.855	0.816	0.812	0.802	0.694	0.842	0.696
395.0	158.0	165.6	150.4	132.2	118.7	117.9	95.93	90.83	87.44	92.60	95.56	98.67	91.03	82.42	75.05	65.41	59.75	56.24	53.78	51.54	51.08	49.18	49.18	52.38	69.10	110.0	98.22	41.66	26.88	22.46	24.57	48.71	218.9	417.9	1309	2556	280.4	14.80	1.852	1.681	1.131	0.970	1.077	0.753	0.920	0.832	0.790	0.702	0.729	0.588	0.681	0.735	0.810	0.742	0.632	0.708	0.693	0.600	0.652	0.721	0.706	0.733	0.689	0.682	0.694	0.761	0.856	0.723	0.837	0.752	0.789	0.798	0.755	0.788	0.701	0.832	0.693
400.0	161.4	158.6	131.8	132.3	119.8	112.7	98.04	85.61	86.27	84.93	90.62	94.09	88.28	79.20	73.44	63.37	58.48	55.04	52.92	52.05	50.79	49.17	49.19	49.16	52.25	73.53	118.8	59.92	32.98	24.34	20.87	22.16	57.19	99.57	335.6	1607	2253	247.2	8.063	1.951	1.203	1.109	1.073	0.823	0.920	0.765	0.754	0.701	0.694	0.663	0.610	0.772	0.753	0.691	0.687	0.681	0.772	0.634	0.615	0.638	0.749	0.750	0.665	0.668	0.634	0.693	0.675	0.692	0.727	0.751	0.776	0.757	0.753	0.766	0.704	0.791	0.693
405.0	165.9	149.2	137.4	131.5	118.1	115.5	97.60	90.03	85.99	86.86	85.11	88.76	83.45	76.02	68.67	60.72	56.72	53.42	51.58	50.26	51.08	49.81	50.32	49.05	49.60	53.65	91.38	106.0	51.29	27.45	21.34	18.01	22.58	28.96	81.22	423.6	1852	2062	190.5	3.683	1.321	1.186	1.102	0.793	0.895	0.765	0.731	0.648	0.787	0.726	0.611	0.689	0.759	0.661	0.621	0.715	0.730	0.670	0.754	0.665	0.670	0.746	0.701	0.640	0.811	0.695	0.682	0.655	0.653	0.611	0.710	0.736	0.707	0.753	0.675	0.652	0.733
410.0	147.3	137.2	138.6	126.8	116.7	109.8	101.3	94.03	89.57	85.86	84.30	81.26	77.83	71.28	63.38	56.92	53.19	51.60	50.12	49.03	49.04	49.67	50.21	49.87	49.79	49.13	58.48	88.05	92.05	44.97	24.88	19.01	16.63	14.78	24.83	100.0	488.2	1410	1625	684.4	12.02	1.446	1.299	0.955	0.923	0.825	0.673	0.680	0.764	0.646	0.615	0.797	0.741	0.700	0.644	0.713	0.758	0.693	0.765	0.586	0.722	0.710	0.673	0.686	0.792	0.728	0.681	0.678	0.722	0.651	0.694	0.696	0.654	0.659	0.637	0.730	0.747
415.0	137.0	137.6	128.7	121.5	112.1	107.8	100.2	97.18	86.12	82.03	82.95	76.89	74.60	65.25	58.33	53.70	51.97	49.48	47.00	46.68	47.83	47.01	48.74	49.19	49.61	48.10	49.18	55.27	82.98	85.98	37.73	21.12	15.90	12.82	13.41	27.95	113.4	323.9	782.4	2331	261.7	14.86	1.627	0.989	1.143	0.912	0.742	0.691	0.774	0.567	0.568	0.810	0.750	0.700	0.674	0.781	0.836	0.677	0.658	0.575	0.744	0.722	0.705	0.632	0.716	0.708	0.697	0.582	0.700	0.734	0.695	0.661	0.649	0.652	0.643	0.626	0.659
420.0	130.4	134.0	130.4	117.3	108.3	102.9	96.07	96.00	85.61	81.28	81.02	72.84	68.83	62.06	54.38	51.69	49.35	45.26	44.77	45.31	45.20	46.85	46.83	47.09	48.31	47.91	44.83	45.15	57.81	90.99	56.02	26.07	17.05	12.98	11.26	12.43	30.01	76.50	191.7	1338	1481	231.1	9.337	1.257	1.262	0.965	0.835	0.756	0.752	0.688	0.590	0.790	0.756	0.741	0.671	0.755	0.807	0.673	0.647	0.677	0.766	0.767	0.653	0.625	0.635	0.737	0.651	0.615	0.614	0.653	0.649	0.579	0.620	0.674	0.576	0.654	0.636
425.0	148.1	115.4	115.8	109.0	108.9	96.12	94.76	92.00	85.94	78.14	75.02	71.43	65.19	59.05	52.42	48.90	45.42	44.83	42.60	43.07	43.15	44.09	45.58	45.28	47.06	45.59	44.09	42.52	44.58	65.69	81.99	40.46	18.22	12.80	10.36	9.252	12.05	21.06	46.79	346.3	1026	1493	194.9	2.692	1.331	1.091	1.046	0.756	0.787	0.609	0.593	0.874	0.718	0.698	0.762	0.694	0.712	0.652	0.628	0.620	0.703	0.726	0.592	0.750	0.678	0.703	0.630	0.658	0.618	0.705	0.673	0.629	0.684	0.633	0.606	0.632	0.591
430.0	373.5	117.6	109.7	104.8	99.52	94.87	93.19	88.29	82.56	76.50	71.29	69.19	61.96	54.58	50.76	44.99	43.05	41.60	40.75	39.88	40.65	42.04	44.15	43.74	44.97	43.80	41.89	40.13	38.52	42.95	62.36	63.68	32.43	14.87	10.49	8.646	8.339	8.946	13.89	80.56	259.9	930.5	1570	478.6	13.10	1.288	1.135	0.866	0.770	0.664	0.676	0.853	0.670	0.659	0.685	0.639	0.738	0.678	0.622	0.678	0.735	0.633	0.646	0.694	0.710	0.676	0.600	0.603	0.635	0.602	0.641	0.616	0.605	0.568	0.588	0.597	0.623
435.0	973.4	139.7	110.6	103.1	92.82	88.00	90.60	84.78	78.10	73.44	67.89	66.08	58.69	50.90	46.12	41.22	40.19	38.11	37.59	37.60	37.12	38.56	41.51	41.41	42.75	41.62	39.82	37.85	35.82	35.29	38.65	52.64	55.59	24.59	11.58	8.645	7.506	6.634	6.893	21.17	60.25	212.0	735.0	1540	802.7	14.79	1.451	1.009	0.939	0.739	0.642	0.812	0.686	0.642	0.653	0.682	0.787	0.692	0.737	0.717	0.627	0.677	0.606	0.663	0.674	0.606	0.564	0.559	0.547	0.613	0.668	0.583	0.575	0.486	0.578	0.573	0.580
440.0	1441	288.9	106.7	94.27	85.78	86.49	86.39	84.44	76.29	71.01	67.34	60.16	54.57	48.71	42.10	39.20	38.30	35.72	34.82	34.57	35.64	36.17	38.29	39.13	39.59	39.89	38.22	36.70	34.63	32.80	30.60	35.61	55.27	41.44	15.51	9.383	7.458	6.365	5.464	7.838	15.73	49.51	178.0	848.3	1857	217.0	8.247	1.354	0.898	0.733	0.653	0.922	0.875	0.721	0.676	0.710	0.762	0.654	0.660	0.658	0.580	0.724	0.655	0.615	0.624	0.638	0.561	0.569	0.559	0.534	0.590	0.591	0.483	0.530	0.552	0.557	0.580
445.0	1379	669.8	102.5	88.20	85.76	82.43	81.90	81.69	72.22	63.91	61.48	57.92	51.81	46.70	39.65	37.30	35.60	34.14	33.65	32.89	33.64	33.91	35.29	35.40	36.95	37.63	36.05	34.91	33.76	30.94	26.63	25.99	40.97	50.63	25.41	10.31	7.770	6.517	5.412	5.428	6.007	13.36	42.21	217.9	1253	1369	165.8	3.712	0.971	0.803	0.722	0.997	0.882	0.767	0.672	0.717	0.684	0.659	0.705	0.654	0.667	0.643	0.596	0.676	0.671	0.578	0.539	0.551	0.700	0.542	0.588	0.589	0.591	0.548	0.521	0.534	0.578
450.0	752.2	1264	319.4	82.43	78.59	77.16	74.53	73.73	69.28	61.00	56.30	52.59	46.74	41.16	37.34	34.29	32.50	31.60	30.81	31.06	31.07	31.58	32.23	33.04	34.09	33.75	33.29	32.72	30.33	28.94	25.23	21.90	24.55	35.45	38.45	20.00	8.684	6.388	5.098	4.569	4.115	5.323	11.63	50.80	318.6	881.8	1373	447.2	9.622	1.100	0.879	1.033	0.859	0.679	0.670	0.669	0.731	0.649	0.631	0.721	0.645	0.600	0.621	0.575	0.612	0.578	0.537	0.564	0.592	0.570	0.609	0.562	0.516	0.586	0.540	0.546	0.554
455.0	274.2	1137	949.1	100.5	73.80	66.59	70.73	67.01	61.93	57.35	54.79	50.33	42.76	37.18	31.24	30.49	30.16	28.28	27.60	27.85	26.81	27.90	28.83	29.46	30.83	30.01	29.87	29.46	27.80	26.07	23.10	19.45	17.94	19.62	30.73	32.96	15.75	6.701	5.230	4.110	3.599	3.629	4.674	13.29	72.89	200.7	582.0	1368	204.0	12.01	1.102	1.149	0.773	0.723	0.711	0.711	0.654	0.591	0.618	0.585	0.590	0.578	0.569	0.568	0.573	0.482	0.515	0.593	0.487	0.531	0.516	0.536	0.548	0.488	0.461	0.625	0.503
460.0	144.6	673.7	1462	239.1	67.89	60.87	67.52	61.71	57.60	51.67	48.45	44.46	40.20	33.81	30.13	27.57	26.64	26.46	24.47	25.50	24.62	26.00	26.33	26.44	28.05	28.05	27.49	26.89	25.97	23.61	21.10	18.52	15.71	14.20	18.69	32.33	25.34	8.935	5.077	4.371	3.347	3.386	3.259	4.803	17.96	46.38	138.3	720.8	1165	168.6	7.875	1.434	0.851	0.740	0.691	0.626	0.655	0.650	0.562	0.634	0.609	0.599	0.553	0.615	0.488	0.511	0.478	0.539	0.480	0.516	0.506	0.484	0.517	0.436	0.472	0.477	0.496
465.0	135.0	284.6	1434	625.5	63.96	57.04	62.01	57.00	52.82	47.00	43.89	38.55	36.78	30.21	28.80	26.80	24.99	23.84	22.36	23.17	23.10	23.00	24.30	23.98	25.32	25.36	25.05	24.99	23.48	22.22	19.90	16.82	14.47	12.48	12.64	22.15	29.43	15.44	5.589	4.324	3.383	2.934	2.984	3.157	5.670	12.02	32.84	182.7	843.8	1163	148.5	4.446	1.020	0.843	0.695	0.656	0.712	0.606	0.622	0.580	0.591	0.521	0.663	0.599	0.536	0.478	0.536	0.540	0.529	0.474	0.490	0.472	0.473	0.420	0.468	0.558	0.580
470.0	160.6	131.7	739.6	1277	257.5	53.68	55.04	50.87	48.58	42.99	39.21	35.97	32.51	28.16	25.10	23.85	22.07	20.79	19.95	20.94	20.17	20.37	21.47	21.67	21.93	21.75	21.71	21.42	20.58	19.24	17.64	15.32	13.35	11.09	10.02	11.81	19.96	22.88	11.06	4.860	3.361	2.890	2.763	2.930	3.047	4.114	8.739	42.32	215.9	734.1	1079	591.1	9.926	0.974	0.857	0.719	0.705	0.583	0.573	0.591	0.539	0.538	0.659	0.564	0.558	0.468	0.509	0.500	0.484	0.436	0.443	0.436	0.468	0.459	0.439	0.509	0.451
475.0	205.5	101.3	235.5	1229	963.0	62.36	48.48	45.99	43.98	39.32	35.55	33.29	28.93	24.78	22.10	19.84	19.35	18.27	17.98	18.63	18.12	17.43	18.76	18.48	19.04	18.91	18.88	18.38	17.98	16.94	15.26	13.43	11.64	10.27	8.652	8.098	10.28	17.60	19.06	8.780	3.476	2.736	2.635	2.366	2.528	2.530	3.307	10.74	49.29	166.0	428.1	1607	211.3	11.34	0.874	0.724	0.741	0.522	0.606	0.522	0.521	0.543	0.523	0.512	0.532	0.463	0.420	0.475	0.443	0.492	0.459	0.451	0.426	0.467	0.389	0.463	0.510
480.0	206.7	118.2	102.3	740.7	1648	200.6	45.66	41.97	41.99	37.98	32.05	30.19	26.20	23.36	21.21	18.60	17.63	16.26	16.92	16.26	15.88	16.74	16.37	17.28	17.24	16.85	17.11	16.76	16.73	15.61	13.79	12.86	10.85	9.562	7.965	7.071	6.956	10.23	18.93	13.96	4.901	2.769	2.432	2.123	2.132	2.314	2.077	3.521	11.96	38.21	102.0	835.7	1230	180.4	4.396	0.803	0.786	0.575	0.691	0.509	0.496	0.582	0.531	0.503	0.493	0.569	0.442	0.425	0.466	0.521	0.455	0.489	0.439	0.433	0.413	0.430	0.479
485.0	154.6	156.8	69.85	312.6	1820	526.0	47.78	41.37	39.05	34.96	30.22	27.76	23.74	20.98	18.95	16.78	16.38	15.64	15.27	14.43	15.03	15.32	14.90	15.51	15.18	15.78	15.86	15.11	14.67	14.60	13.17	11.83	10.05	8.590	7.466	6.467	5.946	6.436	13.06	17.56	8.902	3.387	2.389	2.045	2.052	2.108	1.930	1.905	3.662	9.632	23.98	213.0	888.9	846.3	28.08	2.278	0.922	0.697	0.606	0.580	0.620	0.553	0.524	0.558	0.527	0.565	0.429	0.401	0.444	0.438	0.414	0.413	0.407	0.426	0.421	0.479	0.464
490.0	95.79	173.7	92.92	109.8	1072	1483	213.5	37.17	33.49	30.79	28.28	25.85	22.43	19.66	18.29	15.37	14.54	13.85	14.10	13.03	13.79	13.46	13.42	13.68	13.91	14.12	14.24	13.79	13.43	13.05	11.92	10.48	8.854	7.810	6.933	5.840	5.273	5.112	6.961	12.85	13.78	6.981	2.793	1.970	1.903	2.002	1.846	1.840	1.964	3.130	6.401	48.81	226.6	518.5	684.7	315.7	10.63	0.836	0.683	0.607	0.540	0.602	0.544	0.520	0.554	0.506	0.440	0.411	0.522	0.445	0.479	0.399	0.403	0.410	0.444	0.424	0.430
495.0	62.66	139.8	127.7	59.61	316.8	1577	1096	42.22	30.99	27.73	25.41	23.03	20.11	17.35	16.98	13.68	12.87	12.09	12.08	11.90	12.23	11.50	11.69	11.90	12.48	12.18	12.33	12.14	11.47	11.63	10.74	9.220	8.238	6.994	6.249	5.384	5.043	4.508	4.583	6.011	11.93	12.48	5.274	2.198	1.933	1.680	1.707	1.970	1.703	1.680	2.337	11.75	51.60	117.8	312.6	909.2	233.8	10.93	0.811	0.662	0.546	0.614	0.494	0.527	0.542	0.483	0.372	0.405	0.412	0.449	0.485	0.467	0.410	0.354	0.414	0.437	0.451
500.0	61.50	92.08	159.6	60.51	102.7	959.8	1933	107.5	28.18	25.55	23.95	21.85	18.65	16.95	14.93	13.29	12.43	11.51	10.36	10.88	10.85	10.36	10.61	10.73	11.14	11.30	11.03	10.67	10.54	10.18	9.524	8.759	7.744	6.468	5.854	5.027	4.693	3.934	3.708	3.864	7.502	12.92	9.357	3.284	1.914	1.777	1.555	1.583	1.798	1.525	1.421	3.541	12.51	27.25	75.13	464.1	1097	180.4	5.399	0.761	0.652	0.651	0.539	0.514	0.518	0.511	0.481	0.360	0.407	0.459	0.481	0.386	0.436	0.464	0.434	0.429	0.472
505.0	63.71	66.45	150.3	82.78	47.85	394.3	2117	338.4	26.44	24.08	21.29	19.81	17.63	15.55	13.18	12.33	11.56	10.55	9.762	9.499	10.38	9.715	9.361	9.974	9.818	10.23	9.552	10.01	9.711	9.104	8.569	8.166	7.113	6.052	5.338	4.642	4.330	3.813	3.328	3.245	4.394	9.507	11.57	5.583	2.073	1.652	1.600	1.384	1.791	1.522	1.330	1.770	3.655	6.931	17.56	117.3	731.5	672.3	30.92	2.083	0.788	0.567	0.543	0.524	0.507	0.505	0.425	0.371	0.379	0.502	0.495	0.413	0.420	0.454	0.430	0.434	0.406
510.0	52.38	47.31	104.1	126.0	42.84	120.9	1184	1098	119.2	22.67	20.01	17.65	16.45	14.10	11.63	10.83	10.29	9.086	8.495	8.712	8.473	8.326	8.575	8.920	8.735	8.785	8.873	8.715	8.572	8.356	7.582	7.155	6.142	5.501	4.719	4.328	3.814	3.587	3.177	2.977	2.931	4.681	8.925	9.228	4.469	1.888	1.516	1.393	1.391	1.438	1.484	1.391	1.555	2.293	4.749	27.11	183.7	389.8	552.8	132.7	10.44	0.732	0.562	0.486	0.563	0.507	0.426	0.422	0.439	0.429	0.467	0.471	0.465	0.409	0.374	0.372	0.415
515.0	44.06	34.67	55.09	133.5	63.47	47.95	352.0	1321	619.2	25.43	18.87	16.22	14.55	11.80	10.79	9.080	8.637	7.815	7.575	7.209	7.436	6.915	7.422	8.002	7.891	7.518	7.630	7.573	7.339	7.199	6.626	6.144	5.323	4.750	4.222	3.917	3.342	3.164	2.728	2.609	2.254	2.664	4.385	8.059	7.828	3.630	1.494	1.243	1.211	1.238	1.318	1.666	1.256	1.171	1.782	6.786	41.71	88.33	228.9	565.1	224.6	13.72	0.721	0.644	0.604	0.465	0.449	0.463	0.397	0.436	0.386	0.391	0.360	0.387	0.399	0.392	0.359
520.0	40.66	36.04	37.82	111.8	96.59	33.83	104.6	872.1	1372	80.78	18.05	15.97	13.07	10.50	9.668	8.574	7.554	7.803	6.552	6.438	6.623	6.180	6.400	6.600	6.962	6.774	6.555	6.632	6.409	6.235	6.107	5.538	4.820	4.328	3.854	3.323	3.324	2.867	2.416	2.166	2.164	2.056	2.545	5.326	9.018	5.886	1.958	1.336	1.119	1.118	1.094	1.580	1.357	1.039	1.015	2.102	10.04	20.43	54.52	279.8	662.8	196.0	6.013	0.752	0.633	0.514	0.468	0.485	0.410	0.418	0.370	0.436	0.377	0.396	0.384	0.362	0.338
525.0	37.24	35.57	27.74	75.69	126.1	37.84	44.07	366.4	1817	256.8	16.88	15.85	12.15	9.868	8.839	7.891	6.959	6.859	6.357	6.333	6.217	5.876	6.024	5.815	6.163	6.041	6.031	6.092	5.791	5.763	5.518	4.991	4.371	4.020	3.553	3.155	3.014	2.476	2.398	2.076	2.074	2.044	2.156	3.166	6.939	7.693	3.500	1.575	1.189	1.054	0.992	1.276	1.589	1.198	0.941	0.963	2.913	5.224	12.84	69.44	407.6	632.9	32.57	3.225	0.555	0.571	0.489	0.421	0.443	0.509	0.368	0.416	0.394	0.485	0.364	0.341	0.357
530.0	47.48	34.12	28.65	40.36	113.0	69.41	29.16	106.3	1190	1316	83.24	13.82	10.88	9.475	8.056	6.857	5.932	6.216	5.836	5.309	5.243	5.206	5.273	5.281	5.356	5.388	5.004	5.409	5.287	5.068	4.826	4.333	3.766	3.534	3.125	2.759	2.620	2.310	2.208	1.941	1.805	1.765	1.811	1.941	3.525	6.178	5.857	2.731	1.238	0.910	0.948	0.959	1.168	1.358	0.998	0.762	1.195	1.673	3.478	16.16	101.2	325.6	551.1	255.1	11.57	0.808	0.487	0.470	0.452	0.417	0.397	0.397	0.417	0.383	0.316	0.412	0.373
535.0	55.09	42.17	29.15	25.24	70.19	114.3	34.81	39.44	367.0	1749	502.4	16.31	10.07	8.628	7.319	5.829	5.916	5.120	4.618	5.033	4.705	4.297	4.665	4.531	4.485	4.790	4.315	4.387	4.439	4.468	3.782	3.741	3.472	3.055	2.767	2.669	2.324	2.304	1.843	1.826	1.688	1.514	1.573	1.544	1.922	3.315	5.797	4.798	1.927	0.972	0.916	0.828	0.899	0.937	1.281	0.983	0.774	0.848	1.308	4.137	23.09	73.42	205.3	576.1	229.1	14.30	0.630	0.491	0.417	0.412	0.421	0.445	0.368	0.540	0.339	0.391	0.334
540.0	83.91	70.30	45.30	25.38	39.49	118.6	46.90	26.65	103.9	1164	1192	60.09	9.409	7.793	6.814	5.604	5.148	4.698	4.352	4.107	4.170	3.783	4.125	4.116	4.041	3.995	3.731	3.861	3.925	3.477	3.757	3.242	3.064	2.718	2.579	2.341	1.947	1.902	1.644	1.752	1.510	1.446	1.443	1.354	1.491	1.985	3.963	5.370	2.991	1.193	0.836	0.732	0.712	0.745	0.994	1.227	0.771	0.632	0.801	1.432	5.597	16.94	47.89	249.9	575.6	206.9	6.316	0.726	0.427	0.494	0.439	0.397	0.329	0.400	0.359	0.375	0.349
545.0	152.9	148.0	96.59	38.02	29.64	97.12	81.31	28.46	46.95	471.9	1668	199.7	8.681	7.258	5.864	4.706	5.248	4.284	4.015	3.693	3.677	3.553	3.542	3.516	3.556	3.649	3.620	3.421	3.280	3.103	3.238	2.984	2.878	2.655	2.601	2.241	1.967	1.884	1.543	1.481	1.423	1.440	1.375	1.408	1.394	1.723	2.408	4.736	4.376	1.858	1.009	0.808	0.676	0.676	0.778	1.239	1.139	0.622	0.643	0.761	1.806	4.338	11.29	60.08	331.0	711.0	33.46	1.854	0.525	0.510	0.524	0.465	0.343	0.400	0.369	0.422	0.335
550.0	294.5	275.4	174.3	60.21	31.07	59.81	117.7	50.84	46.00	156.3	1119	1290	47.38	6.739	5.689	4.298	4.268	3.782	3.343	3.268	3.117	2.952	3.193	3.014	3.287	3.157	2.898	2.796	2.985	2.824	2.960	2.476	2.523	2.373	2.326	2.127	1.923	1.645	1.632	1.454	1.439	1.393	1.411	1.467	1.530	1.579	1.810	2.999	4.386	3.042	1.601	0.973	0.648	0.651	0.614	0.839	1.121	0.960	0.695	0.672	0.904	1.523	3.098	14.07	80.75	350.2	314.1	126.3	11.34	0.610	0.453	0.435	0.436	0.375	0.345	0.378	0.366
555.0	370.4	368.1	226.2	82.27	34.93	36.71	107.2	95.43	54.51	78.53	351.6	1902	178.2	6.979	5.239	4.129	3.414	2.965	2.761	2.892	2.783	2.659	2.731	2.529	2.659	2.361	2.551	2.400	2.356	2.311	2.244	2.174	2.157	2.135	2.074	1.931	1.657	1.598	1.448	1.299	1.311	1.400	1.356	1.364	1.560	1.573	1.624	1.872	2.988	3.508	2.677	1.314	0.622	0.532	0.579	0.699	0.771	1.020	1.186	0.663	0.650	0.892	1.273	3.708	18.56	78.90	104.7	263.0	217.8	12.86	0.572	0.496	0.510	0.355	0.341	0.430	0.384
560.0	455.1	401.3	251.7	86.31	33.16	31.66	79.31	126.3	61.95	63.20	121.5	1286	866.9	24.22	4.920	3.715	3.473	2.665	2.419	2.539	2.466	2.315	2.371	2.058	2.527	2.214	2.415	2.009	2.255	2.230	2.075	1.808	1.904	1.979	2.109	1.843	1.579	1.366	1.376	1.261	1.169	1.333	1.440	1.435	1.670	1.567	1.537	1.552	1.744	2.666	3.031	1.743	0.682	0.576	0.557	0.518	0.607	0.788	1.248	0.869	0.690	0.627	0.946	1.377	4.758	18.22	24.38	105.5	373.3	162.2	6.331	0.484	0.452	0.362	0.333	0.473	0.388
565.0	494.6	484.4	282.1	97.42	38.22	30.75	55.09	135.1	82.31	64.94	71.40	510.0	1315	115.2	5.811	3.420	3.057	2.779	2.259	2.137	2.317	1.871	1.956	1.758	2.055	2.018	1.988	2.232	1.910	1.998	1.676	1.718	1.610	1.844	1.805	1.817	1.529	1.298	1.270	1.246	1.151	1.160	1.376	1.331	1.800	1.484	1.736	1.647	1.352	1.736	2.729	2.193	1.092	0.564	0.522	0.499	0.622	0.647	0.971	1.206	0.742	0.631	0.745	0.838	1.566	4.771	6.023	25.03	173.3	352.8	34.25	2.024	0.481	0.382	0.451	0.406	0.406
570.0	527.9	499.6	299.4	108.2	38.31	31.77	46.89	109.7	119.1	73.14	63.33	150.5	872.3	754.5	31.24	3.512	2.749	2.530	2.050	2.002	2.029	1.789	1.806	1.579	1.821	1.604	1.672	1.785	1.655	1.643	1.567	1.569	1.515	1.756	1.884	1.766	1.378	1.358	1.156	1.182	1.131	1.125	1.345	1.422	1.611	1.646	1.657	1.585	1.280	1.239	1.678	2.063	1.622	0.813	0.531	0.512	0.531	0.598	0.664	0.997	1.028	0.862	0.673	0.723	0.908	1.646	1.882	6.059	40.75	149.4	191.1	92.65	11.30	0.487	0.457	0.371	0.385
575.0	486.5	455.8	285.3	100.7	37.58	32.00	41.40	71.30	138.9	85.68	58.39	58.01	251.2	1150	303.5	3.564	2.557	2.301	1.849	1.738	1.960	1.573	1.500	1.661	1.494	1.559	1.394	1.574	1.563	1.361	1.258	1.333	1.405	1.461	1.737	1.485	1.295	1.201	1.104	0.997	0.980	1.212	1.313	1.334	1.520	1.634	1.417	1.375	1.227	0.995	0.900	1.288	1.728	1.230	0.662	0.521	0.540	0.510	0.638	0.658	0.870	1.105	0.866	0.715	0.626	0.878	0.842	1.761	9.446	33.67	56.19	141.5	143.3	13.63	0.573	0.364	0.418
580.0	440.5	425.7	264.1	93.16	37.98	29.40	37.95	52.97	123.0	106.6	56.64	36.82	69.09	783.6	889.0	11.46	2.456	2.321	1.868	1.567	1.694	1.445	1.529	1.342	1.201	1.470	1.203	1.356	1.408	1.187	1.267	1.235	1.328	1.434	1.566	1.358	1.227	1.007	1.003	0.961	1.065	1.085	1.202	1.290	1.366	1.552	1.321	1.517	1.158	0.809	0.779	0.906	1.451	1.495	0.939	0.513	0.545	0.530	0.571	0.639	0.662	1.000	0.993	0.800	0.613	0.589	0.623	0.772	2.458	7.863	12.99	49.21	174.9	111.2	5.844	0.469	0.352
585.0	445.0	405.6	252.0	93.32	36.17	28.45	37.53	47.63	97.49	123.6	58.84	30.20	25.08	299.9	1366	63.10	2.761	2.297	1.667	1.588	1.746	1.485	1.467	1.040	1.358	1.298	1.157	1.174	1.177	1.006	1.214	1.071	1.157	1.367	1.519	1.253	1.160	0.951	0.857	0.959	0.927	0.980	1.158	1.236	1.371	1.324	1.473	1.419	1.025	0.740	0.593	0.672	1.063	1.373	1.130	0.735	0.510	0.505	0.449	0.603	0.557	0.708	0.982	1.086	0.570	0.607	0.600	0.571	0.842	2.159	3.305	11.58	67.74	180.9	34.44	2.811	0.397
590.0	378.7	349.7	221.8	78.98	32.96	26.00	31.81	41.92	64.99	117.9	73.07	28.65	14.84	80.59	876.4	375.3	12.85	2.238	1.773	1.544	1.463	1.217	1.233	1.036	1.284	1.124	1.042	1.054	1.064	0.855	0.989	0.906	1.031	1.174	1.305	1.187	0.976	0.867	0.798	0.777	0.849	0.910	0.992	0.991	1.139	1.194	1.223	1.166	0.931	0.643	0.579	0.535	0.662	0.966	1.268	0.985	0.586	0.471	0.453	0.526	0.592	0.580	0.844	1.029	0.865	0.611	0.489	0.434	0.515	0.804	1.060	2.919	15.80	65.95	92.20	82.57	10.56
595.0	292.8	293.1	185.7	67.59	28.38	24.41	27.89	35.12	48.08	81.57	92.56	28.98	13.13	24.92	241.7	561.0	88.42	2.252	1.678	1.544	1.331	1.026	1.067	0.930	1.210	1.057	1.122	0.856	0.960	0.829	0.850	0.782	0.970	1.112	1.080	1.097	0.900	0.824	0.735	0.632	0.733	0.822	0.860	0.804	0.980	0.924	1.021	0.936	0.775	0.559	0.448	0.494	0.431	0.563	0.935	1.134	0.781	0.573	0.411	0.488	0.590	0.495	0.607	0.605	0.935	0.736	0.470	0.420	0.428	0.463	0.580	0.968	3.844	15.02	24.37	101.3	90.08
600.0	266.0	258.3	156.8	63.31	25.12	22.74	25.40	30.17	39.73	58.42	97.89	34.35	11.83	12.20	61.68	380.3	443.1	7.391	1.831	1.398	1.280	1.159	1.101	0.919	1.116	1.042	0.923	0.886	0.848	0.814	0.878	0.741	0.971	1.055	1.049	0.911	0.796	0.795	0.733	0.670	0.678	0.780	0.803	0.786	0.889	0.944	0.888	0.804	0.769	0.600	0.483	0.493	0.454	0.434	0.714	1.028	0.886	0.638	0.477	0.432	0.485	0.461	0.513	0.489	0.714	0.890	0.588	0.483	0.418	0.364	0.456	0.455	1.134	3.713	5.734	31.58	97.55
605.0	220.1	215.1	135.0	53.59	21.94	21.80	24.34	26.31	34.51	41.53	79.59	48.90	12.38	10.19	18.70	149.1	689.9	49.72	1.692	1.518	1.118	1.162	1.087	0.903	0.987	1.058	0.901	0.844	0.896	0.708	0.850	0.736	0.917	0.844	0.943	0.828	0.751	0.687	0.716	0.656	0.689	0.734	0.834	0.864	0.833	0.797	0.755	0.791	0.675	0.562	0.402	0.441	0.445	0.338	0.455	0.780	1.019	0.782	0.481	0.410	0.372	0.441	0.498	0.493	0.506	0.809	0.724	0.419	0.406	0.372	0.379	0.316	0.605	1.128	1.528	7.426	35.65
610.0	185.3	171.6	104.5	42.70	21.34	19.26	19.87	23.38	30.55	33.05	51.81	63.32	16.66	9.453	9.181	39.30	455.0	353.8	7.714	1.511	1.241	1.084	1.049	0.904	0.946	0.929	0.784	0.839	0.881	0.708	0.765	0.709	0.743	0.701	0.764	0.724	0.691	0.624	0.622	0.602	0.542	0.571	0.662	0.730	0.744	0.744	0.628	0.738	0.568	0.476	0.388	0.366	0.356	0.340	0.409	0.504	0.741	0.802	0.650	0.449	0.404	0.443	0.502	0.418	0.440	0.573	0.646	0.565	0.510	0.385	0.369	0.340	0.422	0.572	0.621	1.987	8.374
615.0	148.9	137.6	84.40	35.46	19.91	17.37	19.18	23.23	26.27	26.53	32.10	56.39	29.06	8.622	6.685	11.69	132.8	547.3	64.02	1.938	1.454	1.108	0.932	0.774	0.941	0.826	0.745	0.740	0.702	0.694	0.644	0.591	0.646	0.662	0.679	0.618	0.620	0.579	0.513	0.549	0.595	0.456	0.669	0.577	0.616	0.620	0.503	0.573	0.469	0.410	0.397	0.344	0.340	0.295	0.358	0.400	0.478	0.666	0.654	0.457	0.455	0.418	0.383	0.457	0.397	0.518	0.449	0.596	0.561	0.396	0.391	0.354	0.336	0.383	0.374	0.770	2.197
620.0	139.0	114.3	73.35	32.65	17.60	15.02	16.49	19.44	21.64	26.07	25.99	42.29	40.45	9.448	5.865	5.486	34.69	394.0	255.4	4.451	1.459	0.970	0.717	0.895	0.993	0.913	0.675	0.702	0.766	0.704	0.697	0.642	0.638	0.606	0.630	0.523	0.693	0.504	0.501	0.578	0.423	0.472	0.542	0.566	0.589	0.547	0.533	0.510	0.439	0.366	0.349	0.431	0.296	0.286	0.331	0.355	0.377	0.575	0.625	0.568	0.550	0.461	0.394	0.407	0.387	0.431	0.347	0.441	0.560	0.590	0.383	0.327	0.392	0.367	0.338	0.375	0.795
625.0	111.7	100.5	64.03	29.79	17.59	13.42	15.26	16.59	21.85	22.89	22.70	28.02	48.29	13.20	5.922	3.963	10.53	164.0	415.8	29.03	1.645	0.974	0.922	0.872	0.969	0.724	0.697	0.667	0.782	0.692	0.819	0.650	0.560	0.578	0.567	0.522	0.599	0.510	0.505	0.483	0.468	0.552	0.475	0.509	0.554	0.501	0.442	0.552	0.443	0.373	0.300	0.359	0.374	0.328	0.362	0.335	0.357	0.430	0.515	0.616	0.553	0.411	0.406	0.382	0.410	0.347	0.351	0.367	0.508	0.684	0.512	0.351	0.398	0.365	0.341	0.408	0.402
630.0	92.87	84.06	51.36	26.94	15.12	12.62	13.64	15.19	17.60	19.52	19.90	18.81	38.24	24.37	6.221	3.808	4.611	43.57	300.8	227.4	5.450	1.011	0.980	0.865	0.893	0.802	0.716	0.613	0.662	0.655	0.690	0.622	0.494	0.567	0.547	0.555	0.508	0.482	0.485	0.514	0.550	0.485	0.427	0.447	0.535	0.513	0.440	0.463	0.412	0.328	0.299	0.359	0.322	0.312	0.302	0.314	0.340	0.396	0.422	0.581	0.530	0.425	0.435	0.369	0.387	0.345	0.400	0.360	0.419	0.501	0.522	0.419	0.324	0.395	0.314	0.332	0.411
635.0	74.61	61.99	44.69	21.81	14.12	12.51	12.33	14.26	16.62	17.22	16.15	15.09	22.55	34.12	8.340	3.712	3.211	11.62	93.75	405.8	54.69	1.107	0.972	0.933	0.837	0.806	0.835	0.580	0.605	0.629	0.773	0.604	0.603	0.650	0.499	0.539	0.496	0.533	0.398	0.420	0.516	0.441	0.541	0.441	0.433	0.447	0.364	0.394	0.404	0.319	0.288	0.333	0.325	0.324	0.351	0.269	0.318	0.319	0.328	0.427	0.509	0.468	0.438	0.354	0.405	0.374	0.307	0.342	0.413	0.363	0.467	0.526	0.380	0.369	0.305	0.334	0.345
640.0	55.22	57.57	38.16	20.72	12.06	12.05	11.55	12.98	13.91	15.98	15.73	13.12	14.97	33.67	13.51	3.767	3.078	4.483	24.96	307.4	261.5	1.986	0.868	0.960	0.908	0.747	0.688	0.635	0.582	0.529	0.556	0.594	0.521	0.540	0.523	0.504	0.474	0.561	0.436	0.409	0.398	0.485	0.475	0.433	0.402	0.439	0.377	0.400	0.367	0.290	0.293	0.315	0.278	0.269	0.305	0.281	0.363	0.297	0.302	0.436	0.451	0.494	0.434	0.369	0.386	0.360	0.333	0.321	0.346	0.363	0.412	0.523	0.509	0.397	0.285	0.310	0.358
645.0	53.87	48.90	37.19	18.21	13.97	10.88	11.03	11.63	12.65	13.45	15.28	12.32	11.34	25.45	20.23	4.162	2.541	2.838	7.261	134.4	461.4	11.14	0.992	0.849	0.994	0.774	0.653	0.621	0.581	0.601	0.649	0.515	0.599	0.585	0.454	0.484	0.471	0.483	0.441	0.422	0.417	0.566	0.463	0.406	0.397	0.369	0.312	0.405	0.333	0.226	0.292	0.300	0.280	0.259	0.264	0.309	0.349	0.299	0.325	0.391	0.426	0.458	0.451	0.379	0.358	0.359	0.346	0.317	0.343	0.357	0.340	0.400	0.519	0.507	0.379	0.310	0.356
650.0	57.20	45.80	32.13	16.98	12.77	11.03	10.92	11.38	12.08	12.20	12.85	11.00	10.80	16.63	24.55	5.863	2.418	2.346	2.981	38.42	467.4	54.20	1.357	0.923	0.791	0.918	0.564	0.598	0.556	0.553	0.597	0.589	0.601	0.560	0.457	0.438	0.435	0.408	0.436	0.414	0.395	0.501	0.483	0.399	0.372	0.400	0.334	0.345	0.333	0.270	0.266	0.280	0.287	0.284	0.314	0.289	0.350	0.274	0.328	0.347	0.452	0.390	0.475	0.425	0.387	0.353	0.310	0.359	0.323	0.344	0.306	0.403	0.481	0.447	0.398	0.301	0.411
