Sample:	'1
File name:	f202505001–“∑·«≈.FD3
Run date:	'19:17:38, 05/09/2025
Operator:	Administrator
Comment:	'

Instrument
Model:	F-2700 FL Spectrophotometer
Serial number:	23B8-004
ROM Version:	4J14000 07

Instrument parameters
Measurement type:	3-D scan
Data mode:	Fluorescence
EX  Start WL:	220.0 nm
EX  End WL:	600.0 nm
EX Sampling interval:	5.0 nm
EM  Start WL:	230.0 nm
EM  End WL:	650.0 nm
EM Sampling interval:	5.0 nm
Scan speed:	12000 nm/min
EX Slit:	5.0 nm
EM Slit:	5.0 nm
PMT Voltage:	700 V
Response:	Auto 
Corrected spectra:	Off
Contour interval:	50.000

Peak integration
Integration method:	Rectangular
Sensitivity:	1
Threshold:	1.000

Peaks
No.	ApexEX/EM(nm)	Height(Data)
1	225.0/565.0	70.52
2	230.0/345.0	1805
3	230.0/580.0	62.70
4	230.0/595.0	62.04
5	230.0/610.0	62.96
6	230.0/625.0	59.84
7	230.0/635.0	60.29
8	240.0/525.0	248.9
9	245.0/535.0	192.8
10	250.0/550.0	158.9
11	255.0/280.0	563.1
12	255.0/560.0	132.2
13	260.0/290.0	580.5
14	260.0/575.0	111.0
15	265.0/585.0	101.1
16	270.0/300.0	1071
17	270.0/600.0	96.10
18	275.0/310.0	1254
19	275.0/335.0	1489
20	275.0/615.0	94.35
21	280.0/315.0	1345
22	280.0/625.0	83.86
23	285.0/320.0	1369
24	440.0/520.0	24.46
25	460.0/345.0	6.031
26	520.0/285.0	3.807
27	530.0/290.0	4.179
28	540.0/295.0	5.303
29	550.0/305.0	6.626
30	565.0/340.0	7.786
31	575.0/320.0	7.376
32	585.0/325.0	7.444

Data points
	220.0	225.0	230.0	235.0	240.0	245.0	250.0	255.0	260.0	265.0	270.0	275.0	280.0	285.0	290.0	295.0	300.0	305.0	310.0	315.0	320.0	325.0	330.0	335.0	340.0	345.0	350.0	355.0	360.0	365.0	370.0	375.0	380.0	385.0	390.0	395.0	400.0	405.0	410.0	415.0	420.0	425.0	430.0	435.0	440.0	445.0	450.0	455.0	460.0	465.0	470.0	475.0	480.0	485.0	490.0	495.0	500.0	505.0	510.0	515.0	520.0	525.0	530.0	535.0	540.0	545.0	550.0	555.0	560.0	565.0	570.0	575.0	580.0	585.0	590.0	595.0	600.0
230.0	54.05	2149	7321	2938	113.9	11.97	9.175	7.520	7.076	7.255	7.030	5.998	5.990	5.704	4.787	4.043	3.872	3.782	3.512	3.136	2.939	2.658	2.486	2.244	2.070	1.949	1.814	1.623	1.627	1.670	1.544	1.493	1.498	1.375	1.237	1.266	1.081	0.982	0.908	0.875	0.841	0.852	0.874	0.808	0.802	0.672	1.960	10.77	23.64	20.30	8.533	1.791	0.558	0.515	0.465	0.470	0.467	0.389	0.380	0.355	0.350	0.337	0.303	0.322	0.305	0.273	0.250	0.261	0.181	0.198	0.204	0.148	0.174	0.144	0.138	0.138	0.153
235.0	91.18	577.8	4398	9434	3516	197.7	12.39	9.576	8.112	8.270	7.531	7.819	6.573	6.487	4.854	4.082	4.062	3.898	3.258	3.029	2.923	2.637	2.517	2.540	2.104	1.957	1.943	1.612	1.602	1.504	1.471	1.446	1.483	1.313	1.328	1.284	1.148	1.105	0.865	0.844	0.825	0.862	0.885	0.975	0.850	0.793	0.987	3.140	8.366	17.34	29.75	25.14	15.77	3.823	0.621	0.417	0.549	0.396	0.385	0.447	0.325	0.385	0.282	0.308	0.328	0.319	0.297	0.258	0.222	0.217	0.164	0.216	0.152	0.167	0.149	0.175	0.170
240.0	122.9	224.0	1260	7764	9999.9	2752	99.84	14.93	11.89	10.93	7.770	8.340	7.597	7.040	5.636	4.615	4.441	4.417	3.350	3.548	3.236	2.624	2.778	2.415	2.339	2.266	2.048	1.920	1.870	1.770	1.626	1.736	1.404	1.400	1.550	1.264	1.236	1.210	0.925	0.925	0.817	0.913	0.764	0.971	1.014	0.961	0.899	1.234	2.436	5.123	14.84	38.26	54.16	25.92	13.65	2.080	0.658	0.507	0.370	0.339	0.395	0.358	0.316	0.315	0.338	0.360	0.300	0.262	0.201	0.195	0.211	0.269	0.170	0.151	0.201	0.181	0.165
245.0	101.7	190.4	355.8	2543	9999.9	9999.9	442.8	42.31	16.76	12.40	11.50	9.641	8.450	7.303	6.164	5.337	4.589	4.114	3.609	3.444	3.131	2.809	2.869	2.660	2.439	2.223	1.975	1.935	1.830	1.726	1.660	1.708	1.520	1.314	1.541	1.291	1.339	1.102	0.823	0.832	1.055	0.892	0.753	0.831	0.945	1.004	1.052	1.165	1.249	1.664	3.903	12.23	34.89	64.96	67.60	23.51	10.09	1.119	0.446	0.398	0.377	0.406	0.356	0.376	0.392	0.358	0.305	0.276	0.216	0.269	0.189	0.244	0.199	0.231	0.208	0.225	0.170
250.0	60.10	138.7	275.0	678.4	3257	9999.9	9999.9	5339	128.2	21.17	16.61	13.89	9.932	9.036	7.300	5.278	5.407	5.034	4.540	3.913	3.320	3.000	3.007	2.886	2.496	2.484	2.341	2.030	1.758	1.916	1.818	1.703	1.543	1.499	1.401	1.344	1.352	1.164	1.102	0.985	0.959	0.894	0.944	0.880	0.911	0.913	0.896	1.212	1.346	1.402	1.577	3.307	8.564	20.29	38.46	58.49	82.18	67.00	17.49	8.924	1.270	0.481	0.458	0.484	0.383	0.393	0.358	0.308	0.277	0.294	0.214	0.275	0.237	0.246	0.230	0.210	0.204
255.0	58.58	64.64	184.6	407.8	830.8	2529	9999.9	9999.9	2330	152.9	28.82	20.58	13.77	12.36	9.189	6.792	6.789	5.952	5.108	4.320	3.737	3.283	3.337	3.034	2.818	2.830	2.525	2.327	2.029	2.002	1.996	1.749	1.603	1.384	1.501	1.299	1.312	1.192	1.272	1.042	1.051	0.900	1.025	0.974	0.884	0.789	1.010	0.899	0.858	1.185	1.701	2.002	2.689	5.134	9.176	14.09	29.64	68.81	122.3	131.9	27.61	11.20	1.006	0.632	0.514	0.420	0.402	0.287	0.423	0.357	0.309	0.274	0.237	0.268	0.230	0.258	0.228
260.0	55.35	50.70	85.75	296.1	426.4	637.0	3143	9999.9	9999.9	1888	96.37	28.82	20.21	16.67	10.55	8.710	7.742	6.219	5.428	4.545	4.209	3.877	3.583	3.180	2.814	2.714	2.673	2.509	2.400	2.288	2.184	2.030	1.654	1.583	1.574	1.404	1.314	1.237	1.097	1.277	1.064	0.986	1.055	0.980	1.050	0.985	0.943	0.851	0.739	0.846	1.160	1.953	2.238	2.191	2.676	3.698	7.455	18.56	53.48	125.7	173.3	134.3	23.14	6.130	0.777	0.542	0.493	0.364	0.447	0.374	0.412	0.373	0.371	0.300	0.213	0.210	0.226
265.0	63.79	54.70	54.16	149.8	386.3	328.0	774.0	4554	9999.9	9999.9	1421	51.71	28.34	20.67	13.53	10.97	8.744	6.979	6.723	5.362	5.058	4.108	3.833	3.378	3.008	3.229	2.729	2.870	2.617	2.509	2.375	2.102	1.912	1.771	1.564	1.505	1.334	1.333	1.207	1.274	1.032	1.091	0.990	1.122	1.111	1.008	0.862	0.939	0.739	0.864	0.827	1.236	1.910	2.650	2.038	1.525	2.404	4.827	12.84	36.35	95.34	181.2	211.6	32.46	17.60	2.214	0.698	0.609	0.511	0.442	0.456	0.418	0.427	0.347	0.276	0.237	0.394
270.0	81.57	80.04	68.64	80.55	198.9	382.9	392.9	1116	5182	9999.9	9999.9	5281	92.80	34.07	21.46	14.78	11.91	9.849	7.813	6.569	5.676	5.004	4.136	3.982	3.570	3.294	3.074	2.891	2.821	2.850	2.523	2.441	2.045	1.893	1.753	1.654	1.601	1.427	1.338	1.291	1.205	1.249	1.202	1.232	1.058	1.101	0.955	0.991	0.847	0.896	0.806	0.930	1.140	1.690	2.141	2.476	2.212	2.180	3.588	8.822	22.83	52.25	104.2	146.6	193.8	138.1	98.52	12.18	2.730	0.685	0.626	0.540	0.522	0.468	0.376	0.411	0.340
275.0	148.0	165.8	133.4	88.95	99.69	196.0	489.8	482.2	1246	3020	9999.9	9999.9	7224	101.3	35.48	23.01	16.47	13.40	9.725	8.390	7.067	5.661	5.355	4.689	4.015	3.557	3.463	3.171	3.380	3.292	2.934	2.514	2.512	2.391	2.192	1.835	1.765	1.552	1.491	1.328	1.473	1.413	1.256	1.436	1.314	1.334	1.370	1.268	1.067	0.976	0.863	0.965	0.925	1.005	1.100	1.644	2.583	3.471	2.734	2.990	5.888	12.46	24.03	34.49	58.42	125.3	278.3	247.9	32.87	17.43	1.804	0.885	0.753	0.551	0.477	0.523	0.557
280.0	212.9	242.2	197.4	129.2	87.11	101.2	334.6	563.1	446.4	798.0	4212	9999.9	9999.9	1079	69.35	32.94	21.96	17.22	12.48	10.15	8.093	6.738	6.138	5.340	4.699	4.100	4.334	3.545	3.453	3.385	3.355	2.964	2.674	2.386	2.378	2.204	1.998	1.792	1.571	1.488	1.285	1.475	1.299	1.482	1.441	1.457	1.459	1.524	1.390	1.186	1.107	1.000	0.961	1.074	0.942	1.007	1.482	2.531	3.643	3.326	2.607	3.789	6.322	8.894	14.22	31.66	97.71	216.9	317.8	235.5	29.12	10.70	1.383	0.804	0.657	0.646	0.627
285.0	292.2	349.9	288.5	187.3	98.94	85.63	169.0	514.8	520.5	336.8	1126	6649	9999.9	9999.9	751.8	49.50	31.60	21.10	15.76	11.61	9.846	7.891	6.817	5.995	5.206	4.716	4.532	4.036	3.654	3.332	3.296	3.113	2.781	2.540	2.630	2.400	2.140	2.044	1.729	1.809	1.532	1.556	1.471	1.537	1.592	1.570	1.659	1.806	1.685	1.434	1.304	1.152	1.065	1.101	0.988	1.047	1.212	1.603	2.397	3.604	3.807	2.860	2.654	3.155	4.416	8.360	23.36	56.38	137.3	294.5	363.5	207.9	23.61	4.786	1.058	0.869	0.846
290.0	408.8	484.4	421.9	269.1	134.7	103.7	132.0	279.3	580.5	524.8	521.8	1772	7069	9999.9	9999.9	3053	65.55	34.36	22.06	15.95	12.79	10.12	8.516	6.821	6.007	5.594	5.077	4.636	4.282	3.902	3.627	3.503	3.170	2.996	2.777	2.698	2.533	2.286	1.924	2.025	1.687	1.650	1.666	1.761	1.817	1.929	2.001	2.218	1.988	1.746	1.536	1.343	1.266	1.199	1.127	1.204	1.315	1.300	1.650	2.128	2.996	3.692	4.179	3.408	2.847	3.367	6.879	14.17	32.61	75.72	143.0	224.7	232.2	202.5	133.0	16.23	5.539
295.0	495.1	593.3	551.7	351.4	190.7	147.3	166.1	223.6	375.6	742.6	773.5	772.4	1895	3274	9999.9	9999.9	4502	71.10	35.88	23.23	17.16	13.96	10.98	9.012	7.706	6.988	5.982	5.390	4.856	4.401	4.180	3.722	3.651	3.314	2.972	2.833	2.647	2.560	2.116	1.955	2.098	2.058	1.992	1.834	2.052	2.375	2.234	2.634	2.226	2.055	1.754	1.651	1.532	1.539	1.305	1.359	1.411	1.453	1.648	2.010	1.913	2.389	3.387	4.568	5.303	3.756	3.757	5.223	9.415	19.02	33.56	52.14	61.12	120.9	291.0	403.7	222.6
300.0	543.2	674.3	637.3	438.0	239.5	197.5	215.0	266.6	360.7	620.6	1071	803.7	846.8	1070	4389	9999.9	9999.9	634.4	56.64	32.22	22.34	16.49	13.35	10.71	8.747	7.510	6.250	5.798	5.298	5.043	4.819	3.919	3.838	3.353	3.175	2.907	2.912	2.854	2.566	2.262	2.248	2.177	1.972	2.027	2.194	2.437	2.640	2.713	2.603	2.330	1.889	2.019	1.729	1.889	1.521	1.594	1.606	1.664	1.883	2.063	2.200	2.101	2.858	3.543	5.189	5.832	5.391	4.131	4.853	7.024	9.610	13.85	15.55	29.60	85.82	222.3	402.5
305.0	642.1	788.4	760.5	500.3	290.8	249.6	277.7	342.6	434.5	601.8	1013	1196	794.2	664.6	1287	6972	9999.9	9999.9	471.5	45.24	28.95	20.44	16.41	12.48	10.22	8.341	7.470	6.255	5.632	5.562	4.960	4.259	4.207	3.554	3.389	3.207	2.879	3.107	2.575	2.458	2.188	2.121	2.186	2.266	2.412	2.563	2.819	2.975	2.863	2.579	2.108	2.160	2.001	1.855	1.733	1.873	1.768	1.994	2.245	2.446	2.953	2.548	3.207	3.487	4.069	5.593	6.626	6.052	5.149	5.232	4.985	5.636	5.678	8.811	20.93	54.02	137.3
310.0	668.4	886.6	851.3	603.7	346.3	309.2	346.6	427.5	545.6	713.9	939.9	1254	1226	783.1	670.7	1816	7558	9999.9	9999.9	2188	53.24	31.13	22.64	15.97	13.03	10.35	8.820	7.262	6.914	6.210	5.514	4.873	4.470	3.752	3.636	3.340	3.261	3.206	2.905	2.647	2.331	2.414	2.358	2.401	2.504	2.970	3.052	3.364	3.142	2.821	2.518	2.574	2.295	2.236	2.097	2.097	2.258	2.448	2.657	2.803	3.303	3.129	3.643	4.115	4.395	4.951	5.541	6.273	6.803	7.333	5.726	4.597	4.270	4.518	6.817	13.93	32.44
315.0	730.9	1002	978.4	686.6	421.0	382.4	429.6	512.9	650.5	828.9	1015	1188	1345	1198	678.4	681.5	1872	3183	9999.9	9999.9	3384	58.54	33.27	22.90	17.14	13.27	10.65	9.139	7.988	7.115	6.304	5.391	4.857	4.304	4.040	3.573	3.549	3.280	3.109	3.039	2.791	2.779	2.531	2.545	2.967	3.480	3.269	3.715	3.721	3.205	2.971	2.774	2.534	2.601	2.318	2.425	2.662	2.771	3.029	3.219	3.711	3.480	4.572	4.484	4.913	5.654	5.697	5.789	6.100	7.467	7.462	6.974	5.240	4.295	4.331	5.282	9.077
320.0	837.8	1071	1092	800.5	479.8	443.2	488.8	573.6	726.3	930.3	1113	1253	1308	1369	929.7	507.3	654.4	892.5	4370	9999.9	9999.9	485.5	51.10	29.89	21.22	16.14	12.82	10.75	8.531	8.161	7.416	5.849	5.385	4.493	4.188	3.872	3.815	3.267	3.325	3.116	2.765	2.703	2.787	2.687	3.100	3.369	3.769	4.177	4.048	3.489	3.010	3.250	2.827	2.688	2.614	2.652	2.735	3.044	3.136	3.395	3.864	4.251	5.059	5.189	5.420	5.888	6.052	5.946	6.531	7.049	6.498	7.376	7.302	6.043	4.490	3.584	3.987
325.0	875.4	1262	1292	932.2	570.6	492.1	528.0	621.0	791.0	1016	1216	1336	1350	1293	1169	606.6	431.3	400.1	1145	6945	9999.9	9999.9	392.0	42.32	28.41	19.80	15.49	13.07	10.35	9.055	7.877	6.317	5.790	5.016	4.803	3.781	3.716	3.832	3.437	3.184	2.909	2.840	2.939	2.814	3.184	3.949	4.205	4.760	4.637	3.860	3.297	3.517	2.917	3.126	2.682	2.832	2.866	3.356	3.357	3.664	4.361	4.389	5.130	5.378	5.658	6.300	6.011	6.335	6.795	7.388	6.590	6.576	6.911	7.444	6.317	4.064	3.466
330.0	966.6	1434	1574	1152	680.3	554.0	580.2	684.4	845.7	1085	1294	1433	1424	1278	1115	841.2	511.4	332.7	425.8	1723	7158	9999.9	9999.9	1819	47.87	29.17	21.51	15.57	12.72	11.03	9.041	7.401	6.594	5.677	5.022	4.402	3.980	3.919	3.501	3.424	3.020	2.967	3.043	3.012	3.376	4.042	4.276	5.277	5.295	4.735	4.041	4.131	3.561	3.523	3.019	3.171	3.290	3.500	3.670	3.930	4.344	4.674	5.589	5.637	6.042	6.549	6.704	7.068	7.127	7.641	6.998	6.677	6.425	6.671	6.456	5.830	4.930
335.0	1041	1548	1672	1304	791.6	641.7	639.6	713.1	880.3	1109	1336	1489	1479	1316	1073	835.5	739.5	426.7	309.4	545.8	1714	3070	9999.9	9999.9	3045	51.97	31.15	21.46	16.77	13.28	11.11	8.706	7.414	6.468	5.899	4.575	4.425	4.050	3.435	3.559	3.151	3.036	3.346	3.298	3.580	3.872	4.537	5.436	5.935	5.113	4.515	4.732	3.851	4.174	3.477	3.351	3.494	3.666	3.774	4.024	4.495	4.634	5.991	5.839	6.200	6.763	6.752	6.992	7.433	7.759	7.292	7.340	6.454	6.410	5.797	5.308	5.458
340.0	1050	1603	1755	1372	874.6	689.4	665.4	732.8	885.0	1127	1328	1488	1474	1322	1079	798.5	746.4	585.3	326.0	306.2	512.3	790.7	4329	9999.9	9999.9	425.2	46.85	27.49	20.72	16.03	12.23	10.14	7.930	7.385	6.078	5.090	4.828	4.204	3.893	3.445	3.278	3.368	3.420	3.257	3.695	4.197	4.442	5.694	5.911	5.398	4.668	5.096	4.062	4.311	3.571	3.352	3.751	3.820	3.868	4.063	4.792	4.823	6.059	5.969	6.537	7.016	6.605	6.838	7.402	7.786	7.341	7.149	6.451	6.400	5.567	5.078	4.912
345.0	1003	1574	1805	1385	917.9	720.9	687.0	747.8	889.8	1104	1298	1449	1435	1305	1072	791.3	663.0	653.9	424.1	277.1	259.9	287.1	1079	6838	9999.9	9999.9	364.0	37.97	24.61	18.88	14.71	11.06	8.993	7.612	6.344	5.225	4.854	4.348	4.119	3.606	3.497	3.388	3.478	3.192	3.883	4.202	4.495	5.804	6.031	5.480	4.875	4.901	4.470	4.278	3.706	3.385	3.523	3.957	4.008	4.279	4.640	4.791	5.692	5.883	6.390	6.668	6.472	6.755	7.202	7.604	6.936	6.766	6.526	6.405	5.780	5.159	4.821
350.0	946.9	1463	1690	1373	958.9	757.9	728.3	765.3	886.2	1057	1235	1365	1354	1249	1044	794.8	639.7	572.5	531.2	376.5	240.4	199.9	350.5	1647	6842	9999.9	9999.9	7361	42.62	26.33	18.83	14.11	10.37	8.581	7.315	5.726	5.010	4.897	4.265	3.864	3.383	3.327	3.304	3.255	3.801	4.061	4.552	5.483	5.562	5.126	4.663	5.045	4.314	4.300	3.849	3.598	3.724	4.000	4.039	4.111	4.517	4.710	5.464	5.683	5.845	6.257	6.195	6.438	6.683	7.062	7.003	6.685	6.325	6.061	5.541	5.099	4.718
355.0	881.3	1303	1539	1305	986.5	825.2	764.9	787.9	884.6	1020	1160	1266	1271	1189	1012	796.2	657.2	546.6	494.4	497.7	329.2	216.5	215.1	474.1	1612	2891	9999.9	9999.9	2939	48.55	27.16	18.74	13.05	9.949	8.376	6.468	5.826	5.281	4.374	3.928	3.608	3.563	3.612	3.171	3.463	3.927	4.395	5.233	5.501	4.869	4.792	5.104	4.579	4.471	4.173	3.758	3.741	3.994	4.068	4.094	4.640	4.904	5.317	5.574	5.657	5.782	5.883	5.991	6.339	6.383	6.780	6.269	6.095	5.949	5.465	5.233	4.803
360.0	837.5	1229	1486	1276	998.4	853.1	783.1	805.2	892.4	1020	1131	1205	1197	1128	984.4	798.9	669.6	567.7	483.0	486.8	441.8	271.0	207.1	232.8	457.6	730.0	3715	9999.9	9999.9	2471	43.59	23.56	17.15	12.19	9.464	7.050	6.538	5.744	4.785	4.131	3.877	3.494	3.606	3.495	3.329	3.920	4.436	4.933	5.410	4.690	4.601	4.816	4.586	4.642	4.278	3.855	4.031	4.022	4.156	4.233	4.466	5.045	5.273	5.512	5.350	5.509	5.556	5.943	6.470	6.223	6.098	5.869	6.149	5.937	5.302	5.177	4.935
365.0	783.9	1147	1349	1221	1002	864.5	803.8	822.0	892.5	997.7	1087	1149	1148	1080	950.1	784.7	677.2	581.4	496.4	455.3	471.9	373.2	239.0	201.1	220.2	252.7	916.2	5463	9999.9	9999.9	366.0	36.38	21.44	15.49	11.37	8.217	7.167	5.886	5.260	4.435	4.015	3.750	3.627	3.483	3.467	4.033	4.370	4.779	5.228	4.657	4.389	5.074	4.471	4.449	4.185	3.871	4.242	4.208	4.354	4.217	4.515	4.777	4.947	5.330	5.307	5.346	5.310	5.859	5.911	6.265	5.937	5.698	6.072	5.603	5.376	5.102	4.717
370.0	744.1	1052	1236	1165	1004	895.0	842.6	839.3	895.8	973.8	1033	1084	1069	1017	910.8	770.9	685.3	601.6	526.5	473.3	439.0	436.6	351.1	241.8	196.0	170.1	293.2	1312	5708	9999.9	9999.9	8100	38.28	22.27	15.53	10.86	8.636	7.134	5.819	4.971	4.440	3.863	3.684	3.647	3.698	4.081	4.112	4.721	4.761	4.393	4.338	4.872	4.497	4.469	4.181	4.129	4.127	4.205	4.277	4.386	4.495	4.683	5.026	5.049	5.021	5.172	5.160	5.298	5.503	5.759	5.486	5.577	5.560	5.543	5.138	5.009	4.838
375.0	665.7	975.5	1133	1112	1006	913.5	855.3	854.9	886.2	948.2	986.0	1024	1006	958.8	870.1	757.4	681.7	618.3	551.9	496.7	448.2	413.7	422.6	340.3	230.7	179.2	177.1	379.8	1345	2738	9999.9	9999.9	2680	41.74	22.91	15.13	11.48	8.814	6.953	5.505	4.660	4.151	3.983	3.796	3.870	3.987	3.958	4.619	4.572	4.044	4.148	4.842	4.629	4.503	4.183	4.246	4.478	4.285	4.459	4.306	4.529	4.700	4.734	4.918	5.050	4.920	4.805	5.199	5.188	5.251	5.237	5.312	5.614	5.274	5.157	4.828	4.673
380.0	658.1	904.0	1086	1081	1002	909.8	858.5	836.9	872.4	912.9	954.2	989.7	961.6	905.8	839.5	741.5	677.4	620.7	564.0	516.8	468.5	419.7	412.4	410.2	286.2	201.9	167.5	187.1	380.9	684.8	3384	9999.9	9999.9	2266	36.77	20.04	13.93	10.37	7.901	6.360	5.307	4.749	4.198	4.033	3.867	4.027	3.828	4.473	4.523	4.062	4.230	5.063	4.583	4.708	4.326	4.432	4.517	4.275	4.161	4.249	4.512	4.825	4.422	4.870	4.962	4.788	4.747	4.839	4.754	5.056	4.999	4.938	5.211	5.249	4.905	4.405	5.054
385.0	627.0	891.7	1031	1045	987.1	912.3	862.5	825.9	857.4	884.5	917.1	930.5	914.7	873.6	809.8	720.1	666.9	618.7	573.7	531.6	480.4	437.2	401.3	412.5	364.8	242.3	189.1	159.5	177.5	230.6	832.0	4586	9999.9	9999.9	314.6	29.86	17.47	12.83	8.952	7.360	6.106	4.901	4.522	4.212	3.842	4.122	4.043	4.741	4.329	3.977	3.923	4.878	4.667	4.719	4.495	4.272	4.486	4.388	4.368	4.358	4.556	4.802	4.757	4.449	5.163	4.835	4.497	4.820	4.773	4.781	4.864	4.760	5.067	4.612	4.832	4.773	4.843
390.0	578.3	826.6	964.8	994.2	955.5	904.0	841.3	809.7	839.0	850.5	874.7	883.5	861.3	822.2	765.8	694.4	651.2	612.4	571.4	537.5	494.4	459.6	416.3	394.8	390.6	327.3	234.4	182.5	156.9	145.1	260.3	1095	4471	9999.9	9999.9	7275	31.83	17.99	12.14	9.316	7.377	5.835	5.398	4.579	4.174	4.374	4.163	4.697	4.142	4.059	3.777	4.517	4.461	4.545	4.562	4.305	4.506	4.428	4.253	4.260	4.315	4.482	4.656	4.503	4.661	4.574	4.534	4.472	4.641	4.649	4.818	4.635	4.761	4.532	4.293	4.692	4.751
395.0	550.8	784.4	940.7	955.0	912.6	897.3	834.0	812.0	819.2	825.4	833.6	842.8	808.7	775.8	731.0	671.6	628.7	597.5	569.9	539.0	503.7	474.0	436.9	405.6	375.7	368.8	317.7	223.4	179.5	149.9	149.7	314.8	1050	2485	9999.9	9999.9	9999.9	36.35	18.40	12.96	9.254	7.058	6.239	5.374	4.832	4.586	4.224	4.645	4.393	4.194	4.041	4.553	4.616	4.779	4.464	4.338	4.428	4.355	4.277	4.287	4.506	4.323	4.554	4.338	4.277	4.387	4.536	4.363	4.580	4.581	4.499	4.356	4.456	4.573	4.129	4.586	4.343
400.0	562.3	737.5	906.2	933.2	910.9	880.0	830.5	806.3	808.4	807.1	813.1	814.0	782.5	747.7	704.1	651.6	613.0	586.6	554.8	531.6	506.4	480.2	447.4	415.5	382.1	358.6	356.9	280.2	204.9	166.0	137.2	150.7	295.7	606.4	2807	9999.9	9999.9	2131	32.74	16.20	10.86	8.677	6.772	5.579	4.935	4.938	4.462	4.542	4.395	4.187	3.955	4.453	4.655	4.544	4.480	4.236	4.415	4.394	4.435	4.410	4.251	4.218	4.373	4.373	4.372	4.290	4.101	4.012	4.300	4.400	4.006	4.218	4.414	4.155	3.982	4.122	4.306
405.0	532.4	708.6	850.6	888.4	889.6	854.2	823.8	798.4	793.7	789.7	794.6	786.2	752.7	725.2	678.1	628.9	602.4	571.0	544.4	521.9	501.4	475.2	452.8	424.5	386.6	357.5	355.3	331.8	241.4	186.3	149.4	122.9	134.5	188.3	674.5	3370	9999.9	9999.9	1745	27.07	13.91	9.788	7.947	6.291	5.386	5.277	4.842	4.380	4.432	4.033	4.014	4.533	4.407	4.265	4.406	4.361	4.701	4.337	4.475	4.349	4.259	4.169	4.264	4.221	4.061	4.123	3.982	3.968	4.401	4.036	4.001	4.414	4.232	4.069	3.854	4.246	3.941
410.0	509.8	694.5	802.2	855.7	857.2	839.2	811.9	782.8	766.8	766.2	752.7	747.3	721.2	687.3	644.6	597.0	570.4	541.2	520.4	505.8	485.6	467.8	453.0	428.7	397.0	365.8	340.2	334.1	301.6	225.2	169.5	131.9	108.1	101.0	197.8	795.6	3406	9999.9	9999.9	7164	28.45	14.47	10.43	7.793	6.337	5.421	4.911	4.679	4.583	4.053	4.093	4.527	4.460	4.496	4.278	4.175	4.484	4.395	4.397	4.279	4.271	4.034	4.262	3.999	3.956	3.911	3.803	4.111	3.974	3.839	4.005	4.071	4.012	3.998	3.888	3.788	4.067
415.0	495.5	621.5	762.0	825.4	820.2	823.7	789.1	765.2	758.3	737.5	722.7	710.0	682.0	651.4	603.1	564.7	533.3	507.8	494.2	480.0	465.0	452.9	440.8	424.5	400.1	372.9	344.6	318.0	312.2	279.8	199.1	147.3	113.4	90.37	96.47	218.5	793.1	2362	9841	9999.9	9999.9	34.19	14.77	9.959	7.992	6.639	5.355	5.384	4.719	4.054	4.160	4.483	4.253	4.562	4.481	4.138	4.495	4.294	4.343	4.044	4.168	4.127	4.159	3.977	3.747	3.554	3.616	3.644	4.057	3.790	3.874	3.647	3.740	3.959	3.702	3.524	3.734
420.0	468.6	596.8	750.0	797.5	798.0	788.8	759.2	738.1	733.0	714.7	700.1	685.0	653.2	618.9	575.7	537.1	507.2	482.8	470.2	460.9	446.7	438.0	431.0	414.7	396.4	368.8	344.6	315.2	297.3	295.3	233.9	159.8	123.3	94.01	78.03	93.02	211.7	557.9	2483	9999.9	9999.9	2036	30.24	12.94	9.689	7.885	6.277	5.530	5.058	4.196	4.209	4.423	4.339	4.322	3.991	4.172	4.412	4.191	4.129	4.135	4.108	4.121	4.035	4.309	3.790	3.485	3.662	3.554	3.676	3.842	3.496	3.521	3.687	4.086	3.610	3.674	3.864
425.0	452.5	587.3	695.1	762.8	780.4	778.0	751.2	732.9	715.3	697.2	695.8	661.9	627.7	591.5	552.1	509.9	483.0	463.5	452.6	438.8	429.7	423.1	422.2	404.1	391.7	366.4	345.4	317.7	291.4	281.7	262.0	185.7	132.8	102.0	78.92	69.12	84.62	155.3	583.1	2880	9999.9	9999.9	1707	25.06	12.18	9.190	7.117	6.258	5.355	4.403	4.195	4.548	4.381	4.359	4.333	4.262	4.132	4.130	4.144	4.100	4.111	4.025	3.902	3.835	3.786	3.715	3.752	3.630	3.623	3.650	3.353	3.448	3.679	3.624	3.500	3.557	3.464
430.0	516.4	564.7	676.4	734.0	753.7	746.1	746.5	726.4	706.5	686.4	671.7	641.6	602.2	568.6	521.1	479.4	452.4	435.2	424.3	415.8	404.8	404.9	402.0	390.2	379.0	359.5	339.7	316.4	294.8	269.5	253.3	218.5	157.2	113.2	87.10	69.22	61.51	68.84	157.6	668.5	2921	9999.9	9999.9	6686	107.4	13.55	9.031	7.535	5.898	4.926	4.607	4.738	4.564	4.693	4.418	4.257	4.352	4.202	4.179	3.949	4.077	3.913	4.023	3.762	3.741	3.527	3.422	3.577	3.393	3.478	3.371	3.257	3.453	3.427	3.319	3.351	3.363
435.0	939.3	547.0	637.5	698.9	720.0	731.6	720.4	712.7	689.7	661.9	655.3	615.1	573.6	537.7	493.9	454.4	426.9	411.6	399.4	392.6	384.0	383.1	379.6	371.0	361.5	349.5	331.3	313.3	292.2	266.4	239.0	219.9	191.2	132.6	95.77	76.04	60.89	53.67	64.84	173.6	673.2	2306	7925	9999.9	9999.9	32.39	13.62	9.912	7.489	5.684	4.988	5.144	4.873	4.868	4.682	4.387	4.793	4.100	4.390	4.185	4.161	3.854	3.938	3.601	3.681	3.662	3.754	3.469	3.409	3.306	3.128	3.468	3.196	3.125	3.166	2.952	3.275
440.0	1382	679.4	623.5	678.0	692.8	701.4	710.3	702.5	680.9	651.8	630.3	605.5	553.3	522.0	469.6	429.6	407.0	392.6	375.9	373.8	364.1	367.2	363.3	357.5	350.4	338.7	324.7	309.8	290.1	265.7	234.8	209.0	195.3	155.4	107.0	82.75	64.67	52.41	46.94	65.87	172.1	536.4	1980	9999.9	9999.9	1907	26.99	12.90	8.891	6.774	5.619	5.593	4.839	4.892	4.697	4.623	4.853	4.154	4.257	4.325	4.148	3.916	3.808	3.626	3.350	3.380	3.519	3.186	3.353	3.228	3.187	3.218	3.129	3.140	3.182	2.977	2.899
445.0	1663	1208	615.3	657.2	684.3	672.3	694.4	678.5	665.9	632.2	608.2	583.6	540.4	500.5	448.2	410.2	387.1	373.2	358.7	350.8	348.5	344.9	344.5	341.8	337.6	326.4	314.9	302.3	287.1	261.3	233.4	200.7	184.1	169.4	120.8	87.34	70.69	54.15	45.08	42.93	61.86	140.5	464.3	2807	9999.9	9999.9	1490	23.71	11.17	7.593	6.607	5.916	5.255	4.884	4.757	4.637	4.813	4.415	4.363	4.245	4.193	4.053	3.779	3.771	3.504	3.458	3.536	3.312	3.463	3.196	3.236	2.994	2.957	3.031	2.920	2.986	2.886
450.0	1197	2459	943.7	629.0	645.7	644.2	650.8	639.0	634.0	609.4	586.1	554.6	508.8	461.4	420.0	380.4	356.7	343.5	334.1	325.0	319.5	317.9	318.2	315.8	314.6	305.5	297.0	287.1	273.9	254.4	228.8	197.4	171.3	157.6	138.6	101.0	75.76	59.23	47.87	39.97	39.30	53.19	123.6	647.3	2910	9999.9	9999.9	6186	92.10	11.42	7.987	7.089	6.177	5.472	5.063	4.824	4.935	4.418	4.305	4.170	4.073	3.908	3.817	3.708	3.526	3.540	3.385	3.275	3.249	3.148	3.129	3.020	2.780	2.846	2.739	2.825	2.833
455.0	535.2	2999	2808	646.8	602.0	610.2	613.7	599.7	592.7	575.8	558.5	513.4	471.4	428.5	383.1	347.0	327.3	308.9	302.2	294.3	291.0	290.4	290.3	289.1	288.0	283.9	273.3	267.4	255.9	240.0	218.8	190.0	162.6	144.0	131.6	118.1	85.47	63.67	51.07	41.45	35.68	34.47	47.58	162.5	665.7	2301	7143	9999.9	8702	24.43	11.94	8.687	7.194	6.215	5.237	4.922	4.895	5.024	4.088	4.215	3.988	4.071	3.687	3.713	3.297	3.417	3.138	3.130	3.126	2.864	2.885	2.680	2.862	2.700	2.569	2.629	2.665
460.0	328.1	2019	4864	914.5	565.1	570.4	560.5	573.7	551.4	539.0	518.9	484.5	441.1	396.2	361.1	324.6	303.3	291.4	279.2	272.3	266.7	269.3	267.2	265.0	266.0	264.3	256.2	250.7	240.2	228.6	209.8	183.9	158.0	135.8	120.8	117.4	96.01	67.53	53.62	43.53	36.03	31.58	30.98	53.61	164.9	530.6	1755	9917	9999.9	1435	22.19	11.11	8.554	7.041	5.739	5.315	4.695	4.701	4.442	4.211	4.018	3.879	3.715	3.545	3.399	3.205	2.974	2.831	2.967	3.033	2.647	2.665	2.726	2.567	2.492	2.411	2.486
465.0	293.7	982.0	5500	2666	544.4	536.2	534.5	532.7	522.8	504.9	491.9	452.0	414.4	369.8	338.0	304.6	283.5	272.1	258.8	254.1	243.0	249.5	248.5	246.2	246.0	243.9	236.8	235.6	227.9	214.5	199.2	177.4	153.4	131.8	113.4	105.9	100.7	74.54	55.21	45.45	38.00	30.94	28.08	29.64	53.84	134.9	410.0	2656	9999.9	9999.9	1278	21.86	10.94	7.843	6.398	5.780	5.423	5.078	4.401	4.073	4.205	3.720	3.694	3.536	3.384	3.173	2.959	3.066	2.893	2.840	2.487	2.602	2.590	2.429	2.432	2.483	2.336
470.0	286.1	487.4	3284	5961	1231	481.0	488.4	492.2	486.1	470.0	448.0	421.2	376.9	337.8	305.1	272.3	255.1	240.8	231.6	225.9	217.3	219.9	221.1	219.4	217.2	218.1	213.0	209.8	206.5	197.1	182.0	160.8	143.2	124.8	106.8	93.39	89.99	81.08	60.81	46.73	37.82	31.52	27.49	24.72	27.99	45.58	105.9	608.3	2800	8596	9999.9	5485	94.71	11.31	7.882	6.557	5.744	5.242	4.583	4.165	3.906	3.903	3.737	3.435	3.233	3.329	2.875	2.960	2.687	2.618	2.524	2.422	2.412	2.378	2.330	2.145	2.155
475.0	278.6	336.6	1141	6222	4222	516.9	444.1	443.1	438.7	427.3	408.2	378.2	339.1	301.5	270.5	243.5	224.4	215.1	206.4	197.5	194.3	193.0	193.9	193.2	191.8	191.7	189.2	187.1	184.1	178.1	164.9	147.3	132.2	116.0	99.05	87.87	78.09	74.54	68.50	50.58	38.52	31.85	26.98	23.58	21.71	24.06	36.49	147.3	635.6	1957	5471	9999.9	7109	28.25	10.43	7.145	6.612	5.479	4.587	4.212	3.962	3.542	3.464	3.260	3.106	2.921	2.700	2.721	2.495	2.496	2.383	2.273	2.229	2.207	2.010	1.913	2.069
480.0	271.6	316.7	527.2	3906	7169	1070	417.0	417.8	406.6	398.9	377.6	347.4	316.6	282.0	249.8	225.2	206.4	197.5	187.8	182.7	178.4	177.9	177.6	176.1	176.4	173.5	174.7	172.1	169.0	164.4	153.7	141.1	124.4	108.1	94.26	82.95	72.76	66.50	67.75	54.91	39.89	32.46	27.49	24.12	20.19	19.37	20.40	44.22	152.7	447.3	1327	7220	9999.9	1664	24.19	9.346	7.375	5.887	4.847	4.342	3.895	3.604	3.412	3.152	2.952	2.943	2.560	2.551	2.313	2.494	2.215	1.910	2.115	2.008	1.987	1.848	1.853
485.0	239.4	301.9	363.0	1679	8066	2984	394.6	393.5	383.6	376.3	355.3	325.5	296.9	259.1	230.1	209.1	195.2	182.3	172.4	166.4	165.4	161.2	161.5	163.0	161.6	162.7	161.9	158.2	154.3	153.9	145.2	131.6	119.3	104.2	90.92	80.44	68.60	61.91	60.94	58.11	43.03	32.12	27.84	24.06	20.75	18.39	17.07	21.14	44.57	109.8	308.0	1900	9999.9	9999.9	1387	20.20	8.876	6.984	5.340	4.720	4.261	3.676	3.667	3.073	2.819	2.840	2.614	2.508	2.235	2.279	2.242	2.038	2.050	2.014	1.924	1.736	1.753
490.0	202.8	303.4	318.3	646.8	4763	7015	1027	358.4	352.5	344.0	327.2	303.7	274.6	241.8	211.1	190.8	176.3	166.2	158.1	152.1	150.3	148.3	147.1	147.7	146.1	146.9	143.6	143.6	141.2	139.3	133.2	121.1	109.2	96.79	86.27	75.05	65.93	58.26	53.07	52.73	47.44	36.10	28.14	24.13	20.54	18.41	16.05	15.74	19.74	33.61	77.76	434.2	2633	8136	9999.9	5325	101.9	9.809	6.961	5.422	4.636	3.987	3.690	3.275	2.927	2.915	2.678	2.543	2.358	2.190	2.030	1.850	2.000	1.794	1.780	1.738	1.751
495.0	176.8	262.1	308.7	368.7	1527	7667	3427	364.7	323.9	314.1	299.2	271.9	249.2	219.8	195.5	176.2	158.5	149.6	142.3	136.6	131.6	130.7	128.1	132.2	130.3	130.0	129.1	129.6	128.1	126.0	118.6	109.8	99.12	89.04	78.67	69.67	62.22	54.54	48.44	44.12	44.53	40.15	30.05	24.42	21.05	18.39	15.93	14.58	14.31	16.20	25.69	104.9	594.7	1846	5491	9999.9	7560	30.35	9.875	6.746	5.342	4.469	3.830	3.356	2.908	3.035	2.461	2.492	2.288	2.131	1.864	1.695	2.041	1.809	1.649	1.550	1.611
500.0	146.8	223.2	313.1	299.7	575.0	4823	7715	770.9	297.3	291.5	272.1	256.5	229.9	203.7	177.7	159.5	145.7	137.2	129.6	124.5	120.9	119.8	117.8	119.6	116.8	118.0	116.0	116.3	116.2	116.5	110.0	100.6	91.07	81.15	73.77	66.24	57.89	51.32	45.76	41.23	38.69	40.09	32.91	24.49	20.99	18.10	15.98	14.12	12.96	11.90	13.40	31.00	139.9	420.0	1329	7009	9999.9	1817	26.01	8.879	6.117	4.503	4.043	3.439	2.974	2.740	2.675	2.489	2.253	2.185	2.053	1.804	1.747	1.707	1.653	1.464	1.666
505.0	127.2	192.9	296.4	291.4	324.6	2057	9457	2335	284.3	266.3	254.9	240.0	212.2	186.0	162.4	143.9	132.9	126.4	120.5	113.0	108.2	109.8	106.8	108.8	107.2	104.9	104.9	106.4	106.6	105.8	101.0	91.99	83.65	74.58	67.01	60.67	54.34	48.91	43.50	38.57	34.83	35.62	35.25	26.27	20.77	17.48	15.75	13.84	12.13	11.03	10.64	14.05	38.36	101.4	306.4	1823	9488	9999.9	1536	20.35	7.433	5.275	4.469	3.599	3.098	2.701	2.569	2.451	2.166	2.022	1.904	1.787	1.682	1.614	1.510	1.540	1.545
510.0	112.3	167.3	240.4	276.3	249.3	671.7	5902	7277	751.0	241.5	227.0	211.0	184.4	164.4	144.1	128.5	116.1	110.3	104.1	99.95	95.42	94.95	94.09	92.88	93.45	91.76	91.52	93.13	92.97	92.38	87.55	81.63	74.44	67.44	61.46	55.01	48.99	44.00	39.43	35.56	31.60	29.80	30.66	28.40	22.07	17.69	15.08	13.11	11.63	10.56	9.689	9.698	14.76	28.88	75.11	414.9	2440	7543	9999.9	4650	103.7	7.731	5.303	4.091	3.312	2.976	2.591	2.300	2.274	1.856	1.745	1.700	1.661	1.586	1.436	1.447	1.325
515.0	110.9	141.5	182.8	265.1	233.4	306.2	1822	9223	2467	238.3	203.9	184.4	165.3	145.5	127.0	112.6	102.2	96.19	90.91	84.72	82.33	82.59	82.39	80.35	80.54	79.42	80.38	80.15	78.85	79.65	75.52	70.54	65.67	59.14	54.43	48.16	43.84	39.50	36.05	31.96	28.35	25.86	24.52	26.23	24.09	18.44	14.28	12.93	11.37	9.830	8.939	8.538	9.396	12.15	22.89	98.81	549.9	1703	4391	9999.9	6355	30.58	7.757	4.876	3.740	3.231	2.687	2.414	2.052	1.805	1.619	1.717	1.480	1.415	1.425	1.396	1.293
520.0	108.6	125.7	159.5	226.9	248.3	211.4	570.7	6180	7785	543.2	189.1	167.1	147.2	133.5	112.8	102.8	92.63	86.65	81.79	77.05	74.60	72.13	71.73	71.58	72.40	69.97	71.00	70.33	70.89	71.20	67.99	64.29	59.81	52.75	49.24	44.15	39.55	36.10	32.82	29.79	26.51	23.86	22.67	22.59	24.46	19.58	14.28	12.01	10.67	9.543	8.354	8.240	7.787	8.235	10.39	27.64	128.4	386.8	1040	5696	9999.9	1863	25.64	6.607	4.396	3.552	3.153	2.515	2.312	1.887	1.559	1.707	1.436	1.390	1.204	1.161	1.185
525.0	87.63	104.0	135.6	181.3	248.9	185.8	266.0	2628	9999.9	1809	180.6	158.2	136.5	121.0	103.2	90.99	83.66	78.41	73.19	69.48	67.22	66.63	65.84	64.18	64.52	63.28	64.16	62.94	63.41	64.13	61.48	57.76	53.89	48.63	44.66	40.82	37.99	33.02	30.10	27.67	24.75	22.28	20.14	19.34	21.40	20.61	15.43	11.69	10.37	8.951	7.895	7.529	7.177	6.572	7.296	11.33	33.92	92.25	239.1	1428	7183	9999.9	1579	19.89	5.546	3.809	3.229	2.695	2.290	1.984	1.501	1.577	1.392	1.375	1.227	1.178	1.298
530.0	88.78	98.25	119.8	142.9	212.3	182.3	174.1	765.2	6970	7701	588.0	140.6	123.9	106.3	91.44	81.27	72.81	67.47	63.45	60.68	58.30	57.80	57.06	56.03	55.81	55.01	55.80	55.55	55.73	54.93	53.90	49.94	47.26	41.91	38.99	35.70	32.89	29.17	26.77	24.50	22.19	20.06	18.18	16.80	17.12	18.10	16.44	12.33	9.579	8.405	7.463	6.999	6.624	6.351	6.327	6.867	12.01	25.31	58.42	324.5	1794	5767	8711	3680	106.9	6.235	3.882	2.805	2.398	2.088	1.731	1.532	1.304	1.279	1.257	1.071	1.211
535.0	72.94	87.96	106.2	109.3	162.6	192.8	140.9	271.6	2142	9999.9	3586	136.6	107.2	93.45	79.33	69.90	63.29	57.77	54.79	51.57	49.52	50.09	47.87	48.16	47.60	47.22	46.69	46.29	47.65	47.64	45.09	42.86	39.58	36.04	33.06	30.96	28.68	25.73	23.26	21.32	19.85	17.88	15.89	14.66	13.95	14.02	15.31	13.45	9.522	7.903	6.947	6.206	5.809	5.720	5.890	5.911	6.837	9.728	17.31	76.57	404.3	1297	3230	9152	5101	30.98	5.975	3.360	2.772	2.175	1.928	1.725	1.392	1.364	1.137	1.025	1.063
540.0	63.51	80.54	93.38	95.09	120.9	186.2	143.4	158.2	595.9	7019	8675	215.9	98.84	84.45	71.99	63.25	53.78	51.63	49.99	46.26	45.67	43.52	42.40	42.11	42.56	41.41	41.04	41.17	41.39	40.82	39.59	38.03	34.83	32.24	28.85	27.00	24.65	23.28	21.13	19.53	17.83	15.95	14.97	13.73	12.61	11.74	12.56	13.16	10.29	7.600	6.445	5.888	5.524	5.200	5.277	5.411	5.165	5.764	7.657	20.82	94.26	293.5	749.2	4105	9357	1877	26.36	4.887	3.305	2.460	2.047	1.768	1.429	1.344	1.067	1.001	0.940
545.0	64.02	74.13	81.37	99.27	100.3	154.0	151.4	121.7	222.7	2827	9999.9	1303	91.21	75.77	65.47	55.22	50.71	45.83	44.71	41.78	39.58	38.84	37.34	36.89	37.44	36.78	35.95	36.15	35.98	36.27	35.41	33.95	31.03	28.17	26.13	24.20	22.32	20.76	18.90	17.01	15.98	14.34	13.34	12.32	11.22	10.53	10.37	11.73	10.75	7.547	6.098	5.686	5.060	4.881	4.588	5.115	4.930	4.541	5.117	8.019	24.47	69.14	171.8	987.6	4990	8304	1586	19.62	4.031	2.866	2.265	1.716	1.453	1.350	1.047	0.980	0.936
550.0	63.74	73.62	75.58	78.92	79.34	109.9	158.9	107.5	122.3	766.0	7294	7450	342.9	67.92	57.32	48.61	43.45	39.50	37.33	34.57	33.50	32.05	31.40	30.89	30.89	30.30	29.62	30.24	30.50	30.31	29.02	28.03	25.78	24.03	22.27	20.47	19.00	17.67	16.34	14.48	13.47	12.21	11.30	10.43	9.533	9.061	8.801	8.899	9.701	8.253	6.136	5.067	4.548	4.422	4.184	4.384	4.160	4.052	4.091	4.589	8.403	18.47	41.65	224.0	1198	3954	6160	2815	113.9	5.151	2.806	1.932	1.575	1.375	1.252	0.934	0.977
555.0	62.68	70.81	70.24	68.18	67.73	75.28	126.2	115.8	86.67	235.7	2106	9999.9	1356	67.16	48.93	41.45	36.69	32.43	30.97	29.50	27.38	26.20	26.14	25.47	24.91	23.92	24.63	24.67	24.42	24.88	23.76	22.58	20.69	19.43	18.33	16.66	15.61	14.89	13.39	12.25	11.17	10.29	9.177	8.803	8.094	7.923	7.242	6.978	7.079	7.706	6.458	4.847	3.912	3.720	3.637	3.503	3.505	3.625	3.840	3.442	4.512	6.671	11.81	52.60	269.7	885.9	2035	5838	2084	32.38	4.451	2.462	1.744	1.607	1.257	0.857	0.959
560.0	58.12	66.98	66.09	60.09	61.87	57.87	92.54	132.2	77.07	109.9	547.9	7252	7158	136.3	45.06	36.29	33.37	27.67	26.18	25.13	23.95	22.86	22.65	21.32	20.53	20.32	20.88	21.20	20.51	21.28	20.26	18.95	17.97	16.42	15.25	14.27	12.94	12.50	11.41	10.41	9.644	9.176	8.313	7.549	7.159	6.896	6.626	5.772	5.541	6.487	6.539	4.714	3.669	3.358	3.303	3.119	3.236	3.160	3.654	3.286	3.299	3.628	4.940	14.26	62.46	200.4	465.7	2325	5667	1873	27.09	3.219	2.245	1.734	1.261	1.016	0.916
565.0	47.84	70.52	70.38	56.34	50.51	46.45	67.76	128.6	81.26	73.40	173.3	2823	9999.9	896.9	42.20	32.92	28.42	24.84	22.63	22.18	20.51	19.66	19.51	18.50	18.34	18.21	17.49	17.42	17.73	18.05	17.19	15.93	15.37	14.10	13.30	12.57	11.58	10.55	9.623	9.401	8.670	8.116	7.134	6.483	6.269	5.961	5.703	5.268	4.658	5.185	5.735	4.928	3.479	2.896	2.781	2.774	2.744	2.772	3.133	3.064	2.739	2.699	3.044	5.284	15.95	47.08	107.0	544.3	2695	5181	1518	20.19	2.852	1.855	1.345	1.141	0.978
570.0	55.68	63.17	63.89	50.70	41.75	42.54	49.38	95.57	100.5	61.80	84.58	736.7	7023	6301	95.21	29.01	24.71	21.03	18.94	18.42	16.93	16.14	15.95	15.03	14.75	14.99	14.59	14.07	14.23	14.25	14.20	13.10	12.29	11.51	10.64	10.01	9.554	8.741	7.984	7.580	7.130	6.566	5.981	5.588	5.341	4.980	4.786	4.333	3.982	3.914	4.159	4.399	3.843	3.047	2.474	2.616	2.440	2.439	2.549	2.742	2.677	2.480	2.333	2.948	5.420	12.34	26.19	124.0	631.1	2133	3700	1862	116.7	4.005	1.761	1.167	0.949
575.0	55.01	58.35	59.76	47.45	38.70	38.86	42.36	59.55	111.0	67.84	62.40	207.7	1994	9568	939.7	30.78	21.89	18.65	16.25	15.56	14.33	13.27	12.80	12.50	12.03	11.91	11.90	12.12	11.37	11.96	11.53	10.57	9.745	8.982	8.445	8.372	7.715	7.102	6.404	6.156	5.739	5.434	4.865	4.617	4.336	4.292	3.904	3.746	3.391	3.324	3.156	3.370	3.539	3.001	2.400	2.363	2.210	2.075	2.154	1.931	2.334	2.471	2.203	2.100	2.642	4.324	7.822	29.57	142.8	477.7	1071	3083	2041	33.69	3.137	1.409	1.089
580.0	54.87	56.78	62.70	40.63	34.47	32.95	37.79	41.08	97.30	83.03	56.13	91.04	508.8	6409	5462	76.77	20.67	17.30	14.28	13.26	12.58	11.13	11.47	10.55	10.56	10.12	10.09	10.74	9.794	9.757	9.353	9.131	8.444	7.781	7.808	7.135	6.648	6.319	5.697	5.567	4.924	4.490	4.251	4.078	4.121	3.680	3.354	3.260	3.071	2.736	2.711	2.749	3.017	3.177	2.575	2.119	1.971	1.813	2.029	1.796	1.870	2.342	2.221	2.072	1.959	2.430	3.283	8.332	33.64	108.5	243.6	1088	3209	1712	27.94	2.139	1.485
585.0	55.75	56.95	57.84	42.45	31.90	31.03	32.93	37.57	70.80	101.1	55.20	62.47	151.3	2399	8537	562.4	20.78	15.74	13.75	12.14	11.52	10.33	10.49	9.634	9.103	9.414	9.030	8.760	8.433	8.464	8.277	8.115	7.473	6.969	6.621	6.037	5.803	5.102	5.273	4.788	4.417	3.744	3.846	3.705	3.470	3.316	3.063	2.778	2.743	2.375	2.384	2.245	2.528	3.011	2.744	2.188	1.832	1.631	1.935	1.865	1.724	1.889	2.086	1.971	1.654	1.894	2.299	3.436	9.054	25.76	56.65	250.4	1307	3083	1268	20.98	1.807
590.0	55.08	57.25	61.93	39.37	28.66	27.15	28.20	34.52	50.29	99.80	68.19	54.98	70.45	611.0	5584	4163	59.92	14.59	12.58	11.23	9.891	8.644	8.887	7.943	7.918	7.776	7.365	7.195	7.161	7.228	6.764	6.500	6.386	5.718	5.583	5.077	4.749	4.447	4.354	4.006	3.814	3.413	3.180	3.061	2.980	2.876	2.599	2.532	2.358	2.009	1.906	1.804	1.957	2.232	2.469	2.292	1.775	1.638	1.569	1.534	1.474	1.657	1.707	1.904	1.609	1.630	1.838	2.060	3.312	7.103	14.62	57.50	300.4	1126	2080	1178	121.8
595.0	46.72	59.22	62.04	38.20	24.83	25.30	25.98	30.22	39.81	70.79	88.26	55.49	51.96	165.6	1553	6518	682.2	16.51	11.28	9.826	8.381	7.929	7.817	7.289	6.953	6.278	6.095	6.133	5.826	6.134	5.690	5.610	5.113	4.609	4.422	4.393	4.054	3.860	3.756	3.123	3.108	3.074	2.716	2.686	2.496	2.362	2.289	2.110	2.127	1.776	1.735	1.713	1.537	1.632	2.022	2.165	1.921	1.561	1.268	1.457	1.316	1.428	1.398	1.567	1.743	1.689	1.548	1.542	1.828	2.842	5.015	13.97	68.24	252.1	548.4	1618	1780
600.0	46.77	58.40	58.99	36.15	26.24	23.44	25.61	26.32	36.58	55.08	96.10	64.27	46.42	65.33	388.3	4539	3547	47.88	10.73	9.602	7.827	7.080	6.782	6.526	6.465	5.613	5.398	5.078	5.231	5.031	4.854	4.278	4.353	4.073	3.770	3.771	3.567	3.428	3.212	3.008	2.578	2.547	2.382	2.516	2.288	2.115	2.151	1.967	1.766	1.552	1.515	1.497	1.290	1.418	1.465	1.956	1.847	1.479	1.280	1.344	1.120	1.424	1.295	1.387	1.567	1.843	1.508	1.401	1.522	1.667	2.898	4.218	16.21	57.19	124.1	520.9	1925
605.0	48.34	57.83	60.99	34.82	24.56	23.97	26.95	29.01	33.93	47.42	88.98	79.79	47.25	43.03	109.0	1784	5758	369.7	11.70	9.313	7.107	6.561	6.460	5.641	5.492	5.199	4.879	4.592	4.624	4.630	4.294	4.251	3.899	3.522	3.460	3.462	3.088	3.104	2.662	2.695	2.266	2.181	2.144	2.079	2.097	1.934	1.851	1.852	1.669	1.660	1.383	1.316	1.195	1.270	1.283	1.645	1.759	1.383	1.295	1.157	1.144	1.465	1.326	1.142	1.392	1.506	1.541	1.289	1.345	1.332	2.397	1.960	4.498	13.79	28.66	118.9	699.3
610.0	49.06	48.38	62.96	36.44	24.81	22.60	26.16	29.04	36.34	45.99	69.13	93.39	53.17	41.03	48.00	453.9	4008	2936	41.09	8.860	7.158	6.024	5.832	4.973	4.676	4.735	4.671	4.154	4.294	4.215	3.870	3.807	3.270	3.129	3.094	2.786	2.691	2.586	2.247	2.165	2.064	1.906	1.749	1.799	1.772	1.664	1.591	1.621	1.417	1.362	1.230	1.096	1.038	1.093	1.066	1.274	1.481	1.539	1.313	1.146	1.057	1.451	1.112	1.071	1.181	1.227	1.340	1.459	1.288	1.242	2.484	1.234	1.803	3.936	7.260	27.38	159.2
615.0	43.62	49.23	59.17	37.20	22.47	21.76	25.81	29.13	36.17	44.90	60.25	94.35	64.57	40.01	35.40	117.8	1147	4856	516.4	10.03	7.013	5.730	5.598	4.622	4.190	3.985	3.813	3.762	3.511	3.513	3.400	3.251	3.077	2.679	2.769	2.387	2.152	2.370	2.056	1.908	1.907	1.668	1.593	1.588	1.681	1.491	1.488	1.402	1.295	1.182	1.097	1.034	0.987	0.914	0.894	1.013	1.220	1.392	1.379	1.240	1.056	1.286	1.129	1.016	1.087	1.029	1.225	1.260	1.276	1.352	2.326	1.180	1.112	1.580	2.346	6.703	36.19
620.0	44.81	53.74	57.69	32.91	22.26	20.41	23.79	29.28	36.34	46.92	54.03	84.98	75.89	41.08	30.64	41.25	286.5	3579	2513	26.96	7.369	5.256	4.687	4.330	4.333	3.751	3.500	3.400	3.011	3.019	3.149	3.007	2.735	2.645	2.464	2.218	2.105	1.989	1.851	1.835	1.538	1.482	1.421	1.411	1.497	1.261	1.378	1.324	1.125	1.159	1.005	0.987	0.842	0.936	0.905	0.867	0.997	1.119	1.265	1.263	1.004	1.220	1.099	0.969	0.973	0.868	1.061	1.089	1.388	1.294	2.162	1.033	0.907	0.953	1.038	2.214	8.588
625.0	35.80	54.28	59.84	35.66	23.85	19.69	25.05	29.89	36.53	47.31	53.82	74.20	83.86	44.29	31.15	24.35	76.94	1487	4316	75.64	7.936	5.258	4.735	4.658	3.896	3.377	3.302	2.973	2.753	2.745	3.024	2.834	2.508	2.329	2.280	2.095	1.826	1.841	1.832	1.765	1.344	1.298	1.306	1.215	1.296	1.313	1.294	1.156	1.092	1.047	0.913	0.980	0.797	0.758	0.905	0.871	0.843	1.067	1.032	1.163	0.957	1.210	1.033	0.866	0.900	0.818	0.922	0.850	1.172	1.282	2.031	0.868	0.753	0.719	0.675	1.035	2.396
630.0	40.88	52.25	55.78	35.77	25.07	19.11	24.52	29.76	36.35	46.43	53.30	68.45	75.84	56.04	31.85	20.47	28.65	378.6	3283	1997	27.30	5.969	4.806	3.949	3.397	3.095	2.906	2.695	2.737	2.571	2.630	2.506	2.361	2.174	2.052	1.916	1.799	1.519	1.571	1.552	1.372	1.202	1.163	1.144	1.180	1.109	1.145	1.044	1.073	0.938	0.869	0.848	0.805	0.781	0.796	0.802	0.798	0.859	0.876	0.987	0.974	1.168	1.089	0.773	0.854	0.801	0.829	0.866	0.983	1.023	1.559	0.846	0.746	0.633	0.627	0.626	0.949
635.0	42.30	48.92	60.29	35.69	23.96	21.34	23.29	30.23	36.81	44.07	50.78	65.74	63.51	65.30	36.60	19.05	17.46	93.69	1002	3786	376.1	6.969	4.700	4.224	3.215	2.879	2.854	2.544	2.333	2.505	2.458	2.197	1.920	2.023	1.845	1.743	1.546	1.455	1.332	1.344	1.236	1.214	1.106	1.008	1.088	0.983	1.043	1.047	0.961	0.947	0.785	0.687	0.777	0.774	0.707	0.673	0.758	0.768	0.649	0.711	0.856	0.998	0.974	0.813	0.756	0.710	0.734	0.715	0.777	0.764	1.327	0.922	0.662	0.638	0.590	0.467	0.562
640.0	47.17	49.62	54.00	32.70	24.35	22.22	24.53	30.30	35.89	43.17	50.86	66.08	57.96	64.33	42.45	20.51	16.29	30.47	250.8	3064	1729	15.21	5.053	3.710	3.406	3.067	2.594	2.658	2.169	2.227	2.058	1.949	1.915	1.926	1.780	1.553	1.605	1.275	1.295	1.201	1.089	1.243	1.044	0.921	1.022	1.078	0.998	1.095	0.965	0.856	0.744	0.687	0.651	0.728	0.669	0.687	0.731	0.683	0.664	0.777	0.708	1.057	0.853	0.712	0.811	0.668	0.770	0.678	0.653	0.712	1.045	0.771	0.703	0.618	0.488	0.487	0.509
645.0	39.55	52.45	50.47	37.77	22.85	20.07	25.22	27.71	37.04	45.95	50.34	64.63	55.00	59.00	48.57	21.00	15.98	15.94	65.72	1408	3235	60.13	5.366	4.130	3.373	3.088	2.268	2.241	2.114	2.240	1.951	1.848	1.752	1.722	1.822	1.515	1.408	1.371	1.266	1.186	1.139	1.008	1.075	0.874	1.011	0.980	0.877	0.975	0.910	0.797	0.849	0.690	0.699	0.704	0.660	0.737	0.602	0.667	0.547	0.760	0.626	0.858	0.793	0.720	0.772	0.667	0.739	0.663	0.687	0.695	0.829	0.735	0.708	0.595	0.515	0.515	0.443
650.0	44.64	49.91	50.96	35.85	22.60	19.73	22.66	27.49	36.56	44.00	50.88	64.36	54.84	53.36	52.89	23.20	16.19	13.36	22.96	408.8	3426	481.9	6.994	4.126	3.411	2.881	2.551	2.207	2.172	2.062	2.254	1.912	1.551	1.757	1.558	1.631	1.440	1.368	1.241	1.193	0.983	0.934	1.021	0.956	0.991	0.998	0.869	0.921	0.822	0.792	0.728	0.605	0.571	0.619	0.669	0.662	0.657	0.665	0.588	0.682	0.646	0.848	0.761	0.671	0.721	0.710	0.702	0.638	0.760	0.645	0.701	0.601	0.609	0.595	0.507	0.453	0.441
