Sample:	'1
File name:	G2025062406黄河十五路.FD3
Run date:	'15:39:14, 06/26/2025
Operator:	Administrator
Comment:	'

Instrument
Model:	F-2700 FL Spectrophotometer
Serial number:	23B8-004
ROM Version:	4J14000 07

Instrument parameters
Measurement type:	3-D scan
Data mode:	Fluorescence
EX  Start WL:	220.0 nm
EX  End WL:	600.0 nm
EX Sampling interval:	5.0 nm
EM  Start WL:	230.0 nm
EM  End WL:	650.0 nm
EM Sampling interval:	5.0 nm
Scan speed:	12000 nm/min
EX Slit:	5.0 nm
EM Slit:	5.0 nm
PMT Voltage:	700 V
Response:	Auto 
Corrected spectra:	Off
Contour interval:	50.000

Peak integration
Integration method:	Rectangular
Sensitivity:	1
Threshold:	1.000

Peaks
No.	ApexEX/EM(nm)	Height(Data)
1	225.0/635.0	59.27
2	230.0/345.0	2990
3	230.0/585.0	78.43
4	230.0/615.0	60.51
5	235.0/260.0	284.2
6	240.0/265.0	363.9
7	245.0/270.0	384.8
8	250.0/275.0	503.5
9	250.0/440.0	1667
10	255.0/285.0	545.0
11	260.0/290.0	550.0
12	260.0/575.0	141.5
13	265.0/585.0	122.6
14	270.0/600.0	114.0
15	275.0/320.0	1952
16	275.0/615.0	136.1
17	280.0/315.0	1957
18	280.0/340.0	1974
19	280.0/625.0	120.9
20	475.0/350.0	9.667
21	485.0/265.0	1.928
22	505.0/275.0	2.793
23	510.0/280.0	3.013
24	520.0/285.0	3.451
25	550.0/305.0	8.878
26	560.0/310.0	9.828
27	565.0/345.0	9.480
28	575.0/320.0	9.548

Data points
	220.0	225.0	230.0	235.0	240.0	245.0	250.0	255.0	260.0	265.0	270.0	275.0	280.0	285.0	290.0	295.0	300.0	305.0	310.0	315.0	320.0	325.0	330.0	335.0	340.0	345.0	350.0	355.0	360.0	365.0	370.0	375.0	380.0	385.0	390.0	395.0	400.0	405.0	410.0	415.0	420.0	425.0	430.0	435.0	440.0	445.0	450.0	455.0	460.0	465.0	470.0	475.0	480.0	485.0	490.0	495.0	500.0	505.0	510.0	515.0	520.0	525.0	530.0	535.0	540.0	545.0	550.0	555.0	560.0	565.0	570.0	575.0	580.0	585.0	590.0	595.0	600.0
230.0	64.74	789.0	1298	303.0	15.61	7.970	6.550	5.380	4.884	4.733	4.103	3.598	3.209	3.004	2.435	2.294	1.758	1.733	1.476	1.352	1.259	1.083	1.041	0.998	0.978	0.854	0.880	0.786	0.790	0.792	0.714	0.670	0.602	0.575	0.561	0.543	0.556	0.472	0.429	0.454	0.452	0.558	0.487	0.466	0.398	0.435	1.087	3.418	4.727	2.860	1.030	0.401	0.306	0.345	0.303	0.313	0.382	0.338	0.348	0.327	0.343	0.332	0.324	0.347	0.322	0.357	0.320	0.347	0.325	0.348	0.352	0.362	0.339	0.360	0.329	0.367	0.366
235.0	83.91	247.4	1138	1546	384.7	20.96	7.469	6.892	5.741	5.334	4.185	3.801	3.586	2.862	2.657	2.470	1.799	1.560	1.587	1.435	1.410	1.205	1.030	1.052	1.022	0.877	0.940	0.885	0.794	0.771	0.766	0.658	0.644	0.581	0.713	0.472	0.496	0.527	0.446	0.461	0.445	0.504	0.498	0.651	0.429	0.383	0.491	1.207	2.244	3.877	5.533	5.038	2.182	0.575	0.320	0.398	0.346	0.388	0.348	0.321	0.333	0.327	0.302	0.335	0.334	0.372	0.386	0.280	0.311	0.395	0.318	0.329	0.402	0.372	0.347	0.357	0.343
240.0	142.8	117.4	408.2	1700	1692	294.1	11.91	7.207	5.747	5.499	4.572	4.029	3.606	3.619	2.724	2.690	1.852	1.728	1.601	1.454	1.475	1.265	1.032	1.002	1.110	1.000	0.910	0.953	0.837	0.649	0.759	0.639	0.677	0.643	0.634	0.522	0.479	0.542	0.532	0.526	0.490	0.404	0.418	0.543	0.584	0.608	0.467	0.630	0.793	1.470	3.758	8.213	8.471	5.483	1.770	0.482	0.332	0.396	0.355	0.358	0.325	0.287	0.290	0.341	0.369	0.342	0.361	0.343	0.381	0.429	0.358	0.350	0.378	0.354	0.367	0.294	0.362
245.0	119.0	163.6	134.9	690.8	2288	1641	190.9	9.099	6.127	5.774	4.951	4.607	3.334	2.987	2.407	2.821	2.078	1.947	1.428	1.601	1.345	1.094	0.918	0.973	0.910	0.958	0.812	1.046	0.800	0.676	0.686	0.744	0.580	0.600	0.530	0.585	0.470	0.539	0.472	0.563	0.464	0.403	0.483	0.476	0.507	0.648	0.737	0.717	0.510	0.622	1.177	3.374	7.616	11.48	10.06	4.842	1.202	0.350	0.320	0.335	0.330	0.320	0.316	0.356	0.371	0.335	0.349	0.318	0.319	0.396	0.408	0.320	0.398	0.388	0.335	0.332	0.401
250.0	64.22	154.3	205.6	228.0	843.5	2160	2286	645.1	29.78	6.575	5.315	4.803	4.026	3.330	2.791	2.581	2.534	1.983	1.497	1.495	1.349	1.162	1.102	1.025	1.001	0.900	0.839	0.858	0.821	0.714	0.732	0.665	0.615	0.566	0.499	0.528	0.468	0.436	0.500	0.496	0.460	0.478	0.451	0.470	0.449	0.466	0.634	0.837	0.935	0.785	0.676	1.065	2.154	4.308	7.620	10.87	13.08	10.63	5.222	1.464	0.379	0.333	0.393	0.410	0.349	0.347	0.346	0.403	0.341	0.396	0.374	0.325	0.416	0.427	0.354	0.360	0.372
255.0	41.15	60.68	195.1	277.0	251.3	609.4	2377	2865	291.7	26.40	6.004	5.697	4.612	4.244	3.170	2.661	2.440	1.790	1.652	1.630	1.444	1.233	1.088	1.088	1.048	0.969	0.955	0.952	0.814	0.822	0.729	0.672	0.626	0.568	0.534	0.532	0.502	0.538	0.513	0.470	0.470	0.517	0.435	0.474	0.478	0.497	0.501	0.472	0.645	0.872	1.117	1.136	0.859	1.268	2.027	2.993	6.058	13.67	21.47	18.81	7.569	1.394	0.395	0.420	0.469	0.380	0.324	0.397	0.390	0.325	0.374	0.368	0.341	0.363	0.369	0.399	0.385
260.0	36.78	32.02	88.60	284.2	253.0	189.7	824.2	3486	2371	231.7	13.84	7.348	5.138	4.526	3.564	2.929	2.573	1.834	1.753	1.698	1.397	1.401	1.097	1.191	1.168	0.957	0.890	1.024	0.948	0.965	0.728	0.774	0.749	0.643	0.523	0.548	0.592	0.519	0.499	0.468	0.507	0.494	0.463	0.432	0.439	0.400	0.471	0.404	0.400	0.571	0.881	1.609	1.513	0.921	0.894	1.057	1.809	4.275	11.33	22.33	26.53	17.25	5.547	0.761	0.413	0.350	0.333	0.367	0.378	0.404	0.362	0.357	0.351	0.369	0.484	0.393	0.374
265.0	33.04	27.89	41.36	161.1	363.9	205.1	231.7	1390	4588	2031	169.0	9.509	7.059	4.770	4.057	3.136	2.274	2.324	1.882	1.704	1.376	1.448	1.244	1.172	1.153	0.982	1.036	0.911	0.837	0.991	0.890	0.726	0.670	0.654	0.531	0.536	0.494	0.520	0.470	0.450	0.446	0.503	0.434	0.455	0.428	0.442	0.400	0.403	0.432	0.339	0.471	1.071	1.729	1.928	1.248	0.772	0.831	1.368	3.037	7.457	17.37	30.16	29.07	14.59	3.213	0.503	0.385	0.377	0.499	0.380	0.334	0.480	0.373	0.367	0.376	0.370	0.410
270.0	49.27	42.32	41.60	70.10	216.0	384.8	258.6	374.6	1677	4137	4114	699.8	32.74	6.695	4.871	3.841	3.083	2.533	2.316	2.019	1.645	1.583	1.245	1.366	1.248	1.047	1.131	1.035	0.926	0.899	0.847	0.743	0.698	0.680	0.599	0.572	0.548	0.570	0.526	0.462	0.481	0.524	0.509	0.463	0.480	0.479	0.453	0.408	0.414	0.339	0.394	0.607	0.856	1.327	1.866	2.033	1.768	1.152	1.138	2.103	4.576	9.635	17.20	25.55	28.55	20.65	11.67	2.769	0.624	0.400	0.452	0.489	0.382	0.449	0.399	0.395	0.380
275.0	109.1	113.9	86.11	72.96	105.3	245.1	503.5	293.0	427.7	1128	4188	6937	914.5	25.20	7.413	4.874	3.876	2.813	2.452	1.904	1.640	1.470	1.407	1.431	1.255	0.967	1.023	1.070	1.005	0.974	0.836	0.713	0.669	0.794	0.681	0.618	0.602	0.632	0.546	0.554	0.503	0.584	0.519	0.503	0.544	0.621	0.665	0.573	0.596	0.489	0.475	0.525	0.582	0.765	1.018	1.446	2.523	2.793	2.088	1.261	1.463	2.635	4.330	6.470	10.25	22.08	40.34	31.07	17.00	2.812	0.457	0.507	0.417	0.440	0.419	0.438	0.393
280.0	171.1	203.4	157.8	100.9	90.17	134.6	380.6	529.1	236.0	324.5	1336	6268	6282	141.5	13.66	6.007	4.288	3.091	2.339	2.066	1.754	1.697	1.522	1.514	1.320	1.165	1.090	1.057	1.058	0.937	0.940	0.736	0.849	0.761	0.862	0.757	0.689	0.677	0.622	0.544	0.630	0.537	0.665	0.584	0.628	0.721	0.721	0.879	0.693	0.528	0.700	0.636	0.583	0.587	0.777	0.829	1.307	2.372	3.013	2.781	1.368	1.215	1.542	2.093	2.954	6.267	16.50	32.72	47.31	28.78	11.00	1.465	0.466	0.443	0.406	0.479	0.457
285.0	224.4	284.4	261.9	144.6	98.44	112.3	207.2	545.0	344.4	197.2	419.5	2139	7336	4817	102.2	8.705	5.132	4.218	2.934	2.376	2.072	1.833	1.698	1.558	1.373	1.160	1.321	1.034	1.052	1.040	0.831	0.875	0.858	0.911	0.908	0.770	0.757	0.797	0.726	0.552	0.706	0.636	0.754	0.649	0.772	0.816	0.990	1.070	0.960	0.761	0.730	0.725	0.669	0.626	0.715	0.725	0.854	1.297	2.167	3.375	3.451	2.015	1.307	1.179	1.550	2.235	4.520	9.765	22.87	40.14	47.29	23.68	6.388	0.786	0.424	0.535	0.517
290.0	328.6	382.0	348.2	207.3	129.8	119.7	153.9	285.1	550.0	497.3	327.1	672.8	2351	5329	5030	423.4	22.19	5.901	3.991	3.283	2.303	1.958	1.798	1.707	1.558	1.388	1.252	1.204	1.143	1.075	0.956	0.924	0.820	0.911	0.784	0.861	0.956	0.912	0.773	0.659	0.706	0.736	0.754	0.797	0.915	1.065	1.262	1.504	1.234	0.993	0.812	0.855	0.823	0.722	0.752	0.725	0.802	1.004	1.199	1.716	2.470	3.215	3.368	2.702	1.825	1.586	2.153	3.308	6.261	11.66	20.56	29.41	31.61	31.33	15.99	5.824	0.919
295.0	371.0	472.1	434.9	276.0	174.8	162.6	180.2	238.9	371.6	756.7	745.1	488.0	778.8	1432	3761	6185	589.0	21.17	5.681	3.880	2.815	2.404	1.859	2.100	1.755	1.483	1.374	1.331	1.170	1.135	0.927	0.816	0.914	0.794	0.807	0.963	1.007	0.841	0.881	0.734	0.865	0.857	0.883	0.992	1.152	1.323	1.388	1.535	1.415	1.170	1.053	1.024	0.814	0.870	0.801	0.939	1.047	1.222	1.285	1.510	1.612	2.103	2.683	4.294	5.215	3.601	2.244	2.451	3.002	3.980	5.721	7.735	9.408	18.74	37.26	35.97	25.14
300.0	452.8	545.1	500.8	351.4	240.8	239.6	291.6	347.5	372.2	738.7	1201	875.2	649.5	654.5	1231	4984	5214	88.55	13.07	5.316	3.500	2.861	2.246	2.322	1.787	1.509	1.553	1.436	1.206	1.145	1.081	0.989	0.997	0.878	0.804	0.922	0.960	0.869	0.868	0.812	0.917	0.937	0.969	1.097	1.080	1.398	1.512	1.678	1.731	1.407	1.231	1.240	1.213	1.239	1.062	1.267	1.543	1.719	1.859	2.043	2.133	2.455	2.775	3.629	5.638	6.465	5.246	3.968	3.346	3.361	3.530	3.647	3.892	5.925	12.48	25.97	45.95
305.0	520.9	670.7	634.0	455.9	355.5	381.1	464.3	625.2	793.3	1082	1514	1651	1162	837.5	808.2	1820	5770	4099	71.12	8.944	4.436	3.800	2.764	2.565	1.877	1.606	1.490	1.553	1.406	1.159	1.100	1.031	0.873	1.001	0.859	0.991	0.976	1.031	1.015	1.039	0.962	1.017	1.017	1.174	1.331	1.598	1.743	1.900	2.081	1.686	1.552	1.504	1.523	1.513	1.622	1.837	2.179	2.585	2.870	2.975	3.417	4.003	4.628	4.940	5.874	7.330	8.878	8.848	6.864	5.509	4.946	4.429	4.121	4.514	5.632	8.476	18.30
310.0	590.1	792.4	778.8	571.8	475.7	507.4	654.0	848.2	1060	1344	1631	1949	1860	1198	931.8	926.4	2090	4126	3925	302.4	18.97	4.744	3.284	2.552	2.137	1.881	1.587	1.557	1.419	1.265	1.175	1.157	0.985	1.019	1.092	1.023	1.075	1.085	1.049	1.073	1.127	1.156	1.165	1.296	1.454	1.702	1.945	2.427	2.340	2.087	1.973	2.146	2.017	2.005	2.005	2.323	2.809	3.216	3.767	3.972	4.553	4.971	5.890	6.405	7.105	7.376	8.437	9.075	9.828	8.967	7.528	6.025	5.340	5.509	5.005	5.062	6.924
315.0	674.7	908.0	930.0	713.5	606.5	621.2	788.7	974.4	1188	1471	1732	1898	1957	1726	1133	824.5	1022	1262	2607	4473	460.8	16.17	4.456	3.549	2.629	2.192	2.039	1.665	1.562	1.612	1.291	1.211	1.109	1.003	1.081	1.050	1.260	1.064	1.289	1.078	1.184	1.274	1.277	1.332	1.639	2.090	2.260	2.768	2.805	2.540	2.377	2.423	2.359	2.369	2.610	2.934	3.292	3.758	4.072	4.583	5.122	5.564	6.300	7.039	7.537	8.022	8.043	8.975	9.344	9.439	9.303	8.983	7.591	6.257	5.332	4.837	4.815
320.0	767.0	1129	1104	861.2	704.5	714.7	856.7	1048	1244	1538	1805	1952	1912	1865	1493	921.4	850.5	652.3	793.6	3339	3920	66.73	8.744	4.357	2.964	2.397	2.226	1.968	1.607	1.553	1.416	1.260	1.155	1.092	1.018	1.129	1.304	0.997	1.163	1.140	1.033	1.307	1.304	1.522	1.677	2.353	2.490	3.486	3.184	2.969	2.900	2.971	2.680	2.770	3.072	3.187	3.726	4.098	4.217	4.982	5.347	5.775	6.448	7.073	7.872	8.224	8.704	9.013	9.036	9.276	8.915	9.548	9.310	8.409	6.510	5.518	5.127
325.0	917.0	1353	1335	1146	828.7	761.1	888.0	1067	1256	1510	1772	1938	1883	1739	1682	1099	844.6	552.2	358.8	1033	3841	3166	56.41	7.000	3.895	3.063	2.234	1.796	1.737	1.566	1.358	1.410	1.112	0.958	1.055	1.120	1.239	1.104	1.123	1.093	1.113	1.388	1.421	1.513	1.856	2.631	3.213	3.891	4.255	3.865	3.724	3.667	3.109	3.185	3.279	3.119	3.721	4.200	4.456	5.051	5.176	6.038	6.376	7.106	7.300	8.175	8.560	9.103	8.869	8.870	8.565	8.617	9.164	9.368	8.192	6.652	5.273
330.0	1074	1720	2001	1761	1228	935.8	945.7	1083	1251	1491	1743	1920	1885	1719	1581	1343	1013	614.1	347.2	403.8	1169	2864	3051	811.9	17.19	4.091	2.743	2.198	2.056	1.759	1.538	1.452	1.344	1.022	1.140	1.024	1.107	1.144	1.111	1.185	1.207	1.402	1.440	1.843	2.242	3.074	3.777	4.941	5.703	5.184	5.242	5.513	4.802	4.307	3.852	3.433	4.018	4.491	4.824	4.942	5.293	5.545	6.321	7.180	7.402	8.166	8.353	8.607	8.715	8.717	8.674	8.688	8.572	8.679	8.514	8.039	7.337
335.0	1221	2100	2610	2482	1827	1261	1064	1154	1302	1533	1765	1942	1962	1833	1638	1400	1314	865.5	481.4	377.3	447.0	778.1	1989	3743	405.1	17.56	4.020	3.022	2.331	1.863	1.785	1.672	1.420	1.186	1.143	1.137	1.148	1.224	1.166	1.123	1.388	1.343	1.546	2.049	2.568	3.450	4.438	5.727	7.448	6.925	6.943	8.051	7.231	6.458	5.301	4.571	4.722	4.654	5.126	5.188	5.255	5.709	6.685	6.858	7.370	8.097	8.387	8.639	9.321	9.194	9.168	9.018	9.049	9.105	8.325	7.953	8.238
340.0	1293	2256	2947	2781	2105	1419	1160	1190	1330	1516	1766	1927	1974	1882	1694	1422	1332	1093	618.9	438.5	341.0	335.3	617.6	2725	3291	315.5	8.578	3.970	2.704	2.223	1.848	1.724	1.360	1.299	1.151	1.178	1.137	1.307	1.214	1.163	1.398	1.458	1.601	2.082	2.617	3.632	4.582	6.409	7.646	7.744	8.064	8.784	8.525	7.219	6.275	5.028	5.268	4.956	5.193	5.769	5.656	6.192	6.618	6.960	7.247	7.860	8.311	8.781	9.315	9.418	9.222	9.136	9.227	9.364	8.570	8.266	8.010
345.0	1393	2257	2990	2898	2210	1485	1215	1226	1329	1500	1721	1892	1923	1859	1700	1432	1268	1139	800.5	508.6	367.1	278.9	283.6	849.8	3137	2736	51.05	6.226	3.367	2.513	2.076	1.723	1.379	1.421	1.340	1.116	1.064	1.367	1.138	1.152	1.342	1.450	1.584	2.096	2.651	3.727	4.620	6.618	7.998	8.014	8.438	9.204	8.734	7.572	6.353	5.185	5.282	5.039	5.265	5.715	5.915	6.048	6.498	6.750	7.145	7.621	8.267	8.371	8.964	9.480	9.116	9.437	9.012	9.416	8.715	8.363	8.256
350.0	1290	2191	2968	2958	2348	1631	1308	1289	1358	1502	1683	1828	1888	1842	1691	1465	1284	1092	939.4	703.1	464.0	340.6	272.4	335.9	956.3	2345	2499	223.3	15.49	3.618	2.484	1.919	1.620	1.422	1.346	1.132	1.185	1.306	1.296	1.149	1.251	1.394	1.688	2.088	2.777	3.715	4.679	6.439	7.785	8.011	8.424	9.667	9.044	8.004	6.607	5.463	5.714	5.340	5.561	5.762	5.945	6.186	6.479	6.766	7.356	7.627	8.021	8.280	8.669	8.680	8.728	9.234	9.184	9.041	8.992	8.638	8.422
355.0	1227	2050	2825	2905	2442	1787	1449	1412	1436	1549	1681	1799	1843	1816	1705	1521	1338	1133	945.6	869.0	619.1	440.4	343.6	283.3	347.5	622.6	1626	3093	365.8	15.56	3.301	2.284	1.874	1.573	1.415	1.253	1.236	1.391	1.169	1.172	1.139	1.362	1.816	2.004	2.420	3.385	4.248	6.384	7.576	7.671	8.007	9.537	9.120	8.476	7.237	5.836	6.080	5.678	5.808	6.502	6.340	6.370	6.821	7.228	7.262	7.697	8.067	7.989	8.360	8.636	8.710	9.090	9.236	9.249	8.855	8.621	8.806
360.0	1249	1935	2683	2796	2396	1832	1499	1479	1509	1583	1705	1777	1806	1786	1680	1531	1365	1171	981.4	883.4	790.1	553.4	412.2	316.2	254.5	253.6	481.6	2269	2908	287.2	7.892	3.435	2.350	1.793	1.508	1.302	1.404	1.250	1.264	1.257	1.183	1.415	1.637	1.949	2.410	3.546	4.156	6.079	6.795	6.935	7.899	8.880	9.031	8.259	7.363	6.444	6.443	6.148	5.958	6.625	6.423	6.584	7.077	7.256	7.560	7.757	7.886	7.929	8.165	8.578	8.769	9.066	9.273	9.266	8.609	9.145	9.061
365.0	1143	1883	2563	2685	2347	1875	1583	1531	1579	1622	1712	1765	1783	1758	1664	1519	1366	1188	1023	884.4	836.4	705.9	495.8	374.6	279.0	209.0	206.9	701.5	2808	2372	47.35	5.501	2.953	2.050	1.595	1.376	1.287	1.192	1.216	1.117	1.301	1.383	1.666	1.970	2.429	3.277	4.079	5.715	6.261	6.728	7.456	8.794	8.721	8.376	7.358	6.697	6.561	6.596	6.708	6.627	6.865	6.886	7.215	7.190	7.590	7.665	8.175	7.709	7.797	8.597	8.181	8.767	8.851	8.860	9.046	9.058	8.954
370.0	1073	1757	2361	2528	2306	1895	1646	1593	1618	1662	1723	1756	1744	1706	1622	1491	1375	1228	1072	947.3	851.0	803.9	672.7	481.9	360.5	267.6	198.2	257.9	851.8	2115	2234	199.8	13.62	3.237	2.101	1.463	1.421	1.374	1.323	1.220	1.313	1.340	1.584	2.010	2.331	3.133	3.835	5.254	6.111	6.222	6.823	8.458	8.467	8.172	7.433	6.836	6.839	6.717	6.517	7.120	7.093	7.188	7.348	7.364	7.597	7.602	7.705	7.704	7.850	8.392	8.098	8.351	9.034	8.834	8.489	8.852	8.531
375.0	1080	1624	2183	2379	2225	1933	1702	1650	1668	1703	1732	1741	1723	1661	1584	1472	1370	1252	1124	1008	904.3	828.2	793.4	654.1	470.9	354.6	261.4	210.3	290.7	555.1	1505	2628	311.2	13.06	2.982	1.967	1.696	1.472	1.418	1.370	1.259	1.388	1.530	1.809	2.403	2.928	3.676	4.764	5.725	5.892	6.343	8.227	7.947	7.879	7.380	6.954	7.137	6.873	7.004	7.005	7.155	7.295	7.734	7.444	7.684	7.833	7.997	7.500	8.265	8.123	8.083	8.011	8.421	8.624	8.679	8.709	8.525
380.0	996.6	1555	2091	2258	2189	1944	1729	1675	1678	1691	1724	1730	1691	1632	1542	1446	1363	1248	1142	1048	946.9	860.3	814.2	766.2	580.2	429.0	323.0	242.0	201.3	213.9	444.5	1997	2296	230.0	6.069	2.886	1.898	1.560	1.558	1.217	1.283	1.369	1.656	1.608	2.261	3.070	3.359	4.468	5.223	5.524	5.951	7.647	7.642	7.628	7.418	6.893	7.144	7.081	6.797	6.987	7.195	7.260	7.752	7.527	7.539	7.609	7.880	7.650	7.967	8.027	8.124	7.979	8.293	8.038	8.273	8.696	8.461
385.0	966.1	1498	1982	2204	2161	1934	1749	1682	1658	1714	1721	1698	1653	1579	1507	1409	1331	1242	1152	1071	982.2	900.2	829.9	796.3	702.1	503.6	387.1	292.0	217.8	167.6	176.3	618.2	2223	1791	37.61	4.584	2.617	1.797	1.519	1.306	1.337	1.305	1.506	1.884	2.127	2.799	3.354	4.444	4.918	5.084	5.828	7.560	7.600	7.612	7.315	6.903	7.145	6.879	7.071	6.949	7.299	7.168	7.589	7.405	7.845	7.443	7.974	7.566	7.735	7.667	7.673	7.942	8.020	7.857	7.965	8.275	8.445
390.0	979.5	1427	1879	2048	2083	1912	1765	1682	1658	1680	1682	1660	1598	1535	1456	1365	1294	1221	1149	1078	1017	949.0	877.6	817.2	765.0	646.2	486.3	367.8	283.8	210.6	154.8	211.1	674.3	1625	1609	155.4	11.33	2.627	1.828	1.464	1.526	1.571	1.655	1.928	2.367	2.731	3.184	4.168	4.908	4.982	5.284	7.081	7.172	7.278	7.234	6.941	7.200	7.323	7.250	6.995	7.168	7.174	7.551	7.265	7.512	7.458	7.374	7.159	7.418	7.589	7.465	7.874	7.709	7.887	7.784	8.011	8.207
395.0	961.0	1386	1754	1948	1996	1898	1741	1687	1660	1661	1629	1597	1553	1487	1404	1309	1248	1191	1129	1072	1023	973.1	920.9	858.9	785.5	730.5	618.6	459.1	359.7	273.0	195.2	158.5	222.8	424.0	1147	1886	247.0	8.907	2.790	2.097	1.641	1.889	1.699	1.928	2.409	2.611	3.053	4.098	4.673	4.849	5.302	6.387	7.135	6.919	7.079	6.708	7.101	7.199	7.289	7.026	7.171	6.903	7.261	7.465	7.294	7.329	7.420	6.908	7.318	7.243	7.231	7.654	7.730	7.845	7.460	7.665	7.553
400.0	961.9	1338	1698	1881	1948	1867	1761	1692	1640	1628	1606	1561	1516	1438	1359	1265	1202	1159	1110	1066	1029	988.6	943.2	882.4	810.8	746.7	695.5	543.9	418.3	325.7	241.3	170.1	140.5	154.7	342.5	1482	1616	38.26	4.989	2.618	1.875	1.749	1.608	1.896	2.252	2.621	2.921	4.049	4.402	4.396	5.142	6.313	6.692	6.885	6.739	6.674	7.229	7.478	7.063	7.031	7.231	6.815	7.159	7.399	6.978	7.266	7.183	7.035	7.077	7.027	7.022	7.476	7.248	7.466	7.289	7.585	7.708
405.0	911.5	1290	1650	1846	1897	1837	1755	1682	1614	1605	1585	1540	1469	1402	1322	1229	1161	1125	1085	1044	1023	991.4	953.4	905.0	835.5	760.6	708.4	628.6	477.6	368.5	282.7	202.6	147.7	110.7	128.5	462.9	1622	1234	32.09	3.864	2.362	1.876	1.685	2.004	2.081	2.688	2.965	3.863	4.181	4.195	4.880	6.005	6.611	6.917	7.034	6.889	6.941	7.386	7.125	6.931	7.306	7.028	7.363	7.006	6.957	6.996	6.851	7.202	6.832	6.920	7.245	7.334	6.953	6.981	6.656	7.121	7.442
410.0	875.5	1233	1583	1750	1833	1785	1724	1648	1587	1567	1547	1495	1434	1349	1258	1173	1110	1071	1043	1011	993.4	973.8	948.1	907.4	852.3	777.3	712.5	659.0	570.3	438.8	331.2	245.3	177.2	127.1	99.19	150.7	495.2	1181	1192	142.1	8.743	2.547	2.110	2.034	2.198	2.620	2.954	3.729	4.104	4.192	4.668	5.886	6.372	6.641	6.781	6.708	7.097	7.183	7.140	6.885	7.044	6.765	6.961	6.754	6.808	6.794	6.622	6.726	6.514	6.555	6.784	6.647	6.697	6.984	6.721	6.836	7.079
415.0	806.8	1185	1539	1657	1748	1755	1698	1625	1555	1516	1484	1432	1368	1290	1191	1110	1052	1010	984.3	957.3	950.0	935.1	921.3	896.7	850.4	788.2	716.0	651.3	602.3	517.2	382.1	286.4	211.5	155.0	111.1	95.65	151.7	303.4	853.7	1344	209.9	7.163	2.550	2.303	2.224	2.425	2.988	3.712	3.917	4.072	4.301	5.916	6.052	6.277	6.207	6.598	6.521	7.080	7.051	7.042	6.618	7.027	6.814	6.774	6.492	6.411	6.177	6.661	6.198	6.571	6.456	6.471	6.785	6.415	6.411	6.309	6.685
420.0	798.5	1129	1478	1603	1706	1695	1680	1606	1536	1481	1432	1391	1316	1237	1142	1060	997.0	964.2	945.4	925.2	909.3	899.0	898.7	872.2	837.9	779.6	717.0	652.1	600.0	554.3	429.7	313.7	235.3	174.2	125.6	93.47	82.44	100.2	246.4	1057	1177	34.71	4.122	2.536	2.523	2.393	2.796	3.365	3.774	3.855	4.148	5.623	5.862	6.071	6.430	6.547	6.467	6.931	6.753	7.001	6.767	6.538	6.641	6.624	6.123	6.554	5.989	6.035	6.113	5.958	5.964	5.932	6.575	6.408	6.042	6.363	6.328
425.0	784.3	1091	1386	1559	1641	1692	1633	1575	1517	1445	1399	1341	1271	1186	1090	1011	962.7	920.1	904.7	887.1	875.4	866.7	859.6	849.8	817.1	771.3	711.8	653.6	590.4	549.2	473.5	347.6	258.5	192.6	142.3	103.7	76.92	61.40	81.10	327.7	1165	911.2	28.74	3.590	2.809	2.680	2.903	3.508	3.828	3.747	3.914	5.485	5.490	6.096	6.170	6.523	6.427	6.933	6.372	6.758	6.869	6.634	6.232	6.211	6.174	6.160	5.994	5.737	5.825	6.175	6.006	6.272	6.252	5.906	5.939	6.363	5.980
430.0	768.1	1068	1345	1509	1611	1652	1641	1575	1492	1416	1358	1293	1224	1133	1045	962.6	916.0	876.0	860.1	841.5	830.5	824.1	818.7	809.9	786.3	753.5	703.9	652.8	595.2	543.6	483.4	398.7	293.5	218.5	165.1	122.1	89.22	64.14	53.02	96.75	347.5	854.9	891.5	130.2	8.640	2.975	2.783	3.482	3.695	3.643	4.186	5.170	5.531	5.820	6.012	6.481	6.599	6.876	6.663	6.692	6.738	6.515	6.080	6.280	6.098	5.921	5.875	5.521	5.691	5.815	5.712	5.771	6.034	5.864	5.670	5.877	5.691
435.0	867.7	1027	1312	1445	1578	1632	1656	1596	1486	1391	1323	1254	1177	1080	1005	931.8	868.9	835.7	819.4	797.7	779.9	773.9	777.1	768.8	751.6	725.3	685.4	647.7	599.4	542.5	475.3	419.2	341.1	249.5	188.3	144.1	107.1	76.74	56.90	53.38	98.88	214.1	629.6	1103	198.0	7.725	3.288	3.672	3.758	3.671	3.906	5.147	5.548	5.769	5.991	6.308	6.380	7.114	6.838	6.637	6.538	6.540	6.266	6.349	5.879	5.714	5.784	5.864	5.687	5.516	5.679	5.734	5.432	5.714	5.497	5.159	5.525
440.0	985.7	1025	1244	1421	1535	1614	1667	1604	1502	1375	1292	1222	1139	1052	963.5	895.3	839.4	802.5	785.4	763.9	745.9	735.4	736.2	737.9	722.3	701.9	667.3	636.6	598.0	539.2	477.2	412.2	364.4	276.4	206.0	158.1	118.6	87.25	64.97	49.23	48.55	66.66	180.3	854.2	1024	32.36	5.063	3.979	3.655	3.711	3.986	5.047	5.221	5.999	5.948	6.443	6.703	6.862	6.878	6.696	6.349	6.540	6.167	5.840	5.874	5.844	5.662	5.475	5.522	5.244	5.601	5.311	5.143	5.389	5.301	5.269	5.254
445.0	1059	1110	1217	1381	1516	1595	1648	1582	1479	1348	1253	1183	1099	1022	934.3	869.7	808.2	768.8	750.1	732.9	713.0	705.8	698.2	706.3	693.5	678.3	649.5	617.2	581.9	534.6	476.7	407.6	360.7	303.0	224.6	168.7	130.4	97.59	72.77	54.52	42.27	37.70	56.69	262.3	993.0	816.4	26.14	4.813	3.917	3.758	3.961	4.912	5.221	5.607	5.782	6.111	6.835	6.716	6.729	6.575	6.530	6.225	5.983	5.753	5.503	5.616	5.174	5.215	5.096	5.016	5.192	5.138	5.401	5.220	5.394	4.936	5.134
450.0	905.0	1426	1200	1320	1456	1557	1606	1547	1426	1295	1193	1118	1036	953.8	876.7	810.3	757.8	729.5	704.0	682.3	658.4	650.2	643.9	651.6	641.9	630.3	609.0	585.3	557.8	519.9	465.8	400.2	344.4	298.6	248.4	187.2	142.8	108.0	82.99	63.61	47.82	36.59	33.30	74.06	292.0	738.3	802.8	119.8	9.096	3.972	3.804	4.765	5.058	5.469	5.507	5.954	6.688	6.546	6.737	6.611	6.486	6.116	6.049	5.414	5.396	5.286	5.125	5.113	5.020	5.008	4.978	4.867	4.926	5.066	4.857	4.654	4.963
455.0	666.6	1543	1451	1229	1386	1485	1540	1489	1350	1219	1122	1048	964.5	887.6	820.1	749.4	698.3	676.4	651.7	624.6	597.8	586.2	580.8	589.8	585.0	576.5	562.4	547.1	523.8	494.1	446.4	388.4	333.0	282.6	250.9	207.0	155.0	116.2	92.07	72.99	54.75	41.07	33.21	35.42	79.63	182.3	490.1	917.5	169.3	8.830	4.126	4.858	4.807	5.197	5.457	5.796	6.465	6.201	6.437	6.436	6.339	6.008	5.721	5.254	4.911	4.910	4.782	4.614	4.986	4.677	4.515	4.599	4.450	4.675	4.676	4.231	4.658
460.0	577.8	1282	1830	1228	1309	1396	1459	1418	1288	1164	1068	994.3	908.7	837.0	762.7	702.6	661.2	630.7	606.1	578.4	552.5	538.2	538.0	539.9	538.0	536.0	522.7	509.4	495.5	469.5	424.4	373.9	323.9	274.5	237.9	211.7	166.0	122.0	96.64	78.11	60.03	46.04	36.64	29.77	34.19	53.73	133.2	639.8	812.1	123.4	5.782	4.925	4.832	5.188	5.399	5.466	6.123	6.236	6.287	5.796	5.942	5.499	5.332	4.996	4.934	4.593	4.706	4.614	4.224	4.364	4.343	4.286	4.553	4.352	4.430	4.452	4.442
465.0	535.8	965.9	1974	1414	1224	1324	1405	1344	1222	1096	1003	928.2	855.3	790.7	722.4	656.3	617.3	591.2	565.8	536.8	509.4	497.7	495.8	497.5	500.4	491.3	488.4	474.6	462.9	443.4	404.9	357.9	312.7	266.5	226.2	202.5	175.0	131.3	102.2	80.94	64.30	50.66	39.57	31.06	26.55	26.47	41.59	186.3	727.9	664.1	22.58	5.736	4.795	4.837	4.939	5.346	5.691	5.755	5.961	5.374	5.575	5.444	5.250	4.735	4.678	4.420	4.260	4.180	4.054	4.115	4.043	4.050	4.280	3.984	4.255	4.146	4.054
470.0	470.6	733.8	1525	1922	1202	1204	1282	1225	1121	1004	916.7	852.6	775.3	714.1	651.4	592.9	555.9	532.4	509.1	477.2	453.3	440.4	439.9	443.0	443.8	439.9	433.6	427.5	419.8	402.9	373.4	331.7	292.9	249.1	214.4	185.2	166.3	140.3	107.2	84.15	68.24	54.78	42.46	34.02	27.57	22.53	22.57	51.98	205.7	509.0	566.9	115.6	10.47	4.837	4.869	5.092	5.236	5.428	5.247	5.330	5.259	4.877	4.831	4.441	4.249	4.119	3.903	3.870	3.852	3.756	3.799	3.680	3.784	3.648	3.677	3.717	3.863
475.0	454.4	611.4	950.5	1993	1536	1100	1143	1107	1005	913.1	829.7	770.3	705.0	638.4	579.2	531.9	491.4	475.2	446.7	420.9	397.6	390.3	387.7	386.8	389.8	386.2	381.9	377.3	372.3	360.1	335.7	304.0	268.2	230.4	200.1	173.8	150.0	135.5	114.1	87.96	69.18	56.24	46.19	37.18	29.98	24.15	20.34	23.41	55.06	122.6	280.6	614.6	171.9	11.32	4.573	4.634	4.770	4.796	5.035	5.139	4.691	4.610	4.137	4.100	3.770	3.660	3.774	3.634	3.495	3.263	3.470	3.345	3.524	3.460	3.201	3.292	3.252
480.0	419.2	567.8	726.5	1542	2013	1079	1055	1028	931.2	831.3	762.3	711.9	649.8	590.0	534.8	493.6	455.0	429.8	407.8	387.1	363.7	352.3	351.4	347.5	351.1	350.5	347.2	347.4	340.8	333.9	309.4	284.1	252.0	219.3	190.5	166.9	141.9	124.9	115.1	91.89	71.77	57.75	47.33	38.44	31.43	25.96	20.41	18.17	22.19	35.55	73.85	347.4	600.7	147.9	6.798	4.645	4.729	4.667	4.712	4.660	4.245	4.170	4.084	3.735	3.749	3.391	3.534	3.487	3.297	3.156	2.987	3.192	3.229	3.024	3.438	3.124	3.181
485.0	419.9	570.1	642.1	1058	2177	1297	982.9	955.9	879.7	789.3	729.6	660.7	608.0	557.0	499.6	456.7	417.5	401.3	380.7	354.5	333.3	324.5	320.0	319.6	324.9	323.6	322.5	319.3	313.5	311.7	287.7	264.1	235.9	208.2	183.1	158.7	137.0	117.8	108.6	96.27	74.88	59.04	48.72	39.55	32.45	27.19	21.87	18.31	15.84	16.97	23.66	96.04	446.7	561.1	27.82	5.281	4.554	4.777	4.629	4.294	4.140	3.933	3.810	3.767	3.507	3.250	3.176	3.281	3.126	3.072	3.021	3.030	2.932	2.796	2.927	2.951	2.946
490.0	345.2	527.4	593.0	765.0	1581	1908	983.4	862.1	793.4	723.8	658.4	612.8	557.0	506.2	449.5	411.0	379.8	360.6	340.5	323.2	301.4	289.3	286.8	288.9	290.1	287.3	288.5	287.2	285.4	280.7	266.6	243.5	216.5	193.4	169.9	149.1	129.8	113.5	100.3	92.37	80.36	62.71	49.47	41.15	34.22	28.36	23.89	19.49	15.80	13.35	13.31	28.41	119.7	339.2	473.2	122.3	12.80	4.655	4.125	3.923	4.000	3.591	3.510	3.460	3.186	3.123	2.925	3.118	2.872	2.874	2.822	2.840	2.677	2.596	2.754	2.617	2.683
495.0	277.8	471.7	572.4	635.3	924.4	1998	1387	774.2	710.2	638.1	588.0	554.6	503.6	452.5	400.7	366.1	335.7	319.9	303.4	288.1	264.1	254.5	255.5	256.6	256.3	253.1	254.2	252.3	252.3	249.9	238.3	219.6	196.4	175.2	157.0	139.1	121.8	105.3	92.62	83.04	77.18	66.84	51.49	41.59	35.24	29.85	25.71	20.78	16.77	13.85	12.00	13.77	33.25	81.65	211.1	542.6	213.9	15.02	3.971	3.389	3.604	3.362	3.206	3.257	2.800	2.781	2.739	2.785	2.576	2.534	2.432	2.457	2.581	2.323	2.494	2.203	2.641
500.0	266.5	396.9	547.6	571.6	676.4	1479	1906	771.3	637.9	585.9	539.9	505.1	458.4	410.1	363.7	328.5	307.8	288.3	277.4	257.6	241.2	230.1	231.5	230.0	231.1	230.7	229.3	230.3	228.5	227.9	218.3	198.3	178.2	161.8	145.8	129.1	114.0	100.9	87.37	77.48	70.96	66.47	54.38	42.67	35.54	29.90	25.58	21.14	17.62	14.33	11.93	11.01	14.26	24.13	54.12	264.3	579.5	180.3	9.496	3.550	3.478	3.166	2.797	3.055	2.617	2.856	2.517	2.499	2.375	2.426	2.235	2.298	2.344	2.084	2.266	2.087	2.140
505.0	236.1	352.0	521.7	527.4	563.3	926.3	2102	993.4	592.4	531.0	498.8	463.9	421.9	376.5	330.4	301.1	278.7	260.8	245.7	233.4	216.5	211.0	209.0	207.5	207.8	206.7	206.4	205.5	208.1	205.9	198.5	181.6	164.7	149.6	132.4	118.5	105.9	94.27	82.66	71.50	64.31	59.65	55.58	43.24	35.27	29.91	25.52	21.15	17.60	15.40	11.98	10.67	9.946	11.31	17.44	68.72	337.3	542.5	32.45	5.342	3.181	3.120	2.943	2.758	2.627	2.425	2.323	2.376	2.194	2.196	2.310	2.134	2.238	1.943	2.067	2.326	1.894
510.0	203.6	298.3	428.5	497.2	490.9	598.6	1443	1679	612.2	470.0	437.2	408.2	369.7	330.8	296.5	266.4	243.8	228.4	213.9	202.7	190.9	180.8	179.6	180.1	178.3	178.4	178.2	179.2	178.8	178.4	173.0	158.0	145.3	131.8	118.6	105.5	94.68	85.00	74.55	66.61	58.77	52.71	51.14	45.13	36.24	28.90	24.68	20.59	17.39	15.12	12.38	10.94	9.250	8.616	9.335	20.28	86.03	268.1	385.8	133.2	13.01	2.875	2.703	2.499	2.449	2.153	2.186	2.107	2.085	1.964	1.883	1.986	1.906	1.888	1.868	1.856	2.004
515.0	187.4	250.4	339.3	459.3	447.9	458.1	726.6	1860	1054	413.9	381.0	351.5	320.7	283.6	254.1	230.4	210.3	198.1	185.4	174.7	165.0	156.5	153.0	154.3	154.5	151.5	152.3	153.4	154.1	151.9	148.0	137.2	125.9	114.2	104.2	93.29	83.80	74.98	66.96	59.71	53.81	46.11	42.92	42.61	37.40	29.48	24.21	20.18	17.14	14.86	12.53	11.33	9.122	8.060	7.629	9.678	23.68	63.85	134.5	385.6	216.9	15.93	2.565	2.300	2.181	2.223	1.964	1.930	1.729	1.736	1.699	1.718	1.665	1.664	1.631	1.598	1.636
520.0	168.9	221.6	292.7	401.7	421.5	395.9	475.4	1308	1666	441.1	341.8	316.4	283.9	257.0	227.0	206.5	187.4	173.4	164.3	154.5	144.0	136.9	135.9	135.3	137.5	133.9	135.8	132.9	135.3	133.2	129.8	121.0	111.0	102.2	93.40	84.92	75.59	67.49	61.60	55.17	48.88	42.35	39.23	36.48	36.78	30.79	24.02	19.98	17.02	14.48	12.16	11.00	9.608	8.085	7.377	6.761	9.896	18.23	34.04	162.1	412.6	175.8	8.683	2.287	2.186	2.064	1.792	1.692	1.534	1.543	1.639	1.571	1.560	1.613	1.624	1.493	1.541
525.0	143.4	210.3	261.7	342.0	405.7	360.0	390.3	725.0	1970	707.9	311.4	286.4	257.8	235.8	203.2	182.9	167.6	157.2	146.8	138.2	128.8	125.2	123.2	121.5	120.1	119.5	120.7	118.9	121.0	120.3	117.3	108.1	99.83	91.09	83.32	76.69	68.45	62.59	56.20	50.38	45.06	39.73	36.07	32.05	33.20	30.73	24.22	19.24	16.41	13.92	11.78	10.71	9.519	8.167	6.918	6.538	6.686	7.946	11.22	40.76	205.0	388.6	33.06	4.385	1.992	1.965	1.784	1.613	1.520	1.459	1.540	1.374	1.484	1.505	1.441	1.492	1.543
530.0	134.7	174.3	221.1	270.3	354.3	340.1	325.7	405.8	1276	1523	368.1	245.6	223.2	198.0	177.9	160.0	144.4	134.0	126.1	118.2	109.8	107.4	104.6	103.3	104.0	102.7	101.2	102.6	103.6	102.5	100.4	94.16	86.53	79.81	71.86	66.48	60.43	55.06	48.95	44.31	39.71	35.47	31.44	28.67	28.16	28.07	25.05	19.50	15.55	12.73	11.55	10.10	9.007	8.154	7.048	6.389	5.992	5.671	5.924	12.10	50.80	167.4	263.7	132.3	12.76	1.915	1.668	1.539	1.415	1.398	1.386	1.439	1.364	1.362	1.316	1.331	1.298
535.0	120.8	148.9	185.7	222.3	279.5	335.8	275.8	283.7	527.7	1712	856.3	215.4	192.3	170.0	149.9	135.4	121.6	113.7	106.9	99.63	92.93	89.75	87.75	86.55	87.68	84.77	87.54	86.29	87.56	86.59	85.43	78.48	74.95	66.70	61.99	56.90	51.95	47.69	42.37	38.76	35.23	31.42	28.46	25.28	23.37	23.08	23.21	20.10	15.15	12.23	10.81	9.300	8.352	7.860	7.525	6.619	5.627	5.031	4.534	5.732	13.89	39.76	82.06	255.3	200.9	15.46	1.561	1.437	1.322	1.178	1.180	1.289	1.077	1.149	1.295	1.135	1.085
540.0	105.8	128.9	167.6	186.8	223.7	309.1	260.7	231.5	287.9	1097	1537	231.7	169.3	149.3	130.8	118.8	109.1	99.20	92.91	86.78	81.93	78.44	77.96	75.76	75.00	74.40	74.98	76.05	76.49	75.49	74.26	68.17	64.11	58.81	54.35	49.54	45.79	42.13	38.43	34.87	31.55	28.21	25.50	22.62	20.90	19.46	19.51	18.79	15.61	11.65	9.924	8.458	7.864	6.907	6.870	6.310	5.653	4.794	4.129	4.193	5.668	11.02	20.71	95.59	287.3	147.6	8.078	1.367	1.261	1.213	1.216	1.155	1.118	1.139	1.118	1.021	0.990
545.0	96.43	115.3	150.0	156.0	179.7	266.6	258.7	208.0	211.3	517.0	1830	468.1	151.6	129.6	116.2	104.2	93.49	88.77	80.67	77.00	71.88	67.91	67.93	66.94	66.11	64.66	64.76	65.91	66.78	66.18	64.66	59.57	56.53	51.97	47.83	44.09	40.49	37.27	34.36	30.51	28.50	24.96	23.20	20.41	18.60	17.18	16.25	17.04	15.37	11.86	9.452	8.278	7.256	6.592	6.393	6.045	5.618	4.627	4.020	3.765	3.778	4.720	6.825	23.76	127.8	276.0	33.84	3.066	1.213	1.107	1.093	1.108	1.146	1.001	0.948	0.929	0.925
550.0	86.78	108.2	132.0	132.6	152.8	193.5	247.6	187.4	171.4	238.1	1079	1248	167.5	110.4	97.97	85.79	79.34	72.99	66.84	63.22	60.18	56.84	56.45	55.87	54.46	53.58	53.88	53.73	55.34	54.43	52.28	49.12	46.65	43.18	39.57	36.97	34.41	31.01	28.97	25.86	24.05	21.68	19.59	17.72	16.44	14.56	13.44	13.27	13.45	11.59	9.070	7.469	6.466	5.902	5.623	5.354	5.053	4.632	3.895	3.505	3.213	3.207	3.441	7.073	31.13	111.0	176.6	102.8	11.31	1.173	1.005	1.021	0.921	0.903	0.906	0.829	0.799
555.0	76.86	105.5	113.7	118.9	128.3	142.0	202.5	197.4	139.7	153.4	377.2	1472	541.4	91.55	79.89	70.91	63.90	58.49	55.51	51.76	48.78	45.54	45.46	44.39	43.82	42.61	43.02	42.12	44.19	43.49	42.52	40.32	37.58	34.88	31.91	30.29	26.84	25.94	23.80	21.63	19.41	17.92	16.32	15.31	14.11	12.27	11.40	10.73	10.20	10.72	9.027	7.073	5.498	5.275	4.669	4.345	4.327	4.098	3.838	3.233	2.948	2.669	2.550	3.253	8.432	26.08	53.85	165.8	132.4	12.04	1.133	1.019	0.810	0.822	0.782	0.801	0.742
560.0	82.21	97.60	101.5	110.1	104.0	113.1	148.4	194.9	123.8	120.6	168.5	907.4	1129	108.7	67.99	58.86	54.61	50.35	46.38	43.06	41.53	38.52	38.33	36.50	36.58	36.09	35.96	34.97	36.24	36.32	35.04	32.72	31.85	29.76	27.01	25.00	22.50	21.45	20.10	18.22	16.70	15.28	14.10	12.99	12.38	10.81	9.621	9.268	8.184	8.861	8.830	6.697	5.166	4.395	4.649	4.053	4.027	3.480	3.648	3.289	2.778	2.338	2.305	2.171	3.253	6.954	13.36	60.82	178.0	92.30	5.242	0.919	0.792	0.727	0.820	0.741	0.714
565.0	72.18	90.39	94.45	98.18	91.01	94.85	112.3	184.3	120.0	100.4	113.2	377.9	1437	165.5	57.37	49.55	47.69	43.56	39.71	37.60	35.24	32.99	33.11	30.72	30.37	30.70	30.76	30.47	30.94	31.19	30.40	28.21	26.89	25.43	22.97	21.18	19.76	18.64	16.52	15.33	14.13	13.01	12.04	11.05	10.40	9.534	8.686	7.969	7.070	6.917	7.456	6.589	4.810	4.100	3.999	3.615	3.471	3.412	3.173	3.168	2.838	2.449	2.008	2.032	1.984	2.789	4.262	15.10	76.13	164.4	32.28	2.263	0.808	0.735	0.657	0.706	0.683
570.0	74.56	89.36	89.64	82.92	77.20	77.87	84.60	135.5	137.9	91.36	88.55	146.5	850.8	845.2	78.36	41.66	37.90	35.65	32.18	30.27	27.95	26.23	26.23	25.61	25.21	24.66	24.34	24.46	24.94	24.17	24.20	22.95	21.47	20.28	18.39	17.14	15.98	14.99	13.64	12.77	11.82	10.59	10.31	9.258	8.536	7.998	7.372	6.359	5.969	5.440	5.444	5.823	5.000	3.957	3.415	3.211	3.044	2.881	2.680	2.709	2.777	2.240	1.832	1.799	1.678	1.816	2.078	4.512	18.61	64.96	105.2	65.17	8.390	0.735	0.659	0.663	0.623
575.0	73.04	80.55	77.13	67.07	64.22	61.77	66.59	88.02	141.5	92.90	75.36	84.52	270.1	1068	327.7	34.61	30.09	28.14	25.47	23.71	22.08	21.99	20.31	21.07	19.76	19.49	18.97	19.51	19.53	19.65	18.63	18.59	17.29	15.86	15.27	13.76	12.88	12.11	10.96	9.962	9.635	8.720	7.798	7.447	7.077	6.581	6.082	5.430	4.845	4.399	4.176	4.344	4.651	3.972	3.051	2.797	2.646	2.447	2.451	2.156	2.349	2.310	1.974	1.758	1.570	1.483	1.650	2.074	5.251	15.31	31.35	95.77	79.87	7.608	0.649	0.641	0.583
580.0	63.43	82.76	76.12	61.46	58.07	55.33	60.42	68.20	123.4	109.0	71.32	67.80	103.1	652.3	751.7	42.77	25.86	24.17	21.11	20.21	18.83	18.20	16.85	17.56	16.33	16.20	16.25	16.26	16.39	17.27	16.36	15.12	13.97	13.31	12.47	11.78	10.68	9.996	9.225	8.500	8.005	7.768	6.702	6.218	5.941	5.657	5.132	4.529	4.105	3.855	3.681	3.569	4.139	3.724	2.853	2.558	2.466	2.094	2.093	1.991	1.974	2.040	2.088	1.770	1.463	1.353	1.375	1.600	2.237	4.406	7.896	34.00	103.3	34.65	3.329	0.642	0.638
585.0	69.37	74.15	78.43	58.33	53.21	49.50	52.39	57.13	90.27	122.6	70.09	61.61	62.33	254.6	977.3	98.96	22.38	21.28	18.34	17.71	15.71	15.25	14.86	14.72	14.12	14.50	13.71	14.22	14.19	14.47	13.34	12.89	11.94	10.95	10.27	10.02	9.178	8.586	7.972	7.664	6.977	6.373	6.016	5.489	5.448	4.959	4.429	4.049	3.653	3.296	3.116	3.077	3.265	3.430	3.109	2.382	2.128	1.916	1.865	1.798	1.768	1.707	1.882	1.835	1.449	1.309	1.280	1.312	1.482	1.878	2.531	8.529	43.89	93.57	28.63	1.554	0.638
590.0	63.29	73.57	68.24	52.02	47.36	44.50	46.14	50.12	62.81	111.0	82.91	57.11	52.48	90.60	573.1	508.9	33.35	17.04	15.31	13.98	13.22	12.34	11.96	12.02	11.73	11.75	11.36	11.15	11.13	11.19	10.55	10.46	9.871	8.959	8.540	7.907	7.533	6.880	6.550	6.010	5.846	5.327	4.938	4.665	4.526	4.095	3.665	3.557	3.172	2.859	2.596	2.652	2.368	2.576	2.917	2.442	2.008	1.732	1.745	1.400	1.532	1.365	1.522	1.691	1.486	1.263	1.196	1.177	1.189	1.309	1.348	2.616	10.75	36.49	64.59	41.37	5.740
595.0	57.41	66.62	63.53	47.06	44.53	40.62	42.33	44.70	50.68	81.35	103.4	59.72	48.60	47.41	170.7	671.6	98.56	14.96	12.44	11.56	10.85	10.30	9.871	9.163	9.702	9.559	8.829	9.160	9.104	8.773	8.794	8.257	7.941	7.639	6.818	6.164	5.763	5.599	5.147	4.757	4.799	4.355	4.012	3.771	3.489	3.385	3.032	2.885	2.729	2.278	2.318	2.004	1.831	1.885	2.358	2.284	2.139	1.656	1.499	1.362	1.298	1.206	1.305	1.252	1.388	1.391	1.036	1.009	1.050	1.048	1.036	1.147	2.944	8.609	18.53	56.22	36.08
600.0	62.03	64.12	61.20	47.23	40.36	38.16	40.80	44.73	49.09	66.91	114.0	69.59	50.97	41.49	61.48	432.2	398.0	18.60	10.84	10.04	9.110	8.747	8.327	7.847	8.236	7.743	7.848	7.486	7.675	7.382	7.430	6.971	6.897	6.483	5.825	5.814	5.033	4.725	4.147	4.118	3.756	3.455	3.242	3.218	3.056	3.042	2.723	2.589	2.195	1.960	1.850	1.723	1.605	1.534	1.724	2.049	2.074	1.699	1.358	1.298	1.181	1.193	1.211	1.125	1.239	1.318	1.015	0.964	1.136	0.888	0.895	0.867	1.207	2.434	4.709	19.92	58.08
605.0	62.58	57.67	57.81	47.26	38.11	36.75	43.53	46.28	53.61	66.00	111.9	92.87	59.77	46.33	41.58	175.7	586.9	58.80	9.236	8.749	8.020	7.571	7.168	6.596	6.642	6.579	6.486	6.218	6.424	6.364	6.366	5.907	5.842	5.350	4.825	4.739	4.528	4.073	3.588	3.527	3.289	3.217	2.719	2.710	2.612	2.537	2.301	2.124	1.864	1.850	1.627	1.699	1.574	1.420	1.527	1.610	2.093	1.460	1.219	1.026	1.198	1.120	1.004	1.042	1.147	1.388	1.163	1.111	0.962	0.953	0.843	0.717	0.874	1.024	1.574	5.027	24.68
610.0	68.05	61.80	58.64	45.21	40.69	39.81	50.06	57.06	67.34	82.23	112.2	131.7	84.55	63.32	51.73	73.20	397.5	302.4	14.79	7.321	6.620	5.989	5.765	5.747	5.816	5.567	5.549	5.215	5.220	5.093	5.095	4.907	4.515	4.386	4.060	3.864	3.519	3.354	3.183	2.936	2.628	2.564	2.503	2.257	2.175	2.137	1.976	1.879	1.675	1.467	1.435	1.365	1.317	1.166	1.290	1.307	1.618	1.525	1.297	1.139	1.120	1.048	1.104	1.073	1.085	1.164	1.101	1.279	1.048	0.907	0.858	0.765	0.776	0.776	0.878	1.622	6.124
615.0	54.25	56.11	60.51	49.88	39.57	41.94	50.44	60.69	73.50	88.35	107.2	136.1	107.4	68.24	56.76	49.60	140.4	452.2	66.88	6.061	5.365	5.046	4.828	4.925	4.540	4.652	4.333	3.934	4.148	3.887	4.239	4.032	3.465	3.611	3.350	2.899	2.772	2.782	2.457	2.247	2.274	2.076	2.052	2.023	1.767	1.849	1.684	1.649	1.341	1.225	1.190	1.160	1.267	1.070	1.056	1.027	1.154	1.330	1.364	1.209	1.026	0.898	1.013	1.064	1.001	0.969	0.980	1.325	1.193	0.951	0.863	0.791	0.831	0.751	0.642	0.876	1.900
620.0	60.17	55.55	56.82	44.39	38.59	41.65	51.38	58.91	72.47	84.82	99.01	119.7	115.7	71.01	57.14	41.27	60.93	325.3	244.1	6.919	4.961	4.414	4.072	3.885	3.787	3.765	3.498	3.286	3.710	3.715	3.354	3.283	3.251	2.904	2.596	2.562	2.409	2.366	2.165	1.921	1.897	1.730	1.892	1.541	1.560	1.471	1.415	1.384	1.152	1.103	1.010	0.961	0.945	0.963	0.975	0.942	0.928	1.099	1.249	1.174	0.983	0.929	0.835	1.007	0.906	0.965	0.939	1.084	1.149	1.046	0.884	0.766	0.760	0.658	0.644	0.656	0.788
625.0	57.74	56.65	55.56	42.75	38.94	39.91	48.08	57.07	67.04	83.47	92.10	105.7	120.9	74.86	55.11	38.93	41.20	143.9	389.7	24.77	4.734	4.036	3.861	3.419	3.476	3.043	3.076	3.069	3.511	3.286	3.005	2.901	2.984	2.432	2.292	2.226	2.179	2.052	1.922	1.736	1.706	1.451	1.404	1.552	1.240	1.185	1.274	1.131	0.960	0.997	0.970	0.879	0.946	0.901	0.857	0.853	0.813	1.000	1.026	1.210	0.947	0.877	0.819	0.914	0.898	1.004	0.955	1.006	1.146	1.056	0.852	0.764	0.747	0.706	0.750	0.643	0.575
630.0	53.67	56.63	53.42	43.46	37.67	38.64	45.99	55.24	64.49	76.66	88.14	95.62	109.0	83.71	55.60	37.32	36.28	51.76	284.8	158.8	6.319	3.366	3.114	2.898	2.914	2.798	2.635	2.619	2.764	2.507	2.400	2.443	2.384	1.910	2.008	1.776	1.741	1.657	1.505	1.564	1.494	1.186	1.205	1.237	1.216	1.101	1.082	1.099	0.898	0.862	0.820	0.809	0.817	0.780	0.812	0.703	0.749	0.859	0.989	0.964	0.940	0.843	0.840	0.872	0.793	0.933	0.886	0.916	0.976	1.011	0.898	0.805	0.690	0.725	0.613	0.677	0.607
635.0	52.79	59.27	54.35	46.97	38.21	40.54	45.68	55.72	60.41	76.41	89.02	88.84	94.13	93.31	57.24	39.05	35.35	28.73	91.25	312.5	39.94	2.915	2.646	2.509	2.426	2.212	2.177	2.128	2.248	2.074	2.049	1.883	1.756	1.601	1.664	1.503	1.460	1.367	1.262	1.282	1.139	1.005	1.055	1.102	1.009	1.028	0.932	0.948	0.889	0.738	0.732	0.714	0.694	0.668	0.725	0.589	0.768	0.727	0.724	0.817	0.895	0.820	0.721	0.834	0.831	0.877	0.787	0.880	1.011	0.858	0.838	0.967	0.691	0.813	0.646	0.710	0.561
640.0	54.36	54.47	56.94	47.23	37.79	35.36	44.47	50.30	59.38	72.95	82.64	87.31	85.59	92.27	63.31	39.49	36.67	23.67	28.72	250.0	145.6	3.319	2.510	2.207	2.482	1.791	2.039	1.933	2.013	1.793	1.705	1.618	1.486	1.542	1.344	1.284	1.233	1.200	1.122	1.138	0.961	0.957	0.943	0.897	0.850	0.830	0.865	0.822	0.762	0.651	0.602	0.551	0.656	0.631	0.673	0.573	0.661	0.698	0.658	0.732	0.901	0.898	0.716	0.780	0.780	0.783	0.824	0.916	0.884	0.862	0.907	0.806	0.793	0.697	0.701	0.690	0.583
645.0	55.11	52.03	59.05	49.34	36.83	34.12	42.66	51.62	56.57	69.92	80.79	85.08	81.45	84.55	69.20	41.16	36.70	22.78	14.17	115.3	264.6	12.57	2.303	2.180	2.022	1.859	1.722	1.741	1.574	1.555	1.389	1.576	1.451	1.403	1.122	1.226	1.097	1.075	1.050	0.919	0.892	0.918	0.746	0.846	0.780	0.732	0.729	0.714	0.774	0.638	0.548	0.642	0.561	0.532	0.612	0.600	0.655	0.574	0.626	0.655	0.653	0.759	0.825	0.763	0.791	0.777	0.812	0.773	0.758	0.824	0.892	0.766	0.879	0.690	0.747	0.640	0.575
650.0	58.24	63.74	56.59	51.31	40.17	34.53	42.37	50.36	54.37	67.96	77.44	79.11	75.00	75.32	75.75	42.34	36.07	22.74	11.21	38.78	270.1	55.10	2.208	1.950	1.713	1.674	1.591	1.498	1.417	1.435	1.451	1.561	1.252	1.193	1.072	1.062	1.041	0.892	0.901	0.917	0.796	0.813	0.780	0.807	0.757	0.662	0.634	0.696	0.679	0.615	0.574	0.588	0.522	0.538	0.626	0.616	0.620	0.612	0.574	0.622	0.622	0.663	0.795	0.758	0.722	0.691	0.759	0.730	0.787	0.734	0.786	0.685	0.848	0.801	0.620	0.629	0.510
