Sample:	'1
File name:	T2025041702 279ÏçµÀ.FD3
Run date:	'09:58:10, 04/21/2025
Operator:	Administrator
Comment:	'

Instrument
Model:	F-2700 FL Spectrophotometer
Serial number:	23B8-004
ROM Version:	4J14000 07

Instrument parameters
Measurement type:	3-D scan
Data mode:	Fluorescence
EX  Start WL:	220.0 nm
EX  End WL:	600.0 nm
EX Sampling interval:	5.0 nm
EM  Start WL:	230.0 nm
EM  End WL:	650.0 nm
EM Sampling interval:	5.0 nm
Scan speed:	12000 nm/min
EX Slit:	5.0 nm
EM Slit:	5.0 nm
PMT Voltage:	700 V
Response:	Auto 
Corrected spectra:	Off
Contour interval:	50.000

Peak integration
Integration method:	Rectangular
Sensitivity:	1
Threshold:	1.000

Peaks
No.	ApexEX/EM(nm)	Height(Data)
1	225.0/300.0	529.1
2	225.0/585.0	53.23
3	225.0/620.0	36.12
4	230.0/345.0	1210
5	230.0/500.0	293.1
6	230.0/575.0	56.05
7	230.0/625.0	37.03
8	235.0/510.0	274.7
9	240.0/265.0	351.0
10	240.0/525.0	240.4
11	245.0/270.0	361.8
12	245.0/535.0	195.8
13	250.0/275.0	434.3
14	250.0/545.0	161.6
15	255.0/280.0	582.6
16	255.0/560.0	133.9
17	260.0/285.0	598.1
18	260.0/570.0	110.2
19	265.0/585.0	110.7
20	270.0/300.0	994.6
21	270.0/595.0	95.06
22	275.0/305.0	1180
23	275.0/340.0	917.7
24	275.0/610.0	85.33
25	280.0/310.0	1052
26	280.0/345.0	914.7
27	280.0/625.0	70.95
28	285.0/315.0	952.9
29	285.0/635.0	55.14
30	290.0/325.0	916.4
31	305.0/345.0	614.5
32	315.0/355.0	485.1
33	320.0/365.0	459.1
34	330.0/375.0	421.0
35	335.0/380.0	409.1
36	430.0/505.0	30.92
37	445.0/525.0	17.94
38	460.0/545.0	9.374
39	465.0/345.0	3.151
40	505.0/275.0	2.837
41	510.0/280.0	3.069
42	520.0/285.0	3.610
43	530.0/290.0	3.599
44	540.0/295.0	4.896
45	545.0/300.0	5.269
46	555.0/305.0	5.672
47	560.0/310.0	5.224
48	570.0/315.0	5.205
49	580.0/320.0	5.000
50	585.0/325.0	5.163

Data points
	220.0	225.0	230.0	235.0	240.0	245.0	250.0	255.0	260.0	265.0	270.0	275.0	280.0	285.0	290.0	295.0	300.0	305.0	310.0	315.0	320.0	325.0	330.0	335.0	340.0	345.0	350.0	355.0	360.0	365.0	370.0	375.0	380.0	385.0	390.0	395.0	400.0	405.0	410.0	415.0	420.0	425.0	430.0	435.0	440.0	445.0	450.0	455.0	460.0	465.0	470.0	475.0	480.0	485.0	490.0	495.0	500.0	505.0	510.0	515.0	520.0	525.0	530.0	535.0	540.0	545.0	550.0	555.0	560.0	565.0	570.0	575.0	580.0	585.0	590.0	595.0	600.0
230.0	24.60	465.1	1655	670.3	34.40	3.824	3.018	2.705	2.033	1.946	1.885	1.956	1.673	1.377	1.224	0.957	0.872	0.883	0.628	0.607	0.583	0.479	0.486	0.446	0.410	0.428	0.357	0.293	0.348	0.298	0.275	0.274	0.209	0.195	0.188	0.202	0.191	0.233	0.198	0.177	0.178	0.245	0.215	0.190	0.168	0.141	0.427	2.381	5.302	4.721	2.003	0.449	0.126	0.108	0.103	0.108	0.115	0.103	0.096	0.100	0.110	0.093	0.078	0.108	0.082	0.071	0.084	0.079	0.089	0.085	0.099	0.088	0.080	0.084	0.086	0.103	0.077
235.0	68.89	139.5	964.6	2065	576.5	61.04	5.107	3.398	2.830	2.720	1.848	1.855	1.773	1.689	1.232	0.936	0.941	0.988	0.699	0.688	0.790	0.536	0.552	0.447	0.360	0.332	0.303	0.367	0.292	0.343	0.358	0.267	0.212	0.175	0.183	0.191	0.242	0.279	0.183	0.157	0.188	0.182	0.241	0.332	0.292	0.200	0.284	0.674	1.883	3.858	6.292	8.110	4.072	0.870	0.150	0.077	0.116	0.116	0.099	0.085	0.132	0.088	0.058	0.086	0.076	0.113	0.094	0.083	0.083	0.077	0.095	0.088	0.072	0.074	0.077	0.129	0.095
240.0	106.5	106.0	289.1	1541	2472	464.4	35.58	3.641	3.580	2.929	2.401	2.837	2.187	1.794	1.359	1.010	0.853	0.910	0.679	0.741	0.707	0.491	0.609	0.481	0.443	0.376	0.340	0.391	0.353	0.292	0.283	0.324	0.269	0.201	0.216	0.197	0.206	0.226	0.266	0.166	0.209	0.137	0.188	0.227	0.372	0.374	0.377	0.317	0.566	1.107	2.981	8.425	11.60	9.097	3.498	0.544	0.187	0.118	0.148	0.097	0.107	0.108	0.077	0.074	0.064	0.112	0.088	0.095	0.060	0.106	0.109	0.077	0.094	0.084	0.125	0.080	0.137
245.0	77.30	181.9	134.8	488.5	2292	2700	356.3	17.05	4.694	3.735	2.974	2.867	2.379	1.791	1.368	1.279	0.993	0.863	0.735	0.607	0.719	0.583	0.648	0.478	0.394	0.437	0.285	0.411	0.299	0.264	0.326	0.257	0.191	0.199	0.234	0.224	0.271	0.271	0.177	0.174	0.217	0.169	0.221	0.245	0.221	0.434	0.582	0.638	0.451	0.373	0.802	2.599	6.918	12.79	14.99	8.453	2.702	0.264	0.100	0.110	0.146	0.111	0.112	0.076	0.109	0.097	0.096	0.092	0.071	0.133	0.093	0.065	0.091	0.107	0.093	0.066	0.065
250.0	32.59	116.2	227.9	213.8	689.7	2198	3196	1258	89.17	5.978	3.943	3.249	2.570	2.075	1.696	1.336	1.249	1.094	0.919	0.879	0.679	0.784	0.656	0.456	0.510	0.453	0.457	0.350	0.363	0.347	0.311	0.215	0.221	0.242	0.241	0.210	0.261	0.221	0.182	0.236	0.212	0.227	0.175	0.211	0.184	0.264	0.328	0.556	0.767	0.657	0.559	0.792	1.765	3.785	7.442	12.05	16.70	15.51	9.122	2.826	0.377	0.140	0.126	0.098	0.110	0.106	0.116	0.109	0.104	0.119	0.125	0.108	0.084	0.099	0.095	0.072	0.080
255.0	19.07	40.26	144.3	315.7	267.7	544.7	1978	4837	1803	106.8	6.486	5.331	3.672	3.117	1.801	1.711	1.515	1.287	1.035	0.887	0.739	0.764	0.565	0.626	0.608	0.501	0.554	0.461	0.324	0.351	0.341	0.362	0.292	0.294	0.246	0.247	0.195	0.171	0.254	0.230	0.225	0.260	0.165	0.240	0.229	0.184	0.205	0.273	0.372	0.645	1.138	1.191	0.844	1.054	1.853	2.909	5.164	11.92	24.57	27.21	15.49	3.265	0.304	0.148	0.134	0.121	0.126	0.145	0.103	0.111	0.147	0.129	0.089	0.134	0.129	0.098	0.073
260.0	17.43	21.74	57.92	238.3	349.5	198.1	551.3	3246	5846	1442	54.82	6.574	4.209	3.701	2.338	2.052	1.707	1.278	1.158	0.863	0.719	0.876	0.737	0.639	0.573	0.569	0.535	0.426	0.414	0.384	0.349	0.377	0.327	0.281	0.273	0.281	0.223	0.240	0.176	0.218	0.204	0.233	0.175	0.244	0.203	0.158	0.213	0.199	0.192	0.289	0.684	1.304	1.724	1.035	0.732	0.773	1.371	3.121	9.301	21.33	34.36	26.70	12.43	1.881	0.241	0.119	0.163	0.159	0.111	0.138	0.119	0.100	0.126	0.107	0.091	0.092	0.089
265.0	22.20	18.45	24.97	104.4	351.0	286.4	165.9	981.1	4858	6374	235.1	22.50	6.449	4.794	3.295	2.380	1.731	1.587	1.432	1.029	0.834	0.795	0.739	0.588	0.528	0.532	0.468	0.431	0.449	0.486	0.350	0.366	0.224	0.334	0.290	0.319	0.251	0.304	0.153	0.198	0.218	0.203	0.266	0.236	0.211	0.194	0.187	0.188	0.182	0.167	0.255	0.634	1.374	1.817	1.517	0.721	0.527	0.956	2.281	5.831	15.83	31.21	42.02	24.04	8.027	0.737	0.223	0.191	0.141	0.157	0.142	0.115	0.103	0.126	0.140	0.124	0.128
270.0	41.75	42.42	37.84	46.15	152.7	361.8	300.3	282.0	1392	4665	6823	2643	66.99	6.984	4.646	3.317	2.262	2.060	1.605	1.310	0.991	0.927	0.829	0.773	0.663	0.597	0.586	0.502	0.504	0.475	0.390	0.370	0.382	0.384	0.340	0.322	0.291	0.354	0.167	0.231	0.238	0.262	0.225	0.269	0.280	0.288	0.253	0.211	0.220	0.217	0.220	0.307	0.492	0.856	1.447	1.839	1.736	1.031	0.867	1.540	3.829	8.438	17.54	27.89	30.52	34.61	16.31	7.026	0.741	0.205	0.207	0.154	0.160	0.157	0.133	0.132	0.146
275.0	103.9	117.9	116.1	68.21	64.80	144.0	434.3	356.1	370.5	1127	3524	9694	1290	71.07	7.981	5.075	3.471	2.921	2.101	1.600	1.226	1.088	1.030	0.875	0.805	0.721	0.769	0.638	0.629	0.562	0.521	0.471	0.513	0.434	0.489	0.377	0.380	0.322	0.211	0.305	0.321	0.274	0.280	0.330	0.417	0.361	0.469	0.359	0.336	0.387	0.275	0.306	0.324	0.367	0.529	0.879	1.499	2.837	2.270	1.091	1.206	2.180	4.284	6.558	8.681	19.46	42.66	56.76	25.95	7.700	0.543	0.226	0.177	0.153	0.198	0.146	0.156
280.0	159.7	205.1	188.7	115.2	60.63	67.89	251.4	582.6	287.4	328.9	968.0	5586	9702	971.9	37.64	6.727	4.639	3.166	2.474	1.978	1.446	1.222	1.002	0.799	0.895	0.737	0.658	0.742	0.677	0.588	0.497	0.569	0.603	0.473	0.499	0.527	0.354	0.325	0.298	0.387	0.368	0.337	0.318	0.418	0.429	0.581	0.621	0.648	0.617	0.577	0.467	0.412	0.294	0.255	0.306	0.439	0.644	1.698	3.069	3.040	1.776	0.935	1.422	1.873	2.360	4.983	13.23	33.44	55.31	33.74	20.74	3.889	0.308	0.219	0.217	0.175	0.198
285.0	231.2	299.6	283.1	177.2	74.87	56.65	117.0	438.2	598.1	246.6	343.4	1594	7280	8020	656.7	15.11	5.834	3.552	2.553	2.104	1.798	1.525	1.190	0.951	1.040	0.802	0.645	0.876	0.581	0.584	0.564	0.548	0.662	0.520	0.626	0.587	0.504	0.518	0.361	0.431	0.315	0.358	0.338	0.406	0.592	0.731	0.708	0.838	0.856	0.755	0.558	0.489	0.423	0.312	0.344	0.366	0.442	0.725	1.479	2.851	3.610	2.339	1.185	1.042	1.191	1.771	3.635	8.512	20.20	39.68	61.61	30.97	14.08	1.515	0.279	0.245	0.169
290.0	295.9	399.1	398.8	238.2	115.4	79.89	101.7	212.9	530.7	635.3	364.6	558.3	2037	5747	7155	2198	36.30	6.086	3.971	2.881	2.246	1.657	1.476	1.227	0.892	0.991	0.898	0.848	0.656	0.684	0.664	0.535	0.633	0.605	0.694	0.649	0.596	0.623	0.474	0.486	0.408	0.499	0.388	0.535	0.707	0.869	0.943	1.267	1.094	1.014	0.699	0.682	0.539	0.488	0.367	0.414	0.462	0.541	0.800	1.268	2.087	3.092	3.599	3.054	1.831	1.472	1.839	2.913	5.487	10.41	21.23	30.90	44.21	40.35	20.70	10.30	1.773
295.0	359.7	465.9	480.3	301.4	165.4	122.5	134.0	183.4	315.5	652.7	860.3	487.2	715.9	1466	3409	8610	718.4	38.75	6.003	3.761	2.722	2.306	1.692	1.369	1.080	1.031	0.963	0.868	0.691	0.788	0.687	0.627	0.626	0.690	0.820	0.673	0.574	0.646	0.541	0.449	0.502	0.534	0.552	0.630	0.854	0.957	0.941	1.416	1.213	1.153	0.922	0.866	0.647	0.648	0.626	0.566	0.634	0.623	0.848	1.151	1.277	1.577	2.266	3.877	4.896	3.484	2.143	2.084	2.625	3.499	5.695	7.842	11.37	17.74	37.95	59.38	32.27
300.0	374.2	529.1	506.8	345.9	202.7	171.1	180.0	226.2	308.4	492.2	994.6	818.9	513.3	552.6	964.0	4847	7725	572.1	18.57	5.380	3.534	2.777	2.097	1.526	1.364	1.216	1.115	0.862	0.689	0.783	0.653	0.799	0.717	0.691	0.829	0.760	0.646	0.607	0.638	0.455	0.509	0.511	0.631	0.587	0.833	1.044	1.155	1.484	1.301	1.231	0.974	0.910	0.774	0.746	0.707	0.763	0.822	0.823	0.976	1.238	1.428	1.501	1.718	2.354	3.933	5.269	4.611	3.211	2.396	2.386	2.548	2.812	3.597	4.846	10.93	27.66	50.87
305.0	361.5	524.1	535.4	373.8	236.4	206.6	230.0	282.5	362.0	482.7	805.8	1180	687.2	423.2	399.9	1363	5936	5127	78.60	9.272	4.221	3.082	2.451	1.781	1.516	1.220	1.110	0.811	0.794	0.698	0.647	0.853	0.771	0.678	0.813	0.747	0.770	0.655	0.622	0.685	0.552	0.637	0.635	0.665	0.896	1.064	1.223	1.459	1.484	1.357	1.120	1.054	1.000	0.839	0.912	0.938	0.955	1.062	1.361	1.320	1.577	1.782	1.943	2.435	3.062	3.920	5.606	5.672	4.037	2.822	2.050	2.146	1.949	2.037	3.329	7.117	16.24
310.0	383.4	526.3	537.8	406.5	267.3	239.2	275.4	334.3	419.9	523.4	689.6	975.9	1052	591.4	344.2	445.7	1636	4343	5002	1438	22.97	4.797	3.163	2.219	1.789	1.493	1.261	1.009	0.895	0.799	0.714	0.763	0.737	0.687	0.707	0.839	0.706	0.690	0.654	0.617	0.667	0.692	0.536	0.691	0.820	1.077	1.188	1.438	1.585	1.412	1.219	1.149	1.192	0.998	0.947	1.001	1.195	1.285	1.515	1.590	1.776	2.083	2.303	2.477	2.821	3.048	3.784	4.707	5.224	5.155	3.808	2.637	1.982	1.853	1.793	2.412	4.350
315.0	401.1	521.4	559.4	426.5	307.5	279.7	317.1	379.7	467.6	577.9	700.3	810.9	918.9	952.9	491.3	292.4	491.6	1071	2768	6363	504.9	21.37	4.535	2.942	2.189	1.719	1.381	1.324	1.156	0.906	0.817	0.815	0.674	0.671	0.763	0.820	0.741	0.702	0.628	0.663	0.522	0.542	0.581	0.729	0.851	1.078	1.236	1.488	1.516	1.431	1.141	1.385	1.228	1.108	1.131	1.191	1.449	1.528	1.607	1.715	1.842	2.254	2.408	2.641	2.806	3.316	3.249	3.793	3.726	4.389	5.205	4.987	3.366	2.300	1.897	1.495	1.737
320.0	408.5	584.3	634.8	475.8	355.1	320.9	355.9	418.2	509.7	617.8	730.1	801.5	820.2	943.2	783.2	347.9	285.1	355.5	762.1	4063	4195	396.5	10.27	4.122	2.803	2.116	1.594	1.433	1.280	1.204	0.981	0.796	0.817	0.824	0.778	0.689	0.708	0.726	0.667	0.596	0.536	0.546	0.656	0.818	0.859	1.054	1.334	1.580	1.719	1.523	1.290	1.423	1.260	1.122	1.282	1.186	1.552	1.604	1.771	1.855	2.157	2.227	2.609	2.616	2.781	3.230	3.361	3.639	3.466	3.610	4.117	4.936	5.000	4.007	2.454	1.960	1.557
325.0	451.4	700.0	777.0	577.9	406.7	358.7	381.4	443.2	534.6	650.5	770.7	830.2	821.5	804.0	916.4	535.1	285.8	228.6	265.3	1172	4513	3663	57.64	6.471	3.667	2.761	2.180	1.639	1.452	1.187	1.014	0.835	0.793	0.874	0.763	0.689	0.700	0.883	0.639	0.605	0.587	0.674	0.707	0.784	0.932	1.238	1.483	1.936	2.243	1.947	1.613	1.601	1.439	1.271	1.300	1.313	1.676	1.704	1.927	1.875	1.993	2.524	2.586	3.153	3.136	3.295	3.573	3.602	3.541	3.686	3.600	4.044	4.531	5.163	3.870	2.573	1.958
330.0	506.5	799.9	977.2	778.7	517.6	410.3	417.2	470.8	566.9	678.9	807.5	871.4	868.5	778.6	778.3	725.0	464.9	257.4	190.6	355.1	1308	3472	3830	1010	17.20	3.607	2.756	1.843	1.651	1.396	1.114	0.967	0.845	0.868	0.803	0.756	0.702	0.734	0.642	0.671	0.683	0.684	0.735	0.845	1.029	1.380	1.799	2.425	2.676	2.515	2.233	2.236	2.070	1.602	1.582	1.476	1.818	1.724	1.986	2.212	2.265	2.478	2.808	3.132	3.234	3.478	3.685	3.694	3.872	4.048	3.740	3.843	3.813	4.030	4.353	4.120	3.515
335.0	537.6	870.8	1122	939.7	619.1	478.7	461.9	514.6	594.4	711.9	838.1	907.4	900.0	819.0	745.0	657.8	681.8	413.5	225.7	209.7	372.5	850.9	2503	4993	404.6	16.76	3.764	2.659	1.878	1.555	1.231	1.180	1.078	0.809	0.876	0.848	0.776	0.750	0.653	0.680	0.779	0.649	0.812	0.904	1.171	1.574	2.043	2.729	2.877	3.005	2.503	2.492	2.335	2.081	1.841	1.664	1.917	1.985	2.091	2.281	2.312	2.747	3.049	3.141	3.411	3.587	3.684	4.003	4.038	4.231	3.913	3.942	3.863	3.827	3.567	3.445	3.695
340.0	539.0	929.3	1182	1037	703.3	513.0	493.5	521.8	606.7	719.9	846.8	917.7	914.1	841.1	762.1	629.0	642.6	588.7	300.9	207.0	189.1	255.4	685.8	3566	3410	323.9	7.387	3.180	2.357	1.836	1.482	1.232	1.102	0.816	0.902	0.814	0.699	0.796	0.757	0.667	0.683	0.701	0.690	0.829	1.178	1.751	2.051	2.626	2.881	3.021	2.710	2.840	2.550	2.358	1.897	1.883	1.877	2.056	2.160	2.323	2.594	2.684	2.821	3.362	3.586	3.454	3.738	4.009	4.253	4.316	4.246	4.001	3.965	3.833	3.476	3.367	3.173
345.0	564.7	925.7	1210	1085	747.5	564.9	512.1	545.9	618.6	718.1	835.4	901.8	914.7	846.0	768.7	631.8	560.9	614.5	437.8	237.4	167.5	143.3	211.6	1061	3963	2979	48.72	5.168	2.976	2.313	1.596	1.270	1.107	0.932	0.838	0.797	0.806	0.645	0.728	0.657	0.742	0.629	0.720	0.908	1.087	1.660	2.068	2.689	2.999	3.151	2.815	2.975	2.807	2.415	2.103	1.974	2.080	2.146	2.153	2.403	2.554	2.625	2.821	3.182	3.327	3.489	3.740	4.059	3.910	3.953	4.059	4.055	3.784	4.005	3.556	3.406	3.131
350.0	530.9	882.1	1177	1087	776.5	609.9	545.9	555.9	627.0	704.4	808.5	872.9	883.9	823.7	772.6	651.2	559.1	519.4	510.3	378.3	212.5	151.2	133.0	296.8	1180	2943	3028	748.0	14.06	3.007	2.062	1.471	1.288	1.051	0.899	0.885	0.762	0.648	0.721	0.650	0.641	0.740	0.761	0.921	1.066	1.533	1.936	2.509	2.963	2.992	2.855	3.007	2.816	2.517	2.249	2.299	2.193	2.105	2.252	2.470	2.487	2.579	2.876	3.289	3.464	3.620	3.655	3.943	3.761	3.955	3.978	3.971	3.951	4.136	3.755	3.370	3.314
355.0	490.5	795.2	1071	1030	809.0	661.4	582.9	589.2	640.1	708.2	781.7	839.5	855.9	809.3	770.9	664.6	575.4	506.8	456.5	485.1	344.2	200.1	150.4	153.5	320.3	719.7	2108	3314	358.4	13.83	2.978	1.947	1.637	1.142	1.000	0.906	0.741	0.793	0.664	0.565	0.676	0.658	0.713	0.830	1.029	1.364	1.921	2.379	2.829	2.819	2.707	3.048	3.012	2.591	2.470	2.349	2.441	2.338	2.466	2.368	2.742	2.670	2.954	3.235	3.415	3.449	3.451	3.713	3.865	3.913	3.912	3.973	3.646	3.972	4.101	3.602	3.514
360.0	443.9	750.8	1019	1012	812.0	673.7	612.0	605.7	651.5	701.1	767.3	815.8	833.0	787.3	763.2	673.7	593.4	522.0	450.8	452.4	454.7	275.0	180.6	145.7	147.6	208.1	581.4	2806	3035	290.0	6.647	2.611	1.685	1.371	1.097	0.864	0.832	0.767	0.594	0.639	0.659	0.699	0.787	0.721	0.937	1.326	1.787	2.381	2.597	2.639	2.624	3.094	2.897	2.429	2.693	2.290	2.516	2.464	2.307	2.638	2.734	2.609	3.038	3.167	3.405	3.402	3.476	3.549	3.857	3.733	4.004	3.786	3.662	3.757	3.936	3.448	3.488
365.0	473.8	724.5	986.0	970.8	841.4	690.0	632.8	625.6	658.0	705.8	758.0	801.4	812.1	771.3	751.8	676.5	606.7	539.9	471.7	432.7	459.1	383.3	230.3	166.2	129.4	113.4	175.0	862.0	3420	2668	45.10	4.115	2.397	1.553	1.297	1.145	0.880	0.805	0.716	0.685	0.653	0.733	0.767	0.791	0.940	1.209	1.604	2.113	2.386	2.381	2.495	3.045	2.959	2.733	2.565	2.436	2.666	2.465	2.400	2.811	2.777	2.833	2.908	3.059	3.374	3.366	3.303	3.595	3.732	3.601	3.782	3.691	3.542	3.810	3.756	3.564	3.638
370.0	433.1	692.1	912.5	947.0	832.5	726.6	655.0	642.0	667.7	705.8	742.0	775.4	784.6	751.6	738.9	670.5	618.0	562.3	502.5	454.4	426.2	428.1	354.4	223.6	160.3	119.1	103.9	236.8	1032	2665	2724	195.6	12.18	2.443	1.671	1.214	0.949	0.845	0.724	0.697	0.656	0.691	0.724	0.784	0.877	1.220	1.524	1.999	2.320	2.297	2.377	3.078	2.927	2.777	2.612	2.630	2.633	2.597	2.468	2.688	2.824	2.888	3.029	3.076	3.287	3.347	3.266	3.258	3.577	3.539	3.653	3.808	3.741	3.854	3.715	3.661	3.680
375.0	409.8	645.7	853.8	920.5	844.1	742.0	690.1	660.1	680.3	697.7	735.5	756.0	760.2	722.5	725.5	667.1	625.2	582.1	531.3	487.1	434.8	401.5	421.0	336.8	212.4	152.5	115.0	119.7	275.1	656.7	2003	2875	308.7	11.73	2.275	1.559	1.218	0.912	0.860	0.744	0.645	0.773	0.654	0.859	0.911	1.093	1.581	1.906	2.156	2.196	2.245	2.690	2.829	2.663	2.642	2.620	2.778	2.627	2.597	2.588	2.704	2.945	2.906	2.968	3.164	3.367	3.242	3.286	3.328	3.304	3.300	3.572	3.692	3.790	3.599	3.701	3.680
380.0	402.5	623.1	798.1	899.9	841.8	748.7	709.2	666.7	675.4	703.4	721.0	748.7	751.8	706.8	712.0	663.4	626.7	589.2	547.2	505.9	450.7	407.6	399.5	409.1	276.6	182.0	138.1	110.8	120.0	186.3	563.0	2532	2576	236.4	4.970	2.210	1.472	1.092	0.941	0.881	0.643	0.811	0.736	0.846	0.865	1.026	1.443	1.717	2.228	2.185	2.201	2.702	2.928	2.855	2.968	2.728	2.854	2.887	2.786	2.518	2.816	2.954	2.977	2.866	3.014	3.112	3.200	3.167	3.415	3.381	3.455	3.827	3.451	3.485	3.616	3.538	3.802
385.0	383.0	623.0	789.0	859.6	821.9	762.9	701.8	674.6	677.5	695.6	714.5	726.5	735.5	687.7	693.2	648.5	625.0	590.3	551.4	516.8	467.7	426.1	387.4	402.8	361.3	227.7	164.3	126.0	100.4	94.15	163.1	782.5	2807	2164	37.16	3.400	1.775	1.299	1.055	0.908	0.766	0.768	0.889	0.861	0.819	1.053	1.427	1.741	2.050	2.210	2.277	2.669	2.872	2.909	2.992	2.791	2.926	2.719	2.814	2.758	2.991	2.820	2.936	2.946	3.111	3.011	2.973	3.197	3.496	3.455	3.390	3.548	3.470	3.549	3.487	3.498	3.700
390.0	367.0	611.8	783.3	848.0	833.1	767.9	713.6	684.9	679.1	687.7	701.5	705.7	710.7	665.3	674.0	633.5	614.9	587.2	559.4	524.9	486.5	445.0	406.2	381.5	375.7	320.1	217.4	159.3	123.2	95.74	89.45	211.3	830.5	2030	2026	530.6	11.19	1.947	1.271	1.032	0.880	0.792	0.811	0.835	0.890	1.139	1.270	1.743	2.110	2.085	2.100	2.672	2.820	2.880	2.898	2.643	2.910	2.827	2.878	2.739	2.904	2.996	2.923	3.122	2.968	2.971	2.837	3.052	3.186	3.350	3.228	3.314	3.199	3.501	3.391	3.459	3.550
395.0	363.1	577.0	739.2	826.1	810.4	775.1	725.7	684.1	675.9	671.1	681.1	692.5	685.1	652.5	652.3	619.9	596.5	576.4	556.8	524.1	490.0	459.4	425.1	392.6	361.1	361.4	306.8	210.6	157.8	122.8	95.15	98.48	218.8	495.4	1398	2349	262.9	11.58	2.022	1.253	1.023	0.993	0.910	0.929	0.951	1.148	1.326	1.688	1.915	2.038	2.087	2.540	2.673	2.925	2.737	2.750	2.928	2.736	2.864	2.935	2.896	2.928	2.828	2.774	2.808	2.880	3.021	3.124	3.176	3.227	3.150	3.200	3.186	3.444	3.462	3.401	3.232
400.0	355.1	535.3	717.9	807.8	804.5	781.4	741.1	686.5	678.2	671.9	675.3	673.9	675.7	642.0	641.8	602.8	581.9	565.5	546.3	519.6	499.0	470.0	436.9	404.0	368.3	348.2	352.4	266.4	189.5	147.4	113.4	86.85	90.57	139.6	383.9	1755	2105	218.3	5.922	1.619	1.157	1.000	0.931	0.974	1.123	1.222	1.374	1.632	1.928	1.971	1.971	2.538	2.697	2.769	2.766	2.632	2.828	2.778	2.751	2.927	2.904	2.820	2.655	2.730	2.760	3.124	2.708	2.970	3.051	3.049	2.759	3.188	3.249	3.448	3.098	3.465	3.317
405.0	374.2	556.3	706.6	785.0	805.4	767.1	728.7	698.4	672.5	665.6	675.3	671.2	664.2	626.5	620.4	590.6	567.4	553.8	539.2	511.0	492.5	473.3	441.5	412.9	379.2	346.2	344.0	324.5	230.1	171.6	133.9	97.84	74.83	68.05	110.8	512.3	1941	1778	34.52	3.228	1.467	1.208	0.991	0.908	1.086	1.152	1.439	1.638	1.758	1.918	1.996	2.510	2.546	2.862	2.751	2.853	2.779	2.865	2.938	2.962	2.783	2.668	2.696	2.647	2.900	2.857	2.839	2.968	3.007	2.998	2.896	3.206	3.035	3.108	3.339	3.378	3.165
410.0	341.6	534.9	690.6	771.4	783.8	755.3	720.5	700.2	674.8	661.6	657.1	654.3	641.9	606.9	599.6	566.7	544.7	530.2	516.9	498.4	480.5	463.3	442.2	419.1	387.6	356.9	328.7	329.6	293.9	213.4	157.8	117.9	85.64	63.85	58.64	138.1	548.9	1434	1594	481.8	11.13	1.625	1.229	1.104	1.053	1.097	1.266	1.556	1.771	1.838	2.071	2.507	2.656	2.663	2.860	2.582	2.932	2.931	2.934	2.840	2.786	2.768	2.712	2.775	2.747	2.832	2.768	2.720	2.828	2.843	2.960	3.158	2.977	3.154	3.108	3.045	3.256
415.0	329.5	521.7	668.1	742.8	759.1	740.2	696.5	690.0	669.0	658.0	642.8	631.0	619.3	579.4	572.6	532.6	514.7	499.5	484.8	477.4	460.9	449.7	433.4	416.4	393.2	364.0	332.2	310.8	307.1	276.3	188.3	135.4	102.3	73.53	54.67	60.31	142.5	342.9	929.3	1851	250.4	13.31	1.675	1.365	1.164	1.145	1.303	1.649	1.732	1.740	1.906	2.389	2.554	2.738	2.871	2.513	2.849	2.694	2.820	2.730	2.831	2.766	2.795	2.733	2.834	2.806	2.652	2.729	2.811	2.682	2.694	2.776	2.999	2.918	3.301	2.749	2.856
420.0	330.8	474.9	662.8	728.9	755.1	732.2	700.4	677.5	665.3	648.1	633.1	611.6	599.7	554.4	549.0	500.5	486.9	474.8	462.6	454.3	441.2	431.6	420.6	408.9	387.6	366.9	335.0	303.6	291.0	290.4	224.5	152.2	112.1	83.21	59.74	47.88	55.44	92.23	241.5	1166	1689	217.2	6.515	1.687	1.318	1.331	1.390	1.562	1.837	1.792	2.036	2.286	2.526	2.496	2.795	2.495	2.821	2.608	2.817	2.790	2.915	2.702	2.679	2.682	2.585	2.834	2.747	2.629	2.802	2.698	2.649	2.662	2.638	2.788	2.849	2.812	2.932
425.0	305.5	473.4	628.5	704.2	735.4	702.9	693.0	677.1	647.7	629.1	617.4	609.0	578.9	536.5	525.2	488.5	467.0	455.0	441.9	434.4	422.9	416.0	407.5	400.2	381.3	359.2	334.1	305.6	281.3	274.7	256.9	177.4	122.8	92.35	67.28	49.36	40.10	39.35	67.24	318.6	1328	1473	34.23	3.555	1.556	1.391	1.490	1.494	1.697	1.781	1.844	2.300	2.504	2.563	2.499	2.616	2.706	2.616	2.643	2.740	2.862	2.526	2.724	2.778	2.540	2.749	2.783	2.628	2.565	2.494	2.721	2.674	2.531	2.825	2.693	2.783	2.936
430.0	336.9	437.8	598.8	673.8	700.8	690.0	679.9	662.0	635.7	627.7	596.9	584.9	553.8	509.9	501.8	461.5	439.4	429.5	416.8	409.4	398.3	396.6	390.5	381.2	369.8	350.5	330.0	305.1	282.4	260.9	246.7	214.3	147.2	103.9	77.04	58.44	43.77	32.88	31.88	83.31	352.9	993.5	1257	479.2	12.66	1.975	1.556	1.650	1.774	1.795	1.764	2.265	2.390	2.453	2.564	2.433	2.571	2.648	2.676	2.620	2.695	2.401	2.519	2.695	2.449	2.508	2.566	2.423	2.604	2.429	2.591	2.612	2.499	2.405	2.384	2.494	2.663
435.0	431.7	433.8	574.7	640.0	680.6	672.1	664.8	646.8	614.4	614.8	587.8	565.3	535.6	486.8	473.9	438.0	417.7	401.0	395.7	381.0	374.5	372.6	368.2	363.9	358.0	339.3	324.1	303.9	284.0	260.5	230.9	212.8	183.4	124.1	87.36	67.87	51.22	37.66	28.50	33.69	89.91	232.2	594.8	1520	245.2	17.64	1.835	1.726	1.709	1.799	1.669	2.271	2.374	2.219	2.619	2.233	2.627	2.596	2.576	2.690	2.554	2.512	2.577	2.692	2.508	2.605	2.626	2.379	2.514	2.623	2.400	2.294	2.526	2.416	2.366	2.376	2.409
440.0	507.9	461.9	554.9	621.0	647.5	649.9	654.5	627.8	615.5	600.5	568.6	554.6	519.6	467.5	450.8	411.6	392.4	381.4	373.9	364.6	356.1	352.5	352.4	347.6	345.2	330.0	317.3	300.5	279.5	258.5	225.5	199.1	189.9	148.0	98.16	75.70	55.98	41.87	31.34	24.81	33.07	61.52	149.0	818.7	1481	228.6	11.13	1.987	1.953	1.681	1.744	2.212	2.496	2.102	2.480	2.308	2.570	2.637	2.448	2.763	2.425	2.512	2.763	2.769	2.538	2.436	2.412	2.435	2.460	2.481	2.401	2.272	2.489	2.535	2.362	2.298	2.238
445.0	534.3	570.9	530.8	579.7	630.8	641.7	644.3	622.0	605.7	584.2	553.5	539.7	497.1	451.3	431.3	393.9	373.6	359.3	351.1	343.3	337.8	334.4	336.0	331.6	327.5	316.4	305.6	291.1	272.4	253.6	223.2	190.7	174.3	160.5	112.8	80.34	61.01	45.43	34.69	26.29	22.95	25.40	42.60	210.8	987.1	1396	174.6	6.596	2.130	1.798	1.641	1.985	2.078	2.256	2.380	2.353	2.555	2.550	2.473	2.652	2.538	2.679	2.501	2.660	2.489	2.388	2.223	2.286	2.498	2.308	2.254	2.108	2.249	2.234	2.242	2.197	2.059
450.0	393.2	892.9	613.7	548.1	584.3	600.5	598.4	591.5	574.5	557.8	531.4	505.3	468.9	416.7	401.4	363.9	346.4	332.6	321.7	314.6	311.3	307.1	305.9	306.1	303.8	296.9	285.2	273.8	259.0	243.3	216.0	187.2	160.9	148.8	131.4	93.85	67.06	50.43	39.35	29.79	23.55	19.89	20.11	55.07	250.5	779.7	1151	484.1	13.03	2.109	1.799	1.969	2.203	2.125	2.230	2.176	2.400	2.365	2.477	2.470	2.362	2.476	2.410	2.435	2.331	2.293	2.122	2.299	2.301	1.978	2.099	2.058	2.124	2.070	2.133	2.038	2.092
455.0	244.0	882.4	1031	527.3	547.8	557.6	551.7	555.6	537.2	519.4	499.9	476.6	431.1	381.7	365.5	333.7	315.4	303.0	294.3	285.1	278.4	277.9	274.7	276.4	275.1	270.7	261.8	252.7	244.0	228.6	205.8	179.2	152.6	132.5	122.6	111.0	77.95	54.75	43.52	34.07	26.30	20.83	16.64	21.42	63.09	180.3	430.7	1173	675.1	16.61	2.230	2.139	2.165	1.934	2.155	2.149	2.156	2.270	2.278	2.413	2.230	2.255	2.138	1.982	2.212	2.123	2.294	2.115	2.086	1.949	1.936	1.799	1.972	1.910	1.904	1.972	1.902
460.0	197.2	628.9	1455	660.9	514.9	518.4	528.9	521.4	502.8	493.6	475.0	447.9	406.3	355.8	340.3	309.7	291.3	278.1	268.8	261.7	256.8	256.7	254.6	254.3	252.3	250.6	244.4	235.3	226.9	215.6	198.2	172.3	147.3	126.3	110.7	108.9	89.06	59.92	44.75	35.46	28.10	21.98	17.06	15.33	21.99	46.61	104.2	530.2	1250	183.4	12.10	2.296	1.968	1.962	2.145	1.877	2.147	2.102	2.045	2.293	2.193	2.199	2.114	2.012	2.034	1.809	2.019	2.162	1.857	1.967	1.805	1.796	1.692	1.655	1.777	1.834	1.683
465.0	186.9	406.4	1488	949.8	489.2	480.4	496.1	491.7	471.4	462.2	450.4	420.9	380.8	334.3	315.2	286.7	271.1	258.5	249.2	240.0	236.7	234.2	232.5	235.8	232.7	231.8	227.7	220.0	211.7	202.0	187.9	164.2	138.9	120.4	102.6	96.73	93.25	67.34	47.24	37.51	29.27	23.05	18.06	14.93	14.13	17.43	28.89	131.4	703.3	1068	157.2	8.916	2.132	1.971	2.091	1.997	2.030	2.155	2.062	2.126	1.993	2.038	2.056	2.006	1.828	1.888	1.851	1.978	1.887	1.868	1.757	1.799	1.564	1.744	1.701	1.682	1.759
470.0	188.0	293.2	912.7	1646	642.4	448.3	451.2	446.6	432.6	421.8	410.1	383.4	347.4	307.0	285.8	258.2	240.3	232.3	222.2	214.5	211.1	207.4	208.5	207.2	207.3	206.8	202.0	197.4	192.8	184.9	170.7	152.3	130.4	113.3	97.25	84.95	80.59	72.91	54.88	39.17	30.76	25.26	19.48	15.81	13.30	11.93	12.80	34.56	173.2	532.9	792.6	444.1	14.24	2.326	2.042	1.907	1.877	1.823	1.923	1.956	1.898	2.054	1.956	1.850	1.855	1.785	1.765	1.692	1.620	1.661	1.422	1.669	1.503	1.520	1.486	1.628	1.628
475.0	193.2	249.3	456.9	1461	1397	443.7	394.5	397.4	390.8	381.3	369.9	347.0	315.1	272.1	256.3	229.3	216.1	204.2	194.7	189.6	184.0	181.5	183.3	183.1	180.7	181.2	177.1	172.8	171.7	166.0	154.5	139.0	120.7	105.5	89.94	77.54	69.19	66.28	61.50	44.25	32.11	25.52	21.02	16.92	13.98	11.25	10.19	13.36	43.36	123.0	259.8	757.8	513.4	19.29	2.205	1.840	1.698	1.805	1.796	1.868	1.714	1.674	1.814	1.653	1.758	1.558	1.461	1.527	1.481	1.402	1.484	1.458	1.291	1.396	1.398	1.370	1.504
480.0	195.5	244.1	329.9	906.5	1935	577.4	371.3	371.3	370.9	362.6	345.4	311.8	296.1	253.4	234.9	208.7	197.6	188.6	179.4	172.9	168.6	165.3	167.4	167.0	166.0	163.8	162.5	160.3	155.2	153.0	142.9	129.1	115.0	100.3	85.56	72.99	65.18	58.54	59.59	50.06	34.47	26.43	21.74	17.36	14.50	11.70	9.868	9.182	14.92	31.41	62.39	298.7	853.5	204.6	13.85	1.993	1.842	1.622	1.845	1.668	1.644	1.605	1.643	1.661	1.667	1.515	1.421	1.479	1.404	1.410	1.327	1.506	1.330	1.285	1.268	1.381	1.354
485.0	164.4	270.2	296.4	486.0	1865	1137	362.4	343.6	346.1	333.6	324.1	298.6	272.9	237.8	217.3	195.6	180.5	176.2	167.3	160.7	156.1	154.6	153.5	152.7	152.6	154.1	150.5	146.6	143.1	141.9	134.0	122.7	106.9	95.05	82.23	70.26	63.00	55.54	53.33	52.18	38.83	28.06	22.16	18.02	14.96	12.80	10.44	8.908	8.650	11.58	17.48	73.12	440.2	798.7	177.9	7.492	1.986	1.811	1.754	1.651	1.643	1.558	1.397	1.529	1.532	1.355	1.342	1.594	1.241	1.231	1.220	1.331	1.351	1.184	1.127	1.335	1.162
490.0	134.6	243.7	274.6	321.9	1056	1844	583.6	315.9	319.7	305.1	296.5	278.0	251.0	219.1	199.2	179.7	164.9	156.9	149.9	144.1	139.8	137.9	136.7	137.7	138.1	136.9	134.2	133.5	131.7	128.4	120.9	110.3	98.82	88.39	76.63	67.47	58.43	52.04	45.78	45.14	42.99	31.81	23.46	18.88	15.91	13.49	10.91	9.552	7.764	7.289	7.744	19.71	107.1	360.0	660.2	401.7	15.40	2.049	1.623	1.564	1.392	1.533	1.323	1.458	1.499	1.345	1.250	1.305	1.228	1.148	1.147	1.186	1.236	1.102	1.167	1.115	1.107
495.0	115.5	214.8	281.5	263.6	459.0	1621	1376	321.3	286.6	277.6	270.1	251.7	226.3	196.0	176.7	159.3	148.2	139.4	135.0	128.5	122.4	123.2	121.0	120.6	122.6	119.4	118.5	119.3	118.2	114.1	110.3	100.6	90.05	80.43	70.01	63.23	54.63	48.46	41.88	38.52	37.85	36.93	26.46	18.99	16.31	13.91	10.93	10.00	8.026	6.825	5.698	7.908	26.86	83.21	221.7	683.7	542.1	21.53	1.877	1.514	1.474	1.423	1.341	1.418	1.297	1.154	1.335	1.181	0.955	1.198	1.169	1.131	1.073	1.049	1.023	0.967	1.063
500.0	93.78	176.0	293.1	248.0	287.0	936.7	2013	412.4	263.9	256.3	249.0	231.7	209.2	182.4	162.2	146.1	136.8	125.2	122.6	115.3	113.9	109.5	107.6	107.6	110.4	108.2	106.9	106.9	107.7	104.8	99.47	91.96	82.62	74.66	65.17	58.46	51.07	44.90	39.42	33.94	32.65	35.04	30.28	21.03	16.17	14.09	11.11	10.00	8.387	7.228	5.519	5.161	9.330	21.19	52.91	265.3	806.5	226.4	14.88	1.588	1.428	1.389	1.234	1.247	1.178	1.121	1.110	1.037	1.051	1.122	1.140	0.995	0.960	0.905	0.842	0.930	1.002
505.0	88.55	143.2	273.2	254.1	234.7	454.8	2016	987.2	245.1	237.2	227.6	211.4	189.5	163.5	150.9	131.9	120.6	116.5	111.0	106.3	104.8	100.5	98.77	98.99	99.43	96.94	96.85	97.04	97.35	93.80	91.72	85.01	75.82	68.47	60.22	53.92	48.44	42.72	36.79	32.46	28.83	30.33	30.92	23.00	16.67	13.52	11.32	9.863	8.517	7.195	5.397	5.008	5.412	7.416	14.39	64.25	383.4	726.1	187.3	7.160	1.594	1.454	1.161	1.173	1.067	1.083	0.966	0.910	1.047	0.978	0.899	0.925	0.823	0.805	0.795	0.834	0.902
510.0	72.67	116.8	202.4	274.7	212.2	261.1	1085	1865	445.8	209.6	200.1	187.8	168.8	145.7	135.2	117.4	107.0	101.8	97.46	91.39	90.28	87.47	85.98	85.13	86.19	85.47	84.75	84.13	84.30	81.96	79.79	73.70	66.42	61.02	54.58	48.58	43.52	38.22	33.88	29.84	26.05	24.88	26.18	25.50	18.76	13.58	11.03	9.806	8.255	7.320	6.035	5.082	4.315	4.412	5.678	16.61	91.77	316.4	538.5	274.1	14.61	1.643	1.240	1.117	1.134	1.027	0.855	0.874	0.861	0.899	0.877	0.827	0.860	0.733	0.801	0.745	0.790
515.0	59.58	103.5	148.5	253.3	222.2	193.2	401.9	1742	1277	209.4	177.2	164.8	148.0	128.6	117.8	100.5	91.92	88.77	82.77	78.90	77.16	74.87	73.58	74.22	73.66	72.74	73.43	70.52	71.62	71.42	68.56	63.48	58.11	52.87	47.47	42.04	38.48	33.62	30.61	27.05	23.84	21.48	19.95	22.68	21.26	15.35	10.89	9.295	7.918	6.759	5.935	5.244	4.371	3.891	3.799	5.925	22.55	72.54	166.6	510.9	235.4	19.58	1.523	1.052	0.923	0.922	0.745	0.955	0.831	0.785	0.686	0.848	0.745	0.722	0.689	0.612	0.617
520.0	67.93	86.05	124.0	203.0	237.2	163.4	214.6	992.4	2059	287.9	161.3	151.1	134.0	114.3	108.3	90.55	84.49	79.02	75.51	70.41	68.50	67.35	65.62	65.66	66.99	64.95	64.15	63.27	64.61	63.41	61.05	56.92	52.36	47.63	43.22	39.67	34.91	30.84	28.12	25.14	21.69	19.90	17.87	17.90	20.44	16.97	12.04	9.085	7.643	6.397	5.851	4.980	4.497	3.759	3.322	3.667	6.925	18.01	39.36	200.5	537.6	211.0	11.69	1.347	0.921	0.794	0.700	0.803	0.663	0.696	0.579	0.725	0.709	0.653	0.779	0.618	0.658
525.0	55.77	78.32	114.8	160.5	240.4	159.1	159.9	429.2	2179	870.2	149.7	136.3	122.2	102.9	94.26	83.28	78.39	70.51	66.27	62.24	61.42	59.89	58.25	59.39	58.66	58.05	59.40	57.78	58.13	57.07	55.71	50.60	46.99	42.24	38.69	35.28	32.49	27.77	25.20	22.77	20.18	17.97	15.92	15.00	17.43	17.94	13.32	8.836	7.398	6.375	5.275	4.919	4.224	4.032	3.248	2.982	3.643	5.845	10.48	48.23	259.9	524.7	164.1	4.632	0.980	0.764	0.748	0.805	0.629	0.674	0.575	0.595	0.622	0.673	0.533	0.516	0.647
530.0	54.41	68.94	93.60	119.1	196.7	179.6	133.7	199.0	1187	1931	323.5	119.0	107.6	90.33	81.30	70.66	67.48	61.28	58.63	55.19	54.22	51.73	50.24	50.96	50.06	50.41	50.53	49.74	49.74	49.31	47.04	44.52	41.30	37.41	34.21	31.40	28.35	24.82	23.00	20.50	18.34	16.35	14.41	13.40	13.27	15.12	14.38	10.08	7.195	6.031	5.104	4.430	3.871	3.922	3.428	2.798	2.774	3.019	3.901	12.24	62.60	228.5	388.8	135.7	12.86	0.962	0.694	0.682	0.594	0.607	0.486	0.508	0.513	0.532	0.429	0.510	0.505
535.0	47.22	60.82	86.36	95.67	133.7	195.8	120.8	134.8	381.7	1879	1176	117.3	91.13	80.35	69.91	59.87	56.63	53.82	49.38	47.73	44.32	43.79	44.14	43.11	42.94	41.59	41.90	42.22	42.45	41.86	40.58	38.10	35.30	31.89	29.08	26.98	24.10	21.93	19.78	17.89	16.42	14.34	13.00	11.74	10.96	10.81	12.80	11.49	7.888	5.747	4.904	4.184	3.753	3.370	3.561	3.030	2.652	2.494	2.343	4.089	15.05	52.07	121.5	349.1	220.9	16.63	0.718	0.700	0.539	0.512	0.538	0.491	0.408	0.448	0.460	0.485	0.493
540.0	36.69	60.36	73.18	85.52	101.5	175.7	143.9	106.6	165.0	1022	1980	192.5	81.18	71.57	60.59	54.26	49.91	47.47	43.56	41.83	38.97	38.66	36.56	37.97	38.19	36.79	36.42	35.99	36.01	36.18	35.67	32.88	31.66	27.89	25.46	23.76	21.37	19.77	17.64	16.38	14.50	12.83	11.59	10.41	9.538	8.889	10.50	11.16	8.992	5.702	4.411	3.768	3.586	2.937	3.149	3.025	2.577	2.236	2.111	2.275	4.517	12.77	28.60	137.3	389.1	180.4	8.075	0.712	0.637	0.613	0.464	0.421	0.361	0.478	0.450	0.405	0.408
545.0	33.36	59.02	67.70	72.07	82.53	140.7	161.6	94.70	104.7	385.8	2199	659.9	75.82	62.13	55.58	48.13	42.44	41.26	39.24	36.33	35.13	35.04	33.66	33.45	32.59	31.55	32.10	31.64	31.42	31.61	31.13	29.72	27.66	24.43	21.90	20.18	19.43	17.88	15.72	14.44	12.79	11.52	10.55	9.343	8.568	8.047	8.031	9.333	9.374	6.375	4.482	3.808	3.395	2.914	2.646	2.996	2.905	2.081	1.871	1.505	2.099	3.957	7.302	32.90	184.7	378.7	33.04	3.109	0.704	0.576	0.503	0.463	0.352	0.420	0.372	0.386	0.346
550.0	35.64	56.39	67.53	65.51	69.68	93.35	155.8	101.3	80.60	148.5	1104	1707	134.7	51.87	46.60	40.78	36.81	35.09	32.12	30.43	29.25	28.77	27.87	27.37	26.84	26.48	25.96	26.35	26.03	26.42	25.84	23.99	22.29	20.34	18.82	17.71	16.27	14.68	13.32	11.99	10.92	9.604	9.031	8.054	7.486	7.092	6.415	6.644	7.740	7.214	4.705	3.608	3.019	2.624	2.422	2.369	2.514	2.371	1.743	1.423	1.417	1.862	2.594	8.078	44.11	160.1	217.3	125.8	11.26	0.602	0.498	0.399	0.346	0.327	0.352	0.384	0.361
555.0	35.89	53.71	63.38	58.01	55.72	64.86	119.1	129.1	66.63	82.15	319.8	1726	822.2	49.32	38.10	32.84	29.92	28.63	26.59	24.33	23.15	22.50	22.30	22.18	22.16	21.25	21.24	21.05	21.52	21.45	20.57	19.41	18.26	16.80	15.24	14.09	13.43	11.70	11.17	9.887	9.167	8.049	7.504	6.814	6.238	6.215	5.124	4.984	5.309	6.180	5.313	3.549	2.684	2.318	2.105	1.947	2.004	1.905	1.897	1.387	1.272	1.224	1.387	2.437	10.59	36.44	70.15	230.7	172.4	13.30	0.576	0.395	0.351	0.394	0.323	0.347	0.238
560.0	39.98	49.04	60.30	53.11	48.55	52.99	82.73	133.9	66.12	62.24	115.7	889.8	1477	94.97	33.16	28.37	26.45	23.40	22.36	20.36	19.94	19.13	18.69	18.42	17.97	17.96	18.47	17.70	17.89	17.85	17.35	16.73	15.61	13.68	12.75	11.92	11.27	9.884	9.618	8.431	7.858	7.149	6.430	5.738	5.237	5.120	4.299	3.975	3.880	4.977	5.250	3.984	2.506	1.974	1.747	1.835	1.869	1.617	2.037	1.539	1.188	1.037	1.032	1.229	3.048	8.893	16.53	87.74	248.6	120.0	5.564	0.523	0.294	0.335	0.316	0.273	0.258
565.0	46.10	49.36	53.43	48.86	43.44	45.19	55.59	122.6	86.92	54.83	66.99	307.8	1809	388.2	29.20	25.19	23.10	19.66	18.71	17.85	16.95	16.42	15.95	16.10	15.15	15.52	14.98	15.84	15.14	15.32	14.49	14.02	12.86	11.94	11.03	10.23	9.438	8.687	8.229	7.204	6.615	6.327	5.457	5.053	4.818	4.330	3.879	3.444	3.182	3.493	4.411	4.114	2.652	1.950	1.730	1.688	1.646	1.446	1.605	1.729	1.321	0.991	0.947	0.966	1.453	2.611	4.312	21.01	112.7	226.0	32.55	2.031	0.410	0.377	0.204	0.262	0.253
570.0	47.42	52.21	55.85	43.14	40.01	35.81	42.34	83.14	110.2	52.87	50.54	104.8	918.1	1227	73.74	20.37	17.66	16.58	15.13	15.05	13.93	12.93	12.85	12.75	12.51	12.17	12.11	12.30	12.11	12.47	11.50	11.03	10.28	9.507	9.014	8.345	7.649	6.902	6.624	5.736	5.527	5.285	4.671	4.175	3.747	3.453	3.275	2.904	2.672	2.619	3.000	3.582	2.985	2.097	1.561	1.342	1.310	1.196	1.263	1.358	1.483	1.132	0.839	0.857	0.947	1.241	1.616	5.326	26.81	91.29	143.9	84.26	9.434	0.437	0.286	0.321	0.230
575.0	41.61	50.19	56.05	43.56	36.68	30.25	32.57	48.32	108.6	68.57	45.95	55.93	255.6	1284	530.0	19.11	15.49	13.84	12.39	12.01	11.43	10.91	10.72	9.938	9.780	9.794	9.144	9.529	9.453	9.738	9.126	8.415	8.574	7.514	7.541	6.800	6.398	5.620	5.324	4.638	4.053	4.045	3.877	3.368	3.226	3.018	2.761	2.564	2.270	2.160	2.158	2.372	2.819	2.349	1.557	1.219	1.240	1.001	1.100	1.036	1.178	1.260	1.062	0.827	0.727	0.866	0.931	1.702	6.554	20.92	42.99	131.3	105.3	10.04	0.298	0.323	0.237
580.0	39.77	53.02	50.18	43.13	34.28	30.48	27.57	35.38	86.45	95.06	45.37	43.98	84.22	675.1	1047	44.52	13.48	11.82	10.68	10.32	9.349	8.869	9.121	8.253	7.647	8.549	7.648	8.146	8.220	8.051	7.746	7.336	7.006	6.303	6.191	5.558	5.305	4.582	4.314	3.923	3.684	3.354	3.194	2.928	2.825	2.585	2.459	2.219	1.943	1.637	1.754	1.707	2.212	2.125	1.724	1.128	1.143	0.953	0.806	0.890	0.883	1.080	1.248	0.864	0.825	0.840	0.845	0.944	2.031	5.206	10.18	48.05	140.2	35.40	3.849	0.293	0.165
585.0	38.33	53.23	49.75	38.02	31.32	27.45	26.58	30.02	58.25	110.7	51.35	42.41	47.12	228.1	1281	112.1	11.16	10.86	9.181	8.657	8.119	7.658	7.758	7.520	6.887	6.986	6.696	6.852	6.932	6.586	6.474	6.508	5.954	5.538	5.269	4.779	4.541	3.798	3.839	3.592	2.951	2.918	2.696	2.482	2.422	2.359	2.212	1.814	1.731	1.719	1.498	1.419	1.708	2.001	1.781	1.225	0.982	0.949	0.731	0.741	0.851	0.781	1.333	1.019	0.751	0.725	0.832	0.771	1.020	1.675	2.873	11.46	60.10	132.0	30.64	1.701	0.216
590.0	33.74	50.51	48.63	38.34	25.81	23.58	23.40	26.81	38.56	90.40	74.18	41.84	38.09	72.74	641.2	744.8	36.26	8.840	7.330	6.651	6.499	6.119	5.970	5.819	5.841	5.801	5.440	5.548	5.308	5.384	5.275	5.123	4.848	4.529	4.149	3.893	3.563	3.128	3.049	2.861	2.493	2.366	2.167	2.198	1.863	1.907	1.752	1.507	1.465	1.422	1.218	1.151	1.133	1.391	1.612	1.497	0.994	0.855	0.674	0.676	0.690	0.616	0.840	1.015	0.921	0.712	0.719	0.659	0.743	0.834	1.050	2.897	14.15	51.96	85.01	56.80	8.055
595.0	36.38	45.09	46.14	33.70	23.14	20.28	20.93	25.47	31.39	56.62	95.06	45.05	37.24	36.31	171.0	830.8	273.9	7.729	5.811	5.743	5.274	4.836	4.701	4.462	4.484	4.333	4.431	4.617	4.190	4.496	4.222	4.054	3.571	3.531	3.358	3.108	2.924	2.497	2.397	2.392	2.042	1.918	1.745	1.634	1.533	1.466	1.508	1.370	1.127	1.091	1.006	0.996	0.778	0.933	1.269	1.447	1.185	0.853	0.661	0.573	0.595	0.556	0.564	0.679	0.977	0.695	0.711	0.591	0.616	0.646	0.611	0.989	3.440	11.83	24.35	75.44	73.07
600.0	33.54	45.28	46.22	31.49	22.24	21.38	22.32	24.31	28.87	42.78	92.43	58.87	36.19	29.05	51.72	455.3	634.1	18.68	5.525	4.918	4.914	3.906	4.417	3.806	3.805	4.108	3.636	3.773	3.723	3.775	3.706	3.222	3.125	2.856	2.730	2.575	2.412	2.279	2.022	1.864	1.755	1.738	1.520	1.352	1.405	1.228	1.246	1.250	0.983	0.878	0.851	0.908	0.643	0.724	0.925	1.300	1.197	0.941	0.567	0.573	0.481	0.484	0.469	0.646	0.662	0.822	0.730	0.641	0.490	0.507	0.503	0.533	1.082	2.898	5.654	25.85	85.35
605.0	33.78	38.79	40.13	30.31	21.41	17.88	21.32	22.22	28.77	36.45	76.18	77.47	37.47	27.59	25.35	151.5	771.9	75.73	4.945	4.083	4.044	3.489	3.515	3.566	3.501	3.174	3.074	2.943	3.415	3.178	3.008	3.110	2.788	2.344	2.274	2.317	1.942	1.786	1.695	1.578	1.553	1.531	1.235	1.136	1.300	1.182	1.027	1.071	0.950	0.768	0.822	0.768	0.689	0.574	0.658	0.928	1.188	0.912	0.597	0.538	0.428	0.400	0.425	0.521	0.537	0.712	0.741	0.626	0.414	0.435	0.400	0.358	0.487	0.806	1.434	6.108	33.66
610.0	32.84	35.86	36.92	29.35	19.95	18.52	21.74	23.55	29.74	35.16	55.60	85.33	45.15	28.74	20.39	45.03	413.0	445.4	18.43	3.639	3.188	3.068	2.809	2.864	2.826	2.584	2.516	2.694	2.528	2.553	2.418	2.494	2.187	1.874	1.823	1.773	1.648	1.552	1.425	1.372	1.286	1.214	1.042	0.992	0.999	0.970	0.836	0.922	0.745	0.688	0.635	0.616	0.508	0.458	0.477	0.575	0.820	0.868	0.717	0.520	0.463	0.407	0.388	0.417	0.528	0.520	0.633	0.704	0.544	0.481	0.407	0.334	0.352	0.381	0.486	1.524	7.807
615.0	27.91	34.70	34.83	24.86	21.82	17.71	19.41	24.52	27.16	33.28	44.01	73.37	62.63	27.80	19.71	19.06	110.2	541.9	79.23	3.673	2.780	2.392	2.358	2.193	2.099	2.182	1.916	1.905	2.084	1.910	1.818	1.946	1.778	1.469	1.515	1.482	1.408	1.237	1.146	1.050	1.084	0.980	0.910	0.820	0.819	0.790	0.675	0.679	0.559	0.537	0.494	0.492	0.509	0.362	0.476	0.407	0.500	0.663	0.716	0.623	0.452	0.382	0.389	0.375	0.371	0.414	0.441	0.615	0.610	0.464	0.441	0.339	0.241	0.262	0.292	0.491	1.824
620.0	26.21	36.12	31.64	28.04	21.88	16.98	19.54	21.87	25.97	32.52	36.52	55.53	69.89	31.30	18.32	13.02	31.63	314.3	378.5	8.104	2.501	2.182	2.200	1.882	1.724	2.011	1.784	1.649	1.721	1.735	1.668	1.711	1.422	1.309	1.221	1.138	1.204	1.083	0.947	1.045	0.797	0.803	0.737	0.691	0.729	0.643	0.670	0.557	0.503	0.515	0.424	0.381	0.433	0.311	0.379	0.315	0.427	0.527	0.626	0.603	0.500	0.338	0.373	0.378	0.285	0.389	0.371	0.443	0.650	0.660	0.382	0.374	0.350	0.296	0.235	0.257	0.569
625.0	20.30	33.02	37.03	24.04	18.14	18.96	18.93	19.31	25.79	32.60	33.45	46.21	70.95	37.36	19.55	11.99	13.60	108.7	517.2	50.00	2.294	2.136	1.913	1.601	1.518	1.671	1.742	1.550	1.344	1.520	1.489	1.349	1.278	1.186	1.095	1.031	1.075	1.053	0.772	0.765	0.750	0.697	0.611	0.635	0.552	0.596	0.623	0.522	0.436	0.446	0.374	0.448	0.438	0.366	0.342	0.317	0.333	0.379	0.556	0.664	0.477	0.429	0.327	0.313	0.374	0.325	0.321	0.352	0.501	0.625	0.370	0.365	0.351	0.297	0.163	0.238	0.281
630.0	21.97	30.42	31.78	23.24	17.82	17.36	17.64	20.55	25.91	30.07	34.50	39.53	55.73	48.18	21.19	12.06	9.533	30.47	303.1	286.0	8.614	1.925	1.638	1.457	1.377	1.296	1.386	1.276	1.227	1.245	1.122	1.099	1.120	1.065	1.003	0.910	0.907	0.815	0.667	0.620	0.640	0.541	0.569	0.507	0.478	0.483	0.508	0.432	0.386	0.421	0.343	0.346	0.330	0.312	0.314	0.289	0.265	0.295	0.335	0.505	0.489	0.359	0.297	0.283	0.312	0.308	0.294	0.335	0.401	0.442	0.497	0.370	0.330	0.226	0.171	0.163	0.170
635.0	23.62	24.26	28.64	21.86	16.78	16.10	18.15	19.74	23.03	28.14	33.06	35.24	40.75	55.14	26.94	13.08	9.406	11.88	81.00	390.9	60.71	1.926	1.405	1.382	1.212	1.058	1.049	1.091	1.130	1.077	0.937	0.833	0.883	0.870	0.872	0.820	0.733	0.744	0.605	0.571	0.566	0.466	0.519	0.375	0.415	0.360	0.331	0.382	0.345	0.358	0.312	0.278	0.304	0.244	0.196	0.261	0.297	0.229	0.269	0.364	0.428	0.421	0.366	0.292	0.274	0.301	0.308	0.318	0.293	0.276	0.419	0.502	0.451	0.239	0.263	0.170	0.149
640.0	24.73	25.63	29.86	22.34	16.26	14.68	15.83	18.99	24.49	27.22	34.71	36.27	36.52	48.45	34.26	13.77	10.35	8.323	22.42	252.6	247.0	4.441	1.275	1.165	1.140	1.068	0.936	0.903	0.929	0.888	0.857	0.721	0.809	0.784	0.837	0.744	0.780	0.643	0.620	0.517	0.482	0.360	0.451	0.359	0.407	0.338	0.253	0.319	0.328	0.314	0.273	0.225	0.291	0.249	0.196	0.270	0.284	0.233	0.234	0.271	0.348	0.424	0.318	0.273	0.263	0.275	0.297	0.244	0.356	0.291	0.311	0.368	0.331	0.270	0.177	0.218	0.167
645.0	21.41	24.08	26.54	22.03	16.72	14.43	16.19	19.97	22.42	27.39	32.38	35.38	34.81	40.24	40.29	16.73	11.35	8.399	8.823	94.66	366.6	30.90	1.385	1.114	0.915	0.870	0.949	0.747	0.935	0.748	0.783	0.907	0.753	0.809	0.726	0.885	0.782	0.628	0.569	0.490	0.423	0.337	0.412	0.318	0.303	0.330	0.275	0.287	0.274	0.311	0.245	0.191	0.226	0.202	0.244	0.261	0.235	0.210	0.251	0.259	0.326	0.325	0.339	0.286	0.333	0.354	0.287	0.211	0.284	0.282	0.282	0.297	0.316	0.267	0.178	0.169	0.124
650.0	23.44	25.23	30.75	23.25	14.01	14.17	15.70	18.55	21.56	26.31	30.59	35.69	33.75	33.49	42.89	20.01	11.43	8.456	6.003	27.15	306.7	132.4	1.733	1.144	0.898	0.834	0.837	0.753	0.801	0.594	0.749	0.787	0.814	0.703	0.888	0.838	0.760	0.671	0.587	0.378	0.364	0.390	0.358	0.328	0.262	0.274	0.277	0.241	0.276	0.263	0.230	0.219	0.209	0.170	0.211	0.215	0.202	0.247	0.203	0.243	0.243	0.305	0.326	0.368	0.310	0.267	0.269	0.200	0.351	0.222	0.192	0.268	0.260	0.327	0.216	0.197	0.187
