Sample:	'1
File name:	J2025051406二环西高架路下.FD3
Run date:	'16:22:53, 05/15/2025
Operator:	Administrator
Comment:	'

Instrument
Model:	F-2700 FL Spectrophotometer
Serial number:	23B8-004
ROM Version:	4J14000 07

Instrument parameters
Measurement type:	3-D scan
Data mode:	Fluorescence
EX  Start WL:	220.0 nm
EX  End WL:	600.0 nm
EX Sampling interval:	5.0 nm
EM  Start WL:	230.0 nm
EM  End WL:	650.0 nm
EM Sampling interval:	5.0 nm
Scan speed:	12000 nm/min
EX Slit:	5.0 nm
EM Slit:	5.0 nm
PMT Voltage:	700 V
Response:	Auto 
Corrected spectra:	Off
Contour interval:	50.000

Peak integration
Integration method:	Rectangular
Sensitivity:	1
Threshold:	1.000

Peaks
No.	ApexEX/EM(nm)	Height(Data)
1	225.0/305.0	369.5
2	225.0/565.0	52.51
3	225.0/600.0	43.57
4	225.0/620.0	35.92
5	230.0/345.0	898.7
6	230.0/500.0	276.3
7	230.0/560.0	52.69
8	230.0/580.0	48.20
9	235.0/515.0	242.4
10	240.0/265.0	385.9
11	240.0/525.0	218.6
12	245.0/270.0	385.6
13	245.0/540.0	179.1
14	250.0/275.0	508.0
15	250.0/550.0	150.6
16	255.0/280.0	566.5
17	255.0/565.0	129.3
18	260.0/290.0	546.7
19	260.0/575.0	107.5
20	265.0/295.0	680.6
21	265.0/585.0	95.80
22	270.0/300.0	932.7
23	270.0/600.0	84.64
24	275.0/305.0	927.2
25	275.0/610.0	71.69
26	280.0/340.0	692.3
27	280.0/625.0	59.88
28	285.0/320.0	832.9
29	285.0/635.0	46.47
30	290.0/325.0	740.7
31	300.0/340.0	568.0
32	305.0/345.0	529.4
33	310.0/350.0	434.3
34	315.0/355.0	412.9
35	320.0/365.0	389.8
36	325.0/370.0	358.2
37	330.0/375.0	353.8
38	335.0/380.0	344.4
39	340.0/390.0	319.6
40	350.0/400.0	294.6
41	365.0/420.0	242.2
42	410.0/480.0	56.27
43	425.0/500.0	33.77
44	440.0/520.0	19.47
45	455.0/540.0	10.74
46	485.0/265.0	2.132
47	495.0/270.0	2.048
48	505.0/275.0	3.185
49	510.0/280.0	3.396
50	520.0/285.0	3.545
51	530.0/290.0	3.242
52	540.0/295.0	4.478
53	545.0/300.0	5.117
54	550.0/305.0	5.081
55	560.0/310.0	4.513
56	570.0/315.0	4.531
57	580.0/320.0	4.860
58	585.0/325.0	4.455

Data points
	220.0	225.0	230.0	235.0	240.0	245.0	250.0	255.0	260.0	265.0	270.0	275.0	280.0	285.0	290.0	295.0	300.0	305.0	310.0	315.0	320.0	325.0	330.0	335.0	340.0	345.0	350.0	355.0	360.0	365.0	370.0	375.0	380.0	385.0	390.0	395.0	400.0	405.0	410.0	415.0	420.0	425.0	430.0	435.0	440.0	445.0	450.0	455.0	460.0	465.0	470.0	475.0	480.0	485.0	490.0	495.0	500.0	505.0	510.0	515.0	520.0	525.0	530.0	535.0	540.0	545.0	550.0	555.0	560.0	565.0	570.0	575.0	580.0	585.0	590.0	595.0	600.0
230.0	36.93	551.8	1778	640.0	33.92	5.790	4.648	3.853	3.593	2.991	2.905	2.571	2.198	1.732	1.676	1.279	1.145	1.006	0.869	0.890	0.817	0.767	0.655	0.614	0.581	0.532	0.498	0.512	0.525	0.447	0.422	0.431	0.365	0.316	0.333	0.338	0.358	0.390	0.318	0.350	0.321	0.349	0.392	0.330	0.303	0.257	0.591	2.739	5.554	4.473	1.884	0.519	0.213	0.217	0.211	0.207	0.234	0.208	0.210	0.219	0.202	0.211	0.205	0.224	0.233	0.204	0.223	0.197	0.238	0.228	0.208	0.207	0.212	0.222	0.207	0.233	0.226
235.0	73.84	161.5	1085	2180	567.1	51.10	5.837	5.084	3.740	2.938	3.523	2.603	2.281	1.821	1.690	1.389	1.204	1.059	0.913	0.908	0.735	0.728	0.643	0.625	0.583	0.609	0.501	0.613	0.527	0.533	0.483	0.452	0.384	0.321	0.326	0.343	0.418	0.385	0.355	0.307	0.328	0.335	0.413	0.433	0.405	0.333	0.318	0.835	2.112	3.830	6.243	7.005	3.540	0.970	0.261	0.233	0.255	0.182	0.215	0.220	0.186	0.219	0.196	0.214	0.216	0.264	0.206	0.206	0.213	0.203	0.250	0.199	0.224	0.212	0.220	0.252	0.229
240.0	140.7	119.2	321.1	1740	2448	447.4	24.96	5.805	4.674	4.237	3.765	2.998	2.466	2.058	2.201	1.593	1.349	1.167	0.971	0.970	0.733	0.753	0.642	0.601	0.696	0.685	0.514	0.488	0.567	0.473	0.458	0.421	0.402	0.312	0.364	0.291	0.332	0.375	0.353	0.309	0.301	0.307	0.352	0.401	0.532	0.547	0.500	0.437	0.713	1.182	3.329	8.834	11.67	7.916	3.141	0.624	0.237	0.211	0.214	0.242	0.201	0.211	0.212	0.229	0.233	0.206	0.224	0.224	0.265	0.211	0.204	0.199	0.210	0.210	0.236	0.252	0.244
245.0	108.6	183.2	139.7	566.8	2522	2525	318.5	11.06	5.455	4.446	3.695	3.051	2.586	2.417	1.823	1.735	1.350	1.181	0.923	0.823	0.749	0.929	0.697	0.731	0.612	0.703	0.601	0.496	0.570	0.493	0.468	0.416	0.378	0.347	0.383	0.269	0.324	0.420	0.386	0.313	0.360	0.302	0.301	0.314	0.375	0.488	0.744	0.646	0.463	0.419	0.950	2.950	7.745	13.70	14.07	7.338	1.949	0.366	0.231	0.231	0.222	0.268	0.258	0.227	0.268	0.210	0.245	0.245	0.262	0.211	0.211	0.209	0.197	0.202	0.216	0.244	0.230
250.0	47.18	137.7	235.8	230.4	783.8	2381	3114	1075	59.92	6.130	4.791	3.773	2.972	2.436	1.847	1.992	1.433	1.238	1.085	0.846	0.788	0.761	0.785	0.730	0.635	0.605	0.554	0.599	0.584	0.500	0.470	0.422	0.418	0.374	0.413	0.336	0.344	0.395	0.341	0.367	0.327	0.311	0.284	0.307	0.327	0.391	0.481	0.635	0.835	0.740	0.642	0.906	2.040	4.337	8.001	12.65	16.00	14.15	7.574	2.212	0.398	0.235	0.240	0.237	0.261	0.215	0.236	0.242	0.263	0.224	0.242	0.214	0.224	0.217	0.206	0.232	0.250
255.0	29.49	51.08	163.8	333.7	277.4	602.9	2365	4731	1439	51.41	6.820	4.926	3.754	2.858	2.008	1.899	1.438	1.619	1.100	0.980	0.933	0.798	0.861	0.775	0.609	0.670	0.553	0.579	0.521	0.548	0.548	0.442	0.368	0.489	0.389	0.396	0.396	0.409	0.331	0.335	0.332	0.396	0.356	0.330	0.312	0.309	0.316	0.342	0.484	0.836	1.254	1.350	0.971	1.229	2.032	3.197	5.881	13.77	24.31	24.13	11.98	2.370	0.366	0.258	0.303	0.225	0.260	0.367	0.241	0.227	0.219	0.215	0.205	0.228	0.233	0.223	0.216
260.0	25.91	27.19	64.54	286.7	327.3	192.0	727.3	3919	5159	266.6	22.68	7.047	4.305	3.467	2.649	2.025	1.960	1.504	1.123	0.945	1.062	0.967	0.788	0.872	0.707	0.700	0.673	0.536	0.600	0.571	0.510	0.464	0.379	0.417	0.426	0.342	0.383	0.366	0.344	0.346	0.330	0.352	0.364	0.351	0.291	0.318	0.265	0.307	0.294	0.399	0.862	1.495	1.519	1.062	0.776	0.963	1.617	3.827	10.78	23.68	31.40	23.02	8.828	1.212	0.274	0.244	0.253	0.279	0.253	0.232	0.241	0.252	0.273	0.210	0.223	0.214	0.256
265.0	29.85	21.74	32.10	133.4	385.9	246.6	198.2	1329	5545	4840	204.1	10.76	5.879	3.844	2.997	2.221	1.900	1.592	1.161	1.270	1.029	1.132	0.920	0.715	0.670	0.681	0.725	0.628	0.634	0.678	0.554	0.461	0.409	0.436	0.392	0.376	0.377	0.331	0.330	0.418	0.285	0.412	0.372	0.301	0.336	0.353	0.290	0.288	0.289	0.310	0.358	0.762	1.680	2.132	1.379	0.666	0.613	1.161	2.796	7.017	17.10	33.03	32.23	19.72	5.157	0.499	0.327	0.270	0.246	0.271	0.256	0.237	0.251	0.237	0.254	0.279	0.241
270.0	40.88	36.92	34.98	51.19	191.2	385.6	276.5	348.1	1802	5187	4827	783.6	38.55	6.193	4.111	3.059	2.293	1.915	1.417	1.257	1.303	1.104	0.927	0.851	0.790	0.749	0.666	0.611	0.652	0.664	0.526	0.474	0.471	0.488	0.440	0.401	0.373	0.388	0.357	0.385	0.321	0.352	0.327	0.371	0.314	0.368	0.328	0.321	0.298	0.292	0.311	0.413	0.677	1.226	1.765	2.048	1.682	1.033	1.011	1.883	4.259	9.810	17.48	28.41	30.52	29.94	14.07	4.528	0.540	0.313	0.265	0.261	0.288	0.274	0.264	0.290	0.253
275.0	75.20	85.87	75.01	54.87	70.36	192.5	508.0	309.0	450.7	1331	4564	8456	1006	24.67	6.573	3.958	3.041	2.451	1.806	1.428	1.459	1.120	1.029	1.013	0.822	0.862	0.747	0.783	0.677	0.691	0.562	0.533	0.541	0.562	0.543	0.441	0.472	0.415	0.404	0.450	0.345	0.432	0.407	0.391	0.400	0.441	0.413	0.418	0.431	0.353	0.335	0.402	0.404	0.495	0.731	1.127	2.276	3.185	1.987	1.016	1.304	2.528	4.304	6.914	9.657	23.44	43.51	32.78	21.31	4.506	0.456	0.345	0.313	0.316	0.332	0.267	0.357
280.0	122.6	147.5	141.0	73.27	53.37	82.97	336.8	566.5	240.9	361.2	1411	7359	7418	142.3	12.60	5.930	3.882	2.746	1.951	1.936	1.676	1.125	1.169	1.017	0.935	0.945	0.786	0.809	0.747	0.671	0.600	0.673	0.594	0.651	0.617	0.525	0.559	0.490	0.443	0.488	0.414	0.420	0.431	0.420	0.537	0.592	0.576	0.539	0.552	0.514	0.400	0.403	0.379	0.347	0.462	0.609	1.039	2.342	3.396	2.767	1.417	0.988	1.391	2.037	2.716	6.202	16.11	33.05	51.87	31.32	15.18	1.925	0.333	0.350	0.320	0.263	0.296
285.0	168.0	201.6	189.3	106.5	59.24	58.04	145.8	519.1	352.5	186.3	410.3	2420	8690	5493	100.5	8.022	4.889	3.310	2.579	2.125	1.659	1.246	1.266	1.146	1.146	0.881	0.807	0.817	0.701	0.709	0.617	0.623	0.635	0.745	0.601	0.588	0.596	0.538	0.491	0.479	0.425	0.453	0.469	0.516	0.540	0.634	0.597	0.733	0.775	0.589	0.520	0.515	0.474	0.363	0.423	0.428	0.617	1.015	1.955	3.489	3.545	2.016	1.021	1.002	1.299	2.052	4.185	9.013	22.42	42.22	54.52	26.74	9.160	0.864	0.371	0.299	0.299
290.0	222.7	274.9	250.2	153.8	80.98	69.81	92.79	238.0	546.7	481.4	256.1	681.0	2727	6322	5484	411.7	18.93	4.636	3.637	2.460	1.992	1.633	1.361	1.356	1.090	0.853	0.861	0.809	0.764	0.732	0.681	0.648	0.696	0.751	0.677	0.736	0.641	0.577	0.561	0.507	0.456	0.478	0.528	0.552	0.599	0.782	0.794	0.971	0.932	0.729	0.635	0.613	0.517	0.447	0.464	0.485	0.523	0.680	0.964	1.499	2.425	3.138	3.242	2.375	1.512	1.292	1.764	2.836	5.797	11.42	21.84	31.05	31.69	35.43	17.70	7.477	0.943
295.0	264.8	334.3	318.0	207.0	108.5	94.99	104.6	155.9	287.8	680.6	625.5	345.5	762.3	1624	4624	6314	548.8	13.34	5.005	3.285	2.476	1.969	1.723	1.647	1.222	0.989	1.088	0.845	0.929	0.785	0.838	0.702	0.691	0.748	0.743	0.809	0.757	0.629	0.620	0.592	0.508	0.597	0.505	0.739	0.719	0.796	0.860	1.086	1.008	0.901	0.704	0.725	0.688	0.522	0.564	0.580	0.602	0.702	0.784	0.917	1.214	1.589	2.316	3.834	4.478	2.785	1.651	1.728	2.295	3.466	5.751	7.693	8.808	18.69	38.66	50.99	27.33
300.0	283.0	351.0	350.0	231.9	138.9	117.2	133.9	169.2	235.5	473.5	932.7	520.5	384.8	500.8	1361	5956	5123	81.33	7.595	4.486	3.111	2.384	1.935	1.689	1.431	1.105	1.288	1.007	0.917	0.858	0.782	0.758	0.816	0.863	0.842	0.772	0.746	0.575	0.589	0.543	0.523	0.605	0.604	0.675	0.715	0.801	1.091	1.164	1.028	0.948	0.816	0.818	0.735	0.728	0.722	0.653	0.805	0.791	0.980	0.949	1.144	1.319	1.591	2.429	4.342	5.117	3.633	2.264	1.814	1.903	2.292	2.699	2.779	4.918	11.98	29.20	48.21
305.0	282.4	369.5	367.2	253.7	158.9	143.9	165.6	211.2	266.2	382.8	775.9	927.2	419.5	306.0	428.5	1939	6633	3771	59.44	5.834	3.857	3.063	2.054	1.929	1.555	1.274	1.031	1.068	0.852	0.958	0.845	0.750	0.788	0.804	0.744	0.826	0.724	0.715	0.576	0.535	0.568	0.557	0.616	0.668	0.713	0.851	1.101	1.171	1.083	0.967	0.871	0.909	0.823	0.757	0.821	0.776	0.965	1.011	1.102	1.104	1.322	1.378	1.400	1.943	2.761	4.201	5.081	4.704	3.059	1.857	1.950	1.784	1.726	1.948	3.422	7.488	17.16
310.0	283.8	361.2	378.7	270.8	186.0	171.1	200.9	250.9	308.1	385.9	551.4	846.5	808.6	386.5	256.5	532.9	2074	4614	4042	278.6	12.75	4.131	2.883	2.060	1.720	1.539	1.270	1.099	0.912	0.956	0.836	0.840	0.807	0.886	0.827	0.858	0.757	0.652	0.654	0.572	0.556	0.552	0.635	0.639	0.794	0.845	1.050	1.202	1.218	1.031	0.878	1.020	0.903	0.939	0.898	0.920	1.051	1.153	1.275	1.298	1.567	1.643	1.711	1.979	2.225	2.618	3.257	4.140	4.513	4.188	3.094	2.094	1.677	1.527	1.679	2.404	4.529
315.0	286.0	369.3	381.0	289.0	216.8	206.7	236.9	287.3	341.4	410.3	506.1	605.3	792.8	739.5	304.7	246.5	547.2	1154	3422	4367	395.4	9.411	3.570	2.552	2.263	1.872	1.511	1.076	1.087	1.059	0.942	0.908	0.759	0.902	0.914	0.820	0.718	0.689	0.674	0.553	0.562	0.585	0.651	0.690	0.770	0.874	1.047	1.185	1.250	1.116	0.954	0.971	0.974	1.016	0.996	1.018	1.203	1.327	1.446	1.423	1.612	1.733	1.876	2.187	2.246	2.454	2.783	2.894	3.150	3.489	4.531	4.285	2.971	1.834	1.569	1.330	1.897
320.0	280.7	396.3	434.6	326.6	246.7	233.3	264.6	315.1	371.0	441.6	524.8	572.5	635.0	832.9	529.1	237.6	249.6	337.6	996.4	4239	3691	60.95	6.030	3.493	2.548	1.893	1.829	1.263	1.263	1.133	0.931	0.768	0.933	0.848	0.883	0.792	0.673	0.791	0.606	0.601	0.657	0.686	0.609	0.693	0.755	0.955	1.114	1.255	1.281	1.183	1.085	1.053	1.126	1.070	1.100	1.129	1.339	1.585	1.601	1.744	1.651	1.759	2.069	2.212	2.488	2.463	2.712	2.793	2.971	2.698	3.683	4.465	4.860	3.104	2.103	1.506	1.520
325.0	315.2	476.4	524.7	406.7	292.7	267.6	294.4	340.2	389.6	465.6	551.7	600.6	596.4	683.1	740.7	360.2	216.1	187.5	295.9	1398	4684	2839	46.15	4.724	3.049	2.109	2.112	1.423	1.523	1.070	0.937	0.813	0.924	0.875	1.002	0.695	0.691	0.797	0.685	0.624	0.653	0.637	0.660	0.733	0.820	1.131	1.303	1.552	1.622	1.442	1.260	1.408	1.243	1.193	1.219	1.345	1.336	1.529	1.607	1.687	1.706	1.880	2.166	2.345	2.457	2.551	2.566	2.840	2.883	2.676	2.838	3.345	4.395	4.455	4.085	2.337	1.856
330.0	360.7	587.0	680.1	562.1	379.0	326.0	325.8	369.1	426.6	501.7	578.9	630.5	619.3	601.0	632.0	595.1	333.7	188.2	165.5	385.0	1484	3432	3020	228.6	11.17	2.985	2.451	1.764	1.522	1.190	1.055	0.947	0.885	0.826	0.860	0.707	0.720	0.730	0.764	0.637	0.699	0.641	0.699	0.751	0.925	1.232	1.503	1.762	1.935	1.868	1.679	1.905	1.509	1.431	1.367	1.451	1.570	1.568	1.724	1.739	1.829	2.092	2.243	2.581	2.695	2.599	2.876	2.941	2.984	3.115	2.846	3.185	3.294	3.544	3.899	3.830	3.508
335.0	401.2	665.1	785.3	685.3	499.6	398.8	376.2	403.9	453.6	530.3	606.2	670.4	662.3	614.0	561.0	548.7	566.9	291.2	174.4	185.2	389.8	859.6	2621	3492	338.3	8.112	3.135	2.419	1.673	1.377	1.207	1.019	1.031	0.987	0.836	0.834	0.800	0.697	0.732	0.716	0.713	0.755	0.659	0.741	0.974	1.319	1.634	1.822	2.300	2.138	1.995	2.204	1.855	1.708	1.476	1.748	1.914	1.831	1.898	1.844	1.991	2.293	2.265	2.729	2.868	2.881	3.032	3.088	3.236	3.062	3.284	3.118	3.105	3.282	3.098	2.964	3.771
340.0	438.5	682.5	837.4	768.2	561.9	438.1	423.2	425.5	477.7	550.2	622.6	681.5	692.3	639.3	561.1	490.2	568.0	459.1	216.1	159.8	163.2	239.5	763.5	3339	3031	52.33	4.669	2.957	2.206	1.846	1.372	1.087	1.034	1.029	0.881	0.815	0.769	0.730	0.688	0.745	0.612	0.685	0.615	0.761	1.031	1.293	1.626	1.891	2.391	2.339	2.224	2.433	2.083	2.074	1.751	1.810	1.868	1.848	1.807	2.047	2.213	2.288	2.382	2.902	2.793	2.854	3.109	3.274	3.096	3.201	3.363	3.019	3.307	3.377	2.826	2.808	3.259
345.0	431.8	707.0	898.7	815.1	603.7	497.9	459.3	448.1	498.7	550.7	622.9	680.1	692.1	644.9	575.3	476.8	462.9	529.4	328.0	176.7	130.1	113.6	215.1	1093	3690	2348	41.92	4.274	2.710	1.971	1.367	1.138	1.189	1.013	0.957	0.700	0.650	0.708	0.713	0.662	0.628	0.781	0.734	0.834	1.023	1.294	1.596	2.056	2.406	2.490	2.253	2.671	2.271	2.188	1.860	1.922	1.948	1.968	1.969	2.033	2.200	2.437	2.561	2.964	2.704	2.948	3.114	3.079	3.201	3.409	3.246	3.525	3.352	3.310	3.043	2.948	2.862
350.0	416.5	674.5	884.4	840.3	652.7	551.2	490.3	478.3	510.1	554.9	615.8	665.3	681.5	644.3	578.0	487.2	433.5	429.6	434.3	287.2	156.7	112.9	111.3	292.3	1161	2587	2394	207.4	10.87	2.540	1.798	1.383	1.197	1.104	1.005	0.763	0.795	0.792	0.674	0.680	0.642	0.726	0.717	0.847	1.086	1.189	1.460	2.051	2.492	2.369	2.346	2.652	2.475	2.287	2.238	2.163	2.157	2.064	2.058	2.160	2.179	2.405	2.559	2.775	2.837	2.879	2.811	3.080	3.221	3.335	3.325	3.455	3.242	3.298	3.034	2.858	2.834
355.0	397.9	656.1	845.4	845.3	702.5	606.4	536.7	517.9	529.4	569.2	617.2	655.6	659.2	636.7	585.4	499.7	440.6	392.7	374.4	412.9	255.0	145.3	114.9	132.8	305.1	644.3	1907	2960	323.4	8.799	2.324	1.858	1.317	1.028	0.998	0.852	0.836	0.754	0.695	0.665	0.621	0.670	0.753	0.906	1.103	1.198	1.426	1.952	2.240	2.278	2.263	2.557	2.471	2.570	2.350	2.370	2.350	2.167	2.168	2.121	2.363	2.699	2.547	2.873	2.743	2.730	3.030	2.958	3.143	3.243	3.244	3.559	3.293	3.295	3.060	2.864	2.778
360.0	406.0	613.0	828.1	828.6	733.8	631.1	575.6	547.2	552.6	589.2	620.8	641.0	657.7	630.9	586.8	519.0	457.8	400.1	353.3	383.8	367.4	200.5	137.3	115.1	129.1	182.0	537.7	2453	2666	51.24	4.818	2.286	1.643	1.367	1.051	0.856	0.871	0.732	0.673	0.643	0.577	0.737	0.783	0.762	1.035	1.217	1.481	1.797	2.156	2.292	2.278	2.766	2.541	2.452	2.332	2.363	2.431	2.379	2.246	2.426	2.476	2.418	2.773	2.903	2.710	2.849	3.012	2.893	3.105	3.197	3.189	3.169	3.334	3.369	3.220	3.128	3.077
365.0	395.3	637.0	788.6	824.2	750.6	658.0	591.2	568.3	569.5	598.0	613.6	644.8	647.8	623.4	580.4	523.2	469.5	419.3	361.2	344.9	389.8	301.6	175.1	130.6	105.6	91.27	157.1	760.6	2832	2162	43.01	3.290	1.926	1.556	1.127	1.072	0.919	0.784	0.740	0.741	0.650	0.784	0.712	0.736	1.042	1.266	1.299	1.795	2.067	2.152	2.221	2.819	2.790	2.555	2.447	2.414	2.523	2.548	2.448	2.554	2.526	2.505	2.885	2.701	2.775	3.063	2.867	3.003	3.092	3.392	3.177	3.137	3.344	3.523	3.093	3.112	3.149
370.0	350.7	571.8	762.8	811.4	753.8	686.2	630.7	584.7	586.0	598.2	620.5	633.9	636.3	616.5	575.7	527.6	483.1	434.0	388.5	349.9	340.9	358.2	284.0	176.0	129.0	97.92	89.20	207.8	848.7	2109	2131	195.3	11.64	2.013	1.579	1.194	0.970	0.837	0.765	0.767	0.705	0.727	0.753	0.799	0.978	1.219	1.389	1.798	1.980	2.042	2.175	2.620	2.688	2.672	2.456	2.505	2.643	2.421	2.610	2.620	2.578	2.668	2.809	2.897	2.791	2.917	2.920	2.813	2.801	3.042	3.033	3.264	3.101	3.247	3.031	3.273	2.972
375.0	357.9	547.2	744.4	799.8	759.1	700.0	643.7	600.0	595.0	603.2	617.8	621.9	619.3	601.6	569.1	522.1	488.5	452.6	410.3	372.2	337.7	324.0	353.8	273.3	168.1	123.0	94.90	101.1	224.8	517.3	1492	2535	301.9	10.64	2.105	1.369	1.029	0.983	0.839	0.751	0.783	0.779	0.767	0.829	0.963	1.088	1.427	1.756	1.933	1.941	2.122	2.502	2.800	2.610	2.472	2.727	2.602	2.618	2.730	2.588	2.449	2.642	2.894	2.823	2.823	2.914	2.827	2.870	2.930	2.852	2.929	3.079	3.123	3.036	3.043	3.327	2.969
380.0	352.1	528.0	708.5	779.6	757.1	702.3	635.6	615.5	588.7	608.5	608.6	613.5	609.4	594.0	557.3	521.0	492.0	458.4	422.0	386.4	349.3	319.4	329.6	344.4	225.6	147.7	111.9	88.67	97.00	148.4	411.1	1900	2209	234.7	4.725	1.975	1.370	1.057	0.817	0.851	0.797	0.786	0.806	0.863	0.986	1.132	1.354	1.695	1.876	1.943	2.143	2.500	2.788	2.648	2.701	2.727	2.629	2.787	2.603	2.838	2.578	2.763	2.854	2.924	2.710	3.052	2.849	2.791	3.001	2.975	2.993	2.946	2.954	3.036	3.194	3.089	3.055
385.0	338.4	541.6	693.6	759.5	751.1	702.3	643.9	619.5	600.3	605.4	599.4	606.5	596.9	577.9	547.7	515.0	487.7	459.8	428.8	397.6	364.1	330.1	313.8	342.2	301.7	185.1	132.3	102.6	81.76	75.40	120.6	559.1	2054	1786	37.88	2.852	1.550	1.182	0.871	0.980	0.763	0.775	0.692	0.761	0.946	1.120	1.248	1.764	1.965	1.872	2.101	2.521	2.625	2.725	2.721	2.605	2.672	2.854	2.502	2.499	2.545	2.697	2.852	2.805	2.820	2.781	2.848	2.669	3.024	2.980	2.971	2.892	2.812	3.059	3.126	2.985	3.068
390.0	332.3	514.2	671.7	735.7	730.1	693.2	652.1	608.4	593.6	590.4	588.5	590.9	572.2	563.2	535.7	501.4	478.8	455.6	432.0	407.2	380.1	347.7	323.3	308.8	319.6	271.3	177.6	128.3	99.27	78.30	69.11	153.4	583.8	1460	1539	159.5	11.26	1.639	1.139	1.018	0.728	0.768	0.794	0.769	1.016	1.096	1.310	1.534	1.937	1.780	2.046	2.491	2.555	2.672	2.641	2.567	2.603	2.750	2.709	2.567	2.719	2.669	2.753	2.736	2.805	2.576	2.735	2.673	2.845	2.707	2.895	2.809	2.946	2.979	2.952	3.052	3.042
395.0	313.9	491.0	631.0	700.1	700.6	675.3	646.6	597.7	596.2	575.4	580.1	570.8	556.1	539.2	520.8	492.2	467.5	447.4	428.8	410.2	387.3	363.2	335.7	311.7	293.8	300.2	256.4	167.1	125.7	99.92	75.67	76.39	157.8	353.7	913.3	1763	269.0	12.15	1.582	1.272	1.007	0.880	0.781	0.785	0.863	0.984	1.410	1.503	1.918	1.688	2.006	2.416	2.603	2.557	2.566	2.699	2.668	2.703	2.706	2.556	2.668	2.706	2.625	2.731	2.628	2.486	2.689	2.622	2.528	2.645	2.781	2.720	2.854	2.832	2.804	3.033	2.931
400.0	297.5	470.4	615.4	689.9	704.1	667.2	637.0	589.1	581.0	562.7	567.0	564.4	550.0	530.0	506.4	477.9	456.4	435.2	418.3	408.5	388.7	366.4	345.3	320.7	293.4	283.8	294.6	221.5	150.1	118.1	87.76	68.98	70.74	103.8	244.1	1148	1611	215.9	5.688	1.544	1.210	0.899	0.894	0.731	0.987	1.065	1.255	1.565	1.808	1.511	1.944	2.353	2.414	2.638	2.460	2.625	2.819	2.631	2.610	2.615	2.806	2.702	2.662	2.528	2.765	2.506	2.525	2.572	2.489	2.564	2.594	2.670	2.810	2.583	2.804	2.647	2.715
405.0	298.5	466.5	583.9	666.5	688.7	659.6	631.1	595.9	569.7	564.5	555.3	558.2	538.1	515.3	492.6	463.9	443.4	422.9	412.8	399.0	382.6	367.4	347.2	327.2	296.6	276.2	282.0	271.5	186.3	136.4	104.5	77.82	58.78	53.08	75.26	317.1	1269	1365	35.70	2.807	1.362	1.155	0.832	0.820	1.026	1.173	1.187	1.504	1.729	1.710	1.795	2.303	2.456	2.634	2.534	2.707	2.491	2.618	2.541	2.516	2.716	2.521	2.539	2.465	2.584	2.395	2.673	2.493	2.693	2.401	2.472	2.580	2.653	2.743	2.828	2.692	2.736
410.0	295.7	444.7	575.6	645.9	653.6	653.2	617.8	597.7	570.1	555.2	547.4	538.6	519.1	499.3	470.7	440.0	421.1	406.5	396.9	387.5	374.5	360.0	347.8	331.6	308.4	282.4	263.9	267.9	244.8	173.5	125.4	94.13	69.36	52.50	44.62	90.87	344.1	954.9	1131	384.6	11.14	1.481	1.024	1.000	1.028	1.273	1.280	1.525	1.585	1.739	1.753	2.232	2.386	2.395	2.393	2.502	2.654	2.598	2.558	2.530	2.526	2.627	2.566	2.611	2.529	2.440	2.563	2.518	2.519	2.496	2.544	2.716	2.539	2.599	2.622	2.516	2.725
415.0	294.3	424.4	555.7	625.4	626.3	630.3	597.0	573.9	557.0	544.4	532.0	514.5	499.3	473.8	451.4	408.9	400.2	385.2	374.6	371.9	355.2	348.5	342.1	324.8	307.6	286.0	261.3	247.9	249.7	224.9	155.3	110.5	82.00	60.10	46.19	44.99	94.30	228.5	569.6	1292	248.2	12.52	1.378	1.097	1.052	1.254	1.209	1.362	1.614	1.738	1.703	2.160	2.296	2.318	2.383	2.357	2.569	2.600	2.560	2.463	2.510	2.485	2.375	2.392	2.552	2.519	2.376	2.490	2.494	2.567	2.581	2.471	2.480	2.758	2.406	2.420	2.567
420.0	269.6	420.0	529.4	599.3	613.1	623.5	578.9	565.6	546.4	534.7	521.2	501.2	485.2	458.6	431.5	395.6	378.5	369.3	360.2	353.2	343.8	337.3	330.9	320.5	305.7	286.7	262.8	242.3	231.6	242.2	189.6	126.2	92.25	69.44	50.90	40.02	42.18	65.18	146.4	739.8	1167	204.8	5.777	1.301	1.152	1.193	1.129	1.385	1.580	1.471	1.602	2.110	2.254	2.182	2.330	2.235	2.554	2.492	2.476	2.501	2.489	2.370	2.274	2.321	2.482	2.500	2.364	2.362	2.363	2.244	2.487	2.517	2.311	2.643	2.442	2.355	2.713
425.0	267.4	390.5	518.0	559.9	592.9	605.1	583.2	561.8	538.4	523.6	510.5	496.7	470.9	444.0	409.7	381.9	361.2	354.1	342.3	339.2	328.8	323.4	319.7	312.2	300.7	282.2	263.4	244.9	223.4	225.4	214.1	150.8	101.3	77.79	57.26	43.37	34.22	31.62	44.44	196.9	829.4	1024	34.10	2.523	1.289	1.254	1.129	1.314	1.450	1.454	1.605	2.135	2.048	2.320	2.137	2.102	2.455	2.651	2.525	2.453	2.218	2.497	2.502	2.280	2.544	2.490	2.272	2.271	2.191	2.257	2.273	2.399	2.365	2.427	2.305	2.158	2.430
430.0	277.7	375.9	493.3	548.0	573.8	590.9	572.2	552.1	528.0	513.7	500.7	480.8	455.3	422.9	391.2	361.2	344.4	334.7	322.1	317.1	311.4	306.6	306.0	300.4	290.8	277.2	262.2	243.2	224.3	211.2	204.2	182.3	126.6	87.73	66.14	50.69	37.93	28.45	24.88	54.49	217.9	652.9	843.2	310.3	10.70	1.656	1.310	1.387	1.474	1.399	1.590	2.058	2.065	2.225	2.114	2.222	2.347	2.459	2.472	2.376	2.395	2.439	2.347	2.372	2.328	2.271	2.129	2.186	2.217	2.090	2.198	2.228	2.297	2.173	2.198	2.171	2.283
435.0	371.9	369.5	468.7	515.2	567.3	570.5	561.5	542.8	527.3	508.0	492.9	465.8	437.8	403.4	374.1	343.4	323.6	314.3	302.9	301.0	291.0	290.7	291.6	287.9	283.2	269.9	256.0	243.5	226.9	208.2	189.7	180.0	160.3	108.0	75.82	58.48	45.60	32.38	25.06	26.12	58.12	154.5	403.9	1016	233.3	13.05	1.562	1.490	1.602	1.460	1.699	2.087	1.946	2.261	2.162	2.381	2.208	2.305	2.488	2.310	2.430	2.302	2.219	2.311	2.356	2.364	2.261	2.253	2.078	2.314	2.103	2.137	2.157	2.217	2.110	2.189	2.178
440.0	516.5	396.3	445.7	505.3	545.1	549.2	544.6	536.4	512.8	500.6	483.4	452.2	425.8	392.2	357.5	325.9	308.2	301.5	288.3	284.9	278.0	273.8	277.9	276.3	272.0	260.4	250.8	239.1	224.6	205.5	185.4	167.1	162.8	129.0	84.95	64.29	48.54	36.87	27.63	22.35	25.03	43.09	103.2	577.9	993.0	192.0	5.649	1.819	1.464	1.416	1.624	2.022	1.797	1.995	1.973	2.015	2.181	2.418	2.326	2.413	2.419	2.284	2.232	2.227	2.199	2.170	2.198	2.247	1.972	2.251	2.036	2.166	2.032	2.270	2.040	2.213	2.089
445.0	564.1	541.2	439.4	497.4	518.2	525.0	535.2	524.6	504.8	492.4	478.1	448.6	411.2	376.5	341.2	313.8	296.5	287.6	278.5	267.5	265.3	261.0	266.8	262.1	259.2	250.4	246.6	235.6	218.5	203.9	184.9	159.0	151.5	142.5	100.1	70.17	53.23	40.96	30.19	22.99	19.40	19.64	30.62	153.7	716.1	896.4	28.74	2.980	1.724	1.463	1.537	1.995	1.755	1.967	1.981	1.969	2.171	2.393	2.227	2.273	2.326	2.387	2.177	2.229	2.124	2.169	2.002	1.987	1.916	1.922	1.942	2.116	1.871	1.963	2.145	2.142	2.092
450.0	413.6	870.3	533.3	459.7	488.6	498.5	501.8	495.8	485.2	474.7	451.1	428.6	388.1	349.1	320.3	292.4	273.5	261.2	256.9	245.8	245.1	242.0	245.8	242.8	241.4	236.9	231.8	222.3	212.1	197.1	180.3	155.1	137.2	129.4	116.8	83.18	58.50	44.84	34.59	26.71	20.88	16.81	16.04	41.24	187.9	569.0	743.4	271.5	9.136	1.803	1.586	1.791	1.802	1.888	1.886	2.136	2.186	2.188	2.130	2.225	2.174	2.194	2.131	2.155	2.113	2.169	2.018	2.018	2.021	1.882	1.894	1.865	1.856	1.884	1.743	1.865	1.905
455.0	247.0	924.2	965.4	445.9	456.8	472.8	473.9	468.4	460.2	438.5	425.0	400.5	363.4	321.8	297.9	272.0	248.2	238.2	232.7	221.2	221.1	216.8	220.6	219.6	220.9	218.7	211.4	204.8	198.9	187.4	171.6	150.5	130.6	115.4	109.1	98.47	69.73	48.57	38.30	30.65	23.93	18.50	14.92	17.92	48.56	133.6	330.9	829.4	191.7	10.34	1.854	1.851	1.717	1.741	1.852	2.059	1.922	2.016	2.080	2.038	2.107	2.069	2.074	1.869	2.021	2.002	1.959	1.904	1.884	1.681	1.840	1.785	1.787	1.854	1.580	1.758	1.672
460.0	206.6	662.9	1366	539.3	413.3	430.0	443.5	441.1	429.8	418.6	401.1	374.2	340.2	310.3	278.3	253.0	228.8	224.6	212.9	205.7	204.1	200.6	203.7	205.0	204.8	202.2	198.2	192.4	187.2	179.7	164.6	144.5	125.2	109.1	98.39	99.19	80.14	53.55	40.08	32.87	25.74	20.35	15.63	13.79	18.30	35.78	82.86	453.6	756.6	147.7	5.596	1.928	1.652	1.618	1.929	1.779	1.892	2.121	2.027	2.142	2.081	2.113	1.977	1.968	1.926	1.966	1.947	1.832	1.788	1.611	1.665	1.720	1.734	1.634	1.518	1.667	1.681
465.0	183.9	416.8	1495	857.1	390.0	415.5	419.6	417.2	411.5	391.6	382.1	355.2	320.7	289.5	258.3	232.8	214.0	204.6	198.6	189.6	185.5	187.4	189.0	188.9	189.8	186.1	185.0	178.7	177.2	170.2	157.2	139.1	122.3	105.1	90.25	87.48	84.34	61.39	42.42	34.12	27.29	21.77	16.43	14.18	12.12	14.42	23.69	119.2	544.6	650.4	23.62	2.951	1.838	1.771	1.847	1.793	1.793	1.844	2.001	1.872	1.933	1.907	1.904	1.794	1.939	1.737	1.793	1.763	1.830	1.559	1.622	1.639	1.630	1.465	1.509	1.566	1.595
470.0	184.3	269.6	947.5	1612	543.5	379.0	378.4	383.4	377.6	363.9	346.8	325.4	292.1	262.9	232.3	212.1	196.5	186.6	177.3	169.8	167.6	165.8	167.7	166.7	167.0	167.3	164.8	162.1	158.6	155.0	144.0	129.2	113.7	97.54	85.48	75.88	74.10	68.13	49.03	35.47	28.36	22.97	18.02	15.38	12.15	10.37	11.11	31.41	142.4	405.8	501.6	117.0	9.034	1.972	1.666	1.594	1.720	1.704	1.793	1.817	1.757	1.767	1.733	1.865	1.785	1.544	1.784	1.600	1.595	1.541	1.527	1.537	1.525	1.406	1.432	1.418	1.392
475.0	182.1	225.5	424.7	1568	1189	355.6	344.7	342.0	337.1	328.5	313.7	291.1	264.2	236.7	208.8	185.8	175.3	162.4	156.4	151.3	148.2	145.8	144.6	148.2	147.9	146.6	145.7	143.3	143.0	139.0	130.1	117.9	103.6	90.90	80.51	69.89	62.60	62.29	56.13	39.89	29.02	23.44	19.03	16.29	12.78	10.35	8.901	12.11	35.95	94.65	212.1	518.3	178.2	10.13	1.690	1.736	1.589	1.595	1.643	1.570	1.732	1.653	1.605	1.583	1.676	1.327	1.613	1.612	1.441	1.322	1.444	1.333	1.339	1.192	1.486	1.285	1.203
480.0	183.4	215.0	289.1	1011	1825	456.6	330.5	322.7	318.0	306.4	292.0	274.8	245.6	217.7	192.8	171.6	161.3	150.8	142.3	139.0	135.5	132.6	133.6	134.8	133.9	133.7	131.9	131.5	131.8	128.3	119.7	111.3	97.44	85.92	75.83	66.15	58.26	52.79	56.27	44.82	30.94	24.09	19.82	16.48	13.08	10.77	8.683	8.087	12.85	24.62	53.01	273.9	536.5	149.0	4.322	1.714	1.566	1.616	1.554	1.514	1.612	1.482	1.687	1.529	1.565	1.359	1.326	1.518	1.305	1.308	1.282	1.268	1.075	1.284	1.311	1.325	1.077
485.0	172.9	224.9	234.8	527.8	1920	875.1	304.0	308.1	298.7	283.6	275.9	261.3	232.0	208.1	180.8	161.9	148.6	140.4	132.8	129.2	126.4	122.4	122.6	122.5	125.8	123.8	122.1	123.8	122.9	120.2	113.9	105.1	92.67	82.54	72.41	63.13	54.99	49.04	49.37	48.16	35.12	24.83	20.32	16.65	13.57	11.46	9.296	7.639	7.657	9.415	15.06	72.12	373.1	501.5	27.04	2.457	1.663	1.605	1.463	1.456	1.467	1.413	1.402	1.482	1.372	1.377	1.282	1.314	1.152	1.173	1.207	1.132	1.133	1.187	1.062	1.163	0.990
490.0	130.7	245.0	228.7	306.6	1173	1694	396.1	282.1	273.7	265.0	256.7	235.7	213.2	190.4	164.4	147.2	135.7	127.8	120.2	116.5	112.0	111.1	109.5	110.0	112.4	112.2	110.6	112.1	111.3	108.9	104.0	95.60	84.69	76.59	67.48	60.39	52.37	45.70	42.74	43.41	39.84	28.71	20.84	17.65	14.37	12.54	10.16	8.319	6.872	6.366	6.951	19.31	97.55	298.7	415.2	118.3	9.390	1.671	1.517	1.454	1.493	1.335	1.284	1.390	1.337	1.253	1.195	1.229	1.197	1.288	1.195	1.124	1.148	1.035	1.067	1.104	1.052
495.0	109.7	217.9	236.4	234.3	487.7	1765	1038	258.8	248.9	237.9	232.3	215.9	193.5	172.3	148.7	134.9	122.9	114.1	109.0	104.6	100.1	98.08	97.20	98.18	99.53	98.34	99.08	99.81	99.15	95.99	94.01	86.84	78.26	70.55	62.57	55.71	49.32	43.84	38.79	35.82	36.52	33.06	23.24	18.29	15.36	12.40	10.71	8.976	7.305	6.073	5.470	7.740	24.62	69.78	194.6	487.1	193.7	10.21	1.603	1.474	1.382	1.282	1.313	1.150	1.148	1.236	1.114	1.209	0.958	1.121	1.010	1.084	1.113	0.972	0.956	0.949	0.904
500.0	88.67	166.4	276.3	211.8	271.5	1137	1728	322.6	228.5	222.2	213.0	199.2	177.6	154.6	137.7	124.6	112.0	104.4	98.79	94.68	89.10	88.15	88.98	88.28	89.35	88.84	89.15	90.46	88.61	87.75	85.53	79.28	71.99	65.44	57.57	52.44	46.26	41.26	36.12	32.53	30.98	33.77	26.68	18.52	15.03	12.63	10.31	9.035	7.665	6.505	5.279	5.279	8.531	18.41	48.78	254.2	508.0	150.6	4.454	1.423	1.353	1.225	1.262	1.036	1.110	1.201	1.083	1.155	0.937	0.943	1.031	0.993	1.034	0.967	0.975	0.911	0.936
505.0	76.40	136.6	263.4	211.8	209.6	567.5	2010	668.6	214.9	206.8	198.7	182.0	164.1	146.1	125.9	113.3	100.4	94.33	87.40	86.84	80.02	80.35	80.65	81.10	82.90	81.13	80.90	80.59	80.27	80.41	77.03	72.43	66.03	59.78	53.88	49.18	43.01	38.45	34.55	29.96	27.25	29.27	28.76	20.54	14.85	12.62	10.49	9.123	7.739	6.997	5.336	4.618	5.070	6.825	13.40	66.34	331.4	458.8	29.60	2.310	1.267	1.215	1.189	1.113	1.100	1.005	0.976	1.069	0.952	0.910	0.873	0.818	0.985	1.001	0.865	0.823	0.966
510.0	73.33	109.0	203.1	239.6	182.1	270.7	1277	1565	269.3	185.8	176.2	161.0	143.8	128.0	110.6	98.77	90.48	84.33	78.65	75.39	71.36	70.83	70.48	70.69	70.77	70.04	69.72	70.86	70.37	70.93	68.63	64.63	58.71	52.53	47.46	43.69	39.06	34.44	30.90	28.07	25.12	23.37	25.29	23.01	16.94	12.52	10.59	9.022	7.601	6.791	5.781	4.819	4.332	4.249	5.585	17.05	85.24	259.2	288.8	119.0	8.848	1.335	1.132	1.085	0.954	0.950	0.903	0.884	0.880	0.838	0.741	0.760	0.825	0.860	0.833	0.780	0.841
515.0	70.24	90.11	135.8	242.4	181.5	176.0	472.1	1889	839.5	163.2	153.9	141.1	126.6	110.2	97.98	85.89	77.87	73.85	68.35	65.20	61.78	59.80	60.62	60.46	61.26	60.55	60.62	60.59	60.30	61.31	58.89	55.38	51.06	46.52	42.11	38.68	34.63	30.98	27.93	25.03	22.08	20.23	19.46	21.51	19.14	13.47	10.16	8.774	7.470	6.409	5.472	5.076	4.193	3.666	3.825	6.272	21.14	59.92	132.9	370.7	173.9	8.919	1.264	1.072	0.970	0.931	0.767	0.766	0.872	0.763	0.741	0.725	0.737	0.744	0.663	0.738	0.647
520.0	60.48	87.71	109.2	204.3	200.6	151.1	216.7	1283	1646	215.0	139.7	127.3	114.2	101.1	87.63	76.06	69.78	65.25	60.68	56.67	56.13	54.79	53.63	54.02	54.02	53.92	54.63	54.98	53.75	54.08	51.80	49.89	45.74	41.48	38.14	34.42	31.10	28.58	25.56	23.52	20.25	17.83	16.83	17.81	19.47	15.27	10.25	8.355	6.998	6.178	5.399	4.926	4.251	3.821	3.210	3.542	6.876	15.20	32.91	185.3	369.9	120.4	4.147	1.052	0.964	0.808	0.808	0.784	0.852	0.674	0.658	0.704	0.739	0.755	0.544	0.666	0.668
525.0	56.12	69.20	99.28	155.4	218.6	140.7	150.1	597.7	2114	509.4	128.1	119.4	104.1	89.57	78.66	70.36	63.04	59.97	56.07	51.06	50.07	48.75	47.75	48.53	49.11	49.08	48.42	48.17	48.07	48.20	47.97	44.96	41.20	37.37	35.12	31.51	28.34	25.73	23.71	21.34	19.02	16.49	14.88	15.03	16.96	16.37	11.46	8.363	6.670	6.137	5.041	4.621	4.467	3.703	3.228	2.831	3.421	4.968	9.013	47.11	222.8	327.0	29.98	1.810	0.898	0.831	0.759	0.722	0.654	0.697	0.596	0.670	0.619	0.670	0.530	0.530	0.674
530.0	48.85	60.78	85.38	113.2	191.2	155.7	121.7	231.5	1404	1501	179.3	104.6	92.37	77.94	69.66	61.25	55.09	51.30	48.29	45.08	43.28	41.58	41.27	40.89	42.33	41.94	41.38	41.38	41.76	41.78	40.85	38.31	35.75	33.48	30.19	27.63	25.08	22.65	20.70	18.81	16.83	15.07	13.31	12.78	12.88	14.52	13.21	8.894	6.561	5.648	4.812	4.480	4.107	4.019	3.170	2.761	2.565	2.733	3.410	11.87	56.09	173.8	226.0	108.9	8.437	0.957	0.716	0.770	0.692	0.616	0.547	0.628	0.565	0.594	0.555	0.521	0.578
535.0	47.01	62.54	78.50	88.03	130.3	178.3	112.4	127.1	477.1	1950	688.7	92.15	78.21	68.17	60.12	51.79	47.71	44.28	41.12	37.94	37.15	36.39	35.05	35.61	36.05	34.89	34.51	35.41	35.45	35.19	34.35	33.12	30.36	27.84	25.73	23.61	21.73	19.38	18.22	16.83	14.38	13.26	11.80	11.20	10.40	10.94	12.35	10.44	6.987	5.394	4.492	4.010	3.689	3.500	3.434	2.889	2.615	2.332	2.280	4.048	13.69	40.06	87.26	252.4	143.4	8.432	0.826	0.760	0.668	0.583	0.571	0.533	0.500	0.601	0.498	0.433	0.591
540.0	45.03	58.94	68.76	73.61	97.52	179.1	120.5	96.22	181.5	1320	1523	115.5	68.38	60.88	52.27	45.83	41.52	38.42	35.09	33.31	31.96	31.85	31.79	32.08	30.18	30.99	30.70	30.65	31.13	30.97	29.97	28.53	26.57	23.87	22.73	20.82	19.19	17.48	15.57	15.02	13.67	11.85	10.50	9.991	9.016	8.716	9.924	10.74	8.039	5.172	4.141	3.581	3.367	3.036	3.302	3.025	2.497	2.120	1.983	2.088	4.179	9.964	21.25	114.0	261.8	33.44	3.567	0.780	0.565	0.553	0.520	0.479	0.536	0.577	0.498	0.467	0.543
545.0	44.54	47.43	64.25	64.93	73.97	140.9	141.2	87.40	100.4	568.4	2059	215.1	61.53	52.95	47.73	41.32	37.63	33.95	31.18	29.85	27.03	27.09	27.37	27.66	26.88	26.80	26.29	26.84	27.18	27.07	25.92	25.61	23.31	21.30	19.77	18.47	16.99	15.22	14.19	13.15	12.03	10.87	9.318	8.955	8.327	7.444	7.636	9.383	8.589	5.693	4.139	3.557	2.975	3.036	2.616	2.988	2.693	2.014	1.743	1.659	2.142	3.235	5.742	28.31	139.6	217.7	29.65	1.545	0.590	0.533	0.514	0.499	0.529	0.486	0.539	0.453	0.538
550.0	49.72	49.74	54.29	58.80	57.63	94.87	150.6	85.88	73.78	192.7	1334	1207	93.85	45.20	38.54	34.04	31.51	28.69	26.71	25.24	23.41	23.11	22.65	22.47	22.58	21.96	21.79	22.32	22.17	22.72	21.74	20.91	19.38	17.73	17.15	15.34	14.14	13.05	12.07	10.98	10.31	9.194	8.477	7.625	7.198	6.576	6.068	6.706	7.504	6.355	4.428	3.144	2.701	2.730	2.378	2.462	2.555	2.063	1.690	1.474	1.488	1.653	2.212	7.166	34.35	106.4	158.1	82.62	8.139	0.689	0.519	0.539	0.478	0.492	0.455	0.423	0.419
555.0	45.98	46.83	49.64	46.81	46.81	57.64	124.6	106.3	60.08	86.87	417.1	1763	423.5	38.97	33.07	28.41	25.66	24.43	22.24	20.31	18.98	19.09	18.18	18.48	18.01	17.81	18.32	18.10	18.14	17.97	17.51	17.23	15.36	14.33	14.18	12.71	11.83	10.37	10.43	8.916	8.180	7.494	7.349	6.036	6.151	5.268	4.936	4.767	5.193	6.223	4.794	3.308	2.486	2.251	1.968	2.158	1.974	1.919	1.920	1.404	1.329	1.237	1.297	2.420	8.450	24.45	53.94	156.7	105.6	7.954	0.579	0.505	0.398	0.428	0.396	0.391	0.367
560.0	40.65	47.70	52.69	43.11	43.04	45.44	88.72	127.1	56.95	58.63	138.9	1202	1109	52.08	27.69	23.89	21.51	20.25	18.04	17.69	16.52	15.83	15.42	15.50	15.61	15.00	15.08	15.15	15.22	15.07	14.88	13.93	12.83	12.41	11.54	10.60	9.825	8.984	8.743	7.736	6.989	6.467	6.398	5.523	5.072	4.858	4.246	4.109	4.014	4.942	4.814	3.775	2.289	2.021	1.847	1.817	1.656	1.693	1.967	1.572	1.183	1.062	1.054	1.258	2.639	6.062	13.06	62.89	160.1	33.95	3.512	0.588	0.441	0.381	0.366	0.384	0.359
565.0	38.18	52.51	47.36	39.67	38.19	42.23	59.25	129.3	68.17	47.80	65.05	485.4	1621	136.3	24.42	21.09	19.31	17.52	15.47	14.39	14.00	13.95	12.75	13.29	13.08	12.27	12.54	12.80	13.16	13.19	12.18	11.53	11.13	10.20	9.787	9.057	8.024	7.478	7.396	6.677	5.886	5.762	5.194	4.832	4.265	4.127	3.672	3.418	3.329	3.508	4.281	3.768	2.492	1.874	1.850	1.529	1.520	1.449	1.664	1.812	1.190	0.983	1.071	0.986	1.384	2.005	3.502	15.30	73.88	132.4	29.64	1.521	0.449	0.501	0.362	0.369	0.399
570.0	42.08	50.45	45.34	37.08	34.86	32.47	41.99	90.97	94.91	43.60	46.16	148.0	1074	848.3	41.98	17.30	15.87	14.26	12.67	11.86	11.48	11.00	10.55	10.55	10.55	10.29	10.07	10.32	10.35	10.08	10.09	9.578	9.167	8.532	7.675	7.397	6.781	6.075	5.966	5.511	4.967	4.767	4.339	3.893	3.745	3.546	3.131	2.906	2.602	2.496	2.906	3.470	2.768	1.995	1.593	1.335	1.424	1.208	1.416	1.469	1.490	1.179	1.025	0.866	0.932	1.146	1.458	4.118	17.88	55.96	92.24	56.15	7.360	0.489	0.370	0.329	0.337
575.0	42.46	48.72	46.07	32.81	27.74	26.14	31.84	50.90	107.5	52.91	38.20	60.03	321.4	1274	129.6	15.68	12.44	11.28	10.36	9.440	8.971	8.964	8.435	8.518	8.379	7.963	7.941	7.825	8.399	7.952	7.675	7.192	7.407	6.497	6.574	5.769	5.690	5.052	4.918	4.502	4.059	3.844	3.603	3.174	3.161	2.570	2.582	2.368	2.154	2.097	1.881	2.434	2.875	2.355	1.379	1.202	1.197	1.073	1.112	1.145	1.297	1.502	1.209	0.850	0.802	0.976	0.948	1.576	4.553	12.89	27.41	82.11	70.61	7.156	0.472	0.358	0.353
580.0	37.45	44.59	48.20	34.01	25.32	23.67	25.79	33.03	93.36	74.96	36.59	39.71	97.29	865.3	716.9	22.28	11.06	10.29	8.839	8.153	7.820	7.298	7.128	6.988	6.880	6.941	6.699	6.977	7.146	6.486	6.850	6.056	6.146	5.503	5.181	4.807	4.552	4.152	4.177	3.776	3.521	3.404	2.914	2.876	2.559	2.425	2.268	2.052	1.870	1.697	1.594	1.859	2.271	2.290	1.579	1.149	1.060	0.976	0.990	0.997	1.030	1.275	1.361	0.860	0.776	0.844	0.839	1.037	1.687	3.506	6.824	29.17	90.31	33.87	3.387	0.411	0.335
585.0	40.56	42.05	44.66	33.56	25.45	22.80	24.94	28.82	63.59	95.80	38.17	33.39	43.07	336.1	1112	80.84	9.507	8.620	7.901	7.422	6.992	6.503	6.327	6.202	5.855	5.666	5.614	5.785	6.039	5.621	5.893	5.336	5.395	4.718	4.249	4.154	4.132	3.528	3.392	3.324	2.909	2.717	2.426	2.373	2.274	2.030	1.976	1.832	1.600	1.457	1.432	1.457	1.789	2.231	1.969	1.361	0.958	0.886	0.867	0.887	0.838	0.954	1.173	1.085	0.743	0.832	0.771	0.907	0.887	1.246	2.081	7.206	36.51	80.10	28.60	1.480	0.329
590.0	39.35	39.96	41.65	30.59	24.26	20.81	22.60	24.04	36.93	91.03	56.50	33.01	29.21	97.46	713.3	521.6	18.23	7.048	6.667	6.400	5.663	5.497	5.221	4.782	4.871	4.881	4.735	4.814	4.845	4.616	4.656	4.512	4.320	3.817	3.726	3.440	3.234	2.960	2.728	2.653	2.362	2.282	2.036	1.844	1.990	1.709	1.663	1.519	1.416	1.236	1.130	1.139	1.233	1.624	1.855	1.615	0.999	0.822	0.762	0.812	0.774	0.759	0.922	1.112	0.964	0.760	0.714	0.776	0.726	0.829	0.914	2.073	8.807	29.89	53.99	38.55	5.841
595.0	45.04	35.62	35.42	31.17	19.03	18.83	18.64	22.47	29.04	62.18	76.54	34.17	25.99	35.57	203.8	790.3	87.76	6.407	5.383	5.072	4.546	4.429	4.297	3.654	3.744	3.882	3.914	3.704	3.733	3.799	3.862	3.717	3.329	3.090	2.974	2.846	2.651	2.427	2.362	2.211	1.923	1.954	1.738	1.674	1.594	1.423	1.385	1.282	1.202	1.075	0.993	1.014	0.944	1.098	1.394	1.571	1.176	0.953	0.677	0.773	0.670	0.674	0.691	0.809	0.996	0.823	0.639	0.657	0.606	0.599	0.561	0.862	2.344	6.945	14.52	43.76	36.17
600.0	40.81	43.57	37.93	32.43	16.90	18.91	19.56	20.87	26.38	40.99	84.64	42.15	26.55	23.15	58.15	534.9	413.0	9.650	4.661	4.222	4.087	3.934	3.662	3.472	3.114	3.152	3.053	2.988	3.016	3.452	3.101	3.096	2.864	2.596	2.574	2.381	2.269	2.117	1.906	1.802	1.515	1.647	1.461	1.462	1.447	1.163	1.206	1.066	0.988	0.986	0.883	0.816	0.688	0.867	0.999	1.296	1.197	0.954	0.664	0.640	0.678	0.593	0.546	0.679	0.861	0.909	0.656	0.633	0.615	0.540	0.504	0.629	0.851	1.837	3.519	14.11	46.06
605.0	38.36	35.48	35.19	26.90	17.37	19.58	19.26	22.17	24.47	32.60	80.65	53.08	26.91	20.49	23.91	211.3	644.2	45.02	4.102	3.855	3.512	3.223	3.298	2.857	2.686	2.740	2.554	2.680	2.554	2.670	2.544	2.651	2.351	2.368	2.072	2.072	2.010	1.818	1.591	1.632	1.442	1.512	1.283	1.158	1.261	1.018	1.071	0.956	0.830	0.789	0.783	0.676	0.612	0.756	0.783	1.042	1.082	1.031	0.768	0.618	0.620	0.584	0.515	0.557	0.656	0.796	0.821	0.526	0.502	0.486	0.518	0.531	0.608	0.690	1.079	3.501	17.23
610.0	37.13	37.97	33.62	23.87	17.11	18.37	17.73	20.86	23.75	29.37	52.68	71.69	32.57	19.97	16.55	58.54	439.0	310.8	9.099	3.321	3.067	2.619	2.694	2.465	2.486	2.260	2.350	2.344	2.345	2.232	2.212	2.138	1.934	1.912	1.734	1.609	1.657	1.520	1.298	1.313	1.170	1.229	1.062	1.111	1.044	0.925	0.849	0.842	0.719	0.678	0.681	0.622	0.549	0.637	0.567	0.659	0.924	0.974	0.817	0.594	0.513	0.537	0.508	0.530	0.527	0.584	0.729	0.785	0.537	0.442	0.514	0.427	0.489	0.446	0.518	1.109	4.165
615.0	33.03	29.82	29.59	22.53	17.83	16.52	17.29	18.43	22.25	27.76	36.49	68.33	43.25	20.32	14.50	19.64	128.7	491.9	63.35	3.146	2.518	2.353	2.661	2.133	2.005	1.883	1.864	1.973	2.001	1.867	1.709	1.870	1.541	1.564	1.648	1.185	1.360	1.372	1.170	1.076	0.950	0.909	0.988	0.872	0.753	0.766	0.785	0.726	0.709	0.564	0.579	0.498	0.503	0.550	0.472	0.510	0.644	0.799	0.791	0.636	0.547	0.502	0.516	0.493	0.464	0.459	0.599	0.647	0.690	0.455	0.431	0.501	0.415	0.406	0.353	0.525	1.184
620.0	33.60	35.92	25.79	20.98	15.84	14.92	17.47	18.45	19.85	26.73	30.04	54.41	57.10	22.10	13.54	10.82	35.84	352.6	253.6	4.603	2.403	2.351	2.305	1.832	1.682	1.530	1.670	1.691	1.820	1.530	1.523	1.765	1.323	1.230	1.333	1.328	1.031	1.114	1.046	0.880	0.926	0.886	0.891	0.718	0.736	0.741	0.710	0.615	0.561	0.513	0.529	0.470	0.445	0.417	0.478	0.404	0.520	0.729	0.756	0.699	0.493	0.452	0.553	0.440	0.443	0.372	0.471	0.529	0.671	0.449	0.458	0.386	0.408	0.338	0.325	0.340	0.489
625.0	29.77	29.47	27.32	23.66	16.17	15.47	17.44	19.39	20.51	27.12	26.66	40.17	59.88	24.91	13.84	9.433	13.33	145.4	419.5	24.65	2.244	2.148	1.822	1.562	1.484	1.546	1.524	1.344	1.504	1.303	1.224	1.350	1.213	1.189	1.195	1.164	1.072	1.006	0.894	0.712	0.935	0.822	0.630	0.681	0.675	0.608	0.608	0.570	0.494	0.486	0.472	0.461	0.419	0.352	0.464	0.399	0.437	0.517	0.652	0.698	0.564	0.405	0.465	0.406	0.468	0.451	0.456	0.448	0.569	0.617	0.496	0.428	0.365	0.320	0.298	0.321	0.363
630.0	35.46	29.08	28.75	21.07	14.74	14.79	16.34	17.57	19.82	23.43	26.47	30.30	52.96	35.96	13.71	9.326	8.239	39.91	314.5	170.8	4.442	1.757	1.628	1.461	1.356	1.257	1.415	1.148	1.161	1.123	1.149	1.002	1.118	1.059	0.936	0.864	0.867	0.897	0.784	0.683	0.720	0.670	0.646	0.549	0.511	0.529	0.567	0.526	0.444	0.411	0.376	0.367	0.428	0.345	0.385	0.396	0.416	0.403	0.494	0.634	0.566	0.476	0.412	0.386	0.411	0.361	0.435	0.396	0.416	0.537	0.569	0.431	0.337	0.312	0.278	0.279	0.325
635.0	28.37	26.74	29.64	22.69	14.08	16.80	17.06	18.49	18.52	22.55	24.54	27.09	36.51	46.47	17.57	9.773	7.393	13.17	96.47	339.2	41.18	1.414	1.414	1.393	1.180	1.011	1.078	0.994	1.070	1.026	0.981	0.879	0.891	0.915	0.701	0.741	0.692	0.727	0.557	0.659	0.599	0.535	0.474	0.490	0.492	0.474	0.500	0.409	0.421	0.353	0.357	0.328	0.345	0.359	0.308	0.300	0.355	0.369	0.390	0.451	0.551	0.514	0.423	0.368	0.328	0.411	0.430	0.383	0.397	0.428	0.474	0.527	0.380	0.301	0.266	0.253	0.300
640.0	26.93	26.88	26.20	20.44	13.51	16.86	16.60	17.46	17.42	24.14	24.10	26.21	29.00	45.19	23.25	10.79	8.083	7.830	26.87	272.7	161.2	2.196	1.350	1.262	1.173	0.991	0.919	0.844	1.007	0.961	0.849	0.815	0.830	0.686	0.722	0.632	0.542	0.652	0.499	0.537	0.463	0.479	0.503	0.438	0.476	0.384	0.395	0.401	0.409	0.365	0.323	0.257	0.333	0.354	0.339	0.374	0.336	0.346	0.339	0.379	0.486	0.478	0.464	0.429	0.370	0.391	0.397	0.401	0.353	0.418	0.368	0.502	0.426	0.350	0.281	0.323	0.322
645.0	30.74	32.00	23.57	18.16	15.09	13.93	15.97	16.24	20.00	22.89	25.53	25.85	25.86	38.86	30.28	11.80	8.615	6.994	9.769	125.1	287.0	12.47	1.342	1.249	1.143	0.941	0.739	0.865	0.860	0.803	0.716	0.729	0.714	0.687	0.642	0.478	0.557	0.610	0.506	0.534	0.504	0.499	0.490	0.479	0.447	0.475	0.343	0.390	0.404	0.304	0.276	0.282	0.315	0.316	0.315	0.331	0.342	0.422	0.381	0.349	0.456	0.495	0.516	0.421	0.352	0.375	0.333	0.324	0.380	0.347	0.318	0.428	0.469	0.455	0.276	0.321	0.308
650.0	30.67	30.19	28.70	18.12	14.90	14.11	13.84	16.01	19.81	21.00	24.47	25.71	24.92	31.38	34.79	13.13	8.575	7.055	5.819	37.74	295.0	56.54	1.450	1.145	0.875	0.794	0.799	0.790	0.870	0.719	0.668	0.758	0.653	0.649	0.673	0.480	0.497	0.549	0.481	0.527	0.485	0.409	0.457	0.369	0.405	0.378	0.337	0.406	0.357	0.275	0.310	0.305	0.310	0.289	0.294	0.318	0.280	0.322	0.321	0.272	0.370	0.405	0.471	0.325	0.334	0.341	0.364	0.375	0.342	0.317	0.328	0.330	0.465	0.516	0.360	0.272	0.317
