Sample:	'1
File name:	支脉河打鱼渔张河汇入后11.FD3
Run date:	'19:08:16, 06/11/2025
Operator:	Administrator
Comment:	'

Instrument
Model:	F-2700 FL Spectrophotometer
Serial number:	23B8-004
ROM Version:	4J14000 07

Instrument parameters
Measurement type:	3-D scan
Data mode:	Fluorescence
EX  Start WL:	220.0 nm
EX  End WL:	600.0 nm
EX Sampling interval:	5.0 nm
EM  Start WL:	230.0 nm
EM  End WL:	650.0 nm
EM Sampling interval:	5.0 nm
Scan speed:	12000 nm/min
EX Slit:	5.0 nm
EM Slit:	5.0 nm
PMT Voltage:	700 V
Response:	Auto 
Corrected spectra:	Off
Contour interval:	50.000

Peak integration
Integration method:	Rectangular
Sensitivity:	1
Threshold:	1.000

Peaks
No.	ApexEX/EM(nm)	Height(Data)
1	225.0/335.0	541.7
2	225.0/560.0	41.44
3	225.0/570.0	38.17
4	225.0/600.0	32.55
5	230.0/345.0	553.6
6	230.0/415.0	407.5
7	230.0/500.0	255.5
8	235.0/375.0	435.3
9	235.0/405.0	413.0
10	235.0/510.0	218.7
11	240.0/260.0	381.7
12	240.0/415.0	403.0
13	240.0/525.0	195.9
14	245.0/270.0	375.4
15	245.0/535.0	174.8
16	250.0/275.0	436.1
17	250.0/425.0	388.7
18	250.0/550.0	139.9
19	255.0/280.0	583.7
20	255.0/440.0	375.7
21	255.0/560.0	125.3
22	260.0/285.0	587.0
23	260.0/435.0	379.5
24	260.0/575.0	101.1
25	265.0/290.0	572.2
26	265.0/585.0	99.23
27	270.0/300.0	789.6
28	270.0/595.0	80.88
29	275.0/305.0	931.3
30	275.0/375.0	319.4
31	275.0/610.0	66.57
32	280.0/310.0	778.6
33	280.0/335.0	394.7
34	280.0/625.0	58.63
35	285.0/315.0	733.3
36	285.0/635.0	41.97
37	290.0/325.0	634.9
38	295.0/330.0	479.8
39	300.0/335.0	436.5
40	305.0/340.0	368.4
41	310.0/350.0	296.4
42	315.0/355.0	274.8
43	320.0/360.0	266.3
44	325.0/370.0	232.1
45	330.0/375.0	225.2
46	335.0/380.0	231.2
47	345.0/395.0	181.1
48	350.0/400.0	186.3
49	355.0/405.0	172.9
50	365.0/420.0	150.6
51	370.0/425.0	138.2
52	380.0/440.0	106.7
53	385.0/445.0	95.98
54	400.0/465.0	56.87
55	405.0/470.0	46.02
56	410.0/475.0	38.67
57	415.0/485.0	34.17
58	420.0/490.0	29.01
59	425.0/495.0	25.27
60	430.0/505.0	21.67
61	435.0/510.0	17.66
62	440.0/515.0	15.98
63	445.0/525.0	13.57
64	450.0/530.0	11.08
65	460.0/545.0	7.336
66	470.0/560.0	4.394
67	480.0/260.0	2.024
68	485.0/265.0	2.320
69	495.0/270.0	2.100
70	505.0/275.0	2.958
71	515.0/280.0	3.368
72	520.0/285.0	3.608
73	530.0/290.0	3.410
74	540.0/295.0	4.477
75	545.0/300.0	5.247
76	555.0/305.0	4.901
77	560.0/310.0	4.075
78	575.0/315.0	4.156
79	580.0/290.0	37.28
80	580.0/320.0	4.442
81	585.0/325.0	4.069

Data points
	220.0	225.0	230.0	235.0	240.0	245.0	250.0	255.0	260.0	265.0	270.0	275.0	280.0	285.0	290.0	295.0	300.0	305.0	310.0	315.0	320.0	325.0	330.0	335.0	340.0	345.0	350.0	355.0	360.0	365.0	370.0	375.0	380.0	385.0	390.0	395.0	400.0	405.0	410.0	415.0	420.0	425.0	430.0	435.0	440.0	445.0	450.0	455.0	460.0	465.0	470.0	475.0	480.0	485.0	490.0	495.0	500.0	505.0	510.0	515.0	520.0	525.0	530.0	535.0	540.0	545.0	550.0	555.0	560.0	565.0	570.0	575.0	580.0	585.0	590.0	595.0	600.0
230.0	55.79	554.0	2224	1060	65.73	5.669	4.309	3.451	3.313	2.686	2.365	2.340	1.865	1.629	1.496	1.127	0.955	0.899	0.868	0.733	0.697	0.619	0.578	0.530	0.545	0.465	0.488	0.419	0.430	0.396	0.438	0.387	0.355	0.372	0.304	0.292	0.283	0.314	0.289	0.323	0.328	0.500	0.595	0.424	0.290	0.249	0.492	3.043	7.056	6.566	3.010	0.793	0.241	0.225	0.198	0.217	0.234	0.193	0.199	0.188	0.202	0.183	0.173	0.183	0.218	0.214	0.188	0.202	0.191	0.209	0.180	0.205	0.185	0.182	0.169	0.181	0.209
235.0	153.9	178.2	1029	2324	627.4	109.5	5.854	4.761	2.957	2.856	3.055	2.390	1.852	1.525	1.780	1.176	1.056	1.196	0.881	0.881	0.740	0.650	0.659	0.595	0.515	0.488	0.504	0.407	0.433	0.506	0.437	0.390	0.400	0.351	0.302	0.306	0.272	0.326	0.247	0.295	0.327	0.327	0.529	0.550	0.638	0.424	0.362	0.920	2.241	4.080	7.099	8.562	5.163	1.460	0.294	0.232	0.232	0.192	0.183	0.198	0.176	0.214	0.188	0.156	0.160	0.204	0.227	0.212	0.201	0.196	0.191	0.199	0.162	0.156	0.197	0.192	0.166
240.0	192.0	182.3	293.4	1441	2580	522.7	55.85	5.658	3.804	2.827	3.476	2.351	2.007	2.066	1.693	1.100	1.213	1.109	0.765	0.820	0.812	0.710	0.526	0.569	0.509	0.600	0.580	0.534	0.419	0.404	0.403	0.358	0.376	0.313	0.263	0.330	0.295	0.344	0.278	0.243	0.330	0.323	0.358	0.428	0.612	0.803	0.687	0.574	0.682	1.191	2.868	7.965	12.24	10.05	4.423	0.947	0.250	0.178	0.217	0.213	0.184	0.207	0.211	0.174	0.146	0.207	0.203	0.173	0.217	0.204	0.204	0.187	0.162	0.155	0.177	0.241	0.164
245.0	112.1	267.3	186.0	422.8	2081	2853	395.7	25.84	5.067	3.450	3.563	2.594	2.292	2.111	1.933	1.284	1.158	0.995	0.800	1.102	0.711	0.706	0.526	0.674	0.495	0.611	0.573	0.424	0.471	0.419	0.377	0.360	0.366	0.408	0.343	0.349	0.300	0.317	0.310	0.272	0.309	0.259	0.339	0.383	0.412	0.595	0.917	0.955	0.512	0.467	0.796	2.320	6.244	12.13	14.88	9.894	3.334	0.550	0.270	0.240	0.185	0.192	0.216	0.195	0.176	0.190	0.206	0.181	0.252	0.177	0.215	0.197	0.199	0.183	0.201	0.208	0.178
250.0	44.25	156.8	279.9	243.7	600.7	2006	3082	1339	101.9	6.612	4.149	4.126	2.874	2.359	1.844	1.447	1.406	1.172	1.039	0.967	0.753	0.796	0.628	0.763	0.514	0.565	0.538	0.542	0.449	0.487	0.451	0.438	0.374	0.381	0.346	0.353	0.338	0.333	0.347	0.359	0.312	0.328	0.334	0.306	0.318	0.350	0.482	0.817	0.962	0.942	0.767	0.837	1.680	3.504	6.889	11.43	15.62	15.73	10.50	3.640	0.514	0.223	0.213	0.202	0.183	0.239	0.185	0.210	0.228	0.220	0.199	0.200	0.198	0.181	0.219	0.184	0.188
255.0	28.59	53.02	148.5	368.4	280.0	490.7	1629	4520	1925	127.0	6.958	4.836	3.946	2.732	2.410	1.579	1.499	1.430	1.093	1.063	0.832	0.841	0.611	0.644	0.717	0.598	0.577	0.526	0.473	0.492	0.499	0.402	0.427	0.414	0.443	0.327	0.302	0.298	0.378	0.347	0.319	0.266	0.294	0.311	0.284	0.345	0.432	0.368	0.429	0.784	1.186	1.491	1.019	1.104	1.788	2.809	4.611	10.11	22.64	27.87	16.24	4.482	0.515	0.263	0.208	0.263	0.182	0.176	0.245	0.258	0.192	0.211	0.208	0.217	0.232	0.229	0.228
260.0	26.04	26.69	54.11	260.2	381.7	205.9	436.7	2697	5496	1528	70.86	6.768	4.554	3.510	2.594	2.092	1.642	1.396	1.282	1.270	1.240	0.839	0.774	0.663	0.705	0.649	0.615	0.576	0.425	0.648	0.445	0.457	0.392	0.473	0.403	0.365	0.329	0.264	0.321	0.295	0.285	0.324	0.353	0.323	0.279	0.372	0.298	0.288	0.309	0.359	0.585	1.430	2.024	1.389	0.831	0.885	1.387	2.715	7.773	18.74	30.78	27.80	14.36	2.586	0.347	0.296	0.219	0.283	0.227	0.238	0.195	0.218	0.245	0.231	0.214	0.245	0.222
265.0	31.26	26.99	27.54	100.7	367.2	325.5	148.3	771.0	4072	6000	1116	25.15	5.906	4.599	3.292	2.450	1.814	1.579	1.311	1.227	0.979	0.940	0.781	0.619	0.689	0.704	0.547	0.581	0.605	0.629	0.449	0.479	0.418	0.496	0.541	0.436	0.344	0.331	0.288	0.313	0.260	0.277	0.358	0.345	0.331	0.352	0.283	0.248	0.315	0.276	0.333	0.621	1.496	2.320	1.799	0.905	0.666	0.886	2.121	5.018	12.46	26.81	38.65	25.58	9.716	1.400	0.317	0.266	0.249	0.270	0.182	0.213	0.276	0.281	0.189	0.209	0.286
270.0	31.93	30.02	27.08	38.60	148.8	375.4	331.6	241.5	1126	3975	6267	2513	69.14	7.207	4.537	3.134	2.255	1.868	1.444	1.299	1.069	1.062	0.795	0.788	0.757	0.706	0.605	0.692	0.649	0.528	0.484	0.570	0.491	0.471	0.528	0.415	0.391	0.383	0.308	0.381	0.360	0.277	0.385	0.391	0.339	0.358	0.300	0.326	0.261	0.265	0.257	0.338	0.606	1.088	1.637	2.100	2.060	1.277	0.888	1.441	3.140	7.096	14.73	24.40	28.16	31.69	17.63	8.151	1.238	0.325	0.250	0.250	0.311	0.313	0.203	0.243	0.240
275.0	57.99	53.35	44.75	32.74	53.38	144.4	436.1	370.9	305.5	942.9	2898	8466	1308	80.17	6.909	4.592	3.021	2.463	1.674	1.838	1.368	1.119	0.928	0.858	0.862	0.743	0.749	0.732	0.644	0.568	0.641	0.605	0.555	0.521	0.506	0.480	0.423	0.370	0.404	0.492	0.352	0.339	0.384	0.339	0.376	0.388	0.390	0.458	0.364	0.297	0.272	0.356	0.381	0.476	0.674	0.929	1.855	2.958	2.525	1.263	1.030	1.892	3.626	5.808	7.438	15.40	33.62	50.35	27.44	9.747	0.887	0.316	0.338	0.322	0.285	0.254	0.247
280.0	91.66	79.12	68.18	38.79	38.09	63.35	221.5	583.7	280.5	257.6	753.2	4522	8631	1014	39.03	6.625	4.154	3.032	1.999	1.821	1.483	1.332	1.008	1.067	0.794	0.771	0.784	0.804	0.629	0.665	0.625	0.592	0.540	0.604	0.612	0.524	0.526	0.390	0.524	0.403	0.395	0.356	0.401	0.476	0.345	0.438	0.416	0.491	0.409	0.382	0.312	0.295	0.339	0.392	0.418	0.445	0.834	1.684	3.208	3.368	1.705	0.946	1.211	1.677	2.083	3.991	9.847	25.88	45.94	34.89	23.15	5.206	0.521	0.356	0.286	0.294	0.261
285.0	112.2	109.8	92.58	57.35	40.65	44.70	94.49	397.8	587.0	189.7	228.7	1230	6074	7773	673.7	15.26	5.285	3.619	2.633	1.948	1.759	1.539	1.324	1.169	0.910	0.789	0.778	0.816	0.779	0.692	0.656	0.607	0.603	0.690	0.686	0.545	0.680	0.500	0.530	0.445	0.434	0.425	0.487	0.481	0.425	0.525	0.525	0.634	0.501	0.468	0.413	0.365	0.363	0.355	0.391	0.387	0.451	0.727	1.539	2.735	3.608	2.599	1.114	0.736	0.904	1.446	2.582	6.447	15.09	30.45	54.01	32.70	16.76	2.485	0.360	0.294	0.325
290.0	166.8	166.3	139.4	85.51	58.88	53.52	65.40	159.8	459.0	572.2	207.5	375.4	1624	4895	6439	2063	36.75	5.468	3.474	2.574	2.080	1.679	1.348	1.246	1.001	0.947	0.822	0.890	0.721	0.678	0.686	0.605	0.620	0.662	0.735	0.662	0.717	0.707	0.605	0.521	0.473	0.480	0.518	0.547	0.534	0.567	0.592	0.699	0.638	0.508	0.469	0.430	0.450	0.391	0.433	0.425	0.400	0.577	0.768	1.141	1.912	2.928	3.410	2.789	1.632	1.056	1.184	2.057	3.910	7.737	16.92	24.98	37.28	36.04	30.41	11.77	2.674
295.0	210.8	233.6	190.8	123.3	78.97	69.95	74.07	104.6	198.6	505.8	703.6	262.2	485.6	1194	2846	7606	731.3	39.00	5.031	3.841	2.982	1.956	1.604	1.315	1.181	1.014	0.916	0.882	1.046	0.715	0.701	0.697	0.763	0.710	0.804	0.690	0.770	0.671	0.659	0.593	0.565	0.573	0.537	0.596	0.555	0.627	0.725	0.728	0.821	0.647	0.531	0.525	0.441	0.493	0.481	0.526	0.461	0.549	0.663	0.731	0.885	1.316	1.743	3.083	4.477	3.341	1.669	1.307	1.641	2.597	4.579	6.169	9.154	12.95	30.23	50.81	34.15
300.0	256.4	263.9	232.2	157.1	99.11	88.65	94.77	111.5	159.2	300.2	789.6	596.9	270.1	387.2	758.7	4111	5932	589.0	17.38	4.812	3.155	2.420	1.835	1.614	1.302	1.144	1.299	1.032	0.892	0.716	0.660	0.845	0.753	0.707	0.785	0.727	0.827	0.752	0.729	0.604	0.686	0.671	0.566	0.666	0.711	0.696	0.796	0.793	0.842	0.738	0.617	0.621	0.552	0.529	0.510	0.541	0.574	0.648	0.660	0.827	0.748	1.027	1.206	1.852	3.250	5.247	4.220	2.409	1.552	1.532	1.901	2.178	2.684	3.543	8.090	20.23	39.61
305.0	289.2	298.8	284.9	176.5	121.9	110.6	113.9	143.5	183.7	257.9	528.4	931.3	437.3	252.7	279.7	1117	4977	5149	79.39	8.206	3.683	2.990	2.066	1.780	1.673	1.437	1.126	1.027	0.939	0.813	0.731	0.737	0.830	0.787	0.802	0.783	0.740	0.800	0.742	0.705	0.736	0.678	0.598	0.685	0.737	0.985	0.849	0.860	0.872	0.803	0.652	0.639	0.725	0.602	0.708	0.674	0.790	0.780	0.824	0.951	1.026	1.213	1.294	1.455	2.041	3.290	4.636	4.901	3.271	1.904	1.368	1.447	1.463	1.512	2.480	5.267	11.40
310.0	286.5	335.5	302.4	204.7	139.5	129.2	144.9	173.3	206.3	267.4	377.2	652.2	778.6	403.7	207.9	340.0	1356	3943	4719	1421	23.01	4.191	3.050	2.066	1.958	1.535	1.408	1.134	1.046	0.922	0.773	0.832	0.756	0.838	0.843	0.877	0.799	0.785	0.774	0.756	0.808	0.712	0.702	0.803	0.838	0.909	0.819	1.119	0.936	0.809	0.741	0.748	0.754	0.672	0.689	0.720	0.847	0.889	0.952	1.050	1.095	1.232	1.425	1.571	1.743	1.943	2.580	3.456	4.075	3.981	2.964	1.909	1.443	1.253	1.361	1.902	3.172
315.0	324.7	361.7	333.2	220.9	163.6	144.8	160.9	193.5	230.5	280.9	353.5	443.4	595.9	733.3	312.5	187.4	381.5	944.2	2492	5950	516.3	22.13	4.264	2.867	2.141	1.859	1.503	1.150	1.267	1.007	0.950	0.718	0.900	0.838	0.803	0.828	0.946	0.729	0.722	0.698	0.792	0.733	0.691	0.878	0.777	0.945	0.939	1.165	1.058	0.920	0.712	0.739	0.829	0.708	0.688	0.785	0.836	0.924	1.001	1.037	1.151	1.212	1.599	1.563	1.640	1.727	1.889	2.321	2.544	2.971	3.884	4.156	2.846	1.737	1.289	1.289	1.313
320.0	356.1	394.9	366.8	249.9	178.0	159.4	176.3	203.4	239.8	291.7	350.2	405.7	448.7	653.1	560.2	199.4	182.7	271.7	646.1	3626	4244	412.1	9.724	3.690	2.667	2.057	1.732	1.471	1.181	1.067	0.922	0.928	0.914	0.929	0.809	0.764	0.951	0.853	0.915	0.815	0.808	0.759	0.842	0.842	0.941	0.968	1.014	1.247	1.284	0.998	0.855	0.916	0.865	0.769	0.789	0.898	0.908	1.059	1.124	1.093	1.308	1.220	1.521	1.594	1.759	1.777	1.747	2.122	1.958	2.241	2.779	3.486	4.442	3.496	1.691	1.196	1.070
325.0	375.9	458.0	419.9	294.2	197.9	170.1	185.0	211.1	241.3	298.6	359.6	394.8	400.1	458.0	634.9	345.2	151.5	131.2	184.9	991.5	4174	3737	59.59	5.520	3.201	2.556	1.979	1.597	1.159	1.165	0.941	1.026	0.875	0.779	0.902	0.900	0.872	0.797	0.841	0.754	0.863	0.788	0.796	0.900	0.983	1.085	1.248	1.473	1.416	1.195	1.101	1.072	0.940	0.874	0.829	0.780	0.953	1.011	1.175	1.012	1.237	1.243	1.587	1.654	1.659	1.737	1.918	1.948	2.065	2.026	2.139	2.454	3.185	4.069	3.441	2.182	1.323
330.0	389.0	496.0	491.4	371.6	244.8	192.7	193.9	212.5	250.8	296.6	350.6	395.7	389.7	378.9	429.0	479.8	279.8	119.2	92.71	257.9	1153	3260	3690	1046	17.54	3.584	2.471	1.775	1.479	1.428	1.208	1.030	1.049	0.827	0.907	0.916	0.720	0.792	0.830	0.850	0.785	0.801	0.799	0.839	0.948	1.144	1.265	1.442	1.491	1.270	1.189	1.219	1.087	1.032	0.933	0.829	0.985	1.056	1.100	1.196	1.267	1.341	1.472	1.582	1.660	1.876	1.952	1.958	2.139	1.969	1.970	1.939	2.102	2.371	3.036	3.137	2.856
335.0	413.4	541.7	536.9	423.5	287.6	217.7	209.8	220.8	253.5	295.7	354.8	392.0	394.7	362.5	331.6	334.9	436.5	229.8	89.18	106.1	288.9	768.0	2258	4775	418.9	18.29	3.417	2.210	1.827	1.628	1.284	0.959	1.166	0.851	0.867	0.870	0.726	0.825	0.779	0.767	0.832	0.765	0.752	0.903	0.948	1.159	1.321	1.568	1.592	1.452	1.160	1.341	1.261	1.112	1.041	0.885	1.032	0.976	1.236	1.329	1.238	1.381	1.389	1.668	1.651	1.788	1.842	1.955	2.059	2.001	2.125	1.938	1.984	1.927	2.098	2.135	2.503
340.0	411.9	524.9	540.1	443.8	312.4	233.6	218.4	228.2	255.8	300.5	348.1	385.0	386.1	350.9	313.3	268.6	348.5	368.4	136.6	79.43	103.2	199.8	587.4	3196	3477	343.7	7.285	3.054	2.256	1.694	1.409	1.341	1.063	0.841	1.037	0.866	0.943	0.728	0.841	0.764	0.945	0.815	0.804	0.881	0.922	1.242	1.272	1.733	1.693	1.500	1.289	1.447	1.350	1.149	1.110	1.040	1.143	1.106	1.209	1.266	1.336	1.218	1.362	1.588	1.676	1.726	1.910	1.823	1.964	1.890	2.062	1.837	1.870	1.880	1.807	1.670	1.876
345.0	405.8	513.6	553.6	452.5	328.1	259.4	227.0	236.3	261.4	298.1	334.8	367.2	371.8	347.3	297.4	245.6	244.6	358.2	253.1	86.41	68.49	78.13	155.5	893.6	3645	3087	51.31	4.620	2.740	2.132	1.606	1.301	1.078	1.011	1.056	0.872	0.929	0.761	0.788	0.774	0.784	0.721	0.723	0.772	1.033	1.300	1.233	1.685	1.652	1.512	1.231	1.433	1.398	1.203	1.222	1.107	1.241	1.115	1.190	1.195	1.271	1.395	1.384	1.510	1.640	1.708	1.641	1.653	2.017	1.812	1.965	1.895	1.710	1.717	1.635	1.503	1.547
350.0	377.6	477.7	522.3	450.0	342.2	275.8	246.2	244.5	260.0	290.4	323.3	351.7	353.3	331.1	288.9	242.7	211.6	236.5	296.4	201.9	85.51	61.33	68.83	225.2	1030	2711	3015	858.1	15.88	2.785	1.962	1.493	1.313	1.059	1.046	0.821	0.868	0.836	0.778	0.792	0.760	0.734	0.732	0.793	0.962	1.201	1.256	1.478	1.566	1.418	1.300	1.391	1.456	1.314	1.241	1.199	1.260	1.202	1.255	1.215	1.325	1.316	1.440	1.442	1.604	1.694	1.740	1.621	1.873	1.746	1.947	1.787	1.855	1.639	1.591	1.534	1.475
355.0	363.6	446.2	504.6	439.0	354.8	300.4	270.0	266.2	269.6	288.4	313.4	336.2	333.8	322.0	284.5	248.7	211.5	191.9	202.8	274.8	180.2	73.50	61.71	84.26	255.1	640.1	1857	3820	382.7	17.01	2.564	1.999	1.456	1.288	1.104	0.830	0.884	0.789	0.807	0.732	0.742	0.731	0.689	0.779	0.909	1.224	1.125	1.367	1.526	1.381	1.295	1.355	1.436	1.362	1.166	1.406	1.162	1.339	1.313	1.271	1.366	1.379	1.495	1.582	1.472	1.569	1.602	1.723	1.799	1.685	1.712	1.655	1.799	1.579	1.602	1.598	1.503
360.0	346.4	418.6	476.1	428.2	369.5	316.5	281.9	279.7	279.2	286.5	308.0	324.0	331.3	311.3	285.6	248.0	215.5	187.8	171.7	219.9	266.3	128.7	69.97	62.31	89.19	166.3	484.1	2605	3154	323.6	7.008	2.730	1.816	1.320	1.163	0.969	0.993	0.856	0.841	0.766	0.638	0.797	0.745	0.709	1.017	1.131	1.073	1.326	1.431	1.185	1.496	1.412	1.457	1.282	1.469	1.331	1.214	1.448	1.215	1.345	1.428	1.450	1.462	1.555	1.494	1.611	1.677	1.604	1.788	1.791	1.716	1.891	1.951	1.836	1.630	1.700	1.621
365.0	326.0	414.4	466.3	445.3	378.1	326.4	292.2	291.2	279.6	296.5	307.6	324.8	320.8	311.5	282.7	248.5	224.0	194.4	173.6	172.6	248.0	218.9	97.68	66.64	60.10	66.69	130.2	737.6	3115	2832	48.67	4.284	2.330	1.770	1.148	0.954	1.046	0.916	0.882	0.676	0.718	0.664	0.748	0.834	0.933	1.027	1.138	1.182	1.486	1.267	1.263	1.540	1.451	1.489	1.493	1.242	1.237	1.396	1.419	1.315	1.409	1.371	1.533	1.466	1.608	1.466	1.596	1.550	1.643	1.544	1.688	1.718	1.772	1.683	1.733	1.712	1.534
370.0	317.0	391.7	442.6	429.4	376.7	342.0	315.7	306.6	299.4	300.6	315.2	317.6	317.2	306.2	281.8	250.7	232.9	206.5	187.1	169.6	183.3	232.1	191.0	97.87	66.25	56.02	59.69	187.5	877.0	2409	2751	820.4	14.70	2.344	1.609	1.206	1.004	1.016	0.871	0.775	0.755	0.752	0.838	0.837	0.825	0.959	1.084	1.205	1.323	1.158	1.183	1.500	1.398	1.563	1.474	1.314	1.441	1.511	1.482	1.421	1.451	1.443	1.478	1.568	1.551	1.536	1.582	1.571	1.723	1.554	1.719	1.730	1.706	1.704	1.670	1.643	1.650
375.0	319.2	388.6	426.9	435.3	396.0	361.1	336.7	321.5	310.7	316.0	318.7	319.4	311.7	298.4	280.1	256.2	236.0	216.5	200.6	178.7	168.3	175.2	225.2	183.3	90.19	65.10	54.98	73.86	218.0	569.5	1650	3426	336.2	15.79	2.172	1.499	1.259	1.121	0.909	0.755	0.722	0.757	0.834	0.805	0.910	0.931	0.944	1.310	1.364	1.144	1.205	1.446	1.474	1.563	1.455	1.355	1.554	1.540	1.515	1.491	1.522	1.467	1.558	1.471	1.584	1.615	1.687	1.741	1.571	1.606	1.698	1.638	1.627	1.749	1.668	1.751	1.616
380.0	304.3	382.2	418.7	426.6	400.7	370.9	346.2	334.7	318.7	317.4	323.8	316.4	311.5	294.7	276.8	258.2	239.2	223.6	207.7	186.2	171.6	160.7	184.5	231.2	138.8	78.70	59.83	54.67	76.54	148.0	429.5	2264	2725	278.4	7.124	1.889	1.462	1.176	1.029	0.847	0.821	0.755	0.758	0.810	0.969	0.959	0.945	1.251	1.291	1.232	1.127	1.364	1.493	1.489	1.584	1.475	1.577	1.735	1.572	1.608	1.576	1.659	1.707	1.528	1.631	1.659	1.461	1.703	1.584	1.490	1.721	1.613	1.524	1.593	1.630	1.600	1.501
385.0	297.0	384.4	420.4	422.3	403.5	387.0	361.7	342.1	332.8	331.2	329.8	317.9	306.2	293.1	271.8	253.1	241.6	230.1	212.4	193.9	177.0	161.8	156.9	204.0	200.4	105.6	69.91	57.13	51.12	58.61	115.5	625.8	2460	2374	40.62	3.481	1.894	1.331	1.105	1.016	0.795	0.767	0.864	0.915	0.993	1.031	0.919	1.155	1.187	1.206	1.192	1.433	1.533	1.622	1.593	1.455	1.739	1.640	1.698	1.517	1.609	1.643	1.729	1.600	1.572	1.526	1.333	1.682	1.653	1.609	1.730	1.728	1.503	1.750	1.554	1.624	1.610
390.0	306.8	380.8	418.5	418.9	399.8	392.0	367.6	359.1	342.5	332.9	332.0	320.7	306.2	286.7	271.1	255.0	241.2	229.1	216.3	203.0	183.0	170.5	154.6	161.7	191.1	173.4	100.1	66.60	54.42	46.51	50.66	158.1	670.1	1802	2080	670.6	13.30	1.814	1.358	1.163	1.053	0.917	0.849	0.904	0.975	1.006	0.964	1.113	1.211	1.170	1.200	1.453	1.551	1.630	1.731	1.588	1.843	1.684	1.821	1.736	1.589	1.683	1.676	1.739	1.602	1.599	1.532	1.693	1.693	1.562	1.671	1.627	1.581	1.720	1.620	1.582	1.689
395.0	306.9	389.4	402.1	419.6	394.4	389.6	384.6	362.3	351.7	340.1	334.8	317.5	302.1	289.8	268.0	251.6	238.5	233.0	214.5	202.0	190.2	175.9	163.6	153.1	151.6	181.1	163.7	91.41	63.84	53.75	43.87	59.32	165.5	421.2	1122	2462	286.8	16.67	1.930	1.373	1.249	1.032	1.024	1.022	0.972	1.051	1.046	1.166	1.280	1.193	1.150	1.471	1.566	1.542	1.540	1.561	1.834	1.682	1.845	1.736	1.671	1.608	1.710	1.729	1.517	1.567	1.560	1.536	1.650	1.546	1.664	1.566	1.533	1.749	1.686	1.565	1.653
400.0	304.2	367.8	410.0	408.4	407.1	395.1	389.9	368.7	355.9	346.1	335.8	326.9	304.5	289.4	264.9	249.7	236.0	226.7	216.6	204.0	193.2	178.0	168.5	154.8	141.2	150.5	186.3	134.3	77.97	59.94	48.02	42.99	57.51	108.1	283.9	1455	2212	257.4	9.463	1.766	1.423	1.112	1.073	0.991	1.030	1.057	1.021	1.188	1.232	1.240	1.230	1.387	1.699	1.534	1.680	1.615	1.814	1.587	1.741	1.698	1.591	1.638	1.726	1.802	1.559	1.541	1.557	1.525	1.614	1.588	1.519	1.529	1.619	1.505	1.732	1.512	1.625
405.0	288.3	356.6	393.4	413.0	402.6	397.0	398.8	377.5	363.9	350.3	337.0	327.8	298.4	282.1	264.5	244.7	236.4	225.0	214.0	205.4	195.1	181.0	169.7	158.8	143.8	139.4	160.6	172.9	105.2	69.95	55.72	44.63	37.84	41.20	76.50	384.1	1659	1962	198.1	4.053	1.499	1.137	1.147	0.944	1.036	0.984	1.016	1.214	1.196	1.192	1.306	1.433	1.764	1.535	1.569	1.521	1.887	1.661	1.840	1.906	1.716	1.864	1.756	1.772	1.714	1.654	1.639	1.561	1.580	1.487	1.488	1.507	1.542	1.539	1.651	1.691	1.660
410.0	298.9	351.0	387.7	407.1	400.4	396.7	394.4	385.7	374.3	354.0	338.6	321.8	299.4	278.0	258.8	237.2	230.8	219.3	210.5	201.8	191.6	179.8	170.1	161.0	147.5	137.9	135.7	156.4	151.7	98.85	66.23	51.48	39.20	31.97	33.73	98.10	431.6	1263	1634	604.4	13.88	1.685	1.259	1.137	1.139	1.050	1.102	1.242	1.206	1.245	1.258	1.320	1.579	1.488	1.539	1.599	1.788	1.782	1.822	1.820	1.698	1.746	1.770	1.733	1.652	1.703	1.687	1.491	1.639	1.577	1.565	1.495	1.564	1.579	1.508	1.623	1.557
415.0	308.9	346.5	407.5	387.5	403.0	394.4	391.9	382.3	376.8	359.8	342.8	328.5	294.6	277.7	252.5	229.9	220.1	215.7	202.1	193.9	185.8	177.0	169.5	161.7	149.4	139.3	131.9	128.8	146.3	145.0	87.42	58.94	44.52	34.53	27.32	36.51	106.8	292.6	729.3	1805	267.5	18.88	1.760	1.254	1.173	1.085	1.027	1.208	1.209	1.157	1.086	1.406	1.411	1.522	1.683	1.759	1.907	1.696	1.860	1.786	1.730	1.736	1.734	1.944	1.597	1.587	1.706	1.691	1.571	1.648	1.538	1.459	1.570	1.438	1.384	1.543	1.590
420.0	286.1	348.6	395.0	388.6	384.0	385.9	385.2	380.8	376.8	362.3	347.5	324.0	295.6	267.3	244.5	224.2	212.0	203.0	192.3	189.9	179.2	174.2	166.1	160.6	148.5	140.7	129.6	121.5	127.4	150.6	118.5	68.93	50.19	39.43	28.93	25.74	35.89	74.08	178.5	928.7	1679	249.7	11.41	1.685	1.238	1.277	1.135	1.269	1.292	1.194	1.032	1.484	1.413	1.671	1.581	1.721	1.769	1.627	1.790	1.892	1.708	1.935	1.684	1.979	1.597	1.699	1.642	1.692	1.703	1.587	1.559	1.603	1.474	1.371	1.487	1.403	1.579
425.0	297.0	335.9	393.7	377.3	365.7	379.5	388.7	381.2	373.7	364.2	349.7	319.0	292.8	262.7	238.7	217.8	206.5	195.6	185.2	181.5	173.7	168.7	164.7	158.5	149.5	141.6	130.8	123.4	117.8	129.0	138.2	90.49	55.48	41.57	31.77	24.97	22.22	26.36	47.59	234.6	1072	1550	205.1	5.196	1.627	1.293	1.176	1.293	1.254	1.201	1.147	1.285	1.443	1.505	1.587	1.498	1.673	1.664	1.874	1.860	1.807	1.882	1.718	1.650	1.683	1.712	1.750	1.630	1.554	1.510	1.599	1.379	1.393	1.367	1.442	1.484	1.457
430.0	412.3	326.2	378.9	375.8	374.0	378.3	379.0	380.3	377.8	370.9	352.6	319.3	293.8	258.2	234.6	210.7	197.7	188.5	180.1	175.2	167.5	164.3	159.5	156.2	148.2	139.8	134.1	124.9	117.9	114.0	122.6	119.6	77.36	49.18	36.62	28.84	22.38	18.60	19.89	59.69	267.6	848.5	1264	560.8	14.87	1.776	1.435	1.361	1.212	1.164	1.116	1.253	1.475	1.464	1.521	1.553	1.732	1.770	1.661	1.721	1.815	1.775	1.795	1.638	1.728	1.615	1.678	1.578	1.548	1.522	1.510	1.344	1.488	1.344	1.435	1.427	1.360
435.0	763.1	351.1	356.5	362.9	364.7	368.2	369.6	374.3	379.5	371.9	361.3	322.3	289.9	255.4	225.2	204.4	187.7	180.1	172.3	167.9	160.2	157.6	156.6	150.4	145.5	138.2	134.1	126.0	120.3	112.8	105.5	110.9	105.9	66.31	42.66	33.93	25.36	19.91	16.38	21.88	66.48	195.6	477.0	1425	872.1	21.19	1.862	1.541	1.401	1.266	1.117	1.362	1.606	1.436	1.547	1.566	1.687	1.699	1.677	1.885	1.858	1.845	1.851	1.629	1.712	1.590	1.576	1.486	1.454	1.528	1.519	1.376	1.426	1.284	1.457	1.383	1.409
440.0	942.6	493.4	326.0	351.5	357.1	358.2	365.1	375.7	372.8	365.0	357.3	321.3	290.3	251.3	223.8	196.4	178.9	173.9	164.4	160.3	157.1	152.6	149.0	146.4	142.1	137.5	133.0	125.3	121.1	111.3	102.6	96.12	106.7	87.90	50.63	36.52	28.12	21.82	16.72	14.82	22.27	49.66	115.1	648.5	1580	245.7	14.09	1.863	1.428	1.315	1.169	1.253	1.477	1.367	1.540	1.575	1.644	1.702	1.614	1.789	1.852	1.798	1.775	1.820	1.930	1.862	1.617	1.535	1.473	1.607	1.408	1.441	1.237	1.335	1.410	1.302	1.434
445.0	957.4	822.3	331.6	339.2	344.9	346.2	354.0	373.6	371.0	359.0	349.9	319.3	280.0	243.5	213.6	190.9	173.3	167.8	159.7	153.7	149.7	146.3	144.1	141.4	137.4	133.5	130.2	123.2	117.8	109.1	100.7	90.21	90.60	95.98	64.56	39.40	30.84	23.00	18.22	15.45	13.46	17.97	31.42	159.0	844.4	1438	198.9	9.111	1.650	1.284	1.318	1.401	1.388	1.392	1.408	1.374	1.597	1.689	1.779	1.771	1.952	1.858	1.776	1.638	1.833	1.851	1.533	1.603	1.362	1.498	1.485	1.400	1.296	1.417	1.392	1.277	1.468
450.0	589.0	1298	575.1	329.3	319.2	336.9	345.7	349.2	358.9	349.8	338.6	306.8	266.3	230.2	203.2	179.7	163.6	155.5	147.4	143.7	140.0	136.8	136.0	132.0	130.8	127.6	122.8	118.8	115.8	108.6	100.2	86.00	78.54	80.64	77.05	53.68	34.27	25.46	20.60	16.80	13.39	12.23	13.20	40.88	205.2	696.7	1147	608.4	13.78	1.835	1.455	1.422	1.332	1.445	1.385	1.441	1.566	1.720	1.565	1.676	1.715	1.744	1.670	1.666	1.738	1.638	1.611	1.531	1.421	1.444	1.282	1.347	1.214	1.242	1.304	1.176	1.285
455.0	300.0	1095	1235	351.7	311.0	308.7	321.1	330.1	339.8	331.1	326.2	294.5	253.7	215.1	191.9	167.7	150.5	141.6	136.6	131.0	125.8	126.7	123.2	122.1	120.7	116.6	115.0	112.6	109.9	101.3	95.10	85.03	74.68	66.68	67.26	66.55	42.67	28.31	22.23	18.26	15.04	12.31	9.809	14.76	50.64	159.7	368.6	1133	786.6	18.60	1.893	1.574	1.380	1.500	1.266	1.232	1.477	1.596	1.563	1.522	1.530	1.656	1.496	1.592	1.579	1.650	1.535	1.402	1.487	1.368	1.276	1.296	1.071	1.308	1.200	1.179	1.286
460.0	234.7	664.9	1689	594.1	288.8	296.9	295.4	306.1	322.1	316.4	310.3	278.7	239.2	206.7	181.2	157.6	142.7	130.9	127.6	120.3	116.9	118.3	114.3	114.9	112.0	111.2	109.8	105.4	104.2	98.83	91.42	81.45	69.85	61.82	56.90	63.54	53.93	32.67	23.14	19.26	15.77	12.54	10.23	9.905	16.27	39.96	87.22	452.8	1263	572.3	13.56	1.880	1.479	1.543	1.475	1.489	1.498	1.611	1.568	1.608	1.434	1.470	1.509	1.612	1.386	1.436	1.415	1.408	1.311	1.375	1.279	1.177	1.161	1.175	1.094	1.179	1.143
465.0	215.7	343.1	1559	950.9	294.3	275.3	287.9	293.4	307.6	305.2	292.3	262.4	229.6	194.5	169.2	147.8	133.8	122.9	117.5	113.9	110.0	107.7	107.5	106.2	105.4	104.8	101.9	100.2	98.64	95.64	87.24	77.33	67.83	59.16	51.52	52.03	56.87	40.28	25.12	20.06	16.44	13.14	11.04	9.123	8.935	13.69	23.50	108.7	627.6	1166	169.2	10.14	1.750	1.414	1.561	1.329	1.542	1.457	1.462	1.639	1.510	1.470	1.558	1.571	1.466	1.277	1.418	1.439	1.310	1.156	1.292	1.327	1.164	1.232	1.110	1.037	0.998
470.0	240.5	236.4	827.1	1673	537.9	250.3	261.2	271.1	281.6	277.6	269.3	246.4	211.8	179.7	155.2	134.0	120.6	113.3	106.2	102.3	99.33	96.56	96.62	95.49	95.06	93.81	91.97	90.32	90.50	87.05	81.66	72.12	64.81	55.02	48.02	43.23	45.50	46.02	32.68	21.53	16.73	13.79	11.42	9.567	8.283	8.257	9.525	28.01	150.8	512.5	788.6	481.3	14.53	1.768	1.534	1.299	1.334	1.404	1.415	1.495	1.374	1.386	1.429	1.474	1.484	1.326	1.268	1.270	1.287	1.131	1.207	1.151	1.033	1.125	0.959	0.968	1.024
475.0	244.4	217.9	347.5	1339	1388	276.9	239.0	245.0	254.4	246.5	244.1	226.4	191.1	165.6	140.2	120.2	108.3	101.4	97.22	89.96	88.17	87.70	84.91	85.81	84.89	84.58	81.83	80.88	81.49	78.49	73.98	67.18	59.01	51.06	45.41	38.08	35.84	38.51	38.67	26.64	17.49	14.06	11.71	10.13	8.805	7.907	6.834	10.01	37.01	117.2	239.0	736.1	576.5	21.00	1.578	1.370	1.357	1.293	1.304	1.235	1.404	1.354	1.254	1.341	1.288	1.089	1.250	1.156	1.159	1.141	1.164	1.046	0.987	0.930	0.956	0.867	1.001
480.0	240.1	233.9	230.7	736.9	1870	497.7	217.2	225.3	239.6	234.2	227.8	210.3	179.6	155.3	132.8	112.8	103.5	94.38	87.74	82.81	81.93	80.01	77.21	77.89	78.37	77.16	76.35	75.82	75.37	73.40	69.09	63.29	55.42	49.02	43.26	36.19	32.25	31.44	36.17	32.04	19.78	14.17	11.97	10.70	8.854	8.170	6.501	6.338	11.80	29.19	56.55	273.1	888.3	215.6	14.74	1.528	1.313	1.224	1.302	1.283	1.424	1.201	1.213	1.335	1.143	1.083	1.295	1.174	0.999	1.040	1.045	0.904	0.835	0.846	0.858	0.834	0.845
485.0	198.7	268.9	210.6	350.0	1682	1082	219.1	216.1	224.3	225.8	216.6	196.3	169.3	146.1	122.2	104.7	96.49	87.56	83.45	78.27	77.58	74.11	74.07	73.49	71.65	72.91	71.25	70.14	70.95	69.17	65.37	60.62	53.18	46.61	40.77	35.10	30.31	27.64	30.20	34.17	25.11	15.57	12.45	10.83	9.235	7.954	7.265	6.173	6.667	9.798	15.35	65.66	423.1	843.0	191.9	8.592	1.575	1.378	1.213	1.230	1.252	1.190	1.308	1.314	1.176	1.182	1.136	1.023	1.005	1.077	0.924	0.926	0.875	0.763	0.867	0.860	0.777
490.0	151.0	256.5	209.1	213.3	862.7	1729	503.3	196.9	207.9	203.7	196.0	178.3	158.6	135.1	113.9	98.44	87.52	81.63	76.31	71.90	70.29	67.13	66.33	66.82	65.02	66.28	64.84	64.52	63.77	63.04	60.13	55.56	48.34	42.88	38.82	33.29	29.50	26.42	24.47	27.79	29.01	20.49	13.34	11.36	9.667	8.475	7.543	6.564	5.675	5.568	6.247	17.28	101.0	359.7	689.4	455.1	15.86	1.888	1.288	1.264	1.292	1.156	1.218	1.101	1.114	1.130	1.055	0.958	1.019	0.978	0.892	0.873	0.846	0.753	0.799	0.742	0.752
495.0	120.5	195.6	239.3	172.7	334.7	1413	1331	218.7	188.0	192.7	179.9	164.9	144.3	123.6	102.9	91.21	78.61	74.41	68.09	65.70	61.84	61.60	58.72	60.30	58.50	58.13	58.42	57.92	58.14	57.62	53.96	50.02	44.48	39.67	35.91	31.25	27.83	25.21	21.36	21.25	24.24	25.27	17.22	11.46	9.832	8.695	7.423	6.830	5.962	4.873	4.442	6.471	24.82	82.35	217.3	719.5	601.0	23.07	1.510	1.225	1.051	1.121	1.163	1.030	1.074	1.113	0.988	0.822	0.838	0.802	0.842	0.752	0.789	0.715	0.753	0.671	0.701
500.0	112.8	149.2	255.5	177.1	193.3	761.0	1895	364.5	176.4	175.2	168.0	152.2	134.5	112.4	95.43	82.48	72.47	68.59	63.37	59.11	59.78	55.33	53.50	53.88	53.05	52.87	54.42	53.04	52.54	52.49	49.94	46.53	40.85	37.01	32.99	28.66	26.41	23.69	20.23	18.68	18.94	22.73	20.59	13.14	9.990	8.566	7.366	6.824	5.963	4.933	4.275	3.863	7.860	20.26	50.93	267.1	847.2	235.8	16.07	1.411	1.181	1.122	1.074	1.035	0.941	0.946	0.868	0.768	1.061	0.778	0.719	0.798	0.643	0.678	0.689	0.648	0.627
505.0	100.2	129.0	238.6	197.7	145.8	333.7	1799	919.7	169.2	162.0	154.6	141.0	125.8	103.3	88.52	75.67	67.01	62.10	58.20	53.92	53.54	50.61	49.70	49.09	48.31	48.63	48.15	48.52	49.33	47.21	45.20	42.69	37.64	34.02	30.22	27.05	24.36	21.88	19.13	17.64	16.07	18.10	21.67	15.54	10.23	8.535	7.235	6.717	5.836	5.173	4.174	3.373	4.136	6.465	13.41	63.50	381.9	787.2	205.9	8.474	1.308	1.160	0.940	1.012	0.830	0.923	0.871	0.811	0.899	0.704	0.686	0.786	0.636	0.618	0.663	0.657	0.588
510.0	84.51	103.7	164.0	218.7	136.5	169.1	910.3	1733	386.2	144.8	139.3	126.8	111.0	93.59	79.93	67.81	60.82	54.73	51.81	47.61	46.22	44.67	44.03	43.19	43.29	42.43	41.64	42.37	42.27	41.36	40.15	37.38	33.82	30.16	27.44	24.67	21.64	19.36	17.74	15.79	14.28	14.27	17.15	17.66	12.86	8.692	7.247	6.562	5.499	4.832	4.288	3.608	3.162	3.475	4.792	15.89	90.24	325.3	583.7	369.9	15.30	1.483	0.991	0.950	0.887	0.888	0.830	0.778	0.715	0.661	0.707	0.706	0.648	0.593	0.609	0.542	0.595
515.0	77.18	93.62	110.4	196.3	164.4	122.2	307.7	1536	1168	149.1	122.0	108.9	97.41	82.17	69.22	60.89	53.88	49.18	45.45	41.68	40.16	39.22	38.74	37.93	37.04	37.04	36.14	37.64	36.67	35.05	35.77	32.82	29.24	27.00	23.68	21.17	19.54	17.08	15.92	14.23	12.85	12.12	12.48	15.03	15.98	10.78	7.244	6.403	5.497	4.648	4.173	3.811	3.216	2.765	2.859	5.290	21.87	74.11	173.3	553.8	453.4	21.95	1.211	0.930	0.753	0.804	0.702	0.798	0.719	0.679	0.685	0.582	0.574	0.597	0.539	0.545	0.667
520.0	77.89	80.64	90.35	151.5	186.3	105.7	147.9	842.1	1893	260.0	108.2	102.6	87.94	75.30	63.44	55.28	48.80	44.11	40.67	38.01	36.49	35.30	34.58	34.27	32.83	32.98	33.55	33.36	32.58	32.44	32.26	29.41	26.21	23.67	21.49	18.88	18.22	16.37	14.57	13.29	12.44	11.05	10.74	11.45	14.63	12.90	8.110	6.048	5.118	4.578	4.058	3.677	3.501	2.882	2.288	2.761	6.444	18.03	40.55	204.6	621.9	229.9	14.31	1.138	0.717	0.705	0.744	0.818	0.610	0.631	0.688	0.515	0.580	0.563	0.546	0.532	0.538
525.0	68.54	70.36	78.41	112.4	195.9	116.2	101.4	332.9	1965	785.5	105.7	94.18	78.82	67.29	57.36	51.66	44.11	40.80	36.68	35.06	32.63	32.64	31.37	30.82	29.88	29.83	29.26	29.43	28.33	29.55	28.32	26.30	23.49	21.87	19.64	17.22	16.45	15.23	13.19	12.37	11.57	10.33	9.656	9.304	12.07	13.57	9.688	6.140	5.058	4.382	3.990	3.402	3.499	3.083	2.336	2.276	3.022	5.431	10.54	48.24	274.1	583.2	187.9	5.965	0.889	0.741	0.726	0.733	0.671	0.666	0.654	0.588	0.557	0.522	0.589	0.475	0.484
530.0	57.95	61.12	73.32	84.38	164.0	147.4	86.30	144.1	1025	1736	199.2	83.26	70.33	60.90	49.55	44.59	38.49	35.28	32.35	30.80	28.78	28.17	27.28	26.58	26.13	25.72	25.30	25.11	25.18	25.54	24.74	23.02	20.96	18.98	17.17	15.89	14.17	13.25	12.04	11.04	9.877	9.286	8.481	7.925	8.410	10.69	11.08	7.642	5.005	4.041	3.719	3.214	3.086	3.003	2.786	2.178	2.168	2.437	3.625	11.98	64.69	239.8	427.7	231.2	14.42	0.959	0.749	0.648	0.555	0.534	0.497	0.592	0.522	0.425	0.475	0.452	0.425
535.0	54.83	59.32	62.27	64.52	105.8	174.8	89.00	93.87	314.9	1662	1035	84.68	62.56	54.53	43.86	38.86	34.28	30.21	28.30	27.23	24.32	24.07	23.43	23.13	22.73	21.42	21.82	21.46	21.88	21.73	21.19	19.53	17.89	16.18	14.82	13.45	12.96	11.24	10.47	9.743	8.719	7.825	7.345	7.051	6.976	7.441	9.495	9.124	5.693	3.847	3.312	2.980	2.631	2.613	2.759	2.304	1.943	1.826	1.988	3.823	15.49	54.47	126.2	396.4	239.8	19.23	0.884	0.615	0.598	0.617	0.555	0.442	0.560	0.413	0.456	0.475	0.427
540.0	53.21	56.83	58.67	58.53	71.39	150.3	111.4	74.78	128.3	878.3	1840	163.5	54.09	48.60	38.70	35.29	29.12	26.56	24.58	23.38	21.71	20.64	20.58	20.07	20.38	18.99	18.84	19.21	18.81	18.71	18.36	17.42	16.19	14.48	13.14	11.87	11.21	10.32	9.188	8.587	8.025	7.240	7.005	6.195	6.085	5.843	7.199	8.999	6.430	4.132	3.164	2.811	2.437	2.309	2.419	2.578	2.086	1.686	1.557	1.780	4.458	13.16	29.40	146.3	427.4	209.2	11.55	0.660	0.646	0.535	0.534	0.451	0.605	0.371	0.420	0.372	0.410
545.0	47.94	49.18	52.24	54.23	51.81	111.6	134.8	64.46	80.25	316.0	1966	561.1	51.15	41.51	34.66	31.52	26.40	24.80	21.86	21.19	19.25	17.84	18.63	18.34	17.73	17.09	16.65	17.21	16.84	16.92	16.32	16.24	14.87	13.11	11.70	10.59	9.885	8.959	8.419	7.630	7.025	6.750	6.392	5.748	5.348	5.153	5.512	7.165	7.336	4.736	3.058	2.684	2.394	2.231	2.128	2.335	2.219	1.604	1.340	1.427	2.074	3.781	7.453	34.40	188.1	418.9	152.8	4.424	0.683	0.552	0.515	0.566	0.441	0.423	0.453	0.392	0.388
550.0	46.75	42.72	46.15	45.70	40.68	68.43	139.9	77.75	59.86	114.2	967.8	1519	115.5	35.72	30.16	25.56	22.56	20.31	18.36	17.36	15.98	15.66	15.34	14.90	15.19	14.52	14.49	14.01	14.16	14.31	13.28	13.02	12.15	10.75	9.551	9.216	8.514	7.551	7.253	6.334	6.036	5.710	5.282	4.974	4.540	4.419	4.195	4.799	6.047	5.451	3.727	2.488	2.136	2.013	1.755	1.824	2.012	1.962	1.442	1.279	1.310	1.681	2.459	8.420	44.31	163.7	293.2	139.0	13.58	0.691	0.530	0.494	0.434	0.360	0.390	0.374	0.384
555.0	42.92	39.53	37.53	40.40	34.77	45.03	99.41	108.9	50.45	59.94	271.2	1529	709.0	34.94	25.22	22.06	17.80	16.44	14.67	13.66	13.65	12.78	12.65	11.81	12.12	11.27	11.99	11.62	11.44	11.43	10.96	10.65	9.463	8.205	8.129	7.201	7.146	6.171	5.959	5.252	4.882	4.840	4.483	4.213	3.946	3.477	3.552	3.218	4.028	5.103	4.331	2.714	1.744	1.703	1.545	1.502	1.666	1.691	1.866	1.297	1.159	1.044	1.277	2.646	10.53	37.23	83.13	242.1	211.8	17.91	0.604	0.446	0.391	0.364	0.367	0.292	0.328
560.0	35.98	41.44	36.87	33.95	32.78	35.75	62.19	125.3	50.69	41.79	91.00	786.7	1394	83.30	22.21	18.77	15.93	13.77	13.11	11.78	11.79	10.82	10.71	9.823	10.09	9.886	9.333	9.522	9.920	9.594	9.123	8.572	7.943	7.525	6.517	6.311	5.559	5.158	5.124	4.575	4.118	4.102	3.850	3.526	3.298	3.035	2.925	2.628	2.957	3.720	4.394	3.210	1.996	1.521	1.616	1.394	1.453	1.426	1.801	1.342	1.066	0.876	0.858	1.269	2.948	8.900	19.22	85.30	271.2	160.4	9.985	0.490	0.399	0.349	0.314	0.333	0.343
565.0	33.20	36.63	34.94	27.18	30.27	28.48	40.58	113.6	66.98	35.74	46.16	267.9	1631	333.1	18.62	15.72	14.11	12.06	11.80	10.29	10.22	9.732	9.316	9.195	8.831	8.457	8.721	8.058	8.248	7.938	8.107	7.464	6.913	6.450	5.855	5.401	4.995	4.528	4.288	4.309	3.701	3.355	3.138	3.026	2.772	2.745	2.444	2.426	2.269	2.643	3.541	3.443	2.084	1.361	1.450	1.278	1.266	1.122	1.394	1.467	1.139	0.804	0.787	0.944	1.215	2.502	4.788	20.11	108.9	257.9	105.2	3.685	0.464	0.438	0.276	0.325	0.327
570.0	37.13	38.17	32.74	23.36	27.61	25.00	28.16	72.00	95.59	37.52	33.23	84.95	823.1	1098	64.80	13.56	12.03	10.43	9.457	8.516	8.092	7.403	7.444	7.345	7.055	6.799	6.933	6.582	6.655	6.563	6.633	6.010	5.630	5.213	4.971	4.508	4.142	3.844	3.500	3.412	3.157	2.837	2.720	2.580	2.494	2.344	2.101	2.029	1.913	1.845	2.176	2.879	2.442	1.622	1.306	1.072	1.049	0.925	0.943	1.200	1.200	0.977	0.744	0.771	0.760	1.045	1.503	4.999	25.40	92.96	172.3	103.1	12.78	0.556	0.309	0.289	0.305
575.0	35.35	35.15	33.07	22.83	23.75	20.28	22.60	37.57	101.1	58.27	27.58	40.68	225.1	1166	456.9	13.28	9.895	8.460	7.455	7.327	6.999	6.123	6.234	6.118	5.720	5.195	5.559	5.304	5.354	5.333	5.303	4.731	4.571	4.147	3.905	3.714	3.469	3.390	2.909	2.716	2.428	2.472	2.367	2.190	1.872	1.869	1.879	1.610	1.490	1.460	1.534	1.861	2.201	2.063	1.274	0.960	0.925	0.853	0.808	0.895	0.884	1.188	0.873	0.650	0.615	0.737	0.776	1.612	6.186	21.13	46.06	136.0	141.4	16.71	0.423	0.306	0.292
580.0	33.88	31.86	31.40	25.12	19.29	18.06	19.99	25.91	75.23	78.78	28.22	28.43	68.49	616.3	978.4	36.67	9.209	8.146	6.442	5.862	5.533	5.275	5.372	4.994	5.060	4.631	4.801	4.532	4.548	4.256	4.614	4.139	3.779	3.448	3.274	3.158	2.941	2.623	2.449	2.296	2.044	2.010	1.886	1.678	1.690	1.653	1.553	1.534	1.381	1.175	1.215	1.243	1.799	2.172	1.563	0.889	0.838	0.736	0.726	0.646	0.679	0.987	1.136	0.738	0.610	0.538	0.523	0.886	1.796	5.148	10.71	44.55	153.5	108.9	8.696	0.353	0.380
585.0	35.73	30.81	31.26	25.62	18.62	16.84	16.87	19.74	47.09	99.23	33.60	24.51	31.39	206.6	1167	107.7	8.262	6.669	5.410	5.518	4.997	4.619	4.660	4.332	4.474	4.072	3.915	3.949	3.793	3.775	3.746	3.313	3.409	3.284	2.773	2.679	2.420	1.979	2.059	1.913	1.852	1.628	1.605	1.585	1.467	1.368	1.337	1.311	1.183	1.184	0.886	0.970	1.254	1.829	1.605	1.066	0.737	0.741	0.742	0.576	0.598	0.727	1.074	0.900	0.583	0.496	0.526	0.603	0.797	1.471	2.712	10.45	56.50	152.0	35.70	3.619	0.335
590.0	34.66	32.18	26.14	22.69	17.80	15.91	15.62	16.08	27.08	80.77	56.70	23.62	22.20	61.62	589.2	666.5	31.45	5.841	4.879	4.544	4.117	3.915	3.859	3.360	3.538	3.389	3.216	3.216	3.161	3.072	3.292	2.832	2.601	2.485	2.287	2.192	2.071	1.847	1.950	1.722	1.621	1.427	1.399	1.314	1.198	1.199	1.061	1.102	0.972	0.925	0.820	0.827	0.898	1.206	1.560	1.365	0.830	0.678	0.679	0.583	0.525	0.531	0.716	0.935	0.743	0.503	0.416	0.467	0.548	0.674	0.937	2.700	13.12	51.25	92.65	70.55	12.22
595.0	35.97	26.77	24.63	20.08	15.05	14.61	13.47	15.12	18.76	45.18	80.88	27.52	19.11	25.02	154.8	776.3	240.1	5.610	4.298	3.969	3.519	3.247	3.246	2.691	2.617	2.815	2.503	2.753	2.500	2.685	2.562	2.310	2.233	1.909	1.839	1.749	1.727	1.675	1.483	1.459	1.245	1.258	1.152	1.122	1.187	0.987	0.955	0.863	0.793	0.771	0.809	0.803	0.644	0.735	1.098	1.229	0.921	0.654	0.576	0.475	0.428	0.454	0.488	0.632	0.890	0.737	0.481	0.431	0.385	0.486	0.498	0.833	3.132	11.71	23.66	74.81	91.69
600.0	28.76	32.55	26.29	18.55	15.15	13.62	14.01	13.97	17.81	26.99	79.47	40.29	20.55	17.33	43.23	431.4	575.2	15.80	3.983	3.552	2.935	2.654	2.934	2.299	2.425	2.592	2.197	2.063	2.270	2.255	2.208	1.990	1.898	1.779	1.596	1.537	1.406	1.269	1.193	1.160	1.042	1.210	1.034	1.026	0.976	0.878	0.932	0.801	0.734	0.666	0.680	0.673	0.580	0.644	0.773	1.031	1.138	0.827	0.568	0.437	0.456	0.480	0.407	0.499	0.655	0.748	0.642	0.436	0.344	0.394	0.357	0.490	0.887	2.829	5.547	22.20	86.84
605.0	40.07	31.44	29.78	17.53	15.15	12.39	14.54	14.47	17.10	21.55	62.77	54.90	21.74	14.95	18.48	144.6	729.3	70.99	3.642	3.006	2.940	2.383	2.582	2.167	2.155	2.051	1.778	1.881	1.875	1.898	1.943	1.709	1.569	1.535	1.443	1.293	1.188	1.241	1.081	1.051	0.986	0.992	0.909	0.917	0.827	0.798	0.697	0.705	0.768	0.551	0.564	0.527	0.613	0.553	0.525	0.778	1.052	0.822	0.661	0.425	0.441	0.344	0.398	0.493	0.519	0.584	0.826	0.495	0.329	0.358	0.293	0.362	0.431	0.911	1.599	5.260	29.30
610.0	34.14	28.58	24.55	19.46	14.33	12.34	14.29	14.22	17.19	21.44	38.37	66.57	28.89	16.25	13.24	41.15	404.8	409.7	16.53	2.873	2.422	2.430	1.950	1.794	1.770	1.619	1.557	1.721	1.722	1.787	1.567	1.521	1.360	1.371	1.206	1.092	0.996	1.050	0.916	1.002	0.805	0.739	0.810	0.736	0.741	0.700	0.641	0.566	0.624	0.524	0.511	0.452	0.473	0.463	0.418	0.535	0.758	0.823	0.747	0.483	0.415	0.397	0.376	0.392	0.407	0.410	0.636	0.626	0.494	0.317	0.306	0.320	0.317	0.465	0.620	1.457	6.901
615.0	34.01	27.96	25.65	18.18	13.77	11.79	11.91	13.54	15.83	20.07	26.50	57.16	46.13	16.45	12.03	15.87	107.9	514.4	77.46	2.646	2.261	2.156	1.708	1.575	1.397	1.345	1.384	1.491	1.511	1.384	1.359	1.320	1.233	1.054	1.123	0.883	0.892	0.840	0.863	0.845	0.674	0.688	0.660	0.669	0.553	0.633	0.483	0.473	0.497	0.476	0.435	0.423	0.375	0.371	0.452	0.434	0.474	0.649	0.734	0.489	0.459	0.366	0.316	0.387	0.354	0.373	0.526	0.601	0.617	0.447	0.275	0.345	0.282	0.394	0.350	0.585	1.726
620.0	33.54	28.06	20.43	16.37	14.02	10.93	11.56	13.33	14.67	18.51	21.29	41.33	58.50	18.52	11.97	9.601	30.73	308.1	348.3	7.019	1.847	1.799	1.617	1.520	1.282	1.158	1.269	1.392	1.249	1.293	1.107	1.051	1.143	0.906	0.894	0.843	0.818	0.701	0.915	0.768	0.664	0.596	0.515	0.540	0.518	0.488	0.492	0.423	0.496	0.388	0.348	0.322	0.381	0.400	0.345	0.375	0.340	0.531	0.681	0.599	0.466	0.354	0.357	0.376	0.356	0.265	0.380	0.438	0.611	0.534	0.386	0.312	0.293	0.270	0.312	0.324	0.573
625.0	29.44	24.79	21.04	14.67	13.44	9.972	12.18	13.44	14.21	17.89	19.93	28.60	58.63	23.47	11.80	8.535	11.72	107.8	491.1	45.18	1.822	1.664	1.626	1.225	1.180	1.155	0.973	1.126	1.045	1.058	1.090	0.959	0.968	0.901	0.781	0.738	0.666	0.806	0.744	0.586	0.609	0.542	0.470	0.475	0.364	0.492	0.487	0.488	0.443	0.376	0.302	0.256	0.338	0.352	0.289	0.352	0.366	0.390	0.486	0.616	0.488	0.334	0.327	0.367	0.326	0.357	0.336	0.342	0.499	0.540	0.428	0.359	0.314	0.285	0.260	0.279	0.387
630.0	32.32	27.38	20.71	16.72	12.32	10.47	10.74	12.55	13.14	16.49	18.29	23.23	42.85	35.67	12.34	7.852	7.266	28.95	294.9	270.7	7.288	1.690	1.312	1.142	1.043	1.012	0.902	0.865	0.982	0.937	0.866	0.782	0.823	0.842	0.686	0.603	0.619	0.701	0.611	0.511	0.488	0.462	0.494	0.479	0.466	0.445	0.396	0.406	0.349	0.298	0.302	0.324	0.287	0.352	0.281	0.328	0.357	0.381	0.362	0.473	0.503	0.363	0.338	0.324	0.340	0.342	0.323	0.356	0.362	0.435	0.478	0.406	0.277	0.265	0.320	0.274	0.293
635.0	31.04	26.14	21.25	16.96	12.31	9.698	11.10	11.97	12.32	14.19	17.93	19.00	25.74	41.97	17.09	8.130	6.464	10.24	78.83	381.3	59.18	1.476	1.061	0.968	1.026	0.837	0.795	0.778	0.888	0.848	0.712	0.719	0.621	0.616	0.637	0.495	0.522	0.559	0.467	0.455	0.412	0.487	0.423	0.430	0.421	0.426	0.342	0.332	0.342	0.262	0.243	0.260	0.252	0.330	0.299	0.305	0.234	0.387	0.337	0.397	0.539	0.392	0.359	0.323	0.282	0.307	0.273	0.325	0.246	0.330	0.371	0.505	0.406	0.329	0.288	0.188	0.257
640.0	25.96	23.97	23.15	15.67	13.11	10.72	10.38	10.80	12.30	13.64	17.39	18.60	20.44	37.35	24.05	8.140	6.292	5.756	20.67	249.5	231.1	3.742	1.090	0.876	0.879	0.923	0.701	0.816	0.623	0.735	0.611	0.645	0.557	0.494	0.552	0.508	0.476	0.464	0.466	0.420	0.369	0.438	0.387	0.372	0.375	0.347	0.292	0.280	0.312	0.283	0.267	0.245	0.231	0.267	0.318	0.307	0.253	0.313	0.289	0.323	0.385	0.435	0.363	0.309	0.245	0.316	0.282	0.310	0.244	0.330	0.277	0.525	0.481	0.352	0.269	0.228	0.221
645.0	29.53	25.29	21.00	12.96	12.68	10.74	10.22	12.30	11.86	13.63	16.60	19.23	18.32	27.61	31.41	8.995	6.317	4.746	7.115	93.34	347.8	28.17	1.090	0.950	0.754	0.778	0.787	0.746	0.605	0.621	0.634	0.589	0.520	0.458	0.534	0.482	0.472	0.463	0.447	0.401	0.402	0.409	0.314	0.350	0.382	0.313	0.316	0.339	0.322	0.263	0.232	0.234	0.243	0.254	0.267	0.259	0.270	0.243	0.279	0.284	0.272	0.381	0.392	0.324	0.272	0.300	0.256	0.233	0.237	0.320	0.314	0.386	0.420	0.479	0.273	0.248	0.262
650.0	31.73	21.32	20.73	15.01	10.43	10.93	11.88	10.44	11.78	13.34	16.60	18.78	17.25	19.32	31.78	12.29	6.200	4.522	3.811	25.44	296.2	124.7	1.582	0.946	0.714	0.689	0.780	0.628	0.717	0.611	0.658	0.551	0.515	0.425	0.465	0.483	0.471	0.425	0.369	0.388	0.392	0.340	0.374	0.371	0.393	0.291	0.308	0.281	0.303	0.248	0.208	0.234	0.233	0.257	0.206	0.247	0.228	0.247	0.244	0.272	0.254	0.377	0.413	0.330	0.288	0.284	0.266	0.234	0.291	0.291	0.308	0.293	0.366	0.462	0.323	0.299	0.213
