Sample:	'1
File name:	t2025052210联四沟张僧河交汇处北.FD3
Run date:	'14:40:04, 05/23/2025
Operator:	Administrator
Comment:	'

Instrument
Model:	F-2700 FL Spectrophotometer
Serial number:	23B8-004
ROM Version:	4J14000 07

Instrument parameters
Measurement type:	3-D scan
Data mode:	Fluorescence
EX  Start WL:	220.0 nm
EX  End WL:	600.0 nm
EX Sampling interval:	5.0 nm
EM  Start WL:	230.0 nm
EM  End WL:	650.0 nm
EM Sampling interval:	5.0 nm
Scan speed:	12000 nm/min
EX Slit:	5.0 nm
EM Slit:	5.0 nm
PMT Voltage:	700 V
Response:	Auto 
Corrected spectra:	Off
Contour interval:	50.000

Peak integration
Integration method:	Rectangular
Sensitivity:	1
Threshold:	1.000

Peaks
No.	ApexEX/EM(nm)	Height(Data)
1	225.0/575.0	62.32
2	225.0/630.0	46.07
3	230.0/345.0	1467
4	230.0/605.0	50.05
5	230.0/620.0	49.56
6	240.0/405.0	1061
7	245.0/530.0	246.0
8	250.0/545.0	198.1
9	255.0/280.0	518.4
10	255.0/420.0	1023
11	255.0/435.0	1034
12	255.0/560.0	162.7
13	260.0/285.0	538.4
14	260.0/425.0	1022
15	260.0/570.0	123.9
16	265.0/435.0	1029
17	265.0/585.0	116.4
18	270.0/300.0	939.1
19	270.0/410.0	1027
20	270.0/440.0	1025
21	270.0/595.0	99.34
22	275.0/305.0	1224
23	275.0/380.0	994.4
24	275.0/610.0	91.97
25	280.0/310.0	1197
26	280.0/335.0	1172
27	280.0/625.0	83.58
28	285.0/315.0	1149
29	285.0/635.0	64.83
30	315.0/355.0	506.5
31	320.0/365.0	519.5
32	460.0/335.0	4.543
33	505.0/275.0	2.868
34	515.0/280.0	2.886
35	515.0/440.0	4.808
36	520.0/285.0	3.598
37	530.0/290.0	3.510
38	540.0/295.0	4.831
39	545.0/300.0	5.763
40	555.0/305.0	6.249
41	560.0/310.0	6.274
42	570.0/315.0	6.373
43	580.0/320.0	6.138
44	585.0/325.0	6.005

Data points
	220.0	225.0	230.0	235.0	240.0	245.0	250.0	255.0	260.0	265.0	270.0	275.0	280.0	285.0	290.0	295.0	300.0	305.0	310.0	315.0	320.0	325.0	330.0	335.0	340.0	345.0	350.0	355.0	360.0	365.0	370.0	375.0	380.0	385.0	390.0	395.0	400.0	405.0	410.0	415.0	420.0	425.0	430.0	435.0	440.0	445.0	450.0	455.0	460.0	465.0	470.0	475.0	480.0	485.0	490.0	495.0	500.0	505.0	510.0	515.0	520.0	525.0	530.0	535.0	540.0	545.0	550.0	555.0	560.0	565.0	570.0	575.0	580.0	585.0	590.0	595.0	600.0
230.0	49.63	1075	3053	918.9	47.08	8.578	7.348	6.124	5.291	4.773	5.017	4.484	4.134	3.402	2.610	2.586	2.045	1.880	1.701	1.624	1.437	1.389	1.316	1.211	1.031	1.022	1.008	0.964	0.903	0.885	0.820	0.756	0.707	0.657	0.638	0.583	0.598	0.559	0.505	0.456	0.508	0.565	0.544	0.466	0.463	0.435	1.472	5.970	11.12	8.039	2.829	0.688	0.351	0.341	0.307	0.290	0.322	0.329	0.338	0.310	0.326	0.308	0.296	0.317	0.324	0.293	0.338	0.324	0.324	0.322	0.328	0.349	0.300	0.295	0.301	0.328	0.326
235.0	73.87	304.6	1902	3678	619.2	83.39	9.345	7.189	6.884	5.616	4.829	4.346	4.391	3.077	2.993	2.554	2.335	2.201	1.627	1.534	1.522	1.206	1.468	1.285	1.059	1.026	1.090	1.023	0.974	0.903	0.851	0.680	0.714	0.715	0.591	0.612	0.645	0.531	0.543	0.515	0.453	0.472	0.570	0.548	0.607	0.462	0.658	1.683	4.439	8.513	12.50	13.41	6.199	1.426	0.361	0.336	0.303	0.358	0.330	0.302	0.311	0.289	0.307	0.321	0.289	0.280	0.333	0.329	0.347	0.350	0.363	0.380	0.334	0.331	0.264	0.316	0.369
240.0	107.7	138.1	565.2	3024	4276	511.0	43.99	8.794	7.238	6.257	5.509	4.966	4.661	3.635	3.670	2.619	2.588	1.953	1.816	1.459	1.557	1.456	1.376	1.342	1.210	1.042	0.982	1.025	0.920	0.933	1.025	0.662	0.706	0.720	0.717	0.719	0.564	0.598	0.535	0.605	0.450	0.479	0.517	0.551	0.641	0.625	0.588	0.713	1.324	2.614	6.676	17.15	21.71	15.09	5.177	0.936	0.357	0.372	0.352	0.349	0.321	0.287	0.374	0.322	0.296	0.295	0.294	0.324	0.315	0.301	0.302	0.333	0.326	0.354	0.272	0.291	0.368
245.0	87.73	160.1	187.8	993.3	4447	3894	394.5	24.31	8.905	6.967	6.391	5.600	5.062	4.234	3.146	2.944	2.657	2.011	2.171	1.433	1.628	1.602	1.289	1.273	1.205	1.119	1.083	1.017	0.892	0.861	0.855	0.729	0.667	0.656	0.574	0.579	0.533	0.608	0.520	0.530	0.474	0.490	0.529	0.534	0.552	0.629	0.858	0.747	0.661	0.902	1.823	5.803	15.43	25.81	25.48	13.55	3.464	0.539	0.374	0.369	0.364	0.344	0.354	0.339	0.314	0.378	0.302	0.282	0.420	0.284	0.307	0.306	0.396	0.304	0.270	0.283	0.385
250.0	47.24	124.6	203.9	307.0	1362	4019	5081	1478	102.1	10.54	8.179	7.188	5.817	4.383	3.726	3.075	2.479	2.306	2.152	1.782	1.657	1.475	1.306	1.323	1.228	1.094	1.099	1.083	1.007	0.976	0.927	0.785	0.721	0.752	0.626	0.668	0.620	0.604	0.580	0.550	0.495	0.463	0.506	0.480	0.527	0.545	0.676	0.801	0.948	0.908	0.884	1.639	3.905	8.220	15.49	23.64	29.21	28.13	13.25	4.305	0.663	0.341	0.389	0.413	0.390	0.324	0.369	0.303	0.344	0.328	0.311	0.324	0.342	0.305	0.332	0.342	0.330
255.0	38.29	56.41	135.6	288.6	392.1	1001	3814	8931	2143	129.1	12.64	9.813	7.805	5.350	4.460	3.521	2.600	2.516	2.299	2.087	1.754	1.611	1.577	1.455	1.280	1.054	1.233	1.136	1.159	0.941	0.856	0.809	0.789	0.713	0.697	0.637	0.585	0.571	0.587	0.597	0.513	0.561	0.530	0.476	0.488	0.498	0.486	0.442	0.658	0.829	1.231	1.478	1.507	2.212	3.805	5.812	10.50	26.99	48.06	31.05	21.02	4.851	0.588	0.475	0.462	0.389	0.374	0.311	0.465	0.376	0.388	0.463	0.378	0.336	0.306	0.373	0.389
260.0	40.20	42.33	63.13	223.8	315.2	285.0	1106	6556	9999.9	1710	77.72	13.16	9.611	6.955	5.193	3.616	3.536	3.126	2.636	2.136	1.985	1.880	1.532	1.364	1.558	1.252	1.196	1.084	1.045	1.021	0.918	0.849	0.850	0.681	0.734	0.614	0.709	0.572	0.628	0.605	0.500	0.536	0.537	0.576	0.552	0.439	0.460	0.403	0.501	0.562	0.850	1.531	1.659	1.367	1.237	1.620	2.785	7.315	20.28	41.47	64.88	30.90	17.12	2.635	0.528	0.502	0.387	0.353	0.430	0.415	0.395	0.412	0.394	0.388	0.316	0.481	0.440
265.0	45.85	34.79	36.23	102.1	313.0	251.3	295.3	2056	9474	9999.9	1286	33.39	13.24	9.327	6.653	4.926	4.168	2.993	2.608	2.402	1.959	2.083	1.831	1.452	1.341	1.386	1.245	1.277	1.195	1.076	0.961	0.895	0.797	0.729	0.769	0.632	0.678	0.693	0.671	0.603	0.489	0.525	0.612	0.496	0.520	0.503	0.476	0.385	0.452	0.425	0.491	0.879	1.483	1.842	1.626	0.861	1.071	2.101	5.062	12.29	33.84	62.42	78.34	28.15	11.59	1.167	0.485	0.439	0.408	0.492	0.412	0.409	0.400	0.379	0.401	0.384	0.373
270.0	57.06	47.94	38.33	46.98	143.3	318.3	294.1	521.4	2783	8748	9999.9	4508	80.56	15.46	9.227	6.844	4.933	4.103	3.130	2.684	2.261	2.163	1.901	1.608	1.554	1.513	1.188	1.375	1.204	1.117	1.031	1.058	1.035	0.867	0.793	0.697	0.684	0.734	0.635	0.636	0.601	0.638	0.667	0.524	0.636	0.575	0.536	0.521	0.438	0.413	0.433	0.484	0.701	1.103	1.582	1.964	1.766	1.445	1.685	3.238	8.217	17.75	35.67	53.51	72.01	60.96	18.80	9.213	1.435	0.545	0.426	0.424	0.416	0.399	0.436	0.409	0.436
275.0	86.81	79.76	63.55	52.91	64.48	140.8	397.0	380.6	680.6	2086	6325	9999.9	6521	98.03	14.75	10.28	7.278	5.067	3.709	3.534	2.519	2.512	2.048	1.823	1.851	1.826	1.594	1.494	1.423	1.291	1.196	1.155	0.930	0.991	0.952	0.840	0.868	0.802	0.576	0.722	0.679	0.651	0.696	0.711	0.744	0.690	0.637	0.716	0.519	0.520	0.491	0.547	0.530	0.686	0.824	1.055	1.884	2.868	2.268	1.667	2.424	4.466	8.550	12.69	20.52	40.45	84.42	106.7	30.18	12.75	1.160	0.512	0.530	0.505	0.450	0.495	0.481
280.0	142.2	124.5	102.5	71.11	56.85	79.37	237.2	518.4	346.7	538.3	1700	8913	9999.9	1145	62.79	13.39	8.468	6.624	4.842	4.138	3.308	2.948	2.378	2.057	1.943	1.911	1.855	1.435	1.423	1.250	1.431	1.202	1.009	1.086	0.916	0.900	0.867	0.822	0.637	0.774	0.627	0.787	0.709	0.722	0.694	0.850	0.784	0.760	0.650	0.527	0.562	0.595	0.590	0.589	0.679	0.684	1.059	1.888	2.809	2.886	2.082	1.641	2.567	3.506	5.361	10.17	27.63	66.79	105.0	108.7	26.06	7.332	0.677	0.575	0.500	0.575	0.514
285.0	177.1	197.0	155.0	105.7	72.46	70.83	123.1	379.1	538.4	277.7	502.2	2538	9999.9	9999.9	852.0	31.48	11.76	8.115	6.172	4.644	3.636	3.003	2.770	2.216	2.088	1.849	1.791	1.399	1.594	1.381	1.355	1.327	1.075	1.030	0.979	0.971	0.924	0.852	0.875	0.819	0.733	0.887	0.695	0.841	0.776	0.858	0.897	0.842	0.872	0.671	0.728	0.666	0.689	0.649	0.648	0.674	0.762	0.985	1.500	2.671	3.598	2.667	1.640	1.626	2.053	3.080	7.021	17.01	39.13	86.08	119.2	95.59	20.66	3.372	0.633	0.605	0.569
290.0	251.3	296.8	266.4	181.1	117.0	103.9	116.9	211.1	470.8	588.5	397.6	782.8	2881	9747	9999.9	3219	52.28	12.62	7.958	5.842	4.282	3.643	3.182	2.769	2.403	2.149	1.859	1.662	1.737	1.491	1.405	1.401	1.195	1.201	1.089	1.058	1.068	0.971	0.988	0.929	0.820	0.856	0.784	0.896	0.902	1.111	1.113	1.157	1.117	0.977	0.927	0.891	0.832	0.804	0.801	0.808	0.900	0.928	1.110	1.513	2.245	2.967	3.510	2.914	2.234	2.019	2.890	5.126	10.01	21.76	41.17	68.48	86.17	68.84	62.77	14.74	4.489
295.0	327.8	402.9	380.7	268.3	174.4	153.6	163.5	203.4	304.3	588.6	831.1	564.7	932.6	2410	5287	9999.9	4755	63.04	11.97	7.982	5.550	4.614	3.623	3.145	2.604	2.641	2.219	1.903	1.795	1.566	1.455	1.370	1.247	1.206	1.033	1.017	1.167	1.157	1.086	1.022	0.937	0.860	0.989	1.132	1.098	1.111	1.337	1.504	1.476	1.379	1.151	1.236	0.995	1.011	0.935	1.006	1.058	1.184	1.241	1.336	1.730	1.862	2.474	3.688	4.831	4.084	2.687	2.924	4.251	6.329	10.56	16.62	21.45	28.80	73.72	117.7	97.72
300.0	382.5	478.4	485.6	335.4	233.7	206.7	217.0	257.5	324.5	494.3	939.1	874.2	621.4	831.1	1461	7493	9999.9	692.2	40.53	10.67	7.904	5.493	4.515	3.552	2.999	2.867	2.519	1.939	1.952	1.805	1.611	1.418	1.444	1.278	1.099	1.108	1.075	1.195	1.190	1.022	1.003	1.082	1.111	1.070	1.294	1.347	1.439	1.629	1.777	1.480	1.340	1.282	1.280	1.221	1.048	1.184	1.414	1.414	1.557	1.639	1.886	1.866	2.310	2.741	4.167	5.763	5.361	3.712	3.366	3.530	4.134	5.411	6.226	7.830	20.09	51.43	103.4
305.0	415.5	553.4	552.0	405.8	280.4	254.8	284.9	332.1	418.3	542.5	835.1	1224	819.4	592.1	587.5	2081	9999.9	9999.9	552.2	21.25	9.652	6.584	5.441	4.175	3.136	3.007	2.672	2.412	2.132	1.845	1.676	1.620	1.345	1.402	1.149	1.184	1.125	1.378	1.205	1.201	1.093	1.147	1.093	1.197	1.536	1.533	1.671	1.897	2.070	1.669	1.499	1.474	1.401	1.300	1.374	1.292	1.603	1.693	1.780	2.081	2.335	2.420	2.673	2.976	3.632	4.646	5.706	6.249	5.205	3.655	3.361	3.433	3.207	3.318	5.879	13.01	30.34
310.0	480.0	623.3	633.5	460.7	333.7	312.5	347.5	409.1	502.4	635.7	799.1	1087	1197	796.8	499.3	673.6	2688	8337	9999.9	2234	36.22	9.533	6.858	5.287	4.008	3.520	2.787	2.514	2.524	2.059	1.752	1.636	1.553	1.419	1.270	1.263	1.267	1.340	1.220	1.286	1.064	1.193	1.221	1.377	1.503	1.659	2.000	2.120	2.112	1.900	1.606	1.673	1.737	1.456	1.583	1.541	1.898	2.002	2.145	2.320	2.525	2.863	3.141	3.504	3.699	4.053	4.576	5.511	6.274	6.069	4.988	3.811	3.096	2.819	3.033	4.434	7.961
315.0	546.6	699.5	705.2	530.4	383.9	355.5	395.4	470.4	567.9	709.4	860.7	1005	1109	1149	665.0	418.1	768.5	1991	4968	9999.9	3373	42.21	9.912	6.910	5.194	3.803	3.248	2.785	2.526	2.248	1.786	1.882	1.667	1.321	1.409	1.311	1.218	1.210	1.241	1.330	1.060	1.388	1.345	1.436	1.662	1.977	2.142	2.350	2.373	2.113	1.843	1.889	1.772	1.646	1.723	1.817	1.990	2.076	2.585	2.442	2.764	2.981	3.508	3.605	3.929	4.364	4.646	5.027	5.115	5.236	6.373	6.232	4.540	3.263	2.705	2.665	3.265
320.0	587.3	791.7	821.0	610.7	429.5	392.0	430.8	511.3	618.2	753.2	913.4	1040	1056	1116	940.6	450.1	376.4	575.1	1261	6806	9999.9	516.5	27.21	8.955	6.467	4.439	3.963	3.121	2.734	2.680	1.880	2.093	1.800	1.607	1.302	1.462	1.368	1.431	1.303	1.313	1.157	1.292	1.395	1.475	1.659	2.008	2.299	2.364	2.715	2.248	2.043	2.014	1.976	1.826	1.983	1.863	2.317	2.441	2.770	2.796	3.093	3.341	3.563	3.568	4.102	4.331	4.948	4.885	5.125	5.201	5.181	6.012	6.138	5.014	3.491	2.579	2.459
325.0	611.3	902.5	1018	758.6	515.4	432.6	459.8	553.0	661.4	804.7	964.4	1084	1087	1020	1026	638.9	334.4	287.1	375.1	1824	9112	9999.9	420.3	15.36	7.916	5.507	4.462	3.619	2.980	2.938	2.325	1.972	1.857	1.654	1.394	1.496	1.394	1.372	1.363	1.332	1.211	1.397	1.347	1.536	2.072	2.309	2.432	3.096	3.329	2.777	2.509	2.512	2.135	1.944	2.046	2.026	2.377	2.417	2.655	2.914	3.131	3.623	3.620	3.968	4.187	4.661	5.143	5.273	5.232	5.079	4.871	5.273	5.944	6.005	5.171	3.896	2.628
330.0	718.0	1093	1243	979.4	659.4	508.5	512.6	599.2	697.6	853.2	1017	1135	1142	1030	919.2	795.2	503.3	277.3	212.1	497.1	2425	7501	9775	1751	28.51	8.144	5.577	4.330	3.730	3.040	2.609	2.205	2.032	1.838	1.620	1.466	1.346	1.398	1.317	1.384	1.231	1.375	1.474	1.722	2.032	2.556	2.798	3.506	3.995	3.489	3.089	3.197	2.626	2.369	2.365	2.265	2.486	2.579	2.677	3.054	3.289	3.666	3.931	4.308	4.760	4.934	5.386	5.381	5.768	5.419	5.326	5.162	5.224	5.081	4.979	4.946	4.121
335.0	753.6	1141	1356	1118	764.4	586.2	554.7	634.5	740.0	887.8	1054	1161	1172	1065	894.8	706.6	673.1	420.3	226.5	233.1	626.0	1762	5023	9999.9	2696	33.42	8.307	6.078	4.375	3.383	2.993	2.671	2.156	2.013	1.712	1.463	1.604	1.517	1.646	1.337	1.324	1.460	1.747	1.763	2.122	2.656	2.977	3.837	4.543	3.949	3.457	3.752	2.959	2.786	2.690	2.479	2.709	2.930	3.055	3.202	3.487	3.623	4.236	4.510	4.843	5.016	5.372	5.525	5.735	5.672	5.691	5.274	5.081	4.785	4.315	4.094	4.193
340.0	794.3	1230	1457	1216	846.5	639.7	592.6	655.2	750.1	897.3	1053	1165	1171	1070	895.9	686.0	620.2	573.2	302.0	203.6	252.9	474.5	1274	6912	9999.9	430.2	21.04	7.511	5.022	4.102	3.373	2.730	2.271	1.737	1.812	1.595	1.482	1.401	1.587	1.344	1.326	1.495	1.718	1.779	2.236	2.552	3.258	3.801	4.262	3.970	3.515	3.730	3.466	3.062	2.737	2.690	2.750	2.907	3.190	3.375	3.507	3.845	4.327	4.688	5.150	4.971	5.119	5.439	5.579	5.690	5.642	5.757	5.088	4.878	4.447	3.982	4.066
345.0	807.0	1216	1467	1270	904.0	677.3	631.6	672.0	759.3	902.0	1036	1141	1154	1063	900.9	688.1	563.5	579.0	450.2	241.2	196.1	212.1	359.5	1894	8833	9026	350.4	11.60	6.610	4.821	3.688	3.014	2.399	1.961	1.869	1.627	1.514	1.500	1.576	1.322	1.339	1.448	1.600	2.062	2.240	2.636	3.064	3.753	4.263	3.959	3.653	4.102	3.614	3.077	3.056	3.083	3.024	3.079	3.271	3.283	3.632	3.906	4.207	4.405	5.192	4.989	4.985	5.442	5.692	5.665	5.592	5.529	5.277	4.965	4.634	4.060	3.908
350.0	761.4	1126	1382	1218	928.3	735.1	668.9	696.9	777.3	885.8	1010	1093	1092	1026	891.1	709.8	568.2	509.2	517.8	396.5	247.4	197.3	190.9	501.7	2431	6899	6292	1462	23.99	6.736	4.723	3.576	2.841	2.235	2.079	1.753	1.606	1.440	1.394	1.407	1.388	1.338	1.558	1.846	1.971	2.476	2.989	3.678	4.046	3.930	3.779	4.116	3.661	3.408	3.132	3.108	3.020	3.165	3.267	3.589	3.727	3.933	4.084	4.431	4.773	4.723	4.868	5.247	5.378	5.398	5.413	5.330	5.059	4.857	4.626	4.362	3.896
355.0	719.3	1059	1288	1184	934.1	794.6	734.3	734.3	796.5	882.2	992.2	1056	1048	994.5	887.2	734.0	607.9	522.5	481.1	506.5	392.7	253.3	200.4	226.4	620.9	1624	4258	9675	2169	27.65	7.007	4.758	3.391	2.689	1.804	1.847	1.690	1.608	1.573	1.411	1.409	1.435	1.448	1.666	1.949	2.212	2.789	3.477	3.612	3.569	3.597	4.054	3.741	3.636	3.605	3.062	3.488	3.457	3.326	3.663	3.928	3.885	4.206	4.363	4.780	4.685	4.830	4.880	5.312	5.227	5.300	5.133	5.136	4.738	4.624	4.329	4.160
360.0	697.6	1017	1225	1158	947.6	819.6	768.0	774.6	816.9	894.3	981.7	1032	1031	973.3	876.1	745.9	636.5	551.3	491.8	492.6	506.3	341.0	239.9	193.4	242.6	433.3	1126	6635	9130	388.6	15.13	6.212	4.208	3.071	2.143	1.892	1.876	1.625	1.717	1.403	1.388	1.419	1.428	1.639	1.880	2.304	2.621	3.382	3.577	3.669	3.417	3.865	3.741	3.466	3.593	3.150	3.529	3.388	3.890	3.774	4.063	4.202	4.383	4.375	5.008	4.687	4.728	4.777	5.089	4.914	5.158	4.773	4.880	4.863	4.946	4.232	4.546
365.0	684.1	936.5	1181	1135	970.0	853.8	792.5	793.9	840.3	909.5	974.2	1015	996.9	959.0	873.9	761.5	663.6	591.5	529.9	488.3	519.5	460.9	296.6	222.1	185.3	189.0	316.7	1886	8270	7549	304.9	9.981	5.384	4.049	2.592	2.253	2.088	1.846	1.639	1.526	1.396	1.602	1.487	1.731	1.750	2.268	2.459	3.141	3.472	3.366	3.378	3.809	3.962	3.515	3.701	3.361	3.589	3.798	3.532	3.809	3.856	4.209	4.218	4.419	4.644	4.498	5.128	4.618	4.846	4.830	4.765	4.709	4.699	4.646	4.848	4.364	4.701
370.0	639.2	893.0	1123	1101	985.4	900.8	836.2	832.3	867.3	922.8	976.1	999.1	983.2	945.9	862.9	768.6	695.1	632.9	580.7	529.3	511.2	518.7	432.0	297.3	221.3	176.7	167.5	490.6	2350	6445	5857	1279	20.78	5.913	3.511	2.667	2.242	2.029	1.724	1.594	1.528	1.599	1.463	1.666	1.758	2.174	2.411	3.016	3.264	3.372	3.301	3.864	3.885	3.851	3.798	3.486	3.703	3.832	3.755	3.793	3.912	4.116	4.369	4.460	4.577	4.709	5.004	4.616	4.814	4.728	4.900	4.837	4.965	4.713	4.852	4.508	4.468
375.0	594.8	853.4	1087	1082	1019	935.5	884.6	879.2	886.2	932.4	985.1	987.8	986.3	941.2	861.2	775.1	727.6	673.7	623.0	586.3	540.4	514.6	511.5	426.4	290.1	224.1	183.0	220.4	600.0	1539	4340	8550	1822	23.29	5.583	3.704	2.847	2.332	1.887	1.771	1.551	1.476	1.473	1.836	1.885	2.156	2.384	2.844	3.152	3.167	3.352	3.743	4.103	4.036	3.986	3.548	3.862	3.988	4.016	4.045	4.021	4.249	4.497	4.296	4.658	4.655	4.440	4.577	4.605	5.014	4.855	4.632	4.813	5.015	4.646	4.973	4.712
380.0	572.1	828.2	1050	1086	1039	970.1	908.8	901.9	909.0	943.3	991.5	994.4	983.1	939.0	861.2	773.6	733.9	692.6	660.1	615.5	572.5	530.7	513.2	514.4	371.3	271.0	222.0	190.5	234.9	419.6	1189	6190	7581	325.3	13.51	4.513	3.385	2.566	2.047	1.775	1.841	1.590	1.482	1.700	1.710	2.123	2.404	2.728	3.166	3.283	3.290	4.033	4.023	3.999	3.981	3.754	4.219	4.127	4.080	4.092	4.325	4.307	4.540	4.485	4.785	4.783	4.587	4.794	4.741	4.954	4.748	4.737	4.557	4.792	4.710	4.703	4.782
385.0	573.3	817.7	1020	1058	1052	998.0	926.3	920.5	929.8	948.3	987.8	992.3	986.4	936.4	848.0	782.8	739.4	702.4	675.1	642.5	600.4	557.3	518.4	525.6	463.6	327.4	261.9	216.2	179.3	191.6	346.8	1816	6998	5818	246.6	7.320	4.072	2.893	2.439	1.988	1.940	1.523	1.555	1.780	2.026	2.212	2.264	2.782	3.059	3.050	3.020	3.844	4.124	4.151	4.204	4.045	4.442	4.213	3.891	4.141	4.439	4.558	4.566	4.749	4.901	4.669	4.605	4.485	4.741	5.029	4.949	4.623	4.651	4.679	4.735	4.581	4.920
390.0	556.5	806.8	994.3	1053	1050	997.9	958.4	939.8	935.3	954.0	982.0	970.0	967.3	915.4	841.2	776.6	737.3	713.3	689.7	661.3	628.1	589.6	540.0	511.3	499.2	430.5	322.8	254.4	198.6	166.8	177.6	480.7	1997	5020	4477	1006	16.69	4.360	2.986	2.310	2.058	1.774	1.714	1.952	1.967	2.186	2.269	2.846	2.912	3.110	3.184	3.862	4.043	4.109	4.140	4.038	4.503	4.379	4.195	4.364	4.263	4.405	4.561	4.672	4.544	4.583	4.533	4.291	4.612	5.049	4.876	4.727	4.548	4.753	4.576	4.525	4.747
395.0	550.8	777.6	983.8	1039	1028	1022	986.1	959.5	947.3	966.6	985.0	965.4	955.4	916.5	834.8	769.6	739.2	716.3	696.7	671.2	649.8	614.8	579.2	539.7	502.4	482.7	425.6	319.4	245.5	200.5	171.5	206.4	506.4	1197	3254	6280	1509	20.24	4.296	3.161	2.440	1.914	1.936	1.962	1.875	2.162	2.185	2.765	3.001	3.003	2.978	3.694	4.011	3.843	4.087	4.333	4.321	4.342	4.500	4.409	4.359	4.350	4.648	4.530	4.557	4.352	4.452	4.334	4.551	4.564	4.678	4.552	4.625	4.647	4.513	4.705	4.650
400.0	541.7	760.4	952.3	1028	1031	1024	995.8	966.5	969.3	976.4	1003	974.4	978.4	911.7	841.7	768.5	731.2	709.7	699.6	674.1	660.6	627.7	603.7	566.7	525.1	490.4	488.3	393.1	294.5	241.1	198.7	172.2	193.2	318.4	874.3	4477	5702	279.0	11.87	4.052	2.730	2.368	2.027	2.027	1.974	2.214	2.231	2.800	3.127	3.090	2.946	3.743	4.051	4.062	4.239	4.394	4.416	4.345	4.462	4.674	4.613	4.533	4.293	4.425	4.858	4.326	4.600	4.346	4.672	4.578	4.794	4.694	4.724	4.736	4.788	4.647	4.915
405.0	542.5	760.7	950.7	1033	1061	1025	1011	996.0	982.3	988.9	1010	998.9	989.3	921.9	836.8	768.4	732.9	711.9	696.3	680.4	664.3	642.8	624.4	591.5	550.7	502.7	501.3	468.1	354.4	283.3	236.4	190.5	142.5	136.4	240.8	1284	5091	4426	218.6	6.514	3.336	2.673	2.305	2.297	2.072	2.332	2.423	2.742	3.254	2.939	2.990	3.766	4.238	4.056	4.188	4.217	4.527	4.317	4.545	4.771	4.643	4.683	4.575	4.545	4.849	4.733	4.606	4.442	4.586	4.615	4.867	4.766	4.611	4.458	4.618	4.632	4.752
410.0	529.0	735.4	914.1	1018	1042	1030	1020	1014	1010	1012	1027	1004	978.8	913.4	830.6	768.2	725.1	696.4	685.5	673.8	662.6	646.9	631.5	605.1	574.9	531.4	502.7	491.3	436.5	342.1	274.2	217.9	157.1	117.8	116.2	331.2	1430	3696	3480	919.8	15.14	3.699	2.859	2.424	2.122	2.395	2.337	2.768	2.974	2.907	3.054	3.650	4.000	4.088	4.110	4.124	4.553	4.439	4.746	4.561	4.730	4.628	4.629	4.489	4.585	4.633	4.548	4.260	4.491	4.612	4.770	4.520	4.526	4.493	4.531	4.488	4.677
415.0	526.6	710.3	884.9	972.0	1036	1020	1016	1020	1016	1007	1017	991.7	954.5	888.2	818.5	750.6	699.8	673.5	657.6	654.2	647.1	635.1	628.5	605.7	579.0	544.0	514.6	480.1	463.6	412.8	314.5	243.3	178.6	131.3	102.7	128.0	355.7	875.0	2332	4719	1314	18.71	3.717	3.059	2.423	2.556	2.438	2.830	2.990	2.885	3.105	3.768	4.243	3.979	4.145	4.140	4.263	4.518	4.786	4.581	4.645	4.659	4.841	4.443	4.716	4.578	4.387	4.477	4.406	4.326	4.291	4.358	4.531	4.357	4.259	4.307	4.451
420.0	512.0	692.2	859.9	973.1	994.3	1002	1002	1023	1018	1010	1002	975.3	926.2	874.8	795.3	724.7	679.3	651.3	635.8	634.5	623.0	616.5	613.7	602.0	583.9	550.0	514.4	483.1	451.6	434.6	356.2	262.5	196.1	144.3	109.3	91.23	121.9	223.8	608.0	3144	4395	260.4	11.59	3.831	2.838	2.752	2.576	2.869	2.785	2.743	3.006	3.445	4.009	4.079	4.075	3.935	4.274	4.566	4.868	4.526	4.517	4.460	4.834	4.513	4.536	4.617	4.450	4.385	4.321	4.314	4.119	4.445	4.334	4.316	4.241	4.109	4.218
425.0	509.3	661.4	842.4	947.0	969.6	1007	1010	1012	1022	1017	1010	976.3	917.6	851.8	769.2	705.5	657.5	631.9	619.4	608.2	602.9	599.1	598.2	594.7	574.4	546.0	520.8	486.2	446.4	429.7	394.5	287.7	210.4	160.1	121.3	91.79	78.97	83.64	159.7	870.1	3593	3549	213.1	6.676	3.408	3.121	2.670	2.880	3.107	2.728	3.118	3.358	4.012	3.955	4.045	3.866	4.297	4.447	4.622	4.611	4.690	4.556	4.804	4.681	4.573	4.811	4.293	4.236	4.189	4.232	4.257	4.171	4.297	4.126	4.177	4.091	4.094
430.0	556.5	662.3	830.6	910.9	946.1	984.3	998.2	1019	1020	1010	1021	964.4	912.3	841.2	757.6	685.3	633.6	602.8	589.3	582.8	580.1	575.8	580.3	575.7	563.3	542.0	521.1	491.8	456.1	425.6	399.1	337.7	247.9	184.4	138.9	105.4	80.35	62.99	65.80	216.3	964.9	2626	2826	879.4	15.36	4.057	3.172	3.017	3.021	2.745	3.058	3.443	3.837	3.879	4.115	4.101	4.195	4.406	4.451	4.482	4.681	4.625	4.754	4.527	4.624	4.519	4.245	4.221	4.143	4.223	4.306	4.291	4.148	4.102	4.002	3.882	3.955
435.0	783.3	649.5	792.6	868.4	937.3	965.6	975.6	1034	1023	1029	1022	963.2	894.9	821.9	739.8	658.9	609.9	580.3	564.6	554.8	554.0	556.3	558.9	555.7	550.4	538.5	513.9	496.6	462.0	430.9	392.9	352.7	295.1	212.5	160.1	123.2	92.67	67.99	53.02	75.65	235.4	611.0	1610	3877	1373	20.68	3.910	3.418	3.202	2.920	2.959	3.331	3.709	3.800	3.972	4.217	4.632	4.513	4.616	4.617	4.618	4.637	4.445	4.702	4.712	4.339	4.111	4.308	4.178	4.206	4.295	4.307	4.086	3.922	3.718	3.731	3.808
440.0	1051	737.9	773.6	851.2	913.7	929.1	968.3	1013	1016	1021	1025	968.6	876.1	807.3	715.2	642.8	588.4	556.5	540.5	532.7	530.1	534.4	537.8	540.3	534.5	524.8	505.8	488.5	458.9	432.7	391.4	345.9	305.8	241.3	174.6	134.2	104.6	76.79	55.96	49.51	76.89	154.4	407.7	2335	3937	251.0	13.91	3.891	3.481	3.131	3.047	3.486	3.557	3.935	4.019	3.998	4.624	4.360	4.540	4.808	4.430	4.675	4.505	4.664	4.595	4.437	4.297	4.043	4.340	4.379	4.154	4.274	4.048	3.801	3.816	3.892	3.869
445.0	1102	1031	744.8	830.3	886.9	915.4	947.0	999.9	1002	1008	1002	932.2	860.2	781.5	691.0	622.4	564.3	531.3	516.8	509.0	505.2	509.5	514.9	518.0	512.7	504.2	491.0	476.5	453.1	427.7	390.3	336.3	299.3	261.4	195.2	143.6	111.7	84.37	63.18	50.01	46.08	55.04	107.3	617.9	2835	3363	202.7	9.570	3.968	3.300	3.132	3.422	3.732	3.923	3.887	3.977	4.425	4.346	4.395	4.540	4.411	4.579	4.743	4.697	4.718	4.422	4.142	4.088	4.157	4.169	4.022	4.074	3.872	3.691	3.619	3.573	3.740
450.0	797.4	1659	957.1	785.7	838.4	879.3	916.5	949.1	967.9	964.9	950.1	902.4	819.0	740.2	657.0	580.6	528.9	495.9	477.6	469.1	470.1	474.8	476.0	477.8	478.1	469.4	463.2	450.8	435.4	413.1	377.9	328.1	283.7	252.2	215.2	160.8	120.6	92.51	71.48	55.71	44.17	37.69	43.79	153.2	731.5	2136	2369	918.0	15.39	3.979	3.267	3.732	3.759	3.719	3.634	3.648	4.108	4.345	4.386	4.253	4.431	4.322	4.573	4.417	4.482	4.338	4.106	4.006	4.033	3.913	3.886	3.825	3.544	3.541	3.622	3.671	3.633
455.0	474.6	1704	1808	766.9	779.9	818.6	857.5	892.8	915.2	911.5	890.5	844.1	767.4	689.6	607.0	537.9	489.5	453.2	437.5	429.6	426.6	428.5	433.5	432.6	436.4	436.0	424.3	414.2	406.8	392.8	360.4	315.3	273.5	235.5	209.6	178.2	133.3	100.2	79.15	62.97	47.81	38.31	33.48	52.29	177.3	490.9	1108	3073	1274	18.91	3.945	3.985	3.734	3.531	3.771	3.687	3.928	3.979	4.217	4.200	4.270	4.366	4.263	4.361	4.216	4.110	4.211	3.741	3.790	3.734	3.712	3.528	3.420	3.493	3.299	3.301	3.499
460.0	364.3	1151	2593	944.1	736.4	770.9	815.4	845.4	860.3	879.2	851.5	807.7	724.6	648.5	568.6	504.1	456.2	425.0	408.5	401.4	394.9	395.4	404.2	402.6	409.0	400.4	394.6	387.1	382.2	370.3	340.7	303.3	263.2	225.7	196.7	178.9	146.4	105.3	83.57	66.06	51.81	41.26	33.10	31.56	54.75	121.6	269.6	1527	3072	953.4	14.23	4.278	3.848	3.444	3.673	3.377	3.878	4.023	4.121	4.007	4.037	4.012	4.000	4.130	4.061	3.704	3.842	3.572	3.775	3.616	3.616	3.496	3.202	3.250	3.192	3.296	3.225
465.0	323.8	679.3	2650	1786	702.5	729.5	774.2	808.6	820.9	823.3	810.0	767.4	690.5	608.9	535.1	469.9	426.7	397.0	378.6	369.5	367.1	365.6	372.6	372.0	376.4	374.3	367.9	366.8	358.4	349.0	325.9	290.5	254.6	215.7	186.8	167.5	151.7	114.8	86.33	69.32	55.05	44.04	34.69	28.69	29.02	40.83	70.89	380.1	1884	2719	174.6	12.42	4.096	3.468	3.734	3.363	3.465	3.771	3.975	3.827	3.995	3.898	3.869	3.738	3.889	3.917	3.575	3.404	3.489	3.437	3.351	3.236	3.097	2.905	2.743	3.078	3.070
470.0	318.3	448.5	1571	2957	1087	660.8	695.6	739.4	749.7	751.2	743.7	698.1	623.1	562.9	482.5	423.7	384.5	354.2	339.3	327.8	326.7	323.9	330.6	330.5	331.0	332.2	329.0	330.1	324.5	315.6	295.9	268.0	236.6	204.4	174.6	152.2	138.6	119.4	93.29	71.02	57.13	46.21	37.44	30.05	25.75	24.52	28.37	95.11	466.0	1394	1919	865.2	17.11	4.213	3.672	3.459	3.403	3.507	3.587	3.560	3.702	3.549	3.503	3.541	3.621	3.509	3.359	3.278	3.202	3.084	3.062	2.983	2.865	2.741	2.666	2.672	2.795
475.0	291.8	378.6	728.0	2547	2476	658.2	632.6	657.5	677.9	676.6	665.9	627.5	563.5	499.0	435.0	377.2	338.1	317.9	302.9	289.6	284.5	285.4	288.1	290.0	294.2	291.0	291.1	290.6	288.8	280.1	266.1	243.0	215.1	187.4	163.7	139.9	123.8	111.4	100.2	75.77	59.14	48.28	39.55	32.09	26.54	22.43	19.84	32.43	113.1	318.7	637.6	1841	1217	23.49	4.094	3.556	3.394	3.309	3.152	3.335	3.036	3.249	3.244	3.318	3.142	3.124	3.137	2.951	2.996	2.922	2.580	2.684	2.532	2.407	2.476	2.389	2.440
480.0	281.4	385.4	495.3	1537	3446	1017	586.3	606.3	624.4	636.2	622.3	586.3	523.9	464.9	398.8	348.1	313.2	287.4	274.9	264.2	259.9	259.8	263.0	265.1	265.1	263.9	265.4	264.1	263.3	256.8	248.9	225.1	201.8	175.8	156.2	134.4	116.3	101.5	97.70	81.32	61.15	48.84	40.68	32.74	27.34	23.20	18.95	19.27	34.75	78.96	151.4	730.4	2084	986.4	19.39	3.670	3.448	3.294	3.268	3.316	3.131	3.036	3.215	3.184	3.095	2.970	2.974	2.961	2.744	2.501	2.468	2.465	2.542	2.630	2.386	2.301	2.297
485.0	265.0	351.0	427.9	782.5	3259	2045	560.2	579.2	585.2	589.6	580.3	545.8	494.4	431.4	373.6	324.6	294.2	270.8	255.3	245.3	240.8	240.1	242.7	243.0	243.9	242.6	242.6	241.8	242.6	239.9	231.4	210.0	190.6	167.7	148.1	128.9	111.1	95.16	90.21	83.17	64.79	50.46	41.60	34.04	28.91	23.64	19.25	17.02	18.01	25.92	40.66	176.5	1057	2049	219.7	13.29	3.696	3.242	3.203	3.205	3.137	2.950	2.927	2.945	3.069	2.929	2.853	2.520	2.610	2.532	2.308	2.378	2.315	2.502	2.177	2.202	2.213
490.0	218.0	342.9	390.4	486.6	1772	3376	1050	529.9	531.7	536.3	534.5	499.7	451.0	393.2	342.7	296.6	266.4	246.1	231.4	221.7	216.7	213.9	216.3	217.9	219.9	217.5	217.6	220.7	221.5	217.8	211.2	194.0	174.4	154.5	137.3	122.0	106.0	91.45	81.78	76.27	69.21	54.70	42.10	34.66	29.99	25.29	21.07	17.48	15.13	14.90	16.63	46.15	252.9	872.0	1471	900.8	85.23	4.168	3.167	3.088	2.988	2.868	2.804	2.854	2.760	2.699	2.649	2.515	2.348	2.293	2.193	2.198	2.246	2.103	1.970	2.051	2.115
495.0	179.6	309.6	397.4	400.4	724.6	2816	2620	549.1	481.7	483.6	483.8	457.5	407.4	351.2	307.8	265.4	239.0	219.1	206.9	196.6	193.1	190.7	191.6	193.9	192.5	194.9	193.8	196.4	197.1	194.7	188.0	175.9	158.6	141.1	125.5	112.4	97.58	85.02	75.85	68.42	64.76	59.33	45.09	35.51	30.64	25.83	21.94	18.59	15.34	13.16	11.83	16.96	62.18	199.3	470.0	1571	1385	28.22	3.685	3.169	2.928	2.724	2.644	2.748	2.481	2.468	2.435	2.509	2.311	2.119	1.930	2.027	1.971	1.898	1.821	1.927	1.700
500.0	166.5	248.1	380.5	357.4	440.6	1587	3806	890.6	439.0	452.7	437.2	414.2	369.0	321.4	276.9	244.3	215.8	199.3	189.0	178.8	174.5	172.8	172.1	173.8	172.5	173.6	172.8	178.7	178.7	176.9	169.4	161.0	143.8	131.0	117.1	104.7	91.48	81.00	71.84	63.30	58.70	57.18	49.57	36.59	30.23	26.32	22.19	19.09	16.16	13.36	10.83	11.25	19.83	50.00	111.1	575.6	1905	1029	22.76	3.208	2.764	2.711	2.455	2.667	2.318	2.435	2.165	2.238	2.099	1.897	1.934	1.907	1.834	1.743	1.752	1.714	1.634
505.0	167.3	226.2	346.9	358.5	356.2	741.6	3612	1942	417.0	412.7	401.9	379.2	337.7	298.5	253.2	221.2	197.8	184.2	169.7	164.5	159.7	155.5	156.7	157.0	156.9	157.6	159.5	162.1	160.9	160.4	155.6	146.4	132.5	119.5	106.9	97.63	85.32	75.45	68.03	58.65	52.49	50.44	48.93	39.16	30.05	26.16	22.11	19.09	15.69	13.65	11.03	9.934	10.69	16.68	29.67	136.4	839.5	1861	243.8	15.29	3.033	2.533	2.374	2.524	2.225	2.152	2.235	2.080	1.990	1.847	1.777	1.802	1.671	1.683	1.604	1.621	1.573
510.0	141.2	189.5	280.2	341.6	313.1	403.3	1896	3444	861.8	367.6	356.3	336.5	298.8	263.7	226.3	199.0	174.4	161.1	151.1	145.2	140.3	136.3	135.9	136.3	136.3	135.4	137.5	140.0	141.3	140.3	136.1	129.4	117.2	106.5	95.84	87.62	77.23	68.62	62.02	53.63	48.30	44.22	43.31	40.83	31.57	25.63	21.90	18.66	15.60	13.82	11.88	10.00	8.671	9.275	11.38	34.81	198.2	739.1	1231	755.3	19.60	3.308	2.465	2.323	1.961	1.967	2.023	1.833	1.777	1.759	1.686	1.593	1.652	1.507	1.455	1.356	1.430
515.0	128.5	168.5	217.6	305.3	293.7	297.5	675.0	3159	2367	380.5	309.6	295.7	261.8	230.8	197.9	172.0	151.1	141.8	131.6	126.4	121.3	117.6	117.5	116.8	116.7	118.3	118.7	119.7	120.6	121.5	118.1	110.8	102.7	92.75	83.63	77.10	68.45	62.10	55.32	49.17	44.23	39.95	36.44	36.54	33.83	27.10	21.10	18.29	15.14	13.67	11.66	10.20	8.591	7.638	7.420	12.14	48.06	168.5	362.7	1176	1007	27.54	2.806	2.430	1.853	1.989	1.872	1.760	1.555	1.613	1.415	1.410	1.440	1.216	1.385	1.395	1.333
520.0	122.6	140.4	188.0	265.2	286.3	257.1	349.5	1738	4006	715.9	280.9	266.1	234.7	205.6	175.8	152.7	134.0	127.5	118.2	113.5	108.6	104.4	104.1	103.4	105.0	104.0	105.2	105.5	108.2	107.6	105.5	98.88	92.57	82.31	74.72	69.20	61.82	57.04	51.23	44.49	41.41	36.67	32.33	30.88	32.42	28.06	21.20	17.54	14.99	13.26	11.26	10.08	8.630	7.174	6.573	7.151	14.65	41.20	85.02	420.0	1343	736.8	21.25	2.372	2.109	1.976	1.781	1.781	1.473	1.447	1.338	1.379	1.337	1.264	1.286	1.271	1.315
525.0	103.9	134.7	169.3	217.1	291.1	237.3	256.6	722.7	4096	1800	273.2	240.9	209.8	187.4	159.9	139.4	121.8	114.6	106.8	99.91	97.54	94.92	92.84	93.67	92.65	92.65	94.37	94.71	96.99	96.89	94.59	88.91	81.65	75.33	69.35	62.82	56.85	51.80	46.80	41.21	38.08	33.83	30.06	27.57	28.40	27.54	22.56	17.58	14.62	12.69	10.77	9.310	8.739	7.754	6.710	6.171	7.651	12.77	22.26	99.40	575.9	1293	241.1	12.75	2.226	1.795	1.602	1.472	1.332	1.277	1.469	1.408	1.287	1.300	1.142	1.014	1.282
530.0	92.58	115.3	147.9	173.2	245.2	246.0	207.9	329.1	2093	3872	695.4	209.8	187.4	163.6	140.2	121.0	108.1	98.34	92.16	87.23	84.87	82.75	80.69	81.23	80.89	79.95	81.92	81.76	83.34	83.92	81.65	77.11	70.80	65.24	59.67	54.80	50.26	45.64	41.05	37.14	33.69	30.27	27.20	24.94	24.03	24.36	22.56	17.98	14.11	11.90	10.33	9.254	8.040	7.585	6.615	6.004	5.832	6.424	8.406	25.22	135.7	504.6	861.2	546.2	18.19	2.257	1.589	1.452	1.274	1.274	1.354	1.179	1.158	1.160	1.056	0.991	1.134
535.0	79.51	99.83	127.6	144.1	179.9	239.6	194.8	215.4	660.0	3473	1942	214.2	161.7	140.8	119.5	101.7	94.01	83.40	79.26	75.81	71.81	69.84	68.91	68.92	68.55	67.84	68.36	69.30	70.34	71.49	68.62	65.97	60.52	56.10	51.19	46.84	41.90	39.83	35.79	32.03	28.93	26.35	24.03	21.86	20.75	19.74	20.44	19.34	14.06	11.37	10.08	8.430	7.625	6.950	6.533	5.867	5.333	5.056	5.086	8.390	33.17	115.2	248.0	805.0	690.9	25.74	1.760	1.533	1.321	1.192	1.240	1.088	1.064	1.099	0.963	0.871	0.982
540.0	70.98	89.50	111.6	134.6	145.2	211.2	190.7	175.1	281.2	1753	4125	469.7	148.9	127.4	108.5	93.02	83.97	76.17	70.64	64.67	63.41	61.78	61.43	60.25	60.27	59.72	58.29	61.08	62.53	61.66	59.20	57.41	53.80	49.84	45.07	41.49	37.54	35.53	32.12	29.04	26.66	23.89	21.77	20.30	18.47	17.01	17.30	17.88	14.79	11.03	9.235	7.873	7.152	6.387	6.004	5.982	5.335	4.360	4.133	4.770	10.12	28.13	58.17	283.6	907.7	256.0	18.26	1.611	1.212	1.179	1.185	1.015	0.980	1.033	0.821	0.884	0.843
545.0	73.11	81.00	102.8	114.6	130.6	172.5	198.1	151.7	179.8	648.2	4259	1403	137.2	111.0	95.26	81.95	75.03	66.71	62.77	58.39	56.50	54.63	53.69	52.93	52.89	51.42	52.31	52.55	54.69	54.72	52.86	51.37	46.90	44.27	39.93	37.25	33.52	30.87	28.09	25.80	24.50	21.69	19.84	18.35	16.59	15.21	14.93	15.43	14.90	11.39	8.970	7.187	6.734	5.966	5.702	5.431	5.331	4.284	3.979	3.719	4.705	8.589	15.34	67.06	380.3	819.4	224.2	10.00	1.331	1.223	1.116	1.058	0.966	0.970	0.801	0.833	0.881
550.0	60.92	73.82	90.74	98.80	106.0	125.1	186.8	146.7	137.0	247.1	1983	3604	408.9	94.56	79.82	70.07	60.98	56.26	52.58	49.47	47.14	46.15	44.42	44.20	43.87	43.03	43.04	43.78	44.47	44.66	44.41	41.45	39.00	36.05	33.31	31.11	28.23	26.01	24.40	22.23	20.37	18.52	16.85	15.60	14.48	12.97	12.39	12.02	12.56	11.43	8.949	6.835	6.010	5.618	4.904	4.846	4.892	4.430	3.695	3.278	3.670	4.156	5.636	17.05	89.30	319.9	574.3	374.4	17.34	1.631	1.126	1.039	0.912	0.806	0.759	0.792	0.729
555.0	60.81	64.60	79.11	82.43	87.34	93.36	140.3	155.9	108.9	135.7	556.3	3276	1428	95.59	66.40	58.29	50.35	47.39	42.28	39.69	38.32	37.03	35.77	35.83	35.27	35.20	34.86	36.14	35.72	36.45	36.13	33.49	31.96	28.76	26.80	25.43	22.95	21.75	20.01	18.26	16.83	15.85	14.59	13.55	12.09	11.32	10.21	9.625	9.771	9.962	8.724	6.633	5.481	5.054	4.330	4.177	4.294	4.184	4.068	3.256	3.181	3.113	3.354	5.666	21.81	73.26	162.5	508.2	441.1	23.98	1.433	1.172	0.880	0.835	0.688	0.697	0.668
560.0	60.31	66.98	73.48	74.27	71.91	77.15	105.0	162.7	103.4	101.5	199.0	1580	3479	162.5	57.51	50.35	43.55	39.47	36.11	33.38	32.25	30.67	30.69	30.54	30.43	30.12	29.43	30.44	30.15	30.34	30.33	28.17	26.90	24.04	22.87	21.85	19.53	18.48	17.46	15.68	14.42	13.13	12.19	11.35	10.55	9.660	8.936	8.337	7.710	7.979	7.932	6.609	5.091	4.536	3.898	3.836	3.664	3.501	3.817	3.527	3.044	2.808	2.910	3.290	7.052	18.23	38.20	176.8	549.8	242.6	15.59	1.290	0.929	0.788	0.655	0.706	0.633
565.0	60.12	64.05	68.13	67.19	64.55	69.47	80.63	142.2	105.0	87.03	112.3	531.5	3747	925.5	52.02	42.56	37.64	33.90	30.67	29.43	28.24	27.39	26.09	25.50	25.74	25.35	24.39	26.55	26.11	25.93	25.33	24.42	22.36	20.86	20.33	18.92	16.94	15.91	14.86	12.94	12.57	11.08	10.63	9.612	9.369	8.764	7.680	7.278	6.758	6.278	6.854	6.502	4.882	4.046	3.578	3.639	3.490	3.393	3.418	3.511	3.027	2.780	2.733	2.833	3.721	6.148	10.45	42.17	223.2	499.4	187.8	6.669	1.205	0.835	0.664	0.674	0.645
570.0	53.79	58.79	62.66	58.81	56.30	60.23	61.53	97.75	123.9	80.22	80.94	177.4	1773	2776	214.5	35.16	31.01	28.40	25.58	23.90	23.32	22.44	21.51	20.70	21.02	20.67	20.16	21.24	20.94	20.83	20.65	19.99	18.40	17.26	16.44	14.91	14.13	12.82	12.33	10.49	10.54	9.389	8.874	8.320	7.872	7.090	6.593	6.121	5.841	5.172	5.254	5.589	4.944	3.948	3.316	3.352	2.975	3.064	3.097	3.123	3.162	2.942	2.687	2.818	3.042	3.433	4.265	11.58	53.10	190.4	345.8	150.0	15.22	1.051	0.744	0.682	0.595
575.0	53.81	62.32	58.67	50.34	47.36	50.03	49.90	67.61	121.1	89.16	69.02	89.21	473.5	2700	976.3	36.17	26.59	22.73	21.30	19.55	18.94	17.39	17.36	16.95	17.27	16.44	16.28	17.09	17.05	16.97	16.93	16.17	14.54	13.53	12.42	11.97	11.41	10.43	9.993	9.112	8.322	7.707	7.493	6.582	6.318	5.727	5.364	4.830	4.745	4.281	4.148	4.027	4.424	3.810	3.067	2.870	2.886	2.863	2.668	2.728	2.836	2.876	2.913	2.665	2.748	2.924	3.106	4.672	13.83	44.22	96.89	274.5	238.2	19.93	0.806	0.776	0.577
580.0	58.64	55.50	59.12	50.20	45.22	45.75	48.35	51.96	93.26	107.2	66.74	67.75	147.4	1331	2500	89.83	23.45	20.49	17.66	16.93	16.16	14.73	14.27	14.09	15.15	14.22	13.22	13.83	14.50	14.36	14.05	13.29	12.51	11.74	10.62	10.25	9.661	8.804	8.398	7.780	6.896	6.777	6.317	5.701	5.480	5.230	4.641	4.424	4.055	3.831	3.444	3.310	3.642	3.742	3.136	2.619	2.422	2.536	2.379	2.405	2.395	2.815	2.824	2.541	2.454	2.755	2.560	2.861	4.958	11.50	23.38	97.12	314.0	185.9	11.00	0.742	0.624
585.0	60.59	57.46	56.78	48.43	41.64	40.27	46.43	45.14	69.55	116.4	65.79	60.42	72.40	433.6	2809	515.9	21.99	18.52	15.71	14.62	13.44	12.82	12.63	12.49	12.89	11.71	12.02	12.20	11.60	12.04	11.78	11.40	10.72	9.993	9.615	8.887	8.036	7.558	7.182	6.703	6.159	6.058	5.474	4.893	4.481	4.672	4.241	3.952	3.365	3.188	2.952	2.800	3.121	3.485	3.148	2.901	2.227	2.282	2.298	2.332	2.300	2.331	2.738	2.510	2.475	2.483	2.456	2.393	2.805	4.015	6.717	23.37	125.8	301.1	121.2	4.249	0.625
590.0	53.63	55.02	52.96	43.20	38.46	35.56	38.85	40.83	53.10	97.08	82.70	57.37	54.11	132.7	1361	1770	62.07	15.08	13.24	12.54	11.50	10.79	10.50	10.54	10.07	9.925	9.877	10.16	9.909	9.975	9.871	9.280	8.890	8.086	7.688	6.985	6.931	6.232	5.713	5.406	5.009	4.862	4.568	3.956	3.948	4.023	3.400	3.260	2.891	2.706	2.520	2.281	2.441	2.687	2.869	2.755	2.251	2.054	1.888	2.101	1.985	2.077	2.122	2.501	2.314	2.076	2.038	1.978	2.128	2.168	2.663	6.200	29.76	110.6	202.7	116.5	13.62
595.0	49.76	51.67	52.34	41.37	35.99	35.37	32.30	38.51	44.04	69.01	99.34	57.15	49.93	60.16	354.9	1876	604.2	15.32	11.71	10.35	9.417	9.288	8.428	8.232	7.879	8.003	8.028	8.138	8.093	8.591	7.865	7.652	7.067	6.964	5.985	5.803	5.379	5.032	4.761	4.311	4.183	4.011	3.548	3.574	3.176	3.081	2.679	2.852	2.399	2.282	2.019	1.961	1.914	1.847	2.236	2.553	2.178	1.931	1.660	1.716	1.600	1.738	1.583	1.942	2.057	1.991	1.720	1.545	1.623	1.527	1.550	2.250	7.493	25.39	55.10	160.3	155.8
600.0	54.15	52.30	49.02	40.97	31.96	32.30	32.39	36.45	39.50	51.86	95.77	66.41	48.30	41.99	102.9	988.7	1471	39.82	10.07	8.834	8.404	7.814	7.230	7.629	6.996	6.968	6.537	6.814	6.734	7.096	6.462	6.334	5.713	5.872	5.033	4.977	4.612	4.244	4.044	3.698	3.595	3.474	2.956	2.887	2.937	2.801	2.478	2.420	2.000	2.025	1.905	1.700	1.723	1.545	1.788	2.167	2.077	1.663	1.509	1.455	1.492	1.401	1.492	1.382	1.689	1.879	1.540	1.288	1.398	1.361	1.281	1.343	2.393	6.348	12.96	53.47	181.4
605.0	47.69	48.66	50.05	40.64	29.37	31.21	31.95	33.06	38.08	45.78	80.34	80.49	47.68	39.20	44.53	329.0	1787	242.7	9.560	7.895	7.376	6.803	6.253	6.604	5.782	6.180	5.504	5.660	6.039	5.762	5.916	5.210	5.083	4.847	4.433	4.210	4.169	3.800	3.377	3.338	3.024	2.885	2.650	2.612	2.481	2.272	2.248	2.036	1.867	1.914	1.648	1.575	1.445	1.327	1.475	1.797	1.895	1.708	1.349	1.319	1.270	1.293	1.351	1.224	1.534	1.650	1.538	1.268	1.158	1.258	1.039	1.164	1.329	2.115	3.472	12.61	69.84
610.0	49.99	49.42	48.15	38.47	30.74	29.41	32.00	33.06	39.88	46.22	65.04	91.97	57.12	40.88	32.24	93.77	952.9	991.2	35.95	7.283	6.343	5.866	5.351	5.592	5.122	4.984	4.522	4.769	5.029	4.868	4.828	4.505	4.397	4.091	3.811	3.619	3.525	3.312	3.031	2.850	2.547	2.547	2.165	2.215	2.108	2.028	1.831	1.760	1.573	1.567	1.402	1.329	1.294	1.245	1.229	1.352	1.548	1.677	1.507	1.222	1.122	1.187	1.161	1.210	1.293	1.376	1.489	1.476	1.194	1.135	0.958	1.040	1.036	1.051	1.333	3.405	16.45
615.0	50.35	47.43	45.67	35.96	28.38	28.00	27.49	32.75	39.03	44.04	53.21	83.23	71.67	41.95	30.05	35.22	251.2	1272	364.1	7.387	5.709	4.979	4.572	4.604	4.056	4.254	3.819	3.792	3.838	4.359	4.096	3.946	3.949	3.619	3.267	2.942	2.991	2.688	2.482	2.324	1.898	2.094	1.795	1.804	1.778	1.795	1.552	1.518	1.329	1.415	1.135	1.155	1.054	1.088	1.076	1.068	1.071	1.355	1.441	1.250	1.116	1.171	1.155	1.095	1.127	1.058	1.163	1.351	1.274	1.165	0.991	0.905	0.913	0.910	0.784	1.338	4.049
620.0	45.07	45.42	49.56	33.09	26.37	25.32	26.79	28.66	35.84	42.45	48.84	68.46	83.11	42.84	28.54	22.99	68.76	753.5	933.3	17.23	5.014	4.695	4.293	3.664	3.715	3.396	3.538	3.572	3.232	3.506	3.475	3.340	3.270	3.307	2.910	2.715	2.418	2.320	2.162	2.079	1.879	1.705	1.603	1.357	1.444	1.478	1.437	1.372	1.171	1.201	0.993	1.018	0.968	0.865	0.900	0.937	0.957	1.122	1.337	1.218	1.100	1.023	1.036	1.003	1.064	1.010	1.049	1.167	1.168	1.086	1.045	0.914	0.900	0.807	0.750	0.717	1.378
625.0	44.68	41.65	41.25	33.35	30.12	25.06	28.13	29.53	34.24	39.92	45.84	58.45	83.58	48.84	30.88	19.83	25.81	260.6	1255	70.41	4.701	3.967	3.837	3.328	3.160	3.045	3.399	3.085	3.212	2.986	3.089	3.026	2.790	2.685	2.464	2.367	2.155	2.091	1.783	1.645	1.748	1.435	1.460	1.253	1.271	1.248	1.191	1.302	1.006	0.964	0.957	0.867	0.913	0.777	0.753	0.826	0.884	0.864	1.185	1.016	1.142	0.944	0.975	0.888	1.031	0.875	1.016	0.996	1.038	1.181	0.985	0.856	0.806	0.721	0.616	0.543	0.788
630.0	43.90	46.07	44.33	32.97	26.54	25.90	24.95	29.76	33.28	39.54	46.11	52.81	67.60	60.58	30.16	20.21	16.01	69.56	742.5	668.1	17.96	3.740	3.251	2.992	2.886	2.568	2.576	2.581	2.661	2.490	2.467	2.489	2.268	2.309	2.234	2.132	1.863	1.897	1.695	1.473	1.466	1.263	1.288	1.159	1.126	1.130	1.029	1.004	0.924	0.828	0.770	0.764	0.785	0.688	0.666	0.754	0.755	0.714	0.901	1.018	1.015	0.882	0.853	0.879	0.855	0.874	0.849	0.894	0.839	1.010	0.932	0.916	0.758	0.643	0.591	0.589	0.584
635.0	48.51	45.56	46.27	32.00	24.38	24.19	23.88	26.77	30.73	38.52	44.80	49.17	54.13	64.83	35.38	19.58	14.05	22.75	198.3	966.6	197.9	3.900	2.991	2.623	2.544	2.160	2.245	2.366	2.174	2.346	2.337	2.175	2.092	2.007	1.921	1.758	1.678	1.625	1.457	1.291	1.178	1.256	1.175	1.106	0.947	0.946	0.895	0.840	0.797	0.714	0.665	0.737	0.674	0.641	0.601	0.610	0.720	0.734	0.782	0.799	0.856	0.808	0.808	0.824	0.735	0.747	0.768	0.704	0.821	0.838	0.825	0.866	0.717	0.551	0.561	0.584	0.479
640.0	45.05	42.16	42.27	34.41	24.33	22.02	24.18	26.49	32.07	37.49	43.49	47.65	50.22	60.47	40.42	20.64	14.05	12.83	50.71	633.6	544.2	8.193	2.715	2.536	2.304	2.032	2.106	2.016	2.202	2.101	1.986	1.845	1.582	1.622	1.689	1.544	1.510	1.553	1.195	1.169	1.083	1.075	1.023	0.930	0.863	0.775	0.806	0.844	0.694	0.744	0.617	0.624	0.596	0.606	0.573	0.567	0.753	0.633	0.689	0.699	0.772	0.821	0.752	0.707	0.729	0.723	0.699	0.646	0.875	0.707	0.682	0.908	0.687	0.642	0.587	0.525	0.358
645.0	42.60	48.98	43.46	34.05	26.56	22.46	23.73	26.87	32.63	38.28	41.54	47.00	46.14	52.25	45.76	21.96	13.74	10.34	17.36	236.0	881.5	49.87	2.812	2.321	2.158	1.964	1.850	1.828	1.837	1.712	1.562	1.606	1.506	1.437	1.661	1.466	1.501	1.529	1.160	1.152	0.968	0.932	0.909	0.938	0.760	0.720	0.802	0.807	0.693	0.685	0.577	0.569	0.582	0.548	0.516	0.538	0.609	0.693	0.599	0.614	0.658	0.721	0.723	0.722	0.718	0.711	0.620	0.713	0.674	0.684	0.677	0.717	0.659	0.723	0.600	0.572	0.422
650.0	45.92	49.43	43.77	34.93	27.50	22.47	23.06	25.17	30.47	35.94	41.53	45.42	43.51	44.35	49.70	24.67	13.41	9.681	9.068	64.75	772.6	297.7	3.500	2.229	2.039	1.763	1.755	1.611	1.685	1.658	1.644	1.410	1.508	1.431	1.493	1.486	1.272	1.437	1.225	1.034	0.898	0.934	0.844	0.840	0.767	0.753	0.623	0.733	0.665	0.559	0.552	0.566	0.569	0.473	0.482	0.531	0.616	0.609	0.584	0.615	0.560	0.638	0.682	0.625	0.739	0.644	0.610	0.593	0.609	0.656	0.670	0.620	0.602	0.694	0.581	0.557	0.449
