Sample:	'1
File name:	Default_20230113_092837.FD3
Run date:	'09:22:16, 01/13/2023
Operator:	user
Comment:	'

Instrument
Model:	F-2700 FL Spectrophotometer
Serial number:	2190-003
ROM Version:	4J14000 07

Instrument parameters
Measurement type:	3-D scan
Data mode:	Fluorescence
EX  Start WL:	220.0 nm
EX  End WL:	600.0 nm
EX Sampling interval:	5.0 nm
EM  Start WL:	230.0 nm
EM  End WL:	650.0 nm
EM Sampling interval:	5.0 nm
Scan speed:	12000 nm/min
EX Slit:	5.0 nm
EM Slit:	5.0 nm
PMT Voltage:	700 V
Response:	Auto 
Corrected spectra:	Off
Contour interval:	50.000

Peak integration
Integration method:	Rectangular
Sensitivity:	1
Threshold:	1.000

Peaks
No.	ApexEX/EM(nm)	Height(Data)
1	225.0/295.0	-107.4
2	230.0/300.0	-130.3
3	240.0/520.0	-75.44
4	245.0/265.0	118.1
5	245.0/360.0	 5864
6	245.0/530.0	-79.13
7	250.0/545.0	-50.94
8	255.0/280.0	411.2
9	255.0/555.0	-19.86
10	260.0/285.0	688.5
11	265.0/290.0	 1108
12	265.0/580.0	54.91
13	270.0/295.0	 1663
14	270.0/485.0	-29.09
15	270.0/590.0	70.86
16	275.0/300.0	 1580
17	275.0/600.0	62.00
18	280.0/615.0	19.26
19	285.0/440.0	16.81
20	285.0/625.0	-8.742
21	290.0/320.0	504.0
22	290.0/635.0	-9.830
23	300.0/335.0	340.7
24	305.0/340.0	393.1
25	310.0/280.0	-18.36
26	310.0/345.0	346.1
27	315.0/570.0	-15.71
28	320.0/360.0	237.2
29	320.0/540.0	-10.63
30	325.0/295.0	-13.25
31	325.0/365.0	221.2
32	330.0/370.0	168.1
33	335.0/375.0	165.6
34	335.0/500.0	-0.179
35	335.0/525.0	-5.580
36	340.0/385.0	158.2
37	345.0/390.0	129.3
38	350.0/395.0	125.6
39	355.0/405.0	116.3
40	355.0/625.0	-9.964
41	360.0/410.0	97.97
42	365.0/320.0	-9.226
43	365.0/415.0	91.09
44	370.0/425.0	82.35
45	375.0/430.0	66.05
46	375.0/525.0	-4.527
47	380.0/435.0	59.18
48	380.0/605.0	-7.705
49	385.0/445.0	53.16
50	390.0/450.0	40.19
51	395.0/455.0	34.41
52	395.0/515.0	-2.357
53	395.0/615.0	-6.398
54	400.0/465.0	30.76
55	405.0/285.0	-6.179
56	405.0/470.0	21.77
57	410.0/330.0	-6.016
58	410.0/375.0	-5.498
59	410.0/475.0	17.14
60	415.0/485.0	15.48
61	420.0/490.0	11.76
62	425.0/495.0	10.66
63	430.0/505.0	8.382
64	435.0/510.0	5.690
65	440.0/515.0	4.087
66	445.0/525.0	3.646
67	450.0/530.0	2.626
68	455.0/540.0	1.628
69	460.0/545.0	1.511
70	465.0/555.0	-0.280
71	470.0/560.0	-0.169
72	485.0/365.0	7.472
73	490.0/360.0	7.347
74	490.0/590.0	-3.726
75	510.0/280.0	-3.690
76	520.0/285.0	-2.841
77	535.0/615.0	-4.339
78	540.0/295.0	-0.924
79	545.0/300.0	-1.312
80	545.0/605.0	-4.578
81	550.0/305.0	-2.018
82	560.0/310.0	-2.984
83	575.0/320.0	-3.921
84	580.0/325.0	-4.328
85	585.0/330.0	-4.341

Data points
	220.0	225.0	230.0	235.0	240.0	245.0	250.0	255.0	260.0	265.0	270.0	275.0	280.0	285.0	290.0	295.0	300.0	305.0	310.0	315.0	320.0	325.0	330.0	335.0	340.0	345.0	350.0	355.0	360.0	365.0	370.0	375.0	380.0	385.0	390.0	395.0	400.0	405.0	410.0	415.0	420.0	425.0	430.0	435.0	440.0	445.0	450.0	455.0	460.0	465.0	470.0	475.0	480.0	485.0	490.0	495.0	500.0	505.0	510.0	515.0	520.0	525.0	530.0	535.0	540.0	545.0	550.0	555.0	560.0	565.0	570.0	575.0	580.0	585.0	590.0	595.0	600.0
230.0	-443.9	-58.66	 1926	 1272	-107.1	-153.7	-128.3	-112.5	-101.3	-88.17	-79.30	-73.14	-59.14	-50.42	-40.58	-33.32	-30.05	-25.93	-22.10	-18.63	-17.82	-16.31	-15.28	-13.85	-12.49	-11.24	-11.52	-10.94	-10.76	-11.08	-10.09	-9.330	-9.042	-8.533	-7.982	-7.142	-7.088	-7.103	-6.732	-6.344	-6.619	-6.233	-6.451	-6.431	-6.137	-5.718	-4.881	-3.283	-0.883	-0.668	-3.034	-4.984	-4.682	-5.210	-4.941	-5.399	-5.516	-5.674	-5.470	-5.565	-5.316	-5.209	-5.697	-5.539	-5.404	-5.338	-5.577	-5.709	-5.780	-5.868	-5.827	-5.743	-5.847	-6.054	-5.951	-6.171	-6.248
235.0	-421.6	-279.9	531.2	 2252	 1451	-62.31	-138.0	-115.4	-103.2	-84.31	-75.59	-73.54	-62.46	-48.02	-40.07	-34.08	-32.27	-24.78	-21.45	-18.72	-17.30	-16.68	-15.38	-13.33	-13.27	-12.10	-11.83	-12.03	-11.34	-11.40	-9.609	-9.227	-9.158	-8.314	-8.022	-7.342	-7.386	-6.630	-7.087	-6.553	-6.754	-5.949	-5.603	-6.147	-5.604	-6.091	-5.120	-5.031	-3.599	-1.465	-0.210	-1.756	-3.101	-4.512	-5.441	-5.251	-4.669	-4.856	-5.563	-5.273	-5.346	-5.277	-5.422	-5.713	-5.251	-5.801	-5.193	-5.851	-5.564	-6.144	-6.173	-6.159	-5.990	-5.794	-5.319	-6.166	-6.830
240.0	-416.6	-306.2	-70.30	 1056	 3497	829.3	-88.58	-111.9	-103.8	-86.13	-85.37	-71.04	-59.91	-49.90	-39.57	-35.57	-28.61	-25.56	-22.59	-18.26	-17.32	-16.55	-14.90	-14.85	-13.64	-12.15	-11.99	-10.48	-11.45	-11.00	-10.56	-9.945	-8.962	-8.415	-7.210	-7.376	-7.543	-7.103	-6.465	-6.919	-6.766	-6.220	-6.249	-6.296	-5.800	-5.366	-5.082	-5.050	-4.239	-3.670	-2.592	-1.370	0.300	-2.070	-3.804	-4.886	-4.835	-5.336	-5.456	-5.516	-5.668	-5.202	-5.176	-5.663	-5.453	-6.069	-5.809	-5.822	-5.825	-6.200	-6.273	-6.303	-6.206	-5.626	-5.700	-6.552	-6.482
245.0	-422.4	-283.5	-186.9	90.98	 2408	 2313	544.5	-92.80	-97.48	-79.21	-76.97	-74.65	-57.62	-48.58	-40.73	-32.48	-28.24	-25.64	-20.21	-18.28	-17.49	-16.41	-15.46	-15.57	-14.00	-11.69	-11.75	-11.44	-11.72	-10.71	-10.88	-9.981	-9.773	-9.257	-8.425	-7.686	-7.508	-7.563	-6.277	-6.532	-6.784	-6.358	-6.198	-6.423	-5.912	-5.368	-4.970	-5.047	-4.454	-3.860	-3.904	-3.659	-1.569	-0.434	-0.424	-3.417	-4.956	-5.063	-5.221	-5.292	-5.240	-5.469	-5.324	-5.596	-5.467	-5.912	-5.676	-5.949	-5.648	-5.737	-5.484	-6.183	-6.349	-5.785	-5.678	-6.284	-5.966
250.0	-451.7	-340.1	-157.1	-60.87	490.2	 1159	 1881	893.1	49.05	-90.64	-73.70	-69.45	-57.55	-49.60	-42.02	-32.70	-28.73	-24.75	-21.60	-17.81	-17.61	-15.80	-14.91	-14.64	-13.08	-12.23	-11.50	-11.49	-11.78	-10.30	-9.962	-10.33	-9.045	-9.279	-7.838	-7.496	-7.140	-7.158	-6.639	-6.696	-6.653	-6.746	-6.294	-6.340	-5.991	-6.026	-5.274	-5.212	-4.248	-3.813	-4.098	-4.276	-4.126	-3.410	-2.078	-1.933	-0.539	-1.422	-3.737	-4.933	-5.553	-5.491	-5.447	-5.695	-5.689	-5.347	-6.010	-5.808	-5.785	-5.608	-5.649	-5.421	-5.804	-5.775	-5.990	-5.933	-6.063
255.0	-470.3	-361.4	-208.2	-29.65	90.67	151.4	665.2	 2400	 1349	42.58	-82.20	-73.31	-56.18	-50.87	-44.91	-33.43	-28.44	-24.18	-21.71	-19.42	-17.95	-16.54	-15.52	-13.40	-13.06	-12.45	-11.41	-10.84	-10.77	-10.71	-9.714	-9.720	-9.128	-9.380	-8.619	-6.667	-7.303	-7.078	-6.254	-7.111	-7.051	-6.632	-6.289	-6.300	-6.256	-6.136	-5.323	-4.937	-4.449	-3.765	-3.765	-4.756	-4.897	-5.001	-3.789	-4.366	-2.938	-1.374	1.533	0.786	-2.548	-5.324	-5.629	-5.757	-5.774	-5.285	-5.769	-5.734	-5.495	-5.442	-5.937	-5.755	-5.937	-6.398	-5.912	-6.077	-6.284
260.0	-437.2	-336.2	-245.1	-71.62	134.0	1.357	66.94	 1093	 2979	 1055	-21.49	-71.79	-56.53	-48.50	-44.30	-29.79	-28.82	-24.60	-21.26	-19.20	-17.75	-14.97	-14.62	-13.01	-13.16	-13.30	-11.28	-12.01	-10.45	-10.84	-10.13	-9.016	-8.058	-7.950	-8.924	-7.369	-7.099	-6.397	-6.691	-6.713	-5.976	-5.996	-6.109	-6.184	-5.551	-5.934	-5.169	-4.981	-5.008	-3.751	-3.856	-4.706	-4.422	-5.059	-4.243	-4.844	-4.630	-4.269	-2.430	1.067	3.149	-1.148	-4.662	-5.644	-6.091	-5.928	-5.683	-5.428	-5.341	-5.543	-5.665	-5.894	-5.864	-5.862	-6.208	-6.057	-6.245
265.0	-427.5	-352.5	-277.6	-161.6	61.07	118.1	-45.96	203.2	 1594	 3152	831.6	-42.57	-55.29	-47.57	-42.01	-32.86	-26.37	-25.33	-21.98	-19.08	-16.81	-13.98	-14.39	-13.71	-13.59	-13.07	-11.19	-12.10	-10.95	-9.929	-10.16	-9.642	-8.611	-7.972	-8.097	-7.770	-7.317	-7.230	-6.713	-6.460	-6.811	-5.892	-6.491	-6.345	-5.624	-5.540	-5.207	-4.969	-4.809	-4.468	-4.414	-4.575	-4.397	-4.184	-4.138	-4.984	-5.053	-5.386	-4.501	-3.205	0.349	3.170	3.721	-1.858	-4.931	-5.545	-5.569	-5.476	-5.035	-6.096	-5.781	-5.696	-5.541	-6.035	-6.163	-5.981	-6.063
270.0	-432.7	-351.1	-278.2	-205.5	-87.89	92.38	145.5	19.52	328.5	 1526	 3069	 1919	132.1	-45.51	-38.84	-33.39	-29.21	-23.78	-21.98	-18.95	-16.34	-15.15	-14.25	-14.00	-12.21	-12.13	-11.01	-10.80	-11.55	-10.52	-10.46	-9.519	-8.968	-8.750	-8.056	-7.322	-7.490	-7.876	-6.777	-6.273	-6.528	-6.529	-6.951	-5.509	-5.769	-5.421	-5.029	-5.283	-4.849	-4.305	-4.137	-5.148	-4.705	-4.464	-4.024	-4.496	-4.437	-5.014	-5.199	-4.781	-4.182	-2.748	-0.067	1.773	2.398	0.068	-3.055	-5.063	-5.626	-5.550	-5.894	-5.849	-6.152	-5.708	-6.040	-6.031	-6.097
275.0	-421.5	-287.6	-275.2	-221.0	-146.7	-81.48	169.6	293.6	103.8	377.5	 1115	 3528	 2751	137.8	-37.13	-32.05	-29.11	-22.66	-19.40	-19.85	-16.56	-15.10	-14.48	-13.54	-12.69	-11.82	-11.01	-10.80	-11.13	-10.01	-10.27	-9.144	-9.206	-7.828	-7.873	-7.717	-7.456	-6.841	-7.118	-6.404	-6.869	-6.664	-6.553	-6.097	-5.845	-5.868	-5.215	-4.766	-4.686	-3.952	-4.064	-5.181	-4.418	-5.130	-4.978	-4.471	-4.381	-4.142	-4.481	-5.126	-5.043	-4.400	-4.103	-3.698	-2.527	2.080	6.315	3.702	-2.543	-5.291	-5.927	-5.574	-5.966	-5.853	-6.086	-6.144	-6.278
280.0	-328.3	-284.8	-290.1	-201.0	-147.5	-106.6	27.63	411.2	358.8	276.7	488.4	 1682	 4229	731.3	32.19	-33.13	-28.42	-24.66	-18.36	-20.35	-18.53	-15.12	-13.77	-12.23	-11.61	-11.51	-11.44	-11.78	-11.35	-11.33	-9.951	-9.311	-9.035	-7.798	-7.994	-7.346	-7.048	-6.695	-7.280	-6.935	-6.118	-6.589	-6.266	-6.491	-5.359	-6.115	-5.108	-5.222	-5.359	-4.025	-3.952	-5.333	-4.600	-5.252	-4.892	-4.388	-5.057	-4.521	-3.690	-4.283	-4.299	-4.881	-4.475	-4.910	-4.195	-2.801	1.031	6.262	7.059	1.694	-4.199	-5.641	-5.741	-5.546	-5.772	-6.263	-6.544
285.0	-288.8	-268.4	-238.1	-180.3	-134.9	-86.90	-13.02	270.9	688.5	582.0	618.3	873.1	 2284	 4008	546.4	-13.61	-25.08	-24.71	-20.11	-18.26	-17.92	-16.80	-14.44	-13.45	-11.98	-12.78	-11.17	-12.15	-11.01	-11.40	-11.29	-9.215	-9.287	-6.979	-7.792	-7.409	-7.147	-6.179	-7.486	-6.933	-6.709	-7.053	-5.706	-6.166	-5.299	-5.717	-4.965	-4.810	-4.769	-3.800	-4.149	-5.338	-4.315	-5.374	-5.006	-5.468	-5.025	-4.722	-3.747	-3.208	-2.841	-3.782	-4.123	-4.118	-4.300	-4.345	-2.814	-0.202	3.262	8.915	5.914	-1.904	-5.393	-5.029	-5.779	-6.205	-6.430
290.0	-276.1	-198.3	-163.8	-157.9	-125.8	-73.59	19.76	236.7	625.8	 1108	 1054	938.1	956.2	 1847	 3230	 1714	101.5	-23.41	-20.52	-18.11	-16.97	-15.62	-14.22	-13.82	-12.30	-11.78	-11.38	-11.10	-11.34	-10.85	-10.65	-9.168	-8.328	-7.829	-8.102	-6.773	-6.956	-7.025	-7.202	-6.652	-6.629	-6.389	-5.588	-5.871	-5.353	-5.549	-4.634	-4.481	-4.192	-3.933	-4.159	-4.729	-4.943	-5.062	-4.329	-5.359	-5.220	-4.673	-4.341	-3.993	-3.189	-2.577	-2.555	-2.807	-3.479	-3.857	-3.589	-3.314	-2.801	-0.297	2.438	3.846	4.290	2.624	-3.495	-5.850	-6.212
295.0	-215.1	-107.4	-150.0	-158.8	-134.1	-55.97	50.39	229.1	554.8	 1033	 1663	 1184	720.5	531.9	 1002	 3055	 2402	122.6	-19.96	-16.70	-15.98	-13.25	-15.76	-11.95	-12.04	-10.60	-10.29	-10.11	-11.05	-10.43	-9.778	-8.864	-7.690	-7.894	-7.562	-7.104	-7.261	-6.835	-7.465	-6.025	-6.843	-5.826	-6.043	-5.427	-5.317	-4.767	-4.612	-4.608	-4.267	-3.538	-3.944	-4.785	-4.463	-4.838	-3.888	-5.318	-4.694	-4.565	-4.311	-4.444	-4.122	-3.044	-2.547	-1.607	-0.924	-2.779	-3.165	-3.389	-3.657	-4.050	-3.776	-2.973	-1.546	4.700	7.743	3.734	-2.895
300.0	-136.7	-137.6	-130.3	-142.3	-116.2	-37.69	48.91	221.7	536.7	943.4	 1523	 1580	731.7	242.1	251.9	 1161	 3540	 1819	39.64	-16.52	-16.81	-15.04	-14.02	-13.07	-12.69	-10.88	-10.66	-11.24	-11.80	-9.702	-10.33	-8.648	-8.474	-7.073	-7.757	-7.153	-6.934	-6.572	-6.182	-6.328	-6.108	-6.456	-5.439	-5.056	-5.271	-5.135	-4.894	-4.590	-4.754	-3.606	-3.918	-4.403	-4.968	-4.724	-3.949	-4.986	-5.074	-4.460	-4.654	-4.038	-3.909	-3.821	-2.338	-2.210	-1.695	-1.312	-2.670	-3.887	-4.125	-5.091	-4.882	-5.208	-4.605	-2.814	1.215	7.684	8.116
305.0	-132.6	-184.9	-141.3	-118.8	-121.1	-45.99	54.91	219.6	473.6	828.2	 1212	 1551	922.7	193.1	86.91	276.0	 1628	 3693	310.4	3.295	-15.39	-14.53	-12.52	-12.08	-10.85	-11.34	-11.82	-11.49	-10.80	-10.19	-10.15	-9.087	-8.337	-8.207	-7.307	-6.733	-6.927	-6.399	-6.774	-6.287	-6.652	-6.916	-5.603	-5.420	-5.877	-5.517	-4.794	-4.899	-4.537	-3.624	-3.635	-4.739	-4.921	-4.895	-4.682	-4.900	-5.412	-4.853	-4.644	-4.326	-3.924	-3.336	-3.013	-2.818	-2.963	-2.597	-2.018	-3.406	-4.098	-4.815	-5.738	-5.215	-5.626	-5.027	-4.499	-1.567	4.142
310.0	-228.0	-193.1	-157.0	-140.7	-110.4	-38.15	27.08	184.6	386.7	689.6	917.3	 1048	970.8	424.8	79.57	71.35	391.7	 1560	 2354	 1231	81.88	-11.61	-12.82	-12.94	-11.80	-11.08	-11.87	-11.05	-10.99	-10.47	-9.774	-9.759	-7.971	-7.972	-7.835	-6.867	-7.116	-6.302	-6.798	-6.504	-6.565	-6.157	-6.123	-5.721	-5.734	-5.338	-4.551	-4.750	-4.708	-3.860	-4.035	-4.868	-4.587	-5.084	-4.750	-4.799	-5.054	-4.393	-4.657	-4.516	-4.237	-3.612	-3.286	-3.463	-3.848	-3.752	-3.113	-3.275	-2.984	-4.155	-5.255	-5.444	-5.799	-5.686	-5.027	-5.428	-3.757
315.0	-238.4	-214.0	-147.2	-87.46	-73.23	-8.926	54.58	161.9	332.5	522.4	682.9	712.0	573.7	571.3	308.6	49.65	101.3	351.7	754.0	 2633	 1980	116.4	-11.56	-11.94	-11.74	-11.22	-10.39	-10.31	-11.02	-9.755	-10.18	-10.56	-8.607	-8.342	-8.200	-7.257	-6.992	-6.762	-6.957	-6.157	-6.197	-6.550	-5.764	-6.208	-5.064	-5.506	-4.928	-4.395	-4.953	-4.229	-3.943	-4.803	-4.417	-4.962	-4.687	-4.746	-4.451	-4.359	-4.723	-4.936	-4.351	-3.860	-3.763	-3.900	-4.135	-4.615	-3.709	-3.974	-4.205	-4.280	-4.137	-4.762	-5.453	-5.891	-6.023	-5.474	-5.552
320.0	-192.0	-108.2	7.484	8.481	32.53	108.6	154.0	216.5	344.7	471.0	567.2	564.3	396.0	364.0	504.0	155.0	46.15	90.25	180.1	 1050	 3737	 1601	38.06	-10.75	-11.79	-10.56	-9.821	-10.39	-11.47	-9.226	-10.31	-9.986	-8.662	-8.526	-8.068	-7.799	-7.037	-7.835	-6.556	-5.939	-6.209	-6.616	-5.947	-6.598	-5.499	-5.626	-4.229	-4.490	-4.350	-3.809	-3.495	-4.894	-4.285	-4.688	-4.358	-4.439	-4.721	-4.147	-4.192	-5.020	-4.378	-4.134	-4.360	-4.467	-3.985	-4.458	-4.270	-4.845	-4.675	-4.860	-4.551	-3.921	-4.458	-5.785	-5.815	-5.778	-6.423
325.0	-170.0	46.35	322.3	244.8	269.1	320.4	397.8	390.3	429.3	476.7	521.1	491.9	357.1	236.6	425.1	377.6	85.73	40.78	58.06	257.0	 1759	 3997	965.1	9.151	-10.58	-10.53	-10.04	-10.27	-10.73	-10.01	-10.30	-10.31	-8.247	-8.320	-7.814	-7.911	-7.023	-7.379	-6.379	-6.783	-6.303	-6.243	-5.558	-6.143	-5.465	-5.549	-4.059	-4.526	-3.575	-3.305	-3.158	-4.353	-3.806	-4.450	-3.901	-3.251	-4.120	-3.939	-3.581	-4.080	-3.936	-3.635	-4.470	-4.757	-3.654	-4.460	-4.482	-4.440	-5.047	-5.020	-5.392	-4.467	-4.328	-4.573	-5.460	-5.559	-6.519
330.0	-95.18	307.6	706.1	822.2	999.7	 1070	 1012	936.9	770.1	680.6	548.3	441.9	316.2	211.0	235.6	365.3	308.3	96.10	45.55	77.46	421.3	 1743	 2435	924.7	63.36	-9.917	-9.825	-9.877	-10.55	-9.696	-9.899	-9.349	-8.568	-8.228	-8.159	-7.820	-6.954	-7.563	-6.016	-7.048	-6.243	-6.083	-5.959	-5.697	-5.127	-4.676	-4.477	-3.652	-2.970	-2.865	-2.201	-3.280	-2.971	-2.631	-2.536	-2.393	-2.369	-2.941	-2.901	-3.025	-3.448	-3.387	-4.153	-4.124	-4.133	-4.350	-4.600	-4.949	-5.078	-5.247	-5.625	-4.989	-4.803	-4.341	-4.439	-4.575	-5.800
335.0	147.7	728.4	 1374	 1694	 2045	 2172	 2022	 1752	 1384	 1027	663.1	436.7	307.1	224.4	204.1	223.4	340.7	313.5	90.42	49.76	114.8	401.2	758.1	 2488	 1484	88.98	-9.502	-8.042	-9.556	-10.43	-9.596	-9.590	-8.758	-8.530	-7.947	-7.626	-6.924	-6.775	-6.859	-6.280	-6.472	-6.409	-5.628	-5.648	-4.759	-4.428	-3.818	-2.295	-1.321	-1.503	-1.206	-1.358	-1.240	-0.169	0.238	-0.441	-1.147	-1.418	-1.473	-2.568	-2.476	-2.900	-3.540	-3.837	-4.341	-4.124	-4.833	-4.619	-5.106	-5.395	-5.406	-4.649	-5.153	-5.282	-5.313	-4.394	-5.117
340.0	324.5	 1121	 1974	 2354	 2915	 3220	 3045	 2518	 1916	 1327	790.5	421.2	296.4	238.1	212.8	190.3	229.5	393.1	214.0	63.88	53.23	103.2	175.0	987.2	 2948	 1249	47.11	-8.627	-9.462	-10.14	-8.969	-8.707	-8.125	-7.434	-7.906	-7.087	-6.986	-7.138	-7.258	-6.522	-6.148	-6.581	-5.496	-4.708	-4.474	-4.073	-2.223	-1.175	-0.572	-0.713	0.254	0.714	0.699	1.563	2.178	2.032	0.893	0.016	-0.275	-0.873	-1.664	-2.808	-2.977	-3.601	-4.523	-4.010	-5.128	-4.540	-5.051	-5.047	-5.351	-5.074	-5.371	-4.995	-5.525	-5.104	-5.802
345.0	361.6	 1334	 2371	 3022	 3647	 4054	 3827	 3115	 2347	 1582	904.4	436.0	284.3	233.8	219.3	191.0	177.8	291.6	346.1	121.9	41.59	39.00	44.47	232.9	 1437	 3089	894.9	7.811	-8.260	-9.305	-9.342	-8.904	-7.750	-8.025	-7.905	-6.310	-6.992	-7.511	-6.650	-6.313	-5.761	-5.440	-5.018	-5.205	-4.168	-2.461	-1.575	-0.793	-0.287	0.477	0.854	1.559	3.089	3.341	3.129	3.659	3.356	2.246	0.182	0.433	-0.876	-1.562	-2.373	-3.165	-3.723	-4.333	-4.590	-4.779	-4.493	-5.346	-4.515	-5.177	-4.807	-4.966	-5.567	-5.477	-5.466
350.0	534.0	 1757	 2769	 3565	 4539	 4951	 4614	 3800	 2795	 1915	 1031	438.7	285.2	243.7	228.9	198.4	177.2	193.8	273.5	264.2	100.3	29.54	17.18	56.97	340.6	 1361	 2313	 1232	54.79	-8.413	-9.520	-8.721	-7.903	-8.220	-7.814	-6.747	-6.965	-6.991	-6.653	-6.379	-5.573	-5.297	-5.440	-4.629	-3.823	-2.837	-1.117	-0.174	0.267	1.352	2.328	3.041	4.710	4.651	5.346	5.314	5.038	4.179	1.661	1.341	0.247	-0.689	-1.380	-2.527	-3.930	-4.419	-4.535	-5.100	-4.958	-4.992	-4.788	-5.086	-5.146	-5.629	-5.394	-5.456	-5.214
355.0	694.0	 1910	 3096	 4079	 5034	 5570	 5264	 4222	 3097	 2111	 1107	438.6	266.2	240.5	233.1	199.7	181.1	175.5	168.9	224.4	234.0	65.40	15.89	18.87	79.15	308.1	743.0	 2508	 1258	71.99	-8.964	-8.636	-8.022	-7.924	-7.324	-6.835	-6.601	-7.122	-6.933	-6.174	-5.747	-5.229	-5.635	-4.515	-3.524	-2.760	-1.302	0.341	1.436	2.029	2.956	5.353	5.512	6.535	7.065	6.431	6.302	4.764	3.156	1.474	0.554	-0.283	-1.586	-2.367	-3.839	-4.244	-4.951	-4.999	-5.150	-4.732	-4.976	-5.010	-4.967	-5.235	-5.595	-5.798	-5.702
360.0	788.6	 1971	 3178	 4259	 5209	 5864	 5617	 4456	 3258	 2200	 1112	441.5	265.3	232.4	223.6	199.8	187.6	175.3	145.7	144.5	237.2	157.9	28.55	12.09	23.69	71.42	171.2	 1040	 2772	 1041	32.55	-8.341	-8.698	-8.222	-7.234	-7.127	-6.685	-6.872	-6.626	-6.035	-6.189	-5.212	-5.477	-4.077	-3.669	-2.064	-1.257	0.361	1.259	2.238	3.235	5.659	5.855	6.556	7.347	7.022	6.758	4.629	3.476	2.347	0.877	0.050	-1.677	-2.568	-3.471	-3.838	-4.755	-4.847	-5.213	-4.939	-5.294	-4.360	-4.949	-5.016	-5.785	-5.455	-5.747
365.0	697.9	 2055	 3333	 4175	 5424	 5836	 5551	 4417	 3202	 2187	 1126	400.3	236.5	227.2	223.2	199.1	188.3	168.8	140.3	109.5	148.0	221.2	82.48	17.17	12.96	20.55	40.50	245.7	 1450	 2868	765.7	2.723	-7.859	-7.734	-7.040	-6.571	-6.469	-6.376	-6.675	-6.321	-5.621	-5.548	-5.788	-3.784	-4.100	-1.811	-1.021	0.982	1.490	2.598	3.228	5.108	6.164	7.472	6.891	7.343	6.147	5.644	3.727	2.115	0.421	-0.640	-1.132	-2.505	-2.970	-3.931	-5.011	-4.844	-5.603	-5.591	-4.957	-4.998	-4.991	-5.649	-4.931	-5.197	-5.507
370.0	685.4	 1848	 3096	 4007	 5148	 5546	 5243	 4208	 3072	 2086	 1047	373.1	218.1	200.2	206.1	196.2	174.7	164.3	133.5	100.7	86.72	137.6	168.1	73.42	16.71	12.14	13.69	57.26	348.3	 1364	 2385	650.2	41.20	-6.168	-6.495	-6.281	-6.804	-6.147	-6.149	-6.372	-6.013	-5.700	-4.907	-4.245	-3.586	-2.251	-1.493	-0.052	1.277	1.726	2.847	4.500	5.385	6.689	6.402	7.240	5.930	4.991	3.162	1.370	-0.200	-0.425	-1.188	-2.542	-3.658	-4.720	-4.932	-4.883	-5.611	-5.242	-4.740	-5.146	-5.194	-5.299	-5.310	-5.488	-5.378
375.0	587.0	 1679	 2793	 3683	 4684	 5169	 4786	 3814	 2827	 1892	954.7	328.1	198.1	188.3	186.0	176.9	179.2	154.7	126.9	94.41	68.09	66.51	115.3	165.6	56.90	12.82	11.80	15.75	79.27	305.3	839.5	 2436	 1039	50.68	-6.508	-6.333	-6.739	-5.988	-5.498	-6.625	-6.400	-6.076	-4.825	-4.414	-3.519	-2.280	-1.631	-0.309	0.415	1.489	2.136	3.528	4.340	5.746	5.135	5.776	5.632	3.665	2.359	1.296	-0.092	-1.169	-1.828	-2.894	-4.322	-4.385	-4.818	-5.431	-4.779	-5.187	-5.150	-5.032	-5.237	-5.621	-5.473	-5.591	-5.088
380.0	561.4	 1611	 2461	 3369	 4268	 4717	 4367	 3500	 2597	 1686	841.3	300.3	165.5	168.7	162.7	163.7	157.6	149.2	123.9	91.60	64.29	49.79	62.21	147.8	124.5	27.74	11.38	8.288	20.46	67.67	192.4	 1120	 2797	826.7	16.51	-5.885	-6.315	-6.705	-6.063	-6.145	-5.745	-5.733	-5.062	-4.864	-3.470	-3.102	-1.224	-1.111	-0.016	0.888	1.321	2.422	3.330	4.771	4.117	4.782	4.746	2.718	2.220	0.828	-0.943	-1.338	-2.124	-3.383	-3.577	-4.048	-5.251	-5.581	-5.216	-4.997	-4.949	-5.357	-5.384	-5.464	-5.423	-5.892	-5.608
385.0	424.6	 1371	 2198	 2921	 3892	 4224	 3914	 3228	 2272	 1522	748.9	264.4	147.1	149.5	146.5	151.2	144.6	133.1	117.4	86.55	59.56	47.25	41.96	81.15	158.2	75.47	17.41	7.333	7.319	16.69	42.38	269.8	 1617	 2595	547.6	-0.281	-5.963	-5.371	-6.593	-5.210	-6.128	-6.147	-5.776	-4.639	-3.893	-3.942	-1.957	-1.678	-0.453	0.704	0.749	2.345	2.320	3.289	3.586	3.305	3.090	2.232	1.510	-0.184	-1.044	-1.489	-2.446	-3.341	-3.907	-4.654	-5.483	-5.059	-5.121	-5.060	-5.700	-5.268	-5.449	-4.890	-5.668	-6.082	-5.790
390.0	336.1	 1100	 1814	 2499	 3233	 3542	 3272	 2684	 1921	 1266	654.6	217.6	132.4	123.5	127.7	128.7	125.8	119.6	104.5	81.42	58.83	46.82	38.11	44.22	93.59	129.3	64.10	13.50	7.485	7.468	10.27	60.27	395.6	 1343	 2075	486.4	30.06	-5.724	-5.897	-5.701	-6.258	-6.059	-5.779	-5.048	-4.507	-3.597	-2.558	-2.465	-0.923	-0.292	-0.069	1.310	1.338	2.176	2.093	2.287	1.728	1.464	-0.109	-0.855	-1.466	-1.951	-3.112	-3.566	-4.388	-4.841	-5.326	-4.835	-4.857	-5.358	-4.975	-5.275	-5.191	-5.007	-5.186	-6.040	-5.393
395.0	143.5	807.9	 1491	 1959	 2601	 2853	 2709	 2192	 1582	 1037	529.3	189.9	118.0	107.0	113.1	113.1	107.4	102.8	95.07	71.55	55.84	45.55	37.03	35.86	43.31	82.46	125.6	50.35	10.86	5.975	4.777	14.11	86.44	299.6	807.6	 2218	781.0	35.17	-5.694	-5.798	-5.575	-6.008	-5.501	-5.177	-5.048	-3.977	-2.905	-2.691	-2.326	-0.547	-0.540	0.365	0.124	1.022	0.474	1.611	0.751	-0.169	-0.752	-2.136	-2.415	-3.138	-3.580	-3.510	-4.329	-4.771	-5.253	-4.920	-4.843	-5.440	-5.090	-5.359	-5.126	-5.308	-4.747	-6.100	-5.694
400.0	97.05	708.0	 1181	 1674	 2184	 2358	 2255	 1814	 1310	847.8	432.5	150.4	107.7	89.69	90.38	91.46	98.04	96.71	88.13	69.66	49.85	44.12	36.80	31.92	34.48	42.93	106.8	104.4	24.62	6.811	4.228	4.361	17.72	65.03	187.7	 1135	 2189	626.5	8.834	-5.586	-5.588	-6.307	-5.548	-5.048	-5.232	-3.864	-2.920	-3.283	-2.132	-1.627	-0.958	-0.669	-0.745	0.346	-0.619	0.427	-0.248	-0.813	-1.860	-2.340	-3.212	-2.611	-3.463	-4.510	-4.585	-5.004	-5.066	-4.804	-5.235	-5.363	-5.572	-5.016	-5.254	-5.632	-5.957	-5.717	-5.603
405.0	58.73	499.7	 1022	 1398	 1826	 2041	 1935	 1531	 1110	738.5	355.1	134.8	82.44	78.82	81.34	82.88	91.57	84.35	81.16	62.81	47.66	40.18	35.00	34.18	32.13	32.61	57.89	116.3	63.37	11.05	5.499	2.575	4.352	13.19	41.34	279.9	 1350	 2087	95.79	-2.577	-5.946	-5.787	-5.383	-4.777	-5.214	-3.783	-3.383	-3.406	-2.377	-2.186	-1.300	-1.649	-0.818	-0.376	-0.413	-0.467	-0.157	-1.243	-2.036	-3.097	-3.923	-3.113	-3.916	-4.580	-4.965	-5.107	-5.538	-4.797	-5.581	-5.297	-5.298	-5.313	-5.436	-5.769	-5.628	-5.518	-5.199
410.0	-71.10	340.4	730.4	 1068	 1403	 1562	 1510	 1178	865.8	570.6	272.5	98.74	59.74	63.04	64.98	68.39	74.17	72.52	65.93	55.53	45.87	36.07	34.23	31.84	30.28	28.14	33.15	65.77	97.97	48.84	10.72	3.590	1.409	2.519	7.984	61.29	334.8	 1156	 1559	424.2	21.38	-5.784	-5.593	-5.121	-5.295	-4.395	-3.573	-3.667	-2.680	-2.205	-2.011	-1.838	-1.625	-1.786	-1.912	-1.448	-1.050	-2.338	-2.617	-3.209	-3.833	-3.794	-4.536	-4.564	-5.181	-5.226	-5.384	-5.271	-5.609	-5.233	-5.459	-5.555	-5.582	-5.471	-5.356	-5.377	-5.674
415.0	-173.7	173.0	452.2	795.1	 1047	 1197	 1076	874.1	661.9	433.2	225.2	71.18	41.03	51.49	53.64	61.58	60.04	57.55	55.52	50.19	38.35	34.80	33.96	30.45	26.75	26.15	24.98	29.77	57.84	91.09	39.51	5.123	2.192	-0.049	0.675	12.50	72.89	257.5	655.1	 1731	647.8	23.15	-4.971	-5.116	-5.008	-5.155	-4.197	-3.704	-3.222	-2.421	-2.335	-2.788	-2.346	-2.285	-2.688	-2.543	-2.832	-3.337	-3.748	-3.535	-4.418	-4.028	-4.320	-4.745	-5.371	-4.985	-5.647	-4.818	-5.980	-5.179	-5.890	-5.431	-5.372	-5.391	-5.660	-6.208	-6.009
420.0	-177.8	25.38	352.0	638.8	771.6	936.8	857.3	687.5	515.0	333.7	171.2	51.20	31.03	35.32	47.46	50.89	57.43	46.95	48.99	40.72	36.02	32.48	29.57	29.02	23.64	23.93	22.01	23.67	30.61	74.26	70.99	16.20	2.318	0.333	-0.447	1.308	13.70	54.91	152.5	935.2	 1766	473.7	1.851	-4.779	-5.280	-5.126	-3.998	-4.119	-3.004	-2.617	-2.581	-2.936	-2.766	-2.533	-3.069	-2.765	-3.059	-3.978	-3.792	-3.753	-4.723	-4.142	-4.843	-5.297	-5.767	-5.278	-5.691	-4.890	-5.334	-5.235	-5.467	-5.448	-5.647	-5.666	-5.817	-6.091	-5.790
425.0	-231.5	-7.041	242.0	477.2	650.3	733.6	698.5	550.1	437.4	279.2	128.7	34.96	21.14	33.45	42.40	41.92	44.73	45.82	43.15	39.92	31.26	28.31	30.06	29.33	23.56	23.58	22.15	19.57	18.99	39.05	82.35	43.39	5.550	0.517	-0.301	-1.283	1.073	9.668	32.09	236.3	 1161	 1549	82.23	-3.905	-4.906	-5.092	-4.129	-4.102	-3.750	-2.748	-3.079	-3.635	-3.112	-2.954	-3.424	-3.118	-3.796	-4.003	-3.648	-4.518	-4.608	-4.396	-4.334	-5.239	-5.328	-5.233	-5.390	-5.325	-5.655	-5.736	-5.295	-5.497	-5.463	-5.916	-5.865	-6.066	-6.189
430.0	-180.2	-58.88	132.2	320.6	475.8	563.2	514.9	427.8	313.7	205.4	93.99	25.35	17.04	22.61	32.86	32.69	36.09	37.28	35.00	35.98	30.33	28.10	27.42	26.17	23.65	23.74	21.05	18.20	16.56	19.92	44.44	66.05	32.46	4.308	0.283	-0.880	-1.157	-0.033	4.712	50.37	290.8	901.7	 1008	373.0	18.36	-4.662	-4.136	-3.887	-3.816	-2.873	-3.604	-3.485	-3.409	-3.623	-3.533	-3.399	-3.864	-4.060	-4.187	-4.885	-4.707	-4.363	-4.778	-5.285	-4.927	-5.309	-5.775	-5.318	-5.293	-6.017	-5.619	-5.902	-5.298	-5.950	-5.801	-6.180	-6.560
435.0	33.27	-99.49	56.72	209.3	325.9	371.7	370.0	327.0	227.0	138.2	53.69	20.63	13.10	12.69	17.39	26.21	25.63	30.77	33.42	30.67	25.40	23.97	24.61	25.76	20.38	21.99	19.71	16.07	15.67	17.12	18.66	38.68	59.18	23.90	1.116	0.129	-1.295	-2.382	-1.997	8.491	61.90	200.1	514.3	 1467	568.1	19.84	-4.568	-3.979	-3.660	-3.183	-3.424	-4.326	-3.957	-4.306	-3.713	-3.880	-4.040	-4.315	-3.996	-4.506	-4.908	-4.913	-5.110	-5.432	-5.210	-5.395	-5.125	-4.787	-5.160	-5.984	-5.333	-5.349	-5.338	-5.610	-6.095	-6.027	-6.428
440.0	220.2	-87.12	-11.65	139.0	235.4	283.0	260.9	232.6	157.4	107.8	41.05	4.048	10.16	16.81	11.79	23.82	23.44	26.46	24.99	23.12	23.69	24.13	20.99	23.11	19.12	19.15	19.35	16.31	12.38	11.96	11.99	20.05	51.03	49.11	8.632	0.049	-0.866	-2.008	-2.621	-0.735	11.11	41.70	120.9	814.1	 1504	422.1	2.357	-4.354	-3.629	-3.503	-3.492	-3.791	-3.905	-4.044	-3.579	-3.953	-4.386	-4.391	-4.022	-4.170	-4.450	-4.556	-5.038	-5.055	-5.629	-5.667	-5.686	-5.779	-5.190	-5.420	-5.550	-5.784	-5.245	-5.871	-5.680	-6.239	-6.180
445.0	175.9	172.1	-45.67	74.01	158.9	205.1	216.1	186.9	138.1	84.96	26.46	-2.337	1.044	9.689	6.306	17.83	23.35	24.62	25.06	21.43	19.76	19.10	19.98	21.94	19.12	17.45	15.77	15.54	12.97	11.15	10.44	10.26	25.85	53.16	27.65	1.905	-0.923	-2.145	-3.234	-3.036	0.643	6.226	24.85	205.8	 1012	 1410	68.35	-2.406	-3.897	-3.488	-3.297	-3.893	-4.027	-5.009	-4.221	-4.313	-4.857	-4.539	-4.551	-4.622	-4.659	-5.113	-4.663	-5.339	-5.181	-5.581	-5.499	-5.586	-5.523	-4.636	-6.184	-5.981	-5.470	-5.768	-5.531	-6.201	-6.282
450.0	-125.4	497.7	139.2	8.528	89.24	135.8	152.1	124.4	94.54	50.08	19.03	-11.49	-8.507	-0.942	6.581	12.83	17.42	17.17	16.17	16.98	18.77	16.98	17.63	17.06	18.17	16.64	14.86	14.72	11.83	10.89	8.498	7.895	11.39	27.38	40.19	19.58	1.787	-2.367	-3.029	-3.698	-2.165	-1.672	2.306	43.09	255.4	858.3	 1207	320.4	14.57	-3.143	-3.184	-4.183	-4.218	-4.667	-4.166	-4.377	-4.469	-4.614	-4.772	-4.997	-4.748	-5.131	-5.194	-5.353	-5.367	-5.279	-6.038	-5.472	-5.623	-5.422	-5.953	-5.843	-5.166	-5.545	-5.761	-5.845	-6.091
455.0	-307.8	269.4	686.2	34.52	36.12	79.03	108.8	72.63	43.73	25.93	-0.444	-16.28	-13.45	-0.386	2.281	4.086	11.32	13.80	14.66	13.51	16.07	13.85	13.39	14.52	15.51	14.20	13.56	11.21	11.22	9.822	8.377	8.182	6.751	10.19	23.37	34.41	14.24	-1.499	-3.088	-4.199	-2.974	-3.223	-2.436	5.742	54.12	190.6	543.7	 1325	462.2	13.00	-3.031	-4.319	-4.067	-4.573	-4.507	-4.868	-4.711	-4.455	-5.066	-4.848	-4.687	-4.967	-5.236	-5.617	-4.802	-5.060	-5.427	-5.522	-5.984	-5.878	-5.635	-6.006	-5.692	-4.957	-5.958	-5.476	-6.503
460.0	-335.6	-88.16	992.4	219.7	-2.611	30.17	44.87	47.57	24.55	13.02	-10.92	-16.76	-17.16	-15.56	-8.199	4.798	6.643	10.56	10.49	12.05	11.36	12.46	10.14	11.56	13.54	10.44	11.93	10.39	11.54	9.073	7.897	5.555	4.403	5.626	8.958	30.68	27.69	4.489	-3.195	-2.983	-3.337	-3.693	-4.401	-1.957	8.922	39.83	126.9	747.9	 1334	299.3	1.555	-3.832	-4.280	-4.632	-4.266	-4.524	-4.595	-4.480	-4.748	-4.867	-5.478	-5.627	-4.999	-5.307	-5.479	-5.442	-5.596	-5.512	-5.751	-5.285	-5.673	-5.861	-5.690	-5.649	-5.774	-6.089	-6.376
465.0	-350.2	-243.8	777.9	685.0	-14.51	-12.46	24.70	12.95	8.699	-0.514	-20.39	-23.34	-24.77	-19.69	-6.247	0.290	5.345	4.721	7.933	8.648	9.648	7.297	7.477	11.21	10.72	8.658	10.14	8.545	10.23	6.705	6.699	4.074	3.502	3.512	2.841	15.52	30.76	14.61	-0.888	-3.371	-3.182	-3.478	-4.027	-4.000	-1.716	5.595	25.98	189.2	938.5	 1130	54.75	-3.010	-4.217	-4.664	-4.378	-4.511	-5.242	-4.659	-4.894	-5.244	-5.228	-5.430	-5.646	-5.233	-5.297	-6.048	-5.530	-5.719	-5.203	-5.831	-5.755	-6.005	-5.844	-6.043	-6.039	-5.641	-6.035
470.0	-383.1	-282.1	182.3	 1046	259.0	-29.54	-8.019	1.228	0.435	-17.89	-23.58	-27.46	-24.29	-13.40	-13.41	-0.967	2.271	2.502	4.164	5.477	6.271	6.176	5.488	6.626	8.299	7.583	7.943	7.555	8.111	5.736	5.455	4.215	2.735	2.558	0.004	4.575	14.87	21.77	9.092	-1.355	-3.802	-3.575	-4.307	-4.563	-3.695	-1.730	3.494	39.69	237.9	745.9	917.4	280.2	10.33	-4.296	-4.807	-4.384	-5.212	-5.042	-4.948	-4.764	-5.087	-5.393	-5.187	-5.220	-5.405	-5.405	-5.647	-5.687	-5.487	-5.538	-5.525	-5.858	-6.332	-5.784	-6.046	-5.831	-6.129
475.0	-356.0	-327.5	-142.6	540.6	967.1	1.107	-37.55	-26.56	-25.09	-26.00	-37.68	-25.63	-26.86	-18.73	-11.52	-8.369	-1.796	-2.587	0.220	1.757	1.906	3.972	3.944	5.964	5.664	6.196	5.319	5.910	5.393	4.900	3.994	2.750	1.200	0.919	-0.439	0.662	3.644	11.76	17.14	5.385	-2.693	-3.874	-3.977	-4.296	-4.102	-2.981	-2.217	5.587	50.69	166.1	423.2	914.1	357.4	8.197	-4.606	-5.007	-5.041	-5.325	-5.009	-5.525	-5.227	-5.458	-5.298	-5.869	-5.516	-5.320	-5.481	-5.694	-6.008	-5.608	-5.658	-5.100	-6.137	-5.354	-5.860	-5.788	-6.556
480.0	-409.0	-296.8	-232.4	82.75	 1143	215.9	-50.92	-45.70	-24.27	-32.72	-32.22	-31.16	-25.77	-20.94	-14.02	-13.20	-6.865	-1.731	0.449	-3.568	2.596	0.218	4.153	3.586	2.890	3.715	4.132	3.980	4.071	4.069	2.918	1.799	-0.225	0.012	-0.583	-1.191	-0.280	3.137	15.14	12.21	-1.130	-3.330	-4.441	-4.157	-3.785	-3.665	-3.267	-1.758	8.256	34.78	99.30	508.0	926.2	70.42	-1.886	-4.682	-4.874	-4.955	-5.001	-5.121	-5.096	-5.018	-5.268	-5.745	-5.635	-5.479	-5.378	-5.496	-5.413	-5.684	-5.706	-5.313	-5.878	-5.851	-5.443	-5.924	-6.410
485.0	-395.2	-278.7	-238.0	-113.5	770.7	654.1	-37.28	-52.46	-45.85	-42.34	-29.09	-40.07	-28.07	-19.64	-18.87	-16.43	-8.220	-6.802	-4.100	-2.558	1.142	-0.673	2.217	2.241	1.714	2.044	2.147	4.467	3.327	0.532	1.131	0.905	0.596	-0.276	-0.481	-1.910	-1.434	-0.957	7.149	15.48	5.037	-2.140	-4.114	-3.952	-3.893	-4.005	-3.639	-3.592	-0.567	5.252	19.73	129.0	664.2	832.6	53.36	-3.632	-4.748	-4.698	-5.016	-5.295	-5.020	-4.770	-5.574	-5.698	-5.206	-5.606	-5.752	-5.373	-5.707	-5.801	-5.480	-5.622	-5.161	-5.607	-5.806	-6.296	-6.025
490.0	-445.6	-281.9	-225.0	-153.9	154.5	902.9	218.6	-69.59	-61.41	-45.65	-44.18	-44.47	-29.72	-27.90	-20.32	-16.27	-11.30	-10.67	-6.784	-5.256	-2.013	-1.613	0.097	-1.252	0.983	0.975	0.932	1.485	2.101	0.414	1.764	0.709	-0.391	-1.143	-1.672	-1.467	-1.942	-2.036	-0.468	8.287	11.76	3.800	-3.917	-4.130	-3.976	-4.651	-3.942	-3.694	-2.738	-1.123	1.692	26.05	167.4	532.3	637.1	269.1	10.81	-5.153	-4.732	-5.158	-4.971	-5.178	-5.574	-5.263	-5.340	-5.727	-5.347	-5.507	-5.709	-5.581	-5.605	-5.865	-5.859	-5.778	-5.913	-6.034	-5.938
495.0	-438.6	-337.7	-203.6	-169.1	-63.17	436.6	813.3	-39.42	-63.21	-57.97	-47.74	-47.85	-37.15	-32.51	-23.69	-17.91	-15.10	-10.96	-6.428	-5.765	-2.736	-3.958	-2.122	-0.958	-0.662	-1.136	0.573	-0.085	1.558	-0.775	0.474	-0.540	-0.381	-1.147	-2.331	-1.768	-2.444	-2.925	-3.647	-0.619	5.975	10.66	0.877	-3.696	-3.730	-4.497	-3.700	-3.938	-3.090	-2.626	-2.288	2.793	34.27	117.0	310.4	852.1	406.1	5.952	-4.519	-4.922	-5.267	-5.414	-5.324	-5.225	-5.038	-5.728	-5.335	-5.670	-5.121	-5.632	-5.423	-5.574	-6.251	-6.003	-5.958	-6.575	-6.173
500.0	-424.6	-353.0	-185.0	-157.1	-128.6	62.44	886.8	216.4	-60.30	-61.73	-62.82	-43.40	-38.99	-29.08	-27.04	-17.65	-14.30	-12.58	-8.394	-7.960	-2.735	-5.759	-4.683	-0.179	-2.562	-2.031	-0.943	-0.799	-0.795	-0.828	-0.253	-1.015	-1.086	-1.010	-2.406	-2.684	-2.649	-3.342	-3.265	-3.776	0.585	7.526	5.791	-1.893	-4.130	-4.731	-3.543	-4.302	-3.710	-3.530	-3.245	-2.408	4.395	22.86	71.17	465.2	970.6	71.14	-1.762	-5.238	-5.642	-5.241	-4.702	-5.871	-5.287	-5.834	-5.474	-6.092	-5.454	-5.533	-5.599	-5.509	-5.613	-5.589	-5.720	-6.276	-5.857
505.0	-419.6	-335.2	-208.6	-150.5	-132.2	-59.95	582.9	625.0	-53.61	-62.82	-49.47	-49.13	-44.05	-31.48	-30.24	-20.98	-13.47	-13.99	-8.837	-9.399	-6.686	-5.730	-3.574	-4.275	-2.422	-1.807	-0.384	-2.031	-2.024	-2.078	-1.578	-2.673	-3.642	-1.246	-2.986	-3.376	-2.923	-3.341	-3.512	-4.121	-2.627	2.830	8.382	1.788	-3.080	-4.359	-3.902	-4.294	-3.782	-3.041	-3.471	-3.598	-2.338	1.542	12.77	115.0	663.4	631.6	56.91	-4.223	-5.305	-5.135	-4.721	-5.426	-5.797	-5.660	-5.610	-5.580	-5.901	-5.636	-5.765	-5.223	-5.660	-5.892	-6.058	-6.515	-6.106
510.0	-464.3	-365.7	-244.7	-130.7	-143.2	-116.4	137.0	825.9	260.2	-63.64	-55.37	-52.27	-43.18	-36.88	-28.01	-21.12	-16.62	-16.33	-11.83	-10.67	-7.705	-6.431	-5.626	-5.280	-4.296	-3.369	-2.690	-2.202	-3.549	-2.260	-1.960	-3.337	-3.523	-2.794	-3.693	-3.283	-4.258	-3.789	-3.965	-3.658	-3.760	-2.506	2.493	5.690	1.190	-3.724	-4.309	-4.581	-3.836	-3.054	-3.199	-3.987	-3.926	-3.031	-0.379	22.08	165.3	438.9	584.2	237.4	7.113	-5.353	-5.243	-5.222	-5.558	-5.470	-5.819	-5.829	-5.695	-5.580	-5.757	-5.498	-5.433	-5.816	-6.202	-6.435	-6.176
515.0	-428.3	-347.0	-239.5	-156.9	-108.0	-131.4	-56.57	373.8	827.0	-7.698	-64.22	-48.01	-48.26	-39.65	-25.31	-24.04	-18.76	-16.29	-14.08	-12.70	-11.00	-9.004	-7.410	-7.074	-5.152	-4.486	-3.945	-4.631	-5.572	-4.364	-4.879	-4.398	-3.818	-4.252	-3.958	-2.357	-4.746	-4.186	-3.955	-3.283	-4.744	-4.154	-2.279	2.709	4.087	-0.815	-3.541	-4.160	-3.859	-3.123	-3.260	-4.207	-4.126	-4.368	-3.653	1.584	33.10	96.35	266.0	704.7	291.1	2.710	-5.655	-5.505	-5.405	-5.453	-5.871	-5.589	-5.975	-5.853	-5.927	-5.556	-5.455	-5.677	-5.786	-6.336	-6.528
520.0	-407.7	-373.0	-285.1	-195.4	-75.44	-125.5	-99.51	40.03	860.1	242.5	-62.40	-57.84	-47.18	-41.90	-26.75	-22.34	-20.73	-17.28	-13.76	-12.69	-10.16	-9.092	-7.059	-6.881	-6.363	-5.816	-4.896	-5.831	-4.715	-4.264	-6.047	-5.736	-4.228	-4.861	-4.904	-3.868	-4.565	-4.054	-3.937	-4.639	-4.781	-4.504	-4.118	-1.679	4.049	2.647	-1.785	-3.712	-3.637	-3.509	-3.470	-4.509	-4.250	-4.408	-4.189	-3.031	3.628	17.25	59.84	390.1	665.6	67.24	-3.256	-5.550	-5.177	-5.891	-5.509	-5.608	-5.892	-5.846	-5.490	-5.429	-5.760	-5.541	-6.119	-5.962	-6.504
525.0	-429.4	-386.4	-281.5	-222.4	-85.46	-103.0	-114.4	-60.65	493.0	640.7	-46.50	-61.20	-46.13	-39.16	-26.04	-26.85	-21.23	-18.19	-14.52	-12.06	-10.94	-9.602	-9.127	-5.580	-7.429	-5.876	-5.948	-6.073	-5.709	-5.894	-5.944	-4.527	-4.737	-5.680	-5.338	-4.396	-4.839	-4.206	-4.721	-4.741	-4.775	-5.007	-5.058	-4.318	0.625	3.646	0.554	-4.281	-4.002	-3.737	-3.923	-4.201	-4.154	-4.375	-4.325	-3.663	-2.862	0.120	9.985	96.96	443.6	554.9	51.33	-5.066	-5.819	-5.526	-5.869	-5.883	-5.336	-5.975	-5.747	-5.639	-5.610	-5.529	-6.017	-6.359	-6.579
530.0	-445.3	-364.8	-301.9	-212.7	-131.1	-79.13	-103.3	-95.07	81.16	723.7	281.7	-57.21	-50.67	-38.85	-32.10	-26.52	-21.26	-19.77	-15.46	-13.45	-11.67	-9.906	-10.62	-8.666	-7.496	-7.101	-6.592	-6.303	-6.084	-5.515	-5.243	-5.074	-4.591	-5.327	-4.689	-4.549	-5.197	-5.084	-5.278	-5.282	-4.968	-5.466	-5.316	-4.659	-3.539	1.643	2.626	-1.152	-3.832	-3.661	-3.448	-4.494	-4.535	-4.501	-4.529	-4.501	-4.276	-3.916	-1.428	17.67	107.9	345.1	440.4	165.6	2.442	-5.768	-5.329	-5.868	-5.503	-5.751	-5.639	-5.514	-5.511	-6.141	-6.158	-6.126	-6.073
535.0	-433.8	-354.6	-294.4	-201.3	-175.7	-93.54	-78.31	-102.3	-56.38	281.9	777.5	16.38	-53.22	-42.46	-27.77	-29.29	-23.49	-19.27	-16.39	-13.38	-14.19	-10.34	-10.74	-10.25	-8.554	-8.048	-6.227	-7.151	-6.701	-6.707	-5.357	-7.121	-4.516	-5.758	-6.295	-5.360	-5.297	-6.052	-5.137	-5.440	-5.238	-5.431	-5.879	-5.079	-4.463	-2.412	0.822	1.611	-1.885	-3.312	-3.586	-4.787	-4.628	-4.837	-4.534	-4.402	-4.624	-4.713	-4.175	-0.231	20.49	73.58	191.3	474.8	72.45	0.021	-5.205	-5.255	-5.723	-5.766	-6.149	-5.580	-5.519	-5.862	-5.813	-5.922	-6.254
540.0	-434.7	-362.8	-286.9	-205.9	-188.8	-100.0	-62.97	-104.7	-82.13	22.02	763.9	294.0	-54.48	-39.18	-29.89	-29.58	-23.92	-20.04	-16.32	-14.66	-10.63	-12.93	-10.27	-11.10	-9.115	-7.803	-8.193	-7.967	-7.434	-6.267	-6.479	-6.742	-5.526	-5.546	-5.860	-5.529	-5.627	-6.059	-5.305	-5.110	-5.080	-5.320	-5.916	-5.536	-4.674	-4.395	-1.996	1.628	-0.313	-2.657	-3.881	-4.447	-4.741	-4.597	-4.589	-4.769	-5.200	-4.917	-4.658	-3.998	1.098	12.84	41.18	246.9	422.9	62.08	-3.967	-5.502	-5.442	-6.453	-5.646	-5.639	-5.878	-5.508	-6.439	-6.451	-6.322
545.0	-447.5	-335.4	-265.6	-227.2	-192.1	-122.7	-50.94	-98.99	-84.35	-53.71	397.2	651.7	-35.74	-42.40	-34.58	-30.25	-27.09	-21.12	-17.15	-15.46	-13.15	-13.34	-10.85	-10.34	-9.889	-9.200	-9.887	-8.368	-7.108	-8.100	-7.214	-8.233	-6.559	-5.566	-6.242	-5.860	-5.506	-5.925	-5.834	-6.105	-5.316	-5.521	-5.855	-5.272	-5.255	-4.883	-3.480	-0.255	1.511	-1.667	-3.377	-4.588	-4.585	-4.433	-4.760	-4.845	-5.170	-5.020	-4.974	-4.774	-4.021	-0.765	5.240	58.21	290.4	376.4	42.43	-5.408	-5.060	-5.266	-5.235	-5.345	-5.466	-5.649	-5.984	-6.539	-6.434
550.0	-440.7	-360.0	-286.6	-229.0	-178.5	-140.2	-80.11	-64.12	-88.37	-68.12	67.66	627.6	282.8	-40.37	-33.95	-30.11	-23.74	-20.46	-17.09	-16.45	-14.98	-13.63	-11.43	-11.24	-8.682	-8.732	-9.588	-9.298	-6.866	-8.982	-7.283	-8.025	-6.481	-6.973	-6.473	-6.353	-5.754	-5.907	-5.753	-5.563	-5.419	-5.899	-5.926	-5.103	-4.979	-5.301	-4.324	-3.380	-0.125	-0.542	-2.182	-4.192	-4.727	-4.978	-4.713	-4.658	-4.870	-4.991	-4.971	-5.256	-4.883	-4.117	-3.145	9.077	69.50	227.7	292.7	104.0	-0.862	-5.629	-5.967	-6.010	-5.554	-5.702	-6.007	-6.482	-6.253
555.0	-433.5	-394.1	-287.3	-227.3	-176.5	-155.7	-101.2	-19.86	-72.46	-46.59	-22.78	207.8	701.5	28.23	-34.39	-30.03	-25.86	-22.76	-18.31	-16.35	-15.19	-13.25	-11.97	-11.00	-9.432	-10.53	-10.03	-8.896	-7.732	-8.452	-7.792	-8.570	-7.292	-6.598	-5.882	-6.083	-6.005	-5.925	-5.447	-6.047	-6.175	-5.866	-6.102	-5.958	-5.185	-5.344	-4.494	-4.714	-2.186	-0.280	-0.721	-3.693	-4.637	-5.009	-4.476	-4.635	-5.232	-4.997	-4.740	-5.458	-4.837	-4.594	-5.434	-2.251	11.45	47.56	126.9	310.4	67.07	-2.439	-6.304	-6.041	-5.338	-5.868	-5.928	-6.429	-6.419
560.0	-367.4	-384.3	-298.6	-244.3	-170.0	-143.2	-108.7	-38.94	-36.56	-52.53	-22.79	38.96	630.6	276.6	-32.08	-28.07	-25.39	-21.06	-19.28	-16.92	-15.63	-12.71	-12.12	-10.73	-11.11	-10.23	-10.06	-9.985	-8.406	-8.963	-8.082	-9.047	-7.266	-6.727	-6.201	-6.918	-6.415	-6.269	-6.346	-5.641	-5.858	-6.265	-5.893	-5.981	-5.552	-5.210	-4.794	-4.741	-3.621	-1.683	-0.169	-2.655	-4.614	-4.779	-4.645	-4.875	-4.657	-5.059	-4.916	-5.370	-5.121	-5.084	-4.996	-5.184	-1.417	6.644	25.65	169.1	272.2	49.64	-5.309	-5.590	-5.629	-6.066	-6.020	-6.737	-6.413
565.0	-399.6	-368.9	-287.0	-220.4	-171.2	-154.6	-116.3	-60.46	-14.80	-40.11	-18.15	1.589	318.2	562.0	-15.16	-31.44	-25.29	-20.66	-18.54	-17.12	-17.05	-12.99	-12.12	-11.74	-11.55	-10.95	-9.156	-11.59	-9.601	-9.554	-7.768	-8.013	-8.634	-7.571	-6.306	-6.041	-6.985	-6.486	-6.645	-5.528	-5.585	-6.542	-5.636	-5.766	-5.680	-5.319	-5.174	-4.303	-4.541	-3.010	-1.432	-1.770	-3.916	-4.684	-4.900	-4.862	-4.862	-5.115	-5.074	-5.114	-4.816	-5.050	-5.143	-4.991	-4.256	-2.141	1.572	40.10	198.6	231.9	25.25	-5.257	-5.469	-5.840	-6.203	-5.743	-6.144
570.0	-414.6	-366.5	-282.9	-213.6	-180.0	-154.5	-114.1	-76.29	-11.97	-6.262	-0.277	11.01	81.63	497.3	220.1	-30.75	-26.29	-21.35	-20.96	-15.71	-17.87	-15.09	-13.09	-12.83	-11.48	-10.71	-10.07	-10.06	-9.744	-10.24	-8.877	-8.961	-8.524	-7.634	-7.433	-6.552	-6.596	-6.390	-6.238	-5.870	-6.112	-5.956	-6.282	-5.813	-5.803	-5.396	-4.762	-4.841	-4.083	-3.656	-3.213	-2.709	-2.941	-4.312	-4.992	-5.415	-5.019	-5.313	-5.035	-4.795	-5.018	-4.981	-5.241	-5.070	-4.686	-4.467	-3.487	4.901	46.76	144.9	167.8	36.07	-3.856	-5.606	-6.282	-6.012	-6.289
575.0	-398.6	-339.9	-274.8	-221.9	-200.5	-154.3	-108.3	-92.36	-17.03	42.02	15.13	19.25	9.175	156.6	512.0	24.29	-25.67	-23.23	-20.15	-17.07	-17.62	-15.05	-13.79	-12.97	-11.90	-11.03	-10.61	-10.90	-9.611	-10.45	-9.453	-9.414	-8.465	-7.502	-7.199	-6.837	-6.789	-6.698	-6.497	-6.151	-6.036	-5.793	-6.611	-5.602	-5.808	-5.990	-5.398	-4.429	-4.662	-4.100	-3.969	-3.972	-2.995	-3.613	-4.343	-5.084	-5.023	-5.334	-4.962	-5.090	-5.206	-4.955	-5.182	-4.826	-4.761	-4.939	-5.176	-3.092	6.262	28.53	78.95	173.7	49.20	-4.513	-6.129	-5.985	-6.140
580.0	-432.2	-349.9	-299.9	-240.5	-190.0	-161.5	-121.1	-89.78	-39.87	54.91	37.73	22.50	0.120	17.00	444.6	206.9	-25.61	-26.35	-19.41	-20.64	-14.64	-14.92	-14.72	-13.05	-13.65	-11.21	-11.23	-10.37	-10.93	-10.07	-9.595	-9.251	-9.261	-7.997	-7.553	-6.840	-6.166	-7.198	-5.928	-6.896	-6.494	-6.091	-6.577	-5.469	-6.450	-5.988	-5.428	-5.114	-4.838	-4.052	-4.245	-4.561	-3.666	-3.993	-4.640	-4.770	-5.125	-5.454	-5.017	-4.918	-4.868	-4.796	-4.964	-4.961	-5.040	-5.074	-5.392	-4.753	-2.462	1.644	15.20	100.5	155.0	30.15	-5.629	-5.280	-6.237
585.0	-420.7	-349.8	-288.5	-239.5	-186.1	-157.1	-118.7	-89.54	-38.16	51.74	54.65	20.45	2.956	-20.79	206.8	408.4	-13.61	-22.97	-17.78	-19.01	-15.47	-15.37	-15.77	-13.38	-13.12	-11.26	-10.17	-9.836	-10.40	-10.09	-10.04	-8.996	-8.188	-7.342	-7.984	-7.578	-6.994	-6.871	-6.431	-6.713	-5.900	-6.966	-6.512	-6.091	-6.053	-6.352	-5.147	-5.264	-4.738	-4.108	-4.003	-4.744	-4.242	-3.886	-3.997	-4.608	-5.191	-5.169	-4.966	-5.380	-5.102	-4.821	-5.189	-5.401	-4.993	-5.703	-5.562	-5.084	-4.853	-3.893	-0.980	22.29	116.7	140.1	9.260	-5.828	-6.288
590.0	-410.1	-357.7	-283.5	-220.3	-183.8	-153.3	-120.3	-86.14	-58.23	5.832	70.86	30.52	-0.603	-32.85	28.74	346.1	147.2	-22.22	-19.63	-18.24	-15.69	-15.08	-14.58	-13.93	-12.46	-11.11	-11.07	-9.979	-10.78	-10.39	-10.19	-9.240	-8.196	-8.153	-7.914	-7.279	-6.735	-6.871	-6.197	-6.379	-6.560	-6.693	-6.462	-6.173	-5.757	-6.085	-5.087	-4.762	-4.528	-4.206	-3.846	-4.719	-4.817	-3.971	-3.726	-4.188	-4.881	-5.524	-5.448	-5.676	-5.097	-5.093	-4.886	-5.350	-5.261	-5.507	-5.626	-5.387	-5.570	-5.112	-4.408	0.783	26.77	99.72	88.27	24.87	-5.313
595.0	-390.0	-325.3	-294.3	-214.8	-187.5	-148.0	-115.3	-85.99	-64.41	-25.62	52.68	46.20	-8.748	-32.95	-22.90	98.56	331.4	12.02	-21.10	-19.37	-16.22	-17.09	-14.71	-14.38	-13.09	-11.15	-11.58	-11.60	-11.21	-10.58	-10.06	-9.251	-8.582	-8.889	-7.400	-8.100	-6.966	-6.736	-6.527	-6.435	-5.948	-5.913	-6.441	-6.362	-5.909	-5.601	-4.873	-5.143	-4.579	-4.393	-3.935	-4.774	-4.854	-4.706	-4.283	-4.462	-4.721	-5.498	-4.895	-5.434	-5.477	-5.227	-4.912	-5.083	-5.021	-5.175	-6.119	-5.132	-5.243	-5.456	-5.653	-4.300	1.452	18.32	47.57	106.4	27.82
600.0	-356.2	-327.5	-278.5	-236.8	-184.1	-162.5	-112.7	-93.51	-61.47	-29.77	24.74	62.00	-11.54	-29.73	-31.95	1.416	279.2	127.4	-21.06	-19.24	-17.30	-14.92	-14.23	-14.50	-12.77	-11.95	-11.04	-10.63	-10.61	-10.90	-9.838	-9.201	-8.708	-7.430	-7.842	-7.719	-6.171	-6.800	-6.056	-6.354	-6.284	-6.445	-6.372	-6.050	-6.353	-6.050	-5.135	-4.820	-4.896	-3.849	-4.006	-4.842	-4.471	-4.943	-4.673	-4.542	-4.744	-5.095	-4.979	-5.636	-5.260	-5.429	-5.273	-5.309	-5.197	-4.838	-5.021	-5.692	-5.592	-5.524	-5.648	-5.112	-4.478	-0.446	7.326	62.73	84.52
605.0	-385.9	-327.8	-259.3	-252.1	-195.5	-146.7	-111.9	-87.01	-64.96	-43.79	-3.028	54.90	-2.793	-35.48	-34.77	-24.62	121.5	273.4	-14.00	-19.21	-17.24	-16.43	-14.21	-12.73	-12.19	-11.91	-12.19	-10.82	-10.33	-10.21	-10.07	-10.31	-7.705	-8.999	-7.456	-7.511	-6.668	-7.571	-6.917	-6.903	-6.228	-6.624	-6.472	-6.465	-5.944	-6.084	-5.258	-4.657	-4.895	-3.935	-4.254	-4.989	-4.670	-5.433	-5.266	-4.903	-4.689	-4.695	-5.218	-5.551	-5.491	-5.339	-5.604	-5.352	-5.235	-4.578	-5.106	-5.134	-5.735	-5.479	-5.469	-5.797	-5.316	-4.866	-2.697	13.00	70.20
610.0	-439.7	-358.8	-288.2	-235.3	-173.0	-145.8	-115.1	-93.39	-69.85	-49.58	-15.65	23.59	11.62	-30.67	-35.34	-26.76	11.77	239.3	99.18	-18.80	-17.71	-15.10	-14.08	-12.68	-12.50	-12.17	-11.66	-11.19	-10.50	-10.58	-9.523	-9.409	-8.527	-8.831	-8.322	-7.106	-6.995	-7.646	-6.944	-7.003	-6.428	-6.818	-6.298	-6.082	-5.604	-5.895	-5.042	-5.386	-4.833	-4.002	-4.230	-5.233	-5.017	-5.209	-4.901	-5.336	-5.056	-4.656	-4.773	-5.189	-5.334	-5.477	-5.229	-5.272	-5.191	-5.093	-5.106	-5.564	-5.740	-5.958	-5.492	-5.870	-5.426	-5.849	-5.183	-1.768	14.34
615.0	-424.5	-378.9	-278.2	-236.5	-186.2	-145.0	-117.3	-93.71	-78.03	-56.37	-28.85	-5.096	19.26	-26.15	-34.07	-27.76	-18.53	66.75	245.7	6.830	-18.36	-14.47	-13.52	-12.36	-12.49	-11.46	-11.94	-11.71	-11.21	-11.19	-9.833	-9.175	-8.542	-8.731	-8.390	-6.398	-7.203	-7.690	-7.054	-7.174	-6.183	-6.473	-6.177	-5.742	-5.955	-5.897	-5.279	-5.054	-4.852	-3.953	-3.872	-5.604	-4.783	-5.462	-5.287	-5.172	-5.816	-4.958	-5.275	-4.851	-5.102	-6.026	-5.207	-4.339	-5.183	-5.475	-5.260	-5.497	-5.567	-5.660	-5.760	-6.061	-6.100	-6.141	-5.867	-4.842	-1.799
620.0	-409.3	-380.6	-282.5	-219.4	-205.5	-148.2	-125.7	-103.0	-81.34	-54.12	-34.54	-12.45	3.718	-19.77	-31.93	-29.63	-26.18	1.094	214.7	89.42	-16.86	-17.09	-14.35	-12.98	-12.34	-11.41	-12.20	-10.66	-11.01	-11.28	-10.21	-9.104	-8.282	-8.520	-7.976	-7.531	-6.702	-7.328	-6.862	-6.595	-6.419	-6.251	-6.262	-6.096	-5.909	-5.321	-4.747	-5.284	-4.540	-3.944	-4.594	-5.624	-4.685	-4.897	-5.105	-5.368	-5.557	-5.209	-5.188	-4.944	-5.371	-5.544	-5.804	-5.368	-5.320	-4.937	-5.601	-5.380	-5.551	-5.997	-5.802	-5.617	-5.870	-6.271	-6.075	-5.808	-5.318
625.0	-433.4	-325.1	-272.8	-223.1	-173.7	-154.3	-136.3	-101.3	-86.38	-66.06	-42.81	-23.79	-17.73	-8.742	-30.87	-29.81	-26.88	-18.02	101.0	200.1	-12.18	-15.67	-14.78	-13.67	-13.70	-12.70	-11.94	-9.964	-11.19	-10.98	-10.11	-9.543	-9.392	-8.780	-7.865	-7.502	-6.738	-7.441	-6.097	-6.603	-7.041	-6.585	-6.309	-6.202	-6.415	-5.658	-4.918	-4.644	-4.790	-4.026	-4.028	-5.209	-5.025	-4.606	-5.054	-4.807	-5.427	-5.539	-5.306	-5.230	-5.227	-5.507	-5.856	-5.521	-5.691	-5.290	-5.616	-5.492	-5.182	-5.951	-5.858	-5.875	-5.634	-6.108	-5.743	-6.285	-5.722
630.0	-392.5	-359.9	-296.0	-226.1	-181.4	-150.5	-121.5	-110.7	-93.29	-71.55	-47.23	-35.67	-28.61	-13.73	-22.13	-30.74	-27.42	-20.62	12.59	180.3	87.57	-15.04	-14.08	-14.39	-13.36	-12.64	-11.80	-10.41	-11.20	-11.27	-10.11	-9.481	-9.282	-8.745	-7.861	-7.422	-7.517	-7.190	-6.553	-7.152	-6.134	-6.614	-6.772	-5.963	-6.162	-6.169	-4.862	-5.063	-5.102	-4.021	-3.835	-4.955	-4.906	-5.197	-4.940	-5.251	-4.966	-5.227	-5.290	-5.328	-5.145	-5.171	-5.708	-5.501	-5.330	-5.403	-5.472	-5.438	-5.626	-5.148	-6.009	-5.563	-5.841	-6.264	-5.847	-6.113	-6.254
635.0	-434.7	-333.4	-275.6	-219.8	-183.3	-145.3	-126.5	-98.97	-89.62	-74.72	-45.76	-41.60	-37.76	-22.04	-9.830	-30.57	-25.10	-21.19	-12.54	53.55	231.4	-0.323	-14.65	-14.54	-13.15	-11.11	-11.21	-11.09	-10.87	-9.844	-10.60	-9.722	-8.188	-8.878	-7.769	-6.625	-7.378	-6.929	-6.455	-6.485	-5.832	-6.659	-6.684	-5.918	-6.120	-5.908	-5.213	-5.132	-4.627	-3.922	-4.298	-5.027	-4.949	-5.389	-4.948	-5.185	-5.690	-5.143	-5.557	-5.000	-5.254	-4.856	-5.741	-5.858	-5.225	-5.306	-5.691	-5.662	-5.562	-5.387	-5.906	-5.605	-6.136	-5.656	-5.891	-5.833	-6.381
640.0	-439.9	-295.5	-253.5	-201.2	-178.3	-135.6	-126.0	-97.07	-96.09	-75.39	-55.01	-46.12	-49.86	-30.83	-11.92	-24.89	-22.30	-22.75	-17.32	-1.017	212.7	64.83	-15.44	-13.51	-12.64	-12.11	-12.09	-10.90	-10.26	-10.74	-10.48	-10.00	-8.554	-9.077	-7.250	-7.519	-7.835	-6.116	-6.876	-7.012	-5.942	-6.656	-5.903	-5.765	-6.140	-5.691	-5.841	-5.273	-4.638	-4.313	-4.467	-4.692	-5.112	-5.312	-4.591	-5.410	-5.442	-5.369	-5.087	-5.138	-4.956	-5.168	-5.438	-5.638	-5.402	-5.628	-5.843	-5.325	-5.498	-5.964	-5.659	-5.789	-5.867	-5.485	-6.335	-5.995	-6.081
645.0	-403.7	-351.2	-276.4	-218.7	-187.9	-138.0	-124.4	-94.67	-82.67	-66.46	-57.82	-42.73	-46.08	-40.16	-15.00	-15.02	-26.55	-23.96	-20.81	-14.36	105.1	150.7	-11.54	-14.14	-12.36	-11.26	-10.83	-11.59	-11.52	-10.88	-10.19	-10.19	-9.728	-8.811	-7.462	-7.058	-8.370	-6.917	-6.838	-6.260	-6.411	-6.236	-6.301	-6.205	-6.016	-5.998	-5.423	-5.409	-4.678	-4.171	-4.462	-4.669	-5.081	-5.585	-4.559	-4.973	-5.386	-5.552	-5.293	-5.358	-5.227	-5.343	-5.574	-6.009	-5.523	-5.704	-6.154	-5.403	-5.177	-5.614	-5.769	-6.050	-5.917	-6.063	-6.002	-5.759	-5.978
650.0	-425.7	-336.9	-251.4	-204.5	-176.6	-125.3	-108.3	-98.95	-81.46	-70.08	-65.21	-40.34	-49.21	-41.15	-21.67	-9.055	-23.29	-24.81	-21.01	-17.38	21.53	180.3	17.90	-12.91	-13.23	-12.29	-11.54	-11.13	-11.27	-10.30	-10.60	-9.656	-9.094	-8.660	-8.296	-7.212	-7.871	-7.256	-6.813	-6.417	-5.861	-7.019	-7.244	-5.716	-5.751	-6.014	-5.044	-4.865	-4.276	-4.350	-4.543	-4.735	-4.652	-4.908	-5.001	-5.124	-5.156	-4.719	-5.679	-5.575	-5.197	-5.718	-5.450	-5.383	-5.830	-5.796	-5.633	-5.690	-5.558	-5.721	-5.822	-5.940	-5.389	-6.175	-5.451	-5.949	-6.120
