Sample:	'1
File name:	支脉河庐山路15.FD3
Run date:	'19:25:31, 06/11/2025
Operator:	Administrator
Comment:	'

Instrument
Model:	F-2700 FL Spectrophotometer
Serial number:	23B8-004
ROM Version:	4J14000 07

Instrument parameters
Measurement type:	3-D scan
Data mode:	Fluorescence
EX  Start WL:	220.0 nm
EX  End WL:	600.0 nm
EX Sampling interval:	5.0 nm
EM  Start WL:	230.0 nm
EM  End WL:	650.0 nm
EM Sampling interval:	5.0 nm
Scan speed:	12000 nm/min
EX Slit:	5.0 nm
EM Slit:	5.0 nm
PMT Voltage:	700 V
Response:	Auto 
Corrected spectra:	Off
Contour interval:	50.000

Peak integration
Integration method:	Rectangular
Sensitivity:	1
Threshold:	1.000

Peaks
No.	ApexEX/EM(nm)	Height(Data)
1	225.0/340.0	668.5
2	225.0/560.0	50.97
3	225.0/575.0	39.96
4	225.0/585.0	41.34
5	230.0/375.0	532.4
6	230.0/395.0	515.2
7	230.0/500.0	282.3
8	235.0/415.0	501.3
9	235.0/510.0	232.5
10	240.0/260.0	371.5
11	240.0/525.0	202.9
12	245.0/270.0	361.3
13	245.0/535.0	174.4
14	250.0/275.0	437.1
15	250.0/415.0	474.7
16	250.0/545.0	148.2
17	255.0/280.0	565.0
18	255.0/560.0	127.0
19	260.0/285.0	564.6
20	260.0/435.0	480.0
21	260.0/570.0	99.79
22	265.0/440.0	482.1
23	265.0/585.0	90.87
24	270.0/300.0	791.6
25	270.0/595.0	82.40
26	275.0/305.0	949.3
27	275.0/610.0	71.99
28	280.0/310.0	825.7
29	280.0/625.0	60.08
30	285.0/315.0	770.2
31	285.0/635.0	44.49
32	290.0/325.0	658.3
33	295.0/330.0	494.1
34	300.0/335.0	439.7
35	305.0/345.0	363.9
36	310.0/350.0	301.7
37	315.0/355.0	287.5
38	320.0/360.0	278.2
39	325.0/370.0	252.9
40	330.0/375.0	248.1
41	335.0/380.0	253.1
42	345.0/395.0	206.9
43	350.0/400.0	209.8
44	355.0/405.0	200.3
45	365.0/420.0	179.9
46	370.0/425.0	168.0
47	415.0/485.0	39.09
48	420.0/490.0	33.61
49	425.0/495.0	28.62
50	430.0/505.0	25.29
51	435.0/510.0	20.41
52	440.0/515.0	17.55
53	445.0/525.0	15.93
54	460.0/545.0	8.410
55	495.0/270.0	2.065
56	505.0/275.0	3.123
57	510.0/280.0	3.176
58	520.0/285.0	3.619
59	530.0/290.0	3.539
60	540.0/295.0	4.742
61	545.0/300.0	5.051
62	555.0/305.0	4.927
63	565.0/310.0	4.396
64	575.0/315.0	4.614
65	580.0/320.0	4.537
66	585.0/325.0	4.216

Data points
	220.0	225.0	230.0	235.0	240.0	245.0	250.0	255.0	260.0	265.0	270.0	275.0	280.0	285.0	290.0	295.0	300.0	305.0	310.0	315.0	320.0	325.0	330.0	335.0	340.0	345.0	350.0	355.0	360.0	365.0	370.0	375.0	380.0	385.0	390.0	395.0	400.0	405.0	410.0	415.0	420.0	425.0	430.0	435.0	440.0	445.0	450.0	455.0	460.0	465.0	470.0	475.0	480.0	485.0	490.0	495.0	500.0	505.0	510.0	515.0	520.0	525.0	530.0	535.0	540.0	545.0	550.0	555.0	560.0	565.0	570.0	575.0	580.0	585.0	590.0	595.0	600.0
230.0	65.02	793.1	3072	1435	86.69	6.290	4.549	4.493	3.589	3.079	2.908	2.792	2.431	1.775	1.592	1.505	1.131	1.105	1.026	0.879	0.776	0.794	0.669	0.738	0.641	0.581	0.549	0.536	0.499	0.491	0.498	0.486	0.437	0.433	0.330	0.398	0.397	0.399	0.296	0.340	0.390	0.540	0.640	0.489	0.325	0.307	0.789	4.482	9.891	8.979	4.041	0.893	0.259	0.215	0.228	0.232	0.215	0.218	0.200	0.205	0.220	0.204	0.187	0.181	0.197	0.191	0.206	0.207	0.176	0.205	0.213	0.193	0.167	0.190	0.178	0.207	0.206
235.0	166.0	241.9	1418	3078	644.4	133.2	7.343	5.157	3.843	3.253	3.104	2.814	2.480	1.711	1.883	1.475	1.134	1.234	0.900	0.989	0.864	0.771	0.826	0.771	0.818	0.635	0.513	0.539	0.562	0.481	0.531	0.453	0.433	0.360	0.327	0.417	0.421	0.443	0.304	0.309	0.378	0.395	0.501	0.544	0.673	0.542	0.406	1.254	3.159	5.731	9.576	11.84	6.811	1.719	0.309	0.224	0.231	0.203	0.228	0.236	0.209	0.194	0.203	0.254	0.236	0.201	0.227	0.219	0.162	0.205	0.191	0.222	0.185	0.190	0.180	0.231	0.177
240.0	202.1	209.5	394.7	1930	3401	537.2	69.45	6.610	4.613	4.023	3.394	3.145	2.518	1.758	1.887	1.707	1.475	1.178	1.059	1.064	0.854	0.783	0.925	0.763	0.728	0.661	0.532	0.609	0.614	0.493	0.511	0.415	0.476	0.423	0.422	0.327	0.349	0.401	0.319	0.293	0.401	0.385	0.438	0.413	0.783	0.833	0.600	0.528	0.862	1.582	3.846	10.86	15.93	13.57	5.610	1.115	0.284	0.255	0.222	0.240	0.255	0.206	0.204	0.195	0.207	0.195	0.220	0.172	0.164	0.194	0.172	0.263	0.222	0.183	0.201	0.207	0.174
245.0	122.4	283.8	194.2	565.8	2767	3703	417.9	29.32	6.267	5.123	4.333	3.451	3.062	2.371	2.079	1.794	1.807	1.313	1.155	1.088	0.801	0.837	0.802	0.558	0.703	0.572	0.500	0.501	0.571	0.449	0.488	0.478	0.529	0.516	0.475	0.327	0.301	0.377	0.402	0.314	0.343	0.336	0.349	0.350	0.497	0.635	0.768	0.790	0.490	0.590	1.073	3.081	8.550	16.94	20.50	13.12	4.571	0.687	0.241	0.273	0.306	0.206	0.228	0.232	0.202	0.204	0.231	0.229	0.197	0.217	0.146	0.217	0.232	0.221	0.173	0.211	0.186
250.0	50.32	162.5	263.8	253.9	783.9	2664	3830	1461	112.4	7.909	5.940	4.491	3.773	2.945	2.576	1.911	1.611	1.441	1.251	1.185	1.002	0.912	0.788	0.732	0.675	0.658	0.612	0.481	0.557	0.562	0.471	0.476	0.453	0.451	0.483	0.364	0.330	0.406	0.299	0.340	0.351	0.356	0.312	0.317	0.374	0.360	0.463	0.746	0.967	0.992	0.816	1.016	2.185	4.852	9.593	15.10	21.68	20.81	13.09	4.632	0.762	0.258	0.296	0.224	0.215	0.240	0.227	0.233	0.229	0.209	0.147	0.189	0.219	0.210	0.238	0.230	0.203
255.0	28.78	58.73	147.2	344.1	313.8	641.7	2151	6032	2113	145.1	9.021	7.023	4.054	3.785	2.676	1.987	1.995	1.535	1.308	1.184	1.160	1.003	0.919	0.814	0.757	0.652	0.625	0.652	0.614	0.601	0.560	0.562	0.494	0.477	0.412	0.464	0.333	0.331	0.338	0.330	0.333	0.370	0.326	0.275	0.393	0.384	0.354	0.339	0.519	0.754	1.316	1.537	1.233	1.369	2.448	3.705	6.327	14.48	29.91	30.45	21.08	6.316	0.608	0.269	0.292	0.248	0.265	0.250	0.197	0.253	0.210	0.221	0.224	0.218	0.239	0.241	0.215
260.0	34.99	30.35	54.34	233.5	371.5	230.5	575.9	3707	7396	1697	86.42	8.616	5.730	4.245	3.027	2.420	2.258	1.558	1.308	1.314	1.257	1.108	0.833	0.786	0.828	0.792	0.624	0.628	0.607	0.610	0.660	0.552	0.563	0.507	0.487	0.545	0.357	0.422	0.371	0.332	0.379	0.435	0.328	0.320	0.365	0.375	0.296	0.293	0.385	0.402	0.693	1.526	1.994	1.518	0.963	1.077	1.758	3.876	10.35	24.79	43.40	30.77	17.86	3.248	0.364	0.303	0.257	0.225	0.201	0.270	0.286	0.285	0.221	0.271	0.253	0.213	0.273
265.0	31.78	27.40	29.84	95.40	352.1	320.2	178.4	1066	5663	8117	1271	32.21	7.925	5.031	4.078	3.284	2.527	2.168	1.852	1.466	1.264	1.137	0.942	0.949	0.952	0.596	0.882	0.723	0.628	0.568	0.599	0.646	0.553	0.526	0.482	0.501	0.419	0.428	0.405	0.400	0.460	0.376	0.428	0.405	0.393	0.325	0.345	0.276	0.284	0.274	0.353	0.715	1.415	2.290	1.951	1.016	0.736	1.133	2.674	6.733	18.03	36.38	54.94	28.02	12.49	1.433	0.356	0.305	0.235	0.232	0.257	0.318	0.236	0.225	0.238	0.211	0.291
270.0	41.47	33.30	26.35	39.42	143.8	361.3	327.1	306.5	1574	5537	8679	3407	76.08	8.889	5.840	3.897	3.054	2.355	1.984	1.691	1.511	1.222	1.286	1.105	0.914	0.813	0.796	0.759	0.750	0.612	0.667	0.620	0.599	0.525	0.570	0.492	0.466	0.450	0.485	0.373	0.438	0.349	0.375	0.451	0.403	0.367	0.345	0.332	0.310	0.311	0.281	0.406	0.573	1.033	1.675	2.065	2.006	1.220	1.041	1.827	4.421	9.623	20.82	32.67	46.42	43.31	19.18	9.606	1.630	0.358	0.299	0.336	0.294	0.260	0.249	0.252	0.279
275.0	75.89	62.42	40.55	34.62	54.31	141.7	437.1	375.5	405.3	1303	4089	9999.9	1336	89.11	8.884	5.582	3.996	2.936	2.362	1.904	1.797	1.576	1.125	1.056	0.967	0.892	0.861	0.949	0.727	0.666	0.753	0.729	0.691	0.652	0.630	0.570	0.539	0.516	0.373	0.426	0.417	0.423	0.438	0.389	0.431	0.477	0.406	0.452	0.345	0.315	0.296	0.343	0.424	0.511	0.609	0.909	1.817	3.123	2.862	1.351	1.374	2.459	5.069	7.813	11.87	21.84	47.98	72.33	29.89	12.97	1.205	0.400	0.346	0.310	0.242	0.250	0.326
280.0	102.9	84.88	64.57	49.13	37.15	61.29	228.5	565.0	293.8	343.3	1053	6055	9999.9	1063	47.66	8.599	5.683	3.624	2.830	2.367	2.105	1.753	1.476	1.132	1.080	1.035	0.998	0.846	0.853	0.772	0.796	0.837	0.764	0.652	0.665	0.620	0.536	0.647	0.416	0.487	0.493	0.479	0.458	0.490	0.516	0.534	0.468	0.531	0.425	0.356	0.347	0.402	0.407	0.354	0.460	0.547	0.808	1.838	3.176	3.019	1.820	1.167	1.477	2.170	3.090	5.469	14.03	37.14	65.15	75.67	26.23	7.217	0.574	0.341	0.324	0.266	0.314
285.0	158.6	147.0	104.4	62.77	41.25	46.99	95.67	386.7	564.6	204.9	300.6	1654	8307	8936	734.6	19.45	7.315	5.029	3.769	2.454	2.173	1.926	1.622	1.392	1.076	1.056	1.038	0.929	0.934	0.781	0.879	0.864	0.759	0.774	0.754	0.773	0.653	0.649	0.539	0.623	0.518	0.621	0.484	0.588	0.536	0.575	0.574	0.647	0.544	0.453	0.371	0.433	0.478	0.408	0.411	0.474	0.452	0.844	1.509	2.944	3.619	2.658	1.372	0.968	1.204	1.751	3.571	9.251	21.55	51.30	75.24	34.66	20.41	3.313	0.427	0.335	0.371
290.0	199.2	200.5	161.5	100.8	58.85	55.74	70.55	162.2	453.9	478.9	229.2	483.3	2226	6648	8532	2567	40.86	7.318	4.893	3.640	2.878	2.326	1.857	1.631	1.405	1.257	1.218	0.958	1.091	1.019	0.867	0.880	0.853	0.835	0.909	0.896	0.822	0.812	0.712	0.648	0.587	0.662	0.621	0.612	0.690	0.652	0.722	0.682	0.757	0.610	0.525	0.498	0.513	0.477	0.427	0.445	0.472	0.633	0.818	1.222	1.976	2.981	3.539	2.628	1.714	1.100	1.469	2.829	5.535	12.65	23.72	33.32	54.42	47.52	43.85	13.98	3.849
295.0	261.5	273.5	226.3	145.5	90.86	78.97	87.41	114.3	210.3	491.7	687.3	296.3	645.1	1605	4002	9999.9	3363	46.08	7.200	5.386	3.370	2.873	2.241	1.968	1.518	1.427	1.271	1.185	1.311	0.991	0.910	0.805	0.850	0.863	0.884	1.129	0.918	0.860	0.774	0.801	0.672	0.670	0.684	0.724	0.744	0.850	0.848	0.926	0.946	0.740	0.692	0.718	0.563	0.520	0.556	0.534	0.597	0.647	0.702	0.853	0.989	1.298	1.926	3.166	4.742	3.347	1.880	1.679	2.140	3.744	6.074	8.148	13.23	17.66	44.17	75.01	36.19
300.0	294.6	312.8	280.5	186.2	115.4	98.88	110.1	123.7	174.4	318.5	791.6	615.4	360.1	493.2	1057	5848	9999.9	621.3	23.62	6.588	4.568	3.198	2.493	2.221	1.826	1.659	1.303	1.284	1.210	1.029	1.084	0.943	0.927	0.869	0.910	1.002	0.901	0.992	0.766	0.756	0.765	0.679	0.818	0.904	0.909	0.912	0.947	1.065	1.021	0.896	0.761	0.776	0.606	0.507	0.474	0.589	0.693	0.729	0.843	0.982	1.096	1.056	1.356	1.882	3.306	5.051	4.272	2.414	1.774	1.836	2.388	2.745	3.744	4.813	11.62	29.91	58.15
305.0	324.6	372.4	323.6	211.2	141.1	127.3	136.4	161.7	209.9	295.7	566.0	949.3	491.2	311.5	367.2	1586	7700	8780	448.9	11.40	5.532	3.788	3.057	2.338	2.017	1.832	1.397	1.331	1.232	1.052	1.082	0.872	0.995	0.826	0.914	1.002	1.037	1.113	0.892	0.798	0.916	0.819	0.882	0.870	0.898	1.066	1.053	1.178	1.109	0.964	0.896	0.843	0.748	0.682	0.781	0.664	0.771	0.879	0.956	1.176	1.315	1.265	1.482	1.721	2.165	3.299	4.572	4.927	3.497	2.112	1.997	1.670	1.899	1.963	3.340	7.527	16.56
310.0	374.3	426.0	367.4	253.3	163.9	144.8	163.8	200.8	245.0	307.8	435.8	712.1	825.7	453.4	252.5	457.6	2063	6133	6429	1747	27.20	5.797	3.855	3.087	2.556	1.944	1.647	1.616	1.366	1.187	1.091	1.061	0.980	0.916	1.010	1.007	0.989	1.090	0.945	0.877	0.954	0.931	0.942	0.911	0.963	1.063	1.226	1.261	1.197	1.054	0.923	0.881	0.855	0.752	0.881	0.796	0.860	1.027	1.108	1.121	1.298	1.369	1.646	1.810	1.951	2.414	2.864	3.689	4.329	4.396	3.446	2.295	1.808	1.640	1.621	2.508	4.363
315.0	430.8	457.7	418.6	288.9	190.7	168.5	186.4	225.0	269.3	332.3	415.6	514.1	662.1	770.2	349.7	230.8	546.3	1446	3597	8683	523.9	27.97	5.539	4.065	3.147	2.328	2.102	1.684	1.586	1.474	1.298	1.030	1.109	1.038	1.023	1.261	1.062	1.053	0.938	0.949	0.886	0.891	0.910	0.891	0.999	1.188	1.262	1.499	1.300	1.036	0.997	0.971	0.919	0.865	0.933	0.908	1.008	0.960	1.211	1.285	1.241	1.500	1.718	1.842	2.004	2.077	2.324	2.590	2.839	3.251	4.207	4.614	3.244	2.017	1.551	1.647	1.838
320.0	461.7	513.1	457.5	314.7	213.8	179.1	199.5	236.7	284.5	350.0	423.4	484.3	530.6	705.7	583.6	225.2	222.6	387.2	922.4	5388	7546	445.2	13.45	5.373	3.511	2.792	2.174	1.902	1.580	1.471	1.232	1.155	1.191	1.175	1.152	1.077	1.138	0.955	1.066	0.981	0.822	0.927	0.891	1.016	1.100	1.214	1.344	1.558	1.379	1.241	1.088	0.962	0.966	0.892	1.026	1.051	1.067	1.084	1.265	1.461	1.437	1.577	1.917	1.895	2.046	2.130	2.465	2.471	2.578	2.588	3.059	3.929	4.537	3.644	1.963	1.444	1.365
325.0	474.5	553.1	521.9	359.2	229.0	197.4	203.2	243.9	286.5	353.5	428.5	476.7	490.6	522.4	658.3	358.5	164.9	156.9	248.8	1467	6501	4032	62.26	8.258	4.707	3.413	2.459	2.177	1.807	1.627	1.205	1.276	1.109	1.237	1.104	1.069	1.162	1.213	1.178	0.972	0.968	0.922	1.012	0.998	1.086	1.454	1.471	1.772	1.487	1.516	1.100	1.068	1.080	0.992	1.002	1.082	1.066	1.172	1.336	1.403	1.346	1.661	1.828	1.944	2.153	1.988	2.245	2.259	2.470	2.420	2.499	2.836	3.628	4.216	3.605	2.366	1.448
330.0	494.1	620.5	605.0	419.0	270.0	215.9	216.6	256.2	293.9	358.1	426.9	477.4	476.1	442.3	467.9	494.1	284.0	127.3	107.7	364.8	1779	4502	5062	1327	20.87	4.806	3.456	2.689	2.143	1.835	1.293	1.397	1.275	1.200	1.203	1.059	1.098	1.014	1.058	0.982	0.995	0.979	1.115	1.144	1.299	1.447	1.659	1.887	1.771	1.684	1.352	1.295	1.205	1.150	1.049	1.100	1.166	1.140	1.244	1.366	1.490	1.676	1.730	1.931	2.089	2.058	2.296	2.455	2.408	2.434	2.409	2.465	2.695	2.798	3.148	3.326	2.810
335.0	529.7	653.8	640.6	465.2	318.6	243.6	235.4	258.7	302.5	361.7	428.9	474.4	477.8	428.4	375.2	356.8	439.7	227.2	92.97	131.1	431.4	1058	3292	7147	433.4	23.46	4.724	3.521	2.472	2.287	1.761	1.606	1.280	1.116	1.151	0.998	1.158	1.074	1.018	0.974	0.999	1.004	1.145	1.083	1.300	1.484	1.560	1.816	2.038	1.747	1.588	1.565	1.391	1.263	1.193	1.176	1.271	1.268	1.314	1.447	1.565	1.636	1.779	2.047	1.976	2.147	2.368	2.446	2.340	2.496	2.368	2.437	2.354	2.237	2.284	2.149	2.529
340.0	528.9	668.5	667.7	506.5	348.6	265.6	248.3	271.0	300.9	361.2	420.7	461.2	461.5	424.2	355.1	289.4	357.8	363.0	136.3	87.52	139.4	267.4	853.1	4814	6275	377.0	11.22	4.641	3.143	2.667	2.124	1.642	1.469	1.279	1.108	1.119	1.140	0.981	1.090	0.907	0.993	1.002	1.162	1.162	1.403	1.509	1.638	1.907	2.036	1.720	1.557	1.682	1.439	1.161	1.301	1.157	1.284	1.355	1.418	1.444	1.401	1.569	1.716	1.897	1.989	2.210	2.118	2.353	2.414	2.483	2.329	2.319	2.162	2.126	2.239	1.853	1.906
345.0	509.1	624.7	666.3	523.2	371.7	289.7	258.9	276.7	303.8	351.5	406.6	447.4	448.4	412.2	348.5	271.7	259.1	363.9	249.9	88.68	81.91	98.80	220.0	1348	5743	3391	53.88	6.628	3.847	3.019	2.419	1.742	1.517	1.268	1.230	1.167	1.112	1.101	0.982	1.029	0.881	0.902	1.079	1.158	1.273	1.519	1.676	1.997	2.008	1.639	1.662	1.665	1.494	1.304	1.256	1.120	1.252	1.174	1.338	1.437	1.483	1.585	1.684	1.802	2.017	2.107	2.044	2.331	2.274	2.381	2.222	2.156	2.170	2.238	2.111	1.861	1.716
350.0	479.5	600.1	632.6	533.3	398.6	313.1	282.3	285.5	312.6	346.9	388.0	428.0	428.6	396.6	341.7	274.8	233.2	249.9	301.7	208.8	97.95	76.00	89.44	332.2	1602	3840	4232	1166	18.90	4.159	2.977	1.947	1.881	1.447	1.256	1.237	1.190	1.031	1.022	0.932	0.870	0.931	0.985	1.031	1.284	1.395	1.490	1.870	1.856	1.656	1.483	1.688	1.548	1.352	1.441	1.267	1.349	1.349	1.414	1.452	1.603	1.507	1.637	1.797	1.863	1.972	2.055	2.151	2.256	2.291	2.210	2.133	2.105	1.943	1.917	1.919	1.812
355.0	464.4	566.4	600.1	513.5	415.9	343.9	311.9	303.0	318.9	348.0	383.0	411.9	412.6	385.6	338.7	283.0	239.9	214.4	219.9	287.5	196.9	92.91	73.95	116.7	387.3	905.2	2751	5860	404.0	21.33	4.280	2.743	2.146	1.723	1.406	1.442	1.084	1.172	0.933	0.915	0.837	1.012	1.223	1.044	1.219	1.310	1.377	1.900	1.818	1.586	1.576	1.642	1.618	1.443	1.452	1.390	1.331	1.504	1.409	1.537	1.747	1.549	1.717	1.898	1.751	1.876	2.062	2.010	2.099	2.166	2.141	1.955	2.107	2.056	1.836	1.891	1.695
360.0	437.0	554.6	556.8	505.2	428.1	369.9	334.0	323.9	334.4	355.0	378.3	400.9	397.6	376.6	337.8	289.8	250.8	215.0	194.5	237.5	278.2	145.1	85.54	78.38	126.1	231.1	716.5	4002	5367	357.4	10.68	3.768	2.623	2.001	1.671	1.375	1.226	1.053	0.949	0.964	0.854	0.948	1.101	1.020	1.126	1.357	1.378	1.695	1.762	1.604	1.546	1.641	1.667	1.571	1.525	1.428	1.577	1.626	1.567	1.652	1.876	1.784	1.709	1.866	1.827	1.906	1.892	1.969	1.823	2.063	1.925	1.940	2.011	2.076	1.801	1.860	1.817
365.0	441.0	537.2	544.0	509.0	421.9	381.4	351.4	335.2	349.0	356.4	373.5	389.2	389.7	370.0	338.7	289.4	259.4	225.5	201.1	197.3	266.3	235.2	114.2	80.97	77.63	89.42	188.5	1126	4943	3179	50.49	5.648	3.363	2.383	1.883	1.536	1.284	1.066	1.018	1.076	0.885	1.130	1.006	1.097	1.150	1.313	1.333	1.546	1.608	1.600	1.544	1.584	1.663	1.649	1.666	1.424	1.704	1.794	1.585	1.719	1.971	1.817	1.776	1.699	1.975	1.913	1.727	1.894	1.994	2.003	1.942	1.995	2.008	1.961	1.964	1.880	1.848
370.0	413.1	499.8	526.9	503.8	445.2	401.0	374.1	359.7	365.6	368.5	382.6	389.2	380.6	365.5	338.8	295.8	269.3	242.2	216.9	200.3	210.7	252.9	209.8	115.2	83.93	70.78	80.19	280.7	1379	3485	3940	1111	17.19	3.470	2.450	1.894	1.467	1.276	1.027	1.152	1.027	0.996	1.116	1.029	1.017	1.277	1.336	1.520	1.593	1.485	1.521	1.666	1.743	1.719	1.693	1.661	1.735	1.736	1.621	1.741	1.798	1.799	1.811	1.816	1.859	1.847	1.934	1.860	1.914	1.974	1.989	2.092	1.910	2.016	2.007	1.832	1.910
375.0	415.7	484.9	532.4	495.5	458.8	419.9	394.5	378.5	380.4	382.9	386.7	385.2	382.3	357.8	338.0	299.0	278.5	257.6	234.2	216.3	200.4	205.0	248.1	206.5	109.1	81.54	67.77	102.3	335.2	822.4	2501	5323	1531	20.15	3.122	2.548	1.742	1.355	1.245	1.124	1.071	1.066	1.089	1.048	1.041	1.219	1.349	1.526	1.649	1.559	1.458	1.818	1.834	1.766	1.787	1.717	1.801	1.881	1.804	1.706	1.742	1.844	1.895	1.782	1.982	1.947	1.786	2.074	1.858	2.012	2.086	1.892	1.853	2.014	1.865	1.987	1.918
380.0	399.0	494.8	524.7	496.4	471.2	439.3	412.2	398.5	392.8	384.3	390.6	387.4	381.2	356.3	333.0	305.6	287.8	266.2	248.7	227.7	209.4	197.4	215.0	253.1	160.7	97.09	77.43	70.71	110.2	210.5	648.7	3519	5005	306.8	10.25	2.856	2.235	1.618	1.403	1.076	1.170	1.068	1.063	1.113	1.105	1.204	1.309	1.449	1.558	1.482	1.462	1.726	1.764	1.821	1.993	1.722	1.932	1.816	1.876	1.732	1.838	1.703	1.847	1.925	2.002	1.945	1.690	1.876	1.879	1.954	1.885	1.761	1.907	1.927	1.967	1.877	1.936
385.0	414.0	484.6	517.0	484.1	474.4	443.3	419.3	414.8	401.7	394.8	391.5	387.1	375.6	356.3	330.1	307.0	285.9	274.3	254.3	238.7	216.1	201.1	192.6	230.0	224.3	127.7	89.08	73.58	67.86	78.57	169.1	970.2	4158	2690	234.7	5.031	2.605	1.957	1.674	1.227	1.238	1.266	1.131	1.193	1.244	1.434	1.372	1.417	1.628	1.415	1.462	1.681	1.782	1.917	1.865	1.905	2.008	1.669	1.880	1.744	1.911	1.798	2.007	1.961	2.144	1.899	1.839	1.939	1.967	1.847	2.047	1.896	2.015	2.044	1.894	1.806	1.849
390.0	402.8	464.0	496.7	490.2	481.6	455.6	431.3	426.2	410.4	396.2	394.9	383.4	371.3	355.5	328.7	304.1	288.0	276.5	259.2	246.5	226.1	209.8	195.4	193.0	222.1	196.3	121.8	87.18	70.33	60.53	69.44	239.6	1123	2632	3063	930.5	15.76	2.703	1.995	1.520	1.358	1.388	1.186	1.273	1.238	1.385	1.511	1.428	1.514	1.516	1.405	1.680	1.854	1.801	1.869	1.928	2.038	1.880	1.833	1.830	1.983	1.968	1.965	1.949	1.963	1.928	1.803	1.849	1.896	1.889	1.985	1.933	1.998	2.012	1.910	2.171	2.145
395.0	384.3	468.8	515.2	499.8	478.9	466.1	449.8	434.0	420.6	410.6	397.2	387.5	376.4	351.1	322.9	300.6	286.6	279.2	263.4	252.2	235.8	217.7	201.7	188.1	184.3	206.9	188.5	115.2	85.18	68.51	57.67	85.10	271.6	613.9	1740	3954	1386	20.68	2.682	2.073	1.534	1.463	1.250	1.239	1.268	1.315	1.508	1.567	1.609	1.511	1.494	1.832	1.984	1.769	1.857	1.783	1.920	2.040	1.972	1.837	2.137	2.212	2.018	1.913	2.056	1.823	1.848	2.041	1.833	1.863	2.062	1.806	1.895	1.890	1.933	2.071	2.044
400.0	400.5	469.6	496.9	487.3	486.4	466.8	461.3	442.6	420.0	418.4	405.0	389.2	369.6	351.4	321.9	300.4	285.8	277.7	266.5	250.8	238.0	222.9	212.8	192.7	180.3	182.2	209.8	158.3	100.1	77.78	63.75	56.61	86.60	155.6	437.8	2351	3793	279.4	12.67	2.361	1.914	1.703	1.394	1.285	1.296	1.357	1.567	1.594	1.586	1.355	1.435	1.664	1.864	1.866	1.881	1.809	1.974	1.876	1.937	2.134	1.961	2.027	1.980	2.128	2.025	2.012	1.783	1.864	1.927	1.870	1.900	1.837	1.824	1.891	1.974	1.903	2.089
405.0	395.6	468.1	488.9	490.5	477.2	469.9	464.0	448.0	432.4	427.5	407.7	396.9	369.1	349.6	317.9	301.6	285.7	274.2	262.1	252.7	241.6	227.0	215.1	197.2	184.1	170.5	191.0	200.3	128.2	90.60	71.36	56.92	51.65	57.75	115.0	618.3	2740	2332	230.6	6.046	2.127	1.781	1.510	1.396	1.259	1.477	1.401	1.461	1.655	1.524	1.463	1.806	1.810	1.782	1.943	1.834	2.141	1.947	2.048	1.961	2.131	2.002	2.100	2.111	1.827	1.927	1.888	1.838	1.917	2.031	1.973	1.867	1.760	1.898	1.657	1.931	1.904
410.0	393.7	463.8	476.6	479.1	474.5	469.6	466.2	454.7	447.3	433.7	417.8	397.0	373.6	346.9	316.7	296.1	280.0	266.8	257.4	249.1	238.2	226.2	215.8	204.1	188.9	175.0	168.9	188.8	179.1	122.9	86.48	67.04	52.56	42.94	47.33	154.0	709.1	1861	2421	898.5	15.90	2.478	1.789	1.659	1.506	1.404	1.396	1.545	1.570	1.532	1.494	1.822	1.722	1.891	1.855	1.881	2.179	1.998	2.066	2.072	2.081	2.156	2.083	2.023	2.094	1.992	1.991	1.754	1.995	1.913	1.944	1.884	1.890	2.004	1.680	1.895	1.811
415.0	394.8	458.4	477.1	501.3	472.5	464.6	474.7	463.6	453.7	435.6	425.9	398.4	368.2	339.5	308.9	284.9	269.2	258.7	248.0	244.5	229.6	223.4	212.8	203.4	189.9	179.9	167.0	163.6	177.5	170.7	112.2	79.95	60.34	45.97	37.07	53.46	172.1	429.8	1137	2945	1337	21.66	2.562	1.891	1.718	1.555	1.384	1.546	1.423	1.395	1.499	1.798	1.738	1.837	1.981	1.865	2.126	1.907	2.026	2.105	2.057	2.011	1.990	1.986	2.085	2.051	1.895	1.768	1.920	1.930	1.658	1.985	1.991	1.775	1.794	1.784	1.778
420.0	366.2	418.7	467.1	480.0	478.0	460.7	471.5	469.5	457.3	443.1	435.3	400.5	367.7	326.8	303.4	277.9	261.0	250.8	240.3	233.5	224.3	217.4	209.5	203.9	191.4	180.7	169.2	158.8	158.9	179.9	144.3	92.63	67.81	51.33	39.06	34.81	54.40	107.5	276.6	1522	2992	268.6	14.60	2.150	1.868	1.715	1.424	1.677	1.581	1.477	1.375	1.733	1.812	1.884	1.987	1.911	1.923	2.073	2.276	2.129	2.024	2.309	1.973	2.160	2.034	2.026	2.010	1.929	1.967	1.809	1.748	1.879	1.872	1.762	1.841	1.719	1.924
425.0	356.9	411.9	466.1	472.1	457.7	453.6	461.5	460.1	461.4	449.4	435.9	407.5	365.5	323.2	296.3	270.4	250.1	243.6	233.2	228.5	219.2	210.5	204.6	204.0	191.3	179.8	172.6	160.8	155.7	162.0	168.0	115.3	76.21	56.22	43.86	34.34	31.66	37.64	71.91	382.8	1831	2165	235.7	7.759	2.057	1.981	1.695	1.764	1.514	1.464	1.455	1.838	1.865	1.890	1.878	1.800	1.978	2.198	2.104	2.254	2.141	2.228	2.221	2.156	2.088	2.110	1.997	1.855	1.935	1.583	1.786	1.755	1.842	1.791	1.719	1.635	1.748
430.0	570.7	409.5	436.4	443.9	447.0	449.9	458.5	462.5	469.9	462.8	448.9	413.4	364.5	327.4	291.5	263.3	245.9	233.8	223.1	217.3	211.3	205.8	201.8	199.0	190.3	183.6	175.2	165.7	158.6	151.8	156.8	145.9	99.37	67.41	50.94	39.70	30.62	25.18	28.07	94.52	454.3	1331	1988	940.4	16.35	2.775	1.935	1.829	1.582	1.491	1.435	1.758	1.823	1.954	1.827	1.829	2.032	2.123	2.038	2.192	2.243	2.100	2.221	2.270	2.157	2.176	2.005	1.967	1.944	1.739	1.795	1.670	1.742	1.694	1.627	1.748	1.680
435.0	1083	451.7	433.7	423.6	430.5	443.3	453.0	460.4	480.0	477.5	454.9	416.7	364.9	325.3	287.3	254.7	236.6	221.4	213.0	206.8	204.6	196.3	198.2	193.4	188.1	184.1	175.8	169.7	161.9	152.6	144.0	142.6	132.1	88.76	60.82	46.11	35.21	26.80	21.52	32.10	109.7	305.0	774.2	2415	1406	24.53	2.540	1.996	1.759	1.663	1.586	1.659	1.936	1.905	1.796	1.903	2.064	2.042	2.084	2.187	2.341	2.204	2.226	2.265	2.263	2.212	2.054	1.896	1.940	1.715	1.649	1.728	1.687	1.685	1.651	1.608	1.673
440.0	1455	666.7	417.6	419.7	426.4	430.2	453.5	464.0	477.5	482.1	455.7	415.6	368.4	319.8	281.2	249.4	229.3	216.5	202.7	198.3	195.9	190.7	190.7	188.1	186.5	181.9	174.7	171.0	163.1	154.0	141.3	131.2	133.8	109.3	70.08	50.75	38.61	28.88	22.71	20.51	34.31	75.95	184.6	1098	2665	1105	16.98	2.740	1.904	1.602	1.596	1.831	1.902	1.793	1.913	1.979	2.102	2.049	2.140	1.901	2.285	2.172	2.288	2.067	2.185	2.150	2.055	1.893	1.779	1.799	1.744	1.794	1.780	1.668	1.743	1.546	1.716
445.0	1403	1196	414.2	407.1	411.5	415.2	441.3	460.2	469.3	472.1	458.9	414.1	358.3	314.5	273.1	242.4	217.9	207.3	195.9	187.9	186.7	184.8	184.7	180.3	179.8	176.0	172.4	166.9	163.0	154.0	141.9	126.2	120.2	119.2	83.41	55.45	40.97	31.14	24.37	19.88	19.08	25.84	48.46	266.8	1432	2614	216.7	11.92	2.373	1.704	1.596	1.762	1.816	1.733	1.921	1.879	2.083	1.856	2.082	2.140	2.256	2.263	2.181	2.205	2.248	2.168	2.129	1.782	1.833	1.860	1.655	1.745	1.657	1.725	1.771	1.447	1.606
450.0	790.7	1876	779.1	380.0	396.1	392.6	419.1	446.2	449.8	456.4	438.7	399.4	347.5	299.0	259.4	226.5	207.6	193.9	183.0	177.8	174.1	172.0	171.0	169.7	168.6	168.1	164.7	161.8	159.4	151.7	139.3	122.3	109.5	104.7	97.81	68.55	45.76	34.05	26.66	21.56	17.47	16.23	19.45	66.10	346.1	1227	1682	903.1	15.44	2.544	1.810	1.901	1.937	1.732	1.723	1.735	1.964	2.013	2.035	2.181	2.195	2.211	2.219	2.196	2.170	2.266	1.909	1.819	1.878	1.790	1.623	1.605	1.618	1.627	1.661	1.514	1.482
455.0	398.0	1547	1774	441.2	364.1	383.4	399.7	415.7	431.9	437.0	421.4	383.9	331.4	282.3	246.1	214.1	192.0	179.8	168.4	161.2	160.1	157.6	158.0	157.0	157.7	156.9	155.3	151.9	150.2	146.2	134.4	117.3	103.1	90.21	86.95	81.69	55.98	37.98	28.93	23.34	19.10	15.71	13.63	22.04	83.28	279.5	565.3	1893	1261	20.43	2.507	2.165	2.042	1.705	1.652	1.857	1.742	1.953	2.076	2.071	2.029	2.029	2.122	2.077	2.126	2.012	1.837	1.719	1.853	1.760	1.532	1.612	1.560	1.545	1.398	1.439	1.340
460.0	285.3	910.8	2386	777.9	350.6	362.8	377.9	388.0	415.3	416.3	403.1	364.6	313.7	269.9	231.5	202.7	177.7	166.8	154.7	150.8	147.1	145.2	145.9	147.8	145.7	145.7	146.1	145.0	144.4	137.6	128.9	113.5	98.27	85.66	76.09	78.69	65.63	41.98	30.23	24.73	20.15	16.35	13.47	13.58	25.33	68.14	133.2	761.9	2101	940.8	15.25	2.564	2.050	1.769	1.870	1.787	1.676	1.889	2.066	2.166	2.055	2.223	2.132	1.837	2.059	1.899	1.766	1.903	1.787	1.717	1.550	1.504	1.520	1.444	1.424	1.391	1.471
465.0	266.4	472.8	2128	1540	354.6	343.3	352.0	377.6	395.2	388.8	377.2	348.8	300.9	252.7	213.8	188.9	164.5	154.6	145.6	140.1	136.6	136.4	135.3	136.5	136.7	136.7	137.0	136.9	134.7	131.4	122.6	109.6	95.28	82.28	70.17	66.93	68.89	50.13	32.64	25.94	20.58	17.08	13.99	12.12	12.69	21.32	35.27	182.0	1050	1960	175.8	12.48	2.485	1.952	1.734	1.766	1.789	1.791	1.731	2.013	2.024	2.051	2.224	1.879	1.879	1.834	1.786	1.830	1.589	1.593	1.344	1.465	1.382	1.462	1.349	1.390	1.221
470.0	307.2	309.6	1094	2320	759.2	317.6	323.4	346.2	364.6	363.6	350.2	318.6	274.4	230.1	198.2	171.8	150.7	139.0	131.2	125.4	123.4	123.0	121.9	123.2	122.5	122.6	123.8	123.7	122.4	119.9	113.2	101.8	89.51	77.28	65.32	57.85	56.51	54.38	39.67	27.30	21.87	17.96	14.79	12.32	10.94	11.62	13.68	45.53	250.8	863.7	1300	764.9	16.32	2.468	1.839	1.740	1.880	1.803	1.642	1.804	1.790	1.808	1.816	1.851	1.848	1.788	1.659	1.516	1.509	1.463	1.398	1.397	1.205	1.200	1.283	1.273	1.142
475.0	294.9	264.3	451.6	1804	1826	357.9	290.5	307.5	327.7	326.9	324.9	295.6	252.4	209.2	178.0	153.2	137.2	124.6	115.8	113.0	109.8	109.2	109.0	108.4	110.1	110.4	110.6	111.3	110.6	109.4	102.1	94.14	82.38	72.28	61.91	53.33	46.33	47.02	45.70	32.55	23.23	18.09	15.60	12.87	11.06	9.689	9.251	15.12	60.12	196.2	395.8	1234	965.2	23.14	2.451	1.843	1.869	1.687	1.798	1.870	1.580	1.782	1.655	1.587	1.642	1.674	1.445	1.436	1.339	1.354	1.370	1.299	1.215	1.191	1.201	1.150	1.066
480.0	286.0	270.7	277.9	964.8	2509	563.1	274.7	286.7	307.6	306.5	300.5	270.1	230.7	197.0	167.7	144.2	128.0	114.6	107.2	104.2	100.6	101.1	100.9	100.4	102.2	100.8	100.8	103.1	101.6	101.6	93.19	88.87	77.77	66.40	57.71	49.06	43.76	39.77	44.15	38.24	25.25	18.65	15.84	13.46	11.51	9.904	8.693	8.948	17.84	47.51	92.65	459.0	1509	780.3	17.77	2.222	1.915	1.710	1.706	1.718	1.588	1.695	1.612	1.590	1.530	1.595	1.389	1.356	1.286	1.441	1.286	1.139	1.077	1.180	1.129	1.092	0.999
485.0	224.1	289.6	244.6	441.6	2244	1409	277.5	270.1	281.2	288.9	277.2	253.9	215.8	189.5	156.9	135.9	118.6	110.0	101.3	97.24	95.20	92.44	94.59	93.94	94.55	94.15	94.78	95.17	93.47	94.86	88.78	83.09	73.40	63.60	55.49	47.08	41.33	36.14	37.35	39.09	30.53	19.37	15.88	13.68	11.77	10.20	8.686	7.745	8.324	14.65	24.33	109.4	724.2	1490	213.0	11.43	2.099	1.740	1.575	1.658	1.479	1.538	1.471	1.625	1.580	1.404	1.266	1.297	1.340	1.289	1.172	1.123	1.070	1.142	1.180	1.084	0.918
490.0	177.7	288.1	244.8	257.8	1140	2325	640.5	250.9	261.7	266.2	255.9	235.3	202.1	172.3	143.9	124.2	109.2	101.3	92.88	88.22	86.19	83.82	84.91	85.11	85.09	85.19	85.90	85.47	86.36	85.75	81.53	75.99	66.91	59.26	51.84	44.61	39.03	33.98	31.28	33.32	33.61	24.77	17.03	14.08	12.28	10.63	9.224	7.999	7.013	7.575	9.230	27.54	172.1	619.2	1121	709.6	17.48	2.518	1.790	1.653	1.576	1.506	1.526	1.509	1.423	1.296	1.261	1.268	1.209	1.178	1.014	1.089	0.972	0.999	0.992	1.000	0.983
495.0	149.7	239.9	278.1	208.3	422.2	1907	1734	274.8	232.8	239.0	231.1	212.3	185.6	157.4	129.7	114.8	98.71	90.54	82.90	78.00	77.30	76.16	76.10	76.55	76.31	75.16	75.90	77.11	76.93	77.25	74.54	69.49	61.62	54.79	48.38	41.76	37.03	31.73	27.86	26.78	28.58	28.62	21.09	14.67	13.00	11.08	9.372	8.151	7.154	6.248	5.742	9.507	41.15	140.8	356.2	1177	990.0	25.79	2.368	1.773	1.541	1.448	1.411	1.318	1.462	1.165	1.254	1.141	1.087	1.158	0.997	1.012	0.850	0.894	0.936	1.049	0.896
500.0	137.2	183.8	282.3	197.7	231.6	1017	2522	405.2	211.7	218.0	218.2	196.6	168.6	143.2	122.0	103.1	92.89	82.84	75.64	70.35	68.81	69.08	68.62	67.98	68.42	67.53	69.43	69.10	70.47	70.68	67.84	64.05	57.70	50.51	44.55	39.87	33.97	30.12	25.56	23.28	23.75	26.59	24.28	16.02	12.46	11.07	9.628	8.349	7.233	5.892	5.299	5.624	12.13	34.19	83.09	437.9	1412	753.7	18.86	1.898	1.426	1.604	1.319	1.413	1.379	1.162	1.167	0.972	1.090	1.003	0.916	0.948	0.915	0.898	0.910	0.881	0.937
505.0	128.2	149.5	261.2	203.7	178.6	424.1	2402	1194	209.7	199.9	199.1	180.7	154.5	132.0	110.4	96.37	85.68	75.06	69.26	64.27	63.32	62.45	61.62	62.86	63.41	62.97	62.41	63.37	64.17	64.24	61.22	57.47	51.84	47.16	41.40	37.35	31.83	28.77	24.17	21.86	20.34	21.77	25.29	18.60	13.10	11.01	9.173	7.948	7.114	6.104	5.186	4.572	5.368	10.40	20.99	103.3	637.1	1392	229.5	11.93	1.661	1.374	1.296	1.341	1.225	1.035	1.001	0.931	0.982	0.920	0.782	0.859	0.837	0.953	0.816	0.715	0.779
510.0	119.3	124.2	191.9	232.5	169.1	208.7	1217	2330	483.7	181.0	173.5	157.9	137.5	116.0	98.55	84.88	74.87	67.54	60.78	58.63	55.38	55.31	54.05	54.99	54.38	54.62	55.32	56.23	56.04	56.01	54.03	50.46	45.74	40.60	36.33	32.82	28.90	25.97	22.42	20.80	18.55	17.84	19.99	20.41	15.03	11.05	9.041	7.847	6.963	6.039	5.361	4.523	4.086	4.890	7.071	25.24	150.1	561.3	949.0	580.1	17.17	1.852	1.366	1.189	1.111	1.027	0.913	0.927	0.933	0.862	0.812	0.830	0.733	0.857	0.709	0.740	0.778
515.0	102.0	115.9	135.4	210.3	174.1	146.8	399.4	2109	1572	185.7	154.8	144.4	122.9	100.1	85.83	75.48	65.72	58.84	54.38	51.07	49.11	48.15	47.09	47.65	46.72	47.53	48.18	48.38	48.12	48.73	46.73	43.45	40.02	35.58	31.95	29.36	25.74	23.00	20.63	18.18	16.64	15.15	15.40	17.53	17.55	12.63	9.232	7.877	6.523	6.063	5.127	4.756	4.025	3.829	3.795	7.796	35.59	127.1	285.1	923.8	755.2	24.87	1.521	1.238	1.000	1.025	0.886	0.889	0.876	0.777	0.845	0.724	0.776	0.773	0.702	0.689	0.628
520.0	88.90	98.99	116.5	181.5	196.2	131.9	189.1	1149	2554	288.5	138.7	131.2	112.6	92.46	76.87	66.16	59.97	52.73	48.46	46.45	44.73	43.92	42.78	41.83	41.74	42.80	41.60	42.60	43.25	43.52	41.85	39.82	35.68	32.27	28.31	25.97	23.14	20.84	19.14	16.51	15.17	14.36	12.78	13.81	16.81	14.68	9.500	7.465	6.356	5.822	4.799	4.864	4.153	3.512	3.021	3.805	9.788	30.18	66.00	344.4	1046	245.7	17.62	1.402	1.074	1.063	0.878	0.904	0.782	0.712	0.738	0.808	0.674	0.703	0.705	0.574	0.472
525.0	80.39	95.48	98.81	131.4	202.9	129.6	130.1	452.4	2699	1040	133.2	117.0	100.3	83.71	69.35	60.21	53.52	47.44	44.50	42.51	40.46	38.70	38.42	38.50	38.09	37.32	37.24	37.92	38.73	38.38	37.64	35.80	31.30	29.55	26.05	23.54	21.05	18.92	17.68	16.14	14.26	13.02	11.88	11.49	14.03	15.93	10.96	7.656	6.471	5.479	4.872	4.447	4.155	3.617	2.947	2.846	4.233	8.428	16.50	80.98	466.0	941.4	223.3	9.089	1.136	0.978	0.891	0.900	0.794	0.658	0.715	0.653	0.685	0.613	0.597	0.578	0.542
530.0	76.57	85.24	88.28	99.62	171.1	160.7	105.8	187.2	1423	2357	364.8	99.65	89.11	72.99	61.97	52.90	47.23	41.97	39.68	36.68	34.87	34.28	32.76	32.99	32.68	33.04	32.59	32.32	33.38	32.88	32.96	30.78	27.54	25.54	22.92	20.42	18.92	16.80	15.50	14.36	12.79	11.63	10.75	10.01	10.61	12.74	12.27	9.207	6.341	5.075	4.538	4.251	3.839	3.588	3.153	2.591	2.809	3.720	5.351	19.63	109.9	395.6	695.5	428.5	15.85	1.400	0.938	0.891	0.697	0.681	0.726	0.645	0.545	0.616	0.589	0.553	0.540
535.0	66.95	74.64	72.23	83.32	113.7	174.4	105.5	109.8	425.6	2339	1427	104.4	79.19	62.93	55.07	46.30	40.65	37.02	34.22	31.42	30.02	30.07	28.65	28.07	28.19	28.41	27.27	28.07	28.92	28.23	27.68	26.06	23.35	21.55	19.55	18.00	16.42	14.49	13.61	11.96	11.46	10.08	9.639	8.857	8.550	9.014	10.69	10.54	7.064	5.218	4.260	3.783	3.430	3.352	3.284	2.881	2.436	2.356	2.658	5.710	25.78	89.42	207.9	662.3	538.7	22.25	1.195	0.940	0.702	0.691	0.743	0.599	0.591	0.639	0.675	0.597	0.510
540.0	58.61	61.41	72.31	71.22	79.79	157.3	124.4	88.04	162.9	1248	2583	191.4	69.22	58.27	48.29	41.80	36.31	31.51	29.96	27.80	26.78	25.80	24.95	25.54	24.11	24.80	24.15	24.51	25.63	24.18	23.92	22.65	21.07	18.92	16.84	15.94	14.82	13.29	12.42	11.10	10.16	8.836	8.541	8.282	7.629	7.800	8.297	9.847	7.862	5.334	4.065	3.591	3.059	3.076	2.862	3.084	2.509	2.042	2.063	2.612	6.979	21.19	48.13	243.7	739.4	240.9	15.00	0.941	0.732	0.746	0.692	0.541	0.499	0.479	0.554	0.488	0.475
545.0	58.81	55.44	58.20	65.32	66.85	121.2	148.2	80.85	94.21	448.1	2802	752.7	63.57	52.82	41.84	38.10	32.64	27.51	26.19	25.00	23.99	22.22	22.70	22.12	20.93	21.63	22.19	21.73	21.58	22.19	21.27	20.46	18.86	17.71	15.55	14.01	12.50	11.70	10.94	10.02	9.150	8.236	7.853	7.319	6.665	6.434	6.472	8.050	8.410	5.705	4.025	3.246	3.018	2.782	2.425	2.843	2.756	2.058	1.945	1.877	2.868	5.888	11.86	57.26	320.9	673.1	201.5	7.153	0.851	0.685	0.661	0.534	0.471	0.488	0.434	0.386	0.530
550.0	54.94	51.63	53.51	52.69	55.91	76.59	143.7	86.46	67.65	152.2	1377	2019	134.2	44.70	36.88	32.39	27.40	24.12	22.68	21.37	19.88	18.77	18.81	18.63	17.88	18.11	18.39	18.13	18.34	18.29	17.80	16.92	15.43	14.42	12.95	11.58	10.73	10.11	8.974	8.378	7.771	6.950	6.724	6.130	5.644	5.265	4.923	5.680	7.009	6.181	4.404	3.027	2.763	2.445	2.320	2.306	2.390	2.310	1.838	1.618	1.766	2.350	3.596	13.70	75.18	268.4	472.8	251.3	15.54	0.880	0.602	0.511	0.505	0.470	0.460	0.398	0.411
555.0	51.24	46.51	48.07	44.01	44.94	50.02	101.9	115.2	53.78	73.21	380.1	2156	969.3	45.03	31.18	26.24	22.30	20.22	18.86	17.27	16.40	15.79	15.31	14.67	14.62	14.44	14.80	15.06	14.43	15.10	15.17	13.57	12.56	11.58	10.61	9.391	8.456	8.335	7.246	7.012	6.469	5.782	5.405	5.279	5.132	4.478	4.495	4.066	4.360	5.716	5.113	3.387	2.615	2.051	2.015	1.848	1.871	2.144	1.974	1.523	1.327	1.450	1.559	3.819	17.62	60.58	135.4	407.1	253.7	21.81	0.680	0.579	0.548	0.453	0.399	0.408	0.324
560.0	43.70	50.97	44.68	35.34	37.85	37.69	68.34	127.0	55.42	52.01	124.0	1129	2021	104.8	26.46	22.78	18.64	17.36	15.83	14.85	13.73	13.07	13.39	12.98	12.77	12.33	12.12	12.62	12.08	12.84	12.33	11.03	10.26	9.672	8.937	8.503	7.209	6.910	6.399	5.829	5.482	5.070	4.980	4.595	4.472	4.089	3.665	3.416	3.434	4.217	4.826	3.577	2.424	1.804	1.839	1.734	1.516	1.807	1.843	1.633	1.198	1.136	1.202	1.592	4.708	14.19	31.05	142.0	435.1	224.6	14.21	0.592	0.552	0.349	0.360	0.397	0.376
565.0	44.23	40.93	39.06	36.36	33.86	35.84	46.55	118.2	68.37	42.53	61.05	378.4	2355	463.5	24.86	21.09	15.94	14.78	13.65	12.58	12.29	11.20	11.56	11.04	10.40	10.41	9.959	10.32	10.90	10.79	10.34	9.666	9.202	8.153	7.564	7.308	6.353	5.924	5.502	5.249	4.595	4.488	4.375	3.961	3.413	3.411	3.085	3.011	2.813	3.021	3.878	3.595	2.471	1.868	1.679	1.541	1.377	1.494	1.514	1.781	1.347	1.003	0.884	1.089	1.660	3.752	7.689	33.10	179.0	420.2	171.6	5.613	0.521	0.402	0.408	0.392	0.357
570.0	39.62	36.05	35.29	32.39	29.88	28.95	33.48	77.64	99.79	42.25	43.04	114.9	1191	1505	74.69	16.68	13.85	12.13	11.55	10.59	10.02	9.279	9.244	9.079	8.803	8.622	8.123	8.375	8.249	8.757	8.721	7.864	7.424	6.677	6.251	5.929	5.251	4.991	4.428	4.133	3.755	3.699	3.362	3.191	2.978	2.726	2.788	2.569	2.422	2.282	2.581	3.208	2.700	1.977	1.445	1.357	1.218	1.314	1.137	1.331	1.431	1.049	0.884	0.914	0.966	1.471	2.345	7.936	41.57	153.8	283.9	145.7	15.10	0.664	0.403	0.402	0.343
575.0	37.00	39.96	32.57	25.04	25.20	23.93	25.46	41.80	98.77	60.39	33.71	50.46	316.6	1703	647.2	16.73	11.50	10.68	9.231	8.582	8.381	7.653	7.403	7.061	6.858	6.842	6.622	6.884	6.121	6.974	6.325	6.358	5.721	5.158	5.010	4.697	4.191	4.103	3.387	3.536	3.070	2.939	2.956	2.662	2.509	2.266	2.233	2.241	1.959	1.766	1.758	2.081	2.736	2.177	1.453	1.155	0.989	1.172	1.068	1.000	1.099	1.417	0.985	0.730	0.687	0.923	1.035	2.255	9.805	34.72	75.71	218.0	229.2	21.43	0.614	0.384	0.403
580.0	37.15	37.70	29.98	24.25	21.35	21.72	22.42	26.94	77.29	80.46	32.42	34.40	92.26	907.5	1441	46.80	9.908	8.691	8.057	7.573	7.154	6.397	6.431	6.081	5.759	5.661	6.026	5.834	5.558	5.680	5.717	5.370	4.866	4.690	4.269	3.611	3.597	3.476	3.200	3.037	2.736	2.512	2.241	2.427	2.062	2.050	1.998	1.814	1.708	1.458	1.474	1.455	2.188	2.306	1.729	1.168	1.042	0.986	0.884	0.808	0.884	1.114	1.227	0.749	0.621	0.648	0.686	0.973	2.630	8.207	17.43	72.02	261.2	179.5	12.54	0.462	0.381
585.0	32.69	41.34	29.79	27.15	20.48	20.77	21.21	21.64	49.88	90.87	36.87	31.04	40.26	300.2	1723	115.1	10.45	7.547	7.320	6.350	5.713	5.928	5.815	4.962	4.745	4.762	4.865	4.985	4.767	4.709	5.111	4.818	3.959	3.934	3.436	3.371	3.056	2.875	2.799	2.496	2.349	2.153	1.996	1.938	1.873	1.769	1.807	1.550	1.519	1.261	1.299	1.125	1.666	1.989	1.754	1.216	0.944	0.792	0.818	0.748	0.699	0.838	1.196	0.862	0.670	0.680	0.650	0.662	1.058	2.274	4.415	16.72	97.36	250.2	121.6	5.924	0.444
590.0	34.21	40.38	31.33	26.56	17.80	17.58	17.84	19.10	30.63	77.90	57.11	26.90	27.77	84.97	875.4	948.9	39.25	6.952	6.225	5.441	5.216	4.911	4.673	4.383	4.087	4.056	4.114	4.262	3.973	4.046	3.955	3.775	3.192	3.219	3.012	2.864	2.404	2.443	2.322	2.199	2.052	1.953	1.717	1.697	1.639	1.489	1.442	1.315	1.276	1.133	1.090	0.968	1.133	1.354	1.668	1.511	1.060	0.807	0.754	0.689	0.688	0.670	0.837	0.934	0.860	0.615	0.593	0.524	0.613	0.939	1.388	4.157	22.41	85.17	166.5	108.9	14.98
595.0	42.14	38.11	30.89	22.74	18.11	16.23	16.81	17.47	20.78	46.27	82.40	31.94	23.89	33.32	227.2	1139	342.4	7.452	5.007	4.718	4.119	4.399	3.782	3.572	3.734	2.980	3.321	3.681	3.376	3.466	3.435	3.063	2.876	2.455	2.466	2.244	2.095	2.055	1.873	1.727	1.571	1.487	1.367	1.374	1.358	1.213	1.169	1.118	1.071	0.994	0.905	0.815	0.916	0.766	1.198	1.580	1.296	0.863	0.679	0.608	0.597	0.560	0.684	0.713	0.923	0.809	0.587	0.477	0.513	0.610	0.710	1.246	5.299	19.36	42.35	120.2	150.1
600.0	45.90	40.18	29.93	23.28	17.99	16.85	15.36	18.01	20.48	32.35	80.49	42.46	24.40	21.17	61.81	633.9	775.7	21.54	4.796	3.699	3.524	3.777	3.424	2.970	2.932	2.778	2.868	2.907	2.869	2.955	3.020	2.663	2.346	2.112	2.090	2.015	1.858	1.681	1.489	1.500	1.284	1.370	1.331	1.197	1.189	1.114	1.005	0.956	1.001	0.816	0.745	0.686	0.679	0.598	0.908	1.310	1.314	0.904	0.638	0.566	0.546	0.545	0.576	0.532	0.758	0.866	0.727	0.502	0.431	0.415	0.468	0.574	1.505	4.611	9.831	36.38	144.0
605.0	34.85	37.53	28.80	22.63	15.32	14.76	13.61	17.66	19.76	25.48	62.69	60.69	23.26	18.41	23.85	212.7	1066	80.29	4.308	3.821	3.235	3.444	2.905	2.870	2.822	2.353	2.437	2.345	2.663	2.480	2.420	2.313	1.965	1.892	2.013	1.680	1.681	1.524	1.426	1.331	1.147	1.232	1.066	1.044	0.953	1.044	0.865	0.870	0.851	0.706	0.652	0.620	0.592	0.604	0.694	0.956	1.300	1.109	0.706	0.516	0.475	0.511	0.551	0.473	0.583	0.727	0.852	0.524	0.427	0.437	0.437	0.412	0.637	1.351	2.482	8.518	48.15
610.0	38.22	36.25	28.59	22.12	14.96	14.38	15.09	17.67	18.67	23.86	41.13	71.99	31.31	18.84	16.75	58.23	599.7	601.1	21.41	3.541	3.217	2.570	2.508	2.417	2.215	2.192	2.176	2.085	2.019	2.154	1.985	1.887	1.635	1.602	1.576	1.383	1.300	1.426	1.202	1.102	0.993	0.941	0.945	0.928	0.859	0.873	0.779	0.733	0.687	0.614	0.587	0.576	0.528	0.515	0.546	0.600	0.926	0.986	0.789	0.535	0.492	0.535	0.483	0.427	0.456	0.526	0.701	0.607	0.508	0.462	0.422	0.366	0.474	0.620	0.789	2.156	11.15
615.0	34.18	33.71	26.18	19.55	13.70	13.09	14.46	17.63	19.23	22.18	29.89	60.87	45.91	20.53	14.67	21.31	158.2	771.2	204.1	3.280	2.648	2.510	2.340	2.271	1.762	1.852	1.870	1.823	1.711	1.763	1.735	1.544	1.379	1.501	1.278	1.184	1.318	1.208	0.915	0.762	0.764	0.784	0.769	0.831	0.826	0.740	0.638	0.575	0.543	0.557	0.512	0.520	0.511	0.425	0.451	0.446	0.596	0.735	0.753	0.692	0.470	0.513	0.454	0.430	0.365	0.388	0.485	0.559	0.594	0.449	0.435	0.345	0.416	0.408	0.487	0.713	2.689
620.0	31.83	31.94	28.82	20.35	14.65	14.24	15.21	16.91	17.40	20.35	26.38	42.61	57.62	22.38	14.01	12.28	42.41	463.1	541.9	9.750	2.615	2.345	1.986	1.894	1.554	1.732	1.398	1.343	1.553	1.536	1.413	1.107	1.127	1.235	1.016	1.071	1.111	1.036	0.877	0.774	0.798	0.840	0.729	0.615	0.753	0.619	0.538	0.515	0.506	0.513	0.463	0.540	0.410	0.432	0.398	0.367	0.503	0.487	0.746	0.623	0.548	0.440	0.444	0.410	0.427	0.414	0.482	0.492	0.565	0.619	0.415	0.312	0.396	0.280	0.421	0.433	0.790
625.0	30.59	32.55	27.28	19.67	15.56	13.31	12.91	17.26	15.86	20.69	24.14	32.48	60.08	28.49	13.52	10.07	14.94	161.1	746.8	55.01	2.570	2.023	1.677	1.751	1.522	1.483	1.396	1.349	1.332	1.379	1.265	1.043	1.145	1.002	0.957	1.063	0.918	0.937	0.788	0.709	0.676	0.697	0.631	0.560	0.568	0.587	0.571	0.544	0.538	0.513	0.415	0.475	0.407	0.394	0.312	0.336	0.387	0.371	0.687	0.615	0.614	0.443	0.362	0.373	0.412	0.390	0.401	0.483	0.516	0.639	0.508	0.363	0.296	0.345	0.361	0.363	0.428
630.0	29.58	33.03	26.05	20.40	13.74	11.74	13.67	15.83	15.64	19.00	21.88	26.67	45.29	38.64	14.80	9.631	8.883	42.07	445.6	398.3	10.72	1.876	1.730	1.546	1.456	1.305	1.158	1.100	1.080	1.159	1.057	1.000	1.003	0.970	0.865	0.857	0.748	0.779	0.711	0.722	0.692	0.586	0.527	0.484	0.499	0.457	0.463	0.451	0.468	0.443	0.373	0.421	0.384	0.365	0.337	0.315	0.317	0.355	0.471	0.493	0.608	0.474	0.334	0.338	0.356	0.388	0.353	0.392	0.414	0.490	0.586	0.374	0.299	0.325	0.288	0.321	0.316
635.0	30.44	33.94	30.87	17.80	12.93	12.05	13.50	14.04	14.91	17.83	21.62	23.26	29.72	44.49	18.99	9.577	7.002	13.18	118.6	570.9	66.00	1.891	1.491	1.319	1.275	1.286	0.993	1.034	1.074	0.884	0.819	0.800	0.871	0.843	0.746	0.696	0.638	0.629	0.560	0.532	0.625	0.567	0.495	0.463	0.465	0.428	0.374	0.373	0.390	0.363	0.388	0.344	0.304	0.321	0.355	0.367	0.357	0.350	0.379	0.397	0.537	0.490	0.376	0.342	0.377	0.358	0.363	0.323	0.392	0.367	0.457	0.473	0.375	0.282	0.324	0.273	0.290
640.0	29.54	35.19	30.48	19.56	11.89	11.54	11.94	12.35	15.76	17.74	20.83	24.36	24.64	39.67	25.82	9.332	6.709	6.977	30.52	374.2	337.6	5.215	1.523	1.261	1.095	1.152	1.018	0.791	0.920	0.914	0.760	0.713	0.795	0.730	0.694	0.622	0.611	0.558	0.615	0.491	0.442	0.439	0.471	0.426	0.376	0.379	0.361	0.447	0.373	0.298	0.324	0.292	0.337	0.304	0.285	0.339	0.311	0.296	0.299	0.385	0.498	0.499	0.383	0.334	0.326	0.351	0.277	0.302	0.274	0.319	0.355	0.452	0.443	0.338	0.349	0.275	0.247
645.0	33.90	35.59	24.02	18.38	10.50	12.44	12.59	12.31	15.08	18.02	20.74	22.67	21.63	30.23	32.46	9.873	6.217	5.134	9.293	138.3	522.9	38.05	1.665	1.224	1.137	0.832	0.863	0.816	0.865	0.919	0.672	0.764	0.737	0.732	0.667	0.623	0.653	0.488	0.512	0.468	0.408	0.384	0.476	0.388	0.358	0.383	0.353	0.353	0.322	0.343	0.270	0.301	0.254	0.240	0.276	0.280	0.309	0.280	0.323	0.365	0.430	0.420	0.384	0.319	0.355	0.355	0.341	0.366	0.302	0.311	0.386	0.321	0.496	0.433	0.297	0.297	0.241
650.0	35.10	36.63	28.43	18.46	11.56	11.52	11.41	13.52	13.36	15.78	20.48	20.57	20.38	21.91	34.12	12.42	6.596	4.395	4.522	37.34	449.8	183.7	1.861	1.356	1.012	0.857	1.041	0.757	0.820	0.688	0.722	0.743	0.609	0.621	0.648	0.489	0.662	0.525	0.431	0.463	0.481	0.429	0.544	0.394	0.370	0.336	0.350	0.338	0.326	0.252	0.252	0.247	0.235	0.240	0.281	0.206	0.236	0.274	0.279	0.345	0.302	0.410	0.408	0.382	0.339	0.333	0.337	0.426	0.420	0.316	0.381	0.338	0.381	0.510	0.347	0.246	0.239
