Sample:	'1
File name:	S2025062006±â×ìºÓÇÅ.FD3
Run date:	'12:35:28, 06/23/2025
Operator:	Administrator
Comment:	'

Instrument
Model:	F-2700 FL Spectrophotometer
Serial number:	23B8-004
ROM Version:	4J14000 07

Instrument parameters
Measurement type:	3-D scan
Data mode:	Fluorescence
EX  Start WL:	220.0 nm
EX  End WL:	600.0 nm
EX Sampling interval:	5.0 nm
EM  Start WL:	230.0 nm
EM  End WL:	650.0 nm
EM Sampling interval:	5.0 nm
Scan speed:	12000 nm/min
EX Slit:	5.0 nm
EM Slit:	5.0 nm
PMT Voltage:	700 V
Response:	Auto 
Corrected spectra:	Off
Contour interval:	50.000

Peak integration
Integration method:	Rectangular
Sensitivity:	1
Threshold:	1.000

Peaks
No.	ApexEX/EM(nm)	Height(Data)
1	225.0/600.0	54.97
2	240.0/265.0	340.0
3	240.0/405.0	1310
4	245.0/270.0	360.1
5	245.0/395.0	1290
6	250.0/275.0	472.6
7	255.0/285.0	479.8
8	255.0/560.0	179.2
9	260.0/290.0	481.1
10	260.0/575.0	136.5
11	265.0/295.0	630.8
12	265.0/585.0	116.8
13	270.0/300.0	882.5
14	270.0/600.0	102.0
15	275.0/305.0	926.1
16	275.0/610.0	83.40
17	280.0/625.0	66.37
18	285.0/320.0	808.1
19	285.0/635.0	47.34
20	290.0/325.0	709.7
21	305.0/345.0	465.7
22	505.0/275.0	2.829
23	505.0/415.0	5.527
24	510.0/280.0	3.037
25	515.0/285.0	3.271
26	530.0/290.0	3.154
27	535.0/270.0	42.06
28	540.0/295.0	4.050
29	545.0/300.0	4.962
30	550.0/305.0	5.213
31	560.0/310.0	4.597
32	570.0/315.0	5.060
33	575.0/320.0	4.619
34	585.0/325.0	4.595

Data points
	220.0	225.0	230.0	235.0	240.0	245.0	250.0	255.0	260.0	265.0	270.0	275.0	280.0	285.0	290.0	295.0	300.0	305.0	310.0	315.0	320.0	325.0	330.0	335.0	340.0	345.0	350.0	355.0	360.0	365.0	370.0	375.0	380.0	385.0	390.0	395.0	400.0	405.0	410.0	415.0	420.0	425.0	430.0	435.0	440.0	445.0	450.0	455.0	460.0	465.0	470.0	475.0	480.0	485.0	490.0	495.0	500.0	505.0	510.0	515.0	520.0	525.0	530.0	535.0	540.0	545.0	550.0	555.0	560.0	565.0	570.0	575.0	580.0	585.0	590.0	595.0	600.0
230.0	101.9	1372	2135	471.8	20.04	8.147	6.818	5.312	5.030	4.279	4.120	3.405	3.337	2.949	2.257	2.061	1.787	1.652	1.423	1.404	1.235	1.169	1.072	0.986	0.972	0.942	0.906	0.804	0.788	0.755	0.757	0.708	0.712	0.619	0.555	0.545	0.531	0.465	0.488	0.459	0.467	0.539	0.494	0.444	0.407	0.508	1.962	6.328	8.342	4.891	1.613	0.531	0.352	0.317	0.356	0.310	0.376	0.364	0.356	0.297	0.332	0.306	0.338	0.295	0.328	0.319	0.325	0.308	0.320	0.331	0.359	0.302	0.330	0.306	0.365	0.334	0.334
235.0	92.59	428.7	1871	2458	483.9	33.70	7.358	7.271	5.163	4.474	4.563	4.218	3.631	2.887	2.336	2.179	2.055	1.790	1.453	1.564	1.436	1.249	1.149	1.040	1.166	0.938	0.932	0.912	0.806	0.772	0.772	0.827	0.653	0.651	0.544	0.596	0.558	0.509	0.520	0.458	0.497	0.486	0.589	0.612	0.502	0.519	0.714	1.934	4.236	7.017	9.272	8.281	3.402	0.835	0.395	0.439	0.323	0.316	0.369	0.277	0.344	0.401	0.360	0.295	0.337	0.304	0.331	0.295	0.364	0.356	0.312	0.318	0.357	0.371	0.398	0.321	0.333
240.0	131.1	158.0	653.0	2701	2598	373.8	17.03	7.963	6.001	4.652	5.019	4.135	3.960	3.063	2.389	2.203	2.050	1.710	1.550	1.612	1.231	1.175	1.127	1.204	1.009	1.016	1.001	0.856	0.846	0.841	0.733	0.788	0.665	0.636	0.646	0.609	0.539	0.515	0.589	0.477	0.470	0.471	0.534	0.524	0.696	0.632	0.562	0.800	1.274	2.335	6.408	13.56	14.93	8.953	2.652	0.546	0.346	0.319	0.393	0.331	0.328	0.337	0.323	0.318	0.311	0.348	0.333	0.386	0.325	0.337	0.338	0.287	0.332	0.428	0.337	0.333	0.325
245.0	128.0	178.7	191.8	1101	3584	2619	259.7	10.88	7.359	5.576	6.123	4.165	3.829	3.513	2.647	2.311	1.990	1.613	1.661	1.704	1.346	1.232	1.194	1.329	1.149	1.083	1.011	0.886	1.052	0.779	0.714	0.724	0.688	0.753	0.632	0.562	0.510	0.490	0.508	0.437	0.524	0.463	0.458	0.467	0.562	0.732	0.723	0.661	0.667	0.747	1.778	5.144	12.61	18.93	16.30	7.636	1.756	0.410	0.323	0.332	0.321	0.335	0.326	0.292	0.412	0.322	0.361	0.372	0.287	0.373	0.396	0.292	0.326	0.355	0.361	0.333	0.331
250.0	67.27	157.4	197.2	315.7	1333	3427	3663	991.8	44.90	7.713	6.438	5.085	4.583	3.386	3.096	2.657	2.070	1.858	1.857	1.566	1.414	1.283	1.198	1.266	1.139	1.043	0.969	0.913	0.954	0.792	0.810	0.813	0.701	0.736	0.564	0.531	0.526	0.530	0.549	0.500	0.529	0.415	0.468	0.486	0.447	0.531	0.587	0.811	0.929	0.708	0.787	1.462	3.398	7.062	12.04	17.55	21.60	16.85	8.551	2.086	0.407	0.394	0.353	0.350	0.401	0.311	0.334	0.342	0.321	0.372	0.344	0.309	0.340	0.396	0.386	0.312	0.361
255.0	45.35	62.46	187.0	276.6	356.0	961.8	3847	5830	1343	39.24	8.621	7.236	5.756	4.787	3.536	2.804	2.389	2.408	1.877	1.626	1.486	1.324	1.309	1.168	1.141	1.154	1.012	0.869	0.980	0.891	0.849	0.756	0.731	0.673	0.714	0.522	0.514	0.560	0.493	0.473	0.523	0.450	0.591	0.438	0.420	0.472	0.440	0.526	0.649	0.935	1.191	1.174	1.184	1.946	2.998	4.605	9.589	22.17	35.25	26.21	12.30	1.915	0.375	0.410	0.371	0.336	0.325	0.390	0.307	0.364	0.339	0.394	0.328	0.385	0.322	0.329	0.369
260.0	36.80	33.94	84.33	267.3	267.8	266.5	1327	5931	6210	250.9	20.18	8.678	6.655	4.934	3.988	2.849	3.223	2.334	1.977	1.821	1.658	1.409	1.483	1.213	1.151	1.159	1.000	0.874	1.029	0.859	0.840	0.773	0.817	0.666	0.686	0.502	0.533	0.542	0.455	0.567	0.550	0.569	0.615	0.492	0.398	0.476	0.378	0.441	0.455	0.594	0.980	1.728	1.567	1.155	1.094	1.427	2.580	6.563	17.48	34.79	44.05	24.08	8.761	0.995	0.421	0.425	0.404	0.352	0.354	0.386	0.347	0.386	0.319	0.359	0.339	0.393	0.380
265.0	39.67	31.10	39.74	159.1	340.0	199.7	352.3	2323	8180	5769	191.6	13.24	8.492	6.154	4.700	3.434	3.143	2.483	2.263	1.921	1.659	1.512	1.366	1.209	1.096	1.105	1.120	1.103	0.979	0.991	0.889	0.929	0.765	0.720	0.600	0.530	0.571	0.566	0.483	0.511	0.478	0.503	0.503	0.464	0.465	0.514	0.427	0.418	0.390	0.487	0.486	1.127	1.710	1.752	1.224	0.801	1.063	1.924	4.607	11.47	28.92	48.31	32.57	20.29	4.545	0.591	0.387	0.422	0.383	0.373	0.358	0.359	0.369	0.391	0.391	0.418	0.398
270.0	50.42	35.14	34.38	67.51	213.3	360.1	270.5	592.7	2895	7517	8002	789.5	42.58	8.823	5.889	4.556	3.643	2.789	2.681	2.054	1.879	1.647	1.460	1.386	1.191	1.245	1.131	0.998	0.994	0.938	0.885	0.862	0.844	0.765	0.689	0.640	0.644	0.634	0.574	0.541	0.523	0.536	0.587	0.526	0.499	0.546	0.422	0.412	0.419	0.397	0.390	0.621	0.912	1.331	1.744	1.912	1.619	1.305	1.576	2.976	7.263	14.92	24.79	42.06	40.65	41.24	14.11	4.618	0.650	0.432	0.388	0.444	0.413	0.451	0.381	0.393	0.404
275.0	66.40	63.68	48.24	43.93	100.8	238.0	472.6	319.9	696.7	1983	7413	9999.9	1071	36.08	9.094	6.204	4.324	3.419	2.969	2.547	2.017	1.645	1.588	1.588	1.590	1.482	1.282	1.084	1.051	1.034	0.931	0.888	0.863	0.899	0.840	0.802	0.745	0.702	0.679	0.529	0.558	0.529	0.617	0.586	0.484	0.593	0.463	0.604	0.527	0.402	0.407	0.510	0.621	0.695	0.885	1.323	2.401	2.829	1.980	1.230	2.196	3.795	6.071	10.19	14.97	37.90	66.86	67.80	21.89	4.322	0.647	0.467	0.459	0.438	0.388	0.393	0.463
280.0	91.99	87.36	68.65	52.48	77.01	138.9	373.1	415.3	270.2	497.7	2265	9999.9	9538	149.4	19.94	8.678	5.394	4.130	3.399	2.818	2.198	2.069	1.942	1.621	1.726	1.466	1.419	1.227	1.119	1.116	1.065	0.970	1.072	0.922	0.857	0.800	0.776	0.763	0.732	0.588	0.572	0.686	0.684	0.664	0.545	0.660	0.569	0.621	0.479	0.473	0.469	0.579	0.594	0.613	0.770	0.923	1.260	2.339	3.037	2.482	1.389	1.390	1.929	2.821	3.906	9.929	26.10	59.02	78.56	32.41	16.58	1.819	0.527	0.503	0.414	0.491	0.426
285.0	133.1	122.8	109.0	73.02	73.38	108.9	189.9	479.8	334.0	200.8	593.8	3410	9999.9	7323	113.6	13.42	7.573	5.525	4.380	3.144	2.711	2.288	1.844	1.836	1.605	1.345	1.270	1.288	1.211	1.118	1.151	0.996	1.040	0.883	0.947	0.916	0.868	0.837	0.680	0.671	0.618	0.662	0.690	0.690	0.660	0.763	0.692	0.613	0.655	0.501	0.541	0.510	0.617	0.639	0.652	0.759	0.915	1.283	1.729	3.271	3.021	1.682	1.174	1.371	1.461	2.885	6.569	16.21	37.26	66.31	81.21	27.93	10.25	0.992	0.529	0.491	0.466
290.0	203.9	210.7	175.5	109.2	89.20	102.9	129.4	244.8	481.1	430.9	293.2	918.2	3389	9378	8850	453.2	30.44	7.767	5.302	4.042	3.282	2.663	2.204	1.954	1.809	1.596	1.529	1.391	1.288	1.232	1.154	1.037	1.023	1.089	1.042	0.953	0.979	0.887	0.785	0.749	0.755	0.723	0.741	0.779	0.753	0.842	0.858	0.812	0.802	0.680	0.661	0.663	0.661	0.695	0.713	0.669	0.825	0.908	1.034	1.597	2.190	2.863	3.154	2.355	1.655	1.653	2.488	4.601	9.377	18.28	35.30	48.44	62.96	52.63	19.23	8.555	1.339
295.0	252.1	296.9	244.0	162.5	113.0	117.8	127.6	165.7	280.3	630.8	606.7	460.1	956.3	2369	6846	9999.9	670.1	27.43	8.210	5.003	4.062	3.122	2.709	2.299	2.161	1.769	1.751	1.413	1.461	1.469	1.185	1.080	1.072	1.176	1.060	1.041	1.176	1.056	0.859	0.907	0.964	0.809	0.832	0.849	0.966	1.037	0.933	1.013	1.067	0.835	0.860	0.807	0.842	0.840	0.780	0.777	0.812	0.867	0.999	1.073	1.283	1.547	2.389	3.848	4.050	2.835	2.038	2.511	3.440	5.203	8.995	11.86	17.07	31.30	63.97	82.90	30.69
300.0	317.2	364.7	308.2	209.7	148.6	135.8	145.5	178.6	242.7	464.6	882.5	580.6	478.9	714.5	1929	8892	5979	497.5	15.00	6.504	5.087	3.695	3.154	2.523	2.431	1.971	1.720	1.694	1.633	1.410	1.439	1.134	1.281	1.298	1.098	1.126	1.082	1.059	0.994	0.886	0.956	0.963	0.902	0.823	1.064	1.127	1.142	1.127	1.142	1.027	0.987	1.005	0.947	0.882	0.792	0.873	0.947	1.062	1.233	1.103	1.305	1.314	1.649	2.588	4.024	4.962	4.043	2.747	2.418	2.742	3.224	3.775	4.863	8.219	19.87	49.06	78.47
305.0	349.0	414.5	367.4	248.3	176.8	161.9	175.7	219.5	273.2	396.9	743.1	926.1	501.8	387.1	573.4	2710	9585	5067	75.07	9.490	6.467	4.596	3.079	2.864	2.494	2.169	1.971	1.725	1.528	1.388	1.275	1.167	1.154	1.370	1.248	1.169	1.073	1.053	1.127	0.940	0.963	0.924	1.031	0.981	1.064	1.198	1.099	1.345	1.289	1.046	1.008	1.069	0.985	1.061	0.971	0.925	1.194	1.155	1.265	1.254	1.564	1.360	1.837	2.113	2.795	3.690	5.213	4.775	3.392	2.591	2.343	2.273	2.220	2.902	5.353	12.53	28.22
310.0	389.2	458.7	402.2	285.6	204.4	191.1	212.4	253.5	320.4	413.2	579.8	841.0	838.1	461.9	309.1	709.0	2839	6847	6748	1469	22.89	6.145	4.512	3.636	2.961	2.331	2.208	1.752	1.705	1.536	1.506	1.228	1.334	1.244	1.227	1.139	1.166	1.111	1.143	1.000	0.976	0.980	1.057	1.077	1.183	1.367	1.285	1.472	1.475	1.194	1.026	1.218	1.060	0.997	1.034	1.042	1.154	1.248	1.349	1.480	1.705	1.683	2.043	2.320	2.513	2.740	3.591	4.324	4.597	4.571	3.538	2.517	1.991	1.995	2.279	3.638	7.096
315.0	410.2	481.3	449.5	322.0	232.9	224.0	242.9	295.5	362.0	457.7	566.2	666.4	803.7	775.6	348.6	289.1	707.3	1634	4776	9219	506.6	23.70	6.439	4.495	3.472	2.736	2.511	1.937	1.947	1.695	1.671	1.302	1.339	1.331	1.269	1.048	1.109	1.088	1.004	0.962	1.004	1.142	1.105	1.154	1.264	1.367	1.492	1.665	1.626	1.259	1.220	1.289	1.220	1.169	1.172	1.171	1.219	1.304	1.478	1.584	1.839	1.886	2.136	2.423	2.683	2.905	3.062	3.463	3.578	3.974	5.060	4.584	3.102	2.338	1.622	1.963	2.551
320.0	453.2	541.9	484.3	355.5	271.9	250.1	272.9	325.9	402.9	492.0	587.5	655.4	679.0	808.1	561.2	237.6	246.7	422.8	1258	6570	7798	408.2	12.47	5.605	4.262	3.449	2.786	2.264	2.086	1.614	1.777	1.387	1.359	1.399	1.285	1.184	1.267	1.186	1.033	0.971	0.917	1.138	0.991	1.224	1.274	1.455	1.484	1.718	1.678	1.434	1.406	1.459	1.291	1.246	1.244	1.238	1.438	1.485	1.618	1.734	2.034	2.031	2.347	2.586	2.621	2.929	2.981	3.200	3.364	3.472	3.608	4.619	4.530	3.611	2.113	1.722	1.657
325.0	517.4	593.0	555.3	414.3	306.4	283.7	306.2	362.4	439.1	539.2	619.1	678.2	661.8	665.7	709.7	350.2	174.3	169.8	330.6	1861	7470	3964	60.05	9.061	4.979	4.103	3.085	2.557	2.171	2.024	2.024	1.511	1.426	1.292	1.223	1.323	1.197	1.314	1.079	1.157	0.960	1.083	1.071	1.324	1.401	1.610	1.615	2.035	1.854	1.606	1.299	1.567	1.376	1.287	1.387	1.447	1.458	1.613	1.879	1.979	2.119	2.236	2.449	2.742	2.894	3.262	3.265	3.233	3.667	3.373	3.297	3.621	3.967	4.595	3.585	2.460	1.685
330.0	559.3	664.0	656.2	503.0	392.9	351.2	375.1	422.1	498.0	588.3	673.4	717.9	694.5	626.1	588.2	531.6	296.9	151.1	146.3	467.9	2113	5026	5360	1307	20.67	5.681	3.798	3.268	2.496	2.296	2.006	1.707	1.536	1.386	1.373	1.298	1.225	1.275	1.111	1.118	1.198	1.061	1.030	1.264	1.500	1.746	1.815	2.263	2.198	1.810	1.651	1.870	1.770	1.719	1.718	1.709	1.802	1.856	1.989	2.087	2.320	2.375	2.687	2.899	3.138	3.246	3.308	3.339	3.600	3.522	3.551	3.273	3.250	3.478	3.648	3.697	3.048
335.0	592.9	738.9	768.7	618.8	497.9	465.8	472.3	502.5	556.1	646.3	720.3	759.2	735.4	653.5	540.6	457.2	484.6	265.6	145.9	185.3	528.9	1199	3640	7701	436.8	22.49	5.606	4.185	3.493	2.475	2.089	1.941	1.734	1.539	1.538	1.279	1.352	1.170	1.233	1.140	1.231	1.096	1.190	1.378	1.469	1.847	2.090	2.268	2.389	2.083	2.001	2.018	2.200	2.022	2.111	2.126	2.079	2.256	2.448	2.460	2.604	2.773	2.825	2.981	3.278	3.387	3.632	3.518	3.700	3.806	3.519	3.537	3.158	3.262	2.973	2.954	3.288
340.0	639.6	798.3	848.0	694.1	598.9	556.7	550.7	568.5	605.9	673.9	743.5	787.3	762.3	682.8	550.4	429.4	454.7	424.1	203.8	148.7	197.8	325.2	968.3	5333	6679	373.2	12.35	4.731	4.176	2.975	2.428	2.034	1.854	1.521	1.511	1.287	1.489	1.173	1.124	1.209	1.137	1.181	1.388	1.482	1.656	1.894	2.101	2.555	2.465	2.288	2.193	2.289	2.314	2.374	2.592	2.338	2.447	2.539	2.786	2.695	2.783	3.018	3.149	3.260	3.350	3.487	3.526	3.560	3.682	3.804	3.653	3.886	3.461	3.169	2.881	2.749	2.782
345.0	703.6	840.9	894.4	776.0	683.3	643.7	628.6	620.9	656.9	711.7	763.8	797.3	786.1	707.2	588.3	443.8	396.6	465.7	340.8	180.2	153.8	157.4	278.5	1516	6221	3401	54.15	7.763	4.953	3.659	2.712	2.165	1.847	1.705	1.586	1.351	1.370	1.176	1.264	1.271	1.199	1.219	1.384	1.507	1.722	2.026	2.162	2.600	2.593	2.446	2.489	2.780	2.735	2.741	2.762	2.710	2.894	2.811	2.988	2.686	3.106	3.225	3.284	3.507	3.690	3.540	3.658	3.553	3.833	3.785	3.610	3.851	3.525	3.346	3.158	2.671	2.651
350.0	697.2	882.9	926.8	860.6	831.1	770.4	743.9	717.3	727.3	769.5	792.1	816.9	807.2	731.9	621.0	495.7	422.0	412.0	441.7	331.6	209.6	167.1	163.6	412.3	1768	4160	4476	1152	18.89	4.840	3.433	2.391	2.119	1.812	1.606	1.492	1.327	1.388	1.263	1.159	1.240	1.221	1.381	1.527	1.626	2.150	2.320	2.618	2.729	2.537	2.592	3.062	2.972	3.065	2.983	2.925	3.333	3.253	3.310	3.180	3.263	3.445	3.525	3.818	3.721	3.611	3.669	3.792	3.990	3.804	3.888	3.808	3.508	3.544	3.353	3.061	2.985
355.0	694.7	887.4	975.2	949.0	919.1	885.8	853.7	822.8	808.7	828.3	845.6	847.3	827.3	766.9	666.8	553.0	481.8	438.1	424.9	465.3	352.6	231.3	186.8	205.7	474.1	1012	3029	6230	398.6	20.85	4.922	3.141	2.409	2.053	1.682	1.546	1.344	1.253	1.301	1.216	1.338	1.134	1.289	1.481	1.806	2.034	2.258	2.732	2.935	2.656	2.688	3.212	3.449	3.297	3.292	3.385	3.989	3.734	3.695	3.578	3.585	3.790	3.753	3.954	3.792	3.838	3.673	3.887	3.885	3.986	3.980	3.846	3.935	3.871	3.766	3.432	3.385
360.0	711.8	903.2	1025	1007	987.2	977.2	937.4	894.2	880.5	861.4	874.1	873.7	848.4	790.1	699.6	596.0	527.2	480.8	446.0	465.0	476.5	320.5	230.9	191.1	212.5	299.5	816.8	4393	5679	350.5	11.67	4.305	3.137	2.428	1.975	1.500	1.570	1.391	1.482	1.334	1.190	1.306	1.223	1.558	1.964	2.151	2.352	2.759	2.914	2.722	2.850	3.348	3.532	3.639	3.497	3.730	3.879	4.112	4.018	3.830	3.972	4.172	4.118	4.007	3.855	3.713	3.663	3.999	3.978	4.323	4.080	4.110	4.266	4.024	3.665	3.493	3.794
365.0	715.9	948.1	1038	1072	1048	1040	1005	954.4	936.8	910.4	918.6	887.0	858.8	815.8	734.5	638.2	579.5	530.4	493.9	466.7	507.1	440.6	291.6	222.4	182.9	163.6	249.4	1279	5425	3181	50.21	7.037	3.894	3.010	2.355	1.639	1.657	1.503	1.405	1.325	1.221	1.305	1.359	1.470	1.832	2.125	2.581	2.832	2.929	2.837	3.028	3.581	3.852	3.907	3.836	4.104	4.309	4.431	4.247	4.204	4.000	4.345	4.206	4.369	4.164	4.159	4.097	4.399	4.196	4.247	4.174	4.092	4.258	4.344	4.023	3.845	4.100
370.0	756.6	952.2	1094	1103	1120	1111	1081	1027	988.2	974.3	959.7	932.9	896.6	836.2	771.6	692.3	640.7	597.5	557.6	516.9	505.8	510.8	431.5	299.7	227.4	174.6	155.7	354.5	1557	3882	4141	1040	16.63	4.025	2.691	2.078	1.949	1.646	1.423	1.426	1.173	1.352	1.445	1.622	1.906	2.198	2.485	2.856	3.100	3.011	3.070	3.901	4.033	4.235	4.364	4.406	4.540	4.622	4.672	4.458	4.439	4.495	4.322	4.680	4.535	4.416	4.182	4.426	4.179	4.497	4.295	4.545	4.322	4.440	4.442	4.187	4.395
375.0	745.5	977.1	1090	1139	1195	1191	1161	1079	1048	1021	1009	971.2	927.7	876.4	816.6	736.8	688.5	657.5	625.1	584.9	545.4	516.7	522.1	431.8	294.4	222.9	173.1	177.2	416.1	945.8	2914	5566	344.7	17.44	3.888	2.550	2.279	1.890	1.715	1.554	1.410	1.415	1.416	1.595	1.884	2.212	2.506	3.163	3.182	2.961	3.178	3.914	4.102	4.451	4.500	4.409	4.593	4.828	4.616	4.375	4.756	4.656	4.545	4.529	4.636	4.420	4.495	4.721	4.578	4.448	4.616	4.509	4.435	4.655	4.482	4.438	4.488
380.0	755.5	971.0	1095	1171	1218	1219	1180	1121	1084	1068	1027	1006	953.7	902.0	833.8	760.2	725.5	701.0	664.0	632.9	588.2	539.7	525.6	518.2	376.7	272.5	207.1	165.1	182.5	272.3	794.5	4091	4692	283.7	8.748	3.623	2.664	2.067	1.818	1.533	1.493	1.390	1.475	1.665	1.918	2.286	2.410	3.111	3.032	3.092	3.201	4.159	4.215	4.555	4.951	4.380	4.875	4.801	5.097	4.584	4.704	4.590	5.148	4.676	4.866	4.480	4.598	4.641	4.593	4.619	4.483	4.844	4.626	4.815	4.457	4.644	4.535
385.0	749.3	979.8	1149	1203	1246	1259	1210	1169	1119	1084	1056	1035	966.0	915.2	843.7	786.8	753.5	729.3	702.0	665.4	626.3	576.4	537.7	531.7	469.3	328.6	245.7	192.2	153.4	140.1	230.7	1199	4518	2630	40.08	5.423	3.385	2.543	1.990	1.693	1.459	1.556	1.482	1.870	1.984	2.209	2.572	3.092	3.027	2.954	3.217	4.318	4.255	4.645	4.647	4.728	5.064	4.974	5.152	4.794	4.952	4.787	4.896	4.888	4.705	4.778	4.864	4.834	4.615	4.646	4.585	4.716	4.790	4.911	4.647	4.888	4.449
390.0	801.7	980.7	1161	1232	1266	1270	1240	1192	1150	1122	1085	1046	987.4	932.5	866.7	804.1	778.0	758.2	733.2	701.4	662.0	614.6	570.1	530.0	512.0	435.9	312.6	240.7	186.1	144.2	130.3	320.7	1315	3095	3114	773.9	13.60	3.527	2.362	1.853	1.611	1.703	1.688	1.821	1.954	2.335	2.608	3.051	3.236	3.259	3.326	4.210	4.435	4.771	4.754	4.796	5.369	5.077	5.355	5.034	5.111	5.110	4.994	5.121	4.854	4.884	4.833	4.866	4.801	4.609	4.822	4.816	4.793	4.952	4.769	4.936	4.825
395.0	785.6	980.3	1154	1258	1284	1290	1242	1224	1166	1161	1120	1057	1006	952.5	881.8	824.8	791.0	782.2	758.5	730.6	697.8	654.3	608.1	562.6	517.2	493.2	413.4	301.8	238.2	182.7	138.7	147.2	344.4	755.4	2301	4069	284.0	13.45	3.588	2.444	1.982	1.815	1.762	1.742	2.070	2.212	2.633	3.018	3.266	3.199	3.316	3.993	4.427	4.858	4.975	4.694	5.390	5.021	5.179	5.265	5.269	5.068	5.165	5.231	5.001	4.922	4.818	5.105	4.780	4.728	5.002	4.919	5.089	5.148	5.026	4.926	4.866
400.0	793.2	988.4	1163	1261	1275	1289	1273	1237	1187	1169	1144	1070	1023	957.5	886.8	831.5	810.5	793.5	769.4	739.2	714.7	676.7	631.6	584.1	531.0	498.1	472.5	367.9	277.4	218.2	162.5	126.8	142.4	213.1	642.5	3108	3384	229.4	7.091	3.085	2.260	2.025	1.976	2.065	2.102	2.397	2.549	3.107	3.284	3.281	3.418	4.051	4.593	4.838	5.123	5.013	5.429	5.151	5.047	5.416	5.625	5.215	5.168	4.943	5.176	5.098	4.668	5.110	4.905	4.931	5.044	5.000	5.238	4.749	5.145	5.204	5.061
405.0	772.6	1001	1161	1249	1310	1281	1276	1247	1208	1169	1130	1083	1026	963.0	891.3	834.7	807.4	791.4	774.6	752.1	726.0	685.9	652.6	603.7	551.6	499.1	481.7	435.3	325.1	248.0	191.5	141.5	113.2	102.8	181.2	930.4	3407	2176	34.89	4.505	2.870	2.394	2.019	2.080	2.252	2.555	2.705	2.958	3.220	3.171	3.588	4.592	4.496	4.942	5.008	4.864	5.182	5.414	5.332	5.388	5.477	5.411	5.384	5.337	5.274	5.308	4.882	4.971	4.806	4.682	4.847	4.622	4.982	4.844	4.963	5.126	5.444
410.0	754.4	1001	1142	1231	1278	1273	1276	1245	1224	1180	1133	1082	1022	951.7	882.6	824.9	802.4	787.2	770.2	751.6	726.0	693.6	662.5	619.3	574.5	521.5	478.1	461.2	400.3	301.4	228.6	171.2	128.7	96.71	91.63	243.9	1002	2406	2421	614.7	11.65	3.052	2.391	2.203	2.249	2.407	2.609	2.968	3.190	3.043	3.499	4.465	4.401	4.958	4.758	4.787	5.201	5.266	5.280	5.498	5.500	5.297	5.221	5.429	5.273	5.233	4.962	4.827	4.738	4.749	5.055	4.888	4.923	4.876	4.930	5.027	5.256
415.0	769.3	991.6	1149	1194	1247	1249	1271	1235	1220	1178	1135	1081	1012	948.5	866.6	807.3	783.0	771.7	753.7	735.9	717.4	689.3	665.1	629.6	589.8	538.6	490.9	455.4	432.6	376.9	272.2	205.0	153.7	114.2	86.49	101.6	255.4	586.7	1770	2985	253.9	11.32	3.195	2.457	2.420	2.541	2.552	2.928	3.227	3.130	3.460	4.279	4.108	4.688	4.647	5.014	5.113	5.527	5.125	5.431	5.344	5.436	5.158	5.453	5.107	5.263	5.046	4.723	4.480	4.828	4.858	5.053	4.964	4.854	4.753	5.068	4.762
420.0	719.4	944.1	1125	1204	1227	1231	1242	1222	1207	1173	1122	1063	991.9	921.9	850.5	790.0	762.6	748.4	736.4	722.8	704.9	682.5	656.3	627.2	588.6	547.9	499.9	458.6	425.4	406.9	314.3	229.6	174.8	129.8	95.76	78.31	95.31	157.2	489.8	2285	2131	204.2	5.912	2.915	2.730	2.582	2.870	3.100	3.258	3.127	3.376	4.088	4.091	4.620	4.371	4.763	5.030	5.262	5.089	5.079	5.111	5.152	5.123	5.343	5.092	5.137	4.864	4.810	4.749	4.703	4.757	4.794	4.735	4.554	4.917	4.790	4.960
425.0	690.4	897.0	1099	1176	1215	1225	1217	1205	1195	1160	1116	1045	971.4	903.9	835.1	772.7	746.6	726.5	717.1	704.2	687.0	671.4	644.8	623.3	585.9	551.0	503.9	465.1	426.6	404.2	353.9	256.1	191.1	145.8	107.7	82.66	67.88	67.27	132.5	688.7	2450	1883	32.73	4.498	3.116	2.819	2.924	3.058	3.266	3.089	3.357	4.039	4.243	4.499	4.488	4.604	5.137	5.174	5.195	5.132	5.053	5.404	5.118	5.359	4.926	5.043	4.930	4.691	5.014	4.870	4.869	4.694	4.433	4.610	4.872	4.857	4.926
430.0	769.3	892.1	1077	1124	1176	1191	1196	1200	1181	1154	1108	1033	949.4	881.5	807.4	750.1	719.2	698.9	689.2	684.1	669.9	654.3	633.2	613.1	583.0	548.2	509.0	471.5	433.3	395.8	361.4	302.8	221.5	166.7	126.8	97.10	73.53	57.46	60.15	175.8	719.9	1833	1945	518.7	11.30	3.586	2.999	3.230	3.263	3.053	3.319	4.031	4.064	4.434	4.420	4.562	4.863	5.114	5.164	5.132	5.102	5.254	5.196	5.311	5.009	5.064	4.805	4.687	4.609	4.777	4.601	4.449	4.421	4.491	4.498	4.477	4.858
435.0	1038	856.0	1016	1095	1116	1160	1155	1191	1171	1143	1105	1024	934.1	848.1	780.4	720.4	692.1	672.7	666.3	654.0	647.7	631.4	617.3	599.9	569.6	543.0	508.7	476.8	442.4	401.9	354.6	321.3	265.9	192.6	145.8	113.9	87.69	66.87	52.68	68.78	182.3	443.5	1357	2504	239.4	12.46	3.716	3.377	3.506	3.107	3.141	3.797	4.243	4.229	4.300	4.326	4.807	5.035	5.245	5.146	5.038	5.224	5.273	5.352	5.268	4.852	4.825	4.715	4.540	4.665	4.698	4.509	4.077	4.340	4.159	4.249	4.631
440.0	1335	918.8	990.2	1076	1096	1117	1141	1163	1153	1130	1090	1007	924.2	832.4	758.6	700.2	667.7	655.8	649.1	631.3	624.5	608.8	601.9	589.9	562.3	534.4	505.6	475.5	442.4	406.0	358.2	313.6	284.2	219.3	161.6	126.3	99.46	76.36	57.82	48.93	66.17	118.8	372.5	1892	1963	197.3	6.703	3.888	3.439	3.084	3.087	3.872	4.061	4.258	4.516	4.047	4.715	4.763	5.003	5.164	4.990	5.111	5.105	5.193	4.973	4.956	4.847	4.647	4.459	4.527	4.171	4.302	4.324	4.486	4.013	3.979	4.455
445.0	1558	1130	943.2	1030	1088	1101	1110	1126	1125	1109	1057	980.1	898.9	810.7	735.3	679.4	649.0	632.5	619.8	607.4	601.4	591.9	585.5	563.8	546.9	523.9	497.7	468.6	437.6	407.5	363.0	310.8	281.4	244.5	178.8	135.8	106.9	85.36	65.93	51.51	45.70	49.85	101.0	567.3	2117	1736	28.56	5.144	3.804	3.117	3.290	3.987	4.174	3.991	4.271	4.190	4.704	4.830	5.060	4.963	4.931	5.178	5.061	4.915	4.950	5.038	4.474	4.493	4.479	4.276	4.030	4.302	4.168	4.029	4.172	3.897	4.300
450.0	1215	1788	1027	976.1	1024	1046	1064	1094	1079	1067	1023	946.6	866.1	770.4	700.3	644.1	610.9	596.2	581.8	571.1	566.5	555.9	549.3	535.9	519.4	501.1	475.5	451.5	428.7	399.0	360.2	307.4	266.7	242.9	204.0	153.0	118.6	95.80	75.70	59.65	48.44	40.29	45.49	144.6	615.9	1615	1742	485.1	10.68	3.715	3.400	3.857	3.872	3.916	4.273	3.956	4.621	4.756	4.713	4.795	4.851	5.003	4.825	4.786	4.664	4.824	4.427	4.326	4.410	4.216	4.055	4.084	3.864	4.073	3.964	3.844	4.077
455.0	749.1	1926	1572	911.7	935.8	982.5	980.7	1029	1018	1019	969.5	896.5	813.4	720.2	655.5	599.7	566.5	546.2	537.3	529.9	519.7	512.8	509.5	499.3	486.4	469.2	447.2	425.6	413.0	384.0	349.4	303.5	261.0	226.3	208.3	174.9	131.4	104.9	84.38	68.04	53.89	44.08	37.36	53.58	153.4	387.2	1070	2080	198.7	11.69	3.806	4.336	3.977	3.657	3.954	3.851	4.337	4.530	4.404	4.466	4.589	4.626	4.502	4.783	4.541	4.298	3.968	4.005	3.895	3.831	3.991	3.724	3.662	3.985	3.548	3.804	3.777
460.0	535.5	1510	2274	958.5	878.7	931.6	931.7	969.8	972.6	963.2	928.7	857.3	777.5	691.0	612.0	567.3	532.2	511.6	503.7	495.6	483.9	479.4	476.5	468.1	458.6	440.1	423.3	406.8	392.9	366.9	335.7	294.8	255.2	220.7	196.2	180.0	145.6	109.9	88.88	73.51	59.12	48.18	38.62	35.28	52.71	100.8	281.9	1413	1613	158.3	7.615	4.317	3.995	3.809	3.597	3.820	4.263	4.514	4.386	4.375	4.362	4.415	4.365	4.403	4.315	4.166	3.903	3.946	3.658	3.839	3.811	3.772	3.521	3.758	3.598	3.673	3.547
465.0	483.2	987.1	2580	1386	849.9	875.0	892.4	916.1	923.4	910.3	879.8	807.1	737.1	657.6	579.7	536.1	498.8	482.6	470.8	460.6	457.3	446.0	446.2	435.3	426.7	413.4	400.9	384.6	373.1	349.9	322.6	286.3	250.1	217.0	184.2	173.3	153.9	116.6	92.75	76.60	62.95	51.50	40.36	34.41	32.53	39.19	76.15	401.1	1579	1336	128.5	6.025	4.194	3.697	3.844	3.797	4.226	4.200	4.093	4.091	4.395	4.295	4.380	4.242	3.985	4.203	3.850	3.756	3.754	3.541	3.461	3.473	3.301	3.608	3.368	3.426	3.370
470.0	456.2	663.4	1842	2315	938.0	796.9	817.5	844.1	859.1	836.2	816.3	750.9	678.3	601.0	532.1	485.7	456.2	436.9	427.9	415.0	411.6	402.8	403.2	396.2	386.3	373.5	363.7	352.2	341.9	323.8	300.9	268.0	235.5	203.9	176.3	158.1	147.7	126.1	98.34	79.75	66.56	55.60	44.92	36.71	31.16	27.68	32.11	101.7	440.0	1100	1270	445.6	12.11	4.020	3.767	3.631	3.831	3.914	3.811	3.805	3.967	4.146	3.887	3.992	3.829	3.763	3.713	3.617	3.585	3.371	3.303	3.179	3.238	3.336	3.084	3.096	3.236
475.0	453.0	523.2	967.4	2510	1635	725.2	741.1	765.8	779.2	765.9	752.0	691.9	618.2	548.9	485.9	436.6	403.1	392.3	381.3	372.0	366.0	360.1	358.1	354.0	346.0	337.2	325.3	320.0	312.0	296.5	277.0	247.8	220.1	191.5	167.4	148.8	132.7	124.1	106.2	83.63	67.48	56.83	47.08	40.24	33.61	27.23	23.97	36.70	108.6	258.2	619.2	1405	206.4	14.92	3.925	3.380	3.441	3.515	3.647	3.591	3.558	3.759	3.744	3.689	3.585	3.265	3.206	3.165	3.275	3.047	2.863	2.837	2.963	2.807	2.769	2.891	2.801
480.0	422.7	485.2	661.6	1790	2474	785.0	696.3	715.5	725.5	727.4	710.0	646.4	580.0	511.7	450.0	409.3	376.9	366.6	351.2	344.0	337.2	325.5	329.1	322.6	318.1	311.8	299.3	296.3	290.6	279.8	259.3	234.7	208.7	184.8	162.1	142.1	127.2	116.6	108.4	89.49	69.99	59.02	50.33	42.61	35.40	28.73	24.05	23.29	36.38	67.14	156.5	771.2	1313	195.3	9.283	3.735	3.472	3.480	3.470	3.413	3.196	3.488	3.553	3.381	3.308	3.163	3.286	3.148	2.981	2.925	2.962	2.814	2.811	2.804	2.782	2.513	2.654
485.0	390.4	479.6	561.8	1073	2800	1247	666.5	669.9	678.0	691.2	659.0	613.4	547.3	490.2	423.4	387.2	356.4	343.7	330.3	321.8	315.1	309.9	303.4	298.4	298.3	289.8	281.9	277.3	272.6	261.0	245.8	225.1	199.9	176.1	156.7	139.6	123.6	110.8	103.0	94.31	75.58	61.89	50.92	43.95	36.99	30.55	25.97	21.53	21.34	25.84	43.98	206.2	979.6	1231	153.0	5.727	3.678	3.406	3.262	3.407	3.283	3.317	3.171	3.421	3.217	3.051	2.964	3.051	2.788	3.012	3.043	2.675	2.445	2.499	2.591	2.360	2.535
490.0	330.9	466.3	502.6	657.0	1894	2330	785.9	628.5	629.6	634.6	610.5	568.2	508.3	449.3	395.3	356.7	331.7	313.3	303.5	293.1	287.3	283.5	278.3	275.3	269.8	264.6	256.4	253.7	251.0	241.8	229.3	210.4	188.5	166.0	149.0	133.6	119.2	104.8	95.38	91.12	80.97	64.55	52.79	46.12	38.88	33.24	28.08	22.99	19.86	17.58	19.87	54.46	255.9	744.2	1078	463.8	14.51	3.868	3.324	3.198	3.229	3.091	3.149	3.052	2.971	3.043	2.991	2.787	2.696	2.732	2.697	2.638	2.478	2.354	2.349	2.369	2.586
495.0	273.6	430.5	491.9	523.0	906.2	2538	1568	579.6	583.1	578.9	560.8	518.3	469.4	414.4	365.0	327.7	297.5	285.6	273.9	263.3	259.9	251.9	249.4	246.1	241.6	237.7	235.0	228.8	227.8	220.2	209.4	192.5	173.0	153.3	141.4	125.1	111.5	100.6	90.01	82.00	79.07	69.94	55.62	47.18	40.67	34.74	29.99	24.81	20.56	17.68	15.34	21.57	64.68	174.0	471.7	1254	667.3	19.29	3.396	3.242	2.936	2.925	3.185	2.864	2.998	2.689	2.636	2.537	2.469	2.563	2.456	2.435	2.095	2.190	2.122	2.223	2.264
500.0	254.4	370.7	481.4	462.1	552.4	1779	2530	647.2	540.6	535.8	522.1	481.2	434.9	384.1	338.0	298.9	273.7	263.2	250.9	242.4	236.7	231.9	226.9	225.1	223.4	214.3	214.5	209.3	207.3	203.2	191.3	180.0	161.3	145.5	131.3	119.0	106.6	95.93	84.84	76.59	72.83	69.73	58.43	47.43	40.78	34.51	30.36	25.73	22.30	18.38	14.80	14.68	22.63	45.90	116.1	599.0	1340	227.8	12.94	3.468	2.941	2.802	2.963	2.597	2.958	2.540	2.564	2.482	2.378	2.232	2.291	2.288	1.969	2.216	2.028	2.066	2.038
505.0	243.3	331.0	439.9	438.7	440.5	978.9	2913	1078	502.8	487.8	484.5	443.5	398.8	359.5	314.6	274.9	248.2	240.8	232.7	220.9	216.1	212.5	206.8	207.1	203.6	199.2	195.0	194.1	193.9	189.5	176.6	166.2	149.5	136.1	122.8	109.9	100.8	90.63	81.47	73.22	67.65	65.03	60.45	48.72	41.04	35.65	30.69	26.14	22.65	19.02	15.61	13.67	13.72	18.04	32.16	150.9	764.5	1175	194.0	6.994	3.048	2.965	2.765	2.700	2.499	2.529	2.206	2.310	2.175	2.258	2.068	2.218	2.071	1.943	1.861	1.959	2.077
510.0	218.1	283.9	374.7	424.6	393.0	528.0	1910	2304	600.4	441.5	432.5	399.5	360.9	316.0	278.4	246.9	226.6	214.1	205.6	195.9	192.7	186.6	184.2	180.7	179.9	178.0	173.1	170.7	169.4	166.5	158.9	146.5	134.5	122.0	110.3	100.9	92.39	83.02	75.37	68.23	61.85	56.78	55.55	51.29	41.73	35.09	30.57	26.12	22.57	19.33	16.42	14.25	11.97	11.98	14.08	39.54	189.7	589.5	894.5	409.3	15.59	3.116	2.762	2.556	2.431	2.248	2.253	2.180	2.076	2.000	2.033	1.990	1.755	1.841	1.864	1.683	1.894
515.0	196.6	247.2	309.6	390.9	361.7	378.4	805.2	2640	1381	405.0	388.2	357.8	320.2	277.8	250.0	218.0	200.9	188.4	181.4	168.9	167.5	164.1	161.1	157.2	155.9	154.4	150.1	147.5	149.7	146.1	139.0	128.4	118.7	109.8	98.75	90.20	83.21	75.94	68.13	62.81	56.09	51.93	48.67	47.42	43.50	35.04	29.56	25.39	22.29	19.06	16.53	14.29	12.33	11.18	10.44	15.12	47.74	136.4	306.4	893.0	594.0	21.33	2.945	2.399	2.438	2.071	2.099	1.914	1.791	1.875	1.741	1.694	1.641	1.766	1.542	1.544	1.615
520.0	175.3	224.3	265.5	351.7	362.5	328.1	434.8	1832	2430	481.5	350.0	329.9	291.7	256.8	226.2	197.4	183.9	174.2	160.8	154.9	151.2	147.0	142.9	141.9	141.5	136.0	134.9	133.8	132.7	131.1	125.8	118.1	109.2	99.52	89.94	83.59	75.70	70.35	63.43	57.99	52.85	48.27	44.71	42.56	43.55	36.41	29.28	25.05	22.04	18.69	16.60	14.72	12.59	11.11	9.647	9.738	16.41	35.51	74.11	369.2	958.1	235.3	14.82	2.658	2.282	1.948	1.927	1.819	1.768	1.619	1.864	1.626	1.682	1.544	1.356	1.473	1.465
525.0	153.0	201.5	231.0	295.3	355.9	301.4	324.5	903.4	3016	937.0	322.4	300.1	266.4	236.0	205.5	184.4	167.0	156.9	147.1	141.9	136.9	132.9	129.1	128.0	126.6	122.3	122.5	120.4	121.1	119.4	113.7	107.9	99.12	90.63	82.78	76.65	68.84	65.21	59.24	54.08	49.19	44.95	41.69	38.82	39.04	36.56	30.43	24.65	21.26	18.20	15.91	14.41	12.51	10.81	9.231	8.573	9.361	13.03	20.88	90.29	463.9	845.3	197.9	7.175	2.223	2.001	1.855	1.745	1.692	1.533	1.672	1.640	1.605	1.409	1.218	1.413	1.468
530.0	139.8	175.6	206.0	243.2	315.0	293.3	272.6	422.7	1945	2340	442.6	262.0	235.3	205.4	182.1	160.7	146.6	137.6	130.2	123.3	121.3	114.9	113.3	111.7	110.1	108.1	107.3	105.0	105.7	103.5	100.2	94.15	87.28	79.72	72.88	67.89	62.09	57.65	52.99	48.44	44.16	40.05	37.93	34.56	33.61	33.56	30.49	24.82	20.46	17.71	15.83	13.86	11.97	10.95	9.635	8.430	7.972	8.013	9.241	24.05	112.0	369.2	615.1	314.4	15.76	2.250	1.840	1.721	1.526	1.478	1.600	1.308	1.434	1.302	1.281	1.370	1.292
535.0	131.2	153.9	178.3	200.7	254.0	288.5	244.3	272.4	716.6	2755	1291	236.9	204.5	178.8	158.3	137.2	126.6	116.2	110.9	106.1	102.5	98.45	98.22	97.09	94.01	91.29	90.66	90.22	90.82	89.20	85.80	81.26	75.77	70.08	64.11	58.70	54.50	50.15	46.00	42.96	39.43	35.84	32.94	30.67	28.62	28.21	28.09	25.44	20.43	16.73	14.77	12.97	11.23	10.59	9.537	8.554	7.852	6.626	6.402	9.277	28.47	85.21	187.4	575.6	250.1	21.03	1.799	1.607	1.502	1.414	1.357	1.247	1.233	1.165	1.128	1.164	1.148
540.0	128.1	141.5	168.5	182.3	205.6	276.3	231.5	225.0	334.0	1768	2481	295.4	185.6	158.0	141.9	124.3	114.5	105.1	97.98	96.20	89.38	88.38	86.11	84.45	84.16	81.26	80.29	78.82	79.27	77.53	75.66	73.71	67.26	61.87	56.75	52.24	48.36	44.49	41.64	38.40	36.52	32.52	29.79	28.44	26.14	24.60	24.85	24.43	20.19	16.41	14.55	12.30	10.72	10.03	9.346	8.454	7.212	6.631	5.649	5.705	9.469	21.93	44.81	216.3	591.6	228.4	13.43	1.642	1.501	1.365	1.397	1.241	1.237	1.070	1.064	1.017	1.044
545.0	106.4	132.6	144.8	161.0	175.4	234.7	232.2	198.9	224.0	779.6	3047	668.0	164.7	143.7	124.6	111.6	104.1	91.99	88.73	84.97	79.94	78.79	76.06	75.54	75.34	72.40	71.20	70.89	71.48	69.65	66.72	64.42	59.75	54.81	49.97	47.58	43.73	40.26	37.44	35.05	32.64	29.68	27.50	25.71	23.58	22.05	21.09	21.47	19.97	15.89	13.50	11.21	10.23	9.297	8.672	8.098	7.575	6.295	5.506	4.920	5.216	7.680	12.51	52.18	272.1	584.8	180.3	5.716	1.443	1.321	1.220	1.108	1.110	1.006	1.131	0.993	0.911
550.0	89.27	104.1	120.6	132.7	138.6	174.0	225.0	179.8	175.1	313.0	1810	1984	235.3	124.7	107.4	94.87	86.67	78.38	74.59	70.67	68.45	65.28	64.29	62.43	62.01	61.43	59.55	59.60	59.76	58.56	57.53	54.39	50.67	46.10	42.90	39.99	37.25	33.91	32.13	29.99	28.30	25.57	23.65	22.15	20.65	19.44	18.30	17.67	17.36	15.43	12.43	10.33	9.350	8.660	7.777	7.279	6.976	6.058	5.095	4.638	4.059	4.397	5.151	13.89	65.18	240.2	410.8	207.7	14.53	1.445	1.143	1.054	1.053	0.978	0.893	0.891	0.940
555.0	88.17	90.32	108.5	112.5	112.6	134.7	184.6	171.9	138.3	171.7	577.5	2507	855.1	106.2	88.00	80.11	69.72	62.96	62.01	57.36	56.49	53.39	52.21	51.51	49.38	49.52	48.50	48.95	48.76	48.33	47.39	44.18	41.07	37.66	35.17	32.54	30.68	28.60	26.32	24.80	23.50	21.41	19.93	18.51	17.80	16.39	15.37	14.26	13.74	13.70	11.91	9.286	8.052	7.351	6.986	6.450	5.986	5.299	4.944	4.033	3.683	3.367	3.440	5.208	16.23	55.12	122.1	356.6	236.2	18.59	1.220	1.050	0.909	0.992	0.915	0.780	0.837
560.0	85.13	91.04	98.60	96.47	96.13	106.0	141.5	179.2	124.1	135.5	225.8	1574	1912	134.4	75.46	66.44	60.94	53.88	51.23	49.36	46.92	46.58	44.12	43.41	41.93	41.93	41.40	41.38	40.10	41.32	39.21	37.36	34.84	32.19	30.71	27.71	26.86	24.72	22.10	21.03	20.15	18.75	17.42	16.10	15.36	14.49	13.15	12.10	11.65	11.65	10.60	9.393	7.519	6.536	6.372	5.763	5.426	4.896	4.775	3.875	3.546	3.029	2.940	3.051	5.436	13.81	29.05	132.2	372.9	192.0	10.08	1.072	0.951	0.914	0.864	0.763	0.778
565.0	69.99	79.02	84.84	87.51	84.58	90.00	105.9	169.8	118.0	112.0	131.8	620.7	2524	391.6	66.48	58.09	52.71	48.11	45.99	42.74	41.77	39.58	38.18	37.38	35.69	36.14	35.47	35.30	35.14	35.62	34.07	32.70	29.89	27.22	26.24	23.81	22.89	21.31	19.52	18.57	17.24	15.96	14.96	14.35	13.30	12.51	12.03	10.77	9.761	9.543	9.552	8.620	7.036	5.928	5.463	5.349	4.827	4.358	4.164	3.824	3.312	2.907	2.529	2.435	2.982	4.646	7.855	31.76	163.7	354.5	122.2	3.903	0.966	0.868	0.804	0.671	0.775
570.0	60.83	67.81	73.59	69.77	70.36	76.09	81.52	131.2	134.9	92.93	95.46	212.2	1523	1450	94.33	47.63	42.19	40.14	36.91	34.92	33.61	31.91	31.74	30.36	28.96	29.55	28.79	28.78	28.17	28.28	28.03	26.11	24.17	22.94	21.19	20.30	18.97	17.41	16.42	15.46	14.40	13.49	12.34	11.61	11.61	10.19	9.872	8.965	8.118	7.537	7.463	7.578	6.717	5.724	4.910	4.587	4.186	3.830	3.628	3.343	3.310	2.693	2.419	2.245	2.255	2.398	3.068	8.302	38.94	140.0	229.8	127.9	12.08	0.889	0.731	0.673	0.656
575.0	59.50	66.53	65.87	60.73	56.57	59.88	68.10	85.73	136.5	92.88	79.84	102.1	455.4	1936	542.1	41.70	35.86	33.14	29.49	28.36	27.36	26.39	25.47	24.35	23.48	23.31	23.61	22.55	22.79	23.48	22.34	21.44	19.78	18.09	17.08	15.94	15.69	14.19	13.17	12.57	11.56	11.18	10.34	9.602	9.446	8.556	8.104	7.458	6.977	6.158	5.837	6.051	6.022	5.289	4.306	3.925	3.757	3.333	3.141	2.909	2.926	2.704	2.250	1.891	1.871	1.718	2.000	2.905	9.817	32.24	66.71	202.4	168.3	14.08	0.863	0.654	0.757
580.0	58.56	57.01	54.70	57.05	52.03	56.09	60.13	68.99	117.6	102.6	71.23	75.30	151.3	1212	1062	60.40	30.69	26.97	26.36	24.23	23.03	22.17	21.53	20.65	19.90	19.80	19.61	18.96	19.55	19.63	18.45	17.65	16.82	15.39	14.37	13.81	13.03	12.08	11.51	10.85	10.23	9.474	8.783	8.225	7.891	7.376	6.979	6.174	6.119	5.383	4.750	4.907	4.964	4.878	4.418	3.627	3.263	3.026	2.764	2.631	2.315	2.448	2.291	1.966	1.792	1.557	1.588	1.761	3.236	8.234	15.87	73.23	222.0	118.8	6.222	0.723	0.591
585.0	61.04	57.66	55.53	52.29	49.43	50.24	51.48	55.62	89.09	116.8	69.43	66.17	74.68	458.0	1740	116.1	27.37	24.21	22.46	21.54	20.37	18.81	18.00	18.24	17.13	17.51	17.03	16.50	16.61	16.50	16.18	15.05	14.27	13.08	12.58	11.96	11.11	10.77	9.596	9.213	8.876	8.388	7.655	7.214	6.939	6.754	6.237	5.604	5.272	4.613	4.328	4.103	4.028	4.697	4.165	3.345	3.008	2.816	2.369	2.257	1.969	2.074	2.466	2.020	1.637	1.461	1.420	1.299	1.710	2.815	4.422	17.44	93.95	209.4	34.21	2.707	0.540
590.0	56.86	57.65	52.53	46.47	43.82	41.46	43.70	47.10	61.86	108.8	80.03	58.96	55.17	142.8	1063	904.1	45.86	20.36	18.76	17.91	16.94	15.75	14.98	14.91	14.15	14.02	13.23	13.84	14.04	13.33	13.08	12.54	12.09	10.81	10.22	9.879	9.297	8.570	7.924	7.800	7.122	7.177	6.403	6.112	5.865	5.518	5.209	4.640	4.447	4.123	3.698	3.503	3.198	3.575	3.677	3.354	2.777	2.379	2.126	2.063	1.817	1.900	1.927	1.860	1.738	1.295	1.311	1.231	1.263	1.379	1.721	4.622	22.31	81.00	131.7	80.90	10.07
595.0	59.45	51.85	50.83	40.50	39.20	33.97	39.95	40.17	46.89	79.25	95.50	56.79	49.15	59.79	305.1	1274	278.2	17.96	15.53	14.18	14.30	13.14	12.34	12.00	11.83	11.25	11.22	11.23	11.02	10.83	10.51	9.941	9.322	8.847	8.501	7.575	7.621	7.120	6.441	6.156	5.743	5.683	4.930	4.978	4.730	4.567	4.112	3.798	3.439	3.388	3.116	2.756	2.604	2.775	3.093	3.088	2.713	2.331	1.945	1.826	1.663	1.603	1.577	1.539	1.600	1.374	1.282	1.227	1.073	1.010	1.176	1.745	5.525	18.60	38.00	117.7	104.9
600.0	51.53	54.97	44.97	39.21	32.70	34.03	32.48	39.62	41.20	58.65	102.0	59.49	44.84	40.72	91.25	839.0	721.7	24.48	13.40	11.90	11.63	10.93	9.964	10.21	9.912	9.305	9.354	9.445	9.946	9.225	8.925	8.340	8.032	7.798	7.076	6.701	6.641	5.985	5.719	5.091	5.130	4.504	4.345	4.194	4.185	3.992	3.775	3.342	3.128	2.859	2.690	2.355	2.305	2.352	2.373	2.609	2.434	2.219	1.865	1.655	1.512	1.497	1.330	1.287	1.512	1.555	1.284	0.977	1.051	0.976	1.031	1.013	1.790	4.755	9.175	42.67	130.2
605.0	49.51	51.15	46.75	34.38	26.66	30.52	32.13	35.78	40.43	48.45	91.04	70.93	42.85	35.20	40.60	323.9	1096	73.50	11.75	10.72	9.821	9.652	8.647	9.032	8.607	8.327	8.174	8.295	8.457	7.855	8.047	7.345	7.050	6.813	6.323	5.821	6.014	5.073	5.144	4.427	4.524	4.093	3.796	3.485	3.565	3.267	3.154	2.931	2.785	2.586	2.304	2.312	2.082	1.933	2.127	2.186	2.324	2.072	1.741	1.558	1.406	1.377	1.202	1.095	1.149	1.271	1.299	0.977	0.918	0.874	0.842	0.815	0.949	1.598	2.640	10.29	54.19
610.0	50.58	51.32	41.14	34.41	27.73	27.95	28.81	31.30	36.54	42.19	64.61	83.40	44.42	33.13	26.25	93.06	729.8	511.1	19.82	8.937	8.845	7.620	7.096	7.394	7.141	6.864	6.691	6.746	6.794	6.435	6.521	6.170	6.220	5.866	5.766	5.092	5.014	4.245	3.997	3.662	3.425	3.423	3.296	3.131	2.857	2.796	2.504	2.425	2.164	2.184	2.011	1.922	1.830	1.699	1.695	1.696	1.898	1.852	1.639	1.342	1.140	1.162	1.174	1.033	1.059	1.089	1.134	1.128	0.879	0.817	0.731	0.743	0.767	0.824	0.984	2.820	13.01
615.0	46.41	45.65	36.43	30.14	25.99	26.97	25.34	28.09	34.28	37.10	46.73	79.10	52.66	30.06	22.72	32.59	215.1	857.3	77.25	7.613	7.370	6.566	6.026	5.781	5.986	5.561	5.723	5.640	5.527	5.507	5.757	5.211	5.154	4.854	4.861	4.373	4.085	3.604	3.193	3.010	2.909	2.648	2.693	2.499	2.349	2.279	2.287	1.910	1.836	1.701	1.636	1.583	1.440	1.396	1.311	1.426	1.540	1.517	1.531	1.391	1.045	0.987	0.941	0.957	0.965	0.895	1.006	0.968	1.039	0.780	0.740	0.684	0.697	0.689	0.698	1.056	3.319
620.0	46.90	44.29	33.11	29.81	24.25	21.29	22.88	26.93	29.77	34.79	37.72	64.47	61.71	29.90	20.58	17.73	59.92	620.4	437.6	10.21	6.819	5.445	5.291	5.231	4.636	4.814	4.865	4.464	4.591	4.784	4.388	4.208	4.459	4.168	4.074	3.645	3.534	2.957	2.939	2.443	2.564	2.298	2.299	2.102	1.987	2.136	1.839	1.728	1.558	1.367	1.361	1.259	1.257	1.128	1.304	1.255	1.212	1.236	1.268	1.277	1.077	0.863	0.987	0.831	0.861	0.844	0.905	0.885	0.879	0.938	0.725	0.623	0.662	0.640	0.636	0.639	1.159
625.0	47.65	44.32	36.96	27.07	22.34	21.20	22.02	25.51	29.39	33.41	36.46	48.96	66.37	31.12	20.51	14.32	21.59	257.1	742.8	40.87	6.095	4.890	4.777	4.456	4.173	4.138	3.976	3.719	4.177	3.967	3.877	3.605	3.707	3.579	3.497	3.100	3.087	2.566	2.531	2.295	2.185	2.001	2.022	1.849	1.666	1.707	1.646	1.600	1.398	1.306	1.277	1.132	1.162	0.945	1.145	1.129	1.069	1.027	1.231	1.208	1.029	0.829	0.878	0.834	0.788	0.811	0.753	0.850	0.767	0.944	0.649	0.633	0.626	0.567	0.728	0.523	0.646
630.0	42.09	44.59	34.33	24.97	23.00	20.16	20.53	25.07	26.70	31.08	34.46	39.86	57.05	39.82	19.53	12.88	11.70	69.77	558.9	340.9	13.21	4.154	3.974	3.660	3.737	3.607	3.452	3.178	3.309	3.365	3.333	3.048	3.041	2.871	2.823	2.424	2.320	2.272	2.015	1.953	1.904	1.631	1.549	1.509	1.568	1.531	1.377	1.262	1.237	1.087	1.015	0.977	0.956	0.891	0.897	0.870	0.904	0.874	0.957	1.096	0.996	0.839	0.788	0.765	0.778	0.762	0.688	0.736	0.590	0.802	0.813	0.691	0.595	0.593	0.544	0.567	0.564
635.0	39.13	42.19	34.60	26.56	20.66	18.90	20.33	20.93	24.55	29.69	31.80	35.86	43.09	47.34	21.30	12.33	9.258	20.52	171.6	624.9	66.33	3.806	3.453	3.132	3.278	2.932	2.612	2.559	2.733	2.717	2.697	2.394	2.401	2.149	2.162	1.881	2.045	1.904	1.702	1.552	1.540	1.403	1.318	1.344	1.230	1.282	1.094	1.095	1.072	0.969	0.820	0.829	0.773	0.806	0.707	0.736	0.740	0.786	0.741	0.829	0.866	0.842	0.744	0.733	0.693	0.666	0.656	0.585	0.604	0.648	0.657	0.737	0.667	0.590	0.514	0.458	0.450
640.0	41.71	39.65	39.90	23.05	19.39	19.18	20.55	19.79	25.65	29.11	31.05	34.59	32.77	47.08	27.49	12.03	8.608	9.940	46.48	506.0	430.5	4.880	3.250	2.774	2.664	2.657	2.302	2.254	2.249	2.386	2.277	2.212	1.862	1.934	1.923	1.576	1.597	1.566	1.447	1.324	1.153	1.271	1.090	1.191	1.053	0.992	0.910	0.811	0.868	0.831	0.704	0.714	0.682	0.667	0.654	0.704	0.797	0.641	0.630	0.731	0.783	0.801	0.726	0.661	0.605	0.580	0.691	0.529	0.568	0.614	0.580	0.677	0.664	0.524	0.519	0.537	0.565
645.0	49.16	37.41	35.65	21.96	20.00	19.54	19.39	19.44	24.67	26.60	29.49	31.59	31.32	40.04	31.94	11.97	8.165	6.858	14.76	229.9	831.8	21.44	3.181	2.581	2.477	2.364	2.130	2.023	2.017	2.104	2.121	1.996	1.864	1.810	1.753	1.630	1.426	1.346	1.303	1.337	1.194	1.170	0.951	0.969	0.984	0.807	0.897	0.848	0.781	0.694	0.660	0.641	0.679	0.629	0.658	0.615	0.601	0.568	0.620	0.669	0.685	0.642	0.633	0.653	0.540	0.544	0.641	0.516	0.665	0.558	0.631	0.769	0.768	0.628	0.546	0.550	0.483
650.0	42.43	38.64	35.82	23.90	20.84	18.28	17.93	18.09	22.76	25.05	29.67	32.27	30.65	31.72	36.11	13.08	8.307	6.454	7.305	68.90	876.9	66.21	3.090	2.487	2.293	2.305	2.183	1.997	1.915	1.709	1.983	1.707	1.730	1.765	1.487	1.456	1.407	1.374	1.229	1.289	1.178	0.955	0.950	0.937	0.890	0.729	0.818	0.747	0.723	0.623	0.567	0.644	0.647	0.599	0.552	0.548	0.579	0.543	0.560	0.588	0.603	0.543	0.589	0.699	0.489	0.483	0.550	0.523	0.539	0.571	0.533	0.559	0.691	0.686	0.530	0.473	0.456
