Sample:	'1
File name:	t2025042308农业综合开发161桥.FD3
Run date:	'11:08:59, 04/24/2025
Operator:	Administrator
Comment:	'

Instrument
Model:	F-2700 FL Spectrophotometer
Serial number:	23B8-004
ROM Version:	4J14000 07

Instrument parameters
Measurement type:	3-D scan
Data mode:	Fluorescence
EX  Start WL:	220.0 nm
EX  End WL:	600.0 nm
EX Sampling interval:	5.0 nm
EM  Start WL:	230.0 nm
EM  End WL:	650.0 nm
EM Sampling interval:	5.0 nm
Scan speed:	12000 nm/min
EX Slit:	5.0 nm
EM Slit:	5.0 nm
PMT Voltage:	700 V
Response:	Auto 
Corrected spectra:	Off
Contour interval:	50.000

Peak integration
Integration method:	Rectangular
Sensitivity:	1
Threshold:	1.000

Peaks
No.	ApexEX/EM(nm)	Height(Data)
1	225.0/580.0	50.66
2	225.0/620.0	35.72
3	230.0/345.0	1020
4	230.0/560.0	61.71
5	230.0/625.0	34.79
6	235.0/510.0	258.4
7	240.0/265.0	340.7
8	240.0/385.0	834.3
9	240.0/525.0	234.6
10	245.0/270.0	339.5
11	245.0/405.0	791.9
12	245.0/535.0	195.9
13	250.0/275.0	443.6
14	250.0/545.0	161.8
15	255.0/280.0	541.6
16	255.0/560.0	137.8
17	260.0/285.0	519.3
18	260.0/570.0	111.1
19	265.0/585.0	105.6
20	270.0/300.0	930.7
21	270.0/600.0	91.42
22	275.0/305.0	1053
23	275.0/610.0	79.57
24	280.0/310.0	956.3
25	280.0/340.0	829.9
26	280.0/620.0	67.95
27	285.0/315.0	897.6
28	285.0/635.0	50.41
29	290.0/325.0	837.3
30	315.0/355.0	442.7
31	320.0/360.0	426.4
32	325.0/370.0	398.0
33	330.0/375.0	384.3
34	335.0/380.0	383.6
35	445.0/525.0	18.37
36	505.0/275.0	3.079
37	510.0/280.0	3.550
38	520.0/285.0	3.470
39	530.0/290.0	3.524
40	535.0/270.0	40.61
41	540.0/295.0	4.750
42	545.0/300.0	5.526
43	555.0/305.0	5.645
44	560.0/310.0	5.377
45	570.0/315.0	5.335
46	580.0/320.0	5.189
47	585.0/325.0	5.229

Data points
	220.0	225.0	230.0	235.0	240.0	245.0	250.0	255.0	260.0	265.0	270.0	275.0	280.0	285.0	290.0	295.0	300.0	305.0	310.0	315.0	320.0	325.0	330.0	335.0	340.0	345.0	350.0	355.0	360.0	365.0	370.0	375.0	380.0	385.0	390.0	395.0	400.0	405.0	410.0	415.0	420.0	425.0	430.0	435.0	440.0	445.0	450.0	455.0	460.0	465.0	470.0	475.0	480.0	485.0	490.0	495.0	500.0	505.0	510.0	515.0	520.0	525.0	530.0	535.0	540.0	545.0	550.0	555.0	560.0	565.0	570.0	575.0	580.0	585.0	590.0	595.0	600.0
230.0	36.02	583.3	1570	502.3	25.37	6.068	4.572	3.804	3.412	3.643	3.258	3.125	2.726	2.069	1.766	1.503	1.342	1.171	1.214	0.997	0.966	0.829	0.781	0.700	0.687	0.624	0.582	0.593	0.570	0.611	0.514	0.498	0.449	0.386	0.421	0.370	0.375	0.406	0.386	0.359	0.357	0.417	0.389	0.342	0.324	0.345	0.956	3.553	5.892	4.198	1.464	0.414	0.246	0.216	0.246	0.246	0.282	0.256	0.251	0.238	0.235	0.220	0.221	0.246	0.238	0.224	0.246	0.271	0.254	0.260	0.235	0.235	0.267	0.256	0.237	0.260	0.267
235.0	62.52	173.0	1098	2028	488.9	47.16	5.098	4.473	4.507	3.939	3.711	3.045	2.662	2.269	1.968	1.561	1.362	1.205	1.250	1.043	0.855	0.934	0.775	0.744	0.713	0.756	0.557	0.585	0.624	0.472	0.485	0.553	0.503	0.417	0.418	0.411	0.361	0.406	0.368	0.350	0.322	0.364	0.386	0.471	0.389	0.370	0.451	1.102	2.627	5.499	7.250	7.545	3.323	0.768	0.283	0.226	0.281	0.274	0.270	0.212	0.221	0.205	0.223	0.263	0.223	0.261	0.266	0.252	0.278	0.252	0.239	0.216	0.325	0.263	0.232	0.267	0.257
240.0	90.94	100.0	339.0	1839	2473	400.1	23.92	5.585	4.408	4.359	4.870	3.033	2.735	2.850	1.872	1.826	1.510	1.586	1.202	1.057	1.117	1.019	0.864	0.754	0.763	0.687	0.562	0.535	0.612	0.518	0.579	0.449	0.433	0.429	0.493	0.363	0.370	0.403	0.421	0.310	0.353	0.351	0.408	0.441	0.490	0.520	0.457	0.551	0.858	1.831	4.510	10.90	13.06	7.945	2.757	0.433	0.257	0.247	0.288	0.250	0.271	0.226	0.251	0.251	0.251	0.266	0.244	0.245	0.281	0.289	0.259	0.243	0.279	0.233	0.233	0.270	0.279
245.0	74.68	142.6	132.0	641.4	2753	2646	300.1	9.948	5.397	5.495	4.380	3.511	2.852	2.940	1.887	1.939	1.634	1.348	1.441	1.087	0.936	1.029	0.888	0.759	0.737	0.794	0.634	0.635	0.587	0.563	0.552	0.441	0.491	0.464	0.473	0.480	0.411	0.353	0.368	0.428	0.373	0.343	0.395	0.428	0.451	0.551	0.719	0.656	0.496	0.598	1.245	3.886	10.39	16.63	16.13	7.401	1.604	0.366	0.312	0.277	0.279	0.243	0.292	0.260	0.264	0.233	0.244	0.285	0.245	0.234	0.255	0.248	0.273	0.268	0.250	0.298	0.220
250.0	38.76	104.8	197.3	228.3	888.9	2679	3295	1076	63.20	6.946	5.097	4.504	3.639	2.784	2.398	2.064	1.708	1.505	1.235	1.264	1.081	0.946	0.848	0.920	0.756	0.752	0.708	0.739	0.591	0.710	0.578	0.540	0.485	0.456	0.485	0.395	0.452	0.356	0.362	0.447	0.377	0.341	0.370	0.388	0.357	0.412	0.492	0.662	0.886	0.785	0.636	1.157	2.738	5.761	11.00	15.54	19.16	16.34	8.001	1.957	0.405	0.277	0.293	0.267	0.285	0.255	0.284	0.282	0.251	0.245	0.278	0.286	0.279	0.271	0.245	0.277	0.287
255.0	28.79	43.75	134.9	278.0	282.8	687.2	2630	5197	1496	67.11	6.284	5.970	4.395	3.008	2.535	2.306	1.927	1.542	1.538	1.263	1.120	1.028	0.902	0.909	0.765	0.753	0.613	0.752	0.628	0.637	0.642	0.583	0.521	0.555	0.433	0.436	0.416	0.382	0.413	0.410	0.429	0.391	0.351	0.385	0.349	0.369	0.395	0.371	0.534	0.825	1.133	1.220	1.080	1.583	2.689	3.912	8.294	18.73	32.51	25.50	11.46	1.856	0.292	0.301	0.286	0.294	0.279	0.313	0.279	0.273	0.336	0.243	0.279	0.258	0.342	0.252	0.251
260.0	29.01	27.35	56.54	246.6	305.9	207.2	800.1	4303	5875	1183	27.68	8.084	5.418	3.867	3.081	2.511	1.992	1.718	1.598	1.336	1.358	1.135	0.923	1.045	0.746	0.905	0.690	0.658	0.683	0.636	0.632	0.616	0.521	0.560	0.495	0.350	0.407	0.433	0.424	0.426	0.349	0.372	0.338	0.399	0.325	0.441	0.331	0.314	0.356	0.482	0.859	1.614	1.664	1.109	0.919	1.164	2.242	5.447	15.48	31.28	39.87	23.52	7.961	1.064	0.323	0.340	0.370	0.347	0.240	0.286	0.323	0.247	0.320	0.267	0.302	0.271	0.292
265.0	31.86	23.12	28.24	119.2	340.7	227.1	210.7	1438	6103	6519	203.8	13.04	7.294	4.802	3.586	2.889	2.456	1.847	1.713	1.357	1.256	1.092	1.011	0.984	0.855	0.798	0.791	0.745	0.604	0.607	0.665	0.710	0.558	0.548	0.466	0.386	0.424	0.400	0.322	0.402	0.389	0.337	0.377	0.388	0.368	0.383	0.318	0.401	0.379	0.315	0.384	0.890	1.844	1.914	1.434	0.642	0.853	1.560	3.904	9.931	24.80	42.43	31.47	20.63	4.639	0.555	0.375	0.325	0.302	0.304	0.372	0.300	0.301	0.283	0.289	0.298	0.381
270.0	43.94	33.69	34.57	49.19	160.1	339.5	268.7	370.0	1888	6099	6961	792.4	49.34	7.733	5.092	3.654	3.086	2.281	1.665	1.618	1.378	1.226	1.226	1.073	0.929	0.860	0.770	0.796	0.723	0.654	0.641	0.735	0.618	0.591	0.476	0.487	0.487	0.446	0.412	0.464	0.410	0.386	0.434	0.421	0.393	0.393	0.361	0.439	0.353	0.331	0.306	0.454	0.776	1.169	1.736	1.992	1.673	1.145	1.277	2.556	6.181	12.97	21.79	40.61	36.35	36.29	13.79	4.299	0.600	0.380	0.342	0.338	0.288	0.330	0.302	0.300	0.338
275.0	75.49	86.18	88.36	57.35	62.58	156.7	443.6	321.9	472.0	1499	4705	9847	1134	46.37	7.668	4.667	3.856	3.035	2.197	1.966	1.700	1.457	1.316	1.093	0.993	0.924	0.925	0.859	0.830	0.809	0.738	0.652	0.634	0.623	0.508	0.521	0.504	0.575	0.400	0.506	0.450	0.469	0.555	0.518	0.437	0.533	0.521	0.501	0.496	0.451	0.336	0.372	0.471	0.530	0.676	1.068	2.301	3.079	2.146	1.226	1.802	3.264	5.279	9.722	12.35	30.12	55.62	57.78	21.73	5.005	0.496	0.355	0.334	0.359	0.265	0.311	0.332
280.0	112.1	144.6	144.9	89.29	51.26	66.82	272.9	541.6	268.7	401.0	1325	7180	9186	806.1	20.73	6.982	4.626	3.775	2.534	2.137	1.718	1.470	1.347	1.293	1.238	1.091	0.989	1.011	0.846	0.670	0.773	0.700	0.631	0.787	0.582	0.620	0.540	0.548	0.478	0.542	0.459	0.453	0.494	0.509	0.474	0.656	0.636	0.681	0.628	0.527	0.503	0.531	0.449	0.439	0.517	0.544	1.121	2.273	3.550	3.017	1.519	1.279	1.772	2.679	3.411	7.945	20.67	46.17	65.90	31.98	17.29	1.993	0.427	0.343	0.355	0.353	0.324
285.0	166.2	219.7	215.7	129.9	69.53	55.88	122.8	452.3	519.3	221.8	398.2	2169	8983	7322	116.5	11.32	5.901	4.759	3.227	2.560	2.043	1.661	1.411	1.339	1.251	1.105	1.052	0.968	0.829	0.750	0.747	0.776	0.810	0.775	0.768	0.706	0.676	0.684	0.556	0.546	0.557	0.573	0.564	0.601	0.560	0.730	0.798	0.936	0.967	0.813	0.632	0.651	0.499	0.482	0.511	0.508	0.648	0.944	2.013	3.318	3.470	2.222	1.128	1.266	1.494	2.451	5.371	12.62	29.15	52.91	69.69	28.04	11.23	1.030	0.431	0.376	0.433
290.0	231.0	289.7	308.6	195.1	100.7	75.86	95.16	216.8	513.6	493.9	319.9	645.9	2615	6709	7161	1708	29.58	6.310	4.283	3.080	2.509	1.955	1.708	1.545	1.364	1.242	1.066	1.105	0.902	0.876	0.844	0.827	0.734	0.756	0.893	0.754	0.846	0.722	0.621	0.636	0.588	0.595	0.621	0.697	0.694	0.930	0.997	1.187	1.052	0.963	0.802	0.757	0.647	0.539	0.579	0.594	0.638	0.705	0.994	1.597	2.379	3.347	3.524	2.755	1.726	1.634	2.235	3.796	7.503	14.45	27.56	38.15	50.68	43.75	19.27	9.143	1.443
295.0	271.0	348.9	381.4	262.0	148.3	117.9	126.0	171.1	287.8	613.4	736.3	436.4	794.9	1691	4414	8986	665.6	28.00	5.574	4.052	2.953	2.446	1.955	1.673	1.487	1.278	1.282	1.185	0.913	0.999	0.840	0.854	0.721	0.915	0.961	0.913	0.820	0.741	0.671	0.622	0.679	0.679	0.647	0.722	0.739	0.844	1.004	1.375	1.186	1.134	0.942	0.941	0.838	0.704	0.671	0.705	0.825	0.832	1.004	1.200	1.486	1.916	2.399	4.126	4.750	3.346	2.224	2.306	2.883	4.450	7.321	9.527	13.40	22.05	47.50	66.89	31.12
300.0	274.2	407.9	414.1	290.0	182.4	146.3	165.0	193.3	255.9	440.7	930.7	688.4	467.2	572.3	1237	6092	5724	501.8	12.53	5.346	3.653	3.018	2.222	1.927	1.643	1.380	1.280	1.332	1.117	1.236	0.926	0.884	0.854	0.920	0.814	0.923	0.820	0.823	0.681	0.739	0.668	0.711	0.674	0.662	0.846	0.983	1.081	1.430	1.553	1.181	1.080	1.137	1.028	0.765	0.818	0.813	1.090	1.061	1.086	1.165	1.412	1.589	1.802	2.604	4.284	5.526	4.298	2.802	2.338	2.665	2.998	3.285	4.135	6.038	14.21	35.19	59.31
305.0	279.4	417.4	432.4	332.2	216.6	188.4	210.7	245.6	301.5	409.6	726.3	1053	576.3	394.8	439.0	1777	6751	4818	72.09	7.959	5.096	3.315	2.743	2.058	1.984	1.544	1.448	1.278	1.146	1.158	0.896	1.010	0.795	0.947	0.907	0.985	0.905	0.818	0.774	0.775	0.685	0.725	0.758	0.829	0.913	1.131	1.296	1.404	1.603	1.218	1.127	1.159	1.151	1.043	0.923	1.109	1.197	1.246	1.311	1.562	1.650	1.867	1.896	2.544	2.971	4.247	5.546	5.645	3.853	2.791	2.383	2.164	2.334	2.530	4.002	9.132	19.80
310.0	272.1	406.4	456.3	351.2	247.4	223.8	253.6	301.6	358.3	445.4	600.3	872.5	956.3	545.4	323.9	524.2	1941	4891	5197	1311	21.50	4.992	3.246	2.502	2.117	1.792	1.443	1.383	1.261	1.111	0.977	1.050	0.872	1.002	0.924	0.933	0.844	0.805	0.826	0.824	0.708	0.746	0.702	0.877	0.910	1.161	1.255	1.523	1.660	1.377	1.141	1.343	1.189	1.166	1.170	1.224	1.276	1.416	1.577	1.571	1.768	1.991	2.203	2.524	2.795	3.277	3.856	4.813	5.377	5.037	4.124	2.815	2.337	2.007	2.145	2.996	5.333
315.0	284.4	416.2	470.0	378.6	274.2	261.3	289.1	343.8	402.8	489.3	600.9	708.8	834.8	897.6	439.3	294.6	546.7	1194	3179	6688	492.6	21.13	4.906	3.597	2.398	1.899	1.730	1.506	1.277	1.262	1.028	1.098	0.918	1.019	0.918	0.996	0.873	0.932	0.808	0.834	0.725	0.741	0.680	0.830	0.957	1.242	1.193	1.557	1.747	1.340	1.250	1.350	1.418	1.239	1.321	1.312	1.454	1.526	1.783	1.910	1.839	2.186	2.393	2.731	2.922	3.179	3.462	3.718	3.826	4.216	5.335	5.072	3.819	2.537	1.945	1.917	2.261
320.0	327.0	459.6	538.6	421.5	311.0	288.0	325.4	378.9	433.1	535.8	638.1	702.5	733.2	876.0	716.6	322.0	278.5	371.5	856.6	4349	5806	399.7	11.09	4.210	3.045	2.293	2.014	1.532	1.544	1.314	1.198	1.380	0.857	1.046	0.998	1.030	0.923	0.902	0.760	0.776	0.794	0.791	0.721	0.785	1.012	1.295	1.385	1.736	1.713	1.529	1.347	1.462	1.473	1.436	1.490	1.365	1.597	1.673	1.852	2.156	2.075	2.306	2.635	2.635	2.986	3.311	3.298	3.429	3.682	3.740	3.990	5.082	5.189	4.207	2.705	2.324	1.886
325.0	361.6	542.5	656.9	533.5	380.8	328.2	352.0	403.6	470.8	565.9	663.5	727.1	738.1	741.2	837.3	492.6	268.4	218.3	280.1	1229	5068	3756	58.18	7.358	3.864	2.915	2.175	1.834	1.609	1.400	1.337	1.338	1.123	1.068	0.978	0.915	0.909	0.856	0.860	0.752	0.768	0.822	0.788	0.873	1.250	1.375	1.660	2.080	2.176	1.895	1.686	1.908	1.473	1.599	1.514	1.576	1.742	1.839	1.894	2.107	2.230	2.366	2.660	2.943	3.117	3.514	3.449	3.701	3.571	3.715	3.744	3.940	4.374	5.229	4.761	3.166	2.162
330.0	400.5	635.4	825.8	696.6	478.0	381.7	385.3	428.5	503.8	595.4	701.7	771.1	777.9	715.5	701.7	673.2	432.1	234.4	181.7	357.6	1420	3547	4060	1164	18.98	4.037	2.760	2.226	1.833	1.532	1.350	1.403	1.146	1.119	1.073	0.890	0.896	0.893	0.839	0.803	0.817	0.896	0.823	0.938	1.193	1.508	1.708	2.379	2.544	2.369	2.206	2.162	1.882	1.961	1.774	1.681	1.893	2.066	2.112	2.140	2.349	2.493	2.996	3.005	3.304	3.547	3.702	3.849	4.034	4.034	3.953	3.720	3.719	4.204	4.320	4.455	3.898
335.0	421.9	735.1	951.2	825.6	564.8	446.4	428.2	465.5	535.4	621.7	731.0	803.8	815.0	747.0	658.8	585.9	623.9	385.5	202.9	197.4	391.0	855.7	2431	5407	418.4	21.60	3.789	3.163	2.334	2.042	1.452	1.681	1.356	1.201	1.171	0.881	0.880	0.919	0.809	0.826	0.812	0.923	0.880	0.984	1.283	1.536	1.953	2.553	2.757	2.828	2.502	2.663	2.510	2.177	2.121	1.887	2.108	2.100	2.272	2.360	2.536	2.668	2.832	3.298	3.243	3.468	3.855	3.837	4.093	4.256	3.963	4.200	3.736	3.730	4.012	3.693	3.707
340.0	446.5	736.0	989.3	873.7	644.3	493.7	467.0	480.9	557.7	637.4	734.6	813.5	829.9	764.5	672.8	560.2	569.9	549.8	278.1	186.7	181.2	248.8	643.4	3441	4796	362.5	10.92	3.610	2.741	2.087	1.709	1.760	1.473	1.238	1.130	1.007	0.924	0.976	0.839	0.838	0.929	1.037	0.967	0.970	1.188	1.703	1.992	2.616	2.977	2.915	2.728	2.658	2.680	2.518	2.135	2.095	2.201	2.115	2.368	2.235	2.541	2.727	3.016	3.376	3.393	3.476	3.935	3.597	4.185	4.018	4.192	3.851	3.991	3.848	3.592	3.588	3.308
345.0	438.0	750.9	1020	928.5	694.3	535.3	488.1	489.5	568.7	641.3	729.4	798.4	817.5	770.2	678.0	564.6	496.9	548.6	416.6	217.5	153.8	135.9	198.5	955.1	4036	3203	52.23	5.489	3.483	2.393	1.918	1.878	1.378	1.270	1.102	0.965	0.938	0.888	0.881	0.841	0.871	0.952	1.063	1.013	1.140	1.657	1.902	2.613	3.043	2.960	2.941	2.899	2.814	2.494	2.372	2.170	2.424	2.445	2.489	2.609	2.824	2.937	3.031	3.233	3.474	3.475	3.721	3.608	4.113	4.128	4.132	3.883	4.164	3.990	3.593	3.550	3.616
350.0	416.6	682.3	974.8	930.3	745.1	589.8	530.6	523.2	565.1	636.6	716.1	772.7	799.0	759.5	681.4	579.9	492.8	458.9	466.7	353.1	195.8	141.1	125.2	268.9	1116	2824	3311	1032	18.37	3.271	2.400	2.099	1.467	1.341	1.247	1.066	0.938	0.903	0.922	0.829	0.913	0.968	0.936	1.040	1.198	1.624	1.824	2.406	2.926	3.030	2.847	3.072	2.909	2.639	2.478	2.209	2.400	2.497	2.576	2.541	2.835	2.847	3.199	3.269	3.457	3.384	3.783	3.801	3.812	4.067	4.115	3.952	4.121	3.978	3.632	3.719	3.617
355.0	387.2	646.0	898.7	918.3	767.3	648.2	580.5	565.8	599.3	660.2	716.8	764.5	773.8	749.9	683.1	603.9	515.2	452.0	411.3	442.7	328.9	185.7	137.1	141.4	300.0	679.5	1889	4248	389.0	21.69	3.602	2.841	1.728	1.510	1.227	1.036	1.002	0.924	0.923	0.864	0.772	0.955	0.793	1.065	1.091	1.440	1.735	2.347	2.758	2.716	2.713	3.315	3.063	2.630	2.805	2.517	2.618	2.675	2.716	2.671	2.875	3.009	3.104	3.374	3.502	3.552	3.438	3.609	3.667	4.003	3.941	4.082	4.027	4.188	3.907	3.756	3.645
360.0	380.0	628.5	878.1	911.0	791.2	676.1	623.4	596.3	633.1	679.4	711.1	758.1	760.9	742.1	685.1	607.2	532.5	472.2	410.8	407.0	426.4	263.3	168.8	134.2	139.3	199.3	495.6	2647	4088	347.3	11.58	3.735	2.096	1.562	1.331	1.085	1.103	0.912	1.028	0.903	0.805	0.829	0.853	0.948	1.137	1.360	1.762	2.228	2.537	2.731	2.793	3.129	3.088	2.853	2.961	2.603	2.801	2.786	2.938	2.996	2.920	3.197	3.150	3.523	3.301	3.477	3.586	3.687	3.869	4.050	4.059	3.988	4.143	3.953	3.887	3.761	3.703
365.0	363.0	627.0	836.3	882.5	795.6	693.8	648.7	624.7	650.8	685.3	723.0	753.4	750.4	728.1	684.6	614.0	549.6	487.4	428.3	390.0	418.1	371.2	218.3	156.5	122.7	109.1	152.7	735.5	3371	2971	267.4	7.495	2.880	1.810	1.591	1.349	1.119	1.017	0.922	0.903	0.747	0.891	0.909	0.906	1.085	1.463	1.737	2.231	2.427	2.597	2.712	3.145	3.142	2.938	3.052	2.959	2.824	2.785	2.929	3.137	2.869	3.114	3.496	3.240	3.534	3.411	3.572	3.824	3.761	3.840	3.706	3.837	3.895	3.848	3.795	3.756	3.729
370.0	358.5	582.3	806.3	870.0	804.9	743.9	678.8	655.8	667.2	696.3	725.6	742.1	743.4	718.7	675.7	618.6	564.9	514.6	454.0	410.1	384.8	398.0	335.7	215.3	151.1	114.4	97.62	207.1	926.0	2458	3033	1193	16.89	2.910	2.004	1.553	1.280	1.050	1.031	0.903	0.821	0.787	0.929	0.974	1.100	1.330	1.582	2.166	2.405	2.470	2.548	3.132	3.111	3.115	3.094	2.975	3.148	2.945	3.125	3.035	3.154	3.147	3.388	3.393	3.481	3.462	3.519	3.647	3.728	3.704	3.765	3.950	3.864	4.002	3.822	3.963	3.848
375.0	358.6	563.5	779.5	863.6	804.4	760.1	711.5	691.7	690.5	707.1	723.3	734.2	726.2	704.5	664.1	616.7	575.1	535.6	483.3	434.6	397.1	368.9	384.3	325.4	196.6	144.3	108.8	110.4	248.6	589.5	1671	5480	336.7	20.16	2.764	1.815	1.573	1.178	1.064	0.907	0.933	0.938	0.835	0.963	1.091	1.337	1.585	1.956	2.362	2.297	2.511	3.086	3.035	3.064	2.989	3.006	3.252	3.025	3.180	3.097	3.357	3.262	3.361	3.300	3.643	3.459	3.453	3.581	3.594	3.519	3.654	3.903	3.754	4.064	3.972	3.708	3.957
380.0	343.1	550.0	740.1	842.0	819.1	779.0	725.3	705.9	698.8	705.1	721.4	725.1	720.9	698.6	657.7	614.4	575.5	542.9	503.0	455.8	411.1	374.7	363.2	383.6	263.4	173.8	131.9	104.3	110.9	172.1	437.8	3305	2728	294.5	10.24	2.576	1.841	1.440	1.112	0.944	0.984	0.876	0.943	0.983	1.199	1.203	1.489	2.021	2.327	2.221	2.548	2.887	2.979	3.100	3.030	3.072	3.320	3.128	3.205	3.218	3.384	3.268	3.437	3.325	3.791	3.386	3.581	3.558	3.498	3.819	3.551	3.781	3.697	3.709	3.658	3.695	3.924
385.0	326.0	555.4	723.3	807.2	834.3	784.3	742.4	709.8	697.2	700.3	720.1	724.0	707.4	679.1	646.4	607.0	579.3	544.9	506.8	471.7	429.8	388.9	356.1	367.2	338.0	217.5	155.7	118.3	95.46	89.23	133.4	891.3	2470	2455	221.7	4.726	2.274	1.735	1.166	1.036	0.962	1.048	0.977	1.017	1.160	1.413	1.481	1.884	2.178	2.211	2.499	2.959	3.132	3.011	3.148	3.022	3.231	3.193	3.284	3.405	3.197	3.208	3.455	3.286	3.437	3.145	3.531	3.200	3.681	3.657	3.862	3.915	3.623	3.747	3.755	3.559	3.896
390.0	311.8	504.4	703.1	799.9	818.7	797.3	746.5	721.6	698.9	703.9	705.1	700.5	694.7	668.9	632.0	590.9	568.4	541.4	510.4	481.5	442.8	406.7	371.1	346.6	349.4	303.7	206.5	150.5	116.6	92.96	82.06	234.9	680.7	1878	2243	728.9	14.45	2.364	1.615	1.292	1.018	1.033	0.967	1.002	1.183	1.363	1.443	1.800	2.135	2.223	2.330	2.825	3.169	3.053	3.242	2.994	3.261	3.233	3.274	3.222	3.354	3.258	3.361	3.412	3.453	3.370	3.369	3.204	3.395	3.404	3.636	3.602	3.722	3.837	3.539	3.740	3.771
395.0	303.7	505.6	665.6	790.7	811.8	788.4	744.7	715.1	709.0	699.9	694.1	693.0	682.4	650.6	614.9	579.3	555.7	532.6	506.2	481.4	450.0	418.9	389.4	356.8	329.6	331.9	291.7	194.9	149.7	117.7	91.33	103.6	186.0	449.5	1213	2660	280.2	16.71	2.411	1.718	1.145	1.085	1.142	1.102	1.250	1.465	1.297	1.809	1.993	2.208	2.358	2.869	3.090	2.818	3.107	2.905	3.242	3.301	3.374	3.283	3.336	3.377	3.302	3.424	3.432	3.427	3.255	3.165	3.415	3.252	3.372	3.612	3.561	3.677	3.502	3.433	3.834
400.0	308.2	480.4	652.4	767.5	790.9	773.1	745.7	716.8	700.2	693.8	690.9	680.1	669.3	641.4	611.7	566.6	546.5	524.5	499.7	475.1	452.8	426.0	400.4	368.1	334.6	320.1	328.4	251.9	178.6	139.6	107.2	87.98	86.15	130.2	317.9	1630	2228	247.4	9.009	2.113	1.474	1.225	1.169	1.181	1.131	1.414	1.324	1.815	2.107	2.175	2.332	2.844	3.076	3.008	3.067	3.004	3.415	3.287	3.351	3.342	3.358	3.207	3.260	3.372	3.384	3.299	3.332	3.270	3.336	3.412	3.481	3.633	3.661	3.552	3.499	3.373	3.480
405.0	303.3	472.0	649.8	757.4	783.1	791.9	752.0	728.3	700.1	688.0	685.7	672.6	662.5	626.5	595.6	552.2	530.8	516.3	492.6	471.6	450.7	427.4	407.7	380.0	345.4	319.5	320.0	306.7	217.5	161.2	126.7	96.61	72.77	65.71	96.94	444.5	1825	1990	189.2	3.920	1.836	1.439	1.113	1.167	1.214	1.322	1.401	1.791	2.043	2.136	2.160	2.876	2.990	3.238	3.157	3.052	3.387	3.161	3.246	3.281	3.270	3.172	3.313	3.453	3.227	2.995	3.210	3.157	3.406	3.449	3.450	3.710	3.514	3.341	3.564	3.561	3.551
410.0	295.2	463.8	633.3	737.6	768.4	773.4	745.0	729.1	692.8	687.1	669.0	654.3	639.4	606.4	573.4	533.8	510.1	493.7	475.0	459.3	439.4	423.7	407.1	385.8	360.8	330.3	308.2	308.5	282.3	205.3	152.3	115.1	84.33	64.47	56.11	123.8	496.7	1394	1702	569.9	12.69	1.956	1.455	1.233	1.344	1.472	1.441	1.878	1.949	2.037	2.250	2.722	2.877	3.008	3.074	2.971	3.392	3.327	3.214	3.475	3.214	3.195	3.321	3.288	3.157	3.112	3.155	3.082	3.217	3.198	3.257	3.292	3.353	3.254	3.424	3.322	3.474
415.0	274.3	449.2	611.3	706.1	753.8	748.3	726.9	716.3	691.0	670.4	660.4	639.6	616.4	578.9	548.5	513.8	487.8	470.9	449.4	437.9	422.9	415.8	401.5	384.6	362.7	335.0	310.2	290.1	291.8	263.8	182.6	133.1	98.79	73.74	55.45	57.59	132.2	330.0	871.8	1931	253.4	15.48	2.048	1.492	1.561	1.408	1.327	1.678	1.971	2.061	2.115	2.784	2.794	2.940	3.362	3.142	3.272	3.172	3.115	3.318	3.144	3.242	3.271	3.285	3.176	3.252	3.191	3.156	3.041	3.358	3.170	3.050	3.353	3.355	3.297	3.312	3.302
420.0	284.1	423.5	596.4	687.0	722.7	722.1	714.0	703.5	684.9	662.3	642.8	631.0	601.3	567.2	524.2	492.0	467.9	445.7	433.0	424.2	407.9	399.7	393.8	375.7	359.2	336.5	311.1	289.9	274.5	281.0	218.5	149.1	108.7	81.99	60.50	46.81	53.81	89.75	222.5	1134	1767	226.9	7.561	1.845	1.484	1.501	1.461	1.726	1.849	2.077	2.092	2.571	2.831	2.918	3.227	2.955	3.244	3.289	3.203	3.162	3.273	3.281	3.153	3.463	3.011	3.214	3.121	3.307	3.015	3.128	2.792	2.975	2.947	3.052	3.148	3.041	3.154
425.0	256.7	408.4	576.6	671.6	720.7	706.5	692.5	694.5	673.0	646.3	639.7	616.0	590.1	547.7	512.0	471.5	447.9	428.7	417.8	408.9	394.0	386.4	377.9	369.9	353.5	334.4	309.3	289.5	267.8	262.1	248.8	172.0	118.2	90.62	66.46	49.04	39.66	38.78	62.90	303.0	1318	1611	169.5	3.429	1.663	1.930	1.669	1.647	1.992	1.991	1.840	2.473	2.721	2.804	3.042	2.714	3.091	3.245	3.197	3.079	3.223	3.156	3.339	3.081	2.855	3.048	2.963	3.073	2.907	3.027	2.584	3.005	3.038	2.848	2.897	2.813	3.177
430.0	291.6	402.8	545.5	630.4	681.5	690.1	687.4	684.6	670.4	641.4	632.1	604.4	564.7	524.8	488.4	447.6	422.7	406.0	394.4	386.9	374.0	369.4	365.6	358.1	346.2	328.5	309.8	290.9	267.7	248.5	241.2	207.9	144.1	102.2	76.64	57.89	42.96	32.78	30.73	79.45	347.0	1069	1323	473.1	12.01	2.235	1.774	1.761	1.915	1.956	1.821	2.508	2.704	2.716	2.880	2.720	3.075	3.120	3.084	3.045	3.072	3.187	3.204	3.164	3.042	2.931	2.825	2.731	3.009	2.867	2.878	3.024	2.935	2.799	2.703	2.794	3.017
435.0	432.6	371.9	519.1	615.2	661.4	676.0	676.2	669.2	655.9	634.3	619.3	584.4	542.4	500.3	467.2	426.9	403.7	383.5	370.6	363.9	356.4	349.1	347.9	343.8	335.2	321.7	305.1	288.7	270.7	248.4	225.7	211.2	178.9	121.8	88.58	67.39	50.14	36.91	27.72	32.84	88.10	249.4	641.1	1571	239.4	16.03	2.025	1.829	1.974	1.925	1.888	2.341	2.734	2.702	2.707	2.704	3.061	3.155	2.931	3.057	2.917	3.050	2.900	3.036	2.970	2.792	2.864	2.891	2.871	2.605	2.699	2.763	2.704	2.715	2.432	2.858	2.754
440.0	555.6	409.5	503.3	591.7	629.6	656.8	662.6	667.2	641.2	620.9	608.2	574.5	531.2	487.6	449.5	405.6	385.5	367.1	354.5	349.6	339.6	333.5	334.0	331.0	324.2	313.3	302.8	287.2	271.5	249.6	222.0	197.3	188.5	145.8	97.16	74.04	55.98	40.93	30.71	24.27	32.17	65.01	161.5	911.5	1537	219.1	7.820	2.017	2.010	1.911	1.888	2.317	2.680	2.626	2.780	2.499	2.975	3.065	2.942	3.044	3.020	3.105	3.131	2.992	2.956	2.893	2.719	2.704	3.103	2.660	2.796	2.812	2.618	2.475	2.630	2.663	2.596
445.0	581.7	541.1	497.2	576.1	622.4	636.3	637.9	648.5	641.3	617.9	596.3	561.6	511.8	474.7	435.5	389.8	363.2	348.9	339.0	328.2	321.7	321.0	319.4	314.8	312.4	300.6	293.7	279.9	265.6	246.5	222.7	191.9	176.7	160.1	112.5	79.51	60.22	44.76	33.87	25.57	21.98	24.90	44.82	242.2	1137	1658	148.2	3.957	2.279	1.974	2.059	2.429	2.564	2.681	2.724	2.667	2.821	3.000	3.033	3.060	2.968	3.097	3.050	2.873	2.961	2.856	2.766	2.867	2.800	2.685	2.449	2.641	2.698	2.676	2.576	2.559	2.539
450.0	406.2	855.2	569.8	549.2	590.0	604.5	612.5	612.3	616.4	596.8	572.0	540.3	486.5	445.1	401.8	364.0	339.2	322.2	309.6	302.1	297.6	294.5	294.0	294.5	290.3	283.8	275.7	266.9	255.9	239.4	214.8	186.9	161.1	149.6	130.0	92.83	65.54	49.65	38.23	29.22	22.57	18.67	20.34	61.87	297.3	1088	1177	416.4	10.66	2.358	2.047	2.238	2.515	2.513	2.595	2.497	2.767	2.903	2.909	2.982	3.095	2.899	2.901	2.796	2.806	2.750	2.729	2.733	2.352	2.622	2.370	2.592	2.480	2.545	2.459	2.423	2.259
455.0	249.0	873.4	977.6	526.7	534.5	558.0	572.9	576.8	576.0	563.5	538.1	510.6	454.7	412.1	369.6	338.3	311.6	294.9	285.8	274.3	270.0	265.0	265.7	266.2	265.9	259.4	252.1	248.9	238.4	226.4	207.7	180.8	152.8	133.4	123.6	108.6	74.67	54.52	42.15	32.69	25.09	19.64	16.74	22.84	73.19	251.4	529.3	1277	201.6	12.21	2.280	2.183	2.479	2.363	2.401	2.412	2.634	2.657	2.531	2.684	2.670	2.712	2.801	2.717	2.563	2.658	2.781	2.691	2.236	2.389	2.133	2.148	2.312	2.123	2.272	2.315	2.288
460.0	199.0	634.2	1402	615.1	502.4	523.9	543.8	544.2	542.3	534.0	512.6	481.5	428.7	387.0	347.6	315.3	289.1	272.4	262.2	255.6	249.1	245.6	246.0	247.3	244.9	241.9	234.6	232.5	223.1	215.5	197.8	174.0	147.8	125.9	111.9	109.0	86.96	58.60	43.93	34.75	27.38	21.33	16.77	15.37	23.95	62.56	130.0	684.1	1196	164.8	7.553	2.402	2.308	2.489	2.372	2.380	2.511	2.606	2.577	2.421	2.713	2.614	2.592	2.596	2.596	2.499	2.557	2.353	2.318	2.223	2.158	2.173	1.992	2.303	2.059	2.065	2.258
465.0	173.9	396.2	1523	867.8	477.9	494.8	509.4	524.1	513.5	503.1	485.5	452.1	408.4	365.5	323.1	291.3	269.4	252.0	243.4	235.0	230.6	227.5	228.4	228.6	228.0	223.6	219.3	219.3	211.0	202.6	187.7	165.5	142.0	121.0	104.3	98.64	91.13	66.70	46.25	36.79	28.80	22.60	18.25	14.47	13.99	21.29	34.92	176.0	860.2	1020	128.0	4.603	2.509	2.511	2.219	2.431	2.433	2.558	2.517	2.592	2.600	2.543	2.514	2.500	2.376	2.397	2.438	2.301	2.243	2.090	2.171	2.054	2.132	2.140	1.918	1.988	1.999
470.0	170.4	277.0	957.7	1680	685.8	452.4	459.6	472.5	470.6	463.7	443.5	410.2	372.2	328.1	292.4	261.9	242.8	226.4	217.7	209.2	205.7	202.4	202.5	203.5	202.5	200.4	197.2	195.6	191.6	184.8	172.1	154.2	132.7	113.9	97.05	85.89	81.56	73.20	52.95	38.37	30.45	24.09	19.52	15.60	13.09	12.78	14.26	44.65	221.7	613.8	815.8	332.5	11.38	2.533	2.316	2.286	2.225	2.487	2.327	2.435	2.224	2.371	2.341	2.412	2.097	2.269	2.142	2.184	1.978	1.996	1.947	1.913	2.027	2.000	1.755	1.793	1.766
475.0	169.2	244.8	462.7	1583	1463	431.9	409.3	428.4	426.4	421.7	401.5	370.8	333.1	293.6	263.2	235.1	214.8	201.9	193.5	186.3	181.0	179.3	178.3	178.4	178.5	177.6	175.6	173.0	169.8	166.4	155.7	139.6	120.8	105.8	90.99	79.13	69.34	66.72	60.43	42.89	31.39	24.51	20.41	16.64	14.34	11.59	10.65	15.95	54.19	141.5	318.5	823.8	203.4	14.27	2.457	2.095	2.165	2.234	2.213	2.162	2.116	2.128	2.183	2.192	1.854	1.924	1.931	2.025	1.854	1.758	1.760	1.733	1.713	1.751	1.523	1.670	1.677
480.0	161.7	225.3	313.0	1009	2071	540.2	385.1	396.5	391.1	385.6	372.9	346.9	311.3	274.4	242.8	215.8	196.4	184.2	176.1	171.7	165.8	163.0	161.2	161.3	161.4	162.8	159.5	158.9	155.2	152.2	144.1	130.1	113.2	98.71	85.23	74.74	64.77	58.66	59.85	49.58	32.99	25.93	21.46	17.43	14.94	12.08	10.25	10.04	17.15	35.72	77.06	378.9	815.2	183.5	8.679	2.197	2.148	2.063	1.979	2.048	1.961	1.956	2.061	2.147	1.931	1.841	1.822	1.829	1.735	1.714	1.788	1.563	1.582	1.625	1.473	1.504	1.515
485.0	146.8	221.8	257.2	534.9	2068	1138	373.3	368.5	368.4	361.4	342.7	323.2	288.8	256.8	226.7	198.2	183.2	171.2	162.2	158.5	152.4	148.2	149.3	148.4	147.7	149.1	149.3	147.3	145.3	142.1	135.4	121.7	106.7	94.34	82.25	71.16	61.92	53.05	52.75	52.95	37.95	27.39	21.81	17.81	15.26	13.06	10.42	8.848	9.138	12.33	21.19	95.36	517.5	785.9	145.7	4.373	2.394	2.113	2.041	1.803	1.815	1.879	1.951	1.896	1.970	1.800	1.722	1.615	1.599	1.779	1.616	1.396	1.454	1.492	1.404	1.425	1.380
490.0	121.0	227.7	253.3	333.4	1179	1957	594.6	338.0	337.0	330.7	318.7	296.6	266.1	234.3	208.5	182.6	166.6	155.1	147.5	142.8	138.0	135.9	134.7	134.0	133.2	134.8	133.0	131.9	131.3	128.2	122.4	111.8	99.54	88.58	77.65	67.34	58.64	50.22	45.47	45.67	42.35	31.65	23.37	18.95	15.70	13.94	11.16	9.588	8.233	7.691	8.743	24.91	129.6	408.0	653.0	311.5	13.00	2.249	2.059	1.882	1.897	1.932	1.845	1.799	1.803	1.733	1.586	1.589	1.575	1.602	1.459	1.420	1.394	1.354	1.313	1.327	1.355
495.0	114.4	187.4	256.7	271.8	494.5	1775	1452	332.9	302.4	302.6	289.0	270.1	238.0	206.6	183.0	163.7	150.3	139.5	132.4	126.3	121.8	121.2	120.9	119.7	118.6	118.4	118.5	117.8	117.8	115.6	107.9	102.0	89.44	80.43	70.19	62.91	55.09	47.08	42.47	38.63	38.84	36.11	26.28	19.41	15.91	14.39	11.84	10.07	8.607	6.929	6.189	9.247	32.07	94.20	249.3	724.6	226.3	16.83	2.035	1.773	1.851	1.718	1.745	1.647	1.557	1.620	1.418	1.489	1.441	1.398	1.312	1.261	1.229	1.313	1.263	1.231	1.224
500.0	94.73	154.8	259.2	236.2	304.2	1052	2161	390.9	281.4	275.0	266.9	248.2	219.1	192.0	171.4	148.2	133.2	128.0	121.3	114.4	111.4	110.0	107.6	107.5	107.2	106.0	105.4	106.0	106.8	105.0	98.98	91.80	82.15	73.93	66.13	58.14	51.12	44.12	39.26	35.34	33.69	34.94	29.61	20.65	16.69	13.89	12.05	10.36	8.807	7.026	5.817	5.908	10.44	23.92	59.95	313.7	749.0	209.2	10.52	1.888	1.700	1.585	1.719	1.513	1.498	1.498	1.410	1.270	1.396	1.255	1.330	1.196	1.315	1.077	1.140	1.207	1.222
505.0	79.12	142.1	243.7	236.8	249.8	505.3	2168	1047	269.7	251.8	248.4	227.5	204.1	176.4	153.1	137.9	125.4	115.5	110.2	104.9	99.89	98.65	97.03	96.60	97.15	95.32	95.49	95.62	95.65	94.26	91.82	84.86	76.62	67.67	60.57	53.18	48.37	42.11	37.39	32.98	29.98	29.80	30.78	23.49	16.80	13.93	12.07	10.23	8.723	7.598	5.967	5.080	5.754	8.359	16.11	76.82	405.8	717.2	168.3	5.374	1.665	1.516	1.567	1.394	1.455	1.412	1.235	1.267	1.351	1.125	1.297	1.143	1.106	0.996	1.025	1.012	1.109
510.0	74.16	113.3	190.2	258.4	214.3	272.2	1177	2022	483.8	222.7	216.8	200.8	179.9	155.4	136.6	120.3	108.9	100.8	96.40	91.95	86.93	85.76	85.10	83.75	84.43	83.07	83.13	83.25	82.88	82.04	79.94	73.79	67.25	59.92	54.71	48.07	43.06	38.62	33.62	29.51	26.55	24.74	25.87	25.23	18.60	14.05	11.63	9.973	8.565	7.311	6.398	5.284	4.725	4.844	6.193	19.59	99.05	329.1	536.1	260.6	13.46	1.763	1.456	1.348	1.254	1.229	1.133	1.152	1.161	1.098	1.010	1.016	1.022	0.913	0.958	1.010	1.007
515.0	63.02	104.0	140.1	231.9	221.7	195.5	423.6	1881	1446	224.7	192.2	177.9	154.4	138.2	119.5	104.5	92.34	87.61	81.41	79.70	75.60	72.14	72.25	71.06	73.05	71.26	70.84	70.41	72.92	69.25	67.15	63.58	58.64	51.82	47.00	42.54	37.70	33.27	29.88	26.97	23.85	21.20	20.52	21.98	21.23	15.23	11.38	9.662	8.475	6.869	6.147	5.535	4.825	4.067	3.934	6.807	24.19	75.52	169.8	507.3	232.6	19.12	1.569	1.180	1.214	1.264	1.121	1.145	1.061	0.994	0.955	1.051	0.885	0.969	0.960	0.876	0.961
520.0	57.01	88.73	119.3	190.4	227.5	172.3	222.9	1062	2301	285.6	170.7	159.0	140.1	124.8	107.9	94.57	84.46	77.20	72.90	70.55	68.11	65.08	63.62	63.21	63.83	63.70	63.21	63.35	65.16	63.44	61.50	56.84	51.87	47.64	42.53	39.03	33.67	31.08	28.11	24.62	22.04	19.72	18.07	18.14	20.57	17.24	12.29	9.258	7.797	6.967	5.934	5.407	4.700	3.841	3.245	3.922	7.719	18.73	40.41	197.5	532.1	211.7	11.94	1.412	1.179	1.076	1.059	0.991	1.006	1.015	0.913	0.879	0.957	0.772	0.839	0.866	0.867
525.0	52.20	79.57	106.5	146.3	234.6	167.8	168.1	444.2	2402	943.1	161.7	139.9	127.3	111.3	98.34	84.46	76.21	71.19	64.94	63.79	60.97	58.35	57.75	56.32	56.88	56.10	56.59	56.23	56.21	55.55	54.89	50.81	47.29	43.33	38.90	34.87	31.75	28.75	25.35	23.17	20.38	18.19	16.35	15.48	17.09	18.37	13.43	9.338	7.543	6.712	5.579	5.378	4.750	4.238	3.330	3.178	3.786	6.138	11.00	47.60	253.5	513.0	162.5	5.754	1.168	1.104	0.891	0.931	0.784	0.925	0.840	0.754	0.849	0.767	0.787	0.864	0.730
530.0	49.49	73.14	90.30	117.0	188.1	183.6	146.4	206.6	1228	2083	373.9	124.0	112.2	96.01	85.34	73.05	66.70	61.54	56.81	53.74	51.66	50.57	49.89	48.46	48.33	48.35	48.05	48.08	48.26	48.21	46.61	43.74	40.64	37.32	33.30	31.01	28.09	24.94	22.46	20.05	18.40	16.29	14.70	13.08	13.16	15.27	14.36	10.54	7.576	6.235	5.455	4.817	4.285	4.069	3.677	2.975	2.781	3.342	4.188	12.21	60.82	212.3	366.8	215.0	13.85	1.344	1.003	0.828	0.846	0.847	0.759	0.703	0.841	0.746	0.684	0.710	0.705
535.0	43.23	56.48	84.43	94.46	129.7	195.9	133.3	136.3	391.6	1902	1338	124.8	95.16	82.62	71.66	63.67	58.38	51.09	50.30	46.75	44.18	41.72	42.21	41.38	41.26	41.36	40.87	40.80	40.85	40.94	39.47	37.37	34.75	31.25	28.68	26.79	23.74	21.76	19.48	17.55	15.84	14.50	13.24	12.17	10.97	11.33	12.40	11.98	8.077	5.843	4.953	4.409	3.873	3.760	3.470	3.018	2.621	2.507	2.554	4.233	14.92	48.73	106.6	363.9	231.9	19.57	1.138	0.944	0.789	0.842	0.672	0.655	0.680	0.788	0.674	0.697	0.651
540.0	38.89	54.37	71.77	84.63	102.8	173.3	146.9	113.4	172.9	963.8	2278	198.9	87.02	73.16	63.21	56.99	50.48	45.32	42.58	40.67	38.17	37.13	37.21	36.52	35.75	35.55	35.99	35.41	36.15	34.93	34.44	32.81	30.38	27.57	25.32	23.85	21.52	19.47	17.24	15.59	14.06	12.61	12.28	10.91	9.670	9.033	9.861	11.29	9.021	6.032	4.755	4.150	3.630	3.278	3.206	3.171	2.522	2.470	2.158	2.418	4.681	12.12	25.15	130.7	359.7	198.7	12.30	0.996	0.720	0.721	0.704	0.684	0.671	0.638	0.539	0.579	0.599
545.0	42.12	47.89	66.54	75.72	82.05	134.3	161.8	102.6	109.6	358.7	2315	738.3	79.78	66.17	55.49	48.90	43.35	41.15	38.33	35.90	33.56	33.71	32.19	32.25	32.53	31.24	30.54	31.05	31.41	30.91	29.99	28.24	26.63	23.99	22.37	20.56	18.87	17.25	15.69	13.81	12.51	11.88	10.80	9.456	8.671	8.120	7.890	9.429	9.174	6.578	4.424	4.004	3.468	3.131	2.905	2.821	2.946	2.230	1.994	1.967	2.240	3.881	6.666	31.08	152.9	356.8	142.2	5.015	0.737	0.712	0.688	0.621	0.623	0.669	0.622	0.519	0.565
550.0	40.80	50.17	63.28	67.96	69.59	90.50	152.0	109.7	86.12	143.7	1077	1799	139.9	56.74	47.72	41.75	37.21	33.97	31.76	29.89	28.63	27.77	26.87	26.89	26.79	25.80	25.70	26.01	25.64	25.68	25.64	23.82	22.13	20.23	18.59	17.31	15.52	14.47	13.15	11.84	10.59	9.991	9.109	8.320	7.518	6.932	6.585	6.857	7.741	7.289	5.093	3.576	3.105	2.887	2.690	2.286	2.595	2.554	1.950	1.715	1.606	2.054	2.531	7.909	36.20	135.0	247.4	132.4	13.57	0.924	0.658	0.605	0.527	0.549	0.551	0.479	0.466
555.0	44.69	48.71	59.86	57.15	61.52	66.88	108.2	129.8	71.11	81.61	310.0	1747	916.7	53.34	40.13	36.78	30.16	27.88	26.13	24.27	23.42	22.26	22.27	20.97	21.09	20.22	20.27	21.20	21.05	21.00	20.62	18.84	17.72	16.31	14.88	13.93	13.03	11.45	10.88	9.979	8.986	7.977	7.943	6.988	6.512	5.962	5.542	5.271	5.470	6.082	5.568	3.939	2.648	2.486	2.394	2.107	2.052	2.157	2.266	1.675	1.415	1.398	1.497	2.637	8.992	30.80	69.26	202.8	190.7	17.55	0.891	0.676	0.606	0.571	0.484	0.407	0.495
560.0	38.89	46.38	61.71	53.56	50.12	52.52	76.82	137.8	72.33	65.33	115.5	858.8	1772	108.1	33.91	29.74	26.67	24.02	21.55	20.68	19.44	19.38	19.04	17.68	17.52	17.44	17.27	18.17	17.95	18.20	17.07	15.81	15.54	13.90	12.88	11.69	11.14	9.981	9.408	8.391	7.782	7.010	6.754	6.076	5.707	5.199	4.510	4.456	4.068	4.712	5.319	4.290	2.616	2.203	2.100	1.891	1.884	1.829	2.121	1.891	1.358	1.257	1.202	1.348	2.864	7.753	16.44	69.20	228.7	142.4	9.644	0.689	0.554	0.559	0.498	0.513	0.468
565.0	38.37	50.86	56.65	50.11	44.53	46.12	54.69	118.5	86.45	56.81	67.02	294.3	1942	442.4	29.76	25.75	23.77	21.20	19.01	17.90	16.49	16.55	15.69	14.68	15.04	14.96	15.01	14.87	15.51	15.01	14.35	13.59	13.12	11.73	11.23	9.566	9.545	8.493	8.025	7.472	6.539	6.135	5.752	5.446	5.158	4.602	4.206	3.947	3.541	3.596	4.405	4.273	2.801	2.099	1.914	1.851	1.658	1.583	1.605	1.917	1.517	1.213	1.088	1.029	1.420	2.564	4.521	16.50	89.61	218.5	94.81	3.859	0.594	0.464	0.511	0.511	0.485
570.0	40.54	53.23	55.09	45.90	39.70	38.93	42.84	78.57	111.1	55.81	52.72	104.1	939.5	1301	76.36	22.14	18.17	16.71	15.91	14.51	13.37	13.23	12.78	12.21	12.14	12.39	12.11	12.19	12.28	11.77	11.94	10.98	10.38	9.680	8.952	7.910	7.750	7.097	6.503	6.127	5.458	4.909	4.614	4.455	4.201	3.675	3.396	3.195	2.960	2.782	3.072	3.515	3.115	2.152	1.809	1.603	1.459	1.478	1.359	1.485	1.593	1.309	1.062	1.020	1.109	1.321	1.631	4.275	21.22	78.25	146.4	90.96	12.10	0.684	0.489	0.458	0.395
575.0	37.79	48.71	48.64	39.96	36.10	32.97	33.70	50.04	103.8	69.81	47.17	56.12	255.9	1354	568.2	20.62	15.39	14.01	12.40	11.86	11.23	10.33	10.55	9.695	9.712	9.744	9.752	9.837	9.983	9.656	9.451	8.815	8.324	7.854	6.983	6.784	6.064	5.784	5.155	5.055	4.633	4.016	4.043	3.640	3.299	3.280	3.000	2.809	2.407	2.149	2.063	2.378	2.768	2.524	1.828	1.375	1.184	1.196	1.172	1.079	1.354	1.480	1.111	0.945	0.844	0.949	0.968	1.543	5.368	18.22	39.46	115.1	118.2	15.25	0.579	0.481	0.386
580.0	43.73	50.66	50.62	38.73	31.98	29.06	31.72	37.55	82.88	91.01	46.62	43.86	84.38	691.4	1040	47.11	12.82	12.05	11.19	10.14	9.319	8.931	9.232	8.101	8.484	8.129	8.074	8.097	8.009	8.419	7.856	7.792	6.984	6.322	6.079	5.689	5.326	4.746	4.529	4.132	3.851	3.445	3.383	3.079	2.969	2.860	2.447	2.361	2.115	1.777	1.752	1.821	2.350	2.584	1.991	1.292	1.028	1.119	1.051	1.010	1.024	1.292	1.330	1.034	0.851	0.890	0.863	0.998	1.774	4.691	9.451	37.74	131.4	94.01	7.464	0.616	0.405
585.0	41.65	49.49	47.78	42.04	28.69	26.87	28.41	31.99	57.22	105.6	53.12	41.22	44.61	231.6	1335	111.6	11.56	9.536	9.173	8.729	8.295	7.605	8.335	7.524	7.195	7.275	6.695	6.820	6.783	6.990	6.906	6.562	6.302	5.414	5.175	4.840	4.579	4.129	4.155	3.701	3.373	3.230	2.965	2.787	2.679	2.654	2.225	2.004	1.822	1.648	1.543	1.527	1.773	2.286	2.128	1.360	1.057	0.942	1.027	0.785	1.020	0.964	1.308	1.122	0.863	0.761	0.809	0.856	1.026	1.585	2.659	9.111	48.61	127.6	34.59	3.176	0.374
590.0	36.20	44.51	43.39	38.87	27.61	24.86	25.32	28.14	39.60	88.07	71.67	40.68	35.73	74.89	677.4	775.6	37.58	8.496	8.178	7.283	6.755	6.199	6.593	6.097	6.088	5.399	5.653	5.765	5.701	5.733	5.558	5.251	4.924	4.544	4.246	3.931	3.685	3.416	3.225	3.086	2.739	2.490	2.315	2.272	2.091	1.957	1.898	1.675	1.561	1.448	1.342	1.291	1.265	1.499	2.024	1.532	1.154	0.916	0.924	0.825	0.792	0.777	1.003	1.121	0.999	0.781	0.693	0.767	0.749	0.874	1.099	2.541	11.44	43.32	78.37	60.13	10.99
595.0	35.38	43.91	39.41	36.34	25.28	21.95	25.47	26.62	31.10	55.27	90.80	45.60	33.84	35.10	180.7	896.5	275.9	8.280	6.897	5.804	6.036	5.347	4.990	4.794	5.074	4.574	4.702	4.621	4.625	4.699	4.459	4.127	3.948	3.884	3.338	3.086	3.013	2.954	2.635	2.482	2.395	2.160	1.852	1.935	1.707	1.653	1.654	1.492	1.240	1.328	1.037	1.104	1.008	1.128	1.442	1.585	1.406	0.942	0.877	0.714	0.803	0.706	0.742	0.845	1.153	0.866	0.732	0.619	0.654	0.699	0.672	0.986	2.878	10.10	20.32	63.40	76.40
600.0	33.33	41.31	37.28	33.03	22.76	23.01	23.73	26.86	31.94	40.84	91.42	53.24	32.70	27.63	54.48	500.5	653.8	19.06	6.177	5.184	5.046	4.640	4.340	4.314	4.149	4.182	3.961	4.000	3.813	4.105	3.943	3.664	3.431	3.277	2.954	2.713	2.603	2.327	2.062	2.132	2.035	1.918	1.684	1.575	1.486	1.367	1.489	1.376	1.261	1.076	0.947	1.018	0.898	0.932	0.991	1.312	1.279	0.969	0.753	0.655	0.701	0.616	0.694	0.764	0.870	0.985	0.752	0.604	0.545	0.625	0.582	0.624	1.051	2.619	4.933	19.39	73.37
605.0	36.61	38.99	38.15	33.79	21.19	22.13	23.03	22.60	28.08	35.33	72.54	68.52	33.86	26.51	25.59	170.5	821.3	73.27	5.862	4.366	4.374	3.956	3.834	3.562	3.693	3.768	3.468	3.498	3.305	3.346	3.440	3.255	2.919	3.032	2.584	2.323	2.221	2.126	1.850	1.911	1.662	1.518	1.515	1.454	1.239	1.218	1.159	1.225	1.052	0.987	0.888	0.878	0.827	0.733	0.764	1.017	1.261	1.138	0.777	0.650	0.649	0.591	0.640	0.596	0.722	0.877	0.884	0.601	0.569	0.541	0.583	0.497	0.613	0.958	1.415	4.670	25.66
610.0	30.50	37.18	36.67	30.83	22.90	21.67	20.18	23.06	27.76	33.12	51.39	79.57	40.83	26.04	19.72	49.65	473.9	446.2	16.07	3.939	3.765	3.615	3.170	3.026	2.942	2.954	2.922	2.834	2.764	2.740	2.765	2.627	2.342	2.407	2.093	1.995	1.828	1.731	1.574	1.579	1.344	1.292	1.274	1.160	1.094	1.035	1.052	0.965	0.875	0.819	0.764	0.714	0.770	0.590	0.669	0.695	1.002	1.040	0.843	0.689	0.615	0.570	0.550	0.590	0.594	0.604	0.816	0.808	0.612	0.561	0.546	0.469	0.503	0.579	0.690	1.381	6.126
615.0	29.50	33.59	32.28	27.14	23.32	20.24	21.27	23.95	26.18	32.22	37.88	67.84	55.42	26.54	18.50	19.95	129.5	597.0	75.81	3.626	3.198	2.795	2.830	2.459	2.356	2.305	2.533	2.437	2.354	2.372	2.220	2.254	2.018	1.866	1.679	1.770	1.524	1.359	1.205	1.265	1.143	1.145	1.075	0.980	0.922	0.893	0.856	0.762	0.808	0.736	0.630	0.677	0.647	0.587	0.580	0.612	0.672	0.817	0.990	0.733	0.596	0.476	0.468	0.549	0.568	0.531	0.611	0.774	0.765	0.624	0.443	0.559	0.409	0.488	0.427	0.642	1.657
620.0	26.20	35.72	31.18	27.10	21.31	18.78	18.80	22.30	25.90	29.44	33.91	52.76	67.95	28.49	18.45	13.18	36.78	382.8	366.2	7.268	2.830	2.403	2.438	2.026	2.144	2.088	2.056	2.119	1.952	1.954	1.898	1.944	1.804	1.710	1.548	1.495	1.271	1.181	1.255	1.089	0.981	0.979	0.896	0.822	0.895	0.880	0.679	0.715	0.691	0.659	0.590	0.575	0.486	0.497	0.453	0.495	0.466	0.648	0.940	0.803	0.631	0.498	0.457	0.516	0.522	0.557	0.516	0.643	0.785	0.649	0.521	0.469	0.403	0.363	0.421	0.446	0.634
625.0	25.59	34.11	34.79	24.89	19.50	17.68	19.37	22.92	25.13	26.92	32.56	40.94	67.71	32.32	17.92	11.46	14.50	142.0	545.3	43.66	2.993	2.367	2.146	1.950	1.880	1.833	1.686	1.640	1.758	1.647	1.646	1.648	1.566	1.312	1.393	1.279	1.125	1.184	0.998	0.990	0.958	0.936	0.854	0.716	0.816	0.802	0.651	0.614	0.633	0.543	0.510	0.485	0.530	0.495	0.460	0.476	0.477	0.538	0.749	0.719	0.701	0.459	0.485	0.479	0.499	0.547	0.500	0.484	0.558	0.670	0.581	0.505	0.370	0.392	0.426	0.382	0.419
630.0	27.84	29.07	30.70	25.82	20.35	16.83	18.36	20.63	23.64	27.42	32.41	35.84	52.93	44.92	19.24	11.47	9.546	38.46	362.1	305.0	6.836	2.248	1.895	1.741	1.709	1.552	1.593	1.599	1.555	1.364	1.403	1.385	1.367	1.112	1.099	1.132	0.975	1.015	0.886	0.789	0.809	0.701	0.739	0.664	0.712	0.612	0.534	0.558	0.511	0.485	0.467	0.465	0.445	0.473	0.394	0.413	0.468	0.465	0.525	0.649	0.702	0.557	0.541	0.440	0.465	0.428	0.417	0.468	0.509	0.604	0.619	0.529	0.447	0.405	0.376	0.375	0.374
635.0	26.11	32.60	27.71	21.43	19.75	18.76	17.89	19.93	22.60	27.24	30.57	31.33	39.64	50.41	22.90	12.02	8.828	13.30	103.3	496.1	53.01	2.144	1.645	1.655	1.511	1.368	1.247	1.242	1.339	1.210	1.253	1.136	1.126	1.062	0.968	0.969	0.860	0.847	0.742	0.683	0.763	0.665	0.644	0.554	0.611	0.555	0.517	0.486	0.427	0.435	0.411	0.433	0.345	0.498	0.381	0.395	0.417	0.395	0.467	0.502	0.546	0.525	0.497	0.476	0.459	0.353	0.437	0.488	0.417	0.455	0.518	0.593	0.456	0.406	0.343	0.328	0.371
640.0	22.46	32.38	24.37	23.92	19.01	17.19	18.63	19.63	22.96	26.30	30.25	33.07	32.44	47.93	29.80	13.18	8.912	8.351	28.20	363.5	222.4	3.172	1.669	1.541	1.326	1.217	1.228	1.079	1.250	1.203	1.060	1.078	1.051	1.032	1.011	0.844	0.841	0.857	0.741	0.717	0.592	0.617	0.546	0.492	0.548	0.520	0.444	0.386	0.415	0.394	0.335	0.391	0.357	0.419	0.360	0.350	0.399	0.340	0.431	0.409	0.470	0.534	0.480	0.475	0.374	0.330	0.430	0.499	0.404	0.402	0.488	0.584	0.543	0.428	0.373	0.322	0.327
645.0	24.59	32.34	25.75	23.38	16.96	16.61	18.70	19.06	23.00	26.93	28.65	31.43	31.18	38.86	36.73	15.28	9.913	7.245	10.61	152.4	375.2	20.69	1.624	1.457	1.245	1.258	1.141	1.177	1.060	1.104	1.031	0.965	0.947	0.999	0.799	0.815	0.808	0.811	0.668	0.675	0.561	0.570	0.452	0.530	0.480	0.474	0.492	0.411	0.397	0.346	0.320	0.305	0.390	0.360	0.370	0.332	0.372	0.331	0.378	0.410	0.423	0.476	0.450	0.467	0.419	0.339	0.416	0.485	0.436	0.403	0.399	0.507	0.610	0.490	0.360	0.336	0.354
650.0	27.37	33.56	27.29	25.73	18.03	18.19	17.57	19.05	23.60	25.02	29.06	30.51	31.25	31.58	39.39	17.15	10.12	7.871	6.744	43.76	358.3	64.04	1.679	1.356	1.148	0.994	0.993	0.970	0.946	0.936	1.004	1.006	0.853	0.990	0.867	0.703	0.700	0.729	0.705	0.621	0.518	0.569	0.502	0.478	0.425	0.399	0.439	0.444	0.355	0.337	0.326	0.336	0.313	0.356	0.369	0.359	0.336	0.333	0.402	0.422	0.415	0.425	0.439	0.451	0.391	0.411	0.449	0.445	0.434	0.470	0.420	0.422	0.521	0.578	0.432	0.332	0.408
