Sample:	'1
File name:	Default_20230821_113323.FD3
Run date:	'11:27:02, 08/21/2023
Operator:	dsjg
Comment:	'

Instrument
Model:	F-2700 FL Spectrophotometer
Serial number:	2198-001
ROM Version:	4J14000 07

Instrument parameters
Measurement type:	3-D scan
Data mode:	Fluorescence
EX  Start WL:	220.0 nm
EX  End WL:	600.0 nm
EX Sampling interval:	5.0 nm
EM  Start WL:	230.0 nm
EM  End WL:	650.0 nm
EM Sampling interval:	5.0 nm
Scan speed:	12000 nm/min
EX Slit:	5.0 nm
EM Slit:	5.0 nm
PMT Voltage:	700 V
Response:	Auto 
Corrected spectra:	Off
Contour interval:	50.000

Peak integration
Integration method:	Rectangular
Sensitivity:	1
Threshold:	1.000

Peaks
No.	ApexEX/EM(nm)	Height(Data)
1	225.0/355.0	518.3
2	250.0/415.0	698.9
3	255.0/410.0	698.9
4	260.0/415.0	701.7
5	265.0/410.0	699.4
6	270.0/300.0	327.5
7	275.0/305.0	375.3
8	280.0/310.0	368.1
9	280.0/620.0	28.44
10	285.0/320.0	376.0
11	290.0/325.0	353.6
12	305.0/345.0	266.1
13	310.0/350.0	249.6
14	315.0/355.0	262.9

Data points
	220.0	225.0	230.0	235.0	240.0	245.0	250.0	255.0	260.0	265.0	270.0	275.0	280.0	285.0	290.0	295.0	300.0	305.0	310.0	315.0	320.0	325.0	330.0	335.0	340.0	345.0	350.0	355.0	360.0	365.0	370.0	375.0	380.0	385.0	390.0	395.0	400.0	405.0	410.0	415.0	420.0	425.0	430.0	435.0	440.0	445.0	450.0	455.0	460.0	465.0	470.0	475.0	480.0	485.0	490.0	495.0	500.0	505.0	510.0	515.0	520.0	525.0	530.0	535.0	540.0	545.0	550.0	555.0	560.0	565.0	570.0	575.0	580.0	585.0	590.0	595.0	600.0
230.0	484.2	 3501	 3623	510.4	11.09	3.419	2.958	2.443	1.855	1.678	1.584	1.523	1.454	1.146	1.016	0.949	0.806	0.893	0.722	0.751	0.644	0.603	0.690	0.614	0.600	0.586	0.517	0.557	0.500	0.525	0.502	0.515	0.482	0.486	0.475	0.583	0.590	0.511	0.441	0.499	0.496	0.644	0.642	0.504	0.384	0.411	0.868	4.313	8.805	7.510	3.410	0.714	0.330	0.251	0.231	0.245	0.223	0.238	0.202	0.177	0.159	0.172	0.173	0.137	0.148	0.126	0.126	0.117	0.110	0.090	0.095	0.061	0.087	0.065	0.062	0.081	0.059
235.0	159.5	 1058	 2910	 2762	469.0	14.62	3.817	2.903	2.509	1.658	1.782	1.912	1.426	1.373	0.945	0.866	0.700	0.864	0.741	0.817	0.797	0.647	0.689	0.595	0.631	0.523	0.539	0.593	0.455	0.502	0.575	0.532	0.363	0.439	0.465	0.535	0.615	0.484	0.466	0.455	0.506	0.520	0.600	0.671	0.556	0.479	0.463	1.331	2.822	4.991	7.489	9.216	4.520	1.057	0.314	0.276	0.266	0.248	0.207	0.199	0.157	0.195	0.180	0.115	0.123	0.090	0.141	0.101	0.112	0.116	0.089	0.090	0.081	0.058	0.051	0.060	0.037
240.0	110.9	273.2	 1046	 2909	 2686	332.7	8.495	3.600	3.226	2.747	1.952	2.095	1.498	1.401	1.076	1.143	0.889	0.916	1.059	0.893	0.796	0.751	0.674	0.589	0.631	0.601	0.501	0.620	0.523	0.564	0.523	0.533	0.411	0.414	0.402	0.467	0.510	0.540	0.589	0.486	0.508	0.468	0.445	0.561	0.601	0.631	0.555	0.553	0.887	1.534	3.476	8.361	11.31	9.020	3.321	0.637	0.278	0.273	0.184	0.206	0.192	0.217	0.168	0.179	0.109	0.124	0.121	0.115	0.126	0.113	0.152	0.077	0.040	0.043	0.066	0.086	0.050
245.0	93.57	137.5	264.5	 1271	 3555	 2422	227.3	5.767	3.195	3.046	2.028	2.088	1.171	1.463	1.062	1.098	1.067	0.910	0.915	0.820	0.832	0.640	0.630	0.527	0.619	0.701	0.556	0.605	0.676	0.594	0.484	0.557	0.502	0.499	0.361	0.430	0.399	0.440	0.587	0.536	0.477	0.512	0.452	0.442	0.507	0.602	0.678	0.647	0.612	0.654	1.024	2.789	6.590	12.18	12.99	7.316	1.920	0.330	0.239	0.255	0.202	0.167	0.163	0.158	0.081	0.155	0.186	0.104	0.115	0.135	0.145	0.077	0.030	0.038	0.068	0.078	0.036
250.0	49.65	106.1	138.5	326.8	 1397	 3310	 3311	774.6	32.85	4.045	3.489	2.845	1.878	1.877	1.443	1.169	1.066	0.967	0.954	0.815	0.866	0.653	0.752	0.618	0.715	0.740	0.616	0.682	0.612	0.655	0.512	0.509	0.529	0.454	0.405	0.404	0.407	0.419	0.492	0.450	0.509	0.483	0.460	0.477	0.452	0.500	0.519	0.613	0.719	0.630	0.587	0.904	1.823	3.899	6.964	10.73	12.92	11.74	6.730	2.142	0.398	0.165	0.189	0.133	0.144	0.129	0.142	0.110	0.137	0.128	0.134	0.102	0.073	0.062	0.056	0.067	0.047
255.0	31.84	43.99	105.6	163.7	333.1	986.8	 3480	 3279	344.0	27.59	5.186	4.128	2.823	2.143	2.043	1.504	1.166	1.124	1.052	0.809	0.949	0.851	0.649	0.642	0.817	0.729	0.575	0.546	0.539	0.640	0.671	0.513	0.523	0.557	0.439	0.456	0.350	0.451	0.377	0.423	0.550	0.536	0.449	0.465	0.533	0.381	0.444	0.465	0.484	0.585	0.671	0.799	0.738	1.154	1.786	2.816	4.843	10.57	18.93	19.62	10.65	2.428	0.311	0.180	0.165	0.122	0.176	0.081	0.160	0.135	0.133	0.111	0.076	0.108	0.051	0.081	0.060
260.0	27.68	20.33	52.11	139.1	147.3	239.5	 1281	 4079	 4436	277.4	15.53	4.462	3.650	3.247	2.137	2.151	1.370	1.189	1.127	0.963	0.902	0.844	0.822	0.711	0.758	0.649	0.711	0.534	0.644	0.555	0.562	0.624	0.492	0.526	0.468	0.497	0.427	0.555	0.367	0.390	0.396	0.553	0.474	0.541	0.428	0.457	0.447	0.399	0.414	0.464	0.551	0.834	0.802	0.664	0.684	0.844	1.333	3.121	8.286	17.66	25.09	19.68	7.783	1.152	0.228	0.164	0.226	0.167	0.142	0.147	0.159	0.098	0.074	0.083	0.059	0.072	0.067
265.0	28.39	16.91	23.21	77.96	147.2	103.1	313.2	 1777	 5240	 2403	225.3	8.244	4.956	4.128	2.388	2.084	1.597	1.245	1.281	1.034	0.850	0.723	0.903	0.924	0.852	0.776	0.809	0.625	0.634	0.633	0.574	0.660	0.609	0.514	0.471	0.438	0.408	0.423	0.379	0.305	0.433	0.485	0.507	0.522	0.470	0.419	0.435	0.363	0.381	0.430	0.397	0.574	0.694	0.905	0.685	0.509	0.506	0.944	2.131	5.520	13.69	24.69	27.73	16.78	4.302	0.406	0.211	0.148	0.109	0.156	0.145	0.102	0.098	0.089	0.181	0.084	0.059
270.0	42.92	25.19	18.30	28.69	85.50	135.2	135.9	434.8	 1858	 4017	 3952	932.8	52.33	5.365	3.368	2.859	2.024	1.589	1.748	1.253	1.105	0.928	0.867	0.849	0.944	0.740	0.785	0.706	0.762	0.678	0.712	0.586	0.590	0.515	0.477	0.510	0.467	0.446	0.402	0.400	0.393	0.378	0.472	0.517	0.554	0.440	0.483	0.463	0.465	0.454	0.366	0.405	0.433	0.567	0.698	0.829	0.850	0.626	0.772	1.452	3.457	7.488	13.51	20.28	24.28	21.34	12.65	4.044	0.349	0.149	0.161	0.141	0.096	0.074	0.121	0.069	0.086
275.0	75.53	41.75	26.99	20.54	29.62	84.73	163.2	172.2	435.0	 1117	 3551	 6161	 1399	59.85	5.746	4.150	2.988	2.262	1.822	1.453	1.476	1.197	1.033	0.925	0.860	0.872	0.944	0.604	0.826	0.735	0.588	0.687	0.576	0.588	0.649	0.473	0.539	0.611	0.424	0.404	0.441	0.453	0.426	0.539	0.667	0.509	0.557	0.611	0.502	0.479	0.390	0.356	0.313	0.430	0.408	0.596	0.852	0.984	0.894	0.692	1.044	1.904	3.233	4.952	7.972	16.79	29.52	30.82	18.63	3.238	0.251	0.141	0.122	0.114	0.133	0.084	0.044
280.0	95.12	65.36	39.41	18.51	17.89	34.37	122.1	179.5	150.9	279.1	 1181	 4833	 6726	 1089	21.07	4.764	4.232	2.943	2.339	1.682	1.631	1.421	1.170	1.102	0.876	0.797	0.967	0.739	0.823	0.708	0.677	0.635	0.697	0.676	0.745	0.588	0.653	0.614	0.511	0.466	0.504	0.466	0.542	0.544	0.646	0.679	0.650	0.732	0.575	0.522	0.434	0.429	0.350	0.306	0.384	0.383	0.465	0.791	1.061	1.027	0.855	0.692	0.895	1.352	2.049	4.567	11.71	24.49	37.38	28.53	11.66	0.884	0.113	0.122	0.131	0.103	0.106
285.0	116.9	89.10	57.61	26.20	18.22	20.93	64.20	165.5	170.3	110.1	310.0	 1751	 5953	 6674	143.4	9.146	4.752	3.682	2.670	1.968	1.734	1.385	1.404	1.099	0.997	0.831	0.810	0.911	0.841	0.828	0.765	0.719	0.646	0.704	0.778	0.846	0.694	0.685	0.634	0.508	0.565	0.518	0.557	0.569	0.697	0.827	0.789	0.859	0.668	0.544	0.479	0.438	0.359	0.406	0.353	0.347	0.419	0.515	0.743	1.053	1.224	0.896	0.584	0.572	0.711	1.275	2.972	7.226	17.54	32.69	38.86	22.35	5.014	0.292	0.141	0.139	0.162
290.0	157.9	125.5	81.95	42.41	30.26	28.86	43.92	93.23	185.5	195.1	158.9	471.7	 1924	 4886	 5302	 2058	37.96	5.142	3.774	2.769	2.114	1.758	1.622	1.420	1.086	1.143	0.942	0.902	0.954	0.936	0.775	0.753	0.683	0.813	0.917	0.956	0.898	0.854	0.779	0.702	0.701	0.681	0.702	0.665	0.724	0.825	0.828	0.900	0.764	0.608	0.556	0.477	0.456	0.463	0.417	0.384	0.379	0.425	0.507	0.622	0.831	1.078	1.162	1.057	0.707	0.707	1.124	2.080	4.462	9.550	17.13	25.47	28.28	26.40	13.04	3.266	0.288
295.0	191.2	166.2	113.0	62.47	48.72	42.26	49.13	71.25	122.9	239.7	268.6	223.7	521.5	 1278	 3073	 6783	854.8	41.20	5.616	4.118	2.552	2.143	1.912	1.740	1.400	1.377	1.116	0.911	1.132	0.930	0.966	0.924	0.671	0.838	0.961	1.062	1.128	0.992	1.043	0.792	0.747	0.725	0.771	0.800	0.866	0.833	0.876	0.920	0.920	0.819	0.653	0.595	0.473	0.511	0.511	0.376	0.556	0.445	0.491	0.632	0.593	0.695	0.868	1.353	1.527	1.321	0.868	1.032	1.515	2.662	4.267	6.233	9.073	19.23	37.33	33.02	17.64
300.0	213.2	184.5	137.6	79.70	61.73	52.85	62.20	74.00	106.6	198.4	327.5	262.5	241.2	374.6	961.6	 4252	 6808	691.1	18.71	5.097	3.522	2.952	2.102	1.927	1.750	1.442	1.328	1.281	1.188	0.954	1.098	0.925	0.810	0.801	1.065	1.155	1.261	1.077	1.147	0.908	0.751	0.794	0.784	0.735	0.924	0.820	0.949	0.894	0.950	0.860	0.749	0.680	0.590	0.537	0.555	0.521	0.587	0.526	0.584	0.619	0.633	0.788	0.740	0.908	1.440	1.830	1.544	1.118	1.093	1.261	1.508	1.895	2.420	5.323	14.39	30.92	47.44
305.0	231.3	213.2	157.9	97.74	68.59	64.18	73.17	90.45	114.6	167.2	290.4	375.3	227.3	193.3	290.6	 1391	 5291	 6011	92.22	8.826	4.521	3.417	2.751	2.348	2.039	1.624	1.448	1.316	1.248	1.037	1.086	0.946	0.903	0.986	1.226	1.177	1.199	1.195	1.123	0.953	0.849	0.850	0.902	0.759	0.920	0.898	0.957	0.922	0.888	0.767	0.822	0.744	0.590	0.578	0.625	0.611	0.656	0.547	0.594	0.642	0.636	0.750	0.795	0.843	1.166	1.422	1.979	1.800	1.312	1.001	1.003	0.912	1.038	1.574	3.593	9.085	23.04
310.0	256.3	230.6	169.7	114.2	82.47	78.93	88.39	109.1	132.5	172.6	238.3	347.6	368.1	229.4	160.3	368.5	 1574	 4511	 5661	 1989	28.38	5.102	3.706	2.802	2.205	2.000	1.598	1.483	1.376	1.265	1.074	0.959	0.930	1.022	1.198	1.266	1.320	1.231	1.218	0.967	0.933	0.998	1.030	0.809	0.901	0.968	0.977	0.985	0.950	0.827	0.757	0.853	0.757	0.681	0.642	0.679	0.647	0.718	0.761	0.721	0.789	0.801	0.906	0.962	1.106	1.205	1.319	1.797	1.899	1.755	1.358	0.980	0.768	0.804	1.195	2.364	5.740
315.0	271.5	252.6	192.5	126.1	95.05	94.78	107.7	130.1	156.8	196.6	245.4	294.0	353.8	362.4	171.7	151.5	391.5	 1113	 3030	 7521	 2691	31.36	5.085	4.023	2.838	2.266	1.749	1.784	1.355	1.450	1.198	1.018	1.057	1.053	1.202	1.318	1.280	1.148	1.169	1.104	0.948	0.952	0.972	0.861	1.000	1.060	0.994	1.150	0.993	0.887	0.717	0.826	0.787	0.865	0.769	0.860	0.679	0.732	0.797	0.846	0.900	0.905	0.984	1.003	1.200	1.215	1.215	1.456	1.526	1.710	1.884	1.731	1.147	0.719	0.721	0.889	1.650
320.0	283.5	288.3	224.8	142.7	110.6	108.2	117.4	142.3	173.8	214.8	267.2	298.3	324.2	376.0	284.2	130.5	139.9	284.2	861.7	 4463	 7516	517.0	16.39	5.057	3.875	2.823	2.298	2.071	1.720	1.555	1.378	1.246	0.960	1.219	1.297	1.380	1.379	1.208	1.320	1.066	1.121	1.049	0.980	0.930	1.029	1.076	1.142	1.165	1.131	0.888	0.733	0.844	0.821	0.768	0.706	0.816	0.807	0.838	0.993	0.912	1.046	0.991	1.027	1.153	1.196	1.313	1.384	1.552	1.468	1.643	1.724	1.967	1.872	1.097	0.814	0.654	0.728
325.0	336.2	350.0	276.4	176.0	125.8	118.2	133.6	155.7	193.0	238.8	291.9	314.1	325.9	331.8	353.6	193.1	101.2	110.5	227.9	 1325	 5619	 4608	70.88	8.292	4.659	3.290	2.657	2.228	1.827	1.773	1.578	1.176	1.170	1.242	1.232	1.440	1.269	1.400	1.330	1.239	1.009	1.084	1.157	1.157	1.158	1.231	1.258	1.234	1.370	1.060	0.869	0.854	0.828	0.845	0.887	0.924	0.845	0.854	1.072	0.905	1.065	1.023	1.172	1.266	1.329	1.439	1.497	1.418	1.518	1.470	1.472	1.733	2.046	1.956	1.223	0.803	0.615
330.0	370.6	414.3	350.2	223.8	156.8	141.2	153.5	174.8	216.0	265.6	317.2	348.1	351.1	320.7	311.0	282.1	165.6	94.56	98.42	334.6	 1579	 4233	 5144	 1683	24.51	4.701	3.596	2.899	2.156	2.018	1.732	1.396	1.349	1.313	1.377	1.358	1.348	1.448	1.268	1.223	1.111	1.187	1.175	1.234	1.268	1.430	1.495	1.547	1.562	1.224	1.107	1.134	0.972	0.937	0.869	0.882	1.037	1.023	1.069	1.052	1.218	1.196	1.347	1.409	1.446	1.513	1.668	1.533	1.621	1.603	1.549	1.511	1.590	1.535	1.528	1.416	1.092
335.0	418.2	452.2	392.0	269.0	200.6	171.5	173.6	202.9	248.1	293.5	344.6	379.9	383.3	344.4	295.3	255.2	267.5	152.9	89.26	124.1	389.4	 1025	 2902	 7444	 2433	28.53	4.813	3.940	2.925	2.163	1.987	1.419	1.455	1.358	1.405	1.405	1.420	1.357	1.343	1.317	1.197	1.219	1.195	1.179	1.332	1.650	1.634	1.778	1.631	1.337	1.241	1.132	1.054	1.009	0.934	1.174	1.201	1.105	1.126	1.183	1.274	1.330	1.369	1.502	1.504	1.673	1.577	1.703	1.906	1.944	1.648	1.618	1.510	1.487	1.127	1.333	1.656
340.0	451.8	491.9	416.1	304.8	228.5	201.6	206.2	229.7	266.0	312.6	364.4	394.9	397.8	367.1	306.6	241.0	254.6	237.3	106.4	92.54	136.0	267.5	795.5	 4553	 7577	446.0	16.04	4.734	3.286	2.622	2.101	1.576	1.457	1.455	1.433	1.381	1.287	1.573	1.262	1.233	1.167	1.303	1.307	1.136	1.434	1.554	1.672	1.847	1.684	1.491	1.326	1.300	1.156	1.114	1.002	1.023	1.218	1.193	1.190	1.216	1.295	1.421	1.492	1.591	1.745	1.768	1.645	1.824	1.947	1.738	1.890	1.794	1.640	1.618	1.186	1.108	1.307
345.0	450.1	505.5	441.9	334.9	258.7	226.3	236.8	245.6	280.7	326.4	375.9	405.8	407.8	379.9	318.9	251.6	225.1	266.1	191.2	99.82	94.94	111.9	218.6	 1326	 5931	 6208	351.0	8.477	4.436	3.356	2.593	2.062	1.716	1.621	1.467	1.473	1.539	1.408	1.314	1.278	1.158	1.169	1.286	1.382	1.423	1.697	1.722	1.840	1.789	1.553	1.400	1.542	1.317	1.231	1.038	1.200	1.277	1.351	1.315	1.345	1.518	1.461	1.596	1.595	1.778	1.819	1.753	1.921	1.843	1.882	1.798	1.836	1.713	1.646	1.356	1.204	1.238
350.0	453.7	506.0	472.4	374.6	307.9	281.2	276.2	287.4	315.2	355.7	399.2	424.1	419.6	399.7	341.4	275.8	234.1	232.8	249.6	186.6	118.0	100.8	108.6	343.5	 1651	 4653	 4879	 1495	23.43	4.824	3.454	2.550	2.073	1.830	1.546	1.581	1.619	1.524	1.419	1.237	1.330	1.240	1.246	1.434	1.447	1.693	1.723	1.821	1.801	1.629	1.474	1.600	1.537	1.376	1.315	1.358	1.397	1.427	1.486	1.627	1.663	1.554	1.876	1.822	1.847	1.915	1.893	1.914	1.936	1.988	1.963	1.920	1.759	1.517	1.483	1.294	1.272
355.0	459.0	518.3	483.7	413.1	365.9	349.4	342.7	350.3	374.8	407.0	429.8	449.3	444.1	423.4	371.1	313.7	271.9	242.7	235.3	262.9	201.0	132.5	112.6	145.5	419.0	 1115	 2785	 6989	 2297	29.10	4.783	3.308	2.520	2.161	1.680	1.734	1.614	1.701	1.478	1.369	1.324	1.324	1.372	1.312	1.497	1.635	1.641	1.762	1.743	1.720	1.568	1.766	1.699	1.677	1.554	1.600	1.583	1.672	1.764	1.758	1.937	1.837	2.040	2.096	2.143	2.000	1.848	2.027	1.980	1.822	1.920	2.075	1.828	1.752	1.733	1.478	1.448
360.0	438.0	507.7	495.6	448.3	407.7	399.4	391.3	399.7	423.0	455.0	466.7	474.0	466.3	443.2	394.5	341.3	302.2	269.8	245.4	260.2	271.7	180.9	134.0	118.9	161.6	296.9	750.2	 4260	 7156	419.6	17.42	4.527	3.280	2.326	2.066	1.851	1.702	1.639	1.503	1.586	1.316	1.283	1.410	1.416	1.472	1.571	1.769	1.988	1.824	1.776	1.677	1.760	1.764	1.734	1.766	1.726	1.816	1.693	1.940	1.975	2.105	2.145	2.148	2.228	2.179	2.099	2.014	2.146	2.146	2.068	2.159	1.996	2.044	1.901	1.816	1.734	1.644
365.0	445.0	517.3	502.0	470.4	452.4	449.2	437.4	449.1	466.3	486.6	494.6	493.4	481.9	463.5	417.2	365.1	329.4	293.0	270.6	257.1	289.2	254.2	170.3	135.1	121.0	130.2	214.0	 1218	 5658	 6134	338.8	8.277	3.900	2.890	2.482	1.882	1.846	1.663	1.564	1.453	1.365	1.322	1.425	1.393	1.740	1.800	1.678	2.054	1.843	1.735	1.754	1.985	1.813	1.989	1.976	1.840	1.836	1.943	2.034	2.091	2.399	2.328	2.369	2.458	2.275	2.257	2.260	2.191	2.065	2.079	2.180	2.077	2.057	1.975	1.815	1.752	1.735
370.0	441.3	518.9	514.6	498.8	488.4	489.1	489.0	503.1	517.7	529.1	540.1	525.5	506.9	482.7	441.3	395.8	361.7	333.6	309.7	290.8	285.2	297.8	259.6	182.8	143.8	119.9	115.7	320.8	 1576	 4671	 4819	 1373	20.82	4.419	3.154	2.422	2.052	1.848	1.707	1.511	1.565	1.517	1.443	1.580	1.631	1.794	1.761	2.037	1.872	1.759	1.795	2.030	1.979	2.094	2.026	2.025	2.271	2.161	2.232	2.306	2.408	2.442	2.483	2.404	2.471	2.371	2.407	2.348	2.355	2.334	2.248	2.190	2.247	2.084	1.930	2.010	1.907
375.0	454.0	527.4	527.2	539.8	528.5	532.9	546.1	559.2	567.8	579.5	584.7	564.6	535.2	508.3	472.1	426.3	401.5	378.6	357.9	331.2	316.1	306.3	315.1	275.2	194.1	152.0	122.5	144.3	400.7	 1113	 2872	 6813	 2074	25.97	4.369	3.088	2.742	2.229	2.166	1.704	1.669	1.659	1.629	1.645	1.659	1.937	1.773	2.037	1.893	1.828	1.862	2.243	2.198	2.359	2.063	2.187	2.416	2.386	2.390	2.408	2.578	2.763	2.559	2.727	2.663	2.689	2.639	2.479	2.552	2.448	2.379	2.516	2.412	2.274	2.116	2.320	2.409
380.0	476.2	540.8	560.8	558.3	565.2	569.9	571.3	582.2	607.1	610.0	612.6	590.7	569.0	527.5	491.4	448.1	429.5	408.9	391.2	365.4	349.9	328.3	322.6	329.9	253.8	188.5	148.5	123.8	156.1	294.2	764.8	 4219	 6720	357.0	15.12	4.036	3.115	2.554	2.132	1.935	1.826	1.567	1.811	1.700	1.656	1.891	1.867	1.968	2.028	1.842	1.894	2.336	2.351	2.493	2.380	2.482	2.446	2.680	2.562	2.595	2.458	2.812	2.603	2.928	2.842	2.710	2.698	2.622	2.579	2.444	2.454	2.589	2.355	2.283	2.339	2.239	2.393
385.0	473.6	542.1	579.9	585.7	592.4	602.8	601.0	609.1	629.7	630.6	626.3	619.2	582.5	535.8	503.5	467.8	450.1	433.3	414.2	391.4	377.2	353.3	336.2	341.5	316.1	229.8	175.5	138.9	119.2	124.9	212.4	 1209	 5422	 5349	276.9	6.773	3.674	3.113	2.623	2.140	1.970	1.789	1.734	1.635	1.671	2.010	1.899	2.172	2.186	1.943	2.022	2.370	2.266	2.536	2.356	2.549	2.667	2.814	2.775	2.695	2.671	2.729	2.698	2.732	2.940	2.935	2.858	2.562	2.658	2.533	2.380	2.559	2.529	2.477	2.463	2.252	2.428
390.0	504.9	556.3	589.8	597.0	615.6	628.1	628.3	635.8	655.3	648.9	646.4	629.0	599.6	562.6	522.8	492.2	475.2	459.4	442.8	426.1	405.2	385.7	363.5	344.6	343.9	304.5	227.9	173.8	137.6	112.1	107.6	311.5	 1509	 4092	 4005	 1085	17.96	4.197	3.146	2.571	2.215	2.018	1.913	1.831	1.932	2.157	1.991	2.200	2.110	1.924	2.059	2.455	2.485	2.605	2.680	2.647	2.862	2.915	2.953	2.825	2.796	2.953	2.772	2.871	3.018	2.994	2.742	2.794	2.826	2.643	2.615	2.673	2.722	2.541	2.532	2.512	2.612
395.0	538.3	588.3	608.7	618.3	642.3	658.8	662.9	654.7	670.3	668.9	666.9	647.1	611.7	582.4	542.1	514.9	495.6	484.6	473.1	457.3	442.7	418.5	401.3	373.9	349.4	342.6	299.4	220.6	172.0	136.9	107.4	126.3	376.0	970.3	 2463	 5645	 1704	22.43	4.319	3.242	2.773	2.202	2.243	2.105	2.068	2.116	2.256	2.444	2.284	1.981	2.195	2.561	2.632	2.660	2.894	2.918	2.983	2.814	2.944	3.063	3.014	3.082	2.918	3.067	2.851	2.823	2.831	2.797	2.791	2.960	2.724	2.702	2.712	2.663	2.794	2.326	2.632
400.0	537.2	584.1	609.7	636.6	646.8	666.9	665.3	680.9	682.0	678.8	673.0	655.7	630.3	593.3	554.4	523.5	509.1	499.1	484.3	474.1	459.3	439.8	419.0	394.0	369.0	344.9	337.0	275.3	202.6	161.2	123.5	99.21	133.7	251.7	652.8	 3621	 5524	302.2	13.61	4.048	3.242	2.729	2.336	2.281	2.267	2.320	2.309	2.393	2.343	2.121	2.187	2.557	2.600	2.819	2.953	2.933	3.003	2.906	3.046	3.154	3.019	3.167	3.034	3.149	3.093	2.952	2.915	2.749	2.909	2.862	2.877	2.696	2.862	2.714	2.843	2.812	2.668
405.0	568.0	600.6	612.8	644.0	666.9	663.7	683.7	696.3	688.9	692.3	681.9	666.5	634.3	602.7	563.4	532.1	517.9	505.8	495.8	484.8	468.0	453.2	431.9	411.7	382.5	353.0	339.5	317.1	241.8	184.9	144.3	109.4	92.36	100.4	176.6	 1035	 4358	 4346	236.1	7.037	3.823	3.080	2.628	2.544	2.295	2.447	2.157	2.519	2.352	2.191	2.075	2.744	2.634	2.758	2.735	2.894	3.142	2.949	3.014	3.114	2.985	3.131	3.178	3.018	2.971	2.878	3.046	2.923	2.947	2.753	2.856	2.689	2.943	2.628	2.625	3.026	2.650
410.0	565.8	599.5	622.4	645.1	669.9	680.0	695.6	698.9	695.5	699.4	688.3	668.3	640.9	601.0	567.0	535.7	520.3	510.9	504.3	493.4	477.0	462.7	445.6	429.1	398.0	369.5	342.9	326.2	297.2	227.4	174.0	131.7	101.2	81.04	80.44	261.9	 1206	 3388	 3359	958.2	15.76	3.991	3.171	2.844	2.541	2.482	2.427	2.587	2.394	2.181	2.229	2.851	2.781	2.899	2.741	2.831	3.171	2.948	3.052	3.131	3.076	3.294	3.138	3.002	2.935	2.893	2.950	2.902	2.892	2.800	2.706	2.711	2.887	2.678	2.596	2.748	2.822
415.0	558.5	592.5	609.4	646.2	658.9	684.9	698.9	695.9	701.7	690.5	695.3	672.1	635.9	597.3	558.4	528.3	512.8	500.9	499.2	491.9	474.8	467.8	451.4	434.3	408.7	384.0	354.2	324.3	309.8	280.9	209.2	157.3	120.2	92.00	71.85	97.97	296.9	803.3	 2116	 4585	 1384	19.71	4.056	3.531	2.841	2.613	2.531	2.659	2.493	2.236	2.121	2.683	2.652	2.895	2.779	2.814	3.280	3.135	3.103	3.132	3.060	3.144	3.165	3.097	2.882	2.816	2.882	2.678	2.861	2.616	2.749	2.821	2.691	2.823	2.874	2.629	2.857
420.0	574.3	593.1	602.9	632.5	658.8	675.9	689.3	690.6	700.0	691.6	696.9	665.2	634.9	589.5	548.7	520.8	502.6	496.5	490.1	483.6	469.6	464.6	450.8	436.7	412.6	390.9	361.7	330.8	308.3	297.2	246.1	176.3	134.2	103.3	78.56	68.65	99.92	203.7	558.5	 2964	 4449	274.4	11.78	4.036	3.106	2.909	2.858	2.685	2.450	2.380	2.235	2.703	2.493	2.768	2.751	2.705	3.092	3.041	3.050	3.046	3.037	3.274	3.063	3.065	2.929	2.768	2.803	2.878	2.966	2.684	2.683	2.813	2.671	2.720	2.884	2.844	2.756
425.0	559.8	583.4	612.6	616.8	651.4	665.1	670.2	686.8	695.8	686.8	679.2	654.4	624.7	574.5	542.5	511.0	494.7	490.4	486.1	476.8	468.4	458.1	444.3	436.3	415.3	391.7	367.8	335.6	310.6	293.9	270.6	203.3	149.6	115.5	87.43	69.47	62.68	74.04	145.2	855.2	 3665	 2298	218.8	5.756	3.632	3.316	3.156	2.591	2.494	2.386	2.249	2.638	2.436	2.710	2.749	2.866	2.931	3.180	3.183	3.016	3.119	3.157	3.099	3.163	3.108	2.857	2.772	2.923	2.788	2.630	2.596	2.651	2.781	2.556	2.732	2.488	2.977
430.0	580.6	568.8	592.7	613.6	633.9	656.7	665.7	680.0	692.4	683.4	675.0	649.2	616.7	569.3	533.2	500.5	483.0	477.8	471.3	467.4	457.2	449.2	438.1	430.5	413.6	393.7	372.6	344.9	319.5	291.0	271.5	236.0	177.8	133.3	103.0	80.91	64.63	53.74	59.35	211.4	 1037	 2570	 2929	834.8	14.49	3.947	4.069	2.955	2.725	2.221	2.232	2.703	2.556	2.655	2.673	2.816	2.945	3.134	3.099	3.159	2.916	2.980	3.174	3.070	3.014	2.870	2.864	2.842	2.704	2.590	2.670	2.694	2.572	2.571	2.508	2.701	2.751
435.0	 1091	570.7	583.8	607.4	608.8	651.8	661.7	684.5	691.9	689.6	675.7	637.5	603.5	554.1	523.7	487.7	466.5	464.0	460.9	449.4	443.4	434.2	425.4	422.1	409.4	393.5	371.1	352.2	326.7	300.2	270.4	243.1	211.7	157.6	120.5	94.83	76.08	58.77	48.09	73.35	250.9	613.3	 1851	 4030	 1245	16.89	5.246	3.249	2.939	2.318	2.324	2.632	2.660	2.737	2.852	2.762	2.998	3.189	3.082	3.199	3.036	2.989	3.100	2.846	3.003	2.908	2.865	2.787	2.581	2.486	2.559	2.446	2.485	2.435	2.464	2.500	2.741
440.0	 1928	551.3	558.6	591.2	613.2	633.7	649.1	676.3	680.7	672.0	662.1	636.2	593.2	545.5	509.1	472.6	459.1	450.1	443.0	437.8	429.5	424.7	420.1	412.9	402.0	387.8	370.2	352.6	331.9	304.3	272.9	243.0	221.6	180.1	133.4	104.5	83.08	64.98	51.08	47.39	79.09	155.5	500.4	 2837	 3988	236.3	12.73	3.825	3.185	2.533	2.335	2.626	2.786	2.768	2.762	2.640	3.079	3.126	3.147	3.266	2.984	3.076	2.923	2.925	3.138	2.887	2.863	2.565	2.585	2.479	2.495	2.494	2.303	2.337	2.439	2.584	2.611
445.0	 3463	666.3	546.6	578.6	595.7	615.3	643.8	662.8	679.2	660.8	648.8	625.8	579.9	533.6	495.6	462.6	442.7	433.4	428.9	421.4	415.8	415.2	407.7	401.8	390.8	378.1	362.6	349.1	331.3	305.5	275.9	241.4	216.8	196.0	148.7	113.1	90.96	71.13	56.31	46.19	44.61	55.69	128.7	867.5	 3626	 2040	198.0	5.175	3.439	2.698	2.646	2.718	2.686	2.798	2.661	2.625	2.878	3.168	3.055	3.250	2.837	3.147	2.885	3.038	2.976	2.749	2.739	2.556	2.638	2.462	2.521	2.438	2.307	2.451	2.266	2.270	2.492
450.0	 3749	 1488	548.8	538.8	560.5	599.6	619.3	639.0	651.9	646.6	627.1	600.1	552.6	512.1	468.7	438.6	418.4	411.1	405.5	399.4	393.2	390.8	383.5	380.5	373.1	362.9	349.3	337.5	322.5	302.0	275.4	241.3	211.9	191.8	168.0	128.7	101.0	80.04	65.10	52.79	43.65	38.43	49.02	210.7	 1046	 2557	 5316	714.1	11.30	3.236	2.832	2.865	2.715	2.809	2.579	2.735	2.708	2.983	2.969	3.054	2.913	3.079	3.093	2.975	2.816	2.660	2.492	2.406	2.443	2.513	2.305	2.325	2.287	2.218	2.191	2.285	2.386
455.0	 2126	 2559	871.1	506.0	530.8	563.8	591.4	612.2	621.3	618.0	604.5	566.4	515.5	489.1	442.3	411.3	390.2	380.2	376.2	369.5	365.2	359.1	358.0	356.9	350.9	342.9	330.7	319.6	307.9	292.2	268.9	240.4	209.6	181.9	166.5	147.8	114.2	90.27	72.49	58.79	49.33	40.29	35.84	66.40	247.7	617.8	 3065	 3560	978.2	12.17	3.363	3.239	2.845	2.709	2.680	2.844	2.870	2.667	2.889	2.821	2.784	3.120	2.691	2.856	2.759	2.880	2.443	2.454	2.341	2.240	2.123	2.198	2.311	2.156	2.274	2.285	2.126
460.0	974.5	 2554	 1584	514.0	511.8	541.5	561.7	582.9	601.7	588.2	576.0	544.0	498.5	460.0	423.9	386.2	368.9	357.6	354.6	345.8	343.7	337.5	337.3	337.5	330.6	323.5	313.5	307.6	298.5	282.2	262.6	234.4	204.7	177.2	158.3	149.6	125.0	95.72	77.66	63.81	53.15	43.85	35.36	36.68	72.52	151.5	779.7	 2521	 3249	170.2	7.354	3.541	3.038	2.853	2.565	2.661	2.651	2.660	2.723	2.780	2.721	2.885	2.619	2.597	2.606	2.529	2.618	2.338	2.257	2.341	2.199	2.271	1.985	2.047	2.122	2.163	2.090
465.0	529.0	 1874	 2358	585.5	483.8	521.4	541.3	560.0	571.3	568.8	554.7	523.4	478.5	430.4	397.3	367.4	351.3	340.4	334.3	328.6	322.8	318.4	314.9	317.0	314.9	306.6	301.4	291.5	283.5	272.3	254.0	230.2	202.1	174.7	154.7	144.0	131.7	102.7	81.25	67.40	56.30	46.69	37.59	32.08	35.41	48.37	187.0	767.2	 3085	 1466	130.6	4.822	3.235	3.042	2.667	2.621	2.596	2.753	2.658	2.781	2.768	2.491	2.551	2.509	2.682	2.398	2.304	2.166	2.282	2.178	2.079	2.004	1.957	1.986	1.930	2.075	2.025
470.0	389.9	881.7	 2271	 1143	472.0	470.2	502.3	523.7	534.6	527.5	520.2	482.2	444.7	402.7	368.1	338.3	321.4	311.7	305.8	299.9	293.9	290.5	287.4	287.8	285.0	278.1	277.3	268.2	263.3	254.1	239.3	217.2	192.5	170.1	148.9	133.6	124.3	110.1	88.52	70.72	59.41	49.35	40.85	33.92	29.68	27.81	55.49	183.4	906.7	 1996	 1962	621.3	10.79	3.335	2.860	2.533	2.613	2.645	2.493	2.593	2.580	2.492	2.479	2.449	2.447	2.303	2.242	2.230	2.126	2.068	1.904	1.912	1.816	1.933	1.859	1.820	1.780
475.0	346.2	459.2	 1236	 1887	687.1	428.3	461.2	476.1	492.9	485.6	477.7	446.8	408.7	376.2	337.4	308.3	293.6	282.4	277.2	271.0	267.4	261.8	260.8	260.5	257.4	253.4	249.4	245.5	243.2	235.8	223.8	201.4	180.5	161.1	142.0	127.3	112.7	106.2	95.98	75.19	62.56	52.00	43.57	35.93	30.43	24.96	27.57	53.06	211.9	476.1	 1251	 2590	213.3	12.33	3.173	2.793	2.621	2.641	2.462	2.330	2.266	2.158	2.273	2.372	2.225	2.245	2.094	1.936	1.835	1.894	1.787	1.787	1.690	1.852	1.732	1.596	1.675
480.0	324.6	354.3	628.0	 1817	 1281	409.3	429.0	445.9	461.0	459.8	444.7	414.1	385.4	348.4	318.6	288.6	276.0	264.7	255.7	251.0	246.7	241.2	241.5	240.5	237.2	233.6	231.7	227.3	224.1	221.3	209.4	189.7	173.1	154.1	136.9	122.0	110.2	99.60	96.32	81.57	64.20	54.09	45.95	37.56	32.32	25.68	22.79	25.05	57.86	114.7	333.7	 1735	 1733	193.4	6.133	2.892	2.666	2.556	2.297	2.301	2.261	2.199	2.194	2.420	2.050	1.977	1.928	1.829	1.751	1.758	1.648	1.699	1.584	1.669	1.564	1.549	1.572
485.0	322.1	332.5	389.2	 1255	 1931	502.9	404.9	422.6	440.8	440.2	429.1	395.4	367.5	327.7	297.8	273.4	260.5	248.2	239.0	234.8	229.5	225.4	224.9	224.2	221.1	217.2	217.4	212.9	211.7	208.7	199.1	182.6	165.8	149.6	133.2	119.3	107.3	94.53	90.73	83.53	68.18	55.32	46.73	38.57	33.02	27.14	23.02	19.77	24.62	34.73	82.83	514.1	 2056	 1682	28.56	4.033	2.753	2.579	2.480	2.351	2.303	2.181	2.195	2.023	2.103	1.953	1.874	1.745	1.677	1.696	1.717	1.746	1.619	1.616	1.472	1.450	1.500
490.0	283.3	316.9	307.7	598.9	 1836	 1068	405.8	389.9	401.8	403.1	394.5	370.4	338.8	307.4	276.0	252.1	237.4	226.8	220.3	213.2	209.8	204.7	203.6	203.4	201.8	198.9	199.1	195.7	194.4	191.6	184.3	170.1	154.5	140.2	126.0	113.8	102.8	91.93	84.14	78.76	71.80	58.98	48.07	40.37	34.75	28.71	24.33	20.36	18.25	17.96	27.15	122.7	598.8	 1596	 1801	551.5	10.94	2.964	2.605	2.332	2.199	2.256	2.053	1.972	1.978	1.937	1.790	1.776	1.688	1.505	1.579	1.554	1.446	1.396	1.404	1.405	1.386
495.0	241.6	308.7	279.0	346.9	 1003	 1685	554.2	355.5	366.6	365.9	361.6	341.1	311.0	278.7	252.9	230.8	213.4	202.7	195.3	192.9	186.4	182.1	181.9	181.4	180.3	179.2	177.0	177.3	177.8	175.3	167.7	155.9	143.6	130.7	117.9	107.1	96.31	86.44	78.96	71.16	68.82	62.23	49.23	40.68	35.51	30.38	25.75	21.51	17.97	15.50	15.88	35.69	140.0	384.5	 1262	 2349	231.0	11.78	2.987	2.374	2.488	2.059	1.982	1.982	1.749	1.871	1.582	1.679	1.600	1.446	1.415	1.313	1.258	1.245	1.253	1.306	1.305
500.0	213.3	265.7	271.2	274.2	502.8	 1584	 1300	347.2	342.8	336.2	332.8	316.1	285.4	258.8	230.7	213.1	195.5	185.7	180.5	176.4	170.3	168.3	167.4	164.8	165.2	162.4	162.6	160.7	160.0	160.8	153.0	143.9	132.3	120.3	110.2	100.3	91.44	81.74	74.92	67.01	62.66	61.26	51.81	41.68	35.49	30.40	26.40	22.35	18.32	15.58	13.79	16.54	38.38	91.89	340.7	 1616	 1867	198.6	5.648	2.670	2.248	2.046	1.843	1.699	1.740	1.651	1.574	1.503	1.512	1.407	1.438	1.467	1.277	1.239	1.260	1.097	1.170
505.0	208.9	239.4	258.1	241.5	309.6	 1082	 1885	433.6	322.3	313.3	315.2	291.2	262.5	238.2	215.1	196.2	177.7	170.9	165.9	162.2	155.7	154.0	152.0	150.4	151.2	149.7	149.4	147.7	147.9	148.0	142.4	132.3	122.0	113.5	102.7	93.43	85.80	77.73	70.86	64.30	58.64	56.97	53.19	43.36	35.55	30.40	26.61	22.68	18.88	15.75	13.65	12.64	16.11	27.10	82.17	482.0	 1911	 1649	30.56	3.425	2.138	2.130	1.777	1.701	1.663	1.474	1.405	1.350	1.331	1.235	1.246	1.222	1.164	1.174	1.138	1.188	1.048
510.0	175.9	200.6	230.6	231.8	237.6	491.1	 1637	 1101	314.8	282.1	279.3	260.5	234.1	211.9	189.3	174.6	159.8	153.6	147.2	143.6	138.7	135.6	136.2	133.6	134.0	131.8	131.6	131.0	130.8	131.4	127.0	119.1	109.7	102.1	92.77	84.03	78.10	71.80	65.67	59.33	53.70	50.22	48.77	44.32	36.41	30.09	26.30	22.85	18.96	16.04	14.02	12.09	11.23	12.79	24.12	113.4	552.9	 1424	 1528	452.3	10.22	2.321	1.900	1.686	1.629	1.342	1.348	1.276	1.237	1.131	1.139	1.189	1.191	1.028	0.995	1.010	0.964
515.0	157.7	173.0	183.3	211.5	201.5	263.7	784.6	 1691	579.4	254.0	242.7	234.1	206.5	186.5	170.2	153.5	144.6	137.4	128.3	126.4	122.0	118.4	117.7	116.9	115.5	115.4	114.0	114.0	114.8	114.9	110.7	103.1	97.88	89.59	81.97	76.13	71.08	64.14	58.43	54.26	49.22	45.40	42.28	41.08	37.00	29.63	25.84	21.69	18.78	16.06	14.28	12.41	10.52	10.11	11.22	30.66	127.8	336.4	928.0	 1809	230.2	10.80	2.097	1.740	1.527	1.426	1.328	1.158	1.218	1.048	1.014	1.124	0.912	0.943	1.011	0.995	0.911
520.0	139.3	153.0	160.8	192.9	189.5	209.1	376.4	 1464	 1099	244.9	222.3	212.0	191.9	171.5	154.5	138.5	128.1	122.7	117.4	111.8	109.7	107.4	104.9	105.9	102.8	103.5	102.1	102.2	103.7	103.3	99.79	94.96	88.80	81.75	74.23	69.49	64.66	59.53	54.53	50.68	46.80	41.93	38.45	36.93	36.69	30.96	24.70	21.90	18.88	16.07	14.16	12.14	10.71	9.680	8.911	12.12	33.32	79.42	247.0	 1227	 1565	178.8	4.101	1.843	1.510	1.281	1.341	1.151	1.122	0.985	0.951	0.934	0.798	0.866	0.940	0.867	0.871
525.0	129.8	139.1	142.6	180.1	180.4	176.0	228.4	870.5	 1555	336.4	203.5	190.8	175.6	158.7	140.6	128.0	115.8	110.2	106.8	103.8	99.72	96.79	94.40	96.06	93.92	93.47	93.02	91.78	93.02	93.88	91.14	85.95	80.74	74.12	69.22	63.27	59.91	55.40	51.19	47.15	43.82	39.90	35.85	32.85	33.27	31.84	25.07	20.77	18.22	15.59	13.81	11.93	10.57	9.500	8.230	8.232	12.12	21.97	59.02	360.8	 1411	 1254	29.47	2.317	1.578	1.269	1.268	1.111	1.041	1.066	0.907	0.835	0.757	0.725	0.824	0.888	0.716
530.0	109.3	119.5	130.5	148.9	168.5	159.8	172.6	371.4	 1248	 1087	223.4	169.7	156.8	138.6	123.0	112.7	102.5	98.99	94.05	90.64	85.90	84.82	82.59	82.91	82.37	81.75	81.07	80.21	81.35	82.30	79.64	75.36	71.12	65.19	61.31	56.41	53.54	49.36	46.08	41.90	39.46	35.90	32.72	30.06	28.67	28.44	25.71	21.04	17.46	15.18	13.41	11.52	10.38	9.286	8.026	7.365	7.728	9.063	16.88	84.20	399.6	 1027	 1095	133.9	8.847	1.480	1.256	1.146	0.909	0.949	0.886	0.728	0.729	0.696	0.715	0.703	0.654
535.0	99.25	101.9	116.2	118.7	142.9	152.6	146.7	194.4	553.8	 1517	601.1	153.6	137.1	121.8	106.4	99.27	89.69	85.97	80.81	80.02	76.57	73.25	71.44	71.72	70.34	69.09	68.77	68.24	70.59	70.47	69.34	64.89	61.00	57.40	52.95	49.28	46.43	44.20	39.77	37.85	35.48	31.60	29.26	27.52	25.65	24.00	23.84	21.36	17.34	14.26	12.88	11.16	9.907	8.979	7.883	7.285	6.650	6.333	7.343	22.05	91.83	240.7	637.4	 1257	220.8	8.474	1.430	1.140	0.915	0.901	0.829	0.778	0.686	0.655	0.657	0.618	0.640
540.0	90.89	94.52	104.5	102.1	123.3	147.2	137.8	142.8	255.4	 1172	 1152	168.9	124.7	108.8	97.95	88.31	80.26	78.21	71.55	71.95	67.00	65.83	64.12	63.38	63.63	62.15	61.64	62.01	62.07	62.93	62.12	58.31	55.76	52.31	47.52	44.80	42.09	39.30	36.66	34.41	32.07	29.51	27.20	25.21	23.71	21.17	21.96	20.42	17.39	13.93	12.33	10.32	9.559	8.764	7.913	7.027	6.215	5.838	5.280	8.049	23.34	56.27	166.6	836.7	 1174	170.0	3.275	1.227	0.841	0.802	0.770	0.701	0.572	0.624	0.626	0.640	0.534
545.0	79.46	89.43	91.72	89.41	107.9	130.5	129.9	122.7	158.6	642.3	 1422	260.7	112.3	101.8	89.37	81.58	75.13	70.95	65.84	65.18	62.82	59.65	57.79	59.03	57.02	56.65	55.75	56.05	56.50	57.95	55.67	52.77	50.73	46.64	42.95	40.59	38.28	35.33	32.94	31.19	28.88	26.95	24.93	23.53	21.50	20.18	19.06	19.19	17.47	14.12	11.49	10.22	8.844	8.362	7.584	6.817	6.658	5.488	4.769	4.858	8.161	14.85	39.73	241.8	999.9	949.9	29.44	1.752	0.952	0.888	0.739	0.706	0.589	0.467	0.476	0.659	0.459
550.0	74.04	79.52	81.56	77.12	89.19	106.0	122.1	108.2	117.4	259.2	957.1	 1007	147.8	87.49	77.99	70.70	64.46	60.98	56.99	54.82	54.20	50.57	50.84	49.87	49.02	48.85	47.42	48.63	48.60	49.51	47.81	45.45	43.01	40.09	37.24	35.34	33.62	31.15	29.21	27.64	25.57	24.21	22.05	20.32	19.15	18.00	16.84	15.92	15.64	14.17	11.44	9.580	8.338	7.671	7.016	6.496	5.944	5.147	4.654	4.165	4.552	5.562	10.92	56.07	278.5	733.3	801.0	133.9	7.854	1.057	0.767	0.717	0.553	0.460	0.472	0.496	0.433
555.0	70.94	62.70	66.71	67.38	74.35	86.23	105.6	103.2	94.05	132.0	377.1	 1145	591.6	76.66	67.32	58.86	54.80	52.33	47.97	45.87	44.34	42.80	43.08	41.74	40.32	40.56	39.87	40.31	41.17	40.45	40.18	38.81	36.32	34.24	31.39	29.96	27.93	26.49	25.16	23.37	22.34	20.44	19.20	17.69	16.43	15.30	14.35	13.29	13.07	12.95	11.56	9.104	7.587	6.849	6.246	5.994	5.343	4.705	4.274	3.864	3.568	3.439	4.416	14.25	63.64	170.7	432.7	894.1	211.8	7.192	0.838	0.683	0.499	0.420	0.405	0.469	0.376
560.0	60.89	56.05	61.41	60.38	65.44	69.67	84.34	99.18	85.24	94.22	160.9	765.3	 1073	111.5	57.65	53.52	48.19	44.78	40.16	39.54	38.18	37.23	36.62	37.11	35.01	34.70	34.08	34.70	36.23	35.73	34.72	32.94	30.61	29.44	27.25	26.25	24.75	23.17	21.74	20.65	19.37	17.28	16.51	15.78	14.59	13.40	13.21	11.96	10.73	11.13	10.96	8.864	7.189	6.321	5.779	5.504	4.861	4.511	4.194	3.871	3.147	2.886	2.870	4.965	15.65	39.54	111.5	561.4	807.7	33.57	2.616	0.717	0.489	0.388	0.379	0.414	0.364
565.0	59.27	54.66	55.23	51.80	57.46	56.01	66.54	85.51	76.30	75.53	94.24	371.3	 1177	362.1	51.20	45.95	40.40	39.07	35.45	34.59	32.90	33.16	30.29	31.02	30.25	29.73	29.57	28.98	31.41	30.21	30.17	28.28	26.92	24.88	23.57	22.95	21.50	20.05	18.99	17.77	16.38	15.51	14.58	13.69	12.94	12.06	11.26	10.25	9.259	9.310	9.284	8.583	6.864	5.702	5.176	5.017	4.640	4.199	3.610	3.488	3.102	2.435	2.378	2.652	4.952	10.20	26.34	156.5	637.0	605.8	28.47	1.193	0.577	0.431	0.368	0.358	0.322
570.0	48.18	46.57	42.60	42.03	43.60	47.09	52.52	66.68	70.72	62.65	65.04	137.8	670.4	857.5	95.44	37.28	33.06	30.68	29.18	28.88	26.10	26.52	24.89	24.92	24.59	23.74	23.78	23.94	24.64	23.75	23.87	22.28	21.79	20.32	18.88	18.27	16.84	16.52	15.16	14.24	13.29	12.76	11.88	11.17	10.51	9.946	9.348	8.461	7.670	7.056	6.982	7.385	6.164	5.271	4.504	4.288	3.856	3.460	3.267	2.966	2.689	2.254	2.043	1.970	2.532	3.435	7.062	36.10	173.3	442.8	391.5	122.5	6.176	0.467	0.376	0.361	0.275
575.0	39.75	39.67	36.41	32.38	34.50	38.46	39.87	48.26	63.59	55.83	49.84	66.37	225.8	781.7	522.2	31.18	25.90	24.12	22.21	22.06	21.05	19.56	19.30	19.22	19.34	18.75	18.22	18.00	18.95	18.61	17.52	16.96	16.68	15.36	14.76	13.89	13.24	12.88	12.05	11.15	10.40	10.23	9.238	8.944	8.165	7.818	7.322	6.648	6.100	5.535	5.345	5.319	5.434	4.777	3.889	3.625	3.126	2.783	2.727	2.487	2.445	1.952	1.909	1.613	1.626	1.842	2.606	9.032	39.40	102.7	224.8	501.3	165.4	4.214	0.382	0.361	0.187
580.0	34.71	34.53	33.73	27.85	26.69	28.92	32.70	38.27	54.34	55.96	44.16	45.89	80.72	450.4	852.8	77.82	22.15	19.99	18.88	18.18	17.63	16.30	15.81	15.71	14.93	15.37	15.37	14.80	15.39	15.25	14.88	13.96	13.31	13.01	12.09	11.55	10.83	10.34	9.816	9.456	8.591	8.443	7.575	7.350	6.723	6.530	6.170	5.659	5.283	4.736	4.390	4.168	4.275	4.287	3.655	3.162	2.853	2.599	2.344	2.179	1.972	1.718	1.866	1.525	1.365	1.397	1.499	2.882	9.651	23.78	58.05	297.5	446.7	32.06	1.301	0.393	0.234
585.0	35.27	28.58	30.02	21.57	23.75	26.16	27.13	31.41	44.88	53.66	40.38	38.12	43.79	199.8	817.5	321.5	19.87	17.04	16.84	14.53	14.95	13.57	13.71	12.66	12.60	12.60	12.67	12.54	12.88	12.89	12.72	12.30	10.90	10.91	9.956	9.259	9.420	8.857	8.586	8.145	7.328	6.754	6.425	6.196	5.877	5.821	5.331	5.005	4.446	4.048	3.703	3.491	3.505	3.770	3.416	2.942	2.578	2.403	2.106	1.968	1.687	1.679	1.582	1.443	1.182	1.248	1.123	1.433	2.926	5.979	13.59	82.57	338.6	258.9	25.24	0.613	0.283
590.0	27.65	25.47	25.37	21.18	21.03	22.85	23.35	24.74	32.74	45.75	42.22	31.51	30.99	67.84	399.1	683.4	66.02	14.29	13.38	12.27	11.85	11.12	11.13	10.48	10.30	10.16	10.10	10.23	10.24	10.13	10.12	9.525	9.014	8.418	8.049	7.623	7.251	7.035	6.969	6.402	5.832	5.638	5.260	5.222	4.828	4.776	4.301	3.956	3.658	3.235	3.085	2.833	2.694	2.976	2.947	2.817	2.290	1.958	1.737	1.707	1.493	1.463	1.322	1.228	1.222	1.080	0.888	1.010	1.280	1.908	3.601	19.02	91.24	213.8	251.0	87.94	3.954
595.0	24.15	23.39	21.30	17.52	17.98	18.93	19.36	21.37	24.38	33.51	41.31	29.88	25.09	31.60	122.3	529.5	451.4	14.52	10.45	10.14	9.426	8.887	8.788	8.955	8.662	8.136	7.816	7.366	7.740	7.923	7.893	7.630	6.955	6.601	6.411	6.306	6.023	5.425	5.350	4.747	4.683	4.253	4.169	4.027	4.064	3.863	3.453	3.086	2.852	2.797	2.362	2.266	2.087	2.193	2.230	2.483	2.173	1.787	1.666	1.419	1.220	1.228	1.196	1.011	1.053	0.965	0.756	0.795	0.870	0.957	1.270	4.696	20.73	49.80	127.1	276.3	35.50
600.0	23.50	22.44	17.23	18.31	16.13	14.70	16.30	18.77	20.95	24.93	39.99	31.87	23.59	20.89	39.38	268.5	685.7	61.21	9.020	8.361	7.815	7.458	7.067	7.363	6.849	6.734	6.507	6.256	6.660	6.514	7.128	6.365	6.064	5.532	5.524	5.095	5.044	4.697	4.397	4.257	3.948	3.942	3.552	3.370	3.352	3.275	2.916	2.513	2.501	2.260	2.042	2.009	1.818	1.788	1.790	2.026	1.980	1.732	1.485	1.113	1.131	1.132	1.079	0.914	0.927	0.781	0.752	0.690	0.702	0.735	0.764	1.426	4.980	11.47	32.47	162.2	238.5
605.0	24.43	21.95	15.55	15.16	15.03	14.22	15.12	16.30	19.23	24.00	34.14	33.28	22.69	18.01	18.54	104.8	599.6	284.7	8.674	7.428	6.575	6.514	6.354	6.351	5.607	5.643	5.478	5.644	5.818	5.503	5.847	5.204	5.150	4.778	4.663	4.568	4.160	4.069	3.888	3.652	3.331	3.249	3.156	2.808	3.058	2.790	2.514	2.389	2.185	1.909	1.729	1.695	1.551	1.637	1.472	1.719	1.827	1.571	1.339	1.016	1.028	0.991	0.901	0.802	0.836	0.845	0.769	0.783	0.661	0.581	0.576	0.685	1.473	2.940	7.613	45.42	182.7
610.0	21.14	17.73	14.60	14.66	12.63	13.23	13.16	14.98	17.15	19.23	26.05	32.25	23.70	15.86	13.48	33.12	267.3	556.5	55.90	6.019	5.564	5.355	5.230	5.145	4.772	4.721	4.533	4.604	4.702	4.761	4.855	4.427	4.246	4.184	4.145	3.848	3.545	3.404	3.191	3.010	2.712	2.719	2.492	2.340	2.213	2.267	2.000	1.982	1.800	1.634	1.422	1.392	1.340	1.280	1.194	1.274	1.460	1.461	1.247	0.964	0.922	0.860	0.783	0.750	0.785	0.691	0.713	0.663	0.603	0.573	0.501	0.487	0.643	0.948	1.970	10.43	49.63
615.0	18.14	17.55	14.83	10.96	10.19	12.76	11.30	12.49	14.21	17.90	19.94	28.07	25.51	15.51	11.13	13.88	73.74	395.4	396.2	8.648	4.650	4.284	4.372	3.968	3.702	3.526	3.871	3.489	3.868	3.969	3.913	3.627	3.479	3.271	3.216	3.360	2.917	2.849	2.499	2.467	2.288	2.087	2.129	2.002	1.717	1.866	1.717	1.607	1.455	1.339	1.223	1.200	1.099	0.973	0.907	1.081	1.031	1.196	1.220	0.989	0.852	0.698	0.716	0.610	0.653	0.646	0.523	0.595	0.512	0.463	0.450	0.401	0.426	0.443	0.650	2.574	11.27
620.0	15.75	15.51	11.74	9.438	8.235	10.86	10.71	11.62	12.40	15.18	16.33	21.74	28.44	16.24	11.19	8.126	22.13	180.3	577.0	57.46	3.976	3.622	3.584	3.664	3.376	3.276	3.187	3.279	2.826	3.201	3.165	3.208	3.150	2.823	2.763	2.695	2.530	2.226	2.318	2.199	1.794	1.823	1.789	1.666	1.472	1.438	1.419	1.420	1.233	1.143	1.050	1.047	0.889	0.844	0.869	0.851	0.844	0.929	1.068	0.990	0.808	0.646	0.609	0.535	0.671	0.507	0.500	0.564	0.540	0.460	0.398	0.330	0.332	0.336	0.299	0.793	2.717
625.0	14.63	14.13	9.578	10.47	9.822	8.344	10.19	10.46	11.62	13.18	16.14	17.85	27.14	17.86	11.11	7.562	9.214	64.96	471.6	261.9	4.352	3.189	3.117	3.268	2.895	2.837	2.716	2.655	2.626	2.570	2.587	2.547	2.746	2.390	2.414	2.298	2.208	1.964	1.942	1.801	1.541	1.443	1.466	1.541	1.349	1.234	1.198	1.149	1.102	1.035	0.872	0.860	0.779	0.838	0.669	0.709	0.696	0.707	0.882	0.893	0.687	0.609	0.518	0.486	0.491	0.471	0.435	0.389	0.466	0.421	0.365	0.340	0.340	0.324	0.293	0.404	0.802
630.0	12.45	14.04	10.59	9.788	8.136	8.153	8.699	10.32	10.87	12.33	15.48	16.27	21.74	20.86	11.45	7.122	6.293	18.77	191.8	456.9	47.00	2.745	2.700	2.777	2.518	2.317	2.242	2.267	2.297	2.293	2.087	2.079	1.992	2.098	1.893	1.799	1.755	1.798	1.634	1.531	1.306	1.183	1.184	1.183	1.205	1.063	1.130	0.962	0.934	0.821	0.742	0.732	0.638	0.708	0.606	0.647	0.637	0.623	0.662	0.672	0.731	0.614	0.510	0.504	0.422	0.408	0.454	0.372	0.435	0.368	0.406	0.335	0.271	0.294	0.271	0.245	0.325
635.0	11.67	14.03	9.649	7.419	6.265	8.382	8.102	8.804	9.960	12.04	13.26	14.97	16.02	20.03	13.69	6.755	5.371	7.353	50.45	291.0	326.0	6.511	2.230	2.226	2.180	1.894	1.759	1.676	1.866	1.816	1.823	1.764	1.617	1.703	1.627	1.594	1.579	1.433	1.371	1.281	1.131	1.254	0.954	0.898	0.950	0.884	0.920	0.778	0.714	0.709	0.691	0.628	0.474	0.601	0.481	0.557	0.491	0.548	0.475	0.441	0.550	0.571	0.446	0.486	0.387	0.388	0.345	0.393	0.384	0.321	0.354	0.352	0.301	0.301	0.234	0.229	0.250
640.0	9.630	10.88	9.310	7.453	7.050	6.557	7.043	8.593	9.447	11.12	13.05	14.38	14.84	18.21	16.06	6.796	4.847	4.474	14.02	123.8	455.0	50.19	2.307	1.959	1.759	1.717	1.556	1.542	1.522	1.510	1.672	1.417	1.320	1.485	1.404	1.261	1.339	1.198	1.214	1.149	0.993	1.032	0.983	0.871	0.913	0.757	0.736	0.771	0.674	0.613	0.594	0.538	0.470	0.514	0.475	0.470	0.362	0.424	0.452	0.363	0.427	0.529	0.439	0.421	0.339	0.384	0.284	0.350	0.293	0.251	0.284	0.346	0.308	0.260	0.169	0.223	0.122
645.0	13.18	13.01	11.17	7.655	5.627	5.988	6.522	7.365	9.601	11.57	13.03	13.35	14.20	14.96	15.71	7.597	4.810	3.667	5.844	40.55	356.9	219.5	2.709	1.764	1.521	1.645	1.558	1.468	1.682	1.269	1.463	1.228	1.385	1.310	1.345	1.117	1.203	1.107	1.062	1.126	0.924	0.959	0.913	0.782	0.783	0.654	0.657	0.705	0.608	0.580	0.558	0.447	0.482	0.445	0.406	0.416	0.384	0.387	0.423	0.403	0.471	0.421	0.413	0.419	0.317	0.300	0.318	0.340	0.279	0.251	0.282	0.303	0.283	0.237	0.256	0.216	0.164
650.0	14.77	13.32	11.90	8.326	6.431	5.234	6.995	7.089	9.198	10.60	12.48	13.36	13.54	13.65	14.96	9.447	4.739	3.769	3.523	11.90	173.8	380.1	18.86	1.621	1.427	1.322	1.351	1.171	1.364	1.242	1.262	1.366	1.222	1.155	1.340	1.171	1.270	1.013	0.964	0.861	0.859	0.817	0.897	0.675	0.578	0.568	0.636	0.567	0.559	0.505	0.430	0.468	0.439	0.427	0.424	0.380	0.430	0.385	0.431	0.339	0.362	0.360	0.363	0.458	0.332	0.304	0.350	0.366	0.299	0.311	0.313	0.273	0.261	0.283	0.248	0.191	0.204
