Sample:	'1
File name:	G2025062421æ©≤©…˙ŒÔ œ° Õ15±∂.FD3
Run date:	'10:42:55, 06/27/2025
Operator:	Administrator
Comment:	'

Instrument
Model:	F-2700 FL Spectrophotometer
Serial number:	23B8-004
ROM Version:	4J14000 07

Instrument parameters
Measurement type:	3-D scan
Data mode:	Fluorescence
EX  Start WL:	220.0 nm
EX  End WL:	600.0 nm
EX Sampling interval:	5.0 nm
EM  Start WL:	230.0 nm
EM  End WL:	650.0 nm
EM Sampling interval:	5.0 nm
Scan speed:	12000 nm/min
EX Slit:	5.0 nm
EM Slit:	5.0 nm
PMT Voltage:	700 V
Response:	Auto 
Corrected spectra:	Off
Contour interval:	50.000

Peak integration
Integration method:	Rectangular
Sensitivity:	1
Threshold:	1.000

Peaks
No.	ApexEX/EM(nm)	Height(Data)
1	225.0/490.0	306.4
2	230.0/500.0	258.0
3	235.0/515.0	190.4
4	240.0/265.0	470.9
5	240.0/385.0	2912
6	240.0/525.0	166.8
7	245.0/270.0	483.1
8	245.0/540.0	146.6
9	250.0/275.0	618.7
10	250.0/550.0	122.8
11	255.0/280.0	656.3
12	255.0/565.0	112.5
13	260.0/290.0	652.2
14	260.0/575.0	107.1
15	265.0/295.0	752.3
16	265.0/590.0	91.12
17	270.0/300.0	906.2
18	270.0/600.0	78.89
19	275.0/305.0	750.5
20	275.0/610.0	58.03
21	280.0/625.0	42.75
22	285.0/320.0	511.7
23	285.0/635.0	31.47
24	290.0/325.0	444.4
25	295.0/330.0	322.2
26	310.0/385.0	2579
27	380.0/440.0	83.54
28	385.0/445.0	70.85
29	395.0/460.0	45.53
30	400.0/465.0	40.19
31	410.0/480.0	25.19
32	415.0/485.0	22.11
33	420.0/490.0	17.94
34	425.0/500.0	15.77
35	430.0/505.0	14.26
36	440.0/520.0	10.20
37	445.0/525.0	8.523
38	450.0/535.0	6.681
39	455.0/540.0	6.000
40	465.0/555.0	3.659
41	470.0/560.0	3.175
42	480.0/575.0	1.879
43	485.0/265.0	2.562
44	485.0/385.0	9.935
45	495.0/270.0	2.528
46	505.0/275.0	3.648
47	510.0/280.0	3.863
48	515.0/285.0	4.219
49	530.0/290.0	3.821
50	535.0/270.0	33.01
51	540.0/295.0	4.936
52	545.0/300.0	5.047
53	550.0/305.0	4.853
54	560.0/310.0	3.599
55	570.0/315.0	3.436
56	575.0/320.0	3.452
57	585.0/325.0	3.488

Data points
	220.0	225.0	230.0	235.0	240.0	245.0	250.0	255.0	260.0	265.0	270.0	275.0	280.0	285.0	290.0	295.0	300.0	305.0	310.0	315.0	320.0	325.0	330.0	335.0	340.0	345.0	350.0	355.0	360.0	365.0	370.0	375.0	380.0	385.0	390.0	395.0	400.0	405.0	410.0	415.0	420.0	425.0	430.0	435.0	440.0	445.0	450.0	455.0	460.0	465.0	470.0	475.0	480.0	485.0	490.0	495.0	500.0	505.0	510.0	515.0	520.0	525.0	530.0	535.0	540.0	545.0	550.0	555.0	560.0	565.0	570.0	575.0	580.0	585.0	590.0	595.0	600.0
230.0	142.5	1806	5058	1381	54.53	8.989	7.481	5.737	5.514	4.220	4.245	3.219	2.699	2.949	2.261	1.939	1.975	1.736	1.622	1.706	1.495	1.388	1.162	1.070	0.973	0.873	0.865	0.797	0.659	0.644	0.671	0.595	0.593	0.526	0.517	0.528	0.485	0.480	0.477	0.413	0.660	0.867	0.955	0.654	0.481	0.420	1.392	6.412	10.87	7.713	3.092	0.708	0.373	0.350	0.308	0.348	0.348	0.340	0.328	0.357	0.302	0.315	0.276	0.315	0.317	0.282	0.292	0.293	0.344	0.334	0.284	0.354	0.299	0.310	0.313	0.322	0.341
235.0	228.6	512.4	2818	4392	611.0	70.99	10.45	6.847	6.854	5.130	5.026	3.668	2.909	2.825	2.129	1.855	1.911	1.874	1.776	1.924	1.658	1.351	1.258	1.075	1.002	0.839	0.787	0.821	0.688	0.691	0.792	0.573	0.548	0.575	0.547	0.490	0.535	0.506	0.488	0.449	0.471	0.629	0.826	0.956	0.862	0.544	0.686	1.821	4.024	6.576	9.488	9.787	5.203	1.088	0.387	0.307	0.332	0.349	0.335	0.351	0.288	0.336	0.293	0.340	0.363	0.270	0.321	0.327	0.306	0.395	0.278	0.322	0.311	0.306	0.342	0.343	0.414
240.0	315.1	269.5	815.4	3501	4505	487.7	41.75	8.509	8.231	5.099	5.323	3.650	2.891	3.047	2.307	2.013	2.186	1.897	1.935	1.714	1.724	1.383	1.175	1.146	1.026	0.917	0.833	0.816	0.718	0.670	0.758	0.663	0.656	0.485	0.553	0.444	0.517	0.531	0.525	0.486	0.496	0.512	0.608	0.687	1.060	0.997	0.707	0.808	1.160	2.029	4.977	11.82	15.87	9.261	3.336	1.049	0.378	0.300	0.310	0.337	0.332	0.335	0.302	0.323	0.379	0.309	0.322	0.317	0.321	0.360	0.274	0.311	0.319	0.371	0.343	0.321	0.399
245.0	216.7	335.9	291.0	1160	4924	3608	378.8	20.49	10.14	6.322	7.222	4.329	3.453	3.072	2.636	2.103	2.193	2.060	1.848	1.793	1.542	1.457	1.263	1.296	1.086	0.993	0.887	0.828	0.636	0.755	0.644	0.634	0.642	0.463	0.535	0.455	0.530	0.500	0.498	0.411	0.443	0.423	0.495	0.507	0.778	0.943	1.185	1.088	0.718	0.730	1.495	3.927	10.50	14.97	15.04	11.96	2.859	0.523	0.434	0.387	0.391	0.313	0.353	0.338	0.334	0.275	0.332	0.326	0.304	0.343	0.296	0.348	0.307	0.319	0.308	0.292	0.368
250.0	97.56	233.4	361.5	384.4	1541	3641	4980	1325	101.9	9.191	9.384	5.007	4.090	4.086	2.814	2.452	2.380	2.114	1.869	1.988	1.693	1.519	1.199	1.128	1.178	0.930	0.975	0.851	0.736	0.775	0.642	0.672	0.652	0.546	0.486	0.507	0.463	0.472	0.587	0.478	0.459	0.514	0.498	0.488	0.597	0.572	0.785	1.184	1.304	1.047	0.952	1.246	2.743	4.995	8.913	18.09	20.46	17.16	8.933	2.877	0.590	0.347	0.436	0.350	0.316	0.324	0.311	0.336	0.329	0.389	0.379	0.334	0.324	0.329	0.334	0.340	0.327
255.0	68.09	80.48	240.0	435.2	460.6	932.4	4215	8073	2066	79.01	12.66	7.212	5.051	5.077	3.308	2.848	2.674	2.464	2.000	2.031	1.676	1.599	1.347	1.184	1.280	0.885	1.086	0.991	0.791	0.712	0.808	0.668	0.623	0.557	0.591	0.590	0.492	0.540	0.580	0.490	0.534	0.493	0.448	0.480	0.527	0.512	0.491	0.595	0.721	1.073	1.695	1.634	1.198	1.501	2.395	4.659	7.503	16.81	28.31	28.02	15.11	2.916	0.479	0.323	0.342	0.312	0.348	0.358	0.378	0.405	0.377	0.310	0.367	0.356	0.358	0.332	0.422
260.0	57.61	46.53	105.7	360.2	406.0	285.3	1302	7024	9999.9	1297	44.74	10.22	6.735	5.969	3.661	2.973	2.803	2.581	2.321	2.282	1.960	1.686	1.512	1.262	1.267	0.930	1.059	1.105	0.811	0.973	0.852	0.779	0.701	0.615	0.612	0.595	0.565	0.514	0.594	0.494	0.538	0.554	0.511	0.632	0.552	0.480	0.373	0.509	0.449	0.560	1.136	2.072	1.964	1.342	1.077	1.488	2.154	4.917	12.69	30.40	39.39	25.28	9.644	1.408	0.440	0.338	0.395	0.365	0.392	0.413	0.405	0.454	0.412	0.369	0.347	0.360	0.334
265.0	55.86	44.73	47.62	178.0	470.9	305.8	357.2	2426	9999.9	7336	227.2	15.40	8.206	7.208	4.752	3.306	2.974	2.676	2.810	2.393	2.093	1.929	1.512	1.412	1.169	1.161	1.256	1.333	0.965	0.960	0.789	0.791	0.822	0.712	0.646	0.637	0.539	0.566	0.576	0.543	0.507	0.554	0.636	0.619	0.528	0.497	0.460	0.531	0.439	0.453	0.622	1.214	2.166	2.562	1.763	1.047	1.000	1.592	3.339	9.342	21.20	37.76	32.96	22.32	5.474	0.733	0.500	0.429	0.419	0.450	0.361	0.418	0.423	0.394	0.356	0.372	0.416
270.0	65.94	50.76	44.11	75.82	255.3	483.1	353.0	623.7	3775	7756	9999.9	807.8	44.78	10.81	5.899	4.788	4.129	3.383	2.903	2.910	2.230	1.959	1.807	1.603	1.360	1.258	1.152	1.298	1.005	1.159	0.861	0.924	0.835	0.741	0.676	0.635	0.601	0.643	0.637	0.512	0.571	0.610	0.635	0.640	0.585	0.550	0.477	0.540	0.453	0.360	0.476	0.640	1.007	1.652	2.342	2.528	2.193	1.401	1.352	2.617	5.427	11.33	18.24	33.01	30.05	34.54	15.17	6.244	0.838	0.533	0.463	0.475	0.436	0.460	0.375	0.389	0.388
275.0	106.3	73.04	57.34	52.03	110.9	272.3	618.7	402.2	908.7	1987	9531	9786	1077	43.83	9.205	6.385	5.448	4.092	3.197	3.484	2.377	2.106	1.958	1.827	1.445	1.383	1.101	1.399	1.022	1.014	1.196	0.986	0.827	0.906	0.951	0.687	0.673	0.633	0.651	0.569	0.652	0.597	0.730	0.670	0.680	0.648	0.574	0.494	0.574	0.401	0.461	0.586	0.685	0.916	1.168	1.680	2.873	3.648	2.507	1.377	1.836	3.004	4.585	8.127	9.876	27.36	50.14	61.33	23.81	5.543	0.692	0.561	0.417	0.465	0.423	0.435	0.494
280.0	150.7	107.9	80.12	50.62	81.53	147.5	441.1	656.3	368.8	525.6	2823	8666	8040	775.9	17.92	8.414	6.740	4.300	4.132	4.071	2.737	2.431	2.212	1.755	1.796	1.607	1.295	1.510	1.112	1.189	1.071	1.014	0.895	1.033	1.023	0.837	0.851	0.762	0.733	0.689	0.682	0.671	0.739	0.728	0.752	0.706	0.753	0.637	0.551	0.465	0.472	0.582	0.584	0.720	0.819	1.037	1.530	2.664	3.863	3.371	1.963	1.266	1.662	2.439	2.838	7.367	18.72	45.24	64.01	32.78	16.22	3.577	0.521	0.565	0.416	0.532	0.508
285.0	209.6	142.0	94.79	53.07	70.46	101.6	219.9	626.1	556.7	254.4	763.0	2935	9484	7781	110.0	11.94	7.873	5.523	4.520	4.608	3.228	2.561	2.594	1.927	1.840	1.576	1.476	1.604	1.032	1.355	0.947	1.210	0.920	1.073	1.093	0.911	0.928	0.930	0.779	0.782	0.843	0.790	0.806	0.792	0.897	0.838	0.805	0.753	0.592	0.571	0.520	0.531	0.570	0.667	0.684	0.909	0.954	1.301	2.354	4.219	3.799	2.294	1.295	1.256	1.399	2.461	4.982	12.29	27.92	56.82	55.92	31.54	11.82	1.428	0.511	0.528	0.561
290.0	275.0	171.9	113.6	62.18	62.55	83.02	126.7	299.0	652.2	531.2	356.1	797.6	2991	9999.9	7447	433.3	27.24	7.449	5.535	5.619	3.962	2.921	2.600	2.133	1.910	1.750	1.686	1.641	1.163	1.321	1.131	1.118	1.027	1.185	1.126	1.123	1.003	0.987	0.911	0.846	0.899	0.883	0.944	0.939	0.893	0.964	0.883	0.807	0.654	0.600	0.475	0.530	0.623	0.591	0.674	0.862	0.770	0.878	1.270	1.921	2.990	3.779	3.821	2.849	1.884	1.574	2.061	3.566	7.071	15.31	22.47	44.31	61.84	50.16	19.12	7.995	1.472
295.0	298.8	189.4	121.4	63.95	59.34	78.53	98.49	157.0	328.6	752.3	649.4	349.2	750.0	2468	6400	9431	619.2	19.94	8.324	7.168	4.647	3.504	2.869	2.547	2.185	1.913	1.879	1.890	1.392	1.292	1.239	1.130	1.243	1.300	1.245	1.275	1.141	0.967	1.136	0.858	1.021	1.120	0.988	0.959	1.000	0.927	0.925	0.874	0.696	0.608	0.547	0.504	0.596	0.577	0.609	0.800	0.649	0.765	0.959	1.103	1.416	1.770	2.798	4.439	4.936	3.104	1.788	1.771	2.433	4.104	5.585	10.48	16.23	26.00	53.55	62.55	32.40
300.0	288.0	189.8	117.7	71.50	61.33	74.28	98.02	129.5	213.4	464.6	906.2	420.7	256.6	605.9	1855	8303	5756	86.25	12.51	8.597	5.774	3.969	3.476	2.880	2.159	1.913	1.814	1.806	1.511	1.351	1.279	1.025	1.242	1.226	1.347	1.325	1.122	1.118	0.979	0.848	1.025	1.122	1.127	0.938	1.112	0.966	0.923	0.939	0.617	0.595	0.532	0.586	0.605	0.545	0.674	0.801	0.734	0.824	0.902	0.939	1.161	1.238	1.628	2.655	4.156	5.047	3.651	1.919	1.375	1.686	1.820	2.837	4.221	6.702	16.44	36.33	84.29
305.0	271.5	176.0	125.6	66.10	59.93	71.44	97.72	123.9	180.8	288.6	672.4	750.5	191.9	191.5	463.0	2677	9189	4399	69.12	11.07	7.356	5.059	3.848	3.260	2.608	2.116	1.735	1.969	1.522	1.412	1.170	1.163	1.206	1.437	1.229	1.195	1.025	1.025	1.116	1.112	1.120	0.914	1.077	1.087	1.070	0.996	0.825	0.858	0.643	0.579	0.521	0.694	0.586	0.663	0.705	0.827	0.678	0.835	0.874	1.059	1.139	1.227	1.383	1.712	2.320	3.596	4.853	4.355	2.059	1.161	1.030	1.176	1.514	2.088	4.282	9.202	29.21
310.0	252.1	170.5	116.3	70.78	57.88	66.19	86.62	112.8	157.0	208.2	335.5	604.8	526.9	145.8	147.7	640.4	2878	6654	5941	302.1	17.73	6.342	4.920	4.115	2.960	2.366	2.208	2.190	1.616	1.617	1.331	1.276	1.166	1.318	1.325	1.209	1.143	1.163	1.031	1.038	1.017	0.957	1.139	1.064	1.111	0.909	0.843	0.820	0.634	0.582	0.523	0.714	0.615	0.649	0.636	0.849	0.701	0.732	0.830	0.844	1.075	1.109	1.250	1.297	1.507	1.813	2.475	3.247	3.599	3.098	2.162	1.149	0.949	1.011	1.535	2.619	7.116
315.0	216.8	162.7	106.6	67.62	63.23	62.73	77.99	107.8	132.8	164.3	207.6	266.9	459.5	461.8	113.0	176.5	670.9	1652	5276	9940	438.9	14.57	6.642	4.960	3.488	2.669	2.422	2.262	1.743	1.910	1.445	1.401	1.250	1.161	1.259	1.231	1.072	1.072	0.935	0.990	0.980	0.994	1.020	0.971	0.973	0.817	0.716	0.801	0.599	0.615	0.543	0.595	0.660	0.692	0.708	0.817	0.614	0.700	0.778	0.780	1.032	0.942	0.990	1.072	1.254	1.275	1.351	1.591	1.708	2.307	3.436	3.391	1.701	0.910	0.904	1.047	2.192
320.0	222.8	165.3	111.4	66.73	61.58	59.39	72.94	92.76	116.4	145.4	163.6	166.0	228.0	511.7	278.1	81.81	179.2	394.4	1506	9662	4199	64.41	9.384	6.164	4.056	2.939	2.860	2.691	1.773	1.941	1.502	1.620	1.254	1.165	1.245	1.259	1.120	1.132	0.911	0.922	0.990	1.009	0.869	0.931	0.979	0.937	0.789	0.833	0.618	0.573	0.553	0.570	0.629	0.711	0.656	0.752	0.709	0.799	0.779	0.883	0.872	0.950	0.966	1.003	1.018	0.975	1.195	1.128	1.123	1.293	2.002	3.452	3.416	2.199	1.049	0.767	1.062
325.0	226.5	169.5	124.3	71.87	58.23	58.32	69.22	84.13	107.8	127.5	141.1	133.6	132.8	291.6	444.4	111.1	70.73	114.2	362.8	3247	8146	3408	49.87	8.754	4.940	3.429	3.413	2.763	2.217	2.009	1.690	1.582	1.228	1.203	1.366	1.290	1.104	1.048	0.996	0.998	0.951	1.096	0.968	0.831	0.971	0.858	0.897	0.800	0.704	0.652	0.444	0.682	0.636	0.616	0.607	0.733	0.736	0.725	0.782	0.831	0.799	0.940	0.950	1.059	1.086	0.921	1.098	1.007	0.983	1.039	1.087	1.752	2.682	3.488	2.488	1.204	0.811
330.0	216.5	193.6	142.6	93.81	70.28	63.39	71.83	84.08	98.01	113.4	126.4	121.0	105.1	140.3	278.5	322.2	136.1	64.00	113.5	763.4	2709	5329	4750	245.7	15.10	5.583	4.543	3.687	2.287	2.241	1.933	1.714	1.366	1.297	1.263	1.285	1.044	0.999	1.059	0.894	1.005	0.995	0.977	0.886	0.956	0.892	0.949	0.886	0.715	0.660	0.560	0.761	0.737	0.614	0.690	0.775	0.786	0.748	0.768	0.804	0.836	0.822	0.903	0.901	0.984	0.920	0.899	0.947	0.935	0.870	0.940	1.129	1.299	1.858	2.347	2.635	2.153
335.0	231.0	214.8	187.2	143.7	118.2	101.3	97.68	102.3	111.1	119.5	127.1	126.2	114.9	119.3	150.4	254.6	352.3	96.93	90.86	231.7	658.1	1348	4441	8278	366.1	14.23	6.298	5.025	2.934	2.878	1.974	1.897	1.442	1.481	1.102	1.263	1.110	1.032	1.030	1.008	0.975	0.984	1.168	0.841	1.060	1.039	1.138	1.035	0.929	0.826	0.736	0.865	0.882	0.772	0.722	0.832	0.838	0.868	0.837	0.840	0.860	0.856	0.870	1.025	0.962	0.901	0.970	0.921	0.942	0.954	0.988	1.008	1.007	1.090	1.373	1.569	2.175
340.0	269.4	267.8	271.4	250.7	207.6	180.9	167.2	155.9	144.4	144.8	154.0	146.7	151.9	151.4	151.0	210.2	387.5	343.4	175.7	184.2	261.8	395.1	1339	7413	3452	55.52	11.11	6.845	3.800	3.292	2.277	2.117	1.660	1.530	1.243	1.314	1.194	1.113	1.096	0.967	0.902	0.975	1.021	0.981	1.108	1.074	1.206	1.300	1.113	1.087	0.998	1.049	1.191	1.100	1.174	1.158	1.109	1.138	1.011	0.927	1.046	1.127	1.031	1.049	1.146	1.036	1.005	1.120	1.021	1.240	1.117	1.272	1.184	1.242	1.417	1.490	1.808
345.0	368.0	395.4	401.0	413.6	377.3	340.4	307.7	263.7	224.0	192.6	198.6	201.1	197.0	245.9	265.1	299.8	395.2	547.5	406.8	303.4	285.2	276.0	444.1	2444	6248	2960	48.60	9.382	4.540	4.101	2.522	2.364	1.789	1.732	1.389	1.309	1.410	1.238	1.209	1.052	1.085	1.242	1.061	1.049	1.298	1.133	1.331	1.555	1.385	1.331	1.215	1.612	1.858	1.546	1.644	1.758	1.586	1.521	1.386	1.478	1.404	1.317	1.226	1.348	1.238	1.246	1.106	1.338	1.341	1.522	1.378	1.675	1.680	1.713	1.894	2.076	2.120
350.0	554.5	631.4	737.8	774.1	783.4	706.8	605.3	494.1	389.6	315.9	301.2	335.1	386.9	454.1	519.5	578.3	643.4	766.7	807.8	709.0	570.1	462.9	415.9	763.1	2112	4695	4860	1096	15.09	5.695	3.291	2.729	2.123	1.945	1.808	1.701	1.522	1.415	1.408	1.270	1.233	1.317	1.330	1.367	1.464	1.653	1.704	2.221	2.120	2.089	2.221	2.835	2.914	2.813	2.928	2.972	2.873	2.648	2.492	2.333	2.141	1.996	1.759	1.841	1.783	1.746	1.701	1.850	2.151	2.144	2.303	2.549	2.809	2.725	3.161	3.666	3.820
355.0	813.4	995.9	1160	1297	1285	1193	1008	825.8	609.9	488.7	450.3	506.8	597.7	726.2	831.0	920.2	1033	1121	1181	1234	1009	779.1	616.2	526.8	666.1	1222	4501	9280	366.6	17.23	4.772	3.888	2.724	2.539	2.041	1.980	1.937	1.771	1.718	1.493	1.501	1.717	1.717	1.914	2.005	2.250	2.535	2.934	3.141	2.993	3.284	4.358	4.576	4.655	4.352	4.777	4.483	4.230	3.777	3.466	3.022	2.783	2.367	2.352	2.056	2.328	2.270	2.493	2.935	2.980	3.318	3.769	4.074	4.500	4.855	5.343	6.058
360.0	1007	1240	1483	1676	1711	1562	1334	1063	793.3	610.4	569.6	643.6	768.8	928.0	1084	1220	1361	1457	1493	1532	1403	1067	809.9	558.2	398.9	388.9	1294	7958	3307	317.6	8.354	4.827	3.011	2.639	2.510	2.529	2.218	2.143	1.819	1.876	1.960	1.880	2.106	2.238	2.327	2.563	2.932	3.467	3.816	3.926	4.399	5.797	5.821	5.955	5.697	5.558	5.540	5.360	4.764	4.382	4.016	3.476	3.265	2.738	2.543	2.761	3.093	3.144	3.328	3.802	3.904	4.792	5.081	5.829	6.199	6.854	7.484
365.0	1168	1458	1783	2004	2053	1901	1639	1284	945.8	718.6	671.2	760.6	928.0	1124	1317	1493	1653	1755	1796	1765	1683	1374	1008	683.7	399.7	235.1	357.0	2436	5475	3200	46.58	6.932	3.709	3.093	3.251	2.799	2.518	2.343	2.252	2.122	1.972	1.981	2.310	2.269	2.780	3.039	3.476	4.381	4.541	4.575	4.953	6.807	7.107	7.022	6.839	6.751	6.681	6.430	5.911	5.099	4.503	4.118	3.440	3.116	3.213	3.253	3.413	3.808	4.030	4.285	4.893	5.040	5.983	6.764	7.838	8.345	9.021
370.0	1417	1724	2123	2376	2451	2274	1961	1533	1129	855.4	795.8	908.1	1098	1340	1572	1794	1981	2116	2162	2087	1922	1686	1306	853.3	482.4	244.1	169.2	592.9	1665	5400	4076	970.1	15.19	4.307	3.943	3.338	2.933	2.701	2.390	2.494	2.389	2.478	2.669	2.868	3.059	3.568	4.231	4.921	5.555	5.351	6.158	7.854	8.165	8.355	8.040	8.018	8.211	7.633	6.809	5.966	5.397	4.683	4.058	3.785	3.671	3.702	4.050	4.299	4.363	5.246	5.777	6.517	7.446	8.110	9.166	9.670	10.74
375.0	1585	1904	2339	2659	2775	2559	2201	1748	1275	954.4	892.0	1009	1234	1489	1756	2001	2231	2380	2444	2366	2132	1831	1525	1050	571.0	286.3	152.8	193.9	406.4	1298	3171	6062	337.0	14.72	4.758	4.068	3.539	3.061	2.882	2.361	2.566	2.730	2.999	3.287	3.379	3.897	4.590	5.349	6.006	6.039	6.778	8.896	9.052	9.200	8.767	9.089	9.180	8.580	7.537	6.744	6.064	5.384	4.614	4.387	4.186	3.774	4.238	4.455	5.238	5.888	6.375	7.256	7.973	9.019	10.12	10.95	12.11
380.0	1583	1992	2451	2757	2884	2673	2323	1828	1339	1003	935.9	1058	1289	1562	1825	2102	2323	2486	2557	2461	2230	1899	1554	1169	650.3	321.4	166.0	117.5	134.5	318.9	855.9	4855	4841	266.4	8.448	4.883	3.705	3.549	2.862	2.789	2.958	3.064	3.092	3.268	4.038	4.208	4.486	5.580	6.048	6.229	7.025	9.005	9.173	9.786	9.172	9.260	9.679	8.849	7.930	6.893	6.383	5.390	4.920	4.752	4.278	4.182	4.606	4.754	5.349	5.870	6.611	7.611	8.164	9.797	10.43	11.68	12.52
385.0	1623	1988	2442	2765	2912	2697	2341	1842	1359	1023	956.4	1077	1294	1574	1848	2122	2340	2514	2579	2496	2263	1920	1548	1175	738.1	361.7	184.8	112.2	84.02	106.4	215.3	1445	4900	2564	39.77	6.674	4.118	3.770	3.435	2.952	2.958	3.082	3.157	3.316	3.962	4.196	4.584	5.884	5.947	6.322	6.722	9.156	9.290	9.935	9.480	9.652	9.565	8.807	7.956	6.983	6.202	5.402	5.061	4.831	4.361	4.231	4.406	5.042	5.754	5.797	6.973	7.522	8.477	9.857	10.65	11.66	13.22
390.0	1613	2019	2404	2727	2821	2632	2270	1798	1321	1002	935.4	1060	1264	1537	1799	2051	2281	2440	2511	2438	2229	1898	1523	1122	745.3	438.8	225.0	131.9	88.77	72.03	78.40	344.1	1391	2794	2840	873.5	14.35	4.385	3.929	3.043	3.153	3.152	3.272	3.522	3.973	4.123	4.625	5.563	5.953	5.903	6.675	8.919	9.111	9.791	9.533	9.609	9.199	8.799	7.904	7.000	6.258	5.475	4.691	4.416	4.388	4.115	4.419	4.922	5.440	5.840	6.598	7.379	8.474	9.396	10.21	11.15	12.68
395.0	1568	1917	2324	2541	2673	2495	2146	1701	1249	954.8	889.4	999.2	1211	1453	1684	1923	2149	2297	2360	2301	2111	1807	1462	1070	691.2	458.7	297.4	163.0	103.2	75.05	56.46	102.0	326.3	654.6	1850	4387	287.8	18.15	4.650	3.410	3.372	3.241	3.384	3.313	4.061	4.092	4.239	5.248	5.814	5.711	6.433	8.408	8.828	9.219	8.865	8.700	8.627	8.055	7.552	6.576	5.943	5.061	4.608	3.989	4.209	3.908	4.225	4.404	4.809	5.783	6.228	7.080	8.200	8.706	9.596	10.53	11.61
400.0	1508	1812	2124	2388	2451	2308	2019	1596	1174	912.1	834.2	950.8	1120	1354	1580	1802	2012	2148	2205	2167	1980	1708	1383	1018	657.0	423.9	327.7	204.0	116.9	82.07	56.77	53.12	92.10	159.2	477.5	2852	3212	267.9	12.59	3.969	3.477	3.433	3.473	3.278	3.648	3.892	4.295	4.857	5.343	5.237	5.929	7.781	8.212	8.502	8.154	8.027	8.422	7.638	6.871	6.450	5.680	4.784	4.178	4.127	4.015	3.790	3.998	4.221	4.804	5.265	5.820	6.293	7.632	8.092	9.277	10.11	10.80
405.0	1422	1641	1963	2204	2238	2113	1854	1480	1095	853.7	785.4	890.8	1049	1263	1462	1667	1861	1987	2039	2011	1842	1592	1298	964.7	629.0	395.6	303.6	245.2	140.9	90.13	61.48	45.27	42.92	51.39	118.7	764.6	2668	2344	222.6	6.333	4.069	3.601	3.503	3.424	3.469	3.671	4.063	4.605	5.159	5.262	5.477	7.431	7.396	7.698	7.787	7.733	7.884	7.022	6.538	5.979	5.306	4.545	4.020	3.833	3.745	3.592	3.512	4.008	4.457	5.163	5.331	6.023	7.207	7.298	8.604	9.339	10.16
410.0	1275	1514	1759	1925	1976	1882	1637	1312	983.6	765.2	718.0	793.1	937.6	1112	1291	1469	1641	1757	1807	1776	1636	1425	1169	875.3	581.6	373.0	263.8	229.6	187.6	112.8	70.20	48.33	36.42	29.57	39.93	181.1	710.5	2216	2766	905.1	15.76	4.066	3.733	3.425	3.521	3.488	3.745	4.297	4.618	4.542	4.971	6.569	6.499	6.790	6.745	6.981	6.777	6.298	6.045	5.264	4.721	4.221	3.760	3.523	3.356	3.263	3.402	3.647	3.996	4.560	4.783	5.527	6.355	6.660	7.630	8.055	9.066
415.0	1177	1338	1530	1641	1709	1628	1412	1147	859.8	679.3	632.3	691.1	809.2	972.8	1113	1263	1412	1510	1554	1536	1416	1239	1026	777.3	525.2	347.1	244.2	191.5	180.7	156.5	85.87	52.25	36.62	27.31	24.55	51.47	166.6	509.9	1462	3623	1362	19.81	4.203	3.471	3.518	3.240	3.527	4.203	4.170	3.933	4.493	5.480	5.835	5.872	5.846	5.823	6.039	5.657	5.060	4.899	4.022	3.540	3.308	3.116	2.968	2.955	3.110	3.239	3.529	3.903	4.246	4.752	5.181	6.014	6.547	7.255	7.884
420.0	1022	1195	1332	1474	1499	1436	1247	1022	781.8	608.9	569.4	619.8	717.6	857.2	976.2	1110	1243	1333	1375	1365	1257	1100	916.1	702.7	482.2	324.1	229.5	175.7	153.6	160.9	110.2	56.58	38.25	28.45	21.67	23.89	45.94	121.3	359.8	2074	3851	263.4	13.64	3.488	3.545	3.344	3.195	3.387	3.805	3.749	4.049	5.262	5.109	5.482	5.377	5.229	5.848	5.310	4.631	4.155	3.789	3.372	2.912	2.962	2.766	2.736	2.732	2.928	2.893	3.387	3.947	4.370	4.892	5.028	5.853	6.334	6.972
425.0	896.4	1074	1181	1330	1309	1269	1098	906.8	703.2	552.9	519.7	559.7	642.8	760.3	876.4	988.9	1092	1174	1213	1211	1116	983.0	820.9	633.7	441.8	301.6	218.3	166.7	136.0	135.4	132.2	72.54	41.81	29.31	21.61	18.60	20.45	34.99	87.11	533.6	2766	3386	231.3	6.599	3.430	3.250	3.218	3.483	3.641	3.292	3.633	4.582	4.750	4.743	4.744	4.703	5.016	4.622	4.149	3.623	3.609	3.076	2.676	2.765	2.438	2.442	2.489	2.800	2.978	2.990	3.329	3.981	4.096	4.763	5.147	5.878	6.352
430.0	1247	932.3	1026	1130	1137	1082	952.5	781.6	608.0	484.4	454.3	488.8	558.2	650.6	747.5	838.2	933.1	1004	1034	1027	952.3	842.5	711.5	554.3	391.9	274.1	201.3	156.0	124.5	108.7	112.0	99.18	56.62	32.20	23.08	18.80	16.05	16.72	26.38	124.8	710.3	2234	2786	895.2	15.44	3.625	3.212	3.475	3.265	2.911	3.194	4.094	3.958	4.177	3.997	4.135	4.163	3.848	3.731	3.256	3.028	2.673	2.468	2.452	2.256	2.393	2.353	2.569	2.640	2.719	2.936	3.355	3.714	4.093	4.391	4.879	5.468
435.0	2519	843.3	872.5	937.3	962.5	912.3	806.2	673.4	526.9	421.9	396.9	430.1	475.3	547.4	629.2	706.0	787.8	845.7	869.4	858.8	806.9	716.3	608.6	477.5	342.7	245.1	183.8	145.0	117.0	96.38	83.96	89.29	81.20	43.59	25.41	19.87	15.64	13.82	13.59	33.50	163.1	508.9	1447	3615	1491	19.12	3.483	3.489	2.999	2.707	2.830	3.563	3.565	3.860	3.481	3.623	3.522	3.457	3.148	3.006	2.788	2.239	2.122	2.178	2.095	2.124	1.957	2.093	2.214	2.354	2.535	2.890	3.247	3.432	3.922	4.132	4.731
440.0	3625	1078	774.9	818.3	837.5	792.7	702.5	590.7	470.3	384.8	356.1	378.1	421.1	476.7	545.0	614.3	686.6	734.6	757.5	755.9	701.6	627.8	532.1	424.4	309.2	223.8	170.6	134.9	111.3	93.47	75.82	70.79	83.54	60.13	29.91	20.18	15.90	13.19	11.41	13.40	41.37	118.3	352.3	2053	4367	239.8	11.24	3.582	2.931	2.618	2.536	3.151	3.106	3.393	3.124	3.447	3.113	2.979	2.693	2.539	2.495	2.198	2.117	1.988	1.884	1.741	2.021	1.875	2.057	2.406	2.388	2.713	3.003	3.227	3.323	3.766	4.127
445.0	3670	1753	690.9	712.5	737.1	693.9	617.8	527.7	418.2	347.2	328.3	336.3	377.8	424.3	477.8	541.5	599.0	641.6	664.5	660.5	621.2	555.1	469.0	377.8	278.0	204.2	157.6	126.7	103.6	88.21	71.64	60.36	66.60	70.85	40.88	22.36	16.81	13.54	10.88	9.704	14.82	31.14	83.54	528.8	3090	1989	185.4	6.352	2.895	2.575	2.531	3.040	2.834	3.043	2.918	2.916	3.026	2.771	2.430	2.269	2.262	1.998	1.910	1.836	1.833	1.791	1.754	1.691	1.783	2.078	2.180	2.404	2.780	2.837	3.044	3.380	3.514
450.0	2145	3238	951.7	600.9	607.1	582.5	521.1	438.5	365.4	297.6	277.2	290.7	320.6	357.7	400.8	448.7	497.3	533.7	554.1	551.4	520.0	466.0	395.2	319.4	240.3	178.9	139.2	114.7	93.97	79.19	65.82	53.70	48.54	55.91	54.91	32.43	17.91	13.49	10.89	9.194	9.348	11.60	22.91	122.2	788.6	1611	2349	795.0	12.28	2.827	2.455	2.686	2.568	2.667	2.497	2.591	2.685	2.412	2.202	2.145	2.192	1.694	1.708	1.761	1.595	1.597	1.587	1.582	1.656	1.714	1.845	2.162	2.254	2.409	2.602	2.699	3.092
455.0	873.9	2995	2506	532.9	493.7	488.4	425.3	372.3	303.3	254.8	234.8	245.1	268.7	293.6	326.9	365.7	399.9	428.9	450.8	445.7	420.3	378.5	326.0	266.5	202.5	152.9	120.4	100.5	84.06	70.75	59.66	48.86	40.91	38.89	45.85	45.23	24.59	14.24	11.64	9.078	7.893	7.578	9.371	30.92	179.4	367.5	1173	3121	1011	14.58	2.658	2.594	2.432	2.383	2.224	2.481	2.242	2.154	1.955	2.014	1.746	1.624	1.643	1.452	1.383	1.312	1.416	1.434	1.381	1.600	1.620	1.785	1.903	1.905	2.359	2.441	2.667
460.0	483.1	1777	3731	739.6	421.0	421.8	359.5	322.5	262.2	225.3	209.1	215.2	227.3	252.7	278.0	307.8	343.5	366.1	379.2	379.6	354.9	321.8	281.3	228.3	176.0	137.4	108.8	91.51	76.60	65.13	54.19	46.48	39.07	32.78	34.74	45.53	34.25	17.36	11.46	9.272	7.471	6.792	6.441	10.36	43.46	85.29	282.8	1743	2733	181.9	9.192	2.855	2.438	2.276	2.035	2.314	2.182	1.937	1.767	1.670	1.611	1.464	1.451	1.340	1.226	1.338	1.285	1.276	1.381	1.413	1.555	1.472	1.774	1.762	1.843	2.029	2.273
465.0	402.7	836.6	3743	1599	383.9	359.6	316.8	274.7	234.9	204.7	187.1	187.2	198.7	218.9	240.6	266.4	295.5	315.4	325.9	324.3	308.6	277.7	242.9	196.9	153.8	122.5	97.32	80.97	68.95	59.85	51.60	44.80	35.40	30.20	27.62	34.73	40.19	23.17	12.40	8.957	7.618	6.434	5.824	6.002	13.28	21.99	66.59	450.0	2006	2103	159.0	5.830	2.563	2.390	2.046	2.251	1.939	1.739	1.588	1.517	1.535	1.441	1.286	1.273	1.165	1.189	1.213	1.201	1.344	1.301	1.395	1.562	1.583	1.612	1.790	1.815	1.990
470.0	386.7	410.2	1980	3159	562.9	290.6	267.4	236.5	199.7	171.8	161.5	159.2	168.3	182.1	195.9	216.2	241.0	253.7	264.8	264.5	249.3	226.7	198.5	164.1	130.4	103.0	83.42	70.13	61.34	53.20	46.03	39.61	31.74	28.04	24.21	24.02	30.40	30.27	17.78	9.416	7.350	6.101	5.485	5.077	6.353	7.709	17.70	103.7	521.2	1347	1556	719.8	12.74	2.437	2.094	2.152	1.836	1.570	1.366	1.373	1.360	1.279	1.193	1.147	1.137	1.107	1.074	1.110	1.188	1.087	1.189	1.243	1.335	1.471	1.479	1.594	1.676
475.0	387.7	287.5	705.2	2913	1776	253.0	216.1	195.0	165.1	146.6	131.8	130.2	140.0	148.7	159.1	172.9	191.0	200.5	212.2	208.3	199.8	182.2	161.5	134.1	108.0	84.99	70.70	60.35	53.31	46.43	40.39	35.25	29.09	25.49	21.42	19.46	19.50	25.66	24.82	13.49	7.740	5.820	5.198	4.410	5.047	4.502	6.580	25.56	118.1	304.5	691.7	2160	953.9	15.60	2.383	2.017	1.597	1.395	1.246	1.247	1.140	1.077	0.977	1.053	1.019	0.942	1.087	0.970	1.001	1.002	0.974	0.977	1.065	1.300	1.188	1.374	1.316
480.0	362.3	266.5	331.4	1707	2796	416.4	194.4	171.4	147.9	128.9	120.5	117.2	125.3	128.6	137.4	148.0	162.7	173.8	179.0	179.0	167.4	154.8	138.1	114.6	93.23	73.74	62.31	54.63	47.21	42.00	36.99	32.56	27.18	23.68	20.17	17.82	15.95	17.83	25.19	18.91	9.049	5.963	4.903	4.288	4.372	3.956	3.918	7.918	28.41	69.72	166.0	1132	2297	212.5	15.11	2.433	1.661	1.458	1.265	1.220	1.058	1.033	0.976	1.094	0.977	0.808	0.880	0.886	0.860	0.904	0.846	0.960	0.913	1.174	1.084	1.224	1.191
485.0	304.2	296.1	224.9	735.9	2910	1058	175.8	150.6	137.3	114.0	109.4	107.0	107.8	112.8	118.8	128.1	142.8	151.9	153.4	156.2	145.4	133.1	121.4	99.36	81.90	65.96	56.41	49.06	43.17	38.40	34.10	30.14	25.51	22.04	18.53	16.43	14.24	13.80	19.78	22.11	12.79	6.071	5.129	4.142	4.139	3.903	3.525	3.995	8.222	17.35	38.99	289.8	1544	1756	206.4	4.927	1.795	1.558	1.354	1.195	1.039	1.056	1.013	0.954	0.794	0.870	0.830	0.902	0.796	0.789	0.803	0.845	0.868	1.023	1.002	1.160	1.107
490.0	208.8	306.4	203.0	299.9	1664	2304	323.5	127.9	118.3	99.62	95.35	92.74	92.90	96.53	100.8	108.0	117.1	126.2	128.9	129.7	121.8	113.5	101.3	85.13	70.24	58.06	48.86	42.92	37.76	34.32	30.17	26.64	23.75	20.09	17.56	15.30	13.30	12.23	12.88	17.65	17.94	9.790	5.506	4.226	3.914	3.473	3.429	3.262	3.661	5.390	10.23	66.49	391.8	1178	1771	800.3	12.83	1.752	1.288	1.223	1.136	0.970	0.944	0.876	0.810	0.846	0.828	0.823	0.890	0.756	0.808	0.805	0.902	0.972	0.963	1.003	1.112
495.0	154.5	274.5	227.5	175.5	553.5	2323	1409	125.4	101.3	91.20	82.43	76.70	77.76	80.54	84.03	88.73	94.58	100.5	104.2	105.7	99.40	92.76	81.26	71.03	58.68	49.59	41.94	37.19	32.99	29.86	26.98	24.19	21.39	18.03	15.61	14.02	11.75	10.76	10.42	11.02	15.72	15.26	7.772	4.777	3.874	3.303	3.094	3.384	2.832	2.734	3.757	16.32	88.98	266.8	787.5	3063	905.5	15.69	1.544	1.296	1.189	0.910	1.042	0.791	0.886	0.803	0.761	0.753	0.669	0.766	0.856	0.816	0.770	0.794	0.863	0.787	0.927
500.0	137.8	195.0	258.0	148.7	219.4	1406	2572	243.2	90.15	81.09	70.82	70.94	67.54	70.68	73.13	76.05	81.39	85.85	88.69	89.71	85.85	78.70	71.11	60.63	50.32	42.67	36.85	33.05	29.73	26.13	24.58	21.36	19.06	16.99	14.65	12.86	11.23	9.914	9.108	8.248	10.93	15.77	10.99	5.615	3.997	3.051	2.847	2.874	2.762	2.168	2.251	5.004	21.22	61.05	187.9	1601	2052	221.7	8.922	1.433	1.098	0.893	0.934	0.895	0.859	0.760	0.706	0.692	0.723	0.683	0.772	0.626	0.715	0.730	0.815	0.765	0.965
505.0	122.1	139.0	252.0	155.6	135.1	603.6	3001	770.4	82.93	73.01	63.69	61.92	59.80	61.44	62.39	68.42	70.33	74.54	76.54	77.96	73.83	67.59	62.14	53.23	44.21	37.07	32.95	29.57	26.12	24.95	22.32	19.98	17.24	15.69	13.93	11.99	10.88	9.065	8.573	7.316	8.021	12.31	14.26	7.623	3.947	3.123	2.794	2.649	2.407	2.201	2.034	2.471	6.004	14.88	43.72	400.5	1388	1400	180.4	3.977	1.392	0.939	1.028	0.866	0.731	0.718	0.675	0.634	0.815	0.689	0.643	0.569	0.707	0.699	0.771	0.753	0.750
510.0	106.1	96.93	182.4	182.3	104.7	212.8	1827	2186	198.5	62.86	56.19	53.55	50.45	52.35	52.60	55.87	58.65	61.41	62.62	62.82	59.99	55.98	50.66	44.45	37.56	32.03	27.65	25.45	22.49	20.82	19.65	17.25	14.96	14.14	12.00	11.10	9.604	8.587	7.525	6.444	6.371	7.540	11.61	11.15	6.163	3.271	2.861	2.359	2.150	2.118	1.981	1.917	2.455	4.490	11.15	90.98	352.6	813.3	1217	546.2	12.89	1.138	1.024	0.899	0.769	0.733	0.700	0.633	0.703	0.619	0.632	0.571	0.654	0.587	0.665	0.652	0.688
515.0	93.01	78.46	113.7	190.4	111.4	105.2	568.4	2627	1757	61.15	49.86	45.30	44.59	41.82	43.49	44.71	47.98	48.89	51.20	51.32	48.36	45.56	41.56	36.65	30.39	26.48	23.39	21.53	19.10	17.98	16.46	14.77	13.02	12.01	10.66	9.557	8.454	7.895	6.571	6.070	5.361	5.324	6.615	10.20	9.357	4.368	2.572	2.315	1.884	1.745	1.860	2.045	1.688	2.039	3.537	21.60	79.77	183.6	506.0	1520	822.7	15.15	1.262	0.995	0.793	0.708	0.708	0.581	0.670	0.684	0.683	0.600	0.605	0.698	0.607	0.582	0.596
520.0	76.04	72.65	79.94	153.8	144.5	74.02	184.2	1714	3964	140.8	44.48	40.44	38.44	37.58	37.29	38.15	40.23	41.16	43.53	42.96	40.22	38.43	34.80	31.00	26.29	23.10	20.21	18.53	17.08	15.49	14.47	12.78	12.12	11.04	9.967	9.026	7.876	7.082	6.007	5.612	4.865	4.589	4.424	7.246	10.20	6.659	3.063	2.298	1.863	1.618	1.554	1.909	1.709	1.551	1.900	6.023	18.93	41.98	119.9	741.4	1742	219.5	9.441	1.082	0.909	0.732	0.672	0.646	0.593	0.672	0.580	0.577	0.623	0.661	0.597	0.524	0.597
525.0	76.74	64.85	65.92	117.8	166.8	73.81	88.81	730.3	5014	546.6	40.63	35.78	33.48	33.38	31.94	34.21	35.02	36.11	37.67	36.54	34.38	32.51	30.35	27.00	23.16	20.10	17.80	16.30	15.37	14.48	13.25	11.71	10.43	9.664	8.938	7.869	7.343	6.455	5.614	5.332	4.397	4.096	3.891	4.778	8.333	8.523	4.463	2.469	1.786	1.461	1.394	1.647	1.907	1.516	1.407	2.446	5.236	10.33	27.89	183.9	1037	1086	184.6	3.636	1.048	0.873	0.626	0.657	0.651	0.589	0.588	0.562	0.584	0.620	0.544	0.631	0.632
530.0	70.44	55.07	50.90	72.24	153.1	100.3	59.63	218.3	3008	1947	117.3	33.06	29.13	28.56	27.46	28.65	28.75	30.16	30.62	29.98	29.01	27.28	24.80	22.10	19.73	17.21	15.48	13.57	12.69	12.09	11.35	10.53	9.079	8.323	7.735	6.849	6.302	5.725	4.983	4.497	4.010	3.623	3.422	3.430	4.809	7.717	6.605	3.447	1.758	1.376	1.276	1.411	1.540	1.729	1.465	1.475	2.081	3.137	7.080	42.03	255.6	594.3	932.9	524.1	12.75	0.986	0.730	0.709	0.648	0.650	0.600	0.500	0.576	0.512	0.528	0.570	0.610
535.0	62.58	52.66	44.18	44.43	103.7	142.0	57.28	79.00	953.9	2591	693.5	30.34	25.17	22.64	23.50	22.92	24.79	24.11	24.65	24.24	23.75	21.96	20.42	17.82	16.00	14.40	12.68	11.90	11.00	9.750	9.152	8.687	7.791	7.278	6.541	5.964	5.492	5.345	4.418	3.909	3.616	3.453	3.170	2.797	2.974	4.372	6.681	5.502	2.444	1.291	1.205	1.212	1.110	1.320	1.721	1.401	1.185	1.434	2.204	10.13	57.88	133.9	344.2	1374	252.2	16.68	0.940	0.756	0.628	0.694	0.533	0.550	0.510	0.520	0.452	0.517	0.595
540.0	54.61	43.03	36.28	39.26	62.82	146.6	71.01	45.84	261.1	1735	1634	66.34	22.68	20.57	21.15	20.05	20.55	20.30	21.18	21.19	19.95	19.25	17.04	15.78	13.51	12.46	11.42	10.12	9.672	8.830	8.152	7.859	6.881	6.403	5.928	5.178	5.033	4.440	4.074	3.594	3.304	3.020	2.905	2.525	2.316	2.955	4.689	6.000	3.689	1.528	1.162	1.099	1.030	1.014	1.517	1.678	1.101	1.027	1.137	2.900	13.66	30.67	79.81	637.5	1089	233.8	9.021	0.934	0.732	0.614	0.522	0.533	0.481	0.513	0.390	0.477	0.487
545.0	53.71	43.84	38.43	37.28	40.74	123.4	96.56	39.76	87.19	725.3	2331	193.4	19.73	19.15	17.41	17.26	18.11	18.34	18.25	17.35	17.14	15.92	14.91	13.36	12.19	10.57	9.551	8.515	7.937	7.683	6.846	6.639	6.318	5.495	5.179	4.537	4.768	4.148	3.905	3.374	2.908	2.796	2.670	2.263	2.101	1.992	2.981	5.211	4.745	2.181	1.234	1.021	1.087	0.942	1.027	1.589	1.396	0.935	0.932	1.323	3.759	7.463	18.66	154.3	636.6	1052	179.9	3.806	0.848	0.685	0.540	0.539	0.490	0.530	0.496	0.475	0.457
550.0	52.04	43.25	34.12	30.68	33.37	72.51	122.8	47.18	43.66	201.6	1579	1229	60.68	16.04	14.82	13.84	14.62	14.56	14.64	14.34	13.62	13.15	12.09	10.85	9.647	8.596	7.561	7.066	6.792	6.375	5.746	5.709	5.199	4.794	4.406	3.822	3.873	3.621	3.184	2.838	2.604	2.322	2.362	1.984	1.856	1.794	1.925	3.038	4.376	3.409	1.822	1.084	0.897	0.810	0.875	1.123	1.318	1.199	0.954	0.889	1.441	2.343	4.809	35.22	155.2	517.2	682.6	323.2	14.76	0.842	0.579	0.554	0.553	0.575	0.445	0.479	0.483
555.0	51.00	43.69	31.50	28.53	25.15	36.69	106.2	77.23	29.80	64.48	478.1	1913	408.3	15.16	11.94	11.51	11.76	11.75	11.69	11.81	10.94	10.56	9.170	8.589	7.605	6.713	6.274	5.936	5.519	5.129	4.845	4.314	4.090	4.053	3.691	3.294	2.987	2.756	2.675	2.385	2.147	1.859	1.865	1.682	1.618	1.533	1.426	1.703	2.604	3.659	2.787	1.276	0.820	0.760	0.793	0.807	1.025	1.260	1.194	0.830	0.761	0.988	1.607	8.317	35.21	116.3	230.0	685.6	520.6	19.11	0.686	0.679	0.495	0.488	0.437	0.492	0.396
560.0	52.12	37.90	29.08	23.08	23.51	27.08	73.77	100.0	32.97	34.89	132.8	1348	1117	33.61	11.24	10.06	10.01	9.755	10.17	9.437	9.160	8.663	7.630	7.136	6.168	5.388	5.223	5.057	4.706	4.520	4.022	3.895	3.377	3.174	3.056	2.927	2.603	2.568	2.225	1.987	1.947	1.717	1.522	1.527	1.469	1.345	1.198	1.215	1.605	2.827	3.175	1.745	0.969	0.647	0.633	0.776	0.712	0.862	1.295	1.069	0.680	0.682	0.825	2.444	8.320	26.57	52.92	275.1	805.8	236.9	10.92	0.672	0.590	0.480	0.446	0.513	0.511
565.0	50.60	42.87	28.70	22.52	19.93	22.66	41.64	112.5	45.76	27.72	49.05	545.5	1648	127.4	10.65	9.212	8.306	8.215	8.355	7.557	7.504	6.998	6.752	5.999	5.275	4.637	4.655	4.218	4.316	3.690	3.610	3.584	2.887	2.747	2.630	2.593	2.459	2.188	2.141	1.774	1.680	1.600	1.401	1.337	1.294	1.193	0.991	1.013	1.050	1.725	2.818	2.319	1.095	0.676	0.707	0.681	0.719	0.725	1.043	1.288	0.745	0.622	0.643	1.093	2.365	6.609	12.50	64.75	375.4	708.1	181.3	4.806	0.692	0.550	0.478	0.463	0.495
570.0	51.85	39.16	28.12	19.81	17.62	18.37	25.35	82.35	81.24	28.97	31.37	153.0	1107	907.1	34.67	8.279	7.280	6.884	6.800	6.291	6.190	5.832	5.658	5.095	4.470	3.900	3.773	3.282	3.408	3.134	2.878	3.043	2.585	2.366	2.169	2.122	2.011	1.788	1.775	1.586	1.499	1.357	1.337	1.243	1.251	1.010	0.949	0.898	0.887	1.007	1.573	2.254	1.562	0.974	0.663	0.632	0.560	0.559	0.735	0.989	1.132	0.748	0.639	0.687	0.988	1.984	3.271	15.02	88.14	302.9	437.1	240.7	14.48	0.778	0.490	0.502	0.489
575.0	44.46	35.45	24.50	17.39	16.63	15.79	19.14	42.45	107.1	42.02	27.37	51.01	333.5	1527	293.0	7.951	6.061	5.742	5.455	5.408	5.298	5.086	4.758	4.467	3.765	3.516	3.027	2.803	2.717	2.728	2.333	2.246	2.050	2.004	1.747	1.791	1.771	1.616	1.388	1.380	1.234	1.157	1.168	1.089	0.998	0.804	0.789	0.742	0.727	0.655	0.863	1.405	1.879	1.375	0.726	0.653	0.539	0.500	0.572	0.622	0.926	0.921	0.754	0.586	0.626	0.893	1.107	3.829	20.09	68.02	126.2	385.4	261.3	19.90	0.763	0.501	0.476
580.0	43.50	39.49	23.71	18.31	14.08	14.09	14.50	25.44	94.28	65.62	26.12	28.05	90.68	1054	868.8	19.89	5.625	4.848	5.147	4.467	4.177	4.164	3.940	3.858	3.403	2.933	2.696	2.495	2.171	2.215	2.190	1.990	1.858	1.886	1.599	1.583	1.494	1.346	1.220	1.186	1.089	1.046	1.078	0.968	1.033	0.787	0.849	0.680	0.611	0.562	0.623	0.857	1.634	1.617	0.977	0.655	0.516	0.514	0.423	0.565	0.667	1.028	1.101	0.617	0.555	0.601	0.621	1.283	4.930	15.57	28.83	133.8	473.6	217.4	13.43	0.672	0.482
585.0	52.83	39.83	23.63	16.70	12.93	12.74	13.43	19.94	63.07	90.19	28.70	23.12	31.90	417.1	1415	90.90	4.962	4.606	4.249	3.946	4.106	3.337	3.270	3.187	2.793	2.642	2.345	2.015	2.135	1.844	1.972	1.639	1.558	1.619	1.517	1.349	1.272	1.230	1.097	1.173	1.007	0.859	0.966	0.950	0.835	0.792	0.793	0.744	0.562	0.552	0.548	0.577	1.130	1.473	1.268	0.705	0.510	0.479	0.396	0.484	0.536	0.697	1.145	0.839	0.502	0.479	0.490	0.650	1.545	3.952	6.842	31.02	195.9	385.3	157.4	5.615	0.553
590.0	48.06	35.54	19.68	14.31	13.09	12.78	11.94	15.43	32.97	91.12	47.93	20.81	16.61	110.3	939.6	823.5	16.66	4.450	3.892	3.530	3.511	3.085	3.099	2.790	2.491	2.060	1.983	1.830	1.854	1.670	1.736	1.514	1.240	1.367	1.231	1.112	1.119	1.057	1.019	1.008	0.918	0.785	0.773	0.735	0.705	0.637	0.697	0.599	0.527	0.523	0.545	0.518	0.704	1.031	1.369	1.057	0.570	0.491	0.456	0.468	0.511	0.529	0.732	0.902	0.826	0.556	0.498	0.516	0.748	1.272	1.939	7.319	45.29	139.7	253.0	151.9	16.63
595.0	42.62	30.95	19.99	13.23	11.26	12.86	11.28	14.84	21.13	58.48	71.14	21.28	12.54	30.43	267.0	1285	90.93	4.185	3.603	3.079	3.360	2.583	2.690	2.534	2.164	1.841	1.655	1.631	1.515	1.343	1.469	1.310	1.155	1.194	1.174	1.172	1.015	0.954	0.887	0.998	0.963	0.716	0.725	0.683	0.629	0.617	0.679	0.558	0.431	0.452	0.444	0.486	0.501	0.607	1.042	1.335	0.895	0.522	0.536	0.410	0.416	0.434	0.467	0.629	0.923	0.717	0.540	0.416	0.498	0.644	0.714	1.950	10.48	31.52	66.79	210.5	258.7
600.0	39.48	31.20	20.71	13.27	11.01	10.32	12.15	14.18	17.27	37.07	78.89	27.88	10.74	12.47	68.33	888.6	544.0	8.965	3.363	2.782	2.711	2.504	2.415	2.338	1.959	1.554	1.588	1.471	1.352	1.332	1.279	1.135	1.125	0.950	0.958	0.932	0.966	0.842	0.742	0.799	0.666	0.721	0.802	0.715	0.757	0.554	0.595	0.540	0.424	0.386	0.392	0.507	0.413	0.445	0.742	1.171	1.028	0.602	0.541	0.434	0.487	0.431	0.456	0.461	0.750	0.870	0.563	0.444	0.466	0.478	0.506	0.753	2.680	7.418	15.26	66.99	276.7
605.0	40.97	29.77	17.91	10.81	11.67	10.19	10.96	12.68	15.57	25.06	72.26	40.19	10.47	8.706	21.09	347.8	883.7	50.65	3.376	2.698	2.368	2.336	2.046	2.132	1.740	1.468	1.571	1.233	1.139	1.216	1.125	1.221	1.139	0.820	0.952	0.910	0.933	0.823	0.766	0.656	0.659	0.721	0.733	0.599	0.694	0.686	0.469	0.580	0.401	0.366	0.360	0.453	0.399	0.430	0.567	0.874	0.973	0.794	0.568	0.404	0.433	0.468	0.423	0.463	0.518	0.854	0.796	0.504	0.344	0.422	0.437	0.536	0.893	1.981	3.741	15.55	95.38
610.0	34.83	28.26	18.13	11.22	10.50	9.423	11.65	11.99	14.08	17.97	42.63	58.03	13.81	7.074	9.130	91.04	607.4	389.7	9.206	2.593	2.261	2.092	2.178	2.028	1.466	1.378	1.399	1.198	1.026	1.180	1.120	0.883	0.903	0.719	0.838	0.754	0.690	0.761	0.698	0.667	0.637	0.577	0.692	0.548	0.598	0.515	0.476	0.509	0.423	0.348	0.340	0.403	0.372	0.387	0.419	0.535	0.765	0.863	0.663	0.411	0.428	0.398	0.426	0.441	0.441	0.588	0.671	0.620	0.413	0.452	0.429	0.434	0.504	0.803	1.161	3.868	21.86
615.0	38.07	22.86	15.24	11.61	9.036	9.439	10.60	10.77	13.19	14.62	23.09	54.01	25.34	6.450	5.966	24.68	177.1	642.8	66.10	2.719	1.962	1.886	1.846	1.789	1.345	1.260	1.199	1.169	0.973	0.880	0.836	0.744	0.937	0.711	0.646	0.612	0.647	0.653	0.710	0.579	0.563	0.606	0.596	0.467	0.588	0.479	0.490	0.440	0.408	0.362	0.300	0.345	0.360	0.359	0.407	0.450	0.504	0.734	0.738	0.528	0.487	0.363	0.377	0.421	0.379	0.455	0.523	0.647	0.701	0.404	0.440	0.422	0.387	0.454	0.519	1.195	5.205
620.0	32.55	22.56	16.44	13.02	8.530	8.285	9.882	10.09	12.26	13.30	15.66	37.83	36.52	7.213	5.093	9.506	45.83	471.3	313.8	4.677	1.980	1.658	1.671	1.775	1.190	1.138	1.160	1.128	0.931	0.882	1.006	0.722	0.750	0.804	0.539	0.544	0.546	0.637	0.694	0.600	0.546	0.576	0.525	0.521	0.507	0.438	0.386	0.422	0.412	0.379	0.329	0.328	0.340	0.345	0.373	0.372	0.403	0.584	0.709	0.602	0.471	0.374	0.374	0.401	0.360	0.430	0.415	0.545	1.044	0.559	0.357	0.379	0.367	0.393	0.360	0.567	1.498
625.0	34.05	23.69	17.17	10.37	8.603	8.620	9.176	9.646	10.74	11.61	14.86	24.34	42.75	10.10	5.098	5.664	13.70	201.8	564.2	26.30	1.960	1.843	1.665	1.860	1.090	1.029	1.055	0.971	0.962	0.925	0.840	0.726	0.768	0.688	0.619	0.586	0.556	0.598	0.590	0.632	0.507	0.518	0.547	0.438	0.504	0.483	0.359	0.371	0.425	0.293	0.302	0.320	0.299	0.350	0.340	0.402	0.334	0.451	0.719	0.599	0.472	0.372	0.395	0.364	0.373	0.384	0.418	0.397	0.713	0.602	0.499	0.372	0.348	0.381	0.347	0.399	0.628
630.0	30.53	21.20	15.39	11.12	9.016	8.059	8.705	9.420	10.04	10.70	11.86	14.11	35.44	20.50	4.890	4.585	5.787	53.74	441.7	197.4	5.171	1.715	1.502	1.688	1.102	0.975	0.988	0.934	0.850	0.879	0.794	0.678	0.676	0.612	0.558	0.616	0.542	0.605	0.518	0.551	0.538	0.499	0.500	0.502	0.463	0.408	0.376	0.423	0.350	0.293	0.315	0.326	0.292	0.329	0.365	0.344	0.340	0.351	0.503	0.536	0.514	0.443	0.371	0.375	0.354	0.346	0.364	0.377	0.433	0.480	0.538	0.450	0.370	0.358	0.364	0.382	0.419
635.0	24.63	19.80	14.37	9.013	8.485	7.816	7.988	8.232	8.394	9.925	9.484	10.45	19.09	31.47	7.984	4.136	4.181	14.27	137.4	428.1	49.76	1.835	1.594	1.505	1.077	1.015	1.067	0.932	0.694	0.759	0.746	0.676	0.627	0.548	0.511	0.576	0.512	0.582	0.484	0.555	0.511	0.532	0.462	0.422	0.426	0.405	0.431	0.370	0.315	0.307	0.246	0.310	0.327	0.300	0.345	0.361	0.318	0.326	0.429	0.466	0.531	0.451	0.436	0.384	0.310	0.374	0.354	0.340	0.316	0.341	0.520	0.521	0.429	0.334	0.311	0.341	0.370
640.0	23.56	21.77	12.59	10.48	10.44	7.944	7.774	7.873	8.228	9.352	8.526	8.527	11.47	31.12	12.28	4.077	3.339	5.385	35.53	357.1	217.7	2.890	1.497	1.654	1.028	0.951	0.971	0.809	0.735	0.993	0.688	0.680	0.589	0.580	0.481	0.562	0.514	0.540	0.452	0.490	0.511	0.547	0.474	0.386	0.439	0.363	0.381	0.421	0.309	0.260	0.269	0.315	0.362	0.252	0.376	0.352	0.355	0.306	0.363	0.364	0.414	0.451	0.444	0.346	0.318	0.365	0.387	0.340	0.310	0.366	0.368	0.496	0.490	0.363	0.325	0.349	0.338
645.0	27.17	18.96	14.12	8.995	8.816	7.588	7.709	7.096	7.713	8.272	7.934	7.266	8.085	23.10	19.06	3.963	3.146	3.619	10.04	167.7	404.8	14.99	1.523	1.813	1.088	1.015	0.961	0.790	0.774	0.853	0.686	0.528	0.620	0.606	0.404	0.478	0.433	0.566	0.487	0.540	0.461	0.527	0.513	0.390	0.408	0.347	0.375	0.335	0.330	0.307	0.266	0.344	0.297	0.325	0.347	0.323	0.329	0.304	0.322	0.329	0.388	0.469	0.365	0.447	0.324	0.371	0.361	0.357	0.337	0.414	0.435	0.357	0.485	0.398	0.399	0.321	0.377
650.0	29.50	17.89	14.81	8.937	7.801	7.006	7.900	6.701	6.585	8.352	7.483	7.526	6.819	14.40	23.51	5.303	3.095	2.869	4.353	50.73	428.2	60.60	1.736	1.902	0.997	0.929	0.997	0.742	0.734	0.793	0.643	0.540	0.722	0.531	0.463	0.527	0.518	0.478	0.420	0.480	0.392	0.500	0.535	0.433	0.433	0.372	0.360	0.323	0.304	0.331	0.248	0.306	0.413	0.317	0.329	0.322	0.333	0.298	0.355	0.349	0.380	0.463	0.384	0.470	0.270	0.352	0.363	0.368	0.319	0.408	0.356	0.340	0.403	0.469	0.383	0.344	0.384
