Sample:	'1
File name:	s02012东辰化工应急池.FD3
Run date:	'19:01:07, 07/27/2024
Operator:	horiz
Comment:	'

Instrument
Model:	F-2700 FL Spectrophotometer
Serial number:	23B8-004
ROM Version:	4J14000 07

Instrument parameters
Measurement type:	3-D scan
Data mode:	Fluorescence
EX  Start WL:	220.0 nm
EX  End WL:	600.0 nm
EX Sampling interval:	5.0 nm
EM  Start WL:	230.0 nm
EM  End WL:	650.0 nm
EM Sampling interval:	5.0 nm
Scan speed:	12000 nm/min
EX Slit:	5.0 nm
EM Slit:	5.0 nm
PMT Voltage:	700 V
Response:	Auto 
Corrected spectra:	Off
Contour interval:	50.000

Peak integration
Integration method:	Rectangular
Sensitivity:	1
Threshold:	1.000

Peaks
No.	ApexEX/EM(nm)	Height(Data)
1	225.0/310.0	1056
2	225.0/490.0	305.1
3	225.0/640.0	70.46
4	230.0/250.0	265.8
5	230.0/340.0	1430
6	230.0/500.0	293.1
7	235.0/255.0	350.2
8	235.0/510.0	257.1
9	240.0/265.0	384.3
10	240.0/525.0	225.6
11	245.0/270.0	386.9
12	245.0/535.0	187.9
13	250.0/275.0	491.4
14	250.0/545.0	158.8
15	255.0/280.0	597.2
16	255.0/560.0	136.2
17	260.0/575.0	121.1
18	265.0/380.0	748.6
19	265.0/585.0	141.6
20	270.0/300.0	1942
21	270.0/595.0	152.3
22	275.0/305.0	2216
23	275.0/610.0	147.8
24	280.0/625.0	113.4
25	300.0/335.0	554.1
26	305.0/345.0	484.0
27	310.0/350.0	420.8
28	315.0/355.0	407.3
29	320.0/360.0	406.2
30	325.0/370.0	383.3
31	330.0/375.0	376.6
32	335.0/380.0	381.3
33	350.0/400.0	297.8
34	365.0/420.0	227.4
35	395.0/460.0	92.65
36	410.0/480.0	54.49
37	415.0/485.0	47.84
38	430.0/505.0	28.56
39	445.0/525.0	17.39
40	460.0/340.0	4.621
41	480.0/260.0	2.220
42	485.0/265.0	2.558
43	495.0/270.0	2.493
44	505.0/275.0	3.606
45	510.0/280.0	3.933
46	520.0/285.0	4.279
47	530.0/290.0	5.163
48	545.0/300.0	10.03
49	550.0/305.0	11.15
50	560.0/310.0	10.11
51	570.0/315.0	8.132

Wavelength data
No.	EX/EM(nm)	Height(Data)	

Data points
	220.0	225.0	230.0	235.0	240.0	245.0	250.0	255.0	260.0	265.0	270.0	275.0	280.0	285.0	290.0	295.0	300.0	305.0	310.0	315.0	320.0	325.0	330.0	335.0	340.0	345.0	350.0	355.0	360.0	365.0	370.0	375.0	380.0	385.0	390.0	395.0	400.0	405.0	410.0	415.0	420.0	425.0	430.0	435.0	440.0	445.0	450.0	455.0	460.0	465.0	470.0	475.0	480.0	485.0	490.0	495.0	500.0	505.0	510.0	515.0	520.0	525.0	530.0	535.0	540.0	545.0	550.0	555.0	560.0	565.0	570.0	575.0	580.0	585.0	590.0	595.0	600.0
230.0	69.74	374.3	1310	595.8	42.85	10.43	7.727	6.900	5.530	4.676	4.633	4.059	3.524	2.911	2.541	2.078	1.793	1.592	1.599	1.365	1.396	1.216	1.139	1.071	1.046	0.955	0.907	0.919	0.891	0.858	0.868	0.859	0.729	0.698	0.693	0.662	0.697	0.625	0.615	0.605	0.607	0.739	0.831	0.680	0.539	0.571	0.752	2.454	5.217	5.040	2.611	0.887	0.498	0.445	0.486	0.472	0.491	0.521	0.489	0.513	0.458	0.473	0.467	0.517	0.523	0.517	0.538	0.528	0.517	0.539	0.541	0.520	0.504	0.539	0.485	0.568	0.557
235.0	148.3	131.6	650.5	1385	490.0	58.29	7.915	7.224	5.948	4.587	4.536	4.360	4.071	3.204	2.409	2.027	1.746	1.499	1.455	1.585	1.279	1.281	1.245	1.059	1.001	0.933	1.013	0.858	0.923	0.901	0.812	0.957	0.738	0.744	0.722	0.636	0.659	0.646	0.601	0.555	0.632	0.579	0.779	0.904	0.787	0.682	0.553	0.940	1.935	3.353	5.412	6.396	3.890	1.395	0.538	0.444	0.530	0.489	0.471	0.486	0.479	0.487	0.501	0.485	0.525	0.493	0.520	0.515	0.518	0.547	0.519	0.528	0.509	0.496	0.562	0.513	0.530
240.0	190.6	156.5	205.6	949.5	1516	387.5	28.88	8.129	6.267	5.172	4.812	4.100	3.480	2.914	2.530	2.207	1.884	1.680	1.390	1.590	1.290	1.218	1.081	1.031	1.031	0.931	0.924	0.912	0.837	0.944	0.777	0.858	0.752	0.706	0.715	0.630	0.658	0.672	0.589	0.611	0.683	0.539	0.588	0.770	0.923	0.998	0.882	0.632	0.867	1.186	2.570	6.538	9.012	7.249	3.494	1.027	0.524	0.534	0.539	0.498	0.547	0.510	0.473	0.565	0.535	0.588	0.502	0.542	0.510	0.496	0.532	0.541	0.550	0.549	0.553	0.493	0.498
245.0	120.7	242.5	135.7	302.2	1338	1583	288.8	13.19	6.381	5.956	5.184	4.393	3.572	2.772	2.711	2.226	2.101	1.573	1.601	1.646	1.294	1.229	1.116	1.076	1.081	0.931	0.912	0.946	0.948	0.983	0.924	0.848	0.870	0.711	0.720	0.609	0.713	0.663	0.564	0.620	0.615	0.589	0.530	0.657	0.665	0.964	1.074	1.131	0.761	0.659	0.950	2.204	5.137	9.370	10.96	6.940	2.468	0.806	0.516	0.595	0.588	0.538	0.463	0.515	0.529	0.489	0.554	0.520	0.504	0.496	0.552	0.528	0.518	0.559	0.567	0.478	0.538
250.0	65.13	168.1	265.8	189.8	411.6	1248	1769	776.3	58.77	7.178	6.146	4.820	4.323	3.078	2.771	2.390	2.037	1.938	1.580	1.523	1.223	1.249	1.141	1.165	1.101	0.993	0.912	0.930	0.913	0.977	0.886	0.796	0.846	0.761	0.674	0.636	0.701	0.680	0.632	0.638	0.600	0.570	0.609	0.584	0.556	0.648	0.706	1.081	1.234	1.174	0.899	0.941	1.608	3.022	5.727	8.640	11.58	10.93	6.500	2.334	0.732	0.484	0.523	0.497	0.496	0.568	0.523	0.556	0.572	0.526	0.565	0.555	0.537	0.582	0.608	0.516	0.573
255.0	51.95	63.42	171.7	350.2	210.1	322.7	1108	2540	1088	59.71	7.380	5.990	4.664	3.590	2.867	2.655	1.989	1.800	1.869	1.516	1.333	1.168	1.201	1.127	1.079	0.970	0.843	1.005	0.974	0.887	0.865	0.852	0.889	0.801	0.724	0.708	0.695	0.707	0.662	0.601	0.623	0.566	0.657	0.553	0.650	0.564	0.545	0.630	0.793	1.105	1.746	1.809	1.174	1.138	1.701	2.377	4.006	8.722	16.10	18.22	9.984	2.462	0.592	0.525	0.483	0.520	0.566	0.514	0.559	0.512	0.518	0.522	0.563	0.515	0.555	0.603	0.577
260.0	42.49	38.50	70.31	287.5	334.7	140.3	327.8	1773	2906	239.4	26.96	6.140	5.327	3.622	2.940	2.384	2.144	1.891	1.992	1.518	1.519	1.370	1.201	1.137	1.104	1.163	0.963	0.960	1.016	0.873	0.916	0.846	0.791	0.719	0.809	0.703	0.653	0.697	0.606	0.597	0.634	0.632	0.570	0.583	0.655	0.547	0.455	0.566	0.527	0.637	1.024	2.059	2.220	1.402	0.956	0.999	1.400	2.628	6.514	15.22	21.88	18.34	7.509	1.381	0.569	0.572	0.593	0.577	0.497	0.502	0.487	0.534	0.633	0.543	0.525	0.552	0.556
265.0	43.69	37.36	36.56	123.6	384.3	267.2	112.2	559.8	2573	2843	188.6	11.97	5.861	4.405	3.500	2.546	2.267	2.046	1.961	1.647	1.428	1.389	1.175	1.126	1.141	1.070	0.960	1.015	1.040	0.924	0.855	0.850	0.842	0.775	0.800	0.692	0.642	0.625	0.641	0.682	0.582	0.592	0.541	0.591	0.616	0.565	0.486	0.529	0.450	0.534	0.584	1.084	1.984	2.558	1.964	0.903	0.836	1.090	1.978	4.606	11.05	21.45	26.91	16.09	4.121	0.793	0.637	0.561	0.533	0.467	0.509	0.549	0.542	0.518	0.550	0.492	0.606
270.0	52.24	42.27	31.76	45.72	173.6	386.9	270.9	179.1	776.1	2390	2699	693.8	41.57	5.929	4.148	3.125	2.461	2.173	1.948	1.726	1.573	1.429	1.306	1.215	1.065	1.155	1.115	1.018	1.075	0.991	0.907	0.817	0.841	0.790	0.752	0.672	0.626	0.638	0.646	0.627	0.611	0.628	0.632	0.581	0.621	0.588	0.500	0.526	0.504	0.443	0.450	0.657	0.933	1.471	2.223	2.493	2.240	1.370	1.005	1.585	3.050	6.344	12.46	19.04	23.29	19.99	11.64	3.356	0.757	0.553	0.541	0.582	0.552	0.576	0.553	0.532	0.612
275.0	94.09	76.66	45.85	35.17	60.20	168.9	491.4	297.8	232.0	620.8	1889	4487	917.9	32.78	5.505	3.727	2.852	2.410	2.174	1.628	1.552	1.394	1.365	1.479	1.038	1.198	1.042	1.056	1.015	1.003	0.947	0.792	0.923	0.830	0.785	0.663	0.662	0.812	0.710	0.667	0.630	0.678	0.719	0.709	0.626	0.679	0.552	0.613	0.559	0.481	0.438	0.535	0.591	0.760	0.922	1.364	2.685	3.606	2.743	1.434	1.207	2.072	3.439	5.030	7.365	15.09	30.00	29.15	16.08	3.043	0.721	0.567	0.658	0.602	0.606	0.535	0.618
280.0	163.3	127.2	84.78	48.75	42.02	71.73	304.8	597.2	239.5	233.3	607.1	3155	4371	136.0	15.45	4.745	3.070	2.636	2.208	2.054	1.618	1.508	1.347	1.313	1.168	1.289	1.077	1.174	1.050	1.000	1.072	0.875	0.945	0.842	0.805	0.847	0.815	0.864	0.741	0.824	0.732	0.768	0.850	0.875	0.780	0.737	0.646	0.727	0.703	0.554	0.530	0.595	0.607	0.643	0.753	0.821	1.374	2.589	3.933	3.653	1.749	1.179	1.632	1.935	2.555	4.573	10.85	24.51	38.27	26.63	10.61	1.571	0.595	0.607	0.662	0.555	0.549
285.0	255.6	244.5	176.6	90.35	57.77	56.37	139.0	535.4	599.6	243.1	322.7	1096	4111	3514	102.1	7.899	4.259	3.103	2.458	2.139	1.687	1.698	1.477	1.424	1.259	1.303	1.047	1.112	1.098	0.962	1.034	0.923	0.870	0.882	0.806	1.017	0.975	1.006	0.943	0.942	0.866	0.882	1.013	1.006	1.032	1.087	0.923	1.053	0.890	0.681	0.578	0.660	0.660	0.678	0.747	0.747	0.898	1.239	2.231	4.253	4.279	2.815	1.648	1.679	1.823	2.332	3.781	7.592	17.12	31.50	33.12	21.88	5.965	0.891	0.710	0.630	0.637
290.0	452.7	496.3	388.8	204.2	107.1	90.16	135.2	314.1	735.1	858.3	676.3	814.3	1553	3148	3274	389.8	21.51	4.345	3.055	2.442	2.028	1.759	1.545	1.536	1.294	1.262	1.196	1.145	1.098	1.079	1.120	0.930	0.947	0.975	1.033	1.202	1.235	1.282	1.064	1.074	1.015	1.100	1.234	1.272	1.354	1.623	1.484	1.610	1.506	1.209	0.907	0.898	0.782	0.735	0.804	0.802	0.971	1.093	1.434	2.313	3.369	4.666	5.163	4.558	3.475	3.361	3.835	4.601	6.613	10.30	15.57	24.36	26.36	26.87	15.10	5.495	1.105
295.0	716.5	769.4	626.8	338.8	166.4	133.2	187.9	315.9	595.1	1201	1504	1185	1123	1121	1977	3952	532.9	16.69	3.918	2.927	2.324	2.059	1.744	1.632	1.447	1.416	1.231	1.189	1.103	1.155	1.071	0.953	1.099	1.139	1.205	1.412	1.514	1.416	1.312	1.224	1.293	1.263	1.413	1.719	1.734	2.060	2.093	2.397	2.166	1.694	1.287	1.306	1.070	0.950	0.993	1.047	1.289	1.165	1.556	2.218	2.699	3.518	4.785	7.074	8.237	6.580	5.669	5.433	5.711	6.217	6.663	7.462	7.932	13.95	30.68	33.48	23.07
300.0	837.1	956.2	761.0	420.4	215.6	172.1	226.6	373.4	630.6	1121	1942	1597	1226	749.8	646.2	2678	3535	79.21	8.379	3.616	2.620	2.196	1.950	1.595	1.657	1.490	1.269	1.265	1.350	1.215	0.993	1.031	1.092	1.172	1.393	1.686	1.811	1.669	1.470	1.333	1.306	1.457	1.556	1.839	2.049	2.486	2.492	2.843	2.638	1.984	1.466	1.457	1.260	1.071	1.149	1.123	1.424	1.479	1.915	2.186	2.591	3.612	4.387	5.880	8.410	10.03	9.285	7.149	6.514	5.851	5.294	4.134	3.435	4.328	9.577	20.23	38.37
305.0	892.9	1055	863.8	471.9	259.0	219.0	274.5	439.4	699.5	1131	1807	2216	1428	751.1	344.9	799.5	3213	2719	62.45	5.361	3.307	2.428	2.069	1.746	1.848	1.584	1.382	1.341	1.169	1.108	1.077	1.022	0.970	1.096	1.423	1.710	1.826	1.820	1.502	1.408	1.420	1.549	1.634	1.985	2.319	2.567	2.755	3.083	2.934	2.093	1.572	1.510	1.366	1.139	1.264	1.223	1.683	1.725	2.121	2.496	2.931	3.857	4.595	5.692	7.283	9.024	11.15	10.95	8.312	6.542	5.357	3.898	2.699	2.430	3.133	5.713	13.25
310.0	878.9	1056	876.6	507.7	282.7	244.7	312.7	473.2	735.6	1127	1599	2024	1871	914.1	317.2	285.5	930.8	2318	2483	268.3	14.57	3.290	2.685	2.349	1.862	1.758	1.447	1.347	1.233	1.230	1.124	1.049	1.036	1.115	1.482	1.734	1.817	1.697	1.501	1.447	1.448	1.586	1.714	1.842	2.299	2.630	2.738	3.144	2.924	2.312	1.729	1.619	1.450	1.395	1.363	1.409	1.790	1.907	2.128	2.844	3.098	3.922	4.644	5.623	6.722	7.478	8.925	9.616	10.11	9.274	6.830	4.338	2.751	2.107	1.853	2.368	4.034
315.0	827.3	1006	867.5	512.1	304.7	273.0	329.4	473.4	710.9	1046	1441	1640	1615	1241	423.0	200.2	302.5	593.3	1472	2923	391.8	11.84	3.359	2.723	2.043	1.843	1.482	1.320	1.355	1.253	1.276	1.063	1.026	1.059	1.373	1.660	1.722	1.617	1.476	1.377	1.427	1.343	1.605	1.852	2.196	2.572	2.772	3.148	2.885	2.349	1.840	1.635	1.461	1.445	1.491	1.444	1.806	1.940	2.257	2.853	3.221	3.905	4.568	5.356	6.275	6.720	7.776	7.580	8.009	7.971	8.132	6.917	3.956	2.486	1.814	1.790	1.965
320.0	805.6	1055	925.4	564.4	326.1	290.5	338.1	471.8	686.1	984.0	1313	1459	1347	1171	695.7	238.2	185.0	212.7	412.5	1973	2578	59.97	6.455	3.143	2.294	1.941	1.618	1.409	1.475	1.268	1.257	1.154	1.025	1.072	1.283	1.475	1.670	1.501	1.302	1.361	1.417	1.337	1.497	1.820	2.302	2.574	2.846	3.370	3.100	2.580	2.037	1.738	1.644	1.487	1.596	1.545	1.820	2.014	2.459	2.691	2.969	3.633	4.324	5.085	6.034	6.282	6.792	6.595	6.769	6.410	6.572	6.645	5.993	4.193	2.487	1.810	1.925
325.0	840.5	1200	1156	713.6	378.6	305.6	348.9	467.8	659.3	927.4	1222	1357	1228	932.4	832.2	418.9	196.9	150.8	157.9	577.7	2330	2031	48.89	4.366	2.822	2.055	1.868	1.522	1.579	1.398	1.267	1.268	1.075	1.205	1.314	1.536	1.487	1.479	1.271	1.210	1.280	1.378	1.697	1.913	2.198	2.804	3.234	3.768	3.712	3.106	2.457	2.069	1.774	1.768	1.700	1.548	1.960	2.123	2.417	2.579	3.148	3.271	4.226	4.857	5.608	6.215	6.138	6.311	6.384	5.810	5.518	4.895	5.443	5.654	4.527	2.916	2.062
330.0	835.2	1273	1326	869.8	477.8	347.3	359.2	456.7	619.0	836.5	1083	1200	1099	807.8	642.4	610.2	368.4	178.6	128.5	193.4	676.7	1721	1892	217.5	13.14	2.704	2.259	1.713	1.598	1.447	1.426	1.223	1.139	1.125	1.234	1.298	1.461	1.326	1.259	1.156	1.286	1.408	1.568	1.838	2.310	2.885	3.353	4.130	4.234	3.677	3.074	2.630	2.214	1.870	1.846	1.804	2.031	2.095	2.389	2.604	2.902	3.336	3.784	4.483	4.946	5.544	5.513	5.726	5.836	5.511	5.005	4.462	3.927	4.106	4.376	4.433	3.994
335.0	818.4	1273	1384	981.1	563.5	396.4	376.7	453.4	579.4	742.8	953.1	1065	982.3	758.2	546.2	486.7	554.1	309.5	152.1	130.6	215.7	440.6	1172	2333	332.5	11.97	2.827	2.284	1.647	1.558	1.411	1.258	1.305	1.236	1.178	1.197	1.433	1.261	1.141	1.158	1.201	1.356	1.530	1.879	2.143	2.749	3.301	4.413	4.423	4.010	3.352	3.169	2.786	2.161	1.935	1.963	2.142	2.280	2.331	2.514	2.879	3.107	3.636	3.861	4.396	5.011	4.967	5.043	5.094	5.207	4.821	4.165	3.796	3.456	3.400	3.340	4.148
340.0	810.9	1273	1430	1040	635.3	452.8	420.3	472.0	564.1	700.7	873.7	973.3	916.4	729.0	538.3	430.1	478.2	477.2	217.8	136.2	130.0	154.4	334.7	1609	2112	252.6	5.360	2.690	2.002	1.586	1.541	1.314	1.229	1.217	1.118	1.231	1.220	1.232	1.096	1.071	1.141	1.375	1.466	1.847	2.012	2.941	3.363	4.200	4.621	4.152	3.397	3.491	2.822	2.376	2.209	2.190	2.283	2.308	2.361	2.652	3.159	3.176	3.547	3.571	4.178	4.425	4.818	4.833	4.945	4.884	4.436	3.999	3.959	3.472	3.261	3.021	3.225
345.0	725.7	1167	1388	1055	701.0	506.9	459.2	483.5	563.9	674.3	816.7	888.2	852.4	700.3	546.4	430.1	386.6	484.0	360.6	169.5	129.6	110.4	130.7	477.5	1892	1726	43.84	3.706	2.332	1.783	1.649	1.306	1.216	1.257	1.260	1.155	1.125	1.260	1.056	1.193	1.175	1.369	1.398	1.759	1.894	2.598	3.174	4.022	4.477	3.996	3.503	3.380	2.895	2.575	2.498	2.470	2.475	2.710	2.633	2.880	2.925	3.335	3.472	3.667	3.880	4.163	4.394	4.706	4.669	4.591	4.337	3.978	3.598	3.582	3.167	3.132	3.049
350.0	666.7	1077	1265	1045	756.5	603.4	538.3	537.4	578.7	664.1	754.7	806.1	785.9	668.0	546.8	450.2	377.7	374.8	420.8	314.4	175.3	131.2	111.2	166.1	555.7	1385	1512	196.4	12.71	2.465	1.786	1.605	1.321	1.121	1.241	1.130	1.160	1.146	1.114	1.086	1.121	1.337	1.311	1.640	1.887	2.405	2.859	3.647	4.023	3.717	3.282	3.484	3.283	2.923	2.832	2.634	2.804	2.730	2.897	2.940	2.923	3.271	3.440	3.609	3.699	3.923	4.147	4.177	4.263	4.181	4.035	3.868	3.495	3.674	3.283	3.113	3.020
355.0	628.0	930.5	1135	1014	821.5	693.3	626.4	615.8	641.6	684.1	736.8	762.6	738.7	652.9	560.0	475.7	404.6	351.9	347.6	407.3	310.5	176.9	135.8	123.0	184.6	356.5	881.5	1835	315.8	13.71	2.426	1.824	1.462	1.224	1.132	1.118	1.033	1.178	1.137	1.098	1.204	1.237	1.332	1.528	1.937	2.182	2.669	3.386	3.772	3.680	3.250	3.600	3.432	3.307	3.091	2.908	3.202	3.325	3.212	3.113	3.404	3.335	3.755	3.647	3.763	4.098	3.984	3.907	4.085	4.015	4.160	3.835	3.776	3.668	3.642	3.153	3.315
360.0	589.4	883.1	1042	987.3	867.8	759.6	693.9	674.9	674.0	695.4	734.7	747.2	714.2	651.4	567.5	497.8	424.3	369.6	335.6	362.4	406.2	255.7	166.5	133.1	117.5	132.6	251.8	1193	1771	259.8	6.443	2.161	1.726	1.410	1.141	1.162	1.212	1.201	1.081	1.218	1.132	1.193	1.479	1.516	1.733	2.135	2.458	3.228	3.507	3.307	3.454	3.721	3.634	3.583	3.289	3.092	3.488	3.560	3.511	3.355	3.368	3.500	3.697	3.714	3.741	3.881	3.886	3.566	3.811	3.956	4.065	3.568	3.762	3.536	3.578	3.389	3.641
365.0	568.3	847.0	1007	975.0	892.2	805.1	732.5	699.2	701.8	708.2	725.6	735.5	703.9	648.7	570.2	506.3	444.3	396.8	351.3	333.8	390.1	366.1	213.5	156.7	121.1	97.63	100.9	346.5	1456	1592	44.10	3.721	2.149	1.577	1.392	1.173	1.100	1.047	1.074	1.192	0.990	1.216	1.294	1.483	1.752	2.052	2.332	2.917	3.360	3.160	3.128	3.475	3.672	3.824	3.487	3.430	3.769	3.726	3.554	3.553	3.729	3.689	3.887	3.841	3.783	3.846	3.796	3.774	4.033	3.743	3.755	3.721	3.875	3.910	3.715	3.554	3.560
370.0	553.0	779.5	944.1	948.1	903.0	842.1	785.5	738.8	728.0	739.8	735.9	726.6	690.2	642.2	575.4	520.7	464.1	422.8	379.5	349.9	347.5	383.3	333.9	212.6	150.7	113.5	87.93	119.7	415.4	1148	1374	185.7	12.86	2.085	1.668	1.361	1.243	1.221	1.189	1.177	1.076	1.203	1.252	1.418	1.711	2.006	2.204	2.811	3.006	3.083	3.065	3.585	3.777	3.642	3.828	3.845	3.906	3.860	3.620	3.551	3.685	3.895	3.717	3.834	3.742	3.859	3.804	3.822	3.877	3.805	3.690	3.656	3.727	3.748	3.645	3.561	3.593
375.0	529.5	730.3	903.9	935.4	920.9	863.5	818.8	768.7	744.8	744.7	740.5	720.0	679.4	632.1	579.7	527.0	485.0	451.4	411.9	379.5	355.1	348.7	376.6	327.8	200.6	147.0	109.8	88.17	134.8	289.0	740.7	1559	291.0	13.99	2.300	1.501	1.534	1.203	1.242	1.126	1.140	1.169	1.271	1.393	1.587	1.924	2.013	2.520	2.817	2.886	2.965	3.413	3.709	3.854	3.967	3.965	4.011	3.988	3.621	3.821	3.845	3.998	3.838	3.991	3.812	3.793	3.657	3.588	3.651	3.688	3.894	3.564	3.706	3.682	3.897	3.453	3.929
380.0	498.8	693.3	861.6	907.2	915.6	880.9	819.8	783.4	740.0	748.6	742.1	719.6	677.4	629.3	567.5	527.4	490.7	460.3	428.4	400.7	371.2	349.4	350.0	381.3	274.5	176.8	132.2	96.69	83.84	101.5	205.3	956.1	1443	230.9	6.614	1.886	1.634	1.275	1.329	1.171	1.225	1.123	1.307	1.397	1.490	1.798	2.015	2.426	2.720	2.882	2.872	3.370	3.902	4.037	4.174	3.863	3.970	3.992	3.805	3.841	3.909	3.875	3.985	4.197	3.850	3.748	3.894	3.660	3.533	3.659	3.745	3.705	3.491	3.646	3.547	3.516	3.729
385.0	494.1	676.3	831.8	875.9	903.3	880.7	825.8	772.6	746.5	743.3	736.9	713.3	671.4	617.6	565.9	524.0	495.3	464.6	438.8	411.1	383.4	356.2	335.7	357.2	348.1	222.6	153.8	113.3	85.83	67.08	79.01	268.7	1083	1248	37.26	3.606	1.815	1.500	1.322	1.140	1.124	1.204	1.381	1.416	1.549	1.851	1.927	2.579	2.566	2.559	2.918	3.383	3.767	3.903	3.830	3.859	3.970	4.119	3.780	4.114	3.936	3.841	4.008	3.943	3.822	3.691	3.859	3.934	3.705	3.554	3.698	3.660	3.505	3.648	3.501	3.701	3.709
390.0	479.2	661.7	808.9	854.4	889.8	873.6	818.4	767.3	750.3	733.7	721.7	689.0	651.6	600.3	555.7	512.3	491.8	465.6	443.2	418.4	395.1	368.5	341.6	326.9	339.7	300.9	199.5	139.0	104.5	78.74	63.25	90.75	301.1	825.7	987.2	353.0	12.40	2.019	1.466	1.326	1.179	1.308	1.409	1.442	1.632	1.792	1.936	2.331	2.573	2.587	2.753	3.405	3.635	3.832	3.728	3.561	4.013	3.939	3.784	3.908	3.758	3.781	3.953	3.831	3.804	3.731	3.619	3.672	3.645	3.702	3.544	3.500	3.557	3.569	3.549	3.552	3.760
395.0	470.0	631.6	774.0	839.1	855.4	854.2	816.0	766.0	742.9	716.9	699.8	669.5	636.8	584.4	535.8	503.7	481.2	462.2	439.0	419.4	402.9	379.2	354.6	325.7	305.3	310.2	276.3	175.8	128.7	97.65	73.52	61.90	96.13	206.9	494.3	1127	250.6	14.43	2.066	1.523	1.355	1.354	1.454	1.460	1.431	1.695	2.059	2.416	2.473	2.510	2.727	3.279	3.551	3.702	3.716	3.688	4.085	3.788	3.743	3.826	3.662	3.682	4.008	3.589	3.629	3.803	3.550	3.612	3.383	3.586	3.454	3.520	3.528	3.578	3.560	3.542	3.697
400.0	497.5	606.0	764.8	805.6	840.2	828.0	798.9	758.9	726.6	707.5	681.5	654.7	617.4	568.9	521.7	491.6	467.5	452.4	432.0	420.5	400.8	382.4	354.8	331.4	298.8	283.4	297.8	226.7	148.7	114.6	87.15	66.95	58.69	70.78	136.5	633.8	1048	206.1	7.139	2.008	1.507	1.294	1.493	1.417	1.525	1.942	2.065	2.456	2.459	2.460	2.640	3.403	3.456	3.364	3.630	3.587	3.874	3.847	3.822	3.754	3.639	3.758	3.770	3.683	3.567	3.673	3.407	3.501	3.361	3.358	3.533	3.479	3.416	3.501	3.389	3.283	3.521
405.0	483.5	632.0	731.4	783.2	810.1	809.4	787.0	734.7	707.5	688.8	669.5	633.7	602.7	559.1	505.6	474.2	459.7	440.2	427.2	415.4	394.0	376.6	353.7	331.6	297.6	271.5	273.3	268.9	182.8	129.5	99.72	75.68	55.84	46.21	52.09	176.6	742.8	913.6	33.91	3.600	1.817	1.534	1.414	1.525	1.547	1.873	1.847	2.419	2.469	2.422	2.477	3.182	3.241	3.417	3.503	3.474	3.701	3.542	3.749	3.601	3.611	3.776	3.825	3.631	3.488	3.443	3.377	3.317	3.409	3.300	3.289	3.201	3.296	3.480	3.412	3.230	3.604
410.0	474.4	586.5	701.5	751.3	774.7	779.2	766.2	724.1	692.5	671.2	647.3	613.0	578.0	530.0	485.7	454.1	439.2	421.8	407.4	394.2	380.8	363.9	347.0	324.7	297.8	271.4	250.0	254.9	236.6	166.6	117.8	89.89	65.98	49.88	39.33	59.31	202.6	564.0	720.2	281.5	11.71	1.912	1.599	1.579	1.643	1.869	1.788	2.321	2.216	2.419	2.309	2.970	3.162	3.349	3.379	3.372	3.653	3.531	3.552	3.636	3.604	3.543	3.774	3.508	3.542	3.279	3.209	3.394	3.304	3.232	3.215	3.161	3.163	3.333	3.300	3.224	3.301
415.0	441.9	559.0	663.3	715.2	733.8	736.5	734.1	712.3	670.5	651.7	621.0	593.2	546.6	496.0	460.3	429.1	409.8	399.3	387.1	374.1	360.4	349.0	334.4	315.7	296.4	268.8	243.3	223.9	233.2	217.3	143.6	102.7	78.00	57.97	43.40	37.99	62.85	139.3	328.4	792.5	227.3	13.23	1.917	1.653	1.681	1.801	1.905	2.244	2.172	2.147	2.214	2.800	3.351	3.231	3.366	3.306	3.491	3.516	3.645	3.553	3.707	3.537	3.532	3.395	3.295	3.194	3.287	3.226	3.056	2.947	2.992	3.002	3.383	3.194	3.032	2.956	3.171
420.0	427.7	543.3	636.3	685.5	713.1	709.5	700.5	686.4	654.4	633.5	596.6	572.3	522.2	476.9	433.7	411.5	390.0	379.5	368.6	355.8	343.9	333.3	321.4	307.8	288.7	265.0	241.6	218.3	213.0	227.4	179.1	115.4	85.49	65.91	49.08	36.88	34.29	45.23	88.22	425.9	750.8	184.5	6.925	1.874	1.698	1.778	1.859	2.143	2.225	2.126	2.126	2.833	3.039	2.941	3.127	3.165	3.369	3.332	3.479	3.382	3.378	3.401	3.354	3.141	3.252	3.101	3.279	3.106	3.023	2.817	2.882	3.205	2.966	2.910	2.983	2.938	3.123
425.0	433.4	531.3	612.5	661.2	672.2	678.9	673.0	659.7	644.9	621.5	582.6	549.0	505.0	458.3	419.7	391.5	376.1	361.8	346.4	341.4	332.0	320.1	308.2	298.7	281.1	259.2	240.5	217.4	202.3	205.0	202.9	137.0	92.79	71.82	54.30	40.74	31.49	27.36	32.05	114.5	490.5	685.4	32.51	3.400	1.860	1.812	1.890	2.051	2.131	2.075	2.070	2.656	2.838	3.047	2.952	3.113	3.362	3.429	3.515	3.300	3.437	3.445	3.114	3.230	3.194	3.226	3.234	3.088	2.923	2.856	2.907	2.831	2.735	2.916	2.843	2.788	2.964
430.0	474.9	506.0	580.3	621.5	637.4	647.9	652.3	640.2	630.5	597.7	570.9	528.1	480.5	439.1	397.5	372.4	349.9	338.6	328.4	320.4	312.2	301.2	294.5	284.9	271.0	251.9	235.5	217.8	200.6	187.6	187.9	170.5	115.0	79.67	61.53	46.91	35.77	27.05	22.50	36.76	131.5	400.9	533.6	131.7	11.32	2.126	1.958	2.020	2.029	1.962	2.029	2.500	2.732	2.915	2.820	2.891	3.103	3.328	3.256	3.140	3.341	3.245	3.235	3.047	3.154	3.153	2.992	3.011	2.782	2.754	2.624	2.628	2.849	2.669	2.760	2.808	2.842
435.0	616.2	476.9	544.6	593.8	598.4	610.5	633.4	625.9	611.9	589.3	560.6	513.5	460.7	417.2	376.6	346.5	326.8	319.2	306.9	300.4	293.9	284.3	277.0	269.0	258.6	243.2	231.6	213.5	199.1	184.0	169.9	165.4	148.0	96.89	70.04	53.79	41.61	31.81	23.92	22.72	39.87	98.25	238.4	615.1	212.1	13.68	2.086	2.002	2.071	1.873	1.935	2.482	2.520	2.690	2.565	2.851	3.065	3.245	3.080	3.118	3.173	3.162	3.122	3.126	3.004	2.999	3.000	2.883	2.718	2.688	2.706	2.754	2.533	2.563	2.705	2.639	2.726
440.0	767.3	540.9	527.4	552.3	574.8	593.9	605.3	603.6	605.4	571.6	545.8	501.7	444.8	399.3	362.4	331.5	313.6	299.7	292.3	284.8	279.4	270.2	265.3	258.1	249.5	235.3	225.9	212.4	198.3	184.3	164.4	150.2	152.8	118.0	77.36	57.37	45.90	35.41	27.21	21.32	20.88	31.04	63.62	334.7	648.7	175.3	6.809	2.277	2.212	1.965	1.967	2.459	2.494	2.610	2.651	2.675	3.057	3.132	3.222	3.069	3.317	3.042	3.037	3.057	2.975	2.941	2.584	2.921	2.851	2.702	2.612	2.707	2.396	2.370	2.786	2.577	2.722
445.0	774.9	691.0	511.9	538.3	559.6	573.4	600.5	583.7	585.0	552.5	527.3	476.2	432.9	385.5	351.2	315.8	298.2	287.7	279.4	271.0	262.4	256.0	252.1	244.9	240.2	226.7	217.6	205.9	195.0	182.7	163.7	143.0	139.3	132.9	88.96	62.85	48.57	39.15	29.91	23.62	18.68	17.60	22.65	90.46	420.7	608.8	27.72	4.028	2.310	2.032	1.909	2.339	2.512	2.563	2.720	2.659	2.854	3.008	3.023	3.021	3.020	2.882	3.027	3.050	2.742	2.754	2.719	2.625	2.565	2.545	2.441	2.412	2.486	2.264	2.476	2.370	2.555
450.0	547.5	963.1	581.3	495.4	517.0	535.2	556.4	555.7	554.3	528.8	496.2	451.4	408.2	360.6	325.8	296.1	276.3	266.8	256.1	246.4	241.3	235.6	232.3	228.5	221.9	215.0	203.6	196.9	186.6	175.2	159.3	140.0	123.6	120.8	108.9	75.90	53.76	41.94	33.69	26.25	20.70	16.97	15.09	27.97	111.0	342.7	477.2	206.4	10.25	2.194	1.911	2.194	2.330	2.388	2.518	2.599	2.720	2.839	2.761	2.902	2.916	2.853	2.904	2.744	2.732	2.708	2.667	2.534	2.562	2.425	2.427	2.432	2.327	2.256	2.311	2.295	2.361
455.0	339.9	870.8	893.6	467.1	473.4	493.3	514.5	524.1	517.0	494.2	465.8	420.2	379.8	339.5	296.9	267.8	250.3	242.8	231.9	224.5	219.3	213.6	211.0	207.6	205.5	195.9	189.8	184.3	176.1	164.0	152.2	133.0	116.2	102.9	101.3	92.60	62.35	45.82	37.28	29.21	23.68	19.44	15.47	15.55	31.91	82.91	190.9	511.0	180.8	11.75	2.036	2.229	2.191	2.248	2.296	2.363	2.652	2.637	2.685	2.790	2.640	2.820	2.939	2.731	2.681	2.434	2.337	2.273	2.420	2.386	2.227	2.348	2.233	1.916	2.115	2.139	2.212
460.0	284.8	610.7	1164	540.4	442.3	466.2	479.4	490.6	487.3	464.5	435.7	399.6	356.8	317.3	277.6	250.5	234.1	221.3	213.9	206.5	202.8	195.7	195.4	191.7	186.7	181.9	176.7	171.6	167.0	157.3	146.9	128.0	112.5	96.54	88.17	92.65	73.14	50.29	38.91	31.88	26.23	20.70	16.75	13.61	15.21	25.01	50.00	247.6	504.6	140.4	7.136	2.275	2.141	2.286	2.213	2.291	2.600	2.529	2.448	2.477	2.527	2.664	2.636	2.387	2.411	2.361	2.540	2.230	2.171	2.319	2.134	2.132	2.073	1.925	1.906	2.164	1.997
465.0	272.0	405.7	1146	765.8	418.5	434.9	440.0	458.0	459.7	440.1	410.5	382.4	330.7	296.0	262.7	233.2	217.1	203.7	199.0	188.6	185.9	181.2	179.2	176.8	172.0	168.4	164.7	161.0	156.2	148.9	139.7	123.3	106.7	92.24	81.52	81.13	79.50	56.20	39.90	32.97	26.99	22.03	17.62	14.65	11.95	12.74	16.74	64.84	312.9	452.6	107.2	4.177	2.403	2.167	2.101	2.199	2.395	2.442	2.415	2.392	2.422	2.480	2.584	2.455	2.290	2.200	2.259	2.069	2.212	1.961	2.014	1.932	1.949	2.032	1.987	1.931	1.971
470.0	275.1	318.6	726.2	1130	508.7	391.6	396.5	417.9	421.3	403.9	377.2	343.6	302.1	268.2	235.4	211.4	194.4	183.2	174.2	168.4	165.7	161.1	158.5	158.3	153.6	149.9	147.6	145.2	141.5	135.7	126.8	114.8	100.0	86.99	76.33	68.82	69.23	64.15	46.67	34.34	27.59	23.12	18.81	15.84	12.63	10.93	10.19	19.73	81.11	240.2	345.5	107.8	10.18	2.283	2.114	2.158	2.254	2.208	2.392	2.317	2.313	2.342	2.366	2.333	2.161	2.092	2.056	1.946	2.042	1.980	1.861	1.796	1.860	1.930	1.876	1.842	1.869
475.0	280.6	280.4	391.5	982.8	878.1	368.5	362.2	375.5	374.3	362.6	345.9	307.1	274.5	242.1	212.0	187.1	170.8	162.6	155.9	149.8	144.7	141.4	139.4	138.3	135.4	131.7	131.2	129.2	128.4	122.4	114.2	104.6	92.55	81.30	70.55	62.65	57.50	58.92	53.97	38.54	28.41	24.15	19.75	16.40	13.48	11.29	9.242	10.08	22.88	57.71	122.8	317.4	170.0	12.57	2.186	2.072	2.102	1.987	2.283	2.051	2.120	2.268	2.131	2.111	2.000	2.151	2.058	1.884	1.802	1.790	1.784	1.736	1.725	1.575	1.766	1.796	1.800
480.0	276.9	286.5	297.8	640.0	1157	443.1	333.0	353.0	349.2	338.2	321.5	294.0	255.6	225.2	196.0	172.9	158.7	149.5	143.1	136.1	133.2	130.0	126.7	127.5	124.2	123.4	121.3	119.8	119.1	113.6	105.4	97.60	86.52	76.61	66.78	58.84	52.01	50.50	54.49	44.21	29.91	24.11	20.24	16.96	13.98	11.89	9.240	8.140	9.934	17.01	31.73	143.7	358.6	141.2	6.389	1.958	2.148	2.042	2.024	2.059	1.935	1.942	2.004	2.115	1.847	1.950	1.853	1.648	1.619	1.815	1.542	1.718	1.597	1.476	1.609	1.761	1.616
485.0	243.1	297.9	274.2	394.4	1154	683.7	314.6	327.6	322.8	315.0	296.3	275.5	239.4	210.8	182.9	161.1	148.4	138.9	131.1	126.7	121.1	119.2	115.8	118.3	114.9	113.7	112.6	110.8	111.1	107.5	99.22	92.66	82.29	71.86	63.02	55.58	49.39	45.07	47.77	47.84	34.01	24.48	21.29	17.21	14.36	12.37	10.12	8.255	7.534	8.248	10.90	38.04	207.3	347.0	27.07	3.299	2.078	2.031	1.817	1.955	1.907	1.954	2.029	1.955	1.764	1.952	1.937	1.705	1.632	1.777	1.613	1.470	1.534	1.628	1.464	1.672	1.474
490.0	198.7	305.1	266.6	275.0	694.0	1056	386.8	302.1	301.7	288.5	274.8	253.9	219.0	193.1	168.5	149.0	134.5	125.7	119.5	114.3	109.3	108.3	105.7	105.5	103.7	102.7	101.2	100.6	99.39	97.42	92.67	85.73	76.06	68.27	60.00	52.87	47.27	42.26	40.16	41.91	38.99	28.57	21.22	17.86	14.89	12.74	10.66	9.332	7.290	6.657	6.513	12.01	53.42	171.2	269.8	110.9	10.75	2.093	1.775	1.898	1.925	1.931	1.967	1.830	1.785	1.695	1.693	1.640	1.682	1.574	1.661	1.550	1.407	1.472	1.415	1.561	1.410
495.0	159.2	264.4	283.2	236.9	347.0	967.2	760.2	282.3	272.4	263.8	249.2	229.7	203.2	176.2	151.1	134.9	119.8	113.4	106.3	102.7	98.10	95.81	93.88	92.85	92.23	91.26	88.99	89.39	89.14	86.47	82.27	77.12	70.16	62.83	55.69	49.33	44.27	39.43	35.95	34.63	35.97	34.17	24.45	17.64	15.21	13.02	11.30	9.719	8.155	6.811	5.589	6.640	15.26	41.25	102.4	299.7	184.5	12.99	1.844	1.856	1.976	1.825	1.811	1.715	1.579	1.470	1.537	1.569	1.411	1.527	1.542	1.356	1.407	1.458	1.302	1.499	1.330
500.0	144.2	207.3	293.1	226.5	241.1	617.4	1072	337.2	251.4	243.5	234.5	210.1	184.6	162.2	136.9	122.3	108.8	102.8	96.66	92.99	89.28	87.28	86.07	85.15	82.91	82.47	79.69	81.35	81.03	80.85	75.76	69.82	64.27	57.42	51.62	46.52	41.36	37.04	33.89	31.09	30.55	33.25	28.10	19.23	15.10	12.95	11.44	9.781	8.496	7.272	5.461	5.334	6.709	12.19	26.26	129.4	339.3	147.3	6.904	1.875	1.790	1.685	1.806	1.703	1.444	1.459	1.505	1.388	1.386	1.317	1.439	1.275	1.363	1.294	1.327	1.411	1.342
505.0	136.7	174.6	279.0	243.8	206.4	339.0	1099	562.8	232.4	223.9	214.8	190.9	170.3	147.3	126.6	110.4	99.42	93.67	89.46	84.12	81.51	80.28	76.59	76.65	76.04	75.09	73.63	74.41	74.06	73.73	69.67	65.10	58.56	53.32	48.57	43.46	39.71	35.77	32.13	28.79	27.13	28.53	28.56	21.42	15.62	13.21	11.23	9.740	8.401	7.748	5.924	5.315	4.997	5.922	8.788	33.16	174.6	322.0	29.56	3.528	1.775	1.697	1.635	1.568	1.418	1.474	1.299	1.449	1.379	1.209	1.420	1.201	1.199	1.276	1.233	1.316	1.261
510.0	120.3	144.2	212.5	257.1	188.9	211.3	649.1	986.0	279.2	196.5	188.7	171.4	151.3	132.1	114.4	99.79	88.58	81.83	78.89	74.68	72.04	69.49	67.51	67.19	65.45	65.39	64.22	64.17	64.66	64.29	61.51	57.42	51.79	47.65	43.11	38.93	35.28	31.83	29.22	26.24	23.70	22.81	24.91	23.59	17.65	13.00	11.09	9.545	8.389	7.371	6.477	5.592	4.689	4.491	4.842	9.927	44.04	144.5	203.0	112.7	10.36	1.673	1.557	1.516	1.402	1.338	1.322	1.362	1.280	1.146	1.318	1.206	1.151	1.174	1.213	1.223	1.186
515.0	110.2	132.2	154.1	232.6	202.2	164.4	284.0	942.3	664.1	185.1	165.7	150.5	133.7	115.1	100.8	86.28	78.57	72.27	68.99	65.42	61.15	59.36	57.89	58.24	56.64	56.96	56.55	55.67	55.85	55.79	52.23	50.02	45.34	42.57	37.44	34.79	31.71	28.55	26.11	23.42	21.16	19.53	19.51	21.63	20.84	14.35	10.76	9.114	7.933	7.003	6.319	5.817	4.819	4.110	3.923	4.930	12.13	34.31	69.24	222.1	160.1	12.37	1.677	1.491	1.400	1.241	1.113	1.211	1.242	1.175	1.136	1.132	1.062	1.120	1.057	0.935	1.036
520.0	103.3	120.5	130.1	191.0	221.6	152.6	177.4	568.9	1040	235.2	144.6	137.4	116.9	102.6	89.36	78.92	70.61	64.95	62.05	57.30	55.08	53.37	51.73	52.45	50.07	51.05	50.13	49.30	49.36	49.29	47.36	45.10	40.87	37.39	33.60	31.41	28.46	26.06	23.83	21.75	19.48	17.73	16.71	17.41	20.45	16.54	11.29	9.001	7.554	6.669	5.872	5.474	5.449	4.287	3.704	3.746	5.072	9.628	17.73	88.63	241.5	116.6	6.505	1.346	1.436	1.227	1.164	1.167	1.110	1.199	1.092	1.039	1.029	1.000	1.100	0.934	0.938
525.0	105.4	114.4	120.5	151.9	225.6	151.6	146.4	280.9	1107	472.2	134.4	123.5	104.9	93.04	81.14	71.67	64.38	59.73	54.98	51.92	49.56	47.00	46.93	45.77	45.40	45.05	44.01	44.08	45.12	43.89	42.61	40.87	36.67	34.51	31.31	28.05	26.54	23.59	22.03	19.49	18.08	16.22	15.28	14.22	17.14	17.39	12.37	9.304	7.224	6.524	5.815	5.279	5.463	4.381	3.646	3.334	3.421	4.255	5.808	22.47	113.7	229.4	29.74	2.764	1.346	1.245	1.128	1.100	1.009	1.054	1.085	0.969	0.918	0.915	1.067	0.922	0.974
530.0	89.29	99.81	104.2	112.3	193.2	173.1	123.6	158.7	624.1	944.8	188.1	107.4	93.87	82.28	71.25	62.18	55.35	50.95	47.50	44.46	42.96	40.99	40.14	39.25	39.27	37.74	38.18	38.38	38.76	38.40	36.75	35.05	32.17	29.71	27.17	25.10	23.45	21.36	19.53	17.57	16.32	14.54	13.32	12.41	12.88	14.58	14.23	10.04	7.289	5.938	5.385	4.910	4.694	4.365	4.010	3.206	3.098	2.915	3.194	6.637	28.30	97.19	153.8	90.24	9.914	1.229	1.146	1.047	0.976	0.994	0.999	0.955	0.883	0.870	0.961	0.967	0.973
535.0	79.62	89.52	86.47	96.50	129.8	187.9	121.9	114.8	234.2	931.0	588.7	101.3	80.84	71.19	60.68	52.70	47.30	43.33	39.94	38.73	36.90	35.24	34.36	33.78	33.59	32.37	32.68	31.89	32.80	32.31	30.87	30.00	27.51	24.59	23.14	21.16	20.05	18.26	17.33	15.22	14.30	12.96	11.56	10.91	10.24	10.83	12.49	11.26	7.852	5.968	4.975	4.572	4.241	3.729	4.032	3.491	2.857	2.660	2.386	3.092	7.644	23.09	47.18	148.7	122.0	11.25	1.097	0.935	1.010	1.012	0.941	0.852	0.964	0.818	0.897	0.865	0.855
540.0	73.85	81.65	76.40	79.42	97.61	173.4	133.9	95.83	125.0	524.0	998.3	147.8	70.02	63.78	55.69	46.99	41.77	37.39	35.70	33.17	32.42	31.55	29.44	30.41	29.59	28.83	28.45	28.15	28.28	27.88	27.59	25.43	24.63	22.12	20.82	18.81	17.06	15.68	15.16	13.63	12.93	11.29	10.93	9.904	9.278	8.694	9.747	11.02	8.817	5.899	4.483	4.270	3.998	3.407	3.499	3.538	3.001	2.594	2.253	2.214	3.314	6.470	11.78	56.13	167.6	90.88	5.494	1.000	0.896	0.973	0.954	0.853	0.965	0.746	0.797	0.872	0.806
545.0	69.60	78.12	73.71	72.21	75.47	135.6	158.8	92.68	94.95	220.5	1064	350.3	64.66	55.15	48.81	40.55	36.64	34.23	30.89	29.43	28.27	28.16	26.38	27.26	25.64	24.65	25.28	24.08	24.86	25.30	24.27	21.82	20.90	19.61	18.13	16.72	15.37	14.21	13.44	12.25	11.67	10.26	9.544	8.933	8.414	7.686	7.660	9.753	9.231	6.444	4.518	3.908	3.592	3.228	3.250	3.343	3.416	2.577	2.274	1.978	2.027	2.752	3.749	14.10	71.74	156.6	29.78	2.473	0.929	0.833	0.885	0.801	0.869	0.865	0.845	0.806	0.784
550.0	72.56	68.72	65.48	61.53	66.34	87.93	154.6	100.3	78.57	106.3	533.9	832.9	111.0	46.71	40.43	34.71	30.74	28.74	26.33	24.42	23.77	22.85	22.13	21.60	20.53	20.85	21.19	20.27	20.66	20.84	19.88	18.83	17.16	16.30	15.01	13.86	12.88	12.24	11.26	10.32	9.686	8.715	8.095	7.745	6.891	6.632	6.261	6.670	7.768	7.125	4.957	3.714	3.166	2.988	2.741	2.822	3.015	2.784	2.185	1.801	1.704	1.777	1.913	4.237	17.50	60.07	101.9	67.69	9.877	0.937	0.819	0.754	0.755	0.795	0.770	0.778	0.700
555.0	68.63	62.55	57.92	54.29	55.15	60.11	115.1	126.5	69.95	69.50	175.2	793.3	436.9	43.24	34.27	29.34	27.03	23.23	21.41	20.17	19.10	18.42	18.01	17.13	16.87	17.55	17.40	16.50	16.56	16.50	16.46	15.25	13.68	13.05	12.23	11.56	10.36	10.09	8.824	8.566	7.724	7.307	6.614	6.444	6.038	5.811	5.023	4.771	5.291	5.879	5.617	3.772	2.813	2.645	2.462	2.416	2.395	2.452	2.400	1.879	1.660	1.458	1.421	1.985	4.813	14.40	28.82	90.19	88.16	10.66	0.915	0.779	0.738	0.710	0.770	0.793	0.745
560.0	64.73	62.44	55.58	48.06	48.47	50.17	76.12	136.2	73.35	59.09	85.64	409.3	799.5	74.60	29.27	24.29	22.39	19.69	18.53	17.23	15.88	16.13	15.03	14.86	14.94	14.40	14.52	14.00	13.81	13.83	13.81	12.67	11.87	10.97	10.08	9.801	8.687	8.192	7.717	7.411	6.741	6.357	6.091	5.381	5.248	4.951	4.370	4.167	3.964	4.642	5.462	4.157	2.731	2.481	2.244	2.220	2.183	2.054	2.276	2.061	1.642	1.456	1.244	1.386	1.928	4.169	7.261	30.34	99.78	67.16	4.893	0.859	0.808	0.673	0.678	0.700	0.715
565.0	63.93	64.94	56.16	43.16	46.45	39.67	54.20	123.5	84.59	56.16	60.68	158.6	869.5	144.4	26.31	20.75	19.28	17.68	15.90	14.81	14.08	13.35	12.82	12.57	12.43	12.16	12.15	12.02	11.39	11.98	12.06	10.44	10.09	9.797	9.054	8.455	7.593	7.164	6.803	6.063	5.991	5.641	5.085	4.669	4.464	4.434	3.788	3.508	3.373	3.394	4.407	4.321	2.988	2.116	2.063	1.979	1.932	1.792	1.881	2.072	1.722	1.419	1.261	1.283	1.241	1.756	2.541	7.672	38.09	97.92	29.15	2.287	0.679	0.692	0.728	0.771	0.725
570.0	76.45	67.20	52.93	44.77	39.82	35.34	42.70	81.12	117.3	63.98	60.47	82.64	426.5	610.3	60.63	17.79	15.27	14.33	13.03	11.92	11.26	10.91	10.49	9.834	10.04	9.726	9.680	9.971	9.407	9.676	9.416	8.690	8.237	7.869	7.456	6.813	6.233	5.888	5.457	5.178	4.810	4.807	4.267	4.026	3.793	3.739	3.245	3.029	2.840	2.587	2.926	3.563	3.223	2.294	1.864	1.656	1.624	1.600	1.503	1.653	1.912	1.375	1.283	1.144	1.132	1.128	1.376	2.482	9.501	33.85	60.24	47.68	8.626	0.818	0.685	0.662	0.716
575.0	81.78	75.17	60.08	44.50	35.71	33.48	36.26	53.09	121.1	91.83	69.67	74.95	147.7	596.0	302.6	17.47	12.62	11.46	10.54	9.800	9.256	8.910	8.243	8.636	7.976	7.848	7.776	8.011	7.367	7.611	7.531	7.063	6.497	6.475	5.833	5.359	5.095	4.951	4.413	4.302	3.985	3.927	3.540	3.425	3.195	3.047	2.705	2.701	2.425	2.097	2.185	2.397	3.107	2.499	1.810	1.610	1.428	1.395	1.372	1.443	1.428	1.726	1.339	1.268	1.070	1.053	1.302	1.318	2.915	8.284	16.16	51.49	57.31	9.242	0.681	0.657	0.704
580.0	82.35	82.45	70.14	46.17	35.45	31.72	33.68	41.77	98.53	123.4	81.67	83.81	88.59	299.5	578.6	34.20	11.21	9.340	9.041	8.426	8.103	7.545	7.313	7.229	6.683	6.719	6.841	6.728	6.446	6.409	6.522	6.188	5.501	5.344	4.874	4.671	4.304	4.327	3.818	3.709	3.542	3.319	3.076	3.060	2.766	2.659	2.395	2.427	2.123	2.061	1.789	1.820	2.431	2.658	2.064	1.494	1.321	1.304	1.328	1.198	1.247	1.579	1.681	1.259	1.059	1.099	1.156	1.142	1.385	2.645	4.374	16.30	56.98	32.94	4.635	0.730	0.715
585.0	84.04	88.21	67.49	46.31	32.86	29.92	32.83	39.59	73.94	141.6	95.28	87.97	79.83	118.0	614.4	95.49	10.11	8.806	7.766	7.433	6.867	6.479	6.180	6.234	5.849	5.802	5.667	5.781	5.636	5.506	5.561	5.299	5.049	4.417	4.545	4.043	3.913	3.578	3.329	3.299	3.255	2.847	2.909	2.665	2.327	2.320	2.205	2.147	1.730	1.748	1.452	1.480	1.756	2.161	2.265	1.599	1.206	1.181	1.123	1.141	1.093	1.287	1.659	1.523	1.212	1.031	1.054	1.135	1.047	1.407	1.629	4.288	20.29	54.71	27.10	2.253	0.630
590.0	93.92	88.93	74.98	48.76	31.25	29.10	30.89	37.44	59.24	130.4	125.6	98.36	81.83	62.45	294.6	388.3	26.90	7.594	6.807	6.332	5.761	5.408	5.252	5.046	5.029	4.703	4.973	4.713	4.642	4.552	4.557	4.227	4.217	3.806	3.607	3.389	3.183	3.056	2.786	2.885	2.564	2.326	2.320	2.098	2.130	2.059	1.966	1.905	1.618	1.513	1.363	1.342	1.372	1.548	2.028	1.842	1.289	1.103	1.071	0.976	1.073	1.151	1.351	1.552	1.567	1.193	1.173	1.023	1.090	1.099	1.007	1.565	5.208	18.48	37.93	31.28	6.340
595.0	96.67	95.64	76.68	47.67	30.02	26.84	30.37	36.82	54.69	101.2	152.3	111.6	85.58	49.63	85.96	398.4	155.7	7.347	5.643	4.938	4.911	4.459	4.650	4.179	4.179	3.774	4.130	4.050	3.858	4.035	4.107	3.563	3.317	3.083	2.963	2.991	2.741	2.546	2.355	2.431	2.106	2.085	1.927	1.908	1.886	1.681	1.553	1.788	1.460	1.284	1.141	1.194	1.153	1.133	1.464	1.588	1.418	1.131	0.939	0.929	0.892	1.020	0.982	1.178	1.507	1.480	1.138	1.141	1.008	0.976	0.956	1.009	1.727	4.691	9.932	29.50	33.09
600.0	100.7	97.53	77.67	44.60	29.40	26.52	28.98	38.28	53.23	83.26	151.4	121.7	87.91	48.94	33.86	207.0	331.7	14.30	5.435	4.586	4.301	4.142	3.953	3.647	3.801	3.442	3.417	3.255	3.205	3.484	3.332	3.208	2.771	2.751	2.550	2.457	2.352	2.214	2.046	2.053	1.907	1.950	1.691	1.627	1.621	1.576	1.474	1.592	1.324	1.109	1.160	1.080	0.983	1.039	1.192	1.497	1.622	1.241	1.042	0.960	0.973	1.007	0.934	0.991	1.247	1.526	1.272	1.120	1.005	1.001	0.961	0.866	0.989	1.547	2.782	9.069	33.51
605.0	88.63	87.59	74.71	44.26	28.40	26.20	26.54	37.92	52.28	77.05	133.7	139.0	90.11	49.20	21.68	70.25	385.1	56.91	4.976	4.117	3.963	3.808	3.246	3.365	3.296	3.011	2.889	2.965	2.743	2.922	2.909	2.891	2.627	2.439	2.440	2.157	2.124	2.137	1.744	1.783	1.783	1.669	1.528	1.415	1.513	1.463	1.356	1.420	1.137	1.023	1.029	0.924	0.945	0.910	1.038	1.179	1.551	1.317	0.993	0.939	0.896	0.898	0.927	0.957	1.107	1.325	1.475	1.105	0.943	0.984	0.891	0.881	0.750	0.889	1.140	2.531	11.83
610.0	83.50	87.27	74.89	42.41	26.40	26.13	27.82	34.83	49.63	72.48	109.6	147.8	93.02	48.70	19.91	24.51	201.3	234.9	12.52	3.776	3.390	3.065	3.077	2.856	2.865	2.551	2.511	2.474	2.467	2.571	2.467	2.529	2.313	2.039	2.032	1.879	1.862	1.782	1.545	1.520	1.458	1.455	1.326	1.388	1.278	1.315	1.130	1.155	1.049	0.990	0.811	0.855	0.817	0.783	0.850	0.948	1.122	1.216	1.171	0.877	0.809	0.873	0.902	0.968	0.982	1.101	1.342	1.235	1.032	0.976	0.916	0.798	0.723	0.658	0.811	1.089	3.217
615.0	87.32	76.60	66.00	43.34	25.72	21.75	27.31	33.89	48.13	66.77	94.14	129.9	104.6	47.45	19.09	13.57	56.02	274.2	65.17	3.566	2.941	2.626	2.643	2.451	2.428	2.244	2.109	2.026	2.257	2.261	2.037	1.884	2.011	1.906	1.666	1.600	1.542	1.523	1.432	1.295	1.334	1.276	1.277	1.284	1.158	1.072	0.966	0.989	0.950	0.890	0.797	0.831	0.745	0.790	0.793	0.769	0.893	1.090	1.159	0.996	0.835	0.919	0.911	0.873	0.995	1.047	1.103	1.189	1.217	1.013	0.829	0.796	0.697	0.673	0.705	0.661	1.241
620.0	83.60	76.88	60.66	40.29	27.54	23.60	26.64	34.09	44.58	63.19	83.60	108.6	112.1	47.25	18.64	10.58	18.93	158.6	197.4	6.187	2.727	2.472	2.499	2.208	2.111	2.143	1.914	1.843	2.034	1.798	1.842	1.778	1.674	1.724	1.422	1.430	1.346	1.287	1.182	1.161	1.216	1.040	1.073	1.096	1.002	0.989	0.909	0.939	0.845	0.764	0.771	0.783	0.742	0.709	0.769	0.694	0.757	0.860	1.140	1.041	0.872	0.875	0.788	0.861	0.856	0.836	1.062	1.221	1.271	1.142	0.830	0.767	0.727	0.564	0.657	0.732	0.734
625.0	83.08	76.04	60.93	39.60	25.49	22.23	25.13	30.27	45.39	56.96	78.99	90.22	113.4	51.59	18.57	10.19	10.44	55.89	265.4	29.45	2.607	2.225	2.036	1.911	1.909	1.769	1.704	1.702	1.708	1.623	1.829	1.612	1.532	1.466	1.271	1.422	1.198	1.197	1.109	1.041	0.995	1.143	0.993	1.056	0.936	0.958	0.872	0.906	0.832	0.708	0.642	0.671	0.689	0.690	0.689	0.705	0.809	0.723	0.907	1.095	0.912	0.837	0.820	0.791	0.741	0.955	0.975	0.946	1.071	1.200	0.873	0.721	0.748	0.680	0.650	0.756	0.666
630.0	70.39	74.09	56.62	37.70	24.60	22.01	22.73	28.43	39.65	54.43	70.72	77.38	91.47	61.61	18.28	10.25	8.596	17.81	155.6	128.4	5.608	2.048	1.926	1.665	1.700	1.602	1.653	1.675	1.512	1.460	1.532	1.413	1.316	1.269	1.163	1.151	1.123	1.051	1.064	0.987	0.945	1.027	0.924	0.915	0.883	0.838	0.795	0.761	0.738	0.684	0.612	0.649	0.608	0.638	0.635	0.641	0.712	0.681	0.808	0.913	0.869	0.866	0.779	0.763	0.822	0.881	0.870	0.888	0.949	1.021	0.983	0.780	0.680	0.613	0.612	0.686	0.635
635.0	61.73	67.65	55.05	35.53	23.63	21.12	23.49	27.28	35.74	49.96	62.83	70.00	68.10	66.11	22.39	10.34	8.173	8.301	42.87	198.2	41.59	1.975	1.833	1.513	1.550	1.433	1.461	1.325	1.498	1.419	1.331	1.174	1.168	1.066	1.115	1.072	0.903	0.929	0.883	0.846	0.778	0.846	0.771	0.886	0.823	0.707	0.780	0.744	0.686	0.591	0.545	0.621	0.586	0.598	0.574	0.625	0.722	0.621	0.644	0.771	0.840	0.837	0.765	0.876	0.722	0.769	0.881	0.817	0.817	0.907	0.923	0.947	0.748	0.637	0.613	0.603	0.646
640.0	64.21	70.46	55.49	36.67	22.65	20.14	22.30	24.30	33.85	45.61	56.67	62.31	57.99	60.25	29.35	10.86	7.700	6.295	13.15	134.4	124.1	3.205	1.740	1.549	1.543	1.504	1.314	1.227	1.435	1.297	1.194	1.169	1.123	0.980	1.000	0.902	0.922	0.918	0.876	0.863	0.745	0.774	0.823	0.858	0.675	0.696	0.721	0.732	0.677	0.597	0.566	0.607	0.555	0.611	0.610	0.572	0.627	0.599	0.624	0.625	0.735	0.879	0.767	0.839	0.808	0.725	0.878	0.735	0.806	0.794	0.783	0.852	0.808	0.593	0.624	0.585	0.689
645.0	64.08	66.85	51.55	36.52	22.23	19.68	22.36	23.85	31.58	41.64	52.99	57.01	53.21	49.61	36.38	12.10	8.244	6.429	6.523	52.44	187.9	14.38	1.613	1.510	1.422	1.438	1.205	1.178	1.252	1.222	1.141	1.128	1.030	0.942	0.912	0.856	1.004	0.862	0.867	0.775	0.741	0.878	0.804	0.743	0.731	0.721	0.683	0.675	0.643	0.551	0.547	0.597	0.545	0.636	0.592	0.556	0.647	0.568	0.616	0.580	0.719	0.800	0.901	0.806	0.858	0.771	0.817	0.777	0.865	0.754	0.703	0.781	0.855	0.704	0.654	0.594	0.595
650.0	69.47	72.63	60.83	35.53	23.52	19.88	20.56	23.20	30.84	39.60	49.95	54.38	48.87	39.62	39.62	15.29	8.023	6.672	5.161	16.47	163.9	52.05	1.863	1.334	1.352	1.183	1.160	1.099	1.280	1.090	0.944	1.078	0.931	0.795	0.895	0.834	0.973	0.807	0.790	0.779	0.742	0.794	0.765	0.666	0.807	0.672	0.667	0.670	0.624	0.612	0.508	0.605	0.550	0.539	0.618	0.526	0.603	0.553	0.622	0.635	0.632	0.757	0.751	0.725	0.767	0.756	0.735	0.723	0.829	0.894	0.684	0.802	0.782	0.773	0.687	0.620	0.633
