Sample:	'1
File name:	Default_20230927_161703.FD3
Run date:	'16:10:42, 09/27/2023
Operator:	user
Comment:	'

Instrument
Model:	F-2700 FL Spectrophotometer
Serial number:	2190-003
ROM Version:	4J14000 07

Instrument parameters
Measurement type:	3-D scan
Data mode:	Fluorescence
EX  Start WL:	220.0 nm
EX  End WL:	600.0 nm
EX Sampling interval:	5.0 nm
EM  Start WL:	230.0 nm
EM  End WL:	650.0 nm
EM Sampling interval:	5.0 nm
Scan speed:	12000 nm/min
EX Slit:	5.0 nm
EM Slit:	5.0 nm
PMT Voltage:	700 V
Response:	Auto 
Corrected spectra:	Off
Contour interval:	50.000

Peak integration
Integration method:	Rectangular
Sensitivity:	1
Threshold:	1.000

Peaks
No.	ApexEX/EM(nm)	Height(Data)
1	225.0/265.0	114.3
2	225.0/295.0	167.7
3	225.0/540.0	148.9
4	225.0/565.0	127.3
5	225.0/575.0	123.9
6	225.0/605.0	137.4
7	225.0/640.0	109.8
8	230.0/275.0	111.4
9	235.0/570.0	110.8
10	240.0/260.0	158.8
11	240.0/560.0	120.3
12	240.0/635.0	88.04
13	245.0/265.0	141.9
14	245.0/595.0	94.16
15	250.0/270.0	155.3
16	250.0/365.0	 3606
17	250.0/540.0	193.0
18	255.0/275.0	235.8
19	260.0/285.0	301.1
20	265.0/580.0	128.7
21	265.0/605.0	107.7
22	270.0/240.0	32.02
23	270.0/315.0	 1386
24	270.0/325.0	 1368
25	270.0/590.0	113.6
26	270.0/630.0	102.3
27	275.0/320.0	 1354
28	275.0/605.0	122.3
29	275.0/640.0	88.48
30	280.0/235.0	26.12
31	280.0/310.0	 1360
32	295.0/255.0	12.49
33	305.0/235.0	11.91
34	305.0/340.0	543.4
35	310.0/240.0	9.314
36	320.0/240.0	7.598
37	320.0/280.0	8.296
38	335.0/275.0	6.806
39	350.0/245.0	5.208
40	350.0/285.0	5.116
41	360.0/275.0	5.008
42	365.0/285.0	5.258
43	365.0/615.0	10.04
44	375.0/325.0	5.110
45	380.0/260.0	3.837
46	390.0/300.0	3.748
47	430.0/340.0	2.994
48	500.0/365.0	10.52
49	505.0/370.0	10.37
50	535.0/325.0	4.809
51	550.0/315.0	5.258
52	580.0/325.0	4.244
53	580.0/520.0	2.751
54	595.0/400.0	4.553

Data points
	220.0	225.0	230.0	235.0	240.0	245.0	250.0	255.0	260.0	265.0	270.0	275.0	280.0	285.0	290.0	295.0	300.0	305.0	310.0	315.0	320.0	325.0	330.0	335.0	340.0	345.0	350.0	355.0	360.0	365.0	370.0	375.0	380.0	385.0	390.0	395.0	400.0	405.0	410.0	415.0	420.0	425.0	430.0	435.0	440.0	445.0	450.0	455.0	460.0	465.0	470.0	475.0	480.0	485.0	490.0	495.0	500.0	505.0	510.0	515.0	520.0	525.0	530.0	535.0	540.0	545.0	550.0	555.0	560.0	565.0	570.0	575.0	580.0	585.0	590.0	595.0	600.0
230.0	118.8	120.1	360.9	427.8	111.6	49.68	42.80	33.98	33.02	30.78	24.91	21.57	20.53	15.29	14.29	13.04	10.38	8.758	6.747	7.394	5.231	5.186	5.407	4.993	4.509	3.962	3.640	4.183	3.695	4.030	3.709	3.425	2.999	2.565	2.242	2.698	2.437	2.405	2.122	2.200	2.395	2.214	1.916	1.947	1.732	1.869	1.698	1.354	1.850	1.900	1.763	1.660	1.397	1.470	1.410	1.237	1.482	1.273	1.391	1.221	1.093	1.299	1.349	1.434	1.474	1.129	0.979	1.264	1.313	0.957	1.141	1.143	1.301	1.228	1.396	1.478	1.637
235.0	108.5	98.55	180.1	543.0	635.6	129.1	57.36	44.18	30.06	26.04	23.70	22.19	26.12	15.46	14.18	13.44	8.787	11.91	8.950	7.696	5.780	4.850	5.154	4.387	4.192	3.322	2.787	3.235	3.555	2.988	3.625	2.877	2.915	3.119	1.841	2.467	2.918	2.775	2.763	2.066	2.695	1.971	1.781	1.980	1.858	2.647	1.365	1.128	1.733	1.664	2.024	2.522	2.113	1.133	1.077	1.062	1.625	1.363	1.346	1.124	1.525	1.278	1.481	1.404	1.210	1.167	1.453	1.264	1.463	1.238	1.270	0.894	1.048	1.149	1.580	1.523	1.200
240.0	97.10	100.5	92.01	279.5	935.1	720.2	95.66	37.72	33.00	27.54	32.02	21.42	13.70	15.87	14.93	12.36	9.067	7.437	9.314	5.895	7.598	5.512	5.271	3.877	3.205	4.713	3.770	4.233	3.540	4.103	3.074	3.058	2.546	3.429	2.556	3.031	2.988	2.552	2.210	1.759	2.917	1.942	2.572	2.059	1.713	2.377	1.445	1.176	1.971	1.515	1.503	2.788	3.158	3.233	1.806	1.319	1.342	1.665	1.570	1.033	1.669	1.599	0.978	1.567	1.322	1.350	1.056	1.335	1.717	1.101	1.024	1.044	1.303	1.823	1.233	1.393	0.974
245.0	122.7	116.2	107.9	127.0	497.7	 1319	727.7	61.52	33.32	26.94	26.59	22.27	16.78	17.99	15.45	11.79	9.638	8.161	9.179	7.135	7.312	7.629	4.313	5.044	3.381	4.514	5.208	4.391	3.424	4.169	3.393	3.155	3.019	2.421	2.585	2.327	1.961	2.080	2.425	1.839	2.423	2.293	2.387	2.483	1.870	1.959	1.409	1.466	2.269	1.649	1.560	1.931	2.361	3.512	3.987	3.230	1.725	1.510	1.756	1.379	0.859	1.414	0.846	1.400	0.950	1.142	0.930	0.973	1.193	1.484	1.087	0.813	1.376	1.643	0.904	1.386	1.537
250.0	142.5	102.9	102.4	100.1	169.3	601.0	 1366	 1211	262.2	27.95	27.06	27.86	20.57	17.96	14.65	9.456	8.562	9.993	7.217	6.998	5.642	5.794	4.943	4.525	4.268	4.014	4.313	4.059	3.330	4.175	3.277	2.743	3.221	2.747	3.500	2.223	1.460	2.934	2.173	1.739	2.079	2.217	1.795	2.244	1.725	2.201	2.094	1.561	1.771	1.246	1.229	1.796	1.884	2.032	2.818	3.974	4.867	4.993	3.316	1.796	1.535	1.335	1.330	1.205	1.235	1.379	1.157	1.510	1.331	1.319	0.721	1.019	1.577	1.283	0.913	1.392	1.544
255.0	83.38	100.7	100.4	136.5	139.3	182.6	453.5	 1823	 1976	308.9	31.17	25.45	22.26	17.15	10.31	12.49	10.86	10.10	7.050	6.949	5.239	6.331	6.259	4.883	4.851	4.681	4.592	4.365	3.306	4.148	3.395	2.995	2.673	2.736	2.704	2.225	2.198	2.762	2.368	2.262	2.548	1.956	1.961	2.290	1.915	1.480	1.400	1.675	1.720	1.433	1.672	1.471	2.112	1.418	2.066	2.137	2.626	4.212	6.881	6.643	4.074	1.768	1.147	1.245	1.139	1.407	1.405	1.897	1.599	1.003	1.526	1.152	0.992	1.656	1.252	0.890	1.806
260.0	98.17	88.30	88.77	133.3	158.8	115.6	151.0	744.5	 2744	 1725	179.4	26.14	23.16	16.12	9.122	12.04	9.815	9.406	7.060	6.063	5.686	6.195	6.605	3.963	5.140	4.133	3.824	3.415	3.850	3.220	3.999	2.547	3.837	2.281	2.364	2.507	1.960	2.435	2.131	2.244	2.357	1.866	1.950	2.043	1.663	1.915	1.544	2.114	1.545	1.090	0.859	1.798	2.092	1.947	1.792	1.281	1.962	1.882	3.967	6.616	8.893	7.329	2.906	1.417	1.061	1.055	1.703	1.458	1.781	1.465	1.061	1.233	1.340	1.317	1.523	1.063	1.402
265.0	111.9	114.3	94.22	74.03	104.3	141.9	90.20	199.7	 1190	 3393	 1385	88.74	19.86	19.41	14.62	11.32	10.44	8.205	6.613	5.751	7.254	6.460	6.643	5.550	5.488	3.720	4.460	3.035	3.612	2.492	3.695	2.610	3.220	3.031	2.163	2.409	1.865	1.990	1.351	2.219	2.278	1.575	1.550	1.270	1.684	2.013	1.987	1.971	1.430	1.447	1.035	1.425	1.266	1.290	1.602	1.181	1.233	1.615	1.589	2.753	5.637	9.814	10.60	6.539	1.821	1.078	1.469	1.553	1.339	1.473	0.971	1.600	1.341	1.519	1.297	1.457	1.551
270.0	136.6	113.8	105.0	81.25	72.91	125.7	155.3	120.4	321.2	 1341	 3069	 2702	374.9	23.05	14.59	12.65	10.69	9.869	6.647	7.300	7.028	6.525	4.609	5.687	4.691	4.336	3.432	2.668	4.401	3.257	3.532	3.102	3.106	2.888	3.037	2.192	2.205	2.713	1.711	2.208	2.146	2.157	1.822	1.766	1.870	1.858	1.705	1.888	1.609	1.546	1.327	1.476	1.607	1.788	1.744	1.361	1.690	1.595	1.500	1.776	2.354	3.910	5.954	8.675	11.25	9.850	4.835	1.677	1.067	1.539	1.453	1.118	1.438	1.428	1.458	1.194	1.258
275.0	104.4	100.9	111.4	101.5	87.87	84.09	112.5	235.8	143.3	346.0	906.0	 3556	 4254	373.8	13.88	15.63	12.36	8.235	8.134	8.351	7.316	5.307	6.727	6.806	4.870	4.625	3.486	3.584	5.008	3.920	3.818	3.314	2.807	2.053	2.108	2.318	2.493	2.741	1.857	2.302	2.198	1.644	1.782	2.303	1.934	2.092	2.151	1.298	1.728	1.744	1.248	1.608	1.386	1.634	1.704	1.623	1.756	2.325	1.439	1.599	1.678	1.545	2.020	3.481	4.435	8.982	16.37	14.98	5.462	1.737	1.916	0.942	1.550	1.436	1.433	1.612	1.538
280.0	129.6	94.76	107.6	91.71	72.48	64.79	74.55	207.3	217.2	145.2	260.2	 1248	 5226	 3622	186.4	16.08	12.52	8.443	5.366	7.334	8.296	6.351	4.841	5.765	5.407	4.651	4.166	3.560	3.952	4.321	3.413	4.107	3.975	2.446	2.941	2.256	1.926	2.310	2.379	2.348	2.183	1.595	1.595	1.927	1.967	1.721	1.839	1.185	1.433	1.058	1.397	1.514	1.033	1.559	1.759	1.394	2.179	1.358	1.705	2.223	1.557	1.117	1.848	2.213	2.133	3.384	7.491	14.70	19.31	11.36	3.412	0.864	1.111	1.793	1.450	1.890	1.764
285.0	110.9	105.2	102.7	84.03	60.61	81.79	81.35	111.2	301.1	204.4	132.9	360.5	 2069	 6153	894.1	61.68	14.06	9.784	8.200	8.088	6.431	7.183	5.650	5.654	4.353	3.977	5.116	3.993	3.741	5.258	5.068	3.020	2.838	2.693	3.207	2.162	2.327	1.951	2.121	2.507	1.692	2.071	2.069	2.005	1.849	2.363	2.154	1.224	1.648	1.537	1.019	1.390	1.256	1.236	1.244	1.662	2.021	1.004	1.620	2.341	2.691	1.871	1.833	2.021	1.313	1.664	2.710	4.780	11.98	19.35	19.13	7.182	1.854	1.620	0.983	1.447	1.391
290.0	125.4	130.5	119.7	104.7	96.36	91.83	110.0	118.9	225.1	419.5	314.9	258.2	637.6	 2359	 4554	 2935	227.0	13.20	8.481	6.826	6.557	5.743	5.719	4.888	4.359	4.961	4.838	3.709	4.464	4.239	4.745	3.424	3.230	2.798	2.922	2.689	2.412	2.579	1.968	2.339	1.898	1.976	1.729	1.594	2.010	1.827	1.886	1.414	1.707	1.693	0.995	1.597	1.422	1.556	1.575	1.773	1.778	1.617	1.378	1.807	2.271	2.304	2.717	2.248	1.467	1.538	2.021	2.284	4.182	6.738	11.52	15.27	16.08	12.57	6.079	2.145	1.405
295.0	120.1	167.7	165.8	155.1	137.9	151.4	216.4	268.1	346.8	504.2	759.3	602.3	499.1	796.6	 1370	 4804	 4147	247.5	12.89	8.335	6.030	8.126	5.651	5.989	5.080	4.623	5.022	4.542	4.366	4.048	3.682	3.684	3.475	3.067	2.220	2.910	2.704	2.710	2.475	1.687	1.501	2.193	1.961	1.931	2.270	1.714	1.678	1.645	1.762	1.687	1.472	1.717	1.247	2.158	1.815	1.710	1.907	1.493	1.881	2.617	2.257	2.773	2.614	3.474	3.296	2.331	2.303	2.318	2.636	3.153	4.346	4.527	6.241	14.89	23.64	16.65	5.914
300.0	152.6	120.1	201.2	165.1	208.8	240.3	364.5	444.6	631.2	719.1	953.6	 1072	720.5	608.1	546.9	 1749	 6072	 3110	122.1	11.04	7.735	7.310	5.742	5.226	5.642	4.919	3.619	4.898	4.365	3.371	3.610	3.274	2.745	3.053	3.748	3.054	2.318	1.845	1.712	2.525	1.953	1.686	1.907	1.642	2.075	1.400	1.370	1.686	1.782	1.979	1.559	1.964	1.876	2.456	1.818	1.904	2.615	2.017	2.661	2.879	2.872	3.058	3.015	3.460	3.835	3.623	3.449	2.918	2.921	2.464	3.362	2.787	2.559	5.524	11.19	21.37	23.43
305.0	142.1	157.7	204.8	193.6	244.8	309.8	462.5	629.2	834.2	970.1	 1097	 1321	 1119	683.4	435.6	551.9	 2585	 6481	 2056	43.97	10.56	7.148	6.395	6.416	4.473	5.376	4.143	4.675	3.981	2.796	3.517	3.881	2.463	2.932	3.121	3.317	2.636	2.543	1.971	2.639	2.571	2.102	1.246	2.566	2.118	1.598	2.276	2.245	1.624	1.884	1.723	1.902	1.770	2.286	1.954	2.501	2.822	3.080	2.584	3.119	3.138	3.898	3.368	3.497	3.785	4.556	4.576	4.268	2.692	3.051	2.531	2.044	1.827	2.677	3.886	7.533	16.67
310.0	129.3	157.6	208.3	201.9	278.8	390.3	566.2	793.9	986.5	 1143	 1281	 1322	 1360	958.8	510.6	327.5	684.9	 2643	 4916	 1897	149.4	10.83	7.337	6.491	4.517	5.385	5.469	4.523	3.262	4.202	3.533	4.040	3.086	2.904	2.437	3.278	2.460	2.199	2.574	2.591	2.289	1.930	1.903	1.764	2.245	1.612	2.469	1.957	1.781	1.468	1.882	1.938	1.955	2.342	2.312	2.420	3.027	3.181	3.520	3.617	4.030	4.188	4.042	4.071	4.262	4.265	4.203	4.228	4.124	4.109	2.917	2.578	2.215	1.814	1.826	2.764	5.318
315.0	134.3	170.5	211.6	235.3	338.6	477.6	645.5	891.3	 1078	 1282	 1386	 1347	 1268	 1190	720.8	330.2	266.3	645.8	 1475	 4889	 2890	179.0	10.32	7.692	6.953	5.566	4.972	4.827	4.767	4.605	3.608	4.539	2.677	3.350	2.560	2.999	2.213	2.511	2.344	2.220	2.405	1.559	2.144	1.955	1.835	1.871	1.893	1.818	1.557	1.556	1.631	1.617	2.066	2.466	2.490	2.926	2.131	3.619	3.325	4.692	3.999	4.111	4.676	4.416	4.626	4.107	5.258	4.008	3.932	4.930	3.893	3.576	2.750	1.765	2.111	1.867	2.131
320.0	120.8	167.7	211.6	292.1	359.5	526.5	673.8	930.3	 1120	 1281	 1338	 1354	 1196	 1046	891.9	412.1	202.6	227.5	385.8	 1916	 5741	 2246	84.30	8.636	5.799	5.690	5.371	5.773	4.799	4.372	3.919	4.141	2.774	3.563	2.629	3.345	2.377	2.498	2.817	2.426	2.650	1.810	2.407	2.108	2.154	1.936	1.471	1.445	1.696	1.653	1.830	1.896	2.010	2.341	2.558	3.601	3.253	3.655	3.608	4.414	4.284	5.072	4.417	4.641	4.218	4.363	4.657	4.182	3.983	4.076	3.783	3.838	3.743	2.343	2.516	2.042	2.238
325.0	159.0	171.2	240.5	356.3	480.2	615.6	753.9	990.1	 1172	 1239	 1368	 1264	 1149	949.3	859.6	602.3	241.1	146.8	154.9	493.2	 2771	 5766	 1542	30.82	7.369	6.707	5.063	5.362	5.733	5.096	3.913	5.110	4.179	3.518	2.216	2.195	2.565	2.767	2.443	2.234	2.091	2.143	2.163	2.274	1.959	1.586	1.315	1.743	1.280	1.663	1.815	2.133	2.924	2.949	2.681	2.791	3.410	3.496	4.131	4.173	4.370	4.485	4.638	4.809	4.068	4.181	4.212	4.781	4.046	3.869	3.126	3.168	4.244	3.415	2.226	2.107	2.626
330.0	171.0	216.6	362.6	546.6	722.0	928.4	 1098	 1211	 1267	 1314	 1306	 1177	 1072	904.4	713.1	620.4	444.1	211.9	141.7	187.4	701.5	 2666	 4537	 1377	109.2	7.817	6.330	4.789	5.459	4.222	4.107	4.183	3.879	3.327	2.488	2.950	2.792	2.267	2.045	2.180	1.925	2.010	2.177	2.119	2.169	1.566	1.572	2.287	1.852	2.053	2.262	2.693	3.184	3.486	3.307	3.902	4.423	3.996	4.640	4.114	5.296	4.375	4.780	4.694	4.118	4.294	4.098	4.194	3.845	3.250	2.884	3.156	3.186	3.374	2.828	2.873	2.119
335.0	143.9	278.4	546.5	832.9	 1187	 1418	 1618	 1594	 1537	 1455	 1282	 1140	 1016	859.4	695.7	534.0	534.8	419.2	215.3	162.0	245.9	651.2	 1561	 4843	 2177	137.5	7.153	5.448	6.527	4.777	4.462	3.672	4.153	3.637	3.178	2.949	3.518	1.967	2.183	2.144	2.010	2.304	2.556	2.100	1.721	1.969	1.843	2.333	2.128	2.093	2.515	3.644	3.848	4.471	4.756	5.241	5.280	6.278	5.511	5.264	5.521	4.836	4.921	4.307	4.163	4.458	3.828	3.457	3.024	3.824	3.721	2.645	3.462	3.357	2.503	2.471	3.675
340.0	166.8	274.0	654.1	 1038	 1513	 1856	 2046	 1974	 1802	 1603	 1323	 1104	975.0	842.9	704.5	538.8	484.9	543.4	345.8	197.7	163.3	222.5	409.0	 2167	 5434	 1759	71.52	7.708	6.675	5.473	5.066	3.105	3.801	2.730	3.349	3.413	3.644	2.435	1.751	1.688	2.129	2.210	2.994	2.519	2.494	2.270	1.959	2.516	2.558	2.716	3.493	4.335	4.735	5.337	5.968	6.398	6.138	7.000	5.493	5.506	6.138	4.520	5.434	3.791	4.198	4.584	3.329	3.700	2.970	3.389	3.715	3.453	3.326	2.463	3.100	2.899	3.122
345.0	190.3	365.3	816.1	 1311	 1785	 2292	 2492	 2328	 2013	 1720	 1337	 1044	936.5	836.2	728.7	572.9	483.2	510.6	504.7	274.3	181.1	157.5	165.4	565.9	 3049	 5323	 1280	26.62	7.745	5.240	5.266	4.632	4.000	2.452	3.681	3.502	2.700	2.954	3.041	1.873	2.979	2.131	2.728	2.040	2.126	2.349	2.398	2.403	3.252	2.882	3.738	5.057	5.942	6.581	6.343	7.404	7.166	6.768	7.502	6.576	5.975	5.503	5.360	4.704	4.531	4.162	3.451	3.681	3.249	2.671	3.901	3.388	2.993	2.920	2.688	2.483	3.143
350.0	203.7	383.7	865.0	 1575	 2234	 2775	 3027	 2747	 2352	 1936	 1403	 1025	916.4	838.1	751.6	640.6	553.0	493.7	518.4	462.5	272.1	188.3	152.0	209.7	799.1	 2744	 4311	 1932	96.86	8.365	4.990	3.962	3.825	3.224	2.936	3.038	3.158	3.155	3.021	2.591	2.185	2.424	2.306	2.116	2.026	2.016	2.374	2.295	2.974	2.993	4.386	6.143	6.475	7.917	8.151	8.564	8.840	7.750	8.044	7.290	6.520	5.682	5.452	4.572	4.558	3.858	3.180	3.086	3.091	3.075	3.582	3.614	2.951	2.934	2.755	2.525	2.943
355.0	201.2	421.1	967.0	 1673	 2442	 3198	 3313	 3013	 2534	 2137	 1493	 1019	911.6	831.9	767.5	687.9	619.0	557.0	494.3	514.6	442.0	270.6	198.5	174.0	272.3	676.9	 1670	 4755	 1863	110.0	7.695	5.832	5.279	3.815	3.118	2.673	3.208	3.031	1.883	2.246	2.069	2.724	1.495	2.320	1.881	1.971	2.154	2.272	2.937	3.436	4.788	6.591	7.062	8.336	8.635	9.887	10.37	9.613	8.719	7.242	6.919	6.481	5.847	5.607	5.172	3.954	3.205	3.239	3.529	3.027	2.923	3.776	3.425	3.518	3.492	3.261	3.254
360.0	240.5	465.5	 1062	 1814	 2753	 3422	 3527	 3288	 2658	 2187	 1544	 1005	924.0	850.7	812.6	753.8	660.1	612.3	542.4	511.7	531.6	394.6	251.8	207.1	185.0	241.2	449.5	 2295	 5058	 1498	55.41	6.281	5.211	5.618	3.043	2.630	2.726	3.801	2.413	2.155	1.909	2.487	1.530	2.425	1.998	2.531	2.167	2.200	3.379	4.010	4.781	7.720	7.384	8.383	8.987	10.26	10.32	9.524	8.564	8.138	6.633	7.209	5.831	5.056	4.985	4.178	3.650	4.135	3.750	3.755	3.183	4.021	3.108	3.120	4.014	3.202	3.214
365.0	226.4	443.5	 1031	 1859	 2864	 3550	 3606	 3319	 2769	 2245	 1548	998.4	908.3	857.4	840.4	777.0	701.1	660.1	586.9	520.6	516.8	517.1	350.3	248.4	193.1	172.8	181.7	614.1	 3049	 4955	 1077	17.74	5.665	4.421	4.197	2.559	3.111	2.867	1.868	2.264	2.642	1.854	1.930	2.894	2.418	2.380	2.077	2.863	3.774	3.266	5.214	7.107	8.004	9.211	9.778	9.967	10.52	10.12	9.195	8.236	7.513	7.131	5.599	5.310	4.467	3.610	4.005	3.820	3.157	2.754	3.717	3.093	3.727	3.515	3.305	3.850	3.176
370.0	224.9	440.4	 1036	 1830	 2747	 3421	 3573	 3295	 2662	 2244	 1557	 1053	932.2	892.8	873.2	818.3	768.3	728.1	655.6	581.9	528.4	537.0	497.1	335.6	256.9	202.6	161.3	223.3	809.9	 2731	 4127	 1752	76.27	6.390	4.656	3.655	3.058	3.517	2.506	2.945	2.703	2.459	2.261	2.590	2.251	2.551	2.524	2.813	3.831	3.764	5.061	7.014	7.440	9.288	9.523	9.633	9.732	10.37	8.958	7.945	7.652	6.863	5.703	5.224	4.467	3.659	3.782	4.070	2.819	3.299	3.470	3.340	3.671	3.549	3.441	3.520	4.100
375.0	212.4	420.4	 1015	 1783	 2577	 3197	 3477	 3085	 2635	 2129	 1594	 1090	956.1	933.8	902.4	839.6	835.7	768.4	724.0	657.3	597.7	547.8	543.8	511.0	345.4	266.7	203.1	180.1	269.2	671.5	 1678	 4651	 1537	92.74	5.895	4.582	2.939	3.518	2.971	2.512	3.100	2.500	1.876	2.625	2.863	2.535	2.421	2.978	3.796	3.454	4.567	6.013	7.269	9.055	9.215	9.927	9.866	9.900	8.758	7.887	6.755	7.470	5.578	5.806	4.555	3.770	4.158	4.579	3.304	3.006	3.945	3.879	3.266	2.759	3.779	3.178	3.814
380.0	218.6	439.4	914.1	 1669	 2379	 3084	 3188	 3013	 2518	 2108	 1524	 1084	985.2	950.6	915.0	872.3	850.2	791.1	757.5	690.1	636.4	588.8	544.8	568.2	462.9	322.1	248.9	200.4	172.0	230.1	441.2	 2351	 4704	 1232	41.60	6.076	3.971	4.095	3.422	2.907	2.097	2.525	2.503	2.152	2.342	2.386	2.432	3.257	3.502	3.524	4.103	5.978	6.480	8.702	8.415	10.12	9.793	9.272	8.355	7.607	5.673	5.796	5.881	5.391	4.544	4.090	3.480	3.849	3.422	3.912	4.474	4.137	3.725	3.771	4.216	3.381	4.291
385.0	245.6	421.6	828.8	 1566	 2322	 2863	 3035	 2914	 2414	 2000	 1473	 1073	981.6	943.4	933.0	905.3	873.3	825.3	791.5	729.3	686.2	621.3	571.6	566.1	563.6	406.2	303.3	235.2	186.7	151.0	167.5	624.9	 2981	 4372	849.5	15.87	4.339	4.633	3.421	3.109	3.002	3.316	2.721	2.059	2.134	2.576	2.495	2.932	3.037	3.924	4.129	6.630	6.719	7.586	8.031	8.538	9.011	8.580	7.342	7.194	6.227	6.035	5.675	5.244	3.977	3.873	3.833	3.800	3.294	3.777	3.676	3.653	3.037	3.267	4.117	4.159	3.875
390.0	203.6	399.2	828.8	 1396	 2060	 2525	 2700	 2569	 2170	 1874	 1382	 1058	999.9	959.2	944.3	920.7	874.3	840.7	803.6	761.6	720.8	662.3	621.0	572.8	564.9	535.6	396.6	291.9	233.2	175.0	139.9	209.2	788.1	 2450	 3470	 1424	62.93	5.991	3.627	3.445	3.030	3.105	2.500	2.228	2.185	2.365	2.266	2.960	3.605	3.470	4.000	6.020	6.424	6.897	7.540	8.340	8.171	7.434	7.363	6.697	5.981	5.538	5.288	5.168	4.363	3.621	3.961	3.732	3.504	3.427	3.280	3.735	3.572	3.686	3.786	4.265	3.968
395.0	203.7	345.1	725.4	 1243	 1816	 2243	 2472	 2304	 1945	 1694	 1339	 1043	976.1	960.4	942.4	896.3	866.1	852.3	823.8	783.5	751.7	706.1	666.7	619.1	576.8	564.4	523.5	382.8	293.1	230.1	168.4	148.2	244.0	596.1	 1455	 3776	 1216	74.39	5.568	4.251	3.355	3.339	2.869	2.091	2.216	2.320	2.111	2.749	3.309	3.193	3.634	5.440	5.332	6.858	6.138	6.932	7.148	6.908	7.118	6.129	5.562	5.274	5.023	4.626	3.630	4.006	3.961	3.479	3.667	3.546	3.643	3.577	3.971	3.428	3.910	4.433	4.632
400.0	210.3	322.1	672.0	 1207	 1616	 2047	 2185	 2077	 1834	 1575	 1269	 1044	968.1	961.3	935.1	895.3	868.6	847.8	823.2	797.0	775.0	738.9	691.0	649.0	594.3	566.2	554.4	470.5	343.6	262.3	199.9	147.3	135.9	191.9	375.6	 1907	 3715	 1009	35.89	4.707	3.183	3.083	2.804	1.699	2.296	2.950	1.903	2.207	3.145	2.609	3.553	5.093	5.796	6.409	6.526	6.414	7.574	6.417	6.455	5.367	5.092	5.674	4.742	4.063	3.637	4.013	3.837	4.088	3.525	3.569	3.942	3.649	4.096	3.738	3.945	4.553	3.226
405.0	166.0	354.2	654.6	 1016	 1487	 1838	 2004	 1907	 1663	 1500	 1235	 1031	945.1	938.1	909.7	886.0	870.0	847.7	823.8	804.1	788.0	740.9	700.7	657.7	621.4	571.7	539.2	532.7	417.4	305.3	236.0	173.7	132.8	113.4	135.1	499.1	 2289	 3447	713.7	14.17	5.058	3.841	3.674	1.715	2.093	2.592	2.266	2.275	2.915	2.743	3.322	4.723	4.784	5.652	5.521	5.250	7.057	6.206	6.328	5.000	5.214	4.490	5.536	4.177	3.884	3.862	3.461	3.838	3.983	3.614	4.263	3.583	4.049	3.865	4.687	4.197	4.111
410.0	161.6	293.9	573.0	862.1	 1270	 1596	 1755	 1669	 1530	 1368	 1162	 1001	923.7	939.4	904.0	869.2	843.2	826.6	799.6	791.0	774.3	746.0	712.7	682.1	639.0	589.4	550.1	519.7	488.7	385.2	278.8	214.9	162.4	120.2	96.04	156.1	596.1	 1883	 2701	 1165	54.87	4.435	3.668	2.864	2.332	2.689	2.483	2.741	2.884	2.730	2.998	3.762	4.717	5.488	5.242	5.197	5.797	5.710	4.977	5.160	4.802	4.623	5.379	3.699	3.481	3.789	3.642	3.356	3.832	3.966	3.845	3.665	3.898	3.820	3.293	3.946	4.175
415.0	165.3	231.5	498.4	793.0	 1155	 1338	 1507	 1472	 1361	 1283	 1076	957.9	918.1	874.9	863.4	829.2	830.3	783.0	766.7	780.4	757.2	727.8	707.0	681.6	644.9	606.1	555.5	518.2	485.9	462.2	349.2	256.3	197.7	149.0	107.3	95.79	173.7	450.1	 1056	 2841	 1069	68.58	5.331	4.093	2.584	2.858	2.562	2.288	2.525	2.257	2.591	4.048	4.264	4.333	4.267	5.653	5.711	5.137	4.524	4.642	4.641	4.124	4.215	4.520	3.825	3.766	3.479	3.117	3.257	3.771	3.792	3.736	4.057	3.685	3.292	3.349	4.026
420.0	158.0	228.9	458.7	720.9	991.4	 1192	 1354	 1340	 1272	 1138	 1023	960.5	903.6	885.4	850.4	800.5	790.4	770.8	752.0	746.0	727.1	718.7	699.4	667.6	646.7	601.1	561.9	529.3	477.6	472.4	405.4	290.7	215.1	163.8	121.3	93.40	90.41	135.6	265.7	 1353	 2940	894.8	33.07	4.050	3.121	2.719	2.280	2.273	2.354	2.575	3.092	4.249	3.886	4.271	3.689	5.103	5.707	4.774	5.004	4.311	3.736	4.220	4.222	4.264	3.918	3.390	3.558	2.752	3.595	2.802	3.387	4.039	3.875	3.442	2.967	3.563	4.945
425.0	193.9	248.0	413.0	682.5	946.7	 1131	 1231	 1248	 1225	 1089	 1030	933.5	888.2	852.4	833.5	773.7	759.4	757.8	734.1	712.8	707.7	705.4	680.3	656.6	642.9	598.9	570.1	534.6	491.4	455.3	439.7	327.7	242.8	180.3	139.4	103.2	82.48	73.83	87.33	347.0	 1724	 2746	603.1	11.10	3.776	3.285	2.271	2.796	2.584	2.232	2.747	3.584	3.848	3.809	4.046	4.663	4.697	4.118	4.779	4.016	3.960	3.829	4.022	3.203	4.083	3.417	3.511	3.109	3.122	3.264	3.511	3.043	3.277	3.436	4.023	3.291	3.401
430.0	170.1	222.1	379.0	601.9	855.4	 1027	 1107	 1123	 1113	 1050	965.1	898.7	859.5	817.3	781.4	745.3	729.4	715.9	697.4	690.5	687.5	672.8	655.1	642.1	624.2	593.6	569.3	532.8	493.1	450.9	414.4	382.6	291.4	208.0	161.7	122.0	94.13	72.13	57.69	104.9	439.9	 1422	 2133	593.4	52.16	4.197	2.624	2.799	2.668	2.090	2.568	3.212	3.354	3.533	3.825	4.285	4.251	4.072	4.121	4.010	3.281	3.949	3.693	3.376	3.857	3.078	3.080	3.078	3.541	3.662	3.315	3.374	3.417	3.086	4.272	2.990	3.550
435.0	205.6	221.4	365.8	544.2	719.1	917.3	985.9	 1053	 1045	 1010	915.9	885.4	857.2	791.6	765.7	724.9	690.7	674.1	676.9	660.1	656.0	636.6	628.7	620.4	603.6	586.9	563.5	529.7	491.3	450.3	409.8	381.7	343.8	249.8	186.2	143.9	110.0	85.06	61.12	60.18	123.5	337.7	837.6	 2257	974.8	67.75	4.185	3.360	2.771	2.332	2.629	2.831	3.004	3.713	3.714	3.863	4.124	3.931	4.242	4.264	3.938	3.906	4.085	3.241	4.065	3.178	2.861	2.889	3.264	3.844	3.249	2.842	3.916	3.479	3.356	3.137	3.075
440.0	147.9	183.7	334.4	558.1	680.4	792.4	921.1	995.9	990.0	991.0	931.8	862.7	839.3	766.7	753.3	698.0	669.3	643.5	654.0	633.5	629.0	630.8	606.6	598.6	590.3	567.1	549.9	533.2	496.8	461.8	411.3	370.7	345.3	288.5	206.7	158.8	122.0	93.96	72.32	56.83	59.50	99.97	210.8	 1132	 2494	825.0	30.99	4.162	3.201	2.493	2.205	3.654	3.089	3.298	4.072	4.450	3.893	4.274	4.108	4.246	3.611	3.882	3.903	3.845	3.676	3.042	2.973	2.983	2.841	3.704	2.653	2.849	3.166	3.543	2.749	2.972	2.895
445.0	137.2	231.9	336.7	506.1	659.9	782.7	889.4	923.1	950.3	963.7	915.3	854.0	803.9	757.5	703.2	678.4	631.7	619.9	630.3	608.9	611.6	596.3	584.8	584.8	575.5	557.3	538.6	520.4	493.3	458.5	417.7	367.8	328.7	301.7	238.7	169.3	133.7	103.3	81.55	60.70	49.23	50.15	68.09	291.1	 1460	 2452	547.1	12.97	2.540	2.287	2.023	2.834	3.217	3.032	3.436	3.592	3.540	4.397	3.997	3.733	3.773	3.348	3.778	3.529	3.575	3.153	3.080	3.118	3.212	2.928	2.939	3.463	3.244	3.722	3.164	3.609	2.311
450.0	162.7	255.5	337.0	439.8	588.0	720.9	786.4	858.6	890.8	910.1	861.4	814.2	750.5	736.1	668.6	641.6	597.1	576.7	572.7	562.3	560.8	554.9	554.3	551.1	542.9	525.4	510.5	500.3	482.8	451.4	414.8	364.6	322.5	289.6	261.5	202.7	149.5	117.5	91.49	72.59	55.25	45.81	41.37	85.69	371.9	 1277	 2030	916.2	41.57	3.534	2.725	3.405	3.364	2.889	3.467	3.194	3.099	4.173	3.864	3.457	3.621	3.462	3.447	3.362	3.430	2.964	3.194	3.214	3.171	2.711	3.119	3.064	3.263	3.273	3.328	3.037	2.478
455.0	126.2	219.6	391.2	420.7	526.5	663.1	734.5	758.9	829.8	807.6	808.1	758.4	732.1	701.9	640.7	604.1	557.1	532.7	513.4	519.9	514.0	509.5	518.0	507.5	507.8	484.9	478.9	472.9	445.8	437.0	400.4	356.9	314.9	270.8	244.9	224.1	174.6	127.8	102.9	81.99	66.81	53.78	42.28	44.25	101.3	300.0	758.0	 2163	790.5	46.29	3.958	3.001	3.483	2.904	3.276	3.203	3.204	3.611	3.522	2.601	3.729	3.527	3.311	3.078	3.478	3.138	3.340	2.623	3.210	2.843	2.736	3.697	3.153	3.175	2.926	3.454	2.934
460.0	154.6	182.7	432.3	481.6	486.4	592.7	687.0	741.0	778.4	772.7	799.9	738.6	711.8	643.4	608.1	562.7	516.5	499.0	490.1	489.6	487.3	479.3	486.8	475.9	477.6	466.4	453.1	446.0	434.2	415.3	387.8	344.9	309.9	267.7	231.0	218.7	193.2	140.6	107.6	86.53	70.31	58.22	46.05	36.58	43.58	85.11	187.6	 1044	 2194	583.8	25.13	3.843	4.071	3.285	2.745	2.966	3.416	3.007	2.881	2.906	3.491	3.211	3.154	3.459	2.889	3.085	3.622	3.198	3.286	3.086	2.846	2.943	2.706	3.412	3.140	2.480	3.141
465.0	170.9	183.0	390.7	517.0	482.9	558.0	618.9	702.5	705.4	720.0	717.9	705.4	671.0	610.8	564.2	534.1	495.4	470.7	466.7	460.9	445.9	446.4	444.4	445.0	444.2	442.7	430.4	424.3	411.5	398.4	367.3	335.4	302.0	260.9	224.3	203.0	199.0	154.4	116.4	90.52	76.06	61.34	50.19	40.12	33.85	37.81	56.55	264.5	 1305	 1969	446.0	8.903	4.527	3.208	2.594	3.666	3.167	3.695	3.225	3.165	3.990	3.189	3.011	3.622	3.475	3.282	3.208	3.325	3.459	3.488	2.778	3.372	2.462	3.101	3.119	2.670	2.963
470.0	138.3	183.7	280.3	593.6	595.7	505.8	575.8	624.0	652.2	672.5	649.6	657.5	612.9	565.7	524.5	483.0	451.2	423.7	415.1	408.6	405.8	401.8	402.8	398.1	397.3	397.4	385.9	384.3	380.1	363.3	340.9	311.7	279.6	244.3	217.7	189.3	175.6	161.7	127.7	95.74	79.47	65.73	52.09	40.98	34.50	30.22	30.03	72.95	329.9	 1079	 1492	455.0	33.25	4.119	3.572	3.413	3.336	3.015	3.185	3.051	3.546	3.376	3.004	3.304	3.290	3.051	2.948	2.787	3.254	2.773	2.797	2.921	2.934	3.109	1.992	2.329	2.452
475.0	178.9	180.0	238.3	460.7	824.4	502.9	496.5	530.7	587.8	632.6	621.7	602.1	566.2	519.8	481.6	429.3	411.5	380.3	373.0	375.0	371.4	361.9	354.9	357.5	353.9	353.7	350.1	346.6	340.8	329.5	309.9	289.0	264.0	236.0	209.1	179.0	162.2	148.5	136.5	108.3	83.03	68.87	56.02	46.16	37.45	33.27	25.16	33.24	86.70	252.2	577.2	 1449	649.1	36.86	4.023	3.208	3.404	2.917	2.782	3.217	3.075	3.546	2.910	2.786	3.170	2.742	2.682	2.437	3.013	2.654	2.919	2.925	2.340	2.184	2.835	3.369	2.990
480.0	170.1	183.5	225.0	345.5	783.7	665.3	462.0	509.9	561.0	576.6	603.1	562.7	529.0	496.5	449.1	403.7	378.6	356.7	344.9	344.4	338.8	322.4	327.2	331.4	327.5	334.0	317.7	324.5	318.6	312.0	299.3	272.8	247.6	222.9	197.4	176.7	157.5	135.4	132.4	118.3	89.23	73.00	59.36	46.52	40.49	33.18	26.85	25.14	33.59	67.16	142.6	736.3	 1530	502.4	12.45	4.044	3.863	2.729	2.855	3.130	2.334	2.561	2.368	2.324	3.013	2.451	2.864	2.828	2.406	2.387	2.299	2.379	2.370	2.705	2.790	3.045	2.230
485.0	135.4	159.8	192.1	281.8	587.0	902.7	451.2	491.4	521.5	536.7	559.1	543.0	478.6	450.9	408.0	389.6	355.2	333.4	311.4	316.1	310.7	299.1	315.8	310.1	304.9	298.5	301.3	309.4	299.5	292.3	280.5	254.9	240.0	217.6	189.7	171.5	151.5	132.0	121.4	118.7	96.60	73.14	60.53	49.99	41.31	35.99	29.41	25.99	22.90	27.74	42.77	191.0	971.9	 1410	99.67	6.292	3.644	2.756	2.496	2.915	1.926	1.987	2.704	2.504	3.213	2.693	3.507	2.372	2.043	2.396	2.408	2.266	1.979	2.550	2.182	2.190	2.644
490.0	119.3	155.5	209.6	278.6	405.6	905.4	699.7	451.1	488.7	495.0	506.2	500.1	466.3	430.2	385.8	358.6	331.3	309.7	296.8	288.8	282.8	277.3	282.8	274.9	276.4	272.1	275.9	278.2	271.7	267.8	257.8	243.9	222.3	200.2	180.4	162.4	143.6	126.3	113.2	108.4	102.2	82.91	61.92	52.66	44.08	38.01	31.01	26.92	22.69	20.59	21.55	53.15	250.4	798.5	993.2	426.4	29.33	3.892	2.847	2.941	2.642	2.642	2.586	2.868	2.654	2.543	2.740	2.134	2.331	2.341	2.363	1.993	1.846	2.448	2.300	2.415	2.701
495.0	119.9	145.1	213.1	248.2	330.0	607.3	 1053	474.3	449.2	472.2	460.0	461.2	430.3	401.5	349.7	329.9	295.1	289.3	254.7	265.2	249.5	251.8	247.6	246.1	243.7	239.6	243.7	244.4	242.0	243.3	231.3	219.3	205.0	190.8	170.5	153.1	131.4	122.5	107.3	98.29	95.31	90.38	70.69	54.14	46.95	39.45	33.92	28.41	24.33	19.92	17.73	22.99	64.94	187.4	480.0	 1372	612.4	24.34	3.663	2.644	3.364	2.557	2.571	3.307	2.478	2.718	2.532	2.778	2.489	2.463	2.585	2.017	2.068	2.271	2.556	2.267	1.905
500.0	130.5	132.2	168.8	265.7	295.0	386.1	 1033	699.1	404.1	422.5	427.0	429.7	401.3	366.6	324.2	299.5	274.2	260.3	244.1	243.0	229.2	232.7	234.7	228.5	221.1	222.8	222.9	226.7	222.0	224.4	217.0	206.4	191.5	178.3	161.2	147.4	126.8	114.5	103.9	94.47	83.74	86.37	75.06	54.46	45.60	41.97	34.22	30.34	24.89	21.22	18.46	17.54	24.67	51.51	120.3	751.8	 1460	115.3	9.458	2.815	2.786	2.779	2.893	2.293	2.706	2.191	2.397	2.229	2.643	2.516	2.199	2.285	1.970	2.681	1.951	2.410	2.278
505.0	121.2	119.9	197.0	217.2	259.7	289.8	732.0	 1090	410.3	370.5	401.7	414.5	375.1	333.7	309.7	276.3	248.8	241.4	217.0	229.5	217.3	211.2	208.4	215.5	206.3	204.9	208.3	208.0	205.8	210.7	200.9	186.0	178.5	162.2	150.2	131.9	121.9	110.5	98.91	87.98	80.26	78.67	74.45	58.51	46.22	40.69	35.35	31.48	26.40	22.35	17.43	15.86	14.57	20.82	33.85	196.7	 1004	 1239	97.06	3.857	2.720	3.235	2.607	2.508	2.236	2.980	2.125	1.837	2.232	1.956	1.920	2.603	1.326	2.401	2.000	1.741	1.932
510.0	120.7	147.5	181.0	224.3	254.4	267.8	398.4	 1106	752.8	354.9	368.5	360.9	335.6	307.5	281.3	244.3	228.7	214.9	200.1	194.6	194.4	185.8	185.5	182.3	180.0	183.6	182.0	183.8	181.6	182.7	179.2	170.3	159.5	146.5	132.9	120.9	111.7	99.84	93.18	81.27	75.11	67.14	65.46	60.59	50.33	40.65	34.31	30.94	26.67	22.56	18.99	16.44	14.14	14.22	15.60	50.74	261.9	788.0	942.5	361.1	20.88	3.334	2.351	2.636	2.309	2.446	2.558	1.984	1.990	1.776	2.110	2.071	1.401	1.812	2.051	2.055	1.960
515.0	123.8	148.2	135.7	211.7	220.8	217.5	267.6	595.0	 1215	412.6	325.8	326.6	293.7	282.9	244.8	227.7	205.1	180.5	168.6	174.0	162.7	162.1	161.2	158.3	160.4	159.2	158.5	162.0	160.6	160.5	158.4	150.8	141.5	130.0	119.9	109.5	98.87	91.35	85.02	75.80	68.25	60.07	52.39	54.26	53.70	42.20	34.28	29.17	25.92	22.24	18.60	16.54	14.36	12.88	10.77	18.35	64.49	182.4	473.0	 1146	453.0	14.10	2.171	2.861	2.204	2.097	2.149	2.058	1.915	1.797	2.013	2.291	2.114	1.687	2.225	2.262	2.223
520.0	101.3	122.4	141.0	160.9	194.7	248.7	225.8	363.6	 1134	771.7	310.8	296.9	268.0	260.4	228.3	204.2	178.9	164.7	157.8	164.5	152.6	146.9	146.7	140.1	141.7	139.0	140.9	143.0	141.8	143.0	145.9	132.6	128.5	117.2	109.3	100.7	90.51	83.33	79.90	70.58	64.85	57.62	49.12	48.45	52.01	45.87	35.95	28.70	25.26	21.91	17.98	16.19	14.20	11.34	10.81	10.71	20.18	46.40	117.5	667.2	 1089	105.0	5.199	2.531	1.941	2.005	1.904	2.258	1.481	1.879	1.436	1.853	2.751	2.066	1.850	1.842	1.566
525.0	156.1	102.3	158.6	190.3	204.5	228.7	204.9	259.7	707.3	 1189	309.1	282.8	259.4	238.9	208.9	182.3	167.6	157.3	144.3	148.1	135.4	130.3	138.4	129.8	124.9	129.3	127.8	132.0	128.0	133.9	131.1	126.0	115.8	106.0	97.66	92.75	82.22	78.90	72.55	63.12	59.30	53.61	47.03	44.40	44.49	44.59	37.25	27.41	23.91	22.09	17.75	15.18	13.57	11.22	10.98	8.341	10.71	16.20	31.35	178.4	783.2	828.2	79.30	3.470	2.779	2.393	1.814	1.898	1.359	2.115	1.583	1.564	1.874	1.977	2.183	2.201	1.984
530.0	136.2	114.0	113.1	151.1	170.9	201.0	184.9	226.8	343.6	 1123	768.2	246.3	212.0	211.2	182.5	165.8	152.6	141.7	130.2	124.2	117.9	119.0	115.2	115.7	113.0	114.4	111.6	114.9	114.3	115.3	114.6	108.0	101.4	93.38	86.67	81.38	74.92	70.87	64.79	57.64	54.06	48.76	43.50	39.34	38.53	39.70	37.60	30.42	23.20	20.12	17.29	14.36	12.58	11.41	10.01	8.134	8.108	9.215	11.34	44.16	206.7	580.8	710.9	243.9	11.06	2.489	2.271	1.878	1.616	2.111	1.499	1.866	1.491	1.678	1.869	2.264	2.188
535.0	110.3	131.9	118.9	128.2	162.4	184.4	187.8	183.1	231.7	521.4	 1307	328.5	181.7	189.6	159.4	147.4	131.7	122.2	113.2	113.0	101.1	103.1	98.65	100.5	97.15	101.5	94.95	95.89	99.09	95.93	99.10	96.06	88.70	83.44	77.35	70.26	67.65	61.93	59.87	51.04	47.52	43.57	39.36	34.49	32.90	32.19	33.80	31.16	24.60	18.70	15.94	13.65	12.59	10.83	9.620	8.376	7.507	6.752	6.528	13.63	50.44	134.1	362.1	799.7	109.3	7.107	2.229	1.753	2.018	2.246	1.903	1.927	1.667	1.733	1.359	1.624	1.635
540.0	127.4	148.9	115.3	115.3	149.9	158.5	193.0	176.4	189.7	278.8	 1176	699.0	171.3	154.3	146.9	126.5	118.4	111.9	102.0	100.7	92.95	91.03	88.36	90.14	86.25	87.16	86.44	85.65	85.15	88.35	88.64	84.70	79.10	73.18	69.82	64.43	60.90	55.12	51.34	47.74	41.99	38.50	36.82	30.92	29.67	29.14	29.14	29.56	26.11	18.62	14.96	12.99	10.89	10.64	8.961	8.110	6.786	6.817	6.054	6.373	14.78	33.65	91.11	486.5	698.8	89.60	3.406	2.212	1.906	1.648	1.800	1.704	1.688	1.880	1.502	1.672	1.623
545.0	101.8	120.7	109.1	88.95	121.9	133.0	185.6	177.6	170.2	199.0	658.8	 1170	196.6	144.6	135.3	114.3	104.5	98.28	95.35	82.70	81.40	82.35	78.49	75.90	78.95	77.20	77.05	74.96	77.04	76.22	78.54	74.57	69.62	64.95	61.38	57.67	56.37	48.50	46.22	42.83	39.22	36.59	33.08	29.32	27.83	26.48	22.87	25.89	24.79	19.05	14.56	12.63	10.48	9.803	9.120	7.691	7.372	6.176	5.733	5.474	6.980	10.58	23.33	132.9	567.1	573.0	55.87	2.471	1.992	1.939	1.550	1.442	1.643	1.805	1.545	1.414	1.585
550.0	134.6	130.2	109.0	110.3	110.0	124.0	146.9	170.7	142.9	155.2	278.5	 1064	637.2	125.1	111.1	100.7	90.38	86.49	80.18	77.39	73.65	72.28	68.42	64.74	66.62	65.38	65.80	66.29	65.89	65.25	66.89	63.01	59.09	54.36	50.53	49.33	45.95	41.68	39.20	36.87	34.38	32.08	29.05	26.24	24.47	22.57	20.99	20.82	21.39	19.21	14.66	12.31	10.65	9.190	8.695	7.516	6.983	6.881	5.493	5.155	5.148	4.769	7.806	32.17	153.2	417.0	473.7	68.36	6.167	1.843	1.369	1.421	1.625	1.577	1.768	1.570	1.611
555.0	116.6	111.5	105.4	108.0	111.2	106.8	122.3	157.1	137.6	123.9	155.7	425.0	 1195	217.4	97.85	84.16	72.90	69.98	67.65	63.25	59.61	58.80	58.84	54.74	56.98	54.35	54.56	50.84	53.21	54.19	50.36	52.43	47.86	45.49	43.79	40.64	37.93	35.02	33.38	30.94	29.82	26.26	23.92	22.15	21.64	19.02	16.97	16.35	15.05	16.05	15.92	11.75	9.038	7.955	6.946	6.634	5.622	5.299	5.815	4.706	4.176	4.065	4.378	9.452	36.65	96.89	267.6	503.5	96.11	3.480	1.411	1.338	1.699	0.923	1.704	1.589	1.371
560.0	110.7	93.96	109.0	116.4	120.3	96.43	94.70	125.7	131.3	117.5	123.8	186.8	 1032	590.8	80.13	72.39	61.36	61.42	57.01	53.83	51.20	51.62	49.19	46.95	46.13	49.06	45.72	45.36	45.04	45.30	44.13	45.40	41.69	38.32	37.12	32.53	32.78	30.13	28.48	26.34	26.52	22.64	20.62	19.53	18.26	16.04	14.49	13.53	12.90	13.56	14.66	10.80	8.864	7.580	6.476	5.863	6.168	5.471	5.396	4.907	3.706	3.399	3.071	4.190	9.884	23.53	69.43	337.7	435.0	66.78	2.255	1.806	1.082	1.215	1.682	1.624	0.810
565.0	113.3	127.3	91.29	93.84	98.29	88.83	90.29	108.1	129.9	109.4	113.1	121.7	531.3	 1039	93.90	64.19	58.26	51.88	49.25	45.88	46.54	45.04	40.81	42.56	38.17	38.48	39.72	39.82	38.82	38.06	37.91	38.32	35.19	34.03	33.63	28.06	29.07	24.90	25.36	24.04	22.49	19.84	17.94	18.01	16.51	13.93	13.45	12.39	11.44	10.32	11.84	10.85	8.235	6.864	5.960	5.617	5.270	5.192	4.829	4.473	3.427	3.535	2.858	2.621	3.967	6.896	17.42	97.71	372.6	326.6	31.88	1.869	1.566	1.319	2.068	1.214	1.770
570.0	110.9	104.9	94.55	110.8	105.5	91.12	91.10	89.96	127.2	110.6	101.7	91.84	193.9	917.0	505.8	55.33	48.83	46.27	41.21	37.53	38.48	38.28	35.15	33.36	32.99	32.17	32.79	33.05	32.45	31.51	31.05	31.05	29.90	27.64	26.76	22.96	23.43	21.04	19.24	19.26	18.81	16.54	15.33	14.96	13.41	12.16	11.81	10.94	9.703	8.709	9.276	9.058	8.040	6.928	5.036	5.302	4.892	4.458	4.301	4.027	3.394	3.411	3.320	2.703	2.763	3.103	5.491	23.27	105.2	263.1	215.8	55.64	4.223	1.568	1.846	1.366	1.613
575.0	115.6	123.9	101.0	104.6	64.84	84.45	67.34	80.42	96.34	126.0	91.32	80.22	99.50	342.9	 1010	124.6	42.85	37.71	33.76	30.89	31.08	31.84	30.11	28.05	27.51	26.13	25.88	25.81	27.37	25.97	25.46	25.17	24.19	22.48	21.75	20.20	19.35	17.17	16.54	13.80	14.73	13.26	13.54	13.06	11.11	9.646	9.586	9.343	8.334	7.031	6.776	7.328	7.067	7.718	5.638	4.884	4.089	3.554	4.186	3.870	3.957	3.654	3.091	2.864	2.962	2.624	2.838	6.691	24.88	61.87	149.1	294.0	77.50	2.475	1.128	1.818	1.399
580.0	89.41	121.1	95.22	84.38	56.84	80.56	65.07	62.39	74.27	128.7	88.52	78.71	80.36	129.3	882.6	441.4	38.53	32.55	30.49	25.37	26.04	25.86	27.13	23.16	23.95	25.97	21.33	21.59	24.45	21.03	22.75	21.66	21.18	18.89	18.27	17.72	15.87	15.58	14.51	12.23	12.60	11.12	11.97	10.46	9.690	9.223	7.627	8.337	7.144	6.362	6.164	5.692	6.341	6.746	5.483	5.722	3.804	3.399	3.801	3.548	2.850	2.737	2.944	2.439	2.590	1.783	2.624	2.790	7.017	15.10	39.87	201.4	257.5	43.87	1.489	1.491	2.017
585.0	110.3	113.7	93.31	98.55	78.53	74.06	71.70	55.89	71.97	101.4	111.6	76.85	70.21	75.36	432.2	803.1	59.23	27.03	26.05	23.00	23.92	23.06	20.31	20.63	22.77	19.43	18.34	18.84	19.14	19.01	17.92	18.90	17.52	16.51	16.57	16.07	14.33	13.92	12.87	12.09	11.64	10.52	10.77	9.194	8.119	7.809	7.605	7.131	5.274	5.612	5.418	4.676	5.440	5.245	5.627	4.890	3.212	2.744	2.906	2.732	2.420	3.006	2.711	2.802	2.300	1.606	1.918	2.276	2.638	4.940	9.564	56.80	215.6	191.6	24.95	1.481	1.491
590.0	136.9	98.05	93.94	85.57	83.34	79.76	79.44	70.05	76.94	95.21	113.6	85.66	69.72	65.97	145.9	725.6	354.7	25.66	24.37	21.01	21.06	19.20	17.33	17.96	17.72	16.06	17.51	14.50	15.70	17.08	16.54	16.11	14.86	13.28	13.06	12.69	12.30	11.10	10.39	9.949	9.394	9.577	8.378	7.532	7.058	7.001	6.024	5.833	4.769	5.031	4.818	4.080	4.309	4.674	4.758	5.360	3.614	3.373	2.649	2.979	2.497	2.574	2.296	2.667	2.187	2.355	1.877	2.173	2.531	2.372	3.476	14.08	59.31	151.8	146.5	45.78	2.527
595.0	110.9	105.1	104.6	69.57	75.46	94.16	68.89	72.54	86.60	94.46	109.5	107.1	77.04	60.99	69.16	257.5	736.3	79.68	21.52	18.00	16.64	15.80	14.63	16.96	13.12	15.43	13.90	13.65	13.21	13.88	12.39	11.69	12.37	11.44	11.93	10.11	9.881	8.616	8.111	7.631	7.712	7.638	6.887	6.538	5.883	6.018	6.008	5.161	4.523	4.279	3.685	3.611	3.629	3.349	3.945	4.623	4.054	3.081	2.702	2.817	2.444	2.154	2.282	2.538	2.368	2.352	2.023	1.925	1.836	1.760	2.004	4.073	14.41	35.60	85.68	184.2	54.16
600.0	113.8	119.9	108.8	64.19	77.64	77.67	73.64	86.17	81.42	101.8	106.1	115.7	86.10	60.91	53.84	83.74	645.3	292.6	19.21	16.03	17.09	13.10	14.87	13.20	12.04	13.17	13.13	13.47	12.39	12.78	11.64	10.35	11.27	9.579	9.832	8.861	8.251	7.689	7.826	7.338	6.432	6.707	6.319	5.413	5.533	5.945	5.344	4.335	3.852	3.569	3.751	3.395	2.922	2.768	3.309	3.836	3.958	3.717	2.422	2.985	2.507	1.647	2.053	2.469	1.955	2.270	1.860	2.253	1.642	2.489	1.519	2.228	4.667	9.098	22.63	119.5	130.0
605.0	85.41	137.4	101.4	95.85	92.49	80.98	83.21	92.47	101.1	107.7	101.3	122.3	101.2	64.75	45.85	45.25	303.2	572.5	30.50	16.13	14.37	13.42	13.99	10.55	11.13	10.01	11.89	11.64	10.86	10.65	9.618	9.391	9.808	9.374	8.496	8.291	8.927	7.725	7.024	6.403	5.380	6.504	4.589	5.070	4.651	4.270	4.024	3.919	3.358	3.460	2.825	3.135	3.165	2.623	3.073	3.177	3.753	3.158	2.797	3.135	1.927	1.958	1.709	2.266	2.302	1.806	1.907	1.873	2.188	2.066	1.436	2.186	2.530	3.237	6.122	33.89	121.0
610.0	103.3	122.2	87.14	74.81	75.16	73.13	79.26	83.47	89.97	102.3	103.1	113.3	110.1	66.74	47.72	34.95	93.37	500.8	251.3	14.30	13.38	11.93	12.57	9.957	9.952	8.642	9.573	9.500	9.557	8.990	9.243	8.606	7.445	7.634	7.042	7.068	7.148	6.565	6.461	6.501	5.348	5.043	4.850	5.309	3.933	4.436	3.291	3.996	3.633	3.262	2.692	2.826	2.425	2.190	2.642	2.366	2.904	3.150	2.762	2.381	1.886	2.073	2.022	1.878	2.127	2.030	1.953	2.181	1.566	1.817	1.441	1.794	1.497	1.869	2.499	8.723	33.32
615.0	94.57	82.01	107.2	67.87	69.09	79.87	77.11	88.69	87.26	97.40	98.79	103.0	106.8	66.90	43.51	31.72	36.29	174.4	526.8	57.81	10.71	11.29	11.74	9.251	8.526	7.815	8.031	8.620	8.811	10.04	8.173	6.499	7.087	5.904	6.014	5.852	6.148	5.898	5.019	5.044	4.959	3.911	4.459	3.953	4.183	4.307	3.253	3.384	3.206	3.007	2.011	2.738	2.130	2.609	2.467	2.283	2.197	3.077	2.821	2.868	2.109	2.410	1.650	2.257	1.832	1.749	1.615	1.935	1.846	1.313	1.609	1.178	1.485	1.314	1.571	3.272	8.227
620.0	129.5	111.1	115.7	72.12	81.93	60.86	70.50	79.07	82.05	89.19	89.90	101.1	93.75	85.56	43.48	26.81	21.40	53.88	463.4	227.1	10.24	11.00	9.483	9.076	8.057	8.381	7.316	7.772	8.733	8.393	5.875	5.833	7.362	5.115	6.107	5.297	5.695	4.941	4.587	4.210	3.727	3.963	3.249	3.476	3.480	3.573	2.688	2.911	2.596	2.294	1.860	2.604	2.573	2.223	2.368	2.099	2.486	3.069	2.470	2.550	2.286	2.334	1.469	2.053	1.857	1.957	1.546	1.656	1.923	1.547	1.611	0.804	0.937	1.598	1.849	2.077	3.141
625.0	117.2	106.5	90.59	89.90	72.71	67.13	74.39	88.46	91.98	92.21	98.68	86.44	93.40	82.80	47.70	26.01	21.56	22.94	232.8	440.2	21.79	8.597	9.426	8.260	6.712	7.189	6.666	8.449	7.772	6.187	5.850	5.725	4.736	4.557	5.997	5.153	4.983	4.488	4.613	4.392	3.110	3.280	2.861	3.048	2.668	3.663	2.608	2.908	2.501	2.341	1.828	2.546	2.376	1.866	2.816	2.260	2.056	2.324	2.533	3.148	2.311	1.962	1.476	2.503	1.867	2.147	2.525	2.049	2.245	1.307	1.692	1.109	1.281	1.261	1.380	1.088	1.545
630.0	135.0	95.21	92.20	80.93	73.04	64.42	80.73	86.26	92.35	95.94	102.3	86.59	85.64	86.13	48.49	27.83	18.95	15.18	68.01	410.3	195.2	9.042	8.797	8.194	7.328	6.571	7.542	7.248	6.730	5.382	5.381	5.628	4.934	4.503	4.836	5.014	3.792	3.424	4.343	3.780	3.042	3.298	3.125	2.918	2.384	2.822	2.615	2.260	2.154	2.101	1.500	1.944	2.419	1.400	2.206	2.148	2.018	1.540	2.308	2.348	2.296	1.852	1.502	1.694	1.271	1.811	1.825	1.781	1.478	1.437	1.586	1.350	1.715	1.287	1.389	1.277	1.343
635.0	108.1	93.85	83.93	82.36	88.04	72.96	80.12	77.39	84.31	78.85	89.01	83.72	74.56	66.55	60.15	31.48	20.25	12.92	25.04	146.0	417.8	38.90	6.926	6.529	6.339	6.047	6.205	6.276	6.089	5.420	5.496	4.464	4.557	4.539	4.105	4.120	3.312	3.029	4.285	3.680	2.083	2.494	2.820	2.652	2.570	2.026	2.360	2.508	2.033	1.624	1.708	2.250	1.603	1.805	1.991	2.059	2.419	1.921	2.300	1.523	2.261	1.614	1.691	2.052	1.697	1.533	2.176	2.196	1.715	1.356	1.711	1.538	1.486	1.039	1.268	0.919	1.035
640.0	96.68	109.8	98.26	102.2	75.18	54.52	79.01	68.31	82.80	84.53	86.81	88.48	72.02	59.65	54.77	30.18	17.94	11.57	13.78	44.00	384.1	161.8	8.753	5.950	6.141	5.260	5.892	4.647	5.997	4.996	4.686	4.443	4.550	4.354	3.890	2.943	3.262	3.019	3.382	2.673	2.932	2.921	2.598	2.367	2.752	2.049	2.646	2.391	1.874	1.667	1.599	2.343	1.780	1.871	2.193	1.718	1.587	1.696	1.650	1.793	2.155	1.863	1.750	1.865	1.742	1.072	2.044	1.967	2.112	0.869	1.538	1.247	1.114	1.385	1.277	0.815	0.907
645.0	82.87	107.1	92.32	86.44	70.21	62.29	69.18	71.72	85.09	82.99	83.26	80.41	66.70	54.67	58.30	38.03	18.23	12.48	12.43	20.82	194.8	345.1	13.90	6.869	6.036	5.178	5.517	6.111	5.394	4.200	4.501	4.498	4.114	3.773	3.409	3.024	3.338	2.786	3.738	3.065	2.650	2.695	2.241	2.437	1.991	2.375	2.488	1.999	2.179	1.639	1.869	1.995	1.497	2.024	1.906	1.705	1.569	1.808	1.011	1.586	1.567	1.904	1.722	1.472	1.725	1.618	1.480	1.273	1.546	0.990	1.054	1.387	1.279	1.281	1.240	1.325	0.896
650.0	108.5	100.3	107.3	90.55	77.54	48.62	80.69	71.22	83.97	87.39	76.64	75.63	60.48	58.57	49.67	39.23	21.80	14.00	10.80	13.67	64.70	401.7	69.16	6.551	6.255	5.367	6.812	5.428	4.089	3.865	5.111	4.532	3.966	3.638	4.546	2.569	2.820	2.214	3.060	3.076	2.907	2.656	2.025	1.660	2.535	2.560	2.203	2.030	2.128	2.062	1.614	1.612	1.273	1.277	2.117	1.856	1.341	1.402	1.665	1.801	1.558	2.072	2.081	1.469	1.526	1.877	1.671	1.897	1.665	1.129	1.544	1.806	2.011	1.186	1.248	1.358	1.369
