Sample:	'1
File name:	G2025062411黄河二十路.FD3
Run date:	'16:19:57, 06/26/2025
Operator:	Administrator
Comment:	'

Instrument
Model:	F-2700 FL Spectrophotometer
Serial number:	23B8-004
ROM Version:	4J14000 07

Instrument parameters
Measurement type:	3-D scan
Data mode:	Fluorescence
EX  Start WL:	220.0 nm
EX  End WL:	600.0 nm
EX Sampling interval:	5.0 nm
EM  Start WL:	230.0 nm
EM  End WL:	650.0 nm
EM Sampling interval:	5.0 nm
Scan speed:	12000 nm/min
EX Slit:	5.0 nm
EM Slit:	5.0 nm
PMT Voltage:	700 V
Response:	Auto 
Corrected spectra:	Off
Contour interval:	50.000

Peak integration
Integration method:	Rectangular
Sensitivity:	1
Threshold:	1.000

Peaks
No.	ApexEX/EM(nm)	Height(Data)
1	225.0/620.0	64.09
2	230.0/350.0	2853
3	235.0/260.0	289.0
4	240.0/265.0	364.0
5	245.0/270.0	385.4
6	250.0/275.0	515.4
7	255.0/285.0	536.1
8	255.0/560.0	180.1
9	260.0/290.0	550.3
10	260.0/575.0	130.0
11	265.0/585.0	114.8
12	270.0/380.0	1755
13	275.0/310.0	1916
14	275.0/325.0	1877
15	275.0/615.0	135.9
16	280.0/315.0	1880
17	280.0/340.0	1897
18	280.0/625.0	115.2
19	285.0/640.0	90.00
20	475.0/355.0	9.306
21	505.0/275.0	3.061
22	510.0/280.0	3.233
23	515.0/285.0	3.361
24	525.0/290.0	3.343
25	560.0/310.0	9.517
26	570.0/315.0	9.356
27	575.0/320.0	9.747
28	585.0/325.0	9.785

Data points
	220.0	225.0	230.0	235.0	240.0	245.0	250.0	255.0	260.0	265.0	270.0	275.0	280.0	285.0	290.0	295.0	300.0	305.0	310.0	315.0	320.0	325.0	330.0	335.0	340.0	345.0	350.0	355.0	360.0	365.0	370.0	375.0	380.0	385.0	390.0	395.0	400.0	405.0	410.0	415.0	420.0	425.0	430.0	435.0	440.0	445.0	450.0	455.0	460.0	465.0	470.0	475.0	480.0	485.0	490.0	495.0	500.0	505.0	510.0	515.0	520.0	525.0	530.0	535.0	540.0	545.0	550.0	555.0	560.0	565.0	570.0	575.0	580.0	585.0	590.0	595.0	600.0
230.0	63.81	805.0	1405	372.3	20.02	8.122	6.572	6.012	4.901	4.477	4.411	3.640	3.249	2.834	2.391	2.157	1.985	1.552	1.468	1.269	1.303	1.225	1.112	1.070	0.938	0.811	0.892	0.815	0.799	0.760	0.688	0.733	0.688	0.631	0.527	0.547	0.547	0.526	0.475	0.465	0.508	0.560	0.523	0.443	0.438	0.479	1.196	3.554	4.981	3.131	1.213	0.455	0.348	0.355	0.353	0.343	0.386	0.335	0.343	0.394	0.363	0.361	0.357	0.379	0.351	0.360	0.352	0.364	0.377	0.349	0.362	0.354	0.339	0.353	0.373	0.413	0.410
235.0	90.78	249.3	1131	1590	419.3	25.08	6.814	6.962	5.701	4.187	4.150	3.830	3.610	2.960	2.490	2.046	1.800	1.399	1.572	1.377	1.456	1.182	1.125	1.086	0.907	1.048	0.808	0.733	0.781	0.751	0.710	0.743	0.724	0.565	0.527	0.480	0.541	0.620	0.447	0.499	0.446	0.441	0.487	0.653	0.537	0.488	0.545	1.227	2.352	3.969	5.188	5.153	2.442	0.704	0.315	0.325	0.473	0.306	0.367	0.356	0.420	0.382	0.337	0.351	0.427	0.402	0.334	0.390	0.383	0.294	0.341	0.333	0.351	0.397	0.420	0.404	0.392
240.0	144.9	128.0	401.7	1689	1711	315.8	13.46	5.946	6.339	5.566	4.403	3.821	3.488	3.373	2.352	2.084	1.742	1.643	1.550	1.318	1.316	1.214	1.150	1.112	1.031	0.985	0.820	0.985	0.787	0.644	0.725	0.728	0.678	0.554	0.621	0.497	0.630	0.590	0.456	0.511	0.467	0.431	0.483	0.564	0.674	0.566	0.547	0.621	0.820	1.573	3.565	7.797	8.348	5.058	1.613	0.467	0.436	0.373	0.468	0.329	0.396	0.372	0.381	0.362	0.395	0.380	0.466	0.406	0.420	0.335	0.342	0.399	0.379	0.391	0.382	0.474	0.441
245.0	128.1	187.0	142.9	697.4	2191	1626	201.6	8.230	6.868	5.382	4.886	4.075	3.531	3.357	2.453	2.192	1.988	1.757	1.519	1.458	1.371	1.168	1.306	1.163	1.043	1.113	1.006	0.891	0.766	0.651	0.673	0.745	0.607	0.614	0.557	0.587	0.509	0.514	0.498	0.521	0.532	0.501	0.470	0.473	0.595	0.765	0.867	0.728	0.496	0.643	1.142	3.239	7.238	10.37	9.527	4.388	1.179	0.381	0.413	0.446	0.382	0.452	0.396	0.332	0.370	0.354	0.388	0.357	0.392	0.399	0.371	0.414	0.406	0.344	0.371	0.411	0.442
250.0	63.53	160.7	208.5	226.0	813.3	2053	2153	606.6	29.37	6.760	5.673	4.681	4.357	3.513	2.825	2.408	2.121	1.760	1.554	1.462	1.366	1.245	1.207	1.089	0.996	0.977	0.831	0.896	0.821	0.747	0.789	0.760	0.661	0.608	0.578	0.605	0.520	0.507	0.481	0.454	0.529	0.475	0.512	0.480	0.431	0.512	0.640	0.871	0.929	0.799	0.695	1.044	2.075	3.960	7.259	9.901	11.58	9.593	4.563	1.115	0.421	0.391	0.340	0.352	0.370	0.394	0.409	0.362	0.354	0.394	0.358	0.403	0.382	0.385	0.374	0.435	0.437
255.0	44.17	62.70	193.0	265.3	243.2	586.1	2246	2816	289.3	25.36	6.573	6.108	4.619	3.886	3.008	2.602	2.343	2.023	1.501	1.682	1.357	1.373	1.278	1.052	1.095	0.970	0.853	0.932	0.827	0.779	0.863	0.869	0.702	0.577	0.597	0.558	0.583	0.540	0.528	0.418	0.539	0.483	0.412	0.472	0.556	0.442	0.439	0.567	0.662	0.957	1.259	1.153	0.898	1.262	1.954	2.737	5.436	12.93	20.02	15.87	6.153	1.270	0.404	0.385	0.401	0.424	0.381	0.350	0.380	0.373	0.441	0.364	0.396	0.359	0.361	0.401	0.526
260.0	42.00	36.48	91.88	289.0	244.0	182.3	789.9	3329	2314	222.2	14.55	6.855	4.998	4.539	3.498	2.678	2.523	2.228	1.769	1.591	1.352	1.319	1.188	1.033	1.086	0.965	0.909	0.952	0.843	0.901	0.941	0.741	0.704	0.602	0.585	0.570	0.523	0.499	0.502	0.522	0.608	0.488	0.402	0.479	0.477	0.475	0.424	0.430	0.419	0.599	1.082	1.641	1.434	0.990	0.859	0.952	1.664	3.943	10.66	20.31	23.81	14.80	4.202	0.718	0.426	0.443	0.394	0.399	0.366	0.425	0.383	0.393	0.384	0.396	0.354	0.427	0.416
265.0	43.17	29.74	42.60	168.9	364.0	192.9	230.0	1331	4297	1969	162.8	10.25	6.103	4.382	3.905	2.745	2.742	2.161	1.791	1.635	1.524	1.173	1.338	1.107	1.233	0.953	1.049	0.965	1.060	0.881	0.932	0.732	0.678	0.640	0.650	0.614	0.601	0.550	0.509	0.468	0.515	0.486	0.454	0.490	0.447	0.438	0.475	0.408	0.354	0.424	0.616	1.053	1.893	1.921	1.232	0.745	0.914	1.371	3.006	6.782	16.62	26.28	25.07	11.67	2.382	0.566	0.429	0.448	0.334	0.389	0.378	0.397	0.446	0.465	0.344	0.432	0.376
270.0	54.41	48.39	40.96	76.60	227.8	385.4	252.6	365.0	1596	3923	3733	646.1	27.80	6.332	4.502	3.467	2.762	2.585	2.200	1.850	1.740	1.511	1.418	1.210	1.185	1.003	1.066	1.001	1.067	0.934	0.868	0.773	0.690	0.705	0.675	0.619	0.581	0.577	0.559	0.491	0.474	0.491	0.544	0.500	0.466	0.482	0.477	0.459	0.405	0.440	0.452	0.610	0.965	1.408	1.966	2.108	1.799	1.140	1.187	1.936	4.372	8.529	15.82	22.78	25.74	18.73	9.454	2.114	0.473	0.424	0.415	0.446	0.446	0.416	0.464	0.404	0.446
275.0	110.2	108.1	83.58	69.86	116.2	269.8	515.4	274.4	409.6	1075	4084	6040	808.3	20.12	5.869	4.292	3.553	2.999	2.511	2.054	1.751	1.604	1.468	1.277	1.118	1.033	1.179	1.182	1.041	1.025	0.854	0.782	0.817	0.737	0.824	0.721	0.702	0.545	0.570	0.551	0.554	0.500	0.565	0.558	0.657	0.557	0.586	0.678	0.570	0.493	0.487	0.477	0.623	0.864	1.020	1.504	2.631	3.061	2.059	1.099	1.429	2.418	4.036	5.740	9.357	21.00	37.14	29.34	13.30	2.023	0.548	0.440	0.449	0.467	0.389	0.477	0.525
280.0	178.4	188.7	150.3	100.0	102.9	161.0	419.0	408.1	218.1	314.9	1317	6024	5253	136.7	11.50	5.913	4.196	3.419	2.481	2.047	1.846	1.619	1.592	1.439	1.226	1.264	1.286	1.055	0.999	1.035	0.811	0.939	0.796	0.834	0.763	0.852	0.763	0.750	0.678	0.658	0.678	0.705	0.631	0.723	0.760	0.756	0.808	0.854	0.675	0.595	0.501	0.567	0.622	0.690	0.822	0.895	1.444	2.656	3.233	2.526	1.308	1.144	1.458	1.845	2.793	5.969	15.31	31.77	41.65	25.63	8.453	1.092	0.466	0.524	0.443	0.435	0.552
285.0	264.1	291.7	236.4	147.1	103.7	127.8	227.7	536.1	326.5	193.0	413.2	2116	6902	3916	96.56	7.342	4.883	3.873	2.952	2.382	1.971	1.722	1.545	1.430	1.180	1.268	1.168	1.021	1.090	1.193	0.828	0.944	0.873	0.862	0.809	0.957	0.789	0.814	0.799	0.794	0.747	0.776	0.703	0.775	0.932	0.948	1.039	1.041	0.904	0.871	0.677	0.679	0.604	0.683	0.735	0.760	1.042	1.378	2.095	3.361	3.106	1.871	1.148	1.078	1.440	2.120	4.195	9.382	21.47	38.77	34.24	20.04	4.721	0.694	0.520	0.562	0.545
290.0	348.4	400.2	328.0	200.8	124.9	127.9	160.4	293.6	550.3	464.2	281.8	659.9	2289	4966	3509	398.6	20.38	5.335	3.494	2.760	2.200	1.977	1.832	1.533	1.434	1.322	1.160	1.110	1.080	1.103	0.952	0.938	0.910	0.877	0.907	1.048	1.021	0.884	0.909	0.825	0.837	0.865	0.824	0.994	1.172	1.114	1.195	1.364	1.203	1.039	0.815	0.796	0.790	0.718	0.745	0.735	0.944	1.030	1.307	1.732	2.537	3.343	3.334	2.367	1.644	1.560	2.106	3.233	5.935	11.13	17.66	27.25	29.35	28.21	14.39	4.452	0.896
295.0	412.2	497.5	406.5	261.5	170.1	163.2	185.5	227.2	364.8	756.1	667.6	458.9	749.5	1342	3522	5390	540.7	18.07	5.482	3.389	2.551	2.389	2.064	1.608	1.676	1.312	1.183	1.165	1.202	1.208	0.949	0.955	0.911	1.031	1.044	1.065	1.098	1.042	1.019	0.832	0.957	0.926	1.023	1.106	1.200	1.255	1.317	1.573	1.452	1.260	0.959	1.114	1.000	0.835	0.852	0.837	1.042	1.126	1.146	1.336	1.661	1.956	2.830	4.299	4.609	3.240	2.315	2.319	3.067	3.898	5.143	7.209	8.802	18.11	36.36	35.08	22.20
300.0	490.4	600.3	490.8	333.3	230.4	225.0	267.6	322.1	369.7	720.5	1137	782.3	603.1	602.9	1175	4815	4598	85.05	11.80	4.549	3.337	2.748	2.337	1.875	1.644	1.487	1.419	1.397	1.205	1.251	1.002	1.009	1.000	0.947	1.017	1.119	1.041	1.176	0.977	0.944	0.971	0.954	0.990	1.115	1.328	1.426	1.595	1.865	1.744	1.513	1.288	1.287	1.231	1.141	1.150	1.227	1.386	1.388	1.596	1.781	2.023	2.310	2.688	3.505	5.132	5.753	5.120	3.788	3.311	3.074	3.268	3.416	3.739	5.769	12.26	25.21	43.68
305.0	555.4	693.8	605.4	446.6	330.1	349.7	437.5	580.0	729.5	1012	1467	1571	1061	778.4	761.5	1808	5466	3483	67.86	7.498	4.092	3.260	2.503	2.205	1.849	1.533	1.720	1.403	1.242	1.318	1.138	0.986	1.003	0.985	1.038	1.050	1.250	1.288	1.117	1.127	1.045	1.151	1.184	1.308	1.487	1.809	1.801	2.296	2.051	1.737	1.456	1.672	1.413	1.553	1.587	1.655	2.137	2.547	2.799	2.931	3.147	3.616	4.243	4.809	5.480	6.864	8.586	7.890	6.537	5.036	4.729	4.275	4.113	4.346	5.301	8.539	17.71
310.0	637.3	784.2	753.4	553.2	441.5	477.0	613.6	801.7	1008	1290	1583	1916	1695	1141	890.0	902.9	2055	3800	3381	292.3	16.89	4.114	2.959	2.625	2.195	1.810	1.765	1.436	1.330	1.332	1.153	1.057	1.126	1.031	1.058	1.083	1.257	1.260	1.151	1.171	1.137	1.222	1.343	1.330	1.644	1.965	2.100	2.423	2.321	2.071	1.830	2.042	1.771	1.913	2.037	2.172	2.691	3.116	3.443	4.042	4.304	4.786	5.567	6.272	6.747	7.256	8.124	8.991	9.517	8.547	7.251	6.053	5.428	5.640	4.849	5.136	6.981
315.0	738.4	925.5	902.8	689.7	557.4	585.3	725.2	920.5	1116	1397	1659	1836	1880	1651	1093	799.6	1002	1172	2486	4126	432.8	13.72	4.117	3.283	2.783	2.216	1.864	1.677	1.459	1.510	1.333	1.121	1.073	1.047	1.092	1.126	1.176	1.217	1.271	1.161	1.233	1.237	1.468	1.477	1.948	2.196	2.391	2.826	2.690	2.358	2.103	2.495	2.273	2.391	2.486	2.575	3.261	3.514	4.205	4.621	4.761	5.192	5.792	6.777	6.891	7.700	8.395	8.801	8.806	8.798	9.356	9.354	7.089	6.346	5.647	4.840	4.909
320.0	855.6	1105	1105	831.2	644.4	675.9	796.8	980.5	1188	1461	1719	1871	1844	1811	1416	878.5	828.6	605.5	767.2	3179	3556	66.06	8.086	3.919	2.872	2.320	2.099	1.601	1.588	1.486	1.244	1.323	1.131	1.075	1.178	1.126	1.169	1.375	1.270	1.262	1.419	1.392	1.672	1.688	1.985	2.533	2.744	3.151	3.213	2.830	2.414	2.918	2.569	2.747	2.617	2.905	3.468	3.954	4.448	4.727	4.655	5.439	6.172	7.032	7.233	7.987	8.813	8.808	8.515	8.735	8.745	9.747	9.721	8.129	6.550	5.042	5.220
325.0	1015	1363	1343	1078	743.5	721.9	852.7	1010	1181	1451	1700	1877	1811	1687	1619	1050	818.4	516.1	335.2	1001	3557	2778	54.86	6.316	3.361	2.825	2.260	1.877	1.826	1.570	1.345	1.321	1.383	1.126	1.166	1.168	1.245	1.380	1.185	1.323	1.309	1.486	1.608	1.686	1.893	2.733	3.179	3.963	4.182	3.630	3.201	3.471	2.888	2.824	2.801	2.853	3.717	3.984	4.390	4.450	5.058	5.248	6.291	6.938	7.285	7.483	8.669	8.736	8.524	8.760	8.621	8.643	9.374	9.785	8.529	6.422	5.500
330.0	1201	1788	1987	1612	1119	883.7	890.6	1030	1175	1421	1663	1841	1808	1649	1525	1288	972.2	577.0	323.4	384.5	1104	2620	2705	243.1	15.83	3.755	2.914	2.180	1.932	1.799	1.606	1.479	1.346	1.224	1.169	1.113	1.356	1.341	1.345	1.307	1.323	1.548	1.673	1.920	2.398	3.198	4.071	5.150	5.541	5.270	4.712	5.142	4.366	3.959	3.467	3.410	3.778	4.161	4.369	4.627	5.226	5.458	6.061	6.750	6.999	7.541	8.031	8.527	8.827	8.849	8.583	8.280	8.609	8.562	8.341	8.225	7.442
335.0	1390	2189	2582	2236	1671	1173	1002	1107	1215	1440	1687	1859	1878	1750	1558	1333	1268	770.6	453.4	351.2	418.0	718.9	1848	3385	386.0	14.96	3.960	2.780	2.080	1.992	1.650	1.501	1.319	1.269	1.177	1.280	1.354	1.400	1.437	1.404	1.498	1.681	1.916	2.138	3.014	3.609	4.636	6.023	7.070	6.721	6.503	7.518	6.714	6.085	4.767	4.142	4.413	4.453	4.570	4.691	5.266	5.703	6.236	6.654	6.955	7.676	8.231	8.367	8.896	8.908	8.999	8.898	8.456	8.948	8.345	8.589	8.088
340.0	1462	2310	2809	2583	1935	1333	1085	1141	1254	1446	1676	1852	1897	1789	1598	1349	1275	1008	581.6	403.5	313.7	310.0	580.2	2507	2969	293.7	7.772	3.598	2.784	2.013	1.753	1.515	1.403	1.346	1.282	1.321	1.381	1.432	1.472	1.376	1.453	1.736	2.055	2.290	3.116	3.999	4.972	6.536	7.630	7.419	7.520	8.335	7.592	6.795	5.655	4.733	4.647	5.013	4.976	4.924	5.342	5.878	6.383	6.808	7.118	7.461	8.435	8.618	9.034	9.061	9.016	9.198	8.799	8.685	8.280	8.406	7.833
345.0	1514	2302	2851	2691	2047	1396	1146	1164	1253	1427	1632	1792	1856	1767	1599	1354	1201	1079	721.2	472.6	334.8	258.9	262.6	793.7	2839	2395	49.46	5.418	3.631	2.513	2.065	1.497	1.540	1.478	1.299	1.160	1.316	1.483	1.491	1.271	1.445	1.724	1.981	2.352	2.943	4.086	4.847	6.482	7.183	7.634	7.759	8.511	7.671	6.881	5.549	4.907	4.776	4.973	5.122	5.226	5.362	5.725	6.362	6.789	7.067	7.201	7.973	8.509	8.689	8.658	8.880	9.082	8.978	8.951	8.578	8.106	7.635
350.0	1449	2233	2853	2750	2189	1559	1248	1223	1297	1433	1595	1736	1789	1737	1600	1383	1211	1024	878.4	656.9	429.0	315.5	253.5	310.3	875.8	2093	2179	218.8	14.89	3.363	2.438	1.902	1.679	1.435	1.477	1.202	1.321	1.426	1.391	1.339	1.516	1.661	1.968	2.372	2.846	3.890	4.685	6.236	7.092	7.520	7.514	9.018	8.420	7.648	6.143	5.470	5.343	5.443	5.368	5.506	5.744	5.913	6.468	6.578	7.171	7.313	7.710	8.003	8.299	8.636	8.643	9.055	8.794	9.103	8.537	8.509	7.905
355.0	1450	2140	2711	2732	2308	1697	1385	1370	1404	1493	1618	1721	1763	1729	1610	1427	1266	1054	892.1	816.5	598.8	409.1	321.0	263.1	320.3	561.0	1445	2644	345.3	13.51	3.282	2.228	1.981	1.606	1.567	1.321	1.357	1.476	1.218	1.360	1.397	1.609	1.881	2.156	2.833	3.620	4.438	6.029	6.704	7.347	7.200	9.306	8.397	7.998	6.632	5.832	5.715	6.068	5.980	5.606	5.963	6.378	6.761	7.112	6.979	7.613	7.648	8.140	8.228	8.239	8.631	8.752	8.762	9.225	8.569	9.113	8.597
360.0	1378	1983	2614	2637	2280	1770	1484	1456	1473	1559	1633	1712	1750	1709	1614	1444	1293	1095	917.0	834.8	757.4	518.6	383.9	298.6	236.4	232.7	438.4	1961	2420	266.8	7.356	3.233	2.159	1.750	1.544	1.496	1.418	1.319	1.320	1.432	1.554	1.656	1.857	2.136	2.864	3.546	4.553	5.825	6.724	6.948	7.319	8.878	8.492	8.011	7.174	6.028	6.381	6.233	6.330	6.215	6.404	6.801	7.193	7.371	7.182	7.649	7.948	7.721	8.244	8.263	8.301	8.435	8.947	8.976	8.803	8.766	8.601
365.0	1276	1912	2462	2546	2268	1823	1574	1538	1556	1632	1668	1734	1726	1685	1602	1448	1309	1134	955.4	842.4	797.8	659.7	463.7	354.9	262.6	199.5	191.5	621.1	2351	2008	45.82	4.987	2.823	2.167	1.707	1.552	1.675	1.351	1.472	1.366	1.654	1.757	1.849	2.024	2.774	3.304	4.416	5.301	6.219	6.542	7.118	8.615	8.454	8.276	7.378	6.740	6.763	6.442	6.549	6.516	7.035	7.059	7.376	7.474	7.380	7.475	7.548	7.903	7.997	8.093	8.247	8.287	8.659	9.317	8.473	8.640	8.787
370.0	1247	1806	2310	2464	2233	1886	1658	1615	1636	1689	1717	1733	1707	1662	1573	1437	1318	1165	1013	892.0	802.8	755.5	622.4	457.0	341.3	253.7	188.5	236.7	728.2	1808	1887	196.2	12.82	2.981	2.072	1.700	1.643	1.448	1.470	1.372	1.505	1.614	1.810	2.148	2.666	3.229	4.071	5.170	6.005	5.987	6.522	8.179	8.043	8.206	7.405	6.971	6.909	6.814	6.822	7.019	7.163	7.330	7.744	7.713	7.844	7.970	7.807	7.858	7.967	7.995	8.185	8.458	8.480	8.733	8.483	8.512	8.970
375.0	1170	1702	2160	2315	2194	1940	1721	1683	1694	1740	1749	1738	1702	1617	1546	1421	1317	1192	1062	945.9	852.0	770.8	746.1	620.9	443.0	334.8	249.2	199.0	260.1	483.1	1291	2208	294.4	11.08	3.025	2.074	1.939	1.606	1.495	1.479	1.530	1.600	1.863	2.079	2.759	3.332	3.761	4.842	5.682	5.848	6.059	7.891	7.751	7.807	7.309	7.137	7.083	7.087	7.097	7.368	7.346	7.314	7.885	8.017	7.622	7.918	8.311	7.927	8.080	8.082	8.264	8.070	8.068	8.412	8.268	8.229	8.475
380.0	1134	1637	2062	2206	2134	1937	1756	1706	1709	1751	1755	1733	1674	1598	1509	1394	1298	1188	1085	984.4	894.1	810.6	758.7	723.9	546.0	405.2	308.3	226.9	187.8	193.2	387.0	1689	1913	213.8	5.642	2.627	2.063	1.757	1.745	1.528	1.539	1.611	1.674	2.215	2.544	3.300	3.598	4.863	5.419	5.330	5.835	7.709	7.539	8.010	7.367	7.103	7.423	6.995	7.580	7.691	7.437	7.511	7.651	8.244	7.849	7.764	8.092	7.566	7.855	7.977	7.730	8.160	7.991	8.225	8.470	8.194	8.397
385.0	1106	1574	1949	2120	2067	1932	1773	1705	1725	1737	1736	1717	1645	1567	1472	1360	1273	1187	1094	1011	926.2	845.2	781.9	750.5	657.9	484.6	363.8	275.8	207.0	154.6	158.4	532.5	1857	1496	36.21	4.300	2.432	2.064	1.724	1.609	1.623	1.827	1.908	2.252	2.458	3.072	3.428	4.541	5.085	5.104	5.546	7.400	7.270	8.097	7.356	7.004	7.674	7.168	7.641	7.235	7.472	7.722	7.742	8.297	8.186	7.496	7.960	7.689	7.805	7.631	7.854	8.197	7.998	8.164	8.140	8.317	8.240
390.0	1070	1522	1871	2020	2024	1906	1776	1704	1692	1714	1706	1669	1596	1513	1428	1321	1240	1166	1088	1024	953.2	887.8	825.4	767.8	721.9	611.1	451.7	349.9	265.5	192.6	143.1	187.6	572.7	1355	1319	153.0	10.43	2.711	1.952	1.756	1.750	1.606	1.813	2.119	2.428	3.051	3.389	4.394	4.830	4.916	5.446	6.965	6.792	7.399	7.117	6.911	7.337	7.159	7.311	7.599	7.517	7.561	7.664	7.881	7.766	7.467	7.588	7.301	7.546	7.677	7.663	7.808	7.696	8.015	8.011	7.823	8.041
395.0	1051	1433	1751	1896	1955	1842	1778	1711	1691	1678	1664	1630	1542	1469	1365	1271	1200	1137	1074	1021	968.1	918.1	863.1	799.6	734.7	684.8	578.8	431.1	332.0	252.3	182.9	142.1	192.7	358.7	953.4	1555	234.5	8.240	2.623	2.082	1.859	1.702	1.762	2.080	2.435	3.074	3.333	4.181	4.810	4.731	5.119	6.392	6.563	7.247	6.987	6.868	7.338	7.117	7.577	7.554	7.552	7.468	7.536	7.727	7.112	7.320	7.417	7.047	7.596	7.393	7.173	7.413	7.137	7.662	7.443	7.943	7.743
400.0	957.5	1368	1684	1833	1912	1827	1773	1704	1664	1651	1629	1591	1512	1420	1326	1232	1162	1113	1059	1014	972.5	931.9	880.4	826.4	758.5	696.4	647.2	512.0	387.0	300.6	219.9	157.7	127.9	136.0	291.2	1226	1326	37.37	4.807	2.482	1.985	1.871	1.792	2.253	2.570	2.849	3.211	3.988	4.481	4.381	4.718	6.349	6.249	6.753	6.785	6.787	7.291	7.354	7.542	7.343	7.514	7.180	7.422	7.336	7.353	7.043	7.243	6.987	7.132	7.229	7.175	7.183	6.880	7.247	7.102	7.311	7.061
405.0	993.9	1343	1653	1792	1843	1773	1737	1671	1645	1613	1609	1560	1466	1372	1288	1186	1116	1078	1036	995.3	963.1	931.8	895.3	841.6	778.6	708.8	665.2	585.7	445.8	345.2	258.3	186.6	133.8	101.3	113.4	388.8	1335	1007	30.50	3.549	2.262	1.996	1.901	2.099	2.379	2.865	3.328	4.024	4.374	4.413	4.697	6.164	6.225	6.530	7.063	6.940	7.298	7.159	7.280	7.075	7.128	7.371	7.087	7.190	7.167	7.111	6.931	6.933	6.858	6.870	7.064	6.974	6.908	6.681	6.850	6.973	6.930
410.0	944.8	1269	1573	1725	1765	1737	1687	1641	1607	1567	1543	1490	1402	1320	1225	1129	1066	1025	989.5	961.8	933.8	914.8	881.5	844.6	793.3	724.1	664.1	613.6	530.8	404.5	303.3	226.6	163.8	116.8	90.90	130.6	412.7	966.1	953.4	137.4	8.059	2.482	2.067	2.231	2.453	2.893	3.138	3.852	4.179	4.068	4.535	5.777	6.073	6.411	6.598	6.517	6.747	6.932	7.064	7.032	6.821	7.115	7.081	6.954	7.038	6.951	6.819	6.376	6.569	6.703	6.811	6.475	6.602	6.765	6.895	6.817	6.755
415.0	926.0	1205	1469	1616	1677	1683	1652	1589	1553	1509	1472	1413	1324	1256	1159	1061	999.3	964.9	935.2	914.5	889.2	875.6	856.5	832.1	786.8	730.0	665.5	600.0	559.3	477.3	351.7	263.4	195.8	139.4	103.3	84.26	127.9	251.1	687.2	1104	197.0	6.281	2.473	2.494	2.537	2.716	2.980	3.743	4.014	3.952	4.471	5.469	5.788	6.151	6.360	6.312	6.553	6.907	7.010	7.003	7.043	6.619	6.690	6.574	6.554	6.411	6.510	6.258	6.344	6.658	6.426	6.095	6.480	6.415	6.369	6.437	6.356
420.0	860.3	1174	1413	1518	1590	1626	1621	1559	1510	1469	1433	1364	1278	1197	1104	1004	949.1	922.0	894.7	870.3	848.9	840.4	832.0	807.3	770.3	725.7	658.6	598.7	550.5	509.1	395.8	284.7	213.3	158.1	115.9	81.52	72.81	84.63	202.0	863.0	963.7	34.26	4.253	2.762	2.497	2.640	2.990	3.753	3.827	3.603	3.976	5.376	5.477	5.894	6.089	6.267	6.985	6.679	6.610	6.700	6.604	6.816	6.607	6.647	6.478	6.218	5.871	6.072	5.948	6.162	6.150	5.984	6.370	6.388	6.034	5.979	6.210
425.0	835.2	1133	1367	1483	1548	1569	1579	1521	1463	1429	1390	1320	1227	1147	1059	964.8	913.8	878.2	855.2	830.7	820.8	806.0	801.8	779.3	753.9	710.0	655.5	599.2	542.4	504.5	436.5	314.1	231.1	173.7	129.8	91.39	67.51	52.59	68.04	270.0	943.9	740.4	27.63	3.272	2.809	2.568	3.112	3.656	3.743	3.710	4.060	5.103	5.556	5.848	5.998	5.961	6.331	6.836	6.647	6.800	6.200	6.471	6.479	6.434	6.222	6.198	5.828	6.052	5.920	5.813	5.950	5.510	5.929	6.090	5.660	5.832	5.904
430.0	807.9	1081	1294	1425	1483	1523	1555	1491	1430	1381	1340	1259	1170	1085	996.8	912.3	863.7	830.1	809.6	786.5	772.9	764.9	756.7	748.2	723.7	688.4	643.2	595.6	540.9	488.8	439.8	362.6	263.9	195.8	147.8	108.2	79.61	56.32	45.94	81.35	283.6	689.6	580.7	124.3	8.145	2.999	3.021	3.437	3.626	3.598	3.817	4.852	5.335	5.498	5.789	5.870	6.390	6.434	6.557	6.407	6.279	6.240	6.148	6.165	5.998	5.900	5.790	5.776	5.722	5.783	5.672	5.483	5.657	5.689	5.563	5.683	5.602
435.0	940.6	1006	1237	1366	1454	1497	1517	1470	1409	1327	1272	1213	1121	1032	950.1	863.2	813.5	784.9	764.8	746.5	728.3	724.3	714.8	712.0	695.9	667.6	629.6	591.4	544.2	487.1	428.2	377.9	306.1	221.8	167.2	126.8	95.28	67.48	49.99	46.11	82.61	174.7	474.0	898.3	187.4	7.290	3.267	3.499	3.673	3.515	3.736	4.720	5.159	5.276	5.649	5.810	6.241	6.207	6.062	6.260	6.430	5.984	5.945	6.028	5.881	5.556	5.571	5.257	5.453	5.200	5.256	5.166	5.243	5.607	5.488	5.182	5.398
440.0	1079	1029	1182	1312	1415	1474	1491	1464	1383	1300	1247	1168	1073	984.6	911.5	828.7	779.6	751.7	734.0	711.4	694.3	683.3	680.6	679.2	665.6	644.6	613.8	574.6	534.9	484.6	428.4	370.5	325.2	249.0	181.4	139.1	106.7	76.58	56.48	43.11	41.67	55.57	139.7	696.4	840.4	31.78	4.849	3.733	3.428	3.406	3.571	4.883	5.255	5.085	5.327	5.731	6.192	6.310	6.459	6.096	6.347	5.682	5.905	6.085	5.658	5.401	5.214	5.151	5.416	5.289	5.331	4.940	5.197	5.298	5.070	5.020	5.090
445.0	1139	1123	1150	1265	1371	1439	1472	1434	1356	1279	1208	1129	1035	941.2	870.7	795.4	750.4	724.2	693.9	679.0	658.8	647.6	647.8	646.0	634.1	620.7	590.0	562.6	523.9	480.4	425.7	364.4	319.2	270.7	196.3	146.9	115.2	84.25	64.37	47.53	37.07	32.00	45.85	216.1	805.3	676.4	24.97	4.291	3.664	3.360	3.489	4.457	4.927	5.226	5.423	5.864	6.155	6.031	6.195	6.001	6.097	5.924	5.543	5.938	5.414	5.369	5.240	5.137	4.889	4.877	4.931	4.975	4.918	5.115	4.621	4.671	5.107
450.0	969.1	1450	1156	1200	1312	1375	1416	1384	1304	1218	1142	1059	973.1	888.9	810.5	735.9	698.6	672.3	651.0	627.3	608.4	597.2	596.8	595.6	586.9	569.9	552.2	529.8	501.2	464.7	412.9	354.6	304.6	268.4	220.6	163.9	123.7	93.75	72.40	54.31	41.13	32.03	28.63	61.94	238.9	604.6	656.8	115.2	8.019	3.608	3.743	4.481	4.620	4.922	5.279	5.476	5.843	5.861	5.921	5.892	5.774	5.926	5.679	5.490	5.260	4.964	4.850	4.919	5.076	4.687	4.685	4.664	4.464	4.621	4.561	4.381	4.698
455.0	698.7	1572	1358	1137	1213	1284	1321	1299	1221	1125	1060	988.7	899.9	823.7	744.9	684.0	643.3	614.9	595.5	568.7	553.6	542.9	540.7	538.8	538.3	523.8	507.5	490.7	465.8	442.3	394.2	344.7	291.6	251.7	220.0	183.0	134.7	103.3	79.60	62.73	48.03	36.42	28.46	30.84	65.86	150.4	404.9	753.5	157.8	7.599	3.664	4.257	4.369	4.575	4.941	5.042	5.566	5.551	5.847	5.935	5.514	5.457	5.300	5.027	4.978	5.059	4.546	4.534	4.381	4.534	4.350	4.245	4.267	4.203	4.461	4.314	4.508
460.0	577.9	1270	1814	1116	1128	1206	1247	1240	1171	1063	998.5	932.6	846.7	770.4	694.7	636.7	599.2	574.0	553.0	528.6	508.4	496.3	496.9	493.9	494.3	486.7	472.1	460.5	441.2	415.9	378.5	332.5	283.4	240.9	209.8	190.2	146.7	108.0	84.42	67.36	51.83	39.98	31.47	26.26	29.30	45.33	111.6	522.6	672.8	24.51	5.135	4.206	4.262	4.446	4.426	4.779	4.997	5.456	5.523	5.385	5.304	5.196	4.983	4.999	4.784	4.649	4.395	4.303	4.094	4.211	3.796	4.046	3.846	4.174	3.988	4.080	4.180
465.0	523.7	908.0	2037	1339	1062	1134	1168	1174	1098	1014	939.9	869.8	787.8	722.4	649.8	590.4	556.5	531.3	508.6	489.7	469.9	456.6	462.2	455.6	457.8	451.0	443.2	429.9	416.0	393.9	358.5	316.9	272.4	232.3	197.6	180.1	156.4	116.1	88.65	70.57	56.09	43.43	34.67	27.36	22.98	22.74	34.77	153.1	599.8	526.0	22.18	4.646	4.031	4.247	4.362	4.418	4.853	5.183	5.096	5.236	5.012	4.946	4.825	4.570	4.665	4.104	4.146	3.938	3.909	3.719	3.576	3.980	3.965	3.927	3.752	3.724	3.782
470.0	485.6	696.9	1513	1883	1074	1024	1064	1065	991.1	919.1	862.2	790.8	718.2	656.7	588.3	532.1	500.5	476.5	457.1	437.7	416.1	407.2	406.9	404.7	405.2	401.0	392.0	385.2	374.9	357.5	329.7	293.4	254.9	219.4	187.2	163.3	147.8	124.6	93.43	73.42	58.27	46.66	37.32	29.37	23.94	19.62	19.31	43.54	170.8	414.8	467.4	111.4	9.242	4.165	4.195	4.187	4.589	4.690	4.698	4.650	4.750	4.623	4.300	4.277	4.143	3.892	3.838	3.748	3.643	3.529	3.605	3.692	3.526	3.553	3.495	3.247	3.530
475.0	466.4	586.3	897.5	1943	1436	926.9	952.4	957.5	895.0	820.9	771.3	712.7	643.5	586.1	522.9	475.9	447.5	425.0	403.8	384.8	365.7	355.5	357.3	354.4	354.5	349.4	345.1	340.5	332.3	321.0	299.4	266.4	233.2	204.3	174.8	152.0	132.6	121.2	102.5	76.75	60.41	48.53	39.24	32.03	25.59	21.14	17.34	20.30	46.38	100.5	233.2	507.3	159.6	9.863	4.101	4.107	4.421	4.059	4.142	4.206	4.180	4.276	3.799	3.637	3.633	3.616	3.473	3.473	3.291	3.141	3.243	3.468	3.114	3.031	2.909	3.150	3.139
480.0	454.2	560.7	687.4	1445	1915	924.3	882.5	876.2	836.1	770.6	713.3	658.9	593.8	541.6	483.4	435.9	410.9	387.1	369.5	355.9	334.7	324.7	321.8	323.8	322.6	320.7	317.0	311.2	306.4	294.3	276.6	247.8	218.7	193.7	166.4	143.5	122.8	110.6	102.8	81.19	61.88	50.52	41.15	34.20	27.24	22.38	17.72	16.14	19.11	29.49	61.99	286.3	505.4	135.5	6.111	3.858	4.068	3.950	3.956	4.082	4.070	3.780	3.671	3.569	3.428	3.451	3.140	3.055	3.106	3.130	3.132	2.986	3.130	2.839	2.674	2.999	3.015
485.0	431.9	540.9	593.2	948.5	2046	1139	815.2	820.8	770.6	722.0	661.1	617.8	565.4	504.6	453.1	410.6	378.4	357.2	343.7	325.1	309.1	297.5	295.9	298.9	295.2	296.2	288.7	288.6	282.2	273.3	256.8	233.9	207.2	181.9	160.1	137.8	120.1	103.4	96.37	84.65	65.55	51.89	41.34	34.98	28.53	23.95	19.36	15.34	14.11	14.34	20.13	79.87	370.5	468.4	27.28	4.509	3.936	3.727	3.705	3.803	3.836	3.553	3.689	3.610	3.286	3.047	3.193	2.843	2.915	2.894	2.840	2.746	2.969	2.789	2.617	2.641	2.911
490.0	349.6	511.2	548.7	682.7	1437	1733	842.4	742.0	704.0	661.9	608.9	571.5	509.2	461.0	412.5	372.9	343.4	323.5	309.1	292.0	279.4	267.3	264.8	266.9	265.5	263.7	258.3	257.6	254.5	247.5	234.6	214.7	191.8	168.6	148.7	131.4	114.5	98.08	87.14	81.44	72.07	54.75	42.98	35.99	30.59	25.35	21.00	16.74	13.70	11.82	11.66	24.23	100.0	283.0	394.5	119.6	11.64	3.910	3.622	3.474	3.475	3.382	3.303	3.295	3.034	3.026	2.861	2.628	2.598	2.694	2.653	2.693	2.576	2.584	2.466	2.395	2.649
495.0	302.1	437.2	530.8	566.3	819.7	1798	1210	667.8	629.6	596.3	553.4	509.4	461.4	417.7	368.2	330.4	303.9	289.1	276.5	258.7	248.0	237.3	233.8	234.2	232.8	233.1	230.2	229.5	227.0	221.3	211.3	193.7	172.4	154.6	136.4	120.5	107.6	91.33	81.98	72.96	69.14	59.49	44.67	37.34	31.12	26.15	21.50	18.32	15.54	12.07	10.59	12.06	28.00	68.76	177.5	461.4	203.0	13.44	3.539	3.647	3.245	3.071	2.851	2.775	2.832	2.781	2.581	2.544	2.506	2.526	2.333	2.454	2.621	2.341	2.167	2.271	2.504
500.0	278.1	395.9	513.7	508.2	578.6	1318	1688	678.7	576.4	540.1	504.7	466.5	418.1	377.2	340.3	296.6	276.0	261.1	249.8	233.9	223.7	213.5	210.0	212.2	210.4	211.7	207.3	204.7	204.5	199.7	192.2	177.8	157.5	141.5	126.1	113.4	99.46	86.60	77.07	67.57	62.35	59.25	48.47	37.17	31.73	26.03	22.34	18.83	15.96	12.57	10.51	9.631	12.24	20.64	45.88	224.2	496.1	167.8	8.007	3.345	2.957	2.819	2.537	2.756	2.589	2.392	2.436	2.374	2.393	2.163	2.160	2.362	2.431	1.990	2.121	2.108	2.150
505.0	257.5	338.9	469.0	467.5	502.5	828.7	1879	874.1	526.0	490.8	456.3	427.5	386.2	343.0	308.0	271.5	252.1	234.0	223.0	213.8	201.9	193.3	189.8	190.2	187.6	189.2	188.0	187.5	187.5	182.6	176.5	162.5	145.3	130.3	116.8	104.6	92.09	82.53	73.00	63.45	57.12	53.94	49.84	38.97	30.20	25.98	21.91	18.43	15.63	12.74	10.71	9.204	9.025	9.887	14.62	58.61	289.4	469.9	31.75	4.727	3.005	2.834	2.530	2.531	2.414	2.229	2.390	2.292	2.186	1.954	2.119	2.003	2.055	2.030	2.009	1.873	1.828
510.0	208.4	293.3	392.6	459.9	433.1	524.8	1294	1497	551.3	435.7	405.5	379.9	338.9	299.5	270.6	240.6	218.5	206.3	193.4	185.8	174.7	168.4	167.0	163.7	164.4	161.4	162.3	161.7	162.0	158.8	152.5	142.2	128.5	115.7	104.1	93.70	83.20	74.26	65.78	58.51	51.39	47.08	45.52	41.09	31.47	25.50	21.44	18.35	15.56	12.99	11.16	9.337	8.318	7.404	8.031	17.37	74.11	234.2	338.8	129.9	12.27	2.798	2.498	2.225	2.252	2.160	2.099	2.100	1.889	1.877	1.902	1.809	1.869	1.736	1.751	1.834	1.856
515.0	183.8	242.3	307.2	412.0	391.9	409.1	635.6	1690	911.2	381.4	355.5	328.4	295.8	261.0	235.7	208.6	189.2	175.5	167.4	159.6	148.5	142.7	141.6	140.5	138.1	138.1	137.5	135.5	135.6	136.9	131.4	121.8	110.9	100.9	92.34	83.25	74.77	65.56	59.15	52.13	46.36	41.03	38.36	37.77	33.79	26.04	20.79	17.74	15.28	12.76	10.92	9.917	8.147	7.207	6.550	8.210	20.57	55.84	119.7	348.0	207.1	15.40	2.269	2.176	1.994	2.067	2.000	1.871	1.731	1.568	1.868	1.646	1.666	1.661	1.510	1.747	1.548
520.0	164.0	211.0	266.9	368.2	387.4	355.3	422.2	1210	1475	406.3	320.8	298.5	266.8	234.9	210.7	183.8	167.1	156.4	148.7	139.9	131.1	127.5	126.4	123.6	124.2	122.6	122.5	120.8	120.3	121.7	116.6	108.2	100.1	89.67	82.01	74.84	67.40	60.34	54.42	47.66	43.60	38.51	34.10	32.90	33.18	27.31	20.75	17.22	14.51	12.51	10.80	9.817	8.260	7.265	6.347	6.162	8.460	16.05	30.53	148.3	383.8	166.6	8.159	2.135	1.935	1.885	1.842	1.720	1.512	1.501	1.613	1.529	1.416	1.508	1.516	1.288	1.285
525.0	151.4	192.5	233.5	306.9	377.3	319.9	340.6	658.7	1798	623.7	291.2	270.7	237.5	211.9	186.0	169.4	150.3	138.4	134.7	124.8	118.2	115.3	112.1	109.1	111.7	109.7	108.4	108.0	108.0	107.7	103.4	97.44	90.66	81.56	74.98	67.88	61.10	55.02	50.14	44.73	40.34	35.74	31.48	29.26	30.14	27.75	21.50	16.83	14.04	12.17	10.57	9.574	8.279	7.280	5.817	5.766	5.774	6.952	9.963	37.87	192.5	366.8	32.91	4.134	1.917	1.791	1.775	1.732	1.459	1.383	1.333	1.395	1.273	1.334	1.406	1.247	1.351
530.0	130.1	170.9	196.8	249.2	328.3	303.7	279.8	363.2	1215	1328	333.1	230.2	205.3	182.2	161.2	146.7	131.1	121.6	116.4	106.1	100.6	97.92	95.44	94.23	94.60	93.23	93.61	93.66	93.76	93.31	89.72	83.98	77.27	71.21	65.03	59.39	53.30	48.76	43.96	39.64	35.56	31.66	28.58	25.95	24.89	24.71	22.30	17.04	13.24	11.43	9.720	8.771	7.841	7.278	6.141	5.675	5.133	4.822	5.286	11.07	47.84	160.7	223.3	129.8	12.47	1.754	1.586	1.475	1.411	1.374	1.327	1.309	1.202	1.210	1.234	1.209	1.260
535.0	118.6	150.1	176.6	193.7	250.1	297.4	249.2	252.3	503.5	1588	725.2	201.5	175.7	162.4	139.2	123.3	112.5	101.7	98.09	91.23	86.90	82.29	80.69	80.55	79.89	77.54	77.13	77.62	79.31	79.04	76.11	71.61	65.89	60.14	54.81	50.14	45.39	42.63	38.27	34.03	31.27	27.76	25.05	22.88	20.46	20.00	20.51	17.44	13.07	10.57	9.188	8.138	7.505	6.609	6.064	5.439	4.880	4.423	4.132	5.210	13.11	38.02	73.94	258.9	195.8	15.47	1.683	1.440	1.270	1.106	1.232	1.149	1.199	1.108	1.133	1.091	1.073
540.0	105.9	131.5	150.9	170.9	205.4	276.0	233.1	211.7	269.4	1083	1315	218.5	153.8	136.4	122.7	106.9	98.65	89.69	85.41	80.32	77.07	72.11	71.28	69.89	67.70	67.66	67.62	67.14	67.34	68.34	65.24	61.88	57.81	52.74	48.56	44.00	40.48	37.67	34.29	30.37	28.18	24.73	22.71	20.38	18.60	17.26	17.47	17.08	13.49	10.26	8.968	7.718	6.668	6.169	5.628	5.381	4.867	4.172	3.767	3.529	5.282	10.34	18.71	100.4	293.9	150.0	8.016	1.429	1.331	1.100	1.121	1.165	1.167	1.049	0.976	0.975	0.983
545.0	105.0	126.4	137.7	158.6	172.5	241.4	233.8	189.0	197.5	512.9	1652	390.2	138.3	121.0	107.9	95.08	88.51	81.21	76.88	70.57	67.63	62.83	62.12	61.79	60.38	60.00	60.30	58.84	59.40	59.17	57.00	54.90	50.48	46.33	42.82	39.11	36.07	33.67	30.58	27.51	24.90	22.34	20.85	18.69	16.62	15.25	14.59	15.15	14.26	10.30	8.130	7.171	6.428	5.741	5.116	5.200	4.830	3.810	3.618	3.138	3.356	4.234	6.293	24.84	136.2	287.3	33.60	3.185	1.194	1.158	1.005	1.032	1.095	0.980	0.974	0.997	0.946
550.0	97.25	109.6	123.2	127.6	145.3	177.6	223.4	171.9	157.9	230.6	1055	1071	156.9	103.1	90.46	80.91	71.71	66.98	63.04	58.47	55.75	52.13	52.05	51.54	49.33	49.80	49.48	48.80	49.57	49.42	47.90	44.87	41.41	38.43	35.76	33.26	30.17	27.92	25.48	23.11	21.32	19.27	17.84	16.04	14.44	13.08	12.08	11.68	12.27	10.24	7.794	6.495	5.883	5.186	4.808	4.672	4.397	3.845	3.436	2.921	2.806	2.908	3.217	7.197	33.23	121.1	193.0	111.9	11.13	1.191	1.024	0.982	0.916	0.933	0.830	0.861	0.789
555.0	90.76	105.4	104.1	104.6	117.0	131.6	184.9	175.2	130.2	144.9	368.4	1387	432.0	86.87	73.21	65.46	58.61	54.37	50.69	47.82	45.42	41.94	42.52	41.47	39.57	39.24	38.88	38.61	39.86	38.82	38.80	36.46	33.69	30.82	28.98	26.42	24.66	22.77	20.58	18.54	17.43	16.07	14.74	13.24	12.20	10.97	9.846	9.241	9.353	9.251	7.864	5.992	5.130	4.619	4.095	3.937	3.701	3.580	3.338	2.779	2.507	2.371	2.294	3.027	8.785	28.35	60.57	195.6	148.8	12.46	1.088	0.868	0.872	0.928	0.801	0.721	0.780
560.0	88.57	104.3	95.68	90.97	99.72	103.7	142.7	180.1	112.1	111.0	161.8	925.7	948.3	98.85	61.66	54.65	49.59	44.55	43.17	40.40	37.98	36.61	35.96	34.63	33.30	33.24	33.20	33.00	33.02	32.10	32.69	30.07	28.17	26.57	24.18	22.49	20.90	19.50	17.98	16.09	14.94	13.71	12.73	11.67	10.71	9.281	8.687	7.804	7.446	7.642	7.886	6.172	4.756	4.252	3.625	3.720	3.328	3.168	3.342	2.838	2.402	2.175	1.910	2.070	3.325	7.584	14.94	74.53	213.4	106.5	5.352	0.896	0.807	0.774	0.747	0.681	0.815
565.0	95.50	94.09	88.12	83.46	83.87	88.66	106.8	169.6	111.9	95.32	105.0	395.8	1302	156.5	54.48	47.76	42.90	38.27	36.18	33.64	32.18	30.96	30.45	29.64	28.50	28.53	27.54	28.07	28.32	27.49	27.53	25.79	23.59	22.06	21.42	19.10	17.83	16.47	15.22	13.76	12.66	11.60	10.92	10.21	9.447	8.250	7.523	6.704	6.060	6.133	6.759	6.068	4.504	3.767	3.415	3.147	3.227	2.868	2.800	2.648	2.356	2.025	1.720	1.857	2.010	2.868	4.403	18.43	97.61	204.1	33.00	2.261	0.738	0.666	0.668	0.600	0.638
570.0	80.06	88.02	82.75	75.45	72.39	73.58	79.77	128.0	128.4	84.38	84.01	149.3	850.9	729.6	68.95	38.94	34.15	32.09	29.57	26.89	25.88	24.26	24.26	23.41	22.42	23.04	22.37	22.71	22.57	22.04	21.85	20.51	19.24	18.12	16.67	15.70	14.94	13.15	12.30	11.33	10.46	9.697	8.915	8.113	7.752	6.856	6.496	5.777	5.234	4.799	5.049	5.136	4.432	3.598	2.950	2.756	2.690	2.492	2.279	2.445	2.364	2.036	1.670	1.615	1.574	1.756	2.020	5.143	23.74	84.16	139.0	79.91	9.311	0.791	0.672	0.598	0.580
575.0	82.83	83.88	71.50	64.30	61.85	58.35	65.55	85.87	130.0	82.27	70.36	81.65	270.5	1020	249.3	31.81	28.31	26.13	23.63	21.93	20.27	19.78	19.38	18.53	18.26	17.99	18.04	18.08	18.21	17.94	17.16	16.46	15.39	14.28	13.29	12.45	11.61	10.54	10.07	9.368	8.324	7.889	7.345	6.801	6.383	5.596	5.390	4.666	4.245	3.928	3.775	3.859	4.239	3.711	2.712	2.682	2.125	2.097	2.026	2.080	1.957	2.081	1.828	1.520	1.416	1.490	1.532	2.157	6.352	19.71	42.93	132.7	107.9	9.547	0.667	0.628	0.558
580.0	73.63	82.60	71.55	61.28	55.85	54.11	55.73	63.25	119.6	95.41	65.21	64.01	100.9	691.8	628.7	36.57	24.18	21.05	19.78	18.35	17.26	16.46	16.60	15.93	15.56	15.08	15.20	14.19	15.43	15.08	14.96	13.69	12.55	11.74	11.29	10.01	9.711	8.888	8.248	7.750	6.907	6.504	5.907	5.929	5.358	4.975	4.708	4.283	3.809	3.277	3.143	3.146	3.614	3.605	2.831	2.454	2.024	1.740	1.902	1.862	1.707	1.983	1.736	1.586	1.281	1.309	1.347	1.332	2.330	5.338	10.46	50.83	154.3	35.92	3.946	0.634	0.616
585.0	71.00	76.05	66.98	54.41	50.77	50.51	49.30	52.02	91.87	114.8	64.31	60.30	61.07	276.7	905.3	88.80	21.57	18.79	17.06	15.36	15.18	14.47	13.91	13.30	12.82	13.06	13.05	12.39	12.90	12.83	12.62	12.09	11.08	10.71	9.603	8.617	8.086	7.575	7.069	6.636	5.890	5.852	5.233	4.986	4.521	4.295	4.164	3.604	3.367	2.932	2.633	2.649	2.978	3.213	2.804	2.232	1.810	1.872	1.572	1.505	1.625	1.681	1.745	1.612	1.300	1.259	1.154	1.174	1.471	2.271	3.186	12.52	70.40	141.9	31.24	1.457	0.679
590.0	70.28	72.51	62.70	51.18	43.45	44.90	44.34	45.94	64.01	111.3	75.91	57.93	49.81	93.08	585.0	428.6	28.58	15.89	14.10	12.95	12.70	12.12	11.51	11.10	11.00	10.41	10.58	10.11	10.43	10.21	10.34	9.641	8.957	8.519	7.775	7.078	6.749	6.569	5.874	5.451	4.742	4.891	4.424	4.178	3.705	3.649	3.545	2.782	2.753	2.496	2.376	2.151	2.094	2.448	2.686	2.359	1.793	1.715	1.434	1.384	1.268	1.351	1.351	1.691	1.459	1.164	1.162	1.021	1.219	1.240	1.505	3.468	16.98	60.12	103.0	65.51	7.744
595.0	70.19	68.17	56.89	45.78	40.40	38.24	39.38	42.44	49.76	82.98	95.69	58.05	45.69	48.06	176.2	638.8	90.35	12.82	11.07	10.95	10.30	9.231	9.234	8.560	8.415	8.037	8.151	8.341	8.348	8.451	7.869	7.512	7.267	6.731	6.214	5.986	5.394	5.040	4.941	4.483	3.785	3.838	3.687	3.493	3.006	3.011	3.037	2.508	2.357	2.206	1.983	1.804	1.734	1.798	2.013	2.279	1.887	1.400	1.390	1.217	1.088	1.084	1.141	1.260	1.590	1.162	0.987	0.865	0.980	0.983	0.991	1.383	4.451	13.89	31.27	103.9	82.85
600.0	65.69	68.88	58.71	46.63	37.79	35.60	37.81	38.68	47.76	65.40	105.8	63.57	45.78	39.09	61.15	451.5	332.5	15.56	10.39	9.384	8.735	8.202	8.052	7.709	7.242	6.963	6.760	7.001	7.232	7.085	6.870	6.406	5.857	5.706	5.433	4.990	4.515	4.388	4.243	3.772	3.407	3.384	3.039	3.028	2.669	2.709	2.364	2.195	1.997	1.926	1.669	1.664	1.539	1.644	1.611	1.983	1.813	1.431	1.298	1.177	1.069	1.074	1.093	1.092	1.252	1.242	1.022	0.885	0.897	0.986	0.875	0.943	1.474	3.592	7.604	39.96	119.2
605.0	61.23	67.73	55.49	43.38	38.79	35.92	39.32	42.86	49.91	60.92	108.2	84.23	51.41	42.43	38.48	191.6	527.8	45.91	9.395	8.274	7.415	6.793	6.812	6.778	6.290	6.151	5.833	5.995	5.725	6.187	5.843	5.422	5.296	4.922	4.616	4.188	4.008	3.605	3.561	3.215	3.109	2.809	2.598	2.534	2.243	2.354	1.970	1.897	1.683	1.501	1.362	1.460	1.382	1.333	1.323	1.657	1.806	1.592	1.194	1.117	1.099	1.078	0.913	1.030	0.982	1.156	1.221	0.950	0.787	0.864	0.815	0.846	0.899	1.335	2.223	9.711	53.99
610.0	74.76	61.56	58.92	45.41	37.66	37.91	44.86	52.61	64.84	76.21	109.1	122.5	78.29	57.95	47.27	76.40	389.7	252.3	12.51	7.038	6.104	5.500	5.596	5.404	5.007	5.062	4.854	4.903	5.105	4.896	4.891	4.432	4.332	3.807	3.565	3.390	3.328	3.122	2.858	2.499	2.505	2.410	2.254	2.134	1.903	1.954	1.780	1.665	1.516	1.356	1.211	1.229	1.213	1.217	1.122	1.193	1.443	1.627	1.213	1.083	0.981	1.068	0.916	1.046	0.989	1.077	1.338	1.244	0.992	0.880	0.799	0.838	0.798	0.887	1.020	2.696	13.16
615.0	71.96	62.79	56.74	44.23	34.80	40.36	47.06	54.70	72.44	86.07	102.6	135.9	100.6	67.18	53.25	47.41	140.7	419.6	57.19	5.623	5.080	4.738	4.410	4.068	4.094	3.896	3.873	4.041	3.833	3.828	3.704	3.602	3.430	3.031	3.210	2.685	2.735	2.608	2.504	2.071	2.137	1.964	1.830	1.780	1.520	1.618	1.630	1.500	1.335	1.168	1.007	1.143	0.999	0.989	0.933	1.002	1.105	1.294	1.180	1.088	0.977	1.089	0.907	1.038	0.943	1.037	1.054	1.342	1.213	0.956	0.911	0.761	0.765	0.795	0.802	1.166	3.500
620.0	61.22	64.09	49.46	43.32	37.34	38.51	47.03	54.84	65.07	78.00	95.85	119.4	109.2	65.95	55.15	40.43	60.43	325.8	194.2	6.626	4.390	3.987	3.984	3.419	3.852	3.248	3.287	3.234	3.471	3.100	3.270	2.969	2.978	2.651	2.987	2.385	2.307	2.265	1.870	1.847	1.803	1.698	1.571	1.531	1.497	1.330	1.373	1.237	1.151	0.985	0.992	0.985	0.888	0.827	0.850	0.854	0.941	1.068	1.153	1.060	0.917	1.030	0.949	0.894	0.930	0.927	0.911	1.092	1.275	1.062	0.885	0.871	0.722	0.701	0.732	0.858	1.256
625.0	59.91	58.76	53.01	41.86	36.16	39.18	44.50	56.15	61.61	72.50	88.50	102.8	115.2	68.30	52.51	38.99	40.09	150.1	340.5	20.36	4.023	3.501	3.383	3.280	3.151	2.877	2.850	2.791	3.148	2.862	2.880	2.639	2.455	2.188	2.398	2.109	2.015	1.926	1.512	1.719	1.553	1.491	1.471	1.388	1.277	1.129	1.181	1.045	0.956	0.871	0.868	0.897	0.780	0.792	0.760	0.781	0.883	0.909	1.079	1.057	0.990	0.891	0.927	0.881	0.891	0.955	0.876	0.952	1.167	1.132	0.813	0.825	0.813	0.648	0.771	0.733	0.730
630.0	59.31	57.23	55.97	41.25	34.74	38.97	43.63	52.65	60.69	72.57	81.92	92.36	107.5	77.40	53.15	36.74	34.94	52.24	268.7	134.3	5.554	3.170	2.845	2.651	2.602	2.579	2.495	2.387	2.534	2.385	2.399	2.164	2.028	1.910	1.816	1.651	1.752	1.489	1.434	1.445	1.374	1.250	1.184	1.156	1.089	1.039	0.961	1.084	0.938	0.788	0.732	0.787	0.737	0.684	0.688	0.694	0.778	0.800	0.836	0.977	0.986	0.911	0.852	0.835	0.928	0.883	0.936	0.878	0.954	1.007	0.920	0.776	0.755	0.675	0.673	0.685	0.688
635.0	52.57	52.49	59.00	42.83	34.02	36.12	38.67	47.97	58.90	69.41	80.29	86.63	92.94	89.86	56.00	37.07	33.93	27.19	90.12	278.6	31.91	2.958	2.886	2.327	2.176	2.061	2.179	2.133	2.154	1.986	2.065	1.763	1.651	1.433	1.451	1.378	1.430	1.247	1.102	1.201	1.066	0.942	1.015	0.915	0.891	0.931	0.897	0.885	0.756	0.699	0.673	0.717	0.660	0.679	0.610	0.696	0.616	0.759	0.714	0.796	0.978	0.923	0.867	0.791	0.891	0.756	0.808	0.887	0.865	0.828	0.933	0.926	0.714	0.721	0.720	0.580	0.714
640.0	61.02	58.54	59.14	43.89	32.66	37.79	39.40	48.17	54.45	66.55	78.19	84.19	80.68	90.00	59.16	36.76	34.52	22.20	28.12	235.9	116.6	3.170	2.381	2.073	1.841	2.017	1.719	1.867	1.728	1.798	1.856	1.662	1.444	1.384	1.295	1.276	1.330	1.034	1.073	0.973	0.965	0.968	0.959	0.915	0.784	0.896	0.670	0.813	0.683	0.686	0.566	0.659	0.522	0.597	0.608	0.598	0.554	0.738	0.731	0.701	0.839	0.918	0.791	0.744	0.753	0.746	0.858	0.843	0.824	0.816	0.861	0.981	0.778	0.627	0.681	0.554	0.648
645.0	60.01	61.07	58.93	43.06	35.60	35.88	39.15	49.49	53.73	65.57	72.52	80.61	76.85	81.73	65.83	39.99	35.55	21.74	13.72	114.8	221.4	10.27	2.284	2.161	1.736	1.841	1.657	1.633	1.459	1.526	1.649	1.437	1.372	1.098	1.178	1.116	1.002	0.987	0.983	0.857	0.859	0.743	0.891	0.807	0.760	0.832	0.661	0.698	0.665	0.588	0.528	0.526	0.545	0.567	0.510	0.531	0.550	0.637	0.618	0.588	0.762	0.937	0.792	0.705	0.723	0.743	0.744	0.787	0.808	0.783	0.811	0.755	0.789	0.643	0.679	0.613	0.621
650.0	59.60	65.24	63.54	43.42	33.82	35.03	39.49	45.11	53.48	61.41	73.27	80.57	73.13	72.14	70.00	39.17	33.65	19.84	10.42	37.49	240.2	47.20	2.145	1.934	1.572	1.550	1.551	1.291	1.237	1.238	1.482	1.196	1.211	1.077	1.053	1.088	0.837	0.874	0.885	0.774	0.834	0.816	0.705	0.699	0.713	0.696	0.673	0.690	0.650	0.543	0.521	0.531	0.528	0.545	0.564	0.536	0.580	0.520	0.605	0.577	0.685	0.774	0.735	0.799	0.720	0.785	0.710	0.715	0.770	0.761	0.793	0.737	0.766	0.768	0.790	0.569	0.690
