Sample:	'1
File name:	t2025042412高标准农田01号桥.FD3
Run date:	'13:59:19, 04/27/2025
Operator:	Administrator
Comment:	'

Instrument
Model:	F-2700 FL Spectrophotometer
Serial number:	23B8-004
ROM Version:	4J14000 07

Instrument parameters
Measurement type:	3-D scan
Data mode:	Fluorescence
EX  Start WL:	220.0 nm
EX  End WL:	600.0 nm
EX Sampling interval:	5.0 nm
EM  Start WL:	230.0 nm
EM  End WL:	650.0 nm
EM Sampling interval:	5.0 nm
Scan speed:	12000 nm/min
EX Slit:	5.0 nm
EM Slit:	5.0 nm
PMT Voltage:	700 V
Response:	Auto 
Corrected spectra:	Off
Contour interval:	50.000

Peak integration
Integration method:	Rectangular
Sensitivity:	1
Threshold:	1.000

Peaks
No.	ApexEX/EM(nm)	Height(Data)
1	225.0/600.0	59.64
2	225.0/630.0	54.54
3	230.0/340.0	1479
4	230.0/505.0	278.7
5	230.0/605.0	56.57
6	230.0/620.0	57.61
7	235.0/515.0	247.6
8	240.0/405.0	781.0
9	240.0/525.0	218.7
10	245.0/535.0	191.6
11	250.0/550.0	154.3
12	255.0/280.0	534.7
13	255.0/565.0	132.9
14	260.0/290.0	532.9
15	260.0/575.0	106.8
16	265.0/295.0	747.4
17	265.0/585.0	99.40
18	270.0/300.0	1046
19	270.0/600.0	99.67
20	275.0/310.0	1236
21	275.0/335.0	1382
22	275.0/610.0	91.39
23	280.0/315.0	1308
24	280.0/625.0	86.21
25	285.0/320.0	1335
26	285.0/635.0	67.82
27	320.0/365.0	404.1
28	330.0/375.0	362.7
29	335.0/380.0	348.5
30	425.0/500.0	34.58
31	440.0/520.0	19.87
32	455.0/540.0	11.55
33	460.0/340.0	5.002
34	465.0/555.0	6.944
35	475.0/350.0	4.670
36	505.0/275.0	3.819
37	510.0/280.0	4.001
38	520.0/285.0	4.376
39	530.0/290.0	4.557
40	545.0/300.0	6.999
41	550.0/305.0	8.157
42	560.0/310.0	8.145
43	560.0/335.0	8.197
44	570.0/315.0	9.052
45	575.0/320.0	8.788
46	585.0/325.0	8.666

Data points
	220.0	225.0	230.0	235.0	240.0	245.0	250.0	255.0	260.0	265.0	270.0	275.0	280.0	285.0	290.0	295.0	300.0	305.0	310.0	315.0	320.0	325.0	330.0	335.0	340.0	345.0	350.0	355.0	360.0	365.0	370.0	375.0	380.0	385.0	390.0	395.0	400.0	405.0	410.0	415.0	420.0	425.0	430.0	435.0	440.0	445.0	450.0	455.0	460.0	465.0	470.0	475.0	480.0	485.0	490.0	495.0	500.0	505.0	510.0	515.0	520.0	525.0	530.0	535.0	540.0	545.0	550.0	555.0	560.0	565.0	570.0	575.0	580.0	585.0	590.0	595.0	600.0
230.0	60.83	1386	3991	1331	57.00	10.61	8.512	7.300	6.223	6.332	5.798	5.133	4.907	4.108	3.446	2.838	2.775	2.346	2.288	1.965	2.061	1.756	1.762	1.623	1.448	1.423	1.270	1.214	1.243	1.193	1.155	1.044	1.003	0.906	0.890	0.839	0.797	0.763	0.747	0.696	0.650	0.706	0.731	0.692	0.613	0.607	1.512	7.339	15.21	12.82	5.830	1.411	0.530	0.497	0.431	0.489	0.496	0.463	0.512	0.502	0.477	0.464	0.440	0.442	0.455	0.405	0.429	0.419	0.410	0.464	0.437	0.425	0.427	0.445	0.408	0.386	0.466
235.0	93.74	403.6	2803	4959	598.7	94.96	11.39	9.293	7.131	7.633	6.633	5.271	4.766	4.558	3.896	3.241	2.853	2.659	2.159	2.173	2.087	1.922	1.539	1.668	1.529	1.401	1.314	1.123	1.212	1.330	1.143	1.032	1.052	1.023	0.977	0.731	0.806	0.778	0.718	0.809	0.682	0.693	0.707	0.790	0.788	0.590	0.750	2.241	5.600	11.80	20.01	22.71	11.53	2.941	0.529	0.503	0.462	0.467	0.543	0.436	0.480	0.554	0.487	0.498	0.472	0.407	0.519	0.411	0.436	0.425	0.459	0.383	0.434	0.454	0.381	0.424	0.461
240.0	118.9	169.7	860.3	4520	4687	490.3	51.04	10.76	8.564	8.580	7.830	6.489	5.885	4.944	3.762	3.369	2.936	2.465	2.354	2.251	2.165	1.837	1.478	1.888	1.678	1.422	1.303	1.361	1.125	1.236	1.181	1.066	0.923	1.049	0.938	0.885	0.783	0.810	0.766	0.795	0.677	0.661	0.687	0.760	0.840	0.882	0.754	1.002	1.724	3.478	10.19	26.54	31.88	24.49	10.24	1.938	0.522	0.535	0.559	0.514	0.445	0.479	0.514	0.565	0.489	0.495	0.473	0.407	0.412	0.462	0.447	0.454	0.439	0.484	0.490	0.446	0.522
245.0	111.3	194.5	258.1	1587	6483	3920	381.0	22.46	11.29	10.48	8.626	7.873	6.220	5.541	3.730	3.362	3.247	2.845	2.409	2.187	2.107	1.897	1.715	1.764	1.483	1.490	1.513	1.459	1.181	1.291	1.185	1.151	1.123	1.040	0.950	0.938	0.818	0.874	0.898	0.898	0.726	0.706	0.680	0.736	0.701	0.877	1.031	0.934	0.913	1.251	2.723	8.679	21.44	41.63	32.62	23.05	7.527	1.067	0.658	0.531	0.477	0.510	0.505	0.498	0.514	0.508	0.480	0.440	0.480	0.432	0.475	0.494	0.425	0.480	0.424	0.480	0.509
250.0	67.08	154.5	237.7	442.1	2144	6164	6860	1405	93.77	15.45	10.81	9.096	7.174	6.261	4.624	4.240	3.869	3.405	2.745	2.544	2.153	2.195	1.971	1.831	1.684	1.514	1.555	1.502	1.343	1.297	1.133	1.183	1.244	1.080	1.043	0.963	0.971	0.844	0.829	0.776	0.746	0.740	0.740	0.672	0.668	0.789	0.781	0.996	1.205	1.218	1.281	2.483	5.455	12.95	22.50	39.19	43.11	47.13	17.88	7.831	1.154	0.557	0.546	0.535	0.517	0.540	0.509	0.463	0.473	0.468	0.470	0.486	0.450	0.470	0.515	0.453	0.475
255.0	47.94	69.97	181.1	334.6	561.2	1605	6582	9999.9	2014	122.3	15.59	12.80	9.765	6.510	5.276	4.529	4.027	3.765	3.024	2.476	2.204	2.202	1.765	1.726	1.777	1.678	1.657	1.587	1.469	1.401	1.398	1.242	1.279	0.884	1.082	0.937	0.864	0.902	0.845	0.889	0.809	0.895	0.736	0.708	0.708	0.718	0.652	0.706	0.768	1.008	1.525	1.967	2.067	3.451	5.507	9.594	15.93	42.24	81.79	85.05	27.77	9.077	0.923	0.629	0.657	0.557	0.557	0.591	0.523	0.433	0.494	0.482	0.449	0.461	0.519	0.506	0.478
260.0	50.85	50.31	86.24	276.0	345.8	416.2	2095	9999.9	9999.9	1593	61.57	17.21	12.20	8.787	6.890	5.172	4.478	4.098	3.369	2.879	2.409	2.180	2.039	2.025	1.811	1.846	1.789	1.478	1.411	1.504	1.393	1.346	1.217	0.943	1.016	1.078	0.997	0.969	0.906	1.012	0.777	0.797	0.868	0.770	0.761	0.725	0.721	0.666	0.661	0.730	1.065	2.265	2.164	1.855	1.816	2.727	4.169	11.48	34.25	77.01	108.2	37.04	22.82	4.347	0.757	0.725	0.599	0.617	0.586	0.521	0.532	0.577	0.429	0.489	0.583	0.507	0.527
265.0	52.35	42.51	46.59	144.6	361.7	259.6	518.2	3647	9999.9	9999.9	1108	28.56	15.72	11.46	8.198	6.121	5.529	4.495	3.569	3.188	2.785	2.297	2.325	1.997	2.048	1.971	1.887	1.612	1.580	1.502	1.521	1.339	1.327	1.260	1.029	1.133	0.915	1.024	0.940	0.855	0.893	0.811	0.895	0.802	0.900	0.842	0.815	0.706	0.663	0.587	0.693	1.265	1.807	2.375	1.946	1.368	1.565	3.234	8.455	22.12	55.77	102.4	128.1	34.99	16.24	1.601	0.681	0.638	0.636	0.635	0.564	0.599	0.520	0.584	0.612	0.580	0.552
270.0	63.31	66.72	50.79	65.77	192.5	373.6	311.7	884.3	3853	9999.9	9999.9	4126	68.85	18.42	11.40	8.533	6.608	5.332	4.634	3.715	3.197	2.825	2.593	2.534	2.187	2.111	1.916	1.884	1.893	1.675	1.634	1.502	1.390	1.347	1.156	1.094	1.052	1.064	0.985	0.887	0.902	0.899	0.976	0.880	0.870	0.785	0.786	0.857	0.750	0.610	0.628	0.804	1.033	1.557	2.173	2.582	2.398	1.776	2.678	5.608	13.51	29.63	61.34	88.18	122.4	97.69	22.35	11.15	1.705	0.808	0.765	0.675	0.659	0.605	0.660	0.602	0.583
275.0	111.6	120.5	98.70	60.57	77.64	199.6	481.5	403.9	920.7	2687	9999.9	9999.9	1264	74.89	18.02	13.43	8.866	7.040	5.708	4.753	3.813	3.591	3.040	2.755	2.362	2.084	2.310	1.976	1.937	1.962	1.637	1.701	1.603	1.538	1.236	1.296	1.181	1.076	0.959	0.994	0.962	0.939	0.936	0.942	0.999	0.907	0.918	0.919	0.879	0.771	0.729	0.735	0.766	0.893	1.020	1.420	2.848	3.819	2.854	2.147	3.786	7.408	14.48	20.98	36.13	76.25	148.9	174.6	34.68	13.23	1.165	0.918	0.707	0.740	0.690	0.732	0.693
280.0	169.3	190.6	153.1	92.44	62.27	92.15	336.0	534.7	344.7	687.1	3179	9999.9	9999.9	955.2	40.47	18.51	11.94	9.012	7.115	5.611	4.265	3.689	3.203	3.035	2.517	2.445	2.527	2.085	2.031	2.053	1.660	1.765	1.565	1.653	1.506	1.406	1.175	1.177	1.036	1.155	1.059	1.068	1.051	1.013	1.038	1.064	1.147	1.169	0.989	0.928	0.873	0.938	0.782	0.825	0.848	0.978	1.498	2.780	4.001	3.401	2.292	2.519	4.027	5.673	9.034	19.44	53.85	131.7	186.0	158.3	28.66	6.881	1.109	0.861	0.779	0.825	0.668
285.0	235.6	267.5	213.9	130.3	71.23	65.38	160.0	517.9	351.3	282.4	844.6	4197	9999.9	9999.9	640.3	27.32	16.44	11.06	8.473	6.560	4.931	4.650	3.989	3.384	2.742	2.562	2.476	2.159	2.090	2.127	1.901	1.856	1.665	1.607	1.632	1.520	1.479	1.265	1.102	1.207	1.097	1.208	1.050	1.198	1.189	1.231	1.287	1.461	1.190	1.188	0.995	0.968	0.853	0.897	0.838	0.827	1.124	1.481	2.300	3.864	4.376	2.789	2.101	2.265	3.050	5.452	13.30	34.08	79.91	168.7	215.7	40.70	21.38	2.568	1.043	1.015	0.834
290.0	293.4	375.0	321.6	199.7	105.7	86.78	116.2	270.1	532.9	507.9	422.6	1159	4273	9999.9	9999.9	2668	45.60	16.00	11.43	8.445	6.485	5.435	4.452	3.909	3.453	3.025	2.811	2.467	2.437	2.346	1.991	1.895	1.824	1.800	1.855	1.612	1.534	1.414	1.344	1.160	1.161	1.235	1.128	1.260	1.255	1.596	1.601	1.703	1.644	1.443	1.215	1.200	0.948	0.993	1.056	1.026	1.121	1.181	1.461	2.114	3.195	4.228	4.557	3.614	2.607	2.812	4.552	9.176	19.64	44.27	86.55	115.8	161.2	137.7	102.8	15.12	3.017
295.0	367.1	489.0	448.3	280.4	159.9	129.6	149.1	214.1	348.8	747.4	742.4	607.2	1235	2733	9999.9	9999.9	726.3	47.71	17.64	11.91	8.044	6.481	6.025	4.964	4.108	3.384	3.203	3.091	2.651	2.500	2.195	1.906	1.987	2.055	1.902	1.707	1.730	1.669	1.507	1.311	1.312	1.317	1.242	1.466	1.474	1.862	1.858	1.956	2.097	1.701	1.349	1.429	1.277	1.168	1.269	1.108	1.280	1.419	1.494	1.825	2.012	2.654	3.372	5.249	5.600	4.018	3.421	4.391	6.387	12.07	21.54	27.74	43.14	83.42	199.7	229.5	42.25
300.0	423.0	584.6	560.3	349.8	203.6	171.2	198.1	254.6	335.3	610.4	1046	741.9	669.8	902.4	3117	9999.9	9999.9	581.9	31.61	15.88	11.17	7.753	6.489	5.750	4.380	3.854	3.548	2.993	2.929	2.576	2.461	2.277	2.137	2.073	2.020	1.823	1.838	1.591	1.570	1.370	1.320	1.475	1.489	1.633	1.719	1.791	2.065	2.230	2.427	1.973	1.619	1.871	1.504	1.413	1.410	1.446	1.588	1.712	1.830	2.046	2.100	2.274	2.872	3.869	5.890	6.999	5.933	4.148	4.199	5.295	7.733	8.493	11.55	21.28	61.44	136.9	212.7
305.0	485.1	652.1	652.5	420.5	261.8	228.0	258.3	327.7	420.7	586.0	984.7	1180	737.0	605.0	959.0	4110	9999.9	9999.9	82.38	22.82	14.13	9.246	7.752	6.585	4.645	4.440	3.817	3.326	3.275	2.974	2.772	2.328	2.334	2.184	2.145	1.920	1.987	1.664	1.596	1.515	1.418	1.437	1.558	1.652	1.805	1.942	2.226	2.576	2.528	2.182	1.874	1.911	1.598	1.658	1.561	1.653	1.842	1.866	2.208	2.467	2.561	2.790	3.148	3.828	4.598	6.261	8.157	6.979	5.434	4.717	5.104	4.610	5.548	7.028	15.66	34.52	80.44
310.0	538.5	743.5	742.9	493.7	325.2	282.3	327.8	416.9	528.4	693.6	918.4	1236	1204	757.0	582.3	1129	4243	9999.9	9999.9	1912	34.17	13.94	10.48	8.085	5.856	5.232	4.616	3.694	3.668	3.030	3.002	2.708	2.559	2.191	2.230	1.947	2.061	1.813	1.728	1.740	1.688	1.599	1.651	1.672	1.923	2.311	2.539	2.779	3.087	2.442	2.251	2.356	1.904	1.980	1.883	1.969	2.176	2.295	2.514	2.824	3.011	3.353	3.917	4.457	4.863	5.508	6.381	7.355	8.145	7.580	6.394	4.935	4.501	4.514	5.752	9.688	19.77
315.0	599.1	843.2	855.0	567.7	382.7	342.8	401.6	510.6	629.3	814.7	1001	1164	1308	1191	655.2	511.7	1097	2563	9999.9	9999.9	527.6	33.55	15.95	11.06	7.421	6.245	5.533	4.409	4.124	3.735	3.109	2.756	2.512	2.371	2.310	1.847	2.140	1.861	1.810	1.920	1.747	1.659	1.850	1.786	1.883	2.385	2.805	3.169	3.423	2.888	2.538	2.583	2.421	2.071	2.083	2.297	2.389	2.614	2.761	3.469	3.523	4.154	4.465	4.949	5.524	6.090	6.109	6.688	7.345	7.449	9.052	8.394	5.647	4.939	4.329	4.426	6.525
320.0	666.9	961.5	955.4	639.1	441.5	394.0	442.9	571.0	704.8	914.7	1090	1216	1256	1335	907.4	451.7	437.6	689.6	3040	9999.9	9999.9	441.5	25.44	14.83	9.627	7.069	5.876	5.192	4.665	3.921	3.414	3.170	2.816	2.554	2.456	2.080	2.105	1.916	1.976	1.928	1.868	1.740	1.524	1.958	2.273	2.548	2.994	3.565	3.539	3.168	2.714	2.810	2.505	2.285	2.339	2.690	2.586	2.688	3.146	3.795	4.005	4.222	5.019	5.729	5.962	6.202	6.444	7.083	6.957	7.046	8.534	8.788	8.117	6.560	4.625	3.577	3.637
325.0	707.3	1080	1127	759.6	496.8	432.6	482.0	617.2	745.4	990.3	1173	1302	1276	1234	1131	569.4	324.4	295.9	779.2	4235	9999.9	9999.9	64.14	20.50	12.49	9.483	6.980	5.859	5.186	4.473	3.840	3.242	3.275	2.669	2.616	2.260	2.287	1.988	2.118	1.957	1.747	1.811	1.854	2.176	2.295	2.862	3.335	3.797	3.909	3.498	3.073	3.072	2.601	2.555	2.548	2.895	2.917	3.005	3.658	3.988	4.119	4.422	5.057	5.897	6.040	6.637	6.901	6.989	7.440	7.481	8.091	7.653	8.210	8.666	6.330	4.551	3.381
330.0	803.8	1232	1335	919.0	583.2	482.4	523.9	654.8	802.3	1030	1239	1367	1337	1192	1045	793.4	431.6	245.3	293.9	1049	4153	9999.9	9999.9	1590	27.92	13.15	9.660	7.453	6.052	5.154	4.393	3.850	3.220	2.936	2.841	2.401	2.459	2.067	2.187	2.043	1.898	1.839	1.916	2.162	2.565	2.984	3.622	4.513	4.596	4.168	3.660	3.638	3.025	2.762	2.832	3.025	3.217	3.108	3.729	4.017	4.264	4.874	5.077	6.038	6.229	6.962	7.368	7.334	7.667	8.125	8.345	7.546	7.145	7.257	6.918	6.314	5.184
335.0	843.0	1317	1432	1064	683.7	535.0	573.1	679.7	815.4	1057	1250	1382	1365	1204	973.6	760.3	649.2	335.8	223.2	348.3	1001	2574	9999.9	9999.9	440.3	29.23	13.20	9.667	7.971	6.491	4.839	4.220	3.647	3.363	3.130	2.668	2.661	2.108	2.204	2.155	2.010	1.773	1.919	2.223	2.742	3.280	3.884	4.648	4.992	4.377	3.892	4.015	3.511	3.040	3.040	3.054	3.464	3.456	3.975	3.984	4.336	4.682	5.627	6.027	6.288	6.870	7.503	7.080	8.197	8.005	8.132	7.511	7.493	7.194	6.151	5.455	5.749
340.0	831.3	1280	1479	1109	721.2	581.8	588.0	689.8	822.7	1053	1238	1366	1344	1206	963.0	706.3	641.2	496.0	252.5	212.4	316.6	640.9	3078	9999.9	9999.9	378.5	20.29	11.62	9.522	7.224	5.682	4.579	4.096	3.415	3.246	2.928	2.689	2.310	2.054	1.977	2.095	2.020	2.062	2.216	2.623	3.180	3.732	4.882	5.002	4.555	4.083	4.464	3.703	3.397	3.288	2.984	3.543	3.586	3.692	3.943	4.436	4.802	5.541	6.150	6.620	7.095	7.139	7.493	7.928	7.510	7.993	7.831	7.627	7.059	6.020	5.220	5.148
345.0	831.7	1264	1475	1133	760.9	612.4	588.7	689.8	811.1	1011	1195	1309	1303	1174	956.1	686.2	551.4	548.4	355.4	204.1	179.4	219.5	751.8	4130	9999.9	9999.9	55.33	17.20	11.39	8.704	6.614	5.280	4.041	3.757	3.326	2.829	2.908	2.288	2.248	1.882	2.132	2.085	1.979	2.163	2.798	3.118	3.653	4.671	4.951	4.732	4.288	4.518	3.783	3.285	3.569	3.101	3.395	3.704	3.909	3.899	4.677	4.778	5.229	5.791	6.233	6.582	7.097	7.554	7.357	7.646	7.884	7.787	7.316	6.843	6.076	5.080	5.115
350.0	765.6	1172	1383	1098	793.9	642.9	609.6	678.3	785.0	954.9	1110	1207	1218	1103	912.7	677.1	519.5	460.6	454.1	308.2	183.2	150.1	245.1	991.2	4063	9999.9	9999.9	1435	25.52	11.72	8.282	6.256	4.818	4.321	3.645	3.048	2.827	2.501	2.246	2.057	2.072	2.077	1.988	2.253	2.748	2.945	3.418	4.245	4.580	4.534	4.133	4.670	4.050	3.470	3.521	3.386	3.414	3.716	3.808	4.165	4.315	4.709	4.920	5.646	5.979	6.350	6.684	6.783	6.737	7.141	7.458	7.237	6.887	6.620	5.851	5.017	4.727
355.0	715.8	1056	1259	1076	791.3	678.6	639.9	688.5	773.8	914.6	1024	1105	1120	1027	872.6	674.3	525.8	433.6	402.7	424.6	277.5	168.6	156.0	297.6	960.5	2524	9999.9	9999.9	2198	28.01	12.02	8.546	6.287	4.749	4.295	3.206	3.026	2.824	2.352	2.199	2.006	2.082	2.236	2.233	2.335	2.777	3.338	4.099	4.367	4.115	3.966	4.350	3.976	3.717	3.469	3.595	3.611	3.863	3.728	4.123	4.124	4.799	5.127	5.195	5.570	6.033	6.107	6.141	6.220	6.451	6.979	6.942	6.202	6.038	5.720	4.980	4.976
360.0	660.8	975.8	1168	1035	817.4	707.1	671.7	705.4	764.5	884.8	975.7	1041	1053	977.4	837.6	673.4	536.0	439.4	387.1	406.5	385.4	223.6	159.5	162.3	282.5	615.5	2900	9999.9	9999.9	372.0	19.86	10.95	7.554	5.428	4.471	3.548	3.051	2.823	2.522	2.436	2.115	2.102	1.926	2.010	2.317	2.647	3.157	3.848	4.202	3.758	3.701	4.252	4.052	3.758	3.517	3.603	4.152	3.973	3.979	4.212	4.250	4.556	4.955	4.748	5.258	5.628	5.824	5.971	5.837	6.125	6.522	6.304	6.222	6.046	5.671	4.842	4.947
365.0	605.1	934.5	1119	1005	829.8	732.7	688.3	704.1	760.8	862.0	938.4	990.6	995.8	934.4	810.2	660.6	547.6	461.6	399.1	370.7	404.1	321.0	189.5	148.9	147.9	199.5	698.6	3711	9999.9	9999.9	53.89	15.56	9.134	6.819	5.093	4.068	3.396	2.992	2.809	2.283	2.238	2.082	1.887	2.198	2.303	2.575	3.192	3.748	4.034	3.859	3.714	4.253	4.264	3.733	3.761	3.750	4.024	3.913	4.063	4.385	4.179	4.255	4.841	4.851	5.168	5.418	5.543	5.527	5.542	5.824	6.186	6.085	5.896	5.897	5.490	4.631	5.000
370.0	572.0	857.5	1027	970.4	837.0	747.2	705.1	705.5	747.5	835.3	892.2	915.9	919.3	867.3	768.3	648.2	554.8	486.2	425.8	380.1	361.4	371.0	295.4	188.8	145.4	129.3	218.3	883.7	3899	9999.9	9999.9	1395	23.52	9.396	6.632	5.043	4.030	3.492	3.099	2.570	2.494	2.134	2.032	2.318	2.456	2.480	2.878	3.508	3.852	3.761	3.572	4.244	3.892	3.743	3.813	3.845	4.155	3.777	4.159	4.145	4.267	4.271	4.759	4.765	4.895	5.223	5.193	5.449	5.393	5.431	5.762	5.615	5.497	5.656	5.182	4.649	4.748
375.0	537.4	769.3	944.1	929.7	828.9	776.2	710.6	718.7	739.5	800.6	839.6	855.4	852.4	805.0	729.9	631.0	558.2	502.2	446.4	404.0	360.8	340.9	362.7	279.9	178.0	136.2	131.2	257.7	915.8	2501	9999.9	9999.9	2089	25.93	9.650	6.482	4.920	3.918	3.625	2.816	2.727	2.400	2.220	2.242	2.443	2.566	2.914	3.340	3.505	3.435	3.285	3.970	3.963	3.887	4.164	3.798	4.072	3.842	3.885	4.061	4.052	4.448	4.634	4.893	4.725	4.872	4.666	5.042	5.014	5.120	5.176	5.185	5.325	5.279	4.951	4.769	4.900
380.0	486.2	723.1	890.0	911.6	822.9	777.6	725.4	725.4	739.5	779.5	813.4	813.7	807.6	770.6	699.2	617.1	557.0	510.0	463.0	424.8	375.2	336.1	342.0	348.5	231.9	158.3	125.8	131.6	261.0	603.0	2842	9999.9	9999.9	327.7	18.14	7.948	6.315	4.585	3.713	3.286	2.715	2.244	2.316	2.224	2.418	2.452	2.895	3.177	3.602	3.259	3.226	4.098	3.825	4.133	3.929	3.878	3.899	3.980	4.130	4.021	4.113	4.554	4.474	4.747	4.686	4.366	4.680	4.822	4.770	4.937	4.901	5.236	5.035	5.122	5.295	4.832	4.702
385.0	467.3	687.7	851.7	868.1	839.4	770.2	730.8	728.5	729.7	757.0	782.4	784.5	769.3	736.6	672.2	603.7	551.8	508.6	471.5	431.0	389.5	352.2	326.3	346.9	306.8	193.1	144.0	119.8	127.1	186.8	677.5	3547	9999.9	9999.9	254.6	11.48	7.289	5.284	4.326	3.573	2.834	2.543	2.561	2.318	2.425	2.481	2.848	3.024	3.285	3.205	3.150	4.180	3.916	4.087	3.920	4.076	3.673	3.944	4.167	4.114	4.279	4.421	4.629	4.495	4.324	4.617	4.576	4.470	4.452	4.668	4.939	4.946	5.077	5.031	5.019	4.718	4.498
390.0	452.7	656.3	799.8	839.1	815.3	771.7	727.8	722.8	711.2	728.1	748.7	743.4	730.6	697.6	650.7	579.7	543.0	503.1	473.1	436.5	404.7	370.9	334.5	322.2	325.4	274.5	186.8	140.8	117.4	110.0	202.2	835.8	3401	9999.9	9999.9	1165	20.83	7.159	5.712	4.331	3.540	3.030	2.718	2.396	2.495	2.542	2.744	3.045	3.239	3.069	3.171	3.776	3.892	3.944	3.991	3.997	3.858	3.893	3.997	4.172	4.253	4.300	4.407	4.232	4.489	4.382	4.422	4.224	4.387	4.691	4.583	4.768	4.652	4.731	4.549	4.673	4.525
395.0	418.7	630.1	770.8	823.6	786.3	767.1	722.1	712.0	697.2	717.1	713.9	696.6	697.0	670.5	615.8	559.7	525.5	492.0	469.9	440.1	412.2	385.1	353.5	325.0	303.5	309.7	265.3	178.2	137.4	112.4	113.2	235.7	791.1	2383	7993	9999.9	1956	23.39	7.598	5.559	4.032	3.698	3.040	2.633	2.475	2.820	2.785	3.162	3.330	3.017	3.065	3.750	3.799	3.918	4.005	3.873	4.048	4.087	4.217	4.118	4.298	4.409	4.233	4.378	4.252	4.560	4.419	4.150	4.373	4.353	4.419	4.645	4.565	5.032	4.449	4.361	4.388
400.0	411.2	614.5	743.0	786.2	774.3	762.2	729.6	708.2	692.5	691.2	693.6	673.2	669.9	637.7	593.0	542.3	511.9	486.1	467.3	442.3	414.6	391.0	360.4	334.5	305.8	293.8	303.5	227.5	161.9	127.4	103.7	110.3	216.8	562.7	2131	9829	9999.9	297.1	16.19	6.957	4.843	4.084	3.108	2.979	2.965	2.980	2.756	3.214	3.212	2.971	3.144	3.646	3.841	3.759	3.895	3.921	4.191	4.119	4.024	4.056	4.051	3.983	4.278	4.470	3.988	4.331	4.237	3.938	3.924	4.340	4.289	4.178	4.290	4.527	3.901	4.347	4.232
405.0	405.9	584.9	720.1	764.8	781.0	758.6	718.2	700.0	686.8	670.5	667.7	664.6	648.2	619.9	580.5	526.1	498.2	476.2	458.9	435.4	414.0	392.2	364.7	342.2	311.9	286.5	294.9	275.7	192.2	144.4	112.6	91.35	97.00	160.8	503.9	2861	9999.9	9831	258.2	11.04	6.023	4.562	3.514	2.979	2.921	2.806	2.836	3.175	3.167	2.885	3.190	3.658	3.822	3.680	3.807	3.801	4.259	3.958	4.060	3.929	4.090	4.068	4.209	3.955	4.108	4.070	4.046	4.058	3.709	4.228	3.999	3.902	4.112	4.513	4.084	4.205	4.355
410.0	396.6	559.7	678.0	740.8	751.0	732.6	707.6	689.0	673.3	659.6	655.5	640.4	619.2	588.2	550.1	503.7	479.4	459.3	439.5	420.3	406.3	387.1	367.3	348.2	319.8	295.2	276.1	279.0	249.4	179.1	132.7	100.2	80.79	78.30	144.2	663.6	2915	8466	9562	1131	19.25	6.444	4.570	3.581	3.089	3.000	2.920	3.123	3.052	3.019	2.907	3.575	3.634	3.612	3.823	3.752	4.212	3.874	4.051	3.937	4.127	4.094	4.025	3.935	3.993	3.910	3.767	3.703	3.957	3.892	4.031	4.152	4.131	4.211	3.954	3.961	4.045
415.0	388.4	523.6	640.7	714.3	725.6	719.4	701.6	679.9	658.7	646.2	635.4	613.5	589.9	554.3	521.1	474.0	453.6	438.1	420.1	404.8	390.9	375.7	362.2	345.8	324.6	302.1	275.3	257.0	261.5	228.4	159.5	115.1	87.12	68.87	70.08	174.9	670.1	1961	5764	9999.9	1923	24.41	6.326	4.806	4.050	3.342	2.972	2.901	2.822	2.971	3.051	3.523	3.542	3.691	3.802	3.556	4.052	3.809	3.999	3.957	3.948	4.203	4.007	3.845	3.643	3.646	3.816	3.803	3.800	3.846	3.761	3.890	3.814	3.978	3.537	3.822	3.917
420.0	368.2	502.1	622.8	676.7	704.5	700.8	691.7	677.4	649.8	631.0	625.9	603.1	563.1	523.3	497.4	454.7	433.8	418.4	400.2	387.9	374.2	364.6	353.0	341.2	322.4	299.1	276.2	252.8	247.4	249.1	190.9	127.7	94.63	71.74	59.02	70.29	172.4	454.8	1466	7362	9999.9	1517	17.94	5.788	4.406	3.691	3.188	3.081	2.913	2.839	2.964	3.412	3.327	3.677	3.516	3.699	3.819	3.905	4.115	3.740	3.973	4.241	3.788	3.874	3.733	3.667	3.822	3.731	3.797	3.715	3.743	3.812	3.771	3.875	3.632	3.548	3.926
425.0	341.0	510.1	597.8	663.0	689.8	686.1	681.2	662.1	639.1	627.3	614.5	588.4	548.2	513.5	476.7	436.4	416.0	400.2	384.4	370.3	364.9	351.5	343.4	331.6	318.6	299.8	276.8	255.1	237.4	237.5	220.3	149.6	104.9	78.79	60.85	50.90	64.56	121.0	343.9	2026	8670	8974	262.2	10.60	5.607	4.557	3.511	3.372	3.313	2.998	2.937	3.343	3.564	3.651	3.590	3.651	3.801	4.029	3.861	3.978	3.981	3.978	3.795	3.683	3.989	3.641	3.749	3.484	3.539	3.728	3.487	3.574	3.561	3.461	3.378	3.455	3.703
430.0	363.5	468.0	574.5	644.4	668.0	668.1	668.7	663.0	637.3	619.1	599.7	567.2	527.6	497.1	454.1	418.8	395.8	381.2	365.5	352.6	348.8	335.7	331.2	321.6	309.7	293.8	276.5	258.9	239.8	221.7	213.2	184.4	126.2	89.68	68.10	52.92	46.09	50.44	94.41	466.7	2323	6627	7704	1089	19.28	6.085	4.547	3.964	3.405	3.153	2.993	3.507	3.579	3.596	3.638	3.574	3.981	3.950	3.969	3.913	3.995	3.977	3.762	3.659	3.737	3.541	3.617	3.491	3.466	3.488	3.412	3.347	3.523	3.514	3.539	3.611	3.647
435.0	558.4	446.3	556.1	617.1	654.8	653.8	659.1	645.1	630.3	609.6	584.3	544.8	510.0	471.9	437.7	394.3	373.9	362.4	348.8	335.4	326.3	322.9	314.6	307.4	300.4	287.8	274.1	258.6	242.7	221.9	198.4	185.9	158.2	107.6	78.46	60.03	46.90	38.67	42.24	120.3	530.5	1520	4290	9736	1934	25.18	6.338	5.200	4.002	3.432	3.182	3.733	3.745	3.472	3.580	3.809	3.994	3.966	3.984	3.853	3.972	3.792	3.795	3.714	3.723	3.606	3.452	3.292	3.590	3.486	3.198	3.362	3.464	3.487	3.498	3.570	3.376
440.0	832.2	489.0	529.7	603.7	634.8	637.9	648.8	637.3	618.3	603.6	571.8	538.0	496.8	459.4	419.5	379.9	356.5	344.6	335.3	321.2	311.2	306.5	304.7	300.4	292.1	278.1	268.2	256.0	241.1	221.3	195.9	174.4	167.5	126.9	86.31	65.02	50.43	39.45	32.58	44.99	133.2	351.5	1075	6316	9999.9	1557	18.49	6.215	4.494	3.829	3.465	3.759	3.846	3.687	3.827	3.704	3.977	3.895	4.085	3.933	3.758	3.779	3.479	3.913	3.384	3.585	3.393	3.539	3.210	3.349	3.477	3.229	3.538	3.297	3.224	3.278	3.378
445.0	956.1	703.7	502.1	572.9	598.0	615.2	634.6	624.1	604.2	581.0	560.0	523.5	483.1	438.8	399.8	363.7	345.8	330.4	318.4	310.0	294.2	290.2	294.3	287.9	282.3	273.5	260.7	251.7	237.7	220.0	193.3	166.9	157.5	142.1	99.63	71.09	54.44	41.59	33.60	30.42	46.06	91.84	251.8	1716	8044	8831	234.2	13.03	5.523	4.100	3.963	3.873	3.596	3.598	4.005	3.617	3.992	3.811	4.001	3.801	3.815	3.765	3.690	3.741	3.531	3.510	3.293	3.293	3.351	3.144	3.193	3.226	3.172	3.087	2.970	2.973	3.382
450.0	745.8	1409	632.5	536.6	572.9	582.8	598.3	597.3	583.8	560.0	533.4	497.6	457.9	413.1	372.1	341.1	321.5	307.2	296.6	283.4	274.4	271.7	271.3	269.9	262.8	258.2	247.8	239.0	227.5	213.8	189.4	165.2	143.4	134.3	117.0	82.88	59.57	46.35	36.59	29.99	28.57	35.51	68.04	393.9	2126	6316	8038	2718	17.96	5.382	4.305	4.513	3.997	3.809	3.594	3.774	3.823	3.747	3.839	3.804	3.795	3.691	3.613	3.541	3.381	3.344	3.236	3.090	3.187	3.165	3.027	3.086	3.064	3.072	2.904	3.074	3.016
455.0	390.1	1820	1166	527.5	533.1	545.2	546.0	568.6	556.5	533.0	508.4	475.1	430.2	386.6	348.4	312.7	295.8	283.5	270.3	260.8	248.0	246.2	245.1	245.0	243.2	236.8	229.0	219.9	215.5	202.3	184.7	160.0	137.6	118.9	113.1	99.56	67.72	49.94	40.39	31.75	26.76	24.78	28.65	98.55	483.6	1443	3872	9498	1667	20.80	5.414	5.007	4.162	4.082	3.720	3.592	3.880	3.613	3.776	3.798	3.650	3.492	3.644	3.263	3.083	3.279	2.935	2.997	2.998	3.033	3.117	2.791	3.042	2.737	2.587	2.813	2.882
460.0	267.6	1359	2416	659.6	495.4	513.1	514.9	528.8	518.9	509.7	483.2	447.6	398.0	361.8	328.8	292.3	274.6	265.1	249.2	239.7	231.8	227.2	226.7	228.0	225.7	219.8	216.3	209.0	203.4	193.7	176.9	155.6	132.5	112.6	101.8	100.2	76.69	53.65	41.50	33.40	27.33	22.90	20.79	33.65	117.8	330.8	940.3	5465	8697	1298	16.62	6.091	4.660	4.030	3.773	3.811	3.774	3.494	3.821	3.614	3.758	3.419	3.420	3.257	3.232	3.225	2.885	3.000	3.005	3.020	2.914	2.794	2.500	2.698	2.654	2.710	2.762
465.0	230.5	748.6	3101	1334	482.2	491.6	481.7	505.5	490.3	481.4	455.7	423.7	374.2	336.5	307.4	269.0	258.9	246.3	232.1	220.9	213.6	212.2	210.6	210.5	208.6	207.0	201.9	196.3	190.9	183.6	168.3	149.5	128.4	109.4	93.65	90.92	84.46	59.38	43.52	34.52	28.74	23.69	19.39	19.58	36.66	83.07	219.2	1427	6649	7193	1031	14.26	5.439	4.838	4.021	3.571	3.952	3.713	3.730	3.659	3.646	3.256	3.398	3.251	3.258	3.146	3.002	2.765	2.689	2.863	2.770	2.673	2.684	2.465	2.644	2.376	2.606
470.0	214.7	393.6	2145	3038	761.7	442.8	449.5	460.3	452.1	443.6	417.6	391.1	348.4	306.5	274.6	244.6	230.1	221.1	207.7	197.4	193.5	190.0	189.2	188.0	185.2	184.1	181.6	176.2	175.3	167.3	154.5	138.0	119.0	102.7	87.96	78.10	76.15	67.12	47.75	35.58	29.46	24.12	19.57	17.19	19.24	28.10	57.53	326.5	1727	4721	5963	2415	18.95	5.910	4.634	3.982	4.096	3.684	3.457	3.511	3.484	3.315	3.156	3.123	2.973	2.882	2.714	2.669	2.586	2.469	2.458	2.647	2.484	2.309	2.433	2.274	2.338
475.0	224.3	290.7	860.7	3592	2166	423.6	408.5	408.4	412.3	401.6	381.0	351.4	312.0	278.7	248.4	220.9	201.6	194.6	183.0	175.3	170.1	169.2	166.4	166.0	163.3	164.4	158.8	158.8	157.4	151.4	140.7	127.5	109.2	96.31	82.53	70.70	64.20	63.14	54.33	38.72	29.83	24.94	20.39	16.81	15.85	15.94	21.43	80.41	391.5	1068	2538	6673	1707	25.55	5.469	4.476	4.191	3.836	3.513	3.331	3.103	3.089	2.969	3.096	2.833	2.589	2.704	2.454	2.273	2.249	2.205	2.296	2.244	2.248	2.260	2.234	2.254
480.0	222.4	250.0	426.3	2516	3821	539.5	383.7	388.7	383.8	375.2	354.8	327.7	295.3	255.2	229.4	202.7	188.9	177.0	169.5	158.1	154.2	151.4	150.6	152.2	150.9	148.1	146.0	146.5	144.3	141.8	131.1	117.6	103.4	92.22	79.34	67.34	59.91	56.77	56.05	43.75	31.46	25.12	20.05	17.35	15.14	13.48	13.35	25.46	94.00	244.1	606.5	3470	6383	1481	19.01	5.284	4.666	3.827	3.663	3.362	3.138	2.968	3.014	2.727	2.618	2.734	2.631	2.419	2.142	2.237	2.230	2.103	2.212	2.166	2.117	2.077	2.171
485.0	208.5	261.2	306.9	1255	4610	1516	359.1	368.4	361.8	353.2	337.9	308.2	276.9	242.3	211.2	188.7	174.0	163.9	155.8	148.3	141.7	143.6	141.2	141.3	138.9	135.9	135.8	137.9	134.9	131.3	122.6	111.1	99.85	85.81	75.47	65.29	56.82	50.53	49.73	48.26	34.52	25.55	20.59	17.86	15.13	13.58	12.08	13.33	27.72	60.38	141.3	884.6	4475	6041	240.5	13.43	5.162	4.248	3.882	3.417	3.325	2.541	3.023	2.656	2.589	2.536	2.542	2.402	2.034	2.209	2.232	2.155	2.173	2.031	2.001	1.914	1.985
490.0	179.6	264.8	273.6	519.6	3091	3748	640.0	334.4	327.8	318.3	311.6	283.0	252.8	222.3	193.8	175.2	161.2	148.6	142.9	135.3	130.3	129.1	127.6	126.2	127.0	124.0	122.7	123.8	122.5	120.8	112.5	103.0	91.73	81.16	70.84	62.25	53.39	46.79	42.36	44.03	39.32	29.21	21.45	18.00	15.74	13.85	12.27	11.27	13.09	19.25	36.89	203.3	1142	3547	5147	2355	21.11	5.363	4.108	3.583	3.316	2.879	2.848	2.637	2.620	2.427	2.468	2.197	2.125	2.080	2.152	2.113	1.990	1.890	1.863	1.844	1.896
495.0	139.1	245.8	273.7	304.0	1110	4531	2156	319.0	296.8	290.6	282.0	258.3	230.3	201.0	173.3	157.5	145.4	136.0	127.8	121.2	116.7	112.9	111.9	112.4	114.0	112.0	110.3	110.6	110.8	108.4	102.6	94.28	84.00	75.64	64.97	59.04	50.40	45.22	39.40	36.25	38.21	33.87	23.39	17.97	15.94	13.35	12.08	10.76	10.30	10.25	13.42	50.57	259.1	801.6	2315	6480	1978	28.38	5.168	4.051	3.586	3.006	2.807	2.713	2.588	2.327	2.180	2.025	2.009	1.745	1.899	1.923	1.758	1.869	1.726	1.946	1.803
500.0	126.0	204.5	276.9	254.8	456.3	3202	3572	393.5	279.4	265.1	262.3	233.6	211.2	181.9	160.1	143.7	130.4	125.2	115.8	110.8	105.1	103.1	102.1	102.6	102.1	101.3	100.9	99.68	100.1	97.52	93.95	86.46	78.85	69.21	61.27	54.54	47.76	42.36	36.62	33.14	33.02	34.58	26.75	19.07	15.93	13.16	11.82	10.43	9.434	8.273	8.006	16.24	62.41	183.7	551.1	3220	6676	1648	21.94	4.730	3.625	2.949	2.938	2.596	2.261	2.231	2.030	1.979	1.955	1.830	1.956	1.826	1.774	1.720	1.714	1.716	1.719
505.0	110.6	173.2	278.7	244.6	279.8	1511	5043	1274	261.5	243.6	236.7	219.6	191.9	168.7	148.1	131.1	120.7	113.7	106.3	101.1	96.21	94.76	92.63	92.96	91.63	91.62	90.84	90.68	90.98	89.52	86.52	80.18	71.37	63.49	56.84	51.44	44.75	39.91	34.69	30.40	28.34	30.56	29.02	21.04	15.81	13.74	11.62	10.27	9.009	7.870	6.842	8.580	18.34	45.52	127.9	803.7	4204	6052	272.3	14.41	4.107	3.163	3.021	2.758	2.261	2.135	1.942	2.037	1.831	1.742	1.847	1.776	1.674	1.652	1.435	1.662	1.496
510.0	100.7	150.8	234.5	247.4	224.9	533.9	3468	3715	462.0	219.5	213.3	192.9	172.0	151.9	131.5	116.6	105.8	100.5	94.80	88.60	84.21	82.49	81.38	82.17	80.86	80.00	80.08	79.24	79.40	78.97	75.99	70.29	62.74	56.32	50.83	45.78	40.12	35.98	32.04	28.55	25.28	24.37	26.05	23.32	17.30	13.37	11.50	10.06	8.499	7.651	7.023	6.649	8.337	14.19	32.45	183.8	1046	3340	4536	1187	20.87	4.283	3.180	2.754	2.315	2.105	1.849	1.950	1.788	1.634	1.651	1.593	1.580	1.541	1.498	1.420	1.436
515.0	100.2	125.4	161.0	247.6	205.4	257.7	1195	5274	1821	203.5	183.2	171.0	150.9	133.0	114.8	101.3	92.66	88.26	81.79	77.22	72.52	71.11	70.37	71.86	70.02	68.77	68.20	69.49	70.00	69.35	65.22	61.49	55.79	50.40	44.98	40.61	36.22	31.97	29.03	25.69	22.48	20.75	20.71	22.43	19.59	14.23	10.89	9.571	8.210	7.188	6.666	6.276	6.037	6.694	10.82	44.62	236.6	752.0	1804	4878	1940	28.06	4.208	3.085	2.633	2.002	2.115	1.793	1.723	1.692	1.568	1.486	1.283	1.450	1.491	1.196	1.397
520.0	90.30	104.0	146.3	225.7	217.2	186.1	414.8	3910	4133	276.6	171.6	158.0	136.7	120.6	101.9	90.21	83.78	78.67	72.92	68.40	65.91	65.07	63.09	64.36	62.67	61.32	61.60	61.41	62.19	60.97	58.55	54.98	49.68	46.17	41.22	36.44	32.50	29.49	26.70	23.69	21.44	18.68	18.04	18.95	19.87	15.64	11.41	9.080	8.094	7.076	6.144	6.115	5.659	5.032	5.863	13.38	56.23	171.5	422.7	2362	5032	1507	21.76	3.570	2.607	2.139	2.058	1.702	1.794	1.765	1.550	1.208	1.284	1.515	1.255	1.067	1.436
525.0	78.87	98.26	128.3	172.7	218.7	165.5	214.8	1787	5730	1110	157.4	140.0	124.7	110.6	93.22	82.34	74.02	69.74	66.00	61.28	59.32	59.04	56.62	55.78	56.52	55.11	55.10	54.99	55.98	54.59	52.56	49.69	44.18	41.31	37.55	33.65	30.01	27.09	24.51	22.78	20.01	17.07	15.95	15.57	17.68	16.98	12.27	9.047	7.967	6.702	5.829	5.560	5.442	5.050	4.622	6.093	15.81	41.59	98.15	580.3	2962	4438	278.0	12.52	3.176	2.440	2.007	1.894	1.566	1.382	1.617	1.431	1.236	1.319	1.370	1.197	1.220
530.0	76.00	88.51	107.5	132.6	202.7	172.5	155.7	553.9	4032	3984	351.0	125.0	109.6	97.50	82.08	72.70	65.44	61.58	57.27	53.56	52.26	51.36	49.25	49.51	49.22	48.57	47.21	47.52	48.05	47.49	45.65	43.43	38.85	35.88	32.20	29.98	26.58	23.97	21.67	20.01	17.23	15.69	14.17	13.19	13.89	15.50	13.89	9.843	7.481	6.383	5.661	5.159	4.970	4.977	4.189	4.183	6.357	12.34	24.75	132.5	727.2	2307	3275	1178	20.18	3.272	2.220	1.910	1.682	1.439	1.467	1.375	1.321	1.235	1.218	1.252	1.130
535.0	66.86	85.14	94.56	102.0	155.0	191.6	130.1	215.7	1303	5591	1539	116.4	98.35	83.31	69.64	62.39	57.09	53.13	49.13	46.56	43.86	42.63	41.73	42.13	41.53	41.39	40.43	40.39	41.44	40.19	39.18	36.56	33.25	30.35	27.98	25.91	22.90	21.16	18.98	17.34	15.73	14.20	12.62	11.91	11.36	11.84	13.67	10.99	7.483	5.826	5.311	4.830	4.394	4.260	4.093	3.926	4.159	5.296	8.144	32.08	164.7	518.4	1222	3496	1770	27.70	2.796	2.127	1.812	1.544	1.426	1.519	1.275	1.262	1.178	1.135	1.148
540.0	67.76	74.94	82.69	88.76	115.6	190.6	126.9	129.8	397.6	3903	4227	183.8	86.15	76.07	63.27	55.43	52.75	47.08	42.99	41.43	39.13	38.31	36.82	36.53	36.90	35.75	36.10	35.99	36.69	35.36	34.32	32.44	29.63	26.70	25.30	22.74	20.94	18.89	17.05	15.74	13.87	12.75	11.78	10.79	10.15	9.398	11.15	11.55	8.456	5.904	5.076	4.635	4.002	3.814	4.145	3.871	3.674	3.411	4.235	9.324	39.19	118.0	283.7	1608	3600	1239	19.12	2.460	2.031	1.622	1.379	1.464	1.233	1.178	1.140	1.094	1.043
545.0	63.26	68.64	74.16	79.52	86.16	162.7	140.5	105.3	164.8	1637	6031	798.0	78.92	69.17	56.40	50.76	45.81	40.92	38.51	36.68	34.66	33.47	32.91	32.84	32.38	31.86	31.65	31.63	31.66	31.92	30.96	28.69	26.08	23.11	21.94	20.51	18.30	17.51	15.03	14.05	13.22	11.35	10.34	9.736	8.859	7.965	8.641	9.815	9.181	6.350	4.570	4.064	3.762	3.578	3.468	3.772	3.498	3.227	3.162	4.150	10.89	28.43	65.81	388.8	1993	3214	278.3	10.68	2.216	1.596	1.371	1.325	1.296	1.088	1.120	0.990	1.054
550.0	58.61	64.99	66.46	68.58	72.89	109.8	154.3	95.81	101.9	468.3	3941	3653	133.3	58.26	48.82	43.09	38.10	35.19	32.51	30.85	28.65	28.61	28.00	26.74	26.92	26.36	26.65	26.36	26.36	26.33	25.62	23.82	21.97	20.14	18.36	16.61	15.22	14.47	12.95	12.28	11.01	9.788	9.048	8.440	7.750	7.207	6.870	7.217	8.231	6.845	4.727	3.877	3.363	3.245	3.004	3.143	3.421	3.103	2.834	2.704	4.358	8.099	16.67	88.95	481.9	1581	2050	1036	19.52	2.281	1.628	1.320	1.257	1.101	1.052	0.940	0.970
555.0	59.21	65.09	65.48	58.12	60.79	71.32	133.4	110.2	77.29	163.1	1160	5303	1094	53.92	42.86	36.46	31.47	29.46	26.05	25.48	24.46	23.40	22.74	21.33	22.05	21.19	21.74	21.54	20.92	21.73	20.42	19.57	17.83	16.46	15.40	13.60	12.41	12.12	11.15	9.949	9.216	8.289	7.810	7.047	6.667	6.249	5.445	5.256	6.247	6.944	5.235	3.833	2.982	2.968	2.937	2.674	2.767	2.855	2.866	2.428	2.558	3.435	5.242	21.72	109.2	355.3	730.2	2225	1289	27.54	1.996	1.565	1.307	1.119	1.051	0.950	0.847
560.0	61.40	59.79	62.06	58.33	53.74	55.88	97.44	124.7	69.18	88.57	319.0	3530	3614	108.2	37.57	31.68	27.39	25.06	23.26	21.77	20.43	19.59	19.52	18.98	18.02	17.78	17.75	18.00	18.02	18.12	18.07	16.66	15.34	14.36	12.67	11.98	10.86	9.407	8.983	8.504	7.942	7.087	6.907	6.235	5.651	5.235	4.580	4.340	4.655	5.642	5.613	4.042	2.890	2.598	2.604	2.432	2.247	2.576	2.617	2.312	2.204	2.310	2.803	6.331	25.76	81.03	168.2	939.7	2256	308.9	18.81	1.881	1.312	1.178	1.063	1.037	0.846
565.0	66.98	64.26	62.76	50.66	48.52	45.96	65.81	132.9	73.75	67.18	116.3	1362	5341	603.2	33.90	27.31	24.64	22.14	20.17	19.12	17.96	17.25	16.44	15.79	14.82	14.66	15.13	15.07	15.19	14.89	14.94	14.28	12.47	11.92	10.76	10.03	9.231	8.600	7.679	7.517	7.032	6.214	6.012	5.444	4.890	4.645	4.265	4.058	3.822	4.083	4.660	4.289	2.926	2.403	2.372	2.058	2.192	2.103	2.255	2.478	1.948	1.854	2.016	2.854	7.098	19.54	39.35	222.4	1131	1860	278.6	9.637	1.544	1.238	1.193	0.912	0.921
570.0	60.38	62.88	59.11	50.03	42.40	40.46	49.50	98.66	93.38	56.68	66.05	369.5	3413	3229	79.48	24.09	20.61	18.30	16.65	15.65	14.70	13.85	13.46	13.11	12.85	12.42	12.10	12.61	12.17	12.30	12.23	11.52	10.47	9.808	8.799	8.408	7.862	7.261	6.387	6.018	5.611	5.246	4.924	4.523	4.183	3.928	3.677	3.514	3.076	2.993	3.364	3.837	3.193	2.437	2.040	1.952	1.946	1.922	1.806	2.033	2.206	1.762	1.749	1.911	2.811	5.687	10.25	51.14	268.0	852.3	1311	721.1	19.75	1.791	1.239	0.905	0.868
575.0	60.65	62.10	61.43	50.23	41.74	34.32	38.77	61.25	106.8	63.26	51.44	120.3	964.6	4687	816.7	23.55	17.21	15.23	14.40	12.81	11.85	11.22	11.03	10.93	10.16	10.58	10.20	9.425	9.945	9.723	9.794	9.340	8.592	8.296	7.173	6.824	6.232	6.090	5.267	5.136	4.824	4.211	4.022	3.632	3.710	3.526	3.067	3.119	2.674	2.400	2.259	2.918	3.193	2.623	2.121	1.669	1.747	1.744	1.550	1.582	1.775	1.986	1.627	1.553	1.800	2.471	3.427	12.76	60.88	191.5	416.4	1285	910.2	28.33	1.586	1.060	0.937
580.0	64.26	58.79	56.27	45.93	34.46	32.56	34.97	43.12	95.02	78.31	45.85	62.49	257.4	3032	3031	60.61	15.67	12.96	12.39	11.47	10.58	9.863	10.05	9.472	9.093	8.778	8.219	8.373	8.449	8.259	8.347	8.120	7.110	7.188	6.110	5.523	5.234	5.264	4.782	4.264	4.191	3.824	3.726	3.080	3.148	2.983	2.831	2.664	2.433	1.948	1.908	2.230	2.838	2.810	2.171	1.574	1.702	1.594	1.534	1.529	1.503	1.932	1.823	1.647	1.388	1.525	1.919	3.974	14.62	44.02	95.54	491.0	1356	313.6	19.56	1.285	1.016
585.0	67.43	62.15	53.61	41.13	33.10	30.65	32.88	35.99	72.11	99.40	49.32	50.90	90.16	1099	4407	395.2	14.97	12.35	11.23	10.39	9.446	8.987	8.604	8.335	7.753	7.457	7.567	7.357	7.573	7.291	7.191	6.618	6.028	5.907	5.550	5.241	4.528	4.428	4.336	3.729	3.395	3.468	2.959	2.784	2.762	2.729	2.455	2.452	2.115	1.877	1.650	1.772	2.109	2.523	2.174	1.728	1.470	1.513	1.471	1.519	1.351	1.561	1.930	1.656	1.320	1.428	1.479	1.872	4.410	10.99	22.52	114.3	600.3	1174	277.7	9.654	1.164
590.0	58.73	59.07	55.02	41.49	30.53	29.53	29.90	31.95	48.63	98.59	65.13	48.46	54.38	290.8	2682	2238	49.74	11.64	10.08	8.934	7.566	7.628	7.216	6.916	6.534	6.180	5.983	6.189	6.121	6.225	5.701	5.703	5.321	4.837	4.428	4.247	3.918	3.655	3.445	3.276	2.997	2.797	2.576	2.384	2.286	2.269	2.261	2.024	1.834	1.644	1.574	1.474	1.508	1.847	2.123	1.856	1.355	1.301	1.385	1.267	1.184	1.254	1.482	1.637	1.544	1.372	1.247	1.313	1.977	3.409	6.023	26.52	139.6	482.8	825.1	485.7	20.98
595.0	52.42	57.02	55.20	42.27	29.30	27.91	26.13	29.56	37.75	71.82	90.31	49.67	45.91	91.49	727.4	3176	568.9	11.67	8.303	7.524	6.654	6.246	5.848	5.482	5.468	5.455	5.074	4.959	5.025	4.986	4.881	4.599	4.546	4.135	3.944	3.757	3.130	3.211	2.918	2.600	2.434	2.336	2.164	2.074	2.019	1.871	1.863	1.671	1.651	1.579	1.423	1.318	1.301	1.267	1.785	1.970	1.681	1.359	1.198	1.108	1.034	1.085	1.241	1.235	1.592	1.625	1.134	1.219	1.279	1.648	2.175	6.742	31.98	108.4	236.5	695.5	339.5
600.0	52.84	59.64	54.86	38.76	26.22	26.74	25.07	28.18	35.32	52.88	99.67	55.18	44.08	48.06	189.0	2059	1938	33.41	8.019	7.127	6.111	5.603	5.082	5.059	4.721	4.627	4.466	4.280	4.652	4.165	4.272	3.855	3.811	3.619	3.395	3.179	2.998	2.495	2.545	2.380	2.092	2.208	1.816	1.774	1.856	1.791	1.673	1.606	1.371	1.396	1.323	1.266	1.141	1.094	1.475	1.633	1.833	1.328	1.174	1.043	1.011	1.016	1.168	1.087	1.293	1.568	1.271	1.126	1.100	1.358	1.343	2.370	7.878	24.80	54.06	242.9	698.1
605.0	54.38	54.35	56.57	38.09	26.07	27.67	25.35	29.98	34.76	45.24	89.78	73.87	45.78	38.54	61.99	757.3	2846	88.59	7.966	6.602	5.995	4.889	4.662	4.654	4.281	4.000	3.842	3.937	4.311	3.870	3.831	3.473	3.269	3.147	2.964	2.558	2.473	2.228	2.222	2.133	1.907	1.964	1.777	1.646	1.610	1.432	1.630	1.406	1.327	1.230	1.181	1.089	1.034	0.996	1.141	1.420	1.642	1.559	1.243	0.982	0.986	0.975	1.135	1.105	1.145	1.400	1.335	1.075	1.054	1.019	1.030	1.278	2.557	6.344	12.97	56.22	290.4
610.0	49.80	55.19	53.50	38.76	28.09	24.92	26.86	30.84	36.13	44.49	68.04	91.39	53.07	39.61	34.93	196.2	1788	1279	33.66	6.174	5.116	4.542	4.412	3.872	3.633	3.504	3.410	3.241	3.452	3.411	3.055	2.973	2.833	2.646	2.423	2.269	2.168	1.945	1.927	1.789	1.665	1.652	1.502	1.438	1.349	1.243	1.432	1.269	1.128	1.070	1.008	0.972	0.894	0.907	1.017	1.037	1.317	1.451	1.319	0.962	0.982	0.869	1.004	1.030	1.012	1.203	1.285	1.274	1.103	1.038	0.985	0.965	1.350	2.147	3.585	13.30	67.03
615.0	50.07	53.72	54.81	38.48	25.75	24.39	27.39	32.11	36.43	45.87	56.07	86.38	66.24	40.77	29.84	57.86	493.2	2141	428.9	6.483	4.648	4.164	4.074	3.382	3.217	2.960	2.897	2.920	2.657	2.973	2.842	2.538	2.416	2.446	2.208	2.168	1.958	1.752	1.682	1.582	1.414	1.146	1.311	1.294	1.183	1.321	1.126	1.194	1.112	0.893	0.893	0.926	0.833	0.879	0.872	0.823	1.111	1.184	1.201	1.075	1.038	0.810	0.901	0.978	0.902	0.933	1.042	1.195	1.180	1.025	0.889	1.004	0.926	1.132	1.364	3.584	15.64
620.0	46.27	52.21	57.61	36.79	25.69	24.71	27.13	30.99	36.74	44.90	51.91	72.36	80.14	43.09	29.04	26.83	126.2	1469	1429	18.16	4.724	3.944	3.552	2.919	2.893	2.897	2.716	2.548	2.457	2.511	2.450	2.302	2.329	2.138	2.001	1.779	1.660	1.714	1.423	1.396	1.436	1.194	1.168	1.162	1.212	1.139	1.027	1.067	0.987	0.899	0.758	0.902	0.718	0.758	0.815	0.823	0.799	1.081	1.104	1.007	0.978	0.853	0.818	1.015	0.974	0.920	0.945	1.020	1.269	1.033	0.915	0.942	0.780	0.888	0.837	1.402	4.142
625.0	45.81	50.78	48.98	36.27	24.97	25.07	26.47	30.92	35.72	45.61	51.05	64.14	86.21	47.93	30.11	19.35	37.72	567.8	2214	69.99	4.957	3.547	3.258	3.180	2.594	2.720	2.562	2.327	2.443	2.355	2.230	2.032	2.063	1.819	1.765	1.591	1.495	1.469	1.448	1.226	1.279	1.165	1.110	1.148	1.153	1.011	1.064	1.001	0.838	0.870	0.740	0.802	0.701	0.705	0.762	0.743	0.764	0.804	1.002	0.968	1.048	0.824	0.884	0.939	0.911	0.879	0.898	1.017	1.239	1.074	1.032	0.897	0.763	0.695	0.730	1.024	1.430
630.0	50.93	54.54	53.22	38.99	25.81	23.22	25.40	30.93	33.77	43.95	51.12	58.85	77.05	58.66	31.47	18.27	18.54	145.0	1523	979.8	18.79	3.721	3.149	2.821	2.533	2.407	2.216	2.128	2.046	2.231	2.117	1.817	1.785	1.635	1.650	1.533	1.414	1.358	1.307	1.308	1.137	1.087	1.000	0.996	0.971	0.945	0.921	0.929	0.859	0.761	0.666	0.717	0.667	0.678	0.685	0.776	0.795	0.731	0.904	0.943	0.964	0.875	0.822	0.849	0.846	0.972	0.855	0.875	1.022	1.016	1.114	0.927	0.806	0.827	0.750	0.765	0.799
635.0	51.48	49.75	51.96	33.59	25.30	22.44	24.50	30.59	32.60	45.42	48.82	55.07	63.04	67.82	36.49	19.06	13.96	38.68	434.3	1799	246.5	4.291	2.885	2.748	2.467	2.241	2.083	1.953	2.109	1.890	1.747	1.564	1.698	1.536	1.505	1.421	1.296	1.173	1.132	1.115	1.122	1.069	0.867	0.842	0.886	0.924	0.851	0.880	0.857	0.642	0.652	0.709	0.670	0.671	0.636	0.706	0.729	0.803	0.759	0.735	0.878	0.895	0.952	0.858	0.868	0.869	0.802	0.812	0.855	0.960	1.006	1.168	0.779	0.791	0.684	0.721	0.635
640.0	56.19	51.30	48.62	38.10	26.14	22.82	23.74	27.80	32.75	42.45	50.76	55.17	56.66	67.48	41.06	20.42	14.03	15.50	108.8	1372	868.2	8.683	3.093	2.813	2.333	2.131	1.724	1.791	1.712	1.607	1.657	1.571	1.577	1.543	1.371	1.370	1.341	1.096	0.937	1.123	1.031	0.929	0.945	0.893	0.857	0.813	0.798	0.816	0.855	0.679	0.717	0.707	0.702	0.637	0.589	0.641	0.707	0.743	0.674	0.657	0.777	0.919	0.896	0.808	0.760	0.795	0.781	0.834	0.825	0.839	0.866	1.062	0.936	0.863	0.655	0.740	0.655
645.0	52.34	51.44	53.19	37.95	25.67	24.11	23.74	28.87	36.20	43.83	49.77	56.45	54.25	59.87	48.93	20.31	14.15	10.46	30.68	589.5	1500	49.34	3.388	2.633	2.128	1.898	1.610	1.814	1.628	1.766	1.706	1.510	1.664	1.433	1.347	1.298	1.334	1.137	0.995	0.954	0.992	0.926	0.895	0.822	0.881	0.941	0.785	0.867	0.749	0.710	0.709	0.638	0.655	0.648	0.661	0.647	0.706	0.702	0.716	0.653	0.704	0.790	0.843	0.808	0.820	0.758	0.763	0.745	0.773	0.799	0.761	0.867	0.954	0.833	0.698	0.689	0.617
650.0	49.46	55.53	58.22	37.53	25.77	22.91	24.55	27.77	34.32	42.63	49.70	55.64	51.45	53.91	52.55	23.33	14.26	9.818	12.64	166.1	1487	373.9	4.077	2.882	2.158	1.989	1.619	1.772	1.515	1.624	1.548	1.284	1.519	1.472	1.412	1.172	1.248	1.101	1.066	1.080	0.899	0.971	0.829	0.799	0.810	0.864	0.816	0.769	0.637	0.640	0.624	0.663	0.565	0.627	0.700	0.634	0.820	0.698	0.619	0.603	0.674	0.813	0.789	0.834	0.817	0.745	0.783	0.688	0.886	0.817	0.825	0.798	0.862	0.863	0.805	0.669	0.639
