Sample:	'1
File name:	章丘二厂6.23 10.15 厂内进水 75倍.FD3
Run date:	'10:30:12, 06/24/2025
Operator:	Administrator
Comment:	'

Instrument
Model:	F-2700 FL Spectrophotometer
Serial number:	23B8-004
ROM Version:	4J14000 07

Instrument parameters
Measurement type:	3-D scan
Data mode:	Fluorescence
EX  Start WL:	220.0 nm
EX  End WL:	600.0 nm
EX Sampling interval:	5.0 nm
EM  Start WL:	230.0 nm
EM  End WL:	650.0 nm
EM Sampling interval:	5.0 nm
Scan speed:	12000 nm/min
EX Slit:	5.0 nm
EM Slit:	5.0 nm
PMT Voltage:	700 V
Response:	Auto 
Corrected spectra:	Off
Contour interval:	50.000

Peak integration
Integration method:	Rectangular
Sensitivity:	1
Threshold:	1.000

Peaks
No.	ApexEX/EM(nm)	Height(Data)
1	225.0/305.0	3557
2	225.0/490.0	197.6
3	225.0/535.0	37.75
4	225.0/590.0	274.8
5	230.0/505.0	183.2
6	235.0/260.0	381.3
7	235.0/515.0	152.9
8	240.0/265.0	464.4
9	240.0/525.0	140.0
10	245.0/270.0	465.9
11	245.0/540.0	131.0
12	250.0/275.0	587.1
13	250.0/550.0	110.7
14	255.0/285.0	669.0
15	255.0/565.0	107.2
16	260.0/575.0	121.2
17	265.0/590.0	140.0
18	270.0/300.0	1887
19	270.0/600.0	150.9
20	275.0/305.0	1781
21	275.0/610.0	114.9
22	280.0/625.0	76.88
23	285.0/635.0	42.59
24	290.0/325.0	514.5
25	295.0/330.0	369.9
26	300.0/335.0	343.8
27	305.0/340.0	290.3
28	310.0/350.0	230.1
29	315.0/355.0	209.8
30	320.0/360.0	206.1
31	325.0/370.0	161.5
32	330.0/375.0	155.6
33	335.0/380.0	162.2
34	345.0/395.0	114.3
35	350.0/400.0	120.8
36	355.0/405.0	101.4
37	360.0/415.0	89.85
38	365.0/420.0	95.37
39	370.0/425.0	84.02
40	380.0/440.0	66.85
41	385.0/445.0	56.54
42	390.0/305.0	8.504
43	395.0/460.0	40.91
44	400.0/465.0	33.66
45	410.0/480.0	23.85
46	415.0/485.0	21.15
47	425.0/500.0	16.50
48	430.0/505.0	14.36
49	440.0/520.0	10.90
50	445.0/525.0	9.453
51	455.0/300.0	9.215
52	455.0/540.0	6.684
53	470.0/560.0	3.372
54	485.0/265.0	2.244
55	495.0/270.0	2.350
56	505.0/275.0	3.634
57	510.0/280.0	3.774
58	520.0/285.0	4.274
59	530.0/290.0	5.280
60	545.0/300.0	9.331
61	550.0/305.0	9.523
62	560.0/310.0	7.260
63	585.0/325.0	3.455

Data points
	220.0	225.0	230.0	235.0	240.0	245.0	250.0	255.0	260.0	265.0	270.0	275.0	280.0	285.0	290.0	295.0	300.0	305.0	310.0	315.0	320.0	325.0	330.0	335.0	340.0	345.0	350.0	355.0	360.0	365.0	370.0	375.0	380.0	385.0	390.0	395.0	400.0	405.0	410.0	415.0	420.0	425.0	430.0	435.0	440.0	445.0	450.0	455.0	460.0	465.0	470.0	475.0	480.0	485.0	490.0	495.0	500.0	505.0	510.0	515.0	520.0	525.0	530.0	535.0	540.0	545.0	550.0	555.0	560.0	565.0	570.0	575.0	580.0	585.0	590.0	595.0	600.0
230.0	133.5	1839	2817	493.6	18.96	6.322	4.508	3.898	3.899	3.162	2.988	2.525	2.475	1.942	1.453	1.256	1.239	1.001	1.006	0.878	0.775	0.655	0.692	0.633	0.626	0.551	0.650	0.478	0.548	0.529	0.456	0.465	0.435	0.382	0.404	0.408	0.398	0.376	0.405	0.462	0.658	0.962	0.770	0.450	0.391	0.470	2.509	7.761	9.320	5.268	1.611	0.401	0.253	0.251	0.257	0.239	0.252	0.250	0.240	0.252	0.223	0.230	0.222	0.268	0.241	0.234	0.225	0.241	0.264	0.226	0.233	0.239	0.226	0.244	0.243	0.302	0.249
235.0	204.6	528.5	2188	2422	471.8	25.69	4.583	4.657	3.922	3.636	2.308	2.899	2.455	1.432	1.647	1.362	1.350	0.993	1.032	0.797	0.906	0.743	0.742	0.701	0.473	0.560	0.616	0.470	0.580	0.544	0.607	0.433	0.442	0.373	0.362	0.347	0.444	0.419	0.341	0.427	0.426	0.656	0.821	0.934	0.785	0.464	0.801	2.197	4.367	7.711	9.057	8.227	3.101	0.750	0.301	0.235	0.276	0.248	0.243	0.207	0.201	0.252	0.275	0.291	0.297	0.206	0.239	0.221	0.280	0.246	0.213	0.247	0.278	0.237	0.246	0.264	0.235
240.0	315.0	242.6	728.0	2558	2391	356.9	13.70	5.195	5.420	3.775	3.248	3.211	2.870	1.761	1.253	1.237	1.433	1.086	1.114	0.886	0.758	0.660	0.674	0.621	0.641	0.608	0.551	0.504	0.548	0.498	0.531	0.524	0.467	0.399	0.406	0.332	0.420	0.379	0.371	0.428	0.402	0.390	0.493	0.697	1.064	0.979	0.662	0.716	1.266	2.695	6.095	12.95	13.50	7.635	2.396	0.413	0.264	0.268	0.242	0.214	0.220	0.266	0.247	0.241	0.258	0.250	0.232	0.219	0.295	0.253	0.275	0.234	0.261	0.227	0.224	0.217	0.232
245.0	241.4	327.8	240.9	1013	3232	2196	242.0	7.856	6.266	4.362	4.732	3.618	2.698	2.028	1.643	1.413	1.436	1.224	1.231	0.890	0.747	0.751	0.654	0.669	0.718	0.549	0.653	0.519	0.527	0.524	0.453	0.499	0.442	0.402	0.401	0.356	0.414	0.366	0.392	0.369	0.343	0.272	0.369	0.448	0.720	1.036	1.065	0.828	0.549	0.839	1.705	5.107	12.03	15.82	13.95	6.289	1.507	0.328	0.240	0.244	0.281	0.211	0.280	0.194	0.265	0.248	0.248	0.255	0.263	0.239	0.287	0.216	0.273	0.242	0.209	0.232	0.283
250.0	96.78	261.5	319.5	316.8	1171	2856	2887	866.5	53.91	5.989	5.087	4.410	3.277	2.677	1.770	1.711	1.560	1.313	1.150	0.963	0.844	0.692	0.679	0.741	0.639	0.539	0.640	0.579	0.599	0.545	0.495	0.486	0.399	0.369	0.435	0.365	0.426	0.357	0.407	0.390	0.359	0.359	0.336	0.383	0.376	0.532	0.730	1.063	1.152	0.918	0.840	1.419	3.181	5.620	10.37	14.54	17.46	14.45	7.148	2.052	0.341	0.259	0.273	0.214	0.258	0.253	0.236	0.256	0.327	0.257	0.261	0.237	0.235	0.281	0.252	0.246	0.251
255.0	46.53	87.59	263.6	372.1	340.7	799.2	2873	4462	1538	33.11	7.095	5.580	3.632	3.057	2.438	1.854	1.648	1.368	1.250	1.017	0.963	0.857	0.778	0.726	0.612	0.605	0.646	0.495	0.549	0.572	0.453	0.498	0.356	0.394	0.486	0.401	0.454	0.348	0.381	0.391	0.364	0.388	0.305	0.369	0.436	0.357	0.381	0.433	0.717	1.085	1.544	1.451	1.210	1.516	2.636	3.840	7.820	18.24	28.74	25.86	10.58	1.548	0.335	0.213	0.322	0.265	0.258	0.244	0.242	0.278	0.279	0.275	0.265	0.269	0.255	0.259	0.241
260.0	34.30	36.99	114.3	381.3	332.3	235.6	983.0	4468	7727	248.9	17.46	6.496	4.101	4.593	2.665	2.191	1.825	1.662	1.394	1.168	0.916	0.921	0.887	0.765	0.684	0.705	0.668	0.539	0.600	0.752	0.584	0.509	0.488	0.519	0.501	0.420	0.391	0.427	0.358	0.413	0.389	0.403	0.405	0.364	0.339	0.312	0.314	0.326	0.407	0.535	1.233	2.168	1.856	1.112	0.954	1.280	2.092	5.438	14.86	32.07	32.41	21.59	8.929	0.754	0.332	0.338	0.292	0.356	0.291	0.286	0.297	0.294	0.345	0.249	0.238	0.291	0.287
265.0	33.73	29.09	45.21	196.3	464.4	241.8	277.9	1730	9999.9	4763	186.6	10.86	5.915	5.098	3.146	2.498	2.436	1.780	1.472	1.171	1.108	1.059	0.804	0.749	0.730	0.651	0.723	0.559	0.720	0.711	0.670	0.456	0.497	0.550	0.509	0.466	0.412	0.357	0.378	0.366	0.425	0.442	0.448	0.313	0.379	0.375	0.300	0.268	0.320	0.369	0.520	1.121	2.005	2.244	1.468	0.807	0.866	1.559	3.787	10.40	22.47	37.49	32.80	17.54	3.855	0.449	0.300	0.307	0.366	0.285	0.302	0.276	0.350	0.244	0.289	0.291	0.315
270.0	68.62	57.49	51.53	80.27	270.6	465.9	302.5	460.1	3577	5961	4978	757.6	35.58	6.955	4.082	3.073	2.858	1.980	1.484	1.267	1.349	1.042	0.958	0.851	0.814	0.658	0.804	0.599	0.762	0.609	0.644	0.597	0.565	0.641	0.609	0.486	0.489	0.402	0.433	0.461	0.439	0.470	0.457	0.434	0.471	0.421	0.460	0.364	0.380	0.357	0.378	0.584	0.864	1.495	2.205	2.350	1.913	1.281	1.339	2.712	5.737	11.78	24.36	31.11	33.78	33.00	12.54	3.488	0.514	0.298	0.344	0.302	0.337	0.307	0.284	0.291	0.302
275.0	184.1	161.3	117.7	65.95	113.8	287.2	587.1	339.0	859.0	1564	5038	8670	993.5	36.94	6.417	3.880	3.462	2.555	1.874	1.446	1.517	1.189	1.041	0.856	0.834	0.843	0.855	0.710	0.885	0.738	0.678	0.719	0.681	0.926	0.842	0.717	0.665	0.547	0.497	0.543	0.579	0.610	0.541	0.572	0.740	0.768	0.693	0.753	0.599	0.536	0.459	0.481	0.548	0.686	1.019	1.483	2.713	3.634	2.256	1.214	1.701	3.017	5.919	7.635	11.74	30.00	48.76	32.26	20.11	3.547	0.458	0.375	0.321	0.333	0.354	0.341	0.285
280.0	437.2	423.1	297.3	133.4	92.20	157.9	450.9	627.1	360.7	460.7	1622	7773	7406	149.5	14.42	5.329	4.568	2.808	2.284	1.572	1.622	1.397	1.281	1.028	0.918	0.809	0.962	0.714	0.788	0.739	0.821	0.850	1.074	1.293	1.555	1.274	1.083	0.756	0.684	0.739	0.843	0.774	0.890	0.973	1.144	1.412	1.257	1.325	1.042	0.825	0.695	0.634	0.508	0.520	0.812	0.814	1.543	2.790	3.774	2.896	1.538	1.400	1.962	2.302	3.357	8.196	19.05	39.15	63.89	31.17	14.14	1.326	0.476	0.365	0.390	0.334	0.335
285.0	973.2	1052	750.3	320.4	131.8	129.4	257.2	669.0	629.3	335.7	659.1	2779	8628	6943	106.8	9.337	6.348	3.673	2.626	1.982	2.038	1.417	1.331	1.109	1.111	1.026	1.126	0.892	0.832	0.816	0.720	0.942	1.482	2.419	2.705	2.458	1.807	1.235	1.163	1.118	1.146	1.383	1.664	1.663	2.237	2.529	2.776	2.753	2.487	1.754	1.265	0.896	0.655	0.599	0.718	0.723	1.095	1.515	2.453	3.914	4.274	2.818	1.827	1.797	2.069	3.375	5.928	11.86	30.82	52.29	62.36	25.15	7.533	0.867	0.443	0.425	0.446
290.0	2090	2129	1546	682.7	221.6	156.8	229.5	451.8	909.3	972.0	836.2	1241	3010	8223	6100	438.2	27.36	5.282	3.521	2.416	2.453	1.918	1.431	1.362	1.181	1.176	1.221	0.947	0.931	0.805	0.974	1.321	2.499	4.220	5.258	4.602	3.190	2.076	1.874	1.870	1.868	2.421	3.005	3.301	4.132	4.615	5.198	5.470	5.081	3.436	2.378	1.788	1.011	0.824	0.759	0.806	1.119	1.343	1.756	2.500	3.572	4.863	5.280	4.610	3.971	3.969	4.462	5.684	9.887	15.97	27.75	34.68	34.61	45.43	17.42	6.732	1.107
295.0	2964	3168	2343	1025	310.5	196.4	258.2	428.0	749.1	1377	1509	1175	1294	2166	4494	6623	657.4	20.27	5.375	3.311	3.010	2.320	1.688	1.401	1.347	1.202	1.503	1.062	1.119	0.854	0.983	1.618	3.423	6.310	7.463	6.284	4.546	3.009	2.514	2.510	2.780	3.243	4.096	4.927	5.670	6.784	7.859	7.946	7.032	4.967	3.251	2.421	1.370	0.982	0.805	0.970	1.155	1.538	1.730	2.264	2.693	3.773	5.138	7.348	8.339	6.796	5.675	5.340	6.199	6.576	8.359	9.022	10.25	27.48	45.22	56.68	28.64
300.0	3318	3539	2646	1156	355.7	214.9	279.4	443.8	711.7	1205	1887	1424	969.8	736.2	1260	6036	5910	87.77	10.77	4.356	3.564	2.498	2.034	1.593	1.457	1.235	1.655	1.024	1.174	1.060	1.017	1.818	3.862	7.289	7.981	6.949	4.787	3.418	2.758	2.999	2.795	3.505	4.405	5.228	6.383	7.974	8.313	9.215	7.895	5.874	3.820	2.578	1.618	1.132	0.959	1.073	1.252	1.566	1.774	2.287	2.808	3.650	4.513	5.833	8.648	9.331	8.309	5.834	5.579	4.734	4.383	3.443	3.173	7.043	14.21	34.03	60.51
305.0	3334	3557	2638	1181	362.0	210.9	280.2	442.5	698.3	1051	1629	1781	974.7	416.9	352.3	1823	9026	4525	70.31	6.945	4.965	2.737	2.167	1.804	1.596	1.420	1.587	1.097	1.150	0.929	1.284	2.104	3.764	6.869	8.504	7.143	4.667	3.305	2.754	2.789	2.966	3.676	4.355	5.447	6.177	7.729	8.444	9.064	8.277	5.854	3.975	2.703	1.536	1.133	0.987	1.065	1.222	1.572	1.991	2.348	2.964	3.683	4.322	5.365	6.475	8.013	9.523	8.319	6.596	4.568	3.401	2.093	1.577	2.272	3.923	8.954	21.88
310.0	2918	3150	2302	1038	331.1	199.8	267.2	416.9	635.1	905.9	1220	1453	1211	431.3	155.6	450.7	2660	4927	5227	305.0	21.16	4.253	2.847	2.599	1.927	1.622	1.799	1.160	1.420	0.993	1.303	1.822	3.272	6.203	7.378	6.388	4.249	3.057	2.495	2.608	2.774	3.275	3.799	4.856	5.547	7.084	7.557	7.959	7.229	5.229	3.447	2.450	1.517	1.095	1.049	1.049	1.299	1.461	1.823	2.170	2.704	3.461	3.896	4.760	5.217	5.875	6.505	7.007	7.260	6.489	4.044	2.181	1.325	1.291	1.573	2.653	5.563
315.0	2266	2473	1842	825.8	287.7	183.3	243.0	369.2	550.6	749.3	944.7	981.3	954.0	699.6	151.2	148.8	629.9	1168	3522	5777	504.9	17.43	4.149	3.294	2.229	1.930	2.037	1.265	1.546	1.084	1.208	1.808	2.893	4.809	6.122	5.396	3.551	2.696	2.236	2.161	2.319	2.818	3.073	3.883	4.561	5.820	5.966	6.572	6.035	4.163	2.805	2.073	1.400	0.995	1.144	1.042	1.238	1.372	1.737	1.813	2.377	2.861	3.421	3.884	4.229	4.584	4.666	4.772	4.853	5.037	4.911	3.966	2.269	1.224	1.111	1.321	1.907
320.0	1855	2043	1508	682.5	253.8	184.7	229.5	329.1	478.9	642.4	784.1	772.7	667.4	654.6	387.5	106.6	183.6	292.4	918.6	4163	4333	382.4	8.475	3.905	2.775	2.099	2.142	1.377	1.588	1.272	1.303	1.639	2.685	4.038	5.243	4.636	3.206	2.233	1.958	1.968	2.049	2.430	2.553	3.328	4.020	4.852	4.886	5.413	4.614	3.314	2.309	1.586	1.196	0.911	0.925	1.039	1.241	1.313	1.646	1.944	2.254	2.680	2.995	3.294	3.377	3.751	4.205	3.604	3.827	3.488	3.300	3.697	3.912	2.565	1.486	0.972	1.065
325.0	1538	1674	1217	577.2	237.7	180.0	221.3	306.1	418.8	549.5	668.0	648.7	518.3	419.5	514.5	218.1	93.73	100.2	231.4	1178	5615	3672	57.89	6.197	3.053	2.740	2.623	1.387	1.645	1.340	1.437	1.465	2.178	3.561	4.295	3.569	2.660	2.153	1.836	1.837	1.813	2.062	2.287	2.763	3.294	3.875	4.145	4.223	3.863	2.696	2.041	1.586	1.027	1.019	0.899	1.018	1.229	1.291	1.491	1.771	2.010	2.283	2.661	2.939	3.026	3.305	3.584	3.042	3.017	2.775	2.365	2.214	2.853	3.455	2.980	1.575	1.022
330.0	1213	1301	933.1	458.3	214.1	175.0	215.2	281.0	360.5	468.0	544.3	523.6	426.8	283.7	311.1	369.9	184.1	69.14	80.38	285.5	1595	3610	3788	1087	16.71	3.553	3.348	1.753	1.855	1.424	1.548	1.411	1.988	2.842	3.505	2.966	2.186	1.686	1.568	1.527	1.549	1.730	1.910	2.313	2.568	3.132	3.164	3.308	2.949	2.196	1.708	1.420	1.006	0.932	0.911	1.045	1.192	1.206	1.423	1.542	1.807	1.888	2.251	2.457	2.617	2.787	2.926	2.653	2.523	2.314	1.920	1.696	1.611	2.069	2.563	2.506	2.205
335.0	957.1	948.6	717.0	379.5	206.1	182.5	204.7	248.0	327.1	394.3	454.5	445.2	364.9	248.8	193.9	226.3	343.8	153.1	54.17	88.06	374.2	846.5	2419	5430	414.8	18.21	4.836	2.426	2.255	1.555	1.770	1.462	1.770	2.405	2.541	2.369	1.870	1.625	1.535	1.297	1.477	1.437	1.793	1.954	2.242	2.593	2.411	2.558	2.366	1.693	1.370	1.305	0.972	0.920	0.988	0.911	1.094	1.183	1.338	1.474	1.673	1.808	2.154	2.239	2.452	2.510	2.479	2.305	2.322	1.894	1.657	1.549	1.441	1.371	1.485	1.471	2.094
340.0	803.5	790.2	609.0	333.1	197.2	178.5	197.7	237.4	307.4	353.0	399.6	395.6	328.1	230.2	167.5	145.5	262.9	290.3	76.33	46.99	104.5	205.1	626.8	3689	3483	349.5	9.633	3.164	2.626	1.912	1.746	1.759	1.770	2.078	2.355	1.957	1.638	1.459	1.333	1.170	1.394	1.305	1.445	1.745	1.876	2.070	2.147	2.209	2.037	1.508	1.231	1.176	0.961	0.907	0.877	0.907	1.007	1.096	1.339	1.483	1.708	1.720	1.969	1.748	2.060	2.180	2.062	2.134	2.174	1.771	1.503	1.488	1.342	1.340	1.250	1.120	1.274
345.0	684.7	682.4	516.6	305.0	194.1	175.8	185.2	230.1	278.8	332.6	364.2	355.2	295.8	222.6	160.2	123.3	149.9	283.9	190.1	49.42	45.87	63.98	154.8	1027	3687	3177	51.80	4.661	3.293	2.212	1.821	1.756	1.637	1.852	1.907	1.749	1.520	1.338	1.278	1.147	1.342	1.134	1.344	1.571	1.705	1.857	1.839	1.882	1.752	1.387	1.094	1.136	0.933	0.945	0.855	0.955	1.029	1.070	1.298	1.470	1.449	1.544	1.744	1.831	1.803	1.967	1.888	1.793	1.880	1.715	1.512	1.479	1.334	1.249	1.146	1.029	1.030
350.0	605.9	563.0	440.4	267.0	179.9	169.1	180.9	213.9	256.7	297.2	320.7	311.7	269.6	211.0	158.0	115.7	107.7	151.7	230.1	135.7	48.73	35.17	51.60	243.3	1040	2930	4582	834.1	16.07	3.134	2.467	1.927	1.705	1.727	1.700	1.579	1.373	1.189	1.129	1.090	1.091	1.121	1.221	1.377	1.484	1.573	1.595	1.615	1.444	1.183	0.968	1.012	0.882	0.953	0.839	0.883	1.042	1.019	1.174	1.337	1.331	1.394	1.667	1.744	1.706	1.759	1.657	1.655	1.664	1.560	1.360	1.434	1.331	1.090	1.139	1.100	0.964
355.0	508.8	493.9	355.6	231.1	169.5	166.8	178.6	201.6	234.0	261.6	287.7	278.4	243.9	201.5	153.5	118.9	99.85	96.70	126.4	209.8	131.2	39.11	31.88	70.35	244.9	686.2	3010	3941	388.5	16.78	3.734	2.415	1.927	1.679	1.637	1.559	1.323	1.214	1.154	1.080	1.083	1.103	1.184	1.215	1.306	1.342	1.444	1.351	1.178	1.033	0.859	0.923	0.985	0.838	0.886	1.027	0.978	1.059	1.060	1.114	1.381	1.283	1.555	1.538	1.544	1.639	1.424	1.447	1.650	1.555	1.362	1.300	1.178	1.147	0.988	1.102	0.990
360.0	459.5	433.4	320.2	206.5	161.1	157.1	171.3	194.2	226.5	249.3	265.3	256.9	227.3	192.3	153.9	120.7	100.1	87.88	85.25	145.9	206.1	67.12	31.32	34.67	68.60	164.4	764.4	2753	4618	326.5	8.918	3.340	2.256	1.660	1.596	1.427	1.260	1.101	1.091	1.055	1.021	0.942	1.041	1.153	1.283	1.271	1.319	1.263	1.193	0.921	0.857	0.860	0.854	0.871	0.908	0.907	0.942	1.037	1.075	1.156	1.330	1.317	1.413	1.402	1.421	1.399	1.540	1.492	1.396	1.271	1.281	1.316	1.156	1.235	1.049	1.028	0.982
365.0	396.1	367.9	282.7	198.6	163.1	154.0	162.9	187.9	217.9	235.7	247.6	238.3	214.2	183.7	150.0	120.4	101.5	89.05	78.94	91.53	179.1	157.6	48.43	28.64	32.27	50.04	183.2	783.6	4467	2974	49.67	5.019	2.634	1.895	1.629	1.485	1.257	1.092	1.120	0.953	1.234	1.035	1.072	1.088	1.337	1.173	1.164	1.183	1.059	0.829	0.852	0.923	0.830	0.744	0.880	0.835	0.872	1.004	0.990	1.084	1.223	1.228	1.310	1.324	1.413	1.482	1.326	1.487	1.622	1.277	1.278	1.229	1.190	1.179	1.044	1.009	1.002
370.0	378.2	339.8	258.7	193.4	159.1	147.1	158.8	181.5	206.2	225.7	231.5	224.7	203.2	179.7	148.5	122.3	108.1	94.07	83.85	78.46	103.3	161.5	130.4	45.15	27.60	26.87	54.61	184.9	1268	2889	3650	907.8	13.78	2.477	1.924	1.599	1.326	1.201	1.202	1.035	1.088	1.004	1.066	0.989	1.170	1.031	1.184	1.124	1.003	0.875	0.824	0.770	0.833	0.813	0.782	0.805	0.847	0.955	1.022	0.998	1.228	1.255	1.275	1.185	1.336	1.344	1.377	1.416	1.435	1.282	1.346	1.132	1.180	1.136	0.988	1.013	0.971
375.0	346.8	289.4	230.7	177.4	154.6	145.6	154.1	170.6	197.4	209.4	214.4	213.3	193.0	169.9	146.1	123.1	111.2	97.98	91.41	80.28	79.50	94.54	155.6	119.5	40.12	26.12	27.95	52.84	291.6	677.6	2363	4372	333.4	12.26	2.248	1.783	1.532	1.446	1.143	1.037	0.940	0.986	1.052	1.025	0.984	0.981	1.141	1.064	0.873	0.785	0.660	0.855	0.807	0.737	0.706	0.740	0.861	0.966	0.991	0.951	1.125	1.170	1.240	1.173	1.316	1.274	1.337	1.257	1.298	1.330	1.144	1.165	1.217	1.193	0.920	1.115	0.996
380.0	316.9	290.8	220.6	170.8	147.4	144.9	148.2	166.7	187.0	201.6	204.7	203.0	185.1	164.6	141.0	126.0	114.3	102.5	92.98	83.60	77.43	74.66	106.8	162.2	62.86	29.93	23.71	24.42	75.39	159.9	613.2	3149	2793	246.1	5.360	2.324	1.627	1.476	1.119	1.175	0.971	1.015	1.100	1.089	1.021	1.031	1.024	0.957	0.964	0.786	0.684	0.776	0.778	0.766	0.727	0.842	0.723	0.911	0.973	0.850	1.012	1.135	1.115	1.159	1.210	1.255	1.284	1.229	1.151	1.216	1.101	1.053	1.108	1.131	1.027	1.098	1.060
385.0	297.7	267.0	212.3	165.4	138.2	142.0	147.1	157.4	179.3	189.6	196.5	193.4	179.0	157.7	137.1	125.9	114.2	106.5	96.83	87.62	79.92	69.40	75.89	134.0	130.3	47.52	25.25	20.59	29.16	45.07	146.5	902.0	2986	2154	38.31	3.168	1.818	1.580	1.312	1.162	1.015	1.059	1.166	1.040	1.017	1.076	0.960	0.914	0.858	0.738	0.731	0.761	0.802	0.679	0.705	0.695	0.816	0.899	0.930	1.044	1.074	1.108	1.049	1.199	1.207	1.370	1.176	1.218	1.067	1.214	1.111	1.058	1.087	1.095	1.078	1.029	0.985
390.0	280.7	258.4	191.6	154.5	133.7	132.9	139.0	151.0	170.8	177.8	190.3	185.9	168.7	152.5	136.6	121.4	114.2	108.7	99.66	92.28	82.78	73.36	68.02	81.27	122.9	106.2	42.61	23.49	21.87	22.57	43.32	210.7	849.9	1912	2149	584.2	10.14	2.137	1.468	1.376	1.145	1.136	1.129	0.949	0.999	0.923	0.957	0.878	0.838	0.688	0.720	0.704	0.741	0.707	0.729	0.728	0.852	0.924	0.906	0.889	0.969	1.068	0.996	1.139	1.173	1.164	1.152	1.133	1.009	1.084	1.087	1.109	1.081	1.047	1.136	1.127	1.001
395.0	262.4	239.3	182.3	154.8	131.6	130.2	136.6	145.5	156.9	167.4	174.8	174.6	162.9	146.6	135.1	122.3	113.8	109.0	99.17	93.04	83.52	75.20	68.03	66.78	75.03	114.3	98.48	36.93	23.74	20.10	22.23	56.56	196.8	450.3	1498	2830	261.5	11.08	2.059	1.693	1.356	1.147	1.092	1.096	0.903	0.976	1.033	0.951	0.723	0.777	0.618	0.765	0.785	0.714	0.794	0.736	0.835	0.845	0.839	0.834	0.850	0.960	1.044	0.997	1.089	1.124	1.037	1.027	1.016	1.055	1.060	1.058	0.954	0.957	1.149	1.165	1.056
400.0	250.0	233.5	181.2	150.8	132.1	122.2	129.0	143.2	149.3	156.8	169.4	168.1	154.2	144.3	128.2	118.0	113.4	108.0	98.85	92.25	85.72	78.42	69.11	62.07	59.99	79.27	120.8	58.21	28.35	22.00	18.94	24.31	52.73	107.3	402.6	2151	2048	213.1	4.273	1.830	1.423	1.294	1.136	1.071	0.973	0.927	0.961	0.906	0.740	0.707	0.649	0.811	0.709	0.762	0.757	0.772	0.776	0.813	0.867	0.881	0.864	0.942	1.027	0.906	1.001	1.121	1.018	0.920	1.038	0.962	1.140	1.070	0.967	1.013	1.087	1.051	1.115
405.0	226.0	210.4	176.5	144.4	123.6	123.1	128.6	132.2	140.7	150.1	162.4	158.8	149.6	136.1	124.2	116.1	110.6	106.0	98.08	90.24	84.30	79.00	70.10	63.35	56.36	58.24	96.25	101.4	44.74	24.23	20.49	18.44	22.05	31.50	96.06	629.4	2062	1917	33.70	2.463	1.479	1.251	1.224	1.085	0.919	0.934	0.968	0.901	0.755	0.660	0.613	0.772	0.720	0.802	0.646	0.783	0.880	0.823	0.908	0.812	0.913	0.858	0.915	1.149	0.862	1.077	1.074	0.965	0.998	0.993	1.039	1.040	0.888	0.913	1.060	0.958	1.061
410.0	223.4	195.4	163.8	136.1	122.1	117.9	121.1	125.1	135.0	143.4	151.0	149.4	139.7	132.3	118.7	111.8	105.4	101.4	94.84	88.85	82.70	76.77	69.47	63.63	56.38	53.65	62.25	91.42	88.63	40.46	24.37	19.72	16.81	16.09	28.44	146.8	598.4	1827	1677	148.9	8.794	1.569	1.484	1.132	0.910	0.907	0.922	0.870	0.690	0.681	0.605	0.736	0.681	0.800	0.738	0.723	0.717	0.818	0.793	0.848	0.833	0.829	0.851	0.924	0.812	1.036	1.008	0.961	0.996	0.855	1.002	0.917	0.937	0.983	0.970	0.957	0.927
415.0	214.5	189.1	151.8	129.1	114.5	109.8	114.0	119.3	129.3	134.9	143.5	136.0	134.6	123.5	111.8	107.0	99.50	94.37	90.65	85.55	79.22	73.95	69.26	63.70	58.16	53.04	52.00	57.90	89.85	83.12	36.25	21.99	17.25	14.04	14.65	38.65	138.5	433.3	1223	2041	235.1	7.361	1.512	1.124	1.070	1.028	0.960	0.942	0.782	0.692	0.627	0.673	0.657	0.691	0.739	0.642	0.697	0.843	0.815	0.783	0.879	0.967	0.918	0.908	0.830	0.928	0.879	0.941	0.933	0.806	0.962	0.840	0.852	0.897	0.914	0.982	0.819
420.0	184.8	178.7	145.2	125.3	111.2	113.5	107.2	115.9	120.5	135.9	137.6	132.6	127.4	115.1	107.1	101.3	94.74	91.07	87.42	83.87	77.12	72.12	67.50	63.15	57.44	53.33	51.10	48.26	64.42	95.37	54.26	26.39	18.70	15.00	12.53	15.71	36.29	101.7	335.1	1592	1674	35.54	3.200	1.480	1.199	1.025	0.926	0.899	0.732	0.711	0.681	0.672	0.689	0.647	0.672	0.599	0.738	0.737	0.738	0.748	0.805	0.931	0.845	0.852	0.862	0.968	0.878	0.967	0.876	0.855	0.929	0.848	0.897	0.882	0.926	0.940	0.844
425.0	183.8	165.3	143.9	125.2	109.6	105.4	104.0	114.3	115.5	124.0	130.2	128.0	118.1	109.1	101.6	96.05	88.99	87.97	84.15	78.58	73.96	70.26	66.63	63.23	57.82	53.35	50.23	47.52	49.50	76.94	84.02	39.20	21.34	15.90	13.01	11.86	14.47	27.93	79.58	472.8	1580	1331	30.18	1.922	1.239	1.031	0.997	0.787	0.666	0.699	0.628	0.714	0.710	0.719	0.683	0.633	0.645	0.756	0.737	0.801	0.774	0.690	0.789	0.831	0.821	0.920	0.847	0.820	0.844	0.838	0.846	0.860	0.709	0.781	0.870	0.843	0.873
430.0	437.9	155.0	138.1	113.9	103.7	99.41	99.50	104.1	109.1	117.7	119.5	120.4	111.0	102.8	94.31	90.32	83.95	81.29	77.63	73.00	69.80	66.40	63.15	61.30	57.57	54.78	50.98	47.79	45.80	52.40	73.56	67.77	33.52	18.49	14.38	11.56	10.43	11.92	22.30	109.9	447.7	1215	1414	137.0	7.666	1.397	1.198	0.804	0.694	0.759	0.624	0.717	0.687	0.701	0.666	0.650	0.683	0.729	0.771	0.730	0.739	0.688	0.849	0.819	0.780	0.882	0.740	0.751	0.802	0.812	0.771	0.753	0.721	0.758	0.838	0.786	0.811
435.0	1427	167.8	131.7	107.8	94.25	95.72	99.45	102.9	104.2	112.1	114.4	112.3	101.6	94.13	89.07	82.74	78.25	74.98	72.06	67.68	66.46	62.35	59.70	58.86	55.28	53.61	50.42	48.23	44.14	44.53	48.85	65.91	60.45	27.27	15.58	12.26	10.54	9.279	10.32	28.29	103.5	285.5	990.9	1789	212.4	8.592	1.558	0.971	0.756	0.818	0.655	0.713	0.698	0.680	0.632	0.650	0.724	0.707	0.665	0.664	0.726	0.676	0.783	0.747	0.746	0.753	0.710	0.603	0.736	0.762	0.742	0.712	0.827	0.683	0.726	0.739	0.771
440.0	2309	327.3	128.3	97.46	95.03	91.31	99.54	96.90	99.55	105.0	109.5	110.3	96.48	92.65	83.49	76.70	75.71	70.47	67.70	65.17	62.84	59.49	58.73	56.51	53.46	51.19	50.39	47.69	44.99	43.99	41.47	48.47	66.85	42.69	19.12	13.26	11.09	9.436	8.503	10.57	26.61	67.09	266.9	1362	1358	177.6	3.678	1.188	0.967	0.851	0.623	0.734	0.673	0.659	0.669	0.623	0.662	0.750	0.647	0.691	0.687	0.723	0.782	0.746	0.742	0.738	0.664	0.650	0.704	0.717	0.808	0.753	0.720	0.646	0.728	0.701	0.821
445.0	2524	864.4	118.9	99.69	94.82	89.40	92.35	92.70	94.19	99.46	104.5	100.7	91.35	84.99	78.86	72.98	71.25	66.44	63.52	61.81	59.15	57.03	55.84	53.92	51.61	51.17	49.21	46.46	45.02	42.50	39.36	38.08	54.18	56.54	28.17	14.86	11.39	9.317	8.443	7.701	10.24	18.45	63.11	398.8	1322	1228	27.16	1.630	1.010	1.004	0.693	0.732	0.711	0.619	0.646	0.585	0.635	0.735	0.553	0.668	0.621	0.640	0.670	0.856	0.703	0.733	0.752	0.691	0.779	0.727	0.670	0.697	0.671	0.688	0.646	0.643	0.698
450.0	1534	1872	294.1	93.36	86.65	86.21	86.49	87.27	88.14	91.16	96.42	91.24	83.45	77.54	70.76	67.32	63.24	60.37	58.78	56.47	53.91	51.49	50.80	49.85	48.74	47.77	46.82	44.45	43.18	40.47	37.43	34.11	36.28	48.23	44.56	22.71	12.53	9.737	8.420	7.214	6.808	7.747	17.11	91.95	375.2	1043	1522	121.4	7.239	1.256	0.837	0.789	0.717	0.658	0.664	0.643	0.652	0.634	0.564	0.703	0.716	0.634	0.655	0.709	0.688	0.638	0.687	0.707	0.747	0.633	0.683	0.660	0.644	0.640	0.688	0.628	0.631
455.0	524.7	1966	1035	97.80	80.86	80.79	75.53	78.23	79.60	84.25	85.11	82.53	73.42	69.18	64.43	60.08	56.20	53.10	53.17	51.05	48.18	47.09	46.57	45.67	44.61	43.79	43.20	40.91	41.06	38.82	36.31	31.48	28.84	30.59	41.00	37.67	17.33	10.26	8.376	7.010	6.290	6.132	7.060	23.38	86.10	243.9	900.7	1055	186.9	10.09	0.974	0.894	0.704	0.642	0.681	0.566	0.628	0.605	0.549	0.611	0.636	0.730	0.574	0.622	0.708	0.663	0.695	0.777	0.607	0.648	0.667	0.611	0.606	0.597	0.689	0.568	0.693
460.0	218.4	1239	1869	217.6	78.26	73.84	70.25	75.53	74.71	74.43	74.62	74.39	70.14	65.40	58.30	53.76	51.48	48.97	48.42	46.18	42.47	42.51	42.23	41.27	40.87	40.50	40.02	38.70	38.75	36.37	34.70	29.53	25.93	24.62	29.31	40.91	26.62	12.10	8.830	7.529	6.292	5.727	5.222	7.945	21.71	56.63	228.3	726.3	1123	161.1	3.247	1.044	0.755	0.734	0.689	0.584	0.714	0.653	0.579	0.640	0.603	0.669	0.609	0.683	0.680	0.555	0.668	0.629	0.616	0.557	0.569	0.547	0.572	0.551	0.607	0.557	0.604
465.0	142.7	547.8	2061	658.5	78.17	69.03	65.90	66.08	71.57	70.07	72.75	71.48	63.07	59.67	52.40	50.38	47.14	45.50	43.62	41.07	39.58	38.37	38.64	38.00	38.02	37.61	36.68	35.95	36.74	34.09	31.57	28.87	24.21	22.04	21.92	31.59	33.66	17.79	9.465	7.250	6.263	5.533	4.944	4.667	7.139	14.80	53.58	202.9	977.9	1308	22.43	2.039	0.953	0.768	0.685	0.628	0.701	0.687	0.636	0.606	0.576	0.571	0.604	0.611	0.581	0.560	0.651	0.593	0.631	0.557	0.713	0.527	0.585	0.451	0.523	0.621	0.597
470.0	175.3	199.1	1254	1608	225.8	63.47	61.28	59.89	63.75	65.33	65.77	63.86	57.17	52.21	46.31	43.88	41.68	40.06	38.58	35.88	35.75	34.87	34.33	33.95	33.03	33.63	33.50	33.04	32.93	31.37	29.16	26.38	22.80	19.80	18.22	19.81	27.98	26.55	14.02	8.069	6.062	5.371	4.731	4.362	4.267	5.408	14.04	47.22	265.1	973.3	835.4	311.7	7.998	0.926	0.784	0.696	0.685	0.680	0.595	0.568	0.636	0.578	0.568	0.553	0.495	0.571	0.540	0.490	0.580	0.602	0.561	0.515	0.602	0.482	0.491	0.585	0.623
475.0	226.5	118.9	404.3	1694	667.6	69.23	53.80	52.64	56.18	56.62	55.16	53.82	47.99	46.95	39.03	38.03	37.43	34.61	34.30	31.47	30.55	29.99	29.44	29.63	29.25	29.16	29.38	29.50	28.47	27.85	26.31	23.95	21.35	17.98	16.55	15.37	16.96	23.70	21.85	10.93	6.396	5.219	4.465	4.456	4.038	3.586	5.265	12.20	60.56	221.9	408.8	983.8	192.7	9.704	0.978	0.831	0.692	0.747	0.590	0.581	0.566	0.548	0.536	0.535	0.596	0.479	0.533	0.555	0.483	0.549	0.465	0.490	0.542	0.531	0.512	0.555	0.555
480.0	231.7	131.7	142.0	1080	1604	172.9	54.31	49.88	52.19	50.91	53.28	48.52	44.89	41.30	37.29	32.99	32.56	31.62	31.10	28.98	27.84	27.11	26.44	27.26	26.17	26.68	25.91	26.76	25.91	26.26	23.99	21.79	19.13	17.18	15.29	13.03	13.18	16.89	23.85	16.60	7.327	5.430	4.824	4.103	3.856	3.880	3.197	4.277	14.88	50.95	99.85	530.6	898.3	175.7	4.079	0.863	0.740	0.736	0.606	0.616	0.472	0.509	0.467	0.520	0.580	0.472	0.466	0.491	0.435	0.457	0.422	0.601	0.470	0.469	0.510	0.416	0.480
485.0	188.5	167.7	87.05	462.6	1883	496.3	52.26	46.65	48.02	47.18	48.05	44.50	41.21	37.45	34.53	31.61	30.32	28.69	28.25	26.82	25.30	25.28	24.39	24.55	24.66	24.50	23.72	24.16	23.96	24.54	22.04	21.23	18.43	16.48	14.54	12.60	11.64	12.06	18.90	21.15	10.87	6.169	4.472	4.329	3.896	3.787	3.216	2.769	4.917	13.07	23.84	137.4	662.0	883.0	27.62	1.960	0.855	0.777	0.555	0.614	0.450	0.494	0.494	0.488	0.546	0.478	0.457	0.472	0.441	0.566	0.400	0.533	0.469	0.502	0.489	0.418	0.418
490.0	131.1	197.6	92.37	157.7	1139	1447	180.1	45.91	44.00	44.89	43.97	43.08	38.88	34.70	31.33	28.52	27.39	25.95	25.17	24.20	23.23	22.67	22.17	22.49	22.24	22.42	21.91	21.74	22.48	22.07	19.91	19.04	16.89	15.27	13.88	12.01	11.03	10.14	11.90	17.47	17.00	9.180	5.302	4.275	3.842	3.674	3.437	2.852	2.812	4.558	6.768	32.21	170.2	534.6	636.7	296.8	10.94	1.060	0.674	0.629	0.563	0.492	0.528	0.489	0.568	0.501	0.452	0.447	0.412	0.454	0.419	0.395	0.472	0.470	0.488	0.413	0.396
495.0	102.8	167.1	133.4	80.33	357.3	1635	809.3	49.89	42.19	39.60	40.18	37.38	34.90	30.19	26.89	24.83	24.03	23.48	22.34	20.96	20.24	19.73	19.24	19.63	20.00	19.41	19.09	19.51	19.62	20.12	17.99	17.51	15.51	14.16	12.88	11.57	10.15	9.388	8.804	10.28	15.64	14.79	7.672	4.378	3.800	3.615	3.247	3.085	2.861	2.743	3.074	8.750	39.41	121.4	280.4	807.7	229.1	14.78	0.870	0.755	0.595	0.493	0.537	0.474	0.509	0.490	0.463	0.429	0.387	0.376	0.373	0.379	0.400	0.413	0.519	0.422	0.446
500.0	68.33	113.0	171.1	68.12	119.4	1048	1503	143.6	39.05	37.35	37.24	33.09	32.03	26.79	25.46	23.42	23.02	21.18	20.22	18.64	17.95	18.17	17.39	17.93	17.34	18.03	18.03	17.81	17.52	17.87	16.68	16.17	14.70	13.03	11.78	10.12	9.774	8.584	8.344	7.799	10.89	16.50	11.13	5.515	4.043	3.703	3.270	2.952	3.030	2.775	2.321	3.615	10.25	28.55	66.91	387.9	897.1	205.2	7.305	0.987	0.675	0.540	0.633	0.493	0.510	0.516	0.521	0.397	0.516	0.425	0.376	0.416	0.368	0.470	0.429	0.382	0.418
505.0	57.67	74.77	183.2	89.13	58.33	438.1	1766	365.3	38.87	35.07	34.02	29.73	29.91	24.86	22.90	21.42	19.82	19.28	18.70	17.17	15.92	16.84	16.29	16.28	16.12	16.28	15.77	16.06	16.52	16.55	15.48	15.09	13.74	12.31	11.19	10.38	9.428	7.655	7.910	7.284	7.708	13.28	14.36	7.850	4.224	3.466	3.246	2.725	2.935	2.898	2.221	2.420	3.612	7.589	16.43	95.92	544.0	814.9	156.6	2.868	0.752	0.569	0.602	0.545	0.518	0.503	0.461	0.386	0.459	0.470	0.491	0.396	0.380	0.403	0.364	0.344	0.454
510.0	51.88	53.15	130.2	129.7	48.52	133.6	1057	1399	172.0	32.73	30.96	27.22	25.30	23.41	20.40	19.10	16.83	16.87	16.38	15.52	14.69	14.68	14.10	14.14	14.14	14.27	14.04	14.07	14.69	14.40	13.98	13.30	12.03	11.17	10.03	9.140	8.678	7.536	7.249	6.447	6.330	7.734	12.20	11.42	6.708	3.884	3.113	2.637	2.592	2.761	2.424	2.215	2.230	3.005	4.927	22.64	133.6	413.0	572.5	246.6	12.14	0.749	0.665	0.514	0.475	0.436	0.417	0.379	0.416	0.413	0.406	0.352	0.374	0.406	0.373	0.357	0.382
515.0	56.01	42.74	66.38	152.9	70.59	55.46	322.9	1666	1208	37.31	27.90	25.22	22.70	20.16	18.01	16.12	14.82	14.87	13.63	13.41	12.76	12.15	12.28	12.52	12.31	12.36	12.24	12.38	12.69	12.74	12.07	11.54	10.44	9.778	9.360	8.875	7.639	6.737	6.432	5.939	5.590	5.477	7.178	10.70	10.28	5.694	3.164	2.475	2.542	2.306	2.364	2.362	2.186	1.942	2.235	6.130	30.91	93.30	194.3	541.0	236.8	16.66	0.869	0.563	0.574	0.461	0.394	0.363	0.384	0.345	0.327	0.408	0.413	0.415	0.369	0.308	0.341
520.0	42.27	38.19	44.36	127.2	106.4	40.59	102.0	1056	2273	115.9	24.22	22.90	20.54	19.07	16.12	15.07	13.74	13.25	13.08	12.35	11.87	11.33	11.44	10.63	11.01	11.05	11.18	10.95	11.23	11.85	11.30	10.38	9.754	8.771	8.551	7.825	6.937	6.337	6.150	5.672	5.160	4.405	5.125	7.364	10.90	7.759	4.010	2.447	2.303	2.143	2.091	2.336	2.313	1.764	1.611	2.285	7.976	21.72	45.12	224.1	626.1	206.5	9.416	0.691	0.657	0.443	0.418	0.394	0.429	0.372	0.317	0.350	0.386	0.389	0.340	0.316	0.373
525.0	44.60	31.84	37.92	81.97	140.0	44.71	44.79	427.5	2642	277.4	23.76	21.29	19.67	17.63	14.54	14.28	12.92	11.71	11.53	11.01	11.09	10.23	9.953	9.398	9.960	9.796	9.607	10.20	9.708	10.55	10.14	9.468	8.554	8.160	8.036	7.268	6.165	5.920	6.052	5.215	5.093	4.252	4.240	5.191	8.640	9.453	5.390	2.703	2.339	2.091	1.933	1.946	2.340	1.754	1.434	1.449	2.782	5.670	10.99	53.37	318.0	534.0	166.0	4.031	0.616	0.455	0.435	0.417	0.364	0.366	0.326	0.329	0.347	0.366	0.334	0.334	0.336
530.0	37.56	32.52	31.16	43.25	127.5	80.88	35.00	127.0	1508	1386	115.0	19.04	17.98	15.12	12.64	12.06	10.97	10.75	10.11	9.534	9.424	9.056	8.507	8.708	8.624	8.548	9.015	8.951	9.094	9.258	8.913	8.275	7.538	7.554	6.786	6.323	5.930	5.359	5.279	4.760	4.447	4.063	3.897	3.931	5.175	7.933	7.353	4.076	2.324	1.980	1.787	1.760	1.818	1.814	1.603	1.294	1.540	2.088	3.162	12.58	75.52	228.3	476.9	139.2	15.04	0.677	0.465	0.378	0.369	0.385	0.321	0.354	0.349	0.322	0.326	0.347	0.332
535.0	36.53	37.75	25.04	28.65	76.53	122.3	41.68	47.45	435.2	1657	763.1	22.73	15.00	14.20	11.57	10.20	9.290	9.585	8.877	7.850	8.484	8.484	7.806	7.505	7.260	7.069	7.633	7.511	7.699	8.000	7.762	7.037	6.781	6.349	6.152	5.788	5.398	4.928	4.648	4.310	3.904	3.748	3.342	3.281	3.467	4.633	6.918	6.325	3.059	1.775	1.624	1.493	1.483	1.504	1.693	1.417	1.116	1.155	1.365	3.448	17.50	51.67	146.8	345.1	248.4	17.73	0.558	0.436	0.415	0.482	0.330	0.377	0.317	0.351	0.304	0.343	0.391
540.0	40.02	32.96	23.01	22.62	44.89	131.0	59.90	28.44	120.5	1021	1600	77.67	13.71	12.10	10.47	9.578	8.756	8.064	7.585	7.211	7.476	7.345	6.701	6.600	6.483	6.603	6.922	6.782	6.871	7.267	6.981	6.493	6.393	5.707	5.539	4.876	4.712	4.636	4.505	3.808	3.557	3.282	3.114	2.808	2.994	2.853	5.033	6.684	4.418	2.209	1.501	1.418	1.366	1.374	1.553	1.675	1.187	0.988	0.975	1.368	4.524	12.03	33.76	131.5	478.4	199.4	9.881	0.550	0.502	0.418	0.398	0.431	0.357	0.303	0.341	0.386	0.338
545.0	45.16	31.52	26.19	22.72	30.00	107.1	91.52	23.84	45.62	386.3	1940	208.1	14.00	11.20	9.352	8.545	7.729	7.609	6.858	6.362	6.248	6.570	5.792	5.828	5.530	5.851	5.927	6.115	6.156	6.451	6.264	6.170	5.385	5.182	5.067	4.395	4.373	4.219	3.934	3.549	3.287	3.050	2.740	2.771	2.686	2.564	3.235	5.679	5.547	2.874	1.584	1.353	1.176	1.073	1.099	1.380	1.511	0.978	0.838	0.898	1.529	3.184	8.070	31.00	212.0	416.9	131.4	4.000	0.455	0.450	0.371	0.366	0.341	0.281	0.392	0.428	0.300
550.0	45.39	39.20	31.07	20.63	20.00	55.05	110.7	39.47	25.57	107.9	1104	1269	70.64	10.42	8.208	7.283	6.250	6.168	6.052	5.600	5.536	5.341	4.936	5.080	4.998	4.976	5.195	5.145	5.075	5.295	5.140	4.961	4.571	4.340	4.256	3.798	3.766	3.461	3.310	2.930	2.934	2.700	2.682	2.365	2.296	2.174	2.182	3.333	4.698	3.912	2.186	1.311	1.036	0.958	1.042	0.956	1.330	1.276	0.868	0.741	0.828	1.182	2.280	7.462	49.51	170.2	263.1	134.9	12.50	0.551	0.404	0.366	0.332	0.333	0.340	0.335	0.326
555.0	55.12	47.98	36.90	21.55	16.68	27.14	92.14	75.90	22.39	38.72	310.6	1605	486.7	12.11	7.472	6.371	5.521	4.898	4.814	4.511	4.615	4.500	4.160	4.383	4.433	4.192	4.435	4.061	4.140	4.342	4.564	4.062	3.679	3.562	3.655	3.289	3.235	2.893	2.678	2.494	2.509	2.137	2.401	2.246	1.978	1.815	1.748	1.894	2.733	3.780	3.190	1.696	0.974	0.876	0.835	0.768	0.860	1.205	1.205	0.730	0.618	0.589	0.916	2.056	11.47	38.46	77.86	239.1	204.2	14.68	0.518	0.415	0.335	0.334	0.339	0.311	0.284
560.0	65.36	68.92	48.88	27.19	14.52	21.22	60.71	103.8	29.02	25.31	90.89	979.8	1130	47.14	7.048	5.764	5.014	4.286	4.501	3.597	3.823	3.798	3.821	3.698	4.120	3.464	3.427	3.615	3.566	3.827	3.776	3.563	3.499	2.992	3.078	3.023	2.979	2.631	2.700	2.455	2.144	1.794	1.966	1.840	1.723	1.704	1.571	1.511	1.745	3.021	3.372	2.266	0.947	0.811	0.746	0.682	0.714	0.893	1.245	0.843	0.596	0.552	0.650	0.865	2.946	9.101	18.02	88.65	280.5	136.9	7.399	0.581	0.359	0.372	0.314	0.281	0.377
565.0	92.69	94.55	60.97	32.67	16.92	17.19	34.91	107.2	46.73	28.03	45.97	371.9	1472	146.6	7.858	5.713	4.442	4.263	3.694	3.372	3.329	3.402	2.955	3.288	3.314	3.126	3.238	3.228	3.254	3.225	3.085	2.984	2.866	2.701	2.596	2.798	2.431	2.443	2.367	2.090	1.844	1.765	1.767	1.640	1.576	1.664	1.486	1.403	1.459	2.045	2.938	2.523	1.214	0.885	0.618	0.643	0.631	0.717	0.901	1.191	0.772	0.611	0.549	0.571	1.143	2.566	4.559	20.92	119.6	255.2	34.37	2.144	0.390	0.424	0.329	0.241	0.351
570.0	153.7	146.1	102.7	49.54	18.97	15.04	24.36	80.01	93.06	43.80	51.18	128.7	874.2	895.4	38.97	5.117	4.339	3.860	3.312	2.953	2.722	2.871	2.653	2.606	2.475	2.675	2.724	2.579	2.657	2.712	2.613	2.649	2.437	2.397	2.466	2.288	2.241	2.067	1.982	1.868	1.741	1.616	1.533	1.487	1.442	1.593	1.388	1.309	1.322	1.364	1.773	2.161	1.768	1.110	0.633	0.637	0.564	0.580	0.619	0.884	1.059	0.775	0.532	0.555	0.736	1.059	1.526	5.101	28.08	102.5	167.9	109.9	10.01	0.443	0.345	0.273	0.318
575.0	201.2	198.9	147.7	68.35	22.60	16.28	23.55	49.89	121.2	72.59	66.28	80.86	271.8	1134	310.2	5.713	3.940	3.182	2.884	2.632	2.473	2.445	2.308	2.301	2.286	2.396	2.150	2.218	2.229	2.260	2.470	2.027	2.242	2.314	2.300	1.929	1.869	1.773	1.631	1.492	1.534	1.561	1.405	1.316	1.282	1.393	1.423	1.214	1.216	1.073	1.063	1.361	1.974	1.597	0.714	0.594	0.511	0.528	0.463	0.640	0.875	1.077	0.754	0.642	0.773	0.773	0.878	1.622	6.700	23.38	49.22	198.2	118.1	14.17	0.337	0.284	0.329
580.0	215.7	244.0	175.5	76.02	26.01	17.53	23.48	39.10	109.6	107.3	75.18	76.30	103.2	698.1	785.0	19.21	3.878	3.069	2.591	2.351	2.368	2.349	2.050	2.181	2.036	2.043	1.806	1.883	2.055	2.155	2.047	1.731	2.033	2.295	2.005	2.022	1.627	1.697	1.542	1.340	1.373	1.364	1.434	1.288	1.223	1.402	1.334	1.276	1.157	1.025	0.934	0.945	1.612	1.733	1.078	0.563	0.562	0.519	0.469	0.598	0.597	1.119	0.998	0.635	0.714	0.744	0.675	0.897	1.991	5.690	11.59	77.11	155.8	124.3	3.934	0.348	0.326
585.0	235.0	259.2	182.0	81.10	29.20	19.82	23.04	33.85	86.12	135.8	92.19	78.48	71.96	262.9	1065	89.49	3.356	2.973	2.156	2.133	1.798	2.137	1.885	1.871	1.777	1.715	1.699	1.681	1.795	1.665	1.716	1.683	1.793	2.047	1.978	1.875	1.427	1.606	1.344	1.287	1.271	1.246	1.342	1.177	1.250	1.434	1.238	1.377	1.120	0.982	0.812	0.738	1.161	1.588	1.391	0.754	0.552	0.454	0.453	0.500	0.548	0.738	1.163	0.987	0.823	0.696	0.712	0.728	0.992	1.680	2.975	18.32	65.62	230.3	30.92	1.669	0.362
590.0	250.4	274.8	209.2	91.04	31.57	19.40	24.62	34.78	64.24	140.0	117.6	86.79	65.58	82.35	633.6	585.8	19.36	2.626	2.216	1.905	1.845	1.930	1.640	1.497	1.587	1.597	1.551	1.429	1.514	1.425	1.590	1.582	1.557	1.798	1.975	1.558	1.377	1.363	1.248	1.170	1.174	1.115	1.147	1.127	1.172	1.394	1.233	1.386	1.128	0.987	0.744	0.692	0.742	1.065	1.320	1.046	0.680	0.538	0.449	0.493	0.523	0.667	0.863	1.078	1.016	0.756	0.733	0.692	0.764	0.868	1.049	4.570	15.47	90.16	86.76	64.05	7.838
595.0	267.9	271.2	203.2	87.25	32.13	20.06	21.14	37.00	55.58	109.3	143.6	89.73	63.97	38.28	175.5	830.2	94.60	2.947	2.020	1.870	1.727	1.681	1.591	1.398	1.209	1.280	1.197	1.219	1.339	1.357	1.299	1.247	1.333	1.820	1.988	1.609	1.354	1.135	1.017	0.974	1.080	0.983	1.098	1.089	0.974	1.237	1.146	1.286	1.154	0.877	0.662	0.501	0.578	0.713	1.062	1.179	0.883	0.610	0.402	0.415	0.509	0.545	0.685	0.879	1.132	1.072	0.745	0.664	0.684	0.652	0.676	1.269	3.796	20.45	25.21	92.86	76.94
600.0	256.6	254.2	183.8	89.30	28.34	19.42	20.34	33.28	52.37	86.85	150.9	93.91	62.41	26.98	46.89	543.5	447.6	9.341	2.037	1.646	1.349	1.544	1.566	1.251	1.270	1.139	1.282	1.091	1.162	1.111	0.939	1.122	1.115	1.499	1.416	1.419	1.320	1.043	0.998	0.893	0.995	0.898	1.019	0.932	0.996	1.046	1.154	1.064	0.999	0.730	0.633	0.518	0.529	0.527	0.601	1.008	0.989	0.709	0.406	0.494	0.475	0.452	0.631	0.693	0.827	1.277	0.748	0.696	0.646	0.552	0.482	0.544	1.077	4.847	5.982	33.37	102.6
605.0	239.4	246.4	186.7	83.14	29.25	18.98	21.44	30.96	47.75	72.32	136.1	103.1	60.49	24.50	16.77	208.3	662.9	56.15	2.004	1.525	1.437	1.500	1.266	1.164	1.125	1.197	1.164	1.088	1.104	1.050	1.018	1.050	1.148	1.228	1.283	1.310	1.224	0.973	0.912	0.796	0.861	0.916	0.861	0.873	0.859	1.006	1.049	1.082	0.961	0.743	0.619	0.533	0.433	0.465	0.448	0.683	1.009	0.854	0.478	0.469	0.445	0.487	0.493	0.606	0.686	1.077	0.929	0.674	0.625	0.524	0.474	0.394	0.507	1.353	1.585	7.936	43.14
610.0	214.6	224.2	168.0	72.39	26.46	16.88	19.32	29.72	44.48	64.24	101.8	114.9	58.75	21.87	9.503	54.95	435.9	340.2	8.870	1.754	1.494	1.495	1.133	1.022	1.005	0.968	1.027	1.082	0.917	0.952	0.970	0.985	0.990	1.127	1.149	1.182	1.039	0.996	0.825	0.713	0.692	0.783	0.768	0.837	0.843	0.988	0.944	0.914	0.887	0.722	0.502	0.470	0.417	0.390	0.386	0.476	0.751	0.863	0.574	0.471	0.486	0.455	0.462	0.616	0.664	0.798	0.920	0.842	0.636	0.510	0.462	0.337	0.356	0.579	0.570	2.016	10.29
615.0	168.0	189.4	149.3	66.98	26.12	15.69	17.54	25.68	40.80	55.15	75.66	103.7	63.72	20.03	7.042	15.61	125.4	522.1	66.15	1.839	1.409	1.351	1.044	0.961	0.994	1.063	0.836	0.826	0.739	0.740	0.851	0.744	0.962	1.171	1.120	1.066	0.845	0.890	0.907	0.703	0.511	0.634	0.718	0.709	0.743	0.895	0.873	0.818	0.753	0.588	0.437	0.438	0.352	0.344	0.313	0.347	0.474	0.749	0.687	0.626	0.490	0.494	0.531	0.517	0.561	0.563	0.642	0.950	0.782	0.449	0.403	0.343	0.331	0.320	0.355	0.656	2.544
620.0	164.6	184.6	127.0	58.25	22.78	16.94	16.46	25.18	36.66	48.08	61.41	84.36	72.26	19.80	6.864	6.743	32.54	372.1	286.8	4.150	1.447	1.482	1.081	0.999	0.920	0.846	0.737	0.771	0.640	0.684	0.666	0.716	0.763	0.929	1.025	0.862	0.681	0.671	0.950	0.726	0.511	0.616	0.535	0.721	0.693	0.687	0.634	0.787	0.696	0.564	0.444	0.359	0.380	0.314	0.314	0.320	0.373	0.568	0.599	0.610	0.576	0.529	0.453	0.448	0.510	0.506	0.567	0.691	0.811	0.502	0.352	0.358	0.374	0.368	0.287	0.418	0.781
625.0	146.0	154.7	118.1	55.43	20.99	14.91	15.78	23.90	32.22	43.96	53.06	65.19	76.88	20.80	6.640	4.564	10.28	150.7	471.7	23.29	1.369	1.460	1.141	0.961	0.758	0.722	0.810	0.735	0.698	0.762	0.674	0.548	0.721	0.974	0.902	0.841	0.692	0.648	0.765	0.803	0.495	0.579	0.582	0.658	0.725	0.693	0.634	0.663	0.656	0.503	0.370	0.343	0.379	0.313	0.265	0.286	0.290	0.381	0.524	0.586	0.579	0.534	0.437	0.454	0.562	0.507	0.512	0.586	0.627	0.680	0.468	0.286	0.332	0.355	0.273	0.296	0.372
630.0	132.3	129.6	100.6	46.74	17.02	13.59	14.84	21.15	29.31	37.84	47.75	48.83	63.10	32.04	7.168	4.336	4.707	39.86	348.9	172.0	4.322	1.522	0.980	0.933	0.868	0.680	0.728	0.646	0.656	0.700	0.640	0.625	0.699	0.781	0.831	0.736	0.678	0.552	0.599	0.695	0.556	0.470	0.583	0.585	0.638	0.655	0.564	0.569	0.542	0.435	0.360	0.321	0.352	0.294	0.267	0.287	0.252	0.379	0.414	0.487	0.574	0.502	0.440	0.407	0.449	0.461	0.458	0.423	0.471	0.548	0.561	0.328	0.285	0.325	0.293	0.313	0.314
635.0	105.9	112.8	87.43	43.89	16.21	11.70	13.63	19.01	24.87	32.27	41.66	39.91	41.32	42.59	9.702	3.763	3.477	11.23	106.4	347.2	44.73	1.834	0.953	0.772	0.705	0.661	0.647	0.655	0.679	0.656	0.530	0.683	0.675	0.658	0.762	0.675	0.525	0.590	0.478	0.454	0.589	0.495	0.552	0.462	0.595	0.578	0.558	0.496	0.441	0.421	0.323	0.342	0.342	0.298	0.250	0.308	0.232	0.281	0.351	0.451	0.465	0.497	0.528	0.378	0.395	0.515	0.435	0.371	0.361	0.400	0.452	0.377	0.333	0.268	0.277	0.330	0.310
640.0	95.37	96.44	74.31	35.94	15.18	11.21	13.33	17.95	22.47	29.18	35.80	32.70	31.13	40.49	15.44	4.174	3.325	4.752	27.30	282.6	184.4	4.217	1.094	0.829	0.751	0.653	0.635	0.722	0.724	0.748	0.593	0.593	0.578	0.546	0.648	0.581	0.499	0.527	0.423	0.424	0.479	0.639	0.536	0.380	0.476	0.435	0.494	0.508	0.386	0.491	0.283	0.266	0.308	0.252	0.273	0.288	0.276	0.266	0.332	0.372	0.403	0.466	0.508	0.368	0.421	0.463	0.402	0.379	0.383	0.364	0.415	0.391	0.415	0.295	0.230	0.307	0.306
645.0	73.88	81.70	59.14	31.34	16.58	10.44	12.81	15.21	21.28	27.67	32.15	30.54	25.54	30.71	22.20	4.456	3.197	3.144	7.990	128.6	341.2	35.48	1.138	0.763	0.818	0.719	0.655	0.593	0.730	0.678	0.540	0.535	0.556	0.550	0.513	0.498	0.506	0.503	0.413	0.344	0.453	0.606	0.507	0.479	0.405	0.438	0.456	0.451	0.408	0.404	0.287	0.347	0.264	0.249	0.284	0.266	0.273	0.213	0.378	0.336	0.326	0.454	0.521	0.446	0.451	0.399	0.414	0.378	0.347	0.306	0.343	0.390	0.418	0.364	0.223	0.233	0.303
650.0	80.06	80.89	57.20	29.57	12.83	9.662	10.59	13.97	19.37	23.39	29.02	26.13	22.40	21.03	25.66	6.164	3.309	2.561	3.340	37.90	355.8	201.8	1.135	0.809	0.846	0.836	0.623	0.625	0.582	0.662	0.569	0.539	0.657	0.564	0.586	0.511	0.417	0.451	0.384	0.435	0.487	0.484	0.573	0.453	0.461	0.442	0.435	0.358	0.403	0.298	0.269	0.351	0.246	0.278	0.260	0.240	0.336	0.291	0.408	0.277	0.289	0.385	0.518	0.400	0.424	0.389	0.386	0.415	0.403	0.293	0.317	0.345	0.352	0.447	0.289	0.237	0.400
