Sample:	'1
File name:	T2025031408创新家园东河道排口.FD3
Run date:	'10:23:58, 03/17/2025
Operator:	Administrator
Comment:	'

Instrument
Model:	F-2700 FL Spectrophotometer
Serial number:	23B8-004
ROM Version:	4J14000 07

Instrument parameters
Measurement type:	3-D scan
Data mode:	Fluorescence
EX  Start WL:	220.0 nm
EX  End WL:	600.0 nm
EX Sampling interval:	5.0 nm
EM  Start WL:	230.0 nm
EM  End WL:	650.0 nm
EM Sampling interval:	5.0 nm
Scan speed:	12000 nm/min
EX Slit:	5.0 nm
EM Slit:	5.0 nm
PMT Voltage:	700 V
Response:	Auto 
Corrected spectra:	Off
Contour interval:	50.000

Peak integration
Integration method:	Rectangular
Sensitivity:	1
Threshold:	1.000

Peaks
No.	ApexEX/EM(nm)	Height(Data)
1	225.0/580.0	104.5
2	230.0/340.0	2021
3	230.0/560.0	94.25
4	230.0/615.0	74.17
5	240.0/525.0	297.3
6	245.0/535.0	240.5
7	250.0/545.0	199.4
8	255.0/280.0	588.5
9	255.0/560.0	161.2
10	260.0/575.0	137.2
11	265.0/380.0	1197
12	265.0/585.0	128.9
13	270.0/300.0	1381
14	270.0/375.0	1199
15	270.0/600.0	126.0
16	275.0/305.0	1640
17	275.0/330.0	1407
18	275.0/610.0	112.6
19	280.0/620.0	94.99
20	320.0/365.0	480.7
21	445.0/525.0	27.19
22	455.0/335.0	5.862
23	505.0/275.0	2.973
24	510.0/280.0	3.152
25	520.0/285.0	4.086
26	540.0/295.0	6.150
27	545.0/300.0	6.933
28	555.0/305.0	7.845
29	560.0/310.0	7.645
30	575.0/315.0	6.915
31	585.0/325.0	6.799

Data points
	220.0	225.0	230.0	235.0	240.0	245.0	250.0	255.0	260.0	265.0	270.0	275.0	280.0	285.0	290.0	295.0	300.0	305.0	310.0	315.0	320.0	325.0	330.0	335.0	340.0	345.0	350.0	355.0	360.0	365.0	370.0	375.0	380.0	385.0	390.0	395.0	400.0	405.0	410.0	415.0	420.0	425.0	430.0	435.0	440.0	445.0	450.0	455.0	460.0	465.0	470.0	475.0	480.0	485.0	490.0	495.0	500.0	505.0	510.0	515.0	520.0	525.0	530.0	535.0	540.0	545.0	550.0	555.0	560.0	565.0	570.0	575.0	580.0	585.0	590.0	595.0	600.0
230.0	61.50	1954	4670	1506	50.78	6.636	5.808	5.058	3.984	4.031	3.851	3.610	3.303	2.996	2.500	2.085	1.823	1.617	1.444	1.338	1.064	1.036	0.923	0.887	0.850	0.783	0.632	0.587	0.624	0.587	0.552	0.513	0.481	0.453	0.371	0.358	0.333	0.308	0.296	0.279	0.331	0.435	0.412	0.298	0.273	0.241	1.618	8.824	15.76	11.97	4.552	0.831	0.239	0.175	0.151	0.182	0.159	0.145	0.130	0.143	0.125	0.130	0.142	0.132	0.113	0.110	0.124	0.129	0.127	0.129	0.127	0.116	0.097	0.142	0.115	0.113	0.124
235.0	105.1	524.1	2846	4998	595.9	89.92	7.613	6.022	5.206	4.808	4.253	3.508	2.941	2.931	2.842	1.886	1.826	1.784	1.249	1.395	1.180	1.172	1.107	0.907	0.874	0.748	0.698	0.597	0.658	0.504	0.459	0.523	0.494	0.462	0.407	0.403	0.302	0.336	0.299	0.263	0.289	0.336	0.338	0.430	0.434	0.414	0.513	2.292	5.784	10.86	16.68	18.58	8.953	1.809	0.241	0.183	0.193	0.180	0.147	0.156	0.167	0.139	0.126	0.108	0.141	0.138	0.115	0.103	0.143	0.140	0.112	0.124	0.118	0.117	0.122	0.143	0.132
240.0	151.6	207.2	830.2	4186	4595	496.7	43.08	9.210	5.432	5.663	5.444	4.031	3.620	3.166	2.457	2.274	1.971	1.468	1.455	1.442	1.183	1.137	1.084	1.083	0.867	0.830	0.652	0.660	0.637	0.563	0.500	0.567	0.478	0.394	0.375	0.338	0.350	0.305	0.303	0.284	0.297	0.330	0.280	0.369	0.477	0.587	0.457	0.719	1.504	3.023	8.066	20.97	26.62	19.56	7.526	1.138	0.193	0.169	0.165	0.188	0.132	0.163	0.141	0.126	0.143	0.143	0.113	0.131	0.139	0.171	0.104	0.153	0.108	0.128	0.146	0.132	0.112
245.0	107.8	205.9	252.3	1404	5635	3915	373.1	22.59	7.417	6.045	5.757	5.263	4.443	3.402	3.060	2.549	2.124	1.567	1.601	1.751	1.352	1.178	1.166	1.094	0.980	0.914	0.768	0.808	0.681	0.586	0.595	0.550	0.552	0.445	0.343	0.343	0.381	0.324	0.317	0.250	0.275	0.289	0.208	0.281	0.385	0.483	0.674	0.629	0.591	0.879	2.049	6.550	16.86	31.76	27.57	17.78	5.485	0.534	0.279	0.216	0.197	0.153	0.120	0.167	0.168	0.139	0.124	0.119	0.144	0.143	0.111	0.152	0.108	0.139	0.140	0.103	0.115
250.0	49.21	150.4	247.2	403.2	1782	5116	6070	1421	96.54	10.50	8.725	6.718	5.473	4.480	3.516	2.641	2.376	1.859	1.943	1.614	1.279	1.265	1.213	1.039	1.067	0.868	0.904	0.772	0.784	0.708	0.587	0.574	0.510	0.438	0.454	0.440	0.387	0.383	0.294	0.279	0.267	0.296	0.262	0.262	0.313	0.318	0.414	0.697	0.868	0.877	0.856	1.705	4.065	9.582	17.14	28.21	32.65	35.40	14.52	5.881	0.681	0.217	0.222	0.181	0.189	0.184	0.165	0.148	0.168	0.159	0.155	0.152	0.131	0.149	0.130	0.136	0.145
255.0	35.47	56.78	169.9	331.1	482.1	1275	5118	9999.9	2045	116.3	12.92	9.877	7.471	5.487	4.310	3.336	2.708	2.393	2.182	1.416	1.574	1.357	1.185	1.175	1.250	0.962	0.893	0.784	0.857	0.739	0.646	0.595	0.533	0.517	0.480	0.458	0.438	0.403	0.358	0.276	0.379	0.303	0.314	0.280	0.312	0.261	0.272	0.386	0.465	0.800	1.162	1.480	1.409	2.325	4.125	6.773	10.98	29.97	58.68	65.64	23.12	6.711	0.495	0.268	0.190	0.217	0.187	0.207	0.240	0.149	0.188	0.204	0.151	0.181	0.132	0.139	0.146
260.0	33.23	36.00	75.01	270.9	346.6	341.4	1498	8610	9999.9	1625	69.01	13.55	9.278	7.228	4.996	4.140	3.244	2.723	2.364	1.789	1.788	1.333	1.326	1.338	1.061	1.063	0.898	0.761	0.809	0.767	0.660	0.599	0.638	0.569	0.485	0.508	0.478	0.366	0.350	0.425	0.377	0.348	0.333	0.329	0.306	0.291	0.246	0.251	0.296	0.407	0.664	1.546	1.730	1.251	1.268	1.818	2.765	7.742	22.39	53.85	79.77	30.76	19.21	3.466	0.326	0.245	0.230	0.253	0.230	0.200	0.197	0.172	0.196	0.187	0.163	0.161	0.191
265.0	39.96	35.83	39.21	131.1	360.2	261.9	385.1	2788	9999.9	9999.9	1194	32.02	12.72	8.986	6.652	4.911	4.067	2.837	2.876	2.121	1.819	1.661	1.493	1.464	1.078	1.167	0.950	0.868	0.749	0.904	0.685	0.732	0.667	0.596	0.493	0.480	0.424	0.434	0.424	0.386	0.415	0.383	0.372	0.367	0.390	0.360	0.237	0.248	0.243	0.261	0.398	0.757	1.449	1.705	1.586	0.885	0.980	2.105	5.352	14.67	38.36	72.24	97.88	28.98	13.47	1.257	0.323	0.261	0.302	0.327	0.294	0.254	0.226	0.176	0.184	0.173	0.221
270.0	89.31	77.09	60.56	65.45	175.1	360.9	314.6	693.9	3244	9999.9	9999.9	4293	74.30	15.44	8.910	7.013	4.968	3.465	3.252	2.685	2.093	1.956	1.578	1.489	1.310	1.305	1.199	1.035	0.905	0.978	0.797	0.903	0.742	0.687	0.599	0.659	0.543	0.515	0.494	0.447	0.508	0.464	0.533	0.447	0.426	0.457	0.401	0.363	0.350	0.342	0.334	0.410	0.664	1.012	1.680	1.840	1.836	1.383	1.588	3.669	9.104	19.75	42.11	61.59	89.11	74.22	53.00	9.770	1.617	0.389	0.317	0.331	0.256	0.205	0.234	0.264	0.225
275.0	207.1	216.5	148.5	91.15	88.30	183.3	462.6	411.9	805.5	2445	8444	9999.9	5995	90.37	16.44	10.25	6.853	4.966	3.976	3.230	2.691	2.107	2.013	1.683	1.477	1.383	1.188	1.176	0.997	1.114	0.955	0.918	0.886	0.938	0.927	0.797	0.779	0.724	0.573	0.571	0.542	0.557	0.688	0.643	0.731	0.687	0.681	0.641	0.600	0.493	0.423	0.430	0.515	0.580	0.706	0.947	1.786	2.973	2.395	1.818	2.520	4.953	9.869	14.45	23.67	45.78	107.7	136.5	30.52	14.01	1.249	0.481	0.370	0.332	0.300	0.318	0.327
280.0	349.0	359.5	259.5	128.6	80.16	99.47	298.7	588.5	382.8	671.6	2326	9999.9	9999.9	1052	57.86	14.33	10.15	7.015	4.934	4.064	3.064	2.522	2.335	1.801	1.594	1.417	1.528	1.398	1.203	1.062	1.092	1.054	0.961	1.161	1.102	1.086	0.902	0.980	0.753	0.732	0.737	0.693	0.804	0.877	0.899	1.064	1.063	1.013	0.994	0.686	0.577	0.564	0.495	0.481	0.449	0.656	0.949	1.794	3.152	3.103	2.200	1.915	2.833	3.939	6.164	11.46	32.13	78.79	127.9	137.2	27.22	9.382	0.827	0.394	0.328	0.310	0.313
285.0	509.8	540.4	389.4	197.1	107.7	94.06	168.3	497.6	604.7	360.6	716.6	3112	9999.9	9999.9	775.2	29.68	13.35	8.649	6.280	4.776	3.473	3.020	2.662	2.249	1.667	1.690	1.603	1.494	1.432	1.283	1.211	1.052	1.177	1.166	1.254	1.341	1.151	1.232	0.936	0.885	0.861	0.938	1.003	1.069	1.369	1.338	1.432	1.492	1.322	0.983	0.739	0.745	0.513	0.469	0.577	0.620	0.657	0.992	1.689	2.908	4.086	3.184	1.863	1.883	2.411	3.670	8.359	19.66	44.78	103.2	148.4	121.9	22.07	4.142	0.568	0.439	0.396
290.0	706.4	797.5	590.9	310.4	158.4	134.2	169.4	306.9	638.1	767.2	616.9	1085	3267	9999.9	9999.9	2968	50.86	13.88	9.505	6.559	4.709	3.886	3.375	2.744	2.300	1.998	1.766	1.670	1.541	1.430	1.309	1.185	1.360	1.493	1.596	1.678	1.524	1.466	1.175	1.167	1.068	1.209	1.280	1.582	1.664	1.784	1.917	2.207	1.813	1.406	0.990	0.940	0.809	0.650	0.725	0.755	0.829	0.952	1.248	1.650	2.575	3.592	4.095	3.770	3.031	2.852	3.707	6.267	11.82	25.94	49.33	83.42	105.8	81.86	78.88	15.07	5.265
295.0	878.7	1022	791.4	433.7	229.7	197.4	222.3	299.6	483.0	921.5	1132	882.3	1219	2579	7035	9999.9	4398	59.07	14.38	9.150	6.577	4.772	4.082	3.016	2.820	2.565	2.072	1.956	1.649	1.488	1.364	1.445	1.374	1.634	2.003	1.737	1.682	1.746	1.272	1.265	1.419	1.291	1.479	1.828	2.163	2.421	2.384	2.790	2.439	1.890	1.403	1.267	1.046	0.933	0.927	0.993	1.075	1.114	1.360	1.650	1.933	2.393	3.244	4.863	6.150	5.159	4.111	4.302	5.412	8.118	13.06	20.27	25.77	34.05	92.92	150.1	125.5
300.0	1022	1118	898.6	499.1	286.3	256.0	282.3	365.2	512.2	807.4	1381	1211	911.6	955.5	1922	9922	9999.9	641.4	39.76	11.52	8.261	5.851	4.802	3.639	2.917	2.717	2.167	2.132	1.687	1.679	1.621	1.519	1.578	1.842	2.044	2.072	1.749	1.722	1.547	1.410	1.530	1.443	1.529	1.884	2.355	2.517	2.782	3.009	2.808	2.153	1.617	1.453	1.317	1.213	1.039	1.194	1.303	1.234	1.628	1.909	2.058	2.362	3.290	4.031	5.356	6.933	6.840	5.478	4.721	4.693	5.524	6.509	7.181	9.085	24.37	62.40	133.8
305.0	1025	1215	985.8	583.3	339.5	305.7	341.4	437.1	596.0	838.6	1265	1640	1077	705.6	699.9	2790	9999.9	9999.9	511.2	22.07	10.91	7.497	5.290	4.454	3.403	3.166	2.402	2.222	1.915	1.948	1.618	1.565	1.631	1.827	1.934	2.096	1.789	1.818	1.669	1.633	1.526	1.750	1.671	2.007	2.270	2.601	3.049	3.021	2.883	2.330	1.702	1.649	1.510	1.379	1.393	1.505	1.339	1.792	1.889	2.243	2.455	2.964	3.487	3.962	4.639	5.883	7.784	7.845	6.493	4.997	4.462	3.970	3.750	3.695	6.681	15.29	38.74
310.0	1035	1228	1038	640.7	402.1	359.4	402.1	514.8	675.9	903.2	1185	1494	1462	887.0	522.4	819.6	2848	9999.9	9999.9	2125	37.10	11.50	7.503	5.578	4.574	3.494	2.913	2.467	2.159	1.918	1.732	1.618	1.641	1.922	2.128	2.175	2.019	1.878	1.780	1.619	1.592	1.717	1.630	2.015	2.400	2.808	3.096	3.288	3.106	2.434	1.980	1.907	1.669	1.539	1.568	1.569	1.781	1.980	2.192	2.617	2.757	3.265	3.751	4.248	4.749	5.465	6.158	6.960	7.645	7.356	6.000	4.539	3.516	2.873	3.159	4.778	9.913
315.0	1108	1277	1098	698.9	448.6	415.5	465.6	570.2	723.4	950.6	1194	1346	1384	1263	659.4	444.6	796.6	2360	5866	9999.9	3412	44.43	11.69	7.746	5.758	4.112	3.753	3.253	2.486	2.136	1.974	1.669	2.042	2.068	2.170	2.057	1.901	2.006	1.620	1.551	1.697	1.672	1.711	1.933	2.557	2.694	3.235	3.577	3.088	2.432	2.069	2.093	1.930	1.800	1.650	1.722	2.110	2.307	2.502	2.793	3.140	3.469	3.946	4.445	5.140	5.537	5.831	6.076	6.234	6.625	6.892	6.915	5.221	3.825	2.776	2.773	3.603
320.0	1164	1505	1297	776.4	499.8	450.1	512.6	610.4	767.5	1004	1230	1364	1329	1271	954.8	444.9	375.0	648.7	1489	7945	9999.9	2540	32.18	10.79	7.218	4.963	4.043	3.300	2.651	2.322	1.999	1.970	2.120	1.945	2.182	1.877	1.766	1.892	1.707	1.654	1.591	1.786	1.931	2.225	2.609	3.322	3.662	4.110	3.844	2.825	2.540	2.270	1.881	1.909	1.851	1.936	2.256	2.473	2.725	2.937	3.256	3.613	4.223	4.648	5.507	5.480	5.952	6.005	6.301	6.087	6.198	6.861	6.605	5.599	3.696	2.546	2.585
325.0	1326	1794	1587	924.0	547.3	477.7	545.6	658.5	815.8	1043	1267	1403	1334	1165	1087	625.7	326.7	294.7	423.5	2150	9999.9	9999.9	419.6	18.43	9.248	6.500	4.811	3.870	3.290	2.737	2.388	2.072	1.883	1.967	2.103	2.090	1.874	1.826	1.696	1.717	1.700	1.859	2.272	2.430	2.664	3.416	4.340	4.891	4.677	3.572	3.025	2.679	2.088	2.139	2.007	2.031	2.422	2.661	2.749	3.117	3.326	3.720	4.494	4.804	5.429	5.552	5.990	6.049	6.551	6.184	6.059	5.968	5.951	6.799	5.476	3.709	2.607
330.0	1362	1900	1792	1119	657.2	538.3	570.5	685.1	843.8	1065	1276	1407	1355	1145	960.1	791.5	489.1	266.5	217.3	565.1	2694	8445	9999.9	1728	30.75	9.292	6.516	4.672	3.819	3.110	2.709	2.079	2.105	2.089	2.062	2.126	1.909	1.779	1.662	1.673	1.710	1.819	2.039	2.414	3.013	3.662	4.374	5.316	5.146	4.159	3.494	3.107	2.688	2.416	2.234	2.350	2.384	2.740	2.811	3.250	3.457	3.807	4.591	4.968	5.609	5.652	6.176	6.333	6.390	6.360	6.027	5.610	5.481	5.558	5.233	4.861	4.393
335.0	1436	1934	1941	1251	779.8	615.0	625.1	721.9	865.8	1073	1271	1386	1358	1169	928.4	712.2	663.5	404.6	214.2	241.9	686.8	1976	5520	9999.9	2839	36.33	9.343	6.589	4.786	3.671	3.083	2.745	2.103	2.323	2.223	2.245	1.946	1.826	1.737	1.570	1.749	1.826	2.149	2.571	3.084	3.937	4.720	5.862	5.684	4.757	3.863	3.741	3.052	2.893	2.437	2.429	2.449	2.839	3.185	3.387	3.573	3.976	4.570	4.768	5.305	5.463	6.296	6.407	6.388	6.310	6.277	5.878	5.577	5.477	4.708	4.282	4.263
340.0	1445	1986	2021	1352	861.5	686.1	660.6	739.7	880.7	1062	1242	1352	1333	1175	932.2	684.3	609.2	558.2	284.2	195.1	259.0	519.0	1401	7572	9999.9	2126	25.50	8.652	5.981	4.132	3.594	2.734	2.342	2.293	2.361	2.281	1.970	1.945	1.762	1.516	1.678	1.859	2.004	2.557	2.958	4.042	4.527	5.785	5.721	4.892	4.075	4.095	3.418	2.975	2.818	2.689	2.838	2.855	3.366	3.609	3.710	4.045	4.651	4.963	5.430	5.223	6.135	6.108	6.186	6.373	6.350	5.797	5.638	4.927	4.621	4.178	3.919
345.0	1340	1874	1941	1380	928.6	730.9	705.5	758.9	868.3	1039	1212	1304	1296	1150	927.4	695.9	550.3	563.7	424.2	227.1	188.4	216.3	384.3	2071	9714	9999.9	364.3	14.19	7.458	5.601	4.337	3.047	2.544	2.391	2.315	2.096	1.878	1.831	1.669	1.695	1.673	1.811	2.010	2.464	2.968	3.918	4.220	5.614	5.427	4.627	4.085	4.199	3.429	3.188	2.978	2.790	2.808	3.145	3.178	3.572	3.756	3.890	4.500	5.221	5.082	5.412	5.780	5.833	6.113	6.115	6.110	5.751	5.337	5.152	4.649	4.243	3.780
350.0	1240	1730	1799	1398	1014	834.2	780.4	811.8	900.1	1028	1171	1247	1237	1111	924.8	716.1	559.9	493.1	491.3	374.3	229.9	186.5	189.8	537.3	2656	7817	9472	1495	25.26	7.380	5.070	3.631	2.961	2.625	2.231	2.099	1.999	1.667	1.675	1.636	1.556	1.796	1.975	2.326	2.768	3.519	4.041	4.981	5.111	4.608	4.006	4.310	3.863	3.528	3.354	3.223	3.250	3.431	3.425	3.525	3.834	4.179	4.581	4.829	4.954	5.177	5.430	5.573	5.672	5.688	5.899	5.604	5.315	5.258	4.719	4.204	3.814
355.0	1133	1608	1693	1392	1103	956.9	880.3	906.4	975.5	1062	1170	1216	1193	1091	931.9	746.1	603.4	504.2	453.8	472.3	365.7	231.0	184.3	227.3	667.9	1831	5236	9999.9	2395	30.29	7.175	4.717	3.481	2.993	2.442	2.063	1.921	1.803	1.708	1.606	1.558	1.799	2.043	2.388	2.674	3.343	3.783	4.841	4.955	4.224	3.981	4.324	4.154	3.915	3.835	3.649	3.598	3.764	3.920	3.900	4.165	4.320	4.415	4.763	5.168	5.437	5.317	5.653	5.288	5.450	5.707	5.467	5.351	5.257	4.564	4.529	4.100
360.0	1095	1512	1611	1371	1150	1034	963.2	979.5	1030	1102	1170	1198	1166	1081	937.7	773.8	639.9	537.6	462.6	456.4	471.8	309.4	216.2	183.3	247.0	475.5	1344	7134	9999.9	386.1	20.24	6.672	4.392	3.441	2.730	2.207	1.936	1.871	1.718	1.624	1.541	1.549	1.941	2.432	2.616	3.314	3.655	4.493	4.515	4.212	3.998	4.359	4.452	4.308	4.098	3.951	4.094	4.149	4.271	4.288	4.319	4.771	4.738	5.041	5.020	5.271	5.191	5.267	5.601	5.263	5.684	5.384	5.653	5.302	4.790	4.545	4.379
365.0	1014	1396	1540	1371	1201	1095	1036	1046	1088	1137	1180	1200	1157	1067	948.5	795.1	671.8	576.7	495.0	448.4	480.7	422.6	269.5	200.7	176.6	193.1	359.5	1998	9139	9129	323.8	11.05	5.544	4.291	3.077	2.502	2.285	2.020	1.881	1.629	1.675	1.529	1.928	2.052	2.424	3.039	3.370	4.345	4.075	4.125	3.964	4.539	4.213	4.490	4.259	3.964	4.224	4.270	4.637	4.409	4.649	4.794	4.700	5.247	5.012	5.289	5.139	5.260	5.302	5.193	5.615	5.279	5.154	5.202	4.717	4.617	4.758
370.0	970.9	1295	1450	1356	1232	1157	1106	1104	1134	1167	1185	1190	1138	1053	940.0	810.5	703.0	614.4	542.5	483.1	456.8	466.7	396.4	266.4	200.1	161.6	165.2	506.3	2538	7342	8379	1310	21.34	6.071	4.043	2.980	2.579	2.144	1.965	1.757	1.747	1.729	1.836	2.079	2.375	2.797	2.994	3.943	3.978	3.889	3.864	4.482	4.412	4.660	4.485	4.348	4.512	4.571	4.688	4.902	5.038	4.895	5.016	5.177	5.097	5.195	5.219	5.195	5.133	5.300	5.224	5.263	5.131	4.800	4.858	4.531	4.930
375.0	957.3	1235	1400	1342	1258	1203	1165	1149	1160	1189	1199	1169	1119	1039	927.9	816.6	734.2	654.7	587.4	524.7	480.5	452.4	462.1	387.7	256.2	195.4	153.1	197.4	620.8	1725	5015	9759	1992	24.57	5.864	3.881	3.078	2.586	2.106	1.989	1.833	1.744	1.905	2.014	2.396	2.764	2.842	3.714	3.779	3.665	3.515	4.684	4.416	4.580	4.790	4.498	4.841	4.698	5.131	5.094	4.799	5.084	5.047	5.481	5.469	5.340	5.498	5.213	5.013	5.428	4.995	5.247	5.052	4.933	5.071	4.666	4.736
380.0	915.2	1197	1313	1310	1279	1224	1184	1176	1186	1197	1195	1163	1106	1024	924.2	821.2	747.2	671.6	612.1	556.0	506.5	462.4	452.0	458.5	337.0	232.6	175.3	148.0	212.3	435.4	1307	6756	8720	317.7	14.85	4.856	3.593	2.859	2.353	2.022	2.045	1.818	1.867	2.080	2.370	2.712	2.808	3.491	3.662	3.644	3.588	4.535	4.365	4.651	4.620	4.448	4.841	4.613	4.791	5.215	5.082	5.070	5.292	5.453	5.491	5.513	5.526	5.043	5.254	5.063	5.054	5.066	5.312	4.956	5.012	4.766	4.824
385.0	900.7	1139	1274	1274	1263	1251	1199	1179	1189	1191	1181	1135	1089	1012	919.7	820.4	745.5	683.3	628.3	578.0	535.2	491.2	449.7	456.1	418.9	284.7	206.3	159.8	141.0	161.6	338.4	1917	7645	6679	249.6	7.760	4.403	3.039	2.545	2.281	1.950	1.831	1.844	2.135	2.296	2.575	2.680	3.544	3.447	3.509	3.425	4.404	4.655	4.439	4.855	4.635	4.655	4.647	5.083	5.161	5.060	5.422	5.156	5.290	5.288	5.353	5.303	4.816	5.234	5.215	4.981	5.061	5.195	4.819	4.982	4.852	4.644
390.0	862.4	1066	1234	1238	1258	1243	1202	1179	1165	1155	1146	1104	1056	989.2	897.0	807.0	744.9	690.6	641.7	594.7	560.6	518.2	478.7	446.7	442.4	381.6	269.4	199.4	155.4	128.4	140.0	472.7	2128	5514	4711	1010	16.66	4.368	3.231	2.633	2.181	2.001	1.954	2.163	2.159	2.578	2.695	3.332	3.325	3.254	3.324	4.226	4.365	4.520	4.764	4.593	4.871	4.941	5.033	5.075	4.941	5.053	4.870	5.128	4.935	5.205	5.026	5.039	5.038	5.045	4.917	4.939	5.007	4.609	5.107	4.900	4.708
395.0	851.9	1029	1176	1199	1239	1223	1191	1152	1145	1135	1108	1073	1025	961.3	879.4	798.1	745.7	689.2	647.8	611.2	574.4	543.2	506.2	466.7	434.1	421.1	362.2	253.5	192.3	149.4	120.4	165.1	512.3	1298	3408	6885	1571	19.88	4.669	3.220	2.489	2.294	2.103	2.352	2.450	2.520	2.648	3.225	3.255	3.110	3.348	4.199	4.182	4.680	4.539	4.583	4.918	4.910	5.051	4.942	4.858	5.142	5.206	5.019	4.822	4.982	4.724	5.007	5.007	5.038	4.715	4.755	4.681	4.564	4.617	4.791	4.868
400.0	798.1	1024	1134	1172	1204	1202	1174	1140	1121	1109	1083	1051	1005	950.0	867.5	784.6	725.9	681.4	647.4	614.9	584.2	555.6	521.6	484.6	442.6	417.2	410.0	318.6	229.9	174.3	132.0	110.1	162.9	322.8	903.5	4808	6154	268.2	12.22	3.817	2.798	2.446	2.184	2.429	2.490	2.383	2.523	3.140	3.124	3.016	3.126	4.049	4.260	4.522	4.760	4.321	4.894	4.892	5.020	4.704	5.141	4.939	5.170	4.764	4.943	4.679	4.546	4.691	4.617	4.693	4.666	4.745	4.551	4.517	4.486	5.042	4.763
405.0	776.9	989.7	1119	1150	1182	1179	1152	1130	1095	1084	1053	1040	980.6	929.5	844.0	769.9	706.6	671.4	634.6	609.3	583.1	557.8	531.1	494.8	457.7	418.3	404.1	377.2	270.7	198.9	152.0	111.4	95.91	112.0	230.5	1369	5379	4723	213.9	6.295	3.446	2.768	2.443	2.409	2.507	2.353	2.697	3.006	3.150	2.926	3.023	4.072	4.211	4.347	4.453	4.276	4.948	4.634	4.916	4.832	4.905	4.809	4.967	4.584	4.929	4.676	4.454	4.546	4.452	4.714	4.546	4.547	4.594	4.665	4.632	5.033	4.688
410.0	753.2	930.8	1077	1113	1141	1151	1138	1109	1071	1053	1038	997.3	954.7	893.1	817.8	743.2	685.7	649.6	620.7	597.7	570.7	556.8	533.1	504.0	471.7	431.2	395.8	382.5	340.6	247.4	179.6	132.5	97.59	77.98	88.51	332.3	1498	3924	3560	897.3	14.60	3.556	2.892	2.555	2.624	2.465	2.667	2.986	3.037	2.970	3.115	3.865	4.105	4.139	4.155	4.118	4.832	4.601	4.850	4.714	4.598	4.753	4.731	4.556	4.847	4.575	4.383	4.290	4.597	4.524	4.343	4.462	4.581	4.529	4.398	4.408	4.563
415.0	707.0	879.4	1004	1050	1085	1108	1103	1084	1053	1011	993.7	956.6	908.1	858.3	783.3	715.0	658.3	625.1	601.7	575.4	555.2	543.1	526.5	505.1	476.9	440.6	403.5	370.0	356.6	309.8	218.3	154.8	114.2	83.66	66.36	107.0	357.5	922.3	2424	4843	1295	17.13	3.676	2.922	2.729	2.611	2.654	2.786	2.821	3.002	2.965	3.779	3.824	4.043	4.033	4.037	4.623	4.418	4.659	4.576	4.545	4.329	4.436	4.588	4.663	4.497	4.142	4.182	4.390	4.270	4.151	4.196	4.633	4.694	4.129	4.094	4.419
420.0	696.2	862.1	971.6	1018	1048	1070	1074	1045	1023	997.1	970.2	928.4	879.3	820.5	757.8	685.2	633.3	603.2	576.9	556.5	539.3	529.1	517.1	495.5	476.0	441.1	405.7	370.3	345.4	333.4	259.6	175.0	128.4	93.87	69.54	63.44	106.8	225.7	635.4	3269	4440	245.9	10.44	3.484	2.959	2.589	2.731	3.028	2.749	2.761	3.002	3.635	3.617	3.716	3.931	4.160	4.427	4.496	4.718	4.743	4.601	4.635	4.594	4.542	4.566	4.507	4.085	4.136	4.127	4.262	4.187	3.948	4.287	4.297	4.011	3.952	4.025
425.0	673.2	825.3	926.4	966.0	1003	1035	1039	1031	1014	984.9	952.4	906.0	855.7	796.7	732.4	657.2	612.5	578.2	555.6	541.5	517.1	515.3	503.9	481.4	472.3	437.1	406.1	371.0	340.2	321.0	292.5	200.9	140.4	104.9	77.15	59.54	56.70	73.14	159.3	917.2	3700	3501	196.3	5.740	3.305	3.088	2.863	3.066	2.830	2.848	2.866	3.402	3.658	3.871	3.699	3.968	4.216	4.433	4.442	4.395	4.551	4.751	4.516	4.505	4.316	4.424	4.073	4.096	4.053	4.103	3.811	3.908	3.936	4.147	3.986	3.954	4.126
430.0	766.3	805.2	896.2	944.2	974.4	990.2	1015	1011	1000	965.2	932.7	887.1	830.5	764.3	700.0	630.7	582.5	551.8	529.3	514.3	498.4	492.9	483.7	469.6	457.9	432.5	405.5	376.6	344.3	310.2	289.8	242.1	169.6	119.7	90.23	68.69	53.54	46.35	56.81	220.7	1003	2712	2808	823.0	14.44	3.624	3.147	3.051	2.809	2.656	2.841	3.336	3.611	3.691	3.710	3.872	4.093	4.086	4.346	4.334	4.523	4.289	4.421	4.283	4.008	4.318	4.065	3.971	3.975	4.020	3.932	3.774	3.868	4.024	3.713	3.751	3.975
435.0	1356	767.1	851.6	905.4	924.1	963.3	995.3	991.8	976.1	954.4	914.4	869.8	797.0	736.6	667.1	602.4	552.8	524.9	502.2	489.7	473.1	466.5	460.0	454.5	441.0	421.2	396.6	373.5	348.6	314.9	277.4	249.3	209.6	144.2	103.8	80.42	60.56	48.13	40.02	68.79	238.6	630.5	1704	3918	1277	18.86	3.779	3.346	3.052	2.622	2.694	3.237	3.583	3.416	3.501	4.000	4.109	4.175	4.119	4.291	4.428	4.334	4.208	4.247	3.877	4.227	4.083	4.164	3.761	3.909	3.852	3.637	3.599	3.482	3.534	3.663	3.490
440.0	2035	923.7	814.1	868.2	897.7	923.8	980.0	985.1	974.1	941.8	917.0	853.0	780.4	717.8	642.7	578.0	532.0	500.6	479.0	469.1	456.7	445.5	444.1	438.1	425.2	413.4	391.0	370.5	344.6	319.4	274.5	240.6	223.0	170.5	118.6	89.34	68.64	52.35	41.02	38.55	70.03	153.7	436.5	2472	3877	235.3	12.65	3.699	3.302	2.883	2.691	3.367	3.420	3.386	3.575	3.731	4.039	4.216	4.147	4.303	4.424	4.287	4.266	4.345	4.030	3.961	3.985	3.904	3.701	3.890	3.595	3.581	3.571	3.641	3.377	3.484	3.377
445.0	2328	1462	809.0	836.5	870.3	915.9	951.7	964.7	955.5	917.0	881.6	824.4	757.1	692.0	621.7	554.9	508.1	481.9	463.7	447.2	433.5	426.5	425.4	419.3	411.7	398.3	380.8	363.3	342.2	316.3	276.9	234.6	212.2	189.2	135.2	96.31	73.96	57.28	44.15	34.72	34.97	49.57	109.2	672.6	2953	3247	187.6	7.710	3.571	3.051	2.915	3.025	3.247	3.545	3.433	3.634	3.895	4.068	4.093	4.335	4.146	4.329	4.330	4.208	4.135	3.844	3.923	3.662	3.532	3.596	3.374	3.478	3.533	3.501	3.309	3.391	3.320
450.0	1612	2683	1024	774.5	821.9	868.9	896.2	919.4	919.3	878.6	843.5	785.1	716.6	648.3	581.0	517.4	472.2	446.9	426.2	410.0	400.9	397.4	392.7	390.2	383.8	374.3	361.7	348.8	331.3	309.3	272.6	230.6	200.2	180.6	154.7	112.4	82.13	63.83	48.91	39.14	31.30	29.02	37.86	161.0	778.0	2236	2344	784.8	13.64	3.688	3.140	3.193	3.280	3.354	3.443	3.569	3.734	3.777	3.864	4.029	4.079	4.208	4.177	4.059	3.815	3.732	3.643	3.566	3.528	3.499	3.243	3.250	3.289	3.247	3.215	3.054	3.142
455.0	785.9	2807	2272	750.1	763.3	800.4	843.1	868.6	863.0	834.7	801.0	733.6	662.1	601.2	532.4	475.0	434.9	410.7	388.1	378.4	361.4	359.4	359.4	354.8	352.4	346.4	336.9	327.3	309.6	294.1	262.3	227.2	191.6	165.6	151.2	131.3	94.04	69.83	54.53	42.98	34.42	26.98	24.37	47.87	182.8	514.1	1167	3107	1176	16.88	3.679	3.424	3.136	3.241	3.203	3.488	3.713	3.584	3.744	3.658	3.943	3.684	3.986	3.851	3.574	3.163	3.383	3.284	3.093	3.252	3.234	3.160	3.095	2.862	2.907	2.789	2.750
460.0	511.7	1853	3542	899.8	733.0	754.7	792.2	817.7	814.4	794.4	751.4	693.6	621.1	562.4	498.1	442.7	402.4	381.6	357.0	347.9	336.6	331.1	330.6	330.6	325.6	318.6	311.6	308.3	292.0	279.0	250.9	220.0	187.2	160.2	139.8	132.1	106.1	74.47	59.04	45.33	36.82	28.73	22.94	24.67	51.89	123.8	285.3	1649	3072	859.6	13.06	3.843	3.448	3.352	3.209	3.478	3.307	3.654	3.589	3.418	3.709	3.757	3.644	3.625	3.479	3.205	3.205	3.095	3.211	3.083	2.918	2.651	2.755	2.893	2.614	2.589	2.663
465.0	440.7	989.1	3859	1981	684.1	704.7	748.5	769.1	772.8	755.1	712.4	655.4	590.9	523.6	464.6	410.7	376.6	352.0	329.0	323.3	314.6	308.3	306.6	306.4	300.7	294.1	290.4	283.0	276.0	264.6	239.3	212.1	180.2	153.5	130.9	121.1	111.6	82.63	60.61	47.82	38.26	30.62	23.84	20.61	23.51	37.55	72.01	419.6	2022	2634	166.7	10.46	3.707	3.255	3.137	3.199	3.463	3.455	3.523	3.479	3.500	3.585	3.358	3.204	3.279	3.203	3.066	3.156	3.016	3.004	2.866	2.573	2.761	2.756	2.413	2.424	2.546
470.0	425.2	585.5	2308	3819	1021	642.5	673.6	701.6	697.7	685.0	650.2	603.9	539.3	474.4	420.2	368.6	338.6	316.6	297.0	287.7	280.0	275.4	274.5	273.1	271.3	266.9	260.1	256.5	250.7	241.6	220.7	194.8	170.1	145.8	123.2	108.6	100.7	90.21	67.54	50.12	39.21	32.49	25.95	21.27	18.63	19.41	25.38	101.4	509.7	1463	1889	816.9	15.57	3.709	3.246	3.150	3.324	3.272	3.155	3.199	3.328	3.189	3.275	3.263	2.895	3.069	2.796	2.897	2.663	2.596	2.426	2.426	2.457	2.332	2.245	2.393	2.371
475.0	398.5	445.4	938.0	3698	2614	608.7	607.6	620.2	633.3	614.7	589.0	547.3	482.4	424.9	377.3	328.9	299.8	278.9	263.1	256.3	246.5	242.0	242.0	239.0	239.1	234.4	231.7	228.1	224.3	218.3	201.7	178.8	157.8	136.6	116.4	102.3	88.79	84.60	75.84	54.91	41.10	33.50	27.53	22.82	19.03	16.53	15.65	30.79	120.1	332.8	671.0	1873	1137	22.34	3.809	2.981	3.018	2.975	2.962	2.836	2.892	2.784	2.903	2.853	2.792	2.644	2.484	2.641	2.431	2.489	2.246	2.406	2.089	2.159	2.137	1.986	2.189
480.0	366.7	421.8	542.8	2264	4130	929.9	564.5	575.7	594.6	578.3	553.2	508.8	451.2	395.4	342.8	302.9	278.9	258.1	243.9	234.9	229.5	221.5	221.5	219.0	217.0	211.9	213.6	210.8	207.5	203.4	188.6	168.7	148.9	129.5	111.5	97.53	85.10	75.18	75.06	61.23	44.31	34.60	28.91	24.78	19.68	17.20	14.55	15.85	34.52	80.34	159.0	788.4	2099	940.8	17.97	3.302	2.994	2.999	2.789	2.758	2.693	2.948	2.899	2.797	2.661	2.453	2.380	2.456	2.219	2.292	2.181	2.180	1.910	2.113	1.943	2.040	2.036
485.0	344.3	423.0	429.8	1074	4259	1973	538.1	541.2	564.7	547.4	515.0	469.5	418.3	370.4	320.0	285.1	260.9	236.5	228.2	216.5	211.2	205.9	204.9	204.2	202.1	200.4	198.4	197.1	193.6	191.1	178.1	160.7	142.9	125.7	108.4	94.33	81.20	71.35	68.37	64.73	49.43	36.29	30.19	25.08	21.52	18.05	14.62	13.26	15.89	24.54	41.26	192.5	1115	2039	208.8	12.32	3.199	2.899	2.819	2.738	2.821	2.549	2.906	2.564	2.532	2.167	2.198	2.372	2.129	2.010	1.935	2.070	1.887	1.905	1.819	1.846	1.972
490.0	291.8	402.3	400.1	557.8	2458	3933	945.2	505.9	519.2	503.9	475.1	439.8	388.2	341.4	295.6	261.8	237.1	217.6	206.6	195.7	191.2	186.2	184.4	185.4	184.6	182.3	180.1	177.7	176.9	173.9	163.7	148.1	132.6	118.2	103.4	89.39	78.66	69.67	61.34	60.02	54.20	42.05	31.63	26.85	23.10	19.76	16.75	14.49	12.81	12.88	15.42	48.54	270.2	916.3	1485	847.7	18.42	3.828	2.982	2.799	2.692	2.431	2.627	2.365	2.237	2.197	2.198	2.278	1.999	1.858	1.835	1.868	1.779	1.700	1.628	1.643	1.587
495.0	241.8	372.2	412.9	409.2	919.6	3872	2645	509.7	472.5	455.5	438.2	402.9	357.5	313.6	267.2	235.8	212.2	196.9	186.5	176.2	172.3	164.8	163.1	162.3	164.0	160.9	161.5	160.3	156.6	155.9	148.6	137.2	122.2	109.3	94.31	84.63	74.66	66.02	58.09	52.69	52.44	48.38	36.79	28.52	23.89	21.31	17.89	15.48	13.14	11.33	10.87	17.03	65.60	209.5	506.3	1613	1306	26.47	3.468	2.827	2.482	2.430	2.474	2.161	2.104	2.035	2.038	1.969	1.805	1.933	1.642	1.589	1.600	1.563	1.451	1.491	1.506
500.0	207.2	293.6	400.6	359.8	478.7	2305	4358	772.2	434.6	425.5	402.5	371.7	327.8	283.3	243.8	213.6	192.4	178.9	168.5	160.3	156.3	150.9	147.1	149.1	149.6	147.4	148.1	147.2	143.0	142.9	138.4	126.5	114.1	100.3	89.69	80.23	70.91	62.23	55.70	49.63	46.12	47.10	40.62	30.38	24.97	22.06	19.09	16.28	14.02	11.66	10.29	10.06	20.20	51.71	119.5	618.1	1882	985.0	21.24	3.124	2.538	2.273	2.142	2.220	2.194	2.014	2.019	1.881	1.812	1.930	1.447	1.418	1.439	1.420	1.317	1.412	1.400
505.0	171.9	260.0	387.4	350.8	344.7	1009	4659	1837	408.4	386.9	373.7	342.8	298.5	256.0	225.2	199.1	177.5	165.1	153.0	146.7	143.4	136.8	133.6	134.2	135.5	133.9	135.2	133.6	134.1	130.2	126.3	117.9	105.3	93.39	84.68	75.11	65.22	59.72	52.81	46.17	42.31	42.44	41.93	33.28	26.57	22.25	19.96	16.45	13.75	12.54	10.63	9.099	10.38	16.76	31.47	147.1	834.8	1819	234.2	14.54	2.562	2.331	2.123	1.944	2.118	1.720	1.828	1.777	1.523	1.531	1.606	1.679	1.388	1.379	1.380	1.370	1.243
510.0	167.8	225.0	310.6	347.2	301.1	463.7	2627	3768	771.2	348.2	332.8	304.8	269.6	229.5	200.4	174.6	157.0	145.8	136.2	130.4	124.9	121.6	118.7	118.5	117.7	117.6	117.8	117.5	117.3	116.1	113.0	103.7	93.17	83.45	75.87	67.71	60.79	54.27	49.48	44.33	39.60	37.26	37.94	36.07	28.78	22.62	19.69	16.63	14.46	12.78	11.09	9.401	8.440	9.144	11.97	37.05	197.3	718.6	1194	737.2	80.12	3.021	2.229	1.877	1.830	1.687	1.666	1.631	1.460	1.294	1.442	1.352	1.319	1.308	1.055	1.227	1.124
515.0	143.5	185.5	236.9	318.9	290.7	306.4	884.1	4230	2220	348.7	293.1	267.6	236.8	206.6	177.6	153.5	137.3	127.8	120.0	111.9	108.9	106.2	103.3	103.6	101.8	102.3	102.8	103.0	101.6	101.7	98.24	90.28	83.12	74.92	67.46	61.50	54.83	50.25	45.00	40.56	36.61	33.67	31.31	33.31	31.86	24.44	20.07	16.93	14.80	12.39	11.24	10.13	8.314	7.313	7.354	12.56	47.89	163.6	350.2	1128	1010	27.00	2.759	1.922	1.654	1.576	1.444	1.363	1.436	1.278	1.206	1.418	1.188	1.119	1.082	1.190	1.059
520.0	143.2	170.2	204.8	274.1	287.2	247.2	398.4	2559	4514	610.3	268.8	243.4	213.5	184.8	158.4	139.7	122.9	113.6	106.7	101.5	98.52	94.97	92.49	92.49	92.54	91.80	90.66	91.36	91.43	91.05	89.29	81.77	74.79	69.61	61.33	55.97	49.72	46.21	42.58	38.65	35.12	31.53	28.53	28.71	31.12	26.78	20.21	16.40	14.91	12.42	11.11	10.10	8.591	7.446	6.320	7.048	14.43	39.70	82.04	401.2	1293	741.6	20.94	2.082	1.706	1.489	1.343	1.488	1.298	1.112	1.128	1.168	1.148	1.018	1.110	1.101	0.926
525.0	129.0	153.5	180.2	225.8	297.3	231.2	264.9	1066	5296	1612	251.4	225.9	194.8	171.8	143.5	125.9	111.4	103.1	97.77	91.10	87.83	86.05	85.04	84.28	83.15	82.52	81.42	82.53	82.69	84.08	80.87	74.08	69.20	62.15	56.68	51.64	46.02	42.64	39.20	36.08	32.62	29.52	26.96	25.65	27.00	27.19	21.68	16.62	14.32	12.49	10.97	9.741	8.725	7.607	6.141	5.572	6.877	12.23	21.52	94.93	541.2	1251	232.6	13.37	1.873	1.607	1.330	1.366	1.097	1.145	1.100	0.962	0.977	1.002	1.070	0.970	0.790
530.0	117.2	138.7	154.3	177.1	250.4	235.6	218.5	412.9	3036	4377	592.6	198.5	175.0	149.8	128.1	109.5	97.72	89.11	84.51	80.20	76.60	74.48	73.38	73.07	71.70	71.10	71.65	71.33	72.62	72.77	70.27	65.45	60.28	55.25	49.97	45.08	41.84	38.87	35.19	32.33	29.17	26.72	24.62	23.12	23.16	23.94	22.57	17.52	13.80	12.10	10.49	9.032	8.282	7.479	6.228	5.355	5.089	5.782	7.602	23.96	127.0	475.9	814.6	536.5	18.22	2.130	1.434	1.320	1.088	1.106	1.030	0.936	1.000	0.906	0.786	0.891	0.785
535.0	92.59	119.3	135.6	146.6	182.6	240.5	188.8	226.0	930.7	4755	1790	199.4	153.8	130.8	109.3	93.47	84.93	77.17	71.20	69.03	63.93	63.60	62.49	62.31	61.45	60.20	59.12	60.87	61.89	62.14	60.02	56.60	51.91	46.98	42.94	39.28	36.26	33.87	30.58	28.25	25.61	24.12	23.12	20.46	19.51	19.46	20.02	18.67	13.84	10.86	9.801	8.598	7.488	7.103	6.183	5.284	4.416	4.250	4.104	7.641	30.66	108.3	229.8	749.6	692.9	25.83	1.816	1.344	1.108	0.910	0.883	0.944	0.885	0.712	0.701	0.803	0.752
540.0	91.65	105.5	121.7	129.1	146.7	225.7	192.6	181.0	341.8	2715	4600	383.3	133.8	116.2	98.03	83.44	75.16	68.74	63.65	61.06	57.88	55.38	54.81	53.95	53.04	52.97	52.26	53.31	55.61	54.69	53.14	50.14	45.87	41.54	38.35	35.12	32.27	30.07	27.84	25.55	23.31	21.38	20.25	18.78	17.98	16.57	17.10	17.40	14.36	11.02	9.128	7.787	7.112	6.448	6.010	5.333	4.655	3.861	3.517	3.943	8.958	25.96	53.58	258.0	856.1	245.0	19.06	1.344	1.035	0.793	0.786	0.775	0.864	0.734	0.626	0.568	0.695
545.0	76.68	104.4	112.7	108.5	122.4	183.2	199.4	150.5	198.4	1006	5510	1215	119.7	102.5	86.79	72.42	66.70	60.37	55.89	53.77	50.32	49.56	48.40	48.24	47.43	47.15	45.75	47.58	49.35	48.63	46.14	43.17	40.66	36.59	34.15	31.35	29.47	26.38	25.35	23.33	20.73	19.84	18.36	17.19	15.67	15.26	14.62	15.30	14.45	11.29	8.820	7.678	6.743	5.798	5.249	5.127	4.639	3.677	3.227	3.253	3.972	7.635	13.81	60.64	344.4	768.1	221.9	10.67	1.091	0.904	0.821	0.707	0.691	0.614	0.559	0.575	0.671
550.0	84.79	101.9	106.4	101.3	102.5	132.4	190.9	142.3	145.5	335.3	2910	4082	326.6	87.69	73.31	61.64	55.65	50.34	46.40	45.19	41.89	41.81	40.52	40.20	39.27	40.16	38.71	39.06	40.00	40.19	39.23	35.89	33.97	31.02	28.37	26.02	24.47	22.41	21.32	19.95	18.10	16.77	16.01	14.88	14.14	13.13	12.12	12.03	12.68	11.04	8.800	6.719	5.711	5.110	4.605	4.358	4.123	3.975	3.055	2.917	2.741	3.482	4.718	15.19	80.35	291.0	535.4	365.3	16.94	1.414	0.832	0.704	0.646	0.585	0.541	0.513	0.541
555.0	84.96	87.87	90.77	88.43	81.37	91.85	148.8	152.5	116.1	160.2	812.6	4626	1265	83.05	60.43	52.16	46.05	42.94	38.98	36.83	34.49	34.12	33.26	32.91	31.93	31.19	31.43	32.67	31.82	33.24	32.37	29.61	27.56	25.48	23.19	20.95	19.91	18.24	17.01	16.68	15.31	14.04	13.17	12.49	12.20	10.90	10.59	9.628	9.408	10.09	9.030	6.648	5.221	4.650	4.104	3.741	3.489	3.412	3.410	2.698	2.256	2.337	2.424	4.819	19.37	66.08	146.8	463.3	433.8	23.21	1.285	0.731	0.714	0.533	0.476	0.447	0.487
560.0	83.48	92.49	94.25	75.11	76.48	80.30	112.5	161.2	106.8	113.2	262.0	2569	3714	142.7	53.72	45.71	38.96	35.41	33.50	31.89	29.97	28.55	28.08	27.53	26.69	26.66	27.07	27.00	26.60	28.43	26.59	25.88	23.85	20.76	20.18	18.11	16.74	15.68	15.19	14.05	12.83	12.04	11.17	10.86	10.56	9.841	9.089	8.015	7.636	7.998	8.062	6.605	4.832	4.245	3.831	3.354	3.313	3.126	3.085	2.781	2.222	2.080	2.008	2.318	5.814	16.16	34.34	156.0	513.2	234.2	15.76	0.918	0.681	0.502	0.500	0.452	0.468
565.0	92.95	88.85	88.46	73.22	64.63	72.80	84.57	152.4	109.5	96.54	130.5	891.3	4714	760.3	49.14	38.45	33.91	30.40	28.78	27.46	25.09	25.50	24.17	23.31	22.89	23.20	23.03	22.74	23.22	23.28	22.91	21.88	20.29	18.29	17.29	15.57	14.72	13.76	12.97	12.48	11.14	11.14	9.988	9.787	9.039	8.468	7.605	7.263	6.401	6.480	6.933	6.562	4.753	3.998	3.232	3.039	3.011	2.606	2.603	2.757	2.265	1.898	1.676	1.707	2.591	4.899	8.980	36.77	200.0	471.9	184.8	6.158	0.631	0.503	0.434	0.443	0.369
570.0	87.39	92.53	85.67	64.67	56.36	59.96	68.61	112.7	132.7	89.12	94.99	270.3	2587	2975	97.16	33.81	27.75	25.86	23.42	22.47	20.94	20.49	20.21	19.36	19.23	18.72	18.47	18.61	18.92	18.69	18.35	17.33	16.07	15.04	13.65	13.02	12.11	11.29	10.45	9.957	9.496	8.904	8.385	7.890	7.581	6.940	6.336	6.076	5.518	4.961	5.207	5.583	4.784	3.802	2.885	2.742	2.421	2.217	2.065	2.256	2.316	1.954	1.628	1.627	1.745	2.329	3.208	9.412	46.93	175.4	325.7	142.3	14.45	0.765	0.479	0.375	0.337
575.0	85.55	103.2	81.72	55.58	47.63	49.72	54.44	75.96	137.2	96.57	84.32	120.0	698.1	3554	848.4	31.78	23.69	21.15	19.26	18.39	17.35	16.72	16.11	15.76	15.42	15.26	15.44	15.20	14.83	15.63	14.92	13.78	12.76	12.10	11.21	10.24	9.532	9.115	8.718	8.029	7.850	7.029	6.795	6.752	6.068	5.630	5.484	4.866	4.469	4.061	3.837	3.781	4.370	3.794	2.644	2.368	2.317	2.029	1.759	1.804	2.085	2.016	1.625	1.610	1.491	1.685	1.974	3.198	11.48	39.93	88.84	255.0	227.2	19.24	0.638	0.420	0.376
580.0	87.93	104.5	85.68	56.89	46.82	46.19	50.78	60.19	118.5	112.6	84.00	86.00	208.7	2028	2642	73.51	21.16	18.08	16.41	15.89	13.92	14.73	13.07	13.12	12.84	12.59	12.62	12.66	12.54	12.77	12.38	11.26	10.62	10.43	9.292	8.865	8.626	7.940	7.873	6.607	6.524	5.948	6.061	5.585	5.179	4.811	4.709	4.412	3.896	3.492	3.250	3.067	3.424	3.640	2.601	2.008	1.911	1.812	1.701	1.570	1.739	1.685	1.657	1.526	1.399	1.273	1.547	1.731	3.518	9.743	20.81	87.92	295.0	176.1	11.03	0.536	0.384
585.0	82.20	95.83	79.29	53.36	42.24	40.19	45.69	49.65	90.54	128.9	84.91	81.30	95.19	690.7	3423	412.5	19.51	16.17	14.96	13.27	12.49	12.08	11.45	11.35	11.07	10.80	10.88	11.04	10.93	10.83	10.31	9.740	9.214	8.565	8.383	7.618	7.289	6.689	6.445	5.876	5.519	5.411	5.011	4.834	4.511	4.363	4.060	3.783	3.321	2.870	2.813	2.654	2.746	3.248	2.686	2.054	1.676	1.479	1.525	1.471	1.373	1.597	1.558	1.643	1.182	1.261	1.296	1.369	1.707	3.030	5.515	20.66	116.7	286.5	115.4	3.818	0.437
590.0	87.78	95.97	79.52	54.19	38.29	34.83	38.71	47.50	66.13	121.7	101.2	77.84	70.94	197.1	1884	1874	53.77	14.19	12.01	11.50	10.56	10.56	9.684	9.345	9.359	8.933	8.831	9.107	9.153	8.942	8.577	8.015	7.361	6.907	6.691	6.399	5.654	5.403	5.135	4.807	4.362	4.403	4.060	3.975	3.899	3.494	3.217	3.115	2.826	2.478	2.320	2.131	2.200	2.407	2.510	2.185	1.608	1.348	1.385	1.272	1.135	1.263	1.306	1.460	1.365	1.310	1.170	1.251	1.137	1.489	1.920	5.187	27.26	104.6	190.2	111.1	12.50
595.0	92.07	90.94	82.47	48.51	35.18	30.93	36.86	40.68	54.92	90.94	123.7	78.32	65.68	78.64	493.8	2350	548.7	14.07	10.34	9.728	8.645	8.847	7.924	7.115	7.614	7.436	7.376	7.345	7.562	7.443	6.770	6.394	6.054	5.602	5.375	5.410	4.634	4.571	4.329	3.913	3.772	3.819	3.230	3.069	3.174	2.966	2.557	2.510	2.339	1.981	1.969	1.796	1.617	1.667	1.919	2.032	1.740	1.170	1.209	1.097	0.981	1.125	0.999	1.316	1.387	1.289	0.924	1.077	1.159	1.084	1.004	1.705	6.675	23.71	51.24	151.4	149.6
600.0	83.61	88.24	74.64	46.48	35.94	32.41	33.25	40.65	52.60	70.87	126.0	86.44	66.38	52.21	132.5	1415	1572	34.79	9.114	8.107	7.561	7.182	6.960	6.281	6.506	6.063	6.036	6.036	6.339	5.944	5.218	5.433	4.850	4.851	4.504	4.480	3.786	3.541	3.668	3.355	3.226	3.064	2.831	2.625	2.641	2.332	2.344	2.245	1.905	1.874	1.638	1.480	1.470	1.307	1.456	1.773	1.612	1.322	1.104	0.946	0.953	0.830	0.895	1.002	1.013	1.380	0.962	1.076	0.981	0.877	0.687	0.940	1.879	5.713	11.98	50.30	172.0
605.0	70.03	89.65	72.56	48.35	33.93	32.44	32.17	37.43	51.64	62.94	110.5	101.8	66.77	44.19	51.33	489.7	2132	87.32	8.563	7.547	7.085	6.194	5.750	5.338	5.531	4.850	5.117	5.307	5.131	4.958	4.737	4.606	4.508	4.007	3.942	3.792	3.501	3.254	3.291	2.710	2.691	2.683	2.503	2.503	2.249	2.158	1.959	1.910	1.705	1.588	1.293	1.215	1.148	1.171	1.089	1.324	1.565	1.325	0.986	0.833	0.862	0.769	0.855	0.864	0.904	1.181	1.201	0.961	0.944	0.897	0.686	0.642	0.839	1.624	2.972	11.77	65.96
610.0	70.76	81.01	67.65	44.45	31.18	30.31	31.25	39.09	47.09	58.51	88.86	112.6	71.33	45.54	33.64	129.9	1266	1023	30.62	6.725	6.120	5.095	4.958	4.760	4.443	4.382	4.399	4.078	4.070	4.027	4.035	3.809	3.667	3.243	3.233	2.992	2.843	2.577	2.646	2.307	2.273	2.158	2.048	1.915	1.864	1.789	1.714	1.628	1.457	1.325	1.158	1.129	0.973	0.996	0.904	0.938	1.181	1.354	1.194	0.810	0.727	0.739	0.775	0.757	0.817	0.839	1.036	1.034	0.897	0.771	0.615	0.538	0.578	0.702	0.959	2.920	15.27
615.0	64.11	72.65	74.17	43.81	26.77	30.12	29.32	35.52	44.01	59.18	73.92	108.1	83.86	45.20	29.66	42.28	340.3	1572	344.7	6.332	5.033	4.258	4.094	3.781	3.448	3.298	3.820	3.434	3.600	3.266	3.206	3.178	2.826	2.753	2.583	2.497	2.233	2.212	2.009	1.703	1.792	1.670	1.559	1.509	1.595	1.424	1.378	1.409	1.141	1.054	0.923	0.865	0.849	0.730	0.689	0.723	0.780	1.007	0.995	0.798	0.625	0.736	0.753	0.683	0.707	0.798	0.799	0.951	0.969	0.678	0.544	0.579	0.452	0.494	0.476	0.910	3.656
620.0	60.17	74.27	68.02	43.27	28.32	26.60	28.52	32.45	42.29	55.91	66.55	92.17	94.99	46.80	27.39	23.20	89.43	1026	998.8	14.83	4.811	3.820	3.604	3.483	3.032	3.052	3.076	2.843	2.974	2.891	2.698	2.541	2.383	2.309	2.201	2.043	1.797	1.961	1.868	1.581	1.423	1.424	1.387	1.296	1.284	1.203	1.175	1.211	1.037	0.859	0.903	0.799	0.776	0.722	0.658	0.601	0.666	0.728	0.938	0.882	0.601	0.662	0.667	0.664	0.642	0.619	0.652	0.675	0.942	0.872	0.630	0.460	0.410	0.374	0.338	0.503	1.056
625.0	57.63	70.82	64.25	39.66	28.80	25.46	27.37	31.18	40.35	55.17	63.88	78.35	94.07	50.02	27.77	19.16	30.57	378.3	1469	63.97	4.794	3.515	3.027	2.896	2.773	2.588	2.555	2.385	2.538	2.508	2.069	2.130	2.002	2.008	1.861	1.685	1.470	1.534	1.538	1.386	1.375	1.279	1.179	1.153	1.001	1.016	1.038	0.977	0.965	0.812	0.871	0.799	0.702	0.638	0.533	0.555	0.616	0.553	0.785	0.752	0.655	0.584	0.547	0.625	0.529	0.606	0.576	0.657	0.877	0.822	0.607	0.517	0.380	0.379	0.325	0.325	0.453
630.0	60.46	60.01	56.99	38.20	27.03	24.12	25.96	29.53	39.45	50.45	60.23	68.37	82.79	60.21	29.28	17.87	16.31	96.91	956.6	715.4	16.00	3.399	2.772	2.585	2.369	2.104	2.067	2.020	2.283	2.069	1.841	1.875	1.712	1.684	1.550	1.368	1.373	1.345	1.205	1.220	1.163	1.002	1.044	0.981	0.900	0.851	0.914	0.829	0.766	0.664	0.661	0.649	0.574	0.548	0.508	0.525	0.548	0.484	0.577	0.737	0.702	0.598	0.518	0.546	0.497	0.514	0.554	0.549	0.598	0.696	0.700	0.554	0.384	0.379	0.336	0.330	0.342
635.0	51.81	57.62	54.14	33.01	24.40	24.27	24.97	30.16	39.69	47.02	59.56	61.79	68.30	67.37	30.76	17.83	12.67	28.47	262.8	1162	199.1	3.459	2.560	2.345	2.114	1.799	1.757	1.731	1.748	1.542	1.664	1.504	1.399	1.411	1.279	1.217	1.082	1.113	0.933	0.944	0.949	0.796	0.892	0.780	0.763	0.660	0.776	0.711	0.681	0.605	0.532	0.573	0.458	0.427	0.435	0.459	0.513	0.403	0.447	0.473	0.566	0.643	0.518	0.529	0.411	0.473	0.524	0.495	0.557	0.546	0.569	0.605	0.462	0.400	0.296	0.255	0.310
640.0	48.44	63.89	57.77	33.78	21.00	23.17	24.42	30.05	36.46	45.27	55.00	61.78	59.26	63.63	38.07	17.78	12.50	13.30	65.80	823.1	528.7	7.606	2.440	2.395	1.844	1.643	1.633	1.591	1.320	1.299	1.560	1.349	1.174	1.173	1.165	0.997	0.987	0.875	0.819	0.720	0.809	0.782	0.694	0.693	0.714	0.594	0.674	0.663	0.583	0.489	0.417	0.420	0.484	0.408	0.486	0.406	0.391	0.393	0.480	0.414	0.489	0.531	0.561	0.506	0.451	0.417	0.446	0.490	0.473	0.447	0.508	0.552	0.445	0.364	0.281	0.252	0.286
645.0	52.43	66.06	62.19	33.75	20.84	23.23	22.47	28.83	36.21	41.72	54.88	58.92	55.52	57.33	44.89	20.13	12.32	9.275	19.25	325.1	1009	46.42	2.404	2.051	1.823	1.483	1.385	1.340	1.158	1.221	1.349	1.304	1.115	0.929	0.837	1.002	0.805	0.724	0.712	0.698	0.726	0.722	0.768	0.589	0.692	0.551	0.577	0.598	0.559	0.479	0.415	0.412	0.403	0.345	0.390	0.407	0.368	0.335	0.427	0.326	0.441	0.468	0.520	0.477	0.488	0.474	0.438	0.501	0.405	0.455	0.438	0.537	0.536	0.409	0.380	0.247	0.261
650.0	55.25	74.20	64.68	34.61	23.90	21.94	22.40	27.23	33.61	42.08	53.35	57.18	55.14	50.62	50.05	22.02	13.51	8.702	9.312	88.50	941.1	311.8	3.713	2.136	1.704	1.435	1.424	1.118	1.076	1.122	1.156	1.008	1.063	0.929	0.799	0.863	0.785	0.716	0.709	0.683	0.603	0.605	0.639	0.547	0.555	0.528	0.482	0.522	0.512	0.430	0.377	0.330	0.332	0.283	0.294	0.355	0.358	0.358	0.345	0.322	0.377	0.383	0.476	0.479	0.452	0.424	0.469	0.428	0.470	0.427	0.433	0.401	0.453	0.470	0.406	0.290	0.286
