Sample:	'1
File name:	t2025061609»ôÆÂÇÅ.FD3
Run date:	'12:28:55, 06/18/2025
Operator:	Administrator
Comment:	'

Instrument
Model:	F-2700 FL Spectrophotometer
Serial number:	23B8-004
ROM Version:	4J14000 07

Instrument parameters
Measurement type:	3-D scan
Data mode:	Fluorescence
EX  Start WL:	220.0 nm
EX  End WL:	600.0 nm
EX Sampling interval:	5.0 nm
EM  Start WL:	230.0 nm
EM  End WL:	650.0 nm
EM Sampling interval:	5.0 nm
Scan speed:	12000 nm/min
EX Slit:	5.0 nm
EM Slit:	5.0 nm
PMT Voltage:	700 V
Response:	Auto 
Corrected spectra:	Off
Contour interval:	50.000

Peak integration
Integration method:	Rectangular
Sensitivity:	1
Threshold:	1.000

Peaks
No.	ApexEX/EM(nm)	Height(Data)
1	225.0/345.0	1990
2	225.0/400.0	1419
3	240.0/265.0	351.1
4	245.0/270.0	373.2
5	245.0/535.0	239.6
6	250.0/275.0	478.7
7	250.0/550.0	191.6
8	255.0/285.0	485.7
9	255.0/560.0	149.3
10	260.0/290.0	514.2
11	260.0/575.0	121.6
12	265.0/585.0	104.5
13	270.0/600.0	101.1
14	275.0/310.0	1374
15	275.0/335.0	1506
16	275.0/615.0	101.1
17	280.0/315.0	1403
18	280.0/625.0	91.30
19	285.0/320.0	1390
20	285.0/635.0	70.88
21	455.0/340.0	5.227
22	505.0/275.0	2.967
23	510.0/280.0	3.229
24	520.0/285.0	3.411
25	525.0/290.0	3.292
26	535.0/270.0	44.23
27	550.0/305.0	7.067
28	560.0/310.0	7.160
29	565.0/340.0	7.352
30	580.0/320.0	7.373
31	585.0/325.0	7.219

Data points
	220.0	225.0	230.0	235.0	240.0	245.0	250.0	255.0	260.0	265.0	270.0	275.0	280.0	285.0	290.0	295.0	300.0	305.0	310.0	315.0	320.0	325.0	330.0	335.0	340.0	345.0	350.0	355.0	360.0	365.0	370.0	375.0	380.0	385.0	390.0	395.0	400.0	405.0	410.0	415.0	420.0	425.0	430.0	435.0	440.0	445.0	450.0	455.0	460.0	465.0	470.0	475.0	480.0	485.0	490.0	495.0	500.0	505.0	510.0	515.0	520.0	525.0	530.0	535.0	540.0	545.0	550.0	555.0	560.0	565.0	570.0	575.0	580.0	585.0	590.0	595.0	600.0
230.0	160.6	2305	3322	590.4	21.56	8.155	6.623	6.061	4.790	4.537	4.037	3.742	3.352	2.964	2.412	2.040	1.778	1.681	1.550	1.381	1.194	1.102	0.952	1.040	0.963	0.885	0.830	0.734	0.804	0.697	0.661	0.656	0.605	0.533	0.496	0.536	0.500	0.482	0.470	0.468	0.654	0.784	0.676	0.491	0.407	0.611	3.395	10.06	12.42	6.617	1.901	0.501	0.316	0.334	0.324	0.311	0.322	0.338	0.315	0.291	0.273	0.292	0.313	0.291	0.299	0.306	0.271	0.312	0.262	0.320	0.297	0.324	0.296	0.299	0.323	0.290	0.293
235.0	163.1	677.9	2631	3061	494.3	32.03	8.357	6.495	4.759	5.189	4.317	3.993	3.543	3.390	2.672	2.317	1.758	1.720	1.706	1.434	1.180	1.255	1.066	0.984	1.055	0.886	0.815	0.756	0.813	0.722	0.622	0.700	0.504	0.633	0.536	0.448	0.560	0.480	0.373	0.404	0.511	0.556	0.768	0.920	0.696	0.559	1.173	2.920	5.725	9.512	11.71	9.714	3.775	0.704	0.316	0.290	0.315	0.316	0.338	0.321	0.312	0.276	0.350	0.318	0.297	0.285	0.262	0.313	0.308	0.312	0.288	0.335	0.320	0.278	0.305	0.295	0.268
240.0	222.2	234.5	880.2	3330	3035	381.8	16.19	7.234	5.343	5.128	4.927	4.759	3.536	3.543	2.983	2.391	2.069	1.778	1.691	1.596	1.317	1.137	0.963	0.952	1.173	0.818	0.768	0.856	0.761	0.710	0.734	0.630	0.504	0.604	0.606	0.517	0.519	0.462	0.468	0.421	0.448	0.448	0.560	0.670	0.836	0.791	0.664	0.988	1.599	3.254	8.067	16.16	16.14	9.115	2.822	0.480	0.346	0.316	0.324	0.332	0.346	0.280	0.277	0.299	0.276	0.323	0.267	0.299	0.338	0.297	0.302	0.324	0.293	0.289	0.317	0.294	0.289
245.0	174.3	220.0	252.8	1344	4175	2839	264.1	10.47	7.015	5.533	5.853	4.932	3.897	3.625	3.294	2.843	1.961	1.808	1.581	1.702	1.141	1.272	1.161	1.017	1.035	0.781	0.738	0.965	0.811	0.704	0.675	0.629	0.544	0.663	0.497	0.489	0.494	0.501	0.514	0.360	0.418	0.427	0.459	0.527	0.674	0.914	0.977	0.811	0.657	0.993	2.191	6.533	14.16	21.17	17.31	7.590	1.718	0.441	0.355	0.275	0.325	0.274	0.249	0.295	0.324	0.336	0.287	0.327	0.289	0.319	0.287	0.326	0.325	0.292	0.344	0.249	0.309
250.0	81.22	180.3	242.7	377.0	1521	3831	3920	1009	47.40	8.524	7.544	5.162	4.544	3.663	3.499	2.639	2.118	2.107	1.624	1.462	1.283	1.214	1.207	1.078	1.029	0.985	0.899	0.967	0.787	0.790	0.689	0.687	0.577	0.591	0.508	0.500	0.453	0.495	0.460	0.469	0.516	0.461	0.443	0.479	0.470	0.564	0.689	0.952	0.991	0.832	0.884	1.796	3.773	7.904	13.60	19.21	23.11	16.86	8.810	2.136	0.435	0.355	0.313	0.358	0.350	0.303	0.318	0.307	0.296	0.321	0.293	0.323	0.306	0.335	0.295	0.276	0.325
255.0	45.53	69.70	198.6	314.8	405.3	1075	4145	6188	1375	40.85	10.27	7.229	5.863	5.079	3.768	2.596	2.371	2.021	1.963	1.687	1.598	1.167	1.206	1.112	1.045	0.955	0.987	0.963	0.884	0.862	0.847	0.795	0.590	0.639	0.547	0.498	0.501	0.619	0.458	0.560	0.477	0.467	0.591	0.462	0.513	0.508	0.469	0.452	0.671	0.933	1.116	1.221	1.295	2.049	3.361	4.947	10.60	24.02	38.57	26.42	13.03	2.149	0.390	0.404	0.319	0.345	0.334	0.307	0.338	0.368	0.355	0.356	0.324	0.305	0.296	0.423	0.389
260.0	44.87	34.89	93.40	292.5	279.9	291.3	1432	6422	6540	249.6	22.36	9.660	6.949	5.578	4.296	3.242	2.835	2.069	2.079	1.799	1.594	1.353	1.317	1.310	1.112	0.969	0.978	0.929	0.913	0.891	0.769	0.764	0.700	0.614	0.648	0.551	0.424	0.563	0.425	0.509	0.419	0.431	0.457	0.468	0.484	0.415	0.358	0.387	0.411	0.528	0.921	1.653	1.644	1.141	1.147	1.425	2.747	7.112	19.85	37.85	46.71	24.70	9.105	1.042	0.418	0.391	0.328	0.331	0.368	0.345	0.371	0.331	0.285	0.359	0.297	0.372	0.332
265.0	43.77	32.19	41.30	161.3	351.1	217.5	375.3	2518	8648	6018	192.2	14.27	9.457	6.584	4.335	3.681	3.159	2.727	2.229	1.850	1.595	1.471	1.314	1.296	1.199	1.139	1.031	1.087	0.856	0.851	0.806	0.938	0.640	0.644	0.675	0.553	0.475	0.587	0.446	0.483	0.468	0.473	0.521	0.502	0.470	0.456	0.351	0.415	0.385	0.349	0.514	1.042	1.666	1.788	1.309	0.805	1.006	2.142	5.098	12.49	31.46	51.88	32.64	20.48	4.945	0.581	0.445	0.346	0.403	0.360	0.346	0.327	0.332	0.307	0.338	0.360	0.331
270.0	57.30	46.43	42.33	69.61	213.8	373.2	274.3	637.5	3083	7907	8482	794.8	44.87	10.13	6.627	5.033	3.845	3.052	2.347	2.124	1.857	1.710	1.581	1.453	1.233	1.308	1.037	1.176	1.056	1.004	0.844	0.911	0.827	0.717	0.690	0.640	0.576	0.628	0.520	0.535	0.497	0.579	0.498	0.579	0.498	0.547	0.450	0.504	0.412	0.324	0.414	0.601	0.771	1.252	1.847	2.019	1.648	1.394	1.676	3.278	7.862	16.40	26.39	44.23	42.66	43.47	14.53	4.780	0.652	0.418	0.411	0.379	0.377	0.342	0.362	0.342	0.401
275.0	118.5	98.11	73.42	57.85	102.2	243.3	478.7	339.4	741.4	2091	7777	9999.9	1099	39.68	10.34	7.161	4.394	3.597	3.023	2.733	2.204	1.810	1.721	1.450	1.471	1.530	1.120	1.176	0.951	0.875	0.938	0.912	0.860	0.921	0.840	0.744	0.731	0.794	0.658	0.678	0.593	0.734	0.631	0.668	0.625	0.715	0.595	0.672	0.459	0.389	0.458	0.542	0.552	0.686	0.990	1.372	2.304	2.967	2.105	1.514	2.290	4.136	6.387	10.73	15.74	40.48	73.93	72.71	22.74	4.548	0.611	0.440	0.412	0.342	0.377	0.342	0.386
280.0	185.6	177.4	120.9	75.89	86.36	145.4	370.9	418.6	288.8	537.5	2393	9999.9	9708	779.2	19.79	9.203	6.280	4.091	3.352	2.874	2.480	2.193	2.042	1.635	1.482	1.493	1.198	1.056	0.980	0.997	0.938	0.975	1.045	0.853	0.910	0.909	0.951	0.943	0.844	0.754	0.794	0.810	0.863	0.744	0.825	0.819	0.707	0.786	0.655	0.644	0.470	0.590	0.587	0.587	0.701	0.990	1.383	2.517	3.229	2.771	1.597	1.438	2.100	3.009	4.077	10.85	28.97	63.11	85.43	32.60	17.67	1.988	0.544	0.483	0.471	0.447	0.429
285.0	295.7	276.4	201.3	117.3	97.66	116.3	204.5	485.7	341.8	235.5	649.3	3509	9999.9	7716	115.6	13.52	8.382	5.240	4.095	3.696	2.749	2.297	2.070	1.788	1.657	1.414	1.523	1.453	1.158	1.140	1.005	1.046	1.049	0.959	0.921	1.020	1.171	1.027	1.049	0.925	0.950	0.879	1.038	0.853	0.990	1.013	0.927	1.097	0.860	0.772	0.577	0.633	0.547	0.666	0.700	0.857	0.928	1.306	2.134	3.334	3.411	2.090	1.282	1.389	1.635	3.072	7.391	17.48	40.85	70.64	88.60	29.01	10.93	0.977	0.528	0.606	0.536
290.0	471.4	433.1	327.9	191.5	132.0	129.2	155.6	270.9	514.2	480.2	376.9	989.5	3469	9874	9301	1827	31.39	8.211	5.922	4.335	3.260	2.879	2.415	2.083	1.956	1.695	1.495	1.499	1.307	1.146	1.064	1.083	1.021	1.107	1.112	1.359	1.543	1.576	1.330	1.214	1.084	1.187	1.233	1.243	1.283	1.357	1.293	1.370	1.189	0.906	0.926	0.866	0.759	0.754	0.840	0.851	0.923	0.971	1.227	1.698	2.330	3.292	3.269	2.535	1.788	1.893	2.850	4.996	10.36	19.63	38.33	52.69	68.21	55.30	19.23	9.106	1.235
295.0	658.9	610.6	466.5	286.3	188.6	177.0	187.2	231.2	349.1	712.5	733.0	569.9	1054	2544	7203	9999.9	674.7	29.94	8.391	5.706	4.564	3.295	3.148	2.607	2.180	1.863	1.581	1.675	1.331	1.256	1.207	1.044	1.000	1.124	1.284	1.475	1.825	1.803	1.503	1.667	1.411	1.504	1.511	1.417	1.715	1.748	1.635	1.633	1.581	1.326	1.167	1.081	0.929	0.960	0.998	1.048	0.925	1.247	1.327	1.426	1.648	2.037	2.738	4.066	4.832	3.346	2.517	2.851	3.980	5.936	9.864	13.06	18.74	35.59	70.79	88.14	30.60
300.0	800.7	782.4	578.7	361.7	239.0	231.8	258.5	302.5	358.4	638.5	1083	784.3	657.1	867.2	2118	9279	9999.9	511.6	16.20	7.787	5.271	4.050	3.362	2.922	2.407	2.024	1.824	1.875	1.421	1.407	1.411	1.159	1.040	1.249	1.226	1.665	1.947	2.082	1.779	1.733	1.707	1.737	1.657	1.746	1.866	2.129	2.037	2.109	1.979	1.620	1.284	1.349	1.184	1.157	1.082	1.150	1.260	1.539	1.613	1.663	1.834	1.995	2.484	3.136	4.886	5.712	4.829	3.598	3.268	3.586	4.257	4.594	5.801	9.735	22.59	53.35	85.26
305.0	926.6	883.5	688.3	451.7	305.0	299.1	362.8	400.3	525.2	719.1	1120	1319	837.3	651.1	783.4	2955	9999.9	5152	75.15	10.74	7.081	5.456	3.397	3.332	2.486	2.121	1.733	1.811	1.683	1.500	1.193	1.296	1.054	1.233	1.436	1.822	2.185	1.970	2.071	2.033	1.812	1.736	1.867	1.986	1.962	2.390	2.150	2.327	2.215	1.873	1.696	1.551	1.438	1.407	1.373	1.507	1.674	2.007	1.922	2.386	2.471	2.687	2.987	3.450	4.576	5.288	7.067	6.472	5.141	4.107	3.628	3.403	3.545	4.250	6.833	14.20	32.28
310.0	1072	1029	815.6	539.7	378.3	374.0	450.9	532.3	677.8	849.6	1082	1374	1333	852.2	618.3	930.8	3102	7276	7068	1517	23.89	7.297	4.956	3.977	3.008	2.349	2.186	1.956	1.680	1.596	1.382	1.477	1.233	1.345	1.555	1.761	2.096	2.354	2.261	2.228	2.091	2.061	2.231	2.314	2.325	2.473	2.514	2.774	2.605	2.092	1.817	1.869	1.702	1.604	1.758	1.890	1.962	2.170	2.606	2.608	3.113	3.402	3.896	4.230	4.607	5.093	6.001	6.621	7.160	6.623	5.357	4.144	3.492	3.772	3.622	4.963	8.758
315.0	1249	1196	914.7	611.9	456.7	441.2	521.0	634.6	782.0	966.4	1160	1301	1403	1271	759.6	559.6	925.2	1815	5063	9750	507.9	24.82	6.615	5.146	3.863	3.161	2.443	2.404	1.768	1.698	1.654	1.462	1.203	1.292	1.569	1.956	2.207	2.312	2.340	2.380	2.235	2.477	2.298	2.552	2.750	2.777	2.937	3.319	2.992	2.257	1.801	2.022	1.869	1.771	2.030	2.154	2.281	2.553	2.982	2.948	3.213	3.701	4.255	4.693	5.119	5.798	5.975	6.192	6.413	6.821	7.080	6.826	5.252	4.299	3.680	3.220	3.840
320.0	1339	1324	1038	686.2	510.0	489.0	572.0	703.6	851.8	1055	1232	1357	1351	1390	1036	556.0	493.1	561.7	1371	6985	8178	414.2	13.72	6.672	4.680	3.288	3.128	2.518	2.095	1.900	1.679	1.520	1.293	1.343	1.608	1.787	2.369	2.308	2.475	2.427	2.278	2.529	2.409	2.701	3.286	3.323	3.393	3.413	3.026	2.548	2.069	2.340	2.061	2.033	2.162	2.255	2.368	2.642	2.957	3.209	3.556	4.059	4.443	4.914	5.408	5.824	5.988	6.131	6.520	6.348	6.620	7.125	7.373	6.061	4.335	3.412	3.058
325.0	1529	1525	1219	802.6	566.3	532.9	611.5	741.0	900.1	1114	1307	1415	1367	1298	1226	715.3	435.1	309.6	399.5	2012	7875	3974	60.60	9.264	6.304	4.484	3.496	2.651	2.371	1.893	2.008	1.463	1.467	1.477	1.564	1.973	2.419	2.525	2.689	2.525	2.434	2.612	2.493	3.014	3.408	3.543	3.621	4.022	3.657	2.780	2.338	2.557	2.334	2.040	2.390	2.224	2.573	2.787	3.105	3.482	3.800	4.188	4.663	5.249	5.483	6.244	6.286	6.216	6.610	6.629	6.422	6.364	6.722	7.219	5.868	4.285	3.334
330.0	1695	1729	1446	980.1	689.3	593.2	654.7	777.0	941.9	1147	1349	1470	1426	1276	1128	918.7	577.0	303.1	222.3	535.8	2255	5273	5526	1314	21.33	6.090	4.251	3.244	2.625	2.369	2.122	1.692	1.564	1.519	1.590	1.888	2.349	2.478	2.440	2.582	2.582	2.767	2.796	3.256	3.660	3.966	4.100	4.585	4.282	3.458	2.891	3.229	2.830	2.451	2.466	2.580	2.822	2.954	3.312	3.603	4.136	4.373	4.898	5.491	5.586	6.234	6.139	6.566	6.699	6.767	6.375	6.476	6.260	6.219	5.845	5.720	4.924
335.0	1822	1907	1617	1134	813.3	687.0	708.1	829.2	978.3	1172	1379	1506	1478	1323	1098	872.6	788.3	439.9	240.0	248.0	586.8	1273	3868	7944	436.7	23.10	5.860	4.195	3.338	2.978	2.191	1.935	1.815	1.505	1.694	1.761	2.318	2.504	2.287	2.561	2.596	2.772	3.050	3.507	3.987	4.330	4.517	4.936	4.852	3.806	3.519	3.569	3.384	2.845	2.751	2.887	3.306	3.452	3.447	3.881	4.294	4.470	5.113	5.675	6.165	6.347	6.209	7.014	6.869	7.102	6.873	6.642	6.496	6.024	5.658	5.236	5.092
340.0	1796	1933	1693	1249	895.8	750.2	762.7	865.8	1003	1192	1384	1497	1493	1353	1116	850.4	762.2	611.7	312.2	218.6	244.0	361.5	1042	5634	6818	373.6	12.46	4.932	3.995	3.229	2.513	2.022	1.644	1.679	1.823	1.924	2.186	2.369	2.451	2.609	2.688	2.849	2.998	3.798	4.048	4.500	4.464	5.227	4.979	3.970	3.784	3.906	3.679	3.370	3.087	2.986	3.439	3.577	3.475	3.672	4.368	4.475	4.989	5.528	6.026	6.321	6.307	6.832	6.943	7.352	7.125	6.612	6.617	6.420	5.712	5.002	4.908
345.0	1792	1990	1702	1304	968.5	803.5	800.8	893.4	1026	1191	1370	1470	1464	1348	1118	857.0	698.6	658.3	462.3	258.0	197.1	184.2	308.0	1623	6483	3397	53.76	7.553	4.734	3.872	2.648	2.245	1.917	1.723	1.725	1.872	2.025	2.351	2.567	2.444	2.744	2.794	2.983	3.385	4.068	4.388	4.584	5.094	4.872	4.201	3.767	4.187	3.898	3.471	3.185	3.200	3.501	3.443	3.682	3.864	4.246	4.740	5.021	5.753	6.055	6.190	6.422	6.567	7.001	6.935	6.701	6.687	6.467	6.163	5.710	5.104	4.657
350.0	1759	1865	1678	1326	1052	874.2	840.9	911.3	1027	1175	1336	1420	1418	1315	1123	884.6	705.5	601.0	571.0	416.1	259.2	196.4	184.0	442.5	1865	4306	4536	1149	18.64	4.782	3.136	2.613	2.094	1.814	1.840	1.882	2.075	2.363	2.428	2.479	2.506	2.905	3.033	3.282	3.774	4.317	4.539	4.904	4.806	4.061	4.052	4.336	3.943	3.793	3.544	3.412	3.527	3.668	3.849	4.099	4.504	4.779	4.819	5.498	5.903	5.881	6.316	6.307	6.486	6.553	6.497	6.572	6.386	6.158	5.744	5.329	4.924
355.0	1616	1808	1610	1346	1089	951.8	900.1	934.1	1039	1176	1295	1372	1369	1281	1126	916.1	757.0	618.9	555.1	554.0	414.7	264.7	210.5	219.4	497.3	1050	3160	6302	396.2	19.94	4.634	3.382	2.413	2.223	1.868	1.947	1.929	2.338	2.223	2.349	2.540	2.821	3.123	3.390	3.689	4.103	4.328	4.769	4.369	3.916	3.998	4.579	4.006	3.959	3.736	3.967	3.937	3.983	4.054	4.279	4.623	4.886	5.018	5.302	5.584	5.721	6.130	6.312	6.131	6.374	6.666	6.831	6.370	6.006	5.835	5.389	5.314
360.0	1580	1709	1577	1355	1127	986.2	954.3	970.1	1055	1162	1273	1332	1339	1254	1120	932.8	793.8	662.2	575.4	552.2	538.9	359.6	252.8	201.6	218.7	306.5	855.9	4527	5654	344.3	10.37	4.231	2.701	2.503	2.177	1.989	2.190	2.284	2.296	2.427	2.516	2.836	2.877	3.183	3.589	4.016	4.052	4.516	4.378	4.065	3.930	4.240	4.214	4.084	3.810	3.961	3.983	4.198	4.276	4.141	4.748	4.764	4.975	5.387	5.630	5.470	5.945	6.065	6.240	6.063	6.388	6.320	6.215	6.244	5.896	5.449	5.032
365.0	1637	1651	1557	1343	1123	1048	984.5	1004	1063	1166	1260	1310	1306	1230	1110	943.6	819.0	706.4	623.5	554.8	564.3	485.3	320.3	234.2	190.2	165.2	257.7	1329	5493	3149	49.58	6.352	3.528	2.881	2.380	1.962	2.258	2.388	2.475	2.433	2.594	2.664	2.931	2.949	3.355	3.790	4.037	4.484	4.138	3.889	3.752	4.488	4.232	4.208	3.865	4.049	4.340	4.265	4.231	4.542	4.786	4.555	4.847	5.234	5.651	5.723	5.965	5.707	6.021	6.102	6.079	6.410	6.291	6.184	5.910	5.558	5.492
370.0	1552	1603	1503	1352	1170	1078	1034	1028	1085	1154	1231	1271	1264	1194	1092	959.6	850.0	759.3	682.2	613.3	564.0	556.8	464.4	312.1	231.4	176.5	156.7	365.5	1588	3897	4095	1014	16.29	4.039	2.834	2.384	2.553	2.518	2.439	2.503	2.562	2.662	2.936	3.137	3.390	3.797	3.836	4.275	4.051	3.852	3.865	4.542	4.304	4.452	4.187	4.133	4.510	4.326	4.508	4.582	4.799	4.939	5.114	5.288	5.407	5.656	5.646	5.805	5.805	6.048	5.946	5.961	6.041	5.733	5.767	5.573	5.568
375.0	1481	1561	1498	1342	1218	1110	1073	1060	1098	1146	1194	1234	1209	1150	1076	965.7	878.4	801.7	736.5	670.1	607.7	559.4	554.0	445.4	301.4	224.4	173.2	177.7	420.0	950.9	2935	5442	340.6	17.12	4.247	2.871	2.907	2.902	2.308	2.439	2.517	2.719	2.986	2.986	3.402	3.748	3.719	4.030	4.107	3.819	3.655	4.559	4.102	4.413	4.298	4.230	4.402	4.462	4.700	4.469	4.720	4.939	4.926	5.315	5.213	5.293	5.461	5.649	5.787	5.815	5.584	5.988	6.028	5.845	5.681	5.834	5.832
380.0	1466	1544	1436	1315	1226	1122	1099	1071	1095	1134	1178	1201	1186	1126	1063	955.3	876.7	828.3	763.3	707.9	642.4	581.2	551.3	528.3	380.1	266.7	207.5	162.0	178.9	271.4	803.4	4055	4563	278.4	8.154	3.978	3.190	2.762	2.689	2.571	2.624	2.615	2.915	3.029	3.422	3.610	3.717	4.011	4.011	3.687	3.804	4.411	4.243	4.452	4.463	4.464	4.757	4.831	4.649	4.613	4.857	4.953	5.203	5.365	5.212	5.463	5.354	5.411	5.385	5.441	5.529	5.760	5.772	5.797	5.795	5.714	5.591
385.0	1426	1466	1422	1315	1225	1139	1091	1086	1077	1112	1164	1162	1157	1101	1042	950.9	881.0	838.0	779.6	732.5	670.2	609.8	552.7	540.3	471.9	321.2	240.8	186.9	150.1	137.0	233.0	1198	4484	2607	39.87	5.657	3.799	3.145	2.745	2.588	2.694	2.716	2.693	3.034	3.396	3.470	3.649	4.098	4.092	3.722	3.950	4.434	4.211	4.354	4.267	4.556	4.791	4.669	4.633	4.655	4.854	5.140	4.909	5.127	5.375	5.563	5.124	5.199	5.348	5.406	5.630	5.400	5.688	5.788	5.878	5.695	5.529
390.0	1398	1449	1416	1305	1221	1158	1110	1091	1086	1104	1132	1133	1117	1070	1015	941.2	885.5	843.4	794.5	752.2	699.2	640.3	583.0	538.4	509.2	430.4	310.5	235.8	182.9	141.8	130.6	320.0	1307	3069	3052	744.4	13.55	4.257	3.357	2.923	2.887	2.673	2.778	3.123	3.209	3.501	3.511	3.931	4.021	3.718	3.764	4.460	4.425	4.377	4.383	4.507	4.770	4.670	4.725	4.706	4.650	4.959	4.935	5.127	5.017	5.137	5.070	5.191	5.192	5.346	5.355	5.410	5.647	5.531	5.579	5.504	5.702
395.0	1394	1389	1365	1297	1207	1159	1113	1100	1092	1099	1113	1105	1090	1056	991.6	927.6	877.8	842.5	802.3	764.9	726.1	669.8	623.3	569.8	515.5	490.9	418.4	302.4	235.9	183.8	143.1	148.9	343.9	751.6	2270	3908	280.1	13.83	4.333	3.516	3.261	2.827	2.956	3.026	3.126	3.420	3.268	3.846	3.839	3.452	3.673	4.290	4.347	4.400	4.294	4.487	4.637	4.735	4.711	4.867	4.790	5.064	4.738	4.965	4.932	5.014	5.017	5.114	5.169	5.211	4.953	5.210	5.353	5.402	5.340	5.667	5.416
400.0	1329	1419	1342	1270	1208	1159	1122	1109	1087	1083	1099	1102	1075	1043	981.8	914.6	868.8	834.4	803.5	770.8	731.7	686.1	641.6	591.9	537.5	498.2	484.4	377.2	283.0	226.2	174.2	134.7	145.9	214.4	637.8	3035	2347	224.3	7.638	4.143	3.578	3.339	3.129	3.018	3.476	3.275	3.396	3.918	3.708	3.416	3.338	4.124	4.374	4.441	4.516	4.229	4.467	4.812	4.854	4.704	4.629	5.015	4.664	4.830	4.879	5.076	5.148	4.902	4.866	5.191	4.773	5.175	5.098	5.306	5.259	5.407	5.607
405.0	1287	1386	1315	1255	1208	1153	1136	1101	1102	1103	1103	1102	1075	1024	968.3	905.5	853.3	829.4	804.7	770.0	738.3	697.8	657.1	616.6	563.4	510.6	497.9	451.4	338.5	268.3	209.2	154.3	120.2	109.0	185.4	914.9	3081	2120	34.95	5.599	3.839	3.569	3.419	3.191	3.353	3.251	3.479	3.887	3.575	3.385	3.279	4.190	4.553	4.586	4.542	4.416	4.655	4.882	4.788	4.837	4.999	4.839	5.023	4.768	5.032	4.997	4.920	4.767	5.044	5.169	5.105	5.130	5.264	5.329	5.206	5.343	5.547
410.0	1282	1347	1290	1217	1188	1151	1125	1095	1089	1092	1096	1080	1061	1011	943.4	885.2	832.8	803.6	783.0	756.9	729.7	698.5	671.1	635.0	589.7	537.7	501.3	482.6	425.0	326.2	251.9	189.8	139.9	104.7	96.88	244.9	925.3	2305	2303	574.2	12.15	4.030	3.745	3.429	3.442	3.223	3.307	3.732	3.497	3.340	3.439	4.273	4.258	4.511	4.317	4.496	4.845	4.817	4.847	4.803	4.983	4.952	4.943	4.883	4.737	4.826	4.794	4.914	4.806	4.985	4.839	5.123	5.080	5.259	5.049	5.508	5.156
415.0	1271	1318	1238	1190	1163	1132	1112	1092	1083	1080	1073	1056	1010	978.1	907.9	851.8	797.4	772.5	756.5	730.5	708.9	684.2	665.0	635.8	600.0	552.1	511.1	474.4	456.3	394.6	291.1	219.8	163.3	119.7	90.29	102.9	238.5	563.3	1687	2812	247.0	11.64	4.176	3.627	3.386	3.473	3.304	3.586	3.476	3.348	3.608	4.271	4.322	4.430	4.357	4.353	5.054	4.871	4.711	5.011	4.758	4.988	4.869	4.903	4.814	4.874	4.678	4.791	4.722	4.763	4.738	4.901	5.315	4.971	5.197	4.770	5.144
420.0	1203	1283	1223	1178	1130	1110	1096	1077	1063	1047	1037	1015	988.4	940.0	864.5	819.9	766.9	740.0	731.8	705.5	686.3	666.9	648.0	629.3	593.3	554.3	518.0	475.1	446.4	420.2	326.4	237.5	176.0	129.2	95.79	77.76	90.24	151.0	464.7	2174	2079	198.2	6.452	4.061	3.602	3.531	3.343	3.664	3.477	3.226	3.369	4.129	4.019	4.116	4.158	4.361	4.622	4.638	4.518	4.713	4.712	5.046	4.778	4.734	4.608	4.429	4.337	4.781	4.542	4.996	4.619	4.719	4.838	4.675	4.896	4.820	4.566
425.0	1157	1209	1189	1138	1101	1077	1074	1053	1050	1032	1014	995.5	953.7	907.4	841.5	781.3	736.2	715.2	699.0	681.1	664.3	646.5	634.7	618.4	589.6	552.2	519.4	474.5	435.1	410.8	360.9	261.4	190.0	140.3	104.7	77.95	62.34	62.61	123.8	654.9	2326	1805	32.84	5.117	3.812	3.616	3.482	3.430	3.396	3.080	3.258	4.091	3.833	4.104	3.826	4.267	4.644	4.485	4.599	4.638	4.868	4.801	4.584	4.595	4.507	4.469	4.260	4.566	4.098	4.337	4.633	4.690	4.432	4.790	4.765	4.645	4.398
430.0	1363	1152	1143	1097	1069	1065	1056	1049	1032	1017	999.9	968.0	925.3	875.4	806.0	742.9	703.1	676.7	662.5	646.9	636.3	620.9	612.7	598.8	577.6	547.8	514.3	474.3	440.4	401.1	364.7	303.7	215.6	157.1	119.8	89.61	67.14	50.99	53.91	164.8	681.7	1745	1823	480.1	11.47	4.089	3.572	3.522	3.335	3.135	3.209	3.746	3.878	4.000	3.921	4.074	4.438	4.482	4.382	4.737	4.659	4.671	4.649	4.632	4.538	4.316	4.240	4.343	4.336	4.330	4.380	4.400	4.313	4.413	4.288	4.444	4.337
435.0	2236	1078	1057	1059	1020	1026	1034	1026	1014	988.1	975.7	941.4	884.4	840.8	773.5	704.0	669.6	645.7	623.0	612.6	604.2	595.5	586.2	579.1	563.9	535.6	507.0	475.8	441.5	399.1	354.9	317.8	254.1	180.2	136.7	103.3	77.90	57.52	45.11	60.39	169.8	420.5	1281	2109	235.2	12.54	4.120	3.737	3.648	3.147	3.147	3.891	3.673	3.905	3.954	4.000	4.062	4.440	4.311	4.481	4.654	4.355	4.457	4.647	4.607	4.271	4.073	4.183	3.920	3.869	3.898	4.038	4.189	4.166	4.080	4.113	4.242
440.0	3154	1216	1028	1038	988.5	1001	1002	1008	995.3	973.8	965.2	914.6	860.9	808.8	743.8	674.0	638.4	610.9	594.4	586.2	575.7	570.0	566.1	558.0	545.7	525.2	495.5	472.6	439.1	397.9	349.4	304.6	271.6	206.0	146.7	113.2	86.49	65.98	48.98	41.12	58.43	110.2	353.1	1736	1923	192.1	6.690	4.290	3.587	3.084	3.210	3.555	3.707	3.848	3.994	4.121	4.231	4.172	4.525	4.214	4.524	4.564	4.491	4.424	4.439	4.234	4.191	4.032	3.897	3.960	3.840	3.731	4.125	4.035	3.964	3.934	4.317
445.0	3325	1729	1006	995.9	962.2	984.7	975.7	976.7	963.8	951.8	930.6	884.4	835.5	776.8	712.4	641.2	606.0	582.9	568.7	559.1	552.3	545.6	540.9	535.0	520.8	500.8	479.5	457.2	426.0	390.9	344.8	295.5	262.5	225.8	161.1	121.6	92.98	72.07	53.84	41.82	37.81	44.10	94.07	524.5	2037	1671	28.32	5.271	3.713	3.268	3.355	3.739	3.686	3.813	3.921	3.780	4.118	4.293	4.132	4.104	4.216	4.573	4.369	4.278	4.620	3.921	4.280	3.936	4.041	4.117	3.850	3.800	4.017	3.914	3.781	3.845	4.014
450.0	2366	2925	1142	921.1	906.9	918.1	929.9	931.8	930.3	903.4	880.0	834.0	783.3	725.4	659.1	593.3	562.8	544.6	528.6	516.3	506.3	502.4	499.2	494.3	484.7	470.1	450.2	430.4	408.0	376.3	334.6	284.7	245.1	218.4	181.8	134.1	101.1	78.43	62.01	48.42	38.77	32.76	39.17	131.1	591.4	1547	1671	455.4	10.22	3.605	3.278	3.690	3.576	3.486	3.657	3.690	4.051	4.152	4.151	4.278	4.125	4.143	4.180	4.135	4.206	3.904	3.865	3.770	3.866	3.622	3.750	3.826	3.751	3.625	3.541	3.672	3.831
455.0	1275	3065	2019	861.3	860.8	846.8	859.0	869.2	865.1	844.8	826.5	777.1	726.4	669.9	598.2	548.5	513.4	495.5	475.3	466.8	458.7	454.7	457.0	452.4	443.5	430.1	416.7	401.9	381.0	356.0	319.6	273.9	233.7	200.5	181.8	153.7	111.0	85.31	68.12	54.96	44.03	35.50	30.77	45.98	144.7	370.3	1033	1874	197.2	11.11	3.600	3.744	3.565	3.497	3.600	3.487	3.827	3.805	3.630	3.844	3.920	3.828	3.851	4.123	3.869	3.558	3.587	3.608	3.710	3.424	3.311	3.413	3.511	3.306	3.309	3.606	3.322
460.0	886.2	2229	3012	937.4	805.2	788.2	822.5	820.8	814.3	807.9	783.0	731.9	677.9	625.1	556.8	509.0	475.4	455.3	442.4	432.7	426.2	425.1	423.0	420.8	412.0	404.6	387.0	377.3	360.0	338.2	308.2	263.6	228.4	191.9	172.4	158.6	123.1	90.27	73.31	59.18	47.76	38.41	30.90	28.84	47.67	94.14	271.0	1346	1580	154.1	6.954	3.886	3.430	3.460	3.497	3.199	3.554	3.742	3.620	3.574	3.737	3.478	3.654	3.616	3.614	3.483	3.524	3.476	3.419	3.215	3.159	3.267	3.144	3.222	3.301	3.163	3.295
465.0	759.2	1309	3310	1444	756.4	756.2	772.3	791.0	767.8	761.2	740.5	686.3	636.4	588.1	524.3	471.2	442.2	424.3	412.9	401.7	395.5	396.3	390.0	388.3	379.9	375.8	362.2	352.1	339.1	319.3	292.3	254.5	219.6	187.4	162.1	149.9	132.7	96.53	76.12	62.58	50.89	41.47	33.17	27.76	27.56	33.73	70.67	384.8	1527	1295	23.72	4.765	3.406	3.334	3.628	3.252	3.525	3.670	3.565	3.413	3.596	3.558	3.714	3.440	3.434	3.184	3.326	3.269	3.272	3.350	3.052	3.113	3.032	3.100	3.006	3.071	3.210
470.0	710.7	825.2	2257	2647	876.5	684.7	695.1	710.4	708.0	689.4	675.1	636.2	583.3	530.4	473.1	427.4	397.0	379.6	368.5	355.1	351.9	347.2	347.6	344.3	339.4	335.7	326.8	314.2	305.4	290.8	267.5	237.3	204.6	176.6	151.8	134.5	124.6	106.9	82.09	64.20	53.49	44.17	35.46	29.31	24.47	22.23	27.47	95.65	425.8	1059	1191	412.5	11.07	3.728	3.422	3.007	3.330	3.294	3.333	3.261	3.249	3.238	3.369	3.182	3.187	3.016	3.000	3.023	3.019	2.848	2.904	2.830	2.748	2.727	2.596	2.836	2.759
475.0	667.9	640.0	1076	2785	1680	629.7	638.2	647.3	628.4	628.4	608.5	566.2	523.8	473.0	418.3	377.9	350.3	336.9	326.1	314.6	308.8	302.8	305.2	304.4	302.1	293.2	287.0	280.4	271.9	261.1	240.7	217.5	187.9	163.9	145.5	123.7	111.3	104.6	89.95	68.48	55.25	46.08	37.59	31.24	26.09	21.28	18.91	31.99	103.2	247.0	594.5	1341	204.2	13.73	3.335	2.968	3.005	2.978	3.147	2.901	3.054	3.155	3.132	3.038	3.011	2.713	2.965	2.744	2.606	2.425	2.524	2.541	2.558	2.477	2.390	2.563	2.701
480.0	622.5	579.0	669.0	1930	2587	711.8	588.7	587.9	595.1	575.1	563.9	526.4	484.1	440.4	388.1	351.4	323.9	309.7	296.4	287.0	284.0	278.3	275.8	274.9	272.7	265.3	259.8	257.8	250.1	242.9	224.4	201.6	177.0	155.4	135.6	118.5	106.9	97.47	92.35	74.50	56.26	45.92	39.14	32.49	27.18	22.43	18.35	18.51	31.92	62.07	148.9	745.1	1244	189.4	7.769	3.065	2.979	3.079	2.951	2.778	2.916	2.850	2.811	2.901	2.747	2.626	2.757	2.666	2.330	2.366	2.374	2.347	2.303	2.250	2.381	2.317	2.426
485.0	572.2	573.0	545.7	1089	2979	1203	547.4	555.2	555.3	535.9	530.5	496.1	452.0	408.0	362.3	327.9	302.2	284.1	276.4	267.5	260.9	259.3	253.7	254.7	251.2	245.3	238.9	238.6	232.9	224.2	212.5	191.7	166.6	148.2	132.6	115.1	102.2	88.87	85.22	78.31	59.69	47.64	38.71	33.14	27.62	23.24	19.21	16.13	16.56	21.51	39.49	198.4	946.9	1165	147.1	4.929	3.127	2.833	2.898	2.778	2.789	2.744	2.671	2.730	2.494	2.464	2.618	2.494	2.372	2.329	2.351	2.184	2.048	2.202	2.124	2.232	2.243
490.0	505.4	566.6	498.6	621.6	1968	2395	675.4	504.3	511.2	497.8	485.7	455.1	418.6	370.8	329.1	295.7	275.8	258.2	250.3	241.5	233.4	230.9	228.3	228.7	226.1	222.6	218.4	215.6	211.8	207.6	193.3	177.7	156.8	139.7	123.6	108.9	96.27	84.34	77.20	74.37	65.88	51.19	40.10	34.23	28.86	24.11	20.40	16.78	14.02	13.03	15.67	50.03	247.7	717.8	1032	436.0	13.64	3.048	2.970	2.757	2.583	2.537	2.523	2.472	2.396	2.375	2.443	2.226	2.249	2.181	2.233	2.102	2.205	2.029	1.981	2.002	2.044
495.0	425.0	507.1	488.2	460.4	882.1	2645	1492	471.5	460.5	454.1	437.7	420.1	376.9	339.0	297.0	266.5	244.8	228.2	222.8	213.2	204.3	205.3	201.4	202.1	199.0	197.7	193.5	192.3	190.9	186.1	175.3	159.4	144.7	128.7	113.8	103.3	91.29	79.90	72.14	66.09	64.28	56.58	42.85	34.54	30.10	25.36	21.25	17.76	14.48	11.90	10.57	17.58	60.44	166.1	456.5	1205	625.5	17.82	2.951	2.650	2.439	2.567	2.302	2.442	2.341	2.288	2.324	2.108	2.067	1.979	1.956	2.012	1.748	1.840	1.824	1.765	1.824
500.0	372.5	427.9	469.4	416.4	505.6	1817	2489	544.2	428.5	418.5	398.9	376.2	340.7	307.9	269.9	243.0	225.0	210.4	203.8	192.4	184.6	184.8	183.1	182.7	180.7	178.8	176.4	175.3	173.1	169.9	160.2	146.4	132.5	121.8	107.0	96.20	86.05	76.06	67.54	61.96	57.42	56.85	45.38	35.58	29.66	25.77	21.58	18.30	15.42	12.07	9.832	10.63	18.72	42.12	110.8	579.3	1283	223.6	12.09	2.668	2.297	2.423	2.335	2.314	1.988	2.151	2.112	1.895	1.900	1.988	1.678	1.832	1.735	1.725	1.674	1.803	1.764
505.0	328.9	359.2	443.4	394.5	393.6	954.7	2924	1016	392.8	382.3	377.3	351.5	315.3	280.8	248.4	225.3	206.6	190.3	185.3	175.4	168.7	168.0	166.5	164.4	162.6	161.1	159.2	157.9	155.7	152.3	147.9	135.3	122.9	110.6	100.5	89.62	81.38	72.77	63.81	57.82	52.26	50.56	48.18	37.09	29.01	25.18	21.30	18.39	15.86	12.52	10.25	9.066	9.843	13.99	29.01	145.0	739.2	1117	187.4	6.353	2.351	2.476	2.206	2.145	1.914	1.819	1.949	1.858	1.752	1.601	1.731	1.680	1.533	1.622	1.612	1.574	1.647
510.0	289.0	311.1	374.1	374.1	327.4	475.8	1885	2318	509.8	344.7	336.0	307.2	283.6	250.4	220.2	196.6	179.5	169.8	160.6	154.3	147.9	146.3	144.3	142.6	142.2	140.4	138.1	139.5	138.4	134.0	130.5	118.8	109.2	98.79	89.37	81.16	73.04	65.63	58.79	52.82	47.19	43.99	43.54	38.94	30.65	24.38	20.43	17.87	15.18	12.47	10.83	8.890	7.868	8.009	10.96	36.20	182.9	565.6	851.4	388.2	14.67	2.498	2.221	1.927	1.839	1.716	1.777	1.759	1.651	1.529	1.469	1.544	1.517	1.557	1.384	1.358	1.427
515.0	258.4	263.4	301.2	354.6	300.8	318.1	732.9	2696	1347	309.3	290.6	268.3	245.4	217.3	191.9	169.5	154.3	144.8	136.8	133.6	130.2	126.6	122.9	122.9	122.5	121.3	118.2	118.9	119.1	116.3	113.1	105.0	95.85	86.60	80.37	72.77	64.47	58.94	53.67	47.87	42.78	39.32	35.69	36.28	32.92	24.66	20.17	17.61	14.68	12.33	10.84	9.588	7.683	7.051	6.586	12.10	44.29	129.7	295.3	858.0	553.3	19.56	2.207	1.885	1.696	1.717	1.622	1.624	1.499	1.369	1.468	1.450	1.411	1.231	1.269	1.284	1.262
520.0	237.0	240.2	257.7	314.6	305.7	262.8	370.1	1820	2429	396.5	264.4	245.9	219.4	198.1	173.2	153.8	142.1	131.4	124.7	119.3	113.7	112.7	109.7	110.9	108.4	108.6	105.3	106.4	106.6	105.4	100.9	94.49	86.51	77.35	72.77	65.45	60.00	53.76	48.61	44.49	39.35	35.84	32.21	32.11	32.06	25.91	20.31	16.72	14.35	11.83	10.55	9.473	8.029	6.759	5.832	6.728	13.38	32.12	70.20	357.9	912.2	229.9	13.32	2.158	1.597	1.598	1.410	1.468	1.498	1.296	1.141	1.268	1.247	1.207	1.151	1.150	1.305
525.0	222.3	218.1	226.9	258.5	296.0	242.5	263.1	864.1	3034	895.2	243.7	224.3	200.4	177.7	156.0	138.3	126.5	119.7	112.0	107.3	102.8	100.4	99.36	99.99	97.71	96.72	94.95	95.13	94.78	93.88	89.64	84.90	78.43	70.75	66.31	59.54	55.09	49.88	45.53	40.28	37.24	33.69	29.62	27.35	28.74	27.17	21.34	16.34	13.54	11.87	9.998	9.119	7.823	6.639	5.659	5.581	6.598	10.28	18.44	86.50	448.2	811.5	193.8	6.868	1.642	1.616	1.384	1.356	1.349	1.196	1.175	1.182	1.269	1.199	1.194	1.138	1.134
530.0	178.7	195.6	199.4	212.9	268.3	236.4	216.1	365.3	1927	2346	376.2	196.6	177.0	157.0	137.3	120.6	109.7	102.3	96.40	92.82	88.69	86.87	87.01	85.04	83.99	82.98	82.06	81.95	81.95	81.59	78.27	73.39	68.30	63.08	57.56	52.11	48.40	44.73	40.10	36.55	32.55	30.12	27.36	24.11	23.27	24.33	21.78	16.36	12.95	11.24	9.706	8.745	7.433	6.846	5.827	5.115	5.019	5.330	6.900	21.81	107.4	357.1	591.4	298.9	15.17	1.789	1.442	1.314	1.265	1.099	1.213	0.992	0.986	1.064	1.032	0.990	0.983
535.0	170.8	167.0	165.0	172.1	209.2	239.6	191.4	220.7	669.5	2770	1280	175.8	150.0	135.1	117.7	104.8	95.65	87.42	81.07	80.96	77.09	73.60	72.08	72.32	71.35	70.97	71.04	70.22	69.90	69.22	65.96	62.32	57.32	53.46	49.17	45.38	42.55	38.51	34.68	32.63	29.10	26.56	23.69	21.10	19.58	19.36	20.15	17.18	12.63	10.43	8.949	8.153	6.665	6.099	5.810	5.184	4.655	4.047	4.367	7.348	26.15	81.60	180.8	551.6	249.4	20.50	1.460	1.311	1.282	1.019	1.021	1.006	0.903	0.985	0.865	0.866	0.924
540.0	147.4	146.8	153.2	149.0	163.5	236.4	187.5	172.9	283.3	1744	2503	218.9	133.2	119.2	106.4	94.39	84.13	77.16	74.29	69.72	65.37	64.92	63.56	63.71	62.27	60.96	61.40	61.48	61.74	60.93	57.53	55.38	51.47	47.09	43.56	39.94	37.77	34.44	31.24	28.70	26.13	23.79	21.40	19.24	17.81	16.76	16.94	16.93	13.34	10.15	8.514	7.818	6.193	5.799	5.339	5.254	4.349	3.978	3.588	4.200	7.886	20.07	42.79	207.6	579.6	227.5	12.89	1.336	1.276	0.962	1.035	0.985	0.974	0.965	0.928	0.877	0.882
545.0	133.4	138.3	132.0	130.1	136.3	198.3	185.6	148.9	176.9	733.0	3071	653.8	121.8	106.8	95.27	82.30	73.28	68.38	65.19	60.77	57.85	57.48	55.98	55.65	54.35	52.49	53.12	53.59	53.06	53.21	50.90	48.16	45.57	41.51	38.76	36.25	32.68	30.83	28.06	26.02	23.10	21.78	19.54	17.47	16.11	14.69	14.60	15.26	13.79	10.59	7.992	6.875	5.935	5.600	5.129	4.965	4.321	3.693	3.337	3.274	3.757	6.225	11.31	49.50	268.1	565.9	178.1	5.272	1.244	1.016	1.010	0.823	0.900	0.810	0.902	0.839	0.778
550.0	122.9	113.0	119.6	112.1	113.6	144.8	191.6	135.2	131.3	268.3	1800	2012	161.3	91.00	77.14	68.29	62.34	57.85	53.74	51.40	49.38	48.17	46.64	46.82	44.99	44.33	44.19	44.65	45.24	44.62	42.83	40.77	38.28	34.87	32.89	30.23	28.23	25.68	24.05	21.57	20.20	18.48	17.08	15.28	14.19	12.98	11.96	11.80	12.08	10.46	7.790	6.226	5.537	5.018	4.640	4.398	4.183	3.714	3.091	2.762	2.655	3.036	4.181	12.39	63.67	233.5	400.6	202.8	14.18	1.208	1.027	0.792	0.805	0.745	0.798	0.747	0.743
555.0	110.0	101.7	93.93	97.05	95.19	100.6	162.3	141.6	104.7	132.6	553.6	2530	864.9	79.02	65.89	57.44	52.00	46.34	44.39	42.37	40.43	39.10	37.61	37.82	36.12	35.62	36.24	35.72	36.47	35.41	35.57	33.57	30.83	28.04	26.87	24.72	23.09	21.57	19.28	18.02	16.78	15.35	14.38	12.96	12.08	10.89	10.16	8.981	8.998	9.564	7.767	6.132	4.808	4.436	4.105	3.716	3.553	3.393	3.188	2.527	2.206	2.223	2.398	3.965	15.37	53.20	119.3	349.5	233.8	17.77	1.087	0.886	0.690	0.762	0.699	0.751	0.650
560.0	96.75	92.94	82.76	81.91	82.52	87.09	120.8	149.3	94.92	98.46	195.4	1548	1986	117.1	55.60	49.51	45.05	40.25	37.60	35.63	34.32	33.50	32.11	31.80	30.87	30.49	30.81	29.85	30.46	29.88	29.38	28.13	25.66	23.62	22.99	21.05	19.54	18.47	16.58	15.94	14.27	13.37	12.40	11.03	10.48	9.515	8.703	8.125	7.169	7.825	7.737	6.278	4.498	4.007	3.789	3.264	3.172	3.000	2.954	2.576	2.282	1.951	1.864	2.003	4.584	12.97	27.92	129.3	373.1	188.3	9.846	0.835	0.751	0.630	0.743	0.605	0.623
565.0	99.87	93.49	90.90	74.46	73.97	71.18	91.38	145.7	98.80	84.43	104.9	600.4	2571	399.6	49.62	42.29	37.14	34.75	31.50	30.18	29.01	28.00	27.69	27.42	26.68	26.31	26.38	25.41	25.67	25.94	24.83	23.79	22.44	20.44	19.52	18.45	16.93	15.82	15.17	13.47	12.34	11.39	10.64	9.688	9.115	8.260	7.527	6.914	6.410	6.240	6.769	6.173	4.475	3.636	3.392	3.016	2.852	2.693	2.460	2.642	2.098	1.778	1.633	1.576	2.241	3.952	7.220	30.71	162.9	347.9	120.0	3.612	0.649	0.673	0.647	0.578	0.557
570.0	98.63	86.48	79.97	64.92	60.26	60.43	65.67	107.7	114.4	73.39	75.02	195.1	1506	1489	83.85	35.40	30.49	28.37	26.34	24.68	24.22	22.56	22.80	21.67	21.30	21.21	20.98	20.45	21.03	20.40	19.97	18.87	18.45	16.70	15.70	14.81	13.89	12.98	12.08	11.08	10.09	9.299	8.625	8.070	7.733	6.795	6.422	5.822	5.331	4.850	4.967	5.167	4.643	3.419	2.923	2.665	2.611	2.272	2.167	2.165	2.269	1.834	1.463	1.450	1.428	1.813	2.666	7.804	38.58	137.1	228.8	124.6	12.32	0.779	0.586	0.543	0.565
575.0	87.66	85.37	70.04	61.32	49.57	49.34	51.98	69.68	121.6	74.53	64.38	89.97	438.0	1936	552.4	30.22	24.66	22.64	21.14	19.53	19.25	17.80	18.11	17.41	17.10	17.06	16.49	15.73	16.69	16.17	16.02	15.45	15.05	13.41	12.70	11.66	10.94	10.37	9.765	9.096	8.219	7.629	6.868	6.776	6.262	5.614	5.385	4.793	4.149	3.934	3.896	3.958	4.138	3.245	2.722	2.348	2.200	2.032	1.893	1.876	1.689	1.843	1.531	1.270	1.262	1.268	1.377	2.611	9.521	31.29	66.25	198.8	168.7	14.08	0.661	0.542	0.566
580.0	99.65	89.71	72.92	52.91	44.53	45.06	45.85	54.68	106.6	94.86	61.49	64.81	140.8	1188	1377	50.79	20.82	20.24	17.71	16.87	16.74	15.23	14.87	15.17	14.69	14.11	14.41	14.06	14.53	13.78	13.55	12.81	12.21	11.46	10.65	10.29	9.563	8.738	8.169	7.732	6.822	6.408	5.927	6.001	5.894	4.903	4.521	4.372	3.702	3.286	3.348	3.081	3.420	3.555	2.750	2.182	1.965	1.800	1.686	1.591	1.521	1.635	1.657	1.348	1.133	1.167	1.073	1.299	2.970	7.652	15.65	71.68	222.3	117.8	6.321	0.631	0.519
585.0	92.12	89.09	70.09	49.91	42.58	45.62	44.92	46.68	82.12	104.5	61.37	57.66	69.11	444.5	1829	112.6	19.24	18.07	15.92	15.13	14.40	13.56	13.58	12.63	12.48	12.29	12.50	11.74	12.26	12.07	12.12	11.07	10.62	9.622	9.293	8.858	8.313	7.853	7.164	6.766	6.038	5.544	5.397	4.988	4.811	4.460	3.918	3.939	3.210	3.009	2.695	2.603	2.852	3.251	2.759	2.126	1.848	1.847	1.575	1.389	1.340	1.375	1.699	1.517	1.040	1.156	1.104	1.000	1.415	2.520	4.236	17.04	93.33	204.9	34.22	2.590	0.518
590.0	85.08	86.98	64.45	48.81	38.60	38.18	39.44	40.21	55.83	101.0	75.79	56.19	52.00	135.2	1070	921.3	41.66	14.70	13.30	12.76	11.67	11.47	11.21	10.36	10.21	10.21	10.31	9.876	9.964	9.556	9.704	8.892	8.476	8.043	7.803	7.198	7.009	6.473	6.044	5.565	5.120	4.645	4.357	4.156	4.021	3.746	3.348	3.161	2.819	2.497	2.289	2.208	2.108	2.381	2.455	2.233	1.766	1.554	1.322	1.303	1.272	1.158	1.277	1.470	1.319	1.062	0.983	0.957	1.109	1.164	1.499	4.406	22.10	79.63	131.3	80.34	10.09
595.0	81.90	77.52	65.26	47.79	34.93	35.31	37.14	37.35	45.67	74.56	94.78	56.49	47.19	57.66	301.8	1269	286.3	13.74	10.96	10.06	9.547	9.120	8.742	8.360	8.458	8.327	8.045	8.486	8.116	7.735	7.552	7.744	7.123	6.646	6.356	5.649	5.567	5.070	4.861	4.679	4.285	3.652	3.526	3.382	3.158	3.010	2.792	2.678	2.522	2.152	1.869	1.841	1.734	1.749	1.887	2.134	1.881	1.483	1.371	1.144	1.141	1.125	1.015	1.235	1.270	1.210	1.045	0.837	0.835	0.880	0.945	1.581	5.519	18.26	37.60	116.9	103.7
600.0	77.31	77.79	61.42	41.75	33.28	34.45	34.07	40.16	41.28	61.66	101.1	65.68	47.98	40.97	90.22	819.6	725.9	21.58	9.917	8.804	8.465	7.872	7.545	7.445	6.834	7.102	6.702	6.852	7.178	6.348	6.241	6.376	6.082	5.296	5.169	4.575	4.870	4.220	4.117	4.066	3.602	3.394	3.032	2.905	2.771	2.716	2.437	2.351	2.095	1.883	1.690	1.570	1.580	1.426	1.464	1.824	1.910	1.523	1.290	1.053	0.944	0.896	0.976	0.947	1.016	1.197	1.054	0.872	0.773	0.848	0.819	0.908	1.690	4.585	8.904	40.98	129.0
605.0	83.08	76.67	58.26	42.29	32.96	33.04	34.78	36.72	46.18	56.18	98.49	78.07	50.55	40.15	41.34	313.9	1096	74.45	9.238	7.497	7.356	7.183	6.671	6.266	6.099	6.144	5.772	5.931	6.026	5.643	5.527	4.992	4.885	4.780	4.260	4.162	4.150	3.829	3.839	3.467	3.134	3.088	2.486	2.541	2.443	2.358	2.052	2.072	1.895	1.625	1.490	1.516	1.504	1.261	1.368	1.473	1.800	1.628	1.177	1.001	0.947	0.878	0.977	0.923	0.815	1.069	1.046	0.833	0.816	0.764	0.763	0.742	0.886	1.544	2.433	9.886	53.68
610.0	83.68	73.68	59.57	40.06	33.33	32.39	36.20	38.18	47.26	57.70	82.13	100.0	60.29	44.45	35.02	94.67	719.3	520.1	18.25	6.704	6.127	5.895	5.670	5.219	5.078	5.323	4.930	4.787	4.905	4.804	4.749	4.431	4.243	3.956	3.674	3.534	3.504	3.365	3.012	2.772	2.668	2.604	2.245	2.022	2.140	1.862	1.700	1.674	1.535	1.417	1.315	1.281	1.267	1.057	1.079	1.168	1.424	1.460	1.210	0.997	0.967	0.935	0.933	0.798	0.926	0.913	1.045	0.940	0.892	0.786	0.722	0.726	0.784	0.789	1.001	2.665	12.83
615.0	73.03	73.56	60.81	40.50	33.06	32.14	36.79	42.35	44.61	55.16	68.57	101.1	74.74	47.41	34.96	39.37	214.3	836.2	78.02	5.859	5.512	4.721	4.754	4.364	4.255	4.153	3.946	3.935	3.823	3.976	3.878	3.470	3.322	3.227	2.932	2.935	2.798	2.817	2.744	2.172	1.997	1.973	1.930	1.702	1.696	1.512	1.400	1.560	1.284	1.114	1.099	1.062	1.034	0.836	0.907	0.944	1.176	1.198	1.224	1.010	0.933	0.854	0.838	0.799	0.889	0.815	0.873	0.940	1.025	0.790	0.678	0.714	0.731	0.646	0.752	1.002	3.265
620.0	72.87	72.26	55.52	38.29	31.88	31.30	33.11	39.43	44.14	56.38	63.34	86.90	86.01	48.70	33.35	26.32	64.10	600.6	439.0	9.104	4.673	4.133	3.823	3.771	3.501	3.450	3.380	3.243	3.365	3.532	3.152	2.950	3.117	2.811	2.605	2.587	2.537	2.459	2.430	1.954	1.805	1.763	1.689	1.425	1.479	1.417	1.325	1.227	1.092	1.054	1.022	0.930	0.811	0.752	0.821	0.714	0.936	0.981	1.232	1.027	0.891	0.808	0.739	0.785	0.800	0.871	0.738	0.746	1.162	0.844	0.679	0.807	0.756	0.670	0.628	0.618	1.140
625.0	75.72	71.52	56.83	43.02	29.30	30.21	30.47	37.67	44.67	53.74	59.05	76.00	91.30	51.04	34.52	22.74	28.05	248.4	736.2	41.22	4.284	3.717	3.497	3.373	3.133	3.264	3.053	2.868	2.858	3.030	2.965	2.508	2.699	2.462	2.336	2.476	2.200	2.001	2.028	2.032	1.659	1.608	1.480	1.418	1.353	1.251	1.144	1.186	1.069	1.003	0.872	0.849	0.763	0.756	0.790	0.704	0.814	0.833	1.086	1.016	0.873	0.817	0.710	0.840	0.814	0.746	0.756	0.733	0.913	0.960	0.684	0.804	0.637	0.710	0.607	0.584	0.640
630.0	81.49	71.13	55.08	40.39	27.95	27.59	29.55	35.99	42.28	51.33	59.12	67.21	82.57	62.50	36.12	22.99	19.20	69.51	542.5	337.3	8.275	3.379	3.036	2.886	2.731	2.780	2.454	2.493	2.271	2.541	2.428	2.215	2.346	2.001	2.081	1.952	1.976	1.840	1.677	1.566	1.445	1.353	1.167	1.154	1.141	1.073	0.958	0.938	0.949	0.832	0.794	0.686	0.715	0.679	0.768	0.668	0.664	0.676	0.796	0.837	0.914	0.750	0.694	0.765	0.732	0.725	0.639	0.713	0.693	0.790	0.846	0.732	0.635	0.665	0.580	0.539	0.573
635.0	65.81	70.13	56.72	36.81	29.33	28.96	31.90	37.42	42.24	50.27	57.42	66.52	69.63	70.88	38.08	24.20	17.42	23.10	166.6	613.5	55.61	3.127	2.778	2.343	2.156	2.392	1.992	2.003	2.022	2.057	1.937	1.975	1.969	1.654	1.655	1.751	1.517	1.546	1.475	1.312	1.311	1.182	1.090	1.090	1.031	0.907	0.833	0.816	0.869	0.714	0.683	0.630	0.606	0.616	0.639	0.555	0.647	0.581	0.574	0.741	0.846	0.754	0.768	0.680	0.684	0.692	0.639	0.692	0.684	0.645	0.785	0.740	0.670	0.587	0.532	0.516	0.487
640.0	74.80	60.95	52.65	36.35	30.43	28.02	30.22	37.56	42.54	49.41	56.47	62.03	60.75	70.20	43.32	25.24	16.70	13.56	44.71	482.3	270.1	4.495	2.576	2.278	2.092	2.100	1.949	1.916	1.891	1.780	1.832	1.608	1.612	1.545	1.369	1.535	1.268	1.354	1.180	1.226	1.043	1.132	0.963	0.831	0.890	0.839	0.778	0.848	0.702	0.574	0.550	0.597	0.647	0.599	0.600	0.609	0.582	0.595	0.564	0.681	0.747	0.682	0.659	0.675	0.711	0.629	0.644	0.602	0.650	0.702	0.691	0.790	0.799	0.560	0.527	0.469	0.585
645.0	85.83	68.18	55.03	35.32	28.19	28.36	30.30	34.09	40.12	48.24	57.91	60.74	57.72	63.10	50.02	26.13	16.76	11.96	15.34	219.4	497.5	21.32	2.407	2.107	2.023	1.807	1.644	1.743	1.661	1.552	1.608	1.523	1.376	1.466	1.389	1.292	1.336	1.106	1.143	1.153	1.076	1.153	0.941	0.808	0.794	0.817	0.716	0.790	0.753	0.576	0.509	0.560	0.474	0.559	0.477	0.517	0.517	0.572	0.515	0.592	0.631	0.710	0.728	0.607	0.736	0.592	0.796	0.629	0.619	0.667	0.608	0.670	0.737	0.711	0.568	0.489	0.586
650.0	77.51	71.71	59.14	33.64	28.78	26.44	29.36	34.63	37.59	46.80	56.03	57.62	57.54	54.58	53.22	28.59	17.15	11.17	8.492	65.38	513.8	66.07	2.455	2.021	1.890	1.759	1.618	1.607	1.435	1.447	1.452	1.350	1.349	1.367	1.386	1.265	1.248	1.222	1.202	1.119	1.078	1.040	0.956	0.689	0.697	0.702	0.599	0.699	0.582	0.532	0.479	0.491	0.495	0.473	0.458	0.485	0.461	0.525	0.526	0.520	0.551	0.652	0.758	0.653	0.694	0.633	0.633	0.605	0.579	0.679	0.644	0.559	0.646	0.722	0.642	0.514	0.559
