Sample:	'1
File name:	G2025070405铭兴化工应急 20倍.FD3
Run date:	'16:25:42, 07/08/2025
Operator:	Administrator
Comment:	'

Instrument
Model:	F-2700 FL Spectrophotometer
Serial number:	23B8-004
ROM Version:	4J14000 07

Instrument parameters
Measurement type:	3-D scan
Data mode:	Fluorescence
EX  Start WL:	220.0 nm
EX  End WL:	600.0 nm
EX Sampling interval:	5.0 nm
EM  Start WL:	230.0 nm
EM  End WL:	650.0 nm
EM Sampling interval:	5.0 nm
Scan speed:	12000 nm/min
EX Slit:	5.0 nm
EM Slit:	5.0 nm
PMT Voltage:	700 V
Response:	Auto 
Corrected spectra:	Off
Contour interval:	50.000

Peak integration
Integration method:	Rectangular
Sensitivity:	1
Threshold:	1.000

Peaks
No.	ApexEX/EM(nm)	Height(Data)
1	225.0/640.0	76.20
2	235.0/350.0	6203
3	240.0/265.0	138.4
4	240.0/405.0	4607
5	245.0/270.0	167.3
6	245.0/410.0	4605
7	250.0/275.0	232.1
8	255.0/285.0	310.0
9	260.0/290.0	374.3
10	275.0/610.0	108.6
11	280.0/630.0	113.2
12	285.0/345.0	4178
13	285.0/640.0	116.5
14	310.0/400.0	2897
15	480.0/345.0	23.13
16	500.0/405.0	19.10

Data points
	220.0	225.0	230.0	235.0	240.0	245.0	250.0	255.0	260.0	265.0	270.0	275.0	280.0	285.0	290.0	295.0	300.0	305.0	310.0	315.0	320.0	325.0	330.0	335.0	340.0	345.0	350.0	355.0	360.0	365.0	370.0	375.0	380.0	385.0	390.0	395.0	400.0	405.0	410.0	415.0	420.0	425.0	430.0	435.0	440.0	445.0	450.0	455.0	460.0	465.0	470.0	475.0	480.0	485.0	490.0	495.0	500.0	505.0	510.0	515.0	520.0	525.0	530.0	535.0	540.0	545.0	550.0	555.0	560.0	565.0	570.0	575.0	580.0	585.0	590.0	595.0	600.0
230.0	34.93	371.7	719.2	209.4	13.76	6.765	5.913	5.129	4.319	3.710	3.849	3.632	3.411	3.006	2.850	2.612	2.397	2.205	2.087	2.029	2.089	2.010	1.990	1.823	1.659	1.372	1.117	1.061	0.996	1.026	0.965	0.898	0.804	0.817	0.714	0.739	0.659	0.620	0.592	0.599	0.600	0.592	0.569	0.543	0.488	0.463	0.725	1.872	2.824	1.944	0.833	0.408	0.339	0.295	0.329	0.312	0.323	0.320	0.319	0.304	0.294	0.320	0.292	0.330	0.309	0.305	0.335	0.317	0.293	0.322	0.315	0.301	0.312	0.342	0.330	0.308	0.368
235.0	43.86	115.6	532.1	724.3	243.6	18.45	6.706	4.942	5.105	4.255	4.065	3.563	3.622	3.227	3.016	2.688	2.320	2.327	2.157	2.087	1.896	1.910	1.949	1.754	1.668	1.489	1.203	1.132	1.029	0.957	0.907	0.882	0.744	0.732	0.687	0.658	0.690	0.594	0.637	0.573	0.557	0.623	0.504	0.551	0.534	0.460	0.473	0.767	1.433	2.267	2.809	2.877	1.342	0.551	0.321	0.304	0.334	0.331	0.328	0.319	0.354	0.286	0.312	0.361	0.320	0.307	0.354	0.304	0.311	0.361	0.284	0.347	0.315	0.336	0.355	0.263	0.362
240.0	50.26	51.91	179.5	760.4	620.7	204.7	12.06	5.496	5.444	4.473	4.642	4.170	3.533	3.596	2.945	3.017	2.343	2.158	2.118	2.184	2.202	1.813	2.093	1.993	1.609	1.522	1.238	1.199	1.040	1.091	0.974	0.767	0.783	0.776	0.781	0.672	0.650	0.615	0.618	0.688	0.580	0.522	0.463	0.604	0.541	0.494	0.470	0.479	0.589	0.951	1.845	4.015	4.815	3.044	1.102	0.408	0.347	0.427	0.420	0.288	0.350	0.364	0.359	0.354	0.290	0.313	0.346	0.291	0.309	0.322	0.273	0.350	0.316	0.341	0.282	0.277	0.381
245.0	45.82	65.15	62.04	297.8	1068	885.0	125.6	6.790	5.114	4.514	4.932	4.506	3.728	3.756	3.342	2.996	2.437	2.556	2.147	2.350	2.256	2.083	2.031	1.942	1.563	1.636	1.238	1.110	1.117	1.052	0.943	0.963	0.877	0.743	0.711	0.717	0.646	0.619	0.647	0.631	0.740	0.525	0.527	0.468	0.485	0.560	0.586	0.577	0.388	0.474	0.650	1.708	3.669	5.640	5.447	3.062	0.889	0.357	0.347	0.346	0.309	0.312	0.358	0.316	0.306	0.279	0.312	0.296	0.319	0.335	0.312	0.267	0.325	0.302	0.298	0.385	0.431
250.0	31.93	63.95	76.42	95.48	401.7	1099	981.3	199.4	18.19	5.638	5.144	4.741	4.293	3.945	3.369	2.902	2.504	2.556	2.441	2.244	2.234	2.338	2.026	2.081	1.688	1.498	1.246	1.169	1.102	1.092	0.938	0.981	0.818	0.814	0.786	0.737	0.688	0.568	0.605	0.624	0.609	0.616	0.557	0.523	0.531	0.452	0.482	0.608	0.568	0.504	0.461	0.676	1.148	2.144	3.886	6.086	7.471	5.922	3.638	1.021	0.371	0.307	0.317	0.334	0.358	0.303	0.296	0.259	0.306	0.314	0.305	0.302	0.382	0.376	0.324	0.332	0.349
255.0	26.55	35.24	66.91	100.0	119.5	309.9	1153	2018	240.9	15.21	6.199	5.412	4.325	4.200	3.501	3.329	2.814	2.698	2.556	2.382	2.296	2.388	2.229	2.066	1.772	1.492	1.195	1.108	1.163	1.136	0.908	0.994	0.894	0.831	0.825	0.723	0.668	0.695	0.559	0.660	0.571	0.590	0.503	0.537	0.580	0.404	0.435	0.427	0.464	0.527	0.628	0.654	0.585	0.858	1.120	1.767	3.399	7.404	13.62	11.52	4.658	0.953	0.356	0.297	0.295	0.314	0.380	0.312	0.277	0.310	0.341	0.349	0.368	0.363	0.361	0.321	0.424
260.0	30.33	24.24	39.45	99.86	103.9	96.57	411.7	2068	1747	184.0	10.45	6.242	5.211	4.403	3.508	3.273	3.055	2.787	2.307	2.433	2.680	2.540	2.510	1.909	1.754	1.662	1.210	1.071	1.120	1.037	0.898	0.979	0.899	0.852	0.747	0.690	0.723	0.628	0.555	0.652	0.668	0.620	0.528	0.609	0.570	0.423	0.378	0.430	0.422	0.397	0.535	0.897	0.802	0.608	0.573	0.704	1.044	2.388	6.861	13.20	15.54	10.57	3.283	0.659	0.346	0.314	0.357	0.335	0.293	0.310	0.359	0.323	0.370	0.355	0.366	0.356	0.324
265.0	34.21	21.90	21.61	65.18	138.4	86.30	120.5	809.6	2265	1614	135.1	8.672	5.278	4.516	3.766	3.803	3.066	3.030	2.607	2.392	2.521	2.560	2.683	2.012	1.841	1.540	1.305	1.049	1.238	1.128	0.975	0.906	0.823	0.805	0.780	0.904	0.714	0.802	0.638	0.610	0.648	0.640	0.601	0.610	0.559	0.473	0.372	0.418	0.402	0.324	0.364	0.654	0.863	1.007	0.749	0.534	0.568	0.802	1.967	4.339	9.848	16.98	17.62	10.46	2.077	0.417	0.332	0.348	0.298	0.289	0.439	0.315	0.380	0.357	0.369	0.363	0.378
270.0	56.01	40.97	29.68	39.58	100.9	167.3	121.9	222.8	824.7	2245	2596	606.9	19.60	5.327	4.550	3.776	3.261	2.916	2.762	2.772	2.511	2.475	2.689	2.261	1.878	1.585	1.373	1.256	1.235	1.222	1.084	0.966	0.865	0.845	0.800	0.809	0.752	0.776	0.709	0.613	0.661	0.580	0.620	0.649	0.573	0.474	0.471	0.483	0.474	0.353	0.364	0.451	0.587	0.876	1.033	1.107	0.952	0.722	0.905	1.332	2.684	5.478	10.26	17.11	17.57	13.83	7.592	1.836	0.411	0.345	0.353	0.329	0.360	0.347	0.414	0.363	0.393
275.0	120.7	101.5	60.41	36.87	69.32	136.7	232.1	155.7	235.1	637.0	2527	6086	162.9	15.30	5.993	4.492	3.697	3.182	2.957	2.863	2.874	2.672	2.729	2.323	1.930	1.672	1.429	1.248	1.199	1.090	1.256	1.015	0.963	0.911	0.876	0.947	0.793	0.822	0.762	0.745	0.786	0.788	0.716	0.776	0.666	0.634	0.615	0.585	0.503	0.448	0.358	0.489	0.472	0.638	0.735	0.885	1.456	1.793	1.318	0.875	1.079	1.664	2.816	4.427	6.237	12.61	23.03	21.45	10.89	2.071	0.422	0.369	0.403	0.413	0.390	0.388	0.402
280.0	198.6	167.6	103.4	49.14	62.49	99.20	210.3	259.9	154.0	223.0	844.9	5690	3999	123.8	8.829	5.095	4.229	3.751	3.100	3.113	3.054	2.857	2.869	2.406	2.061	1.811	1.459	1.304	1.152	1.174	1.198	1.101	1.039	1.031	0.865	0.915	0.843	0.868	0.797	0.862	0.760	0.794	0.868	0.874	0.894	0.886	0.761	0.784	0.729	0.518	0.385	0.434	0.519	0.595	0.612	0.795	0.995	1.561	1.781	1.579	1.029	1.038	1.216	1.797	2.049	3.742	9.302	18.84	28.32	24.32	6.954	0.928	0.403	0.418	0.312	0.395	0.347
285.0	284.2	257.4	145.4	63.84	66.13	96.78	147.0	310.0	257.6	176.1	309.3	1944	5136	3023	83.39	7.064	4.757	4.148	3.386	3.512	3.133	3.086	3.078	2.635	2.120	1.860	1.325	1.178	1.371	1.154	1.200	1.101	0.990	1.073	1.043	0.927	0.828	0.971	0.889	1.058	0.920	0.908	0.931	0.999	1.039	1.142	1.053	0.993	0.812	0.559	0.417	0.544	0.499	0.581	0.621	0.738	0.784	1.086	1.391	2.108	2.170	1.549	1.104	1.291	1.309	1.648	2.867	5.862	14.26	29.46	29.15	16.67	3.951	0.522	0.390	0.467	0.420
290.0	355.5	345.8	220.8	104.2	81.10	104.4	138.7	224.5	374.3	358.2	292.9	633.4	1773	3778	2958	352.1	14.24	5.303	4.092	3.453	3.489	3.291	3.051	2.782	2.317	1.856	1.465	1.225	1.295	1.232	1.151	1.087	0.942	1.037	1.044	1.036	0.930	1.024	0.957	1.002	1.007	1.040	1.036	1.158	1.329	1.321	1.278	1.283	1.018	0.734	0.598	0.626	0.584	0.647	0.747	0.696	0.854	0.995	1.154	1.447	1.985	2.459	2.457	2.177	1.817	1.636	1.824	2.529	4.311	8.756	13.60	20.13	24.39	23.14	12.29	3.922	0.661
295.0	421.0	446.5	305.4	152.8	105.9	120.4	158.9	217.0	328.4	552.0	541.6	477.5	647.7	1085	3203	4196	94.17	13.41	5.752	4.040	3.965	3.686	3.594	3.019	2.570	1.973	1.675	1.331	1.275	1.213	1.353	1.056	1.096	1.009	1.039	1.145	1.027	1.164	0.973	0.975	1.182	1.147	1.212	1.311	1.382	1.541	1.425	1.567	1.328	0.860	0.714	0.786	0.662	0.756	0.847	0.845	0.947	1.051	1.330	1.386	1.619	1.946	2.484	3.639	3.404	2.792	2.361	2.436	2.632	3.697	4.300	5.657	7.575	15.00	26.71	33.04	16.55
300.0	469.5	507.7	387.6	202.3	142.8	150.5	188.4	258.0	340.4	536.9	787.2	638.4	551.2	542.1	1124	4023	3438	79.06	9.047	4.852	4.831	4.250	4.147	3.431	2.647	2.300	1.639	1.445	1.409	1.445	1.346	1.136	1.149	1.140	1.272	1.219	1.135	1.361	1.219	1.265	1.242	1.141	1.212	1.354	1.401	1.639	1.604	1.785	1.581	1.065	0.994	0.901	0.865	0.896	0.968	0.953	1.015	1.231	1.499	1.563	1.857	1.975	2.457	3.028	4.022	4.670	4.079	3.214	3.034	3.084	3.128	3.302	3.211	4.923	9.670	22.69	32.46
305.0	547.0	581.3	467.7	274.5	196.6	192.8	236.7	306.4	422.8	579.8	884.8	1014	783.6	648.6	636.2	1556	4361	2768	56.53	7.190	5.566	4.400	4.735	3.664	2.968	2.258	1.707	1.627	1.493	1.773	1.448	1.184	1.150	0.967	1.124	1.297	1.228	1.344	1.286	1.399	1.306	1.356	1.447	1.408	1.526	1.824	1.884	2.131	1.794	1.332	1.130	1.255	1.030	1.100	1.056	0.994	1.278	1.439	1.625	1.928	2.202	2.367	2.757	3.313	3.967	4.854	5.559	5.645	4.643	4.406	3.983	3.710	3.742	3.669	4.129	7.285	14.06
310.0	696.3	788.8	636.9	401.1	292.9	285.8	340.4	430.8	586.0	783.1	1051	1380	1451	1205	935.9	943.1	1681	3398	2317	256.7	16.30	6.119	5.457	4.269	3.091	2.780	1.886	1.777	1.607	1.567	1.477	1.429	1.247	1.065	1.223	1.243	1.334	1.430	1.362	1.456	1.454	1.575	1.662	1.716	1.914	2.146	2.324	2.534	2.289	1.723	1.482	1.710	1.421	1.372	1.408	1.410	1.649	2.001	2.257	2.381	2.806	3.161	3.503	4.209	4.646	5.444	5.994	6.764	7.519	7.428	7.056	6.569	5.854	5.765	5.331	5.318	6.339
315.0	905.2	964.3	836.4	548.8	416.5	414.3	480.8	611.9	796.9	1049	1352	1702	1991	1982	1556	1211	1021	1161	2466	3534	388.4	13.56	8.241	5.810	4.064	3.381	2.211	1.977	1.706	1.449	1.670	1.518	1.574	1.373	1.214	1.471	1.436	1.768	1.636	1.666	1.634	1.757	1.883	2.152	2.294	2.498	2.875	3.203	2.792	2.191	1.920	2.037	1.848	1.881	1.893	1.941	2.374	2.615	2.906	2.980	3.593	4.204	4.677	5.206	5.960	6.723	7.555	8.130	8.928	9.685	10.48	10.78	9.435	9.052	7.938	7.073	6.637
320.0	995.5	1158	1007	669.4	519.4	506.5	582.1	759.2	971.4	1243	1607	1974	2262	2444	2078	1547	1093	778.2	947.6	3213	3517	62.10	17.96	10.19	6.032	3.819	2.492	2.478	1.912	1.722	1.747	1.556	1.431	1.250	1.172	1.650	1.587	1.806	1.743	1.803	1.862	2.011	2.032	2.255	2.557	2.964	3.259	3.464	3.135	2.547	2.241	2.328	2.252	2.344	2.150	2.271	2.681	2.974	3.611	3.245	4.093	5.031	5.613	5.811	6.747	7.390	8.268	9.095	10.65	10.80	11.62	13.06	12.02	11.74	10.17	9.262	8.655
325.0	1106	1310	1180	821.9	634.1	607.0	696.9	879.7	1093	1404	1791	2201	2495	2651	2485	1890	1313	819.4	622.4	1212	4166	2276	59.13	33.66	10.86	4.592	2.806	2.368	2.233	1.979	1.703	1.684	1.560	1.270	1.487	1.552	1.697	1.970	1.876	1.843	2.012	2.064	2.244	2.326	2.898	3.219	3.470	3.855	3.771	3.066	2.656	2.930	2.589	2.623	2.684	2.596	3.017	3.494	3.880	4.070	4.892	5.474	6.168	6.851	7.504	8.046	9.203	10.33	11.50	11.74	12.93	13.87	13.71	14.04	12.92	11.35	10.27
330.0	1653	1911	1979	1757	1503	1200	1020	1105	1359	1682	2120	2562	2891	3009	2852	2479	1901	1432	1123	1243	2112	3374	3703	1161	129.2	21.64	5.885	3.732	2.785	2.772	2.077	1.997	1.756	1.582	1.618	1.735	1.919	2.329	2.246	2.319	2.594	2.826	3.196	3.395	4.219	4.599	4.751	5.630	5.740	5.237	5.238	6.200	5.903	5.613	5.142	4.649	4.718	4.553	4.909	5.095	6.006	6.558	7.407	8.118	8.975	9.919	10.71	11.87	13.39	13.74	14.76	15.59	15.38	15.77	15.53	14.93	13.92
335.0	3198	3449	4134	4500	4170	3020	1857	1533	1775	2196	2726	3236	3622	3749	3605	3270	2983	2715	2623	3165	3453	3612	6206	6571	1407	123.0	22.14	7.767	4.534	4.061	3.092	2.743	2.339	2.078	2.176	2.238	2.727	3.055	3.159	3.507	3.878	4.712	5.696	6.733	7.592	8.467	8.853	9.880	11.13	11.61	12.84	16.52	16.22	15.32	13.31	11.42	9.109	7.650	6.930	7.222	7.859	8.550	9.450	10.79	12.07	12.70	13.56	15.21	16.29	18.25	18.19	19.09	19.54	20.06	19.88	19.26	19.10
340.0	3964	4296	5136	5824	5523	3973	2333	1773	1982	2396	2954	3490	3913	4069	3959	3618	3400	3365	3320	4029	4356	4257	6016	7403	3728	415.6	53.99	16.59	6.684	4.949	3.686	3.097	2.834	2.335	2.498	2.462	3.061	3.407	3.783	4.269	4.654	5.525	6.850	8.245	9.408	10.71	10.31	12.57	13.58	14.93	16.32	21.96	21.81	21.16	18.13	15.23	12.16	9.020	8.159	7.881	8.781	9.678	10.78	11.99	12.53	13.74	15.24	16.19	17.53	19.48	19.76	20.60	20.92	22.28	22.12	21.17	21.71
345.0	4214	4616	5450	6161	5733	4127	2483	1866	2005	2424	2972	3545	3973	4178	4072	3761	3484	3536	3567	4225	4544	4716	5956	5773	6411	3144	314.7	37.54	11.37	5.860	4.069	3.571	2.987	2.588	2.510	2.741	3.026	3.833	3.998	4.593	4.954	6.034	7.393	8.503	9.999	11.14	10.91	13.43	15.10	15.33	17.58	22.88	23.13	21.61	18.50	15.29	12.53	9.682	8.771	8.368	8.939	9.604	10.65	12.30	13.01	14.15	15.27	16.66	17.48	19.32	20.32	21.44	21.84	22.71	22.39	22.84	22.76
350.0	4301	4620	5436	6203	5722	4134	2542	1922	2017	2385	2881	3436	3851	4041	3979	3736	3498	3500	3701	4359	4639	4917	6010	5204	4462	4093	2723	826.6	25.26	7.848	5.047	4.060	3.325	2.701	2.549	2.830	3.112	3.939	3.865	4.447	4.870	6.115	7.232	8.386	10.23	11.08	10.86	13.32	14.86	15.65	17.80	22.61	22.98	22.07	18.55	14.96	12.44	10.21	9.247	8.791	8.907	9.456	10.46	11.42	12.75	13.49	14.48	16.30	17.09	18.94	19.66	20.79	22.06	22.57	22.15	22.46	22.09
355.0	3830	4299	5047	5771	5407	3948	2512	1938	1964	2250	2667	3163	3551	3731	3706	3517	3335	3330	3507	4191	4441	4622	5537	4743	3527	2323	1958	4075	365.8	21.47	6.976	4.627	3.497	2.871	2.416	2.651	2.990	3.436	3.736	4.225	4.990	5.505	6.844	8.018	9.451	9.974	10.21	12.13	14.00	14.70	16.44	21.61	21.19	20.08	17.15	13.99	12.47	10.24	9.400	8.956	8.976	9.143	10.02	10.83	11.96	12.61	13.40	15.36	16.64	17.12	18.64	19.23	20.52	21.54	20.76	21.12	21.58
360.0	3532	4001	4642	5208	4895	3634	2471	1956	1925	2149	2510	2935	3282	3457	3454	3319	3157	3135	3270	3785	4074	4273	4900	4239	3380	2012	841.4	2966	3005	301.5	12.98	6.027	3.684	2.938	2.783	2.781	2.905	3.624	3.840	3.825	4.454	5.282	6.107	7.322	8.752	9.466	9.357	11.28	12.78	12.92	14.68	19.20	19.69	18.16	16.06	13.55	12.39	10.38	9.096	9.104	9.022	9.055	9.693	10.46	11.18	12.10	13.05	13.99	15.06	15.78	17.30	18.33	19.00	19.38	19.46	19.80	20.91
365.0	3206	3607	4259	4687	4414	3403	2434	1999	1938	2057	2365	2707	3035	3193	3228	3123	2991	2966	3065	3439	3676	3923	4301	3720	3175	1903	589.5	964.8	2957	2797	48.99	9.707	5.024	3.361	3.075	2.785	2.620	3.504	3.447	3.689	4.436	5.201	5.786	6.536	7.913	8.747	8.562	10.67	11.37	12.19	13.43	17.27	17.41	16.31	14.40	12.58	11.71	10.07	9.442	8.933	8.617	9.003	9.520	9.894	10.55	11.11	12.39	13.25	14.00	14.58	15.79	16.75	17.25	18.56	18.20	18.89	19.78
370.0	3016	3381	3936	4258	4021	3284	2558	2167	2029	2043	2230	2493	2779	2919	2973	2927	2855	2840	2899	3139	3265	3447	3706	3170	2703	1686	591.9	445.3	947.6	2644	2525	723.7	19.14	5.364	3.783	3.044	2.878	3.570	3.256	3.820	4.064	4.579	5.236	6.070	7.164	7.911	8.120	10.06	10.75	11.01	12.15	15.66	15.56	15.27	13.73	12.20	11.82	10.84	10.14	9.473	9.532	9.429	9.426	9.704	10.09	10.60	11.56	12.07	12.67	13.48	14.74	15.36	16.21	16.87	17.02	17.80	17.99
375.0	2877	3337	3794	4018	3840	3352	2810	2447	2221	2113	2168	2349	2573	2703	2783	2783	2783	2771	2818	2955	2987	3065	3231	2799	2380	1568	696.5	441.5	436.9	752.1	1573	3008	339.3	20.41	5.826	3.950	3.067	3.588	3.450	3.819	4.087	4.359	5.260	5.619	6.925	7.692	8.092	9.927	10.34	10.28	11.80	14.73	14.96	14.60	13.58	12.77	13.04	11.78	11.39	11.17	10.62	10.59	10.08	9.992	10.25	10.39	10.58	11.24	11.96	12.66	13.54	13.89	15.22	15.86	16.37	17.26	17.71
380.0	2873	3404	3789	3963	3855	3482	3068	2722	2411	2209	2169	2268	2466	2602	2705	2729	2751	2763	2798	2879	2865	2883	2932	2608	2273	1551	810.3	533.4	400.8	375.4	523.8	2126	2758	268.6	15.27	5.773	3.937	4.245	3.889	3.874	4.145	4.451	5.321	5.842	6.745	8.055	8.154	9.994	10.55	10.31	11.36	14.04	14.77	14.28	14.35	13.36	13.89	13.29	12.38	12.20	11.46	10.88	10.96	10.53	10.11	10.32	10.70	10.82	11.43	12.87	13.17	12.97	14.41	15.11	15.37	16.93	16.96
385.0	2965	3427	3857	4001	3958	3706	3350	2981	2626	2311	2191	2258	2410	2554	2656	2718	2755	2783	2811	2853	2798	2782	2750	2460	2216	1580	930.2	652.3	475.6	364.8	307.4	687.2	2575	2283	227.0	10.42	5.356	5.100	4.173	4.129	4.130	4.879	5.310	5.861	7.075	7.960	8.457	10.33	10.89	10.41	11.17	14.53	14.41	14.95	14.48	14.02	14.33	14.32	13.33	12.58	12.38	11.78	11.05	11.00	10.24	10.35	10.52	10.75	11.58	12.60	12.57	13.29	14.33	15.53	15.41	16.59	17.39
390.0	3129	3769	4145	4189	4171	4059	3768	3365	2917	2489	2277	2259	2381	2525	2630	2716	2796	2842	2860	2861	2786	2729	2640	2368	2149	1676	1120	840.7	646.5	490.6	365.5	352.7	812.4	1853	2740	849.4	19.17	8.010	5.554	4.831	4.862	5.204	5.541	6.390	7.368	8.391	9.245	10.62	11.34	10.94	11.78	14.47	15.31	15.88	15.22	15.33	16.12	15.88	15.20	14.24	13.86	13.18	12.27	11.61	11.10	10.71	10.17	10.91	11.22	12.05	12.65	13.42	14.20	15.29	15.60	16.47	17.50
395.0	3340	4009	4338	4369	4431	4364	4088	3714	3176	2686	2366	2294	2376	2503	2610	2728	2814	2877	2892	2881	2790	2710	2590	2343	2111	1756	1346	1050	842.7	664.3	505.4	377.5	385.2	552.4	1597	3744	287.0	24.30	8.094	5.998	5.865	5.643	5.713	6.666	7.853	8.938	9.368	11.45	11.87	11.08	12.13	15.16	15.57	16.60	16.36	16.34	17.49	17.29	16.79	15.11	14.87	14.40	13.07	12.27	11.66	11.25	10.90	11.21	11.35	12.27	12.63	13.36	13.73	14.78	15.67	16.66	17.25
400.0	3466	4097	4514	4498	4542	4509	4299	3924	3336	2789	2415	2294	2358	2494	2591	2716	2819	2879	2897	2878	2787	2693	2573	2347	2120	1799	1484	1217	990.0	805.3	629.2	462.6	354.9	304.3	510.7	2465	2312	267.5	16.99	8.290	6.631	6.266	6.114	6.871	7.987	9.382	9.752	11.47	11.73	11.66	12.23	15.59	15.49	16.81	16.32	17.09	18.25	18.47	17.81	16.61	15.71	14.90	13.93	12.44	11.90	11.57	10.85	11.08	11.02	12.25	12.85	13.29	14.24	14.96	15.44	16.61	17.80
405.0	3505	4185	4490	4521	4607	4593	4436	4067	3439	2847	2465	2316	2341	2470	2572	2683	2789	2858	2877	2837	2768	2660	2556	2341	2133	1841	1566	1362	1124	931.5	747.1	565.4	412.9	308.9	279.0	766.3	2082	2283	184.4	13.56	8.840	7.214	6.583	6.915	8.125	9.145	9.882	11.75	12.21	11.91	12.53	15.45	16.11	17.22	16.77	17.44	19.10	19.06	18.08	17.07	16.48	15.85	14.33	13.10	11.97	11.59	11.17	11.46	10.75	12.03	12.42	12.76	14.21	14.70	15.45	16.26	17.47
410.0	3494	4178	4497	4489	4600	4605	4492	4106	3505	2902	2490	2320	2319	2407	2515	2618	2718	2784	2807	2765	2695	2602	2500	2322	2127	1888	1647	1476	1312	1104	901.1	715.7	548.5	406.7	309.4	344.9	665.9	2176	1846	638.5	20.94	10.20	8.443	7.518	8.406	9.540	9.919	11.65	12.35	11.88	12.40	15.52	16.36	16.90	17.28	17.51	18.81	18.88	18.14	17.48	16.93	15.94	14.50	13.80	12.64	11.31	11.03	11.32	11.17	11.87	12.39	12.41	14.03	14.30	15.38	15.99	16.47
415.0	3491	4067	4387	4337	4485	4510	4420	4065	3527	2913	2502	2294	2270	2336	2431	2502	2602	2670	2693	2656	2586	2505	2406	2264	2111	1909	1717	1550	1435	1279	1059	862.0	678.7	529.0	402.8	324.7	326.3	620.5	1070	2375	265.6	24.99	13.21	9.611	9.634	9.901	9.953	11.69	11.75	11.61	12.43	15.34	15.92	16.34	17.03	17.10	18.13	18.51	17.79	17.68	16.97	15.69	14.29	13.63	12.43	11.52	11.53	10.83	10.89	11.29	12.18	12.23	13.24	13.37	14.32	15.18	16.48
420.0	3313	3897	4251	4240	4320	4410	4298	3979	3453	2901	2485	2264	2226	2280	2350	2417	2497	2560	2569	2541	2487	2411	2336	2216	2076	1906	1731	1605	1479	1369	1175	962.1	781.9	619.9	485.2	377.5	298.4	301.9	374.9	1547	2140	227.2	24.21	15.03	11.56	10.81	10.14	11.24	11.58	11.24	11.78	14.80	15.04	15.74	16.27	17.18	17.97	18.03	17.45	17.29	16.89	15.94	14.28	13.12	12.01	11.48	11.56	10.60	10.85	10.91	11.91	12.09	12.79	13.58	14.35	14.91	15.64
425.0	3122	3746	4034	4076	4175	4207	4167	3850	3351	2844	2464	2237	2178	2202	2259	2325	2392	2451	2459	2427	2393	2328	2262	2155	2027	1886	1742	1628	1518	1417	1273	1060	866.5	709.6	569.4	450.1	341.5	279.5	239.3	520.5	2008	1758	183.4	26.49	17.43	12.53	10.36	11.50	11.28	10.77	11.06	14.50	14.61	15.72	15.67	16.04	17.13	17.90	17.02	16.51	16.37	15.47	13.89	13.07	12.17	11.48	11.23	10.73	10.57	11.31	11.35	11.50	12.30	13.27	14.09	14.82	15.03
430.0	2924	3482	3808	3885	3963	4016	3972	3720	3283	2810	2421	2211	2130	2130	2157	2205	2252	2300	2313	2284	2255	2200	2140	2067	1964	1850	1739	1651	1563	1468	1345	1182	986.1	818.0	683.0	560.9	454.2	367.0	291.7	316.1	698.0	1402	1702	597.3	58.48	22.61	14.02	12.44	11.39	10.55	10.77	13.73	13.65	14.65	14.91	15.27	16.76	16.86	16.51	16.01	15.39	14.96	13.76	12.97	11.86	11.52	10.80	10.78	10.50	10.81	11.09	11.42	11.68	12.52	12.86	13.82	14.41
435.0	2849	3266	3562	3643	3735	3768	3747	3535	3175	2744	2377	2171	2080	2048	2048	2090	2116	2152	2157	2139	2104	2074	2036	1979	1887	1804	1727	1661	1594	1522	1402	1273	1113	943.1	801.4	691.7	587.4	500.1	421.9	389.0	414.0	564.5	1135	2117	259.5	54.36	22.81	15.78	12.14	10.47	10.22	13.03	13.08	14.18	14.02	14.78	16.31	16.27	15.77	15.30	14.74	14.44	13.17	12.29	11.75	11.28	10.61	10.41	10.84	10.79	10.83	11.01	11.21	11.99	12.00	13.09	14.12
440.0	2821	3098	3366	3453	3543	3566	3571	3386	3065	2682	2366	2140	2026	1979	1989	1994	2010	2035	2036	2025	1997	1973	1943	1900	1822	1766	1698	1652	1602	1549	1443	1313	1186	1032	897.2	785.6	691.5	606.3	537.3	493.6	472.5	479.4	573.7	1610	1927	225.6	32.44	20.41	13.82	11.06	10.70	12.38	12.58	13.40	13.56	14.00	15.46	15.27	15.34	14.82	14.54	13.74	13.19	12.60	11.82	11.19	10.38	10.55	10.28	10.16	10.54	10.83	10.95	11.78	11.72	12.38	13.64
445.0	2684	3045	3160	3261	3294	3417	3422	3279	2973	2618	2332	2100	1976	1921	1904	1898	1909	1915	1924	1915	1891	1869	1855	1815	1764	1710	1659	1628	1592	1556	1460	1344	1224	1108	976.2	866.7	781.0	702.2	634.6	592.9	570.0	543.7	502.5	703.1	1795	1621	165.9	28.73	17.05	12.29	10.70	12.14	12.15	12.75	13.21	13.43	14.19	14.74	14.79	14.92	14.38	13.22	13.34	12.48	11.71	10.94	10.41	10.24	9.761	10.27	10.11	10.70	10.77	11.34	11.10	12.14	12.26
450.0	2325	3024	2955	2994	3042	3142	3164	3065	2817	2539	2258	2043	1900	1827	1781	1755	1760	1768	1766	1756	1736	1733	1713	1689	1656	1616	1584	1563	1554	1528	1459	1357	1243	1144	1043	948.7	863.8	789.0	729.9	687.3	664.0	631.9	554.0	491.0	702.0	1329	1587	493.2	25.97	15.84	12.31	12.25	11.57	11.98	12.13	12.69	13.39	13.65	13.89	13.60	13.27	12.92	12.64	12.05	11.34	10.77	10.33	10.28	9.699	9.814	9.976	9.977	10.05	10.64	10.76	11.24	11.61
455.0	1909	2807	2878	2683	2760	2833	2904	2822	2644	2411	2168	1985	1820	1716	1648	1613	1603	1588	1586	1576	1574	1572	1562	1552	1529	1500	1489	1483	1490	1477	1430	1347	1236	1147	1069	1001	913.7	844.1	785.2	739.0	711.6	674.5	591.0	478.9	419.4	476.6	943.5	1668	204.1	24.51	15.96	13.91	11.90	11.61	11.35	11.71	12.20	12.80	12.87	12.65	12.51	12.47	11.48	11.33	10.79	10.06	10.08	9.766	9.272	9.401	9.306	9.089	9.655	9.965	9.925	9.940	10.53
460.0	1691	2381	2870	2513	2582	2631	2705	2641	2516	2318	2112	1914	1739	1633	1546	1494	1479	1466	1458	1460	1453	1457	1452	1446	1437	1414	1410	1417	1428	1431	1389	1322	1224	1141	1065	1015	937.8	865.3	806.0	755.0	724.5	684.9	601.3	487.8	376.4	306.1	362.9	1085	1421	166.4	22.46	16.05	12.06	11.02	11.01	10.71	11.59	11.83	12.18	11.85	11.68	11.72	11.21	10.94	10.53	10.14	10.04	9.342	8.783	9.045	8.614	8.900	9.477	9.189	9.673	9.505	9.526
465.0	1560	2033	2772	2496	2381	2451	2507	2470	2382	2220	2028	1840	1678	1551	1452	1393	1367	1367	1356	1356	1347	1345	1350	1347	1342	1331	1330	1340	1357	1371	1339	1282	1197	1122	1054	1004	946.2	873.7	810.8	760.7	725.9	681.1	604.0	496.2	383.5	286.8	234.7	388.7	1233	1244	136.0	19.86	13.45	11.50	11.01	10.61	11.16	11.34	11.62	11.01	11.21	11.15	11.01	10.87	9.774	9.844	9.415	9.027	8.765	9.084	8.469	8.688	8.961	8.491	8.752	9.010	8.913
470.0	1383	1750	2297	2543	2162	2200	2255	2269	2209	2092	1928	1755	1578	1434	1330	1265	1239	1225	1208	1210	1202	1205	1214	1216	1214	1212	1220	1234	1256	1276	1258	1210	1142	1074	1013	963.5	917.0	863.9	803.8	750.9	714.2	670.1	597.8	500.7	399.7	305.8	231.6	216.2	414.8	952.7	1084	423.6	21.15	13.32	10.84	10.31	10.42	10.51	10.63	10.41	10.60	10.53	10.34	10.29	9.395	9.379	8.872	8.440	8.421	8.362	8.012	8.279	7.976	8.025	8.178	8.201	8.473
475.0	1207	1524	1837	2357	2119	1941	2032	2051	2020	1940	1811	1643	1476	1317	1210	1146	1104	1085	1072	1069	1066	1070	1080	1087	1090	1093	1100	1122	1150	1177	1168	1129	1068	1013	960.3	917.7	870.8	831.1	786.4	731.2	691.8	648.7	586.0	496.2	405.8	322.1	249.3	195.9	197.5	289.9	552.1	1308	205.3	23.17	12.00	10.42	10.36	9.879	9.435	9.887	9.482	9.422	9.277	9.174	9.073	8.811	8.371	7.722	7.709	7.571	7.434	7.598	7.206	7.300	7.817	7.706	7.636
480.0	1077	1399	1621	1984	2245	1830	1868	1917	1916	1843	1741	1572	1390	1252	1132	1068	1019	998.1	985.6	982.4	973.7	985.1	989.7	1007	1009	1020	1031	1050	1085	1105	1105	1074	1020	970.2	921.8	885.0	840.4	802.8	768.4	718.0	675.1	631.1	569.1	490.4	410.3	330.4	260.5	201.1	159.8	149.0	190.0	750.6	1077	192.8	17.00	11.04	10.03	9.680	9.190	9.437	8.964	8.821	9.200	9.091	8.906	8.588	8.056	7.851	7.400	7.085	6.805	7.251	6.633	7.011	7.235	6.975	7.012
485.0	1005	1323	1490	1664	2231	1864	1749	1801	1810	1775	1673	1526	1333	1191	1076	1006	958.0	934.4	915.4	917.9	915.9	918.5	921.4	938.0	948.3	957.3	968.1	991.8	1028	1055	1058	1022	978.4	931.1	888.4	854.6	812.1	776.9	744.9	705.9	658.1	608.4	551.8	481.2	408.1	335.7	269.5	210.4	161.4	125.3	109.2	240.7	832.8	1080	137.4	13.97	10.85	9.698	8.950	9.243	8.696	8.636	8.921	8.675	8.441	8.245	7.738	7.809	7.212	7.194	6.690	6.615	6.524	6.738	6.741	6.532	6.813
490.0	914.9	1192	1336	1438	1834	2074	1647	1667	1687	1666	1606	1442	1254	1117	1009	930.4	887.4	854.5	839.3	831.2	829.4	833.8	845.9	858.8	869.9	874.9	893.3	919.0	951.7	978.7	983.9	955.9	915.3	875.8	836.9	809.3	771.2	736.6	702.5	668.7	629.4	582.2	528.2	466.3	399.7	334.0	275.4	217.6	169.8	128.7	99.87	108.7	253.0	695.6	853.6	423.0	19.35	10.26	9.190	8.909	8.635	8.308	8.240	8.252	7.961	7.839	7.634	7.343	6.993	6.960	6.375	6.306	6.278	6.345	6.154	6.055	6.378
495.0	789.0	1067	1236	1267	1421	2035	1724	1507	1554	1557	1501	1358	1176	1041	929.7	852.6	799.1	771.2	756.1	746.2	752.3	750.5	766.6	774.7	786.0	795.7	815.2	835.9	870.4	899.1	904.7	883.4	849.2	812.5	780.6	748.3	718.8	686.0	652.0	619.1	588.8	547.3	500.2	442.3	382.0	326.5	274.0	221.5	175.5	136.6	104.7	85.37	102.0	190.2	426.0	1237	234.2	21.05	10.03	8.829	8.030	7.908	7.871	8.030	7.693	7.162	6.878	6.979	6.811	6.765	6.033	5.631	6.078	5.823	5.414	5.486	5.632
500.0	728.4	968.7	1133	1169	1232	1690	1863	1415	1451	1456	1409	1272	1116	977.6	862.9	792.2	738.0	710.1	699.0	685.8	685.0	688.0	699.6	714.6	724.6	735.8	749.4	775.1	806.3	832.2	838.3	820.3	788.7	755.1	729.4	700.6	670.3	641.2	614.7	577.2	549.2	515.4	472.2	420.6	367.1	316.4	267.0	220.5	175.6	139.5	109.0	83.83	71.35	79.97	128.4	660.2	1238	206.2	16.38	9.394	8.198	7.733	7.331	7.506	7.070	6.656	6.742	6.531	6.283	6.312	6.058	5.234	5.718	5.410	5.286	5.237	5.376
505.0	669.9	881.9	1028	1070	1108	1346	1889	1429	1345	1355	1311	1186	1044	904.1	806.9	731.4	686.8	661.7	639.5	631.5	626.9	632.8	643.6	653.7	666.2	679.8	692.8	711.7	746.3	773.1	776.5	760.7	733.1	699.3	677.4	650.9	628.1	597.8	571.3	540.3	508.0	479.8	441.5	395.7	348.4	304.0	257.8	215.6	173.3	139.6	109.8	86.04	66.70	57.02	59.17	190.6	856.7	991.2	169.4	11.45	7.986	7.868	6.880	6.903	7.044	6.382	6.024	5.882	5.874	5.461	5.441	5.060	5.039	5.297	4.626	4.941	4.775
510.0	570.3	749.5	910.2	952.7	974.7	1070	1506	1598	1233	1220	1189	1085	950.5	818.9	730.6	655.4	612.5	589.8	568.3	559.5	555.5	562.3	567.0	577.8	589.3	600.5	616.2	636.6	661.8	686.1	694.8	676.4	655.9	626.8	603.5	583.1	563.5	537.2	511.7	485.6	458.5	428.8	399.7	363.7	321.0	280.4	242.9	204.0	166.6	136.7	110.1	86.04	67.26	55.67	47.16	69.92	236.9	578.7	882.8	350.2	17.43	7.988	7.079	6.731	6.448	6.120	5.805	5.393	5.301	5.182	4.862	4.604	4.498	4.707	4.455	4.571	4.530
515.0	479.3	635.5	779.1	836.1	856.6	912.9	1097	1576	1281	1083	1050	963.3	842.8	730.4	642.5	584.4	543.0	516.9	495.2	490.3	491.1	490.1	495.6	507.1	514.2	524.5	541.5	558.2	585.0	602.9	608.8	597.0	574.9	550.9	534.3	511.9	497.0	475.6	452.8	430.0	403.3	378.9	353.5	325.6	293.2	253.8	225.2	189.2	158.1	131.6	106.4	87.26	68.32	56.74	46.62	45.77	76.18	148.1	363.7	932.2	237.9	20.62	7.684	6.819	5.711	5.714	5.451	5.134	4.686	4.611	4.364	4.285	4.248	4.327	4.051	4.412	4.119
520.0	435.9	578.6	697.0	748.0	788.1	815.0	899.9	1298	1457	1008	949.9	888.2	769.7	669.2	589.2	530.1	493.7	465.1	452.0	445.1	440.2	440.9	450.1	458.7	465.8	476.9	486.5	503.2	527.6	545.2	547.4	537.2	516.2	497.5	480.0	462.3	451.0	431.7	411.9	389.6	365.5	344.1	317.9	293.7	270.2	238.8	209.6	180.1	150.3	126.2	104.1	85.61	68.97	56.50	46.78	41.31	42.66	52.62	99.83	448.1	880.4	219.5	15.63	6.838	5.639	5.420	4.849	4.725	4.586	4.530	3.971	3.990	4.179	4.151	3.546	3.852	3.898
525.0	400.8	530.8	621.6	661.7	713.1	730.9	793.4	990.9	1524	1028	872.5	807.0	710.4	613.2	540.2	484.3	451.1	423.9	411.0	402.6	398.2	399.7	411.3	413.6	421.4	430.8	439.5	456.4	480.5	493.0	498.0	488.0	467.4	448.8	434.4	418.5	406.8	390.5	373.9	354.5	333.3	312.7	291.4	268.9	247.9	223.9	195.8	167.9	143.6	120.5	100.7	82.68	67.56	57.55	47.21	40.63	35.24	33.39	39.21	121.3	516.1	855.1	187.2	9.145	5.861	5.075	4.562	4.359	4.252	4.071	3.513	3.825	3.428	3.504	3.448	3.414	3.415
530.0	354.4	466.1	538.7	571.3	624.1	656.7	687.3	761.4	1171	1285	804.2	715.2	630.2	544.9	475.9	427.9	396.2	376.2	361.6	352.4	348.1	351.0	357.0	363.3	369.1	376.2	384.6	400.0	417.5	431.4	435.7	425.4	408.9	391.4	378.6	366.6	354.6	341.6	327.1	309.6	294.2	273.3	256.2	237.1	218.8	199.9	178.3	152.9	130.8	110.3	94.26	79.12	65.18	56.34	47.43	40.18	34.10	29.37	26.16	41.35	136.2	420.3	683.8	306.8	16.69	5.307	4.478	4.094	3.799	3.853	3.591	3.429	3.152	3.276	3.051	3.093	3.103
535.0	307.0	406.9	437.6	479.6	515.9	572.6	596.7	641.0	782.8	1320	945.6	618.8	548.6	471.4	416.3	373.4	345.0	324.5	312.8	301.7	300.2	302.9	306.8	310.8	316.4	324.3	331.5	342.6	355.8	372.5	373.0	364.4	348.5	338.0	326.3	314.7	303.2	291.3	279.5	264.4	254.3	235.8	220.9	204.3	189.2	171.9	159.3	137.7	117.3	100.5	85.82	72.96	61.23	54.10	46.13	39.81	34.11	28.05	23.44	24.00	42.87	103.8	231.3	673.6	248.0	19.87	4.552	3.896	3.621	3.445	2.998	2.744	2.888	2.954	2.464	2.669	2.671
540.0	268.9	355.1	394.7	422.8	458.2	533.8	535.1	559.7	627.1	1021	1254	569.1	491.0	423.6	370.4	331.4	303.4	287.9	276.4	267.4	265.7	267.9	269.5	274.3	279.5	286.6	292.6	302.3	317.2	326.3	330.2	320.7	310.2	295.8	287.9	275.8	267.4	256.7	246.6	232.8	222.7	208.2	194.8	181.7	168.7	154.1	142.1	126.5	109.1	92.30	79.00	68.05	58.18	50.06	44.19	39.10	33.17	27.49	22.94	20.00	21.71	33.08	60.39	283.8	669.1	210.1	13.00	3.809	3.418	3.196	3.010	2.637	2.631	2.718	2.376	2.555	2.583
545.0	230.0	303.0	341.7	379.5	402.6	465.7	481.6	491.1	529.2	695.2	1432	610.5	433.9	378.8	331.0	294.3	273.0	256.2	244.1	237.1	235.3	238.2	236.9	243.1	247.2	251.2	257.1	267.8	278.9	290.0	292.1	284.2	270.6	259.9	251.5	243.1	234.4	227.3	217.1	204.4	197.3	184.1	173.8	162.3	150.3	138.3	125.9	113.4	99.97	85.58	72.86	63.23	54.02	46.69	41.20	36.72	31.65	26.66	21.95	18.86	16.97	17.66	21.64	73.19	327.6	495.7	163.2	7.391	3.479	2.753	2.662	2.581	2.519	2.396	2.337	2.146	2.314
550.0	206.9	258.6	291.5	314.3	334.6	372.0	419.0	415.1	443.0	491.5	982.8	950.0	390.5	317.0	277.8	248.2	229.2	215.1	205.6	197.8	197.9	198.0	198.4	204.5	206.8	211.0	213.7	224.3	234.0	240.5	241.6	235.3	226.6	215.9	209.2	202.1	195.3	188.6	181.2	171.9	164.7	155.6	143.8	136.0	126.1	116.1	106.0	94.88	85.67	74.70	64.35	55.31	48.09	42.27	37.19	33.59	29.36	25.01	20.56	17.73	15.14	13.63	12.84	23.07	82.72	206.8	352.7	199.8	15.54	3.010	2.580	2.248	2.191	2.046	2.060	1.840	2.083
555.0	183.1	225.2	241.4	266.4	269.2	298.6	340.9	351.2	362.5	380.0	512.0	1072	513.0	261.6	227.2	205.9	189.5	175.1	169.5	163.1	161.1	162.4	163.1	165.7	168.7	170.1	174.9	180.7	189.6	196.4	196.7	190.2	183.1	175.6	167.1	164.2	158.0	152.0	146.7	138.3	131.6	125.5	117.5	111.0	103.7	95.01	86.79	78.00	71.22	63.02	55.08	47.47	41.13	36.58	32.71	29.50	26.34	22.68	19.26	16.42	13.96	11.98	10.53	11.50	23.64	50.45	105.0	332.6	231.3	19.75	2.465	2.159	1.885	1.808	1.597	1.701	1.671
560.0	161.7	196.8	208.3	218.9	232.2	246.3	284.1	312.7	307.7	317.4	349.0	747.7	820.8	233.6	193.2	174.8	161.0	147.0	142.2	138.7	136.7	136.0	137.8	139.3	141.2	144.2	148.3	153.2	160.6	165.1	163.9	161.7	153.2	148.8	140.6	136.7	132.2	127.3	122.2	116.8	111.8	105.3	99.46	93.64	87.78	80.56	74.41	66.09	60.44	53.86	48.92	41.66	36.30	32.58	28.70	26.55	23.44	20.95	17.64	15.57	12.55	10.97	9.839	8.866	10.21	15.84	27.51	120.3	316.0	196.1	12.51	2.040	1.709	1.694	1.542	1.540	1.584
565.0	152.2	179.7	188.4	184.5	201.9	210.4	228.7	276.0	272.9	279.5	277.7	421.3	1001	303.6	167.2	149.1	136.2	127.0	120.5	118.0	115.8	116.1	117.7	118.4	121.2	123.1	125.6	129.7	135.6	139.1	140.5	136.4	130.5	127.0	119.9	115.8	112.2	108.2	102.6	97.39	93.34	89.23	84.60	79.14	74.59	69.12	63.61	57.07	52.05	45.75	41.97	36.92	32.06	28.73	25.58	22.91	20.61	19.22	15.87	13.91	11.99	9.925	8.832	7.906	6.878	7.991	10.02	30.46	125.2	323.0	137.5	5.767	1.638	1.767	1.416	1.291	1.365
570.0	133.7	154.1	160.2	148.5	161.9	173.6	186.8	223.8	240.8	230.2	226.4	248.9	653.7	729.2	151.4	122.6	110.9	104.2	98.80	95.73	94.17	94.56	95.88	96.27	98.44	99.35	101.4	105.7	108.7	112.4	112.6	109.0	105.0	100.7	96.07	93.09	90.34	86.71	82.69	79.34	75.46	71.98	67.18	63.96	59.90	55.98	51.24	46.27	42.26	37.57	34.19	31.07	27.74	24.63	21.67	20.03	18.26	16.37	14.04	12.12	10.77	9.160	7.955	7.105	5.877	5.597	5.736	9.500	30.94	118.5	218.2	127.9	14.09	1.645	1.318	1.172	1.121
575.0	114.6	131.6	128.4	124.6	136.6	139.7	148.9	172.8	204.2	194.8	184.4	181.9	278.6	900.8	250.4	96.44	88.63	82.97	80.30	77.54	75.49	74.83	76.49	76.37	77.69	79.81	81.31	82.49	86.34	89.99	88.52	87.05	84.55	80.05	75.68	74.41	71.11	67.54	65.67	62.57	60.09	56.82	53.10	50.91	48.22	44.70	41.57	37.36	34.37	30.56	27.59	25.03	22.99	20.68	18.43	17.11	15.16	13.44	12.04	10.58	9.676	8.267	7.261	6.263	5.333	4.999	4.518	4.755	9.367	28.41	59.91	167.7	174.8	18.32	1.433	1.275	1.061
580.0	108.4	116.5	117.4	110.4	106.8	116.2	135.1	143.0	177.9	178.0	161.9	152.0	163.1	593.9	475.7	89.33	75.58	71.17	68.48	66.16	62.84	64.11	65.05	65.32	67.25	66.36	67.36	69.31	71.72	75.46	75.69	73.73	69.34	66.04	63.27	61.89	58.51	56.33	54.87	52.23	50.75	47.77	45.36	42.38	39.85	37.65	35.24	31.65	28.85	25.92	23.44	21.56	20.33	18.06	16.33	15.28	13.28	11.94	10.70	9.626	8.373	7.098	6.294	5.523	4.532	4.459	4.044	3.509	4.515	8.154	15.07	55.40	199.9	139.7	10.56	1.130	1.027
585.0	103.0	111.1	103.2	99.90	93.56	106.8	115.0	124.1	148.0	167.2	146.2	137.7	125.5	279.5	613.5	110.0	66.86	60.41	58.10	56.83	53.46	55.15	56.17	55.19	57.02	56.38	57.95	58.83	62.38	63.35	64.97	62.12	59.60	56.28	54.52	52.08	49.50	48.44	47.16	45.18	42.97	40.29	38.31	36.36	34.40	32.10	29.91	27.63	24.97	22.34	20.28	18.69	17.23	16.64	14.38	13.65	11.75	11.00	9.381	8.376	7.378	6.697	6.016	5.441	4.511	4.045	3.738	3.300	3.011	3.556	5.069	14.01	76.96	205.4	98.37	4.157	0.999
590.0	91.96	99.76	89.38	83.43	81.68	89.21	96.59	101.6	116.8	150.0	135.3	120.9	104.3	131.5	388.0	291.6	59.50	49.94	47.59	46.49	44.66	45.22	45.60	46.20	46.52	46.06	47.81	47.82	50.22	51.07	51.80	49.82	47.56	45.53	44.24	41.74	40.40	38.94	37.86	35.77	34.24	33.24	31.13	29.30	28.25	26.11	24.48	22.42	20.39	18.59	16.49	14.99	13.70	13.29	12.40	11.37	10.31	9.285	8.018	7.234	6.278	5.979	5.456	4.928	4.051	3.561	3.307	2.860	2.523	2.505	2.629	4.542	18.72	71.75	147.0	90.41	13.02
595.0	92.13	91.02	77.04	67.86	67.04	74.37	78.23	83.58	98.77	121.2	132.6	107.6	91.06	87.08	146.2	382.3	95.92	40.59	38.76	38.17	36.86	37.16	37.26	37.11	37.84	35.91	37.34	38.87	40.02	40.14	41.24	39.64	38.75	36.50	34.88	33.49	32.05	30.95	29.70	27.97	27.21	26.38	24.18	23.16	22.16	21.25	19.30	17.82	16.51	14.81	13.65	12.31	11.28	10.38	10.08	9.744	8.892	8.014	6.799	6.259	5.406	4.983	4.538	4.000	3.585	3.174	2.986	2.433	2.326	2.190	2.035	2.304	5.166	16.89	38.98	112.0	118.0
600.0	82.34	84.96	69.97	60.30	56.20	59.85	72.44	75.42	88.05	100.2	126.2	101.8	86.48	74.92	77.59	268.5	232.7	37.50	32.91	32.30	31.17	29.99	30.52	31.14	31.16	31.39	31.34	31.89	33.05	33.76	34.17	32.91	32.01	30.05	28.66	27.10	27.12	25.65	24.83	23.93	22.40	21.94	20.78	19.54	18.32	17.36	16.27	15.00	14.06	12.61	11.61	10.43	9.421	9.170	8.570	8.125	7.892	6.860	6.032	5.267	4.835	4.470	3.944	3.611	3.423	3.047	2.708	2.256	2.095	2.014	1.775	1.774	2.311	4.753	9.641	36.38	123.2
605.0	75.94	82.13	66.46	56.15	49.20	54.69	60.57	68.29	76.84	87.30	112.9	104.9	86.00	72.41	60.48	129.6	331.8	54.57	28.03	26.97	26.56	25.88	26.06	26.85	25.76	26.93	26.30	27.60	28.10	28.41	29.39	27.74	26.46	25.16	24.14	22.87	22.09	21.49	21.23	19.97	18.69	18.37	17.27	16.73	15.94	14.91	13.78	12.66	11.81	10.59	9.962	9.007	8.240	7.644	7.042	6.972	6.815	6.248	5.324	4.701	4.240	3.954	3.612	3.326	3.062	2.755	2.559	2.155	2.158	1.824	1.433	1.632	1.718	2.032	2.971	9.002	45.13
610.0	68.31	75.32	64.29	50.28	47.42	48.28	53.36	59.46	68.56	78.07	98.03	108.6	89.46	75.29	59.95	65.18	235.9	163.4	27.18	22.82	21.44	20.78	21.54	21.43	21.14	21.46	21.45	22.11	22.38	22.65	23.27	22.40	21.21	20.19	19.16	18.86	17.71	17.17	16.77	15.77	15.20	14.38	13.58	13.23	12.58	11.94	11.41	10.47	9.509	8.685	8.025	7.365	6.486	6.262	5.914	5.594	5.310	5.208	4.532	4.029	3.650	3.428	3.064	2.819	2.685	2.354	2.413	2.107	1.957	1.635	1.582	1.348	1.332	1.433	1.489	2.768	11.01
615.0	72.84	70.73	65.00	47.84	43.90	42.73	48.97	52.61	62.76	74.41	86.59	107.5	97.80	79.92	66.04	53.20	91.45	272.6	63.62	18.43	17.80	16.76	16.66	16.89	17.19	16.99	16.62	17.33	17.30	17.57	18.24	17.34	16.78	15.68	15.24	14.48	14.10	13.11	13.22	12.13	11.74	11.12	10.85	10.21	9.938	9.277	8.926	7.983	7.453	6.998	6.336	5.910	5.157	5.085	4.562	4.546	4.320	4.199	3.885	3.478	2.943	3.163	2.679	2.401	2.352	2.056	2.048	1.823	2.030	1.601	1.434	1.311	1.278	1.303	1.164	1.406	3.182
620.0	65.05	69.74	60.20	48.06	38.93	41.38	45.85	50.63	57.77	66.72	85.73	104.9	108.3	85.59	70.33	53.48	49.06	207.0	171.0	17.20	14.66	14.08	14.21	14.43	14.19	14.28	14.02	14.50	14.54	15.11	15.14	14.47	13.83	13.02	12.16	11.38	11.29	11.00	10.91	10.08	9.487	8.986	8.947	7.987	8.053	7.775	7.109	6.685	6.144	6.010	5.162	4.931	4.543	4.272	3.969	3.789	3.656	3.479	3.143	3.061	2.470	2.563	2.309	2.032	2.132	1.951	1.798	1.634	1.752	1.596	1.279	1.282	1.207	1.124	1.087	1.065	1.479
625.0	62.37	72.22	57.62	48.01	39.96	37.00	40.42	48.77	57.22	66.24	83.19	98.52	112.2	92.31	75.57	57.76	40.88	98.38	270.4	29.91	12.50	12.29	12.22	12.42	12.52	12.06	11.81	12.13	12.56	12.31	13.18	11.76	11.33	10.53	10.60	9.844	9.690	9.734	8.445	8.270	7.898	6.992	7.426	7.137	6.852	6.393	5.907	5.629	5.283	4.838	4.260	4.304	3.813	3.673	3.244	3.302	3.011	2.897	2.796	2.917	2.328	2.163	1.970	1.777	1.780	1.588	1.624	1.677	1.612	1.546	1.453	1.302	1.190	1.203	1.045	0.952	1.105
630.0	69.83	73.37	59.44	43.45	39.47	37.04	38.70	46.40	55.50	65.40	81.27	94.87	113.2	103.8	83.85	62.87	43.36	44.70	205.6	146.8	12.28	10.16	9.955	10.08	9.696	9.640	9.526	9.986	9.936	9.930	10.30	9.272	9.014	8.229	8.202	8.058	7.546	7.424	6.734	6.681	6.500	6.071	6.036	5.476	5.320	4.954	4.642	4.558	4.096	3.850	3.349	3.259	2.990	2.895	2.763	2.540	2.510	2.323	2.344	2.268	2.071	1.922	1.785	1.733	1.581	1.441	1.410	1.460	1.469	1.375	1.400	1.283	1.161	1.068	0.991	0.931	0.889
635.0	62.38	73.87	56.84	46.96	36.65	33.75	37.10	44.69	55.45	64.23	80.43	95.21	108.5	114.9	90.65	69.52	48.06	33.56	73.45	279.5	35.18	8.123	8.208	8.200	7.172	7.400	7.492	7.711	7.447	7.475	8.015	7.454	7.024	6.490	6.399	5.976	5.650	5.689	5.449	5.147	5.140	4.590	4.432	4.317	3.961	3.925	3.739	3.534	3.168	3.111	2.725	2.782	2.267	2.327	2.183	2.280	2.001	1.940	1.845	1.831	1.675	1.579	1.550	1.474	1.312	1.300	1.296	1.313	1.204	1.151	1.213	1.162	1.287	1.013	0.998	0.922	0.761
640.0	68.30	76.20	56.28	38.65	32.91	31.02	39.42	42.43	53.34	64.98	79.32	93.65	108.3	116.5	95.45	70.98	50.41	32.21	32.88	225.1	73.18	7.271	6.961	7.009	6.348	5.994	6.469	6.601	6.110	6.364	6.321	5.965	5.841	5.179	5.167	4.922	4.665	4.610	4.469	4.181	4.140	4.027	3.792	3.552	3.312	3.150	3.073	2.904	2.642	2.589	2.289	2.222	1.943	1.982	1.868	1.830	1.774	1.552	1.547	1.437	1.326	1.496	1.370	1.208	1.117	1.331	1.348	1.183	1.213	1.218	1.320	1.125	1.322	1.039	0.944	0.929	0.952
645.0	63.89	66.85	52.36	42.64	32.67	33.41	37.30	42.55	52.03	62.99	77.37	95.00	102.7	114.2	100.6	74.54	53.15	34.44	24.22	108.3	187.1	14.22	6.198	6.019	5.376	5.113	5.393	5.481	5.292	5.463	5.453	5.135	4.603	4.530	4.225	4.142	4.091	3.772	3.728	3.494	3.368	3.438	3.156	3.011	2.864	2.875	2.654	2.462	2.275	1.985	1.965	2.008	1.808	1.633	1.646	1.466	1.502	1.405	1.306	1.207	1.275	1.304	1.369	1.192	1.092	1.130	1.121	1.074	1.151	1.127	1.167	1.127	1.297	1.023	0.993	0.914	0.847
650.0	56.88	69.46	56.15	43.06	32.52	30.94	35.18	41.80	48.24	64.10	78.52	94.32	102.0	108.7	102.9	77.83	54.40	36.53	22.51	40.81	204.5	48.66	6.335	5.635	4.698	4.487	4.594	4.490	4.223	4.622	4.628	4.108	4.082	3.943	3.788	3.418	3.558	3.282	3.262	2.930	2.767	2.783	2.693	2.398	2.509	2.495	2.281	2.060	2.027	1.733	1.625	1.650	1.568	1.488	1.352	1.435	1.290	1.262	1.258	1.140	1.118	1.107	1.175	1.110	1.080	1.075	1.046	1.062	1.104	1.059	1.155	1.000	1.204	1.089	1.021	0.913	0.822
