Sample:	'1
File name:	Default_20230428_141030.FD3
Run date:	'14:04:09, 04/28/2023
Operator:	user
Comment:	'

Instrument
Model:	F-2700 FL Spectrophotometer
Serial number:	2190-003
ROM Version:	4J14000 07

Instrument parameters
Measurement type:	3-D scan
Data mode:	Fluorescence
EX  Start WL:	220.0 nm
EX  End WL:	600.0 nm
EX Sampling interval:	5.0 nm
EM  Start WL:	230.0 nm
EM  End WL:	650.0 nm
EM Sampling interval:	5.0 nm
Scan speed:	12000 nm/min
EX Slit:	5.0 nm
EM Slit:	5.0 nm
PMT Voltage:	700 V
Response:	Auto 
Corrected spectra:	Off
Contour interval:	50.000

Peak integration
Integration method:	Rectangular
Sensitivity:	1
Threshold:	1.000

Peaks
No.	ApexEX/EM(nm)	Height(Data)
1	225.0/550.0	51.06
2	225.0/630.0	41.17
3	230.0/335.0	274.1
4	230.0/460.0	940.2
5	230.0/560.0	48.36
6	230.0/590.0	48.52
7	235.0/555.0	50.39
8	240.0/375.0	286.6
9	245.0/265.0	200.0
10	245.0/530.0	124.5
11	250.0/540.0	121.7
12	250.0/630.0	26.47
13	255.0/555.0	113.5
14	255.0/605.0	26.23
15	260.0/285.0	444.8
16	260.0/565.0	95.17
17	260.0/620.0	29.96
18	265.0/290.0	476.5
19	265.0/440.0	400.1
20	265.0/580.0	95.86
21	270.0/245.0	16.11
22	270.0/295.0	663.5
23	270.0/445.0	403.5
24	270.0/590.0	87.60
25	275.0/305.0	849.0
26	275.0/415.0	430.8
27	275.0/435.0	419.7
28	275.0/600.0	91.75
29	280.0/310.0	891.0
30	280.0/330.0	627.7
31	280.0/405.0	440.2
32	280.0/425.0	414.5
33	280.0/615.0	78.89
34	285.0/315.0	881.6
35	285.0/400.0	437.4
36	285.0/625.0	65.91
37	290.0/320.0	877.0
38	290.0/395.0	433.9
39	290.0/640.0	52.48
40	300.0/335.0	478.5
41	305.0/340.0	476.6
42	310.0/345.0	422.7
43	320.0/360.0	382.0
44	325.0/365.0	384.4
45	325.0/415.0	336.3
46	330.0/370.0	335.8
47	335.0/380.0	351.2
48	340.0/385.0	359.8
49	345.0/390.0	321.8
50	350.0/395.0	315.8
51	355.0/405.0	307.3
52	360.0/410.0	282.1
53	365.0/415.0	267.9
54	370.0/425.0	254.5
55	385.0/445.0	182.6
56	400.0/465.0	115.1
57	415.0/485.0	72.28
58	425.0/495.0	53.47
59	430.0/505.0	43.88
60	440.0/515.0	31.06
61	445.0/525.0	26.20
62	450.0/530.0	22.89
63	455.0/535.0	20.11
64	460.0/545.0	16.03
65	495.0/595.0	3.576
66	520.0/285.0	2.859
67	525.0/290.0	3.240
68	545.0/300.0	4.367
69	550.0/305.0	4.130
70	560.0/310.0	4.317
71	570.0/315.0	4.216
72	575.0/320.0	4.036

Data points
	220.0	225.0	230.0	235.0	240.0	245.0	250.0	255.0	260.0	265.0	270.0	275.0	280.0	285.0	290.0	295.0	300.0	305.0	310.0	315.0	320.0	325.0	330.0	335.0	340.0	345.0	350.0	355.0	360.0	365.0	370.0	375.0	380.0	385.0	390.0	395.0	400.0	405.0	410.0	415.0	420.0	425.0	430.0	435.0	440.0	445.0	450.0	455.0	460.0	465.0	470.0	475.0	480.0	485.0	490.0	495.0	500.0	505.0	510.0	515.0	520.0	525.0	530.0	535.0	540.0	545.0	550.0	555.0	560.0	565.0	570.0	575.0	580.0	585.0	590.0	595.0	600.0
230.0	43.51	157.0	 1495	 1205	102.4	19.94	18.17	14.10	13.12	12.23	11.77	10.97	9.475	7.895	6.609	5.774	5.096	4.966	4.449	4.390	4.000	2.956	3.112	3.073	3.369	2.630	2.581	2.388	2.535	2.466	2.196	2.269	1.941	2.031	1.980	1.698	1.666	1.812	1.802	1.799	1.460	1.343	1.502	1.372	1.439	1.369	1.438	3.084	5.920	5.798	2.704	1.351	0.982	0.929	1.005	1.077	1.014	1.070	1.083	1.009	0.894	1.006	0.886	0.911	1.015	0.894	0.973	0.941	0.777	0.833	0.964	0.780	0.988	0.813	0.926	0.845	0.965
235.0	51.52	66.97	558.0	 1966	 1458	154.8	18.17	14.51	15.63	14.23	11.93	10.79	8.651	8.791	6.874	5.950	4.380	4.617	4.594	4.417	3.905	2.926	3.943	2.586	3.093	2.556	1.886	2.454	2.671	2.827	2.109	2.439	1.954	1.979	1.663	1.960	1.729	1.847	1.517	1.739	1.184	1.250	1.280	1.216	1.185	1.301	1.182	1.659	2.618	4.588	6.609	7.975	3.977	1.670	1.026	1.105	1.375	1.053	1.087	0.893	0.969	0.669	0.806	1.119	0.834	1.039	0.834	1.229	0.894	1.015	0.799	0.967	1.055	1.023	1.051	0.916	1.021
240.0	44.14	58.45	159.9	913.8	 2682	 1393	90.37	14.14	14.71	10.54	15.20	12.75	8.692	7.887	7.566	6.597	4.827	5.526	4.561	3.666	3.751	2.752	2.720	2.920	2.585	2.896	2.027	2.264	2.656	2.182	2.177	2.369	1.730	1.946	1.898	1.616	1.937	1.730	1.553	1.399	1.687	1.363	1.558	1.247	1.586	1.432	1.373	1.433	1.605	1.945	3.589	8.477	12.36	8.877	3.970	1.347	1.404	0.973	0.967	0.949	0.812	0.699	1.056	0.817	1.083	0.967	0.914	1.115	0.966	1.050	0.625	0.799	0.971	0.880	0.719	1.183	0.781
245.0	47.68	53.48	87.15	260.7	 1574	 3439	 1169	46.94	16.15	10.95	16.11	12.10	10.89	8.230	7.290	5.813	6.425	4.538	5.350	3.398	3.804	3.054	2.766	2.886	2.071	3.094	2.406	2.755	2.504	2.370	1.991	2.357	1.676	1.796	1.879	2.081	1.745	1.694	1.587	1.599	1.569	1.181	1.741	1.353	1.388	1.673	1.323	1.526	1.054	1.352	1.493	3.187	7.538	13.94	14.14	8.594	2.481	0.879	0.930	0.847	0.764	0.672	0.820	0.887	0.876	1.126	1.231	0.934	0.810	1.131	1.012	0.785	0.982	0.840	1.195	0.765	0.989
250.0	37.04	45.84	93.06	114.8	418.1	 1826	 3862	 2879	375.2	15.58	14.87	13.19	11.55	8.669	7.308	6.807	6.174	5.264	4.786	4.024	3.828	3.542	3.184	3.349	2.817	3.092	2.891	2.725	2.334	2.110	2.154	1.877	1.831	1.842	1.631	1.970	1.432	1.646	1.808	1.593	1.462	1.275	1.759	1.494	1.425	1.556	1.389	1.317	1.345	1.405	1.121	1.456	2.543	5.153	8.880	13.83	17.33	15.02	8.547	2.591	0.979	0.813	0.877	1.104	0.893	0.918	0.937	0.886	0.774	0.867	0.867	0.921	0.935	0.938	0.910	0.783	0.787
255.0	34.43	42.93	52.64	119.1	171.1	439.7	 1405	 5669	 5411	506.6	18.51	17.54	11.93	9.765	9.533	7.523	5.741	5.353	4.269	5.137	3.654	3.913	3.426	3.055	3.024	2.622	2.781	2.888	2.616	2.044	2.046	2.129	2.184	2.291	1.784	2.253	1.939	1.580	1.463	1.567	1.900	1.281	1.739	1.632	1.642	1.472	1.475	1.439	1.181	1.180	1.262	1.411	1.650	1.922	2.733	4.178	6.937	15.45	29.68	27.39	12.14	2.242	0.927	0.941	0.736	0.979	0.782	0.972	0.782	0.858	0.941	0.635	0.996	1.124	0.760	0.689	0.866
260.0	35.60	45.23	33.65	82.04	166.8	167.1	349.9	 2546	 8312	 5364	283.2	20.29	13.56	11.01	10.77	8.528	6.200	5.896	4.820	4.635	4.067	3.333	3.973	3.360	2.811	2.711	3.057	3.116	2.533	2.004	2.309	2.357	2.333	1.770	1.795	2.111	1.328	1.560	1.949	1.440	1.645	1.424	1.630	1.453	1.558	1.700	1.596	1.177	1.321	1.389	1.191	1.641	1.777	1.675	1.699	1.931	2.522	4.851	13.43	29.72	39.57	26.67	7.879	1.344	1.019	0.818	0.637	0.800	0.903	1.184	0.813	0.849	0.866	0.825	0.764	0.917	0.985
265.0	53.93	44.83	30.51	46.11	143.7	200.0	122.1	639.9	 4202	9999.9	 4383	127.9	18.63	12.33	12.06	9.002	7.167	6.157	6.581	4.156	4.060	2.550	3.576	3.738	2.813	2.351	2.389	2.822	2.885	2.491	2.660	2.015	1.912	2.284	1.614	1.835	1.596	1.570	1.434	1.614	1.388	1.671	1.601	1.227	1.527	1.403	1.487	1.618	1.351	1.209	0.862	1.231	1.496	1.983	2.145	1.576	1.550	2.163	3.883	9.996	22.84	43.43	42.86	19.49	3.503	1.041	0.755	1.089	1.336	0.956	0.821	0.891	0.954	0.763	0.896	0.934	0.976
270.0	48.06	41.51	39.64	35.40	63.56	170.3	237.6	218.8	 1035	 4521	9999.9	 6714	388.5	20.64	15.58	10.11	9.279	6.883	6.885	5.435	4.696	4.272	3.125	3.442	2.873	3.006	2.936	2.645	2.549	2.594	2.527	2.228	2.243	1.923	1.579	1.747	1.921	1.704	1.736	1.568	1.428	1.509	1.534	1.769	1.473	1.640	1.336	1.316	1.277	1.200	0.947	1.184	1.169	1.719	1.845	2.023	1.897	1.748	1.617	3.163	6.216	13.59	24.03	36.11	41.14	31.99	14.31	2.647	1.066	0.947	0.865	0.995	0.885	0.937	1.155	0.877	0.854
275.0	44.40	41.45	41.65	38.16	42.13	63.02	191.4	333.2	305.7	 1045	 3071	9999.9	 6593	495.0	21.54	13.55	9.250	7.955	6.236	5.983	4.159	5.153	4.255	3.643	3.490	3.829	2.673	2.666	2.848	3.062	2.657	2.101	2.445	2.040	1.754	2.114	1.905	1.658	1.853	1.386	1.326	1.317	1.444	1.655	1.546	1.462	1.254	1.374	1.131	1.049	1.023	1.261	1.058	1.265	1.278	1.723	2.027	2.494	1.903	1.610	2.278	3.841	6.122	9.578	15.85	36.33	62.46	48.97	15.13	2.067	0.927	0.899	1.049	0.981	0.718	0.999	1.061
280.0	49.78	61.40	48.08	48.29	34.72	34.52	87.60	323.5	317.5	281.1	752.8	 3994	9999.9	 5491	317.5	16.81	12.28	8.961	7.276	7.065	5.033	5.039	3.666	3.349	3.797	3.846	3.440	2.580	3.346	2.238	2.669	2.032	1.871	2.524	2.177	1.768	2.084	1.521	1.531	1.365	1.257	1.465	1.470	1.217	1.403	1.588	1.330	1.408	1.023	1.139	1.354	1.214	1.171	1.057	0.992	1.100	1.522	2.011	2.667	2.314	1.827	1.899	2.100	3.043	4.415	10.33	28.16	59.50	69.61	36.88	6.726	1.033	1.327	0.817	0.804	0.898	1.129
285.0	59.87	58.76	67.23	55.06	37.58	35.05	49.11	156.1	444.8	255.4	223.1	 1007	 5554	9999.9	 4216	145.1	16.18	11.27	8.886	7.984	5.147	4.334	4.416	3.145	3.249	3.414	3.529	3.025	2.840	2.155	2.594	2.267	2.229	2.241	2.343	2.070	2.069	1.652	1.560	1.796	1.509	1.331	1.662	1.170	1.617	1.413	1.363	1.215	1.000	0.964	1.323	1.260	0.993	1.076	1.252	1.026	1.151	1.640	2.175	2.576	2.859	2.087	1.554	1.598	1.846	3.197	7.423	18.70	43.88	71.23	59.33	20.90	2.453	0.854	0.738	1.019	1.188
290.0	65.12	81.63	87.90	76.20	47.90	43.77	49.49	86.35	245.5	476.5	323.8	354.4	 1428	 5378	9999.9	 9157	249.2	18.37	12.57	9.852	6.625	5.447	4.578	4.097	4.407	4.551	3.032	3.444	3.187	2.541	2.656	2.959	2.153	1.940	2.279	2.011	1.713	1.773	1.583	1.606	1.423	1.364	1.418	1.464	1.342	1.329	1.625	1.335	1.241	1.110	1.203	1.308	1.163	1.075	0.999	1.126	1.270	1.393	1.266	1.745	1.921	3.240	2.657	2.394	1.653	1.960	2.962	5.324	11.35	22.89	39.14	52.92	54.59	37.78	14.10	2.347	1.141
295.0	71.44	93.88	120.6	97.59	69.51	59.60	61.04	78.64	132.5	294.7	663.5	448.5	526.0	 1379	 3134	9999.9	9999.9	321.4	17.70	11.24	9.338	7.046	5.414	5.302	4.624	4.333	3.755	3.765	2.979	2.832	3.252	3.081	2.870	2.198	2.112	2.021	1.889	2.330	1.943	1.360	1.399	1.257	1.930	1.585	1.040	1.353	1.525	1.481	1.645	1.388	1.477	1.442	0.891	1.442	1.232	1.324	1.321	1.439	1.260	1.432	1.397	2.004	2.326	3.568	3.747	2.784	1.994	2.131	3.996	6.471	10.12	13.48	22.75	50.22	76.91	52.87	15.61
300.0	89.92	130.0	143.9	133.6	84.43	68.87	81.60	100.0	134.5	211.4	559.2	809.3	444.7	524.3	857.3	 4169	9999.9	 9396	211.9	16.01	11.71	8.277	6.024	5.133	5.147	4.017	4.327	3.105	3.331	2.944	3.613	3.110	2.524	2.276	2.025	2.190	1.966	2.035	2.397	1.531	1.692	1.642	1.906	1.652	1.480	1.600	1.518	1.424	1.705	1.684	1.337	1.688	1.414	1.452	1.412	1.351	1.580	1.894	1.441	1.665	1.684	1.729	1.803	2.725	3.829	4.367	2.902	2.024	2.426	3.091	3.725	4.104	6.373	14.49	38.97	75.12	74.21
305.0	78.10	122.3	153.8	156.5	113.5	85.62	91.68	111.4	144.1	218.7	387.4	849.0	736.9	405.6	380.3	 1067	 5794	9999.9	 2784	113.8	14.09	10.29	6.883	6.373	5.403	4.127	4.030	3.220	3.442	2.787	3.338	2.705	2.559	2.330	2.241	2.206	1.840	1.751	1.838	1.827	1.795	1.657	1.453	1.240	1.347	1.392	1.319	1.513	1.798	1.574	1.351	1.515	1.501	1.529	1.148	1.141	1.509	1.510	1.229	1.769	1.621	2.053	1.706	2.286	2.660	3.260	4.130	3.522	2.264	1.954	2.408	2.314	2.622	4.414	9.843	25.12	55.02
310.0	92.80	121.6	177.5	160.7	113.0	94.44	111.1	134.8	173.3	258.0	358.5	596.3	891.0	688.1	368.5	381.7	 1424	 5655	9999.9	 8112	177.2	16.12	9.683	7.004	6.338	5.356	4.006	3.913	3.417	3.549	3.187	2.976	2.736	2.214	2.306	1.830	2.025	1.899	2.129	1.942	1.779	1.677	1.684	1.633	1.362	1.512	1.455	1.902	1.740	1.311	1.461	1.534	1.518	1.527	1.393	1.630	1.387	1.451	1.547	1.933	1.630	1.983	1.840	2.336	2.211	2.665	3.036	3.710	4.317	3.453	2.696	1.887	1.963	2.123	3.231	6.836	13.87
315.0	95.97	146.8	193.8	165.8	131.2	101.2	128.6	152.9	202.8	294.6	393.9	530.6	659.0	881.6	634.8	279.1	418.1	 1321	 3146	9999.9	9999.9	242.7	14.49	9.416	7.272	5.903	4.839	4.376	4.038	3.954	3.164	3.031	2.401	3.002	2.574	1.920	2.136	1.790	2.039	1.863	1.731	1.853	1.968	2.057	1.364	1.482	1.518	1.832	1.709	1.231	1.750	1.415	1.749	1.528	1.404	1.694	1.766	2.164	1.823	1.679	1.530	1.835	2.049	2.374	2.235	2.716	3.006	3.088	3.275	3.729	4.216	3.057	2.131	1.696	2.438	2.852	4.151
320.0	109.5	154.2	226.5	188.2	133.4	114.9	141.3	167.0	226.5	324.8	425.7	540.0	608.1	708.9	877.0	401.6	212.1	364.5	755.2	 4296	9999.9	 8152	166.9	11.92	9.831	6.658	6.268	5.459	4.353	4.262	3.557	2.914	3.193	2.567	3.014	1.866	2.441	1.944	2.223	1.755	1.732	1.812	2.162	1.688	1.383	2.045	1.733	2.493	1.780	1.423	1.634	1.496	1.663	1.753	1.592	1.555	1.591	1.866	1.845	2.221	2.065	2.064	2.229	2.543	2.323	2.552	2.594	2.720	2.837	2.614	3.580	4.036	3.733	2.151	2.256	1.794	2.080
325.0	118.8	165.4	230.4	225.6	144.0	123.0	151.6	186.1	239.2	344.8	437.7	544.3	605.4	615.5	756.6	609.5	231.1	157.1	220.5	 1041	 5902	9999.9	 2070	98.27	10.81	8.950	6.615	5.127	5.148	4.280	4.299	3.944	3.289	3.375	3.002	2.415	2.259	2.191	2.119	1.990	1.930	1.703	1.773	1.410	1.605	1.994	1.792	2.197	1.699	1.656	1.592	1.593	1.590	2.046	1.887	1.698	1.643	1.487	1.586	2.019	2.056	2.137	2.115	2.880	2.868	2.392	2.804	3.012	2.864	2.688	2.879	3.327	3.714	3.498	2.396	1.614	1.117
330.0	118.2	176.2	250.1	232.1	164.4	137.6	157.2	192.9	254.8	347.7	458.7	571.2	627.7	608.8	575.0	595.5	455.0	183.2	115.2	280.6	 1422	 5380	9999.9	 6996	142.1	14.29	8.786	6.602	6.014	4.810	4.562	4.001	3.321	3.291	2.424	2.352	2.142	2.219	2.138	1.994	1.914	1.692	1.633	1.700	1.537	1.828	1.826	1.916	1.848	1.775	1.428	1.822	1.569	1.826	1.765	1.642	1.774	1.935	1.955	1.993	2.030	2.233	2.385	2.939	2.612	2.726	2.490	2.796	2.850	2.752	2.663	2.563	2.893	2.968	2.612	2.804	1.825
335.0	137.6	170.6	274.1	227.2	196.4	149.9	181.7	202.6	271.0	363.5	466.7	595.6	617.7	610.9	542.0	427.9	478.5	402.9	146.6	123.8	367.2	 1240	 3259	9999.9	9999.9	197.3	12.75	8.720	8.242	5.993	5.422	3.918	3.713	4.538	2.475	2.772	2.099	2.300	2.081	1.960	1.827	2.202	1.829	1.796	1.771	1.944	1.769	2.003	1.541	1.659	1.714	1.958	1.765	1.458	1.778	1.747	1.999	2.134	2.136	1.918	2.416	2.244	2.204	2.583	2.654	3.017	2.669	3.048	2.911	2.560	2.842	2.398	2.363	2.527	2.296	3.109	3.063
340.0	112.9	173.8	269.0	248.4	193.0	167.1	189.3	218.8	272.7	375.3	460.9	574.7	617.7	611.6	535.5	397.7	339.7	476.6	284.3	109.5	141.2	325.7	774.1	 4400	9999.9	 7436	145.4	10.94	8.578	6.426	5.764	4.209	4.375	4.190	2.803	2.903	2.396	2.053	2.083	2.004	1.668	1.960	1.971	1.915	1.775	1.999	2.295	2.151	1.573	1.793	1.716	1.770	1.785	1.608	1.560	1.820	1.853	1.848	1.696	2.420	2.262	2.366	2.287	2.605	2.569	2.986	2.692	2.781	2.793	2.845	3.056	2.636	2.667	2.330	1.858	2.168	2.376
345.0	110.4	178.7	264.9	261.2	215.8	183.9	193.4	214.2	264.2	364.7	469.3	557.8	593.1	600.6	527.4	384.8	287.8	347.7	422.7	173.9	106.3	132.8	221.4	 1061	 6164	9999.9	 1699	88.24	10.91	9.047	6.182	4.777	4.361	4.141	2.839	2.657	2.698	1.958	2.936	2.124	2.086	1.987	2.145	2.017	1.868	2.024	2.105	1.848	2.004	2.021	1.725	1.956	1.720	1.725	1.907	1.619	2.336	1.735	2.035	2.380	2.665	2.360	2.712	2.705	2.960	2.862	3.022	2.796	2.676	2.695	2.789	2.341	2.463	1.914	2.159	2.046	1.901
350.0	112.8	172.0	250.3	255.4	221.1	199.2	218.1	233.4	279.6	353.5	447.2	522.5	572.1	574.9	511.4	390.1	294.3	261.4	349.4	345.8	185.2	111.6	112.0	286.1	 1509	 5732	9999.9	 6252	123.2	12.48	7.529	5.499	4.810	4.279	3.666	2.635	3.037	2.354	2.803	2.110	1.963	1.825	1.817	1.835	1.990	1.931	1.863	1.734	2.028	1.926	1.847	1.930	1.706	1.602	1.895	1.902	1.943	1.845	2.111	2.318	2.259	2.339	2.453	2.639	2.636	2.864	2.698	2.895	2.553	2.481	2.355	2.573	2.489	2.116	2.121	2.082	1.933
355.0	101.2	155.2	233.3	235.2	227.5	207.5	244.1	250.8	282.6	362.8	414.2	472.6	547.9	538.3	470.9	387.8	303.6	247.2	251.4	321.7	360.1	174.5	111.0	133.1	392.2	 1321	 3478	9999.9	 8973	164.3	12.18	7.634	5.683	4.641	3.673	3.421	2.593	2.747	2.454	2.506	1.997	1.855	2.003	1.961	2.127	1.772	1.912	2.008	1.837	1.561	1.906	1.631	2.059	1.884	2.043	2.084	1.857	1.858	2.383	2.010	2.584	2.335	2.647	2.772	2.855	2.595	2.505	2.734	2.301	2.708	2.258	2.158	2.285	2.398	2.193	2.132	2.100
360.0	107.0	169.6	234.4	228.4	232.3	216.8	258.6	265.8	301.4	365.4	413.9	461.9	508.4	504.4	472.9	390.5	325.7	270.8	243.5	257.0	382.0	292.2	139.7	112.3	155.0	344.9	827.5	 4781	9999.9	 6300	115.5	10.15	6.688	5.183	4.126	3.516	2.975	3.120	2.745	2.433	2.090	2.228	2.425	2.137	2.057	2.324	2.132	1.898	1.722	1.495	1.586	1.850	1.998	1.886	1.847	1.920	2.020	2.002	2.174	2.015	2.551	2.557	2.246	2.435	2.618	2.466	2.464	2.804	2.596	2.775	2.548	2.544	2.157	2.260	1.686	2.077	2.207
365.0	102.3	163.3	225.8	235.0	233.1	228.1	263.1	280.4	309.0	371.5	413.5	459.9	496.2	504.1	459.7	404.7	329.1	289.6	264.5	246.2	303.0	384.4	227.9	126.2	118.2	139.7	233.1	 1166	 6371	9999.9	 1501	63.20	9.073	6.206	4.566	4.325	3.187	2.835	3.062	2.755	2.627	2.189	2.191	1.704	2.046	2.213	2.065	2.120	1.768	1.719	1.632	1.927	1.973	2.355	1.830	2.024	2.156	2.220	2.188	1.954	2.263	2.836	2.684	2.377	3.162	2.839	2.719	2.576	2.729	2.569	2.355	2.399	2.608	2.473	2.039	2.175	2.322
370.0	106.8	153.8	198.2	242.1	246.7	254.3	284.4	294.1	323.0	359.8	402.7	446.2	486.5	483.5	464.0	401.5	340.9	313.3	286.5	270.2	269.2	325.2	335.8	215.2	135.7	115.3	114.8	307.7	 1565	 5898	9999.9	 5440	94.68	9.727	6.323	4.620	3.657	2.941	3.153	2.952	2.379	2.265	2.250	1.739	2.060	2.044	2.047	2.024	1.704	1.606	1.807	1.812	2.068	2.142	1.891	1.997	2.142	2.312	2.273	2.182	2.365	2.513	2.381	2.589	2.694	2.337	2.490	2.461	2.566	2.541	2.302	2.845	2.325	2.338	2.086	2.194	2.173
375.0	86.79	144.3	213.8	254.6	286.6	262.2	301.1	317.8	337.2	363.2	408.2	438.6	474.4	474.5	450.3	393.7	356.3	327.3	318.5	292.0	282.3	280.1	310.0	350.3	204.1	131.9	105.7	131.1	396.3	 1351	 3735	9999.9	 7439	125.6	9.037	6.619	4.652	3.720	3.297	3.165	2.703	2.163	2.258	2.065	2.096	1.830	2.040	1.921	2.044	1.694	1.689	1.937	2.226	1.867	1.660	2.094	2.484	2.368	2.644	2.212	2.597	2.382	2.518	2.559	2.546	2.717	2.203	2.878	2.789	2.525	2.297	3.027	2.668	2.267	2.450	2.372	2.026
380.0	101.9	127.4	206.6	243.5	265.7	292.3	313.2	318.7	338.2	388.9	389.7	433.5	466.6	461.6	434.0	402.1	363.3	355.2	327.8	313.5	298.3	281.4	272.6	351.2	306.2	169.9	122.8	104.0	145.4	345.5	888.6	 5232	9999.9	 5005	79.74	7.783	6.450	4.139	3.569	3.238	3.202	2.392	2.325	2.501	2.071	2.265	1.824	1.940	1.760	1.680	1.894	1.922	2.047	2.206	1.924	2.271	2.571	2.055	2.614	2.883	2.740	2.477	2.440	2.438	2.546	2.623	2.179	2.589	2.656	2.629	2.601	2.561	2.705	2.088	2.290	2.149	2.409
385.0	89.28	137.0	215.8	233.7	266.5	294.6	327.1	349.9	360.2	385.4	397.6	432.0	445.0	446.7	421.3	411.9	378.5	364.5	348.0	338.8	312.6	291.7	271.9	302.0	359.8	240.4	145.0	114.5	102.0	130.0	238.0	 1296	 7050	9999.9	 1151	34.86	7.200	5.649	4.571	3.359	2.784	2.628	2.230	2.147	1.866	2.176	1.944	1.809	2.065	1.936	2.055	2.213	2.184	2.162	1.988	2.210	2.595	2.178	2.494	2.845	2.260	2.359	2.725	2.377	2.602	2.641	2.341	2.520	2.423	2.517	2.502	2.422	2.073	2.003	1.925	2.674	2.612
390.0	97.75	147.5	208.4	242.7	277.6	296.6	330.2	349.5	367.9	386.0	392.7	431.4	436.2	439.4	432.7	406.6	377.5	374.6	359.5	348.8	331.0	313.9	287.8	278.6	305.7	321.8	214.8	144.3	114.9	97.31	104.4	327.3	 1771	 6027	 9009	 3961	69.74	7.161	4.771	3.906	3.220	2.917	2.540	2.263	2.256	2.310	1.896	2.103	1.766	1.906	1.862	2.269	2.243	2.013	2.325	2.242	2.395	2.267	2.255	2.217	2.567	2.671	2.408	2.374	2.633	2.436	2.331	2.658	2.422	2.571	2.425	2.289	2.414	2.477	2.256	2.416	2.579
395.0	105.7	143.5	214.9	239.7	283.2	297.8	329.4	342.6	356.7	395.8	414.8	426.0	430.4	431.8	433.9	397.8	386.6	366.7	369.9	358.8	344.5	332.9	311.5	284.1	274.3	290.9	315.8	200.1	141.4	109.1	92.14	124.0	429.0	 1374	 3839	9999.9	 5298	89.47	6.451	4.915	4.400	3.145	2.817	2.734	2.941	2.131	2.220	2.470	1.904	1.798	1.772	1.992	2.414	2.351	2.171	2.384	2.430	2.195	1.993	2.196	2.415	2.625	2.392	2.226	2.456	2.024	2.076	2.540	2.855	2.211	2.652	2.561	2.266	2.205	1.962	2.553	2.116
400.0	119.1	124.4	216.2	249.0	287.4	307.6	340.6	359.2	368.1	397.0	421.5	417.9	428.3	437.4	417.7	396.1	382.0	371.0	369.4	369.1	349.7	339.0	316.5	295.9	273.4	262.0	311.3	273.8	168.8	128.3	98.79	86.55	138.1	336.3	918.7	 5452	9999.9	 1086	54.86	6.122	4.777	3.854	3.688	2.503	2.507	2.161	2.223	2.479	2.076	1.855	1.707	2.171	2.332	2.271	2.029	2.274	2.284	2.573	2.086	2.587	2.574	2.426	2.440	2.538	2.182	2.285	2.107	2.513	2.541	2.198	2.657	2.109	2.519	2.399	2.689	2.446	2.211
405.0	103.2	111.1	195.9	262.9	289.9	328.3	322.9	369.5	391.1	397.9	422.4	427.1	440.2	428.9	417.8	394.2	381.3	381.1	367.7	368.1	351.7	338.7	322.8	303.6	282.6	261.7	270.9	307.3	232.2	146.3	113.8	86.83	81.55	111.6	231.5	 1390	 6702	 8553	927.9	21.33	5.418	4.426	3.884	2.576	2.513	2.321	2.422	2.277	1.856	1.743	1.761	2.312	2.495	2.509	2.621	2.515	2.354	2.532	2.335	2.471	2.440	2.576	2.741	2.471	2.519	2.524	2.083	2.301	2.590	2.349	2.846	1.839	2.405	2.009	2.661	2.222	2.577
410.0	91.12	126.4	186.3	249.9	277.7	320.7	348.0	381.4	385.8	398.0	420.1	423.7	432.6	417.7	410.6	385.3	373.2	363.3	356.9	358.1	350.8	333.8	323.9	310.6	291.5	274.3	258.2	270.4	282.1	204.7	137.0	101.3	80.07	70.45	83.99	334.0	 1708	 5445	 7474	 2932	57.06	5.923	4.496	3.684	2.787	2.575	2.326	2.464	2.307	1.923	1.994	2.121	2.438	2.277	2.366	2.408	2.755	2.721	2.421	2.512	2.587	2.517	2.369	2.314	2.103	2.252	2.240	2.632	2.691	2.636	2.480	2.137	2.080	2.066	2.401	2.373	2.374
415.0	89.78	134.6	193.3	247.6	260.9	321.2	345.1	371.7	384.0	405.3	398.3	430.8	409.6	417.2	387.7	384.4	365.4	355.4	355.3	355.2	329.6	336.3	327.6	308.1	292.7	284.2	262.5	248.6	258.2	267.9	185.0	115.6	91.78	70.98	60.18	104.6	400.2	 1238	 3323	 8578	 4032	76.79	5.829	3.912	3.487	2.780	2.606	2.363	2.566	2.011	1.944	2.233	2.647	2.482	2.486	2.318	2.341	2.461	2.704	2.663	2.763	2.321	2.652	2.196	2.121	2.473	2.216	2.682	2.395	2.277	2.612	2.011	2.118	2.138	2.626	2.164	2.412
420.0	103.6	128.8	196.1	246.3	268.0	287.0	339.7	370.7	388.4	413.4	405.2	427.5	402.6	415.0	381.8	366.3	358.8	345.7	338.5	346.5	324.8	330.9	314.9	314.4	289.7	287.2	265.0	246.4	235.6	259.4	236.7	145.5	104.7	77.75	62.21	56.05	114.1	296.3	801.0	 4671	 8499	966.8	40.04	4.292	4.161	3.386	2.809	2.292	2.310	1.969	1.956	2.225	2.292	2.290	2.275	2.346	1.893	2.487	2.676	2.972	2.469	2.473	2.452	2.185	2.262	2.710	2.005	2.459	2.633	2.148	2.001	2.195	2.383	2.281	2.295	2.868	2.373
425.0	94.89	131.0	185.7	229.5	272.7	306.1	319.7	365.3	387.6	408.3	414.3	413.9	414.5	395.5	381.9	351.0	338.3	344.8	333.4	332.2	327.7	318.5	315.8	302.2	291.2	283.2	269.4	249.4	226.4	233.2	254.5	184.1	114.1	87.17	62.00	49.06	55.09	88.14	196.2	 1204	 5692	 7238	778.6	13.62	4.679	3.745	2.970	2.520	2.393	2.297	2.058	2.513	2.173	2.357	2.522	2.459	2.430	2.854	2.434	2.585	2.335	2.204	2.504	2.083	2.447	2.697	2.499	2.669	2.398	2.293	2.088	2.350	2.519	2.215	2.453	2.320	2.730
430.0	116.0	128.9	168.3	230.9	275.0	302.4	334.3	350.7	390.8	392.5	404.8	418.8	407.9	387.2	369.7	348.6	323.3	325.9	320.1	323.3	319.0	312.7	309.2	296.8	291.1	279.4	269.2	253.3	232.1	219.2	222.0	218.4	156.8	102.9	75.18	58.50	48.32	47.25	64.81	286.4	 1464	 4431	 6040	 2286	48.73	4.964	3.365	3.267	2.887	2.308	2.161	2.348	2.175	2.296	2.444	2.207	2.513	2.768	2.548	2.562	2.554	2.552	2.461	2.269	2.521	2.347	2.388	2.260	2.392	2.507	2.213	2.093	2.334	2.206	2.603	2.174	2.563
435.0	186.3	137.1	171.6	227.6	266.1	303.0	343.6	339.5	391.6	392.7	407.4	419.7	394.6	382.9	356.6	333.5	316.6	315.1	306.9	311.1	303.2	296.4	301.4	283.3	280.9	277.7	263.9	250.6	235.6	221.8	206.8	197.7	195.3	136.5	88.15	67.26	55.89	44.99	40.04	82.90	344.0	 1009	 2876	 7169	 3282	61.29	5.037	3.719	3.532	2.946	2.173	2.167	2.479	2.473	2.466	1.976	2.591	3.206	2.865	2.375	2.571	2.614	2.241	2.145	2.565	2.251	2.446	2.126	2.379	2.209	2.022	2.076	2.154	2.020	2.449	2.270	2.667
440.0	243.8	174.9	167.8	199.5	251.1	290.5	333.1	363.2	396.1	400.1	393.0	412.0	392.1	368.6	352.3	333.2	318.5	304.0	302.3	302.1	292.1	292.8	292.4	280.5	272.3	273.2	256.8	249.4	241.2	220.1	204.8	187.4	189.9	168.7	104.9	76.44	59.82	48.69	40.16	41.51	95.20	239.0	699.3	 4117	 7497	848.9	33.40	4.801	3.459	3.113	2.416	2.563	2.598	2.697	2.512	2.131	2.580	2.873	2.847	2.562	2.471	2.461	2.462	2.427	2.647	2.268	2.431	2.233	2.006	2.189	2.172	2.197	2.127	2.303	1.976	1.755	2.246
445.0	237.8	335.7	178.8	206.3	265.5	294.2	313.1	347.1	386.3	391.0	403.5	401.8	385.7	358.5	351.7	327.7	306.3	298.1	285.5	292.2	282.9	279.9	278.3	265.4	264.2	261.3	253.4	248.0	240.2	225.0	205.8	177.8	170.7	182.6	132.9	84.54	66.21	52.69	42.06	36.68	42.76	69.61	170.2	 1076	 5226	 6478	646.0	12.91	4.382	3.341	2.979	2.617	2.335	2.352	2.677	2.349	2.626	2.984	2.417	3.021	2.835	2.400	2.650	2.329	2.299	2.389	2.446	2.392	2.418	1.968	2.255	2.014	1.802	2.272	1.858	1.872	2.285
450.0	154.6	459.4	318.0	190.0	252.5	289.7	308.4	331.5	371.7	376.5	391.7	403.6	379.2	347.3	331.6	300.1	284.0	278.8	266.4	275.4	267.5	265.7	260.0	257.5	253.6	249.9	247.8	238.4	232.6	220.3	201.2	179.8	158.0	158.4	153.0	111.0	74.89	61.02	46.73	40.27	33.62	35.24	53.93	253.1	 1356	 4277	 5778	 2194	40.38	4.040	3.319	3.036	2.482	2.635	2.570	2.665	2.688	2.886	2.606	2.644	2.615	2.441	2.283	2.547	2.480	2.227	2.317	2.291	2.353	2.299	2.347	2.167	2.049	2.176	1.857	1.960	2.093
455.0	98.39	343.7	743.9	244.4	220.5	274.3	298.0	320.0	352.7	364.1	375.6	386.6	365.6	333.2	323.6	277.3	272.2	257.6	246.6	246.5	240.3	247.1	244.0	239.5	235.6	237.2	231.8	228.6	222.8	213.4	198.2	176.2	156.5	139.8	140.5	133.6	91.89	67.97	52.97	42.48	36.40	30.64	29.90	69.46	314.5	975.6	 2752	 6907	 2882	44.30	4.124	3.762	2.716	2.751	2.464	2.850	2.854	3.072	3.151	2.276	2.631	2.559	2.513	2.310	2.697	2.479	2.211	2.706	2.170	1.886	1.987	2.017	1.887	2.028	1.854	2.560	1.979
460.0	86.23	201.2	940.2	482.2	231.7	267.3	279.7	312.3	336.2	358.5	367.6	368.9	342.8	323.6	289.9	279.6	253.4	238.1	232.9	231.0	227.0	232.6	224.0	226.3	223.2	223.9	225.1	220.1	212.4	203.7	186.4	171.2	155.7	133.5	123.8	125.3	110.9	71.07	54.03	45.95	37.58	30.91	25.46	30.53	83.36	228.1	667.4	 4008	 6353	620.2	25.52	4.547	3.309	3.242	2.698	3.279	2.729	3.122	3.086	2.259	2.723	2.462	2.204	2.495	2.207	2.383	2.708	2.081	2.130	2.117	2.130	2.104	1.691	1.727	2.214	2.121	2.287
465.0	87.33	123.5	727.7	931.6	215.1	241.0	254.3	295.5	329.8	340.7	342.3	348.1	325.9	299.0	278.0	266.6	235.8	227.4	223.9	218.5	216.8	219.4	210.7	209.3	212.4	208.1	211.4	203.4	200.3	193.5	182.5	168.0	148.8	131.0	114.6	112.6	115.1	84.86	58.86	46.14	39.58	31.31	25.88	22.98	31.60	62.32	159.1	 1047	 4743	 4914	518.3	9.931	4.302	3.459	3.014	3.158	2.497	2.718	2.877	2.693	2.558	2.498	2.368	2.028	2.534	2.228	1.923	2.261	2.096	2.058	1.975	1.999	2.003	1.996	1.950	1.889	1.927
470.0	82.33	95.85	344.2	 1262	619.2	225.9	245.1	288.8	295.8	316.6	326.8	326.7	311.1	281.4	259.4	241.4	216.5	211.6	204.0	202.9	191.8	197.3	190.0	193.8	190.4	189.2	189.3	192.3	184.8	182.5	173.1	157.4	138.5	123.9	108.6	98.65	97.68	96.41	70.60	50.10	41.45	33.67	26.61	23.09	22.04	25.92	45.95	242.9	 1234	 3541	 4304	 1557	36.94	4.268	3.591	3.025	2.758	2.690	2.403	2.704	2.399	2.036	2.224	2.077	2.353	1.973	2.118	1.979	2.286	1.970	1.825	1.901	1.757	1.953	1.822	2.006	1.924
475.0	88.35	99.90	165.1	784.1	 1412	288.0	226.5	258.3	265.8	298.4	301.9	292.2	287.5	252.1	240.6	214.9	202.4	192.4	179.2	181.0	171.2	172.6	171.0	174.2	169.5	167.8	172.4	170.2	169.8	166.9	157.5	144.7	131.1	118.4	102.0	90.34	82.64	84.46	83.86	58.91	41.61	34.65	28.77	24.35	20.30	19.32	20.41	63.97	283.1	806.6	 2077	 4640	719.2	46.73	4.120	3.358	3.067	2.371	2.835	2.368	2.069	2.541	1.625	2.003	2.270	2.075	2.085	1.840	2.120	1.890	1.812	1.983	1.617	1.817	1.378	1.696	1.831
480.0	87.47	101.9	129.6	361.8	 1565	662.4	217.0	248.6	258.2	270.5	289.6	286.2	266.2	243.1	227.4	200.0	183.4	180.5	175.3	172.0	157.5	162.1	159.4	158.1	155.9	155.7	159.4	155.7	159.6	155.0	149.1	134.5	125.2	114.3	100.8	87.48	80.04	71.02	79.67	67.32	46.09	33.15	30.27	23.17	20.56	17.43	15.48	23.76	71.23	187.3	505.6	 2645	 4355	674.2	21.33	3.433	3.337	2.739	2.915	2.379	2.561	2.225	2.060	2.077	2.306	2.119	2.045	1.864	2.264	1.879	2.033	1.870	1.553	1.833	1.517	1.768	1.878
485.0	68.82	88.90	115.5	183.7	 1109	 1302	233.2	225.1	239.7	265.6	271.8	257.9	254.1	238.6	217.4	191.2	178.9	165.2	169.2	155.8	154.6	146.5	146.6	148.0	149.1	143.1	148.3	146.5	146.1	150.0	139.8	132.4	118.6	109.3	97.46	81.69	78.59	66.85	65.96	72.28	52.08	36.83	30.13	24.09	21.32	18.64	15.56	14.82	24.71	49.19	119.4	692.0	 3204	 3977	489.5	7.507	4.068	3.048	2.792	2.692	2.328	2.210	2.480	1.880	1.957	2.047	2.063	2.164	2.249	1.737	1.814	1.476	1.721	2.004	1.655	1.595	1.678
490.0	62.49	76.23	111.2	148.1	449.0	 1659	852.8	222.1	232.6	243.2	246.6	243.1	240.6	221.6	198.1	179.1	162.7	149.5	147.3	144.8	140.0	133.9	133.6	134.2	135.2	133.8	136.5	134.9	134.2	136.5	129.1	122.8	112.8	101.2	90.24	79.30	73.07	64.22	58.40	62.02	59.65	46.24	31.94	25.13	22.08	19.50	16.53	14.69	15.15	18.84	33.35	160.8	826.3	 2481	 3512	 1365	37.24	4.034	3.326	2.772	2.419	2.520	2.089	1.995	1.870	2.136	1.876	1.934	1.949	1.719	1.656	1.549	1.778	1.866	1.711	1.681	1.407
495.0	61.96	85.26	131.7	120.8	199.9	935.6	 1850	347.5	217.4	223.4	226.6	230.7	223.8	201.3	182.5	165.2	147.3	139.8	135.2	124.2	126.2	120.7	120.9	121.4	124.0	120.7	120.0	123.3	121.2	121.2	118.0	109.3	101.6	93.25	86.18	73.00	68.75	60.81	53.13	49.71	51.29	53.47	37.48	26.46	22.76	20.46	17.27	14.72	13.30	12.71	14.00	42.19	189.4	562.9	 1650	 4210	773.8	48.27	4.255	3.283	2.784	2.218	2.220	2.141	1.597	2.016	1.907	2.000	1.880	2.067	1.685	1.575	1.414	1.694	1.663	1.524	1.388
500.0	52.04	72.06	121.8	111.5	148.8	385.8	 2104	955.9	188.5	209.0	218.7	218.1	203.2	191.0	163.8	156.3	137.8	125.3	117.8	117.3	111.2	108.9	111.5	108.2	109.0	110.5	113.7	109.0	112.7	113.9	110.4	99.67	95.44	88.79	80.62	71.62	64.94	59.16	50.27	46.07	43.71	48.01	42.22	30.40	22.82	19.89	17.61	14.52	13.97	12.41	9.942	15.41	47.64	131.0	397.4	 2331	 4147	679.2	22.04	3.484	3.103	2.678	2.383	2.280	1.879	1.629	1.769	1.826	2.057	1.683	1.586	1.656	1.655	1.378	1.739	2.092	1.443
505.0	62.73	79.86	100.4	136.7	118.6	187.2	 1405	 1699	244.5	193.0	203.4	204.6	183.5	172.1	155.8	136.1	124.1	120.0	112.0	110.0	105.4	99.57	103.9	96.42	100.6	103.6	99.83	100.5	104.2	103.1	101.9	96.23	90.17	81.35	74.69	67.56	61.22	53.73	47.94	44.05	38.83	41.71	43.88	33.47	23.34	19.23	17.75	15.16	13.51	10.87	9.170	9.223	16.33	34.91	93.58	596.9	 2965	 3862	508.1	7.083	3.118	2.813	2.248	2.277	1.910	1.728	1.728	1.697	1.787	1.657	1.546	1.698	1.485	1.599	1.631	2.009	1.712
510.0	53.15	74.39	86.72	128.4	117.9	125.0	518.6	 2169	 1013	189.2	182.4	185.9	171.2	153.6	139.8	121.3	112.0	102.4	97.03	97.63	93.56	87.69	90.10	87.56	89.15	87.87	89.42	89.30	92.82	90.67	91.19	84.54	78.56	72.95	67.24	60.78	55.94	47.80	44.88	39.73	35.91	33.28	35.57	35.45	26.50	20.47	16.98	14.54	13.40	11.21	9.105	8.387	9.396	13.17	25.45	137.9	759.8	 2365	 3160	 1151	34.92	3.012	2.678	2.201	2.054	1.739	1.976	1.832	1.816	1.448	1.351	1.564	1.573	1.403	1.193	1.627	1.367
515.0	55.29	74.26	70.96	98.51	140.8	121.0	207.7	 1054	 2564	439.1	160.3	159.2	164.8	139.4	121.6	109.3	102.1	94.21	87.55	86.40	78.61	78.65	78.25	77.28	79.49	76.16	77.48	79.56	78.32	78.54	78.86	74.69	71.05	66.97	58.46	51.93	48.97	44.72	40.89	36.12	33.10	29.19	26.19	30.65	31.06	24.13	17.13	14.29	12.46	11.26	9.295	8.248	7.836	7.826	9.905	34.91	173.7	535.8	 1404	 3461	755.6	39.76	2.791	2.489	2.137	1.862	1.446	1.813	1.546	1.408	1.331	1.216	1.493	1.194	1.273	1.510	1.274
520.0	56.31	59.84	72.34	82.44	131.7	110.2	141.4	386.9	 2623	 1155	144.5	147.8	144.9	129.3	113.7	99.61	94.52	84.83	81.02	74.22	74.69	71.06	70.26	70.44	70.73	68.37	69.18	72.61	69.01	70.54	71.22	69.08	63.30	59.87	53.76	49.23	44.26	40.26	37.53	34.98	31.82	27.12	23.62	25.16	29.21	25.27	18.75	14.36	11.70	10.40	8.924	8.364	7.614	7.053	6.598	12.12	42.80	122.9	335.9	 1887	 3179	622.0	15.75	2.691	1.850	2.179	1.872	1.678	1.697	1.395	1.448	1.195	1.209	1.331	1.279	1.464	1.520
525.0	55.33	54.46	56.46	76.47	123.7	121.6	115.3	179.1	 1549	 2688	247.3	138.1	132.0	123.2	104.7	95.33	86.21	77.72	74.55	70.35	69.21	64.95	62.87	64.54	63.19	62.12	63.10	64.95	64.35	66.32	63.32	61.98	57.13	54.70	49.45	45.78	41.75	37.25	36.10	31.52	28.89	25.41	22.71	22.38	24.45	26.20	20.82	13.62	11.64	9.992	8.442	8.237	7.974	7.056	6.068	6.990	13.99	31.24	78.38	481.3	 2169	 2796	101.1	4.814	1.961	2.049	1.868	2.055	1.396	1.246	1.376	1.724	1.274	1.211	1.048	1.325	1.515
530.0	48.65	48.99	66.38	64.93	87.77	124.5	101.4	115.7	499.6	 2712	 1511	141.1	117.9	109.6	96.61	84.82	77.21	69.25	64.57	58.88	60.47	57.76	57.34	56.07	54.17	54.57	54.69	56.34	57.46	57.69	55.58	54.53	50.00	47.84	44.07	39.62	36.59	34.88	31.12	28.63	25.97	23.30	20.65	19.46	19.08	21.87	22.89	17.37	11.93	10.15	8.346	8.036	6.896	6.161	5.065	5.754	6.814	10.53	20.55	110.4	549.9	 1673	 2135	432.3	30.01	2.544	1.857	1.878	1.559	1.487	1.144	1.589	1.584	1.336	1.135	1.173	1.540
535.0	55.31	47.70	55.56	66.96	71.65	113.3	105.0	94.45	191.5	 1058	 3230	511.7	107.9	92.47	82.21	71.40	66.90	61.69	56.08	52.82	49.30	51.30	46.80	47.88	46.89	44.97	45.26	48.20	49.60	50.69	48.62	48.70	43.66	39.76	38.08	32.23	31.41	30.57	28.19	24.57	22.78	20.84	18.48	17.22	16.77	17.19	19.56	20.11	13.46	9.523	8.468	7.325	5.710	5.723	5.232	5.952	4.834	6.201	7.489	27.39	125.2	378.3	929.0	 2316	694.5	29.67	2.325	1.754	1.538	1.586	1.391	1.388	1.133	1.051	1.070	1.312	1.002
540.0	55.30	51.92	54.50	68.12	77.80	91.14	121.7	82.24	108.8	334.8	 2894	 1683	103.0	84.61	78.32	65.33	58.46	52.37	47.81	51.05	48.38	45.90	41.98	43.84	40.91	41.15	41.93	42.65	42.54	42.50	44.18	41.71	39.19	35.49	34.01	29.78	29.68	28.49	24.86	23.76	21.89	19.20	17.74	17.31	14.83	14.58	15.32	18.91	15.93	9.959	7.888	7.101	5.919	5.724	5.276	5.440	4.966	5.224	4.564	9.273	30.62	87.16	221.4	 1257	 2278	524.5	9.128	2.091	1.288	1.380	1.368	1.358	1.339	1.057	1.176	1.313	1.371
545.0	55.06	48.01	41.66	58.17	57.33	75.16	116.3	88.50	84.90	137.8	 1485	 3080	239.5	80.64	67.32	61.82	50.56	50.65	47.10	45.66	40.58	42.64	39.11	37.44	38.99	37.99	37.19	36.96	38.31	38.07	40.28	37.04	34.93	32.89	30.96	26.12	26.51	24.73	21.92	21.26	19.39	17.74	16.03	15.03	14.32	12.31	12.39	15.01	16.03	10.76	7.948	6.795	5.615	5.210	4.955	5.179	4.478	4.531	3.808	5.194	9.422	22.20	52.15	319.3	 1562	 1953	94.84	3.376	1.884	1.784	1.353	1.411	1.238	1.040	0.967	1.386	1.152
550.0	44.25	51.06	50.96	47.22	53.21	57.76	97.95	101.9	77.61	89.82	444.8	 2730	 1547	86.25	57.94	50.70	45.44	44.95	38.40	37.56	35.19	34.57	34.45	31.58	31.81	30.82	32.54	31.98	32.15	33.47	33.71	31.49	29.67	26.92	26.30	24.57	22.47	20.73	18.75	18.17	16.19	15.46	14.51	13.32	11.82	11.07	10.67	11.04	13.34	11.70	8.435	6.595	5.318	4.754	4.453	4.349	4.243	4.084	3.571	3.672	4.298	7.365	14.03	73.68	396.3	 1210	 1458	388.9	21.99	1.852	1.414	1.360	1.351	1.185	0.972	1.251	1.275
555.0	53.55	40.95	44.36	50.39	38.22	53.09	61.15	113.5	81.35	69.62	148.9	932.2	 3159	438.4	50.78	45.55	38.42	35.38	32.05	32.79	30.89	28.90	27.81	27.43	27.26	26.73	27.40	26.07	26.76	26.50	27.42	26.81	24.55	22.80	20.81	20.71	18.92	17.48	15.65	15.89	13.77	12.41	11.31	10.71	10.40	9.994	9.372	8.963	9.077	9.698	9.076	6.807	4.273	3.953	3.940	3.666	3.915	3.645	3.308	3.681	2.890	3.368	4.805	18.41	89.93	273.6	671.8	 1544	545.7	14.77	1.861	1.508	1.327	1.100	1.031	1.036	1.248
560.0	42.98	46.46	48.36	44.07	36.22	49.58	49.31	90.99	86.59	60.10	81.71	272.7	 2601	 1630	51.46	37.48	34.42	30.91	27.69	26.70	28.20	24.63	23.98	24.16	25.91	23.62	23.18	22.08	22.81	24.09	24.18	22.38	21.20	19.93	18.50	17.93	16.16	14.02	12.86	14.05	12.43	11.03	10.75	8.561	8.996	8.498	7.811	8.041	6.983	7.653	8.529	7.184	4.844	3.818	3.649	3.861	3.533	3.098	3.378	3.269	2.468	2.977	3.099	6.258	21.73	62.81	161.6	883.6	 1432	101.1	4.143	1.511	1.077	1.445	1.215	1.195	1.037
565.0	42.31	47.73	42.46	42.17	36.91	44.00	48.61	62.44	95.17	59.59	57.67	105.1	 1229	 2915	174.0	33.10	30.41	25.98	23.62	25.26	23.07	19.89	21.95	21.48	19.95	20.25	20.61	19.00	20.02	19.98	19.75	18.42	17.90	16.66	15.48	15.59	14.39	12.75	11.52	11.54	10.80	10.12	8.937	8.135	7.915	7.498	7.141	6.228	6.206	6.074	7.406	7.454	5.123	3.797	3.323	3.128	3.759	3.107	3.028	3.192	2.299	2.913	2.701	3.282	6.714	15.63	37.57	231.9	 1027	815.0	77.18	2.204	1.303	1.555	1.249	0.842	1.342
570.0	38.96	46.52	42.93	38.77	39.15	35.13	38.13	42.16	88.68	75.81	49.99	61.23	346.8	 2409	 1316	40.80	27.40	21.79	20.29	21.35	19.41	16.38	18.75	18.51	16.99	17.56	16.88	16.89	16.40	16.23	16.23	15.35	15.36	13.92	13.06	12.97	11.79	11.29	10.20	9.587	8.701	8.350	7.834	7.219	6.644	6.631	6.181	5.118	5.077	4.815	5.383	6.050	5.549	4.117	3.149	2.836	3.176	2.704	2.672	2.998	2.551	2.505	2.187	2.011	3.180	4.873	9.864	53.31	267.5	669.3	806.7	275.8	11.26	1.713	1.300	1.061	1.133
575.0	32.57	58.78	42.70	32.81	38.83	27.81	37.04	32.21	60.27	95.53	47.70	45.30	113.8	769.9	 2778	336.1	24.24	22.11	18.59	18.85	15.89	14.21	15.86	14.29	12.46	13.45	13.50	14.02	12.51	13.54	15.15	13.02	12.03	11.23	11.28	9.719	9.412	9.409	8.300	7.895	7.512	7.069	7.265	6.269	5.658	5.093	4.796	5.151	4.059	3.866	3.823	4.151	5.339	4.707	3.301	2.605	2.792	2.298	2.417	2.612	2.016	2.526	2.183	2.136	2.119	2.496	3.617	13.15	60.86	153.2	415.0	923.6	104.2	6.177	1.296	1.031	1.423
580.0	42.94	45.86	40.36	39.69	36.95	30.00	31.44	29.34	45.34	95.86	59.57	48.54	57.87	210.6	 2274	 1277	23.44	18.12	17.97	16.27	16.49	13.05	13.61	12.22	10.74	11.47	11.94	11.87	12.13	11.60	11.39	11.18	10.11	9.322	10.49	8.254	8.328	8.596	7.360	6.877	6.495	5.981	6.201	5.011	5.046	4.228	4.137	3.914	3.709	3.455	3.258	3.494	4.381	4.286	3.392	2.416	2.563	2.114	2.231	2.259	2.091	2.448	2.493	1.656	1.877	1.801	2.241	4.301	14.73	35.85	102.9	557.3	772.1	86.11	2.967	1.268	1.024
585.0	39.99	49.26	45.30	38.48	34.16	24.02	32.63	30.20	37.97	82.14	77.23	44.62	44.18	72.27	 1022	 2311	111.4	16.68	13.75	14.52	13.29	11.10	11.08	11.12	10.35	11.24	11.52	9.544	10.33	10.07	9.325	9.828	9.908	7.888	8.256	7.583	7.209	6.810	6.446	6.374	5.689	5.690	4.718	5.003	4.106	3.792	3.987	4.067	3.423	3.069	3.132	2.697	3.415	4.297	3.816	2.813	2.302	2.300	2.001	1.640	1.785	1.937	2.107	2.168	1.828	1.712	1.999	2.137	4.377	9.459	24.48	149.8	624.8	618.8	60.95	1.363	1.644
590.0	37.10	40.62	48.52	39.20	34.32	22.45	27.34	26.48	27.56	52.04	87.60	53.65	41.05	43.32	273.6	 1892	949.3	21.99	12.47	12.61	10.58	10.87	10.10	9.937	8.893	9.087	8.952	8.619	8.282	8.765	8.241	8.596	7.913	6.643	6.906	6.449	6.245	4.939	5.454	5.344	4.865	4.881	4.539	3.929	3.893	3.860	3.308	3.441	2.889	2.763	2.361	2.402	2.517	3.049	3.403	3.076	2.322	2.073	2.193	1.786	1.898	1.779	1.878	2.287	1.738	1.752	1.841	1.743	2.131	3.382	6.931	34.76	167.5	447.1	496.5	67.13	6.569
595.0	29.33	36.85	44.56	38.90	30.38	25.29	25.29	24.70	28.25	36.01	72.85	72.74	43.09	37.22	81.89	600.8	 1942	221.2	10.88	10.72	9.233	8.912	8.842	8.542	7.307	7.050	7.569	7.615	7.198	8.766	6.056	6.960	7.028	5.531	5.632	5.264	5.350	4.704	4.947	4.125	3.758	4.879	3.796	3.354	2.947	3.484	2.643	2.455	2.416	2.158	2.085	1.957	1.954	1.879	3.050	3.576	2.388	2.088	1.527	1.693	1.569	1.711	1.621	1.810	1.800	2.061	2.145	1.648	1.793	2.129	2.720	8.926	38.55	102.9	268.6	536.0	97.60
600.0	41.64	41.64	30.04	36.79	27.98	28.59	23.80	25.10	25.42	31.00	50.69	91.75	42.29	32.57	39.15	157.4	 1575	875.7	12.32	10.24	8.022	8.030	6.767	7.502	6.444	7.391	5.890	5.872	6.235	7.681	6.833	5.785	5.661	5.208	5.197	5.198	4.553	3.848	4.369	3.891	3.912	3.937	3.352	3.008	3.037	3.092	2.599	2.362	2.108	1.991	2.136	1.914	1.821	2.009	2.126	2.796	2.584	2.194	1.780	1.518	1.482	1.401	1.528	1.545	2.001	1.776	2.025	1.388	1.798	1.609	1.911	3.332	9.729	23.83	68.55	353.1	464.5
605.0	34.51	34.33	35.87	34.40	23.55	21.46	25.82	26.23	22.34	29.20	37.46	81.68	53.21	31.99	31.08	50.04	722.8	 1625	72.08	9.080	9.231	7.836	6.779	7.148	6.752	6.473	5.589	6.017	6.413	5.908	5.667	5.664	5.188	5.465	4.621	4.886	4.178	3.656	3.918	3.439	3.631	3.560	2.661	2.781	3.107	2.578	2.293	2.236	2.064	1.848	1.953	1.901	2.046	1.617	1.828	2.127	2.494	2.632	2.287	1.628	1.450	1.767	1.711	1.378	1.612	1.590	2.100	1.467	1.652	1.480	1.549	2.024	3.169	6.621	16.43	99.02	383.4
610.0	35.93	38.08	36.57	27.80	27.69	22.47	24.44	23.67	23.13	30.15	33.82	63.49	67.53	35.45	25.82	25.47	191.6	 1379	671.2	14.88	7.707	7.349	5.802	6.521	5.796	5.225	5.541	5.553	6.073	5.225	5.554	4.716	5.058	4.969	4.644	4.360	3.640	3.806	3.132	3.287	3.260	2.562	2.393	2.537	2.944	2.158	2.313	1.967	1.938	1.814	1.898	1.762	1.782	1.545	1.604	2.037	2.104	2.210	2.294	1.749	1.694	1.370	1.693	1.565	1.535	1.619	1.986	1.605	1.510	1.483	1.389	1.513	2.122	2.578	4.647	23.12	106.5
615.0	53.43	47.60	36.36	25.55	21.25	23.86	19.60	22.01	28.50	29.43	27.39	44.67	78.89	42.20	25.22	19.40	52.64	455.5	 1443	155.4	7.740	6.943	6.069	6.213	5.159	5.151	5.093	3.981	4.629	4.055	4.774	4.948	4.115	3.478	3.998	4.018	3.468	3.801	2.797	2.651	2.911	2.448	2.003	2.313	2.368	1.663	1.869	2.096	1.672	1.471	1.432	1.521	1.414	1.687	1.369	1.457	1.861	1.744	2.166	1.710	1.459	1.353	1.338	1.555	1.393	1.453	1.561	1.623	1.205	1.410	1.587	1.572	1.555	1.485	1.945	6.328	24.57
620.0	49.26	39.86	36.60	35.94	31.43	28.48	20.81	21.98	29.96	26.29	28.44	39.77	61.96	56.14	26.25	18.80	23.43	117.1	 1239	616.3	7.135	5.862	5.706	5.212	4.885	4.523	4.212	4.339	4.859	3.364	4.082	4.556	3.965	3.335	3.435	3.676	3.764	3.304	2.580	2.778	2.687	2.081	1.945	2.178	2.007	1.422	1.832	1.810	1.723	1.305	1.462	1.540	1.280	1.372	1.415	1.449	1.716	1.605	1.815	1.850	1.640	1.548	1.589	1.248	1.326	1.172	1.523	1.638	1.265	1.580	1.479	1.326	1.469	1.490	1.498	2.222	6.369
625.0	40.35	38.44	33.85	29.54	22.07	27.38	21.89	21.43	27.42	28.38	29.77	33.56	47.98	65.91	28.44	18.50	14.59	34.03	598.4	 1241	46.43	5.494	4.683	4.602	4.409	4.103	3.777	4.491	3.856	3.480	4.587	3.633	3.286	3.331	3.081	3.307	3.218	3.187	2.356	2.597	2.154	2.534	2.041	2.117	1.983	1.714	1.968	1.660	1.484	1.415	1.317	1.509	1.246	1.297	1.324	1.605	1.692	1.406	1.751	2.165	1.615	1.280	1.492	1.347	1.524	1.374	1.350	1.548	1.459	1.728	1.353	1.238	1.140	0.913	1.269	1.349	2.193
630.0	40.95	41.17	28.45	30.73	23.95	25.79	26.47	19.95	24.57	25.42	32.44	30.74	39.81	62.51	38.37	16.45	13.63	15.12	157.3	 1103	510.3	9.476	4.989	4.274	4.305	4.183	3.977	3.932	3.710	3.326	3.664	3.741	3.402	3.421	2.808	3.032	3.082	2.777	2.442	2.313	2.057	1.966	1.839	1.830	1.982	1.724	1.549	1.782	1.438	1.539	1.504	1.402	1.155	1.339	1.214	1.308	1.286	1.268	1.580	1.849	1.515	1.526	1.294	1.170	1.270	1.358	1.254	1.418	1.371	1.630	1.323	1.228	1.272	1.272	1.086	1.110	1.427
635.0	39.98	34.63	37.54	36.63	25.24	25.81	24.62	21.45	23.00	20.44	28.65	33.26	34.69	42.56	51.98	18.14	12.48	10.12	41.09	382.7	 1144	106.4	4.453	3.643	3.699	4.053	3.403	4.245	3.601	3.057	2.891	3.525	3.169	3.404	2.598	2.755	3.149	2.364	2.537	2.607	2.044	2.095	1.563	1.585	1.701	1.371	1.425	1.508	1.263	1.391	1.271	1.247	0.952	1.106	1.337	0.974	1.229	1.257	1.296	1.454	1.579	1.440	1.503	1.198	1.201	0.952	1.437	1.279	1.272	1.190	1.346	1.128	0.953	1.350	1.177	0.930	0.964
640.0	42.97	40.92	40.08	38.89	22.46	26.02	24.49	21.17	21.40	21.22	25.96	35.26	37.96	37.77	52.48	25.50	11.10	10.16	14.98	96.89	 1028	302.4	5.858	4.241	4.037	3.446	3.875	3.881	2.612	2.452	3.215	3.171	3.098	3.225	3.222	2.425	2.615	2.690	2.033	2.666	1.927	1.940	1.738	1.736	1.609	1.433	1.228	1.221	1.301	1.076	0.889	1.453	1.237	1.304	1.370	1.102	1.171	1.288	1.267	1.048	1.598	1.249	1.472	1.212	1.224	1.048	1.406	1.220	1.030	1.140	1.259	1.230	1.338	1.022	1.260	0.987	0.846
645.0	39.30	45.05	35.71	29.93	25.62	22.49	19.96	19.48	21.55	20.59	25.85	30.41	37.62	31.08	44.94	30.89	11.75	8.256	9.273	27.42	523.9	886.4	28.97	4.313	3.962	3.109	3.885	3.554	3.101	3.322	3.115	3.651	2.904	2.826	3.110	3.588	3.005	3.084	2.120	2.474	1.882	1.613	1.716	1.419	1.404	1.452	1.386	1.015	1.448	0.878	1.240	1.248	1.178	1.230	1.172	1.129	1.007	1.154	1.024	1.186	1.355	1.353	1.376	1.057	0.914	1.082	1.294	1.199	1.132	0.851	1.106	1.119	1.370	1.452	1.300	1.187	0.993
650.0	41.24	39.16	30.31	27.41	32.67	23.90	23.10	21.15	24.77	25.87	25.64	30.42	36.17	30.21	38.26	35.38	12.10	9.730	8.345	10.93	157.7	 1041	193.3	4.082	3.653	3.389	2.832	2.967	3.063	3.082	3.690	3.802	3.523	3.131	3.212	3.213	3.295	2.689	2.599	2.565	2.148	1.382	1.374	1.475	1.339	1.648	1.363	1.308	1.172	1.051	0.869	0.913	0.962	0.947	1.309	1.371	1.094	1.303	1.404	1.158	1.209	1.171	1.045	1.396	1.011	0.935	1.405	1.562	0.849	1.010	1.009	1.223	1.310	1.066	0.972	1.096	0.991
