Sample:	'1
File name:	W2025090906-南管网进水.FD3
Run date:	'10:38:44, 09/11/2025
Operator:	Administrator
Comment:	'

Instrument
Model:	F-2700 FL Spectrophotometer
Serial number:	23C7-004
ROM Version:	4J14000 07

Instrument parameters
Measurement type:	3-D scan
Data mode:	Fluorescence
EX  Start WL:	220.0 nm
EX  End WL:	600.0 nm
EX Sampling interval:	5.0 nm
EM  Start WL:	230.0 nm
EM  End WL:	650.0 nm
EM Sampling interval:	5.0 nm
Scan speed:	12000 nm/min
EX Slit:	5.0 nm
EM Slit:	5.0 nm
PMT Voltage:	700 V
Response:	Auto 
Corrected spectra:	Off
Contour interval:	50.000

Peak integration
Integration method:	Rectangular
Sensitivity:	1
Threshold:	1.000

Peaks
No.	ApexEX/EM(nm)	Height(Data)
1	225.0/245.0	275.2
2	225.0/340.0	2831
3	225.0/490.0	295.3
4	230.0/250.0	281.1
5	230.0/500.0	260.0
6	235.0/260.0	378.1
7	235.0/515.0	219.5
8	240.0/265.0	416.1
9	240.0/525.0	186.4
10	245.0/270.0	389.3
11	245.0/540.0	162.1
12	250.0/275.0	509.4
13	250.0/455.0	607.2
14	250.0/550.0	130.2
15	255.0/285.0	580.4
16	255.0/565.0	113.9
17	260.0/290.0	569.6
18	260.0/575.0	98.54
19	265.0/295.0	822.4
20	265.0/590.0	92.91
21	270.0/300.0	1191
22	270.0/600.0	93.93
23	275.0/310.0	1399
24	275.0/615.0	96.11
25	280.0/315.0	1388
26	280.0/340.0	1428
27	280.0/625.0	87.10
28	285.0/320.0	1390
29	285.0/635.0	64.31
30	315.0/355.0	392.3
31	320.0/360.0	352.1
32	330.0/375.0	237.6
33	335.0/380.0	244.4
34	340.0/385.0	213.1
35	350.0/400.0	199.3
36	355.0/405.0	195.2
37	365.0/420.0	148.9
38	370.0/425.0	142.9
39	380.0/440.0	104.4
40	385.0/445.0	93.39
41	400.0/465.0	53.30
42	415.0/485.0	26.09
43	425.0/495.0	18.54
44	430.0/505.0	16.29
45	435.0/510.0	12.92
46	440.0/520.0	11.84
47	445.0/525.0	10.07
48	455.0/540.0	7.207
49	460.0/340.0	7.880
50	465.0/555.0	4.626
51	470.0/560.0	3.859
52	480.0/265.0	1.959
53	480.0/575.0	2.412
54	495.0/270.0	1.971
55	505.0/275.0	2.727
56	510.0/280.0	3.262
57	515.0/285.0	3.506
58	525.0/290.0	3.437
59	535.0/295.0	4.624
60	550.0/305.0	7.007
61	560.0/310.0	6.897
62	570.0/315.0	7.437
63	575.0/320.0	7.939
64	580.0/325.0	7.394

Data points
	220.0	225.0	230.0	235.0	240.0	245.0	250.0	255.0	260.0	265.0	270.0	275.0	280.0	285.0	290.0	295.0	300.0	305.0	310.0	315.0	320.0	325.0	330.0	335.0	340.0	345.0	350.0	355.0	360.0	365.0	370.0	375.0	380.0	385.0	390.0	395.0	400.0	405.0	410.0	415.0	420.0	425.0	430.0	435.0	440.0	445.0	450.0	455.0	460.0	465.0	470.0	475.0	480.0	485.0	490.0	495.0	500.0	505.0	510.0	515.0	520.0	525.0	530.0	535.0	540.0	545.0	550.0	555.0	560.0	565.0	570.0	575.0	580.0	585.0	590.0	595.0	600.0
230.0	146.6	1833	1916	240.2	7.588	4.259	3.140	2.877	2.649	2.589	2.092	2.327	1.917	1.612	1.380	1.054	1.071	0.822	0.724	0.618	0.559	0.512	0.534	0.443	0.384	0.453	0.394	0.348	0.321	0.346	0.339	0.296	0.282	0.271	0.246	0.239	0.254	0.245	0.204	0.254	0.532	0.859	0.626	0.285	0.261	0.391	2.227	6.250	7.006	3.136	0.701	0.222	0.155	0.152	0.166	0.160	0.187	0.171	0.183	0.170	0.175	0.179	0.171	0.155	0.159	0.152	0.173	0.135	0.152	0.179	0.185	0.179	0.164	0.187	0.177	0.171	0.171
235.0	162.5	533.9	1706	1759	298.8	7.921	4.722	3.641	3.368	2.790	1.893	2.307	1.781	1.833	1.413	1.070	0.978	0.828	0.852	0.711	0.578	0.497	0.517	0.456	0.354	0.364	0.475	0.366	0.374	0.317	0.335	0.225	0.294	0.247	0.222	0.229	0.216	0.230	0.278	0.270	0.300	0.449	0.640	0.712	0.497	0.372	0.665	1.774	3.454	5.211	6.455	5.115	1.683	0.318	0.205	0.152	0.172	0.155	0.177	0.168	0.177	0.154	0.190	0.163	0.120	0.181	0.181	0.161	0.141	0.167	0.173	0.115	0.113	0.175	0.155	0.140	0.178
240.0	274.3	207.2	597.5	2017	1651	223.6	6.151	4.923	2.953	3.112	2.499	2.716	1.654	1.755	1.370	1.015	1.260	0.779	0.849	0.625	0.653	0.589	0.464	0.463	0.371	0.375	0.473	0.426	0.395	0.386	0.273	0.314	0.275	0.303	0.256	0.209	0.247	0.208	0.273	0.269	0.249	0.245	0.325	0.621	0.758	0.803	0.481	0.566	0.943	1.862	4.370	8.296	8.802	4.100	1.173	0.205	0.201	0.189	0.184	0.139	0.177	0.133	0.164	0.170	0.166	0.175	0.166	0.192	0.145	0.184	0.144	0.248	0.118	0.132	0.171	0.138	0.197
245.0	264.8	275.2	183.3	828.8	2329	1563	144.3	5.122	3.766	3.210	3.680	2.459	1.978	1.917	1.807	1.029	1.214	0.732	0.833	0.710	0.598	0.520	0.468	0.514	0.361	0.388	0.414	0.410	0.287	0.343	0.390	0.256	0.298	0.249	0.310	0.196	0.265	0.276	0.239	0.257	0.252	0.273	0.189	0.400	0.587	0.864	0.958	0.741	0.439	0.573	1.260	3.497	8.215	10.29	8.322	3.463	0.658	0.207	0.205	0.196	0.187	0.156	0.214	0.215	0.235	0.166	0.133	0.168	0.152	0.186	0.161	0.225	0.106	0.191	0.175	0.175	0.139
250.0	100.9	258.8	281.1	254.2	861.9	2156	2053	190.5	19.87	4.488	3.436	3.947	2.564	2.130	1.805	1.270	1.213	0.882	0.843	0.758	0.708	0.641	0.506	0.434	0.375	0.470	0.393	0.422	0.280	0.365	0.288	0.269	0.276	0.292	0.253	0.204	0.277	0.251	0.202	0.248	0.204	0.262	0.181	0.239	0.263	0.441	0.691	0.973	1.029	0.759	0.590	0.995	2.309	4.087	7.111	9.847	10.41	7.758	3.372	0.837	0.203	0.205	0.200	0.170	0.214	0.195	0.170	0.144	0.182	0.174	0.214	0.171	0.124	0.199	0.173	0.142	0.209
255.0	37.61	80.62	276.5	335.9	250.2	577.9	2192	2469	260.2	16.79	4.555	3.859	3.516	2.165	2.000	1.369	1.262	0.829	0.928	0.924	0.767	0.617	0.636	0.468	0.502	0.589	0.450	0.409	0.374	0.358	0.328	0.383	0.281	0.230	0.281	0.185	0.280	0.251	0.187	0.184	0.228	0.233	0.204	0.241	0.198	0.327	0.264	0.392	0.715	1.103	1.403	1.120	0.854	1.124	1.832	2.604	5.685	12.30	17.83	13.26	4.784	0.631	0.233	0.260	0.198	0.219	0.161	0.172	0.149	0.161	0.222	0.160	0.164	0.159	0.148	0.088	0.170
260.0	24.38	27.76	111.0	378.1	270.7	158.5	713.3	2924	2142	202.6	7.683	4.805	3.565	2.866	2.364	1.758	1.346	0.807	1.093	0.746	0.843	0.645	0.538	0.500	0.644	0.491	0.464	0.494	0.404	0.456	0.334	0.307	0.340	0.298	0.258	0.260	0.243	0.259	0.217	0.211	0.250	0.269	0.197	0.221	0.159	0.234	0.162	0.228	0.329	0.513	1.066	1.867	1.497	0.794	0.634	0.750	1.482	3.867	10.15	19.14	22.88	12.57	2.222	0.255	0.226	0.157	0.168	0.185	0.189	0.252	0.213	0.205	0.208	0.144	0.181	0.170	0.248
265.0	19.83	18.76	34.91	201.4	416.1	172.6	184.7	1103	3999	1825	146.7	6.108	4.356	3.632	2.796	2.013	1.613	1.264	1.111	0.861	0.826	0.630	0.548	0.456	0.573	0.430	0.418	0.470	0.419	0.382	0.379	0.347	0.327	0.328	0.243	0.325	0.285	0.254	0.298	0.191	0.278	0.224	0.270	0.214	0.174	0.191	0.205	0.203	0.214	0.276	0.384	1.124	1.959	1.847	0.987	0.507	0.543	1.134	2.666	7.041	17.90	28.63	19.62	7.045	0.936	0.234	0.217	0.218	0.191	0.212	0.184	0.179	0.176	0.216	0.195	0.132	0.196
270.0	34.39	22.09	18.89	61.22	234.3	389.3	213.4	285.8	1411	3400	3132	611.9	26.49	4.900	3.281	2.090	1.843	1.516	1.118	1.047	0.818	0.698	0.663	0.581	0.541	0.473	0.464	0.451	0.484	0.455	0.360	0.355	0.383	0.424	0.366	0.356	0.338	0.279	0.321	0.275	0.304	0.328	0.282	0.289	0.231	0.226	0.210	0.210	0.187	0.203	0.187	0.417	0.770	1.304	1.801	1.971	1.328	0.761	0.831	1.873	4.592	10.23	14.89	19.91	20.43	13.69	5.452	0.998	0.238	0.221	0.201	0.188	0.179	0.208	0.205	0.206	0.198
275.0	66.20	33.98	23.89	23.50	65.74	211.8	509.4	244.2	352.1	894.8	3104	6126	791.3	19.20	4.382	2.779	2.076	1.699	1.401	1.154	0.903	0.838	0.781	0.555	0.573	0.600	0.453	0.417	0.496	0.448	0.408	0.343	0.424	0.418	0.534	0.530	0.459	0.379	0.415	0.362	0.363	0.312	0.266	0.357	0.369	0.236	0.291	0.263	0.228	0.196	0.166	0.290	0.303	0.465	0.635	1.326	2.562	2.727	1.376	0.810	1.269	2.579	3.591	5.040	9.106	20.60	28.59	20.32	6.157	0.836	0.235	0.146	0.248	0.270	0.194	0.189	0.169
280.0	104.7	49.97	32.50	20.62	27.56	74.07	384.6	523.7	182.4	247.8	929.9	5731	5216	129.2	8.972	3.994	2.933	1.921	1.820	1.161	0.942	0.802	0.832	0.649	0.713	0.721	0.541	0.520	0.481	0.464	0.433	0.442	0.422	0.647	0.540	0.552	0.452	0.540	0.429	0.447	0.420	0.406	0.347	0.356	0.376	0.339	0.324	0.287	0.252	0.216	0.170	0.246	0.247	0.283	0.293	0.508	1.095	2.534	3.262	2.068	0.879	0.926	1.159	1.507	2.436	5.807	15.03	28.83	29.86	15.96	2.979	0.354	0.267	0.207	0.206	0.224	0.190
285.0	141.3	91.36	53.72	27.30	24.15	37.06	152.6	580.4	298.4	140.9	284.1	1867	6448	3665	90.81	5.688	3.825	2.414	1.736	1.419	1.029	1.106	0.822	0.759	0.663	0.610	0.500	0.539	0.423	0.546	0.475	0.454	0.519	0.707	0.594	0.647	0.553	0.573	0.512	0.488	0.462	0.529	0.463	0.469	0.448	0.455	0.369	0.275	0.252	0.230	0.182	0.231	0.244	0.250	0.259	0.293	0.518	1.020	2.114	3.506	2.854	1.284	0.750	0.779	0.955	1.839	3.915	9.528	22.40	36.25	26.25	9.928	1.338	0.285	0.280	0.291	0.245
290.0	251.0	182.8	110.7	56.23	36.08	39.57	77.88	262.6	569.6	484.8	283.0	613.4	2091	4270	3166	369.8	19.58	3.418	2.409	1.702	1.412	1.102	0.997	0.854	0.689	0.690	0.598	0.605	0.559	0.551	0.513	0.459	0.533	0.867	0.936	0.799	0.692	0.683	0.596	0.596	0.553	0.647	0.620	0.730	0.659	0.633	0.579	0.573	0.398	0.334	0.271	0.288	0.300	0.281	0.301	0.289	0.384	0.579	0.843	1.613	2.636	3.437	3.185	1.941	1.311	1.371	1.778	3.068	6.232	12.22	19.22	24.04	31.93	17.24	7.665	1.360	0.302
295.0	388.2	292.0	197.4	100.1	59.96	58.46	80.98	157.8	324.5	822.4	762.2	504.3	756.6	1183	2958	5115	520.4	16.46	3.610	2.621	1.557	1.315	1.320	1.130	0.758	0.798	0.681	0.628	0.549	0.547	0.583	0.592	0.695	0.908	1.278	1.172	0.990	0.778	0.716	0.707	0.700	0.835	0.726	0.894	0.902	0.856	0.837	0.823	0.681	0.492	0.436	0.393	0.414	0.370	0.353	0.433	0.492	0.622	0.652	0.942	1.310	1.771	3.149	4.624	4.346	2.719	2.021	2.234	2.852	4.011	5.366	6.505	12.88	23.87	36.30	25.01	8.298
300.0	509.5	398.2	277.4	154.9	104.2	91.06	113.8	171.7	284.1	618.8	1191	767.5	570.0	528.5	896.1	4271	4589	76.72	8.271	3.095	2.207	1.676	1.555	1.190	0.930	0.837	0.712	0.708	0.629	0.582	0.503	0.527	0.807	1.209	1.371	1.103	1.063	0.977	0.804	0.902	0.840	0.884	0.861	1.064	1.189	1.024	1.115	1.134	1.082	0.674	0.645	0.615	0.502	0.517	0.412	0.578	0.530	0.618	0.808	0.920	1.187	1.433	2.039	3.473	5.611	5.990	3.857	2.834	2.712	2.935	2.810	2.780	3.990	6.785	15.92	30.83	34.53
305.0	608.7	522.8	386.7	239.6	153.0	143.5	181.6	245.4	368.2	578.1	1130	1358	778.0	521.2	429.8	1359	5132	3227	60.96	5.067	3.006	1.859	1.709	1.223	0.990	0.979	0.886	0.678	0.665	0.660	0.532	0.540	0.754	1.392	1.446	1.506	1.299	1.157	0.918	0.979	0.993	0.848	1.064	1.188	1.353	1.336	1.483	1.250	1.142	0.924	0.736	0.750	0.661	0.717	0.710	0.744	0.799	0.987	1.111	1.211	1.596	1.971	2.267	3.029	4.189	6.105	7.007	5.711	3.814	3.364	2.944	2.329	2.450	2.809	4.600	9.479	21.80
310.0	737.3	665.1	523.7	335.5	236.7	230.5	279.5	351.3	461.3	650.5	960.5	1399	1349	777.6	470.6	545.0	1624	3198	3292	255.7	14.52	2.786	2.170	1.497	1.291	1.021	0.910	0.815	0.740	0.692	0.598	0.637	0.762	1.318	1.509	1.427	1.315	1.217	1.188	1.033	1.013	1.065	1.259	1.356	1.528	1.692	1.687	1.659	1.456	1.255	1.105	1.135	0.982	0.992	0.999	1.025	1.213	1.369	1.495	1.745	1.934	2.246	2.750	3.335	3.785	4.828	5.807	6.813	6.897	6.241	4.607	3.276	2.878	2.524	2.602	3.518	6.393
315.0	850.8	820.7	675.0	440.8	317.4	314.3	362.5	435.8	526.3	706.7	940.2	1173	1388	1199	635.4	432.6	605.7	872.3	2148	3756	386.3	13.23	3.021	2.141	1.352	1.246	1.173	0.955	0.794	0.837	0.660	0.703	0.737	1.221	1.605	1.434	1.487	1.184	1.267	1.203	1.122	1.195	1.298	1.560	1.715	2.177	1.927	2.198	1.819	1.516	1.350	1.406	1.211	1.277	1.309	1.178	1.480	1.771	2.052	2.090	2.016	2.522	3.111	3.456	3.839	4.486	4.824	5.457	5.857	7.370	7.437	5.999	3.660	2.982	2.421	2.394	2.938
320.0	1074	1128	915.3	560.1	369.9	371.0	435.5	508.3	594.4	766.5	989.2	1176	1254	1390	940.2	479.1	411.7	355.3	592.8	2734	3278	56.48	6.616	2.721	1.780	1.464	1.254	0.903	0.797	0.810	0.632	0.735	0.804	1.130	1.569	1.369	1.509	1.194	1.264	1.370	1.294	1.492	1.524	1.935	2.218	2.623	2.691	3.054	2.808	2.143	1.651	1.626	1.379	1.487	1.368	1.479	1.822	1.978	2.232	2.337	2.445	2.763	3.356	3.668	4.228	4.401	4.969	5.796	5.432	6.421	6.980	7.939	6.517	4.060	2.958	2.549	2.329
325.0	1454	1582	1432	750.6	438.9	416.1	492.0	589.5	672.9	836.6	1062	1245	1261	1256	1233	652.2	402.3	258.6	209.6	785.6	3057	2728	48.48	4.286	2.303	1.820	1.293	1.138	0.871	0.860	0.799	0.668	0.841	1.027	1.464	1.297	1.333	1.278	1.472	1.424	1.571	1.769	1.686	2.217	2.758	3.283	3.588	4.313	4.296	3.077	2.222	2.088	1.759	1.571	1.566	1.638	1.953	2.124	2.437	2.448	2.824	2.915	3.472	3.861	4.616	4.987	5.077	5.908	5.667	5.994	6.031	6.591	7.394	6.754	4.482	3.000	2.660
330.0	1818	2068	1953	1130	670.5	532.1	565.7	660.8	744.1	908.3	1130	1293	1297	1185	1089	904.0	559.1	283.1	167.0	251.0	879.1	2325	2815	736.1	14.16	2.752	1.727	1.264	1.055	0.984	0.982	0.818	0.941	1.127	1.290	1.332	1.375	1.437	1.522	1.589	1.655	1.931	2.131	2.577	3.215	4.213	4.679	5.714	5.483	4.509	3.416	3.156	2.553	2.402	2.058	1.958	2.121	2.358	2.701	2.915	3.079	3.490	3.768	4.377	4.991	5.220	5.454	6.226	5.871	6.263	6.034	6.059	6.003	6.007	5.749	5.143	3.967
335.0	2259	2594	2551	1694	1124	759.9	677.6	751.0	831.6	994.1	1217	1386	1393	1281	1057	875.7	856.4	468.8	230.6	188.1	302.9	613.4	1638	3145	345.2	14.73	2.237	1.632	1.235	0.992	1.096	0.948	0.907	1.099	1.356	1.493	1.440	1.666	1.753	1.650	1.867	2.361	2.460	3.102	4.026	5.005	5.859	6.757	6.837	5.930	4.636	4.838	4.262	3.999	3.093	2.648	2.777	2.760	3.146	3.207	3.346	3.808	4.347	4.485	5.370	5.602	5.732	6.501	6.570	6.474	6.631	6.245	6.047	5.707	5.084	5.092	5.681
340.0	2483	2831	2785	1912	1301	849.9	720.3	774.0	867.6	1020	1253	1398	1428	1306	1063	801.5	796.1	664.3	299.3	187.5	189.6	232.0	475.1	2115	2831	280.9	5.201	2.168	1.415	1.309	1.156	0.933	0.841	1.102	1.285	1.482	1.449	1.624	1.663	1.858	2.066	2.461	2.718	3.425	4.468	5.412	6.173	7.514	7.880	6.634	5.240	5.307	4.982	4.453	3.654	2.740	2.917	2.939	3.160	3.343	3.542	3.963	4.348	4.932	5.426	5.482	5.982	6.251	6.704	6.883	6.919	6.443	6.138	5.429	5.153	4.514	4.710
345.0	2409	2768	2774	1894	1262	845.1	687.1	764.3	837.0	999.9	1194	1322	1345	1225	1005	733.0	618.7	656.0	417.2	195.7	162.6	148.2	180.2	617.2	2511	2573	41.51	2.862	1.802	1.590	1.094	0.975	0.853	0.962	1.249	1.476	1.489	1.728	1.781	1.913	2.142	2.469	2.824	3.317	4.410	5.371	5.913	7.280	7.807	6.562	4.956	5.140	4.823	4.427	3.452	2.465	2.615	2.830	2.979	3.452	3.527	3.935	4.336	4.458	5.347	5.199	5.901	6.071	6.194	6.305	6.530	6.258	5.661	4.983	4.712	4.087	3.896
350.0	2209	2505	2514	1778	1245	816.6	642.0	703.1	785.4	917.8	1098	1199	1221	1122	922.4	674.2	525.9	469.6	472.0	314.2	173.7	136.0	120.7	192.7	694.8	2042	1994	606.8	11.46	2.117	1.662	1.224	0.995	1.139	1.315	1.372	1.444	1.651	1.670	1.637	2.060	2.250	2.691	3.130	4.082	5.026	5.533	6.732	7.042	6.124	5.022	5.184	4.707	4.234	3.271	2.532	2.508	2.666	2.835	3.051	3.457	3.586	3.974	4.065	4.764	5.074	5.277	5.479	5.769	5.742	5.677	5.456	5.473	4.764	4.232	3.854	3.412
355.0	1995	2227	2231	1673	1193	774.8	600.0	638.7	718.4	834.6	984.5	1081	1088	1014	840.6	623.2	472.4	376.3	332.0	392.3	273.9	140.3	109.7	103.0	183.3	479.9	1120	2613	311.2	12.50	2.092	1.376	1.068	1.044	1.328	1.274	1.460	1.393	1.675	1.821	1.671	2.059	2.512	3.155	3.593	4.362	5.100	6.025	6.064	5.412	4.638	4.809	4.472	4.079	3.075	2.434	2.366	2.454	2.881	2.961	3.197	3.452	3.401	3.683	4.464	4.188	4.617	4.838	4.968	5.087	5.261	4.994	4.910	4.342	3.627	3.333	2.996
360.0	1803	1978	1939	1459	1067	696.4	549.1	580.3	653.6	754.9	886.1	961.5	966.3	901.1	749.6	557.3	421.0	324.3	260.7	296.8	352.1	183.7	107.3	81.65	72.23	125.5	288.7	1703	2299	265.7	4.683	1.799	1.193	1.060	1.325	1.215	1.261	1.502	1.486	1.605	1.684	1.912	2.156	2.618	2.944	4.043	4.375	5.435	5.315	4.502	4.025	4.185	4.051	3.783	2.853	2.353	2.160	2.052	2.399	2.576	2.658	3.173	3.143	3.339	3.887	4.055	3.977	4.380	4.443	4.904	4.654	4.646	4.027	3.819	3.384	2.958	2.767
365.0	1603	1670	1595	1265	937.6	625.6	490.0	521.0	585.8	676.6	797.9	861.4	861.4	793.3	659.7	491.5	376.8	288.4	226.8	216.8	301.8	274.6	122.4	77.61	51.26	49.41	80.21	471.5	2014	2315	39.40	2.953	1.534	1.337	1.422	1.306	1.337	1.227	1.357	1.456	1.545	1.712	1.935	2.184	2.793	3.444	3.719	4.607	4.628	3.849	3.476	3.754	3.594	3.149	2.411	2.208	1.924	1.970	2.125	2.316	2.424	2.636	2.804	3.090	3.421	3.362	3.604	3.822	4.079	4.290	4.054	3.914	3.615	3.385	3.232	2.647	2.616
370.0	1344	1387	1370	1070	801.4	545.0	427.8	459.7	512.0	590.2	694.1	747.1	748.3	684.4	570.9	430.1	331.7	259.7	208.6	183.1	199.1	261.0	219.6	100.7	53.16	40.45	41.65	125.3	557.6	1803	1971	169.7	11.22	2.231	1.574	1.400	1.281	1.287	1.295	1.365	1.322	1.553	1.736	1.926	2.507	2.895	3.100	3.751	3.699	3.269	2.996	3.375	2.993	2.902	2.209	1.813	1.753	1.666	1.879	2.099	2.122	2.320	2.537	2.828	2.948	2.931	3.238	3.354	3.413	3.628	3.617	3.487	3.224	2.852	2.764	2.550	2.240
375.0	1100	1140	1120	882.3	705.0	482.6	383.4	396.3	448.9	512.7	601.2	652.8	669.1	602.6	492.5	371.1	294.1	237.8	197.5	168.6	161.3	172.0	237.6	195.3	80.92	52.33	49.93	67.35	156.4	439.6	1127	2040	271.1	11.25	2.254	1.477	1.495	1.301	1.251	1.206	1.276	1.413	1.532	1.673	2.030	2.516	2.752	3.158	3.110	2.609	2.494	2.735	2.581	2.502	2.166	1.715	1.618	1.714	1.610	1.830	1.922	2.086	2.391	2.501	2.630	2.834	3.009	2.994	3.004	3.155	3.121	3.045	2.920	2.395	2.221	2.347	2.014
380.0	942.8	953.4	951.6	781.5	625.0	456.8	360.4	368.5	410.4	473.2	550.2	592.5	615.4	553.4	438.7	332.4	264.4	220.1	185.8	164.0	151.5	146.8	180.6	244.4	142.1	73.54	72.42	74.51	83.36	139.2	329.2	1401	1823	205.0	4.275	1.782	1.462	1.393	1.298	1.096	1.170	1.325	1.475	1.431	1.843	2.074	2.295	2.757	2.563	2.247	2.092	2.635	2.303	2.352	1.811	1.707	1.552	1.482	1.600	1.721	1.803	1.939	2.084	2.204	2.550	2.527	2.603	2.673	2.862	2.893	2.893	2.603	2.600	2.229	2.046	2.064	1.780
385.0	854.8	843.6	831.3	689.2	573.1	440.7	345.1	347.2	374.7	420.2	504.8	541.8	572.3	514.9	398.2	299.6	245.3	206.4	177.7	160.4	148.0	142.1	148.4	206.5	213.1	109.5	89.76	88.19	76.73	86.89	135.7	438.0	1589	1435	31.44	2.288	1.671	1.495	1.270	1.144	1.073	1.273	1.470	1.478	1.654	1.926	2.031	2.395	2.169	1.896	1.909	2.248	2.089	2.074	1.744	1.536	1.339	1.420	1.516	1.445	1.692	1.660	1.796	2.067	2.230	2.520	2.392	2.416	2.714	2.612	2.742	2.467	2.364	1.978	1.928	1.762	1.793
390.0	696.8	692.9	669.9	584.9	508.4	409.1	330.3	316.1	332.3	373.5	435.4	467.2	490.7	444.5	345.6	266.3	219.9	188.3	168.3	154.8	144.3	137.5	134.5	147.0	184.8	175.8	111.9	86.03	71.20	69.47	83.96	142.9	448.9	1138	1248	132.6	8.286	1.762	1.307	1.157	1.082	1.207	1.225	1.342	1.431	1.596	1.742	1.887	1.820	1.647	1.607	2.015	1.865	1.894	1.739	1.501	1.338	1.446	1.483	1.378	1.417	1.585	1.638	1.731	2.023	2.058	2.060	2.093	2.294	2.557	2.349	2.062	2.089	1.901	1.806	1.558	1.654
395.0	578.4	577.9	564.4	508.4	470.0	402.3	325.9	301.5	303.1	332.8	380.0	403.8	425.7	388.2	305.9	241.2	200.0	173.7	159.8	150.4	140.9	134.8	129.4	127.7	131.2	171.7	178.1	103.9	74.88	68.12	74.02	78.21	123.2	271.9	707.2	1369	220.5	7.108	1.620	1.347	1.068	1.121	1.262	1.183	1.341	1.449	1.472	1.672	1.564	1.403	1.385	1.693	1.731	1.864	1.616	1.612	1.481	1.261	1.318	1.369	1.428	1.321	1.568	1.629	1.751	1.837	1.890	1.820	1.866	2.169	2.011	1.934	1.834	1.546	1.587	1.593	1.505
400.0	553.1	496.4	513.4	475.3	447.1	392.1	329.3	302.8	291.7	307.5	353.2	376.1	399.7	359.0	284.2	224.1	187.6	166.8	154.2	147.7	141.5	136.1	133.2	129.4	122.2	140.0	199.3	152.4	86.93	76.95	79.16	72.15	55.72	75.47	186.5	924.4	1274	32.60	2.826	1.335	1.199	1.102	1.115	1.201	1.272	1.295	1.341	1.483	1.369	1.339	1.164	1.526	1.601	1.694	1.502	1.602	1.487	1.348	1.303	1.363	1.464	1.479	1.583	1.400	1.514	1.725	1.821	1.759	1.789	2.103	1.905	1.710	1.604	1.471	1.619	1.549	1.468
405.0	488.4	465.4	472.5	444.9	436.1	389.4	332.7	300.7	278.9	294.7	336.5	354.7	379.6	342.5	270.5	214.9	181.2	160.6	150.0	144.5	140.9	138.9	135.8	132.7	122.7	123.6	170.9	195.2	115.6	85.35	85.96	75.41	45.88	34.90	54.08	261.6	1084	1092	26.70	1.909	1.317	1.145	1.009	1.006	1.171	1.198	1.118	1.344	1.356	1.339	1.138	1.541	1.473	1.621	1.538	1.665	1.425	1.335	1.301	1.208	1.343	1.518	1.346	1.491	1.403	1.519	1.510	1.494	1.823	1.846	1.960	1.692	1.522	1.390	1.408	1.371	1.375
410.0	429.1	407.6	420.7	407.5	406.7	387.6	336.5	299.1	268.3	271.9	306.9	322.8	335.6	309.0	247.5	201.3	173.2	154.7	145.2	140.3	137.8	135.0	132.2	130.2	120.6	116.9	130.0	162.9	159.8	105.3	84.46	71.60	43.46	29.10	26.74	70.20	299.9	871.0	890.0	124.6	6.730	1.228	1.093	1.033	1.115	1.134	1.135	1.210	1.179	1.147	1.160	1.489	1.482	1.451	1.534	1.501	1.464	1.403	1.342	1.259	1.323	1.244	1.337	1.242	1.376	1.470	1.476	1.423	1.609	1.771	1.689	1.644	1.503	1.287	1.260	1.287	1.281
415.0	375.0	368.3	369.8	377.4	387.8	382.2	352.0	306.9	263.4	255.2	274.1	285.7	293.1	271.8	229.4	189.6	165.0	148.6	138.6	135.3	131.4	128.8	126.3	124.9	116.2	111.5	111.6	118.3	142.2	146.1	91.52	66.34	42.83	30.07	22.75	28.76	76.31	205.3	505.9	1029	191.7	5.401	1.215	0.978	1.133	1.236	1.026	1.201	1.115	1.064	1.092	1.368	1.324	1.389	1.496	1.415	1.446	1.422	1.450	1.339	1.168	1.132	1.241	1.269	1.365	1.195	1.235	1.353	1.323	1.551	1.482	1.514	1.348	1.141	1.192	1.200	1.241
420.0	367.6	353.7	354.6	361.3	369.4	384.6	356.9	307.9	269.3	250.2	255.4	258.8	268.0	252.9	215.3	182.5	160.2	144.5	138.4	133.4	126.8	124.5	123.0	120.0	115.0	108.5	108.1	104.9	111.1	148.9	121.1	69.49	44.66	31.82	23.56	20.95	27.54	53.56	130.9	681.0	906.0	30.49	2.144	1.250	1.279	1.214	1.019	1.180	1.051	1.026	0.989	1.362	1.384	1.471	1.354	1.519	1.575	1.433	1.333	1.342	1.227	1.152	1.143	1.135	1.251	1.237	1.201	1.405	1.294	1.394	1.284	1.327	1.240	1.152	1.173	1.361	1.326
425.0	351.1	325.6	338.1	350.4	369.6	395.3	383.1	324.6	273.9	238.1	241.3	248.5	250.1	237.4	204.5	179.6	157.6	145.3	138.0	132.0	125.0	122.1	119.4	114.9	112.7	108.3	106.7	103.1	97.55	122.6	142.9	88.37	48.94	34.82	25.12	21.00	18.25	19.91	34.85	190.5	750.1	704.0	24.93	1.742	1.289	1.132	0.978	1.146	1.133	0.959	1.010	1.273	1.370	1.440	1.472	1.470	1.530	1.599	1.555	1.416	1.142	1.097	1.215	1.112	1.210	1.260	1.173	1.344	1.155	1.441	1.295	1.290	1.223	1.133	1.187	1.162	1.234
430.0	441.9	314.5	328.1	355.7	391.6	423.8	424.9	365.7	291.5	236.9	231.4	228.8	230.9	223.7	196.1	176.8	160.3	149.2	142.1	136.2	124.4	116.3	116.0	113.0	110.0	107.7	106.1	102.9	96.33	100.2	121.5	118.6	68.70	39.92	30.20	23.94	18.74	14.07	14.36	47.39	203.1	536.1	632.4	115.7	6.582	1.189	1.072	1.105	1.119	0.942	1.049	1.215	1.384	1.513	1.576	1.603	1.743	1.730	1.699	1.744	1.277	1.316	1.252	1.134	1.125	1.159	1.140	1.218	1.212	1.224	1.259	1.224	1.222	1.095	1.136	1.116	1.156
435.0	1003	319.4	332.1	368.0	405.6	460.9	489.8	417.1	318.9	242.5	217.3	216.8	218.9	210.5	194.8	175.8	167.0	155.1	150.3	139.0	122.9	111.8	109.7	111.7	106.8	105.2	104.5	102.0	98.44	95.23	96.28	107.1	101.4	56.88	36.11	27.88	20.77	15.40	11.28	15.82	49.55	124.9	339.0	778.1	184.4	5.901	1.192	1.293	1.061	0.992	1.049	1.362	1.368	1.590	1.889	1.968	1.993	1.867	1.938	1.830	1.517	1.443	1.225	1.274	1.025	1.039	0.982	1.025	1.055	1.096	1.089	1.101	1.278	1.217	1.204	1.132	1.132
440.0	1721	382.3	330.4	364.3	434.0	496.0	531.4	461.9	348.2	250.6	206.2	206.5	207.7	203.7	195.1	181.0	171.6	161.4	157.5	144.0	124.6	111.6	105.6	106.9	105.5	105.0	104.5	102.6	98.77	95.40	91.50	90.14	104.4	79.18	43.22	30.52	22.37	16.45	11.98	9.531	15.55	31.43	86.17	490.4	816.3	143.8	2.320	1.318	1.153	1.001	1.172	1.353	1.517	1.697	1.903	1.958	2.102	2.010	2.039	2.033	1.632	1.460	1.193	1.087	1.060	0.961	1.110	1.006	1.079	1.056	1.167	1.107	1.086	1.123	1.058	1.215	1.361
445.0	2060	712.3	333.3	379.9	444.6	524.8	563.3	494.7	369.4	252.0	207.7	197.5	197.3	197.5	191.7	181.5	177.5	165.8	162.5	145.6	124.2	106.2	100.9	103.1	102.6	102.4	103.4	102.9	98.72	95.65	90.34	83.07	88.36	93.39	57.54	33.57	24.49	17.35	12.47	9.402	8.411	10.72	22.64	133.6	657.1	717.7	22.20	1.636	1.298	1.201	1.199	1.471	1.555	1.781	2.037	2.148	2.300	2.284	2.221	2.041	1.754	1.466	1.330	1.083	1.028	0.999	1.096	0.850	1.082	1.048	1.174	1.077	1.130	1.169	1.031	1.142	1.186
450.0	1359	1518	427.8	383.1	459.6	553.1	590.9	524.0	384.2	251.8	196.8	182.8	183.1	188.7	181.8	178.3	174.1	168.2	163.6	146.3	119.7	100.8	95.76	97.83	97.05	98.06	99.62	100.4	98.14	96.41	89.64	80.79	71.93	77.91	74.85	45.78	26.90	18.78	13.36	9.832	7.656	6.731	8.253	32.79	176.8	512.8	620.2	105.8	6.422	1.206	1.292	1.531	1.621	1.813	1.949	2.165	2.335	2.380	2.283	2.117	1.865	1.579	1.324	1.103	0.898	0.999	0.944	0.978	1.051	0.984	1.135	1.113	1.085	1.124	1.133	1.180	1.309
455.0	601.2	1704	916.8	370.9	465.8	550.1	607.2	538.3	387.0	245.8	180.6	166.1	171.3	176.9	172.6	171.9	172.6	166.3	159.8	143.7	113.5	92.44	87.00	89.78	90.86	92.41	93.43	95.76	94.60	94.06	88.19	77.94	66.88	60.98	66.34	62.40	34.55	20.55	13.73	10.49	8.370	6.681	5.343	10.37	42.09	118.6	303.6	707.9	158.3	5.807	1.364	1.495	1.781	1.922	1.963	2.239	2.365	2.424	2.494	2.258	1.914	1.541	1.315	1.008	0.919	0.847	0.835	0.891	0.841	0.886	0.882	1.094	1.167	1.069	1.143	1.144	1.311
460.0	350.3	1136	1494	417.7	448.5	537.7	598.6	531.9	380.4	238.7	170.9	157.9	158.5	161.7	164.7	164.2	165.9	160.8	154.0	138.2	107.9	85.94	81.60	84.01	85.82	86.28	89.36	90.34	90.53	90.51	85.63	75.47	64.09	55.17	52.66	61.48	47.39	23.17	14.36	10.71	8.279	7.150	5.407	5.492	12.16	28.94	75.34	425.2	678.7	112.0	2.483	1.612	1.565	1.873	2.075	2.211	2.668	2.476	2.540	2.181	1.875	1.570	1.225	1.051	0.869	0.825	0.767	0.858	0.822	0.962	0.755	0.939	0.987	1.125	1.114	1.049	1.223
465.0	290.9	599.9	1747	671.5	423.3	520.5	588.6	515.1	365.9	223.4	157.7	148.8	149.6	153.7	152.9	157.6	157.9	154.0	150.2	132.6	103.4	80.78	77.48	78.33	79.65	80.86	83.24	84.86	85.84	85.19	81.80	72.27	61.34	52.24	45.83	49.35	53.30	30.75	15.66	11.14	8.467	6.572	5.500	4.557	5.522	8.835	19.05	113.1	521.6	560.4	19.34	1.832	1.628	1.868	1.839	2.240	2.273	2.345	2.356	2.147	1.808	1.490	1.285	1.041	0.786	0.697	0.740	0.828	0.725	0.845	0.763	0.894	0.907	1.049	1.022	0.998	1.225
470.0	320.1	333.5	1109	1354	468.8	480.5	539.2	474.4	335.1	205.6	141.2	133.1	131.6	137.6	137.9	141.8	143.5	140.9	135.7	119.8	91.15	71.94	68.07	67.81	71.42	73.71	74.73	77.46	78.65	77.75	74.63	67.37	58.05	49.18	40.65	36.80	41.54	38.56	22.14	11.83	8.600	6.764	5.351	4.919	4.212	4.483	6.200	27.35	137.4	387.3	480.8	103.4	6.679	1.774	1.839	2.010	2.195	2.245	2.264	1.951	1.688	1.411	1.110	0.889	0.801	0.760	0.686	0.666	0.763	0.760	0.819	0.812	0.860	0.903	0.905	0.990	1.143
475.0	360.4	263.7	461.2	1450	888.3	430.6	479.3	425.1	303.4	185.8	123.5	115.1	117.4	120.7	120.9	125.7	127.6	125.8	121.0	104.3	82.05	63.30	58.65	58.45	61.09	64.45	65.85	69.33	69.98	70.20	67.40	60.49	52.48	44.21	37.47	30.97	28.69	32.16	30.81	16.16	8.662	6.592	5.275	4.624	4.448	3.619	3.442	7.768	32.03	88.68	220.7	591.3	152.2	7.040	1.909	1.768	2.152	2.032	1.948	1.799	1.509	1.300	0.978	0.824	0.708	0.636	0.789	0.698	0.727	0.693	0.744	0.681	0.808	0.841	0.826	0.902	0.815
480.0	365.9	256.1	271.5	957.9	1388	450.1	438.3	388.8	277.3	168.4	116.3	105.7	107.4	109.8	109.4	113.9	116.1	114.0	109.3	95.62	73.21	57.89	52.44	53.51	54.88	57.70	59.80	63.69	64.29	64.38	61.12	55.45	48.61	40.99	34.41	28.13	23.94	23.69	30.00	22.66	10.37	6.892	5.477	4.727	4.670	3.826	3.011	3.713	8.625	21.26	53.87	320.0	559.0	124.7	2.924	1.805	1.968	1.887	1.836	1.829	1.480	1.235	0.977	0.740	0.642	0.581	0.631	0.567	0.667	0.583	0.674	0.653	0.713	0.765	0.786	0.818	0.793
485.0	332.8	272.6	219.5	498.8	1582	681.8	403.2	360.6	259.4	154.5	106.4	97.41	99.10	101.0	101.1	104.7	105.0	105.3	101.1	89.08	66.50	51.65	49.56	48.48	51.71	53.35	55.65	57.87	58.86	58.22	56.78	51.47	44.78	37.73	33.09	26.60	21.77	18.90	23.28	26.09	15.40	7.498	5.467	4.723	4.224	3.735	3.015	2.726	3.446	6.154	13.58	83.33	418.3	488.3	22.97	1.984	1.880	1.812	1.825	1.734	1.539	1.082	0.871	0.769	0.601	0.592	0.523	0.583	0.631	0.589	0.559	0.607	0.702	0.740	0.625	0.777	0.957
490.0	240.1	295.3	200.9	274.8	1001	1336	422.3	319.2	229.4	138.2	96.36	88.55	87.25	89.33	91.33	93.72	94.38	92.92	89.61	78.43	59.09	47.19	43.64	43.80	46.02	47.50	49.02	51.44	52.36	52.22	50.73	45.83	40.40	35.17	29.60	24.56	20.10	16.89	16.12	20.70	20.50	11.89	6.108	4.852	4.160	3.632	3.303	2.905	2.592	2.743	4.466	20.22	109.4	306.8	456.2	105.4	7.542	1.789	1.489	1.467	1.298	1.006	0.808	0.722	0.625	0.622	0.521	0.490	0.584	0.550	0.579	0.633	0.678	0.667	0.696	0.692	0.784
495.0	163.4	258.8	224.6	197.1	430.6	1455	786.9	279.4	205.1	122.9	86.73	75.59	76.85	79.05	79.59	82.12	82.12	80.36	77.60	68.74	50.39	42.10	38.32	38.24	39.73	41.06	42.58	44.91	46.24	46.33	43.77	40.97	36.26	31.19	26.80	22.10	18.77	15.22	12.93	12.73	17.77	18.54	9.047	4.881	4.213	3.485	3.232	3.044	2.717	2.228	2.369	6.039	25.87	70.41	220.4	539.9	168.8	7.078	1.507	1.364	1.188	0.950	0.753	0.633	0.627	0.478	0.500	0.432	0.460	0.532	0.523	0.604	0.583	0.575	0.573	0.643	0.702
500.0	144.8	207.2	260.0	178.3	254.9	964.1	1278	285.4	178.4	109.1	74.02	67.88	69.82	70.70	72.80	72.23	73.44	70.76	70.09	62.21	46.29	37.71	34.29	34.42	35.79	36.25	37.64	40.10	41.05	41.03	39.45	36.81	32.75	28.48	24.28	20.39	17.08	13.90	11.31	10.39	12.50	18.20	13.46	5.852	4.341	3.426	3.090	2.803	2.783	2.205	2.037	2.695	7.174	17.29	53.85	303.4	536.2	123.8	2.652	1.263	1.020	0.877	0.805	0.695	0.563	0.430	0.424	0.425	0.477	0.540	0.516	0.589	0.613	0.532	0.602	0.625	0.721
505.0	114.8	156.8	256.9	177.0	185.2	480.8	1498	373.7	159.2	100.2	68.61	60.38	62.76	63.65	62.76	63.99	65.49	64.01	61.93	53.85	40.73	33.73	30.81	30.92	31.06	32.76	33.84	36.23	36.48	37.39	35.46	33.17	29.45	25.72	21.92	18.78	15.81	12.91	10.44	9.318	9.049	13.89	16.29	9.249	4.756	3.728	2.975	2.723	2.807	2.532	1.986	1.877	3.009	5.164	13.52	79.21	380.0	457.3	24.46	1.507	1.041	0.903	0.661	0.580	0.443	0.446	0.513	0.457	0.491	0.416	0.462	0.506	0.520	0.474	0.505	0.535	0.639
510.0	105.6	114.3	184.9	207.9	159.6	245.5	955.3	1052	195.8	84.69	59.55	54.46	54.30	53.10	53.87	53.89	54.65	52.57	51.23	44.35	35.40	28.04	26.81	26.82	26.99	27.74	28.52	30.22	31.39	31.81	29.96	28.19	25.12	22.16	19.27	16.51	14.32	11.92	9.566	8.356	7.256	8.522	12.88	12.92	7.291	4.057	3.044	2.685	2.410	2.430	2.270	1.963	2.003	2.388	4.241	19.03	98.93	287.8	284.2	103.1	5.707	0.763	0.729	0.518	0.449	0.429	0.460	0.362	0.444	0.390	0.477	0.434	0.481	0.489	0.412	0.423	0.521
515.0	92.98	93.00	113.1	219.5	153.3	163.8	364.7	1307	623.3	70.64	52.33	45.13	45.57	44.58	45.09	44.45	45.34	44.16	41.63	37.06	29.90	23.53	22.48	22.49	22.20	22.91	24.26	25.49	26.26	26.09	26.00	23.50	20.60	18.98	15.97	14.32	12.31	10.51	8.458	7.350	6.128	6.251	7.469	11.91	11.12	5.611	3.034	2.600	2.232	2.126	2.041	2.111	1.770	1.738	2.061	5.382	23.34	66.00	148.8	416.4	141.9	3.805	0.685	0.581	0.525	0.403	0.362	0.357	0.435	0.382	0.418	0.373	0.493	0.385	0.348	0.432	0.422
520.0	83.55	78.91	84.68	180.9	159.9	133.0	184.1	886.2	1212	98.14	47.69	41.69	40.51	38.48	40.17	40.40	39.23	37.19	35.54	32.17	25.18	20.19	20.05	19.85	19.43	19.76	20.76	22.03	22.67	22.88	22.09	20.48	17.78	16.33	14.49	12.58	10.90	9.221	8.106	6.724	5.708	4.827	5.493	7.949	11.84	8.163	3.509	2.474	2.122	2.017	1.777	2.181	2.054	1.671	1.568	2.192	6.258	15.89	36.53	237.4	386.0	27.57	1.177	0.605	0.527	0.404	0.346	0.334	0.326	0.392	0.367	0.331	0.371	0.300	0.420	0.435	0.482
525.0	71.99	63.61	70.99	135.5	186.4	121.8	132.2	395.2	1525	231.7	41.26	37.34	36.03	34.66	34.15	35.28	34.42	32.94	31.28	28.64	22.11	18.80	17.66	17.58	17.27	17.99	19.03	18.87	20.51	20.26	19.24	17.87	16.20	14.59	12.73	10.79	9.903	8.645	6.925	5.970	5.345	4.320	4.497	5.418	9.190	10.07	5.148	2.696	2.136	1.905	1.629	1.987	2.114	1.724	1.423	1.468	2.462	4.500	9.136	62.16	281.3	227.0	21.50	0.610	0.471	0.373	0.368	0.332	0.341	0.389	0.323	0.304	0.350	0.284	0.289	0.464	0.496
530.0	56.49	56.10	56.50	84.05	177.5	130.5	101.4	160.7	960.7	921.3	81.16	32.77	30.90	29.73	29.10	29.63	28.46	27.52	26.34	23.47	18.55	15.68	15.22	14.77	14.81	15.11	15.57	16.16	16.90	17.39	16.64	15.17	13.87	12.64	10.77	9.605	8.288	7.298	6.335	5.307	4.664	4.200	3.898	4.074	5.371	8.433	7.688	3.813	2.177	1.730	1.546	1.650	1.781	1.849	1.625	1.263	1.406	1.892	2.895	14.63	73.64	199.2	248.7	89.69	2.715	0.434	0.340	0.308	0.329	0.307	0.319	0.333	0.329	0.302	0.319	0.344	0.377
535.0	53.25	50.27	49.08	60.69	120.3	159.3	90.86	93.21	298.1	1237	396.8	29.79	27.19	25.09	24.41	23.27	22.97	23.15	21.72	19.37	15.58	13.20	12.29	12.48	12.44	12.53	12.90	13.25	13.76	14.08	14.19	13.02	11.53	10.31	9.174	8.142	6.991	6.305	5.773	4.817	4.457	4.050	3.383	3.329	3.307	4.843	7.444	6.318	2.852	1.690	1.486	1.459	1.443	1.384	1.664	1.363	1.266	1.205	1.426	4.026	17.07	45.69	136.3	371.4	28.46	1.586	0.305	0.317	0.364	0.317	0.283	0.311	0.267	0.330	0.269	0.325	0.292
540.0	45.35	44.32	46.42	52.30	76.49	162.1	89.47	70.51	109.1	834.3	917.7	47.59	23.08	22.54	21.12	21.02	20.12	19.93	19.39	16.61	13.56	11.41	10.95	11.24	10.34	11.01	11.30	11.72	11.33	12.14	12.55	11.36	10.15	9.274	7.834	7.123	6.236	5.736	5.180	4.411	3.658	3.573	3.274	3.101	2.680	3.186	5.368	7.207	4.203	1.945	1.344	1.426	1.242	1.394	1.572	1.668	1.011	0.943	1.050	1.526	4.372	10.72	34.10	240.7	230.9	23.69	0.542	0.361	0.256	0.261	0.342	0.285	0.267	0.266	0.219	0.248	0.226
545.0	48.72	40.58	38.36	40.55	54.72	141.3	106.4	57.43	60.42	322.6	1235	152.0	20.07	20.80	18.21	18.57	18.07	17.03	17.21	14.60	12.20	10.02	9.787	9.603	9.290	9.476	10.27	9.633	10.86	10.49	10.52	9.792	8.919	8.069	6.906	6.308	5.665	5.274	4.352	4.037	3.322	2.936	2.898	2.632	2.558	2.440	3.427	6.245	5.453	2.740	1.401	1.294	1.149	1.197	1.235	1.698	1.350	1.003	0.939	0.989	1.554	2.939	8.189	66.12	216.6	193.2	16.47	0.357	0.308	0.266	0.278	0.350	0.253	0.236	0.270	0.268	0.290
550.0	47.10	35.41	32.50	32.71	41.70	86.19	130.2	60.27	41.15	99.43	792.1	727.4	43.84	17.12	15.54	15.48	15.33	14.45	13.87	12.26	10.33	8.534	8.429	8.155	7.642	8.112	8.314	8.340	8.984	9.199	8.709	8.468	7.622	6.936	6.017	5.359	4.800	4.342	3.889	3.455	2.980	2.752	2.500	2.509	2.238	2.080	2.260	3.681	5.264	4.145	2.022	1.198	1.078	1.077	1.110	1.217	1.480	1.234	0.808	0.848	0.804	1.119	2.354	15.30	59.73	151.5	171.5	50.29	1.545	0.367	0.320	0.292	0.266	0.257	0.246	0.271	0.263
555.0	42.54	34.08	25.30	28.64	34.29	48.81	115.0	81.68	35.01	41.72	224.5	1050	159.2	15.18	13.53	12.61	12.48	11.83	11.29	10.36	8.674	6.989	6.923	6.812	6.654	6.899	6.578	7.217	7.432	7.568	7.219	7.490	6.298	5.553	5.099	4.331	4.171	3.675	3.062	3.066	2.539	2.275	2.227	2.078	2.074	1.778	1.810	2.109	3.283	4.626	3.234	1.450	1.087	0.928	1.003	0.996	1.029	1.353	1.188	0.820	0.668	0.646	0.973	3.915	13.68	35.03	101.9	210.5	26.93	0.939	0.373	0.274	0.265	0.233	0.234	0.215	0.216
560.0	40.46	32.20	26.90	23.75	27.38	34.83	81.02	106.4	35.40	28.16	68.71	730.1	674.3	23.54	12.92	10.76	10.96	9.516	10.02	8.866	7.505	6.354	5.976	5.929	5.906	5.849	5.885	5.865	6.203	6.847	6.263	6.043	5.296	5.058	4.694	3.951	3.598	3.098	2.898	2.708	2.359	2.037	2.214	1.871	1.880	1.746	1.518	1.482	1.917	3.547	3.859	2.165	1.125	0.926	0.918	0.945	0.871	1.126	1.269	0.718	0.654	0.553	0.643	1.315	3.384	8.269	26.16	145.8	181.9	19.85	0.473	0.252	0.270	0.260	0.241	0.237	0.227
565.0	43.26	32.97	26.75	23.21	24.11	28.57	51.09	113.9	41.63	24.34	31.98	281.9	1036	96.01	11.56	9.269	10.02	8.606	8.426	7.485	6.448	5.425	5.481	5.096	4.884	4.762	5.153	5.034	5.190	5.698	5.362	4.997	4.414	4.305	4.052	3.453	3.313	2.780	2.651	2.379	2.019	1.888	1.843	1.649	1.774	1.471	1.373	1.316	1.391	2.209	3.454	3.121	1.471	0.917	0.872	0.828	0.776	0.841	1.134	1.075	0.654	0.488	0.505	0.625	1.059	2.279	6.204	41.83	170.6	137.3	9.938	0.290	0.316	0.362	0.240	0.248	0.192
570.0	37.71	28.12	24.11	19.57	21.24	22.45	31.89	86.37	72.66	23.55	23.72	82.38	711.5	541.2	23.33	7.656	7.951	7.150	7.053	6.125	5.052	4.478	4.559	4.134	4.164	4.003	4.346	4.071	4.312	4.537	4.519	3.886	3.776	3.446	3.340	2.762	2.649	2.308	2.180	1.956	1.849	1.593	1.566	1.471	1.436	1.324	1.182	1.128	1.161	1.313	2.159	3.026	2.092	1.103	0.807	0.702	0.690	0.687	0.717	0.945	0.901	0.546	0.435	0.496	0.551	0.802	1.763	9.745	48.14	120.7	118.6	15.51	0.671	0.259	0.292	0.221	0.187
575.0	36.68	27.56	19.88	17.68	18.08	17.33	22.12	45.16	98.54	35.72	23.16	37.02	204.9	843.6	110.0	6.583	6.345	5.873	5.097	4.910	4.266	3.892	3.626	3.252	3.210	3.105	3.317	3.230	3.279	3.448	3.334	3.294	3.027	2.704	2.535	2.123	2.290	1.979	1.704	1.627	1.447	1.350	1.300	1.097	1.246	1.116	1.083	0.887	0.825	0.875	1.075	1.969	2.412	1.475	0.810	0.674	0.646	0.683	0.560	0.561	0.836	0.784	0.464	0.517	0.491	0.527	0.757	2.445	11.04	28.20	82.18	126.2	20.26	0.352	0.274	0.286	0.223
580.0	38.16	29.20	20.46	15.51	15.66	16.02	18.63	26.57	87.69	55.07	26.08	29.13	65.34	603.5	524.9	10.96	5.075	4.468	4.247	4.141	3.506	3.228	3.083	2.784	2.509	2.589	2.564	2.472	2.753	2.773	2.534	2.701	2.356	2.443	2.077	2.025	1.888	1.670	1.483	1.422	1.224	1.257	0.972	1.003	0.968	0.885	0.827	0.771	0.728	0.637	0.709	1.138	2.043	1.966	0.911	0.569	0.594	0.496	0.439	0.524	0.579	0.958	0.668	0.525	0.494	0.455	0.450	0.882	2.770	6.690	21.89	98.99	99.69	10.90	0.258	0.356	0.249
585.0	39.20	30.20	24.01	15.98	14.73	15.30	16.71	19.70	63.13	83.50	29.87	30.01	35.27	238.6	863.4	52.00	4.535	4.029	3.354	3.572	2.976	2.547	2.335	2.177	2.234	2.157	2.035	2.044	2.286	2.286	2.195	2.290	2.102	1.977	1.874	1.514	1.538	1.322	1.160	1.306	1.182	1.158	0.820	0.959	0.773	0.778	0.750	0.693	0.746	0.559	0.628	0.684	1.398	1.801	1.237	0.673	0.467	0.399	0.434	0.409	0.484	0.666	0.923	0.563	0.435	0.406	0.372	0.512	0.916	1.810	5.225	30.45	105.1	69.72	3.704	0.307	0.246
590.0	45.74	33.22	22.98	15.09	12.88	12.99	13.88	16.91	36.36	92.91	48.54	32.46	30.46	71.34	599.2	338.1	10.72	3.375	2.870	2.878	2.272	2.072	1.907	1.867	1.745	1.781	1.732	1.719	1.827	1.948	1.852	1.755	1.645	1.541	1.459	1.382	1.128	1.130	0.970	1.031	0.930	0.869	0.755	0.749	0.692	0.667	0.671	0.578	0.616	0.451	0.464	0.500	0.701	1.212	1.283	1.028	0.468	0.362	0.412	0.342	0.364	0.430	0.643	0.773	0.511	0.409	0.408	0.380	0.528	0.697	1.409	7.108	31.07	70.65	51.79	10.12	0.344
595.0	39.04	36.12	24.34	17.56	11.38	10.84	14.02	14.00	23.56	65.08	78.22	36.61	31.51	33.78	168.1	557.9	73.53	3.078	2.843	1.995	1.803	1.599	1.518	1.510	1.456	1.458	1.426	1.424	1.407	1.637	1.448	1.324	1.329	1.134	1.087	1.144	0.937	0.873	0.742	0.731	0.736	0.738	0.597	0.549	0.564	0.567	0.643	0.607	0.542	0.389	0.351	0.437	0.466	0.652	1.087	1.117	0.793	0.343	0.282	0.345	0.376	0.332	0.426	0.626	0.713	0.413	0.398	0.443	0.490	0.423	0.526	1.840	7.201	17.02	42.94	64.19	10.33
600.0	40.31	36.98	24.72	15.13	11.14	10.78	12.48	13.99	21.68	45.87	93.93	45.16	32.08	23.89	47.25	405.9	317.9	5.103	2.304	1.709	1.440	1.482	1.326	1.266	1.263	1.070	1.180	1.216	1.292	1.216	1.290	1.149	1.043	0.922	1.002	0.964	0.896	0.742	0.661	0.655	0.674	0.567	0.539	0.602	0.529	0.618	0.595	0.513	0.525	0.386	0.324	0.404	0.423	0.424	0.753	1.075	0.863	0.536	0.369	0.365	0.393	0.287	0.366	0.466	0.747	0.663	0.487	0.463	0.377	0.350	0.355	0.672	1.910	3.983	11.92	55.90	35.39
605.0	42.93	37.89	26.08	15.49	12.43	12.05	14.23	15.71	22.03	33.66	90.49	61.24	34.80	24.44	20.11	164.2	518.6	30.21	2.314	1.799	1.492	1.331	1.121	1.083	1.115	0.998	1.104	1.012	1.185	1.071	1.092	1.003	0.961	1.001	0.859	0.879	0.928	0.692	0.627	0.607	0.575	0.531	0.419	0.531	0.496	0.527	0.543	0.416	0.413	0.335	0.338	0.356	0.357	0.356	0.456	0.830	0.936	0.715	0.395	0.282	0.314	0.262	0.340	0.343	0.524	0.647	0.536	0.437	0.356	0.353	0.318	0.369	0.686	1.063	2.921	18.32	52.93
610.0	51.63	34.60	25.79	17.46	13.20	11.26	13.74	18.24	24.27	33.76	70.64	87.85	46.80	28.82	19.20	48.90	372.6	226.3	5.996	1.565	1.305	1.127	1.051	0.930	0.919	0.826	0.975	0.893	0.910	0.955	0.797	0.812	0.775	0.743	0.760	0.765	0.780	0.710	0.535	0.544	0.540	0.454	0.425	0.451	0.479	0.418	0.411	0.401	0.398	0.288	0.273	0.341	0.337	0.306	0.360	0.519	0.770	0.763	0.467	0.297	0.342	0.314	0.343	0.350	0.384	0.541	0.646	0.564	0.389	0.363	0.374	0.294	0.394	0.398	0.840	4.351	16.90
615.0	50.47	43.69	33.46	16.69	15.04	14.24	16.33	20.20	26.08	34.32	52.16	96.11	62.76	33.26	22.16	24.35	112.0	382.6	52.47	1.652	1.044	1.007	0.861	0.779	0.822	0.787	0.713	0.730	0.798	0.800	0.726	0.780	0.629	0.729	0.606	0.646	0.590	0.593	0.671	0.415	0.470	0.397	0.453	0.399	0.485	0.354	0.385	0.353	0.330	0.314	0.292	0.329	0.301	0.297	0.307	0.302	0.468	0.700	0.629	0.430	0.334	0.244	0.368	0.371	0.358	0.423	0.555	0.587	0.441	0.370	0.350	0.365	0.374	0.291	0.399	1.172	4.006
620.0	44.96	40.17	34.32	19.58	16.60	15.64	17.06	20.53	25.61	34.27	46.66	81.63	76.22	36.66	24.31	18.37	36.11	279.7	205.0	2.487	1.117	1.003	0.794	0.836	0.760	0.707	0.658	0.650	0.768	0.800	0.659	0.658	0.569	0.572	0.561	0.588	0.497	0.528	0.507	0.404	0.449	0.393	0.377	0.333	0.411	0.403	0.341	0.392	0.351	0.303	0.269	0.246	0.237	0.280	0.239	0.328	0.358	0.535	0.698	0.414	0.336	0.264	0.380	0.319	0.351	0.375	0.463	0.591	0.728	0.469	0.415	0.352	0.316	0.237	0.382	0.471	1.102
625.0	40.00	39.37	33.91	21.13	15.93	14.96	16.53	22.37	24.16	35.03	45.03	63.32	87.10	41.85	24.63	16.87	18.92	118.0	343.5	16.71	1.226	0.888	0.639	0.778	0.748	0.806	0.690	0.660	0.685	0.612	0.652	0.670	0.578	0.562	0.525	0.458	0.476	0.466	0.532	0.368	0.427	0.315	0.394	0.284	0.375	0.307	0.379	0.333	0.321	0.247	0.284	0.255	0.258	0.277	0.276	0.303	0.254	0.389	0.554	0.632	0.350	0.283	0.294	0.358	0.325	0.395	0.447	0.503	0.765	0.495	0.320	0.386	0.307	0.271	0.378	0.294	0.397
630.0	47.42	45.30	33.71	23.94	15.84	16.46	17.93	20.72	25.15	33.44	41.77	52.78	77.84	53.96	26.16	17.19	15.16	34.55	251.9	134.1	2.676	0.937	0.732	0.728	0.729	0.728	0.624	0.610	0.580	0.500	0.545	0.485	0.603	0.525	0.473	0.426	0.389	0.413	0.395	0.395	0.368	0.338	0.350	0.315	0.301	0.318	0.304	0.289	0.274	0.255	0.248	0.231	0.232	0.226	0.269	0.232	0.229	0.341	0.433	0.538	0.438	0.297	0.301	0.346	0.387	0.406	0.396	0.423	0.546	0.576	0.419	0.389	0.368	0.308	0.322	0.279	0.256
635.0	46.25	44.72	35.41	24.16	17.61	18.40	17.81	21.93	24.12	30.09	41.20	47.57	57.87	64.31	28.43	17.83	14.08	14.51	72.09	261.8	36.23	0.906	0.735	0.559	0.664	0.575	0.489	0.561	0.523	0.456	0.432	0.498	0.422	0.361	0.454	0.380	0.436	0.334	0.446	0.340	0.376	0.363	0.351	0.348	0.303	0.231	0.243	0.310	0.268	0.248	0.218	0.213	0.223	0.305	0.215	0.238	0.300	0.298	0.338	0.493	0.442	0.379	0.332	0.358	0.324	0.353	0.318	0.382	0.470	0.428	0.520	0.476	0.366	0.289	0.301	0.315	0.302
640.0	45.79	45.17	35.32	22.89	18.34	17.02	18.03	21.74	24.22	29.82	38.64	47.02	50.90	63.45	35.76	18.08	14.35	10.29	19.40	202.3	134.8	1.395	0.727	0.625	0.531	0.468	0.518	0.483	0.456	0.448	0.425	0.533	0.418	0.346	0.442	0.392	0.364	0.296	0.315	0.303	0.369	0.458	0.306	0.329	0.288	0.259	0.324	0.295	0.233	0.233	0.229	0.201	0.286	0.224	0.253	0.201	0.279	0.272	0.307	0.367	0.374	0.370	0.372	0.327	0.265	0.335	0.236	0.349	0.459	0.425	0.495	0.538	0.350	0.252	0.289	0.235	0.326
645.0	48.49	48.62	46.39	22.73	17.70	16.21	19.91	22.18	23.99	33.51	40.06	46.81	48.04	59.10	42.98	18.74	14.14	9.117	7.202	86.20	230.6	11.79	0.771	0.668	0.490	0.477	0.416	0.468	0.434	0.455	0.411	0.416	0.375	0.365	0.423	0.364	0.315	0.243	0.298	0.316	0.360	0.387	0.348	0.329	0.252	0.275	0.279	0.286	0.274	0.236	0.208	0.254	0.218	0.184	0.219	0.233	0.263	0.253	0.292	0.314	0.274	0.350	0.440	0.355	0.298	0.307	0.269	0.328	0.425	0.341	0.455	0.529	0.442	0.236	0.301	0.217	0.280
650.0	59.77	69.72	48.91	25.13	17.44	16.59	21.15	21.08	24.55	32.06	42.17	46.12	47.15	49.21	50.24	20.61	14.51	8.915	4.904	24.08	221.3	51.51	0.859	0.632	0.506	0.541	0.378	0.399	0.436	0.422	0.412	0.409	0.400	0.426	0.362	0.354	0.271	0.277	0.290	0.340	0.318	0.333	0.325	0.417	0.302	0.305	0.322	0.337	0.326	0.234	0.238	0.264	0.244	0.217	0.232	0.251	0.300	0.268	0.309	0.290	0.296	0.373	0.376	0.313	0.367	0.345	0.315	0.333	0.402	0.296	0.418	0.463	0.516	0.437	0.299	0.302	0.332
