Sample:	'1
File name:	二厂20万吨出水.FD3
Run date:	'16:29:36, 05/12/2025
Operator:	Administrator
Comment:	'

Instrument
Model:	F-2700 FL Spectrophotometer
Serial number:	23B8-004
ROM Version:	4J14000 07

Instrument parameters
Measurement type:	3-D scan
Data mode:	Fluorescence
EX  Start WL:	220.0 nm
EX  End WL:	600.0 nm
EX Sampling interval:	5.0 nm
EM  Start WL:	230.0 nm
EM  End WL:	650.0 nm
EM Sampling interval:	5.0 nm
Scan speed:	12000 nm/min
EX Slit:	5.0 nm
EM Slit:	5.0 nm
PMT Voltage:	700 V
Response:	Auto 
Corrected spectra:	Off
Contour interval:	50.000

Peak integration
Integration method:	Rectangular
Sensitivity:	1
Threshold:	1.000

Peaks
No.	ApexEX/EM(nm)	Height(Data)
1	225.0/600.0	62.48
2	225.0/630.0	51.76
3	230.0/340.0	2530
4	240.0/265.0	329.8
5	250.0/275.0	433.3
6	250.0/550.0	202.3
7	255.0/285.0	462.1
8	255.0/560.0	162.0
9	260.0/290.0	513.8
10	260.0/575.0	126.1
11	265.0/295.0	711.2
12	265.0/585.0	108.7
13	270.0/300.0	986.8
14	270.0/600.0	95.92
15	275.0/310.0	1062
16	275.0/340.0	1567
17	275.0/610.0	86.20
18	280.0/625.0	74.28
19	285.0/640.0	57.00
20	460.0/345.0	7.339
21	505.0/275.0	2.836
22	510.0/280.0	3.404
23	520.0/285.0	3.472
24	525.0/290.0	3.428
25	540.0/295.0	4.886
26	545.0/300.0	5.442
27	550.0/305.0	5.782
28	570.0/345.0	7.765
29	580.0/340.0	7.576

Data points
	220.0	225.0	230.0	235.0	240.0	245.0	250.0	255.0	260.0	265.0	270.0	275.0	280.0	285.0	290.0	295.0	300.0	305.0	310.0	315.0	320.0	325.0	330.0	335.0	340.0	345.0	350.0	355.0	360.0	365.0	370.0	375.0	380.0	385.0	390.0	395.0	400.0	405.0	410.0	415.0	420.0	425.0	430.0	435.0	440.0	445.0	450.0	455.0	460.0	465.0	470.0	475.0	480.0	485.0	490.0	495.0	500.0	505.0	510.0	515.0	520.0	525.0	530.0	535.0	540.0	545.0	550.0	555.0	560.0	565.0	570.0	575.0	580.0	585.0	590.0	595.0	600.0
230.0	53.24	521.7	2017	872.1	61.91	11.62	9.208	7.979	6.756	5.937	5.258	4.645	4.500	3.574	3.140	2.667	2.160	2.054	1.905	1.796	1.605	1.383	1.421	1.330	1.224	1.233	1.115	1.068	1.032	0.997	1.009	0.958	0.848	0.770	0.767	0.701	0.742	0.712	0.641	0.617	0.627	0.653	0.665	0.579	0.560	0.541	0.766	3.381	7.282	6.273	3.023	0.923	0.501	0.496	0.442	0.456	0.491	0.481	0.537	0.467	0.502	0.474	0.498	0.505	0.491	0.518	0.519	0.513	0.468	0.514	0.488	0.490	0.494	0.566	0.532	0.530	0.545
235.0	87.70	165.6	1149	2656	611.1	88.46	9.772	8.328	8.104	6.465	5.536	4.858	4.544	3.859	3.235	2.663	2.260	2.235	1.982	1.925	1.442	1.487	1.409	1.285	1.190	1.240	1.237	0.974	1.095	0.993	1.014	0.898	0.864	0.791	0.758	0.848	0.714	0.724	0.656	0.641	0.653	0.623	0.630	0.683	0.609	0.621	0.551	1.195	2.587	5.214	8.824	9.960	5.278	1.558	0.479	0.510	0.522	0.541	0.494	0.506	0.489	0.477	0.559	0.454	0.491	0.462	0.571	0.567	0.488	0.499	0.449	0.451	0.520	0.550	0.582	0.500	0.561
240.0	118.8	107.8	350.0	2027	3264	497.6	44.30	9.300	8.250	7.185	5.732	5.351	4.652	4.096	3.320	2.911	2.315	2.196	1.944	1.667	1.618	1.544	1.483	1.341	1.127	1.288	1.209	1.079	1.175	1.046	0.983	0.936	0.881	0.830	0.730	0.717	0.645	0.677	0.628	0.654	0.661	0.626	0.639	0.643	0.686	0.764	0.600	0.753	0.998	1.681	4.544	11.37	15.44	11.96	4.556	1.089	0.538	0.534	0.476	0.436	0.503	0.442	0.496	0.528	0.469	0.520	0.479	0.531	0.500	0.455	0.488	0.512	0.491	0.555	0.530	0.574	0.542
245.0	95.40	164.9	139.5	664.6	3135	3532	373.2	18.48	9.417	7.877	5.835	5.422	4.815	4.284	3.554	2.817	2.366	2.254	1.840	1.676	1.636	1.549	1.531	1.208	1.111	1.254	1.191	1.142	1.110	1.005	0.954	0.963	0.908	0.827	0.771	0.667	0.644	0.661	0.639	0.606	0.617	0.650	0.706	0.569	0.603	0.768	0.859	0.848	0.636	0.693	1.359	3.743	9.823	17.96	19.05	11.07	3.273	0.696	0.486	0.476	0.530	0.498	0.484	0.538	0.533	0.515	0.484	0.525	0.463	0.464	0.464	0.510	0.542	0.492	0.536	0.578	0.517
250.0	60.77	125.3	199.1	240.4	962.2	3110	4100	1309	83.53	10.25	8.081	6.561	5.247	4.627	3.632	3.032	2.648	2.505	2.132	1.879	1.824	1.597	1.600	1.343	1.271	1.244	1.244	1.109	1.105	0.982	0.957	0.941	0.961	0.851	0.750	0.758	0.665	0.677	0.678	0.618	0.688	0.645	0.653	0.609	0.585	0.632	0.635	0.837	1.023	0.879	0.825	1.318	2.721	5.724	10.76	16.72	21.21	18.73	10.75	3.237	0.794	0.540	0.574	0.581	0.551	0.504	0.507	0.514	0.489	0.526	0.475	0.540	0.524	0.532	0.531	0.564	0.542
255.0	49.23	57.65	147.9	278.8	301.8	781.4	3045	6575	1771	79.65	10.03	7.788	6.537	5.718	4.187	3.177	3.043	2.434	2.185	2.153	1.830	1.857	1.662	1.479	1.521	1.328	1.182	0.978	1.115	1.169	1.003	0.939	0.924	0.949	0.713	0.681	0.696	0.730	0.673	0.654	0.652	0.714	0.624	0.607	0.609	0.679	0.534	0.613	0.701	0.861	1.334	1.377	1.331	1.691	2.831	4.330	7.820	18.88	33.44	27.75	16.01	3.517	0.718	0.593	0.544	0.556	0.578	0.483	0.511	0.557	0.556	0.553	0.558	0.525	0.551	0.608	0.573
260.0	54.91	44.87	65.29	237.9	293.2	228.0	909.1	5275	7162	1286	34.72	10.93	8.109	5.790	4.563	3.402	3.213	2.669	2.474	2.074	1.844	1.963	1.722	1.748	1.451	1.325	1.200	1.119	1.263	1.090	1.135	1.020	0.939	1.011	0.900	0.704	0.700	0.704	0.648	0.683	0.659	0.707	0.621	0.631	0.616	0.644	0.566	0.564	0.568	0.582	0.946	1.668	1.684	1.302	1.185	1.387	2.245	5.279	14.64	30.41	42.33	26.53	12.37	1.914	0.647	0.509	0.615	0.529	0.518	0.614	0.584	0.553	0.507	0.487	0.534	0.571	0.608
265.0	52.38	40.22	36.91	113.8	329.8	227.1	242.2	1746	7607	6953	218.7	16.75	10.15	7.013	5.150	3.949	3.348	2.816	2.564	1.846	1.953	1.800	1.904	1.662	1.489	1.305	1.381	1.025	1.360	1.328	1.123	1.082	0.889	0.988	0.892	0.729	0.730	0.729	0.788	0.687	0.687	0.648	0.684	0.560	0.686	0.637	0.745	0.598	0.516	0.464	0.587	1.018	1.620	1.998	1.386	0.936	1.028	1.692	3.910	9.224	23.42	42.98	49.27	23.78	7.274	1.012	0.643	0.571	0.545	0.584	0.581	0.541	0.562	0.606	0.490	0.630	0.590
270.0	69.21	57.58	45.43	55.23	166.6	337.0	255.5	440.3	2434	7114	8079	816.1	49.16	9.775	6.328	5.116	3.839	3.204	2.941	2.205	2.205	1.917	1.840	1.630	1.441	1.299	1.447	1.398	1.284	1.197	1.202	1.071	1.009	1.047	0.837	0.776	0.803	0.659	0.722	0.727	0.692	0.652	0.706	0.661	0.739	0.660	0.662	0.548	0.582	0.490	0.511	0.643	0.835	1.300	1.756	2.037	1.887	1.273	1.457	2.580	5.996	12.92	24.77	37.31	38.08	41.18	15.81	6.363	0.956	0.653	0.596	0.592	0.598	0.619	0.559	0.595	0.567
275.0	110.7	104.7	105.2	72.36	72.24	165.0	433.3	296.6	596.5	1800	6560	9999.9	1109	39.70	9.043	6.149	4.481	3.864	3.480	2.699	2.505	2.201	2.075	1.839	1.680	1.501	1.669	1.365	1.366	1.311	1.209	1.277	1.112	1.065	0.912	0.921	0.940	0.770	0.791	0.698	0.697	0.758	0.745	0.762	0.797	0.787	0.736	0.777	0.754	0.657	0.630	0.619	0.619	0.748	0.883	1.340	2.264	2.836	2.146	1.389	1.962	3.387	6.104	9.116	12.82	31.61	58.98	64.00	24.06	6.336	0.884	0.592	0.764	0.618	0.644	0.569	0.619
280.0	150.3	186.0	184.3	107.5	63.80	78.36	301.0	415.5	266.7	483.0	1980	9673	9258	720.5	19.20	8.086	6.421	4.420	4.215	2.851	2.660	2.268	2.111	1.972	1.669	1.640	1.557	1.464	1.426	1.328	1.330	1.083	1.199	1.020	1.022	0.997	0.886	0.785	0.855	0.733	0.719	0.798	0.750	0.810	0.826	0.874	0.860	0.974	0.996	0.846	0.677	0.698	0.719	0.726	0.691	0.800	1.290	2.168	3.404	2.793	1.570	1.509	2.068	2.737	3.670	8.552	22.23	49.61	70.20	33.05	18.53	3.094	0.805	0.723	0.683	0.600	0.606
285.0	197.8	261.9	266.3	144.6	75.85	58.97	140.3	462.1	344.9	233.4	563.8	3221	9999.9	6982	111.6	12.43	7.670	4.992	4.722	3.150	2.835	2.370	2.052	1.862	1.586	1.739	1.771	1.410	1.363	1.253	1.346	1.166	0.999	1.090	1.021	0.986	0.934	0.929	0.779	0.747	0.766	0.714	0.855	0.841	0.913	1.003	0.998	1.228	1.179	1.037	0.804	0.828	0.803	0.750	0.646	0.695	0.872	1.268	2.129	3.318	3.472	2.228	1.512	1.537	1.764	2.974	5.950	13.49	30.55	55.89	72.02	29.71	12.41	1.326	0.763	0.644	0.668
290.0	263.5	362.3	345.5	206.3	109.7	78.56	106.2	244.8	513.8	475.5	317.1	895.4	3352	8542	7653	428.8	25.03	7.122	5.081	3.677	3.090	2.684	2.421	2.177	1.968	1.718	1.803	1.541	1.393	1.390	1.338	1.159	1.139	1.189	1.134	1.108	1.025	1.004	0.866	0.825	0.908	0.822	0.847	0.928	1.018	1.208	1.200	1.375	1.388	1.194	1.038	0.966	0.816	0.784	0.757	0.755	0.967	0.976	1.253	1.654	2.560	3.428	3.343	2.738	1.911	1.908	2.719	4.229	8.162	15.46	29.39	41.21	53.52	46.30	19.23	9.115	1.663
295.0	322.7	450.7	413.9	272.0	150.7	119.9	142.2	193.8	328.0	711.2	658.8	492.9	970.6	2204	6455	6551	593.7	19.25	6.806	4.871	3.879	3.307	2.722	2.401	2.053	1.936	1.854	1.640	1.519	1.391	1.358	1.183	1.251	1.250	1.137	1.074	1.156	1.138	0.881	0.995	0.873	0.894	1.021	0.954	1.043	1.288	1.267	1.512	1.446	1.364	1.136	1.229	0.904	0.836	0.917	0.919	1.099	1.121	1.281	1.389	1.752	2.101	2.746	4.405	4.886	3.235	2.343	2.613	3.274	4.928	7.872	10.43	14.87	25.51	52.44	69.60	30.45
300.0	356.1	476.8	452.6	321.4	200.5	167.0	191.4	242.3	320.4	564.6	986.8	632.1	521.3	698.3	1922	7677	5542	84.89	11.01	5.837	4.527	3.928	3.147	2.646	2.197	1.945	1.838	1.650	1.837	1.472	1.404	1.278	1.144	1.231	1.242	1.214	1.221	1.093	0.909	0.986	0.930	0.924	0.910	0.948	1.154	1.276	1.325	1.635	1.598	1.472	1.238	1.376	1.080	1.015	1.121	1.085	1.274	1.236	1.416	1.581	1.813	1.967	2.188	3.270	4.794	5.442	4.191	3.183	2.757	3.065	3.321	3.780	4.617	7.023	16.77	40.00	64.79
305.0	350.8	472.4	504.3	372.8	242.1	215.7	256.9	317.3	393.8	543.2	925.9	1039	568.1	442.4	609.7	2598	8608	4286	64.21	8.054	5.952	4.392	3.378	2.967	2.326	2.088	2.012	1.855	1.767	1.575	1.485	1.393	1.116	1.285	1.337	1.182	1.246	1.095	0.963	0.984	1.004	0.949	0.853	1.020	1.093	1.528	1.414	1.819	1.719	1.497	1.288	1.460	1.364	1.284	1.115	1.438	1.584	1.651	1.743	1.924	2.093	2.284	2.293	2.891	3.635	4.802	5.782	5.283	3.989	3.232	2.822	2.564	2.607	2.961	4.894	10.67	23.69
310.0	347.9	494.5	528.1	407.5	296.6	281.9	328.4	399.6	488.7	599.9	778.7	1062	971.7	540.7	391.7	726.6	2777	6064	5212	289.3	16.60	5.469	4.101	3.399	2.664	2.337	2.154	1.851	1.814	1.598	1.526	1.334	1.223	1.272	1.247	1.128	1.182	1.157	1.042	1.020	0.986	0.940	0.976	1.073	1.108	1.430	1.552	1.841	1.932	1.535	1.421	1.593	1.508	1.547	1.371	1.611	1.789	1.955	2.135	2.358	2.533	2.626	2.794	3.117	3.577	3.733	4.499	5.361	5.618	5.400	4.142	3.150	2.717	2.372	2.591	3.736	6.453
315.0	378.7	539.3	599.9	469.5	348.9	347.2	410.8	487.2	580.1	705.3	823.2	932.6	1063	940.7	474.1	382.7	769.0	1559	4658	6459	424.5	13.30	5.439	4.161	3.229	2.794	2.276	2.081	1.902	1.819	1.616	1.384	1.362	1.403	1.422	1.188	1.229	1.140	1.052	1.004	1.020	1.048	1.018	1.028	1.248	1.444	1.630	1.947	2.050	1.713	1.618	1.627	1.590	1.788	1.760	1.777	2.145	2.415	2.370	2.574	2.965	3.071	3.402	3.553	3.947	4.141	4.191	4.443	4.826	5.498	5.959	5.499	4.164	2.862	2.699	2.686	2.921
320.0	486.7	770.7	867.3	607.8	448.3	424.8	473.9	569.5	679.7	821.1	941.2	1034	1042	1149	771.3	421.2	410.0	509.7	1420	5991	3996	62.73	8.632	5.058	3.742	2.877	2.521	2.356	1.973	1.961	1.595	1.473	1.496	1.422	1.350	1.199	1.229	1.197	1.028	1.025	1.060	1.070	1.101	1.252	1.443	1.716	1.957	2.564	2.856	2.284	1.917	2.140	1.823	1.917	2.107	2.113	2.389	2.673	2.621	2.923	3.139	3.481	3.572	3.988	4.473	4.344	4.710	5.000	5.093	5.264	5.461	6.425	6.436	4.568	3.498	2.825	2.772
325.0	648.1	1180	1305	878.0	574.1	519.8	559.3	655.9	807.5	968.4	1120	1202	1181	1154	1090	610.2	413.6	341.0	468.0	2055	6303	3182	49.06	7.334	4.563	3.557	2.691	2.674	2.025	2.105	1.756	1.705	1.460	1.410	1.380	1.237	1.276	1.242	1.084	1.074	1.097	1.150	1.173	1.415	1.654	2.289	2.727	3.806	4.449	3.818	2.903	2.697	2.346	2.267	2.332	2.540	2.619	2.891	3.109	3.236	3.443	4.133	4.448	4.776	5.222	5.358	5.560	5.636	5.809	5.916	5.615	6.096	6.557	6.928	5.845	4.084	3.374
330.0	805.2	1515	1950	1334	774.2	616.6	643.6	747.7	906.3	1089	1271	1367	1345	1216	1126	927.4	586.2	379.2	312.5	611.2	2091	4469	3977	234.1	13.47	4.670	3.416	2.864	2.409	2.186	1.941	1.639	1.643	1.571	1.341	1.288	1.296	1.242	1.184	1.169	1.085	1.247	1.266	1.546	1.937	2.731	3.455	4.916	5.958	5.051	4.071	3.845	3.088	2.697	2.560	2.757	2.902	3.003	3.428	3.556	3.923	4.447	4.740	5.407	5.721	5.779	6.180	6.408	6.570	6.672	6.502	6.348	6.570	6.501	6.535	6.312	5.443
335.0	878.6	1752	2318	1617	964.6	749.7	728.0	817.8	988.8	1193	1377	1494	1490	1339	1159	996.0	882.8	531.4	355.8	346.2	593.3	1162	3668	5123	355.6	12.02	4.974	3.532	2.852	2.466	2.189	1.958	1.618	1.618	1.470	1.218	1.342	1.246	1.213	1.188	1.126	1.226	1.447	1.714	1.962	3.028	3.855	5.570	6.719	6.032	4.794	4.763	3.903	3.435	3.067	3.211	3.409	3.511	3.560	3.764	4.494	4.714	5.289	5.677	6.160	6.290	6.865	6.741	7.134	7.182	6.946	6.652	6.847	6.848	6.579	6.162	5.975
340.0	934.3	1876	2530	1795	1099	848.6	784.1	867.5	1040	1240	1445	1567	1564	1427	1220	995.7	941.8	735.2	433.9	332.2	298.6	362.5	1104	4733	3331	54.47	7.903	4.394	3.377	2.753	2.332	2.031	1.660	1.588	1.609	1.376	1.344	1.300	1.263	1.189	1.249	1.256	1.379	1.697	2.054	3.154	4.053	5.773	7.242	6.870	5.298	5.131	4.366	3.608	3.539	3.229	3.773	3.517	4.000	4.188	4.653	5.003	5.457	6.037	6.222	6.783	6.797	7.420	7.464	7.465	7.495	7.194	7.576	6.982	6.758	6.271	5.776
345.0	889.1	1848	2485	1882	1189	916.5	829.9	910.8	1071	1250	1436	1562	1560	1445	1237	1009	881.3	841.8	567.7	370.5	271.9	218.0	338.3	1580	4936	2776	45.03	6.286	4.072	3.077	2.424	2.072	1.966	1.614	1.646	1.315	1.356	1.357	1.253	1.338	1.219	1.275	1.444	1.769	2.338	3.341	3.987	5.828	7.339	6.698	5.456	5.549	4.644	3.985	3.684	3.514	3.793	3.771	3.993	4.286	4.609	5.095	5.438	5.710	6.549	6.700	6.840	7.232	7.367	7.494	7.765	7.493	7.368	6.967	6.607	6.363	5.859
350.0	862.0	1667	2284	1853	1266	974.2	888.6	929.3	1063	1238	1402	1502	1516	1417	1241	1029	869.5	780.7	707.9	514.5	332.6	243.4	216.1	456.0	1605	3486	3210	213.0	14.15	4.219	2.944	2.288	2.112	1.741	1.621	1.458	1.375	1.332	1.384	1.212	1.185	1.183	1.379	1.685	1.876	2.898	3.727	5.241	6.349	6.262	5.385	5.610	4.661	4.391	4.094	3.889	4.034	3.900	4.248	4.390	4.571	5.065	5.476	5.752	6.288	6.460	6.744	7.074	7.053	7.178	7.549	7.329	7.459	7.062	6.585	6.500	6.062
355.0	789.6	1485	2012	1781	1284	1058	957.9	988.2	1089	1244	1375	1462	1471	1389	1246	1057	917.6	785.7	704.8	685.9	473.7	320.2	248.4	253.3	461.5	896.4	2643	3218	342.7	13.31	4.034	3.064	2.122	1.753	1.760	1.525	1.390	1.300	1.343	1.179	1.245	1.193	1.314	1.540	1.826	2.696	3.413	4.698	5.665	5.647	5.150	5.497	4.874	4.540	4.273	4.047	4.236	4.250	4.311	4.477	4.968	4.893	5.336	5.630	6.407	6.343	6.371	6.757	7.003	7.367	7.276	7.194	6.948	7.189	6.631	6.440	6.208
360.0	728.9	1350	1867	1725	1324	1119	1017	1040	1120	1252	1369	1441	1438	1358	1236	1068	944.9	825.0	716.1	703.3	606.9	416.1	304.0	250.6	239.4	289.7	769.6	3221	3069	276.4	7.932	3.754	2.557	1.997	1.890	1.671	1.451	1.276	1.231	1.326	1.090	1.116	1.258	1.583	1.837	2.534	3.162	4.673	5.238	5.112	4.901	5.433	4.815	4.793	4.524	4.174	4.247	4.638	4.675	4.846	4.944	5.401	5.345	5.697	6.172	6.296	6.330	6.564	6.877	6.991	6.939	7.202	7.118	7.019	6.808	6.690	6.675
365.0	698.1	1211	1736	1630	1338	1162	1059	1070	1142	1270	1357	1410	1402	1334	1226	1079	965.2	862.2	759.6	698.3	682.1	549.7	379.7	300.0	232.4	182.8	249.3	1039	3795	2697	45.66	5.694	3.140	2.323	2.072	1.691	1.461	1.353	1.356	1.269	1.209	1.200	1.301	1.375	1.740	2.433	2.890	4.042	4.768	4.645	4.643	4.966	5.088	4.624	4.565	4.363	4.561	4.771	4.677	5.081	5.159	5.406	5.745	5.736	5.975	6.132	6.064	6.273	6.708	7.101	6.747	6.993	6.994	6.831	6.974	6.564	6.821
370.0	655.4	1141	1580	1529	1363	1199	1106	1105	1171	1280	1352	1371	1357	1292	1207	1084	989.1	904.4	820.6	746.7	694.9	665.8	538.7	390.9	295.4	214.7	175.1	310.1	1170	2847	2879	712.0	14.46	3.250	2.371	1.969	1.555	1.527	1.390	1.250	1.330	1.282	1.326	1.398	1.744	2.144	2.654	3.585	4.129	4.441	4.363	5.095	5.090	4.730	4.895	4.557	4.814	4.843	4.769	5.088	5.144	5.368	5.799	5.864	5.933	6.160	6.105	6.551	6.481	6.585	6.553	6.746	6.745	6.948	6.656	6.620	6.524
375.0	601.9	1039	1449	1476	1368	1251	1158	1146	1203	1275	1337	1342	1324	1263	1181	1085	1008	938.7	873.2	811.2	744.0	683.3	666.0	519.6	383.1	283.1	210.3	187.4	339.9	719.2	2064	3535	323.6	14.38	3.507	2.352	1.917	1.664	1.422	1.275	1.356	1.161	1.257	1.407	1.695	2.116	2.652	3.374	3.886	4.114	4.237	5.294	5.004	5.039	4.915	4.750	4.968	5.036	4.913	5.052	5.303	5.730	5.572	6.057	6.050	6.085	6.120	6.304	6.136	6.159	6.440	6.061	6.635	6.545	6.573	6.711	6.756
380.0	566.1	956.9	1370	1426	1369	1254	1191	1161	1212	1261	1317	1318	1293	1237	1155	1075	1020	960.4	904.4	851.4	792.0	721.9	685.2	644.0	473.0	343.5	256.0	193.1	181.9	233.5	586.2	2632	2692	254.4	7.427	3.274	2.240	1.872	1.471	1.459	1.343	1.306	1.248	1.463	1.582	2.067	2.313	3.231	3.698	3.865	4.077	4.776	4.873	5.138	5.010	4.964	5.137	5.230	4.892	5.299	5.325	5.691	5.581	5.985	5.876	5.972	6.027	5.966	6.221	6.259	6.414	6.414	6.347	6.422	6.449	6.234	6.425
385.0	544.3	936.3	1300	1414	1376	1295	1193	1188	1200	1272	1303	1303	1263	1205	1137	1058	1015	960.8	924.1	877.3	822.7	763.1	703.7	679.7	581.4	414.8	306.8	229.9	175.8	148.4	195.5	788.6	2730	2289	39.20	5.246	2.771	2.163	1.609	1.388	1.233	1.220	1.406	1.412	1.619	1.969	2.322	3.136	3.593	3.558	3.811	5.002	4.918	5.130	5.064	4.922	5.056	5.108	5.151	5.096	5.344	5.210	5.442	5.728	6.109	6.107	6.134	6.008	5.836	6.109	6.398	6.323	6.356	6.600	6.509	6.287	6.258
390.0	551.8	873.9	1221	1353	1353	1301	1219	1182	1201	1249	1264	1257	1222	1168	1103	1032	997.3	958.1	933.6	897.1	859.7	803.4	747.5	691.1	644.4	533.3	395.0	296.4	227.7	173.3	143.1	243.2	794.3	1949	2070	612.3	13.90	3.242	2.175	1.651	1.332	1.315	1.410	1.407	1.650	1.841	2.186	2.908	3.261	3.595	3.889	4.814	4.697	5.093	5.111	4.927	5.008	5.024	5.212	5.259	5.232	5.417	5.414	5.828	5.779	5.845	5.864	5.904	5.885	6.049	6.014	6.320	6.378	6.413	6.257	6.214	6.342
395.0	519.6	826.3	1142	1324	1348	1287	1230	1185	1194	1226	1219	1223	1184	1122	1067	1003	971.5	949.6	930.5	904.0	878.5	832.0	787.3	723.1	659.3	611.4	516.5	382.8	294.3	230.9	175.9	153.9	246.0	491.2	1208	2375	281.3	16.54	3.239	2.022	1.700	1.568	1.438	1.477	1.671	1.966	2.198	2.815	3.161	3.441	3.591	4.676	4.614	5.156	5.042	5.184	5.390	5.164	5.248	5.338	5.321	5.442	5.426	5.641	5.498	5.808	5.584	5.864	5.559	5.717	5.758	5.900	6.030	6.120	6.210	6.292	6.244
400.0	505.8	805.8	1111	1277	1349	1306	1244	1184	1198	1190	1202	1193	1150	1103	1047	977.2	943.1	923.1	918.2	904.2	876.3	851.2	810.0	750.0	685.9	620.8	580.2	456.5	348.2	278.5	213.0	161.4	143.4	170.2	338.0	1525	2170	238.3	9.602	2.810	1.974	1.443	1.509	1.549	1.740	2.050	2.125	2.758	3.244	3.248	3.638	4.678	4.746	5.059	4.952	4.980	5.350	5.210	5.066	5.539	5.361	5.393	5.619	5.526	5.401	5.732	5.446	5.510	5.723	5.593	5.622	5.539	6.105	5.879	5.796	6.170	6.197
405.0	476.8	808.8	1073	1245	1329	1274	1223	1189	1170	1175	1177	1159	1122	1076	1006	952.6	921.0	898.0	891.6	894.5	869.0	852.7	814.4	763.1	705.6	632.0	591.0	532.5	408.1	322.6	252.3	190.1	142.4	114.5	128.7	432.8	1689	1837	181.7	5.340	2.619	1.784	1.611	1.558	1.687	1.929	2.170	2.767	3.113	3.322	3.606	4.677	4.680	4.800	4.808	4.802	5.054	4.864	5.072	5.364	5.193	5.360	5.648	5.362	5.178	5.445	5.561	5.345	5.504	5.497	5.387	5.571	5.799	5.735	5.709	5.894	6.135
410.0	480.6	761.4	1057	1229	1292	1252	1213	1181	1155	1149	1152	1128	1083	1027	971.8	916.5	879.2	862.8	857.4	856.1	848.7	836.3	810.3	772.3	725.0	654.6	594.1	559.3	494.1	391.1	302.4	233.3	174.0	129.7	103.6	147.8	471.2	1268	1537	520.6	13.80	2.744	2.014	1.663	1.812	2.019	2.099	2.791	3.048	3.045	3.548	4.480	4.707	4.759	4.851	4.833	5.016	5.137	5.011	5.239	5.309	5.187	5.347	5.076	5.231	5.382	5.300	5.222	5.334	5.525	5.532	5.457	5.612	5.686	5.392	5.610	5.558
415.0	457.1	750.0	1019	1185	1236	1241	1183	1163	1132	1127	1112	1083	1034	979.1	923.2	870.2	831.7	819.8	813.9	813.9	809.2	810.1	788.1	767.4	726.2	667.8	606.4	555.1	528.7	470.1	358.4	275.2	211.4	158.6	118.2	101.9	152.0	316.6	741.0	1701	259.5	16.67	2.900	2.010	1.883	2.123	2.214	2.661	2.960	3.069	3.255	4.438	4.459	4.677	4.849	4.704	4.999	5.037	4.942	5.165	5.217	5.149	5.207	5.043	5.135	5.125	5.059	5.209	5.084	5.095	5.450	5.338	5.158	5.573	5.206	5.469	5.439
420.0	456.2	735.5	1018	1159	1198	1207	1156	1144	1122	1095	1075	1041	1003	938.5	882.2	828.1	796.9	781.0	779.5	778.4	776.3	780.4	769.7	748.9	717.2	669.9	613.6	559.4	524.6	498.5	409.8	305.7	236.4	181.7	136.9	101.7	90.00	108.2	201.3	953.9	1549	224.7	8.905	2.694	1.990	2.085	2.327	2.709	2.845	3.009	3.174	4.341	4.466	4.767	4.892	4.719	5.186	4.670	5.045	5.075	5.019	4.922	5.092	5.433	5.096	5.182	4.865	4.912	4.738	4.707	5.194	5.124	5.283	5.214	5.089	5.352	5.278
425.0	444.1	681.7	982.4	1130	1182	1195	1157	1124	1102	1064	1053	1011	958.4	906.3	851.1	792.3	768.6	745.5	747.0	744.2	746.6	748.1	741.3	726.6	702.8	658.8	609.3	567.2	524.3	493.5	446.5	340.8	258.6	202.8	153.1	114.5	86.80	70.39	76.24	259.5	1086	1364	172.4	4.739	2.617	2.270	2.302	2.505	3.050	2.830	3.180	4.285	4.425	4.745	4.807	4.517	4.898	4.792	4.853	4.910	5.002	4.661	5.110	4.925	5.230	5.239	4.892	5.024	4.672	4.639	4.790	5.088	4.812	5.093	4.608	5.142	5.300
430.0	522.6	659.1	925.1	1079	1155	1166	1132	1108	1075	1047	1025	983.3	928.1	869.8	805.9	749.9	723.4	707.9	701.5	704.0	704.0	708.5	705.8	700.0	676.4	645.7	605.3	570.5	530.8	490.2	450.8	387.5	296.9	227.8	176.9	135.2	103.3	75.13	58.67	86.64	292.5	854.7	1154	424.5	13.28	3.035	2.577	2.658	2.919	2.887	3.114	3.956	4.332	4.557	4.526	4.476	4.843	5.045	4.959	4.743	4.662	4.805	4.921	4.848	4.973	4.869	4.630	4.830	4.699	4.669	4.806	4.741	4.551	4.773	4.565	4.810	5.040
435.0	727.1	640.1	894.9	1058	1126	1144	1120	1089	1062	1022	1004	949.8	887.8	827.8	765.2	711.2	684.2	669.8	660.6	660.3	665.8	667.9	669.9	670.4	650.7	627.6	594.5	566.2	530.5	490.9	445.3	399.7	340.7	260.4	199.9	157.8	121.6	88.42	66.53	56.97	92.56	212.1	535.0	1340	243.6	16.74	3.450	2.904	2.950	2.812	3.142	3.812	4.202	4.274	4.415	4.433	4.815	4.754	4.915	4.758	4.604	4.866	4.819	4.510	4.848	4.683	4.544	4.572	4.556	4.537	4.721	4.526	4.501	4.488	4.416	4.769	4.629
440.0	821.4	762.3	854.3	1037	1089	1118	1105	1059	1038	1003	996.4	920.3	859.5	799.7	734.6	686.9	655.0	640.7	635.7	625.1	633.2	633.6	637.4	639.0	627.9	606.0	581.8	556.3	528.6	489.2	442.0	391.3	351.4	288.4	217.0	172.1	134.0	102.2	76.27	58.68	53.07	72.28	145.3	752.1	1310	212.2	9.336	3.541	3.223	2.809	2.988	3.751	4.079	4.225	4.125	4.337	4.781	4.593	4.884	4.693	4.604	4.712	4.789	4.675	4.760	4.661	4.438	4.487	3.970	4.403	4.547	4.154	4.379	4.327	4.434	4.637	4.587
445.0	757.8	1007	838.4	984.5	1062	1067	1079	1037	1007	975.4	951.6	898.2	831.1	770.2	711.7	660.6	627.2	610.3	599.7	595.9	598.4	601.3	605.2	612.1	600.7	583.0	561.0	542.0	516.1	484.7	438.3	386.3	343.7	305.9	235.8	185.6	146.7	112.7	87.09	67.37	53.56	46.37	55.24	207.1	932.2	1191	150.1	5.713	3.394	2.863	2.970	4.027	3.937	3.937	4.195	4.136	4.729	4.629	4.777	4.581	4.781	4.664	4.716	4.406	4.517	4.577	4.307	4.383	4.327	4.223	4.471	4.336	4.387	4.104	4.187	4.249	4.596
450.0	559.1	1261	1010	920.8	1008	1021	1022	1003	962.5	935.0	907.0	846.2	784.0	722.5	668.2	618.7	586.2	569.5	554.7	551.3	546.9	553.3	559.0	562.7	553.6	544.7	527.2	508.3	494.0	465.0	428.5	379.0	331.7	296.7	257.8	204.5	159.7	127.0	102.2	81.05	64.23	50.56	42.48	68.93	251.8	747.9	1018	366.9	12.06	3.407	3.108	3.991	3.962	3.908	4.026	3.973	4.609	4.636	4.701	4.692	4.401	4.329	4.669	4.393	4.198	4.424	4.118	4.181	4.315	4.100	4.326	4.020	4.123	4.004	3.892	4.014	4.137
455.0	387.6	1180	1573	904.5	958.0	946.6	967.7	941.2	917.8	878.8	846.5	797.2	732.2	671.5	613.4	566.0	533.1	514.1	503.4	500.6	496.6	497.3	504.9	509.4	503.7	498.9	485.2	473.5	456.7	439.9	409.4	365.4	319.6	280.3	254.3	225.7	176.0	137.7	112.9	93.80	75.67	60.64	47.39	43.93	76.41	182.5	438.9	1094	200.3	13.38	3.597	4.020	3.573	3.705	4.001	3.850	4.253	4.085	4.403	4.310	4.168	4.464	4.222	4.148	4.280	3.827	4.002	3.799	4.024	3.926	3.903	3.724	3.743	3.882	3.574	3.747	3.935
460.0	310.2	883.5	2029	1100	879.9	910.8	900.6	889.2	876.6	844.7	807.7	752.2	692.2	630.4	571.7	526.8	497.3	475.9	467.9	459.0	456.5	459.9	464.4	466.6	464.9	463.6	449.0	443.2	429.0	417.5	390.4	349.9	307.8	270.5	241.3	224.2	188.3	146.1	120.9	101.2	83.57	68.07	52.89	41.05	40.50	57.01	115.1	582.9	1018	160.4	8.891	4.158	3.992	3.816	3.700	3.762	3.989	4.251	4.324	4.071	4.121	3.962	3.885	3.862	3.999	3.830	3.866	3.884	3.493	3.589	3.422	3.323	3.189	3.663	3.352	3.511	3.622
465.0	287.8	589.4	1949	1678	839.2	856.9	855.8	845.3	825.7	791.9	758.6	709.4	650.5	593.4	540.5	492.0	461.8	442.8	433.8	427.2	421.5	424.7	426.5	429.5	431.3	426.2	417.6	411.6	402.0	389.8	367.0	333.2	296.9	260.0	232.4	211.9	192.5	156.3	124.7	105.8	88.37	73.07	57.64	44.05	35.34	30.75	39.34	155.9	719.6	866.8	129.4	5.799	3.819	3.659	3.485	3.699	3.796	4.125	4.287	3.969	3.964	3.731	3.678	3.793	3.714	3.741	3.544	3.544	3.342	3.431	3.528	3.292	3.067	3.455	3.444	3.427	3.436
470.0	266.6	434.6	1295	2460	1103	775.3	795.1	776.7	758.7	729.4	694.8	649.0	594.4	538.2	489.1	444.0	416.4	396.5	387.6	378.0	375.2	375.8	378.0	382.6	383.2	377.8	373.4	368.1	363.8	354.7	335.0	308.2	277.3	244.7	219.6	194.7	180.6	160.2	131.6	108.6	91.73	75.87	60.28	47.22	36.43	27.71	24.81	46.47	190.5	537.1	690.8	275.7	11.76	3.887	3.573	3.572	3.534	3.741	3.670	3.597	3.846	3.524	3.588	3.392	3.616	3.350	3.306	3.170	3.180	3.216	3.238	3.210	3.150	3.019	3.062	2.862	3.294
475.0	248.5	364.8	717.4	2186	2069	729.2	715.3	703.6	693.1	659.5	632.3	586.5	534.6	487.1	438.7	399.6	374.8	352.8	343.4	332.3	327.4	330.5	330.7	336.0	335.1	333.0	330.9	326.0	324.4	319.0	305.3	279.4	253.4	229.4	201.4	182.6	163.0	151.8	137.3	110.8	92.99	76.29	62.35	48.92	38.54	29.12	23.06	23.72	52.56	128.2	284.8	721.3	196.1	13.84	3.765	3.620	3.540	3.493	3.328	3.036	3.386	3.325	3.179	3.082	3.366	3.027	3.179	2.977	2.916	2.929	2.795	3.118	2.874	2.842	2.851	2.871	2.906
480.0	241.2	353.7	527.3	1458	2814	930.7	658.1	655.1	644.7	609.3	587.5	549.6	501.0	447.5	408.0	368.8	342.9	323.4	312.9	305.9	298.9	297.4	301.8	303.7	308.5	303.7	301.0	296.7	297.2	293.4	280.5	260.3	239.2	214.4	192.2	171.5	154.6	140.7	134.4	116.7	94.33	76.31	63.62	50.16	40.62	30.59	24.11	20.24	22.69	37.33	73.75	370.3	709.2	169.9	7.304	3.723	3.465	3.326	3.220	3.060	3.161	3.215	2.947	2.901	3.009	2.841	2.889	2.767	2.826	2.821	2.651	2.637	2.689	2.679	2.577	2.655	2.736
485.0	219.1	336.2	451.8	860.3	2790	1619	615.1	610.1	596.7	575.9	548.9	509.0	469.6	421.5	378.2	347.7	320.0	303.1	294.0	283.4	275.6	273.6	278.5	278.4	281.0	281.0	276.1	276.2	278.1	273.0	261.9	246.0	224.5	202.2	182.5	166.0	148.6	134.1	126.3	117.0	95.85	77.64	63.19	51.14	41.63	33.32	25.84	20.61	17.52	18.55	25.29	100.9	494.1	669.3	28.41	5.077	3.690	3.058	3.242	3.011	2.828	3.005	2.733	2.898	2.967	2.930	2.703	2.640	2.650	2.644	2.669	2.498	2.521	2.695	2.524	2.485	2.671
490.0	191.9	326.8	421.7	565.7	1686	2646	837.1	570.8	550.3	533.5	505.4	476.7	430.6	386.2	347.2	314.6	288.6	272.3	264.4	258.4	247.8	247.6	249.5	251.2	253.8	251.8	248.7	249.1	250.7	248.4	240.2	224.9	205.7	188.0	171.0	156.3	141.3	126.5	116.6	110.4	98.67	79.86	64.07	52.71	42.68	34.58	28.25	22.97	18.35	15.86	15.65	31.48	132.3	395.4	561.8	241.4	12.42	3.605	3.216	3.047	3.012	2.940	2.715	2.934	2.757	2.713	2.410	2.456	2.423	2.404	2.547	2.411	2.393	2.419	2.400	2.404	2.291
495.0	169.1	306.8	402.7	446.5	793.1	2472	1792	522.9	496.1	484.3	457.9	429.9	390.5	350.2	311.8	284.3	261.0	244.7	235.8	227.6	221.0	219.1	220.6	221.4	222.1	221.9	220.1	218.6	223.1	219.6	213.9	201.1	186.1	170.9	155.0	142.9	131.8	119.1	107.0	98.99	92.77	83.69	65.11	52.72	43.05	35.89	29.73	24.58	20.52	16.92	15.12	17.27	38.47	96.66	260.4	663.8	213.7	14.23	3.645	3.125	2.906	2.764	2.654	2.724	2.484	2.447	2.339	2.316	2.345	2.280	2.145	2.112	2.235	2.168	2.221	2.116	2.091
500.0	144.5	267.9	394.1	404.4	511.6	1611	2717	626.3	458.4	447.1	421.1	394.0	362.4	321.6	290.5	258.7	238.7	225.4	214.9	206.2	201.4	197.0	200.6	200.8	197.9	199.8	197.2	199.0	199.2	199.5	197.3	182.6	172.1	157.0	144.2	133.8	122.2	111.3	102.6	91.52	85.21	81.39	67.76	53.76	43.20	36.16	30.01	25.77	22.14	18.73	15.87	14.77	18.52	29.94	69.47	342.1	671.6	177.2	7.809	3.107	2.849	2.623	2.443	2.414	2.410	2.304	2.349	2.245	2.289	2.215	2.065	2.071	2.213	1.970	2.247	1.884	1.954
505.0	146.7	225.5	383.5	389.8	409.8	862.3	2946	1165	420.9	407.6	392.2	357.6	333.6	298.9	265.5	234.6	218.6	206.2	194.9	188.1	184.8	179.6	181.8	182.8	181.4	179.4	178.0	181.1	181.3	181.5	178.0	168.0	157.8	145.6	133.5	124.7	114.4	102.8	95.44	85.76	78.64	74.96	67.25	54.52	43.13	35.65	29.96	25.92	22.24	19.65	16.80	14.94	14.75	16.50	23.65	93.38	440.7	608.0	31.10	4.319	2.899	2.505	2.320	2.206	2.251	2.133	2.042	2.181	2.131	2.025	1.946	1.821	2.063	1.848	1.993	1.877	1.964
510.0	127.2	199.4	314.6	382.3	357.1	476.8	1834	2397	536.0	359.3	345.7	315.3	294.1	263.1	231.9	211.0	192.4	181.5	171.2	165.4	160.4	157.0	156.9	156.9	155.8	155.7	155.9	156.1	159.0	159.2	156.4	147.7	138.6	128.2	119.7	110.4	102.3	94.53	86.58	78.30	71.05	65.27	61.69	54.56	43.12	34.80	30.05	25.89	21.99	19.22	17.26	15.64	14.01	13.45	14.22	28.89	117.0	346.6	454.2	127.9	11.06	2.624	2.341	2.246	2.105	2.153	1.937	1.900	1.882	1.716	1.943	1.630	1.871	1.663	1.746	1.749	1.806
515.0	119.4	169.0	245.3	354.5	337.2	341.3	735.2	2694	1332	326.8	300.8	281.8	257.8	226.0	202.8	180.5	166.8	158.8	149.6	142.6	138.5	137.4	137.0	134.1	134.3	135.2	133.8	133.7	135.7	138.3	134.7	127.7	118.7	111.6	104.6	97.85	90.68	84.17	77.10	70.56	63.42	57.13	52.69	49.92	44.41	35.15	28.85	24.66	21.14	18.48	17.35	15.94	13.96	12.96	12.37	14.68	32.90	83.38	192.2	484.7	200.9	11.81	2.365	2.269	2.080	1.846	1.809	1.635	1.731	1.619	1.673	1.509	1.570	1.537	1.474	1.543	1.549
520.0	110.8	152.3	202.0	320.8	325.3	293.5	391.0	1816	2404	384.0	274.6	250.6	228.5	204.1	182.4	158.1	148.7	139.8	133.1	129.3	125.2	121.8	121.6	120.7	119.6	118.5	119.6	117.5	120.9	123.3	120.5	114.0	106.1	100.4	93.62	87.52	82.06	75.15	70.36	64.75	58.96	52.48	46.48	44.70	42.92	35.70	28.25	23.81	20.30	18.15	16.68	15.72	13.79	12.82	11.19	11.12	13.88	24.19	49.45	243.0	488.7	156.0	6.182	2.216	2.119	1.675	1.697	1.633	1.645	1.532	1.592	1.482	1.412	1.371	1.463	1.401	1.578
525.0	110.2	144.3	183.2	262.5	320.9	273.0	282.1	876.1	3026	791.3	250.6	231.2	205.6	183.3	162.8	144.4	134.8	126.9	117.7	114.7	110.4	108.6	107.4	106.7	106.2	106.9	105.2	105.4	108.7	109.2	106.4	103.0	95.18	91.47	83.13	78.93	74.05	69.23	64.52	59.01	52.86	47.64	42.39	39.30	39.09	34.96	27.70	23.41	19.96	18.05	15.84	14.52	13.52	12.55	10.82	10.11	9.593	10.90	15.75	63.82	297.0	437.8	31.30	3.348	2.050	1.672	1.550	1.555	1.529	1.439	1.382	1.409	1.346	1.453	1.387	1.352	1.386
530.0	96.47	134.9	164.5	204.5	286.0	260.0	234.3	386.2	1996	2162	329.1	201.1	181.2	160.7	141.5	126.9	117.0	109.2	104.0	99.77	95.28	93.70	92.33	92.03	91.71	90.45	90.25	90.72	93.24	94.25	91.95	88.54	83.07	78.88	73.39	68.59	64.18	60.00	56.39	52.40	47.78	42.43	38.37	34.95	32.48	31.41	28.12	22.74	18.76	16.50	14.81	13.52	12.36	12.02	10.77	9.244	8.333	7.694	8.016	18.02	76.37	233.2	271.9	124.4	10.34	1.810	1.576	1.499	1.354	1.512	1.407	1.308	1.348	1.396	1.237	1.253	1.269
535.0	84.23	108.0	140.1	168.4	221.7	263.2	204.5	233.8	714.1	2788	991.9	174.7	157.5	137.1	123.4	108.2	100.2	92.64	88.96	84.65	80.78	79.87	77.56	78.31	76.82	75.82	77.32	75.79	78.69	78.03	77.67	75.24	71.37	65.73	62.52	59.05	55.35	51.62	48.73	45.85	41.41	37.10	34.01	30.50	27.79	25.45	26.07	22.81	17.67	15.03	13.84	12.58	11.35	10.90	10.12	9.363	7.945	6.732	6.098	7.756	20.16	54.88	113.5	344.1	181.2	11.10	1.866	1.418	1.280	1.346	1.366	1.348	1.255	1.162	1.118	1.217	1.221
540.0	80.44	100.5	125.7	146.1	171.9	240.6	194.0	184.5	298.4	1924	1911	201.2	138.4	122.9	108.6	94.60	87.57	82.16	77.46	73.60	71.12	69.37	68.33	70.06	67.53	66.70	66.31	66.42	68.16	68.21	67.84	65.58	62.59	57.92	54.28	51.61	48.64	46.44	42.45	40.13	37.35	33.87	30.21	27.48	24.29	22.12	22.39	21.92	17.51	14.33	12.15	11.72	10.87	10.07	9.221	8.740	7.352	6.445	5.400	4.972	7.401	15.07	28.76	162.1	355.0	130.0	5.294	1.455	1.328	1.254	1.315	1.244	1.121	1.007	1.044	1.112	1.142
545.0	73.68	87.75	110.9	125.4	147.6	206.3	201.1	161.6	186.4	853.9	2829	465.8	124.9	108.1	93.92	85.78	76.28	72.42	68.70	66.72	63.31	61.08	59.87	60.84	58.57	58.36	58.71	58.13	60.09	59.69	59.57	57.05	55.10	50.93	48.70	45.92	43.02	41.28	37.99	35.78	32.85	30.24	27.40	24.50	21.96	20.41	19.43	19.76	17.64	14.00	11.70	10.69	10.34	9.172	8.923	8.484	7.126	6.281	5.527	4.493	4.747	5.881	8.964	41.23	198.5	320.9	31.27	2.508	1.341	1.245	1.133	1.178	0.942	1.072	1.128	1.046	1.080
550.0	75.99	80.31	104.4	113.6	120.5	147.8	202.3	146.9	139.9	306.5	1884	1664	146.0	90.48	80.04	72.46	65.66	59.99	56.96	54.94	52.49	49.95	49.63	49.80	48.71	48.78	48.55	47.89	49.42	50.05	48.83	47.80	45.27	42.59	40.85	38.31	35.87	34.88	31.82	30.35	27.67	25.69	23.07	20.99	18.63	17.60	16.12	15.67	15.42	13.60	11.19	9.518	8.756	8.197	7.714	7.362	6.568	5.982	4.933	4.138	3.807	3.972	4.263	11.15	49.79	154.8	212.0	109.0	9.790	1.247	1.224	1.064	0.962	1.030	0.967	0.971	1.009
555.0	71.84	82.64	91.99	97.73	96.22	107.3	165.0	149.3	116.4	148.2	610.6	2421	581.1	75.26	65.48	58.01	51.18	48.82	47.27	44.71	42.23	40.96	40.05	40.25	39.19	39.46	39.44	39.29	39.89	40.59	39.88	38.04	36.81	34.68	33.06	30.69	29.22	28.04	26.43	24.53	22.20	21.12	18.63	16.97	16.24	14.66	13.79	12.56	12.04	12.08	10.40	8.260	7.566	6.985	6.421	6.405	5.579	5.491	4.744	3.917	3.525	3.294	3.088	4.366	12.93	36.23	75.29	218.0	137.1	10.40	1.093	1.044	1.014	0.938	0.941	0.961	0.877
560.0	65.57	79.21	90.67	91.79	86.98	88.67	127.5	162.0	102.0	103.3	214.0	1685	1343	89.83	55.94	50.39	44.86	42.19	38.80	38.47	36.01	34.94	33.95	33.55	32.56	32.40	32.62	33.38	33.18	33.01	33.85	32.40	30.83	29.02	27.40	25.27	24.89	23.75	22.30	20.90	19.24	17.48	16.32	15.17	14.05	12.74	11.31	11.06	10.14	10.08	9.796	8.080	6.714	6.422	5.678	5.591	5.018	4.637	4.616	3.639	3.383	2.896	2.614	2.849	4.567	9.619	18.82	90.83	214.5	95.26	4.942	1.055	0.947	0.945	0.869	0.858	0.862
565.0	65.92	74.85	81.75	80.89	70.75	73.92	93.87	153.0	103.0	86.96	107.6	702.6	2181	156.4	49.01	43.33	37.88	36.37	32.75	31.79	31.77	29.36	28.52	28.51	27.20	27.19	27.90	28.63	28.83	28.23	28.48	26.82	25.60	24.98	22.59	21.41	20.97	19.55	19.34	17.69	16.29	14.93	14.54	12.93	12.07	11.21	10.11	9.361	8.525	8.377	8.411	7.702	6.584	5.787	5.132	4.805	4.363	4.268	4.114	3.616	3.162	2.806	2.312	2.405	2.710	3.801	5.651	22.74	101.6	191.8	31.95	2.551	1.085	0.936	0.897	0.823	0.776
570.0	68.00	73.87	79.99	70.88	63.32	60.81	68.94	116.2	117.0	77.21	77.16	224.8	1491	1151	70.31	34.41	31.47	29.27	27.11	25.41	25.46	23.71	23.17	22.87	22.64	22.22	22.72	22.23	22.91	22.73	22.51	21.54	20.23	19.76	18.81	17.66	17.00	15.81	15.29	14.31	13.43	12.26	11.71	10.58	9.878	8.981	8.250	7.645	7.001	6.629	6.561	6.803	5.935	5.198	4.376	4.204	3.863	3.725	3.302	3.311	3.133	2.617	2.323	2.292	2.140	2.324	2.668	6.616	25.10	80.37	123.3	74.44	9.946	0.938	0.894	0.873	0.733
575.0	64.69	73.67	73.11	60.93	53.57	52.71	58.00	76.63	126.1	80.98	65.94	97.35	456.9	1754	367.3	30.21	26.03	23.60	22.27	20.61	20.27	18.68	18.81	18.27	18.08	17.72	17.91	17.51	18.06	18.45	17.84	16.63	15.99	16.12	14.67	14.25	13.36	12.52	12.48	11.81	10.53	9.438	9.295	8.632	8.058	7.343	6.879	6.262	5.635	5.325	5.077	5.397	5.370	5.089	3.844	3.625	3.233	3.013	2.812	2.708	2.711	2.773	2.219	2.034	2.042	1.985	2.082	2.967	6.809	19.24	37.24	111.5	97.99	10.25	0.908	0.840	0.781
580.0	70.53	73.10	75.64	56.51	49.88	47.14	47.58	57.19	106.0	91.33	58.99	62.56	144.4	1202	939.8	39.26	21.73	20.34	19.46	17.06	16.71	16.56	15.76	15.66	15.31	14.99	14.68	14.88	15.64	15.61	15.38	14.59	13.89	13.13	12.01	11.98	11.29	11.02	10.24	9.666	8.920	8.379	8.123	7.210	6.937	6.003	5.656	5.322	4.904	4.449	4.291	4.291	4.757	4.455	3.817	3.176	3.142	2.831	2.498	2.520	2.408	2.384	2.408	2.031	1.885	1.944	1.795	2.069	2.818	5.593	9.637	40.36	121.6	35.89	4.902	0.869	0.739
585.0	65.00	68.26	67.59	52.95	45.70	43.68	40.23	46.70	82.14	108.7	59.52	54.59	67.35	472.6	1506	100.1	19.57	17.13	16.75	14.99	14.34	13.55	13.98	13.11	12.83	12.90	13.32	12.79	13.08	12.92	13.31	12.35	11.59	11.34	10.29	10.01	10.05	9.253	8.655	8.161	7.476	7.289	6.872	6.238	6.129	5.593	5.008	5.136	4.141	3.868	3.713	3.509	3.932	4.220	3.644	3.236	2.718	2.576	2.374	2.266	2.138	1.930	2.200	2.115	1.689	1.876	1.813	1.863	1.975	2.344	3.245	10.22	49.20	106.6	31.59	2.494	0.713
590.0	69.06	64.59	64.36	52.78	42.37	37.65	36.21	41.02	56.64	104.1	72.49	51.86	49.19	140.9	986.7	658.7	31.23	15.07	13.25	12.65	11.69	11.54	11.55	10.80	10.56	10.72	10.59	10.02	10.50	10.70	10.99	10.09	9.345	9.147	8.414	7.942	8.059	7.262	6.932	6.768	6.168	6.059	5.674	5.189	5.030	4.632	4.289	4.128	3.655	3.297	3.177	2.959	2.986	3.350	3.366	3.053	2.519	2.346	2.073	1.938	1.863	1.886	1.928	2.036	1.819	1.586	1.627	1.666	1.613	1.601	1.783	3.179	12.23	40.38	72.57	52.59	9.076
595.0	66.98	58.86	58.79	49.13	43.98	35.34	33.49	36.53	45.46	74.20	93.20	52.12	43.48	57.22	288.2	1065	96.32	13.42	11.12	10.42	9.780	9.077	9.048	8.450	8.353	8.548	8.525	8.089	8.491	8.437	8.411	8.205	7.305	7.187	6.750	6.160	6.245	5.869	5.624	5.485	5.054	4.971	4.704	4.197	3.836	3.739	3.522	3.268	2.969	2.658	2.641	2.586	2.337	2.429	2.734	2.770	2.528	2.006	1.924	1.695	1.628	1.753	1.466	1.670	1.815	1.687	1.333	1.406	1.355	1.301	1.306	1.558	3.497	9.684	19.98	60.29	65.51
600.0	60.67	62.48	62.22	43.89	38.26	34.12	33.34	37.35	42.71	56.81	95.92	56.61	42.27	35.97	86.57	737.1	555.2	17.22	10.02	8.511	7.965	8.403	7.457	7.173	7.385	6.938	7.237	6.825	6.948	7.047	7.392	6.767	6.423	6.091	5.812	5.592	5.317	5.138	4.756	4.640	4.265	3.973	3.785	3.592	3.254	3.120	3.085	2.946	2.462	2.495	2.203	2.034	1.998	2.016	2.084	2.396	2.523	1.946	1.728	1.682	1.510	1.541	1.362	1.538	1.573	1.557	1.362	1.385	1.194	1.151	1.173	1.142	1.437	2.838	5.157	19.56	67.67
605.0	55.44	62.26	58.24	44.06	36.52	34.30	32.64	34.92	39.71	49.80	91.45	70.77	42.72	32.55	36.38	289.8	877.9	62.96	9.077	7.527	7.763	6.794	6.464	6.463	6.446	5.961	6.265	5.830	6.090	6.142	6.165	5.722	5.487	5.443	4.871	4.828	4.677	4.313	3.951	3.947	4.051	3.582	3.323	2.946	2.979	2.779	2.701	2.368	2.108	2.145	1.862	1.962	1.831	1.797	1.792	1.979	2.228	1.935	1.574	1.495	1.449	1.333	1.329	1.265	1.259	1.608	1.498	1.336	1.177	1.190	1.060	1.028	0.951	1.322	1.817	4.944	24.10
610.0	57.50	58.56	52.43	40.66	31.63	32.60	31.32	33.35	38.37	46.68	69.40	86.20	46.70	32.54	25.73	82.82	596.1	425.0	15.17	6.570	6.457	5.771	5.844	5.576	5.370	4.967	5.111	4.997	4.921	4.899	5.079	4.468	4.347	4.347	3.956	3.864	3.783	3.525	3.512	3.184	3.176	2.895	2.629	2.615	2.388	2.251	2.312	1.954	1.870	1.770	1.618	1.624	1.628	1.488	1.526	1.534	1.760	1.848	1.481	1.440	1.278	1.203	1.144	1.143	1.175	1.244	1.429	1.340	1.074	1.074	1.042	0.959	0.916	0.902	1.030	1.729	6.047
615.0	51.02	48.92	47.80	41.23	34.25	28.33	31.55	33.43	37.80	42.30	54.71	84.50	56.98	32.39	24.30	30.25	175.9	673.9	71.86	5.988	5.392	4.684	4.952	4.760	4.356	4.155	4.245	4.090	3.715	3.907	4.189	3.975	3.707	3.779	3.359	3.335	3.028	2.944	2.896	2.598	2.518	2.264	2.241	2.262	1.888	1.954	1.769	1.695	1.788	1.434	1.412	1.308	1.438	1.264	1.240	1.316	1.374	1.585	1.524	1.392	1.188	1.150	1.036	1.094	1.031	1.134	1.090	1.330	1.137	1.090	0.900	0.801	0.900	0.818	0.932	0.987	1.984
620.0	52.46	48.18	48.03	37.80	30.17	29.05	29.75	33.43	36.20	42.56	48.22	70.52	68.53	33.39	22.13	18.55	51.16	487.8	342.8	7.845	4.926	4.502	4.335	4.262	3.771	3.675	3.650	3.744	3.567	3.645	3.796	3.289	3.181	2.994	2.959	2.926	2.589	2.320	2.598	2.353	2.254	2.030	1.942	1.921	1.668	1.697	1.536	1.488	1.464	1.344	1.127	1.198	1.318	1.183	1.077	1.126	1.172	1.235	1.385	1.234	1.053	0.984	1.057	0.958	0.911	1.024	1.051	1.140	1.155	1.235	0.951	0.879	0.882	0.885	0.795	0.871	0.976
625.0	52.26	50.04	50.85	38.73	28.44	28.91	28.92	32.17	36.12	41.65	43.41	55.54	74.28	36.43	22.57	16.19	20.79	203.7	571.7	35.36	4.324	3.878	4.025	3.784	3.394	3.173	3.341	3.219	2.799	3.173	3.058	2.950	2.830	2.665	2.344	2.411	2.402	2.047	2.067	2.090	1.888	1.868	1.724	1.513	1.570	1.467	1.481	1.393	1.355	1.198	0.978	1.149	1.224	0.993	0.892	1.026	1.002	1.000	1.377	1.317	1.097	1.019	1.031	0.967	0.931	0.999	0.939	0.895	1.042	1.122	0.907	0.869	0.977	0.861	0.837	0.753	0.821
630.0	51.43	51.76	45.42	38.57	27.65	27.68	30.10	30.84	35.55	41.20	43.96	48.62	65.98	47.33	23.98	15.90	13.42	56.50	424.4	265.1	7.873	3.594	3.342	3.208	2.814	2.836	2.729	2.670	2.342	2.410	2.506	2.525	2.314	2.166	1.950	2.089	2.032	1.754	1.741	1.780	1.698	1.650	1.536	1.372	1.345	1.224	1.194	1.157	1.163	0.977	0.928	1.007	0.996	0.909	0.943	0.921	0.906	0.964	1.039	1.094	1.039	0.977	0.862	0.909	0.872	0.954	0.855	0.886	0.905	1.037	0.965	0.901	0.824	0.787	0.774	0.755	0.740
635.0	47.37	47.22	48.25	35.59	29.77	26.42	27.37	32.46	35.78	40.92	46.35	50.19	51.74	56.98	27.97	18.10	12.83	20.04	131.3	468.5	50.97	3.420	3.070	2.627	2.308	2.495	2.320	2.118	2.145	2.119	2.153	2.054	2.007	1.845	1.602	1.841	1.737	1.484	1.475	1.550	1.390	1.374	1.198	1.252	1.134	1.088	1.002	1.027	0.955	0.837	0.814	0.865	0.797	0.831	0.821	0.844	0.810	0.830	0.792	0.954	0.975	0.946	0.824	0.858	0.805	0.882	0.768	0.868	0.907	0.885	0.936	0.905	0.834	0.745	0.739	0.772	0.709
640.0	57.96	52.29	52.44	35.75	31.51	28.56	27.22	33.19	34.61	40.53	44.90	46.99	48.24	57.00	33.80	19.74	14.50	13.16	37.50	368.7	217.4	4.588	2.882	2.374	2.484	2.175	2.108	2.224	1.950	2.066	1.938	1.806	1.787	1.512	1.561	1.576	1.459	1.289	1.336	1.300	1.143	1.253	1.065	1.096	1.069	0.979	0.892	1.052	0.953	0.807	0.769	0.807	0.734	0.730	0.793	0.747	0.825	0.755	0.772	0.900	0.888	0.938	0.865	0.929	0.816	0.848	0.705	0.896	0.862	0.863	0.866	0.902	0.860	0.842	0.689	0.722	0.801
645.0	61.35	64.65	60.24	38.80	29.18	26.57	29.99	30.84	35.52	43.48	48.21	51.89	45.97	54.31	45.00	22.61	16.38	12.60	16.01	169.8	392.5	19.84	2.699	2.093	1.996	2.034	1.931	1.964	1.874	2.081	1.756	1.633	1.675	1.633	1.403	1.349	1.328	1.198	1.212	1.269	1.063	0.980	1.004	1.048	0.931	0.908	0.865	0.909	0.887	0.663	0.750	0.783	0.650	0.756	0.771	0.713	0.725	0.837	0.785	0.769	0.751	0.903	0.914	0.805	0.776	0.746	0.772	0.934	0.767	0.890	0.811	0.926	0.918	0.804	0.767	0.759	0.703
650.0	61.19	68.75	74.69	44.30	31.83	27.83	31.96	30.67	37.66	43.41	49.59	51.75	48.02	49.97	51.34	26.42	18.17	13.82	10.38	53.77	403.6	64.05	2.792	2.109	1.839	1.919	1.652	1.873	1.547	1.815	1.641	1.514	1.468	1.428	1.267	1.202	1.171	1.174	1.090	1.025	1.076	0.928	0.873	0.848	0.773	0.932	0.859	0.880	0.908	0.669	0.717	0.721	0.684	0.747	0.640	0.660	0.743	0.725	0.713	0.714	0.736	0.928	0.972	0.821	0.802	0.818	0.816	0.812	0.753	0.903	0.861	0.839	0.972	0.882	0.744	0.762	0.664
