Sample:	'1
File name:	H2025090801ÅË×¯¶þ´åÇÅ.FD3
Run date:	'10:29:09, 09/10/2025
Operator:	Administrator
Comment:	'

Instrument
Model:	F-2700 FL Spectrophotometer
Serial number:	23C7-003
ROM Version:	4J14000 07

Instrument parameters
Measurement type:	3-D scan
Data mode:	Fluorescence
EX  Start WL:	220.0 nm
EX  End WL:	600.0 nm
EX Sampling interval:	5.0 nm
EM  Start WL:	230.0 nm
EM  End WL:	650.0 nm
EM Sampling interval:	5.0 nm
Scan speed:	12000 nm/min
EX Slit:	5.0 nm
EM Slit:	5.0 nm
PMT Voltage:	700 V
Response:	Auto 
Corrected spectra:	Off
Contour interval:	50.000

Peak integration
Integration method:	Rectangular
Sensitivity:	1
Threshold:	1.000

Peaks
No.	ApexEX/EM(nm)	Height(Data)
1	225.0/605.0	30.78
2	230.0/345.0	456.3
3	235.0/510.0	224.7
4	240.0/260.0	225.2
5	240.0/520.0	193.7
6	245.0/270.0	220.4
7	245.0/405.0	631.2
8	245.0/535.0	158.5
9	250.0/275.0	284.6
10	250.0/415.0	628.8
11	250.0/545.0	131.8
12	255.0/280.0	384.5
13	255.0/560.0	117.4
14	260.0/285.0	397.1
15	260.0/570.0	95.31
16	265.0/400.0	607.7
17	265.0/585.0	96.89
18	270.0/300.0	1008
19	270.0/405.0	611.3
20	270.0/595.0	92.71
21	275.0/305.0	1210
22	275.0/385.0	603.8
23	275.0/610.0	86.10
24	280.0/310.0	1078
25	280.0/620.0	70.76
26	285.0/635.0	47.94
27	300.0/335.0	458.0
28	305.0/345.0	427.5
29	310.0/350.0	394.0
30	315.0/355.0	401.7
31	320.0/360.0	417.7
32	325.0/370.0	406.1
33	445.0/525.0	20.50
34	505.0/275.0	1.964
35	510.0/280.0	2.339
36	515.0/285.0	2.487
37	525.0/290.0	2.663
38	545.0/300.0	5.286
39	550.0/305.0	5.837
40	560.0/310.0	5.637
41	570.0/315.0	5.008
42	575.0/290.0	41.34
43	575.0/320.0	4.606
44	580.0/325.0	4.164

Data points
	220.0	225.0	230.0	235.0	240.0	245.0	250.0	255.0	260.0	265.0	270.0	275.0	280.0	285.0	290.0	295.0	300.0	305.0	310.0	315.0	320.0	325.0	330.0	335.0	340.0	345.0	350.0	355.0	360.0	365.0	370.0	375.0	380.0	385.0	390.0	395.0	400.0	405.0	410.0	415.0	420.0	425.0	430.0	435.0	440.0	445.0	450.0	455.0	460.0	465.0	470.0	475.0	480.0	485.0	490.0	495.0	500.0	505.0	510.0	515.0	520.0	525.0	530.0	535.0	540.0	545.0	550.0	555.0	560.0	565.0	570.0	575.0	580.0	585.0	590.0	595.0	600.0
230.0	12.77	321.9	1279	545.1	27.60	3.748	2.977	2.443	2.039	2.162	2.114	1.824	1.810	1.607	1.260	1.191	1.013	0.993	0.883	0.758	0.791	0.648	0.583	0.587	0.588	0.502	0.425	0.386	0.392	0.393	0.361	0.329	0.304	0.247	0.251	0.257	0.235	0.200	0.200	0.155	0.180	0.222	0.265	0.200	0.174	0.180	0.423	2.282	5.293	5.053	2.140	0.442	0.167	0.121	0.123	0.119	0.137	0.146	0.127	0.124	0.139	0.103	0.117	0.110	0.116	0.107	0.149	0.130	0.137	0.120	0.115	0.100	0.103	0.121	0.117	0.099	0.118
235.0	34.89	88.98	658.8	1627	439.6	53.21	4.142	3.227	3.227	1.983	2.426	2.027	2.091	1.666	1.238	1.293	1.209	1.045	0.906	0.844	0.809	0.681	0.586	0.641	0.608	0.511	0.473	0.409	0.427	0.444	0.298	0.334	0.284	0.247	0.219	0.244	0.251	0.250	0.231	0.187	0.171	0.198	0.250	0.219	0.346	0.233	0.256	0.650	1.876	4.081	6.234	7.646	4.003	0.852	0.163	0.152	0.152	0.170	0.107	0.132	0.133	0.114	0.080	0.101	0.128	0.097	0.093	0.104	0.080	0.104	0.103	0.094	0.140	0.096	0.078	0.121	0.095
240.0	54.15	64.66	179.9	1091	2041	366.2	25.57	4.087	3.035	2.767	2.468	2.218	2.029	1.932	1.414	1.176	1.232	0.964	0.990	0.879	0.842	0.722	0.715	0.615	0.733	0.447	0.503	0.404	0.408	0.421	0.305	0.409	0.322	0.235	0.258	0.279	0.271	0.260	0.241	0.188	0.185	0.221	0.192	0.134	0.306	0.336	0.337	0.272	0.590	1.196	3.004	8.145	11.44	8.445	2.962	0.509	0.222	0.166	0.134	0.142	0.157	0.127	0.119	0.098	0.110	0.092	0.160	0.133	0.067	0.070	0.111	0.118	0.109	0.076	0.092	0.081	0.083
245.0	35.25	107.5	82.59	316.8	1697	2278	284.3	10.25	3.753	3.441	3.198	2.311	2.134	1.896	1.603	1.365	1.213	1.144	1.076	0.913	0.801	0.617	0.579	0.622	0.562	0.595	0.571	0.315	0.451	0.438	0.392	0.343	0.351	0.266	0.226	0.244	0.222	0.229	0.231	0.230	0.187	0.217	0.211	0.170	0.232	0.273	0.419	0.488	0.342	0.435	0.818	2.572	7.202	12.47	12.62	7.331	1.929	0.226	0.106	0.147	0.166	0.164	0.104	0.155	0.100	0.135	0.126	0.112	0.087	0.074	0.132	0.076	0.129	0.084	0.107	0.108	0.125
250.0	15.76	67.48	139.3	142.3	481.4	1673	2474	1019	73.28	4.620	3.653	3.119	2.521	2.109	1.452	1.473	1.286	1.190	1.066	0.956	0.859	0.715	0.657	0.683	0.607	0.560	0.512	0.422	0.449	0.420	0.374	0.380	0.282	0.313	0.261	0.267	0.210	0.190	0.244	0.246	0.172	0.214	0.175	0.171	0.197	0.210	0.282	0.432	0.652	0.628	0.495	0.774	1.820	4.007	7.531	11.35	14.26	12.29	7.021	2.061	0.288	0.154	0.144	0.128	0.107	0.118	0.102	0.108	0.124	0.141	0.089	0.117	0.142	0.089	0.118	0.146	0.115
255.0	10.43	22.08	79.38	206.2	188.2	396.8	1405	3639	1501	84.21	5.595	4.932	3.073	2.126	1.943	1.708	1.380	1.241	1.111	0.924	0.864	0.832	0.685	0.596	0.598	0.585	0.529	0.407	0.566	0.396	0.395	0.412	0.234	0.399	0.316	0.232	0.222	0.253	0.245	0.229	0.218	0.211	0.279	0.171	0.182	0.201	0.180	0.215	0.393	0.487	0.762	0.893	0.760	1.091	1.862	2.795	5.354	12.52	21.48	20.50	10.66	2.247	0.219	0.139	0.124	0.106	0.221	0.130	0.114	0.155	0.075	0.158	0.178	0.094	0.127	0.098	0.085
260.0	8.999	10.75	28.37	144.3	225.2	133.5	367.3	2321	4364	1162	42.20	5.707	4.153	2.763	2.311	1.802	1.700	1.054	1.121	0.983	1.090	0.727	0.763	0.767	0.666	0.658	0.554	0.513	0.442	0.530	0.330	0.376	0.284	0.310	0.227	0.214	0.181	0.253	0.296	0.198	0.191	0.222	0.163	0.186	0.191	0.140	0.173	0.178	0.251	0.253	0.445	1.052	1.153	0.770	0.650	0.762	1.429	3.400	9.785	21.55	27.63	20.00	7.468	0.912	0.149	0.138	0.149	0.138	0.155	0.156	0.112	0.119	0.122	0.107	0.132	0.125	0.107
265.0	9.001	7.572	11.40	53.90	219.8	184.7	108.7	660.2	3401	4717	845.9	17.53	5.233	3.552	2.708	2.360	1.644	1.590	1.447	1.115	1.123	0.860	0.759	0.794	0.701	0.573	0.564	0.544	0.487	0.651	0.449	0.364	0.276	0.295	0.263	0.238	0.205	0.209	0.245	0.181	0.217	0.234	0.192	0.187	0.182	0.146	0.187	0.158	0.197	0.135	0.235	0.481	1.129	1.463	1.045	0.512	0.499	0.909	2.443	6.426	16.87	30.63	27.38	17.12	3.844	0.413	0.161	0.139	0.134	0.170	0.179	0.110	0.097	0.134	0.100	0.061	0.115
270.0	15.04	10.03	11.76	18.98	84.11	220.4	198.2	189.7	945.2	3422	5209	1954	54.34	5.669	3.572	2.729	1.939	1.859	1.507	1.258	1.225	1.085	0.902	0.918	0.790	0.676	0.678	0.535	0.510	0.504	0.472	0.376	0.354	0.365	0.343	0.264	0.288	0.242	0.254	0.262	0.193	0.202	0.240	0.226	0.186	0.206	0.213	0.239	0.163	0.148	0.164	0.204	0.447	0.732	1.164	1.374	1.118	0.700	0.775	1.620	4.193	9.332	16.72	27.43	28.40	26.16	11.12	3.175	0.367	0.212	0.168	0.125	0.116	0.126	0.128	0.090	0.119
275.0	26.29	23.73	18.46	15.44	28.05	83.88	284.6	247.6	257.6	828.0	2881	7391	1055	61.50	5.402	3.863	2.475	2.400	1.603	1.397	1.383	1.106	1.201	0.854	0.754	0.653	0.633	0.636	0.620	0.571	0.566	0.423	0.468	0.333	0.409	0.355	0.336	0.239	0.289	0.327	0.221	0.285	0.221	0.196	0.206	0.212	0.259	0.178	0.177	0.215	0.164	0.176	0.242	0.286	0.416	0.655	1.543	1.964	1.446	0.767	1.165	2.315	4.036	6.725	10.25	26.54	45.63	27.29	16.12	2.714	0.258	0.214	0.149	0.202	0.195	0.171	0.114
280.0	37.98	39.32	36.21	22.97	22.66	37.31	156.8	384.5	203.9	243.3	797.1	4719	7625	800.7	29.99	4.984	3.371	2.366	1.810	1.731	1.407	1.276	1.195	0.918	0.681	0.765	0.736	0.577	0.696	0.642	0.577	0.491	0.441	0.299	0.374	0.383	0.294	0.296	0.317	0.266	0.240	0.274	0.256	0.236	0.253	0.268	0.235	0.246	0.232	0.258	0.197	0.220	0.201	0.194	0.253	0.358	0.718	1.484	2.339	1.913	0.989	0.889	1.285	1.940	2.731	7.198	19.80	39.56	55.05	24.84	9.329	0.996	0.185	0.234	0.232	0.119	0.133
285.0	61.58	68.05	71.78	46.12	31.84	30.79	74.89	302.0	397.1	183.5	291.6	1394	6398	6504	522.8	11.70	4.870	3.422	2.325	2.062	1.635	1.230	1.152	0.961	0.787	0.740	0.711	0.645	0.764	0.567	0.557	0.524	0.427	0.465	0.405	0.364	0.367	0.314	0.294	0.222	0.252	0.342	0.312	0.263	0.279	0.322	0.349	0.370	0.303	0.324	0.290	0.239	0.236	0.257	0.237	0.280	0.356	0.679	1.389	2.487	2.474	1.318	0.788	1.030	1.194	2.291	5.076	11.97	30.23	53.93	56.83	20.35	4.449	0.428	0.198	0.137	0.233
290.0	109.3	150.8	157.8	93.82	59.61	51.49	70.01	160.7	396.2	499.8	344.9	568.3	1912	5338	6279	1742	31.44	4.859	3.220	2.618	1.975	1.634	1.185	1.121	1.070	0.838	0.830	0.788	0.647	0.672	0.677	0.493	0.495	0.506	0.455	0.413	0.434	0.324	0.369	0.321	0.292	0.308	0.322	0.348	0.397	0.453	0.535	0.560	0.538	0.453	0.372	0.332	0.399	0.365	0.303	0.347	0.350	0.527	0.799	1.098	2.041	2.663	2.658	2.086	1.558	1.632	2.330	3.867	8.022	16.15	29.50	41.34	37.76	38.36	12.52	4.051	0.471
295.0	159.4	243.1	241.7	151.5	89.86	75.75	96.14	158.0	279.2	604.6	786.5	593.4	802.3	1428	3519	8363	589.5	36.84	4.953	3.367	2.649	1.995	1.569	1.339	1.249	0.988	0.923	0.881	0.686	0.712	0.605	0.618	0.428	0.558	0.460	0.507	0.464	0.338	0.410	0.303	0.352	0.341	0.442	0.356	0.491	0.578	0.691	0.870	0.704	0.687	0.547	0.483	0.453	0.537	0.466	0.421	0.569	0.547	0.687	0.912	1.250	1.738	2.377	3.974	4.325	3.065	2.430	2.683	3.594	5.148	7.927	10.31	13.20	33.78	61.21	60.36	19.85
300.0	201.3	294.6	292.5	189.8	117.4	98.77	122.2	171.5	279.0	503.1	1008	864.8	656.2	591.4	970.9	5214	7733	474.0	17.63	4.623	3.221	2.178	1.720	1.346	1.474	1.157	1.091	0.947	0.872	0.668	0.683	0.655	0.445	0.601	0.530	0.514	0.494	0.399	0.455	0.303	0.353	0.362	0.459	0.463	0.513	0.713	0.805	1.039	0.947	0.818	0.664	0.649	0.564	0.551	0.476	0.508	0.602	0.574	0.716	0.969	1.136	1.605	1.966	3.023	4.814	5.286	3.978	3.072	3.033	3.363	3.235	3.496	3.784	8.789	22.60	54.60	74.77
305.0	220.9	333.1	337.2	216.6	133.6	120.7	140.5	200.5	307.5	491.8	875.0	1210	771.3	463.5	360.6	1423	6433	4283	324.0	8.708	4.022	2.889	2.145	1.653	1.387	1.294	1.100	0.892	0.869	0.726	0.791	0.698	0.484	0.446	0.537	0.545	0.517	0.438	0.431	0.365	0.372	0.424	0.505	0.432	0.542	0.819	0.918	1.028	1.139	0.925	0.769	0.658	0.658	0.563	0.583	0.592	0.749	0.730	0.851	1.122	1.372	1.709	1.907	2.619	3.493	4.968	5.837	4.709	3.753	3.143	2.447	2.105	1.913	2.631	5.727	14.71	36.06
310.0	217.9	350.4	359.8	228.3	151.9	133.9	163.8	229.5	327.2	497.8	738.7	1046	1078	570.0	263.2	410.0	1710	4488	5219	1356	22.41	4.130	2.850	2.168	1.707	1.380	1.232	1.016	1.083	0.907	0.811	0.736	0.602	0.553	0.584	0.576	0.535	0.450	0.484	0.500	0.360	0.421	0.544	0.469	0.601	0.807	0.914	1.105	1.191	0.931	0.768	0.816	0.739	0.609	0.640	0.673	0.826	0.877	0.980	1.317	1.426	1.750	2.043	2.577	2.935	3.801	4.350	5.288	5.637	4.767	3.152	2.125	1.606	1.514	2.104	3.996	8.759
315.0	216.9	342.9	364.2	240.4	167.8	147.3	176.5	235.1	324.2	488.6	681.0	838.7	932.5	847.9	329.1	208.3	457.3	1068	2991	7102	427.1	24.12	4.297	2.829	2.324	1.606	1.566	1.244	1.024	0.922	0.814	0.775	0.658	0.592	0.659	0.562	0.517	0.445	0.495	0.461	0.328	0.399	0.417	0.496	0.595	0.843	0.953	1.184	1.087	0.945	0.814	0.764	0.746	0.697	0.716	0.762	0.888	0.893	1.054	1.266	1.475	1.686	2.084	2.534	2.689	3.292	3.518	4.048	4.207	4.973	5.008	3.653	1.940	1.444	1.471	1.555	2.641
320.0	197.7	362.3	367.9	261.6	172.2	152.8	186.0	240.5	328.4	479.6	642.6	750.8	774.3	811.4	529.8	203.5	194.2	298.8	763.0	4360	6334	353.6	12.64	3.653	2.607	1.955	1.824	1.331	1.037	1.045	0.791	0.761	0.666	0.611	0.560	0.665	0.495	0.575	0.515	0.400	0.407	0.423	0.530	0.582	0.654	0.847	0.889	1.154	1.188	0.965	0.880	0.875	0.853	0.741	0.702	0.734	0.947	1.111	1.078	1.367	1.430	1.725	2.092	2.547	2.696	3.116	3.147	3.441	3.584	3.786	4.218	4.606	3.775	2.371	1.404	1.317	1.327
325.0	202.4	374.0	381.2	279.2	186.0	171.0	192.9	248.9	330.4	463.9	609.8	710.9	699.3	629.8	657.8	322.1	158.0	141.0	216.2	1159	5216	3277	50.77	6.807	3.328	2.348	1.921	1.478	1.301	1.189	0.961	0.865	0.817	0.578	0.627	0.582	0.549	0.540	0.548	0.458	0.411	0.483	0.476	0.500	0.683	0.847	0.930	1.232	1.289	1.134	0.920	0.948	0.911	0.654	0.670	0.803	0.947	1.013	1.202	1.338	1.583	1.671	2.016	2.302	2.680	2.990	2.977	3.150	3.307	3.397	3.237	3.271	4.164	3.916	2.439	1.445	1.296
330.0	211.5	361.6	423.7	325.6	222.9	185.8	201.6	252.8	331.0	444.7	571.6	662.8	655.2	541.2	495.6	486.4	288.7	137.7	114.8	306.7	1372	3555	4195	1171	18.83	3.505	2.435	1.880	1.605	1.311	1.130	1.007	0.844	0.683	0.675	0.477	0.622	0.532	0.499	0.412	0.380	0.466	0.398	0.504	0.648	0.792	0.979	1.297	1.387	1.295	1.083	1.089	1.122	0.909	0.786	0.884	0.992	1.020	1.276	1.374	1.463	1.796	1.940	2.205	2.446	2.811	2.787	3.005	3.135	3.023	2.738	2.712	2.748	3.089	3.362	3.128	2.462
335.0	210.6	365.9	437.6	353.3	262.6	224.3	224.3	267.4	326.3	427.0	534.3	618.1	620.1	522.3	423.7	390.4	458.0	254.0	125.9	140.9	356.8	847.9	2377	5950	1723	22.86	3.563	2.561	1.864	1.375	1.288	1.038	0.885	0.632	0.720	0.548	0.603	0.589	0.524	0.431	0.456	0.465	0.430	0.524	0.669	0.793	1.031	1.414	1.407	1.362	1.200	1.219	1.314	1.048	1.061	0.939	1.086	1.232	1.314	1.318	1.589	1.769	1.871	2.057	2.379	2.537	2.755	2.879	2.983	2.884	2.643	2.601	2.504	2.631	2.329	2.584	3.316
340.0	197.0	368.3	449.8	401.0	304.3	252.6	249.9	278.7	333.0	420.6	519.6	590.9	596.1	519.9	421.5	347.8	404.9	407.7	185.8	128.7	154.5	245.5	614.9	3551	5710	322.6	13.77	3.540	2.208	1.887	1.338	1.206	0.842	0.686	0.765	0.605	0.529	0.622	0.559	0.423	0.477	0.477	0.459	0.517	0.669	0.949	1.002	1.427	1.543	1.566	1.248	1.359	1.247	1.220	1.031	1.013	1.113	1.341	1.352	1.200	1.518	1.757	1.924	2.141	2.307	2.520	2.554	2.942	2.994	2.875	2.774	2.729	2.570	2.535	2.238	2.380	2.461
345.0	198.9	364.4	456.3	412.4	332.2	281.7	269.4	289.2	330.8	412.7	500.4	566.1	578.4	520.5	429.8	355.1	337.5	427.5	319.0	161.7	131.7	131.1	193.1	948.0	4256	4600	255.9	6.973	3.023	2.476	1.459	1.338	0.867	0.774	0.825	0.613	0.588	0.584	0.583	0.427	0.511	0.462	0.520	0.532	0.656	0.918	1.097	1.371	1.555	1.445	1.291	1.447	1.352	1.347	1.249	1.215	1.259	1.280	1.384	1.491	1.586	1.612	1.942	2.137	2.380	2.539	2.604	2.832	2.892	2.910	2.685	2.662	2.455	2.514	2.076	2.198	2.226
350.0	191.5	350.2	449.1	433.2	374.4	332.4	314.1	322.0	351.4	415.6	486.2	546.7	559.8	520.6	452.1	385.8	341.3	348.8	394.0	305.4	181.6	140.8	128.7	272.3	1117	3152	3443	1089	18.40	3.324	2.302	1.609	1.062	0.949	0.798	0.705	0.596	0.654	0.634	0.470	0.455	0.397	0.469	0.538	0.709	0.863	1.065	1.374	1.506	1.431	1.364	1.490	1.523	1.550	1.496	1.304	1.386	1.500	1.452	1.539	1.707	1.779	1.931	2.013	2.206	2.283	2.476	2.540	2.848	2.813	2.645	2.588	2.694	2.573	2.457	2.439	2.333
355.0	199.7	349.8	436.2	456.7	413.7	382.6	364.1	361.7	385.2	435.4	491.0	544.8	556.1	523.9	473.9	427.7	379.2	353.8	346.7	401.7	318.0	194.0	153.4	152.4	310.1	750.4	1730	4661	1687	23.65	3.372	2.203	1.474	1.188	0.899	0.803	0.706	0.672	0.614	0.470	0.498	0.473	0.478	0.580	0.705	0.885	1.015	1.323	1.518	1.518	1.262	1.678	1.778	1.827	1.639	1.567	1.645	1.588	1.643	1.726	1.764	1.960	1.884	2.025	2.267	2.183	2.402	2.431	2.620	2.795	2.725	2.719	2.827	2.585	2.811	2.646	2.592
360.0	207.9	345.8	457.9	476.1	457.3	434.0	417.0	403.2	420.4	460.7	505.9	547.8	555.4	537.2	498.8	455.2	414.5	382.3	353.9	377.0	417.7	273.0	187.3	145.7	148.8	220.2	445.8	2548	4789	320.3	14.83	3.095	1.881	1.203	0.963	0.862	0.707	0.661	0.710	0.484	0.519	0.487	0.520	0.537	0.650	0.847	1.043	1.418	1.503	1.494	1.329	1.712	1.944	1.760	1.849	1.671	1.937	1.734	1.801	1.883	1.869	1.946	2.067	2.228	2.312	2.299	2.277	2.538	2.620	2.910	2.643	2.879	2.738	2.816	2.680	2.719	2.949
365.0	194.9	354.6	461.0	498.4	484.8	467.6	450.8	445.5	456.5	478.6	525.7	560.4	563.4	550.5	516.1	479.0	444.0	413.3	381.9	366.7	409.1	381.8	235.6	169.3	133.3	117.7	147.7	665.6	3226	4145	263.4	6.983	2.544	1.686	1.157	0.898	0.813	0.614	0.705	0.564	0.465	0.459	0.560	0.665	0.697	0.929	1.059	1.405	1.479	1.545	1.520	1.762	1.901	1.839	1.902	1.847	1.989	1.773	1.887	1.894	2.279	2.107	2.320	2.316	2.277	2.317	2.351	2.470	2.721	2.813	2.808	2.855	2.852	2.874	2.728	2.793	3.026
370.0	197.3	345.2	467.6	520.2	515.6	514.1	491.2	488.3	493.1	515.5	546.5	571.0	574.9	560.0	533.7	502.7	476.3	450.8	422.4	397.1	386.0	406.1	354.6	229.4	163.6	122.5	101.9	196.7	829.1	2578	3039	1063	17.69	2.844	1.814	1.174	0.941	0.761	0.798	0.667	0.578	0.541	0.583	0.612	0.704	0.988	1.084	1.343	1.481	1.580	1.546	1.932	2.002	2.091	1.985	1.957	2.138	2.102	2.069	2.133	2.292	2.217	2.286	2.573	2.443	2.531	2.448	2.563	2.831	2.778	2.765	2.912	3.056	2.721	2.994	3.144	3.170
375.0	213.6	342.9	471.7	549.1	554.5	551.3	528.6	529.6	527.3	544.1	571.7	585.6	583.1	567.7	548.8	519.9	501.0	481.9	460.7	432.4	403.7	382.7	392.5	340.3	214.8	155.4	118.7	113.6	231.1	610.8	1330	3911	1662	23.00	2.557	1.599	1.115	0.945	0.826	0.612	0.654	0.627	0.585	0.717	0.860	0.873	1.056	1.334	1.501	1.595	1.587	2.000	2.095	2.133	2.277	2.203	2.282	2.141	2.269	2.276	2.244	2.526	2.324	2.571	2.579	2.710	2.547	2.753	2.827	2.857	2.989	2.875	2.891	3.103	3.129	3.275	3.469
380.0	223.2	352.8	469.9	549.0	570.0	571.0	563.4	551.3	543.7	565.9	579.1	596.2	591.7	573.3	551.5	529.5	513.6	499.1	481.0	453.7	422.1	392.8	372.5	385.2	288.2	184.2	139.0	110.2	112.7	178.1	337.7	1888	3946	282.3	14.71	2.377	1.403	1.028	0.953	0.675	0.650	0.683	0.618	0.697	0.831	0.861	1.111	1.379	1.521	1.611	1.822	2.042	2.169	2.315	2.372	2.245	2.252	2.348	2.497	2.398	2.489	2.518	2.562	2.827	2.645	2.601	2.592	2.679	2.861	2.630	2.776	3.148	2.875	3.250	3.164	3.334	3.356
385.0	223.5	359.1	484.7	549.4	583.1	600.5	584.9	570.9	560.4	572.7	594.6	603.8	589.8	578.4	557.2	534.1	517.9	511.3	490.0	466.0	434.6	403.5	371.2	365.7	353.3	233.8	164.2	125.7	102.4	94.91	112.8	481.6	2305	3243	237.1	7.383	2.082	1.176	1.148	0.923	0.595	0.675	0.743	0.628	0.872	0.882	1.131	1.247	1.440	1.626	1.782	2.206	2.254	2.227	2.293	2.368	2.557	2.360	2.346	2.408	2.473	2.522	2.672	2.810	2.584	2.582	2.670	2.808	2.790	2.733	2.919	3.148	3.226	3.071	3.206	3.298	3.678
390.0	236.0	366.8	492.6	561.9	594.6	615.9	607.8	593.5	584.5	590.9	598.6	598.8	591.1	578.5	553.1	536.1	521.3	511.3	498.3	475.9	451.2	418.2	382.7	353.2	343.0	310.4	218.7	157.3	124.4	97.74	79.58	143.4	577.5	1748	2209	887.6	15.72	2.093	1.634	1.107	0.786	0.789	0.732	0.721	0.825	0.912	1.157	1.339	1.574	1.681	1.816	2.193	2.306	2.422	2.424	2.369	2.625	2.444	2.536	2.610	2.745	2.610	2.670	2.588	2.681	2.680	2.536	2.817	2.722	2.855	3.016	2.979	3.082	3.183	3.152	3.388	3.618
395.0	229.0	364.2	494.0	566.6	597.6	621.1	618.2	618.4	598.1	605.5	605.1	603.8	593.2	577.8	551.5	529.1	515.5	508.9	499.6	479.3	458.6	431.7	396.8	360.4	328.1	318.3	299.0	206.6	155.9	119.5	91.61	83.56	163.1	414.3	825.4	2613	1430	21.30	2.649	1.367	1.036	0.885	0.886	0.933	0.876	0.944	1.133	1.317	1.685	1.645	1.774	2.226	2.261	2.368	2.635	2.280	2.585	2.600	2.713	2.660	2.680	2.712	2.770	2.716	2.519	2.670	2.578	2.774	2.652	2.662	3.092	2.833	2.922	3.139	3.084	3.340	3.618
400.0	224.8	366.5	498.1	568.5	601.3	619.1	618.0	621.6	602.1	607.7	606.8	599.8	593.2	570.8	551.1	524.7	515.4	506.0	498.0	479.2	460.0	436.3	404.6	370.9	333.8	306.2	313.2	264.2	184.3	141.1	108.1	82.51	80.37	121.9	209.1	1107	2797	971.6	15.87	1.927	1.319	1.144	0.824	0.838	0.902	1.076	1.161	1.423	1.484	1.612	1.677	2.093	2.313	2.410	2.322	2.504	2.674	2.657	2.507	2.744	2.560	2.514	2.777	2.539	2.519	2.507	2.639	2.775	2.694	2.774	2.924	2.782	2.905	3.211	3.336	3.271	3.434
405.0	221.0	369.9	504.5	566.1	615.0	631.2	622.5	624.0	598.8	598.6	611.3	596.8	584.8	562.4	540.5	514.9	506.1	496.7	487.0	473.2	453.7	434.3	408.5	377.1	339.2	309.7	295.3	299.7	226.9	161.4	125.7	94.10	70.78	63.60	71.19	276.0	1402	2529	229.4	8.470	1.750	1.109	0.981	0.918	1.033	1.090	1.193	1.538	1.594	1.693	1.717	2.199	2.370	2.422	2.374	2.380	2.665	2.477	2.735	2.858	2.698	2.723	2.642	2.702	2.690	2.515	2.599	2.680	2.740	2.642	3.039	2.717	2.863	3.235	3.073	3.308	3.359
410.0	230.9	365.8	499.0	563.5	608.3	629.4	627.9	622.5	611.6	606.8	603.3	588.6	569.9	550.5	525.5	497.7	489.2	479.0	471.3	457.1	444.0	425.9	404.7	381.0	347.1	319.7	290.3	284.3	272.2	209.0	148.8	111.8	81.92	62.10	48.91	84.49	343.7	1164	2394	866.6	15.26	1.919	1.249	0.985	1.140	1.115	1.195	1.394	1.702	1.677	1.762	2.091	2.356	2.307	2.405	2.463	2.484	2.618	2.766	2.766	2.811	2.642	2.804	2.831	2.649	2.444	2.601	2.677	2.686	2.570	2.727	2.842	2.871	2.977	3.068	3.252	3.264
415.0	236.4	363.1	470.4	568.7	598.2	613.2	628.8	622.3	604.7	602.4	601.3	573.4	550.5	538.9	504.4	479.8	467.3	459.4	451.7	436.9	421.4	412.4	397.4	375.0	350.1	319.5	292.9	268.6	264.5	254.4	185.2	130.7	97.17	71.86	53.01	48.42	96.77	273.9	754.2	1778	1226	21.26	1.894	1.320	1.176	1.119	1.242	1.412	1.571	1.734	1.623	2.058	2.240	2.357	2.435	2.377	2.276	2.730	2.767	2.425	2.727	2.640	2.802	2.800	2.637	2.469	2.633	2.617	2.649	2.552	2.576	2.758	2.628	3.052	2.834	2.808	3.064
420.0	225.8	340.6	461.3	548.9	580.5	610.5	625.3	610.6	605.5	601.3	589.8	562.7	540.5	515.1	492.5	464.7	446.5	443.0	432.6	421.9	410.2	397.2	386.4	368.6	346.8	322.0	293.6	270.4	252.2	253.1	221.9	149.6	108.2	80.35	59.62	45.10	45.87	77.98	182.4	676.9	1970	839.4	14.54	1.718	1.258	1.168	1.238	1.431	1.574	1.642	1.583	1.994	2.295	2.376	2.430	2.526	2.529	2.763	2.843	2.494	2.704	2.631	2.663	2.754	2.592	2.554	2.387	2.723	2.496	2.397	2.451	2.769	2.685	2.787	2.806	2.705	3.089
425.0	208.5	339.0	459.5	535.7	549.2	596.5	608.5	598.6	598.8	591.5	584.7	556.6	530.9	500.9	473.8	449.2	435.3	421.0	414.1	407.5	396.7	382.6	375.7	359.2	339.8	317.5	294.3	270.8	250.2	235.2	234.2	176.8	119.8	88.61	66.45	49.77	38.29	37.75	54.75	166.2	880.9	1872	211.4	8.969	1.694	1.339	1.267	1.520	1.583	1.569	1.623	1.929	2.111	2.236	2.267	2.402	2.381	2.557	2.638	2.576	2.648	2.775	2.688	2.537	2.588	2.495	2.350	2.532	2.409	2.264	2.470	2.523	2.617	2.578	2.634	2.673	3.044
430.0	230.4	335.9	444.9	513.6	549.5	569.8	588.9	595.8	593.0	580.3	568.0	545.1	511.3	480.4	455.1	423.3	409.9	400.6	394.4	384.3	378.4	365.8	358.7	347.0	329.6	309.8	291.5	270.1	250.3	229.5	215.1	199.8	148.2	101.5	76.08	57.94	44.57	34.37	30.80	50.55	212.7	786.6	1330	781.9	14.78	2.145	1.573	1.657	1.638	1.581	1.611	1.935	2.067	2.145	2.230	2.210	2.375	2.379	2.449	2.496	2.663	2.585	2.639	2.555	2.377	2.539	2.342	2.535	2.271	2.316	2.326	2.538	2.471	2.641	2.673	2.615	2.778
435.0	311.2	336.8	430.0	492.0	526.3	562.8	576.8	586.2	579.0	572.4	557.5	532.9	500.4	463.3	432.7	398.7	391.2	380.5	371.9	364.4	356.2	350.1	337.9	334.3	318.8	303.2	286.4	268.2	251.2	232.8	207.8	188.8	172.9	124.7	87.58	67.68	51.43	40.58	30.43	28.52	60.01	185.4	400.7	1439	1142	20.66	2.178	2.009	1.721	1.625	1.543	1.951	2.085	1.977	2.248	2.081	2.291	2.509	2.542	2.418	2.579	2.589	2.524	2.562	2.456	2.340	2.363	2.429	2.207	2.497	2.416	2.389	2.380	2.422	2.630	2.535	2.652
440.0	407.7	355.9	412.7	485.7	517.7	536.1	566.8	581.6	571.6	572.4	553.6	526.9	486.9	452.0	417.7	387.2	372.7	362.9	356.1	347.8	340.5	337.1	328.2	321.1	310.1	293.8	280.8	265.9	249.6	232.4	205.7	181.7	168.0	148.0	100.4	74.21	56.87	44.94	34.42	26.96	29.12	52.78	99.50	534.8	1717	787.1	13.40	2.447	1.819	1.685	1.462	2.007	1.902	1.887	2.155	2.225	2.413	2.417	2.502	2.561	2.621	2.546	2.620	2.740	2.530	2.213	2.247	2.288	2.263	2.343	2.299	2.529	2.290	2.342	2.372	2.277	2.286
445.0	401.7	461.7	397.1	472.1	501.0	527.4	544.3	563.3	558.6	548.7	538.6	511.9	475.3	440.4	403.7	372.6	354.3	346.3	340.1	332.8	324.2	320.4	312.5	307.6	299.8	286.5	272.4	259.6	247.4	229.5	206.3	176.0	155.7	151.5	117.9	81.51	61.61	48.35	38.25	29.38	24.61	25.74	32.61	130.9	750.5	1700	180.7	8.546	2.146	1.793	1.568	1.880	1.957	2.023	2.137	2.217	2.467	2.408	2.438	2.392	2.508	2.484	2.446	2.612	2.488	2.160	2.177	2.247	2.260	2.351	2.177	2.273	2.363	2.211	2.319	2.350	2.216
450.0	277.0	707.5	501.7	447.1	474.5	500.7	524.8	530.6	532.6	528.3	517.8	490.0	451.4	417.4	376.7	351.5	333.8	323.8	314.9	307.6	300.2	295.1	290.6	285.7	279.7	268.4	257.8	247.0	238.1	223.8	201.9	174.6	151.1	136.3	125.8	97.72	69.83	53.53	43.12	33.82	27.11	22.20	19.99	39.39	180.7	704.4	1159	635.3	12.38	2.159	1.756	1.888	1.950	2.001	2.063	2.076	2.175	2.181	2.253	2.265	2.370	2.389	2.353	2.428	2.446	2.254	2.133	2.280	2.072	2.202	2.186	2.182	2.058	2.173	2.056	2.225	2.192
455.0	186.0	632.6	843.8	439.7	439.9	460.7	490.2	504.0	503.3	501.1	498.8	462.6	421.2	386.7	353.3	321.0	311.0	297.3	289.4	281.5	274.3	270.2	265.9	260.8	254.9	247.2	239.3	232.5	222.1	212.4	193.0	169.8	145.6	125.6	114.2	108.4	82.81	58.76	46.89	38.37	31.12	24.84	20.23	20.78	49.87	164.1	350.5	1138	800.3	14.67	2.071	2.001	1.964	1.909	1.961	1.888	1.954	2.090	2.253	2.260	2.297	2.289	2.348	2.339	2.041	2.241	2.032	1.918	1.951	2.026	1.962	1.851	1.982	2.065	2.038	2.032	2.164
460.0	157.5	402.0	1173	576.6	410.7	441.0	463.4	481.0	487.1	479.1	468.3	435.1	401.6	364.6	333.5	301.5	287.2	273.8	268.4	261.7	251.9	250.9	248.2	243.2	237.1	230.9	224.4	219.6	212.2	200.5	186.4	164.4	142.2	121.4	106.9	102.8	93.32	65.91	49.55	40.90	32.83	26.69	21.88	18.41	21.60	44.95	85.28	426.9	1275	504.8	9.486	2.161	2.008	1.924	1.846	1.809	2.066	2.050	2.159	2.189	2.142	2.004	2.228	2.206	1.998	2.153	2.012	1.978	1.932	1.885	1.892	1.945	1.993	1.905	1.749	1.862	1.985
465.0	147.5	272.3	1081	946.4	392.0	417.6	434.2	457.0	467.9	450.8	442.5	414.9	383.5	346.1	312.7	286.5	268.6	258.2	249.4	242.5	238.6	232.8	232.0	226.8	222.1	217.0	208.1	205.5	202.2	191.2	177.6	158.6	137.4	118.6	103.0	92.22	92.43	74.66	52.03	42.67	34.56	28.52	23.31	19.67	16.90	19.03	26.22	103.5	590.8	1162	138.7	5.390	2.087	2.024	1.860	1.788	1.909	1.871	1.890	2.075	2.117	1.876	2.003	1.980	2.039	1.930	1.842	1.861	1.860	1.856	1.827	1.762	1.921	1.838	1.677	1.887	1.928
470.0	148.5	213.5	592.0	1360	625.0	384.6	398.2	417.7	424.7	423.1	413.8	386.9	352.8	313.8	287.1	261.2	242.6	233.2	223.9	216.6	212.3	207.6	205.0	202.6	200.9	196.0	190.2	187.0	183.7	175.6	164.8	148.7	129.0	112.7	98.29	86.28	80.18	76.35	60.83	45.04	36.23	30.73	24.99	21.04	17.12	14.68	13.90	29.52	142.2	519.6	786.0	381.1	11.25	2.250	1.907	1.761	1.750	1.823	1.780	1.914	1.938	1.931	1.944	1.831	1.744	1.744	1.618	1.606	1.674	1.661	1.733	1.607	1.718	1.625	1.518	1.729	1.673
475.0	149.2	182.7	326.8	1030	1274	388.5	367.1	370.6	383.4	382.0	380.1	357.5	322.2	286.4	261.8	232.6	219.8	207.0	201.7	190.9	189.7	186.1	182.7	180.4	177.6	173.0	170.2	168.5	167.2	158.9	149.9	136.8	120.8	105.2	92.26	80.38	71.31	67.58	65.67	50.98	37.94	31.19	26.22	22.13	18.63	14.98	12.28	13.68	37.41	120.3	248.3	776.3	503.7	14.05	2.210	1.660	1.602	1.820	1.683	1.717	1.742	1.765	1.706	1.743	1.711	1.670	1.543	1.585	1.547	1.446	1.618	1.545	1.530	1.566	1.583	1.400	1.553
480.0	136.3	196.7	253.5	581.4	1611	567.7	347.4	343.8	358.9	357.1	357.3	329.9	307.4	268.5	244.2	215.7	202.9	192.8	186.0	177.3	173.6	170.1	167.1	168.1	164.8	159.7	157.9	155.2	153.5	149.8	140.8	129.0	114.9	99.84	88.20	77.81	68.51	60.97	61.48	55.78	41.27	31.70	27.59	22.59	19.29	15.63	12.60	10.76	14.59	31.81	60.13	306.4	921.9	174.6	8.361	1.924	1.858	1.710	1.603	1.506	1.604	1.773	1.572	1.639	1.634	1.602	1.499	1.402	1.505	1.470	1.499	1.435	1.341	1.398	1.483	1.331	1.525
485.0	117.7	200.0	224.3	352.6	1355	1027	335.2	334.4	337.2	338.4	338.9	312.5	292.4	255.8	230.8	204.8	194.0	182.1	172.0	166.7	161.8	158.3	156.8	154.9	154.2	150.5	146.3	144.6	144.3	141.3	135.1	123.2	109.3	97.12	85.23	74.82	66.40	57.82	54.86	55.77	46.16	33.86	28.01	23.37	19.85	16.65	13.24	10.59	10.08	12.28	17.73	75.10	482.8	858.6	136.5	3.401	1.978	1.697	1.587	1.487	1.616	1.608	1.540	1.510	1.497	1.533	1.560	1.382	1.384	1.471	1.454	1.253	1.385	1.376	1.325	1.337	1.383
490.0	91.96	194.4	220.8	259.4	683.4	1490	533.0	310.8	312.9	316.1	312.5	289.7	266.3	238.0	214.1	190.3	178.2	166.9	159.3	152.3	147.6	143.9	143.5	140.6	139.1	137.5	133.5	132.5	131.0	129.5	123.3	111.8	102.3	92.11	80.88	71.06	63.25	55.92	50.31	48.73	48.39	38.48	29.24	24.36	20.45	17.21	14.24	11.72	9.730	8.563	8.693	20.84	117.3	421.2	720.8	319.9	10.42	1.854	1.596	1.507	1.637	1.494	1.547	1.375	1.460	1.446	1.440	1.477	1.351	1.333	1.353	1.206	1.289	1.257	1.247	1.191	1.240
495.0	86.46	161.2	224.7	228.2	335.0	1116	1218	311.7	286.4	290.7	287.8	268.1	243.4	218.8	193.3	173.1	160.3	150.6	144.8	136.4	132.0	128.8	129.0	127.2	123.9	122.2	121.1	119.6	120.5	116.7	110.9	103.5	93.71	85.11	75.11	67.59	58.86	54.25	47.92	43.55	42.95	42.03	33.46	25.02	20.87	18.00	14.20	12.26	9.931	8.644	7.227	8.800	29.82	97.42	268.8	795.3	197.2	11.86	1.780	1.451	1.449	1.553	1.518	1.389	1.345	1.277	1.364	1.215	1.188	1.146	1.073	1.243	1.061	1.109	1.045	1.006	1.137
500.0	76.86	141.6	229.3	214.0	242.5	600.8	1628	462.9	266.1	261.9	266.1	250.4	226.1	200.5	178.8	160.1	146.6	136.5	130.3	125.3	122.0	117.1	116.3	115.7	112.6	111.2	111.7	108.7	109.7	108.6	104.0	95.22	87.05	78.00	69.87	62.78	56.05	50.81	44.58	41.05	37.25	39.59	36.07	26.81	21.37	17.72	14.67	12.32	10.68	8.499	6.896	6.409	10.72	25.17	64.15	357.6	804.9	166.0	4.981	1.605	1.452	1.438	1.406	1.263	1.265	1.259	1.208	1.168	1.142	1.202	1.002	1.191	0.926	0.981	1.064	1.052	1.016
505.0	73.06	117.3	206.2	214.6	200.9	312.6	1471	886.8	251.0	249.3	246.8	231.1	207.4	185.2	160.9	145.2	134.4	125.5	117.7	116.0	110.9	108.9	105.7	105.3	104.8	100.7	100.8	98.99	99.70	99.39	94.32	87.73	80.18	71.93	65.76	59.30	52.53	47.95	42.55	38.80	34.94	34.20	35.44	29.43	21.31	17.43	14.93	12.09	10.56	8.892	7.106	6.077	6.535	8.955	17.39	87.74	483.9	719.8	26.45	2.324	1.517	1.388	1.292	1.292	1.220	1.210	1.201	1.113	1.039	1.122	1.040	0.990	0.964	1.099	1.058	0.832	1.008
510.0	66.98	99.40	167.1	224.7	184.6	214.0	730.5	1483	418.0	222.4	218.6	206.1	184.7	165.7	144.7	130.4	118.1	110.4	105.7	100.4	96.80	94.29	93.72	91.81	91.23	88.71	87.46	86.96	86.81	86.94	84.37	77.79	71.89	64.41	58.68	53.09	47.71	43.41	38.79	35.20	31.40	29.33	30.16	29.27	23.40	17.61	14.53	12.45	10.35	8.594	7.480	6.262	5.448	5.597	6.978	22.21	119.6	398.0	522.9	110.4	8.239	1.443	1.236	1.146	1.022	1.146	0.979	1.037	0.953	0.973	1.008	0.929	0.874	0.914	0.945	0.778	0.944
515.0	54.05	88.09	119.9	192.7	189.9	171.7	301.9	1233	1077	211.9	192.0	180.0	160.6	142.8	127.2	114.3	104.7	96.99	91.27	86.34	85.11	81.02	80.27	78.05	77.56	74.82	75.25	74.93	75.24	73.98	73.97	67.88	61.71	56.90	51.55	46.74	42.52	38.45	35.18	31.97	28.58	25.97	24.06	25.06	24.54	19.17	14.30	11.83	10.04	8.289	7.538	6.342	5.671	4.878	4.652	7.683	29.23	91.22	219.5	555.9	178.5	7.173	1.183	1.129	1.039	0.948	0.850	0.878	0.820	0.919	0.954	0.756	0.879	0.855	0.793	0.859	0.811
520.0	51.61	77.10	106.9	160.2	193.7	156.1	186.2	651.5	1611	325.9	168.8	160.5	145.4	131.6	114.7	101.6	92.70	86.57	81.07	76.65	75.24	71.90	71.07	69.12	67.93	66.31	66.68	66.39	66.83	65.81	64.32	60.97	55.26	51.40	46.38	42.31	38.07	35.30	32.16	29.74	26.05	24.28	22.17	20.97	23.38	20.48	14.53	11.32	9.877	7.963	6.994	6.217	5.647	4.847	4.020	4.380	9.043	22.64	52.90	289.5	629.1	131.2	2.329	1.061	0.980	0.848	0.802	0.795	0.791	0.802	0.792	0.811	0.768	0.791	0.625	0.712	0.676
525.0	46.85	69.95	92.51	126.8	184.9	148.6	151.7	289.7	1585	734.8	156.2	151.0	132.8	119.4	105.8	91.67	84.94	77.80	72.52	71.32	67.63	64.19	62.64	62.50	61.61	59.47	59.49	59.65	60.14	59.62	57.76	54.97	50.45	46.26	41.31	38.16	35.10	32.37	29.44	26.90	24.31	22.39	20.02	18.38	20.05	20.50	15.46	11.38	9.600	8.061	7.208	6.080	5.640	4.714	4.107	3.731	4.586	7.124	13.81	73.18	422.0	528.0	23.36	1.335	1.041	0.703	0.856	0.760	0.661	0.783	0.794	0.728	0.579	0.620	0.691	0.648	0.725
530.0	38.12	64.41	86.65	99.62	154.4	154.4	128.0	165.9	788.3	1469	299.6	132.6	119.1	105.2	92.43	82.56	74.65	68.76	63.97	62.04	58.29	56.68	55.67	54.59	53.30	52.83	50.79	51.55	51.71	52.26	49.64	47.88	44.23	40.17	37.20	33.89	31.00	28.44	26.29	24.01	21.87	19.97	17.92	16.61	16.32	17.35	16.16	12.15	9.189	7.489	6.592	5.491	5.207	4.830	4.140	3.592	3.428	3.585	4.837	17.97	106.8	325.0	295.5	97.67	5.323	0.789	0.787	0.725	0.688	0.633	0.628	0.593	0.646	0.587	0.598	0.678	0.635
535.0	30.45	55.39	75.79	84.90	108.3	158.5	118.8	120.9	274.5	1352	947.7	122.9	105.3	90.64	79.48	70.64	64.67	58.80	55.70	53.03	49.87	47.83	47.60	46.44	45.61	45.06	45.16	45.16	45.59	44.64	43.52	40.82	38.04	34.61	32.08	29.57	27.34	24.92	23.11	20.82	19.01	17.50	15.78	14.76	14.05	13.64	14.45	12.77	9.097	7.272	6.178	5.431	4.890	4.434	4.290	3.446	3.006	2.720	2.856	5.622	25.26	74.45	151.1	384.5	133.9	3.203	0.776	0.752	0.642	0.530	0.554	0.584	0.627	0.515	0.582	0.607	0.567
540.0	28.44	45.31	59.38	74.37	90.56	140.7	126.9	104.9	140.8	716.9	1566	171.5	94.64	81.28	71.36	64.21	56.69	52.57	49.35	47.27	44.46	43.06	42.03	40.78	40.82	39.75	39.37	39.54	40.83	39.66	38.03	35.92	33.36	31.43	28.42	26.25	24.34	22.21	20.86	18.78	17.57	15.85	14.97	13.60	12.43	11.98	12.18	12.71	10.01	7.202	5.832	5.118	4.545	3.975	4.005	3.574	3.171	2.560	2.414	2.690	7.020	17.86	37.04	212.8	371.8	25.72	1.479	0.662	0.614	0.607	0.721	0.598	0.454	0.466	0.545	0.467	0.450
545.0	28.97	44.28	58.89	67.90	78.62	115.2	131.8	95.47	105.4	278.0	1687	549.2	86.58	73.92	64.68	57.38	50.81	47.53	43.87	42.68	40.52	38.97	37.17	37.14	36.41	35.24	34.31	35.61	36.22	36.15	34.68	32.43	29.73	27.66	25.64	23.63	22.11	19.89	18.90	17.47	15.89	14.41	13.38	12.50	11.22	10.40	10.19	10.80	10.34	7.610	5.613	5.003	4.468	3.913	3.721	3.498	3.154	2.552	2.295	2.061	2.956	5.123	9.414	54.64	262.7	216.5	20.06	0.838	0.645	0.595	0.596	0.510	0.525	0.392	0.466	0.425	0.436
550.0	27.96	37.49	52.77	57.53	66.22	83.17	126.9	98.17	88.23	130.3	846.4	1365	183.9	64.14	57.09	50.01	44.37	41.96	38.40	36.47	35.06	33.41	32.23	32.30	31.57	31.15	29.51	30.37	29.96	30.33	29.55	27.92	25.84	23.92	21.79	20.77	19.13	17.62	16.32	14.99	14.07	13.32	11.93	10.91	10.12	9.276	8.545	8.154	9.048	7.982	5.826	4.672	4.169	3.578	3.434	3.166	2.923	2.643	2.216	1.911	1.960	2.244	3.203	13.16	67.15	179.1	228.6	80.75	3.408	0.599	0.596	0.490	0.511	0.380	0.424	0.385	0.452
555.0	22.98	37.67	44.92	49.82	56.32	63.79	96.57	112.7	77.96	86.91	255.6	1395	725.3	61.49	48.53	43.78	38.88	35.63	32.67	31.04	29.93	28.25	27.51	27.34	27.10	25.91	25.14	25.67	24.97	25.72	26.17	24.04	21.58	20.76	18.66	17.40	16.77	15.01	13.97	13.24	12.22	10.99	10.19	9.470	9.246	8.159	7.581	6.851	6.880	7.305	6.353	4.643	4.036	3.615	3.106	2.730	2.627	2.549	2.113	1.712	1.563	1.605	1.693	3.840	15.71	41.13	113.9	275.7	28.26	2.352	0.545	0.443	0.444	0.314	0.404	0.398	0.364
560.0	22.42	31.40	38.59	42.91	49.59	53.21	72.91	117.4	72.88	73.72	112.1	751.6	1383	101.6	43.84	38.58	33.47	30.87	28.66	27.25	25.39	24.96	24.37	23.65	22.99	22.76	22.36	22.38	21.61	23.47	21.84	21.10	19.60	18.43	16.45	15.40	14.56	13.79	12.42	11.36	11.07	9.789	9.227	8.771	8.206	7.711	6.759	6.068	5.832	6.089	6.367	5.218	3.789	3.137	2.967	2.656	2.405	2.172	2.179	1.924	1.478	1.329	1.266	1.593	4.233	9.881	28.07	157.1	222.9	23.90	0.933	0.494	0.426	0.386	0.415	0.357	0.360
565.0	21.64	30.60	38.12	41.46	39.95	48.40	55.09	105.7	80.61	66.48	76.40	268.9	1571	356.2	39.67	35.17	30.04	28.26	25.85	24.43	22.61	21.82	21.50	20.96	20.43	19.58	19.65	18.87	20.30	19.98	19.46	18.04	17.12	15.75	14.66	14.15	13.00	12.55	11.19	10.50	9.893	8.967	8.255	7.834	7.220	6.598	5.961	5.430	5.220	5.011	5.696	5.298	3.623	2.859	2.848	2.457	2.249	2.020	2.063	1.944	1.434	1.210	1.016	1.090	1.526	2.875	7.017	40.58	178.0	197.3	17.36	0.600	0.385	0.373	0.370	0.322	0.388
570.0	19.89	30.64	37.92	38.10	36.34	41.39	46.81	74.23	95.31	63.04	62.86	105.3	793.6	1095	73.32	29.17	24.56	23.04	21.77	20.01	18.61	17.95	18.16	17.00	16.70	15.98	16.01	15.50	15.93	16.42	15.76	15.20	14.28	12.94	12.12	11.39	10.68	10.18	9.164	8.613	8.121	7.470	6.841	6.377	6.210	5.704	5.042	4.436	4.138	3.804	3.999	4.490	3.783	2.800	2.384	2.123	1.906	1.781	1.676	1.677	1.561	1.210	1.061	0.965	0.988	1.299	2.213	9.632	45.95	134.0	157.9	49.51	2.135	0.400	0.292	0.324	0.364
575.0	18.52	29.24	37.58	31.28	29.09	31.72	34.96	46.00	92.83	72.32	56.40	65.91	224.5	1212	488.1	26.69	19.02	18.11	16.55	16.11	14.63	14.28	14.06	13.58	13.02	12.69	12.48	12.03	12.52	12.70	12.33	11.65	10.63	9.877	9.535	8.982	8.361	7.930	7.142	6.870	6.291	5.849	5.689	5.291	4.971	4.592	4.236	3.680	3.403	3.073	2.857	3.203	3.579	2.912	2.191	1.834	1.760	1.403	1.672	1.332	1.392	1.347	1.096	0.789	0.789	0.816	1.057	2.578	10.77	30.71	74.11	166.2	26.43	1.307	0.316	0.337	0.273
580.0	21.53	27.26	35.14	30.30	27.85	28.02	31.25	35.95	72.98	87.83	53.55	58.86	90.09	639.6	1058	52.70	16.95	14.67	13.87	13.19	12.01	11.85	11.57	10.96	10.28	10.37	9.887	10.05	10.52	10.29	9.919	9.660	8.753	7.969	7.958	7.108	6.797	6.384	5.758	5.677	5.149	5.154	4.636	4.282	3.972	3.671	3.296	3.141	2.767	2.504	2.184	2.411	2.831	2.781	2.208	1.676	1.510	1.129	1.158	1.122	1.047	1.206	1.111	0.771	0.698	0.726	0.768	0.997	2.833	7.252	17.98	92.32	138.8	20.33	0.634	0.292	0.207
585.0	25.19	28.47	30.37	26.88	25.83	25.17	26.77	29.78	54.03	96.89	60.03	53.37	58.71	214.5	1267	215.3	14.58	12.27	11.69	11.11	10.02	9.941	9.562	9.156	8.535	8.894	8.247	8.248	8.402	8.480	8.156	7.927	6.808	6.785	6.347	5.890	5.675	5.044	4.883	4.469	4.270	4.129	3.913	3.707	3.362	3.046	2.744	2.538	2.376	2.202	1.691	1.656	2.138	2.356	2.289	1.611	1.265	1.071	1.040	0.997	0.992	1.057	1.051	0.843	0.692	0.689	0.613	0.635	1.131	2.016	4.358	23.90	100.0	106.3	11.87	0.424	0.186
590.0	26.49	28.05	30.61	24.82	21.22	21.23	21.28	28.07	38.80	82.65	74.97	56.33	51.09	74.61	643.2	769.9	40.51	10.04	9.152	8.791	7.948	7.586	7.372	7.108	6.586	6.595	6.300	6.257	6.530	6.506	6.277	5.979	5.425	5.442	4.811	4.590	4.173	3.775	3.742	3.426	3.224	3.225	2.917	2.751	2.586	2.418	2.210	2.042	1.846	1.666	1.427	1.443	1.555	1.713	1.895	1.535	1.202	1.029	0.833	0.824	0.811	0.752	0.891	0.947	0.755	0.659	0.636	0.570	0.702	0.835	1.372	5.656	25.58	69.27	80.41	16.43	1.066
595.0	24.04	27.44	27.75	21.82	18.65	20.25	18.68	24.98	32.33	58.64	92.71	60.02	49.97	41.08	165.9	863.1	317.9	9.624	7.251	7.201	6.077	5.552	5.782	5.512	5.319	4.670	4.779	4.700	5.118	4.965	4.836	4.575	4.233	4.151	3.517	3.619	3.172	2.914	2.834	2.604	2.448	2.451	2.165	2.227	2.110	1.946	1.677	1.668	1.362	1.297	1.195	1.107	1.148	1.084	1.487	1.426	1.207	0.894	0.731	0.711	0.657	0.620	0.626	0.735	0.918	0.678	0.599	0.528	0.577	0.513	0.613	1.569	5.923	15.84	36.15	80.99	22.73
600.0	20.29	30.61	26.93	22.95	16.84	16.45	17.83	24.82	28.50	44.74	91.39	67.65	50.33	32.48	50.80	449.6	645.8	24.59	6.071	6.315	5.180	4.699	4.402	4.166	4.302	3.844	3.765	3.953	4.196	4.194	3.641	3.726	3.716	3.610	2.854	3.051	2.592	2.544	2.341	2.176	2.208	1.892	1.899	1.748	1.719	1.482	1.434	1.375	1.144	1.117	1.054	0.977	0.963	0.860	1.095	1.105	1.207	0.816	0.577	0.597	0.649	0.593	0.549	0.494	0.751	0.817	0.560	0.518	0.472	0.453	0.425	0.643	1.578	3.730	8.734	43.76	72.65
605.0	19.58	30.78	26.54	20.60	15.55	15.38	16.80	20.44	26.11	38.38	76.91	78.53	50.16	31.91	23.81	139.3	835.8	69.98	5.498	5.583	4.635	4.074	3.837	3.831	3.495	3.101	3.001	3.298	3.317	3.417	3.070	3.165	3.172	2.847	2.416	2.461	2.265	2.105	2.039	1.753	1.788	1.679	1.577	1.475	1.441	1.396	1.253	1.200	1.055	0.894	0.825	0.837	0.810	0.758	0.827	0.936	1.115	0.965	0.625	0.526	0.598	0.528	0.493	0.413	0.628	0.849	0.582	0.470	0.447	0.419	0.380	0.389	0.534	1.010	2.171	11.16	50.16
610.0	18.24	28.28	26.50	19.91	15.05	13.97	15.28	19.56	25.35	35.90	58.25	86.10	53.60	31.16	18.44	39.73	418.5	515.6	24.25	4.953	3.880	3.446	3.215	2.997	2.941	2.840	2.641	2.708	2.720	2.637	2.518	2.424	2.503	2.215	1.964	1.918	1.988	1.698	1.572	1.328	1.499	1.320	1.257	1.246	1.200	1.131	1.027	0.986	0.888	0.734	0.694	0.678	0.702	0.604	0.648	0.607	0.899	0.859	0.609	0.489	0.436	0.367	0.470	0.426	0.550	0.612	0.610	0.595	0.424	0.430	0.382	0.313	0.352	0.399	0.673	2.669	12.64
615.0	18.15	26.88	25.56	20.40	13.42	12.31	16.05	16.89	23.19	33.47	46.46	77.01	64.46	29.27	16.27	15.93	104.7	587.3	206.6	5.317	3.131	2.768	2.657	2.293	2.374	2.351	2.227	2.148	2.080	2.246	1.835	1.965	1.826	1.828	1.531	1.590	1.419	1.241	1.349	1.133	1.224	0.930	1.021	0.911	0.860	0.882	0.865	0.799	0.637	0.613	0.550	0.566	0.592	0.488	0.524	0.503	0.571	0.699	0.590	0.521	0.376	0.324	0.366	0.416	0.468	0.401	0.554	0.571	0.486	0.443	0.342	0.219	0.259	0.259	0.301	0.738	2.967
620.0	19.47	27.45	24.37	19.52	12.43	11.50	13.97	17.99	22.63	31.34	42.45	60.96	70.76	30.98	15.26	10.63	28.90	307.0	486.8	23.34	2.533	2.369	2.335	1.921	2.038	1.968	1.774	1.964	1.703	1.798	1.569	1.692	1.529	1.395	1.282	1.357	1.151	1.136	1.097	1.030	0.965	0.803	0.980	0.714	0.709	0.726	0.760	0.694	0.510	0.482	0.518	0.535	0.479	0.430	0.444	0.460	0.469	0.559	0.618	0.481	0.424	0.401	0.338	0.413	0.393	0.350	0.463	0.452	0.622	0.431	0.280	0.228	0.211	0.213	0.199	0.429	0.821
625.0	20.16	27.07	20.74	16.37	12.96	12.67	12.45	16.19	20.85	29.17	37.79	50.73	70.26	35.37	14.83	9.300	11.95	95.01	613.5	61.73	2.296	2.200	2.065	1.857	1.662	1.623	1.658	1.586	1.590	1.546	1.326	1.505	1.391	1.244	1.316	1.117	1.020	1.061	0.950	0.847	0.802	0.768	0.738	0.675	0.705	0.597	0.602	0.598	0.470	0.404	0.418	0.471	0.463	0.386	0.372	0.383	0.444	0.476	0.466	0.485	0.436	0.354	0.296	0.364	0.343	0.338	0.394	0.345	0.586	0.544	0.361	0.289	0.252	0.259	0.203	0.276	0.349
630.0	15.00	22.87	21.93	14.88	11.53	10.36	12.81	15.92	19.25	27.57	35.53	43.86	55.56	43.04	15.47	9.012	7.715	25.83	322.6	633.2	16.83	1.873	1.650	1.582	1.339	1.403	1.207	1.259	1.348	1.240	1.219	1.188	1.182	1.035	0.995	1.000	0.905	0.824	0.831	0.649	0.609	0.698	0.592	0.535	0.507	0.540	0.507	0.455	0.407	0.355	0.357	0.331	0.348	0.328	0.304	0.325	0.360	0.344	0.366	0.416	0.415	0.325	0.336	0.299	0.325	0.358	0.309	0.368	0.384	0.467	0.425	0.338	0.233	0.220	0.235	0.183	0.258
635.0	19.28	20.24	20.26	14.10	11.04	9.255	11.63	14.48	17.06	25.16	31.61	37.23	41.33	47.94	19.53	8.436	6.908	9.321	79.33	789.9	150.7	2.003	1.373	1.261	1.226	1.156	1.037	0.939	1.007	1.167	0.977	0.940	0.958	0.756	0.759	0.684	0.719	0.643	0.665	0.536	0.493	0.586	0.463	0.500	0.436	0.394	0.370	0.344	0.389	0.287	0.271	0.283	0.281	0.308	0.307	0.302	0.298	0.263	0.266	0.321	0.360	0.440	0.343	0.264	0.244	0.328	0.293	0.303	0.248	0.341	0.480	0.334	0.230	0.265	0.258	0.213	0.227
640.0	13.82	19.24	18.72	15.08	10.18	9.240	11.48	13.79	16.95	21.83	30.61	34.65	33.33	42.35	24.40	9.064	6.107	6.047	20.45	433.8	364.5	7.815	1.385	1.183	0.988	0.961	1.009	0.883	0.944	0.870	0.830	0.705	0.713	0.735	0.636	0.595	0.550	0.490	0.524	0.554	0.453	0.436	0.472	0.415	0.330	0.404	0.362	0.326	0.343	0.307	0.252	0.214	0.238	0.241	0.263	0.220	0.198	0.239	0.265	0.247	0.303	0.355	0.330	0.266	0.294	0.267	0.263	0.276	0.344	0.239	0.429	0.350	0.338	0.221	0.204	0.235	0.190
645.0	14.11	19.78	18.91	13.26	11.23	9.270	10.69	13.06	16.04	20.13	26.65	32.40	31.66	33.08	29.60	9.666	6.443	5.127	7.147	134.5	458.8	42.25	1.354	1.154	1.075	0.916	0.959	0.690	0.811	0.817	0.738	0.640	0.620	0.720	0.533	0.565	0.549	0.454	0.461	0.449	0.431	0.355	0.379	0.342	0.275	0.368	0.269	0.285	0.326	0.256	0.268	0.175	0.180	0.249	0.248	0.200	0.234	0.219	0.210	0.296	0.240	0.271	0.342	0.304	0.253	0.257	0.298	0.266	0.233	0.256	0.304	0.353	0.410	0.224	0.181	0.244	0.169
650.0	13.46	18.52	17.60	12.84	9.478	8.358	9.434	11.69	14.66	20.49	26.31	29.96	28.75	26.00	31.71	11.67	6.697	4.663	4.152	34.04	331.3	201.2	2.468	1.154	1.010	0.780	0.674	0.727	0.634	0.695	0.715	0.589	0.594	0.592	0.434	0.548	0.599	0.448	0.509	0.386	0.293	0.342	0.338	0.315	0.296	0.335	0.300	0.267	0.233	0.197	0.244	0.167	0.221	0.231	0.201	0.210	0.203	0.201	0.197	0.203	0.225	0.302	0.275	0.211	0.232	0.223	0.263	0.284	0.262	0.277	0.246	0.291	0.327	0.295	0.211	0.222	0.176
