Sample:	'1
File name:	G2025051411晋控明水循环水1.FD3
Run date:	'13:58:17, 05/21/2025
Operator:	Administrator
Comment:	'

Instrument
Model:	F-2700 FL Spectrophotometer
Serial number:	23B8-004
ROM Version:	4J14000 07

Instrument parameters
Measurement type:	3-D scan
Data mode:	Fluorescence
EX  Start WL:	220.0 nm
EX  End WL:	600.0 nm
EX Sampling interval:	5.0 nm
EM  Start WL:	230.0 nm
EM  End WL:	650.0 nm
EM Sampling interval:	5.0 nm
Scan speed:	12000 nm/min
EX Slit:	5.0 nm
EM Slit:	5.0 nm
PMT Voltage:	700 V
Response:	Auto 
Corrected spectra:	Off
Contour interval:	50.000

Peak integration
Integration method:	Rectangular
Sensitivity:	1
Threshold:	1.000

Peaks
No.	ApexEX/EM(nm)	Height(Data)
1	225.0/575.0	28.59
2	230.0/505.0	152.7
3	235.0/510.0	174.5
4	240.0/265.0	380.8
5	240.0/385.0	2027
6	240.0/400.0	1623
7	240.0/525.0	177.8
8	240.0/605.0	16.54
9	245.0/270.0	416.5
10	245.0/535.0	164.6
11	250.0/275.0	529.0
12	250.0/550.0	136.1
13	255.0/280.0	570.2
14	255.0/565.0	115.4
15	260.0/290.0	508.5
16	260.0/575.0	101.3
17	265.0/295.0	613.3
18	265.0/585.0	84.81
19	270.0/300.0	814.3
20	270.0/600.0	80.95
21	275.0/305.0	766.3
22	275.0/610.0	61.67
23	280.0/385.0	2939
24	280.0/400.0	2310
25	280.0/625.0	53.36
26	285.0/320.0	660.6
27	285.0/635.0	39.91
28	290.0/325.0	585.3
29	295.0/330.0	436.8
30	300.0/335.0	410.4
31	305.0/345.0	379.7
32	310.0/350.0	306.2
33	315.0/355.0	302.5
34	320.0/365.0	301.4
35	355.0/385.0	1540
36	355.0/405.0	1327
37	370.0/405.0	1437
38	395.0/460.0	71.58
39	400.0/465.0	61.89
40	415.0/485.0	37.19
41	430.0/505.0	22.99
42	445.0/525.0	13.43
43	455.0/540.0	8.716
44	485.0/265.0	2.114
45	485.0/385.0	8.254
46	495.0/270.0	2.206
47	505.0/275.0	3.138
48	510.0/280.0	3.409
49	520.0/285.0	3.346
50	525.0/290.0	3.222
51	540.0/295.0	4.040
52	545.0/300.0	4.377
53	545.0/385.0	9.425
54	550.0/305.0	4.549
55	560.0/310.0	3.801
56	565.0/385.0	15.60
57	570.0/315.0	4.247
58	570.0/405.0	12.80
59	580.0/320.0	4.144
60	585.0/325.0	3.902

Data points
	220.0	225.0	230.0	235.0	240.0	245.0	250.0	255.0	260.0	265.0	270.0	275.0	280.0	285.0	290.0	295.0	300.0	305.0	310.0	315.0	320.0	325.0	330.0	335.0	340.0	345.0	350.0	355.0	360.0	365.0	370.0	375.0	380.0	385.0	390.0	395.0	400.0	405.0	410.0	415.0	420.0	425.0	430.0	435.0	440.0	445.0	450.0	455.0	460.0	465.0	470.0	475.0	480.0	485.0	490.0	495.0	500.0	505.0	510.0	515.0	520.0	525.0	530.0	535.0	540.0	545.0	550.0	555.0	560.0	565.0	570.0	575.0	580.0	585.0	590.0	595.0	600.0
230.0	32.54	207.0	758.4	360.8	25.93	7.145	5.014	4.881	4.214	3.388	3.508	3.005	2.870	2.251	1.755	1.436	1.271	1.273	1.181	1.048	0.903	0.843	0.849	0.840	0.822	0.792	0.770	0.740	0.732	0.701	0.734	0.749	0.592	0.484	0.450	0.463	0.410	0.410	0.391	0.409	0.404	0.409	0.411	0.394	0.389	0.349	0.449	1.094	2.320	2.466	1.355	0.469	0.288	0.279	0.292	0.326	0.315	0.289	0.293	0.322	0.295	0.252	0.312	0.274	0.326	0.298	0.285	0.287	0.305	0.277	0.341	0.327	0.320	0.319	0.277	0.302	0.303
235.0	46.48	77.07	532.8	1376	505.5	44.83	6.300	5.409	4.909	3.521	3.259	3.105	2.945	2.373	1.826	1.422	1.318	1.398	1.114	1.066	0.992	0.943	0.745	0.772	0.710	0.830	0.853	0.709	0.699	0.727	0.637	0.706	0.594	0.501	0.452	0.394	0.384	0.412	0.418	0.483	0.433	0.365	0.407	0.371	0.405	0.357	0.381	0.549	1.014	2.150	4.486	5.583	3.157	0.865	0.348	0.280	0.302	0.284	0.307	0.277	0.278	0.273	0.311	0.282	0.370	0.257	0.251	0.242	0.310	0.269	0.307	0.308	0.309	0.282	0.297	0.380	0.328
240.0	70.46	76.32	173.5	1224	1898	419.9	23.22	5.214	4.753	4.082	3.450	3.579	3.075	2.528	1.719	1.571	1.259	1.223	1.153	1.081	0.939	0.887	0.808	0.736	0.819	0.781	0.935	0.838	0.758	0.749	0.774	0.755	0.581	0.521	0.446	0.375	0.452	0.466	0.431	0.476	0.477	0.389	0.431	0.372	0.472	0.484	0.468	0.419	0.506	0.835	2.383	6.626	9.105	7.686	2.735	0.559	0.333	0.270	0.297	0.269	0.296	0.241	0.276	0.274	0.323	0.256	0.398	0.283	0.310	0.299	0.289	0.308	0.273	0.277	0.277	0.365	0.309
245.0	57.43	105.9	89.25	423.5	2026	2213	306.3	12.31	4.909	4.520	4.248	3.697	2.579	2.363	1.753	1.907	1.447	1.345	1.136	1.090	0.968	0.926	0.879	0.984	0.853	0.729	0.946	0.780	0.680	0.748	0.728	0.801	0.577	0.449	0.440	0.370	0.393	0.456	0.462	0.381	0.434	0.450	0.449	0.393	0.364	0.513	0.564	0.528	0.419	0.373	0.764	2.351	6.055	11.68	12.02	6.697	2.281	0.445	0.334	0.295	0.313	0.252	0.318	0.250	0.313	0.339	0.324	0.278	0.291	0.297	0.269	0.334	0.304	0.263	0.272	0.310	0.224
250.0	41.15	89.42	177.1	178.4	654.7	2106	2800	1000	57.69	6.474	5.402	4.130	3.387	2.422	2.334	1.782	1.372	1.372	1.300	1.095	1.006	1.061	0.912	0.925	0.903	0.770	0.939	0.901	0.701	0.794	0.842	0.781	0.640	0.494	0.470	0.416	0.382	0.471	0.460	0.403	0.459	0.415	0.439	0.346	0.429	0.456	0.473	0.622	0.712	0.694	0.625	0.851	1.727	3.725	6.865	11.24	14.31	12.65	7.350	2.168	0.457	0.332	0.359	0.287	0.318	0.328	0.357	0.287	0.329	0.328	0.306	0.356	0.268	0.292	0.310	0.304	0.276
255.0	35.34	45.78	144.9	281.7	242.8	540.6	2170	4269	1343	47.81	6.848	4.922	4.475	2.941	2.600	2.023	1.569	1.274	1.235	1.028	1.149	1.091	0.879	0.843	0.902	0.793	0.887	0.932	0.763	0.667	0.803	0.815	0.638	0.526	0.494	0.398	0.420	0.411	0.437	0.506	0.485	0.454	0.418	0.388	0.404	0.451	0.386	0.361	0.446	0.748	1.062	1.299	0.936	1.175	1.807	3.043	5.168	12.53	22.68	22.04	10.97	2.276	0.496	0.374	0.342	0.322	0.326	0.275	0.290	0.334	0.375	0.342	0.328	0.348	0.302	0.344	0.303
260.0	34.01	33.57	62.40	264.3	305.2	185.8	673.0	3581	4603	260.1	22.38	6.240	5.209	3.328	3.124	2.032	1.690	1.363	1.617	1.145	1.153	1.086	0.954	0.925	1.017	1.001	0.831	0.880	0.792	0.855	0.764	0.994	0.679	0.549	0.503	0.444	0.464	0.487	0.484	0.413	0.435	0.432	0.409	0.433	0.381	0.459	0.303	0.302	0.392	0.450	0.847	1.770	1.764	1.082	0.822	1.078	1.573	3.560	9.652	20.89	29.24	22.54	7.891	1.314	0.352	0.409	0.411	0.334	0.297	0.339	0.340	0.359	0.313	0.400	0.329	0.328	0.301
265.0	39.15	31.97	33.96	120.8	380.8	258.1	204.1	1233	4994	4288	200.7	10.81	6.701	4.236	3.699	2.731	2.160	1.744	1.676	1.477	1.157	1.325	0.869	1.038	1.080	0.847	0.879	1.017	0.761	0.958	0.949	0.959	0.715	0.571	0.539	0.484	0.527	0.419	0.453	0.412	0.426	0.452	0.394	0.390	0.351	0.371	0.397	0.400	0.353	0.360	0.443	0.907	1.669	2.114	1.518	0.868	0.697	1.283	2.609	6.467	16.00	29.68	31.15	18.84	4.762	0.622	0.394	0.346	0.279	0.323	0.347	0.321	0.338	0.356	0.332	0.346	0.357
270.0	41.92	34.39	26.76	49.78	204.6	416.5	296.1	338.9	1648	4665	4380	751.9	36.75	6.537	4.482	3.029	2.426	2.043	1.780	1.597	1.262	1.403	0.961	1.152	1.031	0.912	0.994	1.072	0.880	0.901	0.915	0.850	0.697	0.621	0.558	0.525	0.503	0.450	0.458	0.431	0.431	0.452	0.405	0.399	0.394	0.443	0.368	0.414	0.352	0.316	0.372	0.514	0.769	1.346	1.969	2.206	1.920	1.169	1.105	1.851	4.094	8.810	16.54	25.91	29.12	27.09	13.71	4.201	0.593	0.338	0.332	0.360	0.341	0.325	0.324	0.374	0.366
275.0	50.68	41.43	40.34	40.05	95.13	240.2	529.0	323.7	416.6	1202	4203	7477	968.6	25.44	6.595	4.111	2.988	2.345	2.347	1.839	1.622	1.368	1.305	1.229	1.062	0.999	1.226	0.975	1.046	0.856	1.005	0.875	0.771	0.656	0.678	0.516	0.523	0.469	0.540	0.485	0.422	0.532	0.469	0.419	0.448	0.455	0.411	0.421	0.407	0.348	0.356	0.391	0.532	0.676	0.959	1.412	2.529	3.138	2.195	1.155	1.353	2.374	4.104	6.315	9.352	21.13	40.71	32.49	20.45	4.124	0.549	0.445	0.371	0.463	0.365	0.348	0.361
280.0	52.33	53.65	48.43	45.74	71.12	129.1	373.8	570.2	223.5	319.4	1298	6628	6549	142.0	11.70	5.072	3.692	2.763	2.297	2.100	1.772	1.498	1.243	1.174	1.142	1.000	1.219	1.071	1.033	0.916	0.920	0.894	0.809	0.830	0.719	0.535	0.555	0.512	0.446	0.487	0.490	0.521	0.461	0.424	0.395	0.449	0.429	0.458	0.447	0.409	0.367	0.360	0.522	0.533	0.613	0.850	1.403	2.398	3.409	2.608	1.442	1.013	1.349	1.832	2.545	5.619	15.06	31.21	49.49	31.05	14.43	1.921	0.401	0.528	0.449	0.431	0.448
285.0	65.30	74.82	67.31	55.83	66.02	92.72	185.1	542.6	343.0	153.2	353.6	2196	7817	4923	99.39	7.741	4.964	3.962	2.366	2.214	1.753	1.619	1.451	1.329	1.273	1.122	1.211	1.228	1.061	0.936	0.963	0.961	0.836	0.714	0.635	0.529	0.586	0.502	0.562	0.500	0.488	0.538	0.495	0.439	0.408	0.450	0.461	0.541	0.461	0.446	0.385	0.499	0.482	0.576	0.559	0.703	0.868	1.199	2.041	3.153	3.346	1.945	0.973	0.949	1.071	1.741	3.947	8.648	21.18	39.93	50.75	26.70	8.346	0.922	0.431	0.380	0.464
290.0	84.30	90.30	89.82	75.53	74.11	83.25	108.0	236.1	508.5	435.5	201.2	579.3	2461	5774	5316	406.2	18.56	5.255	3.510	2.809	2.208	1.861	1.717	1.508	1.437	1.293	1.226	1.195	1.122	1.006	1.100	0.988	0.797	0.718	0.673	0.657	0.615	0.559	0.552	0.493	0.522	0.518	0.526	0.458	0.514	0.473	0.549	0.588	0.563	0.493	0.445	0.565	0.547	0.497	0.556	0.621	0.680	0.798	1.036	1.378	2.189	3.222	3.046	2.248	1.263	1.003	1.626	2.598	5.431	10.81	20.41	30.32	31.62	34.58	17.59	7.596	1.039
295.0	87.60	106.1	102.9	96.85	79.55	83.85	89.58	129.5	235.8	613.3	521.8	266.6	644.7	1458	4460	6208	534.5	13.51	4.808	3.541	2.399	2.191	1.885	1.472	1.552	1.410	1.362	1.158	1.169	1.000	1.099	1.112	0.821	0.865	0.798	0.761	0.705	0.575	0.675	0.496	0.564	0.445	0.502	0.457	0.569	0.520	0.558	0.558	0.587	0.586	0.545	0.562	0.625	0.549	0.592	0.682	0.672	0.738	0.858	0.879	1.149	1.462	1.971	3.744	4.040	2.356	1.520	1.339	1.965	3.131	5.235	7.517	8.804	18.72	38.32	51.93	27.53
300.0	90.63	109.0	123.1	110.7	93.89	96.76	104.8	125.3	165.2	389.0	814.3	391.8	275.4	417.8	1307	5804	4999	81.75	7.853	4.625	2.532	2.608	2.215	1.928	1.630	1.500	1.451	1.229	1.303	1.167	1.217	1.091	0.958	0.791	0.846	0.710	0.668	0.647	0.568	0.444	0.524	0.532	0.512	0.432	0.567	0.589	0.544	0.607	0.588	0.605	0.546	0.677	0.693	0.688	0.605	0.725	0.817	0.690	0.797	0.972	0.911	1.172	1.422	2.105	3.783	4.377	3.377	1.784	1.444	1.536	1.931	2.433	2.570	4.925	11.79	29.22	49.38
305.0	98.61	115.7	135.6	122.3	100.1	116.3	130.7	154.8	184.1	279.4	647.6	766.3	297.7	218.7	380.9	1908	6553	3748	59.59	6.003	3.851	2.815	2.396	1.921	1.820	1.558	1.543	1.264	1.133	1.274	1.184	1.160	0.985	0.816	0.782	0.755	0.590	0.618	0.578	0.571	0.611	0.502	0.488	0.480	0.537	0.609	0.579	0.669	0.558	0.645	0.616	0.747	0.666	0.738	0.726	0.799	0.873	0.963	0.996	1.100	0.987	1.259	1.452	1.521	2.137	3.265	4.549	4.008	2.321	1.473	1.439	1.480	1.407	1.843	3.341	7.682	17.41
310.0	96.74	124.0	137.8	136.9	117.8	124.4	147.2	174.1	206.7	274.5	402.7	689.8	656.6	280.4	200.6	510.5	2077	4676	4119	282.1	13.37	4.062	2.941	2.378	2.090	1.769	1.663	1.454	1.352	1.235	1.351	1.178	0.971	0.966	0.814	0.716	0.687	0.630	0.607	0.532	0.561	0.575	0.540	0.529	0.493	0.544	0.552	0.635	0.642	0.669	0.636	0.788	0.769	0.772	0.729	0.848	0.886	0.957	1.126	1.114	1.143	1.235	1.471	1.544	1.827	1.987	2.685	3.493	3.801	3.641	2.659	1.698	1.258	1.362	1.589	2.469	4.502
315.0	115.8	131.7	146.6	146.4	135.9	137.7	161.8	191.9	229.6	283.1	340.4	425.0	617.0	607.6	222.2	207.6	534.7	1167	3544	4411	397.8	9.662	4.010	3.030	2.090	2.038	2.043	1.665	1.676	1.199	1.425	1.184	0.843	0.882	0.815	0.707	0.768	0.607	0.621	0.503	0.553	0.596	0.546	0.521	0.527	0.580	0.535	0.628	0.688	0.663	0.627	0.823	0.835	0.785	0.791	0.937	0.895	1.015	1.237	1.261	1.243	1.386	1.454	1.672	1.691	1.762	1.971	2.167	2.315	3.128	4.247	3.616	2.146	1.431	1.315	1.356	1.890
320.0	118.3	149.6	162.6	167.0	151.5	145.1	168.9	202.4	240.0	293.5	334.2	370.2	433.2	660.6	409.6	164.4	200.9	315.0	1021	4431	3740	61.39	6.290	4.057	2.477	2.256	2.065	1.666	1.576	1.263	1.333	1.410	0.990	1.008	0.846	0.624	0.719	0.658	0.595	0.508	0.608	0.637	0.569	0.515	0.537	0.570	0.609	0.733	0.773	0.720	0.658	0.956	0.866	0.832	0.892	1.080	0.920	1.115	1.114	1.274	1.352	1.356	1.511	1.637	1.685	1.802	1.966	1.924	2.008	2.140	2.866	3.799	4.144	2.697	1.764	1.330	1.306
325.0	127.0	167.5	213.5	186.8	164.9	159.6	176.4	213.4	248.0	294.7	337.4	358.3	362.1	471.7	585.3	244.6	137.2	129.8	267.3	1462	4961	2909	47.74	5.407	3.046	2.557	2.071	1.707	1.778	1.454	1.523	1.463	1.171	0.953	0.742	0.669	0.713	0.740	0.602	0.559	0.549	0.594	0.483	0.520	0.527	0.545	0.677	0.750	0.880	0.819	0.700	0.927	0.815	0.879	0.921	1.053	1.117	1.222	1.175	1.271	1.334	1.410	1.600	1.612	1.593	1.702	1.992	1.943	1.782	1.887	1.982	2.556	3.250	3.902	3.129	1.762	1.271
330.0	125.8	192.4	265.8	250.0	207.4	189.8	199.5	227.8	256.0	294.9	335.6	357.4	350.0	342.2	433.5	436.8	217.4	102.7	106.9	362.2	1577	3648	3298	231.0	10.88	3.250	2.694	2.160	1.877	1.631	1.559	1.493	1.190	0.996	0.830	0.719	0.691	0.699	0.640	0.563	0.531	0.685	0.573	0.572	0.597	0.620	0.696	0.867	0.985	1.024	0.940	1.072	1.095	0.987	1.004	1.043	1.241	1.246	1.260	1.339	1.311	1.425	1.562	1.639	1.656	1.731	1.943	1.840	1.855	1.930	1.809	1.970	2.127	2.542	2.998	3.170	2.661
335.0	130.9	213.2	305.2	313.5	257.7	237.2	228.0	247.6	271.9	299.5	336.9	361.9	348.4	315.2	303.6	349.5	410.4	170.7	86.33	127.3	383.9	907.3	2937	3571	342.1	8.724	3.678	2.986	2.466	1.988	1.997	1.614	1.340	1.076	1.042	0.856	0.768	0.789	0.711	0.565	0.589	0.640	0.647	0.538	0.704	0.676	0.760	0.914	1.070	1.108	1.025	1.233	1.299	1.236	1.209	1.134	1.226	1.416	1.409	1.240	1.455	1.545	1.578	1.666	1.701	1.777	1.815	1.763	1.944	1.834	1.863	1.899	1.978	2.043	2.087	2.069	2.488
340.0	145.1	221.5	335.0	344.2	301.5	271.0	267.7	275.5	286.8	315.9	341.1	363.9	353.0	317.9	276.9	263.4	382.9	318.9	112.8	83.69	127.0	233.5	851.7	3704	3152	52.80	5.457	3.606	2.799	2.094	2.079	1.652	1.348	1.032	1.045	0.932	0.736	0.760	0.676	0.596	0.619	0.646	0.655	0.615	0.631	0.770	0.737	0.920	1.202	1.080	1.156	1.348	1.373	1.378	1.323	1.296	1.259	1.547	1.467	1.402	1.517	1.555	1.511	1.692	1.692	1.891	1.788	1.765	1.899	1.810	2.023	2.053	1.918	1.809	1.976	1.645	1.859
345.0	143.5	222.1	354.6	387.0	344.3	313.4	303.1	297.7	309.1	337.5	348.5	364.4	356.0	318.9	281.8	240.9	270.1	379.7	208.3	87.32	80.36	90.80	220.8	1223	4133	2525	43.09	4.310	3.210	2.439	2.334	1.857	1.430	1.203	0.935	0.958	0.730	0.814	0.787	0.645	0.632	0.762	0.659	0.582	0.640	0.725	0.772	1.010	1.141	1.230	1.310	1.497	1.533	1.551	1.491	1.368	1.406	1.603	1.663	1.672	1.513	1.843	1.670	1.687	1.764	1.797	1.692	1.679	1.926	1.797	1.886	1.968	1.956	1.784	1.783	1.777	1.701
350.0	136.9	232.1	346.3	408.1	392.1	370.0	348.3	344.9	345.7	360.1	362.3	368.8	354.9	326.4	290.9	250.1	228.7	271.3	306.2	189.0	95.45	75.63	92.42	306.1	1307	2943	2722	209.9	11.86	3.253	2.588	2.272	1.526	1.254	1.051	0.913	0.782	0.774	0.748	0.692	0.607	0.680	0.625	0.560	0.573	0.660	0.785	0.981	1.152	1.210	1.259	1.535	1.695	1.732	1.579	1.613	1.655	1.801	1.713	1.766	1.776	1.932	1.835	1.947	1.820	1.860	1.848	1.858	1.863	1.949	1.762	2.018	2.056	1.830	1.833	1.788	1.818
355.0	148.0	226.1	345.3	437.6	439.6	434.0	399.2	386.8	379.5	391.0	381.5	372.5	362.0	333.5	302.2	265.2	236.0	223.2	241.3	302.5	179.1	95.40	81.63	114.4	323.4	724.8	2233	3172	330.6	10.73	4.193	3.238	2.247	1.332	1.086	0.953	0.964	0.705	0.664	0.624	0.619	0.708	0.550	0.604	0.576	0.625	0.818	1.001	1.194	1.252	1.343	1.764	1.802	1.772	1.670	1.790	2.017	1.794	1.896	1.830	1.853	2.035	2.095	2.158	1.877	2.091	1.732	1.915	1.965	1.962	1.842	1.999	2.088	1.924	1.912	1.782	1.830
360.0	151.4	226.5	359.5	452.2	468.6	461.4	439.4	419.0	409.5	410.5	398.8	385.3	371.1	344.9	313.8	277.6	251.2	226.8	211.6	272.9	283.9	141.9	93.45	81.33	116.4	194.6	631.7	2868	2956	52.36	8.257	6.102	2.854	1.624	1.230	1.035	1.024	0.894	0.727	0.669	0.618	0.650	0.534	0.580	0.589	0.727	0.853	0.978	1.084	1.257	1.289	1.845	1.889	1.931	1.890	1.923	2.131	2.068	2.003	1.912	2.072	2.128	2.071	2.152	2.021	2.019	1.875	1.916	1.923	1.912	1.941	1.927	2.150	1.869	1.926	1.699	1.948
365.0	139.9	243.4	364.0	460.9	492.8	496.6	463.5	436.2	428.6	431.8	423.3	404.0	394.6	358.2	321.3	290.0	261.4	239.4	221.8	225.1	301.4	236.1	124.5	96.47	86.57	89.96	180.9	913.4	3533	2462	45.76	15.08	6.115	2.472	1.460	1.111	0.924	0.923	0.775	0.747	0.648	0.746	0.584	0.567	0.603	0.741	0.812	0.953	1.115	1.237	1.446	1.872	1.999	2.042	1.923	2.002	2.096	2.263	2.046	2.184	2.132	2.093	2.116	2.140	2.106	2.036	1.967	2.215	1.968	2.046	2.252	1.979	2.195	2.000	1.877	1.872	2.085
370.0	141.8	246.1	414.6	579.6	640.2	641.8	537.1	509.7	500.7	533.6	586.8	554.1	669.9	505.8	350.3	311.5	290.8	270.7	250.1	240.8	267.4	308.4	266.4	197.5	165.9	164.5	225.7	389.8	1188	2648	2738	788.2	82.98	16.67	3.845	1.685	1.299	1.114	0.920	0.774	0.704	0.766	0.703	0.614	0.656	0.702	0.809	1.082	1.306	1.376	1.617	2.259	2.554	2.771	2.624	2.416	2.515	2.456	2.258	2.284	2.417	2.457	2.524	2.599	2.752	2.900	2.735	2.581	2.710	3.494	3.545	2.699	2.315	2.260	2.065	2.128	2.219
375.0	167.8	323.8	659.7	923.3	1236	1192	752.9	648.5	713.6	849.4	1157	1105	1451	1033	440.1	355.3	335.7	319.5	309.4	319.3	343.1	368.2	487.2	480.0	426.9	432.9	743.9	835.6	660.3	1165	2759	4050	1054	82.41	12.65	3.792	2.184	1.455	1.180	1.062	0.817	0.855	0.770	0.732	0.740	0.915	1.018	1.349	1.712	2.185	2.705	3.712	4.300	5.196	5.516	4.071	3.507	3.161	3.066	2.884	2.993	3.339	3.319	3.780	4.620	5.891	5.030	4.793	5.809	8.537	9.557	5.165	3.274	2.603	2.406	2.327	2.455
380.0	193.7	398.9	854.1	1325	1781	1632	913.0	755.2	886.6	1101	1632	1581	2491	1480	508.8	391.9	365.8	358.4	357.9	384.9	426.8	453.0	609.0	809.8	718.2	758.7	1192	1309	940.7	1096	1993	3873	2920	303.7	21.98	5.775	3.029	1.967	1.460	1.161	0.964	0.996	0.837	0.918	0.931	1.029	1.236	1.525	2.253	2.911	3.517	5.025	5.879	7.151	7.234	5.412	4.142	3.469	3.338	3.353	3.625	4.489	4.354	5.131	6.518	8.175	7.010	6.404	8.080	13.12	13.75	7.113	3.792	2.939	2.655	2.614	2.633
385.0	209.0	428.7	916.0	1510	2027	1824	1013	815.9	969.8	1231	1847	1800	2939	1687	554.4	408.1	386.9	384.0	382.1	416.9	472.7	500.4	651.6	910.3	898.1	927.0	1411	1540	1102	1186	1896	2452	3124	2248	43.93	7.966	3.708	2.363	1.408	1.198	1.158	1.108	0.881	0.953	0.934	1.111	1.184	1.694	2.589	3.037	4.150	5.585	6.573	8.254	7.867	5.634	4.389	3.644	3.294	3.643	4.132	4.800	4.720	5.579	7.330	9.425	7.754	7.273	9.033	15.60	15.57	8.059	4.240	2.954	2.858	2.657	2.732
390.0	184.0	376.4	785.4	1257	1690	1538	900.0	747.1	859.3	1060	1533	1482	2388	1406	503.5	385.9	366.1	365.0	361.4	390.1	429.2	448.1	554.9	728.4	761.0	826.2	1160	1247	887.5	935.1	1455	1565	1208	1920	1920	543.2	12.80	2.437	1.651	1.288	1.188	1.032	0.920	0.842	0.975	0.991	1.116	1.597	2.103	2.751	3.427	4.738	5.709	6.776	6.698	4.883	4.069	3.218	3.112	3.361	3.822	4.255	4.238	4.755	6.169	7.625	6.512	6.128	7.602	12.07	12.76	6.878	3.831	2.709	2.587	2.423	2.488
395.0	176.3	363.0	726.8	1147	1542	1443	856.2	717.2	813.5	992.9	1419	1366	2176	1285	477.0	372.5	354.3	354.5	353.7	381.1	416.9	434.6	529.3	673.1	666.3	779.9	1131	1167	822.2	858.6	1319	1330	622.9	529.7	1166	2289	278.5	13.70	2.019	1.710	1.346	1.066	0.864	0.942	1.023	0.930	1.074	1.498	2.007	2.495	3.280	4.402	5.045	6.525	6.195	4.790	3.931	3.082	2.892	3.121	3.622	4.023	3.945	4.424	5.661	6.823	5.730	5.528	6.880	11.45	11.68	6.333	3.528	2.956	2.452	2.456	2.456
400.0	178.8	353.0	768.9	1221	1623	1499	878.6	729.5	829.1	1021	1474	1443	2310	1358	486.3	371.3	354.1	354.8	358.3	389.0	429.4	454.6	559.2	710.7	697.8	805.7	1235	1292	904.0	937.9	1433	1412	547.1	221.6	313.8	1476	2006	232.8	6.517	1.916	1.386	1.173	0.933	0.888	0.845	1.003	1.139	1.378	2.173	2.671	3.356	4.813	5.210	7.014	6.537	4.936	4.029	3.326	3.037	3.223	3.581	4.229	4.121	4.019	6.039	7.470	6.153	5.801	7.203	11.74	12.59	6.601	3.665	2.817	2.535	2.380	2.256
405.0	153.3	341.1	764.6	1213	1607	1491	865.4	723.3	824.0	1022	1469	1428	2284	1340	473.8	365.1	347.4	344.4	354.3	384.9	425.2	448.6	557.4	709.5	699.2	783.2	1208	1327	923.2	944.3	1437	1411	527.0	155.5	96.23	403.7	1622	1701	36.18	3.131	1.724	1.148	1.047	0.888	0.994	1.081	1.217	1.605	2.108	2.614	3.434	4.526	5.255	6.250	6.467	4.928	3.743	3.554	3.025	3.220	3.612	3.981	4.235	4.410	5.940	7.085	6.591	5.328	6.996	11.92	12.80	6.577	3.527	2.632	2.329	2.340	2.252
410.0	145.8	293.6	638.0	969.2	1252	1187	746.7	642.2	714.4	843.1	1155	1111	1709	1040	414.0	333.0	316.8	317.2	318.4	339.0	369.8	384.5	460.5	567.8	551.8	605.8	889.2	985.9	740.1	722.2	1054	1030	388.7	114.4	46.80	103.9	434.7	1214	1426	471.5	11.66	1.489	1.129	0.940	0.978	1.009	1.080	1.371	1.754	2.091	2.603	3.678	4.163	5.050	4.888	4.032	3.264	3.134	2.931	2.844	3.348	3.451	3.457	3.637	4.859	5.620	5.048	4.507	5.449	8.942	9.506	5.163	3.186	2.483	2.304	2.229	2.156
415.0	135.8	252.3	498.6	745.6	948.5	903.0	634.5	569.1	612.7	685.7	880.4	843.8	1224	780.0	363.9	300.1	290.6	283.3	285.5	295.3	313.6	323.4	372.5	439.2	425.9	454.6	630.3	679.2	543.3	554.4	737.0	702.2	275.1	89.44	37.49	39.74	107.8	282.6	724.4	1626	259.3	13.37	1.419	1.254	1.107	0.898	1.022	1.256	1.588	1.757	2.169	2.820	3.344	3.887	4.090	3.244	2.744	2.551	2.518	2.541	2.693	2.915	2.974	3.010	3.761	4.543	4.084	3.568	4.273	6.325	6.591	4.116	2.679	2.255	2.094	1.981	1.966
420.0	126.7	221.5	438.8	666.5	845.6	813.0	596.3	535.1	573.2	634.7	785.6	758.7	1050	688.4	339.4	279.9	272.4	267.9	268.3	280.0	292.2	301.2	340.4	396.0	383.7	406.8	543.8	584.7	454.5	497.9	652.5	600.9	239.7	84.18	38.00	28.16	37.34	72.16	181.6	941.0	1471	218.5	6.181	1.519	1.023	0.943	1.036	1.248	1.290	1.665	1.869	2.712	3.129	3.634	3.649	2.844	2.834	2.299	2.537	2.341	2.507	2.870	2.862	2.754	3.295	4.169	3.401	3.233	3.765	5.357	5.853	3.719	2.491	2.090	1.953	1.972	1.888
425.0	128.2	205.8	409.8	625.2	777.2	763.8	569.8	514.1	550.1	607.7	740.7	709.6	980.1	639.6	326.8	270.7	260.5	256.6	257.5	262.2	276.9	284.7	323.0	373.5	361.9	385.0	506.5	543.6	416.4	444.9	632.3	572.5	229.4	85.50	40.52	27.18	23.69	26.72	48.34	246.3	1069	1287	34.85	2.883	1.230	1.021	0.968	1.223	1.316	1.534	1.736	2.430	2.722	3.331	3.078	2.800	2.640	2.324	2.372	2.285	2.509	2.504	2.777	2.924	3.175	3.857	3.447	3.065	3.731	4.990	5.591	3.416	2.351	2.012	2.002	2.162	1.942
430.0	123.0	192.4	370.6	539.0	688.4	677.7	522.3	491.7	519.6	557.4	653.2	622.9	824.0	550.0	302.3	256.3	242.5	239.1	237.5	241.7	252.7	257.7	287.3	324.7	318.2	333.1	430.3	452.2	354.5	362.2	509.0	495.8	214.6	83.93	44.60	30.96	23.75	19.31	20.48	62.65	277.0	834.4	1067	391.5	11.35	1.445	1.103	1.116	1.273	1.432	1.638	2.272	2.612	2.886	2.868	2.487	2.285	2.278	2.363	2.277	2.452	2.487	2.457	2.789	2.885	3.402	2.882	2.835	3.206	4.266	4.554	2.920	2.166	1.881	1.768	1.743	1.831
435.0	147.2	168.7	309.6	459.6	570.5	574.7	475.9	461.3	480.4	493.9	549.4	519.4	631.1	447.6	277.5	243.5	225.1	219.3	216.2	219.0	226.3	227.1	247.6	272.6	268.2	273.7	332.4	343.7	278.0	279.1	358.3	360.9	197.7	88.61	49.60	36.35	27.30	21.14	16.83	23.52	68.83	193.9	514.4	1300	243.7	13.97	1.493	1.361	1.298	1.321	1.442	2.116	2.171	2.348	2.533	2.257	2.076	2.105	2.276	2.224	2.302	2.381	2.383	2.345	2.483	2.901	2.633	2.442	2.394	3.400	3.563	2.427	1.937	1.787	1.733	1.772	1.701
440.0	185.0	164.1	275.2	402.2	492.0	508.3	447.4	442.7	449.6	455.9	497.0	456.4	529.2	386.8	258.5	229.0	217.0	207.6	205.1	207.1	210.8	207.9	221.8	241.1	235.5	237.5	280.5	284.4	237.7	234.0	280.5	274.2	174.6	103.3	55.30	39.59	30.16	23.27	18.68	16.09	23.67	49.44	128.5	742.7	1257	205.5	6.299	1.508	1.418	1.258	1.356	1.841	2.082	2.268	2.272	1.945	2.040	2.281	2.091	2.120	2.121	2.067	2.085	2.445	2.254	2.608	2.181	2.071	2.375	2.844	2.931	2.186	1.826	1.669	1.751	1.754	1.804
445.0	172.3	198.4	255.1	371.7	447.5	459.5	427.3	425.4	430.4	431.6	461.5	422.5	472.8	344.0	246.9	216.3	205.2	198.2	191.9	190.6	195.6	196.3	205.9	220.1	213.5	215.5	249.2	250.3	215.5	210.4	242.7	228.8	146.7	113.2	68.10	44.21	33.08	26.06	19.75	16.22	14.41	18.32	34.54	195.9	919.6	1129	29.63	2.956	1.523	1.292	1.401	1.719	1.774	2.135	2.167	2.062	1.952	2.001	2.086	2.105	2.029	2.166	2.213	2.167	2.127	2.330	2.106	1.975	2.077	2.445	2.611	1.997	1.760	1.621	1.650	1.661	1.734
450.0	133.4	287.5	261.6	342.3	412.3	431.2	401.9	393.2	404.6	406.2	422.4	393.9	411.7	312.1	230.7	201.0	189.4	183.0	176.7	178.2	178.3	179.3	184.3	196.5	193.3	194.6	219.9	223.0	191.4	187.2	210.4	198.0	123.1	98.04	84.59	56.21	37.46	28.98	22.65	18.29	14.86	12.56	14.69	48.83	238.7	727.4	943.6	335.4	9.699	1.427	1.359	1.632	1.705	1.935	1.863	1.936	1.898	1.835	2.028	1.967	1.910	2.043	1.958	2.076	2.060	2.253	1.993	1.877	1.954	2.232	2.354	1.882	1.656	1.589	1.426	1.560	1.487
455.0	88.36	334.7	405.1	312.8	356.1	383.6	360.4	374.1	379.1	376.3	381.7	352.6	356.4	279.3	219.5	186.5	173.1	166.9	159.6	160.4	158.7	159.6	165.4	173.1	170.7	171.7	187.8	190.6	167.1	163.9	180.4	169.1	108.8	80.90	77.62	71.36	44.47	31.46	24.71	20.54	16.74	13.07	11.60	16.92	58.03	168.0	423.7	1049	200.8	10.72	1.512	1.467	1.506	1.736	1.599	1.716	1.611	1.751	1.601	1.681	1.783	1.972	1.950	1.901	1.966	2.053	1.754	1.851	1.781	2.005	2.040	1.547	1.553	1.419	1.421	1.444	1.437
460.0	67.69	245.5	622.0	332.8	327.7	349.0	339.3	348.4	354.2	354.6	348.5	321.4	322.5	252.5	200.2	174.7	161.4	156.9	146.2	147.0	146.2	145.8	150.1	155.2	152.6	153.0	166.5	167.9	149.7	146.7	156.2	145.4	97.99	73.40	65.66	71.58	56.65	35.71	26.67	21.74	17.57	14.79	11.71	10.58	18.22	41.63	103.5	571.3	966.8	155.4	6.029	1.734	1.556	1.610	1.667	1.544	1.693	1.586	1.457	1.551	1.813	1.672	1.746	1.825	1.825	1.848	1.866	1.741	1.633	1.811	1.849	1.766	1.552	1.284	1.265	1.226	1.352
465.0	72.45	155.5	734.0	521.9	302.1	333.5	319.5	319.5	328.1	327.8	325.6	295.6	286.1	232.1	183.8	165.2	149.4	145.9	135.9	137.7	133.8	134.7	137.5	138.0	135.6	138.4	147.1	146.3	135.8	131.5	135.5	125.7	91.02	69.06	59.17	60.67	61.89	42.98	28.39	22.89	18.50	15.58	12.18	9.830	10.19	14.04	26.86	148.0	707.7	820.3	122.3	3.076	1.626	1.574	1.669	1.584	1.745	1.629	1.560	1.675	1.834	1.557	1.623	1.665	1.601	1.669	1.625	1.620	1.592	1.674	1.623	1.523	1.409	1.348	1.241	1.203	1.364
470.0	72.24	105.6	501.3	1012	391.4	281.9	281.2	296.8	296.4	294.2	295.1	268.5	248.3	204.3	165.1	150.8	136.2	129.1	121.5	120.6	117.9	120.0	119.8	120.8	118.1	120.5	126.5	125.0	119.0	115.1	115.6	106.5	81.83	64.97	54.58	49.62	52.54	50.98	34.83	24.10	19.42	15.91	12.80	10.18	8.564	8.147	9.864	36.38	183.2	523.2	660.4	254.0	9.225	1.714	1.489	1.452	1.588	1.499	1.466	1.558	1.504	1.598	1.603	1.501	1.490	1.585	1.547	1.481	1.449	1.427	1.437	1.314	1.176	1.158	1.135	1.103	1.189
475.0	77.62	88.26	244.9	1078	718.5	261.9	249.9	263.8	269.2	265.2	260.9	240.4	217.8	183.5	149.8	136.0	120.9	116.3	109.0	107.0	104.6	104.7	105.1	105.3	104.7	104.3	108.2	107.2	102.5	101.7	102.0	93.02	73.36	59.79	51.20	44.77	42.77	44.96	42.86	27.98	19.72	16.51	13.66	10.80	8.688	7.331	6.631	11.76	43.58	120.3	276.9	690.1	190.9	10.55	1.487	1.607	1.333	1.585	1.555	1.330	1.341	1.490	1.469	1.446	1.412	1.488	1.330	1.268	1.413	1.375	1.263	1.162	1.323	1.141	1.078	1.018	1.076
480.0	76.00	83.14	156.9	744.8	1370	350.2	237.5	243.6	251.6	245.5	247.0	221.4	198.5	168.8	140.8	122.5	114.3	105.0	101.0	98.48	98.22	93.79	95.89	95.51	94.90	94.84	97.33	96.71	94.20	91.83	92.36	84.83	67.59	56.87	49.24	42.88	38.57	36.90	42.06	34.37	21.83	16.77	13.46	11.19	9.340	7.293	6.341	6.470	12.91	29.74	67.59	361.2	677.3	162.9	4.366	1.603	1.381	1.498	1.365	1.368	1.372	1.489	1.352	1.308	1.382	1.402	1.195	1.343	1.193	1.229	1.373	1.119	1.050	1.100	1.017	1.081	1.099
485.0	71.25	96.22	135.6	387.3	1536	584.5	224.8	234.7	237.1	234.7	229.1	204.6	185.2	159.2	132.8	113.6	106.2	98.09	93.44	89.45	90.18	87.85	88.52	87.67	87.19	87.08	88.97	87.40	86.04	84.54	84.91	77.32	63.15	53.96	47.39	41.29	36.43	32.79	36.05	37.19	25.88	17.10	14.20	11.46	9.607	7.748	6.521	5.538	6.209	9.331	17.63	94.22	479.4	631.9	27.83	2.386	1.433	1.519	1.263	1.263	1.319	1.338	1.235	1.238	1.250	1.154	1.296	1.203	1.209	1.171	1.244	1.163	0.976	1.101	1.066	1.131	1.008
490.0	60.06	112.4	128.1	208.2	947.1	1388	332.7	216.4	218.6	214.5	208.2	190.5	171.5	142.3	121.6	105.4	97.20	89.10	83.66	81.51	80.79	79.47	78.60	78.68	78.37	79.34	80.14	79.07	77.11	76.67	75.32	68.99	59.10	50.10	43.55	39.13	33.76	30.76	29.32	32.15	30.61	21.23	14.60	12.02	10.30	8.145	7.041	5.815	5.070	5.129	6.525	23.49	124.7	380.4	530.6	122.2	9.979	1.539	1.293	1.259	1.218	1.277	1.219	1.291	1.174	1.093	1.148	1.123	1.102	1.064	1.089	1.019	1.021	0.940	0.907	0.962	0.917
495.0	54.65	112.7	141.6	158.4	374.8	1503	888.4	199.4	190.6	197.1	186.7	171.4	152.7	127.1	108.1	95.65	86.90	78.67	75.65	73.54	70.76	70.24	69.68	69.78	70.21	69.12	69.35	69.99	67.73	67.34	66.25	60.69	53.65	47.08	40.83	36.12	32.25	28.75	25.90	24.84	27.95	26.27	17.38	12.33	9.954	8.813	7.067	6.424	5.196	4.544	4.185	7.581	29.93	87.52	246.8	613.9	210.2	11.25	1.439	1.290	1.057	1.110	1.179	1.191	1.085	1.217	1.102	1.057	1.074	0.892	1.092	0.871	0.853	0.973	0.890	0.887	0.959
500.0	45.78	86.18	151.8	135.5	202.2	993.8	1535	260.7	178.1	176.4	173.0	158.2	138.1	117.4	100.2	88.14	79.92	73.27	70.40	65.39	64.64	63.01	62.98	64.41	63.88	62.41	62.36	61.95	62.12	60.94	60.92	54.74	49.30	43.35	38.93	33.78	31.07	27.01	24.34	21.89	22.83	26.17	20.81	13.75	9.880	8.856	7.453	6.110	5.559	4.622	3.769	4.154	8.724	21.45	60.42	323.6	642.6	170.8	4.979	1.400	1.160	1.278	1.209	1.091	0.957	1.200	0.991	1.011	1.090	0.799	1.097	0.946	0.879	0.776	0.769	0.836	0.969
505.0	39.95	67.22	152.7	151.0	147.2	483.4	1788	411.9	169.3	167.1	157.8	142.9	127.5	109.4	90.32	80.53	74.20	67.49	65.05	59.42	59.80	58.01	57.80	56.85	57.24	57.09	56.22	56.98	56.57	56.22	54.85	49.69	45.11	40.21	35.51	31.91	29.16	25.22	22.67	20.43	19.58	22.67	22.99	15.63	10.26	9.072	7.228	6.314	5.392	4.599	3.871	3.663	4.164	6.846	15.38	83.00	423.0	575.9	30.51	2.304	1.252	1.171	1.120	1.045	1.027	1.019	1.000	0.944	0.976	0.869	0.920	0.836	0.886	0.822	0.758	0.719	0.874
510.0	42.84	58.12	126.2	174.5	131.2	218.4	1144	1356	238.5	148.6	143.9	127.9	112.9	96.41	80.94	71.57	64.42	59.04	56.19	52.98	52.05	50.69	50.50	50.83	49.37	49.58	48.63	49.32	49.68	49.88	47.66	44.45	40.15	35.06	31.96	28.88	25.56	23.28	20.52	18.62	16.75	17.24	19.93	18.36	12.35	8.693	7.199	6.220	5.423	4.593	4.001	3.414	3.120	3.480	5.232	20.19	107.8	326.7	430.6	128.5	9.437	1.258	1.026	1.071	0.978	0.896	0.832	0.822	0.842	0.894	0.806	0.768	0.780	0.705	0.678	0.708	0.717
515.0	38.79	48.44	83.80	172.1	138.0	137.8	410.5	1710	733.9	133.3	123.7	113.2	97.83	84.28	72.91	62.68	56.74	52.03	49.26	46.34	44.92	44.22	43.23	43.73	42.66	41.65	42.49	42.62	42.60	42.06	40.94	38.59	35.21	30.79	27.70	25.15	22.77	20.43	18.82	16.90	14.96	13.98	14.12	16.79	15.63	10.38	7.364	6.110	4.941	4.495	3.883	3.646	2.852	2.756	2.782	6.195	25.50	74.84	179.8	461.1	197.6	10.37	1.186	0.959	0.965	0.757	0.880	0.861	0.723	0.802	0.692	0.740	0.666	0.681	0.745	0.669	0.708
520.0	39.93	43.36	59.00	141.6	156.6	108.6	178.8	1168	1474	185.4	113.0	101.2	90.11	75.70	63.35	55.82	51.17	46.32	44.01	41.65	41.06	38.80	38.15	39.04	37.28	37.60	37.98	37.91	38.03	37.48	36.52	34.34	31.00	27.92	25.19	23.17	20.83	18.51	17.46	15.49	13.90	12.85	11.72	13.04	15.62	11.76	7.466	5.804	5.360	4.481	3.701	3.611	3.147	2.650	2.158	2.943	7.158	18.08	43.43	230.1	464.1	147.8	4.579	1.040	1.050	0.815	0.908	0.796	0.768	0.760	0.811	0.695	0.701	0.629	0.689	0.600	0.660
525.0	37.56	44.36	54.95	110.3	177.8	115.9	116.1	539.9	1892	450.7	100.1	89.24	80.19	69.97	58.22	50.21	47.93	42.24	39.45	37.72	36.89	35.23	34.06	34.36	33.84	34.43	33.68	33.68	34.04	34.40	32.66	30.31	27.67	25.02	22.69	20.75	18.95	16.86	16.13	14.03	13.09	11.92	10.64	10.55	13.34	13.43	8.698	5.705	4.948	4.205	3.508	3.331	3.209	2.712	2.139	2.072	3.127	5.378	11.01	57.89	280.9	413.7	31.12	1.984	0.991	0.810	0.880	0.856	0.690	0.679	0.721	0.646	0.658	0.592	0.649	0.688	0.721
530.0	33.22	39.44	50.68	78.34	163.8	135.9	93.68	202.3	1262	1357	155.4	79.33	70.73	61.38	52.04	45.33	40.49	36.84	34.08	32.25	32.01	30.20	29.72	28.92	29.35	29.86	29.35	29.42	29.03	29.32	28.38	26.70	24.30	21.89	19.98	18.11	16.75	15.11	14.12	12.42	11.43	10.59	9.407	8.626	9.720	11.50	10.25	6.738	4.495	3.786	3.405	2.896	2.764	2.933	2.273	1.922	1.929	2.489	3.643	14.08	70.36	217.8	259.6	121.8	9.478	0.860	0.765	0.700	0.674	0.658	0.628	0.644	0.587	0.553	0.625	0.603	0.650
535.0	28.37	30.72	40.68	59.17	113.5	164.6	89.68	104.9	426.8	1796	608.0	74.72	62.74	53.81	43.68	38.86	33.76	31.74	29.95	28.12	26.02	25.94	25.52	25.08	24.85	25.59	24.17	24.75	24.98	24.88	24.34	22.29	20.63	19.01	17.10	15.82	14.33	13.67	12.31	10.64	9.963	9.061	8.240	7.676	7.378	7.908	9.535	8.682	5.228	3.537	3.113	2.708	2.422	2.479	2.687	2.138	1.739	1.692	2.001	4.133	16.59	49.72	103.5	311.0	174.7	9.906	0.820	0.691	0.585	0.635	0.603	0.577	0.522	0.600	0.637	0.605	0.579
540.0	33.26	28.77	40.74	49.74	77.64	155.9	101.1	75.17	155.5	1237	1355	97.14	55.12	47.32	39.21	34.42	30.22	27.79	26.06	24.97	23.81	22.90	23.04	22.14	21.89	22.12	21.36	22.47	21.35	21.47	21.10	20.23	17.91	16.44	15.21	13.93	13.06	11.72	10.82	9.969	9.009	8.286	7.480	6.619	6.352	5.894	7.559	8.716	6.183	3.578	2.930	2.543	2.100	2.178	2.290	2.370	1.733	1.659	1.554	1.921	4.653	12.17	24.89	141.6	322.2	122.0	3.887	0.702	0.706	0.594	0.534	0.644	0.509	0.551	0.561	0.553	0.500
545.0	36.04	27.03	39.14	43.96	60.80	131.0	122.1	67.32	85.74	527.7	1836	207.6	49.00	41.62	34.50	30.50	27.72	24.82	23.59	22.20	21.06	19.70	19.77	19.69	19.61	19.05	18.90	19.15	19.13	19.09	18.50	17.98	15.63	14.64	13.02	12.24	11.11	10.45	9.316	9.214	8.039	7.345	6.504	5.930	5.634	5.202	5.485	7.537	6.814	4.519	2.851	2.369	1.945	1.978	1.876	2.188	2.100	1.584	1.346	1.475	2.016	3.593	6.344	34.75	173.9	276.8	31.00	1.826	0.761	0.615	0.551	0.559	0.510	0.504	0.518	0.432	0.493
550.0	32.81	31.35	34.81	39.80	47.14	83.48	136.1	72.86	61.06	172.2	1214	1081	79.11	35.36	29.13	26.01	22.83	21.69	19.41	18.37	17.55	16.73	16.84	16.22	16.06	15.82	15.77	15.93	16.42	15.88	15.12	14.81	13.21	12.13	11.01	10.38	9.355	8.992	7.983	7.781	6.876	6.275	5.647	5.374	4.791	4.580	4.197	4.962	6.348	5.069	3.222	2.356	1.871	1.805	1.636	1.718	1.894	1.765	1.367	1.255	1.341	1.555	2.160	8.532	42.43	134.1	195.7	99.02	9.165	0.570	0.562	0.562	0.538	0.482	0.549	0.485	0.470
555.0	33.86	29.19	30.65	33.85	37.68	48.13	114.8	93.38	48.97	72.26	382.2	1598	374.7	31.52	24.15	21.51	18.43	18.06	15.96	15.18	14.68	14.04	13.85	13.10	12.98	12.32	12.87	12.83	12.56	12.86	13.09	11.74	10.86	10.05	9.219	8.566	7.520	7.242	6.608	6.312	5.635	5.102	4.630	4.497	3.941	3.413	3.339	3.359	4.241	4.842	4.006	2.445	1.693	1.639	1.515	1.469	1.368	1.706	1.638	1.219	0.988	1.059	1.186	2.592	10.09	30.58	65.92	190.3	127.3	9.606	0.579	0.473	0.481	0.481	0.532	0.487	0.421
560.0	28.04	25.54	26.68	31.63	33.11	38.68	79.07	115.2	49.46	49.75	122.4	1106	1005	44.84	20.88	18.75	16.10	15.31	13.77	12.44	12.11	11.85	11.70	11.46	10.97	10.95	11.10	11.30	10.64	10.79	10.74	9.737	9.544	8.435	7.897	7.077	6.552	5.991	5.600	5.325	4.592	4.655	4.083	3.773	3.345	3.098	2.951	2.765	2.839	3.718	3.904	2.842	1.614	1.501	1.256	1.271	1.121	1.407	1.702	1.278	0.992	0.944	0.967	1.160	2.865	7.338	15.54	76.66	196.0	89.49	3.896	0.606	0.514	0.432	0.440	0.440	0.469
565.0	29.62	27.38	26.71	26.74	28.00	33.60	51.08	115.4	57.03	39.14	54.79	449.6	1495	127.7	19.34	16.11	13.52	13.48	12.39	11.14	10.35	9.940	10.12	9.486	9.056	9.347	9.144	9.488	9.175	9.121	9.496	8.352	7.892	7.289	6.443	6.195	5.698	4.896	4.667	4.379	4.235	3.826	3.527	3.416	3.118	2.770	2.485	2.516	2.353	2.594	3.327	3.292	1.839	1.304	1.164	1.115	1.147	1.126	1.340	1.533	1.037	0.878	0.816	0.761	1.153	2.281	4.051	18.39	89.97	176.8	31.85	1.797	0.509	0.516	0.398	0.447	0.421
570.0	33.31	28.56	26.19	26.37	25.88	27.25	33.07	81.28	86.10	35.21	37.58	132.4	993.8	795.3	37.75	13.27	11.42	11.03	10.21	9.300	8.779	8.426	8.426	8.027	7.683	7.482	7.381	7.244	7.418	7.442	7.694	7.124	6.507	5.854	5.266	4.966	4.717	4.337	4.013	3.834	3.375	3.326	2.887	2.729	2.570	2.343	2.080	2.038	1.806	1.818	2.211	2.743	2.339	1.430	1.093	0.936	1.019	1.020	0.955	1.176	1.238	0.919	0.730	0.739	0.743	1.024	1.433	4.597	21.46	72.17	113.0	68.67	8.459	0.628	0.410	0.424	0.415
575.0	27.80	28.59	25.11	23.94	21.72	23.66	25.16	43.11	101.3	46.77	28.61	50.14	295.1	1198	127.1	11.31	9.908	8.915	8.456	7.515	7.471	6.679	6.483	6.370	6.133	6.303	5.920	6.101	5.864	5.904	5.772	5.811	5.149	4.968	4.214	4.036	3.867	3.543	3.281	2.985	2.916	2.650	2.321	2.344	1.983	2.062	1.837	1.545	1.468	1.371	1.454	1.946	2.302	1.656	1.246	0.934	0.871	0.885	0.883	0.836	1.013	1.166	0.883	0.659	0.605	0.629	0.774	1.483	5.230	16.52	33.78	100.0	86.74	8.662	0.472	0.380	0.356
580.0	28.57	22.48	24.11	23.74	20.55	21.69	24.97	29.82	84.76	67.00	27.62	30.13	86.53	816.6	677.0	18.95	8.687	7.095	7.585	6.257	6.404	5.561	5.555	5.734	4.858	5.699	4.949	5.279	5.122	4.985	5.335	4.654	4.669	4.072	3.498	3.484	3.354	2.995	2.831	2.549	2.366	2.247	2.080	2.096	1.789	1.912	1.534	1.337	1.336	1.164	1.195	1.427	2.063	1.991	1.417	0.995	0.804	0.856	0.745	0.656	0.786	1.029	1.083	0.653	0.586	0.585	0.612	0.775	1.524	4.117	8.071	35.29	108.3	35.45	4.041	0.444	0.340
585.0	35.95	23.85	22.47	21.15	18.65	19.39	21.31	25.07	57.99	84.81	29.98	25.52	35.40	318.1	1043	77.19	7.740	6.645	5.903	5.801	5.512	4.903	4.781	4.902	4.524	4.283	4.239	4.346	4.332	4.361	4.264	4.529	3.751	3.765	3.392	3.005	2.788	2.573	2.263	2.235	2.135	1.965	1.805	1.783	1.586	1.571	1.414	1.316	1.196	1.042	1.003	1.065	1.398	1.982	1.456	0.989	0.777	0.726	0.681	0.693	0.655	0.752	1.040	0.952	0.571	0.561	0.581	0.514	0.781	1.337	2.161	8.387	43.02	96.79	30.80	1.889	0.408
590.0	30.71	23.54	22.45	19.55	17.59	18.72	19.24	19.54	31.50	82.35	45.95	23.38	22.74	89.05	678.6	496.9	16.54	5.760	5.162	4.728	4.394	4.101	3.911	4.233	3.717	3.606	3.908	3.617	3.715	3.424	3.397	3.674	3.223	2.877	2.691	2.483	2.409	2.096	1.916	1.890	1.761	1.686	1.570	1.459	1.467	1.401	1.179	1.094	1.014	0.906	0.831	0.862	0.952	1.307	1.565	1.279	0.889	0.724	0.622	0.603	0.654	0.670	0.771	0.948	0.774	0.549	0.536	0.497	0.523	0.646	0.799	2.273	10.20	35.96	66.28	47.10	7.399
595.0	29.86	24.50	23.27	19.93	16.55	16.30	17.84	16.58	20.95	52.26	69.99	25.22	18.28	30.45	193.8	769.1	87.42	5.516	4.574	4.459	3.682	3.183	3.564	3.601	2.868	2.889	3.041	3.204	3.212	2.875	2.916	3.098	2.746	2.301	2.408	2.025	1.838	1.853	1.596	1.670	1.438	1.291	1.309	1.065	1.168	1.087	0.999	0.934	0.812	0.753	0.755	0.742	0.741	0.884	1.287	1.260	1.022	0.748	0.558	0.556	0.555	0.527	0.581	0.689	0.884	0.825	0.528	0.451	0.559	0.446	0.520	0.895	2.606	8.411	17.60	53.00	37.56
600.0	27.76	24.51	22.38	18.55	15.05	16.33	15.59	17.15	18.76	34.80	80.95	32.75	17.17	17.83	53.61	530.1	402.4	9.484	4.041	3.706	3.361	2.986	3.021	3.047	2.631	2.686	2.725	2.717	2.643	2.698	2.614	2.532	2.218	1.965	1.935	1.920	1.730	1.500	1.331	1.376	1.247	1.239	1.150	1.011	1.005	0.887	0.883	0.775	0.782	0.758	0.647	0.600	0.659	0.582	0.879	1.114	1.085	0.788	0.533	0.503	0.548	0.547	0.617	0.524	0.710	0.776	0.680	0.489	0.474	0.435	0.476	0.557	0.915	2.257	4.287	16.96	55.62
605.0	31.10	24.47	21.72	14.88	16.54	15.40	15.23	15.58	16.83	25.75	67.77	45.78	17.11	14.96	20.15	209.2	648.5	46.62	4.059	3.077	2.850	2.715	2.655	2.555	2.398	2.270	2.356	2.365	2.322	2.116	2.359	2.234	1.891	1.767	1.657	1.626	1.341	1.393	1.302	1.151	1.126	1.158	0.976	0.986	0.955	0.789	0.839	0.731	0.662	0.620	0.615	0.565	0.629	0.525	0.705	0.884	0.992	0.891	0.542	0.471	0.443	0.522	0.515	0.448	0.552	0.725	0.746	0.503	0.429	0.459	0.410	0.442	0.488	0.819	1.251	4.144	20.93
610.0	29.72	23.32	21.73	17.17	14.88	15.99	15.09	15.81	17.97	22.65	44.48	61.67	21.67	14.42	13.10	58.04	445.0	320.8	8.698	2.869	2.572	2.426	2.195	2.398	2.041	1.975	1.905	2.027	1.994	1.846	1.845	1.772	1.633	1.533	1.371	1.326	1.219	1.136	1.120	1.070	0.972	0.980	0.823	0.804	0.760	0.659	0.667	0.669	0.608	0.535	0.503	0.526	0.500	0.514	0.564	0.630	0.832	0.989	0.779	0.531	0.520	0.453	0.559	0.431	0.519	0.541	0.688	0.609	0.495	0.423	0.431	0.405	0.442	0.492	0.588	1.270	5.095
615.0	30.81	22.97	19.59	17.57	16.19	14.52	13.26	15.16	18.23	20.85	27.60	59.03	34.24	14.68	10.82	19.75	131.4	515.4	63.72	2.879	2.259	2.159	1.907	2.022	1.730	1.684	1.500	1.562	1.569	1.766	1.649	1.605	1.486	1.323	1.143	1.114	1.059	0.943	0.850	0.892	0.819	0.785	0.736	0.726	0.757	0.593	0.645	0.604	0.469	0.497	0.454	0.453	0.429	0.472	0.483	0.473	0.561	0.768	0.875	0.638	0.595	0.416	0.442	0.430	0.490	0.516	0.465	0.576	0.643	0.438	0.411	0.406	0.371	0.412	0.428	0.558	1.425
620.0	31.04	21.60	19.57	16.07	14.69	13.84	14.86	15.01	16.75	20.09	23.29	43.89	46.70	14.78	10.93	10.69	36.89	377.6	269.1	4.522	2.190	1.956	1.700	1.740	1.405	1.484	1.463	1.603	1.323	1.590	1.465	1.275	1.321	1.177	1.018	0.940	0.840	0.796	0.799	0.804	0.702	0.715	0.658	0.602	0.644	0.537	0.623	0.537	0.439	0.494	0.411	0.506	0.432	0.428	0.485	0.405	0.461	0.629	0.710	0.653	0.487	0.454	0.474	0.400	0.422	0.437	0.434	0.509	0.703	0.629	0.386	0.341	0.398	0.457	0.388	0.462	0.644
625.0	32.28	21.64	17.78	15.76	14.08	13.42	11.99	14.55	15.07	18.30	19.93	30.25	53.36	18.76	10.08	8.879	13.30	156.8	451.4	24.94	2.235	1.579	1.513	1.524	1.376	1.342	1.293	1.397	1.455	1.418	1.347	1.068	1.150	1.001	0.849	0.773	0.738	0.706	0.729	0.696	0.664	0.810	0.624	0.614	0.612	0.534	0.584	0.419	0.423	0.436	0.360	0.430	0.358	0.403	0.454	0.378	0.439	0.422	0.638	0.629	0.578	0.372	0.451	0.462	0.449	0.491	0.438	0.419	0.579	0.642	0.465	0.414	0.394	0.462	0.424	0.493	0.476
630.0	29.07	21.52	17.21	16.07	14.30	12.55	11.25	13.86	15.26	16.90	18.60	22.49	43.63	28.98	10.45	7.843	7.906	42.59	337.8	178.4	4.765	1.748	1.463	1.493	1.267	1.188	1.334	1.280	1.196	1.172	1.188	1.201	1.055	0.724	0.813	0.725	0.688	0.639	0.721	0.630	0.675	0.610	0.533	0.561	0.514	0.474	0.435	0.406	0.434	0.350	0.353	0.406	0.335	0.432	0.399	0.390	0.372	0.400	0.485	0.645	0.593	0.469	0.467	0.421	0.424	0.440	0.383	0.423	0.436	0.553	0.627	0.447	0.387	0.384	0.407	0.410	0.396
635.0	25.53	23.95	19.13	14.26	13.80	12.29	12.80	12.59	14.91	16.75	16.63	19.16	27.42	39.91	13.45	7.362	6.483	12.90	104.1	370.2	43.50	1.611	1.237	1.233	1.215	1.110	1.221	1.106	1.059	1.052	1.065	0.999	0.855	0.707	0.790	0.511	0.591	0.528	0.615	0.527	0.613	0.622	0.460	0.522	0.530	0.438	0.436	0.350	0.404	0.400	0.347	0.386	0.383	0.302	0.399	0.329	0.353	0.424	0.357	0.527	0.571	0.495	0.488	0.393	0.438	0.377	0.397	0.427	0.373	0.393	0.519	0.553	0.429	0.367	0.391	0.386	0.356
640.0	26.05	24.31	18.11	13.33	13.95	12.18	12.99	13.93	13.54	16.33	16.94	17.85	20.70	35.73	17.63	7.187	6.330	5.944	27.65	299.1	171.6	2.429	1.189	1.104	1.088	1.046	1.269	0.956	0.965	1.084	1.040	0.928	0.780	0.684	0.654	0.560	0.644	0.570	0.583	0.504	0.521	0.511	0.551	0.463	0.446	0.401	0.395	0.401	0.372	0.360	0.324	0.379	0.389	0.324	0.360	0.321	0.422	0.374	0.388	0.411	0.478	0.487	0.496	0.391	0.466	0.343	0.417	0.372	0.352	0.393	0.375	0.478	0.508	0.452	0.348	0.382	0.342
645.0	27.85	23.21	18.58	14.11	12.66	12.73	12.32	12.23	13.13	14.72	14.79	17.50	18.25	28.71	23.69	7.477	6.035	4.469	8.683	136.6	311.3	13.76	1.305	1.056	0.993	1.123	1.155	0.896	0.905	1.010	0.917	0.914	0.785	0.681	0.601	0.533	0.594	0.581	0.543	0.484	0.470	0.477	0.458	0.385	0.354	0.379	0.379	0.404	0.314	0.358	0.264	0.373	0.323	0.311	0.288	0.322	0.336	0.383	0.329	0.357	0.408	0.499	0.450	0.377	0.494	0.332	0.379	0.415	0.373	0.374	0.304	0.440	0.468	0.433	0.347	0.379	0.397
650.0	33.86	20.13	17.60	12.34	13.25	12.08	11.69	11.58	12.18	14.71	15.08	16.32	16.47	21.01	28.96	9.714	5.930	4.121	4.648	41.46	321.2	58.27	1.448	1.129	0.989	1.067	1.040	1.039	0.809	0.917	0.919	0.729	0.660	0.644	0.606	0.616	0.499	0.604	0.488	0.417	0.396	0.503	0.445	0.434	0.374	0.342	0.333	0.288	0.334	0.332	0.302	0.359	0.424	0.312	0.316	0.329	0.324	0.382	0.348	0.330	0.387	0.419	0.447	0.412	0.404	0.351	0.380	0.402	0.323	0.457	0.444	0.338	0.406	0.517	0.410	0.398	0.452
