Sample:	'1
File name:	L2025090906»ÆºÓÂ·ÇÅ.FD3
Run date:	'15:40:41, 09/09/2025
Operator:	Administrator
Comment:	'

Instrument
Model:	F-2700 FL Spectrophotometer
Serial number:	3064-004
ROM Version:	4J14000 07

Instrument parameters
Measurement type:	3-D scan
Data mode:	Fluorescence
EX  Start WL:	220.0 nm
EX  End WL:	600.0 nm
EX Sampling interval:	5.0 nm
EM  Start WL:	230.0 nm
EM  End WL:	650.0 nm
EM Sampling interval:	5.0 nm
Scan speed:	12000 nm/min
EX Slit:	5.0 nm
EM Slit:	5.0 nm
PMT Voltage:	700 V
Response:	Auto 
Corrected spectra:	Off
Contour interval:	50.000

Peak integration
Integration method:	Rectangular
Sensitivity:	1
Threshold:	1.000

Peaks
No.	ApexEX/EM(nm)	Height(Data)
1	225.0/615.0	32.81
2	230.0/560.0	53.40
3	230.0/590.0	40.25
4	230.0/605.0	36.95
5	235.0/350.0	802.4
6	235.0/570.0	46.00
7	235.0/600.0	33.27
8	235.0/625.0	27.98
9	235.0/640.0	23.41
10	240.0/520.0	228.1
11	245.0/265.0	360.0
12	245.0/530.0	214.7
13	245.0/630.0	21.74
14	250.0/385.0	 1001
15	250.0/545.0	215.5
16	255.0/280.0	687.6
17	255.0/390.0	984.1
18	255.0/555.0	196.3
19	260.0/285.0	893.9
20	260.0/565.0	168.4
21	265.0/290.0	995.3
22	265.0/580.0	178.2
23	270.0/295.0	 1410
24	270.0/405.0	 1014
25	270.0/590.0	154.0
26	275.0/305.0	 1680
27	275.0/375.0	 1103
28	275.0/605.0	146.0
29	280.0/310.0	 1585
30	280.0/380.0	 1098
31	280.0/615.0	125.1
32	285.0/315.0	 1624
33	285.0/335.0	 1177
34	285.0/375.0	 1105
35	285.0/630.0	97.99
36	290.0/320.0	 1452
37	290.0/645.0	75.82
38	300.0/335.0	972.6
39	305.0/340.0	961.2
40	310.0/345.0	838.2
41	315.0/355.0	741.4
42	320.0/360.0	813.9
43	325.0/365.0	787.3
44	335.0/380.0	776.1
45	340.0/385.0	742.5
46	350.0/400.0	671.2
47	355.0/405.0	630.5
48	370.0/425.0	487.3
49	415.0/485.0	122.9
50	430.0/505.0	74.74
51	440.0/515.0	52.35
52	445.0/525.0	45.14
53	450.0/530.0	38.00
54	460.0/545.0	24.85
55	465.0/340.0	6.223
56	505.0/275.0	3.708
57	510.0/280.0	3.864
58	520.0/285.0	4.385
59	525.0/290.0	4.493
60	540.0/295.0	6.828
61	545.0/300.0	7.252
62	550.0/305.0	8.019
63	560.0/310.0	6.882
64	570.0/315.0	7.488
65	580.0/325.0	7.945
66	590.0/330.0	6.033

Data points
	220.0	225.0	230.0	235.0	240.0	245.0	250.0	255.0	260.0	265.0	270.0	275.0	280.0	285.0	290.0	295.0	300.0	305.0	310.0	315.0	320.0	325.0	330.0	335.0	340.0	345.0	350.0	355.0	360.0	365.0	370.0	375.0	380.0	385.0	390.0	395.0	400.0	405.0	410.0	415.0	420.0	425.0	430.0	435.0	440.0	445.0	450.0	455.0	460.0	465.0	470.0	475.0	480.0	485.0	490.0	495.0	500.0	505.0	510.0	515.0	520.0	525.0	530.0	535.0	540.0	545.0	550.0	555.0	560.0	565.0	570.0	575.0	580.0	585.0	590.0	595.0	600.0
230.0	23.85	651.2	 3838	 2312	135.0	9.338	8.976	7.402	5.201	4.436	4.492	5.563	4.731	5.251	4.111	5.103	2.501	2.886	1.959	2.331	1.892	1.549	1.609	1.568	1.332	1.087	1.194	0.955	1.026	1.009	0.995	1.020	1.010	0.737	0.690	0.915	0.778	0.696	0.604	0.676	0.672	0.709	0.775	0.571	0.600	0.511	1.715	6.370	9.742	7.286	2.815	0.712	0.411	0.377	0.383	0.297	0.388	0.243	0.280	0.235	0.215	0.248	0.346	0.264	0.262	0.214	0.246	0.198	0.246	0.284	0.223	0.180	0.151	0.255	0.194	0.177	0.183
235.0	47.25	177.9	 1688	 5051	 2884	159.7	9.414	7.776	5.704	4.042	4.535	5.516	4.402	5.336	4.692	5.517	1.963	3.180	1.801	2.083	1.591	1.682	2.008	1.110	1.281	1.126	1.442	1.091	1.099	0.923	1.219	1.006	0.816	0.722	0.747	0.817	0.567	0.660	0.747	0.619	0.464	0.599	0.609	0.596	0.761	0.649	0.966	2.004	4.021	7.369	9.623	8.938	4.169	1.072	0.254	0.317	0.409	0.190	0.342	0.307	0.319	0.234	0.253	0.221	0.248	0.283	0.368	0.165	0.273	0.354	0.172	0.161	0.212	0.325	0.092	0.242	0.242
240.0	64.17	95.12	429.0	 3005	 6546	945.0	70.20	12.23	7.530	6.909	5.877	6.857	5.538	6.020	4.290	5.773	2.930	3.730	1.633	2.740	1.976	2.063	1.862	1.435	1.317	1.043	1.536	1.447	1.190	0.797	1.029	0.829	0.798	0.688	0.835	0.839	0.768	0.744	0.686	0.503	0.586	0.474	0.711	0.667	1.104	0.793	0.801	0.879	1.275	2.582	5.799	11.87	15.24	10.39	3.058	0.692	0.525	0.174	0.354	0.129	0.172	0.335	0.142	0.302	0.230	0.260	0.344	0.213	0.214	0.460	0.224	0.170	0.163	0.277	0.080	0.224	0.149
245.0	45.76	113.5	163.2	796.2	 4557	 6277	763.7	40.43	12.00	9.671	8.298	6.926	5.087	6.085	4.670	6.718	2.610	3.788	2.024	2.810	2.158	2.203	2.172	1.450	1.490	1.295	1.366	1.271	1.117	1.204	0.969	0.891	0.859	1.006	1.042	1.062	0.595	0.645	0.584	0.540	0.636	0.570	0.590	0.529	0.758	0.790	1.009	1.018	0.660	0.893	1.708	4.622	10.97	19.46	17.76	8.445	1.680	0.322	0.371	0.247	0.167	0.316	0.135	0.241	0.232	0.298	0.312	0.210	0.083	0.284	0.234	0.273	0.124	0.146	0.109	0.128	0.152
250.0	21.24	60.43	168.1	289.6	 1220	 3919	 5931	 3117	223.6	11.96	10.74	8.987	6.998	7.423	5.125	7.530	3.146	3.076	2.550	2.524	2.073	2.107	2.257	1.408	1.356	1.600	1.790	1.210	1.098	1.040	1.033	0.893	1.073	0.892	0.795	0.864	0.680	0.656	0.833	0.640	0.762	0.720	0.620	0.529	0.571	0.593	0.718	1.067	1.109	1.028	0.912	1.532	3.004	6.631	12.17	16.86	19.41	16.58	8.022	2.110	0.325	0.296	0.222	0.293	0.266	0.228	0.274	0.346	0.139	0.151	0.164	0.226	0.283	0.238	0.103	0.277	0.145
255.0	28.28	22.00	88.11	268.4	408.2	919.3	 2841	9999.9	 4405	274.5	15.13	13.92	8.564	8.306	5.173	8.608	3.528	3.040	2.920	3.301	2.186	2.121	2.123	1.592	1.192	1.693	2.028	1.138	1.280	0.961	0.979	0.993	0.797	1.065	0.758	0.944	0.621	0.607	0.657	0.482	0.807	0.783	0.732	0.611	0.676	0.621	0.529	0.703	0.776	1.130	1.517	1.367	1.251	2.017	3.097	4.479	8.584	20.22	31.09	27.64	12.74	2.057	0.506	0.343	0.298	0.237	0.370	0.390	0.312	0.305	0.178	0.139	0.263	0.211	0.139	0.239	0.216
260.0	31.72	18.52	35.58	174.1	371.0	316.3	731.9	 5506	9999.9	 3515	164.5	16.90	11.53	9.376	7.083	8.740	3.755	3.875	2.494	3.723	2.063	2.526	2.152	1.639	1.400	1.526	1.775	1.547	1.121	0.857	0.866	1.099	0.939	0.898	1.029	0.942	0.600	0.605	0.586	0.564	0.743	0.694	0.618	0.633	0.703	0.592	0.702	0.697	0.507	0.895	1.105	1.663	1.716	1.411	1.225	1.430	2.456	6.120	15.95	34.54	42.65	27.16	7.016	0.988	0.587	0.293	0.432	0.214	0.301	0.265	0.119	0.265	0.272	0.105	0.343	0.264	0.116
265.0	29.40	16.60	21.63	69.19	310.7	360.0	217.1	 1451	 6952	9999.9	 2859	81.16	16.63	11.41	8.417	9.847	4.122	4.231	3.099	3.154	2.395	2.791	2.204	1.602	1.670	1.655	1.933	1.634	1.535	1.348	1.423	1.367	1.209	0.946	0.886	0.838	0.655	0.684	0.606	0.462	0.627	0.723	0.731	0.522	0.553	0.564	0.542	0.538	0.472	0.539	0.604	0.971	1.750	2.102	1.740	0.676	1.065	1.848	4.254	11.69	28.97	48.42	47.26	23.58	3.718	0.263	0.522	0.213	0.278	0.279	0.158	0.185	0.258	0.110	0.184	0.125	0.124
270.0	55.69	36.85	30.03	32.58	119.4	334.3	399.6	425.1	 1838	 5682	9999.9	 8700	171.9	19.44	11.44	13.66	5.566	4.937	3.471	3.686	2.934	2.708	2.148	1.933	1.397	1.674	2.004	1.843	1.317	1.539	1.246	1.316	1.504	1.222	1.065	0.886	0.774	0.664	0.744	0.572	0.584	0.728	0.815	0.779	0.707	0.654	0.743	0.628	0.728	0.589	0.574	0.517	0.814	1.093	1.995	2.231	2.031	1.464	1.346	3.200	7.251	15.64	31.49	45.67	46.14	32.12	17.83	3.629	0.518	0.404	0.259	0.290	0.253	0.307	0.264	0.203	0.300
275.0	85.52	64.95	56.49	39.06	56.01	125.0	421.4	569.5	516.3	 1363	 4225	9999.9	9999.9	216.8	15.29	19.17	6.712	6.327	3.919	4.266	3.452	2.987	2.697	2.320	1.621	1.877	2.034	1.738	1.383	1.729	1.359	1.451	1.565	1.177	0.785	0.875	0.792	0.757	1.005	0.871	0.780	0.788	0.810	0.638	1.007	0.680	0.848	0.826	0.892	0.715	0.754	0.594	0.557	0.626	0.823	1.204	2.618	3.708	2.430	1.419	2.150	3.993	7.795	11.70	18.14	41.86	79.68	49.49	21.30	2.665	0.400	0.443	0.368	0.363	0.411	0.405	0.237
280.0	119.3	131.4	108.2	78.03	55.16	68.30	198.1	687.6	516.7	438.6	 1149	 5727	9999.9	 2608	120.2	26.73	10.58	8.085	4.873	5.223	3.392	3.364	2.882	2.369	1.962	1.751	2.243	1.699	1.636	2.038	1.593	1.478	1.782	1.073	1.145	1.265	1.078	1.030	1.162	1.182	1.136	0.989	1.162	1.033	1.135	1.029	1.044	1.060	0.858	0.852	0.721	0.573	0.467	0.520	0.522	0.750	1.180	2.567	3.864	2.985	1.943	1.650	2.437	3.403	5.006	11.66	36.00	68.94	80.05	44.01	11.98	0.893	0.451	0.391	0.347	0.273	0.210
285.0	172.4	168.7	170.0	113.9	78.10	69.22	117.8	400.6	893.9	445.1	493.9	 1651	 7783	9999.9	 1913	88.22	13.38	9.634	6.435	5.958	3.955	3.376	3.383	2.648	2.065	2.238	2.433	2.375	1.967	1.777	1.687	1.530	1.810	1.117	1.163	1.353	1.396	1.203	1.426	1.054	1.185	1.063	1.063	1.331	1.288	1.420	1.175	1.168	1.046	1.007	1.016	0.761	0.607	0.602	0.633	0.934	0.787	1.393	2.330	3.890	4.385	2.403	1.641	1.892	2.242	3.810	9.423	21.24	46.15	93.10	56.73	31.85	5.851	0.370	0.519	0.335	0.378
290.0	217.3	257.2	265.6	194.2	124.8	108.1	129.2	231.1	606.4	995.3	693.7	748.9	 2216	 8590	9999.9	 8098	102.8	14.64	7.957	7.204	5.160	3.707	3.736	3.032	2.679	2.423	2.410	2.468	2.102	1.869	1.530	1.590	1.944	1.192	1.337	1.421	1.672	1.506	1.420	1.284	1.351	1.565	1.331	1.502	1.440	1.498	1.471	1.543	1.440	1.150	1.174	0.996	0.913	0.770	0.776	0.847	0.976	1.093	1.501	2.072	3.111	4.493	4.369	3.536	2.578	2.581	3.878	6.461	12.12	27.59	43.81	65.18	83.84	58.18	22.56	5.593	0.545
295.0	285.9	301.8	305.4	260.9	169.4	150.6	179.9	231.8	381.1	743.7	 1410	881.3	945.6	 2257	 3565	9999.9	 9588	137.9	12.14	10.03	7.280	5.287	4.627	3.645	3.258	3.174	3.388	2.609	2.392	1.974	1.486	1.596	1.710	1.254	1.572	1.372	1.600	1.781	1.880	1.501	1.397	1.935	1.625	1.691	1.787	1.685	1.686	1.827	1.685	1.381	1.324	1.245	1.326	0.756	1.235	1.126	1.131	1.201	1.324	1.535	2.000	2.689	3.637	5.689	6.828	4.021	3.302	3.318	4.718	7.455	10.96	16.20	27.70	59.09	117.3	58.44	32.68
300.0	311.6	326.8	354.0	301.8	205.7	183.1	215.5	276.0	354.0	557.4	 1253	 1481	814.8	940.0	 1046	 5495	9999.9	 7570	87.43	14.11	8.877	6.620	4.746	4.085	3.503	3.218	3.426	2.313	2.682	1.857	1.700	1.584	1.887	1.492	1.469	1.624	1.818	1.819	1.702	1.740	1.707	1.723	1.760	1.935	1.812	1.904	1.942	1.772	1.824	1.635	1.379	1.140	1.403	0.964	1.010	1.129	1.262	1.291	1.463	1.565	1.985	2.266	2.931	3.928	6.333	7.252	5.401	3.832	3.408	3.624	4.109	4.838	7.904	15.66	45.74	89.65	136.4
305.0	323.2	342.6	389.1	336.8	234.7	206.0	242.6	317.6	411.1	546.3	928.6	 1680	 1253	757.1	552.7	 1467	 6093	9999.9	 1230	50.63	11.36	8.037	5.688	4.808	3.500	3.114	3.542	2.694	2.268	2.353	1.901	2.235	2.104	1.563	1.380	1.353	1.637	1.957	2.145	1.810	1.821	1.689	1.751	2.002	1.670	1.727	1.890	1.918	1.911	1.519	1.321	1.275	1.276	1.227	1.347	1.165	1.345	1.490	1.732	1.550	2.010	2.165	2.705	3.121	4.189	6.245	8.019	6.589	4.250	3.016	3.193	2.817	3.587	4.750	11.31	24.86	66.08
310.0	321.1	338.0	411.2	367.9	277.6	250.5	300.2	369.5	460.2	596.8	826.4	 1184	 1585	 1235	569.6	585.4	 1591	 5947	9999.9	 5089	74.30	12.34	7.654	5.825	4.271	3.305	4.511	3.233	3.049	2.133	1.978	1.830	2.069	1.509	1.466	1.436	1.883	1.820	1.823	1.903	1.598	1.733	1.681	1.962	1.741	2.021	1.899	2.059	1.822	1.479	1.534	1.614	1.514	1.481	1.409	1.332	1.608	1.700	1.610	1.906	2.282	2.245	2.929	3.588	3.673	4.720	5.234	6.468	6.882	6.067	4.216	2.973	3.097	2.735	3.896	6.848	16.01
315.0	285.9	350.2	419.7	383.6	317.7	282.0	331.6	402.9	511.4	630.1	825.7	999.7	 1184	 1624	 1008	485.8	573.8	 1482	 3090	9999.9	 7313	101.1	11.25	7.340	5.536	4.790	5.177	3.465	3.611	2.875	2.559	2.143	2.226	1.560	1.811	1.392	1.826	1.677	1.647	1.985	1.580	2.070	1.624	1.716	1.769	1.957	2.098	2.197	1.882	1.710	1.639	1.725	1.621	1.753	1.512	1.846	1.758	1.874	1.928	1.862	2.505	2.400	2.785	3.520	3.434	3.647	4.308	4.594	5.170	6.082	7.488	5.810	4.221	2.661	2.704	3.168	5.072
320.0	302.6	378.6	474.8	429.3	351.7	306.6	346.9	431.9	546.2	668.5	855.4	995.8	 1074	 1362	 1452	658.3	402.5	523.6	823.2	 4395	9999.9	 5861	68.97	9.845	7.680	5.263	5.791	4.227	3.521	2.766	2.673	2.044	2.486	2.096	1.891	1.834	1.715	1.862	1.876	1.881	1.783	2.023	1.885	2.493	2.129	2.125	2.217	2.508	2.156	1.678	1.533	1.820	1.577	1.706	1.723	1.659	1.972	1.877	2.270	2.437	2.515	2.940	2.946	3.193	3.786	3.722	4.233	4.656	4.547	4.420	5.653	6.819	6.943	3.752	2.899	2.549	2.677
325.0	339.9	432.4	609.2	507.3	386.6	337.6	363.3	446.8	558.6	689.8	876.9	 1004	 1073	 1202	 1361	 1092	463.0	351.3	338.1	 1123	 5684	9999.9	923.1	40.82	9.297	7.373	7.158	4.767	2.912	3.141	2.643	2.595	2.620	2.142	2.290	1.900	1.782	1.647	1.885	1.937	1.765	1.881	1.783	2.105	2.040	2.255	2.381	2.910	2.628	2.093	2.019	2.043	1.615	1.805	1.834	1.671	2.007	2.119	2.297	2.269	2.734	2.868	2.988	3.540	3.561	3.926	4.329	4.475	4.768	4.783	4.781	5.168	7.945	6.414	4.266	2.927	2.311
330.0	356.8	488.1	656.8	639.1	465.7	392.2	407.3	484.4	604.2	701.4	896.4	 1027	 1103	 1170	 1095	 1121	860.8	430.5	287.1	400.5	 1425	 5237	9999.9	 6674	60.50	10.83	10.63	5.718	4.118	3.243	3.168	3.117	3.086	2.072	1.961	1.783	1.774	1.853	1.881	1.838	1.924	1.895	1.969	2.048	2.208	2.490	2.451	3.048	2.898	3.176	2.188	2.298	1.934	2.109	1.982	2.022	2.028	2.120	2.362	2.502	2.803	3.229	3.119	3.699	3.746	4.065	4.375	4.411	4.566	4.605	5.172	4.694	6.206	4.995	6.033	5.895	4.720
335.0	354.7	497.3	687.8	697.7	557.5	460.3	458.5	533.2	634.4	734.3	905.8	 1050	 1107	 1177	 1026	895.8	972.6	793.0	359.3	286.9	458.8	 1275	 3179	9999.9	 5946	81.10	15.70	7.500	5.904	4.143	3.055	3.246	3.082	2.157	1.896	2.043	2.053	1.857	1.891	1.969	1.889	1.924	1.966	2.013	2.306	2.724	2.898	3.014	3.163	5.517	2.324	2.701	2.325	2.222	2.119	2.071	1.925	2.186	2.514	2.503	2.741	2.997	3.115	3.746	4.035	4.057	4.562	4.509	4.333	5.002	5.075	4.981	5.419	4.461	4.382	5.349	6.022
340.0	338.5	519.5	716.3	768.7	619.1	511.4	507.6	565.4	639.4	762.4	912.5	 1031	 1111	 1177	 1029	848.0	805.2	961.2	577.2	306.7	282.4	420.7	819.8	 4374	9999.9	 4776	65.32	10.99	6.930	4.631	3.518	3.684	3.428	2.552	2.072	2.432	2.144	1.946	1.870	1.996	1.723	1.609	1.985	1.843	2.442	2.732	3.025	3.092	3.312	6.223	2.812	3.057	2.628	2.267	2.500	2.322	2.331	2.359	2.504	2.656	2.832	2.814	3.441	4.064	3.864	4.094	4.491	4.892	4.386	5.196	5.559	4.486	4.958	4.196	4.652	5.339	4.337
345.0	323.7	501.2	755.1	799.6	661.9	587.8	528.4	572.3	656.4	767.4	919.7	 1011	 1095	 1158	 1041	856.8	738.7	813.4	838.2	422.5	284.3	267.4	309.6	 1107	 5791	9999.9	 4056	41.10	9.501	5.455	5.278	3.932	3.941	2.665	2.390	2.489	2.053	2.204	2.000	1.747	1.465	1.719	2.128	1.686	2.563	2.639	3.059	2.916	3.403	4.992	2.774	3.283	2.948	2.569	2.528	2.380	2.639	2.641	2.918	2.751	3.103	2.964	3.477	3.420	3.755	4.116	4.149	4.588	4.813	4.606	5.056	4.435	4.748	4.554	4.044	4.461	4.151
350.0	299.3	465.5	706.2	802.4	739.5	679.5	631.5	643.2	706.4	819.9	939.5	 1023	 1070	 1145	 1053	899.0	760.7	694.9	783.0	726.2	420.4	298.4	255.9	386.1	 1461	 5518	9999.9	 5864	54.06	9.308	7.372	5.051	4.945	2.846	2.533	2.385	2.274	1.973	2.083	1.913	1.779	1.724	2.058	2.017	2.260	2.547	2.582	2.957	3.218	3.445	2.683	3.079	2.912	3.032	2.760	2.760	2.814	2.651	2.841	2.973	2.976	3.232	3.613	3.695	4.078	4.254	4.236	4.322	4.936	4.912	4.903	4.624	5.162	4.377	4.187	4.472	3.802
355.0	289.0	456.0	671.8	785.2	785.5	741.5	753.8	734.1	785.3	874.9	955.8	 1035	 1084	 1125	 1051	939.6	818.7	719.1	667.5	741.4	717.8	413.5	305.3	283.2	473.6	 1340	 3902	9999.9	 5290	73.03	10.17	6.446	5.472	3.247	2.373	2.836	2.535	2.387	1.972	1.938	1.767	1.759	1.922	1.983	1.813	2.386	2.606	2.972	2.889	2.845	2.841	2.902	3.272	3.034	3.207	2.950	3.561	3.545	3.257	2.990	3.435	3.412	3.826	4.426	4.402	4.177	4.276	4.397	4.407	4.467	5.254	5.346	4.859	4.884	4.423	4.744	4.341
360.0	293.0	428.9	674.4	807.6	847.6	821.8	796.5	813.9	842.8	932.6	976.0	 1064	 1116	 1131	 1072	949.2	848.6	756.3	685.7	665.8	813.9	619.1	369.2	306.1	291.7	431.7	989.2	 4717	9999.9	 4031	51.94	9.074	7.127	4.465	2.855	3.358	2.348	2.137	2.173	2.213	1.817	1.696	2.263	1.905	1.891	2.419	2.283	2.898	2.928	2.636	2.991	3.328	3.220	3.451	3.351	3.411	3.312	3.427	3.714	3.578	4.007	3.996	3.887	4.188	4.074	4.294	4.447	4.613	4.908	4.604	4.816	4.626	5.389	5.374	4.306	4.491	4.284
365.0	284.3	421.6	610.3	795.4	871.5	873.4	827.7	848.8	881.9	970.1	 1018	 1066	 1111	 1107	 1078	966.1	872.4	808.2	722.5	667.0	722.8	787.3	495.2	353.2	294.8	260.5	346.0	 1195	 6539	9999.9	689.0	31.28	9.650	5.034	3.900	3.710	2.987	2.054	2.097	2.295	1.898	1.650	1.959	1.896	2.400	2.377	2.304	2.818	2.622	2.758	2.722	3.052	3.455	3.569	3.576	3.737	3.407	3.657	3.348	3.299	3.656	3.857	4.119	4.097	4.361	4.440	4.062	4.871	4.578	5.026	4.645	4.475	5.222	4.802	4.819	4.887	4.510
370.0	298.0	411.1	602.2	772.3	872.6	916.0	894.4	920.9	941.7	 1014	 1045	 1091	 1086	 1094	 1077	977.7	899.8	849.6	769.2	715.9	683.1	735.4	728.7	491.1	350.9	279.5	248.9	384.2	 1642	 5644	9999.9	 2895	47.48	7.968	5.511	4.588	3.262	2.367	2.396	2.311	1.907	1.896	2.155	2.153	2.401	2.332	2.462	2.839	2.802	2.731	2.821	2.957	3.436	3.599	3.591	4.006	3.806	3.988	3.873	3.641	3.836	3.894	4.624	4.237	4.284	4.395	4.821	4.917	4.606	4.748	4.718	4.814	4.843	5.137	4.873	4.694	4.945
375.0	278.8	397.8	585.6	746.3	873.3	952.9	947.2	960.9	956.7	 1016	 1066	 1103	 1094	 1105	 1072	979.4	924.9	886.1	814.5	760.9	720.1	687.8	731.2	735.9	479.9	344.1	276.6	252.0	480.0	 1340	 3729	9999.9	 4725	56.59	8.196	6.535	4.088	2.864	2.735	2.486	1.990	1.891	2.670	2.306	2.287	2.508	2.622	2.534	2.534	2.785	2.747	2.712	3.468	3.700	3.702	4.278	3.916	3.764	3.658	4.048	3.672	4.425	4.882	4.403	4.481	4.760	5.005	5.003	4.517	5.019	4.584	4.895	4.392	4.703	5.234	5.147	4.784
380.0	286.9	365.3	571.5	735.9	876.3	955.7	974.5	961.7	985.4	 1001	 1077	 1082	 1098	 1095	 1051	988.1	934.0	896.4	838.8	792.5	744.9	697.3	677.9	776.1	632.7	415.3	319.1	255.8	251.1	399.8	930.6	 5063	9999.9	 3252	39.40	8.493	5.456	3.292	2.969	2.789	2.129	2.341	2.083	2.174	2.156	2.422	2.439	2.524	2.800	2.436	3.094	3.334	3.256	3.631	3.657	4.077	3.942	3.873	4.282	4.260	4.108	4.343	3.915	4.483	4.503	4.392	4.699	4.855	4.790	4.350	4.574	5.000	4.545	4.836	5.064	4.970	4.977
385.0	291.0	398.7	546.5	733.8	874.6	963.2	 1001	975.2	987.6	 1030	 1067	 1083	 1096	 1094	 1042	992.1	932.8	903.4	861.6	824.4	782.6	728.9	674.4	700.4	742.5	528.9	370.0	289.8	228.8	217.3	302.6	 1279	 8337	9999.9	548.2	24.64	6.433	4.229	3.502	2.773	2.430	2.546	2.165	1.965	2.457	2.332	2.515	2.647	2.830	2.598	2.806	3.196	3.769	4.060	3.948	3.960	4.131	4.496	4.006	4.279	4.361	4.178	3.920	4.494	4.305	4.478	4.723	4.167	4.150	4.689	4.899	4.735	4.886	4.762	4.717	4.779	5.142
390.0	271.7	366.7	547.0	694.5	840.6	955.1	981.4	984.1	981.4	 1010	 1058	 1057	 1059	 1056	 1020	972.5	931.7	896.9	868.7	833.3	797.4	751.9	704.6	667.7	693.6	677.8	484.7	346.0	272.6	212.7	190.9	373.1	 2115	 5840	 9208	 5410	35.57	6.589	4.321	3.625	2.855	2.694	2.727	2.303	2.210	2.291	2.317	2.667	2.778	2.584	2.633	3.199	3.358	3.722	3.751	3.762	3.833	4.468	4.021	4.164	4.431	4.011	4.499	4.255	4.556	4.419	4.659	4.377	4.461	4.659	4.727	4.516	4.816	4.654	4.896	4.749	5.145
395.0	276.1	371.1	529.9	709.2	824.9	931.5	976.4	962.5	995.1	991.7	 1017	 1043	 1034	 1020	 1000	943.8	906.4	885.4	857.6	840.7	806.9	767.2	726.6	682.1	650.8	655.6	644.0	445.6	328.7	251.1	201.8	197.8	550.8	 1361	 3545	9999.9	 3598	46.09	6.517	5.073	3.760	2.887	2.958	2.413	2.676	2.333	2.473	2.533	2.446	2.508	2.536	3.035	3.299	3.803	3.765	3.813	3.659	3.812	3.816	4.171	4.042	3.665	4.449	4.113	4.501	4.360	4.577	4.100	4.738	4.092	4.595	4.184	4.393	4.607	4.685	4.247	4.957
400.0	260.3	368.3	514.2	688.7	816.9	922.4	962.8	967.9	980.4	983.3	991.8	 1018	 1020	997.4	978.9	927.8	902.1	876.3	854.2	841.6	804.5	781.5	739.2	693.4	640.9	609.4	671.2	560.5	374.9	285.0	225.4	182.1	218.9	366.5	866.2	 5702	9999.9	 2460	29.23	6.450	4.166	3.455	3.534	2.360	2.228	2.486	2.460	2.555	2.607	2.651	2.445	3.261	3.402	3.662	3.783	3.560	3.620	4.087	3.959	4.189	4.189	4.010	4.052	4.337	4.107	4.059	4.346	4.368	4.374	4.438	3.980	3.982	4.703	4.628	4.116	4.566	4.666
405.0	249.8	346.6	475.6	646.0	794.1	914.8	970.2	965.4	977.5	971.2	 1014	 1002	993.2	983.9	956.8	909.8	876.2	866.5	842.5	822.6	796.6	775.4	742.0	697.6	648.4	605.9	610.9	630.5	458.4	323.0	253.9	196.7	160.8	156.6	246.6	 1429	 6136	 8077	446.1	16.27	5.088	4.062	3.835	2.803	2.663	2.743	2.693	2.549	2.369	2.595	2.707	2.795	3.153	3.277	3.525	4.063	3.778	3.727	3.579	3.867	4.110	3.717	4.210	4.306	3.985	4.095	4.379	4.514	4.143	4.710	4.314	4.291	4.158	3.991	3.971	4.688	4.793
410.0	237.5	344.8	469.9	609.7	758.8	868.8	919.9	955.8	961.8	957.2	965.2	963.1	961.8	932.4	902.8	871.5	845.4	838.2	823.4	800.0	784.7	765.4	733.0	702.9	653.9	614.3	578.7	582.0	562.3	418.1	294.4	224.8	171.5	130.5	122.6	369.1	 1528	 4433	 6297	 1955	29.80	5.750	4.023	3.206	3.063	2.762	2.650	2.716	2.610	2.345	2.738	2.934	3.173	3.317	3.314	3.633	3.935	3.817	4.074	4.160	4.013	4.058	3.805	4.273	4.072	4.093	3.997	4.226	4.311	4.254	4.396	4.157	4.179	4.234	4.242	4.404	4.831
415.0	232.1	320.4	468.3	595.4	714.2	823.1	872.4	944.6	942.3	928.9	930.4	942.5	918.5	902.1	853.0	830.4	806.2	802.7	772.7	769.1	751.6	740.4	711.8	679.2	656.6	616.8	570.7	540.3	533.9	527.5	368.9	257.5	196.9	142.6	113.8	143.6	383.5	 1021	 2520	 7199	 2927	42.12	5.336	4.363	3.568	3.100	2.671	2.815	2.529	2.241	2.754	3.258	3.063	3.192	3.502	3.614	3.663	3.965	4.180	3.816	3.683	3.696	3.899	3.831	3.675	3.781	3.849	4.501	4.150	3.933	4.241	3.719	4.236	4.137	3.580	4.098	4.538
420.0	229.6	299.8	442.3	553.9	700.7	794.1	859.3	913.0	923.2	927.9	917.4	914.9	883.1	860.2	823.5	799.2	764.1	760.1	745.6	745.8	724.5	702.0	697.8	662.0	644.3	608.8	572.1	530.8	496.9	522.8	449.1	290.5	217.5	161.4	122.9	105.0	133.2	263.5	610.7	 3529	 7647	 2226	26.93	5.472	4.397	3.226	2.767	2.948	2.455	2.407	2.558	3.562	2.885	3.472	3.385	3.398	3.634	3.652	3.968	3.862	4.089	4.169	4.055	3.705	3.556	3.407	3.687	4.052	4.259	3.917	4.160	3.735	4.020	4.240	3.774	3.871	4.610
425.0	234.0	293.0	413.5	536.6	662.4	781.9	821.4	891.0	908.8	916.4	906.5	906.5	861.2	834.5	789.7	775.3	730.3	735.6	725.7	722.0	697.6	684.3	675.3	649.4	631.6	605.3	568.7	530.4	482.2	475.6	487.3	351.1	238.8	180.1	134.1	105.0	87.50	100.7	168.3	885.3	 4696	 6949	421.7	13.06	5.015	3.961	3.131	3.308	2.621	2.387	2.683	3.031	2.821	3.300	3.275	3.334	3.680	3.826	3.804	3.907	3.845	3.855	3.715	3.944	3.316	3.631	3.558	3.598	4.172	3.934	4.002	3.765	4.178	3.487	3.913	4.001	3.963
430.0	589.0	286.3	400.9	539.6	638.4	738.0	796.1	854.3	883.0	879.1	880.9	860.8	824.7	797.1	759.5	728.5	693.3	695.7	691.8	677.8	664.0	659.2	646.0	628.1	613.2	590.3	563.5	525.7	487.9	448.9	446.0	416.4	298.9	204.6	154.6	118.7	90.34	75.11	74.94	227.0	 1171	 3810	 5947	 1617	27.26	5.195	3.761	3.809	3.061	2.791	2.540	2.811	3.071	3.045	3.406	3.149	3.141	3.766	3.456	3.655	3.575	3.694	3.878	4.021	3.412	3.484	3.664	3.548	3.594	3.515	3.625	3.958	3.670	3.772	3.974	3.748	4.244
435.0	 1445	339.0	403.8	532.5	609.3	686.1	753.6	837.9	869.4	858.2	861.7	847.7	804.0	763.3	721.4	682.7	662.1	658.8	644.5	632.4	623.7	620.0	609.0	596.8	590.9	573.3	544.8	517.4	487.4	450.2	409.5	388.0	369.7	249.3	174.0	135.0	104.2	79.49	65.22	86.37	288.1	874.6	 2401	 5988	 2727	36.88	4.779	4.792	3.515	2.738	2.649	3.021	3.027	2.579	3.113	3.158	3.129	3.524	3.263	3.714	3.649	3.853	3.707	3.585	3.312	4.003	3.852	3.338	3.725	3.254	3.241	3.383	3.945	3.614	3.301	4.413	3.988
440.0	 1846	703.3	377.8	503.9	573.0	675.7	753.1	820.5	876.2	844.2	844.9	827.7	779.7	729.6	697.1	652.4	632.8	618.5	616.4	613.4	593.9	592.5	585.8	572.1	571.0	553.5	538.5	514.7	477.5	449.0	397.5	356.8	367.9	302.4	198.0	148.0	113.4	88.28	69.77	61.66	95.53	220.0	575.7	 2982	 7476	 2004	22.04	5.040	3.845	2.903	2.693	2.975	2.923	2.855	3.078	3.056	3.492	3.478	3.581	3.643	3.550	3.698	3.735	3.276	3.587	3.784	3.748	3.159	3.222	3.410	3.349	3.507	3.596	3.385	3.299	4.079	3.641
445.0	 1476	 1527	378.2	470.3	565.7	658.3	725.8	779.4	820.3	836.5	836.7	788.3	749.2	714.0	660.6	635.0	601.4	598.0	576.8	582.6	570.9	566.8	556.3	549.3	548.1	533.7	518.4	493.4	474.2	444.1	401.9	353.2	330.4	328.4	237.0	161.1	122.6	99.54	77.91	61.79	56.94	76.91	150.5	745.6	 4657	 6510	345.3	12.70	4.480	3.340	3.238	2.937	3.046	3.201	3.450	3.418	3.384	3.034	3.284	3.653	3.450	3.672	3.862	3.586	3.378	3.621	3.408	3.322	3.222	3.125	2.814	3.494	3.281	3.075	3.152	3.317	3.160
450.0	668.6	 2156	906.5	438.6	536.1	619.4	680.0	749.3	784.7	795.6	786.8	755.2	722.3	678.2	626.5	594.8	566.0	555.5	540.5	539.2	531.2	522.1	518.8	516.6	505.2	503.4	489.9	475.7	451.7	429.9	391.9	343.6	303.0	290.2	273.5	197.8	137.2	109.1	88.22	67.77	55.61	50.58	59.29	186.3	 1159	 3596	 5088	 1605	23.18	4.403	3.503	5.636	3.305	2.918	3.159	2.933	3.205	3.175	3.287	3.477	3.636	3.439	3.679	3.373	3.578	3.449	3.470	3.224	3.204	3.178	2.915	2.932	3.176	3.174	2.990	3.029	3.171
455.0	277.8	 1355	 2376	484.7	502.5	556.0	631.2	701.0	755.6	760.6	755.3	699.6	675.6	638.0	577.9	546.8	519.7	508.9	501.5	490.2	485.8	473.0	479.2	473.0	473.6	462.7	459.0	449.1	429.7	408.3	379.4	336.7	293.1	260.9	248.3	237.1	164.6	120.7	94.02	76.96	61.93	49.61	42.92	65.18	277.1	820.7	 1977	 6395	 2294	28.09	4.440	9.837	3.220	3.062	3.002	2.620	2.981	3.226	3.060	2.973	3.085	3.173	3.092	3.418	3.162	3.335	3.106	2.948	3.099	2.952	3.266	2.829	2.944	2.724	2.713	2.977	2.990
460.0	205.1	593.0	 2961	 1004	457.1	524.0	595.5	650.0	734.8	718.8	714.7	684.5	644.5	596.7	548.8	512.7	485.3	477.9	465.3	458.8	453.1	440.0	443.7	442.3	439.7	437.4	429.3	420.8	410.5	393.6	365.2	326.3	287.4	251.1	222.5	228.4	196.1	131.1	98.38	82.30	68.95	53.13	42.48	40.41	83.27	200.5	470.6	 3129	 6092	 1523	17.83	14.16	3.472	3.211	2.640	2.728	2.711	3.480	3.056	2.603	2.646	3.030	3.248	2.947	3.200	3.377	2.820	3.189	2.962	2.700	2.954	3.214	2.986	2.813	2.694	2.905	2.532
465.0	177.3	293.1	 2321	 2064	464.2	483.7	557.0	621.3	697.7	694.5	689.7	642.3	609.4	563.3	527.9	479.9	455.8	438.2	426.7	428.6	422.8	422.3	412.6	418.4	410.5	410.5	403.4	394.0	391.8	372.8	354.9	311.8	279.4	243.7	205.8	202.8	204.0	151.2	105.6	85.51	70.22	57.21	45.83	37.19	42.28	62.82	121.0	776.0	 3753	 4888	288.8	26.37	4.168	3.544	2.704	3.082	2.994	3.103	2.652	2.882	2.705	3.080	2.954	3.025	3.321	3.144	2.911	2.972	2.878	2.782	2.669	2.647	3.040	2.693	2.999	2.607	2.571
470.0	168.3	205.6	985.8	 2827	 1311	452.8	511.0	564.6	621.4	645.7	630.3	610.3	556.8	515.4	487.0	438.5	408.4	396.3	391.4	384.8	379.8	372.8	372.8	375.4	366.1	369.6	367.2	361.4	356.2	345.0	328.4	299.0	264.3	231.7	199.5	179.8	178.0	170.8	126.7	90.76	73.80	60.94	49.85	39.79	35.69	35.65	44.44	187.4	929.7	 2674	 4438	 6130	22.58	4.372	3.125	3.521	2.534	2.945	2.738	2.943	2.670	2.993	3.174	2.704	2.837	2.440	2.799	2.561	2.559	2.586	2.387	2.237	2.646	2.425	2.186	2.155	2.363
475.0	160.8	181.9	387.1	 1755	 3138	509.1	453.7	539.3	569.7	592.7	583.5	569.1	511.5	471.2	436.7	391.8	377.2	357.3	353.5	345.0	338.6	330.0	332.7	332.9	331.6	328.4	329.7	326.1	322.5	315.5	296.2	274.7	247.2	219.0	189.7	169.7	153.8	147.0	146.4	106.4	77.66	63.51	50.98	41.70	35.26	32.00	28.11	57.49	219.1	608.2	 1689	9999.9	 1913	29.85	3.835	3.497	3.168	2.881	2.688	2.796	2.471	3.161	2.611	2.718	2.417	2.121	2.902	2.329	2.219	2.265	2.537	2.338	2.580	2.021	2.294	2.428	2.358
480.0	156.0	170.2	254.9	747.4	 3683	984.5	422.1	483.1	517.7	546.5	537.2	533.5	466.5	444.5	404.6	371.1	344.4	325.3	327.7	310.5	308.6	300.9	303.7	303.7	306.2	302.1	302.6	300.9	298.3	291.7	279.7	259.3	236.5	205.6	183.2	160.4	142.4	127.6	139.5	119.9	86.03	63.89	53.07	43.54	37.46	32.48	26.44	29.30	61.93	146.4	396.6	 3493	 4271	376.3	18.00	4.123	3.216	2.909	2.614	2.955	2.429	3.055	2.671	2.315	2.212	2.326	2.416	1.957	2.172	2.037	2.157	2.093	2.170	2.006	2.243	2.338	2.157
485.0	127.7	171.5	200.1	372.3	 2692	 2203	430.1	452.9	497.6	508.3	503.0	482.0	448.8	417.1	378.1	344.4	316.5	305.5	295.9	286.5	280.8	275.9	276.7	279.2	281.1	277.3	280.7	281.7	280.1	272.4	263.3	244.8	221.7	194.4	173.4	156.1	134.5	118.6	117.3	122.9	95.61	67.34	54.92	44.33	39.51	33.45	27.14	24.14	27.83	44.25	99.23	825.0	 2499	 3919	318.3	9.048	3.433	3.352	2.690	2.494	2.552	2.823	2.557	2.558	2.041	2.500	2.278	1.943	2.313	2.219	2.033	2.051	2.093	1.685	2.133	1.906	1.625
490.0	104.4	164.0	204.0	259.2	 1084	 2835	 1526	404.7	456.0	472.1	456.3	450.3	416.0	380.7	345.1	315.3	291.6	277.4	269.8	257.5	254.1	251.3	248.4	248.9	249.3	251.7	250.9	253.1	251.7	249.9	238.0	222.8	201.8	181.5	164.6	146.5	127.8	113.3	104.0	106.1	103.9	77.63	56.75	47.23	40.25	34.28	28.94	24.34	21.44	22.46	32.19	192.9	610.1	 2092	 2792	 1378	21.86	3.657	2.794	2.673	2.548	2.611	2.513	2.204	2.182	2.214	2.128	1.843	1.897	2.124	1.743	1.732	1.822	1.872	1.746	1.806	1.805
495.0	511.1	126.6	198.9	236.4	434.6	 1766	 3860	566.3	403.5	417.1	421.9	402.8	373.0	340.1	312.5	283.4	260.0	244.7	234.0	227.8	223.5	221.5	213.8	220.5	224.9	223.1	217.3	223.2	227.1	221.8	212.8	202.2	185.5	164.3	149.8	133.6	119.7	106.7	96.72	86.20	90.21	88.74	64.90	47.84	40.24	34.59	28.99	25.74	21.22	18.48	17.65	51.86	143.2	474.1	 1079	 4567	 1693	29.01	3.673	3.006	2.629	2.582	2.478	1.995	2.082	1.871	1.953	2.029	1.785	1.946	1.809	1.757	1.749	1.802	1.670	1.714	1.287
500.0	180.8	103.1	192.0	213.2	269.4	755.7	 4261	 1403	359.0	375.5	374.9	366.5	340.9	306.2	282.2	254.4	231.8	221.1	216.3	210.1	202.4	195.8	196.5	198.3	204.3	199.0	200.4	199.8	203.4	201.3	198.5	183.8	171.6	152.9	139.7	125.1	113.1	101.4	90.55	81.93	76.78	83.78	73.46	51.32	40.22	35.85	28.70	25.52	21.75	17.49	15.08	21.01	39.97	112.3	252.6	 2041	 3454	391.5	16.93	3.231	2.570	2.631	2.635	2.140	2.082	1.891	1.744	1.593	1.807	1.738	2.144	1.679	1.740	1.517	1.549	1.718	1.363
505.0	91.56	91.01	159.7	225.3	222.0	356.8	 2966	 2848	396.5	347.2	347.3	348.9	318.2	292.8	260.7	230.7	210.0	201.0	196.1	187.7	188.2	182.0	178.8	178.3	183.1	183.5	182.7	186.8	185.8	182.8	180.7	167.9	157.6	142.6	129.2	117.2	107.2	94.49	84.71	77.62	68.18	70.71	74.74	58.11	39.94	33.77	30.27	26.31	21.73	17.90	14.37	14.02	16.71	31.51	61.85	488.6	 1897	 3109	324.6	6.981	2.669	2.408	2.608	2.196	1.768	1.818	1.673	1.753	1.473	1.455	1.753	1.447	1.250	1.332	1.258	1.550	1.539
510.0	62.90	71.98	130.8	228.2	213.2	244.9	 1097	 3470	 1460	318.1	302.9	303.2	286.3	263.0	232.3	206.9	191.4	181.6	177.1	166.2	164.0	163.8	160.3	157.4	156.1	161.6	160.5	163.3	166.1	161.0	159.2	149.8	139.7	124.7	115.9	105.3	96.39	85.09	76.24	70.72	61.80	58.28	61.82	60.85	46.81	34.61	30.05	25.36	21.39	17.61	14.76	13.04	11.81	13.88	19.66	114.8	459.8	 1633	 2306	 1049	21.07	2.871	2.446	2.245	1.809	1.824	1.567	1.597	1.507	1.627	1.380	1.387	1.336	1.567	1.309	1.450	1.458
515.0	64.58	64.57	106.5	195.1	221.3	199.6	411.4	 1801	 3720	431.0	272.1	267.1	249.0	218.5	204.4	183.1	168.8	160.8	149.2	143.5	142.4	140.3	139.9	136.7	132.5	139.2	138.3	138.7	140.1	142.3	138.7	129.6	122.4	109.1	103.0	92.67	86.54	79.11	69.24	62.60	58.35	51.30	49.38	51.28	52.35	37.03	29.98	24.55	20.53	17.42	14.41	13.07	10.04	9.920	10.28	31.23	107.6	369.4	850.7	 2689	 1460	27.34	2.830	2.483	1.673	1.906	1.661	1.508	1.388	1.628	1.265	1.025	1.205	1.316	0.939	0.998	1.170
520.0	59.97	72.24	90.37	146.2	228.1	176.8	237.1	700.8	 4325	 1148	254.5	240.4	224.1	208.7	185.1	163.8	151.3	143.9	129.6	128.8	127.1	125.4	125.7	122.1	119.0	125.4	125.1	123.9	127.8	125.8	121.7	117.4	109.1	101.8	91.71	86.23	79.14	71.64	63.75	57.62	54.27	48.06	42.86	41.91	48.66	43.36	31.49	23.62	19.97	17.19	14.28	12.85	10.11	8.543	7.726	12.14	29.03	86.92	199.0	 1190	 3006	392.8	14.19	2.372	1.741	1.954	1.726	1.604	1.312	1.353	1.305	1.273	1.217	1.138	0.803	0.857	1.413
525.0	44.65	64.75	76.39	114.2	209.3	191.4	175.8	313.7	 3350	 2625	273.9	223.1	195.3	189.4	169.1	152.5	134.2	126.1	123.0	119.9	114.6	108.3	112.6	110.6	109.7	110.5	113.2	112.6	114.8	112.0	109.8	106.1	98.16	91.56	84.65	78.46	70.71	64.22	58.00	52.82	49.56	43.38	39.74	36.93	40.46	45.14	35.81	23.64	19.81	16.47	14.29	11.56	10.74	9.661	7.749	8.116	11.66	23.88	48.77	286.2	 1684	 2774	318.3	5.590	2.363	2.040	1.994	1.390	1.446	1.385	1.156	0.976	1.037	1.127	0.975	0.817	0.918
530.0	44.90	57.05	73.90	89.58	159.3	214.7	156.5	199.0	 1225	 3345	 1287	204.7	175.6	166.8	144.4	134.2	118.2	108.1	105.8	104.8	101.6	97.28	98.17	95.84	93.58	97.17	95.96	98.15	98.46	99.36	98.63	94.38	86.53	81.08	73.88	68.71	62.73	57.94	51.64	47.72	44.63	39.36	36.49	33.56	31.65	36.66	38.00	26.92	19.82	15.38	13.39	11.62	9.872	9.329	7.967	7.208	7.192	9.990	14.66	67.57	407.2	 1405	 2202	890.9	19.89	2.404	1.733	1.412	1.298	1.137	1.138	0.968	1.008	0.939	0.893	0.877	0.814
535.0	44.09	46.99	64.54	70.49	106.6	194.0	182.5	157.0	389.4	 1657	 3589	369.7	161.7	144.8	129.1	120.7	101.0	95.40	90.95	90.49	85.49	84.35	83.48	84.47	82.15	82.18	81.43	85.29	84.15	85.14	82.94	81.55	76.13	68.27	63.93	59.98	53.54	51.26	45.35	41.08	37.89	34.87	31.38	28.82	27.39	27.29	31.00	30.88	21.89	15.55	12.27	11.01	8.657	8.733	8.057	7.305	6.648	6.475	6.820	18.77	94.07	317.2	803.5	 2326	413.0	26.79	1.610	1.536	1.297	1.069	1.024	0.864	0.854	0.750	0.969	0.765	0.870
540.0	44.68	40.82	60.39	78.66	84.81	155.6	200.5	137.5	198.2	577.6	 3904	 1630	146.3	128.0	112.3	106.7	91.75	86.66	82.28	80.27	75.80	74.36	73.62	73.55	73.59	71.54	70.03	76.33	73.85	74.09	73.70	70.11	67.07	60.99	58.13	53.12	49.37	43.84	40.84	38.13	34.00	30.37	28.83	26.01	23.93	22.69	24.72	27.88	23.21	16.16	12.23	10.00	8.756	8.227	7.354	7.444	6.551	5.353	4.979	7.444	24.32	73.89	186.8	 1063	 2134	387.8	8.523	1.692	1.541	1.100	0.937	0.682	0.985	0.691	0.876	0.716	0.849
545.0	35.24	43.69	48.27	67.95	73.24	113.0	215.5	135.7	143.7	250.7	 2459	 3635	164.1	113.7	100.0	92.10	82.66	77.30	71.44	70.52	69.68	65.28	63.84	66.15	61.85	64.66	64.09	67.79	65.28	65.96	66.91	60.89	58.21	53.41	51.44	47.42	44.31	39.28	36.87	35.48	31.53	28.01	25.53	23.88	22.11	20.82	20.33	23.56	24.85	18.81	11.88	9.720	8.827	7.602	6.877	6.746	6.547	5.087	4.892	4.943	8.543	19.50	44.48	256.8	 1279	 2266	53.81	3.318	1.436	0.962	0.859	0.754	0.876	0.821	0.900	0.655	0.873
550.0	36.27	37.62	50.62	55.66	64.61	81.08	166.3	165.3	117.5	145.8	818.5	 4400	 1083	101.6	85.64	78.73	69.33	65.84	60.55	58.35	58.92	55.68	53.59	55.63	53.96	53.78	54.40	56.58	55.38	56.50	57.41	51.67	48.98	44.40	43.72	40.23	38.14	33.58	32.01	29.87	27.00	23.53	22.44	20.18	19.44	17.80	16.44	17.17	19.91	19.38	12.91	9.099	7.631	6.543	6.277	5.736	5.852	5.141	4.805	4.197	4.613	7.024	12.44	59.62	313.3	 1180	 1382	519.2	15.58	1.344	0.901	0.804	0.859	0.827	0.796	0.584	0.731
555.0	36.68	41.32	50.49	47.99	56.40	66.76	106.9	196.3	117.5	117.9	263.4	 1867	 3140	205.5	71.42	63.02	59.75	54.77	50.95	50.76	45.95	45.94	45.34	42.29	44.30	44.37	42.24	45.71	46.22	44.81	43.22	44.74	40.62	37.82	36.42	33.67	31.41	28.82	27.25	24.32	23.24	20.75	19.20	16.89	15.73	14.59	13.92	12.97	13.20	15.91	14.23	10.26	6.926	6.041	5.533	4.865	4.629	4.871	4.613	4.084	3.881	3.782	4.732	15.45	71.56	266.1	552.0	 1449	374.0	18.53	1.129	0.937	0.829	0.546	0.736	0.659	0.539
560.0	36.97	36.42	53.40	44.52	54.34	54.89	69.90	163.4	140.8	98.83	143.9	578.1	 3488	982.7	60.05	56.72	51.25	47.10	43.45	42.35	41.22	37.95	37.75	36.81	37.39	35.58	36.02	38.07	39.76	39.48	38.00	36.92	34.87	32.17	30.64	29.35	26.85	24.57	23.26	20.20	19.60	17.41	15.77	14.66	13.36	13.16	12.11	10.97	10.22	12.04	14.14	11.45	6.902	5.516	4.796	4.318	4.518	4.221	4.158	4.089	3.293	3.287	3.313	5.217	17.87	61.11	129.1	692.2	 1196	315.6	4.560	1.208	0.797	0.903	0.688	0.771	0.541
565.0	30.91	35.64	38.88	43.24	45.39	47.56	58.59	121.2	168.4	90.01	111.1	201.5	 2060	 2485	74.32	49.89	44.22	42.58	35.33	35.77	35.47	34.31	30.77	30.52	33.08	30.52	31.74	32.65	32.80	33.28	33.12	29.76	29.31	27.39	25.00	24.18	23.01	21.02	19.83	17.40	16.84	15.62	14.34	12.81	12.26	11.35	10.71	8.940	8.346	8.536	11.83	11.63	7.742	5.033	4.533	4.258	3.945	3.759	3.802	3.822	3.604	2.924	2.393	3.123	5.482	15.17	30.62	169.6	753.3	 1243	50.90	1.480	1.053	0.821	0.695	0.670	0.640
570.0	34.37	44.41	45.10	46.00	38.95	43.57	49.23	78.20	163.6	109.8	93.13	114.0	635.8	 2953	735.0	44.41	36.58	33.70	28.67	27.32	27.30	27.66	25.32	25.17	25.31	25.16	25.32	25.65	25.86	27.53	26.07	23.57	23.51	22.21	20.25	18.69	17.87	16.86	15.23	14.01	13.11	12.41	11.87	10.75	9.741	9.573	8.551	7.418	6.992	6.657	7.156	9.161	8.033	5.201	3.933	3.505	3.294	3.254	3.424	3.001	3.440	2.454	2.102	2.202	2.744	4.706	8.376	39.31	187.8	692.6	948.0	208.7	11.09	0.883	0.764	0.528	0.500
575.0	32.88	33.85	42.18	39.66	35.22	38.46	40.48	53.95	121.7	152.0	88.99	86.03	197.4	 1233	 2263	143.6	29.35	25.95	24.46	22.47	21.25	22.35	20.21	20.94	18.50	19.67	20.77	19.99	20.65	21.38	20.73	18.23	18.41	16.74	15.54	14.52	14.61	13.41	13.04	11.45	10.42	9.685	9.266	8.176	7.721	7.871	7.209	6.158	5.431	5.430	4.932	5.929	7.030	6.246	4.118	3.031	2.910	2.790	2.696	2.725	2.747	2.624	2.511	1.715	1.879	2.124	3.313	9.931	42.96	156.6	410.0	816.8	312.6	7.923	0.564	0.508	0.389
580.0	27.02	35.06	36.62	41.78	34.05	28.97	34.95	44.13	80.06	178.2	93.73	77.01	98.45	372.9	 2605	 1086	25.36	24.34	20.19	18.71	18.39	17.54	17.30	16.73	15.92	16.24	16.16	16.11	17.04	16.17	16.65	15.77	15.83	14.35	13.66	12.26	11.63	11.03	10.88	9.813	8.692	8.667	7.795	6.419	6.662	6.857	5.963	5.668	4.917	4.492	4.252	4.266	5.367	5.823	4.377	3.408	2.481	2.492	2.566	2.022	2.085	2.272	2.318	1.661	1.765	1.985	1.882	3.288	10.61	35.85	96.83	426.6	912.6	55.39	2.143	0.574	0.421
585.0	32.14	33.66	36.57	37.04	29.23	29.45	36.37	43.97	61.23	155.9	118.1	78.48	76.83	126.8	 1526	 2763	32.34	21.47	17.02	16.09	14.94	15.09	15.29	13.97	13.99	14.12	12.99	14.31	15.33	13.23	14.06	13.32	13.35	12.69	11.60	10.70	10.49	9.844	8.786	8.361	7.674	7.292	6.402	6.355	5.440	5.575	5.479	4.874	4.607	4.065	3.856	3.597	4.093	5.568	4.742	3.192	2.297	1.931	2.259	2.117	1.953	1.632	2.286	1.873	1.633	1.615	1.354	1.803	3.260	8.974	22.58	107.0	620.9	733.4	44.32	0.592	0.449
590.0	29.17	32.99	40.25	36.15	24.59	28.67	30.64	39.93	51.81	102.5	154.0	83.12	69.49	67.33	455.7	 2826	591.0	17.95	14.83	13.62	12.82	13.07	12.56	11.66	11.86	11.41	10.88	11.62	12.14	12.15	11.15	11.26	11.66	9.543	9.450	9.104	8.453	7.700	6.897	7.014	5.969	5.712	5.787	5.172	4.466	4.745	4.473	3.818	3.674	3.465	3.048	3.030	2.819	3.573	3.936	3.675	2.592	1.997	1.717	1.872	1.564	1.530	1.791	1.714	1.703	1.469	1.168	1.373	1.561	2.919	5.851	24.89	157.7	472.6	526.8	151.4	5.518
595.0	25.61	35.17	37.16	31.37	22.85	29.01	33.83	40.52	41.89	68.34	146.5	107.3	62.94	56.85	128.0	 1096	 2068	63.99	13.70	11.07	11.10	10.42	8.737	9.983	8.935	8.257	9.265	9.126	8.718	8.926	9.256	8.969	9.555	8.237	7.852	7.020	6.025	6.844	5.570	5.173	4.965	4.090	4.618	4.251	3.894	3.560	3.657	3.339	3.085	2.928	2.356	2.146	2.092	2.176	2.871	3.680	2.824	2.135	1.462	1.338	1.391	1.298	1.479	1.347	1.713	1.384	1.289	1.211	1.182	1.432	2.095	6.063	35.75	106.9	260.3	493.0	58.41
600.0	25.94	28.00	31.66	33.27	23.34	24.10	31.90	35.86	36.19	53.84	112.6	135.6	61.68	53.19	55.34	312.7	 2262	501.6	11.70	9.669	9.622	8.514	8.273	8.134	7.810	7.440	8.116	7.786	7.824	7.974	7.635	7.333	7.439	6.635	6.355	6.105	5.064	5.588	4.621	4.877	4.638	3.647	3.895	3.319	3.149	3.151	3.098	2.862	2.662	2.398	2.227	1.793	1.761	1.714	2.072	2.939	2.884	1.929	1.236	1.446	1.152	1.390	1.283	1.098	1.253	1.493	1.330	0.936	0.932	0.970	0.916	1.920	8.647	24.60	62.52	272.0	422.5
605.0	21.52	25.22	36.95	30.11	31.78	21.56	26.21	28.70	38.26	49.08	84.27	146.0	71.82	49.35	37.66	89.79	 1297	 1451	17.19	8.540	7.600	7.337	6.862	6.427	6.921	6.497	6.578	6.690	6.751	6.851	6.455	6.145	5.954	5.300	5.827	5.237	4.221	4.576	3.732	4.330	3.375	3.330	3.261	3.326	2.863	2.858	2.489	2.512	2.208	1.942	1.954	1.493	1.613	1.397	1.477	2.220	2.750	2.214	1.490	1.117	1.250	1.219	1.188	1.118	1.069	1.141	1.338	0.945	0.874	0.759	0.874	0.884	2.392	5.988	14.61	69.53	311.2
610.0	20.63	27.00	33.03	28.36	30.28	22.77	27.28	29.46	39.39	45.74	61.95	121.6	101.4	51.96	37.23	39.11	376.7	 2167	355.7	8.756	6.902	6.666	5.457	5.474	5.901	5.042	5.596	5.812	5.248	5.362	5.254	5.296	5.162	4.631	4.326	4.282	3.814	3.451	3.207	3.117	2.787	3.053	2.831	2.625	2.382	2.494	2.105	2.010	2.017	1.718	1.618	1.382	1.360	1.256	1.285	1.394	2.030	2.323	1.782	1.239	0.950	1.027	0.887	1.059	1.000	0.904	1.507	1.136	0.866	0.715	0.678	0.594	0.977	1.757	3.693	15.94	80.29
615.0	19.11	32.81	31.65	26.95	24.23	16.89	28.39	28.14	37.07	43.75	56.39	85.14	125.1	56.76	35.54	27.02	98.02	894.8	 1249	35.29	5.648	5.404	4.656	5.036	4.617	4.085	4.695	4.611	4.807	3.993	4.495	4.219	3.938	3.761	3.652	3.229	3.262	3.174	2.802	2.530	2.350	2.142	2.231	2.110	1.722	1.939	1.818	1.825	1.560	1.510	1.405	1.145	1.277	0.936	0.929	0.892	1.364	1.798	1.844	1.567	0.889	0.975	0.779	0.936	0.706	0.711	0.913	0.933	0.981	0.722	0.645	0.488	0.659	0.761	1.076	3.859	18.37
620.0	13.48	28.22	28.96	27.40	23.38	21.01	26.12	27.05	33.98	43.50	52.33	67.03	119.4	71.52	34.27	22.51	34.86	250.7	 1440	145.5	5.399	4.274	4.159	3.847	3.422	3.296	4.358	3.774	4.105	3.964	3.520	4.054	3.658	2.894	2.948	2.968	2.476	2.849	2.195	2.372	2.069	1.645	2.048	1.942	1.586	1.582	1.859	1.463	1.477	1.186	1.156	1.023	0.896	0.790	0.783	0.874	0.855	1.185	1.590	1.435	0.888	0.795	0.933	0.832	0.666	0.789	0.705	0.728	1.048	0.908	0.640	0.492	0.667	0.440	0.469	1.309	4.333
625.0	12.45	22.79	26.32	27.98	25.60	20.48	19.83	22.94	33.58	40.72	50.55	56.47	93.04	88.51	36.39	23.71	21.33	68.24	864.7	891.6	8.457	4.571	4.112	3.724	3.040	3.685	3.450	3.654	2.973	3.713	3.235	3.373	3.160	2.812	2.568	2.285	2.105	2.348	2.294	1.945	1.844	1.314	1.698	1.548	1.319	1.375	1.340	1.335	1.214	1.051	0.988	1.061	0.751	0.752	0.731	0.786	0.737	1.013	1.267	1.599	0.955	0.725	0.752	0.751	0.545	0.802	0.628	0.782	0.932	1.075	0.744	0.520	0.455	0.366	0.446	0.647	1.303
630.0	14.51	24.26	26.50	26.76	20.25	21.74	20.34	24.10	31.43	35.89	46.03	52.97	69.83	97.99	45.01	23.45	18.89	25.72	256.7	 1245	267.1	4.391	3.220	3.346	2.669	3.021	2.726	2.699	2.655	2.760	3.010	2.450	2.563	2.313	1.781	1.996	2.073	1.896	1.779	1.596	1.665	1.342	1.309	1.212	1.085	1.214	1.253	1.056	1.003	0.937	0.863	0.781	0.702	0.626	0.544	0.727	0.588	0.609	0.787	1.042	0.958	0.794	0.589	0.738	0.581	0.685	0.598	0.556	0.836	0.768	0.814	0.450	0.505	0.371	0.374	0.367	0.538
635.0	11.71	22.16	22.28	21.35	19.82	18.46	18.34	20.37	30.34	37.13	43.64	52.10	58.18	77.16	62.85	25.96	16.49	15.99	64.89	570.4	 1030	21.01	3.371	2.495	2.196	2.529	2.301	2.383	2.476	2.182	2.254	1.863	2.007	1.818	1.586	1.630	1.839	1.342	1.326	1.494	1.527	1.398	1.180	1.183	0.887	0.911	1.062	0.855	0.812	0.826	0.762	0.639	0.443	0.646	0.562	0.683	0.559	0.536	0.639	0.704	0.855	0.716	0.658	0.759	0.717	0.462	0.552	0.449	0.567	0.651	0.827	0.720	0.702	0.316	0.450	0.334	0.396
640.0	16.67	17.14	22.43	23.41	19.90	17.60	17.94	24.73	27.17	37.98	47.73	49.64	51.93	55.12	74.22	29.75	17.93	14.36	23.67	164.5	 1285	113.5	3.373	2.545	2.497	1.961	2.017	1.878	1.553	2.038	1.770	1.546	2.031	1.615	1.476	1.399	1.248	1.064	1.021	1.185	1.119	1.038	1.035	1.032	0.847	0.746	0.968	0.745	0.879	0.632	0.750	0.709	0.461	0.530	0.472	0.532	0.561	0.483	0.638	0.573	0.672	0.761	0.820	0.495	0.608	0.513	0.721	0.583	0.401	0.442	0.549	0.778	0.636	0.514	0.409	0.595	0.428
645.0	25.92	15.49	22.68	21.54	21.13	16.09	17.42	23.81	26.88	31.11	41.70	45.88	50.51	49.98	75.82	36.90	18.07	12.81	11.77	43.84	830.4	650.0	5.788	2.319	2.208	2.560	1.692	1.679	1.431	1.457	1.725	1.350	1.825	1.247	1.354	1.120	1.139	1.105	1.055	0.844	0.765	0.978	1.091	1.028	0.880	0.758	0.656	0.627	0.635	0.673	0.546	0.689	0.535	0.520	0.448	0.454	0.368	0.459	0.546	0.421	0.499	0.751	0.982	0.506	0.510	0.488	0.383	0.518	0.320	0.437	0.334	0.634	0.619	0.515	0.383	0.318	0.456
650.0	32.73	20.46	26.57	30.01	19.08	14.75	18.69	22.82	26.25	32.93	42.75	47.28	50.59	48.38	65.39	46.02	21.93	15.43	11.21	15.63	303.5	 1081	45.89	2.110	1.983	1.983	1.906	1.661	1.525	1.830	1.556	1.347	1.508	1.116	1.177	1.195	1.077	0.828	0.941	0.954	0.853	0.902	0.821	0.812	0.648	0.942	0.761	0.722	0.567	0.498	0.514	0.457	0.474	0.630	0.453	0.467	0.382	0.279	0.528	0.694	0.437	0.540	0.812	0.556	0.571	0.501	0.385	0.401	0.430	0.554	0.606	0.514	0.617	0.665	0.421	0.262	0.293
