Sample:	'1
File name:	t2025040809袁家屋子南闸入杏花河.FD3
Run date:	'12:40:05, 04/09/2025
Operator:	Administrator
Comment:	'

Instrument
Model:	F-2700 FL Spectrophotometer
Serial number:	23B8-004
ROM Version:	4J14000 07

Instrument parameters
Measurement type:	3-D scan
Data mode:	Fluorescence
EX  Start WL:	220.0 nm
EX  End WL:	600.0 nm
EX Sampling interval:	5.0 nm
EM  Start WL:	230.0 nm
EM  End WL:	650.0 nm
EM Sampling interval:	5.0 nm
Scan speed:	12000 nm/min
EX Slit:	5.0 nm
EM Slit:	5.0 nm
PMT Voltage:	700 V
Response:	Auto 
Corrected spectra:	Off
Contour interval:	50.000

Peak integration
Integration method:	Rectangular
Sensitivity:	1
Threshold:	1.000

Peaks
No.	ApexEX/EM(nm)	Height(Data)
1	225.0/620.0	89.32
2	230.0/345.0	5413
3	240.0/410.0	2742
4	255.0/285.0	463.6
5	265.0/585.0	143.9
6	270.0/600.0	132.8
7	275.0/430.0	4998
8	275.0/615.0	134.1
9	280.0/340.0	3233
10	280.0/625.0	126.9
11	335.0/420.0	2972
12	475.0/345.0	15.74
13	505.0/445.0	14.08
14	510.0/280.0	3.358
15	560.0/335.0	15.46
16	570.0/340.0	16.26
17	570.0/415.0	14.76
18	580.0/425.0	15.34

Data points
	220.0	225.0	230.0	235.0	240.0	245.0	250.0	255.0	260.0	265.0	270.0	275.0	280.0	285.0	290.0	295.0	300.0	305.0	310.0	315.0	320.0	325.0	330.0	335.0	340.0	345.0	350.0	355.0	360.0	365.0	370.0	375.0	380.0	385.0	390.0	395.0	400.0	405.0	410.0	415.0	420.0	425.0	430.0	435.0	440.0	445.0	450.0	455.0	460.0	465.0	470.0	475.0	480.0	485.0	490.0	495.0	500.0	505.0	510.0	515.0	520.0	525.0	530.0	535.0	540.0	545.0	550.0	555.0	560.0	565.0	570.0	575.0	580.0	585.0	590.0	595.0	600.0
230.0	49.50	993.8	3051	1098	51.97	10.49	8.770	8.104	7.106	6.468	6.147	6.243	5.626	5.002	4.265	4.062	3.261	3.007	3.058	2.629	2.394	2.464	2.688	2.276	2.020	1.954	1.949	1.638	1.727	1.584	1.544	1.359	1.282	1.200	1.113	1.012	0.943	0.853	0.802	0.710	0.757	0.845	0.772	0.687	0.645	0.677	1.371	5.808	11.16	8.961	3.637	0.954	0.562	0.487	0.459	0.475	0.524	0.476	0.484	0.472	0.477	0.440	0.410	0.415	0.425	0.400	0.405	0.402	0.389	0.394	0.390	0.405	0.398	0.377	0.411	0.382	0.391
235.0	66.68	282.2	2071	4018	579.8	78.25	11.85	10.01	7.782	6.647	6.659	6.457	5.797	4.917	4.643	4.327	3.896	3.185	3.095	2.869	2.542	2.657	2.754	2.164	2.167	2.139	1.883	1.768	1.749	1.720	1.515	1.383	1.341	1.267	0.991	1.028	1.053	0.843	0.848	0.743	0.727	0.716	0.778	0.793	0.751	0.710	0.805	1.897	4.523	9.320	14.54	15.61	7.389	1.789	0.450	0.618	0.595	0.515	0.533	0.484	0.434	0.446	0.465	0.403	0.442	0.424	0.388	0.370	0.407	0.380	0.398	0.388	0.439	0.349	0.363	0.351	0.412
240.0	94.87	126.5	639.0	3651	4422	468.2	39.99	12.25	8.906	7.717	7.996	7.095	6.060	5.746	4.440	4.023	3.765	3.238	3.168	3.040	2.696	2.275	2.596	2.289	2.229	2.167	2.017	1.807	1.803	1.804	1.676	1.297	1.143	1.088	1.052	1.103	1.050	0.950	0.769	0.743	0.813	0.742	0.695	0.739	0.842	0.812	0.747	1.006	1.535	3.067	8.517	20.87	25.62	17.39	5.596	1.041	0.565	0.548	0.510	0.526	0.443	0.463	0.452	0.412	0.414	0.468	0.422	0.409	0.441	0.433	0.424	0.363	0.401	0.385	0.380	0.414	0.462
245.0	88.30	136.8	193.2	1274	5855	3711	356.7	17.96	11.60	9.000	8.791	8.213	6.843	6.313	4.926	4.179	3.865	3.320	3.425	3.269	2.842	2.558	2.762	2.523	2.370	2.268	1.831	1.814	1.877	1.716	1.611	1.431	1.314	1.167	1.156	1.132	0.937	0.999	0.925	0.879	0.811	0.808	0.778	0.784	0.708	0.860	0.809	0.912	0.820	1.071	2.424	7.608	19.54	33.30	26.45	15.06	4.048	0.698	0.568	0.500	0.483	0.434	0.438	0.447	0.476	0.483	0.413	0.394	0.437	0.455	0.412	0.344	0.421	0.388	0.393	0.401	0.439
250.0	58.80	111.7	183.1	354.5	1977	5438	6209	1281	81.40	12.96	11.13	9.219	7.777	7.172	5.494	4.829	4.135	3.666	3.475	3.182	2.916	2.808	3.052	2.622	2.383	2.195	2.121	2.016	1.990	1.903	1.571	1.535	1.365	1.233	1.159	1.125	0.995	0.976	0.980	0.949	0.799	0.849	0.818	0.749	0.669	0.694	0.772	0.992	1.090	0.967	1.129	2.228	5.097	11.51	20.10	32.15	36.82	33.82	12.46	4.012	0.721	0.530	0.483	0.528	0.531	0.509	0.481	0.453	0.443	0.441	0.429	0.419	0.431	0.354	0.442	0.403	0.378
255.0	45.13	57.90	134.3	259.7	507.8	1454	6294	9999.9	1792	80.17	15.15	11.68	9.948	8.452	6.196	5.213	4.493	3.758	4.002	3.596	2.993	2.646	2.850	2.667	2.693	2.358	2.215	1.948	2.091	1.859	1.779	1.619	1.435	1.250	1.166	1.172	1.036	1.011	0.961	0.857	0.857	0.968	0.804	0.776	0.715	0.745	0.677	0.748	0.907	0.843	1.263	1.568	1.811	3.033	5.064	8.258	16.64	39.52	64.77	29.72	19.50	4.046	0.654	0.542	0.542	0.445	0.534	0.500	0.445	0.430	0.543	0.385	0.460	0.446	0.489	0.480	0.377
260.0	50.31	44.66	69.07	218.7	291.7	374.4	2039	9786	9999.9	1329	38.56	15.87	12.23	10.07	7.943	6.212	4.971	4.244	3.952	4.051	3.240	3.250	3.409	2.801	2.699	2.317	2.492	2.214	2.334	1.986	1.895	1.574	1.428	1.310	1.182	1.103	1.034	0.962	0.973	0.881	0.828	0.789	0.979	0.740	0.846	0.774	0.775	0.694	0.684	0.661	0.984	1.604	1.840	1.524	1.587	2.372	4.446	11.39	32.49	60.99	84.22	28.64	14.81	2.025	0.597	0.512	0.553	0.446	0.472	0.433	0.426	0.445	0.388	0.501	0.473	0.481	0.366
265.0	60.92	40.55	42.47	115.9	301.2	217.4	506.3	3610	9999.9	9999.9	207.3	24.08	15.34	11.60	8.896	7.021	5.347	4.633	4.677	4.172	3.482	3.235	3.456	3.080	2.740	2.562	2.401	2.191	2.143	1.820	1.876	1.576	1.495	1.387	1.244	1.148	1.055	1.034	1.066	0.988	0.850	0.972	0.952	0.868	0.837	0.772	0.706	0.726	0.703	0.571	0.671	1.017	1.656	1.995	1.414	1.158	1.582	3.181	8.230	20.36	52.86	84.82	96.18	25.89	9.365	0.875	0.648	0.560	0.498	0.509	0.507	0.520	0.447	0.493	0.481	0.509	0.441
270.0	70.62	55.78	52.68	61.26	155.6	293.2	275.5	875.0	3926	9999.9	9999.9	3288	57.58	17.10	11.89	9.431	7.095	6.070	5.304	4.505	3.905	3.392	3.861	3.245	2.943	2.775	2.558	2.321	2.441	2.104	1.937	1.846	1.589	1.572	1.362	1.273	1.211	1.088	1.070	0.999	0.880	0.975	0.900	0.869	0.905	0.891	0.809	0.760	0.861	0.693	0.645	0.722	0.945	1.365	1.684	1.868	1.771	1.588	2.483	5.176	13.02	26.67	52.77	73.21	94.56	74.40	17.03	7.863	1.182	0.599	0.602	0.595	0.552	0.518	0.516	0.556	0.519
275.0	138.8	136.9	130.7	80.15	82.06	164.8	394.1	377.0	947.7	2704	9999.9	9999.9	1164	55.62	19.10	12.98	9.146	7.422	6.443	5.377	4.243	4.005	4.421	3.546	3.498	3.089	2.742	2.550	2.650	2.122	2.082	1.928	1.889	1.584	1.676	1.386	1.286	1.120	1.198	1.017	0.984	0.998	1.022	1.106	0.952	1.066	1.084	1.049	1.016	0.856	0.711	0.777	0.780	0.837	0.992	1.311	2.277	2.929	2.185	2.109	3.521	6.703	12.62	17.65	31.18	66.66	129.1	133.4	27.67	10.22	0.957	0.675	0.637	0.622	0.605	0.498	0.590
280.0	229.7	263.4	245.5	153.9	97.57	108.7	299.1	404.5	363.5	735.9	3279	9999.9	9999.9	827.3	32.48	18.20	11.88	8.908	7.922	5.912	5.006	4.294	4.458	3.946	3.596	2.981	2.947	2.925	2.666	2.320	2.039	1.975	1.960	1.675	1.721	1.442	1.412	1.323	1.226	1.213	1.084	1.269	1.196	1.148	1.148	1.345	1.281	1.311	1.271	1.140	0.959	0.991	0.883	0.861	0.833	0.984	1.604	2.270	3.358	2.601	1.992	2.337	3.753	4.972	8.074	17.67	49.51	110.4	156.9	124.8	21.91	4.421	0.865	0.693	0.654	0.544	0.601
285.0	332.0	403.7	395.7	247.6	145.8	122.5	191.1	463.6	348.3	358.6	952.6	4544	9999.9	8377	116.8	25.80	15.48	11.47	8.845	7.281	5.721	4.857	4.955	4.269	3.760	3.735	3.376	2.942	2.676	2.850	2.579	2.073	1.970	1.696	1.861	1.665	1.409	1.403	1.431	1.315	1.102	1.209	1.225	1.284	1.260	1.520	1.487	1.826	1.863	1.492	1.212	1.342	1.064	0.964	1.007	0.987	1.359	1.538	2.316	3.291	3.483	2.291	2.290	2.338	3.239	5.347	12.61	30.01	72.66	142.1	165.9	32.17	16.62	1.932	0.727	0.714	0.663
290.0	453.7	607.8	620.8	412.7	247.4	189.3	209.1	339.7	580.3	634.6	601.6	1395	4662	9999.9	9999.9	2311	39.74	16.38	12.51	9.231	7.252	5.950	5.457	4.877	4.023	3.941	3.732	3.193	2.902	2.958	2.540	2.447	2.194	2.024	2.063	1.932	1.775	1.667	1.544	1.464	1.353	1.396	1.360	1.586	1.615	1.896	2.007	2.478	2.437	2.008	1.818	1.839	1.496	1.342	1.296	1.375	1.523	1.523	1.754	2.277	2.946	3.765	4.066	3.364	3.063	3.273	4.917	8.821	18.52	38.13	69.32	93.25	135.3	107.0	81.19	12.41	2.771
295.0	607.8	815.1	859.8	579.2	360.7	281.2	296.2	365.1	518.1	909.7	952.0	895.7	1520	2931	9999.9	9999.9	670.0	40.01	17.92	12.86	9.316	7.679	6.797	5.961	4.832	4.395	4.170	3.627	3.264	3.191	2.712	2.501	2.369	2.245	2.232	2.248	2.012	1.835	1.706	1.587	1.344	1.682	1.537	1.670	1.923	2.365	2.542	3.169	3.083	2.622	2.259	2.282	1.982	1.939	1.785	1.702	1.944	1.914	1.970	2.381	2.489	2.997	4.288	5.278	5.817	4.645	4.452	4.960	7.175	11.19	17.88	23.04	36.61	66.38	159.7	201.1	34.57
300.0	688.3	947.8	994.2	704.1	463.8	369.0	401.7	464.7	599.9	898.5	1343	1118	1011	1120	3431	9999.9	9999.9	515.1	29.11	18.01	11.88	9.438	8.271	6.389	5.611	4.885	4.562	4.003	3.478	3.321	3.293	2.803	2.425	2.324	2.182	2.180	2.075	1.886	1.837	1.789	1.602	1.830	1.837	1.790	2.164	2.578	2.815	3.446	3.395	3.050	2.487	2.443	2.388	2.013	1.987	2.012	2.421	2.495	2.549	2.519	2.977	3.462	4.082	4.902	6.168	7.175	6.423	5.445	5.897	6.166	7.373	7.982	10.63	17.58	48.67	117.9	188.0
305.0	761.3	1048	1126	809.2	553.8	471.6	525.7	624.9	791.0	1049	1470	1612	1222	954.9	1237	4892	9999.9	9999.9	77.75	26.54	16.01	11.52	9.950	7.823	6.388	5.752	4.824	4.391	4.075	3.448	3.093	2.814	2.593	2.386	2.285	2.331	2.191	2.084	2.220	2.009	1.850	1.942	1.762	1.902	2.226	2.693	3.055	3.754	3.794	3.421	2.939	2.784	2.568	2.480	2.461	2.338	3.244	2.927	3.112	3.450	3.632	4.130	4.732	5.515	5.901	7.839	8.697	8.487	8.193	6.708	6.297	5.670	5.878	7.326	13.76	30.34	69.22
310.0	814.1	1187	1239	940.0	652.5	579.4	677.0	812.5	1003	1270	1566	1905	1840	1253	960.1	1535	4714	9999.9	9999.9	1868	35.07	16.81	14.36	9.770	7.963	6.761	5.724	5.128	4.749	3.697	3.363	3.118	2.902	2.712	2.562	2.460	2.393	2.195	2.251	2.077	1.932	2.056	1.994	2.190	2.404	2.900	3.587	4.051	4.262	3.709	3.325	3.348	2.975	2.870	2.838	2.953	3.897	3.655	3.911	4.263	4.836	5.181	6.105	6.530	7.438	8.003	8.853	9.803	10.60	9.576	8.620	7.238	6.289	6.239	6.749	9.918	18.06
315.0	909.5	1347	1397	1053	762.9	697.4	807.6	968.8	1183	1472	1744	1989	2106	1793	1100	917.8	1420	2743	9999.9	9999.9	507.5	39.26	21.36	13.35	9.808	7.802	6.813	5.787	5.278	4.382	3.873	3.580	3.057	2.783	2.852	2.662	2.343	2.322	2.322	2.077	2.008	2.171	2.242	2.400	2.750	3.341	3.988	4.575	4.685	4.077	3.598	3.848	3.416	3.188	3.168	3.404	4.900	4.281	4.659	5.098	5.275	5.798	6.847	7.559	8.370	8.893	10.00	10.18	10.79	10.76	11.39	10.53	8.558	7.322	6.257	6.327	7.171
320.0	1093	1681	1744	1272	859.1	787.4	897.8	1100	1314	1656	1964	2210	2282	2119	1533	946.3	793.8	880.3	3214	9999.9	9999.9	435.7	36.72	17.92	12.21	9.155	7.986	6.588	6.077	5.090	4.283	3.851	3.327	2.987	3.026	2.630	2.539	2.380	2.489	2.059	2.199	2.417	2.551	2.676	3.049	3.986	4.885	5.746	5.511	4.679	4.286	4.542	4.068	3.630	3.650	3.957	5.207	4.760	5.111	5.587	5.871	6.619	7.362	8.431	9.325	9.578	10.93	10.98	11.65	11.72	11.38	12.16	11.46	10.04	7.470	6.116	5.813
325.0	1383	2290	2425	1774	1134	926.8	1017	1226	1480	1850	2195	2464	2513	2238	1928	1213	769.3	541.4	920.0	4307	9999.9	9999.9	362.9	26.22	15.83	11.84	9.393	7.399	6.443	5.419	4.543	4.284	3.658	3.408	2.906	2.793	2.721	2.519	2.645	2.347	2.355	2.488	2.784	2.941	3.854	4.898	6.354	7.590	7.700	6.554	5.734	5.806	4.855	4.482	4.263	4.185	5.614	5.253	5.541	5.981	6.635	7.087	8.255	9.269	10.35	10.96	12.03	12.27	12.93	12.89	12.49	12.01	12.02	12.59	9.715	7.751	6.897
330.0	1798	3138	3759	2988	1855	1265	1202	1426	1693	2090	2467	2781	2866	2501	2139	1659	1024	622.5	524.4	1207	4369	9999.9	9999.9	1658	34.60	16.92	12.42	9.557	8.002	6.318	5.250	4.438	4.008	3.555	3.235	3.013	3.045	2.603	2.752	2.618	2.409	2.613	3.111	3.450	4.733	6.105	7.945	10.38	11.00	10.18	9.130	9.629	7.465	6.327	5.471	5.261	6.653	5.953	6.499	6.902	7.490	8.272	9.448	10.05	11.32	12.21	13.38	13.25	14.18	14.29	13.89	13.37	13.24	12.98	11.75	10.50	9.439
335.0	2115	3801	4734	4020	2684	1714	1443	1585	1860	2266	2668	2998	3122	2771	2344	1862	1409	880.6	596.5	651.3	1269	2733	9999.9	9999.9	2603	39.66	18.60	12.77	10.59	8.205	6.551	5.375	4.494	4.075	3.532	3.557	3.023	2.869	3.011	2.782	2.578	3.035	3.373	3.888	5.102	6.689	9.291	12.16	13.50	12.65	12.67	12.98	10.80	8.960	7.429	6.762	7.572	6.684	7.109	7.512	8.453	9.061	9.932	11.22	12.64	12.82	14.01	14.44	15.46	15.44	15.24	15.15	14.53	14.38	12.52	11.50	10.95
340.0	2249	4020	5287	4582	3058	1942	1581	1673	1972	2355	2727	3067	3233	2891	2459	1938	1515	1136	728.7	604.6	648.2	906.8	3287	9999.9	9999.9	400.5	32.16	16.12	13.14	9.128	7.331	6.178	4.840	4.448	4.005	3.435	3.360	2.851	3.033	2.884	2.869	3.333	3.294	4.000	5.330	7.454	9.783	12.96	14.73	14.20	14.05	14.98	12.39	10.57	8.398	7.153	7.936	6.935	7.938	8.275	8.725	9.447	10.17	12.04	12.62	13.10	14.47	14.59	15.40	15.58	16.26	15.53	15.61	15.10	12.89	11.79	11.19
345.0	2234	4100	5413	4912	3295	2070	1662	1734	2015	2370	2736	3046	3215	2898	2495	1994	1511	1264	916.2	667.7	574.7	558.3	1026	3995	9999.9	9999.9	337.1	24.29	15.55	10.35	8.537	7.038	5.604	4.651	4.205	3.500	3.276	3.050	2.949	2.867	2.915	3.203	3.628	4.060	5.549	7.413	9.606	13.01	14.97	15.10	14.64	15.74	13.68	11.02	8.681	7.539	8.590	7.118	7.958	8.440	8.848	9.567	10.35	11.83	12.71	12.92	14.49	14.69	15.16	15.73	15.87	15.59	15.03	14.76	13.61	12.22	11.93
350.0	2148	3785	5124	4845	3410	2234	1754	1808	2024	2326	2655	2905	3067	2803	2464	2011	1566	1274	1099	870.8	670.3	575.2	591.0	1155	4010	9999.9	9999.9	1559	33.91	15.67	11.07	8.226	6.460	5.512	4.514	3.788	3.566	3.173	3.016	3.010	2.716	3.124	3.368	4.059	5.228	7.082	9.148	12.59	14.40	14.45	14.41	15.26	13.99	11.37	9.321	8.017	8.915	7.957	8.297	8.592	9.066	9.769	10.27	11.71	12.39	12.55	13.49	13.78	14.63	14.69	15.22	14.98	14.71	14.79	13.35	12.23	12.02
355.0	2006	3444	4688	4568	3394	2294	1814	1856	2014	2277	2536	2729	2866	2669	2379	1998	1632	1342	1155	1079	866.3	685.3	583.5	591.0	1117	2518	9999.9	9999.9	2811	39.50	16.55	10.74	8.262	6.511	4.869	4.144	3.715	3.608	3.300	3.171	2.749	3.076	3.446	3.894	4.802	6.582	8.165	11.63	13.16	13.09	13.34	14.85	13.95	11.41	9.637	7.933	9.022	8.403	8.630	8.840	9.207	9.551	10.19	10.81	12.04	11.32	12.96	13.30	13.30	14.03	13.89	13.77	14.02	13.89	13.21	12.35	11.95
360.0	1833	3212	4293	4245	3282	2288	1860	1886	2011	2224	2442	2604	2712	2547	2299	1988	1670	1410	1226	1134	1042	819.8	659.2	530.6	539.5	758.5	2751	9999.9	9999.9	2266	33.99	14.73	10.50	7.693	5.563	4.433	4.166	3.726	3.597	3.008	3.070	3.236	3.548	3.756	4.412	6.420	7.788	10.51	12.20	12.18	12.30	14.30	12.99	11.54	9.786	8.613	8.715	8.288	8.738	8.552	8.975	9.756	10.31	10.39	11.22	11.39	12.07	12.63	12.86	13.72	13.31	13.20	14.22	13.86	12.53	12.17	11.71
365.0	1714	2933	3967	3966	3151	2291	1916	1894	2013	2193	2353	2500	2575	2438	2235	1959	1695	1474	1309	1186	1136	994.5	772.8	599.9	482.3	427.4	784.2	3244	9999.9	9999.9	357.8	25.78	13.63	9.170	6.552	5.302	4.581	3.848	3.825	3.392	3.076	3.313	3.157	3.733	4.530	5.772	7.238	9.662	11.31	11.17	11.70	13.29	12.22	11.04	9.791	8.330	8.934	8.562	8.848	8.521	9.118	9.556	9.807	10.51	11.33	11.35	11.79	11.88	12.32	12.54	12.73	12.74	13.61	13.02	12.67	12.28	11.96
370.0	1528	2544	3544	3641	3010	2293	1951	1939	2024	2151	2280	2370	2419	2305	2143	1933	1719	1545	1414	1305	1205	1147	989.1	756.4	591.8	454.5	437.3	915.3	3491	9999.9	9999.9	5798	32.26	15.13	9.403	6.892	5.688	4.544	4.177	3.703	3.104	3.316	3.335	3.589	4.428	5.426	6.746	8.808	10.01	9.922	10.61	12.25	11.63	10.69	9.363	8.763	9.221	8.711	8.908	9.203	9.370	9.522	10.14	10.29	10.74	10.63	10.84	11.21	11.88	12.19	12.14	12.24	12.36	12.40	12.23	12.16	12.06
375.0	1389	2299	3188	3273	2859	2270	1989	1965	2008	2111	2198	2260	2283	2194	2061	1887	1737	1601	1503	1413	1315	1229	1158	975.0	754.8	596.7	469.2	490.7	987.5	2455	9013	9999.9	2600	38.18	15.03	9.423	6.972	5.394	4.600	4.250	3.443	3.507	3.151	3.623	4.361	5.121	6.143	8.310	8.939	9.351	9.814	11.35	11.22	10.53	9.379	8.763	9.323	8.766	9.042	9.209	9.495	9.487	10.09	10.31	10.65	10.48	10.64	10.54	11.10	10.92	11.61	11.59	11.61	12.32	11.91	11.39	11.98
380.0	1286	2175	2891	3059	2728	2248	1999	1973	2001	2079	2172	2203	2220	2145	2009	1860	1736	1628	1541	1478	1396	1308	1225	1129	911.6	728.6	576.7	472.4	502.6	750.4	2419	9999.9	9999.9	2191	31.31	13.11	9.378	6.528	5.440	4.674	3.842	3.703	3.437	3.744	4.320	5.142	5.924	7.658	8.483	8.790	9.036	11.00	10.73	9.896	9.280	8.889	8.940	8.757	8.840	8.903	9.026	9.644	9.659	10.02	10.54	10.19	10.08	10.33	10.62	11.08	11.22	11.24	11.91	11.66	11.51	11.36	11.66
385.0	1272	2049	2740	2907	2642	2250	2023	2001	2036	2089	2172	2197	2198	2117	1996	1846	1735	1651	1591	1538	1472	1395	1312	1225	1093	875.4	707.3	573.4	474.0	445.2	740.6	2945	9999.9	9999.9	306.5	25.05	12.93	8.603	6.557	4.954	3.912	3.764	3.770	3.632	4.231	4.983	5.712	7.228	7.690	8.242	8.572	10.64	10.13	9.704	9.566	8.913	9.061	9.053	8.940	8.953	9.167	9.303	9.388	9.834	10.22	10.02	10.01	9.892	10.21	11.27	10.77	11.25	11.27	11.48	11.40	11.23	11.21
390.0	1204	1920	2558	2752	2587	2290	2119	2090	2152	2228	2324	2366	2350	2259	2118	1919	1784	1707	1673	1645	1615	1566	1500	1406	1316	1165	956.3	791.6	658.3	527.8	476.1	878.2	3066	9999.9	9999.9	5462	28.78	13.97	9.102	6.333	4.797	4.525	4.175	3.945	4.401	5.043	5.495	6.811	7.541	7.584	8.214	10.34	10.15	9.611	9.111	8.885	9.377	9.149	9.300	9.222	9.417	9.611	9.926	10.23	10.42	10.28	10.53	10.36	10.59	11.21	10.85	11.30	11.26	11.59	11.42	11.05	11.38
395.0	1159	1769	2398	2656	2600	2394	2279	2287	2395	2551	2746	2801	2779	2646	2426	2135	1922	1836	1822	1829	1850	1845	1818	1736	1638	1530	1354	1133	959.5	781.5	613.6	534.2	925.7	2439	6891	9999.9	2207	33.91	14.20	8.966	6.264	5.259	4.472	4.444	4.589	5.247	5.546	6.741	7.529	7.711	8.290	9.808	10.08	9.903	9.337	9.615	9.487	9.833	10.09	9.961	10.04	10.52	10.61	10.86	11.02	10.81	10.94	11.13	11.21	11.56	11.79	11.78	11.97	11.81	11.66	11.58	11.61
400.0	1199	1765	2321	2651	2649	2502	2402	2463	2657	2935	3235	3368	3323	3163	2818	2398	2080	1973	1990	2026	2096	2132	2139	2089	1987	1854	1710	1485	1248	1039	812.3	613.9	529.3	774.3	1838	9388	9999.9	1943	28.98	12.41	7.860	6.313	5.121	4.911	4.919	5.246	5.707	6.722	7.425	7.619	7.989	9.574	9.963	10.31	9.623	9.731	9.960	10.23	10.62	10.32	10.41	11.20	11.07	11.86	11.82	11.32	12.10	11.90	11.89	12.31	12.35	12.51	12.98	12.54	12.50	12.47	11.96
405.0	1157	1728	2351	2635	2696	2583	2565	2701	2957	3357	3782	3965	3930	3706	3256	2678	2289	2138	2160	2239	2353	2421	2471	2435	2349	2181	2014	1825	1552	1290	1025	767.5	563.9	474.3	616.4	2627	9999.9	9999.9	1536	22.06	9.937	7.538	5.907	5.363	5.385	5.367	5.608	6.922	7.498	7.635	7.968	9.855	9.917	10.12	9.973	10.03	10.74	10.85	11.00	10.92	11.24	11.67	11.96	12.61	12.17	12.37	12.71	12.85	13.04	13.35	13.38	13.55	13.83	13.69	13.41	12.54	12.84
410.0	1123	1681	2280	2620	2742	2674	2745	2930	3283	3815	4339	4593	4537	4258	3681	2965	2464	2284	2318	2428	2579	2700	2789	2787	2708	2532	2326	2123	1886	1583	1261	960.4	695.2	506.4	410.0	762.7	2818	9481	9999.9	4856	24.48	10.91	7.576	6.440	5.874	5.753	5.860	7.053	7.610	7.426	7.894	9.802	10.18	10.27	10.23	10.38	10.76	11.44	11.59	11.47	11.69	12.14	12.81	13.20	13.13	13.02	13.88	13.49	13.93	14.30	14.42	14.25	14.27	14.15	13.80	13.25	13.09
415.0	1078	1632	2214	2575	2738	2748	2837	3049	3447	4015	4615	4885	4824	4504	3876	3072	2522	2317	2356	2487	2654	2814	2923	2942	2879	2715	2495	2274	2061	1773	1426	1087	797.5	576.4	409.8	380.7	754.9	2219	5962	9999.9	2031	29.78	10.49	7.858	6.875	6.654	6.226	7.300	7.303	7.353	7.692	9.754	10.38	10.32	10.82	10.53	10.69	11.73	11.65	11.91	12.48	11.94	12.88	13.43	13.52	13.67	13.69	13.63	14.33	14.40	14.76	14.73	14.60	14.10	13.62	13.24	12.84
420.0	1104	1634	2124	2512	2688	2764	2864	3080	3482	4051	4684	4949	4861	4547	3894	3083	2500	2286	2338	2464	2645	2816	2940	2972	2915	2753	2539	2311	2090	1847	1507	1151	854.5	616.6	433.3	314.8	305.9	576.9	1499	7890	9999.9	1802	24.32	9.302	8.409	7.209	6.453	7.395	7.415	7.161	7.487	9.690	10.49	10.32	10.54	10.56	11.45	11.54	12.23	12.23	12.43	12.47	12.78	13.39	13.65	13.69	13.60	14.14	14.23	14.47	14.52	14.62	15.05	14.21	14.04	12.72	12.60
425.0	1030	1589	2029	2458	2658	2769	2906	3138	3493	4061	4685	4970	4884	4550	3886	3056	2475	2262	2312	2436	2611	2792	2911	2962	2907	2758	2561	2336	2116	1865	1571	1207	893.8	651.8	463.7	317.4	223.4	220.5	392.5	2108	9633	9999.9	1376	17.83	9.551	7.935	7.026	7.479	7.602	7.216	7.336	9.956	10.10	10.43	10.74	11.09	11.75	11.80	12.59	12.61	12.60	12.86	12.92	13.31	13.35	13.64	13.22	13.80	14.08	14.27	14.41	14.34	15.34	13.65	13.55	12.36	12.80
430.0	1041	1527	2011	2411	2686	2822	3012	3220	3592	4130	4699	4998	4885	4583	3895	3055	2456	2245	2290	2407	2577	2762	2896	2938	2898	2761	2565	2354	2132	1878	1600	1278	955.7	698.9	504.6	348.5	228.4	160.0	158.7	517.5	2542	8478	9999.9	4009	22.90	10.56	8.393	7.982	7.989	7.630	7.650	9.934	10.24	10.72	10.97	11.57	12.07	12.41	12.77	12.97	13.00	12.99	13.03	13.37	13.54	13.46	13.60	13.62	13.97	14.06	13.94	14.24	14.23	13.63	13.22	12.39	12.49
435.0	1181	1486	1980	2409	2691	2926	3124	3324	3646	4114	4649	4961	4835	4529	3830	3003	2428	2207	2232	2358	2504	2685	2820	2871	2840	2708	2526	2334	2127	1880	1597	1296	1013	747.7	545.4	382.9	254.3	166.6	122.3	174.3	607.2	1950	5520	9999.9	1896	28.06	10.90	9.232	8.718	7.797	8.166	10.24	10.29	10.85	11.58	11.82	12.60	12.90	13.39	13.45	13.01	13.27	13.35	13.51	13.19	13.38	13.65	13.48	13.88	13.89	13.39	13.77	13.19	13.34	12.67	12.62	12.53
440.0	1385	1499	1924	2348	2681	2973	3193	3370	3639	4023	4530	4824	4692	4380	3717	2908	2368	2148	2171	2285	2411	2575	2716	2764	2737	2617	2451	2270	2074	1847	1576	1280	1023	782.6	564.4	400.2	276.0	181.8	124.8	106.2	184.0	470.6	1385	7795	9999.9	1641	22.03	11.15	9.267	8.413	8.662	10.38	10.27	11.59	11.83	11.91	12.58	13.85	13.64	13.37	13.11	13.05	13.00	13.16	12.91	13.28	13.13	13.18	13.05	13.39	13.57	13.41	12.99	12.69	12.70	11.94	11.96
445.0	1455	1672	1854	2304	2678	2957	3210	3349	3524	3856	4313	4592	4436	4150	3526	2783	2260	2050	2074	2169	2288	2418	2555	2602	2589	2479	2325	2168	1991	1778	1525	1250	994.9	789.3	577.5	413.9	285.5	194.1	135.6	98.78	95.56	146.4	341.4	2120	9999.9	9999.9	1171	18.50	10.69	9.028	8.683	10.25	10.25	11.11	11.82	12.72	12.74	14.08	13.87	13.27	12.87	12.97	12.18	12.93	12.62	12.97	12.51	12.49	12.68	12.93	12.93	12.61	12.35	12.32	12.14	11.76	11.27
450.0	1193	2180	1955	2192	2564	2885	3124	3252	3353	3554	3945	4156	4023	3753	3201	2541	2062	1890	1904	1972	2071	2177	2292	2339	2327	2247	2114	1977	1825	1647	1425	1174	942.1	752.2	584.2	424.3	297.3	208.7	149.1	108.2	84.94	79.95	112.0	501.5	2717	8618	9999.9	3833	20.67	10.94	9.440	10.81	10.79	11.32	11.53	12.30	12.61	13.77	13.67	13.10	12.67	12.60	12.11	12.11	11.76	11.79	11.75	11.80	11.76	11.90	12.21	11.94	11.90	11.54	11.34	10.86	10.40
455.0	892.7	2341	2561	2061	2434	2760	3006	3090	3126	3221	3528	3681	3566	3324	2854	2277	1858	1714	1713	1763	1830	1918	2008	2061	2045	1978	1875	1765	1636	1494	1298	1081	874.7	697.8	557.6	429.8	307.2	216.8	160.1	119.2	90.22	71.86	64.84	143.1	630.5	1980	5395	9999.9	1565	22.21	11.16	11.47	11.07	11.24	11.47	11.86	12.64	13.67	12.99	12.64	12.29	11.86	11.26	11.63	10.89	10.79	10.95	10.83	11.43	11.07	10.90	10.56	10.93	10.59	10.00	9.840	9.790
460.0	762.0	1908	3363	2108	2286	2617	2876	2912	2910	2966	3210	3354	3255	3021	2586	2087	1710	1578	1559	1603	1653	1720	1801	1854	1854	1796	1695	1604	1496	1373	1201	1007	823.0	663.0	527.5	418.5	313.3	220.8	167.6	126.8	96.62	73.71	58.81	66.28	168.1	464.8	1331	7343	9999.9	1251	19.27	12.62	11.15	11.40	11.48	11.64	12.25	13.00	12.81	12.23	11.76	11.31	10.97	10.35	10.31	10.03	10.36	10.00	9.976	10.20	9.887	10.05	10.18	9.997	8.885	9.097	8.884
465.0	712.5	1352	3624	2627	2146	2456	2700	2735	2709	2743	2948	3043	2948	2737	2347	1913	1568	1440	1439	1467	1496	1552	1636	1665	1661	1618	1538	1454	1365	1252	1108	935.1	771.1	624.9	496.6	398.0	312.2	225.6	170.3	129.0	101.1	77.89	61.32	52.41	67.55	129.1	319.3	1985	9587	9999.9	988.8	19.02	12.03	11.70	11.46	11.16	11.76	12.60	12.16	11.70	10.70	10.13	10.49	9.928	9.668	9.153	9.774	9.123	9.261	9.377	9.064	9.320	9.328	9.248	8.426	8.723	8.278
470.0	650.6	1018	2592	3985	2275	2228	2463	2482	2407	2427	2569	2639	2553	2371	2046	1668	1377	1268	1253	1274	1293	1337	1401	1435	1430	1393	1332	1259	1187	1098	976.3	833.1	692.4	566.9	459.1	363.2	291.0	228.1	174.2	132.1	104.6	81.63	63.77	52.21	47.98	56.34	94.31	463.8	2560	7172	8659	3013	21.33	12.55	11.47	11.17	11.48	11.89	11.44	11.04	10.05	9.518	9.490	9.111	8.763	8.387	8.674	8.356	8.428	8.458	8.067	8.411	8.325	8.238	7.828	7.465	7.655
475.0	559.9	858.4	1504	4068	3388	1971	2177	2205	2117	2091	2191	2251	2161	2008	1736	1426	1183	1083	1070	1081	1093	1121	1171	1199	1200	1172	1123	1066	1006	938.6	841.5	723.5	607.4	504.7	411.5	330.9	264.5	216.8	177.9	133.7	104.2	83.36	65.98	54.13	45.33	40.89	45.47	123.9	587.9	1636	3977	9415	1558	25.24	11.75	11.09	10.68	10.90	10.78	10.34	9.264	8.928	8.205	8.242	8.023	7.470	7.806	7.187	7.546	7.432	7.329	7.216	7.214	6.840	6.920	6.482	6.540
480.0	535.5	785.0	1097	2953	4670	2060	1989	1995	1905	1880	1946	1995	1912	1758	1527	1251	1055	967.3	955.2	960.6	959.7	977.2	1026	1052	1049	1028	982.4	938.6	892.6	837.8	755.2	651.6	553.3	462.5	381.4	307.3	246.3	200.3	173.2	138.2	106.1	83.98	68.00	56.30	46.54	38.52	36.07	48.95	149.2	379.8	964.1	5158	8868	1389	21.10	11.87	10.87	10.36	10.18	9.586	8.583	8.113	7.828	7.635	7.228	6.859	6.742	6.562	6.861	6.906	6.546	6.621	6.559	6.349	6.107	5.755	6.157
485.0	485.1	730.9	967.2	1837	5127	2777	1828	1828	1739	1705	1744	1786	1709	1580	1364	1128	951.8	878.9	859.9	857.1	854.9	869.9	915.6	933.9	935.9	911.7	879.6	837.2	804.8	755.0	687.1	599.4	507.3	423.7	352.5	291.1	234.0	190.1	164.3	138.7	108.7	85.09	70.52	57.75	47.86	39.77	35.25	33.68	52.32	100.5	229.3	1354	6819	8176	210.3	17.94	11.12	10.30	9.986	9.181	8.346	7.795	7.429	6.924	6.753	6.307	6.364	6.146	6.251	6.080	5.868	6.124	6.050	6.175	5.570	5.724	5.718
490.0	435.4	663.6	865.1	1224	3500	4480	1947	1622	1530	1499	1526	1555	1475	1360	1175	973.5	827.9	768.4	747.7	743.7	738.5	752.6	783.4	802.6	806.2	788.4	757.4	728.6	700.3	661.3	602.1	529.5	452.9	381.1	320.1	266.9	218.9	179.1	152.2	131.2	112.7	89.24	71.35	59.98	50.65	42.48	36.84	32.05	32.33	39.57	65.50	316.2	1785	5318	7085	2916	22.15	11.62	10.17	8.985	8.165	7.394	6.977	6.376	6.230	5.961	5.793	5.652	5.613	5.656	5.347	5.384	5.352	5.597	5.157	4.905	5.058
495.0	382.0	594.8	792.6	969.0	1770	4820	3183	1439	1331	1290	1321	1330	1262	1157	1007	828.9	706.3	658.8	640.9	632.8	625.8	639.3	661.1	678.6	679.9	668.7	644.2	620.2	596.6	568.1	520.5	458.3	397.3	340.6	288.5	239.9	201.0	165.7	140.4	120.5	105.7	92.82	73.06	60.83	51.83	44.17	39.40	33.39	28.93	27.44	29.94	84.23	410.3	1212	3587	9326	1769	27.18	10.94	8.680	8.062	7.315	6.135	6.107	5.919	5.521	5.307	5.266	5.323	5.220	5.016	4.934	4.522	4.875	4.618	4.397	4.379
500.0	342.9	521.9	725.8	858.1	1153	3455	4805	1471	1211	1144	1169	1176	1119	1014	882.4	730.4	624.1	579.3	567.9	559.6	550.5	555.5	577.1	588.3	597.0	583.5	561.4	544.8	526.9	500.8	460.0	411.1	358.8	305.7	261.2	221.0	184.4	155.7	132.5	113.6	99.12	90.38	74.59	61.38	51.84	44.81	39.60	34.41	29.09	25.64	22.93	33.24	103.9	282.4	875.3	5045	9734	1521	22.39	9.416	7.960	6.783	5.908	5.639	5.319	5.093	4.903	4.635	4.672	4.649	4.586	4.370	4.233	4.569	4.347	4.222	4.147
505.0	296.6	451.9	659.2	767.6	930.9	1980	5515	2165	1072	1017	1043	1037	977.3	893.1	773.2	649.4	558.3	513.9	499.4	490.3	485.1	490.7	503.7	517.8	520.6	512.7	493.8	482.1	466.1	442.6	410.3	366.9	320.0	274.3	237.4	202.0	168.7	144.8	123.9	106.2	92.55	84.23	76.12	62.58	51.86	45.19	39.77	34.53	29.38	25.68	21.21	22.12	35.40	74.68	207.3	1302	6885	8140	234.7	16.28	8.011	6.909	6.134	5.359	5.053	4.905	4.427	4.437	4.430	4.211	4.155	4.078	3.843	3.876	4.006	3.631	3.524
510.0	248.7	378.6	567.6	693.3	779.3	1106	3694	4238	1143	874.1	878.3	875.1	829.3	751.7	651.9	546.1	469.2	436.6	421.8	413.1	407.0	410.1	419.6	432.6	433.3	424.9	413.7	401.1	391.9	375.0	349.3	312.4	273.7	237.4	207.6	176.6	150.8	129.2	112.1	96.82	84.93	75.47	69.77	63.14	52.35	44.22	39.15	34.73	29.33	25.67	21.82	19.79	20.71	28.32	57.09	301.1	1761	4912	6364	2578	20.91	7.380	5.941	5.101	4.947	4.375	4.054	3.926	3.762	3.690	3.602	3.572	3.466	3.571	3.436	3.177	3.302
515.0	215.4	345.5	458.2	601.4	674.6	788.7	1591	4972	2199	747.5	730.9	737.1	684.2	619.6	535.5	452.0	387.9	358.2	347.0	343.2	335.1	334.5	342.5	353.7	352.5	348.8	339.6	329.2	322.8	311.7	290.7	260.4	233.1	201.1	176.5	152.6	131.4	113.7	99.71	86.92	75.72	67.94	61.65	59.19	53.60	44.28	38.16	33.73	29.01	25.27	22.25	19.59	17.43	17.93	23.61	77.09	401.3	1112	2741	7649	1802	26.75	6.816	5.317	4.706	4.024	3.844	3.570	3.533	3.413	3.332	3.204	2.996	3.174	3.060	2.746	2.885
520.0	195.0	299.1	389.8	534.1	615.2	660.6	869.5	3488	4295	814.0	639.1	641.7	594.0	535.9	466.1	387.4	338.7	309.1	298.8	294.9	289.0	287.4	293.8	302.0	302.7	298.9	287.9	283.2	276.9	269.2	252.0	226.4	205.6	177.4	154.8	136.9	117.7	102.8	89.99	79.74	70.53	62.02	55.92	53.90	51.99	44.65	37.65	32.09	28.99	25.05	21.58	19.79	16.19	15.32	15.62	26.49	98.42	256.7	649.8	3844	7125	1566	22.16	6.073	4.573	3.920	3.973	3.499	3.122	3.265	3.045	2.803	2.872	2.695	2.691	2.571	2.497
525.0	173.5	266.8	342.1	450.4	561.5	578.0	643.4	1750	5497	1516	570.8	560.3	515.3	465.8	403.8	343.7	296.5	272.6	263.4	255.9	251.6	247.8	252.9	260.3	264.6	258.8	251.9	246.7	241.7	236.7	219.6	201.2	180.5	156.9	139.1	122.3	104.9	92.82	82.61	73.22	65.16	58.08	52.43	48.85	47.94	44.53	38.02	31.58	27.87	23.91	21.39	19.07	15.87	14.59	13.11	14.90	30.49	65.64	153.2	955.4	4333	6170	1224	16.53	5.227	4.207	3.706	3.342	2.956	2.967	2.771	2.575	2.688	2.429	2.259	2.340	2.348
530.0	157.1	223.2	291.7	369.4	477.1	508.8	518.4	797.3	3642	4098	699.3	466.9	434.9	391.2	338.7	285.4	249.2	226.2	221.6	214.0	207.2	205.2	210.5	217.1	215.8	214.4	208.5	205.1	198.5	194.3	183.2	168.2	151.4	134.1	119.1	104.3	91.40	81.37	73.06	64.59	58.16	52.45	47.20	43.99	40.94	40.43	37.36	30.56	26.12	22.24	19.87	17.78	15.05	13.77	12.75	12.06	14.84	22.07	41.17	219.7	1065	3203	4770	2241	94.34	5.394	3.824	3.259	2.906	2.732	2.567	2.388	2.424	2.294	2.215	2.227	2.126
535.0	131.1	188.1	245.7	298.0	380.7	452.6	435.4	491.3	1303	5161	1693	391.7	356.9	323.2	277.8	234.9	204.1	187.7	182.4	174.6	169.5	168.3	172.2	174.6	175.2	174.6	171.2	167.6	163.9	159.5	151.8	140.3	124.9	112.7	99.21	88.24	78.60	69.87	62.72	55.77	50.82	45.66	41.07	38.74	35.86	33.98	34.50	30.08	24.71	21.09	18.50	16.49	14.29	12.83	12.28	10.84	10.52	11.48	15.39	54.74	242.4	721.2	1670	5107	1884	29.06	4.789	3.356	2.932	2.457	2.509	2.158	1.922	2.133	2.200	1.773	1.843
540.0	120.5	165.5	215.2	248.3	308.9	399.9	383.8	380.3	570.8	3326	4252	450.4	309.5	275.0	236.7	203.5	175.4	164.1	155.2	149.5	143.9	143.6	145.1	148.9	148.7	147.9	144.9	142.5	140.1	136.1	129.0	118.5	108.9	96.95	87.03	76.85	69.04	61.65	54.74	50.14	45.77	41.19	37.78	35.10	32.94	29.50	30.47	28.52	24.17	19.64	16.99	15.27	13.40	11.94	11.16	10.47	9.539	8.893	9.145	17.60	58.69	165.5	385.5	2140	5053	1640	24.22	4.022	3.172	2.553	2.405	2.148	2.075	2.030	1.853	1.628	1.723
545.0	107.8	140.5	185.4	224.4	257.6	343.8	354.8	320.1	356.8	1377	5508	1064	266.8	235.9	201.0	173.4	150.3	140.9	134.7	127.9	123.6	124.1	124.4	127.5	126.3	126.3	122.5	122.1	119.9	117.5	110.2	103.5	93.59	84.34	74.76	67.32	60.58	54.16	48.74	44.95	40.91	36.65	34.39	31.73	29.37	27.54	26.03	25.35	23.51	18.97	15.95	14.29	12.27	10.98	10.18	9.830	8.949	7.916	7.357	8.651	17.51	41.12	90.64	505.1	2521	4601	1345	17.77	3.533	2.695	2.311	1.905	1.781	1.887	1.645	1.671	1.476
550.0	102.3	135.3	165.3	185.9	207.5	261.9	309.5	277.2	265.0	510.2	3242	3689	369.8	194.8	166.3	140.9	122.2	113.6	108.3	102.6	99.99	98.25	99.78	102.5	101.4	100.7	98.07	98.02	95.68	93.77	89.88	83.83	75.95	68.54	60.86	55.39	50.09	45.38	40.82	37.82	34.48	31.49	29.01	27.47	25.31	23.57	22.10	21.06	20.10	18.09	14.91	12.76	10.84	9.934	8.864	8.509	8.027	7.418	6.244	6.271	7.736	12.82	23.69	116.3	595.0	1958	3449	1680	106.6	4.352	2.463	2.094	1.729	1.835	1.488	1.419	1.328
555.0	99.34	117.4	141.5	154.0	170.8	192.6	246.6	246.0	206.9	260.5	992.3	4687	1197	159.5	134.5	111.2	96.18	89.93	84.81	79.31	77.97	76.60	78.16	79.22	80.35	77.77	76.95	76.34	73.85	73.82	70.65	65.60	59.23	53.78	48.84	44.30	39.66	36.63	33.22	30.93	28.16	26.44	24.01	22.83	21.58	19.39	18.46	16.97	15.80	15.65	14.00	11.41	9.509	8.710	7.857	7.613	6.721	6.455	5.626	5.061	5.203	5.898	8.225	29.05	135.5	439.6	1017	2903	1893	31.30	3.663	2.376	1.837	1.600	1.484	1.375	1.256
560.0	88.81	110.4	130.4	133.0	148.5	158.4	187.0	232.4	178.8	185.6	358.6	2853	3570	166.4	108.8	93.24	78.57	74.77	69.34	66.72	63.87	63.33	63.66	65.81	65.30	64.18	63.02	61.07	61.32	59.68	57.99	53.23	48.37	44.54	40.88	36.41	33.17	30.85	28.61	25.96	23.94	22.15	20.46	19.83	18.50	17.17	15.88	14.66	13.41	13.35	12.58	10.39	8.939	7.750	7.066	6.671	5.844	5.325	5.271	4.652	4.230	3.957	4.547	8.971	32.73	100.7	232.0	1040	2998	1591	26.45	2.875	1.968	1.648	1.374	1.457	1.162
565.0	85.48	111.7	122.1	121.7	122.3	134.8	157.8	211.7	165.0	158.4	197.4	1075	4861	681.5	93.95	77.79	67.29	61.96	59.72	56.65	54.85	53.06	54.15	55.00	53.29	52.67	52.35	50.92	50.97	49.93	48.39	44.56	40.45	37.57	34.17	30.95	28.37	26.43	24.49	21.95	20.51	18.79	17.69	16.92	15.60	14.70	13.82	12.91	11.43	11.20	11.06	9.616	8.118	6.862	6.271	5.777	5.350	4.923	4.512	4.633	4.006	3.327	3.455	4.274	9.885	24.91	54.60	240.4	1218	2838	1197	20.46	2.333	1.702	1.375	1.385	1.148
570.0	86.68	111.9	118.4	112.4	108.3	109.2	119.1	161.1	166.6	135.6	143.4	350.8	2847	2988	189.7	63.74	54.49	49.65	47.87	44.22	43.14	42.14	42.09	42.45	41.88	41.90	41.83	40.55	40.89	39.63	38.42	36.12	32.64	30.19	27.28	24.96	22.62	21.35	19.74	18.20	17.01	15.38	14.68	13.85	13.02	12.29	11.14	10.83	9.574	8.798	8.680	8.455	7.503	6.004	5.397	5.082	4.748	4.462	3.716	3.995	3.595	3.265	2.974	3.100	4.368	7.835	14.43	55.91	280.1	1027	1931	1092	112.3	3.876	1.541	1.315	1.115
575.0	84.83	110.9	119.6	105.3	93.13	88.92	96.46	113.6	156.9	128.8	117.4	162.7	821.0	3883	871.0	53.39	44.37	39.68	37.59	34.76	32.86	33.21	33.98	33.78	32.85	32.74	31.13	31.46	31.65	31.16	30.49	27.90	25.83	23.76	21.49	19.34	17.97	17.07	15.51	14.35	13.82	12.38	11.65	11.19	10.43	10.16	9.408	8.464	7.801	7.067	6.842	6.522	6.515	5.550	4.559	4.267	4.130	3.865	3.292	3.389	3.235	3.252	2.818	2.599	2.854	3.707	5.100	14.57	64.35	230.5	508.0	1470	1611	32.70	2.778	1.450	1.142
580.0	83.52	113.8	116.1	104.3	81.88	84.77	84.30	93.43	134.8	138.1	108.4	116.1	257.9	2370	3168	83.16	38.02	33.35	31.52	29.36	27.11	27.09	28.37	28.44	26.67	27.52	26.79	26.64	26.06	25.37	24.98	23.58	21.47	20.02	17.91	16.18	15.51	14.21	12.66	12.44	11.77	10.60	9.939	9.542	8.736	8.757	7.913	7.351	7.084	5.980	5.663	5.559	5.784	5.478	4.383	4.015	3.680	3.372	3.216	2.968	2.891	2.933	2.762	2.456	2.327	2.612	2.958	5.022	16.15	53.35	115.4	468.6	1733	1246	27.63	1.970	1.302
585.0	85.03	109.7	113.5	96.36	76.64	75.41	77.13	85.09	111.1	143.9	107.6	104.3	127.4	873.9	4426	420.3	33.49	29.07	27.78	25.46	24.01	22.90	23.45	23.79	23.15	22.87	21.90	22.49	22.11	21.95	21.01	19.60	18.12	16.64	15.40	13.70	13.13	12.23	10.94	10.62	9.911	8.799	8.516	8.142	7.635	7.073	7.128	6.519	5.969	5.138	5.049	4.431	4.602	4.687	4.320	3.779	3.282	2.999	2.643	2.660	2.617	2.640	2.464	2.373	2.232	2.211	2.381	2.834	5.242	13.39	27.41	107.5	627.5	1749	848.9	19.70	1.559
590.0	77.74	101.5	107.3	89.06	72.75	64.86	67.99	73.03	87.71	130.2	117.2	98.00	92.75	260.3	2703	2202	60.04	24.74	22.20	20.97	19.99	19.38	19.37	18.95	18.84	18.43	17.94	18.24	17.51	17.75	16.93	15.97	14.84	13.36	12.18	11.58	10.59	9.719	9.061	9.048	8.212	7.658	7.264	6.788	6.407	6.211	5.923	5.372	5.010	4.671	4.208	3.809	3.639	3.779	3.825	3.549	2.973	2.712	2.391	2.259	2.234	2.128	2.175	2.377	2.167	2.007	1.884	2.052	2.572	4.371	7.481	25.44	143.3	585.4	1172	768.1	108.2
595.0	77.99	97.34	97.04	85.17	62.51	62.61	61.69	63.58	74.97	106.3	130.7	95.61	82.25	107.6	768.2	3135	549.6	22.19	18.25	17.57	16.50	15.73	14.88	15.60	15.17	14.94	14.82	13.83	14.19	14.02	13.64	12.19	11.77	10.66	9.563	9.254	8.330	7.628	7.303	7.065	6.341	5.920	6.089	5.570	5.315	5.332	4.980	4.602	4.262	3.903	3.614	3.231	2.931	3.119	3.090	3.150	2.876	2.528	2.127	2.162	1.838	1.732	1.871	1.984	2.073	2.104	1.719	1.814	1.808	2.119	2.786	6.792	32.98	131.5	296.4	884.2	1065
600.0	73.25	92.11	92.19	78.39	58.66	53.61	58.43	60.02	69.15	89.16	132.8	100.8	82.04	73.80	216.4	2088	1876	38.01	16.42	14.79	14.42	13.50	13.86	13.00	12.64	12.22	12.27	12.16	11.55	11.93	11.30	10.56	9.651	9.264	8.044	7.614	7.154	6.687	6.160	6.007	5.240	5.350	5.014	4.643	4.440	4.545	4.258	4.024	3.819	3.405	3.065	2.884	2.501	2.501	2.680	2.859	2.794	2.289	1.996	1.877	1.732	1.644	1.670	1.672	1.787	2.139	1.824	1.580	1.588	1.558	1.686	2.606	8.338	30.29	67.31	269.4	1061
605.0	73.52	92.94	86.40	70.20	59.13	51.83	54.97	64.07	66.80	84.67	123.5	116.1	82.74	67.30	84.76	797.8	2833	87.31	15.02	13.15	12.33	11.95	11.66	10.95	10.74	10.96	10.80	10.59	10.07	10.40	9.617	9.303	8.240	7.666	7.366	6.625	6.184	5.758	5.172	5.198	4.667	4.542	4.247	4.002	3.884	3.952	3.554	3.474	3.374	3.057	2.734	2.432	2.303	2.211	2.215	2.475	2.611	2.188	1.902	1.763	1.599	1.534	1.609	1.559	1.657	1.831	1.841	1.455	1.545	1.422	1.223	1.592	2.880	7.648	16.07	61.86	368.2
610.0	72.52	89.00	83.23	71.33	55.87	51.31	55.51	61.30	70.57	85.03	112.0	131.8	94.99	73.37	60.06	221.7	1910	1270	34.20	11.59	10.01	10.12	9.759	9.235	9.204	8.670	8.855	8.496	8.495	8.208	7.891	7.358	6.634	6.117	5.883	5.319	5.197	4.820	4.419	4.277	4.019	3.818	3.451	3.343	3.405	3.408	3.044	2.888	2.676	2.501	2.275	2.201	1.967	1.939	1.802	1.929	2.223	2.151	1.795	1.578	1.574	1.531	1.421	1.476	1.574	1.562	1.702	1.585	1.469	1.383	1.216	1.263	1.545	2.619	4.468	14.71	84.00
615.0	65.92	85.11	79.84	70.52	50.12	49.56	53.65	60.77	70.85	84.63	104.6	134.1	110.4	77.81	57.69	78.74	553.0	2266	385.0	10.58	8.990	8.796	8.526	7.571	7.520	7.489	7.103	7.149	6.824	6.453	6.195	5.967	5.447	4.739	4.763	4.157	4.164	3.926	3.859	3.279	3.325	3.190	2.931	2.811	2.811	2.622	2.543	2.433	2.323	2.069	1.947	1.722	1.705	1.664	1.520	1.557	1.706	1.897	1.655	1.593	1.527	1.434	1.363	1.335	1.352	1.349	1.529	1.536	1.575	1.393	1.238	1.108	1.051	1.307	1.806	4.051	19.57
620.0	68.94	89.32	78.33	64.76	47.98	46.40	56.48	60.32	68.30	82.10	99.01	123.6	120.4	78.60	56.52	45.95	152.6	1657	1378	17.40	8.139	7.959	7.032	6.808	6.751	6.260	6.100	6.073	5.929	5.697	5.530	4.881	4.846	4.505	4.295	3.561	3.517	3.319	3.358	2.606	2.816	2.656	2.575	2.390	2.288	2.377	2.308	2.258	2.089	1.788	1.645	1.762	1.616	1.454	1.345	1.414	1.495	1.533	1.556	1.444	1.446	1.405	1.260	1.296	1.266	1.330	1.262	1.370	1.559	1.309	1.214	1.001	1.060	1.028	1.174	1.654	5.142
625.0	68.23	82.41	75.03	64.49	49.95	45.22	53.67	55.35	69.11	77.63	92.56	113.6	126.9	82.10	56.95	38.03	55.04	682.8	2267	63.52	8.275	7.187	6.183	5.935	6.264	5.420	5.433	5.340	5.336	4.924	5.115	4.711	4.112	3.912	3.717	3.147	2.907	3.062	2.855	2.550	2.365	2.417	2.381	2.221	2.073	2.076	2.045	1.946	1.877	1.522	1.455	1.533	1.382	1.371	1.153	1.168	1.297	1.401	1.394	1.456	1.323	1.161	1.142	1.160	1.222	1.116	1.227	1.307	1.419	1.292	1.260	1.055	0.999	0.974	0.912	1.123	1.776
630.0	62.37	76.55	74.49	62.54	48.75	43.56	49.62	53.46	65.17	77.73	90.91	106.4	116.9	91.66	59.89	37.49	33.16	182.6	1679	883.1	19.16	6.271	5.726	5.468	5.194	4.700	4.470	4.614	4.556	4.021	4.045	3.810	3.551	3.350	2.972	2.853	2.726	2.493	2.340	2.136	2.225	2.016	1.896	1.869	1.747	1.824	1.692	1.631	1.522	1.399	1.260	1.329	1.214	1.207	1.084	1.144	1.205	1.156	1.193	1.313	1.245	1.121	1.147	1.103	1.257	1.068	1.210	1.246	1.232	1.235	1.251	0.985	0.957	0.903	0.893	0.906	1.032
635.0	63.26	70.48	73.20	60.08	47.80	43.60	48.89	50.62	66.24	74.19	91.60	105.1	105.0	102.7	63.78	37.35	29.59	54.13	505.6	1711	225.3	6.239	4.992	4.813	4.690	4.129	3.612	4.031	3.957	3.800	3.476	3.257	3.075	2.843	2.499	2.552	2.280	2.338	2.096	1.882	1.734	1.560	1.480	1.641	1.595	1.647	1.544	1.454	1.466	1.284	1.221	1.063	1.078	0.980	1.004	1.042	1.182	0.984	1.076	1.043	1.089	1.050	1.077	0.997	1.207	1.150	1.144	1.338	1.110	0.973	1.072	1.085	1.047	0.997	0.837	0.927	0.849
640.0	65.95	82.44	76.20	62.05	44.69	40.98	43.92	51.95	63.21	77.75	94.24	107.1	100.2	102.3	70.99	40.80	30.61	26.27	131.5	1379	546.3	10.31	5.218	4.390	3.985	4.016	3.425	3.330	3.586	3.496	2.748	2.948	2.856	2.627	2.300	2.390	2.063	1.844	1.937	1.698	1.568	1.655	1.473	1.472	1.449	1.583	1.485	1.428	1.333	1.171	1.132	1.058	1.014	0.890	0.926	0.958	1.066	0.951	0.941	1.048	1.060	1.081	1.085	0.958	1.029	1.126	1.121	1.101	1.153	1.110	1.093	1.080	1.061	0.904	0.848	0.783	0.742
645.0	71.23	90.88	86.93	61.71	44.54	40.81	45.16	49.79	63.48	79.66	92.94	107.6	101.7	102.3	79.26	42.85	30.77	20.44	39.22	632.4	1518	48.49	4.988	4.212	3.802	3.466	3.588	3.118	3.196	3.235	2.774	2.555	2.750	2.566	2.501	2.296	1.981	1.978	1.657	1.615	1.342	1.476	1.400	1.238	1.267	1.388	1.229	1.311	1.176	1.144	0.994	1.008	0.947	0.764	0.871	1.003	0.970	0.918	0.856	0.974	0.950	0.995	1.037	1.096	1.043	1.138	1.090	1.124	1.089	0.990	1.050	1.018	1.169	0.984	0.797	0.751	0.761
650.0	68.51	96.64	96.87	66.70	44.85	41.27	45.06	49.20	59.76	80.09	89.24	108.8	99.63	97.24	83.10	45.80	31.84	19.82	18.31	188.7	1667	372.0	5.951	4.342	3.754	3.493	3.131	2.965	2.849	2.813	2.585	2.605	2.454	2.375	2.324	2.233	2.051	1.924	1.528	1.492	1.332	1.386	1.322	1.162	1.226	1.215	1.328	1.193	1.171	1.001	0.930	0.881	1.014	0.791	0.770	0.878	1.006	0.845	0.822	0.919	0.949	1.045	1.010	1.128	0.986	0.995	1.059	1.157	1.132	1.073	0.969	1.033	1.032	0.985	0.842	0.848	0.908
