Sample:	'1
File name:	Default_20250730_181303.FD3
Run date:	'18:06:42, 07/30/2025
Operator:	dsjg
Comment:	'

Instrument
Model:	F-2700 FL Spectrophotometer
Serial number:	2198-001
ROM Version:	4J14000 07

Instrument parameters
Measurement type:	3-D scan
Data mode:	Fluorescence
EX  Start WL:	220.0 nm
EX  End WL:	600.0 nm
EX Sampling interval:	5.0 nm
EM  Start WL:	230.0 nm
EM  End WL:	650.0 nm
EM Sampling interval:	5.0 nm
Scan speed:	12000 nm/min
EX Slit:	5.0 nm
EM Slit:	5.0 nm
PMT Voltage:	700 V
Response:	Auto 
Corrected spectra:	Off
Contour interval:	50.000

Peak integration
Integration method:	Rectangular
Sensitivity:	1
Threshold:	1.000

Peaks
No.	ApexEX/EM(nm)	Height(Data)
1	245.0/410.0	 1634
2	335.0/425.0	 2657

Data points
	220.0	225.0	230.0	235.0	240.0	245.0	250.0	255.0	260.0	265.0	270.0	275.0	280.0	285.0	290.0	295.0	300.0	305.0	310.0	315.0	320.0	325.0	330.0	335.0	340.0	345.0	350.0	355.0	360.0	365.0	370.0	375.0	380.0	385.0	390.0	395.0	400.0	405.0	410.0	415.0	420.0	425.0	430.0	435.0	440.0	445.0	450.0	455.0	460.0	465.0	470.0	475.0	480.0	485.0	490.0	495.0	500.0	505.0	510.0	515.0	520.0	525.0	530.0	535.0	540.0	545.0	550.0	555.0	560.0	565.0	570.0	575.0	580.0	585.0	590.0	595.0	600.0
230.0	115.1	183.5	287.5	111.2	38.29	31.59	26.03	22.91	19.61	16.97	16.21	13.53	11.76	10.57	9.025	8.026	6.987	6.624	6.405	6.253	6.271	6.751	7.619	8.713	10.47	11.90	13.07	13.74	14.48	15.73	15.77	16.19	16.18	16.18	15.35	14.35	13.75	12.92	12.12	11.32	10.73	10.41	9.918	9.397	9.282	8.865	8.541	8.319	8.163	7.757	7.093	6.722	6.160	6.062	5.935	5.805	5.724	5.442	5.270	4.940	4.637	4.451	4.255	4.179	4.049	3.949	3.810	3.620	3.411	3.334	3.077	2.975	2.837	2.721	2.697	2.575	2.514
235.0	108.2	105.0	217.3	337.9	152.2	34.43	26.21	23.35	19.07	16.09	16.04	13.42	11.18	10.56	8.847	8.208	7.434	6.432	6.233	6.212	6.451	6.698	7.584	9.030	10.66	12.01	13.07	14.09	14.94	15.98	16.18	16.00	15.90	15.74	15.20	14.81	13.67	12.97	12.18	11.77	11.07	10.86	9.930	9.478	9.008	9.024	8.603	8.455	7.798	7.384	7.497	7.865	6.990	6.255	5.856	5.739	5.680	5.339	5.265	5.111	4.610	4.506	4.052	4.050	4.118	3.872	3.894	3.678	3.302	3.393	3.096	3.047	2.875	2.710	2.633	2.619	2.658
240.0	105.7	81.31	112.4	349.6	488.7	152.0	29.15	23.72	20.39	16.46	15.66	14.23	11.80	10.14	9.144	8.096	7.406	6.324	6.631	6.421	6.580	7.318	7.659	9.069	10.69	12.12	13.47	14.42	15.53	15.70	16.20	16.09	15.79	15.56	15.35	14.72	14.12	13.27	12.36	11.79	11.33	10.93	10.10	9.649	9.437	9.262	8.538	8.248	7.742	7.323	6.978	7.577	7.852	8.519	7.014	6.073	5.761	5.273	5.373	5.038	4.767	4.394	4.213	4.279	4.462	4.091	3.898	3.770	3.493	3.294	2.792	2.925	2.954	2.566	2.642	2.680	2.770
245.0	112.9	78.97	72.37	167.7	629.9	503.7	138.9	25.59	20.59	17.05	15.31	14.14	11.89	10.26	9.352	8.001	7.619	6.447	6.828	6.642	6.757	7.195	7.770	9.158	10.75	12.24	13.70	15.10	16.06	15.89	16.77	16.28	15.89	15.31	15.19	15.41	14.01	13.25	12.63	12.25	11.04	10.95	10.54	9.765	9.518	9.171	8.930	8.032	7.891	7.329	6.967	7.282	7.179	8.518	9.596	9.012	7.092	5.618	5.454	4.976	4.720	4.443	4.405	4.199	4.287	4.003	3.862	3.633	3.603	3.106	3.128	2.814	2.907	2.679	2.540	2.607	2.808
250.0	113.1	82.75	62.01	75.39	256.9	814.3	 1019	238.1	46.97	17.47	16.24	14.44	12.74	10.85	9.595	8.133	7.350	6.729	6.855	6.631	6.715	7.287	7.885	9.305	11.00	13.20	14.33	15.54	16.34	17.70	16.92	16.80	16.44	15.34	14.81	14.50	14.16	13.57	12.96	12.32	11.30	11.13	10.35	9.933	9.729	9.581	8.952	8.486	7.715	7.310	6.837	6.825	6.668	6.780	7.734	9.109	11.59	11.88	9.900	6.738	5.037	4.678	4.565	4.429	4.361	4.051	4.024	3.668	3.561	3.333	3.165	2.934	2.793	2.660	2.497	2.530	2.556
255.0	126.0	82.02	61.86	59.19	85.77	250.4	 1087	 1986	308.5	45.25	17.40	15.02	13.26	11.19	9.942	8.473	7.668	6.711	6.685	6.242	6.866	7.403	8.389	9.570	11.58	12.87	14.92	16.48	17.05	18.06	17.86	17.30	16.63	15.74	14.90	14.52	13.99	13.58	13.62	12.98	11.70	11.05	10.53	10.28	9.990	9.803	9.299	8.623	8.136	7.654	6.870	6.820	6.550	6.443	6.592	6.932	7.514	10.37	15.20	16.48	12.15	6.562	4.709	4.598	4.297	4.238	3.784	3.540	3.432	3.256	3.057	2.835	2.748	2.718	2.600	2.598	2.504
260.0	129.9	84.39	62.64	50.81	51.39	83.72	378.0	 1713	 2067	255.5	29.04	16.54	12.45	11.56	10.18	8.962	8.005	6.861	6.814	7.107	7.504	7.754	8.345	9.532	11.81	13.52	15.06	16.70	17.90	18.16	19.01	18.78	17.53	16.11	15.24	14.87	14.04	13.50	13.34	12.84	11.61	11.23	10.89	10.61	10.27	10.14	8.922	9.056	8.241	7.855	7.058	6.761	6.735	6.358	6.295	6.477	6.331	6.944	8.934	13.28	18.02	15.76	9.305	5.202	4.373	4.227	3.733	3.746	3.431	3.538	3.095	2.985	2.864	2.621	2.573	2.514	2.610
265.0	117.9	82.82	60.76	47.86	44.39	46.05	109.1	623.6	 2098	 1872	204.9	19.34	14.15	11.48	9.906	8.406	8.150	7.026	6.959	6.978	7.804	7.457	8.584	9.907	11.66	13.85	15.41	17.02	18.34	18.26	19.51	18.63	18.33	16.44	15.50	14.99	14.17	13.23	13.33	12.63	12.22	11.79	11.16	10.86	10.54	9.988	9.395	9.001	8.168	7.868	7.375	6.878	6.532	6.720	6.259	6.112	5.930	6.092	6.255	7.316	10.47	15.28	18.02	13.43	6.925	4.545	3.838	3.781	3.512	3.309	3.171	3.034	2.803	2.703	2.512	2.525	2.578
270.0	109.8	80.62	64.02	47.07	40.04	38.25	50.31	162.1	682.6	 1702	 1925	728.8	56.79	12.40	10.43	8.667	8.128	7.222	6.864	7.236	7.439	7.946	9.134	10.43	12.51	14.11	15.50	17.78	18.48	18.91	19.87	19.61	18.36	17.67	16.29	15.30	14.21	13.40	13.05	12.51	12.01	11.88	11.18	10.94	10.62	10.03	9.676	9.507	8.591	7.879	7.372	7.115	6.619	6.327	6.399	6.128	6.167	5.771	5.894	5.869	6.296	7.600	9.975	12.77	14.55	13.62	9.866	5.878	3.914	3.481	3.118	3.143	2.860	2.812	2.540	2.609	2.516
275.0	119.7	83.54	61.30	48.36	37.35	36.68	36.07	57.48	171.3	441.4	 1308	 2443	 1053	62.55	11.81	10.16	8.647	7.531	6.984	7.388	7.646	8.463	9.076	10.88	13.12	14.72	16.77	18.16	19.72	19.91	20.09	19.79	18.79	18.12	17.01	16.22	14.87	13.49	13.00	12.56	11.82	11.87	11.77	10.64	10.40	10.34	9.646	9.528	8.747	7.924	7.392	7.345	6.591	6.516	6.547	6.218	6.250	5.972	5.800	5.441	5.490	5.609	5.877	6.472	7.220	9.716	14.63	17.15	12.47	5.594	3.406	3.234	3.107	2.759	2.900	2.474	2.597
280.0	118.2	86.23	65.13	47.81	37.38	34.84	32.08	33.04	57.45	117.9	399.4	 1747	 2611	801.4	31.05	10.50	9.005	8.302	7.570	7.648	7.883	8.687	9.961	11.35	13.59	15.05	17.29	18.60	19.61	20.69	20.82	20.54	19.46	18.61	17.89	17.12	15.69	14.14	13.41	13.25	11.77	11.60	11.37	10.86	10.64	10.30	10.16	9.765	8.815	8.293	7.438	7.167	6.956	6.551	6.479	6.319	6.316	5.920	5.764	5.514	5.233	5.348	5.048	5.190	5.093	5.530	7.555	12.31	17.59	16.33	9.519	3.956	3.104	2.920	2.837	2.501	2.534
285.0	116.2	85.62	64.38	51.21	38.82	34.08	31.27	30.58	34.51	48.48	110.7	586.9	 2151	 2546	138.3	17.42	10.32	9.049	8.352	8.266	8.067	9.101	10.73	11.80	14.29	16.11	17.43	19.23	20.26	21.18	21.24	20.96	19.76	19.68	17.98	17.22	16.13	15.20	14.02	13.02	12.06	11.62	11.19	11.15	10.65	10.48	10.30	9.927	9.098	8.377	7.843	7.494	6.864	6.564	6.381	6.652	6.405	5.918	5.558	5.584	5.287	5.030	5.134	4.965	4.590	4.852	4.948	6.106	9.297	15.25	19.15	14.14	6.342	3.130	2.799	2.552	2.668
290.0	119.8	89.28	66.72	51.00	40.82	34.12	34.59	30.69	32.16	35.29	50.01	155.5	667.9	 1820	 2390	 1169	45.28	10.49	9.513	9.104	9.120	9.673	11.21	13.00	15.06	17.09	19.15	20.12	20.91	22.33	22.50	21.45	20.56	19.27	18.62	17.83	16.73	15.65	14.64	13.35	12.56	11.70	11.23	10.91	11.25	10.92	10.30	10.05	9.278	8.563	7.890	7.954	7.082	6.876	6.587	6.497	6.369	6.200	5.871	5.569	5.471	5.121	4.938	4.954	4.500	4.428	4.429	4.537	5.015	6.576	9.574	13.11	16.37	16.01	11.44	5.462	2.863
295.0	121.4	89.39	68.48	50.99	41.70	38.31	33.82	32.90	34.83	37.22	42.98	63.96	173.5	462.0	 1351	 3226	804.0	53.66	11.58	10.62	10.47	11.21	12.74	14.50	16.71	18.38	20.54	21.55	22.33	23.02	22.92	22.43	21.48	20.43	18.95	18.13	17.30	15.70	15.22	14.07	12.80	11.94	11.28	10.97	10.59	11.15	10.80	10.16	9.495	8.495	8.034	7.970	7.388	7.047	6.917	6.840	6.534	6.086	5.943	5.673	5.499	5.432	5.035	4.943	4.369	4.431	4.282	4.076	4.013	4.234	4.834	5.254	6.676	10.49	19.03	24.39	16.24
300.0	130.6	106.4	64.31	51.32	44.13	38.90	35.71	34.07	37.42	39.31	45.94	48.93	67.54	127.2	393.9	 1986	 3716	679.5	36.12	12.41	12.14	12.76	13.91	15.44	17.46	19.74	21.38	22.57	23.58	23.79	23.66	23.43	21.97	21.21	19.68	18.56	17.51	16.26	15.78	14.42	13.20	12.22	11.64	11.21	10.80	10.70	11.01	10.16	9.773	8.756	8.279	7.865	7.481	7.228	7.072	7.038	6.554	6.508	6.191	5.926	5.380	5.387	5.220	4.903	4.668	4.504	4.105	3.964	3.905	3.796	3.917	3.587	3.931	4.771	8.585	17.40	28.07
305.0	137.3	100.6	71.80	55.27	44.88	42.33	37.55	35.55	41.59	43.86	50.59	51.26	50.02	55.40	108.2	626.7	 2701	 4250	552.8	23.57	14.47	15.11	15.01	16.78	18.95	21.20	22.35	24.30	24.86	24.79	25.07	23.89	22.86	21.71	20.22	19.12	17.78	16.82	16.31	14.64	13.95	12.47	12.14	11.44	11.05	10.80	10.60	10.54	10.08	8.824	8.670	8.143	7.923	7.230	7.053	7.040	6.674	6.653	6.190	5.841	5.648	5.371	5.097	4.872	4.988	4.415	4.105	4.016	3.973	3.744	3.644	3.394	3.374	3.308	4.017	6.722	13.42
310.0	137.4	105.2	81.19	60.77	49.33	43.06	40.93	43.54	46.34	52.39	59.32	60.40	56.67	47.14	49.68	159.7	788.7	 2801	 4899	 2216	44.08	19.47	19.65	21.87	23.22	24.04	25.62	27.44	26.83	27.29	27.43	25.61	24.04	22.86	20.91	19.69	18.53	17.45	16.60	15.36	14.44	13.48	12.45	11.86	11.66	11.02	10.68	10.51	10.06	9.321	8.580	8.154	7.625	7.331	7.336	7.270	6.934	6.637	6.337	6.013	5.907	5.601	5.420	5.078	4.824	4.600	4.362	4.229	4.087	3.762	3.627	3.586	3.313	3.085	3.058	3.692	5.249
315.0	146.0	122.4	93.81	64.65	55.62	48.68	50.64	55.26	59.65	66.02	71.77	76.22	73.89	61.20	47.76	60.96	195.7	679.3	 2557	 9145	 4045	61.19	27.91	29.46	29.65	29.98	29.76	30.78	30.34	30.06	29.84	27.58	26.33	24.18	22.23	20.71	19.43	18.50	17.23	15.77	14.43	14.00	13.64	12.25	12.13	11.61	10.98	10.82	9.969	9.249	8.611	8.207	7.904	7.661	7.431	7.356	7.017	7.100	6.568	6.284	6.282	5.822	5.617	5.312	5.116	4.955	4.591	4.515	4.219	3.970	3.933	3.512	3.292	3.133	3.010	3.185	3.393
320.0	160.2	131.0	100.9	76.19	58.94	57.49	58.13	65.17	70.50	78.86	90.30	98.08	91.83	76.21	59.51	46.67	68.26	171.2	719.0	 5540	9999.9	 3540	57.58	37.71	37.60	36.72	35.66	35.12	33.84	32.57	32.61	30.14	27.71	25.40	23.42	22.40	20.14	19.23	17.56	16.68	15.05	14.63	13.71	13.36	12.21	11.69	11.53	11.14	10.40	9.361	9.086	8.612	8.466	8.148	7.752	7.635	7.329	7.283	6.906	6.541	6.491	5.934	5.973	5.353	5.435	5.038	4.902	4.516	4.401	4.178	3.886	3.743	3.486	3.291	3.142	3.112	3.257
325.0	185.0	154.6	109.8	90.27	67.11	68.77	72.18	76.23	86.42	97.73	113.5	120.2	116.5	98.03	76.50	54.10	46.33	64.04	185.0	 1658	9999.9	9999.9	 3167	59.20	47.33	45.57	43.43	40.38	38.44	37.04	35.48	32.04	29.68	26.57	24.30	22.99	21.49	20.90	18.45	17.21	16.04	15.56	14.63	13.72	12.88	12.17	12.01	11.61	10.78	9.835	9.209	9.084	8.503	8.316	8.084	7.615	7.543	7.327	7.306	6.723	6.831	6.379	5.994	5.840	5.506	5.252	5.281	5.051	4.633	4.390	4.004	3.880	3.737	3.445	3.401	3.147	3.096
330.0	224.7	191.8	145.6	119.2	91.96	89.34	96.09	102.8	118.3	135.5	152.8	161.9	161.2	136.1	108.7	79.19	59.70	51.55	74.83	408.6	 2906	9999.9	9999.9	9999.9	241.1	71.96	62.29	54.35	48.58	44.16	40.67	37.64	33.69	30.38	27.99	25.08	23.30	21.94	20.23	18.64	16.92	16.33	15.46	14.61	13.96	13.35	12.70	12.71	11.27	10.21	9.571	9.478	9.194	8.742	8.396	8.031	7.885	7.660	7.747	7.364	7.089	6.957	6.529	6.278	5.977	5.888	5.651	5.454	4.773	4.802	4.499	4.225	4.130	3.777	3.561	3.596	3.525
335.0	286.4	255.6	204.7	162.5	129.7	122.8	128.1	141.0	156.3	178.6	200.7	217.5	213.7	183.3	145.8	107.8	84.73	67.97	67.39	143.4	702.5	 2462	9999.9	9999.9	9999.9	364.4	100.0	80.42	68.58	56.93	51.34	45.59	39.71	35.65	31.59	28.56	25.45	23.98	22.51	20.71	18.21	17.18	16.32	15.49	15.23	14.80	13.93	13.46	11.74	10.63	9.969	9.901	9.379	9.268	8.937	8.650	8.466	8.309	8.224	7.665	7.466	7.363	7.133	6.820	6.450	6.505	6.179	5.802	5.568	5.310	5.255	4.846	4.552	4.145	3.960	4.121	3.910
340.0	345.3	303.7	240.1	195.7	162.8	152.3	157.6	167.3	193.1	214.3	238.9	258.5	252.2	220.6	178.8	132.9	104.1	91.14	81.61	97.00	223.8	626.5	 2954	9999.9	9999.9	9999.9	313.2	111.5	91.97	75.31	62.24	52.80	45.41	40.39	35.32	31.87	28.01	26.08	23.74	21.58	20.08	18.05	17.19	16.23	16.13	15.42	14.98	14.16	12.36	11.49	10.38	10.12	9.288	9.259	9.301	8.976	9.213	9.023	8.567	8.205	7.921	7.529	7.603	7.094	6.868	7.077	6.606	6.025	6.117	5.517	5.359	5.015	5.065	4.627	4.169	4.291	4.136
345.0	404.1	345.7	290.1	234.2	200.4	188.2	193.9	199.7	217.7	247.0	266.3	288.0	281.8	251.7	207.2	154.7	124.8	107.8	105.6	105.1	137.2	233.9	769.1	 4654	9999.9	9999.9	 3403	260.2	120.2	97.81	78.60	64.01	52.34	46.14	40.01	35.11	30.85	28.66	26.09	23.07	21.29	19.93	19.03	17.68	17.09	16.04	15.44	15.13	13.22	11.97	10.77	10.30	10.05	9.807	9.856	9.418	9.675	9.318	9.074	8.711	8.210	8.264	7.840	7.456	7.382	7.650	6.957	6.699	6.582	6.114	5.854	5.803	5.422	5.117	4.716	4.649	4.719
350.0	468.1	399.1	339.8	282.6	253.7	240.3	244.4	235.5	251.0	272.0	296.2	317.0	316.7	287.3	240.6	193.1	163.2	147.2	150.6	154.3	162.2	189.6	310.0	 1196	 5819	9999.9	9999.9	9999.9	 1374	155.5	114.7	89.09	70.15	57.02	48.21	41.33	36.25	32.80	29.59	26.73	24.03	22.13	20.44	19.41	18.25	17.03	16.67	16.04	14.61	12.81	11.55	11.34	10.75	10.46	10.06	10.22	10.23	10.37	9.833	9.463	9.028	8.738	8.443	8.078	7.973	7.855	7.527	7.202	7.097	6.681	6.496	6.227	5.947	5.370	5.334	5.376	5.313
355.0	547.9	476.0	387.2	347.1	326.6	318.4	307.0	294.8	290.1	301.7	321.5	346.8	347.9	323.8	282.3	243.6	220.2	207.9	215.8	232.3	243.8	250.5	271.3	461.6	 1486	 2959	9999.9	9999.9	9999.9	421.8	179.9	128.2	97.98	73.40	59.84	49.36	42.57	37.61	33.69	30.96	27.11	24.95	22.40	21.08	19.41	18.56	17.80	17.48	16.08	13.85	12.59	12.26	11.63	11.27	10.92	10.63	10.98	11.10	10.65	10.08	9.647	9.138	9.016	8.747	8.450	8.285	7.937	7.701	7.706	7.169	7.086	6.757	6.382	6.080	6.151	6.056	5.992
360.0	599.0	512.4	444.2	395.6	396.6	404.8	377.9	340.1	317.1	322.8	341.0	365.8	371.9	356.5	329.4	299.1	281.6	281.7	294.3	318.5	337.1	339.7	336.0	361.2	565.8	890.7	 3979	9999.9	9999.9	9999.9	382.6	171.4	125.3	95.31	72.03	57.23	49.30	42.52	37.80	34.15	30.26	27.05	24.16	22.52	20.93	20.30	19.00	18.24	16.60	14.53	13.58	13.00	12.17	11.89	11.45	11.49	11.72	11.40	11.37	10.64	10.39	9.692	9.364	9.157	8.964	8.881	8.543	8.035	7.633	7.653	7.688	7.365	6.896	6.621	6.668	6.597	6.462
365.0	648.2	560.5	492.9	461.8	472.0	489.1	454.6	400.3	349.4	342.8	367.1	393.2	402.3	403.7	389.6	374.5	364.7	379.4	397.5	431.5	463.5	481.8	459.0	427.7	438.2	476.2	 1158	 7116	9999.9	9999.9	9999.9	326.2	159.4	118.7	88.95	67.92	56.36	48.04	42.95	37.39	32.01	29.78	26.51	23.92	22.40	21.17	19.59	19.26	17.11	15.09	13.92	14.10	12.99	12.45	12.81	11.91	12.70	11.92	11.81	11.63	10.77	10.28	9.738	9.822	9.276	9.212	8.762	8.106	8.060	7.877	7.722	7.690	7.468	7.149	6.766	7.410	7.116
370.0	751.7	640.8	570.4	582.9	652.0	673.5	623.5	509.0	408.2	380.6	401.2	438.5	465.6	487.3	499.2	513.8	528.4	557.0	594.5	630.6	687.0	707.6	688.6	636.7	577.1	514.5	607.3	 1913	 8367	9999.9	9999.9	9999.9	 1343	179.8	121.6	92.14	70.36	58.18	49.27	43.26	37.10	33.53	29.42	26.64	24.67	23.25	21.21	20.31	18.47	16.22	14.99	15.13	14.17	14.09	13.63	13.13	13.65	13.11	12.71	12.24	11.61	11.03	10.34	10.11	9.567	9.641	9.303	8.865	8.765	8.387	8.242	8.344	8.419	7.890	8.135	8.204	8.249
375.0	819.4	748.8	685.6	732.0	847.3	900.7	812.2	637.3	481.5	429.4	448.4	488.2	547.1	589.4	635.8	681.3	720.9	773.1	840.0	906.2	979.2	 1010	 1007	945.9	827.0	699.8	621.0	819.1	 2210	 3246	9999.9	9999.9	9999.9	374.4	181.8	124.5	96.37	72.77	59.41	49.77	41.45	37.51	33.53	29.66	27.50	25.77	22.88	21.72	19.69	17.34	16.32	16.61	15.85	15.60	15.16	14.81	14.95	14.42	13.58	12.90	11.93	11.76	11.05	11.01	10.11	10.14	9.679	9.391	9.203	9.302	8.791	9.086	9.187	8.844	8.946	9.127	9.440
380.0	888.4	821.3	778.1	852.8	989.8	 1078	983.9	740.9	540.9	464.7	474.8	530.1	596.1	663.2	731.4	797.7	863.3	931.9	 1013	 1098	 1192	 1235	 1225	 1163	 1031	863.2	720.2	651.4	876.5	 1093	 4413	9999.9	9999.9	9999.9	336.2	162.7	119.8	91.48	69.09	57.15	46.97	41.39	36.51	33.25	29.35	28.02	24.01	22.87	20.81	18.47	16.88	17.98	16.77	16.76	16.44	16.04	16.38	15.42	14.32	13.59	12.41	12.29	11.42	11.05	10.38	10.58	10.24	9.646	9.660	9.756	9.496	9.720	9.456	9.778	9.887	10.08	10.39
385.0	925.9	887.3	841.0	930.1	 1115	 1210	 1113	831.5	583.7	487.8	494.4	562.7	640.9	725.4	818.1	899.7	985.7	 1066	 1154	 1265	 1367	 1427	 1426	 1360	 1217	 1019	843.6	688.0	629.8	628.7	 1362	 8027	9999.9	9999.9	9999.9	281.9	146.8	110.1	83.72	65.48	53.01	45.08	40.18	35.90	31.79	29.61	25.64	24.78	21.88	18.92	17.34	18.55	17.67	17.72	17.33	17.47	17.28	16.47	15.32	14.16	12.92	12.52	11.86	11.42	10.81	10.38	10.23	9.840	9.972	10.03	9.927	10.05	9.739	9.920	10.38	10.75	11.03
390.0	 1001	911.4	905.4	 1032	 1253	 1378	 1268	939.4	640.8	525.1	530.1	594.7	693.8	790.4	905.9	 1016	 1112	 1212	 1318	 1462	 1584	 1672	 1683	 1622	 1480	 1276	 1054	846.9	689.2	607.4	707.8	 2141	 7971	9999.9	9999.9	9999.9	 1143	161.6	111.0	86.82	66.07	52.74	45.48	39.88	35.69	32.97	28.31	26.57	23.97	20.40	18.67	19.20	18.64	19.22	18.50	18.53	18.41	17.75	16.25	14.86	13.39	12.63	12.06	11.59	11.08	11.01	10.86	10.53	10.57	10.36	10.25	10.53	10.49	10.72	11.19	11.56	11.96
395.0	 1053	975.7	958.4	 1119	 1343	 1519	 1414	 1044	705.4	556.1	557.3	618.9	723.0	848.5	974.9	 1106	 1207	 1327	 1459	 1619	 1778	 1904	 1952	 1908	 1762	 1557	 1329	 1069	851.9	717.6	637.0	842.3	 2052	 3007	9999.9	9999.9	9999.9	324.5	164.5	112.6	87.73	66.73	53.25	46.13	40.16	37.40	31.77	28.66	25.97	21.98	21.02	20.28	19.70	19.87	19.53	19.41	20.10	19.45	17.72	15.50	14.05	12.93	12.47	11.63	11.61	11.19	11.45	11.29	10.88	10.72	10.89	10.53	11.41	11.01	12.03	12.40	12.92
400.0	 1086	976.4	988.2	 1165	 1406	 1581	 1480	 1100	739.3	580.5	571.3	627.7	742.7	877.3	 1001	 1142	 1265	 1390	 1537	 1713	 1904	 2051	 2135	 2109	 1976	 1762	 1528	 1250	992.3	823.7	682.0	591.8	747.4	917.5	 3939	9999.9	9999.9	9999.9	299.5	144.3	103.3	82.56	62.59	51.11	43.22	39.04	34.07	31.00	27.29	23.31	21.92	21.41	20.66	20.18	20.36	19.93	20.80	19.86	17.98	16.00	14.46	13.31	12.55	11.75	11.37	11.41	11.30	10.86	10.88	10.95	11.02	10.96	11.35	11.62	11.85	12.52	13.00
405.0	 1095	991.0	 1011	 1172	 1418	 1613	 1518	 1131	763.2	598.0	578.1	636.8	741.0	869.8	 1008	 1158	 1283	 1418	 1581	 1782	 1988	 2168	 2282	 2285	 2164	 1942	 1689	 1417	 1132	920.1	743.5	570.0	479.3	449.3	 1110	 6969	9999.9	9999.9	9999.9	257.9	124.7	95.99	75.09	57.69	47.53	41.54	35.82	32.66	28.57	24.10	21.94	22.33	21.06	20.95	20.43	20.93	21.29	19.74	18.37	16.47	15.15	13.94	12.67	11.89	11.27	11.10	11.12	11.27	11.05	11.01	11.35	10.87	11.13	11.52	11.56	12.63	13.26
410.0	 1065	991.9	 1010	 1186	 1443	 1634	 1535	 1165	796.6	610.2	578.1	628.8	731.8	859.3	993.4	 1146	 1284	 1424	 1604	 1820	 2062	 2276	 2432	 2472	 2371	 2155	 1887	 1594	 1307	 1056	838.3	622.2	457.0	368.0	465.5	 1769	 6779	9999.9	9999.9	 9895	 1032	138.2	94.84	74.26	58.42	47.73	39.63	35.17	30.41	25.74	23.05	23.18	22.01	21.55	21.05	21.33	21.35	20.27	18.83	17.10	15.47	14.10	12.87	11.84	11.45	11.26	10.98	11.01	11.11	11.10	11.14	10.96	11.52	11.57	11.71	12.49	12.67
415.0	 1007	975.5	 1022	 1157	 1419	 1598	 1532	 1155	796.1	615.6	574.5	613.8	708.3	828.3	958.4	 1111	 1244	 1395	 1590	 1822	 2083	 2335	 2522	 2596	 2526	 2327	 2060	 1742	 1442	 1191	942.3	688.9	496.2	379.7	335.6	589.2	 1697	 2864	9999.9	9999.9	9999.9	300.5	138.1	93.07	75.46	58.09	45.31	38.98	32.60	27.72	24.55	24.07	22.52	22.34	22.01	21.21	21.28	20.39	19.00	17.90	15.67	14.68	13.25	12.60	11.46	11.17	10.74	10.72	11.08	10.97	10.72	11.03	11.52	11.60	11.52	12.35	12.82
420.0	 1026	965.8	988.4	 1140	 1382	 1565	 1498	 1160	794.1	613.5	564.7	598.3	683.3	790.6	922.6	 1074	 1207	 1358	 1555	 1797	 2073	 2336	 2551	 2642	 2600	 2413	 2147	 1829	 1515	 1265	 1016	742.9	533.3	400.6	323.0	335.6	561.8	814.8	 3648	9999.9	9999.9	9999.9	278.0	119.3	87.30	69.93	52.79	43.08	35.04	29.13	25.58	25.24	23.60	22.44	22.72	21.85	21.94	20.75	19.30	17.93	16.39	14.81	13.34	12.64	11.42	11.25	11.01	10.58	11.00	10.84	10.79	11.44	11.30	11.40	11.37	12.55	12.23
425.0	998.8	940.5	951.7	 1100	 1341	 1520	 1460	 1127	788.2	612.9	553.9	592.8	660.1	766.2	892.2	 1021	 1158	 1310	 1506	 1754	 2032	 2313	 2539	 2657	 2626	 2449	 2193	 1872	 1567	 1302	 1066	796.1	568.4	427.2	332.8	289.6	312.6	345.2	986.1	 6164	9999.9	9999.9	9999.9	229.0	105.9	80.21	63.21	48.59	38.49	30.73	26.81	26.38	24.87	23.68	22.67	22.39	22.43	20.93	19.37	17.74	15.99	14.25	13.69	12.92	12.36	11.70	10.94	10.84	10.93	10.57	10.66	11.17	11.05	10.98	11.68	11.85	12.30
430.0	944.1	882.8	912.2	 1043	 1275	 1441	 1401	 1089	773.2	592.6	541.3	564.9	628.5	724.1	836.3	960.8	 1092	 1231	 1427	 1677	 1960	 2236	 2483	 2621	 2608	 2452	 2205	 1909	 1609	 1338	 1094	845.7	621.7	466.5	362.6	295.9	270.7	245.2	369.4	 1534	 6495	9999.9	9999.9	 9332	946.7	116.8	78.64	62.76	47.25	35.21	29.70	28.82	25.96	24.74	23.73	23.08	22.89	21.78	20.01	18.19	16.53	14.72	13.71	13.35	12.50	11.81	10.67	10.80	10.60	10.49	10.50	10.51	10.96	10.95	11.24	11.61	11.95
435.0	921.4	865.5	876.5	993.2	 1197	 1361	 1318	 1048	748.1	573.0	524.1	545.2	594.3	672.3	775.9	888.1	 1009	 1148	 1330	 1572	 1857	 2137	 2382	 2530	 2530	 2403	 2179	 1907	 1617	 1363	 1115	877.0	674.7	515.3	402.8	324.6	279.8	235.8	237.9	478.5	 1577	 2755	9999.9	9999.9	9999.9	270.3	117.6	79.55	61.56	44.83	35.40	32.46	28.02	26.88	25.16	24.46	24.23	22.71	20.88	18.56	16.84	15.08	14.36	13.62	13.01	12.15	11.36	10.55	10.39	10.35	10.15	10.13	10.69	11.00	11.06	11.40	11.58
440.0	918.6	837.4	851.8	942.6	 1121	 1294	 1261	 1006	731.7	560.5	509.2	520.0	571.8	645.8	729.8	837.0	951.7	 1072	 1251	 1490	 1762	 2039	 2288	 2432	 2446	 2342	 2130	 1884	 1604	 1366	 1127	890.5	706.7	551.6	430.6	345.7	295.8	241.0	214.7	246.7	477.4	749.3	 3533	9999.9	9999.9	9999.9	229.6	104.4	70.93	54.42	42.26	35.89	29.94	28.24	26.69	25.31	25.04	23.49	21.56	19.57	17.39	15.64	14.59	13.86	13.15	12.27	11.91	11.01	10.66	10.58	9.866	10.54	10.15	10.72	10.72	10.68	11.50
445.0	908.7	775.5	822.6	897.1	 1075	 1225	 1184	962.2	698.3	550.0	499.9	502.5	540.5	613.6	687.2	783.9	887.6	 1007	 1183	 1397	 1658	 1931	 2169	 2314	 2349	 2247	 2066	 1828	 1583	 1350	 1119	897.0	708.8	574.7	457.1	366.8	313.5	251.9	214.2	197.7	233.0	285.4	928.5	 7054	9999.9	9999.9	9999.9	198.2	87.37	61.93	49.76	41.09	33.21	30.44	27.64	25.95	25.83	23.93	21.31	19.71	17.51	15.91	14.92	13.83	12.94	12.66	11.93	11.33	10.66	10.67	10.22	10.29	10.21	10.40	10.39	10.78	11.33
450.0	876.3	783.8	756.1	831.9	990.3	 1112	 1099	900.4	660.6	530.1	477.1	477.0	505.7	561.1	623.3	710.6	800.2	909.8	 1059	 1266	 1501	 1752	 1984	 2128	 2165	 2086	 1933	 1730	 1511	 1303	 1102	895.3	715.1	585.8	486.7	396.7	334.5	271.6	226.9	192.8	183.2	182.5	320.5	 1712	 6610	9999.9	9999.9	 8154	757.2	91.83	61.87	52.05	41.08	34.52	30.43	28.30	26.94	25.04	23.27	20.54	18.72	17.10	15.51	14.54	13.44	12.68	12.21	11.82	11.39	10.66	10.45	10.51	10.51	10.19	10.35	10.58	11.12
455.0	791.8	800.1	696.3	753.6	883.2	 1004	983.1	817.0	621.7	496.3	449.7	440.1	466.2	497.5	553.5	628.2	707.2	799.3	932.0	 1117	 1325	 1556	 1758	 1902	 1951	 1894	 1766	 1596	 1411	 1236	 1061	873.8	712.3	587.7	494.1	421.7	356.0	289.1	241.6	200.4	174.9	160.6	181.4	484.5	 1582	 2899	9999.9	9999.9	9999.9	202.5	92.43	63.67	50.16	42.14	34.04	29.99	27.57	25.92	23.40	21.04	18.99	17.07	16.02	14.77	13.53	12.47	12.15	11.74	11.28	10.60	10.50	10.01	10.02	10.47	10.39	10.02	10.64
460.0	753.6	754.2	687.6	703.4	816.8	911.7	908.1	756.2	580.0	470.0	425.4	420.1	426.2	460.6	510.2	565.7	637.7	728.4	846.6	 1008	 1199	 1408	 1600	 1738	 1787	 1744	 1639	 1492	 1333	 1173	 1020	850.8	700.1	583.6	492.3	429.2	371.1	303.6	252.1	209.5	177.6	156.6	151.5	209.9	452.0	762.5	 3530	9999.9	9999.9	9999.9	185.1	85.30	58.41	49.97	40.45	33.13	30.32	27.23	24.64	21.66	19.36	18.29	16.02	15.20	14.02	13.18	11.99	11.87	10.99	10.69	10.78	10.08	9.801	10.07	10.21	10.09	10.68
465.0	717.6	692.1	716.7	674.8	765.3	844.6	841.2	712.7	553.8	455.0	406.8	396.5	403.6	428.3	469.1	518.2	575.8	658.5	761.6	915.8	 1084	 1278	 1458	 1588	 1644	 1604	 1514	 1394	 1252	 1113	974.3	823.0	688.2	576.4	491.2	425.8	379.5	311.8	259.4	215.3	183.9	157.1	141.9	148.6	196.4	269.0	907.2	 6677	9999.9	9999.9	9999.9	173.5	74.41	57.91	47.43	39.79	33.54	28.80	26.13	22.64	20.61	18.71	17.10	15.80	14.55	13.24	12.52	11.90	11.22	10.84	10.80	10.46	9.983	10.01	10.02	9.788	10.33
470.0	667.5	611.2	682.5	682.1	680.2	746.2	755.7	640.9	510.0	415.4	374.9	358.7	366.9	385.1	413.9	453.3	505.3	570.5	661.5	786.9	942.0	 1107	 1266	 1381	 1437	 1412	 1344	 1249	 1133	 1021	904.2	776.6	659.3	562.1	482.7	419.0	371.5	319.2	266.4	220.2	186.3	160.3	140.1	129.5	136.4	149.3	290.3	 1608	 6175	9999.9	9999.9	 7614	720.6	83.52	57.56	48.19	40.44	32.94	28.00	24.07	21.25	19.11	17.47	15.92	14.77	13.54	13.14	12.43	11.45	11.03	10.44	10.16	10.12	9.479	9.708	9.544	9.753
475.0	570.8	513.9	555.2	688.5	628.0	639.7	652.1	560.4	447.8	371.5	335.6	322.8	323.8	339.5	357.5	391.1	433.4	485.0	561.7	667.3	800.0	944.9	 1083	 1187	 1240	 1226	 1178	 1104	 1013	927.3	830.7	719.8	623.1	537.7	465.4	406.8	359.7	310.3	269.4	223.4	188.8	158.5	137.7	119.5	113.0	112.2	139.4	431.7	 1453	 2725	9999.9	9999.9	9999.9	222.3	79.57	54.70	45.31	37.42	29.82	24.41	21.25	18.83	16.85	15.71	14.24	12.98	12.36	11.35	10.73	10.43	9.658	9.441	9.572	8.951	8.711	8.675	8.499
480.0	546.7	459.8	467.0	641.5	668.3	580.4	592.4	502.4	417.2	349.9	316.4	295.4	295.5	307.8	320.6	350.1	385.3	431.7	502.7	586.3	714.8	841.7	963.9	 1057	 1105	 1108	 1064	 1006	932.9	856.7	781.9	682.8	594.6	520.4	453.0	398.6	352.1	302.9	266.5	227.6	189.5	160.7	136.5	118.4	106.4	99.97	103.8	165.6	390.3	684.1	 3236	9999.9	9999.9	9999.9	190.8	71.90	52.11	42.47	34.33	27.34	22.14	20.08	17.80	16.10	14.72	13.71	12.62	11.63	11.04	10.57	9.705	9.179	8.828	8.438	8.643	8.183	8.252
485.0	510.9	439.8	432.2	546.4	730.7	559.9	545.1	464.5	389.4	327.7	295.8	278.1	274.4	281.0	291.9	318.4	348.6	389.0	448.2	528.9	634.0	754.0	871.6	954.7	 1004	 1002	968.1	926.3	860.5	800.3	732.8	649.7	567.8	501.4	439.5	389.1	346.2	299.1	261.2	228.3	192.5	163.1	139.3	118.9	105.9	95.15	92.59	104.4	150.0	214.1	800.2	 5198	9999.9	9999.9	9999.9	157.0	65.15	47.19	39.69	31.22	24.52	21.11	18.63	16.11	15.31	14.07	13.34	11.95	11.34	10.32	9.791	9.166	9.129	8.641	8.389	8.422	8.267
490.0	488.5	413.1	375.7	426.9	695.0	674.2	491.0	424.6	355.0	299.1	274.4	257.4	249.8	256.4	261.2	280.4	305.6	338.6	387.3	457.9	547.8	650.9	751.5	826.8	871.7	878.9	853.9	824.2	772.9	727.4	671.0	601.4	533.0	472.5	420.0	373.9	336.0	291.5	256.8	224.5	195.3	165.3	140.5	122.3	107.2	96.77	88.65	86.93	92.94	103.1	233.6	 1238	 5505	9999.9	9999.9	 7993	182.4	70.98	47.58	37.76	30.71	24.54	20.16	17.85	15.76	15.05	13.60	12.90	11.67	11.04	9.974	9.452	9.126	8.566	8.465	8.236	8.032
495.0	441.8	376.3	345.5	349.6	501.5	823.1	513.9	379.4	321.7	270.7	246.2	231.7	225.6	225.1	230.6	244.6	262.6	289.2	328.1	390.9	465.6	549.4	635.7	700.3	742.4	757.8	739.0	718.9	685.6	648.9	608.2	548.7	490.6	440.3	395.8	355.8	318.4	280.2	245.6	217.4	191.1	167.7	142.7	122.7	109.1	98.23	88.25	80.97	76.34	75.56	102.4	328.5	 1287	 2674	9999.9	9999.9	9999.9	228.9	70.28	44.70	36.17	29.65	23.58	19.16	17.21	15.57	13.94	13.02	12.04	10.90	10.27	9.686	9.135	8.449	8.463	8.164	7.889
500.0	402.0	331.9	317.4	307.8	375.2	783.1	728.6	348.9	289.5	255.3	228.7	213.3	208.1	205.5	209.9	217.9	230.3	252.4	289.2	340.6	405.0	477.9	557.1	617.7	653.3	672.3	660.0	643.7	619.0	591.3	555.4	506.8	456.9	413.4	372.9	335.1	305.3	271.0	238.8	209.4	185.2	165.1	144.1	123.6	109.1	98.44	87.26	79.31	71.75	66.06	71.83	122.0	336.6	662.4	 3309	9999.9	9999.9	9999.9	192.9	59.32	40.70	32.46	26.91	21.21	17.87	16.17	14.03	12.82	11.95	10.95	9.947	9.417	8.999	8.495	8.244	7.823	7.782
505.0	388.2	313.5	285.2	279.6	313.7	581.1	950.1	399.5	266.6	237.3	209.9	200.0	192.2	184.1	186.9	194.8	205.7	223.4	253.5	299.4	355.4	422.9	490.5	543.3	582.3	595.8	592.8	580.6	560.0	538.4	509.6	469.6	428.6	385.4	349.7	318.6	290.9	259.7	230.6	203.9	179.6	161.5	144.4	124.4	108.5	96.61	86.98	78.25	69.97	63.11	62.12	73.75	120.7	199.1	809.6	 4951	9999.9	9999.9	9999.9	144.7	49.74	35.63	29.40	23.95	18.81	16.25	14.13	13.41	11.48	11.03	9.941	9.388	8.918	8.515	7.854	7.557	7.340
510.0	347.5	288.2	259.3	251.0	273.3	363.7	842.6	712.2	265.6	209.3	188.2	180.4	168.7	166.2	164.1	166.8	176.6	190.3	216.1	252.9	300.1	355.4	412.6	457.2	492.6	506.6	509.1	501.8	491.9	471.8	451.0	419.9	382.7	350.4	318.2	291.9	268.6	242.3	217.1	192.5	170.2	152.3	137.5	123.4	108.0	95.87	86.26	76.91	68.40	61.31	56.50	58.48	68.89	88.04	227.5	 1170	 5463	9999.9	9999.9	 8477	170.2	53.25	33.64	27.38	22.22	17.84	15.24	13.74	11.82	10.91	10.12	9.315	8.388	8.186	7.810	7.306	7.385
515.0	315.5	261.9	230.7	222.8	237.9	267.0	463.7	922.9	358.5	183.3	166.9	156.4	148.7	142.4	140.8	140.8	150.2	160.2	181.5	209.5	249.6	294.5	339.1	381.9	408.6	425.4	429.8	429.3	421.0	409.7	393.8	367.7	339.6	311.6	288.8	264.1	243.7	221.8	201.1	178.5	159.8	141.8	128.3	116.9	107.5	94.46	84.59	75.18	67.34	59.62	53.65	51.49	52.45	58.75	89.77	301.8	 1266	 2514	9999.9	9999.9	9999.9	220.6	51.53	32.71	25.76	21.42	17.16	14.41	12.28	11.04	9.694	9.140	8.356	7.995	7.441	7.327	7.031
520.0	302.5	241.6	202.3	200.8	211.3	228.4	289.8	761.3	675.0	182.9	154.0	146.0	134.8	130.3	125.5	127.6	131.7	140.9	157.3	182.8	217.3	256.6	296.4	330.5	358.0	372.9	377.7	381.3	374.3	369.1	354.0	335.9	309.7	287.4	264.9	243.2	226.5	205.5	189.0	169.1	152.3	135.1	122.1	111.8	103.8	92.37	82.58	73.57	64.39	57.89	52.57	49.81	46.70	47.85	56.37	104.5	322.4	612.1	 2918	9999.9	9999.9	9999.9	173.8	43.68	28.53	23.33	19.56	16.30	12.59	11.29	9.859	9.078	8.638	7.755	7.572	6.884	7.029
525.0	282.6	229.0	189.9	189.6	191.3	201.4	222.4	464.4	864.1	268.1	147.5	136.8	124.0	118.6	115.6	115.8	118.8	125.3	138.5	159.3	190.8	223.3	259.9	292.8	314.8	329.3	335.4	339.9	336.1	333.4	320.1	305.7	283.0	263.4	243.2	226.7	209.8	192.3	176.9	160.1	144.0	128.8	116.3	106.0	99.17	89.82	80.99	71.21	62.39	55.73	50.23	47.75	43.50	43.23	45.50	58.03	107.3	175.1	704.5	 4128	9999.9	9999.9	 1972	119.5	34.89	26.13	21.33	17.54	13.82	11.78	10.29	9.024	8.471	7.765	7.381	7.153	7.000
530.0	258.8	213.7	181.1	170.9	171.7	180.5	187.9	247.1	644.7	567.0	161.4	118.2	112.8	105.7	101.5	99.43	102.4	107.5	117.3	136.6	161.6	189.3	219.2	247.5	268.0	281.9	286.0	291.4	294.0	290.5	283.0	271.4	251.8	236.1	219.3	203.5	190.0	175.0	159.4	145.9	132.8	119.6	108.5	99.17	91.62	85.74	78.72	69.54	60.27	53.91	48.67	44.99	41.15	39.84	39.47	43.92	55.80	71.86	191.8	969.3	 4451	9999.9	9999.9	 8625	156.6	40.45	25.94	19.48	16.11	13.33	10.72	9.315	8.498	7.533	7.200	6.890	6.455
535.0	233.6	190.2	161.9	154.7	154.7	155.0	159.7	170.4	302.3	682.0	272.0	107.1	99.70	91.10	89.08	85.74	86.54	90.23	99.01	114.1	132.6	156.0	182.7	205.5	223.4	236.9	243.8	249.2	249.8	250.7	246.2	237.5	222.5	208.1	192.6	180.2	170.4	156.8	144.8	131.3	120.0	109.8	98.96	92.12	84.78	78.86	73.55	68.03	58.40	51.64	46.03	42.98	38.98	37.84	37.71	38.06	40.49	45.73	71.87	246.6	 1028	 2416	9999.9	9999.9	9999.9	210.4	35.98	23.93	18.64	15.19	12.23	10.14	8.610	7.893	7.120	6.696	6.280
540.0	217.7	184.6	155.2	141.3	142.1	148.8	145.5	139.1	163.1	513.6	555.3	121.1	90.06	83.36	78.43	78.30	77.93	79.34	88.97	100.5	117.7	136.5	157.9	179.7	195.7	208.5	214.5	219.1	223.5	223.1	221.4	214.6	201.5	189.8	176.0	164.1	155.5	143.6	132.9	120.4	111.2	102.7	92.10	86.49	79.43	74.32	69.28	64.82	58.32	49.96	45.37	42.15	38.05	36.48	37.07	36.08	35.90	37.83	44.21	83.00	259.2	578.9	 2632	9999.9	9999.9	9999.9	162.1	32.51	21.53	16.45	13.24	10.83	8.990	7.762	7.248	6.785	6.434
545.0	210.4	182.7	149.9	130.8	130.9	134.4	138.1	127.2	126.8	288.6	652.4	210.6	83.13	76.20	72.15	69.84	70.99	72.05	80.24	90.14	104.6	119.0	139.4	161.2	173.4	184.6	192.6	197.1	199.4	202.4	200.6	192.9	183.7	171.7	162.4	151.9	143.2	131.2	122.7	112.6	104.3	95.11	86.99	81.29	75.72	69.68	65.50	61.27	55.68	49.11	44.04	40.59	36.32	35.57	35.35	35.02	34.08	33.80	35.63	45.65	85.77	160.3	630.3	 3390	9999.9	9999.9	 2010	106.4	27.75	18.45	14.72	11.79	9.863	8.090	7.412	6.621	6.708
550.0	215.0	173.6	142.5	121.2	112.7	118.0	118.6	111.6	108.1	141.2	432.9	461.3	110.2	70.40	65.07	61.49	60.15	62.68	67.03	75.79	87.90	100.6	117.7	134.1	147.2	158.0	164.5	169.0	173.0	175.5	173.9	168.7	160.7	151.4	143.6	134.6	127.3	117.5	109.1	100.4	93.55	86.09	78.71	72.80	68.75	64.29	59.72	56.12	51.98	46.66	41.62	37.83	34.58	33.91	33.28	32.85	31.85	30.87	30.24	32.70	43.52	62.12	170.0	795.3	 3627	9999.9	9999.9	 8760	142.3	27.92	17.69	13.41	11.12	9.131	7.593	7.002	6.598
555.0	209.0	156.4	136.1	108.8	100.2	104.1	102.4	98.26	87.84	89.57	185.9	485.9	292.9	61.28	55.18	53.05	51.01	52.88	56.77	62.76	72.76	84.84	97.55	109.8	121.1	130.5	136.5	140.6	146.5	148.9	147.5	143.8	136.0	129.6	121.6	115.9	110.7	102.4	95.48	87.50	81.55	75.38	69.18	64.80	60.32	57.73	53.55	49.92	45.70	41.84	39.36	35.50	31.72	30.46	29.66	29.72	28.85	27.72	26.21	26.53	29.11	35.76	61.20	201.6	836.1	 2341	9999.9	9999.9	9999.9	200.1	28.01	16.24	12.27	10.33	8.730	7.321	6.345
560.0	194.7	156.0	124.6	98.34	95.76	95.02	91.89	85.22	81.56	75.59	95.33	329.4	472.5	84.38	48.72	45.89	45.18	46.34	49.18	54.75	63.87	72.90	84.24	94.50	104.1	113.3	119.2	122.9	126.7	129.4	130.6	125.7	120.5	114.2	107.7	103.4	98.20	90.92	84.90	78.98	73.99	67.86	62.14	58.74	54.72	51.90	48.38	45.74	41.29	38.70	37.00	33.36	30.09	28.73	27.76	27.86	26.44	25.35	24.04	23.44	24.12	27.05	34.22	65.81	208.6	549.7	 2458	9999.9	9999.9	9999.9	142.5	22.07	13.98	10.85	9.317	7.673	6.425
565.0	184.2	132.3	119.3	98.50	84.86	87.69	82.68	75.44	70.30	69.12	68.64	171.2	500.7	165.0	45.10	40.64	41.17	40.31	41.88	47.12	54.12	62.44	72.81	82.38	89.95	96.86	102.3	108.5	110.4	113.9	114.8	110.4	105.8	100.5	94.86	91.32	86.72	81.40	75.37	70.86	66.03	61.27	55.92	52.04	49.56	46.57	44.11	41.54	37.13	34.86	33.41	30.84	27.58	26.04	25.63	24.75	23.98	23.24	21.55	20.73	21.08	22.26	24.94	32.79	64.45	142.6	575.2	 2844	9999.9	9999.9	 1987	35.27	17.41	11.84	9.243	8.472	7.110
570.0	166.7	127.9	104.6	85.63	77.51	75.52	73.41	65.47	60.86	58.39	53.80	78.35	300.5	397.9	84.06	35.12	34.41	33.75	34.00	38.27	43.99	50.56	58.26	65.89	73.24	78.59	83.47	87.96	91.51	93.38	94.39	91.48	88.16	83.98	79.59	75.70	72.26	68.60	64.83	60.92	55.20	51.55	47.48	44.14	42.44	39.83	38.04	35.72	32.23	29.79	28.50	26.78	24.60	23.25	22.55	21.97	21.28	20.65	18.98	18.48	18.11	18.83	19.54	21.84	29.45	47.17	145.0	656.8	 2960	9999.9	9999.9	 8564	130.7	18.22	11.20	8.670	7.626
575.0	157.6	116.1	94.10	79.81	66.99	62.81	61.87	55.79	52.66	48.87	44.92	47.55	113.2	369.3	282.6	33.06	28.34	26.15	28.07	30.85	33.36	39.51	45.36	52.01	57.73	62.31	66.03	68.91	72.77	75.34	74.80	74.02	71.25	68.24	65.23	61.90	60.33	56.97	52.84	49.82	46.31	43.00	40.38	37.53	35.56	33.60	31.33	29.80	27.17	25.32	24.06	22.11	21.40	20.27	19.69	19.34	18.79	18.17	16.83	16.07	15.82	15.91	16.28	17.06	18.74	23.11	44.69	159.6	675.9	 2285	 6955	9999.9	9999.9	177.4	17.26	9.719	8.006
580.0	148.0	110.8	86.45	76.12	64.91	58.57	55.93	51.65	46.24	43.40	41.77	39.67	51.58	227.3	434.1	71.89	23.98	21.65	24.18	26.66	29.17	32.99	38.57	44.70	48.05	51.90	55.40	58.86	62.47	63.40	64.43	62.53	60.85	57.41	56.05	53.21	51.41	48.92	46.21	42.77	40.12	37.23	34.58	32.54	31.54	29.35	27.44	26.23	23.88	22.32	20.92	20.12	19.17	19.06	18.01	17.87	17.28	16.32	15.65	14.38	14.50	14.60	15.04	14.72	14.96	16.09	21.45	47.13	163.6	526.4	 1662	 9557	9999.9	 2106	34.60	13.33	8.724
585.0	145.2	114.9	81.74	68.49	59.75	52.68	52.75	45.80	42.97	41.14	38.23	35.05	34.34	106.2	412.2	207.9	21.57	21.31	20.98	23.37	25.89	28.14	33.72	38.00	41.85	45.33	47.70	51.91	53.59	54.76	55.96	54.37	53.39	51.31	49.45	47.59	45.06	43.05	40.14	37.74	34.79	33.73	30.99	29.38	27.90	26.43	24.65	23.84	21.76	20.03	18.53	17.98	17.32	17.41	16.91	16.58	15.57	15.86	14.58	13.64	13.38	13.47	13.45	13.67	13.18	13.60	14.85	20.80	47.05	129.3	387.3	 2405	9999.9	9999.9	 1851	28.33	11.12
590.0	136.2	105.9	79.32	62.92	53.78	49.35	44.96	41.10	39.21	35.87	33.39	30.65	28.23	43.67	214.1	387.9	67.34	18.16	18.02	19.63	21.36	24.20	27.91	31.60	34.43	38.40	40.01	42.60	44.25	45.91	46.67	46.67	45.34	43.15	41.99	39.95	38.09	36.23	33.63	32.07	30.01	29.00	26.85	25.26	24.44	22.95	21.46	20.40	18.91	17.16	16.29	15.80	15.23	15.32	15.45	15.16	14.41	14.05	13.24	12.74	12.47	12.46	12.23	12.14	11.59	11.45	11.56	13.43	19.79	38.11	96.76	548.8	 2546	 8822	9999.9	 6502	123.8
595.0	133.8	98.64	71.01	60.46	51.10	44.72	41.01	36.39	34.74	31.58	29.31	27.91	24.73	25.58	69.00	301.7	294.2	20.34	15.38	15.79	17.93	20.34	22.65	25.93	29.76	31.84	34.29	35.71	36.78	38.71	40.05	39.13	38.16	36.95	35.05	33.66	32.33	30.97	29.16	27.26	25.32	24.52	22.68	21.77	21.47	20.14	18.72	17.97	16.23	15.33	14.26	13.96	13.09	13.65	13.78	13.69	13.47	12.62	12.25	11.81	11.50	11.27	11.16	10.74	10.31	10.32	10.01	9.989	11.98	16.51	29.65	130.4	576.0	 1989	 4337	9999.9	 8486
600.0	132.9	96.63	71.46	55.25	49.53	43.70	38.06	34.56	31.21	29.44	27.63	24.87	21.76	19.86	29.18	158.8	419.3	68.12	14.71	14.67	15.94	18.00	20.84	22.83	26.44	28.30	30.76	31.96	33.50	34.64	35.74	34.79	34.44	32.53	32.13	30.47	29.29	27.98	26.76	24.55	23.06	22.03	20.59	19.45	19.25	19.02	17.70	16.32	14.59	13.82	12.74	12.41	11.52	11.94	12.59	12.75	12.68	11.85	11.12	10.82	10.94	10.25	10.12	10.23	9.584	9.368	9.251	8.639	9.512	10.70	13.69	36.02	135.9	452.1	 1015	 5689	9999.9
605.0	132.7	95.96	68.34	56.64	47.06	40.50	39.16	33.12	28.84	27.27	25.97	24.01	20.01	18.45	19.44	66.17	356.9	226.3	14.41	13.60	14.38	16.04	17.77	20.58	23.47	25.21	27.66	28.51	30.24	31.97	31.93	31.23	30.53	30.11	29.50	27.97	26.78	25.30	24.10	22.72	21.15	19.92	18.38	17.73	17.43	17.27	16.29	15.15	13.58	12.78	11.86	11.34	10.82	10.57	11.24	11.56	11.67	11.14	10.44	9.997	9.907	9.828	9.296	9.411	9.049	8.554	8.370	8.027	8.384	8.400	9.467	14.25	36.82	107.8	235.2	 1397	 7424
610.0	124.8	89.51	70.21	54.00	46.24	40.20	36.45	31.36	28.79	27.54	24.86	22.65	19.12	17.16	15.83	25.79	166.2	392.6	61.06	12.50	13.06	14.20	15.91	18.22	20.05	22.39	24.52	26.28	26.80	28.82	28.98	28.36	27.73	26.91	26.47	24.91	24.11	23.08	21.48	20.13	18.71	17.82	16.55	15.89	15.61	15.40	14.55	14.13	12.76	11.47	10.69	10.29	9.770	9.674	9.963	10.39	10.42	10.30	9.749	9.190	8.988	8.956	8.766	8.693	8.352	7.778	7.644	7.327	7.391	7.494	7.752	8.768	13.66	29.74	58.75	318.8	 1804
615.0	120.9	92.74	63.94	48.51	43.30	38.34	34.04	28.66	28.49	24.90	23.99	21.55	18.49	15.53	14.51	15.19	49.99	284.3	358.9	20.86	12.03	12.70	14.23	15.54	17.83	19.36	21.19	23.24	24.49	25.03	25.24	25.04	25.20	24.33	23.56	22.23	21.99	20.86	19.51	18.05	16.69	15.97	15.14	14.74	14.04	13.55	13.22	12.73	11.77	10.63	9.770	9.354	8.766	8.885	9.033	8.940	9.098	9.231	9.161	8.567	8.218	8.109	7.966	7.832	7.805	7.204	7.048	6.882	6.749	6.617	6.906	6.785	7.940	11.66	18.00	76.12	407.2
620.0	115.7	86.82	66.18	50.81	41.87	35.46	33.41	27.86	26.97	23.60	23.32	19.75	18.39	14.98	13.94	13.12	19.42	140.3	514.2	73.67	11.18	11.94	13.19	14.71	16.51	17.52	19.22	20.76	22.57	22.82	23.08	23.53	22.89	22.69	21.08	19.83	19.95	18.99	17.27	16.57	15.67	14.54	14.09	13.14	12.95	12.86	12.29	11.39	11.11	10.27	9.280	8.627	8.345	8.096	8.324	8.257	8.645	8.379	8.555	8.122	8.147	7.487	7.434	7.270	7.171	7.157	6.753	6.259	6.263	6.364	6.245	5.849	5.926	7.184	8.720	21.54	95.60
625.0	119.5	89.54	66.67	48.85	41.66	37.58	31.49	28.69	25.69	23.25	23.16	19.42	17.40	15.47	13.29	11.73	12.55	53.33	434.1	359.2	14.05	11.15	12.11	14.16	15.39	16.49	18.12	19.16	20.17	21.18	21.62	21.96	20.92	20.69	19.36	18.36	18.26	16.88	16.11	15.84	14.67	13.69	12.92	12.50	12.72	12.09	11.43	11.24	10.28	9.498	8.884	8.623	8.204	7.847	7.555	7.611	7.900	7.891	7.873	7.548	7.722	7.147	7.064	6.917	6.954	6.766	6.488	6.003	6.002	5.860	5.723	5.660	5.213	5.604	6.061	9.029	25.60
630.0	118.1	88.16	66.03	49.60	39.99	35.20	31.02	25.50	24.48	22.70	21.22	18.91	17.06	15.41	13.42	11.04	10.74	19.72	189.5	633.6	181.8	11.24	11.73	12.75	14.58	15.29	16.90	17.89	19.39	19.57	20.43	19.81	19.57	19.18	18.07	17.13	16.45	15.61	14.99	13.75	13.16	12.83	12.15	11.70	11.65	11.17	10.66	10.16	9.569	8.847	8.318	8.136	7.601	7.454	7.139	7.247	7.445	7.200	6.928	7.012	7.065	6.795	6.566	6.283	6.290	6.190	6.046	5.693	5.520	5.365	5.210	5.211	5.148	4.926	5.128	5.710	9.471
635.0	124.0	91.37	63.81	46.93	40.90	33.81	30.69	26.52	23.41	21.95	20.59	19.44	17.91	14.75	12.67	10.58	9.144	11.68	52.79	434.0	591.4	33.36	11.80	12.16	13.97	14.83	15.44	16.76	17.33	18.15	18.13	18.53	18.49	18.02	17.12	16.11	15.25	14.39	13.44	12.43	12.14	11.36	11.06	10.87	10.76	10.41	10.10	9.414	8.864	8.341	7.755	7.739	7.312	7.047	6.753	6.870	6.701	6.635	6.397	6.084	6.404	6.185	6.429	6.145	5.845	5.640	5.670	5.396	5.332	5.105	4.737	4.697	4.645	4.519	4.512	4.344	5.355
640.0	118.6	87.57	65.98	50.87	40.91	34.75	28.91	27.11	23.53	21.34	21.40	19.29	18.14	15.48	12.92	10.62	8.999	9.053	18.80	198.0	 1003	240.3	11.66	12.02	13.67	14.36	15.26	15.45	16.60	16.56	17.66	17.78	17.04	16.75	16.29	15.36	14.54	13.99	13.05	12.24	11.66	11.05	10.56	10.63	10.24	9.980	9.725	9.381	8.639	7.764	7.314	7.086	6.835	6.881	6.763	6.457	6.413	6.386	6.127	5.927	6.130	6.226	5.935	5.483	5.554	5.494	5.210	5.216	4.881	4.968	4.619	4.278	4.524	4.214	4.147	4.197	4.155
645.0	111.3	87.98	64.31	46.53	39.98	34.74	28.74	26.53	23.23	20.91	20.74	18.51	17.56	15.07	12.39	10.67	8.556	8.460	10.48	67.61	831.6	570.8	19.35	12.05	13.01	13.88	14.66	14.98	15.93	16.65	17.22	16.74	16.24	16.36	15.78	14.86	14.10	13.47	12.61	12.09	10.76	10.72	10.44	9.983	9.964	10.09	9.451	9.162	8.408	7.568	7.243	7.069	6.788	6.912	6.338	6.443	6.303	6.138	6.038	5.754	5.838	5.704	5.739	5.296	5.267	5.356	5.149	5.058	4.751	4.725	4.483	4.097	3.926	3.872	3.931	3.764	3.881
650.0	121.4	91.52	65.78	46.04	39.42	35.14	30.91	27.50	22.22	21.57	20.37	18.79	17.58	15.30	12.96	10.40	9.061	7.954	8.740	22.30	430.9	 1357	63.64	11.96	12.97	13.93	14.57	14.49	15.42	15.91	16.63	16.13	15.65	15.73	15.36	14.08	14.04	13.10	12.48	11.56	10.82	10.22	10.13	9.675	9.419	9.886	9.218	9.116	8.241	7.455	6.909	6.786	6.544	6.448	6.442	6.183	6.213	6.195	5.764	5.587	5.543	5.269	5.201	5.127	5.214	5.147	4.838	4.787	4.743	4.727	4.158	4.006	3.825	3.679	3.989	3.603	3.634
