Sample:	'1
File name:	H2025090902入河排污口1号(友谊大桥东).FD3
Run date:	'17:09:51, 09/10/2025
Operator:	Administrator
Comment:	'

Instrument
Model:	F-2700 FL Spectrophotometer
Serial number:	23C7-003
ROM Version:	4J14000 07

Instrument parameters
Measurement type:	3-D scan
Data mode:	Fluorescence
EX  Start WL:	220.0 nm
EX  End WL:	600.0 nm
EX Sampling interval:	5.0 nm
EM  Start WL:	230.0 nm
EM  End WL:	650.0 nm
EM Sampling interval:	5.0 nm
Scan speed:	12000 nm/min
EX Slit:	5.0 nm
EM Slit:	5.0 nm
PMT Voltage:	700 V
Response:	Auto 
Corrected spectra:	Off
Contour interval:	50.000

Peak integration
Integration method:	Rectangular
Sensitivity:	1
Threshold:	1.000

Peaks
No.	ApexEX/EM(nm)	Height(Data)
1	225.0/310.0	322.8
2	225.0/580.0	34.76
3	225.0/595.0	34.07
4	225.0/630.0	28.78
5	225.0/640.0	26.64
6	230.0/335.0	261.6
7	230.0/500.0	218.6
8	235.0/510.0	199.6
9	240.0/260.0	220.0
10	240.0/520.0	170.9
11	245.0/270.0	213.3
12	250.0/275.0	267.8
13	250.0/405.0	446.6
14	250.0/545.0	123.2
15	255.0/280.0	347.6
16	255.0/420.0	448.7
17	255.0/560.0	103.1
18	260.0/285.0	351.1
19	260.0/430.0	440.9
20	260.0/570.0	85.77
21	265.0/440.0	434.8
22	265.0/585.0	83.82
23	270.0/300.0	897.1
24	270.0/595.0	81.72
25	275.0/305.0	1050
26	275.0/610.0	76.25
27	280.0/310.0	909.9
28	280.0/620.0	62.34
29	285.0/635.0	38.16
30	295.0/330.0	339.3
31	300.0/335.0	323.2
32	305.0/340.0	296.7
33	310.0/350.0	266.4
34	315.0/355.0	263.1
35	320.0/360.0	280.6
36	325.0/370.0	267.0
37	330.0/375.0	270.4
38	335.0/380.0	292.0
39	340.0/385.0	270.7
40	350.0/400.0	252.5
41	355.0/405.0	244.7
42	430.0/505.0	33.99
43	445.0/525.0	19.97
44	505.0/275.0	1.912
45	510.0/280.0	2.088
46	515.0/285.0	2.289
47	525.0/290.0	2.499
48	545.0/300.0	4.695
49	550.0/305.0	5.246
50	560.0/310.0	4.800
51	570.0/315.0	4.109
52	575.0/320.0	3.703
53	585.0/325.0	3.298

Data points
	220.0	225.0	230.0	235.0	240.0	245.0	250.0	255.0	260.0	265.0	270.0	275.0	280.0	285.0	290.0	295.0	300.0	305.0	310.0	315.0	320.0	325.0	330.0	335.0	340.0	345.0	350.0	355.0	360.0	365.0	370.0	375.0	380.0	385.0	390.0	395.0	400.0	405.0	410.0	415.0	420.0	425.0	430.0	435.0	440.0	445.0	450.0	455.0	460.0	465.0	470.0	475.0	480.0	485.0	490.0	495.0	500.0	505.0	510.0	515.0	520.0	525.0	530.0	535.0	540.0	545.0	550.0	555.0	560.0	565.0	570.0	575.0	580.0	585.0	590.0	595.0	600.0
230.0	27.38	345.8	1300	520.2	28.77	5.434	4.885	3.798	3.341	3.041	2.607	2.404	2.221	1.979	1.465	1.322	1.141	1.181	1.040	0.896	0.827	0.845	0.789	0.703	0.661	0.662	0.610	0.561	0.499	0.515	0.527	0.507	0.443	0.419	0.383	0.366	0.358	0.340	0.309	0.329	0.341	0.351	0.424	0.391	0.324	0.286	0.614	2.569	5.633	5.135	2.184	0.557	0.251	0.263	0.260	0.261	0.251	0.259	0.271	0.268	0.275	0.253	0.246	0.313	0.259	0.237	0.243	0.265	0.257	0.279	0.269	0.256	0.262	0.279	0.271	0.288	0.284
235.0	72.57	105.6	644.3	1414	430.2	46.57	5.338	4.404	3.941	3.459	2.950	2.373	2.606	2.041	1.427	1.396	1.289	1.169	1.030	1.096	0.908	0.897	0.756	0.737	0.608	0.691	0.682	0.633	0.507	0.660	0.462	0.518	0.479	0.444	0.427	0.307	0.379	0.332	0.353	0.358	0.340	0.352	0.443	0.413	0.455	0.395	0.390	0.804	2.059	4.095	5.863	6.567	3.874	0.865	0.317	0.273	0.248	0.237	0.257	0.258	0.240	0.390	0.198	0.313	0.197	0.281	0.264	0.220	0.246	0.240	0.251	0.280	0.303	0.293	0.287	0.328	0.286
240.0	86.08	83.47	176.3	929.1	1689	356.8	21.36	5.589	3.781	3.217	3.219	3.108	2.519	1.819	1.503	1.507	1.177	1.223	1.294	0.941	0.963	0.783	0.967	0.784	0.644	0.673	0.603	0.601	0.497	0.597	0.572	0.490	0.544	0.474	0.475	0.336	0.376	0.342	0.307	0.376	0.291	0.311	0.389	0.368	0.498	0.632	0.468	0.481	0.712	1.318	2.976	6.949	9.970	7.077	2.912	0.557	0.295	0.259	0.235	0.264	0.280	0.324	0.294	0.259	0.181	0.248	0.264	0.316	0.216	0.274	0.324	0.246	0.285	0.246	0.320	0.279	0.305
245.0	54.70	132.1	96.94	269.3	1340	1816	265.4	10.43	4.154	3.496	3.219	3.109	2.476	2.010	1.703	1.490	1.189	1.175	1.071	0.875	0.991	0.853	0.821	0.734	0.686	0.637	0.770	0.555	0.534	0.597	0.527	0.499	0.536	0.409	0.428	0.312	0.401	0.325	0.303	0.369	0.285	0.289	0.373	0.323	0.446	0.451	0.595	0.648	0.460	0.543	0.926	2.384	6.179	10.82	10.99	5.731	1.749	0.323	0.279	0.278	0.274	0.276	0.244	0.249	0.249	0.266	0.270	0.294	0.254	0.249	0.320	0.226	0.304	0.244	0.242	0.302	0.290
250.0	26.66	76.57	150.3	137.3	380.1	1261	1902	885.6	64.42	4.528	3.980	2.881	2.875	2.426	1.993	1.541	1.336	1.240	1.033	0.968	0.900	0.950	0.812	0.820	0.727	0.706	0.641	0.494	0.657	0.609	0.578	0.569	0.497	0.380	0.471	0.386	0.390	0.360	0.344	0.344	0.331	0.315	0.345	0.297	0.343	0.316	0.400	0.612	0.718	0.754	0.574	0.791	1.668	3.539	6.442	9.390	11.40	9.762	5.994	1.877	0.398	0.280	0.273	0.246	0.241	0.282	0.306	0.223	0.280	0.235	0.326	0.285	0.311	0.273	0.246	0.309	0.299
255.0	18.88	28.52	88.89	202.6	167.5	305.0	1021	2626	1227	70.10	4.958	3.633	3.062	2.634	2.341	1.671	1.563	1.468	1.104	1.038	1.011	0.958	0.878	0.864	0.799	0.662	0.651	0.632	0.688	0.598	0.593	0.476	0.608	0.494	0.436	0.471	0.351	0.318	0.384	0.315	0.362	0.348	0.421	0.282	0.332	0.350	0.338	0.352	0.386	0.660	0.879	1.167	0.870	1.042	1.705	2.391	4.510	10.25	18.16	17.38	7.998	1.740	0.336	0.330	0.377	0.289	0.255	0.258	0.232	0.283	0.298	0.278	0.273	0.291	0.247	0.261	0.318
260.0	17.40	16.47	35.19	148.7	220.0	116.6	268.8	1619	2878	924.0	30.55	4.318	3.323	2.559	2.509	1.602	1.620	1.293	1.230	1.262	1.095	0.939	0.869	0.935	0.760	0.758	0.672	0.681	0.691	0.625	0.488	0.524	0.513	0.584	0.402	0.390	0.411	0.313	0.453	0.436	0.385	0.363	0.393	0.303	0.396	0.332	0.341	0.327	0.212	0.348	0.613	1.146	1.436	0.902	0.692	0.767	1.331	2.897	8.492	17.59	21.81	15.45	5.413	0.767	0.393	0.282	0.255	0.311	0.282	0.256	0.315	0.297	0.287	0.275	0.275	0.275	0.310
265.0	15.64	14.39	17.54	57.96	215.1	180.9	86.28	458.2	2189	3067	181.6	12.43	4.592	3.296	2.415	2.036	2.017	1.429	1.542	1.181	1.134	0.976	0.834	0.833	0.836	0.757	0.647	0.743	0.696	0.642	0.553	0.548	0.556	0.553	0.392	0.398	0.359	0.389	0.469	0.389	0.308	0.339	0.337	0.306	0.314	0.344	0.294	0.258	0.227	0.313	0.282	0.630	1.079	1.479	1.115	0.606	0.624	0.894	2.244	5.552	12.67	22.52	23.66	12.51	2.874	0.449	0.327	0.331	0.306	0.231	0.301	0.301	0.310	0.260	0.273	0.264	0.285
270.0	18.79	16.22	13.47	19.75	85.14	213.3	191.0	138.4	611.3	2159	3065	676.0	48.52	4.509	2.974	2.313	2.104	1.544	1.469	1.194	1.209	1.129	0.997	0.851	0.884	0.776	0.717	0.691	0.715	0.669	0.583	0.596	0.569	0.494	0.449	0.412	0.383	0.394	0.358	0.341	0.315	0.330	0.328	0.328	0.388	0.308	0.264	0.293	0.290	0.246	0.212	0.338	0.513	0.843	1.242	1.487	1.211	0.801	0.806	1.595	3.235	7.065	13.06	19.29	22.15	16.93	9.291	2.421	0.429	0.297	0.310	0.323	0.303	0.256	0.262	0.294	0.308
275.0	25.82	20.52	15.08	13.34	26.42	77.90	267.8	225.1	167.7	520.6	1708	4150	973.8	50.24	4.318	2.877	2.658	1.760	1.366	1.342	1.182	1.193	1.005	0.903	0.808	0.762	0.708	0.713	0.681	0.580	0.590	0.633	0.557	0.573	0.433	0.492	0.431	0.441	0.380	0.363	0.346	0.344	0.295	0.392	0.359	0.342	0.289	0.336	0.332	0.265	0.254	0.261	0.301	0.399	0.485	0.733	1.556	1.912	1.388	0.854	1.017	1.891	3.244	4.744	7.875	17.81	31.39	24.89	11.98	2.162	0.401	0.459	0.290	0.277	0.368	0.274	0.284
280.0	28.59	32.93	21.50	14.65	17.58	29.40	144.3	347.6	161.8	149.8	467.8	2720	4513	672.6	20.10	3.839	2.970	2.069	1.494	1.453	1.369	1.176	0.939	0.849	0.948	0.843	0.749	0.708	0.641	0.596	0.632	0.683	0.621	0.562	0.427	0.504	0.433	0.476	0.425	0.374	0.360	0.315	0.326	0.304	0.350	0.311	0.358	0.383	0.349	0.273	0.240	0.289	0.282	0.319	0.361	0.400	0.727	1.494	2.088	1.791	1.031	0.745	0.995	1.424	2.142	4.843	13.38	28.00	37.27	22.02	6.666	0.874	0.340	0.391	0.358	0.307	0.306
285.0	48.70	61.35	46.99	27.66	19.02	18.64	55.21	269.0	351.1	124.9	174.7	825.4	3743	3918	101.8	8.828	3.389	2.667	2.098	1.599	1.390	1.239	1.162	0.886	0.991	0.792	0.778	0.776	0.717	0.711	0.572	0.643	0.655	0.576	0.492	0.463	0.444	0.457	0.431	0.425	0.405	0.312	0.319	0.394	0.372	0.334	0.490	0.491	0.435	0.350	0.273	0.287	0.345	0.302	0.362	0.307	0.420	0.724	1.337	2.289	2.174	1.167	0.677	0.725	0.938	1.557	3.566	8.379	20.80	36.53	28.60	16.32	3.062	0.464	0.374	0.351	0.334
290.0	102.5	130.9	112.3	62.86	34.47	28.25	45.10	124.9	342.5	380.9	280.2	389.2	1179	3105	3531	374.6	27.27	3.546	2.638	1.913	1.584	1.409	1.244	1.024	1.081	0.844	0.913	0.818	0.774	0.589	0.622	0.572	0.653	0.627	0.634	0.567	0.499	0.501	0.431	0.403	0.416	0.372	0.412	0.423	0.481	0.575	0.572	0.578	0.573	0.444	0.364	0.373	0.388	0.327	0.421	0.351	0.394	0.506	0.704	1.184	1.869	2.499	2.447	1.828	1.376	1.385	1.750	2.965	5.802	11.20	17.83	28.24	28.75	25.84	10.98	2.828	0.539
295.0	158.5	213.9	194.6	107.5	57.01	47.86	59.13	106.8	219.5	514.4	704.5	492.0	586.7	888.5	2014	4502	549.7	29.82	3.725	2.668	2.043	1.733	1.392	1.073	1.216	0.950	1.046	0.924	0.915	0.696	0.696	0.604	0.771	0.653	0.667	0.697	0.601	0.477	0.539	0.447	0.418	0.502	0.446	0.538	0.652	0.701	0.786	0.826	0.933	0.617	0.552	0.474	0.447	0.374	0.400	0.364	0.495	0.607	0.636	0.832	1.124	1.527	2.504	3.681	3.920	2.417	2.291	2.417	2.909	3.974	5.224	7.353	9.562	23.13	41.16	28.74	15.97
300.0	199.4	282.4	241.8	136.7	72.42	62.31	74.12	125.8	212.3	422.8	897.1	758.7	540.2	420.9	569.9	2939	4401	409.4	12.34	3.245	2.391	1.877	1.731	1.286	1.034	1.126	0.912	0.820	0.935	0.827	0.721	0.715	0.731	0.596	0.590	0.710	0.614	0.604	0.495	0.522	0.437	0.513	0.468	0.642	0.693	0.763	0.870	0.940	0.989	0.732	0.604	0.586	0.485	0.514	0.576	0.489	0.550	0.594	0.765	0.801	1.063	1.239	1.849	2.740	4.150	4.695	3.625	2.801	2.592	2.456	2.608	2.569	2.818	6.140	15.77	34.50	49.55
305.0	224.9	312.7	276.2	156.1	84.35	67.71	90.01	140.7	230.7	398.4	745.5	1050	649.1	344.3	214.0	808.4	3728	3634	63.54	5.423	3.133	2.150	1.738	1.409	1.377	1.209	0.999	1.079	0.878	0.935	0.832	0.747	0.668	0.623	0.621	0.648	0.683	0.616	0.595	0.541	0.590	0.575	0.568	0.520	0.720	0.806	0.844	1.073	1.085	0.744	0.602	0.619	0.533	0.464	0.524	0.501	0.596	0.593	0.730	0.833	1.092	1.307	1.781	2.329	3.229	4.251	5.246	4.504	3.144	2.523	2.171	1.509	1.396	1.846	4.130	9.604	24.44
310.0	240.7	322.8	281.5	162.1	93.91	75.91	98.08	149.0	241.1	391.7	605.7	886.8	909.9	422.8	147.4	223.7	990.4	2884	3365	950.2	19.64	3.210	2.221	1.785	1.541	1.371	1.119	1.035	0.863	0.908	0.749	0.742	0.716	0.686	0.640	0.710	0.737	0.608	0.653	0.584	0.571	0.569	0.600	0.628	0.682	0.796	0.948	1.127	1.101	0.798	0.684	0.650	0.590	0.513	0.598	0.552	0.618	0.666	0.774	1.007	1.209	1.363	1.736	2.211	2.645	2.911	3.767	4.545	4.800	4.059	2.670	1.706	1.029	1.041	1.445	2.599	5.999
315.0	230.1	307.8	275.6	163.8	96.35	82.99	101.5	148.3	232.3	367.7	532.1	661.9	748.3	658.5	195.4	103.7	255.2	677.8	1843	4236	403.1	20.69	3.093	2.229	1.676	1.399	1.298	1.061	0.983	0.934	0.930	0.871	0.678	0.690	0.690	0.684	0.713	0.569	0.599	0.560	0.547	0.504	0.618	0.695	0.628	0.949	0.891	1.118	1.030	0.881	0.651	0.733	0.561	0.500	0.539	0.529	0.640	0.736	0.850	0.963	1.083	1.435	1.712	1.870	2.288	2.594	2.790	3.194	3.409	4.063	4.109	2.742	1.565	0.932	0.875	1.076	1.802
320.0	202.9	288.0	263.7	158.3	96.03	86.50	102.1	147.4	226.1	346.9	479.3	572.6	566.8	610.3	370.3	97.73	97.46	178.4	469.3	2613	3402	315.8	9.665	2.836	2.073	1.688	1.360	1.206	1.035	1.005	0.925	0.850	0.766	0.715	0.691	0.732	0.710	0.589	0.602	0.550	0.535	0.522	0.568	0.664	0.711	0.986	0.909	1.093	0.925	0.895	0.692	0.651	0.541	0.500	0.535	0.586	0.719	0.763	0.765	0.993	1.054	1.291	1.511	1.944	2.074	2.279	2.467	2.848	2.886	2.762	3.209	3.703	2.940	1.480	0.948	0.735	0.894
325.0	195.1	271.4	257.3	165.6	101.0	88.61	105.4	147.9	214.1	326.5	435.5	511.3	486.3	419.4	473.4	202.8	73.39	73.52	129.1	695.5	3060	2935	49.63	4.910	2.379	2.063	1.391	1.372	1.192	1.082	0.889	0.817	0.796	0.802	0.707	0.783	0.683	0.515	0.603	0.564	0.590	0.549	0.564	0.518	0.730	0.816	0.890	1.015	0.986	0.889	0.704	0.634	0.599	0.510	0.552	0.576	0.754	0.728	0.833	0.984	1.141	1.334	1.523	1.804	1.969	2.189	2.257	2.368	2.498	2.378	2.105	2.407	3.240	3.298	1.786	1.091	0.798
330.0	183.5	265.3	260.2	173.0	119.5	105.6	117.4	149.6	203.3	289.3	388.3	445.3	420.4	317.9	304.0	339.3	168.8	67.60	63.53	180.7	809.7	2403	2894	888.6	16.76	2.706	1.836	1.551	1.311	1.031	1.025	0.819	0.831	0.783	0.734	0.787	0.683	0.565	0.606	0.562	0.556	0.526	0.571	0.573	0.695	0.734	0.809	1.007	1.041	0.903	0.714	0.684	0.660	0.582	0.612	0.623	0.756	0.746	0.825	1.016	1.115	1.215	1.469	1.611	1.725	1.971	2.167	2.167	2.150	2.106	1.835	1.628	1.792	2.168	2.360	2.574	1.907
335.0	168.1	254.4	261.6	186.4	145.8	125.8	136.7	157.4	199.4	269.8	343.0	390.5	377.8	286.3	216.7	226.7	323.2	163.5	64.40	77.76	208.2	566.9	1550	3734	353.1	19.69	2.635	1.880	1.628	1.213	1.179	0.896	0.907	0.770	0.708	0.670	0.725	0.589	0.546	0.504	0.578	0.475	0.564	0.616	0.751	0.859	0.844	1.073	1.023	0.981	0.729	0.913	0.783	0.677	0.866	0.687	0.737	0.846	0.987	0.993	1.009	1.165	1.379	1.439	1.582	1.634	1.819	1.928	2.037	1.954	1.675	1.483	1.473	1.545	1.482	1.899	2.639
340.0	155.5	245.6	259.3	203.7	164.2	154.9	157.3	170.5	197.7	256.7	318.2	362.3	349.5	276.2	203.0	176.9	258.4	296.7	107.2	65.87	83.69	154.5	397.7	2228	2909	300.7	10.12	2.488	1.919	1.459	1.208	0.978	1.009	0.804	0.710	0.620	0.708	0.604	0.486	0.558	0.507	0.546	0.552	0.614	0.707	0.859	0.779	1.032	0.982	0.944	0.777	0.881	0.869	0.810	0.805	0.824	0.751	0.946	0.963	1.002	0.964	1.184	1.307	1.681	1.415	1.575	1.637	1.772	1.854	1.847	1.619	1.549	1.381	1.470	1.370	1.349	1.625
345.0	161.0	241.3	253.8	220.7	189.7	177.3	176.2	183.2	202.4	250.0	303.5	336.7	331.9	272.2	207.0	175.6	182.5	296.7	216.4	85.53	66.46	73.60	118.5	593.6	2529	2630	44.56	4.953	2.613	1.647	1.319	1.155	1.050	0.839	0.706	0.691	0.643	0.573	0.455	0.525	0.503	0.527	0.517	0.611	0.719	0.832	0.844	0.962	1.015	0.950	0.857	0.905	0.956	0.948	0.891	0.941	0.806	0.944	1.126	1.079	1.010	1.227	1.326	1.419	1.374	1.599	1.602	1.608	1.763	1.740	1.571	1.429	1.425	1.369	1.367	1.278	1.393
350.0	156.1	231.0	259.8	244.1	218.4	208.6	201.4	199.9	218.2	248.8	291.4	316.6	313.2	272.0	224.9	191.1	174.1	202.4	266.4	201.3	98.13	73.63	73.16	167.9	671.4	1938	2467	835.2	16.48	2.591	1.634	1.400	1.051	0.890	0.735	0.723	0.617	0.591	0.552	0.507	0.497	0.569	0.531	0.540	0.717	0.811	0.814	0.964	0.994	0.931	0.921	1.030	1.046	1.128	1.030	1.003	1.084	1.080	1.138	1.187	1.169	1.280	1.350	1.336	1.412	1.483	1.570	1.614	1.714	1.685	1.648	1.558	1.515	1.425	1.433	1.429	1.464
355.0	160.0	231.5	273.6	262.8	256.0	243.7	235.0	228.6	233.1	262.1	287.4	312.1	306.8	277.4	242.6	211.3	193.9	186.9	198.5	263.1	205.8	104.9	84.81	90.23	189.9	464.3	1180	3002	333.3	20.04	2.551	1.733	1.227	0.927	0.920	0.687	0.751	0.642	0.532	0.502	0.494	0.619	0.603	0.602	0.657	0.729	0.801	0.989	0.993	0.982	0.956	1.199	1.085	1.240	1.258	1.080	1.165	1.263	1.166	1.304	1.303	1.360	1.276	1.366	1.420	1.587	1.637	1.561	1.604	1.824	1.563	1.596	1.710	1.467	1.441	1.471	1.672
360.0	167.8	239.9	276.3	277.4	285.9	273.0	264.9	258.0	257.3	270.9	292.4	307.7	304.0	282.5	255.8	227.3	212.7	200.2	189.4	222.1	280.6	166.5	105.9	90.58	95.60	141.1	305.2	1629	2682	297.9	11.10	2.326	1.449	1.036	0.969	0.895	0.804	0.593	0.579	0.572	0.551	0.632	0.629	0.679	0.672	0.833	0.834	0.993	1.078	1.028	1.030	1.324	1.263	1.287	1.387	1.307	1.351	1.381	1.155	1.320	1.484	1.429	1.404	1.409	1.457	1.642	1.447	1.764	1.695	1.670	1.483	1.700	1.643	1.616	1.559	1.599	1.727
365.0	157.1	236.8	290.7	299.9	301.5	301.0	292.9	284.1	273.1	286.8	302.1	314.9	307.3	290.9	270.4	245.2	229.2	217.3	204.7	201.4	261.6	257.4	144.4	106.9	88.09	81.09	103.6	429.9	1976	2510	235.4	5.560	1.907	1.376	1.107	0.893	0.743	0.680	0.602	0.638	0.635	0.606	0.629	0.643	0.713	0.811	0.801	1.013	1.076	1.006	1.066	1.197	1.370	1.396	1.404	1.353	1.469	1.400	1.374	1.216	1.445	1.499	1.416	1.386	1.594	1.596	1.505	1.622	1.762	1.817	1.738	1.758	1.591	1.599	1.756	1.636	1.737
370.0	164.8	247.3	290.4	317.9	327.3	332.4	327.3	314.4	299.8	304.9	320.7	321.9	318.7	302.3	284.3	267.2	254.2	243.9	232.1	220.7	230.0	267.0	243.5	154.0	111.0	88.72	75.02	131.9	516.1	1613	2219	837.3	16.17	2.144	1.378	0.991	0.825	0.747	0.628	0.670	0.683	0.570	0.639	0.675	0.772	0.838	0.844	1.080	1.109	1.058	1.166	1.301	1.499	1.454	1.538	1.392	1.470	1.473	1.449	1.569	1.451	1.598	1.525	1.527	1.683	1.521	1.612	1.681	1.778	1.675	1.835	1.767	1.718	1.814	1.736	1.733	1.920
375.0	172.8	251.8	314.4	339.0	356.6	359.7	352.6	334.9	325.6	323.6	340.3	340.2	332.9	323.6	302.9	289.6	277.2	270.8	259.1	250.8	238.2	237.7	270.4	250.5	154.2	112.7	86.86	81.85	152.1	387.5	911.9	2532	1174	20.53	2.046	1.205	1.028	0.796	0.696	0.753	0.609	0.736	0.683	0.649	0.712	0.839	0.908	1.112	1.239	1.157	1.149	1.500	1.597	1.527	1.705	1.542	1.615	1.562	1.566	1.609	1.557	1.683	1.553	1.695	1.691	1.624	1.690	1.817	1.781	1.810	1.931	1.843	1.841	1.878	1.903	1.949	1.929
380.0	177.8	252.2	322.1	353.5	376.7	387.5	369.3	360.6	348.9	348.3	348.7	352.6	343.9	328.0	311.5	300.3	292.8	286.7	277.0	265.9	254.1	243.7	247.2	292.0	217.2	137.5	105.1	82.76	82.18	120.7	233.9	1221	2506	274.7	12.79	1.929	1.269	0.967	0.699	0.797	0.652	0.778	0.689	0.725	0.668	0.930	0.938	1.022	1.146	1.223	1.131	1.448	1.633	1.552	1.740	1.716	1.632	1.755	1.575	1.547	1.727	1.716	1.691	1.678	1.728	1.678	1.741	1.774	1.818	1.817	1.763	1.934	1.922	1.969	2.081	1.917	2.121
385.0	184.4	262.1	338.0	367.8	391.8	398.1	390.8	371.5	362.5	361.9	365.4	359.2	353.2	338.3	323.1	309.1	305.1	300.6	292.9	281.8	269.6	255.7	244.9	267.9	270.7	180.3	124.4	95.83	78.70	70.78	82.08	315.4	1458	2090	219.1	5.794	1.623	1.173	0.825	0.767	0.731	0.802	0.777	0.765	0.733	0.906	0.969	1.044	1.147	1.181	1.254	1.619	1.714	1.665	1.664	1.724	1.854	1.746	1.732	1.641	1.763	1.774	1.806	1.830	1.853	1.923	1.800	1.836	1.819	1.994	1.934	1.954	1.941	1.999	2.199	1.937	2.061
390.0	190.8	273.5	352.4	378.4	401.1	411.3	409.2	401.4	388.1	378.6	380.2	373.4	363.9	350.6	334.8	322.4	318.1	313.4	306.8	296.6	287.8	274.4	259.4	251.9	259.8	245.4	170.5	120.9	96.53	77.20	61.56	100.4	369.0	1115	1598	668.1	14.69	1.824	1.038	0.939	0.817	0.787	0.763	0.826	0.863	0.906	0.998	1.191	1.291	1.237	1.285	1.636	1.665	1.688	1.790	1.700	1.896	1.820	1.876	1.846	1.798	1.886	2.004	1.854	1.864	1.891	1.907	1.759	1.912	1.938	1.929	2.032	2.031	2.120	2.101	2.159	2.186
395.0	196.8	288.7	363.4	392.6	420.5	424.5	426.0	417.3	401.5	398.0	391.0	380.3	374.3	359.6	344.3	329.8	326.3	321.8	318.8	310.6	299.5	288.1	275.2	257.2	244.5	246.5	240.7	160.9	121.5	96.05	73.35	64.81	110.8	268.4	566.0	1672	975.6	19.85	1.714	1.240	1.061	0.907	0.784	0.772	0.938	1.004	1.059	1.186	1.313	1.327	1.343	1.549	1.842	1.746	1.863	1.868	1.886	1.931	1.900	1.909	1.892	1.971	2.043	1.835	1.987	1.924	1.903	1.946	1.941	1.896	2.012	2.021	2.158	2.089	2.153	2.080	2.000
400.0	206.8	305.6	381.6	406.0	426.8	435.8	444.4	423.5	417.4	410.7	404.8	391.3	382.5	365.8	346.1	331.3	326.3	325.7	320.8	317.2	308.6	298.2	283.8	266.9	249.1	235.7	252.5	214.2	145.2	113.6	88.10	67.17	61.05	85.26	146.0	706.2	1761	243.2	12.42	1.689	1.165	0.885	0.944	0.972	0.955	0.970	1.154	1.289	1.291	1.290	1.415	1.614	1.766	1.753	1.834	1.776	1.938	2.052	1.995	2.007	2.003	1.945	2.116	1.982	2.167	1.988	1.846	1.898	2.126	1.966	1.961	1.970	2.062	1.954	2.170	2.096	2.210
405.0	205.6	298.4	377.7	400.9	418.2	440.6	446.6	434.7	424.8	417.4	408.4	393.5	383.7	365.3	348.7	332.0	328.4	325.6	324.0	319.0	312.3	302.6	290.5	272.9	255.5	234.5	232.1	244.7	181.6	129.8	101.9	76.32	59.22	50.60	54.40	180.0	874.0	1503	202.4	6.296	1.577	1.065	1.000	0.845	0.981	1.005	1.177	1.341	1.339	1.363	1.430	1.652	1.742	1.751	1.849	1.757	2.010	1.963	2.061	1.905	2.157	2.082	1.958	2.004	2.062	2.022	1.882	1.930	2.107	2.001	1.991	1.980	1.918	1.967	1.978	2.163	2.387
410.0	210.6	299.5	367.5	408.1	424.5	435.8	445.8	443.6	429.2	424.3	416.3	405.9	385.3	368.7	345.7	334.0	325.3	321.8	319.6	315.9	309.6	301.4	292.8	277.6	264.1	241.1	225.1	226.4	222.9	168.8	120.7	92.18	69.11	52.52	40.97	60.96	218.2	709.4	1114	529.9	14.95	1.552	1.183	0.951	0.964	0.944	1.124	1.340	1.367	1.375	1.349	1.603	1.777	1.684	1.875	1.870	2.044	1.942	2.015	1.950	2.169	2.077	1.936	1.996	2.010	2.010	1.943	2.018	1.995	2.026	1.948	2.068	2.078	2.002	2.020	2.206	2.304
415.0	210.1	291.0	363.5	419.0	426.4	436.2	445.3	447.7	436.3	425.3	422.7	403.6	383.7	359.5	341.2	323.9	317.9	314.0	313.3	312.0	301.3	296.3	289.2	276.4	266.1	245.5	228.1	214.5	212.0	211.8	154.6	109.3	83.01	61.66	46.38	40.41	67.53	171.3	357.0	1096	919.6	19.63	1.816	1.172	1.021	1.162	1.130	1.306	1.327	1.380	1.300	1.642	1.741	1.749	1.919	1.931	2.189	1.918	2.008	2.027	2.147	2.197	2.069	2.071	2.028	1.917	2.022	2.027	1.936	1.993	2.040	2.130	2.009	1.964	2.176	2.152	2.238
420.0	211.7	287.1	356.5	405.3	428.0	425.3	444.6	448.7	437.3	431.7	418.6	405.0	387.0	357.8	335.7	318.4	310.4	308.8	304.1	301.2	295.2	287.3	286.6	273.7	264.7	247.8	228.6	212.1	199.1	209.9	187.0	124.8	92.43	69.39	52.63	40.14	37.37	53.58	91.68	419.0	1436	228.4	13.12	1.730	1.340	1.173	1.274	1.206	1.238	1.296	1.310	1.659	1.718	1.873	1.951	1.711	1.967	1.938	2.128	2.048	2.150	2.135	2.050	2.041	1.980	1.939	1.971	1.950	1.998	2.079	1.945	2.104	1.944	1.978	2.183	2.354	2.320
425.0	201.1	289.2	360.1	396.0	414.7	432.2	438.0	447.0	439.5	434.1	420.3	401.9	377.3	352.7	329.9	308.8	303.4	299.0	295.4	294.1	286.0	284.2	282.4	272.3	260.9	246.9	230.4	214.2	197.9	192.1	196.3	151.3	103.2	77.99	59.55	44.61	34.97	30.65	34.00	106.3	644.5	1096	197.5	7.158	1.501	1.228	1.307	1.356	1.334	1.256	1.305	1.622	1.791	1.847	1.841	1.671	1.957	1.889	2.096	2.102	1.949	2.126	1.999	2.027	1.916	1.882	1.889	1.903	1.999	1.959	1.908	1.891	2.018	1.974	2.036	2.310	2.162
430.0	243.2	283.7	340.9	391.0	407.7	421.4	436.0	438.6	440.9	431.3	422.3	399.0	375.1	345.7	322.1	300.3	292.7	288.0	285.5	280.7	280.0	273.7	272.8	264.6	255.9	243.7	231.5	216.1	201.9	187.9	180.5	171.3	129.9	90.89	69.28	52.82	40.36	31.31	25.05	37.03	158.8	468.8	828.8	507.6	13.82	1.884	1.446	1.344	1.421	1.326	1.366	1.587	1.683	1.778	1.823	1.821	1.960	2.009	2.076	2.082	2.133	2.015	2.013	2.057	2.069	1.846	1.943	1.897	1.791	1.910	1.914	1.873	1.852	1.838	1.885	2.063	2.175
435.0	380.6	277.5	341.0	384.5	405.4	415.0	432.3	439.7	434.8	432.8	420.9	401.2	372.4	341.1	318.8	289.8	281.2	275.2	277.6	271.0	267.4	265.4	263.7	255.6	248.3	239.4	226.7	216.8	204.4	188.2	171.6	160.2	153.1	112.2	80.03	60.48	47.99	37.24	28.07	25.84	48.09	114.3	250.6	879.2	709.4	19.25	1.962	1.633	1.319	1.361	1.368	1.609	1.583	1.830	1.982	1.843	2.026	1.908	1.956	2.112	2.143	2.087	2.035	1.977	2.071	2.108	1.913	1.930	1.932	1.990	1.946	1.971	1.803	1.869	1.981	2.138	2.098
440.0	468.2	326.6	334.6	373.9	392.5	419.9	425.7	428.5	433.4	434.8	422.6	391.9	365.1	336.8	308.4	289.7	276.3	267.6	267.8	261.9	258.7	256.8	255.1	249.6	243.8	234.8	222.7	213.3	204.9	188.5	172.2	154.1	147.6	132.3	91.17	67.36	53.47	42.34	32.94	25.93	25.85	36.48	65.02	325.2	1051	213.1	11.80	1.999	1.626	1.417	1.401	1.547	1.719	1.748	1.860	1.689	1.969	1.907	1.891	1.971	2.169	2.156	1.956	1.947	1.947	2.064	1.919	1.880	1.818	1.814	1.968	1.912	1.886	1.967	1.998	1.892	1.954
445.0	447.4	502.9	326.0	364.1	378.0	399.7	411.7	423.8	424.2	422.9	407.0	393.3	362.2	330.8	301.7	280.0	268.2	261.3	256.1	251.0	247.9	246.1	246.3	242.7	237.1	228.5	218.6	209.8	201.1	189.8	173.0	152.3	136.8	135.6	107.4	74.48	57.84	46.00	35.97	29.31	23.55	21.77	24.86	82.70	455.0	974.1	167.0	6.958	1.863	1.630	1.346	1.671	1.656	1.565	1.846	1.768	1.816	1.951	1.819	2.035	1.934	2.018	2.022	1.749	1.952	1.952	1.854	1.834	1.915	1.783	2.034	1.852	1.916	1.909	1.856	1.811	1.957
450.0	289.4	736.9	454.3	343.9	368.9	381.4	400.8	407.1	410.5	409.1	405.1	376.8	345.7	316.7	287.7	264.0	251.5	245.0	240.1	235.9	233.0	230.9	229.3	227.8	223.0	214.5	208.5	201.3	194.8	183.7	169.8	149.6	132.1	121.2	115.2	89.80	65.69	50.66	40.59	32.99	26.47	21.17	18.33	28.25	112.1	413.4	726.3	415.8	11.67	1.838	1.484	1.557	1.600	1.601	1.722	1.741	1.798	1.844	1.959	1.922	2.001	2.006	1.956	1.806	1.927	1.809	1.847	1.830	1.877	1.704	1.836	1.711	1.737	1.748	1.743	1.909	1.838
455.0	196.8	618.7	812.0	351.3	340.8	358.7	376.0	382.1	390.4	388.4	387.5	362.6	332.2	297.6	269.0	247.3	236.2	229.0	223.3	217.4	215.2	211.2	212.8	210.3	207.2	200.7	194.8	190.2	184.7	178.4	164.8	147.2	128.2	112.5	103.5	100.8	77.32	55.62	44.22	37.01	29.96	24.34	19.67	18.09	34.23	99.07	219.3	707.1	500.9	13.69	1.808	1.653	1.642	1.488	1.657	1.693	1.711	1.692	1.833	2.032	1.868	1.845	1.790	1.797	1.802	1.867	1.861	1.691	1.899	1.744	1.674	1.636	1.668	1.780	1.692	1.817	1.901
460.0	164.7	376.1	1067	483.0	330.9	339.9	354.8	366.8	370.3	376.2	366.8	349.2	320.1	287.4	253.2	237.0	224.7	212.7	207.3	202.4	202.6	199.1	200.0	196.7	195.4	187.8	183.3	180.8	175.6	170.0	157.8	143.2	123.7	108.4	94.97	93.53	86.11	61.23	47.52	38.76	31.37	25.69	21.22	16.61	18.07	30.15	55.47	264.7	776.0	160.4	8.521	1.991	1.727	1.425	1.748	1.540	1.703	1.627	1.792	1.735	1.789	1.829	1.933	1.931	1.707	1.802	1.809	1.604	1.691	1.538	1.653	1.636	1.612	1.649	1.544	1.848	1.883
465.0	163.0	248.5	943.7	675.0	320.4	321.0	333.9	348.4	353.4	354.4	357.1	329.4	304.9	271.2	244.6	224.2	210.4	201.6	194.5	190.3	188.9	186.7	185.3	184.1	183.0	176.7	172.0	170.4	168.6	159.0	152.7	138.4	121.0	105.3	92.12	84.52	85.42	69.76	49.82	39.77	33.16	27.72	22.51	17.80	15.24	15.77	19.30	66.22	357.7	679.8	126.9	4.284	1.802	1.529	1.687	1.579	1.524	1.628	1.768	1.648	1.831	1.822	1.864	1.856	1.843	1.837	1.731	1.499	1.558	1.644	1.555	1.459	1.489	1.696	1.500	1.629	1.736
470.0	152.4	200.7	514.2	1087	518.6	298.1	313.8	322.2	334.0	333.0	326.9	305.4	282.4	251.4	226.2	206.7	193.2	184.0	178.0	172.8	169.0	168.9	168.0	165.2	164.1	161.0	157.1	154.8	153.9	148.4	141.3	128.3	114.3	99.99	88.72	77.66	74.03	70.94	57.01	42.22	34.73	28.59	23.69	19.60	16.31	13.50	12.13	21.13	88.00	309.9	492.8	242.3	10.33	1.817	1.668	1.534	1.558	1.500	1.532	1.598	1.575	1.625	1.641	1.606	1.642	1.561	1.598	1.442	1.602	1.519	1.496	1.458	1.384	1.540	1.394	1.398	1.440
475.0	166.6	188.9	282.0	798.8	1004	310.5	289.1	297.9	305.5	308.4	303.1	281.6	262.4	234.8	207.3	187.8	174.8	166.8	160.5	157.4	150.9	150.4	149.6	148.7	147.7	143.6	142.4	140.7	139.6	136.6	129.7	119.8	105.8	94.67	83.35	72.63	66.19	62.38	60.71	47.86	35.51	29.20	24.73	21.24	17.83	14.55	11.60	12.02	25.22	73.78	154.3	473.4	180.9	12.73	1.750	1.556	1.554	1.475	1.529	1.488	1.526	1.638	1.642	1.310	1.471	1.383	1.457	1.434	1.415	1.381	1.505	1.369	1.440	1.472	1.452	1.341	1.388
480.0	155.3	185.1	222.9	447.8	1240	427.3	271.5	279.3	285.2	284.7	290.4	271.8	248.9	220.1	194.9	177.5	163.6	156.8	148.9	145.8	141.9	139.8	137.3	137.4	135.8	134.2	132.8	130.8	131.1	129.0	120.4	112.4	100.0	90.81	80.42	70.69	63.23	56.79	57.62	51.88	39.17	30.10	25.28	22.02	17.97	15.85	12.14	10.35	11.88	21.13	39.00	185.9	539.4	159.6	6.229	1.691	1.549	1.529	1.540	1.548	1.460	1.505	1.531	1.447	1.397	1.360	1.394	1.274	1.322	1.420	1.354	1.419	1.502	1.253	1.291	1.246	1.349
485.0	135.2	194.3	199.7	280.9	1015	802.8	263.3	263.7	273.1	273.3	275.4	259.1	239.7	211.4	187.6	167.4	156.5	147.0	140.2	137.0	131.5	131.2	128.4	128.9	128.4	126.3	124.4	121.2	123.1	119.4	115.9	106.8	96.89	86.22	77.51	68.34	61.23	53.58	51.67	52.41	43.96	31.85	26.48	22.45	19.27	16.23	13.42	10.71	9.314	9.916	13.14	46.90	289.3	545.6	111.7	2.795	1.577	1.592	1.510	1.480	1.328	1.382	1.544	1.415	1.314	1.329	1.238	1.253	1.204	1.316	1.237	1.377	1.275	1.188	1.327	1.094	1.336
490.0	112.4	202.0	199.5	219.2	516.2	1132	436.7	247.4	258.6	257.7	257.2	241.7	223.1	197.0	175.1	157.4	144.8	137.4	129.2	124.7	122.5	120.3	117.3	118.2	117.0	114.8	113.6	112.8	112.2	111.5	107.2	99.47	90.04	81.08	72.57	65.46	58.81	51.64	47.50	45.65	45.44	36.92	27.98	23.32	20.25	17.19	14.16	11.74	9.539	8.100	7.798	14.57	71.83	262.4	452.8	206.8	9.620	1.711	1.496	1.519	1.334	1.398	1.377	1.319	1.300	1.316	1.209	1.172	1.182	1.260	1.249	1.287	1.189	1.153	1.223	1.151	1.212
495.0	99.80	160.5	215.3	188.4	261.2	829.6	912.7	252.6	229.5	237.6	234.0	225.3	206.4	180.8	160.3	145.1	132.9	127.6	118.9	115.6	109.3	108.5	106.7	107.1	105.9	101.7	102.8	101.8	100.3	101.2	96.58	91.11	84.17	75.43	67.49	61.93	53.83	49.75	44.24	40.41	39.62	39.80	31.33	24.15	20.49	17.54	14.82	12.41	10.22	8.005	7.093	7.718	19.87	62.01	167.1	493.8	184.2	10.30	1.634	1.492	1.312	1.275	1.364	1.204	1.264	1.224	1.186	1.182	1.163	1.156	1.062	1.203	1.241	1.068	1.044	1.178	1.166
500.0	86.01	136.3	218.6	185.9	202.3	439.5	1187	321.8	218.7	220.8	210.8	206.8	187.0	168.3	147.5	133.8	124.1	117.1	111.3	105.8	103.0	98.69	97.58	98.50	95.95	94.47	92.63	93.99	92.86	92.94	90.83	83.37	77.53	70.08	63.68	58.37	52.16	46.56	42.19	37.60	35.31	36.88	33.92	25.23	20.70	17.66	15.21	12.84	10.87	9.010	7.058	6.451	8.621	17.17	41.34	220.8	513.3	140.8	4.303	1.506	1.309	1.229	1.327	1.291	1.199	1.272	1.113	1.016	1.035	1.112	1.041	1.106	1.086	1.068	1.032	1.110	1.099
505.0	83.32	124.7	195.5	195.8	170.8	244.1	1051	637.7	210.9	206.7	201.3	192.6	177.0	159.0	139.4	122.6	114.5	107.0	101.2	96.97	95.31	91.16	89.46	89.56	87.94	86.45	85.61	86.09	85.25	85.77	83.49	78.30	71.88	64.86	59.61	53.88	48.65	43.61	39.92	35.22	33.02	32.30	33.99	27.35	21.54	17.43	14.94	12.60	10.76	9.258	7.460	6.382	6.076	7.497	12.35	55.50	298.8	454.5	25.90	2.009	1.373	1.331	1.173	1.300	1.102	1.125	1.141	1.225	0.947	1.028	0.981	1.023	1.040	0.971	1.044	1.087	1.200
510.0	73.82	110.2	150.3	199.6	154.4	175.4	531.3	1019	327.0	185.7	182.4	173.3	158.7	143.2	123.8	111.0	101.5	95.78	89.09	86.22	82.23	79.93	78.54	77.55	77.43	76.40	74.68	75.48	75.72	75.14	73.40	69.94	63.97	58.20	53.45	48.46	43.92	39.93	36.03	33.07	30.11	27.82	28.35	28.31	23.27	17.44	14.47	12.41	10.68	9.004	7.573	6.579	5.710	5.531	6.121	15.31	74.62	248.2	387.0	102.3	7.069	1.276	1.243	1.129	1.057	1.050	0.995	0.972	1.067	0.971	0.902	0.926	0.908	0.919	0.993	1.038	1.004
515.0	67.80	102.7	123.1	177.4	161.8	142.9	233.7	819.1	743.5	176.0	160.5	153.5	141.3	124.9	110.4	97.98	89.45	83.07	76.37	74.33	70.93	69.46	68.32	66.78	66.46	65.22	63.84	65.33	66.28	64.82	62.68	60.75	55.59	51.45	46.49	43.04	39.16	35.89	32.21	29.94	27.07	24.48	23.01	24.33	23.91	18.59	14.18	12.22	10.81	8.821	7.701	6.951	5.938	4.938	4.728	6.413	19.07	57.87	157.4	359.2	141.6	5.204	1.244	1.093	0.933	0.964	0.849	0.899	0.954	0.735	0.812	0.907	0.801	0.892	0.895	0.904	0.797
520.0	70.52	87.16	104.0	141.4	170.9	130.7	153.7	449.4	1046	226.9	144.9	139.8	130.0	112.5	99.25	88.20	79.78	74.55	69.94	67.61	63.81	62.49	61.12	60.66	58.71	58.20	57.41	58.99	58.23	57.67	57.10	53.43	50.06	45.44	42.68	38.67	35.68	32.52	29.91	27.56	24.50	22.50	20.61	20.34	22.61	19.84	14.21	11.56	10.12	8.685	7.844	6.750	6.028	4.789	4.249	4.718	7.012	15.09	38.41	183.9	346.1	26.99	2.170	1.118	0.919	0.883	0.888	0.865	0.879	0.727	0.822	0.949	0.817	0.749	0.777	0.767	0.726
525.0	59.44	77.33	90.00	111.6	170.6	130.2	123.4	214.6	1002	493.3	137.0	124.9	116.9	101.2	90.37	80.11	73.19	67.12	64.20	60.70	57.92	55.55	54.99	54.55	53.82	52.66	52.66	53.09	52.83	52.22	51.82	48.33	44.78	41.89	39.21	35.11	32.47	30.07	27.36	25.03	22.55	20.66	19.11	18.07	19.08	19.97	15.24	11.44	9.659	8.480	7.500	6.279	6.201	5.172	4.326	4.063	4.326	5.595	10.63	46.99	223.7	213.3	21.70	1.218	1.021	0.898	0.859	0.837	0.795	0.706	0.742	0.852	0.735	0.765	0.717	0.781	0.741
530.0	55.05	64.19	77.72	93.71	140.5	140.4	106.3	134.3	507.9	927.6	223.5	112.6	102.1	89.94	80.04	71.78	64.49	60.15	56.20	53.72	50.33	48.54	48.62	47.59	46.45	45.86	45.18	45.48	46.47	45.80	45.23	42.05	39.87	36.61	33.90	31.13	27.98	26.55	24.21	22.35	20.34	18.51	17.48	16.11	15.64	16.71	16.46	12.05	9.752	7.800	7.129	6.023	5.616	5.380	4.608	3.928	3.642	3.378	4.298	12.14	57.03	158.8	210.3	78.66	4.914	0.950	0.831	0.799	0.773	0.681	0.721	0.695	0.690	0.720	0.641	0.696	0.726
535.0	48.85	59.16	72.20	74.80	100.7	138.4	103.9	104.8	192.8	835.7	599.6	103.5	88.40	78.24	70.65	61.71	55.72	51.96	48.17	45.32	43.33	42.89	40.89	40.66	40.16	39.13	38.32	38.92	39.27	39.48	39.57	36.53	34.64	31.46	29.16	26.83	25.10	22.99	20.53	19.58	18.26	16.62	15.68	14.36	13.76	13.44	14.35	12.76	9.669	7.504	6.777	5.617	5.324	5.090	4.562	3.844	3.346	3.077	2.745	4.374	14.18	37.09	97.93	248.3	119.1	3.052	0.885	0.810	0.748	0.680	0.716	0.536	0.708	0.631	0.606	0.552	0.608
540.0	47.41	58.47	60.33	70.65	78.64	127.1	109.6	88.73	111.2	451.7	968.4	150.6	79.86	70.51	62.73	54.98	51.20	46.69	43.31	41.30	39.72	38.23	36.29	36.66	36.68	34.76	34.48	34.11	34.80	35.62	34.82	32.73	30.22	28.02	26.09	24.60	22.51	20.81	18.84	17.86	16.47	15.05	14.34	13.03	12.33	11.39	11.67	12.53	10.23	7.587	6.090	5.300	5.137	4.481	4.342	3.937	3.297	2.886	2.623	2.688	4.544	9.607	24.35	135.8	308.5	24.69	1.361	0.824	0.837	0.667	0.616	0.610	0.694	0.634	0.599	0.612	0.629
545.0	43.49	45.65	56.79	60.84	69.75	96.89	123.2	82.52	87.93	190.9	995.8	356.1	75.24	66.80	58.72	51.03	46.34	42.47	39.29	36.97	35.90	34.54	33.46	32.99	32.19	32.01	31.18	30.60	31.65	31.48	30.75	28.92	27.14	24.97	23.12	22.35	20.13	19.42	17.35	16.36	15.08	13.67	12.73	12.13	11.75	10.49	9.913	11.26	10.55	7.627	6.058	5.268	4.923	4.267	4.265	4.028	3.466	2.753	2.405	2.145	2.391	3.302	6.692	35.46	215.4	192.0	18.25	0.923	0.750	0.567	0.598	0.540	0.575	0.550	0.564	0.579	0.567
550.0	39.90	47.03	49.02	54.33	59.20	72.53	116.5	86.57	73.22	99.37	515.6	798.3	121.1	57.90	49.50	44.54	39.50	37.36	34.57	32.08	30.78	29.80	28.62	28.27	27.64	27.21	26.84	26.83	27.32	27.23	26.61	25.17	23.51	22.05	20.02	19.03	17.76	16.76	15.47	14.65	13.10	12.10	11.20	10.79	10.35	9.357	8.837	8.769	9.260	8.242	6.223	4.880	4.464	3.878	3.862	3.581	3.536	2.891	2.400	2.103	1.825	1.918	2.613	8.999	55.14	128.6	158.2	55.56	2.762	0.666	0.632	0.535	0.541	0.545	0.513	0.553	0.525
555.0	41.03	38.47	37.85	47.64	52.10	57.14	85.55	97.51	65.93	69.56	171.7	799.0	528.2	55.05	44.08	37.98	34.91	31.96	30.39	27.56	26.75	25.79	24.59	23.79	23.03	23.17	22.69	23.25	23.76	23.50	22.25	22.53	20.02	19.05	17.49	16.67	15.16	14.15	13.68	12.31	11.26	10.56	9.933	9.368	9.136	8.231	7.503	7.036	7.000	7.960	6.679	4.914	4.134	3.847	3.458	3.283	3.096	2.858	2.578	2.057	1.667	1.634	1.704	2.868	13.20	29.76	75.26	178.5	27.12	1.901	0.676	0.558	0.454	0.538	0.585	0.508	0.518
560.0	34.86	36.86	36.49	43.81	44.26	46.72	63.64	103.1	66.56	60.66	84.11	443.3	1019	80.80	38.33	35.39	30.79	29.16	26.30	24.82	23.87	22.62	21.26	21.54	20.56	20.49	20.47	20.42	20.32	20.47	19.60	19.02	17.98	17.11	15.33	14.67	13.46	12.67	12.43	10.95	9.858	9.680	8.775	8.299	8.217	7.450	6.657	6.099	5.863	6.557	6.554	5.347	3.845	3.588	3.318	3.014	2.708	2.537	2.501	2.076	1.642	1.564	1.423	1.616	3.816	7.394	18.65	100.0	159.1	21.96	1.135	0.519	0.416	0.530	0.504	0.403	0.480
565.0	33.94	33.61	39.71	38.88	42.17	42.24	49.14	95.67	73.26	54.13	58.56	170.0	1248	223.2	36.10	30.75	27.24	25.60	23.50	21.93	20.63	19.75	19.04	18.82	18.14	17.75	17.71	17.83	18.38	17.46	17.48	16.73	15.82	14.96	14.39	12.80	11.53	11.36	10.38	9.663	9.357	8.742	7.900	7.536	7.273	6.803	5.871	5.731	5.392	5.106	5.719	5.407	3.941	3.327	2.876	2.717	2.709	2.220	2.087	2.090	1.607	1.339	1.275	1.318	1.623	2.394	4.803	26.22	117.3	132.8	15.20	0.657	0.563	0.397	0.452	0.428	0.472
570.0	30.56	33.10	34.51	34.30	35.54	34.77	38.40	64.60	85.77	50.59	50.90	74.10	704.5	631.3	62.23	26.05	22.50	21.28	19.23	17.94	17.20	16.84	15.87	15.46	14.91	14.72	14.67	14.58	14.82	14.37	14.72	14.04	12.77	12.50	11.58	10.60	10.00	9.546	8.703	8.026	7.991	7.075	6.675	6.364	6.122	5.901	5.199	4.828	4.400	4.052	4.329	4.822	4.032	3.143	2.573	2.406	2.278	1.975	1.880	1.837	1.749	1.367	1.189	1.087	1.071	1.200	1.649	6.504	30.23	87.44	105.3	17.75	1.748	0.449	0.485	0.412	0.438
575.0	31.48	34.03	30.20	27.48	30.34	29.58	30.67	37.91	84.04	58.08	46.19	51.99	200.9	683.4	280.9	23.66	18.15	16.93	15.99	14.81	13.82	13.33	12.16	12.05	11.56	11.69	11.57	11.49	12.22	11.59	11.38	11.15	10.10	9.727	8.914	8.395	8.244	7.242	6.808	6.446	6.096	5.598	5.295	5.090	5.070	4.617	4.282	4.150	3.570	3.219	3.130	3.449	3.766	3.153	2.511	2.106	2.036	1.701	1.622	1.342	1.533	1.466	1.145	0.944	0.953	0.808	1.091	2.026	7.240	20.20	49.34	106.8	24.61	1.171	0.443	0.410	0.403
580.0	27.25	34.76	31.81	30.03	23.41	24.74	28.66	30.28	65.54	75.04	47.50	47.48	79.71	374.4	584.8	37.45	15.52	14.27	13.46	12.42	11.48	10.82	10.49	10.57	9.896	9.715	9.185	9.618	9.404	9.239	9.552	9.067	8.191	8.010	7.262	6.822	6.570	5.972	5.587	5.182	4.874	4.703	4.499	4.176	4.199	3.714	3.466	3.304	2.926	2.594	2.555	2.534	2.977	3.129	2.297	1.900	1.759	1.524	1.336	1.249	1.305	1.249	1.120	0.939	0.860	0.820	0.782	0.970	2.133	5.001	12.21	60.15	95.11	17.67	0.668	0.419	0.307
585.0	25.08	34.63	31.46	24.78	20.90	20.10	24.40	26.20	47.58	83.82	52.33	47.53	51.90	134.3	701.0	88.46	14.08	11.77	10.54	10.31	9.596	8.789	8.505	8.570	8.347	7.960	7.594	7.593	7.827	7.983	7.791	7.609	7.094	6.619	6.240	5.606	5.550	4.643	4.684	4.269	4.309	3.894	3.973	3.717	3.425	3.115	2.917	2.746	2.406	2.131	2.141	1.998	2.252	2.723	2.235	1.784	1.459	1.314	1.194	1.141	0.974	1.173	1.214	0.961	0.857	0.707	0.703	0.742	1.106	1.560	3.305	15.73	65.96	72.70	9.512	0.447	0.371
590.0	30.13	31.83	31.52	23.65	19.77	18.12	19.43	22.84	32.47	73.60	66.83	49.82	46.07	53.57	364.4	423.4	31.88	9.641	8.719	7.744	7.403	7.098	6.522	6.566	6.654	6.205	6.012	6.108	6.274	6.143	5.804	6.014	5.568	5.053	4.776	4.299	4.213	3.742	3.625	3.327	3.312	3.101	2.905	2.924	2.672	2.555	2.368	2.318	1.994	1.766	1.666	1.640	1.623	1.921	2.086	1.766	1.290	1.159	1.020	0.946	0.870	0.924	0.997	1.054	0.867	0.774	0.694	0.741	0.791	0.831	1.195	3.917	17.02	46.12	45.12	14.93	0.981
595.0	24.13	34.07	28.89	22.09	18.61	16.59	17.23	20.16	26.66	51.93	81.72	53.09	45.64	34.05	98.19	481.5	182.2	8.204	7.168	5.980	5.616	5.513	5.284	4.902	4.728	4.653	4.583	4.769	4.858	4.684	4.552	4.429	4.308	3.996	3.870	3.381	3.149	2.857	2.915	2.719	2.500	2.535	2.352	2.093	2.224	2.247	2.055	1.995	1.530	1.373	1.404	1.306	1.307	1.149	1.724	1.655	1.262	0.987	0.831	0.836	0.747	0.788	0.767	0.864	0.934	0.776	0.645	0.685	0.586	0.600	0.649	1.260	4.187	10.69	22.43	55.83	19.49
600.0	22.68	32.85	28.59	20.26	17.37	14.41	15.05	18.37	25.29	37.71	81.68	59.72	43.52	27.86	32.69	258.1	402.3	16.98	6.020	5.049	4.588	4.331	4.364	4.477	4.063	4.018	4.128	3.923	3.837	4.008	3.710	3.420	3.319	3.251	3.070	2.762	2.639	2.376	2.405	2.451	2.110	1.910	1.996	1.875	1.841	1.712	1.702	1.582	1.316	1.270	1.152	1.104	0.973	0.963	1.260	1.398	1.287	0.840	0.814	0.787	0.733	0.747	0.717	0.781	0.821	0.843	0.674	0.706	0.580	0.646	0.577	0.679	1.287	2.742	5.624	30.33	51.58
605.0	26.58	31.06	28.46	21.79	16.23	13.62	14.11	16.94	24.11	32.83	68.95	69.82	42.70	26.21	17.42	83.73	479.7	61.32	5.275	4.252	4.180	3.883	3.956	3.806	3.517	3.467	3.284	3.207	3.257	3.529	3.172	3.022	2.970	2.781	2.395	2.422	2.372	2.053	1.977	1.769	1.719	1.706	1.825	1.693	1.390	1.459	1.363	1.286	1.153	1.083	0.978	0.943	0.995	0.978	0.867	1.153	1.238	0.924	0.835	0.656	0.709	0.665	0.696	0.599	0.698	0.783	0.859	0.683	0.546	0.648	0.530	0.461	0.652	0.912	1.537	7.974	34.02
610.0	26.70	32.06	26.36	18.26	14.53	11.97	13.17	16.92	22.39	29.80	49.78	76.25	46.09	24.75	12.93	24.75	244.5	300.0	16.76	3.768	3.369	3.257	3.070	3.063	2.780	2.719	2.691	2.516	2.678	2.769	2.551	2.439	2.442	2.143	1.996	2.072	1.870	1.671	1.632	1.426	1.476	1.421	1.460	1.325	1.167	1.093	1.087	1.111	0.991	0.943	0.792	0.831	0.799	0.777	0.741	0.833	1.009	0.954	0.747	0.600	0.618	0.613	0.610	0.559	0.528	0.682	0.818	0.749	0.522	0.501	0.500	0.453	0.432	0.487	0.673	2.061	8.717
615.0	28.26	25.95	25.83	15.95	12.02	12.11	12.44	15.17	20.18	27.89	39.36	65.82	56.38	23.85	11.27	10.68	62.54	349.2	64.89	3.635	2.754	2.760	2.754	2.398	2.263	2.288	2.166	2.089	2.109	2.025	2.080	1.934	1.954	1.907	1.455	1.455	1.413	1.259	1.301	1.278	1.091	1.085	1.208	1.070	0.973	0.933	0.943	0.893	0.933	0.799	0.688	0.722	0.661	0.688	0.614	0.588	0.822	0.809	0.804	0.600	0.540	0.597	0.545	0.492	0.478	0.690	0.718	0.760	0.643	0.483	0.436	0.481	0.426	0.368	0.427	0.762	2.208
620.0	36.00	30.28	24.16	17.77	11.38	10.78	11.61	14.03	18.89	26.96	35.18	52.55	62.34	23.43	10.15	7.243	17.70	187.3	278.4	9.411	2.555	2.322	2.298	2.453	2.057	1.925	1.977	1.721	1.910	1.940	1.787	1.724	1.550	1.636	1.414	1.277	1.345	1.203	1.130	1.027	1.012	0.967	1.044	0.927	0.826	0.681	0.859	0.862	0.727	0.649	0.617	0.624	0.599	0.616	0.599	0.504	0.651	0.587	0.703	0.616	0.478	0.522	0.501	0.449	0.521	0.566	0.571	0.573	0.731	0.459	0.482	0.417	0.345	0.359	0.387	0.426	0.769
625.0	27.54	25.92	24.84	14.14	10.65	9.293	11.38	12.96	17.05	23.76	34.22	40.75	60.34	27.54	9.471	5.961	7.324	59.54	357.9	45.58	2.505	2.058	2.001	1.874	1.782	1.818	1.597	1.754	1.730	1.687	1.501	1.555	1.367	1.353	1.360	1.177	1.117	1.043	1.012	0.925	0.844	0.918	0.843	0.834	0.772	0.709	0.730	0.723	0.641	0.547	0.590	0.533	0.630	0.562	0.534	0.509	0.464	0.529	0.600	0.694	0.533	0.504	0.505	0.396	0.533	0.548	0.484	0.539	0.600	0.589	0.458	0.393	0.309	0.381	0.347	0.363	0.473
630.0	25.79	28.78	22.65	13.01	10.12	9.333	10.51	12.39	15.61	21.68	30.66	34.55	47.07	35.76	9.873	5.452	4.795	16.54	190.9	227.1	11.49	1.966	1.676	1.762	1.449	1.515	1.341	1.391	1.402	1.441	1.278	1.330	1.125	1.129	1.186	1.039	0.946	0.939	0.804	0.813	0.743	0.717	0.694	0.695	0.722	0.659	0.604	0.590	0.562	0.498	0.513	0.481	0.438	0.469	0.410	0.434	0.444	0.453	0.472	0.573	0.501	0.474	0.453	0.456	0.499	0.461	0.459	0.487	0.463	0.559	0.495	0.396	0.362	0.335	0.326	0.390	0.358
635.0	23.38	23.89	20.66	12.57	10.21	9.501	9.453	10.10	13.93	20.79	28.35	30.41	33.24	38.16	12.71	5.178	3.808	6.200	48.21	273.3	55.16	2.031	1.442	1.525	1.306	1.216	1.460	1.156	1.216	1.115	1.055	1.148	0.941	0.892	0.941	0.848	0.814	0.809	0.699	0.660	0.657	0.675	0.669	0.602	0.581	0.604	0.508	0.502	0.429	0.428	0.410	0.353	0.386	0.387	0.400	0.358	0.349	0.420	0.404	0.502	0.510	0.450	0.431	0.384	0.424	0.483	0.411	0.495	0.479	0.573	0.465	0.488	0.374	0.320	0.375	0.353	0.310
640.0	26.18	26.64	19.06	14.49	9.111	8.747	8.504	10.76	13.00	18.82	25.06	27.79	26.55	32.82	17.72	5.454	3.588	3.961	12.99	154.3	210.9	6.431	1.434	1.424	1.206	0.977	1.232	0.936	1.034	0.966	0.856	0.990	0.912	0.825	0.925	0.750	0.746	0.717	0.652	0.603	0.598	0.537	0.642	0.509	0.489	0.482	0.491	0.473	0.406	0.414	0.324	0.343	0.405	0.337	0.320	0.323	0.355	0.367	0.430	0.381	0.421	0.471	0.429	0.413	0.464	0.402	0.398	0.485	0.471	0.427	0.374	0.443	0.439	0.355	0.387	0.403	0.302
645.0	24.16	25.02	18.54	12.90	9.326	7.660	8.438	10.24	13.41	17.29	21.74	25.11	23.15	24.28	23.11	5.962	3.693	3.253	5.088	49.79	275.3	35.65	1.393	1.248	1.128	1.136	1.067	1.006	0.898	0.957	0.937	0.986	0.778	0.744	0.716	0.701	0.680	0.678	0.615	0.592	0.500	0.572	0.516	0.468	0.430	0.519	0.458	0.430	0.411	0.388	0.362	0.370	0.355	0.302	0.349	0.295	0.318	0.374	0.357	0.371	0.408	0.439	0.381	0.403	0.441	0.364	0.390	0.435	0.381	0.385	0.315	0.450	0.360	0.365	0.335	0.435	0.261
650.0	23.66	23.84	17.33	12.04	8.270	8.601	8.296	10.33	12.30	16.15	20.63	23.18	20.91	18.06	24.92	7.707	3.674	3.048	2.972	13.49	202.3	134.6	1.949	1.368	1.099	0.949	1.109	0.905	0.982	0.880	0.886	0.857	0.754	0.683	0.643	0.560	0.499	0.634	0.522	0.542	0.474	0.469	0.499	0.470	0.466	0.442	0.413	0.423	0.376	0.346	0.320	0.355	0.390	0.280	0.352	0.292	0.357	0.310	0.361	0.343	0.379	0.342	0.421	0.381	0.371	0.358	0.336	0.448	0.375	0.336	0.422	0.452	0.411	0.428	0.374	0.322	0.243
