Sample:	'1
File name:	Default_20231031_144327.FD3
Run date:	'14:37:06, 10/31/2023
Operator:	dsjg
Comment:	'

Instrument
Model:	F-2700 FL Spectrophotometer
Serial number:	2198-001
ROM Version:	4J14000 07

Instrument parameters
Measurement type:	3-D scan
Data mode:	Fluorescence
EX  Start WL:	220.0 nm
EX  End WL:	600.0 nm
EX Sampling interval:	5.0 nm
EM  Start WL:	230.0 nm
EM  End WL:	650.0 nm
EM Sampling interval:	5.0 nm
Scan speed:	12000 nm/min
EX Slit:	5.0 nm
EM Slit:	5.0 nm
PMT Voltage:	700 V
Response:	Auto 
Corrected spectra:	Off
Contour interval:	50.000

Peak integration
Integration method:	Rectangular
Sensitivity:	1
Threshold:	1.000

Peaks
No.	ApexEX/EM(nm)	Height(Data)
1	225.0/625.0	28.14
2	225.0/635.0	25.65
3	230.0/395.0	 6093
4	235.0/260.0	84.71
5	240.0/265.0	90.66
6	245.0/270.0	86.94
7	270.0/300.0	507.1
8	275.0/305.0	555.3
9	275.0/390.0	 1897
10	285.0/635.0	27.01
11	340.0/395.0	 4136
12	475.0/395.0	18.28

Data points
	220.0	225.0	230.0	235.0	240.0	245.0	250.0	255.0	260.0	265.0	270.0	275.0	280.0	285.0	290.0	295.0	300.0	305.0	310.0	315.0	320.0	325.0	330.0	335.0	340.0	345.0	350.0	355.0	360.0	365.0	370.0	375.0	380.0	385.0	390.0	395.0	400.0	405.0	410.0	415.0	420.0	425.0	430.0	435.0	440.0	445.0	450.0	455.0	460.0	465.0	470.0	475.0	480.0	485.0	490.0	495.0	500.0	505.0	510.0	515.0	520.0	525.0	530.0	535.0	540.0	545.0	550.0	555.0	560.0	565.0	570.0	575.0	580.0	585.0	590.0	595.0	600.0
230.0	24.04	321.5	470.9	92.73	4.006	2.197	2.270	2.085	1.785	1.496	1.602	1.419	1.308	1.063	1.140	1.156	1.098	1.071	1.162	1.176	1.152	1.228	1.184	1.396	1.229	1.182	1.136	1.020	0.850	0.689	0.502	0.449	0.368	0.294	0.295	0.367	0.411	0.378	0.349	0.320	0.313	0.332	0.315	0.299	0.218	0.222	0.309	0.996	2.007	1.778	0.790	0.222	0.146	0.141	0.136	0.135	0.130	0.123	0.103	0.077	0.090	0.080	0.087	0.076	0.070	0.068	0.071	0.066	0.068	0.071	0.059	0.072	0.027	0.048	0.051	0.039	0.028
235.0	19.81	99.75	384.6	466.5	109.4	4.206	1.944	1.735	1.649	1.843	1.451	1.418	1.326	1.313	0.935	1.021	1.303	1.098	1.060	1.168	1.155	1.193	1.198	1.145	1.305	1.103	1.162	0.953	0.835	0.665	0.481	0.431	0.342	0.263	0.257	0.307	0.511	0.422	0.353	0.290	0.299	0.329	0.291	0.269	0.290	0.278	0.202	0.376	0.707	1.258	1.860	2.036	1.184	0.318	0.145	0.111	0.103	0.108	0.121	0.074	0.109	0.080	0.101	0.063	0.083	0.088	0.085	0.043	0.055	0.076	0.076	0.093	0.054	0.019	0.056	0.041	0.035
240.0	37.04	36.76	138.4	487.0	460.7	70.50	2.660	2.120	1.673	1.728	1.517	1.439	1.212	1.452	1.047	1.018	1.243	0.975	1.070	1.254	1.109	1.384	1.248	1.286	1.281	1.199	1.094	1.056	0.811	0.706	0.514	0.336	0.350	0.264	0.300	0.368	0.351	0.401	0.335	0.333	0.304	0.240	0.300	0.297	0.326	0.406	0.270	0.200	0.313	0.512	0.990	2.052	2.958	2.179	0.760	0.141	0.114	0.091	0.103	0.088	0.106	0.050	0.075	0.038	0.065	0.061	0.085	0.034	0.054	0.064	0.047	0.050	0.064	0.038	0.024	0.039	0.018
245.0	43.68	49.59	45.69	215.3	623.8	371.9	39.17	2.622	2.010	2.325	1.539	1.740	1.344	1.115	1.251	1.384	1.194	0.943	1.099	1.147	1.395	1.438	1.434	1.383	1.246	1.323	1.198	1.059	0.786	0.616	0.515	0.325	0.353	0.323	0.325	0.246	0.284	0.290	0.338	0.317	0.309	0.228	0.295	0.318	0.330	0.385	0.363	0.319	0.228	0.287	0.326	0.860	1.884	3.036	3.081	1.927	0.388	0.127	0.101	0.079	0.096	0.082	0.061	0.063	0.070	0.064	0.060	0.056	0.053	0.091	0.062	0.029	0.058	0.045	0.036	0.041	0.033
250.0	18.82	54.15	57.11	67.59	248.3	536.9	483.2	118.7	6.546	2.495	1.720	1.952	1.466	1.486	1.262	1.265	1.313	1.064	1.152	1.284	1.135	1.307	1.326	1.266	1.275	1.304	1.136	1.157	0.877	0.652	0.514	0.446	0.386	0.336	0.348	0.306	0.245	0.255	0.248	0.320	0.353	0.283	0.329	0.310	0.273	0.298	0.293	0.348	0.389	0.341	0.312	0.327	0.571	1.101	1.839	2.826	3.221	2.664	1.460	0.433	0.100	0.085	0.053	0.079	0.069	0.064	0.075	0.050	0.055	0.064	0.068	0.071	0.038	0.058	0.039	0.061	0.033
255.0	5.694	22.36	60.36	77.97	69.56	164.1	536.4	692.9	166.7	6.012	2.151	2.292	1.725	1.698	1.339	1.249	1.270	1.190	1.174	1.163	1.290	1.399	1.247	1.366	1.381	1.337	1.264	1.191	1.002	0.624	0.480	0.387	0.351	0.300	0.357	0.263	0.253	0.274	0.253	0.201	0.322	0.342	0.286	0.259	0.257	0.282	0.249	0.253	0.306	0.342	0.489	0.497	0.326	0.406	0.552	0.842	1.388	2.784	4.395	3.809	1.985	0.415	0.068	0.080	0.108	0.080	0.094	0.053	0.052	0.075	0.051	0.054	0.028	0.051	0.045	0.051	0.035
260.0	5.111	9.324	31.66	84.71	63.19	47.06	200.2	715.6	690.0	117.1	4.297	2.306	2.182	1.964	1.490	1.510	1.624	1.330	1.283	1.403	1.278	1.420	1.324	1.385	1.337	1.188	1.269	1.137	1.043	0.680	0.477	0.498	0.382	0.258	0.368	0.283	0.316	0.260	0.207	0.208	0.290	0.384	0.272	0.284	0.251	0.248	0.221	0.233	0.195	0.231	0.344	0.523	0.541	0.371	0.262	0.333	0.494	0.888	2.073	3.939	5.211	3.767	1.321	0.214	0.081	0.085	0.045	0.065	0.049	0.078	0.043	0.066	0.053	0.058	0.040	0.093	0.070
265.0	4.956	6.103	13.08	51.36	90.66	41.14	54.69	298.8	856.8	626.4	78.11	3.247	2.022	1.956	1.534	1.512	1.586	1.317	1.500	1.325	1.292	1.471	1.440	1.497	1.442	1.303	1.324	1.133	1.144	0.794	0.537	0.396	0.378	0.334	0.367	0.272	0.274	0.251	0.253	0.196	0.219	0.273	0.321	0.272	0.255	0.269	0.258	0.239	0.213	0.163	0.296	0.306	0.496	0.605	0.464	0.248	0.250	0.295	0.609	1.302	3.129	5.106	5.121	2.782	0.688	0.101	0.060	0.103	0.084	0.091	0.057	0.081	0.039	0.066	0.066	0.061	0.024
270.0	6.721	7.751	8.164	19.02	56.56	86.94	56.13	81.34	320.4	717.2	716.5	114.9	12.90	2.169	1.799	1.821	1.789	1.410	1.449	1.421	1.273	1.449	1.518	1.677	1.569	1.379	1.295	1.136	1.044	0.742	0.636	0.418	0.392	0.328	0.364	0.289	0.261	0.226	0.238	0.198	0.213	0.215	0.283	0.323	0.307	0.270	0.302	0.235	0.241	0.234	0.191	0.221	0.246	0.389	0.476	0.652	0.521	0.345	0.306	0.427	0.848	1.724	2.744	3.930	4.366	3.673	2.006	0.677	0.090	0.101	0.064	0.072	0.069	0.053	0.060	0.056	0.077
275.0	18.29	17.71	18.36	24.05	33.08	72.93	117.9	82.50	105.7	237.9	632.3	974.1	152.0	11.51	2.436	2.017	1.990	1.629	1.520	1.481	1.447	1.482	1.525	1.502	1.543	1.456	1.486	1.204	1.016	0.769	0.618	0.409	0.383	0.420	0.333	0.430	0.363	0.382	0.298	0.200	0.267	0.237	0.238	0.269	0.331	0.417	0.371	0.312	0.298	0.275	0.198	0.217	0.271	0.263	0.276	0.441	0.613	0.867	0.677	0.447	0.419	0.629	0.898	1.202	1.800	3.339	5.238	5.735	2.732	0.582	0.080	0.109	0.058	0.030	0.047	0.059	0.080
280.0	36.04	32.67	39.22	40.01	46.57	62.58	122.4	155.6	117.3	142.5	289.4	857.1	930.4	119.6	5.254	2.391	2.300	1.623	1.452	1.621	1.698	1.462	1.449	1.520	1.616	1.499	1.382	1.222	1.093	0.733	0.594	0.495	0.388	0.444	0.425	0.436	0.480	0.489	0.297	0.277	0.247	0.302	0.212	0.343	0.358	0.475	0.376	0.398	0.356	0.335	0.261	0.290	0.365	0.337	0.316	0.403	0.553	0.708	0.975	0.935	0.685	0.694	0.612	0.705	0.900	1.409	2.540	4.922	6.045	4.653	1.802	0.193	0.084	0.063	0.041	0.069	0.058
285.0	53.71	63.55	63.60	61.92	64.73	70.76	105.8	186.7	215.1	182.0	215.8	429.8	935.3	896.8	85.16	3.743	2.260	2.176	1.683	1.889	1.664	1.678	1.584	1.605	1.658	1.526	1.523	1.394	1.128	0.790	0.540	0.456	0.425	0.409	0.465	0.572	0.517	0.475	0.380	0.356	0.319	0.278	0.244	0.362	0.400	0.515	0.439	0.415	0.333	0.461	0.374	0.410	0.437	0.364	0.424	0.449	0.431	0.496	0.659	1.096	1.372	1.168	0.913	0.954	0.961	0.957	1.358	2.127	3.400	5.639	6.317	3.716	1.060	0.128	0.046	0.051	0.099
290.0	89.52	118.3	106.1	106.9	101.5	105.7	117.8	167.1	272.4	319.2	289.0	305.8	400.9	783.1	872.7	340.2	18.81	2.777	2.235	2.142	1.878	1.721	1.771	1.693	1.665	1.711	1.596	1.410	1.139	0.891	0.630	0.476	0.442	0.532	0.660	0.677	0.587	0.572	0.491	0.494	0.390	0.381	0.422	0.416	0.416	0.501	0.606	0.553	0.487	0.555	0.490	0.560	0.574	0.528	0.523	0.582	0.660	0.687	0.720	0.938	1.166	1.508	1.668	1.681	1.543	1.300	1.264	1.390	1.445	2.064	3.193	4.687	5.839	5.073	2.928	0.795	0.133
295.0	142.9	179.5	153.5	152.0	131.4	135.1	141.5	171.9	260.5	407.3	441.9	348.7	237.4	261.3	619.8	 1230	487.3	16.55	2.866	2.371	2.101	2.102	1.853	1.852	1.898	1.916	1.445	1.477	1.133	0.919	0.610	0.518	0.513	0.590	0.632	0.818	0.758	0.789	0.554	0.525	0.474	0.515	0.405	0.531	0.446	0.575	0.532	0.634	0.666	0.582	0.575	0.694	0.736	0.611	0.727	0.671	0.793	0.835	0.849	0.887	1.090	1.407	1.690	2.230	2.387	2.018	1.627	1.444	1.190	1.045	1.098	1.437	2.074	4.265	7.629	7.851	4.135
300.0	166.3	197.7	192.9	180.1	157.2	152.5	160.8	187.1	266.4	393.8	507.1	448.6	242.2	155.4	244.5	903.1	 1368	78.57	7.582	2.752	2.575	2.250	1.945	2.042	1.791	1.893	1.402	1.559	1.356	0.871	0.658	0.631	0.610	0.541	0.595	0.825	0.805	0.777	0.633	0.551	0.540	0.533	0.596	0.583	0.538	0.612	0.565	0.687	0.712	0.733	0.706	0.719	0.749	0.734	0.738	0.756	0.824	0.888	0.935	0.985	1.131	1.425	1.643	1.880	2.444	2.645	2.463	1.907	1.369	1.016	0.780	0.766	0.834	1.394	3.387	7.195	10.32
305.0	182.3	233.6	221.2	205.3	173.5	186.3	184.0	198.2	280.6	380.7	482.2	555.3	324.9	178.2	150.2	368.1	 1150	 1288	65.79	4.718	2.749	2.344	1.955	2.184	1.855	1.901	1.706	1.712	1.284	1.002	0.690	0.555	0.489	0.677	0.803	0.797	0.794	0.762	0.661	0.511	0.570	0.537	0.517	0.563	0.560	0.781	0.602	0.655	0.719	0.807	0.830	0.886	0.889	0.756	0.843	0.762	0.895	1.011	1.065	1.085	1.158	1.490	1.471	1.747	2.206	2.407	2.835	2.683	1.995	1.201	0.960	0.942	0.720	0.739	1.093	2.620	5.628
310.0	202.8	264.6	243.1	222.3	189.2	196.1	198.2	206.3	281.3	369.1	431.0	519.1	444.8	277.7	178.3	193.3	427.3	990.0	 1319	272.4	18.61	3.232	2.666	2.376	2.268	2.053	1.912	1.727	1.367	0.984	0.680	0.606	0.616	0.753	0.755	0.822	0.770	0.708	0.648	0.586	0.558	0.561	0.542	0.569	0.668	0.845	0.764	0.826	0.827	0.788	0.764	0.919	0.975	0.928	0.974	0.891	1.055	1.026	1.091	1.003	1.164	1.384	1.558	1.827	1.935	2.091	2.302	2.464	2.351	2.075	1.632	1.184	1.057	0.898	0.907	1.215	1.767
315.0	317.7	376.2	292.4	245.0	212.2	222.3	222.3	227.0	294.7	378.3	441.9	507.2	489.2	463.0	303.1	229.5	234.2	320.4	758.6	 1490	425.6	19.17	3.721	2.955	2.617	2.346	1.996	2.004	1.521	1.251	0.722	0.707	0.578	0.598	0.714	0.823	0.766	0.713	0.658	0.732	0.559	0.621	0.636	0.723	0.845	1.182	1.110	1.078	1.005	0.906	0.775	1.014	1.034	0.976	1.004	0.976	1.160	1.157	1.148	1.136	1.224	1.434	1.808	1.991	1.962	2.169	2.381	2.464	2.149	2.304	2.771	2.345	1.632	1.429	1.195	1.214	1.237
320.0	456.1	538.8	380.2	285.9	234.0	238.6	247.4	250.9	316.2	413.2	478.6	559.4	532.7	545.8	470.3	326.6	248.7	191.5	291.0	970.3	 1550	323.2	10.08	3.895	2.802	2.547	2.153	1.960	1.753	1.205	0.797	0.684	0.573	0.669	0.730	0.775	0.677	0.781	0.707	0.716	0.701	0.741	0.745	0.964	1.137	1.547	1.591	1.567	1.324	1.092	0.984	1.006	1.039	1.076	1.126	1.096	1.253	1.388	1.235	1.157	1.351	1.547	1.764	2.046	2.163	2.274	2.455	2.516	2.385	2.631	2.740	2.922	2.684	2.165	1.852	1.585	1.514
325.0	647.1	745.9	504.2	370.2	280.7	273.5	277.0	279.0	356.0	457.0	537.0	638.9	610.6	605.1	595.8	479.9	325.1	210.2	189.8	374.1	 1186	 1495	53.48	6.760	3.963	3.200	2.366	2.126	1.734	1.269	0.808	0.811	0.689	0.773	0.721	0.755	0.744	0.785	0.711	0.793	0.741	0.802	0.927	1.121	1.588	1.935	2.218	2.066	1.833	1.398	1.227	1.320	1.175	1.169	1.213	1.301	1.305	1.428	1.353	1.382	1.617	1.718	2.008	2.217	2.485	2.604	2.705	2.857	2.853	2.978	2.987	3.010	3.064	3.239	2.658	2.233	1.928
330.0	816.0	 1002	750.3	598.3	431.7	379.4	343.1	334.9	414.3	507.9	601.3	719.3	709.4	683.8	657.4	641.3	491.8	300.8	246.5	239.2	437.5	 1048	 1270	529.9	19.15	4.381	3.046	2.506	1.918	1.368	1.012	0.886	0.665	0.778	0.847	0.781	0.692	0.772	0.775	0.792	0.818	0.892	1.096	1.317	1.846	2.336	2.693	2.692	2.362	1.955	1.925	2.047	1.902	1.739	1.677	1.671	1.820	1.816	1.654	1.744	1.800	2.009	2.329	2.415	2.904	2.922	3.137	3.126	3.208	3.484	3.377	3.538	3.396	3.489	3.449	3.627	2.922
335.0	963.8	 1291	 1051	913.6	617.8	534.7	455.2	425.6	497.2	587.2	680.9	822.4	826.1	811.1	760.3	720.4	668.7	452.0	348.4	287.4	267.0	373.0	723.9	 1633	363.7	22.54	4.466	3.239	2.568	1.781	1.289	0.986	0.744	0.708	0.870	0.789	0.776	0.864	0.772	0.868	0.903	1.045	1.152	1.640	2.095	2.878	3.176	3.205	3.243	2.823	2.706	3.002	2.760	2.627	2.499	2.161	2.516	2.280	2.166	2.183	2.115	2.377	2.763	2.912	3.141	3.120	3.504	3.696	3.771	3.813	4.087	4.072	3.987	3.990	3.745	3.703	3.829
340.0	 1065	 1497	 1288	 1179	874.0	695.9	579.8	539.2	590.6	657.0	750.2	904.8	917.7	907.8	859.0	800.8	725.7	594.1	451.8	352.4	276.8	254.3	314.0	994.7	 1627	296.8	12.99	4.490	3.065	2.092	1.520	1.106	0.981	0.785	0.833	0.807	0.771	0.943	0.823	0.891	0.977	1.189	1.236	1.755	2.303	3.145	3.336	3.613	3.813	3.371	3.274	3.950	3.853	3.610	3.193	2.692	2.847	2.972	2.709	2.607	2.715	2.823	2.998	3.226	3.419	3.421	3.753	3.944	4.179	4.135	4.770	4.802	4.633	4.439	4.067	4.204	4.000
345.0	 1113	 1593	 1526	 1449	 1134	911.6	751.9	692.0	730.6	768.3	823.0	979.6	990.5	996.9	948.3	874.9	773.2	657.4	581.0	430.6	335.1	281.5	243.5	393.6	 1241	 1478	47.69	9.454	4.742	2.886	1.886	1.238	1.024	0.979	0.954	0.928	0.788	0.939	0.991	0.947	1.069	1.183	1.327	1.827	2.401	3.187	3.594	4.150	4.242	4.027	4.015	4.726	4.698	4.523	3.819	3.623	3.504	3.537	3.369	3.351	3.256	3.465	3.432	3.678	3.830	3.855	3.998	4.284	4.268	4.622	5.250	5.271	4.972	4.799	4.811	4.503	4.137
350.0	 1175	 1760	 1799	 1840	 1565	 1380	 1252	 1164	 1099	 1067	 1060	 1166	 1144	 1134	 1102	 1040	939.9	730.7	699.9	592.6	445.8	374.6	315.2	283.3	472.8	 1058	 1321	542.0	24.05	10.22	4.656	2.170	1.270	1.115	0.952	0.958	0.939	0.974	1.022	1.084	1.142	1.237	1.594	1.962	2.511	3.285	3.688	4.486	4.678	4.496	4.840	5.989	6.146	6.230	5.591	5.418	5.781	5.774	5.948	5.725	5.264	4.901	4.930	4.968	5.056	5.057	4.989	5.092	5.237	5.442	5.541	6.027	5.830	5.772	5.602	5.452	5.450
355.0	 1227	 1892	 2062	 2167	 1909	 1725	 1595	 1502	 1384	 1284	 1224	 1312	 1252	 1225	 1222	 1165	 1078	841.1	794.5	756.2	655.0	508.9	460.9	402.6	391.1	474.4	795.3	 1697	348.4	40.73	19.32	6.370	2.295	1.326	1.129	1.057	1.087	1.073	1.047	1.124	1.244	1.408	1.664	2.109	2.593	3.424	3.925	4.887	5.346	5.448	5.716	7.213	7.498	7.308	6.992	6.925	7.452	7.602	7.320	7.268	6.370	6.322	5.824	5.770	5.921	5.752	5.634	5.841	6.086	5.877	5.935	6.389	6.522	6.081	6.070	6.018	6.202
360.0	 1305	 2129	 2408	 2505	 2118	 1879	 1708	 1625	 1504	 1374	 1289	 1362	 1290	 1275	 1272	 1236	 1178	955.3	935.6	909.8	892.0	797.7	737.9	682.7	627.4	466.2	593.8	 1220	 1801	325.1	44.30	15.94	4.600	1.841	1.447	1.294	1.202	1.149	1.210	1.241	1.235	1.533	1.849	2.158	2.707	3.785	4.271	5.480	5.905	6.411	6.629	8.386	8.289	8.265	7.782	7.321	8.017	8.225	7.825	7.403	7.085	6.552	6.131	6.362	6.003	6.109	5.981	5.919	5.985	6.222	6.507	6.393	6.904	6.789	6.219	6.590	7.118
365.0	 1516	 2542	 3039	 2977	 2389	 2048	 1842	 1761	 1642	 1504	 1401	 1453	 1375	 1353	 1352	 1353	 1333	 1140	 1179	 1199	 1238	 1266	 1219	 1195	 1143	 1030	937.9	987.7	 1710	 1790	274.1	35.76	9.867	3.251	2.002	1.646	1.378	1.429	1.446	1.609	1.638	1.599	2.146	2.395	3.034	3.973	4.938	6.366	7.580	8.117	8.164	9.795	9.633	9.003	8.605	7.959	8.270	8.444	8.608	8.179	7.399	6.988	6.868	6.906	6.895	6.509	6.507	6.351	6.587	6.569	6.867	6.999	7.241	7.251	6.757	7.213	7.570
370.0	 1932	 3587	 4334	 4127	 3015	 2466	 2197	 2074	 1956	 1825	 1711	 1713	 1569	 1521	 1551	 1615	 1676	 1528	 1692	 1838	 1966	 2143	 2282	 2322	 2279	 2125	 1905	 1656	 1495	 1700	 1715	625.1	27.50	7.026	3.340	2.328	1.899	1.882	2.018	1.921	2.062	2.211	2.726	3.108	3.732	5.131	6.365	8.982	11.05	11.38	11.80	13.82	12.82	11.49	10.52	9.726	10.02	10.08	10.38	9.648	9.183	8.391	8.330	8.489	8.266	8.099	7.772	7.420	7.453	7.245	7.653	8.009	8.405	8.215	8.126	8.712	9.450
375.0	 2395	 4440	 5424	 5011	 3436	 2685	 2314	 2174	 2067	 1936	 1832	 1856	 1699	 1651	 1700	 1822	 1948	 1863	 2134	 2379	 2599	 2848	 3120	 3293	 3279	 3103	 2790	 2391	 1841	 1253	 1160	 1774	305.9	23.48	5.469	3.176	2.669	2.341	2.416	2.246	2.522	2.739	3.249	3.622	4.537	6.088	7.893	10.99	13.47	14.36	15.01	16.13	14.72	12.89	11.57	10.41	10.57	10.51	10.38	10.31	9.758	9.434	8.881	8.862	8.780	8.681	8.614	8.338	8.248	8.058	8.234	8.896	9.315	9.599	9.119	10.05	10.64
380.0	 2537	 4744	 5749	 5272	 3543	 2669	 2276	 2109	 2012	 1919	 1826	 1863	 1739	 1698	 1766	 1922	 2050	 2009	 2332	 2603	 2851	 3122	 3410	 3668	 3699	 3508	 3148	 2703	 2033	 1216	705.9	 1129	 1600	251.8	12.04	4.578	3.124	2.727	2.739	2.773	2.616	3.018	3.380	3.985	4.676	6.647	8.350	11.86	14.26	15.60	15.93	17.69	15.25	13.54	11.44	10.31	10.59	10.56	10.54	9.977	9.394	9.014	8.742	8.551	8.988	8.529	8.392	8.301	8.469	8.304	8.453	9.011	9.513	9.827	9.714	10.49	11.56
385.0	 2555	 4775	 5920	 5373	 3542	 2651	 2218	 2065	 1980	 1876	 1795	 1870	 1759	 1729	 1812	 1985	 2142	 2101	 2438	 2705	 2963	 3239	 3534	 3800	 3885	 3679	 3314	 2840	 2132	 1254	612.5	478.9	 1279	 1381	37.52	7.154	3.994	3.259	2.852	2.856	2.862	3.028	3.739	4.166	4.706	6.675	8.618	12.29	14.83	16.02	16.01	17.47	15.56	13.52	11.45	10.53	10.53	10.15	9.928	9.743	9.342	8.838	8.538	8.355	8.711	8.200	8.409	8.174	8.595	8.479	8.764	8.976	9.620	10.17	10.37	11.39	11.87
390.0	 2648	 4956	 6081	 5456	 3588	 2666	 2231	 2060	 1979	 1894	 1812	 1897	 1789	 1791	 1897	 2087	 2269	 2230	 2578	 2859	 3113	 3395	 3704	 3962	 4062	 3921	 3507	 3011	 2271	 1347	655.2	317.4	434.4	 1006	 1162	410.2	14.36	4.378	3.354	3.237	3.176	3.285	3.906	4.117	5.067	6.811	8.885	12.23	15.25	16.37	16.55	18.17	15.86	13.45	11.42	10.58	10.65	10.19	10.19	9.666	9.048	8.619	8.690	8.692	8.535	8.487	8.497	8.493	8.867	8.541	8.864	9.557	10.30	10.51	10.78	11.84	12.44
395.0	 2680	 5004	 6093	 5450	 3545	 2648	 2189	 2015	 1939	 1845	 1785	 1888	 1804	 1811	 1937	 2165	 2341	 2310	 2664	 2927	 3184	 3463	 3784	 4036	 4136	 4018	 3643	 3116	 2359	 1416	701.3	317.3	215.2	298.0	646.1	 1422	249.0	15.99	4.665	3.849	3.497	3.468	4.013	4.252	5.037	6.895	8.736	12.49	15.09	16.40	16.37	18.28	15.85	13.06	11.13	10.09	10.59	10.34	9.923	9.128	8.881	8.666	8.270	8.309	8.652	8.484	8.194	8.604	8.654	8.846	9.176	9.630	10.89	10.91	11.14	11.44	13.37
400.0	 2616	 4880	 5881	 5325	 3413	 2571	 2123	 1949	 1880	 1793	 1719	 1836	 1785	 1800	 1929	 2147	 2323	 2293	 2631	 2885	 3105	 3356	 3661	 3899	 3996	 3874	 3550	 3063	 2317	 1407	712.1	334.7	186.9	149.2	212.9	878.1	 1341	201.5	9.894	4.792	3.697	3.679	3.948	4.173	5.097	6.959	8.531	12.30	14.78	16.19	15.99	17.65	15.21	12.65	10.40	9.938	10.59	9.774	9.702	9.248	8.647	8.270	8.326	8.292	8.126	7.783	7.992	8.139	8.402	8.905	8.917	9.800	10.45	10.82	11.13	11.93	12.94
405.0	 2487	 4529	 5475	 4939	 3262	 2475	 2076	 1897	 1826	 1718	 1646	 1768	 1728	 1752	 1890	 2097	 2249	 2218	 2527	 2728	 2921	 3140	 3419	 3630	 3721	 3610	 3301	 2893	 2202	 1347	705.9	351.4	200.1	135.6	113.9	283.1	 1058	 1100	33.04	7.596	4.487	3.772	4.065	4.225	4.851	6.508	7.964	11.76	14.28	14.70	14.85	16.62	14.40	12.26	10.39	9.819	10.02	9.799	9.487	9.074	8.585	7.884	7.733	7.906	7.684	7.601	7.517	7.852	8.474	8.417	8.540	9.648	10.14	10.53	11.20	12.11	12.78
410.0	 2252	 4054	 4893	 4443	 3033	 2420	 2093	 1924	 1827	 1668	 1575	 1682	 1639	 1676	 1808	 1999	 2134	 2071	 2330	 2487	 2631	 2815	 3033	 3220	 3301	 3196	 2920	 2569	 2011	 1268	697.4	378.1	235.9	164.6	119.9	129.5	332.5	835.5	947.1	135.7	13.08	4.753	4.332	4.113	4.714	5.988	7.379	10.19	12.55	13.42	13.40	15.22	13.18	11.45	9.921	9.626	9.818	9.904	9.709	9.149	8.583	7.843	7.800	7.723	7.246	7.158	7.375	7.279	7.535	7.978	8.322	9.209	9.986	9.977	10.71	11.44	12.20
415.0	 2070	 3657	 4330	 3988	 2810	 2359	 2103	 1968	 1829	 1624	 1491	 1594	 1560	 1578	 1703	 1877	 1985	 1906	 2128	 2247	 2346	 2487	 2673	 2829	 2896	 2816	 2569	 2264	 1797	 1201	699.2	404.0	273.1	201.2	148.8	117.2	143.4	246.7	556.7	 1089	216.2	13.74	5.341	4.142	4.453	5.718	6.666	9.369	11.18	11.68	11.82	13.62	12.19	10.76	9.352	9.335	9.912	9.853	9.511	9.270	8.616	7.825	7.711	7.693	7.109	6.646	6.929	6.529	7.036	7.809	7.952	8.790	9.385	9.659	9.907	10.84	11.48
420.0	 1882	 3356	 3925	 3634	 2637	 2271	 2067	 1930	 1805	 1562	 1430	 1518	 1479	 1492	 1607	 1766	 1862	 1768	 1970	 2064	 2142	 2262	 2424	 2558	 2617	 2541	 2329	 2057	 1634	 1130	698.0	418.3	289.7	221.4	166.9	127.0	111.0	116.6	184.1	723.6	 1065	173.1	8.766	4.987	4.710	5.425	6.231	8.501	10.23	10.66	10.80	12.10	11.44	9.938	9.325	9.192	9.771	9.640	9.443	8.979	8.641	7.642	7.649	7.188	7.007	6.426	6.526	6.274	6.887	7.278	7.433	8.289	8.662	8.873	9.252	9.946	10.59
425.0	 1777	 3054	 3568	 3331	 2489	 2156	 2019	 1935	 1764	 1516	 1378	 1442	 1406	 1405	 1520	 1660	 1733	 1652	 1832	 1899	 1960	 2065	 2197	 2319	 2369	 2310	 2121	 1878	 1502	 1043	687.7	434.9	304.9	236.9	180.4	138.5	111.6	93.84	91.61	236.8	890.1	873.7	30.48	6.611	5.196	5.297	6.140	7.970	9.273	9.759	10.32	10.98	10.14	9.127	8.870	8.482	9.452	9.293	9.513	8.695	8.198	7.499	7.455	6.900	6.545	6.292	6.171	6.278	6.571	6.790	6.925	7.717	7.978	8.404	8.774	9.578	9.862
430.0	 1592	 2667	 3095	 2973	 2280	 2083	 1973	 1875	 1712	 1464	 1311	 1360	 1313	 1312	 1401	 1522	 1578	 1489	 1643	 1683	 1724	 1794	 1903	 2006	 2044	 1993	 1836	 1637	 1327	940.9	644.8	454.9	329.5	254.8	199.1	156.6	127.8	103.3	83.50	97.68	278.3	694.0	767.0	124.1	11.93	6.005	5.792	7.074	8.120	8.564	8.803	9.741	9.362	8.526	8.225	8.259	8.962	8.967	9.111	8.736	8.121	7.339	6.947	6.581	6.201	6.154	5.991	5.856	6.101	6.583	6.715	7.214	7.561	7.620	7.900	8.565	9.039
435.0	 1475	 2300	 2694	 2614	 2114	 2013	 1948	 1878	 1691	 1432	 1252	 1281	 1219	 1213	 1277	 1381	 1416	 1332	 1455	 1475	 1482	 1537	 1621	 1705	 1733	 1687	 1567	 1408	 1163	852.8	603.8	452.9	365.5	285.0	221.6	179.8	149.8	122.3	98.30	81.51	105.7	191.4	472.0	956.8	194.1	12.04	6.148	6.682	7.179	7.446	7.698	8.707	8.474	7.983	7.703	7.955	8.857	9.029	8.981	8.442	7.884	6.841	6.954	6.467	6.030	5.831	5.396	5.472	5.439	6.012	6.273	6.529	6.712	7.039	7.113	7.858	8.220
440.0	 1396	 2082	 2424	 2399	 2008	 1963	 1937	 1874	 1679	 1399	 1218	 1235	 1149	 1141	 1190	 1282	 1309	 1226	 1332	 1341	 1340	 1375	 1442	 1514	 1541	 1503	 1403	 1265	 1057	800.1	584.6	442.6	378.0	310.2	238.8	193.9	164.5	137.0	110.7	84.64	73.30	79.85	151.5	692.6	920.9	139.4	7.551	6.549	6.616	6.890	6.952	8.001	7.737	7.829	7.594	7.811	8.791	8.746	8.885	8.761	7.831	7.235	6.583	6.354	5.732	5.527	5.294	5.382	5.431	5.543	5.715	6.416	6.724	6.645	6.560	7.342	7.620
445.0	 1374	 1919	 2206	 2201	 1914	 1905	 1901	 1836	 1659	 1368	 1171	 1188	 1090	 1086	 1112	 1192	 1212	 1136	 1224	 1231	 1219	 1253	 1308	 1369	 1393	 1358	 1272	 1154	977.6	755.7	568.7	435.9	370.2	326.7	255.5	205.5	173.6	149.4	121.0	93.14	73.26	61.34	68.17	231.1	858.2	742.8	24.33	7.174	6.593	6.454	6.360	7.711	7.333	7.397	7.041	7.618	8.590	8.846	8.840	8.357	7.609	7.187	6.437	5.915	5.573	5.472	5.167	5.298	5.037	5.243	5.539	6.065	6.386	6.096	6.355	6.754	7.052
450.0	 1243	 1788	 1967	 1981	 1750	 1777	 1779	 1755	 1587	 1296	 1112	 1106	 1009	987.8	 1011	 1073	 1080	 1013	 1087	 1091	 1073	 1096	 1141	 1187	 1209	 1180	 1108	 1014	873.7	695.1	540.0	426.8	358.8	317.7	271.6	221.7	184.2	157.6	130.1	104.1	82.42	64.44	56.52	83.08	264.3	663.4	702.4	108.0	10.78	6.183	6.105	7.175	6.665	6.689	6.646	7.016	7.862	8.184	8.378	8.149	7.313	6.762	6.076	5.574	5.478	5.139	4.810	4.853	4.830	4.921	5.004	5.502	5.506	5.684	5.852	5.971	6.356
455.0	 1056	 1700	 1737	 1762	 1580	 1662	 1670	 1637	 1477	 1224	 1043	 1023	924.7	882.6	902.1	949.5	949.1	885.3	955.3	951.5	927.4	936.2	974.2	 1015	 1024	 1009	953.6	875.8	769.7	629.4	507.9	413.3	350.9	303.8	268.7	239.0	198.6	165.7	139.5	115.1	92.98	73.39	60.71	55.73	85.50	173.1	433.3	822.3	159.4	10.57	5.952	6.392	6.459	6.055	6.247	6.534	7.155	7.625	7.610	7.443	6.846	6.644	5.869	5.359	5.104	4.837	4.424	4.403	4.438	4.416	4.669	4.667	4.978	5.168	5.209	5.149	5.724
460.0	911.3	 1557	 1649	 1605	 1483	 1546	 1579	 1553	 1420	 1160	986.6	965.2	863.3	814.7	829.3	867.0	856.0	795.1	863.5	854.9	828.4	835.0	859.9	895.0	907.6	892.7	847.3	782.5	700.2	588.8	485.0	403.5	344.2	298.6	262.0	241.4	211.8	173.7	147.3	121.1	99.72	79.42	65.57	53.47	49.06	59.46	126.3	581.9	747.8	110.6	7.385	6.311	5.793	5.611	5.798	6.233	6.898	7.120	7.486	7.099	6.577	6.267	5.370	5.329	4.847	4.522	4.402	4.107	4.307	4.142	4.175	4.430	4.554	4.636	4.703	4.914	5.168
465.0	821.4	 1358	 1602	 1486	 1389	 1471	 1499	 1476	 1344	 1094	938.0	918.9	813.5	753.1	768.8	801.1	783.2	727.6	782.2	774.3	749.8	752.2	775.4	802.3	812.4	800.5	764.9	712.1	641.0	551.2	463.9	390.6	335.9	294.9	257.9	237.4	217.8	183.7	153.6	128.0	106.1	84.61	71.01	57.21	43.50	36.96	46.12	183.8	696.8	590.0	20.48	7.094	5.935	5.744	5.533	5.950	6.665	7.053	7.034	6.624	6.546	5.860	5.370	4.918	4.563	4.242	4.098	3.913	3.856	3.830	3.957	4.022	4.234	4.426	4.481	4.462	4.819
470.0	729.5	 1112	 1440	 1451	 1264	 1348	 1385	 1369	 1246	 1022	875.1	842.5	739.5	687.3	687.5	707.8	694.4	638.5	689.7	680.3	654.1	650.3	670.5	691.9	699.6	690.7	661.4	624.4	571.1	502.9	429.7	370.5	323.6	288.7	252.8	228.9	212.2	193.8	162.7	133.7	111.8	91.19	78.42	64.10	48.59	37.26	32.34	58.28	211.8	515.4	525.6	99.34	10.72	6.147	5.591	5.656	6.272	6.271	6.561	6.369	5.828	5.347	4.996	4.553	4.316	3.947	3.769	3.574	3.544	3.539	3.527	3.635	3.624	3.838	3.850	4.002	4.057
475.0	656.2	978.6	 1163	 1428	 1189	 1225	 1256	 1264	 1135	941.4	805.9	779.1	673.0	620.3	609.9	624.1	609.3	558.6	603.1	596.5	568.3	562.6	576.9	592.5	599.2	595.9	573.8	542.5	505.8	454.2	398.9	349.7	309.9	275.5	244.7	222.2	203.7	190.2	171.9	142.0	117.3	97.26	85.69	71.50	55.97	44.08	34.88	35.22	65.52	134.8	302.0	596.3	147.4	10.66	6.192	5.432	5.780	6.022	5.951	5.908	5.186	4.885	4.478	4.277	4.022	3.670	3.476	3.203	3.169	3.110	3.338	3.171	3.360	3.452	3.350	3.332	3.441
480.0	640.1	905.1	 1002	 1322	 1217	 1139	 1159	 1180	 1075	898.0	761.6	727.8	632.0	573.2	562.6	568.8	556.8	504.6	549.0	540.3	516.0	507.6	516.1	530.3	538.1	538.0	518.9	497.2	463.2	421.4	374.2	332.4	299.1	266.4	240.7	216.6	199.7	182.3	171.7	148.9	122.7	100.7	90.59	75.89	60.98	49.49	39.35	33.58	36.33	48.72	92.50	386.3	576.5	114.0	7.885	6.065	5.761	5.814	5.688	5.470	5.027	4.693	4.542	3.939	3.654	3.408	3.353	3.140	3.026	2.945	3.164	3.100	3.128	3.237	3.261	3.114	3.228
485.0	580.5	826.2	906.8	 1137	 1258	 1081	 1101	 1107	 1021	851.1	724.5	690.1	594.4	536.4	520.5	524.5	513.7	467.0	507.2	496.5	469.6	463.4	471.3	483.1	490.9	490.0	471.9	457.9	428.0	396.0	358.8	319.0	283.9	256.9	232.5	213.5	196.1	178.2	167.4	152.9	127.7	102.8	94.02	80.30	66.46	54.50	44.43	36.89	32.77	32.67	40.60	123.1	505.1	492.2	24.27	6.825	5.916	5.898	5.382	5.276	5.019	4.354	3.982	3.781	3.414	3.421	3.098	3.098	3.128	2.901	3.095	2.958	2.800	3.029	2.699	3.140	3.036
490.0	526.9	758.4	830.6	941.4	 1142	 1113	996.9	 1004	937.9	792.5	672.0	644.3	550.9	490.5	474.4	476.4	460.3	417.8	452.7	441.6	419.7	412.6	417.4	427.2	436.9	430.6	418.9	408.9	388.6	362.3	331.0	299.8	268.9	245.1	221.7	205.1	190.2	174.0	159.9	147.9	132.6	108.1	96.81	84.00	70.46	59.17	49.99	41.32	35.54	32.10	32.14	47.90	153.7	377.9	459.6	102.6	11.26	6.198	5.393	5.064	4.795	4.218	3.684	3.655	3.339	3.308	2.954	3.014	2.729	2.520	2.571	2.597	2.569	2.671	2.571	2.718	2.721
495.0	463.4	694.8	730.8	833.3	920.9	 1132	958.5	907.3	859.0	721.6	623.9	585.1	494.2	439.5	418.8	421.0	406.5	369.2	396.7	385.4	369.3	360.9	367.0	371.7	376.5	374.3	365.6	359.1	345.5	326.6	301.6	274.9	250.9	230.5	208.1	194.1	181.4	165.7	152.4	137.6	128.2	112.0	99.64	85.68	72.83	61.65	53.05	45.21	39.58	35.26	33.36	33.92	53.45	103.7	279.8	551.5	158.3	11.14	6.193	4.944	4.362	3.982	3.550	3.358	3.031	3.059	2.567	2.668	2.527	2.431	2.261	2.380	2.382	2.548	2.379	2.113	2.485
500.0	410.0	628.4	686.8	740.6	770.4	 1031	984.6	824.0	777.2	662.4	577.6	547.1	461.0	402.6	384.3	382.7	366.7	332.6	357.8	348.2	332.3	325.7	329.2	333.5	336.3	333.4	330.1	324.6	315.5	301.8	279.1	253.9	233.8	216.2	196.7	183.8	171.6	158.2	145.0	131.8	120.4	109.3	99.86	86.86	73.47	63.19	56.19	48.50	42.00	37.73	34.60	32.49	32.93	41.43	84.90	349.8	536.3	28.65	8.424	5.568	4.479	3.705	3.406	3.276	2.786	2.894	2.399	2.385	2.351	2.015	2.098	2.174	2.137	2.129	2.246	2.000	2.183
505.0	384.5	568.0	634.8	673.4	679.6	871.4	 1007	792.0	723.2	614.0	539.5	511.2	428.2	374.6	354.2	351.8	331.9	303.5	325.6	316.9	301.6	295.3	294.8	299.5	303.9	301.7	297.8	293.2	286.7	274.1	257.2	238.1	217.0	202.8	183.3	173.3	163.1	151.2	138.9	126.3	114.1	103.6	101.5	88.32	74.12	64.15	57.29	51.14	44.63	39.73	36.48	33.10	29.89	29.16	35.34	109.7	432.5	442.0	26.57	6.363	4.801	3.701	3.455	3.058	2.700	2.474	2.436	2.174	2.157	2.174	2.003	2.115	2.024	2.041	1.994	1.933	2.009
510.0	341.9	496.4	556.1	610.4	598.4	681.5	867.6	817.2	646.1	555.1	485.2	461.6	384.9	336.9	316.5	308.5	291.1	265.8	284.3	278.5	262.6	254.7	256.3	260.8	263.6	262.6	258.1	255.1	250.4	242.1	230.2	212.1	195.0	180.9	167.4	158.0	148.5	137.4	127.7	116.7	106.1	94.80	95.16	88.54	74.55	64.09	57.59	52.06	46.31	42.65	39.63	36.25	31.95	28.65	27.06	41.60	129.9	321.7	309.7	106.1	10.53	4.246	3.384	2.974	2.515	2.227	2.199	1.971	1.961	1.862	1.707	1.878	1.807	1.812	1.693	1.667	1.795
515.0	283.7	418.6	463.8	542.5	525.4	558.4	640.2	813.4	621.8	489.2	428.2	412.4	343.2	296.7	277.8	268.0	250.8	231.3	244.3	238.6	224.3	221.3	220.4	221.2	225.2	223.3	221.8	219.0	217.1	210.0	200.6	186.4	172.2	160.9	148.9	140.9	132.6	124.2	115.5	107.5	96.79	86.88	85.51	81.95	75.25	64.26	56.84	52.19	47.80	44.14	41.41	38.76	34.03	30.26	27.51	27.99	46.41	88.39	180.9	420.7	154.3	9.010	3.876	3.119	2.393	2.270	2.063	1.897	1.789	1.751	1.638	1.768	1.581	1.621	1.514	1.509	1.551
520.0	248.7	385.8	409.1	484.5	474.5	495.3	532.4	716.3	677.2	453.0	392.4	375.6	314.3	270.4	252.1	242.8	228.5	207.0	219.2	213.2	200.5	195.2	195.7	194.5	200.6	198.2	197.8	196.7	193.8	190.8	181.4	169.6	156.1	145.7	134.9	128.5	122.1	113.7	106.9	98.81	91.37	80.74	79.80	76.66	72.88	64.12	57.52	51.77	47.87	44.54	42.47	39.44	35.08	31.84	28.25	26.87	28.81	35.89	57.40	251.7	410.3	28.68	5.686	3.097	2.547	2.245	2.088	1.652	1.702	1.504	1.496	1.572	1.399	1.263	1.349	1.425	1.440
525.0	229.3	345.4	373.4	428.4	436.0	442.5	462.8	565.2	708.7	446.4	363.8	345.2	291.8	249.7	231.2	221.6	204.5	187.6	198.8	192.7	181.3	174.7	175.9	176.1	180.7	180.4	176.6	176.0	174.9	170.4	165.2	151.8	144.0	132.6	124.0	119.7	112.1	104.2	99.29	90.77	84.24	75.91	74.46	71.36	67.60	63.07	56.55	50.79	47.65	43.62	41.67	38.92	35.33	32.13	29.41	27.02	25.65	25.12	27.02	77.52	301.2	322.0	25.02	3.951	2.814	2.290	1.931	1.651	1.442	1.453	1.376	1.378	1.296	1.255	1.329	1.256	1.357
530.0	207.3	299.1	318.2	366.3	379.3	391.4	391.8	432.8	582.0	514.6	335.3	307.6	260.0	224.6	204.0	194.5	179.8	165.1	174.0	167.4	158.2	152.9	151.8	152.5	153.9	155.1	152.3	152.1	150.0	148.1	143.2	134.8	126.1	116.9	108.6	104.7	99.35	92.98	88.34	81.98	75.01	68.71	67.72	64.94	60.30	58.11	55.37	49.61	44.98	41.68	40.64	37.89	35.03	32.31	29.14	27.72	25.26	23.62	21.33	29.79	87.90	221.9	242.8	95.56	8.282	2.573	2.014	1.642	1.403	1.300	1.226	1.268	1.129	1.139	1.161	1.056	1.213
535.0	181.2	253.5	270.2	308.3	326.4	342.5	341.1	349.0	407.3	516.9	360.4	268.4	230.4	195.7	178.7	169.9	155.6	139.6	151.5	144.0	135.5	130.6	129.7	130.4	131.0	130.3	130.1	130.3	128.6	128.6	123.0	116.0	108.6	100.2	95.46	90.44	85.77	81.23	77.11	72.02	67.25	60.70	60.73	58.42	53.55	51.78	50.84	48.73	42.91	39.04	38.26	35.67	32.94	31.62	28.69	27.48	25.09	23.20	19.78	19.53	30.19	58.76	122.6	301.6	131.4	6.908	2.040	1.773	1.485	1.303	1.199	1.104	1.106	0.993	1.015	0.998	1.047
540.0	154.4	233.4	238.6	275.5	285.6	316.2	303.7	308.0	328.6	430.1	422.6	245.1	204.3	175.9	161.9	152.2	138.1	125.3	133.7	128.5	119.8	113.8	115.1	116.0	117.1	115.9	114.2	115.5	115.4	115.2	109.2	103.9	96.97	90.45	85.19	82.04	77.30	72.85	70.09	65.24	61.30	55.26	56.13	53.59	49.57	47.34	45.59	45.82	41.40	37.50	36.03	33.65	31.83	30.59	28.13	26.72	24.42	22.93	19.79	17.54	17.43	22.44	36.78	167.2	300.1	28.44	3.822	1.943	1.467	1.204	1.110	1.010	1.024	0.865	0.832	0.778	0.811
545.0	139.7	199.6	212.4	245.5	247.5	282.3	280.0	275.8	286.9	323.3	434.7	265.5	184.1	161.3	147.1	139.1	127.4	111.6	119.9	116.8	107.7	102.6	102.0	104.2	103.6	104.1	102.7	103.5	102.8	101.9	98.92	93.86	87.38	81.42	77.04	73.98	70.66	65.94	62.86	59.73	55.99	50.45	51.80	49.31	45.11	43.81	41.64	41.77	40.03	36.46	34.70	32.37	30.06	29.17	27.20	26.39	24.15	22.70	20.00	16.83	14.59	14.53	15.80	49.82	209.0	216.0	23.68	2.483	1.555	1.386	1.034	0.964	1.032	0.845	0.816	0.746	0.763
550.0	118.6	178.7	182.9	210.6	208.8	238.5	245.4	240.4	242.6	241.9	326.7	340.9	175.6	140.6	128.1	121.1	111.1	98.22	102.6	99.69	93.52	89.03	88.59	87.74	87.93	88.19	87.06	87.07	88.35	86.09	84.46	80.75	74.91	69.74	65.81	63.44	60.51	57.25	54.29	51.35	48.30	44.48	45.14	43.52	40.39	38.68	37.28	35.93	35.74	34.18	31.85	29.04	27.35	26.62	25.14	24.24	22.97	21.72	19.22	16.27	13.95	12.63	11.50	17.75	59.36	152.5	195.2	79.91	5.789	1.438	1.075	0.990	0.933	0.788	0.679	0.691	0.707
555.0	107.3	139.8	159.9	178.8	175.9	196.5	206.9	211.5	203.2	193.7	213.9	323.9	218.9	119.9	108.2	101.5	93.35	82.37	87.04	82.39	77.30	74.36	73.64	73.38	73.38	74.07	72.39	72.86	73.59	71.88	70.81	66.60	61.35	58.33	54.72	53.40	49.83	48.15	46.16	43.21	40.34	37.60	38.24	36.93	34.62	33.43	32.36	30.63	29.76	30.43	29.14	26.40	24.87	23.60	22.41	21.77	21.42	19.74	18.12	14.91	13.09	11.41	10.33	10.49	18.57	38.82	87.15	214.9	93.49	4.484	1.242	0.960	0.835	0.754	0.643	0.739	0.598
560.0	89.28	120.5	130.1	153.2	157.8	165.8	178.9	184.8	178.2	169.5	165.7	248.4	257.1	113.8	96.83	89.01	80.25	71.14	73.77	69.87	66.63	63.56	62.76	64.53	63.35	62.74	61.93	62.12	62.83	62.29	60.02	57.38	52.70	50.18	47.73	44.87	43.43	41.44	39.57	37.64	35.06	32.53	33.10	32.86	30.03	29.48	28.57	27.27	26.45	26.13	26.18	24.72	22.11	21.23	20.04	19.96	19.34	18.02	16.59	14.50	12.54	10.57	9.656	8.604	9.490	12.93	24.28	113.6	201.3	27.00	1.967	0.987	0.739	0.681	0.596	0.567	0.587
565.0	73.89	112.3	118.5	130.3	137.9	144.8	148.7	162.9	159.1	150.3	140.1	176.8	256.3	136.5	81.41	77.10	68.28	61.52	63.46	60.11	56.97	54.90	54.43	54.28	53.30	53.97	53.33	52.71	53.65	53.19	51.73	49.03	46.40	42.44	40.36	38.53	36.84	34.91	33.71	32.07	30.09	27.89	28.39	28.70	26.94	25.61	24.82	23.98	22.74	22.55	22.96	22.62	20.25	18.93	17.72	18.16	17.07	16.32	15.34	13.06	11.60	10.07	9.110	7.855	7.253	7.131	8.826	32.02	132.9	158.2	20.79	1.221	0.737	0.667	0.522	0.515	0.503
570.0	64.96	94.51	93.23	102.8	106.8	116.5	118.5	131.2	137.7	123.0	118.5	124.9	176.7	192.8	79.20	61.90	55.03	49.04	50.83	48.21	45.49	43.49	43.03	42.98	43.06	42.77	42.17	41.83	41.74	41.86	40.36	38.69	35.96	33.78	32.18	30.99	29.21	27.82	26.95	25.36	24.35	22.56	22.74	22.68	21.59	20.47	19.91	19.29	18.44	18.05	18.15	17.89	17.26	15.86	14.91	14.93	14.32	13.93	12.97	11.32	10.15	8.991	7.948	6.947	6.049	5.321	5.034	9.756	35.80	96.72	120.6	47.17	3.065	0.618	0.442	0.460	0.418
575.0	51.82	76.87	74.63	86.36	88.07	95.37	90.65	101.6	113.0	106.4	101.2	97.51	100.2	174.6	123.3	49.20	42.51	38.52	38.90	37.17	34.26	34.20	33.37	32.60	33.20	32.97	32.60	32.29	31.84	32.01	31.23	29.69	27.62	25.50	24.28	23.97	22.06	21.18	20.75	19.78	18.52	17.46	17.41	17.34	16.66	15.87	15.14	15.06	14.75	13.76	13.82	13.84	13.71	13.17	12.14	11.95	11.61	11.10	10.49	9.512	8.335	7.802	6.691	5.981	5.134	4.469	3.777	4.495	9.705	23.18	51.79	120.1	28.19	2.110	0.509	0.359	0.334
580.0	43.34	64.25	63.49	66.94	74.52	74.70	75.93	82.06	97.12	99.34	86.36	83.16	69.51	120.8	169.8	50.93	34.60	31.07	32.35	29.92	28.49	27.71	27.85	26.31	27.41	26.79	26.10	26.16	26.68	25.88	24.97	24.16	22.18	20.96	19.86	18.69	18.20	17.39	16.73	16.00	15.02	14.49	14.30	14.44	13.76	12.74	12.94	12.71	12.04	11.49	11.30	11.10	11.12	11.29	10.49	9.999	9.805	9.505	8.623	7.881	7.173	6.550	5.947	5.186	4.538	3.909	3.443	3.065	3.815	6.394	13.42	62.60	106.2	22.11	0.889	0.307	0.263
585.0	42.82	55.67	52.43	61.94	57.89	64.29	64.76	71.71	82.09	91.76	78.61	72.35	57.79	72.04	166.4	86.24	29.77	25.90	27.40	25.62	23.80	23.02	22.84	21.84	22.05	22.65	22.12	21.81	21.99	21.35	21.00	19.94	18.85	17.82	16.26	15.95	14.96	14.85	14.03	12.94	12.81	12.24	12.02	12.02	11.30	10.89	10.82	10.71	10.33	9.579	9.457	8.901	9.120	9.568	9.168	8.700	8.623	8.090	7.317	6.955	6.296	5.730	5.024	4.541	4.150	3.524	3.066	2.689	2.249	2.578	3.974	16.94	72.94	86.10	13.72	0.395	0.270
590.0	35.07	48.61	44.35	51.82	49.17	52.95	53.49	58.94	65.75	77.59	72.38	62.62	48.69	43.04	100.4	143.1	39.28	20.29	22.03	20.56	18.62	18.05	17.91	17.60	17.45	18.16	17.70	17.26	17.36	17.00	16.45	15.46	14.90	14.10	12.72	12.42	12.03	11.63	10.93	10.78	10.04	9.517	9.686	9.281	8.938	8.753	8.575	8.537	8.180	7.751	7.656	7.318	7.103	7.341	7.538	7.241	7.096	6.525	6.026	5.753	5.241	4.625	4.367	3.994	3.511	2.978	2.501	2.115	1.805	1.576	1.638	4.456	19.28	52.07	63.13	17.51	1.579
595.0	27.39	41.40	41.72	44.52	40.92	42.20	42.08	44.56	51.88	61.40	64.81	55.89	39.27	31.67	44.84	124.7	89.39	17.40	17.15	16.04	14.39	14.12	13.99	13.81	13.62	13.66	13.95	13.09	13.36	13.34	12.73	11.96	11.33	10.96	9.764	9.718	9.070	8.769	8.419	8.068	7.896	7.541	7.667	7.398	6.900	6.813	6.785	6.559	6.325	6.082	5.905	5.850	5.388	5.273	5.720	5.953	5.818	5.284	4.833	4.457	4.307	3.747	3.542	3.041	3.076	2.532	2.152	1.837	1.603	1.240	0.928	1.604	4.711	12.20	27.56	64.44	23.74
600.0	26.01	35.43	33.54	38.58	38.49	38.99	36.42	40.14	44.62	52.46	58.22	51.51	35.48	26.57	26.74	77.97	137.0	24.60	14.52	13.49	12.65	11.95	11.99	12.03	11.59	11.23	11.14	10.94	10.97	11.32	10.72	10.28	9.245	8.974	8.286	8.105	7.492	7.321	6.764	6.610	6.403	6.221	6.391	6.106	5.793	5.651	5.663	5.335	5.436	4.939	4.883	4.740	4.509	4.496	4.568	4.836	4.826	4.767	4.082	3.850	3.550	3.171	2.917	2.657	2.513	2.283	1.876	1.543	1.251	1.161	0.769	0.891	1.482	3.119	6.941	34.87	60.53
605.0	22.58	32.19	32.16	32.47	30.21	33.29	31.16	33.92	39.67	44.91	50.57	52.30	33.00	24.34	20.66	41.65	131.5	62.26	12.51	11.22	10.56	9.735	10.66	10.21	9.859	9.655	9.527	9.625	9.595	9.444	8.794	8.412	8.074	7.546	6.702	6.655	6.332	6.303	5.780	5.456	5.244	5.011	5.177	4.962	4.940	4.483	4.699	4.610	4.355	4.159	4.118	4.066	3.737	3.793	3.660	3.976	4.156	4.151	3.487	3.025	3.193	2.830	2.373	2.231	2.101	1.837	1.561	1.466	1.184	0.833	0.732	0.594	0.639	0.990	1.839	9.357	41.39
610.0	24.20	30.06	28.07	27.67	25.75	26.38	27.78	29.68	34.91	38.73	43.09	49.12	33.75	22.88	19.70	22.20	72.05	110.7	27.10	9.276	8.749	7.648	8.350	8.247	7.891	7.887	7.527	7.604	7.687	7.502	6.924	6.640	6.443	5.869	5.521	5.200	4.878	4.750	4.564	4.243	4.184	3.880	4.076	3.993	3.691	3.677	3.677	3.596	3.424	3.330	3.360	3.128	2.979	3.033	2.968	3.137	3.286	3.355	2.895	2.700	2.461	2.182	1.997	1.832	1.590	1.483	1.374	1.241	0.967	0.656	0.689	0.537	0.457	0.466	0.629	2.302	10.87
615.0	19.90	29.46	27.00	25.20	21.93	23.84	22.64	22.76	29.30	33.09	34.15	41.76	34.32	20.62	17.90	15.32	27.82	91.31	73.53	8.412	6.672	6.214	6.562	6.694	6.222	6.060	6.115	5.948	5.982	5.615	5.492	5.161	4.854	4.610	4.374	3.865	3.760	3.519	3.517	3.369	3.049	3.004	3.108	3.069	3.032	2.848	2.830	2.801	2.531	2.650	2.609	2.402	2.240	2.329	2.340	2.367	2.319	2.562	2.401	2.290	1.996	1.707	1.541	1.431	1.257	1.099	1.008	0.991	0.883	0.590	0.564	0.474	0.435	0.334	0.402	0.662	2.577
620.0	17.30	24.85	20.30	21.91	19.82	20.90	20.74	21.72	27.17	28.21	29.55	33.33	33.81	21.00	16.16	14.17	14.73	52.64	124.7	19.77	5.539	5.430	5.439	5.110	4.996	5.208	5.001	4.870	4.966	4.649	4.228	4.139	3.959	3.712	3.212	3.291	3.035	2.871	2.938	2.803	2.629	2.418	2.573	2.622	2.520	2.341	2.371	2.249	2.103	2.113	2.054	2.015	1.839	1.864	1.910	1.903	1.909	1.953	1.947	1.910	1.591	1.374	1.391	1.185	1.075	0.970	0.872	0.888	0.732	0.642	0.493	0.415	0.342	0.225	0.228	0.301	0.734
625.0	19.97	28.14	20.10	19.38	16.44	18.22	19.14	18.88	23.12	25.21	29.82	30.75	30.80	22.44	15.56	14.19	11.02	24.27	114.1	55.70	5.064	4.754	4.521	4.736	4.501	4.549	4.279	4.269	4.267	3.782	3.845	3.396	3.332	3.013	2.834	2.781	2.579	2.515	2.412	2.336	2.142	1.943	2.235	2.173	1.994	2.077	1.915	1.737	1.771	1.674	1.720	1.656	1.602	1.552	1.588	1.634	1.568	1.650	1.772	1.631	1.340	1.258	1.186	1.022	1.100	0.820	0.716	0.757	0.616	0.588	0.479	0.361	0.322	0.289	0.190	0.243	0.282
630.0	22.25	23.52	17.14	17.88	15.44	17.40	17.93	17.05	21.17	23.00	26.30	28.14	26.70	26.10	17.39	14.29	10.66	11.62	56.31	96.65	19.44	3.960	3.917	3.919	3.843	3.674	3.520	3.497	3.372	3.009	3.009	2.673	2.524	2.345	2.252	2.170	2.030	1.981	1.801	1.763	1.659	1.588	1.638	1.649	1.622	1.653	1.469	1.406	1.319	1.284	1.335	1.289	1.293	1.156	1.229	1.307	1.211	1.298	1.183	1.224	1.090	1.042	0.949	0.707	0.823	0.687	0.611	0.550	0.544	0.468	0.400	0.368	0.270	0.233	0.175	0.192	0.179
635.0	21.67	25.65	18.19	16.03	14.30	14.78	15.14	15.25	18.10	21.88	23.57	26.52	24.79	27.01	19.84	15.13	11.26	8.257	18.63	70.80	61.09	4.377	3.196	3.080	3.257	3.011	2.933	2.928	2.649	2.398	2.488	2.090	2.079	1.895	1.827	1.689	1.594	1.474	1.405	1.371	1.320	1.282	1.283	1.265	1.155	1.205	1.123	1.217	1.032	1.062	1.033	1.013	0.864	1.032	0.969	1.029	1.002	0.951	0.885	0.794	0.887	0.839	0.741	0.657	0.647	0.550	0.546	0.484	0.464	0.348	0.343	0.340	0.245	0.214	0.184	0.153	0.185
640.0	24.41	24.31	19.07	13.82	15.27	14.18	13.51	14.55	17.49	21.60	23.11	25.86	23.75	25.05	22.96	16.11	11.96	8.485	9.451	37.30	94.26	15.41	2.591	2.779	2.633	2.749	2.389	2.328	2.345	2.160	2.017	1.818	1.680	1.561	1.376	1.341	1.377	1.192	1.078	1.112	1.200	1.020	0.979	1.040	1.005	0.992	0.994	0.957	0.934	0.852	0.735	0.806	0.719	0.714	0.709	0.797	0.802	0.842	0.788	0.684	0.788	0.686	0.645	0.597	0.547	0.396	0.405	0.430	0.396	0.273	0.279	0.270	0.243	0.216	0.193	0.149	0.167
645.0	25.24	28.54	20.28	15.18	13.97	13.10	13.55	13.08	16.21	18.41	22.28	26.47	23.74	23.27	25.25	17.69	12.85	8.598	7.363	15.98	79.37	47.15	2.662	2.337	2.383	2.365	2.233	1.979	2.075	1.631	1.655	1.473	1.251	1.313	1.123	1.185	1.079	1.068	1.006	0.915	0.934	0.925	0.917	0.915	0.926	0.752	0.860	0.862	0.717	0.688	0.593	0.722	0.624	0.608	0.492	0.660	0.690	0.673	0.686	0.618	0.549	0.612	0.582	0.532	0.478	0.364	0.313	0.352	0.384	0.268	0.225	0.185	0.271	0.248	0.128	0.135	0.184
650.0	31.32	31.97	20.18	15.72	13.81	12.43	13.37	12.95	15.74	18.49	22.95	25.80	25.58	23.24	25.91	20.71	13.59	9.107	7.621	8.114	46.94	79.08	6.668	2.173	2.240	2.153	2.031	1.823	1.595	1.550	1.434	1.237	1.169	1.206	0.960	0.996	0.917	0.981	0.816	0.865	0.772	0.746	0.755	0.790	0.720	0.611	0.687	0.691	0.629	0.592	0.561	0.589	0.577	0.495	0.495	0.555	0.579	0.536	0.532	0.444	0.517	0.505	0.565	0.497	0.424	0.378	0.307	0.344	0.320	0.278	0.181	0.224	0.201	0.161	0.179	0.138	0.160
