Sample:	'1
File name:	T2025041709 张重良村东南桥.FD3
Run date:	'10:52:27, 04/21/2025
Operator:	Administrator
Comment:	'

Instrument
Model:	F-2700 FL Spectrophotometer
Serial number:	23B8-004
ROM Version:	4J14000 07

Instrument parameters
Measurement type:	3-D scan
Data mode:	Fluorescence
EX  Start WL:	220.0 nm
EX  End WL:	600.0 nm
EX Sampling interval:	5.0 nm
EM  Start WL:	230.0 nm
EM  End WL:	650.0 nm
EM Sampling interval:	5.0 nm
Scan speed:	12000 nm/min
EX Slit:	5.0 nm
EM Slit:	5.0 nm
PMT Voltage:	700 V
Response:	Auto 
Corrected spectra:	Off
Contour interval:	50.000

Peak integration
Integration method:	Rectangular
Sensitivity:	1
Threshold:	1.000

Peaks
No.	ApexEX/EM(nm)	Height(Data)
1	230.0/345.0	963.3
2	230.0/500.0	308.6
3	230.0/605.0	44.26
4	235.0/510.0	264.8
5	240.0/405.0	689.6
6	240.0/525.0	243.9
7	245.0/535.0	198.4
8	250.0/545.0	154.2
9	255.0/280.0	575.7
10	255.0/560.0	133.9
11	260.0/285.0	587.2
12	260.0/575.0	107.6
13	265.0/290.0	606.7
14	265.0/585.0	106.2
15	270.0/300.0	906.9
16	270.0/595.0	88.22
17	275.0/305.0	1065
18	275.0/610.0	79.54
19	280.0/310.0	932.6
20	280.0/340.0	695.0
21	280.0/620.0	64.78
22	285.0/315.0	857.1
23	285.0/635.0	47.81
24	290.0/325.0	769.3
25	305.0/345.0	486.9
26	310.0/350.0	409.8
27	315.0/355.0	388.7
28	320.0/365.0	369.1
29	325.0/370.0	352.7
30	330.0/375.0	342.2
31	335.0/380.0	340.5
32	340.0/390.0	310.7
33	350.0/400.0	293.3
34	430.0/505.0	30.03
35	445.0/525.0	18.36
36	515.0/280.0	3.474
37	520.0/285.0	3.985
38	530.0/290.0	3.635
39	540.0/295.0	4.535
40	545.0/300.0	5.571
41	555.0/305.0	5.569
42	560.0/310.0	5.103
43	570.0/315.0	5.259
44	580.0/320.0	4.907
45	585.0/325.0	4.716

Data points
	220.0	225.0	230.0	235.0	240.0	245.0	250.0	255.0	260.0	265.0	270.0	275.0	280.0	285.0	290.0	295.0	300.0	305.0	310.0	315.0	320.0	325.0	330.0	335.0	340.0	345.0	350.0	355.0	360.0	365.0	370.0	375.0	380.0	385.0	390.0	395.0	400.0	405.0	410.0	415.0	420.0	425.0	430.0	435.0	440.0	445.0	450.0	455.0	460.0	465.0	470.0	475.0	480.0	485.0	490.0	495.0	500.0	505.0	510.0	515.0	520.0	525.0	530.0	535.0	540.0	545.0	550.0	555.0	560.0	565.0	570.0	575.0	580.0	585.0	590.0	595.0	600.0
230.0	50.13	1278	3234	895.0	43.26	7.414	5.170	4.811	3.937	3.778	3.620	3.005	2.722	2.401	1.987	1.762	1.373	1.269	1.240	1.188	1.067	0.995	0.920	0.820	0.809	0.704	0.653	0.651	0.594	0.584	0.574	0.614	0.502	0.466	0.435	0.432	0.407	0.427	0.377	0.348	0.373	0.482	0.488	0.425	0.337	0.358	2.240	12.20	22.29	15.52	4.555	0.843	0.332	0.289	0.274	0.255	0.280	0.248	0.245	0.238	0.252	0.255	0.206	0.230	0.249	0.240	0.220	0.222	0.214	0.230	0.204	0.227	0.209	0.203	0.216	0.223	0.221
235.0	110.1	355.1	2117	3569	593.8	78.00	6.817	5.160	4.668	4.351	3.901	3.157	3.191	2.764	2.145	1.784	1.337	1.494	1.317	1.302	1.145	0.962	0.907	1.021	0.726	0.742	0.648	0.677	0.586	0.648	0.565	0.581	0.566	0.461	0.506	0.383	0.396	0.431	0.451	0.362	0.379	0.392	0.420	0.486	0.573	0.404	0.737	3.125	8.125	15.30	21.98	20.35	10.48	1.603	0.337	0.291	0.286	0.291	0.310	0.243	0.247	0.209	0.266	0.256	0.289	0.270	0.250	0.231	0.241	0.204	0.214	0.259	0.240	0.256	0.274	0.299	0.229
240.0	153.5	184.3	620.2	3041	3864	483.1	40.55	5.889	5.483	5.713	4.001	4.115	3.327	2.562	2.446	1.882	1.486	1.541	1.346	1.211	1.076	1.066	0.911	0.959	0.961	0.694	0.690	0.609	0.658	0.640	0.538	0.548	0.544	0.449	0.459	0.451	0.412	0.428	0.456	0.335	0.379	0.370	0.342	0.420	0.608	0.675	0.616	1.096	2.137	4.336	11.78	29.29	40.86	20.57	8.342	1.107	0.342	0.337	0.305	0.254	0.333	0.293	0.284	0.297	0.282	0.301	0.222	0.252	0.237	0.234	0.222	0.286	0.266	0.235	0.219	0.261	0.217
245.0	109.4	224.6	228.6	1006	4260	3698	365.9	18.93	6.502	6.070	5.506	4.191	3.491	2.817	2.773	2.071	1.829	1.406	1.158	1.087	1.330	1.236	0.894	0.976	0.890	0.778	0.777	0.650	0.722	0.709	0.568	0.559	0.522	0.448	0.392	0.424	0.411	0.416	0.516	0.386	0.375	0.329	0.384	0.459	0.441	0.613	0.824	0.949	0.858	1.249	2.998	9.066	26.09	46.26	48.40	18.55	5.518	0.705	0.406	0.325	0.247	0.247	0.257	0.267	0.272	0.332	0.270	0.276	0.259	0.243	0.209	0.238	0.228	0.236	0.244	0.232	0.242
250.0	47.02	142.4	267.6	342.4	1315	4031	4610	1350	93.02	8.661	6.905	5.177	4.745	3.283	2.876	2.350	1.850	1.695	1.393	1.131	1.300	1.064	1.096	0.995	0.876	0.780	0.779	0.743	0.747	0.634	0.624	0.604	0.616	0.509	0.486	0.467	0.435	0.430	0.465	0.443	0.383	0.415	0.406	0.475	0.386	0.441	0.520	0.759	1.057	1.054	1.184	2.370	6.291	13.92	27.56	40.49	43.20	47.52	14.96	6.090	0.761	0.353	0.355	0.348	0.319	0.312	0.355	0.305	0.302	0.317	0.240	0.271	0.287	0.244	0.254	0.255	0.286
255.0	29.35	49.29	164.1	367.4	414.7	990.2	3447	7585	1921	124.4	9.382	7.141	5.844	3.715	3.543	2.666	1.997	1.825	1.485	1.302	1.412	1.251	1.169	1.209	0.791	0.906	0.909	0.896	0.755	0.779	0.673	0.615	0.648	0.544	0.494	0.510	0.556	0.509	0.476	0.399	0.410	0.448	0.439	0.476	0.397	0.440	0.371	0.471	0.564	0.868	1.346	1.666	2.067	3.427	6.389	9.639	15.80	44.42	82.92	88.45	24.16	8.238	0.741	0.431	0.442	0.378	0.382	0.394	0.295	0.289	0.248	0.350	0.280	0.279	0.290	0.362	0.288
260.0	25.35	29.29	66.61	259.1	378.9	295.1	976.7	5586	8587	1554	78.82	10.68	7.512	4.993	4.355	3.195	2.269	1.992	1.699	1.705	1.513	1.433	1.209	1.155	0.896	1.087	0.900	0.823	0.820	0.805	0.737	0.613	0.589	0.594	0.459	0.514	0.503	0.480	0.396	0.403	0.428	0.488	0.488	0.523	0.456	0.442	0.343	0.365	0.393	0.433	0.798	1.675	2.066	1.835	1.887	2.530	3.951	11.48	32.87	76.93	107.7	90.37	20.78	4.256	0.506	0.417	0.377	0.405	0.361	0.314	0.319	0.391	0.410	0.352	0.308	0.377	0.333
265.0	25.91	28.34	30.65	107.0	361.6	307.4	265.4	1702	7838	9148	1181	35.41	9.835	6.396	4.765	3.543	2.621	2.088	1.956	1.748	1.600	1.493	1.202	1.061	1.136	1.014	1.127	0.944	0.877	1.026	0.693	0.669	0.684	0.619	0.563	0.529	0.570	0.427	0.390	0.434	0.422	0.469	0.560	0.492	0.436	0.482	0.399	0.460	0.342	0.350	0.422	0.851	1.643	2.158	1.910	1.221	1.282	2.957	7.904	21.07	53.25	107.2	128.7	30.62	15.77	1.910	0.460	0.448	0.485	0.312	0.462	0.339	0.335	0.404	0.430	0.339	0.336
270.0	42.97	44.02	39.49	45.84	155.2	365.9	333.1	444.7	2293	7406	9999.9	3769	77.03	10.12	6.378	4.502	3.293	2.876	2.453	1.907	1.707	1.459	1.421	1.209	1.196	1.085	1.118	0.961	0.952	0.909	0.777	0.749	0.748	0.686	0.608	0.564	0.565	0.489	0.465	0.479	0.451	0.529	0.498	0.523	0.507	0.568	0.452	0.468	0.479	0.386	0.362	0.483	0.718	1.129	1.778	2.174	2.233	1.724	2.364	5.155	12.64	29.41	57.56	80.49	114.1	90.35	66.32	11.64	2.571	0.542	0.487	0.443	0.403	0.425	0.466	0.336	0.380
275.0	91.16	97.84	85.45	51.41	61.25	148.3	439.2	393.2	573.1	1787	5882	9999.9	5231	92.05	10.68	6.620	5.010	3.770	3.052	2.373	2.194	1.832	1.532	1.573	1.345	1.078	1.294	0.953	0.904	0.917	0.975	0.925	0.814	0.911	0.690	0.661	0.499	0.582	0.555	0.567	0.469	0.541	0.544	0.596	0.636	0.692	0.560	0.527	0.557	0.461	0.454	0.489	0.479	0.586	0.686	1.085	2.006	3.127	2.956	2.144	3.327	7.101	13.45	18.80	32.25	62.84	137.0	166.2	32.00	17.04	1.677	0.633	0.569	0.538	0.460	0.419	0.570
280.0	138.6	165.4	144.5	84.42	50.02	68.89	248.9	575.7	332.3	468.1	1610	7877	9999.9	1082	52.66	9.663	6.327	4.521	3.526	2.833	2.220	1.897	1.648	1.720	1.385	1.383	1.270	1.189	1.194	1.046	0.955	0.925	0.865	0.908	0.755	0.762	0.702	0.627	0.591	0.602	0.646	0.618	0.605	0.618	0.714	0.750	0.789	0.761	0.743	0.618	0.545	0.562	0.488	0.496	0.553	0.631	0.964	1.919	3.174	3.474	2.391	2.323	3.592	4.834	7.908	15.60	45.69	107.7	159.0	163.5	28.98	11.18	0.996	0.573	0.547	0.558	0.563
285.0	195.1	231.2	202.0	125.0	64.82	58.26	113.3	421.9	587.2	257.0	462.6	2347	9917	9028	767.7	23.37	8.406	6.143	4.213	3.330	2.578	2.009	1.866	1.804	1.527	1.511	1.353	1.323	1.159	1.072	0.931	0.804	0.891	0.793	0.854	0.784	0.836	0.699	0.643	0.656	0.664	0.630	0.639	0.635	0.820	0.807	0.905	1.018	0.863	0.710	0.712	0.616	0.610	0.622	0.491	0.649	0.669	1.013	1.706	3.052	3.985	2.939	1.859	1.895	2.568	4.332	11.18	27.77	63.95	141.1	180.0	143.2	23.35	5.095	0.783	0.646	0.590
290.0	256.7	335.1	291.8	192.0	98.10	73.32	91.44	196.9	499.0	606.7	359.7	689.3	2821	7676	9118	2712	43.78	8.769	5.513	4.269	3.393	2.486	2.231	2.039	1.738	1.566	1.518	1.341	1.125	1.099	1.099	0.963	0.946	0.972	0.955	0.910	0.910	0.821	0.735	0.769	0.749	0.746	0.738	0.773	0.863	0.972	1.091	1.144	1.170	0.959	0.830	0.759	0.695	0.644	0.602	0.580	0.623	0.818	0.996	1.397	2.329	3.255	3.635	3.202	2.149	2.074	3.537	7.341	15.52	36.01	66.10	109.4	134.8	103.3	91.90	15.96	5.448
295.0	311.2	414.2	379.3	249.3	138.7	100.2	112.2	157.3	273.6	592.7	793.4	462.1	839.9	1900	4758	9999.9	3682	49.06	8.618	5.936	4.363	3.397	2.645	2.379	1.974	1.601	1.454	1.360	1.227	1.345	1.195	1.096	1.119	1.155	0.986	1.087	1.042	0.914	0.806	0.899	0.723	0.811	0.889	0.903	1.013	1.145	1.228	1.302	1.423	1.224	0.971	1.092	0.939	0.772	0.729	0.741	0.716	0.900	0.962	1.083	1.492	1.858	2.327	3.720	4.535	3.700	2.568	3.085	4.895	9.456	15.77	25.62	33.97	54.07	133.5	191.0	145.3
300.0	346.4	461.5	409.0	279.3	173.3	136.6	152.5	176.6	244.5	416.9	906.9	744.7	477.4	612.3	1299	6451	9999.9	624.6	26.81	7.500	5.531	3.727	2.995	2.671	2.359	2.028	1.712	1.476	1.339	1.417	1.191	1.103	1.174	1.097	1.076	1.054	1.145	1.028	0.916	0.826	0.783	0.810	0.764	0.870	1.068	1.359	1.183	1.342	1.312	1.247	1.049	1.245	0.982	0.847	0.882	0.930	0.911	1.060	1.159	1.266	1.331	1.387	1.746	2.362	3.771	5.571	4.654	3.402	2.780	3.644	4.990	7.109	8.811	13.58	38.45	97.00	184.1
305.0	367.4	471.9	457.9	312.5	197.9	167.9	187.5	217.9	285.8	390.3	687.9	1065	599.0	387.6	449.6	1825	8202	9278	462.7	12.44	7.257	4.889	3.461	3.095	2.482	2.056	2.076	1.707	1.445	1.250	1.252	1.122	1.118	1.183	1.203	1.212	1.073	1.071	1.032	0.887	0.877	0.800	0.770	0.917	1.020	1.155	1.329	1.402	1.372	1.244	1.275	1.174	1.069	0.970	1.007	0.981	1.000	1.162	1.166	1.463	1.567	1.582	1.835	2.295	2.861	3.923	5.414	5.569	3.929	2.877	2.816	3.053	3.204	4.261	9.749	23.64	59.70
310.0	363.4	483.8	473.3	334.0	223.7	196.2	220.0	267.6	331.7	418.3	560.4	835.6	932.6	530.4	309.2	529.2	2265	6676	6832	1806	28.28	7.446	5.180	3.766	3.102	2.557	2.178	2.061	1.794	1.447	1.308	1.306	1.109	1.142	1.244	1.157	1.080	1.152	1.075	0.918	0.915	0.885	0.896	0.991	1.076	1.282	1.526	1.510	1.558	1.354	1.204	1.203	1.136	1.046	1.114	1.168	1.167	1.361	1.330	1.508	1.701	1.843	2.006	2.381	2.771	3.012	3.743	4.235	5.103	4.795	3.989	2.759	2.241	2.343	3.519	6.382	14.41
315.0	381.8	503.3	497.5	342.5	238.0	219.2	246.0	304.7	365.8	450.6	550.8	650.6	783.2	857.1	414.4	275.3	606.5	1591	4030	9711	2356	27.82	7.933	5.340	3.676	3.026	2.481	2.253	1.732	1.753	1.505	1.241	1.235	1.136	1.237	1.239	1.172	1.105	1.049	0.971	1.004	0.889	0.935	1.060	1.144	1.308	1.403	1.596	1.683	1.286	1.293	1.381	1.228	1.054	1.175	1.109	1.343	1.405	1.515	1.690	1.847	2.056	2.163	2.542	2.713	2.956	3.165	3.236	3.380	4.082	5.259	4.952	3.136	2.249	2.119	2.757	4.278
320.0	416.0	534.1	552.2	377.3	269.9	251.0	275.0	322.8	398.3	488.0	571.0	634.9	662.6	815.4	665.0	280.7	267.2	443.3	1076	6260	8835	435.9	15.11	6.581	5.099	3.606	2.755	2.291	2.034	1.932	1.591	1.327	1.265	1.246	1.226	1.250	1.196	1.090	1.007	0.973	1.037	0.924	0.954	0.982	1.128	1.444	1.565	1.638	1.815	1.475	1.304	1.483	1.264	1.352	1.252	1.268	1.537	1.655	1.664	1.782	1.877	2.098	2.233	2.634	2.676	3.012	3.123	3.087	3.167	3.406	3.870	4.745	4.907	3.795	2.339	2.044	2.094
325.0	444.7	647.8	664.3	464.9	315.1	281.6	297.0	341.8	418.4	506.8	592.8	656.7	647.6	657.7	769.3	435.8	226.3	208.3	310.9	1773	7673	3971	61.00	10.47	6.346	4.374	3.348	2.752	2.339	1.956	1.822	1.615	1.497	1.259	1.204	1.187	1.162	1.091	0.986	1.082	1.080	1.028	1.035	1.151	1.182	1.375	1.634	1.867	2.205	1.749	1.516	1.619	1.487	1.395	1.303	1.317	1.547	1.748	1.755	1.790	2.006	2.311	2.356	2.692	2.904	3.036	3.134	3.163	3.050	3.348	3.393	3.631	4.012	4.716	3.940	2.643	1.985
330.0	485.9	723.4	806.8	607.3	399.9	322.3	316.3	362.1	436.5	519.4	613.4	672.1	665.4	614.8	612.0	600.5	372.0	194.0	162.9	460.1	2161	5274	5653	1293	20.20	5.784	4.325	3.269	2.661	2.444	1.966	1.861	1.478	1.454	1.334	1.276	1.212	1.081	1.102	1.022	0.928	1.046	1.085	1.191	1.391	1.542	1.822	2.361	2.454	2.209	1.892	1.954	1.681	1.577	1.485	1.584	1.673	1.695	1.780	1.934	2.175	2.340	2.393	2.675	2.796	3.101	3.156	3.437	3.324	3.443	3.251	3.362	3.387	3.423	3.702	3.955	3.477
335.0	490.9	770.6	931.0	730.3	471.6	383.4	348.3	381.6	451.9	539.4	620.8	689.9	691.2	631.7	555.0	504.8	551.4	317.5	165.4	192.3	541.7	1261	4045	8179	420.9	20.12	5.538	4.456	3.284	2.995	2.132	2.137	1.663	1.433	1.568	1.253	1.183	1.169	1.077	1.043	1.019	1.042	1.238	1.176	1.462	1.676	2.013	2.539	2.523	2.411	2.301	2.224	2.040	1.730	1.857	1.583	1.676	1.908	2.032	1.893	2.101	2.352	2.633	2.733	3.042	3.050	3.273	3.375	3.321	3.650	3.642	3.101	3.213	3.108	2.952	3.015	3.513
340.0	517.5	794.7	941.8	787.0	524.3	413.3	377.3	398.8	467.4	543.3	625.5	694.3	695.0	640.2	561.8	465.3	496.6	471.8	221.7	152.7	195.4	332.6	1085	6052	6808	346.5	10.41	5.157	3.823	3.143	2.486	2.175	1.917	1.573	1.508	1.425	1.119	1.172	1.096	1.077	0.983	1.011	1.193	1.244	1.453	1.543	1.974	2.485	2.796	2.649	2.277	2.374	2.153	2.023	1.927	1.747	1.827	1.927	1.956	2.086	2.033	2.555	2.625	2.772	3.119	3.129	3.141	3.277	3.343	3.613	3.467	3.263	3.210	2.946	2.962	2.775	2.750
345.0	530.6	801.4	963.3	828.1	571.2	426.2	395.4	412.9	472.9	538.8	615.2	683.4	694.2	645.5	567.5	458.2	414.1	486.9	345.3	169.4	133.4	138.0	288.2	1779	7018	3283	50.57	7.260	4.863	3.661	2.597	2.263	1.832	1.781	1.477	1.413	1.182	1.384	1.215	1.014	0.928	1.106	1.191	1.178	1.424	1.599	1.870	2.536	2.737	2.616	2.393	2.677	2.346	2.275	1.815	1.785	1.891	1.808	1.865	2.134	2.226	2.264	2.525	2.801	2.951	3.099	3.233	3.261	3.207	3.516	3.320	3.544	3.263	3.052	3.082	2.873	2.712
350.0	499.0	758.9	911.6	820.1	596.5	461.6	416.8	428.9	469.6	536.9	594.0	654.4	671.2	632.4	569.9	465.8	399.7	386.3	409.8	297.4	159.3	118.8	128.4	444.7	2053	4636	4556	1023	16.91	4.651	3.421	2.746	1.950	1.777	1.502	1.447	1.247	1.206	1.088	1.012	1.020	0.914	1.172	1.039	1.371	1.574	1.820	2.385	2.703	2.531	2.301	2.537	2.324	2.199	1.853	1.849	2.053	1.885	2.010	2.182	2.190	2.293	2.461	2.681	2.786	3.024	3.018	3.262	3.122	3.418	3.352	3.395	3.263	3.102	3.110	2.983	2.897
355.0	477.7	705.9	890.8	783.2	623.4	496.5	453.4	454.1	484.6	540.4	583.6	638.3	651.1	620.3	564.9	488.9	410.3	365.3	343.5	388.7	268.2	148.0	120.4	166.4	503.9	1114	3549	6261	377.0	16.44	4.789	3.232	2.394	2.136	1.689	1.323	1.328	1.218	1.079	1.012	0.930	1.006	1.007	1.179	1.230	1.553	1.623	2.158	2.443	2.365	2.364	2.445	2.540	2.213	2.101	1.989	2.012	2.108	2.018	2.129	2.231	2.313	2.382	2.537	2.725	2.967	2.987	2.996	3.133	3.322	3.263	3.227	3.313	2.967	3.033	2.956	2.872
360.0	446.2	680.5	819.6	776.7	641.5	528.3	479.0	469.0	501.2	547.6	582.1	622.2	634.5	611.9	557.2	493.7	433.8	376.7	331.6	353.8	366.4	216.1	138.6	122.1	173.3	290.7	967.4	5015	5274	309.8	8.148	4.062	2.922	2.196	1.798	1.482	1.291	1.118	1.121	1.156	0.980	0.936	0.991	1.165	1.189	1.559	1.769	2.163	2.347	2.342	2.228	2.486	2.550	2.373	2.087	2.006	2.124	2.029	2.116	2.123	2.414	2.526	2.469	2.674	2.809	2.856	2.795	2.811	3.005	3.116	3.179	3.353	3.115	3.184	2.959	2.980	3.200
365.0	433.2	648.2	785.3	765.2	649.4	544.6	493.9	499.2	513.3	548.5	587.6	604.4	619.7	602.7	560.4	496.1	442.3	393.3	344.5	324.5	369.1	315.3	173.7	129.9	114.9	114.8	255.3	1532	5824	3009	46.34	5.778	3.535	2.687	1.786	1.609	1.296	1.265	1.085	1.050	0.920	1.045	0.979	1.079	1.115	1.478	1.600	2.087	2.205	2.090	2.124	2.466	2.562	2.347	2.227	2.069	2.191	2.193	2.236	2.210	2.286	2.520	2.630	2.652	2.949	2.760	2.933	2.816	2.972	2.975	3.135	3.032	3.113	3.085	3.090	2.983	3.096
370.0	443.8	608.3	742.9	741.5	655.3	573.7	523.2	511.3	525.7	553.8	583.5	600.9	603.1	595.4	551.5	504.5	456.3	416.6	372.9	334.6	325.9	352.7	285.9	176.2	127.8	101.4	110.2	381.3	1753	4071	3958	897.5	14.18	3.421	2.377	1.790	1.515	1.388	1.262	1.161	1.005	1.087	0.965	1.088	1.154	1.495	1.464	2.036	2.083	2.073	2.006	2.483	2.430	2.396	2.353	2.313	2.260	2.422	2.326	2.343	2.379	2.565	2.611	2.629	2.689	2.719	2.851	2.870	2.889	3.050	2.981	2.962	3.105	3.112	2.980	2.985	3.026
375.0	425.5	578.5	715.1	740.7	684.4	606.4	557.1	541.4	541.4	556.8	582.9	590.4	589.7	579.8	545.3	501.6	467.9	438.0	397.8	359.3	330.9	313.2	342.2	275.8	167.8	122.9	98.79	138.7	428.2	988.8	3218	5209	325.8	13.61	3.423	2.426	1.866	1.448	1.362	1.240	1.003	0.997	1.028	1.064	1.026	1.529	1.349	2.048	2.090	2.048	2.110	2.396	2.396	2.427	2.413	2.394	2.366	2.516	2.451	2.471	2.455	2.566	2.602	2.697	2.590	2.777	2.809	2.847	2.941	2.834	2.911	2.920	2.945	3.111	3.028	2.872	3.015
380.0	402.1	576.5	719.6	729.5	694.7	616.0	570.0	553.6	550.2	560.9	581.4	583.6	580.4	571.4	540.0	500.8	474.8	444.5	412.9	379.0	346.8	313.4	320.1	340.5	226.7	146.4	112.0	99.03	143.1	255.0	891.8	4212	4242	259.0	6.899	2.990	2.120	1.700	1.379	1.271	1.099	0.990	1.057	1.028	1.218	1.375	1.406	1.842	2.019	1.987	2.100	2.442	2.473	2.440	2.435	2.455	2.341	2.559	2.421	2.570	2.447	2.633	2.835	2.758	2.606	2.888	2.793	2.826	2.914	2.631	2.877	2.868	3.159	3.127	2.924	3.045	3.006
385.0	399.6	582.6	682.1	722.5	687.6	638.7	588.9	560.5	557.3	563.7	578.4	572.7	580.2	563.8	534.1	492.4	474.8	449.5	420.1	394.2	360.0	326.2	304.5	330.7	300.8	184.5	131.8	103.0	93.63	100.8	231.6	1281	4523	2518	38.09	4.515	2.460	2.059	1.448	1.277	1.109	1.039	1.144	1.136	1.296	1.304	1.460	1.615	1.889	1.983	1.944	2.343	2.573	2.463	2.378	2.541	2.316	2.411	2.435	2.351	2.635	2.376	2.713	2.975	2.631	2.636	2.545	2.739	2.826	2.840	2.615	2.905	2.885	2.899	3.112	2.907	2.890
390.0	404.3	565.8	672.0	709.2	683.6	639.5	597.0	582.7	566.1	569.2	578.5	573.0	570.4	552.3	525.9	489.8	470.1	453.1	427.2	405.7	375.3	344.6	317.4	300.5	310.7	267.8	176.6	127.2	101.5	83.99	96.32	318.1	1332	3002	3026	761.3	12.49	2.752	1.979	1.613	1.345	1.188	1.138	1.156	1.206	1.421	1.494	1.813	1.923	1.902	1.969	2.391	2.460	2.577	2.456	2.406	2.531	2.581	2.586	2.509	2.640	2.545	2.678	2.572	2.707	2.483	2.622	2.518	2.801	2.729	2.696	2.883	2.970	2.856	2.985	2.889	3.037
395.0	382.5	531.9	667.0	699.0	681.0	653.9	611.8	592.8	576.6	569.3	568.4	562.0	560.2	535.8	518.0	487.9	465.4	451.0	426.4	409.0	385.3	359.3	333.3	307.2	288.9	293.5	257.1	168.8	126.7	98.91	82.52	113.2	325.2	722.4	2233	3974	274.8	13.94	2.811	2.096	1.755	1.209	1.304	1.336	1.251	1.662	1.408	1.850	1.937	1.929	1.856	2.339	2.324	2.768	2.504	2.349	2.635	2.600	2.432	2.558	2.528	2.588	2.566	2.543	2.830	2.505	2.576	2.573	2.892	2.794	2.916	2.974	2.825	2.804	2.855	2.818	3.182
400.0	367.8	531.8	664.9	701.8	680.9	659.5	618.8	599.9	577.8	574.5	570.8	559.2	550.9	529.0	507.4	478.5	460.3	440.8	426.6	408.6	392.4	367.1	343.3	318.3	289.4	278.8	293.3	221.5	153.3	118.7	92.04	77.73	109.3	185.6	601.5	2916	3302	237.9	7.232	2.597	2.045	1.534	1.483	1.320	1.328	1.426	1.442	1.769	1.927	1.915	1.827	2.284	2.289	2.686	2.615	2.407	2.721	2.554	2.566	2.533	2.545	2.752	2.776	2.671	2.572	2.588	2.451	2.649	2.708	2.705	2.749	2.848	2.783	2.781	2.697	2.959	3.135
405.0	373.1	519.4	660.9	684.3	689.6	664.0	618.9	610.6	585.6	568.1	573.1	560.7	543.3	531.2	501.8	469.2	452.0	429.3	419.9	406.4	385.8	368.1	352.8	324.3	296.2	271.0	280.8	270.9	186.8	139.9	107.2	81.25	69.41	71.63	155.9	838.4	3091	2187	35.80	4.322	2.254	1.676	1.622	1.499	1.412	1.392	1.527	1.814	1.928	2.081	1.840	2.457	2.471	2.650	2.624	2.509	2.609	2.656	2.696	2.407	2.473	2.663	2.614	2.540	2.545	2.602	2.478	2.650	2.354	2.841	2.827	2.902	2.698	2.731	2.752	2.943	3.107
410.0	369.0	513.1	626.2	665.6	674.8	654.2	618.3	605.0	589.1	573.3	561.6	549.9	535.2	509.6	486.9	452.1	433.2	419.5	409.0	397.2	380.0	366.5	353.8	331.5	308.4	281.3	263.8	270.2	245.5	174.6	128.4	96.83	71.45	56.01	62.72	207.5	864.9	2124	2360	730.8	12.77	2.319	1.715	1.551	1.432	1.465	1.623	1.824	1.898	1.983	1.960	2.416	2.576	2.502	2.485	2.383	2.624	2.613	2.600	2.696	2.786	2.651	2.608	2.615	2.618	2.535	2.424	2.628	2.416	2.683	2.682	2.616	2.809	2.736	2.756	2.608	2.953
415.0	347.2	482.8	600.9	668.3	666.2	647.1	626.7	606.6	594.7	568.3	557.8	539.5	512.8	491.9	468.9	436.1	415.3	403.9	390.4	384.5	369.4	357.9	346.3	330.8	313.4	289.6	267.4	250.7	254.3	230.8	155.2	112.2	82.75	61.70	48.61	71.17	210.3	500.5	1415	2944	261.2	15.74	2.141	1.755	1.509	1.594	1.691	1.828	1.838	1.880	1.896	2.353	2.421	2.478	2.534	2.513	2.527	2.666	2.710	2.652	2.677	2.484	2.451	2.500	2.477	2.575	2.541	2.582	2.514	2.552	2.694	2.385	2.363	2.570	2.378	2.533	2.676
420.0	366.8	491.2	600.1	652.6	640.2	623.8	614.7	602.2	580.5	563.2	554.0	531.0	503.0	477.3	447.6	419.9	396.3	387.4	376.2	368.9	356.2	345.8	337.8	324.5	311.3	289.2	270.7	247.7	235.2	246.1	190.4	127.0	92.67	67.24	50.10	45.17	67.23	126.5	362.1	1850	2617	237.9	8.911	2.229	1.870	1.677	1.583	1.808	1.881	1.915	1.955	2.282	2.345	2.574	2.464	2.599	2.512	2.755	2.586	2.775	2.568	2.633	2.590	2.557	2.647	2.546	2.465	2.397	2.370	2.369	2.514	2.572	2.454	2.668	2.361	2.699	2.503
425.0	345.3	470.3	583.5	633.2	629.3	620.6	605.3	581.7	576.0	559.9	549.5	527.2	494.6	469.0	439.7	404.8	385.2	372.5	356.3	354.6	345.0	336.9	329.0	319.3	306.5	288.0	270.0	248.6	228.4	230.0	218.9	148.7	102.4	74.91	57.72	43.43	39.62	45.04	93.28	499.2	2081	2031	193.1	4.509	2.289	1.772	1.758	1.952	1.855	1.865	1.858	2.226	2.346	2.444	2.301	2.461	2.660	2.629	2.519	2.608	2.552	2.690	2.644	2.659	2.525	2.562	2.506	2.402	2.259	2.443	2.358	2.404	2.506	2.415	2.327	2.582	2.313
430.0	391.6	455.3	557.8	604.7	612.6	612.3	596.2	587.3	573.8	557.4	538.6	515.6	479.8	449.7	418.1	383.6	363.6	346.5	339.5	333.9	328.8	320.1	317.1	309.1	297.8	285.1	268.7	249.0	231.1	214.4	210.3	183.4	127.0	88.37	66.65	50.40	39.24	32.12	36.35	123.3	547.6	1502	1970	733.8	13.94	2.523	2.010	1.962	1.859	1.911	1.814	2.239	2.275	2.363	2.438	2.378	2.543	2.570	2.676	2.639	2.649	2.736	2.766	2.612	2.668	2.430	2.403	2.340	2.312	2.398	2.246	2.280	2.377	2.451	2.346	2.297	2.301
435.0	620.3	441.0	520.2	582.9	592.8	595.9	593.6	584.2	568.7	550.1	532.6	505.9	467.1	434.7	398.9	363.6	342.9	329.7	322.3	316.3	309.1	304.8	299.2	302.3	291.6	278.8	265.3	249.3	232.9	214.9	194.7	184.0	161.6	107.6	77.16	59.68	45.59	34.80	28.17	41.96	132.9	346.8	930.1	2452	1127	19.88	2.643	1.980	2.138	2.037	1.777	2.125	2.419	2.222	2.427	2.400	2.519	2.495	2.661	2.446	2.504	2.668	2.646	2.549	2.533	2.540	2.373	2.199	2.285	2.488	2.368	2.382	2.245	2.247	2.273	2.402	2.180
440.0	878.6	522.2	510.2	571.0	576.7	588.7	578.7	574.9	563.3	547.3	522.6	502.9	454.8	423.9	384.4	347.3	326.7	314.8	310.4	298.8	292.5	294.8	286.4	288.5	281.2	272.0	260.6	246.4	229.6	214.7	191.2	169.0	168.0	129.8	86.13	64.56	50.34	38.40	29.99	26.40	42.36	87.41	228.2	1316	2595	241.8	13.31	2.685	2.298	2.035	1.888	2.234	2.332	2.341	2.342	2.412	2.506	2.398	2.584	2.554	2.747	2.633	2.537	2.535	2.321	2.491	2.297	2.371	2.173	2.288	2.389	2.269	2.171	2.172	2.186	2.173	2.173
445.0	993.5	781.7	495.6	545.8	571.9	566.8	568.3	558.1	549.7	533.3	517.5	483.9	445.1	407.6	370.3	331.5	312.9	303.4	292.2	284.4	279.3	278.1	275.6	275.4	269.7	261.2	252.4	242.2	229.0	213.8	188.6	165.7	154.3	144.5	101.3	70.93	55.46	42.62	32.10	24.91	24.89	30.84	60.09	334.3	1646	1967	196.3	8.813	2.691	2.114	1.967	2.407	2.489	2.307	2.338	2.384	2.623	2.556	2.541	2.455	2.643	2.575	2.500	2.622	2.475	2.373	2.231	2.214	2.327	2.132	2.295	2.054	2.059	2.007	2.082	2.105	2.231
450.0	711.0	1431	681.8	511.9	539.6	540.2	542.5	544.7	530.0	511.2	499.3	461.6	422.7	382.5	346.3	314.2	291.9	281.2	272.5	264.4	258.8	259.7	256.3	256.4	251.6	245.9	238.6	229.9	219.1	206.8	186.7	161.8	140.1	133.3	118.0	85.99	60.63	46.62	36.87	28.86	23.41	20.51	24.00	82.72	411.9	1235	1772	830.1	14.26	2.616	2.116	2.255	2.420	2.215	2.250	2.171	2.536	2.412	2.412	2.506	2.531	2.530	2.563	2.327	2.380	2.360	2.287	2.147	2.129	2.075	2.163	1.979	1.968	2.061	1.905	2.044	2.010
455.0	378.7	1470	1271	505.2	496.5	508.6	498.4	507.8	506.6	485.7	467.5	438.6	396.4	355.6	322.7	287.7	266.9	255.7	250.3	242.7	236.7	235.9	236.5	233.3	230.5	228.3	220.7	212.9	206.8	194.8	179.2	156.4	134.7	117.3	109.6	102.8	71.90	50.46	40.06	31.78	25.20	20.46	17.69	28.00	99.15	283.2	681.8	2046	1140	18.45	2.721	2.510	2.342	2.163	2.167	2.269	2.498	2.249	2.408	2.537	2.274	2.261	2.429	2.322	2.184	2.335	2.100	2.267	1.959	1.841	1.948	1.973	1.814	2.022	1.862	1.791	1.879
460.0	275.6	1057	1963	707.1	464.4	473.9	475.0	496.5	472.2	456.8	455.0	415.4	374.4	338.6	302.8	270.7	251.8	238.4	231.5	222.3	216.4	216.2	216.7	216.1	216.2	212.7	207.5	200.7	195.3	186.3	172.4	152.1	131.4	111.4	99.32	100.5	82.37	55.71	41.72	33.43	26.33	21.92	17.72	16.59	30.16	70.15	162.6	920.7	2199	843.5	13.55	2.805	2.506	2.317	2.272	2.152	2.301	2.211	2.090	2.279	2.439	2.190	2.339	2.086	2.198	2.247	2.069	1.996	1.991	1.782	1.864	1.906	1.746	1.860	1.858	1.749	1.775
465.0	234.2	585.2	2194	1234	456.4	439.3	456.2	472.2	448.9	444.2	426.9	387.7	357.1	318.3	280.8	254.9	233.3	223.0	214.2	206.3	203.5	199.9	198.4	199.8	200.5	195.5	193.7	188.7	183.7	176.6	163.2	146.4	126.0	107.3	92.54	89.12	86.11	63.88	43.83	35.16	28.08	23.09	18.55	14.19	15.59	23.11	42.55	224.8	1231	2023	169.1	10.70	2.697	2.424	2.261	2.121	2.269	2.239	2.196	2.116	2.147	2.220	2.141	2.232	2.024	2.103	1.970	1.782	1.825	1.859	1.842	1.593	1.745	1.674	1.690	1.791	1.634
470.0	247.9	351.8	1370	2157	629.4	409.6	419.5	420.8	414.1	408.0	388.9	359.6	326.5	287.0	256.7	230.5	212.0	199.4	191.6	185.4	183.6	179.3	177.1	179.3	178.7	176.5	174.0	169.7	167.4	162.1	150.1	134.3	118.5	101.4	87.46	78.42	75.76	69.93	50.58	36.62	29.94	23.87	19.04	15.75	13.61	13.32	16.19	55.78	300.1	981.1	1437	769.2	15.80	2.866	2.247	2.059	2.365	2.142	2.185	2.020	1.960	2.154	2.187	1.943	1.868	2.076	1.800	1.829	1.694	1.724	1.721	1.592	1.650	1.536	1.618	1.593	1.566
475.0	235.1	266.8	575.0	2153	1549	409.0	383.7	383.1	372.9	367.6	354.9	331.2	294.2	263.4	230.8	206.2	188.5	178.9	172.8	163.6	161.8	159.3	158.1	157.4	157.2	155.1	155.6	153.0	150.8	147.1	134.6	123.3	109.6	95.89	81.65	72.28	63.61	62.94	57.62	41.95	30.69	24.22	20.23	16.67	13.75	11.76	10.90	18.49	71.81	223.5	473.0	1425	975.6	21.63	2.687	2.164	2.275	2.048	1.894	1.969	1.902	1.840	1.982	1.746	1.727	1.868	1.685	1.680	1.573	1.625	1.568	1.562	1.425	1.418	1.489	1.567	1.396
480.0	231.4	276.2	343.6	1376	2399	564.6	349.8	351.3	349.8	338.4	334.0	305.8	273.5	247.4	215.1	190.2	174.7	164.7	157.3	152.9	149.5	146.2	144.4	146.1	143.7	141.0	141.6	141.9	140.8	136.4	127.3	116.4	103.6	91.64	78.34	67.52	59.25	54.00	56.86	47.38	32.98	25.50	21.14	17.55	14.40	12.26	10.09	10.62	21.55	54.44	111.2	563.9	1653	790.1	16.95	2.432	2.378	2.177	1.740	1.952	2.034	1.952	1.905	1.776	1.677	1.754	1.555	1.470	1.481	1.562	1.480	1.455	1.364	1.395	1.332	1.459	1.334
485.0	202.1	295.9	278.6	662.3	2547	1200	340.2	330.3	326.9	326.2	316.5	295.3	260.5	228.5	202.9	177.8	162.3	152.5	145.3	141.0	136.6	136.0	132.4	134.9	132.2	132.0	130.2	131.7	130.9	127.1	119.9	110.9	97.51	86.20	74.99	65.25	57.19	50.19	49.78	50.27	36.47	25.68	20.95	17.85	14.55	12.78	10.74	9.159	10.53	16.74	29.05	135.6	850.7	1662	208.9	10.29	2.526	2.263	2.012	2.004	1.838	1.809	1.824	1.600	1.587	1.604	1.582	1.629	1.357	1.391	1.210	1.364	1.407	1.351	1.202	1.374	1.217
490.0	156.8	278.8	284.7	357.6	1531	2256	586.1	301.5	303.8	296.6	293.7	270.2	237.9	212.3	184.8	163.9	149.2	140.2	130.7	127.7	124.2	121.8	121.4	121.8	120.6	121.0	119.1	118.5	118.3	116.6	110.1	101.3	90.72	80.08	71.80	62.01	54.59	47.84	43.56	44.28	41.07	30.20	22.26	18.23	15.31	13.28	11.31	9.475	8.531	8.774	10.64	34.02	204.2	727.9	1271	754.0	17.26	2.783	2.167	1.983	1.834	1.716	1.684	1.559	1.607	1.529	1.560	1.503	1.397	1.337	1.254	1.230	1.292	1.312	1.163	1.166	1.196
495.0	133.4	227.8	300.0	274.2	573.1	2296	1498	308.6	271.7	273.1	266.6	250.2	219.4	189.5	171.4	147.8	134.7	126.7	119.9	113.6	110.8	109.6	107.5	106.2	107.4	106.1	105.6	106.2	104.8	105.2	100.7	92.29	82.76	73.91	67.01	57.98	50.69	45.03	39.73	36.59	36.37	35.30	25.37	18.97	16.48	13.22	11.36	9.905	8.514	7.265	6.738	11.55	48.71	165.7	426.1	1365	1053	24.82	2.708	2.119	1.814	1.717	1.540	1.595	1.448	1.415	1.395	1.267	1.395	1.362	1.306	1.235	1.191	1.261	1.079	1.013	1.117
500.0	110.2	190.5	308.6	246.1	300.0	1401	2433	404.9	254.8	251.1	245.5	228.2	201.8	178.7	157.4	134.6	122.7	115.8	108.9	104.1	99.99	98.72	98.15	97.94	97.44	96.94	96.79	97.50	94.60	96.37	90.71	85.98	76.15	68.70	61.34	54.05	48.61	43.30	37.74	33.28	31.12	34.08	29.03	20.10	15.84	13.66	11.74	9.911	8.908	7.275	6.026	6.353	14.25	40.09	99.68	530.7	1612	799.4	18.70	2.499	1.922	1.667	1.507	1.622	1.292	1.439	1.339	1.251	1.259	1.175	1.264	1.187	1.147	1.107	1.153	1.022	1.135
505.0	109.5	163.3	286.0	248.8	227.8	619.7	2644	1053	243.1	229.1	225.6	207.7	186.8	166.1	145.7	123.0	112.8	106.2	100.6	95.69	91.21	89.70	89.51	88.41	89.86	88.36	86.81	87.01	87.48	87.31	83.85	76.90	70.18	63.49	56.89	50.26	45.42	40.16	35.71	31.00	27.72	28.99	30.03	22.88	15.93	13.78	11.36	9.999	8.564	7.193	6.087	5.454	6.703	12.16	25.28	126.3	769.2	1599	225.8	11.29	1.930	1.602	1.516	1.555	1.308	1.169	1.255	1.292	1.171	1.191	1.016	1.126	1.025	0.973	0.992	0.940	1.000
510.0	92.64	137.7	219.7	264.8	204.3	292.9	1511	2284	452.6	208.8	202.8	186.4	168.8	146.1	128.0	110.7	100.6	94.14	88.50	83.88	79.63	78.69	78.15	77.16	76.97	75.55	75.43	75.49	76.68	76.70	73.30	68.55	62.58	56.34	51.02	45.48	41.26	35.95	32.76	28.70	25.16	23.59	25.41	24.74	18.41	13.78	11.31	9.741	8.337	7.296	6.450	5.480	4.834	5.867	8.466	30.81	182.9	678.4	1099	637.6	16.83	2.118	1.572	1.493	1.295	1.198	1.229	1.157	1.053	1.037	0.997	1.047	0.915	0.930	0.959	0.889	0.959
515.0	95.27	111.3	162.3	235.7	214.4	187.8	508.0	2364	1391	211.9	176.1	164.6	147.1	126.7	112.0	95.58	89.41	80.52	75.71	73.15	69.54	67.03	66.87	66.29	65.69	65.84	65.80	65.52	66.97	65.76	65.48	59.13	55.92	50.50	44.11	39.92	36.10	32.80	30.10	25.71	23.48	20.37	20.09	22.51	20.43	15.22	11.21	9.276	8.092	7.249	6.152	5.657	4.674	4.356	4.687	9.360	43.07	153.8	343.4	1104	842.5	24.14	2.015	1.404	1.223	1.138	1.280	1.112	1.092	0.952	0.866	0.957	0.822	0.762	0.708	0.799	0.767
520.0	75.87	105.7	133.3	198.4	234.3	161.9	243.1	1413	2446	292.5	160.3	146.9	130.1	117.5	97.55	88.14	79.64	73.90	68.97	65.44	61.94	60.39	59.31	60.15	59.33	59.60	59.87	57.69	58.66	58.71	58.40	53.35	49.42	45.82	40.85	37.68	33.27	29.31	27.51	23.49	22.20	18.88	17.10	18.07	20.20	17.24	11.28	9.305	7.835	6.841	6.203	5.639	5.019	4.195	3.840	4.590	11.85	36.43	79.90	431.5	1254	242.3	17.16	1.583	1.438	1.212	1.135	0.945	0.959	0.953	1.302	0.834	0.886	0.792	0.730	0.825	0.715
525.0	76.96	97.97	119.8	158.4	243.9	157.4	161.6	581.0	2776	927.4	153.2	134.1	120.7	107.3	90.05	79.94	70.06	66.70	62.03	58.67	55.81	54.38	54.17	54.60	53.39	52.64	53.53	52.77	53.88	53.75	51.54	47.64	45.20	40.62	37.56	34.11	30.83	26.95	24.44	22.71	20.19	17.63	16.11	14.90	17.43	18.36	12.97	9.655	7.522	6.565	5.998	5.324	4.953	4.314	3.484	3.628	5.018	10.20	20.01	102.5	585.9	1119	222.7	8.706	1.630	1.122	1.189	0.939	0.921	0.866	0.952	0.816	0.786	0.763	0.658	0.706	0.702
530.0	66.96	80.56	98.48	113.8	200.7	183.2	134.0	236.2	1551	2240	351.9	120.2	107.7	91.88	80.64	71.23	62.72	58.91	54.56	51.80	49.03	47.43	46.81	46.23	45.80	45.84	46.41	45.72	45.52	46.38	45.00	42.03	38.71	35.70	32.56	29.62	26.74	24.03	22.32	19.94	17.96	16.23	14.46	13.24	13.49	15.21	14.15	10.62	7.301	6.163	5.560	4.910	4.489	4.249	3.798	3.206	3.269	4.392	6.311	24.79	139.8	496.5	843.8	489.7	16.01	1.635	1.116	0.964	0.897	0.828	0.814	0.818	0.771	0.733	0.623	0.697	0.680
535.0	55.56	70.35	87.35	89.71	136.7	198.4	127.9	136.6	485.7	2334	1324	120.0	92.37	80.43	70.53	60.05	55.78	52.20	46.57	44.44	41.24	40.30	40.76	39.28	39.80	39.08	39.65	38.79	39.05	39.07	39.14	35.85	32.52	30.66	27.57	25.44	22.89	21.38	19.48	17.63	16.00	13.97	12.58	11.75	10.88	11.14	12.99	12.11	7.970	5.859	5.107	4.646	4.016	3.668	3.816	3.257	2.863	2.918	3.255	7.276	32.76	112.3	264.3	843.1	617.0	22.56	1.296	0.992	0.877	0.859	0.767	0.724	0.732	0.751	0.606	0.662	0.588
540.0	52.93	64.40	74.60	80.39	102.7	178.2	136.3	105.1	189.6	1368	2376	201.1	79.97	72.94	62.76	54.11	48.79	45.41	41.44	38.86	36.66	35.88	35.71	34.29	34.50	34.66	35.02	34.77	34.96	33.95	32.94	32.09	29.36	26.95	24.71	23.06	20.64	19.67	17.11	15.61	14.10	12.77	11.51	10.40	9.982	9.219	10.29	11.81	8.787	5.944	4.654	4.106	3.720	3.314	3.494	3.460	2.951	2.456	2.499	3.097	8.968	26.61	61.41	329.6	923.4	241.3	14.59	1.105	0.906	0.817	0.675	0.782	0.681	0.593	0.641	0.614	0.650
545.0	50.35	62.91	69.12	76.08	83.00	142.3	154.2	92.16	114.8	541.5	2667	728.1	76.82	64.67	56.20	48.41	44.08	39.33	37.77	34.01	32.66	31.06	30.99	30.97	31.23	29.93	30.61	30.69	30.79	30.22	29.62	28.11	26.15	24.29	22.00	20.42	18.34	17.06	15.47	13.95	12.81	11.26	10.03	10.07	8.830	8.072	8.267	10.00	9.059	6.592	4.690	4.084	3.354	3.245	3.043	3.214	3.025	2.514	2.157	2.269	3.373	7.206	15.06	78.18	435.0	833.8	202.6	6.614	0.994	0.809	0.672	0.733	0.543	0.573	0.592	0.566	0.532
550.0	48.95	58.33	65.42	69.72	68.58	93.92	152.2	99.26	86.78	187.5	1437	1898	144.0	54.44	47.17	40.03	36.80	33.43	31.19	29.19	27.61	26.67	26.27	25.37	25.31	25.19	24.39	25.16	25.77	24.82	24.59	23.43	22.24	20.21	18.37	17.11	15.54	14.42	12.80	11.93	10.77	9.826	8.794	8.432	7.693	6.914	6.604	7.008	8.085	7.336	5.116	3.756	3.014	2.880	2.755	2.710	2.751	2.523	1.986	1.922	2.080	2.712	4.531	18.58	103.1	362.6	605.8	299.7	14.90	1.213	0.791	0.766	0.571	0.530	0.550	0.515	0.515
555.0	50.04	53.03	60.88	60.66	58.07	66.91	114.9	124.3	72.35	93.37	418.5	2033	919.5	53.93	39.10	33.36	29.49	27.23	26.57	23.98	22.28	21.87	21.63	20.78	20.59	20.34	19.86	20.45	20.97	20.11	20.07	18.87	17.79	16.74	15.21	14.09	12.84	11.53	10.38	9.606	8.936	8.489	7.663	7.243	6.656	5.998	5.419	5.295	5.645	6.441	5.569	3.813	2.662	2.753	2.338	2.340	2.182	2.297	2.222	1.740	1.586	1.714	1.966	5.003	24.12	81.83	188.8	558.1	252.6	20.29	1.025	0.701	0.602	0.500	0.547	0.540	0.466
560.0	41.53	51.51	56.79	54.30	48.85	49.13	75.92	133.9	69.52	67.99	140.3	1137	1785	116.6	34.37	29.19	25.90	23.20	21.75	19.98	18.59	18.91	18.45	17.30	18.07	17.15	16.69	17.12	17.36	17.24	17.01	16.46	15.29	14.09	12.56	11.87	10.91	10.08	9.258	8.602	8.065	7.335	6.511	5.945	5.219	5.002	4.557	4.397	4.300	5.012	5.503	4.048	2.739	2.312	2.131	1.960	1.850	2.068	2.263	1.849	1.388	1.269	1.287	1.955	6.263	19.19	43.74	214.2	569.7	226.7	12.38	0.756	0.601	0.547	0.470	0.476	0.443
565.0	49.81	49.51	55.90	53.05	40.08	45.36	55.48	126.5	83.59	56.89	72.76	418.2	2042	475.3	30.95	25.47	22.33	20.09	19.38	17.49	15.97	15.05	15.99	14.99	15.24	15.31	14.89	14.59	14.63	14.95	14.73	13.87	12.79	11.86	10.70	10.07	9.257	8.936	7.947	7.262	6.989	6.079	5.559	5.026	4.712	4.584	4.114	3.829	3.637	3.575	4.497	4.607	2.708	2.134	1.836	1.906	1.682	1.753	1.904	2.018	1.574	1.175	1.139	1.353	2.326	5.040	10.67	50.64	265.8	542.7	174.1	5.156	0.669	0.524	0.513	0.456	0.411
570.0	47.68	53.72	53.77	44.64	36.75	37.74	40.78	85.06	103.6	53.38	50.45	133.0	1069	1347	83.81	21.19	18.09	16.76	15.71	14.14	13.30	12.55	13.05	12.50	12.34	11.84	11.95	11.82	11.65	11.87	11.82	11.35	10.05	9.601	8.961	8.332	7.693	7.365	6.570	5.859	5.470	5.062	4.583	4.359	4.062	3.949	3.536	3.273	2.980	2.803	3.122	3.749	3.022	2.291	1.704	1.581	1.461	1.479	1.444	1.611	1.682	1.330	1.031	1.044	1.189	1.859	3.142	12.06	62.95	222.1	383.1	145.7	14.13	0.831	0.553	0.490	0.421
575.0	53.44	50.90	52.33	38.79	34.66	30.65	32.26	49.93	107.6	65.93	43.73	61.81	296.4	1431	591.2	20.26	15.69	13.74	13.25	11.17	10.62	10.38	10.16	9.821	9.427	9.527	9.578	9.652	9.915	9.262	9.263	8.892	8.680	7.498	7.051	6.525	6.094	5.706	5.504	4.829	4.502	4.323	3.674	3.342	3.324	3.179	2.847	2.720	2.328	2.326	2.297	2.388	2.962	2.522	1.557	1.395	1.289	1.277	1.170	1.260	1.347	1.532	1.206	0.905	0.961	1.017	1.447	3.435	14.79	50.28	113.7	322.6	236.8	19.05	0.730	0.465	0.478
580.0	49.46	50.14	50.88	36.55	29.91	29.29	27.56	36.97	87.13	89.79	43.17	44.69	93.13	769.7	1070	57.74	13.41	11.45	11.08	9.935	9.566	9.312	8.504	8.552	8.716	7.966	8.022	7.819	7.848	8.103	8.099	7.724	7.119	5.991	5.988	5.621	5.262	4.623	4.585	4.246	3.804	3.525	3.292	2.893	3.001	2.718	2.617	2.190	2.175	1.937	1.898	1.875	2.269	2.368	1.955	1.358	1.120	1.197	1.066	1.116	1.066	1.399	1.301	1.023	0.854	0.826	0.992	1.299	4.009	11.81	26.47	121.5	358.0	195.8	10.88	0.538	0.539
585.0	41.39	49.03	49.37	35.80	28.54	25.51	25.86	30.61	58.33	106.2	48.66	40.74	46.80	268.6	1351	243.2	12.16	10.14	9.623	8.522	8.390	7.462	7.136	7.655	6.948	6.608	6.892	6.537	6.985	6.996	7.006	6.347	6.058	5.615	5.106	4.628	4.532	4.142	3.848	3.810	3.388	3.043	3.069	2.617	2.560	2.442	2.257	2.016	1.841	1.524	1.537	1.482	1.675	2.196	1.998	1.312	1.109	1.260	0.881	0.971	1.051	0.972	1.320	1.130	0.816	0.768	0.830	0.934	1.534	3.161	6.459	28.72	155.4	344.6	132.9	4.355	0.542
590.0	42.80	48.82	48.30	32.92	27.29	24.62	24.00	27.62	38.19	88.82	72.40	39.21	35.68	81.78	691.7	783.9	45.85	8.674	7.953	7.049	6.952	6.304	6.328	6.096	5.731	5.726	5.644	5.618	5.728	5.689	5.538	5.262	4.913	4.734	4.075	3.978	3.704	3.385	3.144	3.100	2.836	2.522	2.457	2.164	2.242	1.999	1.886	1.758	1.582	1.367	1.365	1.254	1.187	1.574	1.850	1.586	1.164	1.009	0.878	0.798	0.822	0.875	0.975	1.161	1.045	0.755	0.758	0.696	0.932	1.238	2.009	6.952	36.45	132.9	229.4	133.5	14.08
595.0	37.40	48.26	44.43	31.70	25.77	22.33	22.77	25.51	30.44	56.69	88.22	42.52	33.04	36.13	184.9	843.5	302.6	9.155	6.801	5.958	5.628	5.593	5.266	4.843	4.988	4.916	4.598	4.527	4.352	4.796	4.470	4.433	4.107	3.641	3.206	3.163	3.155	2.696	2.494	2.527	2.313	2.111	1.842	1.834	1.823	1.802	1.536	1.457	1.323	1.168	1.057	1.028	1.111	1.097	1.380	1.649	1.310	0.909	0.869	0.787	0.765	0.712	0.782	0.919	1.096	0.927	0.684	0.761	0.706	0.785	0.946	1.999	8.708	30.02	65.31	194.2	184.6
600.0	39.07	44.27	39.01	30.59	23.00	21.65	20.42	24.12	26.93	39.38	84.29	52.45	32.01	26.53	53.89	456.2	639.9	26.80	6.108	5.179	4.953	4.604	4.289	4.030	4.307	4.213	4.114	4.183	4.073	3.715	3.763	3.544	3.275	3.319	2.955	2.862	2.805	2.314	2.136	2.198	1.971	1.649	1.627	1.540	1.560	1.493	1.329	1.391	1.067	1.086	0.982	0.867	0.927	0.850	1.024	1.455	1.475	1.021	0.789	0.707	0.684	0.602	0.695	0.774	0.908	1.033	0.773	0.709	0.632	0.600	0.691	0.854	2.419	7.063	15.11	67.05	220.1
605.0	41.29	40.57	44.26	32.54	21.33	19.89	20.47	23.74	26.13	33.29	68.75	67.91	33.31	24.72	25.46	156.4	759.9	83.80	5.489	4.614	4.269	3.995	4.021	3.685	3.711	3.494	3.442	3.458	3.435	3.096	3.582	2.936	2.610	2.728	2.620	2.586	2.456	2.249	1.944	1.801	1.710	1.597	1.516	1.503	1.411	1.296	1.125	1.168	0.953	0.984	0.921	0.937	0.736	0.750	0.808	1.117	1.311	1.140	0.791	0.661	0.596	0.653	0.594	0.580	0.605	0.973	0.868	0.674	0.647	0.610	0.619	0.582	0.891	1.901	3.823	15.70	86.78
610.0	41.71	42.34	41.92	29.79	21.92	18.76	19.62	22.45	26.57	31.76	47.74	79.54	40.53	25.30	19.17	45.91	406.9	449.0	25.94	4.153	3.727	3.384	3.324	3.049	2.891	2.979	2.766	2.836	2.762	2.743	2.815	2.552	2.359	2.384	2.202	2.147	1.866	1.749	1.626	1.455	1.406	1.356	1.279	1.213	1.180	1.172	0.930	0.997	0.987	0.826	0.779	0.738	0.719	0.636	0.654	0.771	0.958	1.133	0.808	0.674	0.563	0.533	0.522	0.528	0.537	0.659	0.803	0.807	0.651	0.623	0.511	0.525	0.516	0.748	1.140	3.837	20.19
615.0	37.67	37.11	35.76	24.81	20.40	19.29	16.36	21.34	24.44	29.15	37.54	67.54	57.33	24.91	17.07	19.34	109.4	518.5	178.2	4.115	3.461	3.104	2.811	2.670	2.709	2.407	2.476	2.212	2.319	2.359	2.259	2.347	1.936	2.024	1.863	1.655	1.581	1.395	1.401	1.340	1.233	1.187	1.144	1.049	0.879	0.953	0.845	0.870	0.771	0.701	0.681	0.641	0.617	0.666	0.507	0.556	0.704	0.916	0.797	0.783	0.548	0.486	0.502	0.514	0.545	0.510	0.616	0.741	0.679	0.533	0.556	0.464	0.444	0.548	0.651	1.188	4.782
620.0	31.13	34.19	36.39	27.43	19.09	16.66	18.65	20.28	23.23	27.72	32.47	50.84	64.78	26.97	17.34	12.85	31.43	303.1	403.5	12.57	2.729	2.692	2.463	2.356	2.110	2.037	2.216	2.300	1.932	2.256	1.946	1.953	1.715	1.542	1.752	1.437	1.343	1.389	1.410	1.070	1.011	1.077	0.956	0.954	0.799	0.753	0.676	0.718	0.668	0.627	0.623	0.582	0.551	0.483	0.504	0.510	0.537	0.612	0.879	0.714	0.512	0.509	0.465	0.527	0.478	0.480	0.531	0.564	0.763	0.684	0.518	0.455	0.439	0.430	0.406	0.559	1.334
625.0	33.31	35.11	32.70	25.48	18.61	17.10	17.02	19.27	21.15	26.30	31.68	39.15	63.78	32.97	17.22	10.97	13.09	106.0	506.0	57.82	3.023	2.390	2.264	2.138	1.853	1.772	1.884	1.755	1.750	2.062	1.568	1.623	1.652	1.589	1.518	1.222	1.312	1.190	1.139	0.942	0.915	0.854	0.830	0.812	0.758	0.636	0.647	0.780	0.597	0.556	0.535	0.549	0.493	0.457	0.381	0.435	0.518	0.560	0.690	0.722	0.583	0.528	0.439	0.430	0.432	0.442	0.517	0.503	0.521	0.628	0.492	0.384	0.404	0.364	0.404	0.398	0.556
630.0	29.93	33.82	28.40	24.06	15.61	16.17	16.17	19.05	21.33	24.98	28.70	33.22	50.02	44.95	18.20	10.97	9.038	29.53	288.3	295.2	12.42	2.324	1.994	1.627	1.901	1.516	1.565	1.529	1.406	1.674	1.483	1.455	1.401	1.353	1.215	1.057	1.112	1.136	0.930	0.858	0.702	0.780	0.657	0.715	0.632	0.565	0.590	0.575	0.544	0.468	0.437	0.491	0.456	0.394	0.417	0.434	0.431	0.427	0.457	0.623	0.637	0.519	0.450	0.418	0.423	0.415	0.481	0.464	0.420	0.625	0.608	0.467	0.366	0.324	0.360	0.364	0.342
635.0	29.19	34.11	27.91	24.41	15.63	14.12	16.16	19.86	21.28	24.41	27.37	32.26	36.00	47.81	23.22	11.91	8.325	10.86	77.90	381.4	65.33	2.354	1.598	1.522	1.630	1.372	1.435	1.365	1.313	1.457	1.462	1.287	1.184	1.037	1.114	0.999	0.945	0.933	0.912	0.839	0.695	0.684	0.544	0.576	0.593	0.466	0.475	0.491	0.448	0.425	0.375	0.372	0.442	0.334	0.379	0.338	0.356	0.353	0.404	0.439	0.584	0.500	0.487	0.454	0.379	0.408	0.471	0.435	0.465	0.498	0.429	0.564	0.374	0.391	0.329	0.288	0.325
640.0	28.15	32.25	24.67	23.05	15.23	16.28	13.88	18.37	20.26	23.10	25.58	29.45	31.55	43.28	30.54	11.06	9.004	7.648	21.46	239.4	253.0	5.942	1.709	1.518	1.356	1.346	1.102	1.171	1.188	1.196	1.118	1.123	0.989	1.106	1.073	0.994	0.987	0.791	0.884	0.734	0.630	0.673	0.455	0.652	0.461	0.471	0.431	0.394	0.384	0.422	0.334	0.384	0.435	0.326	0.399	0.348	0.380	0.348	0.386	0.435	0.450	0.507	0.544	0.435	0.339	0.378	0.418	0.447	0.488	0.428	0.360	0.449	0.469	0.372	0.291	0.284	0.240
645.0	33.90	31.79	22.73	19.85	15.71	14.35	14.74	17.52	18.89	22.55	24.94	29.72	28.28	34.02	36.68	12.86	8.777	6.727	8.051	88.72	358.1	37.63	1.796	1.528	1.264	1.228	1.038	1.123	1.213	0.985	1.159	1.060	1.037	1.020	0.986	0.969	0.904	0.839	0.687	0.645	0.542	0.588	0.502	0.549	0.463	0.463	0.433	0.417	0.388	0.457	0.413	0.331	0.333	0.384	0.359	0.329	0.442	0.349	0.351	0.334	0.446	0.470	0.498	0.387	0.406	0.415	0.459	0.409	0.353	0.421	0.354	0.502	0.459	0.467	0.318	0.294	0.294
650.0	35.94	35.37	28.35	19.20	15.33	14.61	14.50	17.62	17.16	23.48	25.86	29.19	26.68	27.90	37.68	16.49	8.567	6.511	5.742	25.68	291.3	144.0	2.442	1.353	1.348	1.142	1.053	1.250	1.155	0.992	1.112	0.983	0.950	1.039	0.880	0.938	1.047	0.912	0.609	0.590	0.589	0.479	0.471	0.501	0.481	0.455	0.468	0.446	0.401	0.383	0.331	0.316	0.308	0.340	0.360	0.336	0.339	0.313	0.331	0.328	0.360	0.408	0.512	0.413	0.477	0.417	0.354	0.301	0.378	0.406	0.363	0.479	0.483	0.445	0.328	0.324	0.317
