Sample:	'1
File name:	T2025040714ÎÔÀÇ¹µ50Ã×´ó¹µ.FD3
Run date:	'12:43:07, 04/08/2025
Operator:	Administrator
Comment:	'

Instrument
Model:	F-2700 FL Spectrophotometer
Serial number:	23B8-004
ROM Version:	4J14000 07

Instrument parameters
Measurement type:	3-D scan
Data mode:	Fluorescence
EX  Start WL:	220.0 nm
EX  End WL:	600.0 nm
EX Sampling interval:	5.0 nm
EM  Start WL:	230.0 nm
EM  End WL:	650.0 nm
EM Sampling interval:	5.0 nm
Scan speed:	12000 nm/min
EX Slit:	5.0 nm
EM Slit:	5.0 nm
PMT Voltage:	700 V
Response:	Auto 
Corrected spectra:	Off
Contour interval:	50.000

Peak integration
Integration method:	Rectangular
Sensitivity:	1
Threshold:	1.000

Peaks
No.	ApexEX/EM(nm)	Height(Data)
1	225.0/305.0	4824
2	225.0/595.0	359.8
3	230.0/335.0	3533
4	240.0/525.0	241.2
5	245.0/535.0	201.8
6	250.0/550.0	174.9
7	255.0/565.0	169.0
8	270.0/595.0	395.0
9	275.0/305.0	5553
10	425.0/500.0	44.12
11	455.0/305.0	14.16
12	475.0/350.0	9.911
13	545.0/300.0	25.94
14	550.0/305.0	27.25
15	575.0/290.0	258.9

Data points
	220.0	225.0	230.0	235.0	240.0	245.0	250.0	255.0	260.0	265.0	270.0	275.0	280.0	285.0	290.0	295.0	300.0	305.0	310.0	315.0	320.0	325.0	330.0	335.0	340.0	345.0	350.0	355.0	360.0	365.0	370.0	375.0	380.0	385.0	390.0	395.0	400.0	405.0	410.0	415.0	420.0	425.0	430.0	435.0	440.0	445.0	450.0	455.0	460.0	465.0	470.0	475.0	480.0	485.0	490.0	495.0	500.0	505.0	510.0	515.0	520.0	525.0	530.0	535.0	540.0	545.0	550.0	555.0	560.0	565.0	570.0	575.0	580.0	585.0	590.0	595.0	600.0
230.0	47.74	1241	4514	1931	90.29	12.94	11.28	10.16	8.808	9.190	8.175	8.134	7.868	6.381	5.397	4.752	4.275	3.870	3.833	3.407	3.107	2.866	2.590	2.569	2.394	2.156	2.123	1.969	1.850	1.713	1.624	1.470	1.494	1.477	1.277	1.164	1.060	1.000	0.899	0.888	0.789	0.823	0.789	0.795	0.698	0.710	1.379	7.017	16.18	14.81	6.653	1.548	0.584	0.551	0.509	0.546	0.518	0.510	0.489	0.466	0.474	0.453	0.445	0.422	0.435	0.408	0.426	0.406	0.400	0.396	0.373	0.383	0.346	0.354	0.361	0.351	0.356
235.0	72.19	352.4	3284	6227	2920	161.7	13.75	12.70	10.46	10.78	8.956	8.445	7.693	7.191	5.792	5.014	4.338	4.349	3.740	3.518	3.037	2.947	2.639	2.595	2.478	2.239	2.193	2.037	1.866	1.873	1.736	1.648	1.476	1.583	1.386	1.272	1.050	1.040	1.107	0.847	0.782	0.732	0.896	0.801	0.745	0.765	0.857	2.306	6.487	15.27	26.59	23.38	14.11	3.337	0.624	0.488	0.540	0.590	0.504	0.453	0.520	0.472	0.482	0.372	0.453	0.385	0.452	0.387	0.470	0.416	0.444	0.370	0.341	0.329	0.370	0.382	0.361
240.0	99.66	145.8	1048	6598	9999.9	2335	78.57	16.03	12.60	11.93	9.941	9.875	8.495	7.643	6.332	5.132	4.368	4.432	3.427	3.790	3.160	3.448	2.844	2.762	2.608	2.230	2.257	2.191	1.935	1.835	1.817	1.663	1.400	1.420	1.396	1.327	1.006	1.128	1.085	0.856	0.909	0.738	0.790	0.764	0.769	0.869	0.800	1.081	1.980	4.930	15.60	39.45	52.51	24.65	11.51	1.851	0.609	0.648	0.554	0.559	0.476	0.474	0.464	0.461	0.428	0.433	0.476	0.455	0.476	0.467	0.407	0.410	0.351	0.386	0.414	0.379	0.383
245.0	86.25	153.9	302.6	2374	9999.9	9999.9	401.7	35.08	17.44	13.61	12.30	10.99	8.451	8.878	6.819	5.467	4.738	4.798	3.909	3.704	3.247	3.383	3.064	2.886	2.463	2.287	2.578	2.290	2.036	1.910	1.835	1.685	1.439	1.395	1.312	1.268	1.171	1.028	1.091	0.896	0.926	0.885	0.825	0.834	0.782	0.899	0.962	1.052	1.018	1.527	4.185	13.63	38.82	68.02	66.23	22.29	7.609	1.031	0.663	0.616	0.516	0.529	0.521	0.527	0.431	0.505	0.556	0.396	0.400	0.424	0.419	0.476	0.428	0.382	0.440	0.398	0.402
250.0	75.16	130.5	227.1	624.6	3496	9999.9	9999.9	4471	109.8	23.02	17.17	13.91	11.45	9.724	8.213	6.518	6.028	5.058	4.688	4.123	3.469	3.425	3.316	3.182	2.874	2.647	2.560	2.403	2.298	2.118	1.919	1.851	1.651	1.604	1.320	1.379	1.168	1.250	1.154	1.000	0.941	0.940	0.854	0.828	0.733	0.845	0.893	1.022	1.227	1.105	1.566	3.600	9.787	23.34	44.70	67.66	61.59	66.27	15.58	7.348	1.099	0.604	0.631	0.566	0.606	0.496	0.569	0.443	0.475	0.476	0.479	0.459	0.427	0.492	0.484	0.398	0.453
255.0	66.62	73.74	171.3	370.0	867.7	2668	9999.9	9999.9	2077	133.6	25.52	21.38	16.52	12.65	9.291	7.861	6.978	6.055	5.098	5.112	4.310	3.817	3.180	3.296	2.913	3.076	2.874	2.668	2.387	2.292	2.005	1.913	1.704	1.564	1.475	1.288	1.227	1.237	1.199	1.158	0.980	0.951	0.981	0.884	0.868	0.920	0.797	0.834	0.941	1.061	1.724	2.046	2.914	5.756	10.58	16.87	29.43	84.12	135.1	132.4	24.55	8.404	0.947	0.645	0.648	0.625	0.721	0.571	0.502	0.501	0.498	0.511	0.481	0.453	0.469	0.395	0.498
260.0	75.60	59.08	94.18	285.4	408.4	666.4	3434	9999.9	9999.9	1690	78.37	28.17	20.91	14.87	10.78	8.881	7.513	6.534	5.708	5.109	4.625	4.170	3.624	3.616	3.092	3.030	2.810	2.732	2.553	2.547	2.172	1.939	2.030	1.667	1.507	1.295	1.253	1.109	1.444	1.159	1.051	1.051	0.963	0.895	0.878	0.935	0.776	0.765	0.781	0.842	1.236	2.085	2.172	2.216	2.960	4.454	7.312	23.92	68.36	150.8	191.3	123.0	20.17	3.869	0.892	0.758	0.670	0.674	0.606	0.543	0.569	0.497	0.444	0.491	0.523	0.535	0.461
265.0	65.76	62.72	58.70	156.2	364.8	319.5	838.0	5188	9999.9	9999.9	1170	45.69	26.40	19.05	14.12	10.02	8.461	7.681	6.434	5.458	4.919	4.209	4.050	3.614	3.448	3.088	3.170	2.842	2.642	2.693	2.580	2.271	2.060	1.838	1.530	1.425	1.400	1.488	1.399	1.154	1.080	1.048	1.045	1.042	0.948	0.891	0.838	0.937	0.789	0.768	0.852	1.288	2.045	2.438	1.986	1.781	2.305	6.077	16.77	47.76	124.7	203.6	211.4	29.74	13.99	1.710	0.886	0.823	0.706	0.672	0.597	0.550	0.541	0.531	0.540	0.544	0.553
270.0	106.7	108.2	91.83	92.88	196.8	376.7	389.8	1277	5735	9999.9	9999.9	4562	82.19	32.10	20.73	13.51	12.26	9.033	7.863	6.726	5.848	5.090	4.489	4.247	3.737	3.578	3.446	3.213	2.811	2.818	2.712	2.517	2.144	1.918	1.817	1.644	1.562	1.466	1.247	1.324	1.206	1.080	1.168	1.123	1.046	1.100	0.999	1.074	0.911	0.843	0.792	0.968	1.164	1.767	2.200	2.440	2.157	2.431	4.534	11.50	30.11	62.25	121.7	162.8	199.4	130.2	84.82	10.91	1.999	0.935	0.818	0.707	0.653	0.659	0.533	0.645	0.634
275.0	203.4	265.4	227.8	128.8	111.7	228.5	510.8	526.1	1431	3268	9999.9	9999.9	6152	93.58	34.68	21.56	16.70	12.54	10.03	8.316	7.005	5.478	5.516	4.925	4.349	3.987	3.686	3.722	2.882	3.139	3.112	2.490	2.246	2.176	2.066	1.915	1.825	1.642	1.378	1.335	1.343	1.216	1.236	1.279	1.330	1.316	1.290	1.474	1.375	1.262	0.981	1.123	1.060	1.208	1.224	1.826	2.690	3.562	3.040	3.825	7.808	15.02	28.53	38.99	66.50	142.3	293.7	238.1	30.07	14.90	1.881	1.055	0.829	0.703	0.744	0.765	0.840
280.0	435.1	570.9	516.1	278.1	164.8	194.9	445.4	691.2	578.7	1152	4605	9999.9	9999.9	989.7	67.59	31.73	20.94	15.43	12.47	9.394	8.201	6.829	5.902	5.319	4.903	4.700	4.117	3.924	3.491	3.269	3.317	2.568	2.579	2.434	2.349	2.164	1.966	1.771	1.602	1.499	1.404	1.367	1.514	1.609	1.899	1.870	2.052	2.280	2.105	1.725	1.320	1.326	1.169	1.368	1.425	1.591	2.096	3.222	4.194	4.172	3.671	5.253	8.625	11.20	17.59	38.15	111.9	260.9	333.8	218.9	26.28	9.256	1.515	1.134	0.866	0.863	0.815
285.0	864.5	1270	1073	542.0	290.9	281.2	428.8	881.3	1029	1175	2149	7690	9999.9	9999.9	688.9	46.64	29.46	20.15	15.31	11.42	9.437	7.760	6.727	6.032	5.496	5.045	4.431	4.031	3.870	3.321	3.341	2.853	2.825	2.705	2.841	2.630	2.075	2.063	1.873	1.844	1.749	1.713	1.897	2.283	2.401	3.052	3.404	3.984	3.917	2.832	2.128	1.902	1.682	1.686	1.706	1.961	2.246	2.772	3.865	5.486	5.977	5.536	6.244	6.908	9.082	14.36	30.89	73.78	160.4	317.1	370.9	193.5	21.12	3.982	1.238	1.109	1.165
290.0	1666	2693	2317	1036	507.9	458.4	625.2	1035	1796	2361	2822	4014	8655	9999.9	9999.9	2764	61.45	31.95	21.27	15.86	12.42	10.30	8.184	7.623	6.078	5.845	5.147	4.461	4.256	4.078	3.748	3.257	3.156	3.402	3.328	3.254	2.918	2.641	2.165	2.260	2.130	2.243	2.407	3.170	4.086	5.547	6.779	7.737	7.288	5.250	3.567	3.144	2.504	2.458	2.511	2.660	3.204	3.684	4.287	5.699	7.680	9.891	11.15	11.96	12.73	14.54	18.40	27.23	46.64	90.15	160.6	258.9	245.7	225.1	122.7	14.65	4.990
295.0	2551	3967	3545	1554	712.9	657.3	877.1	1384	2237	3545	4311	4220	4300	4127	9999.9	9999.9	3944	67.34	33.42	23.52	16.27	13.16	10.68	9.027	7.570	6.704	6.137	5.172	5.027	4.562	4.403	3.727	3.527	3.633	3.907	4.178	3.556	3.256	2.628	2.650	2.483	2.803	3.076	4.055	5.532	7.733	9.647	11.41	10.51	7.528	5.144	4.446	3.425	3.161	3.268	3.304	4.059	4.990	6.062	7.260	9.474	11.44	14.85	18.22	21.15	20.57	20.71	21.81	25.04	32.63	44.73	63.65	68.71	148.6	324.9	419.7	213.2
300.0	2890	4636	4034	1852	844.2	786.3	1055	1637	2540	3931	5239	4864	3726	2098	4784	9999.9	9999.9	603.6	54.50	31.42	21.66	16.11	12.49	10.81	8.890	7.844	6.657	5.967	5.213	5.205	4.580	4.249	3.976	4.100	4.137	4.373	3.678	3.200	2.885	2.780	2.728	3.093	3.263	4.449	6.364	9.000	11.04	13.54	12.18	8.773	6.151	5.201	3.641	3.509	3.642	3.876	5.064	5.942	7.093	8.356	10.41	12.77	15.70	19.59	23.19	25.94	25.32	23.14	22.71	22.33	20.60	20.90	19.42	37.59	99.69	251.8	469.0
305.0	2967	4824	4269	2004	946.4	898.3	1203	1788	2777	4071	5415	5553	3900	1875	1616	7321	9999.9	9999.9	446.8	45.25	29.19	20.71	15.20	12.77	10.43	8.395	7.619	6.611	5.944	5.402	4.818	4.224	3.928	4.462	4.385	4.368	3.867	3.538	3.041	2.748	2.978	3.121	3.914	4.830	6.493	9.397	11.55	14.16	13.19	9.483	6.707	5.522	4.340	4.015	4.064	4.766	5.714	6.325	7.650	9.063	11.57	14.14	16.52	20.23	23.12	25.87	27.25	25.90	23.63	21.05	16.60	12.63	9.627	12.09	25.50	62.75	166.4
310.0	2726	4528	4087	2012	1023	973.8	1275	1858	2773	3968	5106	5399	4231	2084	1081	2052	7870	9999.9	9999.9	2086	51.73	30.02	20.75	16.37	12.59	10.71	8.922	7.828	7.017	5.978	5.614	4.640	4.448	4.754	4.444	4.301	4.058	3.524	3.187	3.062	3.103	3.103	3.626	4.593	6.230	8.826	11.00	13.78	12.67	9.375	6.635	5.877	4.635	4.277	4.203	4.927	6.055	6.734	8.255	9.707	11.66	13.92	16.60	19.62	22.22	24.35	25.58	25.68	24.76	22.64	17.00	11.51	8.450	7.822	9.596	17.18	40.22
315.0	2460	3987	3689	1932	1058	1007	1297	1825	2610	3663	4595	4786	4023	2515	1176	941.3	2071	3239	9999.9	9999.9	3218	56.57	30.05	23.00	16.10	13.22	10.60	9.739	7.964	6.886	5.725	5.107	4.726	4.951	4.626	4.508	4.241	3.561	3.318	3.106	3.025	3.257	3.573	4.428	6.129	8.194	9.954	12.15	11.85	8.872	6.535	5.642	4.711	4.441	4.499	4.965	6.078	7.130	8.156	9.544	11.09	13.49	15.87	18.53	20.52	21.94	23.79	22.69	22.04	21.17	18.44	13.85	10.23	8.201	6.904	7.672	12.26
320.0	2269	3619	3463	1887	1072	1020	1282	1773	2457	3407	4212	4424	3704	2659	1493	805.6	837.5	963.6	4192	9999.9	9999.9	468.9	49.88	31.47	20.71	15.68	12.80	10.18	8.742	7.531	6.696	5.944	5.118	5.119	4.628	4.404	4.058	3.551	3.199	3.150	2.943	3.132	3.516	4.351	5.706	7.736	9.161	11.51	11.16	8.165	6.385	5.717	4.889	4.666	4.505	5.078	6.082	6.951	7.851	9.484	10.61	12.06	15.14	17.42	19.18	20.32	21.09	21.37	20.31	19.85	17.16	14.40	12.29	10.09	6.890	6.162	6.396
325.0	2015	3470	3431	1966	1154	1042	1274	1720	2331	3150	3898	4106	3517	2587	1791	919.8	630.4	488.3	1124	6483	9999.9	9999.9	382.7	43.77	27.10	19.82	15.01	12.05	9.594	8.376	7.726	6.569	5.408	5.317	4.889	4.600	4.163	3.486	3.149	3.167	3.069	3.124	3.243	3.911	5.253	7.387	8.764	11.12	11.23	8.379	6.608	6.239	5.312	4.933	4.784	5.284	6.067	6.899	7.674	9.454	10.17	11.87	13.90	16.37	17.45	19.11	19.23	19.83	19.29	19.09	16.35	13.81	12.16	11.84	9.287	6.842	5.826
330.0	1887	3295	3439	2275	1399	1150	1272	1645	2168	2867	3527	3760	3339	2552	1812	1241	742.3	464.1	482.9	1651	6633	9999.9	9999.9	1865	46.36	28.57	20.59	15.20	12.47	10.05	8.997	7.224	5.775	5.699	4.927	4.672	4.122	3.851	3.273	3.213	3.142	3.221	3.261	3.825	4.911	6.890	8.436	10.35	11.06	8.867	7.359	7.447	6.176	5.835	5.348	5.436	5.891	6.704	7.290	8.733	9.852	11.02	13.04	14.48	15.95	17.00	17.96	18.55	18.43	17.77	15.99	13.61	12.14	11.56	10.03	8.903	7.794
335.0	1758	3126	3533	2609	1766	1336	1322	1609	2053	2633	3208	3473	3192	2579	1854	1305	1027	605.2	417.5	602.0	1671	2961	9999.9	9999.9	3023	51.91	29.71	20.64	15.62	12.85	10.61	8.349	6.871	6.477	5.491	5.030	3.968	3.979	3.382	3.571	3.269	3.214	3.366	3.833	4.841	6.469	7.929	10.41	10.76	9.590	8.718	8.756	7.623	7.043	6.112	6.125	6.279	6.899	7.370	8.581	9.500	10.75	12.15	13.45	14.71	15.54	16.93	17.02	17.20	17.22	15.10	14.20	12.56	11.61	10.22	9.072	8.584
340.0	1644	2924	3501	2802	1979	1459	1348	1588	1960	2477	2976	3239	3038	2542	1878	1293	1046	783.2	462.5	399.9	592.6	848.9	3783	9999.9	9999.9	2474	47.02	26.88	19.59	14.96	12.64	9.290	7.819	7.035	5.754	4.888	4.168	4.187	3.652	3.313	3.438	3.365	3.256	3.924	4.507	6.293	7.773	10.07	10.35	9.901	9.205	9.582	8.231	7.621	6.787	6.150	6.570	6.907	7.526	8.295	9.208	10.15	11.45	12.48	13.99	14.34	15.76	15.70	15.82	16.46	15.13	13.69	12.38	11.59	10.24	8.930	7.927
345.0	1502	2746	3332	2880	2102	1517	1345	1549	1860	2312	2756	2986	2858	2457	1858	1285	972.3	853.5	583.4	395.3	379.6	400.2	1009	5702	9999.9	9999.9	371.4	39.63	24.48	17.97	13.79	9.861	8.199	7.401	5.813	4.990	4.477	4.422	3.677	3.483	3.296	3.156	3.390	3.781	4.366	5.753	7.395	9.509	10.19	9.755	9.091	9.771	8.960	7.830	7.089	6.246	6.830	7.031	7.520	7.582	8.746	9.528	10.76	11.64	12.64	13.27	14.59	14.74	14.99	15.29	14.32	13.25	12.44	11.72	10.04	9.093	8.017
350.0	1335	2380	3078	2822	2145	1589	1373	1518	1750	2120	2475	2674	2585	2294	1776	1266	946.1	776.1	693.3	515.6	379.9	329.1	404.9	1417	5708	9999.9	9999.9	8287	42.86	25.56	18.66	12.53	9.749	8.378	6.722	5.625	4.774	4.507	3.719	3.533	3.134	3.164	3.257	3.602	4.214	5.248	6.496	8.567	9.638	9.151	8.715	9.911	9.028	8.205	7.036	6.429	6.695	6.971	7.183	7.788	8.292	8.899	9.784	10.55	11.87	12.15	12.85	13.11	13.78	13.84	13.08	12.29	11.80	11.18	9.558	8.864	7.467
355.0	1186	2058	2755	2623	2117	1586	1353	1465	1658	1923	2229	2384	2309	2087	1661	1228	936.2	747.3	641.6	627.8	475.0	347.7	297.4	462.5	1375	2645	9999.9	9999.9	2999	48.22	25.86	16.57	12.43	9.717	7.496	6.040	5.341	4.898	4.171	3.772	3.310	3.018	3.200	3.326	3.835	4.958	5.976	7.701	8.651	8.539	8.090	9.732	8.952	8.127	6.959	6.683	6.457	6.609	6.898	7.510	8.128	8.384	9.249	9.375	10.54	10.99	11.38	11.98	12.26	12.22	12.09	11.13	10.65	10.39	9.208	8.406	7.759
360.0	1059	1814	2481	2426	2043	1568	1343	1407	1571	1801	2033	2157	2097	1912	1554	1173	926.0	744.4	627.1	598.3	572.3	402.6	295.3	267.1	422.3	681.0	3112	9999.9	9999.9	2666	44.05	22.16	16.00	12.09	8.441	6.828	5.602	5.269	4.439	3.874	3.387	3.057	3.132	3.272	3.635	4.402	5.641	7.010	7.674	7.751	7.595	8.979	8.950	7.957	6.889	6.349	6.526	6.740	6.688	7.110	7.667	8.126	8.388	8.924	9.850	10.05	10.15	10.84	11.21	11.22	10.67	10.41	9.677	9.720	8.599	8.116	7.592
365.0	940.1	1646	2243	2262	1952	1535	1317	1353	1493	1681	1859	1961	1922	1767	1452	1123	907.0	741.0	627.7	565.8	581.1	495.4	326.3	241.4	227.8	251.9	778.6	4148	9999.9	9999.9	372.7	35.76	19.95	14.93	10.23	7.694	6.124	5.439	4.893	3.971	3.492	3.366	3.175	3.190	3.551	4.254	5.001	6.350	6.903	7.103	7.334	8.399	8.355	7.479	6.857	6.111	6.631	6.544	6.549	7.006	7.483	7.765	8.178	8.301	8.922	8.921	9.659	10.20	10.05	10.46	9.760	9.821	9.247	9.122	8.243	7.825	7.169
370.0	807.2	1444	1948	2063	1833	1479	1262	1288	1385	1540	1702	1754	1707	1593	1332	1054	877.5	740.3	642.1	568.0	536.7	532.4	432.0	285.9	214.2	179.8	266.9	1009	4363	9999.9	9999.9	8402	37.29	22.18	13.71	10.10	7.394	6.364	5.423	4.449	3.954	3.399	3.269	3.241	3.414	4.090	4.456	5.613	6.265	6.331	6.712	7.951	7.696	7.402	6.603	6.027	6.065	6.249	6.246	6.473	6.958	7.265	7.472	8.056	8.242	8.169	8.926	8.625	9.226	9.165	8.913	8.577	8.629	8.366	7.748	7.245	6.887
375.0	683.0	1219	1670	1858	1681	1376	1203	1217	1283	1402	1511	1554	1515	1407	1197	982.5	837.9	732.5	642.2	581.5	529.3	493.5	485.3	385.9	255.7	192.7	179.2	316.1	1044	2484	9999.9	9999.9	9999.9	42.52	20.11	14.21	9.753	7.367	6.284	5.256	4.365	3.985	3.494	3.602	3.310	3.866	3.987	5.093	5.718	5.992	6.085	7.505	7.355	7.110	6.281	5.827	5.885	6.101	6.037	6.001	6.455	6.705	7.144	7.246	7.349	7.582	7.796	7.856	8.022	8.297	7.899	7.780	7.813	7.570	7.225	6.377	6.286
380.0	627.8	1098	1531	1685	1568	1329	1151	1157	1204	1286	1388	1426	1379	1285	1109	920.5	799.5	719.0	640.8	587.6	529.7	487.0	461.3	447.6	313.2	216.3	174.6	175.8	313.9	624.3	2827	9999.9	9999.9	2418	35.32	17.73	12.20	9.790	6.871	5.481	4.637	4.257	3.687	3.633	3.318	3.873	3.774	4.975	5.440	5.486	5.551	6.696	6.682	6.773	6.222	5.534	5.746	5.779	5.664	5.626	5.962	6.112	6.560	6.748	6.758	6.966	7.047	7.088	7.143	7.718	7.215	7.168	7.289	6.843	6.866	6.414	5.991
385.0	589.6	980.4	1394	1545	1463	1259	1102	1094	1123	1202	1285	1305	1271	1182	1029	868.3	772.7	701.8	636.2	584.4	535.7	490.5	445.5	433.2	379.4	253.8	191.5	158.5	164.1	214.7	699.6	3377	9999.9	9999.9	1893	29.25	14.25	11.46	7.964	6.150	5.260	4.456	4.116	3.832	3.386	3.865	3.780	4.936	4.935	5.251	5.383	6.418	6.240	6.470	6.033	5.364	5.779	5.791	5.519	5.490	5.604	5.717	6.265	6.546	6.424	6.392	6.459	6.474	6.575	6.828	6.665	6.745	6.749	6.619	6.295	6.290	6.126
390.0	515.8	864.6	1215	1397	1346	1185	1058	1025	1052	1098	1152	1177	1137	1069	943.7	812.0	728.9	679.2	629.3	584.8	539.1	499.1	454.2	410.3	393.6	336.8	240.4	183.2	154.0	142.4	231.4	815.6	3444	9999.9	9999.9	7365	29.77	16.40	10.09	8.060	5.948	4.890	4.437	4.034	3.719	4.059	3.898	4.521	4.663	4.793	4.936	5.984	5.883	5.793	5.677	5.322	5.441	5.457	5.176	5.158	5.479	5.391	5.893	5.751	6.083	5.836	5.643	5.970	6.143	6.257	6.359	6.365	6.015	5.880	5.686	5.590	5.553
395.0	459.3	799.1	1118	1256	1238	1116	1009	963.6	974.6	1003	1050	1064	1022	966.2	864.1	758.3	695.6	661.4	615.7	578.8	543.4	507.1	467.0	422.2	381.1	370.9	325.3	232.5	182.6	149.2	144.4	251.5	821.1	2374	9999.9	9999.9	9999.9	35.74	14.81	10.33	7.594	5.771	5.015	4.480	3.860	4.118	3.972	4.466	4.444	4.586	4.640	5.612	5.499	5.647	5.428	5.268	5.389	4.948	5.205	5.074	5.165	5.352	5.195	5.491	5.373	5.312	5.125	5.269	5.550	5.817	5.664	5.812	5.574	5.627	5.225	5.402	5.469
400.0	433.6	738.5	1019	1167	1189	1075	989.4	922.5	924.1	943.9	977.9	985.7	956.4	902.3	815.7	721.8	673.0	634.5	600.1	567.5	537.7	514.4	475.9	434.8	388.4	362.9	369.5	290.0	209.0	168.3	139.0	136.9	243.3	578.4	2544	9999.9	9999.9	2088	29.74	13.15	9.338	6.771	5.707	4.562	3.989	4.020	3.839	4.216	4.105	4.404	4.461	5.167	5.228	5.380	5.046	5.018	5.325	4.965	4.866	5.004	4.985	4.785	5.048	5.014	4.957	4.923	5.044	5.208	5.357	5.407	5.426	5.252	5.181	5.348	4.993	5.099	5.171
405.0	396.7	707.0	949.4	1105	1116	1047	968.7	906.5	896.7	899.8	924.6	927.9	908.2	842.9	771.0	690.9	642.7	614.8	588.8	558.3	529.0	507.7	478.6	438.9	401.4	363.8	361.6	342.6	248.2	188.8	152.9	123.3	122.6	181.4	610.1	2964	9999.9	9999.9	1682	23.91	11.11	7.810	6.362	5.293	4.326	4.273	3.962	4.243	4.154	4.190	4.324	5.004	4.967	4.998	5.134	5.027	5.239	4.964	5.093	4.995	4.570	4.809	4.822	4.676	4.925	4.679	4.778	4.949	5.074	5.090	4.776	4.821	4.955	5.077	4.688	4.839	4.701
410.0	372.3	625.2	879.3	1024	1046	1003	935.7	890.2	856.4	852.8	869.7	860.9	837.5	785.8	720.3	646.6	609.0	585.2	559.7	536.1	515.7	497.5	475.4	444.7	411.3	373.3	348.3	342.1	310.5	230.6	174.1	133.2	107.7	101.7	181.6	699.9	3022	9999.9	9999.9	6384	25.75	11.46	8.134	6.472	5.061	4.770	4.092	4.392	4.256	4.059	4.109	4.765	4.904	5.120	4.808	4.693	4.956	4.785	4.743	4.844	4.642	4.716	4.770	4.566	4.657	4.488	4.747	4.633	4.604	4.709	4.546	4.561	4.579	4.717	4.303	4.702	4.361
415.0	375.4	548.8	804.1	958.2	986.7	952.3	907.7	859.6	827.1	811.9	814.1	799.8	772.0	732.6	666.5	603.5	568.3	545.8	524.3	511.6	494.9	482.1	462.8	441.5	411.5	383.0	351.0	326.1	320.8	287.6	203.5	150.6	116.0	92.84	92.76	195.7	704.3	2318	7647	9999.9	8543	31.01	11.83	8.072	6.302	5.477	4.510	4.368	4.031	3.829	4.085	4.630	5.015	4.901	4.947	4.635	4.721	4.741	4.763	4.500	4.577	4.337	4.443	4.530	4.470	4.472	4.223	4.300	4.124	4.380	4.458	4.387	4.480	4.365	4.286	4.337	4.388
420.0	343.8	539.3	757.4	887.3	940.0	915.2	877.0	834.2	796.6	783.8	776.4	760.4	731.4	690.4	627.4	574.5	538.8	518.5	499.7	487.8	474.1	462.2	451.1	434.3	411.8	385.7	355.2	323.3	306.8	305.8	241.5	166.3	126.7	97.98	78.33	86.95	190.7	544.5	1915	9999.9	9999.9	1892	25.88	10.42	7.252	5.923	4.958	4.648	4.095	4.112	3.924	4.610	4.675	4.958	5.057	4.641	4.819	4.855	4.711	4.474	4.447	4.435	4.329	4.388	4.312	4.141	4.110	4.081	4.040	4.373	4.196	4.320	4.292	4.057	3.952	4.031	4.212
425.0	329.8	499.8	708.5	855.1	897.4	886.2	848.3	824.1	784.9	753.6	747.9	729.2	693.8	652.5	600.9	541.6	506.6	493.5	482.2	464.7	455.3	451.0	442.7	420.2	406.9	386.4	357.1	330.0	304.2	292.3	270.5	193.7	137.8	105.4	80.34	66.58	78.45	150.3	453.8	2734	9999.9	9999.9	1516	19.89	8.821	6.996	5.461	4.946	4.324	4.063	4.034	4.745	4.608	4.515	4.587	4.585	4.859	4.671	4.648	4.352	4.467	4.481	4.212	4.310	4.136	3.798	3.844	3.854	3.851	4.130	3.882	4.052	4.067	3.994	3.675	3.860	4.016
430.0	330.7	474.2	655.1	814.0	845.1	853.3	833.9	810.7	773.3	742.9	720.9	694.6	657.9	614.2	561.0	508.5	478.8	462.6	449.1	436.2	430.8	426.4	421.4	410.4	396.4	378.6	356.1	332.5	309.1	282.0	263.9	227.6	162.5	116.4	89.67	69.03	59.15	66.31	126.7	632.7	2790	9999.9	9999.9	5416	22.54	9.937	6.944	5.819	4.821	4.355	4.116	4.693	4.632	4.528	4.536	4.338	4.717	4.599	4.693	4.307	4.442	4.288	4.356	4.268	4.160	3.772	3.747	3.920	3.759	3.728	3.729	3.887	3.762	3.801	3.667	3.670	3.580
435.0	434.5	434.2	612.4	754.7	788.4	813.1	807.6	788.3	754.7	723.7	683.6	663.3	625.8	582.5	528.2	475.8	451.0	429.8	417.7	410.0	403.8	398.8	400.6	398.1	384.9	369.8	354.4	333.0	310.0	282.5	251.7	228.7	194.7	137.6	100.3	77.55	61.40	51.73	57.10	164.3	640.4	2289	6679	9999.9	7128	28.09	10.23	6.784	5.633	4.610	4.516	4.788	4.489	4.593	4.451	4.518	4.618	4.409	4.554	4.369	4.303	3.993	4.066	3.993	4.094	3.758	3.741	3.655	3.520	3.592	3.789	3.765	3.505	3.494	3.497	3.550	3.422
440.0	552.0	456.4	573.2	706.7	770.9	782.3	796.2	773.3	743.1	707.8	672.2	643.4	595.2	556.2	502.5	454.6	420.6	406.2	396.3	389.6	383.9	380.4	384.5	383.6	373.0	362.1	347.3	325.7	310.5	285.3	249.2	216.1	203.9	157.8	109.6	82.73	65.67	53.20	43.95	61.59	162.9	527.8	1687	9999.9	9999.9	1700	21.80	9.268	6.708	5.368	4.829	4.970	4.889	4.726	4.440	4.689	4.632	4.753	4.508	4.761	4.133	4.001	4.208	3.967	3.771	3.613	3.673	3.768	3.608	3.330	3.378	3.669	3.377	3.551	3.385	3.332	3.046
445.0	650.4	631.5	546.9	687.2	734.3	761.8	783.3	752.5	718.2	689.2	658.5	614.6	575.4	530.0	476.4	427.0	400.4	385.5	372.8	368.1	362.1	364.5	365.4	360.8	360.6	350.8	340.5	322.4	307.9	280.1	249.3	213.4	194.4	172.6	124.5	90.34	69.17	56.42	43.96	41.14	57.62	136.1	395.4	2756	9999.9	9999.9	1248	17.98	8.405	5.967	4.986	5.165	5.114	4.891	4.532	4.536	4.572	4.779	4.649	4.561	4.371	3.735	3.995	4.132	3.925	3.559	3.789	3.560	3.511	3.339	3.203	3.395	3.161	3.212	3.108	3.109	2.963
450.0	544.2	1237	693.5	629.8	695.1	714.7	741.6	724.6	687.1	656.6	629.7	586.3	541.2	490.1	443.1	398.4	372.1	355.9	343.6	340.8	333.7	334.7	338.6	338.3	336.2	330.1	321.6	308.1	295.5	272.2	245.0	209.5	180.8	164.0	142.0	101.8	75.14	59.28	47.49	39.04	36.61	49.86	105.0	632.3	2835	9979	9999.9	4647	19.36	8.393	6.018	5.852	5.379	5.097	4.724	4.458	4.782	4.542	4.512	4.386	4.438	4.063	3.985	3.943	3.702	3.716	3.622	3.405	3.397	3.254	3.256	3.144	3.010	3.207	2.924	2.939	2.988
455.0	313.6	1649	1221	596.6	638.0	656.9	676.0	682.5	659.2	607.9	591.0	546.6	498.0	453.7	405.2	362.9	334.9	320.5	311.1	304.1	300.2	303.1	305.9	307.9	310.1	304.6	295.1	287.0	276.7	258.4	234.6	202.0	172.6	148.9	136.5	118.3	85.14	64.08	50.20	40.49	33.60	31.76	40.96	156.3	645.5	2294	6274	9999.9	1576	21.52	8.184	6.738	5.922	5.413	4.869	4.486	4.595	4.488	4.466	4.204	4.148	3.933	3.779	3.596	3.614	3.443	3.458	3.385	3.262	3.258	3.004	3.009	2.982	2.995	2.817	2.650	2.979
460.0	229.3	1288	2833	785.2	592.5	619.2	637.0	646.3	615.4	587.5	555.6	507.9	464.9	417.0	375.1	337.7	309.2	293.6	287.5	280.8	275.8	282.1	282.9	284.6	285.7	283.3	276.6	271.7	261.6	248.5	224.3	195.1	168.3	142.3	124.2	119.8	95.60	68.47	51.51	42.24	34.43	29.02	27.68	50.76	158.4	525.9	1558	8579	9999.9	1297	18.12	8.576	6.375	5.923	5.179	4.830	4.719	4.551	4.461	3.974	4.055	3.886	3.740	3.367	3.552	3.204	3.338	3.184	3.234	3.140	2.861	2.798	3.056	2.790	2.578	2.728	2.610
465.0	201.1	709.9	3790	1884	546.4	585.8	596.0	602.9	592.9	549.3	519.2	479.7	434.0	390.7	347.6	313.0	290.1	272.4	264.1	258.1	255.8	258.3	256.8	264.6	264.2	263.9	256.3	255.0	244.9	235.0	212.9	186.7	160.0	137.8	117.0	108.9	101.5	73.74	55.23	43.74	36.56	29.87	25.41	28.02	49.56	131.5	362.5	2339	9999.9	9999.9	1058	16.54	7.855	6.365	5.570	5.038	4.726	4.804	4.372	4.280	4.199	3.930	3.645	3.413	3.053	3.122	3.117	3.004	3.063	2.866	2.780	2.634	2.799	2.821	2.412	2.503	2.459
470.0	199.9	355.2	2559	4617	1063	523.9	542.8	548.4	538.7	503.0	475.5	439.6	391.6	351.1	312.5	277.6	258.2	245.0	234.8	227.7	227.8	226.6	229.3	233.8	235.3	235.7	231.6	229.2	222.8	213.9	196.2	173.4	150.5	129.6	111.6	96.81	91.45	80.75	60.03	45.38	36.76	30.48	25.78	23.39	25.57	42.77	93.09	535.2	2733	8006	9999.9	3747	19.48	8.458	6.291	5.394	5.104	4.672	4.382	4.042	4.126	3.862	3.601	3.411	3.193	3.099	3.027	2.930	2.732	2.655	2.388	2.586	2.574	2.428	2.428	2.370	2.430
475.0	192.6	269.5	955.0	5315	3652	523.5	492.5	493.4	484.4	461.1	428.3	394.2	348.1	312.2	277.2	244.8	224.6	215.2	204.8	199.2	196.7	199.5	201.1	206.3	208.3	207.1	206.2	204.3	200.1	192.7	179.7	159.1	140.3	120.6	105.4	89.25	79.02	74.56	67.31	48.54	37.38	31.02	26.10	22.61	20.76	22.18	32.53	129.8	618.5	1825	4855	9999.9	1601	24.07	7.461	6.062	5.430	5.008	4.342	3.964	3.875	3.434	3.332	3.190	3.087	2.856	2.674	2.692	2.648	2.407	2.237	2.272	2.337	2.268	2.218	2.122	2.204
480.0	196.0	224.3	444.1	3536	6542	993.9	455.0	458.4	451.4	430.5	397.0	367.1	326.2	291.0	256.8	224.3	208.1	196.9	187.5	182.7	179.6	180.7	183.6	187.2	189.2	189.1	188.4	186.8	184.0	176.6	165.1	150.9	130.0	114.9	99.83	84.86	73.71	67.52	65.84	54.90	38.76	31.24	26.77	23.14	19.59	18.35	18.82	39.12	147.1	416.0	1177	6095	9999.9	1486	19.55	7.315	5.956	5.206	4.806	4.200	3.966	3.481	3.506	3.205	2.955	3.040	2.791	2.623	2.460	2.284	2.161	2.215	2.265	2.180	2.000	2.180	1.965
485.0	174.6	229.8	326.8	1597	7763	2695	438.2	432.3	425.9	406.5	373.5	342.7	307.6	270.4	237.0	212.9	191.7	180.0	173.0	170.7	166.1	167.4	168.4	171.9	175.0	175.5	174.7	174.7	171.4	166.7	155.1	139.8	122.1	109.5	95.10	81.82	71.72	62.19	59.69	57.97	43.13	32.65	27.05	23.66	20.22	17.99	16.14	19.21	42.08	101.8	272.2	1611	8379	9999.9	212.2	15.31	6.840	5.798	4.911	4.335	3.836	3.545	3.475	3.109	2.925	2.800	2.635	2.598	2.409	2.346	2.122	2.165	2.198	2.016	1.814	2.016	1.932
490.0	145.9	234.2	285.4	622.1	4805	6798	1067	401.2	397.0	369.4	345.1	314.1	282.3	249.0	215.9	189.5	174.2	163.7	156.6	153.3	149.2	152.2	154.6	155.7	156.4	158.3	156.8	158.3	156.5	152.2	141.5	130.3	115.0	103.0	89.35	78.76	68.53	60.05	53.82	53.53	48.81	37.14	28.72	24.49	21.58	18.57	16.51	15.60	18.68	31.18	68.68	368.1	2190	6881	9625	3673	20.29	7.527	5.846	4.850	4.075	3.486	3.332	3.355	2.797	2.692	2.665	2.475	2.463	2.238	2.117	2.015	2.099	2.049	1.881	1.850	1.868
495.0	131.4	205.6	272.5	348.8	1570	7974	3193	411.7	363.1	341.1	319.5	289.3	256.4	224.5	193.6	172.6	152.8	148.0	140.9	136.4	132.9	134.2	136.7	137.8	138.6	139.6	139.4	139.9	139.7	136.8	129.8	119.0	105.8	94.34	82.21	73.69	65.33	57.29	51.17	47.20	46.17	43.17	32.36	25.72	22.40	19.39	17.06	15.04	14.17	15.76	23.27	89.83	495.3	1565	4837	9999.9	1791	25.77	7.613	5.470	4.445	4.153	3.720	3.253	3.079	2.689	2.590	2.406	2.340	2.251	1.975	2.036	1.972	1.853	1.820	1.701	1.786
500.0	122.6	182.1	268.4	279.0	585.4	5352	7320	789.2	334.4	317.8	302.0	269.0	240.6	202.5	180.0	153.5	142.5	134.2	127.6	125.0	121.5	121.7	123.5	126.0	126.9	127.9	129.2	128.8	128.3	125.9	117.8	108.6	96.87	87.94	78.21	68.82	62.32	54.27	49.25	43.80	41.44	44.12	35.95	26.68	23.01	20.34	17.67	15.54	13.25	12.42	13.08	27.82	117.8	356.9	1176	6008	9999.9	1599	21.85	6.566	4.894	4.218	3.765	3.295	2.874	2.690	2.350	2.136	2.143	2.246	1.935	1.973	1.993	1.801	1.786	1.721	1.477
505.0	115.8	148.0	260.9	259.8	334.9	2321	9202	2216	319.1	302.3	277.1	249.2	220.7	190.5	162.8	143.7	129.7	123.6	116.8	112.3	111.1	111.4	111.2	114.2	114.9	115.7	117.5	117.4	117.2	113.7	110.9	100.6	91.17	81.46	72.84	64.41	58.21	52.21	47.40	41.53	37.87	39.17	38.24	29.42	23.32	20.37	18.11	16.03	13.61	12.18	11.29	13.64	33.52	87.17	270.8	1565	7762	9999.9	1291	15.45	5.883	4.472	3.854	3.481	2.982	2.751	2.439	2.267	2.040	2.034	1.953	1.808	1.798	1.617	1.608	1.663	1.612
510.0	97.86	126.4	213.4	269.9	252.5	756.2	5940	7099	783.1	273.7	252.3	224.5	197.8	168.2	146.1	126.2	114.9	108.4	103.6	99.05	96.70	96.81	97.52	100.8	100.3	101.3	103.6	102.4	102.4	99.77	97.77	89.88	81.85	72.91	65.50	59.41	54.06	48.11	43.49	39.43	34.69	33.56	34.44	32.55	25.66	20.53	18.09	16.10	13.58	12.10	11.12	10.37	14.46	26.00	67.22	356.5	2001	6183	8632	3271	20.32	6.156	4.409	3.749	3.031	2.607	2.392	2.200	2.013	1.909	1.913	1.686	1.613	1.552	1.451	1.490	1.501
515.0	80.89	116.7	170.7	251.8	229.8	342.0	1866	9216	3584	272.4	232.3	202.0	174.6	148.1	126.4	110.2	99.58	93.21	89.26	85.38	82.87	84.35	84.05	86.26	87.20	87.79	89.54	89.13	87.82	87.48	84.42	77.61	71.31	64.87	58.25	52.92	48.29	44.20	40.26	35.89	32.62	29.48	28.40	30.88	28.54	21.74	17.86	15.74	13.58	11.73	10.82	10.37	9.848	12.31	20.76	85.27	451.9	1396	3706	9616	1831	27.08	5.946	4.111	3.517	2.719	2.590	2.441	1.893	1.818	1.675	1.573	1.574	1.413	1.431	1.346	1.483
520.0	81.45	111.6	147.9	209.1	235.2	232.6	593.0	6291	7781	595.0	207.4	181.8	158.9	135.8	115.3	100.6	88.52	82.52	80.72	75.44	74.19	74.56	74.94	77.04	75.78	78.19	79.36	79.68	78.75	79.13	75.50	71.24	65.03	59.11	53.35	48.21	43.87	40.57	36.99	33.41	30.54	28.05	25.57	27.22	28.44	22.56	17.67	15.39	13.49	11.55	10.40	9.639	8.867	8.628	10.44	24.71	106.5	317.5	878.1	4777	9031	1669	22.70	5.235	3.781	2.853	2.675	2.246	1.988	1.833	1.544	1.641	1.419	1.471	1.336	1.250	1.317
525.0	76.09	108.0	124.0	167.0	241.2	196.2	282.2	2647	9999.9	1762	195.4	171.3	147.0	124.8	104.7	90.35	81.21	75.48	73.21	69.11	67.02	66.36	67.26	68.58	69.81	70.40	69.34	70.79	71.12	71.72	67.12	64.32	59.19	53.27	48.27	44.31	40.27	37.29	34.08	31.90	28.55	26.16	23.99	23.23	25.07	24.25	18.59	14.70	13.05	11.44	10.28	9.472	8.782	7.723	7.627	10.52	28.69	76.41	202.6	1183	5646	8049	1380	16.46	4.417	3.116	2.849	2.400	2.072	1.791	1.598	1.632	1.421	1.419	1.553	1.190	1.207
530.0	70.26	88.27	108.0	132.3	216.4	201.6	194.0	782.1	6768	7835	613.9	153.1	130.1	109.1	92.34	79.29	71.05	66.29	63.45	60.92	58.48	58.40	58.44	59.81	60.11	60.73	59.81	61.58	61.37	61.25	58.55	55.81	51.25	46.87	42.48	38.89	35.69	33.46	30.30	28.23	26.10	23.83	22.19	20.84	20.48	22.04	19.76	15.38	12.02	10.64	9.542	8.825	8.205	7.434	6.754	6.884	10.88	21.60	49.98	269.1	1397	4239	6391	2729	98.06	4.835	3.134	2.622	2.148	1.928	1.677	1.630	1.490	1.295	1.340	1.139	1.153
535.0	66.25	78.96	94.75	111.8	162.4	201.8	156.5	296.0	2022	9999.9	3767	154.4	116.9	95.68	79.35	68.01	62.29	56.52	54.04	51.24	50.30	49.71	49.21	51.07	51.72	51.74	51.11	52.61	52.40	52.81	51.58	47.28	43.40	40.06	36.29	33.69	30.93	28.71	26.87	25.16	22.95	21.43	19.80	18.56	17.66	17.71	18.47	15.97	11.94	10.13	8.749	8.201	7.234	6.936	6.463	6.131	6.628	8.872	15.36	64.24	315.3	952.4	2281	6467	1914	29.11	4.378	3.038	2.279	1.957	1.742	1.610	1.440	1.278	1.306	1.146	1.228
540.0	69.40	75.35	85.58	101.1	122.5	193.8	153.5	175.0	582.9	6795	8985	211.9	105.8	85.88	72.71	59.65	54.26	51.91	47.35	45.62	44.94	43.21	43.43	44.91	45.00	44.44	43.53	46.17	46.05	45.42	44.15	42.25	38.38	34.66	32.90	29.25	27.33	25.45	24.01	22.33	20.21	19.67	17.79	16.98	16.02	15.09	15.59	16.04	12.60	9.520	8.226	8.033	6.835	6.259	6.111	6.002	5.225	5.693	6.985	18.05	74.02	216.5	526.0	2761	6178	1723	24.28	3.971	2.568	2.292	1.632	1.545	1.372	1.229	1.165	1.093	1.175
545.0	64.65	81.75	87.25	90.04	103.3	163.4	168.0	138.4	235.4	2588	9999.9	1287	99.64	79.52	63.59	54.74	49.11	44.85	41.57	40.84	39.42	39.60	38.32	38.67	38.72	40.21	39.91	39.85	40.42	39.42	38.09	37.15	33.87	31.69	28.82	27.60	24.62	23.11	21.56	20.41	18.29	17.52	16.56	15.26	14.91	13.47	12.79	13.86	13.14	9.891	8.010	7.092	6.247	5.937	5.170	5.497	5.011	4.684	4.956	7.429	19.87	51.60	121.6	655.0	3165	5796	1439	18.59	3.289	2.615	1.934	1.759	1.345	1.290	1.241	1.104	1.103
550.0	68.91	82.57	85.48	81.41	89.31	114.3	174.9	125.0	140.5	711.0	6780	7288	383.6	69.22	56.10	46.18	41.99	38.26	35.50	33.77	32.91	32.52	32.32	32.31	32.59	33.43	33.09	33.35	33.36	33.87	32.40	30.95	28.57	26.22	24.53	22.94	20.48	19.61	18.40	17.13	15.98	15.03	14.31	13.17	12.51	11.59	10.61	11.06	11.42	10.23	7.905	6.228	5.517	5.303	4.776	4.654	4.628	4.472	4.120	4.529	7.372	14.37	30.25	149.5	749.5	2535	4259	2173	111.5	4.820	2.313	1.755	1.480	1.206	1.157	1.165	0.923
555.0	79.22	89.92	98.72	79.01	76.89	83.19	145.5	139.8	114.1	247.8	1903	9999.9	2796	73.72	49.59	38.84	35.01	32.52	29.88	28.47	26.65	27.11	25.74	25.73	27.55	26.85	28.15	27.09	27.54	27.65	26.11	24.78	23.26	21.20	20.20	18.21	16.81	16.01	15.25	14.23	13.59	12.50	12.01	11.01	10.87	9.696	9.521	8.311	8.414	9.134	7.795	6.021	4.966	4.680	4.137	4.000	3.962	4.061	3.837	3.632	4.090	5.890	9.277	35.73	169.8	568.6	1284	3837	1962	31.95	3.765	2.113	1.654	1.412	1.188	1.140	1.041
560.0	95.27	97.97	108.3	80.32	74.45	70.32	113.4	158.8	115.3	150.0	540.8	6357	7382	140.5	44.95	34.78	31.49	27.89	25.86	24.30	24.21	23.33	22.72	22.36	23.10	22.88	23.84	23.22	22.98	23.30	22.95	20.81	19.87	17.76	16.25	15.63	14.46	13.67	12.83	12.12	11.78	10.65	10.08	9.470	9.054	8.575	8.299	7.467	6.721	7.660	7.561	6.057	4.332	4.032	3.910	3.633	3.526	3.662	3.749	3.734	3.366	3.730	4.378	10.29	40.33	129.6	292.8	1388	3878	1775	27.22	2.709	1.884	1.364	1.128	1.079	0.993
565.0	113.2	126.2	129.9	84.40	68.69	68.93	94.33	169.0	136.1	145.2	242.9	2355	9999.9	909.2	43.61	32.51	27.82	25.18	22.64	21.62	21.26	19.74	19.74	19.21	19.88	19.50	19.51	20.20	20.06	19.23	18.91	17.96	16.81	15.92	14.36	13.78	12.68	11.78	11.16	10.58	9.894	9.405	8.598	8.399	8.137	7.328	7.164	6.505	5.995	6.314	6.496	5.929	4.221	3.750	3.704	3.360	3.335	3.116	3.383	3.684	3.089	3.027	3.193	4.812	11.28	31.58	68.49	321.1	1643	3792	1374	21.14	2.574	1.681	1.371	1.035	1.022
570.0	153.9	192.6	178.6	102.3	71.54	69.71	88.09	150.5	181.7	181.8	223.3	722.1	6237	6228	253.1	29.50	24.21	21.22	19.17	17.70	16.98	16.51	16.53	15.73	16.54	16.09	15.89	16.10	16.71	16.03	15.79	14.70	13.82	13.19	11.66	11.15	10.49	9.901	9.237	8.881	8.206	7.984	6.929	7.105	6.787	6.460	6.231	5.846	5.191	5.028	4.940	5.252	4.394	3.556	3.209	2.927	2.918	2.863	2.911	2.988	3.126	3.079	2.926	3.211	4.998	9.499	17.88	74.50	379.7	1404	2415	1488	118.0	4.280	1.483	1.254	1.150
575.0	205.0	258.4	224.3	119.0	70.62	71.57	92.59	130.3	228.4	232.7	261.9	367.6	1804	8795	2206	32.57	21.78	17.99	16.73	15.00	14.16	13.90	12.72	13.02	13.53	13.34	13.16	13.21	13.06	13.00	12.96	12.00	11.25	10.74	9.216	9.356	8.661	8.403	7.438	7.055	6.798	6.590	5.911	6.068	5.512	5.614	5.442	5.024	4.691	4.132	3.746	4.222	4.322	3.710	2.982	2.629	2.488	2.516	2.753	2.638	2.740	3.331	3.058	3.093	3.532	4.567	6.451	19.17	87.31	315.3	641.7	2070	1896	33.24	3.095	1.470	1.190
580.0	221.7	302.6	271.3	133.3	73.39	76.13	93.27	130.1	219.8	284.2	294.5	312.8	586.3	5622	6098	86.18	21.44	16.71	14.79	13.70	12.76	12.40	11.68	11.48	11.73	10.94	10.81	11.50	10.99	10.67	11.17	9.886	9.513	8.977	7.641	7.860	7.607	6.991	6.474	5.851	6.322	5.858	5.325	5.143	4.703	5.190	4.845	4.622	4.106	3.717	3.283	3.432	3.680	3.763	2.945	2.506	2.484	2.173	2.591	2.393	2.523	3.092	3.146	2.844	3.136	3.700	3.969	6.889	22.19	72.70	146.2	670.1	2251	1531	29.35	1.771	1.382
585.0	218.3	324.4	277.6	141.2	79.08	74.57	94.85	133.1	212.4	314.4	326.9	320.3	313.4	2076	8676	612.0	20.30	16.24	14.03	12.53	11.40	10.78	10.85	10.73	9.897	10.16	9.591	9.630	9.501	9.195	9.479	8.978	8.113	7.803	6.863	6.948	6.252	6.302	5.707	5.476	5.424	4.835	4.741	4.522	4.528	4.548	4.151	4.130	3.564	3.342	2.997	2.889	3.028	3.380	3.081	2.409	2.109	2.178	2.348	2.381	2.388	2.523	2.908	3.286	3.072	3.205	3.311	4.080	7.397	18.46	34.66	153.8	832.2	2242	1065	21.31	1.728
590.0	227.4	353.5	293.7	150.3	78.00	73.92	91.35	131.2	200.2	326.1	367.6	332.5	264.7	580.8	5405	4427	61.30	16.25	13.09	11.30	9.934	9.444	9.238	9.292	8.492	8.195	8.382	8.107	8.236	8.066	7.744	7.361	6.922	6.618	6.058	5.811	5.324	5.336	4.815	4.574	4.490	3.996	4.113	3.916	3.983	3.904	3.737	3.695	3.363	2.920	2.692	2.477	2.368	2.593	2.888	2.529	2.095	2.027	2.112	2.135	2.201	2.355	2.574	3.074	3.063	3.162	3.128	3.381	3.860	6.215	9.548	35.96	190.3	762.8	1486	941.7	117.3
595.0	234.0	359.8	313.4	151.7	75.40	71.81	91.94	129.2	195.9	308.1	395.0	342.9	260.2	215.3	1485	6654	669.4	18.43	12.28	10.04	9.589	8.220	7.871	8.252	7.226	6.812	7.217	6.958	6.737	6.756	6.421	6.127	5.634	5.588	5.090	4.930	4.381	4.369	4.062	3.996	3.587	3.502	3.298	3.353	3.280	3.369	3.312	3.395	3.139	2.632	2.303	2.127	1.974	1.963	2.320	2.478	2.249	1.929	1.760	1.917	2.027	2.183	2.547	2.549	3.104	3.075	2.832	2.834	3.076	3.262	3.787	9.407	43.51	171.1	378.2	1138	1364
600.0	246.6	351.4	308.9	147.1	75.26	67.55	91.72	127.6	188.4	283.7	393.1	347.6	253.4	133.4	381.7	4548	3640	52.59	11.62	9.629	8.811	7.838	6.655	6.807	6.672	6.294	6.138	6.177	5.876	6.069	5.766	5.686	4.853	4.871	4.335	4.269	3.953	3.745	3.617	3.441	3.092	3.144	2.984	3.085	2.907	2.832	2.993	3.093	3.021	2.473	2.119	1.935	1.769	1.704	1.816	2.255	2.178	1.737	1.640	1.822	1.972	2.092	2.346	2.427	2.744	2.831	2.877	2.735	2.471	2.620	2.332	3.321	10.66	39.18	85.84	351.1	1387
605.0	227.7	331.2	298.9	139.4	72.27	64.72	88.82	122.1	188.7	268.4	363.6	353.3	250.0	116.1	120.6	1757	5838	396.2	11.94	8.901	7.653	7.245	6.433	6.360	5.822	5.517	5.600	5.728	5.282	5.472	5.238	4.691	4.409	4.108	3.812	3.641	3.557	3.310	3.284	3.239	2.983	2.787	2.591	2.779	2.560	2.631	2.839	2.738	2.642	2.197	1.926	1.771	1.545	1.672	1.650	1.885	2.129	1.828	1.657	1.741	1.898	1.974	2.176	2.282	2.650	2.824	2.874	2.595	2.291	2.328	2.021	1.930	3.401	9.803	20.09	80.33	486.9
610.0	203.3	306.6	268.2	134.5	69.00	63.29	87.09	115.9	175.3	255.5	338.0	348.8	245.6	114.0	65.92	453.7	4058	3062	41.04	9.111	7.555	6.446	6.184	5.454	5.260	4.991	4.931	4.961	4.863	4.562	4.522	3.907	3.934	3.529	3.424	3.172	3.180	2.957	2.806	2.603	2.385	2.335	2.252	2.340	2.287	2.525	2.457	2.496	2.328	1.895	1.682	1.545	1.426	1.380	1.354	1.529	1.792	1.894	1.762	1.617	1.695	1.855	1.977	2.095	2.396	2.400	2.696	2.578	2.347	2.023	1.759	1.440	1.662	3.007	5.375	18.80	110.9
615.0	180.7	271.6	243.8	123.2	66.58	61.74	80.68	115.0	163.7	229.4	294.5	324.3	238.7	112.8	55.54	124.8	1175	5097	499.1	11.03	7.217	6.223	5.364	4.992	4.665	4.500	4.564	4.063	4.015	4.019	3.999	3.486	3.293	3.270	2.833	2.795	2.776	2.652	2.337	2.182	2.060	2.013	1.997	2.031	2.009	2.161	2.251	2.199	1.821	1.835	1.548	1.395	1.260	1.202	1.228	1.324	1.449	1.738	1.705	1.650	1.541	1.719	1.836	1.774	2.122	2.259	2.476	2.474	2.226	2.038	1.510	1.288	1.189	1.520	2.066	4.879	25.40
620.0	164.2	249.5	226.5	119.4	62.33	59.33	78.64	106.7	154.9	219.5	269.4	295.6	236.9	110.9	53.41	51.67	299.2	3820	2523	27.80	7.524	5.979	5.043	4.751	4.372	3.895	4.156	3.582	3.781	3.650	3.521	3.079	2.940	2.846	2.622	2.800	2.608	2.272	2.218	2.077	1.889	1.731	1.926	1.764	1.815	1.682	1.906	1.918	1.744	1.719	1.348	1.281	1.306	1.169	1.170	1.180	1.197	1.526	1.520	1.402	1.447	1.626	1.711	1.749	1.900	2.133	2.259	2.296	2.221	1.807	1.441	1.515	1.054	1.072	1.284	1.825	6.435
625.0	153.4	227.2	208.6	110.0	60.29	59.11	74.26	99.37	142.5	206.2	252.8	260.8	231.4	110.1	54.49	35.73	85.66	1605	4433	218.1	7.706	6.160	5.341	4.535	4.514	3.737	3.459	3.570	3.555	3.323	3.283	2.857	2.869	2.723	2.562	2.322	2.403	2.117	1.938	1.974	1.756	1.671	1.675	1.622	1.644	1.801	1.665	1.853	1.748	1.478	1.311	1.171	1.136	1.136	1.069	1.141	1.150	1.200	1.425	1.425	1.461	1.441	1.590	1.696	1.788	1.830	2.060	2.021	1.955	1.868	1.488	1.219	1.009	0.992	1.027	1.023	2.092
630.0	143.6	201.7	184.2	102.2	57.98	55.15	68.86	92.67	129.9	183.5	227.1	231.6	207.9	116.4	55.23	33.95	37.10	411.1	3440	2000	27.33	6.443	5.457	4.419	4.089	3.479	3.306	3.195	3.128	2.942	2.969	2.732	2.518	2.386	2.267	2.180	2.050	2.000	1.805	1.675	1.550	1.599	1.520	1.476	1.596	1.622	1.552	1.620	1.585	1.396	1.197	1.106	1.011	1.033	0.915	1.101	1.099	1.083	1.246	1.330	1.451	1.515	1.498	1.605	1.633	1.789	1.805	1.809	1.776	1.656	1.559	1.316	0.953	0.915	0.949	0.834	1.113
635.0	117.6	172.6	164.4	91.93	53.31	52.93	64.49	83.14	117.8	164.7	200.9	207.8	181.7	121.5	57.93	33.59	26.19	105.2	1055	3824	355.9	7.502	5.097	4.406	3.938	3.504	3.156	2.802	2.730	2.755	2.754	2.458	2.310	2.222	2.047	2.196	1.854	1.827	1.640	1.617	1.466	1.471	1.549	1.440	1.483	1.615	1.583	1.490	1.547	1.244	1.054	1.030	0.933	0.890	0.967	0.898	1.016	1.019	1.063	1.091	1.381	1.351	1.386	1.535	1.471	1.622	1.613	1.657	1.667	1.406	1.398	1.302	0.981	0.947	0.996	0.805	0.795
640.0	118.7	161.0	149.4	87.79	51.03	48.63	61.16	82.48	111.2	147.7	184.4	191.6	162.6	118.8	64.10	35.33	24.75	36.80	265.9	3146	1589	15.96	5.419	4.493	4.151	3.289	3.180	2.759	2.640	2.573	2.654	2.307	2.321	2.138	2.184	2.075	1.752	1.678	1.494	1.485	1.474	1.428	1.372	1.580	1.468	1.548	1.519	1.455	1.411	1.195	1.062	0.977	0.876	0.845	0.938	0.965	1.067	0.976	1.059	1.105	1.246	1.199	1.238	1.452	1.502	1.487	1.373	1.464	1.313	1.389	1.325	1.217	1.059	0.998	0.913	0.670	0.771
645.0	103.1	162.4	144.8	84.39	51.87	48.40	57.16	77.07	104.8	138.1	171.2	180.5	150.6	109.5	71.94	36.57	24.46	22.25	70.24	1471	3065	58.70	6.204	4.475	3.961	2.995	2.979	2.747	2.711	2.538	2.435	2.214	1.987	1.932	1.928	2.071	1.802	1.568	1.523	1.445	1.474	1.348	1.289	1.406	1.275	1.401	1.523	1.356	1.315	1.165	0.996	0.946	1.005	0.905	0.852	1.029	0.945	0.936	1.101	1.090	1.090	1.236	1.334	1.378	1.415	1.395	1.312	1.483	1.170	1.379	1.267	1.074	1.090	1.014	0.817	0.713	0.711
650.0	106.4	151.5	144.6	81.70	50.27	44.78	55.36	71.97	97.70	125.4	155.5	168.7	142.3	99.36	75.56	37.89	25.07	18.11	25.36	434.7	3321	457.4	7.317	4.743	3.894	3.173	2.992	2.821	2.510	2.419	2.330	2.227	2.075	1.935	1.907	1.990	1.604	1.793	1.564	1.500	1.377	1.333	1.317	1.280	1.298	1.399	1.523	1.428	1.261	1.181	0.976	0.918	0.890	0.937	0.906	0.913	0.939	0.925	0.987	1.057	0.959	1.203	1.295	1.415	1.299	1.221	1.275	1.529	1.268	1.289	1.187	1.095	1.006	1.059	0.799	0.755	0.679
