Sample:	'1
File name:	G2025070115ºêÊ¤³öË® 20±¶.FD3
Run date:	'16:02:18, 07/03/2025
Operator:	Administrator
Comment:	'

Instrument
Model:	F-2700 FL Spectrophotometer
Serial number:	23B8-004
ROM Version:	4J14000 07

Instrument parameters
Measurement type:	3-D scan
Data mode:	Fluorescence
EX  Start WL:	220.0 nm
EX  End WL:	600.0 nm
EX Sampling interval:	5.0 nm
EM  Start WL:	230.0 nm
EM  End WL:	650.0 nm
EM Sampling interval:	5.0 nm
Scan speed:	12000 nm/min
EX Slit:	5.0 nm
EM Slit:	5.0 nm
PMT Voltage:	700 V
Response:	Auto 
Corrected spectra:	Off
Contour interval:	50.000

Peak integration
Integration method:	Rectangular
Sensitivity:	1
Threshold:	1.000

Peaks
No.	ApexEX/EM(nm)	Height(Data)
1	230.0/345.0	5522
2	245.0/270.0	512.2
3	245.0/535.0	244.3
4	250.0/275.0	646.1
5	250.0/550.0	189.0
6	255.0/285.0	639.3
7	255.0/560.0	140.8
8	260.0/290.0	550.3
9	260.0/575.0	117.3
10	265.0/295.0	655.5
11	265.0/585.0	93.47
12	270.0/300.0	854.7
13	270.0/600.0	86.37
14	275.0/310.0	955.4
15	275.0/415.0	4226
16	275.0/435.0	4351
17	275.0/610.0	77.77
18	280.0/315.0	954.2
19	280.0/340.0	1504
20	280.0/625.0	69.46
21	285.0/635.0	55.20
22	320.0/360.0	388.4
23	325.0/370.0	337.9
24	330.0/375.0	310.0
25	340.0/415.0	1628
26	340.0/435.0	1652
27	425.0/500.0	26.77
28	440.0/520.0	15.48
29	455.0/540.0	8.942
30	460.0/345.0	16.38
31	505.0/275.0	4.313
32	510.0/280.0	4.464
33	515.0/285.0	4.483
34	530.0/290.0	3.697
35	535.0/270.0	65.30
36	540.0/295.0	4.662
37	545.0/300.0	5.077
38	550.0/305.0	6.311
39	555.0/430.0	12.41
40	560.0/310.0	5.832
41	560.0/415.0	12.35
42	565.0/340.0	8.581
43	565.0/435.0	12.36
44	570.0/315.0	6.247
45	575.0/290.0	52.05

Data points
	220.0	225.0	230.0	235.0	240.0	245.0	250.0	255.0	260.0	265.0	270.0	275.0	280.0	285.0	290.0	295.0	300.0	305.0	310.0	315.0	320.0	325.0	330.0	335.0	340.0	345.0	350.0	355.0	360.0	365.0	370.0	375.0	380.0	385.0	390.0	395.0	400.0	405.0	410.0	415.0	420.0	425.0	430.0	435.0	440.0	445.0	450.0	455.0	460.0	465.0	470.0	475.0	480.0	485.0	490.0	495.0	500.0	505.0	510.0	515.0	520.0	525.0	530.0	535.0	540.0	545.0	550.0	555.0	560.0	565.0	570.0	575.0	580.0	585.0	590.0	595.0	600.0
230.0	150.6	3575	6719	1399	42.81	10.05	8.695	7.408	6.294	5.490	5.524	4.172	4.032	3.548	2.837	2.550	2.170	1.810	1.769	1.613	1.376	1.439	1.296	1.285	1.181	1.147	1.083	1.026	1.002	0.943	0.892	0.811	0.778	0.693	0.638	0.621	0.514	0.541	0.481	0.486	0.626	0.850	0.787	0.593	0.414	0.465	5.048	23.02	31.54	15.84	4.215	0.793	0.347	0.372	0.337	0.320	0.357	0.348	0.383	0.312	0.329	0.336	0.311	0.318	0.294	0.303	0.324	0.325	0.314	0.312	0.322	0.342	0.307	0.303	0.300	0.322	0.308
235.0	205.1	985.5	4892	5861	551.4	49.65	9.603	8.380	6.606	5.384	6.282	4.817	4.277	3.525	2.900	2.695	2.321	1.613	1.868	1.763	1.474	1.597	1.537	1.287	1.257	1.177	1.027	1.116	0.976	0.988	0.777	0.924	0.770	0.726	0.700	0.640	0.565	0.579	0.471	0.463	0.610	0.617	0.690	1.030	0.769	0.531	1.459	5.837	13.67	23.43	23.09	20.31	7.654	1.123	0.349	0.375	0.338	0.358	0.352	0.323	0.377	0.347	0.304	0.340	0.296	0.294	0.333	0.315	0.306	0.382	0.339	0.338	0.359	0.325	0.305	0.299	0.346
240.0	254.5	353.8	1543	7307	4453	403.1	23.69	9.983	8.008	6.766	6.919	5.006	4.702	4.181	3.119	2.957	2.161	2.045	1.725	1.897	1.515	1.499	1.494	1.424	1.260	1.223	1.109	1.117	1.128	1.012	1.006	0.916	0.780	0.707	0.736	0.734	0.693	0.546	0.506	0.516	0.566	0.494	0.573	0.773	0.906	0.977	0.901	1.685	3.457	7.283	18.84	41.60	27.80	17.92	5.366	0.766	0.406	0.369	0.390	0.356	0.411	0.353	0.305	0.328	0.334	0.314	0.302	0.407	0.311	0.374	0.340	0.344	0.359	0.381	0.351	0.347	0.358
245.0	199.9	303.9	425.6	2777	8525	3567	291.7	16.02	9.609	8.354	8.502	5.613	4.846	4.258	3.533	2.610	2.445	2.045	2.034	1.699	1.450	1.623	1.452	1.342	1.420	1.299	1.159	1.027	1.039	0.923	1.034	0.869	0.787	0.717	0.776	0.647	0.572	0.688	0.513	0.529	0.501	0.495	0.488	0.527	0.689	0.989	1.323	1.082	1.218	1.920	4.773	16.15	34.59	51.29	27.41	14.21	2.764	0.506	0.377	0.369	0.385	0.390	0.340	0.354	0.387	0.361	0.295	0.344	0.309	0.367	0.333	0.352	0.351	0.326	0.372	0.330	0.333
250.0	85.39	226.6	336.4	727.2	3091	6909	6421	1100	55.08	10.22	10.46	6.775	6.075	4.974	3.729	3.178	2.459	2.387	2.106	1.866	1.649	1.670	1.352	1.492	1.332	1.233	1.182	1.133	1.101	1.018	0.969	1.068	0.874	0.793	0.775	0.612	0.626	0.529	0.532	0.558	0.419	0.486	0.485	0.527	0.515	0.611	0.892	1.164	1.338	1.238	1.589	4.047	8.824	19.19	29.81	43.35	42.75	36.47	12.24	3.610	0.472	0.460	0.365	0.414	0.407	0.367	0.345	0.347	0.343	0.377	0.346	0.340	0.379	0.340	0.362	0.337	0.328
255.0	61.93	84.05	254.2	451.3	776.3	1892	7654	9893	1437	44.59	14.14	9.059	8.041	5.970	4.614	3.859	3.075	2.464	2.348	2.021	1.835	1.723	1.548	1.670	1.367	1.331	1.240	1.104	1.150	1.039	1.170	1.041	0.883	0.784	0.882	0.635	0.571	0.645	0.477	0.490	0.556	0.433	0.486	0.420	0.468	0.531	0.547	0.626	0.843	1.298	1.872	2.141	2.552	4.713	7.074	11.05	21.84	51.80	80.46	30.62	18.04	2.965	0.484	0.459	0.394	0.340	0.333	0.331	0.364	0.349	0.367	0.315	0.440	0.340	0.384	0.390	0.406
260.0	47.82	46.65	112.2	380.8	437.8	501.8	2560	9999.9	9786	238.4	31.14	11.15	8.461	5.985	5.312	4.288	3.318	2.696	2.400	2.078	1.851	1.974	1.742	1.491	1.483	1.323	1.421	1.284	1.380	1.138	1.086	0.968	0.853	1.066	0.803	0.691	0.597	0.689	0.561	0.509	0.532	0.591	0.495	0.499	0.481	0.476	0.474	0.451	0.502	0.725	1.339	2.390	2.154	1.971	2.121	2.989	5.502	15.34	44.05	70.88	80.76	28.03	13.27	1.412	0.404	0.387	0.347	0.441	0.408	0.362	0.349	0.361	0.375	0.333	0.398	0.332	0.353
265.0	47.87	39.48	49.91	210.5	472.9	320.8	661.0	3872	9999.9	7711	197.9	16.82	10.81	7.945	6.073	4.814	3.360	2.882	2.548	2.163	1.997	2.087	1.650	1.660	1.494	1.365	1.403	1.301	1.269	1.184	0.944	1.078	1.018	0.922	0.815	0.748	0.785	0.609	0.553	0.504	0.536	0.564	0.507	0.430	0.538	0.513	0.449	0.473	0.474	0.452	0.647	1.273	2.361	2.758	1.929	1.425	1.851	4.082	10.92	23.67	55.51	83.19	82.83	24.15	5.953	0.677	0.407	0.412	0.430	0.403	0.389	0.350	0.383	0.404	0.402	0.376	0.396
270.0	58.32	43.87	40.77	93.42	300.3	512.2	396.3	965.2	4103	9999.9	9999.9	751.6	44.59	11.07	7.574	5.706	4.158	3.407	2.977	2.434	2.301	2.137	1.819	1.775	1.679	1.382	1.489	1.380	1.287	1.302	1.250	1.046	1.029	0.882	0.923	0.686	0.747	0.662	0.606	0.566	0.558	0.611	0.502	0.517	0.508	0.512	0.525	0.499	0.516	0.430	0.503	0.752	1.194	1.819	2.551	2.861	2.447	1.996	3.176	5.905	13.61	26.66	49.55	65.30	48.31	48.95	15.51	5.716	0.753	0.467	0.432	0.436	0.395	0.453	0.443	0.428	0.408
275.0	75.64	60.35	47.87	70.93	154.6	356.0	646.1	450.0	977.2	2653	9999.9	9999.9	1049	34.87	10.85	7.657	5.394	3.936	3.369	3.059	2.257	2.361	1.916	2.058	1.717	1.651	1.647	1.469	1.448	1.290	1.237	1.242	1.218	1.004	1.004	0.792	0.747	0.777	0.600	0.652	0.579	0.594	0.610	0.583	0.525	0.593	0.518	0.519	0.510	0.449	0.510	0.618	0.863	1.090	1.381	2.007	3.539	4.313	2.893	2.224	3.572	6.543	11.63	15.62	18.68	48.31	82.86	78.42	23.89	5.309	0.668	0.491	0.408	0.440	0.505	0.442	0.458
280.0	90.47	82.64	67.82	70.43	113.8	221.9	523.7	624.8	347.3	649.5	3461	9999.9	9693	144.6	19.44	10.31	7.063	5.184	3.895	3.405	2.676	2.617	2.429	2.293	1.845	1.672	1.672	1.447	1.298	1.309	1.309	1.265	1.062	1.201	1.033	0.946	0.825	0.871	0.582	0.750	0.676	0.575	0.685	0.633	0.680	0.667	0.562	0.573	0.521	0.494	0.487	0.742	0.773	0.898	0.996	1.346	1.977	3.434	4.464	3.501	2.088	2.189	3.169	4.009	4.788	12.57	32.90	70.42	89.50	33.30	17.47	2.365	0.472	0.464	0.552	0.514	0.486
285.0	118.2	111.0	85.99	73.23	105.7	161.2	280.7	639.3	342.1	223.2	860.6	3903	9999.9	7226	103.3	13.61	8.709	6.482	4.885	3.898	3.114	2.785	2.386	2.331	2.036	1.753	1.694	1.645	1.286	1.459	1.379	1.328	1.175	1.201	1.120	1.064	1.040	0.958	0.672	0.748	0.713	0.736	0.763	0.612	0.717	0.707	0.666	0.675	0.531	0.550	0.487	0.659	0.717	0.736	0.871	1.029	1.195	1.725	2.744	4.483	3.904	2.355	1.547	1.676	1.736	3.393	8.110	19.56	43.62	73.95	83.46	29.08	8.581	0.883	0.594	0.510	0.448
290.0	169.1	136.0	110.8	85.92	97.92	125.7	156.5	291.5	550.3	435.2	309.7	966.5	4025	9999.9	8774	437.8	25.08	8.759	6.302	4.802	3.810	3.520	2.619	2.653	2.216	1.797	1.815	1.603	1.428	1.409	1.529	1.381	1.176	1.245	1.226	1.204	1.025	1.019	0.898	0.856	0.897	0.776	0.783	0.763	0.772	0.778	0.803	0.801	0.665	0.657	0.585	0.673	0.672	0.707	0.813	0.950	0.936	1.086	1.313	1.979	2.837	3.608	3.697	2.783	1.507	1.484	2.490	5.062	10.57	20.68	37.92	52.05	42.19	49.83	18.27	7.652	1.126
295.0	197.5	180.1	142.5	102.5	94.53	110.0	119.8	145.9	252.4	655.5	521.2	343.0	988.4	2576	8545	9999.9	605.2	22.39	9.251	6.118	4.337	4.438	2.927	3.068	2.524	2.058	1.952	1.759	1.584	1.608	1.428	1.396	1.379	1.207	1.350	1.300	1.099	0.896	0.960	0.966	0.951	0.789	0.839	0.841	0.752	0.866	0.858	0.882	0.802	0.602	0.702	0.777	0.721	0.698	0.822	0.848	0.853	0.913	1.012	1.213	1.295	1.631	2.391	4.590	4.662	2.632	1.695	1.956	3.036	5.464	9.142	12.56	13.15	34.21	68.23	75.94	28.94
300.0	265.9	240.8	191.7	127.7	106.2	111.6	128.5	141.4	187.9	426.8	854.7	426.0	361.7	688.6	2597	9999.9	5795	86.33	15.47	8.418	5.575	4.856	3.508	3.267	2.718	2.186	2.277	2.002	1.706	1.525	1.567	1.554	1.429	1.292	1.595	1.508	1.307	1.173	1.091	1.056	0.929	0.914	0.962	0.918	0.906	1.061	0.929	1.002	0.915	0.688	0.758	0.840	0.774	0.788	0.837	0.885	0.982	1.071	1.054	1.264	1.143	1.303	1.639	2.600	4.287	5.077	4.101	2.191	1.730	2.324	2.978	3.685	3.837	9.039	22.90	50.47	78.45
305.0	331.0	319.2	254.8	187.9	150.2	158.2	184.0	216.9	274.6	391.8	799.5	919.9	438.7	388.4	776.4	3725	9999.9	4815	71.54	11.79	7.238	5.597	4.310	3.778	3.220	2.618	2.732	2.066	1.675	1.773	1.867	1.546	1.562	1.423	1.652	1.434	1.507	1.107	1.292	1.160	1.047	1.095	1.079	1.075	1.049	1.160	1.205	1.119	1.096	0.985	1.016	1.069	0.889	0.914	0.965	1.021	1.153	1.335	1.419	1.564	1.584	1.571	1.918	2.309	3.070	4.308	6.311	5.494	3.447	2.456	2.484	2.311	2.319	3.519	6.320	13.70	32.60
310.0	411.8	444.5	385.0	283.0	220.7	220.0	251.8	304.1	355.6	452.6	632.4	955.4	907.7	510.4	458.1	1050	3607	9209	8013	1378	20.94	7.687	5.153	4.751	3.717	2.969	2.670	2.278	2.160	1.865	2.006	1.605	1.598	1.499	1.638	1.492	1.522	1.301	1.304	1.234	1.264	1.275	1.216	1.225	1.309	1.448	1.492	1.606	1.442	1.306	1.165	1.366	1.214	1.287	1.218	1.341	1.507	1.665	1.682	2.027	1.915	2.153	2.524	2.751	2.992	3.531	4.462	5.172	5.832	5.602	3.973	3.036	2.668	2.772	3.303	4.790	8.922
315.0	564.9	618.4	534.9	405.2	310.2	279.7	305.4	362.9	410.9	502.6	622.9	757.9	954.2	908.8	500.3	490.3	1020	2354	7399	9999.9	466.4	20.26	7.411	5.918	4.290	3.714	2.948	2.529	2.112	2.125	2.075	1.785	1.601	1.634	1.759	1.568	1.533	1.458	1.484	1.441	1.401	1.481	1.503	1.586	1.611	1.821	2.076	2.165	1.890	1.751	1.582	1.687	1.619	1.532	1.558	1.476	1.792	1.730	1.934	2.123	2.074	2.166	2.676	2.965	3.053	3.460	3.746	3.966	4.507	5.284	6.247	6.005	3.801	2.956	2.798	2.975	3.708
320.0	878.5	1051	885.3	599.2	404.4	326.5	358.7	416.2	465.3	573.6	686.9	788.0	868.4	1066	770.9	441.1	482.8	667.0	2109	9548	8031	377.2	12.51	8.155	5.290	3.917	3.291	2.979	2.279	2.109	2.144	2.021	1.780	1.742	1.845	1.633	1.724	1.839	1.601	1.594	1.579	1.924	1.807	2.095	2.020	2.540	3.008	3.278	3.066	2.300	2.221	2.252	2.011	1.830	1.855	1.779	1.924	2.136	2.113	2.422	2.538	2.656	3.072	3.372	3.446	3.708	3.927	4.209	4.642	4.692	5.183	6.706	6.546	4.960	3.348	3.048	2.892
325.0	1461	1674	1775	846.6	605.2	435.9	433.3	496.7	556.8	689.0	825.2	949.5	962.4	1022	1064	610.5	415.3	331.9	559.3	3057	9792	3934	56.35	11.73	6.772	4.672	3.622	3.432	2.705	2.552	2.346	2.041	1.743	1.669	1.785	1.661	1.855	1.801	1.902	1.998	1.789	2.365	2.332	2.843	3.507	4.383	5.080	5.519	5.610	4.675	4.021	3.865	2.861	2.513	2.241	2.222	2.245	2.564	2.581	2.678	2.793	3.231	3.354	3.696	4.214	4.417	4.767	4.919	5.329	5.235	5.500	5.903	6.542	7.199	6.253	4.204	3.527
330.0	2527	3380	3568	2486	1345	760.3	612.1	647.4	730.1	887.4	1064	1215	1229	1169	1135	975.6	616.1	352.6	290.2	807.5	3080	7599	6239	1325	19.94	6.783	5.136	3.917	3.128	2.723	2.525	2.266	1.920	1.855	1.986	1.975	2.194	2.112	2.306	2.332	2.557	3.048	3.624	4.314	5.497	7.088	8.675	10.45	10.80	9.397	8.519	7.968	6.171	4.826	3.791	3.109	3.049	3.256	3.234	3.482	3.773	3.936	4.311	4.932	5.064	5.609	6.078	6.294	6.676	6.847	6.844	6.656	6.845	7.223	7.265	6.941	5.917
335.0	3253	4435	4766	3657	2126	1143	775.9	788.1	850.9	1010	1235	1401	1439	1358	1215	1055	936.4	523.0	315.5	363.5	831.5	1925	5536	9999.9	414.8	19.77	6.976	4.501	3.758	3.155	3.035	2.493	2.121	2.026	2.128	2.317	2.261	2.484	2.551	2.596	3.116	3.631	4.424	5.797	7.088	8.993	10.90	13.42	13.94	12.74	12.32	12.03	9.494	7.260	5.370	4.316	3.756	3.972	4.303	4.280	4.446	4.556	5.085	5.775	6.090	6.154	6.787	7.311	8.051	8.076	7.898	7.801	7.529	7.579	7.169	6.987	6.898
340.0	3519	4921	5339	4157	2487	1305	873.7	840.1	909.4	1077	1299	1472	1504	1434	1252	1030	930.3	703.5	372.5	283.0	348.7	564.9	1575	8632	7483	345.0	11.87	5.742	4.293	3.798	2.896	2.591	2.351	2.165	2.091	2.352	2.372	2.605	2.647	3.038	3.382	3.875	4.673	6.106	8.095	10.14	11.88	15.05	15.97	14.64	13.38	13.83	11.18	8.437	6.310	5.136	4.472	4.206	4.288	4.764	4.718	4.797	5.486	5.967	6.411	6.878	7.033	7.811	8.081	8.581	8.367	8.084	7.706	7.912	7.452	6.974	6.610
345.0	3664	5132	5522	4360	2604	1359	904.4	856.4	920.6	1087	1291	1449	1496	1418	1235	1006	816.9	743.6	478.5	280.0	247.4	269.5	438.9	2614	8175	3379	51.64	8.048	5.401	4.130	3.426	2.780	2.365	2.152	2.322	2.298	2.500	2.701	2.816	3.094	3.433	3.830	4.785	6.034	8.052	10.28	12.25	14.68	16.38	15.17	13.88	14.09	11.07	8.661	6.718	5.098	4.623	4.181	4.215	4.458	4.646	4.769	5.459	5.744	6.252	6.612	7.060	7.469	7.990	8.370	7.741	8.009	7.771	7.670	7.671	6.948	6.349
350.0	3371	4695	5107	4163	2543	1347	882.5	811.9	859.8	1004	1194	1324	1368	1307	1157	945.4	734.6	604.3	543.2	375.9	240.7	208.5	195.4	639.3	2403	5150	5627	1149	17.85	5.339	4.201	3.209	2.726	2.263	2.355	2.265	2.456	2.583	2.733	2.826	3.086	3.728	4.656	5.676	7.312	9.668	11.47	13.94	15.33	14.00	13.56	13.58	11.04	8.877	6.734	4.951	4.279	4.036	3.924	4.186	4.309	4.666	5.246	5.506	5.940	6.323	6.669	6.868	7.261	7.599	7.431	7.514	7.439	7.193	6.878	6.310	5.772
355.0	2899	4116	4494	3725	2385	1279	826.1	757.1	780.2	894.0	1047	1166	1201	1156	1029	860.7	672.8	515.6	438.5	450.3	316.7	204.4	151.2	208.2	572.7	1218	4206	7112	393.3	20.97	5.637	4.316	2.849	2.650	2.517	2.230	2.448	2.466	2.711	2.694	3.061	3.587	4.178	5.071	6.247	8.667	9.867	12.43	13.46	12.47	11.79	12.15	10.41	8.222	6.353	4.796	4.164	3.823	3.978	3.727	4.116	4.197	4.837	4.874	5.296	5.546	5.791	5.954	6.187	6.708	6.755	6.788	6.504	6.620	6.195	5.936	5.344
360.0	2553	3608	4007	3346	2140	1188	775.6	696.1	727.1	814.6	937.1	1041	1078	1031	930.0	778.9	619.1	474.3	379.7	380.1	388.4	241.4	148.5	122.3	175.7	306.1	1101	5075	5966	353.7	13.09	5.503	3.504	2.928	2.730	2.354	2.389	2.465	2.463	2.630	2.810	3.235	3.804	4.517	5.845	7.784	8.782	10.99	12.10	11.23	10.21	10.95	9.344	7.248	6.070	4.455	4.015	3.689	3.585	3.345	3.715	3.954	4.383	4.289	4.603	4.886	5.343	5.798	5.546	6.185	6.302	6.201	5.942	5.832	5.751	5.522	4.931
365.0	2228	3137	3498	2910	1942	1095	725.9	646.8	663.1	738.5	838.1	919.6	957.3	922.3	834.6	701.7	568.0	445.3	356.1	317.9	369.9	324.5	170.1	113.4	100.1	112.4	278.1	1421	5584	5612	50.91	8.389	4.352	3.585	2.977	2.474	2.477	2.376	2.338	2.536	2.752	3.064	3.454	4.259	5.228	6.836	7.601	9.141	10.40	9.723	9.349	9.905	8.462	6.807	5.276	3.795	3.713	3.328	3.411	3.285	3.483	3.522	4.039	3.938	4.427	4.412	4.787	5.025	4.936	5.544	5.520	5.547	5.090	5.192	5.058	4.978	4.700
370.0	1892	2582	2872	2447	1659	981.6	651.3	590.1	599.1	657.3	736.5	800.2	823.9	794.2	727.9	628.3	520.0	417.3	346.0	295.5	294.6	337.9	267.0	149.6	102.9	86.74	106.9	351.1	1558	4718	4692	1201	18.04	4.498	3.903	2.926	2.672	2.286	2.243	2.299	2.585	2.702	3.002	3.643	4.421	5.714	6.367	7.805	8.514	7.845	7.831	8.635	7.105	5.980	4.730	3.799	3.412	3.164	3.209	3.052	3.037	3.155	3.625	3.612	3.999	3.981	4.092	4.278	4.543	4.519	4.636	4.790	4.619	4.606	4.574	4.442	4.297
375.0	1581	2102	2321	1997	1415	877.9	607.2	553.4	538.8	590.6	654.3	693.6	715.9	692.0	638.5	559.7	471.5	395.3	341.4	298.4	274.3	279.4	310.0	245.7	138.8	104.7	89.28	126.9	386.1	1107	3041	6658	1607	21.69	5.549	4.018	3.115	2.481	2.320	2.189	2.471	2.436	2.824	3.385	3.798	4.692	5.292	6.385	6.823	6.510	6.296	6.801	6.259	5.222	4.372	3.463	3.230	3.107	3.065	2.991	2.941	2.807	3.278	3.234	3.539	3.563	3.768	3.656	3.738	3.947	4.129	4.001	4.188	3.942	3.933	3.775	3.667
380.0	1374	1757	1961	1715	1237	829.7	593.8	534.5	538.8	562.0	614.9	660.1	665.8	643.4	591.5	515.9	448.9	386.6	343.4	303.9	280.5	271.1	279.6	307.9	203.6	131.4	106.5	96.47	135.2	287.7	792.1	4399	5457	309.2	14.76	6.000	4.144	3.142	2.549	2.216	2.289	2.293	2.657	2.960	3.616	4.016	4.567	5.547	5.875	5.421	5.400	6.147	5.321	4.766	3.944	3.152	3.130	3.057	2.878	2.804	2.771	2.823	3.123	3.066	3.342	3.326	3.393	3.422	3.483	3.719	3.569	3.714	3.987	3.720	3.679	3.753	3.493
385.0	1227	1559	1711	1534	1136	797.5	600.4	548.1	554.6	582.4	628.2	656.5	659.5	632.0	583.9	506.1	445.7	391.2	353.7	322.2	304.1	286.7	273.9	302.8	291.2	185.7	138.0	116.7	107.5	125.4	222.0	1216	4484	4377	247.5	12.07	6.921	4.441	2.819	2.323	2.291	2.311	2.484	2.701	3.367	3.648	3.971	4.765	4.867	4.616	4.609	5.370	4.687	4.318	3.710	3.206	2.902	2.866	2.900	2.794	2.854	2.692	2.965	3.211	3.100	3.364	3.469	3.286	3.476	3.476	3.615	3.570	3.646	3.658	3.425	3.689	3.437
390.0	1094	1395	1496	1381	1113	844.7	706.6	676.2	701.2	769.2	838.1	857.9	831.3	777.0	696.4	587.2	493.5	438.6	405.9	387.3	379.4	376.6	359.8	360.8	379.8	349.1	261.1	214.8	184.4	169.4	168.8	366.1	1265	3358	3767	926.9	24.31	11.09	5.344	3.132	2.622	2.460	2.539	2.700	2.981	3.356	3.630	4.277	4.327	4.314	4.299	4.789	4.472	4.064	3.697	3.369	3.201	2.988	3.228	3.064	3.029	3.057	3.324	3.405	3.638	3.645	3.764	3.682	3.948	3.957	4.087	3.996	3.919	3.731	3.894	3.723	3.528
395.0	1120	1371	1499	1423	1244	1075	996.0	1023	1121	1288	1428	1439	1334	1199	1021	846.3	676.8	583.5	549.7	545.6	552.2	553.8	535.8	522.6	509.5	590.6	554.0	420.4	389.0	361.4	329.3	326.1	479.8	925.3	2450	4368	1353	33.35	12.50	5.188	3.542	2.797	2.682	2.758	2.926	3.347	3.770	4.282	4.331	3.894	4.147	4.946	4.836	4.537	4.067	3.807	3.674	3.635	3.683	3.968	3.954	3.784	4.241	4.527	4.971	5.163	5.346	5.106	5.425	5.090	5.402	5.214	5.150	4.917	4.617	4.757	4.496
400.0	1164	1442	1612	1621	1510	1397	1367	1480	1687	1943	2185	2210	2081	1830	1517	1195	908.3	754.5	706.0	739.5	779.0	823.2	845.6	865.2	850.6	866.5	868.6	776.4	690.5	634.5	580.4	430.8	432.5	493.4	842.9	2891	4140	277.7	27.11	8.612	4.522	3.743	3.221	3.262	3.443	3.673	3.867	4.406	4.444	4.418	4.255	5.031	5.069	5.057	4.511	4.524	4.751	4.434	4.729	4.884	5.156	5.161	5.827	6.361	6.849	7.023	7.126	7.150	7.112	7.123	7.262	7.079	6.816	6.342	5.665	5.730	5.407
405.0	1321	1584	1804	1864	1830	1760	1815	1976	2293	2719	3070	3101	2891	2535	2084	1584	1189	986.8	939.0	957.2	1021	1104	1164	1207	1209	1194	1183	1155	1035	954.8	882.7	755.0	638.5	553.0	555.5	1046	3431	2317	219.4	14.80	5.913	4.434	3.746	3.505	3.738	4.001	4.250	4.778	5.155	4.912	4.735	5.599	5.363	5.559	5.259	5.170	5.565	5.621	5.886	6.095	6.802	7.138	7.611	8.568	8.908	9.479	9.360	9.440	9.953	9.300	9.440	8.799	8.805	8.203	7.437	6.662	6.287
410.0	1489	1725	1997	2111	2123	2140	2224	2482	2916	3441	3886	3935	3673	3211	2609	1968	1449	1193	1135	1170	1264	1363	1454	1527	1537	1515	1477	1449	1387	1267	1162	1019	850.6	704.1	607.4	612.9	1153	2379	2491	759.0	17.04	5.362	4.603	4.125	4.161	4.602	4.640	5.155	5.391	5.201	5.122	6.163	6.304	6.152	6.041	6.036	6.622	6.755	6.776	7.152	7.970	8.295	9.217	10.37	10.81	11.63	11.77	11.79	11.74	11.25	11.19	10.65	10.42	9.698	8.913	8.006	7.352
415.0	1500	1700	1996	2149	2196	2233	2353	2624	3086	3696	4168	4226	3940	3450	2794	2094	1527	1267	1190	1242	1333	1449	1546	1619	1628	1601	1554	1496	1446	1368	1230	1070	893.3	733.0	614.4	510.5	505.3	668.4	1459	3018	266.2	17.20	5.236	4.551	4.414	4.660	4.738	5.397	4.971	5.359	5.108	6.282	6.145	6.083	6.231	6.239	6.610	6.750	7.389	7.805	8.283	8.820	10.01	10.63	11.55	11.50	12.13	12.17	12.35	11.93	11.69	11.44	10.91	10.31	9.206	8.271	7.596
420.0	1392	1647	1927	2080	2160	2220	2350	2616	3071	3672	4147	4205	3933	3433	2780	2085	1520	1252	1193	1234	1331	1447	1536	1601	1606	1572	1525	1451	1378	1340	1215	1039	867.2	711.5	584.4	463.0	346.2	264.4	407.9	1960	2921	229.4	9.345	4.942	4.511	4.354	4.865	5.405	5.025	5.122	4.960	6.023	5.834	5.834	5.832	6.056	6.523	6.652	7.200	7.269	8.110	8.899	9.769	10.17	11.40	11.46	11.74	12.30	12.01	11.84	11.61	11.08	10.41	9.870	8.578	7.932	7.056
425.0	1371	1656	1884	2067	2130	2191	2362	2621	3087	3676	4134	4213	3910	3422	2777	2065	1503	1240	1183	1232	1323	1439	1528	1594	1596	1565	1507	1432	1355	1299	1223	1043	854.2	698.0	576.9	450.0	306.4	172.6	136.3	547.4	2510	2011	35.24	6.028	4.762	4.563	4.550	5.042	4.829	4.739	4.685	6.120	6.048	6.008	6.028	6.082	6.591	6.822	7.316	7.522	7.862	8.650	9.913	10.18	11.18	11.37	12.10	12.19	12.17	11.94	11.39	11.21	10.31	9.313	8.722	7.879	7.246
430.0	1711	1625	1878	2073	2169	2267	2426	2698	3181	3771	4230	4321	4012	3498	2835	2104	1533	1258	1202	1248	1349	1464	1571	1633	1643	1615	1554	1487	1403	1333	1261	1117	912.9	740.9	609.0	477.6	317.9	162.9	79.72	141.2	688.2	1708	1933	672.8	14.01	5.230	4.765	5.058	5.094	4.693	4.679	6.007	6.055	6.239	6.133	6.208	6.851	7.334	7.507	7.593	8.102	8.764	10.26	10.29	11.35	11.82	12.29	12.41	12.21	12.24	11.69	11.39	10.67	9.895	8.811	8.097	7.490
435.0	3207	1629	1872	2056	2187	2313	2469	2744	3221	3793	4247	4351	4035	3513	2843	2110	1539	1252	1196	1246	1347	1474	1577	1641	1652	1626	1575	1511	1434	1355	1271	1140	965.9	772.3	634.0	496.2	332.3	168.7	72.13	52.95	164.2	397.9	1126	2959	250.1	16.06	5.436	5.249	5.298	4.754	5.124	5.860	6.110	6.141	6.258	6.342	6.958	6.996	7.536	8.211	8.396	9.103	9.946	10.50	11.79	11.50	12.32	12.32	12.20	12.36	11.88	10.85	10.88	10.01	8.938	8.238	7.354
440.0	4578	1811	1791	1973	2130	2244	2424	2662	3106	3636	4083	4149	3892	3370	2719	2023	1484	1207	1152	1208	1292	1405	1510	1572	1588	1563	1513	1458	1381	1307	1217	1089	939.7	764.9	617.6	482.7	326.0	166.0	68.93	33.22	48.23	97.24	291.7	2080	2025	216.7	9.221	5.412	5.346	4.775	4.814	5.672	5.743	6.190	5.934	6.422	6.504	7.352	7.260	7.867	8.252	8.900	9.748	10.27	11.08	11.19	11.43	11.70	11.82	11.36	11.00	10.79	10.35	9.941	8.292	8.091	7.122
445.0	5243	2731	1688	1846	1971	2092	2269	2515	2889	3391	3769	3862	3580	3134	2527	1879	1376	1123	1077	1120	1196	1302	1398	1456	1472	1443	1397	1340	1269	1206	1114	995.3	849.3	717.2	577.2	447.3	299.1	154.1	66.67	28.92	22.68	30.34	73.11	594.3	2011	1882	153.9	6.163	5.211	4.767	4.523	5.441	5.264	5.725	5.660	5.813	6.430	6.694	7.237	7.525	7.781	8.121	8.943	9.847	10.62	10.51	10.70	10.64	10.78	10.85	10.07	9.897	9.361	8.894	7.719	7.409	6.556
450.0	3433	4926	1852	1636	1774	1887	2028	2215	2554	2956	3297	3355	3120	2732	2210	1644	1207	996.2	953.5	983.0	1050	1135	1216	1267	1274	1248	1201	1152	1093	1033	957.5	848.2	717.1	611.3	511.7	391.4	256.4	134.4	60.82	27.47	18.23	16.19	23.83	139.4	552.8	1761	1953	587.0	12.13	4.511	4.386	5.037	4.894	5.082	5.165	5.632	6.079	6.215	6.517	6.686	6.975	7.455	7.856	8.274	9.084	9.369	9.362	9.632	9.496	9.183	9.254	8.806	8.434	7.837	6.915	6.472	5.858
455.0	1604	5318	3412	1501	1570	1667	1796	1965	2219	2568	2830	2881	2673	2330	1907	1427	1051	864.8	830.5	845.4	901.7	979.0	1048	1087	1092	1069	1027	986.5	931.1	881.4	819.6	726.9	607.6	508.0	437.8	349.6	226.7	119.6	55.70	27.37	17.75	14.55	13.40	37.66	129.1	411.4	1108	2451	205.7	11.75	4.508	4.819	4.445	4.893	4.895	5.067	5.716	5.867	5.599	6.078	6.174	6.508	6.927	7.040	7.888	8.205	8.218	8.639	8.352	8.033	8.220	7.531	7.008	6.815	6.265	5.697	5.222
460.0	1056	3489	5637	1612	1431	1523	1630	1788	1994	2295	2523	2581	2391	2084	1705	1275	939.6	778.8	741.7	760.9	807.3	874.6	928.6	970.7	969.2	956.2	920.0	881.9	833.0	791.7	740.4	655.2	550.3	456.4	387.2	321.9	219.0	112.3	52.05	26.59	18.48	14.34	11.80	15.28	34.99	97.48	281.1	1607	1668	162.4	8.255	5.065	4.235	4.716	4.639	4.774	5.267	5.407	5.280	5.528	5.782	6.017	6.223	6.893	6.903	7.468	7.609	7.427	7.910	7.676	6.885	7.003	6.491	6.046	5.686	5.191	4.683
465.0	886.9	1856	6578	2481	1333	1397	1498	1621	1797	2067	2293	2319	2154	1883	1539	1142	851.4	701.7	673.1	687.3	728.4	784.1	834.9	871.5	876.3	859.1	832.3	795.1	756.9	715.9	671.5	594.6	499.7	419.8	352.2	287.8	209.5	111.7	50.87	28.19	18.70	14.31	11.64	10.66	14.29	27.62	68.31	443.8	1696	1370	137.8	5.827	4.386	4.498	4.478	4.445	4.798	5.331	5.105	5.266	5.319	5.765	5.776	6.299	6.426	6.903	7.133	7.086	6.630	6.585	6.509	5.964	6.031	5.352	4.933	4.729	4.148
470.0	775.6	1055	3957	5100	1434	1213	1306	1394	1550	1762	1948	1960	1823	1596	1303	979.1	719.5	603.3	571.5	583.3	618.5	664.0	711.0	739.1	739.7	723.6	701.2	673.8	643.7	613.2	573.2	507.9	430.7	357.8	299.3	242.3	177.8	109.3	53.86	28.12	19.73	14.72	12.19	10.34	9.894	11.69	20.17	104.0	467.9	1164	1463	532.2	11.84	4.224	4.153	4.110	4.498	4.534	4.562	4.677	4.706	4.854	5.105	5.353	5.699	5.671	5.940	5.990	5.721	5.647	5.672	5.321	5.067	4.945	4.300	4.127	3.795
475.0	713.3	776.4	1619	5609	2900	1037	1101	1159	1292	1460	1580	1611	1489	1301	1061	798.9	592.0	494.0	473.6	481.3	507.6	542.1	580.5	600.0	599.0	589.3	566.7	546.7	522.8	498.0	465.0	416.0	352.3	293.3	245.8	196.8	140.8	94.31	58.36	30.09	19.79	15.18	12.22	10.52	9.406	8.466	9.210	27.42	108.3	268.3	733.8	1805	207.9	14.22	3.846	3.882	3.930	3.952	4.011	3.989	3.837	4.127	4.226	4.461	4.793	4.505	4.963	4.987	4.720	4.865	4.709	4.264	4.339	3.977	3.692	3.665	3.115
480.0	667.8	667.7	897.0	3560	4824	1099	956.5	1018	1118	1251	1351	1362	1273	1114	906.3	687.5	511.0	428.4	405.0	414.5	432.6	462.8	493.2	508.6	509.5	497.9	482.3	463.4	444.9	421.0	396.0	353.4	299.4	248.8	207.9	169.5	121.2	78.01	55.82	34.80	20.70	14.90	12.77	10.57	9.054	7.881	7.142	10.50	28.00	63.06	180.4	1046	1460	193.8	7.499	3.505	3.362	3.696	3.858	3.394	3.611	3.602	3.673	4.080	4.024	3.837	4.261	4.357	4.275	4.236	4.212	4.090	3.860	3.547	3.246	3.020	2.821
485.0	600.5	638.2	674.4	1759	5761	1904	849.8	896.8	987.0	1091	1179	1174	1109	957.8	787.3	592.7	446.2	372.3	353.9	364.7	375.0	401.9	425.4	437.5	439.2	433.8	417.5	399.3	383.3	365.1	339.6	305.1	260.8	216.6	182.9	146.6	105.5	66.70	47.82	39.21	24.35	15.60	12.85	10.54	9.296	8.449	6.661	6.775	9.925	17.52	43.68	279.6	1157	1410	29.14	4.574	3.439	3.360	3.575	3.288	3.512	3.484	3.410	3.739	3.715	3.591	3.654	3.771	3.748	3.636	3.623	3.611	3.456	3.081	2.850	2.721	2.740
490.0	475.1	598.9	569.5	855.6	3515	4292	964.1	772.8	828.4	924.7	987.6	993.1	922.7	805.3	658.8	500.8	381.1	318.0	301.4	308.1	317.3	336.7	356.3	368.5	369.4	362.3	349.2	334.8	323.2	306.2	287.5	256.4	220.3	184.3	156.1	125.3	91.79	57.79	39.30	34.87	30.17	19.28	13.15	10.92	9.180	8.059	6.937	6.286	5.959	7.214	12.63	65.62	306.1	950.1	1162	475.4	12.74	3.600	3.195	3.046	3.140	3.109	2.859	3.272	3.199	3.118	3.165	3.265	3.151	3.164	2.918	3.031	3.027	2.703	2.454	2.344	2.223
495.0	367.2	518.7	550.4	560.9	1354	4862	2408	659.7	689.2	756.5	824.7	823.4	761.9	660.7	538.8	410.8	315.3	265.5	252.9	257.5	262.9	281.7	295.2	305.9	305.6	301.1	292.4	279.3	269.1	253.9	241.3	215.9	185.1	157.7	132.7	108.9	77.22	50.31	33.96	27.13	28.59	25.06	15.77	11.46	9.058	7.934	6.796	6.193	5.765	4.903	5.722	17.55	70.78	217.9	586.4	1493	235.4	16.13	3.208	3.002	2.735	2.790	2.478	2.737	2.893	2.877	2.887	2.739	2.782	2.628	2.766	2.576	2.599	2.454	2.189	2.222	2.030
500.0	328.6	431.3	519.2	469.8	666.5	3104	4540	679.6	596.3	653.6	709.5	706.9	648.4	565.1	468.4	358.6	271.8	229.4	218.4	219.8	225.9	240.5	252.5	258.8	260.8	259.3	248.8	240.2	231.3	222.3	208.2	186.7	163.0	136.7	116.4	96.07	70.05	46.61	31.49	23.64	23.36	26.77	18.87	12.23	9.494	7.810	6.908	6.256	5.899	4.423	3.990	6.884	18.32	51.25	143.6	813.7	1326	215.8	9.518	2.771	2.538	2.408	2.442	2.547	2.508	2.540	2.346	2.454	2.381	2.443	2.475	2.204	2.196	2.073	1.912	1.753	1.717
505.0	291.2	358.6	476.1	428.0	459.0	1451	5601	1170	525.6	570.8	604.5	606.7	558.0	488.9	402.2	310.5	236.5	198.4	190.2	190.2	195.2	208.2	217.1	225.9	225.6	222.6	215.5	207.6	200.0	192.6	179.8	162.2	140.9	118.7	103.0	85.17	63.97	42.19	29.26	22.32	19.47	22.64	22.18	14.31	9.607	7.951	6.829	5.862	5.342	4.692	3.944	4.518	6.495	13.95	34.61	211.0	933.5	1415	179.0	4.462	2.416	2.353	2.276	2.246	2.487	2.249	2.119	2.317	2.090	2.081	1.960	1.996	2.050	1.827	1.672	1.564	1.575
510.0	243.7	286.2	394.6	413.6	365.4	615.5	3536	3149	567.1	468.1	495.7	490.3	456.3	398.3	329.0	253.8	194.4	163.9	155.0	156.0	159.2	168.9	174.1	181.1	182.2	179.2	174.3	167.9	163.1	155.6	147.4	132.4	115.7	97.90	84.96	70.02	53.72	36.65	26.17	20.25	16.82	16.78	19.22	17.63	11.21	8.106	6.680	5.553	5.020	4.609	4.163	3.718	3.876	5.480	9.963	49.42	239.7	855.6	1204	406.0	13.05	2.378	2.103	1.995	1.963	1.904	1.875	1.988	1.814	1.776	1.780	1.693	1.681	1.544	1.488	1.408	1.360
515.0	202.2	240.2	290.7	378.9	322.5	361.0	1241	4050	1505	381.0	402.7	399.0	363.6	318.1	260.0	200.3	155.6	132.6	125.1	125.3	127.3	133.6	137.5	143.3	143.8	141.2	136.4	133.2	128.6	123.7	117.2	104.7	92.94	79.61	69.09	57.86	44.29	30.87	22.88	18.58	15.38	13.78	14.03	17.07	14.71	9.371	6.887	5.344	4.610	4.351	3.981	3.921	3.318	3.535	4.299	13.03	55.29	194.0	496.9	1115	243.2	17.28	2.030	1.828	1.748	1.834	1.684	1.721	1.700	1.463	1.680	1.432	1.397	1.289	1.231	1.278	1.193
520.0	172.5	202.1	236.4	319.8	315.2	284.0	502.5	2653	3195	405.8	334.0	331.0	302.6	266.0	218.6	169.3	131.3	113.5	103.8	105.1	105.3	111.3	115.2	120.7	119.8	116.7	114.3	110.9	106.7	102.2	97.62	87.96	78.65	67.89	58.34	48.31	38.48	27.79	20.78	16.88	14.68	12.90	11.55	13.45	15.48	11.26	7.093	5.735	4.584	4.031	3.714	4.057	3.471	2.915	3.085	4.833	14.20	45.41	117.6	537.5	1139	226.2	10.51	1.936	1.667	1.538	1.509	1.514	1.588	1.425	1.556	1.251	1.401	1.173	1.062	1.082	1.072
525.0	155.3	186.1	196.2	259.4	313.2	245.5	294.1	1166	4222	830.5	283.4	278.1	255.8	222.8	188.7	143.7	112.2	96.42	89.86	89.25	90.35	93.63	98.17	100.1	100.9	97.96	95.54	93.47	90.47	87.68	83.47	75.02	66.73	57.16	49.39	42.31	33.49	24.57	19.64	15.24	13.42	11.80	10.36	10.60	13.41	12.76	7.838	5.630	4.472	3.820	3.665	3.568	3.623	2.802	2.582	3.146	5.083	11.87	28.24	132.6	677.5	1035	182.9	5.252	1.728	1.488	1.447	1.360	1.313	1.263	1.332	1.164	1.166	1.117	1.002	0.970	1.077
530.0	136.4	159.4	160.8	190.9	276.1	233.5	214.9	431.5	2680	2669	384.7	225.2	205.8	180.5	151.3	117.8	93.20	78.72	74.23	72.62	73.44	75.61	79.48	81.14	81.14	78.65	76.22	74.93	72.56	70.44	67.22	61.49	53.93	46.64	41.66	34.75	28.01	21.26	17.05	13.98	12.51	10.50	9.113	8.624	9.622	11.58	10.14	6.590	4.447	3.827	3.526	3.203	3.117	3.245	2.854	2.437	3.004	4.370	8.046	31.20	166.5	529.9	758.5	400.5	13.52	1.473	1.287	1.224	1.168	1.170	1.092	1.059	1.128	1.020	0.912	0.865	0.919
535.0	118.9	130.4	135.4	144.7	206.9	244.3	178.9	217.6	860.5	3652	1416	186.1	168.9	145.7	119.7	95.33	73.60	64.57	58.82	57.87	58.70	59.71	61.20	63.89	63.15	62.07	60.50	59.34	56.63	56.70	54.61	48.44	44.46	38.02	34.19	28.39	23.38	18.21	14.44	12.24	10.85	9.333	8.408	7.609	7.294	8.409	10.11	8.538	4.968	3.548	3.386	3.120	2.899	3.011	2.996	2.723	2.410	2.564	3.377	8.497	38.44	119.9	260.3	861.8	251.2	18.96	1.301	1.153	1.160	0.933	0.959	0.867	0.948	0.854	0.858	0.828	0.734
540.0	113.0	110.4	119.1	119.7	155.1	235.7	175.6	153.4	310.8	2337	3859	203.2	139.0	122.0	101.1	80.09	62.91	53.54	50.76	49.05	49.20	50.23	52.98	53.74	52.34	52.92	50.08	50.13	47.54	46.05	44.79	41.02	36.25	32.39	29.30	24.45	20.56	16.38	13.02	11.25	9.639	8.705	7.858	6.889	6.842	6.257	8.017	8.942	6.067	3.778	3.029	2.817	2.694	2.617	2.677	2.855	2.356	2.000	2.232	3.340	9.793	27.94	60.65	348.2	746.6	230.8	11.68	1.173	1.064	0.907	0.888	0.879	0.842	0.796	0.779	0.738	0.765
545.0	86.01	99.29	106.8	104.4	120.7	192.4	184.1	130.1	162.7	912.1	5358	495.9	118.6	103.4	82.89	68.29	54.76	44.80	43.72	42.05	42.15	42.75	43.85	45.73	44.52	43.86	42.22	42.66	41.23	39.21	37.80	35.00	31.27	28.35	24.62	21.43	17.34	14.15	11.80	10.43	8.701	8.015	7.327	6.309	5.855	5.268	5.782	7.620	7.043	4.222	3.047	2.465	2.442	2.483	2.414	2.689	2.614	2.069	1.826	2.107	3.384	7.427	14.74	82.41	367.7	698.9	190.3	4.871	1.097	0.888	0.932	0.750	0.721	0.652	0.833	0.809	0.734
550.0	79.56	80.43	85.96	89.97	95.51	131.5	189.0	116.5	109.7	296.6	3223	1795	143.3	81.35	66.96	54.40	43.15	36.98	34.00	33.43	32.96	33.49	34.47	35.21	34.50	34.16	33.65	33.41	32.33	31.92	30.17	28.08	25.35	22.57	20.17	17.69	14.56	11.66	9.779	8.510	7.665	6.728	6.296	5.593	4.973	4.575	4.423	5.307	6.267	5.342	3.400	2.716	2.269	2.129	2.092	2.152	2.443	2.292	1.760	1.548	1.857	2.662	4.270	19.48	86.89	292.6	502.5	257.7	14.97	1.059	0.811	0.749	0.705	0.674	0.641	0.670	0.678
555.0	75.96	73.17	72.24	69.67	76.00	85.95	154.9	125.4	82.55	127.5	912.7	2324	732.9	66.78	53.40	41.46	34.28	28.96	26.40	25.82	25.14	25.67	26.25	27.71	25.80	25.75	25.47	25.02	25.03	23.73	23.26	21.21	19.58	16.99	15.45	13.87	11.87	9.876	7.728	6.960	6.350	5.752	5.046	4.458	4.317	3.727	3.728	3.650	4.258	5.233	4.403	2.712	2.151	1.990	1.797	1.874	1.927	2.052	1.949	1.695	1.432	1.402	1.811	5.304	20.14	66.00	147.5	451.3	255.1	20.86	0.885	0.734	0.663	0.579	0.655	0.636	0.538
560.0	66.05	61.98	63.27	56.37	63.85	64.53	109.0	140.8	73.90	78.31	265.7	1427	1822	90.10	43.37	33.86	27.67	24.11	21.96	21.22	20.75	20.82	20.88	22.11	20.32	21.09	20.28	20.49	20.10	19.60	18.49	17.72	15.53	14.16	12.75	11.30	9.914	7.895	6.518	6.098	5.430	4.904	4.631	4.027	3.386	3.398	3.092	3.033	3.009	4.182	4.253	2.987	1.996	1.558	1.597	1.656	1.631	1.748	2.021	1.724	1.251	1.090	1.262	1.925	5.141	15.51	33.95	162.3	446.3	225.3	13.36	0.798	0.768	0.606	0.587	0.573	0.504
565.0	56.61	57.57	53.66	52.66	55.46	54.92	76.68	139.7	74.83	61.03	107.4	529.1	2463	318.1	36.35	28.48	21.91	19.71	18.41	17.08	17.21	16.92	17.66	17.72	16.47	16.99	17.11	16.62	16.13	16.05	15.00	14.23	12.85	11.66	10.37	9.391	8.277	6.644	5.858	4.953	4.844	4.356	3.867	3.541	3.331	3.024	2.731	2.627	2.545	2.896	4.096	3.300	2.123	1.595	1.570	1.512	1.371	1.484	1.632	1.900	1.307	1.053	1.006	1.079	1.854	4.094	8.227	37.77	180.5	421.1	188.2	5.365	0.691	0.549	0.545	0.545	0.484
570.0	57.57	50.70	50.43	45.89	44.20	43.80	51.51	100.6	101.8	51.21	62.58	162.4	1470	1336	71.21	23.45	18.47	15.89	14.70	13.76	13.63	13.07	13.60	13.61	13.13	13.38	13.41	12.59	12.46	12.69	11.98	11.08	9.876	9.144	8.163	7.441	6.710	5.571	4.829	4.159	3.929	3.597	3.207	2.838	2.923	2.495	2.402	2.240	2.020	1.984	2.580	2.976	2.505	1.692	1.335	1.209	1.203	1.215	1.234	1.410	1.540	1.244	0.903	0.835	1.034	1.534	2.412	9.061	41.82	154.4	342.0	147.4	15.17	0.798	0.512	0.548	0.494
575.0	57.12	49.83	43.28	38.91	35.25	32.97	37.82	59.57	117.3	59.99	45.49	65.33	413.5	1774	557.9	20.42	15.43	13.14	11.59	10.25	10.61	10.35	10.66	10.76	10.58	10.09	10.55	9.807	9.162	9.606	9.186	8.535	8.003	7.440	6.228	5.737	5.246	4.496	3.963	3.592	3.106	2.975	2.612	2.404	2.309	2.091	2.070	1.845	1.572	1.590	1.636	2.173	2.549	2.171	1.464	1.001	1.039	1.038	1.158	1.080	1.157	1.370	1.040	0.857	0.759	0.938	1.106	2.542	9.834	34.96	92.20	235.0	232.5	19.89	0.653	0.629	0.434
580.0	43.96	48.96	41.07	35.59	30.42	28.09	31.12	39.01	99.53	74.77	37.60	41.15	120.2	1112	1429	36.87	12.11	11.48	10.24	8.875	8.843	8.402	9.329	8.896	8.515	8.471	8.725	7.641	7.828	7.737	7.771	6.915	6.795	6.210	5.500	5.081	4.561	3.767	3.262	2.914	2.896	2.516	2.269	2.293	2.131	1.879	1.862	1.624	1.454	1.289	1.330	1.623	2.033	2.325	1.582	1.079	0.997	0.944	0.871	0.830	0.962	1.162	1.214	0.820	0.686	0.765	0.718	1.063	2.673	8.275	21.17	79.10	271.6	169.3	12.36	0.665	0.493
585.0	42.88	43.54	38.11	32.83	28.56	27.39	26.71	28.92	67.35	93.47	36.59	32.82	47.66	415.7	1898	104.1	10.87	9.929	8.889	8.049	7.336	7.381	8.095	7.339	7.380	7.044	7.037	6.652	7.026	6.253	6.444	5.943	5.693	4.959	4.785	4.280	3.955	3.390	2.989	2.637	2.421	2.310	2.132	1.939	1.784	1.626	1.564	1.433	1.357	1.147	1.090	1.238	1.613	1.965	1.700	1.184	0.902	0.915	0.885	0.756	0.772	0.919	1.177	1.092	0.571	0.687	0.643	0.718	1.095	2.323	5.201	18.45	103.8	256.0	122.7	4.726	0.521
590.0	43.11	42.06	37.84	28.18	24.13	24.61	23.87	23.61	38.73	89.73	53.01	28.37	29.33	117.4	1111	784.1	28.99	8.511	7.392	6.806	6.651	6.360	6.031	6.151	5.989	5.455	5.570	5.163	5.466	5.331	5.084	4.958	4.583	4.076	3.869	3.443	3.201	2.663	2.334	2.165	2.144	1.942	1.786	1.691	1.514	1.369	1.425	1.253	1.123	1.020	1.056	1.011	1.147	1.390	1.709	1.400	1.022	0.836	0.780	0.680	0.583	0.720	0.854	1.191	0.876	0.683	0.612	0.594	0.651	0.948	1.608	4.629	24.08	91.32	184.3	113.4	14.07
595.0	42.10	38.43	30.61	21.67	20.57	20.86	20.73	22.05	26.87	58.92	78.36	28.84	23.25	40.99	304.4	1095	223.0	7.739	5.927	5.512	5.425	4.862	4.836	4.948	4.693	3.992	4.313	4.624	4.432	4.193	3.945	3.990	3.716	3.399	3.124	2.894	2.582	2.070	2.038	1.815	1.662	1.621	1.549	1.291	1.332	1.208	1.125	1.092	0.953	0.913	0.871	0.870	0.819	0.881	1.261	1.497	1.182	0.811	0.772	0.612	0.666	0.617	0.615	0.827	1.045	0.787	0.613	0.556	0.560	0.669	0.780	1.459	5.794	20.83	48.44	143.6	161.6
600.0	38.37	36.63	33.31	23.46	18.33	20.95	18.93	19.16	23.66	37.94	86.37	34.28	22.28	23.35	82.73	721.4	629.3	16.27	5.865	4.894	4.589	4.503	4.239	4.507	3.950	4.007	3.654	3.723	3.948	3.786	3.542	3.270	3.365	2.957	2.645	2.409	2.262	1.841	1.748	1.692	1.593	1.488	1.315	1.214	1.286	1.248	1.112	1.090	0.910	0.854	0.775	0.859	0.693	0.752	1.006	1.225	1.286	0.979	0.730	0.624	0.618	0.637	0.664	0.590	0.825	1.005	0.828	0.561	0.488	0.571	0.636	0.732	1.654	5.119	11.20	46.76	178.7
605.0	43.11	34.37	31.44	22.98	21.79	20.88	18.41	19.58	22.05	30.42	77.96	51.11	24.09	20.30	33.18	279.3	939.4	69.85	5.433	4.398	4.110	3.778	3.731	3.990	3.461	3.396	3.375	3.467	3.289	3.419	3.028	3.056	2.910	2.478	2.186	2.112	2.166	1.611	1.566	1.513	1.373	1.212	1.011	1.139	1.107	1.052	0.879	0.935	0.863	0.757	0.683	0.778	0.623	0.713	0.777	0.981	1.392	1.076	0.720	0.548	0.599	0.534	0.651	0.627	0.665	0.830	0.857	0.524	0.554	0.562	0.545	0.566	0.767	1.619	2.871	11.02	66.53
610.0	47.62	35.93	31.29	25.08	19.56	19.68	21.27	23.53	26.83	33.10	58.39	77.77	36.24	25.92	25.58	81.55	630.2	515.9	14.82	4.007	3.427	3.346	3.199	3.443	2.800	3.079	2.736	2.769	2.683	2.515	2.663	2.521	2.213	2.078	1.818	1.845	1.620	1.588	1.462	1.109	1.209	1.078	1.023	0.983	0.891	0.883	0.825	0.852	0.755	0.633	0.573	0.698	0.605	0.632	0.649	0.722	1.099	1.047	0.824	0.608	0.591	0.574	0.548	0.625	0.586	0.672	0.813	0.731	0.657	0.551	0.472	0.465	0.560	0.838	1.010	2.917	15.47
615.0	45.66	37.01	34.16	24.67	21.35	19.93	21.05	25.13	27.80	33.91	46.42	77.09	51.70	28.03	24.95	31.76	186.7	865.4	74.37	3.966	3.005	3.014	2.758	2.838	2.524	2.514	2.240	2.472	2.219	2.055	2.175	2.237	1.911	1.668	1.672	1.569	1.341	1.106	1.139	0.881	1.042	0.865	0.849	0.892	0.827	0.813	0.764	0.690	0.697	0.567	0.609	0.576	0.647	0.586	0.589	0.561	0.761	0.909	0.849	0.730	0.552	0.571	0.557	0.563	0.531	0.633	0.600	0.830	0.807	0.609	0.474	0.572	0.514	0.534	0.599	1.081	3.848
620.0	42.72	38.86	32.35	25.60	19.94	20.11	20.47	22.83	26.21	31.44	38.19	61.65	60.87	28.44	24.96	21.55	56.61	634.5	393.3	7.315	2.875	2.733	2.418	2.402	2.333	2.308	2.107	2.170	1.927	1.836	1.957	1.708	1.687	1.588	1.491	1.259	1.221	1.003	1.159	0.963	0.815	0.765	0.801	0.828	0.770	0.786	0.721	0.717	0.625	0.462	0.575	0.522	0.531	0.600	0.508	0.540	0.545	0.655	0.862	0.759	0.601	0.523	0.482	0.616	0.548	0.555	0.490	0.672	0.747	0.738	0.598	0.577	0.497	0.546	0.515	0.577	1.213
625.0	41.07	37.94	35.11	27.82	20.25	21.18	22.35	23.57	26.06	28.79	34.90	46.87	69.46	33.44	22.99	18.40	24.44	261.6	654.8	39.53	2.908	2.764	2.158	2.014	2.033	2.267	1.842	1.789	1.756	1.774	1.836	1.546	1.539	1.354	1.356	1.223	1.084	1.019	0.938	0.932	0.740	0.825	0.702	0.680	0.624	0.677	0.646	0.638	0.571	0.495	0.509	0.562	0.527	0.489	0.561	0.463	0.510	0.569	0.833	0.717	0.715	0.567	0.587	0.554	0.542	0.495	0.498	0.572	0.598	0.794	0.622	0.571	0.480	0.523	0.438	0.491	0.657
630.0	42.77	39.62	35.87	24.87	19.85	19.58	20.32	20.79	23.12	29.22	33.00	38.55	60.31	44.18	23.31	17.84	16.93	72.49	475.9	314.8	6.874	2.362	2.202	2.037	1.996	1.823	1.716	1.509	1.572	1.633	1.458	1.467	1.411	1.266	1.162	1.047	1.013	0.873	0.797	0.792	0.787	0.718	0.669	0.623	0.629	0.614	0.630	0.568	0.514	0.456	0.477	0.562	0.463	0.439	0.542	0.453	0.467	0.574	0.609	0.711	0.758	0.593	0.543	0.563	0.507	0.468	0.523	0.515	0.530	0.659	0.753	0.624	0.533	0.469	0.413	0.457	0.503
635.0	43.91	43.21	37.42	28.01	21.62	20.04	21.47	22.24	23.21	29.32	32.68	34.57	45.57	55.20	26.94	17.98	14.49	23.68	143.9	570.5	54.08	2.359	2.220	1.923	1.709	1.715	1.584	1.420	1.270	1.304	1.398	1.397	1.294	1.132	0.978	0.972	0.771	0.672	0.653	0.672	0.745	0.692	0.626	0.624	0.683	0.606	0.661	0.583	0.467	0.439	0.470	0.500	0.433	0.419	0.368	0.438	0.452	0.460	0.492	0.568	0.632	0.517	0.558	0.535	0.505	0.477	0.492	0.517	0.506	0.538	0.675	0.623	0.592	0.555	0.492	0.467	0.489
640.0	50.67	54.04	40.83	30.72	21.38	20.53	19.09	22.18	23.82	28.80	32.02	36.88	39.41	54.20	32.16	18.79	14.53	12.96	38.08	450.6	248.0	4.192	2.198	1.831	1.811	1.436	1.489	1.219	1.302	1.252	1.371	1.333	1.099	1.044	0.900	0.789	0.812	0.591	0.629	0.636	0.689	0.656	0.581	0.496	0.630	0.518	0.630	0.653	0.467	0.505	0.390	0.463	0.404	0.469	0.405	0.457	0.454	0.487	0.491	0.443	0.560	0.509	0.546	0.543	0.500	0.438	0.448	0.531	0.478	0.552	0.553	0.707	0.714	0.477	0.516	0.430	0.450
645.0	55.06	58.89	49.19	34.01	22.63	18.69	20.49	21.27	24.34	29.52	34.10	37.17	38.03	48.93	40.51	19.93	14.64	11.01	12.64	204.3	438.1	21.36	2.254	1.810	1.636	1.253	1.479	1.287	1.123	1.499	1.151	1.133	0.978	0.878	0.943	0.747	0.754	0.628	0.590	0.651	0.591	0.598	0.619	0.568	0.490	0.556	0.546	0.666	0.535	0.466	0.395	0.476	0.426	0.400	0.453	0.430	0.389	0.440	0.434	0.485	0.441	0.587	0.479	0.515	0.495	0.445	0.477	0.548	0.594	0.565	0.532	0.741	0.719	0.603	0.548	0.408	0.482
650.0	70.78	74.02	63.88	46.36	26.05	21.04	19.88	21.38	23.76	30.99	33.30	38.68	38.30	41.46	47.36	22.44	16.13	10.26	6.894	60.35	450.5	66.02	2.242	1.919	1.417	1.274	1.442	1.186	1.101	1.149	1.059	1.013	0.906	0.868	0.888	0.743	0.832	0.643	0.559	0.534	0.586	0.611	0.680	0.603	0.507	0.596	0.553	0.559	0.555	0.476	0.500	0.477	0.382	0.397	0.418	0.377	0.436	0.451	0.465	0.424	0.445	0.498	0.513	0.572	0.569	0.415	0.430	0.566	0.537	0.486	0.496	0.536	0.667	0.597	0.563	0.500	0.440
