Sample:	'1
File name:	t2025052207 058ÏçµÀÇÅ.FD3
Run date:	'14:14:47, 05/23/2025
Operator:	Administrator
Comment:	'

Instrument
Model:	F-2700 FL Spectrophotometer
Serial number:	23B8-004
ROM Version:	4J14000 07

Instrument parameters
Measurement type:	3-D scan
Data mode:	Fluorescence
EX  Start WL:	220.0 nm
EX  End WL:	600.0 nm
EX Sampling interval:	5.0 nm
EM  Start WL:	230.0 nm
EM  End WL:	650.0 nm
EM Sampling interval:	5.0 nm
Scan speed:	12000 nm/min
EX Slit:	5.0 nm
EM Slit:	5.0 nm
PMT Voltage:	700 V
Response:	Auto 
Corrected spectra:	Off
Contour interval:	50.000

Peak integration
Integration method:	Rectangular
Sensitivity:	1
Threshold:	1.000

Peaks
No.	ApexEX/EM(nm)	Height(Data)
1	225.0/615.0	35.18
2	230.0/340.0	1217
3	230.0/610.0	34.50
4	230.0/625.0	31.96
5	235.0/595.0	35.46
6	240.0/265.0	300.6
7	240.0/385.0	1020
8	240.0/520.0	258.6
9	245.0/270.0	338.1
10	245.0/405.0	981.6
11	250.0/275.0	432.0
12	250.0/545.0	167.3
13	255.0/280.0	520.8
14	255.0/560.0	141.3
15	260.0/285.0	494.1
16	260.0/570.0	105.8
17	265.0/410.0	883.6
18	265.0/585.0	98.26
19	270.0/300.0	862.3
20	270.0/385.0	853.4
21	270.0/405.0	888.3
22	270.0/600.0	84.69
23	275.0/305.0	1174
24	275.0/610.0	87.50
25	280.0/310.0	1154
26	280.0/385.0	856.8
27	280.0/625.0	82.48
28	285.0/315.0	1121
29	285.0/635.0	60.46
30	290.0/325.0	1079
31	315.0/355.0	505.4
32	320.0/365.0	503.1
33	325.0/370.0	496.7
34	330.0/375.0	505.7
35	335.0/385.0	521.6
36	475.0/345.0	3.827
37	505.0/275.0	2.809
38	510.0/280.0	3.104
39	520.0/285.0	3.409
40	530.0/290.0	3.093
41	540.0/295.0	4.273
42	545.0/300.0	5.168
43	555.0/305.0	5.667
44	560.0/310.0	5.840
45	570.0/315.0	6.084
46	580.0/320.0	6.465
47	585.0/325.0	6.331

Data points
	220.0	225.0	230.0	235.0	240.0	245.0	250.0	255.0	260.0	265.0	270.0	275.0	280.0	285.0	290.0	295.0	300.0	305.0	310.0	315.0	320.0	325.0	330.0	335.0	340.0	345.0	350.0	355.0	360.0	365.0	370.0	375.0	380.0	385.0	390.0	395.0	400.0	405.0	410.0	415.0	420.0	425.0	430.0	435.0	440.0	445.0	450.0	455.0	460.0	465.0	470.0	475.0	480.0	485.0	490.0	495.0	500.0	505.0	510.0	515.0	520.0	525.0	530.0	535.0	540.0	545.0	550.0	555.0	560.0	565.0	570.0	575.0	580.0	585.0	590.0	595.0	600.0
230.0	31.29	282.1	695.6	241.0	16.38	6.432	4.940	4.369	3.549	3.410	3.065	2.796	2.543	2.110	1.907	1.485	1.369	1.270	1.043	0.984	0.973	0.909	0.815	0.832	0.738	0.686	0.624	0.670	0.611	0.600	0.592	0.546	0.471	0.482	0.446	0.438	0.449	0.415	0.413	0.419	0.404	0.409	0.386	0.343	0.339	0.338	0.525	1.321	2.190	1.789	0.796	0.355	0.287	0.251	0.267	0.277	0.299	0.300	0.306	0.324	0.272	0.304	0.294	0.321	0.323	0.290	0.282	0.341	0.304	0.300	0.302	0.331	0.286	0.289	0.296	0.298	0.307
235.0	40.42	101.0	525.0	857.8	353.9	27.42	5.854	4.416	3.980	3.514	3.521	2.698	2.516	2.431	1.894	1.760	1.374	1.092	1.181	0.971	0.969	1.022	0.756	0.802	0.672	0.700	0.605	0.659	0.565	0.562	0.580	0.550	0.501	0.490	0.423	0.489	0.478	0.400	0.396	0.440	0.356	0.419	0.328	0.394	0.441	0.325	0.376	0.579	1.104	1.991	3.128	3.250	1.970	0.516	0.294	0.294	0.272	0.329	0.313	0.297	0.341	0.364	0.292	0.293	0.284	0.305	0.267	0.339	0.277	0.259	0.319	0.287	0.284	0.320	0.326	0.282	0.310
240.0	69.88	73.95	175.6	868.3	1219	314.8	15.31	5.270	4.187	3.795	3.826	2.909	2.833	2.112	1.879	1.861	1.383	1.207	1.166	1.120	0.961	0.965	1.087	0.732	0.757	0.681	0.607	0.704	0.598	0.561	0.530	0.539	0.504	0.439	0.442	0.422	0.420	0.388	0.452	0.376	0.348	0.402	0.380	0.386	0.457	0.472	0.407	0.433	0.526	0.776	1.987	4.420	6.009	4.005	1.587	0.470	0.268	0.335	0.298	0.286	0.379	0.420	0.260	0.310	0.285	0.296	0.278	0.305	0.274	0.315	0.308	0.306	0.278	0.308	0.305	0.291	0.286
245.0	57.67	105.2	79.76	310.1	1354	1315	233.2	9.491	4.331	4.291	3.426	2.871	3.012	2.635	2.057	1.935	1.643	1.339	1.133	1.040	1.104	0.945	1.046	0.803	0.717	0.783	0.654	0.785	0.612	0.606	0.540	0.556	0.580	0.433	0.432	0.515	0.360	0.418	0.495	0.360	0.390	0.418	0.325	0.373	0.442	0.489	0.553	0.493	0.431	0.415	0.681	1.760	4.261	7.144	7.440	3.865	1.137	0.381	0.369	0.302	0.330	0.315	0.282	0.330	0.279	0.288	0.295	0.312	0.353	0.338	0.309	0.381	0.291	0.295	0.343	0.324	0.333
250.0	39.63	87.49	144.0	143.8	443.4	1281	1655	622.2	42.21	4.896	3.839	3.440	2.845	2.583	2.121	1.821	1.557	1.407	1.247	0.990	1.137	0.953	0.920	0.842	0.849	0.799	0.684	0.768	0.666	0.662	0.597	0.597	0.525	0.463	0.467	0.472	0.445	0.407	0.426	0.401	0.378	0.440	0.363	0.391	0.390	0.411	0.434	0.651	0.792	0.648	0.572	0.709	1.231	2.391	4.761	6.469	8.604	7.506	3.887	1.236	0.378	0.318	0.272	0.348	0.274	0.303	0.345	0.311	0.318	0.387	0.301	0.310	0.375	0.330	0.315	0.323	0.328
255.0	30.10	40.00	112.5	241.3	181.9	337.3	1234	2488	305.3	43.67	4.443	3.938	3.757	2.976	2.177	1.958	1.606	1.389	1.283	1.198	1.120	1.063	0.769	0.925	0.776	0.816	0.757	0.731	0.732	0.558	0.586	0.622	0.531	0.540	0.453	0.466	0.439	0.459	0.364	0.379	0.412	0.391	0.387	0.375	0.386	0.375	0.320	0.437	0.471	0.672	0.947	1.050	0.781	0.835	1.350	1.830	3.379	7.695	13.15	13.34	6.114	1.287	0.346	0.340	0.301	0.332	0.357	0.305	0.299	0.352	0.324	0.391	0.349	0.288	0.317	0.331	0.337
260.0	32.22	26.07	50.15	211.1	251.9	138.6	379.9	1954	2319	259.0	21.42	5.687	3.950	2.958	2.316	1.931	1.726	1.538	1.427	1.183	1.108	1.070	0.813	0.940	0.825	0.859	0.729	0.846	0.813	0.663	0.708	0.605	0.654	0.566	0.487	0.434	0.498	0.448	0.400	0.373	0.411	0.394	0.358	0.429	0.342	0.402	0.318	0.409	0.314	0.431	0.702	1.376	1.475	0.957	0.739	0.708	1.101	2.409	6.089	12.22	17.26	12.73	4.904	0.811	0.349	0.376	0.351	0.361	0.306	0.334	0.302	0.318	0.307	0.327	0.339	0.321	0.348
265.0	29.69	26.85	29.31	100.4	300.6	223.4	134.2	649.8	2577	2044	199.7	10.88	4.960	3.529	3.005	2.084	1.982	1.749	1.362	1.384	1.472	1.114	1.070	0.981	0.800	0.922	0.767	0.730	0.741	0.595	0.647	0.637	0.658	0.537	0.553	0.436	0.495	0.479	0.430	0.359	0.441	0.438	0.461	0.439	0.438	0.399	0.324	0.399	0.301	0.313	0.416	0.742	1.330	1.815	1.393	0.738	0.638	0.972	1.754	3.891	9.672	17.20	20.02	11.76	2.828	0.509	0.350	0.343	0.292	0.288	0.336	0.400	0.310	0.313	0.315	0.310	0.424
270.0	37.65	29.33	30.91	44.35	154.6	338.1	271.1	209.7	807.1	2259	2750	765.8	44.34	4.964	3.383	2.821	2.109	1.903	1.444	1.339	1.320	1.188	1.122	1.006	0.979	0.832	0.751	0.756	0.738	0.683	0.621	0.648	0.583	0.581	0.551	0.444	0.499	0.450	0.489	0.431	0.392	0.418	0.434	0.430	0.402	0.415	0.334	0.330	0.316	0.316	0.323	0.462	0.692	1.141	1.650	1.826	1.710	1.150	0.896	1.305	2.626	5.220	9.932	15.27	18.52	16.89	9.739	2.858	0.504	0.325	0.349	0.371	0.356	0.352	0.368	0.319	0.391
275.0	55.99	51.42	50.15	44.83	79.08	182.1	432.0	315.6	233.9	571.3	1857	4370	1064	41.84	4.808	3.193	2.719	1.933	1.612	1.432	1.350	1.138	1.163	1.131	0.965	0.930	0.710	0.893	0.714	0.677	0.658	0.667	0.720	0.574	0.540	0.467	0.557	0.455	0.446	0.510	0.447	0.409	0.386	0.404	0.439	0.484	0.360	0.409	0.383	0.333	0.375	0.426	0.466	0.720	0.807	1.128	2.221	2.809	2.330	1.218	1.066	1.596	2.650	3.888	5.813	12.48	23.52	27.13	14.46	3.239	0.514	0.409	0.344	0.319	0.312	0.367	0.398
280.0	75.30	78.56	84.75	65.95	74.09	113.6	286.2	520.8	231.6	183.6	542.4	2879	4428	744.3	17.86	4.603	3.430	2.352	1.816	1.568	1.272	1.156	1.204	1.166	0.954	0.889	0.772	0.919	0.759	0.691	0.691	0.694	0.657	0.601	0.550	0.503	0.597	0.484	0.482	0.473	0.411	0.446	0.443	0.422	0.529	0.489	0.462	0.451	0.421	0.446	0.446	0.486	0.477	0.591	0.675	0.805	1.190	1.939	3.104	2.825	1.589	0.985	1.089	1.381	1.807	3.442	8.463	19.18	27.93	26.39	10.64	1.810	0.398	0.456	0.330	0.341	0.341
285.0	90.27	110.5	121.9	96.40	83.23	96.22	152.8	411.0	494.1	168.8	204.8	867.3	3613	3848	122.9	8.201	4.053	2.884	1.976	1.918	1.461	1.381	1.159	1.116	1.047	0.959	0.901	0.880	0.781	0.796	0.674	0.748	0.647	0.636	0.597	0.536	0.613	0.468	0.505	0.441	0.424	0.437	0.442	0.394	0.477	0.509	0.614	0.569	0.566	0.573	0.538	0.648	0.531	0.640	0.713	0.647	0.804	1.071	1.603	3.049	3.409	2.280	1.011	0.894	0.981	1.336	2.547	5.356	11.39	23.93	30.69	21.86	7.130	0.894	0.350	0.377	0.359
290.0	114.8	155.3	168.9	138.6	110.6	108.6	124.5	207.2	453.1	462.1	216.8	322.5	1067	2795	3300	461.4	29.37	4.115	2.775	2.181	1.759	1.581	1.398	1.254	1.188	0.990	0.994	0.904	0.813	0.755	0.690	0.711	0.660	0.635	0.614	0.592	0.549	0.558	0.514	0.509	0.460	0.427	0.505	0.455	0.521	0.554	0.654	0.751	0.735	0.737	0.617	0.691	0.641	0.724	0.701	0.663	0.712	0.843	1.004	1.408	2.096	2.774	3.093	2.760	1.601	1.280	1.368	2.015	3.308	6.547	11.71	18.03	22.81	22.78	15.77	6.322	1.139
295.0	150.9	190.8	227.9	181.5	144.7	135.8	147.8	173.7	255.1	514.6	683.8	329.2	400.6	756.1	1703	3967	684.9	30.36	3.977	2.492	2.042	1.954	1.553	1.544	1.315	1.114	1.025	0.978	0.978	0.710	0.847	0.752	0.676	0.699	0.584	0.570	0.567	0.558	0.516	0.535	0.479	0.510	0.513	0.496	0.632	0.653	0.650	0.906	0.876	0.884	0.700	0.733	0.780	0.813	0.931	0.847	0.937	0.994	0.986	1.128	1.252	1.519	2.021	3.516	4.273	3.030	1.915	1.630	1.918	2.425	3.528	4.925	6.198	10.23	22.34	31.85	24.07
300.0	155.2	230.6	270.6	228.7	191.0	187.7	194.7	225.0	279.6	425.3	862.3	696.1	391.3	382.2	557.6	2436	3847	508.3	14.38	3.838	2.533	2.085	1.567	1.609	1.278	1.090	1.043	0.988	1.102	0.781	0.860	0.725	0.744	0.721	0.666	0.674	0.593	0.539	0.512	0.551	0.519	0.583	0.511	0.650	0.593	0.771	0.818	0.960	1.018	0.923	0.911	0.933	0.989	1.007	1.033	0.972	1.286	1.167	1.238	1.312	1.443	1.603	1.759	2.527	3.790	5.168	4.305	2.858	2.093	2.088	2.310	2.469	2.561	3.264	7.138	15.59	29.73
305.0	169.0	233.2	302.8	275.3	243.2	247.0	292.5	348.4	418.0	539.9	816.4	1174	721.7	462.6	407.5	824.6	3108	3324	78.36	6.956	3.164	2.460	1.886	1.693	1.404	1.341	1.143	1.044	0.858	0.781	0.877	0.770	0.707	0.689	0.635	0.674	0.578	0.506	0.513	0.591	0.540	0.619	0.476	0.558	0.700	0.694	0.775	1.138	1.097	1.029	1.028	1.171	1.175	1.160	1.313	1.165	1.400	1.599	1.743	1.988	2.185	2.334	2.515	2.949	3.355	4.371	5.447	5.667	4.367	2.999	2.620	2.592	2.402	2.511	3.083	5.033	10.14
310.0	178.3	288.4	345.3	335.7	304.3	301.0	363.2	429.9	517.1	635.7	783.7	1050	1154	737.5	480.4	445.8	1022	2412	2757	318.0	20.27	3.191	2.385	1.848	1.714	1.342	1.266	1.079	0.891	0.905	0.867	0.865	0.725	0.709	0.724	0.703	0.550	0.565	0.579	0.604	0.543	0.617	0.569	0.628	0.670	0.791	0.907	1.064	1.265	1.097	1.122	1.369	1.323	1.319	1.514	1.439	1.860	1.921	2.066	2.174	2.563	2.733	2.930	3.478	3.520	3.956	4.388	5.376	5.840	5.829	4.680	3.577	2.997	2.820	2.525	2.798	3.990
315.0	193.4	350.0	414.4	388.2	360.3	373.3	430.5	496.0	583.5	695.7	827.8	947.9	1058	1121	673.4	430.4	496.1	713.6	1442	3159	492.0	19.61	3.173	2.627	1.923	1.442	1.463	1.228	0.992	0.972	0.897	0.841	0.740	0.776	0.746	0.666	0.706	0.635	0.629	0.493	0.625	0.623	0.663	0.635	0.699	0.843	0.993	1.271	1.378	1.248	1.285	1.372	1.643	1.529	1.651	1.689	1.840	2.051	2.563	2.522	2.791	2.981	3.531	3.542	3.919	4.304	4.220	4.715	4.855	5.193	6.084	6.079	4.649	3.634	3.050	2.615	2.850
320.0	248.6	426.4	543.2	485.2	414.5	424.2	474.3	551.3	627.4	752.0	881.9	980.8	1017	1112	972.0	517.6	423.2	354.5	426.0	1952	2950	372.0	8.361	3.191	2.418	1.660	1.498	1.335	1.222	1.098	1.107	0.968	0.758	0.678	0.725	0.653	0.684	0.613	0.608	0.563	0.542	0.567	0.587	0.667	0.824	0.975	1.202	1.503	1.795	1.539	1.510	1.657	1.733	1.821	1.899	1.869	2.094	2.213	2.543	2.775	2.871	3.078	3.681	3.702	4.176	4.180	4.139	4.846	4.999	4.953	5.144	5.945	6.465	5.252	4.006	3.077	2.875
325.0	329.8	560.7	759.4	659.9	489.8	464.9	498.1	564.3	654.0	767.2	913.2	993.1	1020	994.9	1079	705.4	434.3	294.9	197.4	573.1	2409	2461	58.92	4.773	2.603	1.955	1.654	1.360	1.330	1.094	1.048	1.102	0.824	0.679	0.765	0.756	0.653	0.604	0.698	0.648	0.651	0.612	0.550	0.727	0.987	1.183	1.450	2.027	2.164	2.071	1.960	2.208	1.980	1.935	1.943	2.140	2.311	2.277	2.661	2.895	2.842	3.296	3.853	3.894	4.171	4.375	4.337	4.755	5.014	5.238	4.940	4.928	5.805	6.331	5.700	4.104	3.112
330.0	365.9	684.6	965.9	880.6	641.1	541.7	542.3	598.3	668.0	772.6	913.4	997.0	1016	954.5	909.6	846.8	596.9	326.1	186.5	223.6	700.0	1855	2149	251.3	15.99	2.964	1.997	1.570	1.507	1.220	1.164	1.055	0.942	0.869	0.795	0.694	0.668	0.669	0.665	0.586	0.660	0.662	0.616	0.808	0.995	1.267	1.807	2.349	2.842	2.839	2.543	2.797	2.619	2.391	2.313	2.224	2.429	2.584	2.860	3.065	3.081	3.239	3.645	3.976	4.175	4.341	4.488	4.695	5.014	5.201	4.761	4.686	4.879	4.946	5.181	5.049	4.820
335.0	370.9	744.2	1112	1060	801.5	648.4	578.8	617.2	688.4	777.2	901.6	995.7	1009	946.5	845.8	737.4	754.0	469.5	234.8	185.1	253.3	487.8	1245	2569	389.0	15.01	2.942	2.274	1.691	1.340	1.309	1.174	0.917	0.965	0.786	0.758	0.637	0.662	0.601	0.686	0.599	0.764	0.648	0.808	1.031	1.399	1.863	2.493	3.421	3.419	3.071	3.367	3.268	2.953	2.709	2.529	2.777	2.744	2.669	3.009	3.200	3.321	3.837	3.825	3.991	4.325	4.564	4.590	4.799	4.901	4.744	4.637	4.748	4.501	4.394	4.053	4.457
340.0	384.8	772.8	1217	1136	888.9	703.6	612.0	644.8	703.0	780.1	889.4	980.3	988.0	936.6	817.4	683.5	674.5	624.7	314.7	203.9	178.0	195.4	365.7	1739	2358	295.3	6.887	2.552	1.788	1.503	1.265	1.082	0.925	0.930	0.802	0.770	0.673	0.700	0.645	0.650	0.719	0.672	0.609	0.761	1.027	1.347	2.063	2.516	3.386	3.674	3.315	3.685	3.388	3.201	2.965	2.625	2.773	2.758	2.888	3.032	3.218	3.589	3.718	4.030	4.123	4.369	4.426	4.573	4.684	4.829	4.538	4.511	4.501	4.301	4.485	4.003	3.796
345.0	395.3	748.7	1204	1162	941.0	737.0	637.1	650.5	717.1	776.6	878.4	942.2	953.2	900.6	797.4	666.7	590.7	612.8	459.0	250.8	190.0	156.7	161.1	526.9	2093	1921	49.62	4.058	2.394	1.715	1.317	1.278	0.955	0.866	0.749	0.873	0.822	0.799	0.704	0.615	0.685	0.628	0.631	0.777	0.969	1.415	1.881	2.649	3.429	3.686	3.428	3.827	3.574	3.506	3.247	2.717	2.903	2.827	3.182	3.191	3.218	3.610	3.844	3.966	4.169	4.352	4.365	4.394	4.695	4.962	4.852	4.430	4.619	4.366	4.504	3.876	3.838
350.0	359.9	697.0	1094	1150	977.5	777.4	681.9	679.1	721.2	774.5	845.9	888.3	893.0	858.1	770.1	661.1	569.3	526.3	522.6	400.7	250.3	188.8	152.2	200.0	629.3	1570	1667	216.6	13.37	2.596	1.729	1.342	1.112	0.954	0.921	0.908	0.728	0.686	0.683	0.605	0.657	0.613	0.607	0.762	0.951	1.274	1.733	2.469	3.110	3.259	3.252	3.747	3.667	3.466	3.284	2.895	3.017	3.037	3.199	3.299	3.332	3.568	3.709	3.884	3.856	3.973	4.111	4.032	4.248	4.382	4.455	4.394	4.461	4.143	4.177	3.746	3.834
355.0	341.4	665.1	1016	1084	998.2	803.6	698.6	701.8	730.5	765.7	811.8	835.9	843.7	819.2	748.1	659.4	579.8	513.2	464.9	505.4	385.7	246.8	191.3	160.9	221.0	412.4	1080	2041	331.9	10.83	2.559	1.686	1.289	0.936	1.061	0.820	0.737	0.765	0.690	0.730	0.591	0.624	0.755	0.800	0.875	1.121	1.601	2.133	2.907	3.019	3.049	3.698	3.588	3.522	3.283	3.009	3.194	3.288	3.131	3.128	3.187	3.442	3.655	3.808	3.885	3.901	3.948	3.826	4.026	4.332	4.250	4.273	4.158	4.037	4.137	4.013	3.838
360.0	293.1	624.2	940.7	1054	978.7	811.6	734.2	729.8	744.7	768.9	801.1	809.4	814.5	798.3	733.8	663.2	593.3	528.8	464.7	477.0	495.9	327.6	227.8	178.9	153.1	161.1	315.3	1519	1889	53.12	5.366	2.303	1.412	1.193	1.041	0.898	0.795	0.825	0.683	0.655	0.732	0.677	0.684	0.766	0.923	1.214	1.482	1.978	2.678	2.804	2.922	3.407	3.695	3.787	3.497	2.996	3.302	3.312	3.222	3.195	3.388	3.607	3.534	3.803	3.816	3.703	3.832	4.006	3.826	4.258	4.142	4.200	4.065	3.951	4.223	4.044	3.987
365.0	289.0	562.1	888.6	1011	963.4	847.8	765.3	750.9	753.1	769.0	783.9	795.9	797.1	777.9	724.6	665.7	607.8	550.6	492.0	461.7	503.1	444.8	286.9	214.2	166.2	125.9	127.8	467.7	1856	1521	43.96	4.263	2.207	1.333	1.245	0.944	0.853	0.868	0.546	0.621	0.693	0.658	0.620	0.700	0.875	1.123	1.366	1.893	2.417	2.803	2.690	3.429	3.677	3.661	3.592	3.240	3.249	3.276	3.181	3.360	3.580	3.671	3.753	3.874	3.838	3.767	3.624	4.191	3.496	3.979	3.846	4.101	4.087	3.803	4.344	3.985	4.026
370.0	272.1	536.7	826.6	980.6	972.8	899.3	813.8	790.9	784.0	784.3	787.2	790.6	793.4	771.8	721.3	666.4	625.9	577.8	535.1	495.1	480.6	496.7	426.8	287.0	214.8	159.8	123.1	169.6	570.9	1409	1469	192.2	13.72	2.794	1.563	1.101	0.939	0.886	0.662	0.741	0.635	0.680	0.709	0.712	0.882	1.150	1.365	1.934	2.353	2.668	2.729	3.446	3.709	3.682	3.577	3.339	3.523	3.425	3.516	3.500	3.611	3.652	3.820	3.734	3.743	3.677	3.824	3.820	3.867	3.982	3.854	4.050	3.969	3.777	3.874	3.852	3.890
375.0	286.0	523.3	774.7	960.3	991.2	930.6	838.3	814.3	806.6	809.8	813.4	814.9	825.0	792.5	708.3	671.4	637.4	607.5	571.7	539.1	505.7	484.8	505.7	423.2	291.9	222.6	180.5	161.3	211.8	392.0	1071	1802	281.9	12.64	2.792	1.595	1.130	0.976	0.700	0.748	0.723	0.695	0.698	0.725	0.948	1.191	1.284	1.975	2.104	2.438	2.453	3.328	3.669	3.964	3.469	3.435	3.792	3.603	3.639	3.594	3.861	3.712	3.975	3.704	3.696	4.083	3.847	3.884	3.923	4.178	4.242	3.900	4.256	3.937	3.869	3.983	4.157
380.0	276.8	489.1	757.1	947.6	1019	961.3	877.4	847.3	827.8	827.6	832.1	834.8	850.3	814.2	712.6	673.0	646.0	625.5	594.3	564.2	532.8	497.6	495.8	512.6	376.1	279.8	237.0	201.1	163.6	178.9	378.9	1428	1535	45.43	5.133	1.988	1.321	0.905	0.928	0.765	0.781	0.759	0.684	0.769	0.873	1.196	1.239	1.832	2.352	2.430	2.625	3.302	3.752	4.103	3.825	3.634	3.700	3.590	3.694	3.827	3.863	3.802	3.708	4.187	3.823	4.137	3.970	3.843	3.854	4.370	4.557	3.780	4.300	4.127	3.812	3.764	3.969
385.0	265.2	504.9	764.1	934.0	1020	989.7	896.6	866.1	851.5	840.8	853.4	839.1	856.8	817.9	713.3	668.4	649.2	635.0	607.5	585.2	560.1	523.1	497.5	521.6	474.5	339.1	281.2	243.8	181.0	155.1	204.6	514.9	1533	1162	36.40	3.049	1.739	1.126	0.994	0.909	0.765	0.616	0.751	0.735	0.881	1.140	1.258	1.857	2.055	2.400	2.555	3.382	3.666	3.880	3.889	3.709	3.755	3.621	3.964	3.772	3.880	4.059	3.878	4.147	3.855	4.003	4.190	3.843	4.013	4.371	4.632	3.787	4.349	4.030	3.858	4.011	4.109
390.0	265.7	466.9	738.1	905.4	986.5	975.5	904.3	878.7	856.3	842.7	851.0	829.3	841.0	792.7	703.0	663.3	646.1	637.0	619.1	602.0	579.3	550.4	517.7	501.9	496.6	435.6	333.7	272.2	204.9	166.1	167.9	214.7	481.3	1071	1145	150.2	8.800	1.642	1.221	0.920	0.754	0.726	0.762	0.767	0.880	1.165	1.357	1.763	2.063	2.394	2.494	3.210	3.562	3.809	3.864	3.496	3.790	3.926	3.931	4.060	3.790	3.968	3.938	4.018	3.937	4.169	4.048	3.891	4.079	4.304	4.143	4.021	4.107	4.135	3.796	3.949	4.028
395.0	254.6	462.5	716.8	895.5	970.5	966.8	911.7	889.2	875.5	852.3	851.3	831.5	835.5	779.2	692.0	661.1	641.1	628.3	621.4	607.2	593.0	568.0	541.3	515.9	484.5	477.1	425.5	322.1	243.0	196.9	181.1	165.0	167.3	279.0	784.6	1268	224.1	7.254	1.853	1.063	0.862	0.817	0.744	0.728	0.979	1.079	1.402	1.664	2.111	2.321	2.361	3.198	3.438	3.862	3.942	3.533	4.007	3.889	4.050	4.034	3.955	4.152	4.018	3.903	4.078	4.168	3.888	4.083	3.724	4.129	4.235	3.966	4.131	3.887	3.978	3.957	3.883
400.0	254.1	465.6	697.6	869.9	955.6	976.6	919.0	893.8	875.7	872.0	871.2	841.4	838.9	778.7	691.0	647.0	634.0	622.5	620.5	613.5	601.3	584.2	557.2	535.4	494.2	471.7	483.4	390.0	281.2	232.2	211.9	177.3	111.7	102.2	227.0	952.9	1118	37.75	3.762	1.551	1.006	0.919	0.838	0.861	1.159	1.073	1.191	1.704	2.121	2.197	2.398	3.295	3.643	3.754	3.927	3.923	4.059	4.061	4.131	3.955	3.826	3.927	4.051	3.952	4.102	3.951	3.887	3.884	4.009	3.890	4.380	3.963	3.874	3.902	3.657	3.922	4.166
405.0	234.0	449.6	684.3	878.3	938.2	981.6	929.5	901.4	895.2	877.4	888.3	855.1	838.1	776.3	681.1	642.5	627.2	614.3	619.3	610.6	602.5	583.2	566.6	555.3	506.9	472.2	478.8	454.6	326.7	261.2	236.5	195.7	115.2	75.40	82.62	289.9	1051	868.7	31.31	2.583	1.276	0.866	0.759	0.988	1.178	1.089	1.171	1.612	2.015	2.325	2.306	3.216	3.530	3.613	3.986	4.059	3.990	4.182	4.075	4.023	3.817	4.054	3.881	4.162	4.180	4.055	3.978	4.111	3.991	4.078	4.205	3.862	3.648	3.900	3.656	3.899	4.029
410.0	242.1	438.3	655.6	842.8	923.8	943.0	928.7	899.8	876.0	883.6	876.2	838.9	814.8	747.3	667.0	625.2	606.2	596.3	594.6	590.8	588.8	579.2	565.2	554.0	515.1	475.7	456.5	449.1	387.0	298.4	250.7	201.6	126.1	81.39	60.53	93.41	310.8	767.4	799.7	139.6	7.727	1.398	0.974	1.000	1.056	1.065	1.280	1.627	1.922	2.228	2.287	3.095	3.576	3.577	3.784	3.625	3.816	3.878	4.030	3.928	4.034	4.012	3.921	3.855	3.986	3.828	3.902	3.940	3.816	4.153	3.936	3.688	3.926	3.776	3.665	3.733	3.773
415.0	237.1	404.0	629.4	785.4	887.3	903.1	901.8	891.0	878.4	863.2	849.1	817.8	774.3	717.8	643.9	602.5	577.1	570.5	568.3	566.7	566.1	564.0	554.5	537.9	516.7	476.8	446.6	417.1	395.7	347.1	269.4	209.2	139.7	97.05	69.00	58.83	94.77	194.0	507.6	924.2	201.3	6.611	1.522	1.143	1.078	1.157	1.304	1.501	1.685	2.143	2.239	2.926	3.239	3.600	3.723	3.371	3.803	3.671	3.689	4.040	4.048	4.052	3.946	3.904	3.687	3.924	3.946	3.753	3.520	4.003	4.003	3.595	3.747	3.607	3.607	3.456	3.822
420.0	219.2	385.3	599.0	765.1	839.9	890.4	890.2	878.3	874.4	853.2	836.0	803.4	758.5	692.2	625.7	579.9	559.2	547.9	541.8	547.6	548.6	544.8	540.8	526.0	504.2	471.9	443.5	408.8	379.6	367.9	303.5	221.9	152.5	108.2	78.64	57.33	50.62	63.77	142.0	640.6	844.7	34.86	3.161	1.513	1.057	1.264	1.254	1.474	1.937	2.019	2.145	2.803	3.206	3.467	3.626	3.518	3.890	3.849	3.938	4.039	3.775	4.254	3.711	4.002	3.730	3.922	3.874	3.646	3.599	3.880	3.684	3.678	3.670	3.531	3.505	3.346	3.385
425.0	228.5	406.8	601.1	743.5	828.7	874.6	878.1	870.5	856.3	836.3	822.0	781.4	738.6	677.1	609.2	561.9	536.2	530.9	523.1	528.3	526.3	530.2	523.2	515.3	495.7	467.2	440.5	405.9	371.1	357.6	335.3	244.8	164.2	120.1	87.66	64.25	46.52	38.40	48.38	186.8	720.8	674.1	29.79	2.250	1.283	1.169	1.186	1.493	1.857	2.088	2.200	2.710	3.111	3.310	3.660	3.620	3.850	3.792	3.949	3.734	3.932	3.936	3.943	4.113	3.742	3.840	3.737	3.680	3.369	3.427	3.574	3.668	3.466	3.335	3.531	3.495	3.557
430.0	236.6	384.6	573.2	726.2	819.1	841.8	855.9	865.9	852.8	829.5	808.5	769.9	713.7	650.1	586.8	538.1	512.5	507.0	499.4	501.8	499.2	502.1	499.8	495.9	480.8	458.6	434.8	404.8	368.6	341.6	327.8	280.6	191.4	136.2	100.8	74.90	55.43	39.68	32.80	56.82	201.4	517.2	487.2	133.2	8.720	1.510	1.323	1.541	1.764	2.026	2.169	2.802	2.888	3.118	3.422	3.412	3.843	3.724	3.835	3.647	3.968	3.738	3.762	3.857	3.773	3.582	3.573	3.509	3.467	3.561	3.481	3.382	3.194	3.187	3.199	3.431	3.291
435.0	325.6	363.7	537.1	694.6	784.2	829.1	848.8	863.9	836.0	811.7	801.6	749.8	692.1	631.8	565.0	512.0	492.7	477.3	473.9	471.3	472.0	474.0	473.8	476.0	462.7	447.2	426.8	398.2	367.1	335.8	304.9	279.8	228.3	159.1	114.0	88.62	65.96	47.75	35.21	32.01	58.17	127.2	312.7	743.2	205.4	9.799	1.744	1.734	1.888	1.814	2.078	2.618	2.984	3.104	3.272	3.300	3.656	3.663	3.750	3.847	3.823	3.950	3.677	3.791	3.948	3.653	3.228	3.381	3.494	3.245	3.391	3.244	3.133	2.936	3.254	2.941	3.415
440.0	373.5	375.8	518.4	667.5	761.7	812.3	827.3	850.8	829.8	796.4	778.8	730.9	668.6	605.0	542.3	498.6	469.6	460.5	454.8	453.1	449.0	455.6	454.4	457.6	446.7	432.7	413.5	392.6	363.4	333.8	299.6	265.8	236.8	183.3	127.0	96.89	74.07	54.50	40.17	30.09	28.73	40.22	84.98	464.3	741.1	163.9	4.471	2.035	2.000	2.005	2.062	2.651	2.931	3.001	3.164	3.280	3.632	3.627	3.621	3.807	3.920	3.846	3.611	3.758	3.681	3.486	3.356	3.220	3.259	3.110	3.195	3.091	2.996	3.049	3.138	2.800	3.095
445.0	395.1	438.2	511.0	666.0	751.6	798.4	820.1	836.4	809.5	786.8	761.1	705.7	653.3	590.6	523.8	482.6	452.5	444.1	433.4	430.3	430.4	430.5	434.3	432.7	426.1	416.9	395.7	378.9	356.5	329.1	294.9	255.2	228.0	200.7	142.1	104.0	79.63	60.27	44.27	32.98	25.57	21.98	28.22	127.7	551.7	668.2	28.12	3.040	2.129	1.961	1.931	2.656	2.991	2.864	3.118	3.284	3.636	3.589	3.657	3.848	3.882	3.646	3.810	3.704	3.993	3.324	3.542	3.236	3.247	2.941	2.921	2.932	2.864	3.157	2.953	2.778	2.824
450.0	267.9	562.5	540.1	628.7	723.5	762.3	792.3	801.2	786.4	742.9	719.2	674.5	614.8	552.9	490.8	449.6	420.6	410.7	401.7	400.3	396.5	397.7	399.6	401.0	397.0	389.8	373.0	360.9	342.5	318.2	288.4	248.4	212.2	191.1	164.1	118.6	86.76	65.71	50.69	38.23	28.09	21.15	18.18	37.65	147.7	425.6	555.7	125.7	9.438	2.205	1.998	2.531	2.761	2.825	3.017	3.022	3.505	3.494	3.685	3.664	3.742	3.563	3.664	3.495	3.319	3.294	3.233	3.235	2.864	2.804	3.068	2.730	2.855	2.966	2.693	2.729	2.671
455.0	180.6	545.6	716.2	596.6	667.1	709.4	751.0	767.5	738.2	694.3	677.1	628.4	566.9	513.9	454.4	414.3	391.3	378.0	366.8	361.0	359.8	358.9	360.8	366.2	364.4	359.8	345.0	333.8	319.0	298.8	275.6	239.0	201.9	173.0	159.4	135.8	96.66	70.69	55.52	42.97	31.20	24.81	18.68	19.10	40.78	102.1	243.6	589.2	186.8	10.97	2.301	2.488	2.763	2.684	2.792	2.835	3.367	3.182	3.538	3.343	3.342	3.356	3.475	3.388	3.338	3.169	2.927	3.112	2.857	2.556	2.990	2.800	2.809	2.569	2.480	2.412	2.675
460.0	158.1	414.2	896.8	624.8	624.4	677.9	712.3	730.4	704.6	665.4	644.6	604.1	533.0	483.0	432.3	383.0	363.7	348.9	340.8	332.3	327.5	332.2	334.5	337.8	334.1	333.8	321.2	311.3	301.0	284.4	264.1	229.1	196.6	164.8	145.6	136.0	107.1	76.30	58.34	45.24	34.30	26.71	20.01	16.27	18.77	30.15	63.09	305.9	578.2	148.1	6.537	2.570	2.484	2.645	2.640	2.732	3.108	3.162	3.222	3.235	3.287	3.386	3.311	3.146	3.080	2.879	2.730	3.042	2.756	2.706	2.678	2.582	2.620	2.344	2.475	2.393	2.574
465.0	144.1	293.1	902.3	792.6	589.0	633.7	668.0	687.5	654.2	631.5	610.9	565.6	496.7	450.8	399.9	364.1	331.8	322.5	316.7	306.9	302.5	306.0	304.4	313.6	308.3	306.0	299.1	291.2	279.8	266.6	248.5	219.8	187.3	158.8	136.2	126.0	113.7	83.49	60.82	47.80	36.66	28.39	21.18	16.91	14.57	14.81	20.90	80.31	372.1	516.7	111.5	4.545	2.701	2.777	2.717	2.639	2.997	3.108	3.071	3.230	3.096	2.890	3.151	2.971	2.944	2.904	2.866	2.800	2.563	2.490	2.388	2.253	2.392	2.326	2.378	2.235	2.162
470.0	137.4	244.0	624.7	1055	653.6	572.3	606.1	619.8	601.8	577.6	546.9	513.7	455.5	407.6	363.2	326.3	299.7	288.2	282.2	276.9	270.3	271.1	272.0	274.0	274.2	272.1	268.0	259.5	254.0	244.2	226.4	202.0	173.4	150.2	128.8	111.8	103.2	90.15	66.55	48.78	38.00	30.05	23.94	18.43	15.32	12.92	12.16	23.99	95.78	276.6	392.9	185.2	11.58	2.732	2.661	2.558	2.755	2.896	2.903	2.867	2.857	2.801	2.987	2.681	2.824	2.620	2.621	2.520	2.405	2.258	2.373	2.181	2.130	2.181	2.098	2.055	2.078
475.0	130.1	217.9	389.5	958.2	992.6	533.9	532.5	551.3	534.2	526.1	494.5	459.9	407.0	362.2	319.4	290.4	266.6	255.2	247.7	241.2	235.2	234.4	240.4	240.0	239.1	238.9	233.7	231.1	226.6	220.7	203.2	183.1	161.0	138.4	121.4	103.2	89.25	82.42	73.66	53.72	39.44	30.96	24.98	19.81	16.57	13.46	11.09	12.48	26.58	66.50	132.8	368.3	194.1	14.74	2.423	2.509	2.552	2.772	2.541	2.577	2.687	2.462	2.673	2.567	2.517	2.550	2.248	2.191	2.320	2.203	2.023	2.155	1.740	2.048	2.026	1.982	1.832
480.0	137.1	207.4	300.7	663.1	1254	592.5	502.3	510.2	490.7	489.1	460.5	424.8	379.3	334.2	291.7	268.5	243.7	232.3	224.7	219.4	214.1	213.5	214.8	217.7	214.8	215.2	211.8	211.0	206.0	202.3	188.2	169.9	149.3	132.1	114.7	97.98	84.69	74.27	71.00	59.49	41.48	31.68	26.11	20.94	16.86	14.28	11.21	10.28	11.54	19.50	33.72	149.3	404.1	168.8	8.881	2.445	2.498	2.463	2.424	2.445	2.391	2.461	2.301	2.413	2.450	2.344	2.089	2.007	2.162	2.054	1.749	1.879	1.940	1.922	1.738	1.867	1.757
485.0	120.1	204.9	274.5	441.2	1204	852.1	471.1	467.5	461.7	450.5	428.3	392.6	354.3	312.7	274.0	249.0	227.9	215.6	209.0	202.1	195.8	197.7	194.8	198.3	198.1	198.3	196.5	195.6	191.9	188.4	174.7	159.9	141.7	124.2	108.4	94.52	80.81	70.20	64.73	61.66	45.50	33.40	26.10	21.80	18.10	15.36	12.31	10.29	8.746	9.352	11.41	38.55	212.6	398.3	123.7	4.931	2.568	2.281	2.275	2.393	2.173	2.168	2.290	2.192	2.223	2.025	1.935	1.897	1.919	1.932	1.764	1.923	1.795	1.794	1.632	1.958	1.519
490.0	107.4	205.7	264.0	337.4	751.5	1197	573.6	432.2	427.8	411.4	392.6	362.4	324.2	288.0	250.3	225.6	206.8	195.1	186.7	180.5	177.2	177.4	175.3	177.0	178.7	177.2	174.4	175.3	172.4	169.1	160.3	147.9	131.2	115.1	101.0	87.42	76.71	65.46	57.91	55.53	49.38	37.65	27.03	22.35	18.71	15.88	12.80	10.80	8.604	7.439	6.806	12.25	53.12	173.5	320.0	178.9	14.06	2.418	2.238	2.244	2.066	2.140	2.038	2.073	1.974	1.944	1.901	1.821	1.705	1.782	1.749	1.675	1.668	1.636	1.533	1.675	1.630
495.0	95.90	163.9	275.4	292.0	426.5	1025	957.2	400.3	381.2	374.1	355.1	322.7	295.7	257.1	225.7	202.4	184.2	170.1	166.4	158.1	155.8	153.8	154.7	155.9	155.4	156.1	156.5	155.4	152.0	150.0	144.4	133.3	120.1	105.0	92.67	82.15	70.43	61.11	53.19	47.90	45.77	42.21	30.62	22.15	19.22	16.02	13.44	11.07	9.052	7.295	6.182	6.818	15.14	41.78	102.4	313.3	221.5	18.37	2.367	2.321	1.848	1.918	1.937	1.833	1.804	1.864	1.752	1.674	1.609	1.637	1.645	1.464	1.461	1.548	1.605	1.403	1.569
500.0	83.33	148.9	273.3	279.7	326.1	662.1	1233	440.6	348.9	335.0	327.4	300.5	267.5	235.7	206.1	181.3	167.3	157.6	151.0	145.1	139.8	139.4	138.4	139.9	139.6	139.5	141.3	138.2	140.2	136.1	131.4	121.4	110.3	97.63	86.41	75.57	66.86	58.41	50.17	43.55	40.33	41.36	33.99	24.04	19.11	16.32	13.44	11.47	9.595	7.560	6.056	5.487	6.589	12.35	25.76	115.9	365.4	189.9	11.51	2.114	1.860	1.941	1.878	1.696	1.702	1.762	1.674	1.421	1.485	1.380	1.459	1.365	1.359	1.508	1.447	1.306	1.402
505.0	71.74	125.2	242.8	277.0	281.7	408.1	1166	715.0	323.5	309.1	296.0	275.5	245.9	215.0	191.1	166.6	152.2	142.2	134.7	131.8	128.7	125.7	125.2	126.7	126.2	126.0	126.9	127.7	126.6	125.2	119.1	111.3	100.2	90.63	80.31	71.02	62.34	54.76	47.69	41.08	35.75	36.20	35.55	26.60	19.46	16.53	13.59	11.50	9.766	8.023	6.216	5.274	5.099	5.673	8.623	29.13	167.0	366.8	132.5	5.306	1.861	1.967	1.822	1.523	1.780	1.537	1.622	1.517	1.360	1.462	1.426	1.272	1.237	1.356	1.352	1.290	1.170
510.0	69.96	109.9	193.9	268.8	256.4	288.2	680.2	1108	403.9	269.5	257.6	238.3	216.8	187.8	167.2	146.4	133.5	124.1	117.1	115.9	110.1	108.1	109.0	109.8	109.8	110.7	109.8	111.1	110.2	109.5	106.6	97.40	88.61	79.73	71.69	64.38	56.11	49.20	42.78	37.24	32.77	30.19	29.81	28.25	21.85	15.77	13.04	11.12	8.871	7.822	6.607	5.376	4.696	4.343	4.545	8.963	41.01	149.3	260.4	129.8	12.75	1.882	1.551	1.520	1.521	1.463	1.416	1.326	1.278	1.312	1.362	1.197	1.147	1.248	1.158	1.140	1.145
515.0	60.13	99.19	154.1	246.5	257.3	235.5	333.4	971.1	780.4	249.4	226.3	207.0	189.7	162.9	143.8	130.5	115.3	107.8	100.3	98.57	94.44	91.13	92.73	93.87	93.38	93.33	94.12	94.83	95.06	93.00	90.05	82.83	76.23	68.81	62.14	56.57	50.49	44.07	38.98	34.12	29.69	25.98	23.99	24.66	23.42	17.20	12.58	10.62	8.808	7.488	6.506	5.772	4.869	4.056	3.598	4.446	11.58	35.21	77.39	228.7	192.1	16.32	1.599	1.495	1.254	1.202	1.277	1.232	1.267	1.136	1.140	0.992	0.988	1.123	1.021	0.954	1.064
520.0	54.25	81.60	124.9	211.2	258.6	204.9	230.6	587.6	1118	293.9	203.3	187.0	167.4	146.1	126.9	116.4	101.7	94.87	90.97	85.19	84.26	82.57	82.08	80.94	83.00	83.77	82.32	82.41	84.76	82.15	80.56	74.20	68.40	62.24	56.15	51.15	45.52	40.29	36.15	31.55	27.66	23.90	22.04	20.60	23.10	19.15	13.00	10.32	8.864	7.201	6.373	5.576	4.872	4.058	3.638	3.312	4.962	9.754	19.43	83.99	261.4	146.0	8.707	1.509	1.265	1.114	1.217	1.169	1.025	1.144	1.065	0.911	0.963	0.934	0.991	0.905	1.084
525.0	48.56	78.79	111.0	160.6	251.3	197.6	196.6	322.2	1125	555.0	185.3	168.7	151.9	133.4	114.9	101.2	90.43	85.91	82.40	77.91	75.93	74.40	73.61	74.51	73.38	75.14	73.29	73.60	76.45	72.92	72.09	67.98	62.54	56.76	50.60	46.61	41.99	37.82	32.86	29.29	25.54	22.38	19.50	18.00	20.01	19.44	14.80	10.42	8.378	7.074	6.243	5.335	4.781	4.389	3.545	3.024	3.423	4.302	6.226	20.99	114.5	252.7	33.32	3.639	1.185	1.109	1.153	1.028	1.052	1.037	0.987	0.959	0.888	0.894	0.888	0.813	0.897
530.0	47.60	72.03	98.93	131.7	210.7	208.5	175.6	201.3	627.8	987.0	231.3	148.7	130.7	116.0	100.1	87.54	79.77	74.74	70.97	66.92	64.38	63.90	63.19	63.76	62.44	64.48	62.75	64.43	64.49	64.03	62.73	58.44	54.34	49.36	44.54	41.48	36.21	33.02	28.91	25.82	22.71	20.02	17.78	15.51	15.34	16.84	15.88	11.30	7.890	6.757	5.780	5.064	4.379	4.236	3.651	3.059	2.828	2.876	3.072	6.218	27.98	101.4	182.3	103.1	11.25	1.236	1.162	0.965	0.850	0.889	0.968	0.912	0.860	0.810	0.777	0.762	0.834
535.0	48.52	68.25	83.54	103.9	152.9	206.7	161.3	151.1	262.3	897.4	624.4	131.4	113.3	99.54	86.69	74.26	66.92	63.41	59.48	55.84	56.67	54.08	53.48	53.86	54.31	53.74	53.40	53.48	54.92	54.08	52.57	50.05	46.07	42.08	38.94	35.46	31.50	28.03	24.99	22.80	20.28	17.72	16.04	13.89	12.83	12.79	14.40	12.80	8.614	6.451	5.233	4.573	4.069	3.751	3.658	3.401	2.670	2.462	2.229	2.916	7.708	23.91	54.63	161.1	136.9	12.68	1.038	0.912	0.850	0.764	0.914	0.834	0.773	0.700	0.817	0.681	0.708
540.0	43.78	60.33	78.06	94.73	121.4	188.9	160.9	131.7	158.4	504.3	981.8	173.4	99.61	87.21	73.62	66.15	59.36	55.59	51.67	50.82	47.97	48.20	46.31	47.23	48.06	46.65	46.38	47.57	47.19	46.52	46.12	43.81	40.44	36.75	33.13	31.26	28.00	25.04	22.92	20.12	18.19	16.11	14.47	12.88	11.64	10.54	11.21	12.23	9.599	6.502	5.013	4.261	3.869	3.571	3.429	3.348	3.039	2.362	1.986	2.167	3.002	6.731	13.51	58.16	180.3	100.7	5.396	0.973	0.831	0.780	0.880	0.730	0.679	0.646	0.740	0.726	0.639
545.0	42.30	55.11	67.69	85.72	99.16	151.5	167.3	119.5	124.1	232.2	1019	371.9	91.85	77.57	66.99	58.98	50.97	47.66	44.13	43.29	42.24	41.86	39.67	40.73	41.41	41.03	40.66	41.00	41.32	41.73	40.55	37.96	35.74	32.52	30.02	27.74	25.04	21.94	20.61	18.17	16.48	14.52	13.11	11.48	10.51	9.275	8.911	10.73	10.06	7.211	4.991	4.081	3.691	3.354	3.046	3.115	3.105	2.353	2.119	1.737	1.897	2.525	4.199	14.34	77.04	173.9	32.10	2.481	0.780	0.718	0.709	0.703	0.617	0.711	0.687	0.712	0.591
550.0	37.18	42.91	62.09	70.68	82.08	108.9	164.5	118.4	98.75	124.0	515.7	785.5	127.2	65.06	56.59	48.33	42.75	40.16	36.95	36.69	35.36	34.72	33.18	34.01	33.72	33.73	33.19	34.26	34.29	34.47	33.63	30.85	29.40	26.58	25.19	22.69	20.60	18.78	17.15	15.33	13.93	12.20	11.35	9.886	9.101	8.131	7.454	7.608	8.337	7.518	5.267	3.806	3.334	2.968	2.802	2.565	2.813	2.565	2.006	1.672	1.628	1.626	1.986	4.158	18.69	67.21	112.0	70.68	9.336	0.785	0.706	0.703	0.581	0.682	0.658	0.565	0.566
555.0	38.11	47.40	54.71	64.37	65.12	81.07	123.6	134.4	81.52	85.89	180.8	740.2	408.7	55.30	46.09	40.54	34.56	32.90	30.80	29.91	27.84	26.46	26.83	27.33	26.74	27.71	27.33	27.88	28.02	27.59	26.84	25.45	23.48	21.84	20.13	18.57	16.79	15.83	13.98	12.51	11.54	10.66	9.428	8.237	7.797	6.861	6.369	5.917	5.904	6.795	5.836	3.798	2.970	2.493	2.453	2.272	2.113	2.306	2.052	1.528	1.457	1.382	1.366	1.804	5.053	15.74	32.87	101.4	88.57	8.952	0.668	0.679	0.577	0.548	0.529	0.505	0.546
560.0	30.50	45.41	46.11	53.56	57.74	67.73	94.08	141.3	79.58	70.15	91.96	394.7	724.4	77.61	38.29	33.59	30.02	28.30	26.43	25.91	23.99	22.74	22.70	21.80	23.21	22.42	23.72	23.24	22.77	23.58	22.34	21.05	20.31	19.18	17.51	15.24	13.97	13.32	12.10	10.93	9.515	9.074	8.125	7.328	6.925	5.962	5.386	5.010	4.584	5.168	5.648	4.473	2.851	2.519	2.100	2.091	1.946	1.838	2.222	1.707	1.422	1.243	1.203	1.313	1.934	4.295	8.134	36.08	111.2	34.95	3.730	0.589	0.593	0.535	0.488	0.516	0.491
565.0	38.08	46.30	45.92	47.41	52.66	57.88	69.08	131.5	83.82	61.79	68.47	159.8	777.9	158.2	33.73	30.52	25.93	25.06	22.90	21.17	20.83	19.66	19.23	19.33	19.87	18.94	19.54	19.50	18.81	19.54	19.49	18.35	16.87	15.60	14.60	13.31	11.88	11.32	10.09	9.117	8.610	8.000	6.999	6.569	5.990	5.224	4.802	4.573	3.709	3.820	4.986	4.505	2.962	2.350	1.879	1.775	1.743	1.690	1.763	1.878	1.311	1.120	1.116	0.997	1.163	1.679	2.517	8.911	46.32	102.5	30.04	1.711	0.591	0.586	0.423	0.474	0.488
570.0	43.12	39.72	44.04	42.15	46.84	46.49	49.39	86.69	105.8	59.41	53.75	73.57	396.2	523.3	57.16	24.15	21.74	20.11	18.04	16.97	16.44	16.63	15.52	15.78	15.44	15.59	15.62	15.66	15.61	15.79	15.42	14.66	13.98	12.53	11.79	10.93	9.794	9.042	8.094	7.700	7.129	6.430	5.680	5.256	4.850	4.471	4.020	3.798	3.162	2.939	3.326	3.867	3.273	2.365	1.722	1.610	1.532	1.478	1.360	1.654	1.577	1.303	1.065	0.929	0.969	1.102	1.235	2.651	11.31	40.81	68.57	43.90	6.025	0.576	0.533	0.482	0.466
575.0	38.03	31.31	38.49	39.90	39.58	37.49	39.92	52.86	103.2	67.17	46.73	50.28	125.7	539.4	237.5	20.99	17.24	15.77	14.99	13.31	13.17	13.23	12.64	12.65	12.06	11.67	12.09	12.28	12.41	12.35	12.38	11.37	11.28	10.23	9.331	8.713	8.099	7.007	7.013	6.317	5.856	5.231	4.638	4.294	4.284	3.609	3.384	3.187	2.623	2.344	2.377	2.882	3.107	2.674	1.772	1.438	1.377	1.197	1.217	1.265	1.319	1.465	1.177	0.859	0.841	0.756	0.815	1.189	3.090	9.771	19.85	58.73	34.61	5.345	0.538	0.479	0.474
580.0	37.21	37.13	38.28	39.35	34.51	33.62	35.91	41.89	83.67	84.81	42.59	42.70	53.69	291.6	470.1	31.72	14.86	12.77	12.42	11.71	10.85	10.72	10.99	10.26	10.26	10.43	10.19	10.72	10.07	11.01	11.18	9.951	9.999	8.755	7.978	7.603	6.491	6.146	5.913	5.491	4.764	4.272	4.108	3.719	3.566	3.103	2.960	2.729	2.330	2.141	1.952	2.068	2.463	2.544	1.981	1.460	1.284	1.138	1.124	1.107	1.058	1.227	1.214	0.938	0.796	0.760	0.730	0.796	1.270	2.736	4.897	21.41	62.19	30.97	2.703	0.494	0.448
585.0	38.24	33.48	38.23	35.88	28.83	31.71	33.93	36.47	58.86	98.26	46.34	38.24	36.64	110.8	537.4	93.05	12.89	11.42	10.63	9.672	9.910	9.226	9.667	8.870	8.641	9.272	9.093	8.928	9.000	9.201	9.025	8.582	8.223	7.783	6.634	6.412	5.807	5.529	4.950	4.264	3.973	3.822	3.592	3.122	3.193	2.672	2.630	2.441	2.031	1.897	1.749	1.678	1.756	2.170	2.231	1.495	1.198	1.032	0.968	0.958	0.951	0.971	1.194	1.004	0.847	0.797	0.799	0.731	0.778	1.201	1.538	5.393	26.29	60.03	23.71	1.203	0.442
590.0	31.42	33.09	36.27	33.86	27.97	29.42	29.46	32.09	40.10	82.50	64.12	37.05	32.48	44.92	275.9	321.9	23.63	10.15	9.046	8.282	7.912	7.847	7.377	7.022	7.114	7.326	7.038	7.166	7.285	7.384	7.208	6.896	6.574	6.142	5.176	5.364	4.724	4.614	4.178	3.828	3.478	3.203	2.934	2.790	2.616	2.333	2.146	1.971	1.737	1.575	1.424	1.406	1.322	1.567	1.885	1.692	1.269	1.004	0.867	0.902	0.787	0.871	0.934	1.222	1.002	0.751	0.720	0.637	0.693	0.770	0.763	1.662	6.441	22.92	41.33	24.28	4.231
595.0	26.72	31.24	33.95	35.46	29.66	25.91	26.32	26.12	30.62	52.82	84.17	40.50	30.32	28.95	80.24	357.2	91.87	8.345	7.087	6.451	6.323	6.424	5.893	5.815	5.990	5.752	5.725	5.864	6.261	5.831	5.876	5.532	5.145	4.910	4.426	4.352	4.051	3.541	3.525	3.070	2.723	2.674	2.366	2.241	2.034	1.965	1.820	1.709	1.414	1.457	1.204	1.225	1.081	1.133	1.474	1.775	1.472	0.991	0.868	0.845	0.856	0.700	0.725	0.849	0.925	0.819	0.786	0.645	0.664	0.650	0.619	0.821	1.819	5.507	11.73	34.27	31.34
600.0	33.78	28.48	31.38	29.35	27.35	23.61	27.17	25.66	26.68	38.41	84.69	50.53	30.71	23.38	31.39	205.2	263.6	12.34	6.197	6.039	5.548	5.171	5.085	4.909	5.213	4.880	4.992	5.192	4.978	4.786	5.078	4.545	4.283	4.089	3.680	3.672	3.506	2.867	2.851	2.654	2.436	2.190	2.134	2.018	1.756	1.768	1.505	1.485	1.351	1.254	1.038	1.103	0.881	1.030	1.087	1.488	1.553	1.037	0.902	0.685	0.721	0.670	0.705	0.680	0.793	0.909	0.823	0.589	0.587	0.570	0.712	0.688	0.724	1.573	2.951	11.91	37.02
605.0	36.46	31.56	32.24	28.34	27.94	26.67	25.24	26.85	30.62	37.68	73.44	70.65	34.84	26.33	21.96	77.76	336.2	46.52	6.036	5.083	5.026	4.692	4.529	4.299	4.662	4.557	4.203	4.199	4.355	4.244	4.336	3.524	3.603	3.549	3.316	3.305	2.951	2.463	2.538	2.272	2.237	2.069	1.895	1.797	1.415	1.475	1.360	1.220	1.086	1.110	0.985	1.032	0.855	0.855	0.874	1.227	1.428	1.214	0.826	0.697	0.661	0.693	0.681	0.661	0.664	0.749	0.927	0.551	0.532	0.584	0.546	0.522	0.521	0.784	1.018	3.065	15.02
610.0	31.72	31.86	34.50	29.13	25.76	25.64	27.23	28.71	35.18	41.79	60.62	87.50	50.12	32.46	26.29	32.99	195.2	198.7	11.17	4.214	3.964	3.883	3.687	3.500	3.665	3.739	3.572	3.501	3.566	3.455	3.362	3.144	2.862	2.899	2.508	2.723	2.368	2.085	2.144	1.842	1.781	1.639	1.534	1.499	1.216	1.291	1.134	1.053	0.992	0.903	0.826	0.890	0.762	0.708	0.713	0.912	1.105	1.164	0.842	0.727	0.628	0.709	0.572	0.596	0.689	0.728	0.897	0.837	0.622	0.615	0.520	0.480	0.521	0.557	0.631	1.065	3.790
615.0	34.04	35.18	30.18	28.65	24.38	27.14	26.26	31.39	34.06	40.59	50.86	82.20	66.55	36.15	29.05	22.93	64.50	251.2	61.50	3.748	3.218	3.106	3.396	2.694	2.875	2.928	2.889	2.911	2.927	2.527	2.713	2.338	2.517	2.435	2.000	1.979	1.844	1.739	1.686	1.641	1.457	1.364	1.322	1.241	1.124	1.084	0.917	1.019	0.845	0.775	0.642	0.733	0.715	0.689	0.612	0.667	0.872	0.971	0.804	0.783	0.591	0.706	0.628	0.675	0.582	0.630	0.663	0.846	0.769	0.645	0.566	0.459	0.550	0.558	0.526	0.654	1.252
620.0	33.45	27.94	30.25	27.23	25.49	26.23	27.47	32.63	37.20	40.26	46.78	65.23	78.40	39.58	28.86	21.27	28.44	159.2	167.5	5.234	3.001	2.857	2.821	2.516	2.515	2.301	2.272	2.579	2.401	2.334	2.298	2.229	2.150	1.981	1.758	1.674	1.467	1.445	1.434	1.336	1.253	1.261	0.999	1.044	1.017	0.979	0.818	0.877	0.706	0.711	0.619	0.711	0.603	0.582	0.574	0.615	0.670	0.814	0.918	0.763	0.679	0.645	0.622	0.620	0.551	0.605	0.631	0.655	0.896	0.662	0.588	0.535	0.485	0.479	0.463	0.484	0.669
625.0	29.94	27.84	31.96	27.14	24.99	20.91	26.19	30.19	33.14	38.19	43.72	54.45	82.48	44.90	29.39	21.04	20.02	64.66	232.8	23.53	2.734	2.562	2.346	2.373	2.401	2.152	1.951	2.181	2.215	1.940	1.836	2.046	1.676	1.582	1.637	1.451	1.297	1.364	1.256	1.279	1.119	1.114	0.880	0.878	0.894	0.839	0.782	0.749	0.727	0.628	0.566	0.585	0.539	0.459	0.546	0.510	0.638	0.656	0.810	0.898	0.672	0.605	0.586	0.583	0.562	0.618	0.661	0.592	0.650	0.690	0.701	0.619	0.484	0.511	0.487	0.498	0.531
630.0	30.75	26.97	29.45	27.61	24.86	25.46	26.31	29.93	31.36	37.87	42.40	47.83	66.06	54.61	29.88	20.66	17.61	23.76	147.4	116.8	5.056	2.318	1.985	1.965	1.899	1.775	1.755	1.733	1.800	1.823	1.669	1.648	1.422	1.374	1.459	1.212	1.142	1.003	1.035	1.034	0.951	0.983	0.772	0.789	0.737	0.703	0.653	0.713	0.623	0.545	0.516	0.518	0.471	0.485	0.505	0.458	0.558	0.536	0.626	0.796	0.659	0.620	0.560	0.506	0.523	0.623	0.608	0.581	0.575	0.591	0.693	0.586	0.511	0.467	0.480	0.446	0.456
635.0	31.82	28.20	28.97	25.25	23.20	26.71	27.31	28.29	31.38	37.62	41.20	45.39	51.28	60.46	34.05	20.78	17.82	14.47	43.46	184.4	36.59	2.128	1.884	1.616	1.496	1.633	1.661	1.461	1.457	1.523	1.315	1.318	1.200	1.143	1.169	0.979	0.907	0.839	0.871	0.811	0.768	0.765	0.668	0.761	0.687	0.626	0.600	0.530	0.565	0.451	0.442	0.501	0.487	0.430	0.444	0.415	0.532	0.451	0.511	0.577	0.650	0.584	0.647	0.564	0.456	0.544	0.561	0.566	0.525	0.545	0.597	0.652	0.483	0.484	0.424	0.523	0.448
640.0	32.24	33.00	28.88	25.64	22.66	22.41	25.45	26.11	29.55	38.29	37.72	45.28	43.74	56.50	39.64	22.55	17.55	12.57	14.11	127.8	76.64	2.788	1.828	1.479	1.425	1.291	1.375	1.346	1.254	1.292	1.327	1.184	1.144	1.059	0.941	0.854	0.831	0.756	0.796	0.743	0.685	0.627	0.593	0.593	0.585	0.599	0.543	0.516	0.464	0.408	0.409	0.400	0.441	0.450	0.418	0.414	0.506	0.456	0.444	0.547	0.576	0.525	0.563	0.542	0.451	0.598	0.524	0.589	0.547	0.521	0.630	0.705	0.620	0.537	0.437	0.661	0.389
645.0	32.73	38.10	31.62	24.65	22.94	22.38	22.85	29.41	29.91	35.87	40.30	45.32	42.91	50.20	48.45	23.15	18.38	11.83	7.631	51.72	161.1	12.32	1.577	1.399	1.292	1.186	1.213	1.318	1.115	1.175	1.029	1.021	0.953	0.949	0.885	0.905	0.705	0.781	0.739	0.645	0.658	0.659	0.520	0.503	0.544	0.578	0.529	0.476	0.427	0.386	0.355	0.384	0.433	0.395	0.413	0.433	0.456	0.494	0.470	0.452	0.490	0.594	0.601	0.460	0.480	0.552	0.449	0.497	0.600	0.515	0.569	0.605	0.620	0.577	0.469	0.520	0.438
650.0	28.68	38.10	34.56	31.15	22.68	21.83	22.51	28.22	28.69	34.64	38.49	42.19	42.23	44.20	51.55	25.41	17.45	12.34	6.735	16.28	148.6	52.03	1.636	1.266	1.274	1.157	1.094	1.180	1.165	1.001	1.047	1.072	0.921	0.846	0.770	0.801	0.643	0.667	0.573	0.539	0.658	0.576	0.519	0.451	0.524	0.481	0.428	0.460	0.459	0.411	0.399	0.384	0.396	0.365	0.351	0.441	0.346	0.482	0.465	0.439	0.463	0.554	0.512	0.514	0.471	0.573	0.486	0.535	0.482	0.549	0.554	0.567	0.556	0.579	0.457	0.470	0.464
