Sample:	'1
File name:	G2025070811»ôÆÂÇÅ.FD3
Run date:	'13:50:27, 07/09/2025
Operator:	Administrator
Comment:	'

Instrument
Model:	F-2700 FL Spectrophotometer
Serial number:	23B8-004
ROM Version:	4J14000 07

Instrument parameters
Measurement type:	3-D scan
Data mode:	Fluorescence
EX  Start WL:	220.0 nm
EX  End WL:	600.0 nm
EX Sampling interval:	5.0 nm
EM  Start WL:	230.0 nm
EM  End WL:	650.0 nm
EM Sampling interval:	5.0 nm
Scan speed:	12000 nm/min
EX Slit:	5.0 nm
EM Slit:	5.0 nm
PMT Voltage:	700 V
Response:	Auto 
Corrected spectra:	Off
Contour interval:	50.000

Peak integration
Integration method:	Rectangular
Sensitivity:	1
Threshold:	1.000

Peaks
No.	ApexEX/EM(nm)	Height(Data)
1	225.0/565.0	77.12
2	225.0/585.0	77.52
3	225.0/600.0	76.62
4	225.0/620.0	71.38
5	225.0/635.0	68.51
6	230.0/340.0	1990
7	240.0/265.0	388.5
8	240.0/525.0	272.3
9	245.0/270.0	418.6
10	245.0/535.0	222.0
11	250.0/275.0	547.9
12	250.0/550.0	180.5
13	255.0/285.0	579.5
14	255.0/565.0	143.8
15	260.0/290.0	582.4
16	260.0/575.0	123.2
17	265.0/585.0	105.7
18	270.0/600.0	104.6
19	275.0/310.0	1711
20	275.0/615.0	120.3
21	280.0/315.0	1728
22	280.0/625.0	106.0
23	285.0/320.0	1676
24	285.0/640.0	83.63
25	440.0/520.0	25.38
26	455.0/540.0	14.37
27	475.0/340.0	6.018
28	485.0/365.0	5.706
29	505.0/275.0	3.516
30	510.0/280.0	3.929
31	515.0/285.0	3.871
32	530.0/290.0	3.728
33	535.0/270.0	40.20
34	550.0/305.0	8.396
35	560.0/310.0	9.238
36	570.0/315.0	9.234
37	575.0/290.0	46.27
38	575.0/320.0	9.596
39	585.0/325.0	9.148

Data points
	220.0	225.0	230.0	235.0	240.0	245.0	250.0	255.0	260.0	265.0	270.0	275.0	280.0	285.0	290.0	295.0	300.0	305.0	310.0	315.0	320.0	325.0	330.0	335.0	340.0	345.0	350.0	355.0	360.0	365.0	370.0	375.0	380.0	385.0	390.0	395.0	400.0	405.0	410.0	415.0	420.0	425.0	430.0	435.0	440.0	445.0	450.0	455.0	460.0	465.0	470.0	475.0	480.0	485.0	490.0	495.0	500.0	505.0	510.0	515.0	520.0	525.0	530.0	535.0	540.0	545.0	550.0	555.0	560.0	565.0	570.0	575.0	580.0	585.0	590.0	595.0	600.0
230.0	67.06	1226	2587	648.8	28.18	7.572	6.002	5.409	4.426	4.290	3.740	3.711	3.280	2.718	2.490	2.004	1.644	1.602	1.494	1.233	1.122	1.012	0.953	0.967	0.812	0.824	0.799	0.737	0.679	0.695	0.611	0.624	0.567	0.574	0.547	0.488	0.493	0.480	0.423	0.437	0.499	0.565	0.594	0.469	0.373	0.396	1.519	6.044	9.650	6.395	2.339	0.604	0.306	0.323	0.285	0.302	0.290	0.311	0.322	0.288	0.282	0.286	0.285	0.331	0.310	0.284	0.282	0.287	0.268	0.321	0.331	0.305	0.313	0.318	0.319	0.320	0.315
235.0	113.9	354.8	1824	2645	500.3	37.48	8.320	5.636	4.957	4.855	4.192	3.856	3.152	2.836	2.807	2.080	1.638	1.613	1.434	1.181	1.263	1.111	1.055	1.024	0.910	0.762	0.749	0.789	0.656	0.740	0.684	0.645	0.624	0.565	0.517	0.453	0.483	0.593	0.416	0.374	0.417	0.500	0.624	0.637	0.619	0.429	0.696	1.763	3.940	7.009	9.755	9.715	4.289	0.998	0.332	0.315	0.296	0.294	0.299	0.287	0.307	0.262	0.265	0.316	0.303	0.273	0.332	0.316	0.279	0.291	0.327	0.328	0.324	0.332	0.276	0.343	0.367
240.0	171.7	167.1	585.7	2653	2715	378.8	18.88	6.376	5.933	5.313	4.256	4.435	3.295	2.844	2.469	2.080	1.651	1.663	1.508	1.204	1.118	1.079	1.210	0.984	0.881	0.703	0.708	0.733	0.696	0.700	0.659	0.653	0.547	0.519	0.514	0.521	0.506	0.491	0.410	0.391	0.414	0.504	0.485	0.537	0.657	0.813	0.637	0.722	1.251	2.275	5.945	13.87	15.49	9.852	3.062	0.582	0.321	0.351	0.342	0.299	0.349	0.284	0.307	0.300	0.327	0.292	0.335	0.276	0.265	0.329	0.317	0.319	0.304	0.308	0.330	0.324	0.310
245.0	142.6	209.8	193.3	1007	3529	2615	262.8	10.50	7.684	5.817	4.967	4.492	3.439	3.283	2.651	1.952	1.798	1.627	1.433	1.366	1.171	1.162	1.178	0.941	0.918	0.853	0.783	0.725	0.754	0.753	0.652	0.573	0.608	0.571	0.519	0.604	0.467	0.492	0.454	0.416	0.427	0.458	0.434	0.484	0.526	0.852	0.849	0.881	0.690	0.744	1.651	5.079	12.06	19.60	17.36	8.621	1.976	0.402	0.375	0.310	0.345	0.311	0.342	0.304	0.332	0.310	0.385	0.318	0.334	0.310	0.382	0.279	0.326	0.335	0.347	0.319	0.304
250.0	66.47	176.5	240.9	306.4	1283	3399	3478	924.6	46.18	6.893	6.297	5.072	3.982	3.819	3.016	2.478	2.147	1.693	1.621	1.392	1.300	1.295	1.029	0.988	0.973	0.880	0.830	0.724	0.721	0.723	0.664	0.629	0.559	0.569	0.527	0.507	0.432	0.468	0.439	0.473	0.527	0.413	0.435	0.430	0.406	0.523	0.621	0.967	0.986	0.841	0.862	1.452	3.146	6.893	12.25	18.21	21.48	16.59	8.563	1.943	0.453	0.333	0.300	0.295	0.329	0.347	0.352	0.320	0.312	0.283	0.311	0.303	0.337	0.351	0.353	0.323	0.306
255.0	39.53	66.47	203.0	310.5	356.9	950.6	3740	5425	1234	37.12	9.358	6.358	5.414	4.289	3.353	2.727	2.172	1.766	1.671	1.516	1.288	1.252	1.050	0.991	0.987	0.907	0.796	0.956	0.737	0.913	0.715	0.692	0.601	0.577	0.575	0.401	0.468	0.480	0.469	0.441	0.520	0.514	0.431	0.431	0.384	0.429	0.454	0.534	0.742	1.053	1.420	1.387	1.217	1.830	3.056	4.734	9.609	21.50	36.15	25.70	12.53	1.955	0.378	0.344	0.305	0.377	0.318	0.339	0.330	0.345	0.381	0.339	0.365	0.303	0.339	0.325	0.331
260.0	38.17	38.09	88.15	306.0	297.2	273.0	1307	5750	5579	235.6	19.09	7.812	6.110	4.836	3.700	2.752	2.376	2.086	1.836	1.719	1.382	1.294	1.352	1.014	0.953	0.944	0.848	0.923	0.722	0.801	0.769	0.774	0.642	0.690	0.651	0.539	0.467	0.462	0.498	0.425	0.562	0.497	0.442	0.400	0.420	0.409	0.369	0.405	0.428	0.587	1.066	1.847	1.818	1.233	1.065	1.533	2.661	6.477	18.13	34.85	42.81	23.78	8.624	1.048	0.461	0.388	0.365	0.384	0.307	0.354	0.344	0.357	0.365	0.298	0.343	0.303	0.307
265.0	38.06	29.47	40.75	170.5	388.5	227.5	351.2	2290	7590	4957	177.2	12.00	6.880	5.445	4.021	3.162	2.663	2.356	1.839	1.700	1.488	1.158	1.309	1.109	0.990	0.953	1.010	0.968	0.778	0.864	0.723	0.788	0.520	0.640	0.592	0.582	0.439	0.585	0.556	0.411	0.460	0.549	0.433	0.436	0.519	0.443	0.446	0.408	0.438	0.393	0.578	1.163	1.935	2.060	1.289	0.865	1.062	1.925	4.610	11.64	28.05	46.51	32.28	19.87	4.689	0.528	0.488	0.441	0.356	0.363	0.402	0.325	0.360	0.354	0.398	0.375	0.377
270.0	55.00	44.77	35.72	74.00	237.1	418.6	287.7	586.8	2752	6889	5668	729.2	38.07	7.681	5.785	4.387	3.523	2.681	2.203	1.930	1.822	1.437	1.498	1.268	1.026	1.117	0.997	0.929	0.831	0.904	0.768	0.739	0.648	0.682	0.682	0.585	0.495	0.554	0.504	0.489	0.450	0.502	0.501	0.552	0.543	0.494	0.441	0.486	0.448	0.345	0.405	0.595	0.930	1.557	2.088	2.203	1.991	1.379	1.578	3.087	7.040	14.88	24.17	40.20	38.95	38.59	14.13	4.365	0.595	0.424	0.385	0.369	0.378	0.324	0.368	0.340	0.394
275.0	102.0	104.7	76.10	67.86	116.6	281.4	547.9	332.0	667.9	1855	6570	9878	986.3	30.46	7.650	5.679	4.215	3.309	2.427	1.940	1.889	1.641	1.497	1.477	1.348	1.135	1.114	0.951	0.793	0.862	0.783	0.762	0.762	0.830	0.820	0.759	0.750	0.696	0.684	0.578	0.592	0.525	0.539	0.563	0.648	0.611	0.530	0.597	0.494	0.471	0.415	0.541	0.605	0.870	1.170	1.653	2.952	3.516	2.272	1.423	2.094	3.856	5.948	9.811	14.23	36.14	62.34	32.84	21.33	4.311	0.692	0.495	0.412	0.414	0.375	0.396	0.475
280.0	191.5	177.6	150.5	97.44	102.5	165.5	440.9	530.8	273.3	490.8	2115	9768	8295	142.3	15.82	7.258	4.996	4.050	2.962	2.467	2.110	1.889	1.576	1.378	1.504	1.224	1.141	1.101	1.020	0.954	0.934	1.010	0.796	0.868	0.852	0.798	0.903	0.803	0.803	0.571	0.645	0.612	0.647	0.666	0.807	0.781	0.752	0.808	0.772	0.670	0.528	0.578	0.566	0.707	0.889	1.020	1.616	2.801	3.929	2.806	1.681	1.424	1.909	2.830	3.819	9.766	24.84	48.10	72.45	31.82	15.81	1.736	0.580	0.418	0.470	0.387	0.415
285.0	261.1	279.4	224.8	147.0	112.6	137.0	238.9	579.5	327.6	229.2	592.6	3460	9999.9	6095	102.9	10.88	7.123	4.983	3.464	2.565	2.364	2.210	1.744	1.524	1.497	1.105	1.156	1.135	1.082	0.919	0.891	0.983	0.864	0.965	0.931	1.019	1.063	0.978	0.778	0.700	0.727	0.781	0.808	0.763	0.960	1.023	0.967	1.067	0.986	0.832	0.691	0.746	0.618	0.743	0.803	0.900	1.024	1.479	2.536	3.871	3.730	2.043	1.321	1.382	1.595	3.034	6.435	13.74	36.03	62.96	73.84	27.22	8.378	0.760	0.418	0.439	0.458
290.0	386.1	426.1	358.2	226.3	142.7	138.0	166.8	310.0	582.4	483.3	357.2	974.8	3486	8281	7056	420.9	23.35	6.694	4.822	3.392	2.668	2.162	1.854	1.690	1.528	1.330	1.161	1.218	1.117	0.972	1.031	0.918	0.880	0.989	1.114	1.124	1.142	1.099	0.967	0.932	0.964	0.972	0.920	1.063	1.063	1.366	1.286	1.403	1.299	1.123	0.964	0.943	0.840	0.781	0.875	0.905	0.950	1.041	1.322	1.949	2.731	3.452	3.728	2.624	1.869	1.886	2.557	4.195	9.290	17.88	33.26	46.27	41.77	47.38	17.78	7.194	1.029
295.0	460.3	571.5	491.9	302.6	194.0	168.8	183.1	229.7	370.9	775.5	691.0	541.6	1026	2197	6488	6488	580.7	20.08	6.567	4.581	3.443	2.825	2.407	1.887	1.668	1.582	1.241	1.140	1.367	1.157	1.024	0.919	0.900	1.098	1.112	1.181	1.291	1.130	1.172	1.074	0.980	1.091	1.166	1.397	1.385	1.597	1.614	1.796	1.587	1.451	1.288	1.205	1.049	0.923	1.036	0.946	1.041	1.129	1.226	1.326	1.760	2.114	2.963	4.597	5.228	3.582	2.562	2.696	3.823	5.335	8.713	11.66	13.18	31.35	61.56	71.80	28.19
300.0	582.9	671.4	598.3	382.6	258.9	226.1	254.8	306.7	405.9	699.6	1140	754.1	637.6	776.4	2028	7886	5495	85.01	12.39	5.843	4.291	3.439	2.489	2.139	1.636	1.588	1.398	1.331	1.411	1.294	1.159	1.128	1.010	1.149	1.239	1.368	1.419	1.349	1.131	1.084	1.148	1.222	1.196	1.505	1.592	1.734	1.848	2.250	1.912	1.797	1.525	1.531	1.248	1.163	1.215	1.163	1.401	1.507	1.647	1.836	1.878	2.144	2.692	3.674	5.787	6.513	5.057	3.438	3.451	3.366	4.084	4.332	4.535	8.593	21.20	48.88	74.75
305.0	688.5	807.7	717.5	507.5	348.9	340.8	405.2	501.8	643.9	859.1	1333	1456	938.7	722.5	855.5	2881	9051	4324	67.66	8.929	5.347	4.046	3.221	2.475	1.780	1.891	1.615	1.546	1.436	1.356	1.111	1.105	1.100	1.200	1.445	1.476	1.536	1.459	1.216	1.317	1.389	1.318	1.410	1.570	1.656	2.089	2.246	2.646	2.445	1.951	1.749	1.856	1.731	1.599	1.744	1.518	2.013	2.157	2.411	2.764	2.987	3.527	3.804	4.280	5.193	6.832	8.396	7.427	6.040	4.917	4.469	4.038	4.004	4.767	6.979	14.11	30.60
310.0	781.6	934.0	872.3	623.1	461.2	461.1	560.7	678.0	836.6	1069	1368	1711	1555	1017	788.2	1048	3175	6406	5515	294.7	17.53	5.656	4.225	3.003	2.467	2.196	1.908	1.560	1.476	1.485	1.245	1.196	1.147	1.184	1.470	1.438	1.561	1.631	1.297	1.484	1.581	1.512	1.492	1.772	1.889	2.342	2.685	2.901	2.937	2.467	2.130	2.265	2.101	2.097	2.110	2.270	2.585	2.906	3.111	3.567	3.931	4.359	4.938	5.506	5.994	6.644	7.554	8.520	9.238	8.498	6.973	5.579	4.875	5.107	4.780	6.032	9.397
315.0	897.3	1126	1009	734.2	570.8	553.8	669.2	792.9	939.2	1181	1429	1617	1728	1501	933.6	727.1	1116	1752	4910	6898	437.1	14.55	5.304	3.880	3.297	2.362	1.998	1.690	1.689	1.561	1.225	1.417	1.017	1.360	1.286	1.571	1.668	1.535	1.508	1.585	1.516	1.579	1.683	1.785	2.152	2.645	2.737	3.481	3.100	2.868	2.449	2.639	2.516	2.250	2.411	2.765	3.101	3.370	3.739	3.984	4.215	4.720	5.340	5.609	6.542	7.117	7.367	8.072	8.262	8.991	9.234	8.680	7.039	5.630	4.772	4.557	5.019
320.0	1057	1291	1147	832.2	640.5	623.2	737.3	853.0	985.7	1238	1488	1640	1639	1676	1208	734.2	707.9	639.8	1445	6175	4135	64.67	8.656	4.941	3.766	2.959	2.135	1.873	1.675	1.710	1.420	1.464	1.203	1.337	1.446	1.566	1.536	1.615	1.480	1.620	1.475	1.693	2.014	2.144	2.410	2.756	3.086	4.068	3.581	3.064	2.769	2.932	2.579	2.599	2.826	2.975	3.268	3.823	3.958	4.190	4.521	4.985	5.649	6.217	6.939	7.538	7.805	7.997	8.203	8.581	8.361	9.596	9.278	7.805	5.558	4.742	4.667
325.0	1085	1433	1347	953.4	705.1	660.1	763.5	888.6	996.9	1234	1457	1625	1596	1520	1409	842.8	631.2	416.1	441.2	1988	6405	3439	53.63	7.174	4.595	3.469	2.628	2.156	1.909	1.852	1.329	1.459	1.156	1.370	1.333	1.399	1.651	1.798	1.535	1.607	1.609	1.677	1.907	2.321	2.643	3.047	3.693	4.452	4.279	3.378	3.125	3.357	2.897	2.966	2.928	3.023	3.453	3.693	4.067	4.290	4.602	5.301	5.436	6.263	6.877	7.124	7.430	7.985	8.584	8.555	8.151	8.475	8.596	9.148	7.231	5.260	4.557
330.0	1176	1563	1622	1224	874.1	735.1	781.2	870.8	970.8	1190	1396	1564	1536	1390	1261	1045	716.0	399.5	257.1	546.3	2017	4646	4391	244.9	16.41	4.641	3.072	2.532	2.147	1.816	1.647	1.600	1.329	1.425	1.348	1.373	1.689	1.583	1.514	1.523	1.621	1.694	1.897	2.287	2.755	3.512	4.025	4.801	4.996	4.223	4.011	4.341	3.602	3.537	3.179	3.321	3.631	3.784	3.963	4.306	4.508	4.933	5.503	6.005	6.324	6.865	7.110	7.683	8.211	8.081	7.728	7.675	7.560	7.583	7.215	6.963	6.142
335.0	1260	1737	1872	1575	1195	893.0	820.6	873.6	971.1	1153	1343	1502	1500	1360	1172	990.3	929.4	522.6	279.6	271.6	549.9	1166	3661	5782	394.1	16.26	4.407	3.374	2.600	2.135	1.975	1.706	1.464	1.435	1.401	1.336	1.526	1.543	1.554	1.608	1.647	1.765	1.941	2.322	2.822	3.784	4.400	5.412	5.383	5.168	5.043	5.675	4.980	4.722	3.918	3.664	3.766	3.893	4.090	4.125	4.370	4.812	5.283	5.855	5.910	6.491	6.959	7.510	7.793	7.474	7.681	7.705	7.156	6.970	6.495	6.174	6.648
340.0	1244	1805	1990	1690	1318	956.0	837.0	864.0	952.6	1106	1288	1424	1445	1331	1130	911.0	891.3	690.5	341.2	240.7	246.2	343.1	1048	4840	3474	319.2	8.705	3.933	3.082	2.373	2.073	1.720	1.461	1.464	1.392	1.513	1.484	1.476	1.594	1.545	1.631	1.579	1.964	2.273	3.002	3.602	4.619	5.403	5.531	5.545	5.332	6.018	5.315	4.752	4.234	3.817	3.952	4.052	4.277	4.418	4.534	4.987	5.119	5.588	5.761	6.418	6.530	7.293	7.734	7.098	7.320	7.258	7.013	7.131	6.332	5.732	5.622
345.0	1216	1759	1955	1709	1306	959.4	838.1	848.7	921.1	1060	1213	1338	1355	1250	1081	861.7	764.5	722.7	461.7	265.2	200.5	179.1	311.2	1490	5034	3130	49.93	6.122	3.561	2.876	2.297	1.920	1.657	1.694	1.443	1.363	1.469	1.442	1.502	1.477	1.520	1.643	2.023	2.315	2.870	3.625	4.235	5.719	5.739	5.332	5.066	5.790	5.332	5.119	4.335	4.153	3.672	4.033	4.120	4.246	4.411	4.488	4.932	5.190	5.625	6.235	6.194	6.407	7.517	6.785	6.792	6.923	6.713	6.600	6.012	5.204	5.196
350.0	1146	1612	1866	1714	1381	1024	858.1	855.9	900.8	1005	1128	1223	1245	1171	1027	847.6	717.0	624.0	566.8	404.6	244.1	184.6	178.7	408.1	1527	3612	3651	952.4	16.39	4.064	2.738	2.144	1.712	1.762	1.544	1.486	1.463	1.405	1.431	1.327	1.454	1.614	1.756	2.102	2.703	3.482	3.950	4.937	5.540	5.250	5.043	5.937	5.518	5.566	4.576	3.963	4.279	3.921	4.114	4.186	4.237	4.532	4.779	4.942	5.167	5.543	5.958	6.022	6.406	6.496	6.335	6.568	6.530	6.435	5.776	5.292	5.120
355.0	1047	1473	1731	1670	1423	1102	913.4	902.2	907.5	995.9	1081	1152	1162	1100	995.5	841.8	721.9	594.2	523.5	538.3	371.0	233.4	188.7	199.9	409.1	880.0	2535	4856	384.9	18.10	3.851	2.623	1.867	1.788	1.672	1.474	1.574	1.375	1.411	1.332	1.453	1.493	1.757	2.145	2.504	3.273	3.564	4.569	4.919	4.928	4.925	5.762	5.582	5.354	4.719	4.357	4.150	4.198	4.369	4.113	4.405	4.464	4.604	4.697	5.084	5.078	5.465	5.572	5.958	6.128	6.130	6.242	5.753	6.101	5.932	5.476	5.269
360.0	1011	1371	1607	1604	1394	1118	957.9	939.5	933.9	989.9	1048	1105	1098	1052	950.9	828.4	720.3	604.4	518.7	515.2	488.1	313.8	218.5	178.7	183.6	257.6	683.6	3447	3246	329.2	9.783	3.783	2.508	1.983	1.704	1.446	1.418	1.379	1.479	1.352	1.458	1.498	1.735	1.790	2.452	3.008	3.414	4.378	4.636	4.643	4.700	5.533	5.430	5.431	4.638	4.359	4.272	4.386	4.242	4.270	4.316	4.627	4.964	4.851	5.065	4.968	5.387	5.355	5.698	5.702	5.793	5.730	5.771	5.660	5.532	5.449	5.267
365.0	977.6	1333	1512	1513	1373	1128	986.9	948.8	949.9	1004	1030	1067	1058	1021	922.6	812.4	726.6	622.5	538.1	489.9	506.5	428.2	270.6	202.0	156.8	137.2	207.4	984.0	3818	3052	49.61	5.803	3.285	2.369	1.819	1.613	1.482	1.339	1.484	1.496	1.426	1.621	1.649	1.920	2.452	2.894	3.342	4.053	4.343	4.265	4.343	5.406	5.156	5.706	4.735	4.421	4.420	4.440	4.388	4.484	4.461	4.702	5.005	5.179	5.018	5.195	5.206	5.152	5.324	5.409	5.715	5.475	5.420	5.491	5.272	5.432	5.304
370.0	902.4	1228	1436	1445	1351	1155	1021	969.3	973.1	1002	1017	1034	1021	975.6	903.9	802.5	733.4	653.2	576.0	511.7	476.9	482.6	397.8	262.0	190.1	144.5	126.9	274.9	1096	2988	3372	985.2	16.51	3.252	2.309	1.909	1.639	1.460	1.562	1.493	1.539	1.583	1.649	1.913	2.199	2.729	3.111	3.786	4.007	4.063	4.131	5.251	5.393	5.171	4.787	4.550	4.510	4.445	4.691	4.543	4.460	4.607	4.829	4.897	4.864	4.972	5.055	5.215	5.218	5.313	5.535	5.280	5.442	5.595	5.142	5.299	5.358
375.0	863.6	1153	1331	1392	1327	1178	1041	995.9	992.1	998.1	1007	1009	985.5	940.1	875.9	796.4	737.3	672.6	605.5	551.1	493.8	461.2	461.3	380.6	248.5	182.2	139.7	140.9	299.3	720.4	2052	4326	344.7	19.37	3.368	2.433	1.784	1.672	1.567	1.554	1.605	1.626	1.674	1.838	2.245	2.724	2.998	3.575	3.927	3.804	4.020	5.183	5.250	5.171	4.604	4.714	4.771	4.638	4.686	4.615	4.660	4.647	4.816	4.926	4.774	5.038	5.215	5.056	5.116	5.217	5.356	5.112	5.000	5.277	5.376	5.183	5.061
380.0	829.7	1111	1255	1331	1287	1169	1035	996.5	992.7	986.7	993.1	991.7	963.6	916.6	850.8	782.6	730.8	676.5	622.8	573.7	511.4	467.5	446.1	451.9	320.4	217.3	164.8	130.5	136.5	207.3	544.0	2825	3782	296.5	9.383	3.028	2.245	1.767	1.699	1.520	1.691	1.486	1.708	1.643	2.247	2.612	2.972	3.546	3.763	3.576	3.947	5.015	5.103	4.993	4.635	4.886	4.891	4.668	4.596	4.560	4.712	4.822	4.649	4.890	4.758	4.902	5.021	4.816	5.103	5.068	5.116	4.952	4.814	5.248	5.112	5.254	5.375
385.0	849.2	1043	1213	1296	1248	1144	1029	1005	1003	984.3	974.8	957.5	936.5	895.8	831.7	756.6	727.0	675.8	630.5	585.8	532.6	482.6	441.0	444.0	400.3	264.6	193.0	147.8	118.5	108.8	164.4	786.1	3166	2591	220.9	4.995	2.706	2.194	1.901	1.607	1.626	1.432	1.708	1.759	2.222	2.497	2.862	3.256	3.558	3.573	3.960	4.930	4.846	5.013	4.640	4.717	4.874	4.821	4.538	4.391	4.751	4.540	4.809	4.822	4.659	4.882	4.817	4.662	4.849	4.990	4.757	5.013	5.163	4.872	4.868	5.112	5.295
390.0	806.9	1008	1157	1232	1215	1126	1043	1006	986.4	966.4	959.2	941.8	910.4	865.8	809.5	747.6	709.9	673.1	636.7	595.1	551.8	502.4	461.4	424.1	416.7	357.8	248.5	182.5	140.5	109.8	97.32	215.6	867.5	2243	2609	796.5	14.60	3.060	2.103	1.897	1.743	1.632	1.879	1.937	2.122	2.494	2.831	3.220	3.429	3.433	3.658	4.684	4.561	4.790	4.484	4.556	4.814	4.832	4.646	4.576	4.901	4.608	4.801	4.620	4.649	4.708	4.706	4.511	4.813	4.706	4.568	4.850	4.687	5.019	4.990	4.886	4.996
395.0	775.8	960.3	1109	1181	1177	1114	1043	1003	979.7	942.3	935.9	922.4	887.4	832.1	791.1	730.2	695.6	663.9	632.6	598.0	559.2	517.8	482.2	430.0	397.3	392.0	339.0	230.2	176.0	136.3	104.2	105.4	230.6	536.9	1491	3186	288.3	16.65	3.082	2.129	1.948	1.884	1.689	2.010	2.017	2.390	2.654	2.973	3.352	3.280	3.354	4.505	4.774	4.692	4.457	4.340	4.836	4.721	4.573	4.590	4.637	4.779	4.849	4.266	4.442	4.573	4.473	4.581	4.703	4.527	4.533	4.476	4.420	4.790	4.677	4.925	4.947
400.0	753.7	951.4	1096	1142	1149	1113	1038	998.3	968.9	934.8	913.7	896.9	862.7	821.6	761.7	710.5	682.1	656.5	619.7	594.9	559.1	521.9	491.0	446.1	402.3	379.9	374.9	291.4	205.7	160.7	121.7	95.67	100.2	152.4	390.1	2007	2830	254.6	8.634	2.524	2.261	1.936	1.889	2.018	2.034	2.418	2.681	3.238	3.422	3.340	3.219	4.456	4.569	4.578	4.586	4.643	4.947	4.564	4.707	4.683	4.592	4.514	4.637	4.718	4.520	4.612	4.389	4.310	4.406	4.278	4.510	4.504	4.449	4.589	4.424	4.530	4.706
405.0	732.2	914.4	1064	1127	1128	1105	1037	994.2	961.6	919.5	907.2	874.2	844.2	806.5	747.9	694.7	667.4	644.5	615.4	581.0	552.3	524.9	494.5	456.6	413.4	377.2	368.5	344.1	247.5	183.6	141.4	103.8	81.56	74.08	115.1	553.6	2305	2158	192.5	4.396	2.706	2.170	1.868	2.048	1.941	2.386	2.452	2.987	3.179	3.242	3.429	4.450	4.431	4.395	4.353	4.391	4.763	4.750	4.745	4.617	4.423	4.371	4.505	4.584	4.243	4.568	4.252	4.292	4.572	4.358	4.564	4.404	4.376	4.849	4.327	4.478	4.651
410.0	703.5	909.5	1029	1079	1093	1076	1026	980.2	940.5	910.7	891.0	859.4	817.2	775.0	723.6	671.5	639.8	621.2	587.8	568.5	544.2	515.6	494.2	462.7	425.0	386.0	354.6	345.4	310.6	227.9	167.1	124.8	91.83	69.25	61.64	149.3	626.3	1696	2050	647.5	12.90	2.646	2.103	2.035	2.232	2.382	2.522	2.965	3.081	3.088	3.247	4.217	4.358	4.437	4.374	4.256	4.678	4.682	4.721	4.796	4.451	4.575	4.639	4.364	4.305	4.294	4.128	4.148	4.196	4.131	4.345	4.247	4.254	4.478	4.196	4.184	4.427
415.0	679.3	871.0	990.8	1048	1059	1043	1008	959.3	920.5	884.5	870.3	821.1	782.6	743.9	686.7	638.1	606.1	589.3	564.3	545.2	525.7	503.0	485.3	460.1	428.4	392.4	356.7	327.1	322.2	285.6	201.3	145.4	108.1	79.72	60.40	65.58	161.9	402.1	1115	2381	260.4	14.64	2.751	2.412	2.484	2.295	2.528	2.869	2.941	3.072	2.930	4.022	4.171	4.210	4.230	4.269	4.693	4.563	4.796	4.497	4.257	4.413	4.608	4.310	4.270	4.193	4.088	3.960	4.160	4.063	4.261	4.366	4.210	4.067	3.973	4.144	4.265
420.0	650.7	843.6	972.3	1005	1018	992.9	988.1	947.1	907.5	876.8	842.0	806.6	763.3	719.3	663.3	611.9	579.6	561.2	537.6	522.5	503.9	487.0	470.8	450.1	427.7	392.2	360.0	322.3	305.8	304.0	239.2	162.3	120.7	88.66	66.20	52.69	62.27	108.1	287.7	1484	2068	224.4	6.785	2.735	2.430	2.571	2.604	2.719	2.855	2.831	2.983	3.995	3.971	4.087	4.241	4.104	4.660	4.501	4.557	4.281	4.198	4.430	4.324	4.396	4.313	4.318	4.191	3.986	4.219	3.965	4.028	4.132	4.143	4.059	4.110	3.867	3.976
425.0	625.8	803.8	938.2	970.4	992.6	969.7	965.9	931.2	886.2	854.6	830.5	794.0	749.5	689.7	638.5	591.1	554.7	538.2	516.0	499.9	482.2	472.7	460.8	443.7	419.1	390.8	359.5	325.9	298.7	289.7	266.7	185.5	132.5	99.37	74.57	54.57	43.62	45.57	79.23	405.4	1683	1823	34.15	3.683	2.663	2.690	2.488	2.947	2.863	2.982	3.058	3.821	3.908	3.877	3.992	4.033	4.387	4.457	4.616	4.245	4.113	4.426	4.085	4.216	4.002	3.998	3.703	3.825	4.194	3.814	3.925	3.950	4.189	3.884	3.919	3.804	3.575
430.0	732.1	748.2	871.4	941.6	958.6	948.1	930.4	907.2	874.3	841.5	808.9	768.8	717.0	661.9	608.6	557.2	520.8	509.2	488.1	473.4	458.3	453.2	441.1	429.6	405.2	384.4	359.3	328.1	302.4	276.4	262.1	223.9	158.8	111.7	85.19	63.36	48.31	37.58	37.19	104.5	457.8	1332	1585	510.4	11.76	2.989	2.570	2.849	2.922	2.689	2.898	3.550	3.701	3.837	3.987	3.868	4.249	4.055	4.292	4.241	4.233	4.200	4.253	4.046	3.933	3.910	3.896	3.683	3.917	3.865	3.943	3.676	3.962	3.732	3.651	3.707	3.678
435.0	1073	717.8	846.9	895.2	908.4	908.3	921.9	869.4	858.8	825.0	787.1	752.8	693.9	639.5	577.4	526.8	491.9	482.6	461.7	445.9	437.9	426.7	422.6	409.4	390.1	376.3	355.4	328.3	302.6	276.9	248.3	228.3	195.9	132.5	96.62	73.45	56.47	42.16	32.90	41.30	115.2	313.7	899.1	2000	241.7	12.87	3.168	3.056	2.951	2.746	2.812	3.406	3.642	3.738	3.611	3.820	4.060	4.210	4.293	4.196	4.215	4.266	4.452	4.215	4.087	3.950	3.908	3.846	3.891	3.704	3.645	3.481	3.653	3.475	3.468	3.440	3.390
440.0	1456	804.9	817.8	860.1	885.8	891.4	890.6	856.3	838.3	807.0	775.2	726.8	677.5	613.0	559.1	504.6	476.6	456.2	439.8	426.7	417.1	409.6	406.2	397.8	381.0	364.1	344.7	324.9	301.9	277.8	244.6	216.0	203.6	158.2	108.5	81.81	63.32	47.54	35.99	30.28	41.13	81.40	235.6	1318	1859	201.1	6.341	3.219	3.180	2.633	2.832	3.177	3.439	3.586	3.723	3.611	4.084	4.147	4.111	3.923	4.036	4.176	4.181	4.330	4.077	3.762	3.919	3.588	3.688	3.496	3.527	3.507	3.429	3.496	3.502	3.456	3.332
445.0	1648	1084	777.8	819.2	851.6	862.5	864.4	843.9	826.6	788.0	761.3	707.9	652.5	592.9	537.0	481.0	447.7	436.5	419.9	405.4	397.9	388.5	383.7	379.8	368.1	354.9	337.9	318.6	297.3	275.0	243.3	209.5	192.2	172.8	123.3	88.77	69.13	52.31	39.95	30.73	27.23	32.20	63.07	369.5	1585	1624	28.92	4.293	3.145	2.747	2.710	3.199	3.307	3.497	3.456	3.614	4.068	4.002	4.233	4.183	3.679	4.050	3.917	4.075	3.766	3.711	3.571	3.581	3.589	3.250	3.477	3.343	3.283	3.191	3.248	3.263	3.351
450.0	1118	1780	900.4	782.7	800.1	809.1	816.3	807.0	783.7	749.3	726.5	671.0	623.7	555.0	499.3	448.0	420.9	404.6	389.6	374.2	367.4	360.8	356.2	353.2	343.8	333.2	317.7	305.4	288.9	265.5	237.0	206.1	178.7	164.9	140.9	103.9	74.63	57.95	45.14	35.02	27.65	23.80	26.49	92.17	435.7	1237	1460	445.3	10.15	3.042	2.879	3.287	3.237	3.466	3.429	3.375	3.827	3.938	3.686	3.948	3.703	3.685	3.799	3.785	3.782	3.602	3.548	3.529	3.458	3.250	3.107	3.327	3.241	3.020	3.002	2.966	3.131
455.0	638.2	1877	1497	734.4	732.1	751.2	762.3	753.3	738.6	712.7	678.6	629.8	577.9	515.5	460.3	407.1	383.6	365.1	354.0	339.4	332.4	329.5	324.5	321.4	312.2	308.0	296.9	283.5	272.6	252.8	229.2	202.4	170.5	149.8	139.5	121.2	85.53	62.96	49.66	40.04	31.35	24.86	20.77	32.17	106.1	290.1	785.7	1680	198.5	11.04	3.199	3.482	3.083	3.224	3.055	3.337	3.633	3.592	3.632	3.755	3.602	3.713	3.492	3.500	3.669	3.524	3.196	3.258	3.265	3.159	2.971	2.998	3.048	2.761	2.784	2.909	2.856
460.0	456.3	1360	2148	800.9	682.0	701.6	708.6	707.3	694.2	669.7	638.1	597.4	538.3	488.0	430.7	381.3	356.5	339.2	325.8	315.7	308.4	303.9	298.3	299.0	294.9	289.2	275.4	265.9	256.0	240.5	222.3	194.8	166.8	143.2	127.1	122.8	96.35	68.27	52.90	42.51	33.49	26.88	21.39	19.78	33.68	72.98	201.5	1056	1475	156.4	6.562	3.489	3.213	3.107	3.171	3.181	3.297	3.336	3.510	3.240	3.254	3.459	3.155	3.590	3.218	3.364	3.178	3.102	3.118	2.835	2.825	2.894	2.833	2.750	2.575	2.668	2.624
465.0	422.0	857.0	2393	1172	652.2	651.6	665.5	662.8	649.8	643.6	611.6	562.2	503.1	455.7	402.7	359.4	332.8	318.1	299.7	291.1	289.6	279.8	277.0	276.9	272.1	266.7	254.8	249.5	241.5	230.8	211.4	187.5	160.7	137.0	120.0	112.3	103.3	74.70	55.60	44.89	35.12	27.83	22.84	18.45	18.84	25.23	53.01	290.5	1251	1230	125.0	4.508	3.400	3.019	3.005	3.033	3.182	3.229	3.364	3.007	3.290	3.447	3.077	3.191	2.997	3.186	2.858	2.952	2.883	2.762	2.634	2.883	2.956	2.790	2.560	2.624	2.570
470.0	388.9	540.3	1633	2053	736.3	602.1	605.9	604.7	592.4	583.6	553.0	515.5	459.4	413.7	364.1	325.6	297.7	283.4	270.5	260.8	256.3	252.1	248.3	249.8	243.2	239.5	232.6	227.6	219.2	211.0	194.7	175.3	153.5	131.0	112.5	99.22	95.51	83.00	61.44	46.54	36.92	30.30	24.23	19.53	17.08	15.91	20.23	71.73	341.1	904.0	1060	368.8	10.58	3.067	3.035	2.902	2.934	3.065	2.979	2.991	3.085	3.091	2.854	2.948	2.779	2.926	2.758	2.726	2.652	2.642	2.533	2.542	2.599	2.444	2.207	2.315	2.377
475.0	373.8	431.8	799.4	2242	1368	552.2	539.4	545.9	538.8	524.6	498.6	466.2	415.8	371.7	323.7	288.6	267.2	250.2	239.9	232.8	227.1	222.9	219.7	218.7	214.4	211.0	208.0	202.4	198.6	191.4	176.8	160.1	140.7	121.9	105.3	91.74	81.41	79.18	69.44	49.98	38.16	31.87	26.00	21.17	17.75	14.63	13.65	23.32	82.33	210.1	505.0	1152	200.5	12.34	3.010	2.649	2.628	2.904	2.813	2.774	2.895	2.681	2.541	2.728	2.687	2.500	2.425	2.554	2.336	2.355	2.452	2.138	2.335	2.097	2.027	1.927	2.143
480.0	359.5	379.1	510.7	1607	2138	610.3	503.2	508.4	504.9	489.6	468.4	437.8	390.9	344.0	302.4	268.0	244.9	228.0	220.9	210.5	208.6	204.3	200.9	198.3	196.5	193.1	190.4	187.9	182.8	176.1	165.5	151.2	130.1	114.4	100.0	88.68	76.40	71.21	69.84	54.98	39.66	31.85	26.68	21.71	18.39	15.42	13.01	13.48	25.08	52.43	125.9	640.3	1080	181.2	6.503	2.698	2.746	2.726	2.777	2.753	2.579	2.784	2.708	2.689	2.653	2.310	2.359	2.410	2.170	2.217	2.306	1.960	2.033	2.001	1.921	2.058	2.016
485.0	327.7	398.6	430.8	897.8	2473	973.8	469.6	481.9	471.9	452.5	437.7	408.0	363.1	322.8	282.2	248.1	226.5	211.6	203.8	195.9	192.6	187.8	183.4	182.5	183.5	180.3	176.2	173.5	168.4	166.0	154.8	144.1	124.8	109.6	96.02	84.58	73.87	66.39	64.83	57.99	44.49	33.19	27.39	22.84	19.09	17.11	13.56	11.47	12.58	17.40	32.95	172.1	824.0	995.6	28.61	3.879	2.920	2.727	2.478	2.583	2.468	2.527	2.614	2.520	2.386	2.468	2.261	2.212	2.065	2.211	2.259	1.873	1.922	1.791	1.838	1.787	1.957
490.0	277.8	408.5	383.8	508.0	1713	1945	554.4	437.1	431.2	417.9	411.9	375.8	334.6	296.9	259.0	226.8	207.4	194.6	183.5	178.5	173.7	169.7	167.1	166.3	165.9	163.3	160.0	157.4	153.9	153.1	143.7	132.8	116.8	103.3	91.25	80.02	70.49	62.19	56.21	55.90	50.04	37.08	27.92	23.03	20.52	17.45	14.62	12.19	10.62	10.11	12.54	43.00	217.5	633.9	865.5	352.9	11.74	2.804	2.516	2.490	2.428	2.498	2.289	2.359	2.386	2.177	2.138	2.077	2.024	2.001	1.822	1.798	1.843	1.804	1.652	1.705	1.736
495.0	231.2	376.7	394.2	380.9	763.7	2263	1142	399.0	390.0	380.7	371.4	342.8	303.5	267.4	228.9	202.9	186.7	175.8	165.5	160.2	153.1	150.3	148.1	148.7	144.2	145.5	142.6	141.7	139.5	136.6	131.1	119.1	105.8	95.15	84.32	74.94	66.76	57.76	50.89	47.77	47.75	42.21	30.07	24.10	21.19	18.00	15.28	12.95	10.76	9.048	8.331	14.37	52.40	146.8	423.9	1059	228.7	14.44	2.656	2.289	2.326	2.235	2.045	2.114	2.222	1.944	2.011	1.861	1.855	1.837	1.642	1.722	1.708	1.702	1.545	1.577	1.653
500.0	209.7	302.4	381.1	335.2	435.1	1662	1950	446.8	361.7	357.7	343.0	312.8	282.2	248.2	213.8	188.0	172.7	159.1	153.5	144.7	139.5	138.0	135.2	135.8	133.4	132.3	129.5	127.3	128.3	126.5	119.8	109.5	99.04	87.65	78.40	70.27	62.14	54.44	48.25	42.83	42.38	42.93	33.62	25.08	20.91	18.48	15.34	13.25	11.38	8.935	7.697	8.217	15.90	36.38	104.5	558.9	1035	200.0	7.353	2.588	2.192	2.101	2.006	2.061	2.233	1.910	1.815	1.761	1.652	1.733	1.620	1.751	1.567	1.521	1.501	1.485	1.390
505.0	192.0	242.4	376.3	330.5	324.9	892.0	2441	735.3	326.4	332.4	315.1	292.3	260.0	231.5	197.9	170.1	156.4	145.7	139.6	132.2	126.4	125.6	124.0	123.5	121.2	121.0	118.6	118.0	115.8	114.5	109.7	99.60	93.13	82.54	73.36	65.56	59.42	51.65	45.69	41.02	37.17	38.82	36.93	27.17	20.59	18.00	15.40	12.76	11.77	9.699	7.752	6.953	7.967	11.82	26.93	145.1	703.3	936.7	31.52	3.839	2.109	2.014	1.923	1.850	1.981	1.910	1.795	1.673	1.616	1.614	1.390	1.561	1.360	1.434	1.313	1.370	1.342
510.0	166.6	215.9	308.4	324.0	281.1	423.8	1754	1772	386.1	292.7	278.4	257.7	230.9	205.3	174.2	151.6	139.0	129.8	121.6	115.4	111.7	110.6	108.8	107.2	107.3	105.7	104.6	102.8	102.3	101.4	97.35	89.22	82.88	74.49	65.57	59.36	53.49	47.75	42.43	38.25	33.95	31.99	33.14	30.03	22.22	17.95	15.29	13.26	11.43	9.739	8.180	7.110	6.290	6.679	9.429	35.66	180.2	539.2	712.7	296.0	11.98	2.143	1.956	1.693	1.754	1.744	1.587	1.458	1.456	1.499	1.294	1.401	1.279	1.353	1.171	1.312	1.275
515.0	147.6	185.0	231.7	314.8	271.1	274.5	701.5	2333	914.3	257.9	244.0	226.2	198.4	178.8	151.4	131.3	120.1	111.8	106.0	100.4	96.77	93.48	93.66	92.79	91.13	90.02	89.72	88.93	88.65	86.52	84.07	77.90	71.83	64.41	57.78	52.71	47.04	42.30	38.10	34.59	31.14	27.39	26.95	28.52	25.09	18.48	14.94	12.56	10.95	9.439	8.172	7.499	6.038	5.648	5.522	11.10	42.99	123.6	289.9	775.7	233.0	15.34	2.144	1.649	1.715	1.470	1.403	1.316	1.279	1.275	1.341	1.281	1.304	1.160	1.122	1.174	1.093
520.0	136.5	158.5	190.5	271.1	270.9	228.9	338.2	1727	1830	283.7	221.9	202.2	181.3	161.0	137.9	117.8	107.5	100.4	95.41	90.06	86.23	84.87	83.92	82.71	80.97	79.81	78.50	79.97	79.50	78.21	75.47	70.81	64.06	58.43	51.74	47.74	42.75	39.50	35.37	31.91	28.48	25.44	23.40	24.49	25.38	19.87	15.11	12.46	10.65	9.341	8.355	7.550	5.895	5.362	4.709	5.786	12.78	30.04	69.98	366.0	753.3	204.8	9.180	1.656	1.390	1.344	1.247	1.285	1.249	1.260	1.239	1.179	1.057	1.050	0.987	1.055	1.059
525.0	122.0	149.4	175.9	218.8	272.3	215.4	238.2	861.5	2494	588.4	202.4	184.7	165.3	141.3	123.9	108.5	98.88	91.27	87.53	82.23	79.10	76.32	75.16	73.56	72.58	72.61	70.59	70.57	71.31	70.09	68.20	64.19	56.78	52.99	48.06	43.15	38.72	36.58	32.46	29.39	26.00	23.75	21.17	20.98	22.80	21.32	16.00	12.29	10.27	9.063	7.973	7.237	6.329	5.624	4.379	4.375	5.705	9.403	18.11	90.89	436.1	692.0	160.1	3.737	1.534	1.317	1.247	1.175	1.156	1.222	1.041	0.957	0.997	1.044	1.075	0.956	0.936
530.0	108.1	137.3	151.8	169.6	247.8	212.1	192.5	351.4	1770	1670	227.0	163.1	144.9	124.1	108.4	93.75	85.75	80.31	75.13	69.93	69.06	66.34	64.22	64.19	63.09	62.21	62.06	60.58	61.14	60.32	58.82	54.78	50.66	46.03	42.25	38.70	34.92	32.13	29.29	26.34	23.75	21.60	19.38	18.09	18.02	19.26	17.22	12.45	10.05	8.379	7.602	6.496	5.909	5.651	4.715	4.186	4.099	4.746	6.484	22.40	107.7	339.3	519.5	240.5	12.73	1.387	1.222	1.191	1.072	1.108	0.999	0.952	0.946	1.035	0.942	0.932	0.895
535.0	101.2	122.6	121.3	140.8	185.3	222.0	167.3	195.7	632.6	2349	818.7	141.7	122.2	108.4	91.57	81.15	72.78	69.86	65.36	60.39	58.76	55.62	55.13	54.49	53.30	52.42	51.60	51.65	52.82	51.64	49.60	47.56	43.95	39.86	35.31	33.27	30.08	27.85	25.27	23.22	21.03	19.00	17.40	15.34	15.02	15.49	16.65	13.80	9.922	8.210	7.003	6.308	5.487	5.066	4.996	4.484	3.610	3.463	3.582	7.012	25.90	77.79	173.9	506.3	236.4	17.47	1.284	1.043	1.034	1.008	1.029	1.055	0.890	0.906	0.807	0.975	0.832
540.0	88.07	105.1	118.5	116.6	147.5	216.0	158.1	151.6	258.9	1631	1709	174.4	110.9	95.71	83.20	72.76	63.50	60.21	58.67	54.19	50.39	50.45	48.36	47.48	47.17	45.62	46.02	44.69	44.94	46.24	43.49	41.20	37.58	35.34	31.40	28.97	27.49	24.72	22.67	21.00	18.86	17.31	15.87	14.12	13.47	12.90	13.87	14.37	10.66	8.050	6.673	5.994	5.250	4.677	4.590	4.405	3.629	3.325	2.960	3.526	7.541	19.09	41.32	205.1	515.7	205.5	10.42	1.168	1.002	0.883	0.937	0.981	0.862	0.837	0.664	0.850	0.821
545.0	79.66	90.70	113.1	109.0	121.4	190.7	176.8	128.6	152.5	696.5	2414	424.9	97.46	86.02	71.46	65.62	55.66	53.51	51.20	46.54	44.11	44.50	43.35	40.93	41.40	40.38	39.86	39.13	39.32	40.03	39.17	37.07	33.19	30.93	28.12	25.88	24.63	22.24	20.17	18.30	17.07	15.35	14.40	13.41	11.99	11.45	11.12	12.76	11.19	8.400	6.122	5.497	5.236	4.265	4.248	4.063	3.803	3.064	2.769	2.640	3.543	5.825	10.67	49.24	245.7	487.9	156.1	4.329	1.096	0.952	0.921	0.865	0.811	0.725	0.705	0.645	0.793
550.0	69.58	81.28	90.72	91.27	98.40	132.3	180.5	119.9	113.7	246.5	1536	1496	128.6	72.48	61.40	54.83	47.75	43.60	41.19	38.69	37.92	37.20	35.89	34.78	34.51	33.59	33.52	33.47	32.96	33.48	32.57	30.52	28.38	25.45	23.58	21.83	20.71	18.70	17.01	15.75	14.57	13.07	12.20	11.37	10.47	9.557	9.151	9.646	10.08	8.638	6.296	4.996	4.419	3.945	3.589	3.472	3.557	3.162	2.679	2.274	2.395	2.759	3.794	12.24	58.60	201.1	339.5	141.1	14.15	1.098	0.972	0.814	0.692	0.713	0.647	0.621	0.722
555.0	71.28	73.33	74.06	76.61	79.24	92.50	144.9	134.2	92.83	123.1	480.0	2041	570.1	63.88	49.55	45.26	39.93	35.14	33.55	31.48	31.50	30.55	29.11	28.54	27.29	26.45	26.99	26.58	27.09	27.01	25.96	24.27	22.85	20.55	18.75	18.09	16.97	15.23	14.09	13.20	12.20	10.84	10.32	9.623	8.995	8.357	7.291	6.901	7.345	8.035	6.707	4.695	3.696	3.552	3.152	3.036	2.976	2.938	2.974	2.159	2.010	2.107	2.056	3.918	14.15	46.04	98.70	283.2	227.0	18.46	1.007	0.731	0.768	0.702	0.672	0.592	0.509
560.0	75.68	69.77	70.02	71.95	66.10	74.88	112.0	142.0	85.47	87.21	169.2	1325	1308	85.91	44.13	37.43	33.78	30.28	28.05	26.38	26.53	25.57	24.40	23.65	23.83	22.55	22.33	22.24	22.44	22.81	22.14	20.77	19.34	17.45	16.45	15.20	14.55	12.99	12.15	11.20	10.15	9.049	8.928	8.148	7.407	7.121	6.454	5.885	5.817	6.326	6.457	5.148	3.541	3.391	2.911	2.633	2.691	2.588	2.870	2.422	1.853	1.676	1.616	2.074	4.225	11.22	23.18	100.6	309.4	182.5	10.84	0.776	0.699	0.729	0.518	0.546	0.521
565.0	76.62	77.12	73.39	66.02	59.48	58.25	80.04	143.8	89.81	74.31	91.69	515.5	1923	154.6	37.92	32.28	28.72	25.52	25.16	22.24	22.15	21.87	20.26	20.02	20.25	19.69	19.32	19.05	18.76	18.98	18.91	16.90	16.24	14.77	14.46	12.79	12.60	10.91	10.22	9.226	8.774	8.141	7.794	6.896	6.468	6.167	6.004	5.228	4.924	5.030	5.293	5.149	3.547	2.972	2.469	2.327	2.272	2.094	2.319	2.436	1.935	1.641	1.419	1.496	1.948	3.438	6.094	23.94	123.2	294.6	120.6	4.258	0.650	0.657	0.535	0.576	0.565
570.0	79.35	76.27	68.62	58.51	52.41	50.12	58.72	107.3	110.7	65.25	67.63	166.1	1204	1082	68.54	26.53	24.42	21.44	20.35	19.00	17.87	17.36	16.81	16.38	15.93	16.23	15.43	15.16	15.38	15.61	15.34	13.92	13.21	11.89	11.57	10.35	9.937	9.095	8.571	7.931	7.429	6.643	6.430	5.814	5.542	5.038	4.866	4.373	3.931	3.773	3.811	4.552	3.808	2.802	2.370	2.111	2.099	1.886	1.856	1.958	1.993	1.570	1.283	1.368	1.443	1.632	2.294	6.218	28.94	106.9	195.1	115.6	13.57	0.779	0.555	0.564	0.531
575.0	63.37	71.07	63.49	51.70	43.62	43.31	45.11	68.74	123.2	71.45	57.52	79.15	356.5	1496	398.9	22.65	20.14	17.38	15.94	15.39	14.22	14.03	13.18	12.98	12.80	13.02	12.37	12.38	12.09	12.62	11.62	10.90	10.65	9.470	8.982	8.292	7.929	7.142	6.827	6.582	5.785	5.462	5.383	4.809	4.870	4.362	3.951	3.766	3.296	3.127	2.815	3.254	3.480	3.055	2.111	1.871	1.736	1.572	1.704	1.495	1.610	1.752	1.445	1.225	1.282	1.166	1.335	2.180	7.219	24.72	52.28	153.3	158.4	16.88	0.679	0.488	0.496
580.0	65.81	76.64	65.35	50.55	41.08	38.17	40.16	50.59	107.3	90.52	56.69	58.60	116.1	961.9	944.5	37.71	17.08	14.64	13.75	13.42	12.19	11.44	11.38	10.77	11.04	11.11	10.34	11.07	10.39	10.77	9.746	9.354	8.981	8.333	7.850	7.098	6.764	6.195	5.668	5.562	5.122	4.844	4.360	4.484	4.016	3.767	3.512	3.160	2.862	2.845	2.423	2.351	3.057	2.991	2.317	1.801	1.656	1.493	1.511	1.360	1.316	1.554	1.585	1.290	1.193	0.980	1.083	1.272	2.335	6.159	12.42	50.57	177.0	117.5	8.500	0.485	0.470
585.0	69.99	77.52	60.37	47.07	36.79	35.94	37.12	42.45	77.77	105.7	56.65	51.83	57.42	364.6	1367	101.8	14.76	13.29	12.78	11.08	10.67	9.844	9.603	9.376	9.554	9.298	8.979	8.872	8.727	8.870	8.688	8.161	7.951	7.361	6.887	6.145	5.719	5.461	4.590	4.634	4.418	4.360	3.924	3.775	3.446	3.254	3.084	2.927	2.545	2.465	2.047	2.113	2.358	2.859	2.441	1.851	1.561	1.375	1.376	1.407	1.354	1.307	1.647	1.324	1.187	0.944	1.036	0.997	1.251	2.029	3.512	12.08	66.97	174.9	35.63	3.148	0.502
590.0	67.11	74.54	63.95	47.73	34.85	33.52	34.26	36.77	52.82	104.0	70.94	49.60	45.20	111.9	838.6	649.9	30.40	11.67	10.14	9.385	8.822	8.320	8.272	7.967	7.810	7.615	7.252	7.382	7.312	7.211	7.107	6.758	6.405	5.951	5.447	4.995	4.717	4.473	4.160	3.925	3.730	3.582	3.193	3.012	2.788	2.761	2.597	2.406	2.069	2.017	1.788	1.745	1.740	2.103	2.237	2.030	1.465	1.324	1.129	1.210	1.098	1.057	1.262	1.340	1.178	1.019	0.948	1.052	0.976	1.114	1.435	3.231	15.81	61.27	106.7	74.22	11.18
595.0	62.77	72.82	64.08	45.66	36.06	29.72	31.19	33.40	41.30	74.58	96.53	51.19	42.48	48.36	239.2	962.2	200.7	10.18	8.963	7.809	7.167	7.058	7.228	6.698	6.102	6.237	5.952	5.708	6.042	5.969	5.680	5.439	5.113	4.827	4.525	4.322	3.847	3.603	3.448	3.150	3.176	2.777	2.751	2.565	2.392	2.255	2.143	2.042	1.831	1.660	1.455	1.387	1.538	1.409	1.983	1.981	1.585	1.280	1.083	0.970	1.035	0.944	0.938	0.985	1.226	1.279	0.892	0.919	0.834	0.923	0.820	1.269	3.985	14.15	28.71	88.05	96.59
600.0	61.45	76.62	58.86	44.42	36.17	30.54	28.69	32.42	38.88	58.69	104.6	60.73	45.68	36.69	75.21	649.5	552.4	16.73	7.570	6.627	6.072	5.907	6.133	5.580	5.323	5.248	5.074	5.085	5.199	4.856	4.692	4.568	4.146	4.279	3.926	3.515	3.245	2.923	3.051	2.946	2.633	2.350	2.378	2.360	2.080	2.134	1.883	1.879	1.668	1.538	1.392	1.151	1.275	1.149	1.508	1.665	1.600	1.285	0.948	0.824	0.935	0.805	0.903	0.910	1.072	1.253	0.962	0.746	0.733	0.852	0.674	0.882	1.405	3.610	6.835	28.54	104.0
605.0	64.28	73.59	62.94	41.67	35.05	31.48	34.30	34.62	44.04	55.28	101.1	81.89	53.43	38.80	39.00	255.8	832.3	64.45	7.542	6.274	5.166	5.387	5.015	4.732	4.619	4.569	4.159	4.292	4.423	4.096	4.039	4.251	3.780	3.549	3.282	3.135	2.862	2.738	2.524	2.558	2.090	2.028	1.950	1.939	1.818	1.640	1.750	1.679	1.532	1.355	1.187	1.128	1.128	1.072	1.136	1.400	1.447	1.473	1.006	0.825	0.960	0.871	0.824	0.744	0.791	1.185	1.210	0.810	0.792	0.802	0.640	0.785	0.799	1.326	1.948	7.051	38.88
610.0	62.96	72.36	61.26	44.43	34.99	33.27	36.06	42.08	52.75	66.23	93.69	115.4	71.54	49.00	41.00	83.83	568.7	414.2	15.17	5.256	4.631	4.448	3.981	4.040	3.945	3.887	3.824	3.709	3.482	3.542	3.379	3.451	3.089	2.982	2.701	2.522	2.406	2.354	2.126	1.893	1.767	1.808	1.585	1.692	1.530	1.373	1.390	1.472	1.263	1.127	1.057	1.081	0.955	0.905	0.905	1.018	1.205	1.358	1.082	0.850	0.849	0.905	0.829	0.851	0.901	1.040	1.133	1.020	0.919	0.815	0.668	0.773	0.676	0.756	0.943	2.078	9.287
615.0	58.54	69.56	56.32	49.30	35.36	32.09	38.03	46.49	54.51	67.87	87.80	120.3	90.24	56.34	44.95	42.27	181.3	647.9	72.15	4.920	4.055	3.713	3.581	3.288	3.375	3.321	3.109	3.240	3.183	2.818	2.753	2.890	2.391	2.481	2.343	2.019	2.071	1.871	1.946	1.733	1.489	1.563	1.286	1.398	1.264	1.258	1.177	1.210	1.151	0.882	0.892	0.859	0.813	0.818	0.779	0.953	0.784	1.139	1.087	0.974	0.769	0.860	0.851	0.770	0.886	0.855	0.896	0.936	0.975	0.782	0.628	0.696	0.774	0.679	0.693	0.848	2.571
620.0	71.04	71.38	59.74	47.09	36.56	34.91	38.78	47.02	55.29	63.60	78.00	106.1	99.14	57.11	44.46	33.39	64.40	475.3	334.1	7.590	3.679	3.185	3.311	3.020	3.254	2.628	2.747	2.638	2.657	2.492	2.573	2.528	2.295	2.197	1.997	1.749	1.936	1.517	1.597	1.466	1.320	1.313	1.224	1.259	1.164	1.094	1.019	1.114	0.971	0.792	0.829	0.794	0.799	0.864	0.707	0.753	0.756	0.892	1.101	0.983	0.766	0.663	0.728	0.810	0.775	0.796	0.810	0.925	1.103	0.976	0.610	0.605	0.679	0.671	0.662	0.693	0.956
625.0	61.57	65.75	57.28	43.97	34.25	32.86	36.74	42.02	52.44	63.96	72.38	93.33	106.0	60.58	44.06	30.63	33.78	202.8	559.8	34.88	3.141	2.933	2.891	2.680	2.863	2.457	2.343	2.325	2.232	2.344	2.153	1.979	1.851	1.813	1.672	1.549	1.510	1.304	1.188	1.315	1.145	1.063	1.064	1.078	0.965	1.133	0.838	0.910	0.901	0.698	0.727	0.732	0.668	0.622	0.727	0.708	0.720	0.692	0.873	0.984	0.950	0.749	0.661	0.673	0.720	0.709	0.770	0.895	0.852	1.004	0.742	0.657	0.605	0.572	0.598	0.561	0.590
630.0	64.08	66.94	57.69	40.41	34.88	34.43	36.97	44.43	48.92	60.83	70.50	82.42	96.22	71.07	46.00	30.80	27.96	62.05	415.0	260.6	6.623	2.848	2.252	2.291	2.085	2.055	1.975	1.750	1.882	2.002	1.830	1.698	1.590	1.646	1.363	1.315	1.319	1.300	1.078	1.025	0.992	0.987	0.962	0.916	0.923	0.907	0.800	0.874	0.744	0.665	0.627	0.649	0.606	0.608	0.626	0.659	0.657	0.628	0.676	0.847	0.855	0.789	0.668	0.652	0.732	0.743	0.745	0.819	0.753	0.859	0.848	0.740	0.634	0.640	0.610	0.514	0.515
635.0	61.72	68.51	57.03	41.14	36.36	34.75	37.71	41.69	47.13	59.51	69.33	77.33	81.22	82.01	50.03	32.28	26.63	25.60	127.8	467.3	51.22	2.440	2.165	1.997	1.818	1.710	1.680	1.733	1.624	1.605	1.551	1.371	1.413	1.309	1.170	1.137	1.177	1.117	1.047	0.955	0.854	0.847	0.876	0.812	0.744	0.844	0.747	0.715	0.704	0.575	0.547	0.576	0.540	0.589	0.541	0.587	0.585	0.656	0.638	0.795	0.777	0.808	0.711	0.652	0.702	0.713	0.761	0.738	0.710	0.661	0.808	0.859	0.686	0.587	0.633	0.578	0.480
640.0	64.66	63.83	59.40	44.18	32.83	33.71	34.52	40.03	46.19	56.57	68.73	74.07	73.83	83.63	54.08	32.17	27.51	17.39	36.05	374.8	212.2	3.453	2.191	1.727	1.535	1.507	1.594	1.411	1.382	1.452	1.387	1.148	1.290	1.012	1.058	1.090	1.040	0.971	0.877	0.846	0.829	0.870	0.787	0.739	0.776	0.724	0.672	0.665	0.653	0.502	0.551	0.572	0.572	0.545	0.526	0.517	0.524	0.654	0.561	0.630	0.690	0.826	0.686	0.579	0.691	0.690	0.657	0.661	0.674	0.674	0.709	0.867	0.695	0.632	0.492	0.516	0.501
645.0	65.33	71.19	61.00	42.93	33.98	32.09	34.57	43.72	45.62	56.51	64.70	70.62	68.06	74.43	60.44	32.64	26.60	16.51	14.12	171.0	385.4	17.22	1.958	1.656	1.471	1.470	1.319	1.287	1.366	1.185	1.253	1.102	1.139	1.008	0.902	0.917	0.937	0.871	0.802	0.792	0.745	0.818	0.682	0.588	0.707	0.620	0.708	0.643	0.564	0.491	0.482	0.543	0.499	0.459	0.528	0.529	0.607	0.526	0.556	0.541	0.739	0.751	0.753	0.688	0.675	0.736	0.682	0.662	0.775	0.649	0.692	0.778	0.824	0.805	0.538	0.576	0.563
650.0	64.30	64.85	59.39	41.21	33.79	29.93	31.85	38.52	42.66	50.81	63.09	66.91	66.64	64.14	63.21	33.71	25.69	15.69	9.280	51.98	404.0	62.22	1.954	1.766	1.336	1.321	1.215	1.238	1.318	1.102	1.005	0.917	0.975	0.946	0.879	0.898	0.837	0.794	0.696	0.736	0.628	0.656	0.655	0.610	0.593	0.596	0.594	0.557	0.525	0.544	0.456	0.506	0.475	0.478	0.466	0.577	0.593	0.534	0.482	0.544	0.607	0.621	0.674	0.669	0.597	0.669	0.605	0.618	0.665	0.673	0.715	0.719	0.815	0.873	0.518	0.565	0.516
