Sample:	'1
File name:	Default_20240316_162410.FD3
Run date:	'16:17:49, 03/16/2024
Operator:	dsjg
Comment:	'

Instrument
Model:	F-2700 FL Spectrophotometer
Serial number:	2198-001
ROM Version:	4J14000 07

Instrument parameters
Measurement type:	3-D scan
Data mode:	Fluorescence
EX  Start WL:	220.0 nm
EX  End WL:	600.0 nm
EX Sampling interval:	5.0 nm
EM  Start WL:	230.0 nm
EM  End WL:	650.0 nm
EM Sampling interval:	5.0 nm
Scan speed:	12000 nm/min
EX Slit:	5.0 nm
EM Slit:	5.0 nm
PMT Voltage:	700 V
Response:	Auto 
Corrected spectra:	Off
Contour interval:	50.000

Peak integration
Integration method:	Rectangular
Sensitivity:	1
Threshold:	1.000

Peaks
No.	ApexEX/EM(nm)	Height(Data)
1	225.0/580.0	43.54
2	225.0/610.0	33.41
3	225.0/620.0	25.12
4	230.0/305.0	474.0
5	230.0/595.0	38.81
6	235.0/375.0	231.5
7	235.0/515.0	107.6
8	240.0/525.0	96.12
9	245.0/540.0	80.47
10	250.0/420.0	274.3
11	250.0/545.0	73.85
12	255.0/280.0	197.4
13	255.0/555.0	55.08
14	260.0/285.0	222.8
15	260.0/405.0	275.9
16	260.0/445.0	275.2
17	260.0/570.0	46.43
18	265.0/420.0	284.1
19	265.0/580.0	48.22
20	270.0/385.0	270.8
21	270.0/400.0	278.9
22	270.0/435.0	280.2
23	270.0/590.0	41.66
24	275.0/305.0	522.1
25	275.0/405.0	274.3
26	275.0/605.0	36.86
27	280.0/310.0	453.8
28	280.0/615.0	30.92
29	285.0/630.0	19.66
30	300.0/335.0	188.7
31	305.0/340.0	196.4
32	310.0/350.0	168.1
33	315.0/355.0	166.9
34	320.0/360.0	188.4
35	325.0/365.0	174.5
36	330.0/375.0	173.9
37	335.0/380.0	189.8
38	340.0/385.0	187.9
39	345.0/395.0	171.8
40	350.0/400.0	182.1
41	355.0/405.0	181.7
42	365.0/420.0	164.8
43	370.0/425.0	154.3
44	380.0/440.0	119.5
45	385.0/445.0	109.6
46	415.0/485.0	45.69
47	420.0/490.0	39.61
48	425.0/495.0	35.67
49	430.0/505.0	31.29
50	435.0/510.0	26.93
51	440.0/515.0	24.11
52	445.0/525.0	21.25

Data points
	220.0	225.0	230.0	235.0	240.0	245.0	250.0	255.0	260.0	265.0	270.0	275.0	280.0	285.0	290.0	295.0	300.0	305.0	310.0	315.0	320.0	325.0	330.0	335.0	340.0	345.0	350.0	355.0	360.0	365.0	370.0	375.0	380.0	385.0	390.0	395.0	400.0	405.0	410.0	415.0	420.0	425.0	430.0	435.0	440.0	445.0	450.0	455.0	460.0	465.0	470.0	475.0	480.0	485.0	490.0	495.0	500.0	505.0	510.0	515.0	520.0	525.0	530.0	535.0	540.0	545.0	550.0	555.0	560.0	565.0	570.0	575.0	580.0	585.0	590.0	595.0	600.0
230.0	17.79	482.2	 1514	534.6	15.90	3.324	3.831	2.998	2.717	1.817	1.818	1.443	1.566	1.009	0.636	0.676	0.604	0.688	0.761	0.612	0.495	0.596	0.381	0.476	0.478	0.437	0.405	0.521	0.347	0.335	0.446	0.376	0.318	0.339	0.393	0.452	0.582	0.501	0.511	0.492	0.443	0.413	0.383	0.376	0.329	0.354	0.314	0.957	2.927	3.969	2.294	0.632	0.249	0.247	0.184	0.187	0.183	0.209	0.190	0.151	0.124	0.133	0.128	0.086	0.076	0.138	0.141	0.144	0.097	0.086	0.099	0.068	0.093	0.073	0.092	0.107	0.099
235.0	23.75	141.5	977.4	 1892	686.3	23.81	2.601	2.718	3.334	2.325	1.275	0.922	1.390	1.250	0.679	0.905	0.549	0.925	0.699	0.381	0.632	0.680	0.291	0.524	0.576	0.609	0.431	0.526	0.401	0.468	0.366	0.333	0.340	0.416	0.251	0.539	0.488	0.490	0.498	0.607	0.344	0.353	0.315	0.439	0.393	0.355	0.422	0.480	1.000	2.151	3.734	5.195	3.984	1.247	0.276	0.216	0.068	0.225	0.162	0.178	0.201	0.127	0.093	0.186	0.084	0.197	-0.016	0.082	0.051	0.179	0.086	0.205	0.153	0.057	0.066	0.152	0.039
240.0	34.66	51.78	307.5	 1579	 2238	519.3	12.33	3.770	3.314	3.104	1.794	1.592	1.380	1.106	1.131	0.701	0.618	0.652	0.669	0.668	0.604	0.539	0.531	0.621	0.579	0.521	0.617	0.525	0.245	0.307	0.370	0.350	0.301	0.386	0.287	0.382	0.371	0.497	0.550	0.579	0.410	0.353	0.314	0.470	0.450	0.441	0.496	0.342	0.379	0.740	1.468	4.202	7.490	6.552	3.048	0.528	0.155	0.204	0.094	0.183	0.159	0.203	0.137	0.347	0.158	0.152	0.145	0.002	0.073	0.162	0.125	0.155	0.133	0.037	-0.021	0.096	0.155
245.0	34.75	75.28	90.42	556.7	 2227	 2255	364.2	7.208	3.921	3.211	2.554	3.003	1.234	1.525	1.409	0.728	0.419	0.716	0.704	0.538	0.598	0.556	0.630	0.578	0.487	0.424	0.543	0.487	0.232	0.377	0.413	0.376	0.461	0.305	0.401	0.467	0.306	0.400	0.428	0.653	0.536	0.401	0.332	0.368	0.338	0.348	0.467	0.402	0.270	0.375	0.560	1.409	3.901	7.438	9.630	6.448	2.243	0.408	0.129	0.255	0.220	0.179	0.085	0.153	0.223	0.222	0.168	0.074	0.069	0.131	0.102	0.164	0.151	0.012	0.007	0.052	0.054
250.0	21.19	69.25	107.1	159.4	725.2	 2046	 2493	995.9	61.22	4.481	3.355	2.826	1.685	1.979	1.230	0.728	0.951	0.606	0.784	0.673	0.769	0.490	0.666	0.514	0.522	0.332	0.408	0.590	0.363	0.415	0.395	0.370	0.308	0.365	0.440	0.331	0.313	0.299	0.348	0.526	0.459	0.525	0.397	0.375	0.384	0.289	0.316	0.481	0.500	0.445	0.487	0.539	1.149	2.316	4.501	7.160	9.638	8.924	5.534	1.956	0.326	0.221	0.202	0.216	0.162	0.174	0.144	0.138	0.073	0.074	0.134	0.043	0.140	0.106	0.073	0.141	0.120
255.0	12.19	20.90	78.14	141.9	200.1	516.6	 1735	 3448	518.0	59.96	4.907	3.757	2.443	2.171	1.870	1.314	0.732	0.411	0.636	0.905	0.708	0.604	0.511	0.586	0.460	0.473	0.465	0.684	0.436	0.359	0.427	0.242	0.391	0.321	0.327	0.297	0.343	0.165	0.284	0.339	0.597	0.537	0.452	0.478	0.511	0.335	0.327	0.329	0.381	0.378	0.563	0.697	0.662	0.728	1.175	1.779	3.095	6.516	12.42	14.34	8.311	2.085	0.214	0.225	0.218	0.109	0.141	0.095	0.100	0.103	0.178	0.102	0.082	0.124	0.043	0.104	0.069
260.0	12.29	10.32	34.16	121.4	151.3	138.3	517.0	 2534	 3585	440.0	26.06	5.035	3.334	1.891	1.520	1.100	0.997	0.830	0.733	0.740	0.878	0.655	0.539	0.406	0.555	0.335	0.616	0.506	0.491	0.303	0.334	0.443	0.583	0.392	0.457	0.294	0.308	0.294	0.269	0.267	0.364	0.439	0.533	0.562	0.429	0.396	0.326	0.301	0.279	0.283	0.352	0.671	0.821	0.538	0.659	0.529	0.860	1.769	4.855	11.02	17.25	14.56	6.095	1.042	0.145	0.201	0.179	0.079	0.104	0.132	0.165	0.141	0.012	0.064	0.102	0.136	0.021
265.0	9.398	11.69	15.06	61.16	157.2	113.2	130.5	819.9	 3277	 3384	347.8	11.36	3.914	3.154	1.797	0.918	1.091	1.091	1.389	0.654	0.914	0.495	0.695	0.464	0.560	0.624	0.480	0.589	0.599	0.533	0.370	0.576	0.398	0.276	0.374	0.192	0.407	0.230	0.256	0.243	0.351	0.338	0.458	0.441	0.435	0.433	0.425	0.349	0.317	0.288	0.377	0.363	0.697	0.783	0.809	0.466	0.395	0.558	1.199	3.229	8.422	16.63	18.88	12.37	3.444	0.426	0.119	0.135	0.126	0.075	0.160	0.187	0.032	0.105	0.143	0.151	0.027
270.0	19.71	18.83	23.70	26.14	74.55	145.7	120.3	209.2	976.1	 2722	 3389	 1371	90.92	4.490	2.871	1.634	1.600	1.267	1.139	0.874	0.908	0.799	0.758	0.724	0.646	0.666	0.456	0.584	0.603	0.397	0.518	0.522	0.370	0.338	0.362	0.310	0.321	0.245	0.303	0.323	0.277	0.206	0.315	0.451	0.435	0.566	0.490	0.434	0.398	0.379	0.284	0.328	0.426	0.491	0.635	0.806	0.683	0.556	0.447	0.935	2.132	4.718	8.492	13.28	16.23	14.39	9.023	3.103	0.489	0.113	0.237	0.123	0.077	0.168	0.038	0.076	0.020
275.0	37.76	50.43	54.88	27.15	24.18	67.88	164.9	158.5	244.3	668.7	 1946	 4402	 2027	104.4	4.565	2.602	2.028	1.646	1.293	1.208	0.997	0.734	0.889	0.936	0.587	0.790	0.687	0.554	0.735	0.523	0.555	0.423	0.472	0.360	0.395	0.304	0.344	0.349	0.278	0.308	0.284	0.210	0.288	0.294	0.381	0.592	0.513	0.539	0.527	0.454	0.261	0.248	0.377	0.337	0.294	0.532	0.591	0.979	0.949	0.557	0.748	1.302	2.168	3.122	5.019	9.720	17.58	20.98	12.98	3.290	0.294	0.067	0.170	0.138	0.084	0.087	0.089
280.0	64.18	91.99	87.03	43.22	21.18	28.48	104.2	197.4	150.8	187.6	556.4	 2635	 4661	 1572	48.73	4.193	2.862	1.910	1.515	1.286	1.016	0.743	0.941	0.764	0.537	0.776	0.665	0.714	0.613	0.512	0.591	0.571	0.492	0.411	0.462	0.400	0.250	0.412	0.350	0.309	0.307	0.245	0.284	0.216	0.403	0.502	0.639	0.642	0.519	0.582	0.370	0.402	0.317	0.495	0.377	0.319	0.376	0.717	0.882	0.934	0.758	0.713	0.804	0.935	1.346	2.621	6.508	14.72	22.47	20.37	9.343	1.384	0.187	0.145	0.115	0.186	0.163
285.0	105.4	154.9	159.0	84.21	35.15	28.96	57.00	166.4	222.8	137.5	199.5	832.2	 3220	 4449	 1122	13.18	4.209	2.777	1.818	1.605	1.268	1.160	0.860	0.732	0.641	0.733	0.606	0.732	0.660	0.564	0.526	0.544	0.564	0.328	0.483	0.603	0.360	0.281	0.339	0.355	0.184	0.383	0.309	0.179	0.318	0.568	0.747	0.760	0.779	0.626	0.495	0.509	0.444	0.495	0.394	0.377	0.411	0.511	0.593	0.859	1.209	0.977	0.646	0.503	0.655	1.005	2.014	4.277	9.923	18.67	23.83	17.51	5.191	0.396	0.179	0.100	0.204
290.0	150.2	263.3	297.4	181.5	79.46	47.62	53.74	106.6	215.4	282.2	235.7	340.3	 1014	 2586	 3643	 1877	57.96	4.313	2.783	1.793	1.465	1.441	0.956	0.984	0.890	0.822	0.694	0.758	0.830	0.570	0.545	0.641	0.672	0.420	0.388	0.478	0.333	0.283	0.423	0.318	0.233	0.410	0.288	0.300	0.425	0.571	0.694	0.917	1.130	0.973	0.838	0.710	0.630	0.569	0.458	0.361	0.435	0.425	0.460	0.629	0.793	1.160	1.175	1.100	0.928	0.908	1.025	1.587	2.814	5.513	10.10	15.18	19.39	17.74	12.19	4.014	0.381
295.0	203.5	369.3	422.1	277.4	121.5	67.51	68.82	102.7	166.4	312.4	421.8	341.4	421.9	720.9	 1624	 3791	 3071	67.87	4.286	2.494	2.085	1.784	1.133	1.282	0.903	0.800	0.767	0.726	0.966	0.771	0.678	0.608	0.354	0.545	0.454	0.481	0.396	0.417	0.341	0.263	0.312	0.339	0.279	0.391	0.445	0.573	0.712	1.264	1.324	1.236	1.177	0.830	0.768	0.635	0.453	0.460	0.532	0.432	0.433	0.690	0.733	0.724	0.967	1.484	1.727	1.529	1.281	1.228	1.492	2.082	2.905	3.848	5.566	10.40	21.77	27.12	17.48
300.0	233.7	403.0	463.7	323.1	149.2	79.10	83.93	110.4	172.8	281.6	454.4	458.1	327.1	306.1	471.9	 2009	 4610	 1038	31.89	3.372	2.732	2.147	1.434	1.309	1.172	1.004	1.064	0.858	0.777	0.775	0.715	0.779	0.366	0.583	0.601	0.588	0.514	0.480	0.490	0.292	0.373	0.276	0.289	0.342	0.573	0.580	0.763	0.997	1.365	1.529	1.226	1.105	0.975	0.719	0.561	0.572	0.652	0.505	0.534	0.717	0.705	0.785	1.087	1.282	1.573	2.151	1.924	1.328	1.260	1.358	1.341	1.338	1.611	2.914	7.506	17.46	29.17
305.0	226.1	394.9	474.0	330.9	165.6	88.07	87.23	118.7	172.1	258.8	400.4	522.1	398.5	223.2	172.2	593.8	 2598	 4576	782.4	8.868	3.552	2.452	2.003	1.481	1.399	1.369	1.062	0.883	0.813	0.786	0.747	0.894	0.612	0.637	0.617	0.593	0.610	0.563	0.432	0.229	0.466	0.423	0.318	0.520	0.516	0.666	0.991	1.069	1.361	1.347	1.159	1.112	0.900	0.736	0.537	0.534	0.622	0.599	0.590	0.763	0.844	0.813	1.076	1.112	1.341	1.617	2.145	2.224	1.597	1.207	1.135	0.783	0.675	0.877	2.005	4.791	12.14
310.0	218.6	382.3	452.8	316.5	157.1	86.94	92.73	126.0	171.8	245.6	334.1	428.0	453.8	290.7	117.7	169.5	718.1	 2295	 3767	 2027	37.45	4.094	2.695	1.988	1.701	1.367	0.987	0.988	0.925	0.743	0.745	0.639	0.712	0.511	0.613	0.518	0.617	0.457	0.410	0.347	0.418	0.425	0.442	0.358	0.513	0.617	0.816	0.999	1.208	1.275	1.125	1.081	0.908	0.698	0.624	0.529	0.584	0.544	0.595	0.756	0.847	0.992	1.028	1.079	1.189	1.346	1.677	2.021	2.018	1.839	1.501	0.760	0.620	0.592	0.746	1.273	3.029
315.0	208.7	342.5	414.0	281.1	145.0	87.11	90.46	125.1	165.9	237.2	306.0	346.4	369.2	365.1	177.3	83.04	186.5	546.9	 1454	 4049	 3034	43.61	3.348	2.249	1.927	1.673	1.149	1.054	1.133	0.873	0.612	0.597	0.919	0.704	0.577	0.597	0.641	0.477	0.454	0.251	0.338	0.297	0.422	0.431	0.443	0.738	0.799	0.871	1.021	1.091	0.970	0.883	0.982	0.770	0.565	0.530	0.627	0.540	0.694	0.762	0.830	0.825	1.057	1.159	1.317	1.334	1.497	1.467	1.383	1.598	1.834	1.428	0.785	0.747	0.432	0.503	0.937
320.0	200.2	300.7	370.8	262.0	134.3	89.99	89.34	119.0	162.7	222.6	286.2	312.6	307.7	309.1	257.9	95.15	74.12	144.1	380.6	 1852	 5080	727.3	21.00	3.327	2.388	2.049	1.496	1.392	1.395	1.199	0.699	0.865	0.691	0.569	0.705	0.466	0.749	0.535	0.389	0.382	0.336	0.345	0.419	0.453	0.422	0.753	0.657	0.773	1.010	1.026	0.786	0.757	0.733	0.754	0.566	0.616	0.637	0.623	0.536	0.629	0.727	0.854	1.058	0.989	1.246	1.111	1.237	1.235	1.187	1.331	1.442	1.483	1.371	0.993	0.443	0.535	0.588
325.0	168.4	279.3	360.5	244.4	131.0	87.24	92.17	117.8	162.7	211.8	271.0	291.7	280.7	249.0	252.7	172.9	60.47	61.09	105.5	511.0	 2611	 4917	561.0	7.192	3.083	2.235	1.715	1.403	1.298	1.257	0.887	0.741	0.779	0.636	0.665	0.671	0.627	0.567	0.541	0.351	0.479	0.364	0.437	0.381	0.482	0.660	0.607	0.802	0.980	0.863	0.782	0.718	0.616	0.665	0.620	0.688	0.706	0.591	0.628	0.720	0.775	0.743	0.852	0.958	1.200	1.201	1.187	1.095	1.198	1.221	1.076	1.068	1.206	1.493	0.945	0.630	0.515
330.0	150.3	255.4	323.1	245.3	134.6	96.77	95.69	125.0	160.8	208.9	258.2	282.2	271.6	225.6	189.2	205.5	134.1	58.80	50.69	135.7	685.4	 2398	 4004	 1982	30.61	3.697	2.807	1.823	1.694	1.302	1.096	1.030	0.879	0.663	0.771	0.638	0.570	0.604	0.537	0.463	0.461	0.414	0.429	0.375	0.472	0.677	0.578	0.710	0.892	0.828	0.757	0.639	0.633	0.565	0.608	0.710	0.659	0.630	0.656	0.675	0.739	0.795	0.940	1.011	1.124	1.076	1.274	1.074	1.165	1.092	1.098	1.025	0.926	1.051	1.200	1.118	0.900
335.0	137.2	240.0	293.5	237.2	144.9	98.62	101.5	129.4	156.7	206.3	243.7	271.1	264.2	220.4	166.0	149.7	188.7	130.1	51.31	57.94	174.7	563.2	 1456	 4708	 2829	37.21	4.078	2.844	2.204	1.584	1.328	1.221	0.984	0.785	0.961	0.852	0.558	0.537	0.545	0.411	0.453	0.389	0.468	0.484	0.502	0.662	0.722	0.767	0.754	0.772	0.709	0.749	0.690	0.590	0.554	0.545	0.611	0.604	0.644	0.651	0.792	0.837	0.917	1.009	1.176	1.120	1.108	1.123	1.232	1.151	1.122	1.008	0.998	0.810	0.957	0.977	1.292
340.0	122.1	225.1	283.5	234.7	154.5	113.9	108.2	128.3	160.1	196.0	238.3	259.5	258.9	219.4	166.4	131.1	147.8	196.4	89.42	47.59	66.01	147.1	370.3	 2072	 5631	586.1	18.38	3.546	2.716	1.855	1.410	1.494	1.017	0.873	0.938	0.792	0.723	0.609	0.570	0.493	0.544	0.401	0.496	0.568	0.331	0.574	0.587	0.680	0.759	0.681	0.795	0.785	0.719	0.601	0.581	0.453	0.669	0.715	0.766	0.755	0.792	0.690	0.854	0.942	1.096	1.187	1.088	1.033	1.022	1.093	1.134	1.041	0.923	0.804	0.798	0.738	0.944
345.0	118.0	222.1	270.0	236.8	159.6	125.8	119.5	134.1	161.7	199.5	231.0	256.6	253.5	219.2	174.5	130.2	118.2	173.4	165.3	62.81	47.65	59.80	105.0	548.5	 3091	 4790	462.7	7.196	2.658	2.145	1.603	1.244	1.083	0.921	0.987	1.038	0.751	0.607	0.554	0.544	0.488	0.413	0.355	0.507	0.363	0.549	0.710	0.629	0.689	0.701	0.767	0.771	0.610	0.558	0.577	0.443	0.643	0.665	0.860	0.698	0.770	0.914	0.851	1.158	1.002	1.127	1.108	1.128	0.963	1.031	0.936	1.085	0.935	0.761	0.901	0.624	0.863
350.0	114.3	203.2	249.2	233.4	173.8	142.2	132.0	142.4	168.2	198.1	229.2	247.0	244.5	219.8	179.9	142.6	117.1	124.9	168.1	141.8	69.26	52.11	54.07	147.3	784.1	 2616	 4015	 1766	27.42	3.449	2.468	1.664	1.503	1.123	1.013	0.937	0.776	0.747	0.608	0.582	0.479	0.478	0.424	0.548	0.486	0.500	0.617	0.672	0.813	0.770	0.668	0.760	0.650	0.629	0.614	0.523	0.627	0.566	0.709	0.876	0.789	0.958	0.887	1.033	1.062	1.118	1.098	1.023	1.158	1.000	0.954	0.991	0.916	0.765	0.899	0.717	0.690
355.0	115.1	192.0	246.5	238.4	183.4	159.6	151.3	158.2	179.7	207.5	227.9	244.6	242.7	217.5	190.5	152.7	129.0	121.1	126.2	166.9	148.5	71.19	56.25	67.65	200.3	608.7	 1497	 4786	 2605	36.66	3.896	2.302	1.788	1.345	0.996	1.119	0.602	0.795	0.771	0.654	0.505	0.505	0.424	0.543	0.475	0.405	0.556	0.701	0.863	0.825	0.756	0.701	0.644	0.677	0.638	0.521	0.634	0.615	0.659	0.953	1.007	0.749	1.114	1.023	1.033	1.216	1.188	0.968	1.115	1.018	0.879	1.101	0.928	0.980	0.773	0.849	0.893
360.0	109.0	173.2	233.8	229.8	193.8	170.7	162.3	177.3	192.7	212.6	230.7	242.3	239.5	221.2	193.9	163.7	142.7	126.7	119.1	137.6	188.4	105.6	65.33	56.78	77.56	160.5	373.9	 2163	 5551	539.0	19.78	3.218	2.075	1.798	1.157	1.019	0.886	0.722	0.824	0.621	0.592	0.437	0.502	0.588	0.492	0.407	0.567	0.594	0.677	0.747	0.653	0.693	0.820	0.722	0.684	0.696	0.644	0.686	0.723	0.808	0.967	0.926	1.006	1.005	0.882	0.926	1.158	1.073	1.107	1.127	0.884	1.045	1.005	0.932	0.837	0.970	0.948
365.0	97.56	153.8	209.0	224.1	210.2	189.7	181.3	191.7	205.9	223.5	233.7	244.7	242.5	226.3	199.6	165.4	147.8	134.4	124.0	122.2	163.9	174.5	90.20	63.66	59.06	66.86	106.4	556.1	 3204	 4417	432.0	7.616	2.909	1.982	1.636	1.132	0.998	0.906	0.676	0.693	0.602	0.589	0.500	0.520	0.535	0.538	0.573	0.532	0.717	0.716	0.630	0.789	0.869	0.682	0.678	0.636	0.637	0.627	0.710	0.833	0.875	1.019	1.036	1.061	0.992	1.151	1.348	1.062	1.037	1.001	1.068	1.148	1.100	0.937	0.868	0.939	0.937
370.0	90.20	161.5	208.2	226.7	219.9	199.7	193.1	202.6	214.7	226.7	241.0	245.6	244.2	225.6	204.2	178.4	160.8	149.5	140.5	135.6	139.5	172.1	164.9	97.89	67.65	57.34	55.62	148.1	805.8	 2637	 3952	 1617	25.21	2.812	2.039	1.489	1.132	1.020	0.776	0.786	0.669	0.693	0.519	0.554	0.381	0.518	0.541	0.549	0.736	0.620	0.640	0.747	0.802	0.718	0.796	0.783	0.710	0.744	0.841	0.736	0.956	1.063	1.162	1.170	1.098	1.182	1.260	1.012	1.099	1.078	1.054	1.137	0.944	0.985	0.944	1.030	0.994
375.0	87.88	155.7	214.7	231.5	229.9	214.5	217.7	219.0	223.4	234.6	253.2	253.1	243.2	231.9	209.4	190.7	172.7	166.9	158.1	150.2	142.6	148.4	173.9	167.7	89.33	68.83	56.80	67.32	202.8	611.8	 1540	 4677	 2365	32.12	2.919	2.157	1.312	1.179	0.997	0.892	0.774	0.677	0.589	0.481	0.451	0.503	0.639	0.667	0.767	0.588	0.686	0.722	0.788	0.751	0.804	0.750	0.762	0.897	0.892	0.801	0.876	0.936	1.067	1.178	1.085	1.118	1.285	1.105	1.197	1.062	1.075	1.117	0.946	0.974	1.079	1.117	0.865
380.0	87.13	146.1	204.4	228.4	226.5	230.5	223.9	230.3	235.4	250.3	265.3	267.1	254.6	232.4	219.7	195.4	183.3	172.8	166.0	160.0	152.3	147.5	153.7	189.8	139.4	84.99	65.92	55.61	75.94	157.9	377.1	 2149	 5026	452.0	18.54	2.625	1.763	1.402	0.977	0.901	0.671	0.624	0.688	0.592	0.648	0.569	0.656	0.653	0.739	0.718	0.634	0.636	0.870	0.786	0.763	0.853	0.941	0.803	0.918	1.025	0.901	0.894	1.023	1.052	1.172	1.318	1.182	1.188	1.211	1.236	1.100	1.171	0.991	1.117	1.084	1.127	1.087
385.0	103.1	147.2	199.8	227.3	232.5	237.2	234.7	243.3	247.3	255.2	270.8	267.9	254.0	237.5	220.0	198.8	187.9	179.2	175.8	170.3	163.4	152.8	148.3	170.4	187.9	113.6	78.48	61.84	54.54	63.46	104.8	544.0	 2929	 3656	357.8	6.742	2.224	1.586	1.226	0.937	0.870	0.717	0.681	0.599	0.508	0.614	0.634	0.683	0.630	0.683	0.700	0.781	0.849	0.873	0.730	0.817	0.811	0.744	0.907	0.986	0.897	0.813	1.050	1.006	1.113	1.327	1.160	1.167	1.043	1.034	1.012	1.121	0.994	1.163	1.038	1.121	1.109
390.0	81.75	145.5	211.5	232.8	244.0	246.1	243.9	250.6	255.8	262.5	267.6	267.7	259.1	241.2	225.7	206.0	192.0	185.8	185.0	179.5	174.0	165.4	157.4	156.6	174.9	169.1	111.8	76.95	62.49	53.74	53.27	142.9	731.5	 2188	 3127	 1309	21.66	2.336	1.661	1.212	0.959	0.827	0.711	0.581	0.551	0.606	0.643	0.549	0.588	0.637	0.682	0.860	0.968	0.827	0.870	0.814	0.948	0.868	0.848	0.918	0.874	0.951	0.982	1.109	1.045	1.169	1.038	1.203	1.141	1.049	1.170	1.088	1.138	1.203	1.219	1.150	1.128
395.0	87.14	156.6	192.6	233.7	247.1	253.8	251.2	265.7	265.2	266.9	276.0	272.7	266.0	245.7	228.6	209.9	194.4	190.0	191.1	187.3	182.8	176.5	170.3	161.7	158.3	171.8	171.6	108.4	78.47	63.78	52.52	62.52	183.0	506.3	 1192	 3649	 1963	29.41	2.551	1.648	1.302	0.943	0.879	0.591	0.692	0.677	0.522	0.720	0.614	0.654	0.705	0.817	0.891	0.864	0.938	0.878	1.047	0.972	0.905	1.042	1.012	1.035	1.070	1.262	1.128	1.112	1.000	1.307	1.378	1.166	1.171	1.069	1.272	1.089	1.156	1.157	0.945
400.0	87.07	146.2	201.9	233.9	250.2	253.7	261.6	272.6	274.7	271.8	278.9	269.9	263.3	244.8	228.0	213.8	197.2	194.7	192.4	190.1	187.4	184.2	177.4	166.6	157.9	158.0	182.1	152.4	96.44	76.15	60.41	50.53	66.99	131.3	290.0	 1646	 3909	386.4	18.38	2.278	1.630	1.164	0.784	0.599	0.687	0.778	0.506	0.682	0.578	0.696	0.643	0.690	0.925	0.912	0.846	0.877	0.942	1.067	0.883	0.974	0.968	1.031	1.069	1.059	0.996	1.042	1.107	1.171	1.150	1.222	1.101	1.294	1.214	1.094	1.090	1.135	1.087
405.0	86.05	157.0	205.1	235.9	253.2	252.4	273.7	272.6	275.9	272.7	269.6	274.3	266.6	252.6	231.5	214.5	197.8	194.0	193.1	193.6	190.8	187.5	182.4	176.0	164.6	156.7	164.4	181.7	127.7	89.00	69.81	54.21	46.17	51.14	80.54	410.4	 2158	 3066	325.3	8.093	1.852	1.227	1.101	0.815	0.739	0.633	0.684	0.739	0.779	0.606	0.744	0.691	0.937	0.931	0.859	0.934	0.976	1.034	1.066	1.167	1.047	1.112	1.188	1.121	0.996	1.044	1.258	0.980	1.141	1.251	1.100	1.211	1.114	1.162	1.144	1.161	1.263
410.0	88.41	145.1	199.5	226.8	250.6	262.3	262.9	272.3	273.6	280.9	277.6	270.2	266.1	252.0	232.4	211.5	197.0	193.4	192.3	192.2	191.0	189.9	184.0	181.6	169.6	162.0	155.8	167.4	167.0	121.0	84.01	65.19	49.44	40.09	38.66	106.7	529.7	 1679	 2540	 1108	20.30	2.085	1.298	1.066	0.899	0.773	0.696	0.721	0.695	0.614	0.730	0.774	0.835	0.799	0.886	0.853	0.976	0.991	0.985	1.109	1.044	1.215	1.210	1.079	1.063	1.207	1.108	1.084	1.202	1.195	1.105	1.118	1.182	1.100	1.145	1.019	1.231
415.0	91.80	140.0	198.5	228.9	246.4	258.4	272.4	267.4	277.5	277.9	281.7	269.7	267.5	246.9	225.4	208.3	194.6	189.5	186.4	191.4	187.0	187.0	186.1	181.5	175.6	167.1	156.3	152.6	158.4	161.8	108.9	75.84	58.11	44.17	35.06	44.19	131.5	385.8	932.2	 2700	 1550	27.97	1.958	1.445	1.041	0.872	0.804	0.733	0.759	0.690	0.660	0.747	0.875	0.824	0.892	0.930	1.116	0.925	1.147	0.939	1.069	1.139	0.971	1.118	1.129	1.054	1.210	1.172	1.138	1.146	0.995	1.179	1.202	1.039	1.151	1.063	1.091
420.0	82.37	137.7	195.7	226.7	246.3	261.9	274.3	272.1	274.1	284.1	283.3	270.8	264.1	243.3	221.7	205.8	188.9	188.6	179.0	186.2	183.1	185.3	181.9	180.7	179.3	170.4	160.9	151.0	146.3	164.8	139.6	88.92	64.63	49.79	37.55	32.72	45.65	97.60	223.1	 1169	 2931	357.1	18.36	1.793	1.219	0.976	0.863	0.818	0.699	0.685	0.645	0.785	0.930	0.795	0.853	0.841	1.011	1.242	1.205	0.903	1.025	1.312	0.991	1.203	1.201	0.947	1.122	1.060	1.184	1.304	0.970	1.176	1.211	1.089	1.138	0.990	1.024
425.0	83.20	141.2	177.7	221.4	240.4	252.0	258.8	271.9	279.4	279.6	276.4	266.8	258.5	237.3	219.4	198.7	188.0	185.7	180.3	180.4	182.6	180.0	182.4	180.1	178.9	169.2	160.0	153.1	143.9	147.4	154.3	108.2	71.44	54.53	41.50	31.97	28.57	35.63	59.57	287.4	 1584	 2571	307.6	7.142	1.565	1.107	1.037	0.926	0.683	0.793	0.579	0.828	0.946	0.912	0.885	0.947	0.823	0.957	1.128	1.051	1.102	1.141	1.199	1.082	1.039	1.117	0.962	1.157	1.080	1.107	0.982	1.046	1.150	1.050	1.075	1.041	1.091
430.0	83.86	124.4	176.6	213.3	237.7	250.9	260.4	265.0	278.5	274.5	277.4	263.5	252.6	233.8	216.2	194.1	183.1	178.1	174.2	173.7	176.0	175.3	177.2	177.0	173.1	170.1	163.1	153.7	143.9	136.9	139.1	132.3	93.63	62.98	47.67	37.12	29.30	24.97	25.78	73.55	389.4	 1314	 2002	925.4	18.96	1.757	1.260	1.023	0.894	0.874	0.654	0.806	0.878	0.791	0.974	0.938	0.910	0.971	1.111	1.023	1.026	1.083	1.141	1.090	1.005	1.122	1.033	1.090	0.985	1.059	1.072	1.089	1.102	1.115	1.077	1.215	1.026
435.0	105.4	124.0	184.6	218.4	223.9	245.4	257.3	264.8	273.1	271.7	280.2	264.5	247.2	231.1	211.6	188.5	179.2	170.8	167.3	166.5	167.0	168.9	171.9	170.3	170.3	166.0	160.4	154.0	147.0	135.6	124.5	124.2	119.2	81.43	56.12	42.59	33.17	25.68	21.46	27.87	95.56	300.5	699.8	 2220	 1405	26.33	1.570	1.270	0.973	0.957	0.749	0.799	0.970	0.869	0.860	1.044	0.955	1.046	1.218	1.133	1.158	1.187	1.115	1.218	1.142	1.281	1.164	1.101	0.985	1.086	1.047	1.001	1.005	0.908	0.975	0.910	0.968
440.0	143.2	117.4	164.8	209.1	228.9	237.5	254.6	265.9	270.3	272.8	274.4	262.8	242.7	226.9	206.5	183.1	175.3	166.9	165.1	159.5	161.9	162.3	165.5	167.6	165.0	162.0	158.9	152.1	147.1	134.7	123.7	112.0	119.5	100.5	62.53	47.35	37.14	28.77	22.54	18.95	31.72	74.61	166.6	992.9	 2597	325.0	14.15	1.584	1.235	0.985	0.931	0.793	0.965	0.866	0.932	0.800	0.991	1.010	0.995	0.977	1.197	1.336	1.079	1.110	1.207	1.150	0.919	1.084	1.007	1.088	1.077	0.952	1.074	0.953	1.046	1.007	1.049
445.0	171.4	140.2	160.4	205.3	225.3	244.3	244.2	262.3	275.2	268.8	267.5	260.3	239.0	219.1	201.2	177.6	167.5	161.1	159.2	157.2	155.1	156.9	159.5	161.1	158.7	159.2	151.6	150.2	143.7	134.4	123.8	109.0	107.6	109.6	77.84	51.94	40.46	31.12	25.15	19.56	18.64	25.92	44.41	245.4	 1458	 2283	247.2	6.043	1.471	1.126	1.053	0.931	0.940	0.847	0.833	0.836	0.850	1.107	1.086	1.085	0.971	1.169	0.987	1.073	1.233	1.149	1.076	1.076	1.140	1.108	0.974	1.106	1.054	0.957	1.060	0.906	1.083
450.0	202.2	283.1	168.9	187.7	211.2	232.1	239.7	255.3	267.0	261.5	259.2	248.0	232.1	209.5	189.7	172.7	158.4	153.9	149.6	146.7	145.6	146.7	149.7	149.8	151.1	147.9	146.8	143.2	137.4	132.5	121.2	109.0	97.28	95.73	90.85	66.01	45.27	34.11	28.12	22.13	18.26	16.72	18.26	61.69	356.0	 1205	 1840	811.2	16.08	1.614	1.235	1.045	0.904	0.816	0.917	0.878	0.985	1.087	1.079	1.066	1.135	1.011	1.061	0.997	1.174	1.052	1.033	0.931	1.089	1.119	0.913	1.020	1.045	0.866	0.933	0.942	0.958
455.0	125.3	478.2	292.1	185.5	202.0	215.4	228.6	237.4	255.9	248.8	243.8	236.5	214.9	196.5	175.5	160.5	148.5	143.4	136.3	136.6	136.3	136.7	137.0	140.7	139.2	136.4	137.1	133.1	133.0	126.9	117.4	104.3	93.62	83.89	81.81	81.33	55.48	38.82	29.92	25.45	20.34	17.46	14.39	22.15	86.04	275.0	649.7	 1914	 1153	20.44	1.797	1.236	1.076	0.987	0.950	0.815	0.881	1.014	1.019	1.047	0.985	0.879	1.016	0.985	1.018	0.912	0.965	0.941	1.021	1.001	0.951	0.857	0.839	0.817	0.774	0.874	0.900
460.0	73.28	489.4	556.7	186.3	190.0	202.7	220.7	225.8	233.7	242.1	231.0	227.0	202.8	185.6	166.7	150.6	142.9	131.9	129.9	128.4	129.0	125.6	129.6	131.6	131.1	128.2	129.3	127.2	125.6	121.5	114.1	103.3	90.73	78.86	73.30	77.54	66.53	43.34	31.87	27.21	22.23	18.44	15.00	14.61	26.86	66.95	153.7	839.9	 2120	255.5	12.16	1.714	1.176	1.090	0.950	0.959	0.824	0.816	0.924	0.948	1.096	0.952	0.988	0.800	0.974	0.891	0.878	1.039	1.012	0.936	0.939	0.755	0.795	0.844	0.762	0.821	0.738
465.0	58.02	344.2	828.1	281.8	174.9	194.8	211.0	216.3	220.6	232.1	224.2	216.8	197.1	179.9	159.1	144.0	133.0	124.9	123.3	121.4	121.2	119.1	120.4	123.1	122.6	123.3	122.0	118.9	119.3	115.2	110.1	99.64	87.21	77.11	68.46	67.29	68.05	51.32	34.60	28.25	23.40	20.41	16.09	13.89	14.92	21.95	40.24	206.2	 1195	 1778	201.3	4.785	1.404	1.045	0.979	1.001	1.103	0.817	0.935	0.929	0.879	0.984	0.911	0.752	1.019	0.910	0.943	0.896	1.008	0.889	0.979	0.964	0.769	0.781	0.796	0.710	0.823
470.0	55.47	154.4	753.7	741.2	198.5	177.8	191.5	203.0	212.6	216.3	209.0	199.7	181.3	166.5	150.5	132.8	122.0	117.3	113.0	110.5	111.0	108.7	109.7	111.7	111.4	111.4	111.0	108.8	110.7	107.9	102.1	93.53	82.74	74.46	65.58	59.83	58.50	58.04	42.98	31.21	25.38	21.42	18.45	15.68	13.51	13.31	15.95	52.14	294.0	948.9	 1361	607.3	15.03	1.564	1.188	0.999	1.028	0.964	0.922	0.867	0.829	1.023	0.808	0.950	0.866	0.838	0.919	0.811	0.848	0.867	0.825	0.822	0.772	0.749	0.802	0.766	0.789
475.0	59.93	98.06	351.7	 1129	458.1	167.2	177.7	193.1	197.5	200.8	194.0	184.1	171.1	151.8	139.1	123.9	112.7	108.1	103.4	101.5	99.54	98.48	98.51	99.55	99.29	101.1	100.9	101.0	99.27	99.32	94.07	87.51	79.59	70.71	62.05	55.64	50.48	51.07	51.19	37.01	26.63	23.12	19.93	16.81	14.47	12.70	12.00	18.58	71.15	217.1	475.7	 1384	285.1	18.94	1.613	1.103	1.121	0.996	1.019	0.887	0.944	0.759	0.670	0.911	0.967	0.973	0.965	0.785	0.688	0.784	0.718	0.781	0.856	0.699	0.709	0.501	0.606
480.0	57.97	71.42	164.3	946.4	942.9	181.3	165.9	181.6	187.2	188.8	181.5	173.5	158.6	145.5	132.4	115.2	107.1	103.4	95.17	94.52	91.34	91.71	91.38	92.35	93.40	92.43	92.43	93.57	92.33	93.32	89.97	82.54	76.75	67.46	60.54	52.64	48.01	44.18	48.90	43.42	29.26	24.01	20.65	17.33	15.40	13.75	11.77	12.16	22.30	53.58	113.3	597.7	 1387	259.5	10.78	1.567	1.171	1.080	0.866	0.840	0.842	0.758	0.820	1.013	0.873	0.923	0.799	0.755	0.647	0.939	0.640	0.777	0.781	0.661	0.647	0.540	0.567
485.0	59.30	77.78	117.3	511.8	 1321	334.5	161.3	171.8	175.7	181.1	176.5	165.7	154.4	137.0	124.2	111.4	102.7	97.21	88.89	89.33	87.85	85.40	86.30	86.53	85.40	86.76	88.16	86.70	86.45	86.65	84.59	78.70	71.78	63.75	56.91	51.40	46.83	41.21	42.55	45.69	34.47	26.08	22.20	18.80	16.85	14.91	12.35	11.39	12.02	17.77	30.42	146.5	839.6	 1359	205.9	3.704	1.356	1.091	1.009	0.938	0.761	0.783	0.805	0.918	0.828	0.822	0.926	0.607	0.619	0.769	0.671	0.650	0.737	0.618	0.707	0.530	0.529
490.0	54.82	92.25	95.34	217.7	993.3	952.0	196.0	161.9	162.8	170.5	166.1	152.1	140.8	127.4	116.4	102.6	95.42	91.04	86.23	83.66	80.46	79.98	78.45	78.76	78.57	79.40	79.74	79.81	79.90	80.30	77.37	73.27	67.49	61.06	55.07	49.97	45.10	39.78	37.02	39.25	39.61	30.66	23.34	19.49	17.63	16.19	13.68	12.24	10.90	10.74	12.25	37.54	207.8	717.8	 1127	486.6	13.98	1.464	1.071	1.010	0.835	0.800	0.718	0.821	0.717	0.816	0.740	0.726	0.752	0.691	0.677	0.610	0.683	0.609	0.621	0.633	0.526
495.0	40.83	81.35	102.1	130.8	400.8	 1269	522.0	146.4	148.5	152.7	151.8	142.4	128.8	119.9	105.8	93.58	90.20	81.61	78.82	74.78	72.98	71.99	69.27	71.06	71.19	71.70	71.56	71.55	71.31	73.12	70.80	67.46	59.92	56.56	51.95	46.84	42.49	36.92	34.47	33.24	35.40	35.67	27.18	20.03	18.52	16.83	14.70	12.95	11.02	9.724	9.084	13.54	50.74	164.9	444.5	 1277	298.3	16.95	1.322	1.097	0.882	0.988	0.822	0.854	0.692	0.756	0.690	0.611	0.671	0.626	0.710	0.629	0.670	0.645	0.474	0.497	0.565
500.0	35.57	79.11	106.9	109.4	176.5	941.5	 1047	161.3	138.0	145.1	141.3	136.0	121.5	111.2	98.98	88.14	82.38	76.17	73.46	70.14	67.95	65.94	65.62	64.57	65.21	65.65	63.87	65.28	64.73	67.12	64.57	60.27	57.05	52.98	47.59	44.11	40.89	36.24	33.73	30.51	30.78	33.92	30.74	22.56	18.36	16.97	14.93	13.69	11.48	9.962	8.266	8.563	15.63	40.50	106.1	586.4	 1299	259.8	7.510	1.199	0.942	0.928	0.765	0.691	0.714	0.623	0.638	0.568	0.638	0.621	0.623	0.574	0.501	0.573	0.610	0.534	0.400
505.0	35.85	59.43	105.9	92.62	113.2	470.1	 1346	364.1	133.9	133.9	128.2	123.0	109.4	101.3	89.05	80.53	77.33	70.24	68.59	64.67	62.93	60.26	60.57	58.80	58.49	58.18	57.40	59.49	60.10	61.19	57.77	55.49	53.07	48.50	45.98	41.14	38.23	33.88	31.55	29.15	27.36	29.31	31.29	25.20	18.69	16.53	15.42	13.55	11.74	10.08	8.141	7.373	8.196	13.03	26.89	144.3	803.9	 1194	39.68	2.387	0.992	0.823	0.822	0.694	0.526	0.549	0.616	0.647	0.761	0.725	0.485	0.626	0.520	0.643	0.807	0.493	0.435
510.0	28.89	49.56	94.56	95.52	95.05	196.4	911.1	902.5	180.9	119.9	119.8	110.6	101.6	91.65	80.33	71.74	68.36	62.90	61.33	56.97	55.83	53.51	53.58	52.29	51.68	51.19	51.91	52.46	52.78	53.49	52.23	50.09	46.85	44.37	41.03	37.18	34.07	31.91	29.08	26.64	24.83	24.84	26.22	26.93	21.60	16.72	14.79	12.98	11.74	10.04	8.553	7.553	6.549	7.026	9.453	34.98	198.7	645.8	892.9	373.8	12.44	0.992	0.841	0.654	0.647	0.589	0.528	0.604	0.544	0.495	0.550	0.543	0.467	0.452	0.607	0.531	0.442
515.0	32.48	43.79	65.84	107.6	84.40	111.7	325.6	 1139	510.1	103.3	105.2	98.50	90.70	80.25	72.53	64.06	61.76	57.20	53.72	50.35	49.58	45.34	46.72	46.38	46.12	45.60	45.65	45.73	46.07	46.70	46.74	44.71	41.90	38.91	36.24	32.75	30.42	28.63	26.35	24.29	23.03	21.63	20.53	23.50	24.11	18.55	14.53	12.97	11.66	9.848	8.846	7.456	6.203	5.588	5.496	10.62	46.68	146.6	343.8	980.5	284.6	13.03	0.989	0.809	0.644	0.576	0.507	0.460	0.487	0.450	0.396	0.490	0.565	0.392	0.398	0.491	0.464
520.0	27.38	35.03	53.16	100.4	87.20	87.92	135.1	789.2	 1072	143.3	93.23	90.00	80.99	71.50	67.39	59.20	54.33	52.20	48.84	44.97	43.16	41.62	42.25	41.35	41.45	40.22	40.96	41.02	40.34	42.77	42.25	40.00	37.48	34.71	32.77	30.64	28.20	26.45	24.80	22.70	21.94	19.81	18.97	19.46	22.78	20.31	14.76	12.38	11.21	9.532	8.244	7.308	5.989	5.371	4.583	5.003	12.78	34.72	81.28	467.8	963.9	217.9	3.804	0.945	0.731	0.701	0.532	0.442	0.500	0.360	0.512	0.391	0.377	0.370	0.388	0.553	0.373
525.0	33.03	37.74	48.58	78.62	96.12	81.83	90.43	361.7	 1258	373.0	86.54	79.59	74.69	67.05	58.61	52.61	50.09	46.84	45.12	41.85	39.46	38.04	38.48	37.15	37.17	36.01	36.85	37.24	35.49	37.95	37.57	35.65	32.90	31.96	29.93	28.30	26.49	24.22	22.77	20.68	19.50	18.51	17.59	17.04	19.00	21.25	16.34	12.95	10.76	9.027	7.932	7.069	6.064	5.189	4.415	3.994	5.164	9.808	19.80	115.7	599.3	838.7	37.54	1.520	0.765	0.794	0.609	0.453	0.495	0.314	0.426	0.386	0.306	0.174	0.363	0.548	0.446
530.0	25.86	32.11	41.87	62.29	85.38	76.62	72.68	143.5	751.7	958.2	170.8	72.75	66.75	60.46	54.85	48.35	44.05	41.76	39.78	37.29	35.49	33.60	34.76	33.27	32.78	32.20	32.21	32.09	32.37	33.32	32.31	31.75	29.74	28.30	26.29	24.79	23.14	21.63	19.84	18.73	17.81	17.06	15.94	15.25	15.18	17.69	17.27	13.55	10.72	8.474	7.542	6.791	5.738	5.301	4.227	3.590	3.482	4.126	6.066	27.29	148.0	470.8	627.8	164.5	9.927	0.755	0.493	0.437	0.449	0.387	0.347	0.365	0.354	0.203	0.327	0.356	0.377
535.0	18.17	24.33	41.62	46.94	70.76	80.10	62.46	81.18	250.9	964.2	640.0	65.46	57.62	52.23	47.74	42.19	38.58	37.41	34.55	32.35	31.26	30.48	28.97	28.89	28.07	28.14	27.66	27.87	28.64	27.91	28.48	27.50	25.85	24.46	22.97	21.45	20.24	18.56	17.83	16.24	15.57	15.01	14.44	13.23	12.73	13.49	15.00	14.39	11.41	8.016	7.258	6.317	5.373	4.787	4.200	3.648	2.992	2.907	3.024	7.609	34.23	106.6	248.7	677.0	254.3	9.292	0.591	0.464	0.633	0.468	0.371	0.400	0.378	0.233	0.383	0.317	0.366
540.0	19.06	22.29	34.95	40.40	54.13	80.47	65.59	61.21	100.9	576.1	 1025	140.8	52.50	47.37	44.29	38.49	34.80	33.52	31.27	28.52	28.12	27.06	25.82	25.42	24.92	24.90	24.13	24.71	25.47	25.62	25.35	24.39	23.40	22.11	20.46	19.21	18.62	16.86	16.37	15.34	14.25	13.53	12.59	12.58	11.50	11.83	12.18	14.18	12.51	8.370	6.500	5.952	5.121	4.566	4.079	3.554	3.043	2.409	2.199	3.253	8.842	24.71	58.73	331.5	688.3	41.45	3.059	0.525	0.411	0.395	0.329	0.362	0.355	0.354	0.313	0.384	0.223
545.0	17.65	21.96	34.81	36.56	40.82	65.66	73.85	51.48	63.16	244.1	 1014	350.8	49.65	41.63	39.05	33.65	32.83	30.58	27.79	25.72	25.14	24.86	23.67	23.83	22.68	22.15	22.36	22.49	22.37	23.02	22.88	21.86	20.30	19.78	18.72	17.43	16.56	15.16	14.96	14.18	13.20	12.25	12.00	11.70	10.30	10.97	10.13	12.03	12.40	9.379	6.591	5.787	4.953	4.268	3.693	3.158	2.912	2.405	2.101	2.175	3.090	6.426	13.91	82.43	430.3	566.1	35.91	1.103	0.439	0.443	0.350	0.338	0.365	0.255	0.280	0.294	0.334
550.0	18.34	24.42	26.93	31.65	36.63	50.62	68.62	51.83	51.66	96.44	524.2	801.9	148.9	38.53	33.36	30.39	28.92	26.68	24.45	22.81	21.74	21.80	20.43	20.07	19.09	19.30	19.40	19.42	19.20	19.66	19.19	18.79	17.77	17.29	16.26	15.54	14.53	13.47	12.54	12.53	11.35	10.62	10.19	10.24	9.294	9.151	8.708	8.962	9.931	9.616	7.020	5.320	4.372	3.832	3.434	3.058	2.764	2.541	1.997	1.737	1.838	2.467	3.986	19.22	106.4	326.1	372.9	152.7	8.662	0.527	0.368	0.333	0.349	0.245	0.250	0.310	0.333
555.0	18.50	23.31	27.23	29.70	33.81	37.04	54.03	55.08	43.23	53.67	162.7	654.4	579.1	36.98	29.23	25.28	24.81	21.98	20.54	19.10	18.32	18.04	16.98	17.15	17.15	16.35	16.74	16.15	16.33	16.21	15.86	15.80	14.94	14.04	13.25	12.79	12.12	11.31	10.91	10.04	9.553	9.051	9.153	8.577	7.759	7.832	7.439	7.159	7.337	8.344	7.743	5.505	4.049	3.449	3.309	2.844	2.601	2.225	2.242	1.688	1.505	1.491	1.829	5.007	24.40	73.80	154.6	468.1	215.3	6.932	0.430	0.313	0.360	0.235	0.272	0.312	0.302
560.0	16.38	19.72	26.41	28.52	29.60	34.25	41.62	54.00	39.62	39.34	64.93	344.3	807.4	127.9	26.01	21.13	20.91	18.68	17.85	16.34	16.02	15.78	15.46	14.40	14.79	14.58	14.18	14.06	14.37	14.95	13.39	13.66	12.88	12.09	11.85	10.34	10.25	9.760	9.273	8.666	8.339	7.977	7.938	7.465	7.055	6.634	6.235	5.964	6.095	6.297	7.264	5.968	4.080	3.314	2.922	2.793	2.322	2.084	1.984	1.684	1.350	1.098	1.225	1.892	5.989	17.10	36.57	220.6	464.7	41.45	1.967	0.318	0.356	0.169	0.223	0.266	0.175
565.0	17.50	27.42	25.01	29.34	26.69	25.41	33.78	50.05	43.14	34.83	38.53	139.6	684.1	406.2	23.59	19.65	18.03	17.05	16.08	14.48	14.37	13.91	13.16	12.95	12.71	11.54	11.99	12.18	12.91	12.16	11.67	11.63	11.07	10.48	10.20	9.500	8.678	8.423	8.288	7.835	7.450	6.958	6.655	6.603	6.134	6.115	5.451	5.432	5.074	4.824	5.916	6.165	4.345	2.929	2.595	2.603	2.157	1.928	1.818	1.611	1.399	1.024	1.141	1.087	2.035	4.427	8.755	53.94	272.0	330.5	33.72	0.802	0.378	0.252	0.203	0.220	0.171
570.0	15.68	27.29	30.40	28.39	22.38	21.94	26.26	36.80	46.43	35.61	34.23	57.38	317.8	613.4	122.0	16.77	15.69	14.29	12.88	12.13	11.20	11.40	10.96	10.54	10.12	9.965	9.886	9.616	10.47	10.25	9.731	9.358	8.856	8.326	8.273	7.540	7.147	6.919	6.495	6.429	5.902	5.657	5.347	5.413	4.843	4.832	4.421	4.464	4.215	3.878	4.064	4.666	4.402	3.219	2.402	2.227	1.840	1.646	1.461	1.422	1.244	0.989	0.869	0.896	1.051	1.570	2.491	12.47	66.34	191.5	264.5	110.8	6.335	0.216	0.221	0.220	0.207
575.0	21.55	33.70	30.81	25.42	23.82	21.41	20.44	23.51	40.99	40.67	32.02	34.96	97.38	406.3	484.5	19.57	12.75	11.61	10.57	9.794	8.353	8.568	8.602	8.138	7.671	7.728	7.658	7.889	7.421	7.667	7.887	7.515	6.587	6.482	6.567	5.909	5.581	5.401	4.814	4.777	4.429	4.252	4.468	4.223	3.878	3.819	3.393	3.650	3.468	3.029	2.836	3.059	3.699	3.472	2.347	1.950	1.504	1.410	1.224	1.145	0.999	1.135	0.865	0.798	0.732	0.833	1.019	3.185	15.11	43.37	96.99	261.6	129.4	4.314	0.370	0.223	0.222
580.0	19.23	43.54	36.79	23.71	17.51	17.35	18.81	20.98	33.45	48.22	30.23	30.33	40.51	196.6	570.3	118.1	9.670	9.106	8.374	7.924	7.005	7.455	6.908	6.997	6.452	6.446	6.275	6.604	6.484	6.246	6.701	6.142	5.727	5.633	5.565	4.990	4.734	4.316	4.157	4.030	3.782	3.946	3.547	3.673	3.110	3.161	3.070	3.243	2.908	2.672	2.183	2.257	2.787	3.005	2.391	1.692	1.359	1.270	1.139	0.974	0.955	1.004	0.917	0.786	0.518	0.677	0.678	1.120	3.814	10.02	22.79	116.8	253.5	39.15	1.554	0.188	0.069
585.0	24.75	29.30	37.65	23.48	18.21	16.83	13.07	18.32	26.39	46.25	32.79	28.90	28.80	76.50	415.4	358.8	9.698	7.685	7.212	6.769	6.504	6.271	5.799	5.661	5.546	4.977	5.072	5.448	5.603	5.123	5.131	5.062	4.825	4.656	4.324	4.411	3.955	3.816	3.434	3.346	3.031	3.105	2.839	2.979	2.821	2.851	2.852	2.740	2.405	2.245	1.948	1.956	2.175	2.601	2.565	1.773	1.317	1.112	0.924	0.927	0.780	0.901	0.835	0.747	0.625	0.714	0.552	0.682	1.057	2.598	5.356	28.40	141.9	201.4	29.21	0.713	0.175
590.0	25.73	34.65	38.23	25.37	18.10	13.87	13.81	16.87	20.78	36.71	41.66	29.83	26.33	32.13	178.8	456.3	96.07	6.551	6.257	5.568	5.201	5.126	4.645	4.833	4.514	4.209	4.016	4.418	4.347	4.043	4.209	3.927	3.784	3.677	3.623	3.527	3.125	3.071	2.880	2.680	2.644	2.393	2.433	2.410	2.139	2.201	2.285	1.984	1.875	1.861	1.679	1.620	1.512	1.714	2.111	1.798	1.339	1.000	0.852	0.686	0.754	0.786	0.742	0.640	0.709	0.556	0.430	0.413	0.526	0.918	1.454	6.606	34.38	102.5	142.3	66.44	4.267
595.0	20.77	36.71	38.81	26.38	17.81	12.05	12.88	14.58	17.41	28.38	41.55	34.04	26.11	19.89	49.37	257.7	384.3	12.80	4.880	4.315	4.282	3.809	3.895	4.107	3.690	3.633	3.327	3.384	3.185	3.199	3.511	2.973	3.052	3.100	2.706	2.524	2.542	2.501	2.382	2.101	2.047	2.186	2.072	1.831	1.863	1.629	1.865	1.789	1.404	1.607	1.490	1.198	1.180	1.181	1.389	1.704	1.572	0.960	0.833	0.563	0.655	0.605	0.469	0.460	0.659	0.475	0.452	0.365	0.413	0.429	0.540	1.748	7.898	23.27	48.71	138.6	43.31
600.0	15.99	32.32	38.14	25.86	16.95	9.288	10.80	13.73	16.81	23.12	37.32	35.43	24.83	15.88	18.14	111.6	415.9	97.23	3.575	3.754	3.859	3.397	3.513	3.258	3.272	2.979	2.860	2.817	2.819	2.783	2.914	2.473	2.718	2.614	2.473	2.093	2.087	1.945	2.002	1.715	1.743	1.588	1.679	1.545	1.580	1.495	1.377	1.365	1.346	1.279	1.191	1.113	1.093	1.028	1.079	1.498	1.615	1.112	0.873	0.620	0.594	0.474	0.613	0.455	0.543	0.438	0.591	0.345	0.327	0.310	0.389	0.561	1.997	5.336	11.39	58.30	131.7
605.0	24.86	31.15	32.94	24.32	14.88	9.448	11.14	12.30	14.33	20.27	30.54	36.86	23.88	15.24	11.09	36.93	279.4	303.1	4.576	3.653	3.024	2.843	2.756	2.863	2.674	2.292	2.312	2.116	2.312	2.393	2.558	2.060	2.262	2.214	2.134	1.985	1.895	1.678	1.761	1.552	1.517	1.344	1.367	1.248	1.249	1.302	1.320	1.278	1.092	0.996	0.972	1.026	0.785	0.753	0.751	1.116	1.371	1.056	0.916	0.711	0.490	0.514	0.527	0.480	0.421	0.479	0.605	0.442	0.264	0.284	0.260	0.385	0.628	1.256	2.759	14.16	70.64
610.0	16.21	33.41	24.63	23.81	13.46	11.76	10.16	9.900	13.51	17.24	24.44	34.84	27.40	15.42	8.831	12.63	110.6	343.3	79.90	3.218	2.599	2.507	2.371	2.374	2.319	1.962	2.181	1.877	2.125	2.004	1.924	1.860	1.912	1.799	1.750	1.596	1.505	1.632	1.333	1.275	1.220	1.084	0.994	1.136	0.986	1.075	1.065	0.975	0.905	0.861	0.793	0.686	0.693	0.710	0.690	0.735	0.901	1.052	0.857	0.642	0.422	0.450	0.438	0.384	0.346	0.409	0.413	0.386	0.408	0.289	0.260	0.306	0.298	0.524	0.766	3.364	17.09
615.0	16.86	21.28	25.18	19.71	11.41	5.436	9.023	9.719	12.49	15.66	19.88	26.99	30.92	14.96	7.770	6.314	29.25	172.5	321.1	11.74	2.602	1.807	1.796	1.809	1.951	1.557	1.763	1.850	1.862	1.490	1.583	1.426	1.374	1.664	1.507	1.213	1.269	1.178	1.153	0.992	0.967	0.931	0.953	0.974	0.966	0.984	0.813	0.742	0.691	0.716	0.668	0.650	0.532	0.582	0.482	0.533	0.562	0.791	0.770	0.692	0.354	0.319	0.370	0.410	0.305	0.297	0.371	0.276	0.247	0.268	0.189	0.159	0.173	0.442	0.293	0.872	3.950
620.0	16.77	25.12	22.89	17.76	9.629	5.540	8.851	10.46	11.61	16.98	17.37	21.32	27.27	16.48	7.138	4.820	9.607	70.69	324.1	88.31	2.169	1.893	1.904	1.515	1.512	1.677	1.639	1.653	1.394	1.413	1.308	1.280	1.275	1.287	1.218	0.957	1.104	1.106	0.960	0.909	0.919	0.854	0.658	0.808	0.760	0.735	0.770	0.571	0.698	0.531	0.543	0.521	0.541	0.409	0.539	0.405	0.408	0.522	0.580	0.694	0.376	0.394	0.327	0.374	0.194	0.372	0.332	0.338	0.285	0.340	0.164	0.245	0.105	0.208	0.218	0.256	1.025
625.0	15.12	20.84	23.69	15.90	10.50	6.718	7.981	6.364	11.86	13.99	15.89	18.62	23.25	18.30	6.453	4.328	4.306	22.24	196.1	264.7	2.729	1.726	1.720	1.741	1.573	1.324	1.305	1.389	1.141	0.973	1.300	1.149	1.262	0.959	1.102	0.982	0.980	0.896	0.734	0.714	0.846	0.754	0.684	0.617	0.584	0.622	0.655	0.496	0.648	0.533	0.543	0.452	0.412	0.477	0.327	0.337	0.447	0.462	0.620	0.725	0.501	0.373	0.335	0.230	0.214	0.349	0.303	0.264	0.211	0.270	0.239	0.193	0.268	0.149	0.136	0.180	0.232
630.0	8.628	15.43	21.81	16.54	9.556	5.450	6.411	7.067	10.00	12.38	15.20	16.62	18.31	19.66	8.188	4.529	3.347	6.912	71.82	279.1	68.28	1.805	1.322	1.523	1.166	1.045	1.264	1.066	1.079	0.929	1.058	1.081	0.866	0.917	0.899	0.803	0.765	0.759	0.704	0.651	0.639	0.577	0.579	0.470	0.550	0.520	0.516	0.477	0.519	0.466	0.399	0.420	0.390	0.388	0.313	0.290	0.360	0.349	0.413	0.515	0.506	0.424	0.351	0.159	0.207	0.324	0.279	0.230	0.226	0.251	0.178	0.216	0.181	0.108	0.188	0.165	0.171
635.0	5.752	16.71	18.17	14.80	9.262	6.039	6.479	7.978	8.729	11.76	14.76	15.75	12.97	15.22	11.36	4.376	2.736	3.365	18.80	125.5	277.2	9.237	1.391	1.255	1.124	0.838	1.163	0.715	0.903	0.957	0.929	1.029	0.896	0.668	0.727	0.712	0.542	0.578	0.588	0.526	0.512	0.575	0.461	0.412	0.419	0.442	0.438	0.361	0.445	0.489	0.386	0.400	0.189	0.257	0.287	0.248	0.369	0.389	0.245	0.362	0.400	0.386	0.368	0.221	0.250	0.175	0.250	0.192	0.194	0.198	0.183	0.291	0.242	0.148	0.181	0.202	0.115
640.0	7.644	18.26	17.51	13.49	9.547	5.841	5.683	6.928	9.830	9.685	12.01	14.55	12.20	12.40	12.74	4.873	2.740	2.728	5.945	45.30	270.6	73.99	1.274	0.856	1.057	1.020	0.810	0.734	0.771	0.887	0.808	0.787	0.743	0.663	0.741	0.753	0.663	0.569	0.477	0.513	0.503	0.531	0.446	0.498	0.321	0.408	0.441	0.381	0.459	0.349	0.343	0.309	0.288	0.283	0.269	0.269	0.290	0.308	0.337	0.239	0.212	0.390	0.418	0.162	0.199	0.232	0.255	0.156	0.269	0.183	0.164	0.210	0.175	0.112	0.275	0.127	0.129
645.0	6.231	19.46	12.00	11.87	6.725	3.663	7.213	4.845	7.825	9.563	11.99	13.34	11.15	10.40	12.20	6.317	2.988	1.911	2.685	13.47	156.6	227.8	2.267	1.136	0.826	0.814	0.668	0.701	0.672	0.669	0.562	0.729	0.617	0.626	0.642	0.493	0.524	0.367	0.380	0.507	0.509	0.522	0.354	0.380	0.389	0.483	0.339	0.389	0.449	0.267	0.288	0.292	0.214	0.274	0.281	0.310	0.202	0.311	0.302	0.215	0.186	0.400	0.307	0.279	0.170	0.198	0.184	0.106	0.212	0.130	0.143	0.133	0.090	0.172	0.089	0.139	0.166
650.0	19.74	21.37	16.74	9.964	6.348	5.249	5.663	5.719	7.196	8.283	12.87	12.65	10.36	9.445	10.42	8.162	2.683	1.885	1.889	4.345	65.76	284.2	31.21	0.961	0.903	0.924	0.748	0.737	0.794	0.601	0.526	0.679	0.508	0.499	0.535	0.349	0.376	0.589	0.395	0.366	0.365	0.378	0.273	0.395	0.334	0.239	0.324	0.321	0.262	0.260	0.267	0.246	0.268	0.167	0.252	0.314	0.193	0.154	0.189	0.163	0.220	0.320	0.269	0.212	0.270	0.214	0.214	0.207	0.213	0.139	0.068	0.123	0.131	0.135	0.094	0.038	0.080
