Sample:	'1
File name:	W102409顶峰热电未处理出水.FD3
Run date:	'10:40:10, 10/25/2024
Operator:	horiz
Comment:	'

Instrument
Model:	F-2700 FL Spectrophotometer
Serial number:	23B8-004
ROM Version:	4J14000 07

Instrument parameters
Measurement type:	3-D scan
Data mode:	Fluorescence
EX  Start WL:	220.0 nm
EX  End WL:	600.0 nm
EX Sampling interval:	5.0 nm
EM  Start WL:	230.0 nm
EM  End WL:	650.0 nm
EM Sampling interval:	5.0 nm
Scan speed:	12000 nm/min
EX Slit:	5.0 nm
EM Slit:	5.0 nm
PMT Voltage:	700 V
Response:	Auto 
Corrected spectra:	Off
Contour interval:	50.000

Peak integration
Integration method:	Rectangular
Sensitivity:	1
Threshold:	1.000

Peaks
No.	ApexEX/EM(nm)	Height(Data)
1	225.0/575.0	54.33
2	230.0/340.0	1592
3	230.0/560.0	50.17
4	230.0/585.0	60.52
5	230.0/610.0	57.22
6	230.0/625.0	62.24
7	230.0/635.0	53.29
8	235.0/350.0	1589
9	235.0/510.0	268.0
10	240.0/265.0	368.8
11	240.0/525.0	236.9
12	245.0/270.0	375.3
13	245.0/535.0	204.1
14	250.0/275.0	502.0
15	250.0/550.0	166.1
16	255.0/280.0	610.3
17	255.0/560.0	151.6
18	260.0/575.0	130.2
19	265.0/585.0	146.0
20	270.0/600.0	160.2
21	275.0/310.0	2581
22	275.0/615.0	167.7
23	280.0/625.0	143.1
24	315.0/355.0	539.6
25	320.0/365.0	528.1
26	325.0/370.0	496.0
27	330.0/375.0	485.1
28	335.0/380.0	483.4
29	350.0/400.0	404.6
30	365.0/420.0	297.8
31	425.0/500.0	42.71
32	440.0/520.0	25.10
33	455.0/540.0	14.16
34	475.0/350.0	4.834
35	480.0/360.0	4.368
36	505.0/275.0	2.794
37	510.0/280.0	3.106
38	520.0/285.0	3.297
39	550.0/305.0	9.674
40	560.0/310.0	9.907

Wavelength data
No.	EX/EM(nm)	Height(Data)	

Data points
	220.0	225.0	230.0	235.0	240.0	245.0	250.0	255.0	260.0	265.0	270.0	275.0	280.0	285.0	290.0	295.0	300.0	305.0	310.0	315.0	320.0	325.0	330.0	335.0	340.0	345.0	350.0	355.0	360.0	365.0	370.0	375.0	380.0	385.0	390.0	395.0	400.0	405.0	410.0	415.0	420.0	425.0	430.0	435.0	440.0	445.0	450.0	455.0	460.0	465.0	470.0	475.0	480.0	485.0	490.0	495.0	500.0	505.0	510.0	515.0	520.0	525.0	530.0	535.0	540.0	545.0	550.0	555.0	560.0	565.0	570.0	575.0	580.0	585.0	590.0	595.0	600.0
230.0	30.62	687.8	2145	756.3	36.91	5.789	4.362	4.000	3.816	3.297	2.861	2.944	2.722	2.368	1.685	1.570	1.291	1.191	1.110	1.014	0.721	0.797	0.677	0.678	0.611	0.566	0.528	0.495	0.500	0.479	0.500	0.440	0.343	0.365	0.363	0.342	0.364	0.309	0.280	0.262	0.269	0.318	0.335	0.268	0.249	0.237	0.835	3.707	6.639	4.949	1.727	0.414	0.194	0.162	0.168	0.193	0.179	0.178	0.168	0.181	0.171	0.165	0.160	0.178	0.167	0.143	0.155	0.152	0.141	0.173	0.163	0.162	0.190	0.157	0.147	0.151	0.168
235.0	68.25	203.0	1285	2520	644.3	55.90	6.066	4.991	5.049	3.953	3.315	3.633	2.856	2.356	1.783	1.631	1.428	1.336	1.080	0.903	0.857	0.820	0.855	0.663	0.623	0.740	0.514	0.496	0.450	0.511	0.532	0.425	0.427	0.337	0.278	0.279	0.351	0.295	0.339	0.268	0.261	0.303	0.335	0.305	0.339	0.344	0.383	1.032	2.534	4.976	7.459	7.814	3.417	0.549	0.178	0.193	0.218	0.159	0.176	0.171	0.176	0.149	0.174	0.153	0.148	0.141	0.151	0.155	0.135	0.165	0.145	0.150	0.209	0.127	0.151	0.139	0.144
240.0	86.99	111.6	382.2	2077	2930	516.2	26.37	6.482	4.189	4.108	3.718	3.644	2.807	2.489	1.883	1.819	1.577	1.312	1.230	1.010	0.975	0.926	0.890	0.716	0.766	0.647	0.509	0.549	0.480	0.542	0.484	0.403	0.508	0.321	0.385	0.288	0.304	0.333	0.405	0.284	0.285	0.253	0.294	0.286	0.445	0.431	0.434	0.475	0.705	1.507	4.305	10.24	11.95	7.875	2.551	0.383	0.279	0.162	0.171	0.233	0.159	0.171	0.167	0.145	0.158	0.169	0.185	0.148	0.123	0.149	0.137	0.150	0.161	0.173	0.220	0.175	0.149
245.0	77.90	145.2	142.7	690.9	3055	3124	365.6	12.00	5.227	5.307	4.441	3.967	2.922	2.583	2.110	1.928	1.595	1.230	1.196	1.004	0.954	0.919	0.696	0.768	0.686	0.622	0.602	0.605	0.528	0.600	0.437	0.490	0.450	0.364	0.393	0.336	0.302	0.283	0.351	0.361	0.243	0.254	0.232	0.261	0.309	0.544	0.640	0.556	0.432	0.496	1.135	3.474	8.957	14.91	13.74	6.667	1.587	0.209	0.172	0.196	0.272	0.172	0.183	0.143	0.180	0.206	0.166	0.148	0.165	0.181	0.166	0.162	0.155	0.193	0.209	0.148	0.162
250.0	35.35	106.2	209.9	246.2	971.9	2962	3751	1257	67.38	7.417	5.872	4.285	3.774	2.794	2.416	1.852	1.596	1.443	1.219	1.071	1.018	0.963	0.742	0.765	0.687	0.728	0.613	0.673	0.537	0.490	0.520	0.503	0.390	0.417	0.361	0.316	0.346	0.272	0.288	0.326	0.277	0.261	0.220	0.283	0.274	0.330	0.406	0.644	0.731	0.679	0.618	0.970	2.320	4.945	8.879	13.80	16.80	13.38	7.166	1.743	0.310	0.229	0.184	0.183	0.207	0.181	0.174	0.177	0.151	0.184	0.193	0.167	0.181	0.187	0.173	0.164	0.182
255.0	21.22	38.33	143.1	303.4	320.0	752.8	2899	5728	1721	57.78	8.148	5.640	4.520	3.294	2.478	1.996	1.902	1.609	1.175	1.311	1.095	0.955	0.758	0.748	0.777	0.675	0.558	0.777	0.535	0.544	0.574	0.443	0.514	0.408	0.334	0.305	0.326	0.284	0.384	0.312	0.294	0.258	0.288	0.312	0.293	0.304	0.265	0.343	0.528	0.790	1.100	1.167	0.911	1.344	2.270	3.466	6.607	15.92	26.05	23.15	10.18	1.668	0.220	0.272	0.185	0.246	0.173	0.218	0.162	0.202	0.180	0.175	0.168	0.157	0.197	0.144	0.173
260.0	24.64	22.42	58.99	250.1	341.1	228.2	871.0	4758	6239	316.5	24.52	8.316	6.230	3.998	3.394	2.641	2.015	1.486	1.531	1.417	1.044	1.175	0.868	0.672	0.670	0.706	0.578	0.644	0.597	0.582	0.525	0.480	0.426	0.389	0.378	0.354	0.335	0.320	0.315	0.314	0.278	0.305	0.348	0.319	0.265	0.293	0.247	0.250	0.288	0.371	0.821	1.538	1.431	1.048	0.831	0.999	1.795	4.428	12.45	25.52	31.59	21.86	7.820	0.875	0.300	0.217	0.205	0.257	0.181	0.184	0.148	0.165	0.164	0.176	0.195	0.193	0.204
265.0	23.21	19.79	26.78	110.7	368.8	243.6	231.7	1613	6648	5770	242.0	13.57	7.163	5.355	4.117	2.655	2.404	1.798	1.745	1.450	1.336	1.084	0.965	0.944	0.762	0.798	0.824	0.779	0.546	0.533	0.588	0.595	0.434	0.456	0.324	0.344	0.340	0.339	0.320	0.262	0.309	0.339	0.346	0.290	0.281	0.307	0.245	0.262	0.194	0.252	0.347	0.789	1.554	1.903	1.116	0.602	0.691	1.273	3.226	8.027	19.09	34.92	32.01	18.21	3.924	0.401	0.238	0.268	0.214	0.215	0.236	0.195	0.181	0.183	0.187	0.211	0.182
270.0	34.50	31.97	26.90	44.03	164.4	375.3	293.1	419.9	2134	6070	5684	951.6	47.69	7.360	4.802	3.559	2.931	2.483	1.929	1.585	1.335	1.191	0.943	0.932	0.909	0.869	0.847	0.795	0.671	0.582	0.663	0.598	0.489	0.499	0.465	0.388	0.352	0.339	0.313	0.325	0.313	0.349	0.337	0.309	0.329	0.327	0.258	0.284	0.258	0.232	0.218	0.372	0.599	1.073	1.469	1.780	1.597	0.905	1.046	2.069	4.745	10.59	18.47	28.77	31.05	29.11	13.45	3.812	0.485	0.237	0.259	0.231	0.208	0.187	0.202	0.213	0.184
275.0	69.06	72.72	65.01	49.90	64.15	170.5	502.0	356.1	545.5	1562	5287	9999.9	1268	36.92	7.515	5.542	3.516	3.053	2.066	1.801	1.409	1.132	1.218	1.006	0.883	0.951	0.816	0.922	0.633	0.814	0.668	0.568	0.530	0.575	0.561	0.520	0.417	0.422	0.349	0.420	0.339	0.344	0.372	0.409	0.392	0.421	0.376	0.371	0.347	0.264	0.276	0.282	0.375	0.438	0.584	1.039	2.189	2.794	1.886	0.982	1.389	2.739	4.545	7.054	10.28	24.15	44.09	32.87	20.74	4.028	0.411	0.258	0.273	0.224	0.228	0.208	0.209
280.0	114.5	140.4	124.1	77.46	59.16	82.95	314.8	610.3	309.6	457.5	1650	8555	8993	178.3	15.95	7.506	4.717	3.757	2.567	2.089	1.910	1.311	1.331	1.117	1.283	0.921	1.002	0.967	0.788	0.804	0.779	0.648	0.526	0.461	0.709	0.530	0.496	0.440	0.452	0.450	0.431	0.390	0.483	0.479	0.558	0.544	0.488	0.540	0.530	0.401	0.385	0.367	0.354	0.367	0.419	0.521	0.939	2.193	3.106	2.408	1.325	1.113	1.549	2.204	2.929	6.641	16.60	34.06	51.94	30.93	14.66	1.927	0.375	0.276	0.265	0.241	0.231
285.0	163.2	221.7	214.3	129.6	78.96	75.31	163.6	571.3	607.8	316.7	585.4	2942	9999.9	6796	127.7	9.854	5.836	4.313	3.174	2.311	1.975	1.796	1.421	1.224	1.300	0.953	1.168	0.899	0.848	0.767	0.739	0.638	0.589	0.645	0.662	0.611	0.557	0.632	0.445	0.487	0.464	0.446	0.492	0.556	0.628	0.557	0.648	0.705	0.630	0.632	0.485	0.485	0.406	0.425	0.435	0.419	0.589	1.106	1.797	3.080	3.297	1.892	1.209	1.280	1.574	2.501	4.569	9.750	23.80	42.85	52.44	26.20	8.179	0.857	0.311	0.278	0.249
290.0	284.3	390.0	372.4	239.2	137.5	118.0	159.0	335.5	766.6	843.4	671.3	1163	3437	7730	6808	512.9	27.28	6.400	4.168	3.333	2.360	2.308	1.637	1.445	1.393	1.184	1.159	0.918	0.950	0.850	0.853	0.750	0.608	0.740	0.720	0.720	0.725	0.648	0.633	0.540	0.581	0.519	0.603	0.713	0.805	0.803	1.105	1.183	1.088	0.966	0.729	0.684	0.605	0.538	0.558	0.577	0.710	0.834	1.121	1.744	2.625	3.449	3.800	3.186	2.505	2.424	2.912	3.921	7.145	12.47	22.36	32.19	32.93	35.86	17.43	6.747	0.866
295.0	383.0	565.6	540.9	360.3	214.4	182.1	218.7	334.7	615.7	1215	1382	1136	1430	2197	5903	7692	700.3	21.76	6.578	4.282	3.348	2.724	2.177	1.630	1.427	1.290	1.250	0.948	0.875	0.898	0.994	0.719	0.782	0.829	0.901	0.803	0.866	0.776	0.665	0.649	0.587	0.709	0.755	0.773	0.890	1.262	1.523	1.578	1.481	1.293	1.058	0.976	0.864	0.732	0.787	0.781	0.889	0.978	1.256	1.612	2.108	2.347	3.631	5.086	6.276	4.767	3.949	3.826	4.326	5.198	6.676	8.679	9.716	20.64	41.44	53.00	27.31
300.0	464.6	688.0	674.2	457.1	282.6	255.5	307.7	444.9	691.7	1171	1951	1613	1245	987.1	1871	7706	6371	101.0	13.00	6.110	4.013	3.500	2.761	1.885	1.682	1.450	1.409	1.239	1.028	0.926	0.966	0.803	0.668	0.854	1.024	0.888	0.956	0.967	0.811	0.767	0.643	0.721	0.862	0.991	1.100	1.472	1.674	1.911	1.850	1.535	1.289	1.234	1.045	0.938	1.018	0.950	1.250	1.382	1.572	2.043	2.308	2.658	3.539	4.779	6.332	8.054	6.736	5.201	4.580	4.259	4.243	4.160	3.691	5.918	13.33	31.76	52.89
305.0	540.8	800.9	816.6	542.9	372.9	367.4	457.6	635.1	937.1	1381	2133	2459	1657	998.2	860.7	2752	8950	4907	78.14	8.482	5.534	4.030	3.062	2.308	1.813	1.648	1.615	1.387	1.305	0.906	1.001	0.935	0.715	0.894	1.040	1.055	1.030	1.029	0.814	0.786	0.760	0.791	0.863	1.052	1.301	1.660	1.898	2.219	2.142	1.888	1.456	1.548	1.445	1.376	1.306	1.530	1.858	1.986	2.269	2.776	3.133	3.660	4.370	5.221	6.564	8.276	9.674	8.787	7.493	6.230	4.956	3.979	3.450	3.506	4.773	9.097	20.30
310.0	567.6	847.1	911.3	668.4	480.6	476.0	600.9	799.6	1105	1549	2100	2581	2341	1329	841.8	1040	3120	6435	5715	338.6	19.34	5.526	3.925	3.180	2.428	1.903	1.800	1.520	1.321	1.123	1.119	0.923	0.850	0.878	1.050	1.019	1.005	0.986	0.900	0.828	0.800	0.859	1.001	1.145	1.300	1.654	2.080	2.586	2.379	2.107	1.755	1.826	1.866	1.621	1.655	1.934	2.100	2.679	3.017	3.361	3.787	4.419	5.278	6.240	7.326	7.741	8.520	9.454	9.907	9.018	7.105	5.169	4.244	3.786	3.554	4.266	6.413
315.0	578.0	925.8	1005	753.1	588.7	567.6	673.8	879.8	1149	1558	2035	2333	2331	1834	997.4	741.7	1127	1771	4907	7054	493.4	15.66	5.829	4.065	3.100	2.349	1.979	1.793	1.634	1.409	1.235	1.025	0.923	1.036	1.023	0.966	1.031	0.958	0.838	0.796	0.842	0.868	1.058	1.216	1.612	1.821	2.201	2.825	2.691	2.193	1.966	2.097	2.049	1.905	2.007	2.174	2.294	2.957	3.153	3.557	3.900	4.728	5.553	6.114	7.095	7.622	8.024	8.504	8.740	8.918	8.837	7.679	5.559	4.602	3.901	3.349	3.699
320.0	618.5	994.6	1101	831.3	630.1	612.0	716.4	903.4	1162	1532	1993	2227	2131	1925	1286	751.6	725.6	651.5	1441	6192	4628	73.20	9.385	5.174	3.858	2.592	2.507	2.019	1.765	1.405	1.279	1.080	1.088	1.169	1.174	0.968	1.039	0.923	0.801	0.938	0.797	0.866	1.035	1.149	1.586	1.967	2.355	2.864	2.867	2.415	2.161	2.255	2.208	2.055	2.134	2.344	2.773	3.019	3.316	3.606	4.025	4.620	5.239	6.003	6.594	7.283	7.687	8.230	8.293	7.766	7.803	8.064	7.680	5.838	4.315	3.752	3.250
325.0	623.2	1119	1251	938.9	685.6	633.2	720.9	909.7	1106	1455	1842	2080	1979	1686	1500	881.6	649.8	419.1	432.9	1995	6584	3760	60.87	7.445	4.698	3.395	2.810	2.095	1.673	1.493	1.388	1.201	1.126	1.265	1.039	1.081	1.057	0.980	0.882	0.867	0.887	0.860	1.045	1.196	1.513	1.853	2.585	3.235	3.438	3.043	2.470	2.707	2.439	2.438	2.137	2.352	2.784	3.090	3.347	3.535	3.732	4.487	5.092	5.704	6.448	6.691	7.144	7.574	7.493	7.365	6.718	6.722	7.335	7.129	5.731	4.323	3.653
330.0	653.9	1166	1437	1228	885.1	697.7	711.2	870.8	1027	1327	1650	1871	1798	1492	1293	1100	741.0	401.1	249.0	542.0	2080	4796	4602	273.0	17.61	4.743	3.383	2.415	2.095	1.867	1.486	1.290	1.167	1.164	1.107	1.124	0.962	1.044	0.878	0.948	0.947	0.940	1.075	1.240	1.495	2.029	2.607	3.496	3.808	3.573	3.366	3.686	3.046	2.707	2.508	2.439	2.700	3.101	3.360	3.524	3.544	4.037	4.756	5.280	5.686	6.306	6.548	6.955	6.932	6.715	6.156	6.051	5.874	5.559	5.690	5.307	4.888
335.0	674.7	1196	1543	1457	1094	797.3	712.6	858.2	973.0	1200	1464	1662	1626	1367	1116	972.4	957.4	511.1	257.4	255.5	556.6	1215	3784	6011	430.8	16.89	5.196	3.291	2.650	2.293	1.773	1.454	1.296	1.226	1.183	1.042	0.924	0.965	0.903	0.928	0.909	0.886	1.011	1.226	1.539	1.967	2.714	3.742	3.904	4.005	3.702	4.150	3.904	3.367	2.942	2.608	2.622	2.763	3.030	3.219	3.355	3.999	4.266	4.789	5.101	5.722	5.794	6.345	5.874	6.116	6.004	5.660	5.242	4.959	4.711	4.202	4.707
340.0	673.0	1191	1592	1542	1186	843.4	744.2	826.6	918.8	1107	1333	1490	1494	1278	1053	854.8	882.8	684.9	309.0	217.6	241.1	356.7	1090	5027	3813	342.9	9.576	4.175	3.134	2.602	2.043	1.642	1.421	1.218	1.065	0.988	0.947	0.863	0.934	0.837	0.981	0.821	1.006	1.225	1.441	2.013	2.683	3.738	4.053	4.252	4.078	4.434	4.057	3.539	2.939	2.722	3.030	3.005	3.097	3.082	3.434	3.783	3.863	4.494	4.693	4.995	5.486	5.347	5.672	5.446	5.681	5.479	4.961	4.644	4.321	3.789	3.863
345.0	612.5	1146	1544	1589	1229	900.8	774.7	809.4	882.8	1026	1231	1351	1362	1186	996.0	798.0	731.5	739.5	451.7	246.0	194.0	185.0	318.1	1569	5324	3367	54.84	6.645	4.010	2.751	2.435	1.885	1.554	1.335	1.125	1.056	0.988	0.865	0.909	0.893	0.884	0.728	0.972	1.149	1.379	1.865	2.547	3.484	3.994	3.953	4.220	4.656	4.126	3.758	3.168	2.857	2.886	2.950	3.087	3.234	3.209	3.511	3.701	4.151	4.431	4.603	4.916	4.959	5.091	5.130	4.874	5.115	4.462	4.297	4.243	3.837	3.680
350.0	560.6	1019	1467	1589	1310	970.1	819.1	835.4	869.0	982.8	1120	1207	1218	1097	940.0	777.8	671.2	609.9	573.1	400.8	236.0	182.9	177.1	421.7	1632	3841	3805	973.7	18.25	4.085	2.926	2.083	1.663	1.377	1.187	1.096	1.053	0.965	0.891	0.916	0.848	0.699	0.994	1.172	1.339	1.833	2.440	3.343	3.787	3.981	4.127	4.834	4.183	3.931	3.302	2.854	2.999	3.007	2.983	3.042	3.292	3.265	3.571	4.094	4.023	4.186	4.309	4.421	4.622	4.611	4.571	4.606	4.152	4.140	3.874	3.622	3.507
355.0	515.7	945.9	1341	1486	1308	1039	876.0	872.5	878.1	963.6	1051	1106	1097	1013	896.0	760.0	661.3	559.0	504.3	539.6	377.0	231.0	182.4	194.4	431.0	944.4	2707	5019	414.1	20.18	4.138	2.795	1.992	1.787	1.320	1.141	1.089	0.988	0.849	0.946	0.788	0.894	0.926	1.066	1.357	1.721	2.093	3.106	3.304	3.435	3.837	4.713	4.319	4.004	3.518	3.137	3.218	3.172	3.166	3.084	3.107	3.438	3.441	3.690	3.727	3.976	3.790	4.059	4.265	4.325	4.363	4.404	4.040	4.091	3.864	3.601	3.525
360.0	482.6	918.4	1249	1413	1298	1070	922.9	895.4	901.7	940.7	997.6	1039	1042	962.6	869.1	755.6	671.6	573.3	487.2	507.9	511.6	310.2	212.2	171.4	186.5	273.3	744.7	3644	3487	352.9	11.01	3.717	2.547	1.975	1.543	1.241	1.158	0.964	0.937	0.960	0.855	0.856	0.905	1.160	1.129	1.579	2.070	2.907	3.130	3.396	3.650	4.233	4.368	3.987	3.691	3.204	3.630	3.201	3.281	3.342	3.103	3.184	3.635	3.918	3.801	3.745	3.771	3.734	3.855	4.338	3.949	3.979	3.997	3.954	3.782	3.690	3.717
365.0	466.7	812.7	1158	1352	1267	1095	964.2	931.4	916.6	940.4	981.7	994.5	1001	934.8	852.2	756.4	682.1	594.8	504.3	474.1	528.1	440.5	260.5	192.5	155.2	143.6	223.6	1068	4037	3240	53.32	6.983	3.298	2.570	1.623	1.320	1.162	1.065	0.996	0.909	0.834	0.868	1.020	1.109	1.243	1.637	1.757	2.694	3.114	3.218	3.514	4.098	4.240	3.943	3.658	3.290	3.485	3.285	3.426	3.447	3.330	3.331	3.539	3.682	3.514	3.693	3.545	3.539	3.866	3.795	4.004	3.559	3.667	3.751	3.921	3.554	3.684
370.0	439.8	737.4	1085	1262	1266	1139	1018	967.6	949.8	953.6	975.1	972.4	961.1	906.1	837.2	758.1	694.3	622.8	545.2	493.4	477.9	496.0	406.1	260.0	188.4	150.2	138.0	303.7	1178	3134	3473	1010	19.63	4.186	2.330	1.732	1.401	1.197	1.027	0.977	0.855	0.804	0.971	1.098	1.294	1.500	1.698	2.487	2.835	2.916	3.331	3.908	4.087	4.104	3.967	3.520	3.741	3.673	3.538	3.616	3.389	3.555	3.608	3.669	3.548	3.540	3.530	3.663	3.643	3.734	3.635	3.676	3.714	3.725	3.634	3.590	3.694
375.0	422.0	673.1	1011	1190	1248	1147	1039	997.0	965.4	959.1	966.1	960.3	960.8	896.4	816.9	758.5	705.3	643.6	584.0	531.4	481.6	459.9	485.1	398.0	252.8	197.8	166.9	174.7	335.3	779.1	2196	4380	367.4	23.30	3.593	2.334	1.698	1.307	1.227	1.008	0.875	0.813	0.999	1.084	1.362	1.369	1.640	2.393	2.718	2.852	3.086	3.844	3.805	3.861	3.913	3.872	3.730	3.833	3.787	3.927	3.381	3.594	3.651	3.702	3.626	3.659	3.372	3.450	3.290	3.569	3.252	3.524	3.659	3.740	3.383	3.773	3.455
380.0	401.7	672.9	964.6	1145	1219	1160	1049	993.3	975.6	963.2	964.7	953.2	957.2	882.1	800.6	749.5	704.6	650.9	599.3	546.9	499.5	458.0	465.2	483.4	337.5	239.2	204.0	177.0	170.4	249.6	632.2	2957	2993	312.4	11.55	3.058	1.864	1.545	1.361	1.074	0.946	0.843	1.156	1.061	1.180	1.531	1.697	2.168	2.703	2.669	2.805	3.933	4.010	3.827	3.844	3.998	3.648	3.816	3.871	3.785	3.600	3.559	3.918	3.808	3.686	3.701	3.538	3.640	3.407	3.640	3.524	3.492	3.830	3.779	3.504	3.616	3.439
385.0	406.1	650.0	906.9	1093	1186	1146	1064	1008	970.5	954.4	959.2	944.9	939.0	870.6	794.2	735.0	697.7	655.6	611.4	570.8	514.9	472.8	441.5	476.4	430.0	291.1	233.5	195.6	152.8	147.1	231.4	883.4	3082	2669	227.4	5.360	2.476	1.828	1.441	1.206	1.004	0.999	1.020	1.190	1.246	1.519	1.676	2.100	2.583	2.621	2.777	3.814	3.893	4.106	3.862	3.763	3.628	3.910	3.615	3.566	3.398	3.589	3.762	3.783	3.677	3.639	3.386	3.432	3.607	3.600	3.682	3.623	3.692	3.570	3.427	3.415	3.496
390.0	373.3	616.2	862.3	1032	1122	1115	1029	1001	965.1	932.6	930.3	899.3	896.5	829.5	763.1	716.2	683.6	649.4	613.8	573.0	526.9	484.8	447.5	430.1	433.4	380.9	276.6	213.4	163.8	134.1	141.3	270.6	872.5	2232	2577	809.4	15.93	2.621	1.918	1.420	1.106	0.992	1.063	1.104	1.217	1.353	1.626	2.029	2.367	2.422	2.661	3.505	3.481	3.879	3.687	3.611	3.590	3.579	3.580	3.444	3.399	3.749	3.495	3.577	3.329	3.417	3.280	3.352	3.431	3.588	3.518	3.538	3.418	3.459	3.218	3.425	3.611
395.0	354.7	572.6	773.8	977.4	1071	1076	1025	992.3	944.0	912.0	897.1	873.6	860.9	800.3	728.8	694.5	666.4	634.5	600.4	569.0	536.9	493.3	462.0	425.7	393.9	402.0	369.8	255.3	188.9	153.6	140.1	146.1	241.8	535.5	1431	3098	304.9	19.36	2.806	1.816	1.479	1.160	1.082	1.110	1.219	1.465	1.601	1.919	2.042	2.321	2.345	3.274	3.514	3.637	3.629	3.592	3.465	3.795	3.378	3.544	3.364	3.463	3.491	3.601	3.309	3.494	3.290	3.339	3.341	3.457	3.298	3.411	2.954	3.073	3.094	3.411	3.505
400.0	340.7	553.4	756.4	944.4	1029	1046	1010	976.2	930.6	896.2	883.9	857.4	850.5	784.3	703.2	665.8	644.1	622.2	593.8	561.5	535.6	500.1	467.8	431.2	390.0	374.3	404.6	319.7	216.8	174.8	156.1	131.6	111.7	152.0	372.5	1898	2451	271.6	10.54	2.279	1.736	1.411	1.180	1.274	1.204	1.242	1.520	1.787	1.910	2.249	2.380	3.192	3.347	3.490	3.617	3.541	3.365	3.618	3.601	3.488	3.543	3.289	3.461	3.422	3.465	3.284	3.216	3.285	3.374	3.326	3.241	2.946	2.938	3.070	2.957	3.088	3.303
405.0	338.2	539.5	746.8	890.8	998.3	1007	972.2	958.6	922.0	891.9	879.7	837.0	819.1	753.6	682.7	640.7	623.2	599.5	579.7	553.1	526.0	494.8	466.0	435.4	391.7	361.6	384.1	374.0	254.6	193.6	170.0	140.7	90.69	73.28	109.5	518.1	2096	2210	208.2	4.983	1.992	1.549	1.418	1.353	1.199	1.453	1.589	1.991	2.003	2.090	2.281	3.014	3.239	3.183	3.501	3.319	3.590	3.471	3.509	3.394	3.310	3.273	3.406	3.392	3.389	3.104	3.131	3.177	3.086	3.196	3.170	3.208	2.999	3.065	3.042	2.966	3.086
410.0	305.5	497.2	704.0	832.3	945.4	961.1	940.3	925.0	897.0	859.0	842.7	803.8	775.0	719.3	651.2	612.4	592.5	567.3	554.4	529.6	507.0	480.1	456.2	429.7	391.1	358.0	346.4	352.4	313.4	227.9	178.7	143.6	93.96	65.80	57.23	138.2	565.8	1613	1976	644.5	14.27	2.013	1.534	1.418	1.282	1.373	1.455	1.755	2.063	2.015	2.093	2.920	2.908	3.060	3.223	3.117	3.467	3.514	3.383	3.288	3.401	3.383	3.184	3.376	3.379	3.030	2.973	2.961	2.945	3.026	3.073	2.988	2.778	2.991	2.798	2.812	2.980
415.0	293.1	464.7	653.7	788.3	881.8	892.6	909.4	913.2	873.7	831.3	805.5	765.9	725.1	673.4	619.6	571.0	554.7	536.2	517.1	502.6	482.1	463.8	440.4	414.0	386.6	354.3	329.8	311.8	312.1	284.5	201.4	151.1	105.3	74.06	54.52	59.09	145.8	381.2	1019	2247	274.4	16.66	1.996	1.664	1.500	1.434	1.569	1.730	1.956	2.057	2.241	2.793	2.712	2.916	3.049	2.999	3.350	3.139	3.321	3.284	3.316	3.342	3.162	3.094	3.246	2.907	2.973	2.938	2.741	2.885	2.833	2.777	2.748	2.919	2.739	2.764	2.866
420.0	290.5	458.4	621.7	737.8	826.0	870.7	870.2	884.3	851.7	819.1	786.4	746.2	701.2	648.7	593.2	545.3	524.9	510.2	495.1	478.8	458.8	446.5	423.8	403.9	376.1	352.1	326.6	298.6	282.9	297.8	242.0	165.6	114.2	81.97	58.65	46.63	56.06	101.9	261.3	1357	2016	237.3	8.127	1.978	1.655	1.545	1.542	1.663	1.938	1.909	2.047	2.565	2.641	2.765	3.061	3.092	3.324	2.929	3.248	3.033	3.061	3.209	3.000	3.176	2.943	3.084	2.655	2.811	2.657	2.751	2.714	2.568	2.568	2.572	2.600	2.732	2.512
425.0	288.5	433.7	602.2	725.7	790.5	843.1	836.9	867.0	835.8	802.0	778.5	729.9	666.7	627.3	563.0	525.8	499.7	489.4	475.6	457.5	442.7	425.9	415.3	396.8	370.0	348.2	325.3	298.6	272.0	276.5	274.3	192.3	123.9	90.35	66.42	49.45	40.37	42.06	72.88	365.8	1552	1730	36.66	3.907	1.933	1.729	1.651	1.701	1.750	1.896	2.059	2.370	2.711	2.855	2.837	3.117	3.004	3.295	2.981	3.172	3.054	3.105	3.009	3.327	2.993	2.888	2.653	2.610	2.687	2.646	2.626	2.335	2.490	2.348	2.559	2.456	2.517
430.0	339.2	410.9	567.0	696.8	765.9	798.8	821.4	830.9	814.5	789.6	755.7	706.2	644.6	596.9	532.9	497.6	472.6	456.4	445.5	432.0	419.4	407.1	398.5	381.7	361.4	340.8	320.0	297.8	270.6	254.0	256.2	230.3	153.0	103.3	76.12	57.91	43.72	34.29	34.20	94.83	416.2	1221	1488	495.8	12.66	2.031	1.754	1.777	1.870	1.804	2.015	2.524	2.560	2.720	2.725	2.750	3.000	3.238	2.876	2.988	3.065	3.125	3.047	2.977	2.919	2.840	2.632	2.694	2.531	2.531	2.547	2.373	2.333	2.331	2.376	2.427	2.315
435.0	543.8	399.6	536.6	670.9	727.3	764.9	780.9	806.8	780.2	754.7	727.5	682.6	627.4	565.1	509.3	467.0	445.6	430.9	414.0	406.1	393.7	385.2	372.2	368.6	347.4	335.6	314.1	295.6	270.2	250.6	229.3	224.9	193.7	124.7	87.62	66.69	51.15	38.31	30.58	38.26	105.4	286.9	809.0	1862	252.7	14.18	2.226	1.974	1.861	1.789	1.793	2.557	2.444	2.585	2.556	2.826	2.989	2.981	2.763	2.958	2.985	2.955	2.908	2.925	2.801	2.576	2.718	2.587	2.536	2.534	2.402	2.330	2.187	2.330	2.227	2.260	2.226
440.0	790.9	439.7	525.2	638.3	700.3	739.0	760.5	780.3	778.6	742.6	715.4	671.3	609.6	543.8	486.2	448.1	424.5	409.5	398.5	384.6	379.3	367.3	362.4	353.1	337.7	325.2	307.4	291.0	270.2	249.7	225.4	206.4	201.8	151.4	99.49	73.13	56.18	43.02	32.85	28.08	37.95	75.25	209.7	1190	1757	211.3	6.875	2.295	2.104	1.913	1.867	2.490	2.410	2.399	2.432	2.705	2.760	2.848	2.841	3.009	2.746	2.783	2.773	2.829	2.837	2.352	2.513	2.666	2.660	2.499	2.290	2.345	2.223	1.990	2.242	2.054	2.248
445.0	832.8	671.0	514.7	603.0	676.1	719.4	737.8	754.3	762.3	734.7	703.1	653.2	581.5	520.0	465.0	426.1	401.9	390.3	378.6	368.1	358.9	348.1	343.7	338.6	328.4	313.7	300.9	287.6	267.4	249.1	224.9	198.5	186.2	169.8	116.3	80.53	61.70	47.91	36.12	28.82	25.01	29.23	57.07	327.8	1444	1552	30.37	3.701	2.147	1.961	1.883	2.319	2.266	2.298	2.399	2.572	2.580	2.751	2.776	2.798	2.797	2.651	3.078	2.551	2.828	2.679	2.644	2.507	2.523	2.396	2.333	2.366	1.944	2.095	2.049	2.008	2.044
450.0	536.6	1150	614.5	556.3	636.9	672.8	696.2	715.2	715.7	701.5	668.4	620.8	551.6	490.4	431.9	398.5	371.9	362.2	346.3	337.4	331.2	323.3	321.2	315.6	304.5	295.8	286.1	273.8	259.2	244.8	220.1	192.3	167.4	158.9	140.3	97.00	67.64	52.31	41.44	32.02	25.22	21.91	24.38	82.63	391.5	1157	1350	422.0	10.24	2.355	2.087	2.275	2.277	2.262	2.355	2.412	2.519	2.608	2.680	2.750	2.826	2.716	2.897	2.600	2.756	2.734	2.514	2.520	2.155	2.106	2.094	2.117	2.106	2.035	1.924	1.872	1.999
455.0	273.1	1139	1184	531.9	576.7	605.4	644.6	665.5	670.1	663.9	632.3	580.7	510.2	451.1	400.5	362.6	343.6	326.3	314.0	308.1	303.3	295.6	292.3	288.2	282.4	272.4	267.3	257.6	247.7	234.8	213.8	187.7	161.4	138.2	134.7	119.5	80.33	57.61	45.47	36.11	28.33	22.92	19.27	29.29	95.31	271.0	706.6	1562	206.6	11.14	2.185	2.268	2.391	2.317	2.411	2.197	2.624	2.571	2.465	2.528	2.406	2.352	2.608	2.499	2.570	2.378	2.334	2.268	2.014	2.149	2.156	1.982	2.011	1.858	1.878	1.768	1.917
460.0	202.4	757.8	1733	662.0	539.0	567.9	616.3	623.8	629.3	617.0	603.1	545.0	484.7	424.3	373.2	337.1	320.1	302.6	291.8	283.7	277.1	276.1	272.6	269.0	262.2	256.2	249.8	245.0	236.5	224.2	204.3	180.1	155.9	133.5	120.1	121.5	94.01	62.71	47.28	39.25	30.70	24.34	19.50	18.49	30.41	67.84	179.2	970.4	1367	159.3	6.175	2.592	2.417	2.389	2.387	2.040	2.471	2.300	2.603	2.408	2.408	2.335	2.435	2.486	2.544	2.249	2.215	2.154	1.927	2.010	2.054	1.899	1.753	1.799	1.726	1.617	1.760
465.0	178.1	418.7	1850	1028	510.3	535.4	563.1	598.5	591.6	588.4	570.1	519.2	454.8	398.0	351.2	317.9	295.9	283.5	271.6	262.6	256.4	253.4	250.6	249.2	244.8	236.0	232.2	227.2	220.4	211.4	195.9	173.4	150.7	128.3	109.6	107.4	102.7	72.36	50.63	39.75	33.01	25.83	21.01	17.19	17.30	23.46	46.93	265.4	1141	1135	24.52	4.014	2.388	2.321	2.220	2.057	2.277	2.122	2.359	2.432	2.344	2.290	2.398	2.311	2.443	2.158	1.982	1.988	2.065	1.853	1.861	1.750	1.659	1.749	1.559	1.620	1.697
470.0	174.3	274.7	1084	1953	664.2	490.2	512.8	535.0	534.1	533.8	510.5	476.5	417.1	362.1	319.8	284.8	265.6	248.1	239.4	234.1	228.4	224.6	224.4	221.1	220.1	214.6	208.6	206.7	200.8	196.6	182.0	160.8	142.4	122.8	104.5	93.03	91.26	82.46	58.45	42.32	34.08	27.42	22.30	18.43	15.47	14.72	18.19	65.79	310.6	833.2	947.2	331.5	10.04	2.507	2.148	2.055	2.157	2.162	2.135	2.063	2.134	2.190	2.137	2.018	2.031	2.069	1.928	1.806	1.860	1.812	1.709	1.544	1.634	1.570	1.497	1.513	1.461
475.0	161.9	221.6	498.3	1805	1523	465.4	457.0	473.3	485.4	481.1	464.5	420.7	371.5	326.1	288.9	252.1	237.4	225.2	215.1	205.4	200.7	198.2	196.3	195.6	193.2	192.2	186.6	185.0	182.0	176.7	166.0	149.1	132.3	114.0	97.88	84.40	77.45	76.25	68.87	47.16	35.80	29.29	23.98	19.08	16.43	13.73	12.64	21.63	74.83	194.1	466.5	1070	201.0	11.61	2.392	2.043	2.193	2.142	1.957	1.879	1.949	1.841	2.001	2.012	1.849	1.877	1.807	1.708	1.719	1.633	1.441	1.341	1.479	1.382	1.461	1.328	1.344
480.0	169.8	230.3	331.5	1108	2263	600.2	428.7	438.3	456.5	445.2	430.0	393.6	341.7	304.6	262.3	234.9	214.7	203.6	197.0	190.0	181.7	181.0	179.3	176.1	176.4	178.3	172.6	171.1	167.2	164.8	154.7	138.7	123.7	108.6	94.52	80.32	70.12	66.22	68.58	55.10	37.18	29.32	24.59	19.91	16.63	14.64	11.63	12.33	22.79	48.57	117.2	613.7	1011	176.8	5.460	2.235	2.142	1.958	1.909	1.831	1.916	1.755	1.794	1.859	1.709	1.710	1.505	1.460	1.514	1.571	1.499	1.419	1.448	1.339	1.228	1.290	1.275
485.0	150.4	220.2	279.3	575.7	2309	1145	401.5	414.7	425.9	418.1	407.1	373.7	326.0	286.5	248.4	217.1	200.8	190.0	181.9	177.1	170.6	165.7	168.3	164.8	165.4	163.9	161.2	160.7	157.7	153.9	145.6	131.8	118.6	103.2	90.23	77.55	67.56	60.29	61.73	60.19	42.45	30.34	25.04	20.95	17.55	15.32	12.28	11.11	11.79	16.39	31.18	166.5	804.7	933.3	28.51	3.421	2.353	1.881	2.008	1.782	1.693	1.554	1.797	1.748	1.688	1.709	1.495	1.405	1.501	1.524	1.420	1.484	1.278	1.349	1.178	1.186	0.942
490.0	124.3	224.2	259.6	344.7	1310	2110	514.9	378.6	383.4	382.6	371.1	342.6	300.7	261.2	225.8	199.7	183.2	173.0	164.5	159.2	154.0	150.7	150.5	148.7	147.7	145.9	145.5	145.0	144.1	141.3	134.2	122.1	109.7	97.20	83.64	73.40	63.84	56.09	51.03	53.55	49.30	35.38	26.31	21.80	18.27	15.80	13.28	11.30	9.706	9.823	11.72	41.77	214.7	629.6	830.6	314.0	10.98	2.094	1.894	1.786	1.663	1.646	1.703	1.578	1.480	1.474	1.431	1.321	1.458	1.390	1.249	1.195	1.240	1.267	1.020	1.141	1.082
495.0	98.50	199.2	269.1	277.4	542.3	1997	1413	358.8	348.5	345.0	339.6	306.0	269.7	233.6	205.4	181.5	165.2	156.1	146.1	142.0	138.4	132.9	133.5	131.2	131.7	133.4	131.4	130.7	130.2	128.5	122.5	110.6	99.26	88.91	77.08	68.31	59.44	52.07	45.97	43.99	46.31	42.45	28.77	21.98	18.98	15.97	13.70	12.01	10.10	8.529	7.950	14.26	51.83	146.4	438.8	1034	226.5	12.39	2.109	1.769	1.553	1.626	1.426	1.501	1.342	1.363	1.386	1.350	1.299	1.272	1.100	1.147	1.104	1.222	1.083	0.969	0.937
500.0	97.18	153.8	283.6	253.0	323.8	1232	2229	453.1	321.5	313.6	311.8	283.4	251.3	215.8	185.8	167.2	149.3	142.0	134.1	127.2	126.0	121.5	123.4	120.0	120.6	118.4	117.4	117.4	118.9	118.2	111.3	103.5	91.27	82.02	72.30	64.53	56.63	49.83	43.85	39.81	38.67	42.71	33.28	22.86	18.91	16.03	13.40	11.73	10.78	8.678	7.345	7.818	15.69	36.32	110.2	585.9	998.0	190.1	5.877	1.767	1.752	1.561	1.515	1.554	1.466	1.462	1.210	1.344	1.193	1.251	1.068	1.043	1.149	1.027	0.922	0.982	0.871
505.0	79.88	126.3	254.4	247.9	258.9	606.8	2370	925.3	295.1	292.6	283.3	259.2	234.1	201.3	171.7	151.8	139.4	127.4	120.8	113.6	113.4	110.8	110.3	111.3	109.2	106.9	107.0	106.6	107.8	106.2	102.2	94.40	83.66	77.54	67.14	60.94	53.29	46.64	40.86	36.56	33.59	37.43	35.83	25.15	19.11	16.20	13.41	11.91	10.78	8.989	7.054	6.203	7.622	11.69	28.06	155.2	730.2	880.5	31.57	3.149	1.653	1.515	1.466	1.494	1.311	1.399	1.227	1.149	1.177	1.192	0.906	0.904	0.938	0.936	0.924	0.878	0.825
510.0	72.65	110.7	197.3	268.0	217.9	304.2	1369	2021	360.0	259.1	253.2	233.2	205.4	176.3	151.3	133.3	121.6	112.6	107.9	101.4	100.0	96.24	97.30	95.65	94.78	94.37	93.36	92.29	95.02	93.62	89.14	83.11	75.75	68.16	59.55	54.10	47.91	42.57	37.23	33.52	29.76	29.30	31.25	29.03	21.03	15.81	13.50	11.92	10.12	8.944	7.575	6.310	5.936	6.199	9.458	37.74	191.2	550.4	692.7	135.3	10.93	1.540	1.403	1.433	1.191	1.212	1.110	1.026	0.988	0.976	0.874	0.880	0.892	0.882	0.767	0.815	0.811
515.0	70.52	105.7	152.5	245.1	226.1	210.8	506.5	2111	1150	236.1	218.4	199.3	178.5	153.4	133.5	116.0	106.3	97.70	92.13	86.79	86.25	82.58	84.25	79.44	81.92	81.11	80.76	80.30	80.59	81.41	76.77	71.75	65.11	59.56	52.98	47.55	41.14	37.40	33.13	30.16	27.40	24.71	23.94	27.62	24.65	16.90	12.88	11.55	9.651	8.619	7.532	6.818	5.549	5.224	5.207	11.23	45.16	126.3	312.8	752.3	224.9	12.76	1.505	1.262	1.057	1.111	1.011	0.949	0.977	0.788	0.755	0.890	0.736	0.757	0.739	0.779	0.732
520.0	61.83	92.07	124.4	199.8	228.7	177.3	261.3	1298	2094	308.3	195.1	183.2	159.8	136.4	120.6	104.3	94.45	86.48	81.76	78.08	75.60	74.67	73.97	72.95	72.20	70.68	71.47	71.38	72.33	71.90	69.05	64.48	57.98	53.34	48.31	42.79	37.83	33.65	31.16	27.90	24.87	22.31	20.34	22.88	25.10	19.68	13.36	11.15	9.363	8.075	7.502	6.832	5.652	4.809	4.412	5.365	12.59	30.42	76.22	395.4	746.1	189.4	6.737	1.243	1.037	1.137	0.980	0.859	0.814	0.781	0.766	0.846	0.694	0.628	0.777	0.711	0.676
525.0	49.46	77.34	103.6	156.6	236.9	179.2	182.2	579.4	2439	744.4	180.2	168.4	144.3	124.5	106.8	94.30	85.72	77.88	73.62	69.38	70.08	66.68	65.00	65.14	63.54	64.28	63.38	63.38	64.98	64.58	62.65	58.75	52.42	48.95	43.42	39.18	34.75	30.81	28.12	25.61	22.72	20.35	18.26	18.93	21.82	21.40	14.43	10.73	8.914	7.836	6.857	6.171	5.663	4.937	4.207	3.844	5.237	9.248	19.27	101.2	474.0	676.9	33.04	3.078	1.104	1.108	0.854	0.796	0.759	0.709	0.661	0.714	0.696	0.634	0.638	0.629	0.624
530.0	49.03	66.54	89.91	119.0	202.1	187.6	152.5	255.1	1440	1902	246.0	145.2	124.2	106.2	93.74	80.78	74.86	65.59	63.90	60.33	59.37	57.06	56.21	55.80	54.83	55.96	55.23	54.96	54.58	55.69	53.62	50.17	45.96	42.11	37.83	34.07	30.90	27.71	25.22	22.86	20.20	18.60	16.37	15.75	16.43	18.50	17.22	11.55	8.530	7.418	6.467	5.682	5.260	5.093	4.279	3.655	3.432	4.293	6.238	24.33	119.4	367.3	500.6	138.5	11.73	1.121	0.940	0.798	0.736	0.717	0.674	0.643	0.599	0.587	0.597	0.574	0.586
535.0	42.95	57.25	73.91	94.06	137.5	204.1	133.8	150.1	480.8	2112	978.8	127.8	105.0	93.20	78.86	69.65	63.41	57.89	55.71	50.78	50.14	47.88	48.02	47.97	46.84	46.43	47.06	46.27	46.33	47.13	45.56	42.35	39.34	35.95	32.10	29.22	26.40	24.40	21.90	19.78	18.40	16.37	14.74	14.11	12.87	13.68	15.86	13.55	8.957	6.911	6.110	5.202	4.845	4.400	4.277	3.409	3.100	2.952	3.418	7.066	28.04	84.01	190.5	512.6	227.9	14.85	1.027	0.871	0.602	0.701	0.560	0.591	0.545	0.545	0.562	0.469	0.496
540.0	42.55	51.57	69.12	84.75	105.9	189.1	142.4	119.6	196.5	1257	1939	180.7	94.99	83.79	69.10	61.64	55.02	50.81	46.45	44.08	43.84	42.94	41.40	41.11	41.27	40.32	40.49	40.71	40.96	40.91	39.79	36.63	33.38	31.30	28.17	25.61	23.19	21.01	19.34	17.67	16.22	14.24	13.19	12.49	11.11	10.73	12.53	14.16	10.21	7.112	5.733	5.109	4.359	4.126	3.713	3.887	2.960	2.717	2.539	3.139	7.699	20.00	45.14	231.2	532.1	189.5	8.477	0.834	0.681	0.627	0.550	0.524	0.441	0.557	0.520	0.459	0.392
545.0	46.39	47.08	61.82	76.06	86.10	152.6	164.5	106.8	121.5	501.5	2319	497.7	84.34	71.80	62.55	53.69	47.81	43.94	40.95	39.45	37.62	37.80	36.39	36.18	35.22	35.43	35.58	35.15	35.58	37.46	34.87	31.38	30.39	27.95	25.02	22.67	20.80	19.05	17.25	15.34	14.40	12.89	11.74	11.04	9.909	9.706	9.642	11.76	11.07	7.717	5.614	4.729	4.069	3.814	3.419	3.611	3.104	2.795	2.323	2.239	3.056	5.691	11.41	56.33	277.7	490.4	137.7	3.489	0.741	0.612	0.526	0.479	0.450	0.473	0.474	0.477	0.362
550.0	37.17	48.09	54.54	65.24	67.74	103.1	166.1	111.3	92.18	189.9	1291	1536	135.0	60.85	51.53	44.69	41.24	37.10	34.87	33.39	30.76	31.41	30.44	29.94	29.24	29.36	29.68	28.93	29.35	29.78	28.59	26.22	24.86	22.40	20.58	18.87	17.65	16.04	14.46	12.86	12.06	11.25	10.11	9.169	8.475	8.264	7.398	8.232	9.617	8.518	5.831	4.307	3.598	3.578	3.114	2.979	2.991	2.806	2.151	2.008	1.962	2.520	3.662	13.68	67.24	220.6	348.1	140.1	13.08	0.861	0.522	0.556	0.462	0.423	0.438	0.443	0.359
555.0	37.88	44.37	45.93	57.57	56.33	68.68	123.1	135.6	79.77	103.6	390.0	1836	637.0	54.50	42.68	37.52	33.98	30.67	28.41	26.96	24.86	25.29	25.18	24.40	23.95	23.69	23.30	22.65	23.99	23.58	22.58	21.07	19.61	18.46	16.39	14.97	14.40	13.23	11.94	10.43	9.919	8.893	8.405	7.794	7.000	6.720	5.973	5.936	6.806	7.558	6.410	4.369	3.237	2.959	2.674	2.428	2.527	2.418	2.439	1.864	1.568	1.590	1.820	3.929	15.88	50.01	108.8	307.2	221.8	17.00	0.721	0.505	0.508	0.511	0.467	0.379	0.413
560.0	40.07	45.20	50.17	47.59	47.16	52.80	86.73	151.6	77.00	76.65	144.7	1112	1418	84.99	35.76	29.74	28.05	25.77	23.19	22.97	20.79	20.52	20.80	20.27	19.89	19.67	19.39	19.61	20.18	18.89	19.01	17.98	16.57	15.13	14.21	12.47	11.64	11.08	9.909	9.556	8.428	7.779	7.522	6.801	6.083	5.710	5.290	4.939	5.181	6.015	6.470	4.745	2.928	2.544	2.237	2.167	2.106	1.966	2.286	1.843	1.447	1.325	1.295	1.615	4.317	11.86	25.46	117.4	332.6	173.1	9.299	0.534	0.421	0.408	0.342	0.291	0.359
565.0	37.33	43.10	45.35	45.62	42.28	47.72	58.74	136.1	85.53	66.82	86.50	426.3	1824	186.3	30.90	26.66	24.80	22.29	20.04	19.19	17.86	17.57	17.86	17.05	17.31	16.33	16.85	16.73	16.42	16.29	15.81	15.45	13.45	13.03	12.31	11.05	9.780	9.477	8.608	8.041	7.351	6.746	6.191	5.769	5.554	5.089	4.371	4.354	4.035	4.321	5.528	4.868	3.244	2.443	2.023	1.970	1.930	1.746	1.900	1.849	1.445	1.118	1.099	1.008	1.712	3.366	6.377	28.10	145.9	310.0	109.5	3.453	0.468	0.408	0.391	0.284	0.337
570.0	40.36	49.80	48.48	42.54	39.18	38.63	46.30	96.19	121.4	70.84	71.09	151.3	1083	1043	66.85	22.04	19.57	18.22	16.33	15.41	14.66	13.87	13.63	13.71	13.67	13.18	13.37	12.95	13.34	13.43	12.98	12.20	11.30	10.11	9.766	8.807	7.693	7.533	6.941	6.454	6.017	5.622	5.147	4.612	4.467	3.993	3.740	3.448	3.207	3.203	3.732	4.288	3.609	2.484	1.917	1.755	1.704	1.482	1.444	1.508	1.525	1.179	1.046	0.926	0.990	1.350	2.067	6.876	34.44	120.5	206.2	116.3	12.85	0.528	0.410	0.247	0.278
575.0	36.97	54.33	48.26	41.22	35.70	36.73	39.13	60.45	130.2	93.99	74.14	92.97	326.4	1362	384.1	20.21	16.57	15.33	13.47	12.22	11.12	11.30	11.02	10.99	10.90	10.81	10.42	10.11	10.46	10.51	10.25	9.547	8.736	8.116	7.775	6.849	6.442	5.952	5.600	4.883	4.860	4.434	4.033	3.697	3.529	3.292	3.108	2.847	2.681	2.316	2.434	2.971	3.458	2.733	1.792	1.459	1.519	1.364	1.158	1.253	1.316	1.365	1.093	0.932	0.824	0.894	1.049	2.007	8.236	27.33	57.96	168.3	160.5	17.14	0.552	0.316	0.289
580.0	39.00	49.29	49.32	42.76	35.25	33.93	35.61	49.51	110.4	125.3	81.60	84.56	126.8	849.2	942.9	35.26	14.35	12.39	11.34	9.995	9.892	9.738	9.149	8.740	9.089	8.918	8.543	8.695	8.887	8.891	8.536	7.845	7.526	6.747	6.469	5.708	5.357	5.235	4.865	4.157	4.180	3.780	3.347	3.169	2.948	3.038	2.545	2.515	2.245	1.933	2.025	2.034	2.771	3.000	2.150	1.397	1.147	1.246	1.073	1.067	0.988	1.130	1.229	1.001	0.768	0.843	0.735	0.973	2.412	6.575	13.58	56.43	188.3	121.6	8.659	0.494	0.319
585.0	44.61	52.87	60.52	42.29	32.97	32.23	35.14	41.68	86.71	146.0	95.67	87.40	84.75	328.9	1263	114.6	12.31	10.80	10.19	9.243	8.532	8.547	8.129	7.646	7.858	7.265	7.174	7.582	7.660	7.284	7.147	6.672	6.247	6.204	5.408	4.913	4.479	4.296	4.042	3.566	3.275	3.126	3.037	2.795	2.599	2.556	2.268	2.294	1.983	1.861	1.631	1.621	2.135	2.565	2.249	1.414	1.069	1.003	1.074	0.866	0.954	0.936	1.158	1.202	0.829	0.792	0.729	0.712	1.062	1.980	3.433	13.36	72.53	182.8	35.84	3.597	0.345
590.0	42.37	56.45	57.70	38.67	30.16	29.96	33.27	40.65	64.71	136.7	123.8	91.82	79.06	111.5	768.5	642.7	29.97	9.601	8.205	7.403	6.958	7.008	6.768	6.414	6.333	6.002	6.065	6.243	6.258	6.032	5.906	5.536	5.268	5.061	4.467	4.104	3.578	3.389	3.186	2.947	2.677	2.522	2.430	2.325	2.172	2.014	1.862	1.804	1.779	1.449	1.366	1.313	1.409	1.867	2.185	1.618	1.140	0.894	0.879	0.776	0.827	0.692	0.919	1.101	0.958	0.771	0.660	0.714	0.722	0.906	1.215	3.336	16.90	64.70	112.8	77.64	12.18
595.0	37.95	50.08	55.32	42.05	33.55	27.76	32.76	41.01	59.18	104.7	154.1	100.9	82.77	60.59	222.5	916.9	113.6	8.771	6.678	6.318	6.078	5.297	5.527	5.156	5.234	4.680	4.830	4.712	4.567	5.053	4.945	4.479	4.194	3.979	3.478	3.331	3.066	2.845	2.645	2.380	2.314	2.082	2.066	1.873	1.955	1.551	1.464	1.455	1.490	1.246	1.163	1.033	1.100	1.207	1.734	1.653	1.321	1.007	0.781	0.672	0.659	0.596	0.815	0.857	1.036	0.860	0.764	0.704	0.650	0.681	0.711	1.094	4.060	14.68	30.39	94.34	102.5
600.0	45.42	51.79	55.05	42.44	31.30	30.02	29.14	41.63	54.95	89.94	160.2	118.9	83.87	50.36	70.27	615.5	510.6	15.80	5.391	5.437	5.401	4.668	4.569	4.407	4.327	3.762	3.955	4.491	3.955	4.172	4.130	3.905	3.502	3.374	3.011	2.755	2.709	2.351	2.124	1.902	1.896	1.691	1.703	1.705	1.657	1.476	1.184	1.291	1.243	1.145	1.058	0.910	0.897	0.925	1.294	1.600	1.433	1.042	0.596	0.699	0.637	0.531	0.665	0.919	0.919	1.069	0.778	0.683	0.582	0.517	0.523	0.642	1.247	3.587	7.141	30.57	110.4
605.0	46.10	45.63	51.18	40.55	29.16	28.39	32.90	39.37	58.15	83.14	151.2	142.0	89.63	53.45	38.32	244.2	779.6	67.90	5.155	4.950	4.642	4.217	4.176	3.987	3.661	3.538	3.226	3.802	3.385	3.322	3.665	3.048	3.202	2.796	2.316	2.472	2.391	2.132	1.937	1.670	1.646	1.670	1.598	1.379	1.385	1.333	1.137	1.229	1.075	0.930	0.897	0.830	0.733	0.783	0.967	1.259	1.306	1.092	0.861	0.706	0.612	0.625	0.679	0.845	0.799	1.105	0.994	0.740	0.678	0.538	0.466	0.521	0.554	1.097	1.872	7.175	40.51
610.0	43.47	50.81	57.22	42.38	30.93	31.14	38.09	47.49	66.71	92.73	139.3	167.6	113.4	67.01	41.55	81.02	547.4	392.7	13.70	4.215	3.866	3.558	3.378	3.258	3.062	2.965	3.187	2.931	2.578	2.817	2.715	2.489	2.405	2.146	1.953	1.966	1.900	1.728	1.621	1.329	1.371	1.301	1.232	1.258	1.127	1.071	0.998	1.024	0.844	0.784	0.710	0.768	0.722	0.657	0.738	0.800	1.084	1.141	0.968	0.688	0.627	0.586	0.684	0.666	0.854	0.828	0.941	1.016	0.784	0.579	0.543	0.452	0.496	0.526	0.706	1.905	9.525
615.0	39.29	52.51	53.64	39.16	34.82	32.24	39.60	49.42	67.45	96.26	128.0	167.7	130.3	71.31	46.63	44.87	178.3	627.8	79.58	3.469	3.295	2.980	2.590	2.629	2.395	2.356	2.320	2.375	2.025	2.172	2.100	1.909	1.860	1.798	1.683	1.482	1.417	1.285	1.301	1.036	1.064	1.120	0.997	0.947	0.922	0.916	0.791	0.873	0.809	0.722	0.568	0.709	0.639	0.579	0.606	0.583	0.832	0.962	1.036	0.753	0.679	0.646	0.628	0.617	0.719	0.716	0.767	0.885	0.951	0.666	0.633	0.469	0.444	0.398	0.425	0.701	2.369
620.0	41.07	53.48	59.66	38.47	31.18	29.72	38.10	49.22	64.30	88.69	117.3	148.5	137.1	73.04	45.96	34.81	63.75	470.1	320.1	7.164	2.752	2.432	2.215	2.276	2.065	1.946	1.870	2.034	1.668	1.915	1.853	1.692	1.641	1.569	1.483	1.304	1.294	1.104	1.080	1.009	0.996	0.848	0.872	0.814	0.833	0.718	0.784	0.768	0.631	0.597	0.558	0.609	0.538	0.489	0.566	0.533	0.547	0.851	0.972	0.743	0.699	0.622	0.633	0.566	0.698	0.651	0.729	0.772	0.913	0.849	0.630	0.465	0.405	0.440	0.412	0.388	0.720
625.0	42.05	60.90	62.24	36.53	31.26	31.90	37.99	49.21	62.46	84.99	108.5	130.4	143.1	77.87	45.46	31.17	35.75	206.1	544.2	33.79	2.804	2.179	2.086	1.791	1.769	1.745	1.568	1.843	1.635	1.696	1.522	1.536	1.395	1.175	1.234	1.192	1.164	1.139	1.099	0.911	0.924	0.789	0.799	0.749	0.727	0.662	0.725	0.758	0.609	0.482	0.440	0.603	0.482	0.544	0.506	0.553	0.452	0.628	0.766	0.803	0.689	0.527	0.612	0.496	0.669	0.660	0.655	0.716	0.738	0.872	0.645	0.469	0.431	0.460	0.329	0.367	0.436
630.0	36.57	53.01	50.44	38.64	30.05	31.72	36.64	47.69	59.63	80.45	100.9	112.4	125.8	89.45	46.47	31.41	29.43	63.39	416.9	210.8	6.866	2.119	1.824	1.669	1.696	1.676	1.347	1.478	1.316	1.293	1.243	1.153	1.083	1.085	0.939	0.953	0.969	0.956	0.875	0.736	0.768	0.615	0.609	0.670	0.613	0.550	0.582	0.614	0.596	0.450	0.429	0.461	0.402	0.452	0.488	0.459	0.489	0.490	0.594	0.715	0.685	0.575	0.529	0.531	0.609	0.576	0.551	0.584	0.650	0.678	0.658	0.580	0.399	0.370	0.324	0.323	0.328
635.0	34.10	50.95	53.29	42.88	31.25	34.75	37.23	44.16	53.92	74.42	93.56	103.5	104.6	97.93	47.96	32.87	27.72	26.16	132.8	443.9	52.32	2.274	1.715	1.368	1.504	1.380	1.142	1.046	1.132	1.212	1.196	0.960	1.010	0.861	0.796	0.836	0.721	0.660	0.673	0.626	0.516	0.600	0.490	0.533	0.517	0.525	0.515	0.453	0.528	0.465	0.350	0.367	0.412	0.376	0.382	0.365	0.400	0.369	0.510	0.588	0.703	0.647	0.552	0.475	0.514	0.555	0.520	0.613	0.533	0.560	0.582	0.611	0.507	0.353	0.310	0.332	0.276
640.0	32.33	55.28	50.38	38.67	32.16	31.93	36.14	41.79	50.42	66.71	91.11	95.43	95.64	93.83	56.09	32.02	27.12	17.44	37.34	370.2	201.8	3.243	1.586	1.434	1.327	1.291	1.040	1.044	0.982	0.979	1.138	0.827	0.863	0.773	0.660	0.633	0.560	0.572	0.526	0.582	0.451	0.571	0.462	0.510	0.522	0.451	0.425	0.462	0.494	0.355	0.314	0.387	0.352	0.334	0.352	0.374	0.330	0.378	0.412	0.464	0.524	0.593	0.557	0.463	0.503	0.506	0.455	0.562	0.529	0.506	0.577	0.630	0.637	0.401	0.327	0.314	0.285
645.0	42.05	54.92	50.90	37.78	29.83	28.47	31.95	40.53	48.01	64.12	84.39	91.23	87.98	83.55	62.93	31.99	26.51	15.96	13.52	174.9	373.5	17.88	1.414	1.118	1.236	1.078	1.014	0.824	0.972	0.840	0.886	0.787	0.779	0.571	0.643	0.549	0.506	0.491	0.550	0.464	0.368	0.459	0.380	0.403	0.470	0.450	0.400	0.374	0.387	0.322	0.307	0.337	0.335	0.335	0.334	0.311	0.363	0.323	0.402	0.395	0.405	0.539	0.531	0.455	0.448	0.444	0.432	0.488	0.588	0.475	0.528	0.486	0.559	0.488	0.404	0.356	0.293
650.0	42.11	55.13	51.60	37.37	28.56	25.96	28.86	39.69	44.72	62.88	78.21	82.30	77.94	71.37	66.84	33.77	24.93	15.47	7.928	54.84	400.1	68.15	1.673	1.108	1.122	0.981	0.910	0.898	0.882	0.793	0.790	0.742	0.655	0.573	0.616	0.534	0.538	0.394	0.435	0.439	0.519	0.441	0.364	0.337	0.410	0.424	0.372	0.375	0.356	0.352	0.313	0.348	0.243	0.354	0.294	0.273	0.323	0.330	0.389	0.358	0.337	0.546	0.577	0.539	0.495	0.464	0.441	0.472	0.530	0.412	0.573	0.456	0.453	0.462	0.414	0.368	0.322
