Sample:	'1
File name:	g2025081904Î÷Õ¢.FD3
Run date:	'16:07:42, 08/19/2025
Operator:	Administrator
Comment:	'

Instrument
Model:	F-2700 FL Spectrophotometer
Serial number:	23B8-004
ROM Version:	4J14000 07

Instrument parameters
Measurement type:	3-D scan
Data mode:	Fluorescence
EX  Start WL:	220.0 nm
EX  End WL:	600.0 nm
EX Sampling interval:	5.0 nm
EM  Start WL:	230.0 nm
EM  End WL:	650.0 nm
EM Sampling interval:	5.0 nm
Scan speed:	12000 nm/min
EX Slit:	5.0 nm
EM Slit:	5.0 nm
PMT Voltage:	700 V
Response:	Auto 
Corrected spectra:	Off
Contour interval:	50.000

Peak integration
Integration method:	Rectangular
Sensitivity:	1
Threshold:	1.000

Peaks
No.	ApexEX/EM(nm)	Height(Data)
1	225.0/490.0	310.0
2	225.0/585.0	33.06
3	225.0/600.0	28.23
4	225.0/625.0	20.74
5	230.0/345.0	974.7
6	230.0/500.0	301.4
7	230.0/575.0	35.38
8	230.0/640.0	21.93
9	235.0/510.0	263.6
10	240.0/525.0	246.4
11	245.0/405.0	739.4
12	245.0/535.0	204.0
13	250.0/550.0	172.3
14	255.0/280.0	701.2
15	255.0/410.0	749.6
16	255.0/565.0	149.8
17	260.0/290.0	636.8
18	260.0/575.0	125.7
19	265.0/585.0	109.1
20	270.0/300.0	1071
21	270.0/380.0	711.3
22	270.0/410.0	790.3
23	270.0/600.0	96.75
24	275.0/305.0	1145
25	275.0/385.0	702.2
26	275.0/610.0	84.68
27	280.0/310.0	1012
28	280.0/340.0	807.4
29	280.0/625.0	72.62
30	285.0/320.0	1040
31	285.0/635.0	55.60
32	290.0/325.0	1022
33	295.0/330.0	886.7
34	300.0/335.0	923.1
35	305.0/345.0	809.1
36	325.0/370.0	404.8
37	330.0/375.0	403.9
38	335.0/380.0	407.8
39	340.0/390.0	382.4
40	345.0/395.0	382.6
41	350.0/405.0	411.0
42	355.0/410.0	416.4
43	365.0/420.0	363.5
44	430.0/505.0	35.20
45	440.0/520.0	24.72
46	445.0/525.0	22.14
47	455.0/540.0	14.39
48	480.0/350.0	3.823
49	505.0/275.0	3.980
50	515.0/280.0	4.146
51	520.0/285.0	4.635
52	530.0/290.0	4.162
53	540.0/295.0	5.616
54	545.0/300.0	5.904
55	555.0/305.0	6.253
56	560.0/310.0	5.409
57	580.0/320.0	6.838
58	585.0/325.0	7.109

Data points
	220.0	225.0	230.0	235.0	240.0	245.0	250.0	255.0	260.0	265.0	270.0	275.0	280.0	285.0	290.0	295.0	300.0	305.0	310.0	315.0	320.0	325.0	330.0	335.0	340.0	345.0	350.0	355.0	360.0	365.0	370.0	375.0	380.0	385.0	390.0	395.0	400.0	405.0	410.0	415.0	420.0	425.0	430.0	435.0	440.0	445.0	450.0	455.0	460.0	465.0	470.0	475.0	480.0	485.0	490.0	495.0	500.0	505.0	510.0	515.0	520.0	525.0	530.0	535.0	540.0	545.0	550.0	555.0	560.0	565.0	570.0	575.0	580.0	585.0	590.0	595.0	600.0
230.0	29.99	807.4	2905	1111	42.20	5.633	4.289	3.788	3.819	3.236	3.323	2.811	2.653	1.946	1.707	1.541	1.251	1.143	1.055	0.845	0.776	0.627	0.584	0.519	0.454	0.439	0.375	0.334	0.281	0.265	0.238	0.243	0.264	0.238	0.168	0.229	0.183	0.194	0.168	0.156	0.214	0.288	0.365	0.253	0.144	0.160	4.001	18.30	27.23	14.81	4.329	0.706	0.122	0.099	0.110	0.103	0.088	0.098	0.066	0.093	0.085	0.049	0.070	0.051	0.065	0.061	0.061	0.043	0.039	0.042	0.044	0.072	0.057	0.031	0.029	0.023	0.023
235.0	115.9	225.5	1542	3409	617.8	75.21	4.670	6.056	4.396	3.695	2.978	3.255	2.846	2.419	1.703	1.479	1.340	1.217	1.080	0.970	1.012	0.717	0.578	0.520	0.472	0.524	0.456	0.321	0.260	0.215	0.197	0.276	0.246	0.234	0.215	0.290	0.207	0.258	0.206	0.162	0.138	0.182	0.278	0.430	0.396	0.278	1.028	4.593	11.35	21.60	24.74	22.22	8.883	1.400	0.187	0.143	0.107	0.127	0.138	0.082	0.080	0.047	0.046	0.072	0.052	0.079	0.037	0.024	0.046	0.070	0.059	0.042	0.038	0.084	0.104	0.029	0.014
240.0	163.2	165.4	437.4	2562	4491	499.8	36.85	8.465	6.316	5.306	4.172	3.771	2.987	2.271	2.195	1.840	1.565	1.188	1.103	0.827	0.905	0.769	0.619	0.488	0.508	0.560	0.504	0.414	0.371	0.307	0.285	0.334	0.182	0.246	0.196	0.222	0.225	0.169	0.196	0.198	0.220	0.182	0.193	0.279	0.481	0.499	0.702	1.268	2.701	6.379	17.33	42.27	30.11	21.67	7.481	0.915	0.156	0.094	0.122	0.118	0.109	0.061	0.061	0.072	0.044	0.093	0.075	0.030	0.044	0.120	0.031	0.050	0.038	0.043	0.053	0.035	0.006
245.0	110.6	244.1	186.0	784.7	5098	4001	378.0	17.85	9.023	5.192	4.622	4.407	3.168	2.228	2.181	2.099	1.839	1.322	1.157	0.798	0.860	0.752	0.638	0.543	0.522	0.565	0.510	0.431	0.329	0.254	0.315	0.396	0.236	0.229	0.214	0.217	0.243	0.208	0.222	0.142	0.231	0.152	0.146	0.178	0.272	0.591	0.897	1.046	0.885	1.569	4.131	14.58	36.28	63.28	30.47	18.99	4.937	0.395	0.079	0.119	0.079	0.110	0.127	0.079	0.067	0.089	0.080	0.086	0.031	0.029	0.029	0.031	0.047	0.053	0.052	0.074	0.012
250.0	37.72	158.8	297.8	297.4	1539	5353	6646	1443	88.77	9.816	7.503	5.139	4.234	2.940	2.524	2.182	1.902	1.560	1.239	1.020	0.907	0.753	0.731	0.603	0.656	0.506	0.536	0.393	0.421	0.359	0.344	0.311	0.370	0.210	0.240	0.226	0.225	0.222	0.212	0.152	0.220	0.133	0.143	0.196	0.196	0.251	0.440	0.820	1.099	1.236	1.398	3.622	8.692	21.07	34.35	59.88	58.78	59.39	15.27	5.826	0.634	0.148	0.133	0.100	0.101	0.097	0.108	0.105	0.044	0.065	0.028	0.046	0.043	0.063	0.053	0.040	0.026
255.0	20.08	52.38	181.8	402.4	473.2	1284	5577	9999.9	2029	100.8	11.49	7.972	6.460	4.344	3.086	2.917	1.845	1.565	1.565	1.189	1.026	0.876	0.790	0.716	0.778	0.526	0.636	0.571	0.456	0.427	0.329	0.325	0.282	0.200	0.303	0.273	0.221	0.219	0.160	0.194	0.223	0.205	0.242	0.181	0.220	0.260	0.181	0.313	0.456	0.931	1.708	2.302	2.601	4.915	7.872	14.03	23.98	69.95	122.4	108.5	24.64	7.176	0.439	0.232	0.178	0.137	0.143	0.167	0.134	0.095	0.073	0.086	0.048	0.039	0.089	0.069	0.048
260.0	15.12	21.31	65.92	313.4	441.5	361.8	1501	9876	9999.9	1559	48.68	12.24	8.030	5.688	4.281	2.682	2.374	2.038	1.680	1.252	1.073	0.936	0.718	0.719	0.735	0.594	0.683	0.560	0.516	0.439	0.448	0.354	0.309	0.315	0.275	0.335	0.309	0.216	0.246	0.216	0.229	0.241	0.207	0.214	0.180	0.217	0.157	0.198	0.212	0.365	0.896	1.920	2.661	2.240	2.162	3.391	5.617	17.64	51.92	117.1	145.6	33.49	20.19	3.486	0.375	0.195	0.147	0.125	0.120	0.089	0.082	0.083	0.082	0.082	0.086	0.038	0.052
265.0	17.44	15.34	26.01	133.4	454.8	343.5	379.8	2947	9999.9	9999.9	247.8	25.12	11.10	7.163	4.872	3.856	2.646	2.306	1.847	1.574	1.218	1.162	0.846	0.866	0.864	0.730	0.738	0.612	0.529	0.520	0.394	0.374	0.350	0.273	0.372	0.372	0.329	0.317	0.252	0.213	0.270	0.214	0.179	0.186	0.172	0.199	0.183	0.206	0.167	0.246	0.367	0.800	1.976	2.615	2.378	1.297	1.560	4.252	12.04	31.98	82.45	138.9	160.1	30.93	14.83	1.249	0.248	0.198	0.184	0.116	0.096	0.095	0.106	0.073	0.095	0.052	0.099
270.0	26.02	23.30	21.06	43.21	188.4	454.6	361.0	724.7	3302	9999.9	9999.9	3623	68.85	11.15	6.912	4.769	3.736	2.642	2.209	1.873	1.367	1.176	1.048	0.938	0.799	0.727	0.782	0.504	0.559	0.524	0.512	0.464	0.460	0.384	0.422	0.430	0.323	0.394	0.261	0.267	0.285	0.238	0.232	0.245	0.247	0.253	0.207	0.224	0.205	0.166	0.188	0.321	0.660	1.197	2.119	2.540	2.548	2.137	3.115	7.476	19.02	38.97	80.37	109.9	142.7	105.4	62.52	10.36	1.527	0.244	0.223	0.151	0.180	0.137	0.096	0.114	0.111
275.0	57.00	45.58	39.81	29.19	56.58	179.5	574.7	455.9	800.8	2403	9988	9999.9	1380	72.46	10.19	7.179	5.224	3.715	2.772	2.462	1.639	1.579	1.337	1.129	0.927	0.975	0.787	0.636	0.645	0.606	0.558	0.543	0.508	0.535	0.515	0.495	0.389	0.386	0.271	0.296	0.299	0.279	0.309	0.300	0.358	0.322	0.330	0.296	0.242	0.226	0.179	0.217	0.318	0.459	0.682	1.079	2.306	3.980	3.374	2.499	4.663	8.975	18.30	25.17	40.15	85.26	172.5	174.4	31.81	13.71	1.006	0.228	0.211	0.225	0.168	0.081	0.132
280.0	96.83	86.64	67.71	38.74	32.75	68.66	326.0	701.2	377.6	607.8	2680	9999.9	9999.9	1001	33.80	10.11	6.106	4.843	3.469	2.475	1.868	1.867	1.277	1.130	1.005	1.004	0.852	0.855	0.649	0.677	0.635	0.587	0.481	0.453	0.651	0.492	0.406	0.418	0.414	0.416	0.386	0.330	0.398	0.463	0.375	0.431	0.367	0.416	0.374	0.324	0.295	0.218	0.249	0.330	0.359	0.479	0.802	2.257	3.993	4.146	2.464	2.555	4.469	6.088	9.491	20.49	56.78	130.1	179.9	149.3	27.31	6.639	0.497	0.310	0.172	0.101	0.155
285.0	130.9	133.5	98.98	58.71	39.43	44.61	127.4	568.1	634.4	279.7	703.3	3449	9999.9	9252	135.0	17.58	8.051	5.746	3.665	2.929	2.350	1.901	1.606	1.221	0.938	1.126	0.799	0.696	0.703	0.751	0.658	0.702	0.532	0.451	0.718	0.640	0.585	0.490	0.501	0.588	0.425	0.339	0.485	0.554	0.399	0.461	0.538	0.607	0.456	0.397	0.309	0.272	0.288	0.317	0.275	0.336	0.475	0.894	1.714	3.769	4.635	3.115	1.891	1.969	2.646	5.172	13.39	32.75	76.21	153.9	175.1	35.76	19.68	2.400	0.332	0.186	0.188
290.0	190.0	193.2	149.4	99.93	68.28	63.25	85.33	236.9	636.8	586.7	346.3	929.8	3559	9999.9	9999.9	2365	38.56	8.546	5.398	3.822	2.864	2.321	1.932	1.412	1.389	1.149	0.947	0.949	0.768	0.714	0.674	0.663	0.597	0.588	0.702	0.719	0.696	0.650	0.566	0.528	0.492	0.474	0.532	0.558	0.613	0.652	0.658	0.827	0.675	0.564	0.425	0.432	0.440	0.395	0.367	0.395	0.454	0.632	0.834	1.449	2.480	3.767	4.162	3.400	2.145	2.026	3.917	8.190	18.00	38.87	69.19	88.13	119.2	90.72	63.86	12.78	2.665
295.0	223.6	256.9	214.5	141.1	106.7	94.47	100.5	155.4	298.7	732.4	811.0	472.2	964.7	2470	8769	9999.9	746.1	41.65	8.694	5.489	3.979	3.086	2.498	1.805	1.617	1.558	1.264	0.933	0.849	0.783	0.738	0.641	0.761	0.901	0.779	0.785	0.828	0.663	0.735	0.511	0.547	0.441	0.596	0.588	0.696	0.815	0.825	0.913	0.774	0.749	0.626	0.564	0.536	0.431	0.503	0.511	0.595	0.669	0.787	0.914	1.232	1.648	2.293	4.363	5.616	4.172	2.696	3.079	5.100	9.741	16.37	20.44	30.12	52.15	115.3	139.7	36.38
300.0	263.1	302.7	259.6	179.2	134.8	130.6	135.6	167.4	233.9	474.5	1071	689.7	461.6	721.1	2373	9999.9	9999.9	579.4	21.81	7.424	4.778	3.430	2.993	2.153	1.851	1.804	1.243	1.078	0.984	0.919	0.681	0.734	0.828	0.904	0.864	0.893	0.871	0.700	0.685	0.620	0.601	0.608	0.640	0.666	0.813	0.751	1.008	1.019	0.954	0.797	0.688	0.735	0.635	0.711	0.533	0.600	0.733	0.789	1.059	0.995	1.060	1.272	1.591	2.422	4.207	5.904	5.142	3.392	2.541	3.455	4.788	5.500	7.556	12.64	33.11	78.72	121.0
305.0	305.3	336.0	303.6	222.5	164.6	169.9	181.0	224.0	289.4	405.2	830.6	1145	553.1	404.5	701.2	3148	9999.9	5480	82.74	13.52	6.330	4.490	3.538	2.323	2.036	1.879	1.407	1.182	1.249	1.060	0.786	0.711	0.756	0.837	0.928	0.980	0.869	0.834	0.743	0.634	0.643	0.636	0.587	0.822	0.748	0.866	0.909	1.229	0.991	0.985	0.804	0.791	0.845	0.942	0.704	0.806	0.960	0.891	1.169	1.249	1.358	1.564	1.712	2.093	2.718	4.270	6.192	6.253	4.090	2.847	2.491	2.587	3.081	3.972	8.225	19.30	42.36
310.0	325.3	366.7	333.3	252.1	191.3	196.2	223.9	265.5	330.2	420.9	603.7	956.0	1012	521.5	386.8	865.3	3174	8636	8477	1678	27.65	7.111	4.477	3.010	2.473	1.982	1.679	1.353	1.286	1.161	0.946	0.888	0.817	0.899	0.904	0.954	0.953	0.850	0.755	0.648	0.618	0.720	0.687	0.734	0.789	0.928	1.052	1.238	1.164	1.050	0.902	1.020	0.932	0.983	0.920	0.975	1.062	1.106	1.426	1.353	1.471	1.841	2.020	2.279	2.407	3.076	3.838	4.711	5.409	5.406	4.045	2.687	2.349	2.175	3.108	5.423	10.47
315.0	341.1	417.3	394.5	299.9	243.2	247.4	269.0	302.6	367.4	449.5	571.2	703.8	920.3	969.0	473.4	428.9	909.2	2137	6338	9999.9	528.6	28.13	6.882	4.347	3.259	2.393	1.902	1.612	1.477	1.340	1.085	1.116	1.012	0.781	0.789	0.901	0.914	0.724	0.803	0.711	0.744	0.756	0.715	0.812	0.886	1.177	1.305	1.327	1.322	1.271	1.118	1.218	1.321	1.334	1.224	1.277	1.463	1.363	1.667	1.558	1.719	2.122	2.146	2.510	2.624	2.980	3.275	3.462	3.827	4.294	5.619	5.952	4.262	2.689	2.542	3.062	3.878
320.0	397.7	477.5	474.9	369.9	305.8	304.5	312.8	342.8	396.8	492.7	605.4	677.9	759.6	1040	807.0	442.8	493.5	692.2	1780	8478	8654	417.7	14.42	6.131	3.852	2.795	2.250	1.928	1.529	1.321	1.143	1.144	0.819	0.901	1.100	0.923	0.869	0.797	0.725	0.742	0.775	0.730	0.809	0.876	0.980	1.188	1.413	1.500	1.735	1.559	1.278	1.554	1.608	1.559	1.716	1.708	1.678	1.750	1.893	2.026	2.163	2.147	2.708	2.748	3.233	3.383	3.690	3.551	4.077	3.901	4.602	6.360	6.838	5.371	3.969	2.991	3.361
325.0	442.2	573.8	590.9	463.3	374.7	350.3	336.8	365.7	416.8	516.4	624.6	696.2	732.1	840.8	1022	625.1	453.9	415.9	575.4	2567	8888	4031	61.90	8.799	5.157	3.840	2.650	1.952	1.786	1.461	1.287	1.102	1.109	0.916	1.052	0.869	0.983	0.822	0.677	0.856	0.699	0.874	0.851	1.093	1.168	1.360	1.458	1.989	1.887	1.969	1.589	1.921	1.929	1.768	1.925	1.825	1.962	2.095	2.138	2.205	2.402	2.537	3.017	3.071	3.219	3.680	3.910	3.737	4.061	4.235	4.536	4.978	6.212	7.109	6.318	4.666	3.931
330.0	504.1	699.4	761.1	621.8	489.4	416.9	380.6	385.8	444.5	535.8	642.4	722.1	745.4	752.8	853.1	886.7	627.1	412.0	347.7	738.9	2596	5588	5595	1236	20.76	5.742	3.587	2.592	2.027	1.705	1.444	1.245	1.245	1.040	0.976	1.003	0.926	0.875	0.811	0.821	0.844	0.870	1.000	1.103	1.269	1.611	1.734	2.356	2.347	2.359	2.274	2.405	2.462	2.353	2.140	2.179	2.242	2.164	2.369	2.200	2.421	2.612	3.033	3.261	3.419	3.831	3.837	3.814	4.176	4.531	4.720	4.826	5.192	5.715	6.066	6.643	6.193
335.0	549.4	792.7	898.8	802.0	654.0	519.4	437.9	428.2	488.6	568.7	679.4	758.0	795.1	781.3	783.4	826.2	923.1	576.8	369.3	379.2	694.1	1359	4119	7478	432.8	21.95	5.527	3.506	2.786	1.962	1.680	1.535	1.340	1.152	0.973	1.188	1.097	0.812	0.840	0.892	0.924	0.914	0.992	1.112	1.325	1.803	2.105	2.749	3.130	2.729	2.672	3.263	3.207	3.159	2.804	2.587	2.571	2.695	2.312	2.344	2.612	2.881	3.232	3.595	3.906	3.969	4.090	4.547	4.630	5.032	5.188	5.376	5.717	6.082	5.844	5.772	6.650
340.0	566.6	864.7	971.3	889.1	735.6	568.9	481.4	448.8	510.1	581.2	682.7	769.2	807.4	796.6	777.6	749.7	884.3	783.2	426.0	321.7	288.1	371.3	1120	5501	6496	357.9	10.64	4.675	3.216	2.243	1.766	1.796	1.323	1.196	1.156	1.055	1.138	0.842	0.851	0.807	0.971	0.950	1.049	1.250	1.469	1.821	2.130	2.602	3.238	3.337	3.159	3.655	3.614	3.473	3.197	2.874	2.892	2.596	2.478	2.473	2.784	2.956	3.343	3.466	3.952	4.084	4.320	4.649	4.687	5.106	5.319	5.747	5.537	6.055	6.212	5.956	6.178
345.0	584.7	869.6	974.7	915.7	754.3	613.9	497.0	470.5	510.4	592.1	674.1	744.6	786.0	783.2	756.0	701.1	724.9	809.1	556.5	323.9	209.6	165.5	308.4	1615	6357	3389	53.26	7.092	3.732	2.745	2.187	1.694	1.413	1.106	1.146	1.145	1.068	0.928	0.830	0.840	0.972	0.974	1.038	1.267	1.408	1.903	2.171	2.584	3.075	3.182	3.164	3.573	3.714	3.591	3.167	2.858	2.933	2.522	2.645	2.665	2.946	2.996	3.305	3.597	3.752	4.060	4.084	4.373	4.478	5.071	4.940	5.529	5.344	5.856	5.821	5.814	5.644
350.0	558.4	800.8	967.9	931.2	800.6	655.5	526.9	502.0	534.6	601.4	657.1	724.0	762.1	759.4	735.7	683.4	662.0	643.9	638.9	452.1	228.0	142.7	149.0	420.3	1833	4045	4044	1031	17.21	3.957	2.852	2.143	1.533	1.197	1.303	1.264	1.064	1.083	0.915	0.872	0.792	0.964	1.061	1.170	1.414	1.830	2.195	2.549	2.884	3.160	3.150	3.655	3.823	3.546	3.290	3.017	3.104	2.805	2.801	2.624	2.962	3.105	3.288	3.555	3.678	3.906	3.960	4.034	4.420	4.615	4.590	5.083	5.215	5.568	5.517	5.498	5.292
355.0	527.9	744.6	922.1	917.4	841.2	680.6	582.4	564.7	581.1	625.6	675.1	710.5	736.5	736.7	719.4	675.2	640.4	573.9	525.6	564.1	345.5	172.9	140.4	173.4	463.8	981.1	2791	5212	397.7	18.78	4.102	2.506	1.932	1.492	1.412	1.221	1.251	1.024	1.007	0.930	0.877	0.964	0.918	1.066	1.355	1.947	2.055	2.660	2.771	2.964	3.004	3.803	3.670	3.551	3.424	3.128	3.204	3.015	2.930	3.129	3.093	3.058	3.372	3.536	3.818	3.674	3.929	3.928	4.236	4.420	4.475	5.068	4.965	5.207	5.107	5.170	5.200
360.0	478.0	740.1	885.1	888.0	844.6	720.5	625.6	596.8	611.4	640.6	677.4	700.9	715.4	714.2	689.1	657.8	620.9	549.9	471.0	501.5	465.5	239.2	158.7	135.8	174.5	268.1	760.9	3731	3363	333.5	9.140	3.412	2.526	1.908	1.419	1.429	1.349	1.035	1.026	0.914	0.859	1.093	0.867	1.107	1.318	1.790	1.958	2.438	2.558	2.804	2.857	3.763	3.667	3.660	3.377	3.277	3.356	3.135	3.170	3.121	3.276	3.188	3.668	3.532	3.805	3.663	3.906	4.088	4.175	4.120	4.100	4.649	4.892	4.957	4.919	4.580	4.625
365.0	463.5	698.7	833.3	853.7	820.2	732.9	639.6	632.0	643.3	664.9	684.2	691.3	695.5	691.9	674.2	637.5	603.1	532.8	458.2	424.7	462.0	358.0	196.3	144.9	127.2	122.4	217.3	1101	4153	3117	50.18	5.899	3.202	2.207	1.743	1.343	1.387	1.255	0.873	0.929	1.005	0.860	1.013	1.195	1.274	1.644	1.843	2.247	2.499	2.595	2.710	3.543	3.455	3.646	3.151	3.225	3.275	3.254	3.084	3.163	3.207	3.491	3.537	3.592	3.481	3.673	3.776	4.068	3.865	4.453	4.183	4.246	4.309	4.407	4.781	4.517	4.403
370.0	442.9	646.6	774.4	832.5	810.3	735.8	667.5	651.1	665.6	689.2	694.5	686.8	678.3	668.1	645.6	616.0	583.0	527.4	461.1	409.7	383.8	404.8	327.3	197.8	146.8	117.5	115.7	295.5	1224	3277	3555	979.6	16.12	3.486	2.380	2.037	1.604	1.382	1.097	0.953	1.059	0.920	0.899	1.111	1.197	1.544	1.744	2.186	2.504	2.588	2.878	3.267	3.330	3.557	3.293	3.308	3.427	3.170	3.243	3.185	3.309	3.533	3.559	3.409	3.474	3.608	3.594	3.654	3.564	4.081	3.847	3.984	4.116	4.210	4.331	4.207	4.284
375.0	459.0	630.8	733.7	804.2	807.8	745.2	686.7	673.6	691.2	704.5	707.8	697.2	679.7	651.7	623.0	592.5	569.9	521.3	468.4	417.7	366.1	349.1	403.9	320.3	196.5	150.9	122.6	139.9	322.3	805.0	2460	4889	346.7	16.09	3.775	2.735	2.154	1.596	1.174	1.118	0.957	0.926	1.015	1.113	1.211	1.561	1.594	1.875	2.307	2.481	2.740	3.074	3.366	3.502	3.375	3.097	3.258	3.257	3.226	3.170	3.197	3.470	3.795	3.482	3.491	3.700	3.537	3.296	3.580	3.775	3.542	3.847	3.915	3.987	3.659	3.894	4.179
380.0	430.6	604.5	737.0	779.9	795.2	751.5	704.9	674.1	691.9	699.4	711.3	699.8	679.1	638.7	603.1	580.8	552.3	514.8	470.7	428.6	375.0	337.7	369.4	407.8	272.8	185.8	146.3	124.5	140.9	231.2	688.7	3582	2920	273.6	8.267	4.054	2.593	1.846	1.315	1.109	0.965	0.987	1.012	1.086	1.356	1.401	1.621	1.762	2.268	2.215	2.503	3.109	3.236	3.519	3.414	3.300	3.367	3.131	3.218	3.128	3.092	3.395	3.464	3.510	3.507	3.546	3.617	3.290	3.211	3.553	3.497	3.586	3.450	3.330	3.565	3.724	3.704
385.0	436.7	586.0	693.4	755.2	783.4	743.1	705.1	696.9	699.8	696.9	700.9	702.2	660.2	624.2	589.1	559.1	536.9	505.4	472.6	433.1	389.2	345.3	340.2	397.7	366.3	232.4	174.0	139.4	117.7	116.7	206.4	1072	3584	2585	41.46	6.492	3.407	2.145	1.490	1.263	0.960	0.985	1.023	1.161	1.135	1.418	1.734	1.832	2.172	2.178	2.527	2.888	3.301	3.498	3.431	3.078	3.294	3.295	2.897	3.236	3.183	3.313	3.304	3.277	3.550	3.501	3.319	3.266	3.163	3.395	3.563	3.555	3.519	3.470	3.196	3.497	3.831
390.0	430.1	567.5	675.7	727.9	753.0	734.2	702.8	702.7	702.3	707.0	699.0	688.9	652.8	615.8	574.2	540.0	521.9	495.0	464.7	439.6	400.4	369.4	348.1	352.6	382.4	336.6	227.3	171.5	137.7	114.0	113.1	288.6	1048	2581	3051	910.5	15.02	3.370	2.021	1.443	1.167	1.110	1.086	1.244	1.187	1.427	1.577	1.938	2.103	2.045	2.333	2.826	3.217	3.287	3.193	3.227	3.339	3.193	3.085	3.413	3.268	3.248	3.268	3.243	3.266	3.363	3.226	3.177	2.995	3.361	3.232	3.453	3.296	3.331	3.168	3.364	3.482
395.0	433.8	541.7	645.5	712.2	736.5	734.4	705.4	709.8	701.5	719.9	713.5	698.7	671.6	617.1	580.2	535.9	512.5	488.3	465.7	445.9	417.7	392.1	373.3	358.8	353.3	382.6	339.3	230.2	178.7	146.6	123.1	135.3	279.9	632.2	2033	4628	301.0	16.07	3.170	2.034	1.565	1.298	1.307	1.225	1.189	1.502	1.759	1.755	1.986	2.074	2.478	2.951	3.145	3.168	2.965	3.117	3.195	3.190	3.324	2.919	3.317	3.267	3.188	3.177	3.348	3.279	3.024	3.203	3.072	3.103	2.988	3.344	3.212	3.077	3.276	3.030	3.440
400.0	410.2	555.2	632.1	694.3	726.2	730.2	726.6	732.0	722.5	732.0	736.4	717.0	693.1	634.8	585.7	540.6	514.3	493.6	463.7	450.9	427.2	412.7	399.8	384.3	366.9	372.1	406.5	313.9	224.8	187.3	152.6	124.8	125.2	182.6	556.6	3194	3765	251.8	7.287	2.908	1.859	1.329	1.256	1.435	1.458	1.567	1.661	1.912	2.081	2.222	2.279	2.863	3.026	2.923	2.892	3.271	3.363	3.223	3.333	3.182	3.364	3.259	3.144	3.095	3.198	3.352	3.249	3.148	3.213	3.117	2.943	3.178	3.104	3.100	3.052	2.987	3.317
405.0	407.2	560.5	643.2	691.7	723.5	739.4	735.0	742.6	729.8	747.7	768.9	739.7	715.0	660.9	600.1	541.2	513.4	489.7	467.0	456.7	444.8	428.5	424.0	414.2	391.2	381.7	411.0	401.7	289.7	230.2	188.8	147.0	111.3	97.11	166.1	918.2	3362	2308	37.36	4.572	2.348	1.771	1.588	1.466	1.454	1.511	1.664	1.880	2.058	2.021	2.120	2.858	2.897	3.159	3.130	3.219	3.093	3.480	3.481	3.138	3.215	3.038	3.246	3.260	3.210	3.285	3.228	3.069	3.043	3.080	3.123	2.980	3.018	2.999	3.217	3.014	3.072
410.0	399.0	535.9	612.5	686.9	698.6	732.7	735.6	749.6	739.6	771.1	790.3	761.6	724.6	667.4	606.2	547.6	509.8	478.9	462.9	456.3	444.6	443.4	439.4	435.1	418.0	404.6	400.6	416.4	381.1	290.9	225.4	177.4	128.4	96.04	89.94	243.9	938.4	2210	2160	639.1	12.28	2.319	1.713	1.521	1.551	1.633	1.558	1.848	2.052	2.091	2.211	2.771	2.854	2.963	2.945	2.983	3.033	3.124	3.173	3.091	3.182	3.185	3.237	3.231	3.246	3.261	3.191	3.182	3.071	3.027	2.832	2.996	2.858	3.030	2.956	2.785	2.907
415.0	382.1	503.9	595.3	653.5	675.2	711.8	732.3	730.0	736.4	749.9	764.0	745.9	708.4	643.9	585.2	536.7	489.1	462.5	448.8	441.8	431.9	436.1	432.5	429.6	422.1	404.8	391.6	381.2	384.0	354.3	254.9	192.4	140.5	104.3	81.63	99.18	239.7	531.1	1289	2571	271.6	14.36	2.500	1.827	1.566	1.633	1.542	1.837	2.008	1.944	2.205	2.570	2.989	2.871	2.872	2.855	3.001	2.997	3.084	3.152	3.250	3.010	3.170	2.882	3.056	2.988	2.925	2.942	2.810	2.896	2.880	3.071	2.963	2.655	2.744	2.808	2.862
420.0	358.2	475.0	572.1	628.0	648.9	692.6	728.8	718.8	713.8	726.3	745.3	716.9	681.6	619.1	560.7	511.2	467.4	443.2	429.2	423.8	422.6	420.2	418.8	420.9	413.2	398.0	381.9	363.4	352.1	363.5	290.2	202.7	146.7	109.7	82.63	69.00	86.92	140.4	341.3	1624	2110	234.4	6.194	1.992	1.837	1.767	1.610	1.916	1.869	1.972	2.166	2.545	2.666	2.746	2.659	2.715	3.013	3.014	2.983	3.164	2.872	2.900	2.936	3.165	3.017	2.875	3.018	2.785	2.935	2.763	2.711	2.771	2.586	2.676	2.689	2.824	2.797
425.0	367.1	484.3	543.0	598.8	632.3	663.7	698.3	705.6	709.9	716.0	723.9	690.0	664.3	600.3	541.8	486.0	453.6	425.3	413.7	409.1	408.9	408.9	409.0	412.8	405.8	393.3	378.3	357.6	335.0	336.6	323.9	226.8	155.8	117.8	88.50	67.25	55.79	56.65	93.10	450.6	1714	1834	35.78	3.687	2.191	1.925	1.837	1.870	1.903	1.822	2.078	2.422	2.685	2.613	2.742	2.860	3.108	3.084	2.935	2.910	2.904	2.993	2.970	3.002	3.139	2.780	2.751	2.714	2.650	2.802	2.541	2.689	2.568	2.693	2.617	2.620	2.542
430.0	503.1	444.7	520.7	563.5	626.8	659.4	685.3	708.0	704.5	708.7	708.8	681.1	642.2	585.7	527.7	474.9	437.0	410.2	396.7	394.1	392.9	393.0	399.2	404.5	400.3	390.5	381.1	364.3	336.8	318.3	312.8	270.8	186.3	131.7	99.34	76.17	57.22	43.93	41.94	115.8	463.6	1301	1579	521.2	12.53	2.670	1.952	1.935	1.893	1.944	1.933	2.341	2.523	2.662	2.655	2.815	2.940	2.949	3.044	2.921	2.915	2.958	2.961	2.792	2.805	2.724	2.694	2.591	2.615	2.596	2.442	2.505	2.469	2.471	2.350	2.415	2.542
435.0	1227	454.5	503.9	563.3	618.6	647.9	683.5	702.2	704.4	696.3	701.9	670.1	623.0	568.4	510.7	459.2	418.8	394.7	380.6	377.7	377.1	381.0	386.6	391.9	393.0	387.9	375.7	361.2	340.6	314.4	289.3	272.0	232.0	156.2	111.6	87.79	65.70	47.58	35.71	43.77	116.7	304.9	804.3	1900	261.7	15.89	2.484	2.115	2.138	1.888	1.866	2.183	2.374	2.632	2.568	2.730	2.855	2.936	2.987	2.912	2.977	2.799	2.910	2.693	2.717	2.485	2.713	2.679	2.623	2.414	2.220	2.471	2.485	2.341	2.233	2.320	2.131
440.0	1882	572.8	494.3	544.9	594.6	630.2	672.4	690.7	679.2	680.0	679.5	646.7	595.6	547.8	488.1	439.5	401.3	380.3	368.6	364.0	360.3	364.0	371.2	374.8	379.8	375.2	365.4	351.5	335.1	310.7	281.9	252.7	237.8	181.3	121.6	92.52	71.06	51.11	37.91	31.41	41.99	80.19	205.4	1109	1829	231.6	9.290	2.736	2.422	2.039	1.892	2.294	2.545	2.356	2.653	2.538	2.651	2.738	2.877	2.829	2.955	3.106	2.846	2.745	2.871	2.613	2.901	2.369	2.513	2.436	2.190	2.407	2.326	2.227	2.079	2.362	2.138
445.0	1769	1026	477.5	548.6	580.8	608.1	656.1	676.6	666.0	647.7	650.7	622.9	570.9	521.8	464.4	424.4	385.4	363.3	351.2	348.1	342.5	342.0	348.1	354.5	359.4	354.6	348.9	334.8	320.2	298.1	269.8	237.7	213.6	194.7	138.9	97.36	75.78	55.79	41.29	31.89	27.75	31.17	56.74	296.3	1341	1677	171.5	5.218	2.454	2.113	2.067	2.325	2.268	2.497	2.543	2.597	2.815	2.708	2.992	2.974	2.761	2.920	2.728	2.860	2.541	2.637	2.699	2.325	2.233	2.504	2.305	2.277	2.176	2.148	2.090	2.347	2.187
450.0	966.0	1741	742.4	503.1	545.7	581.6	623.9	645.0	627.3	608.4	600.8	568.3	524.1	481.0	428.0	390.5	359.5	337.5	324.8	321.0	313.7	311.4	319.1	322.6	327.6	324.5	320.2	314.2	298.5	280.3	253.8	223.4	190.2	175.5	156.7	112.6	79.91	59.81	45.70	35.33	28.04	23.16	25.09	76.38	352.0	1073	1428	516.6	12.41	2.447	2.232	2.427	2.310	2.407	2.385	2.612	2.690	2.839	2.961	2.848	2.730	2.856	2.718	2.466	2.539	2.444	2.376	2.363	2.245	2.296	1.973	2.332	1.903	2.047	2.012	2.092	2.065
455.0	435.4	1579	1771	479.9	499.3	539.0	594.3	607.5	574.5	567.6	552.9	521.4	487.4	439.9	394.4	351.7	327.4	306.3	298.4	292.6	284.0	285.0	284.9	293.9	296.9	296.3	288.7	283.2	275.6	259.6	237.2	209.1	175.1	152.7	145.4	132.5	91.43	62.85	48.27	38.19	30.10	24.19	20.67	28.63	87.28	249.5	610.6	1578	220.3	15.23	2.691	2.558	2.611	2.322	2.195	2.331	2.747	2.669	2.602	2.790	2.709	2.712	2.659	2.327	2.400	2.168	2.156	2.093	2.144	2.069	1.782	1.919	1.726	1.865	1.852	1.871	1.950
460.0	300.7	967.1	2509	717.1	481.1	505.5	540.4	571.7	541.4	527.5	515.0	489.4	448.0	412.1	366.3	329.5	303.6	287.3	276.1	268.0	262.0	261.4	264.3	271.6	271.4	270.5	268.7	264.8	255.4	244.3	225.6	198.1	168.4	142.9	129.4	128.8	105.0	67.63	51.28	39.90	31.52	25.82	20.98	19.04	30.00	63.80	151.0	810.7	1439	190.0	10.79	2.781	2.665	2.546	2.259	2.273	2.531	2.468	2.447	2.776	2.551	2.328	2.449	2.248	2.311	2.168	2.011	1.866	1.891	1.830	1.971	1.704	1.691	1.682	1.701	1.743	1.584
465.0	257.4	511.6	2378	1494	457.3	484.5	514.6	533.2	519.0	492.5	482.0	458.6	414.4	380.8	340.4	305.1	279.9	266.1	256.6	246.7	243.0	242.9	244.6	250.0	250.5	249.2	248.8	247.3	240.1	228.9	213.3	187.2	161.8	135.6	118.1	112.4	108.3	77.06	52.74	41.83	33.25	27.18	22.43	18.01	17.77	23.07	41.15	209.5	962.8	1258	161.3	8.061	2.787	2.401	2.331	2.109	2.360	2.518	2.352	2.443	2.323	2.295	2.342	2.236	2.224	2.045	1.813	1.844	1.791	1.931	1.930	1.645	1.684	1.618	1.692	1.630	1.569
470.0	249.1	326.7	1273	2706	617.4	436.8	466.5	478.6	472.5	447.8	438.0	410.9	380.5	341.4	304.3	275.2	252.2	236.0	229.9	222.6	217.4	215.7	217.6	221.6	220.4	221.8	221.1	219.4	215.3	207.5	192.4	171.6	148.4	126.2	108.5	96.60	94.94	85.35	60.27	42.60	34.57	27.65	22.86	18.84	15.97	15.00	17.07	53.39	246.4	724.1	980.2	523.8	13.37	2.747	2.393	2.132	2.200	2.351	2.284	2.199	2.158	2.107	1.974	2.081	1.998	1.734	1.734	1.704	1.661	1.707	1.587	1.510	1.500	1.393	1.596	1.442	1.368
475.0	271.0	273.9	524.6	2372	1914	429.0	423.3	432.8	430.1	410.0	390.2	362.4	336.0	304.2	272.8	243.5	224.1	210.6	204.1	197.8	188.7	187.2	188.9	192.0	193.7	194.7	192.0	192.3	187.9	181.1	171.6	153.9	133.8	115.3	99.08	86.95	77.45	76.75	70.28	48.05	34.56	27.90	23.35	19.54	16.93	13.85	12.54	18.88	60.94	167.5	376.6	1066	225.9	18.19	2.530	2.147	2.272	2.026	2.174	1.988	1.919	1.745	1.757	1.804	1.811	1.491	1.530	1.493	1.423	1.596	1.439	1.293	1.375	1.456	1.413	1.456	1.345
480.0	249.5	257.9	325.8	1269	3241	574.8	390.4	401.0	391.0	378.3	363.5	337.4	311.3	277.1	244.1	225.7	207.8	192.9	185.9	179.3	173.5	168.6	170.9	173.3	174.1	174.1	175.5	174.9	172.5	164.8	155.7	142.0	123.9	109.6	93.81	81.57	70.56	66.19	67.43	54.80	37.53	29.38	24.37	20.24	17.74	14.36	12.32	11.83	19.76	42.51	91.76	482.1	1104	219.2	11.52	2.283	2.172	2.147	2.297	1.781	1.950	1.728	1.680	1.609	1.784	1.568	1.676	1.554	1.329	1.443	1.457	1.252	1.318	1.266	1.310	1.297	1.344
485.0	229.6	275.7	272.7	584.8	3496	1355	368.8	371.1	355.7	348.8	338.9	316.3	293.2	259.8	229.6	209.8	194.0	181.1	172.6	166.5	160.0	157.3	156.2	159.2	158.8	160.9	161.1	160.7	158.6	154.3	145.1	132.0	115.0	102.2	89.48	76.70	66.43	59.83	59.75	58.80	42.41	30.06	24.62	21.23	17.90	15.10	12.88	10.63	11.00	14.75	24.99	122.0	674.3	1036	176.0	5.692	2.341	2.093	1.995	1.817	1.842	1.711	1.685	1.676	1.527	1.482	1.380	1.473	1.237	1.339	1.305	1.246	1.318	1.247	1.063	1.289	1.259
490.0	175.1	310.0	263.2	333.4	1871	3127	602.6	345.5	326.4	319.1	309.3	290.1	260.2	237.4	212.7	191.5	176.6	162.9	156.8	150.5	144.5	141.6	142.2	142.6	142.7	142.7	144.2	143.3	143.2	139.8	131.7	120.9	106.4	94.20	82.36	72.38	63.89	55.67	50.08	52.15	48.52	34.85	26.15	21.36	18.51	15.73	13.76	11.70	9.566	9.163	10.54	31.64	168.9	547.6	830.6	398.1	15.01	2.492	2.083	1.948	1.793	1.703	1.551	1.514	1.441	1.218	1.179	1.321	1.245	1.189	1.257	1.218	1.202	1.143	1.038	1.105	1.128
495.0	134.3	267.5	281.6	255.0	636.4	3227	1775	329.8	292.9	287.5	281.3	260.4	237.2	212.5	191.5	170.1	155.8	147.1	140.1	134.8	127.8	125.1	124.6	124.2	127.2	124.6	125.8	126.2	126.5	122.1	118.5	107.3	96.78	85.15	75.51	66.80	58.47	51.39	45.01	42.13	44.49	42.13	29.20	22.11	18.66	16.04	13.91	12.73	10.19	8.402	7.618	11.56	41.56	126.2	314.0	912.7	569.7	20.80	2.561	1.889	1.647	1.644	1.404	1.535	1.234	1.193	1.096	1.224	1.186	1.066	1.143	1.012	1.159	0.999	0.944	0.916	0.987
500.0	117.7	216.8	301.4	238.2	316.4	1814	3306	412.8	271.3	266.2	257.4	241.8	216.8	194.1	172.5	154.5	140.9	132.4	127.3	121.5	117.4	111.6	111.6	113.9	114.1	114.0	115.8	114.3	114.0	109.5	107.8	96.44	87.83	77.91	70.81	62.47	53.23	47.16	42.10	38.04	37.70	40.66	33.77	23.02	19.05	17.22	14.35	12.17	10.89	8.547	7.198	7.359	13.44	31.50	75.80	401.8	995.7	237.6	14.08	1.901	1.674	1.576	1.433	1.416	1.207	1.062	1.009	1.040	1.039	1.062	0.970	0.945	1.060	0.892	0.771	0.820	0.878
505.0	102.7	164.7	280.1	237.5	233.3	707.4	3850	1045	256.2	244.0	234.9	221.0	195.8	179.1	161.7	142.0	129.1	122.6	116.7	111.2	107.0	100.7	101.8	101.4	104.9	103.3	105.0	102.3	101.4	101.5	97.79	88.60	80.91	72.31	65.77	58.52	50.68	44.72	39.26	35.33	32.43	34.45	35.20	26.14	18.98	16.22	14.26	12.08	11.18	9.021	7.583	6.640	7.421	10.74	20.28	99.70	533.0	894.5	197.9	6.631	1.671	1.604	1.419	1.233	1.202	1.125	1.095	1.113	0.924	0.978	0.911	0.879	0.851	0.758	0.770	0.813	0.751
510.0	93.99	134.2	204.3	263.6	197.9	317.3	2125	2874	409.9	214.9	212.1	192.8	174.1	155.7	139.4	124.5	115.1	106.9	102.3	98.36	93.02	90.02	88.28	89.08	89.42	89.85	89.05	90.15	88.37	89.05	84.02	78.02	70.02	64.15	58.02	51.69	46.08	40.81	36.13	31.40	28.84	27.78	30.69	29.29	21.63	16.27	13.84	11.67	10.35	8.802	7.987	6.907	6.074	6.046	7.947	25.17	131.0	423.5	732.6	328.2	14.84	1.812	1.398	1.099	1.214	0.951	0.945	0.921	0.843	0.917	0.785	0.815	0.745	0.691	0.723	0.703	0.682
515.0	72.20	118.8	145.5	254.7	201.1	203.5	658.5	3424	1379	206.2	183.2	170.8	152.2	138.7	121.6	111.3	97.73	92.18	87.01	83.92	79.37	76.31	75.70	75.53	76.27	76.54	75.97	76.35	76.53	74.87	72.83	67.32	61.08	55.76	50.89	45.15	41.20	37.24	32.54	28.84	25.87	24.08	23.48	26.65	24.65	17.85	13.49	11.29	9.903	8.692	7.521	7.136	5.826	5.131	5.156	8.797	31.86	97.15	253.3	674.7	254.3	21.36	1.640	1.176	1.171	0.965	0.845	0.783	0.752	0.704	0.789	0.730	0.711	0.622	0.547	0.585	0.606
520.0	69.08	99.91	117.5	217.8	219.4	169.1	271.8	2043	2663	281.4	164.1	153.3	139.4	121.2	107.4	97.70	88.75	81.51	78.11	76.43	70.18	68.54	67.70	66.65	68.77	66.69	67.50	68.13	68.12	66.86	64.42	59.66	55.54	49.98	45.23	40.48	37.32	33.81	29.18	26.53	23.85	21.16	20.43	21.88	24.72	20.06	13.79	11.23	9.532	8.448	7.514	6.893	5.975	5.136	4.689	4.905	9.863	24.25	60.34	281.3	751.8	238.4	13.93	1.309	1.179	1.038	0.741	0.761	0.774	0.696	0.698	0.581	0.617	0.640	0.570	0.601	0.498
525.0	64.30	85.01	102.2	161.6	246.4	156.2	182.6	759.7	3708	753.5	147.7	140.6	127.1	108.5	95.74	88.50	82.22	74.57	70.98	67.72	63.82	62.52	61.28	60.69	61.30	61.10	60.39	60.49	59.75	60.50	58.02	54.75	49.65	45.10	41.47	37.98	34.50	30.34	27.47	25.16	22.20	19.75	18.16	18.14	21.17	22.14	15.11	10.82	9.334	7.829	6.792	6.420	6.160	5.424	4.768	3.997	5.054	7.793	15.78	68.47	397.0	770.4	203.3	5.267	1.061	0.823	0.821	0.721	0.637	0.684	0.700	0.591	0.578	0.626	0.529	0.571	0.471
530.0	59.38	73.17	84.34	114.1	218.1	180.2	139.7	281.3	2256	2452	218.3	122.7	110.8	97.94	86.78	78.77	70.90	65.98	62.64	58.64	55.24	54.26	53.10	52.98	52.19	52.08	51.95	51.98	51.63	51.97	50.16	46.85	42.97	39.30	36.15	33.00	29.81	27.07	24.46	21.95	19.75	18.30	16.41	15.47	16.54	18.89	17.45	12.05	8.813	7.743	6.776	5.887	5.574	5.380	4.601	3.852	3.959	4.227	5.736	17.25	97.08	355.9	617.0	263.5	14.12	1.145	0.823	0.762	0.629	0.557	0.585	0.507	0.468	0.543	0.535	0.417	0.422
535.0	59.13	56.88	81.57	86.98	150.5	204.0	128.9	151.5	670.3	3174	1028	113.9	96.56	82.93	74.35	67.12	60.89	55.15	53.15	49.72	49.46	47.19	44.84	44.42	43.59	43.97	43.27	43.79	44.59	44.22	42.36	40.02	36.44	32.20	30.55	27.80	26.02	23.54	21.14	19.32	17.40	16.23	14.32	13.50	13.44	13.74	16.20	14.15	9.385	7.155	6.130	5.500	5.093	4.848	4.966	4.233	3.526	3.289	3.360	5.628	23.27	81.00	203.2	524.5	249.7	19.24	1.024	0.648	0.583	0.585	0.553	0.510	0.461	0.495	0.435	0.448	0.378
540.0	45.46	58.65	68.89	69.96	102.6	196.0	132.9	111.6	232.6	2003	2082	167.6	85.52	75.25	66.06	58.89	53.45	50.44	46.76	44.20	42.15	40.92	39.54	39.52	39.16	38.94	38.11	38.77	38.42	38.11	37.40	35.15	32.49	29.12	26.28	24.48	22.57	21.45	18.87	16.97	15.89	14.36	13.30	11.78	11.58	11.41	12.68	14.39	10.71	7.307	5.665	5.021	4.932	4.394	4.273	4.474	3.602	2.848	2.751	2.972	6.811	19.48	47.67	214.9	504.0	209.1	10.58	0.832	0.614	0.533	0.646	0.461	0.492	0.468	0.341	0.395	0.371
545.0	40.88	50.58	56.53	65.94	81.00	160.4	153.9	99.68	123.2	760.0	3059	507.6	76.32	69.43	59.35	52.04	47.69	44.97	42.53	39.11	38.13	36.29	34.93	34.46	34.04	35.13	33.21	33.85	34.41	33.80	32.36	31.05	28.76	25.79	23.65	21.61	19.83	18.57	16.82	15.57	13.90	13.22	12.21	10.60	9.986	10.04	9.987	12.45	11.01	7.664	5.428	4.905	4.510	4.077	3.719	4.081	3.846	2.704	2.403	2.157	3.046	5.753	12.05	51.65	244.9	447.6	149.0	3.939	0.610	0.525	0.576	0.471	0.463	0.393	0.353	0.289	0.299
550.0	34.18	45.58	51.39	53.68	62.40	97.86	172.3	97.65	87.48	243.0	1901	1986	121.6	58.03	49.99	43.68	40.23	37.72	35.82	32.17	31.43	29.92	28.93	28.45	28.53	28.12	27.87	27.73	27.92	28.44	27.09	24.91	23.59	21.33	20.06	18.24	16.53	15.36	14.26	13.25	11.89	11.36	10.16	9.283	8.838	8.120	8.096	8.734	9.803	8.332	6.000	4.491	3.934	3.591	3.304	3.359	3.440	2.942	2.290	2.053	1.990	2.640	3.801	12.52	58.85	188.1	324.5	142.4	13.13	0.675	0.500	0.409	0.417	0.382	0.343	0.284	0.305
555.0	34.80	36.96	42.79	45.05	49.47	61.03	137.2	124.2	69.14	105.0	553.9	2778	570.4	48.89	41.22	35.80	33.04	29.13	28.77	26.06	25.26	24.35	24.43	22.71	22.46	22.13	22.28	22.80	22.70	23.32	21.35	20.49	18.67	17.35	15.99	14.63	13.88	13.02	11.68	10.55	9.924	9.315	8.687	7.742	7.441	6.790	6.350	5.980	7.070	8.089	6.782	4.301	3.332	3.124	2.877	2.713	2.680	2.825	2.576	1.858	1.558	1.535	1.846	3.695	13.93	42.71	99.18	282.1	213.8	16.33	0.553	0.406	0.375	0.324	0.266	0.318	0.295
560.0	38.65	38.67	34.97	37.74	42.26	45.16	96.52	148.7	66.15	71.44	173.2	1835	1379	73.25	34.89	30.91	28.30	24.75	24.46	22.28	21.35	20.27	20.11	20.19	19.18	19.18	19.25	19.16	18.45	18.83	17.99	17.23	15.82	14.41	13.68	12.70	11.98	10.79	10.35	9.317	8.514	7.807	7.289	6.765	5.973	5.865	5.451	4.872	5.115	6.554	6.527	4.649	2.943	2.649	2.516	2.234	2.386	2.269	2.589	2.048	1.411	1.250	1.319	1.606	3.922	10.32	23.34	108.5	301.1	157.9	7.517	0.516	0.405	0.327	0.343	0.248	0.344
565.0	33.41	34.37	35.23	34.99	39.68	41.91	60.74	149.8	76.14	55.70	79.36	704.0	2091	160.4	30.13	27.32	23.87	22.45	20.34	18.98	18.06	17.54	16.95	16.84	15.82	16.01	15.60	16.52	16.04	16.14	15.77	14.43	13.94	11.98	11.56	10.91	10.12	9.056	8.480	7.897	7.268	6.778	6.419	5.873	5.571	5.350	4.311	4.411	4.188	4.780	5.733	4.751	3.193	2.449	2.377	2.019	1.993	1.930	2.019	2.219	1.568	1.267	1.228	0.924	1.589	2.972	5.912	25.89	133.7	285.1	35.77	3.032	0.362	0.333	0.316	0.211	0.207
570.0	28.65	29.75	34.18	32.51	32.50	33.21	39.91	103.4	111.2	50.90	53.75	204.0	1397	980.5	58.58	22.23	19.88	18.57	16.17	15.25	15.15	14.01	13.98	13.45	13.14	12.64	12.69	13.25	13.09	12.80	12.67	11.96	10.74	10.04	9.399	8.645	7.947	7.567	7.010	6.515	6.033	5.361	5.400	4.762	4.624	4.158	3.736	3.599	3.340	3.418	3.844	4.401	3.573	2.474	2.054	1.914	1.892	1.624	1.481	1.794	1.759	1.249	1.018	0.806	0.956	1.226	1.944	6.292	31.75	113.5	179.2	103.0	11.54	0.463	0.233	0.194	0.175
575.0	24.80	32.43	35.38	27.86	27.53	28.01	29.21	57.68	125.7	59.21	42.92	75.84	412.7	1535	319.2	19.05	16.09	14.39	13.59	11.90	12.09	11.29	10.99	10.34	10.68	9.759	10.50	10.43	9.965	10.04	10.22	9.473	8.814	8.530	7.359	6.938	6.142	6.314	5.417	4.852	4.822	4.395	4.075	3.715	3.759	3.427	3.137	3.014	2.732	2.542	2.416	3.091	3.519	2.672	1.844	1.599	1.484	1.392	1.242	1.218	1.377	1.606	1.291	0.835	0.773	0.853	1.049	1.844	7.708	25.83	53.07	157.7	136.8	12.04	0.332	0.238	0.208
580.0	31.59	30.93	30.98	25.57	27.24	25.03	27.87	35.95	109.0	85.72	40.69	45.95	122.5	1082	859.5	30.38	14.50	12.86	10.91	10.75	9.892	9.092	9.334	9.158	9.015	8.197	8.793	8.302	8.384	8.623	8.248	7.895	7.126	6.873	6.278	5.823	5.345	5.214	4.646	4.489	4.060	3.853	3.223	3.270	3.132	2.999	2.782	2.607	2.344	2.071	2.036	2.306	3.090	2.854	2.011	1.418	1.215	1.263	1.041	1.049	1.047	1.359	1.374	0.958	0.660	0.614	0.721	0.871	2.196	6.134	12.34	56.47	170.0	93.54	5.251	0.297	0.178
585.0	25.58	33.06	28.31	24.37	21.70	20.95	25.51	30.01	73.34	109.1	44.57	37.91	51.23	441.3	1307	96.00	13.70	11.76	9.534	9.681	8.773	8.310	8.025	7.898	7.571	6.982	7.311	7.145	7.198	7.327	7.026	6.306	6.285	5.643	5.108	5.045	4.394	4.170	4.015	3.738	3.763	3.301	2.971	2.670	2.614	2.407	2.512	2.303	2.120	1.821	1.711	1.748	2.286	2.761	2.233	1.634	1.153	1.083	0.983	0.786	0.873	1.006	1.358	1.064	0.743	0.653	0.677	0.680	1.033	1.700	3.127	13.28	70.69	157.4	33.84	1.937	0.242
590.0	25.92	26.66	28.72	21.81	18.69	19.82	22.21	25.80	41.57	104.5	62.51	36.21	33.14	125.9	890.4	629.8	24.90	9.433	7.908	7.693	7.051	6.917	6.753	6.357	5.937	5.733	6.013	5.579	5.753	6.042	5.497	5.113	5.020	4.614	4.383	4.084	3.785	3.401	3.259	2.865	2.968	2.792	2.391	2.348	2.167	2.049	2.037	1.866	1.698	1.565	1.480	1.459	1.364	1.971	2.047	1.830	1.068	0.995	0.903	0.754	0.766	0.752	0.835	1.142	0.925	0.664	0.562	0.484	0.594	0.737	1.101	3.354	16.66	59.25	100.8	65.05	9.320
595.0	24.43	27.44	29.31	19.49	16.31	17.72	19.39	22.84	26.01	65.30	91.17	37.20	28.09	43.50	263.8	1033	97.34	8.234	7.147	5.890	5.679	5.632	5.271	4.946	4.702	4.901	4.847	4.765	4.687	4.889	4.480	4.537	3.888	3.491	3.696	3.051	2.849	2.801	2.793	2.400	2.292	2.269	2.143	1.909	1.789	1.900	1.554	1.534	1.463	1.335	1.106	1.068	1.008	1.222	1.668	1.813	1.233	0.863	0.873	0.803	0.670	0.575	0.608	0.701	1.079	0.783	0.509	0.471	0.479	0.477	0.557	1.029	3.886	13.37	27.90	85.34	82.28
600.0	23.49	28.23	26.73	20.05	18.66	16.47	15.63	20.36	23.28	42.68	96.75	44.14	27.23	25.57	73.36	753.6	456.6	13.34	6.189	5.356	4.747	4.365	4.452	4.204	4.100	3.642	4.035	3.752	4.138	3.884	3.573	3.833	3.226	2.986	3.028	2.606	2.472	2.349	2.289	1.933	1.923	1.724	1.833	1.805	1.478	1.487	1.434	1.249	1.114	1.090	0.859	0.939	0.823	0.906	1.180	1.536	1.340	0.940	0.787	0.594	0.625	0.507	0.475	0.531	0.828	0.900	0.513	0.461	0.394	0.381	0.413	0.522	1.084	3.142	6.509	28.66	95.85
605.0	23.21	27.33	23.69	17.00	17.09	15.62	17.34	18.75	22.91	31.75	87.60	59.01	28.38	22.11	28.56	310.7	767.8	56.34	5.718	5.148	4.022	4.369	3.727	3.516	3.502	3.355	3.078	3.300	3.413	3.210	3.129	3.113	2.706	2.406	2.560	2.410	2.081	2.096	1.953	1.788	1.617	1.355	1.411	1.397	1.140	1.198	1.207	1.052	0.954	0.925	0.855	0.818	0.770	0.685	0.864	1.253	1.335	0.963	0.755	0.471	0.521	0.482	0.464	0.485	0.500	0.800	0.767	0.536	0.453	0.301	0.310	0.376	0.431	0.911	1.737	6.687	36.94
610.0	19.79	24.04	23.87	17.94	14.87	15.03	16.30	19.71	24.64	29.07	58.87	84.68	35.99	23.98	19.87	86.49	567.8	368.5	13.17	4.260	3.416	3.567	3.342	2.835	2.604	2.832	2.603	2.822	2.612	2.697	2.478	2.483	2.355	2.079	1.954	1.971	1.738	1.673	1.571	1.402	1.259	1.145	1.162	1.155	1.109	1.084	0.965	0.937	0.868	0.806	0.698	0.686	0.600	0.576	0.646	0.768	1.105	1.077	0.863	0.494	0.514	0.393	0.456	0.410	0.461	0.534	0.687	0.660	0.537	0.336	0.292	0.311	0.273	0.396	0.557	1.647	8.628
615.0	25.57	22.48	22.91	17.88	14.81	13.70	15.25	19.35	24.84	28.10	40.00	80.35	50.77	23.81	19.04	29.67	173.3	642.5	73.44	3.794	2.712	2.904	2.849	2.349	2.348	2.323	1.952	2.370	2.097	2.111	2.028	1.963	1.895	1.576	1.540	1.486	1.490	1.436	1.228	1.050	1.064	1.047	0.957	0.971	0.801	0.935	0.844	0.711	0.627	0.634	0.470	0.585	0.480	0.415	0.504	0.598	0.652	0.910	0.852	0.545	0.445	0.424	0.353	0.375	0.393	0.407	0.441	0.637	0.650	0.375	0.289	0.242	0.321	0.284	0.286	0.503	2.053
620.0	19.02	18.77	18.08	16.09	13.58	12.53	15.90	18.28	23.24	26.61	31.35	63.02	66.26	26.09	17.28	17.18	50.39	487.8	353.9	7.199	2.699	2.324	2.209	1.911	1.975	1.784	1.863	1.840	1.703	1.716	1.758	1.564	1.569	1.340	1.247	1.280	1.160	1.059	1.147	0.851	0.787	0.940	0.760	0.792	0.661	0.555	0.653	0.513	0.518	0.549	0.426	0.463	0.521	0.392	0.443	0.407	0.410	0.616	0.738	0.636	0.505	0.381	0.374	0.300	0.284	0.339	0.344	0.434	0.627	0.502	0.272	0.335	0.267	0.246	0.148	0.235	0.636
625.0	12.77	20.74	19.56	17.70	13.22	13.19	15.93	17.67	22.02	26.81	29.25	45.61	72.62	29.48	16.84	13.48	20.59	204.8	609.6	34.37	2.542	2.112	1.938	1.738	1.541	1.445	1.421	1.573	1.448	1.524	1.516	1.315	1.465	1.164	1.091	1.055	0.992	0.990	0.972	0.805	0.694	0.657	0.734	0.648	0.598	0.627	0.556	0.518	0.546	0.535	0.419	0.420	0.420	0.365	0.367	0.342	0.337	0.394	0.654	0.684	0.560	0.287	0.349	0.313	0.216	0.257	0.359	0.362	0.486	0.587	0.387	0.224	0.248	0.191	0.153	0.162	0.245
630.0	16.38	17.01	18.75	16.68	10.56	13.30	14.73	16.86	20.04	24.65	28.18	35.17	61.80	43.26	18.12	13.10	13.52	56.95	466.8	269.2	6.402	2.020	1.719	1.520	1.348	1.380	1.298	1.326	1.215	1.281	1.150	1.087	1.053	0.914	0.926	0.896	0.787	0.749	0.752	0.556	0.606	0.578	0.541	0.481	0.487	0.487	0.486	0.489	0.408	0.422	0.335	0.316	0.335	0.408	0.274	0.310	0.327	0.332	0.387	0.537	0.507	0.449	0.253	0.247	0.250	0.251	0.277	0.254	0.317	0.400	0.474	0.330	0.234	0.159	0.155	0.191	0.172
635.0	18.87	16.78	20.59	14.49	13.43	14.17	14.96	16.44	20.26	22.46	25.93	30.07	43.11	55.60	22.79	15.42	13.60	20.09	141.3	515.9	52.48	1.869	1.786	1.235	1.527	1.234	0.922	0.911	0.944	1.028	0.985	0.930	0.809	0.667	0.697	0.705	0.627	0.612	0.634	0.537	0.592	0.489	0.428	0.455	0.437	0.454	0.326	0.443	0.304	0.292	0.272	0.298	0.237	0.308	0.257	0.296	0.268	0.248	0.303	0.361	0.465	0.476	0.310	0.304	0.287	0.238	0.198	0.256	0.235	0.272	0.405	0.467	0.336	0.155	0.135	0.224	0.159
640.0	13.52	16.39	21.93	15.68	14.14	15.82	15.76	14.48	17.29	21.72	27.41	29.76	34.88	54.97	33.30	17.96	14.69	13.22	39.49	416.8	224.0	3.752	1.542	1.141	1.339	1.036	0.718	0.966	0.792	0.906	0.794	0.827	0.701	0.658	0.613	0.628	0.438	0.502	0.468	0.478	0.390	0.350	0.309	0.460	0.357	0.303	0.300	0.356	0.285	0.248	0.280	0.262	0.200	0.243	0.247	0.238	0.244	0.235	0.261	0.247	0.341	0.416	0.398	0.326	0.282	0.230	0.233	0.200	0.246	0.283	0.297	0.357	0.475	0.230	0.199	0.165	0.198
645.0	15.42	20.88	19.57	17.35	16.41	16.85	14.50	15.98	17.13	22.29	26.89	29.25	30.72	46.83	41.61	20.02	16.75	12.50	16.10	187.0	407.0	19.68	1.725	1.081	1.042	0.786	0.693	0.867	0.944	0.776	0.746	0.611	0.696	0.591	0.552	0.536	0.450	0.431	0.341	0.474	0.347	0.326	0.368	0.284	0.305	0.238	0.322	0.331	0.256	0.284	0.210	0.244	0.215	0.262	0.257	0.201	0.272	0.217	0.196	0.201	0.280	0.473	0.335	0.319	0.290	0.201	0.247	0.188	0.253	0.211	0.285	0.257	0.403	0.319	0.262	0.161	0.130
650.0	20.08	18.03	18.87	18.90	15.25	14.57	14.54	16.16	18.23	20.71	26.27	28.53	29.07	37.87	46.27	22.31	17.22	12.16	10.62	57.14	416.8	65.37	1.892	0.991	0.980	0.835	0.743	0.737	0.835	0.717	0.681	0.637	0.505	0.465	0.468	0.466	0.434	0.369	0.366	0.373	0.287	0.363	0.349	0.286	0.237	0.266	0.323	0.265	0.190	0.220	0.198	0.279	0.183	0.174	0.243	0.200	0.242	0.210	0.190	0.184	0.233	0.324	0.343	0.336	0.232	0.267	0.228	0.202	0.229	0.205	0.275	0.255	0.336	0.327	0.298	0.189	0.207
