Sample:	'1
File name:	S2025080906¾°Ô·Â·ÇÅ.FD3
Run date:	'16:32:12, 08/10/2025
Operator:	Administrator
Comment:	'

Instrument
Model:	F-2700 FL Spectrophotometer
Serial number:	3064-004
ROM Version:	4J14000 07

Instrument parameters
Measurement type:	3-D scan
Data mode:	Fluorescence
EX  Start WL:	220.0 nm
EX  End WL:	600.0 nm
EX Sampling interval:	5.0 nm
EM  Start WL:	230.0 nm
EM  End WL:	650.0 nm
EM Sampling interval:	5.0 nm
Scan speed:	12000 nm/min
EX Slit:	5.0 nm
EM Slit:	5.0 nm
PMT Voltage:	700 V
Response:	Auto 
Corrected spectra:	Off
Contour interval:	50.000

Peak integration
Integration method:	Rectangular
Sensitivity:	1
Threshold:	1.000

Peaks
No.	ApexEX/EM(nm)	Height(Data)
1	225.0/605.0	65.74
2	225.0/620.0	54.35
3	230.0/305.0	692.2
4	230.0/575.0	76.29
5	230.0/600.0	68.04
6	230.0/625.0	53.81
7	230.0/640.0	52.12
8	245.0/265.0	309.8
9	245.0/530.0	279.6
10	245.0/625.0	40.92
11	250.0/400.0	 1706
12	250.0/545.0	251.1
13	255.0/280.0	701.1
14	255.0/555.0	236.3
15	260.0/285.0	955.3
16	260.0/570.0	200.5
17	265.0/290.0	 1176
18	265.0/580.0	210.4
19	270.0/295.0	 1702
20	270.0/595.0	182.0
21	275.0/305.0	 2059
22	275.0/605.0	179.9
23	280.0/310.0	 1982
24	280.0/375.0	 1993
25	280.0/620.0	147.9
26	285.0/315.0	 1860
27	285.0/630.0	109.5
28	290.0/645.0	87.27
29	445.0/525.0	67.38
30	505.0/275.0	3.382
31	520.0/285.0	4.863
32	530.0/290.0	5.816
33	545.0/300.0	8.630
34	555.0/305.0	9.186
35	560.0/310.0	8.675
36	575.0/320.0	9.171
37	575.0/360.0	9.093

Data points
	220.0	225.0	230.0	235.0	240.0	245.0	250.0	255.0	260.0	265.0	270.0	275.0	280.0	285.0	290.0	295.0	300.0	305.0	310.0	315.0	320.0	325.0	330.0	335.0	340.0	345.0	350.0	355.0	360.0	365.0	370.0	375.0	380.0	385.0	390.0	395.0	400.0	405.0	410.0	415.0	420.0	425.0	430.0	435.0	440.0	445.0	450.0	455.0	460.0	465.0	470.0	475.0	480.0	485.0	490.0	495.0	500.0	505.0	510.0	515.0	520.0	525.0	530.0	535.0	540.0	545.0	550.0	555.0	560.0	565.0	570.0	575.0	580.0	585.0	590.0	595.0	600.0
230.0	24.65	408.8	 2877	 1502	113.8	16.39	11.11	10.87	9.444	9.329	9.365	10.23	7.836	6.816	6.251	5.711	5.219	4.578	4.431	4.304	4.035	3.796	3.491	3.127	3.481	2.887	2.951	2.636	2.609	2.438	2.539	2.244	2.021	2.100	1.917	1.826	1.667	1.465	1.322	1.493	1.367	1.336	1.353	1.158	1.009	1.124	1.925	5.698	10.26	8.710	3.981	1.357	0.707	0.744	0.758	0.783	0.786	0.707	0.645	0.616	0.619	0.685	0.678	0.655	0.605	0.609	0.515	0.632	0.659	0.506	0.576	0.560	0.530	0.488	0.560	0.484	0.575
235.0	39.64	112.4	 1235	 3146	 1116	172.8	14.55	12.11	10.43	9.769	9.055	9.659	7.760	7.611	6.918	5.321	5.385	5.429	5.005	4.042	4.358	3.805	4.063	3.483	3.083	2.905	3.004	2.861	2.651	2.311	2.241	2.108	1.941	1.949	1.875	1.897	1.648	1.610	1.422	1.546	1.450	1.428	1.218	1.242	1.158	1.173	1.305	2.048	4.050	7.380	10.68	12.45	5.182	1.883	0.718	0.695	0.738	0.786	0.561	0.650	0.598	0.648	0.784	0.693	1.014	0.451	0.626	0.561	0.705	0.592	0.547	0.477	0.555	0.527	0.705	0.413	0.497
240.0	51.00	78.57	316.5	 1783	 4100	962.6	92.05	14.17	10.10	10.12	10.32	9.995	9.575	8.372	7.037	5.807	5.497	5.500	4.556	3.967	4.453	3.311	3.449	3.467	3.135	3.056	2.778	2.270	2.904	2.542	2.184	2.555	1.776	1.843	1.833	1.720	1.679	1.804	1.525	1.218	1.333	1.434	1.156	1.135	1.248	1.309	1.195	1.088	1.674	2.469	5.525	13.01	16.62	12.41	4.305	1.075	0.678	0.515	0.788	0.697	0.630	0.539	0.536	0.674	0.750	0.637	0.512	0.564	0.707	0.779	0.437	0.518	0.500	0.484	0.542	0.478	0.548
245.0	34.13	94.59	113.0	473.1	 2868	 5046	799.1	46.56	14.30	14.20	11.06	11.93	10.71	7.993	8.897	6.652	5.534	5.266	4.325	3.753	4.613	3.946	3.922	3.785	3.091	3.279	3.003	2.793	2.599	2.769	2.106	2.544	2.032	1.865	1.917	1.433	1.649	1.336	1.540	1.381	1.279	1.113	1.317	1.023	1.041	1.244	1.279	1.443	1.319	1.129	1.902	4.474	11.52	19.49	18.10	11.55	3.709	0.768	0.776	0.640	0.827	0.755	0.665	0.666	0.590	0.550	0.572	0.494	0.587	0.542	0.375	0.480	0.564	0.541	0.589	0.696	0.664
250.0	23.87	53.35	129.0	196.6	772.0	 2961	 5519	 2907	242.4	19.97	13.50	12.78	11.53	8.139	8.772	7.049	6.005	5.732	4.706	4.403	4.033	4.013	4.089	3.662	3.343	3.213	3.137	2.922	2.801	2.791	2.541	2.329	2.151	2.244	1.867	1.761	1.715	1.371	1.436	1.277	1.316	1.021	1.305	1.128	1.163	1.160	1.086	1.376	1.403	1.218	1.222	1.701	3.311	6.573	10.85	18.28	22.64	19.99	12.65	4.167	1.045	0.772	0.792	0.662	0.696	0.631	0.655	0.513	0.608	0.606	0.440	0.539	0.572	0.587	0.517	0.510	0.683
255.0	23.77	29.07	70.17	203.6	292.6	693.7	 2347	 8062	 4531	330.1	17.47	14.68	13.68	9.656	9.591	8.281	6.925	6.520	5.511	5.100	4.747	4.507	4.184	4.081	3.913	3.435	3.404	3.370	2.915	2.618	2.476	2.487	2.102	1.969	2.175	1.765	1.822	1.484	1.584	1.285	1.391	1.586	1.247	1.127	1.159	1.263	1.270	0.967	1.187	1.321	1.362	1.908	1.605	1.909	3.101	4.998	8.563	19.42	36.02	38.66	21.57	5.194	0.981	0.670	0.823	0.540	0.651	0.490	0.782	0.631	0.552	0.569	0.461	0.559	0.495	0.482	0.737
260.0	26.44	26.36	33.52	129.0	297.6	234.6	584.4	 3973	9999.9	 3941	216.9	21.85	16.41	12.03	12.63	8.151	8.180	7.524	6.122	5.601	4.721	4.266	4.107	3.555	4.155	3.140	3.618	3.411	3.026	2.943	2.510	2.692	2.315	2.002	1.698	1.861	1.789	1.740	1.548	1.347	1.592	1.601	1.281	1.238	1.261	1.407	1.101	1.082	1.101	0.895	1.181	1.943	1.926	1.553	1.407	1.729	2.759	5.705	15.55	35.86	52.99	41.63	16.96	2.633	0.796	0.666	0.635	0.637	0.633	0.650	0.543	0.724	0.785	0.657	0.597	0.655	0.733
265.0	36.81	25.47	22.41	62.28	231.8	309.8	185.7	 1036	 6279	9999.9	 3188	116.1	21.44	17.07	12.17	8.781	8.320	7.702	6.662	4.885	4.563	4.671	4.165	4.099	3.647	3.471	3.602	3.660	3.462	3.031	2.861	2.725	1.996	2.167	1.879	2.002	1.585	1.510	1.458	1.246	1.536	1.537	1.464	1.394	1.593	1.367	1.097	1.177	1.262	0.855	0.963	1.326	1.579	2.017	1.745	1.467	1.152	2.097	4.192	10.56	27.15	53.60	54.03	36.39	10.12	1.085	0.659	0.559	0.843	0.653	0.669	0.761	0.702	0.551	0.527	0.649	0.759
270.0	68.58	56.58	40.98	42.97	97.76	282.7	355.9	359.1	 1661	 6115	9999.9	 9521	201.6	26.12	16.22	12.71	9.385	9.102	7.583	6.315	6.003	5.469	4.489	4.666	4.311	4.390	3.927	3.617	3.252	3.252	3.187	2.672	2.147	2.328	2.129	1.971	1.660	1.793	1.652	1.353	1.500	1.551	1.689	1.431	1.613	1.395	1.334	1.156	1.275	0.953	0.849	1.161	1.133	1.376	1.909	2.506	2.030	1.761	2.006	3.152	6.937	15.60	29.34	49.89	55.42	59.52	25.46	9.586	1.480	0.876	0.690	0.727	0.801	0.611	0.685	0.714	0.728
275.0	134.6	119.5	82.84	59.16	64.82	124.4	391.1	556.0	580.0	 1584	 4150	9999.9	9999.9	255.9	23.48	17.06	12.58	10.08	8.578	7.172	5.762	5.618	5.239	4.903	4.574	4.024	3.856	4.178	3.780	3.760	3.506	3.087	2.834	2.472	2.400	2.355	1.984	1.791	1.776	1.560	1.508	1.640	2.064	1.751	1.825	1.587	1.641	1.515	1.323	1.313	1.016	1.129	1.035	1.261	1.245	1.669	2.422	3.382	2.999	2.212	2.868	4.677	7.709	12.73	18.83	46.38	92.13	108.2	37.98	9.235	0.846	0.735	0.912	0.553	0.622	0.947	0.801
280.0	213.3	194.9	159.1	115.6	82.71	112.6	241.1	701.1	631.3	664.3	 1298	 5596	9999.9	9999.9	165.6	23.43	15.27	12.72	11.03	8.045	6.852	6.727	5.484	5.301	5.218	3.948	4.287	4.159	3.984	3.974	3.706	3.117	2.964	2.471	2.432	2.298	1.934	2.311	2.056	1.769	1.793	2.042	2.056	2.023	2.109	2.201	1.900	1.752	1.494	1.465	1.234	1.401	1.199	1.132	1.269	1.485	1.745	2.813	3.731	3.876	2.918	2.635	3.475	4.757	6.248	12.96	34.43	85.38	129.4	54.68	26.66	3.080	0.883	0.679	0.628	0.892	0.706
285.0	273.1	281.6	250.5	206.4	135.0	127.8	197.2	481.5	955.3	640.8	728.4	 1701	 8255	9999.9	 2121	103.1	20.77	16.11	11.69	9.349	8.421	8.025	6.618	5.702	5.995	4.762	4.728	4.172	4.103	4.019	4.113	3.079	3.236	2.849	2.471	2.337	2.312	2.349	2.226	1.955	1.959	2.311	2.207	2.133	2.111	2.419	2.388	2.180	1.657	1.696	1.374	1.409	1.423	1.051	1.196	1.476	1.623	1.837	2.641	4.064	4.863	4.189	2.920	3.369	4.106	5.086	9.864	23.92	58.28	109.2	144.3	47.06	14.33	1.249	0.953	1.001	0.687
290.0	325.9	397.3	418.4	348.7	235.5	191.0	230.3	372.6	778.8	 1176	983.1	991.3	 2465	 7633	9999.9	 8060	126.7	24.47	16.52	12.72	10.68	8.312	6.917	6.254	5.953	5.666	5.000	4.952	4.144	3.550	3.943	3.412	3.223	3.322	2.587	2.816	2.809	2.553	2.427	2.362	2.403	2.541	2.494	2.393	2.510	2.643	2.545	2.837	2.354	2.143	2.011	1.890	1.638	1.444	1.379	1.543	1.674	1.938	2.173	2.828	3.814	5.202	5.816	4.828	4.438	4.310	4.908	7.896	15.57	30.72	61.76	89.39	117.7	101.5	29.68	12.10	1.469
295.0	339.8	507.0	554.3	499.3	344.3	238.6	294.8	401.7	636.9	 1046	 1702	 1247	 1304	 2211	 3826	9999.9	9999.9	161.4	24.29	16.79	13.10	10.93	8.497	7.145	6.529	6.120	5.518	5.367	4.019	4.581	4.171	3.607	2.736	3.229	2.914	2.856	2.731	2.647	2.676	2.405	2.738	2.507	2.612	2.711	2.807	2.978	2.888	2.994	2.748	2.741	2.163	2.437	2.079	1.963	1.810	1.715	1.932	2.325	2.352	2.676	3.273	3.717	4.918	6.475	7.384	6.345	5.026	5.515	7.017	9.636	16.38	21.92	33.24	71.35	151.2	173.4	45.12
300.0	375.7	515.7	637.5	579.9	417.7	314.8	362.9	445.3	637.9	943.3	 1662	 1864	 1233	 1133	 1232	 5175	9999.9	 9344	120.6	23.01	17.22	12.44	10.56	9.336	7.239	6.882	5.748	5.382	5.106	4.419	4.505	3.479	3.180	3.332	2.949	2.668	2.803	2.653	2.867	2.486	2.807	2.476	2.560	2.761	2.932	2.996	3.159	3.235	3.292	2.776	2.441	2.767	2.280	2.251	2.003	2.310	2.200	2.602	2.618	2.715	3.342	3.451	4.018	5.240	7.472	8.630	7.808	6.028	5.422	6.227	6.804	7.319	9.527	18.08	51.19	133.4	200.2
305.0	363.5	530.4	692.2	619.4	465.7	380.6	400.2	500.8	696.2	947.1	 1429	 2059	 1658	 1030	733.6	 1451	 8236	9999.9	 6777	83.13	22.40	15.69	11.68	10.09	8.008	7.688	5.765	5.617	5.136	5.291	4.746	3.775	3.722	3.017	2.894	2.725	2.682	3.019	2.549	2.441	2.729	2.787	2.565	2.509	2.868	3.121	3.235	3.215	3.386	3.060	2.696	2.852	2.457	2.132	2.203	1.930	2.130	2.546	2.828	3.244	3.541	4.266	4.673	5.420	5.630	7.484	9.105	9.186	6.393	5.925	5.376	4.810	4.633	5.860	13.40	35.25	87.84
310.0	346.8	549.8	685.8	632.4	519.7	423.8	453.2	565.3	731.0	997.0	 1328	 1700	 1982	 1455	768.5	662.2	 2136	 7882	9999.9	9999.9	441.9	23.93	16.06	11.96	9.568	8.841	6.471	6.681	5.690	5.798	4.580	4.106	3.596	3.510	2.735	3.290	2.958	2.711	2.800	2.685	2.526	2.869	2.826	2.563	2.733	3.166	3.264	3.241	3.458	2.860	2.748	2.809	2.731	2.422	2.405	2.309	2.320	2.814	3.047	3.144	3.738	4.061	4.555	5.225	5.475	6.337	7.211	8.207	8.675	8.303	6.476	4.738	4.218	3.855	5.049	9.600	21.67
315.0	350.9	543.9	663.8	666.4	535.0	467.2	503.3	609.7	775.5	 1016	 1292	 1541	 1694	 1860	 1171	601.3	762.0	 1954	 3728	9999.9	 8498	122.5	25.68	16.49	12.06	9.834	8.787	6.956	5.933	6.409	5.275	4.739	4.025	3.650	3.123	3.267	3.296	3.147	2.919	2.593	3.028	2.809	2.645	2.661	3.192	3.289	3.307	3.799	3.377	3.072	2.776	2.967	2.565	2.650	2.637	2.812	2.676	3.121	3.284	3.462	3.775	3.817	4.741	4.946	5.309	6.068	6.651	7.308	7.547	7.594	8.390	8.087	5.112	3.733	3.724	4.209	6.752
320.0	346.4	610.8	779.7	735.9	592.0	508.7	537.9	629.9	804.4	 1035	 1318	 1536	 1629	 1696	 1626	790.3	542.4	698.8	 1018	 5631	9999.9	 7283	95.54	22.12	14.96	11.82	9.598	8.514	6.577	6.414	5.565	4.606	4.397	3.736	3.441	3.268	3.225	3.343	3.015	2.611	2.789	2.567	2.847	2.769	3.479	3.379	3.426	3.796	3.798	3.286	3.195	3.303	2.636	2.832	2.663	2.756	2.670	3.003	3.361	3.715	4.081	4.145	4.642	5.065	5.274	6.105	6.805	7.403	7.436	7.153	8.569	9.171	8.127	4.961	4.194	3.735	4.059
325.0	373.2	670.8	956.8	878.0	649.3	549.5	578.9	676.6	806.6	 1058	 1351	 1567	 1686	 1590	 1631	 1207	610.2	483.3	457.3	 1461	 9262	9999.9	 5574	67.20	19.95	14.76	11.03	9.798	7.843	7.147	5.778	5.701	4.563	4.073	3.442	3.152	3.147	3.368	2.811	2.912	2.315	2.597	2.874	2.880	3.584	3.485	3.703	4.420	4.211	3.507	3.384	3.625	3.027	2.899	2.884	2.847	2.949	3.360	3.584	3.980	4.191	4.382	4.730	5.643	5.778	6.455	7.026	7.566	7.651	6.846	7.769	7.462	7.880	7.730	5.739	4.605	3.454
330.0	380.9	723.2	 1045	 1034	798.8	632.8	624.4	714.8	862.9	 1108	 1394	 1607	 1723	 1629	 1469	 1348	 1014	577.7	415.6	548.2	 2331	 8529	9999.9	9999.9	372.9	23.07	15.20	11.78	9.880	7.964	6.617	6.107	5.315	4.466	3.827	3.448	3.230	3.121	3.163	2.684	2.902	2.900	3.078	2.991	3.236	3.718	4.127	4.955	4.660	4.042	4.140	4.105	3.549	3.425	2.965	3.174	3.158	3.461	3.591	4.036	4.098	4.746	4.758	5.489	6.065	6.228	7.215	7.247	7.671	7.398	7.390	7.306	6.768	7.167	7.583	7.283	5.436
335.0	403.8	766.9	 1103	 1193	955.7	766.3	705.8	781.8	942.4	 1147	 1399	 1670	 1779	 1739	 1506	 1250	 1206	939.3	532.2	433.4	755.4	 2084	 4280	9999.9	9999.9	98.44	21.36	16.36	13.09	9.184	7.511	6.805	5.609	4.576	4.394	4.117	3.285	3.509	2.995	2.993	3.140	3.022	2.834	3.207	3.661	3.974	4.409	5.224	4.925	4.013	4.351	4.319	4.036	4.099	3.426	3.510	3.474	4.329	3.790	4.245	4.464	5.370	5.431	5.772	6.223	6.393	7.068	6.950	8.266	7.558	8.030	7.921	7.387	6.915	6.740	6.578	7.611
340.0	421.5	747.6	 1176	 1268	 1090	887.6	811.4	864.4	998.3	 1204	 1469	 1714	 1837	 1772	 1579	 1259	 1111	 1150	743.6	478.5	465.5	696.0	 1144	 6803	9999.9	 5976	79.06	22.67	15.79	12.31	9.264	7.201	6.666	5.202	4.557	4.214	3.713	3.428	3.388	2.856	3.292	3.178	3.117	3.471	3.590	4.187	4.603	4.910	5.229	4.780	4.576	4.603	4.076	4.242	3.605	3.639	4.345	3.798	4.156	4.166	4.534	5.409	5.499	6.273	6.742	6.886	6.795	7.501	7.699	8.064	8.446	7.798	7.949	7.042	6.606	6.730	6.408
345.0	421.4	737.2	 1173	 1295	 1152	981.9	931.2	949.9	 1043	 1273	 1505	 1692	 1849	 1810	 1640	 1316	 1099	 1091	 1020	617.1	476.5	449.2	477.1	 1776	9999.9	9999.9	 4829	60.24	21.47	15.04	10.98	8.690	7.091	5.722	5.034	4.534	3.953	3.909	3.494	3.391	3.125	3.324	2.907	3.084	3.320	4.286	4.492	5.163	5.375	5.173	4.445	5.247	4.455	4.462	4.312	3.956	4.648	4.321	4.297	4.624	5.112	5.679	5.637	6.080	6.376	6.986	6.840	7.370	7.655	7.824	8.110	7.746	8.066	7.677	6.700	7.217	6.302
350.0	408.7	709.4	 1128	 1329	 1296	 1149	 1080	 1101	 1174	 1335	 1555	 1721	 1860	 1849	 1691	 1417	 1199	 1054	 1059	947.7	648.7	506.6	431.5	643.7	 2576	9999.9	9999.9	9999.9	312.1	22.69	14.94	11.31	8.466	6.600	5.446	5.188	4.269	4.167	3.953	3.549	3.186	3.156	2.986	3.424	3.763	3.838	4.400	5.340	5.366	4.992	4.707	5.348	5.219	4.945	5.060	4.807	4.643	4.625	5.020	5.049	5.491	5.675	5.978	6.202	6.845	7.122	7.576	7.363	8.099	8.103	8.118	7.971	8.185	7.429	7.436	7.599	6.646
355.0	404.5	675.6	 1077	 1367	 1408	 1328	 1274	 1273	 1351	 1470	 1703	 1786	 1916	 1879	 1751	 1523	 1294	 1139	 1046	 1069	982.7	670.2	530.4	493.5	833.1	 2414	 5131	9999.9	9999.9	86.59	22.79	15.52	11.14	7.808	6.738	5.824	4.353	4.347	4.085	3.692	3.510	3.338	3.191	3.217	3.542	3.830	4.149	5.118	5.206	5.038	4.795	5.699	5.540	5.338	5.649	5.421	5.739	5.664	5.470	6.245	6.261	6.117	6.345	6.592	6.654	7.520	8.343	8.209	8.294	8.552	8.483	8.396	8.528	7.752	7.969	8.114	7.442
360.0	376.3	669.7	 1091	 1347	 1448	 1410	 1365	 1408	 1471	 1615	 1751	 1844	 1937	 1911	 1788	 1592	 1397	 1236	 1111	 1059	 1132	905.7	635.6	530.0	506.0	770.7	 1353	 8286	9999.9	 5343	67.25	19.95	13.21	9.802	8.111	6.708	4.778	4.663	4.555	3.608	3.268	3.396	3.222	3.078	2.993	4.420	4.148	4.999	5.226	5.058	4.948	6.112	5.457	5.921	5.900	5.454	6.008	5.819	6.215	6.789	6.486	6.280	6.526	6.793	7.027	7.905	8.406	8.155	8.239	8.715	8.282	9.093	8.240	8.257	8.742	8.153	7.858
365.0	377.7	645.7	 1069	 1329	 1481	 1487	 1470	 1491	 1583	 1684	 1821	 1909	 1938	 1928	 1822	 1633	 1460	 1312	 1195	 1110	 1130	 1132	800.5	613.8	500.1	456.1	506.9	 2137	9999.9	9999.9	 4182	48.33	18.49	12.00	8.850	6.814	5.726	5.023	4.386	4.085	3.793	3.480	3.483	3.220	3.766	4.223	4.005	4.851	4.911	4.992	4.851	6.103	5.578	6.426	6.200	6.286	6.160	6.206	6.581	6.259	6.247	6.435	7.196	7.490	7.821	7.770	7.635	8.575	8.623	8.845	9.251	8.801	8.702	9.157	8.293	8.678	8.756
370.0	376.1	655.9	 1034	 1329	 1502	 1561	 1577	 1590	 1654	 1770	 1879	 1948	 1966	 1940	 1847	 1679	 1538	 1411	 1302	 1221	 1161	 1167	 1080	803.4	610.4	486.6	401.6	680.1	 2653	9999.9	9999.9	9999.9	55.55	18.32	12.49	8.701	6.800	5.995	4.688	4.346	4.008	3.769	3.316	3.399	3.796	4.350	4.226	4.797	5.000	5.190	4.907	5.866	5.908	6.500	6.588	6.332	6.878	6.714	6.763	6.695	7.058	7.363	7.819	7.937	7.924	8.176	7.732	8.784	8.799	8.694	9.028	8.449	9.126	8.796	8.813	8.460	8.939
375.0	353.7	639.9	970.2	 1325	 1546	 1614	 1669	 1667	 1727	 1829	 1907	 1971	 1993	 1932	 1839	 1702	 1582	 1509	 1419	 1343	 1249	 1191	 1167	 1090	798.7	612.3	477.1	441.0	790.2	 2378	 6278	9999.9	9999.9	67.77	19.40	12.30	8.483	6.915	5.377	4.842	4.531	3.711	4.007	3.752	3.907	4.079	3.995	4.527	4.898	4.842	4.821	6.108	6.229	6.731	6.694	6.565	6.845	6.878	7.109	7.487	7.214	7.501	7.882	8.135	7.632	7.802	8.371	8.421	8.602	8.181	8.894	8.373	9.154	8.665	9.637	9.221	9.505
380.0	346.7	618.6	946.2	 1283	 1563	 1683	 1681	 1686	 1762	 1858	 1929	 1951	 1986	 1933	 1842	 1715	 1616	 1547	 1489	 1409	 1330	 1248	 1171	 1193	 1000	728.1	563.2	451.1	428.0	708.0	 1593	 9816	9999.9	 4239	52.16	16.00	11.12	8.063	6.539	4.853	4.984	4.302	3.813	4.135	4.261	3.818	4.230	4.453	4.662	4.937	4.588	6.082	6.409	6.801	6.735	6.657	6.465	7.066	6.939	7.343	7.262	8.067	7.536	7.103	7.796	8.173	8.387	8.171	8.541	8.885	8.808	8.804	9.210	8.983	9.314	9.616	9.379
385.0	362.1	622.8	922.7	 1260	 1551	 1676	 1702	 1723	 1757	 1832	 1903	 1935	 1960	 1913	 1802	 1700	 1630	 1570	 1517	 1450	 1397	 1305	 1212	 1163	 1145	863.2	652.7	508.4	404.2	371.8	512.2	 2546	9999.9	9999.9	 3150	36.26	13.52	9.640	7.776	6.238	4.843	4.647	4.031	4.122	4.287	4.070	4.076	4.397	4.941	4.566	5.151	5.956	6.440	7.669	6.835	6.811	6.900	7.145	6.907	6.953	7.184	7.141	7.802	7.425	7.891	7.896	8.223	8.507	8.433	8.544	8.559	8.679	9.321	8.733	9.117	9.139	9.878
390.0	353.5	606.9	915.7	 1234	 1499	 1638	 1689	 1714	 1743	 1794	 1856	 1900	 1904	 1860	 1769	 1691	 1625	 1585	 1534	 1494	 1438	 1360	 1275	 1172	 1147	 1056	809.6	605.7	472.9	369.9	323.0	712.3	 2727	9999.9	9999.9	 8636	43.77	14.53	9.939	7.382	5.844	5.090	4.538	4.570	4.254	4.181	4.162	4.674	4.672	4.520	5.022	6.044	6.355	6.836	6.413	7.161	7.225	6.881	7.207	7.057	7.207	7.396	7.248	7.855	7.803	7.578	8.052	7.652	8.475	8.457	8.416	8.525	8.398	8.880	8.754	8.791	9.222
395.0	359.1	579.7	918.3	 1236	 1439	 1619	 1685	 1687	 1718	 1771	 1808	 1846	 1826	 1795	 1735	 1657	 1607	 1570	 1545	 1513	 1449	 1397	 1315	 1216	 1131	 1077	 1008	743.6	565.9	437.9	340.9	349.9	743.8	 2342	 6139	9999.9	 3988	54.84	13.60	10.01	7.940	6.323	5.057	4.627	4.386	4.274	4.536	4.477	5.264	4.458	4.745	5.714	6.146	6.075	6.485	6.929	6.959	6.885	7.018	7.890	7.290	7.385	7.532	7.586	8.252	7.783	7.572	7.885	8.522	8.110	8.207	8.674	8.310	8.694	8.879	8.796	9.871
400.0	348.8	567.4	877.9	 1180	 1383	 1547	 1706	 1668	 1700	 1723	 1784	 1782	 1777	 1744	 1686	 1632	 1586	 1568	 1530	 1503	 1453	 1413	 1336	 1244	 1151	 1071	 1049	890.2	644.9	500.4	385.8	309.7	326.3	635.5	 1533	 9112	9999.9	 3452	40.90	13.08	9.471	7.219	6.013	5.198	4.601	4.150	4.386	4.431	5.255	4.738	4.095	5.564	6.142	6.467	6.745	6.986	6.695	7.074	6.836	6.678	7.219	7.267	7.835	7.016	7.196	7.652	7.473	7.239	8.371	8.149	8.418	8.146	8.416	8.270	8.503	9.215	9.306
405.0	313.8	532.6	896.9	 1132	 1349	 1505	 1593	 1627	 1691	 1709	 1767	 1757	 1728	 1702	 1649	 1588	 1541	 1532	 1511	 1477	 1446	 1395	 1333	 1244	 1173	 1072	 1011	977.0	750.6	561.9	437.9	333.4	265.0	279.9	441.9	 2378	9999.9	9999.9	487.0	27.07	10.88	8.259	6.924	5.308	4.958	4.422	4.420	4.830	4.649	4.757	4.358	5.572	6.510	6.431	6.706	6.419	6.984	6.714	6.711	6.964	7.234	7.299	7.480	6.810	7.350	7.152	7.242	7.424	8.233	7.659	8.442	8.137	8.075	8.122	7.956	9.303	8.676
410.0	309.9	517.5	827.3	 1100	 1308	 1456	 1550	 1610	 1625	 1673	 1690	 1679	 1656	 1653	 1573	 1510	 1486	 1471	 1456	 1440	 1408	 1364	 1310	 1247	 1183	 1082	994.6	946.8	872.4	672.0	508.6	385.0	294.3	234.5	222.0	620.2	 2668	9999.9	9999.9	 6179	36.58	11.48	8.148	6.366	5.602	4.729	4.646	4.770	4.823	4.547	4.330	5.447	5.802	6.073	6.278	6.286	6.695	6.858	6.964	6.053	7.087	7.051	7.220	7.147	7.117	7.136	7.181	7.406	7.511	7.553	7.872	7.879	7.547	7.782	8.240	8.826	8.216
415.0	293.2	496.7	788.0	 1038	 1237	 1433	 1500	 1547	 1627	 1616	 1618	 1640	 1585	 1559	 1503	 1432	 1416	 1402	 1392	 1377	 1361	 1311	 1279	 1218	 1172	 1089	 1005	914.8	868.3	801.1	598.6	448.4	337.7	258.2	203.7	246.7	672.6	 2302	 5472	9999.9	 3517	47.42	11.21	8.714	6.352	5.170	5.452	5.024	5.006	4.479	4.374	5.285	5.156	5.519	6.242	5.957	6.623	6.704	6.796	6.672	6.991	7.064	6.995	6.958	6.583	6.977	7.108	7.275	7.710	6.622	7.267	7.159	7.408	7.679	8.081	8.328	8.649
420.0	286.2	490.3	744.5	977.7	 1185	 1353	 1456	 1538	 1588	 1606	 1564	 1572	 1521	 1477	 1430	 1366	 1355	 1332	 1344	 1320	 1299	 1275	 1234	 1192	 1150	 1085	995.7	917.0	838.5	819.2	691.2	492.9	369.3	282.6	213.2	179.2	241.2	578.6	 1341	 7652	9999.9	 2994	33.28	10.55	7.227	6.035	5.728	5.038	4.993	4.495	4.204	5.173	5.882	5.737	5.740	5.916	6.078	6.338	6.309	6.589	6.728	6.457	6.690	6.649	6.492	6.830	6.536	6.665	6.921	6.880	7.147	7.010	7.249	6.993	7.512	7.866	8.592
425.0	289.2	483.8	718.5	965.7	 1172	 1316	 1404	 1503	 1531	 1557	 1511	 1511	 1449	 1430	 1368	 1314	 1290	 1282	 1285	 1260	 1240	 1229	 1197	 1164	 1127	 1065	995.2	918.5	837.0	787.9	741.0	561.7	405.1	311.5	236.0	183.4	157.5	206.2	356.4	 1997	9999.9	9999.9	444.9	21.63	9.639	6.698	5.880	5.468	5.032	4.544	4.286	5.348	5.646	5.495	5.872	5.829	6.500	5.963	5.788	6.543	6.312	6.765	6.421	6.464	6.424	6.857	6.604	6.552	6.832	6.737	6.491	7.331	6.458	6.591	7.177	7.086	7.901
430.0	368.8	444.1	679.1	894.0	 1091	 1231	 1344	 1444	 1467	 1507	 1477	 1431	 1399	 1351	 1300	 1244	 1222	 1212	 1210	 1198	 1182	 1178	 1143	 1118	 1079	 1036	971.8	913.7	838.6	766.5	710.0	627.8	479.0	349.2	268.9	209.5	160.2	142.1	149.5	500.0	 2567	 7917	9999.9	 4730	32.42	9.397	7.338	6.196	5.310	4.457	4.630	5.068	5.196	5.679	5.363	5.419	6.173	5.976	5.829	6.171	6.064	6.542	6.540	6.348	6.060	5.649	6.274	6.191	6.473	6.509	6.592	6.522	6.733	6.258	7.076	6.693	7.158
435.0	654.0	434.2	631.1	836.0	 1017	 1173	 1301	 1379	 1424	 1449	 1435	 1382	 1325	 1277	 1225	 1183	 1143	 1132	 1135	 1119	 1116	 1105	 1084	 1059	 1026	 1000	939.3	882.9	826.1	757.8	678.3	615.8	550.6	404.2	297.5	234.8	181.6	146.8	120.0	178.0	622.3	 1813	 4607	9999.9	 3231	42.81	9.843	7.805	6.289	4.750	4.957	5.036	5.055	5.927	5.550	5.662	5.538	5.801	5.994	6.323	5.666	6.314	6.593	6.151	6.121	6.391	6.008	5.875	5.506	5.873	6.446	6.308	6.662	7.201	6.202	6.675	6.850
440.0	807.9	553.7	652.3	799.1	987.5	 1100	 1258	 1327	 1406	 1416	 1395	 1350	 1271	 1231	 1170	 1134	 1085	 1083	 1079	 1067	 1065	 1043	 1033	 1012	989.4	959.2	918.4	874.8	815.2	759.9	675.1	592.9	553.4	460.1	326.8	255.9	200.9	161.5	122.1	116.8	197.4	450.7	 1112	 6273	9999.9	 2731	30.05	9.644	7.097	5.623	5.040	5.196	5.058	5.861	5.134	5.355	5.248	6.452	6.323	6.297	6.259	6.130	6.226	5.671	5.879	6.052	5.390	6.056	5.701	5.775	6.016	5.724	6.210	6.078	6.566	6.107	6.644
445.0	733.9	898.5	604.8	779.8	944.2	 1032	 1204	 1284	 1352	 1353	 1326	 1302	 1239	 1181	 1131	 1061	 1037	 1027	 1019	 1012	 1003	989.8	982.4	971.0	952.6	924.9	892.5	847.2	804.3	743.1	672.9	586.5	519.7	482.8	369.2	274.3	216.1	174.8	136.2	111.6	109.0	152.0	289.0	 1595	 8269	9999.9	379.7	22.57	8.552	6.058	5.370	5.407	4.632	5.286	5.108	5.701	5.566	6.167	6.055	6.159	6.287	6.427	6.158	6.024	6.094	5.800	5.583	5.936	5.646	5.651	5.500	5.379	5.133	5.944	6.317	6.025	6.256
450.0	412.8	 1221	874.3	707.6	867.7	982.7	 1111	 1221	 1277	 1299	 1278	 1225	 1159	 1114	 1059	 1005	968.8	948.8	943.0	936.6	920.5	916.8	910.9	891.2	889.7	870.5	836.1	812.1	773.4	721.9	657.7	576.8	500.3	451.2	410.3	313.2	235.8	190.1	151.7	122.1	101.6	96.92	112.1	392.7	 2088	 6946	9999.9	 4405	29.59	7.928	6.010	6.183	5.337	5.162	4.871	5.196	5.605	5.644	5.603	5.897	5.778	5.954	5.743	5.610	5.591	5.509	5.616	5.307	5.565	5.559	5.076	5.446	5.223	5.684	5.963	5.889	5.902
455.0	254.0	914.7	 1626	712.3	803.0	923.0	 1044	 1141	 1203	 1211	 1209	 1151	 1074	 1019	980.9	915.7	882.0	863.8	851.9	855.7	840.5	840.7	833.7	816.4	816.0	798.2	771.5	756.4	726.5	682.3	631.0	560.0	481.8	424.1	383.9	349.5	268.9	202.4	166.2	138.0	114.5	93.25	80.31	132.2	499.3	 1582	 3959	9999.9	 2758	34.67	8.366	6.421	5.820	5.301	5.001	5.394	5.376	5.340	5.085	5.523	5.539	5.525	5.645	5.389	5.610	5.412	5.437	4.957	5.327	4.964	5.211	5.426	5.199	4.980	4.937	5.832	5.144
460.0	216.3	550.1	 2006	 1086	756.4	835.7	979.1	 1077	 1126	 1171	 1152	 1086	 1023	958.4	905.0	856.8	828.6	807.6	787.4	787.9	781.1	781.0	773.0	759.7	755.3	750.8	725.7	712.3	686.8	652.6	606.6	537.3	473.3	409.2	357.8	347.1	294.4	214.4	175.3	146.0	119.8	97.05	79.96	78.69	150.6	383.2	935.8	 5172	9999.9	 2210	27.32	8.427	6.671	6.191	5.286	5.269	5.398	5.004	4.989	5.189	5.464	5.630	5.040	5.370	5.124	4.990	5.152	4.768	5.066	4.799	5.044	5.371	4.936	5.088	4.783	4.886	5.167
465.0	189.3	344.3	 1672	 1867	744.4	806.3	918.9	 1003	 1079	 1104	 1071	 1028	962.5	907.9	845.1	797.3	762.9	742.4	726.8	740.4	720.4	726.9	712.0	714.3	702.0	702.0	680.2	666.8	650.7	617.7	576.7	522.3	458.8	397.4	341.1	316.8	301.4	239.4	181.0	150.8	127.8	105.4	83.91	70.45	74.61	119.7	236.6	 1272	 6643	9999.9	 1738	21.19	7.456	6.988	5.512	5.270	5.314	4.772	5.092	5.152	5.505	5.269	4.939	5.626	5.139	5.010	5.196	4.534	4.424	4.368	4.760	5.060	4.517	4.145	4.645	4.377	4.794
470.0	177.3	274.5	837.3	 2371	 1292	739.2	838.4	922.9	974.0	 1007	999.9	936.7	885.4	830.8	776.3	724.0	688.4	669.6	660.6	655.3	643.4	651.5	640.7	640.0	629.0	628.5	613.6	606.6	593.2	573.7	532.5	488.8	429.2	379.5	329.6	290.4	272.5	251.7	200.5	156.5	131.2	109.3	88.85	73.68	62.75	63.66	82.48	308.4	 1630	 5443	 7874	 3409	28.65	8.092	6.230	5.348	5.207	4.704	4.893	5.194	5.194	4.761	4.925	5.019	4.515	4.523	4.477	4.166	4.291	4.383	4.229	4.444	4.323	4.287	4.581	4.333	4.290
475.0	171.7	235.2	458.6	 1619	 2575	736.3	741.5	850.3	911.1	922.1	894.7	862.4	796.4	733.0	693.9	649.2	622.8	599.4	587.8	577.3	573.3	573.7	566.4	566.6	564.7	553.7	544.6	545.8	534.3	514.1	490.8	447.4	397.2	355.3	308.1	273.8	247.5	228.4	216.0	168.3	134.3	110.3	93.52	76.51	64.74	55.69	51.10	95.58	384.6	 1233	 2710	 7663	 2668	39.36	7.185	5.769	5.305	4.909	4.695	4.786	4.571	4.542	4.666	4.701	3.916	4.249	3.761	4.001	4.094	4.291	4.201	3.512	3.748	3.923	3.909	3.902	3.691
480.0	175.5	247.8	336.5	846.5	 3013	 1087	673.9	774.6	854.2	845.9	834.9	812.2	741.1	688.8	639.9	590.2	561.2	550.2	543.5	525.0	524.9	519.9	520.2	513.1	514.4	506.2	503.4	502.2	492.5	479.1	456.7	421.4	374.8	340.1	293.7	258.3	232.9	212.0	207.2	183.2	139.9	111.4	93.45	79.65	64.86	53.12	47.06	49.75	108.7	293.8	630.8	 3244	 7971	 2348	29.04	6.513	5.708	5.042	4.691	4.643	4.521	4.445	4.534	3.841	4.075	3.779	3.858	3.895	3.526	3.980	4.031	3.459	3.399	3.516	3.455	3.416	3.477
485.0	151.2	247.9	292.2	485.8	 2287	 2308	667.7	718.5	772.1	801.6	784.7	758.0	689.1	638.3	601.3	549.9	528.9	516.7	499.2	487.5	486.1	479.4	478.9	477.0	479.6	471.5	467.2	461.4	459.7	446.5	426.5	398.1	356.3	317.5	282.2	250.3	222.7	198.6	188.2	185.4	151.4	114.4	94.78	81.11	66.10	55.03	47.70	40.44	49.30	86.08	158.1	779.6	 4321	 7455	373.5	19.32	6.806	5.472	4.838	4.862	4.139	4.254	4.131	3.987	4.333	3.621	4.011	3.833	3.243	3.600	3.223	3.062	3.448	3.234	3.503	3.274	3.408
490.0	128.0	207.4	288.0	386.3	 1067	 3028	 1419	653.7	719.2	732.0	720.0	682.7	633.6	586.0	543.3	501.7	469.2	462.9	455.8	440.9	434.0	430.1	426.7	427.2	423.4	426.3	420.3	417.9	415.9	405.9	391.2	364.1	328.6	295.4	263.5	235.7	212.3	187.8	172.7	164.6	159.2	124.4	98.22	81.98	69.65	59.89	49.81	41.50	37.89	40.89	52.88	188.8	 1037	 3524	 5603	 2855	29.81	7.073	5.235	4.949	4.346	4.282	3.912	3.875	3.798	3.723	3.555	3.485	3.403	3.381	3.354	3.302	3.344	3.019	3.293	3.137	3.225
495.0	104.2	189.4	292.9	345.6	519.0	 1905	 3207	701.0	636.3	646.9	652.1	619.2	570.8	526.2	495.2	448.8	416.7	409.0	402.0	386.1	384.1	378.4	374.0	374.8	379.8	378.1	371.1	373.4	365.5	368.7	351.7	327.0	301.9	271.4	246.1	219.9	195.4	179.8	160.2	146.3	142.6	132.8	104.3	84.05	70.12	61.23	51.08	44.72	36.59	32.68	30.27	57.96	243.3	797.7	 1929	 6301	 2842	41.44	6.601	5.167	4.734	4.144	4.131	3.478	3.483	3.177	3.133	3.477	3.182	2.711	3.086	3.036	2.780	3.065	2.803	2.910	3.170
500.0	104.0	160.0	256.4	329.1	388.0	927.1	 3888	 1338	585.8	599.1	595.7	562.2	519.3	468.0	447.6	412.7	386.2	361.0	358.6	359.9	350.5	346.0	340.0	338.4	340.1	344.5	336.8	342.0	336.4	334.6	324.5	302.5	280.0	251.3	229.2	205.9	184.3	169.6	151.5	137.2	126.6	129.2	109.7	85.96	70.67	60.85	53.18	45.60	37.51	31.33	26.32	29.32	67.74	190.1	448.9	 2623	 7011	 2318	29.78	5.821	4.996	4.419	4.192	3.590	3.464	3.311	2.947	3.296	2.896	3.043	2.761	2.801	2.557	2.566	2.509	2.875	2.937
505.0	97.78	132.0	234.4	303.4	325.9	522.1	 2949	 2764	571.7	557.0	535.7	526.5	490.3	445.8	407.3	381.2	356.6	327.2	328.2	326.6	318.5	319.6	311.0	309.3	305.5	312.1	308.8	309.0	310.2	307.2	294.2	280.7	259.9	230.8	212.2	192.5	175.6	160.4	143.5	131.6	118.8	116.2	113.7	90.68	69.06	60.63	52.56	45.68	38.63	32.93	26.51	24.66	29.46	54.48	111.7	625.0	 3692	 6760	400.4	18.15	5.617	4.609	4.056	3.661	3.141	2.832	3.224	3.014	2.756	2.907	2.918	2.788	2.667	2.473	2.223	2.758	2.539
510.0	85.09	133.2	195.1	284.5	289.1	366.8	 1250	 3638	 1332	498.4	476.0	472.2	424.0	394.4	367.4	338.9	312.5	295.7	290.6	283.1	281.3	275.4	274.2	272.1	269.9	274.5	269.6	272.2	270.9	270.8	264.3	247.2	233.3	208.9	192.1	175.2	158.4	145.0	131.1	121.2	108.8	98.70	99.18	94.48	75.05	59.09	52.09	44.56	38.25	33.12	27.38	23.67	20.99	25.40	36.78	150.2	886.5	 3177	 4772	 1683	28.31	5.408	3.935	3.707	3.305	2.992	2.796	2.776	2.679	2.406	2.506	2.412	2.418	2.096	2.323	2.276	2.453
515.0	76.11	113.9	169.8	254.7	297.4	306.2	533.9	 2213	 3540	555.6	438.7	416.1	392.1	347.4	323.2	291.8	277.0	262.6	257.1	249.3	239.6	243.4	236.3	236.0	232.4	233.8	234.7	237.7	233.3	238.3	232.0	219.0	202.4	186.7	170.2	158.5	141.8	132.1	120.9	107.5	97.93	90.82	85.17	83.91	80.41	61.75	51.10	43.93	38.06	33.39	28.00	24.08	20.06	19.00	19.58	44.29	206.8	717.5	 1666	 4973	 2542	37.84	4.860	3.761	3.584	2.849	2.685	2.551	2.742	2.647	2.068	1.940	2.111	2.278	2.115	2.001	2.112
520.0	69.24	97.26	143.4	231.0	305.6	274.2	349.4	973.9	 4390	 1321	405.1	369.4	347.8	313.0	295.0	267.6	250.2	236.9	225.9	223.7	214.4	212.1	212.0	211.7	209.0	211.8	207.5	214.4	213.6	209.3	209.4	196.8	185.5	167.0	152.0	142.9	129.5	121.6	112.3	102.0	91.80	84.81	76.36	73.29	75.63	65.71	50.64	42.80	37.19	31.39	27.30	23.41	20.86	17.19	16.40	20.27	55.06	169.1	387.6	 2166	 5276	 1811	24.46	4.445	3.229	2.542	2.686	2.520	2.463	2.163	2.193	2.012	2.052	2.209	1.911	2.096	1.777
525.0	67.16	88.76	134.4	187.0	280.8	276.1	281.9	462.8	 3319	 3097	406.2	341.5	316.6	286.8	271.9	236.4	228.2	212.4	202.0	204.3	194.8	196.1	192.1	191.7	191.5	191.7	188.3	193.5	190.4	190.5	189.2	180.1	167.6	152.9	139.7	131.4	119.0	111.3	102.4	93.24	85.31	76.02	69.73	64.13	67.23	67.38	52.60	42.13	35.58	31.83	26.70	24.01	20.44	17.56	14.61	14.92	22.06	45.97	93.89	518.4	 2811	 4824	382.5	11.15	3.550	2.975	3.101	2.521	2.510	2.116	1.987	2.322	1.949	2.099	1.693	1.932	1.672
530.0	55.18	80.70	109.5	152.2	223.9	279.6	251.0	310.3	 1299	 4360	 1304	304.3	276.0	258.5	237.0	213.0	197.3	187.8	179.7	176.0	169.8	167.8	165.8	164.5	165.9	168.8	164.6	167.6	167.1	169.2	163.4	157.4	145.8	135.0	122.6	115.7	106.8	97.87	90.99	84.48	77.36	69.23	62.91	56.79	55.81	57.74	54.85	42.85	34.78	30.12	25.28	22.48	18.84	16.62	14.87	13.44	14.06	18.27	27.61	122.0	675.3	 2320	 3087	 1355	25.23	3.534	2.942	2.385	2.298	2.211	1.746	1.938	1.714	1.610	1.801	1.927	1.726
535.0	55.35	70.82	96.16	124.1	171.4	252.5	242.3	246.2	490.8	 2497	 3924	389.5	248.4	223.5	212.0	183.9	171.3	161.8	156.1	151.6	147.1	143.7	143.9	143.2	142.8	144.0	142.7	141.9	145.4	143.8	141.1	134.5	127.2	117.8	106.5	99.58	94.05	84.90	79.83	74.34	67.57	61.25	56.69	51.75	48.71	45.57	47.88	45.44	34.73	27.47	23.63	20.92	18.02	15.79	14.83	12.73	11.71	11.30	12.98	33.49	156.2	523.4	 1152	 3528	 1830	31.76	3.239	2.445	2.469	1.982	1.873	1.851	1.689	1.960	1.869	1.515	1.564
540.0	53.99	66.58	91.52	122.5	144.9	218.1	250.7	210.0	281.1	970.8	 5058	 1214	216.8	204.7	181.8	156.8	152.6	145.7	137.2	134.1	132.3	131.6	127.7	125.7	129.0	127.1	125.8	124.2	126.4	125.3	124.7	120.5	112.3	106.8	94.75	90.82	84.02	77.75	72.30	66.89	63.98	57.18	52.88	47.66	44.36	41.17	40.64	44.17	36.56	27.94	21.90	19.66	17.65	15.52	13.91	12.44	11.21	10.37	9.377	13.49	40.31	121.7	268.8	 1595	 3668	410.6	17.84	2.627	2.644	1.780	2.024	1.609	1.608	1.744	1.609	1.729	1.417
545.0	56.36	72.08	84.14	114.8	131.7	165.7	251.1	204.0	229.4	406.5	 3642	 3177	214.7	186.9	160.2	145.5	135.1	129.4	124.4	116.7	117.5	114.7	108.7	112.5	116.3	112.9	112.4	113.5	112.8	112.0	111.6	106.9	100.9	92.89	87.32	82.51	76.43	69.35	64.33	61.13	56.50	51.65	47.67	43.29	40.24	37.68	36.05	38.18	36.72	28.91	20.58	18.22	16.81	14.76	13.15	11.85	11.23	9.586	8.589	8.646	14.51	31.80	64.66	383.8	 2069	 3036	329.7	6.094	2.626	1.884	2.087	1.814	1.467	1.390	1.604	1.362	1.723
550.0	55.22	71.35	78.57	95.76	111.0	125.0	222.2	209.0	207.8	245.3	 1310	 4607	 1143	160.4	137.8	126.7	116.7	110.7	105.0	101.4	100.1	96.34	95.17	96.51	96.04	93.41	94.99	95.70	96.76	96.18	96.37	90.76	86.20	79.72	73.99	69.94	64.60	59.48	56.24	52.87	49.28	44.01	41.19	37.86	35.27	33.00	30.26	30.09	31.57	29.12	21.35	16.72	14.76	13.11	12.23	10.18	10.35	9.254	7.939	7.089	8.085	11.70	18.51	90.19	503.7	 1621	 2242	835.8	20.04	2.428	1.923	1.764	1.407	1.287	1.273	1.416	1.291
555.0	58.38	73.88	78.04	85.20	96.19	107.8	166.4	236.3	190.4	194.0	434.0	 2417	 4051	223.9	116.8	104.8	96.91	93.80	89.18	84.06	79.71	80.12	77.54	78.68	76.99	78.20	78.10	79.35	78.17	78.87	79.48	75.77	70.85	64.65	60.09	57.44	54.47	49.59	48.05	43.56	42.77	37.56	34.66	32.18	29.20	27.11	25.35	24.78	22.97	25.54	20.91	16.72	13.25	11.92	11.10	9.001	8.748	8.520	7.626	6.262	6.554	6.610	7.899	23.02	115.0	365.9	872.4	 2309	421.2	23.00	2.269	1.987	1.274	1.481	1.395	1.338	1.264
560.0	61.89	72.68	73.74	81.62	91.32	95.35	120.4	211.2	186.3	172.8	225.1	839.6	 5040	937.7	101.9	91.13	82.26	77.91	73.02	70.86	70.59	66.80	65.70	65.80	64.97	64.01	64.64	65.60	65.85	67.20	66.89	62.79	59.91	55.83	51.69	50.85	44.67	44.06	41.49	35.94	35.88	32.36	29.78	27.74	25.20	23.87	22.36	21.62	19.47	20.09	20.61	16.62	12.04	10.35	9.805	8.815	7.747	7.272	7.115	5.869	5.893	4.949	5.340	8.305	28.84	84.56	205.2	 1107	 2068	353.5	8.360	1.781	1.503	1.323	1.127	1.365	1.038
565.0	61.02	62.90	76.93	77.60	78.14	81.91	98.42	176.1	198.1	161.7	167.8	302.1	 3454	 2552	104.9	79.16	70.58	65.00	63.25	59.69	59.08	57.89	56.79	55.25	55.95	55.35	54.26	55.11	55.54	56.49	56.41	50.52	49.52	47.39	46.09	42.01	37.68	36.81	36.01	32.56	29.46	28.18	26.03	24.12	22.93	20.81	19.27	18.45	16.70	15.26	17.20	16.19	11.94	9.970	8.215	8.074	7.342	6.391	6.720	5.923	5.117	4.863	4.565	5.182	9.653	22.10	49.14	272.0	 1334	 1715	55.12	3.124	1.663	1.390	1.322	1.139	1.098
570.0	59.83	62.67	70.62	69.09	72.71	75.42	88.78	127.6	200.5	159.0	147.6	165.3	 1151	 4238	873.5	69.81	57.27	53.83	51.81	49.16	47.90	45.82	46.22	44.58	44.35	45.71	43.82	45.72	44.12	45.17	45.62	42.02	39.42	37.71	36.29	33.84	30.50	30.15	27.80	26.03	24.96	23.40	21.05	19.61	18.40	17.36	16.03	14.90	13.47	11.63	12.79	13.13	11.66	9.246	7.132	7.073	6.617	6.002	5.498	5.409	5.026	4.593	4.127	4.178	5.434	7.658	14.13	63.29	331.6	984.3	 1205	235.1	14.19	1.475	1.235	1.191	1.043
575.0	52.00	75.40	76.29	65.79	59.81	64.46	76.65	93.84	169.0	190.3	138.7	135.7	343.6	 2129	 3584	124.9	47.07	45.26	43.10	38.47	36.79	36.75	36.68	34.81	35.52	35.80	34.40	36.26	35.18	33.87	37.15	32.89	31.46	29.97	27.98	25.31	24.51	23.31	21.50	21.13	19.39	18.33	16.53	16.36	14.80	14.65	12.80	11.57	11.02	10.08	8.900	9.236	10.75	9.094	6.552	5.985	5.663	4.925	4.780	4.864	4.464	4.498	3.626	4.114	4.178	4.567	6.135	16.59	76.81	223.1	514.7	 1238	353.0	11.57	1.490	0.976	1.183
580.0	56.53	68.03	74.08	67.69	62.09	61.03	68.67	83.69	127.6	210.4	137.4	127.8	160.8	693.5	 4536	728.1	42.35	38.46	33.82	34.21	33.55	30.86	32.22	30.36	31.47	29.84	30.08	30.48	31.50	30.36	30.87	27.83	26.37	25.34	23.25	22.48	20.71	19.49	18.05	17.82	16.36	15.12	13.96	13.26	12.00	11.68	10.61	10.22	9.504	8.710	7.665	7.545	8.591	8.778	6.349	5.539	5.208	4.400	4.309	4.186	4.231	4.055	4.336	3.999	3.540	3.992	3.834	6.022	19.55	52.00	122.2	658.7	 1136	58.41	3.889	1.300	1.211
585.0	57.01	61.30	68.34	68.33	55.82	55.77	63.81	77.97	102.9	196.3	147.5	126.6	119.9	227.9	 2991	 1930	46.25	33.01	30.06	28.84	28.83	28.83	26.68	25.61	25.37	25.37	24.82	25.51	26.44	25.67	26.08	24.14	22.62	22.16	20.43	18.68	17.54	16.47	16.00	14.22	13.86	12.54	12.06	11.80	10.74	10.19	9.957	9.047	8.477	7.878	6.962	6.498	6.586	8.005	7.029	5.448	4.089	4.339	4.045	3.489	3.859	4.112	3.701	3.544	3.169	3.530	3.131	3.641	6.407	13.95	29.40	166.2	778.1	874.5	47.76	1.704	1.171
590.0	56.51	59.75	65.24	67.43	55.42	50.83	56.18	69.50	86.84	148.8	179.6	120.7	110.5	115.5	931.5	 3510	650.7	28.95	26.41	23.68	23.72	22.12	21.69	20.74	21.83	20.51	20.13	20.53	20.93	21.41	20.83	19.26	18.57	17.64	16.84	15.05	14.47	13.73	12.71	12.47	11.49	10.45	10.18	9.439	9.018	8.273	8.463	7.854	6.852	6.369	5.835	5.147	4.992	5.783	6.148	5.650	4.087	3.692	3.501	3.281	3.255	3.346	3.339	3.246	3.111	3.078	2.839	2.874	3.554	4.877	8.300	38.74	197.5	562.4	573.8	195.3	9.364
595.0	44.22	56.42	67.48	60.39	53.17	43.18	51.29	63.75	77.48	107.8	182.0	139.7	99.05	86.15	252.3	 1680	 2811	70.43	23.61	20.33	20.11	17.32	18.60	17.58	18.13	16.51	16.81	16.99	17.44	17.27	15.77	15.55	15.38	14.39	13.57	12.68	11.90	10.58	10.52	9.954	9.636	8.142	8.380	7.773	7.348	7.102	6.858	6.375	5.786	4.999	4.852	3.870	3.763	4.687	4.452	5.046	4.577	3.442	3.055	2.764	2.894	2.680	2.755	2.603	3.141	2.912	2.422	2.297	2.671	2.692	3.408	10.04	45.14	127.9	291.9	718.1	238.1
600.0	42.73	59.58	68.04	61.98	49.36	43.20	49.79	56.42	73.03	100.4	161.8	163.7	101.8	78.93	98.28	516.0	 3545	191.6	22.00	17.68	16.59	14.75	15.18	15.54	14.44	14.34	14.01	14.08	14.20	14.40	13.74	12.97	11.61	11.78	11.36	11.29	10.10	9.389	8.368	8.553	7.767	7.079	7.426	6.880	6.477	6.390	5.749	5.286	4.920	4.446	4.050	3.710	3.548	3.691	3.490	4.441	4.272	3.449	3.141	2.283	2.522	2.326	2.457	2.555	2.194	2.780	2.192	2.222	2.348	2.414	2.099	3.621	11.47	29.97	71.33	407.1	642.9
605.0	48.30	65.74	64.55	57.10	47.38	44.16	41.76	53.40	69.33	81.95	130.2	179.9	106.5	78.53	60.81	147.2	 2320	 1394	25.72	15.83	14.63	13.35	14.07	13.72	12.74	12.15	11.17	12.57	11.82	12.08	12.86	11.22	10.96	9.889	9.871	9.292	8.685	8.638	7.490	7.217	6.680	6.204	6.181	6.023	5.180	5.403	4.985	4.805	4.482	3.783	3.366	3.093	2.997	2.917	2.775	3.338	3.932	3.533	2.667	2.359	2.049	2.309	2.401	2.356	2.424	2.595	2.410	2.248	2.389	2.156	1.951	2.213	3.630	7.780	17.00	106.0	460.3
610.0	42.61	53.00	60.97	55.49	43.90	42.61	40.43	48.83	62.50	73.51	103.2	167.5	130.6	77.07	55.01	59.30	706.3	 2716	504.7	14.82	12.78	11.85	11.29	10.56	10.81	9.571	9.203	10.13	9.603	9.891	10.32	9.537	9.306	9.241	8.019	7.880	7.263	6.969	6.665	5.805	5.523	5.543	4.973	4.728	4.717	4.405	4.458	3.590	3.369	3.121	2.881	2.866	2.454	2.521	2.563	2.379	3.171	3.374	2.719	2.208	2.149	2.011	2.050	2.118	2.158	2.173	2.153	2.026	2.004	1.845	1.529	1.651	1.852	2.814	4.827	24.48	119.7
615.0	34.29	48.69	55.50	50.76	42.48	38.69	38.85	44.35	61.96	73.05	90.09	130.2	147.5	84.98	52.33	40.72	177.7	 1325	 2236	48.32	11.85	10.33	10.13	9.699	8.683	8.039	7.302	8.865	7.875	8.536	8.011	7.048	7.644	6.691	6.282	6.662	5.606	5.611	5.416	5.205	4.592	4.367	3.963	3.833	3.712	3.546	3.442	3.002	2.907	2.666	2.702	2.514	1.973	2.225	2.090	2.024	2.183	2.582	2.903	2.579	1.814	1.829	1.559	1.801	1.802	1.831	1.715	2.096	1.928	1.457	1.505	1.307	1.313	1.306	2.169	6.257	27.71
620.0	33.92	54.35	50.05	47.53	47.47	38.42	44.30	45.49	53.28	67.74	87.99	104.5	147.9	92.87	50.87	36.02	56.68	392.6	 2876	153.3	11.08	9.427	8.826	8.004	7.950	6.790	6.512	8.288	6.892	7.205	7.115	5.867	6.541	6.014	5.758	5.607	5.218	4.703	4.854	4.351	3.872	3.434	3.567	3.504	3.082	2.974	3.028	2.712	2.443	2.167	2.079	2.162	1.993	1.771	1.792	1.676	1.721	1.982	2.505	2.455	1.843	1.603	1.558	1.587	1.520	1.366	1.624	2.046	1.980	1.529	1.558	1.227	1.104	1.291	1.279	2.137	6.965
625.0	33.51	46.31	53.81	51.36	39.29	40.92	39.70	40.13	49.41	68.36	85.46	90.61	127.0	104.0	56.22	34.04	33.65	105.8	 1902	 1140	16.42	8.137	7.054	7.253	7.317	6.675	6.070	6.082	5.890	5.847	5.768	5.801	5.521	5.437	4.699	4.860	4.581	4.158	4.093	3.845	3.584	3.235	3.135	2.898	3.032	2.713	2.480	2.373	2.419	2.183	1.939	1.809	1.870	1.504	1.627	1.476	1.637	1.800	2.140	2.243	2.038	1.570	1.488	1.405	1.492	1.526	1.384	1.648	1.574	1.638	1.436	1.204	1.134	1.296	0.813	1.199	2.206
630.0	34.72	43.05	50.69	46.34	42.53	36.51	36.95	41.58	48.77	63.98	76.86	87.16	99.64	109.5	56.20	34.29	26.02	38.41	570.8	 2260	417.7	8.723	6.856	6.558	5.812	6.138	4.998	5.729	5.266	5.399	5.043	4.629	4.805	4.625	3.998	4.045	3.892	3.345	3.275	3.211	3.016	2.708	2.473	2.588	2.324	2.334	2.399	2.151	2.073	1.908	1.755	1.603	1.568	1.441	1.370	1.575	1.414	1.405	1.577	1.814	2.103	1.465	1.433	1.396	1.189	1.372	1.292	1.228	1.283	1.369	1.429	1.036	1.002	1.054	0.930	1.089	1.106
635.0	34.82	41.33	51.59	39.30	38.82	32.83	30.79	41.23	49.17	59.69	73.87	80.71	88.05	102.1	73.74	34.15	25.61	23.49	139.9	 1103	 1863	36.37	6.570	5.839	4.748	4.813	4.571	5.097	4.771	4.433	3.995	4.075	3.861	3.339	3.389	3.272	3.380	3.036	2.707	2.678	2.464	2.176	2.185	1.898	1.823	1.921	2.068	1.749	1.784	1.522	1.478	1.379	1.230	1.317	1.240	1.510	1.327	1.387	1.241	1.379	1.630	1.523	1.277	1.299	1.217	1.167	1.167	1.196	1.192	1.138	1.414	1.299	0.963	0.865	1.108	1.006	0.766
640.0	26.83	41.93	52.12	44.52	38.00	30.03	33.37	34.99	42.25	55.77	71.25	76.88	79.39	83.72	85.55	37.14	26.09	20.96	42.71	324.1	 2405	130.5	7.065	5.693	4.424	4.446	4.605	4.609	4.546	3.626	4.193	3.390	3.449	3.461	3.124	3.134	2.773	2.626	1.926	2.200	2.182	1.913	1.800	1.796	1.799	1.757	1.645	1.554	1.685	1.475	1.496	1.358	1.191	0.933	1.134	1.121	1.113	1.319	1.268	1.248	1.368	1.339	1.458	1.035	1.263	1.036	1.104	1.067	1.134	1.087	1.330	1.311	0.908	0.906	0.983	0.808	0.822
645.0	32.08	46.38	46.97	43.44	42.02	26.99	32.16	34.70	48.42	55.00	66.32	76.69	73.11	76.49	87.27	44.23	25.56	20.67	21.30	84.69	 1591	964.5	12.34	5.054	4.663	3.893	3.793	4.104	4.089	3.540	3.323	3.095	3.214	2.814	2.761	3.196	2.597	2.332	1.991	1.995	1.899	1.569	1.476	1.739	1.720	1.622	1.545	1.531	1.387	1.220	1.196	1.119	1.210	0.901	0.943	1.171	0.982	1.014	0.906	1.193	1.221	1.609	1.403	1.153	0.891	1.115	0.943	1.016	1.143	1.036	1.140	1.111	1.199	0.824	0.968	1.035	0.715
650.0	31.72	47.55	44.86	40.05	38.04	30.29	36.19	33.62	43.01	53.69	59.20	71.48	74.65	69.56	77.45	56.27	26.43	21.50	16.57	29.26	581.4	 2038	78.84	5.264	4.439	3.616	3.136	3.805	3.663	3.071	3.057	3.061	2.957	2.666	2.658	2.386	2.102	2.055	1.840	1.866	1.919	1.422	1.492	1.690	1.438	1.368	1.633	1.566	1.230	1.060	1.108	1.151	1.036	0.878	0.998	1.194	1.092	1.000	0.906	1.164	1.078	1.216	1.338	1.442	1.081	1.054	1.025	0.900	1.200	1.047	1.053	0.884	0.908	1.101	0.878	0.814	0.891
