Sample:	'1
File name:	Default_20240820_171603.FD3
Run date:	'17:09:42, 08/20/2024
Operator:	dsjg
Comment:	'

Instrument
Model:	F-2700 FL Spectrophotometer
Serial number:	2198-001
ROM Version:	4J14000 07

Instrument parameters
Measurement type:	3-D scan
Data mode:	Fluorescence
EX  Start WL:	220.0 nm
EX  End WL:	600.0 nm
EX Sampling interval:	5.0 nm
EM  Start WL:	230.0 nm
EM  End WL:	650.0 nm
EM Sampling interval:	5.0 nm
Scan speed:	12000 nm/min
EX Slit:	5.0 nm
EM Slit:	5.0 nm
PMT Voltage:	700 V
Response:	Auto 
Corrected spectra:	Off
Contour interval:	50.000

Peak integration
Integration method:	Rectangular
Sensitivity:	1
Threshold:	1.000

Peaks
No.	ApexEX/EM(nm)	Height(Data)
1	225.0/600.0	32.99
2	225.0/610.0	30.81
3	225.0/620.0	30.47
4	230.0/360.0	 1447
5	230.0/605.0	28.47
6	265.0/380.0	 2194
7	275.0/305.0	691.1
8	275.0/605.0	59.04
9	280.0/615.0	50.88
10	285.0/630.0	42.61
11	530.0/380.0	10.80

Data points
	220.0	225.0	230.0	235.0	240.0	245.0	250.0	255.0	260.0	265.0	270.0	275.0	280.0	285.0	290.0	295.0	300.0	305.0	310.0	315.0	320.0	325.0	330.0	335.0	340.0	345.0	350.0	355.0	360.0	365.0	370.0	375.0	380.0	385.0	390.0	395.0	400.0	405.0	410.0	415.0	420.0	425.0	430.0	435.0	440.0	445.0	450.0	455.0	460.0	465.0	470.0	475.0	480.0	485.0	490.0	495.0	500.0	505.0	510.0	515.0	520.0	525.0	530.0	535.0	540.0	545.0	550.0	555.0	560.0	565.0	570.0	575.0	580.0	585.0	590.0	595.0	600.0
230.0	45.33	 1102	 2741	765.1	26.49	5.443	4.263	3.978	3.420	3.294	2.762	3.184	2.397	2.111	1.666	1.682	1.441	1.386	1.272	1.374	1.083	1.033	1.019	0.926	0.980	0.782	0.791	0.710	0.632	0.685	0.658	0.528	0.604	0.476	0.530	0.610	0.542	0.494	0.516	0.401	0.395	0.434	0.479	0.442	0.348	0.313	0.596	3.093	8.751	10.29	5.400	1.325	0.350	0.292	0.197	0.254	0.207	0.189	0.203	0.190	0.208	0.216	0.187	0.125	0.154	0.197	0.150	0.151	0.200	0.178	0.175	0.187	0.166	0.215	0.175	0.189	0.175
235.0	48.50	294.1	 1559	 2518	583.2	42.14	5.672	4.380	4.014	3.217	3.566	2.964	2.870	2.390	2.046	2.066	1.725	1.443	1.633	1.118	1.147	0.899	0.910	0.915	0.868	0.975	0.811	0.810	0.669	0.800	0.685	0.540	0.585	0.514	0.535	0.489	0.666	0.520	0.529	0.387	0.452	0.384	0.382	0.421	0.517	0.440	0.410	0.971	2.536	5.238	8.609	11.41	7.242	2.085	0.324	0.206	0.187	0.263	0.146	0.212	0.179	0.189	0.124	0.167	0.175	0.191	0.157	0.139	0.179	0.279	0.249	0.191	0.214	0.132	0.172	0.273	0.216
240.0	72.42	96.86	463.6	 1975	 2676	447.1	18.98	4.361	4.367	4.693	3.957	2.935	2.590	2.720	1.995	2.032	1.941	1.596	1.510	1.435	0.891	0.927	0.911	1.120	0.946	0.927	0.770	0.802	0.744	0.868	0.688	0.754	0.575	0.493	0.530	0.519	0.552	0.381	0.516	0.449	0.462	0.372	0.423	0.471	0.560	0.546	0.613	0.452	0.786	1.487	3.429	9.131	14.74	13.24	5.623	0.924	0.240	0.250	0.184	0.256	0.229	0.172	0.133	0.191	0.213	0.244	0.198	0.197	0.245	0.228	0.260	0.225	0.201	0.184	0.173	0.309	0.283
245.0	60.07	82.09	129.8	683.1	 2602	 2618	323.5	9.276	4.795	4.963	4.444	3.819	2.938	2.264	2.229	2.097	1.931	1.310	1.509	1.337	1.168	1.120	1.238	1.056	0.858	1.021	0.701	0.810	0.733	0.703	0.942	0.638	0.567	0.464	0.576	0.371	0.498	0.411	0.528	0.480	0.398	0.472	0.413	0.377	0.385	0.523	0.556	0.599	0.456	0.498	0.984	2.743	7.534	14.74	17.81	11.03	3.157	0.454	0.261	0.254	0.179	0.193	0.190	0.194	0.202	0.297	0.189	0.214	0.247	0.188	0.275	0.158	0.185	0.257	0.160	0.262	0.235
250.0	27.87	60.92	95.87	185.7	844.9	 2365	 2855	 1094	68.14	6.030	4.983	4.255	2.885	2.593	2.691	2.248	1.932	1.505	1.514	1.276	1.193	1.201	1.125	1.009	1.034	0.909	0.783	0.856	0.844	0.783	0.829	0.554	0.557	0.476	0.550	0.457	0.442	0.424	0.390	0.468	0.411	0.490	0.427	0.421	0.350	0.385	0.384	0.540	0.545	0.560	0.478	0.872	1.949	4.396	8.582	13.11	16.35	15.01	8.487	2.837	0.454	0.198	0.192	0.198	0.215	0.226	0.252	0.195	0.243	0.157	0.243	0.140	0.175	0.246	0.193	0.261	0.154
255.0	18.94	27.53	69.65	123.4	222.4	597.5	 2019	 3884	 1602	75.40	6.502	5.216	4.031	3.609	2.989	2.057	1.870	1.966	1.755	1.519	1.302	1.171	1.199	1.063	1.121	1.013	0.908	0.713	0.813	0.744	0.739	0.573	0.612	0.486	0.456	0.487	0.482	0.393	0.379	0.455	0.482	0.471	0.476	0.384	0.428	0.346	0.366	0.360	0.325	0.496	0.582	0.793	0.820	1.152	2.174	3.265	5.332	12.18	21.11	23.15	13.08	3.056	0.391	0.218	0.138	0.208	0.237	0.166	0.209	0.185	0.227	0.264	0.160	0.294	0.183	0.217	0.143
260.0	17.54	12.73	32.42	102.6	131.1	154.5	601.7	 2897	 4228	 1234	33.91	7.251	5.131	4.240	3.083	2.659	1.802	1.686	1.778	1.498	1.363	1.551	1.140	1.199	1.113	0.874	1.024	0.768	0.787	0.814	0.687	0.743	0.525	0.741	0.442	0.501	0.517	0.427	0.429	0.458	0.470	0.441	0.473	0.427	0.415	0.400	0.351	0.359	0.367	0.314	0.397	0.596	0.911	0.790	0.826	0.963	1.424	3.368	8.540	19.07	27.08	22.22	9.444	1.564	0.182	0.237	0.286	0.217	0.185	0.213	0.256	0.211	0.210	0.274	0.152	0.194	0.149
265.0	16.92	10.96	14.27	54.13	130.0	101.2	152.2	948.2	 3765	 4157	259.9	15.59	6.317	4.210	3.527	3.007	2.421	2.183	1.911	1.535	1.724	1.772	1.103	1.121	0.948	1.082	1.022	1.070	0.897	0.883	0.802	0.735	0.604	0.688	0.535	0.554	0.460	0.434	0.446	0.464	0.354	0.408	0.398	0.381	0.446	0.360	0.406	0.264	0.325	0.230	0.244	0.447	0.643	0.888	0.930	0.666	0.585	0.945	2.291	5.366	13.30	25.38	28.81	19.26	5.630	0.640	0.254	0.208	0.300	0.229	0.267	0.173	0.198	0.270	0.253	0.188	0.188
270.0	21.38	13.56	14.83	21.35	63.13	116.9	112.1	240.3	 1144	 3177	 4128	 1020	75.71	6.547	4.887	3.626	3.011	2.445	1.931	1.931	1.739	1.431	1.205	1.100	1.196	1.032	1.155	0.925	0.983	0.871	0.711	0.716	0.621	0.665	0.477	0.579	0.533	0.486	0.425	0.425	0.414	0.412	0.412	0.456	0.434	0.378	0.398	0.331	0.361	0.317	0.297	0.325	0.348	0.497	0.738	0.885	0.895	0.745	0.825	1.425	3.370	7.258	12.91	20.07	24.37	23.11	14.46	5.215	0.758	0.253	0.226	0.187	0.240	0.231	0.196	0.242	0.180
275.0	49.76	54.32	26.01	17.14	24.89	60.28	142.4	163.5	297.6	801.2	 2386	 5046	 1568	94.47	6.815	4.997	3.760	2.748	2.590	2.232	1.979	1.665	1.464	1.156	1.254	1.211	1.056	1.032	0.926	0.933	0.802	0.738	0.796	0.648	0.753	0.591	0.552	0.655	0.527	0.548	0.471	0.402	0.481	0.510	0.504	0.556	0.504	0.553	0.340	0.355	0.313	0.311	0.315	0.392	0.415	0.502	0.796	1.113	1.293	0.852	1.078	2.013	3.284	4.997	7.383	14.38	27.07	33.97	22.23	5.325	0.461	0.208	0.205	0.178	0.233	0.256	0.220
280.0	103.4	82.89	47.95	28.39	27.84	42.19	107.2	196.0	177.1	252.4	736.6	 3194	 5529	 1268	53.52	6.009	4.263	3.590	2.924	2.401	2.222	1.536	1.562	1.602	1.294	1.290	1.080	1.059	0.919	0.794	0.923	0.866	0.721	0.562	0.800	0.735	0.739	0.761	0.793	0.696	0.585	0.530	0.599	0.645	0.598	0.676	0.654	0.661	0.443	0.352	0.312	0.329	0.370	0.444	0.377	0.455	0.541	0.881	1.271	1.484	1.161	0.974	1.193	1.635	2.206	4.106	9.778	21.79	34.79	32.37	15.34	2.363	0.306	0.262	0.214	0.213	0.262
285.0	150.7	130.5	82.46	50.52	43.04	52.56	79.55	174.2	236.2	192.5	292.6	 1065	 3896	 5560	962.7	21.35	5.844	4.148	3.393	2.704	2.235	1.841	1.810	1.565	1.394	1.526	1.077	1.070	1.200	0.749	0.900	0.891	0.725	0.762	0.807	0.891	0.835	0.919	1.030	0.817	0.826	0.723	0.806	0.699	0.653	0.784	0.852	0.775	0.642	0.484	0.351	0.347	0.415	0.441	0.363	0.516	0.492	0.657	0.937	1.320	1.612	1.381	1.007	1.033	1.233	1.714	2.959	6.248	14.31	27.77	36.36	27.96	8.728	0.733	0.329	0.246	0.242
290.0	209.4	194.9	129.8	88.27	76.52	84.64	101.3	144.5	242.1	319.5	280.6	434.2	 1254	 3257	 4733	 2409	53.49	6.702	4.650	3.373	2.834	2.346	1.728	1.817	1.635	1.431	1.267	1.166	1.127	1.056	0.962	0.970	0.786	0.792	0.825	1.028	1.112	1.160	1.110	0.986	0.963	0.899	0.908	0.840	0.829	0.896	0.930	0.962	0.825	0.686	0.572	0.490	0.532	0.579	0.595	0.626	0.711	0.706	0.790	1.025	1.263	1.734	1.878	1.983	1.586	1.478	1.763	2.431	4.282	8.075	14.22	23.16	27.81	28.60	17.62	6.770	0.787
295.0	250.4	240.2	180.3	127.0	110.2	123.9	141.2	159.0	217.1	354.4	475.0	408.7	528.8	929.6	 2145	 5369	 3915	66.02	7.341	4.802	3.679	3.238	2.272	2.144	1.784	1.963	1.311	1.391	1.182	1.160	1.020	0.996	0.826	0.759	0.980	1.019	1.163	1.360	1.400	1.092	1.036	1.074	0.876	1.012	0.966	0.923	0.912	1.084	0.961	0.793	0.674	0.643	0.810	0.668	0.815	0.841	0.976	0.865	1.028	1.226	1.163	1.255	1.780	2.473	2.726	2.621	1.885	2.016	2.377	3.064	4.135	6.107	8.234	14.90	30.61	38.64	26.43
300.0	277.0	278.1	218.8	159.6	146.1	158.6	176.1	200.4	242.6	344.2	532.5	565.2	442.6	437.3	699.0	 2753	 6621	813.1	41.05	6.767	4.532	3.325	2.873	2.493	2.066	1.935	1.611	1.573	1.371	1.158	1.040	1.153	1.019	0.715	0.992	0.902	1.258	1.390	1.346	1.188	1.171	1.029	1.094	1.026	1.083	0.982	0.944	1.094	1.099	1.049	0.847	0.878	0.830	0.833	0.861	0.968	0.987	0.996	1.151	1.351	1.354	1.452	1.715	2.211	2.787	3.326	3.309	2.481	2.316	2.235	2.347	2.455	2.811	4.265	10.41	24.37	43.28
305.0	294.8	317.0	262.5	188.7	166.5	187.8	213.0	249.2	286.3	366.9	530.5	691.1	556.5	396.9	355.3	878.9	 3711	 6347	665.2	21.46	5.317	4.798	3.170	2.812	2.365	2.258	1.614	1.681	1.494	1.262	1.170	1.101	1.083	0.977	1.057	1.010	1.350	1.304	1.436	1.371	1.416	1.052	1.156	1.076	1.050	1.122	1.091	1.179	1.214	1.013	0.841	0.914	0.890	0.945	1.165	1.079	1.333	1.214	1.394	1.401	1.597	1.640	2.009	2.143	2.510	3.064	3.768	3.691	2.953	2.627	2.341	2.035	1.668	1.988	3.203	6.928	16.79
310.0	319.8	342.7	298.5	229.7	210.2	227.9	260.9	296.3	338.2	418.8	534.5	669.1	741.1	553.7	362.5	366.1	 1082	 3332	 5118	 2409	40.23	6.785	4.211	3.380	2.719	2.452	1.976	1.852	1.600	1.404	1.226	1.144	0.895	1.011	1.016	0.976	1.180	1.328	1.385	1.286	1.339	1.175	1.090	1.180	1.154	1.295	1.262	1.300	1.356	1.161	1.003	1.069	1.132	1.088	1.185	1.258	1.578	1.503	1.731	1.727	1.801	2.012	2.267	2.315	2.637	2.918	3.432	3.638	3.890	3.799	3.346	2.478	2.100	1.778	1.817	2.461	4.656
315.0	364.9	417.3	377.5	276.8	246.3	258.9	304.2	342.9	394.3	474.2	587.9	675.4	741.1	755.5	514.2	323.7	403.3	869.3	 2029	 6046	 3744	51.64	6.913	5.045	3.550	3.031	2.514	2.152	2.129	1.459	1.758	1.386	1.042	1.145	0.978	1.182	1.250	1.334	1.382	1.238	1.258	1.371	1.238	1.155	1.244	1.371	1.410	1.628	1.612	1.411	1.239	1.172	1.370	1.392	1.347	1.482	1.742	1.681	1.746	1.937	2.136	2.254	2.356	2.731	2.957	3.223	3.502	3.676	3.502	3.894	4.359	3.804	2.951	2.140	1.800	1.965	2.131
320.0	461.5	562.0	530.2	368.3	288.3	302.4	340.5	379.0	455.3	534.4	645.9	740.6	781.0	811.7	720.1	407.1	307.5	344.3	608.6	 2788	 7215	597.2	34.45	6.900	4.622	3.277	2.632	2.157	2.077	1.673	1.469	1.313	1.197	1.099	1.094	1.364	1.239	1.475	1.278	1.318	1.279	1.442	1.348	1.364	1.446	1.695	1.606	1.979	2.006	1.861	1.682	1.448	1.521	1.389	1.646	1.791	1.665	1.848	2.046	2.232	2.511	2.650	2.837	3.001	3.294	3.442	3.720	3.770	3.871	4.207	4.219	4.593	4.495	3.181	2.302	1.978	1.824
325.0	584.4	801.7	766.3	517.2	370.7	350.3	381.9	433.0	511.5	598.9	738.1	833.3	882.7	850.1	825.0	586.4	357.5	282.6	282.4	823.1	 3899	 6677	524.2	19.88	5.256	4.239	3.074	2.858	1.966	1.861	1.513	1.270	1.334	1.151	1.159	1.203	1.376	1.455	1.535	1.350	1.316	1.402	1.507	1.528	1.563	2.272	1.892	2.403	2.814	2.514	2.268	2.021	1.739	1.663	1.742	1.877	1.802	2.023	2.294	2.525	2.579	2.698	3.069	3.313	3.611	3.747	4.123	4.314	4.493	4.359	4.130	4.287	4.450	4.533	3.547	2.505	2.354
330.0	663.4	954.3	990.6	709.0	489.0	424.4	446.8	497.0	571.4	683.0	813.8	931.0	986.1	940.3	846.4	741.3	540.5	357.6	275.2	336.6	 1080	 3486	 4721	 2180	34.54	6.731	4.480	3.341	2.395	2.072	1.838	1.700	1.442	1.389	1.294	1.256	1.378	1.404	1.364	1.312	1.399	1.390	1.537	1.611	1.768	2.375	2.477	2.978	3.386	3.243	2.791	2.607	2.272	2.095	2.053	2.219	2.403	2.362	2.542	2.750	2.836	3.087	3.406	3.696	3.961	4.198	4.564	4.772	4.894	4.903	4.771	4.628	4.433	4.348	4.219	3.953	3.430
335.0	770.9	 1103	 1173	875.3	629.9	549.9	532.6	580.0	650.5	775.4	905.9	 1032	 1082	 1044	922.1	774.7	706.8	527.3	353.3	292.7	397.0	896.9	 1915	 6435	 3237	45.91	7.629	4.572	3.364	2.682	2.125	1.803	1.521	1.569	1.288	1.231	1.471	1.308	1.381	1.437	1.443	1.472	1.451	1.690	2.139	2.513	2.687	3.474	3.766	3.893	3.267	3.270	2.877	2.902	2.445	2.483	2.641	3.056	2.874	3.068	3.274	3.642	3.865	3.968	4.306	4.771	4.767	5.209	5.676	5.032	5.217	4.995	5.004	4.781	4.140	4.136	4.310
340.0	806.6	 1219	 1340	 1002	747.2	665.1	633.1	677.1	745.1	866.2	979.9	 1100	 1156	 1131	 1006	832.4	728.4	684.3	457.3	337.6	290.8	349.9	560.0	 2952	 7411	 2360	33.94	6.272	4.552	3.294	2.390	2.194	1.702	1.505	1.425	1.324	1.467	1.251	1.352	1.481	1.575	1.575	1.552	1.847	1.953	2.593	2.729	3.817	4.432	4.317	3.804	3.877	3.704	3.402	2.982	3.047	3.172	3.382	3.319	3.562	3.959	4.232	4.290	4.445	4.967	5.004	5.381	5.439	5.673	5.627	5.617	5.231	5.522	5.091	4.664	4.414	4.357
345.0	846.8	 1261	 1404	 1121	904.5	788.8	764.4	783.8	857.2	961.3	 1070	 1158	 1211	 1199	 1083	900.8	757.8	733.2	613.0	415.7	318.2	273.8	265.2	842.9	 4276	 7064	450.1	21.89	5.868	4.069	2.859	2.308	1.966	1.696	1.553	1.466	1.515	1.459	1.456	1.351	1.379	1.600	1.683	1.934	2.150	2.579	3.032	3.817	4.477	4.220	4.115	4.257	3.921	3.585	3.608	3.633	3.910	3.938	3.932	4.082	4.226	4.569	4.792	4.868	5.302	5.443	5.427	5.488	5.844	6.180	6.045	5.666	5.778	5.224	4.877	4.475	4.455
350.0	847.3	 1256	 1436	 1257	 1081	 1021	989.4	 1013	 1096	 1174	 1239	 1288	 1314	 1295	 1182	 1015	860.1	765.7	722.0	597.7	423.2	331.3	274.7	352.6	 1178	 3741	 5461	 1930	33.19	6.747	4.091	2.942	2.307	2.070	1.673	1.622	1.488	1.576	1.436	1.384	1.486	1.694	1.737	1.863	2.251	2.698	3.138	3.823	4.445	4.385	4.191	4.567	4.719	4.530	4.459	4.571	5.019	4.917	5.153	5.295	5.509	5.538	6.060	6.009	6.055	6.162	6.023	6.015	6.383	6.273	6.496	6.226	6.099	5.790	5.580	5.124	4.936
355.0	853.4	 1214	 1446	 1349	 1290	 1274	 1287	 1317	 1404	 1467	 1479	 1486	 1472	 1414	 1306	 1147	989.8	870.6	775.8	736.1	602.9	433.7	351.6	314.5	444.5	979.9	 2101	 6130	 2956	45.53	6.826	3.986	2.868	2.237	1.863	1.576	1.716	1.573	1.466	1.825	1.613	1.719	1.671	1.880	2.354	2.877	3.073	3.859	4.463	4.468	4.322	5.172	5.527	5.637	5.704	5.757	6.156	6.465	6.742	6.708	7.021	7.043	7.600	7.534	7.161	7.330	7.075	6.909	7.035	6.758	7.011	6.673	6.791	6.705	6.194	5.931	5.851
360.0	857.4	 1235	 1447	 1415	 1411	 1435	 1452	 1502	 1599	 1683	 1659	 1603	 1570	 1499	 1386	 1232	 1087	956.1	838.3	765.6	719.5	548.8	417.7	352.1	320.4	383.1	616.6	 2858	 6999	 2230	32.56	5.936	3.647	2.614	2.153	1.829	1.848	1.702	1.680	1.675	1.520	1.763	1.822	2.031	2.158	2.703	3.142	3.773	4.475	4.560	4.574	5.369	5.871	6.103	6.271	6.400	6.773	7.165	7.879	7.662	7.748	8.174	8.463	8.498	8.114	7.818	7.662	7.398	7.748	7.508	7.248	6.872	7.044	6.967	6.612	6.457	6.050
365.0	837.0	 1218	 1425	 1459	 1508	 1538	 1577	 1651	 1751	 1840	 1793	 1703	 1650	 1568	 1445	 1295	 1151	 1023	900.6	801.5	751.2	673.9	498.3	400.9	328.3	285.6	284.9	802.7	 4131	 6789	423.8	19.48	4.983	3.462	2.420	2.027	1.880	1.686	1.809	1.597	1.492	1.691	2.034	2.139	2.287	2.742	3.154	3.901	4.347	4.532	4.536	5.624	6.204	6.544	7.189	7.011	7.883	7.857	8.295	8.034	8.421	9.025	9.023	9.375	9.049	8.652	7.944	7.654	7.978	7.790	7.489	7.693	7.350	7.188	7.086	7.110	6.357
370.0	861.7	 1210	 1440	 1545	 1618	 1698	 1749	 1815	 1921	 1986	 1964	 1836	 1744	 1640	 1504	 1364	 1228	 1103	981.1	870.3	782.8	738.2	641.8	498.4	391.6	315.7	256.0	308.4	 1098	 3673	 5385	 1743	28.36	5.499	3.198	2.676	2.005	1.869	1.884	1.754	1.734	1.823	1.927	2.120	2.458	2.700	2.906	3.729	4.191	4.439	4.674	5.792	6.527	6.904	7.445	7.489	8.296	8.318	8.850	8.892	9.502	9.872	10.27	9.677	9.594	9.369	8.697	8.778	8.426	7.821	7.954	7.793	7.737	7.693	7.279	7.311	6.836
375.0	831.8	 1184	 1396	 1554	 1691	 1794	 1889	 1935	 2050	 2134	 2085	 1953	 1828	 1683	 1559	 1410	 1291	 1172	 1054	945.1	852.3	770.2	729.9	648.5	488.3	383.8	299.8	241.3	358.5	899.4	 2102	 5902	 2611	38.40	5.307	3.249	2.721	2.253	2.144	1.921	1.776	1.959	2.000	2.080	2.207	2.656	3.102	3.806	4.135	4.437	4.820	6.013	7.096	6.966	7.775	7.861	8.788	9.291	9.275	9.613	10.07	10.32	10.65	10.62	10.62	10.12	9.406	8.961	8.756	8.447	8.324	7.983	8.040	7.977	7.825	7.584	7.540
380.0	832.1	 1151	 1397	 1574	 1700	 1824	 1928	 1971	 2096	 2194	 2120	 2002	 1868	 1713	 1575	 1421	 1313	 1193	 1090	983.9	897.5	812.5	750.5	730.3	590.1	445.8	347.6	259.7	222.0	294.7	553.6	 2766	 6410	 1942	27.11	4.538	3.318	2.806	2.119	2.025	2.081	1.922	2.236	2.215	2.373	2.951	3.011	3.705	4.165	4.421	4.913	5.837	6.948	7.554	8.094	8.047	8.998	9.457	9.630	9.922	10.30	10.46	10.80	10.79	10.64	10.29	9.330	9.170	8.829	8.228	8.540	8.610	8.114	7.993	7.972	7.516	7.461
385.0	807.5	 1135	 1408	 1573	 1717	 1854	 1948	 1978	 2105	 2187	 2131	 2013	 1889	 1712	 1576	 1424	 1310	 1206	 1106	 1012	929.6	845.8	770.0	734.9	675.2	505.0	383.9	288.5	217.2	180.9	201.9	735.9	 3826	 5824	346.4	15.42	4.357	3.368	2.413	2.255	1.986	2.071	2.132	2.060	2.361	2.909	2.833	3.679	4.332	4.206	4.733	6.188	6.958	7.430	8.088	8.291	8.985	9.636	10.01	9.759	9.952	10.36	10.71	10.39	9.995	10.13	9.391	9.238	9.047	8.308	8.494	8.371	8.081	7.936	7.948	7.569	7.713
390.0	805.2	 1101	 1315	 1532	 1687	 1841	 1918	 1987	 2094	 2139	 2109	 1981	 1862	 1700	 1549	 1409	 1296	 1197	 1110	 1027	952.7	877.9	802.2	747.8	695.8	596.3	448.1	332.0	248.6	189.6	149.1	236.0	991.3	 3118	 4316	 1395	23.70	4.420	3.134	2.736	2.198	2.109	2.099	2.186	2.443	2.801	2.999	3.565	3.955	4.158	4.665	5.769	6.742	7.442	7.681	8.188	9.346	9.516	9.706	9.834	9.937	10.30	10.34	10.29	10.05	9.749	9.169	8.758	8.798	8.676	8.126	8.362	8.005	7.791	7.591	7.449	7.384
395.0	811.0	 1074	 1274	 1467	 1630	 1798	 1866	 1964	 2050	 2096	 2057	 1936	 1808	 1658	 1501	 1360	 1256	 1167	 1094	 1022	962.7	904.1	832.8	772.8	701.1	627.1	535.6	389.5	291.9	224.2	168.3	148.7	285.7	743.5	 1654	 4736	 2146	32.00	4.728	3.475	2.759	2.569	2.198	2.169	2.343	2.733	3.007	3.400	3.878	4.064	4.298	5.730	6.775	7.146	7.712	8.000	9.074	9.053	9.484	9.662	9.689	10.11	10.04	10.23	9.953	9.462	9.049	8.439	8.066	8.615	8.139	7.876	7.889	7.593	7.211	7.393	7.241
400.0	760.4	 1049	 1248	 1401	 1581	 1743	 1830	 1908	 1970	 2015	 1994	 1872	 1756	 1602	 1458	 1322	 1227	 1140	 1077	 1009	953.6	900.1	834.8	787.3	710.9	622.3	568.6	452.0	329.3	252.8	190.9	145.9	143.4	219.7	419.9	 2211	 5055	 1595	23.21	4.198	2.905	2.827	2.539	2.575	2.195	2.632	2.870	3.219	3.753	4.113	4.108	5.563	6.476	6.786	7.549	7.793	8.572	9.006	9.416	9.214	9.597	9.648	9.905	9.721	9.756	9.272	8.975	8.252	8.138	8.430	8.078	7.951	7.893	7.127	7.269	7.052	7.110
405.0	735.7	 1012	 1195	 1354	 1535	 1682	 1773	 1835	 1921	 1946	 1939	 1819	 1711	 1547	 1414	 1285	 1182	 1103	 1042	985.6	935.6	888.4	833.8	786.7	716.6	619.8	554.6	497.6	376.0	280.4	214.7	161.6	125.6	113.8	138.1	569.2	 2877	 4623	303.7	14.59	3.674	3.002	2.671	2.418	2.483	2.499	2.944	3.398	3.620	3.942	3.980	5.297	6.120	6.776	7.405	7.412	8.505	8.567	9.008	8.944	9.110	9.550	9.587	9.608	9.265	9.042	8.490	8.094	8.092	8.162	7.789	7.781	7.270	6.973	6.973	6.875	6.809
410.0	722.0	958.6	 1138	 1286	 1452	 1594	 1687	 1766	 1834	 1866	 1836	 1729	 1613	 1474	 1341	 1219	 1124	 1052	999.4	945.2	907.0	860.4	814.4	779.0	711.8	619.2	545.6	494.3	434.1	332.2	249.1	189.1	140.9	107.3	87.19	165.9	723.8	 2417	 2864	 1254	20.99	4.041	2.930	2.747	2.668	2.719	2.838	3.359	3.350	3.633	3.876	5.115	5.873	6.713	6.874	7.255	8.018	8.284	8.824	8.707	9.061	9.138	9.033	8.851	8.693	8.447	7.972	8.064	7.722	7.610	7.151	7.335	7.096	6.990	6.618	6.597	6.432
415.0	691.0	895.4	 1076	 1216	 1361	 1494	 1599	 1681	 1741	 1747	 1713	 1618	 1500	 1375	 1253	 1135	 1046	994.3	939.7	893.3	862.7	825.0	784.0	753.2	696.4	612.1	543.5	481.7	439.3	392.6	290.0	216.3	162.3	122.0	90.89	86.34	195.9	565.7	 1178	 3693	 1815	29.39	4.075	3.066	2.861	2.842	2.537	3.206	3.182	3.461	3.551	4.697	5.729	6.033	6.688	6.696	7.409	7.798	8.294	8.848	8.578	8.542	8.472	8.593	8.730	8.200	7.654	7.368	7.336	7.165	6.504	6.507	6.744	6.351	6.431	5.929	6.064
420.0	661.8	849.2	 1003	 1146	 1292	 1432	 1521	 1598	 1650	 1654	 1620	 1517	 1421	 1303	 1189	 1082	992.7	935.0	895.2	860.8	829.7	791.0	754.1	727.2	675.9	608.0	542.4	481.4	428.0	406.2	332.4	237.0	177.2	136.4	99.55	75.75	85.22	154.7	293.7	 1674	 3977	 1358	20.52	4.006	3.191	3.022	2.694	3.166	3.245	3.443	3.940	4.657	5.606	5.721	6.253	6.716	7.094	7.597	8.066	7.930	7.880	8.072	8.236	8.529	8.001	7.509	7.116	6.815	7.127	6.670	6.297	6.201	6.428	6.215	6.243	5.850	5.844
425.0	648.6	823.1	975.5	 1107	 1232	 1360	 1480	 1537	 1586	 1588	 1543	 1456	 1362	 1245	 1130	 1027	948.5	895.1	855.0	823.9	793.5	761.9	726.5	702.5	656.9	597.3	534.3	484.2	431.1	396.9	360.5	270.1	194.8	147.9	109.5	81.93	65.98	67.61	89.74	421.4	 2276	 3673	281.3	11.11	3.555	3.363	2.903	3.441	3.371	3.345	3.597	4.485	5.179	5.452	5.816	6.289	6.839	7.364	7.844	7.816	7.715	7.930	7.973	7.502	7.831	7.223	7.000	6.609	6.779	6.021	6.162	5.926	5.799	5.865	5.793	5.610	5.627
430.0	621.8	774.9	924.7	 1034	 1163	 1286	 1383	 1465	 1524	 1513	 1465	 1377	 1284	 1170	 1062	969.9	894.0	847.4	805.2	770.6	749.3	719.4	691.4	673.5	635.2	581.7	529.4	483.0	434.8	390.4	354.2	308.0	227.1	165.0	126.2	94.34	72.43	57.20	50.50	116.1	571.2	 1933	 2454	 1098	18.67	4.141	3.148	3.295	3.335	3.274	3.415	4.397	4.806	5.273	5.532	5.979	6.745	7.042	7.294	7.284	7.738	7.411	7.522	7.365	7.249	6.769	6.588	6.192	6.225	5.700	5.720	5.522	5.726	5.137	5.402	5.204	5.427
435.0	822.0	744.1	869.9	980.2	 1093	 1202	 1307	 1398	 1448	 1437	 1381	 1305	 1201	 1095	996.2	908.5	838.4	789.1	748.9	726.1	701.9	677.1	653.8	642.6	610.0	563.0	519.2	479.1	438.2	393.7	349.4	311.7	266.4	194.7	142.9	109.5	84.49	64.89	49.67	53.96	147.8	448.5	983.1	 3130	 1596	25.03	4.281	3.495	3.448	3.239	3.301	4.241	4.593	5.044	5.296	5.744	6.295	6.767	7.069	7.161	7.137	7.208	7.228	7.028	6.925	6.522	6.132	5.850	5.765	5.625	5.502	5.490	5.243	5.304	5.190	4.928	5.052
440.0	 1215	711.1	848.7	944.2	 1047	 1155	 1265	 1337	 1399	 1391	 1332	 1252	 1148	 1046	950.7	867.6	790.1	749.2	717.1	690.5	670.4	646.5	628.8	613.0	588.1	543.4	506.9	474.5	438.8	398.0	352.4	303.4	275.0	220.3	157.9	120.4	94.18	72.62	55.73	45.47	56.72	118.2	242.2	 1522	 3491	278.0	15.25	4.018	3.657	3.385	3.410	3.973	4.390	4.942	5.366	5.464	6.202	6.295	6.627	6.860	7.066	6.868	7.050	6.677	6.549	6.200	5.848	5.656	5.523	5.402	5.310	5.345	5.229	5.150	4.742	4.757	4.786
445.0	 1566	857.6	813.6	909.0	977.2	 1105	 1206	 1281	 1337	 1330	 1273	 1198	 1096	999.7	903.8	826.4	754.9	716.9	684.3	657.1	638.4	615.5	598.1	588.7	564.2	529.8	499.0	464.9	429.3	398.8	351.8	301.5	266.3	237.1	175.9	130.9	101.6	79.92	63.15	49.56	40.62	47.88	70.61	389.3	 2161	 2964	220.9	8.676	3.970	3.391	3.424	3.893	4.384	4.896	5.093	5.045	5.984	6.076	6.459	6.595	6.508	6.544	6.713	6.677	6.416	5.832	5.707	5.471	5.355	5.320	5.150	5.217	4.858	4.879	4.644	4.479	4.302
450.0	 1354	 1440	797.4	844.6	913.0	 1036	 1137	 1207	 1261	 1251	 1187	 1113	 1020	929.5	849.7	763.6	702.4	657.8	634.2	609.3	591.0	570.0	557.0	545.4	525.7	497.7	471.7	448.4	418.8	388.5	347.4	302.0	257.9	228.3	197.8	150.6	113.6	90.19	71.63	56.84	43.47	37.26	35.50	101.8	543.6	 1737	 2178	854.0	15.65	4.167	3.396	3.760	4.314	4.364	4.795	4.881	5.532	5.829	6.221	6.301	6.250	6.329	6.304	5.980	5.985	5.535	5.220	5.213	5.118	4.761	4.619	4.685	4.651	4.406	4.256	4.189	3.960
455.0	739.1	 1844	 1109	778.5	849.9	963.0	 1035	 1117	 1166	 1158	 1107	 1038	940.9	860.6	774.3	698.1	643.4	605.4	578.0	557.5	535.9	519.0	510.5	500.4	483.1	459.7	443.5	420.4	400.9	374.6	340.2	296.0	256.3	215.3	192.5	170.1	132.3	101.6	80.24	64.31	50.52	40.92	32.25	41.27	135.4	401.0	902.2	 2615	 1249	19.08	4.223	4.028	4.241	4.381	4.680	4.556	5.049	5.461	5.625	5.891	6.092	5.922	5.845	5.532	5.610	4.999	5.061	4.844	4.587	4.098	4.086	4.208	4.166	4.243	4.050	4.318	3.498
460.0	506.5	 1570	 1656	749.6	800.0	897.2	983.4	 1057	 1106	 1090	 1044	973.4	886.8	802.0	724.9	654.7	598.9	569.0	542.2	519.9	500.2	483.2	475.3	464.5	452.8	435.1	418.8	402.9	385.0	363.5	328.7	291.9	251.1	212.0	184.5	171.3	145.0	108.8	85.63	70.43	56.77	45.13	35.16	30.98	47.03	102.6	219.8	 1265	 2745	213.6	12.82	4.365	4.234	4.178	4.143	4.402	5.065	5.034	5.531	5.630	5.590	5.702	5.475	5.439	5.226	5.003	4.833	4.644	4.224	4.090	3.986	4.177	3.926	3.910	3.749	3.977	3.341
465.0	406.5	 1005	 2069	902.2	761.0	840.6	919.8	 1006	 1059	 1034	983.6	925.1	833.4	757.6	673.3	618.3	562.9	528.6	506.7	482.3	464.8	451.7	442.4	439.1	421.4	408.7	397.6	382.1	367.8	347.0	314.9	284.5	244.8	208.8	180.8	163.7	152.7	120.7	90.09	73.58	60.71	48.29	38.95	30.93	29.41	38.19	61.10	320.4	 1725	 1725	174.1	7.696	4.428	4.013	3.972	4.266	4.712	4.697	4.827	5.230	5.238	5.292	5.394	5.117	5.139	4.820	4.457	4.371	4.103	4.077	3.887	3.712	3.808	3.609	3.653	3.359	3.325
470.0	357.0	578.8	 1625	 1638	751.2	768.2	842.6	912.8	955.5	941.6	905.4	846.0	764.0	688.0	620.0	562.8	512.8	482.0	456.7	435.7	421.2	410.2	398.7	394.5	383.2	371.8	362.7	350.5	340.5	323.5	299.7	268.1	235.2	202.3	175.3	154.2	143.2	128.0	101.0	78.76	65.47	52.56	43.20	34.75	28.33	26.36	27.75	83.34	436.6	 1203	 1562	690.7	15.15	4.419	4.054	4.133	4.402	4.477	4.679	4.986	4.787	4.885	4.850	4.480	4.543	4.490	3.888	4.092	3.805	3.767	3.497	3.456	3.453	3.328	3.259	3.135	3.083
475.0	344.4	449.2	827.8	 1957	 1147	684.6	747.3	824.3	863.3	861.1	832.3	765.2	699.7	629.1	562.2	501.1	461.6	433.5	411.5	394.8	380.2	367.3	360.7	354.5	344.1	334.6	329.2	319.1	311.0	300.5	279.8	252.9	223.6	192.4	169.8	148.8	130.9	121.5	112.2	88.15	69.38	55.98	46.93	37.99	30.87	25.88	22.48	32.12	107.7	278.3	625.2	 1829	821.6	18.51	4.171	3.907	4.252	4.191	4.358	4.377	4.434	4.558	4.329	4.393	4.033	4.022	3.873	3.504	3.402	3.227	3.326	3.061	3.051	2.961	2.773	3.058	2.842
480.0	332.6	389.8	567.9	 1533	 1708	700.4	697.7	762.7	800.4	803.2	766.9	718.4	647.2	589.5	526.7	469.4	421.5	398.7	378.8	362.5	350.5	336.7	333.3	325.9	320.0	308.3	304.8	296.7	289.3	284.0	264.8	240.5	213.8	185.8	164.3	144.6	125.6	113.9	110.5	97.79	73.00	59.58	48.92	40.43	32.95	27.13	22.52	21.44	35.37	71.05	152.1	851.1	 1867	228.6	12.18	4.403	4.112	4.242	4.104	3.802	4.306	4.125	3.975	4.211	3.804	3.593	3.604	3.350	3.266	3.096	2.997	2.836	3.063	2.920	2.718	2.762	2.732
485.0	300.5	360.1	464.4	924.9	 2036	920.5	654.8	718.6	750.2	750.7	724.2	672.0	601.3	548.4	486.6	439.0	399.5	371.3	352.3	336.6	325.2	311.7	308.1	303.6	296.8	287.7	283.2	280.0	273.6	268.0	250.1	230.6	203.4	180.6	158.2	140.6	123.5	111.1	104.3	99.26	79.88	61.80	51.84	42.65	34.94	28.36	23.41	20.59	20.04	25.52	41.67	212.8	 1179	 1644	183.3	6.137	4.205	3.997	3.875	4.116	4.066	3.944	3.670	3.678	3.649	3.295	3.399	3.083	3.045	2.805	3.033	2.697	2.861	2.668	2.674	2.425	2.662
490.0	275.5	356.4	395.7	542.0	 1479	 1609	683.9	651.9	689.1	695.9	664.8	616.6	557.0	495.2	449.7	401.4	361.8	333.9	322.1	305.0	295.2	285.2	277.9	273.5	269.7	262.8	259.2	253.6	250.5	243.7	232.4	213.6	191.1	170.7	150.2	133.8	120.1	107.1	97.08	91.26	84.31	67.52	53.88	44.69	36.40	30.70	25.36	21.08	17.91	16.12	17.34	54.37	294.3	928.6	 1381	562.6	14.93	4.021	3.934	3.924	3.853	3.689	3.538	3.610	3.344	3.194	3.048	2.950	2.783	2.642	2.611	2.532	2.712	2.452	2.360	2.397	2.234
495.0	245.2	320.5	367.1	420.6	747.2	 1813	 1101	591.7	630.4	620.9	598.4	551.2	504.0	451.3	402.2	358.2	328.1	302.0	286.2	272.5	263.8	252.7	250.3	241.6	238.0	234.5	230.3	228.3	224.8	221.7	209.8	195.2	174.7	156.0	139.9	125.2	113.1	103.0	91.97	82.12	78.56	72.44	56.88	45.38	36.96	32.02	26.38	22.23	18.24	14.88	12.82	19.00	71.13	213.6	584.7	 1597	260.6	18.25	3.782	3.667	3.471	3.447	3.510	3.394	3.230	2.995	2.868	2.564	2.446	2.468	2.526	2.413	2.334	2.304	2.126	2.008	2.141
500.0	226.2	286.6	339.3	372.9	480.2	 1326	 1647	613.6	567.5	567.3	549.1	501.4	455.0	410.5	371.0	330.6	297.9	276.9	260.8	249.1	240.3	230.1	225.8	220.3	217.1	215.0	210.1	210.0	205.9	203.6	192.0	178.1	162.1	146.2	130.6	118.4	107.5	96.77	86.65	77.79	71.81	69.71	60.56	46.66	38.13	32.30	27.01	22.74	18.08	14.91	11.70	11.61	21.85	52.52	140.6	767.0	 1563	236.7	11.12	3.670	3.362	3.221	3.345	2.984	2.929	2.821	2.621	2.635	2.502	2.240	2.179	2.122	2.176	2.103	1.970	1.916	1.955
505.0	204.4	253.6	318.2	335.3	378.0	775.5	 1866	855.1	520.1	527.1	502.6	461.3	420.5	376.5	339.3	295.9	272.3	252.7	236.3	227.4	219.2	211.3	205.2	201.5	198.9	194.0	190.7	190.3	187.4	186.0	179.4	165.2	149.8	136.4	122.6	110.4	102.1	90.92	82.61	73.97	67.03	62.77	59.92	49.15	38.40	31.07	26.71	22.96	17.91	14.65	11.84	10.10	10.62	16.67	36.00	191.5	 1011	 1426	186.7	5.506	3.307	3.139	2.958	2.854	2.721	2.405	2.428	2.331	2.156	2.258	2.141	2.010	1.883	1.924	1.710	1.963	1.815
510.0	167.1	216.6	268.1	302.4	321.3	449.8	 1253	 1493	557.7	460.8	442.9	410.0	371.5	333.6	299.3	262.7	240.9	223.9	209.4	199.6	192.2	186.6	177.8	175.3	172.5	169.8	167.3	167.4	166.4	165.0	158.0	147.4	133.7	121.4	111.0	100.1	91.77	83.44	76.31	67.92	61.65	55.91	52.69	49.59	39.89	31.62	26.12	22.18	18.24	14.72	12.00	9.888	8.608	9.030	12.63	46.87	252.9	800.4	 1115	443.2	14.12	3.152	2.820	2.469	2.433	2.251	2.201	2.014	1.955	1.812	1.841	1.779	1.706	1.752	1.511	1.628	1.660
515.0	154.1	189.3	228.0	268.2	279.9	325.1	584.9	 1536	 1020	401.4	387.6	359.3	323.7	292.4	262.6	230.0	208.4	193.7	180.8	174.1	165.7	160.7	153.6	153.4	149.3	146.1	144.7	144.3	143.3	142.0	135.7	128.1	117.7	106.9	97.16	89.23	83.12	75.57	67.61	61.80	55.81	49.89	46.14	44.54	41.29	32.36	25.42	21.31	17.82	14.61	12.16	10.33	8.353	7.480	7.817	14.99	60.61	183.4	430.7	 1185	262.0	16.49	2.774	2.403	2.101	2.092	1.974	1.956	1.787	1.762	1.650	1.566	1.421	1.538	1.449	1.380	1.423
520.0	140.8	162.1	201.6	237.3	262.7	272.2	358.4	 1061	 1495	447.9	347.7	322.5	293.2	262.5	232.6	210.0	187.1	173.3	160.2	157.1	149.5	144.9	138.0	136.3	133.5	132.1	129.2	129.1	129.2	128.9	122.3	116.5	106.2	95.24	87.63	81.81	75.04	67.28	62.89	57.66	51.85	45.74	41.92	39.28	38.42	33.93	25.17	20.82	17.38	14.16	12.02	10.21	8.571	7.090	6.525	7.595	17.63	44.82	103.5	568.9	 1140	220.1	7.937	2.516	2.099	1.864	1.986	1.897	1.741	1.522	1.562	1.541	1.415	1.415	1.424	1.251	1.328
525.0	119.5	149.7	184.9	213.5	247.5	246.3	279.1	576.7	 1613	750.3	316.6	291.2	261.1	233.5	214.5	189.3	169.2	155.1	145.1	140.7	134.5	128.9	125.4	123.8	120.4	120.6	118.7	116.2	116.7	114.9	110.9	104.1	95.90	87.30	80.44	73.92	69.14	63.05	58.20	53.77	48.13	43.55	39.71	35.21	33.80	33.51	26.79	20.05	17.08	13.64	11.81	9.975	8.479	7.190	6.399	6.207	8.154	13.90	26.64	141.6	702.8	 1006	35.03	4.045	2.121	1.890	1.763	1.649	1.498	1.390	1.352	1.430	1.303	1.383	1.274	1.237	1.176
530.0	98.73	130.6	156.1	179.4	213.1	224.1	239.7	332.4	 1002	 1329	404.9	254.9	234.4	209.0	186.9	164.2	148.1	135.6	128.1	123.7	116.9	112.1	108.0	106.3	104.6	103.1	103.2	101.0	100.8	100.2	96.51	90.46	84.64	76.81	70.00	65.32	61.00	55.67	51.58	48.05	43.37	39.50	35.51	32.26	29.27	29.07	26.63	21.28	16.25	12.87	11.23	9.483	8.142	7.062	6.251	5.768	5.822	6.748	9.541	34.73	174.5	554.9	753.3	309.7	12.24	1.957	1.628	1.392	1.405	1.361	1.170	1.276	1.255	1.175	1.144	1.103	0.936
535.0	88.19	114.8	125.5	147.2	176.4	205.9	208.5	241.1	438.0	 1225	952.0	234.6	199.5	185.7	161.5	141.2	127.0	118.4	108.9	105.8	101.5	96.61	94.57	91.64	88.93	88.69	89.09	87.01	85.78	85.54	82.91	78.77	74.18	66.42	60.54	57.21	53.56	48.47	44.74	42.24	39.17	35.42	31.33	28.77	25.37	23.81	23.54	21.54	16.85	12.54	10.40	9.049	7.923	7.185	6.248	5.446	5.256	5.155	5.498	10.86	41.68	127.2	285.8	813.1	252.9	14.36	1.642	1.420	1.354	1.264	1.230	1.159	1.011	0.991	1.109	0.964	0.929
540.0	88.25	96.76	114.8	130.6	154.9	189.1	188.7	198.9	254.9	768.5	 1356	274.8	183.1	163.8	141.0	126.6	115.2	105.8	98.71	93.89	90.17	86.42	84.57	80.76	78.71	78.04	76.87	77.06	76.22	77.07	74.20	70.31	64.98	59.49	54.88	51.18	47.46	44.05	40.45	37.65	34.84	32.24	28.81	26.07	23.48	20.92	20.11	20.29	17.61	12.27	10.16	8.728	7.271	6.855	5.959	5.631	5.315	4.681	4.527	5.386	12.20	31.11	68.77	374.9	803.1	203.9	6.323	1.511	1.222	1.325	1.068	0.955	1.040	0.975	0.941	0.935	0.776
545.0	70.04	92.35	111.1	115.5	130.8	161.3	179.0	181.3	198.7	407.8	 1284	657.4	169.9	145.8	129.0	115.3	103.9	95.60	89.99	84.96	81.07	77.40	76.29	72.10	70.59	68.73	69.05	69.23	69.80	68.16	67.44	62.62	57.36	53.31	49.27	45.64	42.37	40.78	37.51	34.76	32.07	29.73	26.78	23.73	21.44	19.41	17.37	18.05	17.35	12.71	9.962	8.250	7.247	6.258	5.629	5.209	4.973	4.254	4.353	4.228	5.399	9.499	17.83	93.56	482.6	717.8	34.94	3.039	1.266	1.130	1.057	0.920	0.828	0.744	0.877	0.834	0.817
550.0	72.29	85.48	88.91	101.1	112.5	130.4	161.0	160.1	166.3	222.4	710.4	 1116	296.3	124.0	109.3	100.4	88.19	81.78	76.21	72.87	69.12	66.35	64.74	62.50	60.22	58.79	58.98	59.31	59.33	58.33	56.91	53.09	49.84	46.00	42.77	39.86	37.64	34.75	33.18	30.37	27.89	26.07	23.43	20.92	19.28	16.92	15.47	14.53	14.75	13.10	10.06	7.785	6.422	5.921	5.525	4.845	4.663	4.411	4.174	3.834	3.722	4.512	6.375	22.98	119.5	384.5	525.7	149.8	11.13	1.236	1.059	0.942	0.839	0.676	0.782	0.780	0.756
555.0	58.34	73.43	78.36	88.29	95.62	107.8	132.7	143.1	140.1	159.9	287.7	878.1	800.9	117.4	95.33	83.54	74.08	69.38	64.44	60.50	57.77	55.82	53.72	52.47	49.89	49.75	49.06	49.44	49.04	47.87	47.70	43.64	40.93	38.31	35.53	33.06	31.59	29.16	27.17	25.65	23.38	21.98	19.63	18.41	16.55	14.75	13.05	12.23	11.26	11.64	10.40	8.064	6.074	5.278	4.729	4.693	4.319	4.052	4.024	3.441	3.260	3.265	3.486	7.343	28.66	88.10	192.8	533.9	236.0	12.25	1.165	0.903	0.914	0.763	0.669	0.648	0.727
560.0	54.57	68.70	70.90	79.26	80.62	93.19	111.2	131.1	125.5	131.3	160.0	500.3	 1085	179.5	80.99	72.66	64.87	58.35	54.74	51.76	51.17	47.56	46.88	44.99	43.63	42.75	42.30	42.02	42.41	41.65	40.12	38.94	35.75	32.54	30.82	28.68	27.06	24.93	22.92	22.56	19.93	19.50	17.27	16.02	14.60	12.97	11.78	11.02	9.230	9.410	9.640	7.768	5.626	4.886	4.451	4.205	3.904	3.555	3.633	3.345	2.942	2.824	2.709	3.346	8.234	21.26	45.98	239.8	542.4	173.9	4.585	0.853	0.760	0.719	0.532	0.593	0.590
565.0	50.81	67.07	58.80	71.18	67.92	80.95	92.13	113.6	117.1	109.1	120.1	241.0	926.2	539.6	72.86	62.91	56.47	50.60	47.04	45.03	43.35	40.78	39.60	38.94	37.33	36.55	35.97	35.32	36.48	35.28	35.43	32.85	30.70	28.54	26.25	24.78	23.46	21.92	20.43	19.28	17.73	16.08	14.66	13.75	13.09	11.61	10.15	9.025	8.222	7.475	7.924	7.840	5.592	4.637	3.966	3.898	3.684	3.216	3.239	2.924	2.796	2.641	2.446	2.567	3.433	6.370	11.89	58.92	304.5	468.8	34.09	1.751	0.790	0.743	0.544	0.511	0.508
570.0	47.60	56.76	50.84	55.93	60.21	66.20	70.92	89.20	103.8	96.07	95.86	122.2	457.4	860.2	213.3	49.35	44.93	40.84	37.58	36.16	34.95	33.21	31.87	30.66	30.46	29.79	28.84	28.06	29.02	28.22	27.71	26.33	24.67	23.11	20.98	19.64	18.66	17.78	16.51	15.50	14.33	13.13	12.23	10.94	10.20	9.357	8.467	7.688	6.851	6.076	5.929	6.204	5.668	4.501	3.516	3.432	3.228	2.833	2.759	2.749	2.560	2.406	2.216	2.165	2.153	2.749	3.983	14.32	74.43	234.3	277.9	130.0	8.577	0.785	0.620	0.511	0.457
575.0	43.68	44.23	49.85	46.45	50.00	51.24	56.55	69.52	87.45	88.41	79.68	82.96	164.0	583.0	655.0	51.23	35.16	30.55	30.29	28.25	26.81	25.46	25.45	23.21	23.61	22.34	21.91	22.23	21.52	21.87	21.72	20.21	18.89	17.50	16.28	14.65	14.67	13.63	12.64	11.74	11.16	10.03	9.389	8.495	8.183	7.135	6.599	5.993	5.482	4.591	4.413	4.389	4.853	4.341	3.112	2.819	2.761	2.403	2.302	2.302	2.164	2.053	2.125	1.709	1.635	1.774	2.038	4.217	17.62	53.36	100.9	296.2	165.4	7.601	0.645	0.584	0.399
580.0	42.23	45.09	43.39	37.72	39.84	47.73	48.22	55.79	70.44	84.12	71.57	70.30	83.20	300.5	835.4	123.9	30.14	25.34	24.59	22.97	21.53	20.38	20.36	19.32	18.95	18.56	17.98	18.43	17.85	17.70	17.72	16.31	15.18	14.02	13.21	12.24	11.96	10.99	10.69	9.564	9.132	8.644	7.633	7.008	6.684	6.115	5.665	4.857	4.354	3.928	3.702	3.406	3.892	3.949	3.221	2.421	2.289	2.195	2.084	1.887	1.978	1.759	2.008	1.675	1.543	1.484	1.487	1.844	4.864	12.75	23.98	127.3	296.4	37.33	2.676	0.436	0.440
585.0	45.51	42.04	40.68	36.42	35.38	40.32	44.02	49.88	59.98	77.26	66.29	62.95	60.06	131.3	638.2	450.0	27.34	22.17	21.36	18.64	18.62	17.40	17.09	16.22	15.88	15.24	14.87	15.13	14.67	15.25	14.49	13.92	13.22	11.90	10.74	10.29	9.617	9.889	8.803	8.304	7.633	7.288	6.426	5.985	5.518	5.336	4.618	4.115	3.720	3.452	3.277	2.817	3.007	3.318	3.093	2.459	2.062	1.967	1.839	1.810	1.579	1.506	1.502	1.441	1.357	1.268	1.301	1.249	1.949	3.519	5.971	31.15	158.3	233.6	30.57	1.169	0.436
590.0	38.15	37.15	35.87	31.19	30.00	34.39	38.62	40.58	47.49	64.20	67.16	55.79	52.04	60.02	283.4	667.9	160.0	18.50	16.46	15.44	14.83	14.19	13.75	12.90	13.45	12.81	12.09	11.90	11.80	11.74	11.75	11.22	10.79	9.630	9.026	8.704	7.654	7.590	6.952	6.567	6.087	5.606	5.298	4.966	4.654	4.388	3.920	3.365	3.054	2.878	2.594	2.299	2.239	2.399	2.540	2.536	1.965	1.661	1.582	1.560	1.334	1.354	1.303	1.274	1.273	1.132	1.156	1.062	1.144	1.539	1.980	7.551	38.39	115.2	165.3	78.35	6.044
595.0	34.68	29.15	34.61	27.06	26.04	27.72	30.57	32.76	40.95	51.57	64.04	55.86	46.48	40.43	91.40	403.6	527.8	25.10	13.06	12.13	11.68	10.91	11.13	10.69	10.72	10.18	9.286	9.289	8.966	9.421	9.665	8.664	7.933	7.142	7.151	6.864	6.324	6.094	5.609	5.147	4.901	4.427	4.174	3.854	3.652	3.502	3.090	2.779	2.551	2.157	2.167	1.846	1.720	1.760	1.827	2.108	2.102	1.552	1.221	1.267	1.213	1.152	0.984	1.082	1.133	1.049	1.037	0.898	0.957	0.913	0.973	2.197	9.082	26.15	55.68	158.9	39.36
600.0	27.46	32.99	25.57	25.78	22.43	25.86	28.57	31.31	36.68	42.28	58.45	56.89	43.48	35.68	41.62	189.4	654.3	91.56	11.40	9.761	9.851	9.257	9.185	8.800	8.481	8.592	7.700	8.003	7.749	7.980	8.198	7.524	6.728	5.950	5.897	5.768	5.193	4.594	4.718	4.292	4.026	3.646	3.750	3.330	3.033	2.936	2.540	2.444	2.175	1.837	1.716	1.584	1.535	1.437	1.494	1.742	2.028	1.570	1.261	1.176	1.100	1.040	0.869	1.043	0.993	1.034	0.998	0.881	0.872	0.735	0.685	0.987	2.570	6.283	13.12	66.24	147.4
605.0	28.39	28.43	28.47	23.32	21.44	22.80	25.43	31.13	32.15	37.09	50.83	59.04	40.41	35.65	28.86	73.68	479.0	365.8	12.14	9.180	8.588	8.778	8.169	7.625	7.305	6.980	6.858	7.014	6.645	6.691	6.986	6.346	5.610	5.209	5.037	5.010	4.862	4.319	4.102	3.631	3.333	3.115	3.302	2.743	2.677	2.651	2.127	2.286	1.960	1.615	1.537	1.300	1.356	1.290	1.145	1.427	1.772	1.454	1.158	1.069	0.905	0.963	0.908	0.857	0.755	0.901	0.968	0.849	0.793	0.600	0.659	0.815	0.973	1.753	3.378	16.14	79.97
610.0	24.87	30.81	25.48	22.19	20.39	22.03	25.59	29.36	28.32	37.39	42.98	55.10	45.16	33.92	26.44	30.83	195.7	546.0	127.6	8.395	7.052	6.887	6.308	6.209	5.905	5.540	5.662	5.711	5.557	5.292	5.550	5.246	5.004	4.529	4.177	4.169	3.852	3.572	3.357	2.974	2.928	2.751	2.589	2.252	2.117	2.102	1.875	1.767	1.561	1.413	1.217	1.228	1.076	0.938	1.017	1.106	1.322	1.399	1.165	1.103	0.822	0.820	0.894	0.798	0.819	0.721	0.835	0.786	0.800	0.693	0.630	0.623	0.640	0.770	1.167	3.950	19.49
615.0	26.21	26.10	20.71	21.80	18.32	19.95	23.08	26.72	27.05	31.11	40.23	46.78	50.88	34.51	25.39	20.04	57.05	310.0	442.5	16.31	6.048	5.632	5.426	5.119	4.724	4.418	4.529	4.507	4.458	4.390	4.491	4.330	3.911	3.642	3.569	3.360	3.077	2.995	2.582	2.420	2.216	2.226	2.003	1.641	1.627	1.652	1.519	1.349	1.323	1.148	1.039	0.962	0.885	0.826	0.837	0.879	0.880	1.171	1.162	0.959	0.750	0.815	0.758	0.714	0.710	0.659	0.691	0.757	0.847	0.627	0.650	0.601	0.466	0.564	0.595	1.201	4.728
620.0	21.97	30.47	24.12	20.09	19.04	19.24	22.16	22.34	26.19	31.23	35.05	41.39	48.96	36.44	23.96	17.64	23.07	132.3	546.0	76.71	5.437	5.148	4.852	4.468	3.994	3.584	3.901	3.918	3.593	3.790	3.811	3.468	3.322	3.183	2.892	2.955	2.666	2.388	2.205	2.189	1.873	1.879	1.745	1.614	1.355	1.377	1.337	1.145	1.160	0.965	0.907	0.863	0.732	0.778	0.730	0.807	0.662	0.967	0.974	0.939	0.821	0.659	0.601	0.598	0.667	0.631	0.637	0.604	0.874	0.681	0.484	0.544	0.499	0.601	0.473	0.593	1.525
625.0	21.41	30.17	21.40	18.69	16.07	19.72	19.79	26.59	24.41	29.99	35.54	39.30	47.31	39.00	24.12	16.80	14.42	47.57	383.4	317.9	7.040	4.439	4.179	3.866	3.645	3.318	3.457	3.208	3.295	3.150	3.277	2.869	2.701	2.735	2.360	2.423	2.112	1.903	1.877	1.972	1.764	1.569	1.471	1.301	1.261	1.141	1.117	1.008	1.030	0.892	0.839	0.792	0.638	0.599	0.677	0.719	0.679	0.673	0.826	0.959	0.793	0.634	0.557	0.592	0.553	0.605	0.614	0.542	0.621	0.633	0.446	0.590	0.469	0.443	0.380	0.438	0.705
630.0	23.01	28.21	20.59	16.30	16.99	17.06	18.27	22.71	25.56	28.40	32.21	37.56	40.55	42.61	25.78	16.78	12.89	18.24	144.9	451.0	106.2	3.964	3.382	3.279	2.962	2.961	2.756	2.745	2.847	2.574	2.852	2.420	2.201	2.314	1.993	1.894	1.829	1.765	1.610	1.596	1.395	1.214	1.201	1.198	1.050	0.975	0.908	0.831	0.804	0.754	0.656	0.663	0.589	0.491	0.631	0.637	0.621	0.555	0.742	0.802	0.747	0.650	0.510	0.569	0.555	0.506	0.593	0.525	0.564	0.626	0.621	0.570	0.428	0.453	0.393	0.409	0.452
635.0	23.43	24.92	23.95	17.37	16.05	16.58	16.72	22.13	23.59	27.36	28.53	34.57	35.82	40.28	30.54	16.47	13.38	11.70	39.85	237.2	375.6	11.66	2.860	2.853	2.514	2.470	2.402	2.323	2.133	2.280	2.349	1.860	1.892	1.924	1.576	1.557	1.595	1.300	1.430	1.312	1.156	1.037	0.988	0.995	0.954	0.784	0.860	0.714	0.672	0.625	0.493	0.548	0.534	0.418	0.514	0.486	0.515	0.477	0.419	0.653	0.593	0.608	0.497	0.500	0.545	0.537	0.613	0.477	0.574	0.419	0.502	0.530	0.463	0.359	0.426	0.380	0.383
640.0	27.75	25.81	28.14	17.63	12.30	16.45	17.56	20.44	22.57	26.87	29.33	32.95	34.39	36.68	35.04	18.79	13.81	11.22	14.93	93.66	454.3	63.66	3.069	2.476	2.105	2.168	1.833	2.027	1.842	1.979	1.867	1.747	1.619	1.594	1.492	1.283	1.357	1.065	1.173	1.199	1.028	1.008	1.007	0.862	0.756	0.672	0.693	0.590	0.626	0.580	0.467	0.515	0.439	0.377	0.443	0.432	0.471	0.495	0.397	0.572	0.497	0.661	0.513	0.533	0.507	0.478	0.456	0.438	0.593	0.431	0.483	0.546	0.548	0.356	0.462	0.358	0.441
645.0	29.82	27.97	28.85	21.41	14.81	15.69	17.34	18.73	22.03	26.44	30.83	33.58	35.25	33.23	36.82	22.27	14.36	11.11	9.710	31.06	311.3	260.1	4.677	2.372	2.134	1.908	1.714	1.711	1.704	1.865	1.457	1.480	1.433	1.287	1.220	1.237	1.234	1.014	0.969	0.891	0.762	0.958	0.904	0.794	0.774	0.741	0.597	0.583	0.582	0.594	0.462	0.484	0.435	0.399	0.404	0.458	0.452	0.431	0.376	0.451	0.473	0.669	0.551	0.526	0.472	0.351	0.478	0.425	0.516	0.428	0.407	0.493	0.528	0.358	0.440	0.309	0.425
650.0	32.43	28.87	37.58	20.73	16.11	15.24	18.46	19.08	21.36	26.23	29.91	37.54	37.54	34.13	35.18	25.72	15.29	10.82	9.190	12.56	135.6	404.3	31.24	2.139	1.826	1.714	1.607	1.609	1.464	1.646	1.104	1.363	1.269	1.195	1.206	1.049	1.130	0.884	1.015	0.856	0.715	0.741	0.799	0.690	0.630	0.557	0.524	0.630	0.641	0.486	0.369	0.432	0.409	0.358	0.404	0.403	0.375	0.333	0.411	0.492	0.407	0.447	0.522	0.555	0.325	0.401	0.466	0.428	0.521	0.413	0.454	0.522	0.406	0.555	0.496	0.383	0.393
