Sample:	'1
File name:	光大一厂35万出口.FD3
Run date:	'16:40:18, 05/12/2025
Operator:	Administrator
Comment:	'

Instrument
Model:	F-2700 FL Spectrophotometer
Serial number:	23B8-004
ROM Version:	4J14000 07

Instrument parameters
Measurement type:	3-D scan
Data mode:	Fluorescence
EX  Start WL:	220.0 nm
EX  End WL:	600.0 nm
EX Sampling interval:	5.0 nm
EM  Start WL:	230.0 nm
EM  End WL:	650.0 nm
EM Sampling interval:	5.0 nm
Scan speed:	12000 nm/min
EX Slit:	5.0 nm
EM Slit:	5.0 nm
PMT Voltage:	700 V
Response:	Auto 
Corrected spectra:	Off
Contour interval:	50.000

Peak integration
Integration method:	Rectangular
Sensitivity:	1
Threshold:	1.000

Peaks
No.	ApexEX/EM(nm)	Height(Data)
1	225.0/570.0	86.11
2	230.0/345.0	1523
3	235.0/360.0	1493
4	240.0/265.0	362.3
5	240.0/390.0	1442
6	250.0/275.0	501.5
7	255.0/280.0	550.1
8	255.0/560.0	164.1
9	260.0/290.0	543.0
10	260.0/575.0	126.0
11	265.0/295.0	734.7
12	265.0/585.0	113.2
13	270.0/300.0	1017
14	270.0/375.0	1401
15	270.0/600.0	102.0
16	275.0/310.0	1083
17	275.0/365.0	1406
18	275.0/610.0	85.77
19	280.0/315.0	1062
20	280.0/625.0	75.21
21	285.0/320.0	1105
22	285.0/640.0	57.12
23	505.0/275.0	3.288
24	510.0/280.0	3.698
25	520.0/285.0	3.643
26	530.0/290.0	3.677
27	535.0/295.0	4.648
28	545.0/300.0	5.678
29	550.0/305.0	5.836
30	560.0/310.0	5.897

Data points
	220.0	225.0	230.0	235.0	240.0	245.0	250.0	255.0	260.0	265.0	270.0	275.0	280.0	285.0	290.0	295.0	300.0	305.0	310.0	315.0	320.0	325.0	330.0	335.0	340.0	345.0	350.0	355.0	360.0	365.0	370.0	375.0	380.0	385.0	390.0	395.0	400.0	405.0	410.0	415.0	420.0	425.0	430.0	435.0	440.0	445.0	450.0	455.0	460.0	465.0	470.0	475.0	480.0	485.0	490.0	495.0	500.0	505.0	510.0	515.0	520.0	525.0	530.0	535.0	540.0	545.0	550.0	555.0	560.0	565.0	570.0	575.0	580.0	585.0	590.0	595.0	600.0
230.0	55.12	740.3	2228	759.6	49.53	11.11	9.804	7.839	6.532	5.731	5.641	4.796	4.386	3.797	3.221	2.612	2.327	2.267	1.971	1.865	1.703	1.544	1.471	1.405	1.344	1.272	1.233	1.148	1.091	1.092	0.989	1.005	0.863	0.830	0.848	0.765	0.793	0.737	0.659	0.676	0.658	0.667	0.653	0.601	0.581	0.602	0.955	3.805	7.134	6.343	2.883	0.866	0.494	0.470	0.448	0.483	0.520	0.483	0.466	0.508	0.468	0.484	0.511	0.478	0.502	0.507	0.495	0.526	0.536	0.494	0.485	0.545	0.511	0.518	0.514	0.536	0.531
235.0	88.49	220.8	1367	2672	593.1	74.59	9.640	8.496	7.745	5.910	5.477	4.349	4.114	3.835	3.036	2.830	2.517	2.231	2.110	1.820	1.713	1.635	1.469	1.370	1.357	1.421	1.163	1.129	1.331	1.196	0.981	1.048	0.887	0.869	0.777	0.737	0.730	0.817	0.783	0.805	0.689	0.779	0.659	0.736	0.662	0.538	0.634	1.368	2.812	5.552	9.061	10.37	5.219	1.407	0.536	0.503	0.511	0.531	0.456	0.475	0.485	0.479	0.494	0.488	0.501	0.522	0.538	0.523	0.523	0.472	0.483	0.523	0.511	0.564	0.556	0.542	0.625
240.0	120.0	121.2	421.4	2218	3115	474.3	38.97	9.949	8.544	6.097	6.330	5.321	4.562	3.786	3.460	2.926	2.913	1.991	2.327	1.999	1.642	1.679	1.744	1.537	1.466	1.412	1.291	1.246	1.234	1.192	1.104	1.051	0.923	0.848	0.737	0.706	0.688	0.830	0.722	0.671	0.720	0.651	0.702	0.722	0.647	0.771	0.676	0.773	1.026	1.854	4.833	11.92	15.23	11.64	4.479	1.013	0.544	0.535	0.476	0.479	0.505	0.468	0.502	0.511	0.515	0.526	0.483	0.498	0.509	0.537	0.510	0.517	0.513	0.603	0.524	0.529	0.610
245.0	96.32	166.3	152.8	745.5	3227	3194	353.3	20.72	8.428	7.318	7.314	5.675	5.035	4.291	4.194	2.879	2.769	2.375	2.053	2.070	1.911	1.630	1.728	1.523	1.453	1.343	1.293	1.265	1.250	1.165	1.057	1.072	0.873	0.804	0.738	0.769	0.789	0.794	0.797	0.633	0.670	0.651	0.588	0.653	0.632	0.782	0.848	0.851	0.707	0.838	1.471	4.067	10.01	18.41	18.58	10.67	3.170	0.757	0.524	0.507	0.557	0.548	0.502	0.520	0.514	0.558	0.481	0.535	0.526	0.555	0.491	0.465	0.512	0.556	0.543	0.525	0.645
250.0	57.92	129.2	197.8	257.6	1025	3055	3786	1277	81.63	9.297	7.851	6.454	5.273	4.771	3.894	3.385	2.859	2.548	2.113	2.082	1.941	1.700	1.572	1.593	1.601	1.276	1.304	1.304	1.168	1.188	1.055	1.094	0.936	0.895	0.790	0.806	0.767	0.782	0.724	0.727	0.651	0.649	0.654	0.688	0.642	0.679	0.693	0.844	0.943	0.976	0.902	1.380	2.687	5.895	10.84	17.28	22.69	19.05	11.41	3.497	0.787	0.540	0.546	0.506	0.525	0.523	0.496	0.571	0.515	0.582	0.532	0.493	0.519	0.523	0.612	0.554	0.594
255.0	57.79	61.10	148.2	290.7	325.0	784.2	2985	7327	1699	79.56	9.871	7.977	6.908	4.904	4.119	3.537	2.983	2.555	2.430	2.267	1.789	1.814	1.775	1.610	1.531	1.335	1.404	1.261	1.238	1.302	1.115	1.103	0.978	0.935	0.788	0.905	0.807	0.661	0.701	0.720	0.730	0.709	0.679	0.680	0.635	0.606	0.612	0.635	0.706	0.886	1.298	1.404	1.227	1.809	2.879	4.508	8.676	20.06	36.83	29.01	17.42	3.743	0.661	0.583	0.556	0.596	0.565	0.567	0.526	0.599	0.607	0.482	0.593	0.563	0.551	0.593	0.609
260.0	51.69	43.13	71.68	265.5	310.3	245.6	931.6	6601	6373	1243	34.91	9.685	8.178	5.819	4.562	3.535	3.451	2.906	2.580	2.290	1.989	1.690	1.669	1.530	1.523	1.359	1.544	1.281	1.322	1.221	1.144	1.037	0.928	0.938	0.924	0.903	0.757	0.720	0.696	0.688	0.746	0.783	0.648	0.706	0.710	0.614	0.623	0.558	0.586	0.555	0.930	1.633	1.714	1.384	1.208	1.492	2.541	5.851	16.69	35.93	51.83	27.56	13.66	2.242	0.605	0.588	0.560	0.542	0.539	0.577	0.573	0.554	0.669	0.556	0.538	0.603	0.568
265.0	53.82	39.79	44.64	134.0	362.3	261.3	273.8	2321	6963	6292	218.0	16.26	9.013	6.821	5.268	4.269	3.552	2.736	2.566	2.391	1.969	1.820	1.879	1.551	1.378	1.362	1.489	1.412	1.307	1.260	1.125	1.017	0.877	0.887	0.907	0.871	0.766	0.776	0.824	0.643	0.660	0.735	0.680	0.670	0.688	0.670	0.668	0.536	0.507	0.502	0.588	1.136	1.705	2.358	1.591	1.075	1.170	1.836	4.536	11.21	29.91	52.31	63.26	25.17	8.813	1.124	0.641	0.555	0.591	0.650	0.582	0.609	0.609	0.568	0.550	0.557	0.578
270.0	70.92	63.23	51.88	71.34	203.0	403.1	303.2	600.3	2309	6564	7485	811.6	51.62	9.614	6.790	5.123	4.239	3.385	3.008	2.483	2.438	1.984	1.896	1.828	1.570	1.612	1.422	1.367	1.368	1.359	1.214	1.138	1.081	0.953	0.957	0.893	0.887	0.761	0.829	0.692	0.653	0.727	0.706	0.748	0.706	0.661	0.687	0.593	0.597	0.540	0.563	0.770	0.957	1.572	1.995	2.274	2.063	1.438	1.689	3.141	7.627	16.26	33.59	49.98	64.20	53.38	17.08	7.672	1.247	0.630	0.657	0.670	0.590	0.671	0.613	0.567	0.648
275.0	117.4	133.1	124.8	91.30	116.1	241.8	501.5	380.8	578.7	1694	6249	9999.9	1138	44.06	9.853	6.900	5.205	4.364	3.262	2.825	2.561	2.326	2.143	1.987	1.925	1.649	1.429	1.575	1.456	1.391	1.355	1.286	1.134	1.018	1.152	0.868	0.787	0.782	0.867	0.725	0.771	0.724	0.835	0.734	0.847	0.832	0.787	0.826	0.743	0.628	0.633	0.701	0.841	0.955	1.189	1.579	2.725	3.288	2.335	1.571	2.376	4.368	8.172	12.29	22.31	48.79	88.86	96.23	27.06	8.990	1.032	0.673	0.641	0.692	0.744	0.631	0.674
280.0	178.7	213.6	207.1	127.7	111.1	156.2	375.0	550.1	283.0	460.1	1955	9294	9105	759.2	18.50	9.346	6.270	5.297	4.077	3.180	2.824	2.436	2.135	2.077	1.872	1.726	1.749	1.622	1.440	1.463	1.346	1.167	1.273	1.092	1.108	1.061	0.897	0.955	0.937	0.724	0.879	0.854	0.898	0.773	0.913	0.936	1.027	1.018	1.109	0.834	0.767	0.771	0.818	0.915	0.930	1.128	1.547	2.570	3.698	2.987	1.853	1.732	2.715	3.559	5.776	13.34	36.97	82.42	114.2	95.61	22.12	4.424	0.822	0.775	0.753	0.728	0.714
285.0	232.8	302.7	278.8	182.3	118.8	134.1	210.5	524.6	351.6	236.5	563.4	3188	9999.9	7019	113.4	12.63	8.271	5.659	4.599	3.743	3.223	2.810	2.281	2.026	1.976	1.817	1.768	1.571	1.472	1.434	1.387	1.411	1.248	1.287	1.160	1.227	0.986	1.216	0.968	0.840	0.877	0.973	0.919	0.929	0.915	1.090	1.215	1.213	1.254	0.963	0.933	0.907	0.798	0.924	0.965	1.023	1.232	1.417	2.281	3.515	3.643	2.355	1.680	1.841	2.334	3.985	9.368	23.53	55.55	111.2	127.0	32.72	16.91	1.955	0.900	0.733	0.803
290.0	298.1	405.2	379.5	242.5	142.9	134.6	159.7	287.0	543.0	491.0	356.1	909.8	3395	8518	7721	439.3	26.90	7.708	5.589	4.530	3.733	3.251	2.643	2.346	2.095	1.955	1.862	1.687	1.553	1.580	1.502	1.330	1.291	1.396	1.235	1.187	1.074	1.176	0.997	1.010	0.860	1.022	0.999	1.007	1.022	1.224	1.352	1.547	1.510	1.242	1.105	1.147	0.921	0.928	0.942	0.969	1.141	1.185	1.443	1.897	2.802	3.546	3.677	2.804	2.208	2.309	3.319	6.500	13.95	31.24	56.43	78.97	109.1	86.37	62.52	12.18	2.670
295.0	348.7	456.2	456.2	297.7	182.4	160.0	177.1	229.4	351.3	734.7	690.2	516.3	990.7	2237	6705	9606	624.9	21.60	7.613	5.696	4.254	3.711	3.085	2.690	2.602	2.112	1.883	1.829	1.517	1.805	1.514	1.334	1.438	1.609	1.326	1.309	1.173	1.128	1.014	1.040	0.897	0.938	0.947	1.108	1.093	1.297	1.532	1.800	1.603	1.486	1.252	1.207	1.072	1.054	1.078	1.162	1.135	1.255	1.350	1.657	1.963	2.269	2.885	4.648	4.586	3.400	2.668	3.125	4.910	8.343	14.08	19.10	31.20	59.47	126.7	152.8	34.95
300.0	337.2	483.2	490.7	345.1	224.1	205.4	231.4	270.5	342.2	591.1	1017	653.4	543.1	710.5	2052	8858	5644	86.63	12.62	6.428	5.208	3.882	3.227	2.894	2.698	2.199	2.113	1.836	1.817	1.727	1.640	1.387	1.423	1.501	1.362	1.268	1.360	1.142	1.146	1.077	0.956	0.994	1.044	1.013	1.224	1.278	1.434	1.715	1.858	1.580	1.441	1.449	1.290	1.219	1.264	1.173	1.442	1.646	1.514	1.777	2.070	2.095	2.431	3.197	4.753	5.678	4.469	3.167	3.164	3.654	4.944	5.871	8.477	15.50	41.93	97.57	153.4
305.0	339.0	513.9	525.3	385.4	275.5	252.5	295.1	345.7	413.9	555.7	941.7	1063	586.3	449.9	638.6	3012	9438	4489	65.31	8.955	6.244	4.671	3.669	3.349	2.741	2.483	2.298	1.776	1.793	1.869	1.621	1.565	1.388	1.498	1.488	1.320	1.344	1.281	1.038	1.269	1.032	1.010	1.071	1.150	1.315	1.462	1.593	1.697	1.878	1.691	1.466	1.589	1.224	1.421	1.356	1.429	1.520	1.771	1.811	1.987	2.304	2.522	2.583	2.896	3.668	5.057	5.836	5.397	4.104	3.208	3.195	3.151	3.567	5.035	10.53	25.52	62.12
310.0	372.1	513.2	536.5	409.3	315.8	309.9	363.2	428.6	510.7	619.0	791.5	1083	987.9	552.4	396.5	821.1	3120	6883	5991	294.6	17.95	6.356	4.619	3.794	3.221	2.600	2.433	2.103	1.957	1.941	1.734	1.534	1.406	1.442	1.513	1.362	1.288	1.246	1.104	1.047	1.063	1.108	1.133	1.124	1.291	1.502	1.641	1.882	1.841	1.713	1.546	1.817	1.685	1.631	1.602	1.692	1.863	2.072	2.313	2.502	2.663	2.978	3.121	3.355	3.662	4.078	4.521	5.427	5.897	5.478	4.327	3.358	3.014	2.932	3.987	7.089	15.12
315.0	378.3	532.5	558.4	457.5	375.8	380.2	422.6	511.3	598.2	703.7	811.2	931.2	1062	940.8	466.1	398.0	843.0	1782	5628	7636	442.1	14.84	6.272	4.795	3.977	3.144	2.634	2.307	2.086	1.992	1.932	1.655	1.561	1.522	1.517	1.339	1.326	1.453	1.030	1.107	1.086	1.161	1.167	1.197	1.212	1.495	1.689	2.004	2.024	1.764	1.644	1.958	1.775	1.840	1.933	1.982	2.137	2.435	2.556	2.743	2.951	3.190	3.316	3.757	4.037	3.954	4.274	4.452	4.816	5.300	5.942	5.981	3.903	3.009	3.132	3.343	4.967
320.0	407.5	593.0	632.8	515.8	440.7	443.0	485.8	570.6	668.8	788.2	891.9	969.5	987.5	1105	728.7	402.0	412.1	555.0	1740	7269	4141	63.28	9.769	5.986	4.220	3.692	2.954	2.431	2.338	2.218	1.865	1.774	1.505	1.596	1.374	1.396	1.371	1.311	1.144	1.175	1.147	1.155	1.199	1.161	1.361	1.535	1.855	2.058	2.156	1.903	1.811	2.168	1.913	1.974	2.122	2.273	2.378	2.543	2.727	2.966	3.248	3.499	3.748	3.971	4.353	4.303	4.787	4.721	4.928	5.034	5.440	6.168	6.487	4.729	3.644	3.005	3.131
325.0	440.0	723.1	815.6	652.8	516.0	502.7	537.7	617.2	733.4	859.9	988.5	1065	1032	1040	1015	554.8	392.4	335.9	534.1	2530	7446	3413	50.78	7.723	5.034	4.115	3.244	2.715	2.489	2.260	2.168	1.878	1.650	1.477	1.502	1.261	1.323	1.339	1.276	1.188	1.103	1.194	1.100	1.391	1.312	1.812	1.967	2.502	2.703	2.389	2.210	2.382	2.132	2.318	2.399	2.481	2.451	2.857	3.031	3.070	3.278	3.679	4.103	4.255	4.690	4.956	4.879	5.089	5.252	5.137	5.207	5.296	6.167	6.512	5.282	3.829	3.568
330.0	529.4	895.1	1116	962.2	671.6	575.5	590.5	675.5	793.9	953.8	1094	1173	1142	1055	1005	857.1	552.1	362.3	315.4	708.1	2502	5492	4832	238.7	15.18	5.624	4.028	3.172	2.799	2.540	2.118	1.977	1.748	1.483	1.496	1.384	1.450	1.420	1.311	1.170	1.148	1.166	1.298	1.376	1.480	1.905	2.334	2.926	3.457	3.225	3.086	3.244	2.880	2.595	2.699	2.678	2.754	2.982	3.205	3.393	3.531	4.015	4.272	4.565	5.219	5.123	5.071	5.531	5.889	5.845	5.745	5.318	5.715	6.065	6.037	5.919	5.183
335.0	593.7	1033	1346	1206	848.5	676.5	665.2	741.1	881.3	1027	1182	1287	1271	1161	1015	913.2	827.6	516.0	349.9	358.3	676.3	1422	4645	6506	371.4	14.28	5.568	4.204	3.432	2.734	2.307	2.144	1.949	1.758	1.650	1.494	1.369	1.401	1.246	1.249	1.167	1.231	1.439	1.426	1.679	1.945	2.743	3.377	3.871	3.760	3.633	3.864	3.517	3.011	3.103	3.044	3.086	3.215	3.638	3.600	4.096	4.199	4.538	4.983	5.249	5.717	5.588	5.967	6.385	6.325	6.340	6.112	5.883	6.025	6.032	5.597	5.799
340.0	618.6	1081	1471	1354	959.3	769.3	730.1	797.7	931.3	1077	1242	1329	1327	1237	1082	923.0	907.5	718.8	429.2	329.2	310.1	418.8	1399	6111	3439	55.74	8.659	5.478	3.949	3.294	2.732	2.275	2.238	1.965	1.553	1.531	1.505	1.507	1.234	1.326	1.161	1.288	1.340	1.624	1.684	2.155	2.773	3.558	4.236	4.089	3.956	4.279	3.848	3.487	3.353	3.343	3.439	3.429	3.565	3.836	4.159	4.609	4.748	5.158	5.451	5.774	5.807	6.510	6.432	6.412	6.664	6.504	6.370	6.313	6.131	5.707	5.658
345.0	636.1	1112	1523	1433	1045	838.7	776.3	829.6	956.8	1111	1254	1361	1356	1278	1132	945.7	865.8	834.2	565.3	373.7	273.0	231.8	412.5	2056	6189	3017	46.50	7.207	4.828	3.801	2.916	2.340	2.089	2.059	1.749	1.505	1.496	1.528	1.316	1.262	1.233	1.265	1.316	1.509	1.814	2.279	2.830	3.635	4.243	4.316	4.272	4.752	4.102	3.870	3.508	3.568	3.498	3.622	3.715	3.892	4.328	4.604	4.980	5.339	5.728	5.816	6.070	6.283	6.260	6.348	6.609	6.380	6.563	6.262	6.016	5.985	5.511
350.0	638.3	1091	1509	1496	1157	939.0	863.3	884.3	1002	1147	1279	1365	1381	1296	1171	994.2	869.5	791.7	716.8	524.7	340.4	255.6	244.6	574.4	2037	4432	4047	217.4	15.01	4.887	3.411	2.704	2.173	2.050	1.819	1.542	1.414	1.497	1.393	1.230	1.206	1.334	1.256	1.441	1.782	2.251	2.661	3.546	4.169	4.252	4.487	4.899	4.468	4.368	3.818	3.634	3.876	3.876	3.943	4.258	4.264	4.716	5.017	5.366	5.698	5.945	6.061	6.455	6.359	6.702	6.844	6.638	6.649	6.503	6.214	6.109	5.902
355.0	639.5	1040	1453	1487	1251	1058	979.0	966.0	1089	1196	1309	1375	1381	1315	1204	1045	922.0	805.9	731.1	708.6	493.1	337.2	272.1	295.3	566.0	1132	3458	5276	361.0	14.51	4.727	3.501	2.272	2.043	1.986	1.615	1.636	1.537	1.440	1.308	1.325	1.227	1.353	1.523	1.747	2.170	2.769	3.443	4.075	4.090	4.401	5.279	4.478	4.482	4.340	4.065	4.256	4.208	4.387	4.533	4.712	5.076	5.068	5.400	5.891	6.021	6.121	6.292	6.518	6.560	6.655	6.694	6.848	6.984	6.494	6.104	6.285
360.0	642.8	1020	1439	1493	1306	1127	1047	1074	1152	1237	1342	1396	1389	1326	1224	1079	967.3	855.2	750.5	735.1	648.0	438.5	332.6	279.8	279.3	349.1	1001	4511	3215	296.1	8.674	4.518	3.064	2.349	2.059	1.825	1.640	1.524	1.350	1.297	1.247	1.222	1.493	1.453	1.806	1.996	2.643	3.559	4.070	3.998	4.496	5.139	4.963	4.455	4.487	4.571	4.682	4.819	4.660	4.782	5.123	5.175	5.168	5.796	5.871	6.242	6.283	6.335	6.599	6.743	6.610	6.697	6.877	7.292	6.580	6.598	6.479
365.0	606.6	987.4	1413	1475	1355	1185	1107	1132	1205	1284	1372	1406	1387	1322	1233	1111	1003	899.7	802.8	732.0	722.6	571.7	410.5	328.5	257.6	206.4	306.3	1427	4809	2977	46.81	6.520	3.889	2.838	2.252	1.906	1.714	1.582	1.310	1.381	1.393	1.256	1.468	1.373	1.709	2.113	2.695	3.334	3.886	3.855	4.276	5.492	5.077	4.890	4.539	4.708	4.875	4.748	4.854	5.179	5.382	5.151	5.833	5.941	6.185	6.491	6.132	6.322	6.368	6.906	6.538	6.583	6.736	6.703	6.759	6.571	6.852
370.0	601.7	974.3	1361	1482	1369	1257	1189	1183	1250	1328	1399	1402	1369	1318	1226	1128	1039	952.1	865.5	793.0	738.3	700.6	575.9	427.0	321.0	234.0	195.2	403.4	1490	3645	3628	891.6	15.38	4.044	2.750	2.012	1.763	1.529	1.385	1.366	1.393	1.276	1.494	1.559	1.653	2.019	2.586	3.359	3.870	3.767	4.192	5.187	5.075	5.029	4.847	4.825	5.065	5.100	5.178	5.342	5.738	5.657	5.900	6.051	6.215	6.313	6.285	6.377	6.308	6.363	6.434	6.838	7.001	6.833	6.896	6.663	6.919
375.0	578.9	961.3	1311	1460	1404	1321	1264	1242	1289	1362	1401	1396	1367	1306	1219	1130	1069	995.4	927.3	865.5	792.8	739.8	713.5	580.8	412.0	308.4	227.0	217.1	416.1	912.6	2671	4601	330.5	15.23	3.659	2.690	2.115	1.817	1.693	1.389	1.302	1.433	1.406	1.504	1.578	2.044	2.465	3.218	3.559	3.555	4.003	5.217	5.241	5.240	5.029	5.097	5.309	5.524	5.473	5.702	5.984	5.883	6.078	6.071	6.338	6.503	6.231	6.291	6.710	6.305	6.575	6.708	6.867	6.695	6.784	6.838	7.230
380.0	578.3	952.7	1257	1451	1422	1367	1290	1285	1309	1369	1395	1389	1352	1286	1210	1131	1072	1019	959.8	906.5	840.9	776.0	736.6	691.4	503.6	369.6	276.6	211.1	208.1	280.4	749.6	3418	3850	268.6	8.021	3.507	2.550	2.102	1.800	1.512	1.429	1.331	1.423	1.589	1.657	1.994	2.439	3.199	3.291	3.411	3.829	5.240	5.099	5.199	5.155	5.270	5.566	5.647	5.686	5.798	5.853	5.714	6.192	6.115	6.394	6.298	6.270	6.184	6.579	6.373	6.727	6.405	6.578	6.608	6.876	7.037	7.064
385.0	568.4	918.8	1217	1410	1439	1404	1322	1301	1324	1370	1383	1379	1328	1263	1202	1115	1070	1029	979.8	934.3	880.6	819.9	755.6	731.7	621.9	445.2	331.1	250.6	196.8	167.0	238.3	1013	3606	2534	39.50	5.831	3.252	2.507	1.901	1.612	1.480	1.453	1.511	1.597	1.755	1.986	2.375	3.011	3.505	3.471	3.998	5.341	5.206	5.507	5.197	5.413	5.756	5.635	6.004	5.601	5.808	5.831	6.017	6.449	6.298	6.407	6.003	6.119	6.267	6.259	6.410	6.171	6.621	6.595	6.628	6.544	6.899
390.0	541.2	898.2	1203	1412	1442	1417	1334	1312	1333	1356	1360	1349	1295	1236	1165	1095	1052	1020	988.2	959.1	917.5	861.6	803.0	748.1	693.0	577.2	425.9	322.4	248.2	190.8	161.3	299.6	1035	2380	2558	756.3	14.83	3.554	2.442	1.895	1.640	1.593	1.553	1.679	1.874	2.023	2.384	3.049	3.446	3.517	3.924	5.019	5.251	5.403	5.514	5.486	5.591	5.504	5.843	5.772	5.880	5.958	6.180	6.213	6.094	6.188	6.059	6.223	6.055	6.249	6.207	6.243	6.461	6.356	6.499	6.242	6.755
395.0	555.8	865.6	1184	1379	1437	1416	1346	1311	1326	1332	1342	1311	1253	1202	1132	1065	1024	1007	984.0	960.9	944.1	896.6	853.3	785.4	714.2	657.7	551.5	412.2	321.0	252.8	192.9	178.1	304.6	592.3	1502	3105	287.6	17.55	3.612	2.449	1.976	1.751	1.610	1.639	1.903	2.169	2.430	2.979	3.419	3.466	3.902	4.894	5.207	5.490	5.312	5.194	5.885	5.727	5.560	5.611	5.686	5.747	5.883	6.091	6.183	6.048	5.807	5.679	6.188	6.259	6.364	6.148	6.215	6.525	6.488	6.437	6.503
400.0	538.0	851.1	1156	1351	1421	1410	1346	1323	1302	1317	1317	1274	1235	1169	1104	1042	1005	983.6	975.8	962.2	936.9	910.2	871.4	810.8	741.1	673.7	625.5	482.7	382.3	303.3	232.1	179.7	163.7	198.2	415.0	1916	2337	253.0	10.75	3.173	2.273	1.949	1.696	1.732	1.878	2.092	2.337	2.840	3.295	3.315	3.679	5.033	4.971	5.320	5.210	5.430	5.738	5.499	5.583	5.739	5.749	5.828	6.066	6.092	6.304	5.709	5.916	5.658	5.642	5.913	6.320	5.980	6.139	6.454	6.321	6.203	6.413
405.0	525.1	850.7	1141	1317	1397	1393	1348	1309	1290	1293	1295	1270	1209	1141	1068	1011	985.2	960.7	950.5	949.6	932.0	913.1	877.8	833.7	761.6	688.5	641.2	573.3	448.5	353.0	275.2	207.2	156.4	128.5	150.4	537.3	1997	2156	198.6	5.909	2.753	2.142	1.763	1.757	1.789	2.115	2.397	2.819	3.331	3.343	3.673	4.910	4.917	5.231	5.187	5.479	5.578	5.460	5.751	5.673	5.962	5.838	6.140	5.942	6.058	5.758	5.992	5.703	5.916	5.729	6.066	5.848	6.110	5.932	5.908	6.033	6.235
410.0	513.5	816.6	1119	1287	1368	1380	1334	1287	1270	1264	1247	1224	1163	1097	1028	969.2	946.0	920.5	914.5	909.9	906.9	892.3	876.9	835.1	777.1	710.4	650.0	602.6	537.1	422.5	328.5	253.7	190.7	144.3	114.4	175.5	554.8	1531	1893	643.0	14.11	2.924	2.184	1.952	1.895	2.149	2.191	2.805	3.225	3.299	3.631	4.777	4.707	5.137	5.214	5.350	5.868	5.715	5.618	5.775	5.724	5.614	5.706	5.860	5.808	5.786	5.604	5.789	5.616	5.782	5.600	5.845	5.853	5.783	6.104	5.766	6.137
415.0	487.3	770.0	1084	1263	1341	1337	1305	1268	1239	1221	1202	1161	1117	1056	983.3	929.0	886.6	871.1	865.3	867.6	863.4	862.7	850.3	824.8	782.9	725.1	662.3	607.6	570.8	505.7	390.2	299.2	231.0	174.4	129.4	112.8	174.2	378.7	904.3	2070	265.6	17.24	3.037	2.245	1.962	2.030	2.438	2.830	3.295	3.178	3.590	4.688	4.731	5.284	4.982	5.037	5.445	5.540	5.506	5.637	5.408	5.650	5.653	5.430	5.874	5.428	5.559	5.383	5.418	5.460	5.397	5.616	5.597	5.879	5.619	5.697	5.552
420.0	487.0	764.6	1046	1242	1296	1292	1282	1243	1209	1187	1151	1116	1075	1009	938.3	880.8	843.3	830.1	823.5	831.6	827.6	833.2	828.4	803.2	770.1	725.5	667.0	611.0	566.5	534.8	442.0	330.8	256.3	197.4	147.6	113.0	100.6	125.4	242.2	1144	1846	237.6	10.11	2.734	2.278	2.157	2.434	2.782	3.345	3.077	3.428	4.550	4.637	4.940	4.812	5.274	5.125	5.609	5.443	5.394	5.576	5.410	5.569	5.468	5.404	5.180	5.459	5.193	5.325	5.490	5.155	5.400	5.418	5.279	5.397	5.380	5.745
425.0	465.0	714.8	1020	1198	1283	1288	1250	1223	1184	1157	1138	1084	1039	970.4	905.6	852.0	806.5	792.5	790.4	797.6	799.3	797.9	795.2	785.1	755.3	713.6	667.4	612.9	565.6	530.6	482.8	369.9	281.8	218.4	166.4	124.5	94.17	76.20	86.55	309.1	1281	1624	187.8	5.274	2.809	2.527	2.510	2.830	3.159	3.182	3.465	4.347	4.744	4.570	4.437	4.755	5.108	5.297	5.330	5.430	5.551	5.486	5.399	5.596	5.358	5.190	5.349	5.192	5.040	5.036	4.800	5.111	5.274	5.369	5.061	5.333	5.292
430.0	498.6	691.3	976.5	1152	1241	1243	1215	1204	1163	1138	1101	1053	994.5	931.8	864.4	807.1	766.6	749.7	743.9	748.4	751.0	757.8	757.8	754.1	730.6	697.2	661.1	613.3	572.2	526.2	484.5	414.6	320.7	245.7	191.8	145.4	109.4	79.44	63.42	99.21	342.2	1008	1356	498.5	13.97	3.361	2.751	2.820	3.059	3.110	3.380	4.169	4.518	4.851	4.587	4.863	5.111	5.181	5.140	5.374	5.362	5.267	5.431	5.307	5.278	5.112	5.116	5.000	4.891	4.968	4.859	4.929	5.031	5.004	4.935	4.905	4.924
435.0	700.0	655.2	931.3	1106	1184	1213	1194	1181	1138	1109	1061	1029	954.2	891.6	822.3	763.0	727.0	705.2	702.0	702.5	704.0	714.4	717.2	715.5	700.2	676.8	644.5	611.6	570.4	527.2	478.1	425.2	364.7	278.1	214.4	167.9	129.9	95.49	71.98	62.56	105.9	247.6	621.3	1582	248.6	17.25	3.390	3.121	3.183	3.066	3.488	4.190	4.256	4.908	4.503	4.756	5.045	5.219	5.085	5.007	5.102	4.986	5.282	5.100	4.997	4.926	4.568	4.755	4.997	4.697	4.585	4.779	4.635	4.820	4.782	4.669	5.022
440.0	849.9	697.8	900.7	1066	1151	1174	1167	1167	1117	1083	1038	989.8	926.9	851.4	790.3	733.6	695.8	683.8	670.6	663.8	675.1	680.7	682.1	684.6	678.6	651.9	627.7	599.3	563.4	526.1	478.4	417.4	377.9	306.1	233.5	183.1	143.2	108.3	80.94	63.30	59.88	81.47	166.4	883.0	1525	221.7	10.25	3.762	3.163	3.088	3.512	4.057	4.309	4.684	4.543	4.761	4.851	5.089	5.303	5.025	5.185	5.027	5.114	5.036	5.111	4.935	4.774	4.913	4.851	4.736	4.206	4.394	4.570	4.497	4.604	4.724	4.643
445.0	892.5	894.4	884.6	1020	1114	1144	1152	1145	1099	1049	1006	961.3	891.6	821.9	756.4	699.8	668.7	649.8	639.9	638.1	639.7	642.7	650.9	651.2	646.4	628.0	604.8	580.5	550.3	516.8	472.1	412.0	370.0	324.3	252.4	196.1	153.6	120.9	91.68	70.50	55.87	50.10	61.08	241.8	1083	1383	159.1	6.020	3.589	3.210	3.444	3.894	4.101	4.486	4.483	4.515	5.035	4.909	5.034	4.838	5.228	5.008	5.019	4.910	4.699	4.697	4.464	4.710	4.476	4.532	4.168	4.594	4.176	4.449	4.511	4.389	4.181
450.0	657.1	1304	969.1	968.2	1049	1079	1092	1083	1041	993.2	955.0	905.7	842.2	775.0	711.5	650.0	618.4	600.6	590.0	581.7	583.3	589.8	598.5	601.5	598.7	586.7	564.8	549.2	525.5	499.3	457.6	406.5	351.8	313.7	272.0	215.5	168.8	134.6	106.3	82.94	65.69	52.70	45.26	76.78	290.2	874.1	1189	428.7	12.37	3.669	3.455	4.086	3.978	4.159	4.252	4.508	4.807	4.814	4.851	4.726	4.839	4.646	4.691	4.814	4.800	4.722	4.384	4.339	4.280	4.354	4.059	4.263	4.087	4.198	4.171	4.330	4.087
455.0	425.1	1371	1341	919.8	970.2	1017	1021	1016	980.4	935.5	904.9	841.3	779.6	716.0	653.6	600.0	571.6	545.0	535.7	526.7	524.9	528.7	540.9	543.8	543.5	531.2	518.8	506.5	488.8	467.7	435.6	392.7	338.0	297.5	268.7	233.7	184.1	144.9	118.1	98.23	77.20	61.26	49.09	45.88	85.85	211.9	517.6	1289	204.2	13.72	3.762	3.852	3.972	3.909	4.085	4.212	4.637	4.399	4.737	4.412	4.706	4.555	4.577	4.738	4.560	4.269	4.343	4.211	4.009	3.951	3.975	3.949	3.753	3.912	3.772	3.950	4.112
460.0	342.0	1013	1970	983.6	939.9	946.1	958.4	953.2	920.7	887.2	853.7	794.7	733.3	669.6	608.7	560.0	530.3	509.5	494.2	488.9	486.5	486.2	502.5	496.5	500.9	494.0	481.1	472.1	460.7	443.2	414.4	374.0	328.9	287.3	254.7	233.1	197.5	153.4	124.7	104.3	85.47	68.69	54.41	42.17	43.15	64.28	134.1	689.5	1177	165.6	9.159	4.213	3.842	3.984	4.093	4.014	4.212	4.322	4.510	4.330	4.346	4.473	4.287	4.142	4.264	3.985	4.098	4.002	3.767	3.746	3.702	3.747	3.829	3.665	3.762	3.670	3.803
465.0	312.5	652.5	2106	1435	878.0	898.9	915.9	913.0	869.0	844.2	803.1	746.2	687.5	629.0	566.1	523.6	487.9	471.5	456.1	449.2	453.4	450.8	458.7	459.0	462.1	456.1	446.2	442.1	434.6	417.0	393.5	356.6	316.9	275.8	243.3	221.7	201.1	161.8	130.3	108.6	90.55	74.02	59.71	44.79	35.82	33.29	43.94	184.1	848.6	1029	135.5	5.890	4.180	3.945	3.948	4.027	4.176	4.097	4.174	4.165	4.207	4.337	4.192	4.031	4.098	3.807	3.882	4.094	3.613	3.505	3.586	3.346	3.696	3.444	3.299	3.330	3.592
470.0	301.7	479.7	1413	2295	1041	812.4	828.0	821.7	808.2	773.2	737.5	685.5	631.8	569.7	510.4	471.8	439.1	424.7	410.6	405.0	402.2	400.3	404.7	406.7	407.3	403.6	396.9	392.7	387.8	379.6	358.6	327.8	293.6	258.4	229.2	204.5	188.5	166.9	135.8	111.4	93.40	76.72	62.57	48.30	37.17	28.90	26.02	53.18	224.3	646.6	827.6	327.6	12.20	4.128	3.880	3.759	3.913	3.781	3.788	3.655	4.003	3.805	3.758	3.735	3.636	3.521	3.454	3.582	3.363	3.429	3.336	3.249	3.306	3.314	3.272	3.159	3.277
475.0	273.0	402.1	739.6	2218	1828	768.9	742.9	744.0	729.2	695.6	665.0	617.1	562.3	509.2	462.0	418.4	391.4	373.7	361.1	357.2	353.9	352.4	357.0	357.8	358.0	356.6	352.0	345.2	344.0	338.8	322.7	296.9	266.3	237.8	213.4	190.7	171.2	158.1	140.2	115.0	94.11	79.36	64.14	50.27	40.19	30.52	23.65	25.55	60.33	153.2	345.3	870.2	203.7	14.70	4.051	3.712	3.821	3.752	3.416	3.697	3.721	3.640	3.422	3.509	3.645	3.334	3.183	3.044	3.076	2.997	3.061	3.088	3.004	3.058	2.866	2.895	3.057
480.0	248.3	374.4	547.0	1513	2579	868.5	686.4	691.1	685.1	647.1	612.9	571.9	514.8	472.9	427.8	391.1	361.4	344.3	327.8	325.1	317.3	318.1	322.3	323.7	325.2	325.4	321.3	316.4	315.8	310.6	298.0	275.0	249.4	225.3	204.7	180.5	162.6	147.6	137.7	118.6	95.56	80.19	65.20	51.82	41.16	32.31	24.97	20.66	25.00	43.35	88.97	451.8	946.5	181.1	8.091	3.825	3.524	3.608	3.236	3.611	3.630	3.395	3.401	3.298	3.233	3.027	2.974	2.937	2.944	2.864	2.803	2.783	2.803	2.942	2.625	2.692	2.742
485.0	226.4	372.7	479.3	890.4	2666	1357	640.9	640.5	634.1	610.9	580.9	541.1	491.4	441.3	399.9	363.6	337.5	321.9	307.4	299.3	294.6	294.7	296.3	297.0	299.5	298.1	293.6	293.6	293.6	287.0	279.3	257.1	236.3	212.7	193.5	174.0	155.6	139.1	130.1	120.0	98.55	79.47	66.56	53.63	42.81	34.10	26.84	20.60	18.43	19.81	27.78	121.2	677.5	808.4	29.15	5.254	3.845	3.370	3.107	3.409	3.452	3.178	3.043	3.175	3.011	2.616	2.751	2.855	2.660	2.556	2.723	2.748	2.710	2.834	2.692	2.644	2.564
490.0	213.0	358.7	440.9	588.0	1706	2356	794.1	589.5	582.5	558.0	532.9	494.3	448.8	403.1	364.0	329.3	305.6	291.1	278.4	269.8	264.1	263.6	266.7	268.4	267.4	270.2	264.8	264.8	265.8	261.1	252.0	235.0	218.5	197.9	181.5	163.3	147.0	131.9	121.2	113.2	102.2	82.49	66.39	54.30	44.01	35.48	28.69	22.68	18.47	15.98	16.00	35.35	179.9	483.7	675.6	289.9	12.81	3.819	3.332	3.304	3.054	3.119	2.979	2.804	2.809	2.860	2.642	2.630	2.667	2.456	2.592	2.485	2.434	2.466	2.351	2.541	2.303
495.0	185.3	326.0	420.6	476.6	820.3	2368	1555	548.0	531.1	507.4	482.5	453.5	401.8	366.7	325.3	294.8	274.0	261.9	248.3	239.8	234.8	234.1	235.9	236.4	237.6	235.6	235.4	236.4	235.8	235.7	226.5	212.7	195.6	179.1	164.2	150.4	136.7	122.6	112.7	102.3	96.66	85.37	67.49	54.15	45.39	36.58	30.24	24.44	19.77	17.15	14.72	17.24	48.43	116.3	316.4	814.8	224.2	14.80	3.523	3.165	2.843	2.840	2.819	2.751	2.527	2.636	2.437	2.576	2.329	2.365	2.351	2.289	2.386	2.350	2.356	2.293	2.149
500.0	187.6	274.3	416.9	414.7	531.7	1607	2377	663.3	480.3	467.4	442.6	411.9	376.2	341.6	301.5	268.2	249.7	233.2	225.5	222.1	212.3	212.5	212.4	213.7	215.5	212.2	209.1	211.1	213.5	211.8	204.4	195.0	180.2	166.1	152.5	141.5	127.7	116.7	105.1	95.90	88.88	83.84	69.07	54.43	45.10	37.71	30.75	25.16	21.79	18.29	15.56	14.30	19.38	34.06	81.94	424.9	823.5	189.9	8.204	3.256	2.932	2.685	2.810	2.682	2.622	2.389	2.429	2.376	2.152	2.158	2.123	2.167	2.252	2.090	2.186	2.107	2.092
505.0	164.1	245.1	381.8	406.0	438.2	891.0	2631	1231	437.5	434.2	407.7	376.2	346.2	309.2	275.2	246.4	230.0	213.5	205.5	198.1	192.4	192.3	191.8	195.1	192.2	190.4	192.1	188.3	192.6	192.3	186.7	177.8	164.8	153.0	139.1	130.0	120.2	109.7	99.78	89.74	82.32	76.36	69.26	55.48	44.87	36.84	31.38	26.30	22.32	19.11	16.14	14.37	14.16	16.37	26.12	114.6	549.0	744.2	31.63	4.466	2.990	2.557	2.639	2.378	2.352	2.315	2.227	2.126	2.149	2.071	2.115	2.010	1.938	1.911	2.037	1.958	1.930
510.0	130.2	204.2	326.3	389.8	386.8	495.5	1728	2509	531.2	384.9	363.8	334.9	302.6	273.3	247.0	215.9	202.3	189.1	179.2	175.5	170.1	167.6	166.3	168.4	167.6	166.2	165.9	164.9	166.9	168.8	163.7	156.4	146.3	134.8	123.4	116.2	107.0	99.01	89.06	82.41	74.54	66.87	62.77	55.89	44.52	36.51	30.52	25.82	22.20	19.35	16.74	14.84	13.70	12.94	14.12	32.87	145.0	429.0	562.3	132.6	11.54	2.765	2.494	2.265	2.274	2.179	1.997	1.974	1.992	1.906	1.933	1.936	1.911	1.870	1.782	1.782	1.767
515.0	128.7	174.4	258.1	363.1	351.7	352.1	738.7	2703	1190	338.2	317.3	294.0	269.6	236.3	213.9	189.4	173.8	164.1	156.2	149.6	146.9	143.8	143.3	145.5	143.4	141.5	142.3	142.7	143.5	144.7	143.1	135.0	127.3	117.5	108.5	101.4	94.83	86.63	79.20	73.34	66.18	59.86	54.04	52.02	44.78	36.29	29.08	25.37	21.49	19.41	16.86	15.48	13.85	12.66	11.83	14.98	38.50	101.6	239.7	601.3	216.6	13.06	2.682	2.300	2.141	2.053	1.867	1.718	1.760	1.791	1.761	1.777	1.726	1.662	1.519	1.758	1.660
520.0	117.4	153.6	217.6	326.2	340.1	302.2	402.8	1818	2102	390.7	286.5	265.1	237.8	210.3	190.1	170.3	155.0	145.2	138.4	134.4	129.3	126.4	125.1	128.2	127.9	125.9	127.0	128.1	126.9	127.2	125.8	120.3	114.1	104.6	97.66	91.69	85.75	78.86	73.84	66.80	60.11	54.88	49.28	46.58	43.73	36.26	29.31	24.73	20.95	18.44	16.56	15.23	13.86	12.19	11.37	10.98	15.18	28.13	60.93	307.4	607.2	175.3	7.266	2.295	2.102	1.937	1.735	1.647	1.710	1.562	1.593	1.562	1.590	1.529	1.561	1.523	1.593
525.0	108.1	145.2	201.2	274.6	338.4	278.2	303.0	906.8	2607	744.7	265.8	245.1	220.4	193.5	173.1	151.8	138.4	131.3	124.9	119.9	115.2	114.2	111.3	113.2	114.6	113.2	112.3	111.6	111.6	115.3	112.6	107.0	101.9	93.70	88.62	82.69	77.38	70.27	65.88	61.60	55.00	50.13	45.31	40.18	40.22	37.39	28.65	23.30	20.12	17.36	15.80	14.77	13.55	12.19	10.78	9.679	9.412	11.58	18.04	80.42	377.0	547.5	32.14	3.526	2.098	1.829	1.764	1.582	1.578	1.591	1.608	1.419	1.434	1.407	1.557	1.452	1.373
530.0	98.31	130.1	175.4	215.3	297.6	274.0	250.4	401.6	1793	1833	329.6	210.9	190.9	167.6	150.1	132.1	119.1	113.0	107.5	104.4	99.90	97.70	97.38	96.12	97.04	96.99	96.05	96.11	98.73	98.44	98.09	92.63	88.24	82.25	77.31	72.30	67.83	62.45	58.50	54.42	48.92	44.47	40.04	36.15	34.15	33.13	28.94	23.19	18.73	16.72	14.76	13.92	12.78	11.70	10.50	9.460	8.201	7.706	8.318	21.65	97.26	294.8	404.8	132.2	11.21	1.800	1.687	1.544	1.424	1.449	1.440	1.340	1.294	1.326	1.378	1.339	1.318
535.0	83.87	110.6	147.5	182.6	231.2	272.6	222.8	246.4	678.8	2412	904.9	184.0	163.4	144.7	127.0	112.8	103.6	98.49	92.17	86.90	85.45	86.17	81.96	81.86	80.90	80.82	80.90	80.56	81.94	83.30	81.22	79.04	74.84	70.14	66.39	61.28	58.64	54.20	50.91	46.90	42.12	38.72	35.01	31.58	28.22	27.17	26.85	23.50	18.35	15.47	13.95	12.90	11.68	11.18	10.12	8.890	7.673	6.876	6.242	8.673	25.04	68.96	158.7	424.5	206.9	12.35	1.800	1.530	1.470	1.323	1.262	1.336	1.265	1.181	1.231	1.391	1.139
540.0	83.83	107.3	138.6	157.2	183.7	256.9	209.2	194.7	302.5	1715	1798	204.5	145.4	127.4	113.5	100.5	91.87	86.34	80.64	77.15	75.44	75.11	71.66	72.58	71.38	70.19	70.13	71.03	71.97	72.75	70.67	68.81	64.42	61.96	57.82	55.14	52.08	47.75	44.70	40.85	37.54	35.81	31.40	28.02	26.03	23.85	22.29	22.64	18.59	14.55	13.18	11.69	10.48	10.33	9.093	8.541	7.336	6.328	5.806	5.667	8.636	18.23	39.42	202.0	439.1	158.9	6.153	1.460	1.392	1.281	1.325	1.187	1.212	1.105	1.158	1.301	1.338
545.0	80.08	102.7	123.4	138.6	156.2	219.1	217.3	170.1	191.5	803.0	2466	444.2	127.1	112.8	97.37	88.29	80.72	75.16	69.85	69.11	66.74	64.69	63.27	63.28	61.95	61.34	60.84	62.65	63.85	63.44	62.73	59.97	57.67	55.44	50.85	49.19	45.16	42.53	39.98	36.16	34.01	30.90	28.13	25.71	23.42	21.56	19.25	20.37	18.21	14.35	12.06	10.82	9.632	9.523	8.551	8.560	7.111	5.930	5.513	4.749	4.806	6.817	11.27	51.61	248.1	397.4	32.13	2.781	1.313	1.233	1.421	1.092	1.119	1.193	1.229	1.116	1.168
550.0	81.65	95.20	110.0	120.1	129.0	160.1	211.5	155.0	144.6	300.3	1677	1487	151.8	93.86	83.28	73.08	68.76	62.20	59.16	58.55	54.78	53.65	52.77	52.42	51.39	52.09	51.87	51.19	53.00	53.71	51.37	50.03	47.31	45.29	42.38	40.34	38.33	35.40	33.68	31.11	29.26	26.50	23.70	21.43	19.98	18.10	16.43	16.42	16.13	14.01	11.42	9.872	8.637	8.261	7.530	7.228	6.804	5.723	4.900	4.169	3.830	4.101	4.898	13.47	62.07	195.2	242.7	124.9	10.97	1.314	1.154	1.070	1.002	1.030	1.075	0.926	1.041
555.0	79.87	88.11	95.68	101.2	107.7	118.4	176.2	158.9	119.4	152.1	567.1	2122	569.7	77.70	68.39	61.30	56.52	50.95	48.32	46.88	45.12	42.03	42.30	42.70	41.91	40.80	41.19	40.84	41.85	42.08	42.00	40.20	38.81	37.17	33.71	32.30	30.75	28.46	27.12	25.20	23.37	21.56	19.88	17.72	16.88	14.83	13.43	13.02	12.46	12.44	10.87	8.450	7.560	7.073	6.569	6.196	5.792	5.210	4.646	3.974	3.510	3.207	3.330	4.823	15.58	45.11	91.52	272.6	179.3	13.07	1.263	1.079	0.985	0.913	1.022	0.840	0.968
560.0	75.35	81.15	89.58	88.72	88.18	97.22	133.5	164.1	108.1	108.9	207.5	1510	1307	92.78	58.92	52.49	47.87	42.50	41.07	40.10	37.39	36.26	36.40	36.23	35.37	33.37	34.69	34.26	34.72	35.65	34.61	33.83	31.69	30.18	28.87	26.73	25.94	23.76	22.93	21.06	20.05	18.77	17.30	15.32	14.45	12.91	11.82	10.99	10.05	10.47	10.02	8.372	6.695	6.474	5.790	5.074	5.259	4.795	4.330	3.794	3.135	2.798	2.719	2.992	5.131	11.56	22.42	115.5	278.3	126.3	6.457	1.234	0.970	0.961	0.901	0.872	0.935
565.0	68.05	83.23	87.36	86.42	78.16	83.42	101.8	157.2	104.7	90.35	113.3	653.9	2024	158.7	52.54	44.80	41.39	36.92	35.52	33.59	32.71	31.35	30.25	30.11	30.21	28.67	29.52	29.82	28.25	30.05	29.29	28.73	26.39	25.42	24.22	22.63	21.74	20.84	19.02	18.21	16.47	15.93	14.88	13.43	12.12	11.27	10.40	9.194	8.600	8.399	8.656	7.804	6.160	5.662	5.370	4.759	4.721	4.205	3.778	3.754	3.126	2.711	2.436	2.562	2.701	4.131	6.406	28.61	133.2	255.0	33.38	2.981	1.115	0.942	0.832	0.830	0.804
570.0	68.96	86.11	81.10	74.80	65.00	70.07	73.27	119.5	118.1	76.81	81.08	214.9	1398	1035	71.00	36.38	32.85	30.50	28.04	26.90	26.21	24.93	25.29	24.22	23.77	22.96	23.02	24.37	23.40	23.76	23.65	23.10	21.49	20.45	19.51	18.61	17.78	16.65	15.57	15.05	13.96	12.92	12.12	11.00	10.22	9.304	8.574	7.927	7.148	6.656	6.740	7.071	5.984	5.052	4.401	4.199	4.068	3.710	3.216	3.263	3.037	2.582	2.250	2.249	2.032	2.321	2.769	7.684	32.72	107.7	166.1	95.91	11.41	1.159	0.850	0.816	0.760
575.0	64.23	83.34	73.37	71.07	55.84	58.60	59.12	81.94	126.0	81.07	68.01	95.69	438.4	1554	340.3	30.28	26.52	23.56	22.34	21.51	20.70	19.96	19.84	19.31	19.09	18.10	18.59	19.07	18.84	18.92	18.49	17.85	16.49	16.51	15.22	14.65	14.17	13.53	12.83	12.06	11.29	10.56	9.674	9.010	8.237	7.693	6.918	6.663	5.732	5.597	5.100	5.553	5.336	4.880	4.017	3.656	3.403	3.108	2.774	2.522	2.780	2.729	2.080	2.088	1.895	1.882	2.009	3.050	8.436	25.21	51.01	151.0	128.4	13.80	0.943	0.832	0.768
580.0	75.16	74.56	70.96	62.00	50.45	50.98	52.32	61.63	115.9	99.97	65.17	66.15	141.4	1079	888.2	40.67	23.40	21.06	19.59	18.18	17.23	16.63	16.71	15.64	16.48	14.89	15.92	16.17	15.63	15.83	15.34	15.48	14.38	13.58	12.92	12.14	11.60	11.08	10.78	10.17	9.270	8.834	8.250	7.552	6.942	6.395	5.900	5.939	4.890	4.724	4.389	4.248	4.626	4.393	3.763	3.140	2.920	2.861	2.630	2.397	2.353	2.466	2.335	2.031	1.808	1.607	1.740	1.826	3.001	6.833	12.54	55.70	163.9	96.64	6.844	0.873	0.757
585.0	77.72	72.85	70.67	59.31	48.61	45.02	46.03	53.38	87.55	113.2	64.15	55.62	68.82	442.7	1345	100.9	20.52	17.18	16.99	15.73	14.48	14.65	13.66	13.48	13.91	13.12	13.40	13.57	13.27	13.36	13.17	12.83	12.46	11.28	10.77	10.42	9.884	9.563	9.023	8.686	7.970	7.881	6.835	6.550	6.087	5.669	5.148	4.981	4.166	4.122	3.711	3.747	3.853	4.298	3.886	2.839	2.616	2.708	2.123	2.315	2.026	2.152	2.309	1.974	1.663	1.517	1.527	1.630	1.765	2.653	3.832	13.93	67.89	155.0	34.27	3.318	0.838
590.0	69.90	71.10	63.59	54.65	42.01	42.09	41.04	45.61	61.32	109.3	74.89	53.93	50.48	135.2	888.0	622.9	32.28	14.78	13.80	12.96	12.58	11.84	11.86	10.99	11.26	10.96	10.43	11.18	10.58	11.32	10.81	10.50	10.05	9.296	8.803	8.411	7.821	7.738	7.369	6.921	6.524	6.245	5.986	5.338	4.976	4.799	4.272	4.032	3.619	3.446	3.075	3.031	2.854	3.365	3.404	2.951	2.423	2.237	2.003	1.875	1.753	1.872	1.864	1.910	1.601	1.466	1.497	1.504	1.382	1.703	1.822	4.001	16.40	57.41	97.92	68.77	11.20
595.0	68.45	65.58	59.40	49.22	38.77	36.99	37.98	41.78	47.73	82.57	92.09	53.88	43.49	55.67	268.2	956.8	96.50	12.62	10.77	10.20	10.37	10.01	9.261	9.099	9.027	9.248	8.656	8.796	8.524	8.574	9.161	8.584	8.053	7.478	7.021	6.772	6.396	6.256	6.173	5.659	5.113	5.205	4.727	4.494	4.404	3.978	3.680	3.410	3.135	2.922	2.595	2.558	2.327	2.365	2.707	2.828	2.246	1.969	1.729	1.556	1.551	1.615	1.524	1.629	1.679	1.509	1.353	1.227	1.298	1.454	1.261	1.840	4.399	13.48	27.43	82.83	90.39
600.0	74.38	71.19	59.78	44.82	35.67	36.34	38.36	37.54	42.52	60.22	102.0	60.63	42.12	38.01	80.84	668.7	502.4	18.76	9.862	9.205	8.689	8.887	7.896	7.995	7.477	7.785	7.551	7.305	7.399	7.374	7.802	7.247	6.691	6.446	5.856	5.523	5.427	5.372	4.977	4.990	4.245	4.328	4.100	3.781	3.440	3.256	3.177	3.023	2.634	2.589	2.261	2.140	2.007	2.112	2.161	2.348	2.224	1.945	1.514	1.413	1.554	1.497	1.375	1.359	1.460	1.584	1.380	1.134	1.324	1.136	1.125	1.175	1.702	3.745	6.787	27.24	94.24
605.0	68.16	66.92	52.39	45.22	36.48	32.98	35.64	37.71	43.83	51.92	93.81	70.99	42.74	32.65	34.92	270.7	778.3	63.76	8.668	8.649	7.525	7.146	6.773	7.017	6.100	6.290	6.644	6.432	6.555	6.358	6.506	6.148	5.732	5.690	5.092	5.069	4.696	4.421	4.439	3.948	3.719	3.878	3.427	3.194	3.018	2.810	2.718	2.457	2.265	2.227	1.840	2.066	1.847	1.878	1.762	1.969	2.275	1.952	1.435	1.375	1.309	1.472	1.274	1.286	1.396	1.442	1.223	1.237	1.188	1.073	1.050	0.986	1.131	1.478	2.217	6.822	34.88
610.0	60.62	56.87	49.97	41.55	33.42	33.00	33.75	37.77	39.84	49.30	70.61	85.77	47.19	33.46	25.67	78.65	537.3	386.5	16.19	6.908	6.373	5.679	5.682	6.054	5.564	5.370	5.444	5.198	5.268	5.314	5.222	5.016	4.789	4.421	4.123	4.238	3.897	3.731	3.705	3.203	3.115	3.121	2.776	2.721	2.550	2.335	2.284	2.144	1.975	1.859	1.646	1.681	1.555	1.543	1.457	1.539	1.839	1.798	1.511	1.229	1.240	1.221	1.170	1.209	1.187	1.210	1.259	1.287	1.083	0.973	0.997	0.910	0.930	0.977	1.135	2.104	8.547
615.0	55.66	54.64	51.92	38.68	31.62	30.84	32.11	33.83	39.29	46.78	54.98	83.09	58.92	32.93	23.76	29.84	164.5	600.2	72.64	6.225	5.464	5.196	4.897	4.930	4.407	4.345	4.334	4.268	4.149	4.222	4.185	4.372	3.789	3.534	3.401	3.421	3.331	3.188	3.003	2.850	2.608	2.472	2.340	2.166	2.009	1.928	1.836	1.796	1.777	1.431	1.368	1.303	1.326	1.399	1.288	1.261	1.482	1.494	1.369	1.235	1.063	1.184	1.106	1.021	1.133	1.060	0.994	1.149	1.236	0.888	0.951	0.833	0.779	0.839	0.748	1.046	2.399
620.0	57.52	53.19	43.83	37.37	31.58	28.93	32.46	36.18	39.17	44.25	49.89	68.65	69.00	35.80	23.67	18.87	48.48	437.7	314.4	8.437	4.758	4.647	4.215	4.208	3.935	4.086	3.732	3.695	3.680	3.629	3.781	3.602	3.357	3.231	3.107	2.822	2.774	2.599	2.520	2.218	2.321	2.186	2.042	1.824	1.848	1.765	1.647	1.594	1.428	1.231	1.171	1.229	1.220	1.175	1.096	1.152	1.168	1.290	1.347	1.276	1.058	1.017	1.009	1.062	1.063	0.977	0.985	0.945	1.178	0.988	0.844	0.829	0.773	0.783	0.780	0.766	0.999
625.0	51.70	51.25	44.74	38.50	29.71	29.65	30.55	35.70	35.65	41.85	47.34	58.78	75.21	37.27	22.54	16.46	19.71	188.7	513.5	36.63	4.525	4.235	3.734	3.510	3.671	3.451	3.167	3.231	3.100	3.166	3.344	3.004	2.846	2.927	2.535	2.360	2.540	2.333	2.243	2.075	2.072	1.873	1.844	1.697	1.573	1.535	1.412	1.542	1.283	1.136	1.109	1.148	1.116	1.112	0.960	1.090	1.127	1.044	1.232	1.325	1.155	0.920	0.966	1.064	0.920	0.944	0.870	0.886	1.038	1.139	0.814	0.789	0.808	0.734	0.728	0.769	0.735
630.0	53.29	50.12	43.44	35.24	28.61	28.58	29.68	33.93	35.61	40.58	45.71	50.61	66.82	48.18	23.89	15.88	13.66	53.65	381.8	237.7	7.867	3.590	3.394	3.099	3.001	2.890	2.783	2.794	2.643	2.570	2.813	2.643	2.430	2.365	2.218	1.973	2.138	2.012	1.831	1.811	1.615	1.496	1.490	1.442	1.413	1.254	1.145	1.234	1.069	0.965	0.929	0.998	0.971	0.901	0.956	0.958	0.925	0.879	1.022	1.115	1.092	1.009	0.916	0.925	0.935	0.898	0.921	0.876	0.907	0.963	0.916	0.813	0.799	0.749	0.699	0.676	0.720
635.0	51.15	49.24	45.51	34.27	28.89	28.04	30.92	30.61	36.67	40.55	44.74	46.79	52.20	55.09	28.58	16.84	13.89	19.35	121.4	419.6	51.09	3.184	2.917	2.674	2.291	2.564	2.551	2.515	2.365	2.070	2.240	2.119	2.109	2.048	1.731	1.567	1.772	1.844	1.604	1.481	1.382	1.297	1.278	1.291	1.192	1.024	0.926	0.968	1.008	0.919	0.807	0.768	0.881	0.799	0.916	0.856	0.890	0.875	0.922	0.915	1.021	0.936	0.896	0.821	0.831	0.833	0.778	0.817	0.749	0.842	0.880	0.826	0.850	0.699	0.714	0.607	0.738
640.0	51.80	44.75	44.61	33.18	27.75	27.31	31.02	31.61	35.52	40.57	44.60	46.39	45.25	57.12	33.38	18.98	14.69	13.02	36.35	337.0	193.7	4.994	2.654	2.677	2.383	2.260	2.177	1.974	2.079	2.047	1.813	2.033	1.944	1.714	1.602	1.511	1.459	1.579	1.310	1.339	1.185	1.208	1.152	1.167	1.121	1.083	0.868	0.966	0.908	0.809	0.736	0.765	0.756	0.765	0.798	0.742	0.831	0.809	0.901	0.841	0.962	0.890	0.820	0.718	0.795	0.736	0.680	0.844	0.772	0.822	0.869	0.897	0.967	0.686	0.743	0.637	0.706
645.0	56.88	49.99	41.89	37.36	29.38	28.43	29.07	30.01	36.16	40.78	44.09	45.32	43.67	52.08	40.71	21.26	16.47	12.53	14.59	156.3	343.2	19.05	2.680	2.536	2.233	1.998	2.108	1.831	1.961	1.725	1.711	1.860	1.785	1.615	1.574	1.388	1.228	1.431	1.100	1.209	1.232	1.104	1.077	1.047	0.982	0.883	0.824	0.852	0.828	0.743	0.659	0.829	0.691	0.758	0.723	0.649	0.811	0.744	0.735	0.853	0.779	0.871	0.838	0.793	0.785	0.733	0.709	0.766	0.850	0.892	0.685	0.818	0.899	0.815	0.698	0.642	0.698
650.0	54.27	51.89	43.56	39.13	29.54	29.53	26.24	32.15	35.54	36.91	42.80	44.97	43.21	45.83	46.54	23.58	17.65	12.90	10.04	49.98	348.2	63.42	2.615	2.046	1.995	1.916	1.935	1.608	1.697	1.699	1.728	1.531	1.722	1.448	1.292	1.347	1.093	1.158	1.096	1.167	1.070	0.924	0.925	0.986	0.876	0.743	0.753	0.817	0.780	0.692	0.604	0.751	0.625	0.647	0.768	0.771	0.753	0.706	0.741	0.741	0.670	0.774	0.803	0.823	0.799	0.705	0.727	0.777	0.727	0.795	0.740	0.765	0.870	0.883	0.727	0.699	0.708
