Sample:	'1
File name:	g2025082003ŒÂ¡˙Ã√¥Â.FD3
Run date:	'16:17:28, 08/20/2025
Operator:	Administrator
Comment:	'

Instrument
Model:	F-2700 FL Spectrophotometer
Serial number:	23B8-004
ROM Version:	4J14000 07

Instrument parameters
Measurement type:	3-D scan
Data mode:	Fluorescence
EX  Start WL:	220.0 nm
EX  End WL:	600.0 nm
EX Sampling interval:	5.0 nm
EM  Start WL:	230.0 nm
EM  End WL:	650.0 nm
EM Sampling interval:	5.0 nm
Scan speed:	12000 nm/min
EX Slit:	5.0 nm
EM Slit:	5.0 nm
PMT Voltage:	700 V
Response:	Auto 
Corrected spectra:	Off
Contour interval:	50.000

Peak integration
Integration method:	Rectangular
Sensitivity:	1
Threshold:	1.000

Peaks
No.	ApexEX/EM(nm)	Height(Data)
1	225.0/615.0	40.29
2	230.0/580.0	56.47
3	230.0/605.0	48.63
4	230.0/640.0	53.42
5	235.0/575.0	50.76
6	240.0/265.0	314.4
7	240.0/340.0	2931
8	240.0/525.0	288.5
9	245.0/270.0	323.0
10	245.0/535.0	248.9
11	250.0/275.0	424.5
12	250.0/550.0	198.4
13	255.0/280.0	529.2
14	255.0/565.0	159.0
15	260.0/575.0	136.3
16	265.0/585.0	126.2
17	270.0/300.0	1436
18	270.0/600.0	127.6
19	275.0/610.0	117.0
20	280.0/625.0	99.32
21	300.0/340.0	4937
22	485.0/340.0	12.17
23	495.0/270.0	1.970
24	505.0/275.0	2.902
25	510.0/280.0	2.982
26	520.0/285.0	3.896
27	540.0/295.0	6.007
28	545.0/300.0	7.400

Data points
	220.0	225.0	230.0	235.0	240.0	245.0	250.0	255.0	260.0	265.0	270.0	275.0	280.0	285.0	290.0	295.0	300.0	305.0	310.0	315.0	320.0	325.0	330.0	335.0	340.0	345.0	350.0	355.0	360.0	365.0	370.0	375.0	380.0	385.0	390.0	395.0	400.0	405.0	410.0	415.0	420.0	425.0	430.0	435.0	440.0	445.0	450.0	455.0	460.0	465.0	470.0	475.0	480.0	485.0	490.0	495.0	500.0	505.0	510.0	515.0	520.0	525.0	530.0	535.0	540.0	545.0	550.0	555.0	560.0	565.0	570.0	575.0	580.0	585.0	590.0	595.0	600.0
230.0	14.23	299.0	883.5	299.1	12.70	3.581	3.060	2.352	2.308	2.222	2.365	2.470	2.484	2.466	2.080	1.946	1.971	1.789	1.470	1.121	0.874	0.776	0.664	0.563	0.583	0.514	0.478	0.417	0.547	0.471	0.439	0.329	0.354	0.332	0.335	0.358	0.277	0.273	0.211	0.219	0.234	0.191	0.219	0.188	0.175	0.191	0.362	1.766	3.695	3.138	1.506	0.336	0.114	0.163	0.062	0.113	0.110	0.116	0.173	0.105	0.082	0.091	0.084	0.053	0.059	0.109	0.123	0.067	0.111	0.094	0.056	0.070	0.063	0.054	0.083	0.093	0.069
235.0	33.39	89.70	643.1	1218	434.5	26.49	3.208	2.901	3.108	3.145	2.321	2.254	2.587	3.201	1.857	2.010	1.880	1.921	1.376	1.107	0.885	0.711	0.637	0.507	0.608	0.511	0.482	0.438	0.442	0.408	0.396	0.356	0.303	0.365	0.314	0.215	0.299	0.303	0.188	0.229	0.253	0.147	0.253	0.252	0.237	0.177	0.240	0.547	1.432	3.238	5.702	7.094	3.424	0.856	0.127	0.127	0.146	0.097	0.171	0.127	0.120	0.062	0.085	0.083	0.095	0.096	0.164	0.084	0.136	0.080	0.055	0.104	0.080	0.052	0.074	0.053	0.075
240.0	51.32	59.88	199.9	1103	1657	367.7	17.41	3.598	3.298	4.016	2.561	2.498	2.624	2.596	2.301	2.301	2.202	1.830	1.448	1.303	1.020	0.628	0.741	0.649	0.554	0.602	0.510	0.428	0.422	0.426	0.420	0.450	0.308	0.370	0.263	0.168	0.280	0.223	0.224	0.228	0.250	0.243	0.216	0.247	0.297	0.256	0.239	0.246	0.441	1.018	3.243	8.383	11.44	9.383	3.462	0.617	0.146	0.131	0.137	0.113	0.132	0.139	0.106	0.049	0.034	0.055	0.168	0.130	0.127	0.057	0.116	0.088	0.096	0.085	0.073	0.050	0.099
245.0	43.63	102.5	82.79	393.8	1812	1884	271.8	8.258	4.404	4.060	3.384	3.100	3.061	2.592	2.517	2.494	2.262	1.989	1.521	1.530	0.919	0.781	0.794	0.609	0.690	0.544	0.459	0.608	0.554	0.523	0.378	0.379	0.206	0.305	0.368	0.277	0.295	0.260	0.185	0.238	0.247	0.215	0.178	0.264	0.217	0.269	0.397	0.303	0.286	0.393	0.908	2.685	7.665	14.52	15.79	8.944	2.674	0.301	0.148	0.121	0.158	0.134	0.096	0.077	0.082	0.124	0.103	0.128	0.187	0.102	0.076	0.114	0.112	0.063	0.103	0.069	0.115
250.0	23.46	78.55	152.9	153.9	582.8	1846	2516	981.8	56.37	5.431	3.313	3.740	2.803	2.734	3.198	2.403	2.444	2.071	1.602	1.351	1.076	0.887	0.707	0.715	0.734	0.722	0.579	0.540	0.481	0.513	0.475	0.358	0.340	0.245	0.277	0.247	0.297	0.295	0.244	0.254	0.195	0.185	0.213	0.237	0.197	0.212	0.296	0.387	0.604	0.586	0.573	0.788	1.911	4.426	8.911	13.83	18.55	17.01	10.06	3.010	0.440	0.173	0.119	0.131	0.091	0.133	0.216	0.077	0.103	0.131	0.159	0.092	0.103	0.102	0.134	0.077	0.134
255.0	14.31	22.96	109.1	243.6	200.7	467.3	1860	4089	1411	58.48	5.806	4.968	4.515	3.162	3.593	2.621	2.994	2.260	1.844	1.407	1.013	0.855	0.864	0.856	0.955	0.617	0.743	0.655	0.607	0.551	0.601	0.318	0.381	0.307	0.351	0.298	0.282	0.305	0.217	0.254	0.227	0.239	0.230	0.319	0.191	0.272	0.235	0.201	0.331	0.654	1.095	1.044	0.931	1.197	2.238	3.417	6.203	14.41	28.16	29.11	16.98	3.673	0.363	0.176	0.244	0.104	0.183	0.130	0.141	0.127	0.065	0.096	0.109	0.116	0.089	0.166	0.128
260.0	10.34	13.55	45.43	216.6	256.9	150.0	560.3	3156	4690	274.7	28.55	6.259	5.308	4.101	3.412	2.916	2.444	2.428	1.998	1.633	1.279	0.842	1.013	0.811	0.857	0.772	0.785	0.746	0.731	0.427	0.644	0.413	0.344	0.384	0.503	0.335	0.350	0.282	0.269	0.252	0.232	0.180	0.293	0.204	0.275	0.200	0.157	0.221	0.226	0.293	0.666	1.261	1.440	0.941	0.747	0.937	1.643	3.785	11.00	24.70	38.39	27.94	13.99	2.092	0.296	0.143	0.148	0.158	0.166	0.088	0.111	0.032	0.154	0.136	0.053	0.152	0.152
265.0	16.15	11.96	18.59	99.63	314.4	203.7	155.0	1029	4617	4750	221.8	13.32	6.846	4.374	4.455	3.356	2.769	2.768	2.173	1.610	1.305	0.969	1.176	0.879	0.987	0.811	0.628	0.632	0.658	0.441	0.486	0.480	0.468	0.448	0.440	0.279	0.363	0.369	0.410	0.249	0.355	0.315	0.255	0.268	0.244	0.192	0.191	0.179	0.150	0.221	0.297	0.598	1.298	1.829	1.391	0.705	0.556	1.072	2.739	6.850	18.17	34.37	45.53	25.38	8.676	0.855	0.239	0.133	0.114	0.127	0.080	0.137	0.145	0.214	0.120	0.132	0.189
270.0	19.71	18.64	21.07	35.81	143.7	323.0	245.7	275.3	1425	4402	5732	862.7	53.65	7.134	5.226	3.901	3.111	2.992	2.679	1.942	1.473	1.207	1.163	0.927	0.901	0.862	0.702	0.710	0.648	0.610	0.501	0.630	0.577	0.451	0.473	0.427	0.336	0.305	0.303	0.308	0.252	0.297	0.233	0.311	0.274	0.266	0.226	0.205	0.216	0.232	0.216	0.321	0.546	0.900	1.498	1.970	1.818	0.928	0.954	1.774	4.364	9.410	18.99	30.26	32.83	37.35	17.24	7.338	0.918	0.218	0.154	0.137	0.101	0.237	0.163	0.160	0.146
275.0	41.54	42.64	44.50	32.56	47.25	140.8	424.5	290.7	362.9	1098	3848	8308	1204	53.04	8.114	5.544	4.447	3.441	2.759	2.213	1.742	1.375	1.163	1.124	0.997	1.080	0.776	0.618	0.720	0.598	0.762	0.630	0.616	0.504	0.494	0.394	0.406	0.337	0.285	0.296	0.330	0.245	0.196	0.333	0.332	0.337	0.338	0.335	0.306	0.251	0.222	0.265	0.251	0.368	0.469	0.907	2.115	2.902	2.148	1.209	1.341	2.284	4.557	7.217	9.264	21.89	46.41	62.80	27.59	8.811	0.507	0.277	0.186	0.261	0.180	0.171	0.199
280.0	57.11	84.67	83.33	54.55	39.06	60.55	265.9	529.2	244.0	320.1	1129	6143	8277	852.9	24.81	7.497	5.111	3.896	3.136	2.673	1.684	1.416	1.497	1.375	1.020	0.991	0.913	0.721	0.895	0.533	0.786	0.634	0.478	0.537	0.465	0.387	0.398	0.369	0.397	0.345	0.247	0.227	0.373	0.325	0.353	0.453	0.386	0.465	0.407	0.336	0.325	0.290	0.269	0.262	0.328	0.429	0.867	1.852	2.982	2.899	1.568	0.999	1.373	2.057	2.623	5.574	14.93	37.54	59.27	35.60	21.73	4.315	0.340	0.294	0.185	0.133	0.215
285.0	109.1	159.0	154.8	110.4	62.48	55.75	130.5	476.6	515.8	243.2	409.9	1962	8066	6886	125.1	12.35	6.663	5.483	3.529	2.558	1.977	1.344	1.482	1.248	1.041	1.044	0.822	0.628	0.757	0.638	0.658	0.744	0.672	0.578	0.569	0.614	0.490	0.465	0.328	0.355	0.315	0.303	0.367	0.396	0.384	0.476	0.622	0.688	0.664	0.519	0.517	0.449	0.348	0.377	0.340	0.343	0.489	0.826	1.552	3.177	3.896	2.229	1.257	1.033	1.416	1.958	4.093	9.853	22.19	43.90	67.90	32.89	15.27	1.570	0.249	0.156	0.170
290.0	203.8	294.1	301.9	219.6	132.8	109.4	142.0	284.6	624.3	690.9	472.2	799.8	2547	6282	6898	1615	33.07	7.264	5.048	3.652	2.270	1.832	1.746	1.399	1.193	1.142	1.066	0.829	0.785	0.827	0.705	0.735	0.648	0.637	0.683	0.605	0.576	0.525	0.484	0.358	0.315	0.398	0.398	0.496	0.533	0.616	0.823	1.070	1.101	0.910	0.797	0.824	0.689	0.575	0.585	0.644	0.631	0.827	0.915	1.608	2.424	3.450	3.753	3.358	2.357	2.149	2.570	3.838	6.593	11.99	24.15	34.76	50.12	45.14	35.23	10.92	1.822
295.0	270.4	413.4	452.1	346.2	209.6	188.8	212.2	297.7	478.7	941.3	1069	800.3	1055	1729	4464	8745	699.5	32.17	6.953	5.089	3.430	2.610	2.289	1.802	1.494	1.100	1.422	1.052	1.068	0.822	0.758	0.784	0.786	0.799	0.780	0.730	0.574	0.552	0.640	0.530	0.461	0.417	0.420	0.663	0.599	0.882	1.094	1.388	1.469	1.228	1.113	1.325	1.054	0.990	0.951	0.917	0.949	1.061	1.288	1.692	1.722	2.219	3.006	4.941	6.007	5.128	3.650	3.502	4.143	5.080	7.414	9.078	12.97	20.54	48.42	70.12	33.80
300.0	305.1	490.3	572.4	430.7	280.4	243.7	281.8	367.6	511.8	830.4	1436	1139	865.9	754.1	1328	6373	5989	522.5	16.82	7.609	4.313	2.996	2.112	2.065	1.453	1.584	1.429	1.060	1.181	0.787	0.772	0.872	0.831	0.798	0.782	0.719	0.699	0.598	0.586	0.485	0.507	0.645	0.536	0.595	0.740	1.056	1.253	1.621	1.774	1.649	1.554	1.518	1.262	1.018	1.050	1.138	1.206	1.457	1.548	1.787	1.885	2.118	2.839	3.936	5.540	7.400	6.395	4.626	4.229	3.993	4.087	3.783	4.127	5.681	13.73	34.59	62.52
305.0	323.5	543.4	605.2	480.2	340.6	297.0	348.7	438.1	600.5	842.3	1348	1621	1032	633.2	534.2	1941	7266	4968	77.39	12.73	6.172	3.847	2.853	2.381	2.142	1.699	1.515	1.283	1.328	0.975	1.051	1.047	0.854	0.850	0.750	0.748	0.782	0.628	0.633	0.595	0.525	0.528	0.544	0.674	0.732	1.081	1.434	1.822	1.866	1.869	1.750	1.713	1.596	1.380	1.283	1.438	1.636	1.726	1.704	2.011	2.458	2.682	3.302	4.094	4.495	6.384	7.645	7.653	5.833	4.606	3.798	3.319	2.656	2.543	4.095	8.869	20.77
310.0	351.2	557.0	652.7	539.2	426.0	410.0	449.5	548.3	716.3	933.9	1251	1601	1522	868.6	524.1	702.8	2289	5622	5696	1344	31.50	7.613	4.138	2.978	2.501	2.006	1.700	1.613	1.249	1.194	1.173	1.103	0.881	0.871	0.765	0.783	0.897	0.704	0.694	0.623	0.591	0.618	0.629	0.684	0.751	1.090	1.449	1.900	2.038	1.980	1.827	1.891	1.811	1.793	1.794	1.796	2.054	2.244	2.369	2.539	3.113	3.249	3.983	4.446	4.968	5.455	6.446	7.163	7.621	7.243	5.674	4.319	3.250	2.873	2.743	3.607	6.255
315.0	398.0	631.0	800.2	790.1	691.2	775.6	744.6	770.1	937.1	1204	1468	1690	1874	1734	1039	931.4	1195	1887	4500	7874	512.4	37.41	8.583	4.626	3.460	2.251	2.139	2.050	1.641	1.567	1.205	1.197	1.070	1.048	0.848	0.982	0.917	0.764	0.774	0.750	0.738	0.581	0.815	0.836	0.854	1.216	1.609	2.082	2.328	2.386	2.639	2.957	3.289	3.297	3.059	3.470	3.443	3.155	3.351	3.611	4.009	4.335	4.819	5.308	6.010	6.333	7.084	7.560	7.974	8.769	9.479	8.873	7.145	6.105	5.935	5.882	6.199
320.0	488.1	771.5	1075	1238	1325	1328	1176	1087	1273	1582	1930	2201	2378	2615	2349	2026	2000	1850	2239	6597	4318	404.2	19.35	6.898	4.382	3.381	2.548	2.355	2.092	1.745	1.497	1.359	1.299	1.088	0.929	1.043	1.067	0.948	0.886	0.930	0.838	0.855	0.988	1.098	1.169	1.459	2.050	2.691	3.246	3.573	3.733	4.763	4.948	5.980	5.420	5.919	5.489	4.882	4.818	4.935	5.263	6.114	6.285	7.181	7.887	8.203	8.818	9.738	10.59	10.65	11.12	12.82	13.28	12.82	11.32	11.00	11.46
325.0	577.4	960.5	1360	1604	1766	1747	1491	1307	1548	1895	2286	2614	2849	3072	3304	2947	2771	2339	1944	2961	6613	3810	61.76	9.667	5.852	4.373	3.049	2.737	2.233	1.848	1.796	1.591	1.436	1.236	1.167	1.028	1.082	1.032	1.013	1.146	0.920	0.977	1.032	1.003	1.369	1.818	2.351	2.989	3.971	4.245	4.780	6.161	6.484	7.643	7.357	7.335	7.642	6.192	5.601	5.620	6.550	7.154	7.824	8.584	9.503	9.846	10.92	11.53	12.15	12.71	13.14	14.42	16.02	17.92	17.14	16.50	16.52
330.0	634.5	1076	1598	1932	2156	2111	1744	1488	1751	2119	2549	2927	3222	3471	3738	3777	3514	2848	2177	1961	2490	4903	5293	1098	19.75	5.918	4.182	3.402	2.898	2.222	1.964	1.937	1.571	1.409	1.304	1.273	1.110	1.202	1.066	1.097	1.004	1.027	1.234	1.256	1.533	1.990	2.530	3.519	4.637	5.078	5.684	7.664	8.209	9.318	8.902	8.655	8.524	7.279	6.357	6.633	7.104	8.226	8.767	9.920	10.49	11.26	12.25	12.80	13.57	14.38	15.59	16.61	17.87	19.13	20.47	20.93	21.49
335.0	723.1	1211	1889	2369	2699	2628	2121	1755	2024	2443	2928	3384	3783	4171	4444	4582	4610	3696	2739	2124	1274	1331	4318	6734	415.1	19.94	6.171	4.509	3.205	2.644	2.280	2.125	1.783	1.585	1.342	1.461	1.188	1.264	1.025	1.406	1.180	1.233	1.436	1.556	1.698	2.384	2.841	3.962	5.450	6.119	7.075	9.202	10.09	11.31	11.31	10.35	9.834	8.785	7.519	7.992	8.797	9.783	10.18	10.92	11.99	13.05	13.94	14.68	15.55	17.07	18.55	19.48	21.58	22.92	23.82	24.86	26.65
340.0	711.5	1293	2021	2574	2931	2817	2254	1878	2127	2546	3053	3551	4015	4437	4762	4844	4937	4178	3016	2268	1069	499.1	1261	5504	3557	333.5	10.34	5.503	4.159	3.177	2.543	2.039	2.013	1.659	1.570	1.512	1.141	1.384	1.211	1.272	1.255	1.253	1.272	1.485	1.727	2.429	3.153	4.371	5.417	6.457	7.493	9.917	11.23	12.17	12.11	11.24	10.99	9.454	8.341	8.332	9.011	9.702	10.43	11.07	12.75	13.43	14.35	15.60	16.67	17.88	18.95	21.17	22.15	24.44	26.20	26.15	27.19
345.0	706.4	1248	1953	2528	2911	2771	2231	1853	2111	2495	2973	3447	3897	4324	4644	4683	4720	4152	3085	2232	1017	337.9	384.0	1751	5803	3245	50.99	8.036	5.039	3.644	2.927	2.197	2.097	1.874	1.589	1.330	1.277	1.407	1.268	1.301	1.230	1.248	1.325	1.448	1.796	2.409	2.948	4.318	5.630	6.259	7.452	10.20	10.83	12.10	12.01	11.28	10.68	9.120	8.206	8.194	9.030	9.706	10.66	11.08	12.16	13.23	13.76	14.91	15.83	17.48	18.73	20.33	21.94	23.89	25.26	24.92	26.16
350.0	679.4	1187	1872	2435	2787	2693	2152	1800	2009	2365	2796	3232	3646	4077	4374	4417	4379	3809	3045	2255	1027	351.4	232.5	488.8	1841	4357	4206	964.8	17.09	4.976	3.569	2.810	2.203	2.009	1.616	1.453	1.321	1.294	1.209	1.179	1.113	1.186	1.297	1.366	1.841	2.197	2.673	3.998	5.373	5.758	6.913	9.424	10.54	11.54	11.48	10.67	10.41	8.801	8.028	7.889	8.458	9.123	10.27	10.70	11.76	12.69	13.18	13.74	15.16	16.50	17.47	18.84	21.24	22.51	23.39	24.10	24.72
355.0	636.3	1078	1771	2298	2687	2604	2097	1742	1933	2268	2641	3022	3438	3814	4104	4158	4113	3545	2817	2301	1125	419.2	260.9	252.2	507.3	1101	3462	5791	385.5	17.02	4.819	3.396	2.273	2.119	1.737	1.456	1.334	1.244	1.299	1.148	1.128	1.164	1.131	1.217	1.844	2.139	2.586	3.874	4.863	5.689	6.646	9.035	9.888	10.93	10.71	10.09	10.16	8.411	7.582	7.560	8.088	8.845	9.722	10.56	11.27	11.51	12.20	13.01	13.68	15.06	16.37	17.98	19.86	21.06	21.36	22.84	23.09
360.0	631.5	1023	1665	2142	2508	2434	1999	1686	1855	2145	2467	2803	3181	3519	3765	3839	3792	3282	2600	2134	1221	510.4	311.5	238.0	239.4	331.0	1008	4881	3334	305.0	9.125	4.523	2.903	2.306	1.796	1.498	1.404	1.257	1.073	1.419	1.194	1.143	1.175	1.326	1.695	1.896	2.534	3.335	4.305	5.360	6.021	8.279	9.622	10.46	10.19	9.720	9.510	8.348	7.622	7.195	7.905	8.248	9.029	9.892	10.44	11.06	11.65	12.46	13.32	14.27	15.29	16.75	17.88	19.91	19.88	21.15	21.84
365.0	553.2	951.9	1535	1986	2297	2266	1889	1611	1737	2003	2281	2588	2899	3211	3414	3479	3449	3000	2389	1940	1218	641.6	381.3	279.4	217.9	186.9	301.6	1577	5563	3036	47.48	6.962	4.192	2.931	1.979	1.595	1.594	1.305	1.259	1.170	1.199	1.111	1.140	1.448	1.657	1.758	2.441	3.026	4.373	4.876	5.646	7.671	8.924	9.612	9.768	9.160	9.080	7.718	6.939	6.836	7.769	8.050	8.762	9.179	9.615	9.893	10.79	11.62	12.17	13.37	13.98	15.17	16.46	17.65	17.84	19.02	19.90
370.0	502.2	872.5	1389	1808	2106	2099	1762	1529	1646	1858	2083	2337	2600	2843	3035	3075	3046	2680	2180	1774	1123	754.7	551.6	374.3	278.3	208.8	183.2	435.0	1782	4174	3987	906.6	15.65	4.238	2.896	1.901	1.692	1.329	1.251	1.289	1.175	1.154	1.174	1.239	1.415	1.720	2.198	2.905	3.856	4.530	5.296	7.274	8.163	8.737	8.634	8.278	8.385	7.304	6.700	6.580	7.311	7.676	8.025	8.337	8.873	8.964	9.470	10.24	10.82	11.72	12.44	13.64	14.87	15.65	16.27	16.45	17.15
375.0	456.6	822.4	1262	1691	1936	1912	1652	1463	1542	1711	1922	2113	2322	2522	2666	2703	2683	2401	1992	1656	1097	758.9	694.4	520.5	371.1	278.2	215.1	219.8	484.5	1065	3386	5517	333.4	15.18	4.155	2.783	2.114	1.542	1.408	1.233	1.199	1.018	1.124	1.240	1.354	1.769	2.197	3.015	3.649	3.910	4.825	6.516	7.387	7.814	7.716	7.607	7.664	6.853	6.520	6.667	6.783	7.028	7.465	7.850	8.280	8.311	8.918	9.332	10.01	10.75	10.98	12.08	12.89	13.78	13.96	14.79	15.00
380.0	441.6	782.0	1180	1577	1815	1800	1568	1415	1481	1617	1799	1962	2124	2279	2392	2422	2415	2186	1860	1566	1090	780.7	710.8	660.8	474.0	341.8	264.3	214.4	222.7	323.3	1004	4683	2903	258.9	8.188	3.628	2.597	1.723	1.548	1.408	1.231	1.162	1.111	1.119	1.326	1.616	1.965	2.608	3.309	3.781	4.579	6.060	6.741	7.706	7.653	6.894	7.207	6.582	6.467	6.180	6.297	6.661	6.827	7.186	7.875	7.624	8.317	8.736	8.952	9.957	10.13	11.21	11.56	12.75	12.62	13.55	13.75
385.0	419.9	728.1	1106	1456	1693	1689	1496	1362	1421	1531	1693	1802	1961	2092	2175	2187	2188	1996	1737	1479	1085	817.2	716.6	705.1	595.1	415.5	321.4	252.5	198.5	182.5	314.4	1506	4528	2572	39.83	5.649	3.062	2.202	1.631	1.284	1.312	1.156	1.152	1.290	1.383	1.420	1.840	2.703	3.104	3.601	4.324	5.865	6.466	7.082	7.218	6.477	6.657	6.097	5.974	5.976	6.046	6.169	6.369	6.731	7.585	6.982	7.940	7.841	8.005	8.664	9.637	9.962	11.07	11.34	11.20	11.92	12.25
390.0	407.8	689.4	1037	1368	1567	1558	1421	1295	1356	1433	1546	1642	1760	1865	1923	1935	1935	1793	1588	1390	1078	863.0	760.4	700.5	662.6	549.0	404.3	310.4	241.4	190.9	186.0	421.2	1418	3285	3086	726.1	13.12	3.307	2.355	1.568	1.456	1.256	1.199	1.227	1.292	1.518	1.884	2.603	2.893	3.469	3.946	5.378	5.924	6.494	6.298	6.373	6.683	6.177	5.784	5.739	5.847	5.890	5.979	6.178	6.747	6.593	6.924	7.173	7.240	7.955	8.377	8.665	9.449	9.820	10.31	10.56	11.16
395.0	380.9	658.9	981.4	1265	1467	1468	1346	1257	1287	1339	1422	1501	1602	1681	1705	1711	1727	1618	1465	1313	1071	897.0	809.7	735.1	666.1	637.5	534.4	388.8	302.6	238.3	195.9	206.1	384.7	826.6	2455	4066	285.0	13.28	3.548	2.387	1.794	1.336	1.337	1.362	1.295	1.577	1.718	2.448	2.826	3.329	3.702	5.261	5.348	6.237	5.985	5.860	6.085	5.859	5.495	5.376	5.500	5.746	5.893	5.929	5.969	6.405	6.471	6.627	7.037	6.889	7.603	7.789	8.402	8.713	9.347	9.760	10.13
400.0	359.6	622.2	940.8	1221	1398	1415	1306	1228	1240	1293	1347	1418	1491	1544	1571	1577	1585	1502	1375	1252	1056	914.1	840.3	767.2	684.7	641.7	617.7	474.4	356.8	286.0	231.1	186.5	173.4	241.8	700.4	3253	2445	232.7	7.181	3.060	2.123	1.303	1.449	1.255	1.364	1.447	1.764	2.416	2.937	3.339	3.713	4.764	5.125	6.014	5.620	5.608	6.067	5.609	5.134	5.402	5.408	5.486	5.637	5.995	5.848	5.989	5.973	6.635	6.761	6.982	6.780	7.327	7.477	8.286	8.552	8.580	9.104
405.0	380.8	586.3	924.1	1186	1342	1344	1256	1214	1199	1238	1288	1336	1410	1430	1459	1461	1460	1399	1305	1188	1042	920.6	854.3	788.8	715.2	653.8	628.2	564.9	419.1	332.4	264.7	205.6	146.6	124.5	204.2	995.3	3271	2211	36.33	4.908	2.551	1.689	1.569	1.306	1.464	1.544	1.642	2.366	2.744	3.119	3.584	4.628	5.316	5.492	5.178	5.426	6.004	5.471	5.291	4.951	5.223	5.276	5.792	5.512	5.350	5.702	5.656	5.881	6.021	6.363	6.466	6.860	7.210	7.338	7.581	8.208	8.490
410.0	344.5	581.9	871.6	1115	1265	1280	1202	1169	1168	1173	1221	1257	1294	1317	1330	1332	1332	1280	1211	1127	1005	911.0	856.3	804.1	739.4	674.8	623.1	590.2	513.0	393.8	309.0	238.5	168.8	122.7	110.8	266.6	980.3	2410	2446	640.7	12.11	2.652	1.904	1.639	1.490	1.564	1.671	2.273	2.563	3.004	3.486	4.387	4.990	5.082	5.295	5.271	5.406	5.278	5.428	4.998	5.134	5.212	5.339	5.157	5.232	5.283	5.242	5.392	5.461	5.903	6.013	6.425	6.601	6.949	6.936	7.297	7.588
415.0	335.4	544.8	826.4	1031	1193	1221	1165	1133	1117	1120	1137	1155	1194	1208	1208	1201	1198	1164	1110	1057	962.6	891.0	845.0	802.5	748.5	691.2	631.3	580.0	550.8	480.8	361.4	273.7	199.3	145.8	109.5	117.6	258.5	591.3	1701	3061	264.7	12.59	2.617	2.090	1.642	1.747	2.005	2.150	2.542	2.835	3.167	3.973	4.583	4.825	4.991	5.243	5.257	5.411	4.886	4.826	5.209	5.148	5.246	4.645	4.887	5.031	4.775	5.230	5.082	5.703	5.331	5.498	5.947	6.057	6.257	6.345	6.745
420.0	301.3	500.9	790.0	989.4	1133	1167	1139	1104	1080	1086	1091	1113	1126	1128	1119	1107	1107	1088	1043	996.9	919.4	863.4	827.6	795.7	743.0	696.9	637.6	584.1	543.0	522.0	414.5	300.8	222.8	164.1	122.6	94.93	104.7	163.8	466.0	2244	2211	221.6	6.210	2.529	1.886	1.853	1.840	2.160	2.557	2.675	3.047	3.938	4.211	4.590	4.602	4.883	5.115	4.997	4.880	4.769	4.634	4.850	4.893	4.684	4.617	4.956	4.640	4.760	4.760	5.053	4.969	5.262	5.486	5.845	6.179	5.810	6.375
425.0	294.1	478.4	745.7	958.8	1077	1121	1103	1072	1055	1065	1064	1063	1071	1059	1050	1031	1035	1015	985.2	949.6	883.0	833.9	806.1	776.4	741.2	693.9	648.6	590.3	539.2	513.7	463.0	338.4	244.5	183.7	139.3	101.8	80.41	75.55	131.5	658.3	2305	1984	34.58	4.232	2.492	2.002	1.737	2.041	2.573	2.594	2.928	3.955	4.238	4.365	4.504	4.639	4.850	4.764	4.574	4.520	4.739	4.551	4.688	4.701	4.773	5.013	4.509	4.422	4.488	4.653	4.852	4.864	5.199	5.157	5.691	5.516	6.058
430.0	311.0	450.1	702.6	907.0	1042	1074	1061	1052	1034	1026	1025	1008	1002	987.1	974.0	948.5	952.5	940.3	913.5	885.2	835.8	797.7	774.2	751.8	722.3	683.2	644.9	593.2	545.6	504.7	465.6	396.3	288.1	212.3	162.8	121.0	91.11	68.67	66.02	172.3	655.1	1723	1952	596.4	12.70	2.975	2.236	2.204	2.618	2.537	2.713	3.648	4.007	4.407	4.478	4.659	4.491	4.661	4.551	4.523	4.559	4.332	4.656	4.470	4.379	4.651	4.483	4.337	4.225	4.459	4.636	4.692	4.843	4.720	5.078	5.088	5.499
435.0	344.3	423.8	652.8	835.2	986.1	1042	1035	1030	1012	993.0	988.8	958.5	935.8	930.7	897.1	876.6	870.5	867.0	845.7	820.3	782.7	751.7	741.0	722.0	703.2	671.9	635.9	592.2	554.4	508.0	455.0	410.4	346.4	250.5	188.9	143.9	110.4	80.75	63.13	72.06	171.1	412.3	1160	2528	258.8	16.46	3.162	2.524	2.685	2.591	2.647	3.611	3.792	4.400	4.253	4.506	4.406	4.425	4.410	4.315	4.548	4.462	4.503	4.394	4.377	4.072	4.488	3.926	4.223	4.397	4.435	4.317	4.498	4.422	4.789	4.975	4.779
440.0	390.8	448.0	653.1	817.6	929.1	999.9	1002	999.2	979.9	952.9	943.4	933.4	902.9	880.7	853.8	825.7	815.4	803.5	794.6	773.6	742.1	720.8	713.8	696.1	679.5	655.9	625.5	589.6	551.7	505.6	456.2	401.3	364.1	287.1	206.9	161.1	123.3	93.34	70.11	56.85	68.63	114.3	308.6	1645	2098	228.5	9.519	3.100	2.872	2.553	2.730	3.595	3.535	4.171	4.274	4.152	4.474	4.215	4.596	4.299	4.408	4.406	4.107	4.236	4.410	4.034	4.162	4.012	4.142	4.088	4.024	4.375	4.449	4.422	4.307	4.546	4.676
445.0	417.6	489.1	617.3	785.6	896.1	944.5	976.1	980.9	954.8	939.4	912.4	892.4	862.0	834.7	806.0	778.3	767.3	758.8	743.7	728.3	703.4	689.2	679.2	667.7	652.7	635.0	610.7	575.1	545.6	510.6	456.1	396.5	353.0	313.0	231.9	172.6	136.3	105.5	79.86	60.87	51.04	51.40	88.70	458.2	1886	1919	169.6	5.795	3.335	2.855	3.080	3.589	3.595	3.933	3.851	3.913	4.435	4.385	4.337	4.315	4.318	4.245	4.013	4.157	4.494	3.712	4.033	3.815	4.051	3.739	3.786	4.105	4.229	3.988	4.259	4.414	4.365
450.0	325.3	632.0	613.8	745.2	850.1	889.4	911.5	927.8	904.4	884.0	875.3	837.7	803.3	779.1	738.1	712.1	699.6	693.5	677.9	662.4	644.4	634.2	629.2	619.3	611.6	591.7	575.1	551.9	525.1	495.9	446.7	392.7	338.2	304.1	259.3	197.4	148.7	116.4	90.64	71.05	54.66	44.33	44.62	121.7	514.8	1474	1799	621.1	13.11	3.421	3.148	3.573	3.571	3.776	3.824	3.721	4.147	4.013	4.120	4.188	4.142	3.974	3.837	4.052	4.136	3.622	3.667	3.721	3.841	3.605	3.704	3.697	3.909	3.763	3.817	3.988	4.001
455.0	209.1	636.8	796.8	688.3	769.8	819.4	851.9	853.5	841.7	827.0	821.5	779.5	746.4	704.7	672.1	641.5	625.0	626.8	605.4	596.9	583.1	572.5	567.3	563.8	557.3	546.0	531.8	510.2	495.7	471.5	429.3	382.4	330.1	284.5	256.4	221.6	165.2	126.0	100.1	78.97	62.91	49.40	39.70	49.82	131.9	347.7	865.2	2135	799.7	15.69	3.638	3.631	3.405	3.588	3.657	3.455	3.807	4.090	3.926	4.069	3.750	3.721	3.808	3.964	4.051	3.533	3.489	3.273	3.481	3.367	3.390	3.182	3.620	3.382	3.577	3.644	3.803
460.0	194.4	507.7	1023	695.5	732.1	776.8	801.6	809.6	798.7	778.0	772.8	735.9	702.6	654.3	618.1	590.5	578.2	574.5	557.8	546.7	531.5	524.1	522.9	520.7	515.7	509.0	496.9	483.2	469.5	448.5	413.1	369.7	321.0	275.0	240.6	224.4	181.3	133.4	106.2	84.90	67.53	53.51	41.72	36.62	49.76	92.69	219.9	1204	1895	189.7	11.38	4.065	3.751	3.462	3.617	3.476	3.651	3.945	3.751	3.827	3.798	3.763	3.498	3.824	3.454	3.292	3.308	2.985	3.165	3.074	3.008	3.301	3.146	3.202	3.228	3.381	3.402
465.0	168.9	357.8	1093	859.0	687.9	734.5	753.0	758.1	755.3	741.8	729.5	694.9	657.4	611.4	571.7	549.3	531.2	525.2	514.1	499.5	487.0	485.1	480.9	485.2	478.0	473.9	462.1	452.6	443.2	427.6	397.0	356.4	311.8	267.1	229.8	211.9	189.4	144.0	109.9	89.15	71.71	56.76	45.55	36.50	32.98	37.30	62.48	320.1	1395	1515	161.7	7.886	4.215	3.483	3.529	3.525	3.225	3.517	3.576	3.568	3.534	3.613	3.429	3.687	3.245	3.436	3.192	3.032	2.756	3.116	3.151	3.129	2.987	3.033	3.102	3.073	3.052
470.0	169.8	274.9	778.2	1265	727.8	665.9	682.1	694.6	697.7	684.4	671.7	633.5	597.3	556.9	515.8	490.9	475.7	470.2	457.6	446.2	434.6	433.2	427.0	430.0	427.3	425.3	417.0	411.8	401.1	391.4	366.8	330.9	291.2	252.7	219.8	192.8	177.0	153.4	118.5	92.75	75.13	60.83	49.55	40.01	32.84	28.84	29.55	84.20	366.7	1011	1309	525.3	14.40	4.263	3.687	3.489	3.411	3.281	3.394	3.258	3.209	3.301	3.304	3.314	2.947	3.030	3.001	2.847	2.782	2.816	2.775	2.643	2.786	2.737	2.868	2.790	2.824
475.0	147.8	218.2	470.2	1285	1120	623.6	608.8	641.1	640.0	628.7	605.4	579.5	535.0	501.5	459.2	437.1	419.8	415.4	405.9	396.2	378.6	381.0	377.8	383.3	382.2	376.8	373.2	370.0	363.1	352.9	332.8	303.1	272.1	236.3	206.6	181.6	159.7	145.8	128.9	97.76	78.15	63.31	52.05	43.32	35.54	29.19	25.27	33.81	94.23	238.2	557.2	1444	658.3	19.64	4.165	3.540	3.380	2.901	3.042	2.928	2.855	2.978	3.139	2.850	2.723	2.678	2.529	2.463	2.412	2.480	2.505	2.431	2.680	2.393	2.580	2.470	2.686
480.0	156.8	218.6	364.6	924.4	1548	667.0	582.1	591.0	587.1	585.9	573.3	545.8	494.8	468.0	429.0	400.5	383.0	382.1	376.7	363.7	348.4	348.2	347.8	347.4	351.0	345.7	344.6	341.2	334.6	327.0	312.0	283.8	254.9	225.9	199.5	172.0	151.1	134.6	127.5	105.5	80.02	65.52	53.96	46.01	38.28	31.64	26.59	24.05	34.61	65.12	140.9	729.8	1509	223.3	12.72	3.901	3.578	3.059	2.793	2.992	2.871	2.814	2.889	2.670	2.689	2.485	2.252	2.329	2.421	2.310	2.419	2.435	2.262	2.172	2.311	2.153	2.391
485.0	141.9	223.9	321.3	594.7	1644	963.5	539.8	563.2	552.5	552.2	545.3	520.2	474.4	443.3	405.2	375.9	360.6	351.3	343.2	335.0	323.5	320.4	321.5	322.4	324.3	322.3	321.1	318.2	313.5	307.1	295.3	271.8	244.1	216.5	192.0	167.8	146.9	128.1	120.8	109.5	85.39	68.23	56.49	47.50	40.76	33.74	28.36	23.66	23.19	28.14	43.06	194.0	983.4	1328	179.7	7.579	3.916	3.062	2.768	2.909	2.770	2.664	2.593	2.660	2.521	2.222	2.350	2.327	2.357	2.061	2.371	2.266	1.992	1.920	2.192	2.147	2.175
490.0	116.5	217.4	287.2	407.1	1093	1580	631.5	516.3	514.7	514.8	500.2	475.8	440.0	404.5	370.5	345.8	329.3	321.4	311.4	305.1	294.3	290.4	289.6	290.9	293.9	292.7	290.6	289.8	288.7	282.8	271.0	252.3	227.0	204.1	180.4	159.3	139.1	123.2	111.2	103.3	92.28	72.44	58.04	49.37	42.60	36.14	30.73	26.25	22.85	21.51	23.21	55.31	255.4	760.8	1143	499.7	16.24	3.776	3.074	2.865	2.493	2.601	2.626	2.585	2.572	2.169	2.273	2.175	2.110	2.115	2.088	2.092	1.976	1.877	2.013	2.016	2.198
495.0	101.0	187.4	296.1	355.2	563.9	1614	1132	481.4	472.4	470.7	457.3	435.7	408.8	365.6	335.5	310.4	295.4	289.0	280.8	274.2	261.0	257.9	259.5	257.3	262.6	260.8	259.7	258.9	259.5	256.8	245.0	230.0	208.1	189.3	168.1	151.3	133.3	117.9	104.0	92.08	88.74	80.06	61.43	50.43	43.47	37.96	32.23	27.99	24.23	21.11	20.14	24.66	67.98	180.5	479.0	1308	716.2	21.27	3.596	2.850	2.701	2.521	2.290	2.325	2.320	2.070	2.028	2.184	2.019	1.837	1.903	1.903	1.911	1.856	1.916	1.730	1.868
500.0	91.32	156.3	284.9	307.4	389.0	1101	1685	539.1	431.9	436.2	424.5	403.8	371.3	339.1	308.3	283.7	274.4	265.7	256.7	248.8	237.2	234.9	232.5	236.6	237.2	235.3	236.5	236.1	240.1	235.5	225.4	210.1	192.1	174.4	156.7	141.0	125.5	111.4	98.23	86.74	80.96	79.04	65.10	51.47	43.85	38.41	33.70	28.87	25.07	22.12	19.75	18.91	26.43	50.26	120.3	623.7	1410	241.4	14.88	2.999	2.622	2.572	2.242	2.181	2.232	2.017	1.820	1.860	1.735	1.648	1.782	1.960	1.773	1.639	1.727	1.717	1.718
505.0	81.22	139.7	286.1	298.6	336.1	636.1	1878	839.0	403.6	399.3	385.5	369.8	343.6	310.2	285.7	260.7	253.3	242.4	231.8	225.5	217.3	214.8	211.0	213.5	214.4	214.4	217.4	215.7	218.1	215.1	207.6	196.7	177.5	160.6	146.7	131.4	116.7	105.5	93.91	82.55	73.30	72.60	66.68	53.50	44.45	38.25	33.61	28.96	25.60	23.55	20.05	17.84	18.16	21.64	35.72	160.7	822.0	1231	201.4	8.497	2.818	2.458	2.277	2.204	1.997	1.891	1.861	1.563	1.674	1.704	1.734	1.670	1.534	1.639	1.780	1.618	1.665
510.0	67.08	116.1	227.2	309.0	308.1	393.5	1206	1589	476.5	355.4	350.5	327.1	303.9	277.7	254.7	232.5	221.9	215.1	207.5	201.1	192.4	188.0	187.6	186.9	188.9	189.7	188.3	191.8	191.1	191.7	183.5	172.7	161.1	145.2	132.0	119.9	106.7	96.75	86.27	76.63	68.03	63.11	61.77	55.63	44.92	37.53	33.11	28.92	25.68	23.15	20.36	18.19	16.34	15.59	17.26	43.49	207.4	643.5	964.7	453.4	15.89	2.758	2.186	1.997	1.975	1.834	1.698	1.525	1.623	1.542	1.462	1.510	1.479	1.474	1.417	1.406	1.441
515.0	61.02	95.96	172.9	290.0	286.0	300.4	548.3	1774	987.7	326.0	311.3	291.9	272.9	248.9	220.9	202.7	193.6	187.2	181.8	175.2	167.7	164.4	161.7	162.4	165.1	163.4	162.1	165.9	165.8	167.6	163.7	153.4	138.2	127.9	118.7	106.1	96.49	87.93	78.67	69.74	63.52	55.43	52.40	52.21	47.10	37.53	32.15	28.34	25.15	22.40	20.62	18.26	16.20	13.94	12.96	17.90	52.95	149.5	356.6	1059	595.0	20.97	2.393	2.105	1.778	1.671	1.605	1.503	1.518	1.338	1.187	1.413	1.303	1.314	1.108	1.253	1.211
520.0	63.06	90.44	149.7	240.9	285.1	266.0	330.4	1214	1684	370.2	283.9	268.8	242.3	222.1	203.7	185.3	174.1	172.0	161.4	156.7	150.1	147.7	143.2	146.3	146.3	146.2	145.6	150.4	149.2	150.8	145.9	138.5	126.8	116.0	107.9	97.04	89.02	80.59	71.21	64.03	59.00	52.49	47.81	47.13	46.69	39.89	31.36	27.38	24.39	22.15	19.86	18.24	16.27	13.66	12.34	11.75	18.67	38.71	87.29	479.3	1072	236.8	13.07	2.284	1.846	1.613	1.396	1.364	1.396	1.272	1.212	1.199	1.091	1.214	1.058	1.348	1.025
525.0	48.63	79.67	130.8	203.1	288.5	244.6	265.8	613.8	2044	662.7	256.0	242.1	221.3	202.7	184.2	168.4	157.9	154.4	148.6	142.8	135.4	131.9	130.7	130.9	132.8	132.2	131.5	132.9	134.3	135.9	131.4	124.4	115.2	106.4	96.43	89.04	80.48	74.03	66.64	60.20	54.95	48.83	44.46	41.14	42.30	40.75	31.76	26.98	23.37	21.36	19.42	17.52	15.80	13.61	11.82	10.39	11.14	14.15	24.00	119.5	585.6	908.2	193.2	6.089	1.866	1.614	1.372	1.470	1.201	1.191	1.020	1.095	1.171	1.257	1.086	1.053	0.986
530.0	45.41	73.48	115.6	159.0	252.3	237.4	219.4	312.2	1332	1597	320.5	216.8	194.0	178.9	160.9	146.7	140.7	133.1	130.0	125.9	119.2	115.3	113.2	113.3	114.7	113.9	115.0	114.4	116.1	118.2	114.8	109.0	100.6	94.02	85.74	78.30	72.38	66.35	59.32	54.10	49.76	44.17	40.78	37.60	36.34	36.88	33.21	26.29	22.42	19.83	18.06	16.37	14.75	13.57	11.82	9.885	9.109	8.525	9.818	30.40	145.8	453.0	689.1	319.8	14.71	1.827	1.365	1.275	1.286	1.079	0.999	1.049	1.014	1.030	0.953	0.938	0.991
535.0	35.39	66.72	92.79	143.8	194.7	248.9	192.4	216.1	520.7	1964	816.0	193.1	170.1	158.5	138.9	127.8	119.8	115.0	112.0	107.6	101.9	98.42	97.38	97.24	98.11	98.27	97.99	98.23	100.2	101.5	99.92	93.06	85.32	82.94	74.17	68.69	61.58	58.49	52.77	47.56	44.18	39.40	36.86	34.01	31.24	30.65	31.34	26.51	21.80	18.57	16.67	15.52	13.73	13.13	11.98	10.07	8.397	7.313	6.731	10.53	35.67	104.2	243.0	709.0	258.3	18.63	1.500	1.168	1.053	0.935	0.965	1.051	0.824	0.780	0.891	0.912	0.843
540.0	30.37	51.46	90.01	120.7	143.3	240.5	191.0	176.5	252.5	1316	1579	216.8	149.0	139.0	122.4	114.0	107.9	103.0	98.08	95.42	90.08	87.04	86.06	84.21	85.66	86.58	85.87	86.92	89.69	89.90	88.43	82.39	76.02	71.18	65.96	61.79	56.54	51.69	47.51	43.82	38.49	35.95	32.74	30.33	28.29	26.56	27.22	26.04	21.70	17.45	15.92	14.49	13.02	12.04	10.89	9.618	8.306	6.782	5.592	5.913	11.11	25.96	58.10	304.7	750.2	227.8	11.30	1.348	1.083	1.089	0.853	0.862	0.829	0.643	0.764	0.792	0.806
545.0	32.43	45.61	80.93	104.8	127.1	200.5	194.7	158.5	174.7	597.3	2040	434.0	131.8	125.6	112.1	100.7	98.41	92.00	87.41	84.14	81.31	76.81	75.39	75.10	75.31	75.50	75.20	77.56	78.79	79.29	78.26	74.31	68.24	62.69	58.74	54.51	50.55	45.89	42.63	39.10	35.07	32.27	30.17	26.98	25.69	23.29	23.04	23.76	21.39	17.51	14.54	13.25	11.67	10.66	9.650	9.248	8.204	6.481	5.453	4.766	5.563	8.537	15.33	74.36	398.1	685.8	171.1	4.390	1.129	1.061	0.922	0.804	0.792	0.671	0.661	0.682	0.646
550.0	30.11	44.70	68.64	86.40	102.9	144.7	198.4	145.7	137.5	244.9	1291	1311	158.2	106.9	94.75	85.66	80.95	78.06	74.00	71.16	67.77	64.33	63.00	63.00	62.19	63.84	62.91	64.15	65.93	65.83	64.60	61.68	57.55	52.64	49.43	45.74	42.76	39.20	36.79	33.19	29.99	27.87	25.74	23.22	21.97	20.36	19.05	19.28	18.96	16.90	13.80	11.71	10.32	9.619	8.906	8.070	7.546	6.430	5.426	4.516	3.953	4.224	5.448	18.39	96.96	319.8	485.4	147.6	13.92	1.075	0.895	0.666	0.671	0.656	0.653	0.588	0.594
555.0	31.03	41.20	57.15	72.24	86.78	104.0	160.8	151.5	114.6	137.9	436.4	1773	514.9	89.31	75.97	69.33	67.73	62.83	59.13	58.08	56.26	52.48	51.59	51.88	50.00	51.02	50.76	52.16	52.50	53.14	52.15	50.47	47.07	43.58	40.31	37.48	36.07	32.28	30.15	28.15	25.28	23.31	20.97	19.29	18.08	17.21	15.44	14.76	14.78	15.07	13.40	10.32	8.779	8.322	7.866	6.908	6.213	5.718	5.078	3.962	3.394	2.985	3.151	5.804	23.19	72.79	159.9	430.3	240.7	16.42	0.871	0.651	0.674	0.697	0.585	0.447	0.594
560.0	35.85	44.96	49.73	63.40	75.73	83.29	116.0	156.8	106.9	105.6	177.8	1204	1200	102.5	65.58	59.34	57.67	53.30	50.78	48.86	46.90	44.89	44.57	44.30	42.34	43.01	43.56	43.89	44.41	44.43	44.00	42.53	39.36	36.66	34.62	31.57	29.87	27.54	24.83	23.90	21.56	19.70	18.11	16.79	16.11	14.72	13.41	12.39	11.74	12.72	12.33	9.787	7.960	7.226	6.602	6.178	5.432	4.912	4.910	3.921	3.026	2.577	2.556	2.993	6.634	17.39	37.65	178.6	454.8	189.5	8.592	0.770	0.573	0.584	0.468	0.472	0.458
565.0	24.39	39.16	45.48	58.46	67.47	71.26	86.37	159.0	106.3	88.48	107.6	507.5	1707	166.7	57.95	52.28	48.85	46.24	44.88	41.62	38.83	38.07	36.73	37.15	36.87	36.90	36.29	37.57	38.17	38.83	36.72	35.86	33.19	31.64	29.75	26.47	25.85	23.32	21.79	20.22	19.01	17.44	16.37	14.97	14.10	13.01	11.94	11.07	10.03	10.01	10.70	9.408	7.557	6.421	5.854	5.453	5.070	4.428	4.387	3.644	2.923	2.529	2.183	2.076	2.869	4.928	9.614	42.93	221.4	408.4	122.1	3.291	0.639	0.504	0.465	0.412	0.361
570.0	27.88	33.52	48.24	48.81	53.97	59.26	65.57	117.4	123.9	80.43	85.95	180.9	1147	920.3	77.17	42.52	40.51	37.41	36.30	34.23	31.98	30.74	29.42	29.55	29.79	29.79	29.47	30.40	30.80	30.93	30.35	28.96	27.24	25.67	24.15	22.09	20.71	19.19	17.98	16.78	15.00	14.28	13.18	12.13	11.53	10.76	9.990	9.108	8.228	7.882	8.397	8.276	7.206	5.908	4.866	4.538	4.227	3.772	3.537	3.178	2.940	2.388	1.953	1.744	1.717	2.120	3.229	10.53	53.04	176.6	259.3	136.6	12.31	0.658	0.481	0.473	0.411
575.0	28.32	34.62	44.95	50.76	48.35	46.35	55.95	76.07	136.3	90.71	81.91	99.11	370.7	1402	326.2	35.97	32.80	29.80	29.32	28.05	26.53	24.59	24.10	23.90	23.39	23.20	23.77	23.42	24.22	24.61	23.65	22.64	21.75	20.42	19.66	17.62	16.81	15.76	14.51	13.21	12.56	11.59	10.50	10.01	9.146	8.441	8.369	7.539	6.725	6.289	6.201	6.457	6.680	5.681	4.400	3.946	3.655	3.247	2.936	2.503	2.529	2.544	2.024	1.341	1.422	1.524	1.559	3.295	12.57	40.29	83.47	256.2	200.5	14.30	0.621	0.437	0.371
580.0	24.48	39.31	56.47	48.97	43.98	46.13	47.55	60.09	119.1	106.0	78.93	78.73	138.7	987.6	841.1	42.92	27.09	26.19	24.37	23.60	21.80	21.02	20.54	20.46	20.13	19.68	19.97	19.88	20.84	20.92	19.93	19.24	18.26	17.48	16.22	15.35	13.99	13.56	12.30	11.15	10.51	9.952	8.976	8.470	7.996	7.107	7.137	6.355	5.803	5.225	5.124	5.150	5.878	5.252	4.302	3.513	3.072	2.910	2.493	2.265	2.243	2.219	2.082	1.389	1.393	1.267	1.254	1.549	3.553	9.740	19.68	98.78	298.4	135.4	6.387	0.441	0.392
585.0	23.70	43.58	53.97	46.00	44.07	40.92	44.11	51.65	97.67	126.2	83.65	75.74	81.73	414.4	1257	103.0	24.53	22.50	21.43	20.11	18.35	18.02	17.41	17.37	17.35	17.01	16.89	16.30	17.83	17.72	16.97	16.56	15.46	14.84	13.58	12.73	12.08	11.14	10.60	9.619	9.075	8.172	8.155	7.376	7.057	6.171	5.918	5.295	5.066	4.682	4.362	4.227	4.521	4.641	4.234	3.291	2.547	2.591	2.478	1.953	2.153	1.939	1.987	1.614	1.248	1.304	1.104	1.207	1.595	2.980	5.012	23.53	135.2	259.4	35.28	2.262	0.383
590.0	27.89	49.08	50.84	42.20	38.18	37.10	40.12	46.75	69.37	125.6	99.59	79.11	68.06	137.1	851.4	610.4	34.94	18.92	17.86	16.89	15.37	14.92	14.53	13.88	13.60	13.73	13.82	13.73	14.38	14.15	13.75	13.49	12.62	11.58	11.31	10.50	9.773	9.210	8.490	7.935	7.344	6.973	6.567	6.221	5.653	5.355	4.983	4.626	4.238	3.879	3.758	3.510	3.421	3.564	3.898	3.093	2.386	2.200	1.955	1.686	1.735	1.611	1.411	1.612	1.352	1.173	1.116	1.014	1.073	1.284	1.559	5.828	32.16	107.0	162.6	96.31	11.25
595.0	27.58	46.30	49.67	42.06	34.77	36.95	37.33	43.78	55.75	95.09	121.7	81.49	66.21	64.20	261.5	966.3	99.79	16.10	14.75	14.05	12.31	11.88	11.38	10.95	11.19	10.93	10.76	11.13	11.99	11.48	10.96	10.57	10.02	9.506	8.768	8.054	7.762	7.297	6.546	6.622	5.943	5.431	5.215	4.612	4.544	4.272	3.883	3.971	3.348	3.124	2.966	2.921	2.583	2.777	2.955	2.940	2.365	1.973	1.729	1.420	1.358	1.318	1.177	1.323	1.480	1.313	0.940	0.799	0.867	0.903	0.790	1.790	7.578	24.30	49.28	156.0	140.4
600.0	29.62	41.29	46.07	43.20	32.69	33.38	38.05	38.81	51.25	75.46	127.6	90.05	68.57	48.00	83.38	694.6	503.9	19.98	12.92	11.28	11.18	10.69	9.503	9.429	9.251	9.332	8.999	9.451	9.493	9.503	9.147	9.422	8.511	7.831	7.238	6.983	6.629	6.257	5.885	5.678	4.968	4.497	4.399	4.016	3.846	3.779	3.431	3.390	2.875	2.850	2.495	2.202	2.293	2.330	2.343	2.671	2.345	1.906	1.489	1.245	1.095	1.045	1.153	0.946	1.188	1.271	0.960	0.694	0.828	0.740	0.674	0.829	2.074	5.740	11.44	57.62	195.7
605.0	24.58	40.63	48.63	41.62	32.86	29.74	33.94	40.20	50.14	68.12	120.4	104.4	68.05	45.47	40.13	286.8	823.2	63.54	11.03	9.517	9.615	8.485	8.097	8.107	7.860	7.547	7.745	7.745	7.759	7.754	7.927	7.733	7.188	6.765	5.844	6.169	5.669	5.494	4.809	4.594	4.546	3.881	3.774	3.525	3.319	3.173	3.031	2.729	2.520	2.326	2.067	1.937	1.763	1.849	1.782	2.194	2.336	1.847	1.409	1.234	0.924	0.857	0.957	0.879	0.919	1.170	1.096	0.851	0.807	0.675	0.589	0.585	0.828	1.600	2.833	13.54	84.53
610.0	26.34	38.56	46.21	38.19	30.00	27.78	32.10	38.17	49.18	63.71	95.63	117.0	71.76	45.14	29.64	85.72	594.0	409.6	18.00	8.148	7.821	7.090	6.552	6.705	6.457	6.389	6.279	6.173	6.287	6.203	6.225	6.157	5.710	5.409	5.118	4.750	4.561	4.306	3.750	3.623	3.687	3.155	3.141	2.969	2.792	2.593	2.469	2.159	2.175	1.910	1.753	1.638	1.547	1.454	1.429	1.565	1.854	1.662	1.355	1.017	0.867	0.907	0.838	0.889	0.816	0.902	0.985	0.987	0.790	0.595	0.494	0.459	0.629	0.681	0.867	3.212	19.73
615.0	20.39	40.29	39.21	37.28	27.16	27.31	31.62	38.05	45.61	58.35	77.51	114.5	80.81	46.03	27.94	33.74	180.6	697.5	74.25	7.148	5.709	5.793	5.359	5.182	5.093	5.023	4.869	5.032	4.831	4.938	4.737	4.792	4.520	4.203	3.752	3.703	3.356	3.342	2.934	3.183	2.890	2.493	2.419	2.239	2.258	2.049	1.883	1.675	1.720	1.536	1.394	1.372	1.314	1.205	1.190	1.214	1.353	1.390	1.259	1.003	0.691	0.802	0.784	0.692	0.588	0.744	0.734	0.921	0.873	0.641	0.520	0.483	0.493	0.484	0.408	0.952	4.563
620.0	21.06	38.02	39.15	32.12	29.32	27.63	31.28	34.09	43.61	56.97	73.18	96.53	93.10	46.12	29.36	22.75	55.66	522.6	351.2	10.25	5.492	4.758	4.559	4.511	4.488	4.634	4.306	4.138	3.951	4.175	3.997	3.948	3.750	3.467	3.160	3.176	2.985	2.759	2.423	2.459	2.248	2.249	1.926	2.078	2.102	1.689	1.430	1.572	1.305	1.292	1.151	1.123	1.065	0.936	0.903	0.929	1.139	1.272	1.126	1.004	0.734	0.704	0.684	0.562	0.796	0.587	0.557	0.710	0.855	0.709	0.584	0.418	0.401	0.343	0.370	0.376	1.208
625.0	18.89	38.75	36.17	32.13	27.79	26.34	26.57	36.68	44.00	53.97	69.21	80.92	99.32	51.52	31.34	22.19	26.39	221.5	605.0	41.15	5.415	4.317	3.851	3.531	3.541	3.639	3.641	3.392	3.720	3.439	3.517	3.175	3.295	2.929	2.836	2.910	2.260	2.220	2.159	1.988	2.011	1.902	1.844	1.537	1.653	1.553	1.319	1.213	1.068	1.067	0.972	1.021	0.978	0.835	0.690	0.812	0.918	0.998	0.901	1.037	0.819	0.620	0.760	0.583	0.565	0.562	0.586	0.710	0.765	0.750	0.562	0.482	0.385	0.293	0.312	0.290	0.466
630.0	20.35	29.93	35.24	33.23	33.83	30.11	30.64	38.30	45.73	56.21	68.97	75.97	94.33	69.07	40.89	30.59	27.72	72.41	464.7	295.0	11.13	4.188	3.357	3.055	2.954	2.864	2.978	2.598	2.660	2.622	2.668	2.642	2.373	2.208	2.230	2.348	1.891	1.786	1.751	1.611	1.608	1.515	1.333	1.233	1.251	1.183	1.130	0.988	0.894	0.900	0.864	0.756	0.814	0.693	0.656	0.724	0.700	0.732	0.749	0.868	0.882	0.577	0.714	0.523	0.577	0.558	0.602	0.637	0.637	0.632	0.675	0.517	0.433	0.395	0.367	0.298	0.283
635.0	23.30	29.95	41.04	38.50	40.87	40.26	40.70	42.95	48.65	60.04	73.18	80.88	91.63	93.87	65.72	54.32	49.75	52.23	163.2	538.8	59.72	4.205	3.021	2.642	2.492	2.219	2.468	2.331	2.110	2.061	2.039	1.973	1.816	1.781	1.681	1.865	1.426	1.299	1.392	1.321	1.157	1.365	1.055	0.945	0.937	1.074	0.886	0.873	0.806	0.766	0.739	0.625	0.613	0.614	0.542	0.667	0.602	0.573	0.590	0.556	0.875	0.643	0.612	0.576	0.547	0.522	0.588	0.642	0.459	0.621	0.635	0.777	0.611	0.431	0.523	0.517	0.470
640.0	27.18	33.57	53.42	46.29	54.81	57.64	51.67	48.64	56.04	68.36	79.59	89.66	98.60	117.6	91.52	79.62	76.93	66.25	79.86	434.2	262.4	6.494	2.820	2.322	1.957	1.805	1.924	1.905	1.788	1.875	1.615	1.603	1.570	1.477	1.309	1.430	1.131	1.093	1.070	0.979	0.997	0.859	0.920	0.809	0.804	0.813	0.782	0.725	0.712	0.654	0.672	0.620	0.609	0.672	0.540	0.683	0.608	0.516	0.519	0.535	0.692	0.642	0.681	0.554	0.603	0.673	0.498	0.593	0.552	0.568	0.741	0.701	0.608	0.671	0.649	0.651	0.639
645.0	32.00	39.12	50.47	62.14	62.97	68.43	58.54	54.18	60.66	73.01	86.86	101.6	108.7	124.9	120.2	104.0	101.9	84.77	69.81	216.4	458.1	27.87	2.601	2.129	1.811	1.680	1.659	1.796	1.784	1.636	1.334	1.486	1.366	1.397	1.049	1.279	0.971	1.125	1.034	0.869	0.739	0.823	0.707	0.733	0.653	0.628	0.623	0.682	0.722	0.614	0.545	0.648	0.553	0.693	0.650	0.606	0.596	0.517	0.511	0.474	0.763	0.554	0.712	0.586	0.601	0.642	0.514	0.549	0.683	0.630	0.609	0.744	0.696	0.747	0.811	0.706	0.721
650.0	25.73	35.47	55.62	64.77	69.35	73.16	62.18	56.81	62.47	77.81	91.37	106.9	113.4	123.9	138.9	116.2	113.9	94.33	72.46	98.91	460.8	68.40	3.256	1.878	1.745	1.394	1.348	1.681	1.290	1.514	1.229	1.161	1.270	1.153	0.975	0.885	0.934	0.811	0.896	0.754	0.773	0.768	0.551	0.528	0.504	0.539	0.564	0.609	0.611	0.545	0.512	0.540	0.495	0.572	0.588	0.586	0.549	0.543	0.483	0.550	0.519	0.549	0.631	0.614	0.521	0.541	0.626	0.615	0.623	0.733	0.672	0.833	0.712	0.886	0.835	0.679	0.889
