Sample:	'1
File name:	t2025070310ÃÏÍ…Ω Ù≥¡µÌ≥ÿ 2±∂.FD3
Run date:	'10:40:09, 07/07/2025
Operator:	Administrator
Comment:	'

Instrument
Model:	F-2700 FL Spectrophotometer
Serial number:	23B8-004
ROM Version:	4J14000 07

Instrument parameters
Measurement type:	3-D scan
Data mode:	Fluorescence
EX  Start WL:	220.0 nm
EX  End WL:	600.0 nm
EX Sampling interval:	5.0 nm
EM  Start WL:	230.0 nm
EM  End WL:	650.0 nm
EM Sampling interval:	5.0 nm
Scan speed:	12000 nm/min
EX Slit:	5.0 nm
EM Slit:	5.0 nm
PMT Voltage:	700 V
Response:	Auto 
Corrected spectra:	Off
Contour interval:	50.000

Peak integration
Integration method:	Rectangular
Sensitivity:	1
Threshold:	1.000

Peaks
No.	ApexEX/EM(nm)	Height(Data)
1	225.0/580.0	168.3
2	230.0/345.0	4449
3	240.0/525.0	276.2
4	245.0/535.0	229.0
5	250.0/550.0	177.8
6	255.0/285.0	737.2
7	255.0/565.0	159.7
8	260.0/575.0	142.8
9	265.0/295.0	1169
10	265.0/365.0	2012
11	265.0/585.0	137.5
12	270.0/300.0	1525
13	270.0/600.0	126.3
14	275.0/310.0	1595
15	275.0/610.0	111.8
16	280.0/315.0	1424
17	280.0/625.0	91.33
18	285.0/640.0	65.80
19	400.0/305.0	3.579
20	440.0/520.0	20.78
21	455.0/540.0	10.28
22	470.0/560.0	4.607
23	475.0/355.0	14.21
24	505.0/275.0	4.003
25	510.0/280.0	4.394
26	520.0/285.0	4.922
27	530.0/290.0	5.438
28	540.0/295.0	7.308
29	540.0/365.0	9.988
30	545.0/300.0	8.646
31	550.0/305.0	9.047
32	555.0/340.0	9.030
33	560.0/310.0	8.678
34	560.0/350.0	8.999
35	565.0/345.0	8.987

Data points
	220.0	225.0	230.0	235.0	240.0	245.0	250.0	255.0	260.0	265.0	270.0	275.0	280.0	285.0	290.0	295.0	300.0	305.0	310.0	315.0	320.0	325.0	330.0	335.0	340.0	345.0	350.0	355.0	360.0	365.0	370.0	375.0	380.0	385.0	390.0	395.0	400.0	405.0	410.0	415.0	420.0	425.0	430.0	435.0	440.0	445.0	450.0	455.0	460.0	465.0	470.0	475.0	480.0	485.0	490.0	495.0	500.0	505.0	510.0	515.0	520.0	525.0	530.0	535.0	540.0	545.0	550.0	555.0	560.0	565.0	570.0	575.0	580.0	585.0	590.0	595.0	600.0
230.0	111.3	2641	5377	1345	47.40	10.11	7.963	9.244	5.699	5.083	4.613	3.912	4.032	3.015	2.892	2.325	1.972	1.678	1.791	1.584	1.382	1.334	1.160	1.107	0.942	1.023	0.848	0.874	0.819	0.866	0.715	0.656	0.571	0.583	0.515	0.504	0.581	0.422	0.428	0.432	0.544	0.691	0.684	0.514	0.403	0.445	4.403	15.18	19.25	9.624	3.317	0.728	0.325	0.327	0.273	0.318	0.329	0.301	0.312	0.290	0.312	0.287	0.253	0.298	0.243	0.266	0.268	0.287	0.309	0.291	0.276	0.284	0.295	0.299	0.300	0.335	0.289
235.0	148.7	726.5	3749	5616	566.0	62.30	9.242	9.269	7.316	6.074	4.710	3.957	4.525	3.980	3.335	2.928	2.102	1.833	1.714	1.551	1.221	1.411	1.188	1.134	1.030	0.962	0.850	0.900	0.784	0.948	0.734	0.553	0.552	0.655	0.530	0.492	0.580	0.449	0.438	0.395	0.483	0.425	0.705	0.699	0.631	0.447	1.253	4.088	8.899	13.88	18.45	16.24	6.065	1.390	0.366	0.386	0.291	0.380	0.342	0.292	0.287	0.287	0.225	0.292	0.360	0.303	0.259	0.346	0.270	0.220	0.287	0.256	0.261	0.314	0.272	0.277	0.325
240.0	213.3	265.6	1181	5598	4423	442.2	29.36	13.74	7.951	6.827	5.048	4.151	4.957	3.636	3.385	2.693	2.580	1.982	1.873	1.614	1.252	1.418	1.110	0.975	1.160	0.945	0.879	0.858	0.850	0.909	0.723	0.639	0.660	0.595	0.591	0.445	0.683	0.499	0.433	0.460	0.473	0.464	0.512	0.584	0.798	0.824	0.801	1.299	2.288	4.537	12.65	27.17	25.13	16.16	4.346	0.982	0.372	0.303	0.312	0.326	0.313	0.278	0.288	0.302	0.354	0.322	0.251	0.300	0.252	0.257	0.355	0.265	0.253	0.306	0.331	0.376	0.303
245.0	170.2	278.1	342.6	2028	6819	3662	327.9	25.11	9.019	8.933	6.740	5.072	4.775	3.711	3.777	2.826	2.487	2.118	1.850	1.635	1.363	1.450	1.012	1.215	1.243	1.093	0.895	0.934	0.955	1.012	0.780	0.696	0.546	0.510	0.524	0.509	0.569	0.496	0.445	0.506	0.491	0.427	0.476	0.515	0.560	0.899	1.210	1.067	0.885	1.294	3.264	10.40	24.72	38.75	24.63	15.28	3.396	0.465	0.404	0.316	0.344	0.327	0.342	0.299	0.270	0.307	0.322	0.295	0.269	0.299	0.243	0.283	0.335	0.311	0.310	0.300	0.301
250.0	90.13	215.3	318.6	558.0	2394	6366	5932	1354	72.39	12.02	7.972	6.202	6.169	4.495	4.124	3.200	2.769	2.222	2.141	1.799	1.423	1.669	1.183	1.173	1.109	1.137	0.981	0.937	0.960	1.062	0.865	0.705	0.610	0.683	0.563	0.525	0.585	0.488	0.416	0.487	0.427	0.495	0.514	0.445	0.443	0.567	0.780	1.168	1.229	1.076	1.240	2.735	6.308	13.94	21.27	38.74	37.39	20.01	11.85	3.809	0.517	0.365	0.346	0.318	0.309	0.291	0.309	0.353	0.319	0.344	0.265	0.341	0.316	0.310	0.341	0.334	0.324
255.0	56.82	83.63	254.7	423.2	624.4	1739	6582	9999.9	1697	77.90	11.01	8.935	9.018	5.751	4.380	3.659	3.240	2.646	2.037	2.279	1.641	1.601	1.279	1.299	1.236	1.236	1.027	1.065	1.106	1.063	0.810	0.733	0.648	0.734	0.678	0.559	0.542	0.455	0.525	0.551	0.512	0.501	0.485	0.478	0.455	0.444	0.485	0.570	0.766	1.203	1.589	1.951	1.984	3.480	5.086	9.613	17.79	38.28	63.73	30.30	18.79	4.092	0.589	0.346	0.408	0.325	0.351	0.360	0.324	0.414	0.329	0.356	0.288	0.320	0.341	0.293	0.315
260.0	47.53	43.27	121.0	373.1	395.0	449.1	2241	9999.9	9999.9	1294	29.41	11.62	10.70	6.411	5.992	4.255	3.637	2.585	2.495	2.184	1.662	1.672	1.564	1.370	1.298	1.275	1.039	1.124	1.136	1.123	0.846	0.795	0.712	0.723	0.710	0.609	0.594	0.471	0.571	0.494	0.518	0.535	0.502	0.489	0.410	0.441	0.510	0.430	0.442	0.663	1.188	2.312	2.049	1.639	1.553	2.511	4.507	11.04	32.76	60.68	77.57	29.48	15.27	1.808	0.425	0.330	0.442	0.336	0.389	0.370	0.309	0.322	0.361	0.345	0.319	0.316	0.316
265.0	50.49	40.90	56.64	190.6	461.1	282.5	558.0	5825	9999.9	9999.9	202.3	18.41	12.95	7.951	6.771	5.132	3.990	2.711	2.946	2.379	1.939	1.917	1.686	1.262	1.558	1.215	1.165	1.105	1.141	1.220	0.910	0.872	0.693	0.796	0.651	0.692	0.663	0.552	0.622	0.519	0.568	0.590	0.470	0.480	0.483	0.534	0.505	0.484	0.378	0.420	0.563	1.283	2.224	2.478	1.714	1.142	1.427	2.869	8.063	19.71	50.37	86.80	91.31	25.08	8.117	0.712	0.509	0.406	0.358	0.362	0.344	0.368	0.374	0.356	0.365	0.329	0.357
270.0	92.91	75.78	57.51	79.24	256.7	440.5	336.0	1427	3842	9999.9	9999.9	786.4	59.93	12.62	10.13	6.756	4.542	3.339	3.324	2.669	2.033	2.298	1.767	1.506	1.557	1.478	1.309	1.257	1.293	1.169	1.015	0.951	0.772	0.877	0.776	0.775	0.747	0.715	0.654	0.552	0.531	0.570	0.605	0.531	0.609	0.640	0.571	0.535	0.449	0.414	0.463	0.655	1.043	1.633	2.310	2.409	2.081	1.553	2.331	4.904	12.26	26.73	51.58	60.89	82.00	54.90	16.32	6.424	0.900	0.476	0.418	0.375	0.372	0.351	0.383	0.337	0.385
275.0	281.3	253.4	176.7	98.19	107.0	265.2	588.0	562.5	953.4	2790	9942	9999.9	1208	47.87	15.51	9.369	5.815	4.081	3.707	3.418	2.296	2.456	2.132	1.759	1.547	1.525	1.363	1.303	1.405	1.190	1.139	0.928	1.017	0.982	1.018	1.151	1.156	0.871	0.936	0.744	0.798	0.856	0.912	0.875	1.054	0.952	0.977	0.902	0.796	0.578	0.553	0.537	0.672	0.791	0.985	1.352	3.130	4.003	2.411	2.029	3.447	6.611	12.26	14.87	26.35	48.83	96.55	94.21	26.50	7.538	0.693	0.444	0.495	0.533	0.362	0.417	0.390
280.0	627.1	571.6	400.4	185.8	98.70	138.1	464.1	698.3	426.5	826.5	3252	9999.9	9999.9	787.7	32.82	12.66	7.360	5.323	4.431	4.026	2.730	2.852	2.361	2.040	1.764	1.683	1.296	1.577	1.476	1.372	1.126	1.080	1.068	1.410	1.527	1.809	1.748	1.422	1.490	1.236	1.232	1.406	1.427	1.273	1.671	1.833	1.860	1.593	1.457	0.994	0.787	0.883	0.737	0.747	0.766	0.845	1.524	3.227	4.394	3.647	2.504	2.556	3.767	4.672	7.216	13.32	36.72	79.45	125.0	34.35	19.75	2.785	0.635	0.577	0.490	0.449	0.437
285.0	997.7	933.0	649.6	294.2	129.4	112.8	252.6	737.2	662.6	510.1	1068	4057	9999.9	7898	122.1	20.52	9.868	6.634	5.369	4.170	2.942	3.140	2.673	2.332	1.708	1.567	1.520	1.570	1.564	1.476	1.354	1.223	1.110	1.594	2.024	2.250	2.108	2.121	2.168	1.828	1.759	1.747	2.005	1.853	2.259	2.684	2.673	2.538	2.030	1.621	1.221	1.078	0.932	0.728	0.775	0.800	1.043	1.761	2.650	4.716	4.922	3.245	2.521	2.704	3.262	4.709	10.08	22.18	55.47	92.93	113.8	31.08	13.10	1.247	0.604	0.590	0.573
290.0	1399	1344	929.4	430.2	189.5	138.0	206.0	454.5	868.7	889.9	770.0	1372	4324	9999.9	9999.9	2155	32.49	9.427	7.574	5.943	3.664	4.105	2.949	2.549	2.083	2.059	1.621	1.699	1.592	1.765	1.465	1.201	1.301	1.884	2.383	2.975	2.992	2.754	2.663	2.223	2.123	2.355	2.571	2.914	3.076	3.566	3.770	3.644	2.870	2.271	1.692	1.486	1.099	0.991	0.829	0.861	1.160	1.326	1.711	2.623	4.090	5.026	5.438	4.797	3.845	3.603	4.778	7.516	14.78	25.87	48.93	65.30	85.30	76.24	19.77	10.07	1.346
295.0	1666	1579	1144	548.0	241.2	174.5	232.0	375.4	626.0	1169	1152	898.7	1355	2655	9999.9	9999.9	658.8	27.19	11.00	7.865	4.467	5.032	3.614	3.182	2.307	2.231	1.990	1.918	1.848	1.754	1.388	1.473	1.471	1.967	2.541	3.063	3.533	3.176	2.788	2.595	2.323	2.542	2.881	3.274	3.657	4.290	4.214	4.202	3.557	2.748	2.015	1.757	1.301	1.117	1.033	1.044	1.100	1.333	1.771	2.136	2.849	3.573	4.473	6.952	7.308	5.869	4.235	4.682	6.090	7.952	12.53	15.92	22.92	46.61	91.34	122.4	32.06
300.0	1641	1632	1190	586.7	294.2	223.8	288.5	411.1	603.9	998.4	1525	1060	784.8	843.2	3017	9999.9	9999.9	463.7	19.92	10.50	5.873	5.518	4.033	3.398	2.760	2.443	2.129	2.041	2.033	1.753	1.529	1.549	1.461	2.152	2.592	3.152	3.532	3.458	2.968	2.874	2.329	2.582	2.773	3.120	3.679	4.256	4.345	4.107	3.868	2.830	2.191	1.906	1.286	1.338	1.055	1.189	1.433	1.749	2.099	2.184	2.620	3.235	3.934	5.309	7.065	8.646	6.794	5.230	4.763	4.449	4.720	5.165	6.502	12.06	29.33	73.68	108.6
305.0	1563	1632	1193	609.8	332.1	282.0	362.0	512.8	714.1	988.7	1469	1554	855.5	553.0	911.1	3912	9999.9	4967	76.13	15.29	7.155	6.762	4.547	3.910	3.350	2.358	2.266	2.412	2.017	1.838	1.473	1.457	1.488	2.139	2.618	3.055	3.579	3.378	2.914	2.604	2.513	2.764	2.852	3.171	3.509	4.004	4.202	4.501	3.778	2.951	2.360	1.969	1.736	1.462	1.318	1.568	1.766	1.990	2.527	2.711	3.293	3.994	4.240	5.121	5.926	7.421	9.047	8.250	6.343	4.537	3.642	3.380	3.225	4.396	7.984	18.92	41.33
310.0	1486	1521	1155	642.8	383.5	354.6	471.3	650.6	848.0	1094	1346	1595	1364	730.2	562.1	1136	3556	8682	9999.9	1591	23.15	10.10	5.786	4.488	3.771	3.016	2.528	2.707	2.266	2.182	1.607	1.544	1.607	1.954	2.451	2.833	3.223	2.821	2.810	2.477	2.478	2.446	2.672	2.985	3.403	3.888	4.170	4.183	3.740	2.941	2.291	2.198	1.819	1.697	1.635	1.854	2.260	2.541	3.101	3.408	4.033	4.378	5.180	5.800	6.251	6.746	7.285	8.029	8.678	7.603	5.499	3.975	3.328	3.265	3.734	6.003	11.14
315.0	1343	1448	1138	689.7	441.4	420.4	550.8	747.2	933.4	1173	1342	1401	1424	1181	638.0	588.5	1050	2236	8617	9999.9	488.7	28.94	8.535	6.218	4.034	3.786	2.735	2.633	2.593	2.404	1.905	1.656	1.593	1.847	2.235	2.565	2.769	2.366	2.456	2.444	2.244	2.533	2.638	2.820	3.213	3.830	3.934	4.131	3.694	2.823	2.257	2.268	2.072	1.995	1.763	2.032	2.505	2.975	3.274	3.978	4.271	4.737	5.465	6.039	6.554	7.100	7.116	7.205	7.239	7.197	7.444	7.154	4.995	3.666	3.348	3.638	4.608
320.0	1389	1562	1263	832.6	501.6	473.8	600.8	805.0	989.2	1239	1394	1421	1329	1331	930.6	558.8	548.7	708.6	2424	9999.9	8849	421.3	14.84	8.333	5.241	4.215	3.073	3.107	2.654	2.902	1.975	1.664	1.317	1.915	1.956	2.389	2.702	2.434	2.292	2.277	2.027	2.698	2.598	2.762	3.242	3.930	4.097	4.658	4.143	3.152	2.794	2.716	2.391	2.174	2.016	2.321	2.663	2.978	3.628	4.276	4.317	5.227	5.861	6.411	7.006	6.925	6.888	7.072	7.057	6.778	6.723	7.668	7.837	5.731	4.038	3.398	3.771
325.0	1641	1877	1947	1287	660.2	540.0	659.7	856.6	1036	1282	1472	1534	1394	1279	1227	748.4	521.2	428.9	704.7	3264	9928	9378	59.00	12.31	7.028	4.972	3.718	3.642	3.083	2.802	2.208	1.919	1.567	1.959	2.013	2.067	2.398	2.349	2.360	2.278	2.105	2.572	2.594	3.076	3.774	4.588	5.146	6.033	5.855	5.382	4.371	4.035	3.209	2.716	2.504	2.691	2.995	3.335	3.957	4.362	4.874	5.483	6.060	6.435	7.284	7.149	7.133	7.811	7.381	7.328	6.906	6.414	7.610	7.692	6.488	4.845	3.921
330.0	1999	2763	3063	2342	1305	772.5	735.7	894.8	1111	1344	1571	1650	1568	1377	1268	1109	727.3	478.0	403.8	888.0	2988	9679	7067	1404	22.28	7.420	4.587	4.634	3.839	3.415	2.509	2.195	1.730	1.937	2.080	2.108	2.345	2.157	2.161	2.160	2.309	2.697	2.903	3.422	4.308	5.443	6.652	8.297	8.956	8.467	7.476	7.463	5.669	4.499	3.568	3.187	3.444	3.558	4.145	4.516	5.370	5.553	6.382	6.863	7.370	7.784	7.847	8.155	8.152	7.782	7.901	7.363	7.362	7.282	7.445	7.308	6.413
335.0	2249	3239	3869	3221	1932	1091	837.5	960.3	1156	1384	1627	1720	1680	1497	1299	1144	1031	637.8	409.9	414.1	820.6	2380	6306	9999.9	427.3	23.41	6.734	5.901	4.835	3.884	2.938	2.469	1.860	2.110	2.106	2.212	2.134	1.986	2.052	2.153	2.290	2.844	2.958	3.855	4.636	6.129	7.666	9.899	10.74	10.56	10.55	10.69	8.468	6.348	5.023	4.106	4.138	4.121	4.367	4.824	5.331	5.730	6.488	7.006	7.403	7.921	7.952	8.510	8.659	8.234	8.348	8.040	7.831	7.496	7.394	6.942	7.589
340.0	2249	3473	4337	3681	2346	1365	996.5	1044	1233	1455	1654	1752	1721	1564	1356	1128	1059	847.2	482.0	353.1	377.2	687.4	1827	8360	8083	368.7	13.40	7.399	5.647	4.720	3.246	2.791	1.922	2.390	2.091	2.255	2.289	2.023	2.233	2.131	2.544	2.929	2.978	3.747	5.070	6.439	8.032	10.61	11.82	11.82	11.89	12.20	9.810	7.934	6.179	4.922	4.752	4.669	4.874	5.259	5.645	5.923	6.607	7.314	7.930	8.070	8.418	9.030	8.671	8.165	8.454	8.277	8.390	7.705	7.110	7.234	7.123
345.0	2344	3567	4449	3988	2723	1634	1170	1173	1348	1567	1732	1772	1741	1614	1410	1173	1002	937.2	644.4	400.0	330.1	349.2	552.1	2489	8474	7273	52.51	12.01	7.146	5.639	3.375	2.935	2.032	2.292	2.329	2.266	2.112	1.925	2.131	2.055	2.439	2.994	3.180	3.826	5.125	6.520	8.143	10.83	12.18	12.25	12.78	13.57	11.36	9.327	7.304	5.878	5.703	5.468	5.527	5.888	6.302	6.795	7.389	8.073	8.325	8.200	8.512	8.590	8.898	8.987	8.713	8.295	8.613	7.718	7.626	7.384	7.005
350.0	2243	3373	4357	4168	3088	2000	1470	1428	1556	1734	1831	1789	1745	1613	1440	1225	1011	873.9	779.0	567.7	390.5	332.8	321.8	692.0	2496	6750	5204	1368	22.97	8.008	4.382	3.361	2.391	2.545	2.219	2.264	2.256	2.040	1.998	2.092	2.270	2.744	3.188	3.674	4.917	6.069	7.805	10.51	11.97	11.79	13.01	13.92	12.29	10.68	8.553	7.591	7.023	6.698	6.400	6.810	7.282	7.740	8.094	8.466	8.857	8.818	8.876	8.625	8.999	8.897	8.890	8.468	8.490	8.193	7.893	7.758	7.101
355.0	2085	3099	4031	4032	3235	2325	1817	1723	1822	1898	1916	1799	1710	1588	1438	1239	1042	869.7	750.7	710.0	533.4	384.3	316.5	333.6	677.5	1634	3760	9999.9	2012	28.81	6.510	4.391	2.832	2.721	2.297	2.231	2.413	2.050	1.906	2.103	2.296	2.642	3.040	3.635	4.706	5.778	7.300	9.826	10.68	11.01	11.85	14.21	12.82	11.71	10.00	9.111	8.334	7.905	7.894	8.338	8.505	9.092	8.993	9.603	9.335	9.114	9.101	8.713	8.798	8.967	8.557	8.643	8.001	8.262	8.092	7.793	7.555
360.0	1902	2865	3758	3897	3275	2482	1969	1839	1914	1977	1964	1779	1661	1559	1414	1242	1050	883.0	742.6	689.9	658.1	458.6	346.1	286.0	299.5	467.7	1012	7768	9999.9	379.6	17.87	5.801	3.454	3.211	2.563	2.400	2.583	1.898	1.940	1.983	2.105	2.567	2.992	3.197	4.249	5.134	6.668	8.816	10.25	10.27	11.41	13.33	12.60	12.14	10.83	9.305	8.740	8.451	8.296	8.584	9.086	9.698	9.722	9.579	9.821	9.766	8.903	8.370	8.658	8.781	8.629	8.461	8.050	8.534	7.950	7.765	7.168
365.0	1856	2664	3512	3677	3265	2542	2033	1870	1953	2012	1953	1750	1608	1515	1370	1206	1043	890.4	755.8	661.0	666.5	571.3	395.5	302.7	244.1	229.1	305.5	2191	9535	8847	308.3	10.01	4.411	3.899	2.823	2.503	2.576	2.036	2.129	2.040	1.905	2.256	2.764	3.323	3.940	4.864	6.410	8.052	9.307	9.527	10.77	13.12	12.65	12.19	10.82	9.824	9.140	8.583	8.723	8.430	9.003	9.318	9.852	9.975	9.988	9.291	9.110	8.216	8.432	7.973	8.249	8.297	7.973	7.945	8.021	7.625	7.467
370.0	1679	2400	3129	3410	3125	2567	2081	1916	1961	2003	1915	1699	1538	1431	1311	1169	1033	893.8	773.2	674.8	627.4	624.3	531.1	374.7	283.5	224.3	188.6	568.0	2684	7667	5654	1231	19.49	5.786	3.524	2.860	2.878	2.031	2.134	2.070	2.005	2.490	2.770	3.128	3.789	4.765	5.523	7.363	8.280	8.573	9.642	12.12	11.90	11.58	10.64	9.742	9.712	8.842	8.870	8.714	9.227	9.426	9.711	9.895	9.907	9.132	8.526	8.330	8.093	7.919	7.779	8.021	8.036	7.680	7.563	7.344	7.089
375.0	1503	2154	2770	3107	3022	2573	2113	1945	1938	1991	1871	1699	1512	1359	1233	1112	1007	889.8	790.7	704.6	649.8	621.9	637.5	521.0	388.0	317.6	247.8	265.6	689.1	1815	3812	7825	1601	25.39	5.281	3.611	3.379	2.061	2.435	2.063	2.180	2.744	2.601	2.893	3.683	4.442	5.005	6.335	7.304	7.916	8.670	11.33	11.45	11.15	10.78	9.717	9.605	9.065	9.199	8.917	9.473	9.142	9.612	9.619	9.403	9.396	8.378	7.874	8.069	7.710	7.723	7.519	7.588	7.583	7.254	6.686	6.844
380.0	1383	1973	2538	2910	2895	2529	2087	1871	1872	1907	1817	1652	1494	1308	1178	1067	969.6	877.1	789.4	721.5	668.8	638.9	639.5	634.7	495.7	395.2	316.7	248.3	285.2	488.0	1004	5258	5559	320.6	15.72	4.778	4.082	2.597	2.537	2.054	2.164	2.501	2.689	2.970	3.591	3.956	4.823	6.038	6.909	7.321	8.417	10.40	10.87	10.88	10.62	10.05	9.705	8.518	9.080	8.687	8.935	8.717	9.300	9.620	9.188	9.041	8.079	7.797	8.202	7.974	7.498	7.238	6.688	6.921	6.764	6.583	6.398
385.0	1333	1779	2322	2622	2711	2462	2014	1770	1751	1779	1706	1553	1422	1241	1107	1010	922.8	849.7	772.9	718.5	676.7	640.1	617.6	627.2	582.6	444.2	350.9	266.3	218.6	215.1	292.0	1445	4640	6161	256.2	8.600	5.008	2.850	2.599	2.087	2.100	2.477	2.643	2.710	3.312	3.946	4.474	5.634	6.193	6.779	7.698	9.632	10.06	10.54	10.09	9.426	9.020	8.556	8.090	8.247	7.802	8.407	8.509	9.279	8.834	8.267	7.571	7.444	7.574	7.392	6.681	6.770	6.833	6.400	6.611	5.932	6.227
390.0	1241	1634	2059	2323	2427	2234	1876	1671	1612	1599	1545	1402	1276	1128	1018	934.1	860.1	802.3	736.2	694.9	664.9	637.8	610.7	587.8	578.1	520.7	395.0	293.5	229.3	181.1	156.9	384.2	1275	4841	3957	1007	18.91	3.633	3.274	2.450	2.285	2.526	2.512	2.442	3.237	3.759	4.057	5.034	5.642	6.051	6.482	8.578	8.748	9.342	9.194	8.672	8.540	8.048	7.831	7.740	7.525	7.599	7.634	7.926	7.863	7.462	7.059	6.934	6.871	6.791	6.465	6.352	6.297	5.917	6.295	5.935	6.010
395.0	1118	1484	1842	2103	2198	2081	1756	1568	1494	1475	1411	1291	1167	1043	942.0	865.0	802.5	759.4	703.9	677.9	659.4	642.0	624.0	595.4	563.1	560.8	493.2	354.8	270.8	208.6	155.8	171.0	341.5	1139	2454	5835	1661	18.67	4.789	3.219	2.718	2.567	2.613	2.669	3.088	3.410	4.031	4.631	5.006	5.251	6.133	7.653	8.245	8.462	8.253	7.846	8.113	7.553	7.469	7.160	7.236	7.306	7.410	7.185	7.320	6.998	6.350	6.629	6.090	6.297	5.841	5.651	5.475	5.626	5.857	5.550	5.734
400.0	1050	1353	1686	1933	2079	1955	1676	1483	1397	1375	1310	1204	1106	985.6	891.3	819.2	763.2	717.3	681.1	662.2	645.4	640.9	629.5	603.7	571.1	553.2	544.2	427.7	314.9	241.9	180.0	143.7	149.0	300.3	635.2	3822	6594	259.5	13.60	3.797	2.899	3.032	2.875	2.502	2.938	3.550	3.708	4.590	4.668	4.924	5.497	6.941	7.683	8.188	7.622	7.551	7.541	7.191	7.086	6.654	6.958	6.804	6.917	6.780	6.748	6.482	6.005	6.037	6.457	5.818	5.310	5.101	5.288	5.160	5.478	5.267	5.419
405.0	999.2	1272	1563	1791	1919	1821	1591	1401	1330	1287	1205	1123	1037	932.3	840.9	774.3	725.4	685.1	652.7	635.7	627.0	629.0	625.4	604.3	576.8	543.0	529.5	485.2	366.2	276.2	206.8	154.3	122.1	127.3	181.9	1048	5736	2278	225.3	6.670	3.434	3.330	2.749	2.533	2.960	3.491	3.516	4.200	4.263	4.408	5.265	6.447	7.135	7.639	7.437	7.205	7.273	7.263	6.820	6.121	6.520	6.335	6.112	6.268	6.248	6.065	5.282	5.422	5.674	5.351	5.107	5.123	5.332	5.042	5.245	4.925	5.030
410.0	957.6	1179	1439	1598	1720	1668	1479	1327	1248	1171	1102	1025	944.3	852.4	782.4	721.4	676.3	641.4	613.8	600.0	597.7	599.9	599.1	590.2	566.7	534.4	502.5	482.0	431.9	325.2	243.2	181.0	135.7	106.4	93.89	271.6	1590	2306	3254	881.9	15.75	4.105	3.142	2.743	2.947	3.265	3.368	3.817	3.915	4.137	4.601	5.861	6.413	6.860	6.639	6.710	6.942	6.678	6.385	5.988	6.161	5.758	5.850	5.714	5.567	5.531	5.019	4.955	5.040	4.882	4.729	4.840	4.793	4.826	4.819	4.719	4.789
415.0	898.0	1065	1301	1450	1561	1522	1394	1250	1186	1081	1007	923.1	859.9	790.8	724.0	675.5	628.4	595.6	573.1	565.0	564.3	571.1	574.8	574.1	552.7	531.3	493.2	456.5	438.2	390.5	283.3	207.6	157.5	118.3	88.81	107.8	387.8	548.8	2016	4113	1364	18.70	4.185	3.083	3.128	3.345	3.268	3.672	3.673	3.881	4.256	5.367	5.892	6.273	6.356	6.042	6.276	6.161	5.969	5.924	5.848	5.448	5.569	5.438	5.161	4.596	4.601	4.537	4.543	4.701	4.527	4.340	4.486	4.598	4.383	4.451	4.554
420.0	855.6	1042	1217	1341	1442	1418	1317	1204	1126	1021	947.0	867.6	802.7	741.7	686.5	632.9	590.1	561.0	544.1	531.1	537.0	547.5	552.4	551.2	540.8	522.4	490.9	453.2	425.1	408.6	325.0	231.3	174.1	129.6	95.43	78.31	126.3	149.4	519.4	2669	4183	253.5	12.01	3.560	3.455	3.195	3.192	3.672	3.651	3.629	4.034	5.143	5.246	5.816	5.862	6.018	6.084	6.041	6.017	5.736	5.572	5.117	5.382	5.363	4.988	4.720	4.392	4.387	4.171	4.129	4.238	4.053	4.210	4.179	4.037	4.233	4.149
425.0	817.7	999.5	1125	1262	1348	1340	1261	1182	1085	989.0	897.4	816.3	754.2	700.3	647.6	597.0	564.8	533.0	515.7	502.6	508.2	517.8	530.6	529.7	527.3	514.2	482.6	452.8	416.3	393.2	355.6	258.1	186.6	140.6	105.4	77.73	73.02	62.63	136.9	724.1	3253	3701	206.1	5.157	3.953	3.487	3.313	3.358	3.683	3.452	3.917	4.751	4.950	5.504	5.425	5.548	5.884	5.710	5.353	5.342	5.502	5.238	4.967	4.947	4.642	4.473	4.342	4.082	4.208	4.005	3.955	3.777	4.284	4.139	4.152	4.080	3.849
430.0	1033	921.1	1077	1178	1242	1255	1190	1127	1045	936.6	838.9	756.6	709.2	653.2	607.7	562.2	528.0	501.3	484.5	471.7	475.9	482.9	494.0	502.1	503.1	492.9	469.4	445.1	410.8	374.7	347.9	294.9	212.2	153.1	117.1	86.50	68.01	50.46	55.74	179.1	873.3	2882	2751	641.5	14.57	4.260	3.600	3.577	3.372	3.255	3.561	4.554	4.877	5.137	5.186	5.227	5.498	5.397	5.305	5.456	5.232	4.882	4.802	4.627	4.441	4.262	3.828	3.909	3.760	3.883	3.897	3.650	3.913	3.876	3.771	3.834	3.622
435.0	2057	901.4	1009	1078	1148	1174	1144	1090	1017	895.2	793.0	705.3	653.8	605.7	571.4	528.6	495.0	468.4	448.2	440.4	442.9	448.7	464.2	470.5	474.4	465.8	450.9	432.2	401.6	369.1	330.4	297.7	246.9	172.7	127.8	97.40	74.45	53.69	42.89	60.95	209.9	668.8	1733	2796	1209	17.11	4.409	3.684	3.530	3.099	3.342	4.304	4.322	4.818	4.917	4.948	5.177	5.243	5.115	5.558	5.155	4.938	4.747	4.490	4.169	3.747	3.982	3.654	3.477	3.420	3.520	3.436	3.366	3.625	3.328	3.349	3.425
440.0	3186	1094	933.9	1017	1081	1128	1105	1066	988.8	863.0	751.3	680.7	622.1	578.3	544.5	504.8	469.2	443.2	427.9	416.4	417.5	423.2	437.8	445.6	451.8	445.4	436.9	420.9	394.9	361.7	322.5	281.6	253.2	196.4	137.1	105.1	79.51	58.93	44.15	38.57	64.60	162.7	451.9	1951	3916	227.6	10.68	4.190	3.323	3.209	3.412	4.145	4.312	4.491	4.517	4.792	4.973	5.259	4.971	5.140	5.188	4.530	4.565	4.189	4.161	3.676	3.707	3.387	3.080	3.374	3.243	3.243	3.516	3.426	3.234	3.225	3.442
445.0	3372	1706	913.7	986.2	1025	1078	1066	1034	938.7	831.4	721.2	654.3	587.4	546.9	512.7	477.5	443.2	422.7	406.0	395.5	395.1	397.8	409.9	422.8	428.2	422.7	417.0	400.5	385.7	356.6	316.9	271.2	242.1	211.3	149.8	110.6	83.64	63.91	48.80	37.21	35.03	52.15	113.6	548.8	3330	3219	172.7	6.332	3.602	3.226	3.414	3.989	3.915	4.298	4.255	4.548	4.811	4.888	5.030	5.150	4.965	4.539	4.456	3.975	3.937	3.686	3.395	3.322	3.118	3.115	3.314	3.063	3.214	3.219	3.091	3.131	3.036
450.0	2127	3451	1095	904.6	958.8	994.7	998.8	971.3	898.1	783.0	671.0	592.6	541.7	507.9	474.4	443.3	412.7	387.6	372.8	361.3	358.3	362.1	373.5	384.6	391.6	391.4	385.6	375.8	363.6	338.6	304.5	260.3	222.8	199.1	166.8	122.3	89.21	69.58	54.01	41.15	33.35	31.48	40.18	133.9	914.7	2638	2597	652.5	11.39	3.361	3.368	4.046	3.926	4.053	4.079	4.342	4.487	4.700	4.751	4.990	4.511	4.359	4.195	3.811	3.658	3.355	3.070	3.005	3.018	2.924	3.172	3.055	2.895	3.060	3.156	2.905	3.046
455.0	975.0	3509	2700	839.1	865.3	913.6	914.8	900.5	831.5	720.7	624.4	547.5	491.6	462.0	428.3	400.5	375.7	351.7	340.0	328.3	320.5	320.4	334.8	344.3	350.7	353.0	348.0	343.8	333.4	313.4	285.8	247.0	208.1	180.4	161.5	136.5	98.39	74.15	57.17	45.19	36.88	30.86	27.00	43.07	214.3	615.5	1585	2891	203.2	12.21	3.663	3.946	4.068	3.872	3.841	3.951	4.420	4.444	4.343	4.241	4.330	4.146	4.104	3.623	3.514	2.942	3.004	2.934	2.613	2.698	2.575	2.709	2.663	3.061	2.753	2.786	2.804
460.0	609.0	2253	4253	914.6	793.6	850.8	856.2	849.0	780.9	681.5	573.4	507.4	456.9	424.6	399.4	371.3	346.8	325.7	311.0	300.0	295.6	293.1	304.2	311.8	321.9	321.1	322.2	318.9	313.0	296.0	270.8	236.0	198.1	168.3	145.8	138.0	109.3	77.83	59.47	48.45	40.70	32.08	25.51	24.73	59.45	146.7	403.5	1933	1654	165.9	8.784	3.922	3.996	3.694	3.614	3.849	4.210	4.012	4.283	4.100	4.085	4.002	4.001	3.612	3.243	3.010	2.765	2.608	2.727	2.692	2.483	2.540	2.585	2.754	2.427	2.668	2.643
465.0	486.2	1215	4483	2103	751.6	784.2	806.0	791.2	730.8	635.8	541.5	473.6	420.9	394.2	376.3	345.6	324.0	298.0	283.9	276.2	273.9	269.6	278.9	283.4	292.7	294.1	296.9	294.2	285.6	277.0	252.8	220.8	187.6	160.2	134.3	127.9	114.5	82.88	61.89	50.11	42.21	33.45	26.70	21.73	25.46	42.40	98.53	539.1	1756	1405	140.5	6.131	3.753	3.631	3.530	3.863	3.889	3.737	3.927	4.076	3.879	3.610	3.569	3.311	3.085	2.789	2.531	2.365	2.438	2.391	2.322	2.357	2.499	2.480	2.417	2.440	2.442
470.0	471.3	695.2	2677	4542	991.8	701.7	723.7	709.8	664.6	579.8	490.4	420.5	379.1	356.4	333.5	308.0	285.5	267.4	250.6	243.1	238.3	239.0	243.4	249.4	257.1	259.4	259.4	258.8	255.3	246.5	229.0	201.6	173.3	148.1	125.4	110.7	102.8	90.04	66.82	50.66	42.39	34.09	27.88	21.43	18.45	19.50	29.82	127.1	489.8	1271	1614	630.1	12.01	3.666	3.356	3.662	3.744	3.660	3.722	3.757	3.600	3.363	3.311	3.110	2.879	2.580	2.470	2.275	2.241	2.170	2.159	2.199	2.278	2.278	2.181	2.132	2.248
475.0	430.5	488.4	1095	4732	2414	628.7	646.8	637.6	592.9	516.2	436.8	374.7	338.0	311.2	290.9	272.7	251.1	234.7	218.5	214.4	207.5	206.0	209.9	214.9	222.3	225.2	222.9	227.2	224.5	216.5	202.3	180.6	156.6	136.2	114.8	99.56	87.62	84.11	72.37	53.82	42.20	33.86	27.72	22.00	17.43	14.38	14.38	34.65	114.4	293.2	871.7	2264	212.0	14.45	3.190	3.610	3.341	3.319	3.343	3.483	3.184	3.142	2.940	2.586	2.503	2.388	2.180	2.122	1.980	2.020	1.860	1.864	2.154	2.014	2.093	1.953	2.121
480.0	410.7	456.5	605.3	3020	3932	805.6	588.7	585.9	540.9	469.8	401.3	343.4	311.2	283.2	264.9	247.8	228.6	211.8	198.5	192.9	186.5	185.6	189.2	191.7	198.8	202.3	203.5	205.0	201.6	199.0	182.7	165.2	145.1	124.8	106.6	93.11	80.44	73.92	72.63	58.77	42.60	33.29	27.40	21.96	17.91	14.11	11.27	13.94	30.45	69.73	217.6	1327	1707	196.3	8.134	3.676	3.269	3.229	3.349	3.194	3.102	3.113	2.699	2.506	2.474	2.215	1.987	1.856	1.786	1.919	1.850	1.697	1.874	1.768	1.953	1.917	1.656
485.0	390.7	455.4	473.4	1469	4333	1729	545.0	534.0	503.3	439.1	368.2	314.1	282.9	263.5	245.7	226.0	208.9	194.9	185.3	174.3	169.6	168.1	172.8	175.2	181.2	183.5	185.7	186.3	185.2	182.5	169.4	154.9	134.7	117.3	100.9	87.29	75.92	65.96	66.88	60.83	45.09	34.01	26.96	21.96	17.76	14.34	11.05	9.575	12.01	19.96	52.60	354.2	1552	1473	148.3	5.052	3.382	3.169	3.191	2.838	2.800	2.894	2.674	2.234	2.465	2.143	1.986	1.726	1.605	1.716	1.768	1.732	1.737	1.750	1.585	1.842	1.769
490.0	311.0	448.9	424.3	671.4	2687	3978	700.1	478.4	449.4	396.3	337.5	284.6	256.7	237.3	220.0	201.9	186.6	175.1	165.6	156.3	151.4	148.5	153.5	154.6	159.2	162.2	163.3	164.6	165.3	162.3	153.7	138.8	122.8	107.2	93.51	81.47	70.35	61.82	55.97	55.28	49.47	36.15	26.78	21.50	17.55	13.91	11.13	9.387	8.073	8.788	15.57	82.96	413.1	996.7	1298	618.3	13.96	3.237	3.128	3.008	2.726	2.704	2.394	2.254	2.066	1.941	1.792	1.719	1.674	1.589	1.515	1.607	1.596	1.637	1.537	1.653	1.566
495.0	274.6	396.1	412.1	422.1	1047	4607	1812	436.4	397.3	347.8	303.7	254.9	228.3	208.4	192.2	174.6	162.2	156.4	146.2	138.5	130.4	129.6	131.7	132.9	138.1	139.9	143.7	144.5	145.5	142.7	133.9	123.0	109.4	95.88	84.63	73.75	64.35	56.77	50.07	46.14	46.45	40.44	28.94	21.74	16.84	13.60	11.19	9.508	7.925	6.653	7.573	22.34	95.49	228.5	664.7	2079	877.2	16.47	3.374	2.791	2.614	2.456	2.245	2.172	1.936	1.795	1.545	1.543	1.673	1.409	1.437	1.401	1.607	1.541	1.259	1.389	1.451
500.0	222.4	331.7	414.0	353.7	503.8	3130	3212	504.4	362.8	314.3	277.8	238.6	208.7	188.6	173.8	161.5	145.3	138.4	129.7	124.6	118.5	116.2	117.0	119.9	122.2	125.4	127.1	130.0	129.4	129.7	121.4	110.1	100.5	86.95	76.64	68.07	60.49	51.94	46.24	41.02	40.16	40.39	31.46	21.91	16.53	13.55	11.29	9.473	7.813	6.104	5.665	8.655	24.59	54.21	163.5	1156	2030	216.9	12.14	3.093	2.590	2.213	2.036	1.976	1.862	1.620	1.458	1.430	1.461	1.332	1.373	1.209	1.449	1.275	1.204	1.342	1.292
505.0	188.0	270.0	406.0	333.9	346.0	1486	3901	1103	332.5	289.5	250.6	216.0	188.6	170.0	157.4	145.0	133.1	123.2	117.7	109.2	106.9	104.1	105.1	108.3	109.2	111.8	113.7	114.9	115.3	114.0	108.9	99.44	89.17	79.12	69.28	62.67	55.76	48.24	43.04	38.03	34.86	35.65	33.55	22.92	16.27	13.45	11.29	8.588	7.686	6.199	5.450	5.416	8.636	15.05	39.50	301.1	1415	1336	194.6	6.741	2.635	2.256	2.019	1.967	1.743	1.447	1.309	1.390	1.262	1.281	1.318	1.089	1.348	1.258	1.331	1.195	1.280
510.0	170.7	218.1	320.8	336.0	280.9	583.6	2544	2922	466.2	253.0	219.4	187.0	162.4	148.0	136.2	127.3	115.1	107.2	100.0	95.34	92.12	89.93	90.40	93.21	94.22	96.19	97.01	98.64	99.55	98.12	94.14	85.65	77.63	69.19	61.14	54.18	48.73	43.63	38.33	34.09	30.34	28.01	29.71	25.29	17.61	12.81	10.69	8.650	7.159	6.153	5.567	4.897	5.230	6.275	11.63	70.24	361.9	808.4	1617	645.7	13.96	2.407	1.949	1.810	1.529	1.384	1.321	1.262	1.134	1.212	1.154	1.076	1.164	1.210	1.108	1.084	1.068
515.0	155.7	179.2	230.7	324.4	260.6	305.7	935.3	3696	1521	230.4	189.5	162.4	144.6	128.4	116.0	107.7	96.51	89.37	85.18	79.91	78.14	75.78	75.96	77.09	79.23	81.02	81.54	81.73	82.61	83.45	80.32	73.30	65.62	59.24	53.25	47.16	42.21	38.53	33.58	30.12	26.42	23.30	22.63	22.90	20.53	13.31	9.773	8.061	6.701	5.754	5.301	4.919	4.242	4.099	5.162	18.36	83.09	183.9	710.8	1752	826.1	19.04	2.105	1.784	1.433	1.259	1.165	1.105	1.088	1.082	0.979	1.079	1.080	1.108	1.028	0.967	0.977
520.0	138.9	163.3	186.5	270.1	271.3	231.2	389.8	2604	3054	274.5	171.7	144.2	126.9	113.9	103.2	93.90	85.70	77.49	76.12	71.06	68.10	66.98	67.01	68.04	70.62	69.62	70.26	71.97	72.40	72.69	70.65	63.89	57.70	52.00	46.47	42.27	37.18	34.35	30.10	27.11	23.67	20.97	18.89	19.15	20.78	14.84	9.582	7.617	6.369	5.484	5.042	5.000	4.183	3.742	3.516	6.613	21.08	43.17	169.3	813.8	1726	237.2	11.60	1.856	1.680	1.066	1.122	1.080	0.966	0.939	0.929	0.930	0.994	0.913	0.965	1.003	0.991
525.0	126.7	144.2	151.2	222.7	276.2	198.5	234.7	1208	3911	876.8	153.9	129.1	112.7	99.49	91.01	83.19	75.79	69.12	67.61	61.82	59.58	59.55	58.55	60.31	61.13	62.22	61.90	62.86	63.89	63.49	61.90	56.95	51.18	46.19	40.86	36.85	33.88	30.94	26.58	24.59	21.87	18.55	16.40	15.50	17.39	16.27	10.80	7.442	6.057	5.354	4.706	4.370	4.398	3.696	3.060	3.833	6.817	11.83	40.19	198.0	1012	1389	193.7	5.301	1.664	1.179	1.040	0.933	1.006	0.960	0.921	0.856	0.900	0.861	0.814	0.805	0.851
530.0	108.6	122.4	129.4	162.4	243.0	210.4	175.6	424.8	2516	2694	206.1	113.1	97.50	86.03	77.32	71.67	66.19	59.74	56.13	53.18	51.66	49.43	49.41	50.86	51.99	51.76	52.82	52.91	54.42	54.04	52.23	48.23	44.14	39.47	35.44	31.78	29.16	26.05	23.80	21.51	19.31	16.39	14.45	13.06	12.81	14.30	12.78	8.509	5.969	4.947	4.254	3.997	3.724	3.793	3.225	3.025	3.677	4.671	10.96	46.12	247.8	705.4	884.9	401.5	14.55	1.400	1.063	0.884	0.987	0.855	0.830	0.757	0.768	0.792	0.726	0.768	0.742
535.0	91.40	102.0	108.8	126.3	182.3	229.0	149.3	200.0	834.0	3624	1343	106.1	82.63	72.95	64.65	59.90	55.39	49.97	47.41	44.25	41.94	41.49	40.60	42.37	43.05	43.02	43.66	44.05	44.78	44.90	43.15	40.18	36.90	32.60	30.29	27.81	24.67	21.99	20.40	17.91	16.91	14.70	12.28	11.06	9.999	10.10	11.73	10.07	6.101	4.548	3.827	3.490	3.259	3.383	3.349	2.837	2.784	2.772	4.191	12.01	56.74	159.3	302.4	929.5	653.8	19.51	1.344	0.945	0.903	0.849	0.721	0.702	0.780	0.666	0.705	0.696	0.728
540.0	88.97	96.32	103.2	105.5	130.8	220.7	148.9	139.2	291.7	2329	3280	171.5	72.60	63.48	57.16	53.35	48.81	43.01	40.92	39.31	37.19	36.28	35.47	34.73	36.28	36.51	37.09	37.70	38.21	38.40	36.96	34.93	32.16	29.32	26.12	23.60	21.24	19.63	17.82	15.40	14.76	12.75	11.10	9.681	8.728	7.830	9.200	10.28	7.142	4.605	3.638	3.507	2.819	2.913	2.964	3.148	2.613	2.087	2.352	4.192	14.07	37.20	70.30	390.9	1110	231.2	12.52	1.239	0.973	0.856	0.749	0.701	0.681	0.632	0.670	0.627	0.621
545.0	83.51	93.17	92.56	92.74	103.0	182.6	162.6	110.3	151.0	932.7	4222	789.8	66.06	56.99	49.52	47.24	41.68	37.95	36.09	34.00	32.59	32.12	31.19	31.14	30.78	31.35	31.51	33.40	33.77	32.96	31.74	30.23	27.88	25.22	23.31	20.24	18.55	17.85	14.77	14.10	12.74	11.32	9.868	8.480	7.836	7.106	6.950	8.937	8.009	4.953	3.581	3.187	2.641	2.478	2.399	2.860	2.780	1.941	1.923	2.322	4.440	9.702	16.94	92.91	541.0	675.8	194.1	9.730	0.945	0.920	0.725	0.723	0.635	0.563	0.660	0.569	0.614
550.0	93.84	91.19	90.51	77.64	83.09	121.2	177.8	108.5	104.4	295.2	2389	3175	120.6	48.31	42.09	37.29	34.79	30.96	29.70	27.53	26.45	26.09	25.67	25.30	25.27	25.70	25.63	26.67	27.44	26.82	26.70	24.29	22.31	20.34	18.66	16.91	14.69	14.48	12.93	12.00	10.62	9.406	8.273	7.401	6.616	5.997	5.372	5.997	6.915	5.820	3.811	2.868	2.484	2.144	2.217	2.268	2.551	2.336	1.856	1.880	2.168	3.247	4.798	21.82	128.0	284.7	551.1	330.0	16.25	1.124	0.692	0.701	0.627	0.571	0.607	0.497	0.642
555.0	106.6	105.1	90.89	77.28	67.79	82.71	144.7	130.4	88.56	126.9	692.3	3938	955.4	43.63	34.49	30.67	28.43	25.00	24.09	22.26	21.18	21.04	20.64	21.13	21.03	20.16	20.45	21.07	21.66	21.58	20.74	18.76	17.31	15.92	14.34	13.58	12.34	11.15	10.36	9.314	8.645	7.786	6.774	5.981	5.599	4.920	4.449	4.283	5.030	5.506	4.570	2.911	2.237	1.979	1.881	1.923	1.917	2.079	2.103	1.676	1.606	1.692	1.913	5.843	29.35	64.42	166.3	450.3	454.6	22.40	0.867	0.803	0.675	0.554	0.536	0.499	0.469
560.0	121.9	121.3	98.33	69.85	65.62	62.93	106.5	153.6	85.46	91.69	216.8	2391	2394	81.79	29.09	25.93	23.66	21.22	19.50	18.27	18.32	17.32	17.24	17.55	17.10	16.88	16.77	17.54	18.00	17.15	17.20	15.52	14.09	13.56	12.13	11.31	10.42	9.368	8.415	8.029	7.195	6.706	5.832	5.299	4.751	4.414	3.920	3.518	3.506	4.406	4.607	3.397	2.098	1.626	1.699	1.649	1.703	1.637	2.013	1.800	1.401	1.293	1.311	2.188	7.469	15.21	38.48	157.1	579.8	240.6	14.09	0.922	0.669	0.561	0.511	0.524	0.531
565.0	145.2	133.3	102.0	69.93	54.57	55.68	77.18	159.7	95.43	80.47	108.5	928.9	3096	319.4	25.07	22.21	19.32	17.98	16.83	15.45	14.45	14.53	14.74	13.83	13.83	14.09	13.97	14.56	14.80	14.69	14.44	13.00	12.23	11.31	10.61	9.579	8.517	7.862	7.217	6.923	5.971	5.567	5.091	4.678	4.144	3.894	3.490	3.054	2.861	3.158	3.943	3.687	2.347	1.680	1.462	1.388	1.537	1.487	1.870	1.959	1.390	1.188	1.162	1.183	2.550	4.222	9.413	36.67	232.0	542.3	176.8	12.12	0.724	0.605	0.490	0.591	0.499
570.0	157.9	143.7	112.0	67.33	48.10	47.32	56.84	119.2	129.7	82.90	85.05	283.5	1779	1260	69.58	18.44	16.36	14.64	13.18	12.67	11.81	11.83	11.48	11.31	11.62	11.35	11.35	11.50	11.79	11.34	11.51	10.58	9.517	9.129	8.209	7.631	7.220	6.537	5.950	5.719	5.049	4.810	4.292	3.971	3.516	3.378	2.942	2.724	2.471	2.215	2.621	3.259	2.590	1.739	1.328	1.246	1.343	1.138	1.345	1.554	1.731	1.358	1.060	0.933	1.271	1.567	2.792	8.901	53.75	201.9	302.7	260.1	17.84	0.921	0.628	0.554	0.455
575.0	151.5	156.0	112.5	69.03	43.26	39.79	45.96	76.67	142.8	94.84	81.98	118.3	518.3	1583	616.6	18.21	13.90	11.55	10.80	10.34	9.445	9.339	9.374	8.872	9.298	8.913	9.172	8.673	8.867	8.976	9.159	8.660	7.911	7.175	6.385	6.294	5.757	5.227	5.028	4.507	4.079	3.922	3.447	3.142	3.157	2.826	2.596	2.229	1.974	1.650	1.726	2.059	2.617	2.035	1.374	1.076	1.171	1.128	1.094	1.175	1.261	1.594	1.235	0.882	0.907	0.977	1.462	2.576	12.69	45.65	81.19	287.7	268.0	23.95	0.730	0.609	0.413
580.0	152.9	168.3	114.3	67.32	43.15	36.12	39.17	55.27	129.1	119.7	83.60	84.07	162.4	968.9	1445	45.60	11.16	10.47	9.729	8.516	8.282	7.983	7.631	7.868	7.323	7.297	7.089	7.797	7.564	7.385	7.327	6.993	6.382	6.218	5.572	5.394	4.806	4.425	4.073	3.778	3.645	3.293	2.851	2.610	2.506	2.496	2.144	2.000	1.684	1.511	1.500	1.551	2.103	2.272	1.431	1.170	1.076	0.924	0.940	0.957	1.016	1.355	1.311	0.949	0.793	0.863	1.072	1.258	3.579	10.77	18.73	93.40	392.7	222.8	15.25	0.636	0.453
585.0	158.6	161.7	115.8	63.48	40.61	33.38	37.49	47.09	94.47	137.5	84.29	74.65	73.41	354.7	1862	111.8	10.59	8.990	7.925	6.927	6.887	6.872	6.521	6.849	6.519	5.844	6.620	6.579	6.407	6.500	6.131	5.908	5.220	4.985	4.689	4.312	4.027	3.898	3.681	3.278	3.098	2.771	2.544	2.276	2.276	1.922	1.875	1.845	1.511	1.347	1.227	1.258	1.605	1.939	1.610	1.292	1.019	0.860	0.846	0.906	0.843	1.037	1.364	1.237	0.819	0.792	0.849	0.798	1.333	3.105	4.664	21.63	148.0	341.7	176.4	5.174	0.514
590.0	160.5	155.6	113.9	63.06	35.77	30.85	33.26	42.26	68.65	131.8	99.64	70.10	53.82	106.1	1056	1016	35.50	7.662	6.941	6.646	5.954	5.725	5.395	5.473	5.456	4.900	5.388	5.653	5.207	5.094	4.944	4.679	4.299	4.090	3.892	3.476	3.417	3.224	2.965	2.763	2.496	2.329	2.173	2.094	2.032	1.825	1.692	1.687	1.361	1.120	1.088	1.034	1.101	1.436	1.743	1.469	1.047	0.787	0.795	0.848	0.738	0.874	0.990	1.184	1.054	0.900	0.772	0.735	0.799	1.224	1.468	5.289	34.19	120.3	283.8	136.7	14.90
595.0	144.5	133.2	100.4	56.69	34.61	28.53	31.95	38.46	52.40	94.76	123.8	70.88	48.93	43.72	299.9	1366	301.3	7.998	6.484	5.490	4.895	4.437	4.299	4.459	4.428	4.203	4.014	4.381	4.064	4.239	4.213	3.679	3.760	3.300	3.104	3.120	2.595	2.593	2.242	2.316	2.243	1.897	1.861	1.949	1.651	1.578	1.538	1.352	1.311	0.982	0.945	0.893	0.859	0.899	1.238	1.480	1.108	0.900	0.791	0.676	0.739	0.751	0.745	0.903	1.204	0.996	0.800	0.767	0.707	0.856	0.818	1.546	8.094	27.24	75.10	182.5	170.5
600.0	131.0	130.1	96.72	52.28	30.24	27.44	29.23	39.24	50.16	74.27	126.3	77.83	48.45	30.93	82.95	850.0	749.6	16.77	5.555	4.956	4.389	4.061	3.685	3.947	3.818	3.629	3.420	3.729	3.566	3.354	3.385	3.340	2.996	2.676	2.679	2.551	2.346	2.101	1.929	1.889	1.735	1.863	1.513	1.595	1.350	1.461	1.363	1.229	1.038	0.899	0.836	0.823	0.708	0.680	0.956	1.258	1.359	0.969	0.743	0.646	0.624	0.800	0.692	0.799	0.986	1.160	0.833	0.771	0.677	0.688	0.635	0.706	2.184	6.419	17.25	59.31	185.8
605.0	117.0	121.9	87.68	50.83	31.36	29.33	29.55	39.47	49.52	66.29	114.1	91.74	49.05	30.83	33.32	317.8	1147	70.97	5.746	4.555	3.869	3.419	3.270	3.409	3.285	2.979	2.903	3.069	3.127	3.160	3.000	2.760	2.549	2.724	2.261	2.258	2.113	2.072	1.725	1.647	1.577	1.502	1.397	1.299	1.316	1.293	1.209	1.113	0.884	0.845	0.756	0.765	0.599	0.731	0.682	1.115	1.161	1.071	0.740	0.629	0.653	0.734	0.643	0.689	0.758	1.047	1.025	0.755	0.643	0.541	0.608	0.527	0.883	1.771	4.274	13.86	68.73
610.0	104.7	108.5	85.05	47.14	30.06	25.78	30.39	40.30	51.12	65.77	93.78	111.8	56.83	32.70	25.43	89.97	743.1	487.5	22.04	4.367	3.167	3.003	2.836	2.897	2.933	2.700	2.589	2.510	2.693	2.652	2.529	2.250	2.105	2.131	1.943	1.807	1.776	1.729	1.609	1.447	1.280	1.234	1.153	1.012	1.119	1.107	0.955	0.837	0.856	0.727	0.605	0.629	0.586	0.593	0.573	0.699	0.918	1.073	0.861	0.728	0.646	0.633	0.627	0.689	0.713	0.801	0.908	0.908	0.731	0.541	0.612	0.504	0.561	0.711	1.304	3.416	16.02
615.0	101.1	99.40	73.21	45.56	26.65	27.60	34.08	41.77	53.22	63.50	80.06	106.5	72.89	35.84	25.86	34.20	217.8	721.6	195.4	4.549	2.869	2.600	2.870	2.506	2.547	2.204	2.226	2.149	2.432	2.167	2.032	1.762	1.842	1.728	1.757	1.346	1.365	1.252	1.352	1.171	1.023	1.014	0.967	0.945	1.063	0.897	0.847	0.790	0.759	0.635	0.552	0.538	0.530	0.564	0.457	0.517	0.748	0.900	0.966	0.804	0.644	0.579	0.571	0.699	0.666	0.683	0.691	0.908	0.818	0.703	0.531	0.564	0.509	0.481	0.674	1.113	3.888
620.0	104.1	93.42	73.62	44.13	27.77	25.92	34.55	42.19	53.77	61.17	74.31	92.84	85.18	39.64	28.80	22.41	64.38	507.5	568.1	10.02	2.524	2.435	2.403	2.396	2.230	1.928	1.849	1.994	1.883	1.759	1.542	1.521	1.589	1.678	1.531	1.364	1.312	1.185	1.294	1.032	0.947	0.940	0.813	0.798	0.864	0.936	0.762	0.752	0.660	0.631	0.547	0.564	0.518	0.519	0.409	0.480	0.492	0.708	0.944	0.860	0.696	0.617	0.577	0.649	0.578	0.633	0.727	0.687	0.894	0.765	0.530	0.496	0.459	0.402	0.431	0.565	1.235
625.0	83.28	94.74	67.06	43.21	27.63	25.31	33.83	44.15	49.88	59.30	70.27	77.88	91.33	45.04	29.02	20.32	26.47	214.8	948.7	52.58	2.788	2.298	2.343	1.967	1.876	1.770	1.502	2.023	1.637	1.709	1.415	1.396	1.492	1.383	1.243	1.073	1.079	1.169	1.024	1.000	0.909	0.851	0.759	0.762	0.747	0.732	0.704	0.700	0.661	0.531	0.490	0.467	0.483	0.534	0.487	0.455	0.482	0.528	0.769	0.846	0.689	0.609	0.611	0.672	0.580	0.618	0.733	0.672	0.773	0.840	0.572	0.522	0.605	0.397	0.516	0.458	0.622
630.0	83.82	80.86	61.11	40.10	26.49	25.69	33.07	39.70	48.61	59.62	68.41	70.38	81.08	55.25	29.78	20.78	19.50	63.32	692.1	516.1	8.206	2.177	2.026	2.038	1.650	1.617	1.418	1.674	1.424	1.428	1.260	1.238	1.172	1.130	1.022	0.986	0.929	0.849	0.860	0.835	0.858	0.734	0.672	0.670	0.716	0.646	0.651	0.627	0.610	0.464	0.477	0.499	0.467	0.446	0.429	0.447	0.468	0.486	0.687	0.777	0.681	0.695	0.640	0.617	0.582	0.678	0.686	0.604	0.676	0.709	0.700	0.599	0.548	0.474	0.424	0.432	0.454
635.0	72.67	75.58	57.05	37.85	29.09	23.39	30.82	40.51	48.55	57.19	66.34	67.55	65.19	65.74	34.62	21.74	17.63	23.12	205.9	900.5	57.42	2.644	1.837	1.983	1.521	1.284	1.288	1.441	1.290	1.445	1.205	1.008	0.866	1.049	0.864	0.868	0.952	0.783	0.767	0.787	0.814	0.745	0.684	0.614	0.556	0.639	0.518	0.641	0.533	0.427	0.418	0.405	0.413	0.396	0.367	0.451	0.429	0.433	0.525	0.693	0.577	0.704	0.573	0.521	0.612	0.588	0.607	0.598	0.559	0.618	0.675	0.651	0.502	0.424	0.488	0.445	0.356
640.0	67.65	76.69	58.13	38.90	24.79	24.62	29.62	38.64	43.39	52.97	61.46	62.93	59.31	65.80	38.48	22.47	17.51	14.28	55.90	704.3	249.5	4.879	1.865	1.977	1.576	1.197	1.288	1.291	1.317	1.122	1.016	1.006	0.840	0.883	0.752	0.788	0.888	0.671	0.619	0.704	0.647	0.679	0.523	0.547	0.577	0.638	0.581	0.602	0.452	0.380	0.364	0.500	0.415	0.419	0.336	0.457	0.421	0.422	0.468	0.587	0.543	0.710	0.706	0.572	0.614	0.497	0.590	0.517	0.611	0.579	0.497	0.555	0.603	0.487	0.483	0.524	0.436
645.0	75.19	84.82	67.56	45.64	24.79	22.92	31.66	37.01	44.73	53.19	58.90	62.59	56.08	58.91	48.90	24.79	18.81	13.34	19.17	313.8	443.2	26.80	1.777	1.875	1.441	1.051	1.316	1.150	1.136	1.227	1.012	0.803	0.894	0.798	0.762	0.665	0.716	0.566	0.598	0.627	0.613	0.777	0.557	0.424	0.533	0.627	0.526	0.597	0.475	0.401	0.385	0.333	0.365	0.398	0.373	0.387	0.456	0.440	0.507	0.541	0.518	0.549	0.711	0.649	0.613	0.562	0.602	0.608	0.576	0.515	0.492	0.522	0.641	0.528	0.479	0.416	0.423
650.0	83.44	84.12	75.76	47.45	29.69	26.98	30.19	35.48	43.07	53.25	57.98	60.69	55.59	52.70	54.34	27.17	20.20	14.12	11.62	93.81	456.0	137.5	2.066	1.904	1.602	1.127	1.147	1.194	0.907	1.062	0.999	0.771	0.781	0.906	0.741	0.651	0.631	0.545	0.611	0.554	0.525	0.783	0.571	0.446	0.499	0.593	0.558	0.586	0.496	0.406	0.387	0.429	0.371	0.439	0.322	0.368	0.375	0.422	0.501	0.482	0.473	0.516	0.650	0.625	0.554	0.540	0.578	0.614	0.577	0.575	0.487	0.619	0.646	0.628	0.545	0.425	0.464
