Sample:	'1
File name:	g2025082008 308¹úµÀ.FD3
Run date:	'16:24:53, 08/20/2025
Operator:	Administrator
Comment:	'

Instrument
Model:	F-2700 FL Spectrophotometer
Serial number:	23B8-004
ROM Version:	4J14000 07

Instrument parameters
Measurement type:	3-D scan
Data mode:	Fluorescence
EX  Start WL:	220.0 nm
EX  End WL:	600.0 nm
EX Sampling interval:	5.0 nm
EM  Start WL:	230.0 nm
EM  End WL:	650.0 nm
EM Sampling interval:	5.0 nm
Scan speed:	12000 nm/min
EX Slit:	5.0 nm
EM Slit:	5.0 nm
PMT Voltage:	700 V
Response:	Auto 
Corrected spectra:	Off
Contour interval:	50.000

Peak integration
Integration method:	Rectangular
Sensitivity:	1
Threshold:	1.000

Peaks
No.	ApexEX/EM(nm)	Height(Data)
1	225.0/305.0	940.7
2	225.0/490.0	297.5
3	225.0/590.0	70.00
4	225.0/610.0	66.24
5	230.0/340.0	833.7
6	230.0/500.0	289.8
7	235.0/510.0	245.1
8	240.0/265.0	413.2
9	240.0/525.0	219.8
10	245.0/270.0	410.4
11	245.0/535.0	193.9
12	250.0/275.0	521.2
13	250.0/550.0	161.0
14	255.0/280.0	624.8
15	255.0/565.0	137.3
16	260.0/575.0	126.5
17	265.0/590.0	137.5
18	270.0/300.0	1713
19	270.0/600.0	144.8
20	275.0/305.0	1841
21	275.0/610.0	126.4
22	280.0/335.0	1116
23	280.0/625.0	93.48
24	285.0/640.0	62.05
25	290.0/325.0	1156
26	300.0/340.0	1235
27	305.0/345.0	1090
28	330.0/375.0	339.7
29	335.0/380.0	336.2
30	340.0/390.0	309.5
31	345.0/395.0	296.9
32	350.0/400.0	295.1
33	360.0/415.0	250.9
34	365.0/420.0	247.4
35	410.0/480.0	66.08
36	430.0/505.0	37.75
37	455.0/540.0	15.46
38	485.0/265.0	2.414
39	485.0/340.0	3.180
40	495.0/270.0	2.349
41	505.0/275.0	3.371
42	510.0/280.0	3.702
43	520.0/285.0	4.300
44	530.0/290.0	4.372
45	540.0/295.0	7.197
46	545.0/300.0	8.062
47	555.0/305.0	8.704
48	560.0/310.0	7.456
49	570.0/315.0	6.748
50	580.0/320.0	6.027
51	585.0/325.0	6.508

Data points
	220.0	225.0	230.0	235.0	240.0	245.0	250.0	255.0	260.0	265.0	270.0	275.0	280.0	285.0	290.0	295.0	300.0	305.0	310.0	315.0	320.0	325.0	330.0	335.0	340.0	345.0	350.0	355.0	360.0	365.0	370.0	375.0	380.0	385.0	390.0	395.0	400.0	405.0	410.0	415.0	420.0	425.0	430.0	435.0	440.0	445.0	450.0	455.0	460.0	465.0	470.0	475.0	480.0	485.0	490.0	495.0	500.0	505.0	510.0	515.0	520.0	525.0	530.0	535.0	540.0	545.0	550.0	555.0	560.0	565.0	570.0	575.0	580.0	585.0	590.0	595.0	600.0
230.0	45.17	802.6	2023	587.1	22.39	3.395	3.233	2.864	2.311	2.611	2.173	2.211	2.071	1.574	1.502	1.188	1.122	1.087	0.938	0.766	0.783	0.547	0.603	0.620	0.525	0.466	0.396	0.392	0.504	0.377	0.337	0.302	0.265	0.246	0.262	0.302	0.245	0.210	0.218	0.225	0.278	0.453	0.439	0.273	0.187	0.223	1.180	6.009	10.46	7.940	2.959	0.501	0.107	0.123	0.103	0.078	0.122	0.149	0.129	0.119	0.121	0.084	0.087	0.144	0.088	0.089	0.118	0.084	0.097	0.094	0.092	0.050	0.079	0.080	0.083	0.107	0.105
235.0	99.43	229.8	1248	2086	529.1	43.64	3.707	3.762	2.573	2.696	2.705	2.643	1.718	1.583	1.673	1.365	1.136	1.181	1.035	0.813	0.609	0.586	0.666	0.561	0.677	0.473	0.372	0.578	0.466	0.326	0.364	0.264	0.239	0.230	0.204	0.285	0.278	0.193	0.262	0.155	0.259	0.271	0.409	0.563	0.476	0.168	0.371	1.564	3.925	7.234	10.62	11.72	5.546	1.188	0.163	0.065	0.096	0.117	0.134	0.118	0.044	0.172	0.162	0.076	0.058	0.043	0.066	0.131	0.089	0.080	0.066	0.084	0.021	0.078	0.089	0.078	0.095
240.0	201.6	149.6	370.0	1732	2323	416.0	22.80	4.466	3.351	3.630	3.284	2.206	2.527	1.791	1.684	1.388	1.306	1.515	0.979	0.853	0.510	0.610	0.592	0.447	0.500	0.512	0.418	0.406	0.385	0.379	0.360	0.278	0.255	0.288	0.259	0.289	0.295	0.185	0.259	0.163	0.166	0.265	0.190	0.285	0.549	0.578	0.446	0.532	1.019	2.045	5.357	13.73	17.23	13.30	4.679	0.625	0.156	0.093	0.131	0.072	0.074	0.086	0.194	0.052	0.062	0.080	0.066	0.169	0.076	0.056	0.069	0.076	0.054	0.081	0.090	0.114	0.185
245.0	136.7	240.7	147.5	571.5	2457	2611	318.1	12.10	4.920	3.609	3.504	3.284	2.426	1.737	1.784	1.271	1.335	1.374	0.920	0.698	0.674	0.676	0.600	0.664	0.709	0.493	0.287	0.485	0.437	0.561	0.309	0.253	0.366	0.198	0.221	0.298	0.266	0.152	0.274	0.150	0.258	0.183	0.154	0.217	0.357	0.609	0.801	0.703	0.535	0.637	1.440	4.280	11.03	20.71	21.67	11.97	3.399	0.326	0.135	0.040	0.123	0.106	0.083	0.119	0.114	0.118	0.084	0.062	0.126	0.108	0.128	0.216	0.106	0.069	0.128	0.066	0.147
250.0	45.61	168.5	268.8	225.0	768.7	2466	3300	1174	71.37	5.351	4.435	4.419	3.338	2.340	1.780	1.585	1.452	1.473	1.152	0.831	0.871	0.861	0.613	0.598	0.570	0.493	0.481	0.525	0.538	0.356	0.392	0.347	0.297	0.314	0.326	0.233	0.270	0.240	0.230	0.173	0.197	0.232	0.239	0.199	0.279	0.299	0.496	0.835	1.000	0.968	0.724	1.219	2.753	6.180	11.84	18.55	23.88	20.38	12.03	3.828	0.492	0.166	0.145	0.122	0.122	0.101	0.073	0.121	0.173	0.107	0.098	0.066	0.088	0.060	0.101	0.098	0.099
255.0	22.36	53.91	177.5	358.6	270.0	620.2	2416	5340	1714	78.51	8.205	5.834	4.389	2.845	2.661	1.982	1.658	1.643	1.166	1.171	1.099	0.743	0.605	0.661	0.690	0.550	0.422	0.448	0.447	0.355	0.448	0.434	0.329	0.318	0.222	0.314	0.300	0.316	0.282	0.194	0.296	0.227	0.181	0.205	0.164	0.332	0.276	0.362	0.509	0.962	1.340	1.502	1.172	1.568	2.815	4.434	7.929	18.44	35.84	31.04	19.45	4.530	0.318	0.209	0.166	0.189	0.133	0.243	0.153	0.128	0.128	0.111	0.116	0.038	0.097	0.076	0.166
260.0	16.28	23.47	64.90	305.3	367.0	202.2	717.4	4142	6220	1318	38.56	8.200	5.570	3.818	2.821	2.175	2.031	1.384	1.188	1.179	1.187	0.906	0.715	0.689	0.750	0.646	0.617	0.627	0.462	0.598	0.487	0.469	0.375	0.377	0.239	0.401	0.270	0.235	0.189	0.208	0.312	0.202	0.184	0.146	0.197	0.303	0.176	0.298	0.266	0.420	0.764	1.758	2.005	1.246	0.864	1.189	2.001	4.815	14.27	30.66	47.04	29.94	15.80	2.499	0.224	0.171	0.101	0.216	0.149	0.252	0.105	0.227	0.101	0.098	0.130	0.083	0.161
265.0	20.11	21.77	25.57	129.3	413.2	269.4	197.2	1344	6090	6504	233.9	16.81	6.693	5.392	3.140	2.280	1.813	1.673	1.356	1.182	1.247	1.026	0.708	0.740	0.739	0.694	0.653	0.693	0.522	0.509	0.737	0.440	0.352	0.406	0.285	0.378	0.237	0.320	0.270	0.298	0.325	0.276	0.208	0.177	0.143	0.253	0.224	0.229	0.205	0.248	0.346	0.836	1.850	2.414	1.570	0.826	0.677	1.335	3.419	8.763	22.51	42.58	58.13	27.39	10.89	1.025	0.166	0.269	0.158	0.111	0.118	0.184	0.098	0.140	0.129	0.064	0.132
270.0	23.67	20.64	17.95	39.36	187.5	410.4	295.6	353.0	1861	5865	7600	892.1	58.69	7.900	5.016	3.230	2.820	2.264	1.749	1.461	1.446	0.966	0.900	1.031	0.800	0.719	0.725	0.538	0.680	0.554	0.626	0.498	0.469	0.420	0.377	0.391	0.305	0.299	0.307	0.267	0.276	0.290	0.215	0.244	0.229	0.275	0.223	0.214	0.232	0.217	0.204	0.366	0.642	1.141	1.660	2.349	2.028	1.191	1.082	2.204	5.344	11.86	24.85	36.90	50.28	44.71	18.25	8.474	1.126	0.229	0.219	0.174	0.169	0.132	0.139	0.130	0.166
275.0	43.69	36.12	33.10	26.00	57.10	174.7	521.2	341.0	464.2	1443	5103	9999.9	1270	60.50	7.575	5.156	3.782	2.873	2.359	1.847	1.570	1.429	1.102	1.105	0.755	0.773	0.873	0.673	0.812	0.605	0.602	0.527	0.469	0.610	0.447	0.511	0.362	0.243	0.442	0.201	0.290	0.356	0.370	0.292	0.319	0.314	0.269	0.279	0.285	0.280	0.224	0.313	0.282	0.444	0.593	1.026	2.062	3.371	2.547	1.213	1.527	2.898	5.943	8.480	13.89	27.33	56.82	74.24	28.53	9.742	0.661	0.245	0.176	0.257	0.293	0.181	0.125
280.0	94.09	83.17	63.50	40.00	29.95	61.33	312.6	624.8	279.1	394.8	1458	7884	9999.9	917.0	29.48	7.073	4.944	3.674	2.709	2.273	1.622	1.609	1.347	1.244	1.161	0.874	0.831	0.937	0.804	0.778	0.597	0.543	0.613	0.611	0.571	0.541	0.523	0.412	0.454	0.401	0.456	0.366	0.385	0.393	0.365	0.438	0.509	0.334	0.372	0.272	0.228	0.296	0.196	0.361	0.324	0.426	0.877	2.185	3.702	3.416	1.854	1.165	1.739	2.326	3.521	6.899	18.17	44.83	71.34	70.29	23.14	4.607	0.329	0.278	0.246	0.222	0.234
285.0	195.7	188.3	120.3	67.58	38.71	37.94	132.1	543.6	601.4	273.0	508.4	2506	9999.9	7944	128.7	13.50	6.845	4.456	3.363	2.580	1.950	1.625	1.500	1.182	1.030	0.898	0.944	0.874	0.817	0.686	0.567	0.638	0.704	0.718	0.703	0.671	0.656	0.609	0.422	0.481	0.459	0.512	0.498	0.536	0.498	0.674	0.719	0.581	0.555	0.443	0.357	0.317	0.289	0.308	0.269	0.352	0.425	0.933	1.843	3.407	4.300	2.668	1.401	1.362	1.492	2.376	5.012	11.74	26.66	58.36	80.58	33.67	16.66	1.901	0.285	0.278	0.313
290.0	436.9	453.3	292.2	148.2	77.28	65.69	105.4	291.2	722.1	827.9	633.3	1041	3191	7816	8189	1896	34.91	6.327	4.686	3.407	2.352	1.931	1.665	1.300	1.365	1.025	1.078	0.934	0.919	0.989	0.706	0.705	0.733	1.111	1.097	1.043	0.915	0.753	0.697	0.597	0.610	0.825	0.876	0.777	0.947	1.197	1.300	1.334	0.971	0.787	0.612	0.539	0.474	0.430	0.373	0.384	0.536	0.787	1.030	1.711	2.900	4.037	4.372	3.846	2.791	2.667	3.249	4.815	7.850	15.83	28.97	40.56	59.30	51.39	39.92	11.44	1.909
295.0	705.6	724.2	488.5	231.9	123.3	105.9	149.9	262.0	519.1	1117	1327	1035	1302	2097	5409	9999.9	720.4	34.39	6.658	4.483	3.394	2.478	2.104	1.681	1.608	1.155	1.047	0.963	1.038	1.117	0.938	0.772	0.847	1.157	1.312	1.383	1.220	1.011	0.854	0.848	0.784	0.877	1.110	1.142	1.472	1.928	1.964	1.851	1.460	1.214	0.855	0.770	0.657	0.511	0.407	0.563	0.646	0.913	1.106	1.378	2.006	2.752	3.515	5.928	7.197	5.587	4.024	4.218	4.942	6.082	8.639	10.54	15.27	23.45	56.31	83.06	34.28
300.0	818.8	904.6	595.9	288.6	151.7	129.0	173.7	291.7	501.6	957.2	1713	1383	996.7	798.4	1528	7667	6118	542.7	16.91	6.422	4.473	3.120	2.825	1.828	1.782	1.453	1.262	1.192	1.137	1.108	0.897	0.784	0.987	1.322	1.572	1.566	1.365	1.228	0.909	1.017	1.017	1.169	1.290	1.411	1.734	2.060	1.979	2.351	1.851	1.438	1.133	1.064	0.719	0.664	0.586	0.691	0.791	0.997	1.239	1.639	1.942	2.556	3.052	4.383	6.253	8.062	7.327	5.837	4.780	4.358	4.357	3.925	4.490	6.044	16.09	40.35	70.97
305.0	849.3	940.7	642.5	317.9	166.2	146.6	201.2	321.0	532.6	879.9	1521	1841	1073	557.9	478.3	2278	8621	5191	78.05	10.98	5.741	3.739	3.113	2.307	2.037	1.720	1.411	1.309	1.263	1.338	0.871	0.847	1.197	1.342	1.629	1.814	1.537	1.342	1.158	1.058	1.094	1.286	1.622	1.498	1.776	2.202	2.189	2.416	2.122	1.512	1.144	1.027	0.811	0.688	0.785	0.745	0.851	1.140	1.253	1.512	2.102	2.612	3.331	3.869	4.961	6.731	8.432	8.704	6.213	4.832	3.764	2.673	2.116	2.142	4.334	10.08	22.87
310.0	844.0	935.3	644.6	336.0	197.0	171.0	224.3	340.8	549.1	852.4	1244	1657	1461	646.7	291.2	617.4	2575	6495	6514	1435	24.97	6.268	4.264	2.991	2.331	2.011	1.616	1.346	1.256	1.082	0.867	0.945	1.141	1.480	1.772	1.645	1.622	1.329	1.047	1.112	1.049	1.238	1.463	1.515	1.874	2.147	2.357	2.337	2.161	1.532	1.182	1.164	0.955	0.933	0.909	0.930	1.025	1.088	1.424	1.660	2.188	2.613	3.184	3.806	4.481	5.388	6.027	7.333	7.456	7.047	5.323	2.955	1.878	1.638	1.832	3.018	5.843
315.0	810.1	894.1	662.8	393.3	265.0	250.2	272.5	370.3	566.7	826.4	1109	1304	1351	1069	427.8	370.6	774.8	1682	4905	8852	508.0	25.00	6.356	4.391	2.731	2.244	1.990	1.661	1.531	1.444	1.071	1.125	1.194	1.367	1.680	1.636	1.590	1.415	0.960	1.219	1.157	1.139	1.405	1.424	1.667	2.158	2.270	2.527	2.081	1.748	1.441	1.370	1.211	1.168	1.291	1.124	1.310	1.507	1.493	1.760	2.272	2.517	3.140	3.628	4.474	4.543	5.053	5.609	5.520	5.967	6.748	5.783	3.533	2.193	2.053	2.188	2.802
320.0	788.2	896.4	697.3	488.6	387.1	365.4	349.2	416.2	580.7	839.5	1094	1239	1182	1218	836.5	514.0	554.2	688.5	1540	6993	7267	394.7	12.93	5.729	3.920	2.566	2.149	1.817	1.370	1.568	1.317	1.213	1.254	1.448	1.672	1.658	1.554	1.408	1.175	1.329	1.284	1.149	1.515	1.492	1.797	1.972	2.120	2.296	2.268	1.915	1.586	1.623	1.672	1.814	1.670	1.586	1.812	1.822	1.730	1.875	2.186	2.770	3.368	3.875	4.408	4.739	4.833	5.194	5.080	5.109	5.763	5.976	6.027	4.579	3.475	2.837	2.956
325.0	756.6	882.8	742.4	563.4	477.7	454.8	405.8	441.6	593.7	834.4	1072	1199	1119	1077	1156	773.1	630.9	567.6	650.2	2291	7865	3869	58.91	8.211	4.885	3.581	2.641	2.157	1.551	1.516	1.409	1.368	1.195	1.425	1.517	1.457	1.361	1.403	1.195	1.260	1.308	1.233	1.523	1.488	1.744	1.963	2.102	2.297	2.368	2.069	1.696	1.871	2.018	2.040	2.091	1.935	1.855	2.130	1.942	1.945	2.553	2.661	3.116	3.986	4.098	4.752	4.886	5.330	4.978	5.201	4.968	4.978	5.878	6.508	6.121	4.549	3.599
330.0	727.0	854.7	773.1	640.0	567.4	525.5	450.1	453.6	596.4	795.3	1004	1119	1088	982.2	1055	1066	804.8	617.8	509.2	786.2	2436	5454	5296	1141	18.67	5.107	3.461	2.757	2.010	1.958	1.582	1.471	1.306	1.431	1.503	1.366	1.285	1.354	1.250	1.265	1.276	1.282	1.380	1.419	1.647	1.980	2.091	2.397	2.525	2.095	1.808	2.233	2.210	2.414	2.350	2.266	2.302	2.109	2.085	2.148	2.533	2.853	3.133	3.560	4.021	4.343	4.754	5.023	4.908	5.119	4.947	4.786	4.862	5.573	6.062	6.640	5.915
335.0	750.2	841.5	823.1	744.2	699.8	644.7	528.3	490.5	612.8	785.1	976.3	1087	1116	1050	1035	1112	1208	796.2	578.1	521.2	696.7	1343	4378	7449	417.6	18.44	5.026	3.755	2.545	2.227	1.955	1.432	1.285	1.391	1.533	1.420	1.426	1.229	1.243	1.307	1.306	1.397	1.579	1.588	1.609	1.938	2.064	2.719	2.455	2.243	2.177	2.810	2.852	2.855	2.959	2.594	2.587	2.482	2.213	2.379	2.662	2.889	3.029	3.636	4.047	4.298	4.594	4.715	4.798	5.176	5.102	5.176	5.139	5.811	5.596	6.132	7.121
340.0	698.2	825.7	833.7	791.8	749.7	699.2	556.9	505.7	620.1	768.4	941.5	1057	1083	1072	1064	1076	1235	1055	645.0	486.0	328.6	359.4	1229	6080	6240	337.7	8.935	4.468	3.423	2.703	2.091	1.678	1.616	1.428	1.528	1.317	1.327	1.298	1.225	1.272	1.276	1.184	1.253	1.519	1.471	1.857	2.074	2.523	2.464	2.476	2.480	3.112	2.978	3.180	3.004	2.814	2.778	2.499	2.112	2.392	2.601	2.998	3.032	3.681	3.744	4.247	4.505	4.688	4.736	5.231	5.190	5.182	5.149	5.978	5.486	5.547	6.371
345.0	705.8	774.6	822.7	792.9	770.8	696.8	567.9	502.1	590.5	725.0	881.0	986.4	1028	1030	1035	1018	1074	1090	731.6	476.4	247.5	148.3	314.8	1887	6900	3286	50.49	6.766	4.116	3.146	2.126	1.807	1.679	1.423	1.282	1.277	1.253	1.394	1.312	1.319	1.266	1.201	1.399	1.511	1.511	1.703	1.858	2.459	2.424	2.416	2.439	3.041	3.199	2.846	3.201	2.972	2.814	2.458	2.217	2.565	2.460	3.038	3.082	3.307	3.765	4.113	4.122	4.407	4.545	4.731	4.922	5.327	5.089	5.672	5.306	5.640	5.853
350.0	620.3	737.3	777.4	761.3	765.1	692.9	565.9	505.2	563.8	680.5	805.3	898.0	945.5	966.1	982.8	962.0	951.6	902.0	808.4	565.8	251.2	117.1	124.2	464.4	2096	4616	4442	993.9	16.28	4.250	2.952	2.331	1.811	1.431	1.425	1.269	1.217	1.303	1.132	1.254	1.106	1.197	1.248	1.463	1.664	1.759	1.884	2.309	2.415	2.305	2.534	2.843	3.126	2.958	3.038	2.857	2.717	2.472	2.327	2.319	2.484	2.789	3.010	3.121	3.420	3.566	3.874	4.024	4.142	4.387	4.590	4.580	4.935	5.211	5.035	5.284	5.419
355.0	565.4	687.2	743.8	746.6	751.9	694.3	577.1	502.6	564.1	651.7	757.7	822.2	870.5	907.2	931.1	916.3	898.2	790.0	679.1	668.1	341.4	133.9	102.2	159.2	509.1	1127	3624	6037	387.0	16.38	4.400	2.786	2.140	1.654	1.469	1.489	1.261	1.097	1.059	1.231	1.349	1.174	1.188	1.348	1.534	1.781	1.800	1.992	2.373	2.253	2.368	2.736	3.134	3.017	3.023	2.867	2.857	2.495	2.300	2.245	2.400	2.697	2.780	3.196	3.319	3.169	3.571	3.570	4.025	3.951	3.905	4.540	4.660	4.696	4.992	5.022	5.140
360.0	524.7	639.0	715.7	717.7	734.6	688.2	582.7	516.7	567.1	628.6	710.8	767.9	826.3	856.7	866.6	861.4	836.1	726.1	596.1	588.2	452.2	185.8	112.3	104.9	165.3	290.3	1018	5046	3331	309.7	8.300	3.812	2.630	1.824	1.501	1.497	1.351	1.226	1.166	1.253	1.226	1.219	1.201	1.388	1.423	1.605	1.687	2.008	2.067	2.143	2.297	2.923	3.017	3.079	3.252	2.848	2.929	2.509	2.346	2.389	2.511	2.677	2.942	3.173	3.188	3.235	3.531	3.471	3.621	3.986	3.937	4.491	4.457	4.380	4.603	4.552	4.770
365.0	513.1	632.4	690.9	695.2	711.0	669.1	580.3	514.5	563.4	613.3	681.7	721.1	760.4	792.1	804.6	792.5	771.2	674.9	553.6	490.4	450.9	291.3	141.8	109.0	102.4	113.6	265.0	1599	5487	3063	47.65	5.492	3.238	2.291	1.881	1.456	1.364	1.176	1.096	1.140	1.150	1.155	0.982	1.238	1.297	1.593	1.680	1.955	2.001	1.967	2.239	2.757	2.991	2.968	3.094	2.696	2.898	2.643	2.290	2.319	2.412	2.829	2.648	3.094	3.164	3.131	3.190	3.244	3.328	3.617	3.859	3.769	3.980	4.124	4.259	4.543	4.407
370.0	481.6	586.1	666.0	665.0	682.9	659.4	576.1	524.5	555.2	598.8	648.6	676.0	707.1	727.5	739.5	727.2	707.3	625.2	522.3	444.6	360.2	347.0	259.1	147.2	109.5	92.85	109.3	395.7	1720	4226	4038	879.9	14.23	3.125	2.417	1.700	1.475	1.455	1.279	1.047	1.160	1.069	1.199	1.301	1.356	1.406	1.535	1.857	1.890	1.947	2.039	2.502	2.787	2.841	2.923	2.822	2.697	2.871	2.425	2.443	2.398	2.654	2.711	2.883	2.899	2.952	2.834	3.010	3.036	3.401	3.335	3.264	3.679	3.926	3.896	4.030	4.325
375.0	436.5	548.5	629.3	639.6	667.8	659.0	592.2	538.9	549.6	588.1	618.5	635.6	654.7	667.6	672.0	672.7	654.4	587.3	496.4	429.1	324.5	288.1	339.7	249.7	143.0	109.1	91.69	137.7	420.2	1039	3373	5282	332.2	13.14	3.235	2.329	1.879	1.676	1.310	1.217	1.143	1.120	0.989	1.295	1.308	1.559	1.559	1.925	1.787	1.961	1.924	2.494	2.760	2.633	2.770	2.592	2.692	2.807	2.546	2.583	2.670	2.703	2.843	2.780	2.661	2.923	2.654	3.133	2.763	2.940	3.086	3.282	3.535	3.720	3.479	3.627	3.876
380.0	443.9	550.8	599.5	641.4	656.1	634.8	587.5	535.6	555.0	583.7	599.6	609.8	619.8	633.6	631.6	626.3	609.8	552.2	481.9	418.6	324.6	268.1	301.1	336.2	204.3	131.7	104.0	95.42	140.9	267.8	952.1	4423	2902	258.6	6.827	3.206	2.138	1.704	1.518	1.288	1.347	1.256	1.061	1.211	1.256	1.559	1.606	1.876	1.892	1.928	1.966	2.419	2.578	2.665	2.682	2.880	2.768	2.671	2.390	2.461	2.605	2.719	2.746	2.807	2.837	2.761	2.721	2.713	2.798	2.810	2.845	3.096	3.217	3.490	3.501	3.541	3.736
385.0	437.9	544.5	590.0	624.1	638.3	618.9	576.7	537.8	547.8	569.0	582.5	590.1	598.4	604.9	598.2	586.6	568.8	525.6	462.3	410.3	330.3	277.6	266.4	326.0	289.7	168.8	123.6	99.97	91.20	104.2	246.4	1376	4439	2553	39.17	4.732	2.840	2.164	1.681	1.499	1.252	1.202	1.075	1.271	1.071	1.261	1.555	1.673	1.723	1.875	2.041	2.552	2.622	2.781	2.702	2.563	2.722	2.432	2.164	2.317	2.758	2.483	2.590	2.714	2.881	2.456	2.687	2.678	2.726	2.668	2.920	2.941	3.105	3.086	3.286	3.076	3.195
390.0	418.6	529.5	578.5	617.3	632.2	614.2	571.6	546.1	544.0	554.3	561.9	568.4	563.2	564.4	555.2	537.0	526.3	495.5	445.4	404.5	338.3	291.9	269.5	275.5	309.5	262.0	163.2	120.9	97.90	82.59	97.63	339.0	1355	3178	3029	729.1	12.31	2.831	2.110	1.501	1.404	1.274	1.191	1.248	1.267	1.438	1.567	1.787	1.834	1.917	1.970	2.448	2.571	2.598	2.439	2.426	2.711	2.602	2.378	2.334	2.646	2.381	2.382	2.605	2.681	2.431	2.561	2.541	2.514	2.854	2.715	2.723	2.935	2.948	3.004	2.941	3.037
395.0	437.7	515.3	552.7	587.3	608.6	601.6	574.2	542.1	544.9	541.0	552.7	546.2	543.4	527.8	518.0	500.1	493.8	465.3	430.0	399.2	342.5	307.8	285.0	266.8	267.2	296.9	247.8	155.8	119.3	95.70	80.77	116.9	329.7	775.8	2373	3928	281.9	12.18	2.966	1.840	1.578	1.336	1.392	1.240	1.274	1.316	1.469	1.852	1.871	1.769	1.922	2.328	2.451	2.422	2.433	2.594	2.538	2.574	2.344	2.390	2.588	2.581	2.400	2.714	2.536	2.469	2.416	2.379	2.566	2.664	2.510	2.735	2.667	2.778	2.825	2.959	3.188
400.0	446.8	500.7	550.1	588.2	595.8	588.2	570.1	551.7	541.9	539.8	539.5	537.4	524.7	513.4	498.0	479.4	473.5	443.2	418.0	393.3	349.6	314.4	296.0	271.1	257.0	267.2	295.1	208.1	140.0	110.3	87.27	76.65	107.6	198.0	657.1	3083	2429	225.9	5.798	2.603	1.726	1.618	1.453	1.293	1.185	1.446	1.501	1.777	1.802	1.670	1.896	2.345	2.607	2.334	2.418	2.620	2.575	2.388	2.404	2.435	2.559	2.635	2.420	2.723	2.464	2.613	2.391	2.345	2.369	2.480	2.396	2.609	2.515	2.715	2.748	2.595	2.828
405.0	421.2	510.3	558.1	584.0	599.4	591.2	562.9	549.3	544.8	539.0	529.3	521.5	513.2	497.9	477.2	463.5	448.2	427.8	411.9	386.6	350.5	318.1	301.2	280.4	260.2	247.7	278.5	269.0	173.9	126.8	100.5	77.18	66.25	74.18	169.3	924.3	3101	2159	35.58	3.606	2.138	1.900	1.571	1.413	1.268	1.369	1.519	1.761	1.944	1.721	1.817	2.257	2.282	2.427	2.355	2.661	2.674	2.420	2.517	2.507	2.437	2.356	2.561	2.478	2.465	2.695	2.377	2.235	2.512	2.250	2.227	2.469	2.362	2.517	2.800	2.434	2.721
410.0	411.5	503.0	549.4	566.7	575.7	573.8	555.7	549.1	541.8	533.1	527.1	509.5	494.0	478.5	452.6	438.5	426.0	411.6	393.8	376.3	343.5	320.2	304.9	288.8	269.8	250.1	246.5	266.5	240.9	164.3	116.3	89.64	68.51	55.85	66.21	227.4	912.3	2264	2308	584.2	11.02	2.362	1.701	1.514	1.419	1.533	1.554	1.728	1.900	1.674	1.940	2.281	2.382	2.431	2.445	2.490	2.478	2.397	2.437	2.429	2.387	2.432	2.377	2.470	2.437	2.540	2.223	2.212	2.310	2.234	2.262	2.352	2.338	2.243	2.443	2.439	2.594
415.0	378.7	480.0	522.1	551.9	564.2	545.8	557.0	538.3	534.6	522.4	513.4	492.1	471.4	450.6	424.2	414.1	401.3	390.2	374.7	359.5	333.5	317.3	304.9	290.6	274.6	254.5	237.2	229.8	250.9	226.8	144.3	103.3	79.69	60.42	51.24	75.61	221.9	543.6	1584	2786	260.4	11.66	2.420	1.679	1.697	1.477	1.727	1.570	1.767	1.682	1.729	2.167	2.407	2.493	2.560	2.363	2.500	2.425	2.486	2.484	2.555	2.425	2.430	2.575	2.402	2.273	2.146	2.023	2.124	2.019	2.240	2.394	2.203	2.255	2.197	2.399	2.342
420.0	366.4	479.0	517.9	559.4	545.1	539.1	546.2	538.1	532.6	514.0	508.3	483.3	462.6	435.4	408.2	394.0	379.7	375.9	361.8	345.6	325.9	312.7	300.6	288.2	274.4	257.2	236.6	219.8	222.7	247.4	182.8	119.5	89.20	67.74	52.72	46.68	71.15	136.7	424.3	2022	2166	215.3	5.610	2.012	1.832	1.759	1.503	1.582	1.843	1.718	1.687	2.108	2.122	2.288	2.313	2.401	2.435	2.387	2.402	2.468	2.304	2.490	2.311	2.391	2.276	2.129	2.212	2.099	1.885	2.122	2.050	2.109	1.940	2.251	2.228	2.270	2.342
425.0	366.0	468.1	506.8	521.5	529.6	525.0	533.2	531.5	521.1	511.4	496.5	479.6	448.2	421.6	395.2	382.2	361.4	357.4	347.4	337.2	319.8	304.8	298.5	286.2	274.6	257.0	239.8	220.9	209.9	225.1	219.9	143.7	98.02	75.60	57.71	45.88	40.95	48.38	108.4	583.6	2161	1900	34.06	3.476	2.127	1.667	1.589	1.708	1.815	1.693	1.645	2.284	2.067	2.255	2.377	2.365	2.201	2.321	2.642	2.283	2.295	2.477	2.110	2.401	2.304	2.203	2.233	2.033	2.086	2.212	2.163	2.126	2.066	2.012	2.060	2.089	2.234
430.0	445.0	448.6	489.8	504.0	513.0	520.9	527.0	524.8	512.2	511.3	494.4	471.3	438.5	402.8	377.1	363.6	346.5	339.2	329.3	321.9	307.0	292.6	287.8	278.7	268.1	255.7	240.5	224.7	211.6	202.1	210.2	185.9	123.4	86.61	67.21	52.58	41.35	33.64	42.02	143.3	604.2	1595	1800	547.6	11.73	2.308	1.893	1.869	1.649	1.754	1.662	2.200	2.047	2.200	2.380	2.314	2.268	2.254	2.479	2.288	2.307	2.244	2.299	2.399	2.185	2.179	2.175	2.097	2.087	2.035	2.042	2.045	1.891	1.872	1.899	2.080	2.146
435.0	753.1	440.5	460.2	487.9	475.7	501.4	514.6	514.7	503.5	501.9	485.5	458.8	425.8	389.9	358.5	340.7	326.8	325.3	312.2	302.6	294.9	284.1	279.9	270.2	262.8	250.8	238.2	227.1	213.5	198.5	186.1	187.7	165.3	107.3	76.99	60.29	47.01	35.75	31.69	48.28	147.0	375.0	1055	2219	255.4	14.76	2.564	2.305	1.952	1.739	1.697	2.229	1.849	2.045	2.125	2.258	2.247	2.714	2.439	2.335	2.394	2.342	2.364	2.388	2.123	2.201	2.329	2.039	1.704	1.991	1.879	1.948	1.815	1.724	1.687	2.065	1.955
440.0	1056	508.7	434.7	478.6	471.3	477.5	496.8	500.2	499.4	499.4	481.7	441.9	421.9	383.5	350.4	326.8	313.4	309.3	299.0	289.1	282.0	273.6	270.4	263.8	255.3	245.5	238.3	226.4	216.4	198.8	179.5	171.5	174.9	133.8	87.98	68.19	52.73	40.70	32.61	29.44	47.93	95.32	273.7	1478	2049	220.9	8.101	2.513	2.238	1.896	1.674	2.114	2.090	2.053	2.104	2.308	2.490	2.326	2.361	2.160	2.509	2.268	2.247	2.316	2.270	1.985	2.196	2.281	1.983	1.899	2.054	2.012	1.924	1.736	1.855	1.825	1.781
445.0	1145	734.1	438.9	449.1	465.8	466.2	482.9	491.6	488.2	482.2	477.9	439.3	407.8	370.1	338.0	317.2	299.5	295.7	287.6	276.2	269.6	264.6	259.4	256.0	246.4	239.1	231.6	223.3	212.6	200.2	179.8	160.5	158.9	153.3	105.4	73.90	57.25	45.40	35.23	29.16	27.50	34.38	71.99	408.3	1738	1820	163.0	4.616	2.382	2.119	1.752	2.085	2.006	2.098	2.007	2.088	2.278	2.226	2.413	2.239	2.440	2.219	2.269	2.366	2.113	2.135	2.045	2.215	1.960	1.960	1.989	1.902	1.895	1.796	1.836	1.603	1.743
450.0	756.9	1302	572.7	419.5	436.4	442.9	457.8	474.3	471.2	469.0	458.4	422.0	386.7	348.3	318.2	298.5	283.7	273.7	266.5	258.0	251.9	245.0	242.5	239.1	233.8	227.2	220.4	214.0	205.8	194.8	178.0	157.9	141.6	141.0	128.4	89.54	64.17	50.38	40.32	32.35	26.41	23.68	28.32	101.2	468.3	1330	1643	550.0	11.64	2.355	1.929	2.150	1.948	1.959	2.056	2.072	2.268	2.104	2.229	2.165	2.246	2.170	2.231	2.221	2.207	2.019	1.927	2.048	1.843	1.828	1.871	1.801	1.768	1.767	1.774	1.669	1.838
455.0	410.7	1360	1115	433.4	401.2	411.0	417.5	445.3	457.1	439.6	426.5	398.3	363.5	326.3	297.6	275.3	260.2	247.8	242.9	237.8	229.8	227.4	222.7	220.3	214.6	210.2	208.0	201.7	196.8	184.9	171.2	152.7	135.5	120.8	123.3	112.1	75.08	54.82	44.69	35.28	29.09	23.86	20.56	33.96	113.4	308.8	777.9	1869	219.7	14.11	2.452	2.174	1.961	2.045	1.888	1.917	2.014	2.109	2.049	1.953	2.177	2.282	2.095	2.181	2.241	1.986	1.867	1.817	1.748	1.721	1.645	1.791	1.622	1.491	1.620	1.475	1.526
460.0	309.6	865.5	1654	558.3	383.8	393.7	410.7	424.2	433.6	425.4	408.3	375.4	350.3	308.3	279.8	255.7	241.6	231.9	225.7	220.7	213.7	208.5	209.7	206.4	203.0	196.4	195.6	191.1	186.4	179.5	168.4	149.8	131.1	113.5	107.7	112.2	89.55	60.44	45.96	37.87	30.19	25.25	20.61	20.33	35.15	77.16	194.0	1050	1680	185.9	9.397	2.486	2.167	2.069	1.872	1.836	1.988	2.007	1.887	1.907	1.989	2.002	1.997	2.030	2.023	2.050	1.622	1.732	1.618	1.633	1.524	1.685	1.489	1.441	1.382	1.489	1.387
465.0	272.3	501.8	1735	874.2	363.1	362.5	390.6	396.1	403.0	399.1	392.6	354.2	331.7	294.7	266.6	239.2	226.1	218.9	209.4	205.8	199.3	195.6	196.6	191.6	189.8	187.9	184.2	179.6	178.1	172.0	162.0	143.5	125.8	110.8	99.23	99.63	97.83	69.53	48.69	39.58	32.01	26.81	22.16	18.07	18.94	26.42	50.91	277.1	1250	1439	156.0	5.418	2.565	2.100	2.072	1.895	2.064	2.049	1.964	1.934	1.922	1.899	1.818	1.985	1.925	1.898	1.682	1.717	1.395	1.598	1.594	1.494	1.430	1.430	1.358	1.391	1.528
470.0	258.5	325.7	1036	1619	506.4	338.7	354.7	364.7	375.1	364.7	359.8	334.8	304.8	272.1	241.9	219.2	205.6	198.6	191.2	187.5	180.2	177.5	175.3	174.4	172.5	170.5	167.3	163.8	162.6	156.9	148.6	133.6	118.6	104.9	92.06	84.19	85.54	78.47	56.35	41.52	33.78	27.93	23.25	19.38	16.68	15.98	19.79	68.71	326.0	916.3	1168	452.5	12.62	2.438	2.112	1.880	1.998	2.012	1.842	1.766	1.919	1.694	1.798	1.775	1.735	1.693	1.721	1.656	1.510	1.431	1.447	1.389	1.424	1.345	1.283	1.267	1.248
475.0	274.8	270.3	459.6	1576	1178	333.1	315.7	337.2	341.9	339.7	336.7	309.5	281.2	245.3	220.2	198.7	187.3	179.3	171.6	167.3	159.8	158.4	156.4	154.9	153.6	152.5	151.3	147.5	148.7	144.7	136.4	124.0	111.5	98.11	86.51	77.27	71.03	72.75	65.94	46.18	34.12	28.39	24.09	20.10	17.11	14.80	13.45	22.77	78.64	211.5	490.7	1218	223.9	16.51	2.324	2.042	1.946	1.799	1.767	1.856	1.703	1.687	1.711	1.699	1.736	1.512	1.430	1.523	1.399	1.294	1.522	1.447	1.270	1.145	1.153	1.143	1.219
480.0	263.1	253.6	308.0	1008	1802	461.5	296.3	313.1	323.6	322.1	316.3	287.6	263.9	232.9	205.7	184.4	176.5	164.6	158.6	151.9	150.4	143.3	143.2	143.8	140.9	139.9	136.9	137.9	137.4	134.5	125.6	116.9	106.4	95.07	82.57	73.86	65.65	63.65	66.08	54.09	37.21	29.77	24.99	21.04	17.61	15.39	12.67	12.92	23.71	53.00	120.3	611.9	1207	213.7	10.09	2.239	1.933	1.852	1.866	1.572	1.620	1.607	1.574	1.458	1.657	1.461	1.522	1.320	1.408	1.274	1.365	1.289	1.329	1.027	1.146	1.201	1.084
485.0	229.0	290.6	251.6	515.7	1909	889.3	284.3	297.2	298.7	305.4	298.6	275.3	253.2	218.3	194.9	174.5	163.7	153.9	148.0	142.0	138.9	133.9	132.3	135.6	132.9	129.4	129.4	128.5	129.4	126.7	119.6	112.0	99.29	89.54	80.50	71.13	62.67	56.79	59.57	59.29	41.51	31.37	25.10	21.50	18.84	16.16	13.32	11.48	12.04	17.86	31.82	158.5	816.0	1131	168.9	5.181	2.095	1.796	1.718	1.615	1.721	1.401	1.559	1.447	1.449	1.401	1.441	1.358	1.249	1.302	1.266	1.091	1.211	1.074	1.099	1.129	0.960
490.0	183.8	297.5	246.8	290.3	1157	1756	400.0	275.0	279.7	283.1	274.9	256.6	233.9	208.0	182.9	163.0	150.4	142.5	136.9	129.7	128.2	123.3	121.4	122.0	120.1	119.6	119.5	117.8	119.4	116.2	110.8	104.5	94.30	84.10	75.68	67.68	59.29	53.91	50.13	53.53	48.25	35.51	26.80	22.78	19.70	16.59	14.33	12.30	10.40	10.32	12.48	39.96	208.5	644.5	985.8	431.8	14.03	1.991	1.843	1.595	1.570	1.497	1.515	1.411	1.494	1.354	1.297	1.339	1.180	1.333	1.053	1.106	1.082	1.060	1.105	1.078	0.973
495.0	148.0	261.8	270.4	233.0	472.3	1826	1147	263.7	256.0	264.1	250.5	237.0	212.6	192.0	168.9	149.2	138.2	128.5	125.2	117.0	114.1	112.9	110.7	108.4	108.5	107.8	107.8	105.6	108.0	105.4	101.7	94.88	87.01	78.32	70.54	63.53	56.44	50.79	45.48	43.71	46.27	42.75	30.13	23.63	19.74	17.37	15.11	13.24	11.16	9.404	8.668	13.90	50.66	148.4	411.6	1118	613.0	18.80	2.174	1.654	1.459	1.347	1.300	1.296	1.417	1.265	1.163	1.146	1.258	1.136	1.224	1.055	1.016	1.195	1.137	0.850	0.988
500.0	125.1	212.0	289.8	208.1	260.2	1146	1937	363.0	239.5	236.3	234.4	218.2	197.9	176.3	155.7	137.2	129.5	120.3	113.0	107.7	104.7	103.3	101.9	99.91	99.02	97.92	98.35	98.24	98.68	97.10	94.38	87.00	80.50	72.09	66.06	59.67	53.37	49.01	42.76	39.40	39.25	42.60	34.53	24.23	20.27	17.14	15.60	13.54	11.68	9.420	7.939	8.171	15.48	37.07	99.56	532.0	1201	233.9	12.02	1.948	1.500	1.308	1.266	1.357	1.201	1.184	1.145	1.135	0.951	0.827	1.041	1.082	0.959	1.077	0.855	0.844	0.943
505.0	120.8	163.0	289.7	219.8	201.2	542.4	2191	786.7	219.9	219.1	221.0	200.4	179.2	165.5	142.8	126.3	117.8	109.6	103.5	99.99	95.69	94.26	93.10	92.05	89.71	88.68	89.75	90.18	89.60	90.07	87.21	79.96	74.55	66.38	62.77	55.27	50.82	46.17	40.79	36.47	34.97	37.40	37.75	27.43	19.92	17.48	15.56	13.42	11.45	9.999	8.258	7.254	7.774	12.10	25.55	133.6	697.3	1060	191.6	5.399	1.669	1.439	1.308	1.223	1.266	1.194	1.096	1.127	1.116	0.873	0.983	0.965	0.927	0.928	0.775	0.720	0.840
510.0	105.4	133.5	218.4	245.1	175.5	259.2	1348	1854	295.5	198.3	196.0	183.1	165.3	146.2	129.3	115.0	105.2	97.49	93.31	88.65	85.59	83.12	80.94	80.56	79.50	79.73	78.67	80.43	79.94	80.21	77.45	72.18	67.38	60.94	55.59	50.47	46.08	42.24	37.96	33.34	30.99	30.67	33.06	31.03	22.65	17.33	14.70	12.96	11.44	9.960	8.622	7.112	6.125	6.779	9.180	33.24	173.5	553.7	825.0	352.0	14.00	1.576	1.364	1.279	1.126	1.013	0.995	0.976	0.880	0.820	0.803	0.886	0.888	0.785	0.741	0.710	0.829
515.0	101.5	109.6	150.2	244.4	183.4	172.2	479.7	2112	1078	180.9	174.9	165.6	148.3	130.0	115.2	102.6	94.68	86.82	82.98	78.65	75.16	73.10	70.45	72.72	70.35	70.60	69.05	68.87	69.77	70.13	67.56	63.30	58.03	52.63	49.40	45.80	40.83	37.87	34.25	30.96	28.56	25.81	25.25	29.21	26.53	18.39	14.42	13.14	11.04	9.642	8.410	7.858	6.239	5.582	6.068	10.53	41.78	126.6	303.5	833.0	251.9	18.64	1.583	1.227	1.124	0.920	0.967	0.830	0.892	0.597	0.876	0.659	0.808	0.898	0.667	0.595	0.677
520.0	88.05	94.79	125.0	216.4	210.2	144.1	223.6	1395	2040	261.9	160.5	146.3	136.2	121.6	102.4	93.37	86.22	80.71	74.84	70.33	67.15	66.52	63.50	63.98	61.97	64.13	62.22	62.73	63.39	63.42	60.68	57.33	53.17	48.26	45.09	41.78	38.03	34.82	30.86	28.65	26.16	23.90	21.92	24.68	26.18	20.72	14.73	12.73	10.76	9.325	8.178	7.595	6.753	5.705	5.117	5.460	12.37	30.79	72.59	379.4	815.1	225.1	11.40	1.492	1.143	1.035	0.692	0.856	0.716	0.721	0.672	0.575	0.671	0.666	0.610	0.620	0.696
525.0	72.41	86.76	115.8	157.9	219.8	141.1	155.2	615.7	2552	673.0	147.9	137.4	124.7	109.2	95.55	84.15	79.48	72.45	67.17	62.60	60.30	59.35	57.07	57.92	56.03	55.82	55.61	56.40	56.16	57.78	55.33	51.52	48.19	44.69	41.48	37.98	35.46	31.77	29.48	26.35	24.00	22.50	20.62	20.23	23.58	22.28	16.37	12.75	10.71	9.282	7.998	7.282	7.110	5.880	4.659	4.527	5.831	9.493	18.66	93.57	460.6	766.7	177.7	4.157	1.193	1.045	0.814	0.777	0.850	0.651	0.677	0.566	0.579	0.521	0.603	0.507	0.660
530.0	73.58	81.83	96.95	109.1	203.5	164.4	125.8	246.8	1630	1879	212.7	123.0	109.7	97.04	84.98	74.39	68.96	63.86	60.09	56.88	53.90	51.90	51.74	50.80	49.46	48.83	48.54	48.53	49.26	49.17	48.76	45.47	42.70	39.54	36.61	33.63	30.63	28.31	26.75	23.87	21.56	20.00	18.74	17.53	17.94	20.56	18.51	13.05	10.05	8.727	7.593	6.925	6.350	5.901	4.959	4.134	4.117	4.499	6.544	23.01	114.0	380.6	576.6	259.3	13.15	1.312	0.951	0.874	0.689	0.608	0.675	0.527	0.509	0.579	0.524	0.485	0.576
535.0	55.41	67.48	75.71	88.66	138.0	193.9	116.9	136.6	540.3	2410	929.5	113.9	97.21	84.62	74.17	66.96	60.45	54.96	52.03	49.50	46.04	44.89	43.88	43.25	42.44	41.82	41.84	41.18	42.39	41.96	42.07	39.41	37.39	33.25	31.55	29.75	27.00	25.17	23.53	21.64	19.74	17.70	16.64	15.67	14.65	15.49	17.36	15.12	10.60	8.428	6.946	6.335	5.519	5.126	5.212	4.248	3.881	3.623	3.727	7.086	26.99	86.89	202.2	575.8	247.4	16.81	1.009	0.708	0.661	0.553	0.602	0.550	0.441	0.492	0.521	0.437	0.427
540.0	47.23	64.55	68.92	78.96	102.6	187.7	127.8	108.2	205.3	1572	1932	162.5	86.82	76.93	66.54	58.49	55.28	49.32	44.82	43.61	41.12	40.16	39.06	39.42	37.28	37.18	36.85	37.71	37.87	37.81	36.64	35.31	32.76	30.10	28.29	26.95	23.82	22.10	21.34	18.61	17.67	16.22	15.17	13.62	12.82	12.66	14.40	15.46	11.41	8.150	6.736	6.114	5.139	4.650	4.791	4.727	3.877	3.306	3.128	3.805	7.609	20.91	48.04	249.6	581.1	208.6	9.302	0.896	0.641	0.625	0.626	0.518	0.518	0.434	0.541	0.352	0.461
545.0	47.86	60.27	64.29	66.64	74.70	157.1	150.4	92.28	114.2	649.1	2625	464.4	78.58	69.44	60.08	53.68	49.40	44.06	40.49	38.34	36.71	34.96	34.92	33.95	33.64	33.67	33.44	33.59	33.93	33.40	32.13	31.09	29.64	27.08	24.90	23.10	21.58	19.85	19.06	17.18	15.91	14.51	13.70	12.28	11.67	10.92	11.29	13.36	12.11	8.426	6.512	5.610	4.837	4.394	4.298	4.329	4.182	3.012	2.918	2.853	3.364	6.024	12.21	60.79	307.7	578.1	151.3	3.158	0.685	0.731	0.562	0.519	0.512	0.385	0.452	0.438	0.445
550.0	50.31	51.16	53.31	60.02	60.05	100.9	161.0	93.61	83.86	218.2	1650	1652	123.3	56.82	51.20	46.17	41.17	38.15	35.24	32.63	31.58	28.93	29.52	29.07	28.59	28.47	27.93	28.01	28.13	28.12	27.13	25.93	24.50	22.87	21.13	19.45	18.11	17.02	15.76	14.69	13.63	12.95	11.83	10.82	10.17	9.413	8.989	10.26	10.91	9.011	6.514	5.163	4.542	3.923	3.747	3.814	3.748	3.306	2.680	2.452	2.349	2.714	3.919	14.67	74.76	272.2	393.8	142.9	12.45	0.789	0.500	0.483	0.392	0.377	0.427	0.411	0.396
555.0	46.17	40.17	48.01	49.72	47.22	64.47	129.6	112.9	69.24	101.1	501.7	2289	597.5	50.80	42.25	37.52	33.57	30.62	28.80	28.01	25.79	24.68	23.52	24.24	23.20	23.38	22.60	22.82	22.87	22.24	21.74	21.08	19.70	18.35	18.03	16.19	15.09	14.21	12.82	12.30	11.15	10.47	9.681	8.872	8.502	7.687	7.742	7.146	7.816	8.766	7.189	4.905	3.893	3.383	3.340	3.153	3.156	3.084	2.881	2.166	1.923	1.843	2.006	4.259	17.68	61.77	128.7	352.4	218.8	14.55	0.657	0.510	0.381	0.351	0.389	0.336	0.251
560.0	39.74	40.00	45.55	43.58	38.99	49.51	92.53	131.1	66.56	69.73	166.2	1539	1408	78.24	37.81	34.28	29.10	26.48	24.98	23.15	22.42	20.88	20.32	19.54	19.82	20.01	19.02	18.84	19.47	18.98	18.35	17.66	16.42	16.18	14.64	13.61	12.76	12.18	11.16	10.27	9.481	8.702	7.822	7.876	7.682	6.702	6.426	6.079	6.147	7.321	6.940	5.197	3.581	3.229	3.030	2.814	2.756	2.534	2.661	2.354	1.819	1.680	1.686	1.846	4.993	14.56	30.15	146.1	370.1	160.2	6.633	0.637	0.313	0.376	0.386	0.245	0.215
565.0	38.94	38.18	39.25	39.63	37.60	41.96	61.77	137.3	73.19	60.71	81.47	623.1	2151	161.8	32.88	28.32	25.35	22.57	21.65	19.60	19.34	18.24	17.84	16.86	16.89	17.27	16.93	16.18	16.87	16.55	15.64	15.45	14.61	13.75	12.67	11.39	11.11	10.21	9.404	8.916	8.125	7.899	6.895	6.672	6.510	5.807	5.680	5.352	4.935	5.395	6.503	5.282	3.748	2.954	2.793	2.537	2.180	2.228	2.250	2.443	1.828	1.540	1.458	1.383	2.051	4.071	7.580	35.14	178.2	331.2	34.92	2.360	0.329	0.243	0.388	0.253	0.240
570.0	39.91	46.03	35.72	33.33	33.27	34.00	41.75	102.7	107.1	59.69	63.30	196.4	1445	1177	64.35	22.91	20.87	19.20	18.02	16.90	15.64	15.17	14.71	13.78	14.18	13.33	13.62	13.51	13.32	13.38	13.03	12.48	11.69	10.75	10.06	9.490	8.747	8.582	7.785	7.394	6.699	6.636	6.018	5.680	5.391	5.008	4.760	4.356	3.970	4.067	4.553	4.929	4.093	2.788	2.362	2.280	1.961	1.862	1.805	2.010	1.969	1.628	1.250	1.089	1.174	1.662	2.408	8.457	42.63	142.5	214.7	115.9	10.73	0.429	0.331	0.306	0.256
575.0	53.23	49.60	42.13	32.29	29.25	29.11	32.62	59.03	126.5	76.01	65.17	95.54	452.1	1790	389.1	20.11	16.82	15.59	13.98	13.50	12.62	12.73	11.84	11.00	11.30	11.29	11.02	10.37	10.49	11.25	10.60	9.846	9.221	8.716	7.769	8.231	7.316	6.990	6.288	5.897	5.333	5.169	4.899	4.560	4.299	3.993	3.916	3.560	3.250	3.109	2.963	3.463	4.123	3.179	2.227	1.858	1.885	1.540	1.425	1.519	1.596	1.639	1.465	0.934	0.906	0.977	1.257	2.525	10.15	32.44	68.19	203.6	155.5	11.43	0.367	0.346	0.225
580.0	54.32	47.35	46.98	29.32	26.94	27.39	31.11	43.51	113.9	103.9	72.00	77.80	154.8	1263	991.0	33.28	13.76	14.08	11.64	11.58	10.90	10.27	9.484	9.847	9.392	9.535	9.466	8.976	9.175	9.042	8.765	7.925	7.830	7.388	7.095	6.320	6.298	5.955	5.362	5.167	4.999	4.508	4.256	3.932	3.527	3.475	3.265	2.974	2.860	2.623	2.375	2.658	3.562	3.218	2.310	1.584	1.587	1.567	1.225	1.248	1.240	1.581	1.564	1.039	0.889	0.881	0.979	1.142	2.768	7.811	16.05	78.72	227.8	102.3	4.615	0.420	0.321
585.0	60.54	59.92	47.18	32.83	24.82	24.47	28.43	38.35	89.42	133.9	82.45	78.19	85.84	511.4	1578	101.2	14.13	11.99	10.59	10.48	9.592	8.381	8.359	8.311	8.154	7.887	7.762	7.821	7.347	7.940	7.822	6.565	6.759	6.216	6.160	5.450	5.222	5.075	4.700	4.320	4.168	3.795	3.675	3.727	3.376	3.220	2.805	2.820	2.612	2.379	2.119	2.091	2.584	2.922	2.426	1.708	1.420	1.377	1.156	1.058	1.086	1.166	1.659	1.384	0.937	0.843	0.968	0.987	1.256	2.266	4.142	18.77	104.4	197.6	33.58	1.771	0.322
590.0	69.88	70.00	49.65	30.44	23.07	22.26	25.58	35.10	62.30	137.5	105.9	82.55	71.19	156.4	1065	685.6	29.88	10.29	9.228	8.784	7.891	7.183	7.161	6.966	6.758	6.277	6.315	6.090	6.368	6.574	6.091	5.734	5.251	5.309	4.931	4.681	4.409	4.260	3.880	3.561	3.498	3.245	2.960	2.955	2.744	2.664	2.459	2.331	2.303	1.948	1.681	1.740	1.825	2.147	2.428	1.920	1.340	1.255	1.055	1.044	0.917	0.993	1.191	1.444	1.161	0.900	0.842	0.816	0.797	1.032	1.460	4.654	24.82	81.62	129.7	77.75	8.814
595.0	67.09	69.37	53.89	29.62	22.52	19.10	23.51	30.65	47.96	102.5	134.2	87.09	68.40	64.78	314.6	1195	99.39	9.042	8.100	7.279	6.592	5.912	5.791	5.584	5.323	5.322	5.225	5.396	4.966	5.564	4.761	4.765	4.198	4.336	3.895	3.711	3.376	3.475	2.988	2.698	2.785	2.600	2.261	2.313	2.197	2.123	1.946	1.982	1.830	1.519	1.452	1.346	1.394	1.584	1.924	2.005	1.467	1.040	1.000	0.924	0.785	0.803	0.861	1.026	1.303	1.210	0.927	0.734	0.773	0.740	0.848	1.519	5.872	18.57	39.30	121.9	93.93
600.0	72.39	59.85	49.84	30.94	20.16	17.93	21.03	29.01	43.93	77.43	144.8	95.13	67.56	42.55	88.27	871.0	602.8	15.65	6.627	5.784	5.432	5.140	4.856	4.557	4.698	4.452	4.334	4.533	4.508	4.588	3.861	4.150	3.812	3.343	3.237	2.936	2.923	2.925	2.652	2.581	2.316	2.311	1.908	1.943	1.977	1.819	1.939	1.698	1.481	1.301	1.357	1.178	1.103	1.216	1.433	1.688	1.709	1.071	0.979	0.893	0.783	0.895	0.673	0.851	1.007	1.170	0.952	0.761	0.730	0.683	0.629	0.655	1.540	4.389	9.163	44.36	128.3
605.0	72.41	64.61	48.98	28.67	19.28	15.03	19.44	28.36	42.45	63.79	135.7	109.5	67.76	38.68	32.59	352.5	1015	65.54	6.769	4.914	5.214	4.571	4.192	4.105	4.032	3.701	3.776	3.734	3.926	3.693	3.551	3.539	3.056	2.962	2.793	2.472	2.378	2.306	2.188	2.174	1.867	1.832	1.750	1.718	1.640	1.671	1.576	1.362	1.263	1.207	1.077	0.981	1.194	1.068	0.985	1.267	1.529	1.196	0.883	0.768	0.866	0.737	0.609	0.636	0.801	0.959	1.062	0.773	0.792	0.656	0.476	0.472	0.528	1.206	2.243	10.46	54.82
610.0	59.65	66.24	45.14	26.59	15.26	14.76	18.98	28.94	40.29	58.68	102.5	126.4	69.60	36.52	19.56	95.41	733.1	477.0	15.89	4.609	4.126	4.085	3.565	3.469	3.304	3.033	3.090	3.119	2.988	3.059	3.018	2.644	2.658	2.359	2.340	2.067	2.143	2.092	1.833	1.779	1.616	1.455	1.516	1.456	1.303	1.345	1.330	1.191	1.054	1.011	0.989	0.804	0.848	0.793	0.751	0.837	1.203	1.297	0.935	0.750	0.725	0.648	0.544	0.594	0.656	0.745	0.959	0.836	0.735	0.580	0.475	0.432	0.295	0.492	0.698	2.566	12.81
615.0	49.37	63.65	45.25	22.38	14.84	15.85	17.62	26.16	36.13	55.65	79.52	118.8	77.83	34.73	16.29	29.77	220.3	826.5	75.49	3.931	3.580	3.249	3.064	2.640	2.614	2.738	2.779	2.552	2.415	2.471	2.606	2.252	2.086	2.046	1.970	1.688	1.734	1.640	1.513	1.408	1.360	1.252	1.156	1.229	1.119	1.080	1.128	1.081	0.859	0.845	0.801	0.709	0.715	0.543	0.524	0.593	0.698	1.128	1.119	0.718	0.514	0.618	0.607	0.643	0.534	0.635	0.734	0.820	0.809	0.557	0.459	0.427	0.393	0.382	0.401	0.759	3.061
620.0	41.51	60.29	40.80	18.84	17.98	13.44	15.27	23.76	35.11	53.82	68.68	98.04	86.86	33.40	15.14	13.94	59.49	618.8	414.9	8.074	3.294	2.866	2.587	2.153	2.329	2.341	2.028	2.050	2.219	2.008	1.964	2.010	1.629	1.733	1.705	1.600	1.398	1.568	1.255	1.209	1.181	1.004	1.026	1.119	0.864	0.823	0.903	0.897	0.633	0.824	0.629	0.571	0.555	0.667	0.485	0.552	0.533	0.672	0.924	0.899	0.593	0.505	0.434	0.422	0.516	0.554	0.645	0.659	0.827	0.670	0.507	0.482	0.292	0.276	0.272	0.325	0.891
625.0	43.31	46.90	35.36	20.65	15.78	16.27	15.41	22.89	32.58	48.77	58.72	79.36	93.48	36.38	15.12	11.09	19.93	257.8	696.3	43.58	3.004	2.394	2.377	2.140	2.091	1.954	2.186	1.793	1.666	1.907	1.709	1.734	1.599	1.549	1.482	1.387	1.252	1.167	1.001	1.088	1.124	0.829	0.779	0.843	0.746	0.768	0.849	0.784	0.616	0.673	0.517	0.510	0.492	0.459	0.521	0.498	0.479	0.558	0.782	0.744	0.701	0.542	0.451	0.492	0.488	0.491	0.515	0.529	0.623	0.729	0.466	0.377	0.303	0.218	0.243	0.226	0.402
630.0	43.53	49.80	33.99	19.41	15.36	13.53	15.27	20.46	29.96	42.67	55.14	63.80	81.33	47.66	16.69	12.07	12.14	70.69	542.2	342.5	8.771	2.371	2.079	1.846	1.693	1.589	1.646	1.409	1.513	1.604	1.291	1.318	1.228	1.285	1.255	1.188	1.052	1.106	0.852	0.876	0.823	0.697	0.640	0.620	0.694	0.768	0.634	0.704	0.549	0.462	0.408	0.462	0.445	0.427	0.462	0.421	0.416	0.469	0.605	0.640	0.629	0.442	0.498	0.515	0.454	0.416	0.487	0.466	0.508	0.510	0.644	0.362	0.276	0.237	0.228	0.159	0.174
635.0	41.78	41.68	30.77	22.63	15.20	15.11	17.36	18.51	29.47	40.47	50.30	56.98	60.79	62.01	23.15	16.15	14.04	25.97	168.5	627.5	59.51	2.628	1.706	1.619	1.559	1.414	1.279	1.270	1.071	1.230	1.028	0.971	1.037	1.032	0.980	1.002	0.905	0.951	0.663	0.742	0.684	0.601	0.426	0.587	0.599	0.698	0.585	0.470	0.496	0.384	0.397	0.399	0.385	0.362	0.379	0.338	0.366	0.328	0.375	0.444	0.612	0.444	0.491	0.357	0.399	0.371	0.420	0.447	0.393	0.373	0.532	0.469	0.470	0.232	0.270	0.173	0.260
640.0	40.51	37.67	30.50	20.21	19.33	17.15	17.02	19.81	29.89	38.19	50.03	53.42	50.94	62.05	35.31	21.85	19.02	19.38	51.33	489.4	291.5	5.073	1.791	1.536	1.189	1.235	1.038	1.118	1.040	1.253	0.915	0.836	0.918	0.851	0.947	0.766	0.760	0.704	0.637	0.584	0.536	0.588	0.441	0.501	0.442	0.629	0.467	0.449	0.400	0.335	0.378	0.402	0.267	0.310	0.342	0.337	0.342	0.330	0.243	0.419	0.506	0.430	0.474	0.387	0.405	0.347	0.392	0.397	0.350	0.339	0.440	0.438	0.518	0.270	0.263	0.234	0.220
645.0	36.98	33.61	32.96	21.86	21.76	20.14	17.76	20.08	27.39	36.59	46.54	52.84	46.95	55.88	45.71	26.40	23.83	20.61	23.36	218.3	528.7	28.92	1.787	1.350	1.180	1.062	0.982	0.897	0.978	0.890	0.892	0.732	0.737	0.783	0.856	0.671	0.699	0.705	0.588	0.518	0.447	0.504	0.438	0.392	0.404	0.477	0.400	0.441	0.311	0.297	0.369	0.269	0.329	0.202	0.305	0.252	0.291	0.269	0.214	0.341	0.336	0.453	0.461	0.342	0.339	0.337	0.405	0.389	0.331	0.304	0.334	0.380	0.559	0.347	0.408	0.245	0.301
650.0	36.81	39.76	35.83	23.71	20.96	18.55	21.21	20.79	26.38	33.89	43.82	50.04	45.36	46.51	55.11	29.05	26.25	21.32	17.88	68.79	530.5	143.8	2.348	1.433	1.057	0.923	0.888	0.922	0.883	0.922	0.671	0.807	0.751	0.573	0.680	0.559	0.622	0.523	0.547	0.446	0.460	0.350	0.493	0.408	0.408	0.358	0.419	0.409	0.398	0.323	0.276	0.293	0.269	0.239	0.253	0.211	0.315	0.215	0.218	0.382	0.341	0.454	0.430	0.426	0.284	0.254	0.401	0.381	0.320	0.236	0.306	0.289	0.487	0.392	0.359	0.253	0.247
