Sample:	'1
File name:	光大二厂10万吨系统出水.FD3
Run date:	'15:17:52, 05/13/2025
Operator:	Administrator
Comment:	'

Instrument
Model:	F-2700 FL Spectrophotometer
Serial number:	23B8-004
ROM Version:	4J14000 07

Instrument parameters
Measurement type:	3-D scan
Data mode:	Fluorescence
EX  Start WL:	220.0 nm
EX  End WL:	600.0 nm
EX Sampling interval:	5.0 nm
EM  Start WL:	230.0 nm
EM  End WL:	650.0 nm
EM Sampling interval:	5.0 nm
Scan speed:	12000 nm/min
EX Slit:	5.0 nm
EM Slit:	5.0 nm
PMT Voltage:	700 V
Response:	Auto 
Corrected spectra:	Off
Contour interval:	50.000

Peak integration
Integration method:	Rectangular
Sensitivity:	1
Threshold:	1.000

Peaks
No.	ApexEX/EM(nm)	Height(Data)
1	225.0/580.0	58.70
2	225.0/600.0	51.36
3	230.0/345.0	1115
4	235.0/350.0	1110
5	235.0/380.0	1023
6	240.0/385.0	1028
7	245.0/535.0	216.1
8	255.0/280.0	429.7
9	255.0/560.0	129.0
10	260.0/290.0	436.2
11	260.0/575.0	100.0
12	265.0/295.0	575.2
13	265.0/585.0	88.50
14	270.0/300.0	785.1
15	270.0/600.0	80.56
16	275.0/305.0	817.3
17	275.0/370.0	1042
18	275.0/380.0	1043
19	275.0/610.0	67.80
20	280.0/315.0	776.6
21	280.0/360.0	1051
22	280.0/625.0	55.65
23	285.0/320.0	824.8
24	285.0/640.0	45.08
25	520.0/285.0	3.119
26	530.0/290.0	3.064
27	540.0/295.0	4.031
28	545.0/300.0	4.524
29	550.0/305.0	4.488
30	560.0/310.0	4.562

Data points
	220.0	225.0	230.0	235.0	240.0	245.0	250.0	255.0	260.0	265.0	270.0	275.0	280.0	285.0	290.0	295.0	300.0	305.0	310.0	315.0	320.0	325.0	330.0	335.0	340.0	345.0	350.0	355.0	360.0	365.0	370.0	375.0	380.0	385.0	390.0	395.0	400.0	405.0	410.0	415.0	420.0	425.0	430.0	435.0	440.0	445.0	450.0	455.0	460.0	465.0	470.0	475.0	480.0	485.0	490.0	495.0	500.0	505.0	510.0	515.0	520.0	525.0	530.0	535.0	540.0	545.0	550.0	555.0	560.0	565.0	570.0	575.0	580.0	585.0	590.0	595.0	600.0
230.0	61.65	1450	4182	1390	62.32	12.19	10.47	9.170	7.387	6.618	6.189	5.263	4.605	4.140	3.305	2.760	2.542	2.172	2.051	1.841	1.748	1.568	1.536	1.440	1.414	1.349	1.263	1.192	1.238	1.076	1.093	0.978	0.956	0.825	0.731	0.748	0.716	0.737	0.643	0.607	0.630	0.596	0.569	0.514	0.502	0.504	1.425	6.812	13.05	9.780	3.596	0.883	0.447	0.418	0.394	0.415	0.421	0.402	0.412	0.436	0.401	0.414	0.403	0.385	0.407	0.425	0.389	0.393	0.423	0.405	0.438	0.462	0.421	0.448	0.432	0.410	0.443
235.0	79.51	409.7	2822	5521	645.9	106.0	13.23	10.56	8.682	8.163	6.881	5.697	4.685	4.070	3.310	2.841	2.237	2.332	2.197	2.037	1.572	1.702	1.698	1.472	1.330	1.268	1.340	1.145	1.109	1.170	1.073	0.907	0.892	0.791	0.771	0.884	0.750	0.728	0.739	0.631	0.640	0.616	0.594	0.595	0.573	0.537	0.670	1.929	5.045	10.35	16.55	17.78	8.094	1.793	0.554	0.445	0.410	0.397	0.437	0.414	0.462	0.466	0.391	0.429	0.383	0.424	0.418	0.397	0.446	0.370	0.414	0.385	0.443	0.461	0.435	0.405	0.505
240.0	88.02	149.3	855.1	4950	5046	526.2	55.18	11.60	9.071	8.925	7.491	6.225	5.001	4.948	3.630	3.073	2.327	2.485	2.133	2.003	1.751	1.598	1.697	1.559	1.422	1.429	1.302	1.228	1.287	1.226	1.079	0.914	0.849	0.835	0.832	0.850	0.761	0.745	0.716	0.739	0.653	0.611	0.639	0.604	0.650	0.594	0.565	0.823	1.535	3.152	9.079	23.75	27.31	18.66	6.528	1.159	0.481	0.411	0.490	0.384	0.448	0.466	0.394	0.455	0.392	0.468	0.429	0.365	0.448	0.435	0.414	0.398	0.389	0.423	0.409	0.456	0.483
245.0	87.14	134.1	242.9	1696	7168	4177	406.9	24.73	12.37	10.85	8.000	6.765	5.139	4.933	4.004	3.623	2.708	2.579	2.286	1.944	2.013	1.761	1.779	1.627	1.363	1.385	1.318	1.448	1.359	1.229	1.059	1.058	0.937	0.939	0.715	0.772	0.728	0.780	0.685	0.688	0.677	0.607	0.654	0.548	0.581	0.641	0.744	0.788	0.750	1.068	2.439	8.117	20.69	36.30	27.55	15.94	4.545	0.748	0.506	0.459	0.441	0.491	0.490	0.423	0.386	0.454	0.441	0.412	0.426	0.412	0.445	0.376	0.415	0.431	0.357	0.426	0.449
250.0	66.35	110.0	187.5	456.2	2332	6580	7194	1494	99.87	13.70	10.52	8.232	6.820	5.308	4.423	4.122	2.995	2.735	2.385	2.145	2.084	1.759	1.712	1.718	1.539	1.432	1.389	1.302	1.216	1.320	1.183	1.070	0.976	0.895	0.766	0.804	0.735	0.696	0.660	0.691	0.680	0.574	0.582	0.612	0.552	0.544	0.604	0.716	0.824	0.801	1.028	2.208	5.229	12.00	20.61	33.66	37.19	35.35	13.86	5.003	0.696	0.461	0.465	0.476	0.463	0.485	0.451	0.402	0.425	0.483	0.415	0.439	0.396	0.472	0.451	0.487	0.484
255.0	50.89	62.51	124.1	284.8	600.8	1678	6806	9999.9	2077	107.2	13.68	11.26	8.207	6.155	5.001	4.327	3.208	3.069	2.713	2.387	2.023	1.917	1.839	1.528	1.531	1.397	1.583	1.585	1.259	1.436	1.219	1.160	1.016	0.856	0.826	0.765	0.687	0.726	0.765	0.637	0.653	0.622	0.605	0.613	0.540	0.594	0.571	0.577	0.579	0.743	1.023	1.412	1.694	3.075	5.070	8.348	15.23	38.70	65.56	59.95	20.88	4.946	0.576	0.536	0.529	0.468	0.517	0.451	0.468	0.469	0.459	0.438	0.460	0.473	0.493	0.469	0.489
260.0	59.95	44.72	67.44	211.2	322.8	436.4	2108	9999.9	9999.9	1557	48.61	13.97	10.02	7.582	5.194	4.418	3.671	3.321	2.952	2.527	2.204	1.959	1.736	1.844	1.840	1.741	1.408	1.567	1.437	1.433	1.269	1.264	1.121	0.877	0.948	0.785	0.789	0.714	0.776	0.657	0.628	0.703	0.620	0.626	0.548	0.600	0.538	0.509	0.498	0.485	0.744	1.495	1.453	1.485	1.627	2.410	3.985	10.78	30.40	61.97	77.02	30.43	16.24	2.532	0.600	0.533	0.512	0.464	0.464	0.452	0.504	0.436	0.490	0.512	0.472	0.575	0.506
265.0	55.52	46.50	44.03	116.1	290.9	262.6	533.0	3570	9999.9	9999.9	233.0	23.57	12.69	8.918	6.625	4.798	4.184	3.628	2.943	2.668	2.601	2.216	1.981	1.926	1.744	1.633	1.473	1.535	1.406	1.391	1.292	1.209	1.172	1.028	1.006	0.834	0.857	0.870	0.727	0.752	0.662	0.673	0.806	0.708	0.551	0.656	0.609	0.542	0.510	0.462	0.513	0.926	1.388	1.786	1.394	1.210	1.449	2.981	7.580	18.59	45.25	74.17	82.37	27.50	10.61	1.104	0.561	0.501	0.439	0.505	0.509	0.474	0.507	0.476	0.430	0.597	0.539
270.0	69.66	59.83	48.48	66.85	167.2	322.2	315.1	877.1	3835	9999.9	9999.9	3164	59.83	12.72	8.772	6.299	5.032	4.005	3.265	2.880	2.664	2.364	2.075	2.005	1.761	1.728	1.722	1.725	1.593	1.516	1.349	1.268	1.232	1.100	0.985	0.910	0.839	0.795	0.704	0.744	0.694	0.693	0.738	0.669	0.628	0.613	0.589	0.536	0.550	0.446	0.448	0.643	0.879	1.324	1.596	1.903	1.730	1.611	2.283	4.731	11.08	22.94	43.63	60.71	72.84	57.90	17.57	7.906	1.131	0.598	0.507	0.541	0.511	0.517	0.536	0.612	0.514
275.0	98.91	88.94	87.81	71.73	93.19	193.4	412.2	385.1	915.8	2674	9999.9	9999.9	1255	54.97	12.63	8.295	6.290	4.886	4.357	3.243	3.046	2.542	2.340	2.198	1.954	2.043	1.826	1.674	1.665	1.524	1.331	1.407	1.201	1.182	0.984	0.971	0.854	0.706	0.762	0.826	0.621	0.699	0.748	0.663	0.644	0.669	0.675	0.693	0.568	0.514	0.511	0.658	0.746	0.846	1.025	1.277	2.126	2.733	2.226	1.863	3.037	5.731	10.37	14.68	24.48	51.79	88.54	90.73	27.17	8.141	0.866	0.627	0.610	0.563	0.641	0.508	0.555
280.0	120.2	133.4	137.9	95.62	84.62	117.7	290.1	429.7	326.7	671.5	3300	9999.9	9999.9	887.1	26.67	10.74	7.702	6.001	4.979	4.033	3.068	2.760	2.602	2.258	2.123	2.109	1.838	1.848	1.682	1.535	1.484	1.367	1.262	1.163	1.013	1.045	0.937	0.814	0.870	0.854	0.696	0.697	0.764	0.739	0.701	0.848	0.877	0.876	0.697	0.659	0.686	0.708	0.656	0.772	0.836	0.879	1.261	2.096	2.960	2.630	1.762	1.916	2.960	3.939	6.218	13.71	36.63	76.27	98.52	34.86	21.41	3.938	0.777	0.636	0.667	0.548	0.565
285.0	142.0	179.1	182.9	125.1	88.62	98.92	162.9	423.9	347.5	261.6	853.3	4371	9999.9	8354	119.9	16.41	9.566	7.196	5.642	4.062	3.485	3.408	2.676	2.452	2.397	1.889	2.080	1.719	1.656	1.607	1.583	1.470	1.610	1.273	1.076	1.100	0.975	0.887	0.899	0.793	0.845	0.818	0.895	0.739	0.889	0.869	0.905	1.026	0.935	0.913	0.762	0.754	0.718	0.778	0.721	0.878	0.951	1.187	1.936	2.868	3.119	2.068	1.544	1.646	2.178	3.931	9.187	21.42	48.85	81.32	100.2	32.10	14.92	1.769	0.628	0.592	0.610
290.0	178.2	236.1	237.4	159.9	102.1	98.43	116.9	222.6	436.2	426.8	361.9	1152	4269	9999.9	9999.9	1988	31.58	9.934	6.999	4.962	4.303	3.711	3.049	2.788	2.596	2.183	2.050	1.889	1.848	1.720	1.622	1.498	1.424	1.319	1.174	1.249	1.015	0.954	0.892	0.869	0.749	0.845	0.800	0.805	0.878	0.971	1.041	1.244	1.189	0.973	0.869	0.871	0.815	0.791	0.742	0.867	0.916	0.984	1.208	1.461	2.147	2.709	3.064	2.377	1.763	1.954	3.147	5.780	12.18	23.32	44.37	58.68	75.94	61.55	20.61	10.38	1.852
295.0	204.0	272.3	283.7	196.7	125.5	113.4	116.6	161.3	270.7	575.2	559.3	490.4	1131	2742	9999.9	9999.9	685.0	26.73	9.869	7.141	5.602	4.692	3.736	3.411	2.900	2.314	2.186	2.219	1.906	1.775	1.747	1.703	1.395	1.380	1.209	1.275	1.223	0.942	1.027	0.804	0.787	0.833	0.805	0.834	0.929	1.048	1.180	1.201	1.192	1.101	1.027	0.950	0.818	0.766	0.812	0.886	0.954	0.938	1.112	1.197	1.515	1.639	2.348	3.725	4.031	2.720	2.158	2.674	4.136	6.457	11.04	14.22	21.64	41.83	77.46	93.79	32.94
300.0	223.4	288.9	304.5	218.2	143.6	135.7	151.4	179.7	246.4	439.8	785.1	523.4	492.2	770.6	3184	9999.9	9999.9	500.4	15.44	8.632	6.904	4.793	3.938	3.465	3.096	2.918	2.335	2.235	2.013	1.923	1.715	1.622	1.623	1.371	1.294	1.190	1.161	1.083	0.964	0.883	0.959	0.880	0.899	0.879	0.953	0.958	1.064	1.201	1.330	1.112	0.971	0.988	0.933	0.963	0.897	1.034	1.008	1.092	1.270	1.298	1.420	1.524	1.820	2.624	3.876	4.524	3.605	2.599	2.606	2.860	3.882	4.439	5.882	10.90	26.61	62.91	93.86
305.0	218.2	300.1	313.5	242.9	165.3	163.5	187.7	227.8	287.0	394.4	700.6	817.3	459.1	383.7	859.5	4039	9999.9	5047	72.21	11.54	8.424	5.558	4.363	4.089	3.347	2.985	2.516	2.359	2.253	1.991	1.757	1.694	1.624	1.319	1.326	1.245	1.130	1.061	0.935	0.939	0.975	0.983	0.824	0.897	1.015	1.073	1.036	1.187	1.308	1.177	1.145	1.157	1.065	1.092	1.118	1.145	1.198	1.450	1.504	1.625	1.480	1.663	1.911	2.176	2.857	3.694	4.488	4.321	3.392	2.422	2.386	2.613	2.512	3.689	7.052	16.50	38.45
310.0	223.7	301.4	329.5	263.4	200.9	191.2	233.8	279.5	339.4	427.6	566.1	795.5	751.0	417.3	380.8	1034	3879	9720	8066	1383	22.08	8.302	5.870	5.081	3.907	3.162	2.968	2.528	2.315	2.014	2.050	1.837	1.650	1.439	1.406	1.271	1.221	1.145	1.040	0.950	1.024	0.870	0.832	0.888	0.979	1.077	1.129	1.193	1.232	1.288	1.157	1.333	1.167	1.232	1.169	1.248	1.431	1.540	1.562	1.718	1.803	2.048	2.199	2.455	2.569	2.966	3.474	4.092	4.562	4.308	3.494	2.609	2.222	2.231	2.917	4.717	9.675
315.0	231.4	316.1	339.1	286.1	225.7	235.4	274.1	336.0	388.3	477.9	576.1	666.3	776.6	715.8	365.2	395.7	990.2	2532	8276	9999.9	484.4	19.29	8.386	5.990	4.769	4.004	3.482	3.035	2.686	2.184	2.193	1.936	1.813	1.482	1.515	1.429	1.238	1.117	1.127	0.953	1.066	0.986	0.959	0.973	1.019	1.101	1.072	1.343	1.224	1.243	1.171	1.389	1.369	1.434	1.234	1.443	1.436	1.622	1.777	2.083	2.073	2.223	2.302	2.546	2.794	3.077	3.255	3.303	3.546	3.945	4.571	4.393	3.219	2.302	2.131	2.558	3.495
320.0	252.7	331.1	382.3	335.0	283.9	281.8	312.2	371.7	443.6	528.8	623.4	686.7	706.3	824.8	564.6	330.9	402.3	695.6	2571	9999.9	8698	66.61	12.96	7.359	5.578	4.575	3.802	3.089	2.874	2.558	2.435	2.200	1.831	1.733	1.667	1.345	1.249	1.180	1.196	0.964	1.074	0.988	0.972	0.899	0.959	1.145	1.288	1.432	1.387	1.385	1.331	1.422	1.434	1.534	1.442	1.608	1.590	1.707	1.983	2.151	2.295	2.527	2.922	2.801	3.034	3.081	3.450	3.450	3.564	3.775	3.912	4.853	4.706	3.574	2.843	2.318	2.504
325.0	282.5	431.3	534.5	443.1	360.7	323.3	352.2	416.6	486.2	589.5	685.0	747.1	737.9	769.9	770.9	441.4	327.1	325.1	696.5	3645	9999.9	3763	55.78	10.86	6.945	5.083	4.301	3.341	3.119	2.922	2.698	2.363	1.959	1.821	1.609	1.474	1.396	1.183	1.161	1.026	1.115	0.925	0.999	0.922	1.015	1.291	1.456	1.758	1.828	1.794	1.611	1.770	1.727	1.664	1.712	1.625	1.904	2.097	2.151	2.190	2.501	2.746	3.047	3.197	3.329	3.409	3.691	3.641	3.792	3.879	3.812	4.131	4.996	4.837	4.334	3.132	2.440
330.0	345.7	580.0	786.1	684.8	477.7	398.4	401.8	469.0	550.9	672.2	778.3	848.9	833.1	780.6	763.7	680.5	445.9	302.6	316.0	941.5	3548	7981	6728	1143	18.49	7.496	5.365	4.198	3.761	3.190	2.851	2.432	2.107	1.860	1.710	1.567	1.415	1.295	1.151	1.180	1.127	1.062	1.068	1.008	1.132	1.458	1.684	2.168	2.394	2.446	2.228	2.327	2.115	2.069	2.026	1.897	2.161	2.281	2.370	2.540	2.899	3.030	3.210	3.753	3.615	3.684	4.095	4.138	4.288	4.187	4.263	4.250	4.310	4.625	4.510	4.435	4.078
335.0	382.0	678.0	953.6	872.8	618.3	485.3	464.5	521.8	624.4	737.1	861.3	929.5	926.9	869.1	779.0	719.0	681.8	417.9	293.8	374.1	893.8	2070	7117	9776	397.8	17.15	7.624	5.593	4.375	3.712	3.204	2.709	2.433	2.244	1.886	1.761	1.545	1.268	1.182	1.172	1.111	1.171	1.178	1.153	1.303	1.527	1.899	2.602	2.819	2.965	2.805	2.934	2.571	2.649	2.429	2.055	2.430	2.465	2.553	2.819	2.827	3.486	3.389	4.136	4.241	4.264	4.424	4.603	4.926	4.677	4.779	4.986	4.477	4.487	4.624	4.456	5.079
340.0	424.2	730.3	1062	1001	721.8	569.5	519.8	573.5	660.6	779.9	899.9	976.1	988.5	933.8	826.4	719.5	728.2	584.2	347.5	287.2	334.5	552.8	2173	9519	7899	316.4	11.61	6.955	5.498	3.934	3.605	3.057	2.550	2.344	2.080	1.590	1.560	1.403	1.327	1.256	1.072	1.088	1.265	1.182	1.327	1.625	2.042	2.755	3.128	2.952	2.993	3.457	3.026	2.743	2.583	2.444	2.536	2.705	2.745	2.943	3.041	3.330	3.589	4.177	4.229	4.452	4.757	4.826	4.974	5.039	4.880	5.210	4.913	4.861	4.818	4.708	4.341
345.0	440.5	769.7	1115	1055	783.2	610.5	556.2	606.3	690.0	801.0	941.5	1012	1022	969.5	872.1	745.7	686.1	669.8	462.3	308.1	244.0	240.4	573.8	3264	9999.9	3302	49.11	9.659	6.323	4.748	3.977	3.096	2.723	2.242	1.970	1.917	1.610	1.394	1.295	1.161	1.181	1.131	1.260	1.141	1.343	1.650	1.983	2.892	3.220	3.246	3.303	3.510	3.179	2.948	2.665	2.702	2.649	2.778	2.859	2.996	3.438	3.608	3.719	4.223	4.268	4.518	4.607	5.162	5.272	5.127	5.036	5.176	5.316	5.464	4.961	4.777	4.781
350.0	451.8	754.8	1105	1110	851.0	674.0	606.7	638.2	719.4	824.6	951.2	1018	1029	991.7	900.3	780.1	691.1	635.8	588.9	432.7	286.8	223.8	254.0	827.7	3306	6782	5802	1069	17.76	6.464	4.915	3.660	2.956	2.288	2.055	1.777	1.666	1.377	1.271	1.148	1.222	1.212	1.140	1.214	1.356	1.694	1.961	2.831	3.149	3.245	3.341	3.914	3.339	3.144	2.900	2.951	2.891	2.978	3.163	3.306	3.432	3.742	3.889	4.337	4.549	4.520	4.805	4.937	5.237	5.179	5.097	5.374	5.321	5.485	5.061	4.998	4.859
355.0	434.4	697.4	1037	1106	895.7	741.0	674.2	698.1	765.6	867.9	972.7	1022	1042	1004	932.0	826.4	736.7	648.8	598.2	582.8	413.6	287.1	240.6	321.2	831.2	1719	5605	8310	380.4	18.40	6.895	4.810	3.348	2.586	2.155	1.959	1.677	1.562	1.391	1.235	1.376	1.009	1.111	1.219	1.283	1.610	2.049	2.717	3.006	3.206	3.308	3.769	3.651	3.370	3.207	3.229	3.214	3.117	3.524	3.454	3.532	3.947	4.078	4.412	4.832	4.709	4.822	4.841	5.017	5.336	5.468	5.467	5.454	5.458	5.170	5.325	5.134
360.0	416.0	702.8	1007	1083	933.7	809.3	733.6	738.8	813.6	902.1	986.8	1033	1051	1011	950.5	857.8	771.9	690.1	617.0	604.0	550.8	373.7	281.1	246.3	313.2	468.3	1626	7400	7126	315.1	11.24	6.217	4.202	3.103	2.446	2.118	1.787	1.543	1.486	1.193	1.297	1.092	1.135	1.148	1.222	1.497	1.920	2.563	2.982	3.196	3.166	4.052	3.831	3.587	3.221	3.410	3.489	3.309	3.482	3.481	3.716	3.999	4.247	4.540	4.525	4.538	4.774	5.158	5.063	5.568	5.334	5.608	5.626	5.532	5.007	5.487	5.432
365.0	416.6	695.9	993.3	1071	961.0	836.0	774.3	784.5	842.5	923.6	992.3	1033	1040	1019	959.8	881.4	805.0	724.1	657.9	610.9	606.0	495.0	345.8	274.1	231.3	219.0	438.8	2380	8373	3153	47.91	8.519	5.240	3.548	2.884	2.298	1.846	1.813	1.538	1.291	1.247	1.243	1.145	1.204	1.311	1.506	1.824	2.433	2.881	2.950	3.118	4.023	3.860	3.453	3.560	3.476	3.537	3.395	3.561	3.624	3.879	4.303	4.203	4.597	4.853	4.587	4.751	5.115	5.138	5.160	5.300	5.206	5.334	5.435	5.493	5.430	5.660
370.0	408.9	655.3	949.7	1046	983.0	880.2	820.1	831.6	876.5	943.1	1004	1042	1038	1014	964.7	895.2	834.5	770.6	716.6	664.1	617.5	597.3	487.9	361.4	276.7	212.7	210.8	611.1	2581	5590	5117	1055	17.32	5.392	3.579	2.739	2.177	1.981	1.592	1.347	1.264	1.245	1.219	1.289	1.381	1.629	1.807	2.341	2.888	2.935	3.154	3.938	3.791	3.700	3.642	3.523	3.592	3.637	3.788	3.686	3.943	4.222	4.425	4.566	4.645	4.779	4.953	4.931	5.254	5.183	5.375	5.327	5.492	5.623	5.531	5.482	5.643
375.0	377.1	612.8	906.1	1012	1003	923.4	869.0	862.9	901.5	960.4	1014	1038	1034	1004	961.2	902.8	862.8	820.8	768.3	722.7	669.5	622.4	602.4	494.8	358.1	270.3	210.5	250.4	654.7	1384	4283	6955	340.3	17.96	5.343	3.578	2.526	1.985	1.648	1.541	1.476	1.349	1.396	1.280	1.341	1.633	1.722	2.410	2.679	2.795	3.144	3.747	3.937	3.893	3.828	3.607	3.817	3.937	3.927	4.135	4.264	4.577	4.496	4.657	4.764	5.024	5.139	5.066	5.244	5.178	5.324	5.305	5.506	5.497	5.487	5.559	5.702
380.0	386.3	613.7	883.4	1023	1013	941.8	890.0	890.1	917.3	973.5	1016	1043	1025	992.9	954.9	900.2	869.9	838.3	800.3	755.8	707.6	654.5	625.3	593.4	445.8	324.8	250.1	205.3	251.6	384.5	1203	5466	5552	282.2	9.738	4.491	3.171	2.344	1.867	1.604	1.424	1.352	1.318	1.253	1.406	1.654	1.740	2.105	2.730	2.747	3.097	3.666	3.664	3.898	3.975	3.493	4.063	4.000	3.979	4.244	4.222	4.463	4.623	4.882	5.016	5.112	4.865	5.075	5.039	4.902	5.437	5.257	5.272	5.456	5.545	5.528	5.524
385.0	369.2	607.8	867.7	1007	1028	977.2	918.6	892.6	944.5	963.3	1009	1039	1014	976.9	943.6	899.7	867.4	846.7	820.0	787.8	741.9	694.2	641.2	623.3	538.1	389.2	295.2	229.0	192.0	185.6	339.0	1637	5551	2666	40.49	6.633	3.918	2.630	1.972	1.806	1.496	1.355	1.355	1.273	1.333	1.551	1.713	2.210	2.554	2.569	2.871	3.795	3.737	3.766	3.990	3.718	4.080	4.115	4.060	4.137	4.185	4.193	4.656	4.680	4.628	5.166	4.577	4.836	4.977	4.925	5.188	5.228	5.359	5.524	5.819	5.480	5.907
390.0	361.4	577.6	826.1	981.7	1013	986.3	927.9	912.1	939.3	970.3	996.2	1010	989.9	962.4	924.0	880.6	859.8	844.0	825.3	806.4	773.2	732.6	683.0	635.5	597.4	504.8	376.8	288.5	229.3	184.1	178.2	434.7	1604	3364	3325	846.9	15.44	3.883	2.748	2.086	1.648	1.398	1.401	1.326	1.398	1.558	1.740	2.091	2.428	2.592	2.858	3.758	3.683	3.854	3.875	3.714	4.084	4.203	4.183	4.174	4.429	4.381	4.588	4.684	4.770	4.803	4.708	4.695	4.896	4.941	5.180	5.093	5.269	5.130	5.439	5.641	5.530
395.0	357.0	559.3	811.2	957.8	1015	985.1	942.3	928.0	932.4	959.6	981.9	986.3	973.1	929.2	891.1	857.7	839.2	824.0	818.5	811.0	790.4	760.2	717.9	668.2	616.8	579.6	480.9	367.5	293.1	234.7	186.0	200.0	427.8	822.5	2215	4167	290.6	17.16	3.954	2.659	1.851	1.678	1.378	1.464	1.373	1.596	1.813	2.148	2.389	2.517	2.887	3.754	3.685	3.886	4.037	3.535	4.344	4.128	4.191	4.111	4.337	4.494	4.383	4.776	4.554	4.665	4.672	4.608	4.549	4.937	4.829	4.770	5.035	4.928	5.394	5.493	5.586
400.0	339.4	566.4	818.1	944.7	992.3	970.1	952.0	926.8	926.5	955.5	971.1	961.1	937.3	909.7	875.1	836.5	826.4	811.1	804.8	805.4	790.3	771.2	739.5	688.7	634.7	587.7	548.4	441.1	341.4	279.4	215.8	173.4	186.0	245.5	601.3	2761	3466	254.0	10.27	3.491	2.187	1.805	1.361	1.471	1.586	1.599	1.852	2.156	2.332	2.480	2.763	3.563	3.642	3.938	4.092	3.904	4.283	4.059	4.447	3.951	4.327	4.215	4.251	4.511	4.427	4.579	4.606	4.471	4.665	4.653	4.719	4.776	4.725	5.496	5.075	5.210	5.527
405.0	355.0	538.7	784.7	935.3	1002	970.2	942.6	928.1	933.7	947.8	952.6	949.2	923.1	883.9	850.6	823.9	800.8	792.2	792.4	792.0	778.2	769.6	747.3	702.8	654.5	597.0	560.6	505.8	400.7	316.3	251.0	193.6	153.3	133.6	187.7	774.2	2874	2253	196.4	5.655	2.798	2.159	1.590	1.541	1.441	1.590	1.784	2.078	2.334	2.533	2.784	3.672	3.648	4.049	3.886	3.946	4.167	4.195	4.177	3.967	4.307	4.246	4.442	4.151	4.631	4.458	4.770	4.183	4.384	4.681	4.659	4.797	5.137	4.967	4.901	4.910	5.183
410.0	334.2	549.0	758.7	926.3	968.2	967.3	931.2	925.5	917.3	920.2	923.8	924.6	892.6	856.3	818.4	781.6	764.0	757.2	763.3	762.0	761.5	753.7	737.8	711.3	666.1	615.4	564.6	530.6	479.1	380.1	298.0	232.2	175.2	133.1	116.3	222.8	790.7	1911	2192	695.4	13.60	2.851	1.924	1.706	1.527	1.629	1.696	2.090	2.193	2.391	2.659	3.490	3.828	3.880	3.850	3.862	4.065	3.986	4.066	4.098	4.303	4.185	4.157	4.289	4.517	4.359	4.414	4.457	4.376	4.538	4.632	4.696	4.768	4.648	4.789	4.919	4.947
415.0	308.4	516.6	725.4	904.2	945.6	940.0	924.7	918.9	903.3	898.0	893.1	896.3	860.8	819.8	772.9	744.5	716.5	715.6	723.8	721.3	728.7	731.6	718.0	699.2	667.9	626.5	577.8	531.7	506.4	457.3	350.1	271.7	207.2	158.0	121.0	116.0	220.8	463.1	1155	2462	264.4	16.22	2.870	1.988	1.619	1.767	1.546	2.133	2.168	2.299	2.510	3.591	3.700	3.730	3.716	3.689	3.992	4.266	4.076	4.013	4.146	4.026	4.051	4.317	4.518	4.182	4.172	4.324	4.307	4.347	4.265	4.270	4.620	4.633	4.478	4.675	5.070
420.0	311.2	485.3	711.4	855.6	919.5	910.6	909.5	899.9	879.8	878.7	873.4	864.4	827.1	790.9	742.9	708.4	687.5	682.1	692.6	691.2	700.3	701.5	699.7	684.5	659.1	624.4	580.0	533.7	501.9	482.1	397.8	299.6	232.5	178.4	134.3	104.5	103.0	138.7	304.0	1446	2059	233.2	8.530	2.776	1.919	1.747	1.768	2.110	2.253	2.236	2.467	3.163	3.537	3.598	3.767	3.687	4.067	4.176	4.117	3.920	4.223	3.885	3.833	4.107	4.173	4.116	4.000	4.236	4.178	3.968	4.013	4.439	4.392	4.445	4.330	4.465	4.749
425.0	308.1	477.0	703.9	836.7	901.2	898.7	890.0	871.9	886.1	857.8	854.0	828.5	806.1	762.1	717.6	676.9	659.1	651.6	654.4	660.8	669.4	672.4	675.3	665.2	644.1	617.3	578.5	539.6	500.9	476.1	433.5	334.6	254.3	196.7	150.2	113.4	87.89	76.38	97.33	392.7	1540	1747	35.35	4.474	2.599	2.139	2.031	2.224	2.059	2.258	2.499	3.089	3.358	3.701	3.387	3.871	3.960	3.942	3.838	3.984	4.264	3.899	3.948	3.964	4.273	4.109	3.976	3.943	3.910	3.894	4.394	4.320	4.012	4.213	4.101	4.445	4.585
430.0	368.5	470.0	668.7	817.7	870.9	879.8	880.2	865.1	867.7	842.3	832.1	812.1	770.7	732.8	681.9	649.5	626.7	620.7	618.5	624.9	629.6	636.5	643.7	639.9	626.3	602.1	573.2	542.2	504.5	471.3	436.8	378.1	290.8	223.7	173.4	132.0	100.2	75.00	60.69	115.7	412.1	1154	1413	488.3	12.72	2.864	2.094	2.264	2.278	2.319	2.393	3.135	3.322	3.583	3.551	3.653	3.779	3.858	4.045	3.852	4.036	4.054	4.010	4.113	4.097	4.212	3.831	3.927	3.929	3.921	4.147	4.164	3.924	4.091	4.135	4.202	4.408
435.0	647.4	456.3	638.7	781.0	841.9	861.6	864.8	848.8	845.5	829.1	810.3	782.1	741.8	702.7	653.2	618.2	592.8	583.1	585.0	584.3	590.4	602.7	613.3	613.2	601.4	586.6	558.5	536.2	508.6	471.5	429.5	386.9	333.7	254.3	195.7	153.3	117.1	88.36	65.15	63.74	118.5	278.5	697.4	1661	245.9	15.28	2.831	2.530	2.541	2.283	2.320	3.094	3.428	3.368	3.500	3.606	3.721	3.898	3.779	3.930	4.025	4.041	3.881	4.133	3.864	4.067	3.942	3.805	3.600	3.819	3.782	3.708	3.730	3.859	3.913	3.963	3.972
440.0	971.7	545.8	615.3	749.0	818.7	843.7	847.0	844.2	834.3	798.2	787.3	761.7	715.5	676.9	632.3	586.9	571.5	557.7	554.8	557.6	561.5	571.1	580.8	583.8	580.9	567.0	544.6	527.2	504.8	473.2	428.6	381.3	342.4	279.8	212.1	166.5	129.6	99.29	73.99	57.89	57.88	85.17	184.4	963.1	1554	211.6	8.149	3.072	2.553	2.349	2.429	2.976	3.506	3.475	3.480	3.539	3.763	3.540	3.849	4.074	3.851	3.841	3.712	4.106	3.748	3.836	3.767	3.572	3.775	3.816	3.643	3.614	3.675	3.611	3.800	3.762	3.712
445.0	1104	871.1	603.6	724.4	788.9	810.4	826.3	827.0	810.6	787.0	760.7	734.4	691.2	647.9	607.1	564.3	546.8	534.1	528.4	531.8	531.5	541.1	548.5	555.0	550.4	541.8	528.2	510.7	495.8	465.5	425.4	375.3	333.0	295.9	230.1	177.8	139.3	108.4	83.39	63.32	51.35	46.92	61.10	263.2	1161	1360	148.2	4.749	2.821	2.462	2.503	3.063	3.105	3.446	3.244	3.394	3.630	3.535	3.761	3.748	3.742	3.940	3.671	3.815	3.905	3.988	3.727	3.208	3.515	3.717	3.792	3.565	3.594	3.627	3.666	3.840	3.559
450.0	761.2	1644	817.7	693.3	751.8	775.5	785.9	785.1	779.7	750.1	727.5	695.3	653.2	610.4	565.2	522.9	506.0	495.0	488.2	487.0	488.5	495.1	506.7	513.7	512.4	504.7	494.5	482.2	470.2	448.6	413.1	365.1	321.5	286.3	249.3	195.3	152.4	119.7	94.64	73.52	57.67	45.50	39.94	77.95	311.7	897.6	1188	402.3	10.92	2.874	2.703	3.022	2.991	3.186	3.188	3.402	3.492	3.446	3.712	3.724	3.641	3.634	3.559	3.623	3.573	3.683	3.652	3.407	3.523	3.492	3.566	3.477	3.160	3.487	3.303	3.622	3.369
455.0	392.6	1858	1851	678.4	703.7	725.7	739.3	745.1	743.0	720.0	689.3	659.1	607.5	563.3	524.2	487.4	464.9	448.3	442.1	440.6	443.2	447.5	455.2	461.9	464.9	461.2	454.2	446.0	441.3	420.4	393.7	353.3	311.8	271.1	244.8	212.8	165.7	128.8	103.9	82.79	67.05	52.64	40.87	41.29	87.55	215.8	538.9	1297	201.0	12.09	2.937	3.070	3.001	3.282	3.115	3.117	3.163	3.561	3.377	3.234	3.518	3.488	3.484	3.506	3.393	3.396	3.409	3.180	3.446	3.026	3.167	3.267	3.241	3.217	3.232	3.210	3.398
460.0	263.4	1306	3054	878.6	653.5	677.9	702.6	712.2	692.7	673.4	653.8	618.4	573.2	528.0	486.8	450.6	427.8	415.4	407.2	407.5	406.6	412.8	417.4	426.5	429.2	425.4	423.5	416.2	410.2	399.5	373.9	338.4	299.8	262.7	230.1	211.1	177.5	134.8	110.4	90.66	73.16	57.04	45.16	36.66	40.28	63.63	138.9	721.6	1110	158.6	7.301	3.384	3.223	2.925	2.938	2.845	3.296	3.259	3.155	3.095	3.352	3.466	3.307	3.180	3.294	3.145	3.255	3.049	2.875	3.003	3.154	3.165	2.999	3.023	3.167	2.987	3.102
465.0	223.9	695.3	3372	1872	625.0	635.1	661.1	673.9	651.6	630.2	612.3	575.5	542.7	495.3	459.7	419.8	396.9	386.3	379.0	379.2	376.3	380.4	384.5	392.4	394.8	396.3	396.0	389.2	383.1	374.8	355.0	322.8	285.7	252.6	220.2	199.7	182.0	145.0	114.9	93.89	77.87	62.27	49.05	38.71	31.50	31.24	43.72	194.1	825.4	935.3	123.5	4.824	3.357	3.031	2.971	3.002	3.185	3.227	3.058	3.235	2.950	3.350	3.227	3.077	3.053	3.024	3.014	2.940	2.787	3.088	2.809	2.800	2.971	2.856	2.815	2.788	3.065
470.0	202.8	391.9	2079	3775	1061	582.8	606.1	610.2	602.0	583.7	564.1	532.8	498.2	453.6	415.7	379.0	358.3	349.8	338.7	335.5	335.6	337.2	342.9	348.5	351.3	352.5	350.6	348.4	345.4	340.3	323.7	297.3	268.2	236.3	209.4	185.6	170.5	150.7	120.8	96.97	80.85	65.58	53.02	41.91	33.19	26.34	24.78	54.79	219.7	615.5	742.6	280.8	10.46	3.289	2.999	2.799	3.043	3.013	2.853	3.003	2.819	2.992	2.968	2.877	2.837	2.837	2.728	2.775	2.633	2.753	2.720	2.531	2.699	2.689	2.606	2.724	2.752
475.0	196.3	301.1	838.7	3822	2929	573.9	549.3	552.5	535.5	534.7	510.7	479.8	450.5	409.3	376.2	344.8	317.3	310.4	302.6	293.5	292.7	296.7	301.3	306.0	310.6	309.8	307.0	309.5	309.3	306.5	291.7	271.5	244.0	220.0	195.1	172.8	155.4	143.4	125.9	101.3	82.76	66.41	55.15	44.74	36.03	27.65	22.53	25.62	59.01	146.2	323.7	780.1	193.6	11.97	3.164	2.804	2.763	2.804	2.664	2.628	2.692	2.684	2.542	2.719	2.635	2.576	2.606	2.285	2.434	2.503	2.465	2.338	2.559	2.487	2.537	2.358	2.453
480.0	191.7	254.3	452.0	2428	4630	894.4	513.4	515.6	506.3	501.4	479.1	443.9	415.7	378.9	344.0	315.0	295.7	286.4	277.9	269.4	267.7	272.3	274.1	278.8	282.3	283.8	281.4	281.5	284.5	282.3	271.8	253.5	230.9	207.3	185.0	166.9	149.6	132.5	124.9	105.1	84.34	68.15	57.87	45.83	37.25	29.06	23.44	20.02	24.30	41.06	83.66	417.3	753.3	166.5	6.072	3.135	2.951	2.856	2.656	2.420	2.603	2.657	2.514	2.408	2.567	2.496	2.376	2.246	2.319	2.312	2.269	2.321	2.446	2.256	2.250	2.295	2.294
485.0	179.3	251.8	339.0	1176	4921	2091	493.4	482.5	476.5	470.2	452.7	415.3	396.2	354.2	323.8	293.9	276.2	265.8	256.8	249.9	247.1	248.7	252.1	257.1	260.9	258.9	257.9	259.4	264.4	264.1	254.2	238.1	218.5	198.5	176.4	158.5	142.6	126.9	117.8	108.7	87.23	69.64	57.90	48.20	39.33	31.38	25.26	20.39	17.31	19.19	26.64	113.0	544.4	686.7	27.84	4.087	3.052	2.823	2.768	2.635	2.424	2.495	2.399	2.484	2.300	2.392	2.349	2.006	2.251	2.249	2.199	2.047	2.332	2.148	2.136	2.278	2.044
490.0	149.9	234.9	305.8	554.7	2911	4351	851.5	447.7	436.4	431.9	414.3	388.7	361.9	325.6	294.7	268.2	251.9	240.6	234.1	225.8	223.7	225.6	226.3	231.8	235.3	232.6	234.2	234.2	238.0	239.7	230.7	217.0	200.4	183.7	164.8	150.4	133.3	120.3	108.7	102.6	90.62	73.77	59.05	49.51	40.92	33.34	27.40	22.51	17.89	16.19	15.84	33.55	145.9	422.5	571.9	121.9	11.30	3.274	2.832	2.449	2.372	2.346	2.279	2.328	2.228	2.189	2.102	2.021	1.974	2.240	2.170	1.989	2.008	2.010	2.096	1.969	2.063
495.0	123.0	221.2	299.6	370.3	1069	4391	2717	425.3	406.9	394.1	377.8	358.0	325.9	294.1	267.6	243.9	227.4	217.5	208.2	205.6	199.0	198.7	199.5	204.5	206.6	204.4	205.5	208.4	213.3	213.9	206.7	195.9	182.0	167.5	151.1	139.2	126.1	113.9	102.2	92.98	86.13	76.32	61.16	49.02	42.69	35.21	29.19	23.75	20.37	16.84	14.54	17.32	41.26	102.3	278.2	652.2	208.9	11.89	2.849	2.608	2.407	2.330	2.244	2.152	2.049	2.168	2.125	1.885	2.064	2.007	1.823	1.839	1.810	1.935	1.891	2.007	1.957
500.0	117.5	196.7	292.1	323.2	497.5	2773	4602	620.6	367.5	355.5	344.1	320.7	299.5	271.1	241.5	221.8	209.0	198.2	189.4	185.4	182.0	180.7	181.8	184.2	188.2	183.9	186.3	188.3	193.4	193.2	188.8	180.4	167.1	153.9	140.6	129.8	118.0	107.5	95.81	86.36	78.91	75.54	62.23	48.84	42.16	35.99	30.16	24.97	21.19	18.22	15.37	14.57	18.91	31.28	73.65	354.3	671.6	165.8	6.228	2.813	2.468	1.999	2.049	2.107	1.914	1.963	1.930	1.661	1.759	1.907	1.737	1.868	1.680	1.683	1.958	1.792	1.768
505.0	112.3	167.7	269.7	299.3	340.1	1289	5094	1582	342.6	329.2	317.6	300.7	277.8	247.2	220.3	201.5	191.3	178.4	176.8	169.3	164.1	166.4	164.6	165.3	169.1	166.8	168.7	172.2	174.4	175.1	172.5	164.5	151.7	140.8	131.3	119.8	110.0	100.9	88.97	82.32	72.16	69.34	62.94	50.68	41.38	36.45	30.53	25.34	22.13	18.31	16.69	14.67	14.28	16.73	24.75	97.26	456.7	584.3	30.40	3.831	2.600	2.274	2.023	1.832	1.843	1.895	1.607	1.542	1.664	1.883	1.741	1.613	1.613	1.632	1.773	1.644	1.646
510.0	103.8	141.2	229.9	291.0	276.2	525.0	3050	3707	551.1	294.6	285.3	271.6	244.8	222.0	197.5	179.5	170.0	158.7	152.4	149.7	145.0	142.4	143.3	144.1	148.0	146.1	146.9	150.1	152.4	153.2	149.6	144.9	134.9	125.0	116.5	107.8	99.19	89.83	81.79	74.05	66.27	61.31	57.84	51.60	41.90	34.88	30.20	25.51	22.40	19.21	17.13	15.15	14.04	13.46	14.20	29.36	122.5	343.3	435.8	127.0	10.49	2.239	1.991	1.864	1.898	1.815	1.663	1.552	1.645	1.529	1.594	1.555	1.460	1.456	1.554	1.543	1.439
515.0	97.11	125.4	185.1	264.7	249.6	299.7	1076	4250	1928	270.3	252.6	238.2	215.1	196.3	175.7	158.0	147.4	138.5	132.9	128.8	122.2	122.3	123.8	123.6	127.6	124.5	126.8	128.0	130.4	131.4	127.6	123.5	118.2	110.2	102.5	95.75	87.04	80.65	72.87	66.89	60.76	54.05	49.98	47.55	43.06	34.73	29.09	24.36	21.50	18.86	17.23	15.50	14.02	12.73	12.55	14.83	34.15	82.65	189.7	479.5	199.2	10.89	2.022	1.734	1.783	1.606	1.568	1.422	1.473	1.528	1.289	1.424	1.328	1.309	1.379	1.386	1.356
520.0	87.19	118.3	152.1	242.3	251.2	233.0	423.5	2789	3721	310.1	228.3	212.3	192.6	172.2	154.2	142.7	130.3	125.3	119.3	114.0	109.6	110.5	110.9	109.2	112.7	110.3	112.7	112.9	114.9	117.0	114.7	109.9	106.9	99.17	92.55	84.52	78.58	72.86	66.87	60.73	55.85	48.82	45.12	42.63	42.11	34.40	28.21	23.79	20.54	18.24	16.49	15.53	14.03	12.27	11.65	10.89	14.09	23.75	49.28	247.5	479.9	144.3	5.087	1.938	1.607	1.550	1.438	1.469	1.328	1.418	1.294	1.368	1.311	1.136	1.144	1.290	1.278
525.0	86.96	105.0	135.0	197.2	243.8	208.6	256.1	1306	4503	1063	206.2	197.8	169.7	157.4	141.1	129.5	118.5	110.3	106.1	102.8	98.36	99.03	98.50	98.66	99.10	98.29	100.7	101.4	104.3	105.5	103.5	100.4	94.64	89.35	83.76	76.59	72.27	66.63	61.82	55.64	51.03	44.97	42.43	38.58	37.53	34.82	27.63	22.93	20.13	18.05	15.89	14.84	13.48	12.46	11.26	9.818	9.772	10.66	15.25	65.46	293.0	409.0	30.81	2.847	1.612	1.533	1.372	1.352	1.238	1.221	1.313	1.335	1.282	1.132	1.282	1.153	1.193
530.0	79.50	96.02	121.6	153.3	219.0	203.8	195.7	466.1	2873	2872	346.0	171.5	152.8	138.8	121.4	110.0	102.4	95.30	92.79	88.80	84.77	86.11	84.35	83.75	86.10	84.52	85.43	87.77	89.53	90.94	89.21	86.63	82.86	77.58	72.19	66.75	63.14	58.16	54.57	49.24	45.37	40.77	37.35	34.29	31.97	31.34	27.74	22.77	19.06	16.78	15.14	13.59	12.54	11.84	10.72	9.814	8.494	7.933	7.666	18.43	75.96	220.2	257.9	120.0	9.866	1.566	1.447	1.294	1.153	1.136	1.159	1.126	1.123	1.138	1.124	1.031	1.137
535.0	72.85	85.86	108.0	129.4	175.8	216.1	170.4	225.9	983.7	3632	1351	151.4	132.2	117.6	104.2	94.69	89.03	80.81	78.95	75.94	73.03	72.71	72.26	71.86	72.67	71.29	71.07	72.96	75.25	76.18	76.28	73.77	69.80	65.80	61.70	57.87	55.19	49.85	46.96	42.47	39.66	36.19	33.00	29.62	27.67	26.16	25.95	23.25	17.80	15.13	13.97	12.58	11.66	10.80	10.19	9.242	7.895	6.994	5.826	7.924	20.10	52.04	106.4	308.7	169.2	9.921	1.528	1.235	1.157	1.015	1.150	0.911	1.167	1.024	0.961	0.874	0.945
540.0	63.46	69.94	103.2	119.7	136.0	201.9	165.5	156.4	345.7	2446	2773	192.4	117.0	105.4	94.36	83.96	79.98	72.81	69.38	65.61	64.62	64.91	63.00	61.93	62.27	63.89	61.42	63.76	65.91	67.72	66.43	63.76	61.44	57.67	54.12	50.77	48.53	44.36	42.30	37.90	35.55	32.33	29.76	26.96	24.16	22.83	22.43	21.97	17.75	14.52	12.85	11.79	10.76	10.24	9.542	9.090	7.853	6.438	5.656	5.586	7.692	14.38	26.97	144.1	312.2	113.1	4.756	1.316	1.060	1.019	1.018	1.022	1.002	0.919	0.927	0.978	0.918
545.0	55.40	66.46	88.36	103.3	117.1	169.0	164.1	135.0	178.4	1107	3512	582.7	104.8	94.79	82.98	73.11	69.63	64.21	61.07	58.25	56.98	55.44	54.87	54.08	56.22	55.41	54.65	56.48	56.62	59.62	58.72	55.14	53.01	50.63	47.55	45.10	43.05	38.95	36.91	34.08	31.44	29.25	26.60	24.55	22.36	20.31	18.87	20.13	17.83	14.01	11.79	11.02	10.14	9.393	8.845	7.972	7.434	5.897	5.321	4.742	4.567	5.565	8.481	37.17	174.5	267.1	30.89	2.186	1.228	1.004	1.001	0.955	0.890	0.862	0.892	0.914	0.928
550.0	59.84	66.73	80.70	91.14	96.34	129.2	163.0	122.6	122.4	358.2	2240	1934	139.0	78.92	69.44	62.80	57.37	54.23	51.72	48.64	47.95	46.61	46.16	45.82	46.14	45.63	45.54	47.10	47.51	48.86	48.34	45.93	44.20	42.33	39.44	38.25	35.63	33.35	31.01	29.33	27.02	24.79	22.89	21.17	19.32	17.63	15.92	16.20	15.91	13.72	11.18	9.924	8.887	8.333	7.814	7.110	6.798	5.866	5.075	4.196	3.787	3.739	4.101	10.15	44.16	130.9	188.4	93.49	9.368	1.129	0.943	0.939	0.866	0.826	0.854	0.827	0.851
555.0	62.06	58.69	73.88	77.81	78.95	92.71	135.4	123.0	93.28	151.7	732.6	2608	688.3	66.67	57.83	53.06	47.37	44.85	41.96	39.26	39.46	37.08	37.38	36.75	36.83	36.65	37.16	37.60	38.44	39.35	38.57	37.25	35.46	34.30	31.53	30.27	28.79	27.15	25.27	24.26	22.22	20.40	18.57	17.48	16.34	14.81	13.41	12.72	12.27	12.46	10.65	8.683	7.624	7.314	6.869	5.826	5.523	5.138	4.623	3.948	3.456	2.962	2.948	4.067	11.35	30.67	66.11	177.6	119.8	9.752	0.984	0.925	0.875	0.761	0.752	0.735	0.713
560.0	63.63	59.43	71.12	65.95	68.59	74.62	102.5	129.0	84.89	96.30	235.1	1804	1423	88.01	50.27	44.50	39.80	38.01	36.02	33.89	32.97	31.38	30.15	31.27	31.54	31.10	31.33	31.05	32.72	32.43	32.68	31.76	28.84	27.65	27.14	25.44	24.77	22.10	20.86	20.20	19.26	17.52	16.14	15.10	13.42	12.54	11.35	10.42	10.23	10.22	10.18	8.174	6.541	6.142	6.066	5.385	4.851	4.502	4.416	3.627	3.201	2.802	2.338	2.524	4.163	8.324	16.34	74.07	180.6	35.26	4.398	0.874	0.791	0.706	0.725	0.712	0.695
565.0	53.53	56.86	65.29	60.78	59.08	62.30	75.44	122.8	87.05	75.42	108.6	794.9	2177	159.4	43.74	37.35	33.90	32.25	30.64	29.51	28.01	27.09	25.78	26.51	26.85	26.57	26.19	27.52	28.13	26.56	27.65	26.84	25.48	23.60	23.04	21.98	20.90	19.40	18.40	16.97	16.10	15.10	14.18	13.16	11.71	11.05	9.967	9.052	8.715	8.441	8.930	7.879	6.554	5.553	5.260	4.959	4.300	4.077	3.901	3.787	3.055	2.656	2.218	2.159	2.538	3.124	4.863	18.72	85.66	150.7	31.07	2.233	0.788	0.781	0.687	0.650	0.657
570.0	50.92	57.38	59.31	54.36	50.39	52.50	56.77	96.25	97.49	64.00	70.35	242.8	1481	1105	68.33	30.75	27.99	26.53	25.06	23.30	22.45	21.49	21.20	21.59	21.67	21.01	21.06	22.08	21.83	21.91	22.31	21.53	20.36	19.44	18.46	17.54	16.83	15.54	14.80	13.58	12.87	12.07	11.41	10.57	9.774	9.006	8.571	7.747	7.367	6.709	6.873	7.071	6.013	5.158	4.311	4.300	3.912	3.752	3.427	3.131	2.910	2.507	2.097	2.152	2.009	1.980	2.374	5.278	21.24	64.57	105.3	63.42	8.669	0.840	0.683	0.733	0.696
575.0	54.90	56.27	55.16	49.92	44.10	43.98	45.96	62.21	100.0	65.96	58.22	93.86	476.3	1561	370.3	26.33	22.62	21.61	20.14	19.05	18.56	17.58	17.39	17.81	16.98	16.39	16.91	17.33	17.63	17.66	17.99	16.47	15.99	15.41	14.77	13.83	13.62	12.58	11.79	10.92	10.97	9.779	9.177	8.710	7.924	7.322	6.813	6.131	5.832	5.540	4.975	5.461	5.428	4.922	3.811	3.632	3.488	3.333	2.933	2.643	2.771	2.476	2.243	2.022	1.812	1.689	1.795	2.237	5.933	15.42	32.61	93.17	80.07	8.632	0.703	0.732	0.614
580.0	55.13	58.70	53.38	45.15	37.95	38.25	39.60	45.04	88.56	76.96	49.22	58.46	144.4	1093	890.8	38.03	19.70	17.34	17.46	15.93	15.63	15.23	15.16	14.89	14.17	14.37	14.39	14.59	14.72	14.82	14.33	14.14	13.61	13.32	12.56	11.96	11.04	11.13	10.18	9.276	8.958	8.457	7.715	7.213	6.845	6.419	5.871	5.661	5.079	4.464	4.234	4.078	4.549	4.458	3.699	3.263	2.991	2.932	2.673	2.473	2.237	2.269	2.270	1.778	1.680	1.608	1.589	1.587	2.411	4.500	8.304	33.83	98.10	34.84	4.293	0.727	0.642
585.0	55.16	53.80	48.90	43.41	35.55	36.03	37.83	38.65	65.40	88.50	50.53	47.23	63.46	472.7	1260	101.6	17.51	15.47	15.35	13.91	13.53	13.25	13.63	12.34	12.28	12.02	11.99	12.60	12.17	12.76	12.77	12.20	11.51	11.16	10.76	10.23	9.339	9.389	8.822	8.479	7.546	7.113	6.653	6.245	5.770	5.556	5.177	5.028	4.390	3.923	3.636	3.525	3.585	4.027	3.721	3.126	2.750	2.514	2.249	2.163	2.013	1.899	2.131	1.940	1.702	1.438	1.522	1.463	1.621	2.042	2.888	8.692	40.14	86.75	30.18	2.017	0.665
590.0	52.24	49.39	47.96	39.23	30.76	30.87	33.32	33.57	45.56	82.35	62.57	43.83	42.17	140.2	829.2	572.2	32.01	13.23	12.68	11.78	11.23	10.79	10.53	10.29	10.16	9.925	10.08	10.25	9.884	10.12	10.14	9.978	9.572	9.147	8.668	8.179	7.506	7.645	7.233	6.628	6.071	6.021	5.466	5.098	4.989	4.520	4.301	4.098	3.593	3.302	3.072	2.904	2.868	3.201	3.475	2.891	2.469	2.312	2.087	1.858	1.766	1.670	1.633	1.838	1.621	1.359	1.349	1.368	1.376	1.373	1.556	2.789	9.972	32.67	59.92	43.00	7.659
595.0	48.48	43.23	45.85	38.51	27.72	26.74	29.25	31.80	36.21	60.19	77.09	43.67	36.64	50.12	260.7	820.5	98.69	11.15	9.916	9.887	9.599	8.646	8.604	8.557	8.630	8.199	7.804	8.424	8.058	8.200	8.200	7.935	7.998	7.309	6.725	6.603	6.161	6.051	5.734	5.452	4.890	4.659	4.377	4.251	3.938	3.870	3.466	3.419	3.033	2.706	2.645	2.389	2.246	2.295	2.896	2.783	2.453	1.977	1.873	1.630	1.560	1.520	1.485	1.447	1.637	1.466	1.255	1.114	1.330	1.160	1.224	1.299	2.923	7.977	16.66	47.95	37.15
600.0	43.81	51.36	44.30	34.69	26.83	24.98	26.19	28.95	31.95	46.08	80.56	46.45	33.06	30.16	77.39	578.5	431.6	16.74	8.593	8.399	8.226	7.691	7.411	7.371	7.277	7.031	6.626	7.288	7.064	7.030	6.874	6.552	6.549	6.265	5.545	5.606	5.229	4.820	4.750	4.374	4.339	4.080	3.792	3.434	3.516	3.132	2.972	2.977	2.571	2.313	2.246	2.093	2.029	1.971	2.208	2.343	2.356	1.736	1.552	1.456	1.481	1.354	1.297	1.242	1.328	1.405	1.318	1.049	1.117	1.039	1.122	0.946	1.381	2.351	4.290	16.14	50.05
605.0	45.39	43.04	41.49	33.34	28.64	24.58	24.87	27.53	31.98	38.03	69.95	55.35	33.80	26.88	31.67	251.3	633.8	63.70	7.896	7.611	7.013	6.897	6.262	6.355	5.858	6.185	6.198	6.220	6.197	6.331	5.833	5.725	5.674	4.974	4.899	4.817	4.496	4.198	3.818	3.811	3.762	3.731	3.405	3.000	3.012	2.650	2.589	2.662	2.259	2.108	2.045	1.903	1.835	1.621	1.830	1.889	2.070	1.735	1.546	1.392	1.363	1.252	1.195	1.290	1.142	1.301	1.285	1.024	1.061	1.010	0.927	0.927	0.927	1.095	1.482	4.206	18.85
610.0	44.79	44.61	37.19	30.26	26.00	23.49	26.65	26.54	31.32	36.56	53.63	67.80	36.27	26.83	21.90	73.52	436.6	310.5	15.19	6.616	6.282	5.811	5.200	5.032	5.118	5.109	5.136	5.304	5.062	4.935	4.778	4.726	4.603	4.059	4.317	3.930	3.546	3.542	3.297	3.128	2.936	2.905	2.740	2.451	2.526	2.358	2.141	2.110	1.832	1.665	1.640	1.603	1.558	1.434	1.400	1.456	1.683	1.675	1.530	1.322	1.155	1.160	1.141	1.078	1.115	1.034	1.114	1.167	1.089	0.992	0.823	0.935	0.765	0.807	0.830	1.507	4.788
615.0	43.98	38.51	34.33	28.32	22.42	23.64	24.27	26.71	28.39	34.07	40.86	63.48	44.87	26.02	18.94	25.94	140.8	455.0	71.39	5.327	5.360	4.795	4.457	4.208	4.131	4.137	4.059	4.387	3.948	4.187	4.023	3.995	3.958	3.440	3.459	3.246	2.786	2.774	2.776	2.640	2.296	2.348	2.362	2.230	1.902	1.923	1.789	1.777	1.629	1.456	1.311	1.359	1.319	1.335	1.181	1.297	1.349	1.408	1.385	1.234	1.001	0.960	0.982	1.027	0.949	0.904	0.938	1.084	1.046	1.052	0.781	0.770	0.758	0.745	0.684	0.819	1.549
620.0	41.56	38.56	36.48	27.84	21.81	20.88	22.41	25.42	26.29	33.88	35.58	52.77	50.82	25.59	18.45	15.24	42.42	329.9	239.4	7.717	4.414	4.079	3.952	3.841	4.043	3.699	3.607	3.375	3.524	3.864	3.426	3.357	3.337	3.002	2.723	2.731	2.569	2.408	2.173	2.230	2.017	2.152	1.753	1.888	1.650	1.707	1.536	1.508	1.491	1.256	1.152	1.091	1.101	1.058	0.995	1.225	1.111	1.207	1.290	1.207	0.989	0.874	0.899	0.964	0.819	0.818	0.790	0.915	1.010	0.946	0.796	0.676	0.687	0.742	0.680	0.740	0.841
625.0	38.27	35.68	34.04	29.36	21.73	20.04	23.34	25.22	27.22	32.23	32.43	42.18	55.65	27.49	18.15	12.59	17.15	149.8	367.5	33.57	3.980	3.629	3.807	3.309	3.388	3.280	3.406	3.073	3.031	3.099	3.089	2.971	2.762	2.528	2.433	2.455	2.247	2.114	2.100	2.036	2.012	1.943	1.606	1.603	1.481	1.477	1.540	1.250	1.298	1.099	1.011	1.032	1.045	1.014	1.016	1.016	1.043	0.991	1.125	1.166	1.037	0.837	0.868	0.874	0.787	0.857	0.846	0.850	1.003	0.953	0.776	0.645	0.811	0.630	0.698	0.668	0.710
630.0	42.56	36.38	32.48	26.67	20.90	18.68	21.46	24.52	26.26	29.66	32.07	37.06	49.44	35.55	18.62	12.72	11.55	44.47	272.9	149.9	7.055	3.270	3.315	2.941	2.968	2.764	2.668	2.668	2.809	2.674	2.624	2.583	2.398	2.244	2.057	2.051	1.860	1.808	1.783	1.618	1.630	1.454	1.425	1.382	1.361	1.239	1.174	1.012	1.006	0.973	0.897	0.894	0.890	0.917	0.849	0.839	0.929	0.841	0.893	1.041	1.012	0.877	0.848	0.801	0.767	0.776	0.828	0.766	0.851	0.829	0.970	0.742	0.705	0.687	0.590	0.643	0.610
635.0	41.58	36.60	29.92	23.95	20.40	18.41	21.47	23.01	25.29	29.89	30.08	35.16	38.96	43.35	20.99	13.50	10.64	15.94	93.26	279.3	46.05	3.210	3.154	2.819	2.583	2.397	2.232	2.633	2.402	2.100	2.228	2.310	1.944	1.871	1.751	1.724	1.475	1.513	1.459	1.442	1.290	1.347	1.128	1.131	1.098	0.994	0.944	0.990	0.804	0.785	0.711	0.747	0.805	0.779	0.752	0.712	0.940	0.735	0.719	0.901	0.945	0.865	0.743	0.800	0.677	0.715	0.711	0.776	0.774	0.794	0.802	0.938	0.595	0.681	0.630	0.596	0.583
640.0	43.51	31.94	29.67	28.21	18.44	19.31	20.99	22.07	26.15	29.67	31.16	34.78	34.38	45.08	26.32	14.93	11.69	10.78	28.92	225.2	141.3	4.159	2.944	2.610	2.344	2.150	2.086	2.247	2.097	1.886	2.062	1.892	1.671	1.630	1.610	1.496	1.406	1.442	1.387	1.283	1.234	1.080	1.023	1.021	1.048	0.884	0.915	0.982	0.771	0.708	0.675	0.702	0.682	0.751	0.680	0.695	0.722	0.665	0.597	0.745	0.748	0.813	0.721	0.700	0.671	0.671	0.697	0.704	0.692	0.722	0.658	0.795	0.707	0.583	0.644	0.536	0.631
645.0	41.38	33.71	30.83	28.32	21.81	17.85	18.40	23.12	23.74	27.28	29.41	33.44	32.47	38.29	32.17	16.11	12.38	10.22	12.18	112.6	232.9	17.03	2.456	2.342	2.270	2.299	2.007	1.935	1.817	1.915	1.775	1.827	1.533	1.607	1.496	1.293	1.248	1.220	1.232	1.214	1.130	1.036	0.965	0.874	0.797	0.788	0.765	0.767	0.686	0.607	0.625	0.688	0.617	0.623	0.601	0.633	0.650	0.615	0.582	0.665	0.702	0.830	0.722	0.660	0.648	0.704	0.722	0.684	0.642	0.660	0.616	0.780	0.815	0.709	0.644	0.580	0.566
650.0	41.24	40.79	33.10	27.26	21.69	16.13	20.30	21.94	23.99	29.00	30.23	31.85	32.53	35.00	38.56	18.58	13.82	9.813	8.484	39.21	236.9	58.21	2.485	2.191	2.043	2.213	1.841	1.758	1.659	1.654	1.562	1.681	1.511	1.420	1.338	1.201	1.199	1.102	1.061	1.057	1.008	0.848	0.906	0.810	0.769	0.725	0.633	0.705	0.628	0.598	0.643	0.668	0.586	0.634	0.597	0.619	0.618	0.549	0.640	0.655	0.612	0.712	0.688	0.627	0.598	0.611	0.615	0.635	0.540	0.762	0.639	0.655	0.634	0.703	0.618	0.617	0.670
