Sample:	'1
File name:	H2025090815”—“Í¥Û«≈.FD3
Run date:	'16:15:48, 09/10/2025
Operator:	Administrator
Comment:	'

Instrument
Model:	F-2700 FL Spectrophotometer
Serial number:	23C7-003
ROM Version:	4J14000 07

Instrument parameters
Measurement type:	3-D scan
Data mode:	Fluorescence
EX  Start WL:	220.0 nm
EX  End WL:	600.0 nm
EX Sampling interval:	5.0 nm
EM  Start WL:	230.0 nm
EM  End WL:	650.0 nm
EM Sampling interval:	5.0 nm
Scan speed:	12000 nm/min
EX Slit:	5.0 nm
EM Slit:	5.0 nm
PMT Voltage:	700 V
Response:	Auto 
Corrected spectra:	Off
Contour interval:	50.000

Peak integration
Integration method:	Rectangular
Sensitivity:	1
Threshold:	1.000

Peaks
No.	ApexEX/EM(nm)	Height(Data)
1	225.0/310.0	855.7
2	225.0/605.0	67.83
3	230.0/340.0	645.6
4	235.0/385.0	585.3
5	235.0/510.0	225.1
6	240.0/520.0	186.1
7	245.0/415.0	616.2
8	245.0/530.0	155.2
9	250.0/400.0	623.4
10	250.0/410.0	622.6
11	250.0/545.0	132.2
12	255.0/280.0	354.9
13	255.0/560.0	110.1
14	260.0/570.0	97.55
15	265.0/585.0	118.8
16	270.0/600.0	146.8
17	275.0/305.0	2255
18	275.0/610.0	149.8
19	305.0/345.0	446.6
20	310.0/350.0	412.0
21	315.0/355.0	420.6
22	320.0/360.0	435.0
23	325.0/370.0	433.4
24	510.0/280.0	2.360
25	550.0/305.0	10.63
26	560.0/310.0	10.08
27	575.0/290.0	58.90

Data points
	220.0	225.0	230.0	235.0	240.0	245.0	250.0	255.0	260.0	265.0	270.0	275.0	280.0	285.0	290.0	295.0	300.0	305.0	310.0	315.0	320.0	325.0	330.0	335.0	340.0	345.0	350.0	355.0	360.0	365.0	370.0	375.0	380.0	385.0	390.0	395.0	400.0	405.0	410.0	415.0	420.0	425.0	430.0	435.0	440.0	445.0	450.0	455.0	460.0	465.0	470.0	475.0	480.0	485.0	490.0	495.0	500.0	505.0	510.0	515.0	520.0	525.0	530.0	535.0	540.0	545.0	550.0	555.0	560.0	565.0	570.0	575.0	580.0	585.0	590.0	595.0	600.0
230.0	29.74	625.8	2319	1020	47.90	6.816	6.263	5.051	4.077	3.961	3.754	3.447	2.935	2.564	2.291	1.881	1.726	1.600	1.466	1.318	1.160	1.069	1.041	0.934	0.920	0.851	0.728	0.815	0.772	0.640	0.681	0.671	0.583	0.554	0.503	0.442	0.405	0.429	0.407	0.421	0.403	0.429	0.443	0.385	0.384	0.348	0.863	4.311	9.105	8.128	3.457	0.756	0.320	0.277	0.273	0.274	0.275	0.285	0.273	0.271	0.252	0.250	0.264	0.267	0.243	0.286	0.272	0.256	0.281	0.297	0.245	0.253	0.283	0.286	0.263	0.272	0.252
235.0	59.24	169.0	1127	2635	1343	85.17	6.483	6.014	4.245	4.208	4.051	3.663	3.177	3.285	2.047	2.137	1.629	1.500	1.549	1.404	1.230	1.042	1.122	1.001	1.011	0.827	0.804	0.687	0.845	0.656	0.717	0.692	0.605	0.611	0.508	0.444	0.507	0.453	0.469	0.456	0.494	0.402	0.430	0.470	0.477	0.451	0.431	1.279	3.141	6.100	9.298	10.53	6.049	1.528	0.355	0.313	0.296	0.272	0.256	0.261	0.299	0.296	0.258	0.322	0.244	0.266	0.255	0.273	0.279	0.295	0.310	0.265	0.249	0.280	0.288	0.280	0.268
240.0	88.91	98.40	303.3	1729	3280	397.1	39.58	7.691	5.391	5.203	4.784	3.974	3.544	3.128	2.659	2.030	1.694	1.698	1.512	1.446	1.311	0.952	1.025	0.985	1.082	0.805	0.792	0.722	0.668	0.765	0.688	0.564	0.571	0.587	0.569	0.530	0.518	0.400	0.440	0.358	0.384	0.374	0.413	0.439	0.516	0.647	0.488	0.570	0.992	1.764	4.389	11.64	16.75	12.30	4.698	0.723	0.321	0.273	0.273	0.235	0.300	0.302	0.295	0.242	0.297	0.261	0.272	0.233	0.306	0.296	0.253	0.276	0.329	0.320	0.289	0.294	0.272
245.0	64.74	117.8	121.1	499.1	2586	3022	312.3	18.14	6.168	5.579	4.649	4.729	3.652	3.492	2.797	2.436	1.780	2.026	1.572	1.371	1.264	1.054	0.901	1.184	0.874	0.893	0.910	0.810	0.640	0.657	0.731	0.628	0.587	0.629	0.602	0.435	0.463	0.402	0.337	0.369	0.338	0.374	0.337	0.287	0.418	0.591	0.680	0.673	0.625	0.592	1.187	3.855	10.54	18.23	18.98	10.66	3.045	0.483	0.253	0.257	0.280	0.316	0.281	0.263	0.242	0.314	0.388	0.267	0.365	0.235	0.255	0.262	0.342	0.305	0.254	0.288	0.296
250.0	30.70	77.96	152.7	183.1	722.9	2358	3276	1153	86.50	7.826	5.980	5.242	4.162	3.453	2.900	2.247	2.115	1.877	1.581	1.502	1.417	1.160	1.042	1.142	0.949	0.933	0.939	0.908	0.736	0.734	0.708	0.551	0.569	0.621	0.524	0.531	0.493	0.417	0.369	0.396	0.360	0.354	0.316	0.360	0.364	0.374	0.409	0.629	0.766	0.715	0.681	1.169	2.681	5.879	10.85	16.32	20.35	16.50	9.789	3.258	0.573	0.317	0.300	0.299	0.309	0.326	0.288	0.275	0.297	0.281	0.303	0.260	0.277	0.284	0.260	0.328	0.351
255.0	27.18	33.33	85.04	198.2	238.4	557.6	1956	5156	1717	108.2	8.672	6.775	4.651	4.020	2.617	2.380	2.286	2.132	1.650	1.584	1.411	1.179	1.054	1.172	0.927	0.962	0.893	0.846	0.839	0.641	0.782	0.606	0.656	0.616	0.527	0.517	0.566	0.384	0.426	0.392	0.416	0.425	0.358	0.435	0.360	0.424	0.350	0.430	0.495	0.624	0.876	1.188	1.049	1.575	2.644	4.052	7.743	17.83	30.48	25.10	14.98	3.556	0.482	0.313	0.326	0.285	0.315	0.276	0.265	0.327	0.274	0.263	0.237	0.300	0.299	0.271	0.236
260.0	24.35	19.96	32.30	137.8	227.3	173.3	512.2	3299	6147	1381	63.27	9.204	6.695	4.790	3.560	2.683	2.699	2.037	1.829	1.392	1.483	1.454	0.983	1.035	1.070	0.895	0.947	0.907	0.943	0.850	0.742	0.664	0.654	0.589	0.459	0.485	0.538	0.468	0.332	0.429	0.400	0.378	0.411	0.334	0.360	0.347	0.291	0.395	0.325	0.405	0.608	1.147	1.349	1.000	0.927	1.202	2.069	4.859	13.77	29.78	41.20	24.06	10.62	1.499	0.423	0.342	0.316	0.404	0.315	0.292	0.281	0.245	0.245	0.306	0.296	0.282	0.243
265.0	24.04	17.66	16.39	56.96	200.7	185.8	140.0	932.8	4791	6731	1052	25.58	8.670	5.459	4.204	3.348	2.491	2.149	1.765	1.664	1.511	1.386	1.431	1.166	1.079	0.934	0.966	1.020	0.950	0.818	0.920	0.694	0.620	0.682	0.537	0.541	0.538	0.385	0.409	0.437	0.353	0.379	0.363	0.374	0.404	0.320	0.323	0.351	0.318	0.285	0.368	0.598	1.187	1.481	1.196	0.742	0.770	1.383	3.527	9.038	23.77	42.17	46.92	20.70	5.980	0.660	0.307	0.395	0.292	0.334	0.241	0.381	0.259	0.352	0.295	0.332	0.299
270.0	25.97	20.86	17.68	23.86	81.02	213.8	194.9	249.7	1325	4836	7330	2773	63.44	8.683	5.511	4.257	3.112	2.577	2.215	1.952	1.648	1.595	1.450	1.298	1.118	1.124	0.977	1.022	0.913	0.880	0.835	0.771	0.738	0.716	0.596	0.558	0.538	0.456	0.451	0.461	0.437	0.396	0.414	0.440	0.407	0.393	0.362	0.375	0.343	0.311	0.304	0.339	0.592	0.850	1.266	1.372	1.276	0.846	1.159	2.343	5.933	12.87	25.37	38.30	36.18	37.69	12.86	4.956	0.685	0.345	0.362	0.325	0.302	0.314	0.355	0.339	0.287
275.0	49.03	43.38	33.21	25.23	33.23	83.54	265.4	245.8	343.9	1157	3999	9999.9	3899	75.19	8.540	5.632	4.073	3.286	2.840	2.186	2.178	1.706	1.576	1.314	1.317	1.149	1.056	1.098	1.143	1.035	0.931	0.739	0.830	0.669	0.696	0.606	0.527	0.568	0.470	0.493	0.446	0.398	0.454	0.392	0.475	0.467	0.483	0.433	0.402	0.397	0.288	0.385	0.368	0.400	0.580	0.816	1.452	2.033	1.482	1.062	1.693	3.268	6.040	9.371	14.04	37.87	63.12	61.75	19.30	4.579	0.566	0.422	0.287	0.290	0.408	0.344	0.315
280.0	70.32	75.59	65.64	43.25	34.42	42.34	149.0	354.9	226.7	335.5	1099	6510	9414	878.3	41.58	7.619	5.049	3.975	2.980	2.726	1.985	1.935	1.665	1.433	1.407	1.245	1.176	1.184	0.988	1.030	0.944	0.886	0.868	0.705	0.664	0.602	0.630	0.569	0.458	0.547	0.508	0.482	0.468	0.525	0.505	0.494	0.489	0.689	0.492	0.421	0.332	0.398	0.417	0.402	0.395	0.512	0.691	1.632	2.360	1.916	1.244	1.243	1.903	2.684	3.784	10.34	26.78	60.38	77.48	27.63	12.85	1.595	0.393	0.361	0.368	0.296	0.360
285.0	126.7	151.4	135.3	83.65	52.85	47.40	83.45	299.9	410.8	244.2	411.8	1982	8625	7322	607.3	18.72	6.184	4.992	3.411	2.777	2.496	1.963	1.751	1.389	1.483	1.492	1.121	1.172	1.095	0.958	0.918	0.829	0.795	0.802	0.738	0.739	0.640	0.608	0.571	0.584	0.573	0.574	0.555	0.568	0.665	0.701	0.622	0.757	0.683	0.598	0.524	0.501	0.459	0.413	0.465	0.463	0.550	0.841	1.467	2.431	2.684	1.689	1.417	1.465	1.774	3.361	7.205	18.19	42.15	73.87	80.09	23.45	6.889	0.718	0.471	0.395	0.395
290.0	275.5	352.9	321.2	192.7	107.7	80.64	108.0	220.5	497.9	685.9	694.7	1036	2814	7110	8174	2089	36.68	7.040	4.764	3.588	3.056	2.276	2.046	1.641	1.541	1.419	1.261	1.248	1.203	1.037	0.982	0.930	0.794	0.850	0.895	0.829	0.815	0.841	0.681	0.688	0.644	0.708	0.782	0.814	0.982	1.078	1.178	1.255	1.259	0.996	0.798	0.695	0.610	0.609	0.567	0.611	0.720	0.849	1.201	1.565	2.453	3.240	3.747	3.215	3.010	3.360	4.411	6.906	12.58	23.04	42.61	58.90	49.22	53.91	14.21	5.819	0.759
295.0	443.7	583.2	536.4	320.5	173.9	127.6	165.5	278.5	505.3	1010	1410	1332	1572	2143	4794	9999.9	2904	43.90	7.379	5.076	3.916	2.869	2.612	2.214	1.775	1.623	1.441	1.340	1.280	1.131	0.989	1.107	0.878	0.880	0.993	0.921	1.125	0.958	0.874	0.892	0.819	0.840	0.954	1.089	1.384	1.668	1.667	2.093	1.737	1.541	1.118	1.115	0.839	0.853	0.785	0.715	0.905	0.948	1.256	1.640	2.325	3.068	4.360	5.933	6.577	6.106	5.651	6.205	7.438	9.329	12.61	15.37	18.17	48.44	87.40	88.09	22.33
300.0	548.1	720.4	690.2	406.3	208.3	160.5	210.7	345.9	584.4	1060	1824	1809	1527	1131	1380	6816	9999.9	511.5	25.72	6.823	4.618	3.596	2.796	2.545	2.029	1.670	1.569	1.450	1.448	1.246	1.035	1.066	0.806	0.881	0.947	1.097	1.283	1.126	1.083	0.938	0.969	0.927	1.131	1.313	1.623	1.958	2.108	2.493	2.375	1.817	1.431	1.252	1.042	0.952	0.841	0.924	1.132	1.185	1.567	1.994	2.707	3.397	4.435	5.649	7.934	8.833	7.926	7.329	7.268	7.237	6.501	5.848	5.708	12.74	32.64	78.10	107.5
305.0	598.6	827.5	766.7	440.3	234.6	186.0	244.1	387.2	660.1	1121	1833	2255	1728	1001	551.5	1865	8704	9003	374.4	13.27	5.668	4.393	3.170	2.902	2.226	1.899	1.588	1.480	1.544	1.317	1.082	1.074	0.890	0.882	1.077	1.093	1.358	1.245	1.051	0.961	1.029	1.053	1.274	1.386	1.707	2.023	2.280	2.715	2.674	1.967	1.639	1.255	1.176	1.018	0.924	0.899	1.237	1.339	1.702	2.223	2.962	3.683	4.476	5.670	7.406	8.942	10.63	9.611	8.352	7.292	5.658	4.015	3.183	4.025	8.188	20.98	50.82
310.0	618.5	855.7	779.7	456.6	245.8	201.6	262.4	413.4	694.8	1143	1729	2138	2024	1091	403.2	519.3	2293	6854	6680	1554	26.54	6.041	4.111	3.164	2.726	2.225	1.842	1.664	1.546	1.368	1.346	1.175	1.127	0.901	1.117	1.088	1.302	1.330	1.060	1.014	0.984	1.078	1.295	1.431	1.740	2.179	2.337	2.688	2.657	2.062	1.596	1.312	1.195	1.095	1.013	1.045	1.272	1.525	1.873	2.374	2.992	3.762	4.738	5.823	6.833	7.995	9.248	9.923	10.08	9.092	6.385	4.124	2.710	2.148	2.753	5.450	12.23
315.0	584.6	818.4	747.3	447.3	241.0	205.6	263.7	412.2	666.7	1091	1583	1838	1802	1302	450.7	248.2	580.8	1602	3987	9695	2239	30.62	5.871	4.229	3.277	2.634	2.125	1.863	1.759	1.717	1.466	1.284	1.170	1.080	0.968	1.179	1.232	1.281	1.073	1.096	1.029	1.127	1.117	1.496	1.590	2.028	2.170	2.495	2.573	2.083	1.439	1.252	1.207	1.095	1.048	1.197	1.546	1.593	1.928	2.256	2.916	3.726	4.809	5.586	6.157	7.187	7.870	8.303	8.385	8.659	8.135	5.358	3.011	2.036	1.652	2.155	3.567
320.0	558.2	769.7	705.1	430.9	242.6	201.6	260.2	397.1	635.0	996.8	1437	1646	1555	1218	632.6	227.8	223.8	417.9	1012	5919	9144	381.6	19.03	5.580	3.929	3.030	2.453	2.008	1.814	1.556	1.499	1.336	1.303	1.027	1.075	1.211	1.273	1.209	1.028	1.114	1.050	1.224	1.119	1.366	1.662	1.922	2.128	2.452	2.567	1.875	1.456	1.322	1.160	1.062	1.157	1.210	1.297	1.633	2.011	2.312	2.860	3.526	4.091	5.278	5.843	6.573	7.294	7.411	7.633	7.426	6.524	6.080	4.549	2.619	1.623	1.506	1.719
325.0	525.6	738.6	693.8	429.1	255.5	213.4	253.3	388.0	592.7	918.7	1310	1499	1379	1010	744.7	340.9	172.0	171.3	280.8	1562	7246	7275	293.2	9.722	5.121	3.713	2.576	2.159	1.820	1.538	1.493	1.283	1.179	1.134	1.062	1.193	1.201	1.196	1.168	0.971	1.065	1.038	1.169	1.330	1.509	1.842	2.124	2.531	2.457	1.961	1.569	1.341	1.303	1.113	1.077	1.132	1.283	1.550	1.828	2.341	2.613	3.175	3.823	4.859	5.485	6.337	6.552	6.909	6.804	6.385	5.254	4.805	4.796	4.348	2.647	1.746	1.679
330.0	473.4	683.6	680.1	454.7	279.2	222.2	261.3	366.6	537.5	819.8	1143	1295	1212	863.7	593.8	508.6	296.2	156.5	141.2	405.2	1891	5517	5460	1327	22.01	5.319	3.506	2.784	2.160	1.865	1.615	1.388	1.144	1.098	1.146	1.237	1.123	1.133	1.118	0.952	0.916	1.053	1.073	1.349	1.414	1.675	1.998	2.406	2.467	2.004	1.631	1.542	1.317	1.130	1.110	1.174	1.284	1.538	1.780	2.205	2.485	2.913	3.552	4.228	4.749	5.609	5.822	6.052	6.058	5.641	4.954	3.988	3.616	3.578	3.692	3.458	2.692
335.0	443.7	639.1	635.8	477.0	309.5	254.2	272.2	361.5	503.0	727.9	984.1	1116	1066	793.4	526.1	428.5	470.9	269.0	146.0	177.1	484.0	1296	3212	8349	2081	28.75	5.538	3.681	2.766	2.287	1.891	1.621	1.254	1.147	1.133	1.190	0.957	1.052	1.033	0.967	0.962	0.964	1.078	1.231	1.468	1.784	1.885	2.221	2.484	1.998	1.678	1.664	1.423	1.289	1.135	1.374	1.354	1.443	1.692	2.022	2.388	2.882	3.153	3.704	4.319	4.628	5.078	5.103	5.104	5.268	4.572	3.593	3.136	2.945	2.798	3.039	3.619
340.0	420.8	622.9	645.6	499.4	345.4	278.4	283.8	362.8	474.7	669.6	889.2	1001	976.5	761.5	526.4	399.7	427.0	422.8	203.2	149.4	194.5	352.8	824.0	4971	8025	343.7	19.13	4.880	3.265	2.846	2.116	1.627	1.444	1.179	1.177	1.195	1.110	1.118	1.058	0.993	0.941	0.965	1.152	1.129	1.371	1.809	1.911	2.170	2.246	2.101	1.655	1.883	1.580	1.391	1.256	1.436	1.440	1.412	1.818	1.836	2.226	2.598	2.982	3.552	4.241	4.226	4.604	4.445	4.672	4.794	4.497	3.708	3.584	3.125	2.947	2.681	2.981
345.0	385.3	581.0	628.3	505.0	366.2	299.6	310.3	355.2	457.6	625.7	811.5	912.0	903.7	728.2	532.6	416.4	369.2	446.6	335.8	181.4	154.6	164.2	247.3	1313	5970	6549	286.1	9.797	4.380	3.031	2.379	1.804	1.670	1.217	1.196	1.166	1.164	1.028	1.016	0.954	1.036	0.951	1.101	1.057	1.461	1.715	1.799	2.250	2.303	2.032	1.694	1.933	1.677	1.633	1.599	1.555	1.566	1.543	1.818	1.918	2.238	2.438	2.860	3.356	3.934	4.052	4.236	4.168	4.342	4.546	4.087	3.811	3.437	3.159	2.860	2.629	2.976
350.0	382.1	548.4	606.3	520.1	404.4	345.6	338.3	371.9	451.3	583.5	738.0	821.7	815.6	692.6	547.3	445.9	385.4	378.4	412.0	321.9	201.3	162.3	152.0	361.3	1554	4454	4413	1235	21.10	4.529	3.309	2.235	1.817	1.481	1.232	1.147	1.126	1.127	0.994	1.008	0.919	0.914	1.040	1.130	1.416	1.587	1.745	2.196	2.248	1.997	1.774	2.033	1.832	1.792	1.676	1.646	1.742	1.649	1.795	1.998	2.366	2.519	2.889	3.142	3.453	3.523	3.671	3.790	3.926	4.125	3.943	3.620	3.456	3.125	2.886	2.862	2.916
355.0	353.2	519.1	584.2	531.5	442.9	394.3	387.6	406.6	464.8	570.3	677.8	750.6	754.2	674.0	559.1	485.7	427.4	391.2	377.5	420.6	336.7	213.7	169.3	181.6	414.7	1049	2331	6621	2029	27.45	4.998	2.928	2.134	1.761	1.332	1.177	1.177	1.121	0.916	1.055	0.954	0.972	1.099	1.189	1.314	1.443	1.753	1.997	2.123	2.020	1.928	1.972	1.922	1.876	1.876	1.852	1.948	1.834	1.914	2.145	2.306	2.564	2.774	3.034	3.252	3.276	3.517	3.488	3.798	3.836	3.481	3.745	3.495	3.302	3.225	3.203	3.129
360.0	329.8	502.8	563.3	532.9	466.0	434.2	422.2	432.8	484.4	559.6	653.8	716.9	718.9	665.9	579.2	508.3	460.2	420.3	392.2	402.4	435.0	293.7	206.2	167.0	183.6	294.3	593.5	3607	6829	332.9	19.21	4.111	2.845	2.044	1.678	1.520	1.122	1.063	1.008	0.920	0.977	0.917	1.082	1.176	1.210	1.421	1.761	1.986	1.940	1.927	1.944	2.075	2.066	1.909	2.054	1.882	1.882	2.107	2.053	2.373	2.306	2.527	2.810	2.713	3.310	3.186	3.402	3.387	3.507	3.889	3.582	3.633	3.527	3.428	3.546	3.453	3.360
365.0	322.7	468.6	554.7	544.2	495.4	463.3	459.1	459.6	501.6	560.5	646.1	694.3	702.2	655.5	589.0	527.0	482.8	451.1	419.9	396.0	430.7	400.5	257.5	191.9	152.9	145.7	185.7	931.2	4607	6009	290.3	10.06	3.516	2.570	1.737	1.640	1.238	1.098	1.062	0.972	0.992	0.969	1.075	1.133	1.241	1.529	1.682	1.950	1.983	2.053	1.797	2.216	2.234	2.174	2.252	2.114	2.051	2.246	2.243	2.472	2.478	2.588	2.745	2.733	3.201	3.349	3.283	3.472	3.438	3.690	3.590	3.634	3.546	3.370	3.435	3.558	3.495
370.0	322.3	461.9	557.0	548.8	523.5	511.2	503.4	494.3	526.8	579.6	642.6	681.4	683.4	644.2	600.2	547.4	516.0	488.8	461.6	429.6	415.1	433.4	377.4	255.3	182.8	142.2	119.0	262.4	1173	3710	5157	1200	19.70	4.003	2.490	1.985	1.524	1.386	1.198	0.980	1.074	1.141	1.173	1.153	1.300	1.540	1.662	1.917	2.050	2.002	1.939	2.251	2.312	2.323	2.194	2.260	2.285	2.409	2.457	2.573	2.569	2.784	2.765	2.934	3.054	3.199	3.186	3.345	3.364	3.525	3.445	3.798	3.479	3.346	3.570	3.575	3.635
375.0	336.9	457.6	561.0	572.6	550.8	549.2	534.7	540.1	550.8	589.3	646.4	662.3	670.7	636.5	599.2	564.1	536.9	518.9	496.3	468.1	439.0	416.4	421.6	365.5	238.4	174.7	132.7	135.7	314.8	868.4	2086	5729	1999	26.04	3.887	2.457	1.798	1.571	1.291	1.142	1.174	1.044	1.156	1.164	1.309	1.449	1.673	1.842	1.943	2.072	2.001	2.325	2.412	2.415	2.384	2.494	2.408	2.605	2.504	2.685	2.632	2.820	2.846	3.027	2.890	3.196	3.078	3.296	3.452	3.581	3.621	3.521	3.458	3.801	3.692	3.706	3.854
380.0	305.5	452.6	539.3	580.6	573.7	566.6	551.8	559.9	571.9	602.0	639.1	660.9	650.3	631.4	599.2	569.5	547.7	539.6	514.0	489.9	462.2	429.0	405.8	417.5	311.4	209.1	154.9	125.5	137.3	240.5	513.4	2764	5803	1499	18.42	3.401	2.284	1.886	1.373	1.306	1.036	1.071	1.225	1.156	1.281	1.487	1.610	2.026	1.912	2.092	1.854	2.309	2.424	2.380	2.477	2.480	2.382	2.600	2.605	2.815	2.765	3.019	2.937	2.996	3.045	3.172	3.243	3.200	3.445	3.647	3.489	3.614	3.619	3.627	3.631	3.918	3.848
385.0	321.5	440.9	549.1	585.3	579.0	580.2	581.4	576.7	586.0	606.1	640.6	652.2	647.7	627.8	594.2	571.9	553.8	541.9	526.3	504.6	482.9	441.9	410.3	399.7	377.5	258.1	181.6	142.7	116.0	114.1	155.8	696.2	3383	5154	259.2	11.55	3.104	2.215	1.685	1.500	1.089	1.046	1.206	1.240	1.285	1.508	1.607	1.882	1.916	2.083	1.957	2.555	2.528	2.498	2.411	2.526	2.635	2.844	2.816	2.861	2.658	3.076	3.033	2.995	2.940	3.147	3.357	3.331	3.188	3.393	3.233	3.889	3.512	3.756	3.606	3.812	3.983
390.0	318.6	445.6	556.3	581.1	598.3	596.6	595.3	592.1	588.7	613.4	638.8	640.8	638.3	617.5	594.3	564.2	554.5	548.0	533.9	515.8	492.1	461.6	429.2	394.1	376.2	338.4	242.3	177.8	140.7	111.5	96.31	196.5	837.2	2673	3779	1081	18.09	3.478	2.043	1.696	1.285	1.230	1.265	1.247	1.370	1.529	1.563	1.823	1.977	2.022	1.942	2.437	2.506	2.606	2.508	2.552	2.809	2.790	2.879	2.948	2.950	3.045	2.961	3.020	3.071	3.012	3.181	3.172	3.344	3.286	3.345	3.644	3.535	3.617	3.502	3.727	3.897
395.0	327.6	448.0	545.8	596.4	606.6	601.2	610.3	610.1	606.7	617.1	628.0	639.0	632.8	609.5	587.5	554.3	548.0	540.5	531.8	517.4	501.9	476.9	448.1	408.9	368.2	348.4	324.6	230.3	175.0	138.5	106.6	103.8	226.7	624.9	1321	3977	1746	24.95	3.547	2.154	1.610	1.490	1.367	1.385	1.456	1.582	1.661	1.790	2.160	2.080	1.940	2.337	2.560	2.603	2.610	2.644	2.895	2.808	2.933	2.920	2.936	3.012	2.959	3.082	3.026	3.029	3.121	3.307	3.164	3.249	3.283	3.548	3.294	3.442	3.416	3.628	3.927
400.0	323.8	462.7	533.6	598.8	610.6	607.1	623.4	616.7	610.5	615.4	627.7	635.7	619.7	601.8	578.8	555.7	545.2	533.2	524.2	511.9	502.2	480.6	453.0	419.2	377.5	343.1	343.3	290.3	206.0	160.3	125.5	95.17	101.1	172.5	324.2	1676	4288	1381	18.18	2.951	1.948	1.616	1.553	1.305	1.635	1.699	1.796	1.894	2.041	2.114	2.055	2.400	2.759	2.572	2.607	2.655	2.874	2.780	3.014	2.789	2.921	2.914	2.936	3.056	2.878	2.947	3.029	3.168	3.037	3.052	3.306	3.327	3.378	3.427	3.434	3.354	3.742
405.0	317.4	446.8	533.7	599.7	610.2	615.0	618.5	618.5	617.2	616.8	621.6	626.6	605.8	590.8	569.0	548.0	532.8	527.1	517.8	508.3	496.6	482.7	459.1	427.4	390.4	347.0	327.8	324.9	251.1	183.9	145.3	106.6	82.51	80.44	101.2	411.5	2151	3963	236.3	12.36	2.521	1.818	1.619	1.394	1.550	1.576	1.703	1.924	1.996	2.064	2.009	2.337	2.511	2.732	2.571	2.636	2.816	2.803	2.964	2.951	3.101	3.036	2.874	2.946	2.628	3.096	2.964	3.162	3.078	3.242	3.342	3.425	3.476	3.573	3.519	3.428	3.804
410.0	306.5	436.5	523.9	586.3	608.6	612.7	622.6	615.6	616.6	611.7	619.3	613.1	595.4	576.1	552.6	530.8	513.7	508.6	499.6	493.6	484.2	472.3	455.0	428.9	397.5	359.1	328.9	316.2	300.3	232.3	169.3	127.7	94.32	73.03	60.55	118.3	521.0	1807	2791	1015	17.51	3.095	2.238	1.750	1.594	1.660	1.708	1.886	1.992	2.020	1.968	2.343	2.560	2.626	2.695	2.670	2.954	2.828	2.935	2.962	3.036	3.041	3.000	2.906	2.906	2.944	2.995	3.007	3.025	3.090	3.298	3.327	3.282	3.487	3.373	3.513	3.615
415.0	309.7	440.4	527.2	560.6	584.9	616.2	615.7	612.8	609.9	605.4	605.5	598.1	578.1	556.0	530.4	511.7	490.8	486.1	475.1	470.9	466.5	455.5	441.4	424.8	396.7	362.9	335.8	307.7	294.8	279.9	206.4	149.7	111.8	82.15	62.81	60.36	140.9	419.8	882.9	2780	1608	24.78	3.159	2.175	1.726	1.918	1.802	1.969	1.993	1.993	1.896	2.387	2.660	2.537	2.565	2.763	2.825	2.849	2.767	3.016	2.969	3.095	2.977	3.130	2.934	2.792	2.832	2.933	2.965	3.091	2.998	3.131	3.000	3.250	3.220	3.468	3.457
420.0	308.7	430.6	503.8	538.2	579.3	596.0	609.6	611.4	601.0	593.8	595.0	583.3	562.8	536.0	510.5	488.3	472.1	466.1	455.8	451.8	448.5	442.9	429.2	417.2	392.2	363.4	335.9	311.5	285.1	279.0	244.2	167.5	124.2	92.41	69.85	53.86	59.03	113.7	213.8	1058	3134	1306	18.77	2.889	2.350	2.028	1.726	2.045	2.064	1.975	1.978	2.385	2.581	2.460	2.664	2.671	2.775	2.803	3.066	3.021	3.005	2.914	2.846	2.909	2.832	2.959	2.869	2.814	2.830	2.984	3.010	2.903	2.911	3.032	3.123	3.222	3.461
425.0	298.1	404.0	491.6	536.8	566.2	589.1	592.3	595.7	597.4	590.7	580.6	575.4	549.1	522.2	493.1	468.1	450.0	447.9	436.8	433.1	429.5	421.7	414.7	403.0	380.7	360.7	335.0	311.2	284.1	264.0	257.7	195.6	135.8	101.8	77.15	57.23	46.49	49.57	64.21	255.6	1397	3097	227.3	12.49	2.717	2.192	1.877	1.970	2.101	1.994	1.880	2.311	2.461	2.526	2.532	2.587	2.783	2.771	2.971	2.815	2.965	2.848	2.927	3.016	2.845	2.862	2.751	2.739	2.823	3.021	2.754	2.921	2.871	3.285	3.036	3.050	3.122
430.0	357.2	397.9	483.6	533.5	554.7	572.6	581.8	587.7	589.4	579.8	574.4	563.9	533.6	501.5	470.3	444.0	427.9	420.4	414.9	408.1	406.5	400.5	395.4	386.6	372.3	351.8	327.6	308.8	287.0	262.3	243.0	217.9	166.2	116.5	87.29	66.61	51.26	40.91	36.18	73.09	332.9	1288	2229	957.1	16.81	3.476	2.316	2.088	2.166	1.950	1.831	2.345	2.416	2.565	2.494	2.464	2.789	2.840	2.792	2.843	3.030	2.727	2.809	2.837	2.812	2.786	2.682	2.645	2.723	2.850	2.707	2.809	2.749	2.946	2.852	2.930	2.968
435.0	623.5	404.9	457.6	512.4	533.0	560.4	565.0	579.6	585.7	574.5	563.5	546.1	520.5	484.9	453.0	427.1	408.2	396.9	392.2	387.0	380.3	378.5	376.2	368.7	357.1	341.5	323.3	306.2	284.9	260.5	236.6	208.9	189.9	141.2	99.38	77.01	60.09	45.76	35.64	36.87	89.31	298.7	663.6	2327	1529	23.38	3.095	2.442	2.339	2.004	1.915	2.231	2.383	2.543	2.551	2.446	2.613	2.752	2.759	2.851	2.903	2.952	2.799	2.802	2.919	2.609	2.589	2.433	2.711	2.838	2.678	2.714	2.644	2.774	2.796	2.661	2.821
440.0	833.7	488.4	433.9	505.5	536.8	553.3	552.2	570.3	581.2	566.4	559.8	536.6	504.0	471.2	440.0	409.6	387.8	382.2	376.6	368.8	365.7	363.1	357.7	355.5	343.3	332.1	316.2	300.4	281.5	260.3	234.8	199.4	186.1	160.2	113.8	84.54	66.20	51.43	39.49	32.19	38.11	80.10	160.3	862.9	2810	1243	16.27	3.126	2.527	2.041	1.955	2.196	2.455	2.518	2.435	2.346	2.626	2.787	2.836	2.768	2.814	2.788	2.782	2.587	2.697	2.631	2.551	2.613	2.641	2.566	2.725	2.448	2.593	2.812	2.638	2.776	2.725
445.0	833.4	780.3	430.4	482.0	501.7	537.0	539.3	556.2	568.8	555.2	545.2	527.5	495.5	457.1	420.9	394.0	370.1	360.4	356.6	348.2	348.7	343.6	343.9	337.6	330.0	318.6	304.7	293.6	277.1	258.4	233.0	197.5	176.6	164.6	131.1	91.87	72.08	56.97	43.97	34.24	29.44	34.20	48.29	207.4	1232	2880	193.3	11.56	2.839	2.302	1.833	2.251	2.446	2.488	2.384	2.365	2.463	2.672	2.862	2.696	2.735	2.878	2.764	2.575	2.596	2.693	2.569	2.473	2.653	2.504	2.476	2.292	2.556	2.607	2.506	2.597	2.672
450.0	485.2	1254	640.2	457.2	487.3	506.8	515.6	531.2	538.7	529.0	522.2	503.1	468.0	432.6	396.5	364.2	347.5	334.9	329.2	322.8	321.9	318.4	316.7	313.4	306.5	297.5	288.1	275.8	264.4	248.7	226.7	197.3	170.0	151.5	139.2	108.1	80.29	61.75	49.62	39.09	31.60	27.04	25.78	57.82	292.5	1182	1965	831.4	14.17	2.994	2.138	2.372	2.436	2.382	2.374	2.181	2.483	2.485	2.633	2.604	2.742	2.662	2.632	2.536	2.599	2.400	2.465	2.453	2.445	2.451	2.507	2.297	2.593	2.361	2.269	2.431	2.603
455.0	286.6	1049	1377	475.4	448.1	465.4	484.3	500.7	509.1	499.0	493.6	472.0	438.6	406.2	365.1	341.4	322.1	305.9	300.1	293.9	289.6	288.3	288.0	284.8	278.6	273.2	267.2	257.2	249.4	234.5	216.5	189.6	165.2	142.0	127.6	118.1	93.04	67.93	52.89	43.28	34.92	28.06	23.86	26.85	76.09	272.0	587.4	1888	1210	17.01	2.650	2.578	2.413	2.427	2.473	2.253	2.439	2.406	2.361	2.273	2.450	2.661	2.464	2.346	2.409	2.235	2.210	2.115	2.357	2.323	2.232	2.231	2.159	2.217	2.268	2.257	2.288
460.0	238.6	593.2	1876	650.1	431.6	437.2	458.4	473.7	488.3	475.0	472.0	449.2	411.2	380.1	344.3	316.5	299.6	285.6	278.7	271.0	269.5	268.2	265.8	265.2	259.9	254.9	247.8	241.3	234.1	222.9	206.0	184.3	160.5	138.2	120.2	113.6	101.3	74.09	56.52	45.82	37.64	30.59	25.09	21.31	29.02	70.36	139.7	706.8	2143	849.1	12.09	2.954	2.470	2.359	2.199	2.119	2.121	2.350	2.381	2.460	2.212	2.439	2.492	2.401	2.221	2.179	2.242	2.156	2.348	2.238	2.126	2.090	2.338	2.094	2.075	2.261	2.166
465.0	209.6	350.1	1685	1325	416.7	417.6	433.4	449.7	460.9	457.4	443.8	423.9	391.2	359.0	324.4	293.4	280.6	266.4	258.1	254.0	248.2	248.4	247.2	245.2	241.7	236.3	230.7	226.8	220.5	210.1	196.3	176.2	155.8	133.7	115.7	103.2	100.8	82.18	60.07	47.50	39.84	32.94	26.51	21.77	19.74	26.02	39.59	168.9	988.5	2019	152.8	8.729	2.754	2.320	2.307	2.089	2.247	2.329	2.267	2.331	2.420	2.317	2.540	2.208	2.352	2.020	2.319	2.091	2.013	2.174	1.975	2.098	2.021	1.961	1.975	1.987	2.269
470.0	205.3	265.5	839.4	2010	771.5	388.6	401.4	412.6	425.2	415.5	410.2	391.2	364.7	327.9	299.3	269.3	253.5	241.2	234.1	227.4	225.5	221.3	221.2	219.5	217.4	213.7	207.8	205.3	201.5	193.3	180.7	164.7	145.0	126.8	110.6	96.50	88.48	84.45	68.04	50.76	41.23	34.06	28.54	23.36	19.35	17.56	18.14	45.23	234.8	890.1	1338	681.0	12.81	2.798	2.302	2.216	2.184	2.223	2.131	2.211	2.133	2.156	2.241	2.035	2.087	2.029	2.040	1.895	1.899	2.032	1.972	1.815	1.956	1.896	1.774	1.854	1.998
475.0	199.9	230.1	401.8	1452	1797	412.2	365.5	382.8	383.0	380.0	378.7	359.2	327.5	297.8	272.0	243.1	226.8	216.0	209.9	199.9	199.2	197.3	196.3	194.6	192.7	190.2	185.7	184.0	182.4	175.7	165.0	151.5	135.0	117.6	104.7	90.45	80.68	74.78	71.53	56.09	42.05	35.36	29.89	25.18	20.54	17.25	14.23	18.29	58.90	203.8	415.8	1337	882.2	16.43	2.638	2.259	2.023	2.120	1.955	1.965	2.125	1.906	2.044	1.874	1.974	1.984	1.778	1.810	1.895	1.931	1.656	1.739	1.792	1.737	1.662	1.676	1.796
480.0	183.4	227.4	285.8	738.1	2308	708.2	346.0	355.5	359.4	359.2	358.1	340.8	309.6	277.9	254.4	230.9	211.1	201.2	193.2	185.7	183.4	181.5	180.2	178.7	177.6	174.4	172.3	168.8	167.7	163.6	155.5	142.9	127.4	112.5	98.92	87.15	76.05	69.34	67.99	61.29	45.13	36.14	30.44	25.95	20.88	17.97	14.59	12.72	20.11	51.12	98.57	520.5	1600	628.6	10.99	2.404	2.191	1.983	1.980	1.930	1.878	1.847	1.966	1.802	1.807	1.799	1.825	1.718	1.735	1.783	1.642	1.566	1.749	1.587	1.537	1.594	1.614
485.0	168.9	243.2	252.9	387.0	1941	1414	339.6	331.5	340.1	340.2	342.9	319.4	293.3	262.1	238.9	213.0	197.4	188.9	179.5	174.5	171.1	168.0	165.4	165.0	163.2	162.7	160.2	156.6	156.3	154.1	145.3	135.6	120.5	106.5	95.39	85.16	74.26	65.94	62.23	61.49	51.10	37.26	31.18	26.20	21.77	18.75	15.34	12.54	12.16	17.44	27.19	125.0	827.0	1552	164.8	5.146	2.352	2.099	1.900	1.901	1.930	1.846	1.876	1.746	1.696	1.915	1.574	1.570	1.562	1.709	1.613	1.495	1.613	1.496	1.632	1.536	1.452
490.0	140.5	232.0	237.2	276.8	912.3	2154	638.6	308.2	314.6	314.7	312.3	297.3	271.7	244.9	220.9	196.3	181.2	172.3	162.7	158.1	155.1	151.3	150.4	148.6	148.5	148.0	144.8	143.9	142.9	142.2	135.6	124.4	113.1	100.3	90.40	81.74	71.19	63.77	56.98	54.69	52.70	42.18	33.02	27.17	23.28	19.73	16.07	13.31	11.18	10.90	11.80	32.86	198.7	743.2	1238	561.9	12.40	2.410	1.986	1.917	1.916	1.719	1.715	1.693	1.593	1.624	1.592	1.548	1.594	1.559	1.515	1.518	1.508	1.462	1.413	1.418	1.506
495.0	131.8	191.7	243.3	236.4	392.8	1590	1691	319.8	285.9	291.2	289.1	273.0	248.9	226.5	200.8	179.6	164.1	154.8	146.6	142.8	138.8	136.5	133.9	132.9	132.8	131.5	130.3	128.7	127.4	128.1	121.4	112.7	103.0	91.88	84.03	75.16	66.49	60.62	53.38	49.65	47.10	45.75	36.65	27.43	23.88	20.42	17.10	13.84	12.05	9.500	8.755	12.51	48.83	170.0	460.2	1402	765.8	14.93	2.425	1.906	1.920	1.678	1.689	1.772	1.634	1.515	1.537	1.436	1.459	1.498	1.421	1.325	1.344	1.296	1.285	1.430	1.321
500.0	111.6	166.4	227.3	219.7	262.4	795.6	2322	567.3	265.2	270.9	266.7	253.2	233.0	207.7	180.4	165.9	152.2	142.2	134.1	131.0	126.1	123.6	123.0	121.0	120.5	119.1	120.4	117.5	117.1	116.2	113.6	104.5	94.91	86.81	78.83	69.77	62.91	56.85	50.88	46.52	41.56	42.69	38.50	29.16	24.14	20.50	16.94	14.71	12.45	10.10	8.230	8.146	15.63	42.03	108.9	623.8	1519	193.9	8.546	2.128	2.011	1.676	1.571	1.553	1.589	1.477	1.472	1.352	1.476	1.375	1.365	1.349	1.313	1.092	1.265	1.257	1.305
505.0	109.6	142.8	208.3	219.7	215.2	372.0	2096	1197	257.2	248.9	247.4	233.2	215.2	191.3	170.2	152.0	138.6	132.5	121.7	118.8	113.9	113.0	111.0	111.2	108.7	108.8	106.4	107.1	106.2	107.3	103.4	95.65	86.44	79.58	73.12	65.69	59.97	52.70	47.93	42.56	38.80	37.81	38.21	31.54	23.87	20.32	16.79	14.62	12.32	10.39	8.107	7.296	8.454	13.67	28.30	152.0	863.8	1261	147.8	2.990	1.951	1.717	1.431	1.451	1.613	1.471	1.319	1.338	1.289	1.179	1.235	1.177	1.234	1.042	1.042	1.162	1.147
510.0	94.74	126.4	171.2	225.1	188.1	230.5	996.7	2088	528.1	221.8	219.1	209.0	190.4	172.5	151.0	134.8	123.7	116.6	108.4	103.6	99.76	98.53	96.58	96.52	95.15	94.49	93.11	93.41	92.20	93.39	89.89	85.06	78.24	71.41	64.56	58.53	53.26	48.21	43.83	38.91	36.11	32.54	32.32	32.00	25.69	20.17	16.46	14.02	12.02	10.35	8.595	7.701	6.821	7.677	10.51	37.43	211.1	699.0	958.2	345.5	9.953	1.745	1.541	1.394	1.402	1.365	1.208	1.149	1.177	1.140	1.161	1.104	1.138	1.014	1.029	1.144	1.223
515.0	80.02	102.1	141.6	200.5	182.4	177.0	362.8	1728	1496	225.6	195.1	181.0	164.0	150.1	133.0	117.6	106.2	99.41	93.65	90.70	85.36	85.23	84.19	82.65	81.35	80.46	78.75	79.26	79.62	80.62	77.84	72.90	68.00	62.72	56.20	51.12	46.97	42.64	39.22	35.50	31.28	29.35	27.11	27.64	26.62	21.17	16.26	13.54	11.50	10.20	8.408	7.556	6.634	6.112	6.236	11.87	50.28	159.3	389.1	1017	199.6	10.75	1.695	1.416	1.265	1.197	1.246	1.078	1.027	1.054	0.976	1.105	0.965	0.875	0.949	1.067	1.080
520.0	75.39	94.34	119.6	164.1	186.1	156.7	205.4	885.4	2278	397.8	176.4	163.1	151.1	132.7	119.2	104.4	96.29	88.67	83.69	82.71	76.55	75.71	75.03	74.30	72.17	70.54	69.84	71.54	71.90	71.54	70.16	64.88	61.61	55.47	50.54	46.19	42.72	38.38	35.91	33.40	29.29	26.41	24.15	24.02	24.41	21.77	15.90	13.02	11.30	9.686	8.523	7.545	7.119	5.898	5.298	6.175	14.24	38.26	92.42	514.4	944.8	160.8	3.906	1.620	1.308	1.150	1.089	1.068	1.027	1.045	0.966	0.948	0.934	0.733	0.900	0.965	0.984
525.0	67.67	82.24	107.4	134.7	183.5	146.4	152.9	354.2	2231	989.3	164.4	146.5	135.3	120.1	108.9	95.04	86.67	80.67	75.59	73.62	69.56	68.54	67.54	65.63	63.57	64.03	63.32	63.64	64.55	64.24	62.26	59.04	55.04	50.74	46.22	41.94	39.40	35.65	32.43	30.04	27.27	24.82	22.89	21.02	22.12	22.00	16.87	12.68	10.60	9.291	8.406	7.709	6.799	5.871	5.084	4.946	6.218	11.25	23.07	128.5	628.0	801.9	26.36	2.023	1.377	1.121	1.109	0.939	0.972	0.885	0.896	0.912	0.941	0.732	0.830	0.769	0.952
530.0	60.98	78.36	95.33	110.6	151.9	155.2	128.0	178.2	1079	1986	372.0	132.0	122.1	106.2	94.79	83.78	75.44	70.08	66.13	62.99	60.46	58.85	57.51	57.14	55.66	55.11	54.37	55.59	55.06	55.24	54.10	51.00	46.96	43.68	40.24	36.79	34.21	31.35	28.99	26.53	24.03	21.59	20.34	18.97	17.78	18.76	17.41	13.60	10.31	8.939	7.880	7.035	6.257	5.667	5.200	4.583	4.407	5.184	7.367	30.69	157.1	493.4	615.5	113.7	7.402	1.181	1.051	0.913	0.946	0.928	0.888	0.883	0.880	0.690	0.717	0.751	0.895
535.0	48.19	69.15	81.84	88.72	113.4	150.7	120.7	123.3	339.1	1863	1273	132.5	105.6	92.33	82.70	72.57	65.97	60.83	58.10	55.59	51.90	50.18	49.26	49.27	47.22	48.01	46.65	45.74	47.17	47.14	46.51	43.75	40.11	37.55	35.15	31.99	29.99	27.47	25.09	23.27	21.12	19.30	17.97	17.07	15.43	15.26	16.04	14.25	10.18	8.245	7.340	6.534	5.638	5.465	5.192	4.288	3.825	3.669	3.873	8.682	36.74	112.4	279.1	675.6	177.3	6.306	1.021	0.947	0.858	0.796	0.781	0.823	0.855	0.670	0.657	0.690	0.711
540.0	48.43	61.40	75.97	82.20	91.62	139.2	124.4	103.3	155.2	964.4	2209	181.7	95.48	84.35	74.35	64.18	58.22	54.24	50.72	48.54	46.86	44.60	43.81	43.04	42.43	41.44	40.56	41.99	40.72	41.74	41.03	39.07	36.06	33.60	31.04	28.68	27.09	24.62	22.74	21.79	19.05	18.01	15.91	15.53	14.01	13.13	13.46	13.62	11.03	7.947	7.129	5.873	5.536	5.094	4.858	4.562	3.614	3.334	2.908	3.863	9.944	26.73	66.93	375.0	656.6	28.21	2.185	0.994	0.858	0.826	0.780	0.769	0.679	0.645	0.653	0.697	0.767
545.0	47.57	53.58	65.93	69.73	76.94	114.2	132.2	93.45	105.4	357.4	2349	738.2	88.73	76.59	69.03	58.92	53.42	49.65	45.66	43.56	41.22	40.53	38.66	38.11	38.13	37.36	36.52	37.35	36.16	37.44	36.62	35.22	32.48	29.82	27.59	25.83	24.66	22.18	20.97	19.74	17.13	16.06	14.96	14.22	12.79	12.34	11.39	11.96	11.21	8.260	6.577	5.688	5.175	4.910	4.698	4.215	3.800	3.177	2.628	2.615	3.869	7.575	16.35	95.73	465.1	550.1	23.64	1.268	0.846	0.785	0.823	0.765	0.678	0.655	0.569	0.608	0.700
550.0	44.60	51.86	60.12	62.05	65.31	81.00	125.3	95.95	88.38	147.4	1166	1748	233.8	67.19	58.69	51.13	46.73	43.11	40.11	37.89	35.67	35.13	33.88	33.30	32.63	32.46	31.92	31.61	32.06	31.98	31.99	29.82	28.18	25.95	24.60	22.17	21.27	19.79	18.25	16.85	15.58	14.05	13.18	12.70	11.57	10.64	9.788	9.425	9.903	8.963	6.608	5.306	4.818	4.494	4.281	3.860	3.668	3.306	2.511	2.389	2.412	3.121	4.956	22.60	117.9	369.0	342.7	105.9	5.859	0.898	0.792	0.680	0.660	0.586	0.586	0.621	0.625
555.0	41.44	50.61	51.78	56.76	55.98	64.47	96.32	109.6	76.72	88.56	336.3	1874	950.8	66.27	50.35	44.49	40.85	36.01	33.80	32.83	30.12	28.79	28.69	28.43	28.24	26.89	26.95	26.57	26.83	26.75	25.96	25.78	24.11	22.20	20.65	19.49	18.02	16.80	15.68	14.33	13.33	12.43	11.72	11.02	10.47	9.098	8.486	7.678	7.661	8.444	7.197	5.394	4.462	4.103	3.925	3.447	3.239	3.270	2.676	2.277	1.928	1.932	2.424	6.163	27.28	83.95	185.9	484.2	154.1	4.046	0.804	0.705	0.642	0.581	0.563	0.621	0.538
560.0	44.97	48.83	48.89	54.66	52.86	52.30	72.89	110.1	77.97	72.96	132.7	1009	1898	114.3	46.72	39.34	34.77	32.56	30.39	28.70	27.25	25.72	24.90	24.59	24.73	23.40	23.54	22.98	23.38	24.04	22.79	22.19	20.78	19.79	18.24	17.04	15.41	14.31	13.76	12.73	11.85	11.26	10.36	9.639	9.067	8.236	7.480	6.809	6.268	6.869	6.964	5.577	4.488	3.843	3.381	3.227	2.913	2.682	2.632	2.315	1.830	1.684	1.841	2.428	7.079	19.58	45.32	274.0	459.8	27.60	1.438	0.699	0.651	0.548	0.541	0.490	0.582
565.0	42.75	49.49	48.64	51.39	49.32	49.91	57.77	104.2	83.67	65.88	83.68	351.1	2159	487.2	42.75	34.84	31.96	27.96	26.53	25.48	24.00	22.87	21.92	21.93	21.15	20.69	20.97	20.51	20.15	21.02	20.30	19.69	18.62	17.43	16.23	15.09	13.87	12.75	12.30	11.37	10.69	9.928	9.274	8.764	8.195	7.513	6.631	6.063	5.538	5.725	6.351	5.896	4.319	3.397	3.310	3.029	2.632	2.499	2.357	2.393	1.814	1.567	1.520	1.541	2.586	5.251	11.11	70.31	325.2	355.7	21.67	1.031	0.620	0.628	0.552	0.504	0.552
570.0	42.07	44.25	47.57	45.51	44.72	43.58	47.71	75.54	97.55	67.43	74.00	134.1	1093	1402	82.26	29.74	26.09	23.96	21.97	21.07	19.61	19.26	18.54	17.86	17.51	17.15	17.17	16.61	17.27	17.33	16.82	15.93	15.07	14.00	13.29	12.25	11.25	10.55	10.19	9.480	8.828	8.070	7.905	7.419	6.893	6.459	5.827	5.130	4.767	4.528	4.710	4.940	4.238	3.354	2.944	2.702	2.384	2.234	1.960	2.028	1.955	1.686	1.362	1.330	1.538	2.109	3.447	16.61	82.45	236.8	257.1	87.22	3.805	0.593	0.534	0.496	0.519
575.0	45.02	54.27	48.64	44.29	33.92	34.90	39.31	52.02	97.05	82.85	76.85	94.61	315.1	1656	634.7	28.58	21.80	18.99	18.01	16.53	15.41	15.24	14.34	14.37	13.78	13.09	13.74	13.47	13.02	13.48	13.57	12.31	11.95	10.82	10.67	9.579	9.038	8.670	8.068	7.756	7.026	6.387	6.313	6.063	5.496	5.069	4.769	4.224	3.725	3.562	3.541	3.514	4.024	3.211	2.425	2.273	2.071	1.925	1.729	1.690	1.730	1.669	1.359	1.248	1.230	1.332	1.663	4.529	19.24	53.95	126.0	304.6	29.14	2.259	0.627	0.420	0.483
580.0	45.45	55.10	55.11	41.39	33.24	30.91	35.25	44.68	81.07	104.6	85.60	92.73	135.2	890.6	1458	65.14	18.89	15.59	15.19	13.11	13.60	12.18	12.27	11.61	11.27	10.99	10.69	11.27	11.05	10.48	10.93	10.31	9.812	9.281	8.901	7.669	7.653	6.735	6.576	6.313	5.664	5.283	5.133	4.898	4.680	4.333	3.941	3.760	3.187	3.070	2.890	2.635	3.102	3.147	2.461	2.176	1.739	1.573	1.658	1.505	1.500	1.641	1.389	1.110	1.009	1.155	1.289	1.787	5.144	12.96	30.75	166.1	229.6	25.03	1.080	0.472	0.469
585.0	45.01	58.99	55.93	40.86	32.32	29.23	32.21	41.98	66.85	118.8	98.28	98.69	99.31	304.9	1760	294.9	16.43	13.30	12.43	11.56	11.33	10.24	9.902	9.735	9.312	9.327	8.744	9.361	9.603	9.182	9.162	8.697	7.955	7.675	7.209	6.352	5.985	5.642	5.412	5.246	4.604	4.547	4.243	3.839	4.092	3.756	3.441	3.074	2.726	2.657	2.349	2.226	2.462	2.693	2.430	2.008	1.484	1.431	1.426	1.276	1.398	1.413	1.570	1.298	1.057	1.056	1.147	1.249	1.943	3.696	7.641	42.45	173.8	190.4	17.67	0.640	0.511
590.0	50.69	62.10	57.94	43.73	29.98	28.22	30.12	39.76	56.84	113.5	120.2	110.4	99.85	118.2	898.2	992.1	47.73	10.96	9.848	9.379	8.741	8.200	7.821	7.637	7.437	7.349	7.104	7.090	7.331	7.352	7.105	6.732	6.189	5.941	5.453	5.027	4.814	4.495	4.300	4.020	3.687	3.609	3.252	3.193	3.171	2.957	2.706	2.460	2.282	2.150	1.926	1.808	1.810	1.967	2.115	1.907	1.390	1.220	1.203	1.154	1.172	1.174	1.404	1.333	1.067	1.029	1.127	1.146	1.240	1.561	2.351	10.04	44.31	122.2	142.5	45.94	2.091
595.0	60.38	64.68	60.12	41.27	28.46	24.91	28.94	35.16	55.64	94.35	143.5	122.4	105.5	76.12	233.1	1174	431.6	10.86	8.165	7.360	6.936	6.549	6.385	6.060	5.303	5.421	5.193	5.530	5.550	5.352	5.329	4.959	4.545	4.596	4.374	3.945	3.769	3.638	3.281	3.164	2.879	2.930	2.600	2.551	2.388	2.425	2.156	1.992	1.811	1.745	1.571	1.481	1.364	1.442	1.648	1.805	1.467	1.067	1.047	0.970	1.006	0.890	1.108	1.065	1.276	1.090	1.055	1.044	1.103	1.076	1.199	2.742	10.33	27.85	62.36	147.2	28.08
600.0	63.75	64.75	60.87	38.49	25.47	24.66	26.92	35.09	51.94	85.00	146.8	132.7	106.9	66.73	72.08	615.1	993.8	32.59	7.293	6.030	5.713	5.775	5.247	4.992	4.764	4.445	4.727	4.235	4.324	4.692	4.125	4.147	3.625	3.647	3.631	3.432	3.185	3.133	2.682	2.624	2.422	2.436	2.344	2.050	1.863	1.963	1.813	1.691	1.589	1.472	1.274	1.169	1.099	1.139	1.373	1.570	1.327	1.143	0.900	0.885	0.945	0.819	0.916	0.899	1.145	1.182	1.077	0.942	0.994	0.925	0.968	1.085	2.789	6.595	14.92	77.99	127.5
605.0	48.37	67.83	58.10	39.75	23.99	21.83	25.11	34.69	51.39	77.82	136.2	145.3	107.6	64.09	35.47	189.6	1176	184.5	6.927	5.275	4.970	4.908	4.020	4.298	4.171	4.215	3.973	3.956	3.521	3.809	3.675	3.595	3.356	3.164	3.088	2.839	2.927	2.704	2.343	2.182	2.153	2.013	1.939	1.771	1.706	1.668	1.539	1.499	1.372	1.343	1.087	1.076	1.074	0.933	1.027	1.196	1.386	1.239	0.882	0.814	0.857	0.865	0.886	0.942	0.936	1.150	1.075	0.986	0.971	0.847	0.739	0.813	1.062	1.787	3.712	19.85	87.39
610.0	58.36	63.47	57.82	37.01	23.04	21.43	22.78	33.14	48.83	75.81	119.0	149.8	111.1	62.96	27.32	52.59	586.5	698.2	29.23	4.658	4.065	3.985	3.609	3.734	3.430	3.331	3.018	3.149	3.050	3.041	3.080	3.054	2.692	2.517	2.480	2.532	2.233	2.315	2.050	1.819	1.700	1.568	1.489	1.421	1.498	1.514	1.312	1.248	1.141	1.059	0.952	0.863	0.911	0.793	0.875	0.873	1.146	1.081	0.855	0.784	0.747	0.763	0.734	0.865	0.878	1.024	1.123	1.141	0.894	0.879	0.772	0.599	0.658	0.754	1.130	4.814	22.09
615.0	51.23	58.79	58.31	34.85	22.05	18.16	21.54	30.75	44.47	73.51	104.7	135.9	119.7	60.19	24.32	20.64	143.9	808.7	285.5	5.175	3.638	3.200	2.810	2.921	2.847	2.657	2.472	2.331	2.699	2.358	2.467	2.382	2.368	2.106	2.176	2.143	1.992	1.909	1.681	1.502	1.255	1.410	1.260	1.202	1.363	1.285	1.148	1.094	1.002	0.831	0.882	0.712	0.722	0.721	0.742	0.766	0.858	0.913	0.853	0.753	0.710	0.678	0.686	0.670	0.934	0.912	0.993	1.046	0.972	0.897	0.710	0.683	0.546	0.563	0.480	1.332	5.197
620.0	45.46	56.57	51.82	32.24	21.66	17.30	20.58	27.66	41.33	70.52	98.49	120.7	119.9	59.79	23.02	12.90	37.93	423.1	684.4	18.83	3.338	3.102	2.604	2.604	2.453	2.408	2.199	1.904	2.471	2.095	2.269	1.919	1.978	1.758	1.853	1.682	1.761	1.592	1.446	1.446	1.285	1.226	1.222	1.024	1.152	1.113	0.998	0.918	0.863	0.771	0.801	0.781	0.660	0.672	0.663	0.598	0.638	0.823	0.816	0.806	0.648	0.635	0.683	0.726	0.841	0.788	0.830	1.001	1.036	0.765	0.644	0.601	0.481	0.439	0.369	0.662	1.417
625.0	48.04	56.35	47.73	33.01	19.37	16.27	20.30	27.90	39.81	66.27	90.15	106.9	115.8	61.27	22.16	11.21	13.55	130.0	846.5	59.91	3.572	2.640	2.341	2.220	2.216	2.143	2.024	1.777	1.836	2.080	1.969	1.757	1.759	1.578	1.476	1.392	1.506	1.347	1.260	1.197	1.066	1.020	1.079	0.929	0.974	0.918	0.915	0.739	0.784	0.674	0.635	0.693	0.589	0.557	0.588	0.505	0.577	0.630	0.716	0.822	0.748	0.622	0.658	0.744	0.692	0.784	0.802	0.814	1.088	0.847	0.625	0.521	0.467	0.473	0.369	0.462	0.591
630.0	44.05	50.06	44.36	30.21	17.33	14.48	18.00	25.37	36.95	58.24	80.71	91.70	99.31	66.01	21.80	10.29	8.187	34.09	441.4	508.1	21.53	2.598	2.251	1.995	1.859	1.786	1.766	1.609	1.589	1.681	1.516	1.557	1.497	1.243	1.310	1.085	1.177	1.173	1.041	1.010	0.837	0.869	0.873	0.771	0.830	0.759	0.715	0.716	0.652	0.614	0.554	0.584	0.481	0.531	0.512	0.464	0.570	0.554	0.608	0.707	0.674	0.637	0.561	0.712	0.629	0.744	0.712	0.785	0.750	0.830	0.687	0.542	0.420	0.404	0.378	0.350	0.397
635.0	45.90	48.95	43.02	28.04	15.45	13.75	18.44	22.35	33.88	50.80	69.85	81.59	80.09	67.31	24.74	10.37	7.433	11.83	108.8	617.7	209.5	3.030	2.162	1.748	1.719	1.545	1.466	1.474	1.268	1.344	1.422	1.388	1.211	1.058	1.047	0.955	0.987	0.950	0.839	0.855	0.698	0.791	0.840	0.582	0.685	0.744	0.649	0.582	0.530	0.573	0.482	0.480	0.455	0.418	0.442	0.452	0.527	0.534	0.458	0.499	0.693	0.556	0.583	0.571	0.593	0.651	0.726	0.646	0.647	0.744	0.604	0.572	0.405	0.355	0.415	0.363	0.339
640.0	45.56	44.40	41.57	23.97	15.43	15.07	17.55	21.82	32.47	47.36	65.35	73.55	68.81	59.29	31.36	10.93	7.241	6.615	27.92	341.6	460.6	11.18	1.983	1.624	1.574	1.441	1.370	1.298	1.127	1.188	1.359	1.214	1.083	0.985	0.920	0.940	0.810	0.815	0.760	0.825	0.700	0.643	0.652	0.529	0.626	0.598	0.614	0.539	0.499	0.463	0.415	0.441	0.355	0.405	0.398	0.469	0.463	0.392	0.410	0.480	0.622	0.619	0.576	0.540	0.532	0.576	0.620	0.620	0.691	0.704	0.552	0.622	0.491	0.415	0.357	0.315	0.384
645.0	42.59	43.61	37.50	23.24	15.13	12.59	15.28	21.15	28.60	44.83	59.49	67.91	61.27	49.08	35.18	11.44	6.813	5.919	9.512	108.1	622.4	48.55	2.123	1.594	1.277	1.311	1.165	1.253	1.073	1.220	1.118	1.077	0.988	0.997	0.823	0.919	0.753	0.866	0.772	0.710	0.690	0.662	0.641	0.510	0.582	0.507	0.538	0.564	0.590	0.463	0.359	0.426	0.367	0.348	0.362	0.430	0.429	0.388	0.386	0.422	0.533	0.492	0.576	0.515	0.597	0.536	0.574	0.519	0.585	0.544	0.468	0.519	0.517	0.465	0.299	0.376	0.410
650.0	36.46	41.54	34.30	22.67	15.85	12.72	14.14	19.06	27.14	41.34	53.30	63.99	55.44	41.77	36.01	14.07	7.110	5.382	5.181	28.55	455.5	277.6	3.602	1.621	1.456	1.256	1.166	0.994	0.962	1.104	1.040	0.926	0.824	0.928	0.864	0.773	0.779	0.786	0.662	0.653	0.569	0.587	0.588	0.506	0.502	0.468	0.410	0.508	0.508	0.414	0.392	0.386	0.400	0.389	0.367	0.430	0.368	0.413	0.403	0.403	0.534	0.494	0.514	0.479	0.556	0.451	0.606	0.492	0.543	0.523	0.469	0.532	0.570	0.440	0.384	0.352	0.348
