Sample:	'1
File name:	T2025041701马四干运河入小清河.FD3
Run date:	'09:49:54, 04/21/2025
Operator:	Administrator
Comment:	'

Instrument
Model:	F-2700 FL Spectrophotometer
Serial number:	23B8-004
ROM Version:	4J14000 07

Instrument parameters
Measurement type:	3-D scan
Data mode:	Fluorescence
EX  Start WL:	220.0 nm
EX  End WL:	600.0 nm
EX Sampling interval:	5.0 nm
EM  Start WL:	230.0 nm
EM  End WL:	650.0 nm
EM Sampling interval:	5.0 nm
Scan speed:	12000 nm/min
EX Slit:	5.0 nm
EM Slit:	5.0 nm
PMT Voltage:	700 V
Response:	Auto 
Corrected spectra:	Off
Contour interval:	50.000

Peak integration
Integration method:	Rectangular
Sensitivity:	1
Threshold:	1.000

Peaks
No.	ApexEX/EM(nm)	Height(Data)
1	225.0/565.0	57.37
2	225.0/575.0	57.78
3	225.0/605.0	40.25
4	225.0/615.0	38.56
5	230.0/340.0	1244
6	230.0/500.0	309.4
7	230.0/585.0	51.34
8	235.0/510.0	275.9
9	240.0/265.0	364.8
10	240.0/525.0	248.9
11	245.0/270.0	362.6
12	245.0/535.0	198.7
13	250.0/275.0	450.5
14	250.0/550.0	161.2
15	255.0/280.0	595.1
16	255.0/560.0	140.9
17	260.0/285.0	600.6
18	260.0/575.0	117.1
19	265.0/585.0	109.3
20	270.0/300.0	998.7
21	270.0/595.0	92.40
22	275.0/305.0	1179
23	275.0/610.0	85.49
24	280.0/310.0	1045
25	280.0/340.0	952.7
26	280.0/620.0	72.27
27	285.0/315.0	991.5
28	285.0/635.0	53.44
29	290.0/325.0	925.3
30	305.0/345.0	614.7
31	320.0/365.0	463.0
32	335.0/380.0	412.7
33	445.0/525.0	18.15
34	460.0/335.0	3.244
35	465.0/340.0	3.323
36	505.0/275.0	2.955
37	515.0/280.0	3.126
38	520.0/285.0	3.689
39	530.0/290.0	3.376
40	540.0/295.0	4.631
41	545.0/300.0	5.372
42	555.0/305.0	5.624
43	560.0/310.0	5.215
44	570.0/315.0	5.284
45	580.0/320.0	5.511
46	585.0/325.0	5.032

Data points
	220.0	225.0	230.0	235.0	240.0	245.0	250.0	255.0	260.0	265.0	270.0	275.0	280.0	285.0	290.0	295.0	300.0	305.0	310.0	315.0	320.0	325.0	330.0	335.0	340.0	345.0	350.0	355.0	360.0	365.0	370.0	375.0	380.0	385.0	390.0	395.0	400.0	405.0	410.0	415.0	420.0	425.0	430.0	435.0	440.0	445.0	450.0	455.0	460.0	465.0	470.0	475.0	480.0	485.0	490.0	495.0	500.0	505.0	510.0	515.0	520.0	525.0	530.0	535.0	540.0	545.0	550.0	555.0	560.0	565.0	570.0	575.0	580.0	585.0	590.0	595.0	600.0
230.0	25.65	521.4	1816	711.3	35.65	3.581	2.581	2.275	2.271	2.013	2.142	1.987	1.463	1.467	1.131	1.066	0.861	0.872	0.713	0.723	0.712	0.510	0.542	0.449	0.415	0.403	0.378	0.331	0.317	0.298	0.315	0.238	0.244	0.230	0.218	0.221	0.195	0.197	0.181	0.181	0.182	0.242	0.244	0.202	0.142	0.154	0.458	2.464	5.675	5.001	2.047	0.427	0.128	0.098	0.100	0.081	0.101	0.087	0.080	0.070	0.086	0.091	0.049	0.076	0.065	0.059	0.074	0.066	0.077	0.077	0.075	0.060	0.061	0.064	0.040	0.052	0.064
235.0	90.56	150.8	1034	2247	588.5	68.33	3.113	3.101	2.409	1.991	2.457	2.009	2.030	1.721	1.441	1.064	0.839	0.854	0.605	0.562	0.515	0.490	0.577	0.510	0.434	0.316	0.311	0.333	0.222	0.296	0.321	0.306	0.267	0.272	0.200	0.185	0.178	0.191	0.200	0.130	0.124	0.241	0.234	0.261	0.292	0.195	0.246	0.708	2.065	4.073	6.631	7.864	4.104	0.902	0.124	0.087	0.097	0.113	0.081	0.099	0.115	0.100	0.086	0.083	0.069	0.049	0.071	0.059	0.075	0.061	0.054	0.077	0.055	0.093	0.042	0.058	0.085
240.0	115.6	108.4	301.0	1670	2635	473.6	36.59	3.840	3.158	2.396	2.489	2.244	2.090	1.711	1.563	1.179	0.833	0.759	0.536	0.751	0.741	0.537	0.587	0.603	0.499	0.286	0.314	0.319	0.284	0.298	0.274	0.292	0.330	0.273	0.308	0.244	0.122	0.238	0.269	0.176	0.150	0.221	0.188	0.198	0.352	0.398	0.353	0.301	0.598	1.167	3.333	8.383	12.59	9.440	3.656	0.566	0.179	0.128	0.073	0.120	0.083	0.095	0.087	0.087	0.105	0.043	0.091	0.095	0.054	0.073	0.070	0.102	0.056	0.072	0.104	0.066	0.069
245.0	81.80	183.4	142.3	521.1	2478	2882	363.7	17.15	4.236	3.945	3.139	2.612	2.000	1.789	1.247	1.053	1.002	0.850	0.920	0.758	0.707	0.668	0.641	0.490	0.464	0.395	0.354	0.415	0.254	0.425	0.326	0.289	0.307	0.238	0.267	0.222	0.172	0.183	0.245	0.205	0.155	0.255	0.174	0.173	0.276	0.411	0.582	0.610	0.400	0.417	0.896	2.602	7.133	13.64	15.47	9.077	2.672	0.300	0.101	0.102	0.089	0.121	0.101	0.098	0.084	0.053	0.088	0.095	0.078	0.078	0.089	0.092	0.049	0.064	0.096	0.061	0.083
250.0	32.95	121.8	240.3	223.9	740.1	2360	3352	1283	87.13	6.292	5.072	3.481	2.878	2.326	1.839	1.381	1.245	0.947	0.933	0.868	0.626	0.753	0.707	0.570	0.510	0.437	0.421	0.399	0.383	0.357	0.285	0.347	0.323	0.264	0.221	0.222	0.226	0.201	0.190	0.226	0.192	0.212	0.223	0.166	0.218	0.189	0.341	0.529	0.755	0.696	0.617	0.740	1.786	3.974	8.116	12.89	17.61	16.21	9.872	2.704	0.381	0.136	0.112	0.101	0.113	0.076	0.087	0.065	0.098	0.078	0.094	0.088	0.069	0.095	0.086	0.064	0.122
255.0	22.09	43.61	140.8	322.7	274.9	581.8	2093	5161	1838	105.4	7.197	5.349	3.568	2.712	2.045	1.616	1.617	1.148	1.052	0.867	0.896	0.707	0.669	0.597	0.558	0.479	0.607	0.476	0.418	0.385	0.389	0.430	0.242	0.286	0.241	0.258	0.222	0.283	0.138	0.216	0.224	0.171	0.241	0.189	0.227	0.183	0.236	0.233	0.378	0.659	1.102	1.228	0.930	1.087	1.983	3.091	5.617	13.14	26.60	27.63	15.38	3.378	0.312	0.122	0.146	0.108	0.086	0.078	0.147	0.062	0.085	0.080	0.085	0.090	0.109	0.060	0.104
260.0	23.26	21.79	55.70	252.3	334.4	202.2	584.2	3457	6151	1456	56.71	6.501	4.257	3.335	2.781	2.261	1.609	1.309	1.225	0.959	0.874	0.912	0.710	0.603	0.604	0.643	0.619	0.643	0.556	0.402	0.450	0.407	0.298	0.354	0.271	0.225	0.268	0.221	0.192	0.185	0.224	0.200	0.204	0.218	0.207	0.156	0.167	0.186	0.235	0.293	0.660	1.397	1.675	1.241	0.755	0.850	1.480	3.359	10.04	22.91	36.39	27.01	13.50	1.807	0.168	0.131	0.143	0.117	0.153	0.116	0.166	0.101	0.099	0.094	0.104	0.099	0.135
265.0	23.14	20.91	24.07	104.3	364.8	284.6	175.6	1039	5187	6733	234.9	22.81	6.684	4.586	3.469	2.550	1.702	1.437	1.254	1.002	1.076	0.876	0.746	0.559	0.642	0.583	0.539	0.560	0.415	0.427	0.429	0.325	0.281	0.209	0.282	0.267	0.316	0.210	0.228	0.211	0.188	0.186	0.251	0.228	0.199	0.211	0.216	0.162	0.199	0.198	0.286	0.624	1.371	1.934	1.571	0.670	0.546	0.925	2.578	6.237	16.91	34.10	45.85	24.69	8.335	0.816	0.203	0.141	0.173	0.119	0.145	0.157	0.085	0.125	0.160	0.098	0.092
270.0	45.60	46.19	38.81	47.41	155.2	362.6	309.5	293.4	1488	5000	7189	2719	68.38	7.648	4.787	3.303	2.587	1.876	1.695	1.482	1.194	1.036	0.879	0.814	0.705	0.578	0.630	0.577	0.544	0.521	0.477	0.428	0.377	0.385	0.320	0.344	0.314	0.305	0.224	0.262	0.253	0.265	0.238	0.212	0.244	0.284	0.260	0.250	0.287	0.219	0.214	0.320	0.520	0.909	1.561	1.747	1.689	1.010	0.925	1.632	4.058	9.361	19.29	31.27	32.26	38.17	16.81	7.439	0.839	0.199	0.166	0.173	0.153	0.132	0.153	0.130	0.142
275.0	108.9	118.7	109.4	76.41	67.53	150.4	450.5	365.4	395.1	1205	3804	9999.9	1290	80.38	8.493	4.715	3.959	2.809	2.023	1.636	1.370	1.201	0.989	0.896	0.758	0.688	0.607	0.687	0.600	0.583	0.577	0.463	0.453	0.421	0.479	0.434	0.396	0.345	0.332	0.321	0.235	0.267	0.428	0.285	0.391	0.453	0.486	0.428	0.423	0.378	0.284	0.291	0.406	0.355	0.588	0.719	1.857	2.955	2.286	1.120	1.199	2.393	4.657	7.424	9.301	23.05	49.72	65.22	26.74	9.252	0.603	0.240	0.137	0.164	0.181	0.123	0.134
280.0	174.0	216.6	200.6	120.4	65.23	72.68	260.1	595.1	304.8	347.7	1037	5986	9999.9	1011	37.42	6.804	4.455	3.421	2.484	2.015	1.546	1.457	1.137	0.972	0.808	0.903	0.696	0.693	0.692	0.563	0.563	0.485	0.552	0.513	0.463	0.482	0.506	0.434	0.396	0.384	0.299	0.285	0.423	0.350	0.466	0.617	0.545	0.648	0.666	0.569	0.438	0.370	0.395	0.293	0.351	0.401	0.800	1.687	3.000	3.126	1.716	1.068	1.454	2.125	2.577	5.846	15.75	39.83	65.60	65.18	22.60	4.575	0.293	0.210	0.189	0.197	0.211
285.0	234.2	326.3	295.7	176.2	83.25	66.84	119.4	451.2	600.6	248.1	348.5	1704	7840	8438	670.9	16.25	6.173	4.006	3.280	2.156	1.755	1.523	1.288	1.063	1.131	0.900	0.802	0.652	0.583	0.622	0.610	0.611	0.468	0.614	0.644	0.526	0.553	0.429	0.461	0.367	0.385	0.395	0.454	0.388	0.531	0.863	0.744	0.982	0.847	0.747	0.582	0.508	0.412	0.301	0.406	0.423	0.450	0.778	1.519	3.029	3.689	2.219	1.252	0.892	1.179	1.898	4.175	10.16	24.37	54.05	74.87	32.37	15.76	1.641	0.221	0.257	0.200
290.0	316.6	418.0	401.5	245.0	119.9	86.33	99.99	221.6	539.4	640.9	359.8	571.9	2175	6125	7528	2243	37.47	6.161	4.179	2.880	2.198	1.872	1.530	1.242	1.267	1.058	0.986	0.736	0.693	0.717	0.683	0.610	0.618	0.586	0.766	0.633	0.672	0.614	0.535	0.473	0.486	0.474	0.505	0.473	0.652	0.897	1.013	1.152	1.133	0.867	0.815	0.680	0.497	0.447	0.507	0.471	0.457	0.578	0.763	1.154	2.082	2.994	3.376	2.877	1.735	1.406	1.827	3.176	6.316	13.75	25.91	37.29	54.31	47.77	37.85	11.23	2.104
295.0	362.6	480.6	487.5	318.2	171.0	118.3	133.3	187.9	314.3	648.6	843.3	474.8	729.0	1556	3697	9243	725.6	40.04	6.221	4.462	2.895	2.330	1.793	1.460	1.220	1.166	1.075	0.750	0.709	0.820	0.644	0.794	0.729	0.674	0.826	0.631	0.766	0.633	0.603	0.535	0.575	0.547	0.523	0.594	0.739	0.970	1.059	1.354	1.286	1.162	1.093	0.840	0.745	0.565	0.546	0.685	0.638	0.729	0.732	0.925	1.287	1.442	2.324	3.726	4.631	3.443	2.059	2.064	2.757	4.135	6.828	9.229	13.67	21.12	50.34	75.77	33.42
300.0	376.2	503.9	527.9	362.5	210.8	161.4	186.5	229.7	303.6	483.1	998.7	810.1	499.7	571.2	1038	5312	8377	581.3	19.06	6.059	3.828	2.563	2.054	1.850	1.407	1.322	1.069	0.991	0.917	0.895	0.743	0.745	0.733	0.752	0.898	0.691	0.766	0.598	0.624	0.548	0.602	0.585	0.564	0.717	0.926	1.077	1.143	1.311	1.582	1.188	1.129	0.994	0.895	0.667	0.737	0.767	0.857	0.819	0.887	1.147	1.285	1.414	1.741	2.481	3.959	5.372	4.596	2.714	2.311	2.494	2.675	3.177	4.004	5.684	14.21	36.11	63.88
305.0	377.1	510.7	533.2	389.5	245.3	208.0	238.2	291.6	355.7	475.4	799.5	1179	661.5	425.5	421.7	1489	6620	5204	79.34	9.941	5.181	3.254	2.479	2.062	1.662	1.420	1.224	0.923	1.068	0.864	0.891	0.677	0.704	0.750	0.741	0.885	0.718	0.772	0.631	0.571	0.578	0.486	0.553	0.713	0.950	1.093	1.300	1.421	1.640	1.182	1.065	1.063	1.004	0.832	0.855	0.917	1.158	1.199	1.267	1.338	1.431	1.774	1.930	2.221	2.884	3.907	5.484	5.624	3.776	2.888	2.200	2.195	2.066	2.525	3.893	9.244	20.64
310.0	388.6	518.4	560.6	412.2	278.9	242.0	279.9	343.7	415.5	523.6	677.2	960.8	1045	607.6	355.5	478.1	1826	4728	5402	1501	23.78	5.169	3.424	2.389	1.909	1.621	1.335	1.185	1.099	1.060	0.851	0.766	0.702	0.813	0.809	0.805	0.800	0.746	0.739	0.599	0.600	0.585	0.670	0.777	0.931	1.072	1.156	1.466	1.538	1.317	1.120	1.056	1.086	1.063	1.015	1.048	1.317	1.351	1.364	1.526	1.737	1.980	2.284	2.437	2.758	3.093	3.869	4.716	5.215	4.863	3.674	2.819	1.948	1.910	2.132	2.959	5.408
315.0	418.4	527.9	571.1	423.5	301.9	289.8	324.7	388.0	477.1	576.6	686.7	795.6	916.6	991.5	491.7	306.4	536.7	1159	3104	7035	510.4	22.79	5.163	3.333	2.442	1.915	1.464	1.284	1.172	1.069	0.971	0.825	0.762	0.944	0.850	0.814	0.784	0.754	0.827	0.617	0.625	0.573	0.674	0.816	0.916	1.045	1.229	1.466	1.681	1.301	1.179	1.248	1.214	1.168	1.257	1.201	1.437	1.463	1.567	1.940	2.065	2.096	2.384	2.606	2.851	3.063	3.471	3.699	3.910	4.422	5.284	5.192	3.561	2.175	2.031	1.735	2.243
320.0	400.9	588.2	629.3	483.3	347.9	329.5	357.0	418.7	515.1	611.7	720.8	796.5	822.0	971.0	787.4	351.2	297.3	378.8	848.6	4584	5960	400.2	11.08	4.578	3.129	2.198	1.971	1.550	1.200	0.927	1.004	0.766	0.789	0.802	0.800	0.722	0.739	0.808	0.815	0.682	0.712	0.639	0.723	0.757	0.910	1.124	1.340	1.577	1.812	1.614	1.342	1.260	1.324	1.273	1.214	1.344	1.616	1.750	1.894	2.142	2.109	2.246	2.649	2.919	2.996	3.160	3.225	3.473	3.693	3.612	4.148	5.030	5.511	3.967	2.502	1.855	1.703
325.0	463.8	683.9	772.0	606.9	407.0	356.9	389.9	449.0	544.1	659.1	766.9	834.2	836.9	828.9	925.3	536.1	292.9	239.3	285.8	1322	5399	3767	58.40	6.841	4.052	2.725	2.264	1.533	1.445	1.259	1.076	0.982	0.880	0.819	0.899	0.888	0.763	0.811	0.795	0.691	0.720	0.679	0.750	0.819	1.079	1.291	1.572	1.857	2.212	1.975	1.779	1.613	1.392	1.445	1.348	1.395	1.769	1.727	1.930	1.915	2.181	2.572	2.481	3.000	3.277	3.386	3.588	3.425	3.879	3.724	3.687	3.988	4.642	5.032	4.363	2.677	2.075
330.0	525.6	851.1	1019	829.5	522.6	416.4	432.7	486.8	573.5	690.1	815.3	883.6	880.8	813.5	789.4	735.5	469.3	260.3	196.0	388.5	1546	3872	4227	1093	17.73	4.026	2.868	2.116	1.655	1.405	1.073	1.167	1.009	0.846	0.898	0.824	0.784	0.762	0.722	0.650	0.642	0.659	0.788	0.795	1.121	1.421	1.814	2.340	2.509	2.606	2.175	2.351	1.894	1.645	1.624	1.554	1.874	1.897	1.966	2.296	2.453	2.643	2.813	3.031	3.457	3.703	3.742	3.681	3.924	3.905	3.900	3.932	3.938	4.187	4.462	4.308	3.998
335.0	547.4	927.5	1170	965.9	636.0	492.0	474.0	514.0	605.6	725.4	837.9	921.8	921.9	858.5	758.4	665.8	689.4	419.7	227.1	217.2	425.8	946.6	2846	5657	408.5	17.67	3.863	2.758	2.269	1.608	1.354	1.193	0.994	1.059	0.784	0.905	0.792	0.700	0.690	0.709	0.628	0.731	0.703	0.915	1.061	1.491	1.841	2.488	3.244	2.859	2.552	2.756	2.268	1.876	1.858	1.721	2.019	2.084	2.079	2.483	2.381	2.776	3.032	3.334	3.356	3.721	3.963	4.184	4.099	4.280	4.201	3.831	4.061	3.860	3.740	3.821	3.869
340.0	576.3	960.9	1244	1042	717.1	545.3	501.9	532.0	621.3	734.7	850.0	934.0	952.7	887.8	773.6	641.1	651.0	592.5	304.5	204.9	200.1	277.7	778.3	4091	3459	330.0	7.513	3.746	2.960	2.038	1.674	1.344	1.284	0.927	1.037	0.895	0.897	0.811	0.757	0.705	0.691	0.767	0.750	0.893	1.093	1.594	2.000	2.635	3.157	3.323	2.852	2.853	2.493	2.188	2.190	2.050	2.085	2.099	2.317	2.483	2.497	2.766	3.259	3.374	3.471	3.626	3.698	3.969	4.135	4.370	4.099	4.353	4.285	3.815	3.655	3.686	3.448
345.0	570.8	964.1	1240	1100	773.5	585.1	522.5	548.5	634.1	736.7	842.5	929.8	940.5	895.4	789.5	640.9	573.4	614.7	445.4	241.8	172.7	148.7	233.9	1219	4488	3091	48.97	5.077	3.402	2.302	1.863	1.278	1.255	1.172	1.043	0.756	0.756	0.812	0.685	0.650	0.660	0.663	0.821	0.888	1.306	1.490	1.999	2.726	3.130	3.297	2.929	2.898	2.681	2.286	2.192	2.015	2.190	2.289	2.309	2.350	2.603	2.758	3.229	3.218	3.353	3.653	3.890	4.096	3.926	4.182	4.331	4.401	4.353	3.851	3.893	3.442	3.399
350.0	538.5	893.4	1174	1099	796.2	625.2	551.8	564.1	635.1	731.7	818.5	895.8	913.8	873.6	785.0	658.3	563.2	519.8	520.1	377.7	216.0	153.6	138.1	332.7	1347	3360	3419	847.6	14.31	3.207	2.200	1.605	1.457	1.203	1.042	0.871	0.787	0.735	0.734	0.725	0.694	0.717	0.730	0.933	1.167	1.517	1.795	2.597	3.117	3.143	2.872	3.049	2.802	2.388	2.306	2.156	2.221	2.211	2.341	2.394	2.659	2.848	3.156	3.229	3.387	3.550	3.759	3.786	3.945	4.156	4.198	4.099	4.152	3.952	3.906	3.495	3.668
355.0	544.2	852.3	1096	1064	828.7	674.7	590.3	591.4	653.2	719.4	806.7	857.2	879.7	854.8	783.3	674.1	584.9	510.1	465.7	483.9	343.1	196.7	152.0	161.6	357.3	819.7	2472	4478	364.9	14.36	3.169	2.097	1.501	1.346	1.101	0.927	0.898	0.731	0.673	0.733	0.697	0.681	0.782	0.960	1.035	1.448	1.749	2.318	2.751	2.819	2.630	3.168	2.900	2.493	2.508	2.386	2.485	2.272	2.430	2.434	2.556	2.754	3.141	3.395	3.412	3.509	3.719	3.644	3.747	4.089	4.061	4.040	4.218	4.220	3.876	3.865	3.797
360.0	519.8	844.2	1053	1037	826.3	702.4	629.8	609.2	662.4	720.4	796.7	836.7	851.7	838.2	778.7	687.2	604.5	525.0	458.7	459.8	453.4	275.6	185.3	146.4	157.1	231.9	681.4	3449	3143	297.2	6.619	2.870	1.957	1.589	1.137	1.112	0.886	0.741	0.789	0.769	0.754	0.688	0.719	0.969	1.026	1.442	1.746	2.228	2.776	2.698	2.593	3.043	2.947	2.614	2.605	2.329	2.714	2.355	2.186	2.679	2.758	2.754	3.085	3.003	3.238	3.346	3.647	3.572	3.864	4.020	3.799	3.773	4.189	4.026	3.699	3.697	3.924
365.0	465.3	770.1	1026	1017	852.6	721.8	648.0	637.6	663.4	718.8	789.8	830.3	835.1	823.1	769.5	685.9	615.1	544.1	478.9	436.8	463.0	387.6	232.8	169.7	133.2	117.8	197.3	1055	3954	2831	45.28	4.347	2.509	1.992	1.418	1.015	0.944	0.868	0.818	0.753	0.745	0.709	0.790	1.030	1.077	1.398	1.725	2.036	2.576	2.496	2.604	3.080	2.985	2.666	2.870	2.478	2.512	2.535	2.368	2.593	2.874	2.917	3.063	3.383	3.228	3.245	3.625	3.404	3.645	3.837	3.792	3.886	4.060	3.751	3.737	3.726	3.800
370.0	463.9	724.2	954.9	986.0	860.9	745.6	676.1	644.4	679.4	720.4	780.4	803.7	809.9	796.6	753.9	686.4	625.0	568.6	504.8	455.2	426.0	436.1	355.0	225.6	162.8	121.2	109.9	279.7	1204	3082	3118	750.0	12.75	2.721	1.784	1.401	1.062	1.007	0.907	0.840	0.655	0.725	0.797	0.917	1.007	1.359	1.505	1.879	2.420	2.406	2.466	2.956	2.996	2.702	2.833	2.605	2.662	2.690	2.585	2.611	2.833	2.889	2.969	3.237	3.008	3.380	3.356	3.401	3.598	3.811	3.902	3.715	3.902	3.914	3.638	3.795	3.864
375.0	454.9	697.1	885.7	960.5	866.7	776.7	696.0	664.1	693.2	723.1	761.3	786.4	781.2	773.1	733.8	682.2	632.2	586.1	534.9	487.1	437.9	413.3	423.2	339.5	211.6	153.2	119.7	128.1	312.9	755.4	2360	3951	312.4	12.42	2.308	1.770	1.324	1.155	0.871	0.693	0.765	0.790	0.710	0.748	1.005	1.362	1.293	1.780	2.220	2.361	2.457	2.826	2.951	2.682	2.782	2.605	2.601	2.831	2.635	2.815	2.822	2.800	3.336	3.201	3.075	3.014	3.211	3.440	3.600	3.684	3.540	3.766	3.617	3.775	3.707	3.771	3.776
380.0	454.5	667.1	858.1	923.7	872.9	779.4	709.5	678.0	689.6	723.7	748.7	765.6	770.9	756.5	716.9	672.6	636.9	593.9	544.7	500.9	457.0	410.8	404.3	412.7	279.8	185.8	141.9	111.0	127.7	209.3	661.0	3105	2688	241.7	5.457	2.197	1.615	1.313	1.127	0.850	0.770	0.802	0.855	0.770	1.083	1.279	1.393	1.682	2.225	2.247	2.244	2.820	2.835	2.693	2.809	2.515	2.756	2.731	2.893	2.992	2.891	2.962	2.962	3.065	3.035	3.086	3.277	3.387	3.386	3.514	3.578	3.535	3.617	3.683	3.515	3.681	3.724
385.0	430.3	638.1	835.5	895.7	843.5	782.2	713.7	685.2	695.1	711.5	736.3	745.2	748.3	738.4	702.6	663.1	630.1	596.7	556.5	519.2	478.5	429.9	394.7	407.0	362.9	231.6	166.9	127.3	102.7	99.42	185.1	945.4	3225	2319	37.52	3.790	1.963	1.533	1.182	0.977	0.889	0.877	0.793	0.876	1.029	1.233	1.580	1.704	2.209	2.305	2.216	2.864	2.907	2.819	2.688	2.689	2.704	2.817	2.881	2.981	2.906	3.078	3.046	3.034	3.172	2.933	3.073	3.276	3.319	3.540	3.797	3.654	3.536	3.492	3.526	3.739	3.669
390.0	411.7	607.5	808.5	872.1	851.2	785.9	734.0	698.6	692.5	704.6	719.7	728.4	725.8	712.0	681.0	647.8	617.8	592.4	561.9	529.7	491.5	451.8	409.7	386.6	383.3	324.7	219.6	160.4	124.6	98.12	94.11	248.0	957.7	2323	2344	610.1	11.49	2.146	1.509	1.079	0.946	0.980	0.855	0.943	0.957	1.225	1.323	1.822	2.023	2.160	2.139	2.819	2.840	2.847	2.961	2.710	2.800	2.778	2.791	2.847	2.809	2.900	2.973	2.991	3.062	3.114	3.127	3.377	3.151	3.318	3.418	3.475	3.635	3.455	3.522	3.602	3.618
395.0	414.4	589.2	774.5	851.3	842.8	798.4	738.4	716.6	688.1	703.6	703.1	713.2	709.5	694.5	658.9	626.2	596.2	580.3	554.6	533.1	501.8	465.8	430.8	395.0	364.3	360.9	310.3	208.8	159.5	123.6	96.27	107.8	247.0	565.0	1635	2907	269.9	12.27	2.154	1.374	1.100	0.958	0.869	0.849	0.997	1.195	1.372	1.817	2.037	2.065	2.140	2.689	2.755	2.701	2.809	2.791	2.838	2.798	2.691	2.770	2.804	3.043	2.823	3.007	3.022	3.100	3.149	2.937	3.112	3.158	3.346	3.288	3.396	3.199	3.367	3.516	3.646
400.0	381.7	585.1	757.3	834.8	825.6	811.5	738.4	720.5	701.2	690.3	695.6	699.8	687.2	682.5	647.1	611.6	584.7	571.1	546.9	526.7	501.5	467.5	447.4	408.2	368.9	351.2	354.7	269.5	189.1	147.2	112.0	90.17	99.54	155.8	445.8	2082	2236	224.3	6.227	1.957	1.370	1.044	0.906	0.910	1.014	1.239	1.193	1.805	1.905	2.033	2.097	2.467	2.883	2.761	2.971	2.707	2.980	2.800	2.859	2.626	2.789	3.043	2.824	2.993	2.869	2.910	3.253	2.970	3.166	3.196	3.092	3.373	3.351	3.452	3.207	3.264	3.749
405.0	374.4	574.8	738.6	823.1	823.7	796.5	738.6	722.3	695.1	691.3	691.3	690.4	682.0	665.5	635.3	600.4	569.6	554.3	537.0	518.9	496.3	474.7	453.1	418.9	379.0	348.0	347.6	326.7	229.0	173.2	131.6	99.83	76.05	72.48	125.3	603.3	2214	1965	34.71	3.370	1.608	1.125	1.089	0.946	1.065	1.213	1.373	1.757	1.861	1.986	2.083	2.409	2.791	2.761	3.002	2.611	3.145	2.774	2.767	2.797	2.851	2.946	2.919	2.889	2.816	2.878	3.128	2.933	3.033	3.024	3.020	3.041	3.205	3.397	3.465	3.317	3.275
410.0	344.8	548.0	707.2	803.5	821.2	779.2	738.8	716.1	692.8	678.8	679.9	671.0	659.0	642.2	609.9	572.9	544.5	531.5	518.3	502.5	484.2	468.3	448.1	424.1	392.0	361.5	336.3	328.3	296.0	216.6	157.4	118.3	85.91	65.75	61.71	158.9	625.0	1637	1824	551.5	11.50	1.813	1.362	1.135	1.183	1.262	1.329	1.608	1.857	1.980	2.015	2.321	2.659	2.684	2.658	2.681	2.830	2.878	2.713	2.844	2.803	2.840	2.815	2.831	2.969	2.898	2.966	2.879	3.064	2.929	2.955	3.004	3.121	3.137	3.150	3.089	3.264
415.0	359.1	530.0	685.2	774.4	779.3	759.9	721.6	700.0	681.4	664.0	665.3	653.5	632.7	611.2	578.7	544.6	518.8	504.3	492.9	482.2	464.1	455.9	436.8	420.6	394.8	363.2	334.9	312.9	308.4	276.9	190.2	137.8	101.5	74.16	57.27	64.80	159.3	388.6	1053	2130	251.8	14.12	1.785	1.350	1.246	1.238	1.455	1.517	1.775	1.819	2.048	2.527	2.578	2.859	2.607	2.456	2.936	2.865	2.687	2.682	2.682	2.995	2.833	2.812	2.856	2.843	2.834	2.797	2.933	2.932	2.942	3.018	2.973	2.992	2.900	2.782	3.292
420.0	337.2	489.8	648.0	741.0	759.2	748.7	712.3	692.6	670.8	660.3	653.5	635.9	611.0	593.7	555.0	521.7	491.3	481.9	470.4	458.0	441.4	437.7	421.9	411.6	392.5	364.1	334.3	306.8	290.0	294.8	227.7	153.5	112.2	82.99	61.65	49.01	59.27	103.2	272.4	1332	1894	220.3	6.853	1.737	1.384	1.331	1.473	1.519	2.005	1.867	1.844	2.319	2.620	2.666	2.760	2.591	2.859	2.881	2.900	2.708	2.814	2.726	2.703	2.673	2.603	2.806	2.661	2.580	2.830	2.964	2.747	2.846	2.976	3.012	2.920	2.832	3.043
425.0	338.0	481.0	647.8	723.3	738.2	743.1	701.1	685.0	652.8	652.5	630.8	617.5	601.9	570.2	532.6	494.3	470.6	459.0	450.0	438.6	423.6	421.6	411.5	399.9	385.7	361.7	333.7	308.4	281.3	277.3	258.2	178.6	122.2	92.54	68.15	50.53	40.79	42.27	74.36	363.0	1490	1637	34.36	3.578	1.734	1.685	1.447	1.670	1.997	1.875	2.018	2.279	2.592	2.703	2.743	2.518	2.553	2.868	2.653	2.731	2.734	2.784	2.764	2.775	2.719	2.699	2.592	2.467	2.810	2.628	2.533	2.657	2.732	2.847	2.663	2.755	2.996
430.0	350.5	464.2	610.3	694.5	717.8	714.9	698.6	679.5	650.3	632.8	617.1	596.0	573.7	545.1	507.9	464.9	443.3	427.1	421.7	413.0	402.3	398.8	393.5	385.1	374.4	353.3	331.7	309.0	282.2	260.9	247.1	213.7	147.2	104.1	78.33	58.14	43.83	33.93	33.80	93.31	394.7	1103	1389	525.7	13.05	2.078	1.631	1.687	1.852	1.822	1.956	2.317	2.480	2.533	2.547	2.535	2.707	2.803	2.591	2.790	2.675	2.701	2.697	2.661	2.678	2.730	2.679	2.575	2.726	2.585	2.591	2.706	2.526	2.731	2.689	2.590	2.737
435.0	466.9	445.1	590.6	666.6	686.4	691.2	682.0	665.0	636.9	618.1	602.4	582.7	553.1	515.0	479.8	436.9	416.7	406.2	393.9	385.1	380.5	370.8	371.8	365.1	358.6	344.0	327.3	308.1	281.4	259.6	231.4	215.0	182.9	124.4	88.79	67.79	51.30	37.80	30.31	36.41	99.12	257.3	657.4	1677	778.5	17.89	2.067	1.857	1.920	1.848	1.855	2.116	2.324	2.517	2.694	2.477	2.846	2.886	2.349	2.726	2.731	2.499	2.707	2.740	2.598	2.643	2.574	2.490	2.493	2.468	2.378	2.468	2.216	2.583	2.468	2.450	2.617
440.0	595.5	492.2	548.4	627.5	660.1	673.9	651.1	650.9	625.1	608.4	587.1	572.0	530.9	499.1	458.3	416.0	395.9	386.7	374.0	364.3	358.9	352.2	355.1	351.8	345.6	332.5	316.1	302.4	281.5	258.1	227.0	202.0	189.0	149.9	99.41	73.61	56.54	42.88	31.57	26.68	35.32	67.03	164.3	906.4	1764	233.7	11.33	2.264	2.137	1.795	1.886	2.222	2.278	2.403	2.502	2.290	2.911	2.742	2.386	2.775	2.656	2.530	2.695	2.775	2.611	2.519	2.538	2.579	2.432	2.221	2.560	2.316	2.296	2.443	2.259	2.222	2.484
445.0	622.7	648.1	543.5	619.7	629.8	643.3	646.0	634.2	610.8	599.7	576.5	551.4	514.7	477.8	438.3	397.2	381.5	363.3	353.1	343.2	341.0	336.1	336.4	335.8	328.4	318.1	306.8	293.7	276.2	255.2	225.0	194.0	176.5	163.8	113.7	80.56	62.09	46.98	36.07	27.20	23.46	26.42	46.37	233.5	1125	1595	177.2	6.582	2.192	1.760	1.947	2.123	2.346	2.352	2.386	2.397	2.713	2.659	2.529	2.537	2.540	2.404	2.459	2.476	2.461	2.271	2.346	2.197	2.453	2.347	2.272	2.251	2.347	2.229	2.360	2.281	2.149
450.0	443.6	977.6	654.3	569.1	602.2	615.1	617.4	611.5	588.1	571.8	548.6	525.7	481.8	443.0	406.7	369.4	349.1	336.4	327.4	318.0	312.5	310.4	310.5	310.0	305.0	296.3	290.0	276.9	262.0	243.3	217.2	186.7	161.9	149.5	131.7	94.43	67.10	51.79	39.81	30.86	24.45	19.55	20.96	60.10	284.3	897.6	1259	526.2	13.05	2.287	1.993	2.286	2.313	2.228	2.213	2.153	2.535	2.499	2.509	2.437	2.372	2.408	2.502	2.298	2.425	2.282	2.240	2.144	2.123	2.409	2.103	2.161	2.288	2.202	2.152	2.172	1.989
455.0	287.3	962.4	1156	558.5	558.4	567.9	566.3	566.2	539.5	530.9	519.0	487.1	446.6	408.9	372.0	337.6	315.1	304.5	297.2	287.0	281.7	280.7	281.4	277.9	275.7	273.7	263.5	254.4	246.1	229.3	207.4	179.0	153.6	132.6	123.3	111.1	78.53	55.45	43.59	34.49	27.29	21.04	17.34	22.66	70.62	206.9	476.8	1302	717.6	17.14	2.242	2.398	2.209	1.958	2.227	2.087	2.515	2.412	2.490	2.300	2.308	2.242	2.289	2.374	2.260	2.281	2.114	2.053	1.950	2.172	1.966	2.158	1.980	1.838	1.943	1.914	1.740
460.0	223.4	692.8	1580	723.3	528.7	532.6	545.6	537.4	516.6	501.1	492.9	461.0	417.0	377.5	344.9	314.5	293.7	278.7	274.3	264.3	260.1	257.1	257.7	258.5	256.7	253.1	246.6	240.4	229.1	215.6	197.0	171.7	147.3	126.3	111.0	109.1	89.50	59.79	45.72	36.30	28.95	22.76	17.41	16.01	24.00	52.89	114.8	594.2	1353	184.9	12.13	2.369	2.163	2.085	2.226	1.969	2.171	2.270	2.192	2.162	2.190	2.184	2.148	2.016	2.215	2.108	2.068	1.995	1.963	1.919	2.031	2.008	1.908	1.774	1.748	1.749	1.758
465.0	201.4	428.0	1598	1196	508.5	503.0	508.2	503.0	491.8	479.6	457.0	432.1	393.6	355.5	321.2	288.1	273.7	258.2	252.7	244.0	236.7	236.5	235.3	237.1	239.3	233.1	228.3	221.8	216.1	204.9	187.6	164.4	140.1	121.4	104.2	96.69	93.42	68.74	48.39	37.35	29.32	23.88	18.61	14.73	14.65	19.14	31.34	146.8	762.7	1143	158.6	8.724	2.353	2.153	1.999	1.865	2.134	2.020	2.132	2.029	2.252	2.305	2.037	2.022	2.119	2.002	1.888	1.930	1.824	1.846	1.802	1.851	1.752	1.751	1.785	1.686	1.646
470.0	216.0	306.6	957.3	1828	740.4	448.3	460.7	463.7	449.1	438.4	415.8	393.7	357.9	322.0	290.7	262.1	242.7	231.0	224.1	216.7	211.0	210.8	208.9	209.8	211.8	206.9	203.2	199.6	194.0	184.5	172.1	152.7	133.0	114.3	98.04	85.79	81.97	75.38	54.78	39.29	31.07	24.99	20.25	16.01	13.60	12.39	13.38	38.32	188.2	575.7	870.6	481.3	14.58	2.547	2.056	1.776	2.039	1.934	1.989	1.973	1.969	2.004	1.924	1.854	1.853	1.915	1.746	1.753	1.708	1.657	1.606	1.691	1.680	1.653	1.596	1.665	1.475
475.0	208.0	261.6	462.2	1617	1525	453.5	408.2	411.6	401.2	395.5	378.4	358.1	324.0	289.6	256.3	234.0	214.3	204.3	198.0	189.5	187.3	186.5	182.5	183.8	183.9	182.2	177.8	178.8	173.8	165.6	157.5	139.7	122.0	105.9	91.43	78.18	70.60	67.12	62.11	44.61	32.00	25.89	21.76	17.30	14.29	11.75	10.13	14.55	46.51	132.7	287.3	836.2	558.4	19.41	2.284	1.903	1.876	1.835	1.844	1.769	1.866	1.909	1.747	1.872	1.588	1.571	1.648	1.624	1.553	1.487	1.522	1.566	1.473	1.481	1.199	1.419	1.277
480.0	195.5	255.1	337.3	979.5	2078	588.4	380.8	382.9	370.4	368.0	351.6	329.8	299.1	266.5	239.1	211.5	196.3	187.5	181.6	172.3	170.6	168.2	167.5	167.7	168.6	166.4	163.3	160.9	158.7	153.0	145.6	129.9	115.6	100.6	87.12	74.15	66.68	59.24	60.47	50.42	34.43	26.28	21.87	17.97	14.74	11.96	9.980	9.259	15.31	33.89	68.78	332.8	946.1	207.2	14.46	1.987	1.865	1.744	1.926	1.593	1.538	1.770	1.534	1.672	1.578	1.467	1.542	1.449	1.387	1.444	1.378	1.512	1.391	1.383	1.327	1.194	1.389
485.0	170.8	252.0	282.8	519.3	2000	1186	364.3	358.2	350.1	342.2	327.5	310.3	283.2	252.0	224.3	199.2	184.9	176.1	167.8	160.6	156.8	155.9	153.4	153.6	153.8	153.2	150.9	148.6	147.2	143.2	135.4	123.6	109.3	95.70	83.58	71.23	63.11	53.95	54.21	53.26	38.93	27.99	23.05	18.50	15.58	13.00	10.64	8.978	8.949	12.14	19.02	81.49	493.6	873.0	181.7	7.678	1.943	1.817	1.623	1.601	1.527	1.591	1.569	1.593	1.510	1.341	1.470	1.414	1.343	1.263	1.264	1.251	1.273	1.146	1.193	1.108	1.176
490.0	130.8	244.9	281.7	327.9	1112	1976	608.3	327.6	322.0	313.3	301.7	288.1	259.4	231.3	203.6	180.6	165.9	159.7	151.8	144.0	141.4	137.4	138.8	138.6	137.4	137.8	135.5	134.1	133.0	130.2	122.3	112.7	99.86	89.09	77.92	67.74	59.94	51.80	46.92	45.88	43.24	32.62	23.60	19.00	15.96	13.52	11.25	9.479	8.069	7.608	8.202	21.64	120.2	400.4	716.3	435.6	15.58	2.050	1.683	1.575	1.531	1.472	1.505	1.490	1.378	1.282	1.331	1.414	1.249	1.200	1.172	1.181	0.992	1.017	1.087	0.995	1.068
495.0	109.2	218.5	298.8	274.6	489.2	1711	1458	325.4	290.1	284.7	271.4	259.4	230.9	210.1	182.3	159.5	148.3	140.3	137.6	129.5	125.6	123.7	121.8	122.5	122.3	121.4	119.9	119.3	118.7	117.3	110.9	101.0	91.49	81.75	71.98	64.27	55.36	48.72	43.35	38.19	39.35	37.63	26.29	19.75	16.28	13.80	11.47	9.863	8.685	7.071	6.140	8.606	29.86	92.20	242.1	758.4	575.5	21.51	2.017	1.495	1.306	1.419	1.389	1.324	1.391	1.264	1.128	1.217	1.212	1.106	1.137	1.172	1.012	1.017	0.918	0.950	0.916
500.0	96.94	179.9	309.4	255.7	300.2	993.6	2132	418.3	263.9	261.3	251.7	236.3	209.3	190.4	165.3	148.3	135.3	130.0	122.9	114.9	115.3	110.3	110.8	110.5	110.9	109.9	109.2	106.9	107.1	105.9	100.2	94.12	84.77	74.47	66.17	59.32	52.44	45.32	39.91	35.38	32.82	36.17	29.87	20.88	16.84	14.21	11.62	10.08	9.037	7.336	5.983	6.012	9.816	23.36	57.37	298.0	880.4	228.1	14.92	1.703	1.471	1.285	1.338	1.333	1.162	1.240	1.160	1.124	1.158	0.947	0.987	0.927	0.910	0.905	0.988	0.913	0.925
505.0	94.18	153.3	271.4	271.4	239.0	482.3	2105	1038	250.0	239.8	231.7	220.7	193.1	176.4	151.6	135.5	124.6	116.4	111.6	105.4	101.0	100.3	100.6	99.28	100.5	97.21	98.92	97.98	97.64	94.62	92.15	85.24	77.36	69.11	61.56	54.30	48.45	42.82	37.45	32.33	29.71	30.87	30.75	22.64	16.60	14.07	11.91	10.25	8.916	7.337	5.808	5.316	5.394	8.049	15.57	71.92	423.5	796.7	191.7	7.483	1.538	1.284	1.345	1.106	1.111	1.196	1.082	1.023	0.896	1.010	0.940	0.820	0.936	0.812	0.882	0.845	0.883
510.0	78.76	121.3	205.8	275.9	214.8	266.4	1143	1988	459.4	214.7	206.7	192.7	173.6	154.8	133.5	119.7	109.4	101.6	98.44	92.16	89.13	87.25	87.61	86.87	86.76	85.60	85.48	85.38	85.19	83.41	80.63	74.80	67.22	60.60	54.74	49.15	43.95	38.17	34.72	29.71	26.62	24.83	25.92	25.36	18.71	13.76	11.72	9.726	8.535	7.214	6.225	5.075	4.557	4.630	6.022	18.43	101.5	349.3	597.8	353.4	14.64	1.493	1.243	1.064	1.019	0.968	1.018	1.000	0.845	0.879	0.839	0.864	0.728	0.781	0.722	0.740	0.827
515.0	67.39	93.62	153.2	255.3	220.6	197.4	416.2	1853	1342	215.1	185.7	165.6	153.6	134.4	115.9	103.7	93.34	88.49	83.84	80.11	76.31	75.48	74.41	73.88	72.44	73.37	72.04	72.76	72.44	71.87	69.37	64.75	58.59	53.69	47.81	43.26	38.76	35.04	30.51	27.12	24.07	21.92	20.40	22.78	21.93	15.45	11.06	9.489	7.977	7.032	6.159	5.249	4.355	3.926	3.864	6.332	24.77	79.97	187.3	583.3	237.2	19.80	1.385	0.998	0.957	0.941	0.904	0.759	0.805	0.649	0.749	0.764	0.633	0.668	0.702	0.654	0.661
520.0	62.01	83.86	133.8	212.7	242.2	169.9	216.5	1064	2167	292.1	167.9	152.1	137.6	124.0	106.7	93.74	83.64	79.58	74.76	70.97	69.98	66.38	66.52	65.52	64.73	64.99	65.20	65.50	64.68	64.15	61.58	56.62	52.27	48.31	43.36	39.55	35.31	32.63	28.14	24.84	22.62	19.63	18.35	18.91	20.59	17.35	11.26	9.147	7.455	6.849	5.844	5.102	4.725	3.698	3.120	3.668	7.601	19.76	44.22	229.1	599.8	216.3	12.31	1.050	0.988	0.849	0.830	0.652	0.731	0.618	0.602	0.666	0.650	0.681	0.605	0.526	0.577
525.0	58.73	83.70	125.7	163.4	248.9	166.8	165.9	457.0	2314	894.7	154.2	138.7	124.2	112.2	94.79	85.16	75.90	70.85	67.00	63.52	60.98	60.42	59.95	59.03	58.24	58.17	58.28	57.22	57.91	57.29	54.35	51.36	47.54	43.63	39.98	35.35	31.87	29.79	25.72	23.23	20.99	18.05	16.36	15.36	17.02	18.15	12.76	9.644	7.427	6.504	5.464	4.853	4.869	3.772	3.309	3.075	3.617	6.298	11.59	54.76	293.2	582.7	170.8	4.757	1.007	0.801	0.822	0.631	0.674	0.592	0.563	0.742	0.599	0.470	0.604	0.593	0.560
530.0	46.73	76.09	104.5	123.7	206.1	190.7	135.4	206.6	1247	2028	337.2	120.9	109.3	97.91	82.73	73.90	66.60	63.25	59.58	54.92	52.66	51.60	51.80	50.84	50.43	51.26	49.67	49.14	49.82	49.53	48.57	44.68	41.61	38.22	34.51	31.74	28.00	25.37	23.02	20.77	18.36	16.43	14.64	13.39	13.49	15.27	14.32	10.22	7.298	5.888	5.168	4.711	4.292	4.009	3.611	2.822	2.747	3.112	4.138	13.79	70.49	255.3	433.8	214.2	12.90	0.891	0.800	0.691	0.673	0.551	0.532	0.610	0.561	0.490	0.438	0.545	0.471
535.0	45.16	69.64	76.59	93.05	137.8	198.7	130.4	132.4	399.8	1996	1221	117.1	93.06	83.62	71.78	63.08	57.28	53.77	49.49	47.56	45.06	43.64	43.84	43.61	43.16	42.19	41.36	41.63	41.60	42.25	41.13	38.13	35.61	32.31	30.08	27.18	24.38	22.05	20.04	18.64	16.26	14.55	13.06	11.47	10.98	11.15	13.21	11.59	8.110	5.576	5.138	4.287	3.819	3.624	3.434	3.119	2.225	2.404	2.557	4.528	16.97	58.05	135.8	413.6	228.3	16.79	0.885	0.714	0.610	0.593	0.590	0.448	0.508	0.513	0.443	0.396	0.366
540.0	45.79	59.04	70.12	85.07	102.8	179.4	139.5	104.3	172.0	1078	2018	191.4	82.41	72.28	63.82	56.26	50.72	46.44	42.92	40.87	39.88	38.22	37.24	38.62	37.37	36.79	36.76	35.84	37.20	37.35	36.12	34.38	31.53	28.33	25.94	24.12	22.24	19.71	18.23	16.16	14.45	13.12	11.62	10.69	10.03	9.310	10.11	11.14	8.933	6.193	4.694	4.317	3.479	3.214	3.360	3.127	2.418	2.151	1.973	2.296	5.018	14.09	31.78	163.9	433.6	187.2	8.479	0.820	0.510	0.594	0.525	0.456	0.474	0.553	0.411	0.387	0.333
545.0	47.95	57.81	68.62	76.99	79.71	147.6	161.1	98.24	111.2	404.6	2302	671.1	74.77	62.12	56.47	48.13	44.55	41.21	38.22	35.64	35.80	35.14	32.35	33.58	32.52	32.76	32.00	31.05	31.64	32.03	31.37	29.78	27.72	25.03	22.69	20.57	19.42	17.47	16.41	14.37	13.49	11.80	10.37	9.695	8.959	8.346	8.030	9.752	9.471	6.746	4.541	4.080	3.222	2.982	2.822	2.973	2.695	2.086	1.709	1.843	2.235	4.191	8.054	39.29	209.3	409.0	127.7	3.167	0.598	0.509	0.541	0.451	0.372	0.465	0.416	0.376	0.309
550.0	38.04	55.60	64.29	62.10	65.25	96.85	161.2	103.7	84.31	153.5	1167	1776	139.8	53.95	47.70	41.85	37.80	33.81	31.96	30.80	29.87	28.52	27.69	27.89	27.62	26.86	26.72	25.86	26.98	26.51	25.86	24.75	22.39	20.87	19.23	17.37	16.64	14.74	13.36	12.40	11.24	10.11	9.052	8.262	7.562	6.951	6.275	6.814	7.879	7.355	5.009	3.678	2.966	2.554	2.466	2.356	2.484	2.352	1.733	1.495	1.592	1.835	2.694	9.640	49.92	175.0	289.6	130.8	11.67	0.630	0.501	0.428	0.417	0.341	0.382	0.315	0.305
555.0	41.21	58.68	61.26	56.03	54.80	63.06	121.0	126.5	69.08	82.22	337.0	1814	848.0	50.19	38.31	33.42	31.33	27.51	25.93	24.89	23.72	22.28	22.08	22.15	22.43	21.16	21.13	21.17	21.26	21.69	20.54	19.65	18.21	17.12	15.70	14.44	13.20	12.30	10.68	10.18	9.243	8.324	7.724	6.782	6.363	5.795	5.459	5.306	5.486	6.198	5.630	3.704	2.693	2.454	2.073	1.967	2.096	2.220	2.082	1.346	1.330	1.197	1.465	2.911	11.81	39.71	90.14	258.4	190.6	13.69	0.522	0.384	0.435	0.305	0.340	0.310	0.261
560.0	37.88	52.94	55.39	55.59	50.93	52.50	81.18	140.9	69.22	62.16	121.9	955.6	1715	104.5	34.08	28.50	26.74	23.39	22.58	20.23	19.79	19.06	18.08	18.59	18.59	17.73	17.82	18.30	17.87	17.88	17.55	16.70	15.36	13.82	13.23	11.98	11.11	10.62	9.394	8.379	7.749	7.101	6.598	5.809	5.391	4.975	4.752	4.546	4.016	4.983	5.362	3.950	2.559	2.156	1.858	1.653	1.835	1.724	1.928	1.603	1.072	0.998	1.074	1.375	3.302	9.526	21.16	100.1	279.7	132.5	6.167	0.416	0.333	0.320	0.321	0.257	0.223
565.0	42.59	57.37	51.36	49.41	44.10	43.74	56.66	128.8	79.53	56.56	69.19	333.5	1958	418.4	29.64	25.15	22.28	20.30	18.95	17.78	17.24	16.45	15.52	16.23	15.38	15.05	15.37	14.97	15.68	15.05	14.89	14.11	13.03	12.48	10.91	10.55	9.635	8.706	7.987	7.571	6.769	6.141	5.598	5.042	4.753	4.505	4.086	3.759	3.421	3.523	4.574	4.013	2.770	1.887	1.607	1.554	1.486	1.378	1.635	1.743	1.351	1.000	1.026	0.962	1.383	2.723	5.369	23.83	126.5	252.7	33.00	2.026	0.308	0.312	0.260	0.220	0.225
570.0	36.52	56.21	53.56	42.71	35.29	37.19	40.64	84.56	112.2	54.21	53.49	112.4	988.2	1305	74.68	20.67	19.24	16.64	15.41	14.56	14.06	13.12	12.94	12.60	12.23	12.50	12.13	12.26	12.52	11.85	11.83	11.11	10.50	9.928	8.840	8.246	7.798	7.056	6.607	6.151	5.392	4.986	4.696	4.338	3.857	3.794	3.360	3.068	2.810	2.598	2.950	3.623	3.027	2.094	1.495	1.397	1.320	1.235	1.232	1.364	1.473	1.058	0.983	0.845	0.984	1.227	1.906	6.017	30.12	103.4	161.4	92.48	10.03	0.464	0.270	0.220	0.208
575.0	37.05	57.78	48.52	45.63	31.62	31.65	33.22	50.77	117.1	70.56	47.14	59.37	272.7	1395	561.9	19.59	15.31	13.17	12.47	11.54	10.76	10.83	10.45	10.21	10.26	10.38	9.453	9.279	9.763	9.187	9.204	8.743	8.511	8.146	7.108	6.579	6.110	5.448	5.144	4.896	4.620	3.991	3.707	3.501	3.354	3.202	2.823	2.620	2.272	2.028	2.004	2.377	2.775	2.201	1.548	1.270	1.234	1.054	1.151	1.079	1.161	1.271	1.141	0.736	0.762	0.727	1.041	1.961	7.357	23.58	49.01	148.7	118.9	10.88	0.325	0.238	0.217
580.0	38.01	55.58	50.95	42.31	30.23	27.20	27.78	35.27	85.74	90.91	45.90	46.45	88.99	732.2	1065	46.49	12.76	11.55	10.49	9.965	9.325	8.847	8.626	8.458	8.230	8.410	8.516	7.655	7.968	7.884	7.404	7.500	6.885	6.808	6.124	5.604	5.223	4.488	4.316	4.194	3.811	3.463	3.163	2.925	2.949	2.547	2.501	2.266	1.951	1.886	1.736	1.593	2.219	2.424	1.671	1.246	1.113	0.925	1.067	0.950	0.923	1.056	1.190	0.890	0.673	0.748	0.773	0.962	2.187	5.824	11.56	55.21	162.2	85.88	4.329	0.284	0.178
585.0	37.02	45.15	51.34	43.35	27.82	26.19	27.50	30.42	58.21	109.3	48.77	42.79	46.10	245.1	1355	112.8	11.87	10.26	9.408	8.368	8.184	7.589	6.965	7.506	6.935	6.901	7.215	6.816	6.735	6.721	6.445	5.973	5.845	5.625	5.336	4.665	4.516	3.813	3.639	3.412	3.404	2.774	2.700	2.658	2.456	2.210	2.066	1.884	1.790	1.585	1.454	1.270	1.630	2.048	1.959	1.356	1.019	0.798	0.845	0.792	0.746	0.870	1.159	1.020	0.814	0.706	0.665	0.778	0.957	1.850	3.022	13.13	70.40	151.4	31.78	1.515	0.181
590.0	37.05	45.92	50.87	37.54	27.74	22.71	25.74	27.46	39.40	91.39	72.88	39.78	37.37	76.26	692.4	781.4	41.82	8.380	7.528	6.840	6.556	6.152	6.287	5.928	6.009	5.656	5.609	5.581	5.508	5.504	5.424	5.186	4.721	4.419	4.205	3.949	3.610	3.260	2.934	2.754	2.684	2.424	2.369	2.201	2.078	1.836	1.697	1.586	1.512	1.364	1.166	1.136	1.112	1.377	1.784	1.521	0.989	0.750	0.716	0.685	0.628	0.690	0.797	0.889	0.945	0.664	0.580	0.695	0.713	0.886	1.082	3.317	16.70	58.38	96.05	61.95	8.274
595.0	33.40	40.73	49.38	33.51	24.81	20.07	21.31	24.01	31.41	57.93	92.40	45.27	36.52	36.52	184.4	886.5	296.4	7.725	5.935	5.648	5.332	5.198	5.291	4.555	4.598	4.578	4.584	4.385	4.295	4.357	4.190	4.117	3.769	3.303	3.370	3.120	2.921	2.766	2.582	2.401	2.184	1.881	1.831	1.714	1.636	1.507	1.442	1.294	1.278	1.102	0.975	1.043	0.879	0.917	1.237	1.484	1.156	0.779	0.567	0.604	0.503	0.613	0.577	0.670	0.996	0.815	0.614	0.545	0.582	0.549	0.672	1.056	4.089	13.24	27.67	85.30	77.69
600.0	33.59	39.06	48.22	29.93	21.80	20.13	19.86	22.94	28.64	40.24	91.21	57.26	34.84	27.85	56.13	487.8	698.9	18.41	5.409	4.760	4.510	4.087	4.530	3.826	3.769	4.103	3.708	3.809	3.541	3.442	3.672	3.270	3.313	2.893	2.607	2.717	2.496	2.332	2.029	2.036	1.844	1.702	1.538	1.555	1.268	1.215	1.281	1.131	1.086	0.920	0.822	0.743	0.774	0.810	0.784	1.226	1.248	0.876	0.591	0.506	0.506	0.511	0.496	0.515	0.710	0.928	0.648	0.603	0.520	0.485	0.510	0.532	1.158	3.159	6.430	29.37	93.96
605.0	32.25	40.25	39.45	32.24	21.95	18.97	19.97	22.61	27.06	35.74	75.89	75.66	34.64	26.23	28.16	164.0	874.2	75.86	5.113	4.650	4.203	3.527	3.682	3.593	3.186	3.442	3.388	3.303	2.982	3.078	3.033	3.029	2.583	2.579	2.347	2.458	2.057	1.949	1.751	1.754	1.508	1.421	1.295	1.371	1.177	1.116	1.151	1.032	0.873	0.980	0.680	0.690	0.670	0.600	0.608	0.890	1.157	0.897	0.606	0.470	0.452	0.437	0.450	0.494	0.564	0.777	0.674	0.572	0.494	0.447	0.336	0.439	0.511	0.899	1.663	6.876	37.11
610.0	27.99	35.97	36.94	28.86	20.82	18.71	19.63	25.75	28.34	34.18	55.61	85.49	43.30	27.93	21.84	48.08	477.6	464.7	18.27	3.702	3.274	2.946	3.147	2.805	2.496	2.760	2.699	2.569	2.543	2.552	2.518	2.286	2.089	2.107	1.993	1.951	1.718	1.680	1.478	1.396	1.319	1.124	1.147	1.002	1.009	0.893	0.904	0.827	0.731	0.711	0.607	0.706	0.555	0.512	0.496	0.568	0.835	0.900	0.711	0.510	0.437	0.423	0.429	0.380	0.444	0.604	0.626	0.633	0.468	0.406	0.380	0.354	0.296	0.381	0.565	1.709	8.604
615.0	26.14	38.56	37.04	27.01	19.77	17.83	21.55	24.85	27.02	32.44	42.53	72.53	60.87	29.17	20.02	19.55	127.3	575.2	78.99	3.458	2.700	2.674	2.473	2.207	2.301	2.206	2.179	2.122	2.075	1.841	2.108	1.894	1.731	1.626	1.552	1.514	1.253	1.279	1.268	1.084	0.987	0.910	0.916	0.866	0.800	0.748	0.657	0.605	0.643	0.557	0.495	0.606	0.466	0.490	0.336	0.422	0.503	0.727	0.764	0.614	0.436	0.363	0.450	0.345	0.388	0.480	0.399	0.553	0.677	0.369	0.442	0.319	0.312	0.321	0.332	0.538	2.043
620.0	22.90	30.72	34.79	26.26	18.30	19.68	20.90	23.05	25.98	29.11	38.09	57.03	72.27	30.96	19.09	12.87	35.72	339.0	396.4	8.267	2.384	2.534	1.946	1.846	2.023	1.846	1.813	1.906	1.654	1.626	1.791	1.569	1.485	1.330	1.503	1.258	1.348	1.152	1.039	0.929	0.884	0.893	0.765	0.686	0.620	0.549	0.617	0.527	0.508	0.518	0.388	0.508	0.420	0.377	0.395	0.338	0.372	0.566	0.672	0.673	0.393	0.317	0.463	0.317	0.318	0.309	0.358	0.452	0.549	0.469	0.461	0.269	0.266	0.321	0.243	0.247	0.602
625.0	20.61	24.99	31.42	25.73	17.55	17.67	20.42	22.30	27.50	30.06	36.38	43.74	69.80	37.94	19.93	12.06	14.70	118.5	549.1	49.95	2.175	1.982	2.049	1.648	1.677	1.519	1.587	1.427	1.443	1.337	1.461	1.248	1.326	1.251	1.332	1.099	1.099	0.952	0.923	0.814	0.779	0.725	0.625	0.597	0.618	0.443	0.493	0.566	0.434	0.401	0.369	0.421	0.385	0.226	0.300	0.297	0.351	0.391	0.517	0.614	0.476	0.299	0.322	0.351	0.329	0.365	0.342	0.339	0.503	0.647	0.471	0.285	0.279	0.319	0.193	0.177	0.311
630.0	21.28	27.05	31.07	23.78	17.04	16.27	19.66	21.87	25.78	29.12	33.79	38.48	56.86	48.52	21.06	12.16	9.338	32.62	325.3	298.6	8.886	1.833	1.708	1.414	1.364	1.266	1.313	1.189	1.157	1.264	1.161	1.063	1.109	1.007	1.029	0.925	0.895	0.802	0.745	0.691	0.674	0.611	0.546	0.483	0.500	0.458	0.426	0.440	0.383	0.322	0.292	0.339	0.264	0.246	0.274	0.279	0.309	0.291	0.391	0.518	0.524	0.360	0.336	0.304	0.267	0.284	0.319	0.292	0.373	0.478	0.493	0.402	0.296	0.231	0.199	0.133	0.168
635.0	19.04	23.20	30.63	21.34	15.35	16.18	17.87	21.00	23.34	29.23	33.58	36.31	41.63	53.44	27.12	13.13	8.870	12.25	87.71	412.5	61.83	1.752	1.458	1.259	1.060	1.069	1.075	0.956	1.087	1.116	0.901	0.971	0.858	0.793	0.920	0.797	0.730	0.776	0.607	0.569	0.556	0.485	0.404	0.429	0.417	0.408	0.429	0.323	0.354	0.282	0.244	0.257	0.193	0.194	0.206	0.306	0.269	0.277	0.266	0.334	0.412	0.433	0.326	0.348	0.316	0.361	0.312	0.284	0.326	0.351	0.315	0.361	0.305	0.226	0.162	0.181	0.183
640.0	17.15	22.30	24.90	19.37	18.97	15.37	17.47	19.64	24.13	28.91	32.54	35.53	36.70	48.44	36.04	14.16	10.13	7.996	24.01	269.0	254.4	4.665	1.450	1.212	0.937	1.065	0.874	0.775	0.957	0.878	0.876	0.828	0.792	0.845	0.816	0.796	0.737	0.686	0.409	0.511	0.432	0.535	0.399	0.345	0.346	0.362	0.368	0.319	0.278	0.291	0.215	0.254	0.177	0.271	0.219	0.240	0.186	0.297	0.253	0.243	0.354	0.377	0.273	0.291	0.251	0.327	0.305	0.291	0.238	0.289	0.282	0.370	0.353	0.215	0.175	0.184	0.196
645.0	18.01	21.80	26.33	24.09	18.47	13.43	17.21	18.92	22.15	26.38	31.40	36.15	35.52	41.57	42.95	15.70	11.50	8.549	9.676	101.0	377.6	30.39	1.382	1.185	0.786	1.089	0.829	0.675	0.964	0.733	0.709	0.799	0.758	0.768	0.730	0.856	0.827	0.680	0.559	0.436	0.444	0.409	0.414	0.302	0.250	0.247	0.305	0.282	0.262	0.244	0.212	0.247	0.203	0.221	0.182	0.264	0.197	0.248	0.258	0.189	0.233	0.373	0.291	0.322	0.259	0.326	0.255	0.185	0.278	0.243	0.243	0.281	0.321	0.287	0.189	0.180	0.166
650.0	21.76	25.24	31.42	25.42	18.23	15.00	15.73	18.66	22.54	26.76	30.75	35.16	33.75	35.71	44.04	19.78	11.15	8.901	6.215	28.84	319.6	136.3	1.619	1.119	0.861	0.960	0.784	0.715	0.816	0.794	0.795	0.758	0.817	0.735	0.729	0.839	0.816	0.623	0.584	0.472	0.361	0.383	0.356	0.224	0.264	0.273	0.280	0.250	0.208	0.266	0.210	0.200	0.196	0.117	0.218	0.223	0.184	0.221	0.216	0.189	0.243	0.259	0.286	0.305	0.245	0.303	0.234	0.235	0.200	0.259	0.208	0.255	0.308	0.363	0.225	0.194	0.159
