Sample:	'1
File name:	G2025080812¶«Íõ¹«Ä¹Õ¢.FD3
Run date:	'14:42:43, 08/11/2025
Operator:	Administrator
Comment:	'

Instrument
Model:	F-2700 FL Spectrophotometer
Serial number:	23B8-004
ROM Version:	4J14000 07

Instrument parameters
Measurement type:	3-D scan
Data mode:	Fluorescence
EX  Start WL:	220.0 nm
EX  End WL:	600.0 nm
EX Sampling interval:	5.0 nm
EM  Start WL:	230.0 nm
EM  End WL:	650.0 nm
EM Sampling interval:	5.0 nm
Scan speed:	12000 nm/min
EX Slit:	5.0 nm
EM Slit:	5.0 nm
PMT Voltage:	700 V
Response:	Auto 
Corrected spectra:	Off
Contour interval:	50.000

Peak integration
Integration method:	Rectangular
Sensitivity:	1
Threshold:	1.000

Peaks
No.	ApexEX/EM(nm)	Height(Data)
1	225.0/610.0	111.3
2	225.0/640.0	89.79
3	230.0/345.0	3669
4	255.0/280.0	600.9
5	265.0/585.0	169.2
6	270.0/300.0	1380
7	270.0/595.0	150.5
8	275.0/305.0	1734
9	275.0/415.0	4269
10	275.0/430.0	4057
11	275.0/610.0	138.1
12	280.0/345.0	2562
13	280.0/625.0	121.2
14	285.0/635.0	96.59
15	345.0/415.0	3298
16	350.0/435.0	3263
17	460.0/345.0	9.966
18	475.0/355.0	9.846
19	510.0/440.0	12.02
20	520.0/285.0	3.602
21	550.0/305.0	7.235
22	555.0/410.0	12.56
23	560.0/415.0	12.62

Data points
	220.0	225.0	230.0	235.0	240.0	245.0	250.0	255.0	260.0	265.0	270.0	275.0	280.0	285.0	290.0	295.0	300.0	305.0	310.0	315.0	320.0	325.0	330.0	335.0	340.0	345.0	350.0	355.0	360.0	365.0	370.0	375.0	380.0	385.0	390.0	395.0	400.0	405.0	410.0	415.0	420.0	425.0	430.0	435.0	440.0	445.0	450.0	455.0	460.0	465.0	470.0	475.0	480.0	485.0	490.0	495.0	500.0	505.0	510.0	515.0	520.0	525.0	530.0	535.0	540.0	545.0	550.0	555.0	560.0	565.0	570.0	575.0	580.0	585.0	590.0	595.0	600.0
230.0	103.0	2899	8884	3307	141.6	15.17	12.54	11.17	10.98	9.396	9.120	8.785	8.640	7.323	6.538	5.463	5.062	4.558	4.337	3.972	3.855	3.339	3.307	3.283	2.894	2.976	2.726	2.505	2.482	2.350	2.288	2.104	1.979	1.778	1.628	1.445	1.219	1.193	1.058	1.040	1.048	1.151	1.088	0.979	0.847	0.810	2.732	14.75	27.75	22.19	9.500	2.019	0.663	0.512	0.508	0.558	0.509	0.535	0.512	0.504	0.470	0.435	0.455	0.431	0.418	0.415	0.417	0.406	0.356	0.366	0.386	0.327	0.371	0.359	0.350	0.378	0.355
235.0	172.2	749.6	4611	9142	3791	245.6	17.96	15.98	12.28	12.20	9.708	9.825	9.089	7.710	6.468	6.039	5.259	4.930	4.409	4.145	4.362	3.510	3.467	3.361	2.822	2.946	2.568	2.446	2.482	2.479	2.172	2.054	1.967	1.803	1.895	1.458	1.319	1.201	1.032	0.926	0.909	0.964	1.054	1.103	1.026	0.876	1.150	4.025	9.266	17.08	27.21	26.65	16.57	4.074	0.656	0.586	0.521	0.498	0.521	0.483	0.482	0.438	0.429	0.466	0.343	0.464	0.343	0.365	0.357	0.339	0.394	0.401	0.380	0.389	0.333	0.384	0.352
240.0	192.0	273.2	1265	6591	9999.9	3195	147.2	19.57	14.16	13.54	11.93	10.82	9.774	8.329	7.310	6.191	5.857	4.899	4.879	3.823	4.200	3.916	3.337	3.535	3.293	2.945	2.820	2.592	2.528	2.414	2.213	2.029	2.050	1.736	1.802	1.509	1.286	1.326	1.040	0.948	0.888	0.966	0.912	1.043	1.122	0.985	0.976	1.477	2.641	4.769	12.42	30.82	44.63	26.96	14.73	2.856	0.538	0.557	0.515	0.465	0.522	0.440	0.447	0.495	0.486	0.436	0.374	0.442	0.415	0.332	0.422	0.404	0.386	0.363	0.376	0.339	0.438
245.0	139.7	239.5	384.5	2013	9526	9999.9	2376	67.30	18.10	14.54	14.86	11.20	10.02	9.075	8.198	6.623	6.344	4.875	4.864	4.007	4.245	3.940	3.720	3.643	3.352	2.737	2.828	2.551	2.444	2.459	2.346	2.121	1.835	1.732	1.778	1.676	1.615	1.247	1.176	1.081	1.010	0.928	1.051	0.929	0.931	1.094	1.147	1.352	1.205	1.551	3.344	9.279	25.68	47.35	55.81	25.64	12.16	1.647	0.638	0.495	0.548	0.490	0.522	0.516	0.469	0.525	0.479	0.472	0.405	0.394	0.467	0.366	0.435	0.388	0.419	0.320	0.463
250.0	78.00	153.9	276.1	560.7	2795	9059	9999.9	5745	175.6	23.30	20.18	14.87	12.60	10.46	9.009	7.578	6.613	5.960	5.394	4.651	4.104	4.138	4.003	3.688	3.667	3.116	2.951	3.056	2.490	2.745	2.456	2.323	1.949	1.782	1.713	1.542	1.514	1.328	1.204	1.123	1.040	1.083	1.035	1.000	0.945	1.003	0.983	1.217	1.219	1.292	1.400	2.585	6.348	13.98	27.25	42.03	61.96	55.67	19.81	10.69	2.191	0.599	0.555	0.517	0.523	0.436	0.532	0.440	0.413	0.415	0.469	0.406	0.430	0.393	0.426	0.399	0.447
255.0	73.33	88.71	170.3	369.6	735.0	2181	7760	9999.9	9594	230.7	30.76	22.99	17.44	13.53	11.06	9.258	6.645	6.820	5.722	5.070	4.581	4.179	3.993	3.553	3.541	3.682	3.225	3.216	2.965	2.814	2.518	2.462	1.942	1.969	1.740	1.612	1.392	1.370	1.460	1.226	0.946	1.193	0.981	1.022	0.979	1.033	0.864	0.965	0.910	1.116	1.448	1.900	2.237	3.719	6.583	10.16	18.66	42.11	84.72	109.0	31.25	15.88	1.745	0.600	0.552	0.572	0.499	0.491	0.427	0.466	0.486	0.500	0.496	0.392	0.385	0.436	0.447
260.0	72.88	61.80	93.12	253.3	417.5	569.1	2188	9999.9	9999.9	2524	163.8	30.57	21.62	16.08	12.92	9.761	8.055	7.094	6.624	5.761	4.879	4.082	4.114	3.879	3.773	3.751	3.346	3.051	2.875	3.085	2.660	2.553	2.112	1.979	1.854	1.610	1.463	1.419	1.343	1.366	0.986	1.203	1.019	1.039	1.035	0.955	0.842	1.036	0.817	0.847	1.029	1.897	1.992	2.150	2.085	2.900	4.854	10.85	30.33	76.14	120.7	123.8	28.01	11.18	1.092	0.632	0.504	0.594	0.427	0.524	0.546	0.498	0.412	0.379	0.428	0.503	0.493
265.0	84.95	63.62	63.42	119.9	349.8	356.7	562.2	3392	9999.9	9999.9	2053	96.91	30.55	19.50	14.98	12.36	9.758	8.691	7.013	6.495	5.842	4.952	4.321	4.186	4.318	3.643	3.541	3.313	3.154	3.320	2.800	2.782	2.369	2.115	1.923	1.704	1.683	1.444	1.304	1.346	1.187	1.129	1.077	1.056	0.938	0.967	0.898	0.914	0.882	0.674	0.748	1.177	1.623	2.273	1.843	1.711	1.690	3.105	7.575	19.86	51.13	116.9	157.5	125.4	23.33	5.186	0.744	0.717	0.604	0.593	0.539	0.528	0.449	0.503	0.493	0.478	0.560
270.0	147.3	130.0	100.4	77.93	166.8	362.4	385.0	854.0	3724	9999.9	9999.9	7914	131.8	34.10	22.95	16.96	12.83	10.16	8.612	7.331	6.353	5.841	5.010	4.692	4.525	4.253	4.154	3.472	3.462	3.308	3.094	2.840	2.536	2.451	2.031	1.823	1.738	1.586	1.400	1.379	1.360	1.386	1.235	1.169	1.188	1.173	1.109	1.007	0.913	0.858	0.829	0.873	1.045	1.330	1.760	2.217	2.230	2.038	2.534	5.146	12.30	30.43	60.79	106.3	140.6	113.0	101.5	15.64	5.635	0.809	0.703	0.674	0.558	0.536	0.617	0.537	0.507
275.0	303.3	282.4	204.7	113.2	99.08	176.8	460.8	495.0	939.4	2571	9999.9	9999.9	9999.9	158.1	35.90	24.30	18.02	13.39	10.50	8.788	7.411	6.516	6.227	5.371	5.131	4.503	4.256	3.792	3.617	3.666	3.224	2.841	2.900	2.755	2.541	2.203	1.917	1.877	1.804	1.613	1.588	1.689	1.553	1.480	1.521	1.491	1.538	1.316	1.227	1.013	0.902	0.839	0.964	0.984	1.064	1.362	2.063	2.845	2.906	2.508	3.727	7.515	14.37	24.72	35.71	61.79	163.6	230.6	170.4	23.92	4.100	0.870	0.801	0.775	0.729	0.656	0.614
280.0	448.1	442.7	340.4	162.8	102.8	118.5	292.5	600.9	452.9	722.0	3016	9999.9	9999.9	7664	112.3	34.14	22.65	17.08	13.68	10.14	8.853	7.221	6.729	5.782	5.342	5.159	4.578	4.019	3.980	3.975	3.410	3.311	2.963	2.977	2.512	2.576	2.289	1.968	1.849	1.839	1.728	1.810	1.693	1.965	1.765	1.763	1.744	1.676	1.606	1.279	0.928	1.016	0.996	0.924	1.012	1.077	1.416	2.068	3.150	3.502	2.570	2.818	4.157	6.647	9.085	15.41	47.07	120.1	232.6	248.1	34.75	18.26	1.894	0.955	0.811	0.655	0.693
285.0	587.1	612.7	465.3	234.2	124.3	117.3	179.7	482.9	616.9	404.0	907.6	4126	9999.9	9999.9	1173	78.04	31.90	21.20	16.17	11.65	10.34	8.317	7.146	6.408	5.840	5.220	5.167	4.299	4.176	3.971	3.683	3.422	3.137	3.066	2.777	2.694	2.647	2.188	2.253	1.985	1.910	1.810	2.076	2.130	2.043	2.104	2.228	2.285	1.824	1.501	1.272	1.306	1.044	1.049	1.069	1.058	1.447	1.579	2.138	2.859	3.602	2.843	2.346	2.799	3.259	5.017	11.81	29.38	75.56	171.1	250.1	227.5	30.02	10.75	1.304	0.940	0.792
290.0	787.7	812.0	627.3	340.7	193.7	176.7	206.6	324.5	630.0	746.5	648.8	1313	4491	9999.9	9999.9	4522	86.36	34.33	23.03	16.46	12.85	10.41	8.560	7.499	6.747	6.000	5.528	4.964	4.699	4.636	4.265	3.840	3.315	3.342	3.151	3.060	3.242	2.900	2.559	2.565	2.296	2.330	2.426	2.381	2.418	2.593	2.679	2.642	2.306	1.929	1.625	1.538	1.332	1.278	1.243	1.271	1.471	1.620	1.667	1.902	2.600	3.457	3.869	3.838	3.191	3.266	4.488	8.442	18.81	41.94	80.55	145.3	183.8	217.5	141.8	19.62	8.615
295.0	905.8	988.5	779.7	467.7	280.6	260.5	287.3	343.4	499.0	886.6	1105	928.4	1525	2848	9999.9	9999.9	6581	97.09	35.78	23.81	16.98	13.42	10.47	9.091	7.820	7.015	6.252	5.848	5.289	5.312	4.556	3.978	3.364	3.360	3.287	3.220	3.582	3.440	3.256	2.999	2.721	2.757	2.798	2.643	2.854	3.038	2.939	3.175	2.698	2.306	1.886	1.901	1.636	1.511	1.673	1.605	1.793	1.857	1.882	2.168	2.198	2.624	3.128	4.642	5.484	5.088	4.117	4.598	6.738	11.74	20.14	34.39	44.66	77.47	174.6	296.9	241.1
300.0	962.6	1049	882.2	547.9	354.3	335.1	373.0	432.9	547.6	832.1	1380	1224	1049	1158	3174	9999.9	9999.9	4933	78.31	33.38	22.33	17.47	13.31	10.48	9.349	7.797	6.981	6.256	5.807	5.899	4.932	4.425	4.033	3.619	3.628	3.599	3.963	3.727	3.291	3.211	3.046	2.853	2.842	2.810	3.051	3.381	3.351	3.573	3.007	2.589	2.210	2.337	1.988	1.739	1.795	1.923	2.107	2.268	2.295	2.410	2.617	2.943	3.112	4.145	5.285	6.307	6.113	5.050	5.044	5.848	7.409	10.35	12.25	19.55	46.06	125.0	265.4
305.0	1077	1176	973.1	627.6	434.8	412.6	456.9	555.1	685.0	903.8	1349	1734	1251	953.2	1159	4130	9999.9	9999.9	722.4	59.09	29.74	20.73	15.69	12.41	10.73	8.970	7.914	6.449	6.395	5.918	5.323	4.840	4.205	4.272	3.562	4.059	3.940	4.014	3.599	3.414	3.112	3.144	3.128	3.085	3.324	3.379	3.220	3.656	3.210	2.744	2.448	2.593	2.228	2.094	2.145	2.225	2.387	2.491	2.629	3.032	3.117	3.466	3.895	4.138	4.792	5.719	7.235	7.012	6.166	5.421	5.338	5.617	5.539	7.078	12.40	30.56	76.05
310.0	1131	1192	1027	698.2	506.3	481.7	559.4	667.5	821.0	1043	1345	1725	1736	1194	850.5	1285	4585	9999.9	9999.9	9999.9	63.84	32.20	21.35	16.34	12.53	10.81	9.347	8.010	7.324	6.386	5.902	5.307	4.427	4.354	3.993	4.230	4.031	4.109	3.653	3.774	3.378	3.316	3.323	3.271	3.393	3.664	3.586	3.959	3.628	3.111	2.588	2.821	2.486	2.412	2.487	2.619	2.611	3.028	3.162	3.326	3.567	4.032	4.302	4.634	5.181	5.559	6.295	6.978	7.774	7.454	6.458	5.476	4.861	4.774	5.455	9.098	19.07
315.0	1247	1380	1167	779.2	604.1	580.3	658.8	775.7	946.7	1186	1453	1684	1808	1654	1018	775.4	1382	2705	9999.9	9999.9	4653	72.39	33.53	22.93	16.87	13.87	10.91	9.416	8.589	7.286	6.646	5.725	4.831	5.057	4.211	4.515	4.308	4.489	3.816	3.887	3.810	3.592	3.465	3.571	3.830	3.870	3.985	4.468	3.872	3.556	2.932	3.224	3.014	2.767	2.880	2.927	2.996	3.436	3.375	3.852	4.419	4.386	4.838	5.160	5.642	6.288	6.212	6.847	7.039	7.327	8.019	7.983	6.372	5.073	4.359	4.981	6.852
320.0	1426	1669	1442	983.8	709.7	679.0	735.9	871.5	1050	1315	1601	1804	1845	1861	1374	836.3	786.4	934.9	3144	9999.9	9999.9	3571	60.39	30.75	21.61	15.86	12.91	10.76	9.165	8.306	7.044	6.049	5.454	4.885	4.594	4.566	4.669	4.560	4.267	4.127	3.959	3.740	3.973	4.074	4.293	4.336	4.506	5.319	4.623	3.995	3.438	3.539	3.519	2.876	3.130	3.242	3.337	3.728	4.052	4.122	4.603	4.747	5.230	5.671	6.321	6.360	6.932	7.141	7.363	7.936	7.664	8.100	7.731	7.080	5.266	4.710	4.685
325.0	1774	2116	2006	1357	853.8	766.7	826.2	960.2	1166	1444	1743	1970	1952	1871	1723	1100	771.4	619.6	989.7	4305	9999.9	9999.9	535.6	49.38	28.12	19.66	15.33	12.27	10.09	9.561	8.062	6.484	5.954	5.163	4.801	4.666	4.585	4.503	4.179	4.180	4.112	4.047	4.296	4.305	4.717	5.253	5.433	6.257	5.984	5.233	4.427	4.310	3.854	3.464	3.282	3.666	3.806	3.905	4.459	4.603	4.782	5.238	5.496	6.421	6.824	7.146	7.602	7.737	7.923	8.057	7.746	7.892	7.950	8.692	7.662	5.646	4.987
330.0	2109	2703	2674	2010	1264	979.8	966.8	1096	1311	1625	1938	2157	2184	2023	1804	1503	1056	697.5	604.3	1254	4705	9999.9	9999.9	9416	53.59	30.07	20.66	14.99	12.41	10.84	9.175	7.767	6.638	5.783	4.989	4.826	4.892	4.778	4.495	4.314	4.381	4.505	4.454	4.854	5.485	6.338	6.813	7.641	7.754	6.965	6.214	6.217	5.137	4.596	4.198	4.295	4.440	4.660	4.906	4.894	5.549	5.940	6.324	6.797	7.512	7.737	8.181	8.510	8.906	9.032	8.846	8.424	8.426	8.299	7.916	7.882	7.556
335.0	2460	3063	3265	2550	1718	1250	1143	1241	1469	1764	2107	2349	2399	2261	1955	1653	1464	942.9	679.0	685.3	1326	2705	9999.9	9999.9	3759	60.72	30.57	22.15	17.10	13.57	10.80	8.953	7.329	5.927	5.570	5.238	5.101	5.066	4.560	5.028	4.652	5.136	5.224	5.421	6.173	7.101	7.802	8.930	9.293	8.398	7.864	7.705	6.368	5.822	5.176	5.097	5.139	5.036	5.138	5.578	5.887	6.644	7.022	7.615	8.038	8.467	8.778	9.516	9.419	9.763	9.726	9.283	9.225	9.180	8.353	8.227	8.471
340.0	2516	3321	3544	2864	2006	1434	1263	1357	1578	1891	2194	2451	2518	2390	2102	1748	1568	1264	819.6	640.5	640.5	852.2	3252	9999.9	9999.9	3054	52.69	28.88	21.26	15.92	12.42	9.868	8.171	6.898	6.232	5.455	5.573	5.090	4.813	5.063	4.645	5.194	5.267	5.731	6.446	7.171	8.183	9.123	9.878	9.187	8.574	8.925	7.527	6.638	6.136	5.539	5.408	5.686	5.495	6.143	6.210	7.004	7.451	7.908	8.219	8.692	9.205	9.699	9.956	9.936	10.08	9.893	10.06	10.01	9.313	8.708	8.716
345.0	2557	3401	3669	3062	2154	1557	1391	1445	1645	1949	2241	2478	2562	2440	2179	1811	1560	1409	1036	723.8	554.7	498.4	966.6	4530	9999.9	9999.9	452.9	43.42	25.28	19.16	14.37	10.80	8.642	7.568	6.788	5.734	5.568	5.482	5.272	5.024	4.882	5.123	5.442	5.843	6.373	7.465	8.468	9.614	9.966	9.543	8.932	9.300	7.943	7.092	6.212	5.576	5.911	5.910	6.121	6.379	6.349	6.938	7.577	8.167	8.744	8.755	9.337	9.846	9.808	10.38	10.23	10.36	10.62	10.19	9.561	8.687	8.791
350.0	2487	3303	3561	3107	2288	1722	1512	1549	1750	2005	2264	2462	2539	2455	2222	1900	1639	1420	1255	978.1	673.0	544.8	547.1	1265	4828	9999.9	9999.9	8338	47.19	26.94	18.37	13.26	10.30	8.854	7.377	6.341	6.038	5.781	5.476	4.999	4.865	5.174	5.308	5.852	6.334	7.378	7.993	9.508	9.899	9.277	9.004	9.728	8.214	7.644	6.941	6.135	6.377	6.326	6.469	6.628	6.881	7.458	7.567	8.314	8.798	8.775	9.167	9.737	9.730	9.888	10.29	10.24	10.60	10.49	9.710	9.431	9.152
355.0	2432	3088	3426	3063	2396	1871	1678	1691	1844	2069	2298	2477	2510	2451	2267	2000	1767	1513	1327	1237	942.5	684.8	584.0	626.4	1320	2680	9999.9	9999.9	3368	54.40	26.82	18.81	13.76	9.795	7.955	6.811	6.275	5.814	5.673	5.404	5.116	5.205	5.330	5.772	6.040	7.396	7.681	8.916	9.357	8.947	8.856	9.846	8.540	8.135	7.226	7.082	7.033	6.991	7.235	7.247	7.570	7.608	7.854	8.684	8.859	9.115	9.325	9.277	9.870	10.08	10.16	10.43	10.51	10.53	9.853	9.806	9.965
360.0	2341	2991	3277	2960	2432	1986	1783	1794	1931	2127	2308	2462	2493	2433	2273	2049	1838	1610	1420	1315	1184	878.0	689.6	569.1	610.0	827.5	3171	9999.9	9999.9	2786	47.98	25.38	16.80	11.95	9.440	7.752	6.970	6.537	5.935	5.460	5.742	5.100	5.643	5.920	6.247	6.956	7.794	8.717	9.149	8.661	8.801	9.728	8.599	8.271	7.427	7.317	7.751	7.382	7.451	7.108	7.881	8.227	8.594	8.827	8.933	8.934	9.155	9.178	9.798	9.890	10.32	10.09	10.30	10.49	9.603	9.805	9.799
365.0	2261	2908	3122	2927	2457	2038	1861	1887	2031	2202	2323	2447	2462	2419	2264	2063	1885	1695	1520	1383	1313	1103	835.7	633.4	539.5	477.2	925.0	4400	9999.9	9999.9	414.0	39.52	21.30	14.89	11.35	8.536	7.403	7.119	6.397	5.988	5.866	5.642	5.841	5.731	6.529	6.677	7.106	8.432	8.460	8.275	8.546	9.545	8.949	8.431	7.728	7.756	7.842	8.073	7.708	7.686	7.836	8.277	8.735	8.956	9.324	9.070	9.012	9.054	9.400	9.809	9.916	9.766	10.13	10.24	9.688	10.00	10.02
370.0	2169	2703	3013	2863	2480	2146	1972	2012	2123	2260	2358	2422	2414	2379	2248	2085	1947	1801	1647	1516	1396	1314	1110	840.0	655.2	517.2	508.2	1217	4726	9999.9	9999.9	7800	41.62	23.14	15.89	11.46	9.055	8.024	6.992	6.246	6.132	6.029	6.002	5.531	6.230	6.674	7.171	8.083	8.410	8.017	8.349	9.165	8.996	8.731	8.030	7.749	8.028	8.221	8.121	8.152	8.452	8.466	8.885	9.002	9.238	9.353	9.263	9.083	9.548	9.723	9.821	9.787	10.09	10.40	9.986	9.918	10.03
375.0	2153	2539	2868	2703	2477	2215	2080	2090	2193	2292	2387	2423	2407	2339	2215	2093	1986	1875	1772	1658	1533	1427	1345	1118	853.6	671.9	535.5	586.6	1282	2708	9999.9	9999.9	2884	46.62	23.94	16.28	12.09	9.212	7.713	6.706	6.564	6.581	6.243	6.073	6.270	6.862	6.845	7.891	7.974	7.721	8.173	8.850	8.924	9.069	8.267	8.353	8.324	8.021	8.376	8.649	8.555	8.425	8.910	9.023	9.372	9.225	9.511	9.598	9.392	9.626	9.685	9.357	9.831	10.05	10.31	10.04	9.787
380.0	2030	2451	2755	2654	2470	2248	2149	2144	2222	2324	2408	2418	2386	2303	2203	2074	1999	1916	1827	1751	1629	1518	1420	1317	1040	812.7	638.9	531.0	585.6	824.8	3215	9999.9	9999.9	2299	40.55	22.66	16.00	11.45	8.634	7.858	6.751	7.099	6.429	6.252	6.336	6.579	6.739	7.620	8.006	7.466	7.790	8.824	9.179	9.427	8.441	8.299	8.728	8.557	8.601	8.571	9.208	8.745	8.760	8.873	9.538	9.530	9.356	9.365	9.527	9.770	9.767	9.571	10.00	9.938	9.553	10.08	9.790
385.0	2041	2424	2622	2602	2507	2292	2185	2181	2258	2339	2420	2412	2366	2304	2211	2086	2008	1935	1879	1818	1715	1620	1501	1419	1246	975.8	776.1	624.4	522.3	474.8	938.2	4224	9999.9	9999.9	336.2	36.52	21.83	15.27	10.73	8.743	7.227	6.973	6.808	6.261	6.629	7.023	6.928	7.613	7.923	7.172	7.896	8.942	8.961	8.879	8.384	8.493	8.805	9.020	8.657	8.683	9.136	9.076	9.250	9.057	9.359	9.589	9.373	9.542	9.318	9.334	9.825	9.719	9.922	10.03	9.610	10.04	9.957
390.0	1991	2385	2583	2613	2513	2381	2293	2296	2339	2423	2517	2493	2476	2386	2264	2130	2037	1973	1935	1902	1843	1776	1683	1588	1491	1307	1066	880.7	728.0	595.6	564.5	1228	4254	9999.9	9999.9	6354	120.5	27.38	16.33	11.26	8.700	7.767	7.299	6.734	6.973	7.090	6.997	7.749	7.944	7.450	7.504	9.390	8.800	9.231	8.896	8.836	9.112	9.205	9.416	9.202	9.231	9.388	9.206	9.505	9.648	9.448	9.517	9.466	9.356	9.798	9.535	9.713	9.916	9.800	9.831	9.964	10.10
395.0	1976	2277	2556	2577	2534	2435	2397	2425	2493	2605	2761	2798	2761	2680	2501	2294	2137	2061	2031	2027	2024	2012	1984	1923	1837	1757	1593	1361	1175	1004	834.3	820.1	1308	2748	9999.9	9999.9	2443	144.9	29.62	17.12	11.27	8.986	8.303	7.614	7.451	7.497	7.339	8.139	7.837	7.399	7.708	9.256	9.072	9.260	9.041	9.210	9.733	9.457	9.904	9.922	9.494	9.870	9.894	10.05	10.27	9.761	9.955	10.16	10.00	10.25	10.21	9.927	10.13	10.40	9.969	10.22	10.66
400.0	1995	2310	2469	2586	2581	2541	2470	2561	2687	2894	3122	3229	3231	3091	2830	2540	2287	2168	2137	2163	2212	2265	2298	2313	2268	2227	2147	1947	1721	1517	1285	1069	962.0	1131	3161	9999.9	9999.9	2066	43.85	24.39	14.28	10.99	9.190	8.302	7.860	7.813	7.835	8.527	8.511	7.357	7.845	9.483	9.446	9.660	9.534	10.11	10.47	10.10	10.28	10.58	10.40	9.978	10.66	10.52	10.71	10.63	10.80	10.94	10.98	10.95	10.93	10.61	10.62	10.99	10.43	10.68	11.54
405.0	1975	2283	2437	2620	2636	2610	2637	2713	2910	3249	3560	3781	3768	3577	3249	2839	2477	2288	2274	2316	2420	2531	2642	2724	2758	2732	2712	2594	2350	2106	1833	1507	1199	1010	1312	3828	9999.9	9999.9	306.3	36.96	18.48	13.60	10.85	8.982	8.578	8.462	7.850	8.578	8.525	7.702	8.105	9.588	10.04	9.976	10.13	10.02	10.50	10.37	10.72	10.89	11.22	11.15	11.29	10.95	11.68	11.58	11.73	11.71	11.60	11.46	11.80	11.60	11.53	11.78	11.27	10.67	11.51
410.0	1974	2229	2473	2590	2656	2694	2735	2856	3109	3534	3988	4237	4239	4014	3609	3075	2614	2387	2346	2431	2571	2744	2936	3094	3193	3221	3202	3140	2969	2675	2355	1964	1549	1222	1087	1469	3791	9999.9	9999.9	5735	33.30	18.15	13.57	10.83	9.713	8.750	8.092	8.546	8.814	7.992	8.515	9.930	10.14	10.62	10.27	10.79	11.17	11.32	11.18	11.82	11.74	11.57	11.57	12.19	12.39	12.11	12.27	12.56	12.54	12.06	12.28	12.52	12.14	12.33	11.73	11.14	11.50
415.0	1898	2171	2377	2543	2601	2694	2734	2890	3125	3542	4019	4269	4247	4002	3610	3035	2574	2322	2301	2399	2545	2726	2946	3124	3249	3298	3292	3216	3098	2864	2512	2095	1660	1297	1055	953.5	1265	2581	9179	9999.9	2246	36.93	17.61	13.17	11.07	9.414	8.475	9.333	8.714	8.081	8.661	9.911	10.08	10.64	10.32	10.86	11.76	11.28	11.73	11.60	11.66	11.62	11.93	12.42	11.97	12.47	12.23	12.31	12.62	12.41	12.25	12.16	12.43	11.93	11.52	11.04	11.22
420.0	1877	2103	2315	2466	2556	2673	2725	2865	3099	3470	3885	4120	4123	3855	3451	2924	2468	2243	2218	2306	2449	2628	2842	3034	3161	3210	3211	3143	3012	2836	2510	2078	1646	1289	1033	824.6	691.9	804.6	2463	9999.9	9999.9	1955	32.16	15.68	12.70	10.44	9.358	9.059	8.524	8.230	8.474	9.828	10.16	10.83	10.36	10.75	11.19	11.36	11.68	11.11	11.49	11.58	11.58	11.86	11.92	12.31	11.88	12.19	11.76	12.01	12.25	11.60	11.88	11.50	11.16	10.34	10.83
425.0	1882	2119	2274	2387	2527	2638	2705	2858	3055	3407	3790	4045	4023	3766	3371	2841	2393	2169	2146	2235	2368	2556	2766	2973	3103	3171	3168	3120	2987	2805	2545	2111	1669	1313	1050	815.6	584.5	421.6	676.6	2982	9999.9	9999.9	289.2	25.96	14.44	11.54	10.01	9.784	8.595	8.376	8.363	9.837	10.23	10.61	10.40	10.56	11.15	10.96	11.59	11.70	11.04	11.50	11.45	11.54	12.02	11.94	12.08	12.31	12.00	11.24	11.77	11.54	11.16	11.08	10.43	10.42	10.24
430.0	2405	2022	2225	2353	2506	2627	2752	2879	3103	3442	3824	4057	4030	3798	3362	2836	2369	2132	2097	2191	2322	2531	2756	2974	3126	3214	3251	3218	3095	2906	2663	2279	1813	1428	1147	893.4	620.7	376.8	302.9	757.0	2965	9999.9	9999.9	5466	29.15	16.02	11.95	11.10	9.330	8.369	8.642	9.759	10.01	10.76	10.18	10.97	11.26	11.51	11.41	11.57	11.61	11.57	11.71	11.85	12.27	11.83	11.74	12.12	12.02	11.48	11.44	11.38	11.35	11.05	10.61	10.38	9.917
435.0	4172	2112	2151	2298	2471	2634	2795	2952	3119	3428	3818	4055	4005	3766	3340	2778	2321	2072	2039	2121	2257	2453	2702	2912	3088	3198	3263	3240	3140	2962	2713	2362	1933	1522	1223	967.0	679.4	408.2	248.7	277.7	734.5	2336	6630	9999.9	2130	35.04	16.81	13.12	11.25	9.077	8.734	10.24	10.48	10.93	10.44	10.92	11.67	11.65	11.88	11.73	11.75	11.66	11.92	11.84	11.90	11.99	11.84	11.78	11.56	11.41	11.37	11.50	11.24	10.82	10.38	9.818	9.332
440.0	5730	2420	2150	2262	2446	2609	2790	2904	3058	3337	3675	3894	3823	3596	3195	2653	2227	1999	1949	2019	2150	2321	2557	2767	2935	3058	3118	3112	3018	2861	2626	2287	1901	1528	1225	968.4	690.8	421.4	250.6	187.6	251.8	588.2	1690	9080	9999.9	1930	29.82	16.06	12.40	9.948	9.072	10.72	10.64	11.00	10.44	10.62	11.78	11.66	12.02	11.41	11.32	11.56	11.42	11.74	11.71	11.72	11.62	11.13	11.28	11.18	10.94	11.16	10.47	10.29	10.05	10.19	9.279
445.0	5685	4034	2089	2190	2373	2570	2709	2836	2975	3163	3457	3619	3560	3326	2946	2482	2090	1882	1838	1897	2003	2151	2359	2570	2709	2817	2879	2869	2791	2662	2449	2127	1773	1464	1181	930.6	674.1	425.7	264.0	180.1	155.2	206.4	437.5	2462	9999.9	9999.9	1481	26.79	14.15	11.16	9.901	10.83	10.52	10.73	10.51	10.67	11.46	11.47	11.76	11.36	10.78	11.04	11.24	11.23	10.92	11.02	10.97	10.53	10.96	10.88	10.70	10.24	10.20	10.11	9.674	9.377	9.011
450.0	3493	6373	2868	2073	2249	2444	2614	2711	2745	2903	3117	3239	3151	2955	2626	2222	1888	1707	1668	1705	1790	1912	2084	2257	2379	2478	2525	2523	2465	2352	2168	1899	1578	1317	1102	874.3	637.1	420.9	276.2	195.0	149.4	134.8	166.0	605.8	2698	9044	9999.9	5283	100.4	14.42	11.40	11.52	10.98	10.62	10.50	10.49	11.07	11.32	11.21	10.54	10.89	10.81	10.58	10.48	10.08	10.31	10.02	9.718	9.574	10.03	9.560	9.306	9.074	9.291	8.653	8.729	8.515
455.0	1929	5608	5443	2024	2116	2304	2471	2544	2573	2639	2795	2892	2797	2630	2335	1981	1692	1538	1491	1520	1581	1684	1825	1971	2082	2163	2202	2216	2169	2081	1931	1695	1424	1184	1014	833.4	616.1	419.5	286.9	209.8	164.7	131.2	116.2	196.5	650.6	2081	4810	9999.9	7003	27.60	14.42	13.21	11.51	10.80	10.44	10.30	10.55	10.95	10.96	10.37	10.30	10.50	9.414	9.730	9.361	9.554	9.267	8.823	8.593	8.760	9.178	8.626	8.727	8.330	8.295	8.050	7.713
460.0	1469	3542	7519	2690	2017	2188	2343	2405	2400	2464	2586	2655	2565	2396	2126	1812	1556	1420	1377	1391	1438	1527	1653	1783	1886	1956	2010	2019	1985	1913	1781	1565	1329	1110	941.5	792.5	608.7	419.9	296.1	221.2	173.6	139.2	112.0	111.5	199.1	507.7	1176	6400	9999.9	1543	25.70	15.30	12.48	11.39	10.82	10.22	10.56	10.64	10.47	10.07	9.866	9.033	9.240	9.169	9.484	8.870	8.867	8.458	8.184	8.157	8.122	7.889	7.868	7.946	7.531	7.218	6.999
465.0	1241	2103	7164	4556	1893	2050	2208	2275	2256	2297	2400	2446	2365	2197	1956	1671	1438	1308	1273	1283	1315	1395	1506	1622	1719	1780	1826	1843	1817	1762	1650	1455	1236	1044	880.8	745.2	593.7	420.4	297.2	226.4	181.2	145.7	117.1	97.40	102.4	159.3	302.1	1647	8352	9999.9	1380	26.89	14.48	12.43	11.06	10.50	10.72	10.41	10.09	10.01	9.675	8.961	8.858	8.832	8.829	8.509	8.748	7.900	8.012	7.703	7.671	7.427	7.310	7.419	6.612	6.749	6.524
470.0	1126	1437	4086	7277	2730	1856	1995	2056	2034	2055	2121	2155	2072	1934	1716	1467	1273	1160	1123	1126	1147	1208	1303	1404	1481	1534	1574	1591	1572	1531	1440	1284	1098	929.3	791.0	665.7	541.4	409.4	298.6	230.1	185.9	151.4	123.2	100.1	85.48	86.25	108.1	402.3	2120	6495	9729	4156	107.7	14.97	11.50	10.71	10.58	10.04	9.465	9.125	9.072	8.250	8.197	7.826	7.820	7.479	7.504	7.080	7.445	6.990	6.777	6.577	6.292	6.624	6.283	6.169	6.102
475.0	1043	1170	1932	6321	5669	1825	1789	1854	1803	1805	1856	1848	1768	1651	1454	1261	1100	1014	973.2	970.8	976.5	1028	1100	1179	1241	1288	1317	1332	1321	1288	1215	1092	943.0	807.6	690.4	586.5	476.0	376.3	298.3	232.4	186.8	153.9	126.9	104.6	86.16	73.73	67.86	124.8	500.9	1480	3534	9655	5370	32.57	13.52	10.97	10.34	9.635	8.777	8.375	7.921	7.316	7.646	7.406	7.030	6.783	6.494	6.362	6.576	6.135	6.106	5.563	5.575	5.883	5.614	5.506	5.667
480.0	944.3	1094	1295	3822	8122	2443	1639	1683	1654	1634	1679	1658	1584	1463	1307	1132	993.7	902.5	874.6	865.6	868.6	909.0	970.1	1031	1082	1121	1154	1167	1160	1131	1074	970.7	841.7	724.8	627.1	534.7	438.5	351.2	290.5	235.3	189.9	155.7	129.8	107.5	88.44	74.16	61.75	65.59	142.3	354.2	836.7	4314	9999.9	1815	29.18	12.85	10.89	10.17	8.834	8.251	7.459	7.367	6.960	6.749	6.697	6.296	6.113	6.067	5.792	5.697	5.928	5.566	5.307	5.174	5.124	5.022	4.697
485.0	861.5	1017	1100	2040	7941	4401	1556	1563	1524	1498	1538	1512	1438	1325	1185	1026	904.0	831.9	799.5	795.9	791.4	819.1	868.7	924.3	968.1	1003	1026	1039	1044	1012	962.6	879.9	762.0	664.2	579.4	497.5	410.4	331.6	272.9	236.9	193.6	157.8	132.3	109.4	93.11	77.45	62.32	54.76	63.58	105.4	209.7	1070	5879	9670	1521	25.08	12.71	10.23	9.184	8.213	7.472	6.949	6.792	6.306	6.182	6.174	5.605	5.687	5.313	5.453	5.345	5.000	4.893	4.848	5.026	4.616	4.504
490.0	775.4	952.5	1001	1266	4474	7731	2347	1406	1368	1342	1362	1353	1291	1170	1047	914.6	805.1	742.6	720.5	705.2	699.7	721.9	759.1	805.2	845.3	868.2	888.4	904.5	909.3	886.0	847.1	772.4	677.4	592.1	522.9	452.0	376.7	308.7	254.9	224.3	196.4	162.3	134.2	113.5	96.89	81.02	66.51	56.28	49.66	52.16	71.21	260.5	1447	4857	8153	3931	122.0	13.26	9.955	8.216	7.476	6.816	6.407	5.862	5.731	5.592	5.401	5.086	4.945	4.929	4.973	4.823	4.727	4.534	4.576	4.170	4.188
495.0	657.8	851.7	927.8	985.9	1861	7070	4508	1340	1210	1193	1210	1194	1130	1028	913.1	800.8	711.0	657.0	629.0	616.8	606.5	623.0	658.7	696.8	729.3	744.7	768.9	781.5	782.2	765.4	731.9	670.9	594.6	522.2	463.2	405.9	345.3	284.8	237.0	208.3	187.5	166.7	136.0	114.5	98.51	83.44	70.50	59.09	48.97	43.30	42.71	81.39	341.6	1106	2957	8771	5861	34.48	12.34	8.771	7.649	6.709	6.317	5.451	5.414	5.077	5.131	4.620	4.606	4.228	4.425	4.409	4.175	4.230	4.131	3.861	3.804
500.0	615.3	731.7	869.7	876.1	1130	4228	8318	1880	1099	1094	1091	1080	1006	914.8	816.1	717.8	630.2	586.5	564.2	551.5	546.9	558.4	583.6	618.5	644.8	659.6	680.1	687.7	688.0	678.1	650.3	600.9	535.7	471.1	423.5	368.7	315.5	263.7	226.1	195.6	176.2	161.0	138.7	112.5	98.66	85.24	72.71	61.16	50.43	42.85	37.26	42.05	96.84	265.0	695.9	3717	9999.9	1966	31.33	10.41	8.150	6.655	6.319	5.546	5.007	4.733	4.535	4.529	4.345	4.135	4.064	3.957	3.907	3.936	3.788	3.723	3.683
505.0	587.4	620.6	802.5	792.3	910.3	2052	8833	3491	1023	993.9	993.6	962.4	902.5	835.5	733.8	645.2	576.2	534.1	510.4	496.2	491.6	498.5	521.6	546.1	568.2	584.3	600.5	610.1	612.0	607.1	579.6	540.6	479.9	425.5	381.7	338.2	289.8	249.0	211.6	185.8	164.4	150.5	137.7	114.8	97.54	85.19	71.84	61.35	51.67	43.69	37.10	33.38	43.63	77.97	173.6	903.3	5104	8879	1700	25.51	8.863	7.010	6.149	5.599	4.735	4.718	4.475	4.088	3.971	3.680	3.751	3.740	3.745	3.695	3.290	3.446	3.633
510.0	513.9	572.3	659.6	731.7	767.9	1088	5015	7870	1686	875.3	860.8	835.5	779.3	716.3	637.6	559.6	499.8	459.0	442.6	429.0	423.8	426.3	446.3	465.2	480.6	495.2	505.5	512.3	516.4	514.1	495.2	460.2	410.3	368.6	332.6	295.9	257.5	223.4	192.4	170.9	149.9	136.3	126.6	114.5	95.81	81.95	70.54	61.30	51.92	44.49	38.17	32.71	32.22	37.44	56.62	217.8	1232	4101	6606	3160	122.6	9.664	6.535	5.507	4.571	4.490	4.303	3.722	3.667	3.418	3.487	3.433	3.278	3.199	3.011	2.921	3.089
515.0	444.8	487.1	529.6	656.5	672.0	747.5	1851	8182	4969	826.1	742.7	722.8	670.8	608.5	544.7	472.8	427.1	393.8	381.0	368.8	359.4	363.8	377.7	387.0	400.2	409.4	419.1	425.8	429.3	428.3	412.7	386.1	347.8	312.1	284.9	255.7	224.3	196.8	172.7	154.2	136.6	123.1	112.0	107.8	96.19	79.87	68.54	59.59	51.33	43.87	38.32	33.25	29.30	29.20	30.35	64.48	288.7	928.5	2174	6401	4504	34.38	7.880	5.777	4.940	4.306	3.872	3.271	3.425	3.270	3.069	2.826	2.716	2.855	2.741	2.501	2.621
520.0	384.7	439.6	469.0	574.3	630.2	630.1	920.2	5001	8784	1282	667.4	647.3	598.7	535.8	479.2	420.8	375.4	347.8	333.8	323.3	314.9	318.0	328.8	336.7	348.3	353.6	362.5	371.7	371.6	375.2	361.8	337.1	306.2	276.5	250.5	227.4	202.4	178.9	155.9	141.9	125.6	114.7	103.8	96.84	92.79	80.57	66.78	58.22	49.52	42.60	37.65	33.31	28.78	26.85	24.68	30.58	78.83	218.6	508.6	2609	6944	1917	30.03	6.738	5.153	4.373	3.800	3.185	3.213	2.964	2.750	2.667	2.458	2.625	2.412	2.507	2.542
525.0	353.6	403.4	437.9	488.8	591.8	570.1	656.4	2186	9999.9	2651	607.9	572.9	529.2	485.1	427.9	380.6	336.8	312.5	300.0	287.7	281.4	283.4	291.1	295.9	308.7	310.1	316.1	324.8	327.9	330.0	319.0	297.3	272.7	247.4	225.8	204.1	183.0	162.9	143.1	129.6	117.0	107.5	96.10	89.39	86.06	79.59	66.10	56.27	47.55	42.00	36.80	32.86	28.58	25.56	23.20	22.73	31.66	61.21	125.2	624.1	3325	6145	1594	23.04	5.788	4.570	3.566	3.282	2.881	2.860	2.588	2.487	2.414	2.545	2.367	2.191	2.143
530.0	306.6	335.2	372.4	410.1	507.6	520.6	528.0	910.4	5940	8202	1191	497.4	460.3	415.5	370.1	323.4	292.4	268.6	256.2	247.4	241.1	242.0	246.2	251.5	259.1	262.8	268.4	272.2	277.6	277.1	271.4	252.2	233.5	211.3	194.3	177.3	158.7	142.1	127.6	115.7	106.2	96.61	87.58	80.07	76.29	72.78	64.78	53.60	45.23	39.20	34.99	31.60	27.17	25.11	22.50	20.19	20.81	25.77	38.49	149.2	796.9	2719	4418	2149	115.9	6.785	3.804	3.304	2.967	2.726	2.549	2.367	2.242	2.247	2.082	2.042	2.056
535.0	265.6	296.8	326.4	354.2	403.6	482.7	445.4	531.2	1915	9464	4493	464.2	396.4	350.8	314.8	273.8	250.3	231.2	220.9	211.3	203.8	201.9	208.9	213.3	216.7	218.3	223.8	226.7	230.5	228.6	225.0	211.4	194.0	177.6	164.9	151.5	137.1	122.8	112.1	101.4	93.04	84.52	77.21	71.10	66.07	61.65	60.33	52.47	43.25	36.74	32.46	29.51	25.79	23.46	20.93	18.82	17.28	16.86	18.21	42.46	185.6	615.1	1385	4082	2054	33.73	5.264	3.611	3.109	2.622	2.403	2.247	2.139	2.160	1.977	1.783	1.732
540.0	245.7	260.1	284.7	301.8	333.1	431.4	405.0	412.2	739.9	5777	8997	774.9	346.8	307.9	276.4	239.6	216.3	202.6	190.7	182.3	178.5	176.7	177.4	185.1	186.3	190.6	193.8	196.3	199.2	200.3	194.0	183.3	168.4	155.6	143.8	132.3	120.9	107.9	100.1	89.81	83.03	75.90	71.21	65.12	59.66	55.12	52.95	50.75	41.64	33.98	30.33	27.63	24.47	22.38	20.27	18.26	16.61	14.62	14.24	18.20	48.99	144.7	321.7	1588	4195	1739	27.87	4.321	3.015	2.551	2.239	1.955	1.864	1.892	1.767	1.568	1.603
545.0	232.2	247.2	255.5	265.1	279.0	373.4	381.3	361.1	427.6	2273	9999.9	1921	315.3	277.1	241.2	213.6	190.1	179.3	168.6	159.8	158.2	154.6	154.5	160.2	162.7	166.4	168.9	171.7	171.9	173.0	167.4	160.0	145.9	136.4	126.4	115.4	105.9	96.27	88.84	81.22	75.09	69.42	64.88	58.61	54.37	50.07	45.73	45.42	40.38	33.36	28.74	25.68	22.77	20.72	19.38	17.44	15.80	13.78	12.47	12.48	18.43	39.12	78.94	377.1	1970	3999	1269	20.07	3.546	2.823	2.216	2.031	1.658	1.706	1.615	1.565	1.586
550.0	203.2	224.9	222.8	227.0	246.3	284.2	341.0	317.2	311.9	763.2	6172	7575	665.9	234.8	202.6	178.1	159.2	149.7	140.9	135.8	129.3	126.5	128.1	132.3	134.1	136.0	136.9	139.7	140.2	142.3	138.5	131.2	121.3	112.8	104.4	96.14	89.15	81.70	74.87	69.32	63.40	58.65	54.72	49.88	46.50	43.32	39.01	37.70	35.59	31.24	26.00	22.74	19.90	18.49	17.41	15.89	14.57	13.22	11.28	10.55	10.96	15.28	23.95	90.36	467.8	1663	2778	1165	107.4	4.167	2.466	2.077	1.821	1.513	1.442	1.541	1.428
555.0	183.3	195.7	190.8	181.9	194.0	220.5	267.1	283.9	253.2	353.1	1821	9692	3176	209.2	166.4	146.2	131.3	120.9	115.8	110.3	104.8	101.8	101.3	104.5	106.7	108.0	109.3	109.6	109.7	112.1	110.4	105.2	97.97	90.44	85.10	76.90	72.22	66.53	60.82	57.12	52.49	48.35	45.00	42.08	38.95	36.27	32.76	30.50	28.60	27.76	23.81	19.59	17.46	16.04	14.86	14.18	13.26	11.93	10.65	9.070	8.594	9.261	10.77	25.41	108.9	375.6	835.7	2340	1785	32.28	3.402	2.206	1.905	1.446	1.349	1.270	1.181
560.0	166.9	173.0	177.2	160.4	165.3	172.8	219.3	271.4	220.1	234.8	582.3	6053	7456	386.5	143.3	125.6	110.0	100.1	97.25	91.56	88.28	85.89	84.59	87.08	88.68	89.69	89.78	91.00	91.79	93.85	91.25	85.63	80.67	74.59	70.68	63.76	60.98	56.61	51.78	48.01	45.11	41.82	38.19	36.31	33.44	31.47	28.36	27.11	24.08	23.10	21.61	18.30	16.06	14.75	13.08	12.65	11.47	10.33	9.239	8.393	7.295	7.271	7.090	10.29	28.45	87.81	193.1	878.8	2516	1263	24.85	2.740	1.881	1.549	1.429	1.291	1.199
565.0	170.5	178.9	165.7	148.5	145.6	143.4	176.3	244.8	201.9	188.3	271.0	2274	9999.9	1257	127.7	107.6	95.50	87.22	82.26	77.17	74.30	72.07	72.11	73.75	74.80	74.50	76.35	76.35	77.41	77.69	77.33	73.03	68.32	63.64	59.10	55.38	51.30	48.72	44.11	41.47	38.30	35.82	33.50	31.39	30.19	27.16	24.64	22.96	21.20	19.61	19.02	17.55	14.64	12.99	11.68	11.42	10.01	9.259	8.573	7.643	6.684	6.270	5.456	6.399	10.09	23.25	46.83	206.6	1082	2293	277.4	16.71	2.295	1.750	1.341	1.240	1.236
570.0	153.3	161.4	153.3	122.5	121.5	125.1	139.5	188.4	196.0	163.5	179.3	663.0	6179	6083	354.0	89.63	79.39	72.29	67.01	63.30	59.63	58.28	58.03	59.63	59.56	60.21	60.08	60.71	62.09	62.38	62.46	58.25	53.97	50.74	47.78	45.37	42.17	38.76	36.48	33.96	31.52	29.48	28.12	25.76	24.08	23.11	20.86	19.05	17.36	15.71	15.14	14.61	13.14	11.14	10.12	9.685	8.930	8.239	7.369	6.645	6.228	5.680	4.837	4.971	5.580	8.226	13.44	49.10	253.4	894.5	1398	833.2	21.33	2.588	1.537	1.297	1.139
575.0	139.7	164.9	135.9	106.8	103.0	103.7	113.3	137.2	188.1	148.6	141.8	249.5	1748	8378	1264	82.59	65.15	59.20	54.25	51.37	48.65	46.72	45.81	46.69	47.55	47.86	46.76	49.17	49.22	50.41	48.48	45.56	42.85	40.49	37.61	35.73	34.37	31.75	29.55	26.55	25.63	24.07	22.88	21.38	19.98	18.96	17.12	15.69	14.55	13.17	11.89	11.38	11.32	9.822	8.550	8.150	7.471	7.071	6.372	5.556	5.393	5.273	4.638	4.116	4.016	4.825	5.623	13.24	58.72	201.9	406.7	1250	1065	30.46	1.953	1.304	1.194
580.0	141.0	146.3	127.8	99.83	93.86	94.88	102.5	110.7	160.5	156.8	128.6	149.1	496.2	5403	5510	137.0	56.16	50.98	44.69	43.06	41.11	39.70	39.35	39.05	41.14	39.85	39.62	40.27	41.71	41.27	39.94	38.20	36.09	33.94	31.66	29.83	28.38	26.80	24.48	22.44	21.71	20.42	18.72	17.69	17.12	16.23	14.76	13.44	12.88	11.39	9.826	9.785	9.924	9.243	8.338	7.157	6.614	6.045	5.682	5.036	4.671	4.497	4.296	3.852	3.516	3.659	3.733	5.306	15.16	47.28	94.23	444.6	1364	749.4	22.89	1.656	1.176
585.0	121.1	141.5	117.4	92.17	83.44	80.29	90.08	96.35	130.8	169.2	126.7	125.0	196.6	2008	8026	768.8	52.25	44.09	39.51	37.53	34.73	34.50	33.66	34.54	34.59	34.02	34.14	34.67	34.17	34.87	33.80	33.24	31.18	29.09	27.19	25.51	24.11	23.16	20.85	19.80	18.41	17.80	16.91	15.91	14.71	14.17	12.63	11.90	10.98	9.835	8.906	8.651	8.539	8.342	7.935	6.584	6.043	5.344	4.939	4.573	4.497	4.104	3.890	3.714	3.450	3.171	2.976	3.224	5.453	12.54	23.10	104.2	560.4	1272	267.7	13.67	1.282
590.0	124.8	135.0	108.7	79.59	70.60	73.16	77.27	85.31	99.99	151.3	133.3	110.6	120.9	551.8	4973	4228	97.08	37.91	34.00	31.76	29.38	28.65	27.67	28.00	27.94	27.90	27.49	27.99	27.47	28.21	28.12	26.70	25.20	23.84	22.23	20.56	19.69	18.51	16.94	16.12	15.18	14.67	13.49	12.82	11.71	11.49	10.58	10.00	8.920	7.980	7.313	7.118	6.845	6.755	6.915	5.973	5.284	4.770	4.174	3.993	3.812	3.510	3.226	3.284	3.089	2.849	2.563	2.514	3.015	4.615	6.815	24.96	130.6	478.8	795.4	516.8	20.44
595.0	108.7	119.9	96.47	74.51	65.60	63.30	69.60	75.15	82.64	119.4	150.5	106.9	100.4	181.2	1375	6137	857.5	36.88	29.67	27.06	25.56	23.30	23.01	23.52	21.79	22.20	21.90	22.71	22.65	22.71	22.39	21.02	20.29	18.29	17.62	16.53	16.14	14.83	13.75	12.97	12.58	11.50	10.83	10.40	9.717	9.394	8.716	8.096	7.531	6.699	6.185	5.686	5.280	5.029	5.478	5.337	4.719	4.146	3.558	3.386	3.183	2.882	2.890	2.599	3.027	2.563	2.234	2.135	2.232	2.568	2.945	7.058	30.30	108.0	221.2	675.8	623.2
600.0	113.7	107.8	83.81	68.12	57.16	57.95	63.73	69.02	74.53	97.71	149.9	111.8	92.94	98.16	364.9	4081	3586	80.73	26.96	22.69	21.77	19.73	19.83	19.58	18.12	18.52	19.20	18.35	18.83	18.69	18.99	17.98	17.07	16.08	14.17	14.00	13.03	12.58	11.76	11.06	10.12	9.805	9.112	8.737	8.028	8.152	7.292	6.736	6.357	5.748	5.296	4.872	4.492	4.448	4.338	4.718	4.193	3.584	3.155	3.049	3.011	2.599	2.541	2.481	2.443	2.461	2.091	1.915	1.953	1.976	2.005	2.864	8.002	25.26	50.95	227.8	733.4
605.0	103.5	105.7	88.05	70.63	58.43	54.29	57.37	62.93	65.35	83.52	133.3	124.1	88.17	77.29	125.9	1532	5482	486.7	24.83	21.18	18.55	17.46	16.80	16.82	16.25	16.19	15.67	16.06	16.27	16.40	16.23	15.39	14.90	13.62	12.42	12.11	10.99	10.77	10.06	9.335	8.881	8.491	8.194	7.404	7.036	7.096	6.247	6.110	5.277	5.041	4.633	4.187	4.161	3.850	3.700	3.933	3.979	3.513	3.074	2.697	2.604	2.385	2.158	2.308	2.309	2.212	1.936	1.902	1.762	1.680	1.714	1.764	2.985	6.792	12.38	53.08	282.1
610.0	98.65	111.3	83.32	61.73	52.34	50.56	55.02	62.49	68.43	81.64	114.1	138.1	95.19	74.48	70.25	402.4	3623	2906	62.95	18.14	16.46	14.84	14.33	13.66	13.67	13.66	13.18	13.23	13.63	13.23	12.96	12.64	11.87	11.32	10.56	10.20	9.538	8.823	8.117	7.669	7.258	6.852	6.609	5.965	5.870	5.741	5.234	5.105	4.359	4.107	3.691	3.550	3.296	3.066	3.116	3.104	3.211	3.253	2.823	2.578	2.397	2.098	2.101	1.919	1.904	1.933	1.871	1.759	1.665	1.529	1.518	1.429	1.772	2.482	3.670	12.74	65.41
615.0	93.39	94.28	79.83	55.53	46.90	46.63	50.76	59.55	67.01	78.17	99.63	129.8	107.4	74.15	57.02	118.2	1015	4472	646.8	18.25	14.02	13.18	11.76	11.73	11.07	11.04	10.86	11.15	11.03	10.85	10.49	10.17	9.802	8.888	8.528	8.112	7.447	6.905	6.744	6.506	5.839	5.867	5.175	5.006	4.548	4.748	4.398	4.168	3.669	3.449	3.221	2.822	2.972	2.549	2.627	2.529	2.493	2.664	2.481	2.196	2.032	1.901	1.769	1.708	1.631	1.574	1.546	1.617	1.735	1.420	1.276	1.224	1.256	1.358	1.582	3.740	15.27
620.0	90.32	86.10	76.50	52.25	44.75	42.44	49.42	53.29	66.44	74.98	87.88	112.9	116.3	75.69	54.65	54.03	263.1	3076	2593	49.59	13.55	11.80	10.57	10.24	9.789	9.161	9.364	9.044	9.579	9.322	9.259	8.634	8.131	7.422	7.190	6.983	6.464	6.139	5.780	5.373	5.061	4.741	4.767	4.214	4.140	3.903	3.813	3.374	3.006	2.986	2.640	2.400	2.486	2.125	2.230	2.175	2.070	2.179	2.315	2.251	1.829	1.586	1.608	1.520	1.549	1.476	1.435	1.537	1.559	1.490	1.310	1.205	1.267	1.182	1.102	1.576	4.034
625.0	86.58	75.15	71.16	53.25	45.72	39.88	47.69	54.28	64.19	73.56	81.84	97.81	121.2	76.99	51.33	38.00	82.10	1185	4140	318.8	13.65	10.96	9.673	9.004	8.238	8.140	7.832	7.736	8.102	8.075	7.711	7.208	7.201	6.548	6.316	5.916	5.543	5.347	4.882	4.770	3.966	4.153	3.881	3.862	3.536	3.239	3.194	2.793	2.688	2.465	2.082	2.137	2.035	1.969	1.964	1.952	1.822	1.765	1.901	2.081	1.844	1.529	1.452	1.459	1.423	1.238	1.232	1.479	1.355	1.517	1.192	1.169	1.158	1.018	1.004	1.048	1.522
630.0	80.40	76.05	69.34	49.84	44.90	40.74	42.48	52.07	57.64	69.47	80.26	88.52	109.1	84.67	50.91	35.40	39.74	306.5	2850	2103	43.16	10.04	8.708	8.199	7.501	7.121	6.931	6.614	6.822	6.412	6.416	6.300	5.805	5.646	5.224	4.999	4.808	4.374	3.963	3.930	3.604	3.483	3.068	3.113	3.049	2.649	2.634	2.349	2.299	2.031	1.891	1.868	1.637	1.671	1.655	1.608	1.620	1.526	1.736	1.638	1.653	1.448	1.338	1.202	1.218	1.106	1.168	1.211	1.163	1.207	1.160	1.089	0.986	0.975	0.877	0.839	0.890
635.0	87.09	81.38	75.30	51.13	44.30	42.87	39.32	46.67	52.99	67.82	76.44	85.10	90.31	96.59	55.83	37.15	31.63	85.44	805.5	3463	491.9	11.19	7.820	7.245	6.577	6.244	6.101	5.671	5.782	5.526	5.594	5.203	4.758	5.011	4.589	4.591	4.433	3.759	3.607	3.302	3.175	2.757	2.458	2.565	2.420	2.210	2.327	2.009	1.954	1.832	1.535	1.405	1.458	1.399	1.372	1.334	1.436	1.305	1.483	1.256	1.413	1.389	1.257	1.207	1.148	1.131	1.101	1.134	1.131	1.050	1.027	1.030	0.973	0.880	0.799	0.821	0.767
640.0	83.93	89.79	73.68	50.74	42.24	40.80	39.42	43.70	53.69	64.88	77.20	84.83	87.83	93.27	64.04	38.36	31.51	37.07	204.4	2500	1868	30.99	7.864	6.605	6.367	5.601	5.315	5.450	5.511	5.151	5.384	4.888	4.789	4.744	4.384	4.282	4.170	3.918	3.748	3.047	2.824	2.773	2.340	2.170	2.103	1.995	2.136	1.823	1.621	1.675	1.374	1.295	1.289	1.310	1.181	1.264	1.194	1.303	1.193	1.150	1.251	1.379	1.275	1.111	1.084	1.067	1.122	1.060	1.164	0.845	1.090	0.935	1.025	0.831	0.790	0.773	0.802
645.0	85.08	83.63	77.54	50.61	41.87	38.29	39.20	45.67	50.47	62.77	73.58	84.28	82.30	88.04	72.35	41.13	32.63	27.01	60.34	1002	3085	79.82	8.504	6.242	5.895	5.572	5.419	4.889	4.636	5.344	4.804	4.710	4.623	4.635	4.438	4.389	4.407	4.261	3.878	2.967	2.872	2.587	2.226	2.185	2.024	1.881	1.741	1.630	1.646	1.323	1.315	1.283	1.237	1.299	1.088	1.121	1.188	1.275	1.180	1.124	1.200	1.194	1.130	1.118	0.992	1.072	1.070	0.979	0.986	0.848	0.992	0.891	0.946	0.919	0.837	0.728	0.860
650.0	94.15	95.44	86.35	54.08	44.86	40.88	42.80	46.70	49.55	61.12	73.78	81.72	79.73	78.92	77.14	44.81	33.39	24.51	27.39	279.2	2881	587.1	12.20	6.251	5.818	5.731	5.217	4.810	4.494	5.016	4.552	4.253	4.598	4.629	4.941	4.674	4.774	4.460	3.943	3.054	2.785	2.344	2.288	1.942	1.719	1.624	1.746	1.659	1.385	1.227	1.244	1.105	1.172	1.168	1.144	1.186	1.085	1.113	1.116	0.990	1.043	1.089	0.963	0.957	0.963	1.108	1.026	0.920	0.934	0.972	0.948	0.832	0.936	0.917	0.844	0.815	0.995
