Sample:	'1
File name:	淮河三源大道桥.FD3
Run date:	'12:48:26, 04/03/2024
Operator:	Administrator
Comment:	'

Instrument
Model:	F-2700 FL Spectrophotometer
Serial number:	23B8-004
ROM Version:	4J14000 07

Instrument parameters
Measurement type:	3-D scan
Data mode:	Fluorescence
EX  Start WL:	220.0 nm
EX  End WL:	600.0 nm
EX Sampling interval:	5.0 nm
EM  Start WL:	230.0 nm
EM  End WL:	650.0 nm
EM Sampling interval:	5.0 nm
Scan speed:	12000 nm/min
EX Slit:	5.0 nm
EM Slit:	5.0 nm
PMT Voltage:	700 V
Response:	Auto 
Corrected spectra:	Off
Contour interval:	50.000

Peak integration
Integration method:	Rectangular
Sensitivity:	1
Threshold:	1.000

Peaks
No.	ApexEX/EM(nm)	Height(Data)
1	225.0/640.0	34.00
2	230.0/310.0	778.2
3	230.0/385.0	388.6
4	230.0/415.0	361.8
5	230.0/500.0	214.7
6	230.0/600.0	57.46
7	235.0/510.0	177.8
8	240.0/525.0	160.4
9	245.0/445.0	316.8
10	245.0/535.0	130.5
11	250.0/430.0	338.5
12	250.0/545.0	111.7
13	255.0/280.0	447.5
14	255.0/560.0	97.27
15	260.0/575.0	79.46
16	265.0/585.0	84.47
17	270.0/300.0	937.4
18	270.0/405.0	318.9
19	270.0/600.0	86.67
20	275.0/305.0	1106
21	275.0/610.0	75.30
22	280.0/310.0	972.1
23	280.0/625.0	62.19
24	285.0/635.0	42.05
25	300.0/335.0	334.6
26	305.0/340.0	297.0
27	310.0/350.0	244.4
28	315.0/355.0	241.3
29	320.0/360.0	247.2
30	325.0/370.0	224.3
31	330.0/375.0	225.8
32	335.0/380.0	237.1
33	340.0/390.0	206.6
34	345.0/395.0	197.2
35	350.0/400.0	200.5
36	360.0/415.0	168.3
37	365.0/420.0	168.3
38	380.0/440.0	122.4
39	400.0/465.0	68.37
40	415.0/485.0	41.54
41	420.0/490.0	35.66
42	430.0/505.0	27.27
43	435.0/510.0	22.82
44	440.0/515.0	19.73
45	445.0/525.0	17.31
46	455.0/315.0	3.066
47	460.0/320.0	2.983
48	460.0/545.0	9.361
49	505.0/275.0	2.417
50	510.0/280.0	2.463
51	520.0/285.0	2.921
52	540.0/295.0	4.456
53	545.0/300.0	5.388
54	555.0/305.0	5.465
55	565.0/310.0	4.642
56	575.0/315.0	4.447
57	580.0/320.0	4.013
58	585.0/325.0	3.403

Data points
	220.0	225.0	230.0	235.0	240.0	245.0	250.0	255.0	260.0	265.0	270.0	275.0	280.0	285.0	290.0	295.0	300.0	305.0	310.0	315.0	320.0	325.0	330.0	335.0	340.0	345.0	350.0	355.0	360.0	365.0	370.0	375.0	380.0	385.0	390.0	395.0	400.0	405.0	410.0	415.0	420.0	425.0	430.0	435.0	440.0	445.0	450.0	455.0	460.0	465.0	470.0	475.0	480.0	485.0	490.0	495.0	500.0	505.0	510.0	515.0	520.0	525.0	530.0	535.0	540.0	545.0	550.0	555.0	560.0	565.0	570.0	575.0	580.0	585.0	590.0	595.0	600.0
230.0	31.06	1217	4169	1646	61.40	6.017	4.502	3.802	3.282	4.398	3.330	2.864	2.603	2.542	2.105	1.831	1.773	1.672	1.432	1.231	1.263	1.072	1.021	1.027	0.972	0.927	0.858	0.804	0.867	0.708	0.688	0.722	0.639	0.652	0.549	0.508	0.485	0.481	0.412	0.371	0.404	0.441	0.513	0.418	0.357	0.334	1.404	8.136	15.24	11.47	4.556	0.855	0.270	0.231	0.213	0.210	0.196	0.187	0.195	0.159	0.124	0.133	0.108	0.145	0.157	0.131	0.139	0.092	0.086	0.079	0.098	0.077	0.102	0.069	0.088	0.081	0.068
235.0	76.22	321.5	2110	4423	631.5	104.3	6.827	4.546	4.173	4.478	3.134	3.273	2.668	2.748	2.310	1.856	1.736	1.678	1.385	1.248	1.334	1.114	1.200	1.042	0.938	1.117	0.973	0.792	0.731	0.870	0.672	0.646	0.680	0.710	0.528	0.550	0.435	0.410	0.437	0.328	0.353	0.392	0.518	0.572	0.612	0.484	0.575	2.169	5.457	9.566	14.84	16.87	8.250	1.954	0.307	0.249	0.206	0.168	0.304	0.169	0.173	0.152	0.151	0.158	0.172	0.114	0.121	0.066	0.091	0.065	0.082	0.103	0.074	0.091	0.069	0.058	0.087
240.0	110.8	152.4	567.3	3058	4717	531.4	58.88	8.396	5.107	5.888	4.341	3.595	3.385	3.242	2.647	1.762	1.724	1.703	1.485	1.234	1.555	1.195	1.127	1.113	1.023	0.974	0.928	0.849	0.721	0.761	0.817	0.839	0.576	0.770	0.646	0.628	0.463	0.458	0.431	0.396	0.417	0.393	0.426	0.581	0.583	0.700	0.568	0.790	1.519	2.680	7.042	18.05	25.31	18.88	7.085	1.028	0.259	0.258	0.206	0.162	0.197	0.144	0.149	0.145	0.148	0.100	0.114	0.080	0.089	0.138	0.120	0.082	0.110	0.097	0.056	0.051	0.096
245.0	76.47	178.6	191.9	902.8	4317	4121	428.3	24.24	7.119	8.599	5.464	4.717	3.214	2.918	2.843	2.224	2.067	1.772	1.638	1.227	1.226	1.262	1.218	1.147	1.166	0.965	0.844	0.735	0.868	0.742	0.732	0.753	0.609	0.671	0.558	0.624	0.496	0.484	0.469	0.400	0.392	0.378	0.309	0.436	0.468	0.667	0.848	0.794	0.779	0.785	1.851	5.511	15.08	29.01	28.22	16.74	5.000	0.512	0.225	0.169	0.199	0.164	0.134	0.161	0.138	0.181	0.111	0.115	0.102	0.083	0.116	0.088	0.118	0.114	0.075	0.080	0.065
250.0	29.45	108.4	207.0	291.2	1233	3775	5116	1593	110.8	13.92	7.732	6.449	4.494	4.108	3.316	2.706	2.336	2.000	1.828	1.595	1.476	1.254	1.269	1.237	1.106	1.119	1.040	0.902	0.864	0.926	0.775	0.750	0.721	0.588	0.537	0.531	0.532	0.634	0.470	0.442	0.462	0.404	0.360	0.397	0.368	0.443	0.585	0.775	0.888	0.848	0.877	1.528	3.667	8.603	15.22	23.81	29.78	28.78	14.38	4.911	0.554	0.213	0.178	0.160	0.196	0.205	0.178	0.139	0.108	0.136	0.091	0.095	0.109	0.112	0.115	0.074	0.070
255.0	20.41	36.64	109.4	278.5	369.0	899.2	3228	9183	2304	150.7	13.08	9.499	6.462	5.643	3.941	3.457	2.696	2.512	2.224	1.657	1.612	1.317	1.228	1.261	1.156	1.230	1.183	0.988	0.969	1.001	0.815	0.719	0.801	0.805	0.620	0.554	0.575	0.554	0.528	0.469	0.433	0.331	0.382	0.379	0.383	0.441	0.424	0.411	0.482	0.718	1.179	1.495	1.328	2.217	3.668	5.692	9.573	24.07	46.53	33.17	22.04	5.133	0.345	0.245	0.230	0.216	0.182	0.139	0.102	0.195	0.109	0.107	0.133	0.143	0.101	0.060	0.088
260.0	17.89	22.49	40.13	187.7	303.6	258.4	856.9	5852	9999.9	1988	78.42	13.27	7.685	5.934	4.520	3.902	3.507	2.890	2.271	2.128	1.549	1.348	1.462	1.424	1.458	1.162	1.275	1.072	1.096	0.963	1.076	0.919	0.832	0.685	0.616	0.577	0.563	0.632	0.491	0.539	0.439	0.407	0.432	0.396	0.364	0.360	0.425	0.357	0.428	0.398	0.756	1.366	1.699	1.180	1.120	1.512	2.471	6.112	17.54	38.63	61.60	32.90	18.40	2.917	0.295	0.290	0.165	0.213	0.113	0.177	0.110	0.098	0.127	0.145	0.057	0.113	0.136
265.0	16.39	17.87	20.84	78.18	268.4	240.3	227.9	1663	8606	9999.9	1376	33.12	11.93	8.241	6.080	4.838	4.062	3.296	2.629	2.400	1.824	1.523	1.747	1.392	1.311	1.293	1.344	1.002	1.150	1.084	1.089	1.019	0.783	0.834	0.615	0.661	0.522	0.553	0.488	0.444	0.454	0.410	0.568	0.335	0.370	0.412	0.397	0.358	0.377	0.357	0.378	0.625	1.417	1.789	1.443	0.777	0.842	1.728	4.218	10.33	29.12	59.20	76.26	30.07	12.16	1.126	0.302	0.267	0.200	0.195	0.140	0.111	0.130	0.194	0.077	0.112	0.152
270.0	23.42	22.48	20.54	32.91	108.2	266.4	263.4	421.1	2394	9999.9	9999.9	4722	79.12	13.90	8.747	6.748	5.025	4.093	3.284	2.879	2.174	1.791	1.688	1.562	1.606	1.433	1.355	1.271	1.206	1.202	1.175	1.071	0.873	0.826	0.728	0.684	0.593	0.639	0.470	0.517	0.520	0.547	0.535	0.402	0.459	0.440	0.479	0.391	0.372	0.349	0.282	0.386	0.636	0.926	1.354	1.664	1.573	1.072	1.318	2.588	6.849	16.00	32.83	51.48	70.19	61.70	20.06	10.21	1.380	0.281	0.271	0.201	0.176	0.160	0.131	0.104	0.115
275.0	38.08	35.40	28.11	23.88	39.79	97.31	330.8	329.6	574.9	2361	6293	9999.9	6275	89.84	14.40	10.17	6.859	5.446	4.334	3.470	3.066	2.205	2.123	1.724	1.749	1.541	1.751	1.445	1.388	1.442	1.249	1.120	1.207	0.992	0.772	0.759	0.735	0.649	0.482	0.537	0.531	0.477	0.584	0.500	0.645	0.499	0.361	0.427	0.438	0.386	0.317	0.401	0.333	0.477	0.621	0.802	1.652	2.417	1.949	1.230	1.871	3.957	7.619	11.91	18.83	38.78	81.09	109.3	32.38	13.94	1.229	0.304	0.306	0.261	0.231	0.231	0.184
280.0	62.72	64.41	56.05	38.51	29.42	39.96	165.4	447.5	288.1	584.0	1642	9884	9999.9	1146	55.59	14.21	9.368	6.985	5.377	4.279	3.513	2.446	2.160	2.000	2.039	1.721	1.736	1.493	1.452	1.361	1.214	1.289	1.015	0.937	0.872	0.912	0.843	0.658	0.751	0.488	0.577	0.589	0.615	0.629	0.792	0.568	0.579	0.534	0.413	0.442	0.413	0.353	0.352	0.381	0.341	0.424	0.711	1.405	2.463	2.376	1.439	1.364	2.077	3.026	4.677	9.446	25.52	66.93	105.5	112.7	28.78	9.059	0.656	0.284	0.341	0.259	0.231
285.0	120.4	146.0	145.8	91.23	51.00	35.71	72.22	301.2	372.6	265.5	473.0	2803	9999.9	9999.9	828.0	28.18	12.44	8.635	6.749	4.954	3.947	3.419	3.045	2.598	1.944	1.796	1.703	1.596	1.592	1.539	1.330	1.491	1.170	1.139	1.201	1.064	1.066	0.811	0.771	0.703	0.717	0.760	0.742	0.834	0.844	0.775	0.818	0.953	0.718	0.626	0.627	0.593	0.542	0.430	0.459	0.383	0.518	0.737	1.331	2.316	2.921	2.176	1.218	1.247	1.666	2.836	6.516	16.80	38.01	90.75	126.2	107.4	23.93	4.360	0.496	0.324	0.347
290.0	271.9	347.3	342.1	219.3	105.2	55.79	65.71	149.3	385.0	492.0	400.8	873.2	3019	9999.9	9999.9	3166	51.45	14.56	9.978	7.094	5.214	4.149	3.501	3.014	2.558	2.290	2.224	2.094	1.838	1.660	1.620	1.512	1.285	1.356	1.453	1.369	1.376	1.186	1.012	0.843	0.845	0.907	0.923	0.988	1.144	1.356	1.372	1.507	1.619	1.139	0.980	0.926	0.748	0.602	0.533	0.520	0.481	0.595	0.882	1.128	1.828	2.585	2.974	2.689	2.115	2.080	2.757	5.063	9.723	22.77	42.72	74.78	94.61	76.57	73.92	16.81	5.957
295.0	408.7	573.2	555.0	368.1	164.5	95.18	88.93	137.3	258.4	559.5	820.7	626.8	1008	2478	6890	9999.9	4739	61.04	15.10	10.16	6.714	5.176	4.223	3.734	3.389	2.742	2.476	2.394	2.181	2.040	1.866	1.606	1.583	1.514	1.571	1.552	1.508	1.470	1.166	1.170	1.061	1.305	1.228	1.339	1.620	1.715	1.881	2.309	2.099	1.594	1.474	1.349	0.893	0.777	0.714	0.627	0.629	0.845	0.939	0.963	1.246	1.649	2.244	3.599	4.456	3.859	2.672	3.035	3.969	6.678	10.85	17.87	22.76	31.14	86.69	142.0	124.2
300.0	491.8	691.8	694.5	442.9	210.7	114.6	115.5	159.6	246.9	453.1	937.4	860.3	646.7	792.5	1799	9999.9	9999.9	682.9	40.95	14.05	9.124	6.028	5.198	4.632	3.871	3.125	2.959	2.417	2.382	2.198	2.104	1.690	1.720	1.556	1.636	1.900	1.888	1.818	1.481	1.338	1.212	1.316	1.278	1.512	1.576	2.111	2.317	2.827	2.505	2.077	1.702	1.621	1.249	0.882	0.873	0.711	0.777	0.895	0.874	0.855	1.170	1.466	1.927	2.484	3.911	5.388	4.738	3.703	3.074	3.470	4.175	5.193	5.897	7.851	22.63	59.32	130.9
305.0	567.4	751.4	744.2	491.7	248.9	132.9	140.1	177.9	264.2	432.5	753.7	1106	720.5	452.4	519.6	2727	9999.9	9999.9	554.5	24.75	12.81	8.242	6.441	5.426	4.414	3.405	3.222	2.814	2.640	2.350	2.114	2.102	1.746	1.783	1.963	2.054	1.941	1.830	1.492	1.411	1.387	1.509	1.270	1.623	1.678	2.414	2.514	2.797	2.785	2.305	1.876	1.708	1.377	0.992	0.942	0.840	0.866	0.907	1.039	1.156	1.336	1.499	1.986	2.326	2.950	4.014	5.190	5.465	3.921	3.086	2.886	2.587	2.323	2.629	5.842	14.13	36.92
310.0	570.5	760.7	778.2	529.9	270.2	162.5	158.5	203.7	290.9	433.5	643.1	906.6	972.1	528.3	270.5	685.9	2963	9999.9	9999.9	2250	38.40	12.66	8.973	7.181	5.677	4.412	3.762	3.333	3.108	2.588	2.340	2.153	2.043	2.119	2.211	2.034	2.158	1.982	1.770	1.600	1.486	1.541	1.485	1.684	1.858	2.421	2.400	2.813	2.893	2.427	1.999	1.858	1.423	1.220	1.044	0.937	0.959	1.084	1.113	1.215	1.547	1.712	2.110	2.362	2.780	3.166	3.719	4.486	4.627	4.642	3.971	2.595	1.762	1.612	2.096	3.752	8.820
315.0	549.1	707.1	751.3	527.2	276.1	182.9	170.5	221.3	295.3	424.8	596.5	724.7	800.2	767.1	321.6	243.2	713.3	2315	7288	9999.9	3582	45.28	13.43	10.17	7.913	5.819	4.757	3.885	3.501	2.949	2.616	2.491	2.244	2.178	2.103	2.210	2.124	2.047	1.719	1.617	1.531	1.516	1.530	1.552	2.127	2.488	2.476	3.066	2.901	2.347	1.960	1.895	1.449	1.056	1.183	1.080	1.030	1.143	1.207	1.382	1.565	1.570	1.995	2.526	2.630	2.832	3.124	3.422	3.396	3.834	4.320	4.447	2.914	1.683	1.395	1.681	2.601
320.0	518.2	706.1	753.9	524.1	278.6	200.1	183.6	222.9	299.7	423.2	574.8	671.8	665.1	695.5	519.7	179.4	217.1	558.7	1833	9999.9	9999.9	2677	32.42	13.85	9.880	7.006	5.588	4.354	4.176	3.641	3.322	2.763	2.562	2.223	2.178	2.282	2.491	2.119	1.729	1.676	1.580	1.490	1.556	1.708	2.069	2.382	2.567	2.845	2.983	2.298	1.980	1.891	1.449	1.238	1.156	1.210	1.112	1.188	1.340	1.403	1.504	1.605	1.930	2.479	2.583	2.790	2.885	3.033	3.080	3.117	3.190	3.640	4.013	3.101	1.830	1.223	1.279
325.0	497.4	664.8	731.8	517.8	284.7	204.7	194.2	230.2	301.9	407.7	554.9	636.3	611.9	534.4	579.4	287.5	118.3	168.9	446.7	2756	9999.9	9999.9	437.2	23.00	13.37	8.725	6.575	5.470	4.394	4.046	3.594	2.989	2.653	2.350	2.524	2.301	2.170	2.171	1.660	1.694	1.565	1.369	1.732	1.760	1.918	2.280	2.418	2.751	2.763	2.088	1.849	1.888	1.538	1.327	1.266	1.229	1.198	1.209	1.356	1.396	1.522	1.626	1.972	2.354	2.559	2.881	2.830	2.873	2.859	2.833	2.755	2.768	3.193	3.403	3.359	1.891	1.091
330.0	478.2	624.2	699.7	504.0	299.8	218.8	203.0	233.2	295.3	392.6	527.8	603.1	580.2	453.1	406.0	394.5	200.7	98.16	139.3	649.8	2937	9999.9	9999.9	1841	34.82	12.48	9.953	7.051	5.602	4.807	4.111	3.453	3.038	2.713	2.502	2.418	2.310	2.193	1.719	1.747	1.638	1.467	1.818	1.812	1.981	2.299	2.332	2.683	2.626	2.169	1.845	1.770	1.659	1.409	1.443	1.306	1.352	1.287	1.406	1.555	1.555	1.726	1.955	2.337	2.454	2.703	2.619	2.908	2.821	2.794	2.732	2.506	2.404	2.297	2.647	2.590	2.401
335.0	434.3	598.1	653.0	481.4	304.2	233.3	214.6	238.6	282.8	373.9	487.9	559.2	545.6	427.1	328.8	271.3	334.6	178.2	81.82	181.9	687.3	2309	7533	9999.9	3166	40.00	13.81	9.905	7.500	6.125	4.856	3.983	3.185	3.252	2.647	2.401	2.287	2.230	1.980	1.761	1.761	1.707	1.697	1.962	1.955	2.286	2.169	2.721	2.665	2.024	1.909	1.774	1.708	1.547	1.502	1.326	1.404	1.398	1.350	1.525	1.597	1.834	2.033	2.206	2.258	2.691	2.592	2.442	2.651	2.745	2.433	2.234	2.118	1.976	1.743	1.661	2.034
340.0	414.7	568.3	613.7	473.4	310.8	242.1	221.2	230.9	271.6	350.3	458.1	518.4	515.4	415.2	306.5	208.3	260.9	297.0	92.24	83.63	190.0	547.3	1932	9999.9	9999.9	2451	30.94	12.62	9.401	7.405	5.702	4.966	3.580	3.249	3.021	2.565	2.462	2.091	2.130	1.789	1.681	1.692	1.843	1.704	1.871	2.297	2.295	2.569	2.413	1.874	1.922	1.706	1.699	1.606	1.352	1.525	1.426	1.423	1.366	1.454	1.610	1.723	1.803	1.972	2.363	2.402	2.492	2.438	2.496	2.688	2.300	2.215	2.000	1.762	1.523	1.301	1.550
345.0	374.4	511.9	575.9	442.9	318.2	250.6	217.7	234.1	271.0	339.6	427.8	484.3	482.4	391.3	300.3	194.7	180.0	287.0	208.4	78.43	83.91	157.8	464.2	2897	9999.9	9999.9	393.5	19.93	11.57	8.641	6.531	5.218	3.883	3.674	3.292	2.799	2.500	2.279	2.095	1.822	1.805	1.660	1.713	1.806	1.914	2.058	2.238	2.489	2.396	1.866	1.889	1.761	1.576	1.630	1.246	1.266	1.456	1.413	1.497	1.477	1.425	1.724	1.615	1.961	2.231	2.229	2.177	2.144	2.387	2.430	2.265	2.342	2.123	1.793	1.510	1.314	1.303
350.0	353.2	460.5	518.5	420.2	316.4	254.2	228.4	236.5	253.2	315.8	395.1	441.3	447.9	368.1	291.6	195.3	158.5	182.1	244.4	178.9	77.10	80.37	142.8	681.5	3158	9999.9	9999.9	1640	31.46	12.01	8.629	6.285	4.808	3.890	3.522	2.751	2.506	2.540	2.022	1.878	1.805	1.626	1.726	1.620	1.693	2.050	1.939	2.304	2.291	1.739	1.730	1.705	1.566	1.602	1.434	1.292	1.442	1.435	1.462	1.400	1.376	1.560	1.635	1.939	2.019	1.989	2.091	2.081	2.266	2.336	2.239	2.085	1.838	1.661	1.491	1.239	1.167
355.0	333.1	431.7	481.1	394.6	310.5	257.5	240.1	239.2	250.2	297.0	361.0	408.0	409.2	347.3	281.0	200.1	160.6	150.1	164.2	241.3	168.3	78.50	81.09	194.3	739.5	2331	8148	9999.9	2943	37.48	12.17	8.066	6.080	4.735	3.890	3.042	2.626	2.722	1.996	1.696	1.772	1.513	1.600	1.581	1.602	2.000	1.821	2.154	2.040	1.659	1.621	1.796	1.657	1.547	1.308	1.364	1.441	1.261	1.407	1.509	1.466	1.449	1.573	1.794	1.848	1.817	2.113	2.088	2.252	2.153	1.968	1.999	1.746	1.691	1.468	1.148	1.312
360.0	307.1	397.8	446.6	389.8	312.5	264.3	251.6	244.0	251.7	290.9	348.2	380.8	385.4	338.0	274.3	204.4	169.5	150.1	143.4	190.6	247.2	125.8	75.26	93.01	207.2	554.1	2128	9999.9	9999.9	2366	29.06	10.91	7.640	5.747	4.235	3.470	2.955	2.645	2.345	1.885	1.894	1.737	1.574	1.637	1.630	1.762	1.806	1.936	1.883	1.734	1.526	1.697	1.683	1.455	1.410	1.477	1.415	1.400	1.571	1.443	1.424	1.516	1.517	1.530	1.744	1.719	1.851	1.777	1.817	2.076	1.982	1.945	1.768	1.619	1.414	1.337	1.401
365.0	287.9	371.8	443.8	383.6	321.4	284.2	252.3	252.0	257.1	285.6	336.2	362.3	369.3	320.2	273.5	211.1	181.2	161.0	146.6	152.2	230.2	209.4	99.79	76.52	93.52	164.0	510.1	2989	9999.9	9999.9	374.5	19.01	9.634	7.054	5.145	4.003	3.355	2.901	2.626	2.038	1.921	1.806	1.728	1.606	1.524	1.853	1.762	1.889	1.924	1.509	1.556	1.735	1.693	1.626	1.531	1.505	1.421	1.410	1.531	1.589	1.568	1.465	1.507	1.446	1.852	1.802	1.909	1.703	1.867	1.842	1.941	1.873	1.644	1.782	1.416	1.359	1.359
370.0	283.1	362.3	411.4	372.1	328.3	296.1	271.0	261.0	262.8	290.5	323.6	351.2	349.3	312.9	269.9	221.1	195.8	178.2	163.8	154.5	174.6	224.3	188.3	106.0	80.25	85.55	153.0	702.2	3296	9999.9	9999.9	1509	27.51	10.01	7.010	5.179	3.981	3.355	2.773	2.418	2.047	1.826	1.899	1.637	1.743	1.831	1.772	1.968	1.901	1.606	1.493	1.624	1.712	1.639	1.568	1.544	1.653	1.413	1.486	1.564	1.614	1.434	1.601	1.593	1.762	1.755	1.740	1.832	1.981	1.875	1.910	1.728	1.677	1.576	1.433	1.457	1.415
375.0	282.0	355.8	402.1	374.6	335.5	300.8	288.1	279.1	280.4	283.8	319.8	339.3	333.9	301.7	266.5	226.5	211.5	195.5	183.8	171.2	165.4	178.8	225.8	187.4	99.75	79.04	83.62	195.4	766.7	2363	8611	9999.9	2555	32.69	9.855	6.973	5.021	4.116	3.207	2.658	2.262	2.150	1.948	1.687	1.867	1.883	1.619	2.090	2.101	1.661	1.577	1.922	1.847	1.654	1.627	1.536	1.604	1.544	1.567	1.411	1.690	1.560	1.743	1.796	1.724	1.778	1.796	1.707	1.770	1.925	1.972	1.715	1.765	1.547	1.655	1.523	1.610
380.0	266.9	340.7	385.9	365.2	331.7	321.8	298.5	289.6	282.4	294.6	313.5	326.5	323.7	297.5	267.8	228.3	219.8	209.4	196.6	184.8	171.7	167.7	192.7	237.1	142.5	87.82	74.21	88.02	207.6	557.7	2271	9999.9	9999.9	1989	24.18	9.049	6.678	5.064	3.620	2.904	2.329	2.286	2.030	1.792	1.859	2.162	1.867	1.973	1.962	1.733	1.542	1.999	1.899	1.687	1.641	1.595	1.729	1.696	1.746	1.530	1.705	1.536	1.514	1.819	1.579	1.695	1.832	1.642	1.596	1.708	1.685	1.743	1.663	1.567	1.584	1.525	1.560
385.0	259.4	335.8	388.6	373.1	345.8	325.5	310.3	295.2	288.0	300.9	315.0	321.1	317.0	295.9	269.6	238.0	227.9	217.7	207.2	197.6	184.4	172.1	170.1	214.9	205.9	113.8	81.37	71.00	89.31	158.4	537.5	3088	9999.9	9999.9	308.4	15.03	7.914	5.875	4.299	3.288	2.471	2.367	2.150	1.937	2.156	1.976	1.791	1.960	2.053	1.617	1.595	1.817	1.824	1.729	1.842	1.645	1.737	1.716	1.662	1.607	1.753	1.521	1.548	1.793	1.707	1.649	1.557	1.528	1.719	1.684	1.608	1.707	1.557	1.607	1.654	1.582	1.610
390.0	260.7	330.9	386.4	376.0	354.4	334.4	318.7	308.3	297.2	301.9	316.6	318.5	312.6	293.5	270.3	243.5	234.1	228.7	217.8	209.2	195.9	184.0	171.7	176.2	206.6	182.5	110.0	80.02	71.89	77.66	153.1	719.0	3117	9999.9	9999.9	1203	22.94	8.346	5.891	4.216	3.262	2.784	2.447	2.328	2.195	2.173	1.779	2.142	2.090	1.712	1.605	1.880	1.854	1.850	1.782	1.722	1.750	1.772	1.673	1.706	1.674	1.577	1.563	1.721	1.656	1.620	1.598	1.536	1.731	1.799	1.613	1.605	1.615	1.647	1.506	1.549	1.563
395.0	265.9	336.8	383.0	368.2	352.7	341.9	319.4	320.8	309.0	302.9	312.3	308.5	307.3	288.4	270.7	248.1	238.7	236.4	230.0	218.2	206.8	196.3	182.6	171.7	172.2	197.2	172.4	101.9	78.03	68.32	74.36	190.9	717.6	2338	7538	9999.9	2172	28.58	8.270	5.630	4.494	3.244	2.687	2.458	2.524	2.184	2.024	2.316	2.108	1.655	1.808	1.990	1.999	1.845	1.805	1.798	1.816	1.789	1.904	1.645	1.654	1.614	1.666	1.777	1.615	1.661	1.681	1.468	1.616	1.768	1.679	1.587	1.670	1.693	1.503	1.623	1.675
400.0	255.5	331.5	378.2	367.9	363.4	349.1	335.0	329.1	310.6	311.9	312.0	307.6	301.8	285.8	269.3	248.4	245.4	238.6	232.7	225.3	213.3	203.8	191.0	177.2	164.7	174.0	200.5	141.0	92.23	72.27	61.85	78.41	186.5	543.1	1963	9273	9999.9	1791	21.04	7.439	5.043	4.013	2.974	2.622	2.611	2.326	2.021	2.367	2.231	1.775	1.737	2.039	2.155	1.916	1.876	1.861	1.857	1.781	1.778	1.745	1.875	1.657	1.668	1.774	1.693	1.654	1.581	1.603	1.582	1.657	1.680	1.647	1.565	1.647	1.594	1.804	1.721
405.0	254.3	316.7	369.8	367.5	356.8	350.6	340.5	342.6	315.7	314.9	318.9	306.4	298.0	283.5	264.2	247.7	243.8	238.7	237.4	228.0	217.9	208.0	196.0	184.0	167.9	161.1	183.2	183.0	113.1	80.64	64.74	57.00	72.24	144.7	458.6	2627	9999.9	9999.9	280.3	13.70	6.307	4.755	3.367	2.901	2.678	2.689	2.022	2.231	2.091	1.778	1.874	1.977	2.033	1.911	1.951	1.868	1.906	1.848	1.846	1.789	1.844	1.667	1.621	1.760	1.736	1.568	1.558	1.590	1.902	1.618	1.453	1.381	1.569	1.696	1.482	1.463	1.748
410.0	258.3	319.1	358.8	368.3	355.5	357.5	346.2	334.0	326.6	320.4	318.3	307.7	291.9	280.3	261.0	245.7	243.6	238.9	232.9	229.2	219.9	211.2	200.1	190.1	175.3	160.1	158.1	176.1	163.2	106.3	75.75	59.94	52.35	59.33	124.2	605.2	2792	8913	9999.9	3269	21.46	6.298	4.395	3.549	3.041	2.888	2.249	2.390	2.146	1.995	1.804	1.995	2.129	1.963	2.005	1.909	1.807	1.991	1.845	1.769	1.843	1.798	1.762	1.789	1.788	1.705	1.640	1.482	1.689	1.659	1.569	1.577	1.518	1.600	1.546	1.699	1.645
415.0	236.5	311.5	361.8	355.4	353.2	349.5	338.8	335.2	328.1	326.7	316.1	307.6	285.3	272.5	257.8	240.3	238.5	233.9	231.1	225.8	217.4	209.5	201.5	191.2	181.3	165.9	153.8	149.9	168.3	154.2	95.25	67.89	53.75	45.47	52.95	154.0	637.2	2054	5605	9999.9	2044	27.43	6.183	4.416	3.498	3.119	2.504	2.360	2.188	1.948	1.668	2.211	2.040	2.004	1.982	1.866	2.081	2.117	1.862	1.795	1.966	1.692	1.792	1.778	1.624	1.631	1.549	1.512	1.718	1.543	1.518	1.670	1.527	1.555	1.616	1.573	1.711
420.0	239.2	303.9	355.8	349.1	345.0	348.4	341.9	330.0	331.2	328.0	319.4	305.3	282.8	263.4	250.4	232.6	230.0	227.6	228.7	220.4	216.4	206.1	202.6	191.2	180.2	167.4	154.6	142.4	148.8	168.3	124.6	77.74	58.35	46.17	39.95	56.21	158.6	472.2	1393	6653	9999.9	1716	20.75	5.948	4.356	3.573	2.765	2.567	2.474	1.978	1.720	2.213	1.937	2.057	2.017	1.727	1.916	2.041	1.793	1.793	1.834	1.838	1.955	1.882	1.660	1.764	1.509	1.722	1.527	1.551	1.488	1.810	1.632	1.472	1.724	1.529	1.652
425.0	231.1	299.0	334.7	328.1	345.7	341.0	334.4	334.7	322.4	320.7	311.4	302.7	283.2	257.2	243.3	231.3	226.2	223.1	223.4	215.2	212.4	206.4	201.7	192.2	180.1	169.0	159.0	144.6	136.8	151.2	151.0	96.72	64.95	49.59	40.44	36.70	53.92	120.4	324.5	1773	7985	9655	277.4	13.92	5.306	4.594	2.929	3.006	2.463	2.078	1.753	2.223	2.066	2.246	1.993	1.732	2.046	1.910	1.742	1.864	1.912	1.915	1.728	1.997	1.702	1.684	1.476	1.608	1.562	1.386	1.424	1.540	1.492	1.397	1.569	1.464	1.573
430.0	394.4	292.9	321.3	328.0	336.3	330.3	338.5	328.8	324.5	322.1	309.6	298.5	275.1	253.6	235.7	222.3	217.3	216.8	214.6	211.4	207.6	203.1	197.0	190.6	179.9	170.0	160.6	148.2	137.8	132.7	139.7	128.0	85.17	57.90	44.83	35.97	34.11	44.70	86.34	408.0	2080	6347	8209	3101	20.45	6.470	3.895	3.503	2.805	2.104	1.999	2.219	2.134	2.136	2.020	1.866	1.924	1.952	1.800	2.009	1.883	1.751	1.850	1.733	1.800	1.750	1.538	1.550	1.416	1.484	1.554	1.397	1.381	1.484	1.537	1.457	1.483
435.0	933.3	292.5	314.2	320.8	337.3	320.6	334.9	325.7	326.2	323.7	306.2	296.2	265.5	247.9	226.6	213.8	211.2	206.8	205.0	200.8	201.1	198.4	193.1	187.2	179.3	170.6	159.5	151.8	141.6	131.4	122.9	126.8	115.1	73.36	50.30	39.28	33.57	30.78	35.07	103.8	474.2	1443	3995	9999.9	2017	27.96	5.994	4.279	3.649	2.485	2.264	2.225	2.281	2.175	2.155	1.946	2.014	2.040	2.005	2.045	1.821	1.892	1.902	1.719	1.801	1.619	1.573	1.598	1.347	1.499	1.643	1.344	1.489	1.489	1.499	1.404	1.460
440.0	1445	479.5	317.7	323.2	322.2	312.9	321.5	320.3	325.6	316.1	300.1	290.0	264.6	244.7	220.6	205.8	204.3	202.3	200.5	195.8	194.6	190.0	187.9	183.0	176.9	168.8	158.3	151.6	143.6	132.3	120.3	113.0	122.4	93.66	57.76	43.81	35.19	28.94	26.03	37.18	117.6	332.3	969.3	5671	9999.9	1786	20.00	5.946	4.165	2.903	2.385	2.432	2.366	2.238	2.118	2.048	1.950	2.019	1.999	1.983	1.719	1.898	1.869	1.791	1.805	1.852	1.650	1.636	1.591	1.326	1.489	1.336	1.540	1.408	1.474	1.378	1.463
445.0	1457	1024	316.4	305.9	314.8	316.8	310.6	319.3	317.4	315.7	301.1	288.9	262.5	237.4	214.7	201.8	195.6	196.3	194.9	191.9	187.4	184.7	185.1	179.9	173.6	164.8	158.5	151.7	143.5	132.5	120.1	106.1	108.0	106.3	72.32	48.82	37.63	30.60	25.12	23.98	39.02	84.77	227.3	1460	7347	9999.9	1215	17.28	5.186	3.313	2.818	2.664	2.521	2.141	2.186	2.015	1.994	2.093	2.001	2.005	1.875	1.924	1.842	1.841	1.724	1.775	1.638	1.627	1.463	1.269	1.397	1.423	1.494	1.403	1.370	1.400	1.356
450.0	817.9	1969	656.6	300.8	300.2	303.0	296.9	312.1	306.1	306.0	295.1	279.8	249.0	228.3	205.6	194.1	185.7	183.6	180.1	179.4	176.3	174.5	173.3	169.4	167.1	158.5	153.0	146.6	141.0	130.8	118.9	103.8	94.60	95.44	88.50	60.17	42.15	33.85	27.27	23.08	23.27	31.18	61.16	335.3	1867	6183	7950	3393	19.18	4.810	3.411	3.290	2.774	2.429	2.306	2.027	2.237	2.099	2.043	1.958	2.040	1.853	1.775	1.776	1.783	1.726	1.527	1.606	1.516	1.479	1.516	1.305	1.327	1.374	1.303	1.364	1.379
455.0	336.6	1752	1850	331.6	277.1	282.6	280.0	290.2	295.1	292.9	278.5	258.2	239.1	222.4	194.1	181.4	173.8	169.7	165.9	163.8	162.7	161.4	161.6	160.7	156.3	151.6	146.5	138.9	135.2	128.3	115.8	103.4	90.12	80.49	82.19	76.44	51.40	36.14	29.29	24.61	20.56	19.89	24.38	84.55	424.6	1399	3231	9158	1743	22.19	5.040	3.824	3.207	2.775	2.380	2.272	2.150	2.234	2.036	1.903	1.929	1.872	1.801	1.788	1.599	1.661	1.484	1.501	1.473	1.624	1.389	1.266	1.245	1.243	1.310	1.349	1.206
460.0	211.4	969.6	2743	647.7	269.8	263.3	269.1	277.5	278.0	276.1	269.5	250.3	228.6	206.4	185.3	172.3	163.7	155.6	156.0	152.8	152.5	151.7	149.9	151.6	148.5	144.3	138.5	135.1	131.2	123.4	115.0	100.7	87.97	77.08	71.70	76.29	63.37	40.56	30.94	25.63	21.17	18.51	17.12	29.01	103.9	320.6	759.7	4433	9339	1397	18.54	5.614	3.676	2.965	2.597	2.305	2.277	2.248	2.012	1.883	2.027	1.819	1.658	1.734	1.662	1.565	1.475	1.573	1.426	1.561	1.377	1.231	1.219	1.184	1.211	1.213	1.243
465.0	189.0	439.3	2592	1585	261.2	256.6	249.7	266.6	262.4	269.6	256.0	241.2	217.4	193.6	174.1	161.4	153.5	148.6	144.1	142.0	142.3	141.2	142.8	140.8	138.3	134.7	129.4	129.0	125.2	118.4	112.0	97.47	84.58	73.38	66.33	65.54	68.37	47.71	33.03	26.59	22.22	18.34	15.76	17.27	32.48	80.93	177.8	1089	6099	7187	1176	17.37	4.890	3.573	2.861	2.406	2.433	2.176	2.222	1.689	1.990	1.794	1.615	1.755	1.637	1.630	1.449	1.451	1.300	1.440	1.228	1.297	1.374	1.248	1.185	1.235	1.127
470.0	188.5	243.2	1255	2721	536.1	237.2	231.4	244.0	246.5	247.5	234.9	223.5	198.7	179.9	161.6	148.5	140.6	135.5	131.0	129.1	129.6	127.8	128.2	126.1	124.9	121.8	119.5	117.5	114.3	110.1	102.9	91.64	80.68	69.54	61.56	56.11	57.49	55.30	39.70	28.19	22.52	19.05	16.11	14.91	17.06	26.69	47.31	250.3	1510	3943	5621	2758	92.85	5.504	3.450	2.947	2.598	2.341	2.099	1.923	1.883	1.782	1.739	1.668	1.670	1.513	1.464	1.327	1.292	1.231	1.201	1.222	1.223	1.094	1.108	1.075	1.088
475.0	188.0	191.1	453.2	2122	2097	277.7	212.3	218.5	223.6	223.5	219.0	204.7	182.0	165.8	144.5	132.2	124.5	121.6	117.1	115.9	115.0	114.9	114.0	112.6	113.1	108.4	108.0	105.4	104.3	100.6	93.84	85.06	74.81	66.06	58.32	50.58	46.97	48.60	46.92	33.33	23.34	19.14	16.32	14.51	14.01	14.63	17.60	62.54	342.0	886.5	1890	5736	1796	28.04	4.932	3.240	2.761	2.727	2.203	1.852	1.689	1.743	1.608	1.631	1.644	1.388	1.369	1.263	1.245	1.125	1.095	1.139	1.118	0.949	1.076	0.852	0.997
480.0	166.9	189.7	236.3	1043	3011	533.0	199.1	208.0	208.5	211.4	209.9	192.8	172.9	154.7	136.8	124.6	117.3	113.0	110.5	107.3	106.2	105.4	105.1	104.2	105.0	101.7	100.4	99.43	99.57	95.20	88.33	79.72	71.30	64.07	56.25	48.47	42.82	41.35	45.10	38.77	25.63	19.80	16.42	14.27	13.02	12.37	11.31	20.44	82.06	202.7	435.4	2350	6364	1699	23.73	4.360	3.611	2.983	2.196	1.933	1.826	1.726	1.517	1.551	1.720	1.494	1.284	1.226	1.227	1.094	1.165	0.958	0.957	0.904	0.933	0.892	1.025
485.0	153.4	206.8	188.3	422.5	2649	1679	209.0	197.4	201.0	202.5	200.8	183.5	165.6	148.1	132.6	119.1	110.8	106.5	101.9	99.83	99.28	99.67	99.30	96.47	96.84	96.09	93.36	92.74	91.96	90.23	84.31	75.91	68.56	60.69	54.03	47.43	42.33	36.96	38.03	41.54	31.11	20.98	17.31	14.64	13.38	11.98	10.46	11.32	24.29	50.32	102.0	557.7	3469	6610	1437	18.17	3.942	3.467	2.176	2.238	1.883	1.899	1.604	1.560	1.505	1.482	1.245	1.155	1.073	1.181	1.110	1.004	1.060	0.977	1.002	0.964	1.057
490.0	124.2	197.7	192.2	222.2	1219	2890	684.3	181.4	188.4	189.1	182.5	173.6	153.3	137.4	122.2	109.2	101.8	98.65	95.31	92.01	89.54	90.64	90.15	88.79	88.86	87.84	87.04	86.28	85.25	82.94	78.83	71.93	65.00	57.35	51.29	45.71	40.12	35.77	32.60	35.49	35.66	25.91	18.24	15.43	13.61	12.07	10.30	9.795	11.32	16.27	27.40	129.4	827.2	3000	5271	2830	121.7	7.214	3.076	2.552	2.169	1.882	1.593	1.618	1.511	1.346	1.155	1.111	1.088	1.021	0.947	0.996	0.979	0.940	0.930	0.818	0.915
495.0	93.99	150.2	202.7	170.1	396.3	2139	2196	221.7	173.1	173.7	172.9	159.2	141.3	124.3	112.5	101.3	93.87	87.92	85.61	83.99	82.35	81.03	82.06	80.65	79.68	79.95	78.33	78.60	78.36	75.30	72.47	66.47	60.06	52.77	48.92	42.96	38.11	34.46	29.85	29.23	30.93	30.72	22.42	15.89	13.63	11.97	10.66	9.356	8.973	8.795	10.69	33.52	188.5	673.5	1700	5260	4330	198.9	5.427	3.019	2.286	1.884	1.763	1.678	1.466	1.215	1.216	1.185	1.120	1.046	1.000	0.939	0.814	0.851	0.870	0.779	0.837
500.0	88.37	128.3	214.7	158.2	197.8	1010	3139	403.3	164.4	160.9	158.4	146.3	133.3	115.2	101.3	92.94	83.74	81.07	78.32	77.36	75.66	73.89	74.33	73.80	73.60	73.11	72.52	71.35	71.98	70.98	67.28	62.59	57.23	50.65	45.01	40.47	35.67	31.99	28.55	25.77	25.81	29.18	26.23	17.73	13.81	12.00	10.66	9.490	8.347	7.385	6.834	11.85	46.01	154.2	389.1	2002	6197	2013	30.56	4.117	2.700	1.956	1.767	1.626	1.491	1.253	1.108	1.177	1.057	0.971	1.042	0.921	0.785	0.793	0.810	0.764	0.765
505.0	81.62	104.9	186.0	169.8	143.1	384.3	2820	1573	160.6	146.6	148.4	135.0	126.2	106.9	95.31	85.81	80.06	75.49	71.34	71.09	68.43	67.44	67.24	68.16	68.88	66.53	64.94	66.56	66.27	65.17	62.89	58.17	53.43	46.55	42.30	38.49	33.98	30.76	27.17	24.43	22.38	24.86	27.27	20.92	14.41	11.91	10.69	9.118	8.150	7.374	6.188	6.979	14.29	38.29	91.15	467.1	2821	6224	1692	24.08	3.328	2.146	2.016	1.767	1.576	1.284	1.062	1.163	0.978	1.090	0.935	0.862	0.920	0.756	0.748	0.758	0.700
510.0	79.27	91.65	135.2	177.8	128.9	176.7	1264	2970	589.6	132.8	133.5	123.8	111.1	96.79	85.90	77.91	70.37	67.68	63.18	61.73	61.27	60.64	60.33	59.41	59.44	59.05	58.49	58.53	59.25	57.92	55.93	51.96	47.26	42.17	38.35	34.93	30.91	28.08	25.27	22.64	20.17	19.76	22.37	22.82	17.21	12.43	10.31	9.113	7.890	7.010	6.292	5.805	6.947	12.01	23.86	107.8	659.9	2540	4294	2809	118.2	4.476	2.290	1.914	1.560	1.288	1.228	1.113	0.898	1.002	0.837	0.792	0.811	0.707	0.671	0.690	0.689
515.0	69.73	85.85	98.55	158.5	139.8	126.4	375.3	2397	2193	163.9	116.7	112.3	98.06	87.74	79.38	69.83	64.36	59.20	56.77	54.83	53.52	53.39	51.75	51.96	51.93	52.13	51.91	51.90	51.98	52.68	49.23	46.92	41.26	37.69	34.47	31.94	28.17	25.93	22.91	20.52	17.97	17.23	17.13	19.60	19.73	14.38	10.06	9.106	7.824	6.578	5.946	5.682	5.346	6.191	8.555	27.14	150.1	569.7	1264	4059	2052	33.14	3.808	2.431	1.703	1.278	1.258	1.029	0.888	0.908	0.776	0.788	0.776	0.595	0.677	0.589	0.612
520.0	68.40	71.64	90.34	125.9	153.1	105.3	161.8	1136	3522	300.9	109.6	102.4	91.33	81.50	72.04	62.25	58.53	52.78	51.65	49.98	48.87	48.05	47.58	46.96	47.25	47.05	46.33	46.68	45.58	46.77	44.66	41.99	37.61	35.16	32.27	29.49	26.55	23.99	22.29	19.15	17.13	15.95	15.05	16.20	19.21	16.82	10.69	8.855	7.609	6.450	5.658	5.590	5.280	4.623	4.990	8.992	36.56	130.1	287.8	1476	4163	1834	27.90	3.198	2.204	1.391	1.289	1.224	0.902	0.907	0.787	0.657	0.661	0.666	0.569	0.505	0.570
525.0	55.12	63.11	74.81	95.64	160.4	108.0	105.0	395.4	3457	1525	106.2	94.65	83.04	74.67	68.17	57.93	53.32	48.32	46.36	44.12	44.18	43.80	43.35	42.08	42.63	42.47	41.94	41.52	42.33	43.07	40.88	38.03	34.78	32.14	29.24	26.82	24.35	22.37	20.54	17.98	16.08	14.92	13.82	13.36	15.80	17.31	12.45	8.948	7.188	6.073	5.639	5.089	4.993	4.607	3.867	4.877	10.96	31.87	67.27	342.7	1910	4140	1433	21.22	2.897	1.642	1.417	1.222	0.890	0.886	0.767	0.751	0.730	0.725	0.551	0.566	0.561
530.0	53.49	60.25	65.82	77.28	125.8	123.8	86.66	158.4	1599	3366	500.4	85.79	75.96	67.66	58.87	51.73	47.16	43.48	41.36	39.35	38.87	38.06	37.29	37.40	37.20	37.04	36.94	36.80	37.05	37.55	35.19	33.56	30.85	28.26	25.95	23.91	21.62	19.91	18.21	16.36	14.36	13.51	12.89	11.78	12.18	14.35	13.79	10.23	7.070	5.874	5.211	4.915	4.544	4.308	3.917	3.874	5.131	9.560	17.51	78.93	446.1	1676	3020	1840	118.8	3.658	1.662	1.223	0.962	0.875	0.789	0.738	0.648	0.658	0.567	0.539	0.515
535.0	42.33	52.86	59.03	65.76	84.31	130.5	83.62	95.52	437.9	2907	1888	101.8	67.00	60.05	49.38	45.76	41.11	40.09	35.61	34.79	34.22	32.99	31.06	32.98	31.91	32.00	31.50	32.22	31.81	32.23	30.40	28.97	26.49	25.27	22.29	20.29	18.84	17.89	16.04	14.89	12.72	12.44	11.35	10.67	10.25	10.60	12.29	11.59	7.660	5.574	5.155	4.608	4.134	3.990	3.743	3.440	3.542	4.265	6.117	19.73	101.2	375.9	873.2	3066	2106	33.68	2.801	1.542	1.007	0.891	0.717	0.690	0.585	0.735	0.548	0.570	0.497
540.0	44.15	52.67	54.49	52.28	62.46	116.4	95.22	71.88	151.7	1392	3737	217.3	61.58	53.47	45.28	41.03	37.24	35.26	31.76	31.41	29.25	28.91	28.31	29.20	28.21	28.07	27.88	29.02	28.78	28.65	27.40	25.81	23.39	22.20	19.66	18.34	16.88	15.63	14.45	13.04	11.86	10.86	10.41	9.337	9.095	8.673	9.749	11.04	8.918	5.909	4.756	4.304	3.640	3.590	3.718	3.438	3.444	3.036	3.154	6.209	24.36	85.70	198.5	1101	3806	1706	28.04	1.976	1.223	1.004	0.876	0.685	0.632	0.727	0.544	0.492	0.483
545.0	40.19	49.19	48.14	48.82	53.04	84.53	111.7	61.78	81.56	456.2	3835	1200	57.89	47.09	41.52	36.03	33.63	31.49	28.89	27.74	26.16	26.43	25.20	25.68	24.75	25.42	24.37	25.21	25.30	25.68	23.50	23.24	20.90	19.19	17.78	16.53	15.34	13.91	12.89	12.07	10.94	9.970	9.241	8.827	8.010	7.533	7.733	9.177	9.361	6.513	4.628	3.970	3.752	3.248	3.190	3.375	3.070	2.675	2.548	3.000	6.993	20.79	46.20	254.9	1677	3110	1157	19.96	1.807	1.169	0.929	0.753	0.643	0.567	0.569	0.518	0.483
550.0	33.95	38.28	43.14	41.33	43.47	56.03	105.8	70.16	57.54	146.0	1776	3204	294.2	41.22	36.81	31.45	28.65	26.10	24.93	23.63	22.53	22.68	21.85	21.45	20.72	20.98	21.12	21.35	21.02	21.29	20.23	19.35	17.65	16.31	14.66	14.14	13.01	12.04	11.12	10.28	9.440	8.514	7.949	7.601	7.001	6.771	6.292	6.645	7.855	7.167	5.113	3.690	3.344	2.954	2.696	2.748	2.835	2.749	2.269	2.220	2.995	6.058	11.74	58.64	389.6	1193	2040	1140	113.2	3.007	1.098	0.817	0.733	0.571	0.528	0.493	0.457
555.0	30.96	33.62	37.56	30.94	35.49	37.43	72.03	90.15	46.25	67.23	456.8	3124	1354	45.39	30.05	27.41	23.89	21.43	21.99	19.33	18.71	18.46	17.85	17.64	17.55	16.71	17.43	17.39	17.62	18.04	16.95	15.89	14.45	13.67	12.01	11.52	10.79	10.33	9.740	8.618	8.167	7.606	6.725	6.091	6.241	5.638	5.130	4.768	5.450	6.127	5.690	4.018	2.855	2.815	2.422	2.382	2.292	2.464	2.269	1.676	1.916	2.464	3.827	14.39	88.12	267.3	566.4	1698	1581	34.62	2.279	0.955	0.822	0.621	0.525	0.510	0.406
560.0	26.12	28.12	31.28	26.39	28.22	34.09	48.39	97.27	47.36	45.93	134.7	1573	3178	129.4	27.19	23.78	21.42	19.55	18.37	16.51	16.15	15.17	15.50	15.74	15.60	13.98	14.65	14.71	14.90	15.01	14.40	13.74	12.76	11.72	10.57	9.948	9.367	8.517	7.971	7.180	6.931	6.289	5.940	5.610	5.226	4.862	4.424	4.142	4.350	4.996	5.566	4.507	2.765	2.421	2.171	2.105	1.974	2.049	2.150	1.893	1.577	1.499	1.975	4.546	21.01	60.83	128.4	585.8	1876	1163	27.92	1.403	0.884	0.805	0.473	0.496	0.382
565.0	27.12	31.27	29.35	28.44	24.84	28.76	31.46	81.99	60.02	36.96	60.42	506.5	3660	763.3	24.54	20.24	18.81	16.32	15.59	14.33	14.11	13.23	12.94	12.87	12.71	12.53	12.51	12.80	12.92	12.88	12.22	11.57	10.89	10.41	9.089	8.529	8.207	7.667	7.000	6.058	5.646	5.695	5.307	4.869	4.499	4.199	4.035	3.803	3.464	3.562	4.449	4.483	2.869	2.266	2.003	1.895	1.694	1.781	1.705	1.790	1.546	1.381	1.385	1.925	5.776	14.55	29.88	134.6	740.4	1805	811.0	19.44	1.162	0.719	0.503	0.566	0.396
570.0	30.34	37.06	33.16	29.40	26.15	23.89	26.23	53.07	79.39	37.89	41.75	146.6	1896	2540	88.85	17.82	16.38	14.00	12.84	11.84	11.71	11.79	10.70	10.82	10.38	10.48	10.49	10.40	10.60	10.28	10.08	9.360	8.985	8.047	7.562	7.295	6.746	6.420	5.840	5.284	5.014	4.731	4.515	4.010	3.974	3.557	3.331	3.182	2.877	2.706	2.992	3.740	3.114	2.386	1.811	1.684	1.564	1.525	1.410	1.591	1.567	1.331	1.261	1.293	2.231	4.065	7.570	30.88	171.2	662.5	1275	745.1	100.7	2.105	0.677	0.554	0.336
575.0	46.13	42.92	40.94	31.16	22.89	22.05	21.87	32.16	79.46	54.97	38.98	61.75	496.5	2872	895.6	19.28	14.08	11.81	11.07	9.796	10.01	9.490	9.434	8.808	8.332	8.904	8.705	8.550	8.486	8.592	7.906	7.753	7.712	6.582	6.436	5.985	5.311	5.242	4.687	4.378	4.003	3.972	3.633	3.240	3.600	3.081	2.989	2.699	2.613	2.126	2.277	2.654	3.051	2.809	1.829	1.407	1.434	1.299	1.287	1.299	1.409	1.395	1.225	1.136	1.312	1.613	2.512	7.676	39.01	148.4	342.6	971.0	1030	33.85	1.368	0.619	0.405
580.0	34.21	44.43	48.26	34.39	23.21	18.79	19.81	26.34	59.90	74.80	38.77	46.27	144.8	1591	2445	67.96	12.51	10.64	9.100	9.312	8.321	7.979	8.035	7.371	7.287	7.411	7.277	7.247	7.204	7.202	7.086	7.025	6.704	5.688	5.445	4.963	4.636	4.490	4.273	3.764	3.488	3.401	2.927	2.798	2.815	2.684	2.538	2.551	2.146	2.040	1.877	1.991	2.345	2.707	2.300	1.395	1.308	1.321	1.059	1.144	1.170	1.141	1.293	1.129	1.236	1.060	1.272	2.443	9.481	33.90	77.78	321.3	1157	762.3	26.24	0.921	0.521
585.0	33.22	46.10	49.17	32.82	22.81	18.40	19.74	23.75	45.03	84.47	49.17	44.23	63.89	531.5	3076	428.8	11.77	9.610	8.647	8.173	7.335	7.131	6.985	7.266	6.347	6.310	6.335	6.152	6.343	5.949	6.262	5.902	5.268	5.001	4.802	4.309	3.931	3.865	3.656	3.246	3.029	2.959	2.730	2.695	2.404	2.416	2.120	2.160	1.895	1.773	1.638	1.583	1.843	2.569	2.247	1.604	1.130	1.247	1.007	0.868	0.939	0.936	1.244	1.218	0.921	0.833	0.940	1.193	2.783	8.270	18.02	73.79	438.3	1103	285.3	17.60	0.728
590.0	38.19	48.93	53.67	35.64	21.00	16.67	17.29	18.91	31.57	71.47	66.92	44.57	45.03	145.7	1685	1847	51.98	8.871	7.452	6.977	6.431	6.251	5.827	5.947	5.300	5.166	5.453	5.139	5.140	5.425	5.287	4.585	4.364	4.085	4.114	3.490	3.411	3.308	3.057	2.664	2.613	2.316	2.309	2.327	2.140	2.101	1.937	1.923	1.719	1.528	1.418	1.322	1.396	1.772	1.970	1.754	1.179	1.047	0.871	0.847	0.827	0.817	0.872	1.079	1.029	0.789	0.825	0.870	1.242	2.440	4.651	17.08	100.5	384.3	678.3	510.1	23.42
595.0	39.08	50.78	54.74	33.56	20.04	15.50	15.51	17.92	25.79	48.41	84.66	48.66	42.78	53.13	436.3	2364	577.1	8.899	6.677	6.216	5.842	4.937	5.184	4.945	4.622	4.057	4.543	4.558	4.307	4.267	4.135	4.193	3.463	3.463	3.288	3.065	2.759	2.643	2.676	2.248	2.080	1.871	2.057	1.807	1.780	1.884	1.660	1.572	1.416	1.189	1.215	1.077	1.103	1.205	1.547	1.648	1.328	0.973	0.775	0.776	0.682	0.769	0.796	0.777	1.021	0.847	0.718	0.786	0.732	1.033	1.585	4.316	22.76	86.04	178.0	568.7	628.5
600.0	38.84	49.26	57.46	37.96	20.95	15.10	14.37	17.83	21.06	36.52	86.67	55.77	41.26	31.57	111.5	1451	1699	27.76	6.152	5.878	4.906	4.353	4.471	4.293	4.255	3.618	3.567	3.855	3.807	3.597	3.535	3.496	3.505	2.919	2.695	2.737	2.308	2.315	2.126	2.076	1.898	1.713	1.602	1.553	1.619	1.539	1.499	1.389	1.392	1.070	1.015	0.944	0.996	0.995	1.133	1.415	1.340	1.022	0.807	0.648	0.710	0.652	0.719	0.666	0.810	0.863	0.771	0.711	0.649	0.692	0.761	1.361	5.399	19.55	40.21	178.8	658.4
605.0	42.43	49.73	43.31	35.80	18.89	14.92	13.32	19.82	20.88	30.84	69.19	69.88	40.31	26.26	35.48	515.5	2430	89.36	5.985	5.180	4.387	3.501	4.030	3.993	3.438	3.536	3.260	3.147	3.350	3.192	2.942	2.927	2.896	2.612	2.413	2.327	2.288	2.064	1.899	1.801	1.492	1.531	1.531	1.504	1.422	1.391	1.152	1.348	1.173	0.995	0.984	0.752	0.868	0.776	0.844	1.137	1.396	1.177	0.797	0.598	0.654	0.538	0.662	0.674	0.691	0.771	0.853	0.668	0.571	0.519	0.572	0.621	1.559	4.709	9.339	40.93	238.9
610.0	35.14	48.75	48.31	33.03	18.23	13.70	12.54	15.45	21.85	29.91	50.21	75.30	44.26	24.22	18.84	129.6	1556	1067	28.30	4.843	3.898	3.495	3.656	3.343	2.881	2.785	2.736	2.748	2.675	2.595	2.632	2.491	2.271	2.250	2.082	1.955	1.949	1.654	1.584	1.466	1.291	1.222	1.378	1.184	1.160	1.240	1.093	1.093	0.971	0.900	0.857	0.692	0.698	0.698	0.645	0.758	1.084	1.077	0.930	0.652	0.659	0.518	0.530	0.574	0.622	0.663	0.725	0.706	0.562	0.444	0.516	0.523	0.652	1.365	2.352	9.463	54.47
615.0	33.14	45.17	46.58	31.82	18.81	13.35	11.63	14.24	18.60	26.99	36.64	65.84	55.97	23.02	14.82	35.34	422.7	1734	338.0	4.924	3.589	3.382	2.959	2.704	2.598	2.335	2.255	2.304	2.178	2.177	2.173	2.137	1.861	1.670	1.678	1.562	1.671	1.383	1.371	1.256	1.123	1.011	1.118	1.035	1.028	1.064	1.016	0.906	0.930	0.779	0.663	0.683	0.639	0.764	0.589	0.579	0.729	0.937	0.987	0.727	0.488	0.457	0.466	0.470	0.567	0.550	0.427	0.559	0.658	0.395	0.432	0.370	0.454	0.516	0.798	2.339	12.47
620.0	34.66	39.84	43.11	34.03	17.14	11.70	13.08	12.62	18.27	25.06	33.65	50.71	61.19	23.56	13.48	14.35	103.5	1199	1058	12.55	3.467	3.182	2.825	2.762	2.142	2.152	2.016	2.077	1.879	2.196	1.898	1.922	1.664	1.543	1.686	1.395	1.298	1.142	1.253	1.054	1.100	0.894	0.982	1.008	0.924	0.910	0.915	0.834	0.823	0.729	0.622	0.584	0.500	0.567	0.538	0.598	0.496	0.578	0.842	0.706	0.457	0.500	0.443	0.440	0.531	0.440	0.413	0.490	0.716	0.559	0.397	0.232	0.289	0.382	0.413	0.741	3.107
625.0	34.21	38.21	34.74	32.54	16.99	11.59	11.96	12.18	17.70	24.37	32.22	42.17	62.19	27.73	13.18	9.227	28.07	464.0	1694	64.33	3.678	2.800	2.614	2.279	2.031	2.023	1.985	1.981	1.809	1.876	1.607	1.697	1.577	1.336	1.337	1.408	1.172	1.152	1.192	0.959	0.983	0.848	0.939	0.834	0.793	0.814	0.852	0.804	0.744	0.648	0.595	0.655	0.452	0.482	0.484	0.442	0.431	0.500	0.695	0.660	0.568	0.416	0.408	0.417	0.498	0.423	0.376	0.421	0.541	0.569	0.381	0.243	0.300	0.273	0.235	0.374	0.945
630.0	29.00	35.07	34.62	28.60	16.05	11.19	11.13	12.19	17.32	22.92	29.71	34.89	49.76	36.44	12.71	7.990	10.59	115.7	1191	810.2	14.60	2.878	2.510	2.136	2.063	1.775	1.746	1.709	1.669	1.633	1.445	1.456	1.314	1.173	1.234	1.214	0.988	1.121	1.074	0.831	0.835	0.793	0.714	0.738	0.599	0.801	0.686	0.724	0.695	0.560	0.517	0.502	0.392	0.416	0.438	0.434	0.390	0.418	0.545	0.662	0.580	0.438	0.403	0.383	0.429	0.386	0.353	0.349	0.431	0.539	0.436	0.367	0.268	0.215	0.267	0.230	0.395
635.0	25.54	28.94	35.11	24.13	16.02	10.51	9.511	12.88	15.70	20.28	28.46	31.23	34.81	42.05	15.37	7.143	5.961	29.71	339.3	1448	69.86	3.216	2.391	2.107	1.914	1.515	1.437	1.650	1.781	1.534	1.432	1.084	1.273	1.000	1.035	1.008	0.964	0.931	0.787	0.706	0.687	0.713	0.602	0.706	0.585	0.679	0.557	0.625	0.575	0.520	0.537	0.488	0.380	0.412	0.422	0.450	0.304	0.404	0.387	0.410	0.447	0.479	0.423	0.491	0.359	0.339	0.417	0.374	0.335	0.368	0.413	0.342	0.354	0.202	0.179	0.194	0.299
640.0	24.87	34.00	31.52	19.85	14.46	8.973	9.921	10.96	16.13	19.05	26.65	29.70	29.86	37.27	21.38	7.117	5.142	9.784	82.99	1096	525.1	6.856	2.435	2.244	1.633	1.481	1.371	1.394	1.431	1.300	1.396	1.155	1.038	0.965	0.934	0.913	0.979	0.884	0.725	0.703	0.560	0.670	0.609	0.540	0.508	0.648	0.558	0.564	0.498	0.461	0.450	0.489	0.375	0.411	0.396	0.362	0.357	0.321	0.329	0.325	0.388	0.436	0.404	0.360	0.308	0.320	0.401	0.282	0.261	0.384	0.302	0.367	0.280	0.239	0.194	0.200	0.180
645.0	25.21	30.99	28.05	22.01	12.39	9.074	10.36	10.21	14.70	18.51	23.20	27.34	26.45	29.42	26.93	8.093	5.113	5.276	21.69	465.7	1205	47.52	2.412	2.026	1.814	1.499	1.348	1.356	1.161	1.106	1.272	1.031	0.958	1.082	0.931	0.823	0.806	0.779	0.723	0.666	0.613	0.614	0.622	0.502	0.459	0.507	0.482	0.552	0.497	0.356	0.420	0.416	0.382	0.385	0.408	0.302	0.287	0.393	0.337	0.278	0.405	0.365	0.377	0.352	0.299	0.332	0.286	0.326	0.288	0.281	0.295	0.273	0.291	0.310	0.219	0.159	0.123
650.0	25.46	25.30	28.42	23.12	13.71	9.342	10.44	10.39	14.26	18.71	23.21	25.05	24.22	22.61	28.45	9.552	4.629	4.270	7.420	127.5	1223	345.4	2.962	2.072	1.645	1.487	1.243	1.214	1.197	1.184	1.181	0.864	0.870	0.836	0.833	0.737	0.756	0.753	0.757	0.653	0.608	0.501	0.643	0.566	0.428	0.505	0.457	0.540	0.481	0.387	0.386	0.327	0.333	0.404	0.342	0.314	0.308	0.329	0.297	0.311	0.330	0.286	0.351	0.304	0.296	0.269	0.276	0.257	0.220	0.246	0.314	0.243	0.251	0.283	0.308	0.210	0.216
