Sample:	'1
File name:	g2025082506乐安大街西北排口.FD3
Run date:	'10:24:12, 08/26/2025
Operator:	Administrator
Comment:	'

Instrument
Model:	F-2700 FL Spectrophotometer
Serial number:	23B8-004
ROM Version:	4J14000 07

Instrument parameters
Measurement type:	3-D scan
Data mode:	Fluorescence
EX  Start WL:	220.0 nm
EX  End WL:	600.0 nm
EX Sampling interval:	5.0 nm
EM  Start WL:	230.0 nm
EM  End WL:	650.0 nm
EM Sampling interval:	5.0 nm
Scan speed:	12000 nm/min
EX Slit:	5.0 nm
EM Slit:	5.0 nm
PMT Voltage:	700 V
Response:	Auto 
Corrected spectra:	Off
Contour interval:	50.000

Peak integration
Integration method:	Rectangular
Sensitivity:	1
Threshold:	1.000

Peaks
No.	ApexEX/EM(nm)	Height(Data)
1	225.0/305.0	4199
2	225.0/585.0	328.8
3	270.0/600.0	415.1
4	275.0/340.0	8585
5	275.0/610.0	406.6
6	455.0/335.0	13.31
7	560.0/340.0	35.45

Data points
	220.0	225.0	230.0	235.0	240.0	245.0	250.0	255.0	260.0	265.0	270.0	275.0	280.0	285.0	290.0	295.0	300.0	305.0	310.0	315.0	320.0	325.0	330.0	335.0	340.0	345.0	350.0	355.0	360.0	365.0	370.0	375.0	380.0	385.0	390.0	395.0	400.0	405.0	410.0	415.0	420.0	425.0	430.0	435.0	440.0	445.0	450.0	455.0	460.0	465.0	470.0	475.0	480.0	485.0	490.0	495.0	500.0	505.0	510.0	515.0	520.0	525.0	530.0	535.0	540.0	545.0	550.0	555.0	560.0	565.0	570.0	575.0	580.0	585.0	590.0	595.0	600.0
230.0	50.14	1943	5743	2162	96.27	13.71	11.55	11.56	11.56	12.39	11.90	11.65	10.96	9.797	7.856	6.739	5.902	5.604	5.187	4.820	4.269	3.857	3.565	3.170	2.947	2.690	2.537	2.313	2.331	2.035	1.984	2.099	1.882	1.788	1.558	1.439	1.252	1.042	0.981	0.946	0.861	0.886	0.932	0.825	0.745	0.704	2.194	11.56	23.31	20.21	9.456	2.029	0.564	0.468	0.453	0.391	0.426	0.414	0.399	0.394	0.377	0.339	0.339	0.364	0.334	0.320	0.313	0.296	0.299	0.312	0.302	0.287	0.277	0.250	0.263	0.243	0.252
235.0	89.38	513.8	3174	6625	3120	203.8	16.39	14.36	14.07	13.38	14.16	14.45	11.58	10.55	8.827	6.690	6.275	5.981	5.544	4.829	4.346	3.780	3.902	3.487	3.089	3.041	2.607	2.503	2.369	2.223	2.178	1.881	1.914	1.750	1.412	1.350	1.177	1.154	1.053	0.925	0.896	0.996	0.846	0.965	0.836	0.765	1.002	3.210	7.734	15.21	26.43	26.46	17.73	5.183	0.677	0.512	0.560	0.469	0.368	0.420	0.395	0.319	0.393	0.364	0.437	0.419	0.357	0.336	0.313	0.295	0.372	0.322	0.289	0.272	0.292	0.270	0.237
240.0	97.95	172.9	865.5	5211	9417	2887	145.5	21.66	16.17	15.43	15.38	14.95	12.42	11.68	8.556	7.378	6.713	6.174	5.318	4.981	4.259	4.192	3.750	3.483	3.358	3.150	2.487	2.775	2.519	1.984	2.203	1.826	1.773	1.838	1.643	1.499	1.278	1.262	1.075	0.934	0.866	0.808	0.775	0.887	0.850	0.851	0.956	1.228	2.211	4.197	11.71	31.31	49.66	28.99	17.79	4.009	0.603	0.399	0.515	0.496	0.409	0.371	0.452	0.353	0.399	0.371	0.465	0.318	0.346	0.251	0.332	0.328	0.394	0.296	0.303	0.268	0.243
245.0	90.50	147.6	251.8	1621	9239	9999.9	2354	77.04	22.71	19.05	18.62	16.24	13.24	11.74	8.736	8.794	7.345	6.923	5.973	4.988	4.464	4.220	3.846	3.729	3.458	2.998	2.852	2.764	2.662	2.234	2.171	2.017	1.668	1.747	1.615	1.482	1.201	1.341	1.124	1.077	0.886	0.989	0.900	0.741	0.942	0.795	0.992	1.114	1.188	1.432	3.172	9.491	28.47	57.61	77.52	28.39	15.69	2.341	0.620	0.574	0.443	0.450	0.461	0.392	0.361	0.404	0.383	0.318	0.405	0.329	0.284	0.338	0.388	0.264	0.269	0.252	0.222
250.0	68.66	113.5	188.8	445.4	2784	9999.9	9999.9	7891	167.9	31.99	26.73	21.55	16.94	14.28	10.97	9.747	8.117	7.306	6.448	5.521	5.229	4.562	4.318	4.050	3.779	3.313	3.254	2.964	2.733	2.630	2.476	2.134	1.895	1.763	1.598	1.632	1.309	1.375	1.229	1.165	0.892	1.000	0.921	0.743	0.920	0.811	0.851	0.946	1.118	1.162	1.415	2.736	7.014	16.72	38.01	61.32	97.56	89.17	68.17	12.74	3.198	0.636	0.492	0.506	0.508	0.443	0.412	0.398	0.412	0.390	0.407	0.359	0.325	0.347	0.318	0.353	0.310
255.0	78.47	76.23	126.8	293.5	719.9	2434	9999.9	9999.9	9999.9	222.0	41.42	30.90	24.11	19.32	14.28	11.49	9.836	8.129	7.337	6.204	5.514	4.877	4.418	4.535	4.200	3.831	3.746	3.172	2.783	2.866	2.729	2.088	2.128	1.776	1.760	1.651	1.352	1.385	1.326	1.233	1.111	1.015	1.061	0.907	1.009	0.895	0.841	0.849	0.926	0.965	1.383	1.919	2.395	4.365	9.118	14.54	29.10	69.37	159.0	194.7	32.55	19.55	2.556	0.752	0.708	0.498	0.584	0.471	0.541	0.438	0.365	0.462	0.366	0.396	0.392	0.391	0.490
260.0	73.54	68.58	79.65	212.7	364.5	626.8	2887	9999.9	9999.9	9999.9	169.7	46.41	31.76	24.25	17.38	13.23	10.64	9.150	7.970	6.759	6.112	5.663	4.709	4.765	4.473	3.985	3.638	3.123	3.089	3.021	2.719	2.326	2.203	2.324	1.911	1.810	1.508	1.422	1.383	1.352	1.268	1.128	1.263	1.003	1.047	0.977	0.906	0.733	0.840	0.748	0.930	1.849	1.946	2.055	2.759	3.883	7.207	17.47	55.77	139.3	220.5	217.3	30.88	14.20	1.249	0.697	0.733	0.697	0.745	0.510	0.462	0.518	0.526	0.453	0.499	0.426	0.388
265.0	114.3	86.55	72.41	113.0	311.8	341.4	731.8	4102	9999.9	9999.9	1878	116.2	45.02	30.70	21.88	16.08	12.86	10.33	9.094	7.618	6.368	5.962	5.193	4.957	4.854	4.213	3.625	3.390	3.227	3.393	3.105	2.767	2.638	2.325	1.965	1.902	1.806	1.477	1.489	1.383	1.419	1.453	1.153	1.127	1.014	1.186	1.035	0.748	0.859	0.734	0.852	1.119	1.637	2.283	2.202	1.814	2.356	4.680	13.36	36.29	95.96	217.8	260.2	204.2	25.94	7.496	1.012	0.839	0.720	0.769	0.628	0.628	0.658	0.558	0.570	0.552	0.415
270.0	359.4	297.6	213.1	116.8	176.1	361.4	440.4	1077	4755	9999.9	9999.9	7251	131.4	50.16	32.77	22.67	17.45	13.37	10.88	9.782	7.707	7.148	6.150	5.602	5.153	4.924	4.330	3.661	3.735	3.807	3.359	3.128	2.933	2.700	2.454	2.319	2.089	1.880	1.910	1.716	1.823	1.720	1.642	1.643	1.577	1.586	1.549	1.339	1.271	1.121	0.961	0.896	1.131	1.509	1.922	2.478	2.520	2.456	4.127	9.227	22.81	56.50	107.8	196.9	221.2	262.8	132.6	16.80	6.638	1.162	0.912	0.838	0.754	0.663	0.606	0.666	0.590
275.0	873.4	762.0	537.4	234.0	143.2	231.0	556.5	589.2	1331	2890	9999.9	9999.9	9999.9	148.6	51.53	33.45	24.03	17.82	14.36	11.21	9.306	8.280	6.881	6.210	5.658	5.589	4.817	4.294	4.089	4.069	3.553	3.634	3.436	3.521	3.201	2.995	2.450	2.575	2.228	2.139	2.366	2.480	2.533	2.505	2.845	2.685	2.517	2.304	2.108	1.878	1.380	1.249	1.086	1.215	1.342	1.866	2.570	3.867	4.069	3.954	6.776	14.20	25.67	46.00	57.97	130.4	298.3	417.9	222.4	26.04	5.233	1.384	1.038	0.908	0.733	0.897	0.664
280.0	1390	1304	883.0	374.4	175.7	199.5	447.7	836.4	834.3	1158	3795	9999.9	9999.9	7479	115.7	48.24	32.59	22.33	17.54	12.95	11.86	9.495	7.915	6.952	6.340	6.170	4.957	4.956	4.246	4.222	3.967	3.492	3.533	3.876	3.740	3.545	2.923	2.981	2.933	2.756	2.928	3.120	3.364	3.435	3.914	3.941	3.605	3.604	3.272	2.609	1.919	1.487	1.327	1.362	1.267	1.615	1.963	2.965	4.727	4.915	4.876	5.773	8.202	12.89	15.71	32.60	87.43	224.5	405.9	275.1	35.45	19.41	2.660	1.300	1.158	0.915	0.951
285.0	1956	1879	1300	569.7	242.8	246.9	416.5	890.5	1214	1187	1865	5977	9999.9	9999.9	1029	88.61	44.63	29.17	21.32	17.08	13.17	11.12	8.899	7.623	6.589	6.240	5.336	5.524	4.647	4.703	4.192	3.717	3.781	4.239	4.124	4.458	3.790	3.516	3.687	3.427	3.555	3.773	4.265	4.175	4.925	5.052	5.149	5.166	4.415	3.285	2.450	1.883	1.597	1.501	1.507	1.876	2.108	2.716	3.612	5.286	6.750	6.397	6.218	7.415	8.231	11.82	24.46	57.55	136.0	281.2	445.1	260.8	31.07	12.61	1.838	1.432	1.188
290.0	2785	2798	2014	955.2	415.6	373.7	567.4	1019	1800	2400	2651	3490	7248	9999.9	9999.9	9999.9	293.6	47.21	30.94	22.72	16.88	13.71	11.14	9.442	8.407	7.244	6.657	5.931	5.408	5.180	4.619	4.468	4.320	4.652	5.131	5.818	4.816	4.517	4.408	4.185	4.341	4.769	5.580	5.837	6.607	6.893	7.357	7.423	6.845	4.891	3.681	3.015	2.460	2.070	2.122	2.333	2.789	3.363	4.039	5.256	7.298	9.334	10.66	11.94	11.64	12.46	15.64	22.99	39.63	74.73	149.6	234.1	331.8	334.6	253.2	20.84	10.04
295.0	3503	3648	2683	1333	608.5	529.2	773.5	1323	2202	3464	4400	4377	4406	4104	9999.9	9999.9	5931	92.86	49.19	32.66	22.64	18.22	14.24	11.93	10.55	8.815	8.099	6.864	6.319	5.591	5.134	4.735	4.849	5.493	6.267	6.421	5.935	5.524	5.301	5.182	5.188	5.864	6.380	6.895	7.879	8.864	9.128	9.748	8.758	6.366	4.797	4.304	3.248	2.804	2.638	3.085	3.770	4.499	5.078	6.765	8.341	10.70	13.03	16.23	19.56	19.70	19.28	20.31	22.72	30.01	44.00	60.05	82.47	128.8	320.1	519.3	278.3
300.0	3913	4083	2998	1557	755.2	672.7	923.1	1550	2541	3866	5433	5442	4397	2795	3940	9999.9	9999.9	4596	80.65	45.25	30.38	22.83	18.01	14.42	12.69	9.953	9.126	7.619	7.096	6.341	6.018	4.959	5.195	6.112	6.494	6.787	6.592	6.171	5.976	5.704	5.728	6.436	6.979	7.648	8.752	9.590	10.16	11.07	9.937	7.513	5.729	4.877	3.830	3.338	3.266	3.789	4.188	5.201	6.418	8.001	9.839	12.05	14.69	17.66	21.47	24.34	24.93	23.47	22.34	22.16	22.74	23.05	24.58	33.33	84.50	225.4	446.8
305.0	4110	4199	3111	1670	872.4	778.8	1107	1791	2857	4212	5759	6381	4909	2836	1729	5366	9999.9	9999.9	631.4	69.79	41.13	29.18	21.15	17.17	14.42	11.24	9.852	8.377	7.986	6.762	6.467	5.760	5.463	5.979	6.640	7.083	6.711	6.145	6.170	6.106	5.989	6.707	7.679	7.921	9.094	10.09	10.62	11.59	10.43	7.893	5.976	5.588	4.457	3.869	3.948	4.142	4.919	5.734	7.262	8.697	11.18	13.63	15.45	19.36	22.19	25.00	27.49	28.15	24.93	22.74	19.68	16.05	12.96	12.57	22.29	54.64	131.6
310.0	4117	4100	3120	1751	1016	939.2	1324	2069	3178	4559	5960	6634	5714	3362	1548	1720	6029	9999.9	9999.9	9999.9	207.7	43.79	29.81	21.83	17.76	13.66	11.84	10.27	9.232	7.998	6.844	6.551	5.747	6.390	6.898	6.787	6.911	6.500	6.270	6.242	6.438	6.742	7.862	8.286	9.617	10.66	10.38	11.24	10.09	8.013	6.263	5.875	4.789	4.356	4.428	4.823	5.620	6.853	8.660	10.06	12.38	14.70	17.24	20.37	23.65	25.81	27.80	28.67	27.58	26.29	22.29	17.11	11.78	9.403	9.639	15.91	32.56
315.0	4117	4086	3043	1797	1158	1167	1609	2422	3551	4935	6226	6750	6042	4240	2006	1155	1807	2918	9999.9	9999.9	4245	71.81	45.18	30.59	23.14	17.60	14.08	11.78	10.12	9.205	8.089	7.044	6.561	6.717	6.800	6.904	7.061	6.557	6.350	6.843	6.677	7.108	7.930	8.590	9.879	10.61	10.79	10.96	10.21	7.826	6.469	6.602	5.475	4.908	4.946	5.645	6.700	7.708	9.980	11.27	13.73	16.11	19.25	22.64	25.62	27.09	28.11	28.42	27.36	26.81	25.32	21.39	15.42	10.92	8.608	8.871	11.32
320.0	4252	4172	3110	1925	1327	1372	1890	2753	3917	5319	6551	7058	6295	4790	2697	1345	1073	1102	3723	9999.9	9999.9	3415	66.33	40.91	29.08	21.29	16.08	13.81	11.94	10.50	9.534	7.520	7.042	6.943	6.938	6.589	6.912	6.771	6.572	6.549	7.302	7.093	8.149	9.050	9.927	10.85	10.62	10.88	10.08	7.960	6.622	6.474	6.028	5.950	6.172	6.724	8.282	9.108	11.08	12.92	14.63	18.12	20.73	23.68	26.34	27.44	29.36	29.91	29.23	27.30	25.16	23.44	19.26	13.86	10.25	8.341	7.911
325.0	4382	4216	3284	2118	1563	1607	2122	3059	4290	5698	6920	7423	6657	5122	3309	1770	1116	831.5	1254	5565	9999.9	9999.9	487.3	59.51	37.82	25.94	20.01	15.04	13.20	11.46	10.28	8.126	7.844	7.283	6.981	7.142	7.333	6.821	7.085	6.955	7.685	7.821	8.497	9.145	10.15	11.39	11.08	11.60	10.67	8.753	7.025	7.141	6.620	6.531	7.409	7.788	9.098	10.16	12.36	14.07	16.39	18.88	21.48	24.91	26.81	28.54	30.38	30.70	30.11	29.53	26.79	23.57	20.13	17.33	14.21	10.39	8.703
330.0	4755	4442	3590	2506	1917	1971	2499	3478	4768	6180	7383	7923	7238	5709	3774	2417	1540	998.5	825.0	1650	6115	9999.9	9999.9	9999.9	169.0	39.43	27.85	20.20	16.43	13.59	11.61	9.674	8.150	7.974	7.630	7.356	7.429	7.522	7.581	7.455	7.900	8.532	9.055	9.988	10.86	11.60	11.71	12.31	11.39	9.627	8.285	8.688	8.075	7.798	8.226	9.048	10.56	11.59	13.69	15.39	17.87	20.58	24.29	26.65	28.86	30.68	32.11	32.76	32.74	31.28	28.97	26.47	22.39	19.24	16.76	14.14	12.53
335.0	5132	4697	3852	2839	2361	2394	2910	3867	5169	6619	7802	8406	7822	6379	4335	2861	2160	1415	962.2	903.0	1671	2855	9999.9	9999.9	3528	61.21	40.88	28.53	21.60	16.57	14.01	11.92	9.671	8.704	8.249	7.980	7.508	8.170	7.918	8.256	8.180	8.863	9.577	10.71	11.47	12.57	12.63	13.31	11.88	10.34	9.461	10.46	9.759	9.398	9.888	10.88	12.09	13.62	15.23	17.13	19.12	22.20	25.80	28.06	30.37	32.55	33.51	33.87	34.72	32.61	30.78	29.22	25.95	22.33	18.45	16.42	14.46
340.0	5090	4834	4024	3149	2679	2710	3180	4064	5389	6808	7980	8585	8093	6775	4746	3142	2417	1813	1160	829.8	742.7	867.8	3674	9999.9	9999.9	2995	58.58	37.21	26.98	19.55	15.86	13.06	10.39	9.412	8.627	8.389	8.341	8.249	8.982	9.045	8.848	9.174	10.31	11.06	11.64	12.81	12.34	13.25	12.26	11.27	10.41	11.51	10.93	10.76	11.37	12.11	13.40	14.74	15.96	18.36	20.84	23.65	26.50	29.22	30.98	33.26	34.14	34.84	35.45	34.03	32.87	30.81	28.04	23.45	19.85	17.99	15.67
345.0	4995	4819	4088	3338	2912	2938	3350	4166	5442	6800	7964	8555	8146	6931	5008	3355	2519	2025	1408	910.8	604.4	469.1	1023	5547	9999.9	9999.9	427.8	52.73	33.81	24.37	18.56	14.18	11.30	9.972	9.030	8.903	8.750	8.438	9.180	8.893	8.795	9.287	10.22	10.82	11.60	12.51	12.32	13.02	12.57	11.41	10.48	12.21	12.13	12.39	12.40	13.12	14.19	15.24	16.54	18.79	21.45	23.94	26.41	29.09	31.34	33.15	34.08	35.05	35.15	34.97	32.94	31.72	28.78	24.37	21.80	19.07	17.10
350.0	4907	4708	3998	3435	3147	3176	3520	4218	5409	6633	7725	8250	7915	6910	5120	3547	2684	2084	1644	1154	692.4	470.0	487.2	1451	6005	9999.9	9999.9	9802	153.1	34.81	24.24	17.78	13.60	10.95	9.896	9.274	9.091	9.005	9.121	8.990	8.910	9.102	10.14	10.86	11.51	12.11	11.99	12.91	12.39	11.26	11.27	12.58	12.47	13.21	12.92	13.63	14.76	15.55	16.84	18.83	20.63	23.61	25.52	28.31	30.25	31.66	32.79	33.58	33.56	33.81	32.94	31.21	29.05	25.62	22.04	19.63	18.07
355.0	4675	4485	3805	3414	3253	3339	3616	4191	5272	6403	7337	7850	7552	6715	5093	3666	2827	2191	1713	1398	919.4	582.0	462.2	592.7	1542	2776	9999.9	9999.9	3305	56.96	34.79	24.03	16.88	12.82	10.95	10.09	9.738	8.980	9.799	9.036	8.852	8.883	9.555	10.41	11.49	11.90	11.59	12.35	12.19	10.82	10.66	13.17	12.99	13.50	13.70	13.74	15.43	15.59	17.23	18.32	20.28	23.15	24.64	26.86	28.90	29.83	31.33	32.02	31.89	31.99	30.93	30.31	29.12	25.97	22.70	19.99	18.89
360.0	4330	4224	3665	3358	3269	3383	3576	4143	5131	6161	6989	7436	7203	6442	5008	3663	2877	2252	1759	1435	1122	733.5	537.9	461.4	599.0	818.0	3451	9999.9	9999.9	2865	53.49	30.59	21.57	15.55	12.90	10.84	10.35	9.534	9.814	9.628	8.755	9.346	9.497	10.53	10.95	11.85	11.16	12.35	11.51	10.57	10.75	12.68	13.04	13.90	13.91	14.34	15.50	15.89	17.45	18.60	20.60	22.96	24.20	26.53	28.07	28.82	29.43	30.76	30.34	30.11	29.15	28.74	27.70	25.50	22.54	20.02	18.64
365.0	4195	4065	3550	3235	3266	3355	3582	4076	4981	5900	6642	7052	6833	6113	4836	3593	2868	2285	1824	1461	1207	923.8	649.6	511.6	445.4	415.3	951.2	5105	9999.9	9999.9	404.6	46.12	27.45	19.32	14.98	11.87	11.23	10.74	10.14	9.391	8.988	9.163	9.398	10.05	10.18	11.23	10.66	12.00	11.34	10.33	10.54	12.67	13.05	13.77	14.05	14.40	15.23	15.83	16.72	17.89	20.03	22.12	23.91	24.70	26.92	27.24	27.88	28.62	28.82	28.54	28.16	28.74	27.54	24.75	21.77	19.98	18.69
370.0	3844	3694	3279	3082	3149	3265	3455	3904	4681	5454	6099	6431	6228	5650	4542	3444	2813	2301	1881	1542	1254	1099	894.1	658.4	517.8	410.1	441.7	1320	5567	9999.9	9999.9	9197	137.1	28.79	19.79	14.92	12.41	11.50	10.73	9.680	9.016	9.465	9.052	9.491	9.827	10.67	10.06	10.96	10.34	9.849	9.998	11.87	12.86	13.47	13.59	13.85	14.99	15.12	16.50	17.39	18.83	20.73	22.31	23.78	24.64	25.42	25.52	26.20	26.40	26.18	26.30	26.14	24.80	22.77	20.55	19.08	18.57
375.0	3477	3357	2957	2894	3019	3158	3326	3677	4328	5000	5539	5828	5607	5120	4182	3263	2717	2303	1943	1643	1364	1194	1103	905.1	672.6	504.8	409.5	512.6	1402	2767	9999.9	9999.9	2883	48.49	28.46	19.57	14.96	12.65	11.20	10.07	9.212	9.175	9.044	9.303	9.132	9.980	9.544	10.06	9.634	9.309	9.502	11.45	12.20	13.64	13.26	13.55	14.49	14.62	15.64	16.75	18.10	19.04	19.88	21.95	22.50	22.98	22.50	24.42	23.99	23.89	24.02	23.61	22.51	20.83	18.98	18.51	17.14
380.0	3301	3066	2828	2729	2884	3062	3212	3499	4049	4643	5116	5384	5194	4719	3901	3111	2630	2281	1970	1707	1460	1278	1170	1079	830.5	623.8	470.3	385.5	507.6	768.7	3476	9999.9	9999.9	2396	43.09	25.71	19.22	14.27	12.25	10.13	9.610	9.334	8.856	9.229	9.071	9.428	9.356	9.687	9.284	8.896	8.917	11.47	11.71	12.47	12.46	12.98	14.20	14.46	15.18	15.99	16.75	18.06	19.04	19.90	21.18	20.89	21.45	22.28	22.28	21.96	21.46	22.09	21.05	20.29	18.43	17.95	16.39
385.0	3036	2877	2642	2595	2758	2934	3058	3366	3794	4356	4728	4939	4750	4358	3645	2950	2537	2241	1974	1751	1526	1361	1225	1133	989.9	736.5	548.8	412.7	354.7	353.5	926.4	4875	9999.9	9999.9	332.2	37.23	22.60	17.19	13.15	11.58	9.792	9.523	8.795	9.296	8.727	9.255	8.931	9.414	8.922	8.623	8.715	10.92	11.54	12.15	12.27	12.68	13.49	13.72	14.48	14.80	15.58	16.45	17.94	19.21	19.86	19.52	20.34	20.31	20.49	20.23	20.00	20.46	20.15	18.87	17.27	16.16	16.19
390.0	2758	2679	2439	2415	2592	2747	2884	3136	3499	3952	4286	4418	4274	3917	3328	2762	2414	2185	1956	1773	1589	1444	1302	1179	1085	913.1	672.0	503.2	398.6	325.5	392.3	1245	4860	9999.9	9999.9	7271	115.3	23.07	16.76	13.21	10.67	9.632	9.035	8.830	8.768	9.132	8.567	8.946	8.380	8.147	8.278	10.47	10.52	11.29	11.51	12.05	12.30	13.22	13.79	13.77	14.70	15.74	16.72	17.33	18.11	17.57	18.16	18.48	18.53	18.78	18.44	18.26	17.71	17.54	16.33	15.63	15.41
395.0	2482	2419	2248	2266	2427	2578	2723	2936	3266	3598	3872	3951	3781	3513	3034	2577	2301	2118	1932	1782	1628	1504	1380	1248	1129	1019	841.9	622.2	487.9	394.1	340.0	464.2	1225	2620	9999.9	9999.9	2429	40.92	22.91	16.83	12.80	10.78	9.197	9.110	8.869	8.422	8.672	8.722	8.073	7.753	8.063	9.664	10.09	10.54	11.21	11.44	11.96	12.60	12.71	13.57	14.14	15.02	15.84	15.79	16.46	16.44	16.86	16.33	17.05	16.82	16.78	16.45	16.09	15.42	14.98	14.13	14.13
400.0	2220	2234	2090	2107	2304	2466	2598	2797	3078	3372	3588	3654	3482	3243	2823	2437	2202	2047	1895	1779	1640	1523	1422	1291	1172	1048	940.6	741.0	568.8	458.8	371.4	327.2	441.2	712.0	3023	9999.9	9999.9	2095	36.50	20.25	14.16	11.92	9.505	9.210	8.719	8.647	8.088	8.403	8.039	7.517	7.714	9.552	9.502	10.31	11.06	10.97	11.32	12.49	12.60	13.22	13.38	13.92	14.51	15.44	15.10	15.69	15.53	15.18	15.75	16.19	15.13	14.99	14.85	15.01	13.93	13.41	13.83
405.0	2101	2069	1959	2003	2196	2376	2509	2689	2949	3200	3388	3411	3248	3013	2655	2310	2121	1980	1861	1748	1631	1530	1442	1327	1206	1069	963.7	846.2	654.7	527.8	425.2	339.6	299.4	305.0	783.9	3756	9999.9	9999.9	298.2	30.25	16.64	13.29	11.07	9.181	8.991	8.462	7.869	8.295	8.068	7.237	7.296	9.211	9.315	9.844	10.20	10.99	11.28	12.10	12.22	12.36	12.68	13.04	13.72	14.17	14.60	14.72	14.36	14.63	14.58	15.28	14.56	14.28	14.11	14.16	13.28	12.53	12.96
410.0	1914	1914	1817	1891	2073	2231	2398	2581	2799	3025	3153	3137	2968	2749	2453	2165	2010	1890	1782	1679	1597	1516	1436	1336	1226	1102	978.2	892.6	781.8	628.9	504.5	400.3	315.5	252.9	305.3	940.1	3730	9999.9	9999.9	6306	30.71	17.58	12.95	10.30	9.217	8.705	7.828	7.897	7.829	7.078	7.329	8.837	9.148	9.577	9.815	10.14	11.07	11.31	11.46	11.96	12.85	12.57	13.20	13.20	13.87	13.43	13.33	13.45	13.51	13.32	12.83	12.72	12.91	12.80	12.61	12.31	12.40
415.0	1743	1738	1714	1789	1969	2117	2258	2455	2666	2837	2905	2876	2688	2492	2237	2008	1884	1784	1684	1609	1537	1464	1406	1321	1231	1124	1004	905.6	842.4	745.0	591.4	467.1	369.9	281.8	232.7	329.5	918.3	2440	9999.9	9999.9	2234	35.97	17.17	12.54	10.47	9.296	7.645	7.993	7.220	6.819	6.986	8.612	9.178	8.975	9.231	9.589	10.80	10.99	10.99	11.75	12.08	12.51	12.47	12.19	13.06	12.60	12.60	12.86	12.21	12.11	11.71	12.19	12.29	12.04	11.52	11.38	12.06
420.0	1518	1566	1610	1701	1861	2021	2198	2369	2560	2721	2767	2690	2507	2302	2083	1897	1779	1692	1617	1540	1478	1417	1364	1302	1220	1131	1018	920.0	850.1	798.9	671.7	517.7	408.5	313.9	238.8	210.5	306.6	620.4	2632	9999.9	9999.9	1981	31.48	15.25	11.65	9.855	7.846	7.776	7.304	6.911	6.740	8.331	8.617	8.701	9.020	9.389	10.58	10.86	10.86	11.12	11.62	11.95	12.14	12.23	12.39	12.35	11.65	11.86	11.91	11.68	11.00	11.70	11.14	11.10	10.90	10.51	11.13
425.0	1468	1500	1527	1624	1775	1936	2114	2288	2460	2623	2639	2550	2364	2162	1961	1792	1689	1614	1548	1473	1420	1369	1328	1273	1201	1121	1029	935.9	857.9	808.1	728.9	574.1	445.3	345.0	263.2	203.4	186.6	225.5	655.7	3029	9999.9	9999.9	283.3	25.80	14.20	11.27	8.978	7.898	7.586	7.160	6.948	8.349	8.337	8.527	8.589	8.927	10.20	9.907	10.73	10.85	11.26	11.43	11.60	12.44	11.96	11.85	11.05	11.09	11.24	10.70	10.11	10.53	10.70	10.61	9.795	9.969	10.20
430.0	1689	1385	1426	1536	1702	1866	2021	2221	2385	2494	2505	2403	2196	2005	1822	1674	1589	1518	1449	1391	1341	1310	1275	1227	1173	1105	1031	948.2	878.8	817.4	748.1	649.6	509.4	390.8	304.1	235.4	186.2	160.1	229.6	742.2	3014	9999.9	9999.9	5796	28.35	15.33	11.02	9.360	8.145	7.269	6.601	8.138	8.085	8.502	8.852	8.782	9.748	9.844	10.53	10.92	10.95	11.16	11.15	11.58	11.39	11.35	10.53	10.72	10.32	10.03	9.989	9.745	9.896	9.913	9.436	9.474	9.452
435.0	2880	1365	1349	1442	1609	1782	1955	2131	2278	2393	2362	2242	2037	1857	1698	1560	1483	1423	1358	1306	1267	1233	1213	1183	1135	1083	1020	952.1	895.5	835.1	754.3	679.4	581.7	451.5	347.1	274.0	214.4	171.8	157.4	246.5	734.2	2334	7031	9999.9	8337	34.13	15.33	11.53	9.206	7.690	7.070	8.085	8.026	8.382	8.786	9.289	9.741	9.833	9.957	10.28	10.64	10.92	11.30	11.06	10.89	10.81	10.17	9.967	9.532	9.396	9.379	8.858	9.601	9.113	8.616	9.063	9.304
440.0	4090	1608	1290	1400	1534	1710	1912	2061	2205	2287	2263	2132	1932	1758	1588	1480	1402	1342	1291	1238	1214	1181	1161	1139	1097	1056	1003	948.7	899.8	843.3	761.3	680.8	606.3	496.9	377.4	299.5	238.4	189.3	155.7	150.1	238.2	579.1	1793	9727	9999.9	1949	28.93	14.14	10.43	8.377	7.425	8.054	7.983	8.239	8.442	8.707	9.551	9.783	9.812	10.25	10.21	10.33	10.82	10.69	10.79	10.42	9.915	9.393	9.390	9.032	8.547	8.945	9.056	8.330	8.605	8.428	8.772
445.0	4048	2112	1198	1319	1483	1649	1822	1996	2138	2199	2176	2024	1820	1658	1507	1389	1324	1276	1220	1174	1143	1121	1102	1085	1055	1018	975.5	926.5	887.9	842.2	763.0	680.6	602.1	523.9	410.7	320.9	257.5	210.0	169.5	141.1	139.8	195.7	455.5	2654	9999.9	9999.9	1515	26.19	12.72	9.248	7.911	8.807	8.358	8.016	8.282	8.568	9.083	9.141	9.656	9.883	9.777	10.27	10.54	10.19	9.794	9.642	9.712	9.053	9.255	8.417	8.433	8.362	8.302	7.545	8.056	8.043	8.401
450.0	2421	3901	1597	1234	1380	1533	1710	1888	2007	2060	2014	1863	1667	1515	1381	1276	1216	1173	1120	1079	1054	1034	1021	1007	986.2	956.1	921.3	884.7	855.3	817.0	752.1	671.9	588.3	519.4	446.4	352.0	282.4	234.6	192.6	159.5	133.9	126.0	166.2	644.2	2750	9577	9999.9	5692	101.3	13.37	9.664	9.597	8.768	8.146	8.266	8.209	8.955	9.115	9.511	9.656	9.634	9.931	9.861	9.683	9.658	9.078	8.956	8.440	8.437	8.050	7.781	7.721	7.688	7.143	7.418	7.614	7.845
455.0	1220	3718	3230	1195	1278	1416	1584	1747	1856	1876	1834	1696	1512	1372	1254	1152	1094	1052	1010	970.1	950.1	934.6	927.5	915.6	901.5	883.2	854.7	828.4	810.5	776.7	727.3	650.4	575.3	500.8	443.0	383.6	309.5	255.2	213.4	179.0	149.0	123.5	111.7	201.8	657.0	2199	5193	9999.9	7814	27.52	13.05	10.98	8.862	8.499	8.397	8.016	8.515	8.971	8.489	8.859	9.292	9.209	8.829	8.879	8.849	8.330	8.597	8.274	7.425	7.349	7.336	6.918	6.654	6.772	6.870	6.621	6.932
460.0	899.1	2306	4703	1541	1176	1319	1506	1633	1739	1757	1703	1567	1395	1275	1154	1057	1004	960.3	926.3	892.4	873.8	856.4	852.3	850.3	836.7	825.1	799.8	781.7	768.1	746.2	697.2	630.7	555.8	488.6	425.0	385.4	330.5	266.0	225.4	190.2	158.9	130.6	105.5	106.9	195.3	528.9	1267	6992	9999.9	1563	24.69	13.71	10.30	9.593	8.603	7.861	8.411	8.643	8.327	8.713	8.372	8.732	8.808	8.144	8.323	8.179	7.923	7.380	7.202	6.669	6.777	6.613	6.416	6.479	5.970	6.000	6.329
465.0	757.6	1254	4765	2733	1108	1237	1406	1529	1603	1633	1588	1445	1294	1164	1065	976.9	920.6	888.2	852.1	821.1	800.9	789.7	790.0	785.5	777.2	767.5	749.0	734.9	722.0	701.4	662.7	603.3	542.0	474.8	412.4	370.8	336.3	278.4	231.6	198.2	166.9	137.1	109.5	89.80	93.81	158.7	316.9	1809	9197	9999.9	1376	25.27	12.78	10.29	8.909	8.624	8.505	8.221	8.214	8.767	7.974	8.658	8.097	7.961	7.777	7.438	7.537	6.943	6.449	6.310	6.239	6.107	6.339	6.084	5.988	6.048	5.839
470.0	678.5	838.9	2767	5088	1673	1124	1272	1377	1451	1476	1422	1291	1151	1044	951.0	869.7	822.6	782.5	755.3	727.4	709.0	700.1	703.2	700.2	696.3	685.7	672.9	661.7	651.4	642.1	610.0	560.7	507.3	446.0	391.5	346.6	316.1	284.2	240.8	200.9	171.3	139.9	113.0	90.12	75.36	77.82	104.4	431.6	2348	7040	9999.9	4580	106.9	13.05	9.854	9.198	8.500	8.034	8.102	8.039	7.498	7.749	7.613	7.350	7.189	6.747	6.643	6.327	6.141	5.738	5.623	5.450	5.457	5.580	5.563	5.110	5.310
475.0	614.3	656.3	1184	4960	4083	1095	1110	1233	1303	1315	1265	1143	1013	923.5	841.1	770.7	720.9	687.4	665.5	637.9	622.5	615.6	614.4	617.8	616.8	607.9	597.3	586.1	584.6	579.0	555.0	513.4	464.3	415.1	366.4	323.8	292.8	268.2	244.4	202.9	170.7	141.9	113.9	92.91	74.10	63.09	58.19	124.7	546.0	1600	3839	9999.9	5905	31.60	12.30	10.00	8.686	7.900	7.701	7.316	6.696	6.863	6.664	6.310	6.328	6.524	5.693	5.600	5.461	5.138	5.373	5.054	4.924	4.927	4.935	4.572	4.772
480.0	561.8	613.0	744.0	3040	6662	1636	1022	1144	1186	1202	1156	1043	937.6	845.0	765.9	702.8	659.0	627.8	606.8	578.5	568.6	561.7	560.2	563.5	564.1	559.8	548.1	539.5	542.2	538.1	513.8	479.5	434.4	393.9	348.4	308.8	278.7	254.1	238.1	204.9	169.7	140.9	114.6	94.44	75.24	61.77	49.87	57.50	146.3	377.4	907.3	4718	9999.9	1815	28.77	12.14	9.843	8.288	7.628	6.924	6.692	6.642	6.411	6.011	6.179	5.895	5.799	5.478	4.910	4.756	4.891	4.770	4.697	4.584	4.404	4.531	4.031
485.0	516.3	548.2	597.6	1465	7293	3502	1000	1060	1099	1118	1068	989.8	875.7	794.5	711.0	653.5	610.9	582.4	557.2	536.9	525.9	520.0	514.9	519.7	517.9	517.0	509.6	504.7	506.0	503.3	482.2	449.2	409.9	372.6	332.7	297.4	269.8	243.3	227.8	208.9	171.6	141.1	116.2	95.96	77.53	63.98	51.53	45.83	59.36	106.1	223.6	1174	6413	9999.9	1549	24.45	11.38	8.823	8.009	7.212	6.784	6.610	6.392	6.117	6.032	5.349	5.545	5.031	4.697	4.478	4.394	4.395	4.380	3.971	4.136	4.155	3.832
490.0	465.9	514.5	551.2	780.1	4252	7655	1881	962.7	1007	1014	974.8	890.9	798.2	719.4	647.4	590.3	553.0	520.4	501.1	482.4	473.6	466.5	465.7	469.3	468.0	465.5	458.3	458.3	458.6	456.5	439.3	412.5	382.3	346.1	312.1	282.1	256.3	230.4	212.0	197.2	175.1	145.7	118.9	98.06	80.97	67.80	56.04	46.58	43.42	49.23	72.11	283.5	1588	5321	9041	4326	121.2	12.83	9.010	7.771	6.805	6.452	6.054	5.809	5.719	5.164	5.104	4.567	4.287	4.086	4.091	4.140	4.091	3.838	3.951	3.902	3.776
495.0	370.6	489.0	517.7	564.5	1537	8161	5815	979.4	918.3	907.1	874.0	790.2	719.1	648.0	576.1	527.0	490.1	462.1	446.6	429.3	424.1	415.4	413.9	415.7	414.1	411.7	409.3	410.1	413.1	411.6	400.4	375.8	346.3	315.7	287.5	261.6	238.0	215.5	198.0	180.8	165.2	147.4	120.7	99.04	83.90	70.17	60.28	49.80	43.49	40.60	42.00	86.24	374.9	1212	3324	9845	6426	34.20	12.00	8.392	6.922	6.678	5.977	5.539	5.095	5.005	4.518	4.572	4.095	3.604	3.836	3.786	3.713	3.635	3.618	3.446	3.461
500.0	364.3	416.1	480.6	494.7	756.5	5009	9999.9	1724	843.4	829.9	802.6	726.7	659.0	589.3	529.6	477.1	441.9	421.3	403.5	389.4	380.1	375.9	373.5	374.5	373.7	374.5	372.1	369.6	376.8	376.2	366.7	344.7	317.7	290.7	267.6	243.7	223.2	201.8	185.9	169.6	154.5	143.9	122.8	100.5	82.34	71.73	61.57	52.84	45.81	40.45	36.75	44.00	106.5	291.6	784.2	4217	9999.9	1976	31.03	9.972	7.614	6.432	5.613	5.145	4.705	4.789	4.378	4.042	4.009	3.597	3.815	3.498	3.349	3.464	3.336	3.271	3.271
505.0	352.6	357.9	443.4	458.5	541.8	2126	9999.9	3185	791.1	759.9	736.8	657.7	603.4	536.1	486.9	435.4	404.4	379.3	365.8	352.9	343.6	339.5	340.0	341.0	339.0	340.2	337.2	337.6	339.8	342.8	334.0	314.1	290.8	270.5	245.7	226.5	207.1	189.2	175.0	161.2	144.2	134.1	120.8	99.52	82.18	71.72	63.05	54.36	47.99	41.66	37.23	36.66	47.54	87.09	196.3	1027	5450	9710	1723	24.85	8.756	6.704	5.561	5.399	4.978	4.313	4.129	3.843	3.691	3.605	3.259	3.147	3.264	3.216	3.297	2.821	3.066
510.0	306.9	318.5	371.5	431.9	446.0	859.5	6594	9999.9	1650	677.0	652.8	590.6	527.7	472.4	423.3	382.2	355.1	333.1	319.5	310.1	302.2	298.0	298.0	297.6	297.7	297.8	296.4	294.9	299.2	299.6	292.9	276.2	257.9	240.8	221.6	205.1	187.5	172.9	159.5	147.8	133.1	122.1	111.7	100.7	83.62	70.52	62.33	54.37	47.80	42.30	38.38	35.00	34.98	42.34	64.61	247.7	1322	4529	7187	3949	122.8	9.403	6.219	5.319	4.675	4.138	3.974	3.631	3.286	3.255	3.150	2.854	2.833	2.697	2.843	2.760	2.779
515.0	272.0	276.1	300.2	384.7	397.9	510.2	2103	9999.9	6569	678.0	572.6	517.5	463.4	409.8	370.0	335.8	308.7	290.7	277.7	268.6	260.3	258.2	258.2	256.4	258.5	256.1	255.0	254.8	256.2	258.3	255.0	242.8	227.2	211.2	196.1	180.0	168.6	153.2	143.3	131.6	118.0	109.4	98.14	93.70	84.74	70.87	59.94	53.10	47.13	41.67	38.25	35.70	32.47	31.36	35.27	73.53	310.1	1026	2385	7139	4942	34.06	7.998	5.982	4.789	3.822	3.721	3.394	2.867	2.857	2.855	2.649	2.801	2.431	2.359	2.450	2.483
520.0	226.1	246.5	265.3	343.9	377.6	400.5	812.6	7238	9999.9	1420	511.6	470.5	420.2	370.5	330.5	296.9	274.3	260.9	248.0	240.9	232.0	229.5	229.7	229.8	227.4	228.2	225.4	229.2	231.9	231.0	229.6	216.5	204.8	190.0	176.2	161.3	153.8	141.3	130.3	121.1	110.2	100.4	90.25	84.13	80.81	71.28	58.67	50.99	45.94	41.57	37.45	34.89	31.43	29.05	28.16	34.21	84.41	242.0	556.5	2899	7687	1937	29.65	6.812	4.734	4.006	3.700	3.241	2.761	2.581	2.625	2.276	2.417	2.278	2.299	2.277	2.225
525.0	220.4	218.3	240.7	287.9	359.9	363.0	487.9	2953	9999.9	4314	478.7	424.8	384.3	336.2	300.6	267.2	249.7	234.1	222.7	215.7	208.4	206.2	207.3	205.5	205.3	205.5	204.9	204.4	209.2	209.2	205.1	195.6	183.7	171.1	159.8	148.6	137.9	129.5	120.0	111.8	103.0	92.94	83.94	75.71	74.64	69.41	58.14	49.11	44.76	39.94	36.17	33.35	30.07	28.16	25.36	24.19	34.07	66.71	135.8	691.4	3709	6720	1630	23.21	5.506	4.265	3.740	3.242	2.733	2.803	2.311	2.285	2.165	2.157	2.024	2.119	1.904
530.0	183.4	200.2	208.1	238.0	317.7	336.7	371.2	998.8	8434	9999.9	1205	376.5	338.6	294.5	261.9	234.0	216.9	204.7	194.8	185.9	182.6	180.4	178.6	178.3	179.9	176.4	177.2	177.0	182.0	181.6	178.5	169.3	161.6	149.5	138.8	130.3	121.0	113.3	106.8	98.82	91.62	83.13	75.02	68.34	64.41	63.22	57.21	47.87	41.98	37.33	33.88	31.10	28.31	26.59	23.79	21.23	21.50	26.92	40.80	163.6	888.0	3010	4906	2419	118.0	6.086	3.894	3.182	2.802	2.534	2.188	2.267	2.111	1.951	1.810	1.867	1.814
535.0	175.5	177.4	180.9	199.5	248.4	317.1	306.8	480.2	2581	9999.9	6277	377.4	291.0	253.5	224.5	201.0	185.4	172.7	166.4	159.7	154.6	152.4	152.4	150.7	151.8	150.7	150.9	151.7	153.5	155.2	151.5	145.2	136.2	127.2	118.8	112.0	104.6	97.66	92.34	85.88	79.88	72.95	66.00	61.13	57.01	53.62	52.77	47.90	39.20	34.84	31.37	29.13	26.53	23.86	22.18	20.09	17.71	17.33	19.29	45.11	205.1	678.9	1553	4680	2082	33.56	5.392	3.586	2.861	2.552	2.104	2.132	1.982	1.940	1.686	1.626	1.625
540.0	160.2	179.8	171.5	172.4	213.5	297.1	286.3	338.8	846.5	8464	9999.9	853.3	262.7	224.3	198.4	178.0	162.9	155.4	148.5	140.1	135.7	133.6	132.4	132.9	133.9	131.3	130.3	133.7	134.2	134.2	131.9	126.7	119.7	112.6	105.6	98.10	92.09	87.41	81.05	77.70	70.91	64.41	60.19	55.35	50.96	48.25	45.88	44.71	38.21	32.97	29.17	26.33	24.81	22.59	20.54	19.04	16.89	14.66	13.53	18.00	52.49	157.9	358.8	1829	4799	1831	28.10	4.307	3.031	2.824	2.202	2.104	1.952	1.670	1.653	1.673	1.476
545.0	186.5	183.2	166.5	161.9	177.4	252.0	288.2	283.4	416.1	3380	9999.9	1819	244.7	202.3	175.0	158.5	144.7	136.6	128.6	125.2	122.2	117.7	117.3	115.9	116.6	115.5	115.8	116.7	118.5	118.1	116.6	112.3	106.2	100.2	93.83	86.86	81.14	76.65	73.45	68.75	64.00	58.87	54.01	49.16	47.35	42.99	40.99	40.62	36.91	30.98	27.17	24.88	22.76	21.36	19.35	17.71	15.50	13.19	11.89	11.91	18.31	41.20	86.28	432.2	2278	4606	1388	20.31	3.723	2.597	2.339	2.033	1.825	1.612	1.473	1.442	1.434
550.0	198.7	193.5	171.6	147.8	152.7	195.5	272.1	249.5	285.1	1006	8919	9999.9	706.5	176.9	152.9	135.5	121.4	116.3	108.5	104.8	102.0	99.27	97.56	97.13	95.96	97.15	96.94	97.92	98.07	98.56	97.33	92.63	87.55	82.08	77.29	73.02	69.03	64.20	61.22	57.74	54.07	49.96	45.59	42.51	40.53	37.14	34.67	33.23	32.85	29.48	24.75	21.97	20.08	18.84	16.90	15.55	13.97	12.25	10.56	9.708	10.03	14.74	24.15	101.3	538.9	1927	3228	1186	111.9	4.300	2.557	1.984	1.723	1.571	1.379	1.310	1.262
555.0	217.3	214.8	164.0	127.6	130.6	153.0	221.0	248.2	223.5	399.8	2593	9999.9	4298	167.7	128.0	112.4	102.0	94.93	90.98	84.72	80.70	80.82	78.40	79.63	79.44	77.17	77.89	79.94	78.96	79.75	78.16	74.30	71.04	66.27	62.73	59.11	56.13	52.50	49.62	46.95	44.19	40.58	38.27	35.81	33.76	30.97	29.18	27.06	25.86	25.72	22.77	19.42	17.35	16.16	14.77	13.52	12.16	11.14	9.751	8.560	7.682	8.113	9.914	26.92	123.8	434.0	972.1	2708	1919	33.00	3.343	2.261	1.729	1.547	1.469	1.240	1.086
560.0	226.8	216.2	174.1	121.9	110.9	128.6	183.1	247.5	209.6	250.9	760.4	8777	9999.9	426.8	112.5	95.89	87.16	80.04	76.66	72.42	69.89	68.38	67.60	67.90	66.59	65.68	67.01	66.60	66.94	66.91	65.69	61.80	60.36	55.65	53.87	50.18	47.61	44.61	42.11	40.48	36.94	33.90	32.80	31.15	29.28	27.12	25.68	23.34	22.12	21.86	20.83	18.02	15.27	14.42	13.37	11.65	10.93	10.05	9.371	7.741	6.953	6.337	6.061	10.26	31.25	100.5	223.4	1021	2950	1506	25.65	2.811	1.741	1.695	1.343	1.259	1.138
565.0	223.2	231.9	182.3	115.8	102.7	113.9	151.6	233.9	206.9	218.4	329.6	3456	9999.9	1223	104.5	85.02	74.80	69.16	64.13	61.87	59.43	60.60	57.04	57.10	57.20	55.82	55.46	56.95	57.04	57.27	56.72	53.62	50.60	47.35	44.73	42.09	40.91	38.42	36.63	33.74	32.34	29.42	28.50	26.60	25.16	23.79	22.16	20.14	19.30	18.33	18.26	16.45	14.23	12.71	11.75	10.86	9.731	8.850	8.180	7.639	6.221	5.741	5.507	6.068	10.37	26.03	53.37	239.5	1282	2805	939.6	17.23	2.143	1.852	1.356	1.240	1.164
570.0	252.8	251.5	190.6	119.7	90.37	97.42	122.8	199.1	234.5	218.9	252.0	997.3	8777	7981	396.2	72.93	63.75	57.58	53.64	51.72	49.34	48.21	47.53	46.88	46.60	45.75	45.70	45.38	45.88	46.19	45.95	43.57	41.37	38.72	36.56	34.43	33.18	31.72	29.41	28.02	26.37	24.46	23.01	22.35	20.59	19.46	18.58	17.10	16.02	14.89	14.42	14.19	12.57	11.38	9.899	9.200	8.334	7.701	7.127	6.459	5.929	5.356	4.808	4.671	5.509	8.938	15.01	56.50	299.6	1093	1817	1000	21.88	2.815	1.436	1.183	1.112
575.0	284.1	279.6	206.5	122.7	87.03	87.93	111.9	165.1	261.5	244.7	266.7	420.2	2578	9999.9	3030	74.11	55.38	49.04	44.53	43.41	39.64	39.38	39.03	37.90	37.24	37.23	36.84	37.22	37.02	36.44	37.04	34.00	32.61	30.68	28.92	28.42	27.26	25.87	24.16	22.39	20.68	19.14	19.33	17.61	17.06	16.23	15.36	14.17	13.08	11.98	11.53	11.39	11.16	10.23	8.365	7.856	7.391	6.960	6.081	5.727	5.465	5.364	4.681	4.360	4.315	4.819	6.452	15.45	69.67	246.7	517.8	1539	1321	31.43	2.233	1.379	0.990
580.0	298.2	309.5	219.8	125.4	80.08	80.99	110.4	149.2	253.4	288.1	298.0	322.0	786.4	8060	7885	121.4	48.23	43.01	38.01	37.17	34.57	33.77	32.79	32.51	31.96	31.48	31.44	30.85	30.57	30.86	30.61	29.49	27.94	25.73	25.22	23.55	22.89	22.40	21.01	18.38	17.59	17.22	16.16	15.77	14.31	13.91	13.53	12.11	11.36	10.67	9.710	9.464	9.588	9.228	8.043	7.286	6.518	6.161	5.129	4.724	4.876	4.830	4.818	4.301	4.023	4.117	4.387	6.355	18.41	57.66	119.4	544.3	1705	939.8	23.95	1.666	1.022
585.0	311.0	328.8	241.0	129.4	81.93	78.28	107.2	146.1	230.4	323.3	324.2	333.4	381.8	3149	9999.9	781.3	46.02	38.09	35.18	32.11	29.76	29.84	27.56	28.29	27.53	26.60	26.75	26.31	26.34	26.81	26.39	25.25	24.00	22.42	20.60	20.51	19.90	18.85	18.20	15.85	15.44	14.88	13.62	13.37	12.76	12.04	11.23	10.82	10.08	9.203	8.542	7.865	7.683	8.111	7.639	6.644	5.823	5.345	4.666	4.683	4.523	4.338	4.924	4.382	4.014	3.630	3.934	4.352	6.686	15.43	29.37	127.0	694.2	1612	278.8	15.51	1.235
590.0	332.7	320.7	236.7	129.0	76.83	72.39	98.26	145.6	217.4	339.8	365.8	352.1	307.5	895.3	7422	5527	200.0	34.94	30.70	27.50	25.40	25.22	23.21	23.45	22.78	22.70	21.76	21.57	21.68	21.66	21.39	20.32	19.64	18.55	17.30	16.82	16.54	15.38	14.90	13.48	12.93	12.39	11.41	10.84	10.70	10.25	9.555	9.170	8.570	7.725	7.073	6.537	6.413	6.652	6.584	6.000	5.305	4.721	4.183	4.268	4.016	4.053	3.972	3.892	3.978	3.635	3.529	3.514	4.193	5.909	8.753	30.33	161.2	601.4	1002	658.9	21.49
595.0	306.6	317.4	229.7	131.0	72.04	67.14	95.49	138.7	209.0	315.9	401.6	372.6	305.8	334.9	2082	9235	796.6	35.84	26.01	22.95	22.07	20.33	20.75	19.05	18.72	17.87	17.47	17.60	17.57	17.75	16.76	17.13	15.55	14.86	13.99	13.68	12.85	12.80	11.28	11.10	10.06	9.817	9.202	8.853	9.050	8.535	8.019	7.697	6.915	6.366	5.875	5.483	5.079	5.254	5.356	5.180	4.633	4.190	3.690	3.657	3.449	3.523	3.267	3.518	3.868	3.686	3.380	3.299	3.206	3.737	3.821	8.422	37.55	135.5	276.0	877.1	815.3
600.0	296.6	300.0	222.6	124.8	74.50	63.48	88.58	134.8	198.7	297.8	415.1	382.4	310.0	215.1	546.8	6408	4915	76.90	23.82	20.58	19.22	17.69	17.35	16.08	16.03	15.61	14.56	14.89	14.65	15.03	15.05	14.66	13.03	13.46	12.72	11.85	11.36	10.50	9.908	9.475	8.839	8.550	7.870	7.585	7.464	7.246	7.183	6.574	5.951	5.353	5.173	4.696	4.540	4.410	4.459	4.579	4.121	3.824	3.349	3.348	3.069	3.229	3.070	3.362	3.296	3.713	3.362	3.006	3.069	3.007	2.704	3.588	9.693	31.45	63.29	292.7	963.9
605.0	266.8	294.0	222.1	121.3	73.79	65.42	84.29	127.7	190.5	287.5	401.6	394.9	305.4	183.8	185.8	2439	8057	518.1	24.26	19.56	17.64	15.39	15.18	14.02	14.69	13.23	13.05	12.58	13.00	13.42	12.76	12.50	12.35	11.50	11.78	10.91	10.44	9.070	8.980	7.770	7.494	7.204	6.838	6.681	6.494	6.184	6.062	5.578	5.460	4.666	4.321	4.212	3.802	3.750	3.828	4.039	3.906	3.631	3.027	2.996	2.844	2.911	3.130	3.133	3.079	3.199	3.626	2.994	2.925	2.622	2.477	2.300	3.393	8.101	15.40	67.71	368.3
610.0	257.1	274.9	200.1	113.3	70.71	63.27	84.88	124.4	189.4	273.3	371.7	406.6	313.3	181.9	103.8	621.5	5559	3934	59.21	18.19	15.56	13.93	13.41	12.16	12.08	11.65	11.35	11.02	11.10	11.23	11.18	11.12	10.68	10.66	10.45	10.16	9.387	8.407	7.204	6.516	6.351	6.066	5.751	5.585	5.299	5.105	5.126	4.880	4.589	4.027	3.721	3.741	3.457	3.135	3.141	3.099	3.294	3.380	2.963	2.655	2.462	2.598	2.791	2.734	2.871	2.921	3.088	3.024	2.737	2.462	2.094	1.965	1.920	2.729	4.370	15.97	84.91
615.0	251.7	249.6	180.2	108.1	66.60	59.76	80.68	120.8	180.1	261.0	334.8	389.0	309.0	178.2	85.40	171.0	1557	6665	603.4	19.54	13.60	12.54	11.41	10.12	10.23	9.734	9.343	9.590	8.927	9.496	9.628	9.755	9.679	9.396	8.994	8.234	7.645	6.786	6.494	5.343	4.777	4.778	4.848	4.462	4.398	4.143	4.299	3.990	3.905	3.242	3.104	2.784	2.700	2.567	2.525	2.422	2.775	2.663	2.680	2.625	2.258	2.196	2.384	2.590	2.451	2.560	2.820	2.539	2.639	2.405	1.865	1.527	1.278	1.590	1.843	4.303	19.72
620.0	229.5	226.1	172.8	104.9	64.51	58.41	79.92	119.9	174.3	251.4	319.0	369.0	319.2	179.0	84.56	69.81	387.3	4761	3519	51.39	12.97	11.98	10.33	9.078	8.623	8.673	8.113	7.809	7.946	8.707	8.393	8.298	7.999	7.631	7.798	7.041	6.779	5.587	5.251	4.753	4.332	4.258	3.831	3.867	4.029	3.581	3.381	3.324	3.234	2.674	2.720	2.555	2.372	2.235	2.317	2.102	2.293	2.255	2.416	2.439	2.156	2.054	2.150	2.328	2.445	2.459	2.382	2.327	2.439	2.342	1.873	1.577	1.168	1.109	1.134	1.536	5.056
625.0	219.0	201.7	154.5	102.9	60.89	58.59	82.20	121.4	175.5	248.0	309.9	342.0	312.6	182.9	84.47	49.99	110.7	1861	5996	354.9	13.57	11.18	9.411	8.523	7.928	7.705	7.439	7.106	6.754	7.776	7.244	6.914	6.294	6.486	6.665	6.032	5.539	4.638	4.498	4.417	3.997	3.523	3.278	3.439	3.534	3.164	3.225	3.070	2.728	2.626	2.383	2.225	2.183	1.955	1.960	1.901	1.897	1.876	2.255	2.285	2.131	1.926	2.144	2.173	2.204	2.231	2.457	2.192	2.301	2.186	1.692	1.690	1.180	1.161	0.947	0.998	1.734
630.0	208.3	204.9	146.7	94.99	58.34	60.62	80.23	120.0	174.6	233.9	296.8	320.7	298.3	196.6	91.88	47.47	48.78	471.4	4330	2884	42.22	11.23	8.909	8.023	7.203	6.655	6.286	6.190	5.907	5.865	5.932	5.627	5.450	5.545	5.093	4.899	4.416	4.072	3.828	3.636	3.499	3.157	2.891	2.788	2.960	2.766	2.812	2.510	2.367	2.113	2.078	1.947	1.874	1.681	1.625	1.684	1.647	1.674	1.853	1.851	2.049	1.893	1.782	1.929	1.974	2.023	2.072	2.182	2.057	1.958	1.813	1.581	1.218	1.043	0.871	0.799	0.971
635.0	200.6	195.6	138.9	85.07	55.92	60.58	81.96	118.3	171.2	225.9	286.7	307.8	279.3	210.8	100.4	52.64	39.24	126.6	1238	5117	482.4	12.52	8.368	7.244	6.610	5.652	5.658	5.109	5.132	4.778	5.132	4.808	4.644	4.396	4.361	4.082	3.716	3.500	3.264	2.802	2.622	2.681	2.586	2.231	2.324	2.341	2.291	2.005	1.929	1.752	1.729	1.506	1.416	1.434	1.448	1.524	1.456	1.403	1.519	1.667	1.799	1.864	1.811	1.904	1.890	1.942	1.960	1.975	1.867	1.854	1.708	1.645	1.312	1.015	0.836	0.683	0.704
640.0	183.4	170.5	137.1	79.96	61.76	63.57	81.73	115.0	166.3	221.9	285.1	297.6	265.6	209.8	112.1	57.35	40.29	50.37	309.7	3832	2505	34.25	8.213	6.894	5.839	5.075	4.842	4.398	4.952	4.526	4.511	4.190	3.968	3.837	3.706	3.611	3.340	3.028	2.702	2.545	2.377	2.421	2.244	2.012	2.044	2.013	1.872	1.902	1.728	1.562	1.377	1.395	1.266	1.235	1.371	1.411	1.329	1.317	1.404	1.416	1.574	1.709	1.761	1.733	1.749	1.880	1.991	1.722	1.654	1.643	1.667	1.547	1.261	0.952	0.870	0.865	0.703
645.0	182.6	158.8	126.4	84.53	62.27	65.03	85.46	116.5	167.5	224.2	276.1	295.2	262.4	204.3	125.8	64.19	42.47	34.94	88.61	1571	4441	252.4	8.888	6.831	5.999	4.777	4.405	4.238	4.456	4.073	3.916	3.647	3.826	3.674	3.261	3.332	2.968	2.854	2.465	2.108	2.145	2.248	2.026	1.857	1.908	1.894	1.834	1.714	1.472	1.421	1.333	1.357	1.053	1.128	1.128	1.199	1.138	1.392	1.407	1.266	1.463	1.620	1.557	1.581	1.568	1.703	1.749	1.683	1.637	1.538	1.478	1.506	1.318	1.091	0.877	0.790	0.779
650.0	181.0	160.0	126.1	84.50	59.05	62.77	88.26	119.4	165.7	222.0	267.4	290.6	256.5	198.8	132.5	68.76	44.80	32.82	39.92	430.9	4307	1284	12.62	6.436	5.540	5.072	4.211	4.075	3.901	3.628	3.419	3.362	3.230	3.272	3.263	2.848	2.511	2.629	2.108	2.040	1.826	1.835	1.959	1.715	1.688	1.749	1.745	1.492	1.436	1.298	1.075	1.212	0.998	1.051	1.023	1.078	1.016	1.217	1.202	1.321	1.372	1.377	1.578	1.622	1.633	1.796	1.627	1.614	1.649	1.464	1.506	1.219	1.391	1.086	0.852	0.820	0.757
