Sample:	'1
File name:	L2025090912Ðã·áÂ·ÇÅ.FD3
Run date:	'14:44:56, 09/09/2025
Operator:	Administrator
Comment:	'

Instrument
Model:	F-2700 FL Spectrophotometer
Serial number:	3064-004
ROM Version:	4J14000 07

Instrument parameters
Measurement type:	3-D scan
Data mode:	Fluorescence
EX  Start WL:	220.0 nm
EX  End WL:	600.0 nm
EX Sampling interval:	5.0 nm
EM  Start WL:	230.0 nm
EM  End WL:	650.0 nm
EM Sampling interval:	5.0 nm
Scan speed:	12000 nm/min
EX Slit:	5.0 nm
EM Slit:	5.0 nm
PMT Voltage:	700 V
Response:	Auto 
Corrected spectra:	Off
Contour interval:	50.000

Peak integration
Integration method:	Rectangular
Sensitivity:	1
Threshold:	1.000

Peaks
No.	ApexEX/EM(nm)	Height(Data)
1	225.0/580.0	36.00
2	225.0/620.0	26.34
3	230.0/340.0	892.4
4	230.0/555.0	59.30
5	230.0/630.0	25.62
6	235.0/345.0	888.1
7	235.0/585.0	36.46
8	235.0/600.0	29.25
9	235.0/625.0	20.98
10	240.0/520.0	237.6
11	240.0/615.0	22.79
12	245.0/530.0	224.1
13	245.0/605.0	23.12
14	250.0/540.0	214.9
15	255.0/280.0	677.2
16	255.0/555.0	194.9
17	260.0/285.0	882.5
18	260.0/565.0	170.8
19	265.0/290.0	939.3
20	265.0/580.0	172.1
21	270.0/295.0	 1288
22	270.0/385.0	 1155
23	270.0/590.0	146.3
24	275.0/305.0	 1601
25	275.0/605.0	151.3
26	280.0/310.0	 1589
27	280.0/615.0	121.9
28	285.0/315.0	 1579
29	285.0/340.0	 1275
30	285.0/360.0	 1216
31	285.0/630.0	95.74
32	290.0/320.0	 1517
33	290.0/645.0	82.62
34	305.0/340.0	983.0
35	310.0/345.0	875.1
36	315.0/355.0	755.1
37	320.0/360.0	812.4
38	325.0/365.0	802.0
39	335.0/380.0	760.0
40	340.0/385.0	749.1
41	350.0/400.0	663.2
42	355.0/405.0	628.0
43	365.0/420.0	527.8
44	370.0/425.0	486.0
45	415.0/485.0	131.3
46	425.0/495.0	94.39
47	430.0/505.0	78.30
48	435.0/510.0	65.41
49	445.0/525.0	47.47
50	450.0/530.0	39.07
51	460.0/340.0	3.565
52	460.0/545.0	26.65
53	475.0/565.0	11.91
54	485.0/580.0	7.176
55	505.0/275.0	3.147
56	510.0/280.0	3.449
57	520.0/285.0	3.940
58	530.0/290.0	4.336
59	540.0/295.0	6.150
60	545.0/300.0	7.544
61	545.0/380.0	5.504
62	550.0/305.0	7.076
63	560.0/310.0	6.896
64	570.0/315.0	6.975
65	575.0/290.0	68.72
66	575.0/320.0	7.453
67	580.0/325.0	7.090
68	585.0/375.0	5.686
69	595.0/330.0	5.915

Data points
	220.0	225.0	230.0	235.0	240.0	245.0	250.0	255.0	260.0	265.0	270.0	275.0	280.0	285.0	290.0	295.0	300.0	305.0	310.0	315.0	320.0	325.0	330.0	335.0	340.0	345.0	350.0	355.0	360.0	365.0	370.0	375.0	380.0	385.0	390.0	395.0	400.0	405.0	410.0	415.0	420.0	425.0	430.0	435.0	440.0	445.0	450.0	455.0	460.0	465.0	470.0	475.0	480.0	485.0	490.0	495.0	500.0	505.0	510.0	515.0	520.0	525.0	530.0	535.0	540.0	545.0	550.0	555.0	560.0	565.0	570.0	575.0	580.0	585.0	590.0	595.0	600.0
230.0	19.07	 1312	 8969	 3183	163.7	9.534	5.770	3.672	2.151	3.969	2.875	4.370	3.281	2.619	2.484	2.420	1.879	1.708	1.715	1.224	1.470	1.335	1.023	0.887	0.996	0.841	0.692	0.670	0.637	0.769	0.469	0.596	0.515	0.638	0.386	0.552	0.481	0.514	0.397	0.407	0.372	0.457	0.508	0.261	0.245	0.223	1.528	6.541	11.26	8.050	2.762	0.528	0.183	0.168	0.130	0.131	0.086	-0.001	0.008	0.000	0.021	0.050	-0.010	-0.015	-0.036	-0.047	-0.054	-0.049	-0.028	-0.075	-0.073	0.000	-0.115	-0.116	-0.122	-0.133	-0.132
235.0	44.06	332.2	 3823	 6590	 3383	240.0	7.837	5.396	3.703	7.232	3.060	4.709	2.815	3.006	3.403	2.490	1.771	1.889	1.362	1.069	1.464	1.683	0.790	0.954	0.844	0.963	0.566	1.000	0.686	0.922	0.309	0.648	0.543	0.619	0.279	0.725	0.351	0.606	0.404	0.214	0.454	0.383	0.334	0.493	0.565	0.349	0.630	1.812	4.425	7.978	10.27	9.320	4.872	0.824	0.261	0.089	0.225	-0.053	0.033	0.044	0.100	0.052	-0.047	0.002	-0.082	0.032	-0.058	-0.035	-0.075	-0.056	0.010	0.008	-0.071	-0.114	-0.140	0.032	-0.043
240.0	55.92	140.9	955.7	 3971	 7199	 1024	146.5	8.243	5.875	6.681	3.643	6.862	4.293	2.457	3.209	2.495	2.172	1.780	1.521	1.757	1.441	1.342	1.112	1.453	1.039	0.830	0.790	0.881	0.559	0.792	0.527	0.717	0.565	0.745	0.463	0.590	0.260	0.618	0.291	0.293	0.391	0.523	0.175	0.396	0.473	0.581	0.531	0.715	1.104	2.445	5.857	13.41	15.96	10.10	3.493	0.295	0.144	0.019	0.073	0.108	0.217	0.266	-0.117	0.068	0.012	-0.086	-0.050	0.144	-0.024	0.006	-0.038	-0.055	-0.149	-0.094	-0.144	-0.084	-0.033
245.0	36.39	122.8	289.8	 1071	 4837	 7881	860.8	50.19	6.047	8.938	4.926	7.074	5.163	3.101	3.534	2.774	2.268	2.012	1.590	2.161	1.511	0.963	0.924	1.370	0.868	0.650	1.071	0.832	0.897	0.250	0.361	0.605	0.419	0.472	0.398	0.543	0.289	0.511	0.385	0.382	0.407	0.413	0.308	0.405	0.262	0.685	0.876	0.562	0.673	0.695	1.500	4.608	11.81	18.74	18.30	8.600	2.087	0.167	0.014	0.038	0.080	0.052	-0.065	0.076	-0.031	-0.152	-0.109	0.006	0.006	-0.002	-0.130	0.046	-0.165	0.046	-0.156	-0.118	-0.092
250.0	18.19	71.12	217.8	349.5	 1285	 5941	 8117	 3138	219.1	15.50	8.457	9.566	5.541	4.405	4.213	2.655	2.767	1.696	1.847	2.166	1.452	1.165	0.956	1.005	1.105	0.756	1.061	0.822	1.006	0.538	0.448	0.590	0.504	0.485	0.326	0.313	0.310	0.332	0.463	0.454	0.539	0.446	0.502	0.304	0.217	0.313	0.594	0.825	1.096	0.784	0.694	1.248	3.032	6.607	12.09	17.61	21.57	17.66	8.381	2.138	0.252	0.141	0.010	0.084	0.079	-0.021	0.022	-0.096	0.007	-0.090	-0.087	-0.087	-0.163	0.058	-0.111	-0.134	-0.117
255.0	23.76	40.70	109.0	273.0	423.8	 1378	 4012	 9709	 4359	319.8	12.99	12.81	7.564	5.872	3.997	3.700	3.461	2.475	2.034	1.940	1.899	1.588	1.437	1.019	1.033	1.038	0.559	0.968	1.097	0.488	0.603	0.980	0.637	0.612	0.509	0.528	0.264	0.535	0.384	0.419	0.518	0.444	0.321	0.243	0.241	0.337	0.350	0.347	0.568	0.827	1.279	1.067	1.171	1.716	2.923	4.503	9.672	21.89	34.33	30.11	12.62	1.607	0.027	0.154	0.209	-0.001	0.020	0.047	-0.011	-0.089	-0.093	-0.112	-0.141	-0.040	-0.108	-0.060	-0.103
260.0	27.45	37.77	50.99	170.1	362.2	412.7	 1010	 4844	9999.9	 4358	164.2	15.97	10.90	8.453	6.006	3.794	3.148	2.485	2.297	1.990	1.631	1.700	1.508	1.261	1.151	1.235	1.417	0.948	0.937	0.551	0.726	0.854	0.673	0.459	0.486	0.365	0.537	0.631	0.361	0.444	0.407	0.299	0.445	0.222	0.294	0.309	0.390	0.282	0.452	0.425	0.895	1.429	1.649	1.246	0.916	1.449	2.533	6.164	17.14	37.40	45.78	29.97	7.448	0.677	0.146	0.079	0.061	-0.003	-0.102	0.005	0.003	-0.124	-0.174	0.055	-0.148	-0.074	-0.009
265.0	22.40	34.82	40.36	70.62	290.6	405.1	288.6	 1266	 6422	9999.9	 2843	91.47	13.98	11.62	7.193	5.104	4.343	3.048	2.796	2.558	2.148	1.549	1.766	1.639	1.152	0.817	0.947	1.450	0.855	1.108	0.702	0.933	0.762	0.338	0.656	0.413	0.344	0.443	0.330	0.551	0.378	0.221	0.441	0.485	0.249	0.319	0.348	0.384	0.455	0.383	0.431	0.763	1.536	1.961	1.514	0.706	0.804	1.675	4.452	12.27	29.29	52.31	46.83	24.70	3.344	0.207	0.121	0.077	0.023	-0.045	0.089	-0.056	-0.088	-0.011	-0.056	-0.068	-0.007
270.0	45.31	39.41	44.46	36.07	110.6	351.9	414.6	392.6	 1662	 8217	9999.9	9999.9	175.0	17.28	9.619	7.583	5.140	4.042	3.105	3.094	2.994	1.883	1.752	1.823	1.525	1.154	1.679	1.598	1.181	1.117	0.827	0.791	0.821	0.613	0.660	0.617	0.535	0.487	0.615	0.461	0.419	0.481	0.326	0.334	0.407	0.383	0.471	0.418	0.339	0.357	0.372	0.354	0.599	1.022	1.876	1.825	1.653	0.997	1.257	2.948	7.184	16.61	28.88	46.70	48.56	33.31	17.74	3.785	0.182	0.101	0.044	-0.038	-0.049	-0.010	0.035	-0.067	0.013
275.0	78.59	70.81	75.74	53.01	48.10	131.0	414.1	566.2	473.8	 1935	 4107	9999.9	9999.9	214.3	16.08	10.94	7.505	4.804	3.276	3.872	3.006	2.119	1.741	1.932	1.845	1.438	1.452	1.367	1.409	0.983	1.091	0.464	1.048	0.605	0.537	0.859	0.643	0.683	0.583	0.484	0.503	0.563	0.406	0.399	0.378	0.439	0.540	0.540	0.387	0.341	0.311	0.208	0.202	0.364	0.574	0.950	2.363	3.147	1.950	1.094	1.859	4.163	7.008	11.41	18.78	45.56	82.02	50.38	23.27	2.411	0.116	0.023	0.085	-0.034	0.139	0.099	0.025
280.0	123.5	119.3	109.2	78.83	43.85	73.15	197.5	677.2	522.3	555.5	 1085	 5903	9999.9	 2597	124.7	14.11	8.407	7.450	4.149	4.145	3.378	2.612	2.286	2.002	1.982	1.965	1.299	1.332	1.113	1.111	1.477	0.786	1.041	0.939	0.743	0.632	0.632	0.421	0.664	0.616	0.534	0.594	0.630	0.510	0.792	0.651	0.571	0.614	0.633	0.522	0.482	0.262	0.191	0.311	0.398	0.424	1.101	2.010	3.449	2.867	1.416	1.294	2.153	3.037	4.955	12.43	36.34	71.77	93.66	44.34	11.92	0.631	0.010	-0.025	0.046	0.062	0.030
285.0	151.5	160.6	145.8	109.4	55.79	66.72	104.4	366.3	882.5	442.9	422.4	 1629	 7466	9999.9	 1953	58.22	11.43	9.145	6.463	4.643	3.701	3.013	2.627	2.262	2.145	1.869	1.420	1.724	1.255	1.513	1.575	0.976	1.076	0.968	0.659	0.843	0.915	0.941	0.716	0.823	0.675	0.662	0.974	0.632	0.843	0.883	0.916	0.855	0.655	0.707	0.517	0.441	0.357	0.474	0.314	0.426	0.494	0.910	2.096	3.564	3.940	2.371	1.313	1.451	1.938	3.509	9.090	21.45	51.92	93.29	56.69	31.97	4.511	0.045	0.195	0.032	0.015
290.0	214.8	224.8	227.8	168.5	99.36	97.99	113.2	193.2	564.6	939.3	490.8	676.5	 2068	 6714	9999.9	 7378	107.2	14.79	9.177	6.211	5.032	4.282	3.008	2.489	2.381	2.350	1.888	2.008	1.530	1.492	1.349	1.097	1.266	1.146	1.116	0.845	0.911	1.129	0.923	0.942	1.051	0.999	0.922	0.899	1.137	0.988	1.022	1.218	1.040	0.808	0.725	0.639	0.633	0.516	0.509	0.517	0.681	0.947	1.108	1.658	2.835	3.983	4.336	3.399	1.957	2.158	3.201	5.901	12.90	27.39	41.23	68.72	65.10	62.26	21.67	4.881	0.207
295.0	245.7	287.7	297.3	223.9	151.0	150.0	155.0	196.2	325.2	673.2	 1288	819.5	866.6	 1786	 3588	9999.9	9999.9	139.2	12.57	8.664	6.759	4.991	4.468	2.942	2.395	2.410	2.463	1.832	1.833	1.612	1.839	1.235	1.051	1.012	0.842	0.912	0.882	1.223	1.209	1.033	1.066	1.266	1.140	1.187	1.232	1.286	1.175	1.802	1.375	1.134	1.003	0.916	0.580	0.604	0.511	0.818	0.723	1.030	0.970	1.383	1.728	2.152	2.942	5.593	6.150	3.768	2.546	3.076	4.643	7.405	10.33	16.71	22.93	57.82	107.0	57.05	31.58
300.0	263.5	328.8	338.9	278.9	190.9	179.5	197.5	241.5	315.9	497.0	 1126	 1447	770.3	771.3	 1062	 4418	9999.9	 7497	91.53	12.69	9.920	5.703	4.945	3.820	2.822	2.627	2.108	2.371	1.936	1.476	1.526	1.673	1.018	0.977	1.128	1.090	1.162	1.245	1.842	1.078	1.235	1.495	1.269	1.465	1.393	1.332	1.450	1.479	1.653	1.397	1.218	1.150	0.824	0.678	0.778	0.848	1.089	1.155	0.917	1.309	1.567	1.685	2.287	3.700	5.645	7.544	4.519	3.173	2.906	3.315	3.826	4.969	6.199	15.13	40.96	84.69	125.8
305.0	288.2	345.1	350.1	333.3	226.3	211.0	241.6	282.6	355.6	519.0	826.0	 1601	 1246	665.5	557.2	 1217	 6143	9999.9	 1265	52.16	12.18	7.504	5.743	3.799	3.336	3.353	1.943	2.351	1.853	1.984	1.393	1.447	1.379	1.131	1.126	0.969	1.203	1.656	1.418	1.252	1.445	1.168	1.019	1.479	1.217	1.455	1.529	1.459	1.636	1.544	1.085	1.143	1.021	0.890	1.103	1.009	0.991	1.209	1.064	1.531	1.413	1.626	2.386	2.716	3.967	6.046	7.076	6.478	4.215	2.972	2.968	2.482	2.643	4.672	10.09	22.88	62.21
310.0	315.0	391.5	420.5	369.3	275.8	248.6	282.5	335.7	413.1	574.5	782.7	 1147	 1589	 1166	586.7	540.8	 1604	 5638	9999.9	 5085	77.55	12.31	8.197	5.285	3.906	3.534	2.924	2.648	1.956	2.140	1.471	2.006	1.444	1.289	1.163	0.993	1.314	1.448	1.575	1.415	1.400	1.429	1.259	1.519	1.412	1.638	1.706	1.710	1.662	1.444	1.359	1.266	1.145	1.195	1.319	1.066	1.305	1.467	1.505	1.754	1.849	2.001	2.503	2.805	3.287	3.916	5.193	6.235	6.896	6.352	4.351	2.922	2.405	2.600	3.325	6.196	15.09
315.0	326.1	432.2	470.0	398.2	293.0	277.5	323.0	395.4	491.4	630.4	809.8	 1022	 1219	 1579	 1036	501.9	585.6	 1408	 3151	9999.9	 7790	102.9	11.42	7.526	5.338	4.569	3.798	2.765	2.537	2.260	1.896	1.743	1.564	1.329	1.176	1.049	1.268	1.254	1.507	1.427	1.589	1.421	1.309	1.480	1.504	1.371	1.744	2.059	1.626	1.433	1.263	1.157	1.357	1.402	1.274	1.426	1.409	1.721	1.544	2.309	2.329	2.230	2.552	2.923	3.224	3.465	4.099	4.561	4.941	6.129	6.975	5.962	3.522	2.857	2.222	2.906	4.355
320.0	340.7	475.9	574.3	486.1	336.0	314.2	356.9	441.2	536.4	694.7	894.9	 1043	 1128	 1312	 1517	709.3	420.5	504.4	833.3	 4045	9999.9	 6119	72.24	10.47	8.152	5.898	3.922	3.095	2.671	2.293	1.934	1.518	1.651	1.660	1.219	1.019	1.303	1.323	1.433	1.381	1.306	1.615	1.683	1.632	1.843	2.039	2.056	2.539	2.213	2.019	1.505	1.279	1.460	1.613	1.527	1.291	1.534	2.093	1.661	2.396	2.261	2.359	3.010	3.090	3.330	3.976	4.366	4.409	4.347	4.664	5.882	7.453	6.906	4.144	2.740	2.168	2.605
325.0	380.3	533.8	700.8	630.5	401.2	353.1	400.5	458.2	596.9	740.9	929.4	 1116	 1189	 1188	 1408	 1166	494.7	358.3	342.9	 1037	 6098	9999.9	947.9	41.66	9.379	7.049	4.436	4.304	3.256	2.766	2.014	1.717	1.847	1.497	1.298	1.096	1.535	1.610	1.423	1.918	1.599	1.282	1.491	1.542	1.645	2.384	2.605	3.028	3.112	2.448	1.878	1.567	1.372	1.502	1.474	1.458	1.865	2.103	2.134	2.759	2.160	2.771	3.126	3.343	4.071	4.064	4.271	4.546	5.049	5.226	5.349	5.726	7.090	6.838	4.517	2.911	2.464
330.0	390.7	584.6	776.3	727.9	486.7	393.8	417.0	500.2	635.0	769.4	966.8	 1158	 1227	 1205	 1151	 1194	909.6	444.1	286.8	376.0	 1522	 5414	9999.9	 6526	61.59	10.91	7.199	4.975	3.960	3.092	2.454	2.514	1.937	1.503	1.435	1.457	1.333	1.409	1.636	1.500	1.611	1.494	1.733	1.811	1.801	2.336	2.489	3.113	3.161	2.804	2.420	1.916	1.669	1.623	1.814	1.768	1.765	2.101	2.143	2.645	2.443	2.810	3.201	3.241	4.052	3.991	4.375	4.975	5.028	5.147	4.689	4.988	4.886	5.716	5.871	5.915	4.197
335.0	403.3	606.9	841.4	804.5	571.9	483.8	466.4	534.3	660.5	797.7	997.4	 1185	 1248	 1255	 1120	976.8	 1018	826.9	372.9	289.0	488.3	 1313	 3192	9999.9	 6175	85.40	10.57	6.930	4.990	4.063	2.949	2.633	2.022	1.604	1.753	1.496	1.552	1.383	1.686	1.193	1.356	1.384	1.547	2.232	1.937	2.806	2.723	3.191	3.302	2.820	2.490	2.272	1.841	2.025	2.008	2.018	2.062	2.106	2.571	2.713	2.555	3.233	3.290	3.854	4.205	4.335	4.508	4.574	5.095	4.992	4.962	4.879	4.523	4.376	4.999	5.089	5.866
340.0	400.8	630.6	892.4	854.2	638.4	535.9	517.0	564.3	687.8	833.3	 1014	 1184	 1250	 1275	 1121	924.4	849.9	983.0	593.5	303.5	290.0	425.8	820.3	 4247	9999.9	 4993	59.39	9.550	6.161	4.845	4.070	2.930	2.258	1.883	1.506	1.237	1.568	1.185	1.421	1.327	1.543	1.610	1.520	2.127	1.969	2.623	2.824	3.564	3.565	2.947	2.772	2.835	2.236	1.929	2.059	2.157	2.109	2.218	2.664	2.564	2.927	2.948	3.113	3.923	4.036	4.692	4.590	5.031	4.636	5.291	5.030	4.943	4.902	4.783	4.019	4.309	4.674
345.0	358.5	615.5	847.0	888.1	693.3	588.6	576.3	600.7	704.3	839.2	 1009	 1163	 1239	 1238	 1142	936.6	777.2	834.7	875.1	433.4	286.9	268.0	307.4	 1072	 6068	9999.9	784.5	39.29	8.142	6.301	4.525	3.568	2.758	1.893	1.557	1.500	1.787	1.486	1.552	1.522	1.382	1.534	1.633	1.962	2.173	2.402	2.568	3.196	3.467	3.011	2.902	2.607	2.486	2.394	2.223	2.160	2.660	2.194	2.670	2.666	2.935	3.341	3.142	3.549	4.019	4.121	4.622	4.838	4.802	5.113	5.525	5.194	5.169	4.758	4.437	3.846	4.019
350.0	362.5	586.8	803.5	840.0	755.8	674.1	663.4	679.8	760.2	889.2	 1008	 1145	 1210	 1224	 1138	973.2	789.3	724.7	794.2	732.0	429.1	291.3	251.3	374.9	 1522	 5615	9999.9	 5632	54.30	9.735	5.978	4.356	3.174	2.344	2.217	1.701	1.580	1.757	1.641	1.535	1.515	1.854	1.753	1.852	2.003	2.404	2.581	2.718	3.169	3.026	2.605	2.938	2.968	2.836	2.445	2.461	2.912	2.624	3.013	3.091	3.062	3.471	3.611	3.799	4.090	4.158	4.811	4.698	4.756	5.024	5.181	5.079	4.888	4.644	4.729	4.095	4.203
355.0	353.3	553.1	749.3	830.1	772.3	761.0	760.8	786.8	824.5	951.0	 1040	 1153	 1194	 1197	 1134	 1010	861.1	739.6	686.9	755.1	738.6	416.0	304.1	277.2	477.7	 1353	 3392	9999.9	 5344	75.21	9.516	5.613	4.652	3.197	2.540	2.216	1.650	1.635	1.357	1.713	1.732	1.817	1.770	1.776	2.231	2.341	2.685	2.984	3.123	2.973	2.763	3.112	3.343	3.314	3.061	2.956	3.019	2.877	3.214	3.062	3.225	3.893	4.044	3.762	4.095	4.246	4.923	4.183	5.181	5.005	4.926	5.089	5.042	4.301	4.205	4.174	4.144
360.0	354.5	509.4	719.4	828.7	827.7	846.8	841.0	853.7	903.4	 1006	 1082	 1183	 1209	 1216	 1149	 1026	896.9	777.1	695.5	669.9	812.4	622.0	371.8	295.2	285.0	431.7	861.5	 4615	9999.9	 4361	50.52	8.048	5.811	4.004	3.017	2.574	2.004	1.895	1.487	1.673	1.678	1.706	1.714	1.797	2.331	2.213	2.708	2.692	3.006	2.813	2.553	2.544	3.286	2.992	3.284	3.535	3.283	2.879	3.359	3.463	3.314	4.242	4.398	4.266	3.947	4.540	4.290	4.261	5.250	4.401	5.140	5.575	5.344	4.987	4.403	4.410	4.705
365.0	364.7	484.7	695.4	829.4	814.8	888.7	887.4	907.3	950.9	 1072	 1102	 1193	 1201	 1201	 1139	 1025	923.5	825.1	737.6	673.4	722.2	802.0	500.2	340.9	278.8	260.0	307.9	 1164	 6457	9999.9	698.2	30.10	7.013	5.157	3.362	2.668	2.170	2.254	1.588	1.955	1.786	1.319	1.630	1.547	2.315	2.323	2.799	2.609	2.788	2.833	2.708	2.914	3.316	2.996	3.400	3.615	3.473	3.255	3.482	3.540	3.663	4.198	4.461	4.341	4.255	4.373	3.947	4.580	5.247	4.987	5.096	4.996	5.113	5.359	4.760	4.399	4.627
370.0	331.6	486.5	647.8	824.8	866.3	902.8	932.4	951.5	 1016	 1091	 1132	 1184	 1191	 1181	 1125	 1043	949.7	871.9	782.0	724.1	680.7	741.0	729.9	492.2	337.2	273.2	229.5	373.9	 1618	 5869	9999.9	 2915	45.48	7.601	4.811	3.503	2.506	2.373	2.010	1.824	1.713	1.606	1.638	1.736	2.322	2.165	2.299	2.430	2.752	2.821	2.850	3.160	3.269	3.614	3.664	3.614	3.557	3.394	3.717	3.784	4.158	4.101	4.272	4.358	4.529	4.150	4.643	4.787	4.863	4.916	5.201	5.001	5.137	5.251	4.731	4.958	4.858
375.0	325.8	474.2	645.2	777.1	863.7	934.4	980.5	995.6	 1051	 1113	 1150	 1181	 1180	 1170	 1120	 1061	957.0	910.2	827.2	774.4	715.5	686.1	725.1	733.2	469.1	337.3	263.7	242.5	472.3	 1389	 3631	9999.9	 4435	57.44	7.423	4.926	3.629	2.601	2.343	1.825	1.987	1.650	1.732	2.035	1.801	2.036	2.030	2.794	2.865	2.950	2.457	3.296	3.255	3.579	3.615	3.468	4.048	3.733	4.083	3.966	4.060	4.373	3.854	4.169	4.116	4.760	4.201	4.733	4.859	5.332	4.885	5.061	5.327	5.686	4.657	4.710	4.803
380.0	327.7	440.3	611.0	801.8	864.1	954.6	 1009	 1024	 1050	 1099	 1130	 1172	 1163	 1163	 1124	 1052	965.6	928.0	859.9	815.3	754.0	696.3	680.3	760.0	637.5	399.0	305.3	244.5	243.2	406.8	899.7	 4861	9999.9	 3342	38.58	6.623	3.999	3.727	3.176	2.113	2.088	1.791	1.715	1.730	1.766	2.104	1.970	2.311	2.678	2.533	2.278	3.028	3.208	3.696	3.801	3.412	3.716	3.674	4.421	4.075	3.993	4.139	3.612	4.206	4.388	5.504	4.986	4.561	4.944	4.812	5.095	4.523	4.769	4.295	4.642	4.925	5.223
385.0	329.6	435.3	584.6	774.4	854.5	951.3	 1010	 1013	 1057	 1113	 1155	 1151	 1141	 1134	 1080	 1025	970.6	931.1	879.6	827.3	775.1	719.6	675.5	680.6	749.1	514.1	351.0	276.3	220.7	210.4	286.0	 1223	 6453	9999.9	544.6	21.49	5.883	4.551	3.366	2.485	2.241	1.753	2.186	2.004	2.004	1.921	1.933	2.576	2.692	2.893	2.607	3.053	3.611	3.779	4.027	3.359	4.207	3.968	3.760	4.056	3.726	4.302	4.030	4.003	4.316	4.633	4.353	4.487	4.845	4.742	4.850	4.582	4.944	4.714	5.049	4.765	4.761
390.0	310.4	420.7	561.2	712.4	837.5	959.7	 1000	 1015	 1062	 1098	 1113	 1122	 1121	 1097	 1061	997.9	961.8	918.8	883.2	841.5	796.1	752.9	702.2	658.7	686.5	671.5	467.9	332.6	257.6	205.6	177.6	353.2	 1618	 5605	 8307	 2232	35.09	6.281	4.316	3.256	2.488	2.272	2.162	2.147	2.078	1.876	1.747	2.225	2.650	2.518	2.480	2.887	3.425	3.276	3.906	3.593	4.067	3.865	3.902	3.798	3.870	4.111	4.440	4.007	4.392	4.133	4.620	4.324	4.395	4.265	4.953	4.398	4.801	4.889	4.925	4.950	4.958
395.0	297.5	411.8	538.9	681.7	792.3	926.8	996.4	 1032	 1040	 1090	 1091	 1097	 1073	 1069	 1016	981.2	938.9	911.9	875.9	834.4	820.7	774.6	732.5	676.1	638.3	651.0	643.0	442.7	306.6	241.6	186.9	187.1	431.0	 1306	 3194	 9231	 3453	47.45	5.818	4.219	3.427	2.699	1.982	2.099	1.974	2.057	2.095	2.410	2.691	2.101	2.449	3.212	3.267	3.143	3.257	3.444	3.890	3.891	4.008	4.244	4.464	3.526	4.087	3.841	4.176	4.130	4.702	4.519	4.146	4.380	4.637	4.602	4.955	4.214	4.811	4.647	4.701
400.0	310.0	406.5	510.8	668.5	802.2	890.5	947.4	 1032	 1041	 1064	 1072	 1076	 1039	 1035	 1016	942.2	913.0	893.4	868.7	838.5	813.3	772.6	736.9	696.1	635.3	604.3	663.2	564.8	363.1	279.3	215.8	169.4	184.5	354.4	780.2	 4483	 9311	 2620	30.66	5.158	4.218	3.308	2.371	2.047	2.191	2.464	2.021	2.564	2.298	2.074	2.368	2.971	3.511	3.192	3.132	3.700	3.774	3.876	3.820	4.045	4.219	3.918	3.912	3.932	3.754	3.850	4.330	4.413	4.681	3.995	4.415	4.401	4.686	4.753	3.995	4.867	5.171
405.0	290.8	367.1	516.0	643.9	781.2	865.0	947.8	 1009	 1011	 1067	 1050	 1057	 1033	996.8	975.4	917.7	898.4	877.3	855.4	835.2	804.3	774.2	733.7	696.4	652.8	603.2	601.1	628.0	452.3	315.8	243.4	184.1	147.3	152.1	224.3	 1125	 5643	 8558	457.8	16.07	4.863	3.236	2.707	2.200	2.288	1.968	2.172	2.010	2.549	2.289	2.395	3.077	3.540	3.373	3.416	3.532	3.837	3.410	3.725	3.963	3.613	3.399	4.112	4.082	3.646	4.364	4.159	4.400	4.162	3.943	3.863	4.468	4.568	4.204	4.184	5.064	4.670
410.0	294.0	368.2	497.4	641.1	745.4	843.6	934.3	982.9	 1016	 1026	 1019	 1035	 1001	973.2	934.8	890.6	854.4	840.1	827.7	809.3	781.3	758.6	734.3	695.2	664.7	611.0	572.3	580.2	558.3	410.9	287.6	217.3	166.5	127.2	116.3	297.1	 1407	 4648	 6387	 1964	29.61	5.253	3.828	3.014	2.262	2.331	2.453	2.098	2.335	2.423	2.504	2.810	2.996	3.155	3.238	3.362	3.699	3.515	3.836	3.930	3.569	3.703	3.906	3.854	3.883	3.957	4.047	4.091	3.868	4.273	3.964	4.376	4.258	4.443	4.081	4.861	4.843
415.0	263.9	349.2	487.0	607.5	726.3	824.9	931.8	961.9	994.5	990.5	994.9	977.2	953.5	936.0	889.2	841.4	818.4	813.8	789.4	770.0	752.3	736.9	710.1	688.0	648.8	613.5	574.2	529.0	527.6	526.7	359.3	247.6	192.5	140.7	109.5	127.0	354.4	 1071	 2513	 7178	 2920	41.62	4.837	3.751	2.909	2.315	2.024	2.123	2.426	2.543	2.401	2.633	3.086	3.260	2.779	3.336	3.779	3.506	3.518	3.892	3.984	3.760	4.254	3.832	3.685	3.571	3.835	3.449	3.954	3.812	3.829	4.212	4.458	4.372	3.986	4.245	4.329
420.0	265.6	333.1	463.3	603.8	690.9	802.2	887.1	942.6	993.6	982.9	969.8	949.3	930.7	908.5	854.0	810.1	782.3	775.3	759.9	745.0	736.7	716.9	687.0	669.1	648.3	611.9	572.4	528.6	493.4	527.8	441.1	285.0	210.8	154.9	116.6	96.75	126.9	273.1	608.0	 3496	 7353	 2178	25.95	4.812	3.337	3.183	2.240	2.505	2.684	2.294	2.391	2.699	2.673	3.026	2.616	2.977	3.888	3.375	3.408	4.175	3.919	3.792	4.139	3.649	4.049	3.904	3.939	3.492	3.964	3.365	3.787	3.780	3.793	4.415	4.213	4.035	3.994
425.0	266.4	330.4	438.1	590.7	678.7	779.8	840.4	905.7	971.8	966.0	958.9	930.9	909.9	874.8	824.2	794.5	763.5	737.9	726.0	724.2	705.6	690.4	674.3	653.1	645.0	598.2	563.4	525.1	482.8	480.7	486.0	351.2	234.7	173.3	129.9	100.2	84.79	100.9	166.3	877.1	 4486	 6524	415.3	12.86	3.917	3.455	2.649	2.358	2.398	2.112	2.242	2.755	2.815	2.873	2.766	3.484	3.316	3.517	3.229	3.656	3.644	3.675	3.838	3.845	3.749	4.012	3.029	3.450	3.644	3.206	3.851	3.994	3.667	3.854	4.000	3.978	3.885
430.0	856.7	321.4	415.8	549.4	638.7	739.1	810.3	881.8	931.8	932.2	934.3	909.8	868.5	828.0	786.8	751.1	724.5	701.5	684.4	684.3	670.8	660.7	649.5	633.1	620.0	591.8	567.4	527.5	483.4	453.9	440.2	413.9	298.0	200.8	150.1	115.6	89.07	74.78	75.74	224.8	 1117	 3512	 4186	 1631	26.81	4.942	3.436	2.542	2.837	2.320	2.122	2.645	2.753	2.758	3.210	3.254	3.537	3.254	3.455	3.839	3.833	3.577	3.580	3.756	3.547	3.624	3.498	3.410	3.412	3.264	3.445	3.578	3.625	3.461	3.920	3.658	3.792
435.0	 1953	419.3	396.0	522.6	610.0	682.9	786.7	834.7	912.1	912.8	914.3	878.1	833.8	807.0	751.5	706.5	679.6	660.7	648.5	637.7	632.4	630.1	620.2	606.8	596.4	580.2	556.0	525.3	489.8	452.8	407.6	388.0	369.7	250.1	171.6	132.3	103.6	81.20	65.41	86.57	277.3	806.7	 1776	 5759	 2576	36.93	4.804	3.247	2.757	2.416	2.560	2.846	2.691	2.883	3.209	3.023	3.134	3.261	3.237	3.428	3.555	3.593	3.690	3.244	2.978	3.622	3.122	3.296	3.455	3.430	3.405	3.259	3.445	3.230	3.345	3.575	3.496
440.0	 2572	 1006	375.0	492.5	559.7	658.3	757.8	840.1	880.9	897.3	894.7	857.1	816.3	774.0	733.9	675.5	650.6	629.8	622.1	609.0	604.3	607.7	589.8	586.0	578.6	570.1	543.3	517.5	483.3	453.5	398.8	363.7	368.0	303.9	196.7	144.0	112.9	88.84	67.96	61.29	93.68	203.9	432.1	 2815	 6227	 1894	21.84	4.276	3.429	2.755	2.672	2.285	2.655	3.053	2.921	3.005	3.369	3.431	3.390	3.230	3.066	3.686	3.488	3.656	3.448	3.335	2.785	3.300	3.092	3.196	2.944	3.123	3.238	2.972	3.289	3.379	3.362
445.0	 2005	 1875	401.3	485.3	551.6	631.0	726.9	808.3	843.0	877.6	857.2	851.9	795.2	741.9	693.1	647.9	625.5	612.0	596.7	577.7	583.1	570.8	568.9	563.2	555.6	544.6	527.7	507.2	480.3	446.9	397.3	350.5	329.5	330.9	239.3	159.9	122.5	95.30	76.93	60.79	57.13	72.93	118.7	701.3	 3796	 5759	347.9	12.51	4.309	3.071	2.637	2.385	2.867	2.812	2.622	2.825	3.395	3.612	2.960	3.332	3.202	3.868	3.597	3.292	3.318	3.243	2.826	3.347	3.248	3.426	3.001	2.894	3.337	2.801	3.333	3.092	3.401
450.0	838.5	 3116	 1202	445.2	526.2	611.6	676.4	756.5	822.5	851.9	832.1	810.0	750.0	702.5	656.1	606.7	575.1	562.5	546.1	538.7	540.5	532.6	528.4	522.8	519.5	511.8	497.4	479.8	463.1	436.2	396.7	350.0	304.6	297.1	272.1	198.0	138.7	107.4	84.87	68.28	56.20	49.00	52.82	176.6	945.1	 3127	 3713	 1545	23.15	4.096	3.087	2.820	2.827	2.817	2.615	2.790	3.054	3.362	2.944	3.290	3.147	3.507	3.405	3.194	3.138	3.342	2.745	3.165	2.933	2.946	3.177	3.052	3.087	2.520	3.035	3.219	3.321
455.0	335.8	 2052	 4367	621.0	490.8	560.4	632.9	698.8	782.0	819.8	785.0	780.9	702.7	647.2	603.8	565.7	533.3	509.2	501.6	493.9	501.4	481.6	483.0	477.9	478.7	476.9	469.4	450.2	440.6	418.3	383.4	340.1	296.3	260.1	247.7	237.4	167.4	118.3	93.50	75.07	60.57	50.59	42.57	63.41	229.5	716.2	 1554	 5115	 2193	28.17	4.267	3.194	3.025	2.780	2.383	2.166	3.159	3.159	2.738	3.171	3.212	3.020	3.060	3.251	3.185	3.012	3.118	3.098	3.213	2.687	2.921	2.958	3.087	2.474	2.685	2.928	2.614
460.0	216.9	873.8	 5420	 1317	443.7	548.3	608.3	654.3	756.0	779.8	735.4	731.2	675.6	619.8	575.6	531.1	503.0	484.2	469.5	465.8	461.1	446.3	450.3	449.7	446.3	442.4	437.6	426.9	421.9	400.9	374.3	338.4	286.9	251.2	220.8	229.7	197.6	133.7	101.5	84.58	66.18	55.06	44.63	41.92	72.52	177.6	373.6	 2444	 5382	 1536	17.64	3.999	2.883	2.992	2.530	2.537	3.084	2.894	2.993	3.183	3.290	2.952	3.184	2.787	3.075	3.062	2.735	2.611	2.797	2.493	2.955	2.689	2.534	2.831	2.851	2.700	2.404
465.0	189.0	375.7	 4069	 3771	488.3	507.7	594.2	638.6	683.1	731.1	708.9	701.9	632.2	592.9	546.8	512.6	470.9	450.5	449.5	428.8	427.2	422.2	423.0	418.3	421.1	416.3	406.6	405.3	391.5	383.6	359.1	323.5	282.1	243.7	210.0	203.9	207.2	157.5	106.8	89.73	71.66	59.03	47.62	39.84	40.47	58.77	99.86	607.2	 3257	 4786	281.8	9.812	3.686	3.113	2.765	2.939	2.693	2.969	2.916	2.911	2.986	2.799	2.792	2.786	2.753	2.728	2.751	2.357	3.094	2.234	2.934	2.374	2.498	2.684	2.493	2.681	2.127
470.0	183.5	252.2	 1569	 5326	 1640	467.2	520.5	595.0	634.4	668.8	683.6	647.4	594.5	544.4	506.0	458.1	427.1	409.2	403.1	387.4	383.7	380.4	378.5	380.5	380.6	379.2	373.6	373.7	363.8	355.1	335.6	304.7	266.8	233.6	202.0	183.9	180.4	171.7	131.8	96.82	76.06	62.53	51.48	43.36	36.44	35.53	40.64	150.1	806.7	 2578	 3424	 1246	21.87	3.940	3.245	2.720	2.970	2.736	2.485	2.546	2.628	2.769	2.698	2.849	2.799	2.751	2.505	2.561	2.293	2.299	2.270	2.107	2.429	2.391	2.418	2.289	1.813
475.0	172.9	214.8	535.5	 2970	 3726	601.9	468.3	530.9	575.5	604.8	628.5	590.5	532.3	497.2	448.2	411.1	382.3	361.4	359.8	353.8	339.6	332.6	341.9	337.7	337.0	339.0	332.7	334.2	330.1	320.3	305.2	283.3	247.4	221.7	194.3	167.6	153.9	150.6	152.4	109.6	80.86	67.62	54.51	46.29	38.23	33.36	30.25	50.22	193.0	587.5	 1274	 3510	 1754	29.09	4.259	2.847	3.150	3.115	2.363	2.584	2.272	2.877	2.557	2.446	2.703	2.493	2.039	2.288	1.996	2.206	1.905	1.945	2.207	1.898	1.953	1.999	1.987
480.0	154.5	203.9	295.0	 1148	 4069	 1081	440.1	489.1	548.9	563.2	579.6	544.2	508.4	465.5	425.2	382.9	359.9	332.4	329.8	322.6	315.4	308.8	317.3	312.3	309.4	310.9	309.1	311.5	303.9	301.0	286.0	264.5	232.0	210.1	187.1	159.7	144.0	132.4	142.5	126.0	87.79	66.91	57.64	47.68	39.62	34.04	28.58	28.71	57.58	143.2	302.5	 1558	 3776	374.4	18.67	3.798	2.985	2.879	2.336	2.791	2.308	2.334	2.001	2.311	2.242	2.224	1.988	2.106	2.274	1.903	2.210	2.035	1.814	1.965	1.601	2.085	1.774
485.0	142.3	200.1	229.2	459.5	 2807	 3067	457.4	466.6	483.0	540.2	533.9	512.1	473.6	434.0	394.1	364.5	329.4	314.5	308.5	295.4	294.0	286.7	288.2	283.8	289.7	287.1	290.5	286.4	282.5	280.4	267.4	247.9	222.6	197.6	177.6	155.3	139.6	124.9	124.7	131.3	100.5	70.01	59.49	49.29	39.88	35.34	29.89	25.53	27.63	44.76	78.83	381.8	 2187	 2985	319.7	8.692	3.480	2.915	2.638	2.322	2.275	2.280	1.987	2.180	2.287	1.989	2.328	1.917	2.194	1.688	1.813	1.895	1.549	1.848	1.594	2.086	1.521
490.0	133.6	187.7	221.3	282.8	 1102	 4386	 1881	434.1	454.0	484.0	492.8	471.4	433.9	407.3	357.2	336.2	301.1	287.3	277.4	267.4	260.8	257.6	256.1	258.2	255.2	258.2	259.2	260.1	257.0	256.1	244.0	230.9	207.9	182.9	165.7	148.2	130.1	117.6	109.6	110.6	108.5	83.38	61.76	50.58	42.66	36.74	31.80	26.83	23.16	23.45	28.88	95.31	535.0	 1622	 2626	 1219	22.63	3.460	2.739	2.453	2.464	2.205	2.020	2.128	2.117	1.903	1.933	1.828	1.713	1.760	1.659	1.869	1.752	1.702	1.442	1.680	1.329
495.0	105.5	147.7	212.4	236.7	439.6	 2672	 4712	553.6	415.1	429.5	443.9	431.0	396.6	371.9	330.6	297.3	266.2	255.7	243.1	234.4	231.6	227.2	225.7	227.6	229.4	227.7	230.1	232.2	228.1	231.7	219.8	204.6	187.0	167.1	155.1	138.9	123.4	109.8	100.6	92.41	93.01	94.39	69.75	52.74	43.11	36.92	31.99	27.36	22.96	19.51	18.60	31.07	127.8	370.3	985.1	 3169	 1796	29.66	3.319	2.638	2.163	2.107	2.407	2.007	2.076	1.552	1.954	1.617	1.614	1.515	1.717	1.398	1.703	1.314	1.314	1.530	1.267
500.0	96.55	109.8	208.1	249.6	272.6	 1052	 5221	 1521	387.5	394.6	401.8	398.6	361.3	326.5	302.3	265.2	242.8	232.9	219.7	215.3	210.7	210.3	208.0	202.2	203.1	204.9	208.5	208.9	209.2	212.6	198.6	190.6	172.7	156.2	144.4	129.1	116.6	105.7	94.85	85.63	79.95	87.33	77.81	54.60	43.29	36.86	32.82	27.85	23.65	19.58	16.18	16.74	37.30	89.85	231.6	 1382	 3574	394.5	18.11	3.057	2.244	2.192	2.248	1.970	1.889	1.725	1.784	1.452	1.442	1.380	1.504	1.297	1.326	1.229	1.195	1.268	1.449
505.0	83.77	105.2	189.0	249.2	218.4	426.6	 3560	 3607	400.5	373.6	376.2	363.4	328.3	303.0	277.2	243.9	229.1	208.8	201.0	197.4	195.0	191.0	189.1	185.5	188.8	189.0	189.3	187.6	192.3	192.7	183.4	172.1	159.5	147.2	134.3	122.7	109.8	99.06	88.38	79.49	71.35	73.58	78.30	61.34	44.23	36.01	31.57	28.03	23.22	20.49	15.55	14.13	17.15	27.07	58.31	333.8	 1960	 3069	332.8	7.014	2.607	2.188	2.042	1.924	1.700	1.544	1.541	1.378	1.583	1.524	1.153	1.107	1.267	1.090	1.164	0.913	1.128
510.0	75.30	96.29	139.3	238.5	212.2	263.6	 1283	 4541	 1278	340.0	336.3	318.6	299.7	269.2	241.7	220.3	198.9	188.0	178.2	172.3	170.2	164.6	165.8	165.2	160.9	165.4	165.0	168.6	169.5	170.3	162.4	153.3	144.9	131.3	120.4	109.6	98.21	90.03	82.57	74.20	66.02	61.93	65.09	65.41	50.86	36.86	30.60	27.93	23.43	19.12	16.41	13.91	12.65	13.49	19.32	80.49	474.8	 1567	 2363	 1012	21.21	2.474	2.125	1.668	1.681	1.526	1.435	1.179	1.153	1.315	1.131	1.054	1.073	0.941	1.080	0.907	1.074
515.0	58.04	81.94	108.9	181.5	227.6	195.8	461.4	 2440	 3341	491.3	293.8	283.8	266.0	240.1	221.5	196.0	169.1	169.8	155.1	152.6	149.2	146.7	141.2	143.4	142.2	143.6	144.2	146.7	146.9	145.4	142.3	134.3	124.9	116.3	105.8	96.27	86.98	81.51	74.23	67.43	59.90	54.92	52.69	55.59	55.20	43.00	31.16	25.91	23.23	20.27	16.61	15.28	11.46	10.63	10.74	23.27	110.9	354.7	837.5	 2556	 1331	27.13	2.405	1.917	1.468	1.497	1.522	1.079	1.264	1.037	1.094	0.962	1.058	0.987	1.003	0.879	0.922
520.0	63.41	71.62	97.83	134.0	237.6	190.7	257.1	890.1	 3733	 1361	277.5	254.7	234.2	212.4	201.5	170.6	158.3	151.1	139.3	136.7	131.2	126.8	127.1	123.9	128.4	128.4	127.3	128.3	131.7	129.8	128.0	119.9	115.1	105.7	96.29	86.73	79.35	73.94	67.14	61.93	56.83	50.50	46.67	46.45	54.01	46.92	32.64	25.46	22.73	19.15	15.87	14.11	12.85	10.33	8.620	10.60	29.68	83.58	196.2	 1121	 2651	385.5	13.92	2.057	1.603	1.432	1.164	1.191	1.162	1.077	1.090	0.839	0.848	0.799	0.832	0.814	0.865
525.0	66.24	72.28	83.56	115.7	199.5	200.6	188.8	368.9	 2436	 3090	329.8	228.9	219.3	195.0	168.6	162.3	143.0	135.0	130.6	128.4	121.3	116.0	118.3	115.0	115.5	113.6	115.0	116.3	119.7	120.0	115.5	110.5	103.1	97.40	88.62	79.04	72.76	67.98	62.83	56.72	54.73	45.46	41.59	40.68	44.70	47.47	36.38	25.49	21.04	18.22	15.08	13.66	12.33	10.33	8.578	7.952	11.53	22.94	48.52	269.0	 1453	 2255	304.2	5.340	1.982	1.280	1.266	1.281	1.038	0.805	0.938	0.960	0.873	0.627	0.489	0.748	0.885
530.0	50.66	61.11	71.45	103.0	154.6	224.1	171.9	216.7	872.6	 3612	 2167	210.5	187.5	171.2	154.2	141.7	127.3	121.2	112.4	111.2	104.5	102.6	102.1	99.20	102.8	99.30	99.86	102.7	102.0	104.7	100.6	96.49	91.18	83.52	77.69	70.56	64.83	61.93	55.85	51.77	47.01	41.64	39.34	35.19	35.36	38.84	39.07	29.67	21.50	17.16	14.39	12.77	11.18	9.914	8.852	7.604	7.818	9.156	15.13	64.01	351.5	 1144	 1727	721.3	19.10	1.751	1.352	1.252	1.075	0.864	0.805	0.644	0.714	0.704	0.456	0.415	0.663
535.0	49.36	51.87	66.67	73.03	110.6	206.6	182.2	155.2	321.7	 1674	 4934	356.0	162.2	149.7	130.4	120.1	111.8	99.52	97.01	94.55	87.62	88.99	84.97	86.60	85.04	84.31	85.95	86.83	90.41	85.94	88.11	84.49	78.07	73.71	66.31	61.04	58.17	52.51	48.63	44.63	41.51	37.47	34.76	31.99	30.15	29.21	34.61	31.80	23.65	16.51	13.10	11.60	10.27	8.778	8.575	7.447	6.789	7.076	7.451	17.77	81.55	258.6	631.5	 1843	408.2	23.00	1.654	1.251	1.258	0.998	0.954	0.733	0.613	0.746	0.627	0.438	0.480
540.0	41.84	48.78	60.02	70.38	96.33	156.1	214.9	144.9	190.8	602.6	 4902	 1385	151.1	129.7	123.9	107.1	100.7	91.47	84.03	85.57	80.57	80.15	77.91	76.88	74.64	76.81	76.07	77.05	78.34	77.34	75.29	76.28	69.10	65.11	60.61	55.04	52.06	48.18	43.73	40.84	37.42	34.21	31.28	27.38	26.92	25.01	27.51	30.60	25.96	16.84	12.56	11.07	9.961	8.883	7.983	7.563	6.534	6.225	5.408	7.336	21.74	60.80	147.2	832.2	 1856	354.1	8.682	1.504	1.132	0.901	0.958	0.706	0.642	0.594	0.661	0.518	0.375
545.0	40.90	42.86	56.30	68.93	76.27	109.5	214.7	141.2	138.3	256.2	 2925	 3195	176.5	119.2	102.9	97.66	90.18	80.51	74.81	76.27	71.14	69.60	68.54	68.12	67.05	68.64	68.25	68.75	68.85	69.98	70.55	66.50	61.49	57.94	53.31	50.04	47.53	43.30	40.83	37.02	34.52	31.00	28.99	25.53	23.67	23.04	22.03	25.88	26.65	18.77	13.24	10.40	8.779	8.725	7.321	6.466	6.804	5.864	4.590	5.180	8.164	16.76	35.81	200.8	 1096	 1664	53.81	3.052	1.228	0.986	0.740	0.730	0.710	0.694	0.447	0.472	0.252
550.0	37.64	43.57	47.41	60.86	66.67	81.10	163.5	167.6	118.5	153.5	935.3	 3615	 1172	106.9	91.91	85.58	75.03	71.89	64.14	63.84	60.31	57.35	57.62	56.34	55.88	56.55	58.03	57.17	58.22	57.56	58.27	54.59	52.34	48.24	46.17	42.20	39.83	36.88	33.86	30.83	28.89	25.87	24.07	22.88	20.75	19.13	17.79	18.84	21.39	20.04	14.56	10.35	8.313	7.566	6.642	6.141	6.207	6.172	4.667	4.224	4.820	6.520	10.70	47.43	267.1	872.6	 1172	233.0	15.47	1.312	0.926	0.994	0.725	0.562	0.308	0.411	0.381
555.0	39.07	40.13	59.30	57.83	57.77	62.85	95.84	194.9	116.1	112.7	297.4	 1519	 3509	225.1	75.47	70.13	62.12	56.10	52.46	53.16	51.45	46.32	46.03	45.10	44.78	45.64	45.80	47.99	46.75	46.71	47.54	43.89	42.63	39.34	37.09	34.14	33.13	30.72	27.21	25.87	24.19	22.10	20.50	18.22	18.44	16.21	15.22	14.24	14.51	17.66	16.32	10.66	7.094	6.138	6.103	5.414	5.448	5.697	5.191	3.992	3.815	4.213	5.174	12.84	62.10	197.6	458.9	 1203	369.2	16.15	1.255	0.931	0.600	0.399	0.476	0.263	0.289
560.0	37.95	43.80	50.17	38.93	43.82	57.19	72.52	169.8	133.9	95.70	143.2	482.5	 3694	 1087	70.59	60.26	53.80	48.83	45.19	45.51	44.23	37.93	38.73	39.20	38.76	37.75	38.97	40.94	38.07	38.92	40.51	37.62	36.37	33.03	31.99	28.79	27.39	25.05	22.83	20.79	20.69	19.94	17.78	16.37	14.50	13.43	13.05	12.17	11.72	13.39	14.69	11.42	7.139	5.537	5.356	4.812	5.274	4.881	5.079	4.241	3.725	3.919	3.859	5.387	16.06	47.05	108.6	585.0	 1164	274.8	4.405	1.161	0.883	0.414	0.481	0.257	0.221
565.0	31.80	40.54	45.53	37.14	41.56	44.58	61.20	126.8	170.8	89.90	105.6	186.1	 2086	 2632	84.17	52.14	47.07	41.22	37.82	37.33	36.86	35.93	33.92	31.68	33.74	34.67	33.19	34.95	32.83	35.00	33.92	32.28	29.55	28.65	26.63	24.62	23.45	22.11	20.62	18.58	17.94	17.13	15.68	14.53	12.80	12.07	11.21	10.62	9.864	9.841	11.78	11.91	7.933	5.801	4.652	4.720	5.247	4.843	4.543	4.747	4.237	4.184	3.719	3.914	6.742	13.28	27.02	144.8	726.6	958.3	49.69	2.124	0.928	0.557	0.476	0.223	0.242
570.0	34.16	35.33	38.65	31.40	33.55	42.55	47.97	80.66	164.1	102.9	84.64	103.5	636.2	 3145	882.8	45.23	36.55	34.31	32.98	30.10	29.09	27.55	25.90	25.78	26.73	27.90	27.09	26.95	27.74	27.82	27.49	25.38	23.93	22.82	21.01	19.62	19.17	17.70	16.55	14.73	14.76	13.55	12.70	11.52	10.22	10.19	8.932	8.887	7.762	7.480	8.228	9.737	8.414	6.011	4.325	4.491	4.476	4.292	4.018	4.440	4.582	4.484	4.226	4.137	4.758	6.377	9.601	35.84	182.2	532.4	551.9	205.8	10.09	0.787	0.465	0.253	0.245
575.0	22.90	32.28	36.97	29.57	28.68	37.53	36.41	51.07	110.7	150.3	77.78	85.24	194.2	 1261	 2861	122.4	29.15	26.04	26.57	23.78	24.74	21.67	20.26	20.74	22.01	20.28	21.09	20.80	22.57	21.55	21.75	20.82	18.58	17.84	16.36	15.87	14.82	14.12	12.94	11.49	11.02	10.39	9.866	9.012	8.318	7.708	7.858	6.967	6.285	6.376	5.871	6.355	8.042	6.868	4.609	4.424	4.068	3.792	3.767	4.054	4.256	5.095	4.390	4.727	4.664	4.820	5.516	11.76	43.74	122.1	258.0	708.6	262.3	6.206	0.540	0.343	0.108
580.0	30.19	36.00	35.97	31.04	29.33	31.76	33.44	42.70	68.24	172.1	85.37	75.25	98.96	384.8	 3076	731.2	27.20	22.31	21.08	20.08	20.54	19.35	17.29	18.30	18.86	18.21	18.64	17.99	17.89	17.29	17.86	18.07	16.21	15.31	14.26	13.17	13.08	11.76	11.47	10.21	9.441	8.726	8.490	7.641	7.154	7.037	6.856	5.861	5.464	4.982	4.777	4.850	5.999	7.176	5.378	3.817	3.710	3.403	3.674	3.818	3.515	4.648	4.354	4.609	4.666	4.869	4.889	5.473	12.87	30.25	62.62	356.6	661.9	53.52	1.727	0.398	0.290
585.0	28.92	35.92	32.38	36.46	25.05	29.23	32.41	42.27	49.60	148.1	111.7	71.13	72.07	128.2	 1701	 1893	37.61	19.91	18.77	16.77	15.85	16.08	14.99	16.17	15.81	13.89	15.41	14.41	14.99	14.96	15.76	14.45	12.88	13.18	12.57	11.34	10.53	10.25	9.304	9.248	8.675	7.393	7.373	6.704	6.645	5.566	5.869	4.920	4.630	4.218	4.251	3.504	4.601	5.545	5.321	3.966	3.280	3.091	3.366	3.586	3.540	4.174	4.387	4.397	4.224	3.972	4.185	4.133	5.451	9.725	15.87	89.99	433.0	444.2	41.48	0.695	0.236
590.0	25.36	30.33	33.37	24.16	20.82	26.77	29.12	33.98	40.55	94.63	146.3	77.60	67.31	66.25	497.1	 2336	595.5	18.82	16.38	14.49	13.42	12.68	12.55	12.38	12.14	12.08	12.91	11.94	11.87	12.80	12.18	12.33	11.08	10.84	9.940	9.271	8.290	8.015	7.388	7.087	6.868	5.993	5.604	5.544	5.268	4.911	4.503	3.859	3.892	3.675	3.207	2.768	3.309	4.176	4.656	4.433	3.387	2.766	2.767	2.926	3.095	3.418	3.532	3.902	3.480	3.475	3.413	3.405	3.176	4.165	5.205	21.45	109.5	303.3	387.9	134.1	5.179
595.0	19.68	26.06	27.31	23.04	20.46	23.65	24.29	29.18	32.20	58.91	135.8	106.1	59.32	52.35	141.7	925.7	 2040	63.68	13.49	11.92	10.88	11.08	11.24	10.56	10.23	10.10	10.17	10.02	9.154	9.737	9.122	8.761	9.089	7.698	7.458	7.143	6.906	6.514	5.756	5.448	5.263	4.796	4.378	4.371	4.018	3.696	3.604	3.092	3.544	2.682	2.331	2.198	2.556	2.791	3.349	3.888	3.464	2.344	2.318	2.394	2.069	2.530	2.970	2.819	2.971	2.938	2.658	2.875	2.497	2.357	2.533	5.655	25.08	69.07	175.6	424.7	58.24
600.0	17.92	28.18	27.35	29.25	19.43	21.47	24.73	27.52	33.72	49.91	108.9	139.8	64.34	48.74	58.89	264.5	 2207	193.5	11.83	10.66	9.190	9.934	9.089	9.268	7.815	8.405	8.073	8.575	8.202	7.975	8.104	6.842	7.313	6.844	6.020	6.348	5.839	5.109	5.659	4.734	4.491	3.991	4.240	3.463	3.490	3.019	3.280	2.750	2.689	2.283	2.006	1.606	2.015	1.961	2.176	3.519	3.357	2.301	1.933	1.710	1.739	1.805	2.434	2.131	2.515	2.783	2.525	2.185	1.911	2.043	1.626	1.961	6.342	16.05	42.11	231.0	364.1
605.0	23.17	25.52	25.70	24.11	20.34	23.12	21.08	26.27	35.61	43.31	77.08	151.3	72.40	47.66	39.50	79.79	 1248	 1277	17.71	9.376	8.248	8.586	7.578	7.066	6.732	7.325	7.572	6.597	7.412	6.980	6.667	6.344	6.258	5.663	5.580	4.636	4.742	4.800	4.623	3.767	3.609	3.025	3.672	2.728	2.865	2.949	2.712	2.418	2.140	2.175	1.882	1.632	1.490	1.672	1.631	2.313	3.109	2.690	2.058	1.386	1.570	1.585	1.875	1.754	1.816	2.286	2.046	1.807	1.509	1.641	1.251	0.996	1.930	4.022	9.771	58.58	259.9
610.0	17.20	24.37	26.39	19.87	21.63	19.21	20.48	26.66	34.27	39.37	58.26	120.0	101.2	47.26	36.05	36.18	359.9	 1639	407.8	9.223	6.766	6.605	6.436	5.861	5.552	5.609	6.179	5.750	5.432	5.383	5.587	5.676	4.719	4.389	4.407	4.299	4.025	3.660	3.510	3.173	2.995	2.545	2.568	2.354	2.451	2.036	2.266	1.880	1.900	1.680	1.550	1.249	1.233	1.101	1.343	1.516	2.149	2.469	2.076	1.471	1.381	1.269	1.538	1.577	1.391	1.734	1.903	1.669	1.229	1.231	0.892	0.868	0.789	1.185	2.414	13.34	66.05
615.0	15.09	24.66	23.95	21.27	22.79	18.12	16.86	30.54	31.30	40.26	55.91	80.43	121.9	55.32	34.99	26.63	92.03	666.3	 1349	39.88	5.404	5.357	4.997	4.824	4.421	3.985	4.390	4.892	4.416	4.216	4.109	4.717	3.475	3.420	3.540	3.392	2.937	2.901	2.601	2.490	2.569	1.780	2.015	1.951	1.898	1.745	1.849	1.486	1.372	1.251	1.195	1.031	1.191	0.790	0.901	1.179	1.317	1.830	1.731	1.873	1.169	0.919	1.223	1.155	1.007	1.488	1.121	1.460	1.225	1.004	0.850	0.687	0.686	0.542	0.748	3.093	14.77
620.0	7.413	26.34	23.20	17.93	14.88	15.82	20.79	24.94	28.79	39.15	50.41	62.91	118.8	71.82	36.24	25.57	33.69	191.9	 1599	151.5	5.724	4.488	4.084	3.911	4.144	3.605	3.798	3.403	3.570	3.795	3.241	3.445	2.558	2.930	2.647	3.183	2.517	2.912	2.391	1.904	2.141	1.713	1.543	1.594	1.349	1.468	1.384	1.277	1.315	1.039	1.135	0.742	0.884	0.884	0.916	0.913	0.870	1.409	1.787	1.794	1.084	0.727	1.029	0.902	0.752	1.104	1.188	1.086	1.303	0.808	0.659	0.529	0.323	0.338	0.372	0.861	3.544
625.0	8.166	18.75	20.32	20.98	12.38	14.57	21.96	23.28	32.29	36.61	48.55	56.62	90.05	91.75	39.49	26.17	19.94	53.87	943.0	975.5	8.916	3.752	3.766	3.690	3.011	3.188	3.221	2.707	3.278	2.869	2.441	3.020	2.460	2.440	2.776	2.828	2.218	2.382	2.030	2.026	1.786	1.469	1.314	1.130	1.209	1.342	1.213	1.002	0.889	0.975	0.852	0.622	0.749	0.638	0.787	0.699	0.739	0.939	1.446	1.638	1.402	0.771	0.983	0.877	0.786	1.200	0.802	0.957	0.917	1.102	0.846	0.338	0.365	0.285	0.429	0.375	0.942
630.0	14.37	17.18	25.62	17.10	14.23	14.59	19.00	23.68	26.73	36.00	44.25	50.27	65.11	95.74	49.17	24.96	17.22	21.33	272.5	 1284	289.2	5.007	3.377	2.665	3.102	2.648	2.410	2.502	2.632	2.627	2.200	2.653	2.163	2.169	1.836	1.831	1.718	1.637	1.574	1.707	1.316	1.354	1.154	1.013	0.979	0.956	1.157	0.919	0.907	0.822	0.596	0.586	0.537	0.480	0.473	0.736	0.557	0.774	0.917	1.096	1.138	0.975	0.708	0.577	0.632	0.688	0.751	0.585	0.557	0.747	0.686	0.437	0.364	0.335	0.199	0.259	0.323
635.0	10.14	15.11	23.95	17.19	11.30	15.76	16.45	23.31	26.57	36.45	43.70	49.20	54.39	77.38	70.31	27.77	18.48	15.08	68.12	551.8	 1079	23.41	3.191	2.662	2.106	2.411	2.259	1.628	2.233	2.205	1.648	2.196	1.619	1.651	1.505	1.498	1.205	1.173	1.061	1.257	1.171	0.889	1.042	0.603	0.843	0.705	0.811	0.798	0.658	0.627	0.539	0.405	0.292	0.191	0.294	0.545	0.503	0.471	0.682	0.713	0.840	0.754	0.857	0.507	0.533	0.649	0.610	0.437	0.574	0.473	0.459	0.441	0.423	0.196	0.342	0.075	0.146
640.0	15.20	19.38	24.34	22.83	15.26	12.92	15.98	18.01	25.59	35.25	41.61	50.85	52.90	61.72	82.40	31.87	18.61	13.74	21.91	154.2	 1323	120.5	3.300	2.391	2.044	1.636	1.735	1.534	1.576	1.388	1.327	1.618	1.394	1.060	1.240	1.191	1.137	1.022	1.042	0.967	0.908	0.921	0.907	0.512	0.811	0.795	0.717	0.550	0.486	0.525	0.561	0.327	0.206	0.374	0.369	0.519	0.436	0.322	0.433	0.434	0.628	0.762	0.532	0.475	0.500	0.471	0.551	0.461	0.370	0.438	0.319	0.472	0.628	0.111	0.501	0.097	0.093
645.0	21.94	11.70	29.53	21.45	17.25	12.31	16.29	18.81	27.31	31.04	41.24	49.27	51.53	56.20	82.62	41.80	18.89	14.19	11.79	41.41	835.1	704.1	5.167	2.234	1.768	1.706	1.675	1.481	1.583	1.504	1.284	1.515	1.165	1.175	1.198	0.966	1.068	0.834	0.855	0.963	0.835	0.706	0.734	0.630	0.704	0.633	0.650	0.479	0.496	0.377	0.515	0.308	0.317	0.299	0.391	0.461	0.279	0.320	0.315	0.304	0.464	0.998	0.643	0.857	0.374	0.574	0.572	0.325	0.274	0.351	0.263	0.346	0.481	0.203	0.269	0.028	0.150
650.0	41.46	13.24	26.87	19.69	16.04	17.67	13.78	18.68	23.19	28.66	44.97	50.66	53.32	47.54	65.33	55.09	20.06	14.19	9.519	15.43	295.6	 1142	50.81	2.428	1.435	1.577	1.584	1.269	1.438	1.274	1.358	1.132	0.920	1.006	1.165	1.066	0.831	0.928	0.703	0.822	0.801	0.667	0.801	0.633	0.509	0.516	0.545	0.627	0.441	0.365	0.392	0.350	0.281	0.319	0.304	0.349	0.294	0.311	0.299	0.251	0.395	0.507	0.439	0.593	0.281	0.318	0.407	0.486	0.328	0.286	0.232	0.386	0.338	0.302	0.225	0.110	-0.019
