Sample:	'1
File name:	S2025080901Äþ´ÞÂ·ÇÅ.FD3
Run date:	'15:58:53, 08/10/2025
Operator:	Administrator
Comment:	'

Instrument
Model:	F-2700 FL Spectrophotometer
Serial number:	3064-004
ROM Version:	4J14000 07

Instrument parameters
Measurement type:	3-D scan
Data mode:	Fluorescence
EX  Start WL:	220.0 nm
EX  End WL:	600.0 nm
EX Sampling interval:	5.0 nm
EM  Start WL:	230.0 nm
EM  End WL:	650.0 nm
EM Sampling interval:	5.0 nm
Scan speed:	12000 nm/min
EX Slit:	5.0 nm
EM Slit:	5.0 nm
PMT Voltage:	700 V
Response:	Auto 
Corrected spectra:	Off
Contour interval:	50.000

Peak integration
Integration method:	Rectangular
Sensitivity:	1
Threshold:	1.000

Peaks
No.	ApexEX/EM(nm)	Height(Data)
1	225.0/610.0	43.40
2	230.0/605.0	48.68
3	230.0/620.0	46.46
4	230.0/645.0	41.56
5	245.0/630.0	38.36
6	250.0/545.0	258.5
7	255.0/280.0	565.4
8	255.0/555.0	218.6
9	260.0/285.0	699.2
10	260.0/565.0	171.6
11	265.0/290.0	711.4
12	265.0/420.0	 1245
13	265.0/580.0	167.6
14	270.0/295.0	 1096
15	270.0/595.0	142.1
16	275.0/305.0	 1444
17	275.0/375.0	 1330
18	275.0/605.0	135.9
19	280.0/310.0	 1472
20	280.0/340.0	 1260
21	280.0/385.0	 1330
22	280.0/615.0	125.4
23	285.0/315.0	 1505
24	285.0/345.0	 1271
25	285.0/630.0	95.08
26	290.0/320.0	 1388
27	290.0/640.0	75.41
28	305.0/340.0	904.7
29	310.0/350.0	806.5
30	315.0/355.0	815.1
31	315.0/405.0	 1118
32	320.0/360.0	881.0
33	325.0/370.0	893.4
34	330.0/375.0	907.7
35	335.0/380.0	931.1
36	340.0/385.0	918.1
37	505.0/275.0	2.914
38	510.0/280.0	3.356
39	520.0/285.0	4.259
40	530.0/290.0	3.833
41	530.0/435.0	5.843
42	540.0/295.0	5.858
43	545.0/300.0	6.419
44	550.0/305.0	7.146
45	560.0/310.0	7.103
46	570.0/315.0	8.016
47	575.0/320.0	7.114
48	580.0/325.0	7.571

Data points
	220.0	225.0	230.0	235.0	240.0	245.0	250.0	255.0	260.0	265.0	270.0	275.0	280.0	285.0	290.0	295.0	300.0	305.0	310.0	315.0	320.0	325.0	330.0	335.0	340.0	345.0	350.0	355.0	360.0	365.0	370.0	375.0	380.0	385.0	390.0	395.0	400.0	405.0	410.0	415.0	420.0	425.0	430.0	435.0	440.0	445.0	450.0	455.0	460.0	465.0	470.0	475.0	480.0	485.0	490.0	495.0	500.0	505.0	510.0	515.0	520.0	525.0	530.0	535.0	540.0	545.0	550.0	555.0	560.0	565.0	570.0	575.0	580.0	585.0	590.0	595.0	600.0
230.0	30.91	 1100	 7626	 4011	251.7	22.24	18.43	14.01	10.39	10.35	8.948	7.262	7.317	7.173	5.926	4.749	4.504	4.431	3.954	3.285	3.421	2.953	2.626	2.786	2.403	2.604	2.302	2.012	1.999	1.939	1.803	1.766	1.570	1.576	1.570	1.401	1.428	1.198	1.262	1.122	1.152	1.076	1.142	1.112	0.886	0.919	1.854	6.507	11.97	9.551	4.568	1.325	0.683	0.715	0.710	0.747	0.662	0.610	0.585	0.560	0.607	0.596	0.604	0.596	0.607	0.524	0.473	0.500	0.580	0.460	0.530	0.539	0.541	0.500	0.478	0.490	0.481
235.0	50.28	289.4	 3295	 8167	 5745	436.9	26.90	15.86	12.76	9.153	9.719	8.850	8.381	6.533	6.971	5.338	5.308	3.768	4.233	3.422	3.221	3.056	2.821	3.021	2.466	2.180	2.304	1.895	1.994	2.205	1.468	1.815	1.667	1.284	1.404	1.340	1.305	1.274	1.299	1.254	1.198	1.287	1.121	1.106	1.002	1.036	1.174	2.159	4.709	8.132	11.97	13.45	7.366	2.265	0.786	0.544	0.768	0.740	0.562	0.756	0.461	0.559	0.788	0.547	0.430	0.501	0.513	0.583	0.567	0.554	0.530	0.452	0.525	0.638	0.516	0.531	0.384
240.0	59.12	120.6	816.0	 4628	9999.9	 5432	300.7	19.28	12.55	11.01	9.456	8.625	8.433	6.167	5.676	5.743	4.764	4.160	4.443	3.442	3.448	2.988	2.963	2.707	2.295	2.261	2.188	2.159	2.120	2.362	1.845	1.682	2.044	1.307	1.385	1.281	1.594	1.470	1.396	1.218	1.175	1.208	1.034	1.173	1.217	1.222	1.038	1.127	1.737	2.515	6.141	16.12	19.21	14.42	5.291	1.107	0.743	0.814	0.521	0.657	0.643	0.719	0.741	0.531	0.544	0.426	0.601	0.566	0.525	0.554	0.471	0.433	0.578	0.494	0.561	0.612	0.449
245.0	46.01	110.5	243.4	 1243	 7788	9999.9	 4839	111.6	15.88	15.86	10.53	9.079	10.51	8.283	6.264	5.920	4.797	4.764	4.354	3.913	4.053	3.421	3.120	3.135	2.500	2.851	2.494	2.384	2.142	2.503	1.475	1.817	1.958	1.537	1.491	1.273	1.539	1.388	1.400	1.109	1.275	1.203	0.959	1.012	1.129	1.057	1.320	1.141	1.253	1.218	2.082	5.379	12.16	21.91	23.65	13.17	4.075	0.874	0.722	0.834	0.592	0.683	0.839	0.615	0.630	0.559	0.574	0.565	0.567	0.587	0.604	0.419	0.615	0.520	0.450	0.579	0.469
250.0	33.86	72.02	171.4	378.6	 2043	 9465	9999.9	 7404	265.1	21.95	13.65	13.01	11.55	8.337	6.816	7.493	5.795	5.595	4.821	3.903	3.760	3.329	3.248	3.019	2.738	2.713	2.534	2.471	2.162	2.312	1.853	1.651	1.907	1.453	1.455	1.457	1.305	1.325	1.398	1.231	1.261	1.361	1.138	1.143	1.078	1.050	1.230	1.353	1.428	1.224	1.274	1.797	3.476	7.121	12.92	20.78	25.79	23.52	14.57	4.643	0.896	0.628	0.699	0.544	0.646	0.633	0.653	0.578	0.637	0.546	0.700	0.438	0.483	0.611	0.574	0.600	0.469
255.0	38.37	56.96	103.6	273.9	600.0	 2192	 5558	9999.9	 4939	376.9	22.21	14.11	10.72	11.61	7.748	8.037	6.050	5.852	4.895	4.169	4.041	3.241	3.279	3.279	2.844	2.245	3.262	2.629	2.373	2.441	2.254	1.975	2.091	1.437	1.813	1.618	1.258	1.318	1.349	1.132	1.157	1.124	1.074	1.215	1.109	1.024	1.064	1.168	1.203	1.238	1.553	1.769	1.735	2.240	3.725	5.440	9.465	22.56	42.92	43.38	23.37	5.431	0.926	0.844	0.760	0.678	0.604	0.674	0.665	0.546	0.749	0.452	0.533	0.715	0.389	0.622	0.656
260.0	35.41	45.33	64.59	162.2	383.0	590.3	 1393	 7411	9999.9	 4276	224.3	21.06	16.49	10.62	9.816	8.145	5.998	5.869	5.476	4.211	4.633	3.496	3.847	3.020	3.345	2.981	2.483	2.294	2.458	2.155	2.144	2.053	1.837	1.834	1.568	1.813	1.124	1.135	1.207	1.202	1.251	1.164	1.372	1.168	1.059	1.058	0.947	0.950	1.016	0.886	1.225	1.641	2.120	1.593	1.524	1.853	2.770	6.283	18.47	39.88	58.86	42.52	18.15	3.096	0.756	0.593	0.635	0.664	0.583	0.588	0.676	0.484	0.551	0.490	0.532	0.639	0.626
265.0	44.49	51.17	48.84	77.83	269.0	404.5	388.5	 1976	 7357	9999.9	 3292	118.2	21.92	14.49	10.98	9.004	6.719	6.213	6.025	5.172	4.732	4.010	4.071	3.400	3.126	2.902	2.680	2.740	2.538	2.556	2.298	1.992	1.781	1.932	1.542	1.829	1.166	1.379	1.080	1.147	1.302	1.169	1.134	1.176	1.023	0.993	0.884	0.937	0.911	0.878	0.927	1.256	1.758	2.180	1.996	1.199	1.328	1.984	4.977	11.92	30.25	58.58	72.08	39.14	9.911	1.144	0.543	0.819	0.552	0.691	0.748	0.630	0.781	0.764	0.578	0.617	0.581
270.0	51.33	59.16	54.50	53.36	123.4	312.6	401.8	543.7	 1891	 6895	9999.9	9999.9	203.0	22.26	15.84	12.13	8.955	7.873	6.550	5.640	4.857	4.333	3.794	3.506	3.085	2.988	2.864	2.879	2.558	2.635	2.178	2.076	1.894	1.650	1.686	1.837	1.462	1.298	1.192	1.250	1.321	1.268	1.248	1.084	1.258	1.076	1.095	1.051	0.925	0.966	0.834	1.055	1.061	1.316	1.840	1.946	2.142	1.678	1.795	3.423	7.734	17.05	33.90	53.92	57.08	64.19	25.88	10.60	1.127	0.709	0.729	0.669	0.685	0.741	0.592	0.697	0.562
275.0	72.01	82.11	69.38	63.88	69.16	132.2	368.4	517.6	516.0	 1620	 4179	9999.9	9999.9	256.3	25.55	17.05	12.05	8.678	7.132	5.690	5.122	4.956	3.729	3.561	3.787	3.354	3.028	2.968	2.808	2.708	2.461	2.521	2.016	1.660	1.985	2.018	1.720	1.401	1.220	1.227	1.491	1.338	1.503	1.266	1.334	1.120	1.085	1.209	1.187	0.937	0.924	0.947	0.927	1.033	1.071	1.309	2.449	2.914	2.456	1.847	2.487	4.637	8.345	13.15	18.97	48.12	98.77	114.2	38.51	8.829	0.917	0.958	0.579	0.888	0.591	0.705	0.921
280.0	83.99	112.6	96.21	86.19	77.92	90.04	183.9	565.4	449.8	458.8	 1074	 5683	9999.9	9999.9	164.2	23.12	14.56	9.974	7.946	7.423	6.598	5.393	5.006	4.102	3.486	3.795	3.425	3.012	2.506	3.066	2.670	2.560	2.279	2.001	2.082	1.883	1.953	1.339	1.433	1.522	1.348	1.413	1.398	1.307	1.324	1.331	1.226	1.170	1.207	1.078	1.081	1.002	1.010	0.973	1.031	1.126	1.305	2.180	3.356	3.222	2.307	1.917	2.643	3.791	5.030	12.94	35.80	88.97	130.9	54.20	26.92	3.264	0.815	1.089	0.742	0.812	0.782
285.0	122.5	144.2	138.5	109.5	97.17	86.29	115.4	331.9	699.2	357.4	394.7	 1534	 8339	9999.9	 2106	103.5	20.19	13.37	8.583	8.393	7.535	5.352	5.425	4.669	3.669	4.142	3.515	3.723	2.780	2.968	2.871	2.688	2.276	2.147	1.943	1.735	2.025	1.610	1.692	1.447	1.460	1.461	1.281	1.528	1.396	1.501	1.300	1.366	1.368	1.079	1.100	1.117	0.934	0.893	0.865	0.995	1.004	1.519	1.939	3.330	4.259	2.647	1.633	1.847	2.114	3.976	9.250	23.64	58.55	112.4	144.4	47.14	13.95	1.260	0.784	0.988	0.836
290.0	145.8	189.7	199.9	152.6	130.3	125.7	128.2	198.7	477.3	711.4	450.0	611.2	 2238	 7553	9999.9	 8027	124.3	22.58	13.73	9.833	8.373	7.126	6.669	5.216	4.711	4.580	4.076	3.562	3.244	3.129	2.904	2.647	2.475	2.266	2.031	2.042	2.028	1.902	1.923	1.693	1.585	1.507	1.471	1.693	1.647	1.697	1.596	1.821	1.444	1.334	1.140	1.381	0.986	1.165	1.041	1.030	1.209	1.290	1.558	1.791	2.835	3.477	3.833	3.568	2.374	2.679	3.485	7.005	14.88	30.27	61.59	89.27	116.4	95.07	29.06	11.92	1.425
295.0	172.9	258.2	283.3	234.4	195.2	187.9	173.9	223.4	313.6	575.1	 1096	718.2	860.9	 1988	 3719	9999.9	9999.9	160.0	22.43	14.50	11.21	8.869	7.593	5.615	5.333	4.446	4.284	3.437	3.658	3.400	2.905	2.821	2.987	2.636	2.071	2.340	2.116	2.017	1.602	1.813	1.704	1.617	1.589	1.820	1.885	1.898	1.878	1.694	1.693	1.512	1.480	1.507	1.362	1.411	1.142	1.199	1.464	1.412	1.753	1.656	2.037	2.212	3.047	4.673	5.858	3.962	3.012	3.672	5.731	8.758	15.55	21.58	33.15	67.35	143.4	163.3	44.71
300.0	202.9	308.6	327.5	286.2	267.5	228.4	231.5	265.2	333.0	472.7	 1017	 1241	745.2	843.6	 1114	 4973	9999.9	 8973	114.6	18.79	14.43	10.52	7.982	6.888	5.958	4.777	4.853	3.886	3.672	3.956	3.420	3.147	2.919	2.588	2.267	2.347	2.256	2.050	2.003	1.849	1.850	1.776	1.775	1.981	1.999	1.962	1.958	1.668	2.094	1.644	1.576	1.390	1.592	1.600	1.287	1.472	1.486	1.877	1.969	1.702	2.168	2.257	2.720	3.401	5.069	6.419	5.661	3.966	4.026	4.434	5.478	6.758	8.912	17.10	48.28	121.8	175.0
305.0	232.3	322.8	377.4	336.6	303.8	264.8	284.6	309.5	377.5	506.0	795.7	 1444	 1107	700.8	591.9	 1357	 7455	9999.9	 6369	75.33	17.76	13.11	8.990	7.516	6.971	5.611	5.479	4.032	4.207	3.923	3.274	3.428	2.876	2.555	2.231	2.011	2.357	1.991	1.844	1.827	1.694	2.125	2.049	1.812	1.916	2.267	1.860	2.037	2.311	1.794	1.628	1.648	1.673	1.697	1.652	1.644	1.927	1.898	2.158	1.908	2.384	2.569	2.828	3.056	3.500	5.038	7.146	6.950	4.849	3.970	3.610	3.450	3.885	5.375	12.16	31.39	74.45
310.0	250.0	373.5	424.7	379.3	354.8	330.2	336.8	383.7	441.9	563.8	765.7	 1100	 1472	 1117	620.2	582.3	 1908	 7002	9999.9	9999.9	88.40	20.38	13.04	9.518	7.786	6.429	5.517	5.156	4.108	3.964	3.733	3.198	3.092	2.644	2.264	2.364	2.328	2.267	2.109	1.985	2.029	2.011	2.142	1.936	1.857	2.263	2.014	2.373	2.171	1.972	1.782	1.903	1.893	1.940	1.905	1.744	2.078	2.167	2.250	2.251	2.547	2.610	3.237	3.160	3.717	4.186	5.374	6.369	7.103	6.198	4.763	3.591	3.393	3.290	4.338	8.553	18.03
315.0	267.0	413.0	480.1	430.3	391.5	371.3	370.3	431.6	499.8	629.3	824.8	 1010	 1220	 1505	985.5	507.0	647.9	 1708	 3445	9999.9	 8275	115.3	18.84	12.23	9.888	7.752	6.837	5.185	4.988	4.272	4.105	3.836	3.583	2.914	2.425	2.787	2.428	2.143	1.958	1.980	2.113	2.149	2.165	1.784	2.031	2.375	2.084	2.677	2.341	2.101	1.884	1.969	2.119	1.851	1.951	2.144	2.584	2.494	2.485	2.355	2.924	2.672	3.488	3.592	4.058	4.113	4.814	4.999	5.349	6.492	8.016	6.123	3.909	3.291	3.374	3.965	5.945
320.0	294.5	447.7	542.7	492.2	419.5	406.9	419.6	467.5	538.9	673.3	865.3	 1062	 1160	 1331	 1388	666.3	425.0	563.9	900.1	 4905	9999.9	 6876	85.02	16.82	12.58	9.854	7.457	5.432	4.575	4.428	3.802	3.665	3.501	3.259	2.693	2.834	2.673	2.572	2.337	2.271	2.211	2.078	1.902	1.865	1.945	2.303	2.608	2.745	2.282	2.226	2.267	2.023	1.999	2.072	2.114	2.239	2.364	2.446	2.586	2.176	2.774	2.912	3.487	3.408	4.145	4.596	4.501	5.156	5.200	5.564	6.685	7.114	6.852	4.963	3.157	2.922	3.380
325.0	314.1	492.4	601.7	553.9	469.8	417.4	443.5	502.9	577.1	709.3	930.8	 1104	 1202	 1206	 1355	 1029	459.8	355.0	355.8	 1246	 7603	9999.9	 5033	57.68	15.35	10.92	8.457	6.232	6.709	4.520	4.600	3.684	3.498	2.966	2.790	2.782	2.581	2.654	2.434	2.551	2.129	1.963	2.079	2.211	1.872	2.614	2.480	2.618	2.810	2.564	2.308	2.177	2.265	2.212	2.252	2.258	2.501	2.721	2.785	2.732	2.785	3.000	4.040	3.770	4.498	4.631	4.864	5.193	5.759	5.585	6.007	5.573	7.571	6.681	4.708	3.500	2.947
330.0	327.6	524.0	685.9	659.8	554.2	462.0	476.9	528.4	616.8	761.2	959.8	 1130	 1230	 1216	 1148	 1108	801.3	421.0	288.6	427.9	 1884	 6931	9999.9	 9713	339.7	17.36	10.76	8.657	7.186	6.093	5.162	4.638	4.227	3.183	3.011	2.639	2.742	2.519	2.400	2.302	2.321	2.112	2.116	2.219	2.289	2.808	2.769	3.220	2.812	2.926	2.565	2.339	2.536	2.290	2.330	2.344	2.485	2.557	2.940	3.031	3.312	3.540	3.784	4.295	4.770	4.760	5.206	5.363	5.822	5.766	5.646	5.092	6.130	5.585	6.010	6.051	4.304
335.0	337.0	562.7	751.7	714.2	624.1	514.4	503.9	556.9	651.5	817.6	996.0	 1155	 1258	 1239	 1109	932.9	939.2	736.2	363.2	300.0	572.8	 1659	 3674	9999.9	 6588	92.56	16.83	11.91	8.819	7.170	5.370	5.004	4.124	3.783	3.127	2.965	3.148	2.658	2.422	2.418	2.163	2.101	2.339	2.255	2.264	2.862	2.661	3.365	3.055	3.062	2.731	2.447	2.649	2.787	2.460	2.315	2.526	2.747	3.313	3.161	3.562	3.509	3.714	4.223	4.397	4.523	5.123	5.494	5.565	5.993	5.508	5.143	5.044	4.802	4.846	5.163	6.031
340.0	345.2	549.6	793.9	780.3	673.3	576.5	554.7	593.5	676.6	844.5	 1006	 1166	 1260	 1259	 1129	927.6	817.9	904.7	552.4	326.5	325.0	518.7	950.7	 5434	9999.9	 5545	70.91	15.03	10.64	8.142	6.151	5.825	4.874	3.909	3.037	3.056	2.797	2.866	2.312	2.080	2.100	2.275	2.600	2.383	2.335	2.606	2.695	3.091	3.376	3.217	2.788	2.971	2.701	2.712	2.934	2.586	2.605	3.189	3.259	3.296	3.395	3.305	3.879	4.479	4.420	5.154	5.019	5.515	5.831	5.995	6.026	5.666	5.311	4.841	5.166	4.610	4.902
345.0	351.8	548.9	808.5	813.1	746.4	654.1	599.9	647.9	719.9	848.5	 1020	 1160	 1255	 1271	 1147	946.2	777.8	818.5	804.9	441.9	322.4	313.0	358.9	 1381	 8431	9999.9	 4213	49.35	13.84	10.03	7.921	6.169	5.036	4.312	3.118	3.252	2.642	2.613	2.371	2.650	2.105	2.412	2.452	2.288	2.490	2.980	2.918	3.480	3.512	3.213	2.971	3.166	3.293	3.148	2.901	3.038	3.157	3.051	2.906	3.516	3.102	3.331	3.995	4.263	4.445	4.828	5.155	5.697	6.146	5.741	5.870	6.153	5.835	5.414	5.230	5.047	4.345
350.0	342.7	510.2	758.1	826.8	795.8	750.2	702.1	744.8	789.8	910.7	 1036	 1174	 1253	 1258	 1178	992.0	826.3	753.5	806.5	741.7	462.9	348.1	300.4	473.9	 2116	 7576	9999.9	 8366	59.88	14.49	10.38	7.412	5.718	4.652	3.989	3.682	2.867	3.097	2.631	2.684	2.383	2.310	2.311	2.377	2.678	2.944	2.980	3.372	3.543	3.278	3.053	3.339	3.379	3.511	3.256	3.324	3.442	3.519	3.432	3.461	3.887	3.904	4.140	4.336	4.745	5.021	4.992	5.006	5.892	5.793	6.149	5.801	5.655	5.464	5.313	5.455	4.789
355.0	328.1	514.0	711.4	827.5	847.0	844.2	816.2	847.9	884.4	985.1	 1087	 1178	 1253	 1250	 1208	 1045	911.9	807.2	761.5	815.1	767.1	480.8	377.0	348.4	651.8	 1824	 4133	9999.9	 5687	80.21	15.11	9.652	7.222	5.911	4.327	3.374	3.413	3.105	2.522	2.699	2.419	2.372	2.392	2.221	2.886	2.857	2.932	3.643	3.421	3.082	3.021	3.616	3.677	3.753	3.482	4.041	3.530	3.423	3.799	3.799	4.236	4.201	4.399	5.101	5.121	5.340	5.270	5.459	5.487	5.516	5.864	5.828	5.419	5.734	5.220	5.160	5.108
360.0	323.6	522.6	705.9	856.2	914.9	908.6	886.7	917.3	977.7	 1048	 1166	 1219	 1272	 1274	 1213	 1077	969.4	865.0	811.6	783.5	881.0	695.6	467.2	373.5	377.0	578.0	 1070	 6160	9999.9	 4832	58.64	14.10	8.566	7.148	4.619	4.363	3.993	3.494	2.740	2.793	2.555	2.598	2.345	2.689	2.483	2.775	2.789	3.643	3.027	3.091	3.242	3.908	3.400	3.725	3.518	4.093	4.201	4.115	4.323	4.393	4.295	4.260	4.655	4.740	4.862	5.301	5.420	5.440	5.548	5.355	6.041	5.803	5.842	5.505	5.650	5.575	6.198
365.0	328.2	523.4	681.7	857.4	934.4	953.1	972.2	999.6	 1049	 1114	 1198	 1255	 1289	 1271	 1237	 1122	 1010	927.2	868.2	797.1	849.8	885.9	604.4	446.8	371.4	347.2	395.3	 1583	 9242	9999.9	 3509	39.86	11.47	8.573	6.134	4.232	3.749	3.519	3.096	2.856	2.577	2.812	2.328	2.688	2.757	2.850	3.121	3.457	3.086	3.037	3.009	3.890	3.702	3.625	4.092	3.946	4.311	4.305	4.372	4.585	4.411	4.473	5.145	5.360	5.850	5.572	5.840	5.296	5.898	5.654	5.831	5.931	6.209	6.423	5.410	6.341	5.617
370.0	335.5	495.5	722.5	864.5	954.6	 1013	 1054	 1075	 1131	 1204	 1237	 1282	 1300	 1285	 1254	 1152	 1071	997.3	942.7	880.1	850.6	893.4	849.0	607.2	462.2	373.6	308.7	514.5	 2349	 8256	9999.9	 7287	49.18	13.25	8.187	5.817	4.823	3.988	3.529	3.090	2.583	2.911	2.767	2.497	2.599	2.867	2.895	3.216	3.176	3.343	3.225	3.985	4.460	3.588	4.070	4.103	4.302	4.575	4.805	4.571	4.688	5.046	5.301	5.321	5.921	5.597	5.609	5.889	5.613	5.819	6.363	6.032	6.555	5.862	6.203	6.119	5.880
375.0	320.3	471.3	729.1	855.1	995.5	 1057	 1082	 1111	 1187	 1238	 1272	 1330	 1315	 1298	 1259	 1179	 1118	 1061	 1025	962.9	919.3	885.4	907.7	856.2	607.9	467.1	374.2	339.8	682.1	 1958	 4718	9999.9	 4759	62.51	12.41	7.780	6.250	4.685	3.552	3.564	2.863	2.816	2.667	2.598	2.724	2.857	2.882	3.039	3.180	3.301	3.348	3.866	3.915	4.159	4.393	4.414	4.796	4.888	5.098	5.196	4.979	5.110	5.322	5.274	5.724	5.558	5.316	5.664	5.631	5.561	6.468	6.099	6.136	6.170	6.996	6.543	6.494
380.0	324.0	483.4	717.9	857.5	 1009	 1110	 1128	 1170	 1219	 1277	 1296	 1325	 1320	 1286	 1256	 1197	 1138	 1087	 1054	 1014	973.6	928.5	882.5	931.1	783.0	558.7	437.5	348.5	356.4	576.2	 1194	 6880	9999.9	 3810	44.90	11.47	8.122	6.000	4.169	3.629	3.464	3.275	2.662	3.007	2.902	3.007	3.084	3.076	3.372	3.270	3.191	4.107	4.175	4.239	4.654	4.394	5.385	4.766	4.772	5.464	4.809	5.886	5.588	5.780	5.671	5.747	5.719	6.118	5.346	5.892	6.590	6.287	5.976	5.880	6.723	6.423	6.720
385.0	315.4	485.7	708.6	862.0	 1013	 1120	 1133	 1180	 1234	 1286	 1301	 1311	 1330	 1290	 1250	 1205	 1157	 1115	 1090	 1066	 1014	964.5	900.5	899.3	918.1	691.4	502.8	405.2	323.4	307.2	388.4	 1776	 9684	9999.9	557.8	27.69	9.618	7.158	5.379	3.932	3.796	3.128	2.913	3.103	3.426	3.024	3.328	3.112	3.327	3.029	3.475	3.842	4.345	4.277	4.538	4.894	5.114	5.198	4.811	5.126	5.242	5.847	5.440	6.087	5.669	5.477	5.680	5.566	5.831	5.767	5.938	6.055	5.711	6.484	6.664	6.951	7.114
390.0	305.1	494.6	697.8	864.2	 1034	 1121	 1181	 1217	 1244	 1294	 1299	 1304	 1296	 1276	 1263	 1200	 1163	 1129	 1117	 1092	 1057	 1014	951.7	904.2	900.4	850.5	643.1	488.4	382.9	309.4	258.6	516.0	 2482	 8064	9999.9	 5406	39.13	10.09	7.322	5.328	4.266	3.363	3.081	3.261	3.383	2.931	3.295	3.176	3.343	3.198	3.576	3.968	4.095	4.531	4.352	5.203	5.065	4.975	5.008	5.285	5.231	5.670	5.547	5.393	5.983	5.504	5.740	5.683	6.056	5.669	5.822	5.803	5.967	6.484	6.507	6.926	6.766
395.0	283.6	462.0	693.6	853.0	 1002	 1118	 1191	 1229	 1238	 1276	 1299	 1304	 1301	 1259	 1222	 1190	 1148	 1139	 1121	 1117	 1079	 1037	994.3	945.9	889.9	873.6	829.8	618.1	464.3	368.8	286.3	279.4	664.9	 1885	 4618	9999.9	 3787	50.18	10.29	6.132	5.484	4.059	3.543	3.549	3.344	2.919	3.214	3.468	3.367	3.329	3.358	3.970	4.115	4.585	4.206	5.183	5.191	4.973	4.894	4.951	5.214	5.241	5.224	5.155	5.991	5.744	5.503	5.491	5.813	5.735	5.550	6.099	5.651	6.388	6.521	6.826	7.389
400.0	294.5	451.7	665.2	838.3	 1028	 1093	 1148	 1224	 1224	 1284	 1297	 1295	 1287	 1246	 1233	 1171	 1139	 1127	 1122	 1111	 1090	 1067	 1008	967.7	913.2	862.9	868.9	744.7	534.3	429.3	333.5	259.6	286.2	516.2	 1148	 6497	9999.9	 2996	34.85	8.064	6.386	5.022	3.840	3.598	3.365	3.426	3.393	3.038	3.209	3.357	3.360	4.074	4.267	4.569	4.621	4.353	5.236	4.846	5.039	5.139	4.950	5.625	5.061	5.534	5.414	5.587	5.595	5.831	5.857	6.218	5.909	6.371	5.614	6.232	6.698	6.367	7.499
405.0	283.6	471.7	654.6	836.1	 1016	 1092	 1172	 1239	 1230	 1274	 1284	 1287	 1277	 1236	 1216	 1139	 1121	 1119	 1108	 1118	 1090	 1055	 1033	983.0	931.1	870.2	838.4	832.6	639.5	481.7	376.4	289.2	228.6	232.8	339.9	 1678	 8599	9999.9	466.0	20.74	7.235	5.928	4.479	4.215	3.566	3.692	3.425	3.525	3.410	3.079	3.322	3.971	4.022	4.611	4.844	4.230	5.220	4.888	4.975	5.330	5.033	5.469	5.455	5.373	5.179	4.965	5.838	5.277	5.450	5.931	5.706	6.093	5.650	5.861	6.481	6.110	7.193
410.0	282.9	449.5	654.5	802.8	959.9	 1089	 1163	 1216	 1232	 1250	 1276	 1277	 1242	 1215	 1186	 1122	 1096	 1089	 1093	 1089	 1073	 1050	 1028	992.2	944.6	890.9	835.5	808.6	760.4	595.5	445.8	340.3	261.5	206.0	185.8	453.5	 2200	 7088	9999.9	 2042	32.89	8.658	6.159	4.886	3.721	3.936	3.188	3.335	3.404	3.286	3.331	4.152	4.058	4.568	4.741	4.502	5.141	5.412	5.289	5.205	5.144	5.284	5.298	5.271	5.432	5.438	5.503	5.529	5.332	6.036	5.584	5.795	5.916	5.770	6.220	6.121	6.595
415.0	301.2	439.4	643.4	791.4	938.8	 1072	 1167	 1175	 1221	 1229	 1244	 1258	 1195	 1182	 1151	 1088	 1063	 1052	 1060	 1045	 1035	 1023	 1007	986.7	954.2	905.8	842.4	786.5	762.5	722.3	540.0	398.3	303.5	231.0	183.1	201.0	560.9	 1640	 4284	9999.9	 3273	42.40	8.764	6.212	4.603	4.088	3.539	3.541	3.571	3.452	3.554	4.124	4.509	4.306	4.205	4.547	5.030	5.209	5.279	5.053	5.237	5.184	5.392	5.501	5.274	5.343	5.302	5.443	6.068	5.503	5.544	5.572	5.823	5.959	5.577	5.790	6.334
420.0	293.6	436.9	588.9	787.0	929.2	 1058	 1127	 1154	 1222	 1245	 1222	 1218	 1165	 1145	 1124	 1048	 1035	 1017	 1028	 1017	 1013	995.9	984.8	970.6	941.9	904.0	848.6	796.4	736.7	738.0	628.5	445.3	337.0	259.1	199.5	163.2	211.8	425.9	 1044	 5697	9999.9	 2553	29.47	7.518	5.641	4.927	3.890	3.975	3.539	3.220	3.786	4.098	4.354	4.434	4.207	4.462	4.706	5.196	5.206	5.149	5.098	5.074	5.268	5.487	5.366	5.067	4.342	5.634	5.472	5.620	5.362	5.510	5.532	5.792	5.316	5.592	5.947
425.0	271.0	413.7	598.1	775.7	893.4	 1028	 1091	 1136	 1191	 1238	 1216	 1173	 1157	 1126	 1076	 1028	 1001	985.2	998.3	991.1	979.8	982.7	968.6	959.8	929.1	902.7	856.8	794.0	740.9	712.0	681.3	517.8	374.9	291.8	223.5	170.3	147.5	168.5	285.2	 1467	 7285	9999.9	426.6	16.29	6.949	5.379	4.432	4.240	3.671	3.264	3.483	4.214	4.201	4.381	4.461	4.309	4.885	4.812	5.022	5.262	5.052	4.937	5.386	5.352	5.397	5.192	5.239	5.531	5.392	5.047	5.220	5.123	5.094	5.541	4.994	5.710	5.810
430.0	512.6	404.8	574.1	733.0	859.4	988.7	 1068	 1131	 1169	 1193	 1205	 1163	 1123	 1080	 1024	981.5	949.0	946.7	957.0	941.5	943.6	946.3	933.9	924.1	906.2	880.0	841.6	796.1	746.0	695.5	652.6	592.0	451.4	331.7	255.1	198.1	155.9	130.2	131.4	377.5	 1851	 5980	 8240	 1868	29.53	7.515	5.795	4.697	4.215	3.552	3.656	3.947	4.090	4.055	4.308	4.290	4.677	4.828	5.061	5.094	4.927	5.109	5.259	5.458	5.334	5.184	4.826	5.331	5.271	5.061	5.056	5.094	5.097	5.111	5.003	5.063	5.733
435.0	 1222	453.6	528.7	675.4	847.5	947.2	 1025	 1096	 1164	 1177	 1164	 1135	 1091	 1040	977.4	935.4	905.7	895.5	903.3	899.9	900.4	903.6	894.2	889.6	876.5	854.0	837.2	793.9	749.3	695.7	625.9	584.1	528.2	391.6	291.5	230.3	182.8	143.4	118.4	149.3	460.8	 1377	 3452	 9542	 2980	39.01	7.938	5.918	5.118	3.897	3.834	3.698	3.731	3.890	4.267	4.174	4.878	4.395	4.589	4.862	5.119	5.118	5.843	5.030	5.377	4.747	4.642	5.137	4.921	5.179	4.945	4.808	5.277	5.112	4.977	5.787	5.660
440.0	 1798	837.6	532.6	620.3	835.8	907.1	997.1	 1094	 1139	 1179	 1120	 1118	 1086	 1010	943.9	904.5	865.4	866.0	859.0	866.9	867.3	856.7	873.0	862.1	851.5	835.3	818.8	785.7	750.4	699.6	625.1	566.8	534.5	449.5	324.9	254.3	204.2	159.9	127.2	108.8	161.0	351.7	836.6	 4861	9999.9	 2371	27.13	7.892	5.640	4.441	3.882	4.054	3.960	4.502	3.913	4.343	4.828	4.755	4.857	4.757	4.843	5.016	5.312	4.949	4.540	5.053	5.084	4.625	4.837	5.224	4.568	4.956	4.965	4.639	4.764	5.262	5.243
445.0	 1662	 1766	534.0	641.2	799.8	877.4	981.0	 1073	 1098	 1142	 1092	 1095	 1039	978.3	932.2	869.1	828.0	828.3	836.2	832.0	826.9	823.7	833.3	820.1	828.2	811.9	790.9	764.5	738.7	693.1	626.4	559.3	509.7	473.2	368.2	275.4	218.7	174.5	143.1	113.4	103.5	131.3	227.0	 1226	 6364	 9280	368.0	18.92	7.220	5.039	4.388	4.544	3.966	4.491	4.361	4.366	4.451	4.680	4.927	4.557	4.801	5.084	5.195	4.545	4.659	4.771	5.209	4.843	4.641	5.003	4.974	4.639	5.040	4.656	4.696	5.017	5.001
450.0	809.8	 3020	 1220	621.1	745.5	830.9	925.2	 1018	 1062	 1085	 1072	 1055	974.9	929.7	884.1	814.3	780.7	775.1	773.6	773.4	768.5	774.3	774.7	775.5	771.4	767.9	750.5	734.0	709.8	670.0	619.8	555.3	487.2	449.3	408.8	316.8	242.2	195.5	161.3	128.7	104.9	94.05	102.2	313.0	 1596	 5289	 7518	 1655	27.21	7.185	4.786	5.059	4.461	4.462	4.365	4.498	4.252	4.731	4.948	4.656	4.603	4.566	5.221	4.460	4.816	5.095	4.512	4.437	4.782	4.557	4.727	4.522	4.748	4.478	4.676	4.487	4.872
455.0	339.8	 2258	 4255	692.5	699.6	787.0	881.1	950.4	 1009	 1011	 1027	994.7	939.0	879.4	835.1	766.0	734.0	720.6	708.3	707.4	701.0	704.8	708.3	712.5	707.1	709.3	701.8	690.6	665.0	642.3	601.2	540.8	480.8	426.8	391.0	360.2	276.2	215.6	176.1	142.6	117.8	97.23	85.48	117.7	394.3	 1213	 2872	 8190	 2587	33.17	6.339	6.092	4.923	4.599	4.286	3.959	4.336	4.423	4.626	4.449	4.592	4.363	4.980	4.450	4.336	4.525	4.384	4.416	4.315	4.605	4.493	4.412	4.267	4.555	4.361	4.886	4.640
460.0	239.1	 1052	 5934	 1323	675.9	722.7	839.7	888.6	965.4	956.8	989.2	947.5	897.5	825.3	784.5	722.9	688.4	675.4	662.4	667.6	659.9	653.4	666.4	665.5	671.4	680.6	663.8	657.6	639.0	622.1	582.4	527.7	471.9	415.8	365.1	356.6	309.3	230.9	186.2	156.5	128.3	107.7	87.17	79.69	129.5	304.0	686.5	 3877	 8501	 1995	24.77	6.892	5.767	4.898	4.043	4.159	4.043	3.984	4.365	4.979	4.898	4.710	4.411	4.136	4.338	4.075	4.604	4.358	4.497	4.249	4.189	4.000	3.720	4.138	4.115	4.263	4.817
465.0	221.1	475.4	 5056	 3271	677.2	686.1	788.1	852.4	920.7	937.0	948.2	912.6	846.9	793.3	739.3	692.8	649.7	632.3	622.6	624.7	617.1	623.9	618.4	629.2	630.2	632.3	622.7	619.4	601.7	595.5	554.7	515.1	455.5	408.0	355.8	328.5	317.1	253.4	198.4	162.9	134.9	113.0	92.64	76.27	75.52	105.0	183.7	954.7	 4979	 7705	312.2	19.25	6.688	5.415	4.427	4.437	3.952	4.556	4.042	4.421	4.162	4.392	4.420	4.135	4.390	4.091	4.598	4.404	4.154	3.941	4.199	3.789	3.822	3.926	3.909	4.470	4.335
470.0	188.9	304.9	 2106	 4848	 2367	635.2	710.5	806.1	845.1	884.4	873.2	834.2	780.2	731.2	681.8	631.3	583.5	580.9	567.0	561.4	559.2	564.4	554.4	566.6	571.5	568.5	564.1	561.1	555.6	547.7	519.7	479.1	431.8	389.7	340.7	305.2	290.9	268.0	215.8	168.8	142.4	121.2	98.60	81.21	69.50	65.71	74.42	240.6	 1222	 3985	 5443	 1573	27.46	6.902	5.421	4.456	4.319	4.403	4.426	4.033	4.191	3.876	4.141	4.198	4.012	3.643	3.829	3.817	3.793	3.885	3.690	3.756	3.919	3.809	3.584	3.728	3.755
475.0	167.3	261.1	731.6	 3221	 6544	790.2	640.1	713.3	765.8	809.5	790.7	766.9	718.3	668.8	615.9	570.0	530.4	516.1	506.3	510.3	496.8	505.5	495.7	502.8	509.7	509.7	511.5	512.1	503.9	496.0	480.6	443.2	403.1	363.9	323.7	289.1	262.1	249.0	233.7	183.5	147.6	123.3	104.3	87.89	72.37	61.75	53.71	84.45	297.2	909.5	 1904	 5369	 2445	37.67	6.343	5.014	4.791	4.078	4.216	3.885	4.228	4.035	3.637	3.897	3.791	3.526	3.734	3.621	3.425	3.321	3.418	3.247	3.236	3.081	3.360	2.863	3.375
480.0	178.4	250.0	418.1	 1456	 8169	 2314	622.6	687.6	728.4	764.3	728.8	727.0	671.0	629.0	582.8	535.7	498.8	478.4	474.2	472.4	461.6	459.4	453.2	466.3	473.5	470.3	466.9	473.8	466.6	462.4	448.0	421.6	379.4	347.5	310.9	279.6	248.7	228.7	224.4	199.5	153.5	126.6	107.3	89.91	74.05	63.23	53.38	52.42	93.79	224.3	451.0	 2308	 5924	 2053	27.03	6.010	5.125	4.320	4.256	3.609	3.742	3.595	3.574	3.802	3.602	3.359	3.556	3.716	3.030	3.089	3.794	3.323	2.991	3.102	3.034	2.975	2.904
485.0	176.2	259.8	322.4	630.7	 5904	 5674	630.5	624.6	683.7	702.8	689.2	691.5	630.1	598.1	551.1	501.3	475.4	452.7	439.2	435.7	425.5	431.2	424.7	432.5	432.2	436.4	429.6	439.0	437.1	431.8	425.4	395.6	359.5	327.5	298.3	266.6	243.1	217.6	208.1	202.1	163.3	130.6	107.3	91.47	76.76	65.86	55.70	47.42	49.58	73.44	119.9	560.6	 3171	 5578	365.7	17.99	5.372	5.196	4.208	3.562	3.856	3.555	3.393	3.237	3.689	3.445	3.226	3.560	3.314	3.254	3.314	3.173	3.019	2.646	3.085	3.293	3.336
490.0	144.1	240.8	309.2	404.8	 2308	 7581	 2463	582.8	633.6	652.5	656.9	625.8	587.5	550.4	502.3	458.1	430.5	409.5	402.5	397.1	391.6	386.4	384.8	390.1	391.3	393.4	396.1	400.2	398.9	396.6	384.9	362.8	335.0	305.7	278.5	252.9	229.4	206.9	189.9	181.7	169.4	139.8	110.0	92.99	79.65	70.05	58.83	48.87	42.90	42.53	47.42	141.6	764.4	 2614	 4216	 1614	28.79	6.082	4.480	4.267	3.692	3.460	3.326	3.382	3.366	3.391	3.127	3.364	2.952	3.184	3.096	2.872	2.710	2.873	2.917	3.133	3.000
495.0	137.5	199.7	306.0	342.4	821.9	 4481	 6107	707.4	566.9	590.1	595.7	579.8	537.6	499.8	453.9	418.1	388.3	374.8	365.6	356.2	346.1	342.8	340.5	344.5	346.5	353.9	352.2	359.4	355.7	355.6	347.6	335.1	306.4	281.1	258.0	234.1	216.7	191.9	176.4	160.8	158.2	147.1	116.7	94.90	81.73	71.15	60.87	51.98	42.80	36.00	33.04	49.93	184.7	595.7	 1451	 4621	 2581	39.39	5.817	4.075	3.772	3.658	2.900	3.421	3.125	2.785	3.133	2.800	2.819	2.931	2.962	2.828	2.724	2.656	2.634	2.947	2.932
500.0	132.4	174.9	286.6	307.2	449.2	 1860	 7340	 1854	530.4	550.1	547.3	534.6	488.9	457.2	418.2	378.9	355.8	342.2	325.7	328.1	322.3	314.0	313.3	312.8	317.6	318.3	321.3	324.4	326.1	331.7	321.3	308.7	283.4	262.5	240.4	219.0	204.8	184.4	164.2	151.7	142.1	140.7	123.1	95.48	81.59	70.73	61.12	54.29	43.63	36.81	30.12	29.83	56.35	145.6	340.5	 1954	 5406	 2012	28.30	5.125	4.325	3.873	3.140	3.236	3.548	2.764	3.206	2.640	2.943	2.329	2.577	2.236	2.654	2.333	2.542	2.894	2.756
505.0	124.5	160.3	250.2	308.2	338.9	730.1	 6161	 4984	525.8	502.4	508.0	481.9	464.1	430.5	390.3	352.9	329.3	316.7	300.1	299.0	289.9	293.3	287.0	282.6	288.4	290.3	295.3	292.1	302.5	305.8	290.2	282.9	262.1	236.8	224.0	209.2	190.5	174.0	157.9	143.4	131.9	127.2	124.2	100.7	81.67	69.09	59.74	52.51	45.09	37.54	30.93	25.57	29.21	45.97	87.94	469.6	 2821	 5232	391.1	16.12	4.772	3.876	3.512	3.254	3.269	2.867	3.056	2.902	2.739	2.428	2.634	2.394	2.285	2.314	2.701	2.571	2.539
510.0	106.2	145.7	219.2	292.2	313.2	405.7	 2543	 8714	 1591	454.6	455.1	429.3	419.8	385.7	354.3	311.1	296.6	278.3	267.0	265.8	255.5	258.3	254.9	251.7	252.6	258.6	259.4	261.1	266.5	267.3	261.2	251.3	234.5	216.0	201.4	187.2	172.9	158.4	147.0	132.2	121.9	111.1	108.5	105.1	85.19	69.33	59.44	52.51	45.29	37.29	32.29	25.76	23.84	24.94	31.90	116.0	679.1	 2444	 3214	 1588	27.01	4.811	3.882	3.428	3.052	3.022	2.756	2.652	2.525	2.469	2.335	2.261	2.325	1.897	2.434	2.239	2.265
515.0	92.09	117.7	185.9	264.5	315.5	301.7	821.3	 5461	 4843	546.6	403.0	381.1	372.5	342.9	313.7	278.4	260.6	241.4	237.2	231.7	224.6	226.7	225.7	221.1	218.4	226.0	228.4	229.6	234.7	233.5	229.9	219.0	209.2	192.4	181.0	167.9	156.6	144.9	131.5	119.8	112.6	100.5	93.49	94.48	87.18	69.64	59.80	51.52	44.11	37.34	32.25	27.86	21.78	20.86	19.78	37.34	162.2	554.5	 1198	 3960	 2226	36.12	4.272	3.713	3.239	3.241	2.784	2.725	2.238	2.381	1.920	1.906	2.338	2.026	2.059	2.156	2.379
520.0	78.39	105.9	162.5	226.1	313.4	264.1	406.4	 1999	 7153	 1414	363.4	355.1	333.6	310.4	285.9	255.2	243.1	220.0	211.8	205.9	204.2	199.3	201.6	200.7	198.3	207.0	207.2	207.3	209.6	209.6	208.7	198.1	187.3	177.2	165.7	153.2	140.6	133.4	121.7	111.5	105.0	93.53	86.55	80.80	84.80	73.97	58.81	50.44	42.63	37.27	32.46	28.27	24.05	20.47	17.59	20.24	46.64	133.3	282.8	 1711	 4223	 1472	23.49	3.936	3.255	3.009	2.586	2.282	2.279	2.156	1.876	1.891	2.100	2.037	2.008	2.102	2.166
525.0	74.86	106.8	147.7	179.0	276.3	258.9	286.9	692.3	 5884	 3363	358.2	329.0	310.0	292.9	261.1	236.4	218.1	199.4	196.4	189.1	188.7	182.1	184.0	179.7	179.7	187.9	184.8	188.1	190.0	192.7	191.1	182.4	172.6	159.6	149.8	139.0	131.3	122.2	113.1	104.2	95.12	84.29	80.64	72.58	75.85	73.35	61.39	48.83	42.14	37.09	31.14	27.16	23.36	21.03	17.48	16.51	21.71	39.49	72.25	411.0	 2232	 3837	367.7	10.58	3.656	3.223	2.651	2.655	2.414	2.190	1.859	1.915	1.821	1.670	1.730	1.800	2.016
530.0	78.87	100.5	125.5	158.6	225.7	265.5	243.8	357.2	 2170	 4742	 1399	291.7	274.5	258.6	235.0	215.3	192.5	182.2	174.9	168.4	164.5	161.2	159.3	160.6	159.9	163.5	161.8	164.4	166.0	168.8	169.1	161.0	152.2	142.7	134.1	125.2	116.4	109.3	102.1	93.30	85.86	79.49	72.23	66.41	63.35	65.24	62.08	50.49	40.64	35.01	30.20	26.60	22.36	20.39	17.38	15.56	16.14	18.27	24.83	99.53	538.6	 1846	 2674	 1167	24.17	3.389	2.664	2.480	2.445	1.947	1.870	1.788	1.669	1.654	1.825	1.709	1.762
535.0	71.79	88.55	118.5	136.4	172.3	248.7	241.2	247.0	678.1	 2701	 4088	394.2	244.0	224.7	199.0	190.8	168.0	158.3	153.5	145.3	144.2	140.0	134.5	136.3	141.7	141.4	139.6	139.5	146.0	142.8	145.0	138.8	131.5	122.5	115.5	110.9	102.8	92.81	89.38	83.89	76.65	70.48	64.12	59.28	54.56	53.52	55.35	52.78	41.32	33.39	27.46	25.44	22.00	18.95	17.54	15.23	13.86	13.28	14.15	30.52	126.9	418.2	966.4	 2885	 1510	30.23	3.047	2.764	2.465	1.603	1.800	1.674	1.220	1.533	1.692	1.423	1.714
540.0	74.42	77.53	105.4	118.1	148.3	217.6	254.0	220.4	326.5	 1012	 5448	 1304	215.6	200.5	186.9	170.8	151.9	139.9	135.0	132.5	130.1	128.3	122.1	120.6	126.6	125.7	124.3	124.2	126.9	127.1	127.5	124.7	118.3	110.7	103.6	96.81	89.97	86.77	80.10	75.56	69.87	64.99	59.74	54.03	50.04	48.87	47.31	50.98	41.93	30.89	25.93	24.69	20.96	18.13	16.77	15.19	13.62	12.81	11.12	14.25	34.96	99.39	226.9	 1297	 2985	398.7	16.86	2.798	2.547	1.631	1.769	1.852	1.506	1.707	1.761	1.614	1.536
545.0	77.37	84.09	106.4	117.6	139.2	180.5	258.5	206.5	245.2	408.9	 3889	 3325	218.3	176.0	167.1	152.1	135.4	126.2	122.1	117.6	114.2	115.2	112.2	110.3	111.9	112.6	111.3	112.0	114.0	115.6	111.2	111.4	103.7	98.49	92.97	88.35	83.83	78.87	72.08	67.90	62.32	58.22	54.31	49.36	47.02	43.15	41.22	44.45	40.67	32.26	25.58	22.39	19.82	17.66	16.18	14.94	13.40	11.92	10.42	10.65	14.50	28.19	56.22	314.5	 1687	 2518	310.9	5.700	2.640	1.843	1.726	1.537	1.430	1.435	1.591	1.442	1.782
550.0	59.01	77.50	91.24	97.78	124.0	133.4	219.4	201.1	185.8	226.0	 1371	 4934	 1188	160.5	143.9	128.1	115.3	108.8	105.4	101.0	97.49	96.21	94.69	93.91	93.85	94.38	95.25	95.94	97.16	96.26	96.40	94.96	87.77	84.00	79.52	76.73	70.16	67.02	61.42	58.99	53.96	50.43	46.97	42.45	39.86	37.21	35.84	34.51	36.10	32.39	24.95	20.44	17.67	16.06	14.65	13.67	13.03	11.78	9.592	9.260	9.279	11.73	17.64	74.53	411.8	 1339	 1887	714.7	19.60	2.218	2.119	1.618	1.440	1.513	1.398	1.530	1.439
555.0	51.32	77.41	90.44	84.01	99.42	112.0	159.2	218.6	149.1	165.5	430.3	 2541	 4284	229.3	124.6	110.3	98.45	92.16	87.36	84.52	78.13	79.12	76.99	78.98	75.50	77.11	77.66	75.47	78.77	81.03	76.82	78.77	74.61	68.76	65.64	62.45	57.73	55.07	50.56	48.35	44.89	43.01	39.98	35.38	34.54	31.50	29.70	27.85	27.78	29.31	25.49	19.65	15.54	13.92	12.88	12.62	11.36	10.38	9.551	8.123	8.024	7.844	8.485	20.54	95.52	302.7	732.2	 1943	411.5	22.36	2.475	1.790	1.397	1.529	1.267	1.236	1.209
560.0	54.62	66.51	77.77	71.37	91.69	95.05	112.7	200.3	152.1	139.4	204.0	863.8	 5309	975.8	109.9	93.92	84.40	79.44	76.18	72.81	71.38	68.27	66.19	67.52	64.40	68.06	64.91	65.38	67.39	69.23	64.94	65.21	63.80	59.79	55.31	52.53	50.11	47.52	42.94	41.20	38.65	36.45	34.54	31.45	29.49	27.29	25.73	23.87	22.57	23.92	24.13	19.36	14.47	12.82	11.89	11.12	11.02	9.812	9.064	7.847	7.281	7.108	6.517	8.693	24.74	70.99	173.0	931.9	 1763	334.1	8.056	1.852	1.605	1.466	1.160	1.381	1.168
565.0	53.14	61.54	66.16	71.37	80.07	85.84	94.46	155.5	171.6	136.5	143.3	295.7	 3617	 2620	108.0	81.59	75.48	67.92	66.47	60.13	60.80	56.27	55.27	56.96	55.62	57.01	56.57	58.04	57.59	58.98	55.84	55.23	52.18	48.93	48.15	44.67	43.04	40.07	38.21	35.92	33.47	32.00	28.63	27.16	26.62	24.49	22.44	20.92	19.94	19.35	20.43	18.59	14.19	11.49	10.82	9.459	9.861	8.613	8.059	7.675	6.640	6.190	6.268	5.738	8.873	19.39	42.09	230.4	 1123	 1468	54.58	3.155	2.021	1.211	1.201	1.297	0.932
570.0	40.91	57.15	64.28	66.65	64.94	70.99	75.75	108.9	168.2	124.8	110.7	147.5	 1174	 4382	900.5	68.37	62.08	57.38	53.92	49.62	49.16	45.73	46.12	46.12	45.38	45.50	46.41	46.37	46.09	46.86	45.43	43.72	43.14	41.44	38.56	35.99	35.15	32.41	31.18	29.11	27.57	26.55	23.83	22.72	21.31	19.67	18.51	16.96	16.35	14.87	15.47	15.46	14.03	11.00	9.392	8.734	8.176	7.686	7.384	6.903	6.781	6.174	5.345	5.404	5.520	7.785	12.93	54.53	281.5	837.0	 1035	229.4	14.26	1.605	1.177	1.315	1.051
575.0	37.82	54.27	55.72	55.83	58.53	60.32	63.33	81.94	128.3	146.4	102.0	109.7	331.6	 2173	 3608	116.0	52.44	45.90	43.45	41.15	41.28	35.91	37.37	36.47	36.65	34.35	37.23	37.64	37.63	36.36	37.00	36.21	33.63	32.51	30.50	28.69	28.13	26.22	25.21	23.79	21.19	20.49	19.95	18.25	17.08	16.04	14.49	13.82	12.95	12.44	11.43	12.06	11.74	9.961	8.291	7.503	7.237	6.829	6.713	6.230	6.221	6.016	5.072	5.084	4.894	5.100	5.989	14.87	65.39	190.8	437.4	 1079	334.8	10.28	1.278	1.308	0.875
580.0	47.07	51.41	56.59	54.57	59.87	55.76	54.71	69.64	98.91	167.6	93.64	96.71	136.5	685.3	 4560	692.8	43.98	38.55	39.15	35.79	35.01	31.65	30.90	30.86	30.73	29.66	30.26	31.92	31.91	31.49	30.56	30.73	28.71	27.32	25.22	25.28	23.74	21.95	20.93	20.08	18.62	17.39	16.39	15.88	14.27	13.43	11.83	12.15	11.42	10.36	9.574	8.944	9.760	9.512	8.493	6.922	7.117	6.441	5.997	5.376	5.756	5.671	5.093	4.594	4.497	4.369	4.162	6.417	17.42	45.41	105.0	563.5	 1007	57.80	3.510	1.208	0.977
585.0	45.36	48.96	49.36	55.32	44.38	55.09	52.17	63.53	74.77	152.3	104.2	86.10	93.06	209.1	 2982	 1907	49.75	35.99	33.37	29.94	28.39	26.91	26.47	27.69	26.31	25.48	25.88	27.19	26.85	26.63	26.41	24.99	25.11	23.01	22.35	20.51	20.14	19.08	17.69	16.56	15.90	14.73	13.92	13.74	11.70	12.04	10.65	10.44	9.938	9.288	8.142	7.962	7.838	8.731	8.217	6.608	6.653	5.455	5.270	5.036	4.733	5.005	5.136	4.866	4.207	4.383	3.785	3.699	6.631	12.82	25.90	142.3	683.6	773.7	47.17	1.683	1.068
590.0	43.71	49.04	45.34	48.57	46.25	48.47	46.37	53.82	62.72	108.1	138.6	81.04	80.63	96.02	917.9	 3321	628.8	30.85	27.40	24.85	23.25	22.90	22.82	21.94	21.94	21.43	20.81	22.15	21.70	21.56	22.07	21.17	19.65	18.31	18.10	17.02	16.65	15.34	14.82	14.14	13.49	11.79	11.61	11.02	10.24	10.17	9.600	8.605	8.231	7.634	6.855	6.407	6.220	6.556	7.074	6.327	5.963	4.921	5.048	4.429	4.550	4.271	4.438	4.303	3.996	3.721	3.560	3.214	3.900	5.120	8.222	33.56	173.3	494.9	529.7	185.1	8.072
595.0	40.42	43.60	43.53	42.89	45.66	41.72	49.55	49.52	49.35	76.19	142.1	92.39	72.44	69.56	240.4	 1565	 2576	65.34	22.90	22.62	18.42	18.71	19.73	17.60	17.12	16.45	16.49	18.05	17.43	17.74	18.12	16.65	15.60	14.89	14.74	14.01	13.38	12.18	11.98	11.20	10.17	9.761	8.861	8.799	8.533	8.322	7.558	8.073	6.332	6.179	5.532	5.200	4.557	5.177	5.468	5.980	5.444	4.541	4.342	3.556	3.876	3.615	3.171	3.629	2.934	3.375	3.384	3.057	3.016	2.881	3.573	9.089	39.94	112.7	264.3	649.6	210.6
600.0	36.19	38.81	48.45	45.58	40.96	42.00	47.30	47.15	49.95	60.89	120.8	117.4	70.12	61.77	89.24	474.9	 3217	190.3	20.87	18.94	16.22	15.55	15.45	15.20	16.74	13.93	13.99	15.52	14.51	14.40	14.28	14.22	13.30	12.45	12.90	11.36	11.20	10.22	10.17	9.516	8.444	8.676	7.700	7.882	7.199	6.831	6.522	6.911	5.887	5.262	4.862	4.743	4.103	4.423	4.767	5.140	5.491	4.385	3.644	3.574	3.283	3.278	3.146	3.024	2.858	3.367	2.789	2.777	2.669	2.480	2.189	3.523	10.31	26.49	65.19	367.9	512.7
605.0	44.20	43.31	48.68	43.44	36.55	39.88	45.50	45.77	47.64	55.52	82.24	135.9	70.68	64.99	55.86	135.3	 2069	 1360	25.70	16.63	16.11	15.02	13.69	13.66	13.04	12.41	12.74	13.54	13.94	13.31	12.91	12.47	12.09	10.75	10.85	9.673	10.01	8.993	8.949	7.935	7.774	7.320	6.960	6.908	5.864	6.026	5.632	5.195	4.934	4.895	4.221	4.022	3.410	3.465	3.760	4.016	4.882	4.483	3.561	3.242	2.736	3.071	2.834	2.690	2.543	2.807	2.653	2.294	2.048	2.324	2.132	2.380	3.357	6.964	15.63	96.03	399.4
610.0	37.03	43.40	40.95	41.52	39.16	33.81	41.59	38.66	44.66	51.99	67.78	122.4	96.70	61.86	46.78	52.89	628.0	 2391	458.9	14.83	13.63	12.42	11.73	11.00	11.14	10.30	10.71	11.33	10.70	11.06	10.79	9.967	9.759	9.473	9.075	8.742	8.145	7.354	7.411	6.767	6.283	5.930	5.554	5.304	5.342	4.984	4.621	4.625	3.966	3.885	3.507	3.264	2.978	3.334	2.949	2.969	3.582	4.029	3.222	2.788	2.393	2.388	2.285	2.497	2.242	2.266	2.274	2.345	2.137	2.128	1.916	1.771	1.759	2.679	4.374	22.37	103.1
615.0	32.69	38.91	43.91	37.45	39.10	37.02	40.74	35.63	41.66	52.15	59.82	83.40	125.4	64.86	44.37	35.28	159.1	 1157	 1914	43.20	11.59	9.678	9.110	9.447	9.045	8.341	8.372	8.739	8.635	9.121	8.929	8.228	7.721	7.952	7.169	7.302	7.222	6.894	5.714	5.704	5.239	4.438	4.384	4.546	4.158	4.298	3.919	3.568	3.562	2.988	2.708	2.746	2.630	2.509	2.619	2.568	2.536	3.032	3.372	2.744	2.231	2.085	1.785	2.115	2.005	1.887	2.076	2.288	2.125	1.891	1.889	1.567	1.655	1.575	1.707	5.813	24.00
620.0	38.39	39.77	46.46	35.08	39.01	33.15	40.50	33.13	39.48	47.32	57.01	67.20	121.0	65.79	42.03	30.11	51.45	342.0	 2398	150.8	11.95	8.952	7.551	8.321	8.226	7.417	7.509	7.416	7.999	7.258	7.481	6.969	7.161	6.981	6.444	6.225	6.152	5.856	4.916	4.750	4.430	4.208	4.146	3.820	3.717	3.569	3.271	2.949	3.169	2.925	2.413	2.370	2.199	2.206	1.975	2.286	1.997	2.367	2.713	2.655	2.053	2.062	1.642	2.031	1.644	1.447	1.572	1.915	1.804	1.783	1.794	1.500	1.511	1.326	1.164	1.889	6.333
625.0	30.45	34.17	40.20	39.50	37.37	32.25	38.19	35.35	42.90	43.95	54.70	65.61	99.89	83.84	43.48	28.49	28.30	91.91	 1562	 1075	15.77	8.898	6.948	7.304	7.083	6.022	6.446	6.714	6.319	6.264	6.420	6.237	6.032	6.094	5.357	4.953	5.118	4.858	4.265	4.294	4.238	3.279	3.529	3.097	3.127	3.243	2.612	2.532	2.636	2.728	2.086	2.176	1.884	2.121	1.709	1.699	1.990	2.010	2.371	2.646	2.341	2.111	1.697	1.732	1.571	1.552	1.459	1.314	1.512	1.642	1.599	1.237	1.268	1.192	0.869	1.256	2.169
630.0	30.76	35.34	41.27	36.75	31.00	38.36	31.48	32.59	37.59	45.66	53.64	63.67	75.86	95.08	49.97	29.85	23.04	32.88	468.5	 1852	349.2	8.058	6.856	6.409	5.782	5.620	5.877	4.986	5.218	5.563	5.263	5.666	5.174	4.768	4.255	4.406	4.256	4.318	3.673	3.375	3.589	3.187	2.970	2.650	2.648	2.577	2.348	2.405	2.260	2.089	1.760	1.724	1.556	1.697	1.453	1.593	1.618	1.695	1.718	2.039	1.852	1.599	1.419	1.463	1.531	1.354	1.419	1.216	1.312	1.492	1.408	1.205	1.186	1.046	1.127	0.982	1.264
635.0	32.06	32.17	33.61	35.21	27.39	34.17	33.13	36.43	36.54	40.86	44.19	58.54	62.81	83.05	65.57	32.16	21.39	19.25	114.8	885.0	 1478	28.30	6.406	6.116	4.608	4.975	5.221	4.120	4.685	4.746	4.355	4.500	4.008	4.255	3.596	3.851	3.377	3.629	3.250	3.055	2.838	2.619	2.450	2.461	2.360	2.009	2.073	1.944	1.922	1.697	1.599	1.490	1.557	1.328	1.335	1.352	1.308	1.414	1.211	1.759	1.683	1.554	1.263	1.403	1.212	1.239	1.075	1.160	1.272	1.232	1.332	1.381	0.969	1.052	0.901	0.856	0.872
640.0	33.60	34.24	41.50	29.79	24.58	30.32	31.12	29.86	35.92	39.93	49.16	52.88	56.70	67.40	75.41	31.54	21.32	16.27	35.14	258.7	 1856	124.6	6.366	5.334	4.423	4.203	4.394	3.789	3.805	4.169	3.790	3.329	3.791	3.241	3.733	3.512	3.422	3.318	2.631	2.855	2.276	2.341	2.263	2.131	2.042	1.712	1.598	1.571	1.674	1.463	1.331	1.291	1.336	1.290	1.261	1.193	1.228	1.323	1.131	1.239	1.647	1.316	1.476	1.291	1.119	1.043	1.043	1.233	1.297	1.056	1.081	1.199	1.161	0.884	0.851	0.742	0.868
645.0	28.60	37.84	41.56	31.71	32.08	29.51	29.53	28.36	38.96	38.73	43.09	49.23	57.65	59.98	74.72	37.58	20.15	16.50	16.69	68.03	 1221	881.5	9.642	4.675	4.128	3.649	3.881	3.718	3.360	3.660	3.339	3.116	3.710	3.268	2.832	2.920	3.060	2.864	2.467	2.194	1.941	2.061	2.053	1.886	1.730	1.553	1.559	1.353	1.280	1.235	1.248	1.001	1.198	1.221	1.042	1.263	1.042	1.129	1.466	1.060	1.297	1.221	1.553	1.142	1.157	1.102	1.037	1.038	1.223	0.949	0.997	1.103	1.139	0.911	0.786	0.817	1.027
650.0	46.02	30.24	38.50	35.38	35.47	28.90	26.23	25.46	33.47	38.58	42.29	50.21	56.13	54.44	62.97	45.49	21.54	15.76	13.92	23.72	444.9	 1589	69.96	4.899	3.705	3.923	3.688	2.871	3.146	3.361	3.056	2.823	3.191	2.648	2.597	2.710	2.743	2.562	2.388	1.955	1.753	1.781	1.802	1.508	1.777	1.436	1.428	1.219	1.313	1.285	1.067	1.125	0.874	1.101	1.151	1.190	1.034	1.087	1.303	1.167	0.795	1.273	1.241	1.221	1.055	0.928	1.022	0.904	0.974	0.857	0.991	0.911	1.167	0.964	0.904	0.956	0.859
