Sample:	'1
File name:	9.2 4点进水商丘市示范区三污二期 30倍.FD3
Run date:	'09:41:05, 09/04/2024
Operator:	horiz
Comment:	'

Instrument
Model:	F-2700 FL Spectrophotometer
Serial number:	23B8-004
ROM Version:	4J14000 07

Instrument parameters
Measurement type:	3-D scan
Data mode:	Fluorescence
EX  Start WL:	220.0 nm
EX  End WL:	600.0 nm
EX Sampling interval:	5.0 nm
EM  Start WL:	230.0 nm
EM  End WL:	650.0 nm
EM Sampling interval:	5.0 nm
Scan speed:	12000 nm/min
EX Slit:	5.0 nm
EM Slit:	5.0 nm
PMT Voltage:	700 V
Response:	Auto 
Corrected spectra:	Off
Contour interval:	50.000

Peak integration
Integration method:	Rectangular
Sensitivity:	1
Threshold:	1.000

Peaks
No.	ApexEX/EM(nm)	Height(Data)
1	225.0/490.0	281.3
2	230.0/500.0	222.4
3	235.0/255.0	374.5
4	235.0/515.0	169.4
5	240.0/265.0	435.0
6	240.0/395.0	820.0
7	240.0/525.0	149.5
8	245.0/270.0	441.6
9	245.0/540.0	129.3
10	250.0/275.0	590.7
11	250.0/550.0	111.6
12	255.0/565.0	144.4
13	260.0/575.0	212.3
14	265.0/585.0	277.0
15	270.0/300.0	3623
16	270.0/595.0	273.5
17	275.0/610.0	192.8
18	295.0/330.0	462.2
19	300.0/335.0	410.4
20	305.0/340.0	340.4
21	305.0/395.0	469.7
22	310.0/350.0	278.4
23	315.0/355.0	272.8
24	320.0/365.0	273.2
25	325.0/370.0	281.5
26	330.0/375.0	290.8
27	335.0/380.0	279.5
28	350.0/400.0	170.5
29	360.0/415.0	108.6
30	365.0/420.0	110.1
31	370.0/425.0	90.25
32	380.0/440.0	65.08
33	385.0/300.0	6.509
34	385.0/445.0	57.74
35	395.0/460.0	40.75
36	400.0/465.0	36.81
37	410.0/480.0	24.23
38	415.0/485.0	22.30
39	420.0/490.0	17.57
40	425.0/500.0	16.02
41	430.0/505.0	14.46
42	435.0/300.0	5.574
43	440.0/520.0	10.29
44	445.0/525.0	8.674
45	455.0/540.0	6.471
46	460.0/545.0	5.354
47	470.0/560.0	3.206
48	480.0/260.0	2.096
49	480.0/575.0	1.838
50	485.0/265.0	2.514
51	485.0/395.0	3.494
52	485.0/580.0	1.601
53	495.0/270.0	2.474
54	505.0/275.0	3.813
55	510.0/280.0	5.081
56	540.0/295.0	18.73
57	545.0/300.0	18.97
58	585.0/325.0	4.303

Wavelength data
No.	EX/EM(nm)	Height(Data)	

Data points
	220.0	225.0	230.0	235.0	240.0	245.0	250.0	255.0	260.0	265.0	270.0	275.0	280.0	285.0	290.0	295.0	300.0	305.0	310.0	315.0	320.0	325.0	330.0	335.0	340.0	345.0	350.0	355.0	360.0	365.0	370.0	375.0	380.0	385.0	390.0	395.0	400.0	405.0	410.0	415.0	420.0	425.0	430.0	435.0	440.0	445.0	450.0	455.0	460.0	465.0	470.0	475.0	480.0	485.0	490.0	495.0	500.0	505.0	510.0	515.0	520.0	525.0	530.0	535.0	540.0	545.0	550.0	555.0	560.0	565.0	570.0	575.0	580.0	585.0	590.0	595.0	600.0
230.0	69.33	1068	2035	502.8	16.48	2.718	1.880	1.743	1.748	1.380	1.797	1.337	0.893	0.821	0.597	0.460	0.524	0.438	0.402	0.352	0.382	0.314	0.277	0.215	0.192	0.201	0.173	0.168	0.173	0.132	0.123	0.118	0.170	0.119	0.105	0.166	0.202	0.152	0.130	0.175	0.391	0.773	0.700	0.268	0.138	0.164	1.380	5.348	7.779	4.877	1.423	0.231	0.105	0.083	0.090	0.075	0.086	0.065	0.066	0.064	0.069	0.050	0.079	0.064	0.039	0.051	0.060	0.046	0.041	0.053	0.051	0.057	0.060	0.039	0.068	0.039	0.068
235.0	187.9	310.8	1294	1905	436.1	23.53	2.574	1.793	1.873	1.936	1.995	1.180	1.112	0.892	0.765	0.548	0.480	0.395	0.388	0.286	0.288	0.304	0.332	0.325	0.209	0.187	0.131	0.181	0.189	0.109	0.163	0.134	0.144	0.147	0.175	0.126	0.140	0.148	0.124	0.150	0.155	0.357	0.550	0.759	0.588	0.235	0.483	1.436	3.133	5.167	6.649	6.292	2.596	0.457	0.082	0.073	0.094	0.066	0.057	0.084	0.081	0.060	0.099	0.083	0.063	0.048	0.036	0.054	0.029	0.032	0.059	0.035	0.069	0.038	0.045	0.066	0.056
240.0	290.5	197.1	398.6	1688	1952	321.8	10.83	2.519	2.282	2.361	1.892	1.770	1.311	0.835	0.887	0.614	0.556	0.362	0.547	0.444	0.466	0.330	0.355	0.254	0.232	0.176	0.163	0.199	0.257	0.234	0.157	0.151	0.097	0.126	0.157	0.094	0.140	0.172	0.130	0.176	0.122	0.201	0.307	0.541	0.860	0.852	0.488	0.516	0.813	1.603	3.718	8.472	9.897	6.742	2.042	0.248	0.084	0.084	0.089	0.075	0.153	0.050	0.074	0.055	0.079	0.067	0.063	0.063	0.084	0.054	0.080	0.062	0.167	0.055	0.053	0.040	0.047
245.0	190.5	311.0	166.4	597.2	2126	1774	213.8	5.465	3.024	2.929	2.440	2.109	1.839	0.823	0.764	0.578	0.469	0.409	0.600	0.456	0.423	0.268	0.343	0.278	0.229	0.170	0.186	0.205	0.233	0.230	0.141	0.111	0.130	0.098	0.154	0.092	0.135	0.160	0.164	0.178	0.132	0.160	0.144	0.240	0.390	0.946	0.948	0.737	0.394	0.464	0.965	2.959	7.474	12.01	10.96	5.305	1.346	0.195	0.087	0.110	0.098	0.060	0.059	0.058	0.092	0.026	0.061	0.070	0.066	0.063	0.059	0.070	0.071	0.070	0.074	0.052	0.040
250.0	58.84	219.5	294.2	232.4	695.6	1830	2128	694.0	37.96	3.844	3.023	2.431	1.798	1.008	0.981	0.653	0.660	0.528	0.582	0.470	0.431	0.305	0.370	0.296	0.226	0.278	0.168	0.201	0.213	0.257	0.132	0.111	0.150	0.127	0.196	0.120	0.150	0.155	0.117	0.184	0.170	0.150	0.152	0.183	0.185	0.343	0.571	0.942	1.113	0.935	0.599	0.828	1.863	3.858	7.070	10.16	12.91	11.13	5.337	1.429	0.151	0.065	0.080	0.062	0.082	0.102	0.058	0.064	0.052	0.055	0.046	0.048	0.064	0.057	0.076	0.064	0.062
255.0	25.65	64.18	224.9	374.5	249.2	479.7	1714	3139	983.4	29.96	4.345	3.121	2.240	1.216	1.294	0.948	0.707	0.813	0.618	0.541	0.461	0.365	0.256	0.279	0.274	0.260	0.184	0.248	0.264	0.165	0.175	0.132	0.133	0.166	0.167	0.114	0.144	0.187	0.125	0.188	0.204	0.107	0.163	0.147	0.164	0.163	0.252	0.323	0.516	1.060	1.634	1.588	0.841	1.011	1.735	2.525	4.705	11.63	19.23	18.68	8.139	1.493	0.156	0.112	0.069	0.070	0.122	0.090	0.076	0.075	0.109	0.050	0.073	0.042	0.082	0.063	0.083
260.0	20.93	23.34	82.74	351.7	339.2	167.0	529.2	2615	3557	218.5	15.74	4.524	2.609	1.774	1.656	1.072	0.943	0.847	0.663	0.461	0.470	0.363	0.448	0.263	0.292	0.234	0.307	0.198	0.247	0.151	0.187	0.147	0.165	0.167	0.192	0.139	0.150	0.151	0.141	0.109	0.146	0.145	0.126	0.200	0.157	0.174	0.177	0.164	0.249	0.454	1.111	2.030	2.096	1.074	0.595	0.738	1.291	3.272	8.323	18.27	23.81	17.95	6.199	0.600	0.134	0.101	0.100	0.068	0.050	0.085	0.101	0.062	0.111	0.058	0.063	0.061	0.092
265.0	18.48	13.82	29.80	158.6	435.0	256.9	156.7	884.3	3787	1792	165.8	7.552	3.799	2.292	1.824	1.100	1.189	0.783	0.835	0.588	0.631	0.399	0.442	0.339	0.353	0.183	0.310	0.219	0.239	0.185	0.165	0.243	0.197	0.167	0.109	0.150	0.175	0.162	0.166	0.114	0.120	0.160	0.117	0.186	0.189	0.183	0.147	0.131	0.180	0.192	0.384	0.993	2.062	2.514	1.691	0.644	0.518	0.945	2.166	5.402	13.01	24.42	26.96	14.75	3.430	0.248	0.132	0.094	0.096	0.102	0.057	0.102	0.087	0.078	0.046	0.055	0.069
270.0	39.91	28.88	23.70	54.01	214.7	441.6	269.7	257.1	1192	2781	3147	668.4	34.62	4.329	2.661	1.679	1.328	1.007	0.986	0.688	0.704	0.506	0.398	0.364	0.392	0.271	0.276	0.331	0.234	0.209	0.288	0.224	0.244	0.218	0.257	0.229	0.216	0.182	0.175	0.152	0.171	0.175	0.197	0.209	0.179	0.222	0.222	0.170	0.200	0.172	0.195	0.355	0.732	1.316	2.126	2.474	1.983	1.182	0.862	1.445	3.218	7.008	13.13	20.07	23.28	20.13	11.43	3.384	0.353	0.140	0.109	0.131	0.084	0.108	0.057	0.067	0.087
275.0	192.5	122.5	64.40	44.19	88.03	234.8	590.7	320.8	416.8	850.3	2593	5342	922.5	33.62	4.838	2.347	1.807	1.440	1.057	0.846	0.764	0.631	0.490	0.403	0.361	0.434	0.354	0.306	0.267	0.323	0.220	0.340	0.490	0.722	0.646	0.551	0.462	0.502	0.488	0.448	0.393	0.581	0.496	0.546	0.557	0.526	0.400	0.409	0.295	0.345	0.231	0.241	0.326	0.495	0.757	1.308	2.788	3.813	2.930	1.336	1.425	2.319	3.843	5.641	7.661	15.28	29.81	31.37	17.63	3.279	0.290	0.128	0.113	0.176	0.055	0.111	0.102
280.0	556.3	329.1	157.6	85.51	93.15	169.7	483.8	841.0	620.6	754.1	1301	4249	5102	137.7	15.79	3.856	2.428	2.067	1.339	1.294	0.926	0.770	0.655	0.445	0.407	0.548	0.470	0.411	0.354	0.369	0.268	0.459	1.134	1.465	1.461	1.391	1.236	1.032	1.000	1.301	1.193	1.422	1.329	1.210	1.323	1.253	0.880	0.763	0.520	0.475	0.338	0.318	0.402	0.566	0.631	0.809	1.540	2.995	5.081	4.750	3.059	2.833	3.285	4.098	5.251	6.661	12.81	25.80	37.03	28.96	12.24	1.662	0.229	0.208	0.121	0.220	0.204
285.0	1116	641.3	276.5	133.5	128.4	206.0	404.3	1010	1341	1287	1473	2153	4995	3909	104.3	7.224	3.564	2.416	1.598	1.406	1.042	0.834	0.736	0.628	0.542	0.564	0.529	0.390	0.411	0.325	0.374	0.825	1.989	3.082	2.678	2.461	2.315	1.838	1.990	1.949	2.170	2.577	2.577	2.356	2.558	2.499	1.755	1.276	0.930	0.625	0.521	0.586	0.506	0.663	0.863	0.988	1.403	2.178	3.733	6.110	7.686	6.798	5.982	6.457	7.595	7.641	8.462	11.40	17.47	30.54	34.77	23.63	7.382	0.881	0.293	0.200	0.178
290.0	1860	1066	459.4	201.0	183.8	281.6	489.8	998.0	1873	2359	2314	2031	2051	3428	4176	407.7	25.20	3.425	2.262	1.906	1.244	1.009	0.891	0.795	0.744	0.530	0.505	0.490	0.465	0.371	0.534	1.132	3.088	5.067	4.661	4.132	3.430	3.131	3.280	3.348	3.708	4.025	4.242	4.037	4.070	3.700	2.730	2.215	1.426	1.010	0.698	0.785	0.756	0.913	1.130	1.324	1.977	2.676	3.886	5.428	7.774	10.19	12.33	12.36	12.79	11.48	10.67	10.91	9.746	10.63	14.59	21.87	25.68	25.96	16.08	6.338	0.996
295.0	2325	1340	575.5	259.4	220.1	332.5	582.2	1077	1894	2980	3322	2431	1351	1016	2542	4364	606.9	21.28	3.546	2.751	1.652	1.533	1.147	0.954	0.783	0.809	0.558	0.458	0.458	0.420	0.617	1.351	3.617	6.157	6.067	5.421	4.256	3.946	3.876	4.196	4.522	5.173	5.001	5.511	5.160	4.489	3.530	2.901	1.857	1.301	0.909	0.930	0.922	1.071	1.279	1.663	2.403	3.270	4.285	5.565	7.757	9.908	12.07	16.11	18.73	16.70	13.55	12.66	9.267	6.282	5.350	6.038	6.935	12.19	25.70	34.75	24.16
300.0	2382	1383	613.5	273.2	234.7	343.2	606.0	1097	1864	2787	3623	2793	1246	495.4	733.3	2914	4252	428.1	8.794	3.094	2.318	1.645	1.266	0.958	0.859	0.766	0.682	0.509	0.652	0.470	0.601	1.315	3.881	6.509	6.455	5.284	4.551	4.139	4.039	4.432	4.356	5.257	5.350	5.574	5.041	4.761	3.771	3.083	1.836	1.443	0.988	0.934	1.008	1.189	1.266	1.798	2.412	3.116	4.420	5.807	7.656	9.626	11.81	15.03	17.90	18.97	16.98	14.05	9.581	5.597	3.542	2.781	2.416	3.689	7.746	18.17	32.72
305.0	2195	1361	614.3	285.4	231.5	339.1	595.3	1054	1752	2527	3148	3055	1311	410.4	275.7	847.7	3687	3274	67.82	4.830	2.816	1.909	1.560	0.979	1.060	0.922	0.913	0.460	0.657	0.416	0.718	1.472	3.865	5.987	6.039	4.963	4.318	3.911	3.878	4.338	4.285	4.767	5.306	5.406	4.889	4.513	3.505	2.894	1.889	1.246	1.042	1.045	1.073	1.112	1.363	1.720	2.425	3.034	4.391	5.543	7.328	9.302	10.88	13.37	14.88	15.99	16.85	16.42	10.80	5.702	3.279	2.091	1.631	1.665	2.476	4.880	11.01
310.0	1904	1179	550.4	268.2	217.5	321.1	542.8	921.8	1506	2127	2497	2448	1550	525.5	199.2	259.1	1030	2603	3006	285.0	16.93	2.769	2.022	1.417	1.130	0.933	0.847	0.623	0.704	0.522	0.612	1.356	3.183	4.932	5.523	4.339	3.677	3.396	3.164	3.578	3.665	4.073	4.211	4.767	4.501	3.848	3.114	2.479	1.643	1.225	0.988	0.983	1.001	1.068	1.288	1.651	2.100	2.740	3.763	4.939	6.126	7.997	9.441	11.32	12.62	12.44	12.42	12.89	11.04	7.959	4.822	2.661	1.557	1.318	1.304	1.769	2.992
315.0	1515	973.6	472.2	254.2	218.2	293.8	468.2	757.4	1204	1682	1944	1783	1234	876.8	289.5	150.7	281.7	626.5	1739	3300	433.0	13.87	2.494	2.024	1.296	1.130	0.917	0.638	0.765	0.595	0.677	0.953	2.465	4.118	4.343	3.516	3.010	2.873	2.698	2.750	2.941	3.110	3.366	3.830	3.678	3.262	2.492	2.227	1.373	1.040	0.893	0.922	1.014	1.073	1.166	1.387	1.974	2.621	3.077	4.072	5.515	6.396	7.731	8.886	10.10	9.409	9.643	9.437	7.580	6.138	5.913	5.529	3.183	1.793	1.155	1.178	1.299
320.0	1302	877.0	444.0	248.0	206.3	271.9	414.9	661.5	1010	1383	1588	1433	927.4	800.1	541.2	160.6	123.7	177.6	460.8	2229	2967	326.3	6.215	2.386	1.758	1.327	0.916	0.678	0.783	0.616	0.656	0.825	2.127	3.401	3.808	2.986	2.466	2.286	2.241	2.376	2.411	2.902	2.829	3.086	2.811	2.860	2.314	2.129	1.489	1.068	0.860	0.899	0.943	0.994	1.189	1.366	1.776	2.158	2.766	3.475	4.435	5.560	6.349	7.202	8.322	7.731	7.842	7.498	6.219	4.752	4.282	4.781	5.178	3.364	1.797	1.212	0.943
325.0	1121	810.8	442.5	254.8	212.8	263.0	378.4	581.7	862.3	1159	1323	1202	777.4	564.6	647.7	305.5	104.1	84.47	136.6	641.1	2651	2433	52.18	3.876	2.052	1.270	1.070	0.901	0.796	0.588	0.739	0.834	1.625	2.811	3.278	2.653	2.081	1.970	1.912	1.977	2.069	2.519	2.361	2.590	2.637	2.757	2.133	1.956	1.520	1.106	0.803	0.869	0.882	0.951	1.032	1.309	1.804	1.954	2.562	2.948	3.813	4.416	5.294	6.154	6.768	6.695	6.445	6.111	5.063	3.976	3.222	3.203	3.824	4.303	3.416	1.968	1.020
330.0	965.2	730.1	448.3	283.8	229.2	258.1	340.5	493.5	707.9	937.5	1060	982.5	666.9	440.7	433.9	462.2	242.9	82.00	73.95	178.7	750.3	2006	2169	228.1	13.40	2.188	1.394	1.146	0.918	0.751	0.738	0.860	1.290	2.137	2.374	1.927	1.759	1.547	1.586	1.557	1.662	1.927	1.938	2.153	2.269	2.252	1.992	1.883	1.602	1.134	0.965	0.988	0.869	0.996	1.129	1.166	1.598	1.832	2.206	2.638	3.382	3.751	4.232	4.952	5.370	5.464	5.291	5.051	4.302	3.504	2.739	2.489	2.403	2.664	3.116	3.108	2.758
335.0	843.2	713.0	478.8	300.3	235.6	254.1	308.2	424.9	574.2	741.1	848.6	796.8	586.2	406.5	311.3	307.8	410.4	191.3	75.68	82.81	198.7	481.5	1355	2647	358.2	12.26	2.118	1.417	1.208	0.853	0.887	0.853	1.168	1.674	1.879	1.503	1.453	1.385	1.166	1.409	1.411	1.551	1.709	1.742	2.004	2.058	1.963	1.919	1.530	1.142	1.063	1.118	0.947	1.073	1.015	1.175	1.423	1.632	1.828	2.165	2.631	3.072	3.577	3.828	4.190	4.604	4.232	4.265	3.794	3.064	2.673	2.347	1.938	1.970	1.971	2.038	2.447
340.0	776.0	683.8	471.2	309.3	241.8	251.1	289.2	380.6	502.0	630.9	714.1	689.2	531.5	376.6	281.4	223.3	320.8	340.4	117.2	67.08	79.05	131.1	361.1	1883	2497	275.7	4.324	1.626	1.430	1.087	0.834	0.725	1.173	1.576	1.505	1.325	1.221	1.254	1.022	1.214	1.202	1.405	1.398	1.609	1.839	1.687	1.890	1.948	1.652	1.115	1.006	1.237	0.968	1.193	0.993	1.059	1.294	1.487	1.767	2.044	2.334	2.594	3.237	3.333	3.493	3.828	3.577	3.586	3.220	2.667	2.549	2.151	1.921	1.823	1.626	1.504	1.497
345.0	714.2	648.5	470.0	324.2	248.0	236.6	274.2	345.6	441.2	548.1	606.5	594.8	477.4	361.8	270.9	197.5	201.5	337.8	233.0	75.78	56.07	58.00	100.6	546.4	2358	2057	44.61	2.742	1.894	1.169	0.932	0.820	1.066	1.418	1.392	1.232	1.266	1.059	0.970	1.044	1.193	1.261	1.359	1.487	1.772	1.769	1.666	1.827	1.552	1.179	1.050	1.080	1.032	1.121	0.896	1.042	1.362	1.380	1.581	1.843	2.058	2.260	2.746	2.783	3.025	3.063	3.190	3.240	2.823	2.499	2.402	1.997	1.835	1.772	1.554	1.354	1.248
350.0	638.5	590.9	453.2	322.9	247.7	238.7	256.4	305.3	374.9	451.9	499.2	500.0	418.3	332.0	258.5	188.4	155.9	198.7	278.4	185.2	65.32	47.48	48.02	140.6	685.6	1769	1688	200.0	11.51	1.569	1.047	0.941	0.939	1.142	1.184	1.092	1.097	0.996	1.037	1.038	1.103	1.050	1.248	1.442	1.529	1.579	1.675	1.634	1.438	1.150	1.015	1.107	1.117	1.105	1.065	1.125	1.270	1.302	1.451	1.535	1.808	1.999	2.334	2.376	2.460	2.640	2.627	2.765	2.465	2.174	2.078	1.954	1.673	1.672	1.351	1.346	1.127
355.0	589.8	563.7	456.9	333.0	260.8	256.6	253.3	281.7	327.6	371.7	419.7	423.7	369.4	309.2	254.8	195.2	156.0	148.7	180.2	272.8	167.0	63.20	46.21	58.55	171.8	424.3	1135	2114	322.3	6.594	1.649	1.092	1.085	1.095	1.165	1.010	0.895	0.976	0.993	1.052	0.964	1.173	1.188	1.604	1.524	1.617	1.467	1.538	1.406	1.210	1.062	1.152	1.181	1.222	1.125	1.163	1.268	1.358	1.239	1.319	1.518	1.799	1.900	2.078	2.142	2.134	2.158	2.387	2.268	2.112	1.806	1.898	1.610	1.495	1.459	1.571	1.309
360.0	604.2	575.5	454.0	352.4	293.8	276.6	271.6	271.5	295.5	334.9	372.9	385.4	342.8	296.4	260.6	209.3	175.6	161.0	158.2	221.7	268.8	120.9	60.68	51.14	65.80	113.6	309.8	1618	2125	47.72	3.545	1.307	1.104	1.127	1.035	1.197	1.046	1.032	1.152	1.039	1.108	1.207	1.241	1.456	1.591	1.553	1.565	1.505	1.386	1.222	1.189	1.341	1.319	1.323	1.232	1.198	1.369	1.286	1.290	1.466	1.423	1.575	1.628	1.913	1.898	1.991	2.003	2.014	2.115	2.110	1.775	1.812	1.565	1.638	1.392	1.507	1.353
365.0	643.3	597.8	471.7	407.1	358.8	331.9	307.9	273.1	279.3	311.1	336.9	352.7	327.0	307.1	274.7	235.5	211.5	196.2	183.2	190.8	273.2	225.9	96.93	62.29	52.65	52.05	87.98	487.2	2126	1499	38.44	1.952	1.363	1.327	1.076	1.264	1.165	1.248	1.111	1.245	1.260	1.402	1.273	1.544	1.626	1.766	1.527	1.769	1.563	1.474	1.319	1.548	1.419	1.516	1.430	1.451	1.485	1.457	1.470	1.515	1.503	1.461	1.633	1.621	1.711	1.889	1.776	1.784	1.891	1.797	1.706	1.751	1.680	1.890	1.567	1.553	1.432
370.0	753.6	663.6	561.1	500.7	478.4	443.9	380.2	307.8	277.7	285.7	309.7	329.0	327.0	322.4	310.0	286.2	274.1	266.9	250.4	234.2	241.8	281.5	217.5	108.7	68.59	50.64	45.78	125.8	628.0	1456	1498	175.9	7.945	1.616	1.510	1.443	1.394	1.507	1.609	1.541	1.661	1.933	1.768	1.861	1.863	1.885	1.718	1.831	1.730	1.688	1.598	1.989	1.889	1.938	1.838	1.796	1.827	1.764	1.634	1.517	1.381	1.441	1.523	1.527	1.650	1.712	1.662	1.733	1.861	1.897	1.816	1.930	1.910	2.095	1.786	1.904	1.929
375.0	899.1	740.5	655.3	599.6	607.3	564.4	461.8	347.0	275.0	270.0	285.9	316.1	334.2	342.2	351.6	346.7	345.8	346.9	329.2	303.2	270.4	255.4	290.8	212.1	100.3	63.59	45.77	49.98	153.9	352.5	1102	1778	248.6	5.980	1.860	1.539	1.671	1.844	2.046	2.004	2.085	2.302	2.224	2.112	2.151	2.003	2.048	2.116	1.942	1.855	1.752	2.323	2.438	2.500	2.357	2.297	2.489	2.193	1.849	1.677	1.432	1.455	1.499	1.575	1.451	1.541	1.567	1.858	1.860	1.949	1.775	1.917	2.319	2.266	2.305	2.228	2.480
380.0	980.6	808.9	726.1	680.2	694.6	634.8	523.8	377.4	280.8	256.9	278.8	311.3	329.1	361.0	380.1	386.0	394.5	400.7	381.5	350.3	305.5	265.2	266.0	279.5	152.8	78.26	51.60	36.85	50.54	90.13	303.2	1420	1450	39.87	2.918	1.957	1.936	2.150	2.456	2.379	2.455	2.482	2.578	2.245	2.363	2.280	2.152	2.195	1.957	2.050	2.002	2.741	2.697	2.851	3.009	2.586	2.682	2.360	2.045	1.738	1.378	1.439	1.336	1.484	1.566	1.486	1.631	1.520	1.883	1.848	1.860	2.186	2.510	2.407	2.434	2.550	2.716
385.0	1085	865.3	777.2	741.8	751.3	706.5	560.6	402.4	283.5	249.9	270.1	300.7	333.0	366.3	400.6	414.4	426.6	436.4	416.2	387.1	337.4	284.3	246.6	264.6	225.0	105.1	58.09	38.08	30.59	33.39	78.05	435.4	1511	1104	30.53	2.773	2.284	2.585	2.700	2.636	2.492	2.974	2.812	2.497	2.763	2.461	2.160	2.471	2.293	2.074	2.106	2.847	2.978	2.948	3.054	2.997	2.915	2.498	2.052	1.977	1.496	1.390	1.386	1.383	1.336	1.392	1.493	1.575	1.754	1.866	2.165	2.253	2.325	2.382	2.540	2.731	2.872
390.0	1116	924.6	805.2	796.7	800.3	756.3	601.3	417.6	283.7	237.3	256.2	285.6	325.5	372.0	409.8	431.7	452.4	460.3	446.7	413.3	367.7	309.3	252.5	222.0	224.7	173.2	82.13	44.89	30.30	23.76	29.00	106.2	452.3	1100	818.3	140.9	8.779	2.680	2.784	2.998	2.787	2.853	3.033	2.825	2.838	2.599	2.326	2.536	2.383	2.259	2.378	3.142	3.129	3.331	3.194	3.118	3.025	2.548	2.264	1.840	1.561	1.320	1.384	1.308	1.367	1.384	1.538	1.516	1.662	1.860	2.110	2.266	2.256	2.429	2.825	2.818	2.995
395.0	1144	951.4	800.7	815.4	820.0	776.6	611.2	423.2	276.4	229.4	242.0	274.8	315.5	366.0	412.8	437.6	457.6	469.7	459.6	425.3	380.0	321.8	263.7	210.3	179.2	189.3	143.3	56.36	34.92	25.36	20.52	33.49	108.3	266.6	745.9	1379	220.8	6.282	3.055	3.202	2.921	3.095	2.848	2.867	2.742	2.554	2.312	2.337	2.439	2.205	2.492	3.047	3.219	3.494	3.358	3.119	3.145	2.532	2.279	1.772	1.658	1.310	1.510	1.291	1.269	1.482	1.411	1.515	1.595	1.772	2.074	2.246	2.276	2.818	2.762	2.905	3.086
400.0	1085	893.3	816.1	797.5	811.0	762.3	614.0	427.2	275.8	225.6	224.9	258.1	303.8	353.2	402.2	425.0	450.8	466.3	454.4	428.3	376.8	324.4	267.6	212.8	167.9	153.9	170.5	95.53	42.65	28.95	21.41	18.69	32.71	66.86	211.5	1102	1219	34.91	4.016	3.327	2.954	2.984	3.061	2.852	2.832	2.683	2.424	2.429	2.494	2.368	2.465	3.061	3.007	3.344	3.245	3.209	3.244	2.651	2.363	1.883	1.586	1.270	1.288	1.178	1.159	1.319	1.152	1.311	1.428	1.764	1.838	1.996	2.315	2.596	2.652	2.926	3.130
405.0	1086	872.9	784.2	772.3	790.2	752.4	604.7	408.4	267.6	214.0	218.3	245.5	291.9	333.4	381.3	409.9	439.1	450.8	441.6	419.5	375.0	324.6	266.8	215.1	167.5	132.5	148.2	139.2	55.84	32.23	23.79	17.97	17.43	22.44	53.44	337.8	1209	873.5	27.36	3.549	3.093	3.153	2.714	2.760	2.600	2.605	2.457	2.314	2.395	2.294	2.367	2.820	3.116	3.247	3.242	3.105	3.143	2.569	2.141	1.816	1.521	1.232	1.095	1.052	1.133	1.262	1.321	1.286	1.454	1.628	1.677	2.088	2.269	2.492	2.648	2.718	2.774
410.0	1017	825.9	740.5	725.7	749.7	709.0	574.0	386.0	252.8	206.2	203.5	231.5	265.4	309.9	353.5	382.7	409.1	421.6	415.7	396.8	358.8	314.6	262.5	212.5	166.3	129.0	112.5	126.2	107.4	51.82	28.52	19.90	15.68	13.70	18.51	81.20	354.4	848.2	631.0	124.9	6.857	3.092	2.825	2.654	2.604	2.503	2.090	2.250	2.342	2.028	2.188	2.839	3.055	3.092	3.199	2.960	2.825	2.369	2.089	1.715	1.514	1.177	1.042	1.029	1.050	1.124	1.262	1.267	1.323	1.505	1.697	1.866	2.163	2.165	2.400	2.707	2.763
415.0	950.3	769.1	684.2	664.6	686.6	642.3	522.8	358.3	235.7	195.1	192.2	209.9	238.9	281.3	317.0	345.0	373.2	382.8	380.4	364.5	334.2	297.5	249.1	207.1	162.9	128.6	100.7	89.61	108.6	95.58	40.88	23.02	16.69	12.86	11.81	23.96	84.07	205.7	542.8	901.3	170.8	5.466	2.718	2.589	2.340	2.310	2.049	1.968	2.241	2.002	2.058	2.579	2.862	2.805	2.851	2.639	2.544	2.188	1.943	1.621	1.282	1.123	0.963	1.015	0.927	0.994	1.038	1.350	1.246	1.347	1.573	1.728	1.965	1.832	2.126	2.260	2.579
420.0	862.7	728.3	636.6	631.4	621.1	600.9	487.3	333.4	225.5	183.3	178.3	192.1	220.4	257.8	285.5	314.8	338.8	354.2	350.3	339.6	309.8	280.2	238.2	198.0	159.4	125.7	99.64	78.70	81.60	110.1	65.19	27.21	17.53	13.68	11.01	11.55	23.51	50.32	151.9	701.5	779.8	32.27	3.362	2.447	2.281	1.952	1.985	1.954	1.852	1.839	2.028	2.426	2.709	2.755	2.777	2.578	2.363	2.152	1.850	1.756	1.261	1.189	0.994	0.889	0.961	0.915	0.901	1.097	1.272	1.282	1.413	1.570	1.741	1.789	1.923	2.045	2.491
425.0	798.0	671.9	575.1	581.4	580.7	557.7	452.3	320.9	215.6	171.1	164.4	177.3	201.9	239.2	262.3	287.0	307.7	323.7	323.2	314.5	290.6	261.3	222.5	190.5	156.5	122.5	97.16	75.89	65.09	88.03	90.25	39.59	20.31	14.27	11.47	9.653	11.20	15.78	38.39	212.0	763.0	605.8	26.17	2.589	2.200	1.931	1.836	1.909	1.741	1.705	1.772	2.303	2.303	2.369	2.478	2.377	2.164	1.914	1.667	1.451	1.255	1.085	1.032	0.928	0.927	0.872	0.839	0.933	1.093	1.109	1.147	1.422	1.493	1.567	1.742	1.822	2.307
430.0	868.6	583.4	522.8	532.6	518.9	499.9	405.7	289.9	200.9	161.4	153.4	163.9	183.2	211.3	234.0	253.4	273.8	286.0	287.4	279.2	262.1	236.6	207.2	176.2	145.7	118.1	93.44	74.12	60.72	59.80	77.00	69.69	33.16	16.36	12.29	9.984	8.919	8.638	12.79	51.35	220.7	560.8	489.8	124.2	6.965	1.928	1.758	1.743	1.666	1.609	1.644	1.971	2.168	2.142	2.080	2.106	2.012	1.699	1.684	1.337	1.142	0.949	0.885	0.905	0.860	0.829	0.806	0.873	0.972	1.074	1.098	1.238	1.350	1.430	1.495	1.538	1.963
435.0	1379	546.7	475.9	460.9	458.1	447.5	361.4	265.5	189.0	150.0	143.0	151.2	168.9	187.0	207.2	223.9	238.4	251.6	252.9	245.8	232.0	214.5	185.6	161.7	136.7	111.9	89.42	72.55	58.68	50.05	50.23	65.65	59.33	25.62	13.44	10.95	8.842	8.241	7.709	15.38	52.71	134.3	371.6	855.7	177.4	5.663	1.816	1.728	1.552	1.565	1.375	1.718	1.891	1.874	1.901	1.771	1.938	1.665	1.428	1.201	0.949	0.886	0.806	0.833	0.771	0.807	0.879	0.916	0.883	1.093	0.896	1.142	1.294	1.151	1.352	1.410	1.597
440.0	1856	661.1	423.1	416.7	421.2	406.1	324.1	246.8	181.1	143.6	135.1	141.7	154.2	169.6	186.1	200.0	214.2	225.9	225.7	222.0	209.9	196.0	172.9	150.5	128.3	106.3	86.02	70.26	58.49	48.57	42.26	47.08	65.08	41.75	16.86	11.90	9.339	8.190	7.241	7.420	15.43	33.42	101.6	615.2	728.3	30.71	2.928	1.686	1.586	1.304	1.295	1.744	1.682	1.553	1.805	1.655	1.520	1.579	1.382	1.174	0.930	0.906	0.705	0.858	0.809	0.735	0.807	0.822	0.931	0.888	0.910	1.119	1.119	1.187	1.260	1.373	1.563
445.0	1967	951.2	397.1	372.8	390.0	364.2	299.6	231.5	167.8	137.1	127.5	132.7	142.8	153.7	166.2	181.4	194.4	201.9	202.6	202.0	191.1	178.5	159.8	139.0	116.3	99.64	81.47	67.63	57.50	46.65	39.60	36.16	51.28	57.74	26.90	13.19	10.40	8.229	7.341	6.371	7.470	10.81	26.09	177.4	639.7	590.7	24.50	2.261	1.518	1.393	1.258	1.583	1.565	1.506	1.637	1.463	1.358	1.426	1.254	1.214	0.905	0.901	0.744	0.790	0.788	0.794	0.711	0.812	0.778	0.899	0.905	0.986	0.903	1.124	1.123	1.229	1.261
450.0	1281	1600	514.1	326.5	337.9	315.5	260.8	201.4	152.3	122.3	115.3	116.8	124.7	137.1	144.9	156.0	166.3	172.2	175.5	175.1	166.9	156.1	140.6	123.4	105.4	89.50	75.25	62.89	54.10	45.15	38.39	31.84	33.14	46.11	43.98	22.52	11.72	9.257	7.649	6.785	6.034	5.804	8.986	42.65	177.5	474.5	546.2	114.6	7.034	1.420	1.194	1.480	1.478	1.408	1.452	1.283	1.341	1.196	1.164	0.970	0.817	0.792	0.755	0.746	0.705	0.662	0.654	0.640	0.721	0.742	0.727	0.888	0.819	0.997	0.903	1.093	1.117
455.0	611.7	1573	992.2	296.0	284.9	273.4	218.3	181.2	136.2	111.9	105.0	103.7	111.5	118.2	123.8	131.6	138.6	146.5	149.0	146.4	142.7	130.8	122.1	107.1	93.09	79.09	68.13	57.42	49.10	41.16	35.42	29.84	26.12	27.42	40.16	39.14	18.47	10.26	7.796	6.804	6.397	5.529	5.095	12.22	42.19	111.1	287.2	626.8	165.2	7.947	1.244	1.369	1.117	1.183	1.244	1.151	1.169	1.125	0.994	0.854	0.744	0.764	0.672	0.529	0.528	0.625	0.684	0.562	0.685	0.718	0.679	0.799	0.798	0.965	0.784	0.967	0.978
460.0	401.5	1012	1585	391.5	255.0	241.0	197.9	165.1	126.0	102.8	93.94	96.92	100.2	105.4	110.7	114.0	120.6	126.9	128.9	128.7	123.2	115.1	106.3	94.62	82.76	70.69	60.71	52.67	44.91	38.18	33.37	28.40	24.10	21.38	26.72	40.75	28.51	12.55	8.648	7.185	6.043	5.399	4.530	5.456	11.80	27.07	72.32	379.1	599.9	133.9	3.564	1.279	1.103	1.213	1.223	1.036	1.168	0.988	0.879	0.824	0.665	0.686	0.623	0.498	0.551	0.611	0.601	0.536	0.594	0.634	0.605	0.673	0.642	0.989	0.682	0.784	0.834
465.0	333.7	532.4	1668	697.4	231.2	214.3	182.6	142.1	111.8	95.43	86.85	88.67	91.77	95.34	98.13	101.6	106.9	111.5	111.3	111.4	107.5	102.4	93.02	84.98	72.63	63.25	56.56	47.81	42.66	36.44	32.70	27.57	22.89	19.92	19.41	30.58	36.81	18.67	9.237	7.177	6.258	5.323	4.759	4.110	5.085	8.334	18.25	101.3	452.1	585.7	21.97	2.131	1.189	1.112	1.055	0.940	1.052	0.915	0.869	0.817	0.803	0.647	0.554	0.512	0.526	0.521	0.619	0.567	0.527	0.540	0.539	0.694	0.704	0.681	0.639	0.714	0.807
470.0	332.0	291.7	949.8	1505	340.5	178.4	155.3	125.4	98.81	86.40	80.00	78.87	77.86	80.43	83.14	85.32	89.12	92.61	93.18	92.53	90.01	86.10	78.59	72.19	63.34	55.83	48.74	42.47	38.05	32.76	29.65	25.51	21.41	18.24	16.43	18.77	27.57	27.57	15.08	7.675	6.178	5.339	4.458	4.182	3.731	3.682	5.855	24.48	118.0	367.9	398.1	111.7	8.485	1.150	0.957	0.813	0.885	0.840	0.763	0.682	0.695	0.585	0.546	0.482	0.459	0.487	0.564	0.439	0.511	0.437	0.494	0.585	0.574	0.568	0.574	0.650	0.619
475.0	341.5	226.8	362.1	1456	879.0	167.5	132.0	106.1	85.99	78.09	68.44	67.96	67.36	67.87	69.61	70.22	72.90	74.52	77.51	75.31	74.20	70.06	64.63	59.19	52.65	47.22	40.99	36.69	33.45	29.39	26.36	22.97	20.05	17.11	15.42	14.53	16.25	23.54	23.92	11.67	6.083	5.217	4.610	3.877	3.665	3.014	3.039	7.002	27.74	84.04	161.3	408.9	174.7	11.73	0.904	0.774	0.835	0.717	0.729	0.540	0.475	0.512	0.456	0.479	0.367	0.437	0.463	0.424	0.489	0.383	0.382	0.486	0.400	0.613	0.455	0.488	0.575
480.0	315.7	228.0	195.9	858.5	1404	249.7	113.6	97.00	79.48	70.08	66.12	62.15	62.33	61.32	62.56	62.25	64.28	65.84	65.41	66.11	63.76	60.74	55.39	51.14	46.09	42.50	36.41	33.53	29.93	26.90	24.19	21.10	18.55	16.16	14.20	12.84	12.49	15.94	24.23	17.45	7.624	5.215	4.509	3.650	3.752	3.059	2.473	3.039	7.547	20.12	38.87	193.5	441.0	159.8	5.622	0.899	0.768	0.752	0.690	0.450	0.476	0.443	0.446	0.384	0.393	0.414	0.447	0.446	0.398	0.369	0.457	0.476	0.423	0.430	0.363	0.425	0.491
485.0	261.6	256.4	154.1	388.6	1448	466.1	102.0	89.82	72.25	65.84	59.83	57.35	55.43	54.77	55.45	53.57	57.87	59.46	58.09	59.10	55.70	54.69	49.46	46.41	41.80	38.44	33.37	30.60	27.11	25.79	23.52	19.92	17.79	15.46	13.54	12.19	11.22	11.58	18.09	22.30	12.13	5.616	4.439	3.627	3.155	3.153	2.684	2.260	3.056	5.676	9.919	48.56	267.7	456.7	28.38	2.673	0.821	0.639	0.588	0.487	0.427	0.475	0.392	0.437	0.379	0.313	0.370	0.365	0.403	0.340	0.377	0.360	0.377	0.370	0.370	0.429	0.443
490.0	181.7	281.3	157.0	177.9	792.1	1139	214.6	78.69	65.05	59.12	53.82	51.14	48.93	48.13	49.42	47.68	48.90	49.66	49.70	48.97	47.50	46.03	43.10	38.87	36.32	32.40	29.06	27.03	24.70	23.02	20.88	18.54	16.41	14.60	13.00	11.56	10.57	9.438	11.23	16.70	17.57	9.624	4.935	3.656	3.149	3.002	2.851	2.623	2.104	2.490	3.403	12.16	66.38	225.7	337.5	121.0	11.94	0.918	0.635	0.498	0.456	0.439	0.389	0.326	0.352	0.287	0.319	0.331	0.359	0.322	0.331	0.280	0.314	0.356	0.346	0.357	0.321
495.0	127.0	218.8	203.0	117.5	269.9	1112	713.1	81.35	55.89	52.91	46.57	45.06	41.98	43.30	42.78	39.87	41.75	42.33	42.04	40.14	39.98	38.52	36.11	33.47	30.67	27.56	25.03	23.47	21.70	20.98	19.03	17.16	14.83	13.49	11.61	10.97	9.737	8.706	8.443	9.402	15.20	15.40	7.595	4.005	3.049	2.812	2.545	2.765	2.544	1.817	2.005	3.944	16.00	51.63	122.3	355.6	217.1	15.48	0.830	0.535	0.477	0.441	0.361	0.415	0.319	0.273	0.295	0.286	0.332	0.299	0.305	0.284	0.330	0.331	0.261	0.314	0.259
500.0	106.8	151.6	222.4	111.4	122.1	656.1	1181	157.9	51.62	47.08	42.89	40.62	38.39	40.10	36.55	35.31	35.64	36.74	36.73	35.05	34.75	32.68	31.69	28.86	26.51	24.83	22.30	20.76	19.48	18.34	17.15	15.74	14.39	12.27	11.33	10.36	8.954	8.146	7.711	7.256	9.795	16.02	11.82	4.975	3.320	2.787	2.656	2.430	2.668	1.988	1.646	2.043	4.654	12.63	29.12	149.7	430.6	179.1	9.320	0.562	0.481	0.388	0.417	0.348	0.345	0.298	0.259	0.222	0.292	0.264	0.264	0.300	0.318	0.290	0.232	0.323	0.235
505.0	89.61	111.4	214.6	130.9	85.44	282.5	1281	328.6	49.77	42.34	39.41	37.28	37.03	34.71	32.62	32.18	31.73	31.62	31.80	31.23	31.09	29.23	27.36	25.65	23.18	23.04	20.01	18.52	17.90	16.55	15.81	14.62	13.38	11.46	10.20	9.542	8.405	7.696	6.939	6.207	7.020	11.66	14.46	7.439	3.712	2.858	2.501	2.241	2.414	2.442	1.643	1.546	2.138	3.981	7.770	36.47	215.6	397.8	131.7	3.119	0.622	0.386	0.417	0.280	0.313	0.226	0.317	0.203	0.247	0.315	0.245	0.311	0.275	0.326	0.217	0.307	0.216
510.0	82.55	80.83	150.2	165.7	74.91	110.2	719.5	1038	137.0	38.75	35.29	33.41	30.58	30.45	28.19	27.40	27.06	26.93	26.82	26.55	26.35	24.13	23.89	21.46	20.38	19.25	17.25	16.21	15.41	14.63	14.07	12.61	11.49	10.47	9.205	8.706	7.375	6.793	5.799	5.546	5.338	6.730	11.48	10.98	6.299	3.128	2.409	2.146	2.057	2.255	2.111	1.663	1.535	1.818	2.786	9.156	51.97	174.7	311.3	128.7	11.50	0.530	0.387	0.283	0.295	0.240	0.285	0.249	0.226	0.210	0.205	0.262	0.245	0.258	0.253	0.244	0.214
515.0	64.54	65.26	84.43	169.4	94.48	63.63	223.9	1120	585.1	42.60	31.83	27.89	25.39	24.54	24.47	23.24	22.37	21.80	22.79	21.56	21.64	19.80	19.64	18.02	16.75	15.75	14.74	13.74	13.46	12.40	11.76	11.13	9.855	8.791	8.125	7.853	7.021	6.345	5.605	5.038	4.845	4.765	6.192	10.50	9.805	4.857	2.503	1.914	1.930	1.773	1.895	2.182	1.651	1.461	1.561	2.994	12.55	39.89	98.01	286.5	201.6	14.06	0.448	0.354	0.314	0.258	0.209	0.244	0.195	0.223	0.169	0.204	0.207	0.195	0.266	0.156	0.185
520.0	60.44	51.11	58.41	137.3	126.9	52.64	83.03	674.2	1120	102.6	29.21	24.24	24.73	21.25	21.11	20.39	19.75	18.93	19.23	18.45	18.28	17.63	17.08	15.28	14.36	13.80	12.72	11.87	12.24	11.42	10.56	10.13	8.864	8.066	7.012	6.835	6.331	5.732	5.050	4.560	4.083	3.836	4.030	6.894	10.29	7.450	3.172	1.891	1.790	1.677	1.462	1.999	1.901	1.285	1.247	1.428	3.506	9.678	22.87	113.1	321.1	147.9	6.767	0.452	0.323	0.290	0.256	0.222	0.154	0.223	0.161	0.235	0.149	0.200	0.216	0.174	0.193
525.0	46.58	49.16	46.59	92.12	149.5	59.71	46.49	260.5	1330	239.1	27.66	24.44	22.05	20.71	18.50	17.85	17.51	16.70	16.29	16.01	16.16	15.57	14.94	13.65	12.39	12.21	11.25	10.45	10.29	10.46	9.723	8.839	7.742	7.192	6.608	6.287	5.957	5.303	4.495	4.096	3.794	3.612	3.248	4.347	8.225	8.674	4.960	2.432	1.780	1.536	1.389	1.658	1.975	1.514	1.098	1.055	1.535	2.974	5.831	27.07	152.1	289.9	31.98	2.509	0.299	0.305	0.237	0.232	0.135	0.202	0.198	0.168	0.219	0.156	0.157	0.136	0.184
530.0	42.64	40.76	37.53	52.25	134.1	88.36	37.93	86.83	766.4	942.1	95.97	21.25	18.80	17.81	16.19	15.06	14.50	13.87	13.72	13.31	13.89	12.84	12.52	11.65	10.52	10.26	9.338	9.345	9.006	8.800	8.283	7.859	7.007	6.425	5.852	5.626	5.149	4.684	3.933	3.822	3.524	3.122	2.871	3.165	4.546	7.272	7.076	3.848	1.920	1.395	1.319	1.285	1.506	1.748	1.407	0.981	0.942	1.291	1.827	6.568	36.31	122.2	189.9	111.8	10.13	0.409	0.292	0.253	0.152	0.196	0.153	0.154	0.163	0.171	0.174	0.103	0.177
535.0	36.74	36.36	31.42	34.27	76.99	127.0	41.96	42.49	219.5	1075	492.6	23.03	16.53	14.55	13.63	12.58	11.91	11.41	11.49	11.43	11.11	11.05	9.929	9.540	9.022	8.771	7.891	7.998	7.317	7.314	6.960	6.940	6.224	5.310	5.244	4.904	4.280	3.919	3.603	3.340	3.094	2.746	2.448	2.480	2.788	3.973	6.613	5.836	2.854	1.396	1.224	1.010	1.089	1.257	1.656	1.201	0.819	0.769	0.824	1.960	8.599	27.77	59.25	198.0	146.3	11.46	0.317	0.218	0.183	0.179	0.218	0.138	0.165	0.157	0.148	0.151	0.122
540.0	30.36	32.88	25.02	27.28	45.58	129.3	63.18	28.07	69.01	631.5	1002	67.19	15.18	13.24	11.72	11.05	10.37	10.24	9.754	9.814	9.294	9.054	8.299	8.564	7.792	7.626	6.945	6.664	6.398	6.558	6.225	5.971	5.413	4.823	4.475	4.183	3.592	3.585	3.285	2.838	2.702	2.321	2.148	2.126	1.985	2.566	4.666	6.471	4.050	1.599	1.118	1.019	0.895	0.901	1.177	1.528	0.899	0.629	0.660	0.901	2.333	6.609	13.86	76.10	208.7	105.0	4.953	0.222	0.155	0.169	0.160	0.165	0.183	0.158	0.176	0.171	0.117
545.0	30.24	26.04	25.92	24.20	29.71	105.0	93.11	27.67	33.62	229.4	1216	180.4	14.81	12.37	10.20	10.25	8.840	9.110	8.617	8.399	8.036	7.813	7.384	7.324	7.068	6.383	6.004	5.782	5.907	5.861	5.598	5.182	4.855	4.222	3.967	3.810	3.480	3.099	2.888	2.611	2.284	2.325	1.963	1.889	1.789	1.895	2.932	5.189	5.354	2.540	1.234	0.985	0.979	0.838	0.886	1.288	1.344	0.746	0.530	0.579	0.871	1.850	3.418	18.20	94.32	199.3	31.26	1.971	0.232	0.209	0.130	0.191	0.115	0.202	0.129	0.149	0.124
550.0	35.51	29.77	23.72	21.64	20.93	55.53	111.6	42.73	27.21	77.22	672.3	804.1	57.49	11.04	8.803	8.514	7.514	7.759	6.951	6.828	6.773	6.407	6.263	5.836	5.598	5.014	4.885	4.777	4.612	4.477	4.547	4.080	3.925	3.501	3.274	3.069	3.038	2.583	2.458	2.270	2.092	2.004	1.744	1.686	1.529	1.528	1.748	2.903	4.471	3.823	1.918	1.038	0.866	0.735	0.752	0.848	1.239	1.114	0.600	0.495	0.525	0.773	1.100	4.418	22.28	81.65	138.0	80.83	8.972	0.352	0.159	0.170	0.155	0.150	0.123	0.110	0.114
555.0	54.44	38.81	25.22	18.90	20.21	30.32	98.29	88.21	40.73	58.79	213.5	955.3	351.1	12.46	7.648	6.771	6.507	6.235	5.585	5.397	5.379	5.009	4.755	4.666	4.814	3.906	3.844	3.819	3.783	3.902	3.620	3.670	3.057	2.890	2.847	2.685	2.572	2.358	2.116	1.757	1.835	1.671	1.515	1.450	1.367	1.232	1.335	1.478	2.540	3.671	2.986	1.543	0.750	0.605	0.649	0.610	0.736	1.117	1.092	0.567	0.525	0.561	0.573	1.347	5.347	18.65	42.60	130.0	100.4	8.018	0.261	0.171	0.146	0.124	0.105	0.108	0.112
560.0	86.00	50.44	28.96	21.53	21.03	24.40	69.22	126.1	64.60	77.17	121.3	585.0	801.9	33.74	7.038	5.547	5.569	5.202	4.640	4.456	4.353	4.258	3.759	3.773	3.813	3.427	3.509	3.085	3.205	3.166	3.256	2.863	2.555	2.740	2.411	2.246	2.090	2.086	1.875	1.650	1.699	1.473	1.347	1.290	1.225	1.228	1.187	1.139	1.472	2.649	3.206	2.186	0.959	0.558	0.551	0.564	0.620	0.764	1.169	0.906	0.654	0.616	0.500	0.902	1.785	4.743	10.17	48.11	136.4	34.05	3.424	0.191	0.185	0.161	0.159	0.077	0.120
565.0	105.6	65.90	35.91	22.59	19.39	25.09	52.61	144.4	102.6	107.1	123.9	270.5	1036	115.6	6.930	4.959	4.761	4.325	3.920	3.798	3.763	3.738	3.140	3.416	3.038	2.928	2.880	2.785	2.577	2.849	2.754	2.607	2.431	2.302	2.367	1.865	1.751	1.636	1.511	1.631	1.349	1.306	1.236	1.188	1.013	1.081	1.061	0.892	1.120	1.576	2.700	2.470	1.271	0.594	0.489	0.513	0.543	0.530	0.795	1.372	0.849	0.655	0.665	0.736	1.105	1.712	2.884	11.81	59.89	111.6	29.37	1.293	0.185	0.111	0.147	0.069	0.100
570.0	140.7	86.54	40.03	23.65	21.54	25.81	46.85	125.8	168.7	146.4	159.7	171.7	631.8	550.3	27.94	4.548	3.939	3.548	3.299	3.185	3.157	2.914	2.693	2.840	2.490	2.295	2.235	2.139	2.070	2.243	2.179	2.174	2.154	2.112	1.939	1.721	1.748	1.587	1.522	1.379	1.259	1.156	1.126	1.147	0.986	1.053	0.878	0.825	0.860	0.938	1.574	2.245	1.748	0.889	0.555	0.464	0.493	0.498	0.621	1.027	1.383	1.037	0.850	0.950	1.130	1.099	1.401	3.349	14.45	47.11	84.91	52.75	5.754	0.198	0.135	0.083	0.121
575.0	161.6	102.4	47.68	26.60	24.34	29.11	47.73	100.9	212.3	194.9	197.9	172.7	220.0	701.0	116.2	4.774	3.368	2.698	2.459	2.602	2.396	2.469	2.088	2.124	1.930	1.972	1.883	1.719	1.936	1.795	1.967	1.795	1.742	1.735	1.685	1.616	1.456	1.296	1.263	1.306	1.208	1.114	0.951	1.123	1.033	0.896	0.925	0.714	0.699	0.682	0.776	1.387	1.838	1.348	0.758	0.492	0.473	0.453	0.547	0.767	1.229	1.565	1.131	1.121	1.282	1.122	1.306	1.521	3.951	10.86	25.93	79.47	34.35	4.952	0.143	0.106	0.099
580.0	193.1	116.0	51.80	27.11	22.81	32.01	49.16	94.58	204.8	239.5	215.9	184.7	115.9	436.7	514.1	13.00	3.163	2.699	2.380	2.217	2.018	1.924	1.973	1.826	1.669	1.594	1.477	1.537	1.484	1.427	1.515	1.462	1.509	1.690	1.598	1.450	1.304	1.190	1.133	1.294	1.003	1.076	1.025	0.935	1.069	0.784	0.831	0.663	0.611	0.583	0.518	0.815	1.508	1.601	0.992	0.487	0.439	0.493	0.526	0.634	0.914	1.559	1.723	1.243	1.342	1.273	1.337	1.189	1.542	2.868	6.151	29.49	73.40	30.82	1.775	0.134	0.103
585.0	193.4	117.1	52.99	24.93	22.92	30.93	51.05	92.60	188.3	277.0	234.0	191.4	94.63	166.8	718.8	66.24	2.822	2.490	1.945	2.013	2.046	1.723	1.677	1.574	1.417	1.449	1.280	1.326	1.265	1.226	1.116	1.181	1.302	1.617	1.511	1.395	1.296	1.106	1.080	1.015	0.978	0.975	0.977	0.971	0.877	0.798	0.836	0.765	0.609	0.516	0.471	0.444	0.962	1.423	1.382	0.769	0.483	0.426	0.580	0.682	0.770	1.136	1.739	1.581	1.485	1.361	1.291	1.072	0.986	0.998	1.611	7.099	33.86	74.10	23.07	0.787	0.116
590.0	192.3	116.9	52.54	25.02	20.98	30.80	49.76	91.04	159.2	273.2	258.3	194.3	91.50	57.55	429.2	333.6	11.55	2.133	1.686	1.697	1.697	1.437	1.356	1.280	1.200	1.156	1.193	1.121	1.015	1.153	0.974	1.054	1.099	1.314	1.441	1.127	1.053	0.921	0.945	0.977	0.808	0.835	0.865	0.892	0.799	0.824	0.714	0.591	0.461	0.385	0.376	0.330	0.545	0.896	1.201	1.000	0.598	0.464	0.526	0.626	0.743	0.963	1.329	1.675	1.818	1.297	1.275	1.107	0.930	0.665	0.636	1.804	8.100	31.48	50.51	23.68	3.480
595.0	175.9	111.4	52.57	25.50	21.88	28.63	45.76	83.73	142.1	231.6	273.5	188.1	85.84	32.19	117.1	462.6	77.27	2.032	1.472	1.526	1.447	1.269	1.171	1.126	0.996	0.921	0.992	0.920	0.858	0.835	0.860	0.776	0.960	1.155	1.103	1.139	1.008	0.879	0.786	0.699	0.646	0.729	0.805	0.698	0.734	0.658	0.623	0.529	0.420	0.399	0.353	0.315	0.342	0.503	0.991	1.107	0.900	0.553	0.501	0.510	0.743	0.947	1.012	1.206	1.792	1.587	1.203	1.028	0.819	0.555	0.364	0.548	1.936	7.193	15.11	42.17	31.39
600.0	164.2	99.79	46.04	22.93	16.89	25.78	42.83	77.97	127.7	199.0	266.3	189.2	81.80	26.02	33.55	297.1	269.1	5.648	1.368	1.236	1.227	1.108	0.892	0.992	0.786	0.822	0.931	0.662	0.690	0.653	0.733	0.672	0.876	0.939	1.086	1.089	1.087	0.774	0.736	0.614	0.678	0.750	0.667	0.786	0.692	0.642	0.530	0.454	0.466	0.306	0.267	0.286	0.315	0.303	0.538	1.082	0.979	0.609	0.478	0.593	0.663	0.829	0.870	1.093	1.435	1.649	1.209	1.050	0.680	0.567	0.347	0.294	0.589	1.758	3.536	15.89	46.51
605.0	145.2	97.06	42.94	19.52	17.70	26.66	40.92	75.75	118.4	173.1	240.4	191.6	80.99	24.54	14.25	110.4	390.0	32.87	1.437	1.032	1.001	0.896	0.758	0.730	0.773	0.599	0.667	0.630	0.685	0.629	0.565	0.605	0.599	0.826	0.807	0.910	0.836	0.691	0.577	0.565	0.640	0.579	0.611	0.678	0.596	0.516	0.459	0.398	0.428	0.305	0.251	0.225	0.294	0.229	0.337	0.633	0.848	0.757	0.539	0.573	0.585	0.651	0.961	1.017	1.189	1.361	1.373	0.997	0.676	0.522	0.361	0.238	0.253	0.514	0.921	3.781	20.25
610.0	135.0	84.96	37.75	19.11	15.55	23.08	37.77	66.48	102.8	152.5	190.7	192.8	78.67	23.51	10.31	31.03	253.4	169.5	5.644	1.103	0.981	0.814	0.665	0.725	0.613	0.582	0.491	0.515	0.469	0.531	0.519	0.572	0.575	0.674	0.775	0.729	0.658	0.619	0.513	0.503	0.511	0.618	0.530	0.521	0.496	0.470	0.441	0.399	0.297	0.246	0.189	0.225	0.254	0.210	0.233	0.336	0.687	0.872	0.690	0.537	0.497	0.610	0.785	0.890	1.042	1.046	1.157	1.095	0.692	0.455	0.292	0.211	0.175	0.216	0.336	0.990	4.811
615.0	121.3	72.77	31.22	16.70	12.35	17.83	32.28	57.36	89.36	128.2	151.1	169.2	85.76	23.47	9.126	10.98	71.04	289.4	50.53	0.982	0.858	0.719	0.688	0.693	0.506	0.470	0.482	0.451	0.525	0.346	0.390	0.402	0.600	0.693	0.689	0.641	0.532	0.576	0.515	0.487	0.497	0.505	0.454	0.471	0.469	0.390	0.335	0.329	0.231	0.224	0.144	0.147	0.209	0.196	0.179	0.200	0.356	0.739	0.747	0.582	0.452	0.634	0.708	0.815	0.916	0.927	0.884	0.935	0.821	0.417	0.306	0.187	0.158	0.196	0.181	0.317	1.156
620.0	100.8	58.78	29.02	14.86	11.89	17.04	28.23	52.08	82.76	112.9	128.8	134.1	93.70	22.63	8.522	6.149	19.48	206.0	167.9	2.215	0.801	0.685	0.568	0.527	0.570	0.436	0.357	0.380	0.405	0.377	0.253	0.347	0.515	0.542	0.469	0.517	0.433	0.498	0.468	0.416	0.421	0.353	0.452	0.450	0.432	0.331	0.289	0.272	0.215	0.214	0.130	0.152	0.120	0.147	0.202	0.176	0.260	0.442	0.730	0.593	0.472	0.459	0.647	0.686	0.763	0.769	0.707	0.749	0.824	0.518	0.292	0.196	0.170	0.156	0.166	0.175	0.388
625.0	102.3	56.00	27.91	12.23	12.35	15.24	28.01	46.53	71.40	97.92	114.2	111.0	94.76	27.06	9.058	5.650	6.850	81.02	266.4	15.68	0.667	0.588	0.533	0.419	0.440	0.454	0.287	0.393	0.339	0.350	0.264	0.324	0.295	0.559	0.471	0.462	0.403	0.417	0.421	0.442	0.333	0.310	0.333	0.398	0.357	0.290	0.288	0.246	0.207	0.183	0.129	0.140	0.205	0.159	0.166	0.148	0.198	0.354	0.474	0.554	0.478	0.510	0.475	0.617	0.687	0.604	0.680	0.661	0.733	0.578	0.385	0.220	0.161	0.112	0.115	0.173	0.185
630.0	84.11	51.00	24.78	14.08	11.60	15.44	24.60	39.42	61.68	86.07	97.87	88.92	76.08	39.11	10.35	5.421	4.345	21.51	191.2	110.5	2.697	0.682	0.516	0.388	0.352	0.372	0.316	0.283	0.332	0.286	0.244	0.347	0.319	0.440	0.402	0.325	0.372	0.354	0.277	0.385	0.363	0.312	0.308	0.336	0.340	0.235	0.248	0.238	0.183	0.154	0.151	0.144	0.153	0.166	0.125	0.147	0.177	0.200	0.333	0.444	0.528	0.525	0.438	0.651	0.599	0.615	0.525	0.510	0.477	0.478	0.414	0.258	0.136	0.158	0.104	0.106	0.091
635.0	67.77	41.93	21.11	10.45	8.720	14.03	21.67	30.99	51.70	72.05	80.49	70.46	52.98	46.99	13.38	5.740	4.039	6.380	55.99	200.3	30.03	0.621	0.446	0.290	0.315	0.299	0.245	0.307	0.284	0.248	0.231	0.240	0.327	0.397	0.342	0.315	0.286	0.211	0.214	0.247	0.313	0.269	0.242	0.236	0.285	0.206	0.182	0.182	0.152	0.164	0.141	0.149	0.132	0.129	0.152	0.189	0.166	0.176	0.335	0.320	0.465	0.518	0.523	0.525	0.438	0.536	0.430	0.433	0.401	0.331	0.379	0.412	0.229	0.117	0.094	0.108	0.110
640.0	62.56	36.89	20.28	10.30	10.47	12.42	18.08	29.42	44.84	64.81	70.06	61.50	40.79	44.25	19.34	6.290	4.012	3.043	14.99	153.3	69.01	1.379	0.506	0.302	0.242	0.339	0.256	0.255	0.274	0.206	0.180	0.205	0.307	0.328	0.353	0.271	0.270	0.182	0.241	0.221	0.320	0.275	0.210	0.214	0.195	0.228	0.228	0.197	0.090	0.135	0.096	0.123	0.130	0.101	0.177	0.158	0.143	0.134	0.244	0.236	0.407	0.486	0.458	0.467	0.400	0.418	0.388	0.426	0.360	0.271	0.303	0.332	0.347	0.151	0.121	0.095	0.125
645.0	52.93	35.50	19.19	11.82	8.565	11.08	17.19	25.24	41.23	55.11	59.30	57.57	35.02	35.07	26.75	7.124	3.690	2.316	4.880	66.06	173.7	8.730	0.526	0.351	0.241	0.284	0.166	0.173	0.253	0.219	0.198	0.151	0.227	0.283	0.313	0.261	0.225	0.182	0.189	0.165	0.198	0.278	0.319	0.224	0.216	0.196	0.201	0.174	0.133	0.097	0.101	0.164	0.078	0.045	0.114	0.096	0.185	0.128	0.165	0.229	0.277	0.435	0.437	0.394	0.419	0.393	0.358	0.392	0.289	0.221	0.240	0.246	0.349	0.170	0.132	0.096	0.083
650.0	48.38	31.90	19.88	11.73	9.494	10.92	15.94	24.56	34.75	45.13	51.61	50.69	30.57	24.84	30.68	8.908	3.968	2.205	2.449	18.81	177.8	45.39	0.592	0.403	0.296	0.318	0.242	0.169	0.217	0.189	0.153	0.130	0.190	0.196	0.256	0.235	0.228	0.149	0.177	0.190	0.163	0.220	0.295	0.222	0.215	0.168	0.131	0.168	0.117	0.140	0.075	0.144	0.092	0.094	0.166	0.111	0.162	0.113	0.152	0.155	0.257	0.387	0.374	0.435	0.425	0.326	0.304	0.264	0.247	0.206	0.187	0.199	0.320	0.241	0.161	0.089	0.067
