Sample:	'1
File name:	Ñù8 10±¶.FD3
Run date:	'12:47:03, 07/28/2025
Operator:	Administrator
Comment:	'

Instrument
Model:	F-2700 FL Spectrophotometer
Serial number:	23B8-004
ROM Version:	4J14000 07

Instrument parameters
Measurement type:	3-D scan
Data mode:	Fluorescence
EX  Start WL:	220.0 nm
EX  End WL:	600.0 nm
EX Sampling interval:	5.0 nm
EM  Start WL:	230.0 nm
EM  End WL:	650.0 nm
EM Sampling interval:	5.0 nm
Scan speed:	12000 nm/min
EX Slit:	5.0 nm
EM Slit:	5.0 nm
PMT Voltage:	700 V
Response:	Auto 
Corrected spectra:	Off
Contour interval:	50.000

Peak integration
Integration method:	Rectangular
Sensitivity:	1
Threshold:	1.000

Peaks
No.	ApexEX/EM(nm)	Height(Data)
1	225.0/335.0	5879
2	230.0/500.0	297.3
3	235.0/510.0	253.3
4	240.0/265.0	440.0
5	240.0/520.0	216.5
6	245.0/270.0	445.7
7	245.0/410.0	3047
8	245.0/540.0	182.9
9	250.0/275.0	578.0
10	250.0/550.0	151.9
11	255.0/285.0	624.7
12	255.0/565.0	133.4
13	260.0/290.0	619.5
14	260.0/575.0	115.1
15	265.0/295.0	780.7
16	265.0/585.0	105.4
17	270.0/300.0	1084
18	270.0/600.0	96.83
19	275.0/410.0	843.0
20	275.0/615.0	94.37
21	280.0/330.0	2699
22	285.0/640.0	116.9
23	315.0/355.0	412.6
24	320.0/360.0	358.5
25	325.0/370.0	302.5
26	330.0/375.0	311.6
27	335.0/380.0	330.1
28	340.0/390.0	343.3
29	340.0/410.0	375.3
30	345.0/395.0	373.9
31	350.0/400.0	406.0
32	395.0/460.0	67.93
33	400.0/465.0	56.92
34	410.0/480.0	39.75
35	415.0/485.0	34.82
36	425.0/500.0	25.72
37	430.0/505.0	21.73
38	440.0/520.0	16.48
39	455.0/335.0	14.14
40	455.0/540.0	9.616
41	465.0/555.0	6.000
42	470.0/560.0	5.150
43	480.0/575.0	3.615
44	495.0/270.0	2.231
45	500.0/415.0	11.03
46	505.0/275.0	3.262
47	510.0/280.0	3.592
48	520.0/285.0	3.536
49	525.0/290.0	3.482
50	535.0/295.0	4.482
51	545.0/300.0	5.036
52	550.0/305.0	6.076
53	565.0/335.0	10.54
54	570.0/330.0	10.68
55	575.0/320.0	10.66
56	580.0/325.0	10.92

Data points
	220.0	225.0	230.0	235.0	240.0	245.0	250.0	255.0	260.0	265.0	270.0	275.0	280.0	285.0	290.0	295.0	300.0	305.0	310.0	315.0	320.0	325.0	330.0	335.0	340.0	345.0	350.0	355.0	360.0	365.0	370.0	375.0	380.0	385.0	390.0	395.0	400.0	405.0	410.0	415.0	420.0	425.0	430.0	435.0	440.0	445.0	450.0	455.0	460.0	465.0	470.0	475.0	480.0	485.0	490.0	495.0	500.0	505.0	510.0	515.0	520.0	525.0	530.0	535.0	540.0	545.0	550.0	555.0	560.0	565.0	570.0	575.0	580.0	585.0	590.0	595.0	600.0
230.0	86.62	1641	3465	886.4	38.40	8.867	6.557	5.873	4.947	4.295	3.929	3.888	3.195	2.853	2.520	1.885	1.773	1.495	1.246	1.159	1.007	0.959	0.832	0.846	0.813	0.732	0.688	0.651	0.616	0.594	0.606	0.554	0.469	0.490	0.450	0.456	0.457	0.433	0.388	0.414	0.515	0.706	0.735	0.514	0.415	0.401	2.058	7.715	11.41	7.076	2.450	0.584	0.279	0.281	0.256	0.282	0.303	0.294	0.267	0.284	0.269	0.266	0.281	0.286	0.299	0.288	0.252	0.286	0.292	0.278	0.286	0.270	0.303	0.306	0.296	0.287	0.281
235.0	149.2	455.0	2253	3260	613.3	53.03	7.441	5.837	5.726	4.344	4.711	3.773	3.193	3.058	2.286	2.065	1.628	1.466	1.329	1.143	1.306	0.942	0.863	0.936	0.890	0.859	0.739	0.696	0.691	0.572	0.621	0.575	0.487	0.531	0.454	0.399	0.466	0.381	0.400	0.394	0.417	0.528	0.652	0.737	0.709	0.456	0.750	2.122	4.770	7.580	10.77	9.578	3.980	0.865	0.267	0.254	0.303	0.294	0.319	0.361	0.332	0.285	0.249	0.255	0.329	0.296	0.261	0.294	0.288	0.301	0.303	0.258	0.282	0.315	0.223	0.274	0.283
240.0	219.0	215.6	695.2	3001	3161	467.9	24.76	6.909	7.206	5.335	5.166	4.820	3.705	2.833	2.635	2.116	1.733	1.584	1.186	1.175	1.092	0.847	0.945	0.826	0.823	0.884	0.775	0.749	0.658	0.581	0.642	0.532	0.449	0.502	0.521	0.499	0.388	0.493	0.383	0.468	0.362	0.550	0.460	0.635	0.836	0.774	0.605	0.753	1.380	2.481	6.741	14.27	14.98	9.185	3.014	0.515	0.269	0.381	0.325	0.267	0.276	0.278	0.284	0.298	0.298	0.270	0.311	0.277	0.300	0.248	0.314	0.275	0.349	0.316	0.277	0.317	0.303
245.0	161.0	280.9	233.9	1076	3753	3078	341.9	12.44	7.580	6.694	5.529	4.768	4.298	3.206	2.654	2.166	1.820	1.613	1.280	1.153	0.944	0.958	1.124	0.758	0.824	0.876	0.810	0.820	0.682	0.638	0.500	0.647	0.511	0.559	0.449	0.453	0.506	0.389	0.488	0.477	0.373	0.422	0.454	0.431	0.633	0.859	0.903	0.923	0.729	0.787	1.814	5.254	11.60	18.29	15.66	7.382	1.605	0.356	0.349	0.269	0.294	0.284	0.314	0.305	0.295	0.327	0.331	0.261	0.290	0.271	0.285	0.271	0.346	0.352	0.290	0.257	0.341
250.0	74.50	202.2	299.9	346.9	1299	3447	3777	1140	61.06	8.671	6.371	5.467	4.853	3.243	3.128	2.300	2.114	1.647	1.292	1.275	1.325	1.123	1.020	1.001	0.959	0.816	0.838	0.704	0.690	0.618	0.560	0.574	0.457	0.485	0.496	0.455	0.407	0.448	0.434	0.457	0.368	0.410	0.427	0.398	0.411	0.492	0.702	1.052	1.157	0.948	0.934	1.508	3.050	6.650	11.35	16.28	18.62	15.08	7.224	1.749	0.391	0.334	0.310	0.350	0.302	0.318	0.311	0.298	0.268	0.307	0.289	0.272	0.294	0.312	0.329	0.269	0.318
255.0	49.43	72.94	228.3	391.4	384.9	939.0	3545	5649	1522	53.51	8.468	6.437	5.141	4.457	3.418	2.751	2.473	1.885	1.489	1.354	1.294	1.098	0.981	0.956	0.855	0.886	0.813	0.719	0.810	0.748	0.671	0.761	0.466	0.486	0.456	0.437	0.429	0.417	0.505	0.423	0.398	0.437	0.397	0.313	0.361	0.347	0.432	0.612	0.739	1.078	1.659	1.478	1.198	1.860	2.908	4.274	8.842	19.67	29.51	23.89	10.39	1.769	0.359	0.372	0.316	0.315	0.308	0.280	0.252	0.294	0.347	0.304	0.267	0.319	0.402	0.293	0.319
260.0	40.73	36.31	94.25	354.9	361.0	270.9	1177	5368	5822	299.5	24.62	9.435	6.766	5.714	4.004	3.128	2.466	2.021	1.536	1.487	1.263	1.197	1.174	0.941	0.931	0.905	0.819	0.832	0.802	0.751	0.688	0.581	0.537	0.470	0.433	0.439	0.477	0.463	0.459	0.405	0.426	0.410	0.382	0.385	0.364	0.304	0.364	0.382	0.414	0.543	1.242	1.916	1.778	1.271	1.070	1.282	2.349	5.677	15.30	29.09	32.81	21.56	7.418	0.911	0.389	0.323	0.392	0.305	0.363	0.257	0.285	0.279	0.311	0.431	0.348	0.320	0.359
265.0	36.67	32.83	41.50	165.1	440.0	265.3	309.7	2021	7161	5221	231.5	13.68	8.282	6.475	4.474	3.353	2.611	2.149	1.685	1.531	1.378	1.249	1.233	1.050	1.079	0.937	0.921	0.819	0.685	0.681	0.705	0.613	0.509	0.568	0.568	0.417	0.451	0.410	0.424	0.407	0.472	0.429	0.404	0.395	0.344	0.392	0.380	0.317	0.302	0.364	0.547	1.099	1.940	2.177	1.413	0.811	0.910	1.611	3.944	9.583	22.85	38.43	31.99	17.75	3.889	0.544	0.365	0.403	0.338	0.324	0.332	0.339	0.311	0.424	0.359	0.351	0.304
270.0	46.91	37.30	31.62	61.14	227.8	445.7	307.5	512.4	2491	6389	5553	909.9	46.85	7.971	5.347	4.022	2.949	2.519	2.211	1.695	1.573	1.309	1.290	1.128	1.012	0.921	0.888	0.917	0.738	0.786	0.783	0.678	0.576	0.546	0.552	0.534	0.515	0.427	0.458	0.417	0.466	0.452	0.477	0.375	0.436	0.421	0.375	0.372	0.307	0.322	0.376	0.544	0.834	1.453	2.028	2.231	1.806	1.126	1.299	2.477	5.804	12.10	20.87	32.50	33.74	30.18	13.13	3.716	0.572	0.423	0.337	0.377	0.328	0.339	0.392	0.347	0.334
275.0	77.25	69.60	39.76	41.45	79.32	226.8	578.0	360.3	604.5	1693	5888	9324	1215	35.89	7.650	5.671	3.510	3.051	2.341	2.026	1.517	1.512	1.311	1.175	1.023	1.018	0.893	0.940	0.921	0.913	0.748	0.633	0.659	0.657	0.564	0.665	0.645	0.575	0.479	0.509	0.504	0.457	0.516	0.540	0.478	0.477	0.473	0.386	0.378	0.358	0.355	0.410	0.533	0.662	0.817	1.374	2.645	3.262	2.253	1.251	1.662	3.067	5.023	7.983	12.00	28.79	50.79	32.72	19.48	3.290	0.470	0.343	0.323	0.400	0.367	0.302	0.300
280.0	104.2	94.77	56.71	39.92	50.24	95.85	411.4	622.3	281.4	439.9	1876	8940	8198	173.9	17.39	6.874	4.779	3.636	2.863	2.106	1.752	1.762	1.317	1.153	1.114	1.171	0.920	0.849	0.881	0.778	0.738	0.625	0.638	0.595	0.711	0.637	0.606	0.694	0.583	0.558	0.548	0.494	0.471	0.644	0.509	0.624	0.478	0.473	0.436	0.391	0.369	0.355	0.421	0.444	0.509	0.650	1.254	2.475	3.592	2.641	1.353	1.174	1.646	2.297	3.312	7.685	20.25	40.61	57.11	30.00	12.60	1.478	0.358	0.434	0.330	0.345	0.318
285.0	158.8	124.0	84.95	53.95	49.94	70.13	187.4	624.7	388.1	208.4	511.0	3164	9999.9	6012	128.5	10.52	5.658	4.346	3.272	2.395	1.943	2.070	1.571	1.223	1.353	1.147	0.925	0.898	0.971	0.798	0.804	0.715	0.685	0.723	0.733	0.623	0.712	0.696	0.618	0.623	0.669	0.595	0.499	0.629	0.661	0.670	0.659	0.546	0.491	0.394	0.412	0.432	0.494	0.440	0.443	0.521	0.667	1.106	2.221	3.503	3.536	1.907	1.048	1.055	1.372	2.416	5.108	11.68	29.42	50.52	55.49	23.90	6.372	0.690	0.448	0.351	0.360
290.0	213.8	189.7	120.5	83.41	72.08	78.40	118.8	284.6	619.5	523.0	291.3	863.1	3381	7695	6408	497.4	26.41	6.017	4.170	3.019	2.493	2.280	1.764	1.518	1.392	1.264	1.001	0.975	0.958	0.926	0.878	0.808	0.744	0.743	0.761	0.724	0.734	0.738	0.710	0.790	0.742	0.683	0.692	0.686	0.801	0.744	0.750	0.734	0.587	0.489	0.464	0.564	0.506	0.600	0.518	0.549	0.689	0.744	1.061	1.608	2.685	3.482	3.304	2.452	1.407	1.380	1.886	3.392	7.434	14.68	26.54	36.65	35.96	37.16	15.79	5.063	0.845
295.0	284.4	240.2	184.0	120.5	102.8	103.0	121.3	178.5	317.4	780.7	688.8	410.2	928.7	2021	6086	7327	676.7	21.05	5.576	4.428	2.968	2.387	2.036	1.827	1.538	1.511	1.204	1.063	1.061	1.150	0.994	0.767	0.803	0.776	0.864	0.752	0.945	0.851	0.867	0.798	0.841	0.739	0.808	0.769	0.805	0.998	0.823	0.886	0.791	0.630	0.539	0.640	0.626	0.650	0.628	0.635	0.712	0.820	0.925	0.964	1.318	1.656	2.349	4.482	4.333	2.680	1.618	1.758	2.666	4.323	6.889	9.112	11.18	26.20	49.94	35.98	23.62
300.0	328.3	306.7	249.5	158.5	137.7	145.0	165.2	197.9	269.5	562.2	1084	613.4	482.1	608.3	1881	7753	6022	98.58	11.73	5.457	3.900	2.742	2.014	1.924	1.497	1.450	1.425	1.171	0.936	1.085	1.044	0.892	0.817	0.856	0.767	0.781	0.934	0.864	0.829	0.864	0.927	0.933	0.910	0.944	0.809	1.074	1.032	1.032	0.931	0.810	0.636	0.790	0.746	0.860	0.650	0.827	0.874	1.028	1.085	1.161	1.254	1.296	1.702	2.756	4.390	5.036	3.758	2.284	1.995	2.402	2.778	3.037	3.291	6.873	17.24	34.51	57.85
305.0	421.8	414.6	336.7	219.6	185.0	205.2	251.6	296.9	371.1	558.3	1071	1242	653.5	476.9	672.1	2771	8847	4474	76.19	8.511	5.014	3.626	2.637	2.070	1.803	1.517	1.415	1.246	1.173	1.012	1.023	0.959	0.977	0.916	0.865	0.894	1.075	0.921	0.963	0.999	1.039	1.164	1.034	1.028	1.027	1.078	1.286	1.217	1.189	1.021	0.896	0.960	0.992	0.977	0.935	1.122	1.140	1.395	1.440	1.490	1.539	1.839	2.348	2.565	3.307	4.537	6.076	5.290	3.541	2.865	2.641	2.283	2.112	2.838	4.986	9.686	24.88
310.0	701.1	719.5	539.3	330.4	252.1	274.9	351.0	423.7	528.0	697.2	964.9	1375	1301	746.7	568.6	920.0	3062	6123	5162	329.4	19.31	4.825	3.595	2.570	2.312	1.674	1.591	1.347	1.258	1.161	1.195	0.997	0.881	0.905	0.880	0.897	1.038	1.073	1.166	1.239	1.282	1.335	1.333	1.497	1.802	1.806	1.919	1.976	1.772	1.238	1.188	1.185	1.259	1.228	1.259	1.396	1.549	1.735	1.932	2.136	2.150	2.471	2.856	3.229	3.491	3.837	4.711	5.646	6.030	5.571	4.477	3.256	2.646	2.822	3.057	3.796	7.096
315.0	2143	1864	1252	580.5	366.6	391.7	496.8	654.8	839.0	1109	1416	1667	1905	1473	1039	814.2	1114	1708	4758	5053	476.1	15.01	4.999	3.433	2.935	2.067	1.812	1.730	1.310	1.187	1.191	1.116	0.973	0.996	1.063	1.011	1.251	1.445	1.655	1.779	2.269	2.558	2.763	3.576	4.916	5.596	5.486	5.079	3.932	2.625	1.804	1.687	1.640	1.633	1.708	1.809	2.036	2.315	2.695	3.034	3.181	3.765	4.254	4.711	4.902	5.476	6.258	6.625	6.902	7.570	8.639	7.746	5.806	4.694	4.431	4.042	4.216
320.0	3987	4159	2349	843.4	479.9	501.3	649.3	884.7	1166	1545	1977	2300	2394	2423	1807	1103	879.0	703.0	1470	5672	4360	71.43	8.827	4.347	3.192	2.504	2.179	2.049	1.564	1.382	1.190	1.258	0.985	1.165	0.982	1.190	1.465	2.236	2.387	2.954	3.283	3.871	5.270	6.601	8.097	10.20	10.17	9.322	6.925	4.221	2.328	2.197	1.940	1.957	1.943	2.054	2.679	3.169	3.401	3.950	4.369	4.955	5.885	6.502	7.167	8.055	8.476	8.806	9.074	9.612	9.959	10.66	10.12	8.428	6.942	5.553	5.002
325.0	5028	5374	3067	1047	531.7	548.0	737.0	987.7	1321	1768	2260	2604	2614	2536	2235	1392	874.0	516.8	499.3	1943	6144	3429	56.47	6.666	4.207	3.307	2.251	2.013	1.821	1.559	1.341	1.289	1.237	1.045	1.057	1.119	1.712	2.341	2.895	3.328	3.562	4.736	6.372	7.916	10.22	12.73	13.14	11.57	8.715	5.106	2.932	2.595	2.045	2.076	2.210	2.302	2.928	3.411	3.851	4.588	5.060	5.956	6.467	7.261	7.830	9.149	9.330	9.544	10.32	10.44	10.56	10.64	10.92	10.61	9.107	7.154	5.512
330.0	5345	5800	3412	1229	640.4	604.4	756.1	1025	1371	1820	2328	2660	2699	2481	2116	1667	988.8	485.2	299.2	574.9	1966	4357	3983	259.2	17.19	4.576	3.125	2.196	2.038	1.905	1.525	1.301	1.304	1.125	1.051	1.200	1.759	2.368	2.909	3.620	3.801	5.016	6.531	8.778	11.16	13.52	14.07	13.08	9.613	5.702	3.419	2.939	2.481	2.371	2.352	2.479	3.023	3.480	4.135	4.609	5.217	5.804	6.476	7.347	8.449	9.623	9.736	10.23	10.47	10.45	10.68	10.17	9.990	9.405	9.422	8.574	7.075
335.0	5451	5879	3587	1472	839.1	699.9	776.3	1035	1350	1770	2256	2588	2629	2412	1926	1517	1199	575.6	283.1	291.5	535.3	1097	3407	3940	413.0	15.14	4.258	2.928	2.562	2.150	1.512	1.327	1.309	1.121	1.028	1.423	1.832	2.250	2.882	3.289	3.980	5.226	6.534	8.746	11.19	13.85	14.08	14.14	10.24	6.567	4.148	3.765	3.315	3.077	2.626	2.862	3.170	3.802	3.901	4.224	5.341	5.651	6.440	7.191	8.001	8.781	9.060	10.06	10.27	10.54	10.26	10.25	9.395	8.748	7.856	7.292	6.950
340.0	4959	5469	3549	1606	934.0	739.8	773.0	988.5	1249	1654	2084	2380	2422	2207	1756	1299	1067	723.6	309.1	231.0	228.3	313.6	991.4	4150	3691	59.70	7.238	3.873	2.702	2.276	1.865	1.384	1.420	1.332	1.156	1.238	1.616	2.184	2.959	3.175	3.788	4.684	6.096	8.035	10.59	13.10	13.14	13.08	9.944	6.538	4.523	4.344	3.535	3.348	3.016	2.747	3.152	3.513	3.783	4.336	4.849	5.367	6.056	7.090	7.654	7.947	8.547	9.168	8.986	9.564	9.556	9.391	8.866	7.908	7.154	6.468	5.823
345.0	4293	4848	3200	1543	939.3	738.8	730.0	885.1	1116	1426	1823	2070	2108	1916	1535	1105	810.4	714.6	408.2	219.6	160.8	147.0	289.1	1334	5066	2953	50.73	5.509	3.360	2.813	2.002	1.599	1.523	1.305	1.140	1.297	1.569	1.958	2.724	2.703	3.326	4.340	5.438	6.800	8.966	11.38	11.66	11.58	9.192	6.195	4.515	4.263	3.584	3.245	3.016	2.683	2.938	3.117	3.345	3.801	4.198	4.953	5.508	5.951	6.795	7.199	7.650	8.008	8.177	8.642	8.582	8.649	7.439	7.034	6.413	5.742	5.074
350.0	3441	3937	2696	1417	932.6	719.0	663.5	761.4	929.5	1175	1467	1650	1695	1554	1248	910.8	627.0	489.4	466.3	320.7	163.2	120.9	143.3	358.1	1541	3239	3143	230.6	15.38	3.403	2.439	1.846	1.621	1.247	1.175	1.287	1.411	1.703	2.200	2.368	2.843	3.498	4.553	5.602	7.116	9.114	9.184	9.420	7.548	5.538	3.941	4.013	3.587	3.169	2.791	2.702	2.738	2.944	3.038	3.285	3.571	3.884	4.536	4.869	5.487	5.880	6.194	6.454	6.654	6.963	6.779	6.829	6.267	5.925	5.150	4.726	4.131
355.0	2590	3104	2242	1324	916.2	689.9	617.5	663.7	773.1	952.2	1167	1304	1329	1237	1009	743.6	513.7	360.9	324.8	412.6	258.1	133.1	123.1	147.3	380.9	781.1	2282	3421	380.2	16.39	3.368	2.399	1.922	1.311	1.329	1.269	1.314	1.584	1.774	2.039	2.355	2.768	3.688	4.489	5.515	7.068	7.467	7.639	6.499	4.863	3.561	4.026	3.600	3.028	2.868	2.488	2.701	2.479	2.717	2.885	3.122	3.316	3.757	4.066	4.302	4.751	5.192	5.145	5.231	5.491	5.475	5.279	4.730	4.734	4.263	3.986	3.304
360.0	2051	2517	1914	1195	878.4	676.9	576.3	604.7	666.6	795.6	967.2	1082	1099	1025	843.8	633.4	441.6	314.0	251.3	323.8	358.5	182.9	126.7	107.6	131.1	202.6	614.7	2880	3221	308.9	7.949	2.873	2.271	1.510	1.359	1.255	1.327	1.402	1.806	1.817	2.062	2.546	3.053	3.574	4.670	5.806	6.143	6.155	5.598	4.325	3.448	3.592	3.264	3.028	2.598	2.508	2.490	2.412	2.479	2.724	2.694	2.999	3.304	3.582	3.650	3.874	4.165	4.308	4.567	4.461	4.734	4.397	3.995	4.256	3.708	3.310	3.084
365.0	1695	2032	1624	1095	846.4	652.2	552.4	557.4	596.1	688.5	820.5	910.5	930.3	856.3	718.6	548.5	394.5	288.8	227.2	238.7	335.4	280.4	148.8	106.0	84.24	81.78	163.2	851.4	3427	2808	49.67	4.760	2.778	1.994	1.531	1.273	1.388	1.455	1.583	1.693	1.706	2.123	2.502	3.055	3.669	4.590	5.078	5.065	4.783	3.785	3.242	3.242	3.302	2.950	2.656	2.412	2.282	2.359	2.270	2.355	2.432	2.513	2.851	3.053	3.228	3.492	3.533	3.669	3.774	3.706	3.936	3.882	3.810	3.562	3.076	2.902	2.541
370.0	1339	1654	1385	1061	888.2	736.2	592.7	555.9	550.3	605.5	709.8	767.8	786.7	724.6	621.5	478.4	353.3	272.5	224.8	210.4	238.0	302.5	257.4	142.8	92.88	74.07	78.93	224.7	996.3	2611	2743	713.6	14.97	2.863	1.844	1.488	1.324	1.451	1.496	1.599	1.512	1.762	2.296	2.537	3.048	3.843	4.054	4.268	3.891	3.483	3.058	3.337	3.343	3.314	2.706	2.573	2.586	2.568	2.256	2.336	2.289	2.351	2.522	2.727	2.718	2.998	3.108	3.167	3.104	3.253	3.325	3.232	3.193	3.051	2.962	2.508	2.261
375.0	1116	1354	1247	1103	1047	906.3	752.7	621.1	533.1	563.1	635.6	694.7	698.2	640.3	550.6	435.7	330.7	265.8	227.1	212.6	208.5	228.8	311.6	256.0	133.8	100.0	87.47	102.2	264.7	635.4	1786	3148	339.8	15.55	2.668	1.815	1.495	1.497	1.419	1.452	1.469	1.832	1.952	2.063	2.591	3.137	3.335	3.514	3.462	3.389	2.984	3.681	3.763	3.904	3.568	3.325	3.333	3.013	2.797	2.393	2.303	2.193	2.331	2.588	2.507	2.732	2.765	2.903	2.805	3.020	3.093	3.067	2.755	2.816	2.576	2.423	2.160
380.0	939.1	1227	1210	1184	1197	1138	922.9	720.4	567.4	570.7	610.3	661.3	664.2	618.7	527.4	421.1	322.2	265.3	228.8	215.2	210.6	211.9	268.6	330.1	212.9	134.6	113.8	99.34	120.7	187.7	490.2	2325	2719	263.8	7.259	2.490	1.959	1.530	1.603	1.388	1.437	1.770	1.783	1.899	2.197	2.695	2.951	3.325	3.502	3.506	3.247	4.204	4.347	4.372	4.654	4.033	3.886	3.674	3.170	2.767	2.465	2.482	2.514	2.498	2.449	2.453	2.654	2.791	2.705	2.955	3.173	2.745	2.642	2.645	2.497	2.393	2.237
385.0	914.1	1127	1240	1335	1443	1444	1188	866.0	631.1	587.9	631.8	668.7	675.4	623.4	526.0	427.7	324.7	263.4	237.1	226.5	225.4	226.2	246.3	317.7	310.9	194.9	149.6	125.1	110.2	105.5	154.4	672.3	2560	2287	40.81	4.088	2.339	1.648	1.597	1.503	1.658	1.644	1.747	1.932	2.131	2.522	2.767	3.338	3.378	3.335	3.545	4.862	5.116	5.491	5.506	5.028	4.839	4.675	3.912	3.348	2.795	2.580	2.541	2.533	2.669	2.648	2.792	2.825	2.805	2.687	2.848	2.785	2.781	2.566	2.535	2.347	2.185
390.0	879.1	1115	1312	1556	1849	1882	1617	1139	750.1	650.8	687.5	717.7	720.6	660.2	555.8	453.7	341.9	272.7	248.9	242.5	245.1	254.1	268.8	291.4	343.3	320.7	223.8	175.5	145.6	117.6	100.2	190.9	724.3	1907	1986	571.6	12.83	2.347	1.908	1.869	1.682	1.879	1.795	1.935	2.142	2.472	2.740	3.354	3.605	3.541	3.985	5.574	6.233	6.824	6.894	6.839	6.505	5.988	5.183	4.231	3.286	2.863	2.692	2.752	2.822	2.863	2.877	3.058	2.938	2.976	3.187	3.001	3.146	2.729	2.659	2.520	2.261
395.0	895.4	1150	1425	1783	2223	2368	2078	1455	889.6	720.9	746.7	779.1	779.8	713.2	606.5	490.3	363.0	283.7	258.7	258.1	271.8	282.4	303.1	312.4	332.3	373.9	345.5	242.1	193.3	150.8	111.2	98.13	193.2	456.4	1231	2438	280.6	12.80	2.604	2.040	1.758	1.979	1.810	1.953	2.242	2.576	2.600	3.386	3.740	4.009	4.459	6.608	7.567	8.000	8.623	8.317	8.681	7.187	6.743	5.285	3.958	3.244	3.241	3.018	2.979	3.197	3.142	3.381	3.265	3.118	3.219	3.249	3.064	2.950	2.838	2.581	2.380
400.0	929.6	1172	1464	1949	2467	2691	2373	1682	988.7	769.6	784.5	814.3	816.7	755.5	630.7	516.1	372.6	289.9	262.3	266.9	286.0	300.0	322.2	341.4	347.5	367.1	406.0	316.0	227.0	175.1	129.1	87.60	79.71	122.9	324.7	1660	2080	222.8	6.033	2.297	2.120	1.892	1.972	1.860	2.311	2.667	2.656	3.425	3.967	4.239	5.119	6.978	8.090	9.265	9.540	9.494	9.552	8.787	7.911	5.732	4.319	3.542	3.300	3.293	3.068	3.264	3.127	3.427	3.374	3.241	3.312	3.619	2.958	3.019	2.778	2.602	2.572
405.0	965.9	1196	1486	2030	2635	2921	2584	1821	1060	805.4	824.7	837.0	838.6	771.7	645.8	533.0	381.7	289.6	267.9	270.7	294.3	313.1	338.5	356.9	364.0	364.2	391.0	387.1	272.0	197.5	144.1	91.52	59.45	51.56	86.52	466.0	1848	1665	36.13	3.154	2.339	2.180	2.067	2.207	2.359	2.642	2.741	3.440	4.099	4.428	4.880	7.389	8.581	9.720	9.912	10.35	10.14	9.214	8.385	6.380	4.717	3.794	3.523	3.215	3.221	3.427	3.165	3.507	3.152	3.454	3.517	3.338	3.321	3.337	2.777	2.653	2.563
410.0	903.3	1159	1503	2105	2695	3047	2735	1907	1107	826.1	833.2	843.0	838.9	778.3	649.9	536.8	381.1	283.0	263.0	270.7	289.6	316.6	344.3	366.1	375.3	372.3	368.0	378.9	339.5	234.9	158.2	101.5	60.72	39.36	35.55	115.9	509.1	1344	1471	155.5	11.39	2.623	2.319	2.307	2.468	2.588	2.947	3.250	3.957	4.459	5.049	7.577	8.759	10.23	10.85	10.82	10.91	9.903	8.347	6.678	4.987	3.840	3.599	3.349	3.413	3.303	3.206	3.519	3.307	3.754	3.635	3.490	3.385	3.143	2.833	2.797	2.588
415.0	860.1	1118	1476	2050	2668	3000	2752	1937	1119	816.1	817.1	825.7	822.0	766.1	628.6	516.8	371.3	276.8	253.7	260.4	283.4	308.6	336.1	362.1	373.5	371.2	356.6	337.6	339.8	290.2	177.7	109.1	65.47	40.65	26.62	38.60	122.0	317.1	880.9	1674	247.6	11.52	2.700	2.535	2.530	2.597	2.876	3.105	3.939	4.249	5.023	7.579	8.694	10.20	10.50	11.02	11.03	9.605	8.227	6.810	4.881	3.959	3.470	3.353	3.186	3.407	3.447	3.243	3.296	3.496	3.464	3.410	3.214	3.041	2.622	2.672	2.726
420.0	840.8	1048	1441	1976	2560	2932	2657	1887	1095	805.6	798.2	806.4	785.2	742.4	607.1	511.0	359.5	267.6	246.8	253.9	271.8	297.1	327.7	350.5	368.1	364.2	346.7	318.8	303.6	299.9	212.1	116.1	69.28	42.25	27.37	23.21	37.43	79.40	230.4	1164	1525	193.7	5.482	2.642	2.517	2.452	2.839	3.106	3.835	4.231	4.878	7.020	8.507	9.965	10.12	10.46	10.63	9.458	7.851	6.990	4.966	3.930	3.519	3.189	3.009	3.359	3.197	3.283	3.032	3.353	3.241	3.210	3.080	2.901	2.801	2.656	2.524
425.0	817.8	988.8	1351	1872	2470	2793	2558	1822	1054	787.8	764.8	772.4	755.6	696.0	585.7	490.3	348.6	256.3	236.4	241.6	260.1	284.3	311.3	338.3	352.2	351.7	334.1	305.8	276.6	268.6	236.4	133.0	73.47	44.84	30.09	22.17	20.34	27.23	60.06	326.9	1337	1265	33.72	3.600	2.483	2.466	2.604	3.352	3.776	3.926	4.782	6.630	7.941	9.233	9.985	9.873	10.43	9.527	8.244	6.441	4.838	3.900	3.240	3.015	2.964	3.287	3.118	3.034	3.159	3.192	3.265	3.077	3.121	2.820	2.769	2.553	2.434
430.0	1003	944.0	1236	1735	2248	2585	2376	1702	1012	742.4	715.0	717.4	696.4	650.3	543.8	457.5	326.8	244.6	223.8	224.6	243.2	264.8	290.2	312.4	328.2	327.2	312.7	286.4	255.5	226.8	208.5	165.8	89.90	49.32	33.60	24.49	19.68	17.65	23.17	81.88	373.0	1026	1144	143.3	10.32	2.658	2.569	3.077	3.456	3.607	4.423	6.397	7.208	8.402	9.133	9.579	9.505	8.762	7.815	5.796	4.617	3.599	3.172	3.129	2.866	2.962	2.769	2.888	3.059	2.837	3.044	2.823	2.852	2.727	2.587	2.439	2.302
435.0	1752	881.7	1113	1548	2019	2334	2135	1573	925.0	696.9	667.6	657.7	637.8	591.4	498.5	419.6	301.5	231.4	209.0	207.9	225.4	243.2	266.1	285.8	296.0	302.1	288.7	262.8	236.5	202.7	169.3	155.1	121.9	62.15	37.32	28.29	21.49	17.85	16.89	28.06	91.41	242.9	724.9	1436	226.0	9.665	3.017	3.210	3.277	3.331	4.026	6.059	6.555	7.783	8.300	8.591	8.454	8.096	6.857	5.542	4.262	3.395	3.247	2.911	2.879	2.541	2.707	2.637	2.593	2.576	2.700	2.682	2.764	2.533	2.461	2.302	2.139
440.0	2475	989.7	1040	1416	1833	2111	1989	1459	874.4	646.9	619.3	617.2	592.9	546.4	464.0	387.0	283.9	218.5	197.1	197.6	207.1	223.2	246.6	266.4	276.4	278.2	268.4	244.9	220.9	189.2	153.9	130.8	127.1	83.88	42.09	30.53	23.36	19.81	16.73	17.12	29.16	61.44	194.0	1045	1339	169.7	5.051	3.166	3.250	3.194	3.605	5.073	5.757	6.973	7.267	7.581	8.043	7.175	6.519	5.118	4.058	3.258	2.992	2.660	2.572	2.401	2.461	2.518	2.454	2.741	2.719	2.632	2.224	2.361	2.193	2.032	1.995
445.0	2566	1520	946.8	1287	1679	1930	1784	1353	812.5	607.8	580.8	566.6	551.0	512.5	431.4	362.5	267.6	204.8	185.1	184.1	192.2	208.8	226.5	242.0	253.2	253.9	245.2	227.0	206.4	181.0	142.4	111.9	106.7	102.1	49.50	33.18	25.66	21.37	17.71	15.34	15.89	21.41	49.69	303.0	1247	1115	28.24	3.491	3.114	3.068	3.309	4.849	5.459	6.504	7.093	7.272	7.118	6.433	6.099	4.631	4.028	3.006	2.866	2.442	2.517	2.384	2.274	2.443	2.275	2.400	2.411	2.400	2.308	2.057	2.181	1.996	1.898
450.0	1567	2535	1099	1112	1432	1664	1547	1154	726.2	554.5	518.6	504.6	481.0	448.8	381.0	321.4	240.9	184.6	166.1	163.1	172.8	183.7	200.6	214.9	224.4	223.6	217.6	201.3	183.4	160.2	129.8	100.4	83.31	86.69	74.97	43.99	27.67	22.17	18.37	15.89	13.77	12.67	17.79	73.21	352.4	940.9	1049	126.6	8.975	2.938	3.231	4.305	4.934	5.380	5.978	6.510	6.429	5.534	5.027	4.412	3.479	2.765	2.540	2.265	2.162	2.241	2.076	2.159	1.995	2.085	2.161	2.037	2.065	1.908	1.851	1.838	1.815
455.0	744.0	2423	1958	973.1	1218	1394	1309	983.8	628.6	485.3	451.9	440.0	416.3	388.2	324.0	279.7	210.5	165.0	148.4	142.1	150.3	160.5	173.4	184.8	191.1	193.0	188.7	175.3	161.1	140.1	116.4	91.63	71.45	63.05	70.08	64.39	35.91	23.88	19.76	16.71	14.20	11.81	10.74	21.69	83.45	222.5	629.2	1175	185.9	8.816	3.013	3.770	4.135	4.822	5.183	5.146	5.491	4.990	4.321	3.802	2.854	2.209	2.227	2.138	2.148	2.067	1.971	1.995	1.661	1.841	1.824	1.912	1.870	1.820	1.616	1.674	1.599
460.0	465.2	1550	2724	1028	1054	1191	1126	873.6	574.5	445.1	404.1	388.4	368.3	342.8	290.4	250.1	189.8	150.6	134.5	127.7	132.9	143.8	152.7	164.1	169.3	170.6	166.6	156.2	143.3	129.0	107.2	84.83	64.76	54.21	54.09	67.93	45.27	26.45	20.63	17.35	14.03	11.85	10.11	10.55	23.19	54.16	164.2	816.3	1042	139.6	5.082	3.435	3.991	4.274	4.594	4.758	4.856	4.322	3.809	3.307	2.686	2.393	2.102	2.016	1.805	1.767	1.896	1.581	1.697	1.651	1.664	1.879	1.748	1.655	1.466	1.607	1.339
465.0	397.2	805.3	2865	1527	904.7	1034	977.9	769.5	510.8	408.5	363.5	343.8	327.9	305.5	259.4	221.2	170.3	137.2	122.8	117.2	120.4	126.9	135.5	146.0	150.0	152.8	146.8	140.8	128.9	116.8	96.83	78.61	61.80	49.30	44.97	54.14	56.92	34.06	21.45	17.10	14.72	12.21	10.29	8.647	10.18	16.50	40.61	233.0	946.4	846.7	23.73	4.265	3.482	3.849	3.951	3.988	4.063	3.810	3.444	2.759	2.442	2.063	1.801	1.633	1.716	1.534	1.651	1.456	1.596	1.604	1.624	1.592	1.551	1.603	1.515	1.367	1.259
470.0	357.9	454.0	1696	2481	983.9	853.4	809.5	637.4	438.9	344.1	319.8	298.4	280.1	258.4	222.2	188.6	147.0	119.3	106.8	101.7	103.6	108.1	115.2	122.1	125.7	127.2	125.1	118.0	110.1	100.6	86.46	69.52	56.11	45.43	39.24	39.00	47.66	44.73	27.69	17.83	14.94	12.17	10.15	8.486	7.642	7.936	12.79	55.90	264.2	674.5	723.2	121.4	9.378	3.542	3.614	3.406	3.605	3.394	2.906	2.501	2.215	1.796	1.733	1.599	1.517	1.425	1.341	1.394	1.401	1.360	1.391	1.432	1.371	1.302	1.283	1.213	1.109
475.0	356.7	344.3	710.2	2336	1700	695.6	652.5	524.9	370.8	293.6	274.9	256.3	233.4	216.9	185.7	159.4	124.8	103.2	91.33	88.56	88.63	89.60	97.11	101.3	105.2	106.2	104.7	99.39	93.58	83.72	74.14	61.96	50.41	41.71	35.73	32.48	33.06	40.95	38.02	21.77	14.71	12.57	10.28	8.842	7.456	6.617	6.765	15.79	61.93	157.1	384.4	809.7	184.4	10.21	3.176	2.926	3.261	2.789	2.391	2.097	1.846	1.586	1.496	1.487	1.392	1.309	1.277	1.309	1.247	1.215	1.306	1.189	1.188	1.013	1.045	1.110	1.064
480.0	331.7	318.7	415.5	1505	2473	779.4	549.4	460.9	327.5	262.8	242.4	219.6	207.9	196.4	160.0	136.5	113.5	91.93	82.28	79.18	77.62	80.72	86.06	88.68	92.35	93.07	90.56	87.56	82.27	75.01	65.86	55.77	47.19	39.39	34.08	30.43	27.72	31.42	39.75	28.93	16.07	12.39	10.20	8.556	7.585	6.503	5.578	6.955	16.92	37.99	97.73	494.1	774.4	154.4	5.223	2.717	2.954	2.407	2.368	1.930	1.603	1.467	1.203	1.303	1.260	1.253	1.161	1.082	1.266	1.097	1.144	1.093	1.068	1.105	0.922	1.089	1.035
485.0	290.0	324.4	323.7	774.5	2583	1222	488.1	401.2	292.6	240.2	212.7	196.2	188.8	174.3	142.1	124.8	103.6	82.85	74.19	70.21	70.26	72.65	77.83	80.38	83.18	82.90	79.15	78.13	73.67	68.40	60.32	52.61	43.72	37.13	32.48	28.35	25.48	24.63	32.33	34.82	21.06	12.78	10.23	8.439	7.875	6.272	5.723	5.233	7.208	11.26	24.56	136.2	629.2	699.3	28.10	3.593	2.549	2.269	2.148	1.711	1.465	1.364	1.236	1.086	1.314	1.123	1.157	1.145	1.064	1.044	0.934	1.006	1.028	0.988	0.897	0.942	0.873
490.0	220.8	328.5	291.7	414.3	1571	2147	605.5	332.2	251.5	206.8	189.4	174.5	160.8	150.1	128.4	107.9	90.41	74.19	66.32	61.65	61.24	64.14	66.29	68.68	71.53	70.45	69.06	67.39	65.35	60.74	54.53	46.82	39.97	34.95	30.34	26.37	23.77	21.71	23.19	29.59	28.61	16.35	10.74	8.747	7.825	6.416	6.077	5.066	4.853	5.266	8.101	33.06	169.6	479.8	620.6	125.4	10.35	2.274	1.892	1.588	1.442	1.272	1.167	1.122	1.172	0.980	0.992	0.957	1.042	0.989	0.939	0.838	0.862	0.886	0.798	0.755	0.782
495.0	166.5	277.2	279.5	291.0	634.7	2164	1276	291.6	212.4	181.6	164.2	154.8	141.3	127.2	108.5	94.62	78.08	63.77	58.06	54.54	55.05	55.64	57.15	59.55	59.56	59.22	59.08	57.99	56.22	52.65	46.58	42.31	35.72	31.99	27.84	24.50	21.66	20.17	19.20	20.17	27.32	23.27	13.80	8.826	7.938	6.393	5.879	5.457	4.746	4.056	4.531	9.756	40.05	111.6	328.6	756.2	211.9	11.01	1.870	1.613	1.280	1.217	1.112	1.033	1.011	0.892	0.833	0.770	0.930	0.775	0.954	0.931	0.795	0.797	0.683	0.628	0.785
500.0	143.9	215.6	297.3	246.0	343.0	1392	2058	375.1	192.1	164.9	146.1	139.0	126.5	115.0	96.16	86.37	70.17	58.48	51.56	48.68	48.36	48.86	50.60	51.55	52.03	52.57	51.05	50.85	48.88	46.68	42.09	37.64	32.55	29.58	26.14	22.65	20.62	18.53	17.26	16.24	20.27	25.72	17.90	9.944	7.653	6.786	6.082	5.316	4.833	4.196	3.834	4.670	11.28	27.21	82.64	434.2	751.0	171.1	5.450	1.657	1.207	1.081	0.958	1.061	1.061	0.858	0.788	0.722	0.774	0.801	0.939	0.845	0.692	0.814	0.692	0.578	0.756
505.0	121.4	162.5	276.2	231.3	247.6	677.0	2351	764.6	168.8	144.4	132.9	120.3	112.5	102.8	84.49	73.36	62.73	53.07	45.20	44.89	43.80	43.13	45.52	46.37	47.69	46.29	45.32	44.81	43.60	42.34	38.23	33.91	29.41	27.18	24.29	20.86	19.97	17.47	16.42	14.58	15.00	21.21	21.73	12.58	7.948	6.878	5.792	5.339	4.767	4.330	3.617	3.416	4.659	8.440	20.76	115.8	540.7	671.8	30.98	2.812	1.390	1.231	0.977	1.014	0.869	0.805	0.760	0.775	0.709	0.768	0.830	0.797	0.694	0.694	0.684	0.670	0.621
510.0	108.8	128.0	207.3	253.3	206.6	318.4	1452	1764	262.3	126.4	113.3	104.3	96.06	87.48	72.84	63.94	52.92	46.81	40.28	38.56	37.42	37.50	38.20	39.69	40.38	39.45	38.75	39.02	37.48	37.09	33.66	30.01	26.42	23.81	21.38	19.03	18.03	15.89	14.64	13.08	12.54	14.25	18.65	17.48	10.46	6.987	5.740	5.289	4.734	4.084	3.868	3.411	3.259	3.969	6.598	27.80	141.5	409.0	523.4	132.9	10.08	1.177	0.950	0.971	0.799	0.760	0.689	0.667	0.670	0.656	0.657	0.709	0.684	0.608	0.588	0.614	0.587
515.0	89.63	111.6	141.3	250.3	187.4	198.2	516.7	2013	916.5	116.5	97.75	89.51	82.18	72.68	62.83	54.90	44.49	39.31	34.94	31.95	32.28	31.93	31.99	33.61	33.17	33.54	32.63	32.49	31.16	30.52	28.51	25.95	23.90	20.58	19.14	17.03	15.63	13.98	13.62	12.07	10.83	10.65	12.29	16.79	15.21	8.570	5.548	5.045	4.550	3.927	3.642	3.674	2.930	2.799	3.402	7.901	33.33	93.86	228.4	565.1	211.6	11.76	1.053	0.827	0.776	0.775	0.675	0.691	0.574	0.558	0.657	0.596	0.656	0.543	0.535	0.544	0.609
520.0	72.30	92.72	110.3	201.9	216.5	151.9	230.3	1330	1783	200.4	84.37	80.74	71.98	64.58	56.67	49.03	40.46	34.47	31.25	29.47	27.84	28.12	28.29	29.58	28.68	29.10	28.71	27.34	27.72	26.38	25.20	23.47	20.84	18.34	16.85	15.73	14.07	13.35	12.58	11.04	10.29	9.735	9.555	12.73	16.48	11.55	6.321	5.129	4.461	3.972	3.442	3.691	3.362	2.719	2.680	3.487	9.140	22.72	55.71	285.7	565.8	172.7	5.970	1.107	0.762	0.778	0.711	0.722	0.601	0.617	0.541	0.594	0.572	0.637	0.556	0.485	0.617
525.0	78.55	87.11	91.66	144.5	216.2	144.5	145.4	580.1	2210	340.0	79.33	73.02	63.47	56.89	50.89	42.84	36.81	31.84	27.71	25.83	25.84	25.61	25.42	25.31	25.66	26.12	25.56	24.20	25.19	24.25	22.76	21.13	19.16	16.84	15.18	14.53	13.25	12.75	11.48	10.21	9.273	9.052	8.085	9.492	13.79	13.73	8.159	4.829	4.191	3.875	3.389	3.431	3.396	2.948	2.424	2.393	3.573	6.594	14.03	72.48	341.8	517.1	32.52	2.777	0.987	0.833	0.601	0.618	0.628	0.564	0.523	0.573	0.570	0.588	0.544	0.513	0.617
530.0	69.20	77.26	75.91	96.67	188.0	158.6	113.5	212.5	1378	1539	169.6	63.57	54.59	49.98	43.40	37.17	30.83	28.12	24.56	23.08	21.95	21.96	21.44	21.40	21.89	21.41	21.18	21.44	21.05	21.11	19.36	18.37	16.40	14.48	13.78	12.47	11.97	11.11	10.12	9.138	8.524	7.855	7.325	7.324	9.004	12.42	10.76	6.149	4.256	3.588	3.353	3.204	3.113	3.013	2.728	2.203	2.364	2.933	4.619	17.70	85.52	267.5	370.3	135.5	11.18	0.940	0.732	0.627	0.634	0.594	0.549	0.518	0.457	0.518	0.471	0.504	0.494
535.0	62.01	69.56	65.60	74.92	128.9	181.1	99.68	103.8	438.1	1886	784.1	58.06	47.40	41.55	38.13	31.54	26.19	23.43	21.19	20.37	18.55	18.84	18.26	17.32	17.55	17.48	17.48	17.74	17.54	17.60	16.26	15.68	13.74	12.52	11.45	11.04	10.45	9.683	9.073	8.162	7.702	6.985	6.579	6.257	6.225	8.430	10.64	8.649	4.796	3.547	3.165	2.893	3.022	2.516	2.839	2.528	2.087	2.082	2.620	5.287	20.42	61.09	134.8	384.2	213.0	13.73	0.965	0.626	0.700	0.644	0.518	0.568	0.492	0.491	0.504	0.533	0.393
540.0	58.91	59.73	55.91	62.06	86.76	182.9	109.0	75.64	149.8	1208	1611	112.5	43.86	36.69	32.77	28.43	24.46	20.45	19.24	18.11	17.28	16.72	15.88	15.46	16.10	15.45	15.14	15.70	15.61	15.23	14.29	13.97	11.95	11.13	10.49	9.999	9.289	8.791	7.895	7.247	6.659	6.449	5.955	5.596	5.091	5.680	7.992	9.616	6.696	3.630	2.867	2.708	2.479	2.286	2.571	2.821	2.247	1.716	1.922	2.374	5.737	14.75	32.14	165.8	402.1	168.7	7.249	0.780	0.736	0.692	0.562	0.614	0.520	0.456	0.485	0.464	0.438
545.0	58.46	52.84	47.57	54.21	63.93	139.0	133.4	65.22	74.75	476.0	2010	251.1	37.21	32.92	28.68	26.11	22.32	17.65	17.48	15.98	15.43	14.42	14.31	13.78	14.06	13.80	12.89	13.83	13.77	12.76	12.30	12.28	10.86	10.09	9.380	8.703	8.108	8.241	6.893	6.539	6.149	5.884	5.432	4.972	4.595	4.770	5.620	8.272	7.906	4.358	2.824	2.603	2.345	2.477	2.342	2.570	2.603	1.909	1.732	1.916	2.624	4.424	8.367	40.57	201.8	377.7	33.89	3.286	0.894	0.755	0.660	0.620	0.568	0.524	0.425	0.427	0.528
550.0	50.54	47.76	43.39	45.68	50.47	83.96	151.9	73.65	51.98	149.1	1186	1248	98.86	28.20	24.47	21.32	18.62	16.19	14.78	13.27	12.99	12.29	11.80	11.95	11.63	11.22	11.55	11.47	11.07	10.92	10.71	9.946	9.097	8.517	8.170	7.251	7.038	6.729	5.961	5.544	5.343	4.885	4.540	4.422	4.183	3.989	4.130	5.268	7.014	5.916	3.640	2.572	2.350	2.055	2.120	2.271	2.488	2.404	1.974	1.709	1.825	2.383	3.210	10.35	49.11	163.8	225.3	131.3	12.55	1.114	0.852	0.771	0.671	0.548	0.484	0.401	0.479
555.0	52.14	44.23	40.64	37.69	36.57	48.80	116.9	101.9	42.33	62.55	346.3	1599	517.4	27.76	19.88	18.43	16.80	13.85	12.92	11.38	10.32	10.25	10.10	9.946	9.460	9.125	9.168	9.262	8.414	9.003	8.416	7.845	7.612	6.812	6.813	5.923	6.038	5.440	5.060	4.760	4.486	4.226	4.016	3.856	3.789	3.436	3.534	3.587	4.656	6.000	4.696	3.016	2.269	2.076	2.071	2.116	2.290	2.668	2.342	1.946	1.941	2.176	2.319	4.045	12.72	38.42	74.41	235.6	186.2	15.25	1.350	1.032	0.781	0.603	0.483	0.483	0.469
560.0	52.46	42.72	36.23	33.69	32.22	40.49	76.63	127.0	45.62	39.05	106.5	998.0	1163	62.64	17.97	16.15	13.45	11.32	10.70	9.784	9.057	8.626	8.821	8.150	8.216	8.175	8.250	8.252	7.503	8.035	7.731	6.777	6.540	6.036	5.811	5.294	5.178	4.439	4.359	4.116	3.878	3.751	3.425	3.333	3.311	3.163	3.037	2.873	3.009	4.729	5.150	3.751	2.348	1.992	2.261	2.299	2.197	2.312	3.009	2.645	2.286	2.541	2.536	3.156	5.196	10.75	19.18	90.01	250.4	133.1	8.884	1.215	0.949	0.664	0.479	0.441	0.430
565.0	50.25	37.23	32.32	31.10	31.96	33.83	46.62	133.4	63.82	31.62	48.85	377.5	1544	172.0	16.73	13.87	11.91	10.45	10.16	8.195	8.159	7.672	7.326	7.751	7.076	7.166	6.723	6.882	6.709	6.950	6.470	6.125	5.758	5.449	5.284	4.672	4.642	3.968	3.967	3.703	3.349	3.365	2.953	3.023	2.940	2.597	2.478	2.446	2.456	3.238	4.592	4.067	2.672	2.408	2.374	2.400	2.270	2.411	2.945	3.375	3.176	2.945	3.265	3.318	3.844	5.162	7.256	23.45	107.5	233.3	35.46	4.272	1.261	0.864	0.521	0.479	0.388
570.0	45.80	40.10	34.77	28.40	26.76	28.59	33.31	88.51	98.28	34.82	33.81	115.0	930.1	881.5	55.78	12.42	10.33	9.310	8.105	7.250	7.046	6.755	6.182	6.057	5.669	5.859	5.827	5.998	5.669	6.028	5.957	5.164	5.038	4.580	4.639	4.116	3.999	3.445	3.528	3.068	2.990	2.757	2.665	2.733	2.432	2.314	2.334	2.281	2.250	2.382	3.163	3.872	3.356	2.531	2.418	2.499	2.629	2.971	3.181	3.748	4.134	4.154	4.042	4.211	4.378	4.890	5.079	9.003	28.14	91.56	146.6	92.42	12.60	1.157	0.596	0.462	0.439
575.0	51.81	43.63	32.67	27.91	26.03	25.14	26.61	44.91	115.1	52.02	32.60	50.77	268.8	1163	335.0	11.79	8.570	7.779	6.866	6.404	5.728	5.518	4.964	5.129	4.796	5.029	5.040	4.982	5.007	4.870	4.669	4.135	4.337	3.975	3.798	3.591	3.376	3.138	2.919	2.566	2.384	2.417	2.347	2.241	2.081	2.097	2.114	1.984	2.001	2.085	2.124	2.816	3.615	2.996	2.744	2.436	2.852	3.074	3.328	3.928	4.458	4.917	4.892	5.021	5.213	5.158	5.143	5.888	10.10	23.79	44.12	129.7	123.8	14.50	0.830	0.480	0.491
580.0	44.76	43.08	31.22	24.47	26.35	23.93	23.92	31.51	96.58	78.63	33.64	33.58	81.85	739.7	780.6	29.24	7.900	7.041	5.791	5.765	5.040	4.744	4.603	4.231	4.269	4.418	4.168	4.321	4.444	4.346	3.964	3.984	3.871	3.471	3.379	3.012	2.954	2.860	2.516	2.155	2.061	2.322	2.176	2.018	1.955	1.816	1.763	1.905	1.918	1.960	1.883	2.306	3.066	3.392	2.927	2.670	2.836	3.030	3.070	3.927	4.270	4.750	5.236	5.104	5.249	5.082	5.006	5.043	5.792	8.395	12.89	46.19	148.8	92.02	6.713	0.596	0.526
585.0	46.53	43.13	31.88	26.81	23.16	21.12	21.76	26.45	61.18	105.4	38.08	30.92	38.37	284.8	1039	104.9	8.391	6.575	5.747	5.280	4.704	4.217	4.222	3.635	3.609	4.385	4.055	3.575	3.650	3.923	3.753	3.632	3.360	3.341	2.894	2.765	2.498	2.475	2.361	2.159	1.905	2.057	1.833	1.743	1.759	1.747	1.798	1.797	1.781	1.715	1.521	1.834	2.590	3.179	3.085	2.689	2.782	2.775	2.830	3.424	3.672	4.115	4.756	4.653	4.637	4.831	4.666	4.516	4.486	4.803	5.384	12.80	60.58	143.7	34.29	2.562	0.440
590.0	42.51	40.37	30.20	25.55	21.92	21.04	21.93	22.38	36.65	98.36	58.73	29.97	29.00	83.92	638.4	524.1	24.19	6.059	5.177	4.419	3.914	3.713	3.433	3.375	3.204	3.272	3.318	3.070	3.107	3.194	3.061	2.867	2.821	2.543	2.353	2.344	2.375	2.171	1.957	1.857	1.662	1.725	1.534	1.560	1.569	1.515	1.596	1.534	1.531	1.559	1.406	1.700	1.860	2.546	2.788	2.752	2.468	2.555	2.514	2.757	2.972	3.112	3.639	3.946	4.011	3.824	3.800	3.613	3.456	3.344	3.116	4.471	15.08	53.52	91.95	60.57	9.536
595.0	42.73	39.36	26.29	25.95	19.58	18.50	20.84	21.76	26.44	62.97	87.87	33.97	27.34	33.20	182.3	726.7	107.4	5.696	4.482	3.799	3.411	3.370	3.062	2.659	2.845	2.618	2.956	2.487	2.666	2.477	2.420	2.355	2.197	2.140	1.944	1.790	1.922	1.792	1.664	1.577	1.601	1.506	1.318	1.390	1.410	1.318	1.428	1.275	1.412	1.304	1.198	1.298	1.491	1.687	2.274	2.862	2.306	2.178	2.153	2.302	2.303	2.404	2.710	2.899	3.061	3.206	2.799	2.779	2.577	2.328	2.358	2.235	4.376	12.75	26.24	76.98	74.21
600.0	47.84	36.09	29.14	26.28	19.36	17.54	21.82	21.97	24.89	44.58	96.83	46.55	27.62	23.05	54.00	492.3	407.8	13.42	4.163	3.238	3.077	3.144	2.497	2.824	2.550	2.409	2.226	2.068	2.275	2.129	2.127	2.317	2.108	1.918	1.746	1.678	1.664	1.529	1.387	1.445	1.366	1.322	1.318	1.373	1.198	1.316	1.388	1.203	1.221	1.289	1.081	1.297	1.508	1.474	1.774	2.438	2.357	1.954	1.906	2.077	2.075	1.997	2.360	2.421	2.489	2.800	2.269	2.118	2.147	2.118	1.856	1.454	1.782	3.469	6.449	26.34	86.42
605.0	42.67	34.74	32.64	24.42	22.20	19.70	20.27	21.17	24.65	36.87	88.61	63.88	30.92	25.77	25.81	198.1	619.3	59.56	4.190	3.511	2.789	2.687	2.531	2.465	2.377	2.230	1.860	1.895	2.258	2.097	1.904	1.984	1.755	1.658	1.582	1.411	1.358	1.370	1.326	1.220	1.230	1.258	1.279	1.265	1.204	1.172	1.335	1.132	1.139	1.071	1.132	1.127	1.276	1.233	1.408	2.038	2.202	2.174	1.806	1.846	1.912	1.816	1.884	1.761	1.905	2.414	2.184	1.894	1.798	1.798	1.549	1.241	1.120	1.346	2.015	6.588	34.00
610.0	51.56	42.08	34.56	25.99	22.53	21.27	23.96	27.62	31.90	41.20	71.14	93.24	47.59	31.60	25.78	63.35	430.2	309.0	12.10	2.874	2.580	2.416	2.163	2.185	2.095	1.786	1.625	1.756	1.822	1.910	1.712	1.668	1.516	1.449	1.389	1.339	1.239	1.153	1.173	1.076	1.101	1.046	1.140	1.085	1.016	1.177	1.147	1.075	1.033	0.987	1.043	1.060	1.134	1.155	1.295	1.385	1.840	2.061	1.724	1.510	1.506	1.541	1.659	1.554	1.728	1.802	1.897	1.765	1.602	1.430	1.290	1.097	0.932	0.851	0.915	1.933	8.247
615.0	53.65	45.09	35.56	28.58	20.35	22.47	23.27	28.28	33.88	43.02	55.97	94.37	67.63	35.83	27.80	30.54	137.9	479.2	73.31	2.761	2.471	2.216	1.812	1.864	1.963	1.620	1.456	1.292	1.462	1.533	1.392	1.292	1.307	1.281	1.139	0.996	1.055	1.155	1.103	0.973	0.942	0.903	0.907	0.879	1.036	1.031	1.013	1.085	0.968	0.928	0.839	1.010	1.072	0.954	1.135	1.222	1.336	1.748	1.665	1.643	1.407	1.345	1.441	1.359	1.449	1.471	1.352	1.458	1.580	1.378	1.182	0.916	0.843	0.738	0.739	0.795	2.242
620.0	48.00	51.97	39.09	29.16	21.69	24.41	22.90	29.03	34.58	39.56	50.94	81.01	81.92	38.57	28.43	23.01	47.65	357.4	246.9	6.001	2.278	2.215	1.772	1.709	1.534	1.525	1.392	1.550	1.465	1.456	1.215	1.235	1.179	1.174	0.996	0.964	0.880	1.057	1.046	0.927	0.808	0.770	0.811	0.839	0.846	0.843	0.855	0.958	1.043	0.865	0.826	0.948	0.923	0.928	1.042	1.185	1.114	1.525	1.693	1.521	1.401	1.163	1.229	1.227	1.309	1.294	1.270	1.286	1.591	1.276	1.072	0.795	0.783	0.709	0.625	0.588	0.930
625.0	59.16	56.30	44.18	27.80	23.90	23.56	24.87	29.28	34.75	41.95	47.59	65.74	93.02	45.37	31.78	21.34	24.99	154.1	406.7	29.69	2.030	1.841	1.625	1.536	1.501	1.469	1.417	1.351	1.330	1.299	1.158	1.150	1.126	1.074	0.867	0.861	0.900	1.013	0.939	0.846	0.817	0.793	0.709	0.847	0.836	0.747	0.768	1.019	0.840	0.840	0.821	0.961	0.804	0.932	1.035	1.132	1.063	1.235	1.379	1.443	1.287	1.078	1.141	1.200	1.082	1.105	1.071	1.124	1.228	1.267	1.016	0.799	0.790	0.582	0.575	0.556	0.550
630.0	86.41	80.40	56.16	31.33	23.64	23.80	24.96	32.23	36.88	45.51	55.73	66.83	91.68	66.45	38.13	26.81	22.86	48.67	312.1	166.9	5.471	1.760	1.455	1.428	1.131	1.224	1.207	1.102	1.108	1.197	1.120	0.956	0.934	0.885	0.853	0.802	0.872	0.792	0.813	0.839	0.740	0.707	0.729	0.827	0.789	0.843	0.835	0.881	0.835	0.766	0.736	0.776	0.750	0.892	0.839	0.972	0.939	1.037	1.083	1.254	1.273	1.108	1.066	1.037	0.985	1.139	1.007	1.029	0.984	1.089	1.043	0.961	0.678	0.642	0.575	0.485	0.503
635.0	153.1	156.0	91.02	38.85	23.25	25.94	29.98	41.58	47.18	63.86	78.80	90.65	100.6	104.7	61.53	41.43	30.47	24.44	101.7	332.8	43.87	1.955	1.731	1.394	1.046	1.221	1.078	1.014	0.904	1.088	1.086	0.815	0.728	0.824	0.726	0.725	0.869	0.680	0.688	0.731	0.774	0.865	0.640	0.825	0.912	0.958	0.894	0.963	0.791	0.741	0.699	0.734	0.683	0.746	0.855	0.871	0.939	0.960	0.860	1.108	1.220	1.074	1.210	1.002	1.049	0.935	0.956	1.072	0.882	0.955	1.192	1.002	0.733	0.661	0.689	0.564	0.533
640.0	184.8	214.6	107.0	42.71	24.89	27.18	33.66	42.04	55.40	73.75	92.05	103.9	106.6	116.9	80.13	49.65	35.69	20.79	31.71	277.9	150.6	3.322	1.546	1.557	1.032	1.088	0.992	0.948	0.825	0.950	0.862	0.918	0.845	0.754	0.704	0.559	0.668	0.730	0.618	0.614	0.643	0.896	0.772	0.745	1.001	0.994	0.983	0.987	0.827	0.709	0.606	0.670	0.699	0.747	0.680	0.702	0.846	0.901	0.765	0.867	0.828	1.073	1.159	1.030	1.080	0.963	0.923	1.023	0.973	1.016	1.037	0.881	0.880	0.679	0.602	0.691	0.526
645.0	198.4	219.3	119.1	46.09	27.22	26.78	35.01	43.22	56.84	74.58	94.78	108.2	112.3	113.3	89.62	52.03	36.05	19.54	15.03	134.0	274.7	14.25	1.642	1.444	1.142	1.092	1.035	1.020	1.067	0.860	0.826	0.821	0.846	0.716	0.583	0.495	0.601	0.665	0.598	0.655	0.616	0.874	0.837	0.769	0.873	0.931	0.909	0.976	0.867	0.675	0.652	0.612	0.633	0.652	0.637	0.653	0.783	0.727	0.795	0.839	0.849	1.080	0.935	0.949	0.889	0.872	1.041	0.835	0.914	0.868	0.878	0.795	0.944	0.846	0.673	0.612	0.522
650.0	205.1	238.3	124.2	47.08	25.51	25.00	36.31	41.99	54.08	73.35	90.54	103.0	103.7	104.5	97.38	53.49	36.27	19.19	11.03	45.50	291.5	60.08	1.511	1.142	1.261	1.060	0.980	1.077	0.904	0.812	0.761	0.798	0.618	0.642	0.570	0.493	0.514	0.659	0.594	0.657	0.609	0.660	0.813	0.792	0.928	0.925	0.888	1.029	0.768	0.613	0.617	0.647	0.531	0.683	0.615	0.562	0.642	0.615	0.724	0.680	0.762	1.045	0.934	0.969	0.849	0.837	0.891	0.865	0.894	0.886	0.964	0.783	0.858	0.856	0.729	0.634	0.530
