Sample:	'1
File name:	t2025070302ÌØ¿í·ùÏû·ÀË®³Ø.FD3
Run date:	'09:24:11, 07/07/2025
Operator:	Administrator
Comment:	'

Instrument
Model:	F-2700 FL Spectrophotometer
Serial number:	23B8-004
ROM Version:	4J14000 07

Instrument parameters
Measurement type:	3-D scan
Data mode:	Fluorescence
EX  Start WL:	220.0 nm
EX  End WL:	600.0 nm
EX Sampling interval:	5.0 nm
EM  Start WL:	230.0 nm
EM  End WL:	650.0 nm
EM Sampling interval:	5.0 nm
Scan speed:	12000 nm/min
EX Slit:	5.0 nm
EM Slit:	5.0 nm
PMT Voltage:	700 V
Response:	Auto 
Corrected spectra:	Off
Contour interval:	50.000

Peak integration
Integration method:	Rectangular
Sensitivity:	1
Threshold:	1.000

Peaks
No.	ApexEX/EM(nm)	Height(Data)
1	225.0/550.0	57.17
2	225.0/570.0	53.05
3	225.0/615.0	44.35
4	230.0/340.0	1710
5	230.0/500.0	309.5
6	235.0/515.0	267.8
7	240.0/265.0	475.9
8	240.0/525.0	237.1
9	245.0/270.0	491.9
10	245.0/535.0	208.4
11	250.0/275.0	626.2
12	250.0/550.0	170.2
13	255.0/285.0	646.5
14	255.0/565.0	137.6
15	260.0/290.0	625.6
16	260.0/575.0	112.2
17	265.0/295.0	739.6
18	265.0/585.0	99.97
19	270.0/600.0	92.79
20	275.0/310.0	1217
21	275.0/415.0	2813
22	275.0/435.0	2762
23	275.0/610.0	89.59
24	280.0/315.0	1158
25	280.0/625.0	81.11
26	285.0/320.0	1161
27	285.0/635.0	61.33
28	290.0/325.0	1004
29	305.0/345.0	506.3
30	310.0/350.0	394.1
31	315.0/355.0	378.0
32	320.0/360.0	366.6
33	325.0/370.0	344.2
34	330.0/375.0	327.7
35	335.0/380.0	319.0
36	350.0/435.0	1424
37	355.0/415.0	1416
38	425.0/500.0	25.88
39	440.0/520.0	15.89
40	455.0/335.0	4.755
41	455.0/540.0	8.818
42	460.0/340.0	4.909
43	470.0/560.0	4.383
44	485.0/265.0	2.252
45	495.0/270.0	2.546
46	505.0/275.0	3.662
47	510.0/280.0	4.474
48	520.0/285.0	4.302
49	525.0/290.0	3.799
50	535.0/270.0	42.13
51	540.0/295.0	4.768
52	545.0/300.0	5.427
53	545.0/435.0	7.373
54	550.0/305.0	6.812
55	550.0/415.0	7.420
56	560.0/310.0	6.761
57	570.0/315.0	6.720
58	575.0/320.0	6.770
59	585.0/325.0	6.746

Data points
	220.0	225.0	230.0	235.0	240.0	245.0	250.0	255.0	260.0	265.0	270.0	275.0	280.0	285.0	290.0	295.0	300.0	305.0	310.0	315.0	320.0	325.0	330.0	335.0	340.0	345.0	350.0	355.0	360.0	365.0	370.0	375.0	380.0	385.0	390.0	395.0	400.0	405.0	410.0	415.0	420.0	425.0	430.0	435.0	440.0	445.0	450.0	455.0	460.0	465.0	470.0	475.0	480.0	485.0	490.0	495.0	500.0	505.0	510.0	515.0	520.0	525.0	530.0	535.0	540.0	545.0	550.0	555.0	560.0	565.0	570.0	575.0	580.0	585.0	590.0	595.0	600.0
230.0	57.64	1453	3324	726.4	28.12	4.451	3.714	2.875	2.990	2.730	2.435	2.325	2.212	1.713	1.576	1.317	1.088	0.911	0.744	0.744	0.728	0.637	0.654	0.588	0.557	0.553	0.511	0.466	0.437	0.439	0.390	0.411	0.373	0.285	0.295	0.293	0.272	0.213	0.208	0.159	0.222	0.416	0.395	0.242	0.171	0.189	1.676	7.026	11.08	7.233	2.598	0.467	0.134	0.113	0.104	0.108	0.131	0.130	0.122	0.101	0.076	0.112	0.078	0.106	0.127	0.077	0.094	0.093	0.085	0.084	0.094	0.103	0.076	0.077	0.074	0.073	0.096
235.0	126.1	406.4	2358	3201	527.7	36.94	4.547	4.727	3.399	2.554	2.608	2.459	2.452	2.237	1.326	1.551	1.144	0.940	0.845	0.650	0.623	0.704	0.554	0.665	0.655	0.715	0.548	0.516	0.587	0.388	0.525	0.419	0.452	0.241	0.320	0.302	0.213	0.251	0.237	0.171	0.149	0.247	0.416	0.503	0.353	0.313	0.496	1.903	4.599	8.357	11.62	11.17	4.719	0.865	0.128	0.125	0.124	0.126	0.110	0.112	0.155	0.111	0.106	0.117	0.117	0.102	0.083	0.106	0.104	0.121	0.106	0.123	0.052	0.102	0.105	0.082	0.126
240.0	182.5	189.3	751.5	3011	3205	389.9	16.17	5.167	4.189	3.374	3.106	2.723	2.938	2.150	1.897	1.514	1.240	1.167	0.912	0.873	0.622	0.668	0.547	0.654	0.542	0.654	0.562	0.528	0.530	0.411	0.523	0.461	0.338	0.320	0.330	0.291	0.223	0.278	0.243	0.147	0.192	0.189	0.265	0.367	0.467	0.599	0.407	0.587	1.176	2.658	6.798	15.86	17.25	10.77	3.305	0.498	0.104	0.089	0.112	0.079	0.161	0.178	0.107	0.155	0.112	0.054	0.101	0.138	0.119	0.092	0.079	0.073	0.111	0.124	0.112	0.108	0.111
245.0	151.6	246.8	234.8	1118	3974	2990	269.6	9.913	5.994	4.827	3.641	2.994	2.829	2.711	2.332	1.480	1.247	1.159	0.993	0.909	0.806	0.748	0.587	0.749	0.589	0.626	0.661	0.580	0.569	0.539	0.463	0.423	0.394	0.365	0.304	0.275	0.218	0.291	0.250	0.159	0.194	0.186	0.242	0.218	0.304	0.662	0.849	0.599	0.437	0.693	1.749	5.709	13.60	21.89	19.72	9.546	2.059	0.260	0.130	0.106	0.161	0.204	0.101	0.149	0.109	0.058	0.112	0.100	0.100	0.086	0.111	0.082	0.084	0.171	0.108	0.127	0.107
250.0	58.44	199.4	299.9	349.2	1395	3716	3894	1011	59.23	5.925	5.395	4.213	3.481	2.781	2.416	1.746	1.520	1.347	1.027	0.883	0.864	0.885	0.729	0.751	0.691	0.674	0.707	0.628	0.655	0.533	0.563	0.435	0.486	0.359	0.329	0.296	0.245	0.220	0.250	0.224	0.172	0.181	0.236	0.155	0.220	0.343	0.506	0.752	1.014	0.856	0.759	1.484	3.476	7.495	13.69	19.97	24.26	18.09	9.691	2.254	0.328	0.161	0.157	0.141	0.115	0.154	0.131	0.121	0.125	0.088	0.121	0.083	0.087	0.098	0.088	0.095	0.105
255.0	29.46	68.47	244.2	381.0	397.8	1025	4020	6187	1496	41.89	7.523	5.116	4.244	3.003	2.579	2.041	1.643	1.541	1.154	0.893	0.924	0.816	0.833	0.859	0.733	0.744	0.748	0.558	0.630	0.711	0.582	0.524	0.535	0.505	0.296	0.439	0.342	0.206	0.240	0.235	0.243	0.229	0.309	0.205	0.188	0.267	0.232	0.304	0.590	0.999	1.418	1.528	1.254	1.931	3.289	4.938	10.55	23.93	38.87	27.52	13.90	2.300	0.248	0.180	0.150	0.147	0.131	0.134	0.132	0.120	0.122	0.099	0.119	0.085	0.086	0.160	0.118
260.0	19.84	28.07	100.7	367.4	352.3	290.9	1377	6215	7192	240.1	20.98	7.784	6.022	4.139	3.064	2.274	1.977	1.737	1.346	1.038	0.784	0.895	0.803	0.804	0.922	0.619	0.717	0.614	0.650	0.614	0.628	0.448	0.444	0.426	0.429	0.355	0.300	0.248	0.223	0.304	0.236	0.269	0.201	0.187	0.184	0.250	0.220	0.194	0.292	0.445	1.052	2.129	1.808	1.192	1.089	1.373	2.697	6.873	19.10	37.73	48.36	25.68	10.28	0.959	0.200	0.165	0.103	0.122	0.196	0.181	0.165	0.115	0.276	0.123	0.099	0.142	0.114
265.0	18.63	20.42	42.60	192.2	475.9	271.3	369.5	2401	9190	5665	185.7	13.98	7.101	5.001	4.107	2.570	2.196	1.958	1.400	1.149	1.085	1.194	0.900	0.910	0.782	0.710	0.776	0.692	0.706	0.548	0.692	0.525	0.447	0.415	0.410	0.287	0.225	0.234	0.257	0.268	0.230	0.250	0.259	0.228	0.267	0.282	0.155	0.201	0.247	0.231	0.441	1.224	2.233	2.252	1.563	0.853	1.009	1.767	4.857	12.11	29.93	50.12	52.99	21.23	5.064	0.383	0.221	0.177	0.209	0.148	0.140	0.190	0.141	0.120	0.159	0.095	0.104
270.0	46.81	37.53	41.54	75.64	274.9	491.9	315.6	615.3	3215	7282	7590	750.7	41.68	7.986	4.962	3.386	2.772	2.108	1.767	1.464	1.189	1.239	1.022	1.041	0.916	0.771	0.794	0.693	0.683	0.697	0.605	0.616	0.549	0.499	0.476	0.376	0.342	0.282	0.283	0.297	0.311	0.262	0.243	0.272	0.258	0.272	0.252	0.296	0.267	0.232	0.269	0.474	0.807	1.554	2.281	2.546	1.910	1.314	1.550	3.091	7.400	15.33	28.95	42.13	40.49	42.00	14.65	4.801	0.472	0.203	0.193	0.202	0.168	0.168	0.166	0.100	0.159
275.0	110.4	113.2	90.05	58.85	123.0	310.9	626.2	371.0	778.1	1918	6902	9999.9	1039	35.90	7.321	5.219	3.723	2.474	2.221	1.903	1.335	1.136	1.226	1.206	1.090	0.871	0.934	0.808	0.890	0.682	0.597	0.491	0.672	0.653	0.531	0.452	0.549	0.398	0.360	0.416	0.417	0.352	0.346	0.364	0.459	0.409	0.505	0.433	0.332	0.342	0.304	0.376	0.475	0.685	1.042	1.475	3.127	3.662	2.593	1.350	2.085	3.773	6.823	10.14	14.29	36.54	64.81	67.13	22.77	4.770	0.346	0.207	0.233	0.142	0.201	0.147	0.188
280.0	198.5	188.1	143.5	74.81	88.97	168.2	485.5	630.9	314.6	499.7	2115	9742	8925	146.2	17.09	7.475	4.299	3.377	2.475	2.054	1.528	1.497	1.378	1.135	1.233	0.989	1.007	0.876	0.961	0.853	0.693	0.593	0.796	0.723	0.755	0.634	0.511	0.444	0.484	0.469	0.392	0.455	0.415	0.539	0.579	0.613	0.761	0.623	0.479	0.439	0.332	0.374	0.337	0.473	0.748	0.863	1.532	2.840	4.474	3.182	1.659	1.243	2.032	2.673	3.735	9.654	24.47	55.35	75.78	32.77	16.98	1.923	0.312	0.210	0.238	0.234	0.166
285.0	256.3	288.8	202.0	97.94	83.72	117.7	244.6	646.5	498.6	220.1	573.7	3279	9999.9	6650	109.6	11.77	6.164	4.186	2.949	2.218	1.885	1.626	1.338	1.346	1.194	0.982	1.060	0.919	1.015	0.859	0.675	0.752	0.833	0.788	0.799	0.756	0.690	0.602	0.638	0.563	0.368	0.522	0.523	0.648	0.777	0.759	0.918	0.801	0.787	0.611	0.420	0.448	0.385	0.454	0.605	0.662	0.825	1.330	2.447	3.832	4.302	2.154	1.151	1.119	1.484	2.774	6.071	14.85	35.07	62.34	77.81	28.06	10.22	0.724	0.252	0.282	0.157
290.0	342.9	372.2	270.0	131.2	88.07	101.9	139.6	304.7	625.6	490.8	286.0	872.3	3284	8281	7510	435.0	26.16	6.606	4.405	2.753	2.291	1.986	1.739	1.518	1.175	1.192	1.015	1.034	1.005	0.924	0.837	0.823	0.829	0.860	0.895	0.958	0.780	0.679	0.667	0.626	0.506	0.573	0.602	0.794	0.950	1.000	1.146	1.094	1.088	0.744	0.538	0.514	0.441	0.462	0.558	0.609	0.664	0.748	1.003	1.618	2.770	3.799	3.618	2.566	1.429	1.389	2.135	4.077	8.693	16.90	32.85	44.67	57.76	48.71	18.59	7.847	0.982
295.0	399.3	436.9	323.5	162.8	100.0	106.1	127.5	175.8	323.5	739.6	638.3	374.8	879.8	2104	6176	9280	617.2	22.61	6.531	4.139	2.779	2.409	2.037	1.705	1.501	1.374	1.155	1.142	1.202	0.798	0.800	0.879	0.888	0.979	0.931	1.070	0.970	0.805	0.727	0.708	0.643	0.566	0.727	0.882	0.987	1.243	1.197	1.208	1.305	0.906	0.668	0.626	0.516	0.559	0.591	0.706	0.719	0.716	0.675	0.936	1.341	1.770	2.416	4.337	4.768	2.779	1.577	1.981	2.851	4.585	8.064	10.67	16.00	29.50	60.30	74.77	29.27
300.0	446.5	480.3	388.2	211.3	138.1	142.0	164.0	208.4	284.1	558.3	1015	571.9	447.5	644.6	1828	8203	5680	87.08	12.60	5.502	4.103	2.858	2.164	1.908	1.810	1.644	1.230	1.240	1.197	0.926	1.006	0.858	0.972	0.892	1.058	1.054	0.975	0.903	0.812	0.852	0.638	0.687	0.841	0.966	1.177	1.269	1.256	1.410	1.295	0.987	0.767	0.856	0.631	0.792	0.625	0.819	0.804	0.939	0.958	1.115	1.198	1.537	1.857	2.807	4.572	5.427	4.339	2.520	2.117	2.441	3.100	3.496	4.545	7.793	19.39	47.10	72.66
305.0	495.6	560.8	454.4	279.0	190.0	201.9	253.2	331.3	418.3	579.6	1017	1170	607.9	471.9	654.9	2733	8744	4495	70.09	8.415	5.001	3.431	2.549	2.166	1.992	1.636	1.320	1.334	1.239	1.043	0.971	0.863	0.964	0.941	1.090	1.100	0.988	0.937	0.720	0.768	0.802	0.829	0.927	1.009	1.143	1.510	1.597	1.744	1.532	1.294	0.935	1.024	0.853	0.948	0.987	0.998	1.171	1.346	1.635	1.890	2.079	2.235	2.599	2.886	3.620	5.007	6.812	5.825	4.026	3.124	2.788	2.683	2.742	3.207	5.800	12.65	27.76
310.0	548.7	635.2	569.8	352.3	265.5	274.3	340.3	438.3	537.1	691.6	888.0	1217	1132	645.9	499.7	857.1	2861	6159	5582	303.7	18.12	5.086	3.565	2.712	2.240	1.911	1.672	1.337	1.238	1.070	1.113	0.891	0.990	1.117	1.088	1.026	1.048	0.926	0.842	0.841	0.857	0.983	1.016	1.127	1.179	1.540	1.815	1.913	1.755	1.504	1.191	1.315	1.175	1.182	1.223	1.268	1.581	1.850	2.030	2.155	2.537	2.710	3.248	3.535	3.891	4.382	5.091	5.974	6.761	6.127	4.681	3.402	2.923	3.007	3.179	4.496	7.660
315.0	632.3	741.0	691.5	441.6	324.5	318.3	397.9	491.4	602.4	754.3	883.6	1016	1158	1066	581.4	474.4	874.2	1589	4553	6946	458.2	16.02	5.016	3.471	2.649	2.256	2.008	1.621	1.584	1.187	1.088	1.080	1.085	0.938	1.097	1.016	1.114	1.003	0.851	0.860	0.903	0.892	1.138	1.285	1.329	1.697	1.991	2.217	2.051	1.712	1.327	1.456	1.472	1.282	1.409	1.543	1.787	2.073	2.427	2.563	2.727	2.913	3.523	3.777	4.091	4.661	4.613	4.934	5.146	5.918	6.720	6.466	4.235	3.293	2.959	2.697	3.402
320.0	728.4	946.9	845.7	537.1	368.1	358.6	429.5	538.7	643.3	797.9	914.7	1003	1018	1161	819.9	432.2	452.8	495.2	1274	5821	4177	65.72	9.584	4.714	3.315	2.696	2.147	1.869	1.530	1.342	1.379	1.026	1.021	1.166	1.152	1.070	1.036	0.990	1.099	0.944	1.008	1.062	1.183	1.269	1.623	1.986	2.403	2.645	2.542	1.986	1.764	1.685	1.529	1.579	1.583	1.605	1.894	2.125	2.537	2.732	2.718	3.074	3.380	3.678	4.265	4.297	4.696	4.870	4.855	5.154	5.732	6.770	6.697	5.325	3.540	2.592	2.521
325.0	884.8	1173	1100	666.4	430.3	383.8	456.2	546.5	646.6	790.8	919.2	998.8	967.4	971.5	1004	538.3	364.9	261.7	349.7	1796	6083	3482	55.48	7.010	4.051	3.113	2.322	1.934	1.686	1.468	1.385	1.182	0.915	0.960	1.099	0.939	1.063	1.030	1.145	1.014	0.893	1.181	1.224	1.517	1.909	2.319	2.940	3.205	3.182	2.541	2.238	2.042	1.783	1.730	1.688	1.802	1.981	2.147	2.905	2.656	2.733	3.205	3.395	3.955	4.220	4.365	4.575	4.812	4.844	5.069	4.898	5.257	5.797	6.746	4.773	3.180	2.504
330.0	980.8	1390	1386	947.2	590.1	449.8	469.1	541.9	622.0	767.1	899.2	981.1	952.7	858.5	840.8	732.7	456.8	230.0	163.2	459.6	1856	4379	4280	978.8	17.09	4.075	3.104	2.348	2.013	1.628	1.622	1.200	0.998	1.145	1.149	1.074	0.987	1.125	1.117	0.981	0.944	1.154	1.302	1.614	2.042	2.772	3.370	4.133	4.159	3.384	3.045	2.943	2.555	2.178	1.942	1.733	2.124	2.190	2.584	2.825	2.803	3.047	3.392	3.954	3.938	4.250	4.487	4.674	4.903	5.010	4.868	4.664	4.574	5.061	4.827	4.700	4.131
335.0	1038	1545	1598	1190	808.1	550.8	492.9	547.4	622.2	747.1	872.0	955.1	923.6	834.9	720.0	635.0	650.8	322.8	153.4	184.8	474.7	1078	3338	5763	400.0	17.19	4.426	3.028	2.261	1.832	1.750	1.426	1.292	1.172	1.084	1.134	1.004	1.056	1.047	0.903	0.961	1.123	1.336	1.584	2.132	3.147	3.759	4.755	4.700	4.016	3.705	4.117	3.354	3.027	2.575	2.085	2.389	2.446	2.575	2.826	2.997	3.089	3.050	3.707	4.059	4.286	4.531	4.524	4.693	4.884	4.939	4.652	4.231	4.256	3.945	3.860	4.308
340.0	1061	1593	1710	1308	885.6	590.5	491.4	539.6	603.1	719.0	834.1	907.0	885.9	804.0	675.2	541.5	588.8	472.7	195.6	137.6	178.7	297.5	928.8	4509	3481	322.2	8.916	3.651	2.789	2.195	1.877	1.521	1.439	1.319	1.136	1.069	1.064	1.114	1.064	0.990	0.980	1.059	1.255	1.714	2.126	3.154	3.685	4.604	4.909	4.318	3.986	4.369	3.727	3.084	2.544	2.226	2.267	2.462	2.507	2.651	2.734	2.792	3.135	3.490	3.607	3.848	4.325	4.416	4.353	4.600	4.591	4.265	4.110	4.068	3.730	3.364	3.381
345.0	992.2	1476	1616	1294	891.9	595.6	493.7	511.7	569.6	669.9	774.4	830.3	825.5	753.4	637.2	490.0	449.9	506.3	307.9	147.5	128.8	133.7	257.6	1357	4648	3094	50.50	5.672	3.510	2.501	2.125	1.464	1.469	1.435	1.239	1.099	1.076	1.049	0.943	0.850	0.997	1.031	1.128	1.478	2.156	2.947	3.403	4.072	4.672	4.320	4.062	4.494	4.007	3.164	2.659	2.284	2.277	2.358	2.369	2.647	2.689	2.776	2.931	3.455	3.372	3.768	3.942	4.096	4.097	4.240	4.278	4.021	4.122	3.993	3.405	3.032	2.799
350.0	923.2	1344	1470	1267	895.1	605.3	491.0	492.9	541.5	618.4	702.3	750.8	747.7	691.1	583.1	460.6	392.6	379.2	394.1	271.6	152.8	121.3	124.4	350.4	1387	3333	3446	888.1	16.40	3.574	2.541	1.962	1.590	1.429	1.214	1.043	0.932	0.957	0.933	0.866	0.879	0.975	1.173	1.500	1.948	2.687	3.150	3.979	4.309	3.976	3.783	4.186	3.788	3.194	2.585	2.349	2.273	2.318	2.234	2.363	2.419	2.538	2.783	3.135	3.211	3.408	3.616	3.546	3.738	4.011	3.898	3.662	3.788	3.510	3.286	2.757	2.632
355.0	763.7	1148	1310	1151	870.7	610.4	496.9	494.4	525.4	586.1	632.9	676.2	674.4	623.7	548.8	446.2	377.2	329.3	319.0	378.0	262.1	152.4	122.1	146.1	352.9	801.0	2336	4387	386.0	18.26	3.417	2.794	1.942	1.502	1.252	1.081	1.211	1.016	0.954	0.964	0.862	0.930	1.118	1.309	1.588	2.265	2.817	3.341	3.815	3.448	3.641	3.550	3.744	3.231	2.737	2.169	2.287	2.314	2.166	2.302	2.303	2.520	2.550	2.857	3.090	3.027	3.300	3.380	3.533	3.651	3.435	3.260	3.269	3.350	2.950	2.994	2.682
360.0	692.6	1024	1166	1040	812.7	594.9	490.9	482.3	504.5	541.0	589.4	624.1	623.5	584.1	512.7	428.1	372.0	320.8	293.6	333.7	366.6	214.5	141.0	116.9	134.7	216.8	622.9	3088	3239	323.6	9.736	3.295	2.341	1.740	1.438	1.202	1.253	1.006	0.873	0.922	0.894	0.945	0.986	1.197	1.488	2.042	2.482	2.928	3.451	3.240	3.353	3.449	3.337	3.190	2.334	2.187	2.308	2.222	2.142	2.417	2.309	2.505	2.550	2.721	2.943	2.833	2.936	3.182	3.022	3.238	3.158	3.166	3.030	3.256	2.860	3.058	2.748
365.0	624.2	928.0	1053	949.5	765.3	585.1	489.1	471.1	481.6	520.6	556.7	583.4	575.4	539.3	481.7	418.6	369.6	326.8	297.5	289.8	364.1	318.2	177.0	126.1	99.39	96.46	172.3	879.6	3472	2957	49.56	5.250	2.916	2.051	1.585	1.324	1.141	1.055	0.909	0.840	0.828	0.917	1.051	1.082	1.406	1.893	2.079	2.555	3.012	2.892	3.010	3.315	3.118	2.813	2.513	2.136	2.051	2.106	2.034	2.193	2.164	2.385	2.451	2.575	2.699	2.541	2.846	2.908	3.007	3.083	2.899	2.896	2.910	3.116	2.589	2.916	2.626
370.0	549.0	802.5	926.5	853.0	722.5	571.5	483.3	464.0	471.1	498.6	533.2	540.2	530.6	500.2	455.2	406.2	371.2	340.9	311.2	294.1	304.0	344.2	283.9	164.5	111.4	85.07	82.71	228.3	986.9	2704	3027	880.8	16.10	2.950	2.101	1.559	1.196	1.046	0.911	0.816	0.840	0.912	0.939	1.014	1.431	1.559	1.926	2.452	2.587	2.421	2.571	3.169	2.771	2.666	2.335	2.111	2.204	2.257	2.137	2.132	2.169	2.111	2.380	2.464	2.488	2.561	2.701	2.689	2.681	2.805	2.765	2.786	2.650	2.665	2.640	2.780	2.562
375.0	517.5	683.4	804.3	746.7	679.1	553.1	484.3	463.0	463.7	475.3	499.2	507.0	496.1	467.0	428.4	392.7	368.1	347.8	328.0	309.1	294.1	292.3	327.7	262.1	145.3	101.2	78.91	94.65	250.1	641.5	1836	3774	337.6	18.62	3.289	2.295	1.949	1.116	0.956	0.812	0.914	0.972	0.967	1.039	1.217	1.379	1.698	2.023	2.214	2.222	2.322	2.629	2.651	2.485	2.508	2.083	2.250	2.269	1.997	1.906	2.097	2.256	2.303	2.291	2.393	2.394	2.443	2.459	2.316	2.608	2.612	2.337	2.405	2.672	2.528	2.418	2.463
380.0	458.8	631.5	715.2	697.7	638.7	541.7	488.8	461.2	451.3	468.5	497.8	489.8	469.6	446.2	421.7	385.7	360.5	348.2	333.9	316.0	302.5	278.8	291.5	319.0	204.2	123.9	92.95	78.03	97.22	174.0	481.8	2497	2779	283.0	10.43	3.621	2.418	1.680	1.150	1.046	0.918	0.985	0.915	0.989	1.109	1.340	1.517	1.832	2.050	1.985	2.149	2.473	2.508	2.299	2.380	2.096	2.092	1.973	2.065	2.149	2.078	2.252	2.201	2.295	2.240	2.351	2.293	2.158	2.383	2.332	2.549	2.245	2.510	2.537	2.361	2.583	2.477
385.0	444.3	592.3	659.8	656.8	611.0	538.2	479.6	459.9	463.6	476.7	499.0	493.4	475.7	451.1	417.3	383.8	361.7	349.7	339.3	327.2	312.4	290.8	273.0	304.7	282.7	168.3	116.9	94.21	83.41	83.96	144.4	701.5	2671	2459	41.30	8.843	4.478	2.574	1.394	1.124	0.922	0.919	0.878	1.037	1.167	1.398	1.517	1.889	1.901	1.909	2.164	2.401	2.336	2.170	2.328	2.075	2.230	2.206	2.162	2.147	2.139	2.029	2.176	2.342	2.235	2.206	2.213	2.136	2.239	2.183	2.520	2.356	2.409	2.558	2.325	2.384	2.403
390.0	424.9	532.5	612.2	641.2	611.9	568.7	520.6	517.5	543.1	571.7	607.5	614.8	583.8	541.1	487.3	427.0	391.3	371.7	367.7	358.8	354.1	341.4	322.4	323.4	339.5	310.5	222.1	177.7	156.6	139.7	134.8	239.1	782.1	2012	2268	704.0	20.90	7.912	3.055	1.713	1.118	0.942	1.024	0.982	1.151	1.306	1.389	1.814	1.685	1.911	1.969	2.329	2.368	2.467	2.408	2.203	2.238	2.329	2.441	2.228	2.267	2.307	2.410	2.544	2.425	2.534	2.434	2.450	2.498	2.551	2.581	2.477	2.750	2.834	2.466	2.518	2.463
395.0	409.3	523.7	597.0	651.2	667.6	650.2	647.9	677.2	776.2	870.4	966.4	985.6	930.9	837.0	714.3	589.2	494.1	448.3	443.4	446.1	461.8	476.5	478.6	475.2	470.1	478.0	443.5	392.7	364.2	337.4	302.5	281.8	355.1	602.0	1394	2769	287.9	28.91	8.635	3.300	1.594	1.187	1.124	1.260	1.368	1.377	1.402	1.780	1.856	2.001	2.031	2.646	2.424	2.567	2.623	2.537	2.532	2.728	2.787	2.856	2.714	2.861	3.138	3.229	3.416	3.409	3.561	3.443	3.438	3.310	3.284	3.196	3.205	3.035	2.770	3.007	2.731
400.0	408.9	530.0	623.7	703.8	753.1	773.7	822.0	911.8	1083	1284	1460	1504	1379	1217	1018	811.7	647.0	566.3	555.0	574.2	600.2	653.4	691.9	720.7	731.7	749.7	783.7	734.6	664.6	615.3	563.1	420.0	395.1	401.7	558.5	1874	2289	257.2	22.09	5.735	2.322	1.577	1.389	1.505	1.600	1.502	1.544	1.995	2.027	2.085	2.187	2.885	2.804	3.082	3.007	3.201	3.239	3.130	3.490	3.241	3.556	3.807	3.951	4.184	4.554	4.548	4.904	4.377	4.448	4.443	4.434	4.241	3.933	3.779	4.025	3.601	3.193
405.0	402.1	566.4	671.3	773.9	855.6	928.9	1021	1190	1441	1780	1979	2127	1973	1739	1420	1083	820.7	700.5	683.4	725.0	782.2	858.2	937.5	998.4	1040	1061	1107	1114	1023	959.0	882.2	748.3	612.3	503.7	429.4	755.2	2085	2021	193.6	10.52	3.665	2.212	1.631	1.573	1.580	1.866	1.767	2.138	2.270	2.478	2.407	3.113	3.357	3.514	3.689	3.657	3.912	3.789	4.361	4.209	4.258	4.639	5.235	5.475	5.735	5.933	6.045	5.867	5.933	5.967	6.029	5.441	4.710	5.189	4.876	4.374	3.823
410.0	430.5	578.4	697.0	825.3	948.6	1071	1199	1430	1786	2230	2574	2704	2513	2193	1771	1335	989.6	821.4	792.9	850.1	935.3	1046	1153	1247	1309	1358	1384	1408	1373	1279	1179	1018	822.3	652.3	536.2	512.6	776.6	1586	1759	542.9	14.12	2.964	2.051	1.860	1.833	1.932	2.019	2.427	2.617	2.477	2.712	3.597	3.777	3.993	4.077	4.083	4.329	4.601	4.979	4.890	5.207	5.468	5.980	6.545	6.921	7.328	7.214	7.032	7.086	7.114	6.753	6.328	6.038	5.880	5.484	4.982	4.565
415.0	407.8	582.0	676.6	840.3	951.4	1079	1227	1477	1832	2300	2679	2813	2597	2277	1820	1369	1014	830.0	804.7	868.7	957.8	1070	1188	1289	1357	1394	1415	1416	1408	1363	1224	1059	847.2	669.8	546.8	447.3	393.5	471.4	980.2	1977	255.3	13.94	2.457	2.077	1.960	1.884	2.098	2.580	2.554	2.516	2.646	3.532	3.921	4.345	4.326	4.487	4.522	4.768	5.031	4.886	5.369	5.541	5.943	6.853	6.705	7.337	7.420	7.231	7.112	7.050	6.926	6.546	6.340	5.806	5.504	4.902	4.564
420.0	404.3	533.2	656.7	789.2	923.5	1062	1186	1416	1783	2233	2603	2704	2501	2182	1763	1327	972.7	803.4	777.7	840.6	930.8	1039	1156	1242	1307	1348	1359	1346	1324	1308	1197	1010	805.5	637.3	520.0	406.8	288.7	203.0	281.4	1256	1757	215.7	6.402	2.220	1.957	2.180	1.912	2.198	2.548	2.558	2.628	3.608	3.715	3.842	4.074	4.211	4.556	4.727	4.809	4.838	5.233	5.499	5.993	6.508	6.650	6.924	7.080	7.009	6.962	7.070	6.489	6.458	5.958	5.461	5.109	4.582	4.475
425.0	392.5	516.4	651.1	777.8	932.8	1037	1169	1422	1765	2204	2561	2643	2457	2143	1724	1291	951.8	785.8	764.7	821.9	912.1	1018	1136	1223	1280	1322	1333	1319	1288	1257	1188	1006	792.3	627.5	502.5	391.8	260.4	141.3	101.2	350.7	1418	1514	33.84	3.635	2.132	2.081	1.964	2.305	2.627	2.591	2.740	3.510	3.634	3.975	4.093	4.101	4.384	4.628	4.753	5.340	4.978	5.343	5.815	6.574	6.235	7.092	6.841	6.951	6.805	6.686	6.379	6.158	5.767	5.330	4.961	4.504	4.399
430.0	493.0	513.7	637.1	799.4	931.0	1081	1235	1490	1838	2267	2636	2735	2541	2199	1777	1329	970.2	796.8	780.3	837.3	928.6	1050	1166	1264	1328	1370	1390	1382	1344	1301	1235	1081	849.7	663.5	536.6	418.5	274.4	139.7	65.44	95.03	386.8	1112	1315	417.4	10.95	2.516	2.307	2.368	2.588	2.561	2.816	3.604	3.668	4.015	4.159	4.371	4.859	4.848	4.907	5.269	5.132	5.716	6.138	6.655	6.640	7.266	7.066	6.951	7.231	6.871	6.588	6.294	6.037	5.504	4.977	4.865	4.600
435.0	907.4	515.6	652.9	802.3	946.6	1103	1275	1532	1877	2303	2674	2762	2578	2227	1788	1339	978.6	801.8	782.8	836.7	929.3	1046	1173	1276	1350	1394	1424	1424	1384	1332	1249	1114	909.7	703.2	566.4	440.6	292.6	149.1	61.91	40.16	96.13	260.8	752.0	1637	237.7	11.84	2.606	2.561	2.811	2.638	2.675	3.543	3.615	4.138	4.212	4.263	4.820	5.072	5.031	5.638	5.160	5.873	6.143	6.791	6.982	7.373	7.213	7.091	7.247	6.869	6.671	6.619	6.265	5.687	4.858	4.597	4.565
440.0	1341	626.9	614.6	771.6	951.6	1091	1275	1493	1837	2241	2573	2628	2457	2136	1724	1284	945.6	771.8	754.6	807.9	892.3	997.4	1121	1221	1294	1341	1362	1362	1330	1278	1199	1061	884.2	700.1	548.5	427.2	285.8	146.5	61.54	28.71	31.94	65.67	196.6	1087	1533	192.9	5.693	2.701	2.732	2.540	2.824	3.645	3.567	4.045	4.396	4.499	4.742	5.169	5.155	5.255	5.246	5.765	6.271	6.425	6.825	6.800	6.814	6.531	7.191	6.520	6.305	6.206	5.939	5.380	4.860	4.564	4.124
445.0	1548	937.6	593.3	744.5	898.6	1046	1220	1410	1697	2051	2346	2421	2250	1960	1581	1185	876.5	717.8	700.5	748.9	825.2	922.5	1026	1121	1186	1221	1239	1243	1212	1164	1090	955.7	792.5	652.4	509.0	392.0	263.3	136.7	60.37	27.41	18.80	22.49	50.28	305.1	1304	1358	28.33	3.813	2.745	2.440	2.638	3.489	3.608	3.733	4.161	4.266	4.715	5.142	4.894	5.171	5.063	5.498	5.841	5.833	6.309	6.341	6.399	6.290	6.450	5.945	5.627	5.534	5.138	4.792	4.344	3.989	4.024
450.0	1100	1724	706.5	687.4	830.1	958.1	1112	1274	1498	1770	2003	2082	1932	1676	1357	1021	761.7	628.9	615.6	655.7	713.7	791.5	881.0	960.3	1009	1041	1051	1056	1030	988.0	922.6	805.1	660.8	545.4	449.7	340.9	225.5	119.4	55.26	26.84	17.21	14.11	18.28	73.67	358.8	1036	1202	372.0	9.515	2.607	2.603	3.180	3.345	3.520	3.782	3.940	4.175	4.455	4.518	4.598	4.729	4.924	5.086	5.177	5.355	5.458	5.296	5.306	5.306	5.072	5.052	4.710	4.688	4.252	3.833	3.719	3.588
455.0	536.4	1969	1190	639.6	756.3	879.4	1019	1156	1307	1533	1726	1763	1643	1438	1156	886.0	661.6	548.5	534.4	571.0	618.1	683.9	749.3	821.1	861.9	883.3	897.4	897.2	875.3	840.7	782.4	681.1	558.8	455.2	382.9	308.2	200.8	105.5	51.11	26.83	18.20	13.42	11.81	22.50	84.85	241.5	648.5	1399	195.4	9.851	2.757	3.020	3.171	3.478	3.229	3.784	3.958	4.051	4.146	4.126	4.332	4.639	4.556	4.512	4.672	5.031	4.650	4.597	4.563	4.566	4.318	4.310	4.113	3.790	3.496	3.511	2.995
460.0	348.5	1399	2239	741.7	704.6	813.7	943.2	1057	1199	1386	1532	1594	1474	1289	1046	795.3	597.4	498.2	483.6	512.0	553.9	612.7	675.0	732.5	774.5	796.8	808.2	801.5	788.9	759.5	705.5	617.2	505.2	406.6	340.4	283.8	193.2	99.96	50.57	27.43	19.05	14.15	11.26	11.73	24.54	58.41	165.1	879.1	1241	150.2	5.789	2.866	2.931	3.294	3.244	3.515	3.822	3.882	3.898	3.939	3.872	4.182	4.139	4.257	4.349	4.301	4.079	4.257	4.259	4.158	4.028	4.077	3.716	3.411	3.319	3.207	2.752
465.0	294.4	780.4	2594	1293	668.6	772.7	889.3	998.8	1109	1253	1404	1454	1337	1172	951.9	716.8	545.6	456.1	444.6	468.2	500.3	557.3	605.9	666.7	701.6	721.1	730.2	731.6	717.0	687.0	647.1	562.2	460.1	370.1	304.7	255.1	188.4	100.5	49.17	28.36	20.05	15.23	11.77	9.809	11.19	17.63	41.14	242.2	1035	1040	23.54	3.833	3.033	3.157	3.062	3.284	3.594	3.644	3.643	3.810	3.512	3.730	4.036	4.108	4.157	3.990	3.840	4.103	4.002	3.528	3.805	3.744	3.336	3.272	3.016	2.718	2.554
470.0	289.4	432.7	1712	2690	776.1	690.0	789.4	871.7	959.6	1088	1209	1231	1137	996.7	806.2	615.5	469.9	392.9	387.8	402.9	427.4	473.4	519.9	566.0	591.4	613.7	623.1	622.5	610.0	586.0	547.1	479.8	393.5	318.3	261.9	213.8	160.6	100.1	51.40	28.42	19.96	15.67	12.31	10.09	8.599	8.996	13.27	58.03	280.5	755.2	865.9	314.0	9.780	3.023	3.110	3.113	3.327	3.346	3.138	3.297	3.211	3.469	3.405	3.584	3.445	3.631	3.449	3.558	3.192	3.154	3.345	3.177	2.956	2.748	2.625	2.431	2.309
475.0	295.4	314.7	728.2	3140	1548	601.9	677.3	740.4	798.8	902.8	990.3	999.7	921.2	814.7	655.9	508.9	387.7	331.1	321.2	332.9	354.1	385.4	423.3	463.9	480.2	491.5	505.7	500.3	490.4	478.4	441.2	389.7	320.8	260.0	213.6	171.7	126.3	85.83	56.45	30.93	20.09	15.63	12.22	10.14	8.989	7.388	7.405	16.99	65.83	174.2	415.6	961.3	194.6	11.40	2.802	2.738	3.199	2.947	2.872	2.747	2.844	2.950	2.967	2.930	2.850	3.009	3.044	2.650	2.694	2.603	2.668	2.556	2.510	2.238	2.189	2.072	1.968
480.0	301.9	304.1	406.5	2229	2460	660.4	599.1	651.0	706.3	768.5	828.0	855.6	777.4	691.2	556.1	433.0	335.0	286.9	276.2	290.4	304.6	328.7	360.9	389.8	407.7	414.5	424.5	421.1	412.0	403.3	374.1	328.3	271.5	220.6	182.0	146.0	107.3	71.64	54.26	35.37	21.13	15.59	12.73	10.54	9.012	7.846	6.700	7.740	18.13	41.84	103.1	529.6	911.6	175.4	5.790	2.695	2.866	2.586	2.591	2.509	2.617	2.763	2.692	2.657	2.497	2.597	2.620	2.306	2.400	2.337	2.162	2.273	2.116	1.958	1.862	1.850	1.627
485.0	261.5	328.2	320.3	1100	2823	1092	547.0	578.7	624.0	670.8	734.9	739.9	679.1	600.2	489.6	380.5	299.4	252.7	243.8	251.9	265.0	289.0	313.4	337.2	350.0	357.1	366.2	361.5	356.7	345.0	320.7	283.2	232.6	191.0	157.6	126.3	92.15	59.23	46.73	38.86	24.89	16.49	12.77	10.68	9.214	7.978	6.571	6.010	7.346	12.30	26.12	141.1	689.4	850.1	28.13	3.695	2.591	2.504	2.525	2.450	2.328	2.350	2.213	2.397	2.232	2.374	2.299	2.252	2.086	1.997	1.921	1.926	1.897	1.752	1.638	1.752	1.629
490.0	198.4	329.9	290.7	498.8	1871	2237	621.9	509.0	533.8	570.4	615.5	620.5	572.3	500.1	408.5	319.3	252.7	217.1	211.7	217.0	224.7	243.9	261.9	283.1	293.8	301.0	304.8	304.6	297.6	290.7	268.8	235.9	196.7	161.1	134.0	107.6	78.50	52.36	36.65	33.93	30.34	19.74	13.56	10.68	9.250	7.972	7.027	5.674	5.527	5.985	8.602	34.28	181.3	531.2	743.7	318.4	11.59	2.478	2.176	2.264	2.119	2.043	1.985	2.024	1.981	2.059	1.964	1.899	1.888	1.815	1.685	1.700	1.562	1.472	1.400	1.373	1.370
495.0	150.8	287.7	297.2	318.3	776.8	2601	1326	443.2	459.7	486.6	522.9	520.0	479.6	418.9	340.6	269.0	213.7	184.7	180.8	184.2	191.1	202.2	217.6	237.4	244.1	247.7	252.3	255.0	248.4	239.3	224.4	196.3	165.4	137.0	113.7	92.12	67.85	45.44	31.22	26.08	28.31	25.00	15.67	11.39	9.239	8.289	7.022	6.180	5.186	4.660	4.755	10.24	42.99	122.4	357.1	932.0	224.8	13.60	2.176	2.008	1.929	1.889	1.606	1.968	1.573	1.798	1.832	1.593	1.591	1.631	1.603	1.477	1.333	1.234	1.230	1.245	1.264
500.0	122.9	224.8	309.5	261.0	395.5	1821	2273	469.1	396.2	424.0	443.1	447.7	413.7	356.1	296.9	232.4	187.0	159.6	158.4	158.5	164.4	176.0	189.0	204.6	211.0	217.2	218.8	220.7	216.4	207.3	195.0	171.4	144.8	119.0	100.4	81.16	61.12	41.39	28.83	22.82	22.70	25.88	19.30	12.38	9.171	8.153	6.983	6.241	5.660	4.741	4.290	4.958	11.91	29.61	87.93	488.9	877.7	192.6	6.588	2.105	1.805	1.728	1.496	1.645	1.674	1.626	1.455	1.475	1.511	1.324	1.383	1.307	1.250	1.189	1.094	1.081	1.004
505.0	110.2	188.9	302.0	252.8	275.6	937.4	2809	831.1	351.3	374.7	389.9	387.7	359.6	309.6	255.1	202.9	162.6	141.5	140.3	139.0	143.0	152.6	165.6	175.8	180.6	187.0	189.7	190.9	188.2	180.3	169.6	149.6	127.6	104.9	87.47	71.31	54.45	37.80	26.09	20.43	19.29	22.10	21.82	14.49	9.393	7.974	7.119	6.175	5.665	4.728	3.960	3.990	5.099	8.860	22.01	126.4	586.4	804.1	31.51	3.344	1.605	1.747	1.492	1.416	1.544	1.374	1.322	1.298	1.270	1.334	1.176	1.182	1.106	1.045	1.035	0.974	0.959
510.0	95.53	138.1	243.0	265.5	234.7	413.6	1944	2037	403.7	310.4	321.2	320.1	294.0	254.1	211.6	167.6	135.5	116.5	115.3	116.0	119.4	125.4	134.2	142.0	148.1	152.2	153.6	155.6	152.3	146.8	137.5	121.6	102.9	85.61	72.72	59.60	46.09	32.52	23.16	18.88	16.03	16.34	19.20	17.86	11.37	8.246	6.895	5.978	5.249	4.842	4.267	3.725	3.491	4.233	7.094	30.28	149.4	456.4	606.9	255.3	11.37	1.562	1.446	1.346	1.241	1.156	1.145	1.098	1.068	1.114	1.003	1.028	1.043	0.955	0.948	0.831	0.784
515.0	87.06	118.1	163.1	267.8	217.8	237.1	750.1	2627	1033	260.2	256.3	256.8	233.2	205.1	169.6	136.7	112.0	95.96	94.85	94.71	96.31	101.9	106.2	111.2	118.7	121.0	122.6	121.0	119.5	114.4	110.0	98.35	82.81	68.75	58.39	49.12	37.87	27.93	20.85	16.67	14.26	13.22	13.96	16.84	15.05	9.458	6.591	5.722	5.107	4.641	4.096	4.220	3.122	3.291	3.684	8.637	35.17	104.2	246.6	662.2	226.5	13.83	1.377	1.094	1.142	1.012	1.018	0.910	0.996	0.849	1.080	0.842	0.723	0.772	0.762	0.655	0.657
520.0	78.65	102.9	131.4	231.0	224.9	188.8	326.2	1893	2080	279.0	220.6	215.4	197.9	170.8	139.7	118.3	94.75	81.58	79.72	80.01	81.53	85.38	89.07	94.91	97.41	100.1	99.95	100.5	100.0	95.20	90.38	81.47	68.99	58.14	49.66	42.73	32.16	23.88	19.19	15.26	13.10	12.40	11.11	13.04	15.89	11.59	6.899	5.580	4.800	4.435	3.856	4.154	3.425	2.942	2.947	3.969	9.662	24.92	59.05	313.7	644.4	191.5	7.425	1.052	1.118	0.950	0.946	0.832	0.831	0.879	0.913	0.784	0.649	0.657	0.770	0.613	0.610
525.0	70.36	93.06	111.9	181.0	237.1	170.5	198.3	884.6	2830	621.9	191.1	182.8	171.0	146.3	120.5	99.07	80.00	71.48	70.54	68.49	70.42	73.59	75.84	80.44	81.91	84.44	85.09	85.04	83.38	81.94	77.06	68.24	59.03	49.94	43.38	36.23	28.08	21.68	17.14	14.35	11.91	11.08	9.855	10.36	13.63	13.01	8.210	5.542	4.797	4.190	3.792	3.520	3.890	3.026	2.485	2.645	3.769	7.129	14.65	77.90	368.8	595.4	145.4	3.112	1.103	0.931	0.934	0.692	0.832	0.757	0.808	0.640	0.657	0.582	0.635	0.585	0.432
530.0	59.46	79.16	88.41	122.3	217.4	180.1	154.4	331.3	1931	1967	216.2	150.0	137.3	121.3	98.24	80.33	66.97	60.05	57.30	55.99	57.53	59.20	62.58	65.13	67.94	68.60	68.18	68.16	67.16	65.83	62.33	55.60	48.57	40.22	35.15	30.10	24.25	18.56	15.05	12.33	10.96	10.01	8.660	8.316	9.662	11.23	10.48	6.543	4.500	3.923	3.479	3.162	3.217	3.164	2.639	2.346	2.449	2.975	4.608	18.62	90.70	292.7	449.0	136.3	12.02	0.997	0.855	0.783	0.649	0.663	0.597	0.605	0.547	0.506	0.502	0.482	0.454
535.0	52.14	64.31	76.97	92.04	155.4	208.4	130.4	168.4	648.7	2619	910.2	130.3	113.0	97.16	80.19	66.22	54.57	49.08	47.15	46.87	46.60	47.48	50.37	51.94	53.38	54.08	54.56	54.31	53.82	52.40	49.56	44.79	38.82	33.73	28.88	24.06	20.09	15.92	12.32	11.11	9.397	8.784	7.693	7.436	7.131	7.529	9.932	8.248	5.224	3.739	3.173	2.924	2.640	2.674	2.820	2.437	2.075	1.985	2.319	5.365	21.27	66.32	152.3	422.6	227.3	15.23	0.875	0.664	0.645	0.621	0.572	0.525	0.466	0.499	0.415	0.394	0.433
540.0	47.43	56.32	63.38	75.31	111.3	206.9	135.6	117.8	232.9	1721	1827	166.4	95.07	83.00	68.82	54.93	46.41	42.17	39.77	40.48	40.62	40.34	43.00	43.56	43.45	45.75	44.89	45.42	45.33	43.54	41.37	37.75	32.95	27.24	24.47	20.67	17.45	13.82	11.12	9.616	8.533	7.747	7.103	6.582	6.053	6.182	7.659	8.818	6.245	3.824	2.917	2.912	2.523	2.413	2.740	2.547	2.094	1.823	1.771	2.539	5.867	15.70	35.80	175.8	450.0	189.6	8.516	0.743	0.547	0.535	0.492	0.390	0.399	0.492	0.359	0.374	0.397
545.0	45.78	55.80	58.21	61.91	82.02	171.7	151.7	99.69	124.5	701.0	2694	462.6	84.35	70.57	58.12	47.40	40.13	35.89	34.25	33.80	34.83	35.83	35.72	37.21	37.84	38.46	37.08	38.71	38.54	37.39	34.29	31.82	27.25	22.88	20.62	17.76	15.31	12.34	10.00	8.774	7.845	6.957	6.463	5.980	5.339	5.450	5.752	7.594	7.116	4.327	3.022	2.690	2.339	2.001	2.268	2.662	2.259	1.843	1.471	1.587	2.195	4.432	8.871	42.08	214.4	422.0	133.7	3.307	0.571	0.557	0.460	0.398	0.387	0.348	0.417	0.332	0.358
550.0	44.62	57.17	54.15	54.03	65.14	108.6	170.2	93.33	85.43	228.4	1630	1694	122.0	56.76	47.73	38.10	32.16	29.31	27.33	27.28	27.40	27.84	27.90	29.26	29.64	29.35	29.31	30.19	30.25	29.28	27.29	25.28	21.89	18.62	16.59	14.50	12.34	10.15	8.317	7.450	6.671	5.802	5.557	4.907	4.680	4.425	4.307	5.127	6.335	5.268	3.436	2.451	2.063	1.788	1.803	2.037	2.161	2.017	1.465	1.350	1.389	1.840	2.744	10.11	51.01	174.1	289.7	137.8	12.85	0.668	0.459	0.373	0.363	0.321	0.309	0.294	0.302
555.0	44.65	47.46	50.85	46.57	50.06	65.48	140.9	114.1	68.33	98.70	483.1	2200	653.3	47.82	36.29	30.41	25.47	22.88	20.40	21.44	20.83	20.87	21.65	22.54	23.19	22.51	22.93	22.61	22.77	21.38	20.78	19.13	16.77	14.31	12.90	11.16	9.355	8.345	6.587	6.028	5.382	4.924	4.493	4.194	3.732	3.581	3.462	3.466	4.274	5.144	4.255	2.567	1.696	1.680	1.543	1.507	1.447	1.848	1.753	1.208	1.137	1.112	1.184	2.844	11.89	39.41	85.48	246.8	212.2	16.94	0.536	0.328	0.357	0.312	0.316	0.292	0.241
560.0	44.24	50.39	47.60	43.29	39.13	47.81	97.69	133.4	64.54	63.54	153.5	1360	1390	76.22	29.67	24.39	20.38	18.44	16.81	17.48	16.58	17.21	17.99	18.07	18.26	18.00	18.37	18.03	18.52	17.22	16.22	15.76	13.72	11.95	10.65	9.067	7.745	6.962	5.703	5.009	4.544	4.286	4.116	3.421	3.320	3.183	2.919	2.724	2.900	3.960	4.383	2.808	1.732	1.519	1.379	1.228	1.271	1.414	1.649	1.417	0.978	0.928	0.777	1.180	3.131	9.387	19.90	88.62	275.7	155.2	8.621	0.403	0.275	0.297	0.250	0.234	0.212
565.0	41.68	50.36	44.98	35.96	39.87	37.48	60.94	137.6	70.66	49.05	72.15	505.6	2105	154.3	26.18	20.58	17.24	15.88	14.86	13.92	13.99	14.41	14.58	15.48	14.96	14.65	15.07	15.39	15.17	14.53	13.55	12.48	10.93	9.497	8.639	7.436	6.746	5.766	4.964	4.301	4.079	3.927	3.337	3.263	3.012	2.802	2.453	2.274	2.064	2.722	3.490	3.216	2.154	1.306	1.202	1.156	1.100	1.188	1.315	1.660	1.084	0.784	0.717	0.727	1.225	2.598	4.970	20.77	112.4	254.0	102.5	3.385	0.302	0.323	0.240	0.268	0.189
570.0	46.34	53.05	43.36	31.65	31.10	32.11	40.85	95.42	100.6	45.90	47.42	151.9	1259	1212	62.23	17.37	14.07	12.26	12.00	11.37	10.86	11.22	11.38	11.77	11.23	11.71	11.75	11.80	11.53	12.00	10.59	9.879	8.727	7.507	6.791	5.990	5.456	4.560	4.197	3.632	3.271	3.104	2.790	2.675	2.449	2.226	2.115	1.914	1.840	1.835	2.287	2.880	2.405	1.479	1.032	1.024	0.983	0.953	0.890	1.171	1.268	0.961	0.651	0.647	0.694	1.051	1.472	5.033	26.12	92.83	169.4	101.1	12.50	0.489	0.270	0.193	0.205
575.0	45.60	52.56	40.61	24.90	23.81	27.44	29.69	52.38	112.2	55.29	38.95	60.70	352.5	1587	448.2	15.85	11.65	9.956	9.191	8.571	8.341	8.090	8.784	9.030	8.413	9.027	8.859	8.764	8.506	8.801	8.651	7.671	6.454	5.965	5.433	4.635	4.163	3.584	3.312	2.951	2.903	2.344	2.175	1.980	2.037	1.870	1.870	1.569	1.489	1.432	1.330	2.050	2.364	1.743	1.024	0.842	0.860	0.802	0.756	0.735	0.970	1.133	0.812	0.590	0.486	0.617	0.638	1.589	6.199	21.00	45.44	131.6	139.5	15.23	0.363	0.293	0.188
580.0	48.76	50.94	39.18	23.87	21.35	25.19	25.52	34.22	96.70	80.70	36.30	40.93	103.2	974.9	1003	34.34	9.903	8.865	8.016	6.911	7.423	7.014	7.593	7.083	6.928	7.290	7.316	7.471	7.135	7.074	6.755	6.046	5.043	4.926	4.500	3.816	3.699	2.736	2.768	2.725	2.345	2.144	1.911	1.827	1.777	1.626	1.587	1.407	1.404	1.330	1.009	1.343	1.940	1.830	1.211	0.809	0.771	0.680	0.601	0.677	0.736	0.997	1.040	0.607	0.494	0.487	0.542	0.609	1.787	5.000	10.49	43.59	157.0	101.9	7.066	0.304	0.157
585.0	46.58	47.64	39.05	25.06	17.51	19.89	22.23	24.78	64.62	99.97	38.45	33.45	43.25	356.5	1459	102.8	9.675	8.339	7.041	6.348	6.064	6.388	6.538	5.989	6.021	6.055	6.070	5.975	6.179	5.817	5.761	5.113	4.480	4.256	3.899	3.380	2.993	2.633	2.332	2.034	1.881	1.812	1.539	1.577	1.570	1.417	1.367	1.312	1.139	1.076	0.920	1.038	1.218	1.755	1.545	0.983	0.670	0.642	0.621	0.625	0.639	0.759	1.116	0.836	0.459	0.419	0.422	0.430	0.696	1.413	2.640	10.20	59.71	150.0	34.91	2.728	0.185
590.0	40.36	45.35	39.48	23.05	17.28	19.02	19.62	22.38	36.89	95.91	56.46	29.61	29.20	100.6	862.8	755.4	29.83	6.646	5.676	5.560	4.910	4.674	5.244	4.891	4.983	4.830	4.942	5.109	4.869	4.634	4.706	3.987	3.833	3.314	2.991	2.638	2.363	2.131	1.929	1.803	1.634	1.573	1.337	1.322	1.390	1.269	1.104	1.137	0.947	0.869	0.843	0.864	0.791	1.278	1.600	1.212	0.767	0.593	0.505	0.550	0.511	0.498	0.714	0.949	0.698	0.414	0.387	0.371	0.445	0.599	0.852	2.526	13.84	52.28	91.73	65.61	10.02
595.0	36.73	42.18	34.11	21.07	14.89	17.43	17.88	21.20	24.91	61.80	84.67	32.52	26.11	37.22	238.3	1025	231.0	6.929	4.863	4.768	3.988	3.541	4.209	4.297	3.718	3.662	3.937	3.771	3.639	3.435	3.593	3.410	2.868	2.510	2.531	2.231	1.942	1.742	1.456	1.368	1.212	1.094	1.021	1.059	1.095	1.105	0.940	0.924	0.886	0.676	0.732	0.552	0.679	0.716	1.081	1.296	1.031	0.580	0.492	0.463	0.403	0.418	0.453	0.570	0.891	0.685	0.383	0.357	0.414	0.364	0.423	0.801	3.306	11.84	24.23	76.59	83.07
600.0	39.40	42.78	30.14	19.86	17.11	16.16	17.73	19.53	23.42	42.37	92.79	40.24	26.05	24.09	66.91	658.8	632.4	15.42	4.382	3.797	3.201	3.254	2.961	3.312	3.022	3.533	3.392	3.266	2.962	2.931	2.919	2.712	2.493	2.249	2.023	1.715	1.656	1.490	1.078	1.145	1.055	0.910	0.918	0.883	0.846	0.878	0.824	0.830	0.666	0.621	0.623	0.543	0.620	0.523	0.693	1.104	1.056	0.646	0.496	0.454	0.353	0.358	0.349	0.450	0.592	0.825	0.509	0.312	0.306	0.350	0.392	0.456	0.928	2.832	5.650	24.46	89.91
605.0	36.05	38.25	29.62	20.55	16.17	14.94	19.08	22.43	27.12	38.59	87.70	61.62	31.83	24.18	28.76	249.5	915.5	64.60	3.877	3.400	2.969	2.989	2.415	2.899	2.683	2.836	2.849	2.576	2.548	2.427	2.434	2.146	2.094	1.850	1.578	1.615	1.388	1.243	1.101	1.126	0.967	0.870	0.805	0.779	0.786	0.642	0.674	0.820	0.634	0.530	0.536	0.450	0.481	0.455	0.536	0.879	1.091	0.768	0.539	0.432	0.409	0.315	0.396	0.418	0.480	0.689	0.677	0.473	0.353	0.324	0.318	0.322	0.477	0.809	1.468	5.749	33.60
610.0	33.71	35.73	34.60	21.87	17.29	16.58	21.80	27.00	33.68	41.38	68.72	89.59	44.18	29.45	26.11	74.60	601.5	448.8	13.25	2.891	2.741	2.388	2.197	2.398	2.310	2.177	2.096	2.114	2.083	2.026	2.020	1.725	1.617	1.499	1.289	1.307	1.147	1.031	0.947	0.896	0.755	0.747	0.713	0.703	0.624	0.625	0.666	0.666	0.544	0.528	0.451	0.373	0.392	0.432	0.427	0.566	0.761	0.851	0.693	0.466	0.347	0.336	0.390	0.372	0.433	0.480	0.609	0.659	0.458	0.360	0.355	0.297	0.353	0.424	0.548	1.504	7.829
615.0	35.34	44.35	40.24	26.42	14.79	18.62	23.11	29.03	34.21	42.45	55.17	89.44	60.05	32.57	26.29	30.88	180.0	678.7	73.17	3.042	2.240	2.407	1.969	1.974	2.020	1.951	1.661	1.710	1.517	1.919	1.630	1.409	1.331	1.143	1.115	0.988	0.854	0.910	0.747	0.654	0.648	0.529	0.567	0.491	0.456	0.499	0.534	0.587	0.501	0.365	0.345	0.351	0.324	0.383	0.313	0.442	0.507	0.753	0.786	0.486	0.317	0.279	0.406	0.418	0.422	0.380	0.401	0.588	0.558	0.359	0.344	0.277	0.359	0.345	0.331	0.552	1.927
620.0	35.66	40.17	34.56	23.40	17.44	17.59	23.17	28.55	33.15	40.84	49.39	73.20	73.72	34.32	24.88	20.63	55.73	475.9	360.2	6.035	2.139	1.814	1.836	1.670	1.560	1.500	1.515	1.367	1.322	1.654	1.454	1.245	1.153	1.005	0.925	1.003	0.760	0.828	0.708	0.709	0.530	0.540	0.496	0.419	0.476	0.510	0.457	0.467	0.468	0.391	0.330	0.376	0.385	0.287	0.255	0.322	0.348	0.500	0.664	0.527	0.417	0.359	0.359	0.391	0.366	0.405	0.373	0.383	0.620	0.456	0.388	0.325	0.365	0.297	0.324	0.331	0.632
625.0	35.75	35.76	34.45	23.68	16.27	17.99	22.90	26.82	31.54	40.72	43.88	57.59	81.11	38.83	26.77	18.01	24.16	195.4	589.5	35.98	2.240	2.002	1.563	1.382	1.256	1.396	1.358	1.176	1.212	1.266	1.063	1.147	0.965	1.016	0.778	0.807	0.657	0.635	0.548	0.518	0.424	0.424	0.433	0.447	0.356	0.486	0.385	0.378	0.370	0.407	0.326	0.336	0.311	0.278	0.277	0.286	0.281	0.366	0.548	0.546	0.521	0.418	0.330	0.342	0.289	0.351	0.333	0.336	0.511	0.560	0.455	0.357	0.306	0.264	0.264	0.284	0.340
630.0	34.89	39.86	32.54	24.14	15.75	18.55	22.89	26.58	32.06	38.11	41.28	48.03	70.48	50.00	25.93	17.75	16.61	54.80	420.3	276.2	6.108	1.751	1.410	1.252	1.255	1.260	1.257	1.147	1.082	1.030	1.036	0.946	0.911	0.739	0.612	0.711	0.604	0.553	0.465	0.454	0.409	0.394	0.393	0.323	0.279	0.353	0.340	0.338	0.321	0.338	0.280	0.293	0.234	0.271	0.222	0.292	0.304	0.330	0.340	0.520	0.500	0.354	0.340	0.301	0.322	0.349	0.349	0.340	0.341	0.505	0.622	0.412	0.273	0.219	0.314	0.228	0.194
635.0	31.94	40.63	32.22	24.33	17.74	17.22	19.89	23.71	30.97	35.65	41.55	46.85	54.56	61.33	29.78	18.48	15.70	19.18	125.7	477.9	52.49	1.549	1.202	1.254	1.173	0.997	0.936	0.912	0.853	0.756	0.702	0.783	0.728	0.668	0.552	0.449	0.530	0.477	0.450	0.428	0.488	0.367	0.368	0.357	0.300	0.358	0.270	0.316	0.261	0.268	0.265	0.210	0.238	0.227	0.226	0.247	0.275	0.252	0.289	0.362	0.476	0.379	0.301	0.263	0.386	0.313	0.296	0.321	0.340	0.354	0.485	0.605	0.373	0.258	0.280	0.172	0.208
640.0	32.64	44.48	36.20	23.01	18.74	16.97	20.71	23.96	31.20	35.62	40.63	43.40	45.28	59.15	35.80	18.56	15.73	11.54	33.80	372.9	224.5	3.284	1.260	1.235	1.040	0.960	0.808	0.932	0.689	0.684	0.565	0.748	0.632	0.579	0.538	0.397	0.457	0.439	0.371	0.335	0.378	0.419	0.300	0.277	0.309	0.283	0.295	0.329	0.319	0.208	0.220	0.210	0.225	0.223	0.212	0.244	0.249	0.232	0.237	0.445	0.375	0.418	0.393	0.353	0.306	0.339	0.227	0.351	0.363	0.269	0.336	0.470	0.419	0.372	0.190	0.205	0.182
645.0	34.43	44.71	37.50	23.67	20.05	17.70	21.14	24.31	28.32	35.16	40.31	42.10	41.79	51.92	41.00	18.32	15.73	9.764	10.81	164.3	396.0	18.97	1.286	1.016	0.960	1.011	0.670	0.814	0.686	0.831	0.707	0.731	0.532	0.505	0.410	0.386	0.374	0.305	0.301	0.358	0.294	0.300	0.310	0.298	0.274	0.260	0.290	0.314	0.279	0.236	0.248	0.186	0.240	0.163	0.169	0.210	0.187	0.230	0.212	0.282	0.308	0.322	0.409	0.340	0.335	0.325	0.221	0.300	0.343	0.265	0.283	0.376	0.527	0.395	0.205	0.242	0.180
650.0	39.39	50.24	39.50	26.28	18.05	17.17	20.61	21.33	26.35	34.34	39.52	38.60	39.61	40.86	44.83	20.39	15.12	8.210	5.643	49.21	404.5	64.48	1.676	1.082	0.850	0.885	0.639	0.708	0.799	0.856	0.777	0.586	0.600	0.515	0.318	0.368	0.338	0.347	0.292	0.300	0.261	0.271	0.275	0.242	0.306	0.282	0.261	0.287	0.251	0.243	0.173	0.193	0.148	0.167	0.169	0.208	0.171	0.253	0.218	0.234	0.286	0.313	0.442	0.246	0.331	0.250	0.319	0.297	0.278	0.289	0.273	0.268	0.341	0.355	0.275	0.209	0.173
