Sample:	'1
File name:	w01004汇泽实业原水.FD3
Run date:	'15:02:40, 04/11/2024
Operator:	Administrator
Comment:	'

Instrument
Model:	F-2700 FL Spectrophotometer
Serial number:	23B8-004
ROM Version:	4J14000 07

Instrument parameters
Measurement type:	3-D scan
Data mode:	Fluorescence
EX  Start WL:	220.0 nm
EX  End WL:	600.0 nm
EX Sampling interval:	5.0 nm
EM  Start WL:	230.0 nm
EM  End WL:	650.0 nm
EM Sampling interval:	5.0 nm
Scan speed:	12000 nm/min
EX Slit:	5.0 nm
EM Slit:	5.0 nm
PMT Voltage:	700 V
Response:	Auto 
Corrected spectra:	Off
Contour interval:	50.000

Peak integration
Integration method:	Rectangular
Sensitivity:	1
Threshold:	1.000

Peaks
No.	ApexEX/EM(nm)	Height(Data)
1	225.0/330.0	5516
2	225.0/625.0	228.1
3	225.0/640.0	231.5
4	255.0/560.0	111.9
5	275.0/615.0	236.9
6	280.0/325.0	5268
7	280.0/620.0	237.2
8	430.0/505.0	49.66
9	440.0/515.0	40.93
10	445.0/525.0	35.61
11	455.0/335.0	21.70
12	535.0/270.0	313.7
13	565.0/325.0	26.15

Data points
	220.0	225.0	230.0	235.0	240.0	245.0	250.0	255.0	260.0	265.0	270.0	275.0	280.0	285.0	290.0	295.0	300.0	305.0	310.0	315.0	320.0	325.0	330.0	335.0	340.0	345.0	350.0	355.0	360.0	365.0	370.0	375.0	380.0	385.0	390.0	395.0	400.0	405.0	410.0	415.0	420.0	425.0	430.0	435.0	440.0	445.0	450.0	455.0	460.0	465.0	470.0	475.0	480.0	485.0	490.0	495.0	500.0	505.0	510.0	515.0	520.0	525.0	530.0	535.0	540.0	545.0	550.0	555.0	560.0	565.0	570.0	575.0	580.0	585.0	590.0	595.0	600.0
230.0	111.5	6322	9999.9	9152	227.7	28.97	25.26	20.35	16.55	15.30	14.72	15.21	14.02	12.59	10.46	9.443	8.604	8.528	7.952	6.921	6.138	5.959	5.575	5.358	5.257	4.917	4.490	4.163	4.191	4.047	4.048	3.771	3.807	3.668	3.382	3.064	2.776	2.617	2.388	2.386	2.205	2.275	2.140	2.171	2.026	2.124	7.880	45.03	88.52	70.09	22.89	4.907	1.583	1.387	1.238	1.279	1.138	1.079	1.010	1.010	0.884	0.864	0.889	0.813	0.782	0.762	0.683	0.610	0.617	0.526	0.558	0.503	0.496	0.425	0.480	0.415	0.473
235.0	133.6	1598	8502	9999.9	4837	324.0	37.56	26.09	22.97	19.40	17.00	16.63	14.29	13.27	11.35	9.575	9.646	8.792	8.169	7.402	6.885	6.303	5.722	5.249	5.685	5.140	4.983	4.609	4.354	4.126	3.880	3.888	3.824	3.785	3.423	2.997	2.943	2.775	2.324	2.390	2.083	2.071	2.306	2.181	2.229	2.140	3.283	11.88	30.01	54.59	84.89	102.3	25.17	10.26	1.738	1.407	1.261	1.283	1.207	1.065	0.902	1.053	0.844	0.827	0.835	0.798	0.784	0.670	0.653	0.663	0.604	0.508	0.567	0.395	0.519	0.490	0.440
240.0	145.3	471.3	2354	9999.9	9999.9	4067	227.4	38.43	29.03	24.00	21.56	18.07	17.58	14.59	13.05	10.82	10.02	9.234	8.389	8.099	7.624	6.801	5.809	6.063	5.733	5.616	4.691	4.882	4.662	4.191	3.813	4.012	3.705	3.547	3.523	3.279	3.045	2.714	2.560	2.574	2.253	2.205	2.030	2.105	2.241	2.295	2.310	3.960	8.062	15.16	39.35	108.4	143.2	112.4	22.00	6.135	1.304	1.485	1.352	1.058	0.958	1.221	0.957	0.839	0.846	0.861	0.793	0.656	0.700	0.612	0.598	0.556	0.597	0.480	0.570	0.562	0.443
245.0	127.9	261.5	627.5	3431	9999.9	9999.9	3163	127.1	39.93	30.52	25.50	21.17	20.08	16.73	14.36	11.85	10.97	9.649	9.283	8.224	7.456	6.880	6.455	5.980	5.836	5.729	5.114	4.889	5.054	4.702	4.334	4.105	3.816	3.785	3.588	3.292	3.259	3.094	2.765	2.590	2.461	2.235	2.040	2.006	2.183	2.361	2.252	2.540	3.239	4.760	10.19	32.72	86.77	162.7	173.9	31.07	17.58	3.307	1.530	1.270	0.942	1.131	0.994	0.952	0.898	0.918	0.908	0.685	0.752	0.630	0.523	0.546	0.604	0.496	0.577	0.534	0.497
250.0	94.97	155.3	306.3	880.0	3741	9999.9	9999.9	9999.9	189.8	49.62	37.94	30.31	24.41	19.79	17.23	14.34	12.39	11.11	9.835	8.826	7.498	7.447	6.647	6.752	6.665	6.276	5.674	5.420	5.326	5.014	4.614	4.521	3.738	3.761	3.611	3.485	3.256	3.168	2.599	2.716	2.319	2.470	2.283	2.196	2.091	2.175	2.194	2.389	2.402	2.682	3.664	8.628	21.25	47.73	92.60	130.8	192.5	140.2	96.98	13.35	3.173	1.322	1.170	1.115	1.072	0.983	0.925	0.799	0.741	0.686	0.697	0.615	0.664	0.564	0.568	0.557	0.518
255.0	95.92	101.7	162.7	390.8	952.7	2536	9999.9	9999.9	9999.9	238.5	64.39	45.26	31.52	27.05	21.38	17.15	14.46	12.56	11.62	10.35	8.729	7.873	6.777	7.057	6.855	6.800	6.154	5.669	6.071	5.342	5.119	4.419	4.169	3.921	3.556	3.251	3.344	3.342	2.928	2.741	2.623	2.398	2.395	2.333	2.189	2.325	2.078	2.041	2.133	2.041	2.671	3.672	6.120	11.93	21.80	31.50	62.39	140.7	288.6	250.7	33.70	18.91	2.467	1.499	1.137	1.041	1.213	0.943	0.865	0.924	0.734	0.819	0.711	0.808	0.543	0.730	0.631
260.0	103.0	92.85	101.4	221.0	414.7	674.2	3090	9999.9	9999.9	9999.9	188.0	66.84	46.05	33.53	26.96	21.14	17.34	14.55	12.93	11.03	9.722	9.000	7.963	7.522	7.124	7.397	6.414	5.825	6.124	5.729	5.184	4.831	4.363	4.056	3.799	3.179	3.458	3.275	3.263	3.132	2.695	2.504	2.508	2.500	2.483	2.374	2.146	2.109	1.971	1.889	2.043	2.742	3.450	4.424	6.070	8.559	15.48	36.08	110.9	245.1	361.2	242.2	31.18	13.52	1.807	1.321	1.442	1.088	1.044	0.844	0.908	0.901	0.816	0.755	0.656	0.706	0.759
265.0	106.3	92.09	90.89	122.1	284.2	334.2	795.4	4532	9999.9	9999.9	1941	141.3	66.18	44.70	32.58	25.75	20.57	17.61	14.62	13.34	11.22	9.959	8.903	7.955	7.752	7.611	6.802	6.595	6.328	6.268	5.628	5.501	4.716	4.213	3.964	3.520	3.358	3.234	3.387	3.176	2.834	2.844	2.701	2.516	2.583	2.558	2.385	2.110	2.108	1.651	1.774	1.965	2.625	3.045	3.119	3.511	4.965	9.704	26.68	67.02	179.2	362.4	445.3	219.8	25.58	6.722	1.759	1.460	1.250	1.055	1.032	0.995	0.931	0.957	0.854	0.774	0.814
270.0	151.5	120.1	100.7	92.76	157.5	286.9	394.2	1153	5302	9999.9	9999.9	9999.9	556.6	76.34	49.87	36.55	27.80	22.62	18.43	15.30	13.21	11.73	9.881	9.107	8.546	8.283	7.628	7.196	7.143	6.667	6.167	5.921	5.128	4.804	4.571	4.088	3.979	3.606	3.434	3.311	3.283	3.186	2.907	2.970	2.841	2.699	2.359	2.273	1.970	1.850	1.908	1.850	2.111	2.446	2.572	2.982	3.305	4.064	7.573	16.56	42.34	98.68	199.7	313.7	303.2	300.0	141.2	17.68	7.096	1.633	1.341	1.284	1.159	1.146	0.999	0.962	0.901
275.0	264.4	198.3	129.4	101.5	107.5	164.0	354.9	520.9	1341	2806	9999.9	9999.9	9999.9	163.8	85.00	55.24	38.92	30.31	24.07	19.07	15.58	14.47	12.48	10.63	10.06	9.517	8.763	8.154	7.664	7.133	6.631	6.658	5.946	5.651	5.266	4.945	4.408	3.939	3.991	3.960	3.875	3.654	3.595	3.571	3.158	2.873	2.797	2.616	2.265	2.081	2.016	1.976	2.031	2.181	2.104	2.290	2.961	3.681	4.240	5.483	11.21	23.63	46.54	72.43	87.50	216.2	490.0	633.6	243.0	27.43	7.137	1.984	1.594	1.584	1.272	1.212	1.110
280.0	400.6	282.9	185.4	136.7	112.5	131.5	245.4	483.2	558.8	865.0	3706	9999.9	9999.9	8839	139.6	80.13	51.57	38.89	30.58	23.95	19.19	16.41	13.83	11.71	10.97	10.24	9.654	8.880	8.296	7.882	7.576	7.206	6.673	6.135	5.633	5.378	4.743	4.606	4.375	4.291	4.242	4.068	4.169	3.738	3.926	3.403	3.261	3.164	2.627	2.271	2.137	2.131	2.065	2.002	2.270	2.234	2.401	3.016	3.943	4.334	4.911	7.451	12.57	18.45	22.02	52.83	153.8	395.3	643.9	655.6	214.7	22.61	3.963	2.041	1.672	1.530	1.499
285.0	654.3	519.5	365.7	219.8	155.3	149.8	203.2	406.7	616.6	581.1	1278	5929	9999.9	9999.9	6413	120.2	76.14	51.32	38.57	29.12	22.98	19.62	15.41	14.35	12.01	11.55	10.84	9.459	8.869	8.570	8.012	7.749	7.129	6.701	6.087	5.884	5.583	5.469	4.915	4.558	4.482	4.367	4.865	4.716	4.513	4.254	3.903	3.936	3.212	2.849	2.538	2.584	2.469	2.099	2.429	2.278	2.329	2.750	3.042	3.988	4.758	4.832	5.652	6.939	7.919	14.69	37.71	97.82	233.0	529.5	761.2	290.7	35.25	17.77	2.969	2.217	1.840
290.0	1188	1132	873.6	554.0	320.0	247.6	280.9	416.4	753.6	1057	1264	2380	7146	9999.9	9999.9	9999.9	370.7	82.60	56.60	41.03	30.53	24.85	20.15	17.15	14.83	13.71	12.02	11.38	10.47	9.918	9.013	8.541	7.850	7.419	7.103	7.055	6.553	6.457	5.836	5.709	5.571	5.587	6.119	5.871	6.131	6.004	6.051	6.123	5.031	4.215	3.584	3.686	3.260	2.881	2.824	2.827	2.945	3.193	3.500	3.902	4.609	5.522	6.871	6.892	7.035	8.528	14.28	27.71	57.89	131.6	256.9	369.1	563.8	516.0	431.8	128.3	14.56
295.0	1924	2005	1657	1069	590.8	409.6	448.6	620.4	966.1	1542	2080	2367	3238	3764	9999.9	9999.9	9999.9	445.0	89.28	61.63	42.88	33.44	25.88	21.69	19.28	16.80	14.84	13.24	11.75	11.46	10.45	9.665	9.047	8.334	7.924	7.995	7.973	8.110	7.259	7.282	6.775	6.928	7.056	7.618	8.220	8.584	8.490	8.598	7.722	6.254	5.110	5.141	4.246	3.783	3.558	3.561	3.923	4.080	4.338	4.863	5.421	6.456	7.832	9.351	11.21	11.17	11.99	15.53	22.03	38.07	64.96	88.82	137.1	212.3	550.2	914.1	812.9
300.0	2534	2741	2381	1511	834.2	568.5	608.2	833.6	1242	1876	2744	3083	2948	2422	4371	9999.9	9999.9	5468	292.1	83.99	58.53	42.04	31.74	26.55	23.34	19.93	17.00	14.40	14.30	12.34	11.54	10.46	9.864	9.212	9.160	8.774	8.819	8.717	8.396	8.033	7.949	7.929	8.505	9.142	9.448	10.60	10.72	11.31	10.20	7.854	6.442	6.599	5.492	4.531	4.230	4.175	4.511	4.875	5.232	5.923	6.246	7.877	9.519	11.04	13.31	14.70	15.29	15.52	16.48	19.78	24.80	28.39	37.99	53.82	144.9	386.5	839.7
305.0	3036	3405	3009	1922	1074	743.5	787.4	1065	1541	2246	3156	3899	3505	2564	2116	6393	9999.9	9999.9	4422	159.7	77.34	55.43	40.34	32.55	27.48	22.90	19.86	16.64	14.90	13.82	12.73	11.16	10.27	10.12	10.20	9.447	10.00	9.473	9.416	9.083	8.845	9.326	9.474	10.58	10.73	12.43	12.49	13.07	11.92	9.393	7.946	7.775	6.304	5.560	5.220	4.969	5.316	5.609	6.201	7.332	8.089	9.089	11.31	12.94	14.74	16.71	18.11	19.06	18.98	18.43	17.60	17.07	17.37	19.18	38.22	92.42	235.3
310.0	3467	4064	3719	2369	1341	951.8	1013	1350	1933	2708	3673	4428	4408	3272	2035	2192	7585	9999.9	9999.9	9999.9	286.4	85.81	58.49	42.78	33.80	27.96	23.86	19.99	17.92	16.09	14.83	12.61	11.89	10.95	11.26	10.27	10.75	10.83	10.28	10.36	10.18	10.58	10.97	11.77	12.66	14.11	14.41	15.59	14.50	11.69	9.619	9.032	7.673	6.593	5.990	6.164	6.584	7.018	7.584	8.576	9.993	11.30	13.19	15.29	16.89	18.42	20.35	21.67	22.54	21.75	20.19	17.24	15.06	13.77	15.52	25.94	57.09
315.0	3948	4699	4258	2718	1568	1150	1241	1650	2264	3130	4122	4869	4910	4066	2487	1454	2146	2902	9999.9	9999.9	9999.9	343.4	90.57	61.43	45.53	36.05	28.23	24.59	21.98	19.07	17.06	14.73	13.92	12.45	12.62	11.60	12.00	11.92	11.66	10.91	11.15	11.49	12.36	13.15	14.18	16.33	16.67	18.26	16.85	13.54	10.69	10.68	8.543	7.421	7.137	6.844	7.540	8.158	9.107	10.30	11.64	13.18	15.30	16.91	19.16	20.65	22.55	23.34	24.19	24.58	22.88	21.36	17.56	14.44	12.09	12.18	18.15
320.0	4208	5142	4707	2948	1677	1286	1385	1826	2494	3392	4386	5106	5134	4356	2919	1446	993.3	940.2	3833	9999.9	9999.9	4120	235.1	84.31	60.59	43.85	33.85	28.75	24.81	22.04	19.46	16.60	15.13	13.98	13.24	12.33	12.94	13.14	12.30	12.02	11.92	12.79	13.06	14.40	15.48	17.85	18.69	20.12	18.27	14.93	11.70	11.41	9.150	8.398	7.781	7.755	8.493	9.449	9.888	11.03	12.66	14.81	16.30	18.30	20.08	21.03	23.35	24.28	25.26	25.09	24.58	22.39	19.62	16.91	12.48	10.37	9.755
325.0	4495	5401	5050	3117	1749	1361	1490	1938	2637	3521	4516	5218	5268	4442	3177	1634	792.8	517.7	1091	6350	9999.9	9999.9	3482	146.0	80.17	57.58	41.89	33.28	27.80	24.70	21.25	17.67	15.98	15.50	13.18	12.95	13.22	13.36	12.74	12.47	12.45	13.22	14.02	14.73	16.28	18.80	19.65	21.40	18.57	15.41	12.02	11.80	9.567	8.669	8.143	8.041	9.068	9.699	10.35	11.73	12.96	15.03	17.02	19.28	20.74	22.20	24.30	24.90	26.09	26.15	24.49	22.50	19.87	18.25	14.58	10.77	8.708
330.0	4405	5516	5092	3197	1819	1415	1559	2005	2702	3535	4508	5174	5232	4432	3181	1835	909.6	471.9	478.7	1624	7810	9999.9	9999.9	9999.9	248.2	84.53	59.72	44.02	35.39	29.49	25.31	20.56	18.22	16.53	14.80	14.21	13.88	13.97	13.46	12.88	13.03	13.35	14.34	15.21	16.76	18.93	19.83	21.48	19.56	16.03	12.85	12.06	10.02	9.222	8.662	8.732	9.407	10.30	10.77	12.09	13.69	15.50	17.23	19.09	21.31	22.24	23.88	25.00	25.81	25.81	24.82	22.75	20.00	18.64	14.99	12.16	9.754
335.0	4406	5355	5044	3169	1807	1449	1581	2001	2660	3434	4341	4960	5033	4309	3110	1789	1059	575.1	374.8	559.6	1912	2864	9999.9	9999.9	9999.9	299.7	86.32	60.42	47.42	37.23	30.43	25.59	21.26	19.20	17.44	15.78	14.77	14.59	14.26	13.76	13.75	14.01	14.45	15.45	17.01	19.46	19.98	21.70	19.97	15.96	12.82	12.47	10.98	9.532	9.080	9.101	9.685	10.89	11.05	12.41	13.85	15.16	16.77	19.46	21.33	22.05	23.67	24.42	24.53	24.96	24.80	22.50	19.89	17.92	14.41	11.51	9.709
340.0	4129	5021	4771	3018	1781	1408	1531	1948	2557	3279	4080	4665	4728	4092	3008	1728	1016	696.8	401.8	339.1	600.4	807.6	4192	9999.9	9999.9	9999.9	212.6	79.37	58.66	45.06	35.03	27.49	23.39	20.81	18.54	16.44	15.32	14.99	14.09	13.42	13.59	13.83	14.70	15.43	16.77	18.75	19.75	20.99	19.27	15.43	12.39	11.95	10.51	9.773	9.261	9.181	9.829	10.43	11.41	12.34	13.34	14.88	16.20	17.59	19.79	21.31	22.53	22.84	23.40	23.42	23.42	21.49	19.72	17.93	14.04	11.65	9.020
345.0	3778	4677	4368	2827	1695	1348	1448	1830	2374	3038	3769	4291	4372	3802	2814	1657	946.0	707.7	499.3	312.0	317.3	338.1	1099	7151	9999.9	9999.9	3136	128.2	72.92	53.83	40.01	30.70	25.76	21.86	18.98	16.88	15.51	15.10	13.48	12.90	12.85	13.37	14.58	14.41	15.84	17.30	18.19	20.03	18.35	14.26	11.77	11.18	9.686	9.053	8.452	8.752	9.235	9.869	10.59	11.54	12.52	14.02	15.27	16.61	18.07	19.19	20.31	21.65	21.98	21.23	21.58	20.12	18.23	17.31	13.71	11.17	9.020
350.0	3386	4102	3808	2496	1554	1245	1338	1664	2130	2690	3297	3752	3818	3358	2529	1529	900.6	633.9	547.0	409.4	283.9	244.8	393.0	1751	8572	9999.9	9999.9	9999.9	223.9	73.01	53.18	39.16	29.44	24.39	20.53	17.91	15.92	15.46	13.99	12.77	12.55	12.59	13.01	13.62	14.79	16.05	16.46	17.91	16.15	12.93	10.60	10.21	8.783	8.165	8.000	7.811	8.656	9.100	9.603	10.54	11.55	12.49	14.13	15.02	15.93	17.11	17.90	18.63	19.53	19.44	19.30	17.70	16.53	15.27	12.66	10.36	8.530
355.0	2858	3429	3265	2174	1386	1134	1222	1474	1855	2343	2836	3193	3268	2907	2227	1396	868.4	606.2	499.8	481.5	367.9	252.8	249.7	526.3	2034	2970	9999.9	9999.9	9999.9	271.1	75.56	52.12	38.49	29.33	23.15	18.73	17.23	16.06	14.46	13.11	12.69	12.18	12.10	12.54	13.27	14.83	14.66	15.62	15.00	11.74	9.914	9.460	8.282	7.544	7.534	7.526	8.110	8.599	8.809	9.891	9.911	10.83	12.25	12.87	14.00	14.93	16.09	15.74	16.46	16.93	16.42	15.27	15.01	13.72	11.34	9.205	8.196
360.0	2535	3034	2855	1906	1265	1059	1140	1357	1661	2091	2497	2810	2859	2570	2011	1293	837.4	614.7	495.1	457.0	446.7	308.4	232.8	259.8	577.2	789.1	4478	9999.9	9999.9	9999.9	199.1	69.56	49.21	35.86	26.87	21.04	18.71	16.87	14.90	13.62	12.63	12.48	11.72	12.20	12.46	14.10	13.41	14.61	13.34	10.95	9.082	9.172	7.798	7.133	7.177	7.058	7.668	7.981	8.192	9.097	9.574	10.06	11.22	11.69	13.04	13.45	13.89	14.17	15.03	14.66	15.04	14.07	13.06	12.67	10.49	8.812	7.485
365.0	2248	2697	2505	1711	1179	1010	1056	1247	1507	1852	2218	2478	2551	2287	1825	1209	821.3	621.3	507.6	441.7	452.7	392.4	258.3	214.6	257.4	297.1	1135	8117	9999.9	9999.9	2968	121.4	62.95	44.80	32.92	24.67	20.84	18.12	15.67	14.10	13.05	12.67	11.82	11.92	12.28	13.16	12.53	13.25	12.54	10.10	8.519	8.833	7.577	7.326	6.943	6.710	7.472	7.613	7.560	8.209	8.937	9.353	10.44	10.76	11.86	12.51	12.50	13.03	13.78	13.38	13.25	13.11	12.12	11.00	9.582	8.536	7.272
370.0	1949	2331	2158	1514	1086	947.0	974.7	1108	1329	1610	1904	2128	2188	1976	1604	1111	800.5	632.6	540.3	465.4	428.9	430.3	355.1	242.4	205.1	190.9	365.6	1953	8957	9999.9	9999.9	9999.9	200.7	66.02	45.19	32.49	25.13	20.87	17.73	15.23	13.75	13.35	12.74	12.03	12.16	12.13	11.70	12.50	11.38	9.402	7.850	8.309	7.661	7.040	6.597	6.656	6.929	7.113	7.122	7.595	8.203	8.397	9.401	9.981	10.08	10.82	11.07	11.39	11.92	12.09	11.78	11.30	10.89	10.16	8.738	8.132	7.045
375.0	1742	1937	1863	1358	1016	900.5	907.5	987.8	1177	1373	1627	1814	1860	1703	1410	1025	783.9	650.9	564.0	503.0	444.4	416.8	414.4	334.1	224.3	184.1	200.0	542.6	2104	3192	9999.9	9999.9	9999.9	244.0	66.09	43.79	33.29	25.19	20.39	17.55	15.10	14.34	13.37	12.29	11.96	12.16	11.24	11.99	10.76	8.826	7.774	7.978	7.482	6.840	6.777	6.370	6.493	6.929	6.880	7.049	7.466	7.737	8.383	9.205	9.182	9.478	9.702	9.962	10.41	10.70	10.37	9.819	10.25	9.569	8.256	7.329	6.693
380.0	1539	1741	1658	1253	986.9	869.4	865.8	921.9	1058	1227	1446	1597	1656	1526	1287	979.3	773.8	663.6	589.0	524.6	472.0	423.5	402.9	393.0	273.5	200.1	172.5	231.9	572.8	831.2	4893	9999.9	9999.9	9999.9	167.1	57.59	42.38	31.63	23.60	19.59	16.50	15.26	13.45	12.47	12.37	11.89	11.21	11.33	10.33	8.277	7.658	7.425	7.566	6.965	6.755	6.461	6.384	6.673	6.678	6.770	7.060	7.023	8.057	8.056	8.601	8.131	8.873	9.083	9.509	9.363	9.362	9.079	9.108	8.933	7.733	6.928	7.042
385.0	1442	1614	1499	1172	945.1	856.5	828.5	857.4	975.9	1123	1284	1433	1487	1388	1202	934.7	763.7	677.9	607.3	547.4	492.7	441.6	396.7	390.0	338.3	228.4	179.8	169.4	232.9	286.3	1218	8752	9999.9	9999.9	2455	96.21	52.34	38.41	27.57	22.35	17.81	16.01	14.39	13.19	12.30	12.36	11.05	10.89	10.02	8.062	7.424	7.538	7.395	7.029	6.444	6.609	6.534	6.499	6.731	6.353	6.787	6.765	7.382	7.724	7.681	8.260	8.274	8.287	8.786	8.623	9.024	8.577	8.173	8.045	7.455	6.862	6.646
390.0	1300	1436	1335	1093	902.5	832.6	802.6	796.8	872.7	994.7	1123	1258	1309	1237	1092	893.7	758.5	683.5	624.0	568.6	514.8	463.8	413.5	375.8	361.1	303.5	216.3	173.0	166.5	166.1	367.2	2080	8450	9999.9	9999.9	9682	168.9	52.91	37.07	28.02	21.58	17.87	15.85	14.12	12.67	12.56	11.13	10.92	9.767	8.228	7.308	7.660	7.348	6.844	6.814	6.339	6.695	6.503	6.528	6.250	6.510	6.322	6.966	7.011	7.292	7.439	7.429	7.495	7.848	7.787	7.887	7.527	7.774	7.652	7.047	6.745	6.563
395.0	1160	1278	1177	1017	877.7	815.2	767.9	761.0	798.2	894.9	998.6	1103	1156	1114	1021	860.1	750.7	685.3	641.1	583.5	536.9	490.0	442.4	391.6	349.6	341.5	287.7	204.9	172.3	151.8	181.9	551.7	1971	3103	9999.9	9999.9	9999.9	212.1	52.89	37.99	28.41	22.21	18.25	15.32	13.73	13.29	11.68	11.24	10.19	8.535	7.119	7.614	7.309	7.070	6.877	6.473	6.685	6.699	6.321	6.103	6.169	6.312	6.440	6.364	6.582	6.507	6.685	7.140	7.269	7.284	7.731	7.557	6.940	7.145	6.924	6.608	6.816
400.0	1063	1187	1087	983.4	866.4	784.4	753.5	734.4	759.2	830.0	931.8	1016	1072	1039	963.6	833.2	741.3	690.6	646.1	590.4	546.0	508.1	461.8	410.1	358.0	334.1	329.8	252.6	192.8	161.2	148.9	215.8	523.0	784.3	4399	9999.9	9999.9	9999.9	152.1	46.83	33.58	26.12	20.33	17.12	14.79	13.95	12.18	11.51	9.888	8.490	7.674	7.786	7.642	6.808	6.772	6.295	6.885	6.507	6.310	6.176	6.029	5.933	6.159	6.100	6.276	6.099	6.494	6.638	7.003	7.183	7.427	7.293	6.712	6.791	6.524	6.518	6.192
405.0	980.4	1089	1023	937.7	839.3	786.0	746.6	721.9	715.3	772.7	882.9	954.6	1007	979.1	914.4	809.0	732.0	687.9	642.1	593.4	557.6	520.7	478.7	427.8	376.4	336.0	328.8	309.4	226.5	179.0	153.7	149.0	203.7	255.8	1079	6689	9999.9	9999.9	2230	91.13	40.46	30.93	23.81	18.85	15.59	14.20	11.94	11.55	10.23	8.455	7.550	7.732	7.607	6.698	6.957	6.244	6.703	6.403	6.085	6.110	5.861	5.778	5.708	5.718	5.646	6.132	6.096	6.329	6.360	6.568	6.727	6.667	6.622	6.373	6.219	6.197	5.927
410.0	929.9	1022	970.2	882.1	816.3	759.2	719.7	693.7	681.7	733.8	799.9	884.9	927.8	916.6	866.7	776.6	712.0	669.4	629.3	592.5	557.3	526.8	488.0	442.1	396.5	354.4	324.0	320.4	289.7	221.3	175.4	150.5	141.4	140.2	316.5	1585	6473	9999.9	9999.9	9999.9	159.0	42.04	29.97	23.32	18.69	15.76	12.90	12.17	10.43	8.869	7.763	8.193	7.627	7.034	6.807	6.456	6.657	6.262	6.394	5.914	5.770	5.687	5.761	5.528	5.563	5.880	5.581	6.203	6.156	6.175	6.268	6.299	6.304	6.356	5.998	6.204	5.942
415.0	882.0	973.2	912.4	840.5	774.2	735.7	673.4	657.4	648.9	684.6	746.7	812.9	853.2	846.7	804.2	738.8	689.0	644.5	612.0	577.3	545.8	518.8	483.9	449.4	406.3	366.7	329.4	307.5	307.9	279.1	206.9	160.8	135.7	119.4	146.2	420.2	1508	2709	9999.9	9999.9	9999.9	209.7	39.96	29.45	22.61	18.06	14.42	13.05	10.58	9.163	7.956	8.495	7.955	7.079	7.181	6.598	6.813	6.176	6.425	6.054	5.747	5.748	5.427	5.584	5.447	5.685	5.397	5.739	5.909	5.900	5.739	5.960	6.148	6.076	6.044	5.762	5.969
420.0	827.1	886.3	871.2	799.5	742.3	687.8	650.4	630.0	616.0	647.4	710.0	754.2	792.3	792.7	759.9	701.7	652.1	621.2	589.9	562.6	534.4	507.1	477.6	445.6	406.4	369.3	336.1	306.2	295.1	295.3	236.9	170.9	138.5	115.7	107.1	160.3	395.9	668.8	3332	9999.9	9999.9	9999.9	154.5	37.69	27.00	21.54	16.49	13.52	11.27	9.480	8.025	8.795	8.099	7.241	6.971	6.839	6.979	6.600	6.205	6.137	5.608	5.604	5.631	5.418	5.640	5.614	5.408	5.165	5.393	5.708	5.551	5.734	5.751	5.776	5.608	5.535	5.666
425.0	790.6	819.9	823.4	783.9	719.8	669.0	631.6	615.1	590.4	623.6	669.7	715.2	743.5	746.8	721.2	662.1	624.0	593.4	568.9	544.6	519.5	494.1	470.0	437.7	404.5	369.9	338.8	309.4	286.1	281.0	263.0	188.2	143.1	118.6	100.6	101.4	146.4	203.5	806.7	4612	9999.9	9999.9	2202	95.10	33.14	25.27	18.52	15.54	12.00	9.813	8.565	8.896	7.982	7.737	7.093	6.711	6.739	6.297	6.212	6.234	5.653	5.678	5.400	5.058	5.411	5.184	5.410	5.153	5.434	5.445	5.380	5.648	5.401	5.506	5.366	5.394	5.184
430.0	1504	770.3	755.1	718.7	680.6	647.6	601.4	582.8	567.2	585.1	634.1	669.9	695.2	693.1	664.3	618.8	581.8	558.3	536.6	517.0	495.4	477.0	456.8	428.2	399.5	367.9	340.0	311.6	286.7	267.6	255.4	221.3	164.9	126.8	103.0	90.46	90.54	96.52	226.7	1086	4701	9999.9	9999.9	9628	148.8	34.81	24.62	19.83	14.61	11.26	9.394	9.371	8.373	7.927	7.577	7.194	7.182	6.535	6.418	6.038	5.888	5.417	5.256	5.223	5.213	5.135	5.165	5.024	5.065	4.875	5.109	5.043	5.201	5.303	5.251	5.238	4.909
435.0	4613	868.8	708.6	688.2	631.2	617.2	583.2	562.2	542.7	554.9	600.1	634.5	650.1	645.3	616.2	578.0	542.4	525.5	507.5	491.1	472.7	458.5	440.6	416.1	391.7	362.1	341.0	315.9	291.7	268.3	242.3	224.9	199.2	143.5	111.6	93.29	80.89	73.42	96.67	284.8	1092	2463	9999.9	9999.9	9999.9	211.3	34.09	25.33	18.50	14.05	10.63	10.22	9.420	8.300	8.329	7.430	7.498	6.977	6.744	6.184	6.010	5.827	5.446	5.299	5.313	5.192	4.862	5.068	5.138	4.775	4.751	4.910	4.920	5.016	5.150	4.938	4.875
440.0	7391	1527	684.1	647.7	606.8	598.0	561.1	543.2	526.3	537.1	575.8	602.8	616.2	605.6	580.4	539.5	510.3	498.8	481.6	467.2	452.0	439.2	425.3	404.4	379.3	355.2	334.5	311.8	293.3	268.8	238.6	214.7	205.0	164.3	119.8	97.14	83.06	70.15	67.06	105.0	283.4	598.7	2871	9999.9	9999.9	9999.9	150.6	33.71	22.96	16.58	12.75	11.77	9.979	8.671	8.633	7.914	7.910	7.268	6.766	6.117	5.735	5.944	5.472	5.182	5.276	4.981	4.852	4.849	4.887	4.955	4.692	4.512	4.641	4.654	4.691	4.975	4.661
445.0	7661	4898	700.3	621.1	581.7	565.2	535.4	520.8	512.4	515.4	542.9	574.7	580.7	567.7	545.4	506.0	485.8	471.5	459.6	446.9	434.6	419.9	412.2	390.2	366.6	347.9	322.5	307.4	290.8	266.8	235.7	208.3	193.2	176.4	132.9	102.2	82.98	71.40	61.81	65.13	102.5	174.2	692.8	3806	9999.9	9999.9	9550	114.5	29.52	19.56	15.18	13.24	10.74	9.292	8.752	8.119	8.032	7.702	6.525	6.459	5.922	5.446	5.497	5.195	4.979	5.001	4.817	4.601	4.706	4.662	4.586	4.449	4.586	4.498	4.132	4.420	4.494
450.0	4143	9999.9	2452	576.7	548.5	530.5	505.5	491.1	483.9	475.9	503.2	525.5	530.0	517.1	494.4	462.4	441.0	427.1	417.1	406.2	396.9	388.5	381.6	363.0	345.7	327.5	306.7	294.3	275.5	257.3	229.8	201.4	176.9	163.2	149.0	113.6	87.61	73.95	62.23	57.11	62.11	77.09	193.7	898.3	3976	9999.9	9999.9	8637	140.6	30.09	19.81	16.74	13.23	11.15	9.764	8.821	8.610	7.929	7.072	6.736	6.493	6.050	5.600	5.339	5.063	5.059	4.816	4.692	4.583	4.608	4.694	4.149	4.597	4.545	4.172	4.250	4.362
455.0	1375	8903	8225	760.0	503.3	482.0	467.4	454.6	446.4	440.7	461.0	475.6	471.4	463.6	434.1	410.5	390.7	379.9	368.5	365.3	356.0	352.8	345.3	328.4	314.9	301.0	285.6	273.1	258.3	244.2	219.1	193.2	166.1	145.1	139.7	127.3	96.04	76.92	64.26	56.78	52.31	52.88	79.12	235.7	925.1	2385	9999.9	9999.9	9999.9	173.9	27.23	21.96	16.15	13.11	11.02	9.452	8.950	8.053	7.413	6.872	6.224	5.901	5.465	5.500	4.967	4.563	4.738	4.495	4.481	4.196	4.453	4.280	4.318	4.219	3.932	4.220	4.028
460.0	655.2	4698	9999.9	2607	474.7	458.3	444.1	424.7	411.2	419.4	432.6	438.4	433.0	418.4	397.4	370.9	355.2	345.2	338.2	334.6	325.1	322.9	319.8	305.4	293.4	280.6	266.9	253.3	245.1	230.3	209.8	184.5	159.2	138.8	126.7	124.6	107.5	79.60	65.82	57.35	51.64	47.98	52.35	85.76	240.7	572.8	2545	9999.9	9999.9	9999.9	137.7	30.14	20.11	15.54	12.77	10.40	9.590	8.689	7.675	7.176	6.278	6.333	5.390	5.394	4.680	4.692	4.666	4.381	4.419	4.280	3.977	3.949	4.078	3.864	3.753	4.293	4.128
465.0	477.0	1758	9999.9	6379	514.4	419.0	417.7	396.7	390.6	388.5	399.3	405.0	396.6	388.0	362.1	340.1	324.3	317.9	314.5	305.5	302.0	298.5	292.2	282.5	273.7	259.0	248.1	237.4	228.1	216.2	200.8	177.6	153.4	134.6	120.1	114.9	111.1	85.74	66.21	57.81	51.58	47.20	44.64	51.22	84.87	162.0	608.2	3028	9999.9	9999.9	9229	123.5	27.56	19.35	15.69	12.63	10.86	9.240	8.401	7.485	6.786	6.529	5.865	5.492	5.093	4.752	4.748	4.658	4.404	4.234	4.364	4.312	4.253	3.835	4.190	3.834	3.709
470.0	430.3	728.3	5592	9999.9	2899	390.4	375.9	363.1	352.8	356.2	359.8	365.4	356.5	344.6	317.0	298.0	286.7	280.5	274.7	268.3	266.0	264.4	258.7	252.2	240.9	233.0	221.7	215.3	207.4	197.4	182.4	163.4	143.8	126.5	112.1	102.3	98.55	92.16	72.89	58.74	51.75	45.83	42.31	41.47	47.79	65.01	164.4	711.4	3292	9999.9	9999.9	8070	712.0	28.45	20.08	15.53	12.78	10.58	8.986	7.816	6.985	6.673	6.347	5.765	5.089	4.709	4.825	4.635	4.252	4.114	4.315	4.121	4.096	3.692	3.716	3.516	3.602
475.0	388.1	439.2	1593	9999.9	9999.9	562.8	334.8	322.1	322.3	320.8	318.3	320.6	313.9	300.8	276.9	256.6	246.4	240.7	236.9	232.2	229.7	226.3	225.3	221.2	211.4	206.9	194.9	188.7	183.4	175.4	163.2	147.3	132.6	117.1	104.0	93.15	84.71	82.91	77.75	62.10	49.83	44.14	40.42	36.91	36.18	38.82	60.17	182.0	758.3	2293	7367	9999.9	9999.9	217.9	27.74	18.24	14.60	11.86	9.445	7.963	7.198	6.401	5.785	5.075	4.841	4.704	4.429	4.324	3.871	3.843	3.692	3.655	3.527	3.238	3.361	3.252	3.089
480.0	355.5	377.0	623.7	5152	9999.9	3048	318.1	297.8	294.8	299.1	293.6	299.7	284.2	275.5	251.4	233.4	221.8	215.8	213.2	211.9	209.3	205.8	202.6	200.7	193.6	186.6	179.8	171.9	169.3	163.0	152.8	137.2	123.4	110.9	99.76	88.63	79.26	74.56	75.93	66.69	51.32	43.54	39.40	35.52	33.06	32.37	35.47	61.83	190.9	534.7	1750	9909	9999.9	9999.9	181.1	25.70	18.45	13.94	11.67	9.057	7.720	6.365	6.056	5.405	4.989	4.835	4.455	4.242	3.897	4.029	3.827	3.385	3.422	3.261	3.203	3.113	2.748
485.0	337.3	346.1	381.9	1735	9999.9	9765	394.6	287.4	279.5	273.7	276.9	277.3	263.6	252.7	227.0	215.7	200.8	200.4	195.0	193.7	192.1	187.9	186.3	184.6	176.9	173.7	166.9	160.4	159.3	152.2	146.4	129.9	117.9	106.0	95.81	84.43	77.04	69.93	69.74	68.87	57.02	45.40	39.48	35.56	32.92	30.65	28.76	34.29	62.28	138.9	413.7	2474	9999.9	9999.9	9999.9	133.8	24.03	16.05	13.00	10.27	8.349	7.308	6.715	5.820	5.067	5.102	4.898	4.229	4.251	3.579	3.810	3.555	3.292	3.296	3.061	3.164	2.899
490.0	289.3	327.3	320.1	607.0	5767	9999.9	2535	282.2	260.7	258.8	259.0	253.3	245.1	228.0	208.2	189.6	182.8	178.5	174.1	173.3	171.3	170.3	166.5	165.5	160.1	156.0	151.0	147.9	144.2	140.5	134.5	121.3	110.5	100.5	90.18	82.59	74.01	67.87	62.39	62.23	60.02	49.83	41.27	36.58	33.03	30.64	27.69	27.88	32.73	48.74	110.4	574.5	2642	9668	9999.9	8456	879.6	26.85	16.86	12.52	10.18	8.443	7.376	6.364	5.410	5.174	4.816	4.344	4.356	3.955	3.472	3.558	3.403	3.257	3.144	2.969	2.955
495.0	247.1	291.2	298.8	334.1	1558	9999.9	9999.9	418.5	244.4	242.8	242.5	232.2	221.0	205.2	186.2	168.0	161.1	157.5	153.1	151.6	151.0	149.7	147.1	148.8	142.1	137.8	135.5	132.1	131.8	128.5	122.8	112.2	102.4	93.67	85.41	78.33	70.15	65.47	60.40	56.10	55.60	54.44	44.85	38.27	33.70	31.21	28.74	26.84	25.40	28.27	41.38	145.8	608.7	2192	6193	9999.9	9999.9	255.9	28.13	16.05	11.86	9.850	7.737	6.804	5.542	5.378	4.748	4.428	4.358	3.805	3.406	3.479	3.043	2.961	2.963	2.816	2.925
500.0	222.0	250.1	292.1	260.1	531.2	5302	9999.9	2527	238.2	228.5	223.9	216.5	207.7	187.8	167.4	154.8	144.9	141.9	138.6	135.0	137.1	133.6	135.8	133.6	130.2	128.2	123.8	123.2	122.5	119.1	114.3	104.4	96.32	88.43	81.68	73.99	67.57	61.94	57.97	53.78	50.70	53.89	48.05	39.64	34.50	31.95	29.46	26.62	24.75	23.63	25.72	49.62	153.2	509.1	1457	8664	9999.9	9999.9	216.5	23.16	14.32	10.95	8.608	7.130	6.028	5.283	4.688	4.245	4.241	3.838	3.482	3.497	2.961	3.036	2.878	2.570	2.797
505.0	207.8	218.3	263.6	238.8	286.8	1720	9999.9	9999.9	292.5	218.2	212.8	207.2	192.5	174.7	152.1	140.0	132.2	130.1	126.0	123.8	123.9	122.2	122.3	121.6	118.9	118.5	113.7	112.0	114.5	111.8	106.7	98.75	91.50	83.06	75.65	70.14	64.76	60.48	55.62	51.25	48.21	48.90	49.66	42.67	35.47	32.38	29.55	27.12	24.67	22.51	21.32	27.41	50.70	131.1	347.7	2096	9999.9	9999.9	9999.9	37.32	19.21	12.72	9.486	7.835	6.497	5.455	4.771	4.408	4.023	3.758	3.534	3.226	3.077	2.935	2.909	2.464	2.533
510.0	193.6	195.4	221.8	229.6	219.8	543.2	6073	9999.9	3229	212.9	204.0	189.4	174.4	158.1	136.3	124.9	117.2	113.2	109.0	109.9	108.2	108.0	108.8	107.5	104.5	104.7	103.3	101.0	101.9	100.3	96.96	90.27	83.39	77.00	69.76	65.20	59.64	56.67	52.16	49.24	45.31	43.37	44.06	43.83	38.73	33.14	29.52	27.01	24.44	21.69	20.88	21.58	26.25	44.43	93.76	486.5	2479	9096	9999.9	9318	895.0	22.04	12.34	9.357	7.344	6.062	5.376	4.582	4.060	3.549	3.512	3.130	2.946	2.781	2.466	2.469	2.364
515.0	165.7	175.8	175.0	202.1	197.8	252.3	1584	9999.9	9999.9	307.9	188.1	174.1	158.3	140.4	121.0	110.1	101.5	95.75	94.10	96.58	94.45	95.26	93.69	93.97	92.31	92.31	89.77	89.39	90.93	88.77	86.79	80.45	74.59	69.02	63.62	59.76	53.81	51.67	49.28	45.02	42.15	39.69	39.15	40.92	40.93	34.45	28.71	26.34	24.30	21.31	19.75	19.84	19.51	23.57	34.46	122.5	568.8	2053	4688	9999.9	9999.9	258.7	21.90	11.67	8.586	6.406	5.980	4.835	4.132	3.789	3.425	3.156	2.915	2.672	2.598	2.407	2.466
520.0	144.0	164.3	149.2	169.9	190.2	174.6	492.0	5957	9999.9	1932	181.4	165.5	147.5	128.1	110.8	98.65	91.17	87.68	86.18	86.88	85.64	83.64	82.49	84.06	82.91	82.57	80.51	80.77	82.06	81.47	80.09	74.62	68.53	63.38	58.90	54.87	50.75	47.83	45.53	42.64	39.39	37.11	35.64	37.12	38.79	35.27	28.99	26.05	23.49	21.06	19.21	18.78	17.67	17.85	20.35	39.63	140.6	473.9	1095	6598	9999.9	9999.9	217.7	17.56	10.58	7.642	6.094	5.321	4.337	3.895	3.138	3.190	2.895	2.835	2.422	2.506	2.446
525.0	136.1	148.6	134.2	148.7	181.1	160.7	227.5	1950	9999.9	9415	218.4	156.4	137.3	119.4	102.5	90.84	82.27	79.86	78.86	78.17	75.08	76.20	75.31	76.28	75.57	75.42	74.46	74.66	74.56	75.45	73.94	68.90	62.96	58.56	54.05	50.93	46.97	44.19	42.10	39.43	37.16	35.42	33.32	33.06	34.47	35.61	30.55	25.29	22.04	20.32	18.67	17.74	16.51	15.62	16.13	20.50	43.48	118.4	261.0	1579	9592	9999.9	9999.9	36.46	14.33	9.231	6.817	5.802	4.768	3.798	3.401	3.456	3.009	2.701	2.556	2.322	2.185
530.0	124.7	133.6	123.4	125.6	150.6	161.2	155.9	559.7	7170	9999.9	2886	148.6	125.3	107.8	90.63	79.79	73.25	71.63	69.55	67.61	65.52	66.32	66.86	66.53	66.50	66.43	65.46	64.63	66.17	66.59	65.25	61.24	56.88	52.66	47.92	44.98	42.51	39.99	38.31	35.97	33.94	32.33	31.26	30.09	30.07	31.46	30.91	25.54	21.42	19.00	17.29	16.68	15.16	14.31	13.97	14.29	20.07	37.04	70.05	366.1	2293	7692	9999.9	9608	878.6	17.85	9.091	6.616	5.242	4.397	3.659	3.218	2.802	2.685	2.340	2.417	2.141
535.0	123.4	121.0	108.2	101.9	116.1	153.9	139.6	222.7	1859	9999.9	9999.9	215.0	116.8	95.43	81.14	69.90	66.03	63.56	60.59	59.07	57.51	56.85	58.14	57.28	57.27	57.32	56.06	56.95	57.14	58.15	56.83	53.20	48.84	46.05	43.38	39.67	38.26	35.58	34.46	31.70	30.72	29.64	28.26	27.18	26.75	26.33	27.35	25.64	21.22	17.76	16.18	15.26	14.04	12.88	13.00	12.00	13.13	17.34	25.11	91.12	521.7	1732	3762	9999.9	9999.9	262.6	17.22	8.887	6.011	4.735	3.995	3.377	3.063	2.628	2.312	2.123	2.142
540.0	110.7	109.3	100.9	90.61	98.05	134.9	132.6	140.0	521.2	6754	9999.9	1377	112.3	90.63	76.36	64.04	58.42	53.54	55.35	53.60	51.27	51.05	51.22	51.20	50.52	49.99	51.22	49.92	51.43	52.23	50.07	47.58	44.20	41.17	38.46	36.11	34.45	32.21	30.39	28.79	28.07	26.44	26.42	24.71	24.29	23.32	23.95	24.73	20.63	17.50	15.12	13.94	12.88	12.11	11.60	11.25	11.12	11.82	13.52	29.27	125.7	396.8	869.0	4992	9999.9	9999.9	217.2	13.15	7.364	5.756	4.492	3.688	3.050	2.858	2.540	2.298	2.201
545.0	117.3	101.9	95.35	89.50	89.34	115.1	132.6	117.1	208.1	2231	9999.9	7673	122.6	84.28	71.20	58.02	52.98	49.77	48.66	47.16	45.61	45.88	46.16	46.05	45.77	43.93	46.15	45.86	46.75	47.45	45.70	43.68	39.71	36.56	34.51	32.31	31.36	28.80	27.32	26.55	25.66	24.15	23.65	22.15	22.44	20.84	21.11	21.68	20.43	17.27	14.39	12.96	11.83	11.33	10.78	10.19	9.918	9.752	10.06	14.58	36.35	97.59	204.9	1178	6874	9999.9	8590	35.36	10.09	6.634	5.056	3.863	3.295	2.835	2.607	2.274	2.235
550.0	110.2	95.87	83.14	76.93	75.21	90.20	123.2	111.1	123.7	597.4	7799	9999.9	804.9	81.42	63.71	52.18	46.10	43.34	42.39	40.47	39.65	39.34	38.57	38.88	38.30	38.79	38.28	38.43	39.55	39.70	38.86	37.74	34.32	32.08	29.66	27.62	26.32	24.81	23.61	22.89	22.23	21.22	20.66	20.09	19.60	18.79	18.24	17.82	18.15	16.66	13.77	11.65	10.66	10.21	9.550	9.173	8.911	8.670	8.300	9.413	14.50	28.78	53.59	272.1	1621	5741	9999.9	8788	862.3	15.21	6.670	4.751	3.564	3.131	2.582	2.403	2.142
555.0	99.78	91.86	72.63	62.39	67.78	68.36	94.93	110.6	96.44	209.3	1999	9999.9	9475	125.7	58.97	46.32	40.16	37.11	36.12	34.65	32.54	33.65	32.28	32.35	32.58	31.71	31.84	32.15	33.27	33.11	32.10	31.22	29.03	27.13	25.13	23.14	21.30	21.55	20.34	18.89	19.17	17.79	17.68	17.54	16.53	16.07	15.24	14.32	14.04	14.78	13.12	10.90	9.472	8.743	8.479	7.963	7.673	7.656	7.503	7.408	8.655	12.17	17.79	66.98	368.4	1290	3070	9999.9	9999.9	272.3	14.29	6.352	4.279	3.192	2.747	2.481	2.236
560.0	100.7	84.05	68.91	56.57	62.95	56.58	76.18	111.9	87.60	120.0	529.7	7775	9999.9	816.2	56.58	44.53	36.01	33.86	31.23	29.21	29.04	29.27	28.26	27.73	28.54	26.96	28.02	28.12	28.22	28.46	28.03	26.75	25.01	23.64	21.73	20.19	18.89	18.12	17.73	17.08	16.79	15.82	15.41	14.97	14.58	13.84	13.69	12.65	12.03	12.56	12.14	10.49	8.441	7.845	7.750	7.404	6.521	6.646	6.973	6.669	6.571	7.658	9.143	20.72	88.35	294.8	701.5	3786	9999.9	8674	220.2	9.274	5.394	3.624	3.084	2.705	2.264
565.0	112.8	83.08	70.94	56.45	55.36	53.17	63.52	100.3	93.14	94.43	193.3	2647	9999.9	5003	62.68	41.24	34.09	30.23	28.57	26.80	25.91	26.33	24.82	24.62	24.83	24.48	24.07	25.10	24.85	25.46	24.69	23.36	21.91	20.52	19.16	17.93	16.81	16.24	15.27	15.06	13.89	13.97	13.28	13.52	12.67	12.32	11.81	11.50	10.44	10.42	10.92	9.803	8.371	7.193	6.721	6.944	5.998	5.881	6.317	6.256	5.884	6.073	6.767	9.580	24.96	71.36	163.9	875.6	4649	9999.9	2332	34.84	7.267	4.431	3.168	2.624	2.292
570.0	109.5	91.97	74.69	59.66	49.85	50.17	54.34	78.26	104.0	92.53	120.0	699.0	8928	9999.9	536.3	42.31	32.58	27.80	25.66	23.42	22.16	22.24	21.27	20.84	20.69	21.10	20.28	21.45	20.96	20.66	20.57	19.58	18.05	17.07	15.90	15.28	14.38	13.58	13.14	12.73	12.00	11.96	11.48	11.08	11.05	10.89	10.36	9.842	8.956	8.404	8.381	8.593	7.830	6.801	6.165	6.095	5.450	5.271	5.364	5.401	5.497	5.313	5.561	6.434	9.976	20.58	41.85	201.5	1081	4173	8427	5655	751.0	12.18	4.229	3.081	2.558
575.0	133.9	111.6	83.12	67.09	51.86	49.10	51.22	63.08	106.4	106.7	114.2	250.1	2385	9999.9	6608	62.68	31.76	25.56	23.68	20.64	19.03	19.65	18.10	17.69	17.55	17.31	17.36	17.37	17.28	17.37	17.12	15.86	15.38	14.21	13.09	12.73	12.12	11.77	11.33	10.76	10.25	9.914	10.02	9.414	9.345	9.117	8.860	8.628	7.863	7.188	6.687	6.938	6.898	6.597	5.485	5.355	4.693	4.708	4.637	4.504	4.603	4.647	4.924	5.119	6.063	8.770	13.45	49.67	245.7	935.3	2299	7391	7532	267.3	10.03	3.961	2.739
580.0	141.4	125.2	108.1	79.12	55.45	46.29	50.29	57.79	98.09	127.3	119.2	163.7	643.9	8526	9999.9	427.5	31.63	25.32	21.81	18.65	17.06	16.83	16.80	16.00	15.57	15.27	15.06	14.99	15.45	15.41	15.11	13.80	13.53	12.65	11.84	11.08	10.73	10.67	9.926	9.505	8.712	8.708	8.965	8.613	8.210	8.266	7.784	7.652	6.965	6.353	5.901	5.967	6.369	6.211	5.336	4.583	4.365	4.284	4.305	4.379	4.116	4.447	4.492	4.411	4.927	5.661	6.893	15.52	59.02	213.1	521.5	2444	8477	5620	39.36	6.247	3.321
585.0	147.1	139.7	120.0	82.89	56.69	43.93	48.42	60.14	90.14	142.6	134.7	154.3	251.9	3099	9999.9	2938	35.03	25.84	21.09	17.57	16.35	15.32	15.65	14.83	14.09	14.11	14.03	13.48	13.67	14.08	13.25	12.16	12.47	11.27	10.28	9.782	9.584	9.843	8.791	8.015	8.262	7.646	7.574	7.879	7.649	7.230	6.857	6.805	6.150	5.487	5.467	5.157	5.382	5.636	5.222	4.638	4.091	3.929	3.944	3.907	3.760	4.002	4.336	3.922	3.987	4.399	5.043	7.217	16.96	51.41	121.1	560.5	3213	8197	2259	34.04	4.721
590.0	163.3	153.1	135.3	94.78	61.16	46.25	49.01	63.04	85.93	147.1	165.1	169.6	177.6	819.6	8859	9999.9	332.6	25.81	20.65	16.63	15.24	13.97	13.73	12.69	12.54	12.19	12.16	11.91	11.38	11.87	11.34	10.60	10.45	9.654	9.224	8.807	8.266	8.284	7.630	7.222	6.989	6.735	6.887	6.919	6.784	6.611	6.085	5.987	5.455	4.898	4.662	4.474	4.488	4.692	4.852	4.470	3.885	3.646	3.624	3.565	3.264	3.482	3.466	3.817	3.967	4.017	3.996	4.750	6.913	14.66	30.58	128.7	736.2	2847	5205	3902	166.7
595.0	179.0	187.4	159.2	107.3	63.64	49.45	51.45	63.16	90.60	137.3	190.0	187.0	174.2	279.9	2400	9999.9	4049	34.20	19.80	16.15	14.47	12.99	12.42	11.17	10.96	10.39	10.35	10.49	10.50	10.20	9.528	8.946	8.896	8.110	7.646	7.705	7.117	7.283	6.593	6.528	6.370	6.142	5.814	5.823	5.940	5.691	5.446	5.493	5.084	4.320	4.036	3.971	3.789	3.649	3.797	4.174	3.881	3.456	3.251	3.199	3.176	3.155	3.286	3.266	3.623	3.576	3.508	3.724	4.101	6.297	9.608	31.22	166.9	637.6	1367	4354	4772
600.0	181.2	198.7	164.2	118.1	67.87	52.00	51.53	65.59	94.89	136.4	201.2	204.5	180.8	166.1	613.6	8480	9999.9	88.07	20.26	15.56	14.32	12.51	11.26	10.85	10.37	9.595	9.017	9.000	9.301	9.491	9.050	8.411	8.151	7.419	6.798	7.093	6.709	6.085	5.980	6.044	5.771	5.531	5.289	5.391	5.338	5.163	5.204	5.117	4.572	4.085	3.653	3.583	3.650	3.187	3.413	3.996	3.835	3.328	2.872	2.992	2.975	2.831	2.797	3.044	3.180	3.473	3.137	3.463	3.152	4.067	4.719	9.437	39.57	144.8	309.5	1378	5041
605.0	188.2	205.3	175.9	117.6	69.76	52.86	55.37	67.46	98.58	136.0	197.2	224.1	195.0	149.7	204.7	3253	9999.9	682.1	22.16	16.31	14.14	12.13	10.29	10.55	9.488	8.881	8.416	8.141	8.427	8.635	8.242	7.524	7.408	7.165	6.389	6.329	5.905	5.904	5.303	5.224	5.030	5.040	4.697	4.852	4.801	4.938	4.635	4.718	4.222	3.910	3.314	3.219	3.118	2.946	3.080	3.472	3.394	2.975	2.760	2.756	2.710	2.497	2.607	2.921	2.862	3.239	3.093	3.136	2.928	3.212	3.285	4.161	10.89	34.81	71.66	314.7	1844
610.0	191.6	213.3	184.5	123.8	73.16	55.84	56.59	70.12	99.58	141.5	193.1	236.5	209.2	150.2	117.8	821.6	8388	7646	188.8	17.37	14.32	11.45	9.795	9.490	8.551	8.188	7.868	7.339	7.274	7.947	7.524	6.977	6.803	6.192	5.823	5.511	5.289	5.233	4.842	4.539	4.588	4.413	4.304	4.344	4.339	4.409	4.358	4.263	3.694	3.435	3.110	2.953	2.927	2.679	2.714	2.935	3.095	3.004	2.843	2.625	2.459	2.463	2.666	2.716	2.692	2.721	2.909	2.951	2.961	2.771	2.846	2.778	4.287	9.609	17.98	72.57	421.7
615.0	191.8	216.2	195.9	130.9	77.82	54.68	61.26	72.24	105.8	143.1	192.9	236.9	226.4	159.5	103.4	226.8	2373	9999.9	2361	21.23	14.33	11.90	9.921	8.606	8.161	7.698	7.003	7.102	6.615	6.796	6.686	6.207	5.927	5.437	5.059	5.064	4.836	4.749	4.272	4.076	4.004	3.857	3.823	3.911	4.049	3.851	3.980	3.580	3.559	3.058	2.874	2.788	2.451	2.751	2.345	2.471	2.453	2.637	2.710	2.549	2.277	2.235	2.367	2.739	2.684	2.447	2.737	2.566	2.754	2.557	2.628	2.301	2.472	3.743	5.390	17.86	95.68
620.0	193.0	219.8	197.0	129.0	76.38	53.41	61.24	77.06	102.4	142.4	191.2	233.9	237.2	166.2	102.2	92.48	581.7	7900	5441	56.08	15.58	11.60	10.15	8.573	7.585	7.016	6.860	6.502	6.323	6.041	5.774	5.582	5.343	5.339	4.628	4.693	4.575	4.364	4.200	3.919	3.579	3.693	3.625	3.804	3.649	3.602	3.694	3.494	3.257	2.876	2.788	2.532	2.231	2.450	2.217	2.359	2.310	2.409	2.386	2.433	2.257	2.079	2.308	2.529	2.337	2.467	2.611	2.479	2.772	2.544	2.373	2.313	2.080	2.224	2.537	5.355	22.78
625.0	206.5	228.1	202.8	132.8	77.51	54.57	62.61	77.64	103.9	144.6	192.6	230.8	235.9	172.2	103.5	65.63	158.7	3169	9999.9	485.6	17.23	11.86	10.06	8.536	7.516	6.705	6.829	6.432	6.027	5.688	5.415	5.278	5.059	4.881	4.421	4.250	4.079	4.102	3.839	3.853	3.544	3.474	3.455	3.340	3.593	3.442	3.410	3.473	3.146	2.800	2.463	2.198	2.246	2.202	1.995	2.116	2.053	2.218	2.342	2.393	1.949	2.032	2.083	2.229	2.244	2.241	2.470	2.476	2.399	2.425	2.303	2.192	2.110	1.920	1.774	2.437	6.452
630.0	199.2	224.2	201.1	134.7	77.18	60.21	61.04	79.10	107.3	145.7	191.6	223.0	232.9	184.6	110.1	60.03	60.95	789.7	7719	5549	46.20	12.75	10.36	8.604	7.466	6.337	6.132	5.986	5.833	5.476	4.950	4.929	4.695	4.314	4.190	3.992	4.005	3.910	3.446	3.541	3.312	3.216	2.998	3.041	3.302	3.258	3.258	3.252	2.811	2.767	2.320	2.138	2.201	1.997	2.096	2.066	1.986	2.031	2.057	2.256	2.023	2.137	2.067	2.110	2.209	2.239	2.445	2.281	2.239	2.189	2.164	2.106	1.876	1.733	1.430	1.611	2.563
635.0	197.7	224.4	205.9	128.1	81.17	57.94	61.43	81.16	109.1	144.7	191.0	221.6	221.8	190.7	115.8	61.27	39.16	195.7	2253	9640	539.0	15.71	10.87	8.616	7.058	6.714	6.112	5.461	5.535	5.258	4.562	4.242	4.397	3.889	4.139	3.609	3.548	3.658	3.342	3.207	3.245	3.003	2.672	2.893	2.842	3.061	2.974	2.837	2.769	2.417	2.189	2.008	1.756	1.969	1.728	1.878	1.937	1.859	1.875	1.918	2.070	2.155	1.983	2.054	2.103	2.017	2.214	2.019	2.159	2.141	2.016	1.807	1.742	1.540	1.346	1.312	1.386
640.0	186.1	231.5	199.5	128.9	75.97	60.70	65.63	78.92	108.7	145.3	186.1	216.6	214.8	189.3	124.2	64.08	34.81	61.13	547.2	7293	4071	39.66	11.40	9.240	7.519	6.507	5.832	5.609	5.370	4.931	4.844	4.193	4.255	3.848	3.942	3.525	3.707	3.260	3.077	3.087	3.095	3.125	2.550	2.573	2.593	2.985	2.706	2.743	2.726	2.372	2.133	2.008	1.827	1.956	1.626	1.828	1.825	1.695	1.880	1.828	1.819	1.997	1.952	2.065	1.990	1.883	2.181	2.036	1.896	2.148	1.806	1.606	1.711	1.444	1.264	1.201	1.125
645.0	182.6	230.4	200.4	133.2	74.09	61.74	64.81	81.35	103.1	144.9	179.2	207.4	209.5	182.1	127.1	62.54	32.33	29.95	140.2	3095	8428	353.0	12.95	9.301	7.717	6.517	5.992	5.539	5.202	4.699	4.747	4.326	4.083	3.699	3.668	3.384	3.476	3.180	2.991	2.877	2.954	3.070	2.951	2.357	2.563	2.847	2.579	2.727	2.307	2.474	2.008	1.848	1.735	1.779	1.716	1.804	1.622	1.902	1.693	1.795	1.690	1.878	1.689	1.894	2.035	1.911	1.930	2.001	1.736	1.865	1.796	1.640	1.558	1.399	1.495	1.185	1.054
650.0	197.6	214.3	189.3	128.5	75.30	58.36	62.07	78.80	106.3	135.7	174.7	201.2	207.9	172.7	127.6	63.33	33.07	21.69	46.42	851.5	8412	2436	16.84	10.07	7.805	6.729	5.618	5.191	5.194	5.119	4.782	4.200	3.751	3.611	3.628	3.220	3.051	3.077	3.000	2.696	2.812	2.694	3.132	2.569	2.626	2.725	2.611	2.564	2.387	2.312	1.937	1.721	1.740	1.608	1.597	1.743	1.531	1.679	1.649	1.719	1.661	1.733	1.695	1.769	1.916	1.947	1.799	1.971	1.831	1.886	1.856	1.687	1.586	1.499	1.462	1.001	1.051
