Sample:	'1
File name:	G2025072302—’«≈¥Â«≈ 3±∂.FD3
Run date:	'09:54:04, 07/24/2025
Operator:	Administrator
Comment:	'

Instrument
Model:	F-2700 FL Spectrophotometer
Serial number:	23B8-004
ROM Version:	4J14000 07

Instrument parameters
Measurement type:	3-D scan
Data mode:	Fluorescence
EX  Start WL:	220.0 nm
EX  End WL:	600.0 nm
EX Sampling interval:	5.0 nm
EM  Start WL:	230.0 nm
EM  End WL:	650.0 nm
EM Sampling interval:	5.0 nm
Scan speed:	12000 nm/min
EX Slit:	5.0 nm
EM Slit:	5.0 nm
PMT Voltage:	700 V
Response:	Auto 
Corrected spectra:	Off
Contour interval:	50.000

Peak integration
Integration method:	Rectangular
Sensitivity:	1
Threshold:	1.000

Peaks
No.	ApexEX/EM(nm)	Height(Data)
1	225.0/620.0	40.29
2	230.0/345.0	2523
3	230.0/625.0	36.78
4	240.0/265.0	469.6
5	245.0/270.0	456.9
6	250.0/275.0	594.7
7	250.0/545.0	259.5
8	255.0/280.0	657.0
9	255.0/560.0	191.6
10	260.0/290.0	634.0
11	260.0/570.0	136.9
12	265.0/295.0	816.9
13	265.0/585.0	124.4
14	270.0/300.0	1154
15	270.0/600.0	109.7
16	275.0/305.0	1215
17	275.0/415.0	3569
18	275.0/435.0	3444
19	275.0/610.0	98.16
20	280.0/315.0	1136
21	280.0/340.0	1310
22	280.0/625.0	82.12
23	285.0/320.0	1229
24	285.0/640.0	65.78
25	290.0/325.0	1179
26	320.0/365.0	604.7
27	330.0/375.0	543.7
28	345.0/415.0	1756
29	345.0/435.0	1734
30	440.0/520.0	30.89
31	455.0/540.0	17.38
32	475.0/345.0	7.375
33	485.0/265.0	2.211
34	505.0/275.0	3.023
35	510.0/280.0	3.638
36	510.0/445.0	8.232
37	515.0/285.0	3.768
38	530.0/290.0	3.435
39	535.0/270.0	38.57
40	540.0/295.0	4.473
41	545.0/300.0	5.358
42	550.0/305.0	5.909
43	550.0/410.0	8.624
44	555.0/415.0	8.761
45	560.0/310.0	5.185
46	570.0/315.0	5.403
47	575.0/320.0	5.569
48	585.0/325.0	5.980

Data points
	220.0	225.0	230.0	235.0	240.0	245.0	250.0	255.0	260.0	265.0	270.0	275.0	280.0	285.0	290.0	295.0	300.0	305.0	310.0	315.0	320.0	325.0	330.0	335.0	340.0	345.0	350.0	355.0	360.0	365.0	370.0	375.0	380.0	385.0	390.0	395.0	400.0	405.0	410.0	415.0	420.0	425.0	430.0	435.0	440.0	445.0	450.0	455.0	460.0	465.0	470.0	475.0	480.0	485.0	490.0	495.0	500.0	505.0	510.0	515.0	520.0	525.0	530.0	535.0	540.0	545.0	550.0	555.0	560.0	565.0	570.0	575.0	580.0	585.0	590.0	595.0	600.0
230.0	77.12	1622	3887	981.7	39.01	6.333	5.598	5.090	4.650	4.098	3.475	3.749	3.012	2.584	2.120	1.942	1.591	1.377	1.227	0.984	1.069	0.871	0.844	0.895	0.831	0.778	0.720	0.615	0.688	0.630	0.519	0.575	0.474	0.441	0.396	0.366	0.344	0.335	0.244	0.225	0.308	0.543	0.486	0.333	0.237	0.262	1.801	7.535	12.02	7.968	2.731	0.488	0.181	0.151	0.138	0.142	0.172	0.160	0.166	0.164	0.139	0.139	0.142	0.142	0.169	0.146	0.168	0.155	0.176	0.143	0.160	0.160	0.178	0.162	0.138	0.147	0.152
235.0	143.8	460.8	2406	3799	638.0	52.97	7.254	5.646	5.755	3.995	4.226	4.228	3.521	2.852	2.269	1.974	1.360	1.413	1.241	1.160	1.068	0.917	1.003	0.902	0.737	0.706	0.788	0.614	0.580	0.688	0.585	0.733	0.532	0.465	0.409	0.376	0.399	0.302	0.285	0.274	0.232	0.352	0.448	0.597	0.538	0.384	0.602	2.049	4.936	8.891	11.59	11.47	4.922	0.891	0.172	0.163	0.200	0.144	0.174	0.227	0.157	0.157	0.152	0.166	0.174	0.162	0.146	0.163	0.173	0.153	0.164	0.140	0.156	0.116	0.153	0.157	0.156
240.0	196.2	207.4	751.4	3282	4017	488.0	25.26	6.609	5.327	4.561	5.740	3.694	3.520	3.039	2.189	1.743	1.474	1.395	1.208	1.264	0.851	0.878	1.057	1.001	0.923	0.890	0.881	0.652	0.644	0.722	0.679	0.618	0.583	0.448	0.355	0.376	0.305	0.324	0.288	0.236	0.279	0.272	0.329	0.469	0.739	0.604	0.471	0.674	1.347	2.858	6.812	15.93	17.57	10.99	3.386	0.491	0.231	0.252	0.204	0.169	0.160	0.159	0.146	0.195	0.180	0.135	0.149	0.158	0.143	0.157	0.127	0.172	0.192	0.148	0.170	0.151	0.178
245.0	148.5	267.1	243.4	1181	4398	3819	354.3	13.44	5.828	5.906	5.559	4.170	3.571	2.657	2.367	1.983	1.657	1.438	1.395	1.150	0.965	0.962	0.896	0.953	0.901	0.880	0.840	0.752	0.732	0.786	0.614	0.555	0.510	0.470	0.319	0.403	0.295	0.286	0.277	0.231	0.282	0.278	0.243	0.355	0.491	0.598	0.944	0.737	0.583	0.778	1.725	5.808	14.25	21.76	19.67	9.385	2.089	0.243	0.213	0.160	0.183	0.179	0.138	0.193	0.176	0.166	0.198	0.226	0.147	0.199	0.203	0.119	0.166	0.177	0.166	0.192	0.194
250.0	66.25	189.6	310.7	366.3	1467	4075	4691	1325	64.71	8.276	6.453	5.409	4.021	3.333	2.398	2.300	1.772	1.707	1.306	1.299	1.171	1.060	1.063	0.976	0.911	0.979	0.944	0.767	0.720	0.706	0.610	0.508	0.439	0.494	0.389	0.363	0.298	0.336	0.302	0.280	0.254	0.277	0.206	0.313	0.276	0.321	0.615	0.860	1.013	0.930	0.793	1.598	3.679	7.632	14.20	19.99	24.07	17.74	9.182	2.141	0.302	0.177	0.210	0.184	0.180	0.191	0.194	0.196	0.170	0.225	0.152	0.161	0.183	0.214	0.175	0.197	0.182
255.0	33.98	64.14	235.7	402.0	426.0	1062	4028	7401	1766	54.68	9.248	6.785	5.755	4.508	3.412	2.661	1.979	1.707	1.396	1.194	1.239	1.048	1.083	0.793	0.913	0.947	0.914	0.918	0.860	0.653	0.656	0.662	0.468	0.477	0.496	0.334	0.354	0.335	0.236	0.293	0.251	0.292	0.274	0.268	0.305	0.267	0.307	0.346	0.564	1.117	1.461	1.485	1.324	1.956	3.414	5.057	10.25	23.98	36.79	27.13	12.73	2.210	0.277	0.261	0.152	0.221	0.141	0.184	0.174	0.219	0.153	0.175	0.202	0.232	0.162	0.233	0.162
260.0	31.01	30.55	94.31	353.6	381.6	296.9	1251	6489	7643	300.0	25.47	9.168	6.635	4.828	3.752	3.071	2.391	1.836	1.517	1.606	1.349	1.082	1.076	0.994	0.923	1.003	0.885	0.990	0.864	0.736	0.648	0.772	0.580	0.498	0.535	0.381	0.402	0.345	0.225	0.300	0.279	0.305	0.298	0.301	0.216	0.228	0.243	0.340	0.287	0.610	1.082	2.035	1.766	1.136	1.091	1.388	2.579	6.989	18.60	36.66	44.79	24.70	8.938	0.979	0.188	0.212	0.192	0.209	0.152	0.246	0.281	0.179	0.169	0.261	0.183	0.232	0.174
265.0	26.22	21.21	38.28	172.0	469.6	270.7	322.4	2243	8838	6730	233.1	14.04	8.781	5.327	4.409	3.069	2.635	2.134	1.778	1.546	1.329	1.117	1.220	1.069	0.957	0.939	0.688	0.899	0.904	0.912	0.761	0.687	0.633	0.502	0.522	0.472	0.333	0.295	0.294	0.253	0.243	0.317	0.341	0.274	0.259	0.262	0.243	0.244	0.231	0.350	0.409	1.043	2.009	2.211	1.302	0.719	0.848	1.835	4.600	11.78	28.95	47.15	33.04	20.42	4.343	0.383	0.244	0.247	0.265	0.185	0.267	0.178	0.155	0.227	0.215	0.204	0.197
270.0	46.62	36.56	29.03	62.81	231.1	456.9	318.3	565.0	2883	7705	8244	933.6	48.81	7.730	5.684	4.081	2.995	2.530	2.094	1.799	1.335	1.306	1.278	1.224	0.948	1.068	0.877	0.938	0.852	0.783	0.810	0.735	0.665	0.570	0.529	0.474	0.413	0.378	0.375	0.302	0.321	0.292	0.287	0.324	0.289	0.293	0.252	0.279	0.251	0.263	0.247	0.447	0.729	1.278	1.983	2.140	1.759	1.264	1.359	2.940	7.032	14.72	23.85	38.57	37.84	34.34	13.45	3.897	0.433	0.250	0.209	0.202	0.197	0.225	0.219	0.188	0.211
275.0	84.44	73.85	56.51	44.74	79.69	233.0	594.7	386.4	698.6	1967	7051	9999.9	1254	39.38	7.437	5.140	3.413	2.939	2.523	2.092	1.547	1.490	1.396	1.243	1.255	1.130	1.045	0.923	0.924	0.860	0.824	0.837	0.656	0.743	0.619	0.556	0.478	0.515	0.461	0.346	0.375	0.393	0.316	0.347	0.369	0.433	0.411	0.353	0.288	0.277	0.258	0.272	0.354	0.512	0.704	1.234	2.537	3.023	2.258	1.363	1.849	3.646	5.671	9.372	13.87	32.52	54.72	32.86	20.07	3.533	0.338	0.242	0.251	0.247	0.271	0.276	0.237
280.0	138.7	130.7	91.55	59.21	53.48	98.92	408.0	657.0	307.9	510.5	2139	9694	9395	174.5	18.16	7.482	4.847	3.506	2.596	2.080	1.908	1.469	1.222	1.250	1.464	1.223	1.102	0.997	0.914	0.857	0.782	0.894	0.763	0.904	0.771	0.677	0.621	0.497	0.462	0.425	0.436	0.446	0.385	0.549	0.441	0.597	0.602	0.449	0.431	0.337	0.280	0.342	0.319	0.363	0.443	0.560	1.195	2.448	3.638	3.112	1.384	1.244	1.643	2.508	3.604	8.674	22.33	43.05	60.54	30.76	13.33	1.494	0.287	0.301	0.277	0.274	0.231
285.0	190.6	191.1	146.3	79.65	53.66	66.21	178.8	632.8	396.2	237.5	592.6	3320	9999.9	6882	130.0	10.62	6.004	4.188	3.003	2.771	2.170	1.819	1.630	1.503	1.422	1.251	1.247	1.068	1.013	0.828	0.868	0.798	0.797	0.828	0.880	0.863	0.756	0.568	0.509	0.506	0.503	0.510	0.535	0.496	0.569	0.612	0.721	0.646	0.559	0.472	0.351	0.407	0.423	0.406	0.455	0.402	0.595	1.050	1.969	3.768	3.614	2.039	0.962	1.121	1.397	2.480	5.653	12.59	30.93	52.30	56.82	24.94	7.157	0.651	0.356	0.290	0.246
290.0	285.1	299.4	224.7	128.9	77.96	80.11	109.3	286.2	634.0	564.0	332.8	924.4	3399	8247	7270	508.1	28.32	6.238	4.269	3.155	2.350	2.036	1.842	1.571	1.509	1.342	1.258	1.182	0.994	1.030	0.867	0.828	0.802	0.965	1.057	1.015	0.937	0.781	0.645	0.660	0.627	0.667	0.643	0.565	0.725	0.822	0.842	0.943	0.759	0.654	0.489	0.483	0.514	0.499	0.468	0.423	0.587	0.699	0.955	1.641	2.441	3.300	3.435	2.544	1.417	1.433	2.170	3.605	7.771	15.01	26.56	37.78	36.42	37.87	16.50	5.808	0.747
295.0	340.3	375.0	317.5	180.0	107.7	105.6	116.7	175.6	336.7	816.9	768.6	499.1	970.4	2145	6319	7515	701.0	22.55	6.048	4.410	2.899	2.199	2.157	1.713	1.775	1.504	1.360	1.348	1.247	1.174	0.917	0.949	0.852	0.910	1.194	1.117	1.082	0.921	0.798	0.708	0.669	0.739	0.787	0.703	0.881	0.892	0.974	1.056	0.979	0.903	0.644	0.678	0.653	0.650	0.683	0.539	0.668	0.693	0.795	1.028	1.246	1.725	2.495	4.168	4.473	2.931	1.802	1.940	2.827	4.191	6.735	9.338	11.22	26.55	48.58	54.43	24.76
300.0	400.9	421.9	369.1	230.3	144.0	134.8	147.5	187.1	268.4	565.9	1154	683.2	511.9	667.3	1905	7906	6184	99.16	12.59	5.811	3.736	2.637	2.381	2.121	1.699	1.601	1.297	1.361	1.126	1.076	0.937	0.830	0.839	0.970	1.237	1.109	1.151	0.893	0.852	0.837	0.717	0.702	0.841	0.774	0.958	1.114	1.182	1.304	1.143	0.960	0.800	0.862	0.744	0.766	0.769	0.691	0.768	0.850	0.896	1.009	1.264	1.265	1.860	2.588	4.237	5.358	3.962	2.500	2.120	2.200	2.595	3.009	3.335	7.009	16.90	38.29	58.34
305.0	395.3	473.4	409.6	268.0	185.1	182.8	207.6	250.0	330.0	499.4	1012	1215	616.4	434.9	619.0	2727	8837	4736	77.86	8.350	5.116	3.375	2.686	2.431	1.882	1.507	1.533	1.297	1.277	1.162	0.977	0.939	0.990	1.083	1.193	1.284	1.247	0.929	0.937	0.913	0.772	0.815	0.848	0.926	1.144	1.210	1.240	1.221	1.368	1.040	0.993	0.947	0.867	0.844	0.854	0.906	0.905	1.107	0.960	1.370	1.367	1.389	1.654	2.370	2.979	4.363	5.909	4.930	3.433	2.455	2.228	1.828	1.936	2.634	4.865	10.38	24.10
310.0	450.3	529.5	469.9	322.4	231.9	227.5	262.6	320.2	406.5	533.7	772.1	1162	1126	587.5	412.1	796.7	2908	6245	5495	331.2	20.45	5.257	3.578	2.946	2.409	1.977	1.698	1.519	1.321	1.240	1.047	0.997	1.029	1.158	1.267	1.278	1.186	1.006	1.012	0.921	0.796	0.896	0.923	1.026	1.124	1.192	1.324	1.511	1.356	1.198	1.073	1.138	1.090	0.931	0.977	0.982	1.035	1.301	1.391	1.515	1.711	1.758	2.023	2.351	2.684	3.271	4.030	4.783	5.185	4.660	3.732	2.595	2.066	2.032	2.357	3.268	6.325
315.0	523.9	614.0	551.0	378.7	296.1	283.5	320.4	372.1	455.9	575.2	725.5	895.2	1136	1065	512.3	438.3	861.2	1631	4733	5018	487.6	17.41	5.132	3.656	2.968	2.349	1.906	1.791	1.396	1.308	1.386	1.040	1.094	1.277	1.255	1.307	1.236	1.047	1.003	0.998	0.844	0.933	0.925	1.068	1.254	1.477	1.551	1.684	1.635	1.411	1.240	1.425	1.182	1.224	1.223	1.164	1.368	1.644	1.559	1.756	1.808	1.967	2.085	2.702	2.688	3.249	3.378	3.510	3.871	4.521	5.403	4.979	3.292	2.247	2.104	2.154	2.771
320.0	656.2	823.7	711.8	492.3	385.4	345.2	380.8	426.8	501.5	636.6	772.0	893.4	980.2	1229	862.0	472.6	492.4	566.0	1416	5588	4432	71.92	9.990	4.899	3.557	2.690	2.320	1.976	1.608	1.525	1.273	1.224	1.188	1.225	1.203	1.245	1.200	1.068	1.110	0.978	0.940	0.994	1.046	1.177	1.407	1.810	1.755	2.103	2.031	1.794	1.696	1.750	1.435	1.581	1.338	1.398	1.554	1.778	1.810	2.059	2.074	2.224	2.451	2.604	3.136	3.237	3.445	3.593	3.459	4.002	4.621	5.569	5.536	4.258	2.758	2.423	2.413
325.0	847.0	1151	1084	777.0	532.8	426.8	440.8	478.0	560.8	695.4	839.9	960.5	993.1	1075	1179	686.1	487.1	382.7	481.6	1880	6185	3554	59.78	7.459	4.491	3.246	2.749	1.989	1.862	1.672	1.390	1.286	1.120	1.187	1.186	1.257	1.146	1.139	1.200	1.199	1.114	1.236	1.302	1.384	1.803	2.233	2.488	2.993	3.310	2.540	2.410	2.491	2.087	1.701	1.666	1.594	1.859	1.836	2.129	2.354	2.134	2.476	2.691	3.091	3.340	3.636	3.763	3.807	3.815	4.084	4.289	4.843	5.183	5.980	4.818	3.441	2.659
330.0	1136	1583	1725	1345	865.9	589.8	528.7	558.6	638.6	777.1	952.0	1077	1113	1071	1114	1047	700.3	436.8	344.4	597.1	1987	4419	4111	260.9	18.45	4.591	3.304	2.537	2.146	1.936	1.643	1.403	1.382	1.276	1.353	1.300	1.223	1.173	1.232	1.200	1.248	1.483	1.623	1.859	2.311	3.020	3.619	4.411	4.731	4.166	3.855	4.029	3.340	2.743	2.284	2.198	2.420	2.244	2.306	2.501	2.559	2.661	2.937	3.322	3.659	3.883	3.988	4.338	4.481	4.471	4.628	4.818	4.598	5.215	5.447	5.429	4.846
335.0	1410	1960	2234	1907	1302	864.8	661.2	656.7	728.2	861.2	1048	1189	1244	1199	1119	1065	1071	654.2	421.2	398.1	622.6	1171	3417	5154	409.1	18.31	4.891	3.576	2.595	2.315	1.952	1.727	1.486	1.410	1.534	1.394	1.410	1.167	1.147	1.320	1.377	1.599	1.850	2.135	2.828	3.934	4.561	5.548	5.942	5.419	5.390	5.937	4.942	4.469	3.460	2.833	2.741	2.755	2.739	2.909	3.094	3.046	3.617	3.579	3.886	4.500	4.292	4.609	4.769	5.078	5.024	5.179	4.970	5.207	5.259	5.032	5.632
340.0	1504	2184	2518	2159	1534	979.0	739.5	702.1	773.9	908.9	1086	1230	1310	1272	1160	1025	1079	878.1	512.2	391.5	353.2	408.9	1038	4352	3565	318.7	9.294	4.111	3.024	2.443	2.233	1.736	1.602	1.347	1.580	1.297	1.467	1.434	1.288	1.530	1.448	1.779	1.908	2.570	3.219	4.157	4.806	6.031	6.402	6.556	6.191	6.602	5.827	5.027	3.888	3.235	2.931	2.948	2.948	2.985	3.066	3.056	3.752	3.982	4.145	4.639	4.654	4.501	5.074	5.237	5.543	5.353	5.364	5.282	5.302	4.915	5.105
345.0	1517	2217	2523	2211	1576	1031	764.9	718.7	793.7	920.5	1087	1216	1281	1259	1162	1014	945.9	941.7	657.9	417.6	309.4	263.3	366.6	1398	4527	3018	51.85	6.364	3.799	2.692	2.229	1.807	1.625	1.337	1.548	1.346	1.393	1.378	1.390	1.331	1.386	1.704	1.977	2.476	3.224	3.887	4.707	6.070	6.898	6.436	6.546	7.375	5.858	5.000	4.068	3.319	3.243	3.178	3.028	3.044	3.215	3.061	3.794	3.891	4.401	4.460	4.610	4.748	4.957	5.086	5.185	5.438	5.324	5.303	5.037	5.038	4.978
350.0	1449	2070	2468	2229	1637	1088	813.3	752.5	815.3	917.1	1053	1174	1234	1218	1137	998.4	885.9	803.1	766.0	565.4	346.3	263.3	246.2	430.7	1410	3193	3095	229.3	16.17	3.816	2.633	2.061	1.661	1.499	1.523	1.340	1.407	1.366	1.310	1.243	1.474	1.715	1.987	2.363	2.910	3.882	4.605	5.710	6.584	6.235	6.615	6.956	5.997	5.236	4.218	3.550	3.439	3.262	3.292	3.165	3.228	3.302	3.675	3.861	4.134	4.219	4.529	4.544	4.902	5.090	5.121	5.166	5.112	5.057	5.078	5.004	4.723
355.0	1346	1883	2245	2101	1597	1131	854.7	786.7	846.0	925.2	1043	1125	1172	1173	1106	982.3	867.6	743.3	672.2	698.6	478.0	305.0	250.7	240.1	407.1	804.5	2228	3369	373.8	17.08	3.996	2.810	1.891	1.688	1.467	1.464	1.404	1.337	1.294	1.357	1.423	1.582	1.821	2.197	2.825	3.625	4.078	5.001	5.844	5.748	5.989	6.948	6.155	5.392	4.332	3.632	3.373	3.274	3.431	3.391	3.164	3.402	3.797	3.876	4.338	4.074	4.118	4.402	4.281	4.885	4.729	5.104	5.011	5.050	4.708	4.674	4.722
360.0	1234	1763	2080	1947	1554	1111	872.6	820.1	851.8	916.4	1009	1080	1120	1113	1047	945.6	849.5	722.9	622.1	633.9	603.4	378.5	273.3	217.6	210.7	257.7	623.0	2808	3149	301.5	9.406	3.573	2.297	1.828	1.650	1.461	1.423	1.254	1.324	1.340	1.378	1.502	1.740	2.130	2.459	3.164	3.903	4.982	5.507	5.403	5.549	6.375	6.002	5.302	4.390	3.610	3.556	3.389	3.351	3.451	3.316	3.534	3.607	3.795	3.998	3.940	4.151	4.110	4.303	4.464	4.579	4.580	5.171	4.626	4.906	4.530	4.400
365.0	1126	1582	1922	1803	1479	1115	874.1	832.4	849.6	912.1	972.8	1035	1073	1057	999.8	910.7	828.2	716.8	611.2	573.8	604.7	504.3	319.1	237.8	190.0	156.8	202.1	848.3	3314	2732	49.28	5.549	2.805	1.967	1.806	1.476	1.464	1.214	1.405	1.299	1.402	1.557	1.722	2.114	2.359	2.993	3.435	4.615	5.002	5.183	5.226	5.983	5.298	5.073	4.330	3.876	3.824	3.701	3.552	3.470	3.285	3.347	3.486	3.942	4.045	3.801	3.816	4.066	4.156	4.299	4.287	4.360	4.599	4.648	4.645	4.587	4.283
370.0	1039	1443	1682	1649	1389	1088	899.1	859.0	859.0	913.2	957.7	996.6	1007	991.6	944.6	865.5	799.9	708.7	621.1	569.2	538.0	554.9	461.7	303.1	226.1	167.6	137.7	254.7	979.9	2510	2614	686.1	15.11	3.195	2.360	1.832	1.664	1.411	1.440	1.296	1.385	1.417	1.663	1.874	2.356	2.855	3.095	4.105	4.498	4.458	4.777	5.517	5.206	4.761	4.157	3.777	3.685	3.707	3.544	3.353	3.402	3.660	3.586	3.910	3.923	3.830	3.725	3.964	3.964	4.245	4.087	4.320	4.137	4.282	4.291	4.392	4.303
375.0	919.1	1289	1535	1489	1277	1059	910.5	861.0	882.6	911.8	945.7	961.4	965.9	928.9	893.5	830.8	773.6	702.4	633.5	583.8	529.6	511.2	543.7	444.0	289.3	214.7	162.4	153.5	285.5	625.2	1705	3067	329.7	17.11	3.891	2.809	2.057	1.766	1.412	1.286	1.321	1.341	1.544	1.704	2.125	2.706	3.128	3.571	4.014	4.009	4.135	4.831	4.698	4.504	3.903	3.767	3.520	3.598	3.359	3.377	3.472	3.457	3.676	3.555	3.718	3.751	3.661	3.854	3.607	3.494	3.733	3.953	3.974	4.100	3.961	4.065	4.326
380.0	899.5	1190	1378	1384	1236	1043	923.6	870.9	880.0	904.8	936.5	937.5	938.4	898.6	865.5	803.8	746.4	690.1	639.2	595.6	543.4	503.7	514.9	537.3	380.9	262.4	202.3	159.7	155.3	203.3	478.3	2242	2626	254.7	9.909	4.662	3.103	2.106	1.473	1.426	1.279	1.261	1.430	1.681	1.937	2.499	2.716	3.392	3.795	3.651	3.942	4.658	4.539	4.647	3.908	3.793	3.601	3.620	3.311	3.301	3.518	3.303	3.429	3.598	3.660	3.521	3.467	3.689	3.583	3.606	3.569	3.669	4.056	3.921	3.889	3.725	3.891
385.0	834.5	1094	1261	1305	1196	1027	929.1	894.9	890.7	927.2	952.4	941.2	932.2	892.6	838.2	783.0	733.0	684.1	641.4	604.3	567.4	530.5	505.1	541.2	501.0	335.0	250.5	199.4	159.2	138.2	173.8	667.0	2431	2107	41.15	9.879	6.063	3.428	1.968	1.576	1.337	1.352	1.483	1.627	1.887	2.271	2.653	3.447	3.354	3.374	3.749	4.257	4.269	4.308	3.854	3.878	3.582	3.599	3.579	3.548	3.515	3.355	3.640	3.720	3.734	3.632	3.532	3.807	3.666	3.761	3.540	3.959	3.719	3.637	3.799	3.908	4.002
390.0	778.4	1038	1196	1231	1174	1074	989.0	964.8	981.3	1029	1063	1074	1051	988.6	914.6	832.0	759.3	699.7	668.5	648.4	621.7	602.0	575.3	573.0	595.8	526.8	387.1	312.2	258.9	214.0	184.2	260.0	746.9	1785	1850	512.0	23.35	10.48	4.652	2.146	1.655	1.537	1.686	1.630	1.983	2.100	2.439	3.081	3.358	3.321	3.494	4.327	4.315	4.251	3.975	3.793	3.911	3.815	3.811	3.606	3.703	3.686	3.966	3.958	4.008	3.779	3.611	4.038	3.802	3.845	3.828	3.972	3.854	3.900	4.030	3.855	3.932
395.0	740.9	976.1	1150	1216	1213	1170	1146	1163	1226	1355	1471	1509	1463	1350	1191	1026	879.5	782.3	747.1	742.9	758.1	767.0	774.1	776.9	777.9	789.1	718.1	579.1	454.4	413.7	364.9	328.7	377.4	580.5	1263	2243	282.8	33.73	12.63	4.284	2.500	1.867	1.733	1.753	2.041	2.222	2.378	3.162	3.527	3.306	3.529	4.355	4.184	4.527	4.258	4.225	4.563	3.932	4.168	4.346	4.584	4.294	4.400	4.745	4.786	4.738	4.455	4.722	5.076	4.520	4.774	4.268	4.552	4.546	4.488	4.199	4.118
400.0	765.3	944.7	1143	1227	1297	1323	1338	1437	1572	1829	2053	2061	2050	1870	1599	1320	1068	897.1	873.2	884.1	927.4	976.7	1021	1063	1068	1072	1071	942.3	799.2	724.9	637.4	544.8	423.4	429.5	570.6	1678	1978	241.2	27.46	8.241	3.379	2.203	2.011	1.891	2.016	2.623	2.292	3.412	3.547	3.581	3.750	4.541	4.516	4.824	4.559	4.776	4.996	4.742	4.985	4.672	4.695	4.963	5.427	5.751	5.808	6.070	5.666	5.992	5.847	5.808	5.832	5.728	5.714	5.519	5.100	5.019	4.811
405.0	711.9	951.7	1156	1283	1401	1495	1588	1732	2002	2394	2743	2870	2762	2483	2107	1677	1290	1064	1007	1045	1120	1210	1306	1395	1416	1411	1417	1358	1178	1065	960.2	822.8	664.4	566.9	521.3	771.4	1893	1582	169.8	14.00	5.158	2.964	2.440	2.434	2.295	2.640	2.689	3.389	3.701	3.658	4.128	4.997	5.168	5.365	5.185	5.254	5.660	5.413	5.744	5.468	5.615	6.261	6.337	6.983	7.119	7.112	7.422	7.182	7.204	7.365	7.060	7.115	6.842	6.721	6.159	6.030	5.481
410.0	703.3	951.1	1152	1317	1493	1650	1801	2037	2360	2879	3357	3537	3396	3035	2547	1989	1491	1201	1128	1181	1283	1410	1548	1674	1727	1731	1711	1664	1557	1394	1254	1091	893.8	739.8	635.3	597.3	799.4	1370	1380	157.4	14.48	4.165	2.960	2.588	2.760	2.881	3.036	3.485	3.898	3.913	4.302	5.273	5.551	5.772	5.761	5.760	6.191	6.005	6.334	6.308	6.651	7.149	7.210	7.665	8.256	8.206	8.624	8.603	8.443	8.553	8.232	8.094	7.865	7.389	6.981	6.683	6.336
415.0	694.6	895.9	1103	1303	1484	1673	1843	2067	2416	2927	3400	3569	3434	3077	2569	2003	1498	1195	1121	1181	1278	1418	1567	1688	1751	1756	1731	1663	1597	1496	1320	1142	942.4	770.3	652.9	550.2	469.5	466.5	857.2	1481	236.2	11.95	3.338	2.787	2.919	3.069	3.223	3.707	3.532	3.864	4.079	5.419	5.741	5.783	5.592	5.846	6.641	6.408	6.526	6.990	6.822	6.853	7.246	7.979	8.019	8.539	8.476	8.761	8.561	8.627	8.277	8.364	8.061	7.425	7.340	6.420	5.873
420.0	657.9	875.5	1062	1247	1455	1636	1835	2051	2339	2795	3244	3426	3260	2912	2453	1904	1434	1148	1083	1134	1230	1355	1504	1616	1680	1688	1658	1590	1501	1452	1306	1111	908.3	745.5	630.0	515.3	372.6	246.0	273.0	1042	1319	178.4	6.184	3.249	2.990	2.949	3.211	3.570	3.533	3.640	3.954	5.023	5.348	5.623	5.664	6.010	6.622	6.370	6.464	6.552	6.709	6.874	6.829	7.334	7.910	8.132	8.141	8.336	8.258	8.393	8.095	7.917	7.785	7.116	6.967	6.341	5.649
425.0	665.4	854.9	1074	1236	1476	1663	1859	2069	2332	2741	3155	3334	3178	2852	2374	1860	1398	1124	1067	1108	1196	1319	1464	1581	1635	1652	1629	1556	1461	1404	1319	1110	899.5	741.2	623.6	503.7	352.3	197.5	121.8	311.2	1159	1077	32.46	4.385	3.046	3.151	3.112	3.435	3.521	3.718	3.838	4.958	5.568	5.627	5.805	5.971	6.753	6.667	6.549	6.810	6.505	6.606	6.754	7.286	7.812	8.098	7.731	7.973	8.049	7.789	7.830	7.653	7.462	7.089	6.684	6.150	5.370
430.0	909.0	860.0	1065	1263	1517	1743	1986	2194	2446	2829	3243	3411	3264	2922	2433	1911	1429	1146	1078	1120	1207	1333	1484	1616	1687	1706	1682	1619	1525	1442	1371	1207	975.3	793.7	671.4	543.6	378.0	204.0	97.07	99.38	331.6	880.1	977.7	138.9	10.26	3.526	3.252	3.635	3.561	3.698	4.104	5.263	5.565	5.997	6.309	6.503	6.799	7.142	7.187	7.220	6.944	7.038	7.041	7.794	7.965	7.965	8.002	8.164	8.034	7.969	7.697	7.784	7.701	6.798	6.645	6.150	5.667
435.0	1791	886.5	1040	1272	1562	1854	2135	2326	2557	2902	3292	3444	3296	2967	2472	1944	1451	1163	1084	1127	1210	1331	1492	1625	1712	1734	1717	1658	1569	1483	1383	1256	1060	850.6	710.8	580.3	408.8	223.3	102.1	57.74	93.57	216.0	624.4	1206	213.4	9.867	3.756	3.814	3.753	3.923	4.213	5.421	5.686	6.240	6.742	6.749	7.440	7.472	7.969	7.580	7.859	7.667	7.713	7.576	7.522	8.222	8.076	8.009	7.716	8.119	8.071	7.974	7.259	7.052	6.645	5.928	5.870
440.0	2584	1104	1040	1271	1595	1914	2191	2362	2531	2824	3175	3289	3175	2839	2383	1871	1409	1135	1067	1089	1164	1275	1425	1552	1636	1664	1650	1602	1518	1440	1338	1202	1045	852.0	700.7	572.8	405.1	225.0	105.6	52.83	43.30	63.99	173.7	887.4	1132	158.1	6.053	4.224	3.933	3.852	4.211	5.422	5.584	6.190	6.643	7.145	7.855	7.646	8.072	7.991	7.650	7.797	7.669	7.505	7.224	7.763	7.941	7.758	7.574	7.817	7.844	7.498	6.959	6.916	6.164	6.263	5.640
445.0	2461	1874	1033	1249	1580	1886	2199	2341	2429	2612	2906	3023	2898	2613	2194	1734	1324	1077	1006	1024	1076	1174	1303	1422	1497	1526	1518	1471	1398	1326	1244	1102	952.3	807.9	661.0	534.9	377.3	215.8	105.5	53.74	35.12	32.22	51.79	263.4	1050	943.0	27.85	4.932	4.085	3.857	4.044	5.328	5.767	6.433	6.463	7.220	7.492	8.024	8.232	7.813	7.539	7.438	7.096	7.276	7.249	7.353	7.335	7.402	7.069	7.326	6.983	7.068	6.820	6.523	5.796	5.664	5.185
450.0	1616	3031	1265	1208	1536	1855	2102	2233	2230	2298	2476	2575	2465	2226	1903	1516	1180	973.0	917.0	918.5	941.3	1019	1122	1224	1287	1312	1305	1270	1214	1149	1077	957.6	817.4	701.8	602.1	478.7	337.6	196.6	102.8	57.18	37.40	28.91	28.17	71.46	301.9	800.1	882.4	123.9	9.805	4.125	3.923	5.066	5.468	6.033	6.383	7.108	7.731	7.715	8.138	7.383	7.183	6.636	6.520	6.521	6.361	6.295	6.214	6.229	6.240	6.319	6.134	6.290	5.997	5.833	5.420	5.091	4.722
455.0	864.8	2752	2667	1188	1463	1759	2009	2091	2019	2037	2136	2192	2109	1909	1644	1329	1052	880.0	825.7	818.9	826.9	876.7	963.2	1049	1103	1121	1125	1096	1049	998.6	938.4	836.0	709.0	602.6	528.0	445.1	307.9	181.9	101.2	60.70	42.23	32.02	25.46	30.53	78.78	194.2	531.7	1023	177.9	9.143	4.277	4.926	5.335	5.835	6.134	6.480	7.352	7.529	7.351	7.193	6.565	6.223	5.841	5.847	5.720	5.563	5.440	5.451	5.291	5.640	5.684	5.532	5.039	5.041	5.007	4.433	4.397
460.0	613.0	1836	3666	1422	1367	1670	1944	1980	1891	1858	1932	1976	1919	1724	1489	1218	965.0	811.2	767.3	755.4	750.0	792.0	869.7	943.6	991.4	1019	1021	997.7	954.8	912.6	858.0	765.6	646.0	548.1	474.4	416.5	301.7	174.7	99.37	63.28	45.08	35.34	27.30	23.28	30.40	53.14	143.3	711.1	896.5	129.9	6.419	5.081	5.207	5.614	5.973	6.259	7.264	7.308	7.376	6.835	6.293	5.706	5.433	5.506	5.175	5.137	4.886	4.992	4.913	4.961	4.773	5.066	4.762	4.655	4.287	4.086	3.978
465.0	549.5	1049	3506	2243	1294	1570	1835	1871	1760	1693	1778	1803	1732	1577	1355	1111	891.3	752.7	711.9	688.4	686.3	719.7	790.0	856.6	901.8	928.8	933.1	913.6	877.2	836.1	793.4	712.1	598.9	506.6	436.0	380.2	294.5	175.2	99.01	64.25	47.65	37.08	29.37	23.20	20.30	22.96	41.26	206.2	814.8	725.2	23.65	5.750	5.208	5.342	5.848	5.854	6.972	7.037	6.947	6.690	5.901	5.492	5.757	5.198	4.654	4.645	4.579	4.707	4.605	4.638	4.596	4.878	4.694	4.311	4.114	3.736	3.683
470.0	529.3	711.0	2109	3554	1566	1440	1663	1680	1570	1490	1523	1538	1479	1353	1169	966.1	776.6	663.5	624.2	604.4	596.1	618.0	674.0	732.0	771.2	794.5	798.4	784.8	753.4	723.8	686.5	614.1	524.1	442.4	380.0	322.9	257.7	173.7	101.2	64.25	48.45	37.83	31.16	24.63	19.97	17.34	19.13	53.94	230.0	577.6	626.0	117.7	10.56	5.419	5.519	5.679	6.348	6.474	6.360	6.135	5.553	4.897	4.848	4.551	3.961	4.107	4.023	4.105	4.087	4.046	3.945	4.166	3.867	3.756	3.894	3.502	3.365
475.0	516.8	598.4	1041	3040	2833	1301	1469	1467	1343	1257	1253	1271	1220	1115	965.9	806.7	658.6	565.0	533.1	511.8	495.8	508.1	556.4	600.4	636.2	646.8	651.4	647.0	620.4	599.0	568.5	510.7	439.9	370.6	317.5	268.5	208.8	154.5	106.4	67.09	48.44	39.23	31.67	25.57	21.18	17.37	15.08	20.37	57.99	137.7	333.0	692.3	173.9	11.51	5.097	5.352	5.686	5.906	5.464	5.375	4.793	4.240	4.003	3.706	3.517	3.457	3.438	3.613	3.346	3.583	3.276	3.369	3.252	3.335	3.411	2.901	3.084
480.0	471.3	556.0	702.3	1890	3848	1420	1322	1327	1186	1106	1080	1083	1038	953.3	830.5	701.1	579.3	497.9	469.0	451.5	429.2	437.8	474.5	509.8	541.7	550.1	552.7	554.8	531.0	513.9	490.0	440.7	381.2	320.6	278.5	235.1	179.3	133.1	102.7	72.31	49.39	39.52	31.80	26.08	22.13	17.83	14.52	13.47	20.20	37.03	87.22	420.1	675.6	145.7	6.937	5.106	5.296	5.267	5.107	4.588	4.428	3.774	3.725	3.248	3.218	3.333	2.893	3.169	2.966	3.029	3.185	2.869	2.893	2.972	2.789	2.664	2.669
485.0	408.6	548.6	572.9	1089	3657	2169	1201	1204	1078	972.7	943.3	949.2	906.7	828.4	725.6	616.7	515.2	450.9	418.9	406.9	376.1	384.7	415.7	449.7	470.1	477.6	479.9	482.9	462.8	448.6	429.6	390.4	336.4	284.8	246.9	209.3	160.6	115.6	91.09	76.97	52.84	39.74	32.19	26.87	23.42	19.14	15.56	12.91	12.56	14.88	25.37	118.1	545.6	608.1	27.80	6.067	5.319	4.926	4.800	4.264	4.092	3.386	3.359	3.177	2.941	2.938	2.562	2.760	2.637	2.812	2.790	2.576	2.557	2.401	2.373	2.475	2.503
490.0	354.1	529.0	523.7	700.8	2118	3483	1337	1051	936.4	830.9	806.9	802.4	765.4	705.5	619.0	525.4	442.8	387.5	365.4	348.5	326.6	328.9	353.8	383.2	397.7	405.9	410.2	408.5	395.9	385.0	365.5	331.5	286.5	246.9	213.5	182.4	142.6	102.7	77.67	70.82	59.99	44.06	33.29	27.78	23.75	19.88	17.06	14.13	12.01	10.96	12.28	32.54	149.6	414.2	542.6	122.7	12.35	4.870	4.327	3.944	3.564	3.316	2.946	2.751	2.602	2.573	2.342	2.353	2.351	2.384	2.393	2.310	2.138	2.231	2.265	2.143	2.180
495.0	287.3	452.7	527.9	556.8	1016	3031	2428	926.4	807.6	716.1	680.2	682.9	641.5	595.9	525.8	444.2	380.3	330.8	315.0	297.8	279.7	279.3	296.8	319.0	336.7	344.6	346.8	341.9	334.1	324.6	312.5	281.8	246.2	212.0	185.3	156.8	125.1	91.95	69.09	58.26	58.46	51.23	36.29	28.08	24.01	21.05	18.02	15.48	13.19	11.20	10.03	14.13	38.96	99.56	278.9	653.2	203.2	12.93	4.170	3.699	3.107	2.770	2.628	2.361	2.239	2.216	2.046	2.164	2.123	2.132	2.088	2.013	1.959	1.951	2.002	1.868	1.778
500.0	262.6	372.9	503.6	499.9	677.5	1889	3486	984.3	702.8	639.8	600.9	605.7	572.8	516.3	461.6	394.4	333.6	295.8	280.2	263.2	244.9	244.3	260.9	277.8	293.5	297.9	302.3	299.7	289.0	283.0	273.4	245.9	216.9	187.6	163.9	139.9	112.4	83.97	63.28	53.02	51.46	51.96	41.19	29.32	24.28	21.15	18.41	15.96	14.03	12.05	10.12	10.20	15.22	28.17	72.89	366.8	664.8	163.7	6.913	3.859	2.977	2.546	2.326	1.941	2.041	1.976	1.887	1.906	1.705	1.845	1.899	1.753	1.828	1.870	1.749	1.603	1.553
505.0	247.4	327.3	467.4	459.8	548.2	1058	3504	1522	625.5	555.1	524.0	523.0	498.1	462.4	406.4	347.0	291.6	264.8	246.5	231.4	216.9	214.9	227.8	243.9	257.9	261.2	261.7	260.0	256.5	248.6	239.0	217.0	191.0	167.6	146.7	124.7	101.8	76.33	59.50	49.81	43.83	46.42	44.48	32.11	24.48	21.41	18.54	16.30	14.23	12.08	10.66	9.817	9.473	12.08	22.03	99.90	464.9	588.4	30.85	4.537	3.003	2.358	2.190	2.069	1.902	1.783	1.684	1.641	1.591	1.537	1.684	1.565	1.592	1.524	1.623	1.483	1.529
510.0	207.7	268.8	383.3	457.5	461.8	643.2	2011	2851	713.0	466.8	447.2	440.0	412.2	382.8	336.7	288.5	247.2	221.3	206.7	194.1	182.0	178.2	188.4	200.6	211.3	216.8	216.6	214.4	211.0	205.3	197.7	181.9	160.6	139.7	122.9	105.5	87.52	67.70	52.66	44.98	38.88	37.88	40.03	36.17	26.46	21.08	18.06	16.26	14.29	12.60	11.00	10.00	9.015	9.079	10.55	27.37	123.1	351.5	453.9	129.3	11.10	2.508	2.017	1.914	1.704	1.618	1.554	1.382	1.416	1.459	1.579	1.349	1.384	1.335	1.323	1.316	1.265
515.0	174.6	218.9	289.0	414.0	406.3	468.0	863.4	2813	1573	390.9	367.5	359.8	335.6	308.5	271.2	236.7	204.2	181.4	170.2	160.4	148.2	146.8	154.5	163.9	169.2	175.2	173.4	171.8	171.3	168.3	159.2	146.8	131.0	114.9	101.2	87.54	73.91	58.53	46.94	39.11	35.03	32.06	31.82	34.09	29.91	21.57	17.53	15.35	13.86	12.24	10.89	10.30	8.834	8.279	7.716	11.42	31.99	83.17	194.3	488.8	201.4	11.89	2.059	1.723	1.451	1.464	1.294	1.280	1.251	1.237	1.149	1.186	1.159	1.343	1.139	1.046	1.155
520.0	143.4	189.2	228.0	352.5	411.1	387.6	525.3	1706	2676	452.8	315.5	305.2	283.9	265.9	232.7	201.5	176.0	158.6	147.0	136.8	126.2	126.7	129.9	138.9	142.4	146.9	147.2	145.8	142.8	144.1	136.7	124.8	111.1	97.75	87.62	77.50	64.20	51.42	42.70	35.89	32.22	29.46	27.41	28.38	30.89	23.73	17.46	15.21	13.88	11.87	10.69	10.41	9.049	8.092	7.296	7.404	11.92	22.48	49.41	242.3	491.0	157.9	5.940	1.557	1.448	1.238	1.170	1.135	1.255	1.222	1.091	0.988	1.057	1.117	0.997	1.017	1.049
525.0	143.6	168.2	212.0	280.6	398.9	350.0	385.7	810.5	3024	896.7	280.0	265.2	249.1	231.7	204.4	173.9	153.1	139.2	129.0	119.7	109.5	108.7	111.8	119.5	123.1	127.1	126.0	126.1	124.8	123.0	117.6	108.4	96.85	85.36	76.03	67.46	55.96	46.59	37.90	33.08	30.03	26.76	24.79	23.73	27.13	25.99	19.30	15.36	13.23	11.53	10.36	9.669	8.864	8.297	7.128	6.639	6.860	8.912	14.49	62.64	291.3	444.5	31.77	2.794	1.471	1.203	1.094	1.034	1.069	0.917	0.999	0.892	0.976	0.999	0.889	0.828	0.857
530.0	129.1	145.3	170.3	209.2	337.9	335.6	317.6	415.6	1748	2188	365.0	225.3	206.8	188.9	167.7	144.7	127.5	115.6	106.7	98.71	91.52	88.96	91.76	97.03	101.1	104.1	104.5	103.2	101.3	100.8	96.20	89.36	80.60	71.66	63.44	56.75	48.75	40.36	33.49	29.22	26.77	24.23	21.80	20.68	21.28	23.43	21.08	15.77	12.46	10.89	9.953	9.038	8.219	8.275	7.154	5.949	5.819	5.602	6.416	16.65	73.45	227.4	268.0	128.5	10.64	1.240	1.023	0.937	0.895	0.829	0.947	0.848	0.831	0.752	0.785	0.744	0.771
535.0	109.4	138.2	138.5	163.9	243.8	334.0	273.3	268.9	610.1	2378	1113	191.5	171.8	154.8	141.0	118.3	103.5	94.66	88.91	80.22	74.82	73.73	76.57	79.83	81.92	84.53	84.73	83.09	82.57	81.58	77.39	74.44	65.57	59.37	52.38	46.13	41.41	34.81	28.87	25.90	23.18	21.52	19.89	17.62	17.54	18.28	20.07	17.25	12.46	10.19	9.274	8.508	7.827	7.325	6.745	6.128	5.144	4.506	4.267	6.382	18.60	52.84	103.9	328.8	194.9	12.79	1.098	0.931	0.846	0.707	0.787	0.767	0.722	0.765	0.706	0.720	0.619
540.0	86.58	124.3	123.0	143.7	186.1	306.1	252.7	215.0	281.7	1412	2119	228.2	147.2	134.6	118.6	102.4	87.89	81.53	78.19	70.12	64.47	62.67	64.67	68.89	68.27	71.51	70.79	70.57	68.95	69.32	65.61	62.26	55.20	49.53	45.32	39.65	36.18	29.95	25.58	23.29	20.76	19.22	18.00	16.12	15.53	14.58	16.48	17.38	13.37	9.936	8.607	7.930	7.075	6.501	6.367	6.094	4.991	4.204	3.681	3.855	6.279	13.61	25.69	141.9	350.4	147.5	5.965	0.962	0.877	0.720	0.642	0.762	0.623	0.755	0.609	0.567	0.630
545.0	82.27	108.0	110.7	120.3	148.0	244.0	259.5	186.5	189.4	578.5	2510	535.4	127.6	114.2	101.2	88.01	77.51	69.38	65.88	59.85	55.82	54.10	56.22	57.99	58.92	62.46	59.95	59.39	60.33	58.52	55.92	52.92	48.06	42.93	37.94	34.69	30.74	26.36	22.18	20.31	18.62	17.35	15.71	14.52	13.77	12.92	13.10	15.19	13.85	10.21	7.961	7.323	6.407	6.145	5.479	5.779	4.730	4.064	3.517	3.111	3.376	4.873	7.143	35.00	175.3	323.6	32.74	2.649	0.873	0.653	0.651	0.666	0.683	0.568	0.539	0.570	0.484
550.0	67.40	88.49	90.38	99.64	117.9	168.2	246.9	173.7	142.1	229.4	1414	1553	164.7	93.63	82.03	70.67	62.03	56.29	52.74	48.92	45.02	43.62	44.70	45.49	47.32	49.29	47.29	46.95	47.07	47.05	45.31	42.38	38.73	34.94	31.43	28.11	25.00	22.05	18.65	17.48	16.06	14.62	13.55	12.57	11.80	11.20	10.44	10.99	12.39	10.58	7.924	6.319	5.710	5.243	4.842	4.682	4.410	3.927	3.200	2.635	2.532	2.674	3.003	8.930	42.64	140.4	206.5	116.5	11.05	0.765	0.629	0.623	0.579	0.460	0.475	0.534	0.465
555.0	57.06	80.94	77.19	85.51	86.07	110.2	190.9	181.4	112.4	123.3	433.5	1823	631.6	74.82	63.17	57.57	48.33	44.79	41.61	38.51	34.91	34.33	34.07	35.76	36.68	37.64	36.02	36.64	36.35	37.23	34.80	32.09	29.52	27.02	24.70	22.42	19.92	17.49	15.40	14.10	13.15	11.96	11.42	10.43	9.680	9.178	8.638	8.088	8.809	9.694	8.451	6.029	4.782	4.428	4.393	4.095	3.569	3.597	3.430	2.582	2.186	1.994	1.941	2.984	10.46	32.35	66.04	200.8	156.9	12.70	0.626	0.634	0.441	0.512	0.398	0.387	0.384
560.0	55.92	72.10	71.21	69.63	74.88	88.70	133.5	191.6	98.08	89.06	161.9	1101	1357	101.6	51.48	45.74	40.79	36.04	33.11	31.51	29.24	27.63	28.49	29.29	30.40	29.98	30.33	29.53	30.43	29.78	28.15	26.66	24.75	22.64	20.62	18.65	16.54	14.50	13.12	12.02	11.00	10.21	9.611	8.632	8.529	7.811	7.469	6.980	6.789	7.754	8.281	6.174	4.373	4.067	3.701	3.394	3.073	3.021	3.149	2.558	1.844	1.742	1.672	1.686	3.264	8.084	15.72	75.63	216.1	108.3	6.008	0.529	0.522	0.399	0.375	0.324	0.379
565.0	56.57	63.49	63.24	65.15	65.60	72.72	97.43	179.3	107.0	74.53	89.20	420.9	1707	186.8	45.43	38.77	34.54	30.17	27.96	26.51	24.85	22.68	23.47	24.22	24.69	25.21	24.96	24.43	24.54	24.19	22.84	21.93	20.35	19.02	17.18	15.53	13.70	12.48	11.22	10.28	9.015	8.820	8.119	7.573	7.462	6.767	6.260	5.740	5.732	5.941	7.075	6.173	4.399	3.598	3.335	3.065	2.789	2.411	2.521	2.522	1.988	1.523	1.538	1.249	1.645	2.542	4.344	18.26	93.67	194.6	33.37	2.495	0.493	0.418	0.375	0.354	0.343
570.0	50.70	54.71	57.37	52.35	53.05	56.96	69.46	123.4	136.9	68.89	66.48	145.8	1004	980.7	78.55	31.33	27.15	23.89	22.49	20.78	19.48	18.31	18.64	19.32	19.76	19.65	19.76	18.96	19.26	19.04	18.99	17.30	16.27	14.60	13.45	12.24	11.20	10.09	9.217	8.184	7.633	7.084	6.791	6.255	5.986	5.911	5.221	4.853	4.625	4.262	5.001	5.275	4.453	3.425	2.857	2.686	2.330	2.063	2.040	2.053	2.163	1.539	1.277	1.137	1.094	1.294	1.672	4.745	22.29	75.38	122.2	76.98	10.13	0.487	0.364	0.343	0.315
575.0	54.19	56.82	50.72	45.46	39.66	46.41	54.14	73.25	132.4	82.27	55.09	72.31	297.9	1222	368.5	26.63	20.80	18.55	17.56	15.96	14.85	14.45	14.50	15.43	14.97	15.38	14.83	14.80	14.89	14.97	14.37	13.51	12.72	10.86	10.84	9.579	9.012	7.991	7.465	6.534	6.205	5.706	5.337	5.091	4.806	4.693	4.392	4.127	3.626	3.492	3.608	4.074	4.350	3.664	2.498	2.199	2.147	1.834	1.705	1.704	1.642	1.586	1.342	0.967	0.968	0.848	1.011	1.684	5.520	17.34	35.07	107.4	101.0	10.43	0.460	0.328	0.271
580.0	47.01	50.33	47.88	39.39	37.25	40.15	43.78	53.48	112.7	102.8	53.02	53.36	103.9	763.3	838.7	40.71	17.67	15.78	14.32	13.52	12.87	11.84	12.37	11.68	12.74	12.21	12.02	12.27	12.39	12.06	12.26	10.90	9.974	8.931	8.831	8.184	7.168	6.681	5.948	5.330	4.947	4.795	4.426	4.234	3.922	3.882	3.804	3.417	3.311	2.912	2.880	2.870	3.679	3.533	2.662	1.973	1.804	1.592	1.448	1.436	1.432	1.509	1.486	1.037	0.965	0.723	0.831	0.944	1.801	4.349	8.385	37.63	123.8	36.10	4.643	0.397	0.335
585.0	49.26	50.28	47.84	36.18	36.09	34.80	41.49	42.79	80.70	124.4	56.33	47.70	53.77	289.4	1091	113.4	16.72	14.08	12.39	12.01	11.23	10.49	10.03	10.20	10.80	10.68	10.22	10.16	10.24	10.39	10.09	9.594	8.683	8.068	7.391	7.269	6.098	5.607	5.273	4.714	4.490	4.205	3.921	3.808	3.509	3.399	3.153	2.896	2.814	2.664	2.432	2.397	2.604	3.078	2.736	2.046	1.662	1.458	1.382	1.138	1.001	1.251	1.457	1.170	0.950	0.748	0.744	0.677	0.954	1.479	2.311	9.080	50.37	107.4	31.26	1.962	0.274
590.0	47.15	48.25	45.55	35.30	30.76	30.94	33.01	35.39	49.68	114.5	75.60	44.19	42.84	91.94	648.4	551.3	31.98	11.84	10.52	9.655	8.773	8.278	8.296	8.357	8.526	8.730	8.768	7.857	8.140	8.587	7.972	7.629	6.962	6.519	5.862	5.551	4.917	4.484	4.165	3.773	3.789	3.476	3.133	3.046	2.845	2.887	2.652	2.498	2.401	2.045	2.006	1.849	1.818	2.369	2.749	2.300	1.556	1.285	1.064	1.055	0.951	0.944	1.139	1.141	0.978	0.783	0.637	0.601	0.663	0.766	0.841	2.396	11.92	41.48	75.12	51.97	6.938
595.0	44.91	48.90	40.76	30.23	25.80	27.57	28.25	31.67	36.35	77.86	104.2	46.03	37.58	41.19	185.3	738.6	110.0	9.932	8.501	7.725	7.462	6.788	6.522	6.427	6.321	6.564	6.820	6.362	5.991	6.461	6.202	6.000	5.417	4.886	4.522	4.108	3.702	3.544	3.440	3.167	3.078	2.846	2.689	2.412	2.224	2.358	2.101	2.008	1.939	1.592	1.623	1.727	1.318	1.565	2.141	2.378	1.674	1.206	0.975	0.833	0.843	0.712	0.870	0.862	0.963	0.899	0.714	0.564	0.565	0.518	0.520	0.969	2.998	9.582	21.09	67.01	36.88
600.0	39.37	45.08	40.11	30.23	24.88	26.13	23.72	27.41	31.71	52.44	109.7	54.39	35.56	29.76	57.60	485.3	412.0	16.52	7.798	6.635	5.925	5.896	5.220	5.707	5.618	5.403	5.737	5.354	5.432	5.071	5.032	5.076	4.536	4.263	3.933	3.504	3.130	2.921	2.767	2.632	2.557	2.392	2.238	2.032	1.808	1.976	1.808	1.847	1.590	1.563	1.276	1.456	1.121	1.242	1.448	1.985	1.834	1.275	0.956	0.771	0.800	0.635	0.626	0.749	0.735	1.027	0.697	0.554	0.536	0.473	0.395	0.533	0.994	2.416	5.018	22.89	66.55
605.0	36.59	42.40	38.25	26.30	21.16	23.43	23.81	26.39	31.32	40.31	95.34	75.16	35.66	28.80	27.83	191.5	611.3	61.85	6.582	5.670	5.060	5.119	4.370	4.503	5.275	4.694	4.402	4.861	4.305	4.488	4.401	3.968	3.778	3.743	3.306	2.810	2.797	2.453	2.284	2.246	2.169	2.029	1.898	1.785	1.761	1.759	1.510	1.567	1.504	1.312	1.239	1.159	1.015	1.014	1.044	1.515	1.698	1.348	1.063	0.745	0.714	0.514	0.602	0.615	0.586	0.889	0.809	0.646	0.497	0.436	0.364	0.480	0.521	0.802	1.423	5.570	27.61
610.0	40.91	38.34	34.98	29.36	22.02	24.00	23.81	25.48	31.99	38.38	70.59	98.16	46.63	30.04	22.69	58.90	409.8	305.9	13.95	4.798	4.268	4.097	3.939	3.801	3.860	3.758	3.653	3.784	3.590	3.753	3.376	3.258	3.053	2.850	2.686	2.375	2.415	2.045	1.951	1.790	1.662	1.655	1.561	1.639	1.423	1.484	1.299	1.198	1.224	1.111	0.933	0.946	0.965	0.838	0.778	1.011	1.304	1.377	1.002	0.718	0.621	0.575	0.568	0.556	0.512	0.664	0.745	0.795	0.550	0.414	0.357	0.404	0.383	0.490	0.548	1.469	6.582
615.0	34.66	37.10	36.07	25.61	22.65	21.41	23.39	24.84	32.37	38.02	53.04	91.02	62.41	30.35	23.32	25.57	127.7	466.1	73.86	4.525	3.776	3.567	3.028	3.278	3.189	3.091	3.142	2.839	3.015	3.212	2.680	2.511	2.432	2.203	2.167	2.062	1.690	1.812	1.779	1.443	1.264	1.307	1.208	1.330	1.187	1.120	1.029	1.018	0.941	0.917	0.776	0.802	0.778	0.631	0.670	0.665	0.898	1.076	0.952	0.766	0.561	0.545	0.547	0.566	0.475	0.519	0.646	0.714	0.601	0.408	0.431	0.349	0.305	0.360	0.330	0.543	1.730
620.0	29.83	40.29	34.03	23.48	20.12	21.20	21.26	25.42	30.56	35.98	43.06	73.48	75.21	32.44	22.51	17.93	41.40	333.3	242.4	6.756	3.302	3.036	2.768	2.639	2.459	2.580	2.561	2.652	2.648	2.611	2.503	2.240	2.018	2.024	1.829	1.670	1.564	1.310	1.372	1.107	1.122	1.142	1.102	0.997	0.967	0.951	0.926	0.847	0.788	0.809	0.685	0.666	0.665	0.649	0.629	0.586	0.634	0.826	1.018	0.736	0.550	0.508	0.511	0.527	0.474	0.411	0.503	0.514	0.687	0.680	0.390	0.365	0.320	0.391	0.339	0.397	0.601
625.0	29.67	34.14	36.78	22.93	21.90	19.24	21.46	24.14	27.73	32.63	41.22	58.29	82.12	37.51	22.78	15.84	20.66	141.8	387.6	29.14	3.133	2.333	2.369	2.322	2.128	2.367	2.379	2.257	1.950	2.102	2.049	1.930	1.889	1.693	1.632	1.394	1.235	1.096	1.112	1.051	0.979	0.861	0.904	0.846	0.901	0.884	0.819	0.796	0.670	0.631	0.559	0.641	0.576	0.617	0.538	0.468	0.411	0.621	0.933	0.743	0.522	0.458	0.475	0.382	0.431	0.429	0.363	0.421	0.507	0.649	0.502	0.356	0.288	0.274	0.313	0.262	0.372
630.0	32.31	35.77	30.97	22.30	19.42	19.18	20.56	22.38	25.30	31.61	38.31	46.64	69.95	51.29	22.64	15.64	15.44	42.40	289.0	161.5	6.412	2.149	1.997	2.242	1.924	1.901	1.946	1.908	1.677	1.798	1.780	1.752	1.490	1.368	1.410	1.231	1.173	0.955	0.926	0.999	0.834	0.734	0.715	0.738	0.758	0.700	0.711	0.658	0.554	0.567	0.496	0.493	0.494	0.478	0.438	0.473	0.379	0.439	0.653	0.642	0.617	0.476	0.443	0.387	0.345	0.380	0.407	0.361	0.425	0.510	0.575	0.329	0.262	0.293	0.294	0.221	0.321
635.0	35.68	38.14	29.13	23.20	20.18	19.39	20.68	21.77	25.61	30.74	35.69	41.95	51.59	63.77	27.84	16.68	15.72	17.37	93.62	314.1	44.39	2.255	1.977	1.899	1.755	1.765	1.657	1.530	1.404	1.544	1.381	1.404	1.294	1.109	1.099	0.992	1.001	0.891	0.696	0.829	0.727	0.630	0.589	0.653	0.673	0.647	0.565	0.628	0.444	0.487	0.370	0.396	0.393	0.467	0.311	0.358	0.359	0.440	0.442	0.456	0.571	0.498	0.511	0.417	0.330	0.415	0.378	0.367	0.380	0.348	0.511	0.469	0.328	0.263	0.283	0.308	0.303
640.0	34.38	41.68	35.09	24.18	22.44	19.04	21.89	24.42	25.42	30.60	35.44	40.74	45.43	65.78	37.42	20.03	16.24	13.44	28.06	254.0	145.2	3.499	1.932	1.633	1.491	1.626	1.365	1.354	1.250	1.310	1.271	1.220	1.129	0.966	1.035	0.921	0.760	0.778	0.597	0.655	0.590	0.565	0.526	0.618	0.555	0.474	0.513	0.452	0.459	0.462	0.386	0.351	0.396	0.363	0.315	0.321	0.325	0.356	0.392	0.425	0.459	0.620	0.482	0.392	0.317	0.374	0.347	0.428	0.283	0.390	0.369	0.508	0.491	0.408	0.213	0.270	0.369
645.0	37.82	37.91	32.49	26.01	21.29	20.06	19.60	22.34	26.14	31.56	37.67	41.36	42.70	55.83	46.05	22.04	18.06	13.95	12.56	119.2	254.9	14.63	1.693	1.627	1.421	1.314	1.302	1.199	1.096	1.237	1.016	1.074	0.905	0.842	0.883	0.785	0.685	0.662	0.567	0.528	0.491	0.553	0.578	0.459	0.490	0.477	0.417	0.488	0.380	0.375	0.311	0.385	0.350	0.326	0.344	0.267	0.326	0.327	0.352	0.360	0.378	0.508	0.490	0.356	0.336	0.385	0.296	0.341	0.261	0.408	0.339	0.356	0.574	0.459	0.253	0.264	0.295
650.0	44.49	42.52	40.36	31.02	23.10	20.12	20.10	21.35	24.06	30.85	35.93	40.48	39.98	47.69	53.10	25.13	19.09	14.56	9.682	40.16	270.3	58.98	1.753	1.283	1.557	1.300	1.149	1.201	1.083	1.162	0.941	0.885	0.912	0.762	0.799	0.764	0.671	0.608	0.563	0.464	0.411	0.474	0.497	0.393	0.372	0.357	0.405	0.467	0.341	0.429	0.322	0.343	0.346	0.286	0.347	0.268	0.329	0.341	0.315	0.265	0.313	0.377	0.450	0.441	0.339	0.347	0.338	0.363	0.304	0.404	0.280	0.349	0.446	0.473	0.319	0.363	0.288
