Sample:	'1
File name:	t2025042102Ã÷ÍúÂ·ÇÅ.FD3
Run date:	'10:33:07, 04/22/2025
Operator:	Administrator
Comment:	'

Instrument
Model:	F-2700 FL Spectrophotometer
Serial number:	23B8-004
ROM Version:	4J14000 07

Instrument parameters
Measurement type:	3-D scan
Data mode:	Fluorescence
EX  Start WL:	220.0 nm
EX  End WL:	600.0 nm
EX Sampling interval:	5.0 nm
EM  Start WL:	230.0 nm
EM  End WL:	650.0 nm
EM Sampling interval:	5.0 nm
Scan speed:	12000 nm/min
EX Slit:	5.0 nm
EM Slit:	5.0 nm
PMT Voltage:	700 V
Response:	Auto 
Corrected spectra:	Off
Contour interval:	50.000

Peak integration
Integration method:	Rectangular
Sensitivity:	1
Threshold:	1.000

Peaks
No.	ApexEX/EM(nm)	Height(Data)
1	225.0/335.0	3965
2	225.0/585.0	107.9
3	225.0/600.0	112.2
4	225.0/630.0	138.2
5	230.0/500.0	370.6
6	240.0/525.0	246.9
7	245.0/535.0	204.5
8	250.0/545.0	173.5
9	255.0/280.0	618.7
10	255.0/560.0	143.0
11	260.0/285.0	670.9
12	260.0/575.0	120.7
13	265.0/585.0	122.8
14	275.0/615.0	200.9
15	280.0/320.0	3652
16	280.0/620.0	191.1
17	325.0/370.0	372.7
18	330.0/375.0	350.4
19	335.0/380.0	341.4
20	350.0/400.0	284.3
21	360.0/415.0	244.9
22	365.0/420.0	239.3
23	435.0/510.0	27.05
24	445.0/525.0	19.68
25	455.0/335.0	10.42
26	460.0/340.0	10.49
27	515.0/280.0	3.828
28	520.0/285.0	4.169
29	560.0/320.0	17.28
30	570.0/315.0	16.99

Data points
	220.0	225.0	230.0	235.0	240.0	245.0	250.0	255.0	260.0	265.0	270.0	275.0	280.0	285.0	290.0	295.0	300.0	305.0	310.0	315.0	320.0	325.0	330.0	335.0	340.0	345.0	350.0	355.0	360.0	365.0	370.0	375.0	380.0	385.0	390.0	395.0	400.0	405.0	410.0	415.0	420.0	425.0	430.0	435.0	440.0	445.0	450.0	455.0	460.0	465.0	470.0	475.0	480.0	485.0	490.0	495.0	500.0	505.0	510.0	515.0	520.0	525.0	530.0	535.0	540.0	545.0	550.0	555.0	560.0	565.0	570.0	575.0	580.0	585.0	590.0	595.0	600.0
230.0	71.88	2161	8383	3810	184.4	10.94	8.383	6.464	6.040	5.637	5.535	5.627	4.827	4.300	3.537	3.319	2.670	2.473	2.261	2.010	2.010	1.900	1.634	1.707	1.468	1.253	1.183	1.064	1.135	0.986	0.840	0.911	0.934	0.777	0.738	0.659	0.708	0.591	0.550	0.530	0.562	0.676	0.758	0.670	0.520	0.454	1.812	12.26	27.08	24.16	10.82	2.440	0.480	0.306	0.279	0.275	0.270	0.246	0.231	0.266	0.237	0.214	0.192	0.174	0.184	0.153	0.187	0.166	0.151	0.150	0.127	0.117	0.139	0.107	0.121	0.089	0.091
235.0	170.1	566.7	3981	8700	3880	264.2	12.55	10.01	7.683	7.124	6.341	5.962	5.525	4.444	4.056	3.734	2.780	2.611	2.329	2.424	1.904	1.967	1.604	1.971	1.407	1.320	1.290	1.098	1.015	1.083	0.977	0.842	0.866	0.934	0.848	0.685	0.673	0.666	0.544	0.480	0.526	0.609	0.652	0.835	0.852	0.669	0.750	3.126	8.521	15.80	25.94	24.83	17.98	4.826	0.636	0.307	0.293	0.257	0.244	0.252	0.204	0.187	0.168	0.165	0.194	0.208	0.146	0.142	0.138	0.133	0.137	0.134	0.120	0.123	0.098	0.095	0.106
240.0	199.1	274.4	1048	5687	9999.9	3124	163.6	13.24	8.990	8.599	7.114	7.415	5.471	5.270	4.287	4.447	3.297	2.697	2.463	2.272	2.100	2.038	1.778	1.860	1.543	1.315	1.392	1.180	1.218	1.153	0.978	0.899	0.791	0.734	0.813	0.665	0.679	0.643	0.588	0.513	0.518	0.452	0.577	0.728	0.793	0.891	0.862	1.185	2.253	4.181	10.55	28.02	47.85	25.84	15.68	3.236	0.396	0.369	0.340	0.269	0.269	0.254	0.181	0.235	0.221	0.174	0.177	0.147	0.150	0.172	0.146	0.177	0.104	0.130	0.117	0.102	0.093
245.0	111.0	287.1	354.7	1633	8371	9999.9	2314	75.29	13.14	11.04	9.134	8.302	6.975	6.077	4.365	4.670	3.584	2.787	2.584	2.444	2.160	2.070	1.949	1.822	1.565	1.387	1.640	1.302	1.231	1.335	1.143	0.987	0.830	0.724	0.879	0.908	0.763	0.702	0.563	0.526	0.496	0.543	0.681	0.528	0.798	0.764	1.116	1.139	1.037	1.270	2.770	7.947	24.06	44.78	59.66	24.93	13.09	1.758	0.469	0.326	0.319	0.249	0.229	0.251	0.223	0.219	0.216	0.195	0.116	0.174	0.161	0.161	0.123	0.105	0.113	0.138	0.123
250.0	57.60	165.8	313.3	493.3	2346	7554	9999.9	5376	156.3	18.43	12.60	10.07	8.230	6.748	5.209	4.965	3.524	3.390	2.976	2.630	2.384	2.246	2.061	1.929	1.749	1.546	1.597	1.357	1.360	1.292	1.117	1.021	0.910	0.800	0.778	0.859	0.874	0.759	0.682	0.612	0.549	0.566	0.584	0.586	0.562	0.628	0.690	1.074	1.207	1.181	1.289	2.278	5.840	12.50	27.53	40.90	63.75	56.84	41.46	10.00	1.950	0.346	0.315	0.283	0.243	0.263	0.236	0.202	0.188	0.196	0.206	0.170	0.171	0.162	0.106	0.161	0.151
255.0	43.73	69.08	167.6	395.3	664.8	1780	6055	9999.9	9106	205.5	21.60	15.47	11.20	9.852	6.705	5.966	4.633	4.327	3.307	2.968	2.849	2.352	2.372	2.314	1.991	1.586	1.573	1.367	1.556	1.274	1.298	1.224	0.945	0.941	0.841	0.875	0.853	0.793	0.727	0.720	0.497	0.646	0.671	0.560	0.570	0.612	0.485	0.608	0.666	0.946	1.312	1.748	2.106	3.167	6.501	9.632	17.97	40.02	88.54	110.7	29.23	14.36	1.424	0.348	0.388	0.328	0.242	0.325	0.276	0.228	0.222	0.216	0.228	0.182	0.124	0.200	0.188
260.0	48.24	48.45	71.29	260.8	444.0	489.4	1600	9226	9999.9	2062	143.0	22.11	16.84	12.26	8.301	8.034	5.407	4.879	3.584	3.401	3.067	2.844	2.401	2.421	2.286	1.740	1.927	1.696	1.629	1.617	1.226	1.239	0.917	0.964	1.031	0.903	0.826	0.792	0.700	0.730	0.668	0.679	0.703	0.537	0.652	0.598	0.612	0.554	0.478	0.552	0.878	1.579	2.149	1.834	2.038	2.490	4.370	9.877	29.72	76.62	125.9	124.3	26.07	8.846	0.639	0.405	0.335	0.301	0.346	0.295	0.180	0.182	0.262	0.167	0.198	0.199	0.220
265.0	47.94	48.30	46.95	113.3	358.3	366.5	425.1	2726	9999.9	9999.9	1687	88.37	22.73	15.81	10.34	9.039	6.195	5.025	4.596	3.891	3.064	2.994	2.587	2.524	2.322	1.797	1.854	1.636	1.658	1.501	1.437	1.407	1.214	1.022	0.943	0.976	0.868	0.875	0.731	0.848	0.685	0.714	0.755	0.743	0.694	0.616	0.658	0.507	0.496	0.558	0.563	0.842	1.510	2.184	1.935	1.330	1.401	2.760	7.185	19.69	52.88	117.1	157.3	121.4	20.66	3.586	0.453	0.463	0.485	0.289	0.254	0.241	0.346	0.223	0.299	0.268	0.207
270.0	93.65	88.41	71.61	64.70	154.6	375.8	388.3	698.8	3084	9999.9	9999.9	6643	109.2	27.58	16.84	13.57	8.138	6.609	5.307	4.325	3.751	3.580	3.011	2.968	2.657	2.087	2.030	1.935	1.987	1.772	1.521	1.504	1.414	1.243	1.154	1.007	0.964	0.979	0.811	0.832	0.769	0.829	0.761	0.820	0.787	0.788	0.729	0.683	0.640	0.512	0.546	0.565	0.747	1.145	1.666	2.060	2.233	1.847	2.193	4.860	12.50	29.76	60.19	106.3	141.1	111.7	94.88	13.95	4.197	0.530	0.422	0.378	0.370	0.266	0.339	0.273	0.235
275.0	218.7	210.9	164.8	92.89	79.33	158.9	445.2	465.7	784.0	2403	8475	9999.9	9429	133.5	29.06	21.26	11.57	9.044	6.542	5.680	5.127	4.427	3.262	3.333	3.095	2.551	2.396	2.208	2.250	2.057	1.981	1.570	1.613	1.490	1.596	1.202	1.273	1.283	1.083	1.054	0.907	0.970	0.969	1.044	1.059	0.943	0.970	1.014	0.959	0.693	0.617	0.645	0.622	0.704	0.750	0.955	1.910	3.230	2.830	2.401	3.504	7.270	13.98	24.61	35.51	60.47	155.5	227.7	162.1	21.07	3.117	0.669	0.557	0.389	0.391	0.371	0.380
280.0	369.2	368.5	293.7	145.7	87.27	99.95	250.6	618.7	416.4	664.6	2269	9999.9	9999.9	6832	95.11	30.17	16.25	12.82	9.048	7.186	6.058	5.450	3.926	3.854	3.177	2.809	2.414	2.365	2.392	2.077	1.978	1.830	1.642	1.744	1.895	1.525	1.623	1.474	1.295	1.230	1.117	1.245	1.119	1.212	1.282	1.256	1.235	1.303	1.200	0.975	0.806	0.803	0.695	0.813	0.668	0.678	1.111	2.125	3.250	3.828	2.715	2.576	3.906	6.541	8.784	14.85	44.04	118.6	230.8	234.3	32.45	15.10	1.335	0.572	0.506	0.430	0.463
285.0	550.9	569.5	449.9	227.9	114.2	102.3	149.2	451.0	670.9	376.3	717.5	3087	9999.9	9999.9	964.8	69.60	22.70	16.55	11.23	8.895	7.021	6.703	5.100	4.127	3.821	3.206	2.410	2.714	2.428	2.195	2.015	1.884	1.800	1.838	2.197	1.986	2.028	1.591	1.616	1.306	1.188	1.306	1.471	1.444	1.636	1.771	1.820	1.733	1.681	1.254	0.967	0.955	0.884	0.757	0.852	0.832	0.942	1.224	1.785	3.080	4.169	3.307	2.257	2.773	3.138	4.506	11.21	29.08	74.62	163.9	249.1	215.4	27.79	9.485	0.882	0.614	0.642
290.0	811.7	863.4	688.6	369.5	192.1	148.1	173.3	287.5	612.6	808.4	635.4	1090	3337	9999.9	9999.9	9999.9	68.11	26.69	17.07	11.89	8.703	8.650	6.056	5.209	4.289	3.393	3.195	3.118	2.725	2.571	2.337	2.304	2.046	2.167	2.423	2.433	2.445	2.062	2.011	1.796	1.652	1.732	1.880	1.904	2.051	2.271	2.413	2.443	2.524	1.818	1.395	1.184	1.155	1.024	1.023	1.023	1.053	1.182	1.408	1.752	2.587	3.758	4.560	4.439	3.309	3.116	4.567	8.393	18.77	40.27	79.58	140.3	176.0	214.6	134.1	18.58	8.063
295.0	1078	1206	975.6	548.8	311.2	246.6	279.2	357.9	526.3	928.1	1238	981.0	1330	2696	8741	9999.9	5586	82.27	29.16	18.06	12.82	11.46	8.119	7.140	5.283	4.103	3.842	3.509	3.068	3.148	2.365	2.491	2.237	2.398	2.810	2.975	2.714	2.598	2.267	2.196	2.149	2.139	2.097	2.578	2.743	3.094	3.201	3.278	3.164	2.450	2.047	1.867	1.627	1.425	1.412	1.315	1.595	1.572	1.817	1.979	2.358	2.945	3.917	5.312	6.343	6.051	4.664	5.207	7.309	11.93	20.51	33.52	42.86	74.46	160.8	280.4	232.9
300.0	1381	1581	1296	773.6	465.4	400.3	451.6	601.5	800.6	1144	1776	1609	1371	1411	2701	9999.9	9999.9	4441	66.88	25.44	17.52	14.42	9.661	8.036	6.161	4.810	4.456	4.021	3.806	3.548	2.576	2.521	2.320	2.614	3.077	3.172	3.078	2.987	2.864	2.620	2.326	2.576	2.450	2.999	3.302	3.707	3.911	4.300	4.047	3.044	2.541	2.294	2.144	1.860	1.716	1.991	2.249	2.548	2.732	3.035	3.645	4.038	4.933	5.843	7.357	9.532	8.800	7.702	7.210	8.180	9.234	11.49	13.21	20.19	43.76	116.5	248.5
305.0	1689	1972	1679	1057	690.6	591.7	784.6	1050	1359	1831	2389	2938	2380	1817	1546	3857	9999.9	9999.9	609.4	48.35	23.82	19.21	11.59	10.05	7.395	5.709	4.916	4.748	3.901	3.566	2.942	2.858	2.612	2.765	3.435	3.513	3.665	3.342	3.345	3.147	3.100	3.038	3.260	3.499	3.946	4.276	4.729	5.254	5.019	3.971	3.258	3.210	3.011	2.602	2.797	3.173	3.421	3.923	4.596	4.928	5.671	6.418	7.903	8.991	9.876	11.50	13.10	13.62	13.22	11.08	10.38	9.435	9.401	10.78	15.07	31.06	72.60
310.0	2054	2375	2153	1396	957.6	861.3	1058	1377	1708	2250	2752	3317	3335	2540	1843	1886	3847	9999.9	9999.9	9864	52.97	30.12	16.24	13.36	9.022	7.118	5.895	5.135	4.463	4.455	3.602	3.048	2.916	3.154	3.643	3.769	3.942	3.695	3.764	3.630	3.458	3.511	3.826	4.092	4.736	5.246	5.819	6.464	6.055	5.080	4.094	4.087	3.755	3.493	3.661	4.054	4.492	5.263	6.000	6.605	6.961	8.138	9.710	10.84	11.83	12.57	14.13	15.14	16.32	15.99	14.39	11.84	10.52	10.83	10.18	12.63	21.20
315.0	2399	2869	2628	1740	1182	1081	1283	1601	1890	2477	2994	3511	3591	3273	2285	1610	1778	2854	9999.9	9999.9	4114	64.46	24.95	18.50	11.80	8.721	6.690	6.128	5.613	5.399	3.868	3.762	3.309	3.285	3.914	4.124	3.970	3.891	3.808	4.027	3.883	4.127	4.322	4.979	5.385	6.155	6.628	7.839	7.327	6.091	5.148	5.129	4.785	4.136	4.411	4.442	5.298	6.215	6.552	7.509	7.897	8.840	10.47	12.12	12.50	13.90	15.10	15.33	16.72	16.38	16.99	15.82	13.76	12.73	10.36	9.438	10.70
320.0	2705	3254	3033	1955	1321	1154	1378	1716	1995	2567	3098	3643	3652	3403	2697	1673	1356	1215	2670	9999.9	9999.9	3491	49.35	24.50	15.64	10.80	8.144	6.909	5.775	5.800	4.347	3.929	3.667	3.435	3.960	4.223	4.149	4.139	4.286	4.139	3.890	4.255	4.614	5.290	5.980	6.841	7.752	8.801	8.699	7.119	5.604	5.470	4.860	4.354	4.738	4.623	5.711	6.709	7.167	8.363	8.686	9.542	10.88	12.64	12.95	14.70	15.46	15.97	17.28	16.95	16.54	15.70	16.10	15.28	11.76	9.033	8.836
325.0	2895	3559	3428	2178	1409	1187	1390	1718	1949	2480	3002	3563	3583	3253	2769	1823	1227	831.2	785.1	3131	9999.9	9999.9	469.0	41.66	20.52	13.23	9.911	8.370	6.647	6.026	4.948	4.123	3.940	3.919	4.031	4.284	4.023	4.444	4.254	4.152	4.147	4.435	4.937	5.461	6.164	7.426	8.596	9.858	9.345	7.769	6.461	5.834	5.169	4.727	4.894	4.853	5.835	6.563	7.261	8.056	8.515	9.297	10.44	11.85	13.28	14.36	14.74	15.74	16.80	16.71	16.77	15.31	15.14	15.78	13.74	9.829	8.371
330.0	2919	3814	3790	2564	1638	1248	1348	1637	1815	2296	2788	3301	3344	3044	2478	1864	1263	725.7	392.3	828.7	3442	9999.9	9999.9	8856	43.21	20.20	13.59	10.50	8.404	7.125	5.382	4.806	4.382	4.065	4.137	3.980	4.129	4.150	4.399	4.308	4.369	4.597	4.907	5.664	6.445	7.679	8.833	10.41	10.29	8.755	7.220	7.039	6.193	5.200	5.078	4.988	5.860	6.316	6.890	7.318	7.986	8.649	9.755	10.96	11.89	13.37	13.76	14.67	15.82	15.85	15.69	14.43	13.76	13.83	11.90	10.57	9.210
335.0	2973	3965	3946	2799	1908	1327	1295	1549	1692	2120	2539	2991	3081	2834	2241	1630	1312	789.4	345.3	341.7	885.8	2503	9999.9	9999.9	3315	48.04	19.66	14.42	11.15	9.125	6.597	5.436	4.936	4.662	4.415	4.208	4.132	4.163	4.285	3.967	4.064	4.673	4.921	5.842	6.523	7.971	8.646	10.42	10.39	9.552	7.856	8.080	7.176	6.058	5.439	5.065	5.451	5.866	6.425	6.869	7.484	7.786	8.963	10.12	10.70	12.19	12.92	13.18	14.37	14.15	14.44	13.05	13.12	12.11	10.21	9.379	8.662
340.0	2829	3794	3854	2845	1904	1320	1212	1453	1543	1931	2315	2710	2788	2597	2069	1461	1138	876.8	394.2	248.7	325.6	670.6	2684	9999.9	9999.9	2711	39.51	18.51	13.28	10.62	7.319	6.247	5.461	5.000	4.621	4.456	4.165	4.118	4.492	4.098	3.791	4.349	4.800	5.250	6.467	7.588	8.601	10.31	10.49	9.620	7.854	7.839	7.383	6.454	5.660	4.986	5.306	5.577	5.905	6.300	7.042	7.318	8.402	9.047	9.974	10.84	11.85	12.30	12.93	13.07	13.26	12.31	12.17	11.31	9.585	8.540	7.271
345.0	2651	3473	3684	2735	1886	1300	1148	1342	1406	1737	2082	2411	2478	2335	1872	1322	967.3	816.8	508.0	256.4	211.3	265.9	690.5	3511	9999.9	9999.9	398.3	30.53	16.88	13.54	8.536	6.574	5.588	4.929	5.009	4.590	4.076	4.083	4.282	3.643	3.730	4.104	4.398	5.017	6.163	7.237	8.483	9.692	9.992	8.959	7.604	7.352	7.010	6.065	5.287	4.994	5.191	4.974	5.528	5.933	6.155	6.742	7.431	8.209	9.218	9.654	10.54	10.93	11.60	11.67	11.66	11.32	10.79	9.994	8.772	7.419	6.381
350.0	2334	3108	3234	2531	1834	1263	1085	1204	1261	1520	1795	2073	2127	2005	1636	1173	845.3	663.0	534.4	382.6	227.0	195.6	257.1	863.5	3644	9999.9	9999.9	6936	36.90	18.96	11.63	8.397	6.585	5.458	5.367	4.403	4.181	4.113	4.016	3.659	3.717	3.781	4.028	4.530	5.481	6.454	7.172	8.543	8.874	7.895	7.053	7.201	6.835	6.034	5.341	4.493	4.887	4.796	5.184	5.324	5.619	6.003	6.501	7.201	7.862	8.404	8.868	9.384	10.03	9.855	9.982	9.667	9.117	8.888	7.723	6.747	5.953
355.0	2031	2616	2764	2257	1720	1207	1019	1096	1126	1329	1527	1758	1795	1716	1412	1041	770.0	592.9	445.3	448.8	334.3	208.1	178.9	279.9	873.4	2391	9999.9	9999.9	3026	45.16	16.44	11.43	8.263	6.482	5.643	4.642	4.340	4.239	3.957	3.497	3.414	3.795	3.941	4.226	4.822	5.907	6.335	7.141	7.768	6.932	6.118	7.009	6.458	5.720	5.171	4.337	4.544	4.398	5.086	4.839	4.986	5.228	5.928	6.203	6.961	7.003	7.203	8.341	8.226	8.550	8.739	8.318	8.330	7.866	6.386	6.054	5.536
360.0	1780	2370	2466	2038	1580	1152	976.6	1021	1058	1209	1373	1553	1573	1498	1255	945.3	719.1	558.1	419.7	398.4	413.4	266.5	178.1	162.2	266.3	588.1	2637	9999.9	9999.9	2653	34.46	15.32	10.76	7.858	6.441	4.923	4.561	4.330	4.059	3.705	3.259	3.817	3.666	3.892	4.635	5.216	5.830	6.503	6.797	6.086	5.826	6.331	6.122	5.532	4.918	3.880	4.674	4.264	4.701	4.377	4.915	4.802	5.294	5.664	6.149	6.414	6.721	6.985	7.652	7.559	7.466	7.521	7.467	6.969	6.272	5.591	5.213
365.0	1594	2086	2171	1834	1483	1106	930.1	965.6	992.0	1116	1243	1396	1394	1344	1132	873.4	681.0	545.4	422.6	365.7	398.0	360.1	210.1	153.6	144.4	194.7	643.0	3328	9999.9	9999.9	377.1	26.01	14.01	9.263	7.735	5.445	5.158	4.623	4.300	3.856	3.493	3.636	3.636	3.678	4.377	4.963	5.176	6.235	6.407	5.849	5.408	5.824	5.796	5.319	4.762	3.808	4.348	4.127	4.337	4.403	4.682	4.587	4.807	5.403	5.601	6.136	6.186	6.287	7.002	6.743	6.849	6.659	6.668	6.452	5.715	5.246	5.063
370.0	1389	1774	1876	1630	1358	1058	898.3	910.1	927.6	1012	1104	1229	1217	1176	1008	798.4	645.4	537.6	438.8	374.5	351.0	372.7	314.3	194.0	140.1	124.1	207.0	798.4	3542	9999.9	9999.9	6303	31.76	14.00	10.10	7.269	5.809	4.872	4.488	3.862	3.367	3.576	3.505	3.717	4.110	4.408	4.733	5.511	5.654	4.981	4.875	5.180	5.316	4.878	4.432	3.821	4.043	4.230	4.022	4.198	4.430	4.459	4.562	4.908	5.010	5.433	5.232	5.753	5.782	5.792	6.002	5.974	5.785	5.581	5.198	4.727	4.678
375.0	1243	1521	1634	1445	1257	1017	864.6	866.4	868.8	922.9	988.4	1070	1059	1026	895.8	735.6	619.1	532.2	448.9	394.5	354.1	332.5	350.4	292.3	175.3	129.6	126.9	240.5	838.5	2422	9999.9	9999.9	2624	36.25	14.89	9.641	6.963	5.489	4.499	4.048	3.798	3.699	3.738	3.673	3.705	4.046	4.322	4.606	4.891	4.404	4.459	4.906	4.886	4.589	4.287	3.830	3.722	4.088	4.057	3.977	4.212	4.162	4.124	4.357	4.634	4.544	4.769	5.081	5.089	4.829	5.164	5.015	4.921	5.048	4.216	4.513	4.066
380.0	1134	1398	1434	1317	1151	969.6	837.7	822.1	810.6	867.9	918.7	976.7	959.5	929.6	821.5	690.8	592.8	524.8	454.0	408.0	362.7	325.4	319.4	341.4	234.2	150.0	122.1	126.3	242.9	588.7	2674	9999.9	9999.9	2144	30.02	12.02	8.681	6.725	5.262	4.559	3.893	3.830	3.669	3.741	3.936	3.839	4.016	4.329	4.573	4.080	3.952	4.444	4.620	4.310	4.157	3.747	3.660	4.070	3.723	3.841	4.021	3.931	3.989	4.161	4.362	4.314	4.412	4.494	4.696	4.609	4.862	4.860	4.574	4.440	4.271	4.153	4.076
385.0	1039	1285	1316	1188	1095	916.1	825.3	795.3	788.3	818.8	864.1	907.8	883.8	862.5	774.5	654.4	581.3	520.8	461.0	417.9	373.2	335.7	305.4	322.0	301.4	186.9	133.5	111.7	119.2	184.1	642.1	3237	9999.9	9999.9	310.2	21.46	10.74	8.041	5.983	4.843	4.279	3.721	3.585	3.657	3.889	3.948	3.632	4.077	4.158	3.938	3.692	4.175	4.149	4.111	3.946	3.897	3.690	3.991	3.538	3.578	3.767	3.696	4.114	3.942	4.306	4.175	3.966	4.158	4.243	4.259	4.422	4.377	4.315	4.066	4.226	3.861	3.946
390.0	973.4	1146	1162	1101	1015	884.8	801.4	772.0	753.3	772.6	795.7	825.3	805.3	782.6	709.3	615.7	552.4	507.3	461.4	420.7	384.8	351.9	315.6	293.6	302.6	263.5	175.7	129.1	107.8	107.0	192.3	764.6	3336	9999.9	9999.9	5350	26.29	11.38	8.035	6.065	4.765	4.187	3.778	3.794	3.905	3.754	3.760	3.831	3.842	3.721	3.609	3.959	4.153	3.915	3.931	3.713	3.447	3.737	3.566	3.553	3.546	3.619	3.754	3.559	3.786	3.699	3.693	3.867	3.822	3.756	4.104	3.869	3.896	4.106	4.000	3.792	3.663
395.0	863.8	1010	1071	1006	937.2	838.7	773.9	740.3	727.6	729.3	732.9	762.5	743.9	714.0	651.0	580.1	530.8	492.9	457.3	420.1	393.2	359.3	328.2	299.4	276.6	282.1	255.3	165.5	123.2	103.5	105.5	216.1	779.3	2356	8744	9999.9	2236	32.34	11.70	7.993	6.260	5.125	4.500	4.194	3.844	3.910	3.817	3.777	3.716	3.431	3.359	3.733	3.963	3.892	3.780	3.669	3.562	3.432	3.774	3.556	3.717	3.573	3.614	3.310	3.612	3.558	3.342	3.274	3.690	3.602	3.794	3.634	3.619	3.642	3.553	3.587	3.533
400.0	817.6	956.0	1006	958.6	908.9	810.7	750.6	733.8	703.4	699.6	703.0	722.4	696.6	678.0	622.2	554.9	509.3	481.2	453.5	418.9	397.1	365.1	336.4	308.0	276.7	259.9	284.3	215.7	146.0	117.2	95.39	102.1	214.1	556.9	2260	9999.9	9999.9	1952	27.04	10.24	7.383	6.054	4.679	4.569	4.133	3.947	3.636	3.806	3.707	3.234	3.138	3.606	3.660	3.746	3.474	3.655	3.720	3.477	3.709	3.502	3.516	3.364	3.416	3.440	3.357	3.421	3.268	3.386	3.469	3.575	3.620	3.501	3.691	3.515	3.523	3.455	3.404
405.0	810.9	904.2	934.9	926.4	886.2	803.1	747.0	714.6	690.3	685.8	690.8	684.7	667.9	651.2	595.4	533.5	494.0	470.4	442.2	413.3	395.0	369.1	343.3	313.8	284.7	257.8	264.6	261.5	180.3	131.7	103.7	85.88	93.25	159.0	534.3	2833	9999.9	9999.9	1523	20.44	9.092	6.507	5.568	4.746	4.163	3.769	3.721	3.747	3.853	3.227	3.091	3.658	3.465	3.248	3.228	3.383	3.473	3.388	3.544	3.424	3.388	3.271	3.290	3.419	3.307	3.360	3.190	3.537	3.313	3.132	3.682	3.319	3.304	3.384	3.329	3.143	3.482
410.0	773.9	857.6	873.4	858.0	815.1	770.6	728.0	703.7	676.3	671.1	660.4	656.2	633.1	601.5	558.7	509.3	473.7	449.9	426.3	406.8	385.1	365.5	343.8	321.2	293.9	267.0	249.8	254.4	236.3	168.9	121.2	94.20	76.47	76.84	151.0	658.7	2856	9999.9	9999.9	4887	24.38	9.594	6.851	5.828	4.860	4.300	3.779	3.585	3.732	3.227	3.180	3.487	3.420	3.398	3.347	3.175	3.494	3.430	3.446	3.235	3.369	3.189	3.282	3.227	3.066	3.112	3.195	3.175	3.167	3.220	3.432	3.177	3.110	3.198	3.055	3.038	3.065
415.0	703.4	783.1	816.6	807.9	758.7	726.0	706.6	691.5	665.5	648.5	642.3	632.7	597.4	569.6	527.0	484.4	450.0	429.5	410.2	394.1	376.0	362.7	342.4	321.6	298.5	276.6	252.0	236.2	244.9	226.6	152.0	108.5	83.25	67.03	71.05	175.2	658.6	2294	6091	9999.9	2084	31.76	10.16	7.284	5.910	4.748	4.220	3.905	3.740	3.271	3.279	3.565	3.520	3.207	3.205	3.348	3.586	3.610	3.248	3.133	3.281	3.117	3.276	3.171	2.893	3.116	3.070	2.947	2.850	3.152	3.051	3.059	3.090	2.986	3.076	3.115	2.877
420.0	677.6	731.1	781.8	768.5	747.8	717.2	696.0	678.8	669.0	645.0	631.3	605.0	579.5	541.1	504.9	461.1	429.6	408.9	395.9	379.8	361.8	350.3	336.5	319.7	300.5	279.4	257.0	236.9	229.5	239.3	192.6	125.2	92.36	71.56	57.88	70.90	171.7	531.9	1503	7553	9999.9	1938	26.68	9.511	6.910	5.123	4.445	4.079	3.811	3.238	3.321	3.576	3.473	3.251	3.083	3.327	3.474	3.375	3.336	3.302	3.208	3.111	3.152	3.165	3.070	3.149	3.001	2.963	2.922	3.090	3.105	3.026	3.030	3.236	2.805	2.792	2.688
425.0	695.8	706.2	726.0	731.5	721.5	699.4	687.3	676.0	654.5	642.5	631.2	598.2	562.9	525.9	477.3	447.1	416.6	394.3	380.3	367.7	352.3	342.8	331.9	314.5	299.9	281.7	262.5	241.2	229.0	224.5	220.4	152.1	103.1	78.88	60.73	52.02	66.27	140.5	355.6	1986	9159	9999.9	1601	21.26	8.510	6.063	5.203	4.250	3.998	3.124	3.235	3.347	3.372	3.369	3.264	3.175	3.487	3.466	3.479	3.223	3.207	3.167	3.192	3.242	3.285	2.939	2.895	2.696	2.825	3.086	2.814	3.032	2.760	2.803	2.754	2.834	2.639
430.0	1240	700.8	703.9	690.6	690.0	688.3	667.2	661.5	654.1	639.8	626.0	593.7	545.3	505.2	460.8	422.1	392.7	374.2	364.8	350.9	337.4	331.4	325.4	311.2	298.7	284.8	268.2	250.4	233.7	216.3	210.7	188.1	131.9	91.65	70.34	55.24	47.43	57.01	99.75	460.6	2344	7511	9999.9	5172	113.7	9.616	6.369	5.117	4.516	3.554	3.365	3.527	3.445	3.285	3.136	3.156	3.468	3.460	3.495	3.235	3.467	3.283	3.207	3.284	3.050	2.908	2.899	2.785	2.996	2.755	2.907	2.855	2.654	2.622	2.557	2.712	2.663
435.0	2696	778.2	666.5	672.0	669.1	659.1	660.3	656.1	657.8	647.0	624.0	582.0	536.2	488.5	442.2	399.9	374.7	355.3	342.3	336.6	326.7	317.6	313.5	302.2	296.7	286.1	271.8	255.4	240.7	220.7	200.2	188.1	168.9	115.1	82.71	63.82	49.72	42.89	46.47	121.6	537.9	1703	4420	9999.9	8689	32.45	9.991	6.509	5.262	4.040	3.547	3.455	3.495	3.269	3.536	3.240	3.452	3.577	3.570	3.575	3.204	3.391	3.232	3.093	2.955	3.060	2.962	2.737	2.699	2.838	2.683	2.416	2.614	2.600	2.486	2.512	2.619
440.0	4145	1423	654.2	654.2	651.6	641.8	658.7	650.8	650.2	643.2	622.4	581.8	523.9	473.9	431.4	386.5	363.9	342.8	330.7	319.5	316.2	307.4	304.6	296.7	293.6	279.7	269.3	259.8	243.2	227.2	202.4	180.2	174.1	141.3	94.04	69.83	54.84	43.67	37.55	47.52	136.5	395.1	1051	5998	9999.9	1937	26.77	8.802	6.237	4.778	3.805	3.664	3.677	3.407	3.605	3.386	3.389	3.693	3.691	3.317	3.242	3.295	3.217	3.161	3.121	3.193	2.865	2.865	2.782	2.671	2.638	2.662	2.710	2.631	2.374	2.261	2.546
445.0	3943	2946	676.8	625.2	611.2	627.5	638.5	643.8	636.9	638.5	611.5	570.3	506.5	466.9	410.6	373.8	345.4	327.7	317.0	306.8	302.6	293.0	293.1	289.4	282.7	272.7	266.7	254.7	244.8	230.1	205.4	175.5	162.8	154.0	112.0	76.24	58.72	46.70	37.99	33.72	48.86	104.1	249.3	1490	8089	9999.9	1591	23.21	7.792	5.391	4.283	4.119	3.750	3.367	3.583	3.491	3.466	3.595	3.482	3.567	3.493	3.549	3.153	3.112	3.092	3.105	2.962	2.691	2.772	2.548	2.493	2.678	2.625	2.430	2.444	2.310	2.410
450.0	2072	4910	1604	599.4	587.9	597.9	603.4	614.9	621.9	603.4	587.6	551.0	488.7	436.1	387.0	349.5	324.1	304.8	293.1	285.2	281.8	274.7	274.9	272.5	268.0	262.0	254.1	246.8	238.4	227.1	203.1	177.4	153.2	142.4	127.3	93.23	65.08	50.18	41.24	32.85	31.46	40.17	70.34	346.3	1997	6225	9999.9	5946	108.5	9.324	5.323	4.662	4.293	3.577	3.496	3.560	3.577	3.461	3.581	3.407	3.514	3.235	3.128	3.060	3.065	2.971	2.944	2.701	2.571	2.580	2.539	2.555	2.413	2.292	2.344	2.253	2.176
455.0	841.9	4056	4270	722.9	548.0	561.9	579.5	587.3	594.7	577.9	561.3	518.7	456.1	411.2	356.5	322.1	297.4	278.1	268.7	261.6	255.0	250.8	254.2	251.9	251.0	245.7	240.0	235.6	226.5	218.7	197.6	174.0	149.1	129.1	119.1	110.4	76.40	55.33	44.48	35.30	29.74	27.88	31.31	90.11	456.7	1405	3639	9999.9	7989	150.7	8.785	5.820	5.104	4.086	3.547	3.480	3.602	3.484	3.472	3.242	3.317	2.977	3.121	2.863	2.867	2.753	2.779	2.671	2.584	2.297	2.452	2.436	2.249	2.210	2.169	1.993	2.046
460.0	525.1	2106	6062	1600	518.3	526.3	539.9	545.3	563.6	549.6	533.9	490.4	432.3	378.8	334.5	299.0	278.3	261.3	250.0	245.4	238.1	237.6	237.1	234.9	233.6	230.1	227.6	224.4	217.5	209.6	191.6	170.3	145.8	124.9	107.4	106.6	88.56	60.59	45.53	36.92	29.85	26.14	23.14	33.87	114.0	324.5	844.5	4515	9999.9	5817	22.77	8.416	5.673	4.573	3.866	3.736	3.602	3.709	3.648	3.298	3.246	3.104	3.027	2.868	2.849	2.721	2.701	2.592	2.471	2.269	2.295	2.251	2.045	2.161	1.931	1.889	1.939
465.0	452.3	954.7	5617	3659	535.0	494.3	514.4	532.5	536.0	517.8	506.3	468.1	414.6	361.9	316.8	282.4	257.1	246.0	231.5	227.3	220.0	221.2	219.5	222.2	218.1	215.1	214.2	209.9	206.2	199.4	183.5	163.2	140.0	121.4	102.3	95.30	91.97	69.51	48.41	38.09	31.47	25.85	21.41	21.99	37.83	83.60	200.1	1082	6134	9999.9	1351	23.38	7.413	5.323	4.651	4.107	3.744	3.590	3.643	3.284	3.149	3.130	2.975	2.770	2.789	2.807	2.544	2.370	2.591	2.108	2.201	2.076	2.150	1.968	2.003	2.090	2.054
470.0	467.0	531.9	2693	6054	1496	458.9	468.1	479.3	489.0	485.1	468.0	430.2	382.1	331.1	289.2	254.8	233.7	219.6	208.6	202.6	197.0	197.5	197.7	196.8	197.6	194.8	192.4	191.5	188.3	183.2	169.8	151.8	132.0	113.5	97.27	84.08	80.47	74.80	54.97	39.74	32.19	25.95	21.60	19.72	21.17	29.68	54.77	251.2	1469	4890	8648	4919	115.3	9.681	5.510	4.483	4.071	3.869	3.537	3.226	3.001	2.855	3.033	2.868	2.645	2.732	2.493	2.324	2.269	2.122	2.141	1.951	1.900	1.894	1.938	1.937	1.790
475.0	441.1	408.4	924.4	4813	4650	553.9	426.7	441.9	445.7	440.8	416.8	395.7	345.9	297.7	259.6	229.2	208.7	194.8	185.0	177.4	177.3	176.1	176.9	175.2	174.4	175.1	173.4	171.1	171.4	167.9	155.0	140.0	121.5	106.6	90.61	78.47	69.41	66.49	62.37	45.14	33.00	26.56	21.88	19.52	17.38	17.55	21.76	64.75	334.9	1099	2620	7508	6230	177.0	8.462	5.039	4.322	3.983	3.736	3.197	2.838	2.707	2.772	2.737	2.525	2.455	2.328	2.190	2.183	1.986	1.737	1.862	1.795	1.758	1.748	1.719	1.634
480.0	399.2	381.1	481.7	2447	6680	1420	394.1	407.9	423.9	409.6	396.6	370.1	323.6	278.0	243.5	210.6	191.7	181.7	172.1	164.6	161.5	160.8	161.9	161.6	161.3	160.9	160.0	159.7	157.5	155.9	145.5	130.2	117.1	102.2	86.97	74.36	64.94	57.95	59.66	50.58	35.75	26.76	22.30	19.38	16.77	15.83	15.20	22.66	82.64	251.6	599.2	2709	9142	5057	28.47	7.012	4.983	4.213	3.780	3.037	2.844	2.747	2.562	2.516	2.484	2.315	2.181	2.093	2.035	1.998	1.675	1.712	1.625	1.801	1.633	1.771	1.528
485.0	336.5	383.2	378.6	969.5	6125	3512	420.6	386.7	396.4	391.5	377.0	346.1	303.7	259.7	224.7	200.7	182.3	167.8	161.8	153.8	150.5	149.8	150.6	150.1	149.7	149.0	150.4	148.6	149.3	144.5	138.3	123.6	111.6	96.93	83.21	71.29	62.55	54.05	53.04	51.75	39.89	27.98	23.06	19.69	17.44	15.30	13.63	13.58	26.27	62.89	140.8	633.2	4171	9154	1636	23.40	6.275	4.618	4.011	3.240	3.058	2.922	2.566	2.506	2.361	2.156	2.075	1.977	1.906	1.694	1.831	1.573	1.653	1.555	1.495	1.705	1.521
490.0	282.5	378.8	350.1	461.3	2968	6149	1291	357.8	365.6	360.3	347.5	321.3	278.4	242.9	208.8	182.5	164.4	153.6	146.0	140.4	137.0	134.7	134.9	137.0	135.3	136.4	136.2	135.1	137.0	132.2	126.8	114.5	103.1	90.40	78.77	68.72	60.05	51.94	46.16	45.62	43.98	33.17	24.46	20.11	17.42	15.40	13.42	12.04	13.45	20.76	37.97	147.5	975.5	3643	6971	4757	125.7	10.04	5.289	3.727	3.420	3.013	2.669	2.562	2.308	2.244	2.112	2.022	1.963	1.668	1.685	1.583	1.498	1.488	1.339	1.477	1.322
495.0	249.6	324.5	357.9	312.2	926.3	5007	3639	409.2	330.4	326.2	317.7	292.3	255.9	223.5	190.6	166.8	149.4	137.8	131.5	126.0	124.2	122.3	120.1	122.3	120.8	120.7	119.9	121.0	122.9	118.6	115.7	106.1	93.49	83.22	72.03	64.31	56.45	48.40	43.03	39.38	38.86	38.11	27.94	20.70	17.57	15.70	13.47	12.08	11.04	11.17	14.42	38.62	222.7	818.2	2125	7197	6681	202.4	9.225	4.483	3.921	3.371	2.767	2.734	2.389	2.194	2.044	1.981	1.907	1.696	1.548	1.497	1.512	1.271	1.275	1.334	1.139
500.0	231.6	268.8	370.6	285.7	401.6	2561	6558	1206	305.1	301.0	296.3	264.6	236.1	199.9	172.6	150.1	134.0	127.1	118.7	113.7	112.1	110.2	109.6	111.3	110.1	110.5	110.8	110.4	112.1	108.8	105.1	96.47	87.47	77.32	68.65	61.11	52.88	46.05	41.26	36.19	33.70	36.45	31.88	21.94	18.29	15.35	13.90	11.63	10.40	9.620	9.099	14.00	54.78	187.9	485.6	2548	8843	5251	31.37	6.998	4.254	3.435	2.999	2.600	2.341	2.102	2.028	1.700	1.872	1.719	1.495	1.417	1.499	1.290	1.193	1.260	1.201
505.0	189.1	219.2	327.3	293.0	268.5	967.9	6459	2862	310.5	281.3	271.0	247.2	217.1	186.3	159.7	140.1	125.1	116.9	107.7	104.6	101.7	98.75	100.5	101.2	100.8	100.5	98.70	100.9	101.7	99.30	96.25	89.56	80.51	72.07	63.55	56.25	49.54	43.67	38.74	34.20	30.46	30.66	31.66	25.11	18.79	15.08	13.58	11.63	10.37	9.030	8.031	8.386	17.61	46.66	113.9	591.2	3757	9044	1798	25.94	5.536	3.881	3.179	2.594	2.512	2.041	1.934	1.587	1.769	1.712	1.429	1.372	1.342	1.247	1.132	1.211	1.117
510.0	178.5	192.9	248.5	291.7	234.5	389.5	3174	6330	1177	250.2	238.5	221.0	194.4	165.8	144.9	124.8	111.3	101.7	96.01	92.48	89.97	88.89	89.72	88.94	88.29	87.86	87.24	89.03	89.46	88.14	85.65	79.01	71.85	63.92	56.72	50.72	45.29	40.50	34.98	31.48	28.23	25.91	26.78	27.05	20.89	15.36	13.07	11.34	10.00	8.681	8.085	7.206	8.825	14.66	30.00	136.5	871.6	3471	6295	4104	126.9	8.625	3.762	2.789	2.349	2.170	1.874	1.737	1.646	1.460	1.376	1.381	1.231	1.143	1.051	1.097	0.923
515.0	146.4	179.0	184.4	256.3	239.9	233.0	912.7	5624	4423	289.6	211.9	195.3	168.3	146.6	126.6	106.1	98.74	89.09	83.83	79.70	78.98	75.79	78.05	75.85	75.66	76.86	75.74	75.94	77.40	77.61	75.24	69.70	61.72	57.03	49.74	45.03	41.36	36.84	31.38	29.11	26.01	23.40	21.55	23.80	23.18	17.23	12.77	10.79	9.694	8.607	7.599	7.003	6.427	7.428	10.83	34.63	198.5	778.1	1798	5905	5291	198.9	6.873	3.715	2.617	2.300	1.898	1.657	1.603	1.453	1.319	1.344	1.123	1.137	0.963	1.028	0.980
520.0	132.5	163.1	159.4	211.9	246.0	190.6	345.5	2909	7298	934.8	196.1	181.8	152.8	134.5	114.8	96.43	88.87	81.38	75.08	73.63	71.33	69.44	70.59	69.58	68.66	68.57	68.72	68.45	69.64	68.76	66.81	60.82	56.59	51.62	45.73	40.55	37.13	33.54	29.59	26.77	23.72	21.22	19.27	19.70	22.21	19.34	13.68	10.71	9.360	8.248	7.031	6.411	6.135	5.882	6.272	11.35	48.03	177.7	409.3	2084	6791	1946	30.64	5.115	3.043	2.398	1.953	1.757	1.673	1.405	1.174	1.296	1.087	1.064	0.971	0.973	0.986
525.0	130.4	140.8	140.7	168.7	246.9	179.4	209.6	1034	7515	2188	197.2	165.3	140.6	122.4	103.2	90.11	80.21	72.32	68.37	66.23	62.73	62.05	63.24	63.55	62.17	62.21	60.81	60.76	60.88	63.51	60.66	55.20	51.98	46.65	42.10	36.73	34.27	31.07	27.32	25.00	21.91	20.63	18.28	16.80	18.82	19.68	14.82	10.87	8.922	7.944	6.865	6.295	5.708	5.413	5.008	6.260	14.58	43.39	95.69	481.2	2831	6216	1731	24.47	4.093	2.779	2.005	1.981	1.595	1.441	1.089	1.151	0.968	0.890	0.885	0.848	0.989
530.0	125.2	127.8	122.7	135.2	202.3	192.1	164.0	351.8	3736	6633	826.4	147.0	126.4	108.1	92.28	79.73	70.38	65.20	60.74	57.68	54.85	54.22	53.91	54.63	54.14	53.22	53.25	52.66	53.76	54.27	52.31	47.94	44.53	40.56	37.44	32.91	30.52	27.55	24.81	22.58	19.96	18.79	16.37	14.84	15.03	16.79	16.21	11.88	8.658	7.129	6.433	5.800	5.488	5.148	4.952	4.726	6.566	13.11	24.71	111.0	658.0	2486	4601	2989	121.0	6.274	2.533	2.013	1.623	1.390	1.244	1.095	1.045	0.862	0.961	0.861	0.840
535.0	109.8	107.3	116.8	106.8	147.3	204.5	147.2	180.5	1017	6338	4217	181.1	110.5	93.99	80.49	68.13	61.96	56.46	53.58	49.67	48.35	46.18	44.85	45.71	45.95	44.94	45.17	44.98	46.15	46.23	44.41	41.16	38.04	35.43	33.01	28.86	26.43	24.21	22.11	19.24	17.68	16.19	14.46	13.70	12.77	12.80	14.01	12.90	9.180	6.982	6.035	5.433	4.945	4.471	4.664	4.499	4.312	5.628	8.659	27.68	149.5	557.8	1314	4235	3725	178.7	4.492	2.656	1.851	1.456	1.243	1.143	0.898	0.835	0.900	0.827	0.681
540.0	97.09	101.5	104.4	98.12	109.2	187.0	153.8	131.8	330.9	3198	7557	613.8	101.4	86.35	71.49	61.88	55.51	49.66	44.97	44.03	43.02	42.50	40.29	41.33	40.57	40.08	39.53	39.69	40.23	39.85	39.31	36.84	34.22	30.33	28.27	25.60	23.71	21.12	19.55	17.43	15.71	14.77	13.43	12.22	11.40	10.74	11.02	12.83	10.10	7.169	5.600	4.925	4.849	4.248	4.259	4.255	3.830	3.892	4.499	8.877	36.04	127.1	299.0	1492	4874	1881	28.50	3.501	2.008	1.644	1.266	1.126	0.948	0.798	0.794	0.793	0.687
545.0	88.49	97.64	94.18	89.82	92.92	142.0	173.5	116.1	160.7	1060	7972	1628	99.63	75.53	63.63	54.44	49.93	43.59	41.04	40.18	38.11	36.34	35.01	36.28	34.58	35.72	35.25	35.09	35.49	35.57	34.10	31.87	30.17	27.12	25.29	23.05	21.13	18.80	17.62	16.00	14.39	13.40	12.06	11.45	10.25	9.447	9.226	10.75	10.67	7.775	5.759	4.801	4.262	4.103	3.803	3.919	3.995	3.548	3.507	4.314	10.36	30.90	69.47	344.1	2044	4561	1508	21.54	2.790	2.090	1.413	1.111	0.974	0.842	0.781	0.807	0.641
550.0	91.22	92.13	91.26	74.96	74.41	94.70	162.5	114.3	106.9	319.8	3760	6326	535.4	66.39	55.69	47.35	41.75	38.38	33.99	33.17	31.80	30.32	30.57	30.33	29.52	29.12	29.21	28.64	29.04	29.73	29.04	27.04	24.94	22.88	21.38	19.84	17.79	16.07	14.97	13.60	12.65	11.51	10.16	9.606	8.819	8.346	7.696	8.085	8.812	8.123	5.902	4.389	3.706	3.534	3.234	3.213	3.347	3.423	3.062	2.854	4.346	9.005	17.78	79.04	473.7	1768	3072	1693	117.3	4.292	1.689	1.228	1.116	0.873	0.791	0.713	0.579
555.0	78.39	92.67	81.79	65.97	60.46	67.07	119.2	134.5	85.46	136.3	966.5	6275	3284	88.98	47.81	41.20	34.35	31.66	27.74	27.68	26.39	25.04	25.37	24.44	24.20	24.38	23.52	23.67	23.90	23.92	23.29	21.77	20.74	19.01	17.67	15.93	14.65	13.76	12.58	11.43	10.56	9.392	8.586	8.200	7.469	6.917	6.642	6.041	6.242	7.087	6.404	4.401	3.318	3.086	2.934	2.882	2.862	3.057	3.117	2.447	2.754	3.728	5.645	19.32	107.4	396.1	861.3	2671	1955	33.11	3.217	1.617	1.238	0.894	0.802	0.756	0.643
560.0	84.41	86.73	68.17	66.24	51.87	60.87	83.68	143.0	85.53	89.21	279.6	3075	6463	161.8	43.73	36.02	29.67	26.94	23.57	23.33	21.98	22.07	22.17	20.54	20.48	20.11	19.87	20.57	19.94	20.69	19.44	18.42	17.14	15.94	14.63	13.45	12.62	11.63	10.79	9.830	9.035	7.872	7.768	7.006	6.303	5.800	5.688	5.278	4.687	5.753	5.932	4.691	3.084	2.900	2.560	2.604	2.537	2.677	2.864	2.551	2.263	2.367	2.836	6.062	25.64	90.32	195.6	930.6	3012	1610	27.47	2.417	1.437	0.989	0.918	0.647	0.580
565.0	83.44	84.04	70.38	63.84	52.34	50.11	60.37	128.5	99.08	78.18	119.3	970.6	7141	1100	44.73	32.40	27.62	23.34	21.02	19.87	18.70	18.45	18.49	17.91	17.02	17.32	18.10	17.70	17.62	17.50	16.10	15.68	14.99	13.34	12.45	11.53	11.05	10.01	8.867	8.317	8.020	7.193	6.488	5.994	5.691	5.173	4.891	4.626	4.143	4.542	5.227	4.887	3.371	2.723	2.399	2.333	2.224	2.178	2.364	2.755	2.233	2.093	2.042	2.962	7.347	21.73	45.40	214.5	1229	2777	1089	19.87	1.825	1.096	0.955	0.774	0.567
570.0	94.22	94.09	79.08	56.97	42.99	44.50	48.77	88.20	120.6	72.73	80.58	274.5	3408	5122	347.1	29.38	22.64	20.02	17.84	16.34	16.02	15.48	15.06	14.53	14.35	14.16	14.43	14.13	14.41	14.34	12.87	12.55	11.96	10.92	9.988	9.766	9.032	8.448	7.550	7.160	6.668	5.975	5.490	5.216	4.950	4.616	4.044	4.107	3.621	3.357	3.758	3.919	3.696	2.748	2.078	2.057	1.943	1.876	1.980	2.114	2.089	2.030	1.734	1.969	2.949	6.201	11.67	49.57	283.1	1022	1862	1089	109.6	2.854	1.133	0.773	0.627
575.0	108.1	97.61	84.34	60.01	37.39	37.89	38.85	58.47	120.7	89.68	70.29	115.1	864.3	5271	2488	40.28	19.93	16.90	15.31	13.96	13.71	13.51	12.50	12.26	11.98	11.88	11.42	11.63	11.67	11.91	10.85	10.27	9.987	8.762	8.556	7.703	7.302	6.559	6.127	5.887	5.527	5.103	4.546	4.358	4.115	3.815	3.454	3.163	2.993	2.654	2.829	2.851	3.378	2.906	2.067	1.859	1.657	1.726	1.806	1.730	1.766	2.013	1.984	1.599	1.821	2.659	3.812	12.19	64.47	228.9	504.0	1541	1584	32.69	2.330	0.942	0.698
580.0	98.23	98.45	82.70	58.46	37.11	32.05	35.29	47.17	99.29	113.3	68.89	79.26	243.0	2621	5249	105.7	19.11	15.51	14.12	11.75	10.92	11.19	10.92	10.05	10.42	10.14	9.963	9.287	9.505	9.974	8.966	8.943	8.201	7.920	7.169	6.636	6.109	5.856	5.370	4.954	4.581	4.348	4.241	3.668	3.713	3.395	2.934	2.762	2.720	2.334	2.394	2.159	2.709	2.965	2.142	1.781	1.682	1.512	1.705	1.374	1.462	1.999	1.981	1.471	1.504	1.644	1.997	3.936	15.66	52.20	114.2	514.7	1837	1112	26.40	1.377	0.845
585.0	101.7	107.9	88.36	52.64	33.65	32.59	34.35	42.40	72.12	122.8	77.55	72.09	101.9	813.1	5923	795.8	19.32	15.42	12.64	11.15	9.981	9.516	9.915	9.089	8.700	8.684	8.280	7.773	8.437	8.699	8.160	7.697	7.303	6.667	6.170	5.857	5.128	5.208	4.667	4.266	4.281	3.755	3.783	3.278	3.053	3.047	2.650	2.364	2.270	2.099	2.080	1.842	2.190	2.545	2.375	1.825	1.472	1.403	1.503	1.222	1.335	1.524	1.738	1.598	1.392	1.436	1.420	2.014	4.610	12.83	26.63	118.2	698.3	1683	735.9	18.67	1.116
590.0	97.37	103.3	89.85	53.10	36.39	32.02	32.40	39.88	56.42	107.9	101.6	74.53	72.35	224.6	2852	4291	177.7	13.88	11.12	9.403	8.297	8.249	8.512	7.756	7.384	7.197	7.016	7.102	6.968	6.926	6.651	6.181	6.277	5.531	5.198	4.653	4.416	4.025	3.882	3.641	3.467	3.140	2.984	2.949	2.664	2.513	2.448	2.169	1.926	1.805	1.676	1.549	1.496	1.889	2.151	2.009	1.511	1.349	1.313	1.180	1.169	1.243	1.341	1.606	1.502	1.276	1.275	1.436	2.145	3.799	7.006	27.41	159.8	584.1	1098	724.3	100.8
595.0	98.81	107.1	91.29	59.13	35.59	33.63	34.17	39.78	53.74	80.82	125.9	83.80	70.89	90.58	715.2	4545	760.8	18.96	10.27	8.277	7.357	6.791	6.948	5.971	5.803	6.167	5.733	5.599	5.610	5.419	5.185	5.074	4.719	4.433	4.211	3.857	3.801	3.242	3.208	3.132	2.949	2.671	2.608	2.347	2.357	2.125	2.366	1.923	1.663	1.445	1.490	1.293	1.211	1.346	1.535	1.829	1.594	1.362	1.268	0.966	1.034	0.996	1.120	1.320	1.448	1.340	1.283	1.224	1.416	1.679	2.402	6.935	36.61	131.0	284.3	866.2	952.4
600.0	95.51	112.2	93.86	60.90	38.77	35.54	34.58	44.85	54.17	73.57	131.5	104.8	76.77	66.48	192.5	2406	3140	68.10	9.933	8.088	6.561	6.071	5.773	5.497	4.803	5.155	5.189	5.108	4.878	4.760	4.638	4.057	4.001	3.693	3.816	3.433	3.265	2.871	2.856	2.518	2.458	2.221	2.285	2.008	2.100	2.062	1.842	1.807	1.759	1.311	1.294	1.223	1.090	1.055	1.259	1.555	1.666	1.479	1.177	0.900	1.048	1.047	1.112	1.031	1.194	1.431	1.349	1.085	1.310	1.106	1.398	2.316	8.854	29.97	64.41	269.0	974.0
605.0	97.39	102.6	97.21	65.30	41.90	38.86	43.07	54.39	61.86	85.36	134.3	144.5	96.96	75.28	87.36	774.9	3898	516.3	11.22	6.944	6.218	5.688	5.268	4.851	4.391	4.595	4.398	4.476	4.156	4.476	3.754	3.836	3.465	3.383	3.219	2.991	2.933	2.977	2.569	2.052	2.125	1.904	1.928	1.867	1.884	1.695	1.719	1.621	1.466	1.343	1.205	1.167	1.083	1.045	1.095	1.319	1.570	1.576	1.282	0.977	0.887	1.042	1.053	1.051	1.259	1.431	1.341	1.228	1.219	1.056	1.197	1.313	2.886	7.378	15.09	61.50	339.8
610.0	108.2	125.4	100.1	72.18	48.41	43.67	54.77	72.62	89.21	117.8	154.3	197.3	149.8	109.0	90.11	229.7	2042	2641	50.68	7.024	5.771	5.321	4.680	4.280	3.989	3.922	3.707	3.750	3.724	3.786	3.434	3.077	2.887	2.941	2.845	2.636	2.451	2.364	2.117	1.876	1.783	1.666	1.689	1.674	1.628	1.499	1.604	1.548	1.250	1.107	1.057	1.041	0.926	0.969	0.935	1.144	1.341	1.557	1.433	1.025	0.961	1.002	1.144	1.206	1.272	1.349	1.485	1.644	1.454	1.271	1.232	1.195	1.569	2.500	4.066	14.49	77.50
615.0	108.1	122.1	111.7	72.14	48.45	50.61	60.09	78.18	98.52	128.2	160.0	200.9	182.8	125.6	100.0	106.9	546.3	3093	587.0	9.068	5.763	4.959	4.202	3.632	3.494	3.596	3.071	3.053	3.022	3.149	2.995	2.839	2.601	2.505	2.435	2.244	2.145	2.020	1.821	1.567	1.518	1.344	1.459	1.499	1.516	1.389	1.313	1.326	1.168	1.049	0.983	0.912	0.827	0.762	0.817	0.940	0.927	1.398	1.208	1.247	1.005	1.028	1.126	1.203	1.244	1.281	1.367	1.603	1.541	1.269	1.221	1.136	1.304	1.379	1.569	3.929	17.92
620.0	112.3	126.7	118.9	79.40	54.59	53.57	59.87	76.13	98.07	124.5	148.1	180.4	191.1	128.9	100.3	76.37	168.9	1748	2235	40.10	5.631	4.532	4.227	3.502	3.242	2.999	2.682	2.598	2.751	2.907	2.534	2.213	2.537	2.169	2.046	1.921	1.976	1.895	1.579	1.623	1.358	1.279	1.227	1.187	1.157	1.212	1.182	1.208	1.092	1.009	0.940	0.866	0.673	0.730	0.793	0.843	0.819	0.996	1.156	1.247	1.032	1.007	1.167	1.139	1.084	1.257	1.305	1.280	1.475	1.530	1.348	1.216	1.012	1.069	1.050	1.565	4.623
625.0	114.8	131.6	121.8	81.83	52.60	48.97	58.57	78.45	92.90	120.7	143.0	172.3	190.6	135.0	100.1	69.04	81.79	583.4	2953	338.5	6.070	4.594	4.145	3.374	3.032	2.798	2.494	2.440	2.632	2.484	2.207	2.046	2.016	1.941	1.895	1.954	1.794	1.546	1.315	1.437	1.379	1.128	1.048	1.118	1.140	1.092	1.067	1.056	0.994	0.993	0.841	0.796	0.655	0.710	0.691	0.704	0.800	0.903	1.119	1.215	0.987	0.955	1.009	1.202	1.091	1.292	1.121	1.362	1.296	1.475	1.487	1.041	1.037	1.031	0.901	0.948	1.708
630.0	114.7	138.2	121.9	78.66	55.80	50.24	61.65	74.46	91.51	120.5	141.4	164.8	175.8	152.0	102.7	68.66	60.78	163.4	1658	1775	33.54	4.755	3.904	3.193	2.854	2.455	2.234	2.060	2.446	2.196	1.969	1.758	1.786	1.510	1.714	1.588	1.432	1.375	1.239	1.278	1.297	1.098	1.015	1.054	0.932	1.014	0.990	1.056	0.900	0.879	0.752	0.678	0.625	0.681	0.646	0.666	0.739	0.782	0.885	1.007	1.059	0.963	0.952	1.080	1.093	1.127	1.096	1.189	1.255	1.266	1.445	1.143	0.992	0.937	0.806	0.767	0.866
635.0	112.3	136.6	129.3	79.68	55.11	50.80	63.02	74.36	89.05	118.2	140.0	162.4	164.7	157.8	110.3	70.80	56.23	62.88	425.5	2323	451.0	6.003	3.543	2.837	2.742	2.254	2.235	1.975	1.982	1.997	1.707	1.627	1.683	1.502	1.459	1.515	1.411	1.305	1.030	1.016	1.162	1.028	0.822	0.947	0.937	0.854	0.955	0.941	0.851	0.775	0.700	0.688	0.589	0.644	0.621	0.614	0.782	0.688	0.682	0.832	0.988	0.781	0.903	1.021	0.923	1.027	1.041	1.043	1.276	1.067	1.177	1.109	1.024	0.971	0.775	0.662	0.637
640.0	111.2	133.9	119.5	80.03	56.67	53.47	61.33	73.62	89.89	114.6	137.8	157.7	158.0	152.5	117.4	70.08	56.12	41.05	106.1	1438	1566	22.69	4.169	2.915	2.482	2.036	2.031	1.899	1.834	1.824	1.641	1.391	1.576	1.468	1.292	1.369	1.292	1.139	0.958	1.111	0.988	0.991	0.826	0.852	0.841	0.831	0.844	0.876	0.850	0.792	0.605	0.622	0.588	0.587	0.530	0.655	0.690	0.708	0.657	0.689	0.855	0.766	0.795	0.913	0.910	0.864	1.060	0.963	1.155	1.001	1.114	1.009	1.108	0.860	0.705	0.585	0.670
645.0	106.6	138.4	121.7	77.31	53.70	48.61	60.21	71.02	86.38	107.6	130.0	146.7	150.1	144.9	122.8	68.83	53.42	34.66	33.01	510.0	2262	66.48	4.492	3.125	2.426	2.148	1.925	1.993	1.749	1.666	1.548	1.370	1.386	1.347	1.322	1.185	1.280	1.180	0.984	0.801	1.044	0.998	0.796	0.806	0.821	0.859	0.916	0.787	1.012	0.723	0.658	0.583	0.544	0.520	0.510	0.573	0.681	0.672	0.711	0.637	0.658	0.729	0.763	0.917	0.857	0.962	1.082	0.965	0.908	1.011	0.987	0.905	0.914	0.974	0.840	0.595	0.606
650.0	131.8	142.3	127.0	79.82	52.00	46.60	54.22	64.50	78.20	101.0	120.4	139.5	141.8	130.3	117.2	70.09	49.00	31.31	15.78	133.0	1877	853.4	7.363	2.948	2.213	2.087	1.926	1.681	1.817	1.581	1.417	1.433	1.467	1.216	1.359	1.035	1.197	1.109	1.060	0.926	0.940	0.773	0.974	0.882	0.765	0.820	0.946	0.785	0.906	0.637	0.697	0.605	0.520	0.520	0.468	0.579	0.495	0.602	0.644	0.687	0.660	0.774	0.847	0.829	0.878	0.858	0.900	0.894	0.920	0.959	0.981	0.822	0.889	0.843	0.807	0.536	0.556
