Sample:	'1
File name:	G01007Ê¤ÀûÂ·Ö§.FD3
Run date:	'11:19:08, 02/28/2024
Operator:	Administrator
Comment:	'

Instrument
Model:	F-2700 FL Spectrophotometer
Serial number:	23B8-004
ROM Version:	4J14000 07

Instrument parameters
Measurement type:	3-D scan
Data mode:	Fluorescence
EX  Start WL:	220.0 nm
EX  End WL:	600.0 nm
EX Sampling interval:	5.0 nm
EM  Start WL:	230.0 nm
EM  End WL:	650.0 nm
EM Sampling interval:	5.0 nm
Scan speed:	12000 nm/min
EX Slit:	5.0 nm
EM Slit:	5.0 nm
PMT Voltage:	700 V
Response:	Auto 
Corrected spectra:	Off
Contour interval:	50.000

Peak integration
Integration method:	Rectangular
Sensitivity:	1
Threshold:	1.000

Peaks
No.	ApexEX/EM(nm)	Height(Data)
1	225.0/335.0	1764
2	225.0/620.0	61.57
3	225.0/630.0	63.41
4	230.0/585.0	50.26
5	230.0/640.0	58.79
6	250.0/390.0	935.0
7	250.0/405.0	928.6
8	250.0/545.0	162.1
9	255.0/555.0	129.9
10	260.0/285.0	443.7
11	260.0/570.0	105.8
12	265.0/585.0	99.80
13	270.0/300.0	1030
14	270.0/600.0	97.57
15	275.0/610.0	96.69
16	280.0/330.0	1816
17	280.0/625.0	96.16
18	285.0/320.0	1702
19	285.0/635.0	81.62
20	320.0/365.0	464.1
21	455.0/335.0	7.206
22	460.0/340.0	6.882
23	565.0/330.0	10.46
24	575.0/320.0	9.847

Data points
	220.0	225.0	230.0	235.0	240.0	245.0	250.0	255.0	260.0	265.0	270.0	275.0	280.0	285.0	290.0	295.0	300.0	305.0	310.0	315.0	320.0	325.0	330.0	335.0	340.0	345.0	350.0	355.0	360.0	365.0	370.0	375.0	380.0	385.0	390.0	395.0	400.0	405.0	410.0	415.0	420.0	425.0	430.0	435.0	440.0	445.0	450.0	455.0	460.0	465.0	470.0	475.0	480.0	485.0	490.0	495.0	500.0	505.0	510.0	515.0	520.0	525.0	530.0	535.0	540.0	545.0	550.0	555.0	560.0	565.0	570.0	575.0	580.0	585.0	590.0	595.0	600.0
230.0	66.47	3456	9762	3191	91.82	10.90	7.168	7.203	6.033	5.958	6.003	6.043	5.218	4.552	4.171	3.612	2.988	2.954	2.652	2.386	2.240	2.098	1.843	1.861	1.655	1.588	1.347	1.263	1.227	1.150	1.089	1.066	0.910	1.005	0.863	0.734	0.759	0.634	0.572	0.555	0.596	0.692	0.724	0.568	0.497	0.525	4.493	23.01	40.10	28.78	9.649	1.683	0.405	0.292	0.293	0.256	0.263	0.263	0.199	0.205	0.168	0.161	0.139	0.149	0.112	0.116	0.112	0.099	0.096	0.088	0.070	0.035	0.036	0.041	0.036	0.035	0.033
235.0	102.5	886.2	5276	9742	3193	169.3	12.91	8.608	7.868	8.216	7.576	6.608	6.582	5.305	4.884	3.820	2.998	2.945	2.596	2.724	2.416	2.373	1.924	1.924	1.711	1.610	1.405	1.357	1.449	1.197	1.185	1.152	0.988	1.036	0.879	0.868	0.730	0.626	0.539	0.585	0.532	0.515	0.657	0.716	0.632	0.562	1.349	5.741	13.91	24.54	35.81	24.66	16.02	3.308	0.380	0.340	0.314	0.338	0.225	0.230	0.185	0.184	0.163	0.144	0.153	0.110	0.156	0.092	0.136	0.079	0.078	0.060	0.044	0.063	0.008	-0.002	0.034
240.0	125.9	266.1	1434	7307	9999.9	2537	85.34	14.43	10.83	10.22	8.337	7.357	7.032	5.685	4.882	4.556	3.832	3.043	2.744	2.771	2.614	2.289	1.969	1.986	1.761	1.815	1.610	1.452	1.520	1.267	1.250	1.213	1.055	1.038	0.902	0.897	0.685	0.620	0.603	0.595	0.607	0.500	0.570	0.626	0.813	0.892	0.774	1.639	3.505	6.850	17.50	41.41	58.16	24.90	13.38	2.007	0.424	0.331	0.210	0.172	0.164	0.226	0.148	0.136	0.158	0.106	0.156	0.143	0.136	0.086	0.067	0.045	0.074	0.043	0.050	0.006	0.055
245.0	88.02	191.6	385.6	2253	9999.9	9999.9	1817	37.30	14.72	13.17	10.91	8.521	7.379	6.106	5.921	4.898	3.695	3.612	2.863	2.889	2.800	2.232	2.083	2.238	1.938	1.738	1.677	1.523	1.554	1.405	1.319	1.076	1.048	0.962	1.068	0.914	0.841	0.653	0.611	0.538	0.624	0.575	0.464	0.566	0.627	0.824	0.972	1.001	1.244	1.893	4.365	13.13	36.76	61.69	68.78	22.66	8.742	0.787	0.311	0.327	0.196	0.253	0.208	0.180	0.149	0.141	0.129	0.148	0.130	0.135	0.047	0.084	0.060	0.092	0.084	0.049	0.050
250.0	44.37	115.3	228.6	582.8	2967	9342	9999.9	5280	119.6	20.06	15.76	12.28	9.246	8.014	6.445	5.679	4.420	3.823	3.483	3.320	2.708	2.585	2.470	2.302	2.064	1.731	1.798	1.605	1.591	1.533	1.314	1.208	1.029	1.037	0.949	0.851	0.797	0.741	0.650	0.587	0.572	0.570	0.535	0.528	0.611	0.619	0.771	0.911	1.094	1.089	1.544	3.347	8.822	18.86	37.88	54.36	76.30	63.59	16.68	7.992	0.809	0.329	0.268	0.264	0.240	0.165	0.159	0.196	0.164	0.134	0.103	0.107	0.106	0.111	0.078	0.076	0.052
255.0	35.24	45.72	127.9	309.1	737.7	2240	8067	9999.9	8043	145.0	24.22	18.71	12.78	10.83	7.712	6.734	4.929	4.563	3.847	3.787	2.794	2.895	2.502	2.504	2.203	2.031	2.010	1.884	1.706	1.759	1.510	1.254	1.124	1.001	0.931	0.941	0.965	0.766	0.834	0.710	0.667	0.622	0.581	0.596	0.612	0.591	0.514	0.566	0.712	0.981	1.350	1.743	2.473	4.534	8.806	12.82	25.66	61.63	113.5	121.9	25.67	9.223	0.698	0.359	0.350	0.327	0.231	0.175	0.195	0.181	0.127	0.176	0.130	0.069	0.125	0.137	0.070
260.0	38.03	32.46	56.67	199.2	338.5	557.0	2241	9999.9	9999.9	1821	99.62	25.75	17.28	14.14	10.15	7.848	6.152	5.313	4.478	3.864	3.017	3.427	2.733	2.628	2.328	2.171	2.328	1.931	1.868	1.873	1.717	1.265	1.339	1.072	1.009	1.021	0.938	0.773	0.797	0.761	0.712	0.695	0.659	0.617	0.659	0.649	0.578	0.557	0.504	0.617	0.856	1.389	1.828	1.755	2.404	3.350	6.269	15.86	45.91	109.4	154.2	127.6	21.38	4.493	0.603	0.416	0.262	0.348	0.263	0.247	0.187	0.185	0.106	0.181	0.135	0.114	0.139
265.0	38.25	34.59	37.57	89.21	268.9	275.5	548.6	3319	9999.9	9999.9	1418	53.86	25.58	18.50	13.87	9.494	7.677	6.219	4.907	4.279	3.821	3.473	3.036	2.708	2.673	2.325	2.350	1.976	1.995	1.865	1.707	1.537	1.307	1.154	1.117	0.925	0.978	0.837	0.837	0.791	0.782	0.819	0.711	0.716	0.662	0.590	0.687	0.586	0.628	0.491	0.547	0.861	1.480	1.769	1.596	1.344	1.855	4.034	10.95	30.25	80.08	165.2	191.2	30.93	15.43	1.634	0.502	0.345	0.352	0.306	0.304	0.195	0.203	0.200	0.144	0.164	0.119
270.0	50.74	46.34	37.95	46.79	123.3	273.1	299.8	810.9	3644	9999.9	9999.9	5468	91.87	29.44	19.83	13.57	10.33	8.114	6.237	5.743	4.529	3.987	3.561	3.344	2.875	2.598	2.472	2.315	2.119	2.182	1.843	1.684	1.602	1.324	1.168	1.081	1.086	0.972	0.984	0.810	0.825	0.796	0.806	0.793	0.758	0.717	0.713	0.644	0.606	0.511	0.523	0.601	0.749	1.051	1.525	1.850	1.723	1.730	2.983	7.280	18.79	45.13	89.49	127.3	176.6	131.3	89.39	10.90	1.841	0.459	0.453	0.391	0.300	0.307	0.248	0.224	0.185
275.0	97.18	73.49	56.04	42.26	59.10	120.3	344.2	395.8	884.0	2499	9999.9	9999.9	8004	105.4	32.14	21.62	14.33	10.68	8.862	6.970	5.563	4.613	4.436	3.756	3.341	2.893	2.608	2.401	2.566	2.522	2.083	1.964	1.840	1.749	1.403	1.302	1.303	1.110	1.085	1.045	0.994	0.936	0.949	0.865	0.890	0.894	0.832	0.781	0.681	0.659	0.490	0.540	0.546	0.648	0.840	0.967	1.963	2.593	2.196	2.315	4.803	10.75	20.59	29.51	50.06	106.4	239.5	236.9	30.93	15.79	1.234	0.614	0.493	0.453	0.454	0.274	0.261
280.0	135.8	113.2	86.38	60.11	46.87	64.23	201.3	440.2	354.1	648.3	2894	9999.9	9999.9	1077	78.20	31.22	20.01	14.51	10.68	8.410	6.862	5.576	5.187	4.354	3.439	3.454	3.044	3.102	2.732	2.621	2.276	1.965	2.032	1.674	1.481	1.452	1.412	1.379	1.127	1.242	1.070	1.106	1.081	1.021	1.029	1.040	0.999	0.919	0.834	0.616	0.674	0.611	0.633	0.641	0.649	0.585	1.093	1.646	2.704	2.659	2.233	3.002	5.331	7.303	12.06	26.03	78.08	186.8	289.4	226.2	27.91	9.762	0.946	0.684	0.618	0.536	0.394
285.0	203.9	171.0	137.9	86.34	57.42	58.02	104.5	338.5	443.7	284.8	781.1	3819	9999.9	9999.9	837.1	54.42	26.96	18.99	12.92	10.18	8.147	6.948	5.965	4.933	4.145	3.547	3.423	3.267	2.808	2.791	2.298	2.121	2.132	1.831	1.598	1.577	1.469	1.545	1.390	1.277	1.455	1.273	1.293	1.370	1.219	1.287	0.982	1.272	0.950	0.738	0.738	0.689	0.660	0.781	0.700	0.726	0.876	0.965	1.687	2.551	3.149	2.329	2.233	2.534	3.563	6.816	18.58	47.08	118.1	253.9	327.4	197.4	23.00	4.468	0.859	0.733	0.552
290.0	315.6	316.5	267.3	167.7	95.54	83.62	101.5	190.7	425.2	466.8	451.7	1116	4161	9999.9	9999.9	9999.9	64.66	29.83	20.14	14.29	11.22	8.795	7.236	5.875	5.045	4.563	4.057	3.516	3.252	3.334	2.734	2.469	2.306	2.071	2.014	1.833	1.707	1.702	1.643	1.446	1.693	1.660	1.465	1.654	1.688	1.620	1.561	1.728	1.486	1.171	1.048	1.037	0.882	0.938	0.906	0.890	0.908	0.939	1.190	1.622	2.248	2.847	3.409	3.024	2.606	3.019	5.659	12.06	28.29	63.90	122.9	197.1	213.3	189.6	129.7	16.01	6.155
295.0	500.4	502.9	459.3	290.7	154.8	130.4	149.4	197.0	314.9	592.3	809.2	703.9	1333	2716	9999.9	9999.9	5060	72.68	32.35	21.03	15.58	10.89	9.462	7.651	6.636	5.592	4.921	4.313	4.040	3.438	3.402	2.998	2.674	2.334	2.077	2.140	2.033	2.016	1.907	1.848	1.869	1.924	2.093	1.860	2.035	2.175	2.253	2.452	2.071	1.780	1.447	1.371	1.252	1.086	1.064	1.091	1.222	1.215	1.463	1.451	1.731	2.155	2.703	4.179	5.030	4.241	3.720	4.910	8.524	16.47	29.54	46.04	54.48	104.9	264.7	375.1	223.1
300.0	612.0	675.0	636.1	389.6	229.2	179.2	201.0	253.8	338.7	550.3	1030	958.1	881.0	1067	2990	9999.9	9999.9	3899	60.24	29.78	21.05	14.49	11.28	9.129	7.463	6.123	5.442	4.760	4.431	3.896	3.640	3.140	2.916	2.562	2.074	2.008	2.148	2.152	2.093	2.158	2.307	2.067	2.328	2.120	2.313	2.809	2.890	3.173	2.896	2.340	1.786	1.718	1.473	1.298	1.318	1.341	1.583	1.495	1.717	1.639	1.914	2.348	2.677	3.604	4.897	6.236	5.635	4.802	5.091	7.058	9.613	13.19	14.31	26.12	73.63	189.7	360.9
305.0	741.5	868.8	779.7	507.9	283.4	233.3	258.5	321.7	439.7	613.2	983.4	1359	1036	848.3	1081	3785	9999.9	9999.9	547.9	46.94	28.02	18.42	13.79	10.86	8.643	7.075	6.338	5.007	5.003	4.499	3.882	3.367	3.196	2.531	2.409	2.276	2.428	2.401	2.317	2.301	2.451	2.596	2.639	2.762	2.964	3.273	3.401	3.755	3.610	2.810	2.177	2.094	1.925	1.447	1.548	1.538	1.744	1.969	2.070	2.102	2.306	2.736	3.195	3.752	4.425	5.668	7.057	7.264	6.465	5.804	5.989	6.611	6.435	8.476	18.52	45.82	114.4
310.0	911.3	1094	995.4	654.5	365.7	292.1	329.3	421.5	573.2	776.1	1057	1418	1511	1097	823.1	1166	4136	9999.9	9999.9	9999.9	52.36	27.73	19.57	14.23	11.09	9.140	7.570	6.434	5.429	5.228	4.454	3.885	3.453	2.958	2.787	2.402	2.566	2.568	2.665	2.653	2.842	2.828	3.174	3.128	3.459	4.051	4.095	4.444	4.372	3.504	2.660	2.547	2.275	1.884	1.846	1.919	2.009	2.303	2.527	2.749	2.949	3.599	4.051	4.588	5.231	5.898	7.060	7.719	8.662	8.722	7.570	6.718	5.629	5.676	7.000	12.50	27.33
315.0	1093	1324	1192	784.2	441.5	357.2	407.4	522.9	702.1	946.7	1236	1493	1643	1593	1002	674.5	1129	2496	9999.9	9999.9	3802	57.89	29.07	20.56	14.30	10.83	9.317	7.572	6.779	5.821	5.208	4.359	3.846	3.406	3.170	2.584	2.757	2.851	2.815	2.987	2.945	3.281	3.681	3.519	4.191	4.479	4.548	5.332	5.243	3.943	3.309	2.936	2.378	2.278	2.322	2.411	2.275	2.633	2.973	3.327	3.686	4.196	4.725	5.265	6.196	6.847	7.571	8.154	8.547	8.960	9.785	9.442	7.706	6.145	5.418	5.452	8.159
320.0	1172	1521	1371	871.8	496.5	400.6	459.5	588.5	777.0	1056	1360	1604	1687	1702	1307	650.8	494.5	692.9	2776	9999.9	9999.9	3192	51.29	27.96	18.96	14.03	10.82	9.249	7.866	6.892	5.805	4.768	4.374	3.753	3.345	3.056	3.083	3.068	3.020	3.269	3.319	3.462	3.708	4.161	4.552	5.104	5.275	6.210	5.665	4.529	3.499	3.255	2.741	2.343	2.410	2.425	2.847	2.777	3.357	3.842	4.226	4.801	5.508	6.012	6.759	7.335	8.349	8.738	9.104	9.144	9.749	9.847	9.696	8.267	6.120	4.546	4.386
325.0	1315	1648	1544	956.2	553.3	433.7	484.0	629.6	834.4	1131	1457	1699	1755	1644	1455	814.8	395.9	307.9	726.8	3588	9999.9	9999.9	446.2	42.52	25.40	18.45	12.92	10.59	8.930	7.490	6.021	5.673	4.890	4.095	3.299	3.269	3.170	3.273	3.253	3.361	3.415	3.519	4.107	4.205	4.689	5.446	5.695	6.525	6.245	4.972	3.833	3.469	2.980	2.547	2.557	2.631	2.734	2.928	3.306	3.940	4.396	5.121	5.816	6.517	7.256	7.831	8.599	9.249	9.779	10.04	9.832	9.384	9.377	9.641	7.468	5.439	3.797
330.0	1353	1741	1634	1051	601.8	473.9	522.6	664.8	887.1	1180	1508	1755	1816	1639	1359	967.7	535.8	269.2	286.1	900.3	3924	9999.9	9999.9	9919	46.38	26.86	18.53	13.72	11.12	9.219	7.631	6.477	5.357	4.629	3.679	3.549	3.368	3.468	3.336	3.649	3.551	3.745	4.247	4.422	5.018	5.775	6.099	6.747	6.773	5.391	4.267	3.883	3.286	2.672	2.801	2.819	3.106	3.268	3.551	4.000	4.630	5.234	6.038	6.700	7.734	8.185	8.854	9.327	9.961	10.46	10.23	9.538	9.255	8.914	7.412	6.341	5.338
335.0	1328	1764	1668	1098	657.5	519.1	556.8	685.8	896.1	1191	1510	1746	1807	1646	1316	894.7	689.4	392.6	227.6	317.7	966.3	2436	9999.9	9999.9	9999.9	51.35	26.43	19.12	13.97	11.69	9.304	7.462	6.305	5.484	4.389	4.157	3.606	3.904	3.786	3.948	3.626	3.942	4.377	4.755	4.962	6.175	6.460	7.206	6.772	5.739	4.329	4.138	3.532	3.071	3.254	2.924	3.082	3.565	3.806	4.255	4.447	5.456	6.212	7.051	7.577	7.887	9.279	9.725	10.22	10.31	10.04	9.303	9.146	8.516	6.666	5.868	5.341
340.0	1326	1726	1647	1102	690.6	556.4	574.1	691.3	892.7	1162	1480	1692	1756	1612	1286	858.7	637.7	535.4	281.3	212.5	324.6	631.1	2760	9999.9	9999.9	2911	45.25	24.41	17.55	13.85	10.56	8.046	7.000	5.995	5.064	4.418	4.070	3.816	3.903	3.734	3.856	3.968	4.195	4.446	5.026	5.992	6.593	6.843	6.882	5.541	4.241	4.403	3.774	3.200	3.246	3.203	3.157	3.803	3.938	4.286	4.530	5.328	6.072	7.176	7.258	7.841	8.662	9.165	9.826	10.15	9.818	9.401	8.804	8.126	6.566	5.495	4.904
345.0	1273	1620	1563	1103	709.1	583.9	602.4	700.5	868.2	1125	1391	1614	1684	1556	1253	850.5	581.7	541.1	410.8	227.3	204.4	243.8	704.0	3572	9999.9	9999.9	395.6	37.34	22.33	15.85	12.42	9.145	7.294	5.792	5.328	4.519	3.879	3.816	3.964	3.610	3.727	4.060	4.169	4.376	5.206	5.825	6.276	6.315	6.549	5.262	4.223	4.266	3.744	3.340	3.244	3.100	3.213	3.819	3.953	4.231	4.320	4.939	5.836	6.427	7.239	7.419	8.201	8.812	9.068	9.296	9.417	8.891	8.506	8.037	6.735	5.608	4.928
350.0	1180	1487	1461	1059	743.2	642.3	646.0	713.7	853.6	1068	1307	1489	1545	1447	1198	842.0	591.4	484.9	470.6	366.3	233.2	189.7	266.9	890.3	3966	9999.9	9999.9	9086	40.91	22.52	16.06	11.52	8.621	6.894	5.756	4.818	4.320	3.988	3.871	3.501	3.739	3.643	3.927	4.290	4.681	5.369	5.524	5.928	5.943	5.082	4.114	4.337	4.027	3.454	3.432	3.307	3.561	3.794	3.889	4.017	4.434	4.968	5.518	6.098	6.752	6.964	7.582	8.014	8.466	8.843	8.750	8.170	7.948	7.605	6.312	5.704	5.121
355.0	1110	1356	1347	1022	784.0	722.3	708.5	748.2	850.9	1019	1227	1363	1422	1341	1139	849.5	626.8	502.2	437.9	458.7	358.0	232.1	205.8	313.7	974.4	2438	9999.9	9999.9	9999.9	47.46	23.29	15.68	11.10	8.203	6.761	5.336	4.587	4.172	4.079	3.638	3.748	3.631	3.870	3.976	4.360	4.928	5.136	5.240	5.412	4.975	4.154	4.267	4.046	3.661	3.605	3.532	3.752	3.858	3.997	4.281	4.067	4.843	5.283	5.751	6.298	6.604	6.953	7.557	7.994	8.098	8.081	7.369	7.439	7.198	6.110	5.515	4.712
360.0	1019	1269	1278	1009	805.5	754.6	760.6	781.5	870.3	1006	1169	1296	1343	1263	1098	846.2	653.6	533.1	455.1	444.4	455.7	311.5	223.9	212.1	328.8	631.9	2766	9999.9	9999.9	2783	41.98	20.86	14.16	10.50	8.014	5.936	5.246	4.463	4.356	4.006	3.800	3.882	3.922	3.921	4.350	4.648	4.809	5.289	5.436	4.695	4.029	4.335	3.921	3.974	3.694	3.922	4.135	3.899	4.267	4.455	4.645	4.917	5.043	5.317	6.012	6.042	6.496	7.233	7.104	7.444	7.362	7.428	6.902	6.736	6.168	5.554	4.907
365.0	966.9	1171	1191	1001	844.2	799.8	797.4	820.5	875.3	997.9	1139	1224	1265	1209	1063	850.6	680.0	570.6	493.0	441.5	464.1	421.7	276.3	215.2	206.1	246.6	702.7	3533	9999.9	9999.9	2228	33.58	19.11	13.22	9.684	6.923	5.966	4.900	4.329	4.180	4.067	3.844	3.714	4.263	4.141	4.585	5.008	5.394	5.273	4.561	3.904	4.518	4.000	4.006	3.842	3.909	4.227	4.031	4.374	4.515	4.700	4.874	5.143	5.443	5.400	5.868	6.301	6.563	6.938	6.814	7.054	6.811	6.621	6.863	5.944	5.684	5.015
370.0	915.3	1106	1110	967.9	876.6	844.6	852.8	851.9	891.6	973.5	1085	1169	1190	1145	1025	849.9	710.5	615.4	544.4	486.0	453.5	462.4	400.1	279.9	217.5	188.3	260.0	875.0	3948	9999.9	9999.9	8506	36.36	18.88	12.73	9.072	7.240	5.887	5.061	4.554	4.303	4.136	3.903	4.135	4.201	4.496	4.625	5.106	4.879	4.332	3.971	4.397	4.276	4.319	4.184	3.978	4.371	4.197	4.534	4.518	4.824	5.091	5.027	5.459	5.723	5.545	6.073	6.134	6.503	6.492	6.569	6.693	6.287	6.561	5.986	5.492	5.033
375.0	846.8	1015	1051	934.4	884.4	884.6	895.9	879.4	905.3	970.8	1035	1113	1126	1076	985.9	842.5	733.4	653.4	589.6	529.3	482.6	453.9	460.8	397.6	270.0	211.3	188.4	294.4	956.0	2459	9999.9	9999.9	9999.9	40.16	18.14	12.36	9.222	6.994	5.967	4.772	4.594	4.420	4.111	4.366	4.141	4.546	4.424	4.891	4.590	4.191	3.883	4.480	4.246	4.432	4.400	4.185	4.767	4.272	4.968	4.549	4.691	4.844	4.955	5.400	5.337	5.246	5.737	5.699	6.110	6.091	5.928	5.907	6.087	5.940	5.925	5.434	5.253
380.0	817.2	1004	1021	941.8	891.0	914.4	908.7	898.9	916.0	962.3	1019	1068	1072	1029	950.1	831.4	745.7	670.1	613.6	559.8	510.5	464.2	451.7	458.4	338.4	241.1	193.6	184.3	300.8	620.6	2866	9999.9	9999.9	2341	32.77	15.70	11.32	8.549	6.649	5.507	5.190	4.562	4.699	4.293	4.330	4.477	4.399	4.632	4.492	4.071	3.632	4.327	4.095	4.363	4.551	4.237	4.574	4.623	4.766	4.655	4.661	4.827	4.942	5.164	5.205	5.116	5.450	5.702	5.919	5.922	5.707	5.956	5.890	5.826	5.652	5.581	5.244
385.0	801.9	945.2	970.0	932.6	902.1	917.8	927.5	909.6	921.7	945.3	993.9	1027	1036	990.3	917.3	826.7	746.9	684.4	636.7	584.1	532.7	489.3	452.8	452.1	414.5	289.9	218.1	177.3	170.6	218.6	706.8	3623	9999.9	9999.9	1818	25.87	14.32	10.17	7.932	6.552	5.737	4.905	4.742	4.528	4.392	4.496	4.431	4.818	4.473	3.949	3.677	4.357	4.435	4.450	4.290	4.451	4.593	4.686	4.798	4.689	4.911	4.847	5.264	5.292	5.371	5.177	5.430	5.336	5.557	5.726	5.539	5.626	5.721	5.750	5.581	5.281	5.118
390.0	757.1	911.4	944.7	898.6	906.6	925.8	935.0	919.2	918.3	937.7	969.8	994.6	990.9	950.8	892.3	810.0	738.2	688.9	646.7	599.3	555.2	516.5	476.3	439.3	431.6	376.7	273.4	207.3	168.6	151.3	234.3	872.9	3822	9999.9	9999.9	6682	28.98	14.65	10.33	8.093	6.589	5.661	4.960	4.838	4.710	4.513	4.450	4.738	4.575	3.917	3.684	4.369	4.591	4.424	4.579	4.613	4.755	4.780	4.953	4.841	4.824	4.818	4.995	5.047	5.190	5.056	5.141	5.119	5.316	5.276	5.517	5.416	5.461	5.695	5.147	4.967	5.342
395.0	736.0	856.5	914.2	899.0	886.8	911.6	925.8	923.4	910.6	924.9	947.3	957.6	941.1	913.0	859.4	781.3	726.0	685.9	652.2	611.7	573.3	535.6	497.9	457.4	419.4	406.9	358.3	254.2	199.0	162.2	149.0	264.6	904.8	2433	9999.9	9999.9	9271	33.55	14.78	10.53	8.056	6.683	5.515	4.993	4.790	4.872	4.359	4.691	4.283	4.020	3.742	4.460	4.544	4.501	4.530	4.613	4.813	4.953	5.147	4.714	4.926	4.885	4.760	5.196	4.791	4.744	5.180	5.099	5.056	5.013	5.408	5.298	5.353	5.192	5.170	4.878	5.402
400.0	737.6	840.9	877.9	875.9	888.9	893.7	923.6	911.9	904.7	911.3	922.7	925.9	908.6	881.0	826.1	765.4	715.8	683.0	643.5	611.9	582.0	547.9	511.9	474.2	427.2	401.3	396.6	311.2	226.7	180.7	142.2	140.8	259.9	590.0	2745	9999.9	9999.9	2020	28.57	13.23	9.259	7.557	6.563	5.390	4.956	4.899	4.510	4.992	4.300	4.091	3.820	4.331	4.423	4.448	4.581	4.815	4.871	5.031	4.838	4.876	4.729	4.692	5.090	5.201	5.099	4.815	4.976	4.885	4.768	5.247	4.836	5.224	5.238	4.890	5.021	5.001	5.187
405.0	706.5	843.5	855.6	863.6	879.9	896.2	928.6	917.0	898.7	896.5	908.5	902.2	881.1	852.4	803.0	751.8	701.2	666.1	638.5	614.1	578.1	555.9	518.8	486.4	440.2	401.0	389.4	364.4	264.3	202.4	156.9	124.1	126.8	183.1	656.5	3302	9999.9	9999.9	1609	22.60	11.72	8.795	7.115	5.737	5.099	5.153	4.470	4.901	4.553	4.140	3.794	4.356	4.212	4.504	4.520	4.458	4.759	4.997	4.833	4.819	4.783	4.681	4.769	4.903	4.767	4.514	4.663	4.838	4.383	5.102	4.753	4.940	5.149	4.863	4.753	5.036	4.664
410.0	698.2	801.1	830.0	836.5	858.2	886.3	901.5	908.6	890.6	895.9	893.8	880.2	849.0	821.3	768.5	717.1	674.5	650.2	625.2	598.2	571.7	550.9	520.8	493.4	455.9	414.7	379.8	367.9	329.7	245.4	182.3	138.2	110.3	101.0	192.0	776.9	3375	9999.9	9999.9	6038	25.33	12.21	8.951	6.958	5.942	5.510	4.829	4.837	4.388	3.966	3.806	4.339	4.340	4.401	4.533	4.329	4.826	4.863	4.866	4.689	4.746	4.837	4.694	4.670	4.910	4.541	4.441	4.645	4.622	4.687	4.601	4.512	4.927	4.795	4.738	4.619	4.738
415.0	645.2	749.5	807.2	797.6	823.1	850.3	870.7	873.6	880.0	880.8	884.0	856.9	815.5	781.8	740.0	688.4	646.8	617.8	600.4	578.1	555.9	539.0	515.8	493.0	457.8	423.2	388.0	353.0	346.2	305.1	216.0	161.5	119.6	93.05	95.67	213.4	784.4	2369	8845	9999.9	7850	31.12	12.24	8.557	7.141	6.450	5.169	5.014	4.549	3.986	3.673	4.333	4.443	4.254	4.323	4.407	4.544	4.772	4.725	4.759	4.922	4.466	4.643	4.590	4.713	4.713	4.273	4.514	4.508	4.299	4.585	4.360	4.430	4.415	4.257	4.256	4.602
420.0	642.7	713.9	775.1	777.0	805.0	814.5	864.2	858.5	873.0	877.1	860.6	836.9	792.5	752.8	713.6	655.2	620.2	596.5	579.0	561.3	542.1	522.6	510.3	489.2	456.8	426.1	390.4	357.0	335.2	328.2	254.7	176.9	130.7	99.69	80.34	92.76	209.3	558.4	2294	9999.9	9999.9	1907	26.26	11.22	8.474	7.065	5.728	5.172	4.652	3.863	3.868	4.376	4.177	4.218	4.201	4.324	4.488	4.730	4.505	4.758	4.847	4.622	4.807	4.688	4.700	4.628	4.283	4.420	4.396	4.103	4.271	4.336	4.258	4.507	4.197	4.086	4.420
425.0	665.5	700.8	752.3	746.0	777.7	798.0	841.7	856.8	855.3	856.3	847.6	821.9	771.5	723.9	688.8	639.3	601.8	580.0	563.0	539.2	526.1	511.9	496.6	479.5	455.2	424.8	391.0	363.0	331.1	317.8	287.3	201.2	145.2	111.0	83.60	70.95	84.68	154.4	539.6	2927	9999.9	9999.9	1543	20.93	10.63	8.173	6.224	5.718	4.763	4.133	3.868	4.367	4.343	4.578	4.425	4.567	4.403	4.657	4.500	4.943	4.597	4.686	4.556	4.697	4.584	4.413	4.391	4.216	4.176	4.063	4.048	4.077	4.246	4.341	4.204	3.935	4.161
430.0	1198	678.7	730.1	729.9	757.5	782.0	818.7	847.2	847.8	850.8	844.2	806.8	753.8	706.6	658.9	611.0	579.3	556.4	533.6	521.7	507.7	494.0	483.8	470.9	450.8	422.9	393.1	366.9	337.5	308.7	286.4	242.7	172.8	124.6	95.64	74.33	63.98	69.17	148.4	678.7	2969	9999.9	9999.9	5470	24.26	11.24	7.514	6.448	5.413	4.561	4.160	4.353	4.328	4.347	4.431	4.345	4.629	4.588	4.408	4.717	4.547	4.631	4.618	4.467	4.338	4.298	4.492	4.072	4.205	4.099	4.057	3.964	4.182	4.119	4.106	3.981	4.068
435.0	3154	752.2	694.5	699.5	727.5	762.1	793.5	828.7	839.1	830.4	830.5	791.5	734.8	690.5	635.1	577.2	550.9	531.0	511.7	500.8	486.1	478.6	473.1	456.8	437.0	417.0	395.7	371.1	344.9	312.2	275.7	251.4	210.5	147.9	107.8	84.92	67.30	56.71	65.40	177.8	683.3	2319	7355	9999.9	7772	29.93	11.13	8.418	6.556	5.296	4.623	4.676	4.647	4.376	4.451	4.354	4.792	4.661	4.329	4.815	4.734	4.688	4.758	4.542	4.497	3.975	4.235	3.959	4.332	4.058	3.907	4.022	3.975	3.886	3.658	3.763	3.898
440.0	4852	1197	669.5	680.7	704.8	740.8	768.5	815.6	827.5	824.3	819.2	776.8	720.0	665.0	615.1	559.4	535.8	514.2	498.6	480.4	472.1	462.5	454.9	446.8	428.6	409.9	393.3	372.3	346.2	316.6	277.3	244.7	220.3	171.8	119.6	93.55	73.17	59.06	50.18	68.33	176.3	538.8	1889	9999.9	9999.9	1822	24.05	10.59	7.558	6.000	5.035	5.000	4.817	4.554	4.600	4.440	4.853	4.589	4.478	4.769	4.556	4.593	4.601	4.420	4.305	4.275	4.183	4.230	3.987	3.790	3.910	4.049	4.105	3.881	3.860	3.600	3.674
445.0	4963	2820	662.8	662.8	691.0	714.1	745.5	784.6	823.0	817.0	813.4	765.7	700.1	647.8	594.3	547.1	514.9	494.1	476.0	464.2	456.5	448.3	440.9	431.6	420.3	403.7	384.8	370.2	347.8	319.0	280.5	240.2	215.4	191.4	136.9	100.3	79.02	63.36	51.11	47.92	64.65	142.4	444.3	2799	9999.9	9999.9	1383	21.03	9.182	6.434	5.381	5.383	4.977	4.495	4.612	4.329	4.670	4.450	4.575	4.791	4.543	4.598	4.337	4.393	4.292	4.328	4.043	4.026	3.910	3.820	3.806	3.788	3.865	3.567	3.494	3.648	3.511
450.0	2674	5317	1401	635.5	648.5	677.9	715.0	752.8	782.8	792.6	779.3	732.1	675.8	613.0	564.5	515.2	485.8	463.7	449.6	435.8	426.1	421.7	417.2	406.5	395.8	384.8	369.2	356.3	338.0	312.5	277.1	240.0	205.5	185.6	158.8	116.5	88.27	70.90	56.72	47.34	44.32	56.50	120.8	645.0	2838	9600	9999.9	5482	89.73	9.382	6.446	6.130	5.562	4.860	4.799	4.621	4.745	4.838	4.546	4.617	4.655	4.717	4.412	4.402	4.248	4.306	4.086	3.869	3.847	3.782	3.538	3.517	3.560	3.545	3.432	3.359	3.459
455.0	1009	4862	4128	669.3	604.5	629.3	671.4	705.2	736.5	749.7	742.3	694.9	637.6	575.9	525.0	481.0	447.9	427.0	418.3	403.7	394.8	388.4	387.8	378.1	371.4	359.8	349.4	338.8	323.2	303.8	273.7	234.6	199.3	173.0	159.0	136.3	99.38	76.97	61.94	51.34	42.89	39.86	50.34	163.5	649.9	2200	5835	9999.9	7314	23.42	9.150	7.247	6.116	5.311	5.320	4.570	4.787	4.709	4.146	4.318	4.558	4.201	4.320	4.227	4.259	4.148	3.842	3.715	3.482	3.416	3.306	3.362	3.236	3.337	3.288	3.074	3.291
460.0	550.0	2722	6410	1330	569.5	599.1	639.8	667.1	709.0	712.5	710.1	663.6	605.3	537.2	492.8	446.9	424.2	399.8	389.0	376.5	367.9	363.9	363.7	356.9	349.1	336.7	328.9	319.2	307.7	291.9	263.5	228.9	195.3	167.5	147.8	139.0	112.2	81.96	65.23	54.74	44.81	38.55	35.32	57.39	162.8	508.0	1425	7538	9999.9	1406	20.24	9.541	6.761	5.622	5.553	4.684	4.534	4.648	4.222	4.464	4.113	4.072	4.092	4.173	4.383	3.814	3.711	3.700	3.562	3.149	3.137	3.279	3.319	3.245	3.051	3.144	3.180
465.0	480.7	1176	6261	3187	564.5	562.9	605.2	638.5	665.5	682.2	666.4	623.5	569.8	514.3	466.9	421.1	394.5	377.1	362.4	351.7	347.7	340.5	337.5	334.4	328.2	317.8	310.6	300.1	291.7	279.5	254.1	221.8	191.9	163.6	142.7	130.2	119.7	90.24	68.08	57.71	47.08	39.80	34.15	34.52	54.96	130.5	335.7	1961	9855	9999.9	1227	20.44	9.013	6.987	6.220	4.993	4.781	4.846	4.213	4.255	4.000	4.530	3.990	3.987	4.006	4.001	3.611	3.374	3.350	3.398	3.066	3.126	3.093	3.071	2.783	2.931	2.849
470.0	415.7	596.2	3197	6084	1317	515.9	546.4	582.3	610.5	627.4	619.6	583.7	524.5	474.1	424.3	384.9	359.3	341.3	329.5	319.0	312.3	306.4	305.5	301.0	295.5	289.7	282.7	276.0	270.4	256.9	235.5	208.8	182.2	156.2	136.2	118.2	110.6	98.75	76.12	59.75	48.86	41.36	35.12	30.55	32.30	46.69	90.58	453.0	2540	7174	9879	5326	100.4	9.794	6.910	5.649	5.168	4.820	4.449	4.197	3.986	4.053	3.917	3.946	3.786	3.802	3.423	3.192	3.142	3.126	2.911	2.863	2.854	2.819	2.626	2.720	2.620
475.0	387.2	435.3	1074	5294	4143	535.1	496.3	539.3	552.8	574.2	571.0	531.6	477.8	431.6	388.0	349.4	323.5	308.1	293.8	285.0	275.0	274.2	273.2	267.9	264.5	261.1	254.1	247.0	244.1	234.8	217.6	192.0	168.4	148.6	129.0	112.3	97.87	94.11	83.64	63.62	50.71	42.53	36.01	30.37	28.35	28.17	35.52	114.3	577.5	1623	3899	9999.9	6158	27.29	8.779	6.242	5.326	4.863	4.312	3.952	3.809	3.807	3.735	3.592	3.500	3.274	3.244	3.055	2.849	2.894	2.833	2.537	2.531	2.275	2.522	2.450	2.353
480.0	355.7	391.4	535.7	2794	6792	1215	466.6	496.2	520.7	532.5	536.0	500.5	448.4	404.5	357.9	326.3	298.0	283.4	272.8	262.3	256.7	251.7	249.7	249.8	245.3	240.1	237.4	232.0	228.4	219.6	202.1	182.4	162.4	142.5	124.2	107.7	93.21	86.33	83.70	70.10	52.48	43.54	37.20	31.70	28.58	25.35	23.46	38.96	140.5	372.6	915.6	4715	9999.9	1639	24.96	7.925	6.257	5.145	4.662	4.172	3.840	3.659	3.596	3.598	3.384	3.290	3.294	2.983	2.862	2.657	2.567	2.567	2.360	2.208	2.432	2.267	2.315
485.0	321.2	373.8	389.0	1106	6720	3173	458.1	469.5	490.4	505.1	500.9	479.2	424.5	378.5	338.8	308.1	283.4	266.1	254.0	246.8	240.2	237.6	232.9	232.0	227.9	225.5	221.3	216.0	214.6	207.5	191.0	174.3	155.4	135.5	119.0	104.9	91.49	81.58	77.83	74.69	56.63	44.97	38.29	32.92	28.07	25.63	21.84	23.22	43.55	94.06	214.8	1152	6640	9999.9	1517	20.81	8.163	5.768	4.981	4.371	3.839	4.032	3.539	3.528	3.324	3.194	3.166	3.001	2.697	2.695	2.482	2.132	2.344	2.268	2.282	2.179	2.122
490.0	272.0	356.3	361.5	518.4	3303	6440	1328	430.7	451.0	474.0	468.4	444.9	396.6	354.5	313.4	283.3	258.5	245.7	233.7	226.5	221.0	217.2	213.5	211.8	207.1	204.2	200.7	198.8	196.8	190.2	179.5	163.8	146.0	128.3	114.2	100.5	88.46	78.25	71.15	69.44	62.97	50.63	40.43	34.57	29.59	25.99	22.07	20.22	22.23	31.70	57.79	266.8	1630	5304	9636	5511	117.0	9.356	5.996	4.756	4.310	4.170	3.565	3.399	3.259	2.988	2.903	2.643	2.634	2.653	2.348	2.361	2.353	2.003	2.205	2.084	2.083
495.0	246.4	317.4	339.7	354.2	1031	5648	4595	484.6	416.9	430.5	428.4	403.6	367.9	325.3	286.7	257.7	239.6	222.6	213.7	204.4	197.7	196.4	194.0	192.6	187.7	184.8	182.4	180.2	179.2	174.2	164.5	148.9	134.7	121.3	105.1	94.39	84.74	75.43	67.07	61.89	60.17	55.22	43.33	34.99	30.76	26.22	23.43	19.88	17.75	18.12	22.25	68.23	371.7	1195	3478	9999.9	7494	31.05	8.937	5.974	4.845	4.221	3.676	3.371	2.995	2.922	2.838	2.601	2.488	2.419	2.305	2.166	1.989	2.269	2.057	1.941	1.923
500.0	211.6	287.5	330.4	305.5	470.4	2901	7341	1146	387.6	393.8	396.7	370.7	339.5	298.7	268.8	237.4	219.2	205.8	196.1	188.2	182.1	177.2	176.2	176.3	173.0	168.2	167.6	164.9	163.8	159.4	152.7	138.2	124.7	112.2	100.9	89.56	80.55	71.78	64.48	58.44	54.52	55.02	46.78	36.51	30.89	26.45	23.42	20.19	16.60	15.06	14.69	23.92	90.94	274.7	805.1	4196	9999.9	5556	28.92	7.510	5.449	4.276	3.711	3.600	3.046	3.025	2.643	2.435	2.347	2.384	2.255	2.103	1.805	2.039	1.716	1.722	1.940
505.0	194.1	250.7	304.7	295.8	317.9	1078	7302	2651	378.7	373.1	365.9	345.3	309.5	279.0	249.9	223.2	201.5	189.2	179.6	172.1	167.2	164.2	162.3	160.1	158.1	153.5	154.2	151.5	151.8	146.5	140.9	129.9	115.8	103.5	94.69	85.21	76.27	68.85	61.61	54.53	50.78	49.15	48.16	38.41	30.81	26.33	23.63	19.59	16.65	14.36	12.54	13.90	27.91	69.04	188.0	996.8	5505	9999.9	1727	23.79	6.540	4.753	3.833	3.323	3.029	2.685	2.749	2.505	2.189	2.140	2.069	1.799	1.820	1.990	1.618	1.672	1.751
510.0	179.3	206.8	252.3	283.9	261.2	445.2	3559	6916	1145	333.4	328.9	314.6	279.7	249.7	221.9	196.9	180.5	165.9	158.0	151.7	147.4	143.2	142.4	140.4	138.2	136.0	135.4	134.1	133.9	130.9	124.2	115.7	104.5	93.57	86.65	77.06	69.69	62.67	56.33	51.24	46.02	42.96	42.48	40.57	32.65	26.05	22.61	19.07	16.24	13.86	12.21	11.22	13.56	22.29	48.81	229.2	1314	4675	8044	4668	120.7	8.314	4.789	3.618	3.150	2.819	2.669	2.215	2.095	2.129	1.878	1.737	1.803	1.654	1.513	1.495	1.537
515.0	157.0	176.1	198.7	256.9	241.2	270.3	1028	6418	4751	364.0	291.1	275.5	247.1	224.7	195.9	173.4	158.3	146.3	140.4	134.3	126.7	125.1	125.2	120.2	120.5	118.9	117.3	117.2	115.5	115.2	109.0	101.5	92.54	82.78	76.15	69.03	61.73	57.68	52.26	46.23	42.34	38.61	36.40	36.42	35.19	27.17	21.33	18.32	15.91	13.17	11.99	10.74	9.992	11.50	17.05	56.98	298.5	1049	2507	7903	6095	184.0	7.213	4.476	3.456	2.710	2.488	2.122	2.192	2.116	1.765	1.810	1.618	1.531	1.560	1.467	1.357
520.0	144.2	164.4	172.5	212.0	240.4	224.2	396.8	3224	8233	1020	272.4	254.4	226.1	202.8	176.4	156.9	142.1	133.0	125.4	120.5	115.3	112.2	110.5	109.6	107.5	106.9	104.4	104.8	102.4	102.2	99.44	92.51	83.59	75.66	69.84	63.35	57.77	52.55	48.78	43.24	39.87	35.34	32.72	32.46	33.04	28.55	21.19	17.83	15.35	13.34	11.47	10.17	9.756	9.074	9.943	18.27	71.59	239.5	573.5	2965	8717	1927	29.67	5.835	4.036	2.846	2.425	2.181	2.182	1.898	1.637	1.669	1.509	1.485	1.446	1.374	1.289
525.0	130.2	151.0	155.8	179.3	231.3	202.9	248.9	1100	8553	3457	263.3	235.1	208.5	180.4	160.3	143.3	130.9	119.6	115.0	109.1	105.0	101.8	101.4	97.18	96.92	96.21	94.63	95.25	94.09	93.57	90.66	83.85	75.61	69.78	63.47	57.45	54.06	48.53	44.97	40.15	37.15	33.14	30.91	28.90	29.32	28.54	22.31	17.04	14.44	12.72	10.90	9.343	9.000	8.213	7.699	9.521	21.04	58.54	133.7	689.3	3798	7785	1764	24.31	4.738	3.218	2.564	2.335	1.978	1.846	1.656	1.636	1.414	1.424	1.365	1.201	1.136
530.0	111.9	131.8	138.0	148.9	191.8	203.8	191.5	395.7	4056	8133	983.0	207.7	182.6	161.0	142.2	127.5	115.4	105.4	99.97	94.09	91.20	89.15	87.85	85.44	84.62	82.93	82.46	81.92	82.14	80.94	78.39	72.99	66.98	61.16	56.14	50.87	47.09	43.19	39.65	36.05	33.20	30.21	27.97	25.84	24.28	25.35	22.98	18.00	13.89	11.92	10.40	8.999	8.455	7.842	6.994	7.282	9.239	17.36	34.35	158.6	884.8	3170	5589	3713	125.6	7.719	3.271	2.465	2.020	1.797	1.579	1.460	1.344	1.290	1.183	1.184	1.104
535.0	101.4	105.8	116.6	123.7	145.4	192.8	163.5	213.7	1085	7279	5396	216.2	159.9	141.0	124.5	109.7	99.46	91.85	85.82	81.38	77.07	76.23	74.34	73.44	71.84	70.11	70.48	69.19	69.48	69.28	66.95	62.70	57.59	52.96	48.54	44.56	40.67	37.96	34.96	31.82	29.33	26.73	24.53	22.12	21.16	19.94	20.61	19.22	13.81	11.05	9.605	8.540	7.635	7.164	6.732	6.573	6.314	8.098	11.46	39.08	201.0	710.5	1566	5184	4821	198.1	5.655	2.744	2.174	1.813	1.484	1.376	1.347	1.318	1.030	1.159	0.975
540.0	86.34	99.11	101.2	110.9	118.0	165.3	155.1	160.4	363.4	3425	9486	790.5	146.4	128.3	109.9	99.01	88.32	81.20	75.65	72.61	68.94	66.95	66.32	64.52	63.75	62.67	61.58	61.52	62.17	60.88	58.82	55.13	50.45	47.42	42.85	38.81	36.63	34.42	31.33	28.73	26.35	24.56	22.09	20.81	19.13	17.57	17.53	18.11	14.78	10.82	8.802	7.689	6.949	6.491	6.073	5.919	5.480	5.636	5.953	12.11	48.16	161.9	356.2	1786	5932	1963	30.22	4.389	2.542	1.931	1.632	1.342	1.293	1.107	0.934	0.953	0.948
545.0	75.12	90.35	88.41	94.81	105.6	139.5	162.1	137.7	187.7	1077	9542	3189	138.3	113.8	97.73	88.12	78.89	72.06	67.67	65.08	60.92	59.34	59.03	57.71	56.01	54.87	55.33	54.28	54.61	53.10	53.13	48.87	45.03	41.84	38.77	35.11	32.97	30.76	28.57	25.56	23.76	21.84	20.22	18.67	17.29	15.96	14.71	14.90	14.63	11.10	8.381	7.370	6.514	6.119	5.965	5.389	5.281	4.897	4.559	5.944	13.82	39.46	83.15	411.4	2381	5412	1710	24.42	3.525	2.171	1.869	1.563	1.305	1.112	1.038	0.897	0.908
550.0	69.04	73.37	78.33	78.45	88.42	104.8	151.6	128.5	130.7	343.5	4251	8261	605.7	99.62	83.26	76.40	66.58	61.04	57.16	55.12	51.06	50.76	49.55	48.14	46.96	45.77	45.85	45.38	45.53	44.63	44.26	41.11	37.70	34.98	32.19	29.23	27.78	26.19	23.55	22.03	20.14	18.66	17.26	16.07	15.21	13.74	12.49	12.00	12.21	11.35	8.399	6.842	5.646	5.517	5.170	4.797	4.895	4.511	4.089	4.089	5.969	11.57	21.39	94.87	549.1	2052	3828	2637	126.5	5.944	2.190	1.586	1.272	1.206	0.954	0.835	0.732
555.0	61.10	65.35	71.20	68.18	69.80	77.73	111.8	129.9	106.0	155.9	1075	7685	4329	113.3	71.30	62.63	53.89	49.96	47.16	45.01	42.70	41.05	40.96	39.48	38.33	36.84	36.65	36.49	35.96	36.12	35.79	33.16	31.13	27.87	26.43	24.38	23.06	21.54	19.66	18.64	16.55	15.66	14.42	13.24	12.45	11.29	10.11	9.582	9.268	9.782	8.621	6.335	5.034	4.829	4.547	4.233	4.090	4.059	3.929	3.373	3.727	4.893	7.080	23.43	124.9	460.2	1057	3308	2020	185.4	4.030	1.827	1.354	1.084	0.922	0.837	0.712
560.0	51.85	55.67	62.73	57.94	59.84	64.41	81.36	128.9	95.38	102.9	310.3	3596	8513	432.4	65.57	54.62	47.60	42.88	41.08	37.24	36.02	35.09	33.83	33.69	32.70	31.83	30.46	31.13	31.01	30.69	30.69	27.82	25.83	23.73	22.90	20.89	19.48	17.94	16.56	15.38	14.10	13.12	12.68	11.54	11.12	9.951	9.032	8.128	7.232	7.746	7.824	6.547	4.856	4.396	3.900	3.899	3.790	3.413	3.851	3.207	3.015	3.130	3.708	7.423	29.99	104.8	239.8	1106	3398	1862	29.93	2.806	1.735	1.113	0.963	0.760	0.645
565.0	47.87	57.06	57.07	50.51	54.12	54.67	63.30	114.0	96.38	85.87	133.9	1081	9186	1141	59.88	48.80	42.61	37.02	35.30	32.86	30.49	30.40	29.29	28.43	27.93	27.25	25.97	26.04	26.74	26.02	25.44	23.88	22.10	20.97	19.28	17.66	17.41	15.92	14.50	13.43	12.34	11.35	10.76	10.35	9.615	8.544	7.911	7.169	6.470	6.240	6.909	6.439	4.758	4.051	3.690	3.507	3.225	3.127	3.150	3.250	2.731	2.446	2.514	3.483	8.610	25.36	55.93	254.5	1369	3366	1416	22.56	2.097	1.295	0.999	0.714	0.757
570.0	49.81	50.78	49.02	44.81	47.08	47.71	52.22	80.31	105.8	74.29	84.60	304.2	4277	6679	378.7	41.53	34.65	31.61	28.67	27.41	25.65	25.08	24.65	23.16	22.67	22.91	21.62	21.85	21.91	21.75	21.12	19.48	18.32	16.81	15.92	14.41	13.70	12.96	11.91	10.84	10.13	9.491	9.022	8.472	7.868	7.236	6.713	5.815	5.472	5.085	5.084	5.489	4.761	3.928	3.276	3.004	2.849	2.622	2.681	2.658	2.659	2.335	2.167	2.424	3.647	7.255	14.26	58.91	315.1	1221	2308	1145	116.4	3.620	1.155	0.892	0.723
575.0	44.15	50.57	47.47	39.50	38.02	39.11	43.11	54.03	99.38	80.60	68.84	118.0	1062	6873	3156	46.67	29.76	26.90	24.09	22.88	20.28	20.71	20.18	18.74	18.12	18.79	17.58	17.81	18.29	17.63	16.92	15.56	14.67	13.78	12.56	11.82	10.97	10.75	9.683	8.834	8.493	7.798	7.308	6.922	6.239	6.147	5.311	5.075	4.493	4.008	3.879	3.810	4.282	3.876	3.080	2.735	2.465	2.239	2.222	2.227	2.157	2.329	2.200	1.901	2.234	3.257	4.633	14.56	71.57	273.7	618.9	1786	1813	33.22	2.692	1.129	0.920
580.0	41.44	48.65	43.94	35.40	30.54	34.35	36.36	44.06	78.96	91.91	65.85	74.25	285.0	3377	6704	103.6	27.46	23.91	21.19	19.27	17.98	17.69	17.23	16.36	16.14	15.00	15.20	14.77	15.48	14.60	14.00	13.30	12.41	11.54	10.49	10.11	9.609	9.098	8.420	7.735	7.593	6.722	6.256	6.077	5.591	5.312	4.598	4.213	3.899	3.451	3.239	2.989	3.674	3.812	3.005	2.450	2.227	2.017	2.055	1.877	1.886	1.829	2.155	1.682	1.814	2.053	2.322	4.620	17.14	62.40	140.3	597.3	2101	1387	28.16	1.585	0.915
585.0	44.73	45.33	50.26	33.11	32.25	29.59	34.02	38.44	59.18	99.80	67.91	66.69	111.1	1021	7582	756.4	26.93	21.23	19.38	17.63	16.58	15.52	14.17	14.13	13.19	12.90	13.09	12.80	12.75	12.38	12.00	11.53	10.64	10.09	9.307	8.764	8.354	7.545	7.066	6.517	6.474	5.549	5.673	5.203	5.162	4.603	4.012	3.749	3.351	3.130	2.960	2.691	2.787	3.319	3.040	2.479	2.114	1.757	1.840	1.781	1.649	1.516	2.043	1.804	1.626	1.559	1.753	2.180	5.032	14.98	32.77	137.3	805.2	2046	940.8	20.19	1.263
590.0	50.35	52.76	48.76	36.83	28.64	28.49	30.97	35.22	46.49	87.76	81.50	63.35	70.05	273.1	3638	4730	205.6	19.57	16.62	14.99	13.84	12.80	12.29	12.05	11.23	10.75	10.80	10.53	10.51	10.42	10.34	9.448	9.019	8.256	7.879	7.353	7.097	6.487	5.901	5.584	5.336	4.770	4.720	4.253	4.180	3.907	3.442	3.291	2.972	2.513	2.416	2.211	2.160	2.392	2.707	2.412	1.924	1.663	1.623	1.408	1.509	1.313	1.577	1.643	1.500	1.361	1.501	1.445	2.184	4.303	8.256	31.64	184.6	715.8	1385	845.6	110.0
595.0	47.00	57.49	48.64	36.58	25.71	24.33	26.87	32.08	41.16	63.68	96.67	67.39	63.97	100.3	896.1	5264	1823	21.17	15.00	12.68	12.09	11.00	10.51	10.16	9.456	9.066	8.741	8.676	8.949	8.742	8.085	7.986	7.341	6.775	5.914	6.263	5.673	5.060	4.747	4.633	4.502	4.187	4.145	3.655	3.413	3.205	2.878	2.618	2.383	2.108	2.032	1.751	1.712	1.743	2.118	2.365	2.029	1.557	1.489	1.392	1.281	1.288	1.298	1.255	1.430	1.486	1.124	1.218	1.275	1.710	2.684	7.837	41.96	160.2	360.9	1058	1168
600.0	45.89	56.61	51.56	35.38	24.56	24.44	24.76	28.86	38.97	54.83	97.57	73.95	62.29	62.85	231.7	2840	4282	64.15	13.35	11.64	10.37	9.271	8.934	8.785	8.328	7.671	7.383	7.325	7.703	7.237	7.038	6.589	5.823	5.561	5.390	5.253	4.712	4.514	4.310	3.940	3.740	3.493	3.533	3.136	2.778	2.780	2.687	2.189	2.325	1.977	1.663	1.687	1.601	1.451	1.690	1.908	1.945	1.480	1.221	1.184	1.133	1.231	1.150	0.980	1.150	1.461	1.154	1.144	1.047	1.208	1.359	2.569	10.07	36.44	81.71	340.2	1241
605.0	51.90	57.45	50.84	35.32	26.69	22.21	23.96	30.34	37.91	50.09	82.82	86.97	62.81	54.87	81.26	890.6	5320	518.2	13.54	11.25	9.697	8.584	7.881	7.473	7.282	6.650	6.536	6.434	6.076	6.325	6.228	5.423	5.189	4.945	4.723	4.340	4.314	3.542	3.714	3.611	3.300	3.155	2.889	2.556	2.744	2.369	2.525	2.114	2.154	1.649	1.536	1.536	1.332	1.430	1.286	1.469	1.668	1.629	1.268	1.109	0.951	1.115	0.992	0.943	0.990	1.291	1.134	1.096	0.976	0.939	0.905	1.236	2.882	8.763	18.94	77.92	451.2
610.0	48.38	57.89	50.43	36.76	26.00	22.02	22.93	29.16	38.51	45.56	68.24	96.69	71.46	55.19	48.00	226.3	2900	3090	46.62	10.12	8.674	7.285	6.855	6.448	6.194	5.778	5.638	5.373	5.227	5.356	5.237	4.867	4.672	4.075	3.863	3.653	3.370	3.253	2.997	2.896	2.827	2.595	2.474	2.286	2.278	2.250	1.993	1.869	1.811	1.435	1.335	1.256	1.149	1.204	1.096	1.200	1.379	1.463	1.259	1.058	0.905	0.901	0.897	0.790	0.902	0.966	1.067	1.177	0.990	0.814	0.944	0.883	1.181	2.501	4.805	17.96	103.2
615.0	56.59	61.24	55.69	35.24	22.13	20.08	22.11	28.15	35.27	46.54	60.92	91.57	84.96	58.05	42.99	71.42	731.6	3932	561.0	10.78	7.515	6.325	5.856	5.530	5.220	4.981	4.647	4.149	4.339	4.383	4.312	4.046	3.803	3.143	3.176	3.061	2.965	2.647	2.430	2.393	2.264	2.162	2.033	2.048	1.969	1.760	1.619	1.615	1.526	1.289	1.000	1.043	0.996	0.931	0.949	0.986	1.002	1.168	1.220	0.960	0.821	0.690	0.930	0.828	0.836	0.813	0.813	1.133	1.073	0.903	0.755	0.765	0.780	1.008	1.671	4.540	23.66
620.0	59.55	61.57	52.49	34.44	23.45	20.97	21.24	25.91	35.96	46.60	57.20	81.42	93.32	60.19	42.78	36.19	180.2	2396	2718	33.98	8.287	6.385	5.481	4.994	4.849	4.163	4.176	4.202	3.698	3.803	3.857	3.451	3.027	2.858	2.709	2.616	2.540	2.350	2.298	2.169	1.842	1.878	1.775	1.635	1.735	1.602	1.524	1.650	1.237	1.266	0.925	1.016	0.914	0.840	0.729	0.929	0.795	0.948	1.145	0.976	0.764	0.708	0.805	0.793	0.790	0.807	0.745	0.982	0.949	0.935	0.760	0.763	0.747	0.763	0.832	1.424	5.846
625.0	52.59	58.04	53.65	37.36	22.41	22.05	20.51	28.18	35.00	45.79	59.75	74.79	96.16	66.25	43.88	28.49	53.97	820.3	3897	316.1	8.055	6.037	4.935	4.817	4.426	4.021	3.970	4.067	3.410	3.534	3.384	2.932	2.674	2.765	2.607	2.197	2.231	2.153	1.935	2.152	1.641	1.533	1.515	1.511	1.508	1.431	1.385	1.383	1.170	1.041	0.928	0.934	0.802	0.763	0.777	0.797	0.740	0.768	1.089	1.049	0.863	0.720	0.752	0.726	0.656	0.743	0.708	0.789	0.827	1.010	0.938	0.833	0.779	0.680	0.748	0.822	1.795
630.0	45.66	63.41	54.47	37.04	21.86	19.56	21.34	28.39	35.08	47.55	60.36	70.83	88.52	76.38	45.69	26.46	24.97	200.8	2413	2119	29.78	6.032	4.867	4.428	3.815	3.494	3.368	3.216	3.012	2.983	2.705	2.499	2.459	2.462	2.192	2.147	1.914	1.944	1.642	1.877	1.637	1.330	1.382	1.340	1.262	1.231	1.190	1.159	1.059	0.963	0.765	0.800	0.710	0.657	0.713	0.709	0.711	0.646	0.828	0.809	0.803	0.745	0.745	0.681	0.683	0.678	0.718	0.737	0.886	0.940	0.934	0.759	0.818	0.692	0.639	0.618	0.865
635.0	45.64	55.32	57.70	34.53	19.58	19.93	22.15	27.33	33.60	46.94	58.91	69.49	77.49	81.62	49.54	26.50	17.81	53.99	637.6	3181	422.3	7.097	4.446	4.032	3.325	2.854	2.921	2.750	2.902	2.702	2.357	2.151	2.153	2.221	1.915	1.816	1.787	1.766	1.476	1.421	1.423	1.345	1.198	1.104	1.045	1.111	1.005	1.033	1.048	0.792	0.799	0.681	0.651	0.542	0.665	0.639	0.589	0.662	0.622	0.671	0.770	0.750	0.727	0.704	0.648	0.714	0.717	0.755	0.828	0.889	0.847	0.975	0.870	0.766	0.644	0.624	0.732
640.0	54.78	57.56	58.79	34.92	23.33	18.71	20.15	26.95	34.47	45.54	59.18	66.11	73.07	78.15	55.81	27.46	15.76	20.29	153.2	2189	1814	16.76	4.786	3.726	3.419	2.723	2.927	2.511	2.518	2.425	2.059	2.138	1.850	1.943	1.727	1.655	1.781	1.596	1.335	1.214	1.359	1.430	1.089	1.042	1.079	0.953	0.876	0.998	1.030	0.732	0.752	0.613	0.592	0.531	0.539	0.575	0.641	0.652	0.595	0.728	0.674	0.771	0.708	0.772	0.701	0.706	0.702	0.854	0.866	0.817	0.885	0.979	0.932	0.745	0.749	0.695	0.781
645.0	58.07	61.31	55.37	36.40	23.85	17.94	19.38	26.13	33.49	45.59	59.18	67.08	70.07	72.45	61.72	28.63	15.51	13.17	40.97	849.4	2929	61.07	5.089	3.717	3.267	2.816	2.685	2.375	2.271	2.216	2.066	2.011	1.774	1.680	1.679	1.559	1.489	1.534	1.220	1.208	1.257	1.450	1.306	1.086	0.900	0.947	0.892	0.943	0.884	0.728	0.731	0.698	0.504	0.518	0.548	0.529	0.616	0.572	0.584	0.593	0.633	0.701	0.823	0.814	0.706	0.774	0.733	0.883	0.830	0.793	0.911	0.924	0.941	1.001	0.774	0.686	0.706
650.0	64.30	59.15	54.18	35.72	20.23	16.68	17.96	26.75	34.44	45.67	57.03	66.98	70.79	64.71	63.60	30.64	15.79	10.69	15.73	221.9	2679	477.2	7.119	3.947	3.325	2.841	2.589	2.391	2.022	2.310	2.209	1.931	1.720	1.632	1.717	1.370	1.302	1.381	1.080	1.168	1.121	1.295	1.426	0.994	0.872	0.853	0.952	0.815	0.924	0.658	0.692	0.606	0.453	0.544	0.525	0.458	0.534	0.466	0.530	0.463	0.567	0.651	0.809	0.751	0.682	0.624	0.764	0.747	0.749	0.834	0.842	0.850	0.963	0.956	0.845	0.901	0.951
