Sample:	'1
File name:	T2025030515»ôÆÂÇÅ.FD3
Run date:	'10:59:55, 03/06/2025
Operator:	Administrator
Comment:	'

Instrument
Model:	F-2700 FL Spectrophotometer
Serial number:	23B8-004
ROM Version:	4J14000 07

Instrument parameters
Measurement type:	3-D scan
Data mode:	Fluorescence
EX  Start WL:	220.0 nm
EX  End WL:	600.0 nm
EX Sampling interval:	5.0 nm
EM  Start WL:	230.0 nm
EM  End WL:	650.0 nm
EM Sampling interval:	5.0 nm
Scan speed:	12000 nm/min
EX Slit:	5.0 nm
EM Slit:	5.0 nm
PMT Voltage:	700 V
Response:	Auto 
Corrected spectra:	Off
Contour interval:	50.000

Peak integration
Integration method:	Rectangular
Sensitivity:	1
Threshold:	1.000

Peaks
No.	ApexEX/EM(nm)	Height(Data)
1	225.0/615.0	43.63
2	230.0/340.0	1334
3	230.0/575.0	52.27
4	230.0/585.0	50.93
5	230.0/630.0	39.88
6	235.0/510.0	219.5
7	240.0/265.0	365.7
8	240.0/525.0	204.9
9	245.0/270.0	354.5
10	245.0/535.0	168.1
11	250.0/275.0	471.7
12	250.0/550.0	139.6
13	255.0/285.0	535.0
14	255.0/560.0	125.5
15	260.0/290.0	567.0
16	260.0/575.0	111.4
17	265.0/585.0	102.2
18	270.0/600.0	104.9
19	275.0/310.0	1579
20	275.0/615.0	110.0
21	280.0/315.0	1512
22	280.0/625.0	95.81
23	285.0/640.0	71.54
24	315.0/355.0	406.6
25	320.0/360.0	385.5
26	325.0/370.0	359.4
27	330.0/375.0	351.2
28	335.0/380.0	347.1
29	340.0/390.0	309.3
30	350.0/400.0	292.1
31	365.0/420.0	240.7
32	410.0/480.0	52.72
33	425.0/500.0	31.60
34	445.0/525.0	16.81
35	460.0/340.0	3.675
36	475.0/345.0	3.602
37	480.0/350.0	3.505
38	505.0/275.0	2.879
39	510.0/280.0	3.329
40	520.0/285.0	3.308
41	530.0/290.0	3.578
42	535.0/270.0	38.12
43	550.0/305.0	7.516
44	560.0/310.0	7.970
45	570.0/315.0	7.922
46	580.0/320.0	7.450
47	585.0/325.0	6.914

Data points
	220.0	225.0	230.0	235.0	240.0	245.0	250.0	255.0	260.0	265.0	270.0	275.0	280.0	285.0	290.0	295.0	300.0	305.0	310.0	315.0	320.0	325.0	330.0	335.0	340.0	345.0	350.0	355.0	360.0	365.0	370.0	375.0	380.0	385.0	390.0	395.0	400.0	405.0	410.0	415.0	420.0	425.0	430.0	435.0	440.0	445.0	450.0	455.0	460.0	465.0	470.0	475.0	480.0	485.0	490.0	495.0	500.0	505.0	510.0	515.0	520.0	525.0	530.0	535.0	540.0	545.0	550.0	555.0	560.0	565.0	570.0	575.0	580.0	585.0	590.0	595.0	600.0
230.0	38.10	657.2	1427	380.5	14.21	4.904	4.153	3.185	3.266	2.960	2.609	2.621	2.434	2.020	1.651	1.475	1.153	1.096	1.007	0.857	0.830	0.748	0.663	0.664	0.623	0.552	0.471	0.512	0.493	0.457	0.448	0.414	0.365	0.391	0.337	0.347	0.326	0.303	0.297	0.292	0.278	0.326	0.307	0.245	0.257	0.246	0.894	3.403	5.280	3.715	1.242	0.323	0.215	0.196	0.202	0.188	0.215	0.201	0.192	0.192	0.187	0.201	0.193	0.194	0.202	0.171	0.201	0.193	0.192	0.197	0.194	0.215	0.189	0.207	0.200	0.194	0.179
235.0	67.10	209.9	1168	1878	436.5	22.75	6.180	3.662	3.673	3.513	3.409	2.773	2.445	1.916	1.828	1.537	1.259	1.052	0.832	0.859	0.828	0.798	0.599	0.568	0.560	0.549	0.526	0.546	0.495	0.439	0.427	0.404	0.363	0.333	0.313	0.314	0.321	0.301	0.294	0.294	0.309	0.323	0.363	0.384	0.331	0.251	0.384	1.064	2.538	5.162	6.984	6.891	2.864	0.530	0.188	0.236	0.200	0.212	0.199	0.219	0.219	0.185	0.209	0.205	0.198	0.210	0.197	0.191	0.188	0.187	0.199	0.208	0.181	0.167	0.169	0.197	0.209
240.0	98.68	99.12	410.2	2006	2197	322.5	11.27	4.462	4.308	3.345	3.594	3.019	2.582	1.929	1.749	1.327	1.263	1.225	0.922	0.930	0.842	0.805	0.687	0.657	0.571	0.665	0.506	0.500	0.525	0.483	0.409	0.418	0.379	0.376	0.366	0.264	0.300	0.312	0.343	0.337	0.302	0.301	0.351	0.387	0.427	0.434	0.391	0.464	0.766	1.758	4.723	11.27	12.77	7.734	2.406	0.381	0.244	0.220	0.217	0.231	0.217	0.223	0.206	0.229	0.233	0.210	0.204	0.197	0.204	0.184	0.204	0.212	0.189	0.204	0.176	0.197	0.242
245.0	92.87	148.2	134.5	788.0	2874	2213	224.6	7.189	4.745	4.213	4.003	3.303	2.762	2.194	1.739	1.443	1.211	1.278	0.904	0.964	0.912	0.832	0.763	0.732	0.722	0.688	0.576	0.531	0.516	0.501	0.465	0.489	0.419	0.405	0.361	0.270	0.300	0.298	0.285	0.367	0.266	0.273	0.305	0.263	0.318	0.483	0.631	0.464	0.412	0.605	1.287	4.517	10.87	16.86	14.57	6.650	1.406	0.306	0.228	0.221	0.278	0.230	0.203	0.208	0.209	0.179	0.248	0.212	0.189	0.194	0.214	0.193	0.209	0.225	0.196	0.224	0.192
250.0	48.06	125.5	200.9	245.4	1025	2775	3055	828.6	35.05	5.539	5.321	3.998	3.157	2.570	2.022	1.709	1.514	1.348	1.152	1.039	0.954	0.858	0.798	0.733	0.699	0.711	0.620	0.512	0.539	0.511	0.454	0.481	0.444	0.441	0.363	0.328	0.326	0.309	0.315	0.351	0.262	0.262	0.316	0.258	0.288	0.326	0.451	0.604	0.749	0.733	0.609	1.242	2.837	6.027	10.74	15.90	19.33	15.10	7.311	1.737	0.338	0.237	0.223	0.218	0.220	0.194	0.222	0.215	0.195	0.190	0.199	0.213	0.206	0.233	0.207	0.254	0.214
255.0	27.00	47.24	169.5	277.5	297.9	759.8	3120	4849	276.2	27.59	6.970	5.486	4.409	3.345	2.751	2.092	1.632	1.494	1.155	1.252	0.972	0.790	0.822	0.830	0.627	0.640	0.738	0.608	0.513	0.478	0.518	0.481	0.483	0.472	0.350	0.355	0.341	0.335	0.344	0.354	0.371	0.297	0.316	0.249	0.358	0.316	0.333	0.309	0.491	0.799	1.224	1.039	0.973	1.589	2.681	4.082	8.773	19.99	32.39	24.72	10.76	1.664	0.271	0.236	0.228	0.218	0.226	0.220	0.226	0.200	0.225	0.213	0.216	0.236	0.252	0.257	0.222
260.0	26.38	26.71	77.21	274.9	279.0	211.8	1050	4927	4927	221.4	15.23	6.612	5.417	3.511	2.856	2.101	1.930	1.706	1.365	1.423	0.979	1.101	0.878	0.758	0.773	0.770	0.716	0.588	0.564	0.478	0.529	0.502	0.389	0.474	0.410	0.392	0.333	0.342	0.374	0.300	0.332	0.372	0.334	0.272	0.364	0.300	0.261	0.255	0.288	0.399	0.939	1.572	1.499	0.919	0.874	1.147	2.292	5.913	16.16	32.49	40.61	22.69	8.228	0.793	0.272	0.262	0.188	0.218	0.252	0.192	0.223	0.281	0.209	0.246	0.212	0.206	0.240
265.0	25.32	24.00	33.01	142.0	365.7	191.8	270.2	1909	6736	4643	165.1	10.40	7.474	4.791	3.081	2.392	2.144	1.919	1.511	1.328	1.146	1.025	0.881	0.813	0.803	0.734	0.658	0.674	0.740	0.573	0.721	0.617	0.523	0.475	0.444	0.437	0.350	0.406	0.359	0.332	0.344	0.334	0.362	0.339	0.315	0.285	0.230	0.246	0.310	0.277	0.402	0.960	1.696	1.771	1.207	0.644	0.799	1.587	4.031	10.75	26.70	45.49	31.08	19.17	4.373	0.457	0.299	0.280	0.272	0.239	0.259	0.264	0.249	0.287	0.247	0.263	0.261
270.0	41.08	34.52	33.02	54.36	191.7	354.5	240.2	475.4	2373	6183	5397	696.8	33.45	6.860	4.895	3.257	2.655	2.163	1.657	1.441	1.270	1.061	1.012	0.894	0.844	0.847	0.731	0.755	0.755	0.652	0.635	0.616	0.502	0.544	0.532	0.424	0.430	0.455	0.358	0.374	0.339	0.334	0.388	0.314	0.337	0.361	0.267	0.256	0.326	0.259	0.281	0.435	0.701	1.171	1.697	1.813	1.534	0.965	1.263	2.728	6.535	13.92	22.38	38.12	37.68	37.62	13.49	4.440	0.511	0.312	0.310	0.281	0.270	0.283	0.260	0.259	0.277
275.0	72.01	83.03	76.09	51.93	65.52	193.2	471.7	297.3	581.0	1623	5775	9602	926.6	27.67	7.339	5.030	3.488	2.613	2.307	1.666	1.469	1.395	1.131	1.014	0.998	0.832	0.861	0.776	0.789	0.699	0.665	0.685	0.592	0.664	0.594	0.570	0.503	0.444	0.455	0.434	0.393	0.416	0.460	0.345	0.359	0.389	0.407	0.446	0.368	0.339	0.316	0.394	0.381	0.491	0.685	1.020	2.224	2.879	1.968	1.224	1.817	3.467	5.384	9.229	13.22	32.95	61.46	63.08	21.31	4.043	0.544	0.322	0.316	0.297	0.298	0.295	0.296
280.0	125.2	143.1	140.8	80.10	53.90	84.47	345.5	519.8	258.0	439.7	1783	8786	8205	136.0	14.79	6.725	4.285	3.577	2.513	1.874	1.694	1.449	1.268	1.124	1.190	0.977	0.811	0.725	0.830	0.731	0.718	0.743	0.673	0.652	0.697	0.530	0.596	0.445	0.454	0.457	0.409	0.513	0.499	0.377	0.427	0.500	0.545	0.544	0.526	0.459	0.411	0.370	0.399	0.407	0.480	0.558	1.077	2.066	3.329	2.595	1.333	1.353	1.727	2.544	3.443	8.582	23.02	51.40	72.85	30.90	16.91	2.012	0.363	0.325	0.364	0.332	0.345
285.0	175.2	227.8	220.2	129.1	70.66	65.40	157.7	535.0	323.2	230.8	526.7	2902	9999.9	6200	100.9	10.32	5.894	3.952	3.267	2.355	2.096	1.542	1.543	1.234	1.219	1.146	1.016	0.893	0.953	0.676	0.673	0.713	0.654	0.748	0.811	0.582	0.648	0.577	0.521	0.467	0.414	0.510	0.463	0.556	0.578	0.625	0.603	0.724	0.816	0.587	0.583	0.524	0.496	0.431	0.496	0.462	0.631	0.959	1.928	3.265	3.308	2.120	1.205	1.237	1.457	2.658	6.037	13.91	32.60	58.63	75.67	27.34	10.49	0.905	0.312	0.365	0.366
290.0	250.6	328.3	330.0	203.3	115.1	92.20	120.2	280.3	567.0	514.6	389.4	890.8	3197	7426	6963	414.3	24.35	6.219	4.095	3.057	2.482	1.778	1.631	1.463	1.305	1.159	1.008	0.969	0.908	0.831	0.706	0.698	0.731	0.767	0.748	0.754	0.667	0.717	0.598	0.514	0.507	0.492	0.540	0.576	0.768	0.785	0.793	1.016	1.032	0.934	0.789	0.790	0.622	0.577	0.582	0.572	0.620	0.784	1.018	1.581	2.374	3.354	3.578	2.658	1.884	1.808	2.616	4.388	8.538	15.95	30.96	42.68	56.84	48.55	18.32	8.471	1.231
295.0	291.9	427.1	417.2	286.4	171.1	138.8	157.3	235.1	387.4	817.3	824.1	608.4	1020	1939	5328	8811	593.7	23.82	5.824	4.000	2.887	2.571	1.875	1.670	1.559	1.216	1.169	1.090	0.923	0.850	0.818	0.750	0.775	0.919	0.794	0.814	0.776	0.774	0.731	0.557	0.640	0.510	0.649	0.712	0.794	0.873	1.030	1.305	1.302	1.094	0.913	0.852	0.817	0.684	0.720	0.760	0.824	0.887	0.944	1.227	1.548	2.030	2.705	4.315	5.374	3.779	2.560	2.622	3.656	5.146	8.195	10.67	15.39	26.69	55.48	74.64	29.22
300.0	362.5	495.9	504.3	355.6	232.1	204.8	228.4	299.2	418.8	721.8	1238	893.3	690.5	727.2	1581	7195	5476	84.42	12.05	5.198	3.512	2.876	2.109	1.929	1.770	1.329	1.275	1.123	1.149	1.055	0.926	0.909	0.728	0.914	0.886	0.876	0.856	0.732	0.745	0.678	0.645	0.635	0.705	0.639	0.919	1.117	1.205	1.425	1.530	1.385	1.212	1.222	1.055	0.918	0.883	0.953	1.035	1.250	1.305	1.673	1.741	2.131	2.426	3.406	5.016	6.317	5.207	3.691	3.276	3.490	3.908	3.972	4.924	7.363	16.73	41.96	70.21
305.0	409.0	557.2	591.7	442.7	306.8	289.2	347.9	452.6	599.3	837.1	1306	1504	950.7	650.9	689.0	2322	7703	4455	68.29	8.047	4.842	3.664	2.793	2.180	2.058	1.468	1.408	1.230	1.165	0.994	0.872	0.886	0.764	0.812	0.953	0.945	0.889	0.806	0.763	0.723	0.659	0.704	0.708	0.742	0.981	1.362	1.423	1.622	1.720	1.478	1.356	1.369	1.346	1.155	1.208	1.278	1.432	1.804	2.017	2.310	2.480	2.809	3.181	3.991	4.638	6.369	7.516	7.472	5.642	4.532	3.819	3.610	3.382	3.785	5.729	11.36	25.17
310.0	425.2	627.8	664.2	499.6	377.3	379.3	453.7	578.1	740.7	972.9	1253	1579	1467	887.1	617.7	818.3	2472	5452	5337	1199	19.57	5.373	3.465	2.687	2.108	1.900	1.574	1.387	1.189	1.031	1.009	0.857	0.887	0.938	1.027	0.924	0.943	0.889	0.764	0.769	0.732	0.787	0.786	0.865	0.969	1.333	1.565	1.796	1.928	1.713	1.602	1.570	1.471	1.414	1.475	1.642	1.933	2.211	2.413	2.811	3.181	3.608	4.093	4.576	4.910	5.615	6.580	7.332	7.970	7.433	5.931	4.644	3.732	3.739	3.566	4.555	7.377
315.0	486.0	716.5	744.3	560.1	439.5	440.1	527.3	653.7	821.0	1056	1268	1437	1512	1333	745.6	543.0	839.8	1422	3732	6939	468.7	19.87	4.835	3.483	2.737	2.299	1.889	1.514	1.284	1.318	1.156	0.988	0.975	1.046	0.907	0.927	0.903	0.870	0.729	0.742	0.711	0.768	0.833	0.948	1.152	1.381	1.515	2.064	2.079	1.777	1.673	1.866	1.662	1.854	1.777	1.780	2.293	2.533	2.551	3.036	3.516	3.798	4.433	4.848	5.309	5.523	6.243	6.525	6.861	7.245	7.922	7.597	5.616	4.405	3.625	3.256	3.835
320.0	547.3	789.5	841.2	613.6	482.4	480.4	572.0	694.6	865.2	1087	1303	1432	1419	1403	1014	539.6	505.2	492.6	1019	4933	4049	378.0	10.89	4.728	3.140	2.749	1.986	1.687	1.444	1.404	1.188	1.061	0.955	1.051	0.993	1.050	0.957	0.912	0.823	0.831	0.754	0.821	0.906	1.030	1.316	1.630	1.875	2.199	2.399	1.994	1.865	1.878	1.942	1.776	1.937	2.187	2.331	2.925	2.983	3.238	3.492	3.946	4.649	5.139	5.329	5.551	6.607	6.603	6.455	6.515	6.879	7.306	7.450	6.033	4.247	3.352	3.045
325.0	601.2	921.8	963.8	684.7	512.9	495.4	584.7	711.2	855.0	1075	1291	1412	1351	1228	1173	668.1	440.2	299.7	310.7	1415	5154	3643	56.87	7.071	4.037	3.188	2.582	1.660	1.627	1.596	1.246	1.196	0.973	1.025	1.057	1.040	1.051	0.875	0.854	0.831	0.692	0.829	0.941	1.086	1.364	1.819	2.137	2.737	2.662	2.238	2.190	2.080	2.022	1.902	2.025	1.986	2.431	2.776	2.905	3.307	3.615	3.799	4.277	4.923	5.410	5.430	6.263	6.320	6.266	6.466	6.076	6.026	6.727	6.914	5.761	4.330	3.050
330.0	640.9	999.7	1129	872.1	626.7	536.1	606.9	712.3	838.4	1032	1239	1351	1290	1122	995.2	832.3	544.4	283.5	180.1	388.7	1497	3865	4262	1158	18.52	4.087	3.041	2.274	1.906	1.645	1.383	1.322	1.050	1.083	1.064	0.963	0.930	0.922	0.911	0.847	0.772	0.806	0.963	1.090	1.414	1.960	2.496	2.915	3.139	2.877	2.659	2.713	2.396	2.246	2.212	2.200	2.553	2.790	3.006	3.223	3.419	3.831	4.152	4.728	5.145	5.290	5.729	5.960	6.357	6.168	5.853	5.733	5.615	5.718	5.293	5.324	4.852
335.0	683.6	1064	1277	1053	798.6	616.4	619.8	720.6	830.7	997.3	1185	1283	1253	1088	899.1	729.4	720.9	398.2	193.9	192.3	409.1	944.3	2771	5782	409.4	20.95	4.232	3.069	2.133	1.954	1.592	1.413	1.300	1.160	1.118	0.970	0.840	0.863	0.850	0.752	0.753	0.867	1.085	1.216	1.617	1.950	2.654	3.330	3.632	3.482	3.132	3.243	2.979	2.694	2.615	2.312	2.692	2.899	3.004	3.306	3.359	3.790	4.100	4.486	4.873	5.285	5.528	5.631	6.046	5.844	5.562	5.659	5.193	5.189	4.618	4.044	4.540
340.0	673.6	1099	1334	1149	862.9	647.8	620.5	694.9	795.3	947.1	1120	1220	1188	1053	852.3	647.9	645.6	542.2	247.4	165.9	181.9	277.5	748.1	3892	5111	354.4	10.60	3.719	2.613	2.288	1.748	1.599	1.369	1.298	1.085	1.010	1.000	0.900	0.762	0.744	0.853	0.830	0.856	1.231	1.510	1.913	2.465	3.262	3.675	3.376	3.325	3.596	3.342	2.959	2.654	2.441	2.622	2.810	3.021	3.147	3.108	3.681	3.906	4.129	4.782	5.041	5.243	5.423	5.704	5.752	5.374	5.367	4.974	4.913	4.404	3.707	3.552
345.0	650.1	1036	1273	1159	873.2	670.4	614.3	680.5	768.3	892.9	1041	1120	1108	991.8	808.4	616.8	531.9	548.1	371.4	187.1	148.1	142.5	225.4	1096	4458	3180	51.50	6.052	3.058	2.496	1.953	1.676	1.401	1.301	1.148	1.013	0.919	0.920	0.816	0.776	0.843	0.726	0.937	1.072	1.463	2.015	2.198	3.136	3.489	3.134	3.325	3.602	3.429	3.014	2.728	2.428	2.781	2.723	2.751	3.002	3.289	3.477	3.743	3.998	4.546	4.670	5.031	5.032	5.359	5.268	4.931	5.064	4.648	4.762	4.112	3.459	3.391
350.0	594.9	955.1	1196	1136	895.2	685.9	617.1	656.6	733.1	842.5	951.4	1028	1009	916.3	766.0	596.5	489.4	437.0	434.7	315.5	180.3	138.6	130.0	300.5	1237	3047	3486	1056	17.79	3.496	2.432	1.946	1.634	1.369	1.237	1.074	0.972	0.949	0.834	0.814	0.819	0.769	0.995	1.034	1.382	1.869	2.146	2.885	3.224	3.031	3.277	3.441	3.505	3.074	2.852	2.442	2.750	2.626	2.854	2.946	3.041	3.374	3.621	3.830	4.088	4.419	4.537	4.524	4.696	4.671	4.811	4.634	4.366	4.337	3.983	3.542	3.466
355.0	506.5	874.4	1096	1073	913.8	695.6	623.3	645.2	698.5	782.5	863.3	932.2	923.5	845.3	723.1	582.2	475.6	397.1	362.5	406.6	291.3	171.3	135.4	142.2	324.3	729.3	2061	4635	381.8	20.99	3.515	2.324	1.854	1.568	1.338	1.168	1.001	0.932	0.946	0.832	0.704	0.834	0.858	0.902	1.265	1.497	1.990	2.727	2.878	2.869	3.080	3.330	3.459	3.140	2.752	2.697	2.761	2.536	2.910	2.799	2.905	3.042	3.552	3.549	3.569	3.844	3.985	4.116	4.305	4.260	4.118	4.591	4.079	3.932	3.851	3.656	3.352
360.0	478.6	777.1	1004	1010	876.6	715.7	632.1	631.0	678.7	743.5	819.7	863.4	854.3	791.2	688.4	565.9	478.3	400.8	346.1	365.1	385.5	236.1	155.5	123.9	135.9	205.0	539.2	2962	4331	343.0	10.41	3.111	2.021	1.856	1.204	1.218	1.020	0.881	0.930	0.826	0.825	0.831	0.900	0.948	1.276	1.461	1.822	2.308	2.774	2.736	2.967	3.511	3.305	3.161	2.832	2.639	2.695	2.588	2.817	2.873	2.894	3.054	3.262	3.452	3.505	3.529	3.632	3.541	4.045	3.879	4.089	4.177	4.189	3.811	3.415	3.388	3.469
365.0	430.7	726.2	947.0	971.0	860.3	719.1	629.0	630.8	672.8	714.8	781.9	814.3	803.9	741.3	660.8	558.0	479.8	410.4	355.9	333.0	375.6	336.3	191.7	137.0	107.9	101.3	158.6	823.4	3682	2974	48.13	5.632	2.681	2.110	1.474	1.276	1.095	0.915	0.922	0.746	0.657	0.794	0.853	0.816	1.181	1.472	1.521	2.233	2.666	2.593	2.624	3.302	3.166	3.048	2.933	2.546	2.636	2.786	2.690	2.784	2.745	3.097	3.227	3.332	3.430	3.707	3.452	3.478	3.684	3.977	3.793	3.663	4.085	3.662	3.362	3.481	3.302
370.0	403.3	652.1	888.6	915.6	826.7	706.4	627.6	625.7	649.4	683.5	734.3	758.0	746.9	703.4	632.3	545.3	484.0	427.3	377.4	341.4	331.8	359.4	304.3	186.5	130.0	98.86	89.52	221.4	1015	2714	3171	963.3	15.79	3.048	1.998	1.568	1.115	1.025	0.901	0.785	0.749	0.870	0.819	0.886	1.078	1.396	1.496	2.171	2.382	2.317	2.445	3.194	3.153	2.976	2.769	2.559	2.703	2.623	2.623	2.726	2.811	2.959	3.052	3.119	3.078	3.443	3.385	3.615	3.324	3.598	3.525	3.600	3.568	3.671	3.441	3.345	3.332
375.0	371.1	582.1	803.5	856.2	813.5	704.7	617.2	617.2	634.1	665.9	690.8	716.2	702.1	659.4	599.8	535.3	486.4	436.8	397.7	360.9	335.8	322.5	351.2	290.2	171.4	124.0	95.31	103.4	263.0	645.8	1881	4050	329.8	17.86	2.705	1.887	1.355	1.227	0.989	0.878	0.819	0.818	0.854	0.955	1.114	1.353	1.494	2.041	2.285	2.281	2.408	2.944	3.038	2.942	2.625	2.673	2.719	2.762	2.737	2.688	2.797	2.836	2.876	2.914	3.147	3.099	3.259	3.253	3.321	3.374	3.278	3.381	3.337	3.448	3.297	3.365	3.195
380.0	356.1	571.4	772.4	806.2	785.5	691.6	618.4	606.0	615.7	643.4	661.8	682.6	665.3	629.6	582.7	525.9	485.0	443.2	409.3	377.4	346.1	319.1	318.7	347.1	234.6	148.3	112.6	90.72	104.9	177.8	493.2	2637	3498	280.6	8.018	2.374	1.605	1.205	1.122	0.903	0.867	0.782	0.828	0.935	1.073	1.326	1.495	1.908	2.105	2.041	2.294	2.724	2.905	2.946	2.467	2.618	2.517	2.687	2.629	2.818	2.860	2.764	3.019	3.099	2.984	3.017	3.225	3.101	3.286	3.435	3.215	3.087	3.103	3.350	3.201	3.043	3.146
385.0	327.7	514.2	717.8	787.9	764.3	683.8	615.4	593.5	603.9	620.5	642.6	648.7	640.5	610.1	568.9	514.3	477.1	448.3	417.7	388.9	358.0	326.9	304.5	328.7	306.1	185.1	133.5	103.3	84.55	82.97	140.5	735.7	2964	2437	39.34	3.972	2.025	1.669	1.242	0.995	0.921	0.712	0.881	0.905	0.973	1.319	1.409	1.856	2.017	1.913	2.210	2.870	2.828	2.716	2.776	2.528	2.675	2.584	2.696	2.628	2.651	2.804	2.949	3.084	3.007	3.104	3.082	2.913	2.957	3.461	3.143	3.032	3.229	3.124	3.305	2.959	3.174
390.0	309.7	497.9	679.1	743.6	738.7	669.3	611.6	590.6	593.8	599.6	617.8	620.0	612.5	588.2	549.0	502.2	474.1	449.0	423.8	395.7	370.0	343.8	316.7	299.0	309.3	265.9	178.6	127.2	99.61	79.49	73.21	194.0	821.5	2131	2357	688.0	12.28	2.231	1.500	1.246	0.981	0.911	0.877	0.835	0.898	1.214	1.315	1.727	1.817	1.922	2.100	2.633	2.758	2.650	2.766	2.542	2.564	2.652	2.587	2.602	2.599	2.695	2.955	2.817	2.723	2.755	2.895	2.763	2.987	3.001	3.009	2.990	3.030	2.995	3.070	2.817	3.183
395.0	314.0	467.7	642.4	716.6	697.6	663.0	610.1	583.3	582.3	586.7	596.3	603.6	578.4	567.6	531.1	488.6	463.1	445.4	422.3	402.5	377.1	359.1	333.5	302.5	282.6	291.1	257.9	166.4	125.6	97.58	75.18	84.44	210.9	508.1	1454	2903	267.6	12.37	2.260	1.632	1.153	0.942	0.918	1.009	0.930	1.102	1.365	1.527	1.688	1.764	1.946	2.593	2.650	2.756	2.617	2.623	2.501	2.750	2.510	2.567	2.559	2.473	2.783	2.676	2.784	2.751	2.846	2.504	2.691	2.942	2.974	2.735	2.863	3.169	2.886	2.804	3.004
400.0	283.3	468.4	614.7	692.8	699.5	640.3	613.5	575.5	577.0	575.4	575.4	584.5	565.9	548.8	514.0	475.4	462.5	439.0	419.1	405.6	382.0	361.9	337.9	314.0	282.5	275.2	292.1	219.0	147.1	116.5	89.35	71.13	81.83	137.1	385.9	1977	2182	222.2	5.715	1.949	1.300	1.109	1.160	1.016	0.885	1.138	1.354	1.606	1.660	1.774	1.863	2.472	2.635	2.647	2.594	2.612	2.567	2.620	2.549	2.666	2.529	2.587	2.733	2.795	2.708	2.613	2.512	2.852	2.740	2.867	2.965	2.785	2.918	2.903	2.919	2.700	2.813
405.0	283.6	450.0	582.5	668.3	676.1	654.3	605.2	583.8	572.6	566.9	562.9	572.3	556.2	541.8	503.6	468.0	447.2	430.2	415.2	399.5	378.9	362.3	343.0	318.4	289.7	267.7	276.7	268.3	181.1	133.8	104.1	77.50	62.45	60.69	106.6	560.4	2140	1922	33.53	3.018	1.616	1.290	1.248	1.073	1.067	1.081	1.225	1.494	1.678	1.840	1.815	2.349	2.590	2.474	2.516	2.674	2.632	2.645	2.385	2.565	2.619	2.464	2.750	2.766	2.472	2.585	2.670	2.749	2.581	2.690	2.805	2.902	2.927	2.989	2.661	2.768	3.067
410.0	275.6	440.1	565.5	645.0	652.2	636.8	601.2	574.3	565.4	553.2	556.9	555.8	531.3	517.7	483.8	451.7	429.7	414.8	400.4	389.0	371.5	358.7	346.0	323.0	298.1	275.4	259.2	265.5	242.3	170.7	124.0	93.65	69.72	53.29	51.64	144.4	604.5	1626	1793	498.6	10.01	1.750	1.295	1.166	1.079	1.148	1.151	1.398	1.591	1.768	1.860	2.262	2.349	2.555	2.483	2.402	2.700	2.529	2.587	2.450	2.500	2.623	2.794	2.582	2.486	2.419	2.512	2.562	2.665	2.665	2.694	2.675	2.757	2.923	2.659	2.803	3.091
415.0	251.5	402.1	532.7	610.0	636.9	623.5	586.3	564.4	560.3	542.5	545.5	530.3	508.0	495.3	463.0	430.7	409.0	398.0	384.2	373.6	358.6	347.6	342.1	323.4	301.1	281.3	259.1	242.5	250.7	224.7	150.5	107.9	80.88	59.20	45.48	56.55	151.3	386.2	1119	2070	236.9	10.03	1.736	1.268	1.154	1.264	1.186	1.432	1.547	1.696	1.744	2.269	2.415	2.383	2.366	2.285	2.617	2.541	2.558	2.427	2.545	2.476	2.662	2.661	2.253	2.323	2.433	2.617	2.540	2.488	2.494	2.554	2.532	2.759	2.461	2.519	2.759
420.0	247.8	384.8	519.0	596.3	611.0	588.8	575.2	551.5	545.5	535.7	531.4	512.0	494.3	477.6	439.4	413.5	394.6	379.1	372.0	360.8	346.4	336.8	330.3	317.0	299.1	281.9	257.5	236.4	232.6	240.7	183.4	121.8	90.11	65.89	48.48	40.05	52.85	99.38	294.3	1431	1795	191.5	4.071	1.807	1.312	1.176	1.258	1.493	1.686	1.617	1.575	2.149	2.492	2.227	2.401	2.361	2.608	2.410	2.421	2.494	2.336	2.406	2.430	2.595	2.409	2.401	2.415	2.549	2.185	2.485	2.479	2.499	2.480	2.451	2.341	2.570	2.577
425.0	244.3	370.2	499.4	568.9	590.8	578.1	572.1	545.2	535.3	525.1	514.3	497.5	483.0	454.7	423.9	394.9	377.0	366.1	353.5	345.5	334.0	324.9	322.3	308.1	292.6	281.5	257.2	237.7	222.1	226.1	213.3	142.6	98.15	72.36	54.13	40.93	33.64	37.34	76.34	410.2	1605	1473	30.69	2.431	1.491	1.273	1.367	1.485	1.574	1.587	1.652	2.107	2.422	2.267	2.270	2.314	2.365	2.517	2.426	2.478	2.442	2.403	2.282	2.528	2.417	2.335	2.337	2.457	2.183	2.572	2.386	2.404	2.270	2.494	2.499	2.421	2.762
430.0	252.4	356.7	470.7	533.5	558.7	567.0	551.9	541.5	527.4	518.6	507.8	491.9	465.5	438.1	406.5	376.2	358.5	343.8	337.0	326.1	316.3	314.0	307.0	299.8	288.7	276.5	258.7	240.5	221.4	207.5	203.6	178.3	121.2	83.94	61.88	47.21	35.45	27.86	30.58	101.3	448.3	1206	1339	384.6	8.954	1.647	1.528	1.576	1.673	1.542	1.618	2.014	2.195	2.184	2.213	2.236	2.372	2.529	2.460	2.491	2.391	2.457	2.341	2.430	2.493	2.389	2.258	2.363	2.249	2.307	2.383	2.290	2.382	2.383	2.343	2.396	2.534
435.0	351.6	350.5	455.2	513.3	545.7	545.8	541.9	532.5	527.3	514.0	502.6	482.9	447.3	411.9	383.6	359.3	340.6	324.3	317.7	303.7	298.7	299.2	294.0	291.5	280.6	271.4	254.2	240.4	224.2	205.9	186.2	179.2	153.5	100.7	71.85	53.59	39.95	30.14	23.84	35.35	108.9	284.5	846.7	1689	218.8	9.251	1.821	1.699	1.542	1.629	1.575	1.984	2.111	2.118	2.274	2.174	2.313	2.448	2.469	2.403	2.342	2.502	2.505	2.379	2.229	2.261	2.306	2.339	2.229	2.133	2.317	2.192	2.222	2.253	2.291	2.312	2.333
440.0	447.2	350.0	430.9	515.1	522.6	526.6	529.9	535.1	521.7	502.1	488.4	465.8	440.1	403.7	371.9	344.9	324.2	312.9	299.6	290.5	286.1	284.8	284.0	278.5	268.4	263.5	249.3	236.2	223.1	205.8	180.7	165.3	160.3	121.9	78.96	57.49	45.21	33.70	25.29	22.21	35.30	71.69	224.8	1210	1545	177.0	3.907	1.919	1.697	1.522	1.573	1.969	2.076	2.088	2.298	2.246	2.194	2.278	2.332	2.466	2.403	2.348	2.281	2.255	2.392	2.310	2.142	2.347	2.210	2.108	2.168	2.273	2.316	2.190	2.127	2.320	2.287
445.0	512.3	435.5	400.9	486.8	507.5	506.9	512.6	519.5	503.2	491.4	478.7	449.2	425.4	392.1	357.4	329.2	306.4	295.4	285.5	280.6	273.0	269.4	269.6	265.3	260.8	252.7	242.5	232.1	219.2	204.8	180.5	156.1	148.2	136.6	91.56	63.35	48.60	37.33	27.66	21.30	20.09	24.97	57.64	352.0	1420	1308	25.97	2.760	1.864	1.524	1.523	1.963	2.045	2.150	2.016	2.063	2.224	2.194	2.205	2.424	2.426	2.353	2.302	2.334	2.351	2.159	2.014	2.347	2.275	2.006	2.228	2.005	2.047	2.120	2.006	2.090	2.184
450.0	393.1	719.1	458.1	444.4	483.7	477.8	492.8	494.0	482.0	473.2	459.5	430.4	399.0	366.0	332.6	302.9	285.8	274.3	264.6	258.5	249.8	250.1	248.2	245.7	243.7	238.7	229.6	219.3	212.6	196.5	175.4	152.5	134.2	127.7	111.2	76.68	53.90	41.03	30.88	23.82	19.20	16.58	21.21	85.20	399.5	1090	1199	338.0	7.983	1.890	1.663	1.964	1.913	1.957	1.941	2.084	2.267	2.120	2.220	2.230	2.258	2.295	2.222	2.294	2.299	2.024	2.122	1.981	2.066	1.930	2.058	1.880	2.028	1.920	1.946	1.981	2.122
455.0	231.3	865.5	767.5	423.6	453.9	453.5	457.2	463.7	461.3	451.4	436.9	412.5	374.5	336.6	307.3	276.4	259.0	250.6	240.9	233.3	226.3	228.9	226.6	226.2	222.6	219.2	212.3	204.2	199.3	188.4	168.8	148.1	126.7	110.6	107.0	94.11	62.91	44.44	34.37	27.27	20.82	16.52	15.21	26.34	95.34	257.1	704.9	1389	181.2	7.939	1.996	1.960	1.865	1.898	1.969	1.767	2.163	2.131	2.062	2.030	2.034	2.073	2.097	1.958	2.132	1.988	2.047	1.831	1.890	1.981	1.811	1.831	1.814	1.727	1.824	1.761	1.767
460.0	178.6	671.9	1193	478.5	415.2	432.7	440.2	434.0	431.8	422.5	410.9	386.0	346.1	314.6	288.6	258.3	240.6	230.8	222.3	215.9	211.3	210.8	208.5	209.1	206.6	203.0	199.5	191.9	187.7	177.9	161.3	143.0	122.1	103.9	94.43	96.17	73.41	47.83	36.61	29.48	22.08	18.05	14.43	14.48	28.09	62.96	182.1	922.2	1196	138.8	4.341	2.130	1.977	1.865	1.778	1.706	1.906	1.986	1.968	2.019	1.894	2.134	1.997	1.939	2.116	1.862	1.926	1.738	1.857	1.901	1.849	1.802	1.661	1.834	1.681	1.726	1.882
465.0	161.7	417.5	1468	731.2	386.5	398.7	419.1	404.1	414.7	396.4	387.1	362.2	324.6	297.5	267.4	237.9	224.2	216.7	205.2	198.0	195.1	192.2	192.5	192.9	192.5	188.1	185.3	182.6	178.3	169.0	154.8	137.8	118.6	100.4	87.78	84.98	79.77	54.68	38.14	30.30	23.76	19.19	15.69	12.79	13.97	20.12	46.00	259.4	1058	984.1	21.93	3.168	2.086	1.906	1.718	1.745	1.864	1.877	2.008	2.161	1.918	2.054	1.958	1.973	1.918	1.953	1.920	1.853	1.774	1.659	1.688	1.742	1.530	1.793	1.554	1.720	1.752
470.0	153.9	256.1	1020	1515	484.0	365.2	378.9	368.6	369.8	368.9	355.3	333.5	295.5	268.3	238.9	212.7	202.3	192.3	184.3	178.7	174.5	172.3	172.8	172.7	173.0	170.1	167.4	163.8	162.2	154.9	142.8	126.7	112.0	94.72	81.05	72.28	71.09	63.22	44.30	31.84	25.15	20.29	16.48	13.50	11.54	11.10	15.76	62.60	290.9	747.5	844.0	292.3	8.769	2.191	1.748	1.764	1.854	1.759	1.873	1.851	1.879	1.822	1.880	1.655	1.701	1.700	1.732	1.684	1.589	1.667	1.456	1.530	1.491	1.669	1.455	1.432	1.563
475.0	163.7	201.8	456.5	1711	1086	336.5	337.0	338.3	336.9	327.0	322.5	301.7	267.1	239.2	211.9	192.6	181.3	172.4	165.7	156.1	154.0	153.1	152.2	152.3	152.1	150.3	148.3	144.7	143.6	137.5	129.3	118.2	103.5	88.40	75.38	67.33	59.51	58.86	52.58	35.62	25.74	21.21	16.86	13.84	11.59	10.07	9.519	18.75	68.85	173.1	418.0	927.0	185.4	10.25	2.006	1.575	1.682	1.713	1.733	1.759	1.622	1.663	1.658	1.516	1.599	1.548	1.573	1.593	1.426	1.500	1.372	1.392	1.298	1.502	1.202	1.273	1.426
480.0	167.6	188.4	285.5	1206	1779	412.2	305.8	317.6	309.6	312.3	294.5	274.7	250.1	221.0	197.3	176.4	164.5	157.7	150.3	142.2	139.5	139.7	140.2	137.1	137.7	136.3	135.6	134.1	132.4	128.9	122.4	110.1	97.50	83.08	72.30	62.90	54.81	50.47	52.72	42.11	27.63	21.45	17.29	14.70	12.49	10.28	8.305	9.250	19.63	42.30	104.3	516.3	871.5	166.2	5.401	1.873	1.618	1.637	1.589	1.683	1.689	1.587	1.537	1.490	1.474	1.522	1.614	1.454	1.416	1.359	1.383	1.260	1.227	1.309	1.263	1.164	1.302
485.0	150.8	187.5	225.5	642.5	2023	793.1	291.5	301.7	291.5	294.0	284.1	260.6	237.2	208.9	183.1	165.5	153.7	145.3	139.1	131.9	127.5	129.3	128.1	127.1	129.2	126.9	125.3	126.4	123.4	119.6	114.4	103.9	89.82	79.41	69.02	61.27	51.79	45.48	46.57	45.34	31.63	22.79	18.04	14.61	12.40	11.05	8.616	7.625	9.000	13.27	26.49	136.8	654.6	810.7	26.97	2.844	1.686	1.757	1.601	1.643	1.598	1.502	1.378	1.518	1.490	1.488	1.412	1.363	1.224	1.326	1.320	1.350	1.263	1.198	1.064	1.117	1.190
490.0	119.6	195.7	215.1	338.2	1316	1698	376.5	272.1	272.5	266.8	263.0	240.2	216.7	190.7	168.5	151.5	138.8	131.3	125.2	119.8	116.1	115.6	115.1	115.2	116.1	112.4	113.1	112.8	112.0	109.9	104.6	95.38	83.91	75.10	65.26	58.04	49.48	43.08	39.69	40.64	37.61	26.54	18.84	15.84	12.88	11.22	9.324	7.957	6.955	7.108	9.340	33.58	170.7	498.6	689.7	299.0	10.99	1.804	1.677	1.441	1.547	1.391	1.302	1.458	1.345	1.366	1.319	1.268	1.150	1.206	1.128	1.099	1.154	1.139	1.024	1.125	1.055
495.0	93.79	182.4	227.0	228.7	529.1	1913	1032	255.0	241.2	245.0	235.8	217.6	195.5	173.0	151.9	134.3	123.3	117.4	112.2	108.2	104.5	102.2	101.4	102.6	104.0	101.1	102.5	101.1	101.3	97.97	93.83	86.33	76.78	68.26	60.83	53.68	46.92	40.65	35.69	33.49	34.49	31.42	21.79	16.35	13.39	11.49	9.623	8.294	7.066	5.735	5.548	10.74	40.63	114.5	311.9	825.6	217.5	14.48	2.007	1.551	1.547	1.286	1.278	1.251	1.299	1.202	1.241	1.173	1.064	1.014	1.107	1.105	1.076	0.944	0.869	1.038	1.076
500.0	81.33	146.1	238.3	206.3	280.7	1315	1858	326.2	220.1	223.3	218.6	201.0	179.2	157.9	138.2	122.4	113.9	107.2	100.8	97.22	95.52	92.32	92.25	91.90	92.70	91.60	91.34	92.91	91.34	89.79	84.83	79.95	71.82	62.67	56.56	50.20	44.60	38.68	33.60	30.26	29.20	31.60	24.92	17.11	13.26	11.57	9.930	8.237	7.286	6.080	5.110	5.526	11.69	27.95	75.71	401.6	824.5	195.8	9.163	1.419	1.485	1.281	1.324	1.126	1.328	1.177	1.131	1.116	0.994	1.158	1.000	0.950	1.042	0.884	0.945	0.993	0.891
505.0	71.59	126.9	232.1	209.1	213.6	634.6	2208	707.8	205.7	204.3	201.7	184.0	167.0	145.3	128.6	112.9	103.0	99.43	92.38	87.65	86.38	83.82	83.95	83.25	83.92	83.27	83.11	83.10	82.40	81.59	79.43	72.39	65.25	58.95	51.83	46.52	40.55	35.79	31.48	28.29	24.93	27.69	27.47	19.00	13.84	11.67	9.877	8.395	7.171	6.711	4.949	4.463	5.432	8.877	19.37	100.8	501.5	768.9	157.5	3.978	1.478	1.294	1.245	1.209	1.168	1.051	1.086	1.062	0.974	1.026	0.936	0.904	0.927	0.902	0.805	0.919	0.989
510.0	69.49	100.7	187.9	219.5	171.9	280.3	1419	1815	266.0	181.0	179.0	160.2	146.1	129.3	111.3	99.14	92.32	85.93	81.15	77.59	75.47	73.84	72.71	72.66	72.66	72.73	71.08	72.38	71.78	72.04	69.58	63.27	57.75	52.43	46.88	41.65	36.84	33.02	29.30	25.88	22.46	21.81	23.96	21.92	15.90	11.88	9.870	8.816	7.007	6.336	5.105	4.498	4.143	4.605	6.670	24.77	124.7	391.5	588.2	266.2	12.38	1.451	1.225	1.130	1.132	0.962	1.012	0.936	0.874	0.955	0.826	0.796	0.879	0.791	0.885	0.828	0.862
515.0	58.67	90.85	131.3	214.2	187.1	181.8	505.6	2210	956.7	165.1	155.6	143.7	128.7	112.8	98.22	87.09	78.82	73.40	69.75	67.26	65.53	63.34	62.48	63.05	63.15	61.96	61.10	62.49	61.56	62.07	59.22	55.89	50.58	46.22	41.93	37.75	33.47	30.12	26.19	23.15	20.60	18.50	18.50	20.72	19.01	12.98	9.814	8.343	6.872	6.087	5.302	4.995	3.953	3.454	3.617	7.781	29.73	89.25	203.5	574.5	224.2	17.43	1.410	1.054	1.014	0.951	0.947	0.855	0.823	0.830	0.779	0.769	0.731	0.758	0.815	0.735	0.779
520.0	49.31	76.77	104.6	186.9	197.8	140.8	227.9	1487	1908	227.5	141.9	129.7	116.5	103.0	88.95	79.22	71.10	66.49	61.95	59.79	58.73	56.94	55.85	55.31	55.97	55.20	54.72	55.58	55.13	54.82	52.76	50.36	45.39	41.88	37.08	33.76	30.44	27.15	24.21	21.39	19.35	17.24	15.37	16.67	18.57	15.03	10.17	7.900	6.847	5.670	4.977	4.952	4.031	3.458	3.043	3.810	8.566	21.66	48.30	239.7	581.4	205.1	11.06	1.148	0.973	1.007	0.863	0.814	0.763	0.793	0.722	0.704	0.679	0.648	0.637	0.631	0.658
525.0	48.81	73.37	90.50	147.8	204.9	131.1	146.2	660.4	2438	608.2	131.7	117.1	106.3	92.94	80.91	70.00	64.62	59.41	54.98	53.08	51.79	50.47	50.84	50.14	49.57	50.21	49.31	49.63	49.17	49.06	48.51	45.62	41.55	37.75	34.10	30.54	27.17	24.51	22.63	20.44	17.97	15.75	14.06	13.75	16.78	16.81	11.55	8.013	6.588	5.368	4.961	4.536	4.232	3.620	2.863	3.045	3.715	6.496	12.35	58.12	294.9	558.3	162.7	4.900	1.035	0.929	0.745	0.790	0.724	0.746	0.683	0.694	0.672	0.680	0.584	0.650	0.669
530.0	44.36	63.30	78.29	109.1	178.3	145.4	118.1	244.8	1558	1815	187.3	102.2	91.37	81.09	68.06	61.35	55.51	52.07	47.83	47.45	44.74	44.82	43.46	42.86	42.93	42.58	42.59	43.16	42.84	42.15	41.63	39.26	36.21	32.65	29.51	27.25	24.18	21.94	20.42	18.01	16.39	14.28	13.09	11.98	12.40	14.44	13.35	8.698	6.605	5.266	4.713	4.122	3.970	3.714	3.226	2.824	2.588	3.124	4.283	14.40	70.92	244.4	411.9	207.3	13.28	1.033	0.858	0.771	0.648	0.660	0.624	0.687	0.589	0.599	0.522	0.604	0.624
535.0	36.34	58.54	69.56	86.75	120.6	168.1	107.5	128.3	496.3	2275	921.4	99.15	78.56	71.77	58.64	53.31	47.29	43.79	42.35	40.19	37.90	37.52	37.82	37.02	36.09	36.49	35.44	36.18	35.89	35.74	36.09	32.87	30.49	27.71	25.87	23.24	21.80	19.06	17.79	15.60	14.21	12.07	11.65	10.38	10.10	10.32	12.00	10.72	6.758	5.058	4.352	3.933	3.412	3.303	3.273	2.908	2.251	2.238	2.484	4.555	16.99	55.60	123.5	365.0	227.6	18.65	0.987	0.733	0.673	0.672	0.547	0.550	0.631	0.596	0.507	0.538	0.570
540.0	37.36	52.44	66.50	75.67	88.70	165.6	115.0	96.64	185.1	1439	1791	144.4	71.05	61.90	53.37	46.55	42.09	39.63	36.35	35.45	34.13	33.94	32.43	32.49	31.56	31.79	31.04	32.06	31.29	30.94	31.49	29.52	26.87	23.44	22.33	20.25	18.90	17.03	15.57	14.09	12.97	11.64	10.57	9.479	8.947	8.234	9.781	10.16	7.980	5.331	4.120	3.581	3.205	3.042	2.990	2.843	2.195	2.180	1.767	2.361	4.969	13.55	29.01	133.6	391.6	199.3	11.88	0.848	0.675	0.640	0.533	0.507	0.526	0.516	0.481	0.454	0.501
545.0	41.09	46.69	59.69	65.49	74.62	133.8	130.8	83.52	102.1	570.2	2456	450.7	63.66	55.12	48.38	41.78	37.95	35.27	33.11	30.48	30.21	29.64	29.36	27.29	28.04	27.75	27.31	27.57	27.89	27.91	27.55	25.43	23.50	21.16	19.58	18.23	16.67	15.08	13.56	12.72	11.32	10.17	9.604	8.394	7.748	7.093	7.409	8.987	8.602	5.804	4.180	3.472	3.232	2.673	2.660	2.677	2.495	2.081	1.658	1.733	2.193	4.064	7.542	31.74	167.9	386.3	146.1	4.750	0.723	0.706	0.509	0.616	0.520	0.471	0.510	0.396	0.468
550.0	39.50	51.14	56.18	55.20	57.93	91.07	139.6	85.21	73.72	187.1	1454	1598	109.1	46.44	40.22	35.27	31.82	29.75	27.01	25.73	24.97	24.21	23.62	22.86	23.52	22.76	22.79	23.38	23.57	23.03	22.60	21.78	19.49	17.83	16.89	15.28	14.11	12.84	11.53	10.78	9.720	8.964	8.262	7.300	6.990	6.141	5.949	6.552	7.290	6.259	4.558	3.262	2.795	2.436	2.287	2.126	2.330	2.311	1.651	1.524	1.481	1.813	2.546	7.912	39.64	148.5	266.6	131.5	14.11	0.887	0.550	0.555	0.481	0.450	0.430	0.389	0.447
555.0	38.71	48.47	57.12	52.28	48.74	58.44	117.1	101.2	60.35	87.88	425.3	2069	624.1	40.08	33.52	29.22	26.48	24.54	22.45	20.58	21.22	19.60	19.86	18.50	18.55	18.85	18.76	18.74	18.84	18.93	17.99	17.52	15.54	14.65	13.73	12.49	11.34	10.41	10.20	8.909	8.102	7.298	6.677	6.127	5.724	5.244	4.812	4.928	5.078	5.936	5.219	3.245	2.588	2.366	2.002	2.009	1.799	1.990	2.052	1.409	1.214	1.243	1.386	2.551	9.554	33.85	74.70	218.4	207.3	17.11	0.600	0.584	0.429	0.456	0.425	0.406	0.395
560.0	37.85	48.71	48.31	45.58	42.79	47.17	82.30	125.5	57.23	60.37	140.6	1273	1324	68.14	28.41	25.13	22.25	20.22	19.51	17.86	17.50	16.52	16.26	15.87	15.83	15.92	15.91	15.53	15.80	15.43	15.37	14.86	13.21	12.51	11.21	10.72	10.21	9.055	8.574	7.944	7.023	6.335	5.734	5.393	4.731	4.481	4.287	3.992	3.809	4.577	4.994	3.586	2.349	1.925	1.925	1.800	1.663	1.617	2.096	1.580	1.162	1.189	1.155	1.341	2.854	8.290	17.56	75.61	249.5	153.5	8.472	0.570	0.507	0.416	0.377	0.314	0.481
565.0	40.15	48.73	49.54	43.23	40.02	40.57	56.18	121.8	68.84	52.13	70.73	483.0	1991	145.4	25.27	21.92	19.04	16.98	17.21	16.13	14.65	14.15	14.26	13.16	13.39	13.28	13.73	12.97	13.42	13.21	12.90	12.95	11.09	10.67	10.17	9.154	8.541	7.873	7.027	6.707	6.162	5.532	5.201	4.628	4.459	3.922	3.652	3.524	3.184	3.497	4.174	4.022	2.494	1.978	1.726	1.578	1.437	1.336	1.532	1.811	1.369	0.952	1.051	0.960	1.322	2.574	4.643	17.90	99.01	254.1	95.23	3.507	0.503	0.388	0.325	0.339	0.390
570.0	41.45	49.18	48.61	40.46	36.27	33.51	40.31	88.53	94.64	49.30	51.73	147.3	1204	1139	56.84	18.03	15.86	14.72	14.03	12.82	11.98	11.83	11.18	10.98	10.94	11.16	10.65	10.71	10.96	11.07	10.40	10.49	9.438	8.797	8.239	7.520	6.879	6.142	5.693	5.467	4.859	4.641	4.452	4.007	3.678	3.425	2.973	2.781	2.593	2.524	2.901	3.426	2.777	1.948	1.640	1.312	1.302	1.272	1.180	1.445	1.589	1.176	0.909	0.823	1.015	1.303	1.680	4.631	23.33	95.07	157.0	92.84	11.50	0.588	0.337	0.343	0.373
575.0	44.07	51.75	52.27	44.84	32.48	29.67	30.45	52.98	111.4	63.55	46.77	66.07	348.2	1554	407.7	16.33	13.07	11.57	11.15	10.42	9.860	9.461	9.162	8.676	8.969	8.653	8.767	8.632	8.837	8.710	8.251	8.431	7.526	7.012	6.571	6.013	5.616	5.004	4.740	4.484	4.014	3.811	3.704	3.312	2.960	2.744	2.698	2.361	2.117	1.965	2.027	2.370	2.748	2.216	1.523	1.260	1.288	1.157	1.040	1.092	1.215	1.207	1.059	0.757	0.869	0.992	1.046	1.664	5.796	21.70	42.79	126.5	123.0	12.92	0.425	0.337	0.360
580.0	45.88	43.14	46.53	37.33	29.08	28.83	28.41	36.76	96.61	82.76	47.47	48.69	109.4	983.0	944.5	31.04	11.19	10.62	9.638	8.718	8.514	7.675	7.837	7.239	7.249	7.358	7.055	7.118	7.562	7.295	7.188	6.856	6.416	5.787	5.392	4.922	4.627	4.337	3.860	3.705	3.427	3.107	3.054	2.898	2.498	2.575	2.436	2.097	1.850	1.669	1.617	1.763	2.326	2.549	1.731	1.326	1.111	0.999	1.005	0.966	0.976	1.268	1.226	0.858	0.769	0.878	0.930	0.918	1.898	5.443	10.12	41.94	144.4	90.67	5.793	0.378	0.389
585.0	44.54	50.80	50.93	39.21	26.46	26.92	26.86	31.22	69.59	102.2	50.84	46.17	54.30	364.3	1407	95.58	10.33	9.056	8.691	8.091	7.459	6.560	6.693	6.303	6.102	6.069	6.377	6.533	6.241	5.995	6.180	5.764	5.231	5.296	4.712	4.192	3.838	3.879	3.351	3.182	2.974	2.596	2.568	2.491	2.115	2.042	2.156	1.783	1.690	1.451	1.328	1.392	1.656	2.311	1.903	1.357	1.089	1.009	0.898	0.825	0.861	0.913	1.278	1.077	0.806	0.870	0.787	0.795	0.987	1.681	2.712	9.944	55.78	138.9	32.57	2.279	0.394
590.0	41.08	47.71	50.80	37.00	26.12	24.74	23.99	27.63	47.30	99.12	72.14	48.49	43.22	108.0	847.7	713.4	27.26	8.143	7.360	6.389	6.156	5.611	5.591	5.469	5.284	5.171	5.068	5.378	5.299	5.027	4.952	4.715	4.258	4.132	3.926	3.472	3.301	3.058	2.846	2.560	2.518	2.363	2.088	2.015	2.031	1.694	1.796	1.602	1.528	1.265	1.136	1.154	1.217	1.531	1.767	1.588	1.008	0.888	0.755	0.755	0.786	0.813	0.965	1.058	1.004	0.746	0.763	0.781	0.737	0.895	1.086	2.593	13.00	49.18	87.40	60.54	8.772
595.0	39.06	45.09	47.27	33.34	26.12	22.89	25.30	28.36	37.02	72.93	94.46	51.81	41.59	45.76	236.9	1011	206.7	7.491	6.125	5.397	5.474	4.636	4.339	4.203	4.353	4.044	4.276	4.260	4.200	4.136	4.283	3.963	3.451	3.503	3.214	2.935	2.519	2.432	2.236	2.267	2.097	1.929	1.756	1.758	1.603	1.585	1.311	1.378	1.200	1.134	0.947	0.881	0.976	1.014	1.245	1.492	1.175	0.904	0.687	0.733	0.611	0.728	0.739	0.774	1.026	0.881	0.726	0.612	0.645	0.626	0.716	0.981	3.296	11.36	23.59	74.15	75.84
600.0	38.22	39.66	45.17	36.04	25.24	24.50	26.88	29.84	35.12	55.69	104.9	61.76	43.71	33.55	68.57	672.2	585.4	13.24	5.119	4.874	4.747	3.648	3.660	3.638	3.809	3.693	3.330	3.486	3.566	3.493	3.511	3.338	3.043	2.977	2.613	2.509	2.289	2.171	2.102	2.054	1.686	1.609	1.639	1.457	1.411	1.224	1.125	1.135	1.132	0.939	0.922	0.816	0.868	0.792	0.924	1.393	1.324	0.973	0.712	0.678	0.548	0.637	0.647	0.602	0.744	1.043	0.716	0.569	0.649	0.602	0.639	0.711	1.109	2.917	5.537	24.46	85.78
605.0	36.95	37.63	41.48	35.44	26.92	22.06	25.33	31.40	36.08	50.15	98.62	77.63	49.79	35.78	32.17	256.2	864.7	59.91	5.139	4.449	3.847	3.517	3.223	3.320	3.257	3.175	2.958	2.909	2.981	2.889	3.055	2.777	2.760	2.506	2.281	2.236	1.892	1.952	1.729	1.766	1.406	1.464	1.306	1.293	1.195	1.108	1.061	1.042	0.938	0.875	0.842	0.714	0.765	0.666	0.735	0.955	1.279	1.009	0.687	0.658	0.566	0.618	0.646	0.541	0.678	0.941	0.912	0.629	0.658	0.596	0.540	0.533	0.607	0.958	1.520	5.777	31.96
610.0	34.81	41.49	39.97	33.42	24.34	25.08	27.92	36.60	42.98	57.27	89.24	105.8	61.83	42.26	32.20	79.56	587.8	421.1	12.53	3.820	3.268	3.099	2.977	2.732	2.707	2.660	2.604	2.553	2.283	2.626	2.408	2.325	2.226	1.997	1.885	1.844	1.722	1.714	1.484	1.421	1.234	1.163	1.083	1.145	1.082	0.944	0.929	0.922	0.828	0.718	0.725	0.635	0.624	0.624	0.597	0.680	0.953	1.042	0.769	0.708	0.558	0.587	0.618	0.625	0.646	0.740	0.811	0.793	0.767	0.655	0.588	0.560	0.506	0.579	0.648	1.587	7.577
615.0	34.53	43.63	41.99	32.97	26.34	26.39	31.50	36.11	45.18	58.70	76.83	110.0	78.18	46.83	33.59	35.92	179.3	666.1	68.53	3.533	2.870	2.379	2.479	2.176	2.217	1.945	2.120	2.028	1.864	2.240	1.994	1.814	1.788	1.670	1.529	1.635	1.443	1.368	1.239	1.120	1.036	0.892	0.910	0.858	0.858	0.740	0.844	0.806	0.668	0.667	0.598	0.530	0.563	0.537	0.527	0.511	0.642	0.988	0.885	0.763	0.597	0.507	0.526	0.619	0.577	0.680	0.686	0.775	1.025	0.724	0.588	0.509	0.475	0.503	0.455	0.676	1.997
620.0	34.66	38.16	40.77	33.27	25.08	26.41	33.31	35.86	43.44	54.93	69.02	94.65	88.98	47.39	32.85	24.79	56.91	482.4	340.3	5.807	2.637	2.006	2.066	1.852	1.825	1.770	1.895	1.908	1.788	1.741	1.650	1.765	1.533	1.482	1.312	1.309	1.023	1.103	1.116	1.034	0.931	0.798	0.715	0.741	0.822	0.792	0.759	0.709	0.580	0.598	0.552	0.505	0.502	0.548	0.453	0.493	0.576	0.745	0.873	0.837	0.645	0.524	0.503	0.561	0.616	0.599	0.614	0.660	0.927	0.770	0.553	0.483	0.484	0.468	0.376	0.444	0.678
625.0	32.08	36.91	38.49	32.36	26.83	23.68	31.62	37.48	42.38	53.88	66.34	80.59	95.81	50.05	33.10	22.97	27.48	203.8	570.3	32.47	2.278	2.127	1.969	1.570	1.491	1.625	1.803	1.796	1.605	1.559	1.501	1.373	1.453	1.302	1.151	0.998	0.933	0.904	0.996	0.854	0.867	0.766	0.715	0.745	0.749	0.667	0.644	0.560	0.559	0.540	0.447	0.428	0.456	0.455	0.463	0.428	0.521	0.547	0.957	0.736	0.692	0.512	0.497	0.525	0.487	0.552	0.533	0.580	0.765	0.789	0.577	0.545	0.415	0.421	0.412	0.421	0.389
630.0	32.56	37.66	39.88	31.60	25.27	24.45	29.07	34.54	42.60	52.58	64.55	70.16	87.12	61.17	33.69	22.01	20.53	58.52	426.7	260.3	5.665	1.809	1.663	1.520	1.521	1.408	1.437	1.488	1.313	1.337	1.287	1.132	1.092	1.100	0.940	0.935	0.933	0.845	0.849	0.723	0.660	0.657	0.650	0.605	0.593	0.557	0.536	0.574	0.505	0.439	0.392	0.457	0.421	0.413	0.350	0.438	0.466	0.471	0.624	0.658	0.672	0.516	0.505	0.439	0.458	0.521	0.629	0.554	0.580	0.636	0.717	0.583	0.387	0.412	0.384	0.357	0.339
635.0	32.56	35.50	37.07	30.40	24.95	25.74	28.39	33.65	41.88	51.28	61.20	65.34	70.61	70.47	36.41	23.03	19.61	21.31	131.1	472.0	48.90	1.790	1.555	1.536	1.245	1.198	1.189	1.052	1.037	1.055	1.098	0.931	0.849	0.860	0.871	0.875	0.796	0.735	0.673	0.569	0.540	0.598	0.530	0.519	0.448	0.451	0.463	0.494	0.476	0.415	0.414	0.363	0.345	0.357	0.357	0.388	0.379	0.390	0.491	0.610	0.674	0.628	0.511	0.404	0.474	0.506	0.569	0.528	0.603	0.543	0.620	0.585	0.507	0.470	0.409	0.322	0.319
640.0	30.64	39.93	40.33	28.33	26.14	23.58	28.10	32.06	40.26	50.98	58.64	62.65	65.38	71.54	42.18	24.01	18.80	13.45	35.23	372.8	212.6	2.827	1.412	1.315	1.102	1.022	1.076	1.121	0.998	1.026	1.023	0.922	0.832	0.784	0.829	0.807	0.803	0.608	0.631	0.489	0.548	0.519	0.513	0.515	0.382	0.455	0.463	0.478	0.384	0.404	0.368	0.352	0.347	0.326	0.321	0.359	0.378	0.423	0.369	0.435	0.509	0.618	0.550	0.431	0.484	0.499	0.493	0.504	0.522	0.471	0.529	0.647	0.597	0.475	0.448	0.337	0.346
645.0	33.30	43.55	39.50	30.02	21.75	23.99	26.89	30.52	36.86	46.81	56.46	61.99	58.00	62.46	47.78	24.92	19.47	11.78	11.87	167.8	389.0	17.10	1.538	1.171	0.995	1.076	0.977	1.076	0.817	0.894	0.882	0.793	0.836	0.805	0.599	0.660	0.662	0.502	0.489	0.540	0.447	0.496	0.419	0.448	0.396	0.447	0.394	0.429	0.389	0.375	0.310	0.365	0.357	0.289	0.289	0.329	0.358	0.379	0.344	0.379	0.422	0.544	0.601	0.462	0.484	0.465	0.474	0.469	0.513	0.489	0.535	0.591	0.592	0.524	0.364	0.340	0.340
650.0	33.68	41.59	42.44	31.14	24.66	21.47	24.39	29.88	33.86	44.51	53.43	59.79	52.33	52.32	52.38	23.72	17.91	11.15	6.916	49.00	399.8	61.40	1.735	1.032	0.962	1.053	1.016	0.885	0.766	0.850	0.755	0.817	0.787	0.641	0.655	0.637	0.625	0.609	0.597	0.500	0.402	0.467	0.410	0.400	0.366	0.408	0.380	0.416	0.389	0.330	0.280	0.244	0.323	0.380	0.340	0.332	0.322	0.326	0.317	0.397	0.418	0.518	0.538	0.501	0.405	0.435	0.493	0.459	0.454	0.444	0.452	0.431	0.566	0.673	0.385	0.350	0.301
