Sample:	'1
File name:	t2025062306É½ÈªÂ·Î÷.FD3
Run date:	'14:43:13, 06/24/2025
Operator:	Administrator
Comment:	'

Instrument
Model:	F-2700 FL Spectrophotometer
Serial number:	23B8-004
ROM Version:	4J14000 07

Instrument parameters
Measurement type:	3-D scan
Data mode:	Fluorescence
EX  Start WL:	220.0 nm
EX  End WL:	600.0 nm
EX Sampling interval:	5.0 nm
EM  Start WL:	230.0 nm
EM  End WL:	650.0 nm
EM Sampling interval:	5.0 nm
Scan speed:	12000 nm/min
EX Slit:	5.0 nm
EM Slit:	5.0 nm
PMT Voltage:	700 V
Response:	Auto 
Corrected spectra:	Off
Contour interval:	50.000

Peak integration
Integration method:	Rectangular
Sensitivity:	1
Threshold:	1.000

Peaks
No.	ApexEX/EM(nm)	Height(Data)
1	225.0/605.0	72.90
2	225.0/625.0	78.90
3	225.0/635.0	76.83
4	230.0/345.0	5199
5	230.0/640.0	74.81
6	235.0/260.0	298.4
7	240.0/265.0	381.9
8	245.0/270.0	426.9
9	250.0/275.0	555.9
10	250.0/455.0	2754
11	255.0/285.0	565.1
12	260.0/290.0	533.8
13	260.0/575.0	133.7
14	265.0/585.0	112.1
15	270.0/380.0	1634
16	270.0/600.0	101.9
17	275.0/410.0	1921
18	275.0/615.0	113.9
19	280.0/340.0	2281
20	280.0/625.0	106.1
21	285.0/640.0	88.62
22	330.0/415.0	1223
23	475.0/340.0	13.86
24	500.0/450.0	11.54
25	505.0/275.0	3.311
26	505.0/460.0	11.67
27	510.0/280.0	3.580
28	520.0/285.0	3.442
29	565.0/340.0	11.04
30	570.0/335.0	11.10
31	575.0/345.0	10.68

Data points
	220.0	225.0	230.0	235.0	240.0	245.0	250.0	255.0	260.0	265.0	270.0	275.0	280.0	285.0	290.0	295.0	300.0	305.0	310.0	315.0	320.0	325.0	330.0	335.0	340.0	345.0	350.0	355.0	360.0	365.0	370.0	375.0	380.0	385.0	390.0	395.0	400.0	405.0	410.0	415.0	420.0	425.0	430.0	435.0	440.0	445.0	450.0	455.0	460.0	465.0	470.0	475.0	480.0	485.0	490.0	495.0	500.0	505.0	510.0	515.0	520.0	525.0	530.0	535.0	540.0	545.0	550.0	555.0	560.0	565.0	570.0	575.0	580.0	585.0	590.0	595.0	600.0
230.0	77.76	1183	2015	455.2	18.56	7.407	6.549	5.293	4.875	4.159	3.910	3.484	3.486	3.162	2.648	2.196	1.943	1.704	1.505	1.427	1.308	1.198	1.109	1.081	0.993	0.909	0.914	0.868	0.923	0.729	0.780	0.697	0.635	0.567	0.539	0.514	0.521	0.509	0.435	0.466	0.436	0.524	0.500	0.446	0.383	0.394	1.552	5.403	7.315	4.192	1.354	0.407	0.330	0.309	0.292	0.273	0.333	0.288	0.273	0.310	0.273	0.269	0.309	0.307	0.295	0.278	0.268	0.248	0.289	0.293	0.283	0.294	0.303	0.290	0.297	0.264	0.321
235.0	96.49	341.7	1664	2186	460.4	25.16	7.695	5.366	5.795	4.436	3.758	3.508	3.624	3.549	2.447	2.113	2.016	1.839	1.647	1.446	1.388	1.172	1.031	1.114	1.086	0.969	0.889	0.956	0.906	0.774	0.756	0.770	0.625	0.560	0.499	0.520	0.499	0.458	0.447	0.408	0.407	0.496	0.567	0.610	0.547	0.452	0.647	1.603	3.693	5.648	7.873	6.779	2.797	0.657	0.308	0.257	0.308	0.321	0.283	0.316	0.268	0.267	0.289	0.294	0.260	0.277	0.290	0.276	0.307	0.294	0.274	0.272	0.264	0.283	0.279	0.283	0.373
240.0	147.2	143.0	576.4	2333	2306	337.8	16.86	6.870	5.705	4.803	4.503	4.198	3.851	3.323	2.495	2.113	1.808	1.848	1.672	1.225	1.195	1.153	1.102	1.036	1.066	0.925	0.927	1.016	0.808	0.899	0.789	0.695	0.627	0.593	0.547	0.515	0.404	0.507	0.461	0.374	0.372	0.399	0.496	0.552	0.629	0.642	0.585	0.637	1.162	2.005	5.150	11.25	11.73	7.038	2.208	0.422	0.364	0.317	0.296	0.305	0.278	0.308	0.301	0.357	0.237	0.284	0.290	0.364	0.295	0.314	0.293	0.297	0.274	0.292	0.290	0.307	0.320
245.0	138.4	182.6	180.7	949.3	3097	2193	235.9	10.27	6.705	5.437	5.052	4.404	3.707	3.514	2.840	2.304	1.997	1.737	1.742	1.577	1.174	1.235	1.333	1.154	1.097	1.105	0.971	1.081	0.734	0.952	0.765	0.689	0.689	0.570	0.606	0.584	0.422	0.515	0.562	0.372	0.448	0.403	0.388	0.447	0.502	0.746	0.884	0.719	0.557	0.711	1.519	4.572	10.13	15.38	13.16	5.916	1.415	0.389	0.328	0.362	0.279	0.246	0.301	0.275	0.316	0.283	0.299	0.318	0.264	0.301	0.287	0.317	0.265	0.328	0.332	0.275	0.319
250.0	64.75	161.2	223.5	283.4	1136	2893	3083	847.3	38.53	7.523	5.952	5.229	4.292	3.646	2.959	2.375	2.003	1.948	1.633	1.443	1.424	1.328	1.280	1.269	1.120	1.054	0.930	0.953	0.837	0.821	0.716	0.652	0.683	0.552	0.652	0.560	0.450	0.445	0.515	0.434	0.462	0.426	0.411	0.398	0.438	0.493	0.657	0.845	0.880	0.830	0.731	1.298	2.776	5.686	9.741	14.28	17.31	14.01	6.842	1.768	0.422	0.274	0.348	0.294	0.303	0.284	0.312	0.289	0.303	0.264	0.321	0.280	0.311	0.299	0.334	0.283	0.329
255.0	39.06	64.92	198.1	292.0	328.2	819.1	3185	4862	299.6	35.76	9.024	6.819	5.047	4.234	3.213	2.890	2.242	2.084	1.922	1.284	1.418	1.383	1.405	1.161	1.228	0.928	1.039	0.954	0.789	0.897	0.911	0.854	0.686	0.656	0.653	0.551	0.556	0.522	0.505	0.447	0.474	0.499	0.459	0.415	0.400	0.436	0.425	0.499	0.693	0.896	1.204	1.175	1.059	1.568	2.543	3.771	7.821	17.40	28.51	24.03	10.05	1.594	0.334	0.342	0.317	0.297	0.420	0.348	0.307	0.290	0.339	0.291	0.290	0.355	0.295	0.326	0.319
260.0	36.04	39.97	95.94	298.4	281.9	248.7	1101	4957	4884	246.9	18.46	8.421	7.082	4.563	3.704	3.248	2.465	2.550	1.912	1.631	1.509	1.403	1.375	1.131	1.268	1.023	1.094	1.074	0.931	0.949	0.901	0.828	0.629	0.695	0.657	0.606	0.660	0.466	0.456	0.500	0.509	0.485	0.427	0.444	0.433	0.425	0.447	0.339	0.473	0.476	1.009	1.581	1.458	1.093	0.973	1.183	2.240	5.156	14.79	28.40	31.91	21.46	6.504	0.936	0.325	0.403	0.332	0.411	0.346	0.273	0.306	0.299	0.273	0.373	0.375	0.333	0.291
265.0	34.30	29.20	43.27	170.6	381.9	232.3	319.2	1916	6620	4659	183.3	12.21	8.842	5.524	4.382	3.551	2.844	2.714	2.207	1.942	1.439	1.412	1.290	1.223	1.260	1.060	0.978	1.033	1.059	0.971	0.866	0.903	0.693	0.699	0.578	0.633	0.570	0.518	0.542	0.516	0.579	0.472	0.455	0.462	0.404	0.443	0.406	0.414	0.400	0.368	0.545	0.942	1.837	2.006	1.478	0.795	1.014	1.596	3.944	9.287	22.45	38.75	30.95	18.42	3.489	0.484	0.377	0.338	0.377	0.332	0.303	0.305	0.363	0.309	0.335	0.316	0.320
270.0	48.40	37.35	37.44	75.85	253.3	426.9	314.5	515.1	2350	6152	5406	757.2	39.24	8.229	5.720	4.259	3.753	2.989	2.348	2.088	1.729	1.660	1.496	1.401	1.327	1.180	1.040	1.054	0.984	0.995	0.921	0.872	0.797	0.768	0.657	0.621	0.681	0.559	0.551	0.497	0.487	0.453	0.462	0.467	0.486	0.460	0.422	0.420	0.371	0.380	0.413	0.545	0.927	1.482	2.077	2.117	1.877	1.321	1.446	2.550	5.741	12.18	20.87	33.77	34.64	33.76	13.24	3.712	0.579	0.361	0.353	0.374	0.342	0.327	0.368	0.329	0.342
275.0	86.63	78.69	61.23	68.73	140.3	307.6	555.9	345.3	588.1	1630	5755	9608	1019	31.85	8.207	5.734	4.604	3.253	2.507	2.534	2.112	1.954	1.799	1.342	1.431	1.268	1.174	1.219	1.007	0.896	1.061	0.880	0.868	0.955	0.820	0.813	0.683	0.585	0.522	0.554	0.482	0.493	0.510	0.549	0.583	0.563	0.504	0.501	0.514	0.484	0.387	0.532	0.614	0.922	1.134	1.549	2.690	3.311	1.948	1.350	1.841	3.208	5.094	8.353	12.68	31.50	54.16	32.39	19.82	3.580	0.495	0.430	0.347	0.394	0.368	0.344	0.360
280.0	149.9	144.8	100.0	93.14	122.4	199.5	455.6	554.7	272.2	434.7	1789	8858	8697	147.5	16.36	7.057	5.312	3.948	3.209	2.603	2.393	1.988	1.715	1.560	1.589	1.337	1.275	1.223	0.948	1.077	0.977	0.902	0.924	0.816	0.823	0.841	0.719	0.684	0.658	0.639	0.573	0.789	0.607	0.609	0.749	0.669	0.636	0.681	0.620	0.584	0.508	0.543	0.712	0.800	0.882	1.038	1.731	2.646	3.580	2.721	1.582	1.261	1.632	2.440	3.441	8.357	21.16	42.77	64.63	31.00	14.47	1.768	0.498	0.509	0.412	0.404	0.369
285.0	192.5	208.7	153.5	123.7	127.5	170.5	266.7	565.1	343.7	213.9	504.0	2941	9999.9	6591	109.8	10.92	6.913	4.838	3.791	3.083	2.799	2.170	1.861	1.849	1.616	1.366	1.263	1.220	1.095	1.162	1.155	0.926	0.877	0.867	0.964	0.910	0.815	0.775	0.717	0.726	0.682	0.681	0.678	0.675	0.794	0.808	0.823	0.811	0.711	0.626	0.630	0.684	0.637	0.761	0.837	0.931	1.146	1.419	2.215	3.322	3.442	1.925	1.122	1.308	1.555	2.568	5.559	12.23	30.64	54.66	66.24	27.01	8.629	0.868	0.446	0.385	0.406
290.0	300.5	319.0	257.6	174.2	148.7	158.1	187.4	302.1	533.8	470.2	294.9	824.6	3182	7712	7375	440.8	27.67	7.098	4.990	3.868	3.127	2.484	2.164	1.965	1.730	1.589	1.414	1.317	1.228	1.234	1.163	1.048	1.031	0.991	1.056	1.012	1.047	0.912	0.867	0.803	0.783	0.787	0.800	0.898	0.894	0.983	1.058	1.173	0.910	0.883	0.757	0.781	0.764	0.771	0.853	0.978	0.990	1.070	1.256	1.675	2.507	3.017	3.250	2.615	1.663	1.557	2.203	3.747	7.881	15.15	28.60	39.96	38.00	44.90	18.12	7.848	1.148
295.0	401.9	445.5	361.9	250.1	192.8	186.3	195.0	230.4	341.6	714.8	672.8	478.5	929.9	1975	5585	9496	647.7	26.95	7.350	4.536	3.690	2.996	2.967	2.299	1.774	1.606	1.483	1.561	1.303	1.237	1.213	1.046	1.067	0.984	1.008	1.087	1.252	1.115	0.917	0.833	0.871	0.907	0.886	1.031	1.004	1.214	1.302	1.440	1.283	1.138	1.035	1.062	0.981	0.978	0.982	1.065	1.057	1.153	1.268	1.307	1.608	1.815	2.474	4.086	4.346	3.383	2.279	2.339	3.038	4.544	7.580	10.06	11.18	26.13	52.08	69.69	29.58
300.0	485.5	563.2	489.4	349.3	266.0	258.1	294.0	325.7	360.0	647.1	1095	752.0	596.3	715.3	1660	7630	5859	483.7	15.30	6.384	4.804	3.805	2.838	2.708	2.104	1.805	1.866	1.784	1.533	1.351	1.226	1.125	1.123	1.070	1.119	1.198	1.200	1.146	1.030	0.872	0.896	0.934	1.020	1.167	1.204	1.555	1.490	1.842	1.606	1.374	1.381	1.286	1.346	1.167	1.327	1.301	1.472	1.736	1.535	1.808	1.947	2.140	2.424	3.296	4.926	5.867	4.665	3.243	2.914	3.097	3.579	3.912	4.002	7.319	16.56	41.23	67.95
305.0	627.3	757.6	699.6	506.3	400.8	407.9	461.5	553.9	651.7	826.4	1239	1417	901.1	688.8	759.8	2481	8352	4938	74.55	10.37	6.045	4.501	3.648	3.123	2.582	2.146	1.754	1.833	1.453	1.404	1.305	1.209	1.065	1.128	1.345	1.253	1.230	1.379	1.197	1.161	1.111	1.100	1.190	1.357	1.509	1.869	1.973	2.334	2.037	1.841	1.756	1.817	1.733	1.674	1.752	1.750	2.059	2.400	2.416	2.814	3.062	3.328	3.364	4.403	4.793	5.871	7.209	7.080	5.287	4.219	3.867	3.728	3.417	4.065	5.757	11.64	24.95
310.0	809.3	1015	965.0	722.1	595.9	591.1	692.2	789.2	873.7	1054	1299	1627	1550	1053	792.6	983.7	2729	6128	6080	1382	23.20	6.245	4.704	3.642	2.997	2.587	2.107	1.967	1.692	1.560	1.461	1.349	1.178	1.167	1.283	1.308	1.392	1.372	1.275	1.263	1.335	1.306	1.383	1.613	1.917	2.337	2.666	2.970	2.855	2.511	2.332	2.589	2.370	2.301	2.372	2.537	2.865	3.411	3.479	3.769	3.807	4.283	4.585	5.082	5.524	5.884	6.832	7.633	8.214	7.874	6.391	5.297	4.686	4.405	4.322	5.282	8.033
315.0	989.7	1274	1285	941.0	782.6	760.8	872.0	960.7	1036	1212	1419	1624	1737	1637	1026	774.9	1030	1648	4241	8171	507.2	23.28	6.568	4.690	3.580	3.038	2.517	2.230	2.002	1.627	1.730	1.195	1.531	1.417	1.451	1.430	1.572	1.426	1.439	1.337	1.374	1.369	1.625	1.917	2.255	2.760	2.981	4.023	3.643	3.088	2.925	3.321	3.139	3.044	3.021	3.171	3.686	4.093	4.232	4.406	4.448	4.983	5.290	6.038	6.150	6.413	7.246	7.641	8.056	8.484	9.210	8.820	6.811	5.629	4.953	4.859	4.891
320.0	1203	1663	1629	1209	928.8	867.0	983.1	1070	1125	1319	1536	1735	1772	1840	1407	849.6	728.3	648.8	1194	5825	7038	402.2	14.17	6.017	4.266	3.328	2.824	2.366	2.075	1.834	1.789	1.446	1.547	1.559	1.432	1.578	1.568	1.444	1.555	1.370	1.419	1.429	1.864	2.228	2.567	3.306	3.854	4.949	4.732	4.069	3.755	3.862	3.560	3.645	3.425	3.706	4.050	4.497	4.742	4.669	4.989	5.158	5.624	6.342	6.686	7.236	7.325	8.008	8.432	8.355	8.559	9.583	9.315	8.354	5.798	5.421	4.607
325.0	1592	2358	2496	1839	1193	1010	1061	1163	1227	1434	1669	1875	1894	1832	1706	1097	742.1	485.1	427.2	1705	6701	3934	60.71	10.18	5.687	3.837	3.095	2.775	2.319	2.264	1.810	1.740	1.630	1.638	1.495	1.492	1.436	1.481	1.499	1.460	1.490	1.638	2.039	2.366	3.288	4.374	5.179	6.745	6.492	6.180	5.380	5.490	4.607	4.185	3.877	3.964	4.307	4.805	5.272	5.344	5.139	5.772	5.768	6.857	7.255	7.949	7.811	8.335	8.636	8.797	9.034	9.086	9.372	10.36	8.300	6.228	5.262
330.0	2178	3319	3800	3011	1878	1294	1209	1273	1345	1564	1841	2057	2115	1975	1762	1444	965.1	555.8	349.7	547.7	1973	4721	5110	1290	21.64	5.779	4.210	3.240	2.863	2.343	2.125	1.824	1.684	1.667	1.654	1.539	1.630	1.691	1.585	1.702	1.788	2.004	2.489	3.191	4.253	5.930	7.285	9.197	9.738	9.699	8.865	9.022	7.108	6.229	5.254	4.638	4.857	5.559	5.462	5.680	5.757	6.060	6.523	7.306	7.764	8.461	8.574	9.181	9.717	9.992	9.729	9.744	9.509	9.782	9.075	8.628	7.619
335.0	2515	3985	4696	4041	2667	1676	1362	1389	1454	1657	1959	2190	2268	2136	1835	1505	1288	756.6	441.2	373.9	625.8	1223	3475	7380	434.5	23.69	6.156	4.346	3.291	2.717	2.126	2.008	1.865	1.731	1.492	1.655	1.778	1.753	1.804	1.920	2.024	2.400	2.858	3.830	4.840	7.270	8.429	11.46	12.30	11.68	11.43	12.46	10.45	8.623	6.848	5.694	5.723	5.664	6.073	5.838	6.271	6.637	7.075	7.919	8.143	8.489	9.299	9.664	10.30	10.93	11.10	10.59	10.46	10.42	9.343	8.712	8.494
340.0	2682	4306	5184	4480	3000	1826	1418	1417	1468	1674	1974	2207	2281	2164	1871	1495	1268	967.6	535.3	373.6	352.7	438.3	985.6	5106	6464	374.1	13.02	5.172	4.069	3.176	2.553	2.279	1.882	1.789	1.602	1.694	1.744	1.618	1.837	1.783	2.214	2.392	3.079	3.903	5.061	7.066	9.157	12.14	13.53	12.93	12.62	13.86	11.61	9.739	7.530	6.450	5.876	6.050	6.152	6.141	6.449	6.502	6.906	7.832	8.168	8.854	9.385	10.04	10.33	11.04	10.93	10.65	10.40	9.984	9.220	8.483	7.985
345.0	2695	4303	5199	4512	3033	1856	1434	1403	1468	1661	1918	2140	2206	2105	1840	1466	1157	996.8	668.7	403.9	314.8	284.1	342.2	1477	5983	3391	54.30	8.015	4.811	3.891	2.926	2.547	2.155	1.703	1.562	1.720	1.602	1.773	1.864	1.904	2.097	2.482	3.081	3.711	5.117	7.047	8.802	12.07	13.73	12.73	12.88	13.75	11.87	9.752	7.660	6.465	6.035	5.988	6.316	6.289	6.353	6.446	7.193	7.503	8.130	8.339	8.943	9.644	10.40	10.16	10.62	10.68	10.06	9.986	9.065	8.430	7.729
350.0	2463	3931	4903	4354	3057	1924	1465	1412	1455	1613	1810	2001	2069	1983	1752	1420	1118	890.0	756.0	545.5	360.3	282.0	232.3	429.6	1705	4093	4461	1171	19.53	5.122	3.703	2.750	2.391	2.040	1.775	1.775	1.747	1.820	1.849	1.909	1.997	2.373	2.911	3.546	4.804	6.529	8.242	11.06	12.56	12.16	12.37	13.56	11.58	9.956	7.970	6.586	6.121	5.998	6.107	6.326	6.314	6.555	6.904	7.284	7.752	7.920	8.350	8.756	9.519	9.765	9.832	9.872	9.762	9.457	8.745	8.289	7.767
355.0	2260	3469	4434	4023	3016	1985	1532	1449	1484	1584	1730	1868	1903	1847	1636	1363	1096	856.2	696.5	653.8	486.6	327.6	243.8	226.3	458.1	992.0	3000	6331	403.8	21.41	5.295	3.541	2.562	2.153	1.861	1.713	1.824	1.863	1.694	1.833	2.006	2.261	2.790	3.398	4.513	6.069	7.696	10.01	10.99	10.73	11.47	12.76	11.21	9.821	8.263	6.796	6.528	6.022	6.382	6.192	6.367	6.587	6.874	7.075	7.654	7.539	7.976	8.690	9.061	8.866	9.044	8.943	9.110	9.158	8.065	8.012	7.597
360.0	2036	3171	3944	3689	2846	1952	1561	1478	1505	1583	1684	1759	1809	1731	1560	1317	1066	850.8	678.5	616.2	588.0	394.6	273.1	206.8	202.7	288.5	803.3	4443	5846	356.1	12.20	4.837	3.224	2.801	2.072	1.853	2.019	1.936	1.732	1.711	1.974	2.223	2.508	3.202	4.269	5.186	6.820	8.871	10.35	10.19	10.41	11.60	10.23	9.557	7.858	6.511	6.616	5.946	6.436	6.380	6.080	6.745	6.810	7.130	7.447	7.327	7.434	8.253	8.583	8.485	8.352	8.494	8.224	8.706	7.952	7.678	7.397
365.0	1898	2850	3580	3421	2675	1918	1571	1494	1506	1575	1636	1702	1702	1632	1479	1263	1041	843.8	682.1	588.4	591.1	499.3	320.5	225.5	169.4	151.6	238.3	1287	5564	3204	50.99	8.351	4.294	3.197	2.231	2.006	2.130	1.859	1.707	1.747	1.749	2.009	2.512	2.921	3.824	4.768	6.178	8.193	9.363	9.446	9.722	10.94	9.457	9.025	7.652	6.419	6.695	6.140	6.455	6.244	6.573	6.920	7.063	7.256	7.101	7.324	7.489	7.640	8.077	7.762	8.366	8.223	7.841	7.932	7.961	7.435	7.455
370.0	1678	2467	3148	3062	2517	1918	1582	1520	1519	1566	1603	1628	1624	1532	1383	1205	1025	849.7	708.3	610.0	554.8	546.3	446.4	295.2	210.3	163.4	151.5	360.9	1602	3998	4324	1082	20.06	5.514	3.240	2.518	2.352	1.883	1.821	1.849	1.778	1.948	2.365	2.770	3.586	4.468	5.413	7.127	7.906	7.950	8.367	9.834	8.907	8.557	7.321	6.548	6.863	6.564	6.436	6.454	6.535	6.731	7.248	7.173	7.176	7.093	7.288	7.225	7.308	7.421	7.539	7.744	7.686	7.747	7.475	7.053	6.900
375.0	1523	2256	2735	2761	2388	1893	1621	1553	1550	1571	1616	1617	1607	1471	1316	1148	1004	860.5	737.0	646.3	576.4	535.5	528.2	436.1	288.3	225.9	200.7	220.8	454.3	1008	3108	5950	351.4	22.53	5.308	3.590	2.720	2.157	1.892	1.845	1.883	1.948	2.133	2.586	3.398	3.904	4.811	6.245	6.997	7.155	7.414	9.143	8.460	8.150	7.184	6.749	6.669	6.741	6.381	6.742	6.622	6.973	7.333	6.994	7.138	7.379	6.951	7.033	6.836	7.459	7.640	7.349	7.164	6.664	7.083	6.645	6.314
380.0	1411	2012	2455	2584	2296	1914	1645	1576	1558	1586	1634	1606	1598	1452	1272	1119	986.9	863.4	759.7	681.5	615.8	562.7	538.4	533.9	387.7	291.5	262.1	236.0	236.2	338.9	928.3	4397	5115	298.9	11.61	4.651	3.359	2.522	2.107	1.946	1.899	2.014	2.300	2.648	3.023	3.753	4.448	5.702	6.399	6.682	7.012	8.140	8.263	7.894	7.554	6.599	7.112	6.708	6.417	6.872	6.423	7.233	7.505	7.212	6.890	7.538	7.068	6.984	7.041	7.870	7.802	7.120	6.760	6.760	6.788	6.505	6.323
385.0	1316	1849	2295	2390	2203	1906	1674	1574	1568	1578	1626	1604	1594	1435	1258	1105	981.8	870.3	785.1	714.2	658.4	607.6	560.6	564.3	499.2	367.9	323.7	280.9	223.9	220.7	360.6	1370	4913	2676	41.67	7.855	4.524	2.993	2.522	1.982	2.003	2.060	2.394	2.741	3.026	3.829	4.139	5.159	6.207	6.071	6.381	7.511	7.875	7.728	7.276	6.916	7.073	6.831	6.802	6.950	6.962	7.044	7.111	7.058	6.982	7.230	7.053	7.039	7.000	7.346	7.604	6.936	6.898	6.622	6.799	6.469	6.624
390.0	1230	1729	2121	2220	2104	1896	1702	1612	1577	1590	1623	1582	1565	1420	1254	1114	1000	913.9	841.8	792.9	754.4	712.9	658.9	624.0	599.7	521.3	418.0	353.4	277.4	240.1	258.1	448.5	1459	3338	3368	840.1	17.00	5.156	3.275	2.438	2.148	2.180	2.141	2.619	2.930	3.583	4.001	5.006	5.634	5.508	5.967	7.124	7.469	7.656	7.150	6.975	7.075	6.834	6.899	6.875	6.922	6.740	7.158	6.970	6.858	6.984	6.803	6.801	6.794	7.419	7.225	6.824	6.843	6.635	6.505	6.286	6.512
395.0	1199	1621	1955	2098	2074	1908	1746	1667	1618	1636	1677	1645	1624	1490	1312	1177	1066	997.6	947.3	922.1	900.4	879.0	837.0	788.4	723.3	686.8	615.7	471.7	394.3	337.3	314.9	304.8	450.7	860.9	2519	4609	290.5	18.38	5.275	3.176	2.908	2.334	2.407	2.768	2.819	3.620	3.824	4.861	5.337	5.206	5.948	6.993	7.169	7.403	7.433	7.071	7.167	6.997	7.179	6.898	6.970	6.692	7.146	7.056	7.148	7.036	7.030	7.143	6.995	7.437	7.197	7.173	6.538	6.787	6.736	6.525	6.422
400.0	1194	1584	1887	2007	2064	1936	1789	1717	1663	1702	1768	1761	1738	1599	1396	1253	1149	1076	1033	1036	1026	1019	985.5	941.0	860.1	799.9	779.5	650.8	519.4	444.7	406.7	342.6	277.1	313.6	748.9	3524	3806	240.2	10.68	4.292	3.298	2.520	2.652	2.851	2.894	3.590	4.015	4.764	5.080	4.965	5.819	7.329	7.143	7.404	7.794	7.291	7.673	7.181	7.625	7.494	7.258	6.963	7.342	7.340	7.271	7.504	7.005	7.031	7.341	7.321	7.702	6.775	7.150	7.155	6.720	6.842	6.842
405.0	1185	1528	1871	1966	2030	1970	1825	1758	1718	1770	1863	1871	1849	1689	1493	1326	1209	1130	1105	1116	1128	1130	1115	1073	994.6	911.2	885.9	811.3	648.7	556.9	505.2	416.1	293.0	230.3	283.5	1096	3807	2253	37.03	6.013	3.773	2.871	2.957	2.927	2.966	3.573	3.783	4.683	5.206	5.195	5.663	7.317	7.252	7.685	8.013	7.570	7.936	7.635	7.945	7.583	7.215	7.326	7.258	7.349	7.909	7.545	7.530	7.316	7.827	7.508	7.677	6.926	7.196	7.152	7.007	6.999	7.296
410.0	1101	1464	1774	1905	1979	1969	1879	1793	1743	1813	1915	1921	1890	1751	1550	1381	1254	1166	1143	1161	1184	1198	1203	1163	1090	999.0	939.4	883.5	778.1	654.6	575.7	472.1	339.5	252.8	209.7	349.1	1153	2659	2685	697.0	12.49	3.659	3.192	3.072	3.223	3.508	3.753	4.686	5.171	5.033	5.511	6.961	7.492	7.735	7.945	7.798	7.874	7.858	7.873	7.696	7.283	7.572	7.360	7.637	7.495	7.499	7.404	7.293	7.410	7.741	7.706	7.148	7.230	7.040	7.143	7.057	7.229
415.0	1066	1390	1685	1843	1929	1947	1908	1815	1748	1780	1874	1882	1849	1707	1525	1374	1253	1170	1146	1170	1192	1212	1223	1186	1112	1029	950.9	870.9	811.6	724.0	604.1	489.4	363.0	271.9	204.6	188.3	327.5	662.7	1963	3410	257.4	12.48	3.637	3.451	3.411	3.520	3.744	4.784	4.924	5.109	5.303	6.635	7.464	7.790	7.782	7.790	8.281	8.061	7.970	7.694	7.348	7.376	7.024	7.429	7.195	7.373	7.040	6.701	6.985	7.596	7.543	6.945	7.141	6.997	6.957	6.616	7.230
420.0	1042	1330	1645	1782	1905	1985	1950	1850	1757	1734	1812	1813	1767	1657	1485	1342	1234	1157	1138	1167	1193	1209	1217	1184	1112	1032	953.4	864.3	791.8	744.1	631.6	497.6	372.5	277.7	205.6	157.4	144.4	188.2	541.1	2577	2171	215.7	6.428	3.963	3.646	3.655	3.819	4.805	4.817	4.775	5.131	6.729	7.238	7.748	7.863	7.916	8.143	8.361	8.242	7.744	7.380	7.434	7.180	7.407	7.101	6.862	6.968	7.005	6.845	6.950	7.107	6.810	6.952	6.914	6.733	6.595	6.802
425.0	997.6	1360	1592	1754	1947	2022	2050	1913	1782	1732	1775	1776	1732	1621	1466	1328	1218	1149	1146	1173	1185	1199	1207	1182	1115	1036	953.0	876.7	790.2	737.9	671.3	521.7	384.8	290.0	215.2	155.3	109.5	85.15	145.3	768.3	2683	1992	33.40	4.961	3.810	3.835	3.764	4.670	4.829	4.664	5.267	6.654	7.361	7.626	7.944	7.997	8.453	8.781	8.529	8.097	7.670	7.349	7.405	6.777	7.364	6.847	6.701	7.058	6.638	6.748	6.701	7.143	6.423	6.824	6.671	6.831	6.587
430.0	1071	1351	1567	1796	1984	2141	2174	2051	1861	1739	1744	1743	1709	1613	1458	1332	1227	1159	1154	1166	1172	1185	1192	1174	1115	1045	964.8	889.9	809.7	743.7	685.7	576.2	425.8	319.3	239.2	172.2	115.1	71.02	62.14	189.9	784.6	2039	2179	607.2	12.30	4.421	4.204	4.918	4.933	4.774	5.301	6.710	7.540	8.079	8.243	8.615	9.515	9.467	9.346	8.853	8.317	7.704	7.267	7.129	7.175	6.892	6.473	6.583	6.493	6.574	6.713	6.508	6.474	6.891	6.486	6.679	6.828
435.0	1294	1380	1558	1808	2075	2307	2380	2250	1976	1755	1709	1708	1687	1595	1443	1329	1226	1159	1146	1147	1140	1144	1150	1137	1092	1026	960.1	892.7	822.3	753.2	677.0	594.7	478.5	353.3	264.5	192.3	130.1	78.61	50.49	64.78	189.7	486.9	1518	2970	243.4	13.81	4.722	5.062	4.936	4.863	5.308	6.945	7.657	8.736	8.503	9.289	10.15	10.25	10.10	9.518	8.897	8.076	7.653	7.005	6.649	6.460	6.392	6.310	6.416	6.762	6.702	6.422	6.102	6.772	6.301	6.678	7.260
440.0	1644	1440	1573	1823	2159	2415	2568	2393	2022	1753	1652	1648	1628	1530	1414	1303	1209	1150	1136	1123	1098	1089	1093	1080	1055	992.6	930.1	872.2	812.3	743.3	666.3	579.6	493.6	375.5	275.8	200.9	137.7	85.94	52.18	40.05	60.28	121.6	411.7	2237	2027	204.7	8.270	5.432	5.184	4.676	5.496	7.256	7.668	8.821	8.740	9.583	10.64	11.00	10.70	9.763	9.035	8.296	7.382	6.753	6.428	6.344	6.250	5.977	6.248	6.483	6.506	6.304	6.268	6.579	6.366	6.603	6.666
445.0	1744	1637	1533	1826	2186	2509	2649	2475	2038	1717	1581	1585	1538	1459	1361	1269	1182	1124	1114	1089	1042	1027	1031	1022	990.3	945.1	889.4	834.2	777.5	721.7	649.5	558.5	475.3	386.5	282.1	203.4	142.9	89.15	55.70	38.02	33.36	41.75	103.5	665.4	2362	1844	29.43	6.547	5.453	4.959	5.484	7.333	7.661	8.995	9.213	9.899	11.25	11.38	11.19	9.578	9.398	8.331	7.911	6.768	6.162	6.034	5.847	6.000	6.011	6.133	6.157	6.225	6.546	6.325	6.402	6.703	6.339
450.0	1481	2109	1627	1801	2200	2558	2751	2531	2046	1638	1460	1447	1411	1351	1263	1190	1117	1072	1058	1026	956.5	936.3	932.4	923.9	901.5	859.7	818.4	774.0	729.7	678.9	612.4	525.4	436.4	365.4	291.3	207.5	141.7	92.93	60.76	41.74	30.80	26.77	36.08	159.3	682.7	1810	1949	556.5	12.26	5.505	5.660	7.288	7.851	8.761	9.359	9.925	11.54	11.54	11.34	10.09	9.403	8.346	7.637	6.571	5.822	5.833	5.686	5.824	5.589	5.508	5.667	5.772	6.053	5.934	6.125	6.415	6.180
455.0	1083	2316	2069	1743	2150	2527	2754	2516	2001	1534	1338	1314	1284	1233	1145	1096	1041	1002	983.7	946.6	876.2	835.9	832.0	825.8	804.1	772.7	741.8	703.7	673.3	631.3	572.8	489.4	408.6	333.2	278.5	217.6	147.0	96.66	63.52	45.90	33.84	26.17	23.08	47.13	161.9	428.7	1202	2379	202.9	13.48	6.042	6.997	7.486	8.324	9.313	9.773	11.31	11.54	11.27	10.03	9.583	8.190	6.987	6.158	5.398	5.243	5.523	5.354	5.034	5.188	5.170	5.288	5.649	5.672	5.600	5.792	5.929
460.0	926.0	1940	2667	1770	2090	2445	2680	2444	1928	1458	1243	1223	1180	1144	1070	1028	977.5	944.9	915.8	881.0	800.9	761.2	754.8	755.4	732.9	709.7	685.8	656.1	629.3	589.9	535.0	463.6	384.9	315.4	259.0	216.1	152.7	98.45	66.84	48.29	35.53	27.56	22.55	23.53	47.05	105.5	313.4	1604	1662	165.3	9.592	7.232	7.605	8.475	9.326	9.733	11.21	11.67	11.17	10.05	9.223	8.232	6.804	5.992	5.361	5.131	5.025	4.888	4.770	4.706	5.057	5.175	5.310	5.297	5.415	5.544	5.951
465.0	822.1	1460	2884	2043	1959	2331	2586	2341	1841	1386	1159	1125	1087	1058	995.5	958.3	911.2	876.8	855.2	813.8	727.5	689.4	688.2	684.4	669.8	651.2	625.1	606.8	582.9	551.7	503.4	441.1	367.5	300.4	242.2	200.3	156.4	103.8	69.20	51.11	37.80	29.23	23.73	19.73	22.54	33.96	79.35	453.2	1744	1409	133.6	8.465	7.566	8.062	8.944	9.369	10.76	11.23	10.71	9.644	8.620	7.758	6.646	5.742	5.250	4.816	4.732	4.333	4.476	4.824	4.732	4.889	4.868	4.739	4.860	5.337	5.402
470.0	773.1	1081	2173	2754	1921	2140	2366	2156	1684	1249	1037	995.0	971.1	930.2	884.2	855.7	810.6	781.2	758.4	711.4	635.9	593.6	594.6	589.3	580.9	567.2	547.1	529.7	513.4	490.7	447.8	393.3	331.8	272.2	219.8	177.8	144.8	109.7	72.87	51.63	39.44	31.31	25.47	21.16	18.52	19.32	28.50	110.4	486.2	1254	1384	489.3	14.60	7.983	8.189	8.444	9.627	10.17	9.939	9.074	8.092	6.789	6.048	5.180	4.789	4.310	4.296	4.003	4.136	4.235	4.283	4.421	4.505	4.488	4.513	4.673	4.746
475.0	702.1	922.5	1329	2800	2359	1911	2109	1946	1506	1093	905.2	872.8	846.5	799.8	771.9	739.4	707.4	684.8	658.5	615.1	541.7	500.5	495.6	492.3	488.3	479.0	467.7	453.8	443.7	423.9	390.9	346.3	290.5	242.3	198.0	156.7	125.2	103.3	80.61	54.12	40.27	32.76	26.25	22.51	19.21	16.76	17.61	34.10	116.4	291.4	683.2	1557	210.2	17.67	7.890	8.148	9.069	8.853	8.802	8.205	7.088	6.346	5.366	4.577	3.886	3.994	3.812	3.765	3.636	3.851	3.650	3.717	3.688	3.930	3.770	4.253	4.436
480.0	677.7	842.1	1028	2183	2906	1863	1934	1775	1374	1003	813.4	777.0	752.7	715.8	691.5	668.9	638.5	613.9	594.2	549.3	480.4	440.5	432.8	431.6	425.8	424.6	414.9	405.9	396.2	376.7	351.5	310.6	263.4	220.5	179.9	144.2	114.6	92.17	80.11	58.89	41.68	33.49	27.17	23.46	19.21	17.73	15.37	17.61	33.90	72.11	170.1	852.8	1430	200.3	12.99	8.030	8.391	8.220	8.338	7.471	6.704	5.852	4.989	4.118	3.684	3.556	3.337	3.288	3.548	3.271	3.370	3.399	3.430	3.397	3.491	3.865	4.072
485.0	619.1	788.8	907.8	1492	3122	2098	1782	1635	1275	920.6	746.6	718.3	686.1	656.0	629.6	605.2	578.5	554.7	534.6	496.3	433.5	391.9	387.6	384.2	384.1	380.0	370.7	364.4	361.1	343.8	316.3	283.5	240.9	203.2	166.7	134.4	107.0	82.62	72.82	63.94	45.45	33.81	27.59	24.36	19.29	18.26	15.53	13.84	16.05	23.28	44.17	225.7	1073	1335	161.3	9.352	7.992	7.849	7.886	7.009	6.110	5.414	4.665	3.787	3.528	3.206	3.103	3.053	3.012	3.122	3.199	3.223	3.168	3.120	3.291	3.632	3.777
490.0	537.0	747.6	808.3	1054	2275	2843	1707	1447	1109	823.1	669.8	634.9	605.6	577.5	550.3	529.8	507.0	489.2	471.8	433.1	377.3	339.4	335.4	335.1	332.8	331.0	323.0	319.1	313.1	304.2	280.0	252.0	215.7	182.1	150.2	122.2	98.42	76.92	63.43	59.06	50.09	36.98	28.97	24.42	20.78	18.51	15.97	13.88	12.40	12.49	16.11	56.44	279.4	808.5	1169	505.3	17.48	7.602	7.321	6.370	5.500	4.840	4.254	3.477	3.347	2.944	2.839	2.818	2.752	2.904	2.863	2.933	2.891	2.851	3.038	3.149	3.298
495.0	452.0	646.5	726.3	840.1	1346	2857	2138	1254	981.2	714.0	594.6	564.6	528.0	505.4	471.8	458.6	439.0	420.9	405.8	370.4	320.4	290.0	286.9	286.3	285.3	277.3	276.0	272.2	269.3	261.3	245.3	218.2	189.8	160.6	132.8	109.9	89.25	70.47	58.67	50.45	48.47	42.39	31.50	25.22	21.87	18.89	16.12	14.73	12.24	10.57	10.49	18.47	67.98	187.3	507.8	1355	731.8	21.66	6.681	5.809	4.889	4.330	3.697	3.069	2.821	2.764	2.602	2.538	2.352	2.575	2.429	2.416	2.771	2.698	2.716	2.790	2.846
500.0	400.9	560.1	697.2	739.2	987.7	2140	2763	1209	864.6	636.5	529.7	498.7	475.8	451.0	419.9	407.5	386.0	369.5	354.4	328.1	283.0	256.3	250.6	250.9	247.7	242.5	241.4	242.3	238.3	232.8	217.5	195.3	170.8	145.4	120.9	100.7	83.22	66.55	55.11	46.02	42.89	42.30	33.72	25.56	21.23	18.84	16.49	14.68	12.73	10.63	9.207	10.29	20.41	47.11	124.0	639.8	1448	231.2	15.96	5.477	4.561	3.965	3.399	3.058	2.590	2.431	2.356	2.314	2.242	2.192	2.371	2.257	2.475	2.341	2.469	2.270	2.675
505.0	340.4	485.2	629.8	666.5	819.9	1377	2988	1473	774.8	570.9	479.3	445.3	423.9	400.7	375.8	355.8	341.4	325.4	311.9	288.1	251.2	226.6	220.9	219.6	218.5	217.3	214.7	214.3	210.3	206.6	192.5	174.9	152.8	130.1	111.4	91.47	75.50	60.68	51.68	43.02	38.28	38.81	36.84	27.93	21.61	18.51	16.62	14.57	12.23	10.61	8.843	8.295	10.08	15.56	32.93	159.9	816.6	1258	199.6	9.265	4.254	3.776	3.150	2.958	2.550	2.429	2.198	2.135	2.168	1.990	2.493	2.052	2.156	2.165	2.165	2.161	2.203
510.0	297.2	393.9	518.3	618.1	683.5	912.2	2084	2341	788.5	492.6	416.1	384.0	364.7	342.5	323.0	305.1	291.7	276.0	262.0	241.4	211.6	187.8	184.4	184.6	182.1	182.1	178.5	178.6	177.2	173.9	164.5	149.1	130.3	112.0	95.17	80.14	67.24	54.91	46.21	38.84	34.29	32.10	32.95	30.19	23.22	18.27	16.19	13.91	11.67	10.46	9.061	7.992	7.533	8.591	12.32	40.37	201.9	627.8	947.4	436.8	16.39	3.599	2.683	2.545	2.224	2.000	1.898	1.983	1.821	1.743	1.938	2.010	1.818	1.906	1.882	1.875	2.054
515.0	258.8	321.5	408.3	551.0	593.5	687.8	1066	2549	1362	423.0	350.3	331.1	307.9	282.2	266.4	251.5	242.5	225.3	217.7	200.6	172.3	156.4	152.5	150.9	152.2	149.5	147.4	148.0	146.8	144.1	136.3	123.5	108.3	95.56	80.65	68.77	58.47	47.82	41.54	34.86	31.13	28.05	26.73	27.68	25.25	19.51	15.76	13.80	11.79	10.38	8.962	8.127	7.330	6.677	7.278	13.16	49.19	144.5	323.4	940.1	626.7	21.66	2.697	2.224	2.018	1.798	1.577	1.689	1.576	1.521	1.685	1.771	1.676	1.753	1.726	1.691	1.754
520.0	220.1	276.1	341.0	475.2	546.2	577.7	712.0	1790	2201	473.5	308.4	293.4	272.0	252.7	229.3	221.8	206.2	197.5	187.8	174.6	147.6	134.7	131.5	129.7	130.1	129.6	125.5	128.5	126.8	125.3	117.6	107.5	92.90	83.57	71.40	60.82	50.95	44.60	37.51	32.75	29.23	25.62	22.50	24.12	25.22	20.94	15.85	13.17	11.58	10.06	8.380	8.297	7.191	6.378	6.042	6.990	15.32	35.96	77.31	387.0	1012	238.3	14.89	2.394	2.011	1.686	1.603	1.495	1.393	1.456	1.652	1.408	1.614	1.509	1.397	1.534	1.526
525.0	190.2	263.1	300.1	392.7	503.2	505.6	561.1	987.1	2623	832.0	278.5	258.5	238.5	216.7	201.3	191.3	180.7	171.3	165.1	150.4	130.5	116.7	113.0	114.4	112.4	112.1	110.6	111.4	111.1	107.2	103.4	94.09	83.35	73.62	63.24	54.02	46.87	39.96	34.27	30.39	26.38	23.47	21.43	20.88	22.44	21.95	16.50	12.99	11.21	9.468	8.030	7.672	7.008	6.177	5.582	5.816	7.173	11.47	20.82	93.70	488.9	886.0	201.8	7.391	2.000	1.547	1.552	1.322	1.299	1.382	1.395	1.376	1.418	1.300	1.338	1.410	1.440
530.0	159.2	220.3	245.4	308.7	431.3	463.1	454.4	540.4	1714	1977	368.5	219.1	203.4	186.9	170.5	162.7	153.8	143.3	137.0	126.1	107.5	97.77	95.29	95.43	94.24	92.45	92.25	91.98	93.26	90.79	87.59	79.23	71.14	62.45	54.43	46.49	40.47	34.71	30.77	27.00	24.21	21.64	19.21	18.34	17.98	19.50	17.85	13.15	10.60	8.795	7.488	7.278	6.592	5.970	5.732	5.009	5.210	6.027	7.803	23.75	117.0	386.7	640.5	328.0	15.81	1.806	1.372	1.349	1.322	1.347	1.236	1.190	1.213	1.158	1.164	1.150	1.179
535.0	150.7	186.0	204.0	242.8	330.9	416.3	379.2	368.0	666.2	2323	1059	189.7	172.6	154.2	142.9	132.8	126.8	117.4	111.6	102.8	88.10	80.15	78.42	76.67	76.81	76.23	74.83	76.72	75.77	74.61	72.57	65.55	59.29	52.51	45.31	39.76	34.53	30.65	26.91	23.75	21.50	19.23	16.87	16.02	14.87	15.05	16.72	14.40	10.72	8.463	6.908	6.786	5.764	5.239	5.517	4.686	4.537	4.459	4.428	7.928	28.58	88.44	195.5	600.2	473.3	21.02	1.565	1.271	1.285	1.224	1.101	1.196	1.192	0.928	1.041	0.990	0.936
540.0	128.5	150.5	177.3	205.6	261.7	361.2	335.3	301.2	329.7	1487	1930	219.7	150.8	133.5	120.5	114.2	107.8	101.6	96.35	86.78	76.11	69.46	68.11	67.41	65.27	65.20	64.22	65.51	64.87	63.59	61.57	56.93	51.34	44.98	38.54	34.94	30.99	27.49	24.33	21.16	19.29	17.33	15.35	13.96	13.72	12.29	13.95	14.39	11.24	8.175	6.677	6.199	5.367	5.125	4.879	4.788	4.344	3.959	3.549	4.240	8.392	21.76	45.75	223.8	662.0	234.1	13.62	1.305	1.099	1.037	0.988	1.049	0.922	0.962	0.844	0.879	0.925
545.0	110.3	135.3	163.9	177.6	212.3	305.2	318.9	255.6	233.3	653.7	2499	552.9	130.0	115.8	105.4	97.54	93.19	86.78	80.25	74.77	65.38	58.59	57.93	57.32	56.10	56.16	55.76	55.85	55.62	54.88	52.96	49.67	44.34	39.38	34.25	30.61	26.89	24.15	21.37	19.22	16.74	15.23	14.15	13.00	12.25	11.10	11.34	12.49	11.16	8.343	6.552	5.689	4.851	4.838	4.401	4.401	4.281	3.804	3.132	3.274	3.902	6.751	11.96	53.22	292.1	605.0	184.7	5.476	1.201	1.105	0.914	0.910	0.913	0.875	0.932	0.870	0.990
550.0	91.44	124.4	131.6	146.7	174.5	227.8	289.5	222.7	177.7	263.5	1493	1677	161.0	96.11	87.44	81.20	74.68	71.48	66.92	60.32	52.72	48.73	46.47	46.28	44.90	44.62	46.35	44.97	45.33	44.80	43.33	40.19	35.81	32.09	28.56	25.26	22.37	19.75	18.00	16.09	14.18	13.33	12.68	11.22	10.29	9.614	9.050	9.412	9.985	8.658	6.649	5.312	4.442	4.180	3.986	3.826	3.829	3.670	2.877	2.631	2.625	3.217	4.205	13.20	69.14	246.2	427.0	215.4	14.32	1.155	0.860	0.912	0.843	0.832	0.759	0.800	0.824
555.0	90.22	105.3	102.1	115.1	135.3	166.2	220.6	209.9	140.8	143.0	475.1	2114	696.9	83.10	70.58	64.00	60.78	56.62	53.45	47.34	41.77	38.43	37.68	37.30	36.59	36.26	36.48	35.91	36.54	35.66	34.19	31.46	28.00	25.39	22.94	20.39	18.23	16.03	14.73	13.27	12.16	11.28	10.13	9.583	8.562	8.073	7.427	7.208	7.421	8.119	6.815	5.257	4.106	3.583	3.503	3.164	3.160	3.329	2.955	2.390	2.127	2.259	2.495	4.221	16.56	56.00	126.2	368.1	240.1	18.44	0.947	0.871	0.848	0.816	0.724	0.747	0.682
560.0	81.84	96.56	92.61	97.61	115.5	131.6	175.8	208.4	121.4	107.9	179.6	1312	1431	108.9	59.47	54.04	49.85	45.80	44.58	39.92	34.69	32.13	30.89	30.20	30.04	30.38	29.72	29.65	29.12	29.14	28.56	25.90	23.65	21.21	18.63	17.05	15.15	13.65	12.17	10.98	10.40	9.747	8.704	7.835	7.926	6.931	6.450	5.892	5.676	6.609	6.591	4.974	3.728	3.302	2.952	2.838	2.777	2.651	2.800	2.489	1.917	1.930	1.769	2.113	4.798	13.57	29.34	134.7	384.8	196.1	10.21	1.001	0.808	0.680	0.665	0.655	0.554
565.0	76.42	85.92	85.83	91.47	96.74	111.0	131.6	188.8	116.0	88.15	102.0	513.2	2055	322.6	51.93	46.16	40.67	37.97	37.18	32.58	28.73	27.61	25.80	25.62	24.64	24.27	25.40	25.54	24.37	24.09	24.29	21.95	19.60	17.79	16.20	14.92	12.96	11.78	10.07	9.540	8.783	8.356	7.450	6.790	6.689	6.220	5.717	5.336	4.771	5.014	5.704	5.015	3.537	3.003	2.863	2.442	2.538	2.261	2.249	2.563	1.958	1.644	1.610	1.470	2.005	4.128	7.454	31.94	167.8	361.3	125.5	3.786	0.880	0.685	0.635	0.562	0.591
570.0	73.93	85.66	75.90	74.77	81.85	88.35	97.90	141.7	132.8	75.99	74.43	171.5	1260	1250	78.95	36.64	33.18	31.25	28.64	26.23	23.18	21.45	20.64	19.91	19.80	19.57	19.94	20.17	19.41	19.27	18.57	17.60	15.92	14.51	12.89	11.78	10.55	9.719	8.516	7.977	7.335	6.610	6.358	5.758	5.486	5.207	4.842	4.448	3.997	3.849	4.055	4.654	3.668	3.033	2.491	2.148	2.190	2.144	1.943	2.107	2.056	1.809	1.473	1.226	1.411	1.897	2.615	8.150	39.58	141.8	233.5	130.0	12.52	0.778	0.650	0.541	0.494
575.0	73.77	77.52	66.29	64.40	64.50	69.64	74.57	93.48	133.7	79.52	59.30	79.60	371.4	1644	452.8	31.19	27.41	24.32	23.53	20.50	18.30	16.93	15.99	16.11	16.11	15.22	15.27	15.24	15.34	15.54	14.51	14.00	12.92	11.48	10.23	9.669	8.395	7.796	6.959	6.321	6.091	5.428	5.254	4.875	4.914	4.224	4.062	3.570	3.285	2.951	2.964	3.315	3.619	3.077	2.242	1.858	1.996	1.855	1.647	1.673	2.009	1.863	1.567	1.253	1.361	1.361	1.496	2.752	9.724	32.39	68.07	206.9	170.6	14.21	0.712	0.592	0.437
580.0	64.44	76.90	66.99	57.17	51.38	58.33	61.04	69.86	114.2	95.20	58.23	58.81	122.4	1029	1015	44.33	23.28	20.84	18.76	17.42	15.83	14.51	13.63	13.57	13.05	12.50	13.31	12.39	12.68	13.29	11.90	11.30	10.86	9.683	8.724	7.796	7.287	6.369	6.191	5.438	5.405	4.583	4.351	4.117	4.046	3.691	3.429	3.483	3.072	2.602	2.344	2.654	3.125	3.232	2.324	1.878	1.740	1.696	1.642	1.663	1.635	1.635	1.829	1.396	1.288	1.158	1.264	1.502	3.100	7.982	16.20	74.04	227.3	121.3	6.227	0.561	0.487
585.0	59.13	67.09	59.19	56.19	46.33	53.23	51.91	58.01	83.63	112.1	57.38	52.80	62.63	387.5	1516	108.2	19.73	17.98	15.97	15.32	12.91	11.91	11.53	11.68	10.77	10.82	11.19	11.00	10.82	10.49	10.41	9.603	8.978	7.851	7.338	6.913	6.516	5.355	5.043	4.749	4.581	4.147	3.822	3.641	3.380	3.250	3.203	2.876	2.607	2.433	2.117	2.142	2.339	2.939	2.501	2.024	1.593	1.613	1.511	1.519	1.394	1.288	1.625	1.573	1.211	1.111	1.089	1.094	1.538	2.526	4.391	17.84	95.69	211.6	34.29	2.231	0.601
590.0	65.95	67.35	57.44	52.04	44.88	45.47	47.16	46.72	60.23	103.6	72.10	49.37	46.39	117.4	923.7	781.5	37.45	15.08	13.36	12.33	10.45	9.888	9.805	9.438	8.814	8.980	8.767	9.100	8.548	8.785	8.235	7.787	7.116	6.682	6.178	5.532	5.172	4.662	4.140	3.941	3.760	3.410	3.041	3.059	2.853	2.759	2.538	2.444	2.245	1.941	1.877	1.750	1.762	2.101	2.374	2.039	1.577	1.394	1.280	1.147	1.303	1.098	1.286	1.524	1.268	1.087	0.944	1.034	1.101	1.329	1.698	4.658	22.61	81.47	132.6	81.87	10.25
595.0	61.26	63.89	56.60	45.07	36.37	39.22	39.99	43.28	45.59	77.81	92.93	50.17	41.11	51.11	261.2	1092	244.3	12.57	11.20	9.953	8.729	7.963	8.216	7.340	7.339	7.329	6.654	6.965	7.157	6.881	6.454	6.210	6.246	4.980	5.065	4.565	4.182	3.894	3.462	3.310	2.916	2.672	2.608	2.609	2.292	2.413	2.011	1.935	1.805	1.561	1.604	1.733	1.545	1.620	1.855	1.874	1.617	1.192	1.074	1.054	1.030	1.087	1.078	1.122	1.487	1.269	0.951	0.929	0.965	1.016	1.018	1.658	5.628	18.67	38.14	119.3	105.3
600.0	61.02	61.24	52.54	42.30	39.96	35.03	38.32	44.03	45.23	59.99	101.9	56.98	44.23	37.11	80.10	722.8	661.6	19.23	9.811	8.630	7.623	7.231	6.804	6.003	6.223	5.852	5.891	6.010	6.077	5.881	5.413	5.242	5.017	4.422	4.221	3.727	3.481	3.052	2.960	2.808	2.542	2.584	2.170	2.238	1.938	2.024	1.887	1.779	1.577	1.474	1.391	1.325	1.294	1.261	1.541	1.610	1.764	1.271	1.090	1.081	0.949	0.936	1.020	0.901	1.057	1.382	1.009	0.831	1.005	0.886	0.818	0.943	1.874	4.682	9.073	41.93	132.0
605.0	62.89	72.90	58.80	45.01	39.14	37.94	41.03	42.85	49.11	57.91	98.93	78.94	47.62	38.86	41.01	279.5	976.6	69.59	8.626	7.275	6.745	5.998	5.419	5.438	5.311	5.024	5.235	5.138	5.039	5.025	4.762	4.480	4.106	3.877	3.416	3.330	3.065	2.674	2.183	2.340	2.162	2.364	2.244	2.034	1.797	1.869	1.658	1.515	1.568	1.260	1.210	1.084	1.103	1.076	1.182	1.461	1.441	1.435	1.115	0.932	0.946	0.927	0.887	0.971	0.954	1.250	1.276	0.947	0.838	0.850	0.827	0.767	1.037	1.554	2.571	10.06	53.94
610.0	66.92	72.67	61.63	46.37	39.95	41.40	44.54	50.74	55.77	63.97	92.41	107.5	65.12	49.01	39.98	89.92	655.0	486.6	16.69	6.340	5.393	5.086	4.773	4.690	4.430	4.216	4.291	4.003	4.218	4.268	4.189	3.792	3.352	3.334	2.954	2.803	2.474	2.422	2.016	1.969	1.948	1.801	1.635	1.636	1.617	1.394	1.405	1.377	1.271	1.143	1.072	1.020	0.969	0.870	0.963	1.069	1.288	1.463	1.183	0.940	0.838	0.905	0.872	0.899	0.911	1.008	1.194	1.029	1.072	0.931	0.848	0.809	0.860	0.933	1.074	2.719	12.94
615.0	63.50	66.39	64.23	46.53	45.31	43.75	46.59	51.77	59.17	68.16	79.71	113.9	84.80	54.45	42.61	44.43	204.0	775.1	75.03	5.959	4.743	4.302	3.988	3.671	3.468	3.553	3.395	3.392	3.666	3.376	3.247	3.039	2.967	2.831	2.529	2.365	2.343	2.021	1.843	1.585	1.458	1.536	1.476	1.325	1.373	1.203	1.248	1.206	1.018	0.976	0.896	0.800	0.796	0.828	0.844	0.780	1.037	1.188	1.192	0.953	0.791	0.933	0.837	0.987	0.933	0.897	1.013	1.058	1.148	0.960	0.877	0.808	0.843	0.718	0.769	1.034	3.398
620.0	56.42	74.87	65.42	48.84	45.33	43.53	50.26	53.70	57.84	66.61	76.06	104.1	100.1	58.90	44.32	33.86	70.46	563.5	397.9	7.999	4.147	3.803	3.478	3.388	3.222	3.101	2.853	2.906	2.887	2.747	2.762	2.590	2.621	2.339	2.329	2.039	2.132	1.779	1.751	1.374	1.338	1.308	1.232	1.277	1.130	1.137	1.098	1.005	0.994	0.912	0.811	0.811	0.806	0.753	0.731	0.667	0.895	1.144	1.028	1.015	0.794	0.818	0.857	1.004	0.777	0.859	0.913	1.023	1.072	0.973	0.881	0.770	0.792	0.697	0.590	0.698	1.249
625.0	58.86	78.90	68.62	49.43	45.90	43.39	51.56	52.79	57.17	65.14	75.90	87.39	106.1	63.63	44.30	32.88	36.88	238.9	676.6	37.47	3.974	3.281	3.333	2.997	2.935	2.608	2.711	2.682	2.509	2.350	2.375	2.280	2.067	2.142	2.056	1.672	1.762	1.613	1.513	1.238	1.183	1.182	1.078	1.030	1.088	1.065	0.906	0.950	0.895	0.754	0.646	0.736	0.679	0.739	0.679	0.633	0.807	0.943	0.935	0.912	0.816	0.731	0.881	0.806	0.733	0.745	0.775	0.890	1.037	1.011	0.856	0.814	0.762	0.773	0.563	0.573	0.747
630.0	60.28	74.36	68.14	49.50	46.22	44.97	50.04	50.79	57.34	61.03	71.96	78.98	98.42	75.08	47.25	32.65	28.86	71.70	508.0	311.4	7.478	2.940	2.778	2.580	2.324	2.248	2.192	2.334	2.196	2.038	2.319	1.893	1.660	1.679	1.638	1.531	1.332	1.337	1.302	1.152	1.039	0.961	0.912	0.848	0.980	0.825	0.729	0.830	0.834	0.680	0.669	0.658	0.631	0.671	0.632	0.646	0.710	0.706	0.713	0.872	0.913	0.804	0.762	0.692	0.693	0.764	0.757	0.827	0.959	0.921	1.034	0.835	0.669	0.695	0.585	0.587	0.634
635.0	64.99	76.83	73.05	55.44	47.65	43.50	49.02	48.77	54.07	60.33	70.12	78.99	85.96	88.40	52.96	33.48	26.28	28.90	158.2	574.5	53.45	3.044	2.359	2.290	1.906	1.808	1.926	1.819	1.847	1.778	1.864	1.640	1.391	1.536	1.435	1.396	1.130	1.097	1.178	0.970	0.870	1.018	0.927	0.819	0.866	0.818	0.773	0.769	0.662	0.623	0.599	0.640	0.565	0.708	0.670	0.632	0.594	0.622	0.586	0.697	0.777	0.744	0.778	0.686	0.645	0.740	0.683	0.708	0.870	0.823	0.814	0.788	0.674	0.681	0.555	0.626	0.544
640.0	65.82	68.52	74.81	57.56	48.46	43.88	46.50	47.54	53.74	59.31	69.04	78.93	76.23	88.62	59.04	35.23	27.54	19.81	44.18	456.8	252.4	4.017	2.214	1.957	1.866	1.945	1.815	1.677	1.570	1.453	1.574	1.304	1.294	1.392	1.288	1.155	1.065	0.904	0.881	0.866	0.725	0.802	0.815	0.765	0.796	0.765	0.695	0.739	0.621	0.588	0.504	0.514	0.594	0.578	0.584	0.609	0.591	0.626	0.576	0.681	0.750	0.674	0.692	0.670	0.623	0.621	0.583	0.777	0.849	0.716	0.796	0.769	0.757	0.683	0.573	0.550	0.551
645.0	64.05	89.74	70.05	62.36	45.68	38.79	45.76	50.76	51.70	59.68	66.15	73.72	74.63	81.14	67.42	37.17	28.63	17.79	15.96	210.3	477.5	20.28	2.362	1.936	1.739	1.681	1.650	1.407	1.499	1.493	1.451	1.382	1.173	1.122	1.144	1.060	0.875	0.845	0.843	0.770	0.720	0.686	0.783	0.701	0.661	0.672	0.661	0.654	0.589	0.567	0.536	0.551	0.549	0.507	0.568	0.480	0.564	0.606	0.598	0.686	0.577	0.728	0.779	0.644	0.645	0.544	0.640	0.658	0.721	0.674	0.725	0.693	0.763	0.733	0.512	0.505	0.539
650.0	76.80	90.65	84.34	67.26	45.63	43.15	45.53	51.13	50.03	58.00	66.92	73.35	75.88	75.64	71.75	40.46	29.07	17.25	11.00	63.91	500.4	66.08	2.493	1.818	1.483	1.656	1.495	1.495	1.472	1.350	1.343	1.283	1.169	1.024	1.102	0.943	0.893	0.816	0.780	0.592	0.622	0.650	0.806	0.638	0.655	0.645	0.664	0.668	0.674	0.589	0.572	0.613	0.531	0.500	0.601	0.475	0.532	0.548	0.561	0.630	0.572	0.584	0.749	0.697	0.638	0.581	0.643	0.669	0.720	0.774	0.690	0.643	0.753	0.791	0.625	0.521	0.583
