Sample:	'1
File name:	Default_20230210_151940.FD3
Run date:	'15:13:19, 02/10/2023
Operator:	dsjg
Comment:	'

Instrument
Model:	F-2700 FL Spectrophotometer
Serial number:	2198-001
ROM Version:	4J14000 07

Instrument parameters
Measurement type:	3-D scan
Data mode:	Fluorescence
EX  Start WL:	220.0 nm
EX  End WL:	600.0 nm
EX Sampling interval:	5.0 nm
EM  Start WL:	230.0 nm
EM  End WL:	650.0 nm
EM Sampling interval:	5.0 nm
Scan speed:	12000 nm/min
EX Slit:	5.0 nm
EM Slit:	5.0 nm
PMT Voltage:	700 V
Response:	Auto 
Corrected spectra:	Off
Contour interval:	50.000

Peak integration
Integration method:	Rectangular
Sensitivity:	1
Threshold:	1.000

Peaks
No.	ApexEX/EM(nm)	Height(Data)
1	225.0/595.0	22.10
2	230.0/350.0	548.9
3	240.0/380.0	669.4
4	240.0/405.0	678.0
5	250.0/445.0	934.8
6	255.0/280.0	152.2
7	270.0/300.0	344.6
8	270.0/595.0	38.25
9	275.0/305.0	411.9
10	275.0/380.0	629.5
11	275.0/610.0	33.20
12	280.0/355.0	562.8
13	280.0/400.0	580.0
14	280.0/620.0	28.72
15	285.0/320.0	419.7
16	285.0/635.0	21.26
17	335.0/385.0	353.9
18	505.0/445.0	4.433
19	510.0/450.0	4.554

Data points
	220.0	225.0	230.0	235.0	240.0	245.0	250.0	255.0	260.0	265.0	270.0	275.0	280.0	285.0	290.0	295.0	300.0	305.0	310.0	315.0	320.0	325.0	330.0	335.0	340.0	345.0	350.0	355.0	360.0	365.0	370.0	375.0	380.0	385.0	390.0	395.0	400.0	405.0	410.0	415.0	420.0	425.0	430.0	435.0	440.0	445.0	450.0	455.0	460.0	465.0	470.0	475.0	480.0	485.0	490.0	495.0	500.0	505.0	510.0	515.0	520.0	525.0	530.0	535.0	540.0	545.0	550.0	555.0	560.0	565.0	570.0	575.0	580.0	585.0	590.0	595.0	600.0
230.0	31.17	443.9	825.2	240.4	9.308	5.180	4.576	3.790	3.149	2.830	2.598	2.470	1.975	1.814	1.613	1.415	1.256	1.201	1.052	0.921	0.867	0.846	0.850	0.783	0.764	0.795	0.677	0.681	0.692	0.657	0.618	0.585	0.574	0.537	0.494	0.563	0.566	0.566	0.479	0.472	0.430	0.459	0.440	0.426	0.415	0.402	0.427	1.234	3.101	3.348	1.641	0.496	0.307	0.316	0.314	0.289	0.306	0.314	0.309	0.309	0.274	0.281	0.282	0.300	0.289	0.305	0.306	0.273	0.277	0.277	0.270	0.274	0.293	0.296	0.278	0.305	0.317
235.0	21.05	145.3	778.9	 1463	285.1	11.39	4.668	4.205	3.429	3.316	2.773	2.582	2.078	1.754	1.731	1.304	1.234	1.220	1.019	0.955	0.925	0.777	0.872	0.718	0.747	0.718	0.740	0.694	0.691	0.604	0.674	0.587	0.487	0.510	0.556	0.522	0.531	0.521	0.518	0.496	0.436	0.541	0.493	0.498	0.410	0.403	0.372	0.536	1.257	2.533	4.391	5.689	3.050	0.793	0.359	0.298	0.299	0.295	0.333	0.312	0.296	0.316	0.320	0.307	0.310	0.259	0.303	0.297	0.319	0.260	0.288	0.281	0.281	0.281	0.281	0.278	0.295
240.0	29.90	48.85	297.8	 1554	 1326	208.2	7.799	4.673	3.871	3.729	2.738	2.378	2.181	1.958	1.691	1.446	1.153	1.161	1.015	0.996	0.863	0.842	0.773	0.791	0.811	0.790	0.693	0.739	0.735	0.604	0.707	0.599	0.498	0.637	0.536	0.478	0.489	0.580	0.511	0.450	0.478	0.555	0.449	0.514	0.447	0.494	0.400	0.413	0.560	0.968	2.333	6.307	8.297	6.441	2.280	0.556	0.300	0.300	0.323	0.291	0.262	0.293	0.281	0.307	0.297	0.310	0.299	0.295	0.270	0.262	0.232	0.298	0.258	0.273	0.342	0.310	0.321
245.0	34.58	47.32	87.40	666.8	 1732	 1276	132.8	6.390	4.008	3.803	3.194	2.692	2.320	1.937	1.736	1.507	1.298	1.208	1.248	1.111	0.869	0.894	0.798	0.795	0.742	0.747	0.760	0.736	0.759	0.713	0.725	0.582	0.472	0.564	0.485	0.475	0.513	0.516	0.468	0.478	0.486	0.546	0.459	0.463	0.418	0.483	0.536	0.509	0.444	0.457	0.751	2.220	5.286	9.675	9.985	5.773	1.621	0.364	0.322	0.325	0.288	0.267	0.292	0.309	0.335	0.331	0.366	0.296	0.288	0.257	0.267	0.275	0.279	0.301	0.301	0.276	0.326
250.0	22.39	53.72	77.97	180.1	678.0	 1629	 1619	473.0	19.98	4.412	3.567	3.057	2.554	2.194	1.837	1.699	1.335	1.204	1.138	1.018	1.009	0.971	0.897	0.854	0.754	0.777	0.775	0.685	0.737	0.687	0.678	0.631	0.564	0.527	0.505	0.459	0.492	0.432	0.450	0.518	0.513	0.559	0.457	0.431	0.402	0.399	0.446	0.518	0.569	0.542	0.508	0.762	1.529	3.344	5.915	8.727	10.78	9.000	5.086	1.579	0.399	0.332	0.301	0.286	0.289	0.302	0.300	0.309	0.280	0.282	0.281	0.303	0.255	0.308	0.304	0.298	0.328
255.0	18.87	28.33	76.63	123.5	175.2	477.5	 1661	 2170	228.3	18.50	4.419	4.096	3.117	2.374	2.014	1.634	1.523	1.314	1.231	1.140	1.092	1.002	0.942	0.955	0.774	0.803	0.735	0.739	0.770	0.662	0.682	0.668	0.612	0.529	0.571	0.510	0.459	0.436	0.407	0.475	0.508	0.499	0.505	0.433	0.514	0.463	0.447	0.393	0.435	0.488	0.646	0.834	0.803	1.034	1.558	2.334	4.354	9.105	15.25	14.79	7.758	1.661	0.356	0.326	0.312	0.323	0.299	0.351	0.310	0.283	0.270	0.267	0.309	0.320	0.292	0.306	0.286
260.0	17.38	18.42	39.00	115.4	110.2	123.7	599.7	 2279	 1834	184.9	11.35	4.766	3.484	2.976	2.026	1.919	1.530	1.241	1.287	1.126	1.137	0.931	0.954	0.946	0.860	0.750	0.748	0.741	0.701	0.653	0.720	0.621	0.604	0.600	0.577	0.457	0.438	0.428	0.438	0.464	0.438	0.486	0.500	0.473	0.477	0.506	0.390	0.408	0.345	0.387	0.485	0.838	0.997	0.770	0.675	0.780	1.270	2.698	7.359	14.45	19.84	14.48	5.296	0.885	0.358	0.319	0.303	0.353	0.292	0.344	0.295	0.308	0.279	0.363	0.342	0.312	0.306
265.0	17.19	15.73	16.89	64.42	131.5	79.75	152.3	927.8	 2785	 1584	146.5	6.884	4.271	3.134	2.403	2.262	1.828	1.440	1.454	1.193	1.216	1.015	0.957	0.807	0.774	0.929	0.738	0.813	0.724	0.735	0.704	0.601	0.628	0.559	0.480	0.425	0.472	0.415	0.510	0.491	0.369	0.532	0.487	0.407	0.544	0.488	0.392	0.383	0.374	0.326	0.360	0.535	0.919	1.066	0.758	0.529	0.575	0.871	2.024	4.759	11.81	19.69	20.47	12.24	3.197	0.454	0.337	0.334	0.292	0.331	0.352	0.287	0.302	0.329	0.313	0.309	0.323
270.0	19.49	17.63	13.61	25.75	76.33	117.6	94.23	232.6	 1007	 2359	 2382	628.2	37.91	4.438	3.201	2.267	2.112	1.762	1.531	1.260	1.265	1.073	1.032	0.896	0.791	0.921	0.880	0.916	0.800	0.775	0.706	0.684	0.619	0.603	0.479	0.479	0.438	0.462	0.462	0.447	0.398	0.463	0.439	0.427	0.493	0.513	0.475	0.470	0.375	0.349	0.335	0.361	0.545	0.657	0.778	0.974	0.920	0.722	0.758	1.334	3.104	6.126	10.65	16.19	19.05	16.00	9.619	3.199	0.528	0.322	0.340	0.314	0.361	0.309	0.355	0.323	0.327
275.0	24.64	25.40	22.85	20.71	28.08	67.02	138.5	122.3	244.8	643.9	 2083	 3632	938.6	42.44	4.457	3.180	2.265	2.039	1.927	1.368	1.298	1.070	1.052	1.016	0.965	0.949	0.819	0.833	0.744	0.754	0.643	0.658	0.619	0.642	0.477	0.473	0.495	0.423	0.514	0.467	0.455	0.465	0.423	0.405	0.536	0.523	0.496	0.453	0.451	0.415	0.389	0.359	0.412	0.376	0.476	0.589	0.929	1.079	0.979	0.777	0.990	1.670	2.757	4.059	6.568	12.21	21.77	23.70	13.73	2.974	0.426	0.318	0.336	0.317	0.316	0.348	0.319
280.0	30.13	37.72	34.89	25.54	19.18	31.73	106.4	152.2	114.7	174.1	683.6	 2779	 3634	723.5	18.75	3.874	2.647	2.293	1.880	1.656	1.388	1.253	1.168	1.094	1.032	0.939	0.904	0.925	0.777	0.761	0.774	0.710	0.552	0.592	0.511	0.498	0.521	0.405	0.454	0.446	0.441	0.439	0.390	0.347	0.488	0.537	0.509	0.493	0.434	0.405	0.335	0.399	0.364	0.389	0.354	0.422	0.524	0.836	1.159	1.092	0.820	0.815	1.061	1.286	1.875	3.500	8.625	17.84	26.33	22.11	8.670	1.381	0.347	0.337	0.310	0.319	0.324
285.0	37.20	56.14	52.05	35.93	23.28	24.81	54.56	145.2	153.8	98.02	205.3	988.0	 3132	 3379	99.96	7.878	3.618	2.506	2.008	1.852	1.593	1.282	1.241	1.199	1.110	0.971	0.942	1.006	0.822	0.777	0.800	0.701	0.563	0.639	0.540	0.539	0.514	0.462	0.456	0.463	0.391	0.489	0.378	0.385	0.435	0.581	0.569	0.528	0.473	0.526	0.418	0.499	0.441	0.360	0.354	0.412	0.456	0.480	0.726	1.156	1.358	1.015	0.835	0.761	0.937	1.222	2.396	5.323	12.32	22.33	26.62	18.06	4.857	0.519	0.380	0.399	0.354
290.0	50.80	80.65	80.50	53.17	33.82	31.39	42.31	89.90	170.7	187.1	157.9	312.8	 1037	 2441	 2917	 1265	28.53	3.522	2.641	2.157	1.773	1.432	1.319	1.296	1.232	1.122	1.040	1.021	0.908	0.846	0.784	0.772	0.642	0.644	0.587	0.578	0.471	0.518	0.467	0.482	0.406	0.487	0.397	0.414	0.438	0.509	0.580	0.602	0.649	0.548	0.507	0.574	0.469	0.484	0.422	0.433	0.504	0.499	0.558	0.720	1.030	1.220	1.428	1.253	1.074	0.975	1.280	1.876	3.379	6.619	11.54	16.99	20.32	18.72	11.38	3.532	0.483
295.0	59.70	103.3	105.4	77.63	49.62	43.80	55.40	77.73	131.8	235.7	280.9	217.1	352.3	670.6	 1626	 3460	 1911	32.17	3.762	2.665	2.209	1.792	1.570	1.499	1.327	1.216	1.192	1.075	0.940	0.933	0.872	0.734	0.663	0.663	0.621	0.567	0.458	0.627	0.512	0.458	0.418	0.497	0.396	0.439	0.434	0.529	0.571	0.674	0.679	0.658	0.587	0.567	0.549	0.572	0.490	0.471	0.560	0.602	0.572	0.680	0.730	1.062	1.187	1.565	1.889	1.663	1.274	1.321	1.535	2.248	3.237	4.412	6.204	11.65	22.53	26.64	15.10
300.0	65.68	120.9	123.2	95.76	65.73	62.64	73.38	93.98	131.8	219.2	344.6	314.1	241.0	253.1	524.6	 2044	 3876	499.8	17.90	3.340	2.804	2.129	1.812	1.590	1.358	1.282	1.237	1.115	0.944	0.935	0.972	0.910	0.776	0.725	0.695	0.628	0.577	0.585	0.528	0.483	0.480	0.457	0.482	0.530	0.468	0.506	0.597	0.660	0.787	0.711	0.646	0.683	0.617	0.610	0.549	0.521	0.571	0.691	0.689	0.802	0.905	0.940	1.041	1.372	1.931	2.237	2.055	1.572	1.397	1.391	1.530	1.845	2.065	3.433	8.434	18.27	28.16
305.0	81.26	133.6	142.2	111.1	77.98	79.21	92.91	115.6	148.7	222.0	333.8	411.9	298.9	194.4	206.9	677.1	 2541	 3600	388.3	6.990	3.322	2.448	1.960	1.840	1.454	1.422	1.214	1.168	0.973	0.966	0.913	0.943	0.776	0.692	0.675	0.694	0.590	0.611	0.532	0.526	0.529	0.419	0.456	0.509	0.470	0.518	0.575	0.666	0.787	0.715	0.726	0.747	0.680	0.685	0.638	0.620	0.692	0.743	0.800	0.812	0.952	1.034	1.026	1.459	1.605	2.025	2.316	2.450	1.920	1.564	1.273	1.364	1.156	1.420	2.482	5.409	12.14
310.0	82.51	144.5	159.8	124.9	95.32	95.06	114.1	140.0	174.6	237.4	312.2	400.0	410.3	267.8	166.8	224.4	764.3	 2152	 3080	 1348	21.87	3.355	2.439	2.108	1.714	1.553	1.355	1.264	1.091	1.045	0.942	0.943	0.795	0.729	0.655	0.761	0.618	0.583	0.587	0.504	0.499	0.476	0.449	0.501	0.491	0.534	0.589	0.735	0.798	0.751	0.698	0.867	0.805	0.672	0.759	0.742	0.797	0.855	0.931	0.954	1.146	1.211	1.235	1.434	1.578	1.782	1.917	2.282	2.458	2.232	1.882	1.498	1.176	1.130	1.223	1.772	3.335
315.0	95.61	170.1	190.0	145.2	109.1	113.0	134.3	165.3	207.1	266.5	333.7	378.2	414.6	393.4	234.1	150.9	237.0	546.0	 1357	 3519	 1893	26.78	3.803	2.929	2.116	1.847	1.606	1.421	1.176	1.163	1.028	0.936	0.924	0.826	0.648	0.655	0.600	0.554	0.547	0.468	0.492	0.449	0.500	0.519	0.494	0.614	0.690	0.749	0.803	0.788	0.784	0.867	0.777	0.808	0.810	0.844	0.915	0.893	0.974	1.125	1.150	1.363	1.472	1.564	1.755	1.866	1.950	2.019	2.132	2.275	2.589	2.350	1.629	1.382	1.068	1.160	1.370
320.0	119.8	214.5	233.2	169.2	122.4	130.9	150.4	183.1	234.8	298.9	364.6	400.7	416.3	419.7	345.2	178.9	142.0	180.3	389.9	 1772	 3916	389.8	16.37	3.694	2.514	1.983	1.731	1.517	1.365	1.238	1.077	1.049	0.819	0.796	0.710	0.659	0.669	0.663	0.621	0.524	0.505	0.491	0.538	0.532	0.558	0.633	0.864	0.903	0.964	0.925	0.829	0.959	0.863	0.812	0.841	0.870	0.992	1.079	1.178	1.197	1.266	1.469	1.608	1.699	1.767	2.036	2.089	2.195	2.103	2.294	2.310	2.536	2.520	1.896	1.257	1.136	1.142
325.0	150.0	275.4	305.1	210.7	152.3	141.8	171.0	205.3	255.9	326.1	393.1	439.0	436.8	408.3	403.3	265.3	147.1	115.1	135.7	518.9	 2355	 3207	317.2	7.169	2.991	2.548	1.913	1.685	1.446	1.318	1.183	1.153	0.843	0.846	0.699	0.715	0.713	0.624	0.602	0.610	0.559	0.555	0.524	0.529	0.617	0.691	0.890	1.214	1.258	1.273	0.963	1.027	0.960	0.823	0.910	0.947	1.077	1.140	1.218	1.222	1.372	1.543	1.642	1.826	1.991	2.203	2.303	2.457	2.293	2.142	2.235	2.210	2.508	2.604	1.978	1.370	1.293
330.0	166.8	325.2	389.0	289.7	196.8	171.3	191.4	223.1	280.6	352.5	425.8	469.9	474.2	421.7	382.0	342.5	232.0	131.9	98.93	164.2	651.8	 1972	 2852	 1223	19.86	3.436	2.425	1.994	1.690	1.528	1.282	1.215	0.940	0.934	0.890	0.779	0.732	0.628	0.616	0.562	0.587	0.576	0.536	0.557	0.620	0.749	0.964	1.375	1.538	1.494	1.271	1.259	1.203	1.030	1.063	1.009	1.085	1.194	1.296	1.320	1.594	1.623	1.731	1.972	2.139	2.342	2.473	2.499	2.471	2.330	2.419	2.369	2.386	2.321	2.221	2.099	1.888
335.0	180.6	363.6	456.5	372.2	256.8	208.8	222.7	251.9	315.5	382.1	457.5	501.8	512.8	460.6	394.3	332.8	319.6	210.7	121.7	107.5	195.1	489.2	 1222	 3653	 1820	25.53	3.483	2.672	2.091	1.702	1.425	1.215	1.018	1.024	0.999	0.720	0.708	0.678	0.663	0.619	0.628	0.564	0.577	0.533	0.641	0.868	1.209	1.417	1.701	1.685	1.524	1.521	1.471	1.393	1.221	1.111	1.257	1.354	1.395	1.579	1.690	1.763	1.848	2.124	2.193	2.503	2.677	2.567	2.593	2.605	2.565	2.563	2.518	2.289	2.167	2.115	2.246
340.0	187.9	373.2	499.1	423.1	304.3	247.0	250.6	281.0	331.6	401.7	474.4	523.5	530.8	492.7	418.9	337.8	310.3	290.4	166.3	113.5	110.6	157.9	340.0	 1814	 4050	339.8	15.79	3.372	2.364	1.942	1.586	1.357	1.172	1.113	1.080	0.772	0.778	0.729	0.624	0.615	0.606	0.556	0.622	0.552	0.683	0.871	1.227	1.424	1.895	1.815	1.767	1.810	1.635	1.446	1.325	1.250	1.319	1.448	1.494	1.630	1.652	1.843	2.023	2.172	2.301	2.627	2.756	2.674	2.715	2.814	2.826	2.686	2.578	2.364	2.153	2.023	1.943
345.0	186.8	394.9	531.5	475.7	353.9	291.5	281.4	306.8	350.2	411.1	487.5	532.3	545.1	510.0	442.4	352.8	297.7	306.8	237.8	140.3	109.7	101.3	126.0	512.5	 2534	 2769	280.5	7.192	2.872	2.491	1.866	1.344	1.185	1.061	1.088	0.825	0.822	0.758	0.652	0.689	0.644	0.677	0.595	0.571	0.701	0.936	1.124	1.547	1.949	1.972	1.882	2.021	1.841	1.669	1.495	1.390	1.500	1.597	1.632	1.837	1.832	1.989	2.165	2.170	2.330	2.569	2.737	2.650	2.790	2.996	2.854	2.861	2.735	2.429	2.313	2.009	1.960
350.0	176.8	385.1	548.9	531.6	441.3	383.2	367.5	386.7	401.2	454.9	514.7	547.8	557.2	527.9	469.6	388.9	326.1	289.3	280.1	223.9	144.9	114.3	100.5	169.5	684.1	 1931	 2752	 1100	18.56	3.421	2.403	1.838	1.369	1.223	1.072	0.815	0.799	0.790	0.740	0.685	0.615	0.572	0.575	0.567	0.701	0.936	1.085	1.488	1.952	1.986	1.996	2.302	2.223	2.028	1.942	1.837	1.837	1.931	2.075	2.183	2.136	2.285	2.338	2.431	2.583	2.569	2.678	2.783	2.815	2.971	2.848	2.883	2.819	2.650	2.495	2.256	2.178
355.0	173.9	377.2	543.9	552.6	505.1	443.8	422.2	443.5	439.5	479.0	522.4	558.8	562.8	534.9	489.7	418.7	358.1	304.3	272.4	280.6	228.5	152.6	122.2	115.7	206.3	475.4	 1220	 3543	 1667	24.88	3.233	2.453	1.693	1.483	1.186	0.983	0.856	0.834	0.790	0.742	0.647	0.553	0.607	0.548	0.671	0.895	1.069	1.427	1.908	2.003	2.062	2.480	2.409	2.339	2.155	2.067	2.145	2.197	2.411	2.379	2.448	2.455	2.460	2.672	2.588	2.670	2.803	2.888	2.766	2.960	2.858	3.049	2.948	2.886	2.619	2.579	2.335
360.0	160.7	366.0	529.5	562.4	525.1	470.5	440.0	448.3	448.7	484.1	526.2	551.3	555.4	536.4	492.5	428.1	375.8	322.0	283.8	276.2	288.0	203.7	145.9	120.6	114.9	153.0	327.1	 1815	 3851	322.4	14.82	3.117	2.192	1.574	1.168	1.096	0.895	0.872	0.782	0.699	0.747	0.589	0.581	0.605	0.659	0.877	1.063	1.493	1.828	1.992	1.991	2.490	2.463	2.446	2.380	2.083	2.307	2.198	2.412	2.325	2.517	2.543	2.508	2.690	2.730	2.681	2.796	2.939	2.956	2.927	2.756	2.865	2.998	2.873	2.721	2.759	2.391
365.0	154.8	347.3	519.1	567.5	546.3	488.9	449.9	463.8	461.1	495.0	526.1	547.3	553.3	535.9	493.3	439.5	392.8	342.1	306.3	276.6	293.6	269.3	182.7	141.2	113.3	94.84	113.2	498.7	 2519	 2627	265.8	6.775	2.725	1.872	1.495	1.138	0.898	0.854	0.794	0.766	0.742	0.600	0.626	0.659	0.659	0.908	1.065	1.430	1.682	1.865	2.046	2.503	2.573	2.605	2.424	2.208	2.396	2.232	2.487	2.362	2.511	2.520	2.546	2.586	2.706	2.646	2.799	2.769	2.979	2.938	2.768	3.012	2.984	2.844	2.647	2.758	2.558
370.0	159.0	329.9	516.7	589.4	591.7	539.5	508.4	506.5	496.7	518.6	544.4	563.3	566.2	537.8	506.6	455.0	419.1	375.6	338.2	308.3	296.6	302.0	266.4	193.7	146.6	113.9	94.17	161.8	680.1	 1953	 2679	994.4	16.86	3.072	1.917	1.439	1.066	1.053	0.879	0.817	0.726	0.648	0.722	0.690	0.674	0.849	1.041	1.402	1.703	1.880	2.044	2.556	2.757	2.643	2.552	2.533	2.634	2.585	2.778	2.603	2.653	2.566	2.742	2.788	2.846	2.764	2.775	2.817	2.921	2.958	2.919	2.960	2.891	2.862	2.837	2.806	2.755
375.0	151.5	334.3	515.8	611.7	637.5	574.8	539.3	524.2	515.7	546.5	573.4	601.5	581.9	538.8	509.3	468.6	441.1	405.2	372.7	351.1	331.9	320.9	327.9	293.6	215.7	173.9	142.2	129.7	217.0	489.3	 1259	 3352	 1451	21.47	2.713	1.878	1.334	1.222	1.039	0.863	0.763	0.743	0.718	0.705	0.725	0.855	1.021	1.373	1.830	1.889	1.922	2.705	2.863	3.016	2.785	2.623	2.727	2.622	2.726	2.685	2.785	2.646	2.808	2.966	3.029	2.909	2.845	3.150	3.113	3.032	2.864	2.953	3.010	2.962	2.977	2.795	2.837
380.0	147.0	326.0	514.1	623.1	669.4	601.0	537.2	530.3	530.2	563.9	588.4	629.5	611.9	545.8	508.4	473.1	450.3	424.6	397.7	378.0	361.9	343.5	341.4	353.5	285.6	222.3	193.0	157.0	147.3	185.6	358.4	 1778	 3448	272.6	12.39	2.400	1.597	1.249	1.240	0.941	0.843	0.776	0.697	0.798	0.681	0.853	0.978	1.423	1.798	1.863	1.979	2.688	2.863	3.142	2.915	2.585	2.670	2.800	2.684	2.655	2.827	2.771	2.815	2.995	2.933	2.982	3.048	3.174	3.270	3.190	2.986	3.073	2.906	2.753	2.789	3.025	2.858
385.0	146.0	319.5	507.1	623.1	663.5	614.2	549.2	530.2	526.0	550.1	584.6	621.1	613.9	547.5	503.3	476.6	457.5	432.9	411.4	393.2	375.8	356.3	344.7	353.9	334.0	259.3	216.6	177.0	148.0	137.0	149.9	501.5	 2329	 2216	213.7	4.780	1.914	1.678	1.246	0.966	0.778	0.870	0.713	0.722	0.743	0.961	1.009	1.396	1.685	1.779	2.082	2.705	2.929	3.059	2.900	2.788	2.689	2.767	2.816	2.689	2.690	2.760	2.703	2.875	2.870	2.912	3.146	3.222	3.387	3.234	3.101	2.991	2.977	2.832	2.835	2.973	3.009
390.0	145.6	299.2	482.2	612.7	652.8	629.7	572.0	550.8	529.5	541.1	563.7	588.2	589.3	537.8	503.5	478.9	464.1	444.8	425.1	409.2	391.0	373.1	356.9	342.8	338.1	307.9	242.6	192.0	156.5	129.9	105.0	159.3	628.0	 1654	 2131	770.0	13.34	2.330	1.469	1.191	0.911	0.875	0.813	0.754	0.766	0.938	0.951	1.434	1.616	1.779	1.986	2.641	2.837	2.915	2.850	2.940	2.877	2.895	2.813	2.773	2.766	2.728	2.729	2.801	2.842	2.807	2.977	3.102	3.289	3.134	3.034	2.827	2.950	2.939	2.932	2.916	2.949
395.0	141.6	293.0	480.9	608.1	662.4	636.3	605.2	586.0	543.1	540.3	561.2	580.5	575.3	533.2	503.1	479.8	470.3	453.7	437.9	425.2	409.7	396.7	381.3	361.9	341.9	336.1	306.6	234.7	183.6	147.5	114.2	97.70	181.1	399.4	 1004	 2627	 1136	17.02	2.390	1.524	1.174	0.971	0.928	0.822	0.842	0.927	0.997	1.348	1.540	1.772	2.037	2.618	2.937	3.065	2.952	3.007	2.983	3.111	3.081	2.880	2.855	2.774	2.892	2.751	2.898	2.765	3.094	3.025	3.056	2.939	2.900	2.866	3.003	3.023	3.156	3.030	3.078
400.0	143.5	292.7	475.0	604.7	667.3	650.0	634.7	604.9	560.6	546.3	565.5	578.5	580.0	535.2	501.9	481.6	469.4	457.3	441.7	432.4	418.8	406.4	396.6	376.8	354.8	341.2	339.6	283.4	215.4	174.4	134.2	99.20	90.91	120.6	261.9	 1409	 2676	232.9	9.994	2.132	1.484	1.094	1.023	0.811	0.880	1.037	1.054	1.354	1.569	1.837	2.032	2.618	2.877	3.078	2.965	3.042	3.055	3.136	3.351	2.888	3.080	2.895	2.838	2.851	2.762	2.806	2.863	2.849	3.040	3.122	2.875	2.870	2.972	2.895	3.048	2.818	3.059
405.0	146.5	293.1	470.0	596.0	678.0	667.0	661.4	631.7	566.1	546.4	552.5	572.4	575.0	528.3	498.6	477.8	469.5	457.8	444.6	435.0	423.2	413.0	403.0	386.4	365.1	343.4	336.2	316.5	248.4	198.8	153.9	112.0	81.98	66.77	85.36	379.6	 1762	 1888	185.1	4.316	1.744	1.346	1.162	1.005	0.927	1.069	1.107	1.374	1.672	1.805	2.054	2.592	2.822	3.124	3.125	3.064	3.144	3.193	3.337	2.988	3.008	2.910	2.955	2.674	2.713	2.834	2.846	2.827	2.957	3.025	2.938	2.880	2.943	2.825	3.061	2.982	3.098
410.0	147.3	288.0	461.1	588.9	670.1	692.1	708.0	673.3	579.2	541.0	544.0	550.7	548.4	519.3	493.7	474.0	464.5	453.1	442.2	428.7	416.5	409.8	400.2	387.5	368.7	347.3	326.8	315.0	288.1	228.4	173.0	128.9	92.37	66.94	55.23	109.9	465.3	 1329	 1744	641.9	11.49	1.937	1.547	1.185	1.017	1.078	1.116	1.400	1.584	1.763	1.901	2.492	2.829	3.023	3.011	3.171	3.368	3.373	3.522	3.246	3.076	2.942	2.856	2.800	2.838	2.750	2.817	2.719	2.887	2.954	2.909	2.800	2.898	2.965	2.982	3.085	3.022
415.0	137.1	284.1	441.8	591.5	677.1	711.9	769.0	722.6	599.9	539.4	537.5	536.0	532.5	501.5	482.0	469.9	454.5	447.2	438.5	421.7	410.0	400.9	398.3	388.1	373.9	352.6	329.3	309.5	294.9	267.4	201.6	147.8	108.1	79.80	59.88	58.34	129.0	318.1	810.5	 2024	814.0	14.97	2.491	1.600	1.257	1.166	1.147	1.439	1.537	1.780	1.904	2.584	2.791	3.242	3.221	3.195	3.510	3.700	3.672	3.570	3.132	3.073	2.825	2.858	2.772	2.668	2.736	2.640	2.635	2.827	2.794	2.879	3.000	2.880	2.784	2.980	2.973
420.0	134.7	277.4	443.3	582.6	671.4	733.5	797.7	762.2	619.4	552.7	525.9	524.5	516.3	495.3	477.3	461.1	442.5	440.4	429.9	414.3	404.3	395.7	392.0	384.2	372.3	355.2	334.9	313.1	291.0	281.4	231.9	165.5	121.1	90.81	68.59	55.10	59.03	93.34	209.9	 1074	 1910	210.5	9.647	2.407	1.563	1.392	1.252	1.320	1.544	1.753	1.939	2.524	2.796	3.093	3.277	3.246	3.678	3.928	3.779	3.818	3.271	3.066	2.939	2.818	2.668	2.767	2.653	2.736	2.828	2.847	2.747	2.873	2.902	3.016	2.826	2.775	2.843
425.0	139.0	275.7	446.7	581.8	680.2	755.9	832.4	787.0	635.4	553.5	526.6	524.3	509.4	488.2	469.7	454.3	436.8	434.3	423.3	409.2	393.8	386.3	385.5	381.8	372.9	357.5	338.6	318.1	293.2	275.2	254.3	188.2	135.5	102.0	78.26	61.22	51.45	48.90	69.52	292.7	 1364	 1652	164.1	4.942	2.253	1.621	1.424	1.418	1.595	1.729	1.905	2.570	2.744	3.157	3.178	3.384	3.755	4.022	3.917	3.788	3.345	3.082	2.709	2.907	2.666	2.709	2.512	2.594	2.727	2.910	2.598	2.908	2.824	2.885	2.870	2.897	2.836
430.0	138.3	274.0	432.7	580.9	690.0	784.5	868.5	834.5	657.0	559.0	529.5	514.5	500.9	478.7	460.6	445.2	428.0	424.7	415.0	399.5	383.6	377.2	374.6	371.8	367.8	355.5	338.5	321.9	297.5	273.8	253.8	218.5	162.1	119.6	94.90	76.92	63.94	53.63	50.00	96.33	379.3	 1102	 1416	503.1	11.31	2.475	1.690	1.580	1.674	1.681	1.872	2.563	2.857	3.200	3.227	3.490	4.001	4.237	4.210	4.116	3.537	3.180	2.900	2.934	2.673	2.706	2.602	2.580	2.598	2.726	2.672	2.672	2.702	2.643	2.805	2.777	2.957
435.0	141.5	267.8	432.5	586.4	697.9	805.0	898.4	875.3	679.1	570.7	529.8	515.2	494.7	470.1	450.8	432.6	419.3	416.6	406.0	385.7	369.2	363.7	361.8	361.2	357.7	350.4	336.1	323.6	301.6	277.4	249.7	221.7	194.2	142.6	110.5	93.16	79.46	66.65	59.20	64.78	122.3	281.8	679.9	 1706	208.0	12.94	2.210	1.971	1.897	1.913	1.948	2.527	2.858	3.292	3.367	3.643	4.112	4.386	4.434	4.220	3.562	3.414	2.972	2.903	2.803	2.694	2.604	2.848	2.599	2.527	2.668	2.463	2.672	2.775	2.651	2.678	2.728
440.0	177.5	267.9	426.0	570.7	697.1	821.8	919.0	885.5	695.0	574.0	532.1	506.9	485.1	460.6	439.2	423.8	407.0	406.0	395.9	376.5	356.1	353.4	350.7	352.4	349.8	345.1	335.4	320.3	302.6	278.7	249.6	218.6	199.6	164.3	122.4	101.6	87.61	75.87	66.12	61.54	68.52	98.87	191.2	 1010	 1628	181.7	4.941	2.193	2.062	1.948	2.030	2.446	2.873	3.275	3.386	3.670	4.161	4.387	4.478	4.202	3.874	3.400	3.038	2.824	2.766	2.545	2.506	2.604	2.649	2.530	2.658	2.493	2.700	2.597	2.690	2.639	2.747
445.0	214.2	269.5	414.6	558.9	686.4	815.7	934.8	891.9	690.5	570.1	527.3	489.3	473.0	446.0	427.9	414.1	401.8	392.3	384.0	365.4	343.1	340.1	337.8	341.7	337.7	332.6	327.1	315.0	301.6	277.5	250.4	217.8	192.9	173.4	136.4	107.1	93.41	80.26	69.93	64.11	58.71	59.24	71.50	289.2	 1316	 1408	24.28	3.049	2.146	2.034	2.080	2.543	2.843	3.090	3.282	3.730	4.216	4.433	4.428	4.184	3.694	3.380	3.101	2.843	2.757	2.582	2.565	2.569	2.445	2.481	2.485	2.446	2.574	2.656	2.518	2.618	2.705
450.0	224.1	339.2	409.0	543.6	671.6	797.1	909.1	875.5	686.0	554.2	508.4	477.3	446.4	428.2	406.0	392.2	379.5	371.3	361.3	343.7	324.6	315.8	317.4	321.7	320.5	316.7	312.4	302.6	291.4	273.3	247.0	215.5	185.1	167.3	148.7	119.6	98.16	82.88	72.80	65.25	57.44	51.28	45.55	84.69	357.2	 1025	 1241	414.5	8.476	2.298	2.112	2.597	2.760	3.085	3.364	3.589	4.183	4.413	4.554	4.298	3.907	3.382	2.947	2.801	2.651	2.558	2.494	2.464	2.424	2.496	2.362	2.463	2.351	2.537	2.485	2.564	2.637
455.0	178.3	471.4	440.7	520.0	644.9	758.8	874.5	851.6	662.9	531.3	492.1	454.3	425.4	400.4	380.8	364.4	354.8	344.4	337.5	320.0	299.2	290.9	291.6	296.9	297.6	295.2	291.6	286.7	277.8	261.2	238.1	210.2	179.8	156.0	141.8	128.5	104.8	85.32	73.56	65.28	56.57	48.82	39.36	39.65	91.76	240.4	624.8	 1445	171.9	9.344	2.397	2.754	2.841	3.124	3.232	3.454	3.881	4.292	4.296	4.132	3.606	3.183	2.973	2.843	2.562	2.461	2.340	2.285	2.414	2.279	2.235	2.304	2.288	2.378	2.374	2.354	2.542
460.0	134.1	492.1	584.1	503.6	615.3	729.6	834.3	814.9	632.1	513.2	468.5	434.4	401.3	379.3	358.0	345.6	335.5	323.1	318.3	301.8	281.6	270.7	271.9	278.8	279.7	277.3	274.7	270.2	265.6	252.2	230.7	202.3	175.4	150.7	133.1	126.5	112.2	86.84	73.64	64.54	55.68	47.28	38.21	29.62	33.15	62.32	157.0	846.1	 1287	134.8	5.072	2.915	2.944	3.139	3.052	3.386	3.787	3.917	4.201	3.838	3.550	3.186	2.874	2.640	2.528	2.300	2.253	2.315	2.327	2.124	2.203	2.210	2.204	2.292	2.210	2.292	2.371
465.0	119.0	401.4	777.1	528.6	578.8	691.5	792.7	782.7	609.8	487.4	448.4	415.9	385.0	359.6	337.6	325.9	315.5	306.5	301.6	281.1	262.4	254.2	253.2	261.7	260.7	262.5	259.5	255.6	250.6	239.7	221.1	194.7	169.4	148.0	127.5	117.8	113.1	90.82	74.11	64.03	54.88	46.58	37.08	27.66	21.42	23.64	41.90	229.5	 1054	 1054	19.34	3.655	2.865	3.019	3.031	3.193	3.643	3.759	3.966	3.840	3.352	2.976	2.699	2.557	2.472	2.262	2.027	2.141	2.294	2.174	2.004	2.181	2.121	2.214	2.155	2.139	2.086
470.0	109.0	257.2	797.8	779.0	550.1	634.8	732.4	719.1	563.8	453.5	415.8	385.8	352.5	330.3	307.9	295.9	287.0	278.1	271.1	255.6	237.8	229.8	230.5	234.8	235.2	237.3	237.6	233.4	229.9	221.8	205.3	183.9	161.2	139.8	121.8	108.2	102.6	93.28	77.00	62.64	53.27	45.48	36.88	27.26	19.80	16.23	17.73	58.21	286.3	779.8	898.0	315.0	8.612	3.115	2.930	3.107	3.436	3.562	3.856	3.416	3.115	2.766	2.615	2.450	2.307	2.161	1.999	1.993	2.077	2.022	1.846	1.948	1.985	2.021	1.982	2.010	2.037
475.0	100.8	189.5	518.5	 1093	658.9	578.1	668.6	658.0	514.8	414.5	378.6	352.9	320.8	299.6	281.4	268.5	256.1	250.4	246.7	228.6	211.5	206.5	204.4	209.1	210.3	211.1	211.3	209.1	208.6	201.0	186.6	168.3	149.5	130.7	114.9	101.4	91.13	85.45	79.53	63.57	51.05	43.82	36.17	27.78	20.32	15.78	13.88	20.73	69.99	181.7	428.4	 1011	165.4	9.510	3.047	3.010	3.244	3.377	3.511	3.405	2.754	2.670	2.364	2.250	2.019	2.108	1.964	1.943	1.923	1.799	1.881	1.952	1.733	1.721	1.740	1.896	1.778
480.0	100.3	176.6	326.1	 1017	942.5	548.1	621.7	610.2	485.9	391.7	356.5	332.5	300.7	280.2	262.0	248.3	237.6	229.8	226.5	211.1	194.5	189.8	188.6	191.8	195.7	194.5	193.9	193.2	192.8	187.2	175.1	158.4	142.5	124.6	109.5	96.13	85.52	78.20	75.56	66.56	50.99	42.89	35.93	28.34	20.89	16.94	13.78	13.10	22.54	46.10	107.9	558.4	941.4	141.0	4.993	3.024	3.228	3.124	3.294	3.046	2.759	2.470	2.402	2.113	1.863	1.980	1.920	1.854	1.810	1.669	1.782	1.616	1.596	1.712	1.696	1.783	1.766
485.0	98.50	166.9	265.2	714.3	 1220	596.8	570.7	573.9	454.4	368.3	336.4	309.0	278.8	261.8	246.0	231.5	222.0	212.4	210.3	195.1	182.2	175.3	175.9	177.4	177.7	180.1	180.4	181.1	178.7	175.5	165.6	149.2	133.5	118.5	104.4	92.05	81.91	72.82	69.36	66.50	53.75	42.33	35.09	28.69	22.01	17.69	14.14	12.11	12.38	16.19	29.19	148.9	750.0	857.7	23.20	3.597	3.161	3.079	3.174	2.890	2.383	2.423	2.218	2.075	1.905	1.872	1.804	1.750	1.715	1.716	1.681	1.655	1.665	1.768	1.609	1.747	1.498
490.0	90.31	152.5	228.0	420.3	 1081	961.5	535.4	512.0	414.3	343.4	314.4	286.2	258.8	240.4	223.2	212.7	201.3	194.7	189.6	176.0	163.6	156.9	157.4	159.2	159.3	161.9	163.3	163.0	162.8	159.3	151.0	137.8	123.8	110.2	98.06	87.28	77.99	68.88	62.37	59.77	55.67	44.75	34.96	28.46	22.61	18.61	15.36	13.01	11.09	10.33	12.12	38.03	199.5	585.2	747.7	282.7	9.219	3.123	3.001	2.774	2.402	2.204	1.964	1.857	1.817	1.750	1.635	1.594	1.598	1.491	1.532	1.548	1.510	1.520	1.568	1.525	1.578
495.0	77.53	148.0	211.5	300.7	619.3	 1242	676.7	453.6	374.2	311.9	284.6	259.5	234.0	214.7	201.0	187.2	179.1	172.9	166.0	156.4	145.4	139.1	138.9	141.8	142.2	144.9	145.2	144.7	144.7	141.9	136.0	122.8	112.0	100.7	89.01	80.36	71.92	64.14	57.68	52.49	50.12	46.58	35.72	28.66	22.87	19.70	16.57	14.13	11.62	9.591	9.150	13.94	48.84	137.1	401.9	943.7	178.7	9.503	3.187	2.749	2.275	2.155	1.904	1.735	1.727	1.619	1.654	1.462	1.489	1.374	1.361	1.495	1.342	1.296	1.455	1.387	1.419
500.0	60.81	137.5	204.6	249.5	383.2	 1066	984.0	429.4	339.7	288.7	260.7	242.3	217.6	196.9	181.3	170.9	160.2	155.8	150.3	140.3	132.0	125.6	125.7	127.5	127.9	130.2	130.7	130.2	131.6	130.2	124.7	115.0	101.8	92.94	83.50	74.64	67.02	60.02	54.37	48.88	44.52	44.43	37.92	29.22	23.65	19.86	16.69	14.43	12.13	10.05	8.795	8.799	15.65	34.75	101.7	523.6	896.3	145.4	4.960	2.678	2.332	2.031	1.884	1.671	1.534	1.551	1.429	1.304	1.401	1.275	1.332	1.289	1.249	1.340	1.397	1.250	1.266
505.0	66.54	116.4	200.2	233.4	300.1	696.9	 1246	493.9	310.1	268.3	240.8	222.3	200.4	181.4	165.4	155.9	146.8	140.8	136.4	127.2	118.5	114.4	114.3	115.1	116.9	117.3	118.3	118.6	119.5	118.4	113.5	105.3	94.04	84.68	76.65	68.98	62.78	56.49	51.46	45.90	41.61	39.51	38.23	30.56	23.30	19.75	16.90	14.78	12.81	10.53	9.241	7.893	8.577	12.31	26.81	139.6	677.4	754.0	24.84	3.077	2.372	1.964	1.781	1.557	1.519	1.478	1.209	1.373	1.262	1.274	1.216	1.261	1.208	1.269	1.283	1.085	1.220
510.0	54.78	98.33	175.7	213.8	254.3	391.0	 1004	887.5	303.2	237.1	215.2	196.2	178.5	159.0	146.3	137.8	128.9	123.5	118.4	110.8	104.2	99.16	99.52	100.1	101.7	102.1	102.5	103.5	105.3	102.9	98.85	92.44	83.75	75.97	68.48	62.19	57.10	51.13	46.45	41.69	37.43	34.14	33.49	31.58	24.95	19.60	16.91	14.82	12.76	10.83	9.458	8.077	7.198	7.637	10.15	35.09	179.0	500.5	598.5	107.7	8.347	1.930	1.692	1.448	1.446	1.310	1.190	1.279	1.155	1.163	1.127	1.133	1.060	1.095	1.112	1.089	1.124
515.0	52.44	81.37	145.0	198.6	217.1	264.9	514.3	 1114	496.6	205.4	189.6	172.3	155.5	140.7	128.9	118.0	111.2	105.4	102.2	95.01	89.60	86.90	85.10	86.12	86.68	86.93	87.20	87.69	89.34	87.20	84.96	80.52	72.59	67.39	59.77	54.70	50.53	46.13	41.02	37.66	33.51	30.98	28.00	28.12	25.93	20.85	16.78	14.59	12.54	11.10	9.679	8.509	7.277	6.934	6.791	11.63	43.52	116.4	282.6	651.5	172.7	7.922	1.647	1.433	1.351	1.256	1.047	1.098	1.029	1.024	1.010	1.051	1.030	0.924	0.959	1.064	1.003
520.0	50.84	79.27	124.8	183.0	199.9	214.8	305.7	898.7	823.0	207.9	171.9	153.4	139.6	127.1	114.2	105.9	99.83	94.74	89.69	85.06	79.77	76.52	76.75	76.21	77.36	76.90	77.05	78.93	79.69	79.13	76.15	71.35	65.44	60.28	55.24	50.04	45.73	42.08	38.21	34.48	30.87	28.14	25.53	24.22	24.84	22.26	16.72	14.49	12.48	11.19	9.760	8.543	7.187	6.943	5.941	6.958	13.46	29.38	70.86	366.4	641.2	128.6	3.068	1.525	1.333	1.233	1.052	0.982	0.941	0.974	0.878	1.017	0.938	0.914	1.005	0.896	0.862
525.0	42.48	69.59	109.1	156.0	189.0	190.5	231.0	551.2	 1052	328.5	158.5	142.8	129.0	114.2	103.1	96.11	88.73	85.50	80.91	75.87	71.79	68.28	68.49	68.43	68.74	69.95	69.89	70.56	70.64	70.36	67.21	64.73	59.07	54.35	49.06	45.39	41.88	38.06	35.22	32.23	28.61	26.19	23.84	21.72	22.45	21.55	17.79	14.19	12.23	10.93	9.764	8.485	7.303	6.538	5.966	5.962	6.803	9.989	18.95	97.12	460.4	531.9	23.55	1.791	1.238	1.207	1.102	0.959	0.968	0.983	0.886	0.896	0.807	0.926	0.807	0.828	0.841
530.0	38.33	59.31	93.71	128.6	170.8	172.3	191.0	283.0	788.7	742.9	173.5	125.4	113.6	102.1	90.89	83.16	77.18	73.45	69.87	66.39	62.05	59.47	59.03	59.11	58.72	60.06	60.41	61.27	61.42	61.48	59.47	56.50	51.24	47.48	43.23	40.03	36.47	34.04	31.24	28.56	25.86	23.66	21.50	19.83	19.17	19.32	18.57	14.73	11.90	10.14	9.339	8.230	7.072	6.662	5.950	5.551	5.424	5.661	7.203	24.34	120.3	341.0	417.0	103.8	6.595	1.161	1.074	0.923	0.933	0.914	0.792	0.835	0.743	0.767	0.773	0.770	0.746
535.0	34.07	55.42	80.29	101.6	140.2	159.5	159.0	182.4	352.2	896.4	507.5	113.2	96.74	90.15	78.89	72.18	66.15	63.16	60.69	55.18	52.92	50.76	50.51	50.26	50.50	51.62	50.90	52.30	52.14	52.11	50.99	48.51	43.84	40.73	37.90	34.45	31.83	29.32	27.45	24.94	22.72	21.02	19.11	17.68	16.52	16.25	16.72	15.60	12.08	9.796	8.602	7.405	6.896	6.327	5.778	5.600	5.162	4.854	4.692	8.197	28.95	78.91	185.2	461.2	159.6	6.311	1.126	0.937	0.886	0.837	0.807	0.801	0.752	0.736	0.680	0.695	0.698
540.0	30.86	48.72	74.22	88.80	118.4	146.0	142.1	144.9	182.9	655.8	886.0	132.1	88.53	80.20	70.70	65.13	58.96	55.36	52.80	50.15	47.15	44.68	44.82	44.55	44.82	45.36	44.90	45.29	45.96	46.67	45.15	42.91	39.71	36.56	33.10	31.04	28.84	26.88	24.61	22.84	20.95	18.86	17.65	16.31	14.97	14.28	14.31	14.64	12.39	9.816	8.369	7.133	6.590	6.043	5.754	5.423	5.069	4.633	4.224	4.503	8.681	19.55	45.81	247.2	456.7	26.81	2.597	0.991	0.898	0.848	0.708	0.727	0.709	0.635	0.694	0.718	0.637
545.0	29.65	45.88	64.76	81.49	98.98	133.3	134.6	125.4	125.8	351.9	 1005	296.1	81.24	71.92	64.95	59.42	54.33	49.82	48.25	44.69	42.46	40.58	40.17	40.21	40.25	41.08	40.42	40.42	41.60	41.13	39.92	38.20	35.28	33.02	30.27	27.56	26.36	24.18	22.31	21.09	18.85	17.33	16.45	14.92	13.88	13.09	12.17	12.62	12.60	9.675	8.071	7.034	6.231	5.761	5.525	5.295	4.897	4.543	3.971	3.707	4.206	6.389	12.22	64.38	312.5	371.9	23.12	1.376	0.887	0.858	0.745	0.740	0.735	0.694	0.638	0.671	0.670
550.0	26.42	40.53	56.94	69.93	81.85	106.3	124.7	112.8	102.2	158.1	641.5	656.2	108.3	61.32	55.05	50.69	46.45	44.21	40.04	38.12	36.56	34.41	34.10	34.07	34.12	34.70	34.31	35.15	35.14	35.35	34.45	32.77	30.26	27.83	25.68	24.23	22.92	20.93	19.90	17.96	16.66	15.24	14.67	13.38	12.40	11.61	10.77	10.51	10.89	9.976	8.065	6.549	5.880	5.522	5.270	4.936	4.793	4.480	3.885	3.573	3.290	3.465	4.641	16.02	80.85	234.6	251.3	98.58	6.116	0.886	0.761	0.688	0.637	0.603	0.594	0.618	0.603
555.0	29.18	35.93	51.83	57.82	68.82	80.56	103.4	102.6	84.76	92.06	246.7	664.4	384.0	54.22	46.69	42.86	38.39	35.87	33.68	31.29	30.06	29.25	28.47	28.66	28.32	28.09	28.38	29.16	29.25	29.17	28.04	26.88	25.15	23.44	21.78	20.60	19.44	17.98	16.32	15.27	14.55	13.10	12.34	11.42	10.85	10.12	9.352	8.737	8.668	8.980	8.490	6.548	5.606	5.015	4.983	4.618	4.415	4.159	3.835	3.472	2.908	2.858	2.760	5.237	19.47	54.27	115.7	323.7	141.0	4.906	0.821	0.679	0.575	0.571	0.532	0.581	0.546
560.0	25.62	34.96	44.07	52.12	59.40	69.14	85.97	93.72	75.83	70.61	107.2	436.4	624.8	83.30	40.64	37.50	33.63	31.40	29.19	27.14	25.13	25.18	24.48	24.78	24.39	24.85	24.58	25.12	24.86	25.11	23.85	23.16	21.56	20.09	18.71	17.84	16.56	15.07	14.11	13.37	12.36	11.76	10.88	10.31	9.604	9.105	7.805	7.772	7.153	7.804	7.797	6.496	5.156	4.638	4.367	4.360	4.003	3.803	3.665	3.262	2.829	2.600	2.538	2.806	5.791	13.59	28.76	163.8	322.2	27.05	1.772	0.795	0.622	0.571	0.567	0.485	0.488
565.0	24.90	33.20	39.14	46.12	54.73	59.85	68.18	80.62	69.63	58.76	67.45	214.6	647.5	244.1	35.83	32.50	28.78	27.00	25.60	24.07	22.22	21.66	20.58	21.14	20.94	21.56	20.99	21.49	21.16	22.10	20.89	19.87	18.61	17.33	16.20	15.04	14.45	12.74	12.42	11.64	10.65	10.35	9.758	8.887	8.421	7.794	7.174	6.746	6.156	6.226	6.589	6.300	5.169	4.161	4.087	3.991	3.795	3.406	3.451	3.119	2.760	2.407	2.367	2.220	2.940	4.567	7.714	42.31	204.6	211.0	21.96	1.027	0.601	0.575	0.573	0.501	0.541
570.0	22.36	26.97	34.76	39.08	44.32	46.27	52.76	64.73	63.83	50.26	51.78	86.81	368.2	497.8	68.19	26.52	23.58	21.47	20.36	18.98	18.04	17.57	17.02	16.64	16.72	17.01	17.12	17.28	17.14	17.21	16.68	15.79	14.97	13.90	13.14	12.13	11.51	10.61	10.07	9.480	8.914	8.228	7.683	7.390	6.708	6.625	5.968	5.570	5.140	4.913	4.975	5.300	4.731	3.888	3.390	3.329	3.321	3.029	2.968	2.747	2.656	2.263	2.220	2.017	2.123	2.442	3.015	10.72	52.06	136.0	177.3	69.32	3.760	0.534	0.524	0.444	0.476
575.0	23.21	26.14	28.98	33.54	35.49	37.61	41.36	47.01	55.29	47.17	40.60	47.83	130.3	428.9	316.0	23.69	18.96	17.06	15.75	14.60	14.45	13.35	13.58	12.74	12.95	12.99	13.07	12.87	13.02	12.96	12.75	11.94	11.47	10.70	10.20	9.297	8.883	8.091	7.917	7.455	6.907	6.419	6.089	5.797	5.309	5.122	4.617	4.368	4.248	3.796	3.624	3.878	4.128	3.767	2.886	2.812	2.791	2.633	2.285	2.214	2.141	2.001	1.986	1.800	1.700	1.700	1.787	3.558	12.64	31.43	72.16	180.1	27.50	2.726	0.507	0.418	0.448
580.0	18.36	25.81	25.25	28.02	30.53	31.31	33.93	38.71	46.33	46.08	36.17	35.44	53.36	255.9	481.5	57.17	15.45	14.37	13.11	12.02	11.54	11.07	10.98	10.67	10.86	10.54	10.30	10.41	11.07	10.93	10.43	9.921	9.635	8.652	8.200	7.649	7.300	6.678	6.464	6.085	5.600	5.310	5.074	4.870	4.519	4.192	4.051	3.745	3.520	3.127	2.966	3.037	3.315	3.499	2.842	2.494	2.298	2.301	2.157	1.944	1.882	1.772	1.588	1.644	1.436	1.553	1.514	1.834	3.681	7.761	17.56	89.45	153.8	24.20	1.009	0.429	0.417
585.0	20.46	23.11	23.58	25.46	25.35	25.50	29.44	33.08	37.44	47.02	35.01	31.66	32.50	115.0	439.5	210.4	13.28	11.95	11.30	10.27	9.968	9.585	9.389	9.075	8.977	8.670	9.141	8.611	8.849	8.943	8.770	8.496	7.761	7.208	6.691	6.437	6.017	5.670	5.430	5.397	4.638	4.313	4.410	4.166	3.866	3.695	3.383	3.235	3.002	2.798	2.667	2.506	2.630	2.962	2.738	2.322	2.050	1.947	1.928	1.771	1.758	1.401	1.523	1.470	1.306	1.382	1.266	1.340	1.746	2.491	4.502	22.86	100.6	130.6	18.06	0.552	0.464
590.0	19.40	20.79	21.57	23.73	21.56	22.62	24.53	27.14	28.81	40.80	36.04	28.98	26.41	43.49	220.1	392.6	45.43	9.995	9.013	8.460	8.065	7.613	7.561	7.361	7.409	7.276	7.194	7.136	7.055	7.108	6.833	6.684	6.333	5.867	5.190	5.049	4.923	4.606	4.295	4.281	3.898	3.600	3.428	3.367	3.130	2.998	2.808	2.605	2.454	2.228	2.108	2.108	1.962	2.237	2.290	2.227	1.893	1.601	1.599	1.494	1.461	1.409	1.252	1.311	1.280	1.117	1.135	1.074	1.125	1.216	1.583	5.625	25.50	74.59	96.04	38.98	2.181
595.0	16.97	22.10	20.55	20.23	18.72	18.60	21.33	21.35	22.92	31.48	38.25	28.02	24.05	22.33	69.76	286.0	250.0	10.18	7.265	6.849	6.445	6.035	5.877	5.849	5.745	5.463	5.510	5.561	5.907	5.698	5.751	5.319	4.849	4.556	4.509	3.977	3.765	3.644	3.483	3.367	2.992	2.875	2.675	2.777	2.530	2.445	2.411	2.217	1.974	1.884	1.664	1.648	1.493	1.512	1.870	2.024	1.796	1.478	1.381	1.306	1.232	1.138	1.012	1.064	1.114	1.014	0.909	1.031	0.812	0.824	0.867	1.737	6.050	17.20	37.70	95.42	26.89
600.0	16.40	21.21	18.67	18.84	17.69	18.51	18.93	20.56	20.57	26.37	35.65	30.33	22.26	17.85	25.64	148.7	358.0	41.40	6.530	5.771	5.307	5.215	5.128	4.721	4.762	4.550	4.437	4.732	4.931	4.799	5.036	4.525	4.210	4.087	3.787	3.522	3.267	3.197	2.837	2.740	2.602	2.515	2.303	2.303	2.053	1.909	2.014	1.780	1.626	1.559	1.452	1.373	1.198	1.187	1.360	1.758	1.660	1.431	1.169	1.168	1.074	1.043	0.944	0.851	0.934	0.949	0.872	0.872	0.773	0.675	0.615	0.756	1.781	4.195	9.212	46.50	87.45
605.0	18.50	21.28	18.80	16.66	17.35	17.17	17.44	18.86	18.70	22.01	32.21	32.86	22.04	17.51	15.70	61.04	301.7	161.5	5.905	5.162	4.564	4.356	4.554	4.074	4.195	3.931	3.841	4.212	4.365	4.081	4.116	3.951	3.669	3.455	3.272	2.943	2.743	2.850	2.425	2.381	2.283	2.233	2.071	2.010	1.847	1.719	1.621	1.472	1.450	1.296	1.241	1.210	1.130	1.166	1.179	1.454	1.569	1.493	1.141	1.055	0.938	0.918	0.829	0.764	0.870	0.868	0.849	0.820	0.629	0.657	0.567	0.580	0.816	1.233	2.415	11.92	54.72
610.0	18.26	19.87	18.15	15.77	13.67	14.84	14.89	15.93	18.65	20.38	27.48	33.20	23.69	16.84	12.93	21.54	137.8	287.8	36.19	4.503	3.840	3.853	3.668	3.564	3.501	3.471	3.235	3.388	3.520	3.287	3.400	3.190	3.011	2.865	2.668	2.418	2.297	2.250	2.005	2.062	1.897	1.858	1.667	1.577	1.486	1.440	1.360	1.336	1.208	1.107	1.064	1.014	1.015	0.947	0.947	1.047	1.172	1.306	1.055	0.942	0.812	0.816	0.747	0.794	0.762	0.722	0.741	0.744	0.669	0.585	0.514	0.521	0.521	0.601	0.868	2.983	13.91
615.0	17.82	17.63	17.63	16.07	12.70	12.71	13.58	14.67	17.08	17.87	21.84	29.47	28.19	15.74	11.91	11.78	40.90	192.9	209.1	6.131	3.320	3.400	2.992	2.980	2.899	2.813	2.582	2.774	2.737	2.706	2.633	2.511	2.399	2.164	2.043	2.006	1.859	1.751	1.720	1.711	1.413	1.416	1.439	1.316	1.167	1.198	1.113	1.123	1.024	1.033	0.933	0.918	0.828	0.816	0.766	0.810	0.918	0.962	1.055	0.897	0.760	0.750	0.663	0.662	0.695	0.599	0.670	0.647	0.658	0.564	0.487	0.471	0.479	0.409	0.535	1.015	3.389
620.0	16.94	17.22	15.61	15.53	11.49	12.02	13.64	13.84	16.12	16.95	19.82	24.78	28.72	16.71	11.16	8.553	13.89	91.91	288.8	37.40	3.115	2.702	2.677	2.551	2.181	2.472	2.242	2.276	2.207	2.265	2.235	2.005	2.074	1.791	1.881	1.702	1.654	1.476	1.460	1.437	1.241	1.207	1.210	1.211	1.071	1.107	0.944	0.980	0.833	0.844	0.798	0.742	0.807	0.683	0.752	0.696	0.686	0.771	0.814	0.852	0.720	0.658	0.572	0.609	0.559	0.533	0.596	0.542	0.635	0.589	0.461	0.476	0.473	0.356	0.417	0.502	1.027
625.0	17.81	17.37	16.84	13.42	11.54	10.92	11.75	12.85	14.67	16.78	19.99	22.00	27.07	18.89	11.15	8.210	7.367	33.87	227.1	146.1	3.073	2.757	2.356	2.255	1.994	2.209	1.982	1.893	2.088	2.131	1.963	1.841	1.791	1.621	1.616	1.490	1.388	1.445	1.216	1.245	1.126	1.052	1.009	0.984	0.963	0.978	0.861	0.898	0.803	0.698	0.689	0.687	0.695	0.630	0.621	0.627	0.574	0.621	0.689	0.724	0.677	0.637	0.518	0.586	0.535	0.554	0.541	0.496	0.554	0.604	0.503	0.416	0.454	0.421	0.409	0.402	0.548
630.0	16.98	17.94	16.99	13.81	10.64	11.15	11.70	12.73	13.33	15.36	17.97	19.61	22.45	21.25	12.04	7.818	6.330	11.47	93.63	232.2	31.84	2.391	1.941	1.942	1.851	1.853	1.805	1.715	1.800	1.797	1.717	1.589	1.456	1.381	1.390	1.306	1.256	1.147	1.092	1.057	0.977	0.959	0.888	0.873	0.864	0.856	0.724	0.716	0.695	0.648	0.572	0.607	0.565	0.590	0.539	0.604	0.556	0.562	0.545	0.611	0.670	0.633	0.520	0.528	0.497	0.486	0.535	0.493	0.460	0.510	0.523	0.475	0.432	0.391	0.380	0.364	0.386
635.0	17.01	17.82	14.46	12.67	10.74	10.41	10.09	12.48	13.98	14.86	17.28	18.85	19.82	21.26	15.11	7.911	6.084	6.010	25.35	136.7	177.8	4.296	1.881	1.746	1.569	1.457	1.577	1.381	1.470	1.585	1.380	1.309	1.171	1.214	1.207	1.200	1.050	0.982	0.928	0.878	0.848	0.774	0.769	0.830	0.759	0.690	0.661	0.595	0.572	0.544	0.467	0.521	0.525	0.536	0.557	0.513	0.479	0.575	0.475	0.494	0.579	0.579	0.514	0.508	0.501	0.452	0.450	0.521	0.461	0.407	0.406	0.460	0.413	0.382	0.387	0.321	0.353
640.0	16.67	19.21	15.89	12.50	9.139	10.25	11.24	11.64	12.97	15.46	18.43	18.86	18.96	18.89	17.09	8.801	6.168	5.042	8.457	58.07	232.6	32.95	1.905	1.594	1.399	1.456	1.247	1.372	1.382	1.370	1.275	1.174	1.151	1.058	1.095	1.077	0.934	0.910	0.850	0.825	0.705	0.668	0.675	0.754	0.656	0.608	0.540	0.568	0.542	0.458	0.457	0.511	0.511	0.485	0.507	0.471	0.457	0.417	0.451	0.485	0.528	0.562	0.529	0.461	0.428	0.413	0.476	0.474	0.428	0.452	0.417	0.486	0.431	0.382	0.339	0.300	0.330
645.0	16.36	19.49	17.72	12.74	10.15	10.62	10.94	11.44	12.55	15.26	16.59	18.32	18.31	17.70	18.34	9.816	6.975	4.737	4.437	19.61	170.4	128.1	2.322	1.227	1.297	1.085	1.202	1.348	1.234	1.183	1.085	1.158	0.993	0.918	1.009	0.906	0.912	0.841	0.757	0.748	0.629	0.681	0.637	0.605	0.611	0.584	0.538	0.507	0.482	0.456	0.423	0.485	0.479	0.436	0.394	0.427	0.420	0.443	0.466	0.438	0.507	0.537	0.488	0.418	0.379	0.397	0.434	0.414	0.471	0.431	0.345	0.395	0.418	0.404	0.371	0.333	0.307
650.0	16.54	21.18	17.26	13.99	9.785	9.782	9.385	10.92	12.99	14.42	16.87	18.00	17.47	16.61	16.91	12.08	6.741	4.878	3.866	6.785	80.84	208.1	13.51	1.304	1.234	1.090	1.106	1.059	1.040	0.997	1.171	1.032	0.884	0.848	0.893	0.885	0.792	0.721	0.652	0.698	0.630	0.620	0.530	0.607	0.550	0.486	0.509	0.513	0.446	0.417	0.442	0.429	0.397	0.407	0.389	0.426	0.413	0.388	0.388	0.384	0.410	0.444	0.493	0.483	0.426	0.432	0.363	0.385	0.482	0.454	0.371	0.382	0.415	0.431	0.372	0.378	0.365
