Sample:	'1
File name:	t2025062312ÇåÈª´å¶«.FD3
Run date:	'15:33:08, 06/24/2025
Operator:	Administrator
Comment:	'

Instrument
Model:	F-2700 FL Spectrophotometer
Serial number:	23B8-004
ROM Version:	4J14000 07

Instrument parameters
Measurement type:	3-D scan
Data mode:	Fluorescence
EX  Start WL:	220.0 nm
EX  End WL:	600.0 nm
EX Sampling interval:	5.0 nm
EM  Start WL:	230.0 nm
EM  End WL:	650.0 nm
EM Sampling interval:	5.0 nm
Scan speed:	12000 nm/min
EX Slit:	5.0 nm
EM Slit:	5.0 nm
PMT Voltage:	700 V
Response:	Auto 
Corrected spectra:	Off
Contour interval:	50.000

Peak integration
Integration method:	Rectangular
Sensitivity:	1
Threshold:	1.000

Peaks
No.	ApexEX/EM(nm)	Height(Data)
1	225.0/575.0	48.02
2	225.0/625.0	55.48
3	225.0/640.0	62.19
4	230.0/340.0	2601
5	230.0/505.0	314.2
6	230.0/635.0	57.08
7	235.0/260.0	310.1
8	235.0/350.0	2660
9	235.0/510.0	275.7
10	240.0/265.0	411.7
11	240.0/525.0	244.7
12	245.0/270.0	486.3
13	245.0/535.0	217.1
14	250.0/275.0	619.4
15	250.0/550.0	170.9
16	255.0/280.0	613.3
17	255.0/565.0	138.1
18	260.0/290.0	519.5
19	260.0/575.0	110.4
20	265.0/585.0	98.12
21	275.0/310.0	1897
22	275.0/615.0	130.0
23	280.0/315.0	1958
24	280.0/625.0	119.3
25	285.0/640.0	90.17
26	325.0/370.0	385.3
27	330.0/375.0	368.3
28	335.0/380.0	351.1
29	340.0/390.0	306.8
30	345.0/395.0	284.5
31	350.0/400.0	281.4
32	360.0/415.0	232.9
33	365.0/420.0	224.2
34	410.0/480.0	55.64
35	425.0/500.0	33.15
36	440.0/520.0	20.72
37	475.0/340.0	8.872
38	485.0/265.0	2.199
39	495.0/270.0	2.352
40	505.0/275.0	3.392
41	510.0/280.0	3.680
42	515.0/285.0	3.699
43	525.0/290.0	3.230
44	560.0/310.0	9.824
45	570.0/315.0	10.03
46	575.0/320.0	9.541
47	585.0/325.0	9.657

Data points
	220.0	225.0	230.0	235.0	240.0	245.0	250.0	255.0	260.0	265.0	270.0	275.0	280.0	285.0	290.0	295.0	300.0	305.0	310.0	315.0	320.0	325.0	330.0	335.0	340.0	345.0	350.0	355.0	360.0	365.0	370.0	375.0	380.0	385.0	390.0	395.0	400.0	405.0	410.0	415.0	420.0	425.0	430.0	435.0	440.0	445.0	450.0	455.0	460.0	465.0	470.0	475.0	480.0	485.0	490.0	495.0	500.0	505.0	510.0	515.0	520.0	525.0	530.0	535.0	540.0	545.0	550.0	555.0	560.0	565.0	570.0	575.0	580.0	585.0	590.0	595.0	600.0
230.0	63.13	835.4	1618	374.3	15.30	6.782	5.222	4.551	3.882	3.948	3.409	2.719	2.884	2.339	1.902	1.866	1.499	1.323	1.074	0.932	0.994	0.989	0.757	0.730	0.783	0.623	0.609	0.615	0.579	0.564	0.511	0.504	0.493	0.464	0.461	0.442	0.432	0.405	0.391	0.348	0.409	0.444	0.436	0.366	0.364	0.389	1.232	4.068	5.510	3.526	1.131	0.376	0.287	0.259	0.269	0.268	0.296	0.302	0.297	0.277	0.258	0.265	0.270	0.317	0.306	0.286	0.274	0.308	0.289	0.278	0.311	0.299	0.296	0.299	0.277	0.321	0.316
235.0	78.56	252.4	1237	1699	420.5	19.53	6.761	5.461	4.317	4.509	3.041	2.621	2.899	2.486	2.243	1.765	1.575	1.171	1.051	1.009	0.921	0.942	0.721	0.814	0.673	0.676	0.533	0.548	0.676	0.675	0.576	0.600	0.446	0.451	0.504	0.442	0.535	0.452	0.349	0.306	0.369	0.482	0.456	0.442	0.407	0.381	0.534	1.276	2.833	4.689	6.322	5.730	2.279	0.575	0.262	0.265	0.302	0.291	0.284	0.286	0.235	0.303	0.274	0.308	0.255	0.250	0.348	0.259	0.289	0.258	0.348	0.307	0.271	0.288	0.288	0.314	0.322
240.0	144.9	123.7	426.8	1735	1813	305.4	12.63	5.586	4.669	4.538	4.161	2.998	2.541	2.513	2.153	2.201	1.516	1.369	1.143	1.126	1.044	0.921	0.848	0.701	0.659	0.787	0.726	0.737	0.575	0.633	0.570	0.632	0.481	0.387	0.556	0.403	0.429	0.446	0.405	0.401	0.405	0.381	0.419	0.456	0.652	0.633	0.436	0.539	0.959	1.597	4.213	9.052	9.419	5.516	1.616	0.394	0.323	0.284	0.310	0.299	0.252	0.246	0.269	0.248	0.265	0.280	0.298	0.276	0.242	0.317	0.281	0.254	0.318	0.304	0.271	0.290	0.289
245.0	135.6	165.5	147.3	690.2	2356	1664	202.7	7.143	6.111	4.563	3.927	3.451	2.861	2.798	2.310	2.200	1.713	1.175	1.014	0.945	0.908	0.883	0.928	0.887	0.755	0.778	0.697	0.607	0.565	0.699	0.507	0.716	0.492	0.404	0.450	0.417	0.371	0.435	0.472	0.486	0.457	0.415	0.366	0.437	0.567	0.669	0.768	0.663	0.444	0.599	1.227	3.557	8.059	12.19	10.34	4.663	1.135	0.325	0.270	0.297	0.284	0.288	0.246	0.252	0.259	0.267	0.266	0.259	0.314	0.277	0.278	0.301	0.312	0.282	0.294	0.285	0.284
250.0	65.14	155.5	211.6	224.0	855.6	2154	2280	650.9	29.60	5.822	4.491	4.172	3.400	2.744	2.414	2.049	1.861	1.415	1.087	1.013	1.031	1.013	0.815	0.721	0.781	0.746	0.704	0.657	0.636	0.634	0.641	0.556	0.549	0.458	0.487	0.389	0.429	0.391	0.476	0.469	0.417	0.415	0.393	0.355	0.421	0.438	0.589	0.771	0.926	0.732	0.653	1.152	2.217	4.475	7.787	10.88	13.19	10.56	5.052	1.356	0.325	0.289	0.294	0.309	0.304	0.272	0.265	0.275	0.295	0.323	0.324	0.311	0.274	0.301	0.327	0.328	0.306
255.0	41.09	63.05	195.8	293.5	265.9	615.1	2292	2869	290.9	25.32	6.050	4.910	4.304	3.334	2.493	2.132	1.872	1.559	1.334	1.009	1.104	0.983	0.833	0.706	0.809	0.651	0.681	0.727	0.648	0.619	0.597	0.483	0.520	0.481	0.541	0.408	0.405	0.484	0.393	0.446	0.429	0.476	0.396	0.354	0.381	0.424	0.371	0.396	0.648	0.854	1.143	1.311	0.957	1.274	2.067	2.932	5.772	13.88	20.96	17.70	7.253	1.332	0.311	0.281	0.298	0.287	0.307	0.327	0.296	0.286	0.284	0.327	0.288	0.284	0.270	0.351	0.311
260.0	36.82	32.50	90.29	310.1	291.7	205.9	802.2	3360	2347	228.8	14.36	6.788	4.882	3.524	2.714	2.370	2.195	1.638	1.415	1.265	1.179	0.973	0.777	0.794	0.776	0.784	0.783	0.701	0.654	0.638	0.550	0.610	0.547	0.522	0.516	0.543	0.420	0.474	0.423	0.357	0.379	0.447	0.381	0.377	0.361	0.360	0.340	0.374	0.366	0.496	0.935	1.650	1.672	1.017	0.828	1.082	1.827	4.156	11.00	20.82	26.12	16.72	5.040	0.639	0.372	0.294	0.317	0.255	0.313	0.298	0.292	0.300	0.260	0.306	0.298	0.309	0.357
265.0	37.50	31.28	40.72	176.9	411.7	252.4	258.4	1349	4412	2020	168.7	9.824	5.838	3.971	3.191	2.415	2.219	1.687	1.576	1.246	1.172	1.081	0.800	0.846	0.763	0.742	0.746	0.757	0.793	0.635	0.711	0.608	0.622	0.513	0.489	0.530	0.429	0.505	0.382	0.374	0.400	0.430	0.511	0.473	0.359	0.464	0.333	0.405	0.302	0.321	0.477	1.057	1.806	2.199	1.456	0.943	0.941	1.464	2.999	6.951	16.62	28.30	28.15	13.88	2.749	0.398	0.355	0.337	0.377	0.319	0.313	0.304	0.287	0.335	0.324	0.343	0.276
270.0	40.80	31.57	33.54	89.37	279.2	486.3	326.0	399.5	1595	3947	3934	691.0	29.77	5.806	4.125	3.233	2.621	2.157	1.704	1.424	1.259	1.142	1.099	0.970	0.882	0.825	0.799	0.802	0.755	0.658	0.755	0.661	0.649	0.556	0.558	0.510	0.497	0.506	0.444	0.508	0.399	0.446	0.482	0.445	0.365	0.437	0.382	0.411	0.318	0.331	0.380	0.587	0.934	1.510	2.089	2.352	2.196	1.316	1.256	2.035	4.362	8.980	16.19	24.26	26.34	20.10	11.21	2.642	0.529	0.379	0.318	0.333	0.362	0.305	0.354	0.373	0.329
275.0	60.56	51.97	48.93	75.50	172.9	357.3	619.4	348.6	422.2	1063	3910	6585	887.4	23.05	5.856	4.040	3.553	2.477	1.906	1.707	1.403	1.365	1.093	1.070	0.758	0.888	0.773	0.731	0.801	0.804	0.761	0.631	0.837	0.614	0.622	0.654	0.525	0.555	0.454	0.513	0.474	0.483	0.408	0.464	0.501	0.545	0.473	0.468	0.389	0.401	0.406	0.513	0.764	1.049	1.219	1.799	2.987	3.392	2.284	1.242	1.475	2.462	4.042	6.070	9.092	20.24	38.92	30.65	15.65	2.521	0.398	0.377	0.406	0.370	0.324	0.380	0.374
280.0	90.08	79.25	72.40	79.68	145.0	250.3	504.7	613.3	232.0	291.9	1214	5895	6001	140.3	10.93	5.338	3.790	3.052	2.221	1.987	1.702	1.309	1.110	1.124	0.992	0.906	0.731	0.971	0.822	0.654	0.683	0.780	0.751	0.682	0.720	0.661	0.692	0.611	0.473	0.547	0.496	0.435	0.491	0.465	0.668	0.541	0.455	0.469	0.454	0.358	0.332	0.524	0.686	0.852	1.094	1.257	1.800	2.887	3.680	2.908	1.466	1.131	1.479	1.907	2.556	5.591	14.87	30.01	45.16	28.00	10.36	1.155	0.372	0.390	0.310	0.371	0.342
285.0	132.5	124.0	99.79	91.53	132.5	201.3	296.4	611.7	339.6	153.1	346.9	1946	6940	4596	98.44	7.559	4.437	3.806	2.746	2.012	1.750	1.662	1.242	1.268	0.970	0.923	0.817	0.858	0.807	0.739	0.798	0.741	0.711	0.736	0.743	0.677	0.628	0.609	0.473	0.604	0.544	0.541	0.605	0.453	0.562	0.544	0.592	0.666	0.554	0.412	0.360	0.590	0.633	0.725	0.939	0.944	1.343	1.564	2.355	3.699	3.549	1.988	1.045	0.999	1.109	1.911	3.940	8.483	21.16	37.08	35.11	23.07	5.621	0.804	0.346	0.385	0.363
290.0	176.6	179.2	151.5	115.5	133.2	169.4	196.6	302.0	519.5	442.7	226.9	551.9	2157	5022	4802	418.3	21.35	4.774	3.283	2.506	2.131	1.704	1.534	1.141	1.171	1.079	0.937	0.942	0.839	0.759	0.861	0.863	0.677	0.759	0.773	0.681	0.758	0.707	0.626	0.587	0.534	0.569	0.582	0.559	0.633	0.734	0.692	0.751	0.667	0.567	0.561	0.652	0.775	0.764	0.907	0.936	1.092	1.056	1.214	1.680	2.426	3.230	3.176	2.241	1.338	1.220	1.594	2.617	5.540	10.23	16.63	27.66	29.59	29.76	15.53	5.394	0.782
295.0	225.9	249.3	228.7	165.3	149.3	160.7	177.1	193.8	287.5	657.4	605.3	311.0	637.1	1306	3504	5981	587.9	20.39	4.629	3.379	2.741	2.090	1.615	1.443	1.243	1.228	0.987	1.013	0.916	0.842	0.905	0.793	0.744	0.749	0.788	1.010	0.750	0.774	0.642	0.580	0.560	0.626	0.635	0.591	0.622	0.828	0.872	0.884	0.982	0.768	0.758	0.749	0.850	0.863	0.911	0.924	0.944	1.002	1.038	1.080	1.311	1.623	2.166	4.059	4.489	2.668	1.719	1.693	2.477	3.386	4.539	7.104	8.354	17.01	34.78	35.41	24.10
300.0	304.6	350.6	326.2	236.7	196.4	203.0	245.5	273.5	319.2	600.1	1061	709.0	527.6	571.1	1140	4725	5187	87.48	12.87	4.506	3.257	2.442	1.968	1.882	1.279	1.342	1.094	1.043	0.848	0.934	0.954	0.957	0.794	0.883	0.918	0.994	0.788	0.885	0.756	0.644	0.742	0.690	0.699	0.771	0.759	0.837	1.103	1.111	1.186	0.887	0.952	0.993	0.986	1.023	0.998	1.052	1.322	1.215	1.397	1.460	1.471	1.758	2.080	3.095	4.609	5.900	4.471	3.105	2.672	2.690	2.925	3.182	3.257	5.229	11.25	23.64	42.97
305.0	410.8	518.1	505.5	378.6	311.7	332.7	416.6	531.2	677.2	929.3	1366	1569	1068	794.3	793.9	1749	5679	4025	71.63	7.885	3.808	2.673	2.244	1.958	1.650	1.527	1.273	1.262	1.141	1.097	0.954	0.970	0.892	0.844	0.930	1.002	0.884	0.921	0.943	0.821	0.868	0.794	0.886	0.886	1.064	1.306	1.321	1.693	1.647	1.318	1.235	1.307	1.268	1.457	1.291	1.683	1.772	2.223	2.482	2.520	2.804	3.257	3.921	4.513	4.959	6.500	7.811	7.863	6.323	4.772	4.432	4.146	3.969	4.188	5.235	8.084	16.60
310.0	571.8	727.7	707.7	553.3	445.5	467.8	587.4	744.4	941.0	1218	1523	1897	1826	1198	968.1	957.6	2108	4018	3843	300.3	17.78	4.160	3.133	2.373	1.989	1.679	1.521	1.316	1.079	1.140	1.086	0.960	0.981	0.896	0.996	0.951	0.981	0.948	0.937	0.966	0.968	1.022	0.998	1.119	1.271	1.618	1.800	2.241	2.321	1.939	1.742	1.999	1.783	1.843	1.960	2.146	2.490	2.903	3.408	3.577	3.833	4.334	5.165	5.786	6.356	6.889	7.806	8.740	9.824	8.821	7.354	5.894	5.445	5.358	4.963	5.048	6.615
315.0	685.1	952.9	974.4	720.0	568.9	579.2	714.8	859.9	1056	1323	1627	1858	1958	1760	1149	873.8	1056	1254	2527	4432	457.6	14.43	3.976	2.995	2.382	1.842	1.556	1.558	1.211	1.374	1.056	0.933	0.932	0.968	1.038	0.949	1.017	0.985	1.062	1.074	1.103	1.144	1.281	1.264	1.516	1.991	2.309	2.816	2.769	2.483	2.227	2.477	2.246	2.215	2.340	2.578	2.955	3.306	3.797	4.295	4.318	4.989	5.587	6.397	6.865	7.586	8.089	8.189	8.745	9.526	10.03	9.429	7.771	6.349	5.717	5.095	4.912
320.0	796.2	1115	1166	846.0	662.6	635.8	779.7	926.4	1111	1389	1672	1880	1881	1869	1491	925.7	858.5	628.1	742.6	3242	3897	66.01	8.331	3.657	2.605	2.142	1.928	1.505	1.434	1.439	1.132	1.036	1.005	1.005	1.142	1.061	0.976	1.044	1.141	0.984	1.199	1.238	1.401	1.469	1.865	2.213	2.731	3.345	3.443	2.773	2.446	2.807	2.543	2.584	2.488	2.821	3.119	3.444	4.015	4.543	4.383	5.203	5.747	6.875	6.918	7.354	8.107	8.514	8.737	8.855	9.031	9.541	9.139	8.406	6.551	5.551	4.948
325.0	888.0	1293	1366	1054	755.5	680.8	781.5	932.4	1081	1332	1614	1824	1803	1687	1638	1064	806.0	496.7	288.7	951.6	3722	3176	56.48	5.834	3.276	2.337	2.069	1.740	1.539	1.284	1.175	1.149	1.193	1.022	1.046	1.087	1.079	0.952	1.078	1.042	1.104	1.032	1.390	1.677	1.902	2.450	3.120	3.624	3.990	3.463	3.225	3.528	3.039	2.697	2.839	2.756	2.950	3.482	3.996	4.305	4.370	5.041	5.787	6.151	6.549	7.256	7.582	8.382	8.724	8.365	8.263	8.549	8.720	9.657	8.034	6.133	5.050
330.0	1062	1662	1932	1689	1212	854.1	807.2	917.0	1033	1251	1522	1728	1736	1580	1457	1233	912.3	502.2	244.6	319.1	1095	2799	3060	816.3	16.50	3.629	2.552	1.929	1.617	1.381	1.371	1.166	1.201	1.011	1.148	1.049	1.089	1.030	1.077	1.097	1.055	1.198	1.410	1.729	2.284	2.867	3.665	4.760	5.162	5.037	5.056	5.509	4.849	4.151	3.679	3.210	3.175	3.560	3.982	4.101	4.298	4.728	5.226	5.721	6.603	6.904	7.201	7.697	8.197	8.260	7.989	7.896	7.965	8.021	7.538	7.442	6.686
335.0	1228	1964	2456	2396	1862	1152	855.8	908.8	993.6	1198	1451	1644	1688	1556	1356	1144	1091	646.2	305.9	235.6	362.1	734.1	1929	3719	404.8	16.03	3.460	2.384	2.166	1.788	1.587	1.202	1.148	1.158	1.224	1.023	0.934	1.050	1.132	1.066	1.210	1.424	1.243	1.762	2.578	3.219	4.236	5.869	6.452	6.400	6.906	8.142	7.296	6.316	4.996	3.765	3.961	3.683	4.187	4.168	4.554	4.394	5.045	5.988	5.978	6.575	7.078	7.060	7.691	7.668	8.096	7.638	7.640	7.491	6.821	6.461	6.682
340.0	1289	2058	2601	2600	2047	1246	863.8	883.3	958.7	1121	1348	1516	1581	1471	1285	1033	989.2	779.1	368.0	236.7	214.4	268.3	565.3	2639	3296	316.3	7.438	2.985	2.145	1.871	1.658	1.459	1.157	1.249	1.158	1.033	1.023	1.087	1.038	1.143	1.281	1.215	1.535	1.798	2.303	3.247	4.300	5.916	6.816	6.868	7.276	8.872	7.931	6.826	5.141	4.095	3.977	3.768	4.032	4.079	4.323	4.370	4.821	5.548	5.806	6.148	6.747	6.624	7.316	7.243	7.447	7.412	7.119	7.327	6.322	5.990	5.707
345.0	1206	1970	2600	2615	2096	1258	860.8	852.7	911.4	1041	1237	1392	1440	1356	1199	960.4	833.4	751.1	486.9	260.3	193.5	177.1	217.5	783.6	3053	2760	50.15	4.651	2.610	1.890	1.781	1.497	1.185	1.299	1.195	1.022	1.078	1.034	1.140	1.101	1.226	1.148	1.415	1.708	2.323	3.222	4.200	5.852	7.050	6.783	7.366	8.624	8.264	6.954	5.410	4.173	3.866	3.628	3.739	3.755	4.173	4.127	4.499	4.910	5.321	5.581	6.009	6.451	6.750	6.994	6.724	6.935	7.046	6.846	5.992	5.843	5.059
350.0	1117	1854	2508	2660	2180	1304	885.4	850.9	888.3	989.6	1142	1255	1299	1245	1105	907.5	763.8	629.8	549.5	389.6	236.0	187.1	166.2	249.3	879.8	2291	2472	220.6	14.65	2.820	2.075	1.775	1.336	1.312	1.118	1.083	0.975	1.051	1.003	1.001	1.074	1.218	1.270	1.622	2.220	3.045	3.830	5.367	6.432	6.691	7.291	8.637	8.426	7.417	5.798	4.222	3.974	3.597	3.695	3.779	3.853	3.961	4.192	4.544	4.830	5.117	5.311	5.992	5.953	6.343	5.961	6.292	6.185	6.529	5.650	5.503	5.046
355.0	1012	1731	2312	2477	2137	1358	894.3	851.9	884.0	951.4	1051	1145	1174	1125	1008	849.1	718.6	572.0	466.9	473.6	342.1	216.2	174.5	151.1	249.7	561.7	1536	2989	363.0	14.32	2.745	1.982	1.591	1.253	1.239	1.087	1.016	0.971	0.907	0.940	1.001	1.297	1.375	1.642	2.239	2.879	3.573	4.768	5.826	6.128	6.858	8.165	8.274	7.479	5.699	4.526	4.279	3.615	3.797	3.667	3.810	3.741	3.959	4.316	4.776	4.733	5.150	5.239	5.337	5.659	5.498	5.633	5.489	5.503	5.495	5.028	4.427
360.0	909.6	1548	2050	2261	1988	1297	908.0	859.5	868.8	920.3	994.4	1057	1067	1026	922.7	784.0	675.1	544.2	432.4	420.7	430.7	272.4	188.5	141.0	124.0	171.5	417.1	2126	2811	291.3	6.790	2.521	1.806	1.450	1.255	1.190	1.058	1.037	0.984	0.988	0.947	1.026	1.258	1.574	1.922	2.598	3.254	4.403	5.205	5.641	5.735	7.615	7.729	7.305	5.526	4.379	4.142	3.681	3.979	3.693	3.678	3.839	4.031	4.429	4.518	4.627	4.793	4.807	4.826	5.156	5.294	5.239	5.163	5.136	5.024	4.794	4.367
365.0	860.5	1396	1876	2071	1828	1248	904.4	851.0	854.2	893.4	944.6	990.9	975.7	947.9	865.3	743.5	642.8	531.2	429.9	380.9	414.8	363.8	219.4	152.7	110.4	95.36	130.7	623.3	2622	2403	46.66	3.794	2.225	1.650	1.350	1.157	1.055	1.020	0.901	0.904	0.981	1.022	1.283	1.356	1.774	2.280	3.094	4.231	4.641	5.186	5.561	7.025	6.932	6.330	5.194	4.003	3.862	3.635	3.822	3.593	3.857	3.688	3.759	4.240	4.286	4.530	4.507	4.565	4.726	4.807	4.870	4.957	4.853	5.207	4.703	4.670	4.169
370.0	770.4	1228	1660	1894	1705	1211	906.8	854.8	854.2	884.1	905.3	923.2	907.8	866.1	800.0	697.8	618.4	526.5	438.1	381.0	359.9	385.3	321.5	195.7	132.4	99.52	84.43	178.2	754.8	2068	2217	200.2	12.96	2.367	1.698	1.269	1.156	1.044	1.044	0.915	0.934	1.014	1.143	1.260	1.607	2.210	2.824	3.720	4.127	4.507	4.798	6.339	6.342	6.017	5.113	4.010	3.865	3.584	3.701	3.718	3.745	3.713	3.970	3.986	4.000	4.429	4.180	4.103	4.298	4.524	4.603	4.368	4.444	4.731	4.425	4.372	4.104
375.0	706.5	1067	1449	1649	1537	1147	904.7	828.9	841.1	857.0	874.5	875.1	849.6	798.4	732.8	654.3	593.3	520.2	444.4	392.9	356.0	338.8	368.3	293.0	173.2	126.4	98.43	96.55	208.0	504.4	1440	2588	313.5	12.14	2.212	1.450	1.298	1.143	1.095	1.025	1.096	1.022	1.139	1.194	1.491	2.073	2.538	3.009	3.728	3.999	4.285	5.852	5.835	5.495	4.829	4.052	3.975	3.850	3.643	3.706	3.779	3.689	4.005	3.819	4.053	3.937	4.075	3.836	4.115	4.182	4.096	4.056	4.127	4.246	4.310	4.131	4.101
380.0	654.5	986.6	1325	1508	1430	1103	888.6	830.4	825.2	836.4	848.0	834.8	810.4	750.2	695.5	623.5	572.1	507.2	449.1	398.5	359.0	329.4	339.4	351.1	233.0	156.7	120.2	94.96	96.71	149.5	392.1	1911	2271	234.0	5.135	1.991	1.493	1.250	1.087	0.993	0.954	0.985	1.105	1.305	1.425	1.912	2.246	2.971	3.433	3.649	3.986	5.172	5.038	5.177	4.545	3.816	3.925	3.608	3.654	3.661	3.841	3.679	3.838	3.879	4.030	3.723	3.734	3.843	3.989	4.092	3.822	4.215	3.944	4.189	3.989	3.764	3.576
385.0	599.0	886.8	1202	1379	1345	1074	869.7	819.5	803.0	818.6	817.2	800.1	775.0	714.7	664.6	594.1	550.6	503.0	449.5	406.1	365.4	334.3	316.4	338.1	305.1	191.5	140.3	108.1	86.23	81.00	119.1	564.6	2137	1812	37.33	2.967	1.806	1.391	1.113	1.029	1.011	1.008	1.021	1.255	1.478	1.776	2.065	2.671	3.170	3.266	3.666	4.766	5.116	4.743	4.174	3.636	3.630	3.603	3.690	3.604	3.598	3.551	3.510	3.725	3.850	3.713	3.532	3.841	3.889	3.499	3.882	3.898	4.009	3.701	3.660	3.665	3.718
390.0	553.2	819.0	1091	1230	1222	1010	838.4	796.6	772.0	777.0	782.8	766.5	735.1	675.5	625.6	571.3	534.8	490.9	446.0	406.3	370.8	340.2	315.0	297.4	306.8	263.1	174.6	127.7	99.36	78.13	68.52	154.8	621.2	1589	1580	155.0	10.02	1.865	1.424	1.159	1.128	0.995	1.101	1.192	1.396	1.645	2.011	2.589	2.934	2.899	3.223	4.283	4.710	4.289	3.981	3.490	3.629	3.489	3.517	3.638	3.462	3.469	3.690	3.604	3.601	3.471	3.543	3.467	3.551	3.451	3.711	3.440	3.662	3.495	3.441	3.485	3.556
395.0	532.4	765.3	989.6	1079	1109	966.2	818.4	763.8	754.2	745.2	747.0	722.7	694.6	642.0	591.5	544.8	514.5	475.8	443.7	407.9	376.8	345.0	322.9	291.8	275.9	284.5	246.1	158.3	121.5	92.96	70.57	73.64	164.5	387.0	1085	1863	249.1	7.642	1.836	1.393	1.231	1.191	1.135	1.208	1.443	1.485	1.811	2.385	2.724	2.685	3.025	3.603	4.141	4.030	3.769	3.512	3.779	3.600	3.382	3.271	3.402	3.366	3.593	3.530	3.330	3.279	3.455	3.333	3.299	3.154	3.506	3.313	3.526	3.404	3.185	3.399	3.639
400.0	487.8	712.1	935.3	1021	1046	915.6	805.5	763.9	737.6	729.2	727.6	708.6	666.5	614.9	570.3	534.0	496.0	464.7	439.4	404.3	379.8	352.6	329.4	298.2	274.7	266.6	281.4	204.5	138.8	108.3	81.07	63.28	70.20	109.3	302.2	1431	1604	37.88	3.439	1.660	1.255	1.335	0.985	1.283	1.370	1.547	1.809	2.278	2.460	2.739	2.730	3.435	3.799	3.855	3.585	3.462	3.462	3.444	3.359	3.331	3.230	3.459	3.459	3.431	3.246	3.228	3.302	3.272	3.262	3.049	3.385	3.319	3.260	3.275	3.171	3.044	3.395
405.0	471.2	670.0	897.3	966.5	992.3	886.8	793.7	762.9	732.3	708.8	702.7	682.5	645.4	604.0	552.7	511.1	484.2	456.2	430.7	401.0	375.1	355.3	329.3	305.0	276.2	256.7	266.0	253.7	168.1	123.3	94.66	70.49	56.34	52.65	86.95	427.8	1570	1231	31.57	2.520	1.550	1.352	1.240	1.264	1.318	1.465	1.739	2.233	2.506	2.660	2.620	3.283	3.451	3.714	3.363	3.315	3.406	3.331	3.341	3.403	3.210	3.200	3.151	3.431	3.174	3.232	3.058	3.356	3.185	3.050	3.086	3.287	3.220	3.020	3.297	2.928	2.957
410.0	467.0	645.1	829.8	895.6	926.2	855.5	778.3	745.6	710.3	694.5	685.2	650.8	619.6	571.6	532.0	490.8	463.0	440.9	416.4	390.8	367.3	348.8	328.9	306.5	279.8	257.4	243.2	251.6	221.6	155.7	112.1	84.02	63.00	48.18	44.34	113.4	461.7	1148	1156	141.6	7.622	1.577	1.353	1.336	1.453	1.542	1.606	2.162	2.251	2.340	2.439	3.147	3.361	3.277	3.147	3.159	3.271	3.296	3.325	3.276	3.131	3.253	3.357	3.260	3.148	2.985	3.090	2.985	3.234	3.079	2.976	3.149	3.150	3.163	3.228	3.007	3.003
415.0	443.6	602.4	780.4	818.1	873.2	822.4	751.9	725.6	698.7	677.4	660.4	624.1	593.0	547.2	504.4	466.5	439.5	416.7	397.2	375.3	355.4	342.1	321.5	305.7	282.8	258.8	238.9	224.9	232.9	206.1	135.5	98.32	73.74	55.30	41.77	47.24	119.2	279.3	807.1	1336	212.2	6.203	1.609	1.327	1.427	1.561	1.518	2.089	2.182	2.293	2.464	3.235	3.247	3.304	3.187	2.971	3.294	3.205	3.321	3.242	3.142	3.135	3.316	3.036	3.086	3.083	2.903	2.714	2.797	2.909	2.904	2.828	2.992	3.075	3.034	2.927	3.005
420.0	426.5	602.3	737.2	804.3	825.1	789.9	726.2	720.5	691.9	664.8	635.9	614.9	561.5	524.4	484.1	451.6	424.4	399.6	386.1	362.5	344.2	329.5	318.1	299.8	281.0	257.8	240.6	218.7	215.3	224.2	165.8	110.5	82.39	61.88	45.64	36.35	44.95	75.26	223.0	1024	1169	34.60	2.947	1.790	1.393	1.614	1.687	1.855	2.101	2.158	2.244	2.825	2.930	3.090	3.050	2.966	3.163	3.143	3.203	3.126	2.840	3.163	3.226	3.024	2.991	3.074	3.034	2.863	2.753	2.957	2.860	2.749	2.678	2.735	2.793	2.957	2.699
425.0	402.3	568.0	701.5	768.4	795.5	764.6	719.1	711.0	669.1	653.2	626.2	598.7	548.7	504.6	466.3	430.3	403.0	388.3	372.1	355.1	335.0	319.1	306.8	292.7	277.5	257.8	239.5	220.9	205.0	211.3	196.8	128.7	89.54	68.21	51.29	38.32	30.54	32.28	60.55	307.2	1134	921.0	28.31	2.129	1.487	1.696	1.643	1.824	1.923	1.939	2.086	2.734	2.780	2.890	2.981	2.739	2.878	3.159	3.165	3.154	3.067	3.131	3.022	2.894	2.919	2.683	3.038	2.866	2.754	2.667	2.734	2.748	2.538	2.748	2.582	2.768	2.691
430.0	439.5	523.2	658.8	722.3	746.9	730.2	717.9	697.7	664.0	641.2	611.9	580.0	533.5	488.1	444.2	409.8	385.5	371.7	351.8	337.5	321.4	309.0	300.2	286.7	274.2	256.9	241.6	223.3	206.9	195.3	194.6	165.2	111.5	78.72	59.28	44.91	33.76	26.11	27.29	78.70	329.2	835.3	878.1	130.2	7.525	1.829	1.649	1.874	1.863	1.943	2.124	2.650	2.714	2.873	3.040	2.627	3.027	3.134	3.028	3.148	3.211	3.009	3.050	2.900	2.911	2.866	2.789	2.552	2.735	2.562	2.728	2.595	2.674	2.730	2.596	2.594	2.594
435.0	612.9	479.5	641.1	682.4	727.5	717.3	709.5	703.7	659.1	641.2	604.8	567.2	515.8	469.1	430.1	391.8	364.4	352.2	338.4	320.6	306.0	294.1	287.4	281.4	270.3	254.1	242.5	224.2	210.9	193.0	178.4	173.1	144.5	95.04	68.17	52.13	39.29	30.12	23.46	30.26	82.98	202.1	602.8	1101	201.7	6.506	1.931	1.991	1.907	1.916	2.014	2.517	2.771	2.696	2.834	2.728	3.181	3.151	3.000	3.265	3.159	2.975	3.013	2.924	2.740	2.743	2.706	2.525	2.648	2.546	2.592	2.605	2.495	2.513	2.378	2.438	2.458
440.0	875.9	517.1	622.9	647.7	696.9	690.0	695.6	698.2	664.7	627.5	599.8	554.1	505.7	454.6	413.7	373.3	354.8	340.5	326.9	306.9	294.6	284.4	280.2	272.1	261.6	251.8	238.5	224.3	211.9	195.5	174.4	160.7	157.0	115.8	76.06	57.58	43.66	33.21	25.29	21.17	29.71	53.12	166.1	836.3	1040	31.90	3.374	2.020	2.066	1.938	2.104	2.522	2.497	2.594	2.725	2.774	3.099	3.043	2.912	3.124	3.086	2.978	2.975	2.878	2.824	2.670	2.557	2.427	2.559	2.493	2.382	2.512	2.400	2.498	2.587	2.516	2.478
445.0	979.3	657.6	591.8	631.8	673.1	672.7	682.5	684.6	646.9	604.4	579.5	549.9	490.5	438.4	397.0	358.4	338.6	329.9	313.0	296.0	279.6	274.1	265.6	265.4	254.6	244.7	234.9	223.4	211.5	195.4	174.2	151.1	147.6	134.1	89.29	63.74	48.45	36.72	28.11	22.25	19.44	21.12	44.62	250.9	988.0	832.8	25.47	2.796	2.143	1.980	2.019	2.451	2.571	2.615	2.557	2.828	2.979	3.091	2.941	3.072	3.083	2.931	2.929	2.704	2.818	2.552	2.592	2.663	2.477	2.291	2.492	2.302	2.410	2.323	2.404	2.305	2.283
450.0	708.1	1047	623.7	594.3	641.7	639.3	656.0	658.0	629.7	587.6	559.0	519.6	461.5	413.8	370.9	337.8	315.6	305.5	290.1	274.6	262.3	256.0	251.2	248.6	239.2	232.5	223.2	214.4	205.3	192.1	172.2	150.2	134.2	128.9	109.5	74.36	53.45	41.96	32.40	24.92	19.98	16.59	18.89	63.34	284.5	735.9	811.4	119.6	7.240	2.077	2.019	2.341	2.375	2.617	2.461	2.614	2.870	2.947	2.907	2.810	3.043	2.899	2.800	2.809	2.741	2.553	2.661	2.462	2.449	2.325	2.211	2.132	2.241	2.242	2.143	2.216	2.198
455.0	407.8	1198	941.9	558.9	595.0	606.4	622.5	618.6	595.4	554.5	537.9	483.7	435.7	386.5	344.2	315.8	291.9	279.5	262.5	254.0	241.4	235.6	230.3	228.6	221.5	218.4	210.9	204.9	195.5	186.4	168.1	147.3	125.0	111.7	109.1	91.06	61.14	44.62	36.22	28.01	22.43	17.31	14.75	21.93	69.84	175.9	486.7	924.4	169.5	6.888	2.162	2.365	2.277	2.408	2.356	2.344	2.790	2.803	2.731	2.786	2.929	2.544	2.623	2.762	2.606	2.581	2.419	2.310	2.387	2.256	2.130	2.056	2.257	2.188	2.213	2.235	2.030
460.0	297.8	933.3	1303	584.1	560.1	589.5	602.0	599.5	568.6	533.2	507.5	457.2	410.8	364.3	324.5	294.1	276.2	259.0	246.7	236.7	223.4	218.2	213.1	212.1	208.0	205.3	197.4	191.6	186.5	177.4	162.1	142.4	122.3	105.9	96.61	94.65	72.19	48.28	38.62	30.04	24.46	18.88	15.39	13.62	22.67	45.20	128.0	636.7	825.1	125.7	3.955	2.488	2.214	2.248	2.120	2.419	2.651	2.988	2.389	2.648	2.636	2.515	2.610	2.667	2.543	2.399	2.416	2.176	2.151	2.033	2.082	1.937	2.046	1.943	2.019	2.005	1.820
465.0	274.3	601.8	1571	810.6	521.8	552.7	565.1	560.3	539.7	500.0	473.5	434.1	389.7	345.1	306.0	274.2	254.7	237.5	229.6	219.2	208.4	203.0	198.4	199.0	194.2	190.1	186.2	181.2	176.4	168.7	156.8	136.1	118.5	102.7	88.64	86.60	80.30	54.14	39.17	31.51	25.26	20.36	16.19	13.04	13.08	16.93	34.11	181.4	732.1	680.2	22.01	3.141	2.368	2.179	2.240	2.400	2.436	2.654	2.507	2.457	2.546	2.375	2.579	2.267	2.398	2.232	2.223	2.182	2.107	1.968	1.954	1.811	1.855	1.900	1.927	1.839	1.815
470.0	257.4	383.7	1113	1415	570.1	492.4	516.4	507.7	491.9	459.6	430.9	398.1	353.4	315.0	277.3	248.5	229.2	216.5	206.6	196.3	185.8	181.4	178.7	178.2	173.7	172.2	170.5	165.7	162.0	154.8	144.8	129.2	112.8	96.75	82.86	74.68	73.51	63.79	45.20	33.15	26.48	21.62	17.52	14.46	11.99	11.42	13.74	45.66	203.1	518.4	584.8	114.5	8.630	2.393	2.179	2.231	2.318	2.337	2.390	2.442	2.384	2.345	2.329	2.188	2.161	2.036	1.924	1.950	1.863	1.911	1.829	1.750	1.675	1.731	1.710	1.736	1.723
475.0	271.6	308.1	560.0	1575	1024	448.4	460.9	461.9	452.3	424.7	390.0	361.7	324.0	280.6	250.1	221.1	204.7	190.6	182.8	173.8	165.9	159.6	157.8	158.1	156.3	152.5	153.1	148.5	147.2	141.5	133.3	118.8	104.3	91.10	76.80	68.14	61.57	60.70	54.35	36.63	27.26	22.76	18.49	15.41	13.01	10.85	9.898	15.68	49.97	121.4	286.6	619.8	174.0	9.706	2.221	2.061	2.286	2.271	2.294	2.339	2.190	2.338	2.194	2.063	1.968	1.992	1.882	1.892	1.728	1.723	1.648	1.743	1.468	1.728	1.564	1.496	1.531
480.0	249.1	282.0	375.3	1124	1518	496.5	421.9	430.3	414.7	392.3	369.6	338.5	299.8	259.4	233.1	204.0	188.5	174.6	168.2	161.2	149.7	147.2	143.8	147.5	141.7	139.9	139.5	137.1	136.5	130.5	123.9	112.3	98.63	86.58	75.50	64.29	55.60	52.89	55.64	42.24	29.64	23.76	19.24	16.08	14.18	11.80	9.480	9.599	15.98	31.00	72.40	347.6	612.2	149.5	4.657	2.204	2.148	2.160	2.248	2.071	2.097	2.115	1.941	1.801	1.802	1.873	1.729	1.602	1.635	1.503	1.524	1.595	1.321	1.397	1.395	1.408	1.486
485.0	234.1	287.3	314.6	646.8	1728	614.5	388.5	404.0	385.7	372.4	348.7	323.0	282.5	244.6	215.3	191.3	176.2	164.0	154.7	148.0	140.7	136.2	136.1	133.8	131.5	131.6	131.7	128.1	127.4	123.5	116.6	105.0	93.26	82.15	72.36	61.96	54.44	48.18	49.22	47.41	32.84	24.08	19.49	17.10	14.90	11.80	9.909	8.756	9.014	11.39	19.77	93.28	451.1	574.1	27.50	3.048	2.167	2.161	1.883	2.024	1.961	1.915	1.858	1.754	1.798	1.490	1.801	1.506	1.552	1.563	1.397	1.426	1.488	1.393	1.401	1.367	1.341
490.0	202.3	298.9	291.0	392.6	1177	1404	444.1	369.3	356.6	337.9	318.2	297.6	256.6	225.2	198.7	175.2	160.7	149.0	141.9	134.3	126.2	124.3	121.7	121.2	119.7	117.9	118.4	115.4	115.7	113.4	107.6	97.88	86.60	76.74	67.22	58.65	50.94	44.97	41.59	42.90	38.84	27.31	20.68	17.27	15.39	12.76	10.91	9.330	7.756	7.427	8.364	24.64	118.3	343.4	485.9	121.8	10.81	2.184	1.907	1.896	1.742	1.761	1.716	1.653	1.669	1.602	1.539	1.541	1.426	1.499	1.318	1.309	1.406	1.380	1.409	1.258	1.285
495.0	156.7	267.2	308.5	294.8	533.6	1550	915.1	343.9	321.1	311.1	289.6	268.6	236.0	200.1	176.5	158.8	143.3	133.9	127.7	120.2	111.3	110.5	107.7	108.2	105.8	105.0	104.1	105.6	102.6	103.3	97.08	88.74	80.80	70.93	61.32	54.59	49.23	42.40	37.80	34.85	37.45	32.67	23.04	18.06	15.83	13.70	11.15	9.620	8.185	6.828	6.148	9.368	29.54	80.08	214.8	558.0	214.7	14.14	2.133	1.896	1.601	1.637	1.633	1.630	1.569	1.448	1.519	1.303	1.401	1.326	1.416	1.311	1.244	1.288	1.235	1.232	1.131
500.0	132.7	224.0	303.5	263.0	329.1	1086	1479	377.4	297.4	284.3	268.8	246.5	213.9	183.9	162.7	144.0	132.8	122.3	116.6	109.6	102.7	100.8	99.85	97.52	95.92	95.28	95.35	96.30	95.19	94.42	89.44	82.67	73.09	65.05	58.50	51.49	45.77	39.94	36.39	31.76	32.28	33.15	26.77	19.26	15.95	13.82	11.43	9.651	8.920	7.132	5.923	6.338	10.12	21.06	52.91	269.8	595.4	185.4	7.605	1.954	1.557	1.542	1.698	1.504	1.399	1.511	1.357	1.332	1.311	1.204	1.374	1.095	1.055	1.143	1.131	0.990	1.074
505.0	132.8	182.9	314.2	257.1	260.8	580.7	1725	650.7	269.2	257.7	244.2	227.0	198.5	171.9	148.8	130.5	123.0	110.3	105.1	98.89	94.12	89.50	89.54	88.39	87.86	88.68	86.60	86.13	86.88	85.49	82.24	75.01	67.73	60.78	54.43	48.21	42.40	38.25	33.69	30.14	28.41	30.61	29.39	21.21	15.88	13.49	11.63	9.826	8.695	7.806	5.987	5.633	5.667	7.637	14.68	68.03	346.9	562.7	31.79	3.706	1.825	1.471	1.485	1.307	1.412	1.325	1.392	1.337	1.276	1.117	1.239	1.054	1.006	1.066	1.168	1.057	1.151
510.0	119.2	144.2	237.3	275.7	233.4	315.7	1123	1372	309.6	230.4	216.4	204.0	177.8	154.2	131.5	117.3	107.4	97.62	91.66	86.63	83.37	79.76	80.09	77.60	77.08	77.34	75.37	75.90	77.10	74.68	72.32	66.44	60.79	54.59	48.27	43.88	39.16	35.02	31.47	27.79	25.49	23.98	26.18	24.26	17.47	13.47	11.71	9.974	8.543	7.582	6.689	5.626	4.864	4.883	6.126	17.82	86.61	276.4	396.4	132.6	12.26	1.494	1.403	1.343	1.174	1.316	1.254	1.241	1.122	1.094	1.062	1.064	0.986	0.972	0.935	0.959	0.995
515.0	103.6	127.3	179.8	259.8	218.9	228.9	459.1	1570	795.5	205.0	189.0	182.8	154.9	131.9	117.8	101.8	94.38	84.72	79.30	74.29	71.40	69.76	68.25	67.72	66.48	66.39	66.13	66.11	65.96	64.82	62.84	57.83	53.36	48.26	42.96	38.70	34.12	31.93	29.12	25.65	22.43	20.29	20.59	22.86	20.09	14.31	11.45	9.894	8.452	7.527	6.635	5.962	5.059	4.498	4.262	6.790	21.81	63.97	137.7	396.7	219.0	15.85	1.485	1.259	1.264	1.151	1.097	1.006	1.042	0.863	0.885	0.960	0.954	0.941	0.776	0.934	0.898
520.0	85.21	120.0	141.8	235.1	230.5	201.8	252.3	1055	1434	251.5	169.5	159.7	140.8	123.0	104.9	92.93	84.43	78.16	72.03	66.54	64.49	62.14	61.86	59.89	59.43	58.51	59.38	59.85	60.11	57.34	56.38	52.91	48.46	43.25	38.81	34.99	31.21	28.89	26.18	22.94	20.81	18.88	17.75	19.14	20.72	16.33	11.95	10.11	8.131	7.263	6.190	6.086	5.475	4.477	3.812	4.143	7.456	16.61	33.54	166.3	429.0	181.2	8.748	1.296	1.192	1.212	0.996	1.065	1.009	0.856	1.018	0.944	0.772	0.867	0.924	0.695	0.903
525.0	86.42	109.7	131.2	185.7	244.7	182.9	192.2	516.0	1738	525.1	157.5	145.1	127.7	110.0	95.44	83.26	77.26	69.46	65.90	61.72	58.73	56.75	54.14	54.25	53.24	53.90	52.57	53.20	54.07	51.61	50.35	47.49	44.02	39.66	35.05	32.38	29.26	26.79	23.89	21.98	19.59	17.43	16.07	15.79	17.96	17.69	13.16	9.717	8.210	6.912	6.060	5.585	5.369	4.780	3.853	3.690	4.247	5.949	9.640	40.62	212.8	406.1	130.8	3.834	1.254	1.114	1.018	0.937	1.101	0.824	0.974	0.840	0.824	0.818	0.793	0.724	0.772
530.0	74.30	97.47	110.5	141.3	217.1	201.2	162.4	247.0	1095	1344	207.5	127.5	113.9	96.35	82.34	72.32	67.60	61.32	57.94	53.02	50.73	48.72	47.35	46.43	46.22	46.67	45.77	45.90	46.60	45.22	43.39	40.67	38.49	34.90	30.82	28.45	25.85	23.33	21.29	20.04	17.73	16.10	14.53	13.56	13.89	15.96	14.64	10.40	7.831	6.602	5.944	5.270	4.887	4.890	4.105	3.450	3.547	3.459	4.190	10.89	51.65	173.6	295.6	133.5	12.65	1.213	0.969	0.885	0.956	0.752	0.834	0.723	0.774	0.732	0.728	0.795	0.739
535.0	62.55	78.05	101.1	111.4	164.8	217.1	151.6	156.0	393.4	1559	729.4	114.5	96.81	84.09	73.07	62.59	58.10	52.13	49.74	46.36	43.40	42.69	41.34	40.34	39.44	39.33	38.69	38.51	39.46	39.07	37.03	34.79	31.87	30.39	26.96	24.04	22.30	20.46	18.92	16.77	15.81	14.19	12.98	12.00	11.50	11.98	13.69	11.96	8.201	6.305	5.436	5.031	4.613	4.431	4.226	3.778	3.267	2.947	3.018	4.334	12.92	40.46	89.25	267.0	205.4	16.08	0.988	0.956	0.864	0.712	0.777	0.728	0.680	0.647	0.806	0.731	0.703
540.0	50.20	71.21	83.44	98.04	124.9	209.1	152.0	128.6	178.9	973.3	1404	152.0	88.96	75.75	64.22	56.50	50.42	45.56	43.40	41.82	37.73	37.38	36.24	35.00	34.93	34.30	34.33	34.37	35.00	34.28	33.16	31.24	28.57	26.76	23.89	21.67	20.45	18.59	16.51	15.87	14.06	13.04	11.92	10.78	10.34	9.564	11.07	11.47	9.287	6.444	5.113	4.767	4.375	4.163	3.933	3.848	3.225	2.804	2.697	2.859	4.468	10.48	21.39	100.4	300.7	156.9	7.866	1.000	0.886	0.728	0.742	0.718	0.605	0.639	0.759	0.655	0.616
545.0	50.05	68.39	77.53	89.99	100.6	176.6	163.5	113.0	120.1	418.7	1703	382.2	80.44	67.37	57.35	50.17	44.25	40.99	38.09	36.00	33.71	32.96	31.39	31.08	31.81	31.14	30.27	30.02	31.07	30.47	28.85	26.96	25.73	23.51	21.85	19.64	17.73	16.47	14.89	13.94	12.43	11.88	11.09	9.651	9.373	8.585	9.002	10.21	9.665	6.888	4.873	4.385	4.055	3.630	3.635	3.690	3.496	2.903	2.566	2.377	2.436	3.727	5.974	24.38	133.7	287.2	33.59	3.169	0.825	0.790	0.766	0.611	0.602	0.625	0.694	0.681	0.666
550.0	48.43	61.66	67.27	75.74	83.79	127.7	170.9	108.0	91.30	165.4	992.9	1152	116.9	57.65	47.96	42.31	37.88	34.63	31.96	29.94	28.36	26.78	26.05	25.85	26.20	25.27	24.99	25.05	25.20	25.14	23.93	22.84	21.51	19.89	18.13	16.73	15.00	13.83	12.87	11.73	10.99	9.896	9.621	8.483	8.012	7.249	7.144	7.613	8.351	7.493	5.202	3.889	3.638	3.276	3.228	3.039	3.217	2.932	2.414	2.234	2.011	2.177	2.467	6.611	31.98	115.8	183.1	107.8	11.46	0.912	0.758	0.616	0.578	0.569	0.584	0.605	0.601
555.0	47.43	56.00	54.93	63.87	65.58	84.54	143.5	123.1	76.27	91.81	311.7	1394	480.6	47.65	40.64	34.12	31.85	28.50	26.80	24.98	22.42	22.46	21.25	20.74	20.81	20.45	21.14	20.64	20.23	20.03	19.32	19.00	17.06	15.99	14.64	13.39	12.48	11.22	10.74	9.858	9.114	8.260	7.963	7.202	6.742	6.259	5.685	5.612	5.993	6.665	5.877	3.983	3.197	2.760	2.886	2.665	2.479	2.856	2.595	2.180	1.858	1.676	1.736	2.657	8.146	26.81	56.03	173.9	150.7	13.10	0.749	0.708	0.571	0.520	0.615	0.559	0.580
560.0	48.14	53.19	48.83	50.32	57.74	67.10	102.8	137.2	69.36	70.74	119.7	855.1	1067	69.45	35.89	31.71	26.66	23.98	22.45	21.56	19.61	19.07	17.90	17.65	17.33	17.12	17.56	17.50	18.06	17.41	16.50	15.61	14.37	13.46	12.38	11.36	10.97	9.845	9.166	8.239	7.828	6.947	6.870	6.448	5.922	5.308	4.969	4.483	4.527	5.297	5.667	4.305	3.121	2.729	2.524	2.297	2.289	2.343	2.522	2.186	1.651	1.637	1.401	1.704	2.809	7.050	13.64	63.81	203.9	98.05	5.531	0.720	0.585	0.522	0.574	0.558	0.485
565.0	41.14	46.71	44.16	48.80	52.83	54.61	74.75	138.1	77.12	57.04	66.88	336.7	1369	149.8	31.67	27.39	23.04	20.89	18.40	18.10	17.21	15.97	15.87	14.88	15.31	15.65	14.66	14.97	14.90	14.64	13.67	13.14	12.64	11.40	10.44	9.814	9.156	8.598	8.136	7.304	6.980	6.194	6.307	5.713	5.341	4.790	4.419	3.993	3.881	4.181	4.966	4.598	3.136	2.437	2.319	2.117	2.195	1.898	2.277	2.266	1.746	1.569	1.390	1.461	1.514	2.511	4.005	15.51	87.06	172.7	32.86	2.125	0.555	0.594	0.492	0.457	0.542
570.0	44.08	45.97	44.26	41.58	43.45	43.80	53.89	102.6	100.4	51.15	50.73	113.7	811.9	809.5	56.32	22.39	19.27	17.20	15.62	15.38	13.77	13.47	12.80	12.59	12.15	12.22	12.09	12.18	11.88	12.24	11.39	10.97	10.16	9.299	8.680	8.159	7.564	6.825	6.594	5.997	5.556	5.188	4.999	4.507	4.284	4.031	3.641	3.374	3.145	3.120	3.538	3.951	3.329	2.372	2.053	1.981	1.935	1.784	1.798	1.839	1.838	1.595	1.351	1.229	1.344	1.451	1.799	4.196	20.86	67.91	110.9	69.06	8.659	0.612	0.513	0.427	0.491
575.0	43.03	48.02	40.12	36.46	37.72	36.23	40.96	59.63	110.4	57.55	42.57	54.45	239.4	1027	299.4	18.19	16.48	14.34	12.97	12.37	10.83	10.30	10.07	10.04	9.970	9.588	9.817	10.15	9.834	10.05	9.378	8.784	8.602	7.354	7.261	6.619	5.997	5.802	5.592	4.864	4.866	4.215	3.789	3.664	3.447	3.323	3.019	2.820	2.654	2.528	2.484	2.667	3.181	2.476	1.988	1.621	1.574	1.505	1.610	1.665	1.631	1.625	1.412	1.211	1.199	1.171	1.132	1.747	5.484	15.82	32.93	102.2	85.31	8.501	0.467	0.478	0.426
580.0	41.02	47.34	39.83	32.96	32.44	35.45	33.95	41.10	97.45	79.13	39.11	39.36	81.77	631.0	729.6	29.83	13.29	12.87	10.77	9.969	9.677	8.759	8.796	8.696	8.644	8.131	8.350	8.544	8.572	8.304	7.790	8.020	7.004	6.222	6.020	5.511	4.809	5.200	4.477	4.281	4.220	3.879	3.500	3.387	3.059	2.760	2.711	2.501	2.336	2.150	1.920	2.042	2.621	2.525	2.089	1.622	1.409	1.453	1.361	1.313	1.381	1.623	1.710	1.313	1.019	1.029	1.025	1.135	2.014	4.227	8.150	36.81	110.9	35.00	3.595	0.450	0.392
585.0	38.83	43.99	39.88	32.37	27.85	31.53	31.63	33.59	67.15	98.12	41.43	35.74	40.56	238.0	960.3	92.55	12.69	10.77	9.506	9.517	8.028	7.824	7.856	7.555	7.317	6.962	7.048	7.443	7.395	6.958	6.479	6.723	6.244	5.754	5.307	4.898	4.578	4.276	3.745	3.814	3.498	3.213	2.958	2.864	2.855	2.499	2.397	2.170	2.033	1.882	1.761	1.693	2.063	2.584	2.176	1.607	1.261	1.314	1.432	1.162	1.239	1.275	1.646	1.394	1.007	0.938	0.955	0.866	1.091	1.509	2.440	9.091	47.14	99.89	29.36	1.372	0.435
590.0	41.15	40.83	36.87	30.87	26.71	27.50	27.97	28.01	42.17	88.91	58.73	34.04	32.01	75.62	569.6	498.3	23.67	9.629	8.100	7.553	7.033	6.714	6.555	6.184	5.798	5.846	5.941	6.058	5.860	5.756	5.479	5.496	5.009	4.585	4.469	3.868	3.718	3.513	3.297	3.033	2.927	2.710	2.542	2.512	2.286	2.133	1.989	1.861	1.780	1.566	1.405	1.451	1.436	1.752	2.030	1.776	1.282	1.174	1.196	1.016	1.086	1.064	1.266	1.365	1.219	0.904	0.912	0.745	0.819	0.964	1.051	2.561	11.34	39.03	69.15	45.31	6.057
595.0	44.05	40.54	38.92	30.24	24.48	24.01	25.94	25.22	33.51	64.65	82.58	38.24	32.24	35.68	163.5	669.8	93.83	8.620	6.760	6.190	6.077	5.333	5.278	5.079	4.773	4.893	4.741	4.676	4.575	4.784	4.337	4.427	3.856	3.515	3.665	3.174	3.142	3.005	2.839	2.621	2.340	2.127	2.048	2.038	1.962	1.616	1.742	1.454	1.575	1.328	1.257	1.112	1.155	1.243	1.500	1.802	1.513	1.055	1.102	0.958	0.983	0.843	1.039	0.980	1.191	1.061	0.878	0.767	0.701	0.821	0.711	1.099	2.950	9.086	19.81	60.44	36.32
600.0	43.34	39.34	39.71	29.73	26.46	24.94	23.97	27.59	30.65	46.23	93.23	49.69	33.35	27.65	53.27	436.9	401.2	13.48	6.138	5.176	5.088	4.590	4.696	4.336	4.113	4.127	3.995	3.620	3.783	4.147	3.787	3.673	3.260	3.157	3.114	2.946	2.691	2.455	2.362	2.368	1.933	1.821	1.818	1.730	1.633	1.604	1.552	1.328	1.375	1.161	1.230	1.049	0.958	1.211	1.228	1.677	1.546	1.246	0.901	0.727	0.850	0.779	0.859	0.836	1.036	1.124	0.916	0.696	0.743	0.783	0.634	0.748	1.118	2.442	4.859	21.64	62.11
605.0	40.86	47.89	39.21	33.04	26.34	29.01	27.21	31.68	35.81	46.62	92.62	73.01	43.09	33.56	33.93	172.9	588.5	54.34	6.015	4.511	4.368	3.936	3.845	3.860	3.875	3.642	3.382	3.446	3.525	3.582	3.437	3.280	3.143	2.790	2.653	2.301	2.285	2.154	2.146	2.013	1.780	1.557	1.678	1.670	1.517	1.423	1.342	1.112	1.206	1.010	1.045	1.093	0.885	0.928	1.005	1.207	1.302	1.352	0.946	0.720	0.785	0.755	0.768	0.825	0.900	1.121	1.058	0.822	0.763	0.649	0.715	0.624	0.753	0.972	1.434	5.430	26.88
610.0	49.17	48.63	43.40	37.23	29.22	29.56	34.98	43.54	53.53	69.04	95.33	117.6	76.14	54.46	46.70	70.81	402.4	300.4	12.14	3.802	3.826	3.416	3.378	3.189	3.270	3.092	2.791	3.025	2.978	2.983	2.783	2.642	2.572	2.409	2.186	2.033	2.006	1.756	1.735	1.602	1.487	1.394	1.447	1.342	1.318	1.224	1.205	1.041	1.077	0.864	0.862	0.882	0.831	0.821	0.773	0.863	1.152	1.335	1.069	0.877	0.790	0.801	0.856	0.780	0.852	0.963	1.025	0.991	0.907	0.756	0.827	0.637	0.727	0.745	0.772	1.727	6.617
615.0	44.99	53.09	49.25	36.48	29.99	32.67	37.79	48.41	57.76	76.47	92.53	130.0	101.0	63.86	54.77	49.07	142.4	459.3	64.93	3.759	3.194	2.820	2.870	2.495	2.526	2.657	2.510	2.363	2.629	2.318	2.317	1.968	2.236	2.003	1.853	1.584	1.509	1.554	1.435	1.362	1.204	1.236	1.156	1.119	1.018	0.973	1.024	0.873	0.843	0.739	0.724	0.747	0.730	0.707	0.610	0.698	0.915	1.043	1.129	1.074	0.709	0.850	0.747	0.866	0.853	0.910	0.959	0.985	1.199	0.791	0.780	0.760	0.733	0.649	0.660	0.868	1.958
620.0	41.58	53.88	46.66	40.88	31.20	29.27	39.37	47.92	59.62	74.20	85.96	115.3	111.8	69.48	55.97	42.16	64.41	333.2	240.1	5.550	2.804	2.798	2.488	2.276	2.462	2.237	2.057	1.945	2.072	2.032	1.952	1.969	1.838	1.633	1.630	1.452	1.336	1.267	1.175	1.133	1.047	1.112	0.941	1.117	0.872	0.990	0.838	0.828	0.772	0.701	0.690	0.574	0.632	0.670	0.584	0.623	0.757	0.946	1.166	0.991	0.809	0.790	0.800	0.822	0.878	0.813	0.824	0.940	1.060	0.836	0.786	0.721	0.623	0.645	0.655	0.617	0.890
625.0	50.84	55.48	54.84	37.87	33.76	34.27	38.93	47.31	55.50	69.09	80.91	101.0	119.3	71.62	54.34	40.62	43.79	147.1	390.7	24.27	2.684	2.316	2.340	1.972	2.197	2.041	1.802	1.799	1.666	1.897	1.757	1.798	1.626	1.563	1.169	1.337	1.228	1.143	1.193	1.045	0.940	0.976	0.883	0.919	0.900	0.809	0.789	0.745	0.684	0.698	0.548	0.573	0.540	0.627	0.661	0.634	0.640	0.709	1.082	0.900	0.822	0.712	0.761	0.820	0.734	0.750	0.830	0.956	0.940	1.050	0.815	0.712	0.596	0.630	0.592	0.642	0.765
630.0	50.00	52.31	55.99	40.15	33.20	32.98	36.94	45.61	53.19	66.90	78.79	93.57	108.2	81.66	55.76	40.62	38.11	52.63	286.6	159.9	4.585	2.078	1.999	1.788	1.755	1.766	1.605	1.628	1.431	1.701	1.460	1.492	1.288	1.258	1.085	1.140	1.027	0.963	1.065	0.943	0.808	0.759	0.787	0.763	0.718	0.712	0.638	0.631	0.593	0.612	0.536	0.634	0.526	0.520	0.582	0.546	0.592	0.626	0.758	0.837	0.780	0.782	0.762	0.712	0.682	0.690	0.782	0.753	0.844	0.893	0.954	0.816	0.623	0.667	0.687	0.571	0.614
635.0	49.35	52.70	57.08	38.66	32.39	32.85	37.50	44.67	54.28	64.75	79.41	86.78	93.29	89.71	58.32	41.07	37.74	27.87	90.10	317.6	38.91	2.055	1.658	1.513	1.517	1.338	1.477	1.501	1.279	1.297	1.213	1.041	1.091	1.072	0.958	0.964	0.852	0.826	0.826	0.858	0.794	0.696	0.672	0.638	0.594	0.617	0.588	0.678	0.609	0.548	0.503	0.517	0.466	0.478	0.491	0.489	0.617	0.645	0.585	0.747	0.807	0.787	0.739	0.707	0.655	0.797	0.747	0.816	0.704	0.704	0.991	0.926	0.683	0.575	0.617	0.543	0.501
640.0	51.48	62.19	55.93	39.66	33.19	31.83	38.47	46.20	50.33	63.46	77.04	86.68	85.88	90.17	62.33	40.68	36.88	22.02	26.97	251.7	146.4	2.406	1.623	1.275	1.405	1.200	1.371	1.156	1.229	1.313	1.099	0.930	1.051	0.897	0.828	0.855	0.889	0.750	0.701	0.793	0.617	0.691	0.669	0.609	0.593	0.641	0.512	0.608	0.504	0.425	0.483	0.485	0.445	0.436	0.534	0.499	0.599	0.602	0.515	0.660	0.740	0.676	0.758	0.649	0.617	0.708	0.667	0.719	0.777	0.764	0.755	0.844	0.819	0.654	0.667	0.572	0.562
645.0	52.42	57.17	54.79	43.60	31.76	32.50	36.79	44.72	48.44	59.72	71.27	83.37	77.62	82.36	70.80	42.39	36.35	20.29	11.52	114.4	262.8	11.55	1.636	1.128	1.372	1.303	1.190	1.044	1.104	1.239	0.985	0.950	0.917	0.930	0.788	0.768	0.831	0.704	0.665	0.699	0.705	0.605	0.550	0.497	0.569	0.546	0.458	0.551	0.526	0.474	0.435	0.503	0.453	0.432	0.463	0.426	0.524	0.517	0.494	0.545	0.544	0.738	0.755	0.657	0.622	0.673	0.700	0.689	0.717	0.737	0.645	0.751	0.836	0.660	0.570	0.581	0.576
650.0	52.48	59.93	58.97	43.13	30.93	31.45	35.33	40.50	46.88	59.01	65.74	77.44	71.58	70.54	71.62	40.92	33.21	19.36	7.882	35.30	271.9	53.31	1.557	1.377	1.183	1.042	1.037	1.021	1.139	1.045	0.977	0.905	0.864	0.877	0.676	0.711	0.611	0.735	0.671	0.660	0.644	0.634	0.543	0.520	0.590	0.468	0.497	0.539	0.448	0.415	0.406	0.422	0.451	0.410	0.442	0.377	0.460	0.584	0.406	0.490	0.523	0.579	0.599	0.646	0.629	0.627	0.608	0.687	0.672	0.662	0.732	0.631	0.719	0.625	0.603	0.488	0.523
