Sample:	'1
File name:	g05006胜豪化工气浮机后池.FD3
Run date:	'10:00:18, 08/02/2024
Operator:	horiz
Comment:	'

Instrument
Model:	F-2700 FL Spectrophotometer
Serial number:	23B8-004
ROM Version:	4J14000 07

Instrument parameters
Measurement type:	3-D scan
Data mode:	Fluorescence
EX  Start WL:	220.0 nm
EX  End WL:	600.0 nm
EX Sampling interval:	5.0 nm
EM  Start WL:	230.0 nm
EM  End WL:	650.0 nm
EM Sampling interval:	5.0 nm
Scan speed:	12000 nm/min
EX Slit:	5.0 nm
EM Slit:	5.0 nm
PMT Voltage:	700 V
Response:	Auto 
Corrected spectra:	Off
Contour interval:	50.000

Peak integration
Integration method:	Rectangular
Sensitivity:	1
Threshold:	1.000

Peaks
No.	ApexEX/EM(nm)	Height(Data)
1	225.0/305.0	1289
2	225.0/325.0	1322
3	225.0/490.0	340.4
4	225.0/610.0	82.33
5	230.0/335.0	1307
6	230.0/500.0	329.6
7	235.0/255.0	356.7
8	235.0/510.0	287.0
9	240.0/260.0	386.8
10	240.0/385.0	860.7
11	240.0/520.0	239.8
12	245.0/270.0	402.1
13	245.0/535.0	207.1
14	250.0/275.0	483.0
15	250.0/550.0	169.6
16	255.0/280.0	637.5
17	255.0/560.0	147.7
18	260.0/575.0	127.2
19	265.0/390.0	748.1
20	265.0/585.0	146.1
21	270.0/300.0	2054
22	270.0/380.0	755.7
23	270.0/600.0	160.5
24	275.0/305.0	2406
25	275.0/375.0	754.0
26	275.0/610.0	158.0
27	280.0/625.0	117.8
28	305.0/345.0	529.7
29	310.0/350.0	465.9
30	315.0/355.0	468.8
31	320.0/365.0	488.7
32	325.0/370.0	478.4
33	330.0/375.0	466.4
34	335.0/380.0	454.4
35	350.0/400.0	355.4
36	365.0/420.0	272.8
37	415.0/485.0	59.86
38	430.0/505.0	36.80
39	445.0/525.0	21.72
40	455.0/330.0	3.975
41	455.0/540.0	14.06
42	485.0/265.0	2.144
43	495.0/270.0	2.202
44	505.0/275.0	3.390
45	510.0/280.0	3.407
46	520.0/285.0	4.224
47	530.0/290.0	4.745
48	540.0/295.0	8.028
49	545.0/300.0	9.591
50	550.0/305.0	11.03
51	560.0/310.0	10.04

Wavelength data
No.	EX/EM(nm)	Height(Data)	

Data points
	220.0	225.0	230.0	235.0	240.0	245.0	250.0	255.0	260.0	265.0	270.0	275.0	280.0	285.0	290.0	295.0	300.0	305.0	310.0	315.0	320.0	325.0	330.0	335.0	340.0	345.0	350.0	355.0	360.0	365.0	370.0	375.0	380.0	385.0	390.0	395.0	400.0	405.0	410.0	415.0	420.0	425.0	430.0	435.0	440.0	445.0	450.0	455.0	460.0	465.0	470.0	475.0	480.0	485.0	490.0	495.0	500.0	505.0	510.0	515.0	520.0	525.0	530.0	535.0	540.0	545.0	550.0	555.0	560.0	565.0	570.0	575.0	580.0	585.0	590.0	595.0	600.0
230.0	58.43	410.8	1982	1162	82.41	4.940	3.692	3.074	2.863	2.798	2.403	2.293	1.820	1.604	1.362	1.157	0.990	0.825	0.870	0.819	0.678	0.642	0.544	0.502	0.486	0.455	0.438	0.377	0.374	0.360	0.375	0.352	0.371	0.276	0.296	0.297	0.297	0.267	0.241	0.215	0.270	0.466	0.573	0.393	0.261	0.232	0.397	2.705	6.656	6.923	3.624	0.928	0.221	0.166	0.158	0.198	0.171	0.190	0.174	0.166	0.155	0.197	0.162	0.155	0.166	0.169	0.161	0.142	0.155	0.188	0.164	0.159	0.166	0.146	0.158	0.149	0.176
235.0	162.1	146.0	831.4	1990	634.7	117.2	4.869	3.207	3.038	3.180	2.182	2.699	2.204	1.863	1.293	0.977	0.913	0.966	0.840	0.775	0.628	0.643	0.494	0.546	0.537	0.435	0.388	0.367	0.358	0.483	0.356	0.379	0.335	0.316	0.284	0.305	0.267	0.262	0.276	0.204	0.287	0.317	0.454	0.482	0.557	0.359	0.282	0.810	2.150	3.972	6.452	8.654	5.042	1.544	0.236	0.229	0.185	0.133	0.181	0.202	0.143	0.216	0.162	0.169	0.154	0.184	0.169	0.193	0.177	0.149	0.186	0.129	0.201	0.216	0.171	0.173	0.154
240.0	204.0	173.0	236.0	1111	2188	525.3	59.73	5.506	3.915	3.537	3.258	2.635	2.348	1.861	1.100	1.106	0.834	1.049	0.808	0.699	0.569	0.790	0.649	0.593	0.406	0.433	0.501	0.344	0.433	0.464	0.403	0.420	0.287	0.309	0.308	0.306	0.267	0.285	0.223	0.274	0.248	0.214	0.322	0.366	0.566	0.777	0.571	0.509	0.638	1.096	2.536	6.955	10.72	10.05	4.557	0.946	0.181	0.166	0.177	0.161	0.150	0.155	0.167	0.155	0.138	0.184	0.191	0.169	0.172	0.223	0.168	0.186	0.171	0.186	0.173	0.167	0.173
245.0	104.3	262.8	172.8	319.0	1619	2407	402.5	23.97	4.108	4.446	3.517	2.932	2.513	1.740	1.585	1.169	1.131	1.142	0.758	0.874	0.685	0.722	0.650	0.642	0.402	0.431	0.422	0.377	0.397	0.477	0.388	0.358	0.244	0.304	0.279	0.193	0.275	0.297	0.225	0.272	0.244	0.283	0.199	0.324	0.322	0.620	0.840	0.960	0.526	0.484	0.748	2.025	5.445	11.14	13.86	9.731	3.385	0.535	0.185	0.150	0.208	0.222	0.184	0.157	0.140	0.167	0.202	0.186	0.202	0.158	0.170	0.170	0.198	0.175	0.170	0.182	0.181
250.0	42.92	142.5	268.6	217.7	457.9	1548	2506	1276	100.6	6.030	4.144	3.592	2.854	2.039	1.745	1.172	1.291	1.101	0.921	0.882	0.817	0.676	0.692	0.577	0.491	0.462	0.462	0.399	0.451	0.422	0.405	0.408	0.360	0.308	0.337	0.249	0.284	0.281	0.279	0.302	0.294	0.303	0.245	0.301	0.234	0.362	0.462	0.800	0.984	1.005	0.752	0.773	1.473	3.153	6.261	10.34	13.46	13.63	9.071	3.127	0.461	0.196	0.194	0.184	0.177	0.175	0.149	0.172	0.169	0.206	0.201	0.171	0.157	0.189	0.156	0.186	0.192
255.0	28.73	44.56	147.2	356.7	250.6	378.4	1267	3615	1813	111.8	5.926	4.252	3.685	2.423	1.620	1.506	1.253	1.291	1.063	1.032	0.786	0.774	0.851	0.730	0.548	0.519	0.516	0.447	0.440	0.470	0.437	0.349	0.389	0.418	0.285	0.291	0.271	0.283	0.288	0.304	0.285	0.220	0.219	0.262	0.212	0.235	0.250	0.364	0.478	0.804	1.296	1.563	1.028	0.980	1.616	2.596	4.172	9.403	19.76	23.01	13.87	3.809	0.377	0.194	0.190	0.188	0.172	0.173	0.173	0.187	0.171	0.180	0.182	0.170	0.149	0.197	0.191
260.0	22.51	20.97	54.35	257.0	386.8	177.2	345.9	2160	4417	1365	53.57	5.428	4.303	2.654	1.890	1.957	1.351	1.175	1.223	0.833	0.792	0.720	0.813	0.716	0.650	0.559	0.615	0.421	0.474	0.484	0.411	0.494	0.324	0.328	0.333	0.291	0.247	0.256	0.228	0.271	0.271	0.214	0.236	0.246	0.242	0.255	0.240	0.222	0.288	0.336	0.748	1.692	2.023	1.187	0.725	0.804	1.192	2.515	7.254	17.35	27.85	24.86	10.69	1.741	0.254	0.230	0.220	0.152	0.178	0.183	0.191	0.196	0.164	0.163	0.213	0.195	0.187
265.0	23.74	21.25	22.60	98.17	379.5	333.2	126.1	621.4	3373	4674	242.1	18.15	5.842	3.430	2.492	2.081	1.746	1.374	1.289	1.046	0.766	0.792	0.755	0.758	0.627	0.603	0.612	0.431	0.560	0.499	0.418	0.462	0.281	0.327	0.294	0.339	0.330	0.287	0.223	0.294	0.240	0.206	0.235	0.292	0.255	0.297	0.283	0.240	0.212	0.212	0.335	0.751	1.626	2.144	1.858	0.723	0.483	0.774	1.915	4.760	12.81	25.96	32.13	21.91	6.246	0.735	0.259	0.190	0.184	0.209	0.189	0.223	0.171	0.182	0.178	0.164	0.183
270.0	28.68	26.00	17.95	34.70	151.7	402.1	323.8	206.1	954.8	3323	4791	870.6	58.46	5.467	3.499	2.916	2.016	1.753	1.298	1.095	0.934	0.877	0.847	0.759	0.676	0.582	0.633	0.557	0.572	0.500	0.433	0.473	0.399	0.390	0.371	0.364	0.327	0.346	0.303	0.312	0.291	0.228	0.288	0.288	0.291	0.299	0.275	0.232	0.230	0.215	0.191	0.348	0.608	1.136	1.827	2.202	1.955	1.037	0.824	1.344	3.196	7.119	14.15	23.35	27.16	27.59	14.41	5.123	0.695	0.270	0.230	0.223	0.212	0.204	0.203	0.225	0.215
275.0	81.18	60.60	41.37	30.02	50.28	152.5	483.0	353.3	272.2	816.3	2667	6677	1203	54.86	6.175	3.632	2.548	2.000	1.614	1.223	1.277	0.936	0.945	0.843	0.722	0.652	0.729	0.619	0.587	0.555	0.424	0.449	0.425	0.487	0.527	0.412	0.421	0.447	0.370	0.342	0.325	0.344	0.357	0.434	0.360	0.337	0.340	0.318	0.253	0.263	0.210	0.237	0.349	0.441	0.597	1.002	2.180	3.390	2.416	1.141	1.069	2.013	3.513	5.646	7.900	16.82	35.41	33.02	21.82	5.281	0.481	0.313	0.293	0.233	0.227	0.220	0.246
280.0	143.0	121.9	87.59	51.17	38.62	62.40	267.4	637.5	273.7	265.3	773.9	4466	6617	820.6	24.25	4.671	3.418	2.219	1.820	1.735	1.418	0.940	1.023	0.766	0.792	0.715	0.569	0.634	0.588	0.633	0.497	0.555	0.461	0.463	0.550	0.474	0.490	0.475	0.441	0.437	0.417	0.395	0.510	0.498	0.508	0.529	0.425	0.509	0.419	0.372	0.253	0.305	0.322	0.362	0.304	0.445	0.947	2.077	3.407	3.297	1.630	1.011	1.248	1.807	2.359	4.591	12.31	27.60	45.00	31.35	16.10	2.686	0.418	0.320	0.213	0.255	0.242
285.0	238.5	260.0	190.4	96.76	57.70	52.69	121.4	519.4	650.0	263.9	365.5	1442	6006	5548	123.8	10.42	4.231	2.685	2.295	2.035	1.375	1.256	1.255	0.897	0.745	0.760	0.715	0.845	0.638	0.645	0.560	0.527	0.503	0.518	0.697	0.649	0.721	0.661	0.565	0.609	0.561	0.554	0.674	0.640	0.749	0.813	0.758	0.784	0.701	0.548	0.374	0.346	0.445	0.327	0.451	0.393	0.536	0.921	1.772	3.622	4.224	2.495	1.334	1.316	1.519	2.116	3.950	7.825	18.24	36.36	49.55	27.80	9.772	1.180	0.341	0.242	0.291
290.0	531.9	563.4	423.4	229.5	121.5	97.32	125.4	304.9	739.7	924.8	711.9	913.3	2115	4830	5077	451.1	27.91	4.332	2.877	2.279	2.029	1.571	1.454	1.073	1.055	0.778	0.803	0.757	0.687	0.648	0.594	0.627	0.493	0.655	0.881	0.894	1.151	1.021	0.791	0.784	0.904	0.762	0.977	1.006	1.165	1.472	1.449	1.456	1.385	1.039	0.768	0.684	0.670	0.551	0.577	0.567	0.681	0.720	1.194	1.941	3.125	4.314	4.745	4.037	3.210	3.035	3.417	4.400	6.705	11.29	19.78	28.36	29.87	34.60	18.35	8.181	1.286
295.0	808.4	877.0	710.0	400.2	205.1	167.8	199.8	318.0	605.3	1227	1605	1266	1323	1544	3170	6152	635.0	23.86	4.479	3.114	2.466	1.750	1.603	1.245	1.035	0.968	0.905	0.783	0.689	0.790	0.689	0.593	0.651	0.685	1.152	1.349	1.555	1.349	1.041	1.061	1.173	1.128	1.338	1.551	1.756	2.185	2.147	2.343	2.037	1.721	1.186	1.061	0.934	0.755	0.766	0.862	0.874	0.996	1.313	1.810	2.345	3.183	4.325	6.851	8.028	6.324	5.522	5.227	5.637	6.631	7.271	8.380	8.579	16.74	35.10	52.46	28.61
300.0	981.8	1103	895.4	503.6	276.9	232.3	266.5	387.6	639.9	1137	2054	1773	1353	890.6	969.4	4426	5262	451.4	11.03	4.137	2.984	2.550	1.755	1.623	1.288	1.062	0.974	1.023	0.734	0.770	0.637	0.664	0.732	0.792	1.217	1.571	1.832	1.551	1.387	1.261	1.222	1.381	1.627	1.822	2.225	2.332	2.693	2.909	2.497	1.947	1.560	1.480	1.116	0.992	1.116	1.079	1.113	1.392	1.655	2.090	2.460	3.397	4.090	5.723	8.001	9.591	8.964	6.824	6.405	6.228	5.184	4.004	3.293	4.618	10.41	26.35	45.79
305.0	1079	1289	1027	593.7	324.9	276.1	314.6	456.2	716.7	1151	1901	2406	1582	835.2	431.5	1307	5309	4132	71.13	6.442	3.428	2.623	2.050	1.745	1.323	1.233	1.062	0.996	0.847	0.789	0.712	0.698	0.723	0.893	1.285	1.722	1.853	1.593	1.498	1.328	1.349	1.629	1.702	2.042	2.417	2.827	2.920	3.348	2.949	2.304	1.723	1.729	1.348	1.202	1.285	1.300	1.428	1.724	1.984	2.323	2.718	3.750	4.452	5.545	6.947	9.029	11.03	10.56	8.308	6.801	5.035	3.661	2.424	2.176	3.221	6.813	15.34
310.0	1107	1257	1052	622.3	382.2	323.3	373.0	506.5	759.5	1154	1683	2191	2058	996.1	359.2	404.4	1536	3910	3953	296.4	16.75	3.794	2.852	2.014	1.636	1.482	1.166	1.079	1.011	0.835	0.773	0.791	0.768	0.935	1.375	1.757	1.882	1.739	1.428	1.399	1.397	1.540	1.892	2.116	2.413	2.888	3.053	3.436	2.986	2.416	1.827	1.817	1.534	1.417	1.458	1.365	1.691	1.866	2.151	2.465	3.056	3.710	4.477	5.612	6.591	7.486	8.595	9.507	10.04	9.574	6.594	4.178	2.579	1.786	1.599	2.332	4.022
315.0	1046	1214	1033	623.5	414.1	359.8	386.0	510.2	739.9	1088	1524	1796	1827	1355	462.3	233.8	429.1	959.9	2715	4382	435.3	14.08	3.678	2.544	2.043	1.641	1.249	1.007	1.100	1.007	0.852	0.803	0.704	0.939	1.294	1.629	1.644	1.646	1.469	1.324	1.319	1.488	1.855	2.032	2.303	2.759	2.959	3.309	2.906	2.515	1.831	1.930	1.665	1.596	1.538	1.653	1.851	1.918	2.160	2.414	2.902	3.499	4.545	5.401	5.993	6.733	7.543	7.645	7.706	8.259	8.214	6.595	3.683	2.139	1.494	1.491	1.701
320.0	1002	1240	1079	658.4	417.9	371.8	410.6	500.9	709.0	1022	1413	1614	1522	1341	750.2	254.9	206.6	286.4	746.5	3555	3792	64.88	6.998	3.239	2.515	1.769	1.608	1.364	1.165	1.194	0.910	0.847	0.808	0.819	1.287	1.770	1.689	1.511	1.362	1.343	1.346	1.421	1.754	2.038	2.128	2.840	2.952	3.285	3.321	2.637	1.968	1.875	1.627	1.586	1.511	1.543	1.742	2.007	2.242	2.521	2.664	3.356	4.194	5.074	5.902	6.389	6.974	6.721	6.718	6.642	6.154	6.349	5.706	3.839	2.050	1.461	1.477
325.0	1046	1322	1202	741.5	460.0	386.4	423.3	504.0	678.2	959.2	1307	1486	1381	1083	947.8	421.1	193.6	156.8	227.7	1078	4152	2992	52.41	5.112	3.447	2.370	1.870	1.536	1.213	1.134	0.930	0.948	0.919	0.873	1.140	1.472	1.556	1.275	1.301	1.266	1.187	1.290	1.612	2.061	2.237	2.957	3.124	3.670	3.613	2.911	2.331	2.077	1.968	1.609	1.539	1.640	1.707	1.948	2.257	2.384	2.906	3.109	3.951	4.645	5.178	5.663	6.372	6.576	6.255	6.087	5.299	4.621	4.946	5.113	3.588	2.509	1.762
330.0	986.2	1303	1283	838.2	526.1	410.6	418.8	487.9	628.3	861.8	1146	1309	1228	916.9	734.4	659.7	350.5	165.3	133.5	299.0	1238	3037	3351	238.3	14.44	3.298	2.379	1.643	1.353	1.258	1.195	0.957	0.902	0.912	1.073	1.308	1.377	1.391	1.097	1.092	1.194	1.367	1.483	1.882	2.234	2.665	3.263	3.975	3.774	3.221	2.510	2.311	2.078	1.769	1.691	1.656	1.810	2.035	2.203	2.321	2.617	3.171	3.587	4.243	4.688	5.215	5.397	5.727	5.488	5.372	4.719	4.045	3.523	3.529	4.051	3.902	3.415
335.0	935.0	1281	1307	893.5	576.8	436.3	413.1	469.6	583.2	773.7	1007	1149	1089	839.5	603.6	532.7	588.8	294.0	141.7	146.0	333.6	750.3	2468	3542	369.7	13.41	3.367	2.575	1.846	1.476	1.229	0.997	1.074	0.839	1.103	1.150	1.399	1.144	1.115	1.095	1.173	1.232	1.517	1.814	2.333	2.938	3.079	3.917	3.858	3.276	2.703	2.677	2.021	2.021	1.917	1.691	2.011	1.940	2.168	2.243	2.560	2.793	3.330	3.822	4.112	4.690	4.831	4.736	4.830	4.614	4.313	3.550	3.194	2.867	2.824	2.704	3.595
340.0	872.6	1254	1303	945.6	611.8	471.8	428.3	460.4	548.6	721.6	912.3	1032	1000	803.8	578.0	451.7	530.2	484.3	197.8	132.7	152.3	223.0	689.7	3013	3188	292.8	6.999	3.107	2.230	1.678	1.391	1.116	1.092	0.909	1.075	1.046	1.230	1.213	0.940	1.083	1.119	1.221	1.429	1.607	2.267	2.806	3.111	3.905	3.792	3.184	2.747	2.767	2.457	2.251	1.941	1.770	1.839	1.964	2.262	2.182	2.492	2.665	2.896	3.473	3.754	4.181	4.358	4.445	4.514	4.405	4.095	3.682	2.827	2.793	2.641	2.514	2.751
345.0	850.3	1162	1226	942.4	648.9	501.7	452.9	462.7	528.9	667.5	838.0	941.3	929.3	758.2	568.0	443.9	411.4	529.7	350.2	163.6	133.7	126.7	208.7	930.5	3520	2682	47.41	4.361	2.818	2.069	1.553	1.352	1.092	0.965	0.956	1.088	1.194	1.111	0.940	1.095	1.200	1.037	1.316	1.576	1.992	2.546	2.823	3.592	3.748	3.323	2.551	2.795	2.640	2.250	2.060	1.941	1.882	2.066	2.214	2.130	2.491	2.534	2.872	3.383	3.396	3.789	4.007	4.128	4.227	4.145	3.852	3.659	3.092	2.829	2.695	2.554	2.246
350.0	738.7	1010	1125	905.3	683.0	555.3	504.5	491.2	542.2	636.0	763.1	853.4	838.1	719.4	573.8	460.7	395.0	408.5	465.9	326.6	184.2	144.5	134.1	273.1	1064	2575	2634	218.0	14.31	2.844	2.023	1.598	1.254	1.132	1.079	1.054	1.023	1.019	0.852	0.924	1.047	1.067	1.279	1.472	1.812	2.240	2.593	3.273	3.325	2.972	2.676	2.807	2.782	2.182	2.272	2.246	2.127	2.259	2.198	2.176	2.356	2.572	2.849	2.944	3.307	3.434	3.589	3.685	3.684	3.751	3.401	3.340	3.140	2.853	2.774	2.716	2.413
355.0	657.7	906.0	1037	887.8	739.0	623.6	576.2	558.4	577.6	634.4	725.5	787.3	780.4	697.7	584.8	492.6	426.3	389.5	395.3	468.8	330.5	202.1	157.2	158.0	303.7	643.8	1854	3167	357.6	15.27	2.815	2.021	1.409	1.150	1.077	1.124	1.077	1.058	0.880	0.852	0.894	1.037	1.305	1.420	1.674	1.915	2.235	3.102	3.045	2.897	2.435	2.907	2.769	2.657	2.466	2.359	2.474	2.364	2.453	2.513	2.421	2.660	2.950	3.028	3.125	3.258	3.320	3.456	3.659	3.495	3.453	3.353	3.166	3.024	2.882	2.972	2.960
360.0	620.4	871.5	965.9	891.0	751.6	670.8	627.4	597.5	611.2	653.9	718.9	763.5	761.7	690.0	601.0	520.0	460.3	413.7	387.0	437.2	475.3	288.9	196.8	156.6	155.6	202.9	518.8	2463	2974	298.8	7.351	2.628	1.655	1.540	0.992	1.109	1.060	0.903	0.977	0.984	0.848	0.975	1.151	1.233	1.628	1.932	2.239	2.667	2.867	2.793	2.460	2.861	2.843	2.682	2.883	2.663	2.651	2.653	2.525	2.604	2.662	2.905	3.082	3.042	3.166	3.382	3.226	3.432	3.426	3.617	3.346	3.274	3.293	3.288	2.810	3.098	2.936
365.0	615.2	828.3	912.9	867.2	767.6	727.8	678.5	637.1	636.5	672.4	723.7	752.1	744.7	686.0	609.3	544.3	493.2	445.8	413.2	404.9	488.7	422.1	249.0	185.0	145.5	122.0	167.6	738.3	2979	2625	47.47	4.562	2.290	1.613	1.322	1.058	1.151	1.022	0.856	0.997	0.785	1.044	1.144	1.228	1.638	1.887	2.114	2.563	2.960	2.656	2.479	2.972	2.664	3.016	3.026	2.600	2.975	2.632	2.901	2.769	2.755	2.787	3.034	2.986	3.141	3.013	3.078	3.243	3.308	3.517	3.297	3.096	3.148	3.275	3.011	3.097	2.947
370.0	597.4	759.5	877.2	862.9	814.0	767.7	725.0	684.1	679.9	704.7	742.3	752.8	734.5	686.7	620.9	568.5	525.4	487.2	454.6	427.5	436.1	478.4	391.4	249.8	177.0	133.4	111.2	216.3	872.5	2292	2527	728.0	14.91	2.485	1.698	1.267	1.325	1.072	0.968	1.015	0.943	1.091	1.154	1.279	1.488	1.968	1.966	2.408	2.646	2.611	2.513	2.914	3.006	3.073	3.094	2.999	3.139	2.859	2.752	2.818	2.887	3.088	3.070	3.148	3.212	3.121	3.303	3.154	3.302	3.410	3.271	3.169	3.359	3.236	3.222	3.166	3.053
375.0	566.2	733.4	833.5	863.9	823.9	812.4	760.8	729.6	708.2	727.3	748.2	754.0	731.8	684.3	632.1	584.4	552.6	523.2	494.9	464.7	444.9	431.9	466.4	378.2	230.0	170.1	128.2	121.8	242.3	561.3	1579	3019	332.7	16.92	2.612	1.774	1.552	1.252	1.130	1.098	1.137	1.142	1.278	1.289	1.469	1.771	1.983	2.335	2.513	2.450	2.409	2.922	3.183	3.102	3.122	3.229	3.124	3.212	3.097	3.275	3.187	3.208	3.305	3.300	3.338	3.289	3.290	3.261	3.305	3.265	3.439	3.222	3.209	3.376	3.231	3.365	3.383
380.0	554.1	742.4	819.5	841.4	848.8	841.2	784.3	736.8	728.9	740.5	755.7	748.6	723.1	680.6	634.2	587.5	556.5	541.2	514.6	487.2	457.0	430.0	435.8	454.4	305.6	201.9	152.6	118.6	118.1	169.8	427.7	2080	2648	275.4	8.509	2.280	1.706	1.334	1.185	1.106	1.242	1.163	1.144	1.314	1.511	1.770	1.963	2.224	2.457	2.485	2.580	2.985	3.277	3.439	3.155	3.142	3.209	3.292	3.299	3.278	3.088	3.284	3.187	3.479	3.545	3.320	3.368	3.265	3.347	3.371	3.327	3.283	3.279	3.256	3.166	3.265	3.534
385.0	572.8	716.8	822.5	841.7	860.7	855.4	797.4	752.5	738.9	742.4	755.3	741.1	715.2	668.3	632.8	591.4	565.3	549.1	523.5	495.2	468.9	437.4	412.2	438.4	393.5	243.1	175.6	132.8	104.9	94.18	134.3	593.3	2300	2272	41.48	4.574	1.966	1.648	1.293	1.136	1.063	1.222	1.278	1.316	1.578	1.626	1.928	2.328	2.492	2.428	2.533	3.074	3.232	3.564	3.357	3.220	3.334	3.319	3.216	3.246	3.246	3.390	3.277	3.442	3.498	3.225	3.300	3.275	3.186	3.185	3.189	3.381	3.171	3.183	3.469	3.419	3.505
390.0	566.7	707.6	779.2	828.0	846.9	854.1	807.2	761.1	738.2	748.1	739.5	727.4	702.4	659.2	623.9	586.9	564.5	546.1	528.9	505.4	482.0	446.0	414.7	392.2	399.4	341.9	227.4	162.2	124.9	97.16	83.48	169.7	639.9	1681	1922	643.2	14.69	2.408	1.671	1.375	1.215	1.360	1.413	1.382	1.590	1.812	2.029	2.259	2.368	2.330	2.454	3.042	3.156	3.347	3.327	3.292	3.427	3.266	3.377	3.316	3.247	3.336	3.241	3.322	3.402	3.192	3.154	3.170	3.137	3.230	3.240	3.169	3.297	3.073	3.255	3.410	3.468
395.0	580.6	691.5	791.9	836.8	837.9	843.2	810.5	757.8	738.0	735.1	724.7	716.2	687.6	647.2	609.2	577.7	558.3	543.1	523.7	511.5	483.0	454.0	425.2	390.1	360.9	363.4	319.6	208.6	155.0	118.3	92.40	87.86	176.9	405.0	1010	2271	289.7	19.27	2.368	1.687	1.449	1.418	1.467	1.338	1.530	1.888	1.948	2.246	2.241	2.394	2.399	2.708	3.134	3.329	3.276	3.132	3.391	3.250	3.434	3.410	3.382	3.289	3.203	3.381	2.941	3.187	3.218	3.293	3.254	3.198	3.143	2.835	3.170	3.054	3.176	3.384	3.499
400.0	541.4	657.3	785.5	805.8	820.8	836.5	800.6	761.7	741.4	717.3	715.0	704.9	672.2	639.5	598.3	558.5	547.3	535.6	517.5	504.5	478.4	451.4	424.8	393.3	351.8	336.1	355.4	268.2	181.4	140.6	106.7	81.26	81.80	119.5	264.1	1297	2048	263.0	11.49	2.238	1.606	1.654	1.429	1.589	1.593	1.693	1.814	2.149	2.291	2.240	2.343	2.874	3.049	2.984	3.135	2.987	3.244	3.379	3.488	3.166	3.339	3.420	3.365	3.183	2.953	3.091	2.840	3.264	3.029	2.900	3.016	2.980	3.172	3.129	3.130	3.215	3.301
405.0	538.2	669.7	751.6	791.0	823.7	815.6	801.7	769.4	729.1	705.4	700.3	677.4	651.2	629.6	586.1	549.2	531.4	523.4	510.5	495.7	470.1	449.8	427.3	392.0	354.2	323.9	329.6	320.5	219.7	160.6	121.9	90.66	70.36	61.08	83.52	344.3	1453	1832	210.2	5.913	2.056	1.571	1.519	1.606	1.600	1.775	1.826	2.073	2.220	2.256	2.165	2.854	3.090	3.163	2.863	3.058	3.337	3.237	3.348	3.240	3.448	3.300	3.168	3.062	3.234	3.136	2.918	3.088	2.971	2.929	3.108	2.925	3.107	3.101	2.774	2.993	3.314
410.0	534.9	647.4	720.1	764.7	783.6	786.1	783.4	758.4	725.4	700.5	686.3	662.1	633.8	600.3	565.8	526.2	508.4	499.2	488.6	474.0	455.3	436.2	419.7	389.6	355.5	324.7	302.7	305.9	285.4	202.6	143.5	107.3	78.94	58.92	50.32	98.49	382.1	1117	1485	572.2	15.21	2.217	1.789	1.665	1.586	1.770	1.804	2.111	2.369	2.212	2.081	2.893	3.033	3.029	3.148	3.008	3.266	3.281	3.246	3.237	3.259	3.220	3.052	3.211	3.203	3.033	2.888	3.068	2.925	3.054	2.917	2.881	3.006	3.046	2.907	3.072	3.154
415.0	515.1	634.7	697.7	731.8	746.5	769.7	768.2	726.0	704.4	685.4	661.9	642.4	600.6	570.0	534.9	500.0	480.5	469.8	462.0	447.2	434.5	418.5	401.1	381.6	354.9	323.3	297.4	278.2	284.6	262.0	177.3	124.5	91.48	68.26	51.99	50.05	104.9	265.0	638.0	1601	782.8	20.11	2.451	1.789	1.673	1.678	1.877	1.976	2.185	2.141	2.015	2.811	2.873	2.962	3.051	2.945	3.337	3.388	3.185	3.286	3.082	3.087	3.128	3.109	3.057	2.969	2.876	2.863	2.768	3.034	2.827	2.762	2.731	3.050	2.564	2.851	3.011
420.0	495.1	614.3	645.0	707.3	710.7	741.8	733.9	714.2	698.5	671.4	642.3	619.6	584.7	551.1	513.7	476.8	459.0	449.3	441.4	427.2	416.2	405.4	387.6	370.2	348.5	319.7	295.6	273.9	259.8	272.8	215.8	140.6	101.2	77.06	56.21	44.70	46.04	74.82	161.1	806.8	1624	254.1	12.94	2.393	1.796	1.767	1.938	1.968	1.983	2.008	1.978	2.657	2.727	2.671	2.850	2.810	3.193	3.382	3.101	3.167	2.970	3.167	3.088	2.967	2.823	2.952	2.737	2.806	2.679	2.802	2.725	2.758	2.500	2.979	2.615	3.007	2.740
425.0	483.9	570.4	649.2	681.2	687.6	719.8	717.5	698.9	684.7	650.1	635.7	606.0	562.7	530.1	494.9	460.0	442.6	426.6	420.5	412.3	399.7	385.1	373.6	360.2	341.5	316.7	293.2	270.7	248.6	246.9	246.1	170.0	111.1	85.36	63.60	47.37	37.54	36.28	49.58	208.1	975.7	1398	210.9	6.450	2.342	1.828	1.820	2.037	1.969	2.066	1.885	2.554	2.546	2.649	2.801	2.921	2.957	3.054	2.974	3.286	2.929	2.949	3.040	2.824	2.852	2.691	2.633	2.650	2.665	2.713	2.512	2.490	2.602	2.835	2.470	2.751	2.790
430.0	612.2	546.4	630.0	644.4	658.9	679.9	681.9	676.1	666.6	636.1	611.5	582.5	544.9	505.1	471.9	436.6	416.9	403.9	396.1	386.6	377.0	364.8	354.8	343.8	326.5	306.7	287.6	269.0	246.1	229.2	227.5	204.6	139.9	95.41	72.28	55.31	41.67	33.30	28.70	59.46	246.6	744.4	1140	506.0	16.00	2.393	1.988	2.044	2.050	1.993	2.038	2.417	2.536	2.630	2.593	2.817	3.063	2.938	3.151	2.995	2.897	2.852	2.882	2.898	2.756	2.647	2.704	2.512	2.396	2.554	2.576	2.390	2.482	2.528	2.468	2.517	2.607
435.0	1011	564.2	604.0	617.3	629.4	655.2	654.3	671.1	652.0	625.9	602.6	572.3	526.5	488.3	449.6	413.0	392.4	376.5	372.2	366.0	352.9	343.9	337.2	329.1	316.7	298.0	280.6	265.6	244.8	227.2	206.7	197.1	176.5	119.1	82.68	64.89	49.64	37.89	29.59	29.90	67.75	176.5	435.1	1263	768.4	22.10	2.546	2.322	2.107	1.897	1.932	2.220	2.423	2.601	2.579	2.631	2.665	2.831	2.821	3.091	2.969	2.917	2.943	2.719	2.653	2.554	2.601	2.348	2.510	2.508	2.317	2.436	2.632	2.207	2.288	2.383	2.306
440.0	1182	726.4	571.0	583.8	616.3	637.9	640.5	653.0	636.5	606.8	583.0	554.3	507.4	474.7	429.0	391.3	373.2	362.1	354.0	346.4	333.8	326.8	321.4	312.2	304.2	292.1	278.0	260.9	245.3	224.1	202.2	179.6	181.2	144.1	93.40	69.75	54.99	43.06	33.33	26.51	30.21	50.83	109.7	593.8	1410	244.4	13.98	2.581	2.377	1.962	2.008	2.379	2.395	2.627	2.514	2.623	2.771	2.821	2.636	2.623	2.781	2.973	2.957	2.616	2.560	2.553	2.319	2.387	2.337	2.339	2.372	2.408	2.300	2.341	2.157	2.171	2.114
445.0	1088	1091	547.4	557.6	601.7	607.3	624.3	627.2	617.2	603.6	564.8	532.3	491.2	459.8	417.4	380.7	359.2	344.4	337.0	329.3	317.1	312.9	306.4	301.5	292.0	279.6	267.4	256.4	240.9	222.7	199.5	171.8	163.7	158.5	111.9	77.41	59.78	47.12	37.42	28.88	24.64	24.86	35.47	151.0	785.8	1269	187.2	8.734	2.503	2.064	2.045	2.305	2.270	2.488	2.366	2.552	2.810	2.631	2.671	2.504	2.582	2.814	2.853	2.671	2.522	2.470	2.296	2.347	2.275	2.336	2.194	2.189	2.263	2.244	2.106	2.235	2.267
450.0	688.2	1449	771.4	526.6	563.3	564.0	586.1	598.3	601.1	568.8	541.9	510.2	463.1	425.7	384.9	354.1	334.8	318.0	314.0	302.0	293.9	289.5	281.6	277.2	273.0	261.1	252.7	241.8	231.4	216.4	193.6	168.4	147.8	142.0	130.6	94.32	67.15	52.77	42.20	33.72	27.52	22.31	20.78	43.91	196.3	640.0	1010	521.8	14.04	2.504	2.031	2.270	2.162	2.229	2.356	2.361	2.672	2.579	2.696	2.570	2.545	2.716	2.801	2.413	2.607	2.368	2.270	2.186	2.223	2.112	2.038	2.133	2.052	2.068	2.096	2.148	2.130
455.0	402.8	1138	1289	552.2	510.1	526.6	556.1	553.0	562.5	537.6	517.9	474.2	427.7	393.8	359.0	324.9	308.5	294.0	284.1	274.2	265.4	264.0	257.6	253.8	250.7	242.4	236.1	225.6	216.6	207.5	186.4	165.4	141.0	125.8	121.1	113.3	79.96	57.67	45.87	37.95	31.10	25.05	19.93	21.78	52.98	150.4	353.8	1051	616.6	17.77	2.277	2.183	2.110	2.130	2.177	2.195	2.352	2.366	2.426	2.440	2.683	2.456	2.515	2.224	2.356	2.260	2.202	2.192	2.249	2.110	1.917	1.889	1.953	2.028	1.971	1.928	1.912
460.0	360.9	714.4	1648	763.8	478.0	488.8	515.3	532.5	523.6	508.5	490.0	446.2	406.5	373.5	336.8	304.8	285.0	272.2	263.1	251.3	246.1	240.1	236.7	237.2	230.7	224.6	220.4	212.3	203.9	195.5	179.4	160.3	137.7	118.6	108.7	110.3	92.57	63.89	49.21	40.28	33.29	27.21	21.84	18.70	22.71	41.83	87.43	456.6	1086	185.9	12.30	2.476	2.221	2.162	2.099	2.143	2.157	2.244	2.382	2.203	2.579	2.118	2.299	2.226	2.044	2.267	2.003	2.108	2.198	2.042	1.784	1.801	1.952	1.899	1.893	1.647	1.810
465.0	321.8	459.1	1477	1191	463.1	455.1	485.9	501.1	490.3	485.9	463.0	422.1	385.8	352.2	315.5	284.3	260.8	251.4	241.3	235.2	227.4	222.8	218.2	217.6	215.7	209.9	204.0	199.1	192.1	183.9	169.0	153.2	132.8	114.7	100.7	97.21	97.79	73.50	51.59	41.51	35.02	28.77	23.44	18.42	16.64	18.09	26.84	113.9	590.7	930.9	157.6	7.966	2.411	2.262	1.883	1.989	2.241	2.159	2.245	2.102	2.164	1.942	2.197	2.268	1.859	2.157	2.077	1.979	1.788	1.894	1.891	1.725	1.940	1.734	1.686	1.605	1.766
470.0	327.0	360.0	802.6	1590	634.8	420.9	439.7	453.2	448.8	445.8	424.8	388.1	352.3	316.9	285.3	256.7	238.2	226.8	216.2	208.6	203.8	198.6	197.6	194.6	192.9	186.6	183.8	180.3	176.6	169.2	157.4	142.0	124.7	108.4	94.58	84.80	85.39	81.50	60.30	43.73	36.00	29.89	24.45	20.11	16.38	14.14	13.69	31.72	146.6	462.9	693.2	389.0	13.59	2.342	2.113	1.999	2.013	2.095	2.052	2.104	2.147	1.927	2.063	1.933	1.917	1.935	1.916	1.728	1.714	1.706	1.583	1.621	1.649	1.608	1.594	1.573	1.508
475.0	350.8	317.3	434.5	1210	1297	422.3	399.3	407.7	412.2	404.2	388.0	355.4	317.8	286.2	255.1	231.7	215.9	201.1	193.0	185.7	178.6	176.5	172.5	171.1	170.7	165.6	163.1	160.7	159.4	153.1	144.5	130.2	113.5	101.2	88.74	79.32	71.64	72.03	69.00	50.16	37.00	30.58	25.81	21.23	17.14	14.23	12.05	13.75	38.18	108.1	230.6	679.4	216.3	18.07	2.193	2.031	1.908	2.062	2.006	1.904	1.993	1.803	1.813	1.767	1.759	1.863	1.758	1.566	1.682	1.408	1.463	1.566	1.500	1.462	1.400	1.381	1.587
480.0	308.1	332.0	336.7	708.2	1629	558.3	366.1	382.4	393.8	383.0	361.9	331.4	297.0	268.3	238.8	214.7	195.9	183.0	175.7	169.5	164.7	162.6	158.5	157.1	155.4	151.5	150.6	148.4	146.5	144.1	134.3	122.2	109.4	96.24	85.44	74.47	66.06	63.19	65.80	57.38	39.63	31.79	26.19	21.52	18.04	14.81	11.58	10.36	14.47	28.61	56.81	283.4	709.9	200.9	11.17	1.965	2.078	1.810	1.782	1.856	1.840	1.873	1.615	1.789	1.712	1.747	1.529	1.486	1.710	1.351	1.568	1.407	1.318	1.468	1.231	1.428	1.372
485.0	257.9	335.6	297.6	416.1	1426	986.5	357.6	362.0	370.8	363.9	340.8	315.9	279.4	252.2	225.3	202.7	184.3	174.0	166.2	159.4	152.5	150.3	148.3	144.6	142.7	142.6	139.8	139.3	135.0	135.0	126.8	115.5	104.1	92.19	81.91	72.47	63.84	57.69	58.33	59.86	45.44	32.86	26.16	22.43	17.80	15.60	12.62	9.863	9.480	11.31	17.21	70.93	400.9	710.2	159.4	5.419	1.875	1.950	1.839	1.737	1.830	1.702	1.611	1.726	1.535	1.607	1.354	1.452	1.496	1.371	1.562	1.379	1.355	1.386	1.272	1.348	1.279
490.0	206.0	340.4	299.2	309.3	783.2	1464	537.4	333.8	338.5	333.5	313.0	294.1	259.5	235.8	208.1	185.3	170.0	159.7	151.3	143.8	139.1	136.3	135.2	131.9	129.9	128.6	127.1	126.5	124.3	123.3	116.9	107.2	96.01	86.75	77.38	68.73	61.37	54.11	51.45	52.49	50.37	38.36	27.32	22.64	18.99	16.16	13.37	11.27	9.351	8.278	8.383	19.74	99.76	343.2	593.5	297.1	13.92	2.087	1.794	1.719	1.678	1.627	1.647	1.573	1.504	1.380	1.396	1.331	1.347	1.326	1.409	1.289	1.271	1.227	1.250	1.123	1.194
495.0	160.9	268.2	324.9	259.4	386.5	1183	1119	321.0	308.5	300.4	286.9	269.1	231.5	212.8	188.9	166.8	151.9	142.0	135.0	130.0	124.4	122.8	120.1	118.5	114.4	114.9	114.1	113.0	112.3	109.5	106.3	98.58	87.83	79.71	71.87	63.32	56.46	51.83	47.20	43.35	44.92	43.19	31.20	23.49	19.97	16.79	13.39	12.06	9.794	7.855	6.842	8.827	26.00	79.78	214.1	633.5	235.4	18.35	1.989	1.627	1.524	1.468	1.570	1.454	1.497	1.420	1.337	1.228	1.243	1.221	1.112	0.980	1.093	1.141	1.133	1.089	1.135
500.0	153.4	220.2	329.6	254.3	272.7	687.1	1508	411.2	280.6	278.8	267.3	251.7	214.2	196.9	173.4	151.3	138.4	131.3	124.6	116.2	113.4	111.6	109.7	107.7	105.3	106.8	104.4	102.8	103.8	100.6	96.82	90.70	81.49	73.21	67.80	59.72	53.13	49.22	44.25	38.96	38.21	42.00	34.85	24.23	19.97	16.49	13.44	12.15	10.04	8.644	6.565	6.511	9.603	20.90	51.88	269.0	686.1	210.4	10.80	1.760	1.534	1.465	1.380	1.198	1.270	1.268	1.193	1.211	1.173	1.188	1.181	1.029	0.977	1.100	1.047	0.999	0.982
505.0	149.2	186.5	293.4	268.5	230.4	375.0	1429	809.7	265.9	256.0	246.0	226.4	199.4	180.8	159.9	140.5	126.5	120.6	112.8	107.6	104.1	100.4	99.63	98.05	96.99	96.08	93.86	94.71	94.66	94.21	89.45	81.60	76.08	67.98	62.85	55.78	51.38	45.95	41.89	36.68	34.16	36.67	36.80	27.54	19.83	17.10	13.72	12.01	9.940	8.890	7.262	6.065	6.021	8.032	14.80	66.56	372.6	654.3	161.4	5.047	1.451	1.359	1.358	1.181	1.159	1.166	1.199	0.947	1.052	1.038	1.050	1.002	0.982	0.934	0.920	0.902	0.811
510.0	127.5	151.6	224.5	287.0	215.1	237.8	769.3	1383	394.6	225.0	220.5	200.7	180.8	159.9	141.1	125.1	113.5	105.3	99.07	95.19	91.74	87.95	87.19	85.81	85.02	84.02	83.18	82.82	82.65	82.15	79.63	73.17	68.21	61.39	56.25	50.55	46.41	41.91	37.75	33.89	30.91	29.21	31.51	30.13	22.33	16.58	13.65	11.71	10.07	8.739	7.668	6.290	5.189	5.163	6.342	17.56	91.78	309.1	490.0	227.1	12.53	1.575	1.345	1.281	1.171	1.144	1.192	1.060	0.978	1.009	0.982	0.984	0.838	0.835	0.822	0.816	0.801
515.0	110.4	135.8	162.8	257.1	222.1	190.4	326.8	1237	947.6	216.3	194.1	175.5	157.9	139.9	123.0	112.5	99.80	93.59	86.09	82.41	79.59	75.76	75.33	73.99	72.68	72.33	71.91	71.69	71.78	71.94	68.43	64.40	58.37	55.03	49.27	44.87	41.50	37.31	33.34	30.38	28.27	25.92	25.13	27.08	25.44	18.05	13.23	11.20	9.528	8.343	7.290	6.690	5.409	4.552	4.509	6.840	22.93	71.29	166.3	478.3	226.0	15.98	1.441	1.319	1.026	1.073	0.970	0.976	0.929	0.806	0.928	0.824	0.750	0.779	0.812	0.750	0.721
520.0	99.41	117.4	142.5	203.4	239.8	164.9	202.8	707.8	1478	290.4	170.9	156.1	142.7	129.6	113.1	100.4	87.69	84.35	77.63	73.74	71.13	66.75	67.32	65.83	64.84	64.44	64.06	64.69	64.67	63.32	61.24	57.77	53.17	49.17	44.83	40.56	37.51	34.19	31.56	28.19	25.48	23.90	21.50	22.55	24.80	20.77	13.67	10.98	9.348	8.015	7.048	6.530	5.545	4.734	3.971	4.209	7.806	18.23	40.18	203.4	498.0	187.8	8.378	1.291	1.127	1.051	0.886	0.853	0.843	0.967	0.780	0.655	0.652	0.674	0.700	0.754	0.687
525.0	94.13	104.9	116.0	156.5	234.5	174.4	159.9	328.7	1531	660.6	159.4	144.5	129.2	116.3	103.5	88.84	80.41	76.07	70.96	67.15	64.05	60.98	62.13	60.98	58.90	58.70	57.91	56.91	58.55	57.84	55.85	52.14	48.89	44.36	41.01	37.61	34.60	31.68	29.07	26.39	23.90	21.57	19.27	18.18	20.76	21.72	14.95	11.14	9.071	7.793	6.823	5.946	5.914	4.970	3.985	3.795	4.109	6.434	11.06	50.16	263.3	464.6	128.6	3.406	1.168	1.006	0.802	0.787	0.725	0.793	0.725	0.657	0.632	0.628	0.666	0.638	0.706
530.0	79.33	90.81	102.6	119.1	198.8	191.6	140.1	184.4	842.9	1353	227.2	130.0	114.7	102.2	90.15	78.74	70.85	65.87	60.79	58.26	55.49	53.53	53.08	52.47	51.71	49.93	50.04	48.88	50.41	50.08	48.64	45.51	42.18	38.77	35.90	32.50	30.45	28.35	25.59	23.86	21.37	19.57	17.53	16.10	16.00	18.49	17.18	12.10	8.908	7.370	6.395	5.550	5.398	4.867	4.294	3.707	3.362	3.595	4.471	13.04	64.71	217.1	343.5	133.1	11.89	1.080	0.860	0.832	0.748	0.676	0.645	0.601	0.624	0.569	0.608	0.602	0.642
535.0	72.67	76.88	86.89	101.2	138.5	207.1	137.5	128.0	295.2	1324	809.4	119.8	100.1	87.46	77.69	69.01	61.07	57.02	52.42	49.56	47.69	45.81	44.47	44.59	42.69	42.67	42.34	42.51	43.16	43.40	41.12	38.61	35.35	32.98	30.71	28.57	26.06	25.06	21.84	20.89	19.24	16.95	15.38	14.23	13.17	13.68	15.62	13.98	9.670	6.972	5.903	5.490	4.882	4.351	4.335	3.686	3.181	3.141	2.919	4.707	15.99	49.86	114.9	325.6	207.8	13.96	1.023	0.885	0.652	0.657	0.589	0.558	0.578	0.621	0.536	0.522	0.531
540.0	71.16	78.29	74.73	87.05	109.0	189.5	146.3	110.0	149.0	742.4	1407	177.0	89.14	77.60	68.65	61.33	53.77	49.35	45.77	43.89	41.67	39.60	39.69	38.91	37.28	37.79	36.92	36.98	38.41	37.54	36.85	33.79	31.58	29.73	27.83	25.92	23.16	21.83	19.72	17.82	17.22	15.65	14.06	12.92	11.26	11.24	12.55	14.06	10.39	7.116	5.611	4.982	4.326	4.071	3.963	3.959	3.265	2.628	2.430	2.839	5.114	12.49	27.41	135.1	356.2	156.7	6.743	0.791	0.695	0.604	0.562	0.533	0.588	0.608	0.543	0.526	0.494
545.0	61.52	60.39	75.24	80.05	87.69	147.6	166.9	105.0	109.4	297.6	1545	441.2	81.65	71.11	59.64	53.95	47.74	44.34	41.44	38.61	37.83	35.99	35.75	34.71	33.13	33.82	32.54	32.40	33.54	33.23	32.51	30.30	27.68	25.89	23.96	22.30	20.54	19.52	17.72	16.52	14.77	14.17	12.55	11.64	10.20	10.11	9.746	11.77	10.88	7.926	5.796	4.700	4.165	3.855	3.785	3.629	3.267	2.713	2.377	2.432	2.590	4.114	7.262	32.91	175.4	329.7	32.87	2.923	0.591	0.573	0.462	0.523	0.538	0.560	0.511	0.524	0.483
550.0	56.59	59.04	65.72	68.63	69.20	94.13	169.6	112.0	87.73	135.1	808.2	1167	130.4	59.28	50.70	44.44	40.14	36.92	34.90	32.32	31.67	29.80	29.75	28.23	27.59	27.44	26.80	27.07	27.17	27.04	26.49	24.97	23.23	21.57	20.06	18.80	17.38	16.23	15.02	13.94	12.60	11.80	10.90	9.920	8.818	8.606	7.882	8.356	9.391	8.532	5.997	4.289	3.754	3.379	3.381	3.085	3.121	2.778	2.264	2.019	1.825	2.166	2.770	8.397	42.24	143.0	204.9	119.2	11.13	0.779	0.461	0.475	0.501	0.495	0.495	0.479	0.406
555.0	47.35	55.12	55.82	55.62	56.17	62.50	123.1	134.8	78.14	83.17	250.5	1256	522.6	52.22	41.39	36.39	33.34	29.63	27.67	26.20	25.60	23.92	23.48	23.31	22.41	22.11	21.57	21.73	22.50	22.17	21.12	20.08	19.21	17.85	16.14	15.15	14.41	13.30	12.26	11.74	10.56	9.854	9.002	8.279	7.483	7.392	6.437	6.295	6.492	7.597	6.416	4.356	3.266	3.034	2.790	2.496	2.643	2.415	2.258	1.770	1.557	1.582	1.675	2.776	10.24	32.71	65.10	202.4	157.2	13.74	0.597	0.553	0.536	0.369	0.387	0.489	0.380
560.0	47.55	50.91	48.88	47.86	49.76	49.00	82.35	147.7	77.07	68.40	104.2	701.2	1082	84.57	33.81	31.27	28.42	25.46	23.24	21.79	21.44	20.02	19.40	18.65	18.46	18.67	17.72	18.33	18.47	18.86	17.93	16.85	16.31	14.80	13.64	12.83	12.04	10.95	10.18	9.679	8.986	8.614	7.817	7.028	6.459	5.929	5.816	5.275	4.963	5.933	6.464	4.559	3.141	2.721	2.448	2.135	2.293	2.092	2.277	1.993	1.477	1.347	1.149	1.396	3.079	8.031	15.37	75.78	214.7	112.8	6.238	0.497	0.426	0.419	0.378	0.424	0.362
565.0	49.52	50.54	41.90	46.06	44.17	42.24	58.28	137.0	90.11	60.57	66.85	261.1	1300	162.6	30.16	26.79	23.95	21.92	19.69	19.00	18.18	17.54	16.91	15.71	16.42	15.34	15.41	15.05	15.52	15.82	15.13	14.51	13.85	12.15	11.47	11.28	10.31	9.094	8.665	8.349	7.676	7.329	6.802	6.289	5.896	5.003	4.912	4.542	3.935	4.213	5.104	4.773	3.402	2.532	2.391	1.991	2.006	1.740	1.845	2.152	1.552	1.348	0.965	1.100	1.496	2.585	4.008	18.08	91.66	194.0	33.37	2.740	0.446	0.381	0.465	0.315	0.320
570.0	49.64	52.82	51.22	40.63	39.73	37.22	43.08	87.42	121.4	65.27	61.72	109.9	723.1	829.8	66.96	22.57	19.85	17.89	16.47	15.93	14.69	14.43	13.51	13.25	12.76	12.31	12.38	12.12	12.70	12.67	12.23	11.65	11.00	10.16	9.617	9.001	8.334	7.739	7.319	6.821	6.127	5.980	5.543	5.086	4.711	4.422	3.873	3.600	3.347	3.186	3.571	4.166	3.700	2.584	2.085	1.581	1.673	1.506	1.459	1.649	1.755	1.393	1.108	0.912	1.003	1.257	1.514	4.657	21.73	74.80	122.0	79.85	10.97	0.547	0.388	0.307	0.368
575.0	64.22	61.13	56.35	40.81	33.76	33.89	38.02	55.40	127.2	92.17	71.23	83.95	231.0	995.5	348.1	19.91	15.92	14.11	13.38	12.57	11.95	11.72	11.32	10.42	10.17	10.12	9.559	9.857	10.05	10.02	9.959	9.207	8.692	8.091	7.286	7.247	6.534	6.130	5.857	5.479	4.910	4.960	4.241	4.061	4.064	3.731	3.194	3.141	2.699	2.603	2.454	2.984	3.290	2.725	2.023	1.575	1.328	1.379	1.308	1.270	1.347	1.554	1.169	0.884	0.918	0.938	0.995	1.629	5.439	17.21	34.12	106.5	106.1	13.65	0.479	0.352	0.326
580.0	66.26	62.55	57.60	40.10	32.18	30.91	35.55	46.07	106.6	121.4	80.69	83.10	110.1	573.1	776.7	35.64	14.40	12.50	11.23	10.48	10.02	9.643	9.559	8.684	8.401	7.937	8.273	8.446	8.407	8.059	8.661	7.795	7.365	6.938	6.123	5.975	5.614	5.203	4.992	4.711	4.285	4.054	3.892	3.294	3.227	3.213	2.664	2.769	2.371	2.141	1.979	2.169	2.697	3.182	2.112	1.506	1.294	1.396	1.138	1.062	1.060	1.429	1.431	0.951	1.056	0.757	0.879	0.965	1.905	4.388	8.159	35.74	119.3	83.81	6.556	0.314	0.371
585.0	68.48	73.65	68.01	44.78	30.88	29.75	33.33	41.50	74.81	146.1	97.02	92.31	84.95	215.5	966.7	103.3	12.90	10.55	10.09	8.802	8.546	8.275	8.334	7.557	6.799	7.115	6.932	7.024	7.330	6.899	7.109	6.827	6.095	5.615	5.446	5.313	4.954	4.834	4.316	4.379	3.576	3.379	3.311	3.001	2.699	2.722	2.449	2.494	2.177	1.872	1.690	1.695	2.039	2.730	2.278	1.600	1.185	1.211	1.062	0.998	1.005	1.057	1.499	1.213	1.045	0.717	0.808	0.772	1.007	1.565	2.385	8.568	44.31	117.0	33.83	2.961	0.304
590.0	84.17	77.83	66.61	45.72	30.86	28.06	30.14	38.69	61.22	135.1	131.3	104.3	85.93	89.22	524.9	537.7	30.72	8.634	8.089	7.676	7.218	6.609	6.636	6.214	6.167	5.806	5.661	5.811	5.884	5.865	5.790	5.369	5.214	4.647	4.533	4.421	4.058	3.913	3.600	3.467	3.110	2.896	2.736	2.682	2.359	2.236	2.244	2.042	1.843	1.561	1.521	1.368	1.488	1.857	2.079	1.715	1.251	1.037	0.918	0.980	0.937	0.864	1.157	1.376	1.173	0.844	0.796	0.756	0.865	0.906	1.074	2.333	10.55	39.30	71.74	55.90	11.08
595.0	84.72	84.44	67.85	44.60	29.70	24.29	29.43	37.33	53.79	103.0	159.5	116.5	90.17	59.95	145.0	665.2	188.2	7.554	6.447	6.383	5.644	5.183	5.282	5.264	4.855	4.434	4.342	4.862	4.747	4.544	4.696	4.369	4.083	3.912	3.561	3.638	3.417	3.120	3.077	2.745	2.549	2.421	2.355	2.113	1.881	1.978	1.736	1.647	1.554	1.426	1.131	1.179	1.126	1.188	1.512	1.641	1.385	0.965	0.747	0.880	0.825	0.800	0.819	1.097	1.217	1.084	0.802	0.767	0.832	0.745	0.794	1.003	2.674	9.077	18.18	54.86	70.85
600.0	87.80	85.05	71.59	40.66	29.40	26.56	27.85	36.62	54.19	87.00	160.5	130.4	93.15	55.35	49.39	388.3	457.1	15.67	5.366	5.650	5.038	4.689	4.165	4.171	3.911	3.974	3.868	3.940	3.896	3.838	3.717	3.665	3.509	3.375	3.035	2.991	2.838	2.728	2.349	2.179	2.103	2.186	1.997	1.737	1.653	1.808	1.514	1.474	1.306	1.132	1.022	0.951	0.968	0.876	1.171	1.524	1.509	1.136	0.739	0.753	0.771	0.740	0.821	0.781	1.062	1.228	0.963	0.806	0.730	0.685	0.753	0.680	0.959	2.343	4.367	16.39	64.84
605.0	80.97	78.64	67.10	41.91	30.32	25.71	27.30	36.70	50.66	79.70	141.4	147.3	94.78	53.23	27.29	135.7	609.7	65.21	5.175	4.765	4.112	3.738	3.820	3.426	3.223	3.608	3.465	3.493	3.351	3.146	3.163	3.103	2.858	2.793	2.729	2.498	2.544	2.263	2.151	1.947	2.054	1.942	1.564	1.591	1.519	1.425	1.403	1.357	1.118	1.035	0.927	0.843	0.791	0.750	0.824	1.163	1.408	1.266	0.770	0.765	0.725	0.764	0.769	0.838	0.853	1.177	1.184	0.840	0.763	0.699	0.608	0.588	0.607	0.837	1.274	4.005	21.56
610.0	69.41	82.33	70.28	44.27	27.17	25.13	26.71	34.83	46.54	74.63	115.1	158.0	99.04	52.13	22.07	39.75	357.5	335.5	14.01	3.862	3.499	3.341	3.236	2.946	2.789	2.754	2.945	2.745	2.882	2.598	2.761	2.565	2.485	2.309	2.185	2.057	2.030	1.927	1.801	1.708	1.710	1.499	1.379	1.257	1.339	1.226	1.167	1.145	1.041	0.871	0.804	0.770	0.668	0.652	0.686	0.792	1.049	1.071	0.970	0.704	0.642	0.659	0.689	0.727	0.758	0.859	1.126	1.082	0.871	0.716	0.630	0.507	0.456	0.527	0.498	1.146	5.192
615.0	68.28	75.38	62.80	41.83	25.35	23.43	23.43	32.39	45.55	69.68	97.89	139.7	109.3	51.71	20.78	16.95	96.49	453.9	73.17	3.588	3.027	2.917	2.684	2.385	2.420	2.425	2.258	2.023	2.098	2.174	2.077	1.938	1.973	1.955	1.693	1.763	1.690	1.613	1.284	1.282	1.407	1.142	1.154	1.124	1.184	0.981	0.909	0.978	0.827	0.701	0.657	0.662	0.554	0.596	0.555	0.579	0.719	0.933	0.945	0.777	0.729	0.492	0.580	0.663	0.663	0.707	0.813	0.967	0.829	0.842	0.509	0.476	0.412	0.378	0.372	0.485	1.445
620.0	69.53	77.85	53.59	40.17	26.65	21.25	24.12	31.55	42.10	62.86	88.27	115.1	116.9	52.15	20.54	12.33	27.99	283.9	285.1	6.952	3.113	2.692	2.319	2.078	2.161	2.018	1.778	1.907	1.960	1.957	1.722	1.540	1.654	1.647	1.639	1.483	1.483	1.351	1.272	1.294	1.152	1.019	0.985	0.911	0.978	0.899	0.810	0.836	0.754	0.578	0.583	0.521	0.548	0.538	0.544	0.470	0.564	0.714	0.811	0.795	0.634	0.509	0.503	0.622	0.544	0.627	0.691	0.748	0.854	0.918	0.501	0.448	0.358	0.332	0.322	0.378	0.610
625.0	62.25	69.41	57.34	35.41	25.63	20.92	23.96	30.43	42.82	58.55	83.84	95.51	117.8	56.99	20.22	10.73	11.48	101.6	421.7	37.77	2.689	2.224	2.254	1.620	1.930	1.666	1.615	1.473	1.700	1.601	1.485	1.473	1.344	1.221	1.347	1.179	1.192	1.214	0.976	1.140	0.982	0.964	0.968	0.841	0.905	0.839	0.715	0.787	0.620	0.587	0.505	0.464	0.527	0.416	0.445	0.407	0.436	0.539	0.706	0.707	0.664	0.550	0.471	0.538	0.578	0.581	0.688	0.632	0.782	0.859	0.621	0.447	0.391	0.363	0.275	0.261	0.349
630.0	58.27	62.67	53.92	34.16	24.85	20.53	22.20	28.04	37.82	52.81	75.98	81.55	100.2	66.77	21.00	10.34	8.136	28.13	269.4	219.2	6.934	1.949	1.727	1.615	1.584	1.360	1.383	1.398	1.350	1.346	1.328	1.255	1.265	1.077	1.057	1.013	1.030	1.019	0.855	0.977	0.813	0.780	0.792	0.680	0.720	0.617	0.649	0.648	0.600	0.516	0.458	0.423	0.451	0.385	0.381	0.379	0.424	0.434	0.511	0.618	0.643	0.571	0.528	0.428	0.600	0.613	0.545	0.554	0.648	0.678	0.648	0.437	0.339	0.323	0.283	0.251	0.297
635.0	49.96	62.40	44.48	34.34	26.18	19.24	20.92	26.58	35.11	46.96	66.39	71.58	77.85	72.02	24.52	10.31	7.410	10.30	75.21	333.4	51.47	1.728	1.444	1.368	1.230	1.084	1.195	1.195	1.087	1.125	1.054	1.088	0.962	0.871	0.851	0.858	0.766	0.888	0.765	0.720	0.750	0.667	0.568	0.591	0.593	0.529	0.451	0.493	0.548	0.472	0.322	0.420	0.359	0.344	0.331	0.414	0.373	0.338	0.384	0.482	0.487	0.565	0.529	0.520	0.541	0.557	0.468	0.494	0.575	0.585	0.627	0.618	0.501	0.295	0.298	0.306	0.266
640.0	49.76	63.33	44.80	31.98	21.12	17.71	19.27	27.06	32.20	43.18	62.14	64.27	63.29	64.70	31.67	11.32	7.186	6.007	20.80	233.0	183.5	3.398	1.474	1.160	1.128	1.053	1.133	1.172	0.995	0.990	1.022	1.014	0.821	0.877	0.855	0.761	0.795	0.804	0.688	0.701	0.707	0.698	0.516	0.511	0.465	0.525	0.460	0.470	0.505	0.409	0.312	0.360	0.311	0.364	0.286	0.368	0.302	0.327	0.276	0.403	0.534	0.553	0.479	0.452	0.493	0.478	0.454	0.503	0.535	0.528	0.481	0.551	0.508	0.399	0.280	0.345	0.225
645.0	47.40	51.95	48.23	35.96	20.87	18.33	19.88	24.42	29.93	38.77	54.99	61.72	57.02	53.52	39.44	11.43	7.272	5.268	7.360	94.06	296.4	19.70	1.475	1.241	1.004	1.113	0.987	1.071	0.847	0.866	0.811	0.945	0.761	0.729	0.771	0.652	0.743	0.668	0.637	0.650	0.543	0.582	0.485	0.457	0.355	0.496	0.406	0.409	0.479	0.394	0.273	0.319	0.322	0.280	0.294	0.343	0.351	0.308	0.295	0.376	0.417	0.552	0.597	0.455	0.419	0.468	0.461	0.446	0.495	0.427	0.383	0.430	0.503	0.556	0.276	0.280	0.252
650.0	44.57	54.39	48.48	33.01	20.53	18.38	19.16	22.32	27.55	36.65	50.11	56.71	53.28	42.84	43.26	14.72	7.800	5.236	4.537	26.94	271.7	63.73	1.586	1.095	0.877	0.893	0.975	0.883	0.780	0.713	0.828	0.711	0.729	0.702	0.604	0.635	0.644	0.666	0.500	0.670	0.488	0.443	0.504	0.441	0.390	0.425	0.432	0.435	0.430	0.389	0.305	0.331	0.269	0.280	0.335	0.318	0.318	0.343	0.341	0.328	0.359	0.479	0.561	0.414	0.387	0.476	0.424	0.421	0.467	0.404	0.325	0.378	0.405	0.525	0.312	0.271	0.213
