Sample:	'1
File name:	H2025090803¥Û÷Ï≤‹ÀÆŒƒ’æ.FD3
Run date:	'10:47:22, 09/10/2025
Operator:	Administrator
Comment:	'

Instrument
Model:	F-2700 FL Spectrophotometer
Serial number:	23C7-003
ROM Version:	4J14000 07

Instrument parameters
Measurement type:	3-D scan
Data mode:	Fluorescence
EX  Start WL:	220.0 nm
EX  End WL:	600.0 nm
EX Sampling interval:	5.0 nm
EM  Start WL:	230.0 nm
EM  End WL:	650.0 nm
EM Sampling interval:	5.0 nm
Scan speed:	12000 nm/min
EX Slit:	5.0 nm
EM Slit:	5.0 nm
PMT Voltage:	700 V
Response:	Auto 
Corrected spectra:	Off
Contour interval:	50.000

Peak integration
Integration method:	Rectangular
Sensitivity:	1
Threshold:	1.000

Peaks
No.	ApexEX/EM(nm)	Height(Data)
1	225.0/640.0	27.67
2	230.0/345.0	496.4
3	230.0/595.0	34.95
4	230.0/610.0	30.96
5	235.0/505.0	224.3
6	240.0/520.0	191.7
7	245.0/395.0	621.1
8	245.0/535.0	159.2
9	250.0/415.0	625.4
10	250.0/545.0	130.5
11	255.0/280.0	367.2
12	255.0/560.0	114.8
13	260.0/570.0	95.03
14	265.0/585.0	90.04
15	270.0/300.0	968.4
16	270.0/400.0	602.6
17	270.0/600.0	89.01
18	275.0/305.0	1150
19	275.0/390.0	595.2
20	275.0/610.0	83.84
21	280.0/310.0	1044
22	280.0/620.0	70.16
23	285.0/635.0	45.69
24	300.0/335.0	447.5
25	305.0/345.0	412.1
26	310.0/350.0	376.2
27	315.0/355.0	384.6
28	320.0/360.0	397.2
29	325.0/370.0	388.6
30	330.0/375.0	377.7
31	335.0/380.0	375.1
32	505.0/275.0	1.959
33	510.0/280.0	2.266
34	520.0/285.0	2.388
35	545.0/300.0	4.985
36	550.0/305.0	5.501
37	560.0/310.0	5.403
38	570.0/315.0	5.281
39	575.0/290.0	51.35
40	575.0/320.0	4.762
41	580.0/325.0	4.107

Data points
	220.0	225.0	230.0	235.0	240.0	245.0	250.0	255.0	260.0	265.0	270.0	275.0	280.0	285.0	290.0	295.0	300.0	305.0	310.0	315.0	320.0	325.0	330.0	335.0	340.0	345.0	350.0	355.0	360.0	365.0	370.0	375.0	380.0	385.0	390.0	395.0	400.0	405.0	410.0	415.0	420.0	425.0	430.0	435.0	440.0	445.0	450.0	455.0	460.0	465.0	470.0	475.0	480.0	485.0	490.0	495.0	500.0	505.0	510.0	515.0	520.0	525.0	530.0	535.0	540.0	545.0	550.0	555.0	560.0	565.0	570.0	575.0	580.0	585.0	590.0	595.0	600.0
230.0	22.12	522.1	1984	935.3	43.52	5.102	4.120	3.338	3.257	2.940	2.964	2.886	2.640	2.168	1.904	1.747	1.371	1.241	1.258	1.142	0.939	0.900	0.856	0.833	0.701	0.774	0.578	0.624	0.616	0.512	0.509	0.502	0.420	0.396	0.390	0.351	0.348	0.348	0.293	0.291	0.275	0.306	0.355	0.281	0.250	0.213	0.656	3.274	7.476	6.958	2.894	0.625	0.272	0.176	0.214	0.185	0.191	0.192	0.166	0.184	0.197	0.187	0.201	0.197	0.189	0.185	0.168	0.183	0.195	0.200	0.173	0.176	0.173	0.191	0.215	0.167	0.196
235.0	49.50	145.6	1001	2363	1265	78.29	5.663	4.635	4.047	3.089	3.318	2.760	2.425	1.997	1.997	1.698	1.532	1.289	1.236	1.118	1.011	0.877	0.827	0.738	0.798	0.699	0.727	0.594	0.585	0.438	0.453	0.484	0.407	0.309	0.368	0.348	0.299	0.311	0.282	0.307	0.276	0.273	0.313	0.311	0.376	0.329	0.354	0.918	2.567	5.426	8.238	9.683	5.502	1.356	0.227	0.219	0.177	0.151	0.203	0.145	0.190	0.187	0.184	0.216	0.125	0.205	0.191	0.225	0.196	0.169	0.174	0.192	0.140	0.190	0.185	0.184	0.170
240.0	76.09	95.54	269.7	1566	3015	392.0	35.13	4.943	3.859	3.201	3.576	2.928	2.335	2.304	2.258	1.831	1.531	1.368	1.112	1.018	0.969	0.877	0.934	0.918	0.822	0.759	0.731	0.687	0.626	0.525	0.520	0.483	0.508	0.344	0.393	0.340	0.370	0.315	0.319	0.322	0.289	0.309	0.283	0.270	0.395	0.479	0.524	0.424	0.764	1.576	3.987	10.08	14.62	10.67	4.098	0.674	0.183	0.185	0.202	0.185	0.248	0.169	0.187	0.172	0.191	0.194	0.209	0.239	0.189	0.184	0.238	0.159	0.190	0.222	0.177	0.167	0.151
245.0	50.77	121.7	111.5	452.9	2364	2937	308.4	14.08	5.382	4.455	4.007	3.382	2.685	2.181	2.235	1.960	1.547	1.515	1.147	1.241	0.882	1.146	0.826	0.909	0.862	0.664	0.784	0.636	0.626	0.504	0.471	0.473	0.456	0.368	0.360	0.358	0.288	0.397	0.325	0.324	0.278	0.289	0.279	0.202	0.326	0.395	0.534	0.585	0.471	0.487	1.048	3.260	9.327	15.93	16.97	9.615	2.585	0.358	0.197	0.242	0.221	0.235	0.244	0.183	0.160	0.207	0.187	0.297	0.180	0.188	0.213	0.203	0.194	0.228	0.205	0.189	0.224
250.0	22.73	72.56	144.5	173.0	662.3	2231	3135	1127	84.68	6.682	5.018	3.747	3.763	2.971	2.468	2.052	1.591	1.541	1.385	1.279	1.218	1.044	0.995	1.010	0.853	0.814	0.801	0.785	0.691	0.522	0.530	0.500	0.450	0.370	0.383	0.325	0.346	0.348	0.337	0.289	0.260	0.261	0.302	0.241	0.237	0.317	0.349	0.543	0.728	0.665	0.594	0.977	2.352	5.107	9.663	14.41	18.28	15.26	8.714	2.614	0.403	0.258	0.247	0.233	0.212	0.241	0.211	0.195	0.212	0.203	0.206	0.204	0.182	0.197	0.178	0.259	0.222
255.0	18.25	26.82	82.10	210.6	226.1	529.5	1868	4991	1696	100.4	7.526	5.813	4.061	3.515	2.950	2.215	1.922	1.532	1.469	1.372	1.180	1.067	1.165	0.979	0.830	0.995	0.732	0.718	0.751	0.555	0.631	0.496	0.402	0.399	0.352	0.349	0.311	0.364	0.290	0.272	0.303	0.319	0.350	0.268	0.248	0.306	0.240	0.341	0.382	0.563	0.875	1.034	0.976	1.341	2.445	3.568	6.715	16.10	26.36	23.93	13.41	2.685	0.312	0.222	0.188	0.272	0.211	0.240	0.222	0.226	0.210	0.215	0.184	0.189	0.188	0.209	0.192
260.0	15.91	15.53	28.71	143.9	219.4	166.0	488.8	3174	5979	1336	59.11	8.300	5.497	3.922	2.864	2.304	2.156	1.920	1.577	1.480	1.370	1.218	1.052	1.167	0.953	0.990	0.695	0.817	0.756	0.597	0.641	0.495	0.450	0.407	0.365	0.323	0.328	0.310	0.335	0.344	0.247	0.267	0.300	0.226	0.283	0.311	0.219	0.243	0.222	0.257	0.492	1.095	1.277	0.873	0.845	1.060	1.759	4.441	12.21	26.68	36.33	21.99	8.789	1.181	0.277	0.259	0.332	0.232	0.244	0.230	0.183	0.249	0.221	0.195	0.209	0.180	0.156
265.0	17.62	17.75	14.14	54.37	207.1	193.5	137.9	895.8	4721	6480	1002	22.57	7.076	5.069	3.511	2.724	2.449	2.098	1.876	1.522	1.297	1.304	1.233	1.033	1.169	0.911	0.891	0.863	0.741	0.667	0.677	0.531	0.541	0.460	0.450	0.404	0.395	0.335	0.234	0.271	0.316	0.254	0.252	0.228	0.273	0.278	0.252	0.200	0.237	0.265	0.249	0.545	0.968	1.466	1.121	0.597	0.601	1.248	3.030	8.037	21.35	37.83	28.09	18.90	5.146	0.414	0.238	0.247	0.208	0.266	0.215	0.239	0.207	0.188	0.230	0.271	0.238
270.0	19.79	18.12	13.78	21.65	82.27	219.5	196.0	239.5	1309	4770	7140	2633	59.54	7.533	4.873	3.585	2.917	2.396	2.127	1.569	1.494	1.318	1.247	1.028	1.123	0.970	0.898	0.824	0.739	0.720	0.676	0.624	0.550	0.488	0.435	0.349	0.397	0.331	0.332	0.312	0.371	0.319	0.312	0.322	0.279	0.290	0.249	0.283	0.247	0.234	0.207	0.302	0.452	0.801	1.059	1.381	1.147	0.803	0.956	2.081	5.260	11.68	19.73	33.74	35.40	31.77	11.83	4.022	0.497	0.272	0.247	0.232	0.236	0.216	0.280	0.237	0.275
275.0	40.83	25.59	22.38	16.77	30.34	84.73	277.1	245.8	338.3	1142	4004	9999.9	3591	69.83	7.876	4.878	3.966	2.779	2.257	1.884	1.713	1.554	1.392	1.266	1.087	0.972	0.871	0.902	0.898	0.801	0.767	0.715	0.649	0.522	0.567	0.471	0.458	0.417	0.395	0.293	0.329	0.372	0.304	0.349	0.362	0.286	0.348	0.340	0.283	0.223	0.241	0.250	0.292	0.369	0.441	0.732	1.544	1.959	1.300	0.934	1.519	2.996	4.754	8.145	13.89	32.13	55.14	27.95	17.74	3.543	0.343	0.220	0.324	0.272	0.286	0.240	0.291
280.0	62.54	48.33	41.74	27.45	23.45	39.79	155.0	367.2	214.3	312.5	1079	6594	9162	847.8	37.66	7.023	4.804	3.350	2.872	2.134	1.780	1.723	1.530	1.343	1.134	1.181	0.902	0.932	0.953	0.788	0.651	0.655	0.624	0.566	0.502	0.526	0.481	0.448	0.451	0.316	0.353	0.438	0.411	0.423	0.387	0.310	0.402	0.395	0.361	0.239	0.294	0.238	0.279	0.308	0.297	0.458	0.779	1.451	2.266	1.875	1.073	1.067	1.430	2.213	3.672	8.821	24.03	48.10	69.04	26.38	11.18	1.186	0.319	0.266	0.251	0.225	0.257
285.0	80.21	82.32	71.27	45.89	31.77	33.85	73.43	286.3	377.0	192.6	353.1	1915	8554	7104	578.3	15.56	6.182	3.952	3.488	2.524	2.088	1.817	1.670	1.471	1.307	1.129	1.011	0.988	0.977	0.964	0.747	0.705	0.592	0.535	0.608	0.508	0.493	0.510	0.460	0.424	0.419	0.395	0.406	0.437	0.398	0.411	0.511	0.486	0.466	0.371	0.327	0.308	0.296	0.310	0.333	0.361	0.497	0.715	1.367	2.309	2.388	1.368	0.978	1.097	1.479	2.604	6.141	14.60	38.62	67.39	69.66	21.24	5.202	0.667	0.334	0.312	0.342
290.0	135.1	165.4	147.0	95.36	57.33	50.71	70.07	151.9	383.2	472.7	348.7	676.0	2502	6905	7934	1972	35.54	6.800	4.363	3.456	2.545	2.163	1.915	1.650	1.483	1.236	1.120	1.097	1.028	0.909	0.803	0.860	0.673	0.574	0.580	0.649	0.619	0.566	0.528	0.509	0.404	0.440	0.498	0.514	0.495	0.631	0.666	0.707	0.696	0.550	0.453	0.423	0.396	0.404	0.383	0.413	0.475	0.556	0.722	1.206	2.078	2.637	2.593	2.183	1.680	1.849	2.543	4.395	10.02	20.36	37.45	51.35	45.05	46.91	13.22	4.789	0.585
295.0	188.9	259.1	251.4	151.0	94.12	77.19	93.35	148.4	266.7	579.3	755.7	606.2	918.6	1791	4768	9999.9	2733	41.59	6.882	4.519	3.354	2.681	2.261	1.850	1.690	1.339	1.200	1.247	1.141	0.962	0.935	0.856	0.790	0.637	0.713	0.575	0.702	0.612	0.637	0.513	0.502	0.546	0.595	0.608	0.673	0.887	0.810	0.992	0.942	0.795	0.644	0.607	0.563	0.435	0.482	0.511	0.620	0.603	0.688	0.957	1.288	1.817	2.470	3.765	3.929	2.826	2.318	2.767	4.162	6.097	9.759	12.75	16.15	43.83	77.87	75.72	20.66
300.0	241.7	324.9	302.3	186.1	113.7	101.4	123.0	166.2	261.7	489.8	968.4	833.6	670.7	667.3	1284	6944	9999.9	496.2	24.06	6.015	4.257	3.045	2.559	2.254	1.791	1.481	1.300	1.258	1.042	0.971	0.879	0.742	0.854	0.766	0.612	0.711	0.745	0.747	0.656	0.517	0.614	0.525	0.562	0.745	0.754	0.919	0.960	1.135	1.135	0.901	0.755	0.734	0.662	0.590	0.662	0.559	0.680	0.788	0.927	1.104	1.284	1.674	2.015	3.099	4.630	4.985	4.055	3.054	3.139	3.403	4.012	4.081	4.588	11.39	29.92	70.82	95.52
305.0	276.4	366.6	348.7	227.2	134.1	119.8	143.2	199.5	295.3	472.9	853.5	1150	756.8	473.8	428.6	1899	8917	8496	357.1	11.53	5.685	3.822	2.783	2.413	2.033	1.697	1.381	1.258	1.242	1.186	1.087	0.955	0.835	0.678	0.623	0.762	0.757	0.759	0.559	0.554	0.546	0.626	0.638	0.770	0.780	1.009	1.098	1.172	1.211	0.940	0.785	0.797	0.712	0.709	0.632	0.690	0.769	0.950	1.007	1.160	1.299	1.774	1.917	2.481	3.817	4.897	5.501	4.793	3.551	3.105	2.898	2.265	2.128	3.372	7.338	19.15	46.51
310.0	277.5	382.6	368.6	240.5	152.7	134.0	165.3	223.1	321.4	488.4	724.6	1027	1044	553.0	277.4	518.7	2372	6809	6582	1491	25.26	5.617	3.751	2.898	2.495	1.989	1.617	1.450	1.286	1.218	1.124	1.068	0.877	0.768	0.785	0.829	0.742	0.711	0.609	0.608	0.581	0.655	0.642	0.709	0.854	1.023	1.157	1.292	1.296	1.071	0.776	0.878	0.778	0.776	0.720	0.791	0.800	1.063	1.157	1.279	1.558	1.948	1.990	2.504	3.275	3.653	4.465	5.120	5.403	4.624	3.415	2.361	1.763	1.803	2.390	5.012	11.22
315.0	278.3	396.8	379.3	261.9	161.7	149.4	174.0	230.3	330.7	484.6	665.6	819.0	920.7	811.4	328.9	235.4	604.5	1593	4079	9526	2128	28.96	5.846	4.046	2.744	2.322	1.902	1.634	1.341	1.298	1.095	0.968	0.891	0.830	0.861	0.832	0.712	0.722	0.624	0.643	0.576	0.661	0.760	0.760	0.856	1.005	1.150	1.342	1.340	1.115	0.811	0.856	0.811	0.742	0.816	0.876	1.002	1.005	1.157	1.390	1.495	1.842	2.216	2.523	2.979	3.179	3.770	3.709	4.358	4.967	5.281	3.800	2.225	1.761	1.405	1.945	3.291
320.0	272.0	394.0	394.6	263.4	170.5	157.9	187.7	239.6	332.1	468.2	636.5	748.4	762.7	798.9	519.0	209.5	227.2	415.9	1032	6040	8833	368.6	17.50	5.256	3.490	2.667	2.048	1.777	1.452	1.277	1.132	1.079	0.966	0.860	0.896	0.758	0.830	0.750	0.623	0.699	0.578	0.579	0.682	0.834	0.932	1.055	1.245	1.383	1.418	1.213	0.947	0.903	0.793	0.812	0.792	0.874	1.108	1.094	1.183	1.421	1.594	1.806	2.261	2.430	2.895	3.262	3.399	3.389	3.811	3.986	4.169	4.762	3.761	2.350	1.458	1.340	1.601
325.0	275.0	403.8	420.7	292.7	190.3	168.2	196.6	243.6	326.6	457.6	619.1	707.9	701.7	628.0	643.1	317.9	164.2	165.4	277.0	1603	7303	6966	280.3	9.517	4.512	3.457	2.417	2.059	1.499	1.425	1.172	1.244	0.931	0.919	0.830	0.784	0.741	0.689	0.686	0.671	0.646	0.564	0.749	0.710	0.901	1.103	1.252	1.448	1.515	1.271	1.041	0.973	0.816	0.833	0.898	0.881	1.004	1.245	1.254	1.332	1.585	1.819	2.103	2.300	2.881	2.959	3.156	3.336	3.425	3.415	3.150	3.514	4.107	3.937	2.445	1.409	1.263
330.0	270.2	415.6	457.8	327.7	228.3	191.1	210.0	255.4	330.5	437.6	577.1	668.0	659.9	547.0	495.1	479.3	278.7	141.5	127.4	406.1	1918	5495	5392	1288	21.52	4.786	3.260	2.512	1.857	1.807	1.389	1.220	0.971	0.965	0.859	0.813	0.670	0.660	0.667	0.663	0.640	0.634	0.809	0.798	0.878	1.098	1.349	1.508	1.664	1.426	1.196	1.109	1.031	0.964	0.963	0.985	1.063	1.156	1.231	1.449	1.587	1.828	2.078	2.194	2.798	2.997	2.960	3.103	3.148	3.135	3.001	2.988	2.812	3.267	3.415	3.226	2.461
335.0	280.5	413.3	479.2	378.8	272.5	226.2	230.1	267.1	333.0	425.4	551.1	631.4	628.5	531.3	424.5	384.8	447.5	247.5	127.0	162.0	481.3	1285	3259	8169	2002	26.98	4.668	3.337	2.619	2.013	1.651	1.429	1.143	1.177	0.826	0.768	0.765	0.686	0.659	0.664	0.623	0.591	0.793	0.798	0.868	1.193	1.365	1.585	1.654	1.506	1.260	1.266	1.300	1.064	1.083	0.998	1.018	1.212	1.320	1.431	1.702	1.816	2.077	2.102	2.588	2.674	2.857	2.932	3.167	2.988	3.107	2.810	2.510	2.578	2.572	2.873	3.353
340.0	271.7	429.3	487.0	398.9	308.9	260.3	252.6	279.6	336.5	425.0	528.8	598.6	602.0	524.8	423.5	348.8	395.7	395.7	179.2	128.0	179.0	340.3	833.2	4976	7810	337.9	17.51	4.369	3.381	2.519	1.840	1.556	1.413	1.147	0.875	0.942	0.755	0.753	0.608	0.533	0.714	0.676	0.726	0.846	0.862	1.136	1.374	1.714	1.708	1.536	1.314	1.417	1.350	1.345	1.277	1.046	1.308	1.226	1.409	1.450	1.716	1.737	2.037	2.293	2.405	2.674	2.855	2.936	2.803	3.043	3.135	2.729	2.539	2.544	2.295	2.471	2.372
345.0	266.4	413.1	496.4	420.7	337.9	290.7	279.4	300.9	346.3	421.4	507.9	574.0	583.1	526.9	439.3	359.1	326.6	412.1	304.7	154.8	133.1	148.6	239.6	1319	5974	6316	277.3	8.468	4.092	2.936	2.107	1.685	1.397	1.129	1.047	1.077	0.782	0.810	0.721	0.570	0.586	0.625	0.723	0.854	0.893	1.174	1.315	1.618	1.675	1.648	1.396	1.572	1.497	1.413	1.387	1.200	1.317	1.384	1.434	1.679	1.709	1.640	2.085	2.183	2.336	2.527	2.568	2.884	2.846	2.926	2.877	2.725	2.843	2.529	2.456	2.367	2.347
350.0	261.0	408.8	487.9	449.6	379.0	333.7	316.7	326.5	358.4	421.6	499.3	550.6	573.6	521.8	452.9	384.1	334.0	335.7	376.2	291.0	174.3	139.8	134.1	352.6	1558	4411	4367	1212	20.34	4.310	2.855	2.356	1.647	1.299	1.093	0.988	0.902	0.860	0.710	0.648	0.650	0.627	0.677	0.824	0.901	1.151	1.309	1.592	1.775	1.613	1.503	1.644	1.655	1.563	1.559	1.437	1.500	1.655	1.671	1.646	1.752	1.750	1.998	2.091	2.314	2.568	2.505	2.595	2.765	2.791	2.776	2.898	2.871	2.653	2.520	2.457	2.445
355.0	248.8	404.9	482.6	466.6	414.8	389.0	366.3	364.5	388.9	430.3	499.3	544.4	562.6	533.2	474.0	419.8	374.3	341.7	332.1	384.6	302.3	184.7	145.9	165.7	406.6	1034	2340	6485	1970	26.26	4.651	3.188	1.891	1.540	1.076	1.003	0.920	0.849	0.698	0.782	0.730	0.730	0.778	0.784	0.872	1.185	1.374	1.425	1.781	1.566	1.578	1.825	1.780	1.725	1.715	1.619	1.741	1.810	1.663	1.788	1.937	1.827	2.108	2.210	2.306	2.461	2.622	2.530	2.802	2.878	2.871	2.861	2.732	2.931	2.543	2.613	2.726
360.0	244.7	396.6	475.8	479.1	449.5	427.0	405.2	406.2	423.6	461.1	505.8	546.9	560.9	537.5	497.4	442.8	404.7	369.9	340.4	358.9	397.2	257.0	173.6	143.8	168.3	283.5	593.2	3587	6639	329.3	17.75	4.060	2.410	1.942	1.273	1.112	0.987	0.893	0.784	0.844	0.687	0.677	0.644	0.742	1.003	1.326	1.203	1.464	1.782	1.592	1.589	1.878	1.876	1.930	1.829	1.808	1.827	1.964	1.855	1.794	1.980	2.140	2.190	2.240	2.269	2.370	2.571	2.708	2.786	2.855	2.816	2.817	2.865	2.844	2.742	2.812	2.921
365.0	252.1	406.6	481.3	490.0	478.6	456.5	452.5	439.7	452.7	485.2	525.4	553.8	564.3	544.6	518.2	466.5	433.3	402.1	365.8	348.3	392.8	362.2	223.7	164.6	135.8	132.0	180.1	928.5	4543	5773	281.6	9.475	3.316	2.341	1.731	1.184	1.002	0.949	0.785	0.873	0.702	0.669	0.706	0.794	1.015	1.223	1.235	1.504	1.848	1.789	1.593	1.854	2.080	1.971	1.809	1.871	2.069	2.079	1.934	2.044	2.184	2.268	2.287	2.324	2.373	2.427	2.604	2.636	2.743	2.794	2.835	2.916	2.921	2.919	2.995	2.865	3.023
370.0	259.4	401.4	497.2	519.8	519.3	504.8	489.6	483.3	489.2	511.0	545.0	569.5	569.9	557.2	529.3	491.1	465.5	437.0	406.6	379.8	369.7	388.6	338.4	222.1	158.3	124.2	108.7	256.0	1159	3629	4930	1171	19.12	3.531	2.278	1.557	1.251	1.043	0.929	0.893	0.721	0.785	0.786	0.786	1.002	1.211	1.278	1.506	1.782	1.849	1.733	2.062	2.252	2.164	2.134	2.174	2.201	2.104	2.205	2.251	2.255	2.515	2.389	2.481	2.520	2.477	2.652	2.711	2.723	2.937	2.945	3.039	3.078	3.185	3.138	3.071	3.182
375.0	264.4	398.4	494.7	536.5	551.4	539.9	528.8	528.6	521.1	541.1	567.9	577.3	581.8	559.4	538.0	510.7	494.9	470.2	443.2	416.4	386.8	365.3	377.7	329.4	209.9	152.0	117.8	125.3	305.4	846.7	2026	5519	1915	24.53	3.384	2.154	1.638	1.307	1.061	0.979	0.795	0.717	0.729	0.897	1.065	1.224	1.293	1.485	1.814	1.834	1.717	2.167	2.271	2.375	2.456	2.146	2.571	2.308	2.265	2.368	2.513	2.611	2.490	2.536	2.558	2.564	2.573	2.746	2.827	2.947	2.811	3.077	3.005	3.206	3.306	3.150	3.286
380.0	267.8	406.0	516.3	547.6	574.9	564.1	559.9	548.4	540.5	553.3	575.9	589.1	586.2	563.9	541.4	524.1	507.7	486.4	464.5	438.0	408.6	372.1	357.9	375.1	279.0	179.8	138.3	112.3	128.7	230.8	498.6	2700	5479	1405	17.00	2.878	1.913	1.387	1.158	1.151	0.909	0.883	0.751	0.902	1.047	1.231	1.304	1.522	1.831	1.880	1.874	2.071	2.261	2.316	2.349	2.297	2.580	2.329	2.486	2.395	2.571	2.446	2.583	2.580	2.654	2.679	2.780	2.657	2.974	2.843	3.187	2.938	3.170	3.199	3.295	3.158	3.347
385.0	264.9	426.1	511.8	569.0	590.8	592.1	577.6	567.5	560.4	569.4	583.6	591.6	587.4	571.4	548.0	524.4	511.0	496.2	476.0	452.4	422.8	388.4	358.0	356.1	342.4	227.7	161.8	123.9	104.1	105.3	149.4	680.1	3234	4786	252.6	9.658	2.630	1.666	1.396	1.100	0.965	0.885	0.879	0.916	0.929	1.296	1.345	1.694	1.778	1.834	1.742	2.246	2.332	2.455	2.514	2.394	2.557	2.558	2.588	2.688	2.711	2.516	2.764	2.902	2.609	2.599	2.595	2.795	2.959	2.967	3.160	3.199	3.142	3.145	3.220	3.481	3.401
390.0	268.3	417.4	518.1	568.4	595.8	603.7	601.3	584.9	578.1	582.6	594.5	595.2	582.1	570.3	555.3	528.8	514.1	504.8	488.2	464.2	436.7	407.9	373.3	344.0	336.0	303.3	216.0	153.5	121.7	98.20	86.71	187.6	801.2	2516	3510	1057	17.14	2.876	1.820	1.354	1.152	1.044	1.009	0.987	1.053	1.262	1.232	1.689	1.787	1.798	1.809	2.225	2.333	2.569	2.560	2.525	2.545	2.615	2.701	2.717	2.762	2.710	2.714	2.750	2.619	2.785	2.682	2.780	2.767	2.969	3.096	3.085	3.094	3.215	3.187	3.474	3.676
395.0	276.0	411.9	534.6	568.3	605.8	621.1	617.6	607.2	595.0	596.8	592.2	593.0	582.7	569.9	546.4	528.0	512.6	502.8	487.6	471.8	444.6	417.9	389.5	352.3	322.5	312.6	291.3	201.8	151.2	119.7	92.02	92.09	212.8	586.6	1245	3659	1659	23.58	2.898	1.676	1.539	1.209	1.097	1.116	1.194	1.247	1.395	1.701	1.819	1.874	1.804	2.241	2.571	2.572	2.529	2.595	2.683	2.727	2.655	2.675	2.908	2.800	2.595	3.066	2.549	2.802	2.701	2.801	2.714	3.187	3.030	3.049	3.374	3.280	3.219	3.521	3.449
400.0	279.9	408.1	532.0	571.9	605.3	618.7	623.3	615.5	597.2	595.1	602.6	592.7	582.8	557.9	543.7	524.6	506.8	500.4	485.1	469.2	447.5	422.7	399.5	361.1	328.5	300.8	306.9	256.2	178.9	138.1	105.7	83.08	90.47	160.0	303.6	1560	3841	1273	16.54	2.431	1.732	1.322	1.239	1.177	1.196	1.346	1.485	1.611	1.669	1.750	1.853	2.246	2.374	2.501	2.676	2.710	2.851	2.581	2.606	2.821	2.799	2.822	2.551	2.995	2.738	2.658	2.712	2.706	2.729	3.065	2.987	3.066	3.201	3.063	3.098	3.534	3.540
405.0	266.2	414.6	523.2	573.7	601.6	615.7	624.0	618.0	602.2	599.2	596.4	580.7	581.7	552.7	538.7	513.9	498.5	494.5	479.3	468.2	446.4	424.8	401.7	368.7	336.7	303.6	290.6	289.9	220.0	159.2	121.5	91.32	71.15	71.74	92.71	382.3	1945	3566	230.4	10.66	2.286	1.584	1.383	1.146	1.458	1.414	1.356	1.748	1.661	1.861	1.784	2.294	2.240	2.510	2.494	2.482	2.647	2.831	2.671	2.768	2.654	2.786	2.594	2.857	2.671	2.727	2.775	2.715	2.552	2.997	2.966	3.031	3.209	3.128	3.285	3.532	3.453
410.0	277.3	407.2	507.7	563.1	594.4	616.1	625.2	622.4	607.6	602.6	595.5	579.0	562.4	543.6	520.6	498.4	486.5	479.0	464.0	455.3	437.9	417.2	399.4	373.5	344.8	311.7	284.2	275.8	263.7	202.5	144.8	108.3	81.07	62.21	53.37	108.1	471.1	1647	2485	981.3	16.61	2.470	1.728	1.472	1.434	1.499	1.460	1.654	1.801	1.806	1.832	2.344	2.399	2.595	2.462	2.618	2.645	2.593	2.671	2.701	2.834	2.887	2.872	2.705	2.737	2.705	2.827	2.698	2.686	2.801	2.900	2.994	3.045	3.056	3.133	3.233	3.298
415.0	260.8	398.3	513.4	560.8	585.8	610.2	625.4	620.7	605.9	603.5	588.1	575.8	553.3	535.7	506.2	479.8	462.7	457.7	448.1	431.7	420.8	410.8	391.7	370.4	343.9	317.7	289.1	264.7	256.5	250.2	182.8	127.2	96.42	69.51	53.35	53.04	125.2	381.5	795.0	2495	1516	23.15	2.512	1.856	1.516	1.547	1.529	1.727	1.758	1.795	1.746	2.406	2.338	2.421	2.418	2.386	2.595	2.659	2.754	2.641	2.644	2.810	2.801	2.679	2.799	2.572	2.752	2.728	2.682	2.796	2.771	2.726	3.103	2.953	2.919	2.985	3.144
420.0	261.9	399.1	490.7	533.9	576.9	597.6	607.3	621.8	604.7	594.5	584.5	567.2	539.6	509.7	485.0	456.8	447.5	438.1	433.0	417.6	407.6	396.8	383.6	365.8	340.4	317.0	288.9	268.7	249.1	248.5	215.4	146.3	107.2	77.41	59.42	46.05	52.01	102.1	191.7	957.9	2799	1167	16.75	2.578	1.801	1.764	1.571	1.707	1.929	1.824	1.761	2.174	2.315	2.334	2.493	2.451	2.687	2.833	2.754	2.667	2.724	2.946	2.784	2.601	2.680	2.586	2.612	2.521	2.628	2.792	2.799	2.690	2.789	2.844	2.837	2.815	3.158
425.0	270.3	374.9	485.4	524.9	561.0	590.3	593.9	596.9	598.6	589.1	580.9	556.5	528.8	497.8	470.2	443.0	431.7	420.6	413.9	401.3	394.2	384.6	372.2	358.2	339.9	313.2	290.3	266.6	247.8	232.4	227.8	174.3	117.4	87.21	66.47	48.72	39.19	43.06	57.59	231.3	1261	2675	222.8	11.07	2.275	1.846	1.692	1.787	1.861	1.814	1.698	2.074	2.343	2.326	2.396	2.481	2.757	2.706	2.802	2.703	2.502	2.916	2.689	2.619	2.582	2.532	2.605	2.631	2.337	2.464	2.572	2.859	2.788	2.620	2.678	2.990	3.060
430.0	293.0	368.7	466.4	523.9	547.9	574.5	585.1	595.9	585.2	580.7	570.0	544.3	517.7	480.0	451.1	425.7	411.1	403.4	394.6	384.5	377.0	367.8	356.8	345.3	328.7	309.6	287.5	269.6	250.1	228.0	214.3	194.6	146.0	100.5	76.63	57.02	43.46	35.14	31.30	65.01	301.1	1122	1636	912.4	15.87	2.699	1.942	1.857	1.823	1.826	1.743	2.095	2.293	2.351	2.329	2.316	2.629	2.681	2.555	2.745	2.619	2.711	2.641	2.641	2.566	2.484	2.643	2.536	2.416	2.502	2.545	2.560	2.640	2.479	2.647	2.692	2.776
435.0	472.2	360.3	444.8	507.8	529.7	553.8	566.8	581.0	586.7	567.8	558.9	538.9	507.0	464.8	431.5	410.0	390.0	382.9	375.0	364.4	359.3	350.7	342.6	334.0	319.5	301.5	284.1	268.1	250.7	229.3	205.7	185.0	170.8	124.0	87.60	65.59	52.01	39.59	31.02	32.22	80.23	260.6	513.3	2008	1421	21.96	2.666	2.181	2.055	1.870	1.769	1.918	2.136	2.267	2.408	2.295	2.521	2.578	2.662	2.668	2.679	2.565	2.728	2.553	2.532	2.430	2.533	2.598	2.488	2.346	2.474	2.457	2.546	2.436	2.468	2.568	2.749
440.0	606.2	417.4	440.2	492.3	515.8	543.6	561.5	571.5	574.5	569.4	553.3	529.2	489.4	452.8	416.5	397.4	374.1	366.8	359.5	347.9	344.3	336.4	329.9	321.0	310.3	296.1	280.7	266.0	249.5	232.3	206.3	178.3	164.8	145.0	98.78	73.34	58.13	43.96	33.52	27.81	34.02	69.69	125.5	747.4	2411	1093	15.14	2.820	2.298	1.963	1.718	2.082	2.105	2.214	2.386	2.313	2.535	2.747	2.637	2.592	2.702	2.595	2.760	2.556	2.642	2.363	2.350	2.517	2.289	2.254	2.233	2.351	2.399	2.343	2.425	2.451	2.660
445.0	628.1	645.1	430.0	477.4	513.3	521.9	546.0	557.7	567.5	559.0	537.7	517.7	477.9	436.6	399.3	379.0	359.1	352.9	341.8	337.7	326.9	319.6	318.1	308.2	298.0	287.6	273.8	262.2	244.0	229.6	205.5	177.9	154.9	148.8	117.7	80.81	62.45	47.98	37.82	29.79	25.53	29.12	38.78	180.0	1062	2420	190.9	9.892	2.574	2.012	1.935	2.140	2.080	2.360	2.181	2.431	2.357	2.560	2.713	2.404	2.531	2.512	2.818	2.490	2.446	2.310	2.421	2.392	2.241	2.364	2.086	2.260	2.351	2.217	2.235	2.509	2.465
450.0	386.5	1053	603.6	443.2	482.1	499.2	518.7	536.0	540.2	531.4	517.7	493.4	455.4	416.1	379.9	352.1	337.3	326.6	319.0	312.6	303.9	298.4	294.0	288.9	280.1	268.9	259.6	248.9	236.5	222.0	201.5	174.7	149.7	134.7	126.4	98.09	69.22	53.38	43.24	33.60	27.23	23.09	21.61	50.48	252.6	1002	1661	789.6	13.58	2.470	1.983	2.054	2.127	2.100	2.233	2.167	2.301	2.491	2.489	2.350	2.274	2.443	2.540	2.443	2.369	2.354	2.261	2.227	2.126	2.279	2.113	2.157	2.164	2.205	2.106	2.370	2.390
455.0	246.2	910.3	1223	458.9	445.5	471.4	481.2	508.1	512.3	508.8	487.4	462.8	423.2	390.5	356.1	324.7	312.7	299.8	290.0	283.5	280.0	273.6	269.6	264.8	258.5	250.8	242.3	233.2	225.3	212.0	195.0	170.9	145.8	126.0	114.8	106.7	83.01	59.03	47.50	38.14	30.61	24.25	20.23	23.80	66.02	230.4	501.2	1604	1094	16.12	2.374	2.280	2.187	2.134	2.076	2.216	2.147	2.266	2.275	2.416	2.307	2.328	2.296	2.252	2.442	2.286	2.194	2.082	2.189	2.187	2.182	2.065	2.027	2.087	1.991	2.223	2.164
460.0	206.7	544.5	1659	628.7	421.8	443.9	460.0	475.9	488.6	482.8	472.0	441.7	401.4	371.2	333.7	306.3	290.7	278.0	268.9	263.1	259.6	255.3	251.0	245.7	240.1	236.4	225.7	218.6	213.1	200.9	185.0	164.4	140.8	122.7	106.2	101.3	91.95	65.69	50.47	40.75	33.15	26.58	21.81	19.35	25.59	59.54	119.6	603.5	1801	715.8	10.84	2.542	2.267	2.186	1.987	2.055	2.149	2.167	2.013	2.330	2.190	2.305	2.329	2.167	2.241	2.223	2.157	1.991	2.003	1.937	2.039	2.069	2.081	2.106	1.890	2.097	2.059
465.0	192.9	328.5	1464	1215	410.3	410.0	435.4	452.0	462.4	463.5	449.7	423.2	384.7	347.4	318.9	285.4	273.7	262.4	250.4	245.7	241.2	234.3	236.3	227.7	225.1	218.9	213.9	206.0	199.7	192.5	176.0	159.6	136.5	120.9	103.2	91.79	90.38	73.93	53.00	42.97	34.16	28.50	23.55	19.07	17.33	22.46	33.77	144.4	835.2	1659	148.1	6.971	2.449	2.111	2.086	1.974	2.053	2.152	1.936	2.248	2.209	2.179	2.308	2.126	2.185	2.065	2.126	1.761	1.845	1.773	1.825	2.054	1.885	2.016	1.848	1.965	1.925
470.0	186.4	255.1	755.3	1828	725.1	379.2	403.0	418.8	425.6	425.7	415.6	394.8	354.8	318.9	289.8	261.5	246.4	235.9	224.5	220.6	217.0	211.4	211.0	207.9	203.1	198.4	193.9	188.8	183.7	177.7	164.7	148.8	130.2	112.3	98.53	85.78	79.55	76.42	60.26	45.18	36.05	30.13	25.02	20.89	17.13	15.62	15.80	38.96	199.0	739.6	1034	591.7	12.00	2.528	2.092	1.934	1.948	2.001	2.069	2.124	2.048	2.048	2.048	1.875	1.934	1.857	1.916	1.754	1.861	1.694	1.792	1.777	1.649	1.749	1.623	1.796	1.753
475.0	184.3	217.4	374.5	1347	1643	409.0	363.0	389.0	388.6	383.7	380.3	361.0	325.4	290.8	259.9	237.7	220.8	211.8	202.6	195.5	191.2	188.9	186.9	185.4	181.3	178.1	171.9	169.3	165.6	161.6	152.1	138.2	122.5	107.1	92.29	80.27	70.98	67.02	64.82	51.45	37.68	31.05	26.25	22.13	18.69	14.96	12.87	15.85	50.23	169.8	333.0	1116	714.6	15.64	2.538	2.086	2.028	1.883	1.948	1.954	1.733	1.912	1.936	1.723	1.831	1.724	1.560	1.785	1.584	1.647	1.575	1.637	1.448	1.483	1.516	1.751	1.682
480.0	161.1	215.5	275.9	689.6	2131	677.1	334.6	357.6	365.2	357.8	353.7	340.1	305.9	274.1	245.1	222.3	206.8	194.8	186.1	178.5	176.2	172.5	171.2	171.8	168.0	163.8	159.6	158.7	153.6	149.3	140.4	130.0	115.5	103.3	89.37	78.02	68.60	60.61	61.36	55.26	40.62	31.75	27.02	22.71	18.95	15.62	12.44	11.38	17.55	43.21	79.61	439.1	1311	184.3	9.772	2.169	2.005	1.731	1.804	1.847	1.681	1.839	1.803	1.573	1.734	1.653	1.514	1.603	1.648	1.530	1.564	1.501	1.284	1.411	1.461	1.494	1.721
485.0	149.9	216.9	245.9	364.6	1801	1314	338.5	334.4	345.4	343.5	330.0	319.9	289.9	255.4	232.8	208.9	193.6	180.9	177.0	169.3	164.3	162.3	159.3	160.9	158.0	152.8	148.4	147.6	145.1	142.3	134.4	121.9	109.8	98.58	85.80	75.57	66.06	58.50	54.81	56.35	45.63	33.72	27.38	23.14	19.65	16.94	13.63	11.16	10.98	14.85	22.29	106.0	683.4	1211	154.3	4.228	2.147	1.806	1.670	1.755	1.714	1.702	1.745	1.628	1.786	1.894	1.345	1.635	1.471	1.469	1.464	1.339	1.348	1.286	1.400	1.389	1.720
490.0	119.7	211.5	236.0	270.0	855.6	2010	624.2	311.4	319.4	318.6	312.8	295.8	269.1	237.9	216.0	193.4	177.8	167.2	162.0	155.7	153.0	148.2	145.3	145.4	143.2	139.5	136.6	136.8	134.6	130.6	124.5	113.8	103.4	91.87	80.90	72.84	64.20	56.41	50.65	49.70	48.13	38.72	28.92	24.04	20.86	17.44	14.37	12.14	9.994	9.302	10.05	28.07	164.9	595.6	1015	458.2	11.36	2.131	1.786	1.623	1.709	1.695	1.684	1.547	1.500	1.614	1.372	1.536	1.550	1.420	1.329	1.251	1.247	1.354	1.347	1.276	1.436
495.0	109.5	178.5	245.2	231.7	372.7	1497	1578	314.2	291.2	290.7	287.0	274.1	245.9	222.6	196.7	177.2	161.9	151.9	144.7	141.3	135.8	132.6	130.4	129.0	128.0	125.1	123.8	123.0	120.6	120.4	114.5	104.9	95.31	86.02	74.96	68.25	60.90	53.63	48.62	44.09	43.27	41.51	31.81	24.99	21.72	18.25	15.15	12.91	10.54	8.524	7.512	10.75	40.75	136.4	377.9	1147	609.2	13.70	2.031	1.691	1.677	1.640	1.513	1.373	1.486	1.373	1.278	1.453	1.421	1.333	1.151	1.320	1.248	1.135	1.245	1.217	1.277
500.0	95.31	162.3	238.6	216.1	255.6	750.9	2171	547.4	266.0	272.1	268.1	254.8	230.7	206.0	181.3	164.1	148.1	140.6	133.5	128.9	124.5	121.5	119.5	116.2	117.4	114.2	111.7	111.2	111.0	110.5	103.9	96.62	88.32	80.01	71.13	63.61	57.77	49.92	44.99	40.63	38.06	39.17	35.95	25.98	21.75	18.54	15.02	12.84	10.98	8.776	7.148	7.041	13.16	34.17	89.31	514.1	1220	184.1	6.400	1.718	1.664	1.647	1.551	1.356	1.347	1.278	1.392	1.310	1.331	1.277	1.065	1.131	1.134	1.182	1.285	1.141	1.344
505.0	91.40	123.1	217.6	224.3	215.6	357.1	1980	1188	256.2	253.1	246.8	236.6	213.6	192.9	167.3	150.7	137.1	128.1	121.3	116.3	113.9	109.8	109.0	106.5	105.3	102.7	102.2	102.0	101.0	100.6	96.26	90.20	82.09	74.53	64.92	59.97	53.64	47.47	42.81	38.37	35.20	34.19	35.71	28.98	21.45	18.57	14.97	12.99	10.78	9.068	7.138	6.247	6.987	11.17	23.47	125.4	701.7	1012	131.6	2.740	1.552	1.454	1.423	1.326	1.318	1.301	1.258	1.222	1.159	1.147	1.025	1.112	1.003	1.020	1.093	1.099	1.203
510.0	80.85	109.4	169.6	220.9	192.8	223.1	951.8	2086	506.5	222.8	220.1	207.6	190.2	169.9	149.2	131.8	120.2	113.9	106.3	104.2	100.4	96.73	94.88	94.60	91.53	91.01	88.65	88.97	88.84	87.93	85.54	79.53	73.13	65.91	59.05	53.37	48.63	43.78	39.91	34.92	31.83	29.42	29.65	29.50	23.36	18.31	14.86	12.57	10.70	9.163	7.638	6.452	6.006	6.147	8.456	30.98	172.4	566.0	762.3	271.3	8.989	1.577	1.385	1.265	1.229	1.194	1.178	1.109	1.058	0.974	1.035	1.059	1.052	0.970	0.926	1.001	1.049
515.0	73.18	101.0	138.9	192.8	185.8	176.2	354.0	1738	1445	221.0	195.3	183.7	167.1	149.0	129.9	114.0	106.4	98.41	92.04	88.12	86.59	83.53	82.22	80.77	78.95	78.11	76.24	75.53	76.66	74.47	74.75	68.67	62.45	57.98	52.91	47.66	42.87	39.24	35.67	31.22	28.81	25.52	24.33	25.68	24.85	19.14	14.34	12.06	10.22	8.885	7.602	6.911	5.720	4.997	5.121	9.945	40.83	129.0	315.2	810.5	188.7	8.939	1.432	1.255	1.089	1.185	1.106	0.938	1.016	0.938	0.961	0.895	0.915	0.883	0.832	0.914	0.891
520.0	64.68	91.49	111.2	156.5	191.7	153.5	204.8	902.5	2170	397.6	177.6	166.1	151.6	133.2	117.0	103.5	96.04	88.58	83.83	79.61	76.83	73.96	72.37	71.18	69.90	70.34	67.80	68.06	67.57	68.23	66.06	62.51	56.56	51.89	47.28	43.26	38.51	35.46	32.27	29.02	26.42	24.08	21.86	21.62	23.65	20.50	14.67	11.78	9.960	8.464	7.298	6.918	5.956	4.629	4.523	4.976	11.78	31.09	75.11	416.3	754.3	144.2	3.079	1.275	1.049	1.103	1.049	0.958	0.870	0.942	0.877	0.839	0.811	0.761	0.722	0.839	0.819
525.0	56.99	80.85	97.71	126.0	188.0	153.0	153.4	369.4	2139	946.3	167.2	153.1	138.1	120.5	105.7	93.46	86.27	81.42	75.70	72.00	68.38	67.31	65.51	64.69	62.50	61.89	61.78	60.41	61.73	60.62	59.86	55.45	50.94	47.48	44.46	39.17	35.82	32.92	29.45	27.55	24.82	22.31	20.37	18.88	19.84	20.50	15.57	11.49	9.568	8.239	7.037	6.152	5.593	5.163	4.366	3.961	5.058	9.223	18.89	104.3	504.8	632.4	24.80	1.647	1.112	1.097	0.926	0.919	0.880	0.860	0.843	0.846	0.782	0.710	0.707	0.814	0.679
530.0	51.06	70.26	91.88	106.5	155.8	157.1	132.7	185.4	1051	1926	356.8	133.1	121.3	105.8	91.78	82.61	75.17	70.54	65.37	62.33	60.52	58.59	56.45	55.92	55.64	53.89	53.21	52.46	53.44	53.00	51.66	48.59	45.19	41.85	38.51	34.63	31.26	28.87	25.96	24.36	22.38	20.16	18.29	16.80	16.19	17.07	16.27	12.20	9.230	7.772	7.000	5.872	5.351	5.243	4.402	3.762	3.659	4.263	6.074	25.31	126.9	393.0	484.7	107.6	6.451	1.078	0.890	0.843	0.839	0.787	0.794	0.786	0.733	0.733	0.640	0.650	0.639
535.0	39.77	61.81	84.28	88.86	112.2	159.2	122.7	125.9	336.4	1832	1221	131.3	104.0	91.71	80.67	71.61	64.48	59.78	56.33	52.58	52.20	49.39	48.51	48.32	46.89	45.82	45.74	45.43	45.86	45.64	44.23	41.99	39.38	35.39	32.13	30.28	27.29	25.29	23.05	21.76	19.73	17.94	16.28	15.36	13.80	13.47	14.39	13.29	9.810	7.081	6.523	5.710	4.874	4.712	4.423	3.671	3.338	2.993	3.227	7.238	29.82	89.71	222.7	535.3	160.7	4.764	0.989	0.880	0.863	0.683	0.722	0.659	0.740	0.631	0.588	0.629	0.593
540.0	46.26	58.43	73.30	81.05	86.92	141.7	122.8	103.9	157.2	966.3	2124	179.7	95.38	83.38	72.32	64.49	56.69	53.68	49.98	48.19	45.83	44.88	42.64	42.07	41.43	40.02	40.47	39.84	40.28	40.74	38.96	37.63	34.73	31.46	29.20	26.63	24.89	23.25	21.03	19.38	17.60	16.53	15.06	14.24	12.66	11.73	12.07	13.02	10.62	7.397	6.153	5.317	4.711	4.388	3.986	3.920	3.063	2.751	2.563	3.170	8.242	21.54	53.71	300.0	526.8	27.38	1.890	0.789	0.804	0.598	0.639	0.553	0.677	0.613	0.559	0.575	0.546
545.0	42.12	54.01	68.18	72.07	75.31	110.5	130.5	95.08	107.8	354.3	2277	691.0	88.84	76.11	65.71	58.30	53.41	48.06	46.95	43.08	41.42	40.29	37.92	38.73	36.40	36.84	36.18	36.45	35.81	36.59	35.16	33.82	30.95	29.58	26.48	24.19	22.56	20.63	19.15	17.43	16.11	14.91	13.94	12.87	11.79	10.69	10.15	11.48	10.63	7.611	5.984	5.172	4.366	4.285	3.601	3.646	3.276	2.652	2.338	2.256	3.241	6.051	13.30	76.80	377.2	405.1	22.26	1.036	0.908	0.650	0.565	0.595	0.680	0.561	0.487	0.513	0.578
550.0	35.39	47.07	58.18	60.65	64.95	81.22	127.0	97.71	87.92	148.7	1150	1689	221.0	67.56	58.25	51.41	45.85	42.57	39.76	37.37	36.34	34.77	33.80	33.10	31.76	31.29	31.23	31.19	31.22	31.30	30.23	28.93	27.32	25.14	22.99	21.23	19.58	17.83	16.89	15.06	14.25	13.26	11.97	11.39	10.57	9.651	8.827	8.943	9.592	8.155	6.070	4.782	4.213	3.889	3.489	3.329	3.243	2.579	2.216	2.090	2.208	2.461	4.155	18.15	96.44	274.2	286.8	95.23	4.613	0.709	0.636	0.495	0.546	0.534	0.452	0.487	0.562
555.0	29.70	41.62	53.83	54.19	57.10	63.17	97.50	110.2	76.14	92.32	330.3	1866	902.7	66.74	48.27	44.14	39.39	36.43	34.04	31.69	29.79	29.56	28.83	27.99	27.33	26.84	25.94	26.65	25.90	26.33	25.83	24.92	22.94	21.12	19.21	18.16	17.06	15.16	14.62	13.64	12.38	11.37	10.27	9.748	9.665	8.359	7.737	7.475	7.211	7.873	6.551	4.690	3.981	3.555	3.171	3.002	2.698	2.578	2.431	1.795	1.829	1.647	2.045	4.986	22.42	62.75	151.6	381.0	128.5	2.958	0.705	0.497	0.469	0.529	0.419	0.434	0.447
560.0	32.61	38.48	44.31	47.84	50.71	55.46	72.31	114.8	74.23	71.42	129.2	1017	1796	112.0	43.80	39.39	35.80	31.92	30.83	28.55	27.05	25.26	25.27	24.50	24.17	22.93	22.45	22.82	23.01	23.60	23.25	21.93	19.95	19.06	17.67	16.30	14.37	13.74	12.82	11.95	10.94	10.23	9.351	8.735	8.444	7.683	6.991	6.180	5.921	6.454	6.435	4.961	3.817	3.235	2.894	2.857	2.614	2.383	2.379	1.848	1.611	1.483	1.528	1.969	5.876	14.79	37.31	217.8	357.3	25.87	1.218	0.599	0.490	0.460	0.435	0.417	0.495
565.0	33.38	36.58	44.43	44.75	46.34	47.87	58.49	103.3	83.31	64.83	80.96	351.7	2091	440.7	39.60	35.71	30.63	29.17	26.62	25.56	22.77	22.38	22.10	22.16	21.48	20.77	20.42	20.08	20.24	20.81	19.74	19.10	17.67	16.21	15.20	14.16	13.02	12.20	11.29	10.67	9.674	9.242	8.496	7.925	7.374	6.693	6.188	5.621	5.029	5.244	5.502	5.195	3.735	3.126	2.905	2.548	2.485	2.165	2.159	2.044	1.623	1.500	1.295	1.310	2.092	4.087	9.192	56.07	256.4	220.4	19.48	0.751	0.471	0.469	0.471	0.409	0.501
570.0	29.96	35.88	40.04	39.87	38.80	41.25	43.88	70.82	95.03	61.99	63.67	125.0	1080	1345	77.94	29.66	25.76	24.44	21.48	20.84	18.91	18.64	18.35	18.12	17.51	17.12	16.62	16.08	17.03	17.00	16.37	15.62	14.49	13.39	12.37	11.57	10.67	10.09	9.683	8.830	7.997	7.680	6.978	6.653	6.468	5.766	5.219	4.702	4.210	4.028	4.178	4.626	3.807	3.053	2.530	2.381	2.012	1.824	1.729	1.652	1.606	1.364	1.131	1.123	1.186	1.620	2.755	13.31	65.42	173.0	227.4	68.70	2.537	0.487	0.389	0.391	0.408
575.0	27.58	34.41	35.78	36.32	32.81	33.61	35.93	47.42	87.60	70.66	57.60	69.96	293.5	1607	586.6	27.72	20.31	19.23	17.70	16.59	14.77	14.34	14.11	13.96	13.98	13.24	12.46	12.98	13.34	13.20	12.91	12.19	11.31	10.46	9.756	8.855	8.249	8.114	7.546	7.121	6.267	6.212	5.520	5.157	5.060	4.616	4.308	3.822	3.402	3.103	2.934	3.353	3.512	3.016	2.235	1.883	1.827	1.531	1.422	1.357	1.473	1.443	0.970	0.950	0.911	1.047	1.171	3.504	15.08	39.46	113.0	232.4	28.02	1.696	0.432	0.339	0.323
580.0	21.18	36.30	37.15	30.11	28.41	27.27	30.39	37.11	72.60	80.68	57.66	58.27	103.4	878.3	1351	61.28	17.99	16.00	14.49	13.44	12.43	11.77	11.67	11.76	11.23	10.42	10.38	10.48	10.91	10.72	10.49	9.992	9.464	8.455	7.746	7.312	6.916	6.797	6.255	5.603	5.439	5.139	4.740	4.399	4.217	3.839	3.870	3.159	2.989	2.565	2.334	2.424	2.814	2.910	2.334	1.750	1.445	1.278	1.347	1.222	1.165	1.270	1.171	0.865	0.808	0.829	0.828	1.337	3.891	9.366	27.36	129.0	188.2	22.38	0.689	0.345	0.364
585.0	27.04	34.62	34.10	28.09	25.87	25.69	28.68	33.19	50.54	90.04	59.49	56.59	60.39	286.1	1681	267.0	15.76	13.37	12.06	11.20	10.58	9.831	9.727	9.595	8.920	8.643	8.704	8.804	9.037	9.046	8.549	7.876	7.813	6.767	6.591	5.880	5.758	5.071	4.900	4.587	4.347	4.061	4.005	3.597	3.524	3.409	3.262	2.761	2.445	2.218	2.014	2.065	2.183	2.552	2.259	1.589	1.289	1.176	1.189	1.045	0.970	1.076	1.154	0.954	0.723	0.814	0.805	0.938	1.359	2.599	6.576	32.92	137.6	145.2	14.74	0.443	0.349
590.0	31.60	34.81	33.28	29.15	23.76	21.42	24.89	28.77	38.28	80.77	73.41	54.56	52.28	91.63	873.4	952.6	45.50	10.60	9.537	9.049	8.468	8.088	7.814	7.530	6.933	6.833	6.845	7.012	7.035	6.799	6.482	6.182	5.989	5.449	5.116	4.619	4.421	3.970	3.981	3.611	3.395	3.331	2.935	2.761	2.714	2.647	2.402	2.256	1.975	1.766	1.580	1.511	1.577	1.850	2.063	1.609	1.098	1.033	0.933	0.875	0.798	0.816	0.903	1.001	0.850	0.716	0.668	0.727	0.843	1.015	1.909	7.844	35.03	95.92	108.3	17.91	1.457
595.0	31.63	34.84	34.95	26.27	19.71	17.94	22.24	26.00	31.88	58.31	86.21	59.37	51.69	44.80	221.8	1159	388.7	10.84	7.676	6.848	6.410	6.312	6.185	5.636	5.363	5.524	5.149	5.587	5.143	5.088	4.913	4.716	4.620	4.229	3.603	3.713	3.335	3.137	2.930	2.820	2.655	2.464	2.434	2.322	1.975	2.066	1.893	1.763	1.550	1.339	1.267	1.128	1.143	1.301	1.564	1.587	1.140	0.823	0.833	0.647	0.690	0.810	0.661	0.879	0.965	0.673	0.568	0.679	0.651	0.643	0.779	2.093	8.112	21.93	48.88	108.7	25.34
600.0	24.84	35.09	32.52	24.13	18.42	15.88	18.54	23.71	31.14	44.34	89.01	66.29	47.16	34.09	63.59	624.4	931.2	31.54	6.875	5.831	5.311	4.898	5.089	4.671	4.273	4.483	4.315	4.377	4.297	4.432	4.118	3.967	4.000	3.532	2.981	3.257	2.940	2.585	2.378	2.289	2.064	1.884	2.110	1.869	1.758	1.678	1.609	1.457	1.345	1.268	1.140	1.079	0.938	1.014	1.063	1.421	1.214	0.936	0.778	0.670	0.633	0.590	0.539	0.622	0.753	0.749	0.590	0.645	0.593	0.575	0.527	0.790	2.058	5.212	11.84	60.30	97.33
605.0	22.41	29.66	28.64	20.64	16.04	15.06	19.23	19.75	29.70	40.59	77.75	75.67	47.60	32.12	27.32	194.2	1129	73.27	6.721	5.148	4.441	4.194	4.239	4.144	3.558	4.028	3.553	3.605	3.756	3.646	3.336	3.311	3.032	2.952	2.545	2.674	2.475	2.264	2.036	1.878	1.974	1.707	1.717	1.549	1.516	1.562	1.254	1.262	1.030	1.059	0.926	0.872	0.817	0.814	0.849	1.082	1.098	0.916	0.680	0.637	0.584	0.600	0.567	0.489	0.626	0.789	0.684	0.556	0.604	0.510	0.447	0.493	0.733	1.491	2.983	15.32	67.97
610.0	28.31	29.80	30.96	20.08	16.80	14.25	16.44	19.87	27.01	34.70	57.04	83.84	53.76	31.31	18.68	52.69	578.7	647.7	27.46	4.385	4.020	3.719	3.624	3.254	3.011	3.035	2.993	3.049	3.045	2.960	2.858	2.721	2.457	2.292	2.213	2.097	1.955	1.808	1.752	1.582	1.511	1.419	1.289	1.292	1.231	1.134	1.081	1.049	0.951	0.892	0.760	0.765	0.662	0.654	0.698	0.744	0.951	0.931	0.736	0.586	0.557	0.559	0.496	0.523	0.577	0.624	0.812	0.628	0.566	0.450	0.444	0.377	0.433	0.582	0.846	3.679	17.27
615.0	24.68	26.40	30.64	19.97	14.11	12.91	15.57	19.29	26.59	34.11	47.02	73.21	62.48	30.88	16.71	19.77	142.3	796.2	262.7	5.296	3.166	3.201	2.673	2.738	2.673	2.378	2.549	2.371	2.451	2.198	2.371	2.112	2.221	1.996	2.014	1.816	1.578	1.441	1.292	1.345	1.174	1.180	1.138	1.033	0.937	1.038	0.838	0.794	0.833	0.728	0.635	0.623	0.510	0.499	0.591	0.607	0.620	0.817	0.738	0.635	0.439	0.489	0.572	0.386	0.529	0.569	0.623	0.709	0.562	0.493	0.448	0.412	0.360	0.396	0.454	1.102	4.094
620.0	26.36	25.29	25.07	19.55	12.55	12.80	14.48	18.04	23.01	31.73	43.79	60.18	70.16	31.09	16.36	11.51	37.95	431.8	539.1	17.30	3.093	2.649	2.438	2.327	2.152	2.181	2.034	2.179	1.945	1.862	2.081	1.782	1.746	1.682	1.614	1.517	1.396	1.305	1.140	1.259	1.011	0.934	0.928	0.832	0.928	0.918	0.792	0.821	0.691	0.610	0.593	0.552	0.451	0.474	0.521	0.512	0.463	0.613	0.655	0.646	0.447	0.484	0.475	0.412	0.460	0.477	0.661	0.717	0.582	0.456	0.391	0.371	0.345	0.324	0.288	0.533	1.098
625.0	25.62	25.12	22.63	19.46	13.18	11.86	13.36	18.18	22.31	29.23	39.82	51.78	69.88	33.70	15.02	9.772	14.03	134.6	806.7	58.30	3.078	2.495	2.274	2.058	2.335	1.853	1.726	1.829	1.701	1.626	1.753	1.473	1.372	1.489	1.399	1.212	1.081	1.111	1.093	1.061	0.927	0.942	0.809	0.761	0.785	0.805	0.785	0.690	0.579	0.530	0.535	0.561	0.476	0.430	0.472	0.429	0.402	0.498	0.666	0.618	0.463	0.463	0.320	0.426	0.472	0.498	0.575	0.459	0.487	0.479	0.400	0.388	0.338	0.341	0.251	0.372	0.383
630.0	24.19	23.70	23.32	17.63	12.75	10.94	13.00	17.82	19.93	27.28	35.58	44.06	55.04	42.03	15.60	9.497	8.390	34.92	441.7	487.0	19.68	2.401	2.027	1.921	1.795	1.660	1.474	1.448	1.386	1.444	1.480	1.347	1.262	1.159	1.115	1.063	1.008	0.887	0.958	0.866	0.816	0.722	0.712	0.649	0.647	0.584	0.609	0.577	0.566	0.472	0.447	0.424	0.395	0.393	0.365	0.384	0.352	0.422	0.429	0.495	0.450	0.424	0.410	0.346	0.372	0.431	0.501	0.396	0.456	0.470	0.515	0.333	0.273	0.259	0.282	0.283	0.283
635.0	20.58	25.80	21.46	16.25	12.22	10.06	12.10	15.05	18.39	25.60	33.92	38.70	40.86	45.69	18.95	8.989	6.842	11.85	109.4	608.6	192.6	2.643	1.706	1.576	1.560	1.455	1.251	1.229	1.190	1.034	1.110	1.204	1.070	1.060	0.891	0.780	0.822	0.694	0.769	0.701	0.598	0.623	0.557	0.566	0.527	0.537	0.539	0.508	0.396	0.380	0.419	0.382	0.374	0.368	0.299	0.317	0.288	0.309	0.305	0.356	0.457	0.408	0.348	0.443	0.330	0.369	0.408	0.447	0.429	0.403	0.554	0.487	0.325	0.335	0.252	0.286	0.292
640.0	18.42	27.67	22.62	14.86	11.78	9.066	11.83	14.86	17.23	23.71	30.99	35.01	35.65	40.39	23.18	9.531	6.605	6.070	27.63	348.2	446.7	10.51	1.732	1.421	1.368	1.203	1.010	1.064	1.199	1.092	1.038	0.986	0.916	0.825	0.723	0.758	0.694	0.634	0.633	0.598	0.464	0.500	0.561	0.508	0.414	0.435	0.384	0.486	0.344	0.342	0.347	0.322	0.369	0.358	0.376	0.288	0.319	0.262	0.307	0.291	0.398	0.447	0.280	0.376	0.327	0.321	0.372	0.466	0.443	0.356	0.478	0.511	0.340	0.285	0.218	0.274	0.251
645.0	19.49	23.92	21.02	14.16	10.82	10.67	10.80	13.89	16.56	21.92	29.35	31.73	31.80	31.67	29.00	10.49	6.731	4.987	9.086	112.4	606.4	46.91	1.737	1.240	1.235	1.072	0.888	1.010	1.005	0.917	0.969	0.888	0.732	0.799	0.733	0.727	0.671	0.563	0.557	0.578	0.507	0.496	0.559	0.487	0.388	0.375	0.384	0.409	0.317	0.279	0.309	0.270	0.339	0.317	0.290	0.259	0.362	0.334	0.274	0.282	0.394	0.330	0.344	0.341	0.359	0.309	0.349	0.326	0.356	0.346	0.324	0.407	0.465	0.274	0.245	0.230	0.239
650.0	21.26	21.81	21.35	15.19	10.44	9.291	10.52	13.04	15.33	20.72	26.35	30.38	29.84	26.43	30.42	12.98	7.138	4.857	5.085	28.98	454.3	260.6	3.307	1.342	1.116	0.945	0.896	0.908	0.971	0.947	0.814	0.743	0.717	0.673	0.717	0.701	0.591	0.567	0.497	0.560	0.493	0.482	0.524	0.505	0.379	0.433	0.371	0.349	0.367	0.253	0.295	0.340	0.296	0.261	0.238	0.344	0.285	0.302	0.250	0.249	0.393	0.254	0.333	0.338	0.288	0.384	0.343	0.357	0.302	0.309	0.339	0.291	0.432	0.349	0.270	0.268	0.236
