Sample:	'1
File name:	Default_20250722_162147.FD3
Run date:	'16:15:26, 07/22/2025
Operator:	Administrator
Comment:	'

Instrument
Model:	F-2700 FL Spectrophotometer
Serial number:	3064-004
ROM Version:	4J14000 07

Instrument parameters
Measurement type:	3-D scan
Data mode:	Fluorescence
EX  Start WL:	220.0 nm
EX  End WL:	600.0 nm
EX Sampling interval:	5.0 nm
EM  Start WL:	230.0 nm
EM  End WL:	650.0 nm
EM Sampling interval:	5.0 nm
Scan speed:	12000 nm/min
EX Slit:	5.0 nm
EM Slit:	5.0 nm
PMT Voltage:	700 V
Response:	Auto 
Corrected spectra:	Off
Contour interval:	50.000

Peak integration
Integration method:	Rectangular
Sensitivity:	1
Threshold:	1.000

Peaks
No.	ApexEX/EM(nm)	Height(Data)
1	225.0/580.0	69.57
2	225.0/645.0	51.81
3	230.0/305.0	745.7
4	230.0/335.0	 1128
5	230.0/570.0	61.90
6	230.0/585.0	67.72
7	230.0/595.0	70.21
8	235.0/345.0	 1073
9	235.0/600.0	68.37
10	240.0/520.0	265.2
11	240.0/580.0	63.19
12	245.0/265.0	333.3
13	245.0/530.0	229.9
14	250.0/545.0	228.1
15	255.0/280.0	744.9
16	255.0/555.0	206.7
17	260.0/285.0	 1084
18	260.0/570.0	199.9
19	265.0/290.0	 1382
20	265.0/585.0	209.0
21	270.0/295.0	 1965
22	270.0/590.0	197.2
23	275.0/305.0	 2304
24	275.0/385.0	 1362
25	275.0/605.0	189.7
26	275.0/645.0	77.08
27	280.0/310.0	 1978
28	280.0/360.0	 1309
29	280.0/615.0	149.9
30	285.0/315.0	 1732
31	285.0/630.0	104.0
32	290.0/320.0	 1556
33	290.0/645.0	83.23
34	305.0/340.0	996.3
35	315.0/355.0	780.8
36	320.0/360.0	826.3
37	325.0/365.0	797.6
38	330.0/375.0	788.7
39	335.0/380.0	829.8
40	340.0/385.0	801.6
41	350.0/400.0	724.5
42	365.0/420.0	561.6
43	415.0/485.0	146.0
44	455.0/335.0	4.924
45	460.0/340.0	4.888
46	505.0/275.0	3.274
47	510.0/280.0	4.367
48	520.0/285.0	5.579
49	530.0/290.0	6.469
50	540.0/295.0	9.269
51	545.0/300.0	10.44
52	550.0/305.0	10.51
53	560.0/310.0	9.192
54	565.0/370.0	6.950
55	570.0/315.0	7.713
56	575.0/320.0	8.505
57	580.0/325.0	7.337

Data points
	220.0	225.0	230.0	235.0	240.0	245.0	250.0	255.0	260.0	265.0	270.0	275.0	280.0	285.0	290.0	295.0	300.0	305.0	310.0	315.0	320.0	325.0	330.0	335.0	340.0	345.0	350.0	355.0	360.0	365.0	370.0	375.0	380.0	385.0	390.0	395.0	400.0	405.0	410.0	415.0	420.0	425.0	430.0	435.0	440.0	445.0	450.0	455.0	460.0	465.0	470.0	475.0	480.0	485.0	490.0	495.0	500.0	505.0	510.0	515.0	520.0	525.0	530.0	535.0	540.0	545.0	550.0	555.0	560.0	565.0	570.0	575.0	580.0	585.0	590.0	595.0	600.0
230.0	21.68	452.4	 2912	 1683	113.7	11.17	10.75	8.443	8.664	7.111	7.330	5.847	5.643	4.760	4.018	3.710	3.273	2.837	3.094	2.870	2.626	2.131	2.080	2.014	1.701	1.933	1.797	1.695	1.377	1.479	1.504	1.343	1.258	1.099	1.050	1.078	1.086	0.961	0.857	0.883	0.890	0.995	1.001	0.804	0.649	0.697	1.608	5.921	10.19	8.109	3.533	0.994	0.612	0.589	0.578	0.543	0.506	0.485	0.569	0.506	0.469	0.421	0.386	0.388	0.288	0.442	0.431	0.388	0.412	0.400	0.389	0.380	0.373	0.304	0.353	0.368	0.351
235.0	54.33	127.2	 1229	 3154	 1089	174.2	15.17	8.306	8.613	7.608	7.022	5.991	6.043	5.143	4.336	3.530	3.822	3.124	2.685	3.623	2.184	2.467	2.063	2.100	1.693	2.044	1.711	1.389	1.388	1.410	1.410	1.137	1.321	1.356	1.129	1.139	1.126	0.977	0.908	0.869	0.808	0.860	0.913	0.858	0.793	0.789	0.960	2.085	4.016	6.902	9.927	10.00	4.888	1.284	0.512	0.439	0.634	0.319	0.409	0.405	0.446	0.405	0.376	0.461	0.348	0.358	0.350	0.425	0.304	0.512	0.287	0.282	0.339	0.417	0.372	0.432	0.452
240.0	63.79	88.36	317.9	 1745	 4448	944.0	79.75	11.49	9.997	8.196	7.305	4.813	7.063	6.285	5.034	3.118	4.082	2.627	2.835	3.647	2.413	2.507	2.356	2.392	2.240	1.715	1.673	1.273	1.278	2.022	1.290	1.015	1.127	1.269	1.131	1.059	0.996	0.932	0.689	0.869	0.882	0.819	0.931	0.963	0.931	0.962	1.051	0.881	1.495	2.432	4.965	11.34	14.42	11.23	3.608	1.074	0.533	0.482	0.484	0.336	0.439	0.488	0.424	0.568	0.477	0.342	0.497	0.470	0.327	0.349	0.357	0.359	0.270	0.453	0.473	0.309	0.299
245.0	34.72	103.6	136.9	474.5	 3088	 4922	754.1	38.28	11.93	10.77	8.530	5.509	7.337	5.877	5.173	4.289	3.458	2.920	2.913	3.324	2.274	2.408	2.262	2.525	1.970	1.869	1.994	1.853	1.303	1.965	1.437	1.293	1.291	1.275	1.124	0.911	0.884	0.804	1.122	0.882	0.915	0.861	0.787	0.916	0.903	1.010	1.269	0.992	0.990	1.133	1.554	3.994	9.295	16.53	16.36	8.908	2.731	0.670	0.421	0.541	0.430	0.559	0.385	0.523	0.415	0.411	0.410	0.506	0.258	0.528	0.423	0.510	0.255	0.385	0.385	0.449	0.320
250.0	20.17	59.46	165.6	203.3	817.5	 3003	 4605	 2608	220.1	13.28	11.96	7.354	8.936	6.502	5.914	4.347	4.180	3.345	3.298	3.488	2.320	2.246	2.686	2.318	2.137	1.831	1.983	1.837	1.824	1.913	1.289	1.499	1.062	1.289	1.014	1.003	0.948	1.029	1.007	0.959	0.851	0.917	0.935	0.744	0.870	0.811	0.846	0.944	1.299	1.209	1.078	1.462	2.668	5.756	9.554	14.41	17.37	15.12	8.714	2.846	0.644	0.481	0.489	0.527	0.367	0.472	0.344	0.404	0.268	0.531	0.407	0.392	0.286	0.328	0.446	0.442	0.456
255.0	19.83	31.65	78.31	235.5	308.1	703.1	 1955	 6365	 4125	295.4	14.78	10.76	8.955	6.339	5.950	5.064	4.001	3.626	3.810	3.437	2.786	2.525	2.302	2.144	2.134	2.352	2.168	1.661	1.847	1.716	1.332	1.218	0.930	1.063	0.907	0.904	0.975	1.069	0.917	0.819	1.122	0.737	0.910	0.798	0.832	0.966	0.855	0.905	0.827	1.112	1.550	1.594	1.465	1.830	2.574	3.923	6.452	14.78	25.99	27.35	15.40	3.293	0.623	0.637	0.363	0.479	0.405	0.404	0.408	0.529	0.410	0.489	0.506	0.433	0.251	0.496	0.593
260.0	20.21	21.76	32.53	151.7	327.5	246.1	493.0	 3150	 8654	 3487	178.1	15.42	12.76	8.680	6.405	5.246	4.883	3.591	3.789	3.579	2.875	2.567	2.720	2.226	2.409	2.335	1.798	1.840	1.736	2.025	1.422	1.114	1.186	1.150	0.872	1.079	1.068	1.028	0.762	0.759	1.007	0.731	0.825	0.823	0.984	0.793	0.760	0.953	0.750	0.773	1.139	1.795	2.150	1.600	1.087	1.371	2.101	4.412	10.93	26.53	36.61	29.53	11.09	1.683	0.439	0.447	0.384	0.499	0.540	0.506	0.373	0.353	0.413	0.436	0.386	0.520	0.530
265.0	22.51	24.86	28.39	65.27	275.6	333.3	173.3	827.8	 4986	 9999	 2698	82.40	15.74	10.35	9.015	5.585	4.725	4.737	3.757	3.652	3.473	3.055	2.598	2.206	2.159	2.268	2.222	1.986	1.668	1.744	1.431	1.728	1.426	1.204	1.228	1.050	1.086	1.197	0.884	0.765	0.836	0.833	0.975	1.015	0.879	1.047	0.759	0.920	0.772	0.681	0.680	1.164	1.847	2.237	1.664	0.972	1.067	1.654	2.997	7.936	19.99	36.94	43.33	26.35	6.381	0.917	0.552	0.615	0.440	0.553	0.479	0.469	0.411	0.385	0.328	0.528	0.609
270.0	57.39	47.60	38.30	39.03	107.9	320.0	380.0	307.5	 1310	 4950	 9549	 5472	182.6	16.20	10.82	7.571	6.445	5.295	4.490	4.309	3.891	3.205	3.165	2.525	2.209	2.480	2.313	1.797	1.916	1.613	1.948	1.585	1.304	1.167	1.395	1.165	1.279	1.246	1.118	1.079	1.248	1.137	1.102	1.201	1.290	1.016	0.918	0.943	0.726	0.793	0.664	0.831	1.037	1.401	1.962	2.281	2.052	1.567	1.507	2.361	5.440	11.05	20.94	33.19	41.66	39.84	20.88	6.314	0.896	0.589	0.425	0.619	0.361	0.484	0.418	0.426	0.480
275.0	134.5	120.1	91.65	62.13	58.94	131.8	420.1	621.7	499.4	 1297	 3459	9999.9	 9265	228.8	16.79	10.63	8.064	5.380	5.284	4.571	3.675	3.394	3.066	3.394	2.476	2.639	2.550	2.333	1.929	2.545	2.235	1.667	1.639	1.434	1.530	1.535	1.603	1.360	1.560	1.315	1.435	1.363	1.340	1.378	1.591	1.442	1.301	1.169	1.024	0.910	0.730	0.809	0.864	0.848	1.132	1.512	2.419	3.274	2.925	2.040	2.237	3.517	5.690	8.811	13.79	30.75	58.36	52.55	29.91	5.145	0.613	0.559	0.454	0.362	0.696	0.408	0.537
280.0	224.7	211.7	178.4	119.6	73.52	99.31	241.6	744.9	629.6	615.7	 1129	 4520	9999.9	 2542	138.6	14.64	10.48	7.529	5.860	4.447	4.361	3.370	3.134	3.459	2.936	2.352	2.315	2.266	1.913	2.213	1.814	1.519	1.701	1.598	1.626	2.016	1.734	1.913	1.825	1.448	1.896	1.749	1.775	1.799	1.909	1.615	1.438	1.538	1.394	1.023	1.048	0.977	0.889	0.834	0.924	0.957	1.574	2.807	4.367	4.154	2.615	2.375	2.751	3.870	4.862	8.969	22.39	49.88	80.35	48.81	20.40	1.929	0.509	0.673	0.779	0.584	0.543
285.0	326.7	343.8	278.0	188.5	124.6	143.0	209.1	528.7	 1084	647.6	758.6	 1517	 6122	9999.9	 1922	74.32	13.09	9.168	6.736	5.234	5.150	4.205	4.073	3.213	2.673	3.075	2.028	2.416	2.230	1.994	1.953	1.507	1.844	1.714	1.790	2.117	1.954	2.055	2.049	1.942	2.112	2.372	1.923	2.212	2.189	2.032	1.863	1.892	1.653	1.454	1.220	1.086	0.847	1.063	0.738	0.964	1.301	1.854	2.588	4.534	5.579	3.863	3.049	3.269	3.445	4.137	6.872	15.27	37.39	70.02	86.86	38.53	8.265	0.867	0.600	0.485	0.621
290.0	429.9	511.2	475.0	373.5	295.9	315.9	370.5	546.9	968.4	 1382	 1169	 1122	 2014	 5568	9999.9	 7009	112.9	16.07	9.427	7.028	6.096	4.814	4.500	3.474	2.951	3.319	2.765	2.745	2.633	2.385	2.037	1.935	1.732	1.788	1.901	2.371	2.529	2.605	2.492	2.391	2.236	2.394	2.588	2.634	2.513	2.536	2.333	2.680	2.613	1.897	1.735	1.687	1.520	1.787	1.553	1.676	1.771	2.215	2.485	3.449	4.422	5.613	6.469	5.672	4.476	4.624	4.938	6.800	10.87	20.14	37.34	54.23	56.92	62.59	25.58	7.777	0.936
295.0	484.7	642.0	620.3	532.3	452.0	483.5	535.3	670.0	895.1	 1310	 1965	 1460	 1268	 1702	 3240	9999.9	 9759	146.4	14.00	10.09	7.831	6.018	4.855	3.617	3.785	3.373	2.732	2.543	2.503	2.794	2.257	2.119	2.055	1.822	2.116	2.501	2.802	2.900	2.818	2.398	2.565	2.859	2.933	2.978	2.880	2.669	2.852	3.070	2.975	2.547	2.032	2.504	2.308	2.332	2.209	2.230	2.476	2.553	2.900	3.306	3.895	4.328	5.287	7.569	9.269	7.206	5.944	5.927	6.190	7.606	10.61	13.97	17.53	42.63	90.93	59.67	37.75
300.0	491.9	694.0	696.1	630.8	580.0	587.1	682.0	785.8	961.3	 1190	 1923	 2086	 1306	959.4	 1021	 3946	9999.9	 7213	102.3	14.01	9.336	6.441	5.156	5.287	3.710	3.419	3.239	2.750	2.485	2.480	2.373	2.099	1.994	2.021	1.930	2.387	3.232	2.840	3.013	2.397	2.725	2.909	2.900	2.923	3.133	3.205	3.040	3.284	3.081	2.778	2.368	2.719	2.394	2.560	3.057	3.041	2.776	3.111	3.211	3.970	4.302	4.655	5.274	5.756	7.793	10.44	8.810	7.575	5.629	5.191	5.171	4.951	5.429	11.26	31.08	67.56	115.2
305.0	489.5	671.1	745.7	674.6	626.3	648.4	778.0	882.3	 1036	 1178	 1622	 2304	 1714	883.9	594.9	 1097	 5482	9999.9	 1250	62.17	12.26	8.743	7.257	5.357	4.541	3.926	3.262	3.124	2.742	2.171	2.120	2.359	1.818	1.900	2.131	2.407	2.761	3.039	3.003	2.576	2.833	3.086	2.959	2.886	3.154	3.379	3.069	3.493	2.881	2.940	3.031	3.030	2.929	2.615	3.389	3.135	3.119	3.709	3.816	4.604	4.474	4.799	5.231	5.885	6.856	8.723	10.51	9.892	6.969	4.588	3.830	3.224	2.909	3.845	8.029	18.45	49.64
310.0	449.4	624.8	724.1	681.3	620.4	672.0	769.6	881.7	 1009	 1146	 1456	 1799	 1978	 1301	622.0	516.7	 1446	 5228	9999.9	 4984	81.51	13.58	9.260	6.857	5.260	4.769	3.676	3.082	3.259	2.649	2.698	2.232	2.042	2.189	2.255	2.565	2.541	2.937	2.956	2.559	2.572	2.447	3.091	2.690	3.099	3.196	2.982	3.420	3.152	2.894	2.784	2.793	2.646	2.903	3.053	3.120	3.606	3.394	3.555	4.139	4.589	4.653	5.354	5.144	6.217	6.827	7.944	8.631	9.192	7.720	5.092	3.638	3.072	2.693	3.329	5.589	12.62
315.0	448.3	666.9	710.8	668.8	618.5	648.5	739.0	848.3	997.1	 1118	 1367	 1590	 1629	 1732	 1062	513.0	576.3	 1339	 3077	9999.9	 7644	108.2	13.82	9.646	7.260	6.722	4.593	3.946	3.761	2.990	3.312	2.600	2.581	2.008	2.239	2.506	2.648	2.707	2.575	2.639	2.306	2.279	2.936	2.804	3.004	3.421	3.479	3.585	3.564	2.865	2.477	2.656	2.509	2.994	3.165	2.961	3.177	3.497	3.569	3.553	4.882	4.522	5.198	5.417	6.087	6.109	6.763	6.833	7.037	7.172	7.713	6.612	4.322	3.193	2.957	3.129	4.291
320.0	509.4	813.4	867.3	710.9	613.5	630.1	729.7	836.4	965.9	 1119	 1346	 1544	 1541	 1554	 1556	742.7	484.7	543.3	857.2	 4071	9999.9	 6049	77.50	13.65	9.378	7.051	5.009	4.284	3.948	3.471	3.145	2.849	2.315	2.419	2.189	2.076	2.497	2.384	2.477	2.682	1.997	2.240	2.717	3.067	2.910	3.925	3.890	3.729	3.353	3.033	2.502	2.653	2.725	2.700	2.968	3.294	3.284	3.555	3.642	4.028	4.589	4.579	4.969	5.484	6.126	6.699	6.815	6.767	6.336	6.326	7.392	8.505	7.261	5.237	3.067	3.321	3.420
325.0	526.2	884.2	985.8	822.5	644.1	626.0	694.9	801.4	927.6	 1055	 1325	 1531	 1529	 1410	 1520	 1152	539.6	411.8	393.4	 1072	 5912	9999.9	922.7	50.09	10.85	9.138	5.805	4.804	4.670	4.020	3.344	2.975	2.680	2.579	2.153	1.924	2.565	2.740	2.175	2.444	2.615	2.405	2.487	3.084	3.306	3.873	4.420	4.559	3.970	3.496	2.808	2.854	2.602	2.973	3.188	2.807	3.285	3.222	3.819	3.890	4.208	4.274	5.145	5.443	6.062	6.743	6.723	6.975	6.352	6.424	7.045	6.621	7.337	7.219	4.961	3.670	3.262
330.0	526.1	887.9	 1069	912.8	729.4	636.3	666.7	761.7	888.6	 1036	 1260	 1464	 1501	 1375	 1252	 1227	916.0	488.1	341.9	420.0	 1503	 5493	9999.9	 6966	63.61	13.37	8.349	6.524	5.460	4.029	3.844	3.263	3.105	3.015	2.738	2.187	2.581	2.431	2.261	2.332	2.478	2.477	2.578	2.908	3.458	4.056	4.178	4.547	4.228	3.739	3.253	3.584	3.224	2.963	2.918	2.974	3.064	3.419	3.564	3.669	3.934	4.313	4.766	4.852	5.638	6.087	6.147	6.783	6.944	6.473	6.495	6.291	6.038	6.188	6.588	6.460	5.339
335.0	510.1	917.6	 1128	 1027	796.0	664.4	665.5	771.8	887.1	 1015	 1247	 1420	 1487	 1396	 1230	 1040	 1054	827.8	411.6	329.6	514.0	 1355	 3300	9999.9	 6160	87.96	12.14	9.864	6.873	5.615	5.180	3.721	3.282	2.868	2.700	2.566	2.878	2.622	2.270	2.276	2.373	2.537	2.900	3.344	3.391	4.001	4.502	4.924	4.735	3.871	3.598	3.602	3.152	2.786	3.292	3.006	2.871	3.278	3.464	3.674	3.900	3.827	4.575	4.613	5.045	5.978	6.734	6.662	6.422	6.627	6.232	5.449	6.013	5.523	5.276	5.281	7.000
340.0	484.3	861.5	 1084	 1049	830.2	711.8	718.8	780.4	881.5	997.1	 1194	 1351	 1432	 1383	 1208	996.3	894.4	996.3	599.9	352.7	325.2	465.6	864.9	 4575	9999.9	 5216	64.15	13.22	8.474	6.380	4.716	3.920	3.239	2.901	2.868	2.505	2.519	2.633	2.641	2.305	2.071	2.876	2.865	2.885	3.265	4.161	4.291	4.831	4.888	4.006	3.848	3.848	3.158	3.172	3.061	3.486	3.231	3.405	3.566	3.690	4.068	4.153	4.543	4.879	4.924	5.704	6.049	6.483	6.171	6.421	6.002	5.995	5.989	5.321	5.338	4.820	5.580
345.0	435.3	803.0	 1060	 1073	873.6	762.2	731.7	793.7	898.2	 1002	 1150	 1305	 1371	 1331	 1213	996.0	823.2	871.7	854.1	454.5	327.7	305.2	343.8	 1172	 6713	9999.9	 3649	43.44	11.15	8.131	5.864	4.547	3.790	3.251	2.873	2.425	2.495	2.580	2.431	2.462	2.199	2.495	2.785	2.850	3.238	3.724	4.189	4.610	4.074	3.966	3.842	3.590	3.481	3.607	3.469	3.066	3.385	3.324	3.691	3.769	3.882	4.391	4.623	4.810	5.166	5.463	5.515	5.909	6.458	6.419	6.282	5.943	5.635	5.491	4.987	4.545	4.797
350.0	411.8	738.6	987.8	 1053	959.0	880.0	821.4	860.5	964.2	 1057	 1131	 1267	 1323	 1310	 1207	 1018	846.4	758.0	821.5	738.5	454.2	334.5	282.5	419.0	 1696	 6422	9999.9	 6453	56.78	12.33	8.488	5.674	4.697	3.624	3.191	2.934	2.660	2.627	2.607	2.303	2.180	2.440	2.669	2.658	3.039	3.590	3.796	4.521	3.862	3.950	3.349	3.764	3.675	3.450	3.587	3.313	3.579	3.763	4.120	4.140	4.184	4.406	4.899	4.910	5.381	5.586	5.781	5.221	5.945	5.797	5.998	6.060	5.624	5.768	5.273	5.238	5.228
355.0	377.6	675.6	919.1	 1021	 1017	958.4	944.8	999.1	 1063	 1125	 1186	 1273	 1299	 1292	 1220	 1047	895.7	777.1	723.1	780.8	737.0	439.9	333.0	311.4	541.2	 1553	 3699	9999.9	 5424	74.69	12.45	7.868	5.778	4.256	3.430	3.101	2.885	2.777	2.625	2.249	2.375	2.592	2.766	2.941	2.847	2.907	3.344	4.342	4.048	3.996	3.612	3.999	4.071	4.033	3.867	3.901	4.523	4.037	4.280	4.348	4.807	5.049	4.963	5.245	5.333	5.592	5.311	5.392	5.890	5.561	6.287	6.034	5.820	5.953	5.858	5.722	5.029
360.0	340.7	624.7	864.5	 1006	 1051	 1025	 1015	 1067	 1136	 1200	 1221	 1261	 1309	 1283	 1220	 1065	929.6	819.9	732.2	719.6	826.3	628.9	400.8	330.7	322.3	493.9	948.0	 5247	9999.9	 4400	52.35	11.64	7.314	5.987	3.653	3.508	2.914	3.320	2.853	2.575	2.620	2.201	2.597	2.839	2.795	2.905	3.736	3.972	3.619	3.738	3.680	4.413	4.151	4.035	4.174	4.373	4.861	4.119	4.678	4.669	4.550	5.656	5.124	5.406	5.145	5.697	5.787	6.289	5.404	6.408	5.944	6.303	5.794	5.725	6.052	6.045	5.434
365.0	324.4	566.4	813.2	972.2	 1055	 1066	 1089	 1156	 1199	 1253	 1257	 1301	 1301	 1293	 1217	 1085	965.0	859.7	767.6	715.2	756.1	797.6	528.0	384.9	312.2	294.8	342.8	 1341	 7723	9999.9	694.1	34.64	9.442	7.325	4.409	4.129	3.958	3.248	2.554	2.511	2.391	2.770	2.276	2.540	2.732	2.672	3.418	3.709	3.799	3.717	3.777	4.491	4.237	4.280	4.590	4.737	5.026	4.426	4.980	4.884	5.015	5.315	5.132	5.767	5.288	5.866	5.922	6.188	5.904	6.233	5.991	5.819	5.959	5.484	5.523	5.743	5.774
370.0	310.9	498.0	766.0	968.2	 1079	 1094	 1144	 1196	 1248	 1297	 1303	 1323	 1311	 1274	 1211	 1101	997.5	899.3	825.3	761.1	735.6	779.0	757.0	528.2	389.0	318.2	266.1	431.5	 1954	 6917	9999.9	 5780	45.59	9.658	6.559	5.196	3.715	3.297	2.706	2.392	2.541	2.769	2.431	2.577	2.620	2.759	3.277	3.400	3.626	3.451	3.627	4.205	4.302	4.391	4.398	4.444	4.922	4.961	4.786	5.031	5.268	5.462	5.192	5.373	5.620	5.943	5.850	5.559	6.183	6.950	5.891	5.747	5.784	5.643	5.880	6.195	6.069
375.0	290.6	493.4	726.6	952.8	 1096	 1155	 1192	 1218	 1291	 1343	 1336	 1351	 1340	 1283	 1206	 1098	 1015	947.2	891.6	840.5	777.5	760.8	788.7	772.3	530.4	407.3	321.6	286.9	570.6	 1640	 4213	9999.9	 4512	57.42	9.384	6.638	4.544	4.260	3.176	2.694	2.695	2.762	2.547	2.439	2.524	2.712	3.176	2.940	3.761	3.341	3.184	4.113	4.572	4.550	4.363	4.897	5.118	4.858	4.978	5.136	5.444	5.593	5.398	5.578	5.600	5.806	6.014	5.793	5.469	6.092	5.835	6.190	5.322	5.697	6.011	6.224	6.305
380.0	291.7	465.2	687.4	926.1	 1078	 1197	 1203	 1241	 1306	 1341	 1335	 1360	 1339	 1265	 1183	 1101	 1032	967.4	924.8	871.1	821.4	780.3	764.3	829.8	690.7	488.4	378.7	297.2	294.2	481.8	 1058	 5907	9999.9	 3485	39.63	8.620	5.618	4.952	3.860	3.101	2.994	2.731	2.752	2.574	2.855	2.803	2.961	3.285	3.260	3.618	3.394	4.247	4.273	4.644	4.736	4.954	4.922	4.862	5.365	5.232	5.605	5.608	5.921	5.984	5.283	5.643	6.012	6.005	5.924	6.107	6.171	6.001	5.364	6.065	6.063	6.177	6.106
385.0	256.7	465.5	691.7	921.7	 1084	 1183	 1232	 1230	 1292	 1316	 1327	 1362	 1327	 1250	 1194	 1102	 1032	984.7	946.0	892.2	843.8	801.1	763.1	782.2	801.6	592.9	433.3	333.4	266.6	245.9	335.4	 1511	 8078	9999.9	539.0	22.97	7.532	5.593	4.170	3.574	2.947	2.727	2.534	2.743	2.643	2.753	2.651	3.210	3.050	3.522	3.451	4.077	4.198	4.563	4.391	4.810	4.870	5.058	5.391	5.100	5.349	5.799	5.364	6.130	5.320	5.647	5.912	5.527	6.430	5.954	5.622	6.054	6.156	5.909	5.701	6.380	5.870
390.0	275.0	450.7	679.9	886.0	 1053	 1174	 1211	 1222	 1258	 1289	 1309	 1304	 1275	 1229	 1169	 1088	 1029	993.3	955.3	915.5	877.9	837.2	787.8	748.7	766.1	739.1	543.1	393.6	304.0	237.3	208.2	431.6	 2057	 6833	9999.9	 2233	36.11	8.521	5.874	4.503	3.582	3.106	2.827	2.728	3.015	3.065	2.880	3.451	3.024	3.198	3.346	3.856	4.153	4.524	4.574	4.689	4.821	5.312	5.250	5.275	5.218	5.547	5.046	5.245	5.480	5.497	6.002	5.413	5.873	6.020	5.418	5.848	5.916	5.807	5.856	6.190	6.552
395.0	266.8	436.2	642.5	861.3	 1027	 1157	 1177	 1205	 1247	 1260	 1253	 1285	 1240	 1210	 1144	 1063	 1018	990.4	954.0	933.4	890.7	855.7	812.9	769.9	736.9	732.6	699.4	494.1	356.6	277.7	214.8	222.0	544.0	 1589	 4113	9999.9	 3580	46.38	8.042	5.818	4.322	3.360	2.958	2.958	3.067	3.071	2.849	2.952	2.901	2.959	3.298	4.137	4.245	4.240	4.815	4.475	4.529	4.758	4.607	5.247	6.024	5.247	5.452	5.364	5.819	5.287	5.644	5.606	5.919	6.122	5.851	5.486	5.669	5.440	6.085	5.682	6.245
400.0	254.8	429.8	613.3	828.7	 1001	 1127	 1161	 1188	 1211	 1234	 1236	 1234	 1225	 1158	 1126	 1059	 1001	979.1	944.6	920.1	891.1	866.7	822.8	786.4	737.0	693.8	724.5	608.1	412.5	319.0	246.6	197.1	227.8	431.1	 1010	 5541	9999.9	 2750	29.95	7.101	4.773	4.195	3.671	3.112	3.169	3.498	2.798	3.146	3.180	2.899	3.366	3.735	4.048	4.401	4.481	4.389	4.742	5.268	4.637	5.097	5.664	4.880	5.454	5.559	5.111	5.156	5.621	5.756	5.778	6.117	5.781	5.428	5.462	5.764	5.881	5.777	5.979
405.0	265.6	429.0	618.1	827.9	951.6	 1059	 1121	 1166	 1183	 1231	 1169	 1209	 1173	 1139	 1098	 1030	990.6	963.6	939.7	914.2	882.1	856.0	822.3	787.4	736.0	687.5	668.1	672.4	497.0	361.3	280.5	215.7	178.5	186.7	292.8	 1417	 7198	9999.9	447.8	15.89	6.475	4.942	3.698	3.295	3.189	3.416	2.907	3.050	3.093	2.986	3.417	3.907	4.041	4.307	4.279	4.314	4.728	5.231	5.057	5.106	4.967	5.173	4.888	5.183	5.096	5.137	5.396	5.674	5.666	5.676	5.636	5.568	5.376	5.920	5.484	6.228	5.635
410.0	251.0	403.8	574.7	766.8	910.6	 1008	 1082	 1162	 1170	 1174	 1149	 1163	 1123	 1098	 1045	993.8	949.5	935.1	909.7	887.0	868.3	840.6	807.4	772.4	733.3	682.4	639.6	627.5	593.9	448.6	327.7	251.2	197.0	158.1	151.9	377.6	 1830	 6072	 8152	 1970	30.09	6.737	4.545	4.115	3.359	3.135	2.973	3.062	3.087	3.119	3.046	3.848	4.004	4.222	4.325	4.299	4.830	4.584	5.193	4.860	4.968	5.043	4.644	5.051	4.952	4.801	5.121	5.175	5.270	5.183	5.290	5.117	5.279	5.496	5.605	5.655	5.663
415.0	243.2	405.1	554.9	741.9	883.2	 1007	 1054	 1132	 1130	 1142	 1124	 1110	 1082	 1049	998.2	935.9	914.8	894.2	864.0	852.8	844.3	814.6	779.8	760.5	725.7	677.3	636.5	588.3	573.8	557.5	395.8	287.9	225.1	176.0	139.1	161.8	463.4	 1402	 3407	 9134	 3011	38.92	6.831	5.317	3.882	3.827	2.812	3.256	3.355	3.347	3.131	3.261	3.800	4.073	4.296	4.072	4.791	4.629	4.840	4.456	4.759	4.751	5.087	5.142	5.247	4.876	4.713	4.958	4.802	4.792	4.812	5.018	5.240	5.160	5.978	5.677	5.426
420.0	233.7	388.3	522.6	711.0	875.8	950.6	 1020	 1093	 1115	 1101	 1073	 1084	 1027	987.3	970.0	901.5	876.9	857.6	841.0	808.2	807.0	792.0	757.4	737.9	708.5	675.3	636.5	581.9	539.7	561.6	483.6	327.9	249.5	194.2	150.7	124.5	168.5	360.6	830.6	 4722	 9098	 2210	25.51	5.837	4.217	4.189	3.332	3.289	3.508	3.268	3.165	3.392	3.474	4.206	4.147	4.272	4.183	4.309	4.535	5.038	4.406	4.912	4.969	4.620	4.829	4.946	4.910	5.163	4.867	4.961	4.896	5.193	5.080	4.929	5.284	4.915	5.513
425.0	210.9	380.6	540.2	671.8	830.2	921.9	 1006	 1069	 1097	 1056	 1035	 1031	982.3	959.7	935.7	871.9	830.0	820.0	815.3	789.5	778.4	764.1	738.7	713.6	697.5	663.7	630.0	583.2	529.9	517.2	522.8	385.8	270.4	207.8	163.4	130.0	111.9	134.6	226.8	 1206	 5887	 7871	401.0	12.26	5.526	4.399	3.644	3.509	3.252	3.203	3.157	3.295	3.205	3.969	4.262	4.100	4.184	4.834	4.338	4.876	4.727	4.426	4.699	4.452	4.766	4.456	4.591	4.745	4.555	4.583	4.328	5.309	4.926	4.688	5.003	5.336	5.316
430.0	401.7	340.6	502.4	640.9	779.0	864.3	957.4	 1039	 1047	 1042	 1017	995.3	955.1	917.6	871.6	835.4	790.5	778.7	765.6	744.7	733.7	718.7	703.6	688.3	670.7	652.0	617.0	577.3	533.2	494.3	482.1	451.2	331.9	235.7	185.8	144.5	117.3	97.83	100.8	307.5	 1487	 4563	 6185	 1644	27.45	5.670	4.140	3.832	3.362	3.092	2.998	3.353	3.344	3.686	3.703	3.774	4.146	4.397	4.209	4.834	4.806	4.447	4.820	4.513	4.635	4.054	4.399	4.311	4.408	4.429	4.407	4.265	4.673	4.691	4.383	4.487	4.826
435.0	816.8	356.7	474.7	603.9	726.7	828.7	911.0	992.1	 1026	 1006	 1000	953.7	924.5	886.8	824.2	780.9	754.5	726.0	722.6	702.2	689.7	679.3	672.0	652.7	643.5	627.3	598.2	569.0	534.7	492.5	453.5	428.4	402.7	286.0	206.4	164.4	130.0	104.2	84.05	115.8	365.4	 1048	 2578	 7162	 2688	35.41	6.211	5.161	4.117	3.264	3.161	3.595	3.487	3.624	3.633	3.743	4.065	4.146	4.016	4.448	4.478	4.275	4.215	4.556	4.464	4.291	4.007	4.428	4.268	3.981	4.503	3.881	4.346	4.847	4.311	4.306	4.487
440.0	 1015	559.3	446.0	585.7	724.4	779.1	901.6	957.9	989.4	969.7	967.5	934.4	880.1	847.6	790.2	739.4	706.7	691.5	684.0	666.8	663.0	655.3	642.0	622.7	624.9	605.8	589.6	563.5	530.3	493.7	443.9	399.9	394.6	338.1	232.1	179.9	142.9	112.8	90.32	79.92	122.6	265.5	622.3	 3637	 7558	 2033	23.65	5.699	4.516	3.545	3.052	3.575	3.308	3.529	3.833	3.985	4.135	4.403	4.056	3.941	4.444	4.132	4.392	4.243	4.458	4.517	4.115	4.008	4.254	3.728	3.991	4.330	3.981	4.385	4.055	4.168	4.582
445.0	866.1	991.3	442.7	539.8	680.7	777.0	860.4	902.6	958.7	939.8	936.9	890.9	856.9	798.4	753.9	712.0	679.0	657.8	650.0	634.1	629.1	623.1	610.8	600.8	599.4	584.4	568.2	548.9	521.2	486.9	444.4	390.7	363.8	359.3	267.3	192.9	152.7	122.7	96.73	78.35	72.66	95.89	167.7	915.6	 4739	 6929	353.5	14.02	5.659	3.929	3.447	3.669	3.398	3.288	3.633	3.916	3.823	4.313	3.700	4.210	4.541	4.141	4.629	4.046	4.526	4.128	3.988	3.831	3.681	3.667	3.986	4.242	4.012	4.045	4.012	4.231	4.576
450.0	420.1	 1383	764.9	502.5	621.8	718.2	795.9	863.8	922.4	893.5	873.4	838.4	800.5	753.1	701.1	660.9	633.0	601.6	601.2	589.0	577.7	575.2	566.8	558.7	558.6	551.4	539.9	522.3	502.8	473.8	435.8	382.9	341.7	319.6	302.0	226.9	165.7	133.5	108.5	88.72	73.58	66.31	72.56	230.9	 1189	 3921	 5591	 1587	24.65	5.689	4.148	3.878	3.755	3.564	3.259	3.703	3.725	3.694	3.852	3.972	4.239	3.864	4.086	3.715	4.306	4.085	3.666	3.810	3.636	3.837	3.761	3.725	4.019	3.689	3.842	3.899	3.961
455.0	216.1	928.8	 1581	557.6	579.5	651.6	751.0	814.9	857.0	843.8	820.1	788.1	761.9	703.4	650.8	605.9	570.9	564.0	556.4	533.7	530.0	524.4	516.9	507.9	509.3	509.0	501.0	490.9	475.4	449.1	416.4	374.6	331.0	288.8	274.1	262.1	193.0	143.3	117.8	98.86	80.44	65.24	55.92	81.90	289.0	897.6	 2133	 6102	 2386	30.42	5.457	4.735	3.941	3.822	3.327	3.650	3.444	3.686	4.203	3.315	3.840	3.725	4.011	3.782	4.082	3.540	3.566	3.654	3.693	3.546	3.273	3.708	3.876	3.869	3.257	3.608	3.590
460.0	152.9	476.0	 1888	967.2	546.7	617.9	702.7	766.6	823.4	796.9	782.4	756.8	722.1	653.3	609.2	578.5	531.4	520.4	510.2	494.6	489.9	486.0	481.2	482.1	476.0	475.9	474.5	460.9	448.4	425.5	394.1	364.9	320.7	281.3	249.4	252.5	220.0	156.3	126.1	106.5	86.33	68.15	57.52	53.74	91.01	221.9	508.5	 2876	 6348	 1756	22.20	4.918	4.478	3.923	3.519	3.515	3.834	3.471	3.651	3.515	3.678	3.653	3.501	3.547	3.697	3.656	3.341	3.218	3.715	3.205	3.253	3.630	3.149	3.561	3.205	3.625	3.351
465.0	154.1	276.6	 1530	 1463	518.5	583.2	656.5	733.6	754.9	757.5	733.5	720.3	675.6	612.1	574.7	530.7	497.7	481.4	485.7	461.2	462.0	455.3	440.7	453.5	443.5	448.5	443.9	436.6	427.3	409.2	379.8	350.0	307.7	272.9	236.3	226.9	227.0	177.4	131.6	111.8	91.28	74.64	62.43	50.33	50.81	73.54	135.4	709.9	 3668	 5690	305.7	14.76	5.287	4.035	3.875	3.479	3.524	3.820	3.574	3.198	3.838	3.562	3.665	3.347	3.470	3.458	3.205	3.336	3.231	3.122	2.990	3.123	3.129	3.161	3.487	3.512	3.442
470.0	155.1	217.0	736.0	 2184	 1200	525.4	610.4	663.7	700.9	699.2	687.2	658.9	618.2	572.1	521.9	489.7	456.2	437.0	432.2	420.5	411.7	408.2	402.4	410.1	402.3	401.6	405.4	397.8	392.5	378.7	357.4	328.3	293.3	255.5	227.9	204.9	198.9	188.5	150.7	113.7	94.75	79.70	64.99	53.90	45.71	44.47	52.84	176.9	898.7	 2923	 3993	 1497	24.86	5.396	3.883	3.785	3.691	3.744	3.354	3.199	3.422	3.238	3.315	3.202	3.221	3.258	3.088	3.039	3.208	3.319	2.805	2.956	2.981	3.058	3.223	3.057	3.120
475.0	146.6	191.9	393.0	 1394	 2785	553.1	544.2	601.7	636.8	630.0	627.8	588.8	560.8	513.3	478.5	435.7	405.3	385.8	378.3	371.7	361.7	361.9	358.7	366.3	362.3	357.4	369.3	354.7	356.8	344.6	325.8	301.2	273.5	239.0	214.4	190.1	172.2	169.2	163.0	128.8	97.81	83.14	68.20	58.01	47.02	40.70	37.54	61.05	217.6	666.8	 1393	 3962	 2123	35.64	5.002	3.982	3.511	3.769	3.095	3.397	3.028	3.433	2.779	3.030	3.307	2.991	3.029	2.765	2.717	2.875	2.622	2.694	2.558	2.856	2.393	2.360	2.615
480.0	139.8	181.9	275.6	703.4	 3367	971.1	491.9	550.7	599.0	592.0	575.9	537.2	519.6	477.8	441.4	403.8	376.4	355.2	350.1	342.2	336.4	332.9	330.4	333.6	328.5	330.5	339.2	330.8	328.4	321.8	303.4	283.4	254.7	225.4	205.0	182.8	163.2	152.3	159.2	141.1	102.4	82.62	72.27	59.23	49.77	42.93	35.61	36.76	67.59	164.3	330.1	 1701	 4346	 1648	24.08	4.399	4.054	3.351	3.226	3.194	3.036	2.784	2.631	2.988	3.032	2.642	2.869	2.986	2.503	2.505	2.696	2.482	2.783	2.495	2.236	2.220	2.390
485.0	115.8	189.2	243.7	384.8	 2514	 2036	497.9	524.7	576.3	556.5	552.7	513.6	481.9	449.0	409.1	378.2	353.8	332.1	326.3	318.1	315.5	306.2	305.0	304.9	306.0	309.7	306.0	306.2	303.9	298.0	286.5	265.5	242.1	215.9	199.1	174.1	156.9	143.1	142.0	146.0	113.7	84.57	71.16	62.30	50.81	42.77	37.82	33.06	34.63	53.26	88.17	413.5	 2305	 4072	350.3	14.88	4.422	3.761	3.414	3.152	3.102	3.048	2.610	2.901	3.003	2.511	2.813	2.656	2.449	2.547	2.488	2.248	2.578	2.444	2.242	2.128	2.569
490.0	101.3	172.4	238.1	288.8	 1066	 2624	 1112	480.8	496.5	514.0	495.1	483.6	444.2	402.5	377.7	345.0	319.3	302.3	292.2	287.0	277.6	276.6	273.9	273.4	274.6	278.0	278.0	279.4	276.3	271.4	261.2	241.7	227.0	201.6	182.6	164.7	149.2	134.2	123.8	127.8	121.4	95.41	73.13	61.97	52.87	45.10	40.35	33.46	30.22	30.19	34.68	105.3	557.6	 1898	 2775	 1474	26.62	5.411	3.858	3.292	2.942	2.925	2.597	2.807	2.396	2.482	2.502	2.250	2.397	2.209	2.391	2.337	2.194	2.125	2.144	2.084	2.264
495.0	84.64	149.0	232.8	258.8	465.9	 1624	 2573	514.3	455.8	474.2	445.2	433.4	397.3	367.8	341.2	305.1	283.6	269.0	259.4	254.6	244.6	247.3	243.4	242.3	241.8	245.2	250.2	248.1	247.6	245.6	238.8	219.2	203.9	187.9	166.6	148.9	136.6	126.6	116.0	110.2	109.3	103.8	80.02	64.00	54.31	47.68	41.28	36.09	30.65	26.17	24.38	37.85	136.1	434.0	988.9	 3369	 2169	37.30	4.665	3.446	3.264	2.863	2.799	2.559	2.469	2.205	2.515	2.046	2.524	2.213	2.229	2.238	1.927	2.163	2.139	1.968	1.687
500.0	84.64	131.3	224.5	248.3	311.2	749.4	 2904	811.9	438.6	437.2	417.4	392.0	368.1	343.8	309.2	287.3	255.8	246.0	238.7	233.2	227.8	222.8	222.1	221.3	223.2	224.0	225.2	225.5	228.7	223.4	220.5	203.3	188.6	170.6	155.9	140.2	131.2	118.1	109.4	101.2	96.47	100.0	88.85	66.61	53.63	48.21	42.40	34.87	31.74	27.00	23.36	23.94	44.20	108.7	236.0	 1411	 3928	 1523	24.84	3.918	3.395	3.177	2.552	2.449	2.273	2.214	2.349	2.193	2.207	2.152	2.070	1.835	1.759	1.737	2.114	2.014	1.824
505.0	74.77	119.4	205.2	248.9	259.2	386.5	 2177	 2026	418.7	388.0	383.5	376.3	343.2	313.0	288.9	265.3	243.1	222.5	221.7	216.4	209.5	202.1	202.3	202.9	201.9	203.2	205.8	204.8	205.7	204.8	195.8	186.3	174.9	158.7	146.2	133.0	123.1	112.7	103.1	95.53	86.94	89.89	87.80	72.38	51.96	46.98	41.94	36.79	32.80	27.34	23.55	21.37	23.96	36.49	64.03	340.6	 2027	 3749	372.4	12.72	4.177	3.118	2.744	2.415	2.423	2.178	2.101	2.388	1.817	2.218	2.180	1.844	1.879	1.514	2.061	1.549	1.946
510.0	71.10	98.64	155.4	243.3	249.5	278.9	920.0	 2793	 1050	342.0	338.1	334.8	302.4	275.6	248.9	228.7	214.4	195.4	191.1	188.3	184.5	178.9	177.9	175.1	176.8	177.9	178.3	182.1	182.3	180.9	179.0	168.3	155.3	140.6	130.8	120.1	112.1	102.7	94.47	85.93	80.08	75.44	75.84	73.87	58.40	47.31	40.73	35.31	32.73	27.91	25.10	21.60	19.82	21.50	26.24	86.73	489.9	 1746	 2615	 1320	25.76	3.808	2.982	2.459	2.399	2.106	1.845	2.170	1.757	1.920	1.969	1.529	1.660	1.569	1.859	1.503	1.800
515.0	60.65	79.20	132.7	221.1	247.0	236.9	384.8	 1672	 2602	422.8	301.3	298.0	270.4	243.8	226.3	207.7	189.4	171.3	165.1	165.0	158.0	155.6	152.4	154.2	151.2	153.6	156.8	159.5	158.3	157.5	153.3	150.4	137.9	124.0	116.5	106.8	99.35	94.10	85.50	78.38	73.76	67.21	62.60	65.73	63.17	50.49	40.01	34.88	31.99	28.07	25.23	22.15	20.17	18.40	17.79	30.70	118.9	397.8	911.0	 2823	 1665	33.77	3.402	3.011	2.228	1.858	2.044	1.851	1.899	1.834	1.758	1.574	1.458	1.483	1.490	1.273	1.928
520.0	62.54	70.13	109.3	161.5	265.2	212.5	257.1	719.2	 3155	980.8	277.6	268.2	237.1	226.0	212.1	183.7	171.2	154.0	147.7	150.5	144.3	142.0	137.6	134.1	135.6	138.0	140.6	140.9	137.8	144.4	142.8	133.5	124.5	114.0	107.0	96.34	90.57	84.82	79.69	74.03	68.75	61.43	57.99	56.41	62.46	54.05	41.47	34.43	30.42	28.19	24.47	22.05	20.46	17.28	15.87	18.42	35.82	96.74	215.0	 1204	 2978	404.0	20.57	3.033	2.907	1.889	1.645	1.797	1.658	1.643	1.697	1.506	1.354	1.264	1.242	1.527	1.466
525.0	46.02	75.69	101.2	141.6	242.0	216.3	217.7	349.7	 2351	 2190	274.8	247.7	217.3	205.8	187.4	165.4	157.7	142.8	138.0	131.3	133.0	128.7	125.2	125.0	123.6	126.4	127.4	126.9	130.0	128.3	128.1	121.9	111.6	104.1	97.55	87.25	84.17	77.17	73.48	69.94	63.46	56.12	53.40	48.83	54.30	54.29	44.41	34.60	30.39	27.14	23.50	21.08	19.97	17.06	15.39	15.13	17.63	29.82	55.42	290.0	 1562	 2540	343.3	7.723	2.987	1.967	1.573	1.684	1.647	1.405	1.731	1.465	1.284	1.255	1.310	1.734	1.305
530.0	44.37	64.66	85.66	120.8	187.4	229.9	197.7	228.7	927.3	 2962	944.8	217.1	201.7	183.8	162.1	146.4	137.3	127.5	119.3	114.9	113.8	111.4	108.7	108.8	109.3	110.7	111.0	111.4	113.9	112.8	109.3	105.4	97.73	92.10	85.96	79.39	75.56	69.34	64.63	61.74	56.92	52.18	47.98	44.45	43.40	46.16	46.08	36.50	28.42	25.32	22.63	20.33	18.70	17.68	15.40	14.02	13.36	15.14	19.82	71.12	377.3	 1253	 1900	829.6	22.91	2.291	1.760	1.663	1.637	1.387	1.435	1.287	1.322	1.122	1.210	1.499	1.231
535.0	44.89	59.63	82.39	105.5	126.4	226.6	200.9	190.1	361.7	 1673	 2718	277.3	177.5	158.0	146.9	129.9	115.9	112.2	102.7	98.60	98.72	97.50	93.90	94.49	92.96	94.79	95.62	96.55	98.76	98.20	94.54	89.79	85.72	79.69	74.61	69.21	67.23	60.24	58.44	54.18	49.67	47.78	41.95	39.41	37.13	36.11	41.45	39.36	28.40	23.76	19.98	19.58	17.58	16.42	15.14	14.01	12.30	11.33	11.10	21.97	89.64	284.7	679.5	 2007	 1064	27.91	2.367	1.742	1.717	1.414	1.334	1.018	1.332	0.774	1.088	1.137	1.280
540.0	50.04	60.22	76.64	90.16	113.6	175.1	207.4	166.4	228.8	669.1	 3314	484.9	161.5	142.2	129.0	111.4	104.2	96.36	88.96	90.90	88.21	87.76	83.83	83.34	80.98	84.77	85.39	86.00	84.47	84.62	83.73	82.96	76.17	70.51	67.70	60.89	58.97	56.07	52.86	50.56	46.05	41.55	39.23	36.47	32.77	32.49	33.27	38.69	31.51	23.14	20.11	17.76	16.92	15.62	14.05	13.84	12.55	10.29	8.861	10.73	25.13	68.09	160.0	905.0	 2090	375.2	12.59	2.026	1.468	1.625	1.393	1.149	1.174	0.943	1.141	1.105	1.216
545.0	50.79	50.87	79.00	89.54	98.68	139.4	228.1	161.7	176.2	297.5	 2373	 2064	163.6	130.4	120.0	102.0	92.09	85.22	82.42	79.18	80.76	77.03	73.24	74.41	74.35	75.84	74.53	77.93	79.81	76.02	73.92	70.52	68.86	64.12	57.82	55.79	52.21	50.64	47.57	45.65	42.42	36.93	35.56	33.04	30.35	29.00	28.14	32.71	32.23	25.21	18.82	16.66	15.01	14.44	13.17	12.90	12.45	9.553	8.289	8.165	10.71	19.71	39.74	220.1	 1173	 1757	273.4	3.942	1.693	1.432	1.458	0.936	1.101	1.153	1.065	0.979	0.917
550.0	42.28	55.13	64.98	79.74	85.85	107.5	197.2	183.2	147.5	183.6	861.9	 2942	768.8	114.6	102.8	90.39	79.44	72.74	72.86	66.90	66.37	65.12	63.60	60.83	63.42	63.55	61.62	65.19	65.72	66.01	62.69	59.80	58.04	53.62	49.14	46.90	44.56	43.02	40.63	38.03	35.06	33.18	31.11	28.74	26.26	24.63	24.04	24.51	27.12	25.44	19.22	15.80	14.46	12.73	12.05	11.20	10.53	9.362	8.187	6.956	6.944	8.444	12.62	52.47	286.9	920.5	 1314	502.7	17.70	1.813	1.425	1.020	1.025	0.972	0.974	1.197	0.972
555.0	54.75	58.78	55.11	64.51	70.86	88.13	135.0	206.7	140.3	153.2	297.5	 1545	 2518	158.0	83.18	73.54	68.86	61.68	60.65	53.93	54.56	53.81	50.79	50.98	52.73	50.70	52.94	52.48	52.19	52.48	50.85	48.90	48.38	43.29	38.65	38.99	35.65	35.43	33.32	30.86	28.72	28.05	25.70	23.85	22.80	20.52	19.71	19.81	20.32	22.37	20.17	15.04	12.77	11.64	10.50	9.720	8.928	8.819	8.130	6.004	6.220	5.394	6.374	14.70	66.82	208.6	503.4	 1326	388.5	18.15	1.700	1.041	0.977	0.835	0.963	0.980	0.824
560.0	47.71	59.52	48.23	52.96	66.49	75.62	98.92	205.0	152.0	139.0	173.2	561.2	 3085	343.3	73.13	61.65	56.84	52.16	52.40	47.38	45.64	45.50	44.89	43.93	44.50	44.18	43.45	43.84	44.54	46.93	44.83	42.93	40.75	36.44	34.99	33.07	31.72	30.89	27.89	26.84	26.02	24.90	21.95	20.17	19.91	18.39	17.50	16.54	16.55	18.17	19.00	14.48	11.78	10.03	9.549	8.357	8.119	7.708	6.618	5.794	5.728	4.565	4.367	6.062	17.79	49.27	118.7	631.4	 1232	289.7	5.023	0.975	0.911	0.809	0.937	0.877	0.712
565.0	54.25	53.40	51.86	59.98	62.40	71.23	78.97	158.2	183.1	127.4	139.4	224.1	 2115	 1707	69.79	54.65	50.01	45.08	44.42	41.16	39.29	37.52	39.22	37.48	37.84	37.39	37.90	37.17	36.81	40.36	38.58	35.31	33.98	31.17	30.05	29.26	26.81	26.84	23.53	22.22	22.55	21.39	18.45	17.60	17.23	15.95	15.49	14.27	13.43	14.13	15.65	14.76	11.29	8.637	8.512	7.675	7.550	6.487	6.115	5.470	5.388	4.383	4.262	4.241	6.740	13.55	28.47	155.5	774.1	 1021	51.26	1.933	0.963	0.872	0.729	0.715	0.830
570.0	58.23	56.53	61.90	50.64	56.81	58.51	72.78	110.1	199.9	146.4	131.7	146.0	727.1	 2574	568.9	44.96	41.87	37.17	34.60	33.27	31.37	31.06	30.89	31.00	30.54	29.97	30.55	30.14	29.97	31.85	30.30	28.76	27.25	25.78	24.20	23.46	22.15	21.11	19.46	18.96	17.58	16.96	15.41	14.56	13.24	13.32	12.67	11.70	10.82	10.48	11.02	12.53	10.96	8.745	7.291	6.669	6.434	5.572	5.621	4.955	5.149	4.055	3.770	3.304	3.594	5.169	8.184	36.41	193.4	576.0	574.6	208.1	11.17	1.030	0.919	0.713	0.812
575.0	43.32	59.40	59.75	57.27	49.74	54.84	66.59	86.81	171.9	180.0	136.8	127.4	239.5	 1284	 2062	78.00	32.85	29.00	29.53	27.37	25.26	25.54	23.78	24.83	23.96	23.92	23.21	23.40	23.46	24.15	23.81	22.51	20.55	19.87	18.43	18.97	17.53	16.62	14.99	15.20	14.33	13.86	12.23	11.52	10.57	10.38	10.58	9.698	8.865	8.489	8.166	8.585	9.842	8.896	6.200	5.847	5.344	4.715	4.674	4.314	4.350	3.667	3.219	3.270	3.051	3.052	3.617	9.893	44.85	130.8	271.3	736.1	276.3	7.648	0.954	0.685	0.703
580.0	45.37	69.57	58.95	61.41	63.19	55.89	65.69	84.67	134.9	206.4	139.7	129.0	131.0	423.5	 2629	233.6	29.49	24.24	25.27	22.65	23.80	21.17	21.96	20.39	20.04	19.81	19.14	20.62	19.54	20.65	20.20	18.41	18.01	16.67	15.47	15.48	14.05	13.96	12.93	12.30	13.11	11.89	10.02	9.623	9.068	8.740	8.668	8.361	8.424	7.128	6.675	6.365	8.012	8.554	6.787	5.584	5.172	4.329	4.102	3.771	3.554	3.396	3.523	2.856	2.765	2.478	2.449	3.954	11.46	30.55	65.51	383.7	688.3	55.38	2.397	0.887	0.790
585.0	54.66	63.67	67.72	61.15	59.94	69.81	70.56	77.81	105.6	209.0	163.9	132.5	112.0	154.2	 1730	 1356	30.90	23.73	20.68	18.63	19.27	19.23	17.91	17.32	17.29	16.04	16.84	18.62	16.63	16.69	16.75	15.60	15.05	14.16	13.25	12.72	12.02	12.39	11.41	10.58	9.749	9.545	8.823	7.885	8.046	7.617	7.744	6.766	7.182	5.900	5.717	5.393	5.886	7.562	6.547	5.190	4.382	3.990	3.761	3.098	3.313	3.256	3.238	2.741	2.506	2.240	2.316	2.382	3.797	8.138	15.65	97.16	460.1	448.9	42.51	1.098	0.686
590.0	49.60	55.01	63.38	58.45	59.08	61.25	66.28	77.58	99.23	156.7	197.2	134.1	102.4	88.27	545.1	 2001	395.0	19.65	17.66	17.17	15.60	14.93	14.89	14.12	14.72	14.14	13.88	14.82	14.05	13.98	13.76	13.33	11.72	11.73	10.75	10.27	9.604	10.04	9.364	8.862	8.261	7.783	7.357	6.745	6.687	6.373	6.088	5.904	5.499	5.194	4.726	4.666	4.387	5.103	5.906	5.320	3.978	3.625	3.111	2.988	2.814	2.647	2.822	2.857	2.478	2.106	1.911	1.779	2.098	2.914	4.660	22.68	117.2	315.0	401.0	139.5	6.244
595.0	48.28	58.15	70.21	64.77	64.72	65.34	67.13	72.84	94.60	120.7	194.1	150.2	102.9	71.58	154.1	955.7	 1524	43.68	15.85	12.52	11.69	12.97	11.62	11.86	11.69	10.72	11.38	11.96	11.33	11.25	11.37	10.60	9.500	9.742	9.141	8.583	8.021	8.108	6.961	7.248	6.949	6.185	5.864	5.622	5.417	5.621	4.701	4.955	4.843	3.974	3.812	4.012	3.531	3.857	4.365	5.554	3.961	3.468	2.954	2.941	2.211	2.522	2.404	2.335	2.825	2.160	1.974	1.863	1.739	1.850	2.021	5.891	27.08	71.98	184.6	440.9	59.44
600.0	46.16	58.16	64.45	68.37	63.59	53.58	68.24	77.34	85.68	101.9	175.0	174.9	102.5	65.57	66.74	294.8	 1946	166.6	13.39	11.35	11.93	10.17	9.941	9.793	9.844	9.641	10.18	9.363	9.087	9.430	9.699	9.141	8.786	8.299	7.851	6.949	6.950	6.330	6.438	5.962	5.717	5.442	5.301	5.301	4.604	4.601	4.019	4.681	4.188	3.442	3.088	3.400	3.112	2.927	3.684	4.558	3.820	3.379	2.627	2.397	2.308	2.259	1.715	1.921	2.300	2.598	2.023	1.594	1.612	1.362	1.335	2.114	6.846	16.86	45.22	248.7	371.9
605.0	43.44	56.05	66.15	61.69	60.48	55.30	69.07	70.32	87.35	94.83	141.8	189.7	107.2	67.84	48.04	92.95	 1275	986.4	16.44	10.02	9.415	9.437	8.179	8.343	7.868	8.355	8.661	8.169	7.825	8.304	7.743	7.503	7.672	7.029	6.656	6.001	5.990	5.803	5.063	5.636	4.682	4.765	4.521	3.957	3.936	4.058	3.789	3.846	3.178	3.311	2.793	2.815	2.492	2.490	2.480	3.593	3.560	3.284	2.529	2.142	1.851	1.791	1.617	1.931	1.817	2.282	1.994	1.331	1.415	1.232	1.313	1.369	2.400	4.570	10.88	64.68	277.4
610.0	39.15	56.02	59.01	57.59	51.05	53.56	60.89	65.69	77.73	86.69	112.2	167.3	125.4	66.63	42.52	41.39	392.8	 1512	300.1	10.34	7.855	8.046	6.991	7.232	6.496	7.111	6.990	6.964	6.534	6.654	6.569	6.552	5.897	5.898	5.344	5.118	4.954	4.608	4.287	4.540	3.710	3.953	3.600	3.375	3.333	3.318	3.076	2.900	2.763	2.880	2.322	2.374	2.202	2.314	2.108	2.459	2.920	3.517	2.484	1.943	1.799	1.607	1.653	1.715	1.541	1.730	1.854	1.650	1.221	1.039	1.166	1.166	1.303	1.617	3.003	15.08	71.65
615.0	42.15	51.54	55.93	50.82	45.49	52.36	62.05	61.57	72.31	82.79	89.81	128.4	149.9	72.82	42.29	29.24	103.3	726.4	 1194	28.41	7.053	7.142	6.041	5.660	5.319	5.462	6.253	5.549	5.747	5.155	5.477	5.373	5.262	4.558	4.370	4.231	3.951	3.724	3.665	3.591	3.154	3.137	2.944	2.896	2.462	2.404	2.455	2.290	2.238	2.314	2.095	1.808	1.842	1.760	1.975	1.821	1.973	2.409	2.573	1.673	1.510	1.410	1.425	1.324	1.333	1.359	1.521	1.500	1.389	1.065	1.068	0.860	0.894	0.902	1.310	3.878	16.51
620.0	34.18	43.42	55.14	40.57	47.34	45.73	59.04	57.29	77.14	76.46	89.88	103.8	140.8	77.04	43.10	26.27	37.96	220.1	 1536	134.0	5.994	6.404	5.965	4.617	4.619	4.836	5.417	5.008	5.095	4.222	4.550	4.635	3.973	3.785	3.967	3.478	3.264	3.145	3.105	2.975	2.895	2.675	2.526	2.360	2.606	2.102	2.450	1.804	1.995	1.834	1.941	1.706	1.815	1.556	1.512	1.436	1.599	1.759	2.482	1.935	1.544	1.401	1.271	1.083	1.134	1.263	1.222	1.382	1.560	1.109	0.906	0.733	0.738	0.726	0.826	1.729	4.172
625.0	33.25	35.56	49.90	42.46	43.49	41.38	46.76	48.32	59.46	70.33	78.32	90.55	120.1	93.42	40.12	24.79	21.89	62.22	 1008	810.4	10.09	5.701	5.303	4.230	4.283	4.386	4.189	4.549	3.559	4.053	4.611	3.611	3.710	3.061	3.379	3.162	2.698	2.833	2.513	2.747	2.681	2.294	2.368	1.925	2.329	2.048	2.266	1.746	1.790	1.891	1.612	1.255	1.723	1.396	1.311	1.249	1.494	1.617	1.894	1.884	1.482	1.287	1.264	1.083	1.178	1.132	1.015	1.078	1.483	1.313	1.031	0.816	0.784	0.673	0.569	0.745	1.555
630.0	33.98	36.63	45.05	44.35	38.34	41.13	45.82	51.44	55.60	63.57	73.04	78.99	89.84	104.0	46.51	25.51	18.57	24.92	306.5	 1236	237.8	5.778	4.558	4.101	3.663	4.031	3.687	3.536	3.084	3.419	3.616	3.231	2.936	2.625	2.669	2.426	2.440	2.299	2.380	2.102	2.045	2.033	1.900	1.776	1.822	1.989	1.670	1.552	1.690	1.437	1.199	0.920	1.309	1.207	1.160	1.059	1.232	1.100	1.398	1.579	1.555	1.233	1.221	0.880	1.017	1.057	0.914	1.012	1.155	1.020	1.032	0.747	0.683	0.558	0.652	0.695	0.889
635.0	35.17	43.40	43.98	36.88	31.55	35.14	45.97	52.16	51.69	57.17	71.82	75.77	75.94	90.88	64.97	30.24	21.54	18.47	77.80	596.2	973.9	20.07	3.875	3.524	3.026	3.586	2.970	3.294	2.803	2.716	2.728	2.763	2.630	2.678	2.149	2.041	2.122	1.860	1.964	1.722	1.606	1.887	1.651	1.643	1.603	1.714	1.266	1.346	1.524	0.998	0.963	0.969	1.044	1.081	0.816	0.976	0.927	1.029	0.942	1.204	1.019	1.325	1.165	0.877	0.973	0.830	0.742	0.904	1.067	0.704	0.995	0.829	0.648	0.761	0.815	0.546	0.618
640.0	34.11	50.24	41.31	40.73	27.17	32.15	38.72	44.49	56.60	59.17	65.06	76.19	73.33	78.84	81.51	34.55	21.31	17.86	26.93	178.2	 1239	112.1	4.001	3.582	3.280	3.597	2.994	2.474	2.979	2.433	2.118	2.502	2.161	2.200	1.784	1.979	1.815	1.716	1.681	1.308	1.661	1.606	1.600	1.494	1.275	1.449	1.189	1.204	1.383	0.918	0.855	1.001	0.969	0.904	0.954	0.956	0.751	0.790	0.826	0.916	1.140	1.250	1.172	0.850	0.750	0.849	0.901	0.871	0.847	0.705	0.874	0.808	1.032	0.605	0.592	0.725	0.481
645.0	37.71	51.81	43.82	40.87	26.90	34.82	36.62	43.55	49.88	55.85	70.21	77.08	71.38	68.47	83.23	42.10	23.03	17.78	16.47	48.80	815.9	650.1	6.515	3.669	2.634	2.589	2.373	2.479	2.587	2.270	1.971	2.285	1.983	2.025	1.637	1.683	1.666	1.749	1.397	1.384	1.445	1.283	1.211	1.277	1.221	1.400	1.001	1.083	1.050	0.714	0.814	0.660	0.837	0.875	0.726	0.917	0.788	0.841	0.816	0.719	0.857	1.123	0.982	0.867	0.712	0.671	0.854	0.999	0.822	0.985	0.689	0.791	1.009	0.656	0.672	0.569	0.382
650.0	33.68	42.58	45.69	44.88	30.11	31.93	33.00	40.59	40.04	47.45	56.75	71.01	65.27	60.37	68.26	51.17	23.75	17.85	13.70	18.39	303.1	 1094	55.35	3.671	3.086	2.284	2.188	1.839	2.138	2.079	1.961	2.146	1.791	1.768	1.409	2.078	1.664	1.224	1.461	1.336	1.130	1.148	1.232	1.027	0.968	1.146	1.067	1.004	1.046	0.698	0.784	0.743	0.906	0.865	0.772	0.743	0.850	0.723	0.590	0.790	0.617	1.000	0.992	0.985	0.747	0.799	0.749	1.064	0.948	0.895	0.526	0.649	0.930	0.863	0.781	0.589	0.515
