Sample:	'1
File name:	G2025051412晋控明水循环水2.FD3
Run date:	'14:06:41, 05/21/2025
Operator:	Administrator
Comment:	'

Instrument
Model:	F-2700 FL Spectrophotometer
Serial number:	23B8-004
ROM Version:	4J14000 07

Instrument parameters
Measurement type:	3-D scan
Data mode:	Fluorescence
EX  Start WL:	220.0 nm
EX  End WL:	600.0 nm
EX Sampling interval:	5.0 nm
EM  Start WL:	230.0 nm
EM  End WL:	650.0 nm
EM Sampling interval:	5.0 nm
Scan speed:	12000 nm/min
EX Slit:	5.0 nm
EM Slit:	5.0 nm
PMT Voltage:	700 V
Response:	Auto 
Corrected spectra:	Off
Contour interval:	50.000

Peak integration
Integration method:	Rectangular
Sensitivity:	1
Threshold:	1.000

Peaks
No.	ApexEX/EM(nm)	Height(Data)
1	225.0/570.0	27.22
2	225.0/580.0	27.00
3	230.0/565.0	29.43
4	235.0/515.0	173.3
5	240.0/265.0	358.1
6	240.0/385.0	1904
7	240.0/400.0	1569
8	240.0/525.0	175.4
9	245.0/270.0	374.2
10	245.0/535.0	163.8
11	250.0/275.0	490.8
12	250.0/550.0	138.0
13	255.0/280.0	555.5
14	255.0/565.0	120.5
15	260.0/290.0	506.1
16	260.0/575.0	104.8
17	265.0/295.0	624.6
18	265.0/585.0	90.92
19	270.0/300.0	854.0
20	270.0/600.0	82.06
21	275.0/305.0	857.2
22	275.0/340.0	492.8
23	275.0/610.0	67.65
24	280.0/385.0	2802
25	280.0/400.0	2222
26	280.0/625.0	59.20
27	285.0/320.0	745.5
28	285.0/635.0	41.96
29	290.0/325.0	657.9
30	300.0/335.0	427.5
31	305.0/345.0	395.1
32	310.0/350.0	320.2
33	315.0/355.0	318.0
34	320.0/365.0	317.0
35	335.0/385.0	877.6
36	355.0/385.0	1439
37	355.0/405.0	1253
38	370.0/405.0	1333
39	400.0/465.0	63.64
40	415.0/485.0	37.06
41	425.0/500.0	26.02
42	430.0/505.0	22.64
43	440.0/520.0	16.24
44	455.0/540.0	8.887
45	470.0/560.0	4.172
46	475.0/565.0	3.434
47	485.0/385.0	7.778
48	505.0/275.0	2.924
49	510.0/280.0	3.355
50	520.0/285.0	3.451
51	530.0/290.0	3.194
52	540.0/295.0	4.260
53	545.0/300.0	4.876
54	545.0/385.0	8.879
55	550.0/305.0	4.836
56	560.0/310.0	4.066
57	570.0/315.0	4.875
58	570.0/385.0	15.20
59	580.0/320.0	4.407
60	585.0/325.0	4.087

Data points
	220.0	225.0	230.0	235.0	240.0	245.0	250.0	255.0	260.0	265.0	270.0	275.0	280.0	285.0	290.0	295.0	300.0	305.0	310.0	315.0	320.0	325.0	330.0	335.0	340.0	345.0	350.0	355.0	360.0	365.0	370.0	375.0	380.0	385.0	390.0	395.0	400.0	405.0	410.0	415.0	420.0	425.0	430.0	435.0	440.0	445.0	450.0	455.0	460.0	465.0	470.0	475.0	480.0	485.0	490.0	495.0	500.0	505.0	510.0	515.0	520.0	525.0	530.0	535.0	540.0	545.0	550.0	555.0	560.0	565.0	570.0	575.0	580.0	585.0	590.0	595.0	600.0
230.0	25.16	207.0	799.7	370.0	26.07	6.462	5.358	4.449	4.019	3.690	3.433	2.889	2.752	2.223	1.807	1.568	1.312	1.161	1.071	0.946	0.941	0.799	0.865	0.772	0.726	0.720	0.771	0.812	0.644	0.700	0.717	0.650	0.545	0.486	0.471	0.409	0.463	0.405	0.363	0.383	0.394	0.355	0.412	0.365	0.350	0.302	0.466	1.433	2.904	2.583	1.393	0.467	0.278	0.285	0.290	0.280	0.272	0.263	0.271	0.257	0.274	0.249	0.283	0.258	0.271	0.298	0.272	0.267	0.297	0.266	0.297	0.284	0.291	0.290	0.269	0.280	0.289
235.0	38.42	70.29	588.9	1504	524.7	48.73	7.571	5.429	4.012	3.768	3.565	2.708	3.261	2.249	1.885	1.557	1.424	1.237	1.126	1.119	0.927	0.770	0.862	0.953	0.714	0.694	0.798	0.707	0.673	0.728	0.647	0.656	0.676	0.635	0.421	0.460	0.395	0.405	0.399	0.451	0.399	0.369	0.458	0.392	0.395	0.346	0.399	0.565	1.264	2.823	5.171	6.629	3.685	0.956	0.275	0.255	0.272	0.268	0.226	0.308	0.310	0.264	0.233	0.262	0.299	0.255	0.251	0.256	0.289	0.277	0.268	0.276	0.370	0.325	0.245	0.262	0.284
240.0	50.28	59.60	190.2	1385	2309	437.1	26.77	5.919	5.084	4.395	3.912	2.901	2.972	2.611	2.252	1.651	1.296	1.312	1.046	1.099	1.010	0.844	0.923	0.966	0.824	0.755	0.706	0.838	0.680	0.764	0.743	0.655	0.643	0.477	0.418	0.466	0.388	0.380	0.419	0.440	0.468	0.375	0.397	0.407	0.389	0.483	0.432	0.433	0.495	0.944	2.833	8.150	11.40	9.137	3.250	0.682	0.297	0.263	0.250	0.285	0.298	0.280	0.230	0.261	0.241	0.291	0.269	0.264	0.244	0.310	0.276	0.278	0.288	0.288	0.312	0.307	0.348
245.0	52.83	90.10	85.17	477.9	2399	2594	327.0	12.38	6.331	4.456	4.512	3.835	2.969	2.371	1.953	1.900	1.290	1.384	1.227	1.107	0.889	0.892	0.850	0.996	0.900	0.800	0.898	0.723	0.644	0.809	0.656	0.659	0.663	0.528	0.455	0.421	0.333	0.392	0.407	0.412	0.459	0.348	0.387	0.417	0.367	0.492	0.517	0.511	0.379	0.386	0.835	2.922	7.915	14.24	15.18	8.670	2.338	0.448	0.304	0.307	0.323	0.308	0.333	0.296	0.254	0.328	0.257	0.282	0.307	0.330	0.306	0.258	0.313	0.283	0.371	0.242	0.323
250.0	34.80	75.14	154.1	183.8	754.4	2475	3346	1137	67.43	6.442	4.964	4.363	3.343	2.870	2.241	1.865	1.569	1.433	1.224	1.189	1.020	0.881	0.776	0.903	0.845	0.761	0.873	0.750	0.723	0.754	0.751	0.781	0.552	0.545	0.490	0.407	0.405	0.403	0.391	0.405	0.361	0.380	0.377	0.353	0.386	0.362	0.383	0.567	0.660	0.602	0.633	0.925	2.074	4.667	8.818	14.23	17.78	15.91	9.227	2.581	0.518	0.344	0.289	0.329	0.303	0.317	0.291	0.318	0.272	0.299	0.308	0.269	0.339	0.291	0.302	0.307	0.365
255.0	33.69	39.04	122.9	268.2	254.2	626.4	2531	5154	1539	57.57	7.304	5.777	4.504	3.225	2.420	2.299	1.732	1.630	1.250	1.357	0.978	1.191	0.862	0.801	0.907	0.910	0.873	0.833	0.751	0.800	0.827	0.716	0.575	0.610	0.440	0.394	0.429	0.380	0.419	0.348	0.407	0.453	0.444	0.340	0.448	0.379	0.312	0.365	0.477	0.665	1.135	1.162	0.951	1.327	2.292	3.595	6.374	15.56	28.47	26.97	14.38	2.857	0.416	0.355	0.309	0.330	0.279	0.300	0.271	0.341	0.351	0.297	0.319	0.306	0.256	0.309	0.317
260.0	31.46	28.83	49.77	251.0	299.0	199.3	779.7	4166	5591	269.1	26.55	7.107	5.186	3.755	2.829	2.222	1.850	1.712	1.533	1.213	1.122	1.085	0.966	0.952	0.902	0.860	0.859	0.864	0.739	0.858	0.949	0.744	0.561	0.518	0.463	0.415	0.456	0.411	0.370	0.429	0.510	0.478	0.417	0.376	0.452	0.369	0.277	0.356	0.343	0.385	0.762	1.496	1.718	1.111	0.844	1.137	1.780	4.349	12.19	26.15	36.19	24.99	10.38	1.528	0.327	0.332	0.312	0.311	0.317	0.315	0.301	0.304	0.313	0.325	0.296	0.316	0.324
265.0	36.62	24.49	25.12	116.0	358.1	238.7	212.2	1401	5832	5310	213.9	11.86	7.070	4.920	3.458	2.545	2.135	1.761	1.601	1.356	1.150	1.048	1.074	0.914	0.987	0.948	0.818	0.881	0.794	0.868	0.899	0.710	0.685	0.577	0.424	0.504	0.436	0.465	0.415	0.371	0.424	0.375	0.447	0.444	0.492	0.396	0.326	0.396	0.346	0.335	0.393	0.764	1.602	2.023	1.451	0.771	0.714	1.306	3.168	7.820	19.62	34.87	33.44	22.20	5.906	0.713	0.376	0.328	0.320	0.328	0.358	0.336	0.366	0.352	0.332	0.306	0.360
270.0	38.32	27.32	23.47	42.92	179.4	374.2	275.8	366.7	1877	5427	6318	802.9	42.78	7.059	4.356	3.216	2.667	2.052	1.661	1.377	1.361	1.121	1.086	1.004	1.096	0.897	0.933	0.906	0.934	0.948	0.982	0.825	0.681	0.600	0.493	0.564	0.486	0.445	0.424	0.324	0.424	0.363	0.405	0.392	0.458	0.406	0.367	0.334	0.340	0.309	0.326	0.436	0.696	1.204	1.824	2.035	1.921	1.073	1.085	2.167	4.894	10.25	18.16	30.29	32.17	32.59	15.08	5.180	0.740	0.373	0.340	0.348	0.379	0.351	0.296	0.383	0.418
275.0	40.53	38.05	30.68	30.84	61.37	182.0	490.8	319.8	466.2	1381	4910	8863	1059	30.81	6.801	4.712	3.229	2.548	2.342	1.569	1.376	1.089	1.094	1.159	1.085	1.047	1.109	0.961	0.896	0.823	0.906	0.872	0.667	0.647	0.632	0.593	0.489	0.453	0.498	0.396	0.402	0.396	0.441	0.382	0.492	0.438	0.390	0.447	0.388	0.333	0.352	0.336	0.455	0.571	0.778	1.145	2.238	2.924	2.152	1.192	1.485	2.723	4.522	7.326	10.29	23.34	45.15	51.34	22.88	5.404	0.507	0.375	0.434	0.364	0.289	0.399	0.356
280.0	57.12	51.91	49.51	33.59	38.92	76.63	324.0	555.5	245.1	366.1	1494	7412	7865	146.0	14.06	5.998	3.825	2.991	2.445	1.923	1.598	1.367	1.337	1.291	1.230	1.163	1.101	0.970	0.898	0.867	0.908	0.928	0.746	0.564	0.623	0.523	0.520	0.412	0.397	0.496	0.441	0.396	0.459	0.426	0.459	0.410	0.458	0.407	0.428	0.417	0.327	0.391	0.397	0.465	0.460	0.615	1.140	2.306	3.355	3.020	1.566	1.083	1.460	2.150	2.900	6.267	16.28	36.87	54.22	32.67	17.22	2.310	0.485	0.444	0.363	0.347	0.422
285.0	63.11	70.05	61.56	48.61	41.30	53.15	138.8	510.2	349.6	180.4	418.1	2416	8766	5979	106.3	8.258	4.982	3.608	2.703	2.109	2.120	1.894	1.418	1.349	1.281	1.154	1.046	1.024	1.001	0.944	0.922	0.999	0.748	0.623	0.564	0.591	0.493	0.500	0.456	0.546	0.532	0.440	0.455	0.476	0.495	0.430	0.488	0.505	0.509	0.453	0.412	0.422	0.437	0.430	0.444	0.512	0.661	1.029	1.867	3.387	3.451	2.070	1.081	1.020	1.273	2.045	4.258	9.805	22.25	42.37	57.52	28.82	9.945	0.999	0.446	0.379	0.460
290.0	70.04	88.87	92.53	72.80	56.62	58.66	85.65	225.6	506.1	466.8	246.8	656.3	2706	6479	6055	426.9	20.85	5.041	3.776	2.957	2.276	1.846	1.688	1.556	1.418	1.108	1.154	1.251	1.081	0.944	1.048	0.920	0.833	0.666	0.629	0.601	0.576	0.487	0.512	0.506	0.541	0.489	0.511	0.451	0.479	0.485	0.537	0.589	0.566	0.484	0.454	0.521	0.459	0.469	0.547	0.495	0.578	0.710	0.894	1.451	2.307	3.188	3.194	2.463	1.506	1.268	1.690	2.982	5.646	11.39	22.04	31.90	41.06	37.74	18.72	8.170	1.194
295.0	82.23	105.0	121.8	103.4	79.99	76.62	92.82	133.2	257.7	624.6	594.4	317.9	728.2	1635	4646	6523	587.3	16.15	4.865	3.791	2.894	2.218	1.711	1.759	1.698	1.343	1.397	1.410	1.221	1.053	1.151	1.073	0.791	0.716	0.728	0.559	0.631	0.584	0.588	0.523	0.523	0.576	0.471	0.422	0.469	0.537	0.569	0.606	0.646	0.534	0.548	0.704	0.572	0.538	0.652	0.724	0.670	0.714	0.800	0.939	1.164	1.643	2.108	3.705	4.260	2.871	1.570	1.648	2.105	3.375	5.662	7.911	10.98	18.97	39.43	54.34	29.37
300.0	79.53	122.5	145.0	129.1	100.6	97.27	117.7	140.4	203.9	413.0	854.0	470.9	322.9	485.7	1350	6043	5428	83.76	8.741	5.019	3.509	2.539	1.998	2.113	1.603	1.537	1.328	1.462	1.246	1.017	1.111	1.134	0.806	0.791	0.759	0.598	0.480	0.575	0.553	0.599	0.494	0.444	0.576	0.498	0.509	0.587	0.544	0.612	0.699	0.586	0.591	0.725	0.682	0.644	0.694	0.720	0.749	0.829	0.909	0.934	1.183	1.080	1.271	2.359	3.677	4.876	3.658	1.885	1.717	1.790	2.194	2.492	3.271	4.979	11.93	29.58	51.32
305.0	82.71	132.5	161.9	147.3	121.4	118.7	146.9	181.4	227.5	329.1	687.6	857.2	369.2	273.5	410.3	1949	6967	4146	62.57	6.505	4.286	3.231	2.509	2.226	1.592	1.443	1.540	1.464	1.081	1.051	1.097	1.001	0.901	0.897	0.682	0.599	0.572	0.614	0.571	0.553	0.576	0.494	0.526	0.523	0.534	0.611	0.573	0.668	0.697	0.679	0.678	0.732	0.700	0.738	0.749	0.764	0.819	0.959	1.099	1.036	1.410	1.337	1.372	1.902	2.217	3.713	4.836	4.465	2.707	1.970	1.667	1.720	1.751	2.012	3.361	7.687	17.70
310.0	97.72	137.5	186.2	162.6	144.6	148.5	172.4	210.9	265.6	334.0	474.2	770.4	743.6	351.0	241.4	534.3	2163	4998	4572	291.5	14.47	4.222	3.191	2.546	1.851	1.705	1.653	1.677	1.442	1.351	1.321	1.145	0.968	0.858	0.679	0.639	0.632	0.634	0.563	0.581	0.532	0.508	0.543	0.506	0.533	0.574	0.592	0.716	0.753	0.729	0.744	0.804	0.804	0.807	0.822	0.897	0.997	1.082	1.109	1.248	1.376	1.506	1.766	1.958	2.047	2.378	3.005	3.883	4.066	3.954	3.043	1.957	1.586	1.482	1.689	2.519	4.666
315.0	95.12	143.1	184.5	175.2	163.6	164.0	198.7	237.4	290.2	353.6	433.9	536.5	709.4	689.6	277.6	233.6	563.2	1242	3714	4505	423.3	10.67	4.578	3.177	2.459	1.891	1.776	1.885	1.513	1.268	1.444	1.173	0.937	0.878	0.734	0.626	0.684	0.654	0.551	0.514	0.564	0.511	0.581	0.513	0.538	0.622	0.558	0.741	0.824	0.739	0.747	0.978	0.907	0.823	0.876	0.959	1.207	1.175	1.255	1.337	1.393	1.613	1.669	1.967	1.987	2.180	2.358	2.565	2.787	3.449	4.875	4.060	2.612	1.785	1.499	1.539	1.948
320.0	113.5	171.0	216.5	200.9	174.6	183.5	206.6	257.0	309.5	362.1	431.0	484.4	546.0	745.5	485.7	197.7	220.8	335.8	1052	4588	3934	62.32	6.840	4.029	3.241	1.981	2.011	2.163	1.486	1.306	1.517	1.335	1.011	0.938	0.833	0.716	0.727	0.691	0.532	0.568	0.609	0.469	0.552	0.615	0.615	0.596	0.697	0.799	0.868	0.855	0.805	0.918	0.902	0.933	0.885	0.996	1.106	1.132	1.204	1.355	1.556	1.629	1.799	2.122	2.089	2.164	2.294	2.522	2.451	2.636	3.256	4.009	4.407	3.134	1.996	1.417	1.353
325.0	113.4	193.4	270.1	235.8	194.6	196.1	216.4	268.5	319.4	378.8	442.6	480.8	483.2	564.2	657.9	286.0	153.0	140.9	276.2	1483	5236	3111	48.86	5.355	3.735	2.566	2.272	2.435	1.633	1.485	1.507	1.400	1.151	0.996	0.783	0.719	0.742	0.683	0.662	0.582	0.541	0.578	0.476	0.563	0.569	0.549	0.757	0.795	0.917	0.978	0.963	0.978	0.893	1.014	1.047	1.125	1.211	1.117	1.399	1.546	1.575	1.731	1.753	2.105	2.252	2.286	2.489	2.517	2.547	2.383	2.504	2.629	3.840	4.087	3.510	1.896	1.444
330.0	125.9	201.0	311.6	296.5	245.9	221.6	236.8	279.5	328.4	384.9	446.5	488.3	472.5	447.1	500.7	474.3	237.0	114.7	114.3	368.4	1638	3852	3567	234.7	12.33	3.668	2.740	2.656	1.967	1.594	1.639	1.586	1.229	1.053	0.808	0.776	0.741	0.700	0.700	0.587	0.530	0.552	0.511	0.529	0.504	0.615	0.678	0.895	1.043	1.052	1.031	1.062	1.020	1.156	1.047	1.174	1.301	1.361	1.404	1.603	1.607	1.832	1.914	1.995	2.211	2.244	2.348	2.466	2.558	2.439	2.541	2.302	2.607	2.913	3.196	3.123	2.799
335.0	127.4	231.8	349.6	351.7	290.6	258.5	270.2	294.9	335.0	399.0	455.2	491.5	474.7	426.2	373.4	385.1	427.5	185.9	94.67	130.0	399.3	951.1	3051	3616	355.0	9.408	3.740	3.139	2.457	1.880	1.786	1.636	1.039	1.120	0.870	0.788	0.799	0.707	0.644	0.504	0.596	0.506	0.518	0.644	0.597	0.581	0.724	0.904	1.222	1.231	1.220	1.433	1.156	1.288	1.294	1.263	1.298	1.478	1.480	1.562	1.783	1.768	2.027	2.033	2.202	2.170	2.264	2.485	2.538	2.429	2.442	2.084	2.298	2.264	2.257	2.205	2.948
340.0	121.8	236.5	381.9	390.8	327.3	298.4	307.6	318.4	356.8	401.9	455.6	492.8	474.5	431.7	355.4	302.4	397.5	332.8	122.5	88.71	132.4	244.8	872.5	3833	3266	53.64	5.808	3.827	2.637	1.993	2.017	1.558	1.162	1.122	0.876	0.857	0.774	0.744	0.716	0.552	0.573	0.467	0.486	0.530	0.547	0.708	0.791	1.045	1.251	1.321	1.274	1.590	1.328	1.526	1.429	1.268	1.488	1.597	1.560	1.745	1.772	1.881	2.079	2.147	2.534	2.230	2.492	2.592	2.539	2.523	2.490	2.278	2.172	2.220	1.957	1.912	2.080
345.0	131.9	232.2	387.2	419.2	384.5	348.1	349.9	355.8	386.2	413.9	456.2	477.0	471.4	425.7	351.3	278.4	290.3	395.1	223.9	88.97	86.02	97.16	227.2	1244	4341	2657	44.23	5.210	3.052	2.317	2.561	1.937	1.256	1.219	0.984	0.783	0.752	0.881	0.766	0.660	0.600	0.522	0.516	0.540	0.491	0.721	0.716	1.096	1.297	1.167	1.328	1.562	1.484	1.668	1.534	1.580	1.690	1.721	1.706	1.941	1.914	1.998	2.094	2.268	2.643	2.299	2.351	2.473	2.673	2.395	2.281	2.349	2.355	2.200	1.939	1.910	1.939
350.0	130.0	226.6	380.2	448.6	437.0	403.4	395.2	393.7	418.3	451.5	471.2	473.8	465.0	421.2	358.3	290.3	254.0	288.4	320.2	197.4	105.1	82.58	97.51	313.3	1355	3083	2898	217.0	12.13	3.262	2.786	2.264	1.562	1.331	1.093	0.901	0.793	0.806	0.625	0.587	0.638	0.552	0.518	0.551	0.543	0.689	0.766	0.998	1.213	1.279	1.299	1.672	1.749	1.782	1.819	1.766	1.782	2.000	1.887	2.052	1.988	2.147	2.305	2.270	2.429	2.368	2.255	2.361	2.396	2.310	2.252	2.382	2.170	2.175	1.976	1.937	1.833
355.0	115.4	223.7	358.0	463.8	467.6	450.3	446.4	429.9	437.1	466.6	480.7	475.4	462.6	424.7	371.5	304.7	263.6	244.3	256.0	318.0	194.4	104.5	87.29	120.8	339.1	756.4	2291	4611	339.7	11.31	3.999	3.304	1.979	1.363	1.249	0.928	0.817	0.729	0.680	0.596	0.603	0.596	0.526	0.618	0.618	0.721	0.742	0.992	1.254	1.257	1.313	1.716	1.849	1.891	1.965	1.930	2.045	2.187	2.095	2.096	2.024	2.244	2.355	2.400	2.447	2.370	2.389	2.408	2.490	2.222	2.482	2.374	2.151	2.177	2.030	1.919	2.010
360.0	119.6	204.6	371.4	466.5	502.4	486.9	468.6	465.5	468.5	480.1	483.0	478.6	460.0	428.2	378.7	320.1	280.8	249.3	229.4	289.2	298.2	154.7	101.0	93.13	123.8	204.4	640.7	3936	3011	52.60	8.967	5.611	3.025	1.518	1.271	0.922	0.831	0.834	0.792	0.621	0.697	0.596	0.583	0.557	0.563	0.656	0.721	0.940	1.217	1.271	1.495	1.921	1.826	2.060	2.091	2.084	2.001	2.145	2.358	2.063	2.151	2.184	2.302	2.548	2.547	2.319	2.369	2.347	2.466	2.267	2.399	2.200	2.198	2.199	2.122	2.046	2.212
365.0	122.5	211.8	368.7	477.2	534.0	523.3	512.0	488.6	494.1	493.2	499.8	491.1	476.9	440.4	385.4	329.6	298.7	268.7	242.5	245.7	317.0	251.0	134.8	105.3	93.72	94.97	185.0	1236	3456	2556	46.88	14.77	6.160	2.528	1.473	1.103	0.849	0.776	0.852	0.654	0.617	0.626	0.656	0.498	0.610	0.610	0.770	0.935	1.092	1.299	1.562	2.003	1.802	2.158	2.200	2.125	2.216	2.314	2.357	2.361	2.364	2.485	2.452	2.505	2.426	2.408	2.518	2.345	2.441	2.547	2.353	2.214	2.217	2.238	2.125	2.142	2.245
370.0	121.6	223.0	412.1	582.4	660.3	677.3	586.7	550.2	554.7	592.7	646.0	624.2	736.6	567.3	413.4	356.6	325.8	298.0	275.1	262.2	284.4	323.6	277.0	204.7	169.7	166.1	221.1	457.6	1135	2695	2825	815.5	81.69	16.99	3.837	1.795	1.266	1.044	0.798	0.812	0.706	0.749	0.668	0.573	0.577	0.608	0.777	1.073	1.150	1.371	1.696	2.237	2.425	2.848	2.847	2.533	2.542	2.533	2.458	2.696	2.516	2.728	2.777	2.848	3.012	3.155	3.131	2.995	3.183	3.678	3.758	2.886	2.446	2.476	2.317	2.321	2.308
375.0	135.1	296.1	608.0	888.2	1230	1158	783.4	687.6	746.5	876.7	1169	1121	1457	1062	494.1	405.6	367.3	354.1	334.6	339.5	357.9	377.8	495.8	474.8	421.4	428.0	695.0	806.3	644.8	1132	2692	4100	1090	79.49	12.42	4.017	2.134	1.428	1.103	0.932	0.928	0.917	0.783	0.712	0.696	0.790	0.981	1.316	1.675	1.906	2.584	3.583	4.227	4.876	4.839	4.089	3.537	3.096	2.849	3.139	3.475	3.572	3.774	4.097	5.178	5.517	4.932	4.551	5.658	8.594	8.922	5.512	3.185	2.758	2.714	2.601	2.412
380.0	157.6	354.2	757.2	1229	1689	1583	935.2	790.5	907.0	1128	1613	1558	2401	1474	563.5	441.0	400.5	393.7	386.4	404.8	440.6	458.5	600.1	784.1	693.1	723.7	1105	1230	885.6	1028	1877	3776	2944	303.9	22.12	6.052	2.872	1.868	1.355	1.159	1.085	0.912	0.840	0.767	0.814	0.920	1.007	1.452	2.142	2.498	3.249	4.592	5.741	7.015	6.752	5.021	4.046	3.654	3.135	3.305	3.916	4.102	4.244	5.168	6.675	8.292	6.590	6.153	7.932	12.81	12.81	7.222	3.801	3.012	2.970	2.680	2.792
385.0	177.5	363.7	846.8	1403	1904	1792	1013	841.1	980.1	1233	1804	1756	2802	1668	596.6	451.3	421.0	416.0	411.8	441.1	483.7	504.4	641.8	877.6	857.8	870.5	1314	1439	1030	1101	1759	2313	3083	2290	44.54	8.187	3.535	2.238	1.525	1.262	1.215	0.952	0.944	0.837	0.931	0.961	1.093	1.630	2.178	2.739	3.840	5.213	6.247	7.778	7.636	5.791	4.559	4.087	3.596	3.705	4.109	4.394	4.838	5.782	7.231	8.879	7.666	6.964	9.145	13.90	15.20	7.927	4.145	3.302	2.955	2.993	2.871
390.0	147.1	321.5	714.5	1186	1622	1510	914.1	773.8	879.7	1063	1503	1461	2292	1402	549.4	430.4	405.1	398.9	394.7	414.5	446.3	457.0	553.1	713.3	738.4	790.8	1091	1170	835.4	868.3	1343	1461	1165	1904	1960	573.6	13.24	2.430	1.679	1.291	1.036	0.926	0.943	0.853	0.790	0.892	1.092	1.478	1.922	2.429	3.198	4.459	5.208	6.538	6.584	4.921	4.247	3.567	3.433	3.331	3.704	4.098	4.378	4.774	5.963	7.513	6.425	6.092	7.580	11.60	12.30	6.857	3.794	3.252	2.802	2.869	2.733
395.0	130.8	308.0	669.7	1112	1497	1395	882.2	748.6	848.3	994.5	1402	1349	2105	1291	523.7	422.6	397.4	390.3	388.4	403.8	433.5	448.5	526.7	659.8	654.8	755.6	1070	1101	778.2	805.2	1226	1241	591.8	523.4	1147	2323	280.0	14.43	2.004	1.667	1.253	1.042	0.958	0.883	0.876	0.911	0.939	1.358	1.799	2.346	2.853	4.296	4.642	5.969	6.096	4.676	4.042	3.485	3.332	3.504	3.575	4.078	3.948	4.392	5.552	6.855	5.826	5.267	6.916	10.87	11.41	6.001	3.651	3.076	2.584	2.686	2.686
400.0	133.7	315.3	697.4	1159	1569	1458	918.6	758.9	865.4	1042	1467	1420	2222	1353	531.8	421.5	396.1	393.1	391.6	410.2	451.0	464.8	559.7	695.8	682.4	771.4	1173	1217	854.8	876.9	1328	1319	518.1	217.9	308.1	1460	2040	235.7	7.044	1.869	1.465	1.167	0.988	0.892	0.907	0.965	0.995	1.415	1.901	2.528	2.999	4.432	5.019	6.348	5.995	4.643	3.864	3.547	3.339	3.342	3.716	4.281	4.228	4.679	6.029	7.009	6.394	5.522	7.319	11.17	12.21	6.540	3.686	2.943	2.612	2.696	2.713
405.0	139.4	300.9	687.4	1152	1565	1456	891.5	751.7	851.1	1019	1451	1397	2203	1341	519.3	410.1	386.3	388.2	381.5	404.3	445.6	462.8	558.0	700.3	679.7	750.0	1146	1253	878.7	885.0	1333	1318	497.1	151.9	96.51	395.2	1606	1731	36.66	3.390	1.591	1.340	0.942	0.905	1.011	0.948	1.031	1.492	1.850	2.307	2.949	4.311	5.185	6.240	6.030	4.730	4.000	3.493	3.258	3.141	3.760	4.121	3.935	4.559	5.832	7.001	6.121	5.539	7.182	11.36	11.55	6.630	3.803	2.993	2.695	2.683	2.667
410.0	121.7	259.8	564.6	918.6	1240	1180	770.8	672.6	734.9	857.8	1158	1116	1665	1063	464.2	380.2	358.1	355.7	350.9	365.9	391.5	401.2	467.4	566.6	550.4	591.0	848.4	943.9	715.7	686.2	984.6	967.9	371.8	113.2	47.91	102.9	427.5	1210	1436	485.1	12.09	1.497	1.091	0.967	0.930	0.869	0.998	1.261	1.636	2.017	2.443	3.551	4.129	4.993	4.832	4.076	3.265	3.155	2.914	2.933	3.239	3.566	3.621	3.840	4.729	5.546	4.817	4.510	5.519	8.389	9.021	5.239	3.213	2.785	2.489	2.356	2.538
415.0	113.0	221.0	449.4	726.4	962.6	926.3	675.6	608.7	645.3	710.2	896.8	864.8	1216	803.0	408.4	347.8	331.3	321.7	319.2	326.5	340.4	347.6	385.4	447.4	437.8	457.2	617.9	657.4	529.3	537.1	693.0	660.1	263.8	90.22	39.13	41.22	106.8	282.0	710.2	1632	260.2	14.45	1.467	1.145	0.887	1.017	0.902	1.120	1.408	1.503	1.976	2.906	3.386	3.910	3.816	3.336	3.024	2.708	2.775	2.699	2.894	3.138	3.182	3.221	3.790	4.449	4.002	3.957	4.085	6.227	6.529	4.039	3.032	2.330	2.329	2.359	2.247
420.0	94.32	201.8	406.7	646.3	860.1	836.7	629.1	572.9	602.7	656.1	807.9	772.8	1047	705.9	384.1	327.3	315.0	306.1	300.5	303.0	316.5	324.8	356.9	404.2	395.1	414.2	539.3	567.5	447.0	482.3	620.8	566.3	234.1	85.74	39.86	30.43	37.77	73.10	178.0	923.4	1486	222.7	6.802	1.380	1.067	0.896	0.928	1.089	1.253	1.570	1.798	2.716	3.117	3.358	3.480	2.996	2.838	2.567	2.781	2.557	2.607	2.963	2.812	3.184	3.409	4.038	3.574	3.303	3.828	5.108	5.727	3.673	2.542	2.407	2.172	2.174	2.265
425.0	94.56	183.9	384.1	625.7	808.1	792.6	599.9	565.0	575.5	628.9	764.3	724.4	973.4	665.6	362.1	314.7	295.4	292.3	287.0	292.0	301.9	309.9	337.0	382.6	376.7	389.2	505.5	528.6	413.5	432.9	599.1	543.6	225.1	87.23	43.11	29.79	25.20	27.76	48.04	240.9	1053	1299	35.19	2.947	1.333	0.985	0.923	1.102	1.301	1.376	1.865	2.536	2.686	3.113	3.206	3.033	2.721	2.525	2.623	2.584	2.790	2.722	2.838	2.938	3.300	3.674	3.197	3.194	3.600	5.284	5.379	3.359	2.480	2.198	1.998	2.110	2.103
430.0	105.3	174.0	346.7	547.1	696.3	705.8	557.9	532.5	543.5	574.2	683.3	640.6	831.3	577.9	339.7	293.1	277.6	271.9	267.5	272.0	277.0	281.2	305.0	340.4	334.4	341.4	431.0	448.5	354.9	357.4	489.6	476.0	212.3	85.60	47.81	33.80	25.74	20.85	21.06	61.39	272.0	822.0	1079	401.6	11.69	1.435	1.095	1.092	1.260	1.383	1.654	2.059	2.400	2.849	2.942	2.683	2.528	2.404	2.427	2.435	2.626	2.592	2.680	2.704	3.146	3.254	3.037	2.903	3.224	4.350	4.396	3.157	2.215	2.032	1.901	2.099	1.970
435.0	159.1	155.1	298.5	465.6	578.1	598.9	515.6	494.9	510.0	524.4	582.0	538.8	649.2	471.5	310.2	273.1	259.4	252.8	244.8	243.5	250.4	250.2	265.9	291.3	279.3	284.3	338.9	348.2	282.4	277.7	349.9	347.6	197.6	90.67	52.08	37.22	29.22	22.42	17.89	23.58	67.58	191.0	507.7	1298	245.5	14.43	1.454	1.165	1.246	1.240	1.436	1.911	2.084	2.458	2.354	2.187	2.335	2.276	2.301	2.237	2.357	2.519	2.417	2.557	2.749	2.691	2.400	2.281	2.626	3.547	3.512	2.527	2.087	1.886	1.902	1.869	1.756
440.0	171.4	152.1	268.2	420.7	518.8	534.4	486.5	463.1	477.8	491.6	519.8	478.6	545.9	414.7	291.0	255.5	243.9	234.9	230.6	229.6	232.0	232.2	241.8	256.9	249.4	253.3	288.0	291.7	242.1	237.8	279.1	267.9	177.8	105.6	58.69	41.42	32.91	24.96	18.93	16.43	23.42	49.05	126.3	726.7	1264	209.8	6.759	1.420	1.294	1.296	1.338	1.816	1.904	2.159	2.216	2.236	2.181	2.213	2.223	2.096	2.186	2.253	2.077	2.301	2.579	2.406	2.285	2.283	2.358	3.086	2.845	2.382	2.039	1.884	1.746	1.639	1.712
445.0	162.6	184.7	234.9	388.5	466.5	488.1	459.8	453.9	462.0	460.6	474.2	451.4	484.8	379.2	283.5	245.6	232.3	222.9	216.7	218.0	220.4	216.3	224.2	234.5	228.6	230.8	255.8	257.5	222.3	215.9	242.0	226.6	147.5	114.5	72.44	44.24	35.04	26.79	21.03	16.28	14.64	17.78	34.05	189.9	907.1	1139	144.7	3.054	1.380	1.320	1.450	1.661	1.933	2.107	2.057	2.184	2.029	2.114	2.116	2.082	2.226	2.212	2.217	2.121	2.390	2.430	2.166	2.298	2.383	2.588	2.650	2.110	1.717	1.870	1.677	1.512	1.664
450.0	123.3	271.1	249.6	347.7	429.8	444.2	430.6	427.7	432.5	436.3	440.7	412.3	426.4	344.4	263.1	226.6	212.7	206.6	200.1	199.9	197.6	195.2	202.7	211.8	207.6	207.5	227.8	229.7	200.6	194.1	214.0	196.5	125.8	100.2	86.88	57.74	38.80	29.72	23.56	18.35	14.64	12.46	14.27	47.47	234.3	720.0	975.5	348.6	9.979	1.462	1.431	1.680	1.692	1.850	1.901	1.960	1.983	1.936	1.960	2.041	2.005	2.164	2.143	1.941	2.063	2.201	2.148	2.056	2.122	2.296	2.366	1.907	1.583	1.635	1.543	1.431	1.623
455.0	75.77	296.0	394.5	309.0	380.0	411.8	390.2	395.4	389.7	393.2	398.5	368.6	373.7	305.7	239.5	206.7	191.5	187.1	179.8	176.9	177.6	175.3	180.5	188.8	184.6	183.0	195.6	198.1	177.3	168.9	182.7	167.3	111.9	83.17	79.33	73.22	48.01	32.70	25.73	20.54	16.22	12.82	10.72	16.59	56.74	166.0	420.4	1051	202.5	11.88	1.479	1.642	1.646	1.655	1.941	1.862	1.800	1.775	1.898	1.926	1.792	1.947	2.014	1.926	1.811	1.931	1.960	1.813	1.874	1.936	1.988	1.608	1.595	1.486	1.542	1.240	1.700
460.0	64.66	241.1	598.7	340.5	341.5	380.5	371.5	370.6	370.6	371.5	370.4	340.9	331.8	273.3	220.5	192.4	179.1	171.3	166.0	162.6	161.1	161.8	163.6	169.3	166.1	166.5	174.1	174.5	156.6	152.3	158.0	145.0	101.3	76.38	68.78	72.11	59.05	36.16	26.56	22.29	16.96	13.56	10.95	10.42	17.52	41.22	102.3	562.1	969.3	159.6	6.677	1.815	1.742	1.711	1.836	1.837	1.706	1.641	1.825	1.714	1.871	1.960	2.051	1.813	1.730	1.899	1.718	1.612	1.689	1.701	1.781	1.510	1.621	1.277	1.401	1.417	1.512
465.0	63.13	151.8	731.7	526.0	308.1	341.7	343.7	343.6	354.0	344.2	340.9	312.9	299.3	250.6	201.0	180.7	165.3	159.7	153.6	149.9	148.1	147.2	149.0	154.0	148.6	147.9	154.8	155.5	141.5	138.2	139.2	127.9	93.88	72.54	62.44	62.45	63.64	42.90	28.84	22.54	17.97	14.36	11.55	9.158	9.311	13.54	26.65	145.2	692.6	830.5	128.1	3.342	1.704	1.696	1.538	1.709	1.630	1.619	1.750	1.768	1.800	1.837	1.882	1.697	1.577	1.692	1.728	1.638	1.544	1.658	1.645	1.522	1.396	1.426	1.405	1.185	1.379
470.0	63.29	106.1	508.9	1042	414.6	301.2	311.1	307.0	322.0	313.0	305.0	281.9	264.1	220.3	182.3	164.2	151.1	143.4	136.7	133.4	131.2	128.4	131.0	133.2	130.7	130.2	133.9	134.0	124.2	120.5	122.3	110.0	84.55	69.06	57.51	51.91	53.36	50.84	35.41	23.73	18.54	14.75	12.26	9.619	8.076	8.148	9.917	35.86	178.3	516.8	667.4	263.2	9.917	1.725	1.531	1.541	1.729	1.576	1.623	1.670	1.684	1.813	1.626	1.632	1.464	1.600	1.561	1.493	1.414	1.421	1.466	1.394	1.267	1.345	1.196	1.200	1.228
475.0	71.39	86.47	241.0	1183	981.2	283.1	281.9	284.0	289.7	278.0	275.4	249.8	230.6	195.7	162.5	147.0	133.2	127.0	120.7	118.5	115.3	113.8	115.7	116.2	114.2	115.1	117.2	113.8	109.0	105.6	104.6	95.84	76.81	61.94	53.52	47.12	42.48	45.00	42.71	27.69	19.58	15.43	12.42	10.12	8.576	7.248	6.455	11.46	42.67	118.7	275.8	693.9	195.1	12.25	1.572	1.452	1.526	1.455	1.560	1.436	1.577	1.646	1.514	1.479	1.398	1.522	1.359	1.434	1.384	1.244	1.343	1.172	1.145	1.237	1.115	1.057	1.058
480.0	61.85	87.90	150.0	825.0	1589	380.4	258.8	262.6	267.3	256.1	253.1	232.7	214.8	183.5	151.3	133.9	122.0	115.5	109.9	106.3	105.5	102.7	104.8	106.2	104.1	103.9	106.2	105.1	100.9	96.91	94.67	86.59	70.40	60.01	50.50	44.78	38.98	37.22	42.20	32.97	21.81	16.14	12.73	10.89	9.114	6.980	5.956	6.322	12.67	29.14	67.19	356.1	685.6	170.1	5.667	1.534	1.495	1.585	1.560	1.512	1.499	1.473	1.402	1.285	1.438	1.384	1.403	1.308	1.314	1.218	1.197	1.185	1.126	1.257	1.040	1.046	1.076
485.0	56.06	98.89	120.8	406.2	1759	795.0	243.2	248.0	249.7	242.2	237.5	219.6	197.7	167.7	142.1	123.9	114.9	108.9	101.7	99.23	97.61	97.05	95.97	96.59	95.56	93.85	95.27	95.87	92.75	89.42	87.66	80.47	66.13	57.18	48.11	42.58	36.64	33.45	36.47	37.06	25.27	16.68	13.14	11.08	9.378	7.506	6.595	5.385	6.138	9.089	17.40	92.22	478.7	646.0	28.18	2.793	1.612	1.503	1.374	1.374	1.541	1.317	1.362	1.254	1.413	1.338	1.227	1.195	1.296	1.212	1.187	1.101	1.075	1.032	0.936	0.951	1.039
490.0	47.97	107.0	122.5	213.8	1107	1639	356.5	232.1	229.1	221.8	215.0	198.9	178.3	151.5	130.5	114.1	105.3	99.23	92.62	89.53	87.74	87.27	86.02	87.45	86.12	85.29	84.70	86.72	83.77	80.48	78.74	72.36	60.54	53.40	46.21	40.26	35.04	31.47	29.06	31.69	30.35	20.38	13.57	11.58	9.549	8.180	7.093	5.523	4.996	4.852	6.391	23.04	123.3	380.0	538.3	234.5	10.86	1.622	1.381	1.332	1.413	1.261	1.384	1.241	1.320	1.219	1.108	1.076	1.239	1.056	1.067	0.960	1.026	0.919	0.999	1.054	0.917
495.0	45.04	101.6	136.8	165.9	423.6	1758	1048	215.0	210.5	203.2	195.8	181.4	159.8	138.7	117.6	103.6	92.91	89.09	83.75	81.15	77.26	77.66	76.62	75.34	75.99	76.18	75.67	75.19	75.21	72.44	69.93	64.61	55.28	49.76	42.36	37.51	33.47	28.55	26.20	24.15	27.61	25.81	16.53	11.80	9.875	8.592	6.834	5.959	5.202	4.388	4.084	7.717	29.47	87.53	247.1	644.9	217.1	13.51	1.546	1.350	1.301	1.146	1.321	1.228	1.107	1.132	1.042	0.990	0.983	1.088	1.040	1.068	0.961	0.896	0.842	0.881	0.953
500.0	45.22	71.11	141.4	146.0	218.5	1146	1802	298.1	188.6	187.4	178.6	165.4	147.7	120.2	108.2	94.49	86.67	79.44	76.61	71.58	70.42	69.50	69.06	69.54	68.95	68.98	67.62	66.60	67.11	65.57	63.08	59.08	51.20	46.10	39.38	35.51	31.10	27.51	24.79	21.34	22.70	26.02	20.10	12.90	9.544	8.371	7.054	5.892	5.418	4.327	3.839	3.974	8.663	21.50	60.39	327.9	652.2	179.8	6.566	1.423	1.428	1.153	1.292	1.140	1.106	1.133	1.113	0.999	1.070	0.866	0.906	0.948	0.961	0.836	0.936	0.809	0.863
505.0	42.72	54.44	143.9	150.8	156.0	548.9	2108	670.0	178.4	171.4	167.6	156.0	135.9	112.2	98.19	86.63	77.98	74.07	69.04	67.13	64.04	63.03	63.47	62.43	63.82	62.99	62.47	61.39	60.11	60.50	57.76	54.26	46.70	41.48	36.31	33.19	29.13	26.23	23.65	20.28	19.43	21.54	22.64	14.93	10.20	8.693	7.073	5.943	5.182	4.338	3.804	3.465	4.071	6.836	15.44	84.04	420.1	595.8	31.50	2.827	1.336	1.241	1.068	1.003	1.030	1.014	0.984	0.896	0.875	0.846	0.844	0.940	0.835	0.741	0.754	0.822	0.866
510.0	34.57	47.18	114.6	161.2	136.4	235.4	1330	1652	253.4	151.2	149.6	136.4	120.0	101.2	86.32	77.60	68.27	64.32	61.24	58.44	55.20	55.09	55.02	55.39	54.32	53.55	53.85	53.88	52.97	51.86	50.58	46.56	41.43	36.91	33.40	29.64	26.48	24.05	21.39	18.74	16.63	16.70	19.29	18.00	12.07	8.867	6.940	6.124	5.359	4.464	4.096	3.496	3.065	3.535	5.290	20.40	106.7	330.7	444.5	130.8	10.77	1.178	1.090	1.065	1.038	0.927	0.985	0.933	0.822	0.899	0.818	0.826	0.765	0.720	0.769	0.705	0.686
515.0	38.04	43.40	81.06	173.3	141.6	144.3	472.3	1977	878.4	140.2	129.5	121.7	104.9	90.09	76.77	66.89	59.98	55.08	53.50	50.95	49.40	47.88	47.37	46.12	46.72	46.52	46.13	45.41	45.66	45.51	43.31	40.09	35.91	33.06	29.10	26.69	23.68	22.15	19.19	17.10	14.98	13.78	14.33	16.50	15.00	9.614	6.905	5.838	5.461	4.344	3.920	3.694	2.962	2.789	2.885	6.141	25.37	75.54	181.1	470.7	208.2	12.40	1.168	0.994	0.919	0.904	0.878	0.880	0.979	0.842	0.704	0.746	0.790	0.771	0.771	0.702	0.666
520.0	34.80	48.14	62.22	141.9	158.7	119.3	201.3	1338	1761	196.0	116.2	105.3	96.06	80.57	68.07	60.76	54.56	49.27	47.37	44.64	43.46	42.38	43.61	41.72	41.93	40.89	41.14	40.32	40.91	40.01	38.84	35.57	32.84	29.40	26.90	23.82	21.34	19.97	17.29	15.72	13.84	12.07	12.05	13.06	16.24	11.64	7.098	5.814	4.970	4.162	3.678	3.741	3.238	2.543	2.347	3.038	7.068	18.32	43.70	230.1	475.5	163.7	6.139	1.074	0.839	0.818	0.796	0.818	0.692	0.806	0.754	0.612	0.727	0.673	0.685	0.679	0.617
525.0	29.39	42.36	55.71	109.1	175.4	116.2	124.8	602.7	2258	530.5	105.6	99.63	87.09	74.44	61.22	53.58	49.70	45.32	42.16	40.30	39.07	37.65	38.24	37.66	37.42	36.66	37.11	36.27	36.43	35.67	34.49	33.40	29.41	26.95	24.62	22.01	19.83	18.68	16.04	15.07	13.03	11.07	10.52	10.37	13.59	13.31	8.793	5.873	4.853	4.094	3.668	3.440	3.286	2.705	2.246	2.148	3.119	5.491	11.12	58.10	282.5	436.7	31.97	2.777	0.950	0.869	0.817	0.772	0.701	0.761	0.753	0.598	0.690	0.560	0.631	0.653	0.596
530.0	28.43	33.40	48.27	76.39	156.2	132.3	100.0	220.9	1475	1624	170.4	86.96	75.82	64.82	54.91	48.06	42.79	40.46	37.45	35.13	34.39	32.94	32.41	32.68	32.00	31.93	32.10	32.30	31.85	31.21	30.21	27.88	25.33	23.77	21.73	18.93	17.46	15.91	14.38	12.80	11.44	10.18	9.159	8.818	9.739	11.50	10.63	6.697	4.671	3.965	3.346	3.123	2.955	2.790	2.337	2.009	2.100	2.519	3.735	14.21	70.79	223.9	264.4	126.6	10.81	0.950	0.794	0.696	0.699	0.686	0.676	0.578	0.592	0.593	0.593	0.577	0.561
535.0	29.24	36.15	39.51	59.43	109.3	163.8	88.59	114.2	494.4	2093	744.8	76.52	66.49	54.88	47.59	41.49	37.25	34.29	31.82	30.10	29.62	27.85	27.91	27.55	27.63	26.92	26.95	27.39	26.72	25.93	25.32	23.37	21.57	20.07	18.05	16.45	15.17	13.83	12.77	11.33	10.39	9.123	8.325	7.819	7.494	8.274	10.14	8.376	5.122	3.839	3.122	2.976	2.651	2.550	2.598	2.164	2.003	1.804	1.970	4.331	16.88	51.21	104.5	322.6	188.4	12.64	0.988	0.753	0.708	0.709	0.595	0.543	0.555	0.618	0.508	0.542	0.513
540.0	26.10	33.19	34.19	53.35	80.05	160.7	96.86	80.75	174.3	1418	1651	109.2	57.99	47.02	41.53	37.04	31.99	29.36	27.82	25.90	26.22	24.38	24.42	24.40	23.61	23.12	23.73	23.54	23.71	23.27	22.28	20.70	19.31	17.33	16.43	14.16	13.35	12.18	11.43	10.13	9.349	8.062	7.528	6.905	6.190	6.468	7.952	8.887	6.257	3.912	2.793	2.743	2.257	2.293	2.311	2.406	2.120	1.561	1.594	2.012	4.789	12.43	25.19	144.7	339.8	140.6	6.026	0.854	0.645	0.648	0.511	0.584	0.523	0.582	0.461	0.518	0.501
545.0	26.03	30.47	34.61	42.39	62.69	132.8	120.9	69.97	93.00	594.7	2187	216.6	53.78	43.31	37.53	32.42	28.31	26.20	24.36	23.11	21.98	21.66	21.27	21.30	21.13	20.81	20.20	20.83	20.50	20.46	19.86	18.27	17.38	15.50	14.52	12.47	12.27	10.70	9.760	9.165	8.448	7.760	6.910	6.475	5.677	5.392	5.758	7.781	6.964	4.378	2.949	2.653	1.948	2.151	2.072	2.253	2.101	1.486	1.322	1.492	2.072	3.753	6.598	35.77	180.2	307.5	32.59	2.594	0.754	0.565	0.587	0.556	0.524	0.506	0.464	0.503	0.475
550.0	32.17	24.99	33.08	37.13	48.40	82.38	138.0	73.29	67.61	190.0	1383	1262	91.27	36.90	32.27	27.20	24.50	22.08	20.94	19.61	18.87	18.12	18.14	17.60	17.32	17.61	17.30	17.25	17.37	17.15	16.00	15.51	14.40	13.25	11.84	10.66	10.15	9.002	8.339	7.819	7.079	6.335	5.846	5.380	4.972	4.544	4.392	5.266	6.287	5.173	3.379	2.294	1.891	1.866	1.836	1.689	2.073	1.861	1.385	1.272	1.394	1.718	2.321	8.740	44.08	140.8	205.3	110.6	11.29	0.676	0.573	0.555	0.529	0.465	0.461	0.440	0.456
555.0	32.63	28.37	26.80	31.25	41.60	51.90	114.1	91.78	52.09	81.42	424.3	1819	465.3	33.34	26.24	22.10	20.11	18.13	17.43	16.10	14.79	14.65	14.55	14.26	13.94	14.49	13.98	13.62	13.83	13.54	13.19	13.08	11.68	10.58	9.821	8.888	8.134	7.647	6.907	6.379	5.803	5.345	4.666	4.461	4.185	3.884	3.560	3.587	4.182	5.136	4.105	2.436	1.748	1.615	1.692	1.481	1.560	1.756	1.550	1.192	1.155	1.153	1.217	2.759	10.48	32.12	68.36	202.7	147.0	12.69	0.661	0.528	0.524	0.571	0.434	0.423	0.374
560.0	27.31	27.53	29.41	29.73	35.44	41.21	74.73	118.2	51.85	52.58	133.9	1220	1198	50.04	22.25	18.85	17.53	15.82	14.37	13.58	13.22	12.44	12.16	11.85	11.68	12.04	12.07	11.57	11.70	12.14	11.60	10.96	9.554	9.109	8.422	7.542	6.940	6.525	6.015	5.417	4.848	4.488	4.242	4.020	3.576	3.285	3.071	2.827	2.950	4.037	4.172	3.093	1.856	1.503	1.367	1.260	1.312	1.415	1.739	1.305	1.044	1.124	0.912	1.262	2.982	7.784	16.20	80.12	207.3	103.8	6.246	0.532	0.518	0.465	0.423	0.423	0.335
565.0	28.12	25.00	29.43	27.27	30.89	30.82	50.24	120.5	60.89	42.59	61.23	482.1	1733	139.7	19.15	17.13	14.71	13.47	12.19	11.98	11.46	10.71	10.50	10.63	9.862	9.500	9.895	9.935	10.17	10.30	9.376	9.027	8.248	7.668	6.758	6.452	5.912	5.755	5.235	4.691	4.197	3.983	3.631	3.535	3.249	2.906	2.643	2.410	2.359	2.613	3.407	3.434	2.123	1.366	1.193	1.186	1.325	1.312	1.374	1.562	1.037	0.920	0.872	0.892	1.270	2.310	4.134	19.31	93.30	188.4	33.70	2.710	0.503	0.411	0.447	0.383	0.415
570.0	26.07	27.22	27.12	24.94	26.01	27.46	34.43	84.38	88.12	39.12	40.05	143.7	1112	900.4	43.31	15.06	12.52	11.15	10.58	9.669	8.934	8.915	8.386	8.440	8.310	7.743	8.091	7.861	8.063	8.143	8.187	7.600	6.643	6.343	5.530	5.288	4.797	4.379	4.204	4.116	3.509	3.246	3.216	2.920	2.770	2.349	2.331	1.942	1.937	1.867	2.282	2.942	2.323	1.442	1.207	1.073	1.079	1.089	0.960	1.228	1.220	1.004	0.749	0.762	0.810	1.047	1.430	4.820	22.11	75.30	121.3	75.79	10.96	0.644	0.458	0.423	0.386
575.0	26.97	22.53	25.55	23.90	23.88	22.48	25.41	44.49	104.8	50.48	32.83	54.05	327.4	1343	306.5	12.67	10.21	9.612	8.520	7.783	6.998	7.171	6.898	6.735	6.592	6.444	6.393	6.021	6.178	6.243	6.615	5.785	5.511	5.166	4.585	4.210	3.678	3.541	3.396	3.251	2.986	2.667	2.461	2.398	2.356	1.992	1.879	1.750	1.557	1.470	1.471	2.030	2.341	1.963	1.237	0.892	0.867	0.837	0.859	0.899	1.023	1.190	0.859	0.714	0.602	0.709	0.942	1.574	5.386	17.19	35.78	107.0	100.1	12.97	0.563	0.489	0.392
580.0	25.81	27.00	21.30	21.36	21.42	21.45	21.68	29.25	86.49	72.55	31.85	34.83	96.15	883.9	837.4	21.90	9.254	8.123	7.055	6.754	6.509	6.228	6.067	5.988	5.381	5.532	5.162	5.409	5.312	5.564	5.431	4.701	4.761	4.421	3.705	3.575	3.403	3.092	2.790	2.668	2.369	2.478	2.092	2.223	2.007	1.704	1.737	1.447	1.262	1.301	1.092	1.339	1.995	2.003	1.396	0.820	0.806	0.894	0.728	0.780	0.795	1.081	1.018	0.767	0.684	0.566	0.708	0.829	1.584	4.355	8.479	37.66	117.2	76.16	6.334	0.468	0.411
585.0	29.53	24.20	21.82	20.36	19.97	20.01	18.48	23.98	61.38	90.92	33.30	28.24	38.48	340.3	1199	86.13	8.423	7.002	5.913	5.835	5.528	5.329	5.095	5.004	4.952	4.583	4.795	4.929	4.887	4.718	4.596	4.021	4.223	3.788	3.313	3.026	2.999	2.767	2.461	2.209	1.988	2.229	1.976	1.984	1.636	1.592	1.513	1.225	1.113	1.087	1.043	1.041	1.385	1.727	1.518	0.907	0.820	0.836	0.679	0.758	0.796	0.871	1.025	0.953	0.656	0.510	0.594	0.562	0.701	1.386	2.318	8.996	45.78	111.6	33.34	2.798	0.448
590.0	27.93	21.93	23.70	18.61	16.89	17.91	17.78	21.10	36.11	86.09	50.18	26.17	26.01	96.04	754.7	585.2	20.29	5.781	5.170	5.101	4.715	4.388	4.371	4.029	4.104	3.890	4.043	4.005	3.909	3.960	3.739	3.309	3.233	3.197	2.751	2.595	2.381	2.305	2.109	1.962	1.722	1.809	1.628	1.517	1.479	1.331	1.203	1.167	0.972	0.944	0.799	0.864	0.978	1.343	1.557	1.192	0.882	0.711	0.654	0.665	0.640	0.630	0.724	0.972	0.830	0.641	0.540	0.538	0.549	0.707	0.948	2.396	10.81	40.05	70.41	52.04	10.09
595.0	28.02	23.83	22.41	19.81	18.32	15.36	17.47	18.48	25.08	56.06	74.80	28.78	22.41	33.84	214.3	861.3	92.85	5.569	4.581	4.338	4.184	3.414	3.691	3.512	3.695	3.152	3.286	3.541	3.267	3.255	2.966	2.975	2.802	2.435	2.261	2.092	1.817	1.851	1.727	1.558	1.465	1.394	1.163	1.224	1.077	1.139	0.922	0.923	0.776	0.839	0.723	0.728	0.835	0.879	1.156	1.366	1.005	0.723	0.614	0.563	0.546	0.575	0.550	0.724	0.837	0.884	0.532	0.555	0.482	0.476	0.663	0.871	2.787	9.271	19.17	57.46	65.83
600.0	24.78	20.13	20.36	18.55	17.03	17.41	16.75	18.81	21.69	35.68	82.06	36.63	22.19	19.44	60.06	576.8	475.3	9.887	4.414	3.950	3.515	3.381	3.069	2.807	2.901	3.174	3.001	3.065	2.744	2.680	2.741	2.510	2.346	2.089	1.840	1.857	1.857	1.614	1.517	1.288	1.331	1.136	1.144	1.144	0.968	1.033	0.827	0.904	0.764	0.719	0.588	0.631	0.647	0.690	0.809	1.224	1.192	0.847	0.507	0.567	0.497	0.494	0.470	0.597	0.653	0.903	0.602	0.482	0.477	0.491	0.474	0.487	0.972	2.410	4.631	18.18	66.27
605.0	22.77	20.37	21.00	17.71	17.13	16.01	16.62	18.49	19.75	28.72	72.61	49.27	22.29	17.52	22.72	223.3	727.4	54.32	4.147	3.670	3.127	2.837	2.523	2.519	2.545	2.457	2.526	2.461	2.293	2.601	2.330	2.108	1.915	1.979	1.748	1.530	1.514	1.368	1.388	1.132	1.227	1.066	1.081	0.927	0.930	0.835	0.794	0.795	0.736	0.760	0.524	0.619	0.548	0.634	0.715	0.958	1.167	0.919	0.552	0.554	0.463	0.474	0.446	0.511	0.551	0.809	0.749	0.506	0.482	0.483	0.421	0.453	0.553	0.935	1.349	4.522	23.56
610.0	25.37	19.93	20.63	20.20	15.67	14.83	16.68	18.25	20.56	25.99	47.24	67.65	27.77	17.40	15.12	61.41	479.3	368.7	10.75	2.901	2.746	2.499	2.353	2.438	2.286	2.087	2.208	2.046	2.004	2.223	1.929	1.878	1.665	1.646	1.421	1.305	1.209	1.193	1.223	1.005	0.971	0.914	0.955	0.944	0.809	0.777	0.702	0.701	0.617	0.599	0.497	0.530	0.499	0.466	0.562	0.652	0.822	0.871	0.661	0.555	0.459	0.497	0.410	0.603	0.500	0.546	0.722	0.680	0.492	0.484	0.438	0.439	0.430	0.530	0.689	1.282	5.635
615.0	25.10	18.45	20.84	18.45	15.34	14.71	16.05	17.64	20.01	23.06	32.89	63.56	40.72	18.73	12.75	20.98	140.4	563.4	69.78	2.815	2.410	2.265	2.182	1.990	1.932	1.798	2.034	1.791	1.803	1.755	1.712	1.606	1.545	1.287	1.203	1.113	1.087	0.880	0.963	0.909	0.802	0.789	0.714	0.742	0.708	0.659	0.525	0.666	0.561	0.509	0.461	0.431	0.415	0.451	0.440	0.468	0.619	0.867	0.825	0.551	0.519	0.456	0.459	0.459	0.507	0.467	0.574	0.649	0.665	0.490	0.395	0.426	0.434	0.442	0.454	0.666	1.536
620.0	25.24	19.92	20.05	14.47	14.19	14.15	15.28	16.41	20.01	22.13	28.44	47.39	52.41	18.11	12.86	12.12	38.74	396.2	309.0	5.264	2.513	2.292	1.878	1.716	1.752	1.492	1.498	1.538	1.629	1.564	1.547	1.564	1.387	1.258	1.156	0.939	0.851	0.904	0.824	0.818	0.639	0.719	0.716	0.634	0.707	0.547	0.551	0.542	0.468	0.511	0.450	0.397	0.394	0.395	0.415	0.423	0.459	0.616	0.811	0.665	0.450	0.405	0.452	0.406	0.420	0.451	0.498	0.554	0.649	0.571	0.448	0.407	0.375	0.409	0.389	0.444	0.719
625.0	24.13	20.28	19.80	15.17	13.00	14.71	15.08	16.01	19.20	21.98	24.56	34.55	59.20	23.50	12.76	9.933	14.39	162.0	501.8	29.65	2.314	2.023	1.681	1.572	1.282	1.450	1.338	1.382	1.460	1.424	1.465	1.324	1.206	1.053	0.919	0.911	0.863	0.788	0.778	0.616	0.634	0.652	0.631	0.591	0.708	0.527	0.423	0.489	0.411	0.454	0.443	0.352	0.434	0.322	0.400	0.370	0.404	0.532	0.619	0.620	0.516	0.350	0.397	0.440	0.423	0.409	0.434	0.423	0.542	0.621	0.458	0.469	0.417	0.320	0.384	0.360	0.427
630.0	22.05	18.55	18.53	15.18	14.05	14.70	14.42	15.49	18.64	20.82	22.95	26.76	46.61	34.08	12.72	9.445	8.268	43.95	362.2	235.6	5.299	1.791	1.543	1.470	1.308	1.298	1.350	1.367	1.200	1.317	1.161	1.188	0.936	0.947	0.842	0.764	0.669	0.696	0.712	0.627	0.554	0.525	0.561	0.506	0.511	0.507	0.489	0.446	0.356	0.350	0.360	0.366	0.379	0.350	0.398	0.377	0.389	0.437	0.481	0.585	0.581	0.492	0.413	0.395	0.380	0.363	0.390	0.459	0.440	0.526	0.590	0.510	0.357	0.348	0.338	0.352	0.390
635.0	20.13	17.01	18.50	14.26	12.81	14.85	13.98	15.52	19.50	19.25	23.47	25.63	32.83	41.96	16.54	8.494	7.639	13.73	109.8	413.8	48.31	1.768	1.427	1.240	1.251	1.140	1.134	1.201	1.082	1.083	1.071	1.057	0.843	0.815	0.800	0.737	0.606	0.635	0.542	0.570	0.549	0.575	0.611	0.421	0.420	0.438	0.385	0.447	0.343	0.300	0.342	0.328	0.344	0.299	0.358	0.375	0.375	0.431	0.468	0.422	0.578	0.489	0.417	0.406	0.397	0.380	0.437	0.410	0.457	0.445	0.507	0.571	0.360	0.331	0.422	0.377	0.369
640.0	24.72	19.03	20.47	14.43	12.04	14.78	13.82	14.68	17.57	20.62	21.91	23.41	24.72	40.84	21.89	8.841	6.662	6.941	29.37	321.0	191.7	2.790	1.424	1.208	1.121	0.969	1.051	1.217	1.016	1.104	0.967	0.857	0.799	0.768	0.660	0.622	0.535	0.723	0.505	0.514	0.550	0.437	0.480	0.434	0.410	0.430	0.367	0.414	0.321	0.301	0.307	0.370	0.318	0.301	0.280	0.334	0.398	0.421	0.363	0.404	0.424	0.527	0.422	0.448	0.394	0.381	0.387	0.422	0.412	0.407	0.409	0.528	0.534	0.403	0.454	0.397	0.399
645.0	26.44	20.14	17.50	13.31	13.63	12.97	14.28	13.86	17.26	18.07	22.41	22.95	22.84	33.02	28.90	9.119	6.811	5.302	9.173	143.2	344.4	15.60	1.400	1.167	1.113	0.960	0.988	1.142	1.003	1.012	0.796	0.887	0.804	0.769	0.549	0.536	0.606	0.585	0.567	0.448	0.456	0.407	0.396	0.463	0.368	0.424	0.364	0.351	0.372	0.334	0.295	0.392	0.301	0.343	0.317	0.312	0.347	0.358	0.365	0.305	0.480	0.474	0.471	0.412	0.437	0.383	0.365	0.410	0.382	0.405	0.422	0.457	0.583	0.470	0.405	0.403	0.375
650.0	21.52	20.90	19.36	16.07	13.21	13.35	13.87	13.32	15.17	16.88	20.57	20.77	21.32	25.01	31.45	10.92	6.059	5.118	4.516	42.47	346.7	62.13	1.461	1.133	1.032	0.911	0.935	1.148	0.908	0.842	0.911	0.801	0.757	0.673	0.519	0.509	0.554	0.470	0.438	0.453	0.392	0.434	0.370	0.363	0.334	0.405	0.355	0.363	0.332	0.361	0.319	0.365	0.335	0.304	0.301	0.351	0.333	0.390	0.358	0.285	0.462	0.436	0.397	0.419	0.400	0.309	0.357	0.357	0.377	0.432	0.444	0.336	0.408	0.531	0.382	0.350	0.366
