Sample:	'1
File name:	ÕÆ×Ó´å¶«  5±¶.FD3
Run date:	'11:27:35, 08/04/2025
Operator:	Administrator
Comment:	'

Instrument
Model:	F-2700 FL Spectrophotometer
Serial number:	23C7-003
ROM Version:	4J14000 07

Instrument parameters
Measurement type:	3-D scan
Data mode:	Fluorescence
EX  Start WL:	220.0 nm
EX  End WL:	600.0 nm
EX Sampling interval:	5.0 nm
EM  Start WL:	230.0 nm
EM  End WL:	650.0 nm
EM Sampling interval:	5.0 nm
Scan speed:	12000 nm/min
EX Slit:	5.0 nm
EM Slit:	5.0 nm
PMT Voltage:	700 V
Response:	Auto 
Corrected spectra:	Off
Contour interval:	50.000

Peak integration
Integration method:	Rectangular
Sensitivity:	1
Threshold:	1.000

Peaks
No.	ApexEX/EM(nm)	Height(Data)
1	225.0/345.0	540.8
2	225.0/355.0	542.7
3	275.0/440.0	864.2
4	280.0/340.0	1112
5	330.0/415.0	1216
6	565.0/345.0	7.458

Data points
	220.0	225.0	230.0	235.0	240.0	245.0	250.0	255.0	260.0	265.0	270.0	275.0	280.0	285.0	290.0	295.0	300.0	305.0	310.0	315.0	320.0	325.0	330.0	335.0	340.0	345.0	350.0	355.0	360.0	365.0	370.0	375.0	380.0	385.0	390.0	395.0	400.0	405.0	410.0	415.0	420.0	425.0	430.0	435.0	440.0	445.0	450.0	455.0	460.0	465.0	470.0	475.0	480.0	485.0	490.0	495.0	500.0	505.0	510.0	515.0	520.0	525.0	530.0	535.0	540.0	545.0	550.0	555.0	560.0	565.0	570.0	575.0	580.0	585.0	590.0	595.0	600.0
230.0	58.87	822.2	1282	231.5	12.04	8.136	7.042	6.753	5.987	5.894	5.959	5.857	5.600	5.492	5.701	5.488	5.345	5.431	5.607	5.594	5.466	5.262	5.526	5.606	5.603	5.277	5.035	5.077	5.189	5.105	5.040	4.967	4.832	4.463	4.069	3.737	3.402	3.133	3.030	2.963	2.828	2.601	2.590	2.644	2.601	2.429	2.940	5.236	7.356	5.693	2.671	1.810	1.622	1.628	1.638	1.585	1.491	1.373	1.362	1.260	1.148	1.086	1.048	1.022	0.990	0.958	0.922	0.930	0.813	0.795	0.771	0.683	0.648	0.635	0.588	0.578	0.556
235.0	38.06	252.1	1191	1739	305.5	14.20	7.831	7.573	7.127	6.832	6.997	5.831	5.962	5.933	5.801	5.733	5.287	5.536	5.937	5.684	5.523	5.779	5.552	5.938	5.637	5.517	5.607	5.076	5.254	5.080	4.856	4.717	4.556	4.604	4.186	3.988	3.419	3.260	3.255	2.844	2.785	2.687	2.796	2.613	2.508	2.363	2.436	3.130	4.365	6.565	8.729	8.443	4.143	1.965	1.707	1.518	1.410	1.361	1.334	1.242	1.177	1.080	1.036	1.116	0.977	0.904	0.982	0.874	0.824	0.860	0.698	0.686	0.718	0.655	0.589	0.594	0.633
240.0	38.54	70.25	430.8	2051	2234	235.4	10.03	8.815	7.505	6.885	6.789	6.482	6.720	6.149	5.997	6.150	5.553	5.645	5.777	5.970	5.570	5.929	5.767	6.032	5.862	5.902	5.772	5.763	5.167	5.190	4.908	4.827	4.718	4.598	4.142	4.164	3.714	3.450	3.329	2.906	2.857	2.646	2.591	2.539	2.391	2.499	2.364	2.424	2.565	3.483	6.499	13.11	14.93	9.433	3.470	1.597	1.528	1.381	1.406	1.189	1.172	1.086	1.032	1.085	0.925	0.958	0.942	0.756	0.867	0.736	0.752	0.730	0.710	0.693	0.646	0.590	0.580
245.0	39.40	34.76	114.4	874.2	3221	2211	170.2	10.67	8.763	8.316	7.100	7.115	6.961	6.391	5.966	6.231	6.325	6.320	6.092	6.003	5.993	5.950	5.941	5.997	6.037	5.758	5.750	5.803	5.549	5.148	5.243	4.907	4.584	4.387	4.388	4.261	3.927	3.502	3.258	3.051	2.805	2.636	2.650	2.542	2.668	2.421	2.342	2.202	2.093	2.295	2.973	6.415	13.53	20.56	17.25	8.345	2.366	1.441	1.389	1.256	1.241	1.089	1.039	0.971	0.859	0.870	0.938	0.810	0.788	0.784	0.756	0.726	0.585	0.681	0.547	0.588	0.663
250.0	36.64	28.06	42.02	217.9	1241	3555	3710	811.1	39.81	10.23	9.070	7.817	7.598	7.279	6.733	6.947	6.316	6.671	6.389	6.421	6.000	6.181	6.125	6.357	6.127	6.134	6.053	6.159	5.908	5.455	5.143	5.149	4.743	4.396	4.097	4.216	3.980	3.679	3.498	3.270	2.988	2.862	2.889	2.582	2.693	2.497	2.325	2.218	2.054	1.947	2.085	2.861	4.794	9.459	15.28	20.84	23.71	15.34	8.231	2.587	1.299	1.217	1.094	1.041	0.977	0.887	0.936	0.879	0.754	0.802	0.762	0.665	0.565	0.600	0.569	0.561	0.590
255.0	37.99	24.58	23.58	65.46	292.2	1002	4465	6829	1208	34.09	11.40	10.87	8.990	8.859	7.751	7.138	7.493	6.836	6.959	7.028	6.326	6.320	6.419	6.501	6.362	6.173	6.193	6.452	6.394	5.913	5.520	5.273	4.774	4.283	4.126	3.983	3.984	3.901	3.727	3.379	3.176	2.884	2.856	2.614	2.677	2.612	2.332	2.228	1.896	1.898	1.855	1.907	2.455	3.567	4.736	6.859	14.25	30.53	44.24	24.20	11.21	2.241	1.248	1.166	1.039	1.066	1.020	0.907	0.831	0.827	0.727	0.714	0.659	0.612	0.596	0.545	0.516
260.0	36.32	24.14	20.18	30.82	81.91	239.5	1541	7342	7744	191.6	21.53	13.74	12.01	9.812	8.854	7.703	7.870	7.518	7.428	7.090	6.824	6.350	6.396	6.674	6.389	6.313	6.189	6.586	6.676	6.101	5.976	5.761	4.980	4.474	4.342	4.034	3.708	4.058	3.739	3.585	3.405	2.902	2.936	2.743	2.688	2.658	2.443	2.196	2.007	1.992	1.770	1.952	2.063	2.218	2.410	2.875	4.577	10.96	28.83	48.13	54.00	21.82	6.863	1.375	1.145	0.926	0.994	0.972	0.893	0.904	0.816	0.734	0.789	0.631	0.591	0.590	0.547
265.0	39.72	28.33	20.20	22.82	38.07	70.26	370.3	2897	9999.9	7691	154.6	18.29	14.47	12.00	9.897	8.771	8.708	8.043	7.290	7.601	7.273	6.598	6.978	6.867	6.923	6.692	6.771	6.887	6.691	6.709	6.410	5.751	5.091	4.682	4.358	3.922	3.989	3.808	3.789	3.637	3.466	3.215	2.820	2.794	2.775	2.842	2.476	2.283	2.052	2.004	1.785	1.832	1.812	2.038	1.923	2.050	2.257	3.722	8.511	19.84	45.53	67.30	28.18	17.26	3.563	1.178	1.110	1.043	0.819	0.880	0.938	0.793	0.666	0.625	0.574	0.589	0.506
270.0	39.97	28.15	21.05	18.39	23.94	35.03	102.6	687.7	3626	9999.9	9999.9	2687	48.58	16.94	13.22	10.99	10.34	9.283	8.490	8.112	7.837	7.300	7.270	7.345	7.241	6.993	7.196	7.099	6.821	6.998	6.539	6.225	5.611	5.046	4.576	4.330	3.920	3.760	3.659	3.547	3.620	3.430	3.117	3.006	2.879	2.666	2.551	2.395	2.247	2.016	1.792	1.846	1.817	1.857	1.824	1.819	1.855	2.104	3.035	5.640	12.51	26.25	39.47	62.29	55.00	47.47	11.62	3.891	1.075	0.967	0.964	0.757	0.762	0.634	0.660	0.584	0.611
275.0	53.33	37.15	25.33	19.61	22.04	25.97	48.80	175.5	833.3	2713	9999.9	9999.9	983.9	52.30	18.52	15.03	13.14	10.54	9.796	9.177	8.904	7.908	7.807	7.867	7.746	7.591	7.127	7.102	7.121	7.053	6.940	6.507	6.169	5.018	4.973	4.556	4.133	3.702	3.548	3.377	3.472	3.324	3.225	3.339	2.986	2.899	2.688	2.547	2.309	2.174	1.882	2.017	1.827	1.784	1.711	1.775	1.710	1.816	1.926	2.407	3.870	6.983	10.03	16.91	31.98	80.03	112.6	82.56	17.28	3.179	1.108	0.922	0.828	0.754	0.704	0.676	0.629
280.0	64.09	42.63	32.86	22.16	20.75	21.06	33.81	72.35	212.0	638.8	3328	9999.9	9999.9	771.8	37.40	20.84	16.56	12.65	11.27	10.06	9.553	8.991	8.722	8.260	7.954	8.173	7.565	7.675	7.181	7.110	6.909	6.580	6.276	5.401	5.453	4.995	4.296	3.993	3.657	3.604	3.349	3.615	3.400	3.444	3.021	2.909	2.796	2.651	2.357	2.259	1.979	1.942	1.891	1.941	1.662	1.846	1.859	1.709	1.584	1.642	1.842	2.641	3.370	4.764	8.461	25.06	66.16	125.3	136.5	27.63	11.57	1.432	0.941	0.890	0.713	0.712	0.732
285.0	72.86	48.77	40.20	27.67	22.47	21.54	28.70	50.57	85.00	179.5	803.6	4719	9999.9	9999.9	552.0	31.57	21.62	16.41	13.35	11.36	10.14	9.222	9.092	8.699	8.521	8.128	7.802	8.365	7.835	7.451	7.373	7.030	6.759	5.898	5.830	5.349	4.878	4.374	3.712	3.596	3.543	3.614	3.393	3.370	3.243	3.154	2.700	2.776	2.301	2.187	2.107	2.061	1.978	2.121	1.732	1.826	1.892	1.738	1.493	1.655	1.716	1.612	1.842	2.207	3.022	6.718	17.20	44.85	107.2	161.5	140.9	23.08	6.102	1.158	0.893	0.859	0.794
290.0	111.0	82.53	65.32	47.35	33.42	31.53	35.34	49.67	78.20	115.0	259.8	1179	4846	9999.9	9999.9	2351	47.75	24.84	18.54	14.85	12.60	10.94	10.34	10.04	9.270	8.728	8.729	8.482	8.223	7.981	7.599	7.198	6.379	6.144	5.799	5.403	5.124	4.709	4.150	3.881	3.691	3.480	3.391	3.390	3.360	3.300	3.136	2.822	2.517	2.340	2.186	2.114	2.049	2.064	1.870	1.880	1.823	1.763	1.653	1.663	1.760	1.654	1.659	1.740	1.911	2.783	5.013	11.44	27.37	57.37	106.7	148.9	171.6	111.6	14.84	6.494	1.226
295.0	142.3	133.4	105.0	71.35	53.13	50.25	54.77	70.73	96.99	153.2	211.6	438.0	1265	2920	9999.9	9999.9	3694	56.70	28.77	21.74	16.65	13.67	12.52	11.75	10.71	9.851	9.269	9.414	9.111	8.175	8.164	7.361	6.857	6.328	6.060	5.711	5.242	5.347	4.723	4.143	4.000	3.583	3.636	3.549	3.256	3.570	3.165	2.980	2.731	2.442	2.431	2.314	2.230	2.262	2.151	2.183	2.046	1.936	1.917	1.812	1.888	1.732	1.896	2.029	2.185	2.208	2.983	4.261	7.704	14.47	25.43	37.96	76.45	185.4	288.7	194.3	23.53
300.0	185.3	174.6	144.0	101.4	73.22	66.89	77.86	93.99	125.3	192.9	279.6	355.5	541.6	885.0	3581	9999.9	9999.9	2865	50.98	30.25	22.20	17.23	15.01	13.11	12.28	11.31	10.48	10.33	9.653	9.074	8.604	8.189	7.195	6.718	6.373	5.956	5.409	5.713	4.895	4.399	4.153	3.964	3.844	3.820	3.347	3.808	3.400	3.373	3.007	2.541	2.531	2.572	2.331	2.502	2.360	2.239	2.263	2.093	2.032	2.016	2.007	2.052	2.118	2.300	2.537	2.669	2.792	3.031	3.901	5.289	7.798	10.51	19.27	51.80	146.3	313.2	372.5
305.0	239.0	213.4	190.0	129.3	91.62	83.19	97.68	121.7	170.2	242.6	350.1	440.5	471.2	503.2	1029	5298	9999.9	9999.9	447.6	45.64	30.17	22.43	18.29	15.89	13.22	12.42	11.43	11.05	10.25	10.00	9.516	8.504	7.583	7.359	6.685	5.983	5.691	5.598	5.130	4.788	4.624	4.096	3.875	3.705	3.855	3.661	3.565	3.633	3.432	2.738	2.689	2.573	2.531	2.494	2.461	2.393	2.493	2.295	2.311	2.306	2.121	2.375	2.453	2.552	2.746	3.121	3.246	3.336	3.430	3.866	4.139	4.752	6.498	13.44	35.88	99.86	253.6
310.0	292.2	286.7	244.7	166.3	113.4	105.1	124.2	165.5	226.9	325.2	445.6	562.8	611.1	537.0	534.1	1377	5457	9999.9	9999.9	9760	150.4	34.75	25.70	20.75	16.90	14.84	13.27	12.31	11.67	11.13	10.09	9.266	8.378	7.851	7.121	6.444	6.001	5.578	5.426	5.000	4.896	4.535	4.372	3.966	4.064	3.909	3.800	3.954	3.660	3.118	2.898	2.793	2.591	2.563	2.695	2.748	2.520	2.584	2.628	2.572	2.618	2.683	2.754	2.992	3.146	3.557	3.780	3.970	4.254	4.312	4.136	3.963	4.114	5.202	9.912	24.13	61.09
315.0	346.6	355.9	309.6	208.5	141.1	125.2	154.5	208.3	292.0	416.5	563.5	689.5	757.7	693.1	523.3	532.6	1345	2733	9999.9	9999.9	3225	55.21	38.23	30.01	22.41	18.63	15.31	14.31	13.23	12.02	10.69	10.14	9.506	8.135	7.795	6.903	6.573	6.406	5.516	5.391	5.030	4.970	4.698	4.603	4.512	4.439	4.163	4.072	3.879	3.523	3.089	3.177	2.870	2.824	2.689	2.719	2.689	2.773	2.799	2.742	2.963	3.156	3.414	3.606	3.762	4.301	4.433	4.713	4.949	4.878	4.960	4.679	4.376	4.106	4.389	7.490	15.32
320.0	398.9	389.2	350.6	235.8	159.9	142.1	175.0	238.6	336.5	473.5	640.1	785.2	848.0	792.6	604.8	390.8	446.0	708.4	3299	9999.9	9999.9	2776	53.99	41.63	29.55	22.47	18.13	16.44	15.05	12.68	11.91	11.20	10.32	8.532	8.189	7.414	7.114	6.445	5.731	5.626	5.420	5.131	4.922	4.840	4.524	4.386	4.312	4.299	3.957	3.613	3.277	3.295	3.040	2.851	3.011	2.987	2.883	2.885	3.149	3.006	3.209	3.426	3.660	4.038	4.362	4.645	4.973	4.969	5.464	5.280	5.488	5.048	5.109	4.474	3.771	3.692	5.265
325.0	421.8	441.8	392.4	251.3	175.8	157.9	194.7	265.4	374.8	533.0	711.8	861.0	929.3	854.1	690.0	414.3	271.5	263.0	835.5	4738	9999.9	9999.9	2240	53.03	40.39	29.46	23.24	19.28	16.94	14.93	13.55	11.72	11.03	9.230	8.496	7.623	7.367	6.657	6.091	5.746	5.460	5.135	5.428	4.948	5.020	4.625	4.686	4.235	4.074	3.641	3.334	3.324	3.009	3.045	3.057	2.965	3.045	3.074	3.149	3.007	3.411	3.643	3.968	4.155	4.464	4.894	5.054	5.760	5.913	5.952	5.823	5.497	5.564	5.093	3.905	3.232	3.247
330.0	456.9	494.3	430.5	289.2	203.3	181.8	224.4	304.0	425.5	602.6	793.4	955.6	1023	937.8	769.1	500.3	295.4	194.9	286.9	1163	4899	9999.9	9999.9	9999.9	173.6	46.26	33.58	26.45	20.91	18.12	15.87	13.54	12.15	10.56	9.338	8.257	7.941	7.157	6.691	6.233	5.858	5.593	5.559	5.255	5.251	5.049	5.064	4.641	4.486	3.967	3.563	3.554	3.407	3.375	3.193	3.257	3.351	3.262	3.492	3.565	3.696	4.055	4.508	4.716	4.936	5.262	5.683	6.108	6.374	6.621	6.321	6.080	6.044	5.299	4.511	3.699	3.474
335.0	505.4	526.3	460.4	316.8	234.9	216.1	258.4	338.8	465.7	657.2	852.6	1013	1089	1011	839.9	553.7	378.3	235.5	195.3	364.9	1191	2604	9999.9	9999.9	9999.9	231.3	47.62	38.99	28.27	23.26	19.35	15.95	13.80	11.94	10.73	9.493	8.622	7.890	7.325	6.856	6.322	5.819	5.848	5.569	5.482	5.379	5.297	5.228	4.891	4.346	3.750	3.657	3.697	3.628	3.364	3.416	3.677	3.518	3.740	4.019	3.996	4.346	4.816	5.178	5.388	5.786	5.963	6.393	6.856	7.176	6.958	6.561	6.364	5.878	5.046	4.107	3.977
340.0	521.3	528.0	482.2	327.1	260.3	235.8	280.1	365.9	488.0	682.2	879.8	1040	1112	1046	871.3	590.6	411.9	300.6	209.2	211.2	378.6	692.0	3070	9999.9	9999.9	9999.9	172.2	52.29	37.86	28.56	22.74	19.09	16.30	13.31	11.89	10.16	9.193	8.459	7.604	7.180	6.462	6.082	5.886	5.921	5.762	5.975	5.372	5.534	4.965	4.451	3.937	3.786	3.924	3.795	3.639	3.715	3.720	3.704	3.850	4.003	4.260	4.550	4.920	5.366	5.367	5.970	6.459	6.714	6.838	7.399	7.151	6.990	6.762	6.053	5.317	4.585	4.130
345.0	528.4	540.8	480.5	349.6	272.9	263.5	301.1	378.0	503.8	683.5	878.2	1035	1111	1048	891.7	630.3	438.7	344.1	266.9	211.1	225.0	280.4	815.0	4297	9999.9	9999.9	2488	114.0	50.48	37.22	27.59	22.15	17.78	15.14	12.84	11.05	9.692	8.770	7.921	7.500	7.002	6.532	6.262	6.167	5.807	5.967	5.687	5.627	5.435	4.765	4.153	3.921	4.046	3.876	3.816	3.976	3.922	3.722	3.774	4.106	4.536	4.752	4.835	5.591	5.589	5.908	6.245	6.541	7.107	7.458	7.139	7.091	6.745	6.204	5.485	5.027	4.391
350.0	526.1	535.9	476.2	364.4	294.8	292.6	324.6	396.3	510.3	673.3	854.5	998.9	1077	1029	894.3	668.0	496.7	396.2	350.5	299.4	258.6	240.9	342.9	1113	4612	9999.9	9999.9	9999.9	195.4	57.92	39.37	29.93	22.28	18.21	15.11	12.63	11.02	9.640	8.745	8.077	7.539	6.999	6.552	6.365	6.100	6.145	6.034	5.882	5.566	4.922	4.280	4.379	4.334	4.088	3.880	3.990	4.198	4.185	4.150	4.282	4.389	4.901	4.832	5.413	5.720	5.819	6.131	6.488	6.865	7.080	7.018	7.093	6.927	6.283	5.835	5.230	4.740
355.0	527.3	542.7	486.0	378.7	325.7	327.2	359.3	416.1	516.1	665.4	817.2	950.9	1025	994.0	890.7	704.8	561.1	475.4	428.9	405.9	366.2	314.2	303.2	443.0	1190	2557	9999.9	9999.9	9999.9	257.2	62.13	41.96	30.89	22.65	18.30	14.87	12.70	10.76	9.775	9.394	8.342	7.596	6.610	6.828	6.992	6.747	5.952	6.189	5.693	5.504	4.417	4.783	4.545	4.457	4.260	4.187	4.329	4.473	4.592	4.501	4.630	4.840	4.680	5.128	5.761	5.740	5.894	6.434	6.614	7.052	7.150	6.747	6.816	6.411	6.066	5.667	5.321
360.0	520.5	535.3	479.6	399.8	347.6	356.4	386.6	433.7	518.7	651.7	793.2	928.3	979.6	978.1	885.5	734.0	620.5	544.5	503.6	476.9	465.6	406.7	357.2	344.0	466.4	742.1	2908	9999.9	9999.9	9999.9	200.2	58.43	39.59	28.88	22.11	16.81	14.25	12.27	10.85	10.01	8.922	8.038	7.479	6.970	7.010	6.678	6.222	6.007	5.786	5.348	4.741	4.794	4.719	4.666	4.427	4.446	4.660	4.742	5.042	4.781	4.737	4.866	4.821	5.016	5.318	5.812	5.787	6.118	6.250	6.736	6.959	6.704	6.964	6.669	5.952	5.903	5.649
365.0	522.7	537.3	485.0	416.7	379.4	380.0	411.8	454.1	531.5	651.6	762.3	891.7	953.1	954.2	886.8	757.6	668.5	612.3	581.4	555.1	543.7	515.8	434.6	383.1	357.3	368.7	823.5	3951	9999.9	9999.9	2512	134.1	53.61	36.86	26.32	19.88	15.98	13.64	11.70	10.83	9.312	8.485	8.088	7.577	7.103	7.147	6.553	6.442	5.963	5.339	4.952	4.994	5.039	4.826	4.933	4.780	4.845	4.642	4.753	4.860	4.674	4.989	5.038	5.045	5.535	5.787	5.789	5.986	6.345	6.607	6.801	6.708	7.450	6.373	6.415	6.209	6.315
370.0	517.5	524.6	488.0	451.5	426.2	416.4	442.3	480.1	549.0	650.0	757.4	859.0	922.9	927.8	885.3	795.3	739.8	703.3	686.9	665.4	654.3	635.9	589.0	500.8	420.0	354.4	398.0	1062	4450	9999.9	9999.9	9999.9	187.1	57.16	37.29	27.42	20.66	16.18	14.04	11.92	10.18	9.410	8.963	8.233	7.872	7.419	6.813	6.771	6.190	5.593	5.173	5.502	5.288	5.182	5.092	4.792	4.968	4.922	4.941	5.047	5.209	5.295	5.121	5.270	5.660	5.722	6.010	6.063	6.380	6.749	6.797	6.643	7.065	6.852	6.591	6.332	6.629
375.0	547.7	521.8	506.2	472.3	462.7	467.9	477.0	510.2	564.4	654.2	748.6	829.3	896.6	907.6	892.3	835.5	805.7	792.2	796.8	777.1	781.6	755.8	726.6	652.7	535.5	435.9	367.4	453.7	1165	2551	9999.9	9999.9	9999.9	230.7	56.41	37.91	28.16	20.96	16.63	14.11	12.13	10.63	9.953	8.946	8.469	8.010	7.154	7.152	6.546	6.025	5.404	5.571	5.597	5.629	5.490	5.389	5.247	5.408	5.240	5.005	5.516	5.554	5.231	5.679	5.704	5.719	5.763	5.896	6.441	6.554	6.646	6.739	6.947	7.070	6.900	7.135	7.202
380.0	549.3	539.7	519.1	494.1	500.3	497.3	507.7	535.4	586.6	660.2	743.6	827.4	876.6	904.7	897.1	866.0	848.2	856.7	867.6	867.2	869.1	849.0	812.2	751.7	644.9	513.4	413.1	358.7	463.7	740.6	2891	9999.9	9999.9	9999.9	175.5	50.76	35.24	26.26	19.33	16.17	13.66	11.79	10.38	9.491	8.939	8.278	7.641	7.319	6.911	6.251	5.768	6.018	5.926	5.734	5.753	5.448	5.393	5.661	5.464	5.450	5.540	5.284	5.621	5.689	5.764	5.586	5.692	5.811	6.570	6.426	6.661	6.779	6.996	7.214	7.425	7.477	7.237
385.0	536.5	545.0	536.4	522.1	533.9	531.5	547.1	560.5	604.9	664.3	743.7	822.3	865.1	893.5	905.1	888.3	889.5	898.0	927.1	935.9	940.5	929.9	892.4	830.4	746.9	605.9	485.0	389.8	348.8	359.9	812.7	4082	9999.9	9999.9	2112	116.3	45.89	33.16	23.73	18.15	15.38	13.08	11.24	10.25	9.397	8.874	8.368	8.086	6.991	6.203	5.941	6.086	5.952	6.050	6.080	5.689	5.982	5.785	5.444	5.713	5.532	5.842	5.586	5.757	5.818	5.900	5.962	5.589	6.470	6.404	6.538	6.764	6.860	6.997	7.342	7.415	7.481
390.0	550.1	559.2	555.6	560.3	566.5	575.2	582.6	595.8	629.5	684.4	749.0	814.5	859.8	895.7	914.6	913.2	937.6	960.1	992.4	1011	1025	1022	991.2	929.1	847.4	737.6	601.6	488.0	402.5	338.8	385.7	1084	4493	9999.9	9999.9	8713	158.0	49.38	33.70	24.30	18.61	15.57	12.96	11.41	10.64	9.763	8.713	8.539	7.381	6.682	6.323	6.493	6.499	6.529	6.362	6.135	6.252	6.254	5.979	5.720	5.726	5.963	5.739	6.000	5.953	5.838	6.056	6.118	6.519	6.599	6.657	7.091	7.170	7.267	7.478	7.705	7.959
395.0	580.3	585.6	583.4	586.5	607.0	620.7	625.5	638.4	654.4	709.5	762.8	817.5	862.4	903.8	928.2	937.9	968.5	1009	1046	1071	1096	1100	1084	1028	949.7	844.2	742.0	611.0	505.3	413.4	354.7	449.6	1164	2548	9999.9	9999.9	9999.9	196.8	50.60	33.76	26.50	20.00	15.62	13.36	11.79	10.86	9.278	8.883	8.208	7.064	6.762	6.635	6.909	6.721	6.512	6.369	6.453	6.540	6.455	6.243	6.371	6.094	6.186	6.004	5.986	5.934	6.339	6.268	6.629	6.512	6.807	7.099	7.400	7.437	7.528	8.364	8.391
400.0	606.6	587.4	599.7	602.4	632.9	649.4	657.8	671.2	684.7	718.6	775.1	813.7	864.4	906.1	933.7	951.4	988.6	1026	1078	1108	1136	1153	1141	1091	1020	920.0	825.5	709.9	593.6	488.0	399.8	344.4	448.2	719.5	2935	9999.9	9999.9	9999.9	147.0	45.01	32.39	24.67	18.34	15.19	13.00	11.85	9.830	9.669	8.593	7.689	6.993	7.342	7.289	6.884	6.788	6.640	6.910	6.821	6.733	6.210	6.176	6.278	6.042	6.129	6.244	5.913	6.288	6.248	6.852	6.464	7.127	7.077	7.352	7.586	8.006	8.397	8.733
405.0	597.6	589.8	604.0	626.4	651.5	675.6	674.8	683.3	709.5	738.1	784.8	824.1	867.7	906.5	936.5	963.6	1004	1040	1094	1130	1159	1180	1178	1138	1075	982.7	885.9	796.8	682.8	564.9	458.1	360.1	318.2	326.7	798.2	4201	9999.9	9999.9	1825	95.13	40.32	29.60	22.42	17.05	13.95	12.79	10.92	10.24	8.821	8.355	7.174	7.677	7.528	7.223	6.931	6.979	7.266	7.130	6.681	6.614	6.277	6.577	6.209	6.375	6.287	6.191	6.431	6.641	6.712	6.653	7.179	7.400	7.282	7.681	7.995	8.682	8.816
410.0	603.8	614.6	613.5	648.7	674.5	694.5	700.3	711.9	732.9	760.7	803.4	838.2	869.5	904.1	935.6	964.1	1007	1047	1098	1140	1172	1201	1209	1183	1131	1051	960.8	878.4	793.7	672.3	553.1	434.5	343.3	277.2	337.5	1075	4714	9999.9	9999.9	8090	138.9	42.83	29.78	22.43	17.73	14.64	12.32	11.05	9.699	8.560	7.793	8.141	7.880	7.617	7.438	7.423	7.381	7.289	6.990	7.075	6.824	6.783	6.481	6.411	6.159	6.374	6.440	6.839	6.703	6.920	7.094	7.316	7.505	7.469	7.891	8.372	8.824
415.0	621.1	611.1	619.3	651.5	696.2	710.2	719.1	740.1	757.8	775.9	815.3	849.5	870.1	905.6	932.2	955.4	993.9	1036	1088	1133	1166	1202	1216	1209	1166	1107	1028	950.6	875.4	785.5	650.8	516.2	403.4	312.7	266.9	387.6	1172	2557	9999.9	9999.9	9999.9	167.8	44.15	29.96	23.38	18.39	14.00	12.34	10.54	9.325	8.229	8.499	8.537	8.212	7.994	7.928	7.659	7.420	7.675	7.447	7.089	7.292	6.730	6.790	6.485	6.298	6.192	6.751	6.874	6.940	7.454	7.089	7.479	7.760	7.940	8.361	8.719
420.0	596.2	590.6	621.7	660.7	705.6	724.0	735.9	762.8	768.2	787.4	819.5	845.1	866.8	896.0	918.4	946.4	977.5	1019	1072	1110	1151	1192	1213	1212	1184	1131	1062	994.4	917.9	841.8	726.0	578.3	454.2	354.6	278.7	254.3	396.3	687.9	3101	9999.9	9999.9	9999.9	118.0	40.01	29.14	22.02	16.61	13.79	11.62	10.00	8.533	8.951	8.900	8.606	8.029	8.053	8.208	7.572	7.695	7.601	7.422	7.338	7.037	6.913	6.773	6.690	6.459	6.408	6.908	7.007	7.357	7.339	7.657	7.476	7.837	8.375	9.097
425.0	597.0	584.5	624.0	671.0	705.0	730.1	753.8	767.7	772.8	803.8	830.6	849.0	867.3	888.7	902.7	928.8	964.5	999.0	1051	1089	1131	1173	1206	1209	1183	1145	1088	1026	956.8	877.8	778.4	636.4	504.8	395.7	311.8	249.6	240.3	275.6	808.5	4686	9999.9	9999.9	1676	72.05	36.47	26.85	19.67	15.94	12.64	10.91	9.174	9.657	9.234	9.032	8.413	7.966	8.346	8.090	8.008	7.472	7.592	7.531	7.021	6.870	6.981	6.649	6.442	6.776	6.994	6.893	6.943	7.453	7.782	7.484	7.788	8.139	8.710
430.0	596.1	586.6	621.6	666.1	705.8	739.9	755.8	776.2	778.8	816.7	835.5	853.3	861.7	876.3	889.6	909.6	944.7	976.1	1023	1058	1101	1139	1177	1197	1180	1150	1110	1054	1004	927.7	834.2	710.5	574.5	456.2	362.9	288.4	240.5	208.2	300.0	1162	5052	9999.9	9999.9	7018	120.8	39.45	26.18	20.29	15.62	12.35	10.38	10.40	9.946	9.397	9.180	8.722	8.651	8.558	8.259	7.869	7.554	7.361	7.122	7.030	7.039	6.682	6.770	6.570	6.955	6.854	7.088	7.244	7.782	7.606	7.749	8.054	8.864
435.0	728.0	597.4	616.7	665.0	704.8	738.7	754.9	796.2	791.2	822.5	846.0	860.9	864.3	872.5	876.3	887.1	920.3	944.5	990.3	1015	1065	1105	1143	1170	1163	1150	1118	1079	1033	977.4	879.4	772.6	647.6	520.2	422.8	342.0	277.8	226.4	210.8	377.2	1229	2637	9999.9	9999.9	9999.9	141.8	39.24	27.32	20.21	15.35	12.57	11.80	10.71	10.53	9.464	9.294	8.970	8.809	8.408	8.123	7.656	7.622	7.224	7.332	7.346	6.813	6.950	6.611	6.734	7.088	6.993	6.860	7.583	7.379	7.653	7.991	8.573
440.0	1011	596.0	607.2	644.9	705.0	739.9	763.0	793.6	808.4	825.2	849.0	864.2	859.3	854.9	858.8	870.9	899.5	925.4	964.2	986.0	1034	1076	1119	1147	1153	1140	1115	1087	1055	1001	916.2	802.8	690.9	577.9	468.4	379.0	311.6	253.7	211.2	217.4	384.5	693.0	3388	9999.9	9999.9	9846	93.19	36.13	24.76	18.68	14.27	13.06	11.69	11.19	10.44	9.949	9.451	9.003	9.019	8.379	7.943	8.033	7.408	7.076	7.237	7.337	6.792	6.684	7.020	6.691	6.833	6.856	7.594	7.439	8.015	7.849	8.286
445.0	1182	675.7	609.6	653.9	697.7	730.6	769.1	789.1	802.3	821.1	858.0	859.5	854.8	840.4	849.0	853.3	869.9	899.3	927.8	961.7	1001	1037	1085	1116	1125	1122	1103	1084	1059	1019	937.5	826.1	715.5	618.1	506.3	416.1	343.2	279.4	230.4	198.4	207.9	258.7	865.7	5726	9999.9	9999.9	1368	61.62	32.12	22.07	16.78	14.33	12.60	11.73	10.62	10.14	9.891	9.304	8.805	8.624	8.239	8.045	7.759	7.261	7.390	7.163	6.966	7.110	6.892	6.934	7.156	7.001	7.524	7.347	7.587	7.640	8.235
450.0	974.2	1041	606.9	623.0	685.7	715.0	753.3	779.3	796.9	813.4	836.6	843.0	830.1	816.5	807.6	817.4	834.6	852.1	883.0	908.9	940.1	980.3	1026	1057	1071	1076	1067	1060	1042	1014	944.3	845.9	738.6	641.5	550.1	459.5	381.6	315.5	261.6	215.8	188.4	176.2	294.2	1387	5615	9999.9	9999.9	6255	100.4	31.78	22.15	18.30	15.31	13.33	11.83	10.74	10.51	10.00	9.195	8.721	8.567	8.099	7.621	7.505	7.509	7.134	7.020	7.006	7.128	7.051	6.913	6.833	7.257	7.433	7.461	7.744	8.220
455.0	654.6	1274	794.0	596.8	649.0	680.1	721.8	754.4	769.2	800.2	807.9	814.7	791.5	783.8	774.8	772.6	781.2	798.9	823.4	845.7	872.7	913.8	949.8	981.4	1002	1011	1014	1014	1008	987.5	933.4	848.5	747.5	650.3	571.1	494.2	414.8	346.1	290.4	242.5	202.7	172.5	177.0	404.6	1339	2774	9999.9	9999.9	9999.9	106.1	31.06	23.80	19.02	15.57	13.17	11.60	10.62	10.55	9.733	8.870	8.652	8.139	7.942	7.547	7.278	7.010	6.852	6.891	6.894	6.651	6.991	6.908	6.871	7.155	7.102	7.288	8.014
460.0	542.9	1035	1257	600.0	619.4	656.7	692.2	731.0	749.1	774.4	785.6	787.1	766.5	755.7	742.4	735.2	743.4	752.2	775.0	792.5	820.1	860.3	892.9	925.6	945.5	961.8	967.3	969.7	974.9	963.5	913.5	840.9	746.6	655.0	576.6	508.5	439.6	367.1	309.8	261.7	219.8	181.6	159.4	191.0	386.2	707.1	3484	9999.9	9999.9	7411	73.24	30.29	21.80	18.19	14.84	12.95	11.29	10.59	9.666	9.159	8.656	8.248	7.609	7.692	7.794	7.302	6.732	6.490	6.745	6.684	7.183	6.664	6.450	6.695	6.928	7.203	7.655
465.0	489.9	692.7	1579	770.7	587.8	630.8	663.7	700.5	727.8	750.4	767.9	766.1	743.0	725.3	703.3	701.8	703.0	713.6	729.4	748.9	774.9	803.2	839.3	869.4	890.7	910.2	918.8	928.5	940.9	929.9	888.0	820.9	737.1	651.4	577.1	510.1	453.9	382.0	323.9	274.1	232.0	193.0	163.2	151.3	178.4	238.8	866.9	5487	9999.9	9999.9	1141	52.84	26.93	21.43	17.62	14.42	12.88	11.38	10.18	9.595	8.779	8.851	7.791	7.574	7.692	7.205	6.791	6.640	6.663	6.578	6.633	6.561	6.631	6.408	7.199	6.838	7.325
470.0	456.2	492.0	1235	1496	622.3	593.2	626.2	659.5	683.1	708.9	723.1	714.8	695.0	677.9	656.1	645.6	649.9	658.9	674.0	684.0	703.6	734.3	767.3	794.6	818.5	834.8	844.7	860.0	872.3	868.4	842.7	782.8	711.2	636.2	566.9	504.1	451.0	393.8	336.6	286.3	244.9	207.1	175.4	150.5	139.4	137.5	266.2	1309	5183	9999.9	9999.9	5816	94.85	30.83	22.22	18.16	15.38	12.74	11.25	10.22	9.386	8.935	8.244	7.852	7.675	7.259	7.121	6.928	6.818	6.644	6.490	6.290	6.404	6.421	6.505	6.473	6.919
475.0	402.9	416.1	632.8	1892	1103	559.0	583.1	618.7	632.9	662.0	673.0	671.3	648.5	626.8	603.5	596.5	594.7	600.8	609.2	617.4	634.4	659.2	684.4	716.0	736.0	752.3	765.0	783.2	800.3	804.3	784.1	735.3	672.4	609.5	548.2	491.1	441.0	390.9	344.8	297.2	252.9	216.7	186.2	157.1	136.1	118.0	132.4	354.0	1214	2622	9999.9	9999.9	9713	113.9	30.17	22.16	17.80	14.54	11.81	10.41	9.684	8.742	8.033	7.748	7.319	6.891	6.624	6.396	6.399	6.038	6.042	6.360	6.036	5.953	6.294	6.021	6.149
480.0	399.9	388.3	452.6	1423	1901	573.3	553.5	583.3	608.2	630.5	647.4	637.8	620.7	595.4	575.2	558.8	559.3	557.9	568.2	573.5	592.0	614.4	635.7	661.9	682.5	698.9	717.1	733.2	752.5	761.3	744.3	701.4	646.2	589.1	533.0	479.0	435.0	386.0	346.9	301.8	258.8	222.7	192.1	164.4	139.5	118.6	105.3	141.6	326.2	641.5	3059	9999.9	9999.9	1520	73.66	27.67	21.19	16.68	13.73	11.24	10.09	8.880	8.156	7.975	7.451	6.765	6.366	6.377	6.368	5.797	5.995	5.995	5.889	5.903	5.848	6.103	5.809
485.0	370.1	365.5	396.4	799.3	2376	897.1	526.2	552.1	581.0	607.0	620.2	611.3	590.6	565.1	546.4	533.0	529.0	528.8	532.5	540.7	555.2	574.3	597.1	622.9	637.7	656.1	673.3	690.3	714.2	723.6	709.7	670.7	624.0	569.2	521.3	470.4	427.1	382.8	343.5	306.5	264.5	227.9	198.1	171.9	145.8	122.4	101.7	99.36	130.0	193.4	740.7	4401	9999.9	9999.9	1298	47.05	26.64	19.49	15.85	12.97	10.81	9.454	8.660	7.955	7.610	7.164	6.605	6.426	6.092	5.847	5.763	5.601	5.805	5.506	5.643	5.857	5.685
490.0	345.5	349.8	357.9	487.5	1640	2080	603.7	522.2	551.5	571.7	589.3	582.8	559.3	537.0	510.7	502.1	494.9	492.1	493.1	499.2	510.1	527.8	549.1	570.8	588.5	602.2	619.7	639.9	659.0	672.5	664.3	631.4	592.0	542.8	500.5	455.9	416.8	374.1	337.5	303.5	270.8	233.3	203.9	178.9	155.1	130.1	107.8	93.36	88.25	93.80	210.6	1042	4769	9999.9	9999.9	6083	100.4	26.30	19.78	15.80	12.93	10.60	9.202	8.349	7.828	7.361	6.752	6.619	6.150	5.951	5.759	5.451	5.595	5.566	5.615	5.429	5.425
495.0	306.2	328.2	337.5	381.6	716.1	2591	1349	490.8	511.6	536.5	550.8	542.2	526.3	500.5	479.4	463.1	454.0	447.3	453.1	456.5	464.3	482.9	497.6	516.0	533.7	545.3	560.8	580.2	602.5	616.1	611.3	582.8	546.9	510.2	473.4	433.2	397.1	363.0	326.4	295.2	267.3	239.4	207.6	181.7	159.7	136.6	114.2	96.81	82.88	73.63	92.25	275.2	1108	2538	9999.9	9999.9	9999.9	120.0	27.52	18.89	14.68	12.51	10.08	8.753	8.360	7.250	6.912	6.455	6.237	5.748	5.646	5.638	5.235	5.478	5.309	5.202	5.258
500.0	293.2	295.7	300.7	338.1	438.2	1819	2467	540.0	477.1	503.2	524.2	508.5	491.0	468.9	447.0	430.3	422.8	414.7	419.8	419.7	427.3	436.6	457.3	474.8	489.8	503.2	518.4	535.0	555.7	569.6	567.1	545.1	515.1	479.0	445.6	412.7	381.6	347.4	315.3	286.2	256.8	236.8	207.9	183.7	161.6	138.3	116.6	98.70	83.80	70.91	66.08	103.8	287.0	614.8	3038	9999.9	9999.9	1664	75.47	23.31	16.60	13.52	10.77	9.489	7.864	7.355	6.822	6.109	5.931	5.780	5.571	5.318	5.302	5.093	4.944	5.017	5.057
505.0	277.9	272.3	288.2	301.2	360.6	900.7	3200	1023	447.6	471.3	488.2	481.0	456.5	436.3	416.8	401.5	392.4	385.5	390.1	388.0	391.0	399.2	419.7	436.3	445.7	464.0	475.2	493.8	512.7	525.1	526.4	507.2	478.6	446.6	417.6	386.9	361.7	330.3	300.9	274.4	247.9	226.4	204.9	181.5	159.7	138.6	117.4	99.70	84.87	70.40	61.58	64.83	102.9	177.6	730.3	4184	9999.9	9999.9	1444	40.27	20.72	14.97	11.90	9.949	8.489	7.395	6.676	5.903	5.899	5.313	5.147	5.210	5.131	4.545	4.757	4.675	4.809
510.0	258.8	240.7	256.3	278.9	310.4	457.9	2108	2590	589.0	430.8	442.8	437.3	417.0	394.9	374.1	362.0	351.9	344.0	345.9	345.2	347.4	354.8	369.9	383.4	395.9	406.9	418.6	435.5	451.9	469.1	467.3	452.0	430.6	402.5	377.6	351.6	328.2	302.3	277.6	254.0	231.7	212.0	194.0	176.6	156.1	134.8	115.4	99.28	85.00	71.40	60.73	56.19	60.89	75.87	199.7	982.3	4359	9999.9	9999.9	6371	94.91	20.55	14.03	11.25	9.353	7.693	6.720	5.948	5.786	5.131	4.972	4.701	4.651	4.396	4.198	4.203	4.439
515.0	231.4	220.6	222.5	247.1	269.6	319.3	777.2	3261	1584	393.6	394.6	392.5	370.3	352.1	330.4	323.1	309.3	304.3	305.3	302.9	305.0	312.7	323.0	336.5	343.6	351.2	365.2	377.3	393.3	408.1	409.7	398.6	377.9	356.0	335.1	313.4	293.6	272.6	252.4	232.6	211.6	195.6	178.5	166.3	148.7	130.0	112.6	95.86	82.51	70.96	61.02	54.07	51.13	51.21	77.17	250.4	1006	2438	9999.9	9999.9	9999.9	113.6	19.12	13.77	10.51	8.468	7.229	6.202	5.717	5.076	5.026	4.275	4.195	4.147	3.772	3.921	4.046
520.0	209.3	205.2	204.6	224.6	244.7	277.0	398.7	2156	3256	487.9	365.0	355.2	339.9	319.9	302.6	292.8	279.9	275.2	272.7	273.9	272.6	283.1	290.3	299.3	310.0	317.7	328.0	338.9	353.0	366.8	367.0	358.3	341.0	323.3	304.1	287.6	269.4	251.7	232.9	215.1	196.8	181.4	168.2	156.4	143.4	126.3	108.6	93.48	80.66	70.11	59.91	53.38	48.41	45.27	49.17	85.84	254.0	579.6	2692	9999.9	9999.9	1675	29.66	16.93	11.93	9.017	7.712	6.638	5.514	5.069	5.211	4.393	3.995	3.706	3.691	3.654	3.740
525.0	192.9	187.1	188.4	200.4	227.6	239.0	286.5	951.0	4059	1143	330.6	326.5	310.3	294.8	279.0	266.4	257.4	250.0	248.6	247.4	250.5	254.2	261.7	270.2	277.8	286.9	295.7	305.3	320.9	330.1	333.0	321.6	309.3	294.2	277.2	263.1	245.3	231.5	213.8	200.2	184.4	170.3	159.3	146.3	136.0	122.1	106.2	91.23	78.48	68.21	58.91	52.90	47.08	43.86	41.87	48.77	83.78	157.3	636.7	3347	9999.9	9999.9	1374	25.56	14.90	10.37	8.508	7.137	5.923	5.328	4.966	4.248	4.208	3.698	3.595	3.693	3.639
530.0	168.8	159.8	172.1	176.6	198.4	214.4	236.6	413.4	2456	3318	524.3	294.8	278.9	263.2	248.7	238.9	228.7	221.9	219.8	218.8	218.8	224.5	229.2	237.7	241.3	251.4	258.1	267.2	279.1	289.4	292.0	283.1	271.4	259.3	245.1	232.8	218.2	206.4	191.4	180.6	167.8	154.9	144.6	134.2	124.1	113.4	101.4	87.17	75.19	65.53	57.14	51.34	46.18	42.91	39.46	38.93	44.41	59.38	165.9	778.7	3414	9999.9	9999.9	6098	89.83	14.56	10.33	8.069	6.562	5.603	4.705	4.376	3.939	3.708	3.507	3.338	3.488
535.0	153.4	148.4	153.8	154.2	174.1	198.0	208.3	263.0	792.3	4020	1411	270.3	247.6	235.1	221.8	208.0	201.4	194.4	190.8	191.6	191.5	193.3	200.1	206.8	208.9	216.7	222.4	229.1	241.3	249.7	252.6	246.2	237.5	227.0	214.4	203.5	192.8	181.6	170.1	159.2	149.1	139.4	130.4	121.4	112.5	102.7	93.95	83.40	71.42	61.88	54.79	48.58	44.79	41.05	37.86	35.80	34.44	35.27	57.55	194.3	783.5	2346	9823	9999.9	9406	28.79	14.44	9.580	7.661	6.178	5.132	4.665	3.962	3.703	3.337	3.191	3.125
540.0	137.1	130.3	137.6	146.9	155.2	173.6	183.1	211.3	344.5	2511	3835	403.8	225.8	215.4	200.1	190.8	181.2	177.1	174.3	174.5	172.3	175.2	181.1	186.1	186.6	195.0	200.1	205.5	214.8	224.5	225.3	220.0	213.1	202.7	192.9	183.7	173.3	164.1	154.7	146.3	135.6	128.8	119.3	112.5	104.3	95.70	87.17	80.13	68.94	59.54	52.46	46.95	43.12	39.58	37.35	33.66	31.09	28.25	32.41	61.89	193.5	546.7	2462	9999.9	9999.9	1660	26.18	12.54	8.954	6.767	5.874	4.776	4.228	3.636	3.350	2.888	3.006
545.0	128.0	119.6	127.2	129.6	139.5	155.7	170.2	185.2	232.3	994.2	4857	1070	209.3	196.8	180.7	174.8	165.6	159.8	160.1	158.0	155.1	160.7	164.5	167.3	169.0	175.3	179.6	185.0	193.4	201.3	202.8	198.4	192.7	184.3	174.0	165.4	158.6	150.0	143.3	133.5	125.4	119.8	110.7	105.0	98.08	89.11	81.22	75.11	66.29	57.15	50.40	45.67	41.45	38.59	36.03	32.93	29.51	26.52	25.54	31.40	59.85	140.2	573.7	2928	9999.9	9999.9	1332	21.37	10.97	7.740	6.248	5.177	4.229	3.689	3.388	3.064	2.996
550.0	122.4	114.3	111.3	118.4	123.4	138.0	152.5	159.2	179.6	367.4	2810	3768	437.6	173.2	161.7	154.0	148.4	141.5	141.0	137.9	137.0	139.2	143.8	145.5	147.8	153.1	156.8	162.4	169.4	174.1	176.3	172.0	167.5	159.9	153.0	146.4	139.5	132.6	126.4	118.8	111.8	105.3	99.37	94.32	87.94	80.52	73.69	67.72	61.00	53.50	47.10	43.20	39.44	36.41	34.39	31.49	28.25	25.71	23.16	23.12	28.27	45.84	143.6	675.0	2988	9999.9	9999.9	5676	22.89	10.82	7.394	5.601	4.637	3.957	3.284	3.117	2.892
555.0	101.4	95.62	98.43	102.4	106.5	117.9	138.4	140.3	156.0	202.5	826.3	4532	2048	161.9	141.4	135.4	129.2	123.2	121.3	118.2	118.3	119.9	123.7	126.3	127.8	130.1	135.5	140.4	144.3	149.1	151.8	148.6	143.7	137.8	132.3	126.2	120.0	115.0	108.9	104.0	97.36	92.72	87.89	83.62	78.95	72.80	66.44	59.66	54.43	49.63	43.76	39.65	36.24	34.22	32.37	30.16	27.47	24.31	21.85	20.03	19.84	23.23	44.90	163.6	680.5	2305	7766	9999.9	7902	26.60	10.31	6.646	5.186	4.142	3.558	3.027	2.800
560.0	96.04	91.02	88.05	87.27	94.96	104.4	117.8	131.5	141.9	152.3	304.8	2706	4316	294.4	129.4	121.5	115.2	112.2	108.7	106.5	107.6	108.1	110.7	112.4	114.5	114.9	117.7	122.8	128.4	131.9	134.8	133.6	128.8	122.7	117.3	112.6	107.4	103.4	96.92	94.01	87.93	83.56	79.58	75.61	71.19	66.51	60.22	54.40	50.17	45.33	41.52	37.71	34.23	32.87	30.21	28.39	25.61	23.13	20.51	18.78	17.29	17.35	21.98	48.09	164.2	529.8	1921	9999.9	9999.9	1600	21.45	8.710	5.888	4.516	3.760	3.224	2.783
565.0	96.62	82.83	84.03	80.66	86.44	91.74	105.3	116.1	127.4	131.4	173.9	982.3	5395	837.7	118.3	108.8	102.3	101.6	96.86	95.35	95.32	96.90	98.80	99.32	101.1	101.8	105.4	108.8	112.1	116.2	118.6	117.5	112.6	107.7	104.2	99.21	95.02	91.81	86.91	83.56	79.60	74.59	70.40	67.61	64.74	59.78	55.39	49.35	45.68	40.73	38.48	35.18	32.66	30.60	28.45	26.69	23.68	21.52	19.44	18.13	16.05	15.32	16.03	21.33	47.81	130.0	445.6	2704	9999.9	9999.9	226.4	15.08	7.126	5.197	3.916	3.397	2.845
570.0	87.82	73.11	68.97	71.07	70.61	79.30	87.56	97.59	108.4	111.8	126.4	313.7	3002	3963	318.0	93.46	88.79	85.09	82.31	80.48	80.30	81.42	82.76	84.11	84.59	87.04	88.45	90.79	94.10	97.37	98.99	96.92	93.57	89.58	86.81	83.81	80.03	76.89	73.38	70.48	66.76	63.24	60.30	58.36	55.33	51.55	47.44	43.27	39.71	35.22	33.12	30.86	29.18	26.77	25.32	23.63	21.64	19.64	17.75	16.40	14.77	13.94	12.93	14.11	19.69	38.40	109.4	617.0	2776	9676	9999.9	3830	18.98	6.741	4.480	3.544	2.987
575.0	80.56	65.26	54.28	58.75	59.33	66.30	70.22	78.29	87.87	92.11	99.63	140.6	805.0	4987	1968	86.23	72.97	70.03	67.64	65.39	65.62	65.69	67.46	68.01	68.22	69.88	71.34	72.37	74.49	76.54	78.22	77.37	74.17	71.45	69.86	67.14	64.11	62.05	59.09	56.51	53.44	51.42	49.36	47.72	45.23	41.71	39.48	35.72	32.99	29.65	27.23	25.50	24.55	23.35	21.96	20.15	18.85	17.05	15.40	14.17	13.17	12.20	11.06	10.88	11.90	16.09	32.02	145.6	628.3	2208	6096	9999.9	1726	20.98	6.241	4.302	3.183
580.0	75.43	57.43	49.05	50.46	50.71	54.97	59.90	65.78	75.98	81.91	87.72	94.74	243.4	2939	4554	206.2	61.96	58.74	56.09	54.15	55.30	54.56	56.87	55.85	57.25	57.73	58.53	60.09	63.24	63.91	65.34	63.30	60.88	59.92	57.99	55.95	53.97	51.54	49.52	46.65	44.50	43.00	41.40	39.95	37.67	35.22	32.40	30.16	27.56	25.24	23.56	21.82	21.29	20.77	19.33	18.25	16.71	15.02	14.11	12.58	11.65	10.51	10.18	9.775	9.469	10.27	13.48	39.12	147.5	501.6	1501	7763	9999.9	1269	13.56	4.802	3.397
585.0	65.68	54.49	48.83	43.48	44.50	46.92	51.12	54.79	65.87	73.32	73.52	79.73	111.6	1017	5918	639.9	55.15	50.37	48.84	46.60	47.48	46.20	47.66	47.17	48.37	48.39	49.65	49.50	52.98	54.34	55.18	53.35	51.09	49.83	47.91	46.06	45.80	43.29	41.21	39.61	38.14	36.53	35.36	33.43	32.12	30.37	27.90	25.71	23.30	21.69	20.05	18.74	17.97	18.03	17.25	15.91	14.90	13.50	12.60	10.98	10.32	9.700	9.167	8.800	8.173	8.154	8.726	14.62	39.38	119.1	345.2	2093	9176	8497	200.0	7.031	4.131
590.0	57.14	48.40	44.31	40.19	37.92	40.61	43.33	45.71	52.25	62.52	65.86	67.55	74.27	281.5	3333	3992	221.2	41.87	40.78	38.50	37.61	36.66	37.85	37.64	38.17	38.17	39.03	39.97	41.30	43.23	43.51	42.25	40.27	39.00	38.13	36.46	35.65	33.84	32.51	31.53	30.36	29.01	27.56	26.78	25.78	24.13	22.54	20.64	18.76	17.56	16.30	15.52	14.82	14.88	14.71	13.70	12.61	11.71	10.62	9.794	8.944	8.297	7.963	7.666	7.230	6.780	6.919	7.985	13.86	31.91	83.05	475.0	2425	6561	6569	885.6	13.96
595.0	58.61	49.69	39.45	33.67	33.08	35.00	36.89	40.18	44.50	53.56	58.55	60.42	62.25	105.6	866.6	5124	1806	41.75	32.66	30.97	30.53	30.46	29.76	30.24	29.71	30.04	30.90	31.20	33.83	34.07	33.98	33.06	32.78	31.04	29.81	28.67	27.62	26.42	26.17	24.91	24.53	22.94	22.34	21.66	20.33	19.32	18.23	16.74	15.05	13.89	13.34	12.39	11.79	11.80	12.21	11.63	10.88	9.880	8.978	8.319	7.957	7.105	6.837	6.824	6.180	5.854	5.795	6.138	7.181	11.13	22.96	110.8	545.2	1502	3787	6981	1290
600.0	59.42	46.13	37.04	33.26	29.09	29.65	32.53	36.86	39.88	46.81	55.22	59.20	57.03	62.88	230.4	3054	4283	69.19	29.88	26.81	26.58	25.88	25.65	26.08	25.92	25.62	26.65	26.52	27.58	28.53	28.57	28.34	26.44	25.42	24.83	23.90	23.29	22.48	21.76	20.56	20.18	19.57	18.92	18.27	17.24	16.67	15.79	13.90	13.08	12.09	11.45	10.80	10.03	10.28	10.28	9.872	9.436	8.784	8.064	7.760	7.313	6.482	6.065	5.799	5.820	5.372	5.302	5.131	5.319	6.251	9.082	28.63	125.7	339.8	952.6	4843	5667
605.0	55.63	49.29	38.98	31.72	26.55	27.35	28.57	31.82	36.23	42.99	53.28	56.42	56.45	52.18	84.05	1048	5649	477.1	27.39	23.76	23.80	23.21	23.24	22.42	21.75	22.40	22.93	22.65	23.03	24.67	24.96	24.27	23.25	22.58	21.55	21.13	20.11	19.79	18.54	17.70	17.44	17.01	16.33	15.66	14.70	14.08	13.50	12.54	11.63	10.72	9.881	9.398	9.040	9.367	9.227	8.725	8.626	7.755	7.247	6.641	6.265	5.734	5.586	5.307	5.219	5.046	4.817	4.807	4.667	4.645	5.597	9.870	31.52	79.61	218.0	1367	5294
610.0	47.43	45.30	38.54	27.64	23.41	24.05	25.88	29.62	33.44	39.99	48.59	55.38	52.71	48.00	48.15	267.2	3234	3357	142.2	21.92	20.70	19.61	19.40	19.39	18.94	18.77	19.07	18.97	19.75	20.62	21.01	20.53	19.67	19.04	18.38	18.11	17.22	16.50	15.29	14.76	14.30	13.83	13.59	13.07	12.85	11.63	11.38	10.68	9.584	9.042	8.451	8.064	7.660	7.961	7.660	7.362	7.577	6.789	6.377	5.765	5.667	5.131	5.170	4.796	4.660	4.592	4.396	4.336	4.089	4.083	4.145	5.097	9.799	20.60	51.98	309.5	1481
615.0	50.57	43.55	32.06	24.86	22.59	21.50	23.69	26.13	30.75	37.57	45.83	53.31	53.17	45.65	38.86	80.86	828.1	4714	1364	22.73	18.49	17.60	16.32	16.21	15.88	15.75	15.77	15.89	16.40	17.10	17.42	17.38	16.23	16.25	15.79	15.42	14.15	13.92	12.85	12.26	11.35	11.35	11.19	10.76	10.26	9.658	9.340	8.645	8.121	7.696	7.048	6.748	6.395	6.463	6.487	6.248	6.193	5.864	5.797	5.236	4.889	4.545	4.384	4.385	4.188	4.005	3.746	3.793	3.636	3.662	3.494	3.626	4.497	6.745	14.06	71.45	332.4
620.0	47.91	39.72	31.30	26.56	21.73	21.38	21.70	23.72	28.54	37.77	43.33	52.45	52.74	46.77	35.24	38.21	205.2	2936	3543	50.33	17.06	15.51	14.89	14.62	14.09	14.39	14.13	13.93	14.46	14.57	14.83	14.53	13.96	13.69	13.52	13.17	12.14	12.20	10.66	10.59	9.881	9.745	9.359	9.327	8.740	8.195	8.195	7.780	7.065	6.657	6.038	5.829	5.878	5.713	5.865	5.569	5.454	5.340	5.107	4.567	4.445	4.312	4.126	3.961	3.776	3.761	3.409	3.351	3.183	3.287	3.156	3.002	3.199	3.524	5.216	18.03	76.43
625.0	50.61	40.25	33.03	25.53	20.15	19.14	19.74	22.99	28.24	35.44	41.29	49.81	53.15	47.44	34.39	27.82	61.67	1047	5140	374.1	16.54	14.28	14.03	13.39	12.66	12.84	12.45	12.52	13.15	12.57	13.08	12.90	12.18	11.82	11.56	11.00	10.80	10.67	9.598	9.345	8.612	8.388	8.257	8.340	7.812	7.399	7.144	6.726	6.330	5.856	5.478	5.012	4.849	4.843	5.225	4.932	5.024	4.786	4.546	4.265	3.907	3.754	3.517	3.690	3.561	3.342	3.187	3.071	2.990	2.956	3.065	2.739	2.636	2.688	3.159	5.817	19.06
630.0	53.04	41.94	34.65	25.89	18.95	18.87	20.50	21.92	27.27	34.82	41.59	48.33	52.16	46.56	34.80	24.70	27.87	259.1	3263	3063	40.17	13.94	12.71	12.03	11.67	10.84	10.76	10.91	11.08	10.87	10.87	11.03	10.29	10.39	9.857	9.347	9.286	8.838	8.152	7.892	7.452	7.374	7.105	7.099	6.893	6.579	6.250	5.895	5.600	4.928	4.645	4.523	4.509	4.447	4.410	4.355	4.318	4.198	3.937	3.816	3.597	3.316	3.283	3.159	3.060	3.098	2.888	2.729	2.700	2.642	2.662	2.376	2.429	2.207	2.250	2.823	5.847
635.0	52.46	39.94	33.01	23.94	19.55	16.58	18.13	21.02	26.37	34.32	41.09	48.50	52.49	47.12	35.18	22.65	18.25	69.76	871.6	4605	1090	14.78	11.86	10.47	10.40	10.16	9.390	9.704	10.00	9.479	9.738	9.149	8.827	9.019	8.388	8.227	7.467	7.578	6.925	6.854	6.412	6.374	5.987	6.102	5.811	5.487	5.359	5.077	4.825	4.178	4.162	3.771	3.854	3.861	3.657	3.784	3.745	3.602	3.390	3.239	3.155	3.031	2.984	2.831	2.749	2.826	2.698	2.482	2.373	2.413	2.288	2.275	2.196	1.799	1.842	1.954	2.625
640.0	53.56	43.12	34.38	22.78	17.22	16.24	16.81	21.76	26.29	33.00	41.55	48.84	50.97	48.08	35.63	21.87	16.66	26.44	210.3	3114	3074	35.91	11.47	10.16	9.497	9.343	8.599	8.868	8.848	8.744	8.480	8.427	8.122	7.857	7.250	7.704	7.080	6.915	6.214	5.981	5.855	5.672	5.449	5.226	5.330	4.893	4.697	4.650	4.107	3.753	3.715	3.550	3.497	3.577	3.456	3.399	3.251	3.301	3.224	3.049	2.977	2.893	2.775	2.524	2.439	2.614	2.321	2.362	2.367	2.164	2.165	2.131	1.886	1.827	1.645	1.609	1.789
645.0	54.08	40.88	34.89	23.99	18.60	16.57	17.07	20.57	23.93	33.99	40.13	47.25	49.69	46.24	36.72	23.23	16.86	15.93	56.79	1199	4754	289.0	11.55	9.650	8.917	8.335	8.059	8.123	7.943	7.874	7.898	7.784	7.519	6.832	6.768	6.594	6.299	6.224	5.840	5.473	5.319	5.199	4.802	4.735	4.839	4.628	4.320	3.940	3.886	3.556	3.329	3.022	3.149	3.374	3.184	3.275	3.153	2.977	2.963	2.745	2.586	2.554	2.563	2.356	2.304	2.347	2.197	2.336	2.211	2.102	1.949	1.926	1.870	1.626	1.519	1.505	1.615
650.0	43.08	41.73	34.69	22.91	16.68	17.32	15.24	20.40	25.19	33.17	41.31	45.27	48.43	46.85	37.38	23.54	15.45	12.85	21.08	313.1	4146	1714	16.52	9.579	8.704	7.776	7.527	7.092	7.558	7.426	7.464	7.340	6.844	6.322	6.398	6.156	5.819	5.537	5.499	5.156	4.917	4.929	4.406	4.401	4.326	4.219	3.868	3.619	3.395	3.226	2.982	2.873	3.014	3.112	2.948	2.982	2.960	2.663	2.835	2.578	2.395	2.348	2.252	2.346	2.354	2.239	1.951	2.094	2.008	2.015	2.085	1.744	1.720	1.584	1.465	1.438	1.607
