Sample:	'1
File name:	G2025072812预备河入塌河.FD3
Run date:	'15:21:31, 08/01/2025
Operator:	Administrator
Comment:	'

Instrument
Model:	F-2700 FL Spectrophotometer
Serial number:	23B8-004
ROM Version:	4J14000 07

Instrument parameters
Measurement type:	3-D scan
Data mode:	Fluorescence
EX  Start WL:	220.0 nm
EX  End WL:	600.0 nm
EX Sampling interval:	5.0 nm
EM  Start WL:	230.0 nm
EM  End WL:	650.0 nm
EM Sampling interval:	5.0 nm
Scan speed:	12000 nm/min
EX Slit:	5.0 nm
EM Slit:	5.0 nm
PMT Voltage:	700 V
Response:	Auto 
Corrected spectra:	Off
Contour interval:	50.000

Peak integration
Integration method:	Rectangular
Sensitivity:	1
Threshold:	1.000

Peaks
No.	ApexEX/EM(nm)	Height(Data)
1	225.0/575.0	87.36
2	225.0/620.0	58.17
3	235.0/350.0	2254
4	240.0/265.0	347.9
5	240.0/355.0	2258
6	245.0/270.0	345.3
7	250.0/275.0	450.0
8	255.0/285.0	495.2
9	255.0/560.0	217.6
10	260.0/290.0	529.1
11	260.0/425.0	1648
12	260.0/570.0	161.8
13	265.0/295.0	692.9
14	265.0/395.0	1679
15	265.0/585.0	136.0
16	270.0/300.0	971.2
17	270.0/600.0	110.4
18	275.0/310.0	1067
19	275.0/610.0	94.31
20	280.0/625.0	84.57
21	300.0/340.0	3083
22	485.0/350.0	8.211
23	500.0/375.0	7.284
24	505.0/275.0	2.538
25	510.0/280.0	2.963
26	515.0/285.0	3.151
27	520.0/420.0	6.713
28	530.0/290.0	3.064
29	540.0/295.0	4.242
30	545.0/300.0	4.647
31	550.0/305.0	5.297

Data points
	220.0	225.0	230.0	235.0	240.0	245.0	250.0	255.0	260.0	265.0	270.0	275.0	280.0	285.0	290.0	295.0	300.0	305.0	310.0	315.0	320.0	325.0	330.0	335.0	340.0	345.0	350.0	355.0	360.0	365.0	370.0	375.0	380.0	385.0	390.0	395.0	400.0	405.0	410.0	415.0	420.0	425.0	430.0	435.0	440.0	445.0	450.0	455.0	460.0	465.0	470.0	475.0	480.0	485.0	490.0	495.0	500.0	505.0	510.0	515.0	520.0	525.0	530.0	535.0	540.0	545.0	550.0	555.0	560.0	565.0	570.0	575.0	580.0	585.0	590.0	595.0	600.0
230.0	64.82	1109	2474	656.4	31.81	9.714	7.735	7.119	6.530	5.905	5.609	5.045	4.342	4.183	3.276	2.954	2.636	2.285	2.162	1.820	1.756	1.447	1.289	1.181	1.232	1.114	1.065	0.939	0.939	0.935	0.901	0.832	0.785	0.739	0.634	0.659	0.587	0.557	0.549	0.540	0.547	0.582	0.648	0.511	0.461	0.453	1.425	4.948	7.589	4.914	1.896	0.575	0.384	0.366	0.389	0.364	0.372	0.428	0.368	0.386	0.368	0.379	0.392	0.379	0.367	0.385	0.348	0.392	0.394	0.414	0.374	0.394	0.372	0.384	0.392	0.396	0.428
235.0	99.70	314.6	1649	2429	569.8	41.17	10.20	7.090	6.416	6.540	5.693	4.682	4.410	4.353	3.675	3.122	2.782	2.473	2.188	2.034	1.846	1.500	1.300	1.426	1.168	1.244	0.920	0.847	0.953	0.942	0.795	0.853	0.848	0.683	0.640	0.627	0.564	0.547	0.590	0.520	0.494	0.554	0.627	0.755	0.619	0.480	0.638	1.566	3.422	5.659	8.282	7.296	3.204	0.779	0.384	0.377	0.351	0.389	0.358	0.354	0.423	0.352	0.403	0.379	0.373	0.422	0.413	0.407	0.379	0.425	0.420	0.390	0.398	0.383	0.347	0.390	0.382
240.0	139.9	141.6	515.0	2332	2526	431.7	21.82	8.380	6.821	6.941	6.292	4.626	4.274	4.675	3.755	2.829	2.802	2.322	2.023	2.076	1.605	1.540	1.368	1.365	1.206	1.073	0.939	0.969	1.070	0.893	0.837	0.907	0.835	0.659	0.642	0.586	0.629	0.564	0.590	0.676	0.524	0.582	0.544	0.651	0.730	0.706	0.613	0.826	1.094	1.944	5.099	11.04	11.96	7.432	2.559	0.623	0.414	0.341	0.380	0.462	0.364	0.378	0.408	0.355	0.397	0.361	0.412	0.393	0.367	0.402	0.417	0.402	0.403	0.372	0.403	0.392	0.416
245.0	106.7	177.2	170.3	839.7	3048	2503	300.7	13.51	7.951	7.506	6.032	5.686	4.721	4.443	3.973	2.780	2.864	2.542	1.972	2.120	1.696	1.484	1.460	1.422	1.274	1.242	0.896	1.188	1.040	0.953	0.931	0.942	0.717	0.626	0.708	0.632	0.571	0.624	0.651	0.619	0.535	0.525	0.509	0.539	0.632	0.749	0.848	0.738	0.646	0.823	1.541	4.366	9.977	14.92	13.54	6.190	1.620	0.460	0.425	0.509	0.378	0.401	0.447	0.403	0.411	0.348	0.449	0.424	0.542	0.359	0.393	0.372	0.360	0.430	0.431	0.481	0.411
250.0	60.27	151.1	218.7	269.0	1053	2871	3242	969.0	46.27	8.908	6.697	6.900	5.277	5.060	3.882	3.426	3.086	2.807	2.158	2.070	1.759	1.645	1.459	1.462	1.307	1.195	1.205	1.206	1.078	0.976	0.953	0.878	0.718	0.702	0.627	0.660	0.581	0.616	0.588	0.594	0.509	0.517	0.529	0.549	0.473	0.539	0.637	0.800	0.962	0.877	0.804	1.346	2.783	5.439	9.737	13.99	16.10	13.19	6.745	1.814	0.447	0.396	0.404	0.482	0.438	0.364	0.397	0.415	0.447	0.386	0.413	0.443	0.362	0.427	0.442	0.460	0.461
255.0	49.61	59.11	168.6	277.5	315.8	759.1	3096	5024	355.5	41.89	9.248	8.363	5.719	5.511	3.769	3.567	3.340	2.603	2.494	2.343	1.993	1.628	1.553	1.358	1.309	1.184	1.211	1.215	1.064	1.044	1.001	0.944	0.713	0.871	0.618	0.651	0.612	0.610	0.573	0.486	0.551	0.530	0.575	0.497	0.470	0.503	0.480	0.540	0.670	0.913	1.241	1.282	1.114	1.545	2.524	3.760	7.564	17.29	26.78	22.62	9.486	1.916	0.499	0.447	0.493	0.447	0.392	0.374	0.421	0.462	0.432	0.419	0.403	0.367	0.425	0.378	0.420
260.0	46.28	40.39	75.26	260.7	278.9	220.4	995.9	4891	5097	294.4	22.47	10.43	7.422	6.496	4.205	4.414	3.348	2.957	2.833	2.311	1.999	1.606	1.686	1.363	1.445	1.283	1.228	1.144	1.052	1.117	0.994	0.944	0.847	0.818	0.732	0.701	0.657	0.573	0.618	0.604	0.594	0.492	0.604	0.546	0.513	0.520	0.496	0.500	0.492	0.584	0.926	1.683	1.495	1.100	0.927	1.188	2.164	5.162	13.58	26.86	31.86	20.22	6.937	1.013	0.457	0.432	0.402	0.413	0.517	0.447	0.441	0.473	0.476	0.410	0.441	0.397	0.481
265.0	44.19	33.49	37.18	126.7	347.9	209.9	261.2	1817	6658	2475	218.6	13.80	9.248	7.563	5.183	4.668	3.972	3.185	3.038	2.403	2.035	1.521	1.685	1.378	1.394	1.353	1.151	1.150	1.238	1.035	0.901	1.003	0.799	0.882	0.839	0.743	0.620	0.523	0.595	0.601	0.578	0.524	0.557	0.594	0.501	0.489	0.480	0.538	0.474	0.430	0.518	1.009	1.667	1.969	1.039	0.749	0.898	1.562	3.590	8.916	21.24	35.10	31.29	17.41	3.895	0.537	0.422	0.404	0.448	0.456	0.437	0.436	0.422	0.398	0.437	0.416	0.448
270.0	56.40	36.79	35.17	52.63	176.0	345.3	250.6	456.3	2312	5641	5566	886.6	44.59	9.618	6.811	5.180	4.302	3.543	2.844	2.514	2.049	1.783	1.780	1.566	1.494	1.419	1.252	1.194	1.159	1.101	0.993	0.995	0.795	0.766	0.855	0.752	0.643	0.591	0.670	0.617	0.618	0.596	0.565	0.599	0.513	0.552	0.485	0.525	0.440	0.416	0.411	0.592	0.832	1.214	1.572	1.818	1.603	1.024	1.217	2.417	5.510	11.14	19.49	30.08	32.75	29.67	13.05	3.617	0.657	0.446	0.445	0.455	0.476	0.457	0.430	0.509	0.524
275.0	83.69	66.14	56.64	42.85	67.05	181.0	450.0	301.9	560.7	1508	5957	9634	1188	35.25	9.064	6.475	4.992	3.991	3.558	3.024	2.413	2.169	1.815	1.863	1.616	1.329	1.282	1.441	1.230	1.171	1.032	1.024	0.908	0.863	0.886	0.732	0.725	0.667	0.660	0.625	0.617	0.719	0.616	0.642	0.564	0.632	0.570	0.627	0.457	0.422	0.416	0.512	0.539	0.627	0.784	1.234	2.264	2.538	1.856	1.192	1.673	2.963	4.877	7.385	11.78	27.12	48.15	32.88	19.31	3.311	0.541	0.491	0.505	0.518	0.473	0.538	0.563
280.0	116.3	115.6	88.56	56.78	47.77	81.19	323.1	460.9	255.0	402.6	1891	9368	8489	175.8	17.87	7.849	5.860	4.959	4.003	3.387	3.036	2.145	1.960	1.784	1.639	1.452	1.244	1.338	1.277	1.090	1.180	1.045	1.014	0.870	0.942	0.781	0.793	0.734	0.635	0.675	0.645	0.691	0.645	0.705	0.606	0.718	0.613	0.778	0.550	0.530	0.524	0.485	0.536	0.541	0.544	0.694	1.099	2.133	2.963	2.380	1.284	1.288	1.609	2.279	3.240	7.479	19.68	39.14	55.06	29.94	12.50	1.555	0.524	0.500	0.546	0.591	0.531
285.0	160.1	164.7	129.7	84.46	61.56	62.26	145.7	495.2	374.6	195.6	529.0	3304	9999.9	7983	125.0	11.13	7.451	5.698	4.252	3.816	3.113	2.164	2.291	1.910	1.722	1.606	1.422	1.288	1.551	1.340	1.020	1.208	1.082	0.981	0.993	0.882	0.865	0.809	0.724	0.757	0.699	0.710	0.711	0.740	0.723	0.818	0.703	0.806	0.752	0.585	0.601	0.570	0.567	0.577	0.557	0.570	0.720	1.155	1.804	3.151	3.052	1.705	1.113	1.211	1.325	2.429	5.248	11.37	27.79	49.62	54.57	24.63	6.380	0.901	0.555	0.508	0.542
290.0	233.3	258.5	207.3	137.1	96.57	80.39	100.1	243.2	529.1	482.6	304.9	907.1	3433	9999.9	6586	496.3	26.55	7.178	5.706	4.459	3.346	2.623	2.432	2.020	1.805	1.711	1.560	1.500	1.495	1.313	1.072	1.166	1.109	0.959	1.042	0.942	0.904	0.900	0.849	0.778	0.746	0.766	0.730	0.941	0.914	0.932	0.857	0.951	0.937	0.697	0.718	0.739	0.705	0.649	0.667	0.665	0.729	0.822	1.025	1.604	2.262	2.869	3.064	2.270	1.358	1.562	2.062	3.421	7.229	14.04	24.93	35.59	35.28	36.72	16.44	5.660	0.929
295.0	320.6	323.3	305.7	205.9	141.8	118.4	121.3	169.8	300.7	692.9	644.5	434.0	960.4	2594	6353	7615	666.8	21.29	7.473	5.821	4.149	3.260	2.779	2.220	1.990	1.878	1.721	1.546	1.548	1.267	1.236	1.179	1.192	1.128	0.915	1.028	0.996	1.055	1.052	0.831	0.802	0.868	0.779	1.012	0.834	1.036	1.051	1.151	1.137	1.007	0.923	0.930	0.921	0.840	0.784	0.783	0.884	0.896	0.984	1.076	1.365	1.553	2.391	3.758	4.242	2.650	1.828	2.026	2.843	4.290	6.565	8.938	10.62	24.01	46.55	53.86	24.97
300.0	325.5	373.7	354.1	255.5	182.4	161.7	162.2	196.1	261.2	502.9	971.2	597.4	495.5	777.6	1934	8157	6242	100.0	13.09	7.529	4.703	3.480	2.907	2.466	2.265	1.910	1.792	1.552	1.456	1.345	1.221	1.167	1.190	1.103	1.019	1.037	1.074	1.102	1.104	1.032	0.861	0.949	0.917	1.011	1.097	1.196	1.213	1.337	1.186	1.058	0.966	1.053	1.075	0.930	0.937	0.953	1.087	1.098	1.117	1.106	1.333	1.403	1.707	2.517	3.978	4.647	3.869	2.418	2.128	2.401	2.778	3.025	3.427	6.574	15.58	36.28	56.08
305.0	368.8	415.1	399.9	299.4	211.8	212.1	211.3	257.1	318.3	453.1	878.8	1041	559.7	466.0	628.5	2783	9185	4752	79.31	11.60	6.243	4.190	3.368	3.056	2.425	2.367	2.067	1.748	1.411	1.598	1.559	1.165	1.194	1.053	1.056	1.013	1.144	1.092	0.992	1.131	0.905	0.994	1.102	1.125	1.029	1.378	1.275	1.363	1.333	1.106	1.155	1.172	1.344	1.101	1.065	1.054	1.308	1.350	1.310	1.455	1.487	1.601	1.679	2.094	2.903	4.028	5.297	4.871	3.234	2.656	2.465	2.127	2.087	2.755	4.491	9.814	22.75
310.0	415.5	480.7	475.9	373.6	289.6	275.3	286.6	335.6	411.8	526.5	735.4	1067	1042	621.1	463.2	844.2	3018	6507	5808	342.1	25.06	6.816	4.558	3.709	2.686	2.546	2.206	1.948	1.565	1.601	1.670	1.387	1.244	1.121	1.080	1.065	1.203	1.043	1.102	1.187	0.989	1.101	1.145	1.164	1.173	1.386	1.383	1.699	1.507	1.260	1.246	1.468	1.440	1.280	1.353	1.356	1.463	1.549	1.666	1.729	1.766	2.086	2.075	2.304	2.875	3.251	3.795	4.562	4.902	4.811	3.676	2.698	2.450	2.423	2.678	3.558	6.375
315.0	527.0	625.0	645.9	553.7	503.4	488.2	455.3	462.6	571.7	693.2	864.4	1033	1260	1242	806.0	737.8	1163	1935	5153	7453	502.6	25.52	6.886	4.375	3.225	2.892	2.220	2.295	2.057	1.722	1.747	1.420	1.216	1.257	1.239	1.117	1.384	1.166	1.200	1.275	1.101	1.119	1.301	1.315	1.194	1.815	1.768	1.900	1.829	1.764	1.823	1.955	1.961	2.175	2.095	1.995	2.302	2.249	2.144	2.299	2.407	2.759	2.651	2.822	3.458	3.823	3.635	4.028	4.512	5.548	6.609	6.071	4.379	3.906	3.506	3.662	4.292
320.0	666.9	844.9	931.7	871.4	794.1	819.6	714.8	664.4	777.3	951.8	1145	1343	1506	1813	1318	1121	1108	1172	1988	6824	4650	76.13	13.75	6.245	4.452	3.232	3.188	2.505	2.263	2.043	1.819	1.650	1.423	1.270	1.274	1.240	1.386	1.368	1.238	1.505	1.291	1.356	1.395	1.537	1.775	2.066	2.274	2.522	2.532	2.703	2.605	3.081	3.063	3.532	3.168	3.241	3.611	2.949	2.856	2.907	3.006	3.551	3.709	3.881	4.280	4.617	5.065	5.253	5.593	6.151	6.924	7.679	8.299	7.515	6.154	6.096	5.877
325.0	846.5	1128	1265	1184	1155	1111	930.2	824.3	948.0	1167	1408	1637	1804	2027	2192	1827	1657	1411	1286	2678	6968	3785	62.01	9.624	5.279	3.655	3.575	2.564	2.414	2.151	2.153	1.594	1.573	1.577	1.367	1.393	1.375	1.499	1.439	1.589	1.480	1.380	1.760	1.803	2.307	2.476	2.978	3.579	3.465	3.432	3.445	4.233	4.375	4.482	4.204	3.996	4.370	3.783	3.316	3.478	3.592	4.328	4.251	5.069	5.122	5.708	6.005	6.296	6.523	7.146	7.659	8.216	9.610	10.15	9.951	8.664	8.289
330.0	989.3	1366	1612	1583	1500	1350	1120	957.4	1106	1328	1597	1857	2057	2244	2427	2448	2157	1714	1320	1363	2429	4862	4728	271.9	19.20	5.692	4.322	3.069	2.848	2.383	2.183	1.903	1.760	1.564	1.502	1.420	1.539	1.679	1.691	1.718	1.711	1.704	1.904	2.062	2.401	2.885	3.259	4.093	4.423	4.206	4.388	5.246	5.414	5.399	5.357	5.087	4.742	4.316	3.973	4.104	4.216	4.767	5.194	5.602	5.923	6.364	6.697	7.085	7.605	8.325	8.528	9.144	9.975	10.59	11.42	11.64	11.73
335.0	1134	1639	1949	2000	1927	1755	1377	1148	1302	1551	1871	2162	2413	2630	2816	2857	2897	2264	1654	1316	990.8	1284	3828	6131	432.5	19.12	5.862	4.070	3.580	2.805	2.377	2.142	1.904	1.700	1.585	1.406	1.677	1.907	1.725	1.993	1.852	2.045	2.173	2.537	2.753	3.114	3.892	4.586	5.290	5.267	5.644	6.666	6.841	7.303	6.582	6.214	5.647	5.318	4.598	4.781	5.121	5.213	6.032	6.544	6.937	7.396	7.656	8.283	9.018	9.749	10.61	10.86	12.43	12.06	12.65	13.40	14.89
340.0	1171	1733	2163	2186	2147	1961	1526	1279	1426	1687	1996	2278	2567	2827	2990	3006	3083	2637	1849	1384	730.2	451.8	1105	5038	3825	342.9	10.86	5.141	4.136	3.144	2.743	2.523	1.971	1.724	1.694	1.657	1.762	1.958	1.970	1.905	2.165	2.164	2.241	2.444	3.056	3.423	4.168	5.185	5.653	5.829	5.973	7.250	7.293	7.813	7.256	6.909	6.556	5.900	4.917	5.145	5.390	5.603	6.365	6.788	7.180	7.758	8.450	8.813	9.614	10.40	11.10	11.66	12.38	12.96	13.43	14.27	14.44
345.0	1201	1712	2151	2253	2208	1993	1557	1316	1455	1700	1986	2249	2515	2782	2933	2926	2925	2647	1955	1396	698.8	300.8	358.8	1562	5315	3381	54.36	8.420	4.694	3.637	3.049	2.675	2.020	1.724	1.608	1.452	1.668	1.806	1.989	1.994	1.949	2.147	2.185	2.345	2.957	3.570	4.365	5.173	5.655	5.750	6.133	7.602	7.568	7.848	7.391	7.064	6.708	5.911	5.101	5.467	5.517	6.080	6.525	6.895	7.481	7.624	7.938	8.699	9.490	9.914	10.63	11.22	12.02	13.33	13.37	13.63	13.96
350.0	1199	1676	2133	2254	2227	2019	1623	1375	1487	1702	1950	2180	2430	2683	2826	2808	2765	2443	2014	1512	753.9	336.7	253.9	469.7	1636	3850	3875	989.5	19.06	5.070	3.712	2.852	2.270	1.817	1.679	1.600	1.706	1.773	1.934	1.942	2.025	2.045	2.084	2.490	2.778	3.486	3.991	4.957	5.621	5.623	6.129	7.765	7.735	8.211	7.827	7.008	6.876	6.065	5.613	5.437	5.629	6.149	6.536	6.957	7.451	7.620	8.134	8.450	8.947	9.419	10.32	11.04	11.53	12.42	12.85	12.82	13.25
355.0	1126	1578	2043	2206	2258	2055	1731	1447	1553	1735	1910	2127	2324	2544	2700	2692	2650	2311	1895	1616	914.1	435.7	308.0	290.8	494.4	978.7	2695	5161	410.8	20.92	5.096	3.284	2.786	2.106	1.905	1.685	1.770	1.830	1.897	1.889	2.004	2.024	2.259	2.444	2.706	3.306	3.799	4.881	5.339	5.495	6.007	7.661	7.619	8.072	7.753	7.390	6.868	6.176	5.993	5.571	5.995	6.381	6.843	6.911	7.321	7.395	7.829	7.827	8.716	9.348	10.03	10.56	11.39	12.15	12.14	11.94	12.88
360.0	1122	1610	1935	2140	2201	2039	1728	1497	1578	1747	1872	2048	2217	2411	2535	2530	2491	2182	1785	1529	1046	558.3	380.6	304.1	286.4	338.2	768.3	3707	3484	347.1	12.17	4.711	3.334	2.465	2.237	1.906	1.779	1.663	1.664	1.835	1.923	1.932	2.188	2.359	2.487	3.137	3.818	4.656	5.064	5.150	5.652	7.232	7.263	7.885	7.770	7.067	6.952	6.583	6.110	5.735	5.934	6.584	6.785	6.800	7.001	7.366	7.957	7.695	8.282	8.609	9.213	10.20	10.70	11.52	11.48	11.58	11.64
365.0	1061	1511	1867	2085	2129	2002	1714	1527	1611	1719	1850	1941	2096	2254	2353	2357	2326	2058	1691	1425	1054	720.3	474.3	368.4	288.5	239.8	284.5	1101	4116	3243	53.09	8.191	4.498	2.968	2.287	1.945	1.917	1.813	1.782	1.832	1.798	1.991	2.162	2.136	2.596	3.023	3.483	4.440	4.999	4.901	5.430	6.799	7.232	7.890	7.699	6.970	6.971	6.678	6.012	6.091	6.279	6.689	6.801	6.791	7.294	7.016	7.812	7.315	8.138	8.403	8.840	9.597	9.599	10.35	10.55	10.62	11.38
370.0	1029	1476	1786	1994	2053	1964	1728	1563	1620	1700	1813	1886	1985	2092	2179	2175	2146	1925	1622	1384	1021	822.4	668.0	488.8	375.8	290.5	234.5	364.3	1227	3238	3572	1003	19.14	4.547	3.082	2.458	2.111	1.900	2.004	1.828	1.850	1.990	2.036	2.126	2.621	2.960	3.342	4.318	4.635	4.823	5.205	6.797	6.994	7.472	7.233	6.962	6.825	6.475	6.074	6.180	6.091	6.476	6.620	6.749	6.935	7.001	6.901	7.296	7.452	7.832	8.263	8.595	8.927	9.616	9.855	9.890	10.61
375.0	1002	1411	1744	1934	2012	1948	1746	1607	1635	1713	1781	1825	1899	1942	1999	1984	1980	1801	1566	1363	1044	850.6	814.5	684.6	494.6	387.1	302.4	262.3	400.3	827.9	2249	4615	362.1	21.73	4.998	3.191	2.519	2.180	2.121	1.832	1.863	1.939	1.941	2.190	2.630	3.110	3.367	4.298	4.432	4.681	4.900	6.719	6.860	7.233	7.125	7.123	7.284	6.378	6.304	6.422	6.177	6.722	6.659	6.626	6.812	6.910	6.807	6.850	7.051	7.468	7.357	8.033	8.602	9.069	9.449	9.175	9.473
380.0	997.1	1353	1709	1870	1986	1909	1759	1616	1656	1698	1762	1788	1832	1848	1867	1861	1850	1704	1508	1347	1075	887.7	840.0	814.5	624.9	472.5	370.8	292.1	257.0	304.1	646.1	3120	3993	297.5	12.46	4.241	3.040	2.375	2.255	2.038	1.790	1.865	1.882	2.288	2.485	3.046	3.297	4.148	4.253	4.434	4.973	6.318	6.794	7.256	6.732	6.607	7.089	6.739	6.364	6.411	6.180	6.542	6.502	6.475	7.020	6.946	6.907	6.807	6.552	7.397	7.481	7.692	8.212	8.344	8.427	8.619	8.786
385.0	987.8	1370	1665	1852	1929	1868	1751	1648	1646	1679	1723	1736	1762	1763	1765	1743	1736	1621	1470	1321	1099	931.9	855.7	844.4	752.4	548.9	439.7	342.7	266.0	217.7	251.7	919.1	3497	2695	43.88	7.394	3.927	2.868	2.474	2.082	2.063	1.909	1.947	2.098	2.314	3.034	3.291	4.008	4.061	4.360	4.980	6.279	6.516	6.882	6.894	6.654	6.923	6.842	6.518	6.302	6.259	6.525	6.622	6.509	6.396	6.863	6.381	6.670	6.505	7.544	7.014	7.488	7.618	7.682	8.167	8.229	8.509
390.0	967.4	1301	1604	1812	1859	1869	1748	1656	1637	1667	1698	1683	1676	1666	1651	1625	1608	1526	1410	1293	1120	984.2	905.4	856.0	817.8	708.4	541.5	424.1	331.8	256.3	205.0	305.9	1006	2458	2721	791.6	16.41	4.339	3.112	2.390	2.034	2.006	1.972	2.278	2.454	2.910	3.172	3.993	4.296	4.408	4.791	6.219	6.261	6.811	6.716	6.745	7.042	6.485	6.501	6.325	6.446	6.283	6.347	6.388	6.249	6.447	6.451	6.445	6.537	6.846	6.802	6.816	7.199	7.552	7.719	7.758	8.005
395.0	947.2	1279	1565	1774	1838	1842	1757	1680	1665	1679	1664	1642	1615	1596	1552	1517	1504	1442	1357	1270	1134	1024	965.3	900.0	839.6	792.1	692.5	517.6	414.2	324.4	248.1	210.6	318.2	625.9	1669	3363	299.9	18.41	4.448	3.170	2.611	2.242	2.373	2.262	2.519	3.034	2.951	3.758	4.287	4.249	4.656	5.824	6.184	6.462	6.589	6.662	7.038	6.640	6.561	6.256	6.335	6.583	6.242	6.265	6.360	6.421	6.235	6.441	6.241	6.216	6.808	6.714	6.648	7.128	7.300	7.237	7.640
400.0	964.9	1274	1541	1743	1835	1830	1732	1689	1672	1673	1660	1632	1580	1534	1485	1446	1431	1381	1313	1248	1133	1047	1000	934.5	864.7	804.9	770.9	620.4	481.8	385.3	296.5	225.3	189.5	219.5	468.7	2224	2463	253.0	10.02	3.910	2.945	2.414	2.422	2.396	2.459	2.967	3.138	3.814	4.283	4.242	4.641	6.007	5.951	6.740	6.416	6.379	6.852	6.632	6.731	6.497	6.190	6.724	6.418	6.460	6.435	6.354	6.004	6.389	6.289	6.586	6.506	6.653	6.392	6.760	6.925	7.082	7.434
405.0	957.5	1213	1554	1696	1812	1790	1733	1691	1679	1649	1645	1608	1565	1484	1440	1385	1367	1326	1279	1220	1132	1060	1016	960.4	889.2	814.0	778.9	713.6	557.7	439.2	348.5	258.9	189.5	147.6	173.3	647.1	2453	2206	38.89	6.301	3.564	2.667	2.370	2.360	2.472	3.100	3.368	3.933	4.295	4.291	4.697	5.765	6.001	6.627	6.295	6.337	6.633	6.836	6.368	6.849	6.448	6.626	6.424	6.581	6.512	6.180	5.866	6.130	6.139	6.282	6.267	6.172	6.382	6.514	6.627	6.583	7.000
410.0	948.2	1229	1502	1651	1749	1763	1723	1702	1679	1653	1634	1581	1511	1439	1376	1317	1290	1267	1220	1177	1111	1058	1023	976.0	919.1	844.5	781.0	745.2	660.5	518.5	406.4	308.1	224.8	164.8	129.8	205.8	705.8	1860	2206	612.8	14.12	3.646	2.985	2.677	2.734	2.982	3.316	3.767	4.101	4.048	4.344	5.791	5.838	6.228	6.274	6.456	6.539	6.720	6.300	6.537	6.525	6.497	6.277	6.514	6.449	6.272	6.099	6.128	5.849	6.102	6.011	6.189	6.156	6.168	6.186	6.346	6.508
415.0	919.5	1199	1443	1617	1680	1723	1694	1667	1651	1647	1602	1540	1448	1375	1305	1247	1218	1185	1159	1129	1076	1037	1012	977.5	920.3	858.1	793.3	732.7	697.0	611.2	465.7	355.1	267.1	193.5	143.2	126.0	211.6	463.0	1316	2373	269.4	14.76	3.888	2.956	2.882	3.003	3.135	3.860	4.184	3.837	4.209	5.647	5.831	6.071	6.132	6.084	6.656	6.433	6.501	6.444	6.492	6.398	6.608	6.367	6.152	5.903	5.774	5.822	5.676	5.923	5.808	5.877	5.389	6.116	5.633	5.871	6.217
420.0	895.1	1164	1404	1567	1655	1640	1645	1668	1633	1621	1595	1500	1413	1335	1257	1186	1161	1137	1114	1081	1041	1019	991.3	957.6	917.4	861.6	797.5	735.0	686.2	648.9	525.9	388.6	294.8	219.3	162.6	121.3	113.0	147.7	361.6	1623	2143	224.1	8.257	3.685	3.253	3.039	3.257	3.823	3.977	3.797	4.244	5.313	5.612	5.811	6.094	5.830	6.437	6.292	6.564	6.237	6.713	6.292	6.430	6.544	6.137	5.903	5.953	6.009	5.488	5.932	5.426	5.376	5.660	5.736	5.839	5.885	5.815
425.0	812.4	1161	1385	1533	1585	1627	1604	1640	1648	1612	1566	1487	1378	1291	1205	1142	1115	1088	1062	1043	1006	990.7	970.3	939.8	902.5	860.5	801.8	740.2	686.1	641.2	576.2	428.0	321.1	245.7	181.8	135.7	102.0	87.31	118.3	468.6	1872	1814	35.69	5.386	3.857	3.279	3.556	3.686	3.772	3.695	4.247	5.082	5.442	5.674	5.671	5.768	6.190	6.427	6.535	6.426	6.509	6.309	6.019	6.390	6.180	6.305	5.705	5.649	5.402	5.554	5.356	5.263	5.462	5.564	5.669	5.686	5.681
430.0	923.4	1091	1335	1468	1523	1580	1601	1612	1614	1573	1541	1447	1350	1249	1150	1085	1054	1028	1006	990.6	966.2	950.4	937.1	915.0	884.9	848.7	800.6	745.6	689.6	632.7	582.5	491.1	367.2	277.7	211.8	160.4	119.0	89.83	75.63	140.0	533.3	1443	1637	480.4	13.07	4.261	3.679	4.087	3.812	3.828	4.153	5.135	5.156	5.485	5.561	5.932	6.038	6.383	6.348	6.240	6.382	6.194	6.170	6.178	5.851	5.825	5.875	5.517	5.356	5.227	5.159	5.229	5.217	5.310	5.204	5.246	5.336
435.0	1325	1053	1228	1403	1463	1536	1557	1586	1586	1564	1515	1423	1315	1211	1103	1035	993.9	974.6	956.5	936.3	923.6	909.8	900.0	892.1	863.5	824.0	788.9	742.3	699.6	637.5	571.3	510.0	426.0	315.4	239.6	185.1	141.8	106.9	81.74	78.58	152.9	357.2	1019	2092	248.3	13.63	4.670	4.169	3.995	3.917	3.942	4.929	5.215	5.406	5.551	5.879	5.892	6.403	5.906	6.178	6.143	6.129	6.004	6.326	6.117	5.839	5.551	5.410	5.309	5.499	5.058	5.247	5.107	5.320	5.202	4.996	5.127
440.0	1730	1145	1231	1366	1433	1489	1535	1561	1562	1530	1496	1395	1283	1170	1073	999.5	951.6	931.0	916.9	902.5	884.0	878.2	868.8	858.6	843.0	807.3	776.3	734.0	697.8	637.8	569.5	502.5	445.3	350.8	260.6	203.6	160.2	121.5	91.84	73.34	74.43	110.9	285.4	1485	1898	199.0	8.187	4.635	4.365	4.015	4.023	4.896	5.164	5.366	5.248	5.463	5.780	6.100	5.963	5.748	5.890	6.014	6.166	5.936	5.927	5.944	5.720	5.487	5.196	5.405	5.014	4.910	4.975	5.104	4.722	4.955	5.030
445.0	1775	1411	1191	1303	1396	1436	1488	1519	1517	1505	1463	1347	1251	1131	1030	957.3	922.0	897.5	875.2	863.3	847.1	838.2	839.0	824.8	809.5	783.8	753.3	718.7	687.5	633.2	569.7	493.0	438.4	381.2	283.5	217.7	173.3	135.2	103.5	79.89	65.00	60.11	90.99	437.8	1742	1597	30.29	6.391	4.866	4.108	3.949	4.880	4.937	5.533	5.143	5.455	5.750	5.906	6.138	6.162	5.971	5.871	5.894	5.805	5.475	5.900	5.519	5.110	4.897	4.930	5.094	4.906	5.153	4.934	4.637	4.591	4.728
450.0	1292	2065	1294	1224	1305	1358	1405	1455	1466	1435	1393	1295	1185	1078	973.9	897.6	856.4	828.6	816.6	801.9	787.5	780.6	780.4	773.6	759.8	738.7	712.8	688.3	658.0	614.2	556.8	487.1	419.4	376.1	314.8	242.6	187.0	149.1	117.2	91.27	72.12	57.55	53.95	123.8	500.7	1339	1497	421.2	11.87	4.688	4.211	4.707	4.721	4.990	5.134	5.055	5.651	5.631	5.902	5.694	5.964	5.568	5.694	5.642	5.477	5.659	5.354	4.977	4.824	4.820	4.739	4.687	4.740	4.604	4.485	4.496	4.532
455.0	797.1	2130	1844	1128	1219	1273	1317	1351	1374	1360	1312	1224	1110	1006	902.2	828.6	784.5	762.6	749.4	731.6	722.1	716.9	708.2	712.6	700.5	682.6	665.9	643.6	622.7	587.0	536.8	472.4	408.4	353.2	315.6	268.1	204.0	161.6	130.2	104.9	83.49	66.11	53.03	59.43	135.9	327.1	887.5	1770	205.0	11.94	4.796	4.948	4.727	4.776	4.838	4.887	5.495	5.519	5.245	5.326	5.397	5.365	5.559	5.150	5.308	5.445	4.962	4.630	4.764	4.197	4.636	4.207	4.428	4.183	4.154	4.297	4.006
460.0	601.8	1564	2508	1210	1145	1202	1246	1294	1308	1305	1244	1177	1052	957.0	856.2	780.8	737.2	711.2	698.9	676.8	669.5	663.8	665.1	665.9	651.2	639.4	623.9	607.0	592.4	561.3	515.9	458.7	397.2	340.5	297.8	275.8	221.0	170.1	136.4	112.0	90.58	72.42	58.23	48.21	58.10	94.46	241.2	1188	1511	157.2	8.339	4.941	4.865	4.536	4.414	4.711	4.947	5.201	5.193	5.076	5.056	5.265	5.046	5.018	5.180	4.905	4.572	4.698	4.360	4.305	4.431	3.999	4.193	3.895	3.785	4.054	3.924
465.0	543.9	1024	2629	1611	1055	1136	1172	1220	1242	1239	1190	1119	1002	906.3	806.0	737.5	696.9	669.3	653.4	638.1	622.5	621.9	619.9	617.4	610.0	599.1	589.3	572.1	559.7	532.9	491.4	439.4	386.2	331.4	286.7	260.8	231.4	181.4	142.0	118.2	96.83	78.56	62.05	49.90	42.89	45.61	72.99	343.4	1360	1225	25.58	6.825	4.903	4.753	4.404	4.662	4.657	4.813	5.185	4.969	5.160	5.186	4.950	4.887	4.816	4.681	4.685	4.357	4.251	4.058	3.999	4.005	3.899	3.656	3.693	3.611	3.806
470.0	523.0	736.9	1762	2411	1142	1027	1065	1116	1133	1138	1105	1033	932.1	833.4	741.1	671.2	632.0	602.7	585.9	576.7	560.0	557.5	557.5	553.6	549.0	541.0	529.8	519.3	511.2	492.5	456.4	411.3	363.2	314.3	273.7	241.1	219.4	190.6	150.7	119.7	100.6	82.64	67.92	55.29	44.91	38.35	38.53	94.42	385.1	962.3	1060	353.9	12.13	5.011	4.639	4.314	4.544	4.485	4.725	4.622	4.649	4.763	4.591	4.618	4.580	4.455	4.351	4.117	3.983	3.920	3.940	3.767	3.697	3.541	3.552	3.494	3.566
475.0	515.8	629.8	975.5	2391	1747	949.8	982.2	1011	1021	1024	1006	944.5	850.5	765.6	673.2	609.5	564.4	541.4	520.6	509.5	500.0	491.0	494.4	492.3	487.0	485.6	472.1	470.6	459.3	447.8	417.6	380.2	336.3	295.0	259.3	225.1	199.3	185.4	161.9	126.0	101.8	85.64	71.52	60.16	49.50	40.27	33.47	41.71	101.8	231.4	553.3	1204	205.5	13.67	4.699	4.328	4.224	4.273	4.108	4.456	4.214	4.217	4.440	4.267	4.130	4.112	3.933	3.670	3.666	3.520	3.464	3.414	3.533	3.291	3.375	3.373	3.035
480.0	479.0	591.5	723.6	1693	2425	996.6	910.5	957.6	956.8	959.6	942.0	875.5	789.9	702.5	630.1	566.1	525.7	501.3	483.5	471.4	460.7	451.4	454.5	451.8	448.1	446.0	435.6	433.8	426.2	415.6	391.1	358.7	317.8	282.0	248.3	218.0	190.5	173.3	162.5	132.6	104.6	87.65	74.19	62.55	52.13	42.93	34.17	31.05	39.95	65.33	146.4	714.6	1121	181.2	8.386	4.490	4.399	4.086	3.963	4.116	4.130	3.857	3.872	4.018	3.892	4.009	3.704	3.373	3.414	3.501	3.482	3.168	3.350	3.210	3.110	2.826	2.901
485.0	427.8	550.2	635.9	1052	2598	1346	855.4	887.8	902.8	907.3	895.1	827.7	741.8	664.5	595.9	529.0	492.2	473.9	456.2	434.0	425.0	423.8	419.9	420.0	416.9	414.4	405.8	403.3	399.4	390.8	372.6	339.5	302.2	266.4	239.2	209.6	185.7	164.6	154.1	138.4	109.2	90.15	75.48	64.78	54.24	45.14	37.23	30.76	27.65	29.86	44.54	201.7	918.8	1027	30.03	5.699	4.233	3.919	3.972	3.994	3.872	3.877	3.897	3.748	3.768	3.733	3.510	3.326	3.423	3.136	3.074	3.088	2.962	3.009	2.941	2.634	2.805
490.0	374.9	534.8	592.9	737.3	1749	2212	919.0	827.5	832.3	847.1	821.3	771.1	701.4	621.7	548.5	492.7	457.4	431.1	416.2	399.6	391.5	387.0	381.2	382.0	379.5	376.8	373.5	368.5	365.9	360.0	341.5	314.3	282.6	254.0	226.1	199.5	178.4	155.2	141.6	133.6	117.7	94.63	77.07	65.66	56.42	48.25	40.53	33.22	27.62	23.65	24.02	57.09	253.2	714.3	1017	343.0	12.76	4.485	3.999	3.733	3.579	3.682	3.504	3.494	3.618	3.559	3.331	3.152	3.173	3.040	2.952	2.879	2.848	2.957	2.878	2.635	2.576
495.0	324.6	476.2	572.3	602.5	935.5	2359	1498	750.9	760.3	776.7	744.4	705.2	646.2	571.5	505.2	445.0	417.2	390.3	378.0	360.9	352.7	347.5	342.1	341.0	340.0	337.1	332.7	332.1	331.5	325.9	310.4	286.6	261.2	233.8	209.8	188.9	166.9	147.9	133.1	122.0	114.6	99.88	79.65	66.08	58.44	49.88	41.84	35.39	29.59	23.54	20.60	25.30	66.50	170.7	536.9	1136	233.9	14.88	4.300	3.643	3.525	3.503	3.387	3.190	3.316	3.073	3.118	3.293	3.008	2.688	2.753	2.664	2.703	2.600	2.441	2.578	2.527
500.0	307.6	415.6	567.2	542.4	648.7	1665	2247	788.0	703.8	713.3	705.4	655.3	598.1	526.6	464.2	413.3	381.9	362.4	344.9	331.9	323.9	315.9	314.2	314.1	310.4	306.9	303.8	304.0	303.6	298.5	288.1	264.8	243.6	220.5	196.8	176.6	158.7	141.5	125.3	112.6	105.5	100.8	83.31	68.44	58.32	50.50	42.46	36.05	30.98	24.84	20.54	19.11	25.69	46.98	137.7	638.5	1088	200.9	8.898	4.130	3.690	3.174	3.219	3.049	3.171	3.100	2.938	2.910	2.701	2.644	2.669	2.455	2.404	2.416	2.285	2.129	2.503
505.0	293.9	366.4	525.6	519.6	563.9	974.3	2559	1090	645.4	653.2	646.4	612.8	549.5	486.6	431.0	383.0	352.9	331.1	320.0	305.4	295.3	289.5	289.5	284.9	282.7	280.9	280.9	277.5	277.8	276.7	265.7	246.4	224.1	203.4	183.5	164.6	149.7	134.2	119.5	106.7	96.14	94.09	86.65	68.14	58.25	51.16	42.63	36.16	31.18	25.55	20.88	18.21	16.88	19.74	39.00	172.2	781.7	972.8	33.28	5.503	3.902	3.330	3.145	2.953	3.002	2.803	2.627	2.671	2.486	2.345	2.354	2.184	2.335	2.227	2.211	2.211	2.250
510.0	254.8	325.8	446.9	504.7	493.1	605.8	1723	2025	689.4	591.4	578.6	547.0	493.5	434.4	384.2	341.9	313.4	293.2	278.2	270.1	261.5	254.1	252.4	249.7	248.4	246.7	246.2	245.2	245.3	242.0	235.5	219.0	199.4	181.6	165.1	150.4	135.7	123.2	109.8	98.49	88.89	82.18	78.82	70.76	58.26	49.50	42.06	36.09	30.82	25.94	21.93	18.55	15.76	14.09	17.31	45.86	206.2	592.5	752.3	297.2	13.05	3.486	2.858	2.851	2.756	2.667	2.482	2.342	2.314	2.255	2.236	2.107	2.122	2.048	1.957	2.058	2.011
515.0	228.6	283.7	347.3	461.0	449.8	466.0	809.0	2370	1243	523.9	511.1	488.0	437.4	385.0	339.9	302.3	274.4	259.9	245.1	231.3	225.1	221.5	219.8	217.9	215.4	212.7	213.1	212.5	212.8	214.7	203.9	191.3	174.8	160.4	147.0	132.0	120.8	110.6	100.0	88.59	81.21	73.98	68.87	67.01	59.36	48.57	40.73	35.24	30.60	25.97	22.26	19.00	15.95	13.39	12.85	18.17	52.67	139.1	325.4	839.3	237.2	15.72	3.068	2.739	2.509	2.498	2.368	2.031	2.188	2.135	1.982	1.931	1.915	1.912	1.893	1.959	1.884
520.0	202.9	250.5	324.6	407.7	430.4	407.2	506.2	1656	2091	550.5	458.8	435.0	396.9	353.2	310.0	269.0	247.3	235.0	221.5	210.3	203.6	197.8	198.2	196.2	194.9	191.1	190.0	190.2	189.2	189.3	181.4	171.4	159.2	145.9	131.9	120.8	111.0	101.1	91.28	82.95	74.06	68.00	61.65	60.34	59.01	49.11	40.23	34.63	29.71	25.67	22.10	19.26	15.89	13.54	11.92	12.13	18.46	36.92	81.39	415.9	805.5	204.2	9.126	2.893	2.550	2.331	2.292	1.887	1.945	1.952	1.889	1.817	1.864	1.617	1.769	1.779	1.715
525.0	181.8	232.8	292.1	344.5	416.7	368.6	404.4	881.9	2581	854.0	411.8	394.3	360.8	318.0	284.3	248.8	225.3	211.3	199.0	190.3	184.1	178.6	176.5	177.2	175.5	172.9	172.6	172.8	170.9	171.6	164.8	156.6	145.7	132.8	120.3	110.4	102.1	93.00	84.80	77.58	69.05	63.61	57.72	53.47	55.24	50.13	40.45	33.08	28.24	25.04	20.99	18.52	16.00	13.68	12.10	10.93	10.95	14.23	23.41	106.9	490.6	740.3	155.7	4.785	2.581	2.394	2.124	1.833	1.806	1.807	1.690	1.724	1.761	1.681	1.613	1.657	1.605
530.0	162.8	204.4	253.4	285.7	368.5	350.7	345.9	464.6	1732	1938	475.2	347.9	316.8	279.6	245.0	219.2	199.8	186.1	174.6	166.9	161.6	155.9	152.8	152.9	150.2	149.7	149.7	149.4	149.3	147.7	144.2	136.6	127.6	115.5	105.8	96.72	89.50	82.38	75.74	68.22	62.68	56.88	51.94	47.40	46.59	44.84	41.03	32.36	26.85	23.50	20.24	17.45	15.61	13.68	12.07	10.63	9.501	9.547	10.59	28.51	123.7	382.9	564.7	251.0	13.48	2.557	2.055	1.756	1.744	1.671	1.555	1.510	1.527	1.489	1.547	1.393	1.332
535.0	142.0	182.1	217.4	242.3	298.4	351.9	300.2	324.7	703.3	2342	1055	300.5	274.7	241.2	215.0	191.0	173.0	158.4	150.4	144.3	138.2	133.9	132.1	130.1	128.4	126.1	128.2	127.4	127.0	127.5	123.3	118.0	107.3	99.88	91.89	83.69	76.96	71.45	64.74	60.46	55.14	50.22	44.94	41.85	39.01	38.82	38.04	33.21	26.01	21.35	18.92	16.49	14.46	13.28	11.87	10.54	8.892	8.050	7.709	11.10	31.44	89.27	199.2	573.2	242.3	17.68	2.028	1.790	1.713	1.475	1.623	1.272	1.311	1.324	1.300	1.367	1.325
540.0	130.1	163.7	193.8	215.6	239.4	312.4	281.4	272.4	372.5	1568	1976	332.1	242.1	216.1	189.2	168.1	153.0	142.5	134.1	128.8	119.2	119.9	116.3	113.4	112.9	112.4	112.2	111.4	112.8	112.7	107.9	102.1	95.35	88.06	81.52	73.94	68.96	62.60	58.88	54.51	49.60	44.98	41.04	38.66	34.89	33.47	32.94	32.30	26.26	20.62	17.55	15.80	13.93	12.52	11.61	10.65	8.753	8.021	6.912	6.809	11.01	23.37	48.57	239.5	567.9	209.1	10.86	1.889	1.562	1.377	1.399	1.306	1.265	1.307	1.360	1.277	1.187
545.0	121.4	153.0	175.5	183.5	203.6	276.3	283.8	242.6	269.4	730.5	2464	602.2	216.1	193.3	165.4	152.6	137.1	125.1	117.5	112.1	105.8	104.7	100.6	100.6	100.1	97.36	97.71	98.25	98.93	98.08	94.63	89.37	85.35	77.92	70.71	66.80	62.10	56.54	52.65	48.79	44.30	40.89	37.44	34.25	32.14	29.72	28.31	29.18	25.54	19.68	16.71	15.03	12.89	11.53	10.72	10.13	9.365	7.499	6.591	5.992	6.200	8.769	13.88	59.03	283.4	532.2	155.6	4.867	1.663	1.490	1.243	1.217	1.261	1.150	1.134	1.122	1.054
550.0	104.3	133.1	145.7	156.0	166.6	201.9	265.8	215.9	216.7	328.7	1520	1621	227.5	163.7	140.8	126.3	113.9	106.1	99.54	93.72	90.63	87.86	85.21	84.58	83.62	81.28	81.61	81.56	81.27	82.68	78.81	75.01	70.41	65.10	60.60	55.75	52.21	47.83	44.35	40.88	36.98	34.33	31.77	29.53	27.56	25.39	23.46	23.26	22.17	19.31	15.72	13.33	11.63	10.44	9.766	9.124	8.274	7.234	6.254	5.563	5.074	5.152	5.885	15.72	68.69	229.9	373.6	145.2	14.30	1.595	1.290	1.169	1.153	1.054	0.971	1.058	0.987
555.0	92.95	107.5	124.0	128.7	130.3	149.6	217.0	212.3	175.4	203.2	532.0	2053	705.9	136.4	116.4	102.0	94.91	86.96	82.63	75.44	73.82	71.35	69.21	67.75	67.02	66.52	65.72	66.89	66.17	66.15	63.79	60.30	58.10	53.77	48.93	45.37	41.92	38.92	36.10	33.44	31.42	28.84	26.52	25.23	23.28	21.47	19.88	18.23	17.72	17.55	15.33	11.87	10.07	9.228	8.317	8.181	7.257	6.723	6.017	4.708	4.696	4.226	4.003	5.892	17.43	53.19	112.8	321.4	232.5	18.48	1.406	1.185	1.079	0.952	0.822	1.018	0.926
560.0	89.14	104.4	107.7	112.4	111.0	126.5	166.6	217.6	156.9	155.5	237.9	1312	1500	155.3	98.48	85.77	81.03	73.31	69.15	65.10	62.38	59.36	58.67	56.54	56.93	56.16	54.53	55.19	55.66	55.76	54.25	52.22	48.94	44.63	41.02	38.31	36.31	32.82	30.37	28.67	26.83	24.26	22.98	21.72	19.51	18.78	17.06	15.33	14.09	15.02	14.19	11.56	9.037	8.173	7.733	7.487	6.815	5.971	5.639	4.833	4.186	3.801	3.289	3.536	5.924	13.88	26.99	119.2	349.4	187.6	11.14	1.218	1.131	1.095	0.918	0.895	0.842
565.0	85.83	89.09	102.8	91.90	103.8	104.8	127.5	196.7	148.3	134.5	158.1	544.7	1969	350.4	85.25	73.53	69.03	60.85	60.41	56.41	53.47	51.70	50.85	47.92	48.45	47.22	46.48	46.41	47.52	47.96	46.01	44.03	41.14	38.06	35.28	33.31	30.67	28.60	26.12	24.69	22.89	20.82	19.95	18.36	17.06	15.93	14.75	13.46	12.32	11.88	12.07	10.79	8.693	7.484	6.818	6.666	6.308	5.467	5.016	4.719	4.221	3.476	3.082	3.052	3.248	5.018	7.776	29.09	146.2	327.6	124.6	4.531	1.105	1.019	0.898	0.793	0.807
570.0	79.70	81.99	83.32	82.19	85.63	88.31	101.0	143.8	161.8	118.6	117.5	207.5	1206	1150	109.5	62.55	56.22	50.71	48.58	45.40	43.41	42.17	40.90	39.63	38.74	38.27	38.20	37.67	38.42	38.43	37.41	35.69	32.99	30.91	28.96	26.87	25.27	22.99	21.46	20.29	18.55	17.07	16.13	15.09	14.12	13.15	12.22	11.26	10.33	9.431	9.304	9.654	8.143	6.888	6.173	5.495	5.295	4.870	4.229	4.175	3.935	3.604	2.903	2.859	2.551	3.039	3.601	8.146	35.29	124.4	219.4	123.6	13.47	1.061	0.886	0.738	0.716
575.0	70.94	87.36	80.73	74.45	69.95	72.26	83.17	97.87	161.1	110.0	97.41	113.3	385.1	1503	446.6	52.73	44.91	41.48	38.18	35.46	34.99	33.94	32.82	31.28	30.65	30.34	31.74	29.27	30.79	30.80	30.48	28.52	26.13	24.82	22.52	21.10	19.99	18.88	17.52	16.10	14.68	14.08	13.45	12.36	11.80	10.48	10.14	8.987	8.582	7.720	7.065	7.422	7.533	6.361	5.406	4.828	4.524	4.139	3.607	3.658	3.589	3.594	2.927	2.638	2.513	2.543	2.366	3.292	9.148	29.19	61.59	178.7	166.1	16.44	0.965	0.688	0.724
580.0	64.28	83.22	74.75	69.02	65.40	64.14	68.33	80.27	132.6	126.9	91.55	88.36	146.3	969.4	1020	64.48	39.89	36.10	33.48	30.32	29.13	28.37	27.01	26.12	25.84	26.44	26.05	25.76	25.73	25.87	25.40	23.38	22.37	20.80	19.03	18.31	16.93	15.91	14.80	13.60	12.44	11.85	11.46	10.29	10.16	8.834	8.716	8.086	7.020	6.517	6.124	5.900	6.210	6.149	5.008	4.436	4.147	3.542	3.188	3.080	3.091	2.993	2.898	2.655	2.384	1.994	2.028	2.105	3.265	7.856	15.06	61.04	199.5	120.1	7.828	0.843	0.733
585.0	65.17	70.92	72.25	61.28	56.16	59.11	60.19	67.49	99.33	136.0	84.03	78.74	82.65	387.4	1373	130.4	34.49	30.89	29.48	27.44	25.42	24.34	23.98	22.99	22.39	22.25	22.11	21.73	22.62	22.73	21.04	20.17	18.79	17.60	16.47	15.53	14.17	13.95	12.76	11.76	11.00	10.34	9.667	9.103	8.731	8.006	7.262	6.996	6.380	5.753	5.283	5.168	5.220	5.363	4.966	4.035	3.730	3.331	2.886	2.934	2.806	2.622	2.798	2.543	2.206	1.963	1.874	1.860	1.981	2.907	4.606	14.95	79.66	191.4	35.87	3.299	0.692
590.0	65.25	68.42	64.56	54.42	49.58	52.09	52.34	55.50	71.07	126.0	94.05	69.36	63.27	131.1	850.8	693.4	48.87	26.48	24.11	21.63	21.29	20.05	19.63	18.79	18.64	17.95	17.76	18.11	18.00	17.86	17.39	16.63	15.08	15.00	13.91	12.94	11.86	11.19	10.26	9.845	9.077	8.435	8.084	7.498	7.071	6.734	6.195	5.841	5.201	4.838	4.528	4.307	4.027	4.369	4.547	3.908	3.414	2.930	2.757	2.627	2.369	2.255	2.335	2.323	2.097	1.783	1.660	1.678	1.538	1.710	2.042	4.231	19.08	70.30	120.5	80.07	10.87
595.0	63.13	66.46	56.48	53.85	41.48	44.97	46.46	48.09	52.06	88.08	109.4	66.84	54.43	62.34	253.8	980.3	224.0	22.10	19.64	17.94	16.93	15.81	15.18	15.19	14.77	14.60	13.87	14.24	14.53	14.33	13.85	13.12	12.44	11.49	11.28	10.03	9.341	9.259	8.485	8.123	7.420	6.674	6.311	5.863	5.891	5.360	5.114	4.663	4.308	3.775	3.864	3.381	3.311	3.286	3.840	3.688	3.007	2.623	2.380	2.300	2.023	1.820	2.072	1.845	1.831	1.846	1.585	1.444	1.352	1.245	1.322	1.623	4.896	16.42	33.67	104.2	101.9
600.0	54.99	61.56	57.66	49.81	42.38	39.21	42.05	42.37	48.53	65.00	110.4	69.00	49.57	45.53	84.34	667.4	574.7	28.06	15.81	15.55	14.20	13.47	12.96	12.61	12.78	12.41	11.61	12.43	12.23	12.01	11.57	10.82	10.83	9.754	9.187	8.542	7.787	7.806	7.381	6.861	6.209	5.876	5.492	5.288	4.916	4.826	4.511	3.994	3.684	3.394	3.420	2.999	2.724	2.819	3.160	3.221	3.119	2.501	2.113	1.929	1.846	1.636	1.604	1.616	1.616	1.914	1.547	1.258	1.231	1.215	1.166	1.221	1.748	4.298	8.203	35.34	120.5
605.0	59.73	60.33	51.62	46.61	40.00	41.38	38.92	40.13	43.08	52.22	100.5	81.09	49.51	40.92	41.12	266.9	848.8	77.69	15.31	13.56	12.62	11.65	11.32	10.97	10.19	10.26	10.48	10.57	10.49	10.14	10.05	9.970	8.892	8.458	7.932	7.680	6.792	6.720	5.950	6.208	5.158	4.960	4.925	4.473	4.090	4.192	3.847	3.381	3.245	2.860	2.973	2.522	2.468	2.307	2.465	2.604	2.836	2.290	1.960	1.853	1.649	1.512	1.397	1.372	1.355	1.496	1.544	1.196	1.127	1.138	1.017	0.843	1.095	1.517	2.425	8.637	47.03
610.0	53.86	56.71	52.11	41.22	34.90	32.87	36.80	37.80	41.84	51.05	75.63	94.31	53.98	40.87	33.42	82.32	581.9	421.5	22.91	11.66	10.45	9.943	9.537	9.203	8.557	8.590	8.897	8.202	8.635	8.491	8.664	8.259	7.610	7.048	6.944	6.240	5.810	5.484	4.863	4.882	4.327	4.004	3.839	3.626	3.414	3.275	3.164	2.838	2.786	2.410	2.324	2.099	2.072	2.011	1.935	2.045	2.239	2.254	1.882	1.528	1.337	1.407	1.281	1.191	1.188	1.310	1.361	1.311	1.127	1.074	0.859	0.759	0.846	0.982	1.114	2.454	11.23
615.0	52.94	52.72	42.84	37.42	33.87	33.52	35.88	37.17	39.87	46.29	57.66	91.72	66.20	42.63	31.47	35.24	180.1	670.4	86.96	10.31	8.726	7.914	7.490	7.521	7.580	7.130	7.159	6.381	7.156	6.617	6.871	6.569	6.373	5.910	5.486	5.640	4.989	4.572	4.050	4.018	3.421	3.284	3.125	2.973	2.884	2.739	2.646	2.316	2.171	2.072	1.863	1.631	1.619	1.655	1.668	1.525	1.811	1.953	1.921	1.539	1.382	1.273	1.265	1.033	1.045	1.173	1.097	1.211	1.067	1.008	0.928	0.762	0.763	0.736	0.780	1.079	3.040
620.0	47.32	58.17	43.61	39.59	32.19	32.17	32.68	33.60	37.87	42.87	52.94	76.80	77.38	41.68	31.18	26.30	57.88	494.1	353.6	12.88	7.710	7.139	6.616	6.860	6.216	6.069	6.070	5.953	6.337	5.994	6.009	5.341	5.630	5.169	4.649	4.809	4.418	3.797	3.420	3.406	2.810	3.077	2.691	2.604	2.459	2.366	2.196	2.118	1.773	1.721	1.715	1.574	1.484	1.518	1.482	1.435	1.427	1.589	1.675	1.379	1.215	1.117	1.057	1.004	0.899	1.047	0.992	1.067	1.050	1.066	0.910	0.772	0.775	0.705	0.657	0.726	1.088
625.0	46.90	50.72	42.44	40.48	29.42	29.77	28.36	31.31	33.63	43.43	47.32	63.45	84.57	44.32	31.91	23.86	27.82	210.5	579.6	42.38	6.956	6.025	5.631	5.468	5.251	5.519	5.192	5.482	5.354	5.051	4.841	4.630	4.585	4.339	4.016	4.401	3.899	3.415	3.275	2.854	2.429	2.633	2.301	2.419	2.054	2.097	1.858	1.820	1.607	1.499	1.511	1.451	1.412	1.303	1.155	1.375	1.243	1.270	1.487	1.470	1.194	1.027	1.071	0.864	0.812	0.934	0.943	0.938	0.940	1.073	0.826	0.678	0.691	0.711	0.660	0.660	0.685
630.0	55.32	47.66	46.68	38.32	32.09	29.36	29.33	31.68	34.07	40.30	45.22	52.96	74.54	58.40	35.29	26.99	25.49	67.29	444.1	277.3	11.28	5.476	5.004	4.525	4.539	4.208	4.336	4.189	4.374	4.189	4.062	3.910	3.726	3.672	3.418	3.523	3.249	2.926	2.660	2.457	2.242	2.108	1.950	1.944	1.771	1.790	1.482	1.472	1.337	1.200	1.271	1.136	1.193	1.082	1.010	1.163	1.009	1.104	1.224	1.228	1.191	1.023	0.969	0.885	0.848	0.915	0.819	0.816	0.911	0.918	0.859	0.886	0.693	0.719	0.684	0.692	0.727
635.0	53.84	47.82	50.36	41.18	40.79	35.96	32.30	36.32	37.89	44.08	49.07	57.54	67.13	79.08	50.43	38.46	36.97	39.39	151.9	504.1	59.41	5.075	4.416	3.952	3.755	3.418	3.833	3.059	3.504	3.613	3.525	2.960	3.079	2.974	2.854	2.705	2.819	2.679	2.076	2.111	2.012	1.861	1.443	1.482	1.515	1.407	1.141	1.288	1.150	0.993	1.006	1.016	1.063	0.957	0.963	0.956	1.045	0.880	1.033	0.978	1.082	0.948	0.997	0.725	0.761	0.842	0.739	0.710	0.901	0.721	0.814	0.965	0.747	0.694	0.720	0.708	0.668
640.0	60.75	53.26	57.98	51.49	47.26	42.75	38.25	36.19	38.87	46.57	53.81	63.74	69.88	88.15	69.91	52.17	50.48	44.02	62.26	419.5	224.6	6.764	3.857	3.688	3.392	3.150	2.873	2.781	3.232	3.017	3.002	2.839	2.803	2.607	2.368	2.419	2.327	2.152	2.010	1.807	1.772	1.676	1.445	1.314	1.298	1.384	1.059	1.045	1.027	0.924	0.859	0.851	1.015	0.843	0.830	0.847	0.936	0.814	0.857	0.777	0.891	0.986	0.889	0.777	0.881	0.784	0.756	0.743	0.742	0.798	0.822	1.052	0.878	0.757	0.821	0.740	0.710
645.0	63.42	56.71	55.93	61.99	55.90	49.71	41.69	38.95	45.08	49.87	56.73	69.79	73.84	90.48	87.52	67.02	63.72	53.92	46.84	209.1	407.5	22.05	3.452	3.334	2.824	2.553	2.651	2.679	2.642	2.673	2.423	2.416	2.317	2.244	2.126	2.082	2.011	1.839	1.689	1.567	1.431	1.471	1.383	1.306	1.106	0.991	1.036	0.958	0.902	0.750	0.808	0.776	0.885	0.844	0.837	0.794	0.850	0.737	0.748	0.782	0.852	0.891	0.921	0.797	0.852	0.746	0.863	0.808	0.748	0.785	0.886	0.839	0.881	0.846	0.757	0.711	0.802
650.0	63.55	66.57	59.46	55.51	55.93	52.49	42.30	40.67	45.28	52.87	61.41	69.47	75.06	87.60	96.32	73.63	69.36	56.32	46.32	85.32	439.1	70.24	3.564	2.840	2.736	2.519	2.270	2.550	2.458	2.493	2.214	2.446	2.095	2.016	1.851	1.790	1.685	1.665	1.436	1.479	1.296	1.300	1.395	1.168	1.042	0.975	0.908	0.858	0.840	0.803	0.799	0.745	0.737	0.815	0.779	0.813	0.854	0.653	0.680	0.708	0.790	0.803	0.822	0.800	0.772	0.757	0.814	0.741	0.714	0.782	0.721	0.828	0.854	0.865	0.817	0.801	0.837
