Sample:	'1
File name:	T2025041710 颜家村东北桥.FD3
Run date:	'10:59:46, 04/21/2025
Operator:	Administrator
Comment:	'

Instrument
Model:	F-2700 FL Spectrophotometer
Serial number:	23B8-004
ROM Version:	4J14000 07

Instrument parameters
Measurement type:	3-D scan
Data mode:	Fluorescence
EX  Start WL:	220.0 nm
EX  End WL:	600.0 nm
EX Sampling interval:	5.0 nm
EM  Start WL:	230.0 nm
EM  End WL:	650.0 nm
EM Sampling interval:	5.0 nm
Scan speed:	12000 nm/min
EX Slit:	5.0 nm
EM Slit:	5.0 nm
PMT Voltage:	700 V
Response:	Auto 
Corrected spectra:	Off
Contour interval:	50.000

Peak integration
Integration method:	Rectangular
Sensitivity:	1
Threshold:	1.000

Peaks
No.	ApexEX/EM(nm)	Height(Data)
1	225.0/600.0	46.48
2	225.0/625.0	36.87
3	230.0/345.0	857.6
4	230.0/500.0	292.3
5	235.0/380.0	644.3
6	235.0/405.0	609.7
7	235.0/510.0	248.7
8	240.0/265.0	352.7
9	240.0/525.0	220.1
10	245.0/270.0	358.4
11	245.0/535.0	193.0
12	250.0/275.0	423.8
13	250.0/550.0	152.9
14	255.0/280.0	568.7
15	255.0/560.0	132.3
16	260.0/285.0	559.0
17	260.0/575.0	104.5
18	265.0/290.0	575.5
19	265.0/585.0	101.9
20	270.0/300.0	857.9
21	270.0/390.0	508.0
22	270.0/595.0	83.56
23	275.0/305.0	997.2
24	275.0/335.0	614.5
25	275.0/610.0	74.09
26	280.0/310.0	866.0
27	280.0/340.0	614.2
28	280.0/625.0	61.21
29	285.0/315.0	807.6
30	285.0/635.0	46.94
31	290.0/325.0	730.7
32	300.0/335.0	518.1
33	305.0/345.0	449.3
34	315.0/355.0	365.2
35	315.0/395.0	364.4
36	320.0/360.0	330.0
37	325.0/370.0	317.7
38	330.0/375.0	312.1
39	335.0/380.0	310.5
40	340.0/390.0	281.6
41	345.0/395.0	267.1
42	350.0/400.0	267.6
43	360.0/415.0	226.8
44	365.0/420.0	218.3
45	415.0/485.0	46.02
46	430.0/505.0	27.81
47	445.0/525.0	16.49
48	460.0/345.0	2.483
49	500.0/270.0	2.020
50	505.0/275.0	3.034
51	515.0/280.0	3.273
52	520.0/285.0	3.650
53	530.0/290.0	3.323
54	540.0/295.0	4.813
55	545.0/300.0	4.792
56	555.0/305.0	5.093
57	560.0/310.0	4.576
58	575.0/315.0	4.705
59	580.0/320.0	4.598
60	585.0/325.0	4.648

Data points
	220.0	225.0	230.0	235.0	240.0	245.0	250.0	255.0	260.0	265.0	270.0	275.0	280.0	285.0	290.0	295.0	300.0	305.0	310.0	315.0	320.0	325.0	330.0	335.0	340.0	345.0	350.0	355.0	360.0	365.0	370.0	375.0	380.0	385.0	390.0	395.0	400.0	405.0	410.0	415.0	420.0	425.0	430.0	435.0	440.0	445.0	450.0	455.0	460.0	465.0	470.0	475.0	480.0	485.0	490.0	495.0	500.0	505.0	510.0	515.0	520.0	525.0	530.0	535.0	540.0	545.0	550.0	555.0	560.0	565.0	570.0	575.0	580.0	585.0	590.0	595.0	600.0
230.0	44.47	533.4	1739	682.5	36.85	5.932	4.409	3.721	3.444	2.923	2.606	2.529	2.130	1.903	1.605	1.338	1.141	1.084	0.981	0.877	0.804	0.763	0.657	0.655	0.617	0.627	0.539	0.543	0.471	0.482	0.449	0.470	0.418	0.420	0.342	0.369	0.365	0.349	0.311	0.307	0.371	0.416	0.480	0.365	0.289	0.300	0.601	2.937	5.944	5.082	2.092	0.499	0.268	0.237	0.239	0.216	0.229	0.238	0.244	0.225	0.210	0.224	0.202	0.221	0.225	0.213	0.220	0.203	0.238	0.239	0.231	0.229	0.200	0.217	0.219	0.240	0.247
235.0	104.1	164.4	962.1	1960	557.1	56.27	5.278	4.143	4.244	3.123	2.886	2.845	2.568	1.925	1.627	1.526	1.130	1.044	0.913	0.999	0.848	0.791	0.639	0.669	0.586	0.602	0.552	0.502	0.589	0.463	0.479	0.518	0.408	0.399	0.363	0.353	0.357	0.376	0.325	0.360	0.301	0.297	0.392	0.446	0.493	0.323	0.344	0.920	2.157	3.902	6.236	7.627	3.863	1.054	0.288	0.262	0.276	0.227	0.212	0.244	0.196	0.197	0.210	0.226	0.235	0.238	0.225	0.189	0.213	0.220	0.214	0.199	0.206	0.212	0.206	0.281	0.231
240.0	159.4	144.5	280.9	1464	2207	446.5	30.24	4.306	3.978	3.351	3.164	3.123	2.545	2.018	1.802	1.352	1.077	1.026	1.047	0.998	0.755	0.879	0.736	0.760	0.697	0.621	0.676	0.487	0.662	0.532	0.463	0.425	0.417	0.410	0.385	0.399	0.350	0.341	0.365	0.325	0.330	0.382	0.401	0.386	0.586	0.536	0.450	0.478	0.683	1.157	2.888	8.003	11.08	8.499	3.492	0.721	0.290	0.231	0.235	0.244	0.195	0.242	0.194	0.250	0.204	0.218	0.239	0.215	0.203	0.265	0.222	0.233	0.215	0.245	0.228	0.268	0.264
245.0	108.0	223.4	141.2	457.8	2045	2451	342.0	17.41	4.787	3.566	3.794	3.326	2.372	2.140	1.935	1.600	1.272	1.032	1.061	0.977	0.801	0.915	0.656	0.684	0.673	0.603	0.581	0.494	0.530	0.534	0.382	0.431	0.477	0.455	0.350	0.352	0.279	0.309	0.364	0.359	0.293	0.340	0.350	0.343	0.397	0.542	0.781	0.683	0.461	0.493	0.835	2.494	6.438	11.93	13.93	8.056	2.736	0.400	0.228	0.271	0.217	0.240	0.237	0.230	0.202	0.229	0.216	0.239	0.199	0.220	0.176	0.270	0.222	0.224	0.243	0.299	0.221
250.0	47.79	149.2	233.8	212.1	613.3	1952	2843	1193	84.71	6.522	4.445	4.274	2.801	2.584	2.136	1.748	1.621	1.233	1.305	1.039	0.908	0.878	0.759	0.732	0.800	0.710	0.514	0.597	0.544	0.514	0.493	0.457	0.447	0.437	0.400	0.352	0.383	0.338	0.339	0.324	0.345	0.367	0.337	0.309	0.329	0.363	0.474	0.788	0.904	0.905	0.692	0.853	1.718	3.677	7.092	10.87	14.99	14.83	8.947	2.757	0.522	0.244	0.227	0.223	0.221	0.256	0.217	0.258	0.218	0.258	0.245	0.252	0.215	0.273	0.290	0.256	0.235
255.0	31.94	49.25	161.3	317.5	253.3	482.5	1714	4236	1734	101.3	6.673	5.023	3.429	2.767	2.279	1.982	1.514	1.341	1.305	1.066	0.980	0.959	0.845	0.848	0.742	0.604	0.585	0.722	0.577	0.479	0.530	0.498	0.478	0.462	0.459	0.393	0.399	0.357	0.325	0.311	0.385	0.380	0.346	0.342	0.335	0.300	0.336	0.435	0.517	0.801	1.189	1.247	0.987	1.094	1.806	2.727	4.856	11.70	22.44	25.00	14.19	3.219	0.446	0.251	0.255	0.323	0.308	0.243	0.231	0.245	0.258	0.217	0.238	0.296	0.241	0.270	0.256
260.0	28.89	29.03	60.62	260.1	338.2	181.9	485.2	2768	5059	1360	52.18	6.711	4.473	3.706	2.651	2.335	1.681	1.510	1.471	1.221	0.951	0.920	0.855	0.825	0.660	0.723	0.750	0.686	0.679	0.601	0.509	0.467	0.491	0.495	0.473	0.433	0.410	0.372	0.379	0.342	0.307	0.418	0.369	0.342	0.348	0.312	0.286	0.359	0.310	0.399	0.675	1.495	1.864	1.114	0.841	0.834	1.366	3.156	8.317	19.33	30.07	25.20	11.72	1.979	0.289	0.285	0.296	0.212	0.320	0.267	0.242	0.249	0.240	0.340	0.252	0.278	0.242
265.0	32.20	28.55	30.93	109.4	352.7	277.3	151.0	841.5	4113	5484	232.0	21.85	6.092	4.143	2.938	2.241	1.988	1.760	1.279	1.518	0.947	1.063	0.871	0.816	0.621	0.748	0.749	0.721	0.708	0.574	0.541	0.447	0.559	0.421	0.427	0.389	0.396	0.417	0.375	0.308	0.310	0.374	0.383	0.331	0.319	0.383	0.305	0.341	0.273	0.298	0.374	0.693	1.471	2.079	1.638	0.795	0.654	0.995	2.253	5.380	13.72	27.80	32.87	22.96	8.019	0.945	0.302	0.253	0.279	0.272	0.233	0.283	0.256	0.290	0.261	0.279	0.281
270.0	42.08	39.78	34.59	44.93	148.8	358.4	301.8	246.7	1176	3924	5792	2305	63.75	6.651	4.772	3.250	2.341	2.087	1.610	1.665	1.218	1.106	0.970	0.901	0.752	0.872	0.823	0.711	0.738	0.624	0.662	0.583	0.523	0.526	0.491	0.429	0.423	0.424	0.436	0.324	0.356	0.338	0.396	0.372	0.389	0.399	0.337	0.360	0.274	0.353	0.298	0.397	0.582	1.030	1.665	1.953	2.020	1.168	0.945	1.537	3.425	7.573	14.42	24.85	28.61	31.23	16.23	6.570	0.940	0.336	0.286	0.355	0.267	0.305	0.257	0.323	0.267
275.0	85.15	79.01	75.58	49.60	56.43	144.4	423.8	346.9	313.9	947.9	2964	8333	1263	72.76	7.495	4.721	3.290	2.676	1.934	1.662	1.473	1.225	1.103	0.913	0.866	0.874	0.810	0.666	0.734	0.665	0.616	0.568	0.642	0.515	0.586	0.508	0.466	0.527	0.485	0.393	0.375	0.354	0.373	0.359	0.481	0.505	0.393	0.441	0.396	0.352	0.330	0.349	0.385	0.482	0.651	0.915	1.851	3.034	2.509	1.273	1.223	2.065	3.645	6.047	8.013	17.39	37.19	50.45	25.78	7.524	0.690	0.344	0.375	0.303	0.291	0.352	0.325
280.0	121.7	139.0	125.1	70.75	41.61	66.07	234.9	568.7	272.6	270.4	809.9	4823	8426	962.0	35.76	6.000	4.382	2.887	2.411	2.115	1.728	1.347	1.116	1.049	0.912	0.824	0.801	0.681	0.726	0.839	0.748	0.648	0.588	0.666	0.623	0.557	0.465	0.527	0.398	0.395	0.422	0.427	0.463	0.464	0.556	0.628	0.479	0.575	0.524	0.502	0.389	0.406	0.398	0.421	0.398	0.545	0.846	1.669	3.020	3.273	1.666	0.960	1.247	1.891	2.288	4.478	11.74	30.12	50.14	33.43	20.37	3.804	0.521	0.362	0.306	0.322	0.360
285.0	170.2	209.7	179.3	101.4	53.32	50.90	103.3	404.3	559.0	198.6	268.7	1394	6409	7639	625.8	13.97	5.514	3.861	2.700	2.324	1.886	1.523	1.398	1.056	1.047	0.849	0.851	0.790	0.712	0.766	0.740	0.638	0.649	0.657	0.676	0.708	0.569	0.645	0.542	0.504	0.458	0.452	0.504	0.547	0.508	0.612	0.611	0.671	0.743	0.640	0.526	0.483	0.482	0.472	0.410	0.462	0.497	0.723	1.512	2.700	3.650	2.471	1.102	0.984	1.097	1.613	3.228	7.945	18.04	37.67	59.23	30.93	13.92	1.628	0.427	0.374	0.348
290.0	231.4	278.7	245.6	159.5	82.41	64.96	75.36	179.6	474.3	575.5	235.2	451.1	1790	5214	6558	1992	35.86	5.468	3.650	2.641	2.196	1.777	1.557	1.265	1.241	0.984	0.893	0.860	0.772	0.772	0.726	0.714	0.675	0.685	0.780	0.649	0.618	0.655	0.592	0.591	0.584	0.492	0.619	0.641	0.612	0.767	0.819	0.969	0.907	0.830	0.621	0.664	0.560	0.504	0.479	0.492	0.549	0.622	0.732	1.251	2.013	3.091	3.323	2.996	1.693	1.274	1.515	2.613	4.723	9.934	20.92	31.05	44.22	41.09	20.51	10.43	1.921
295.0	276.4	353.3	322.3	215.7	114.3	90.06	95.00	139.5	239.9	544.4	734.3	364.5	560.4	1309	3179	7810	714.4	38.38	5.315	3.502	2.662	2.152	1.879	1.462	1.243	1.242	1.051	0.923	0.851	0.761	0.851	0.773	0.776	0.769	0.792	0.693	0.836	0.680	0.624	0.624	0.631	0.578	0.633	0.638	0.735	0.937	0.946	1.020	1.099	0.984	0.757	0.808	0.654	0.608	0.528	0.606	0.636	0.703	0.740	0.943	1.099	1.515	1.965	3.496	4.813	3.329	1.796	1.773	2.134	3.188	5.384	7.722	11.44	18.76	40.53	63.46	32.17
300.0	292.1	383.7	359.6	242.3	144.2	121.4	128.9	165.4	216.8	377.6	857.9	676.1	370.8	455.8	889.4	4522	5858	561.9	19.04	5.201	3.380	2.627	2.166	1.709	1.323	1.286	0.980	0.925	0.932	0.977	0.954	0.833	0.733	0.788	0.704	0.755	0.814	0.818	0.702	0.655	0.631	0.538	0.649	0.749	0.783	0.884	1.073	1.051	1.047	1.024	0.919	0.909	0.865	0.715	0.733	0.709	0.851	0.794	0.921	1.018	1.178	1.250	1.434	2.158	3.482	4.792	4.249	2.559	1.944	2.053	2.235	2.749	3.435	5.017	11.94	31.37	56.53
305.0	310.7	403.9	387.9	267.9	173.9	151.0	172.4	203.9	257.6	355.4	631.9	997.2	525.0	320.5	338.9	1269	5326	5029	79.42	8.091	4.208	2.991	2.250	1.886	1.700	1.416	1.161	1.105	1.049	0.862	0.970	0.918	0.775	0.741	0.830	0.847	0.831	0.826	0.671	0.814	0.695	0.676	0.638	0.758	0.979	1.039	1.036	1.334	1.255	1.118	0.887	0.918	0.886	0.751	0.832	0.772	0.904	0.952	0.989	1.207	1.355	1.427	1.671	1.825	2.265	3.316	4.757	5.093	3.411	2.186	1.835	1.714	1.785	2.133	3.487	8.134	18.31
310.0	321.0	413.0	410.4	290.5	196.5	171.8	195.9	244.3	299.1	373.7	505.1	765.5	866.0	481.9	265.6	393.1	1481	4180	4383	1299	21.68	4.426	3.093	2.435	1.871	1.711	1.299	1.230	1.177	0.952	1.028	0.871	0.881	0.779	0.833	0.869	0.951	0.806	0.677	0.783	0.763	0.653	0.691	0.742	0.845	1.038	1.126	1.294	1.228	1.164	0.884	1.034	0.911	0.877	0.899	0.913	0.971	1.174	1.138	1.317	1.420	1.700	1.906	1.919	2.111	2.525	3.172	3.976	4.576	4.390	3.295	2.240	1.637	1.636	1.760	2.513	4.841
315.0	345.4	421.0	436.9	304.2	220.7	203.2	221.4	276.9	335.0	409.7	491.1	591.0	711.6	807.6	380.2	230.0	418.8	1015	2343	6063	495.8	21.30	4.203	3.069	2.322	1.992	1.434	1.290	1.302	1.035	1.042	0.934	0.869	0.929	0.927	0.883	0.946	0.769	0.755	0.658	0.783	0.733	0.637	0.821	0.916	0.969	1.232	1.315	1.285	1.229	0.976	1.077	1.111	1.018	0.909	1.114	1.099	1.325	1.318	1.349	1.476	1.766	1.917	2.189	2.249	2.394	2.688	3.140	3.201	3.838	4.477	4.705	2.839	1.844	1.540	1.596	1.977
320.0	379.0	465.4	498.0	344.8	252.0	221.7	239.7	302.5	352.3	434.4	506.8	566.4	591.2	761.0	634.6	248.0	213.6	304.1	624.8	3995	4126	389.0	9.553	4.032	2.901	1.888	1.701	1.546	1.479	1.142	1.086	0.990	0.914	0.922	0.967	0.824	0.856	0.784	0.647	0.719	0.735	0.749	0.704	0.939	0.922	1.074	1.333	1.357	1.483	1.341	1.153	1.097	1.268	1.080	0.976	1.084	1.197	1.328	1.431	1.520	1.620	1.754	1.942	2.264	2.196	2.483	2.559	2.921	2.672	2.944	3.125	4.552	4.598	3.580	2.020	1.537	1.416
325.0	423.9	554.7	582.1	415.6	276.1	244.6	254.4	315.9	367.3	442.2	523.8	581.1	569.3	603.5	730.7	408.7	198.5	165.4	193.2	1136	4383	3581	57.05	6.003	3.437	2.239	1.819	1.665	1.435	1.183	1.085	0.989	0.929	1.151	0.934	0.916	0.844	0.890	0.838	0.752	0.730	0.789	0.830	0.866	1.060	1.267	1.395	1.721	1.832	1.494	1.296	1.334	1.410	1.159	1.233	1.199	1.351	1.306	1.549	1.536	1.640	1.755	1.926	2.106	2.303	2.374	2.620	2.950	2.822	2.885	2.781	3.176	4.033	4.648	3.543	2.221	1.552
330.0	455.8	653.9	712.9	531.4	350.4	278.6	284.3	324.7	380.9	460.4	544.5	595.0	588.9	554.5	564.5	562.9	344.6	168.5	112.3	309.6	1259	3337	3678	948.5	16.09	3.657	2.460	1.999	1.715	1.234	1.207	1.138	1.003	0.991	1.035	0.980	0.818	0.824	0.862	0.752	0.679	0.825	0.791	0.959	1.093	1.290	1.622	1.975	2.151	1.885	1.618	1.599	1.529	1.293	1.286	1.276	1.352	1.408	1.594	1.647	1.810	1.886	2.016	2.279	2.536	2.549	2.601	2.999	2.805	2.902	2.884	2.920	2.990	3.264	3.417	3.524	3.202
335.0	489.1	713.3	796.7	627.5	417.5	317.3	311.7	338.8	395.4	473.6	559.8	614.5	614.2	567.5	500.0	456.9	518.1	290.6	128.0	147.1	329.7	802.9	2405	4729	398.0	14.94	3.510	2.570	1.679	1.618	1.369	1.341	1.086	1.051	0.993	0.944	0.840	0.770	0.750	0.797	0.736	0.769	0.826	1.007	1.090	1.587	1.817	2.125	2.254	2.280	1.819	1.946	1.753	1.488	1.476	1.379	1.378	1.460	1.593	1.723	1.874	2.023	2.167	2.336	2.649	2.752	2.642	2.760	3.045	2.902	3.191	2.944	2.953	2.716	2.840	2.927	3.226
340.0	465.7	740.5	857.0	669.2	458.7	355.2	327.4	346.1	415.3	479.5	559.2	613.4	614.2	566.8	495.9	406.3	458.2	444.8	181.3	126.6	134.5	222.0	647.3	3420	3347	315.3	6.981	2.995	2.016	1.940	1.551	1.368	1.154	1.037	0.939	0.953	0.974	0.741	0.806	0.734	0.782	0.755	0.979	1.045	1.249	1.549	1.702	2.449	2.462	2.159	2.069	2.141	1.955	1.728	1.524	1.404	1.443	1.615	1.570	1.645	1.921	2.070	2.308	2.464	2.779	2.801	2.890	3.002	3.012	2.758	3.139	2.976	2.875	2.686	2.535	2.382	2.559
345.0	489.7	714.5	857.6	720.8	487.3	378.7	345.4	352.5	409.5	473.6	551.1	603.1	599.9	570.5	495.8	403.2	368.2	449.3	293.8	147.1	105.0	103.8	183.8	1009	3815	2899	47.48	4.608	2.616	2.316	1.617	1.416	1.273	1.197	1.094	0.989	0.735	0.802	0.689	0.788	0.861	0.713	0.856	0.958	1.157	1.449	1.677	2.290	2.483	2.230	2.045	2.253	1.993	1.735	1.547	1.400	1.548	1.619	1.699	1.798	1.904	2.041	2.252	2.414	2.516	2.798	2.739	2.768	2.814	2.925	3.193	2.841	2.924	2.807	2.547	2.394	2.687
350.0	455.1	681.7	833.9	712.8	519.4	405.3	368.7	365.9	414.4	469.3	530.6	578.4	581.6	556.8	490.5	409.8	349.7	348.3	334.5	270.2	132.8	99.49	96.98	265.2	1129	2856	2887	215.0	13.13	2.889	1.930	1.521	1.311	1.190	1.151	0.901	0.872	0.789	0.766	0.827	0.715	0.715	0.797	0.916	1.120	1.348	1.576	2.169	2.205	2.156	2.021	2.298	2.060	1.833	1.613	1.603	1.683	1.728	1.711	1.892	1.865	2.002	2.157	2.223	2.441	2.565	2.824	2.592	2.982	2.935	2.979	2.852	2.760	2.688	2.663	2.354	2.465
355.0	431.2	640.7	780.7	698.9	539.0	435.8	387.4	390.4	427.7	471.3	527.0	555.9	558.1	544.9	490.8	420.3	365.6	321.0	271.5	365.2	236.4	129.7	100.2	113.6	291.4	691.6	2050	3169	348.6	12.57	2.526	2.058	1.457	1.483	1.119	0.924	0.905	0.858	0.765	0.777	0.784	0.762	0.816	0.882	1.168	1.413	1.569	1.955	2.010	2.132	2.009	2.108	2.190	1.844	1.793	1.754	1.695	1.955	1.747	1.855	1.942	2.013	2.112	2.176	2.557	2.470	2.569	2.707	2.735	2.937	3.065	2.807	2.667	2.845	2.739	2.627	2.504
360.0	415.1	612.3	729.4	667.9	553.5	467.6	423.1	420.4	433.9	467.9	514.3	540.4	546.2	533.8	492.8	427.6	377.6	328.0	256.3	325.3	330.0	189.7	118.8	99.27	115.9	191.2	563.0	2729	2945	276.7	5.553	2.492	1.777	1.548	1.243	0.978	0.829	0.897	0.844	0.769	0.739	0.748	0.925	0.914	1.126	1.299	1.507	1.761	1.952	2.039	1.876	2.340	2.205	1.850	1.898	1.722	1.765	1.949	1.862	1.983	2.003	2.151	2.089	2.335	2.420	2.383	2.380	2.659	2.601	2.671	2.844	2.736	2.735	2.744	2.688	2.555	2.655
365.0	386.3	597.8	680.9	664.6	564.4	489.7	449.8	430.0	442.9	472.6	511.3	540.7	536.1	524.4	487.4	434.2	387.5	339.7	266.2	289.7	329.1	289.0	156.6	111.6	90.71	89.53	158.7	844.4	3303	2556	43.76	3.917	2.377	1.844	1.191	1.144	1.005	0.936	0.796	0.755	0.751	0.735	0.820	0.867	1.090	1.313	1.292	1.665	1.914	1.902	1.740	2.371	2.216	1.918	1.980	1.698	1.886	1.902	1.922	2.097	2.110	2.151	2.044	2.248	2.444	2.443	2.542	2.569	2.580	2.693	2.716	2.616	2.781	2.725	2.851	2.725	2.597
370.0	378.9	556.4	674.0	646.5	575.6	510.7	465.5	456.6	459.0	484.9	513.9	530.8	528.2	510.5	483.2	436.8	399.0	360.4	288.8	297.6	279.1	317.7	262.4	154.3	108.8	86.25	83.13	221.6	997.8	2577	2582	195.3	12.02	2.409	1.642	1.384	1.047	1.000	0.889	0.776	0.790	0.755	0.889	0.871	1.014	1.283	1.380	1.709	1.960	1.801	1.843	2.184	2.223	2.017	2.006	1.860	2.086	1.938	1.968	2.136	2.127	2.183	2.248	2.414	2.383	2.386	2.481	2.508	2.608	2.636	2.773	2.722	2.740	2.758	2.652	2.595	2.603
375.0	372.9	533.1	641.4	631.6	585.2	538.1	488.7	469.3	482.8	489.9	516.0	522.5	515.6	503.8	475.6	438.6	408.6	379.7	311.3	319.4	273.8	276.4	312.1	250.2	144.7	106.7	84.80	96.07	254.7	630.5	1914	2860	303.6	11.11	2.325	1.666	1.384	0.988	0.890	0.869	0.864	0.820	0.865	0.927	0.992	1.194	1.240	1.725	1.903	1.667	1.876	2.064	1.965	2.085	2.094	1.985	2.184	2.183	2.101	2.397	2.250	2.308	2.241	2.511	2.469	2.413	2.476	2.232	2.258	2.587	2.847	2.676	2.707	2.846	2.817	2.718	2.694
380.0	344.7	511.3	633.0	644.3	591.9	540.5	504.2	486.3	485.6	502.3	509.9	515.0	516.7	495.5	473.5	439.2	412.3	391.1	323.5	334.9	285.8	272.3	285.7	310.5	201.7	128.9	96.44	80.59	99.70	171.2	532.6	2394	2520	231.8	4.809	2.119	1.596	1.294	0.924	0.981	0.844	0.855	0.799	0.889	1.017	1.145	1.336	1.699	1.682	1.592	1.723	2.157	2.239	2.283	2.174	2.027	2.114	2.106	2.245	2.238	2.213	2.291	2.264	2.348	2.448	2.332	2.494	2.192	2.318	2.572	2.420	2.544	2.712	2.709	2.715	2.568	2.544
385.0	355.2	511.0	614.4	635.2	588.1	559.1	524.2	492.2	485.7	504.7	504.7	510.5	500.1	487.0	464.8	435.0	412.8	391.2	331.5	345.8	299.3	282.3	266.3	297.0	271.7	162.9	114.7	90.46	76.76	75.85	146.3	730.5	2689	2068	36.33	3.329	2.030	1.503	1.134	1.017	0.907	0.843	0.781	0.956	0.914	1.144	1.289	1.514	1.788	1.709	1.668	2.141	2.192	2.389	2.384	2.094	2.198	2.165	2.217	2.288	2.353	2.150	2.162	2.366	2.691	2.370	2.475	2.265	2.544	2.621	2.474	2.490	2.668	2.611	2.684	2.637	2.677
390.0	347.5	498.2	609.9	627.5	600.9	565.9	532.9	506.8	501.4	504.0	508.0	506.2	494.0	479.1	456.1	430.6	412.0	393.9	338.3	356.5	311.6	300.0	275.2	267.4	281.6	242.1	157.1	113.2	89.06	71.95	71.63	189.9	790.0	1916	1895	494.5	10.94	2.025	1.477	1.189	0.986	0.866	0.912	0.981	1.052	1.156	1.269	1.563	1.689	1.637	1.699	2.048	2.298	2.129	2.312	2.038	2.234	2.188	2.271	2.400	2.257	2.352	2.197	2.340	2.423	2.355	2.358	2.319	2.496	2.458	2.482	2.688	2.619	2.592	2.627	2.586	2.604
395.0	370.3	489.0	581.9	616.6	600.3	572.9	539.4	525.2	517.5	503.6	507.5	503.2	489.0	469.8	443.1	425.0	406.2	390.7	338.7	364.4	320.5	309.9	290.9	268.4	253.2	267.1	233.7	150.1	110.7	86.76	69.56	79.82	200.9	462.7	1303	2278	258.7	11.25	2.003	1.351	1.277	0.996	1.078	0.974	1.081	1.200	1.396	1.554	1.617	1.720	1.695	1.894	2.273	2.090	2.300	2.168	2.461	2.392	2.303	2.406	2.289	2.536	2.429	2.439	2.158	2.383	2.412	2.294	2.509	2.494	2.617	2.470	2.530	2.522	2.632	2.357	2.610
400.0	359.3	482.7	571.5	606.7	604.0	581.4	558.7	528.9	518.9	507.9	504.1	504.7	485.6	464.5	437.5	420.6	400.7	386.7	333.4	362.2	322.7	319.2	299.0	277.4	252.5	245.5	267.6	197.8	131.7	103.1	80.33	63.78	76.26	124.7	352.5	1641	1994	212.7	5.197	1.724	1.429	1.096	1.268	1.018	1.081	1.072	1.272	1.463	1.727	1.694	1.801	1.935	2.376	2.002	2.362	2.284	2.274	2.382	2.348	2.386	2.562	2.504	2.312	2.398	2.261	2.356	2.442	2.349	2.225	2.479	2.335	2.459	2.587	2.660	2.489	2.397	2.560
405.0	346.9	475.3	581.3	609.7	588.2	582.3	562.0	531.8	526.9	514.0	503.8	500.7	479.5	464.5	437.2	414.1	393.3	383.6	337.0	362.4	323.8	321.4	306.4	281.0	260.8	240.1	252.6	244.5	165.2	119.8	92.58	69.16	55.45	54.35	96.62	472.7	1810	1688	34.24	3.114	1.500	1.208	1.291	1.028	1.133	1.160	1.350	1.556	1.637	1.743	1.641	2.133	2.304	2.313	2.313	2.235	2.382	2.336	2.377	2.274	2.455	2.353	2.329	2.362	2.327	2.577	2.256	2.421	2.498	2.596	2.277	2.392	2.404	2.614	2.607	2.441	2.615
410.0	355.5	471.8	565.2	609.6	590.0	576.2	561.0	544.2	531.6	517.6	504.9	492.6	473.2	455.6	426.1	401.0	380.3	370.7	323.1	354.3	319.3	319.8	304.9	286.9	269.1	245.0	233.7	241.8	219.8	153.1	110.3	82.14	61.63	46.98	45.72	123.2	507.0	1356	1491	464.1	11.04	1.625	1.428	1.139	1.071	1.355	1.319	1.581	1.659	1.685	1.715	2.081	2.184	2.197	2.250	2.278	2.363	2.450	2.443	2.369	2.411	2.427	2.427	2.430	2.330	2.353	2.281	2.358	2.443	2.416	2.476	2.346	2.247	2.624	2.537	2.413	2.486
415.0	343.6	456.8	551.2	581.6	575.2	564.1	568.0	549.2	528.0	517.2	501.5	484.1	458.9	442.6	411.8	379.9	362.8	352.0	315.4	341.4	308.9	312.9	301.6	286.5	270.3	251.7	232.4	220.3	226.8	205.7	136.4	96.22	72.85	53.07	41.08	48.82	128.4	321.3	861.8	1774	248.5	13.07	1.969	1.220	1.215	1.464	1.312	1.665	1.580	1.734	1.626	2.119	2.218	2.258	2.359	2.257	2.363	2.512	2.533	2.426	2.508	2.448	2.380	2.641	2.471	2.246	2.218	2.177	2.179	2.335	2.369	2.230	2.248	2.364	2.384	2.464	2.483
420.0	331.5	448.3	525.9	561.2	571.2	565.5	553.5	546.4	528.8	510.7	499.2	476.0	451.1	422.4	397.0	368.1	351.6	339.8	302.5	327.0	298.3	301.7	294.8	282.1	269.9	251.2	234.3	215.3	209.1	218.3	169.8	108.9	80.74	59.34	44.19	35.74	46.53	83.85	222.3	1113	1583	213.0	6.674	1.521	1.365	1.457	1.316	1.458	1.576	1.703	1.558	2.014	2.109	2.266	2.274	2.196	2.302	2.324	2.513	2.457	2.419	2.601	2.330	2.627	2.465	2.417	2.104	2.175	2.233	2.078	2.201	2.249	2.227	2.288	2.214	2.301	2.399
425.0	304.0	426.4	520.8	548.1	557.6	553.7	551.1	547.5	517.8	503.7	496.5	472.2	442.1	412.9	379.7	357.7	336.0	330.4	288.7	315.2	288.7	293.5	288.8	276.1	268.7	252.7	237.2	214.3	202.2	204.7	198.3	130.6	89.34	66.48	49.75	37.91	32.07	33.50	60.33	302.4	1243	1380	34.27	3.377	1.591	1.554	1.410	1.481	1.464	1.520	1.643	1.949	2.150	2.078	2.178	2.105	2.535	2.365	2.477	2.415	2.483	2.349	2.471	2.522	2.216	2.484	2.137	2.122	2.249	2.106	2.158	2.140	2.181	2.242	2.068	2.222	2.118
430.0	334.3	415.7	500.0	519.7	536.5	547.4	538.8	534.0	521.8	503.7	492.0	465.4	427.8	400.6	368.3	340.7	322.7	312.1	280.2	301.1	277.3	280.0	276.9	269.9	261.1	248.6	235.8	217.6	202.4	187.7	186.4	164.2	112.3	76.98	57.82	44.77	34.07	26.65	27.56	77.62	329.6	925.5	1180	457.1	12.71	1.878	1.599	1.654	1.605	1.607	1.558	2.020	2.177	2.116	2.123	2.175	2.488	2.266	2.503	2.388	2.335	2.452	2.377	2.519	2.353	2.370	2.203	2.056	2.087	2.081	2.186	1.998	2.105	2.050	2.017	2.228	2.164
435.0	484.8	396.7	487.1	501.2	521.6	521.0	525.8	522.4	506.1	500.7	480.8	455.3	419.5	381.4	352.1	324.7	306.2	295.4	263.2	285.0	260.1	265.2	265.2	260.7	253.6	242.2	231.8	217.5	203.1	185.7	169.5	164.0	143.9	95.31	66.01	52.84	40.32	29.40	23.80	30.47	82.97	216.2	552.3	1460	245.7	17.50	2.054	1.836	1.629	1.628	1.615	1.931	2.030	2.033	2.084	2.247	2.323	2.224	2.298	2.514	2.362	2.320	2.527	2.480	2.263	2.294	2.280	2.036	1.984	1.916	2.097	2.023	1.944	2.110	1.883	2.050	1.956
440.0	643.5	456.5	472.7	484.5	511.4	510.7	524.7	521.1	509.4	490.9	477.0	445.6	411.5	373.3	341.7	313.9	290.8	281.6	253.9	271.5	249.8	256.5	253.3	249.9	246.8	237.1	227.6	218.4	204.1	186.4	165.7	150.7	150.2	116.3	75.72	57.26	44.64	32.97	25.65	22.13	29.80	56.88	137.9	782.0	1430	226.0	10.56	2.106	1.925	1.594	1.665	1.835	2.082	1.958	2.133	2.006	2.328	2.328	2.350	2.338	2.215	2.293	2.239	2.183	2.259	2.179	2.154	2.048	2.086	2.057	2.055	2.066	1.932	1.973	1.882	1.971	2.027
445.0	670.8	626.8	461.8	483.3	495.5	496.8	507.7	507.9	500.4	487.1	471.3	438.7	404.0	362.4	330.6	300.8	280.0	270.1	244.4	261.4	241.4	245.7	242.3	242.2	236.4	230.7	220.4	211.5	201.1	185.9	166.2	143.5	136.5	130.6	91.86	62.24	48.91	36.85	28.71	22.53	19.70	22.34	38.85	200.0	941.7	1346	171.6	6.592	2.164	1.619	1.608	1.880	1.933	2.032	1.984	1.909	2.278	2.432	2.183	2.444	2.292	2.184	2.172	2.043	2.302	2.086	2.032	2.096	1.973	1.976	2.000	2.035	1.977	1.798	1.872	1.749	1.952
450.0	471.0	985.2	594.2	444.5	467.0	477.8	485.4	477.3	478.6	469.4	455.9	419.2	386.9	343.0	309.5	281.5	263.3	250.8	225.3	240.1	222.8	229.8	225.8	225.3	221.7	216.6	208.5	201.4	194.6	180.1	162.9	142.0	123.6	119.2	108.2	75.63	53.91	41.10	32.11	25.08	20.02	17.09	17.66	51.75	238.4	749.7	1103	476.3	12.75	2.173	1.782	1.876	1.912	2.013	2.080	1.903	2.219	2.259	2.206	2.334	2.169	2.252	2.312	2.095	2.139	2.151	2.101	1.955	1.868	1.951	1.870	1.963	1.902	1.899	1.811	1.790	1.844
455.0	279.0	964.9	1124	469.6	431.6	441.9	450.4	448.1	448.2	441.2	425.9	395.6	356.9	317.7	281.1	256.7	239.5	232.0	207.1	219.3	203.0	205.8	207.3	206.6	204.9	197.9	192.9	188.5	182.2	172.3	156.3	137.9	118.6	104.2	100.3	91.75	64.43	45.55	35.45	27.81	22.16	18.08	14.74	19.82	59.49	173.3	404.2	1153	675.3	16.99	2.151	1.998	1.868	1.992	2.042	1.946	1.919	1.968	2.074	2.054	2.013	2.073	2.292	2.014	2.100	1.952	1.874	1.805	1.877	1.900	1.883	1.789	1.756	1.705	1.681	1.616	1.705
460.0	239.1	647.3	1529	621.5	405.2	424.3	428.8	431.9	430.8	417.6	402.0	376.1	338.8	303.1	266.6	240.1	223.9	213.7	189.7	201.9	187.1	191.3	192.7	191.2	191.7	185.8	182.1	177.7	172.1	162.8	150.8	134.5	113.8	98.34	88.65	90.99	74.54	50.38	37.33	29.73	23.91	19.27	15.19	14.03	20.68	44.49	97.40	515.3	1235	182.4	12.07	2.145	1.979	1.945	1.858	1.785	1.934	1.985	1.915	2.108	1.831	2.306	2.127	1.849	2.049	1.880	1.963	1.666	1.793	1.702	1.721	1.739	1.672	1.651	1.418	1.692	1.564
465.0	224.9	417.4	1468	930.1	395.2	395.5	406.4	410.2	409.4	395.9	382.5	359.1	321.5	283.6	253.7	224.5	206.3	197.9	178.5	186.6	171.7	176.5	178.3	174.8	176.1	172.5	169.8	165.5	163.1	154.8	143.5	128.2	111.9	95.39	82.68	81.03	79.34	58.42	39.39	31.08	24.83	20.29	16.42	13.65	12.70	16.40	27.05	126.9	679.0	1038	157.6	8.509	1.948	1.946	1.943	1.805	1.958	1.869	1.892	1.850	1.818	2.118	1.886	1.817	2.049	1.792	1.720	1.738	1.749	1.584	1.681	1.622	1.667	1.637	1.469	1.573	1.589
470.0	232.2	286.8	854.8	1568	579.9	356.9	366.5	376.2	377.7	366.0	353.6	329.8	297.9	258.6	231.3	205.9	189.3	179.0	160.4	169.2	153.3	160.0	158.2	158.3	158.2	156.8	153.3	150.6	149.1	141.6	131.8	119.0	105.1	90.24	77.31	69.75	67.71	64.37	46.29	33.03	26.42	21.49	17.30	14.07	11.90	10.91	11.81	33.25	166.1	512.4	783.1	440.0	14.20	2.266	1.971	1.762	1.724	1.879	1.774	1.834	1.805	1.898	1.846	1.766	1.861	1.735	1.666	1.605	1.525	1.544	1.603	1.621	1.504	1.432	1.410	1.380	1.500
475.0	237.1	247.5	415.3	1320	1270	357.8	332.7	338.1	343.9	334.5	318.8	301.3	267.1	233.2	207.8	182.8	170.8	159.7	143.3	150.2	137.0	142.4	141.0	139.7	139.8	139.0	136.4	135.1	133.3	128.8	120.7	107.7	97.11	84.17	72.70	63.90	56.77	56.67	53.75	37.48	27.16	22.16	18.23	14.88	12.48	10.66	9.144	12.70	41.52	118.0	254.0	741.6	555.4	19.19	2.196	1.789	1.846	1.813	1.722	1.760	1.723	1.710	1.683	1.743	1.685	1.773	1.547	1.504	1.482	1.474	1.350	1.517	1.402	1.485	1.142	1.283	1.376
480.0	220.6	242.9	298.6	810.5	1730	526.9	309.6	306.0	315.6	314.7	303.9	282.2	248.0	221.3	190.1	171.2	157.5	148.7	132.8	136.8	125.0	128.7	128.1	128.4	128.1	125.1	125.6	123.2	122.6	119.1	114.9	101.4	91.77	79.86	68.17	61.31	53.18	49.53	51.75	44.19	29.31	22.78	18.43	15.20	13.25	11.10	8.906	8.629	13.81	30.34	61.00	290.8	925.7	206.6	14.81	1.939	1.916	1.643	1.665	1.641	1.514	1.732	1.641	1.588	1.667	1.558	1.377	1.339	1.439	1.357	1.259	1.319	1.261	1.424	1.170	1.242	1.118
485.0	205.8	267.5	264.3	432.5	1639	1017	301.7	288.1	292.4	294.1	289.1	267.0	233.8	211.6	180.6	161.6	150.2	140.3	123.4	127.9	116.5	121.0	118.8	118.5	119.0	116.3	117.1	114.9	113.5	112.0	107.9	95.72	86.88	77.32	65.97	58.31	50.87	44.71	45.52	46.02	33.84	23.67	18.79	15.77	13.41	11.72	9.805	8.117	7.999	10.80	17.43	70.92	470.7	807.5	185.0	7.849	1.952	1.675	1.575	1.616	1.406	1.512	1.559	1.576	1.480	1.504	1.412	1.330	1.271	1.371	1.330	1.249	1.197	1.324	1.095	1.157	1.233
490.0	157.9	265.3	260.3	280.7	919.2	1632	526.5	272.5	274.5	273.7	264.8	247.8	218.5	192.2	168.2	146.2	134.0	126.2	113.0	116.7	104.2	108.6	107.5	107.1	106.9	106.1	106.0	104.9	103.6	102.1	97.49	89.01	79.52	71.90	62.28	55.23	48.96	42.01	39.13	39.92	38.04	28.15	19.76	16.55	14.05	12.05	10.18	8.732	7.486	6.767	7.670	19.09	113.8	362.5	727.6	418.2	15.49	2.181	1.638	1.497	1.472	1.450	1.559	1.454	1.408	1.380	1.357	1.323	1.273	1.231	1.292	1.179	1.150	1.120	1.058	1.084	1.133
495.0	130.6	219.6	279.4	228.7	397.2	1415	1232	278.5	248.4	251.4	244.2	231.0	199.0	174.2	154.1	135.1	122.3	112.9	102.0	104.2	93.44	96.98	96.97	94.16	94.96	95.34	94.53	93.68	94.86	91.92	88.43	80.34	73.46	64.99	58.87	51.36	45.81	39.16	35.29	32.43	33.94	32.47	23.17	16.96	14.20	12.20	10.29	9.309	7.714	6.450	5.652	7.622	28.45	83.46	239.7	703.5	557.5	21.48	1.975	1.613	1.503	1.444	1.409	1.349	1.219	1.291	1.298	1.267	1.219	1.105	1.131	1.027	1.174	0.966	1.026	1.093	1.114
500.0	104.3	184.4	292.3	216.2	249.0	824.9	1788	385.8	236.8	229.9	228.8	207.3	182.8	159.1	139.8	121.5	112.5	105.7	92.11	93.93	84.66	87.79	87.72	87.00	87.37	86.97	85.83	85.40	86.14	83.26	80.31	74.21	67.99	60.65	54.15	47.80	43.68	37.25	32.76	30.34	28.50	31.35	26.72	18.53	14.02	12.54	10.66	9.293	7.900	6.312	5.331	5.363	9.650	21.31	57.01	269.4	836.9	228.8	15.06	1.631	1.262	1.396	1.328	1.365	1.235	1.223	1.152	1.107	1.139	1.049	0.943	0.936	1.003	0.913	0.939	1.024	1.067
505.0	104.8	147.5	273.9	235.7	204.7	388.3	1739	892.9	221.8	207.9	210.9	188.9	169.8	147.2	129.5	114.0	103.8	95.00	85.59	85.59	78.10	81.74	81.06	78.13	77.74	79.14	77.53	77.26	79.13	75.92	73.54	68.79	62.70	56.52	50.35	44.82	40.83	35.30	31.31	27.89	25.45	26.53	27.81	21.15	14.24	12.79	10.98	8.818	7.966	6.795	5.623	4.937	5.197	7.561	15.33	65.17	392.1	773.4	190.4	7.070	1.530	1.382	1.343	1.339	1.211	1.043	1.092	0.977	1.130	0.987	0.973	1.030	0.997	0.807	0.868	0.944	0.887
510.0	94.90	129.2	203.9	248.7	179.4	219.6	944.4	1640	407.4	189.3	184.2	168.6	153.1	131.0	114.7	102.0	91.74	83.41	76.37	75.42	69.58	71.32	69.54	70.08	68.18	68.39	67.78	67.76	68.81	67.97	65.11	60.97	55.89	50.11	44.26	40.63	36.47	32.15	28.42	25.08	22.80	21.73	23.45	23.14	17.03	12.43	10.54	9.136	7.551	6.778	5.893	5.037	4.383	4.356	5.919	16.81	93.69	332.8	555.2	286.1	14.64	1.676	1.251	1.166	1.076	1.117	1.032	0.984	1.000	0.956	0.865	0.968	0.814	0.803	0.822	0.869	0.763
515.0	95.42	106.7	136.6	230.3	195.1	167.8	347.2	1498	1140	191.3	161.4	147.8	133.2	113.0	98.86	90.64	78.83	74.16	67.37	65.82	60.21	61.23	60.24	60.55	59.26	60.55	59.69	58.49	59.22	59.08	57.83	52.13	49.20	44.41	39.92	35.63	32.07	28.83	25.80	22.88	20.63	18.34	18.10	20.29	19.76	14.15	10.02	8.483	7.358	6.379	5.633	5.287	4.301	3.594	3.822	5.926	23.01	76.09	170.3	533.7	236.7	20.04	1.517	1.128	1.049	0.983	1.005	0.924	0.917	0.790	0.830	0.812	0.773	0.771	0.760	0.808	0.700
520.0	80.30	99.88	118.6	184.6	216.5	155.4	186.5	856.7	1794	278.3	149.5	134.1	121.5	102.6	91.11	79.70	72.06	65.33	61.22	60.60	53.83	55.36	54.92	54.25	53.78	53.68	52.97	52.84	52.31	53.60	51.50	48.34	43.78	40.03	36.53	32.45	29.27	26.42	24.17	21.13	19.04	16.74	15.61	16.57	18.65	15.83	10.62	8.270	7.337	6.312	5.200	5.006	4.836	3.653	3.282	3.626	7.404	18.85	40.35	207.6	556.7	213.6	11.99	1.331	1.125	0.914	0.953	0.974	0.875	0.798	0.834	0.751	0.714	0.799	0.678	0.679	0.660
525.0	73.58	94.72	106.1	138.0	220.1	150.7	143.1	370.7	1887	773.9	140.9	123.9	110.6	95.87	82.84	73.02	65.04	60.42	55.19	53.87	47.73	49.10	49.89	47.80	48.97	47.33	47.02	46.88	47.85	47.44	44.93	43.69	40.10	36.53	33.38	30.13	27.24	24.77	21.99	19.79	17.72	15.68	14.49	13.95	16.02	16.49	12.46	8.610	6.975	6.115	5.248	4.885	4.614	3.902	3.353	3.089	3.612	6.003	10.62	49.73	267.8	550.5	167.7	4.516	1.051	0.868	0.916	0.890	0.814	0.777	0.768	0.668	0.639	0.746	0.648	0.625	0.714
530.0	68.08	83.34	93.08	108.5	191.3	170.1	122.3	177.5	1013	1663	296.3	109.7	97.77	83.31	74.09	63.78	56.98	52.17	48.95	47.15	41.75	42.17	43.30	41.83	41.78	41.39	41.48	41.50	41.48	41.86	39.14	37.92	34.86	32.22	28.69	26.45	23.71	21.46	19.46	17.86	15.73	14.17	12.64	12.05	12.26	13.92	13.82	9.539	7.113	5.655	5.120	4.537	4.085	3.878	3.461	2.904	2.631	3.189	4.071	12.56	64.36	238.6	407.8	205.1	12.97	1.129	0.914	0.829	0.773	0.716	0.735	0.615	0.607	0.689	0.589	0.622	0.604
535.0	61.00	70.32	78.86	88.43	129.2	193.0	112.5	116.6	334.8	1579	1033	107.6	87.00	73.09	63.35	54.35	51.02	45.73	42.97	40.33	35.39	37.25	36.46	35.21	35.43	35.27	35.04	34.74	35.08	35.34	33.98	31.89	29.46	26.88	24.67	22.99	20.69	19.33	17.41	15.71	14.38	12.71	11.17	10.34	10.24	10.23	12.13	10.95	7.556	5.513	4.803	4.272	3.802	3.636	3.284	2.992	2.465	2.333	2.332	4.218	15.69	54.53	126.2	387.9	225.3	16.53	1.051	0.824	0.694	0.675	0.647	0.605	0.595	0.611	0.530	0.565	0.494
540.0	52.71	66.44	69.92	80.40	95.29	168.9	131.5	95.33	148.1	842.7	1781	178.3	77.20	65.15	57.13	50.46	43.37	40.58	36.84	34.37	31.75	32.23	32.41	30.47	31.10	31.38	30.78	30.90	30.90	31.20	30.36	29.16	26.17	24.36	21.79	20.69	19.08	16.90	15.18	13.98	13.00	11.63	10.24	9.416	9.086	8.241	9.712	10.60	8.373	5.500	4.418	3.915	3.537	3.251	3.124	3.270	2.652	2.199	1.895	2.270	4.760	13.42	29.66	151.7	413.8	186.4	8.432	0.938	0.700	0.645	0.633	0.585	0.598	0.531	0.542	0.553	0.430
545.0	52.05	55.03	60.63	69.47	76.67	130.6	152.3	88.42	96.87	325.7	1877	578.6	71.88	59.04	50.58	44.48	37.97	36.35	32.64	32.06	28.19	29.19	27.67	26.73	28.06	27.86	26.79	27.31	27.15	27.58	26.32	25.81	23.25	21.54	19.76	18.56	16.80	15.04	13.58	12.82	11.71	10.52	9.602	8.764	7.901	7.297	7.388	9.173	8.886	6.208	4.345	3.564	3.328	2.936	2.680	2.846	2.967	2.241	2.017	1.898	2.318	4.078	7.740	36.33	196.3	401.1	124.3	3.156	0.666	0.622	0.546	0.590	0.557	0.469	0.575	0.480	0.461
550.0	45.30	60.77	63.59	60.50	61.67	87.46	152.9	93.59	77.32	129.7	937.8	1478	128.7	51.29	42.48	37.45	32.66	30.75	27.20	27.36	23.93	24.27	23.55	23.14	23.00	22.88	23.13	22.68	22.73	22.88	21.99	20.97	19.64	17.67	16.04	15.47	13.97	12.66	11.70	10.91	9.988	8.935	8.148	7.600	7.010	6.421	6.013	6.426	7.670	6.820	4.572	3.361	3.017	2.713	2.412	2.493	2.685	2.333	2.028	1.647	1.605	1.910	2.704	9.018	47.06	169.6	280.7	131.6	11.70	0.715	0.546	0.566	0.504	0.488	0.484	0.472	0.459
555.0	44.36	56.29	54.25	46.96	52.38	60.72	112.5	120.0	66.20	74.87	279.5	1464	714.4	48.17	35.58	30.31	27.00	24.84	21.82	22.36	19.76	19.15	19.09	18.60	18.39	18.74	18.41	18.64	18.76	18.26	17.68	17.09	15.72	14.70	13.13	12.60	11.11	10.31	9.728	8.815	7.982	7.894	6.876	6.155	5.860	5.666	4.996	4.739	5.192	6.367	5.287	3.541	2.631	2.490	2.202	2.045	2.116	2.272	2.124	1.464	1.308	1.393	1.536	2.893	11.36	38.57	86.47	260.7	192.2	13.84	0.608	0.626	0.523	0.459	0.423	0.427	0.464
560.0	47.35	51.07	52.57	46.08	45.94	47.13	72.94	132.3	66.08	56.48	105.4	775.8	1377	92.21	30.62	26.63	23.34	21.48	18.90	18.90	17.51	15.80	16.20	16.49	15.92	15.76	15.57	15.65	16.38	15.91	14.97	14.17	13.00	12.52	11.13	10.43	9.904	9.067	8.497	7.752	6.999	6.582	6.188	5.293	5.103	4.859	4.359	4.193	3.852	4.815	5.032	4.134	2.392	2.070	1.992	1.993	1.964	1.778	1.988	1.710	1.231	1.229	1.221	1.382	3.277	9.396	20.26	99.14	275.4	135.4	6.304	0.619	0.483	0.483	0.434	0.388	0.419
565.0	38.15	48.75	51.75	44.11	39.50	40.64	51.03	119.4	78.85	49.31	62.19	285.1	1582	353.9	27.46	22.68	20.24	18.28	16.62	15.34	15.18	14.05	14.24	14.38	13.36	13.63	13.05	13.30	13.28	13.05	13.18	12.53	11.00	10.49	9.379	8.936	8.453	7.791	7.448	6.413	6.048	5.589	5.217	4.775	4.358	4.197	3.783	3.531	3.198	3.476	4.239	3.928	2.742	1.948	1.813	1.728	1.660	1.474	1.664	1.817	1.366	1.072	1.093	1.034	1.472	2.752	5.312	23.58	123.7	257.7	33.00	2.518	0.529	0.459	0.380	0.352	0.352
570.0	45.77	49.53	49.25	37.96	33.53	34.99	37.81	78.96	103.1	49.32	45.28	97.35	811.1	1092	70.24	19.27	17.28	15.06	13.77	12.58	11.91	11.80	11.70	11.12	10.94	10.88	10.37	10.90	10.52	10.73	10.89	9.981	9.204	8.600	7.593	7.413	6.820	6.334	5.896	5.486	4.895	4.563	4.196	3.945	3.611	3.509	3.068	2.932	2.707	2.542	2.984	3.574	2.975	2.118	1.695	1.492	1.362	1.343	1.252	1.464	1.574	1.271	0.936	0.932	1.083	1.341	1.871	5.920	29.45	104.1	159.7	91.31	10.00	0.508	0.412	0.385	0.384
575.0	51.23	49.69	46.32	34.82	30.08	27.78	29.15	45.29	104.5	65.33	38.23	49.55	228.5	1141	473.2	17.91	14.60	12.95	11.91	10.71	9.595	9.126	9.639	8.873	8.469	8.281	8.533	9.015	8.210	8.513	8.560	8.014	7.144	6.814	6.508	6.101	5.392	5.102	4.865	4.490	4.101	3.873	3.543	3.277	3.058	2.911	2.604	2.565	2.221	2.081	2.068	2.392	2.943	2.401	1.592	1.361	1.225	1.066	1.103	1.155	1.160	1.375	1.075	0.798	0.856	0.965	1.006	1.940	7.259	23.74	48.71	147.0	119.7	10.29	0.504	0.461	0.332
580.0	42.55	49.02	44.89	30.67	25.97	26.80	27.30	31.47	76.34	86.92	37.58	35.35	75.37	610.9	972.9	39.16	12.12	10.51	9.786	9.017	7.743	8.205	8.024	7.934	7.341	7.277	7.242	7.498	7.499	7.232	7.009	6.518	6.366	5.587	5.286	5.072	4.622	4.168	4.208	3.889	3.487	3.340	2.941	2.764	2.748	2.591	2.385	2.229	1.919	1.746	1.652	1.704	2.189	2.431	1.979	1.335	1.141	1.043	0.914	1.057	1.063	1.284	1.271	0.789	0.857	0.836	0.888	1.074	2.192	5.780	11.51	55.24	163.9	83.95	4.303	0.450	0.374
585.0	43.55	48.69	39.36	30.87	25.29	24.00	24.20	25.57	53.55	101.9	44.17	33.79	39.77	213.9	1134	108.5	11.72	9.768	8.285	8.493	6.938	6.933	6.900	6.684	5.930	6.846	6.165	6.621	6.276	6.565	5.876	5.702	5.637	4.999	4.703	4.389	4.310	3.564	3.753	3.294	3.008	2.862	2.644	2.576	2.337	2.166	2.003	1.868	1.629	1.557	1.473	1.516	1.723	2.115	2.029	1.285	1.120	1.069	0.910	0.815	0.911	1.077	1.290	1.114	0.781	0.767	0.743	0.779	1.077	1.823	3.101	13.33	71.46	148.2	31.35	1.716	0.426
590.0	40.00	45.92	42.78	31.07	22.43	21.76	20.10	24.54	34.24	83.13	66.15	34.56	31.27	68.07	580.0	656.7	34.60	8.177	6.851	6.784	5.783	5.893	5.632	5.609	4.995	5.343	5.156	5.192	5.161	5.475	4.893	4.665	4.287	3.779	3.978	3.658	3.257	2.999	3.019	2.680	2.511	2.218	2.100	2.015	1.899	1.762	1.738	1.581	1.532	1.343	1.236	1.238	1.268	1.523	1.813	1.579	1.090	0.919	0.814	0.734	0.830	0.820	0.953	1.182	0.896	0.719	0.692	0.681	0.772	0.890	1.156	3.419	16.90	57.66	97.67	60.87	8.414
595.0	37.29	41.60	39.28	27.12	20.47	21.30	20.13	21.23	25.13	50.46	83.56	38.51	27.80	31.77	156.0	742.7	245.0	7.834	6.026	5.131	4.858	5.208	4.764	4.461	4.215	4.432	4.204	4.351	3.954	4.438	3.796	3.790	3.502	3.394	3.000	2.795	2.621	2.422	2.239	2.077	1.894	1.882	1.634	1.619	1.589	1.580	1.392	1.193	1.235	1.072	1.010	0.982	1.017	1.049	1.306	1.516	1.321	0.885	0.588	0.654	0.744	0.587	0.654	0.790	1.054	0.856	0.593	0.580	0.633	0.657	0.665	1.106	4.188	13.23	28.38	85.30	78.50
600.0	41.32	46.48	35.42	26.68	21.83	18.72	21.06	18.94	23.50	34.91	82.98	47.49	28.19	23.63	47.64	408.8	562.4	17.83	5.518	4.632	4.446	4.160	3.787	4.029	3.730	3.691	3.667	3.194	3.587	3.733	3.637	3.300	3.140	2.884	2.508	2.611	2.354	2.129	1.992	1.854	1.725	1.716	1.445	1.471	1.256	1.377	1.335	1.110	1.090	0.967	0.894	0.908	0.806	0.800	0.981	1.211	1.283	0.939	0.678	0.669	0.616	0.511	0.665	0.595	0.880	1.042	0.748	0.495	0.522	0.604	0.558	0.606	1.295	3.306	6.726	30.03	97.06
605.0	40.46	39.34	33.75	27.39	21.78	18.61	21.45	20.63	22.31	28.64	68.76	65.47	28.55	22.15	21.35	139.5	694.7	73.86	5.056	4.152	4.112	3.493	3.275	3.333	3.318	2.942	3.078	2.885	2.951	3.067	2.947	2.880	2.466	2.715	2.335	2.223	2.133	1.833	1.744	1.618	1.583	1.433	1.389	1.342	1.257	1.279	1.182	0.981	0.948	0.885	0.765	0.814	0.811	0.675	0.747	0.929	1.224	1.132	0.709	0.610	0.551	0.616	0.672	0.528	0.638	0.836	0.943	0.535	0.586	0.483	0.465	0.568	0.678	1.022	1.766	7.105	38.94
610.0	37.30	36.92	33.33	25.02	20.61	17.38	18.28	19.73	22.03	27.89	47.37	74.09	36.23	22.01	16.57	41.35	377.0	413.5	20.69	3.643	3.454	2.992	2.851	2.849	2.847	2.556	2.556	2.554	2.634	2.633	2.571	2.347	2.074	2.258	1.999	1.825	1.845	1.632	1.443	1.407	1.291	1.232	1.130	1.165	0.977	1.085	0.957	0.824	0.771	0.715	0.695	0.700	0.680	0.613	0.613	0.677	0.937	1.029	0.887	0.593	0.538	0.543	0.610	0.521	0.559	0.659	0.786	0.672	0.565	0.496	0.484	0.467	0.441	0.567	0.691	1.899	9.215
615.0	36.17	33.65	32.00	22.86	18.48	15.27	16.89	18.31	22.80	25.88	34.14	61.92	51.90	22.85	16.07	17.18	102.5	500.5	158.2	3.465	3.035	2.738	2.392	2.273	2.408	2.148	2.061	1.830	1.911	2.199	2.091	1.901	1.723	1.899	1.839	1.620	1.518	1.353	1.226	1.100	0.972	1.053	0.985	0.957	0.887	0.912	0.779	0.759	0.679	0.581	0.645	0.647	0.588	0.525	0.491	0.544	0.638	0.872	0.777	0.666	0.560	0.480	0.531	0.479	0.494	0.552	0.544	0.701	0.804	0.587	0.450	0.461	0.404	0.437	0.407	0.717	2.341
620.0	32.07	35.27	33.36	22.87	17.16	15.38	17.38	19.29	20.98	24.26	29.27	46.96	60.35	25.31	15.50	12.21	30.08	292.0	355.1	7.871	2.670	2.330	2.136	1.915	1.879	1.996	1.732	1.818	1.859	1.640	1.853	1.685	1.417	1.450	1.536	1.404	1.394	1.253	1.138	1.023	0.949	0.890	0.784	0.786	0.837	0.800	0.679	0.635	0.630	0.546	0.551	0.557	0.450	0.436	0.394	0.444	0.493	0.665	0.801	0.738	0.578	0.458	0.465	0.447	0.481	0.477	0.537	0.601	0.751	0.669	0.442	0.420	0.479	0.379	0.360	0.409	0.842
625.0	33.28	36.87	33.11	22.01	16.87	14.37	16.43	19.33	19.66	24.27	28.78	35.89	61.21	30.56	15.51	10.59	12.77	102.2	429.5	43.47	2.533	2.039	2.034	1.798	1.743	1.696	1.538	1.618	1.756	1.523	1.480	1.412	1.321	1.364	1.207	1.412	1.040	1.094	1.032	0.937	0.930	0.795	0.719	0.751	0.710	0.700	0.646	0.627	0.671	0.453	0.418	0.509	0.397	0.404	0.418	0.455	0.449	0.522	0.611	0.737	0.586	0.552	0.451	0.484	0.450	0.536	0.469	0.529	0.637	0.663	0.483	0.397	0.432	0.351	0.347	0.334	0.434
630.0	31.62	31.10	28.91	22.08	17.24	14.57	14.91	17.27	19.50	23.74	26.86	30.50	47.65	42.53	16.46	10.48	8.472	28.36	238.9	245.8	8.238	1.793	1.658	1.580	1.449	1.439	1.345	1.478	1.425	1.346	1.264	1.201	1.089	1.065	0.978	1.095	0.975	0.953	0.909	0.827	0.713	0.718	0.680	0.653	0.639	0.584	0.535	0.512	0.532	0.413	0.398	0.413	0.414	0.360	0.409	0.409	0.396	0.424	0.471	0.578	0.584	0.477	0.420	0.387	0.421	0.465	0.449	0.427	0.485	0.567	0.584	0.530	0.467	0.382	0.318	0.320	0.379
635.0	33.77	28.93	26.86	20.25	14.96	13.55	15.58	16.89	19.01	24.00	25.40	25.37	34.43	46.94	20.86	10.09	7.427	10.44	64.83	349.2	59.29	1.909	1.454	1.530	1.518	1.271	1.247	1.192	1.099	1.241	1.111	1.011	1.061	0.980	1.005	1.007	0.910	0.808	0.847	0.719	0.632	0.621	0.558	0.548	0.588	0.457	0.492	0.414	0.451	0.349	0.396	0.387	0.364	0.318	0.376	0.342	0.362	0.395	0.393	0.474	0.524	0.493	0.386	0.352	0.379	0.402	0.360	0.406	0.424	0.400	0.508	0.630	0.521	0.360	0.289	0.328	0.258
640.0	35.50	32.58	29.08	20.57	13.39	12.45	14.51	16.00	18.74	21.27	23.89	25.78	27.57	40.16	29.37	10.08	7.421	6.890	18.13	233.2	217.4	4.389	1.470	1.502	1.211	1.217	1.154	1.120	0.894	1.050	0.960	1.025	0.828	0.932	0.936	1.026	0.916	0.824	0.643	0.564	0.517	0.566	0.500	0.474	0.535	0.369	0.480	0.335	0.349	0.323	0.316	0.354	0.327	0.327	0.374	0.344	0.321	0.323	0.379	0.421	0.400	0.489	0.498	0.398	0.421	0.412	0.346	0.458	0.439	0.410	0.431	0.551	0.550	0.359	0.348	0.296	0.287
645.0	28.28	35.03	29.37	19.68	11.94	12.88	15.02	14.23	17.12	20.96	23.51	25.45	26.37	32.97	35.80	12.10	7.686	6.335	6.665	88.79	324.8	29.30	1.492	1.298	1.130	1.176	1.084	1.025	0.990	1.054	0.988	0.931	0.899	1.013	1.047	0.893	0.834	0.816	0.599	0.610	0.523	0.486	0.499	0.446	0.447	0.345	0.385	0.358	0.367	0.343	0.337	0.319	0.329	0.297	0.336	0.321	0.328	0.334	0.392	0.364	0.341	0.454	0.433	0.398	0.385	0.351	0.292	0.380	0.391	0.421	0.362	0.440	0.577	0.405	0.373	0.274	0.300
650.0	34.85	33.12	31.18	18.18	13.32	12.10	15.09	15.42	16.95	19.42	22.96	25.80	25.28	26.12	35.97	15.47	8.042	6.373	4.646	25.22	273.9	122.4	1.787	1.182	1.166	0.987	0.903	1.077	0.927	1.037	0.922	0.910	0.984	1.076	1.019	0.999	0.922	0.922	0.744	0.558	0.504	0.472	0.427	0.410	0.397	0.383	0.378	0.369	0.334	0.335	0.308	0.326	0.352	0.311	0.376	0.320	0.311	0.303	0.352	0.414	0.353	0.433	0.435	0.406	0.356	0.337	0.345	0.339	0.342	0.331	0.353	0.384	0.485	0.562	0.398	0.323	0.318
