Sample:	'1
File name:	w2025090910Î÷°Ù³ßºÓÇÅ.FD3
Run date:	'14:07:03, 09/11/2025
Operator:	Administrator
Comment:	'

Instrument
Model:	F-2700 FL Spectrophotometer
Serial number:	23C7-004
ROM Version:	4J14000 07

Instrument parameters
Measurement type:	3-D scan
Data mode:	Fluorescence
EX  Start WL:	220.0 nm
EX  End WL:	600.0 nm
EX Sampling interval:	5.0 nm
EM  Start WL:	230.0 nm
EM  End WL:	650.0 nm
EM Sampling interval:	5.0 nm
Scan speed:	12000 nm/min
EX Slit:	5.0 nm
EM Slit:	5.0 nm
PMT Voltage:	700 V
Response:	Auto 
Corrected spectra:	Off
Contour interval:	50.000

Peak integration
Integration method:	Rectangular
Sensitivity:	1
Threshold:	1.000

Peaks
No.	ApexEX/EM(nm)	Height(Data)
1	230.0/340.0	5844
2	250.0/445.0	1746
3	255.0/285.0	435.6
4	260.0/290.0	501.0
5	265.0/585.0	119.8
6	275.0/615.0	194.9
7	280.0/330.0	4529
8	280.0/625.0	196.6
9	285.0/640.0	182.7
10	460.0/345.0	14.91
11	475.0/345.0	15.13
12	510.0/280.0	2.507
13	515.0/285.0	2.787
14	570.0/330.0	21.58
15	580.0/325.0	21.04

Data points
	220.0	225.0	230.0	235.0	240.0	245.0	250.0	255.0	260.0	265.0	270.0	275.0	280.0	285.0	290.0	295.0	300.0	305.0	310.0	315.0	320.0	325.0	330.0	335.0	340.0	345.0	350.0	355.0	360.0	365.0	370.0	375.0	380.0	385.0	390.0	395.0	400.0	405.0	410.0	415.0	420.0	425.0	430.0	435.0	440.0	445.0	450.0	455.0	460.0	465.0	470.0	475.0	480.0	485.0	490.0	495.0	500.0	505.0	510.0	515.0	520.0	525.0	530.0	535.0	540.0	545.0	550.0	555.0	560.0	565.0	570.0	575.0	580.0	585.0	590.0	595.0	600.0
230.0	232.6	3420	3802	433.4	12.40	5.978	5.538	4.087	4.565	4.057	4.167	4.371	4.101	3.535	3.226	2.832	2.566	2.132	1.940	1.852	1.542	1.430	1.435	1.181	1.212	0.957	0.961	0.830	0.860	0.734	0.794	0.677	0.642	0.572	0.484	0.476	0.412	0.360	0.397	0.367	0.455	0.574	0.467	0.318	0.261	0.522	4.209	13.31	16.04	7.185	1.586	0.354	0.214	0.196	0.170	0.184	0.186	0.169	0.165	0.161	0.155	0.154	0.181	0.172	0.155	0.146	0.161	0.165	0.153	0.157	0.158	0.134	0.160	0.136	0.130	0.143	0.186
235.0	122.5	973.1	3587	3828	427.9	15.72	6.214	5.474	4.553	4.319	4.486	4.505	4.625	4.077	3.587	3.049	2.667	2.111	1.889	1.859	1.534	1.465	1.302	1.290	1.137	0.994	1.022	0.894	0.831	0.748	0.736	0.744	0.641	0.557	0.483	0.523	0.428	0.388	0.355	0.411	0.340	0.442	0.515	0.574	0.443	0.353	1.160	3.649	8.348	12.05	14.18	11.30	3.216	0.563	0.205	0.224	0.214	0.199	0.174	0.176	0.137	0.161	0.136	0.138	0.192	0.189	0.166	0.129	0.135	0.181	0.175	0.239	0.136	0.218	0.152	0.158	0.123
240.0	167.1	267.5	1258	4658	3606	326.1	10.93	7.449	5.944	5.157	5.252	4.497	4.742	4.627	3.722	3.519	2.638	2.399	2.131	1.898	1.799	1.572	1.538	1.257	1.177	1.195	0.996	0.831	0.865	0.830	0.737	0.621	0.530	0.570	0.466	0.553	0.499	0.419	0.386	0.366	0.264	0.346	0.322	0.450	0.608	0.503	0.514	1.058	2.184	4.267	10.51	22.01	20.37	10.53	2.084	0.358	0.227	0.163	0.194	0.221	0.175	0.145	0.152	0.211	0.193	0.233	0.169	0.131	0.177	0.196	0.156	0.167	0.161	0.144	0.195	0.180	0.226
245.0	155.9	197.7	321.7	1951	5704	3076	225.4	10.95	7.397	7.144	6.879	5.580	5.347	4.678	3.979	3.593	2.930	2.427	2.195	2.176	1.857	1.747	1.453	1.284	1.108	1.238	1.112	0.912	0.927	0.825	0.749	0.708	0.643	0.509	0.583	0.535	0.553	0.353	0.386	0.360	0.327	0.317	0.350	0.348	0.420	0.691	0.639	0.736	0.791	1.207	2.803	9.136	19.72	26.13	19.74	8.249	1.133	0.181	0.234	0.184	0.205	0.189	0.131	0.203	0.162	0.174	0.145	0.187	0.168	0.234	0.176	0.175	0.179	0.111	0.145	0.204	0.217
250.0	66.21	167.2	214.7	493.0	2176	5256	5095	1019	44.55	8.948	8.664	7.089	5.820	5.166	4.405	3.933	3.163	2.836	2.379	2.226	1.891	1.628	1.472	1.440	1.346	1.259	1.056	1.031	1.017	0.859	0.853	0.771	0.717	0.566	0.475	0.537	0.418	0.444	0.378	0.352	0.325	0.313	0.300	0.283	0.322	0.402	0.527	0.689	0.760	0.773	0.873	2.244	5.225	10.72	18.35	22.99	28.23	15.86	8.185	1.676	0.275	0.200	0.200	0.239	0.181	0.212	0.163	0.227	0.186	0.203	0.178	0.163	0.171	0.124	0.161	0.173	0.173
255.0	33.52	61.49	184.7	287.8	528.0	1415	6038	9003	1450	34.67	11.83	9.331	6.716	6.136	5.105	3.993	3.385	3.236	2.720	2.337	2.098	1.829	1.467	1.675	1.447	1.293	1.143	1.192	1.090	0.883	1.009	0.790	0.730	0.585	0.484	0.498	0.393	0.394	0.484	0.393	0.332	0.337	0.350	0.318	0.295	0.319	0.351	0.353	0.575	0.787	0.974	1.148	1.401	2.596	4.385	6.019	15.55	35.62	53.63	25.55	11.33	1.478	0.258	0.269	0.214	0.169	0.172	0.224	0.144	0.156	0.153	0.176	0.159	0.146	0.171	0.174	0.256
260.0	24.78	34.17	82.26	260.1	258.9	348.4	1972	9704	9498	234.7	20.14	11.54	8.937	6.875	6.221	4.898	3.981	3.129	3.031	2.049	2.153	1.958	1.854	1.652	1.431	1.222	1.199	1.164	1.018	0.988	0.960	0.917	0.722	0.599	0.570	0.457	0.392	0.401	0.380	0.335	0.349	0.366	0.346	0.323	0.328	0.292	0.278	0.280	0.390	0.442	0.735	1.288	1.079	0.954	1.210	1.564	3.834	10.74	31.08	57.94	66.04	23.19	6.966	0.454	0.219	0.251	0.296	0.223	0.217	0.158	0.212	0.244	0.137	0.123	0.158	0.165	0.322
265.0	29.27	29.01	37.37	137.1	285.8	171.4	476.8	3626	9999.9	8944	185.1	17.12	11.86	8.552	6.414	5.308	4.628	3.664	3.083	2.470	2.352	1.979	1.994	1.724	1.509	1.430	1.306	1.130	1.194	0.916	1.065	0.984	0.663	0.634	0.535	0.580	0.516	0.438	0.400	0.399	0.385	0.308	0.323	0.351	0.367	0.323	0.350	0.228	0.323	0.262	0.413	0.842	1.294	1.375	0.872	0.655	1.095	2.688	7.749	20.96	53.04	80.19	29.58	18.18	2.600	0.301	0.264	0.229	0.280	0.183	0.253	0.220	0.212	0.168	0.186	0.195	0.238
270.0	49.32	36.90	28.43	53.78	158.3	272.5	232.9	863.8	3824	9999.9	9999.9	769.2	48.80	13.41	9.086	7.288	5.598	4.280	3.372	3.155	2.731	2.248	2.084	1.665	1.832	1.539	1.413	1.324	1.218	1.167	1.117	0.938	0.813	0.618	0.647	0.564	0.536	0.528	0.498	0.494	0.449	0.328	0.387	0.396	0.440	0.327	0.322	0.309	0.346	0.239	0.297	0.377	0.563	0.958	1.250	1.296	1.093	1.101	2.027	4.966	13.20	28.42	43.48	71.62	60.72	53.68	11.45	3.138	0.404	0.261	0.281	0.257	0.246	0.197	0.216	0.208	0.240
275.0	110.6	86.84	57.00	45.88	57.71	156.3	375.2	330.1	900.3	2608	9999.9	9999.9	1136	50.93	13.83	9.642	7.171	5.258	4.658	3.903	3.239	2.646	2.611	2.159	1.944	1.806	1.420	1.428	1.298	1.176	1.091	1.008	0.938	0.774	0.679	0.651	0.556	0.623	0.571	0.566	0.511	0.561	0.497	0.502	0.575	0.441	0.392	0.394	0.390	0.334	0.321	0.303	0.322	0.424	0.636	0.976	1.753	1.967	1.388	1.485	3.285	6.720	10.10	17.67	30.10	81.95	120.0	30.24	16.87	2.290	0.388	0.353	0.292	0.271	0.261	0.204	0.274
280.0	192.0	158.4	98.44	59.76	50.82	72.54	281.4	374.8	302.1	657.4	3076	9999.9	9999.9	825.4	25.87	13.73	8.775	6.918	4.934	4.374	3.504	2.835	2.668	2.302	1.835	1.992	1.547	1.578	1.401	1.543	1.140	1.023	0.945	0.854	0.822	0.922	0.816	0.834	0.684	0.748	0.656	0.695	0.701	0.604	0.728	0.730	0.642	0.640	0.558	0.412	0.333	0.451	0.359	0.375	0.377	0.533	0.927	1.867	2.507	1.845	1.386	2.035	2.737	4.587	7.376	22.50	61.04	111.9	132.8	27.84	10.16	0.856	0.325	0.319	0.310	0.234	0.237
285.0	306.8	246.6	167.5	94.31	62.32	56.88	140.5	435.6	316.3	262.4	817.1	4203	9999.9	8219	111.9	19.30	12.03	8.675	6.663	5.105	3.924	3.004	2.936	2.433	2.335	1.874	1.865	1.561	1.460	1.637	1.258	1.175	1.065	0.932	1.035	0.939	1.071	0.957	0.842	0.886	0.685	0.816	0.797	0.771	0.856	0.880	0.910	0.848	0.733	0.547	0.392	0.562	0.391	0.381	0.404	0.453	0.526	0.894	1.852	2.787	2.486	1.483	1.248	1.547	2.314	5.712	14.88	36.24	94.21	145.2	123.4	22.38	4.032	0.493	0.315	0.405	0.292
290.0	452.9	405.6	302.9	184.9	108.9	94.04	125.8	261.3	501.0	464.7	443.9	1194	4332	9999.9	9999.9	2253	38.76	13.49	8.734	6.593	5.087	3.783	3.474	2.904	2.659	2.357	1.870	1.779	1.623	1.529	1.368	1.293	1.176	1.022	1.016	1.144	1.255	1.317	1.124	1.147	0.920	1.065	1.033	1.052	1.087	1.098	1.065	1.122	1.157	0.885	0.710	0.758	0.626	0.585	0.552	0.627	0.666	0.689	1.091	1.636	2.185	2.903	2.845	2.107	1.712	2.418	4.536	9.315	23.26	46.69	83.85	111.3	87.09	82.80	13.96	5.106	0.510
295.0	653.5	645.8	494.5	318.2	209.8	181.7	213.5	269.0	407.8	777.1	801.2	748.7	1396	2752	9999.9	9999.9	655.1	45.25	14.96	8.875	6.525	4.803	3.971	3.537	2.864	2.829	2.192	2.038	1.755	1.608	1.489	1.412	1.198	1.058	1.355	1.367	1.573	1.444	1.354	1.300	1.112	1.260	1.365	1.402	1.458	1.598	1.582	1.714	1.476	1.193	1.092	1.188	0.885	0.818	0.869	0.948	1.004	0.942	1.147	1.458	1.552	2.193	3.247	4.553	4.240	3.169	3.087	4.378	7.419	12.28	20.55	27.40	37.99	108.3	166.8	129.9	22.61
300.0	896.7	904.2	737.0	489.7	344.3	314.0	358.5	365.1	540.2	851.0	1360	1142	1112	1258	3175	9999.9	9999.9	543.6	34.67	12.93	8.657	5.923	4.940	4.008	3.143	3.021	2.734	2.334	2.041	1.770	1.638	1.439	1.351	1.130	1.234	1.393	1.552	1.813	1.698	1.677	1.559	1.628	1.702	1.641	1.839	2.118	2.107	2.199	2.249	1.812	1.683	1.623	1.323	1.291	1.373	1.381	1.601	1.699	1.856	1.990	2.196	2.614	3.336	4.220	6.099	6.053	5.225	5.002	5.529	6.420	7.937	9.316	11.35	29.31	73.28	157.6	182.1
305.0	1278	1395	1072	753.7	566.2	499.9	674.6	792.1	1006	1376	1897	2339	1939	1645	1565	4238	9999.9	9999.9	400.6	21.55	11.60	7.777	5.777	4.660	3.827	3.686	3.195	2.610	2.307	2.212	1.820	1.667	1.500	1.225	1.368	1.762	2.026	2.310	2.189	2.081	2.196	2.135	2.298	2.307	2.529	2.958	3.009	3.604	3.444	2.647	2.311	2.737	2.161	2.253	2.050	2.306	2.675	3.146	3.327	3.445	4.145	4.665	5.513	6.615	7.658	9.274	10.54	9.992	9.419	8.928	8.903	8.667	8.647	12.11	21.03	47.98	110.9
310.0	1800	2027	1741	1230	948.9	902.0	1110	1292	1507	1998	2562	3252	3329	2673	2173	2213	4648	9999.9	9999.9	1782	30.86	12.26	8.226	5.910	4.789	4.212	3.274	2.849	2.733	2.314	1.980	1.782	1.557	1.410	1.539	1.859	2.254	2.616	2.735	2.698	2.557	2.678	2.906	3.105	3.545	4.227	4.428	5.076	5.049	3.922	3.447	3.831	3.561	3.512	3.492	3.709	4.386	5.112	5.323	5.559	5.966	6.787	8.133	9.360	10.23	11.81	13.32	15.09	15.67	15.27	13.72	12.38	12.16	11.87	12.65	17.56	31.95
315.0	2377	2770	2413	1670	1278	1225	1468	1645	1819	2336	2992	3678	4055	3773	2867	2115	2313	3042	9806	9999.9	2745	34.82	12.92	8.653	6.148	5.330	3.764	3.131	3.073	2.623	2.095	2.249	1.626	1.627	1.740	1.883	2.422	2.653	3.038	2.833	2.899	3.152	3.383	3.679	4.546	5.344	6.131	7.058	6.614	5.378	4.783	5.239	4.760	4.565	4.570	4.836	5.716	6.499	6.678	6.898	7.620	7.807	9.704	10.83	11.86	13.23	14.69	16.51	17.68	19.29	19.68	17.91	16.37	14.51	12.58	12.50	14.51
320.0	2819	3335	2890	2001	1489	1425	1669	1843	1985	2534	3276	4002	4361	4293	3474	2343	1948	1484	2722	9999.9	9999.9	418.3	24.39	11.55	7.940	5.652	4.363	3.439	3.286	2.764	2.505	2.186	1.968	1.688	1.729	2.079	2.591	2.784	3.127	3.435	3.448	3.582	3.694	4.431	4.924	6.675	6.944	8.435	7.991	6.431	5.486	6.338	5.404	5.188	5.181	5.592	6.269	7.044	7.725	7.969	7.768	8.708	10.15	12.18	13.10	14.13	16.17	17.79	19.26	20.11	20.85	20.67	19.73	16.74	13.75	12.06	12.34
325.0	3235	3941	3447	2397	1681	1535	1760	1943	2077	2610	3389	4125	4493	4351	3869	2611	1947	1212	932.0	3153	9999.9	9999.9	335.9	17.51	10.12	7.169	5.275	3.967	3.626	3.014	2.734	2.562	2.050	1.818	1.656	2.046	2.631	2.971	3.418	3.594	3.721	3.823	4.419	4.970	5.936	7.439	8.160	9.865	9.742	7.821	6.900	7.231	5.941	5.743	5.570	5.831	6.740	7.432	8.144	8.246	8.023	9.402	10.92	12.31	13.36	14.83	16.51	18.15	19.86	20.61	20.94	20.71	21.04	19.21	15.96	13.08	12.47
330.0	3850	4829	4604	3440	2352	1799	1803	2008	2115	2619	3395	4143	4529	4377	3848	2959	2143	1264	672.2	974.4	3252	9999.9	9999.9	1514	27.43	11.32	7.204	4.951	4.343	3.692	3.190	2.744	2.066	2.104	1.909	2.091	2.610	3.140	3.466	3.645	4.032	4.319	5.183	5.882	7.012	8.943	9.971	12.10	12.09	10.63	9.513	10.30	8.165	7.818	6.662	6.483	6.960	7.579	8.256	8.645	8.440	9.309	10.69	11.86	13.53	15.03	16.95	18.76	19.48	21.15	21.58	20.82	20.93	19.35	17.44	15.66	14.01
335.0	4271	5444	5520	4469	3257	2200	1907	2050	2131	2607	3360	4079	4491	4403	3851	3004	2481	1528	817.0	649.2	1037	2534	7709	9999.9	2505	31.29	10.94	7.366	5.730	4.276	3.588	2.985	2.521	2.159	2.072	2.229	2.669	3.470	3.675	3.948	4.370	4.888	5.489	6.448	7.648	10.05	11.13	13.88	13.98	12.89	12.48	14.08	11.43	10.68	8.479	7.041	7.538	7.949	8.231	8.651	8.315	9.533	10.77	11.99	13.48	14.99	16.57	18.38	19.54	20.88	21.34	20.35	20.78	19.87	17.16	16.26	15.25
340.0	4327	5543	5844	4828	3560	2331	1908	2020	2103	2549	3241	3910	4298	4229	3734	2932	2433	1736	957.9	646.7	606.2	858.1	2133	9999.9	9999.9	362.9	21.81	9.795	6.916	5.269	4.024	3.251	2.763	2.331	2.345	2.460	2.797	3.209	3.536	3.980	4.405	4.713	5.558	6.692	7.800	9.924	11.32	13.80	14.63	13.99	13.26	15.13	12.73	11.79	9.267	7.332	7.530	8.141	8.403	8.585	8.187	9.486	10.43	11.70	13.05	14.68	15.74	17.07	19.09	19.88	20.57	20.22	20.01	19.03	16.65	15.38	14.89
345.0	4146	5426	5785	4857	3570	2321	1833	1937	2006	2420	3039	3623	3996	3963	3531	2795	2244	1757	1130	710.9	560.8	527.9	718.4	2950	9999.9	9999.9	307.5	13.94	8.580	6.109	4.428	3.505	2.905	2.476	2.420	2.520	2.912	3.214	3.329	3.763	4.060	4.736	5.466	6.268	7.730	9.507	10.92	14.35	14.91	13.92	13.33	15.13	12.79	11.62	9.226	7.498	7.501	7.396	7.855	7.915	8.348	9.056	9.852	10.61	12.14	13.32	14.64	15.72	17.63	18.77	18.97	19.18	18.53	17.97	16.45	14.64	13.86
350.0	3901	5007	5407	4746	3652	2345	1791	1816	1895	2239	2755	3264	3576	3573	3232	2621	2126	1652	1288	938.6	672.4	551.7	491.2	871.9	3010	9999.9	9999.9	1355	23.65	8.968	6.222	4.225	3.438	2.887	2.528	2.503	2.890	3.167	3.379	3.585	3.997	4.544	5.277	6.029	7.185	8.837	10.25	12.81	13.70	13.02	12.97	14.83	13.05	12.04	9.565	7.596	7.016	7.028	7.380	7.673	7.921	8.400	9.153	10.11	11.15	11.90	13.20	14.43	15.72	16.64	17.19	17.24	17.01	16.68	15.05	13.88	13.47
355.0	3498	4515	4884	4414	3531	2349	1746	1756	1801	2095	2503	2919	3174	3193	2935	2458	2040	1624	1282	1141	891.1	664.1	536.8	493.8	850.9	2390	6516	9999.9	2294	28.42	9.182	5.995	4.218	3.392	2.839	2.620	2.934	3.116	3.224	3.357	3.902	4.237	4.841	5.568	6.481	7.999	9.139	11.73	12.10	11.71	11.54	13.93	12.80	12.01	9.364	7.215	7.147	6.610	7.055	7.193	7.114	8.020	8.601	9.465	9.915	11.07	11.91	12.82	13.88	14.68	15.25	15.11	15.44	15.19	13.73	13.16	12.76
360.0	3175	4063	4467	4043	3297	2233	1711	1694	1745	1971	2329	2663	2872	2900	2686	2317	1973	1617	1297	1156	1071	805.8	613.3	470.7	423.6	685.4	1721	8892	9999.9	340.8	19.60	7.967	5.639	3.931	2.956	2.974	2.826	3.196	3.183	3.355	3.749	3.817	4.551	5.158	5.954	7.421	8.325	10.63	10.87	10.44	10.60	12.98	11.58	11.06	9.318	7.014	6.796	6.689	6.869	7.058	7.043	7.367	8.041	8.937	9.228	9.854	11.18	11.73	12.71	13.35	13.69	14.01	14.32	13.56	13.43	12.40	11.94
365.0	2872	3662	3993	3744	3058	2190	1673	1655	1693	1897	2173	2477	2645	2679	2506	2200	1905	1611	1347	1177	1124	976.9	717.4	528.6	388.2	357.7	522.2	2543	9999.9	9999.9	287.9	12.80	7.271	4.570	3.434	3.072	3.222	3.267	3.266	3.456	3.614	3.804	4.281	4.781	5.477	6.796	7.665	9.763	10.10	9.519	9.930	11.80	10.86	10.51	8.488	6.907	7.235	6.767	6.737	6.888	6.922	7.152	7.629	8.526	8.750	9.490	10.10	10.76	11.50	12.47	12.94	12.97	13.23	12.97	12.85	11.79	11.26
370.0	2585	3207	3509	3351	2876	2109	1666	1617	1646	1815	2038	2270	2412	2435	2311	2061	1851	1623	1420	1257	1152	1095	929.4	669.3	478.0	367.5	319.5	705.5	2903	9314	9999.9	1232	21.22	7.356	4.875	3.624	3.552	3.280	3.307	3.391	3.622	3.686	4.069	4.487	5.306	6.023	6.942	8.559	9.085	8.509	8.759	10.67	10.07	9.767	7.926	6.834	6.890	6.520	6.573	6.686	7.117	7.156	7.463	8.070	8.234	8.868	9.357	9.831	10.47	11.19	11.83	11.52	12.36	11.84	11.56	11.75	11.08
375.0	2320	2823	3062	3015	2655	2026	1667	1600	1620	1726	1929	2091	2220	2238	2127	1953	1794	1631	1478	1346	1234	1141	1070	883.5	619.4	465.8	358.9	370.4	790.7	2222	6118	9999.9	2003	24.47	7.418	4.788	4.233	3.606	3.460	3.393	3.626	3.658	3.902	4.099	4.720	5.470	6.143	7.491	8.196	7.618	8.140	9.566	9.239	8.991	7.748	6.678	6.682	6.283	6.673	6.785	6.923	6.991	7.174	7.544	7.738	8.379	9.043	9.543	9.654	10.23	10.45	11.05	10.99	11.07	11.20	10.90	10.95
380.0	2156	2597	2792	2725	2505	1970	1656	1596	1599	1690	1860	1995	2114	2120	2015	1878	1748	1623	1505	1402	1289	1191	1095	1007	757.8	558.4	431.9	351.5	368.7	633.0	1632	8200	9999.9	289.3	15.48	6.524	4.991	4.113	3.539	3.372	3.541	3.605	3.537	4.134	4.341	5.065	5.727	6.851	7.016	6.914	7.342	8.917	8.724	8.356	7.613	6.523	6.541	6.450	6.507	6.715	6.815	6.789	7.265	7.363	7.390	8.090	8.453	8.909	9.314	9.891	10.29	10.26	10.38	10.62	10.42	10.06	10.61
385.0	2048	2401	2638	2559	2378	1937	1648	1592	1596	1667	1811	1915	2017	2023	1916	1804	1711	1608	1515	1437	1327	1238	1127	1042	895.3	657.7	508.1	400.1	320.0	318.0	501.8	2394	9884	8977	227.8	9.665	6.145	4.715	3.774	3.601	3.710	3.624	3.638	3.960	4.271	4.810	5.364	6.255	6.519	6.268	6.851	8.165	8.126	8.131	7.063	6.176	6.551	6.513	6.201	6.584	6.718	6.515	6.967	6.939	7.433	7.966	8.128	8.397	8.799	9.532	9.893	10.37	10.18	9.866	9.864	9.576	10.89
390.0	1948	2240	2407	2372	2227	1886	1648	1600	1573	1645	1756	1838	1902	1902	1826	1738	1658	1588	1519	1457	1372	1284	1183	1060	957.3	809.9	617.5	481.0	371.4	298.2	284.2	656.2	2750	7300	7982	976.4	16.99	6.594	4.860	4.200	3.813	3.566	3.739	3.898	4.233	4.704	4.978	5.914	6.325	5.701	6.168	7.692	7.539	7.568	6.941	6.513	6.678	6.337	6.451	6.563	6.617	6.805	6.863	7.234	7.313	7.319	7.697	7.782	8.581	8.993	9.184	9.415	9.713	9.541	9.541	9.505	10.40
395.0	1818	2091	2264	2199	2093	1850	1665	1597	1589	1626	1734	1785	1817	1819	1757	1670	1612	1556	1513	1464	1393	1330	1235	1114	994.0	898.0	774.5	588.4	458.2	361.3	290.8	307.2	713.0	1727	4706	9422	1633	20.43	7.013	5.080	4.182	3.944	3.939	3.813	4.300	4.544	4.728	5.402	5.863	5.461	5.786	7.173	7.167	7.326	6.687	6.812	6.685	6.444	6.418	6.598	6.504	6.747	6.822	6.975	7.528	7.283	7.562	7.689	7.884	8.712	8.943	8.881	9.243	8.736	9.320	9.522	10.03
400.0	1755	1967	2134	2083	2009	1811	1664	1601	1573	1640	1712	1760	1799	1773	1705	1635	1572	1537	1505	1457	1407	1348	1275	1162	1045	930.7	866.1	706.8	537.7	429.6	340.8	272.7	291.6	470.1	1237	6369	8401	245.7	14.36	6.260	4.825	4.494	4.206	4.239	4.138	4.803	4.785	5.227	5.811	5.200	5.513	6.936	7.011	7.013	6.806	6.650	6.313	6.422	6.698	6.532	6.736	6.569	6.751	7.126	7.316	7.356	7.308	7.346	7.994	8.499	8.381	8.495	8.905	8.632	8.837	8.930	9.513
405.0	1685	1930	2038	1999	1945	1810	1676	1607	1609	1640	1722	1765	1781	1754	1688	1602	1546	1506	1484	1446	1405	1361	1293	1202	1090	976.5	896.4	809.7	631.9	497.3	401.3	304.2	229.2	214.9	353.8	1801	7249	6529	198.7	9.162	5.750	4.880	4.198	4.231	4.251	4.449	4.586	5.156	5.235	5.352	5.280	6.495	6.554	6.863	6.288	6.343	6.662	6.867	6.606	6.877	6.565	6.790	6.794	6.899	7.023	7.255	7.298	7.117	7.625	8.351	8.236	8.199	8.770	8.389	8.769	8.513	9.125
410.0	1642	1833	1947	1928	1870	1763	1664	1627	1603	1643	1712	1739	1732	1713	1626	1549	1494	1458	1434	1410	1384	1349	1296	1223	1127	1020	925.8	849.4	747.1	589.2	465.9	357.3	258.7	194.2	184.0	479.4	2013	5300	5830	899.4	15.62	5.967	4.873	4.454	4.416	4.353	4.350	5.040	5.083	5.027	5.067	6.563	6.088	6.679	6.393	6.334	6.428	6.597	6.661	6.801	6.497	6.935	6.909	7.048	6.867	6.862	6.999	7.059	7.354	8.097	7.720	8.053	7.972	8.158	8.345	8.707	8.689
415.0	1573	1771	1819	1834	1810	1716	1658	1642	1602	1625	1672	1683	1670	1629	1553	1476	1425	1397	1379	1355	1336	1301	1272	1214	1133	1043	947.7	854.9	784.7	687.5	533.3	404.6	298.3	220.7	173.0	202.0	515.7	1250	3364	6767	1430	18.45	5.922	5.232	4.566	4.475	4.533	4.898	4.886	4.608	4.724	6.011	5.905	6.425	6.231	6.292	6.502	6.467	6.616	6.626	6.604	6.693	6.666	6.594	6.893	6.718	6.686	6.894	6.957	7.557	7.566	7.328	7.759	7.979	7.865	7.806	8.713
420.0	1526	1676	1767	1744	1747	1700	1650	1631	1607	1590	1635	1631	1628	1573	1484	1412	1361	1339	1316	1311	1288	1261	1239	1193	1119	1037	958.8	862.0	785.3	722.7	593.9	440.2	328.8	245.8	185.0	153.6	191.5	328.2	868.3	4485	6188	231.4	12.08	5.737	5.234	4.571	4.614	5.021	4.939	4.584	4.756	5.814	5.836	6.383	6.030	6.140	6.427	6.364	6.619	6.817	6.754	6.326	6.438	6.465	6.832	6.519	6.438	6.629	7.112	7.523	7.513	7.216	7.371	7.361	7.559	7.690	8.056
425.0	1488	1623	1703	1694	1694	1687	1651	1630	1593	1576	1612	1589	1564	1517	1434	1348	1310	1284	1266	1262	1240	1221	1200	1162	1104	1029	957.5	870.4	792.1	722.3	641.3	485.0	357.2	269.4	203.4	156.7	130.9	131.1	232.4	1256	5150	4916	189.7	7.886	5.525	4.817	4.496	5.043	4.863	4.596	4.565	5.639	5.635	5.991	5.977	6.008	6.617	6.475	6.772	6.648	6.634	6.497	6.431	6.550	6.863	6.281	6.485	6.798	6.395	6.883	7.006	6.913	7.282	7.553	7.248	7.370	7.764
430.0	1570	1564	1641	1647	1668	1670	1659	1653	1601	1572	1576	1559	1509	1453	1376	1292	1248	1225	1215	1200	1186	1167	1153	1127	1081	1016	953.8	883.5	810.0	726.7	655.5	550.8	412.6	309.4	236.7	180.9	138.0	103.7	102.0	315.0	1398	3799	3553	844.4	14.98	5.953	5.017	5.016	4.903	4.545	4.578	5.488	5.790	5.806	6.073	6.093	6.546	6.536	6.865	6.555	6.456	6.740	6.624	6.405	6.416	6.464	6.305	6.339	6.298	6.667	6.365	6.521	7.097	7.013	7.002	7.142	7.439
435.0	2247	1521	1574	1606	1630	1698	1714	1705	1634	1549	1545	1520	1462	1402	1318	1249	1203	1171	1167	1142	1124	1107	1103	1082	1050	998.5	947.5	886.8	825.9	749.8	669.2	576.3	478.6	359.5	274.5	212.4	161.5	117.3	87.10	115.4	343.5	885.0	2259	5664	1383	17.84	6.390	5.725	5.171	4.380	4.579	5.340	5.681	5.873	6.078	6.203	6.683	7.053	6.898	6.711	6.878	6.778	6.411	6.559	6.291	6.275	6.166	6.212	6.253	6.396	6.150	6.674	6.853	6.944	6.785	6.967	7.133
440.0	3548	1587	1503	1571	1631	1680	1725	1724	1643	1561	1519	1491	1424	1362	1275	1210	1160	1140	1120	1111	1079	1059	1058	1045	1016	978.0	931.7	882.4	828.3	759.0	675.2	578.0	499.6	399.0	300.0	234.5	179.1	131.3	94.59	79.20	115.8	226.7	579.8	3602	5587	219.0	11.41	6.208	5.552	4.686	4.678	5.294	5.731	5.850	5.956	6.522	6.733	7.234	7.011	6.816	6.708	6.803	6.533	6.491	6.352	6.104	6.192	6.128	6.433	6.560	6.353	6.282	6.671	6.681	6.445	6.463	7.173
445.0	4169	2087	1493	1536	1601	1693	1746	1734	1623	1537	1492	1446	1377	1316	1236	1163	1120	1094	1082	1066	1030	1016	1009	999.5	979.8	944.7	911.2	866.8	819.3	758.6	677.1	578.2	494.6	427.9	327.8	252.1	194.2	144.4	105.7	79.40	70.72	85.75	155.9	987.5	4456	4585	169.5	8.526	6.140	4.827	4.642	5.405	5.480	5.714	6.166	6.339	6.924	7.159	7.014	6.940	6.609	6.501	6.652	6.196	6.182	6.172	5.974	5.895	5.874	6.281	6.175	6.017	6.512	6.581	6.009	6.099	6.759
450.0	3090	3644	1595	1470	1547	1655	1717	1716	1593	1485	1424	1379	1296	1236	1163	1097	1055	1028	1013	995.5	960.7	939.5	934.4	929.7	918.2	892.3	860.4	831.4	792.1	740.1	668.7	578.6	490.0	422.9	358.3	275.3	210.3	159.3	120.6	91.12	71.12	61.59	66.87	245.0	1200	3399	4064	764.2	13.65	5.571	5.013	5.664	5.404	5.773	5.990	6.183	6.960	6.979	7.055	6.912	6.794	6.547	6.337	5.898	5.981	5.626	5.766	5.640	5.685	5.820	5.903	5.843	5.891	5.996	5.778	5.974	6.026
455.0	1640	4138	2576	1383	1464	1577	1677	1653	1532	1414	1352	1278	1215	1146	1074	1019	979.0	950.7	939.2	914.9	879.2	854.2	850.4	849.8	842.4	825.0	807.7	781.6	751.0	707.7	648.1	567.1	482.5	412.4	358.4	302.0	228.8	172.5	133.5	102.9	79.76	64.55	54.25	83.70	289.7	786.1	2016	4820	1211	14.25	5.833	5.688	5.471	5.799	5.659	6.066	6.700	6.883	6.786	6.484	6.550	6.633	6.101	5.926	5.860	5.261	5.187	5.522	5.416	5.898	5.224	5.704	5.553	5.564	5.426	6.025	5.743
460.0	1198	3028	3917	1436	1387	1515	1608	1596	1479	1344	1271	1219	1154	1075	1008	958.4	914.6	885.9	873.9	849.4	816.3	793.8	792.3	791.2	787.8	771.8	755.6	731.6	717.8	682.2	627.4	551.1	474.3	402.4	346.2	305.3	245.5	182.8	141.6	110.7	86.92	69.35	55.15	51.49	90.63	195.1	498.8	2854	4918	789.0	10.51	6.240	5.884	5.790	5.522	6.033	6.274	6.770	6.789	6.513	6.322	6.303	5.817	5.643	5.108	5.184	5.071	4.967	5.233	5.228	5.361	5.107	5.243	5.102	5.393	5.422	5.659
465.0	1064	1838	4510	1955	1333	1441	1544	1534	1406	1276	1200	1150	1085	1020	950.3	898.8	856.0	832.6	820.2	792.8	760.8	733.9	734.7	735.6	728.5	724.4	711.6	690.9	678.0	651.7	597.9	531.3	460.6	395.3	335.2	292.9	254.2	194.3	147.6	117.0	92.99	74.69	59.47	48.72	48.79	65.63	129.3	755.6	3777	3564	147.0	8.283	5.863	5.782	5.470	5.938	6.294	6.214	6.250	6.330	6.256	5.947	5.755	5.269	5.149	4.940	4.946	4.885	4.786	4.933	4.775	4.790	5.042	4.994	4.927	4.881	5.150
470.0	946.5	1202	3063	3589	1392	1319	1419	1404	1285	1179	1104	1053	1002	928.5	858.0	808.1	774.3	751.9	736.8	713.6	677.3	653.6	654.6	655.2	654.1	648.3	640.8	632.0	619.8	598.4	556.3	496.1	434.3	374.9	318.8	276.2	239.7	203.5	155.6	121.3	98.30	79.44	63.95	52.01	43.56	40.23	48.83	184.6	997.2	2468	2733	701.9	13.22	6.166	5.726	5.639	5.828	5.796	5.798	5.825	5.612	5.484	5.187	4.825	4.646	4.694	4.623	4.531	4.355	4.389	4.426	4.432	4.654	4.540	4.349	4.530	4.916
475.0	895.9	946.6	1476	4000	2450	1206	1273	1272	1166	1059	1002	948.8	895.6	837.4	767.8	721.1	688.5	667.3	651.2	629.0	594.4	570.2	572.2	574.2	576.8	568.7	564.7	562.4	556.8	542.6	503.9	454.9	401.3	350.9	299.3	257.9	220.9	195.7	165.5	125.4	101.7	82.18	67.58	55.18	45.09	37.35	33.26	59.23	235.7	565.6	1229	2993	1017	16.63	5.923	5.594	5.685	5.535	5.521	5.361	5.356	4.695	4.732	4.485	4.222	4.104	4.249	4.033	3.925	4.082	3.962	3.845	4.245	3.990	4.247	4.108	4.275
480.0	852.5	863.0	989.0	2793	3787	1229	1184	1178	1076	979.2	918.4	881.7	827.0	767.7	706.6	660.7	629.9	611.7	594.0	569.3	541.2	522.6	521.6	521.4	528.1	519.4	518.7	514.9	511.8	498.5	468.6	429.1	376.4	334.0	287.0	247.0	209.6	182.3	164.3	133.7	103.9	84.86	70.27	57.22	47.27	38.76	31.24	32.00	67.76	138.0	298.7	1634	3093	197.8	11.24	5.748	5.533	5.265	4.997	4.923	4.875	4.606	4.394	4.198	4.066	3.758	4.017	3.718	3.773	3.851	3.830	3.577	3.792	3.733	3.924	3.727	3.850
485.0	791.0	819.5	838.0	1519	4395	1821	1098	1094	1007	927.5	867.4	825.7	776.8	720.7	657.9	613.6	582.8	562.6	550.6	525.4	501.0	482.5	480.3	480.3	484.5	481.7	478.7	478.9	475.6	466.3	439.0	401.0	355.5	313.9	274.5	234.8	203.7	174.7	155.9	137.4	108.5	85.85	71.75	59.52	48.80	40.72	32.77	27.48	31.27	43.63	77.15	427.4	2267	2734	166.2	7.139	5.567	5.443	5.168	4.839	4.602	4.300	4.323	3.976	3.906	3.843	3.698	3.429	3.622	3.474	3.445	3.547	3.576	3.439	3.448	3.597	3.296
490.0	656.2	772.4	745.3	921.8	2928	3582	1187	988.4	929.3	849.8	798.8	768.8	711.9	659.7	605.4	560.3	530.6	512.0	497.3	475.0	450.2	436.9	431.5	431.4	435.7	433.1	432.9	433.5	433.5	425.4	403.4	369.3	331.2	293.0	257.4	223.6	194.9	166.0	146.0	130.1	114.8	90.22	73.50	61.89	51.57	42.93	35.26	28.80	25.09	23.80	28.48	105.2	589.9	1757	2100	710.9	14.00	5.585	4.917	4.606	4.183	4.106	3.961	3.917	3.614	3.723	3.413	3.342	3.361	3.428	3.346	3.334	3.281	3.323	3.155	3.537	3.237
495.0	584.2	680.5	691.3	730.2	1311	4047	2272	889.2	842.1	767.4	736.0	697.8	647.2	588.7	538.4	502.5	474.1	454.2	443.3	420.1	396.2	387.9	380.8	384.1	387.3	385.0	383.3	389.6	386.0	383.1	363.5	335.9	301.7	267.8	236.0	209.5	183.1	159.1	138.2	119.0	109.4	96.16	75.76	63.66	53.63	45.00	37.57	30.12	25.47	20.95	18.38	33.71	140.0	402.4	1106	2981	1131	16.87	4.992	4.649	4.135	3.965	3.600	3.687	3.209	3.541	3.275	3.119	2.991	2.990	2.978	2.931	3.108	3.006	2.907	3.040	3.028
500.0	535.4	602.9	650.3	649.5	822.2	2780	3441	921.0	763.9	703.0	675.5	637.3	588.0	538.8	493.0	452.5	431.2	411.4	398.1	377.0	361.2	347.1	342.7	346.9	348.5	349.2	346.3	352.9	351.1	348.5	333.9	307.9	278.4	247.1	219.9	195.7	172.0	150.2	130.5	112.7	100.2	94.91	80.25	63.23	53.18	44.99	38.21	31.47	25.62	20.65	16.56	17.99	39.99	97.64	269.3	1630	3036	213.5	10.48	4.583	4.105	3.680	3.747	3.157	2.939	3.206	2.784	2.950	2.721	2.805	2.736	2.943	2.839	2.762	2.904	2.927	2.762
505.0	454.5	537.8	589.3	595.2	642.9	1447	4540	1469	691.5	655.1	623.9	593.8	543.0	500.7	451.7	411.0	397.1	374.6	357.3	343.3	324.5	312.7	312.2	314.3	312.7	315.1	315.1	315.8	320.0	316.6	302.3	284.1	255.8	229.9	204.3	183.3	161.8	141.7	122.4	105.8	93.21	87.25	80.27	65.01	52.92	45.43	37.27	31.65	26.02	21.07	16.48	15.13	17.78	30.22	67.44	420.2	2104	2475	177.8	5.547	3.982	3.498	3.379	3.055	2.868	2.760	2.566	2.696	2.669	2.666	2.581	2.623	2.684	2.671	2.575	2.417	2.594
510.0	403.6	446.7	505.6	543.9	550.4	763.8	3011	3354	781.3	567.0	550.1	515.7	478.4	436.7	396.4	363.4	343.7	326.9	311.2	298.5	283.0	271.4	270.7	271.4	271.6	273.1	273.9	274.7	277.4	276.5	265.6	248.6	227.1	204.4	182.3	162.2	145.1	127.7	111.8	98.11	85.68	77.36	73.24	65.89	53.94	43.27	36.59	31.31	25.42	21.19	17.02	14.37	13.06	14.90	22.28	99.98	542.0	1564	1827	639.1	12.56	3.759	3.135	2.799	2.838	2.427	2.440	2.523	2.373	2.326	2.398	2.258	2.331	2.276	2.213	2.180	2.248
515.0	348.4	387.2	407.8	473.0	478.0	535.0	1171	4310	1849	497.0	476.1	451.6	417.1	374.7	346.3	311.0	290.6	280.6	268.4	255.3	240.7	232.1	229.6	231.0	229.9	232.6	231.4	236.7	237.1	233.2	229.9	213.1	194.5	176.3	159.3	142.9	127.6	113.7	99.21	88.15	77.36	69.45	64.26	60.60	55.06	42.75	35.57	30.12	24.43	20.84	17.09	14.83	11.86	11.56	12.35	28.56	126.6	356.6	879.3	2180	809.9	13.68	3.170	2.537	2.725	2.360	2.178	2.162	2.124	2.133	1.988	1.870	2.007	2.009	2.037	1.829	1.950
520.0	288.6	350.6	364.5	417.1	445.1	441.2	619.1	3014	3697	543.6	427.2	404.9	369.3	333.9	305.8	277.1	258.5	248.9	236.3	224.2	211.8	204.9	204.2	203.6	204.1	205.1	204.4	207.9	208.2	208.6	203.8	188.6	174.3	158.6	142.1	129.1	115.4	104.0	91.09	81.59	70.87	64.87	57.19	54.40	51.93	43.39	35.31	29.15	23.74	20.36	16.65	14.65	11.94	10.83	9.917	12.88	33.97	85.01	213.0	1223	1922	203.4	6.469	2.720	2.507	2.254	2.050	2.186	1.953	1.827	1.916	1.844	1.879	1.705	1.589	1.719	1.580
525.0	262.6	308.2	315.3	361.9	413.5	402.5	451.8	1381	4899	1121	381.0	360.8	336.0	300.7	277.6	251.4	234.6	220.0	214.2	200.8	189.2	184.7	181.1	180.9	183.2	181.7	182.7	186.7	185.7	189.0	182.3	169.2	157.9	143.0	128.8	116.0	104.8	95.15	83.91	75.58	66.24	59.58	53.28	48.17	47.50	43.94	34.63	27.56	22.89	19.10	16.24	14.21	11.97	10.66	9.373	9.424	13.22	24.15	52.34	317.6	1441	1612	29.62	3.145	2.289	2.314	2.013	1.952	1.735	1.679	1.757	1.670	1.595	1.582	1.453	1.506	1.682
530.0	224.6	265.2	278.0	296.2	364.4	359.5	366.3	599.5	3266	3178	494.5	318.8	292.2	264.6	237.0	217.2	202.4	190.3	181.5	172.3	163.1	158.4	155.2	154.7	156.4	155.7	157.6	158.4	159.8	162.5	157.9	146.9	136.2	124.7	112.0	101.2	92.25	83.41	73.98	67.15	59.28	53.73	48.46	43.18	40.54	39.87	34.65	27.13	22.03	18.36	15.44	13.79	11.83	10.60	9.310	8.347	8.639	10.42	16.21	75.00	375.9	1096	1305	400.6	9.297	2.226	2.002	1.792	1.614	1.451	1.481	1.554	1.467	1.409	1.391	1.305	1.574
535.0	196.3	227.6	242.9	245.0	287.6	334.4	299.8	366.3	1079	4683	1489	277.7	252.1	228.2	205.7	183.8	172.9	163.3	153.9	149.3	139.2	136.4	133.7	132.4	132.8	131.3	133.3	135.5	134.5	137.6	132.6	124.1	115.2	105.2	97.08	86.77	79.31	72.97	65.60	58.73	52.36	47.65	42.80	38.87	35.74	33.26	32.24	28.17	21.29	17.28	14.54	12.76	11.18	10.27	9.244	7.987	7.608	7.620	7.859	20.68	87.33	250.3	668.7	1504	214.2	9.328	1.905	1.662	1.615	1.365	1.294	1.277	1.319	1.278	1.271	1.082	1.299
540.0	176.9	200.5	207.6	209.6	238.0	304.6	280.4	289.9	448.1	3245	3712	312.7	228.0	205.9	183.2	162.0	151.6	143.3	135.7	130.5	124.8	120.2	117.4	117.7	118.0	115.5	117.5	118.5	118.2	120.1	115.9	110.4	101.6	94.20	86.56	78.11	72.30	64.91	59.67	53.94	48.29	43.29	39.85	35.63	32.84	29.62	28.68	27.38	21.43	16.52	14.07	12.36	10.81	9.412	8.754	8.436	7.280	6.427	5.741	8.351	22.92	58.80	164.5	922.9	1320	170.3	3.042	1.852	1.473	1.349	1.205	1.281	1.227	1.103	1.128	1.061	1.150
545.0	162.5	180.8	187.3	189.6	209.9	264.4	265.9	248.9	286.2	1328	5229	771.1	205.5	183.4	163.8	147.9	136.5	129.2	122.4	117.8	109.5	106.8	103.9	104.6	104.0	103.4	104.4	105.0	105.9	107.3	104.4	98.31	91.15	84.12	77.41	70.49	64.70	59.27	53.55	48.61	44.49	40.43	36.34	33.54	30.17	26.90	25.27	25.15	21.52	16.56	13.35	11.52	10.25	9.631	8.623	7.790	7.089	6.104	5.417	5.622	8.410	16.06	39.70	247.4	1096	1086	27.35	2.072	1.469	1.237	1.290	1.163	1.153	0.979	1.075	0.913	1.025
550.0	149.1	155.0	158.8	166.8	173.6	212.9	257.6	210.5	219.6	460.2	3407	2813	270.6	159.5	142.7	128.3	117.5	109.3	105.2	99.08	94.19	91.32	90.43	90.63	89.66	89.66	89.66	89.51	91.50	91.90	90.10	84.63	78.53	71.87	66.43	60.16	56.25	51.73	46.89	42.77	38.65	35.80	31.95	29.80	26.16	24.17	21.67	20.68	20.11	16.79	13.35	10.95	9.655	8.673	7.834	7.572	6.836	5.845	5.188	4.738	5.011	6.475	11.48	57.59	294.7	811.0	895.1	123.9	6.674	1.378	1.231	1.050	1.095	0.905	0.920	0.997	0.875
555.0	142.1	139.2	139.6	141.6	145.7	161.2	224.8	204.1	177.1	235.4	999.0	4612	1042	137.7	118.9	110.7	100.7	91.74	90.20	84.21	80.35	76.77	75.68	76.49	75.47	74.24	74.91	75.53	77.13	76.99	74.22	72.02	66.68	61.34	57.37	51.60	47.84	43.73	39.93	36.74	33.50	30.40	27.70	25.27	23.25	20.92	18.85	17.37	16.33	16.19	13.26	10.29	8.928	8.052	7.399	6.839	6.240	5.782	5.139	4.257	4.062	4.047	4.864	15.19	67.70	185.9	508.5	1024	189.9	4.540	1.309	1.100	0.995	0.849	0.837	0.865	0.812
560.0	129.8	124.6	132.0	123.2	128.6	137.8	177.2	196.2	156.0	174.1	348.1	3300	3037	149.1	106.2	98.09	89.12	80.95	78.39	74.59	70.04	66.75	65.93	65.38	65.14	64.72	64.56	65.68	67.61	67.47	65.15	62.16	57.90	53.82	50.04	45.59	42.60	38.37	34.94	32.13	29.79	26.96	24.47	22.65	20.95	19.01	16.63	15.09	13.39	13.75	12.69	10.59	8.186	7.477	7.056	6.235	5.954	5.243	5.225	4.455	3.729	3.518	3.417	5.570	16.94	43.43	128.5	701.8	900.3	30.48	1.662	1.087	1.085	0.941	0.821	0.837	0.793
565.0	116.4	123.1	114.8	108.3	113.5	117.6	144.4	193.5	146.3	140.7	183.4	1302	4617	467.8	95.44	85.33	77.99	71.40	67.76	65.28	61.24	59.15	57.95	57.77	55.81	56.20	55.58	57.56	57.82	57.35	56.96	53.99	50.32	46.92	43.46	39.79	37.77	34.27	31.66	28.33	26.31	23.98	21.91	20.57	18.81	16.87	15.22	13.43	12.29	11.94	11.46	10.41	7.644	7.068	6.376	5.687	5.409	5.020	4.665	4.131	3.484	3.180	3.060	3.301	5.959	11.49	30.59	195.8	809.5	660.6	22.63	1.481	1.043	0.975	0.803	0.751	0.726
570.0	107.2	105.5	103.2	92.26	93.66	100.5	107.6	154.1	150.7	121.3	131.5	391.0	3168	2214	107.2	71.49	64.61	58.71	56.16	52.53	50.92	47.52	47.05	47.17	46.83	45.50	45.76	46.33	47.08	47.01	46.51	44.13	41.18	38.12	35.76	32.20	30.57	28.22	25.78	23.76	21.58	19.81	18.30	17.16	16.07	14.59	12.74	11.53	10.27	9.472	9.105	9.330	7.443	6.527	5.737	5.363	4.988	4.371	4.035	3.865	3.516	3.084	2.951	2.617	3.296	4.382	8.632	45.44	224.3	565.3	460.0	101.9	3.052	1.045	0.796	0.742	0.679
575.0	98.59	95.59	91.54	79.67	77.54	78.28	84.46	106.5	146.7	104.7	102.9	158.7	899.5	3898	676.2	57.76	50.55	46.54	44.16	40.61	39.64	38.43	36.36	36.87	36.73	36.23	35.73	36.42	36.09	37.50	35.79	34.98	31.45	29.53	27.61	25.02	23.67	22.12	20.46	18.62	17.11	15.58	14.63	13.83	12.64	11.48	10.31	9.026	8.414	7.260	6.627	6.660	6.995	6.333	4.771	4.357	4.127	3.799	3.502	3.259	3.330	3.156	2.625	2.485	2.505	2.779	3.572	11.86	51.66	131.1	339.2	608.8	30.91	1.958	0.977	0.680	0.598
580.0	86.37	86.52	86.64	68.72	66.21	67.63	72.07	84.59	130.5	109.0	92.32	103.2	266.2	2812	2255	65.19	42.44	38.74	36.77	34.79	32.49	30.99	30.19	30.04	29.88	29.44	28.83	29.67	29.59	30.03	29.37	28.26	26.05	24.07	21.99	20.74	19.58	18.63	16.90	15.28	13.95	12.92	12.23	11.60	10.25	9.767	8.561	7.367	6.943	6.132	5.431	5.399	5.903	5.615	4.360	3.944	3.568	3.315	3.042	3.026	2.732	3.119	2.606	2.382	2.272	2.365	2.352	4.280	13.30	30.81	89.36	453.7	453.4	24.84	1.020	0.752	0.683
585.0	84.56	77.98	74.01	61.30	58.01	56.56	64.07	71.03	104.7	119.8	83.93	86.73	115.8	1086	3618	108.3	37.28	33.09	30.06	28.94	27.03	25.91	25.42	24.66	24.19	24.35	23.78	23.93	24.44	24.56	23.46	22.87	21.45	19.47	18.15	17.23	15.94	14.96	13.86	13.02	11.42	10.82	10.18	9.513	8.657	7.840	7.144	6.492	6.161	5.259	4.901	4.421	4.656	5.079	4.246	3.668	3.334	2.904	2.933	2.591	2.435	2.676	2.680	2.269	2.265	2.182	2.012	2.688	4.633	8.449	21.64	133.9	468.9	240.0	15.21	0.908	0.697
590.0	81.63	79.62	70.88	55.49	49.75	49.04	51.33	58.69	74.17	115.7	90.64	78.74	80.88	299.8	2505	1505	50.43	27.36	24.08	22.23	21.56	20.13	20.00	19.08	18.96	18.48	18.32	18.84	18.97	19.06	18.64	17.86	16.53	14.92	14.07	13.15	12.30	11.53	10.84	9.780	8.980	8.354	7.970	7.274	6.800	6.326	5.795	5.202	4.918	4.240	3.720	3.528	3.421	3.884	3.839	3.442	2.826	2.538	2.530	2.397	2.310	2.330	2.531	2.268	2.116	2.096	1.958	2.265	2.593	3.618	6.422	31.45	136.1	291.2	262.1	18.73	1.325
595.0	80.09	73.76	73.70	55.36	42.85	45.48	46.19	52.11	58.94	94.62	107.1	79.00	72.54	111.2	695.5	2807	431.0	22.17	18.61	16.94	16.05	15.41	15.84	15.19	14.40	14.43	13.99	13.74	14.52	14.23	14.23	12.89	12.49	11.55	10.93	9.943	9.701	8.838	7.822	7.489	7.273	6.294	6.232	5.513	5.049	4.745	4.644	3.966	3.821	3.336	2.936	2.943	2.641	2.878	2.996	3.333	2.630	2.174	1.987	2.021	2.034	2.194	2.203	2.021	2.500	1.948	2.014	2.068	2.248	2.650	3.149	8.589	31.63	69.28	194.9	259.2	27.41
600.0	78.32	81.09	67.84	55.79	38.48	42.83	46.27	47.24	54.11	76.59	114.4	84.33	75.00	74.64	195.1	2078	1465	30.06	16.21	14.33	14.02	12.78	12.44	12.45	11.61	11.79	11.78	11.62	11.96	12.26	11.65	10.85	10.24	9.434	8.846	8.224	8.061	7.217	6.341	6.352	5.868	5.297	4.963	5.028	4.337	3.999	3.944	3.345	3.112	2.884	2.442	2.312	2.187	2.224	2.485	2.872	2.589	1.985	1.778	1.738	1.911	1.768	1.923	2.071	2.336	2.201	1.976	2.008	2.029	2.173	2.253	3.428	8.392	16.51	52.39	233.7	230.0
605.0	77.35	79.48	73.16	52.52	43.97	47.07	48.46	49.46	58.13	73.64	123.7	103.5	85.24	74.39	87.90	832.1	2425	76.31	14.41	12.97	11.56	10.83	10.81	10.08	10.37	9.738	9.988	9.662	9.417	10.14	9.769	9.278	8.363	8.069	7.778	6.753	6.491	6.238	5.765	5.411	4.943	4.354	3.978	4.343	3.708	3.684	3.294	2.881	2.752	2.378	2.185	2.123	1.860	1.898	1.948	2.346	2.445	2.127	1.587	1.623	1.752	1.808	1.780	1.815	1.991	2.308	2.023	1.975	2.196	2.152	2.286	2.379	3.168	4.897	12.59	72.98	257.8
610.0	87.27	96.26	84.27	61.71	48.31	50.51	55.96	64.14	75.60	98.19	135.7	160.2	127.8	105.6	90.24	246.4	1770	1068	28.05	10.94	9.784	8.939	8.494	8.286	8.126	7.797	8.023	7.701	7.967	7.821	7.674	7.407	6.794	6.509	6.205	5.725	5.298	5.032	4.728	4.102	3.772	3.729	3.443	3.464	3.047	2.906	2.846	2.553	2.361	2.054	1.816	1.757	1.614	1.590	1.621	1.832	2.203	2.125	1.812	1.573	1.695	1.604	1.840	1.811	1.966	2.126	2.283	2.228	2.244	2.201	2.277	2.049	2.123	2.311	3.930	17.31	77.61
615.0	99.63	112.5	93.59	69.59	57.95	52.16	64.48	72.66	92.31	114.5	143.8	194.9	169.2	129.4	107.2	116.9	533.3	1989	297.2	9.429	8.045	7.567	6.808	6.901	6.431	6.445	6.281	5.914	6.368	5.795	5.921	5.914	5.285	5.180	4.723	4.931	4.323	4.278	3.824	3.326	2.889	2.849	2.786	2.702	2.466	2.415	2.256	2.083	2.024	1.719	1.573	1.540	1.421	1.372	1.460	1.406	1.587	1.913	1.939	1.675	1.605	1.684	1.714	1.758	1.943	1.889	2.165	2.425	2.329	2.230	2.280	1.902	1.667	1.901	1.862	4.800	18.20
620.0	106.7	120.1	102.1	71.09	57.08	56.94	67.32	78.33	90.42	115.4	142.5	183.4	187.4	140.6	117.0	91.02	176.7	1485	1035	12.48	7.513	6.896	6.095	5.967	5.483	5.415	5.123	5.050	5.331	5.056	5.222	4.831	4.471	4.657	4.070	4.239	3.638	3.448	3.336	2.947	2.540	2.416	2.346	2.350	2.174	2.064	2.071	1.707	1.676	1.447	1.413	1.392	1.278	1.288	1.217	1.240	1.416	1.671	1.703	1.544	1.582	1.542	1.516	1.577	1.752	1.601	1.877	2.173	2.273	2.006	1.965	1.845	1.688	1.606	1.411	1.959	4.867
625.0	104.4	123.1	107.5	73.05	56.94	56.84	67.48	79.57	89.97	114.9	141.8	170.1	196.6	147.4	121.4	89.27	92.18	613.6	1752	52.21	6.617	5.988	5.241	5.364	4.751	4.624	4.710	4.650	4.592	4.181	4.266	4.057	3.832	3.654	3.591	3.541	3.215	3.107	2.814	2.532	2.177	2.171	1.978	1.944	1.914	1.683	1.804	1.580	1.604	1.362	1.294	1.251	1.106	1.124	1.039	1.254	1.106	1.390	1.455	1.525	1.374	1.461	1.296	1.524	1.569	1.576	1.773	1.920	2.116	1.963	1.907	1.777	1.613	1.343	1.329	1.355	1.858
630.0	110.7	129.7	109.9	77.66	62.91	60.99	69.44	79.64	88.53	108.1	135.7	166.4	190.5	159.8	123.7	87.94	75.55	177.1	1296	768.9	14.40	5.179	4.477	4.435	4.050	3.746	3.750	3.728	3.674	3.305	3.611	3.192	3.194	3.015	2.818	2.774	2.685	2.471	2.250	2.136	2.004	1.717	1.686	1.699	1.545	1.528	1.479	1.369	1.370	1.140	1.028	1.062	1.009	0.959	0.938	0.945	1.031	1.170	1.193	1.341	1.264	1.217	1.196	1.256	1.361	1.463	1.604	1.502	1.773	1.921	1.881	1.692	1.614	1.316	1.124	1.025	1.215
635.0	113.2	143.5	116.8	82.44	63.12	60.86	69.55	76.73	84.72	109.1	135.1	162.8	180.8	177.8	132.0	91.68	74.77	71.26	366.5	1477	202.1	4.688	3.984	3.761	3.459	3.171	3.216	2.982	3.000	3.002	3.035	2.545	2.566	2.332	2.264	2.243	2.063	1.872	1.799	1.656	1.785	1.504	1.316	1.289	1.498	1.264	1.137	1.124	1.024	0.930	0.844	0.901	0.794	0.798	0.881	0.870	0.958	0.907	0.989	1.074	1.117	1.137	1.065	1.156	1.169	1.408	1.308	1.460	1.585	1.626	1.800	1.651	1.422	1.249	1.103	1.023	1.047
640.0	115.9	147.9	118.2	85.12	62.65	62.40	73.74	78.61	82.71	108.6	139.0	159.3	176.3	182.7	138.7	92.75	73.84	48.18	94.91	1129	496.2	7.332	3.745	3.438	2.975	2.943	2.808	2.516	2.592	2.674	2.443	2.283	2.079	2.034	1.883	1.908	1.872	1.606	1.534	1.527	1.432	1.372	1.205	1.201	1.165	1.155	0.997	1.012	1.015	0.758	0.752	0.836	0.732	0.686	0.741	0.778	0.825	0.839	0.797	0.744	1.039	1.000	1.023	1.075	1.165	1.146	1.183	1.380	1.513	1.370	1.681	1.339	1.283	1.294	1.027	0.974	0.937
645.0	126.2	142.5	124.5	84.96	66.25	60.56	69.90	79.17	81.90	103.1	134.8	159.7	172.1	172.7	146.0	94.14	73.10	42.58	32.82	478.7	1224	41.05	3.727	3.163	2.850	2.574	2.496	2.194	2.295	2.420	2.048	2.065	1.795	1.851	1.529	1.613	1.450	1.428	1.516	1.317	1.251	1.294	1.125	1.077	1.058	0.987	0.881	0.921	0.927	0.735	0.629	0.739	0.691	0.643	0.668	0.726	0.723	0.770	0.629	0.769	0.841	0.892	0.974	0.954	1.040	0.978	1.118	1.277	1.394	1.274	1.405	1.425	1.397	1.145	0.978	0.877	0.867
650.0	133.2	147.2	119.9	85.80	63.90	57.15	68.39	77.27	78.43	99.05	129.2	150.7	164.3	164.5	143.4	91.94	72.04	41.75	19.53	128.9	1227	337.7	3.838	2.783	2.694	2.387	2.206	2.029	2.077	2.025	1.873	1.800	1.711	1.717	1.440	1.479	1.514	1.387	1.395	1.293	1.112	1.042	1.054	0.849	1.001	0.911	0.870	0.849	0.786	0.695	0.629	0.757	0.659	0.614	0.643	0.615	0.736	0.659	0.619	0.724	0.815	0.854	0.903	0.835	0.973	0.860	1.178	1.255	1.426	1.241	1.279	1.298	1.439	1.150	0.919	0.857	0.796
