Sample:	'1
File name:	t2025063001乌河入预备河.FD3
Run date:	'09:24:10, 07/01/2025
Operator:	Administrator
Comment:	'

Instrument
Model:	F-2700 FL Spectrophotometer
Serial number:	23B8-004
ROM Version:	4J14000 07

Instrument parameters
Measurement type:	3-D scan
Data mode:	Fluorescence
EX  Start WL:	220.0 nm
EX  End WL:	600.0 nm
EX Sampling interval:	5.0 nm
EM  Start WL:	230.0 nm
EM  End WL:	650.0 nm
EM Sampling interval:	5.0 nm
Scan speed:	12000 nm/min
EX Slit:	5.0 nm
EM Slit:	5.0 nm
PMT Voltage:	700 V
Response:	Auto 
Corrected spectra:	Off
Contour interval:	50.000

Peak integration
Integration method:	Rectangular
Sensitivity:	1
Threshold:	1.000

Peaks
No.	ApexEX/EM(nm)	Height(Data)
1	225.0/560.0	91.59
2	225.0/570.0	89.05
3	225.0/590.0	78.17
4	230.0/345.0	5165
5	230.0/620.0	52.11
6	230.0/630.0	46.14
7	240.0/265.0	364.0
8	245.0/270.0	420.1
9	250.0/275.0	565.0
10	250.0/545.0	233.5
11	255.0/280.0	625.9
12	255.0/560.0	185.1
13	260.0/570.0	140.0
14	265.0/380.0	1703
15	265.0/585.0	128.6
16	270.0/300.0	1083
17	270.0/600.0	107.2
18	275.0/305.0	1272
19	275.0/610.0	96.13
20	280.0/310.0	1211
21	280.0/345.0	1998
22	280.0/625.0	83.79
23	285.0/635.0	66.58
24	460.0/345.0	15.32
25	505.0/275.0	3.555
26	510.0/280.0	3.683
27	520.0/285.0	4.317
28	530.0/290.0	3.833
29	540.0/295.0	6.028
30	545.0/300.0	6.397
31	550.0/305.0	6.813
32	560.0/310.0	6.499
33	565.0/340.0	10.27
34	575.0/350.0	9.917

Data points
	220.0	225.0	230.0	235.0	240.0	245.0	250.0	255.0	260.0	265.0	270.0	275.0	280.0	285.0	290.0	295.0	300.0	305.0	310.0	315.0	320.0	325.0	330.0	335.0	340.0	345.0	350.0	355.0	360.0	365.0	370.0	375.0	380.0	385.0	390.0	395.0	400.0	405.0	410.0	415.0	420.0	425.0	430.0	435.0	440.0	445.0	450.0	455.0	460.0	465.0	470.0	475.0	480.0	485.0	490.0	495.0	500.0	505.0	510.0	515.0	520.0	525.0	530.0	535.0	540.0	545.0	550.0	555.0	560.0	565.0	570.0	575.0	580.0	585.0	590.0	595.0	600.0
230.0	41.23	846.1	1970	571.2	23.09	4.695	3.453	2.950	2.530	2.620	2.344	2.221	2.119	1.782	1.508	1.318	1.054	0.984	0.838	0.768	0.733	0.635	0.549	0.523	0.491	0.490	0.408	0.393	0.355	0.363	0.313	0.334	0.300	0.287	0.238	0.258	0.220	0.233	0.215	0.199	0.281	0.357	0.319	0.225	0.173	0.211	1.096	4.536	7.159	4.773	1.619	0.310	0.173	0.152	0.143	0.109	0.136	0.120	0.108	0.132	0.099	0.115	0.108	0.131	0.103	0.114	0.121	0.089	0.116	0.098	0.114	0.105	0.102	0.095	0.106	0.087	0.113
235.0	98.44	237.0	1246	2046	491.4	39.30	4.642	2.937	3.741	2.791	2.385	2.431	1.974	1.948	1.479	1.105	1.279	0.901	0.894	0.808	0.772	0.662	0.623	0.537	0.513	0.427	0.437	0.424	0.323	0.311	0.276	0.347	0.295	0.326	0.271	0.304	0.246	0.249	0.242	0.216	0.282	0.271	0.367	0.523	0.353	0.236	0.435	1.237	2.799	5.452	6.922	7.201	3.069	0.657	0.163	0.112	0.163	0.121	0.106	0.132	0.153	0.110	0.130	0.108	0.096	0.118	0.168	0.100	0.097	0.094	0.132	0.107	0.129	0.106	0.111	0.068	0.114
240.0	134.9	133.3	374.6	1754	2212	390.5	21.54	4.382	4.287	3.037	2.706	3.062	2.076	2.131	1.599	1.260	1.207	1.060	1.006	0.711	0.859	0.663	0.561	0.545	0.590	0.526	0.435	0.428	0.498	0.336	0.268	0.360	0.326	0.279	0.206	0.247	0.248	0.224	0.264	0.246	0.242	0.216	0.255	0.311	0.446	0.501	0.364	0.532	0.791	1.692	4.024	9.529	11.70	7.580	2.630	0.304	0.168	0.122	0.138	0.121	0.115	0.135	0.143	0.099	0.145	0.180	0.125	0.132	0.130	0.116	0.104	0.104	0.145	0.128	0.146	0.083	0.122
245.0	101.4	191.1	146.4	594.0	2392	2259	280.8	12.62	4.431	3.142	3.707	2.881	2.167	2.035	1.849	1.403	1.206	1.175	1.097	0.690	0.788	0.567	0.601	0.640	0.588	0.592	0.483	0.467	0.443	0.321	0.305	0.408	0.372	0.339	0.168	0.285	0.248	0.245	0.207	0.238	0.197	0.177	0.227	0.202	0.309	0.504	0.697	0.678	0.428	0.510	1.087	3.212	8.271	14.10	13.34	6.591	1.701	0.212	0.141	0.138	0.111	0.125	0.167	0.115	0.125	0.115	0.111	0.133	0.123	0.098	0.168	0.107	0.166	0.137	0.105	0.106	0.103
250.0	43.91	135.9	218.5	215.3	767.3	2224	2875	1019	61.99	5.326	4.496	3.534	2.873	2.364	2.052	1.627	1.369	1.215	1.081	0.785	0.796	0.707	0.678	0.623	0.616	0.578	0.543	0.520	0.406	0.348	0.354	0.403	0.350	0.312	0.244	0.271	0.286	0.263	0.217	0.218	0.210	0.195	0.220	0.201	0.207	0.282	0.391	0.677	0.828	0.738	0.563	0.908	2.101	4.600	8.462	12.76	16.64	14.57	7.527	1.974	0.232	0.139	0.184	0.150	0.135	0.114	0.138	0.137	0.118	0.165	0.107	0.088	0.151	0.124	0.106	0.094	0.082
255.0	22.97	45.95	157.7	301.9	259.5	577.3	2187	4474	1447	68.79	6.089	4.494	3.830	2.681	2.153	1.826	1.531	1.399	1.257	0.917	0.888	0.794	0.690	0.652	0.690	0.606	0.406	0.463	0.452	0.421	0.367	0.381	0.311	0.314	0.246	0.320	0.222	0.302	0.251	0.229	0.246	0.233	0.244	0.220	0.192	0.244	0.286	0.283	0.442	0.800	1.161	1.102	0.958	1.270	2.091	3.237	6.484	15.48	26.58	25.17	10.87	1.879	0.264	0.183	0.138	0.133	0.148	0.148	0.148	0.119	0.123	0.128	0.167	0.140	0.105	0.102	0.086
260.0	17.87	23.23	65.14	252.7	307.8	205.3	666.5	3481	5156	1123	32.74	7.016	4.705	3.785	2.393	2.312	1.789	1.341	1.475	1.039	0.964	0.821	0.651	0.634	0.645	0.595	0.433	0.592	0.557	0.491	0.400	0.389	0.270	0.384	0.287	0.335	0.223	0.232	0.301	0.230	0.224	0.332	0.276	0.221	0.204	0.214	0.170	0.238	0.255	0.354	0.745	1.419	1.665	1.083	0.908	1.018	1.750	4.268	11.85	25.89	32.10	23.25	8.709	0.864	0.172	0.126	0.149	0.191	0.154	0.115	0.138	0.141	0.107	0.100	0.133	0.099	0.129
265.0	24.04	20.86	29.47	128.1	364.0	266.3	227.2	1139	5018	5342	212.8	14.77	6.410	4.381	3.314	2.582	2.081	1.896	1.492	1.117	1.055	0.762	0.825	0.597	0.710	0.672	0.583	0.567	0.612	0.481	0.460	0.388	0.400	0.488	0.310	0.285	0.277	0.343	0.294	0.303	0.257	0.281	0.280	0.261	0.275	0.205	0.199	0.176	0.183	0.243	0.351	0.759	1.577	1.943	1.561	0.827	0.825	1.358	3.105	7.705	18.75	35.82	32.34	19.58	5.028	0.417	0.182	0.188	0.130	0.169	0.186	0.187	0.124	0.139	0.141	0.148	0.146
270.0	47.36	44.02	40.90	64.04	217.2	420.1	331.3	345.2	1517	4625	6159	822.3	54.70	6.910	4.649	3.231	2.632	2.055	1.509	1.296	1.144	1.179	0.870	0.788	0.755	0.695	0.625	0.705	0.542	0.505	0.539	0.463	0.481	0.415	0.358	0.371	0.330	0.321	0.266	0.326	0.321	0.296	0.239	0.313	0.322	0.279	0.266	0.237	0.267	0.242	0.263	0.475	0.682	1.235	2.035	2.193	2.146	1.342	1.269	2.135	4.662	10.51	18.08	30.52	32.59	33.19	14.60	4.646	0.504	0.190	0.192	0.161	0.142	0.128	0.133	0.160	0.184
275.0	144.1	118.1	103.6	81.72	133.2	269.9	565.0	360.6	419.1	1139	3709	8943	1197	59.57	7.305	4.260	3.457	2.650	2.094	1.800	1.366	1.277	1.049	0.780	0.712	0.774	0.567	0.604	0.520	0.532	0.389	0.523	0.498	0.452	0.524	0.438	0.467	0.468	0.415	0.411	0.418	0.360	0.418	0.395	0.475	0.427	0.561	0.499	0.495	0.381	0.371	0.441	0.500	0.678	1.108	1.382	2.738	3.555	2.668	1.390	1.497	2.791	4.448	7.355	10.16	24.09	47.56	54.23	23.06	5.433	0.438	0.255	0.259	0.199	0.198	0.184	0.169
280.0	225.5	254.2	191.6	125.6	124.5	189.9	407.6	625.9	293.5	349.0	1044	5822	8875	887.4	29.68	6.409	4.494	3.362	2.545	1.870	1.718	1.281	1.102	0.966	0.942	0.753	0.717	0.659	0.576	0.571	0.611	0.545	0.494	0.562	0.817	0.845	0.734	0.541	0.496	0.555	0.491	0.479	0.532	0.520	0.698	0.740	0.913	0.812	0.711	0.594	0.482	0.546	0.578	0.609	0.885	1.012	1.389	2.389	3.683	3.409	1.773	1.231	1.528	2.222	2.793	6.200	16.31	38.17	58.35	33.25	18.18	2.750	0.330	0.252	0.196	0.188	0.182
285.0	350.1	377.8	296.9	187.0	142.9	179.0	251.1	533.4	581.3	259.5	379.6	1697	7411	7611	126.6	14.38	5.826	3.866	2.946	2.250	1.860	1.647	1.178	1.044	1.050	0.965	0.951	0.646	0.727	0.533	0.679	0.585	0.606	0.770	0.820	0.841	0.877	0.841	0.537	0.672	0.654	0.640	0.830	0.839	0.900	1.052	1.174	1.271	1.149	0.890	0.678	0.609	0.636	0.649	0.879	0.916	1.127	1.386	2.091	3.381	4.317	2.560	1.370	1.225	1.493	2.282	4.567	9.972	22.93	43.81	64.11	30.02	13.05	1.275	0.361	0.210	0.258
290.0	511.3	575.2	451.5	289.6	190.0	185.0	211.8	301.6	582.8	659.6	396.3	622.6	2132	5735	6656	1937	35.36	6.211	3.852	3.105	2.183	1.637	1.403	1.156	1.178	1.047	0.858	0.686	0.771	0.663	0.673	0.657	0.572	0.866	0.933	1.078	1.026	1.019	0.805	0.888	0.779	0.822	0.920	1.039	1.240	1.392	1.567	1.662	1.584	1.295	0.952	0.865	0.919	0.856	0.864	0.909	1.045	1.124	1.381	1.804	2.739	3.415	3.833	3.308	2.364	2.013	2.264	3.488	6.348	11.86	23.48	33.31	46.15	41.41	20.47	10.16	1.778
295.0	603.2	697.2	625.6	394.8	261.9	229.7	230.5	261.6	373.3	712.7	895.7	548.7	772.0	1488	3391	8401	720.8	37.89	6.074	4.037	3.013	2.099	1.702	1.218	1.377	1.189	0.896	0.973	0.802	0.685	0.689	0.791	0.652	0.909	1.060	1.282	1.163	1.246	0.988	1.041	1.021	1.073	1.148	1.337	1.470	1.751	1.803	1.999	1.958	1.727	1.372	1.284	1.072	1.046	1.003	1.026	1.250	1.330	1.302	1.469	1.869	2.132	2.782	4.749	6.028	4.416	3.019	2.601	3.163	4.260	6.642	8.403	12.05	17.95	40.17	63.46	33.09
300.0	674.9	771.3	714.2	483.4	310.2	275.4	273.4	297.2	378.3	571.3	1083	874.0	578.2	597.4	971.1	4946	5960	562.1	19.16	5.332	3.452	2.670	1.818	1.784	1.565	1.248	1.064	1.080	0.813	0.875	0.752	0.737	0.731	0.835	1.096	1.360	1.280	1.276	1.099	1.162	1.120	1.155	1.196	1.297	1.561	1.965	1.951	2.357	2.009	1.725	1.509	1.477	1.373	1.349	1.342	1.233	1.371	1.523	1.388	1.752	1.799	2.197	2.295	3.362	5.024	6.397	5.890	3.740	3.140	3.277	3.392	3.173	3.893	5.171	11.59	29.68	53.73
305.0	734.0	825.9	769.1	540.4	372.1	340.6	338.3	374.2	444.4	573.2	909.5	1272	765.3	498.3	438.7	1409	5711	5104	80.26	10.06	4.540	3.264	2.524	2.055	1.657	1.252	1.224	1.252	0.851	0.911	0.736	0.707	0.699	0.829	1.102	1.383	1.356	1.444	1.231	1.181	1.120	1.159	1.455	1.388	1.782	2.093	2.194	2.349	2.376	1.997	1.734	1.778	1.715	1.512	1.540	1.413	1.699	1.795	1.695	2.122	2.071	2.405	2.219	2.999	4.063	4.883	6.813	6.642	4.980	3.640	3.058	2.682	2.530	2.550	3.643	7.692	16.96
310.0	744.9	847.8	807.0	589.4	450.0	416.6	425.9	463.9	526.8	648.2	838.5	1138	1211	750.9	442.0	510.3	1618	4397	5093	1438	24.28	4.563	3.199	2.428	1.874	1.699	1.317	1.144	0.962	1.059	0.842	0.712	0.753	0.895	1.158	1.254	1.388	1.413	1.372	1.287	1.157	1.285	1.465	1.499	1.762	2.069	2.323	2.588	2.561	2.158	1.911	2.107	1.921	1.795	1.794	1.829	1.987	1.992	2.225	2.466	2.418	2.751	3.097	3.479	3.924	4.205	5.036	6.019	6.499	6.193	5.022	3.707	2.733	2.394	2.266	2.952	4.882
315.0	771.3	941.5	882.4	670.3	513.5	481.2	498.8	540.1	600.6	716.7	876.9	1035	1169	1188	644.0	396.4	534.2	1104	2823	6475	516.4	25.53	4.970	3.307	2.514	1.802	1.600	1.270	1.280	0.961	1.109	0.780	0.806	0.920	1.185	1.207	1.343	1.367	1.257	1.408	1.202	1.207	1.469	1.481	1.986	2.386	2.293	2.853	2.787	2.276	2.072	2.178	2.067	1.951	2.035	2.106	2.199	2.235	2.552	2.408	2.831	3.049	3.368	4.001	3.961	4.399	4.877	5.114	5.560	5.567	6.632	6.491	4.620	3.063	2.508	2.295	2.300
320.0	948.6	1208	1162	826.1	617.1	550.8	572.3	614.8	676.1	802.5	969.6	1109	1155	1254	998.5	482.5	353.9	391.8	771.8	4038	4308	422.0	13.66	5.008	3.129	2.152	1.792	1.268	1.513	1.180	1.105	0.823	0.911	0.950	1.114	1.154	1.322	1.356	1.278	1.372	1.291	1.403	1.679	1.850	2.375	2.719	3.123	3.904	3.703	3.168	2.683	2.606	2.587	2.245	2.177	2.177	2.522	2.435	2.844	2.844	3.122	3.331	3.691	4.189	4.593	4.979	5.101	5.115	5.452	5.540	5.753	6.348	7.091	5.413	3.653	2.755	2.162
325.0	1406	1795	2078	1507	942.9	699.9	689.8	720.1	793.6	955.2	1134	1300	1339	1307	1269	779.6	417.6	302.1	303.5	1161	4586	3816	61.36	8.695	4.140	2.789	1.956	1.425	1.569	1.285	1.046	1.001	0.914	1.043	1.186	1.163	1.381	1.441	1.279	1.362	1.460	1.546	1.979	2.394	2.932	3.797	5.101	6.242	6.122	5.322	4.788	4.499	3.847	2.990	2.876	2.664	2.827	2.967	3.461	3.504	3.797	4.015	4.506	5.049	5.637	5.621	5.985	6.246	6.643	6.211	6.368	6.302	6.773	7.553	6.073	4.510	3.265
330.0	1999	3123	3549	2847	1724	1070	893.9	907.1	995.5	1186	1414	1611	1674	1577	1412	1188	722.0	437.0	314.7	429.7	1367	3591	4052	1129	19.58	4.411	2.928	2.022	1.830	1.586	1.354	1.124	1.065	1.120	1.316	1.303	1.399	1.581	1.565	1.672	1.806	1.937	2.565	3.207	4.189	5.803	7.378	9.637	10.46	9.702	8.791	8.608	7.058	5.390	4.399	3.694	3.845	3.733	4.151	4.136	4.614	4.951	5.453	5.891	6.649	7.054	7.562	7.727	8.057	8.260	7.999	7.803	7.639	7.568	7.581	7.319	6.504
335.0	2473	3877	4416	3757	2387	1441	1079	1045	1133	1352	1604	1807	1892	1787	1540	1257	1071	676.4	412.5	339.8	488.1	964.6	2539	5329	422.5	21.19	4.517	3.069	2.404	1.912	1.511	1.393	1.114	1.194	1.326	1.304	1.380	1.574	1.687	1.811	1.969	2.237	3.039	3.933	5.078	6.899	8.653	12.02	13.34	12.12	11.40	11.28	9.438	7.396	5.854	5.065	4.672	4.476	4.888	4.989	5.193	5.681	6.372	6.740	7.372	7.981	8.136	8.764	9.068	9.466	8.980	9.094	8.623	8.440	8.273	7.123	7.366
340.0	2702	4237	5016	4236	2709	1625	1199	1141	1231	1421	1685	1896	1974	1888	1621	1295	1086	887.0	524.0	363.9	325.9	388.6	735.4	3627	3524	351.5	10.30	4.159	2.687	2.155	1.925	1.586	1.332	1.208	1.321	1.344	1.318	1.625	1.684	1.781	1.895	2.477	3.051	4.170	5.623	7.473	9.859	12.80	14.40	14.05	12.63	13.21	11.29	8.223	6.788	5.286	5.140	5.223	5.275	5.469	5.488	5.934	6.732	7.310	7.855	8.295	8.669	9.126	9.443	10.27	9.939	9.602	9.447	9.193	8.545	7.742	7.614
345.0	2685	4365	5165	4422	2909	1767	1305	1205	1281	1470	1715	1912	1998	1926	1672	1347	1049	931.1	685.3	422.1	326.7	292.1	290.6	1069	4053	3182	52.02	6.251	3.313	2.323	1.964	1.570	1.576	1.294	1.196	1.431	1.507	1.496	1.511	1.966	2.077	2.419	2.996	4.251	5.823	7.583	9.916	12.98	15.32	14.79	13.43	14.05	12.27	9.225	7.431	5.845	5.701	5.291	5.271	5.636	5.923	6.457	6.993	7.510	8.120	8.668	8.749	9.461	9.351	10.20	9.932	9.902	9.719	9.214	8.592	8.047	7.522
350.0	2627	4064	4961	4385	3037	1892	1416	1284	1349	1497	1691	1865	1934	1862	1650	1358	1062	866.4	778.7	581.6	387.7	315.8	234.2	340.4	1209	3103	3324	895.8	16.70	3.558	2.536	1.819	1.506	1.367	1.317	1.429	1.505	1.606	1.490	1.865	1.943	2.289	3.094	3.988	5.386	7.441	9.364	12.23	14.34	13.93	13.26	13.58	12.32	9.542	7.964	6.448	6.285	5.735	5.804	5.948	6.147	6.598	6.951	7.752	8.109	8.504	8.788	8.918	9.373	9.756	9.704	9.917	9.491	9.347	8.864	8.129	7.717
355.0	2343	3706	4567	4059	2927	1985	1552	1403	1434	1556	1697	1812	1857	1768	1600	1333	1077	858.7	736.3	699.5	526.4	377.8	269.4	221.0	364.0	777.1	2249	4306	380.2	16.73	3.706	2.485	1.872	1.516	1.550	1.384	1.525	1.662	1.413	1.618	1.842	2.153	2.845	3.719	5.281	7.120	8.426	11.34	12.89	12.49	12.19	13.02	11.77	9.464	8.456	6.912	6.953	6.374	6.403	6.562	6.530	7.111	7.460	7.843	8.256	8.309	8.059	8.829	8.804	9.443	9.416	9.106	9.216	8.975	8.917	7.936	7.843
360.0	2177	3352	4151	3817	2852	2038	1639	1513	1528	1604	1708	1783	1789	1714	1555	1313	1082	874.9	737.1	679.2	644.7	457.0	316.3	227.2	206.3	259.3	639.2	3211	3164	309.0	8.161	3.037	2.259	1.742	1.469	1.498	1.633	1.633	1.475	1.733	1.798	2.317	2.576	3.587	4.816	6.162	7.501	10.12	11.66	11.59	11.24	12.25	11.33	9.477	8.404	7.107	6.981	7.031	7.162	7.208	7.136	7.407	7.841	7.914	8.490	8.087	8.461	8.656	8.791	9.238	9.312	9.187	8.842	8.806	8.556	8.280	7.776
365.0	1979	3077	3773	3583	2789	2061	1682	1564	1595	1654	1725	1743	1736	1655	1505	1302	1085	896.8	760.3	662.1	658.5	572.9	374.0	267.1	204.5	167.0	218.0	978.8	3686	2833	47.13	5.559	2.849	2.066	1.941	1.493	1.516	1.713	1.481	1.647	1.586	2.170	2.519	3.149	4.356	5.982	6.741	9.442	10.47	10.73	10.29	12.27	11.00	9.551	8.469	7.169	7.383	7.488	7.407	7.296	7.400	7.634	8.027	7.785	8.486	8.492	8.042	8.701	8.514	8.698	8.631	8.620	8.931	8.453	8.655	8.224	7.760
370.0	1781	2737	3319	3239	2604	2051	1733	1630	1634	1682	1720	1700	1667	1574	1442	1264	1080	923.2	793.7	690.4	636.4	632.2	514.6	346.5	255.3	194.9	160.1	294.2	1127	2876	3000	747.2	14.40	3.052	2.336	1.632	1.622	1.518	1.599	1.538	1.665	2.000	2.497	2.969	4.089	5.303	6.268	8.294	9.472	9.315	9.151	10.88	10.01	9.103	8.467	7.186	7.506	7.575	7.525	7.714	7.681	7.901	8.167	8.279	8.484	8.497	8.483	8.448	8.323	8.606	8.299	8.606	8.416	8.195	8.144	7.762	7.627
375.0	1623	2392	2929	2873	2471	2036	1764	1679	1684	1692	1710	1671	1602	1492	1370	1225	1074	937.9	821.3	727.3	658.9	621.0	607.8	484.6	333.7	256.3	193.6	176.7	327.6	722.5	2179	3741	323.5	14.08	3.069	2.131	1.664	1.609	1.587	1.655	1.707	1.800	2.255	2.797	3.576	4.642	5.288	7.193	8.121	8.169	8.331	9.510	9.469	8.538	8.410	7.645	7.906	7.729	7.691	7.807	7.708	7.736	7.879	8.035	8.300	8.381	8.291	8.374	7.918	8.194	8.156	8.249	8.000	7.846	7.817	7.846	7.340
380.0	1491	2143	2676	2636	2334	2014	1770	1690	1684	1703	1688	1648	1565	1456	1328	1190	1059	936.0	835.5	757.4	685.1	636.1	600.3	579.5	426.8	310.4	235.1	182.0	174.4	230.7	622.1	2866	2700	251.9	6.667	2.780	2.021	1.770	1.676	1.674	1.821	1.940	2.091	2.637	3.297	3.974	4.898	6.484	7.304	7.294	7.722	9.162	9.070	8.468	8.400	7.419	7.940	7.788	7.365	7.795	7.677	7.845	8.291	8.115	8.162	8.237	8.137	7.918	7.788	7.736	7.916	7.750	7.782	7.436	7.404	7.560	7.325
385.0	1378	1990	2382	2461	2229	1992	1767	1688	1673	1672	1649	1606	1521	1414	1285	1157	1038	940.6	853.2	770.2	707.0	663.3	598.7	587.0	515.3	370.9	277.6	213.0	165.9	141.5	199.0	882.1	3070	2290	38.41	4.348	2.798	2.025	1.725	1.747	1.506	1.847	2.139	2.414	3.153	3.861	4.756	5.731	6.627	6.767	7.114	8.306	8.719	8.186	8.333	7.697	8.109	7.552	7.552	7.701	7.578	7.980	8.047	8.016	7.995	8.124	7.949	7.726	7.881	7.826	7.547	7.866	7.743	7.594	7.102	7.149	6.858
390.0	1286	1826	2181	2249	2078	1897	1746	1658	1622	1627	1594	1533	1448	1352	1228	1112	1011	924.0	853.2	780.7	730.9	682.7	620.0	572.9	556.8	476.1	342.8	260.4	200.6	154.7	128.6	252.4	925.4	2233	2302	571.1	12.32	2.866	2.082	1.887	1.750	1.782	1.993	2.371	2.968	3.697	4.435	5.227	6.088	6.298	6.360	7.599	7.684	7.857	7.802	7.372	7.831	7.433	7.824	7.676	7.456	8.003	7.806	7.727	7.817	7.941	7.586	7.200	7.144	7.382	7.407	7.599	7.227	7.191	7.175	6.984	7.161
395.0	1204	1693	1953	2069	1962	1836	1689	1616	1590	1565	1551	1469	1395	1286	1175	1063	979.4	905.6	846.7	790.1	741.5	694.6	645.3	588.8	546.6	526.1	440.3	316.7	247.3	188.7	141.7	131.7	255.3	554.3	1627	2736	268.8	13.01	2.789	2.219	1.977	2.015	2.065	2.395	2.913	3.441	4.103	4.746	5.531	5.714	5.782	7.001	7.354	7.387	7.263	7.053	7.385	7.301	7.428	7.616	7.555	7.556	7.236	7.676	7.263	7.312	7.458	7.111	6.928	6.905	6.836	7.186	6.425	6.576	6.828	6.685	7.075
400.0	1178	1547	1838	1934	1841	1761	1662	1597	1534	1519	1502	1440	1354	1247	1134	1027	950.2	883.9	833.3	785.5	743.0	701.7	658.2	602.8	551.9	519.3	494.7	379.5	279.8	221.4	164.3	123.4	119.7	165.2	453.3	2027	2194	219.2	6.583	2.806	1.954	2.155	2.180	2.366	2.594	3.213	3.909	4.445	5.061	5.116	5.455	6.496	6.974	7.045	7.165	6.868	7.316	7.101	7.412	7.603	7.073	7.200	7.015	7.337	7.185	7.000	6.922	6.951	6.991	6.623	6.702	6.717	6.442	6.300	6.562	6.702	6.805
405.0	1108	1478	1748	1830	1774	1714	1654	1548	1507	1490	1457	1393	1311	1205	1094	1002	920.3	867.6	815.2	769.6	731.4	698.4	657.7	609.2	559.9	513.6	491.2	442.9	323.2	250.6	187.7	139.2	104.0	89.65	136.6	604.9	2188	1870	34.92	4.425	2.612	2.345	2.128	2.284	2.476	3.024	3.549	4.281	4.994	5.017	5.160	6.444	6.890	6.884	6.898	6.866	7.177	7.150	7.586	7.482	6.757	6.912	7.015	7.105	7.130	6.826	6.607	6.678	6.698	6.656	6.532	6.195	6.220	6.289	6.135	6.346	6.660
410.0	1070	1379	1608	1685	1658	1623	1569	1499	1462	1428	1391	1325	1243	1154	1051	952.3	883.0	832.5	788.4	745.3	713.3	686.4	653.8	614.8	567.8	520.6	475.1	452.4	395.4	297.9	222.8	166.8	121.9	88.38	78.58	167.1	638.6	1625	1726	482.3	11.46	2.730	2.425	2.269	2.595	2.929	3.357	4.015	4.586	4.663	4.658	5.953	6.405	6.206	6.415	6.463	6.959	6.956	6.790	6.738	6.787	6.660	6.975	6.604	6.668	6.745	6.375	6.417	6.400	6.261	6.141	6.337	6.094	6.055	5.993	6.275	6.224
415.0	998.0	1293	1492	1587	1547	1533	1486	1436	1402	1372	1331	1260	1183	1091	996.8	909.8	838.6	791.5	751.6	714.0	683.4	664.7	638.1	603.0	566.4	520.0	477.4	436.0	413.9	357.6	259.2	191.0	141.4	104.2	77.91	79.49	171.6	396.4	1115	2053	246.1	12.75	3.059	2.573	2.587	3.036	3.213	3.893	4.058	4.126	4.327	5.528	5.970	5.960	6.014	6.218	6.648	6.752	6.387	6.449	6.801	6.292	6.835	6.360	6.480	6.192	6.450	6.223	5.916	5.976	5.993	5.953	5.465	5.917	5.516	6.277	5.646
420.0	896.0	1224	1413	1494	1497	1453	1441	1388	1352	1319	1289	1212	1125	1035	946.1	863.9	800.1	755.8	726.2	686.2	662.1	641.6	618.5	595.7	555.8	516.5	476.1	429.6	397.5	385.9	298.7	208.3	158.2	116.6	85.55	68.47	73.47	112.6	301.5	1422	1795	204.6	6.594	2.966	2.916	3.233	2.856	3.995	3.854	4.040	4.109	5.298	5.656	5.580	5.698	5.884	6.267	6.490	6.399	6.086	6.292	6.352	6.409	6.080	6.130	6.011	5.848	5.869	5.689	5.627	5.530	5.365	5.241	5.771	5.367	5.226	5.223
425.0	880.4	1155	1340	1410	1425	1408	1390	1357	1325	1282	1242	1169	1087	998.7	901.2	819.5	766.7	725.0	691.2	658.8	633.5	618.1	595.7	577.2	548.6	511.3	470.1	428.7	390.6	373.7	334.1	236.3	172.3	130.5	97.17	71.90	57.01	53.10	86.53	410.5	1581	1493	33.47	4.399	3.253	3.049	2.895	3.736	3.837	3.934	4.033	4.963	5.260	5.339	5.422	5.731	6.028	6.050	6.583	6.050	5.926	6.185	6.139	6.024	5.997	5.716	5.894	5.312	5.716	5.288	5.373	5.236	5.397	5.537	5.177	5.126	5.138
430.0	927.1	1107	1262	1318	1338	1321	1328	1310	1283	1235	1192	1125	1036	953.8	853.6	779.4	725.9	679.5	656.8	625.9	605.6	588.6	572.3	552.3	530.7	497.8	466.2	430.0	391.2	358.5	332.8	281.4	199.9	148.1	111.4	84.08	63.48	47.75	45.06	110.1	440.4	1164	1357	441.7	12.40	3.427	3.070	3.687	3.666	3.608	3.728	4.839	5.115	5.097	5.293	5.307	5.846	5.861	5.975	6.019	5.925	5.908	6.011	5.887	5.749	5.579	5.420	5.254	5.419	5.190	5.236	4.987	5.123	5.080	5.007	4.799	4.830
435.0	1210	1040	1178	1253	1240	1257	1271	1268	1258	1199	1153	1075	982.5	903.1	812.9	743.8	686.6	644.8	614.4	594.2	570.6	558.2	541.7	532.5	512.8	486.5	456.4	428.5	396.9	359.2	318.7	291.7	243.2	171.8	127.6	98.44	75.56	56.05	42.47	47.93	115.3	277.8	774.3	1707	241.2	15.85	3.623	3.633	3.724	3.536	3.701	4.560	4.879	5.015	4.983	5.030	5.888	5.659	5.653	5.604	5.676	5.796	6.059	5.653	5.789	5.562	5.164	5.097	5.247	4.722	4.865	4.773	5.052	4.935	4.480	4.643	4.887
440.0	1485	1072	1097	1178	1181	1205	1234	1233	1220	1166	1123	1048	957.2	870.0	779.4	709.9	654.4	620.9	585.7	562.4	542.9	535.0	522.8	510.3	495.4	472.2	448.4	420.1	393.4	358.8	318.1	280.1	254.5	197.3	140.3	108.8	83.39	62.35	47.58	39.17	46.33	76.87	203.4	1078	1628	211.6	9.435	4.023	3.681	3.766	3.591	4.353	4.805	4.824	4.767	4.848	5.318	5.539	5.408	5.417	5.545	5.675	5.585	5.519	5.465	5.363	5.193	5.014	4.875	4.677	4.614	4.423	4.872	4.504	4.592	4.509	4.717
445.0	1546	1335	1079	1138	1142	1167	1174	1187	1183	1129	1090	1011	924.4	833.9	741.2	677.5	622.3	584.4	559.4	536.6	522.4	509.7	501.6	487.9	480.6	457.5	434.9	411.7	385.7	355.5	316.1	272.9	244.1	214.2	154.3	117.8	91.94	68.34	53.48	40.56	33.89	34.76	58.30	297.6	1281	1480	153.8	6.329	3.998	3.549	3.520	4.382	4.640	4.624	4.852	4.753	5.101	5.518	5.560	5.107	5.407	5.628	5.306	5.380	5.190	5.022	5.188	4.954	4.776	4.601	4.624	4.652	4.347	4.523	4.295	4.023	4.222
450.0	1103	1808	1150	1057	1072	1096	1113	1136	1122	1077	1027	946.5	869.4	784.5	700.7	631.1	578.2	540.5	514.4	495.4	483.3	470.9	462.7	454.3	445.7	429.5	410.4	393.7	370.6	346.0	310.7	267.8	230.6	208.0	177.1	132.1	98.62	76.64	59.70	46.26	36.49	29.39	29.00	78.82	342.8	985.2	1322	471.7	13.07	3.808	3.434	4.116	4.237	4.122	4.478	4.355	4.833	4.886	5.249	5.124	5.032	5.186	5.233	5.025	4.972	4.824	4.727	4.699	4.556	4.357	4.300	4.191	4.160	4.207	3.784	3.955	4.094
455.0	697.3	1720	1673	983.1	962.8	1019	1042	1052	1059	1008	954.3	889.1	799.0	721.8	649.3	578.3	526.8	498.4	468.2	450.3	438.4	429.5	421.4	415.8	409.2	390.0	379.0	362.8	346.7	327.5	296.5	260.1	221.5	192.7	173.1	150.7	111.0	84.09	65.06	51.59	40.83	31.78	26.38	32.58	87.58	231.7	593.2	1426	210.7	15.49	3.807	3.927	4.095	3.930	3.971	4.232	4.815	4.530	4.915	4.622	4.819	4.627	4.695	4.760	4.582	4.368	4.458	4.129	4.201	3.544	3.934	3.888	4.069	3.813	3.457	3.428	3.609
460.0	587.4	1241	2135	1061	914.0	943.5	975.3	991.2	994.8	964.2	910.3	835.2	752.0	672.2	607.3	538.6	494.4	461.2	431.5	418.5	404.4	398.3	391.0	387.4	378.3	367.6	352.1	342.4	331.0	312.2	284.3	251.9	214.3	184.3	162.1	151.1	121.8	89.06	69.55	55.93	43.70	34.50	27.40	23.04	32.59	62.05	148.9	744.2	1310	179.7	11.07	3.988	4.172	3.939	3.898	3.909	4.406	4.331	4.556	4.488	4.602	4.400	4.609	4.445	4.233	3.989	4.180	4.060	3.776	3.816	3.542	3.682	3.650	3.730	3.355	3.230	3.533
465.0	521.3	854.5	2083	1440	856.4	879.9	912.3	929.2	928.1	901.2	860.6	793.9	707.5	634.1	566.4	506.2	453.4	428.0	402.1	387.5	371.0	364.4	359.5	355.3	348.1	340.5	328.3	320.4	310.5	293.6	270.6	241.7	207.1	178.0	152.5	140.5	127.3	94.91	72.98	58.38	46.23	37.07	29.41	23.51	21.95	25.07	42.57	192.4	886.1	1164	147.4	8.268	4.350	3.826	3.734	3.570	4.202	4.172	4.187	4.320	4.407	4.382	4.278	4.218	4.389	4.038	4.070	3.494	3.838	3.514	3.474	3.481	3.506	3.464	3.173	3.260	3.074
470.0	482.9	635.7	1363	2022	981.8	789.6	819.8	844.0	842.6	819.3	778.9	721.4	643.3	572.7	510.2	454.1	411.0	386.2	364.3	344.7	331.8	325.8	321.9	318.2	311.6	304.6	296.2	288.2	280.1	269.4	249.9	224.7	194.6	168.1	144.6	126.4	118.5	103.4	79.38	60.32	48.66	39.30	31.63	25.62	21.66	18.85	19.89	51.64	226.8	654.1	909.0	413.6	14.84	4.074	3.655	3.490	3.798	3.909	3.850	3.788	4.055	4.146	3.931	3.817	3.958	3.746	3.546	3.403	3.463	3.330	3.193	3.060	2.993	3.013	2.859	3.027	2.832
475.0	437.8	543.4	778.4	1805	1606	738.9	732.4	755.5	759.2	736.2	701.5	655.6	585.3	513.7	455.9	400.3	364.0	338.4	320.8	308.3	294.7	288.6	283.5	280.7	272.8	270.4	263.7	258.0	250.8	241.8	227.7	203.5	181.1	155.6	135.3	116.9	104.3	96.60	86.08	65.01	50.40	40.50	33.24	27.54	22.77	19.20	16.29	20.91	58.36	152.8	320.0	886.9	541.7	19.64	3.682	3.318	3.598	3.489	3.449	3.513	3.478	3.552	3.419	3.422	3.193	3.299	3.348	2.985	2.989	2.832	2.849	2.791	2.770	2.761	2.650	2.453	2.586
480.0	422.0	528.1	588.4	1216	2109	837.5	674.7	713.0	706.0	686.1	659.0	607.5	542.8	478.6	419.5	371.6	337.8	309.8	290.9	283.1	270.5	260.7	259.2	253.1	250.9	247.9	242.7	238.7	232.7	227.3	210.7	190.0	171.3	148.2	127.8	110.9	98.32	86.85	85.75	70.88	52.22	41.57	33.84	28.72	23.91	20.77	16.87	14.82	21.59	41.04	78.86	372.9	985.4	209.9	14.51	3.585	3.506	3.424	3.359	3.449	3.284	3.329	3.378	3.125	3.265	2.924	3.133	2.927	2.771	2.721	2.470	2.698	2.467	2.607	2.395	2.277	2.341
485.0	377.7	505.9	520.7	776.1	2045	1278	641.3	656.5	668.7	645.5	613.9	567.7	513.6	448.5	394.6	350.8	318.7	290.3	271.5	258.3	249.9	241.0	238.6	234.3	232.6	229.8	224.0	220.0	219.2	211.5	199.0	181.8	160.7	141.5	122.8	106.4	94.71	82.39	78.92	73.16	57.30	42.97	36.21	30.13	25.08	21.76	17.97	14.60	14.22	16.76	24.18	93.42	532.5	917.3	183.2	8.875	3.496	3.343	3.251	3.233	3.397	3.130	3.253	3.029	2.859	2.917	3.016	2.669	2.609	2.717	2.592	2.553	2.421	2.340	2.226	2.394	2.166
490.0	323.8	475.1	494.0	566.0	1274	1971	822.7	605.4	609.8	593.3	569.1	518.0	467.5	413.6	363.4	320.1	290.5	267.2	247.3	234.9	225.9	219.2	213.5	211.1	209.5	206.1	203.5	200.0	197.7	191.9	181.8	167.5	148.6	132.0	116.3	102.5	90.13	78.58	71.06	67.85	62.31	47.93	37.34	31.34	26.92	22.75	19.41	16.48	13.83	12.18	12.24	26.85	131.6	423.5	746.9	462.0	16.99	3.642	3.211	3.165	3.100	3.047	2.895	2.848	2.753	2.737	2.659	2.488	2.445	2.439	2.259	2.266	2.401	2.062	2.092	1.967	2.029
495.0	256.8	402.2	485.2	485.5	670.4	1774	1486	567.5	548.2	536.9	515.4	471.0	418.4	373.7	324.8	286.0	259.2	239.7	223.0	210.8	202.1	196.1	191.4	188.8	185.9	182.6	183.0	177.4	179.7	173.9	166.4	151.8	137.5	122.4	106.8	95.08	85.85	73.88	65.87	60.08	57.99	53.57	40.42	31.86	27.05	23.45	20.02	17.39	14.88	12.15	9.929	12.61	35.05	99.24	249.1	791.2	621.9	24.00	3.608	2.896	2.798	2.915	2.684	2.536	2.421	2.361	2.427	2.079	1.992	2.089	2.144	2.177	2.000	1.921	1.908	1.868	1.788
500.0	232.3	363.4	481.6	441.9	486.6	1143	2063	681.8	508.2	497.3	468.4	426.4	390.4	335.2	297.9	265.9	235.3	217.4	203.1	193.3	183.8	177.5	175.9	171.7	168.2	165.5	165.7	162.7	162.2	160.2	152.1	141.1	127.8	113.0	99.88	89.17	81.06	71.69	62.73	56.03	52.46	52.06	43.54	33.24	27.80	24.16	20.76	17.34	15.24	12.67	10.16	9.907	13.77	27.27	61.14	305.4	922.0	236.3	17.41	3.118	2.542	2.580	2.351	2.255	2.391	2.313	2.392	2.003	1.946	1.993	1.892	1.901	1.911	1.645	1.835	1.693	1.713
505.0	214.5	311.3	432.9	419.6	403.5	653.1	2083	1115	468.0	454.3	437.6	398.8	358.1	314.1	276.4	242.5	215.6	198.7	185.6	176.1	164.8	161.3	160.5	155.1	153.8	152.5	148.9	148.3	148.0	146.0	139.6	130.0	117.6	104.3	92.37	84.21	75.13	67.82	60.51	53.90	48.23	46.58	45.50	36.53	27.92	23.81	20.77	17.15	15.19	13.32	10.81	9.314	8.878	11.27	18.31	75.04	435.8	846.5	205.4	10.53	2.672	2.638	2.319	2.238	2.247	2.289	2.117	2.033	1.874	1.941	1.623	1.653	1.730	1.815	1.530	1.659	1.622
510.0	188.7	267.5	350.7	405.5	359.6	422.8	1239	1918	617.0	401.8	385.7	352.6	317.4	279.0	243.1	212.7	189.8	174.1	162.6	152.9	147.3	141.1	139.2	135.1	133.5	133.5	129.7	130.9	130.4	128.0	121.4	113.7	103.6	94.53	84.67	75.66	68.65	61.63	55.14	49.18	44.62	40.37	40.94	37.69	29.59	24.22	20.35	17.64	15.31	13.08	11.35	9.633	8.134	7.989	9.047	20.87	105.9	364.8	629.2	382.5	16.35	2.854	2.309	2.041	2.131	2.019	1.946	1.696	1.725	1.809	1.651	1.572	1.503	1.554	1.376	1.459	1.509
515.0	177.3	228.3	274.5	369.1	351.9	340.1	551.9	1839	1328	368.7	340.9	313.7	276.9	245.9	213.7	186.9	165.8	154.6	141.7	134.2	127.6	121.3	119.8	115.9	116.8	115.2	112.8	113.5	112.2	111.0	106.9	100.3	91.50	83.10	73.88	67.21	61.37	54.50	49.62	44.08	39.98	36.17	34.36	34.88	32.08	25.16	20.20	17.71	15.15	13.08	11.25	10.11	8.321	7.239	6.773	9.188	27.59	85.18	194.7	605.7	467.4	22.31	2.401	2.058	2.061	1.919	1.827	1.691	1.419	1.544	1.448	1.396	1.322	1.330	1.231	1.345	1.381
520.0	164.1	199.9	234.4	310.3	352.6	293.6	349.9	1117	2067	473.8	308.7	281.6	249.9	217.6	190.9	170.9	149.1	138.7	125.8	119.7	114.2	109.4	105.3	105.4	103.2	102.6	100.6	99.69	101.7	99.02	95.50	88.96	82.46	74.67	67.43	61.56	55.52	50.77	45.43	41.29	37.51	33.50	30.52	30.25	31.23	26.87	21.17	16.91	14.61	12.83	11.06	10.13	8.739	7.236	6.591	6.432	10.25	22.61	47.50	229.3	668.7	231.2	14.98	2.165	1.817	1.674	1.520	1.399	1.455	1.454	1.262	1.149	1.399	1.111	1.163	1.230	1.248
525.0	149.0	182.6	211.6	265.0	341.0	283.3	292.9	555.1	2225	940.0	281.8	253.4	228.0	200.6	173.4	152.4	135.1	123.1	114.9	107.9	103.0	98.60	96.31	94.28	93.22	92.13	91.23	91.18	90.55	90.14	88.11	81.63	75.68	68.36	61.33	56.34	51.54	45.67	41.23	38.66	34.83	30.92	28.16	26.68	28.13	26.96	21.66	17.12	13.86	12.12	10.38	9.437	8.696	7.587	6.433	5.851	6.561	8.574	13.90	55.91	306.8	615.9	186.0	6.928	1.795	1.533	1.591	1.219	1.281	1.326	1.382	1.090	1.163	1.083	1.051	1.137	0.988
530.0	125.5	156.4	189.8	213.1	290.6	276.5	250.8	316.3	1243	1951	418.4	224.0	198.7	176.5	151.9	133.0	118.7	108.6	99.60	94.60	89.59	86.89	82.57	82.18	80.80	79.56	78.97	79.03	79.18	77.80	75.55	71.31	65.71	59.33	53.70	49.74	45.37	41.51	37.99	34.34	31.36	28.39	25.70	23.53	22.69	23.69	22.33	17.28	13.58	11.62	10.32	9.026	7.955	7.561	6.676	5.841	5.392	5.582	6.396	15.35	74.11	259.5	449.2	230.0	14.82	1.689	1.456	1.243	1.229	1.168	1.154	1.019	0.979	0.949	0.905	0.936	0.902
535.0	99.40	141.2	169.4	177.6	219.0	279.9	226.2	230.2	467.0	1875	1188	203.6	171.2	151.2	130.5	115.9	102.6	92.70	85.41	81.72	77.21	73.17	71.42	70.86	69.77	67.48	67.01	66.70	67.67	66.20	64.76	60.40	55.49	50.18	46.24	42.46	39.24	36.56	33.64	30.06	27.17	25.08	22.63	20.82	19.59	19.10	20.24	18.00	13.60	11.20	9.233	8.504	7.673	6.951	6.723	5.784	5.282	4.734	4.538	6.310	19.11	60.21	135.1	411.2	241.9	19.19	1.427	1.367	1.057	1.102	0.972	0.923	0.988	0.864	0.894	0.844	0.896
540.0	84.40	120.2	139.3	160.6	174.4	256.0	222.0	200.0	254.9	1022	1944	231.7	153.8	137.4	114.8	100.2	89.93	82.89	76.01	70.51	66.46	64.82	62.48	61.51	60.28	59.40	57.96	58.07	58.85	58.34	56.60	52.53	48.91	45.81	41.39	37.22	36.21	32.38	29.38	27.17	24.05	22.92	21.21	19.22	17.69	16.25	17.24	17.49	14.46	11.00	8.890	7.616	7.219	6.265	5.923	5.978	4.911	4.647	4.227	4.211	6.736	15.82	32.55	153.1	441.4	209.6	11.61	1.334	1.043	0.941	0.879	0.833	0.807	0.835	0.783	0.725	0.754
545.0	76.62	104.9	122.6	146.3	147.5	213.5	233.5	179.7	188.6	427.7	2172	673.8	138.2	121.0	102.0	89.58	80.02	72.80	68.79	62.12	59.09	56.85	54.56	53.62	52.99	51.86	51.62	51.50	51.00	51.32	50.23	47.24	43.91	40.53	36.79	34.05	31.45	29.01	26.28	24.80	22.74	20.79	18.87	17.52	16.49	14.88	14.28	15.69	14.28	11.26	8.490	7.449	6.784	6.011	5.371	5.411	5.255	4.591	3.891	3.567	3.776	5.814	9.265	37.15	200.3	425.0	147.2	4.698	1.140	0.907	0.866	0.798	0.725	0.775	0.770	0.637	0.690
550.0	78.55	97.38	107.3	117.1	123.5	153.9	220.8	165.9	150.6	207.6	1104	1682	173.2	101.6	87.32	75.88	67.14	61.11	55.78	53.74	49.22	46.56	45.50	44.82	43.88	43.91	43.35	42.68	42.92	43.00	41.13	38.91	36.09	34.26	30.90	28.14	26.16	24.31	22.05	20.88	19.03	17.81	16.13	15.01	14.11	12.84	11.80	12.04	12.19	11.34	8.417	6.811	5.920	5.451	4.908	4.791	4.781	4.341	3.720	3.224	2.898	3.422	3.855	9.936	48.10	172.3	299.5	139.6	13.22	1.089	0.925	0.776	0.642	0.671	0.640	0.553	0.615
555.0	74.84	84.30	96.32	97.75	99.52	110.6	178.0	178.5	119.6	136.4	355.4	1696	820.1	89.70	73.43	61.77	54.86	50.16	45.04	43.73	39.87	37.56	37.63	36.46	35.35	35.74	34.23	35.21	34.96	34.31	33.53	31.38	29.88	27.89	24.56	23.27	20.96	20.02	18.70	17.22	15.97	14.95	13.39	12.48	11.81	10.68	9.496	9.223	8.941	9.952	8.722	6.409	5.363	4.620	4.180	4.140	3.901	3.816	3.803	3.177	2.552	2.628	2.365	3.735	12.16	39.90	88.79	258.6	207.5	16.76	1.025	0.798	0.560	0.595	0.607	0.495	0.522
560.0	70.09	91.59	88.38	87.43	88.95	97.55	126.8	185.1	115.0	109.8	159.4	890.7	1463	128.6	62.72	52.16	46.42	43.12	38.97	35.84	34.05	32.46	31.16	31.41	29.92	30.07	29.31	28.88	29.71	29.38	28.77	26.23	24.97	23.24	20.78	19.87	18.29	16.72	16.34	14.42	13.63	12.29	11.73	10.90	10.16	9.355	8.521	8.008	7.233	8.110	8.148	6.661	4.744	4.045	3.904	3.678	3.482	3.481	3.432	3.166	2.453	2.265	2.082	2.316	4.299	10.12	21.11	96.09	281.3	150.4	8.275	0.792	0.647	0.588	0.545	0.460	0.449
565.0	69.70	81.72	79.43	74.15	77.84	83.79	97.90	162.2	121.6	93.76	109.1	328.7	1791	399.4	54.02	45.31	38.99	36.90	32.99	31.50	29.80	27.23	27.29	26.50	25.68	24.78	24.58	24.97	23.96	24.23	23.75	22.57	21.05	19.38	18.05	16.75	15.75	14.22	13.64	12.38	11.67	11.00	9.810	9.402	9.101	8.420	7.891	6.944	6.360	6.328	6.884	6.666	4.988	3.532	3.679	3.371	3.289	3.036	3.135	3.178	2.338	2.110	1.973	1.972	2.293	3.524	5.930	23.23	121.0	260.9	35.20	3.273	0.815	0.631	0.577	0.427	0.384
570.0	68.18	89.05	83.47	69.33	66.12	67.58	75.31	118.2	140.0	86.94	88.21	134.9	938.6	1230	88.72	37.47	32.06	29.97	27.32	25.30	23.98	22.93	22.12	21.20	21.31	20.78	20.19	20.11	20.09	19.70	19.36	18.35	17.41	15.37	14.74	13.65	13.17	11.76	10.88	10.30	9.663	8.972	8.000	7.785	7.323	6.878	6.409	5.805	5.216	4.987	5.157	5.587	4.917	3.656	3.151	3.030	2.825	2.700	2.567	2.709	2.485	2.320	1.933	1.810	1.873	2.010	2.610	6.399	29.28	103.8	166.4	97.42	11.00	0.747	0.574	0.432	0.400
575.0	66.98	81.14	81.90	60.19	54.95	55.88	61.24	78.29	135.8	97.37	78.33	83.61	277.8	1339	499.6	33.63	26.40	25.29	21.73	20.42	19.01	18.55	17.61	16.46	16.53	16.76	16.29	16.03	15.61	16.16	15.24	14.35	13.70	13.00	11.74	10.71	10.39	9.709	9.073	8.235	7.758	7.499	6.591	6.645	5.828	5.972	5.118	4.604	4.552	3.922	3.701	3.835	4.351	3.866	3.027	2.572	2.332	2.234	2.272	2.283	2.300	2.453	2.156	1.941	1.856	1.721	1.808	2.534	7.856	24.57	50.03	152.3	126.8	11.75	0.542	0.461	0.449
580.0	65.00	77.83	75.36	54.58	52.52	48.54	51.73	61.27	110.0	112.1	73.46	70.04	104.7	731.8	1029	54.43	22.56	21.43	18.80	17.31	15.94	15.28	14.92	13.94	13.62	13.77	13.09	13.35	12.67	13.52	12.78	12.12	11.44	11.00	9.818	8.958	9.092	8.030	7.589	6.735	6.523	6.288	5.799	5.547	5.007	5.028	4.490	3.859	3.870	3.435	3.109	3.228	3.438	3.848	3.175	2.358	2.107	2.075	1.984	1.963	1.978	2.189	2.334	1.899	1.585	1.605	1.692	2.005	3.174	6.787	12.44	55.91	166.7	88.72	4.962	0.542	0.417
585.0	73.24	75.23	75.17	57.68	50.75	44.94	45.42	53.33	80.31	128.6	73.85	65.70	66.96	255.6	1314	114.3	20.24	18.72	17.06	14.66	14.23	13.47	13.04	12.23	12.09	11.68	11.67	11.56	11.10	11.84	11.19	10.56	9.822	9.417	8.575	7.732	7.568	6.482	6.283	6.095	5.759	5.602	5.072	4.767	4.471	4.450	3.840	3.570	3.400	2.851	2.721	2.555	2.873	3.035	3.092	2.384	2.039	1.814	1.835	1.711	1.770	2.020	2.305	1.974	1.728	1.537	1.925	1.782	1.887	2.803	4.005	13.95	71.36	155.3	32.90	2.114	0.457
590.0	69.11	78.17	71.15	52.09	43.89	41.44	42.01	48.57	58.61	112.4	89.92	60.72	55.46	89.54	703.1	727.4	40.42	14.83	13.73	11.67	12.00	11.15	10.65	9.998	9.817	9.642	9.312	9.440	9.324	9.466	9.147	8.580	8.018	7.332	7.114	6.603	6.089	5.871	5.192	4.983	4.638	4.500	4.197	4.038	3.892	3.739	3.258	3.118	2.917	2.488	2.331	2.272	2.124	2.340	2.758	2.400	1.932	1.697	1.578	1.599	1.658	1.676	1.980	2.021	1.895	1.625	1.678	1.680	1.819	1.868	2.141	4.152	17.37	60.56	100.4	64.51	8.937
595.0	71.04	70.46	64.59	50.95	41.34	38.61	36.46	39.36	46.90	77.97	106.4	60.20	48.29	47.48	195.5	894.3	246.2	13.67	10.90	10.00	9.055	8.397	8.532	8.389	7.561	7.587	7.174	7.388	7.465	7.577	7.205	6.725	6.446	5.850	5.493	5.301	4.979	4.952	4.224	3.975	3.678	3.702	3.258	3.271	3.048	3.072	2.717	2.579	2.489	2.151	1.936	1.839	1.729	1.841	2.153	2.420	2.064	1.663	1.498	1.484	1.304	1.410	1.423	1.624	1.909	1.901	1.653	1.641	1.912	1.734	1.703	2.079	4.697	14.28	29.39	88.30	77.72
600.0	61.46	63.54	63.76	45.66	41.34	33.94	35.92	40.16	44.36	57.32	107.2	72.50	47.16	38.59	63.57	530.9	618.7	21.88	9.757	8.442	7.260	8.023	7.194	6.559	6.379	6.252	6.271	6.272	6.511	6.330	5.830	5.568	5.283	5.074	4.653	4.207	4.249	4.015	3.616	3.647	3.268	3.283	2.700	2.740	2.575	2.712	2.450	2.083	2.099	1.883	1.694	1.415	1.513	1.568	1.701	1.796	2.102	1.688	1.338	1.339	1.347	1.466	1.306	1.515	1.709	1.837	1.693	1.712	1.773	1.755	1.648	1.614	2.088	4.051	7.355	30.99	96.41
605.0	54.49	59.60	58.76	41.16	39.55	32.79	36.98	37.55	41.84	48.39	92.58	86.24	47.95	35.65	33.57	188.8	815.5	72.92	8.917	7.676	6.532	6.610	5.915	6.253	5.481	5.198	5.411	5.246	5.305	5.409	4.836	4.975	4.696	4.397	4.071	3.975	3.605	3.407	3.155	3.214	2.810	2.855	2.521	2.277	2.218	2.389	2.116	1.842	1.711	1.624	1.544	1.322	1.404	1.210	1.390	1.612	1.941	1.659	1.241	1.299	1.235	1.510	1.137	1.432	1.423	1.778	1.698	1.750	1.539	1.700	1.571	1.594	1.436	1.656	2.235	7.588	39.39
610.0	52.54	59.97	53.11	42.13	35.04	31.75	32.27	34.24	41.01	45.92	69.34	96.13	54.89	36.93	27.23	57.21	480.6	438.2	18.63	6.350	5.369	5.386	4.934	4.762	4.607	4.791	4.534	4.357	4.427	4.110	4.155	4.224	4.035	3.500	3.332	3.259	3.082	2.804	2.679	2.594	2.335	2.177	2.013	1.829	1.862	1.807	1.667	1.687	1.497	1.272	1.279	1.156	1.152	0.982	1.080	1.308	1.484	1.547	1.348	1.195	1.221	1.205	1.208	1.306	1.319	1.465	1.813	1.941	1.544	1.727	1.706	1.524	1.364	1.140	1.269	2.294	9.516
615.0	41.53	55.60	45.45	44.24	33.45	30.43	29.95	32.78	38.80	45.97	57.49	85.90	69.58	37.75	27.14	26.67	133.8	601.4	78.46	6.025	4.610	4.628	4.041	4.275	3.629	3.482	3.974	3.436	3.767	3.384	3.326	3.002	3.174	2.865	2.659	2.584	2.312	2.437	2.194	2.027	1.908	1.820	1.656	1.508	1.515	1.462	1.232	1.430	1.237	1.116	1.035	0.898	0.908	0.958	0.958	1.068	1.113	1.290	1.297	1.203	1.039	1.102	1.191	1.094	1.261	1.341	1.487	1.752	1.824	1.650	1.663	1.461	1.269	1.050	1.011	1.120	2.650
620.0	49.74	46.58	52.11	38.52	30.97	30.93	30.93	31.59	37.17	42.65	51.57	70.73	80.63	41.18	26.32	19.63	41.20	392.0	364.4	8.764	4.152	3.796	3.608	3.328	3.123	3.256	2.884	2.977	2.840	2.863	2.676	2.592	2.741	2.554	2.475	2.313	2.063	2.183	1.808	1.740	1.675	1.574	1.305	1.327	1.319	1.197	1.010	1.076	1.077	0.921	0.890	0.799	0.747	0.765	0.743	0.911	0.908	1.021	1.276	1.088	0.986	1.022	0.984	1.112	1.157	1.206	1.419	1.507	1.708	1.773	1.569	1.285	1.094	1.005	0.937	0.796	1.001
625.0	38.84	48.16	45.01	39.99	31.46	31.42	27.56	31.25	35.04	41.64	48.27	58.17	83.79	45.98	28.75	18.64	19.02	147.6	554.8	41.92	3.901	3.310	3.202	2.848	2.647	2.755	2.570	2.729	2.480	2.485	2.414	2.193	2.283	1.914	2.008	1.942	1.830	1.740	1.582	1.572	1.317	1.346	1.108	1.130	1.075	1.054	0.971	0.936	0.920	0.721	0.703	0.711	0.636	0.725	0.702	0.726	0.806	0.720	0.917	1.115	0.933	0.892	0.813	0.922	0.953	1.087	1.122	1.241	1.467	1.663	1.525	1.176	1.043	0.923	0.790	0.658	0.598
630.0	39.53	44.89	46.14	35.38	30.91	28.70	27.57	31.13	33.68	39.11	46.91	50.22	71.26	58.84	29.03	18.52	13.72	41.61	364.7	280.1	8.039	2.926	2.488	2.407	2.236	2.152	2.114	2.116	2.024	2.075	1.972	2.020	1.740	1.604	1.653	1.527	1.491	1.421	1.255	1.315	1.062	1.062	0.920	0.950	0.820	0.907	0.810	0.820	0.717	0.685	0.631	0.598	0.579	0.590	0.639	0.556	0.573	0.671	0.769	0.934	0.876	0.856	0.772	0.804	0.781	0.902	0.979	1.020	1.068	1.336	1.263	1.049	0.861	0.733	0.668	0.561	0.498
635.0	37.17	46.67	45.96	35.22	30.01	24.97	28.77	29.31	30.32	36.55	43.26	47.99	56.76	66.58	33.45	19.76	12.78	15.86	104.0	444.3	56.63	2.621	2.030	2.087	2.074	1.715	1.702	1.673	1.572	1.676	1.581	1.605	1.419	1.366	1.238	1.208	1.108	1.018	1.020	0.893	0.910	0.852	0.873	0.717	0.701	0.682	0.696	0.677	0.608	0.588	0.473	0.546	0.463	0.487	0.461	0.472	0.455	0.544	0.523	0.704	0.813	0.788	0.674	0.727	0.681	0.851	0.800	1.009	0.928	0.985	1.003	1.050	0.747	0.589	0.619	0.480	0.369
640.0	41.35	49.83	44.23	34.01	27.81	26.04	27.42	28.17	30.61	36.45	42.03	47.47	51.08	62.76	39.63	19.85	12.87	9.716	28.83	323.5	231.1	4.136	1.807	1.863	1.617	1.427	1.565	1.319	1.313	1.428	1.246	1.239	1.281	1.035	1.039	1.020	0.940	0.912	0.902	0.752	0.716	0.777	0.570	0.632	0.621	0.592	0.604	0.579	0.509	0.552	0.419	0.426	0.433	0.435	0.447	0.393	0.448	0.429	0.518	0.586	0.692	0.754	0.664	0.698	0.605	0.674	0.661	0.735	0.780	0.847	0.836	0.870	0.673	0.595	0.583	0.366	0.435
645.0	42.86	53.59	49.81	38.08	27.18	25.15	26.03	29.83	29.48	37.15	43.56	47.79	49.54	53.96	49.44	21.82	13.25	8.708	11.06	130.7	388.4	22.75	1.638	1.602	1.399	1.201	1.226	1.264	1.177	1.205	1.154	1.007	1.076	1.085	0.963	0.998	0.918	0.818	0.843	0.688	0.689	0.679	0.553	0.533	0.534	0.659	0.493	0.580	0.414	0.471	0.445	0.454	0.448	0.354	0.403	0.441	0.432	0.404	0.441	0.488	0.541	0.684	0.681	0.720	0.590	0.582	0.705	0.661	0.655	0.732	0.710	0.711	0.844	0.567	0.523	0.381	0.411
650.0	52.74	65.09	63.71	44.67	32.87	27.36	28.46	27.47	31.90	37.04	44.94	49.73	49.92	49.33	53.92	25.97	14.36	9.112	7.366	37.78	366.4	66.56	2.140	1.534	1.155	1.006	1.212	1.053	1.196	1.042	1.168	0.975	0.841	0.877	0.922	0.865	0.753	0.715	0.793	0.626	0.619	0.665	0.640	0.511	0.516	0.487	0.474	0.529	0.471	0.469	0.423	0.419	0.480	0.371	0.362	0.397	0.396	0.384	0.352	0.474	0.375	0.538	0.562	0.630	0.606	0.590	0.548	0.652	0.616	0.642	0.579	0.685	0.622	0.571	0.660	0.386	0.484
