Sample:	'1
File name:	L2025090913¹ãÐËÂ·ÇÅ.FD3
Run date:	'16:44:30, 09/09/2025
Operator:	Administrator
Comment:	'

Instrument
Model:	F-2700 FL Spectrophotometer
Serial number:	3064-004
ROM Version:	4J14000 07

Instrument parameters
Measurement type:	3-D scan
Data mode:	Fluorescence
EX  Start WL:	220.0 nm
EX  End WL:	600.0 nm
EX Sampling interval:	5.0 nm
EM  Start WL:	230.0 nm
EM  End WL:	650.0 nm
EM Sampling interval:	5.0 nm
Scan speed:	12000 nm/min
EX Slit:	5.0 nm
EM Slit:	5.0 nm
PMT Voltage:	700 V
Response:	Auto 
Corrected spectra:	Off
Contour interval:	50.000

Peak integration
Integration method:	Rectangular
Sensitivity:	1
Threshold:	1.000

Peaks
No.	ApexEX/EM(nm)	Height(Data)
1	225.0/615.0	29.91
2	230.0/590.0	36.24
3	230.0/605.0	30.37
4	235.0/340.0	926.6
5	235.0/350.0	925.0
6	235.0/625.0	27.81
7	240.0/520.0	237.0
8	245.0/265.0	322.0
9	245.0/530.0	227.1
10	245.0/635.0	23.02
11	250.0/545.0	210.0
12	250.0/615.0	28.60
13	255.0/280.0	624.9
14	255.0/555.0	185.9
15	260.0/285.0	823.1
16	260.0/565.0	167.3
17	265.0/290.0	897.6
18	265.0/580.0	158.3
19	270.0/295.0	 1238
20	270.0/590.0	144.2
21	275.0/305.0	 1591
22	275.0/605.0	154.4
23	280.0/310.0	 1615
24	280.0/340.0	 1358
25	280.0/380.0	 1234
26	280.0/615.0	123.9
27	285.0/315.0	 1629
28	285.0/630.0	99.52
29	290.0/320.0	 1546
30	290.0/645.0	87.35
31	305.0/340.0	989.3
32	315.0/355.0	755.5
33	320.0/360.0	814.1
34	325.0/365.0	789.2
35	335.0/380.0	757.8
36	340.0/385.0	726.2
37	350.0/400.0	647.6
38	355.0/405.0	622.4
39	415.0/485.0	130.3
40	430.0/505.0	80.93
41	445.0/525.0	47.79
42	450.0/530.0	40.14
43	460.0/335.0	3.502
44	460.0/545.0	27.17
45	505.0/275.0	3.077
46	510.0/280.0	3.674
47	515.0/285.0	3.506
48	530.0/290.0	3.962
49	545.0/300.0	6.845
50	550.0/305.0	7.419
51	560.0/310.0	7.031
52	560.0/340.0	5.656
53	570.0/315.0	7.632
54	575.0/290.0	73.59
55	575.0/320.0	8.066
56	580.0/325.0	7.141
57	590.0/330.0	6.435

Data points
	220.0	225.0	230.0	235.0	240.0	245.0	250.0	255.0	260.0	265.0	270.0	275.0	280.0	285.0	290.0	295.0	300.0	305.0	310.0	315.0	320.0	325.0	330.0	335.0	340.0	345.0	350.0	355.0	360.0	365.0	370.0	375.0	380.0	385.0	390.0	395.0	400.0	405.0	410.0	415.0	420.0	425.0	430.0	435.0	440.0	445.0	450.0	455.0	460.0	465.0	470.0	475.0	480.0	485.0	490.0	495.0	500.0	505.0	510.0	515.0	520.0	525.0	530.0	535.0	540.0	545.0	550.0	555.0	560.0	565.0	570.0	575.0	580.0	585.0	590.0	595.0	600.0
230.0	9.563	428.2	 2614	 1438	94.55	7.898	4.895	5.463	3.799	3.955	4.611	3.530	4.042	3.301	3.186	2.977	2.136	1.809	1.868	1.688	1.607	1.510	1.192	1.256	1.167	1.007	0.922	0.809	0.892	0.710	0.692	0.687	0.693	0.657	0.746	0.638	0.520	0.662	0.636	0.444	0.546	0.622	0.670	0.546	0.446	0.410	1.745	6.088	10.27	7.202	2.714	0.545	0.312	0.239	0.258	0.156	0.221	0.191	0.177	0.185	0.227	0.186	0.101	0.173	0.022	0.080	0.160	0.097	0.057	0.097	0.091	0.178	0.040	0.075	0.039	0.069	-0.008
235.0	34.05	114.7	 1100	 3141	 1116	163.1	6.800	9.261	7.111	4.974	4.092	3.915	4.233	4.036	2.615	4.813	2.791	2.005	2.176	1.969	1.630	1.721	1.118	1.069	1.347	1.067	1.096	1.028	0.728	0.685	0.860	1.202	0.721	0.590	0.849	0.662	0.551	0.701	0.580	0.419	0.410	0.487	0.709	0.827	0.582	0.638	0.727	1.754	4.199	6.967	10.66	9.593	4.467	0.804	0.320	0.176	0.257	0.071	0.071	0.175	0.273	0.238	0.155	0.082	0.095	0.181	0.105	0.138	-0.098	0.156	-0.004	0.001	0.191	0.198	0.008	0.241	-0.070
240.0	52.64	70.11	283.7	 1828	 4161	976.1	79.32	9.989	7.312	5.853	5.501	4.631	4.348	3.951	2.917	3.032	1.982	2.020	2.239	1.658	1.607	1.584	1.292	1.280	1.196	1.324	1.199	0.968	0.866	0.970	0.866	0.878	0.809	0.666	0.833	0.533	0.652	0.422	0.385	0.464	0.527	0.611	0.572	0.478	0.530	0.940	0.587	0.871	1.371	2.264	6.330	13.52	15.27	10.65	2.661	0.332	0.319	0.252	0.057	0.164	0.296	0.175	0.047	0.106	0.085	0.055	0.063	0.008	0.024	0.209	0.139	-0.061	0.154	-0.005	0.140	0.158	-0.071
245.0	20.57	95.65	119.3	500.0	 2943	 5056	782.0	32.75	8.354	8.388	6.192	5.163	5.384	4.556	4.302	3.685	2.938	2.490	2.523	1.734	1.748	1.776	0.958	1.475	0.820	1.350	1.166	1.364	0.890	0.561	0.997	0.847	0.463	0.560	0.504	0.516	0.573	0.323	0.473	0.344	0.305	0.679	0.445	0.499	0.366	0.855	0.642	0.859	0.797	0.792	1.714	4.728	11.85	18.92	17.67	8.725	1.972	0.414	0.209	0.381	0.233	0.029	0.141	0.246	0.095	0.323	0.057	0.102	0.037	0.198	-0.028	0.137	0.092	0.071	0.058	-0.089	-0.054
250.0	4.878	52.18	139.2	211.7	790.3	 3114	 5179	 2741	214.8	11.83	8.759	7.925	6.057	4.571	4.514	3.544	3.840	2.586	2.247	1.440	1.709	2.124	1.499	1.680	1.116	1.279	0.997	1.399	0.832	0.719	0.925	0.749	0.619	0.707	0.530	0.525	0.521	0.467	0.363	0.465	0.471	0.662	0.427	0.443	0.395	0.465	0.500	0.767	1.076	0.730	0.780	1.381	3.062	6.690	11.48	17.20	20.84	17.82	9.022	2.347	0.263	0.058	0.058	0.171	0.184	0.268	0.072	0.160	0.140	0.101	-0.058	0.038	0.064	0.075	0.092	-0.071	-0.041
255.0	10.16	17.92	66.84	243.4	300.4	735.8	 2388	 7549	 4230	297.7	14.83	7.719	8.590	5.405	5.389	5.020	3.416	2.562	2.105	2.059	2.106	1.483	1.504	1.954	1.279	1.419	1.266	1.295	1.301	0.873	0.648	0.935	0.783	0.653	0.541	0.542	0.430	0.579	0.445	0.528	0.479	0.587	0.452	0.411	0.318	0.510	0.378	0.448	0.549	0.915	1.137	1.214	1.354	1.700	2.807	4.315	9.191	21.64	36.76	32.77	13.06	2.212	0.156	0.173	0.091	0.288	0.144	0.278	0.110	0.092	0.008	0.149	0.002	0.159	-0.046	-0.003	0.052
260.0	16.35	8.368	28.77	151.3	338.0	261.9	602.5	 4026	9999.9	 3619	153.4	13.74	8.975	8.775	6.876	4.701	3.172	3.150	2.687	2.674	2.428	1.790	2.097	1.881	1.267	1.245	1.249	0.932	1.078	0.822	0.811	1.359	0.680	0.620	0.464	0.390	0.469	0.631	0.474	0.559	0.382	0.782	0.629	0.455	0.289	0.583	0.416	0.440	0.571	0.579	0.745	1.460	1.632	1.262	1.064	1.165	2.559	6.353	18.59	39.62	46.80	30.00	8.631	0.892	0.088	0.241	0.175	0.107	0.094	0.016	0.032	0.085	0.026	0.110	0.171	0.138	-0.097
265.0	5.413	7.956	15.67	56.57	289.6	322.0	188.8	 1085	 6319	9999.9	 2754	65.51	11.95	11.39	7.215	6.342	4.176	3.684	2.704	2.847	2.586	2.329	1.878	1.829	1.416	0.963	1.570	0.757	1.580	1.271	0.793	0.814	0.698	0.915	0.586	0.692	0.496	0.565	0.627	0.450	0.470	0.740	0.719	0.557	0.421	0.359	0.753	0.614	0.389	0.368	0.442	0.805	1.574	1.744	1.530	0.667	0.913	1.753	4.630	13.27	30.05	51.88	48.30	24.68	4.162	0.521	0.317	0.216	0.191	0.301	0.220	0.162	0.135	0.083	0.175	0.149	0.044
270.0	9.577	14.80	23.77	28.84	102.8	304.7	362.2	332.3	 1656	 6016	9999.9	 6682	174.0	18.19	10.57	7.707	5.851	5.221	3.427	3.182	2.998	2.299	1.980	1.903	1.603	1.457	1.636	1.194	1.527	1.445	1.180	1.158	0.649	0.898	0.776	0.666	0.690	0.605	0.642	0.470	0.586	0.785	0.529	0.453	0.507	0.557	0.582	0.624	0.420	0.426	0.394	0.453	0.686	1.029	1.790	1.936	1.804	1.257	1.427	3.330	7.635	16.84	30.48	46.65	51.63	44.26	18.01	3.958	0.368	0.202	0.144	0.123	0.224	0.188	0.138	0.189	0.087
275.0	38.48	40.49	40.42	32.15	40.44	103.3	416.8	512.9	458.3	 1434	 4211	9999.9	9999.9	207.7	15.42	12.31	8.674	5.594	4.178	3.689	3.907	3.062	2.371	2.391	1.994	1.849	1.293	1.037	1.730	1.434	1.503	1.117	0.627	0.880	1.011	0.766	0.798	0.818	0.672	0.565	0.740	0.707	0.693	0.558	0.592	0.906	0.615	0.660	0.430	0.484	0.395	0.340	0.373	0.477	0.768	1.212	2.164	3.077	2.100	1.298	2.074	4.337	7.049	11.38	21.09	49.67	83.96	50.05	24.81	2.557	0.178	0.215	0.271	0.142	0.223	0.202	0.043
280.0	59.40	82.54	73.07	54.36	44.57	55.69	199.0	624.9	473.3	432.7	 1124	 5562	9999.9	 2589	123.1	15.15	10.53	7.311	5.214	4.344	3.733	3.072	2.366	2.310	2.001	1.910	1.698	1.589	1.301	1.798	1.254	1.467	0.827	0.944	0.865	0.780	0.889	0.995	0.574	0.932	0.682	0.801	1.029	0.657	0.906	0.893	0.776	0.657	0.621	0.509	0.590	0.414	0.368	0.694	0.494	0.566	1.096	2.378	3.674	3.115	1.599	1.680	2.301	3.226	5.475	13.82	37.13	72.93	100.5	44.80	13.34	0.760	0.222	0.117	0.205	0.059	0.167
285.0	98.09	135.9	123.2	88.36	59.03	54.62	105.8	361.5	823.1	401.8	433.2	 1558	 7889	9999.9	 1932	60.95	15.07	9.193	5.912	4.371	4.652	3.053	3.113	2.349	2.978	1.996	2.015	1.858	1.906	1.620	1.352	1.441	1.002	1.126	0.908	1.043	0.951	0.934	0.879	1.021	0.779	0.676	0.981	0.841	1.142	0.955	1.081	0.965	0.754	0.752	0.672	0.629	0.506	0.756	0.627	0.476	0.665	1.006	1.905	3.506	3.459	2.460	1.640	1.445	2.075	4.017	9.271	22.13	58.54	97.37	100.6	33.01	4.693	0.423	0.308	0.212	0.166
290.0	139.3	190.6	197.8	153.1	99.97	87.90	111.3	199.9	559.6	897.6	493.6	658.5	 2200	 7013	9999.9	 7309	103.8	15.28	9.274	7.241	5.195	3.933	3.711	3.311	2.677	2.408	2.151	1.488	1.733	1.633	1.216	1.350	1.053	1.170	1.130	1.144	0.897	1.033	0.879	1.032	1.147	0.948	1.219	1.015	1.173	1.144	1.236	1.379	1.305	1.041	0.867	0.803	0.676	0.743	0.628	0.563	0.755	0.814	1.207	1.609	2.773	3.901	3.962	3.021	2.005	2.211	3.438	6.426	14.89	28.53	53.46	73.59	70.10	64.97	21.93	4.859	0.469
295.0	175.5	233.5	270.8	234.0	147.9	139.7	144.1	210.6	349.1	676.9	 1238	789.6	914.3	 1868	 3717	9999.9	9999.9	135.3	15.13	9.256	6.674	4.206	4.781	3.883	3.241	2.835	2.584	2.053	2.174	1.650	1.748	1.337	1.411	0.890	1.483	1.109	0.916	1.135	1.219	1.239	0.970	1.130	1.272	1.320	1.378	1.280	1.254	1.259	1.372	1.397	1.129	0.897	0.902	0.953	0.934	0.814	1.063	0.943	1.131	1.256	1.626	2.496	3.281	5.149	5.444	3.674	2.722	3.077	5.080	8.122	13.31	17.76	24.62	61.36	112.9	57.42	31.83
300.0	185.8	268.0	328.2	289.6	202.6	185.7	199.7	240.4	343.3	533.5	 1133	 1399	786.0	820.4	 1106	 4667	9999.9	 7344	90.33	13.55	8.836	6.315	5.080	3.758	3.817	3.057	2.435	2.265	1.880	2.097	1.667	1.572	1.677	0.926	1.397	1.078	1.187	1.078	1.521	1.266	1.367	1.249	1.504	1.356	1.391	1.538	1.479	1.591	1.393	1.421	1.002	1.204	1.181	0.951	0.916	0.791	1.381	1.339	1.347	1.327	1.618	2.242	2.338	3.454	5.701	6.845	4.777	3.450	3.409	3.917	4.941	5.290	6.679	16.01	43.21	88.50	129.7
305.0	196.3	300.6	350.5	321.3	252.2	213.7	248.1	297.0	394.6	532.1	859.7	 1591	 1213	706.5	590.3	 1299	 6535	9999.9	 1244	51.64	11.66	7.341	5.821	4.840	3.877	3.587	2.264	2.543	2.117	1.945	1.757	1.420	1.274	1.476	1.119	1.353	1.141	1.443	1.611	1.496	1.291	1.094	1.335	1.423	1.499	1.606	1.447	1.483	1.627	1.639	1.304	1.255	1.132	0.801	1.088	0.826	1.364	1.519	1.343	1.827	1.886	1.885	2.422	2.755	4.129	5.595	7.419	6.363	3.873	3.352	2.869	2.750	3.120	4.856	10.55	24.73	64.88
310.0	204.2	312.3	385.8	356.7	282.4	261.6	296.9	372.8	464.7	618.5	814.5	 1201	 1615	 1199	633.3	585.1	 1703	 5953	9999.9	 5036	75.51	12.91	7.598	5.708	4.370	3.571	3.108	2.925	2.700	1.938	1.797	1.710	1.442	1.494	1.389	1.128	1.180	1.595	1.464	1.581	1.328	1.218	1.477	1.355	1.490	1.727	1.581	1.698	1.696	1.544	1.306	1.311	1.323	1.135	1.219	1.367	1.505	1.871	1.726	2.129	2.222	2.307	2.459	2.937	3.707	4.358	5.396	6.264	7.031	6.118	4.420	3.120	2.916	2.823	3.670	6.567	15.70
315.0	222.7	343.1	450.2	410.2	317.7	297.8	347.8	415.6	529.1	700.7	879.5	 1071	 1276	 1629	 1071	532.7	626.0	 1489	 3231	9999.9	 7532	102.5	11.30	7.964	5.629	4.465	3.598	3.055	3.199	2.568	1.704	1.970	1.625	1.471	1.756	1.017	1.001	1.221	1.602	1.525	1.564	1.338	1.423	1.652	1.617	1.653	1.764	1.930	1.863	1.868	1.524	1.314	1.167	1.652	1.303	1.534	1.763	1.910	1.677	2.224	2.512	2.720	2.819	3.008	3.886	3.998	4.575	4.787	4.900	6.558	7.632	6.512	4.344	2.838	2.647	2.718	4.968
320.0	250.2	411.4	564.9	497.7	358.6	331.3	373.3	463.6	587.0	753.9	935.2	 1113	 1240	 1405	 1546	725.0	444.7	530.9	858.7	 4188	9999.9	 5862	69.37	10.14	7.404	5.505	4.751	3.613	3.474	3.142	2.357	2.184	1.764	1.429	1.407	1.299	1.075	1.263	1.599	1.770	1.561	1.694	1.464	1.871	2.000	1.997	2.127	2.626	2.255	1.821	1.541	1.370	1.356	1.585	1.654	1.495	1.579	1.612	2.052	2.051	2.623	2.651	3.407	3.426	4.071	4.479	4.402	4.574	4.463	5.165	6.142	8.066	6.826	4.752	2.821	2.394	2.597
325.0	292.3	494.1	690.6	618.4	437.6	365.1	428.3	492.2	636.7	807.9	 1011	 1177	 1277	 1278	 1484	 1163	516.7	367.6	353.4	 1078	 6088	9999.9	930.1	41.81	9.645	6.657	5.267	4.337	3.260	2.943	2.410	2.419	2.045	1.558	1.288	1.455	1.194	1.336	1.454	1.623	1.487	1.649	1.499	2.080	1.947	2.140	2.488	2.971	2.967	2.320	2.005	1.726	1.712	1.530	1.759	1.686	1.774	1.861	1.793	2.474	3.317	2.686	3.344	3.975	4.120	4.360	4.310	5.018	4.935	5.192	4.976	6.504	7.141	6.773	4.451	3.167	2.284
330.0	296.4	560.2	787.0	754.1	526.3	440.5	456.4	545.6	669.9	851.1	 1047	 1245	 1342	 1282	 1239	 1235	914.7	449.7	298.0	391.6	 1521	 5448	9999.9	 3883	59.89	10.97	7.108	5.215	3.843	3.633	2.958	2.297	2.458	1.530	1.367	1.400	1.383	1.513	1.801	1.549	1.484	1.588	1.657	1.921	1.864	2.606	2.756	3.151	3.433	2.862	2.313	2.219	1.858	1.739	1.931	1.794	1.935	2.107	2.237	2.504	3.080	3.194	3.503	3.803	4.114	4.323	5.086	4.931	5.342	5.290	5.445	5.378	5.457	5.892	6.435	5.927	4.620
335.0	323.1	596.8	843.8	857.2	606.9	491.4	497.9	572.5	710.6	880.3	 1086	 1266	 1358	 1332	 1210	 1019	 1019	816.7	378.8	293.8	483.7	 1324	 3248	9999.9	 6086	83.61	11.07	7.474	5.431	4.813	3.149	2.480	2.589	2.112	1.668	1.672	1.364	1.469	1.619	1.685	1.682	1.676	1.690	1.871	2.268	2.657	2.966	3.439	3.502	3.030	2.416	2.272	2.207	2.226	2.275	2.123	1.956	1.828	2.354	2.709	3.183	3.346	3.404	3.438	4.455	4.509	4.853	5.277	5.496	5.283	5.440	5.399	5.165	4.794	4.809	5.486	5.908
340.0	315.3	585.1	879.6	926.6	688.9	564.9	547.6	620.5	727.5	895.3	 1067	 1258	 1358	 1340	 1206	983.8	870.8	989.3	584.2	311.4	286.6	431.3	835.9	 4349	9999.9	 4826	58.31	9.872	6.706	5.364	5.067	2.882	2.329	1.872	2.067	1.926	1.867	1.773	1.629	1.811	1.774	2.081	1.533	2.127	2.246	2.648	3.056	3.020	3.239	3.146	2.653	2.568	2.293	2.419	2.284	2.061	1.952	2.563	2.358	2.610	3.013	3.163	3.961	3.700	4.360	4.736	4.973	5.353	5.656	5.452	5.247	5.446	5.189	5.035	4.447	4.371	4.267
345.0	312.6	558.8	869.6	905.1	724.8	614.3	611.6	647.0	749.7	909.3	 1086	 1250	 1351	 1337	 1213	998.4	797.2	858.6	853.4	431.2	280.6	266.1	313.7	 1097	 6216	9999.9	769.3	36.12	8.736	5.934	5.324	3.663	2.454	2.473	1.935	1.735	2.026	1.427	1.610	1.570	1.559	1.641	1.763	2.044	2.334	2.582	3.116	3.191	3.198	2.972	3.000	2.805	2.568	2.562	2.617	2.494	2.314	2.609	3.002	2.486	3.085	3.059	3.824	3.940	4.043	4.809	4.841	5.214	4.978	5.196	5.686	5.303	5.154	4.859	4.746	4.536	3.897
350.0	281.9	531.0	800.9	925.0	802.5	740.4	708.3	743.2	810.2	926.7	 1093	 1219	 1311	 1300	 1210	 1015	833.4	743.1	799.7	732.4	421.0	293.6	254.0	378.7	 1557	 5648	9999.9	 3287	52.53	9.202	6.685	4.864	3.579	2.824	2.074	1.923	1.878	1.654	1.500	1.853	1.486	1.693	1.652	1.802	2.283	2.355	2.675	3.030	3.329	3.009	3.032	3.036	2.697	2.978	2.742	2.575	2.662	2.777	3.151	3.052	3.377	3.411	3.739	3.879	4.214	4.589	4.810	5.006	5.348	5.675	5.629	5.304	5.011	4.744	4.736	4.422	4.154
355.0	267.5	473.8	766.8	880.0	832.9	832.6	793.9	833.3	892.0	 1004	 1123	 1213	 1281	 1289	 1217	 1060	890.1	770.7	697.6	755.5	715.6	417.2	301.6	274.7	486.0	 1362	 3450	9999.9	 5214	71.23	10.74	6.510	4.225	3.301	2.830	1.613	2.192	1.685	1.543	1.580	1.570	1.854	1.408	2.040	2.139	2.211	2.339	2.963	2.921	3.210	3.116	2.931	2.997	3.177	2.867	3.144	3.189	3.142	3.554	3.532	3.604	4.029	4.214	4.573	4.494	4.234	4.498	4.927	5.053	5.421	5.398	5.693	5.470	5.256	5.194	4.967	4.729
360.0	264.0	456.8	731.0	878.7	872.6	882.9	876.5	932.3	948.2	 1045	 1143	 1232	 1282	 1276	 1230	 1077	926.7	808.4	723.7	687.8	814.1	614.7	370.5	292.9	286.9	430.7	876.9	 4629	9999.9	 4150	52.27	8.284	6.050	3.952	2.645	2.123	2.239	1.651	1.863	1.735	1.679	1.989	1.618	1.848	2.002	2.225	2.156	3.237	2.796	3.140	2.793	3.144	3.256	3.193	3.428	3.235	3.813	3.422	3.829	3.496	3.803	4.277	4.271	4.621	4.327	4.575	4.291	4.724	5.145	5.273	5.473	5.109	5.114	5.208	5.132	5.172	4.889
365.0	262.7	461.1	682.8	838.1	897.7	906.6	933.1	956.3	986.4	 1077	 1165	 1234	 1272	 1261	 1230	 1100	959.1	855.1	762.1	686.1	740.9	789.2	496.3	344.0	277.5	258.7	311.9	 1169	 6544	9999.9	701.4	29.45	7.271	4.826	3.488	3.073	2.529	1.883	1.737	1.776	1.548	1.863	1.523	1.621	1.984	2.042	2.277	2.981	2.815	2.903	2.549	3.114	3.597	3.322	3.305	3.387	3.926	3.644	4.272	4.071	3.884	4.199	4.451	4.677	4.465	4.559	4.653	4.878	5.034	5.000	5.409	5.263	5.821	4.914	5.098	4.555	5.291
370.0	252.7	445.3	667.4	841.4	919.0	984.9	 1000	 1028	 1045	 1135	 1198	 1237	 1243	 1258	 1197	 1089	988.8	892.7	811.7	742.1	690.1	743.2	721.5	483.6	339.9	272.4	227.0	373.1	 1638	 5810	9999.9	 2884	43.80	7.884	5.063	3.601	2.691	2.167	2.035	1.778	1.847	1.860	1.621	1.753	2.047	2.325	2.359	2.751	2.859	2.892	2.811	3.614	3.353	3.349	3.488	3.472	3.803	3.978	4.083	3.910	4.160	4.476	4.586	4.755	4.441	5.065	4.890	4.927	5.363	4.951	5.457	5.550	5.718	5.349	5.300	5.045	5.156
375.0	215.2	442.8	626.3	828.8	921.9	993.4	 1052	 1054	 1105	 1150	 1217	 1233	 1218	 1212	 1173	 1082	997.9	928.0	858.1	793.5	734.2	694.6	720.5	707.8	465.9	333.8	257.2	239.0	475.0	 1377	 3853	9999.9	 4322	56.15	7.515	4.605	3.651	2.718	2.321	2.023	2.272	1.928	2.072	1.798	1.859	2.071	2.219	2.468	2.847	3.119	2.649	3.208	3.288	3.244	3.633	3.844	4.150	4.041	4.043	4.192	4.304	4.248	4.330	4.583	4.582	4.835	4.985	4.412	4.984	4.678	4.604	5.623	5.380	5.485	5.482	5.144	5.683
380.0	216.5	408.9	575.0	801.2	919.5	990.3	 1036	 1072	 1097	 1155	 1207	 1226	 1234	 1197	 1152	 1083	 1001	942.1	874.2	826.9	764.0	711.3	679.7	757.8	620.1	400.9	304.6	241.0	240.9	403.8	954.6	 4926	9999.9	 3181	36.62	6.055	4.084	3.306	2.759	2.131	1.913	1.923	1.849	1.767	1.782	2.137	2.213	2.285	2.560	2.728	2.688	3.276	3.391	3.600	3.799	4.098	4.052	3.776	3.935	4.316	4.168	4.143	4.422	4.822	5.059	4.670	4.764	4.730	4.630	4.584	5.039	5.648	5.327	5.257	5.534	5.252	5.411
385.0	220.9	388.4	553.0	810.4	898.2	 1014	 1066	 1108	 1103	 1162	 1190	 1213	 1175	 1174	 1127	 1065	991.3	952.8	903.3	846.4	786.7	733.4	683.0	698.3	726.2	508.4	352.3	277.2	222.5	210.1	299.9	 1240	 6526	9999.9	536.0	19.72	5.283	4.083	3.220	2.196	2.077	1.800	1.820	2.084	2.263	1.699	2.327	2.490	2.548	2.597	2.913	2.971	3.708	3.849	3.449	3.763	4.346	3.839	4.135	3.840	4.088	4.113	4.623	4.867	4.768	4.544	4.622	4.578	4.940	4.562	5.437	4.857	5.578	5.295	5.043	5.397	5.593
390.0	227.5	381.5	554.8	788.1	888.2	 1013	 1056	 1074	 1093	 1127	 1149	 1176	 1162	 1128	 1095	 1036	977.5	947.5	897.7	866.1	807.5	758.6	703.9	663.7	680.4	664.6	467.9	328.8	259.7	207.1	183.5	356.8	 1644	 5574	 7949	 2193	33.05	6.176	4.296	3.162	2.618	1.930	1.907	2.106	1.846	1.918	2.314	2.409	2.326	2.640	2.657	2.891	3.361	3.492	3.515	4.010	3.871	4.417	4.020	4.057	4.102	3.957	4.758	4.373	4.803	4.370	4.614	4.590	4.502	4.471	4.782	4.793	4.994	5.140	5.100	5.310	5.049
395.0	204.8	372.3	558.1	731.5	852.1	964.1	 1059	 1073	 1083	 1127	 1138	 1133	 1128	 1095	 1058	 1003	960.9	935.9	892.7	865.6	813.7	775.9	731.6	679.5	646.7	646.1	628.7	423.5	313.9	247.0	193.1	189.8	437.3	 1299	 3132	 8756	 3342	44.79	6.114	4.370	3.356	2.622	2.091	1.924	2.040	2.002	2.200	2.331	2.616	2.455	2.791	3.192	3.278	3.428	3.625	3.770	3.924	4.496	4.040	4.399	4.165	4.555	4.256	4.309	4.430	4.095	4.126	4.381	4.323	5.035	5.041	4.312	4.741	4.758	5.225	5.200	4.780
400.0	225.3	373.7	532.8	693.0	856.1	935.0	 1059	 1067	 1054	 1077	 1101	 1099	 1084	 1073	 1026	985.8	942.4	923.9	870.3	858.6	818.5	773.6	741.2	690.3	643.0	616.0	647.6	547.5	363.9	283.4	216.6	171.7	186.9	349.3	767.6	 4311	 8922	 2425	27.35	5.082	3.982	3.064	2.491	2.137	2.285	2.072	2.310	2.438	2.375	2.318	2.696	3.041	3.198	3.908	3.629	3.950	3.648	4.132	3.741	4.066	4.321	4.251	3.951	4.385	4.075	5.038	4.301	3.977	4.170	4.890	4.384	4.872	4.781	5.154	4.855	5.328	5.114
405.0	200.8	357.9	533.9	699.3	833.0	926.6	 1013	 1051	 1061	 1063	 1079	 1081	 1056	 1040	 1009	959.8	913.8	887.2	864.0	843.9	815.9	769.8	738.6	705.2	653.0	592.4	605.4	622.4	443.3	317.3	244.9	186.1	148.1	152.9	224.1	 1085	 5503	 8013	440.7	14.15	4.302	3.462	2.661	2.736	2.283	2.310	2.361	2.216	2.297	2.581	2.474	2.927	3.175	3.329	3.368	3.827	3.593	3.892	3.784	3.879	4.084	3.824	4.302	4.081	4.633	4.355	4.478	4.397	4.434	4.694	4.266	4.488	4.888	4.956	4.983	4.864	4.745
410.0	202.8	348.6	501.5	676.3	807.9	899.6	997.9	 1036	 1056	 1065	 1066	 1046	 1030	 1005	964.5	920.4	877.0	860.3	837.1	816.8	793.2	762.0	735.6	702.8	656.4	611.7	572.8	575.6	553.8	410.9	288.8	218.5	165.2	129.6	118.1	288.6	 1378	 4434	 6051	 1899	28.95	4.833	3.263	2.847	2.441	2.435	2.266	2.490	2.167	2.438	2.487	2.769	3.061	3.494	3.514	3.587	3.775	3.591	3.674	3.933	4.430	3.946	4.041	4.108	4.177	4.150	4.399	4.282	3.931	4.390	3.919	3.923	4.696	4.617	4.375	4.635	4.509
415.0	213.4	327.6	481.6	652.1	767.5	865.4	957.6	 1019	 1021	 1053	 1016	 1024	968.2	955.7	925.1	884.3	831.8	820.0	800.8	785.1	767.3	742.1	712.8	699.8	654.4	618.3	573.8	536.7	535.5	525.9	358.3	254.9	188.8	146.1	111.5	123.2	350.4	 1023	 2440	 6660	 2741	39.12	4.962	3.528	2.791	2.568	2.330	2.608	2.180	2.508	2.378	2.346	2.824	3.076	3.397	3.567	3.382	3.968	3.512	3.894	4.113	3.648	3.976	3.683	4.007	4.324	4.038	4.169	3.997	4.275	3.790	4.316	4.662	3.888	4.510	4.423	4.429
420.0	189.5	303.6	453.6	622.3	737.5	844.2	942.5	986.8	 1005	 1026	990.4	980.0	956.8	921.5	889.7	841.0	805.2	790.7	766.5	765.6	747.6	720.2	704.2	682.5	651.6	619.4	575.7	531.8	507.8	524.5	441.0	294.1	213.7	162.8	123.0	98.20	128.5	264.1	594.2	 3297	 6770	 1952	23.99	4.674	3.528	2.798	2.148	2.363	2.469	2.357	2.177	2.389	2.855	2.994	3.375	3.461	3.266	4.142	3.993	3.695	3.755	3.768	3.838	3.944	4.019	4.086	4.165	3.828	3.778	3.793	3.245	3.855	4.326	3.947	4.025	4.414	4.876
425.0	166.8	287.7	429.2	601.7	713.1	823.6	896.1	972.7	997.1	991.8	979.5	960.1	937.8	888.1	858.2	810.4	767.3	748.2	744.9	734.9	717.0	698.7	680.0	664.8	648.1	612.7	571.4	538.5	500.1	486.1	495.4	351.9	239.9	179.4	134.6	101.4	86.64	101.4	163.5	831.4	 4207	 5993	403.8	11.25	4.124	3.435	2.868	2.402	2.265	2.189	2.243	2.690	2.824	2.926	3.167	3.166	3.427	3.485	4.024	3.703	3.542	3.617	3.450	3.905	3.586	3.828	3.792	4.231	4.293	3.696	3.376	3.486	4.295	3.857	3.965	4.216	4.421
430.0	331.3	288.5	407.0	567.1	681.2	771.1	871.6	924.3	967.1	981.1	961.8	931.0	899.9	873.2	813.2	771.3	736.9	722.9	710.1	696.1	682.5	663.7	654.4	642.1	622.5	600.4	568.5	534.9	499.4	467.5	453.2	419.0	295.6	206.2	155.3	120.3	91.87	75.80	75.65	214.0	 1055	 3309	 4032	 1555	26.02	4.485	3.291	2.811	2.581	2.223	2.442	2.573	2.957	3.054	3.259	3.154	3.438	3.418	3.888	3.798	3.552	3.653	3.581	3.868	3.693	3.747	3.866	3.704	3.862	3.692	3.510	3.380	3.618	3.629	3.645	3.708	3.858
435.0	672.1	329.4	398.1	568.9	651.4	724.2	840.9	903.5	918.4	962.5	946.0	908.3	889.8	818.3	780.1	725.5	691.1	676.6	671.5	655.0	635.4	627.1	625.2	617.1	600.5	589.9	560.6	534.2	500.0	461.4	424.0	397.8	369.3	258.3	177.0	137.3	104.9	81.61	65.29	84.77	261.1	761.1	 1715	 5335	 2389	35.23	4.813	3.593	2.934	2.429	2.627	2.619	2.710	3.056	2.922	2.776	3.472	3.919	3.373	3.504	3.891	3.869	3.838	3.897	3.723	3.612	3.427	3.729	3.450	3.280	3.670	3.249	3.130	3.675	3.557	3.649	3.559
440.0	848.4	534.9	389.5	522.7	617.8	699.7	800.8	869.7	923.7	938.6	924.7	884.2	866.2	780.2	756.6	702.3	660.8	644.3	634.2	620.1	611.4	598.7	603.5	589.8	586.4	577.0	554.3	532.1	501.9	463.1	416.3	372.1	373.8	313.1	200.7	150.7	117.2	91.37	72.87	62.68	90.77	193.8	419.2	 2635	 5700	425.5	20.88	4.345	3.614	2.838	2.504	2.757	2.648	2.584	2.627	3.144	3.045	3.662	3.385	3.422	3.654	3.719	3.621	3.852	3.856	3.203	3.570	3.705	3.096	3.424	3.142	3.395	3.422	3.492	3.206	3.364	3.772
445.0	683.3	922.5	394.8	493.5	591.1	691.5	762.4	831.8	895.5	911.4	911.4	879.8	816.6	769.1	724.0	657.7	633.6	610.5	611.8	592.0	583.4	579.2	574.7	564.8	561.6	551.9	541.1	517.1	496.6	456.3	419.4	368.7	343.4	334.6	239.1	165.7	127.0	98.65	79.75	61.79	57.22	70.86	116.2	661.1	 3544	 4979	337.1	10.33	3.731	2.692	2.509	2.619	2.745	2.821	2.905	3.137	3.033	3.331	3.463	3.337	3.530	3.788	3.579	3.745	3.631	3.788	3.460	3.722	3.214	3.371	3.024	3.281	3.300	3.489	3.343	3.357	3.548
450.0	337.8	 1250	721.5	468.2	563.8	642.3	744.6	801.3	850.9	869.6	865.7	833.8	780.2	735.0	683.1	632.5	589.4	570.8	565.6	555.9	544.5	542.6	534.7	532.1	526.6	525.0	516.6	499.9	476.5	447.9	412.2	366.8	318.5	302.6	276.9	205.6	144.1	111.7	88.97	69.18	58.41	50.36	52.91	168.8	889.2	 2865	 3585	 1374	22.17	3.887	2.817	2.976	2.804	2.838	2.849	2.825	3.080	3.201	2.929	3.481	3.255	3.651	3.678	3.583	3.450	3.378	3.496	3.142	2.951	3.058	2.671	3.118	3.312	3.100	2.973	3.039	3.220
455.0	173.1	842.6	 1574	513.3	514.6	587.4	671.9	758.3	809.1	804.0	827.7	784.0	725.7	687.8	648.0	594.6	544.2	533.2	518.6	507.7	496.3	502.7	491.6	491.3	481.5	485.1	476.9	466.1	460.3	431.2	403.0	359.4	307.0	275.2	256.5	243.0	172.2	123.2	99.50	79.28	63.70	54.08	43.30	62.24	217.0	656.7	 1508	 4771	 2055	27.19	3.854	3.290	3.211	2.821	2.834	2.838	2.965	3.023	3.037	3.393	3.221	3.403	3.819	3.231	2.994	3.192	3.910	3.130	3.199	2.943	2.961	3.076	3.033	3.166	3.187	2.857	3.288
460.0	138.1	442.7	 1947	928.7	502.2	574.5	625.3	727.8	764.1	789.4	782.0	752.7	705.3	656.8	599.3	555.0	520.6	487.3	482.9	479.6	461.7	456.9	457.8	457.5	453.4	455.7	451.8	444.1	431.2	415.1	388.7	346.1	306.7	262.6	232.4	239.0	205.5	135.1	104.8	85.70	69.93	57.75	45.51	40.31	70.26	163.9	363.5	 2336	 4959	 1370	15.55	4.231	3.359	2.875	2.433	2.715	2.928	2.509	2.878	3.023	2.734	3.201	3.290	3.115	2.717	3.052	3.318	3.082	3.003	2.775	2.870	2.828	2.922	2.979	2.612	2.416	2.966
465.0	121.9	254.3	 1582	 1496	482.2	545.7	606.9	663.5	720.0	755.3	737.6	723.3	669.8	626.0	557.0	515.0	487.2	457.2	453.9	443.7	436.0	430.9	424.4	428.6	426.6	423.8	423.8	420.6	408.8	397.0	375.5	336.4	299.8	255.5	219.9	210.5	214.6	160.5	112.7	88.59	74.29	60.21	50.14	39.36	39.94	56.09	97.53	582.2	 3067	 4306	274.6	9.062	3.709	3.314	2.751	2.750	2.838	2.740	2.816	3.074	3.086	3.336	2.929	2.866	3.282	3.298	2.735	3.030	3.013	2.920	2.628	2.447	2.869	2.693	2.609	2.667	3.026
470.0	128.8	182.4	705.2	 2384	974.6	500.2	561.9	620.9	680.5	702.9	690.5	663.9	619.5	573.8	510.1	474.0	440.3	416.6	408.5	399.2	390.4	390.5	388.8	385.1	385.7	387.0	388.2	382.1	381.0	370.2	351.2	313.5	282.6	244.6	211.7	190.1	185.8	176.4	132.2	97.27	77.97	65.69	52.62	42.44	36.81	35.74	41.08	145.7	761.6	 2365	 2686	 1185	20.77	4.053	3.068	2.820	2.828	2.630	2.583	2.811	2.803	2.719	2.926	2.741	2.875	2.861	2.720	2.822	2.471	2.768	2.597	2.361	2.626	2.575	2.274	2.487	2.682
475.0	123.2	178.0	327.4	 1488	 2425	546.3	490.4	577.7	632.2	624.4	619.0	605.3	562.1	524.1	461.1	434.1	393.7	372.1	362.9	357.7	347.2	349.8	344.5	345.0	342.5	344.8	350.4	347.9	342.9	334.5	320.0	288.5	263.4	232.9	203.6	177.5	161.3	155.9	151.3	112.5	82.33	68.50	56.63	46.48	38.27	33.91	30.06	50.19	182.8	539.9	 1088	 3232	 1516	27.50	3.875	2.749	2.958	2.614	2.478	2.552	2.510	2.688	2.728	2.556	2.423	2.505	2.502	2.320	2.206	2.608	2.386	2.123	2.410	2.201	2.044	2.300	2.332
480.0	113.5	177.7	227.4	683.7	 2785	 1019	470.8	539.6	574.7	578.2	583.0	576.2	542.2	478.2	439.6	403.3	366.3	346.6	330.8	329.3	319.7	318.0	317.2	312.1	314.1	319.2	322.0	319.5	316.1	311.9	300.8	275.4	246.3	223.0	193.6	170.6	150.4	138.3	148.3	127.2	89.09	71.98	59.10	49.56	40.72	35.52	29.16	29.18	55.93	132.7	260.9	 1450	 3376	368.8	15.75	3.472	3.026	2.657	2.845	2.537	2.456	2.467	2.447	2.472	2.267	2.171	2.452	2.466	2.262	2.369	2.474	1.965	2.097	1.793	1.853	2.055	1.967
485.0	96.04	167.4	209.2	361.2	 2031	 2236	463.2	495.7	524.2	533.7	567.8	533.8	504.4	461.4	407.4	374.5	346.3	322.9	313.1	306.5	302.4	294.3	292.5	289.0	293.3	293.7	298.1	299.3	299.0	292.7	277.0	262.3	235.3	213.2	182.9	163.8	146.4	128.1	128.5	130.3	102.0	73.36	60.82	49.86	44.31	35.81	29.89	25.89	28.29	42.10	68.96	356.3	 1989	 2876	299.7	7.066	3.394	3.130	2.423	2.585	2.628	2.591	2.375	2.303	2.011	2.080	2.129	2.600	1.930	2.525	2.477	1.638	1.708	1.742	1.684	2.084	2.117
490.0	79.43	165.0	207.1	252.3	869.3	 2776	 1221	435.8	490.5	507.5	516.6	495.0	457.3	417.1	376.2	340.8	308.1	299.3	285.3	273.4	269.3	263.8	265.3	257.4	263.7	268.0	265.1	270.4	272.0	266.4	255.6	241.6	217.4	194.7	175.1	155.0	138.7	122.9	112.2	114.0	110.4	83.64	62.09	51.24	44.39	38.54	32.61	26.71	24.21	23.95	26.95	89.54	488.7	 1528	 2369	 1046	21.44	3.641	2.779	2.749	2.544	2.525	2.145	2.077	1.979	2.096	2.095	2.123	1.884	2.149	2.128	1.680	1.592	1.570	1.716	1.457	1.812
495.0	64.24	129.3	215.7	231.0	405.9	 1616	 2826	539.3	444.3	465.3	465.3	459.1	422.8	385.2	335.0	304.0	278.6	264.3	255.8	245.2	236.8	229.0	231.0	229.1	233.2	236.7	238.5	241.2	238.1	240.0	228.3	216.0	196.7	178.4	160.6	144.8	128.6	115.5	103.1	97.98	97.35	96.96	70.24	53.02	44.81	38.74	34.42	28.02	23.69	20.72	18.27	30.02	117.3	348.7	893.0	 2718	 1467	27.92	3.423	2.738	2.629	2.465	2.011	2.159	1.941	1.904	1.890	2.228	1.828	1.972	1.767	1.573	1.650	1.717	1.699	1.694	1.513
500.0	66.62	111.9	199.1	250.5	276.6	691.8	 3241	 1237	404.8	429.4	426.1	406.2	377.3	349.9	308.9	277.2	252.4	242.6	226.8	219.0	216.9	211.6	205.9	203.5	209.5	211.9	218.0	219.0	217.3	218.5	211.5	199.1	181.9	167.3	149.5	135.8	123.3	108.6	98.07	89.59	86.32	91.57	79.97	54.40	44.06	39.08	33.48	28.54	23.93	20.30	16.57	17.90	34.25	85.14	211.2	 1202	 3051	386.1	15.67	3.212	2.312	2.543	2.089	2.002	2.237	1.746	1.679	1.832	1.772	1.644	1.558	1.483	1.268	1.241	1.358	1.556	1.461
505.0	52.59	96.91	165.8	227.4	234.1	345.4	 2311	 2559	406.3	395.3	400.1	372.9	348.3	321.1	289.0	261.7	235.9	222.2	207.5	198.5	196.0	195.8	187.1	188.9	191.4	193.1	191.9	200.3	199.6	201.3	194.5	184.5	168.2	152.2	139.4	127.2	114.5	101.6	93.53	83.22	77.04	77.32	80.93	61.34	46.12	38.05	33.92	28.91	24.55	20.18	16.68	14.64	16.05	26.14	53.98	290.9	 1702	 2696	320.3	6.207	2.484	2.508	2.010	1.563	2.067	1.492	1.737	1.742	1.524	1.621	1.213	1.249	1.146	1.457	1.349	1.687	1.771
510.0	43.83	82.25	136.7	222.0	219.4	248.3	930.0	 3218	 1251	355.4	356.7	334.4	315.7	283.7	254.2	232.8	205.6	197.6	182.1	179.7	173.8	171.5	168.4	165.9	166.5	170.0	174.1	176.0	174.4	176.9	172.0	163.4	150.1	138.1	126.9	115.3	102.2	93.55	87.19	76.94	69.72	66.11	67.37	65.91	51.38	39.03	33.02	27.81	24.80	20.72	17.11	14.35	12.36	13.18	18.50	70.72	413.1	 1392	 2111	 1015	20.25	2.755	2.120	1.930	1.700	1.478	1.621	1.718	1.706	1.415	1.126	1.058	1.093	1.049	1.315	1.418	1.315
515.0	34.81	73.37	105.8	201.6	233.3	203.1	381.1	 1719	 3301	477.3	309.2	294.7	270.4	253.1	233.6	196.2	183.4	171.9	161.4	157.5	150.1	148.3	147.3	142.3	145.3	147.3	153.7	149.4	152.6	157.0	149.3	144.6	131.9	122.2	112.7	100.8	92.29	84.54	76.48	70.56	62.89	57.99	54.06	57.17	55.52	41.86	32.76	26.62	24.78	21.06	17.05	14.26	11.76	10.44	11.03	21.84	97.36	315.6	769.4	 2730	 1169	25.26	2.451	2.085	1.719	1.604	1.563	1.378	1.347	1.119	1.243	1.354	1.197	0.945	1.310	1.018	1.141
520.0	28.26	58.25	95.36	155.9	237.0	194.1	231.0	676.2	 3707	 1331	272.7	270.3	239.8	222.7	200.1	179.0	163.5	153.8	146.5	139.6	136.9	131.7	132.7	127.1	130.6	132.5	138.3	132.2	136.6	138.9	134.3	129.0	119.0	109.4	102.6	90.89	84.64	77.17	71.09	65.05	58.96	52.41	47.97	47.04	52.81	47.38	32.99	26.68	24.33	20.70	16.56	14.19	11.95	9.940	8.679	11.08	27.29	75.08	180.2	 1245	 2363	371.5	12.54	2.130	1.666	1.604	1.474	1.255	0.950	0.954	1.153	1.175	0.973	0.971	1.172	1.101	1.129
525.0	37.13	51.72	69.61	116.1	225.4	206.8	192.3	326.1	 2549	 2996	297.8	252.0	222.5	201.3	189.4	164.6	150.1	139.0	133.8	125.7	125.6	121.2	118.1	118.1	118.4	120.0	123.0	121.4	123.4	125.1	121.9	116.7	109.0	101.1	91.57	83.56	80.13	71.42	65.53	60.18	54.32	48.47	44.89	41.81	45.96	47.79	37.08	26.66	21.94	18.73	16.30	13.83	12.81	10.16	8.643	8.121	10.94	21.65	44.82	299.9	 1310	 2015	278.9	4.177	1.881	1.350	1.342	1.090	1.170	0.883	0.793	1.433	0.915	0.870	0.987	0.871	0.881
530.0	31.62	46.65	62.40	92.44	168.7	227.1	176.6	214.7	941.5	 3668	 1297	222.5	203.5	185.5	163.1	145.5	132.6	119.6	115.2	109.9	107.8	103.1	104.2	101.7	101.9	105.0	106.6	106.9	107.2	107.7	107.3	101.9	95.52	88.73	81.68	74.82	69.19	64.91	58.59	54.05	49.05	44.61	40.77	37.63	36.38	39.77	40.14	29.51	21.79	17.96	15.08	13.36	11.60	10.51	9.116	7.406	7.817	9.393	14.17	71.09	317.6	 1039	 1519	621.0	18.10	1.890	1.421	1.340	1.211	0.960	0.742	0.798	0.724	0.897	0.826	0.957	0.932
535.0	31.05	44.86	61.75	79.57	109.9	199.0	179.3	156.6	349.9	 1786	 3745	360.4	177.6	164.8	143.1	126.9	111.5	105.6	100.5	94.23	92.86	87.45	88.78	89.60	88.13	88.52	91.97	89.70	91.89	90.80	89.92	86.05	83.10	77.67	68.89	63.86	61.23	57.45	52.16	47.47	43.11	39.69	36.87	33.74	30.91	30.41	33.86	32.73	23.68	18.21	14.63	12.57	10.89	10.11	8.851	7.597	7.361	6.972	7.840	19.43	74.21	235.3	560.0	 1608	399.9	20.84	1.723	1.559	1.363	0.888	0.617	0.735	0.902	0.720	0.606	0.733	0.611
540.0	18.29	37.39	62.50	77.18	101.3	167.4	206.1	140.7	202.5	627.0	 4131	 1321	157.3	147.3	125.4	115.5	98.97	93.94	88.90	84.76	83.37	80.20	77.18	79.63	79.89	73.91	81.88	79.94	81.26	81.19	79.66	78.05	71.82	68.92	62.21	56.92	54.83	51.51	46.56	43.06	38.20	35.87	33.05	29.65	27.28	25.29	27.83	30.93	26.25	18.55	13.76	11.80	10.51	9.746	8.011	7.355	6.704	6.318	6.345	8.199	20.14	56.11	131.2	734.1	 1561	327.8	7.411	1.605	1.314	0.914	0.656	0.699	0.807	0.669	0.459	0.776	0.775
545.0	28.25	38.00	52.04	69.42	84.95	124.4	210.0	141.4	154.1	257.0	 2631	 3197	189.1	127.0	116.6	104.3	86.01	83.43	78.51	75.41	75.59	71.27	70.14	69.50	70.39	69.66	71.30	69.28	71.93	73.54	69.00	67.21	63.84	59.96	55.57	51.18	49.21	45.06	42.88	39.43	35.38	32.70	29.39	27.06	25.42	22.55	23.14	26.89	27.17	19.00	13.51	10.91	9.525	8.609	7.448	7.293	6.655	6.409	5.525	5.501	7.556	15.91	32.39	177.5	937.2	 1398	52.00	2.942	1.388	1.303	0.904	0.752	0.740	0.543	0.518	0.416	0.768
550.0	16.08	33.11	45.20	66.49	68.06	88.07	162.7	170.9	124.4	155.2	884.2	 3789	 1176	111.8	102.3	87.15	75.86	69.07	65.60	65.33	61.98	59.96	60.25	59.71	59.02	59.77	60.05	58.50	60.19	61.08	59.77	58.24	55.85	50.14	47.05	43.64	42.44	37.57	35.94	32.47	30.55	27.81	26.12	23.40	21.54	19.62	18.70	19.18	22.17	20.95	14.57	10.59	8.919	7.806	7.123	6.431	6.173	6.078	5.018	4.594	4.994	6.536	10.30	42.16	229.6	743.0	 1006	227.7	14.28	1.549	0.996	0.841	0.737	0.764	0.472	0.446	0.523
555.0	20.95	28.91	41.01	48.12	56.89	69.38	107.7	185.9	111.9	120.7	290.0	 1649	 3555	224.2	84.32	74.37	64.55	56.53	55.20	54.03	48.35	49.34	49.29	49.59	48.03	47.25	48.13	48.73	49.13	48.72	49.36	47.57	45.13	42.98	39.50	38.37	34.90	31.35	29.78	27.99	25.61	23.78	21.98	19.84	18.02	16.96	15.20	14.58	14.94	17.63	16.29	11.28	8.295	6.544	6.734	6.107	5.638	5.157	5.152	4.503	4.156	4.126	5.075	11.70	53.19	168.5	398.8	 1041	348.2	12.37	0.924	1.071	0.934	0.584	0.579	0.395	0.459
560.0	27.34	30.62	40.95	42.66	51.42	58.70	81.06	164.6	133.7	99.75	144.3	531.7	 3918	 1045	70.72	59.59	55.37	49.75	48.27	45.15	43.63	43.87	42.73	41.27	40.18	40.64	41.90	41.29	42.43	43.51	42.30	40.88	38.39	35.50	33.09	33.50	28.85	27.11	25.78	24.90	21.80	19.61	18.97	18.00	16.21	14.93	13.90	13.22	11.66	14.02	14.89	11.73	7.704	6.289	6.162	5.608	5.164	4.924	4.942	4.391	3.710	3.867	3.810	5.319	14.26	40.03	94.64	511.2	 1009	243.9	3.586	1.269	0.773	0.504	0.463	0.489	0.503
565.0	29.60	26.31	36.22	38.53	49.77	50.40	66.01	120.3	167.3	91.73	104.6	191.0	 2324	 2602	84.50	51.94	48.86	43.41	39.43	37.57	38.86	36.53	34.54	36.23	34.05	35.73	34.95	34.66	35.95	35.66	35.95	33.56	31.92	31.12	28.75	26.90	24.73	23.20	20.24	20.78	18.89	17.49	15.96	15.38	14.44	12.97	12.26	11.60	9.873	10.44	11.91	11.91	8.217	6.226	5.236	4.971	4.620	4.889	4.590	4.666	3.986	3.779	3.509	4.062	5.524	11.76	23.42	127.0	639.8	830.6	45.91	1.695	0.943	0.458	0.519	0.447	0.346
570.0	23.19	31.55	34.28	38.24	39.12	43.97	54.81	75.36	166.9	109.3	93.39	109.7	717.2	 3275	881.0	46.16	40.39	36.52	34.00	31.11	29.70	29.33	29.07	28.76	27.07	27.63	27.57	27.69	27.96	29.21	28.85	27.80	26.31	24.77	22.68	21.33	20.23	18.87	16.17	15.88	15.03	14.37	12.75	12.57	11.68	10.71	9.916	9.407	8.384	7.607	8.439	9.401	8.722	6.441	4.709	4.589	3.960	4.280	3.839	4.313	4.457	4.037	3.764	4.237	4.075	5.329	7.890	30.92	159.7	471.6	504.8	188.2	8.793	0.676	0.402	0.549	0.414
575.0	15.56	26.22	29.09	28.86	39.46	40.42	43.40	50.90	115.3	147.7	88.06	86.13	220.1	 1384	 2976	117.7	30.50	29.42	27.35	25.35	24.48	24.12	21.51	23.48	21.58	21.45	21.57	23.50	22.51	23.29	21.49	21.59	22.26	19.50	17.49	17.21	15.83	14.91	13.44	13.33	12.61	11.54	10.71	9.653	9.142	8.662	8.263	7.583	7.252	6.335	5.997	6.205	7.866	7.004	4.535	4.317	3.773	3.917	3.798	3.877	4.028	4.270	4.123	3.860	4.144	3.991	4.721	9.748	38.24	108.4	232.5	615.2	224.2	5.244	0.458	0.511	0.210
580.0	28.84	27.22	28.90	34.66	35.86	40.00	37.19	46.34	76.47	158.3	87.02	69.62	104.0	421.2	 3277	726.4	28.44	25.88	21.79	23.14	20.68	19.20	19.05	18.56	18.45	17.93	18.93	19.02	18.24	19.25	17.62	17.81	18.16	16.27	15.36	13.75	14.45	13.07	11.92	10.49	10.01	10.34	9.100	8.243	8.095	6.852	6.907	6.528	5.865	5.374	4.911	4.549	5.862	6.739	4.771	3.833	3.268	3.260	3.902	3.772	3.360	4.305	4.467	3.978	3.609	4.041	3.599	4.893	10.81	26.26	56.66	319.0	562.0	50.74	1.587	0.519	0.159
585.0	18.78	27.77	34.46	29.14	30.86	27.38	32.65	44.32	56.06	141.1	104.0	71.10	79.73	140.1	 1884	 1894	37.72	21.00	19.73	20.61	17.20	16.95	16.26	14.74	16.17	15.43	14.67	14.67	16.45	16.26	15.31	14.85	14.57	13.51	13.25	11.88	11.21	11.26	9.895	8.821	8.595	7.759	7.069	6.559	6.480	6.118	6.193	5.284	4.931	4.740	4.166	3.848	4.619	5.753	5.357	4.205	2.901	2.949	3.455	3.251	2.994	3.528	3.987	3.976	3.463	3.829	3.388	3.657	4.405	8.160	14.59	80.90	381.6	420.3	37.64	0.810	0.184
590.0	15.44	25.98	36.24	31.69	26.45	30.84	30.31	35.86	45.00	97.15	144.2	77.51	68.27	73.49	556.5	 2465	593.4	18.19	17.03	15.51	13.87	14.46	13.56	13.32	13.05	12.79	11.88	11.59	13.43	13.24	12.68	12.17	11.33	11.00	10.79	8.970	9.284	8.456	7.746	7.435	7.106	6.527	6.297	5.442	5.191	5.159	4.860	4.617	4.466	4.000	3.580	3.197	3.159	3.987	4.856	4.392	3.175	2.846	2.839	2.635	2.930	3.288	3.399	3.760	3.192	3.011	2.801	2.754	3.058	3.622	4.703	19.47	97.39	272.3	332.8	111.6	4.099
595.0	23.53	25.01	26.00	27.71	24.69	26.37	28.82	29.87	39.52	62.68	140.1	111.1	60.61	55.54	156.0	 1007	 2097	59.89	13.96	11.82	12.80	11.94	11.02	11.55	10.37	9.888	10.10	9.636	10.72	9.798	10.53	10.10	9.890	9.156	8.140	7.322	6.891	6.688	6.620	6.077	5.425	5.027	4.599	4.661	4.369	4.484	4.254	3.747	3.280	3.224	2.812	2.648	2.538	2.480	3.320	3.816	3.830	2.537	2.365	1.898	2.164	2.606	2.317	2.729	2.948	2.714	2.792	2.337	2.153	1.984	2.609	5.724	22.40	62.10	151.4	367.0	55.23
600.0	20.08	18.02	26.50	25.17	25.97	26.69	25.29	30.38	35.87	55.92	111.0	129.6	66.42	54.41	62.74	298.3	 2365	188.9	12.88	11.43	11.48	10.55	8.081	9.328	8.426	8.388	8.357	8.796	8.465	9.327	8.426	8.032	7.902	7.641	7.091	6.117	6.006	5.871	5.075	4.704	4.499	4.184	4.270	3.832	3.652	3.647	3.581	2.910	2.564	2.899	2.312	2.200	2.242	1.959	1.989	3.419	3.662	2.524	2.154	1.782	1.868	1.863	2.340	2.143	2.429	2.249	2.403	1.749	1.643	1.549	1.455	2.133	5.715	14.50	36.65	202.2	306.2
605.0	20.53	23.66	30.37	26.79	25.60	25.11	25.51	30.81	35.73	48.04	80.18	154.4	70.10	54.18	45.32	90.77	 1384	 1273	18.57	9.488	9.421	8.216	7.774	7.593	7.449	6.956	6.829	7.146	7.663	7.288	7.357	7.149	6.503	5.713	5.759	5.232	5.330	4.677	4.711	3.919	4.225	3.569	3.722	3.675	3.368	2.717	2.903	2.696	2.055	2.371	2.064	1.780	1.887	1.727	1.661	2.615	3.205	2.852	1.884	1.878	1.713	2.065	1.787	1.648	1.938	1.923	2.186	1.855	1.746	1.437	1.572	1.077	1.808	3.749	8.954	51.84	227.5
610.0	14.17	27.55	21.91	24.17	24.59	21.43	23.94	29.23	36.09	43.93	64.17	126.1	98.74	55.47	37.89	41.31	401.8	 1740	402.7	10.28	7.160	6.733	6.481	5.860	6.586	5.619	5.971	5.767	6.532	5.653	5.979	6.073	5.344	4.946	4.979	4.737	4.340	4.175	3.822	3.752	3.259	2.805	2.917	2.793	2.701	2.513	2.353	2.209	2.005	1.919	1.803	1.528	1.663	1.407	1.343	1.672	2.329	2.676	2.219	1.842	1.478	1.702	1.441	1.636	1.508	1.431	1.850	1.617	1.414	1.270	1.164	1.045	0.949	1.271	2.421	11.93	58.26
615.0	12.97	29.91	29.78	23.57	20.22	24.18	28.60	26.73	30.37	39.72	54.94	84.05	123.9	59.68	38.73	28.61	102.9	730.5	 1342	36.13	6.110	5.408	5.139	4.783	5.595	4.853	4.335	4.637	4.816	5.089	5.135	4.937	3.649	3.521	3.634	3.929	3.405	3.238	3.426	3.057	2.856	2.278	2.287	2.373	2.351	1.994	1.794	1.776	1.576	1.437	1.609	1.384	1.285	1.014	0.997	1.184	1.580	1.891	2.171	1.805	0.938	1.295	1.105	1.169	1.247	0.913	1.199	1.381	1.356	1.057	0.777	0.878	0.678	0.748	0.905	2.766	13.29
620.0	7.500	24.36	24.94	19.32	19.15	21.08	25.06	26.07	33.48	40.73	51.28	64.12	117.2	73.96	40.33	27.87	36.72	211.5	 1669	145.6	5.791	4.109	4.152	4.472	4.378	4.223	3.628	4.038	4.433	3.606	4.107	4.711	3.088	3.522	3.547	3.392	2.830	2.922	2.928	2.639	2.440	2.478	1.884	1.977	1.669	1.588	1.558	1.497	1.318	1.376	1.140	1.236	1.221	0.820	1.043	1.391	1.028	1.279	2.166	2.044	1.160	0.987	1.105	0.998	1.032	1.067	0.943	0.979	1.255	0.941	0.743	0.629	0.614	0.507	0.419	0.901	3.244
625.0	5.404	18.44	24.77	27.81	23.44	22.49	20.70	27.48	35.33	44.65	46.33	63.63	99.24	92.92	41.08	27.63	22.68	59.29	 1022	946.6	9.525	4.177	4.775	4.010	3.423	4.077	3.068	3.671	3.833	3.053	3.511	3.160	2.948	2.844	2.690	2.874	2.467	2.265	2.149	1.938	1.799	1.871	1.322	1.595	1.232	1.495	1.324	1.431	1.138	1.058	1.064	1.176	0.737	0.946	0.888	0.784	0.875	1.137	1.803	1.840	1.375	1.115	0.968	0.797	0.725	1.105	0.955	1.024	1.087	0.879	0.842	0.506	0.516	0.281	0.385	0.537	1.133
630.0	9.816	16.91	25.81	18.78	18.52	22.42	19.69	29.23	34.08	38.50	48.93	60.49	74.22	99.52	49.40	26.89	19.83	23.69	300.4	 1323	266.2	4.962	4.042	3.336	3.288	3.346	2.829	3.263	3.022	2.831	2.722	2.381	2.747	2.641	2.434	2.120	1.942	1.994	1.721	1.525	1.504	1.342	1.304	1.209	1.131	1.250	1.206	1.167	0.978	0.898	0.859	0.879	0.648	0.765	0.697	0.515	0.836	0.869	0.987	1.364	1.382	1.001	0.830	0.903	0.835	0.728	0.755	0.685	0.653	0.779	0.910	0.565	0.508	0.352	0.245	0.448	0.451
635.0	19.36	20.10	25.78	20.88	20.10	23.02	20.99	24.30	30.01	34.71	50.67	54.73	59.62	80.59	68.92	27.71	18.91	16.96	74.32	591.1	 1034	20.30	3.641	2.896	2.887	2.696	2.317	3.201	2.824	2.596	2.586	1.656	1.993	2.164	1.697	1.988	1.622	1.576	1.520	1.278	1.448	1.292	1.230	1.004	0.762	0.829	1.007	0.938	0.816	0.852	0.773	0.681	0.662	0.675	0.517	0.480	0.588	0.686	0.509	0.754	1.245	0.854	0.811	0.729	0.747	0.541	0.540	0.663	0.517	0.521	0.561	0.625	0.684	0.438	0.097	0.277	0.293
640.0	13.78	19.67	28.78	24.52	18.11	18.52	18.76	25.94	30.07	35.42	44.39	55.28	56.20	65.21	83.30	30.95	19.82	14.87	24.21	168.1	 1308	114.4	3.578	2.610	2.492	1.983	1.791	2.392	1.760	1.853	2.065	1.745	1.428	2.025	1.472	1.621	1.487	1.349	1.118	1.007	1.084	1.081	1.257	0.821	0.694	0.740	0.816	0.842	0.815	0.697	0.711	0.525	0.580	0.618	0.497	0.329	0.579	0.746	0.553	0.520	0.889	1.039	0.701	0.671	0.499	0.507	0.571	0.462	0.503	0.491	0.351	0.561	0.542	0.490	0.310	0.287	0.172
645.0	17.09	22.11	24.04	22.37	20.28	18.82	18.89	27.07	27.31	36.34	42.20	50.92	54.52	56.14	87.35	42.66	20.92	15.47	12.25	45.97	844.6	666.9	5.920	2.262	2.421	1.933	2.015	1.715	1.720	1.427	1.302	1.773	1.579	1.323	1.375	1.540	1.288	1.016	1.183	0.991	1.139	0.968	1.060	0.936	0.611	0.646	0.643	1.013	0.814	0.581	0.671	0.561	0.540	0.422	0.450	0.421	0.601	0.487	0.369	0.576	0.502	0.864	0.626	0.669	0.543	0.295	0.439	0.377	0.539	0.534	0.510	0.552	0.795	0.486	0.199	0.534	0.226
650.0	19.76	20.80	28.31	25.66	24.55	13.39	22.92	27.13	29.06	30.24	43.30	50.67	54.39	51.64	75.09	55.89	20.82	13.78	10.83	16.37	308.3	 1127	49.88	1.775	2.399	2.290	1.891	1.530	1.741	1.367	1.391	1.936	1.536	1.246	1.560	1.288	1.227	1.227	1.162	0.961	1.028	0.895	0.933	0.817	0.604	0.680	0.762	0.898	0.462	0.563	0.640	0.447	0.276	0.412	0.410	0.526	0.266	0.298	0.372	0.588	0.501	0.604	0.615	0.755	0.360	0.602	0.541	0.431	0.518	0.416	0.383	0.477	0.546	0.602	0.217	0.133	0.077
