Sample:	'1
File name:	t2025042315°®Î÷´å¶«ÇÅ.FD3
Run date:	'12:43:03, 04/24/2025
Operator:	Administrator
Comment:	'

Instrument
Model:	F-2700 FL Spectrophotometer
Serial number:	23B8-004
ROM Version:	4J14000 07

Instrument parameters
Measurement type:	3-D scan
Data mode:	Fluorescence
EX  Start WL:	220.0 nm
EX  End WL:	600.0 nm
EX Sampling interval:	5.0 nm
EM  Start WL:	230.0 nm
EM  End WL:	650.0 nm
EM Sampling interval:	5.0 nm
Scan speed:	12000 nm/min
EX Slit:	5.0 nm
EM Slit:	5.0 nm
PMT Voltage:	700 V
Response:	Auto 
Corrected spectra:	Off
Contour interval:	50.000

Peak integration
Integration method:	Rectangular
Sensitivity:	1
Threshold:	1.000

Peaks
No.	ApexEX/EM(nm)	Height(Data)
1	225.0/565.0	55.43
2	225.0/610.0	45.85
3	230.0/345.0	1088
4	230.0/595.0	51.15
5	230.0/645.0	38.30
6	235.0/510.0	256.6
7	240.0/265.0	340.5
8	240.0/525.0	219.1
9	245.0/535.0	196.1
10	250.0/275.0	434.0
11	250.0/545.0	153.3
12	255.0/280.0	520.6
13	255.0/560.0	132.2
14	260.0/285.0	508.7
15	260.0/570.0	105.2
16	265.0/585.0	103.8
17	270.0/300.0	920.3
18	270.0/600.0	89.57
19	275.0/305.0	1085
20	275.0/610.0	83.07
21	280.0/310.0	985.8
22	280.0/335.0	899.5
23	280.0/620.0	69.75
24	285.0/315.0	935.2
25	285.0/635.0	51.20
26	290.0/325.0	864.4
27	305.0/345.0	545.5
28	315.0/355.0	431.4
29	320.0/360.0	408.4
30	330.0/375.0	365.6
31	335.0/380.0	360.6
32	430.0/505.0	30.89
33	445.0/525.0	17.78
34	465.0/340.0	3.530
35	505.0/275.0	2.919
36	510.0/280.0	3.593
37	520.0/285.0	3.615
38	530.0/290.0	3.621
39	540.0/295.0	4.931
40	545.0/300.0	5.608
41	550.0/305.0	5.664
42	560.0/310.0	5.562
43	575.0/315.0	5.878
44	585.0/325.0	5.713

Data points
	220.0	225.0	230.0	235.0	240.0	245.0	250.0	255.0	260.0	265.0	270.0	275.0	280.0	285.0	290.0	295.0	300.0	305.0	310.0	315.0	320.0	325.0	330.0	335.0	340.0	345.0	350.0	355.0	360.0	365.0	370.0	375.0	380.0	385.0	390.0	395.0	400.0	405.0	410.0	415.0	420.0	425.0	430.0	435.0	440.0	445.0	450.0	455.0	460.0	465.0	470.0	475.0	480.0	485.0	490.0	495.0	500.0	505.0	510.0	515.0	520.0	525.0	530.0	535.0	540.0	545.0	550.0	555.0	560.0	565.0	570.0	575.0	580.0	585.0	590.0	595.0	600.0
230.0	41.46	575.5	1700	570.6	31.88	7.781	6.687	5.741	5.077	4.903	3.951	3.678	3.105	2.808	2.545	1.984	1.820	1.580	1.490	1.369	1.228	1.106	1.108	0.925	0.974	0.948	0.848	0.776	0.781	0.749	0.638	0.655	0.594	0.582	0.520	0.577	0.530	0.551	0.507	0.469	0.504	0.514	0.530	0.473	0.427	0.440	0.931	3.667	6.458	4.769	1.696	0.535	0.392	0.363	0.359	0.358	0.380	0.367	0.346	0.357	0.356	0.357	0.356	0.329	0.351	0.334	0.372	0.387	0.370	0.352	0.404	0.374	0.359	0.353	0.368	0.379	0.401
235.0	72.13	174.3	1121	2223	507.4	51.80	8.418	6.065	6.111	4.624	3.988	3.744	3.333	3.038	2.545	2.124	1.813	1.734	1.491	1.376	1.324	1.112	1.127	0.836	0.850	0.932	0.900	0.848	0.854	0.806	0.670	0.605	0.595	0.635	0.559	0.543	0.476	0.521	0.515	0.426	0.484	0.568	0.514	0.612	0.619	0.457	0.500	1.224	2.860	5.329	7.984	8.209	3.719	0.913	0.382	0.360	0.373	0.398	0.341	0.334	0.353	0.363	0.362	0.355	0.392	0.324	0.365	0.472	0.401	0.395	0.387	0.379	0.343	0.373	0.422	0.420	0.405
240.0	101.1	108.8	349.6	1936	2668	409.3	27.45	7.732	6.204	5.398	4.224	4.453	3.779	3.414	2.287	2.332	1.686	1.707	1.469	1.383	1.302	1.122	1.069	0.965	0.895	0.941	0.874	0.905	0.936	0.708	0.653	0.699	0.584	0.593	0.577	0.497	0.495	0.491	0.516	0.442	0.425	0.471	0.547	0.551	0.641	0.634	0.546	0.619	0.958	1.738	4.717	11.79	14.16	8.736	2.901	0.527	0.384	0.407	0.368	0.429	0.415	0.337	0.362	0.344	0.414	0.350	0.366	0.396	0.356	0.374	0.348	0.363	0.362	0.419	0.395	0.399	0.334
245.0	86.59	158.0	136.0	671.1	2907	2803	301.2	14.08	8.060	6.191	5.892	4.564	3.901	3.107	2.805	2.345	1.650	1.975	1.586	1.428	1.283	1.320	1.161	0.968	0.948	1.048	0.914	0.910	0.718	0.673	0.690	0.655	0.522	0.595	0.603	0.517	0.493	0.493	0.490	0.466	0.525	0.433	0.567	0.414	0.464	0.724	0.847	0.757	0.638	0.660	1.352	4.329	10.83	17.25	16.54	7.771	1.900	0.444	0.355	0.428	0.355	0.336	0.369	0.346	0.399	0.339	0.350	0.384	0.376	0.384	0.384	0.367	0.352	0.396	0.362	0.444	0.393
250.0	46.43	122.0	198.7	236.6	929.7	2738	3436	1113	68.01	7.710	6.875	5.323	4.383	3.549	2.736	2.270	2.095	1.793	1.714	1.523	1.392	1.154	1.129	1.063	1.067	0.911	0.925	0.945	0.806	0.780	0.803	0.719	0.673	0.571	0.581	0.522	0.531	0.499	0.496	0.512	0.530	0.480	0.478	0.452	0.496	0.526	0.610	0.891	0.984	0.885	0.779	1.285	2.893	5.926	11.01	16.36	20.02	16.60	8.749	2.288	0.513	0.413	0.377	0.404	0.370	0.390	0.386	0.386	0.360	0.383	0.421	0.368	0.385	0.387	0.381	0.423	0.406
255.0	38.77	47.21	146.0	290.7	295.3	703.0	2712	5451	1542	78.60	9.264	6.974	5.459	4.243	3.435	2.485	2.220	1.924	1.841	1.699	1.476	1.326	1.222	1.004	1.086	0.946	0.953	0.853	0.821	0.784	0.767	0.705	0.649	0.620	0.576	0.527	0.572	0.558	0.523	0.579	0.507	0.558	0.464	0.471	0.406	0.505	0.474	0.576	0.663	0.961	1.310	1.305	1.191	1.667	2.793	4.294	8.607	19.92	32.79	26.29	12.75	2.310	0.452	0.424	0.423	0.450	0.512	0.440	0.409	0.405	0.396	0.393	0.412	0.406	0.379	0.387	0.412
260.0	39.12	33.24	63.52	250.1	295.6	212.0	823.4	4441	6174	1232	32.08	9.229	6.691	5.000	3.471	2.828	2.461	2.224	2.199	1.598	1.560	1.416	1.267	1.046	1.020	0.944	0.909	0.841	0.882	0.817	0.774	0.798	0.704	0.692	0.580	0.594	0.555	0.577	0.544	0.511	0.417	0.536	0.488	0.471	0.413	0.483	0.410	0.459	0.505	0.586	0.873	1.620	1.774	1.064	1.026	1.275	2.341	5.797	16.24	32.21	42.11	24.08	8.719	1.200	0.498	0.432	0.459	0.408	0.360	0.402	0.425	0.439	0.394	0.369	0.452	0.431	0.459
265.0	35.12	30.11	32.12	117.9	340.5	225.7	218.5	1483	6293	6717	207.2	16.12	7.866	6.080	4.703	3.530	2.858	2.320	2.202	1.730	1.570	1.407	1.287	1.150	1.087	1.082	0.902	1.009	1.066	0.988	0.929	0.759	0.696	0.787	0.627	0.607	0.592	0.499	0.457	0.533	0.509	0.514	0.506	0.482	0.450	0.524	0.429	0.458	0.420	0.420	0.508	1.045	1.723	2.005	1.405	0.792	0.983	1.742	4.218	10.29	26.15	44.34	31.87	20.47	5.019	0.668	0.496	0.505	0.407	0.421	0.452	0.424	0.445	0.406	0.404	0.445	0.389
270.0	45.16	38.92	39.61	51.63	161.5	321.9	262.3	383.7	1945	6180	7399	797.7	51.86	8.433	5.997	4.554	3.390	2.600	2.245	1.990	1.651	1.665	1.269	1.300	1.172	1.084	1.040	1.087	0.992	0.968	0.841	0.852	0.779	0.775	0.643	0.616	0.645	0.632	0.548	0.523	0.501	0.564	0.491	0.506	0.547	0.595	0.513	0.482	0.447	0.406	0.356	0.588	0.831	1.241	1.849	2.003	1.903	1.190	1.426	2.726	6.615	13.63	22.24	37.67	37.06	38.31	14.47	5.233	0.754	0.464	0.461	0.487	0.432	0.420	0.426	0.482	0.468
275.0	74.35	83.51	82.64	58.18	61.02	146.1	434.0	328.1	484.6	1515	4886	9999.9	1151	48.67	8.476	6.079	4.346	3.190	2.648	2.286	1.801	1.549	1.410	1.395	1.250	1.258	1.117	1.055	1.102	0.951	0.967	0.880	0.844	0.775	0.791	0.697	0.694	0.641	0.627	0.588	0.602	0.600	0.551	0.522	0.593	0.674	0.594	0.602	0.596	0.460	0.449	0.568	0.562	0.668	0.826	1.177	2.376	2.919	2.521	1.357	1.988	3.552	5.523	9.147	12.88	31.14	58.83	63.63	22.86	5.285	0.742	0.532	0.454	0.497	0.440	0.428	0.455
280.0	118.2	144.6	137.9	90.01	51.88	63.71	269.6	520.6	268.3	407.9	1369	7387	9524	833.7	23.15	7.656	5.251	3.706	3.134	2.583	2.060	1.875	1.599	1.553	1.494	1.391	1.264	1.090	1.047	1.060	1.035	0.863	0.857	0.918	0.855	0.740	0.798	0.674	0.713	0.667	0.643	0.631	0.624	0.596	0.637	0.834	0.763	0.782	0.651	0.601	0.481	0.538	0.615	0.591	0.630	0.644	1.178	2.219	3.593	3.099	1.594	1.401	1.828	2.603	3.589	8.241	21.72	48.95	70.88	32.43	18.41	2.684	0.583	0.579	0.504	0.472	0.503
285.0	170.6	214.2	209.6	133.7	65.91	53.67	122.3	438.2	508.7	221.6	409.4	2215	9388	7693	117.5	12.77	6.955	4.806	3.756	2.956	2.491	2.056	1.980	1.486	1.610	1.301	1.257	1.094	1.073	1.036	1.043	0.937	0.983	0.911	0.854	0.847	0.804	0.686	0.731	0.721	0.600	0.707	0.700	0.667	0.764	0.850	0.896	1.010	0.938	0.831	0.643	0.662	0.569	0.560	0.602	0.601	0.701	1.050	2.168	3.582	3.615	2.256	1.283	1.404	1.620	2.593	5.697	13.25	30.55	54.98	73.86	29.69	12.45	1.338	0.611	0.553	0.521
290.0	211.5	289.0	294.4	188.8	101.7	73.27	93.60	208.2	498.6	484.0	325.1	658.5	2708	7006	7671	1888	31.53	7.080	4.876	3.677	2.900	2.337	1.972	1.762	1.610	1.531	1.336	1.157	1.286	1.147	1.070	0.983	0.948	0.988	0.978	0.941	0.916	0.800	0.773	0.753	0.693	0.775	0.697	0.707	0.889	0.998	1.105	1.241	1.335	1.011	0.869	0.862	0.742	0.693	0.691	0.604	0.738	0.847	1.174	1.683	2.560	3.322	3.621	2.810	1.965	1.682	2.343	3.981	7.989	14.90	28.95	40.24	54.50	47.25	20.08	10.12	1.900
295.0	262.0	347.7	378.7	247.7	147.1	112.1	125.9	169.3	286.3	596.1	745.6	447.7	828.9	1760	4534	9802	683.9	30.37	7.518	4.839	3.536	2.869	2.259	2.238	1.847	1.607	1.429	1.264	1.172	1.283	1.132	1.121	1.032	1.066	0.999	0.929	0.921	0.943	0.843	0.770	0.735	0.824	0.764	0.824	1.021	1.187	1.222	1.458	1.489	1.199	1.149	1.022	0.931	0.798	0.847	0.746	0.888	0.979	1.143	1.284	1.586	1.924	2.550	4.295	4.931	3.530	2.391	2.325	3.258	4.623	7.697	10.12	14.28	23.58	49.04	71.19	32.47
300.0	283.9	394.0	415.5	301.2	181.4	147.2	166.5	207.4	269.6	445.4	920.3	715.0	497.4	603.0	1263	6359	5856	519.8	15.43	6.151	4.525	3.461	2.777	2.267	2.011	1.643	1.405	1.436	1.301	1.289	1.243	1.103	1.068	0.972	0.967	0.886	0.947	0.892	1.051	0.864	0.786	0.853	0.980	0.838	1.071	1.242	1.291	1.504	1.599	1.370	1.186	1.131	1.130	1.031	0.895	0.958	1.124	1.043	1.198	1.417	1.533	1.791	1.887	2.765	4.122	5.608	4.758	3.176	2.674	2.756	3.294	3.652	4.290	6.437	14.43	35.92	61.54
305.0	289.7	421.5	449.4	346.0	220.9	188.3	217.2	263.7	320.4	435.1	742.2	1085	614.7	422.0	461.9	1821	6978	5028	73.61	9.161	5.388	4.059	2.995	2.655	2.328	1.858	1.608	1.433	1.429	1.331	1.301	1.282	1.080	1.164	1.111	1.065	1.000	0.938	1.069	0.801	0.872	0.814	0.901	0.942	1.024	1.275	1.282	1.727	1.838	1.567	1.319	1.248	1.252	1.293	1.092	1.198	1.303	1.361	1.534	1.636	1.970	1.995	2.292	2.613	3.086	4.378	5.664	5.664	3.979	2.845	2.702	2.498	2.321	2.911	4.395	9.307	20.46
310.0	306.6	449.1	497.8	370.3	258.7	235.6	261.7	315.3	389.0	489.8	643.3	917.3	985.8	581.3	351.4	542.3	1978	5140	5635	1473	22.96	5.538	3.904	2.951	2.510	2.188	1.834	1.493	1.499	1.437	1.195	1.211	1.061	1.117	1.120	1.049	1.052	0.984	0.938	0.896	0.919	0.882	0.962	1.004	1.107	1.378	1.398	1.663	1.759	1.644	1.375	1.455	1.438	1.355	1.313	1.438	1.534	1.552	1.659	1.986	2.148	2.291	2.498	2.772	3.117	3.509	4.082	4.817	5.562	5.441	4.142	3.244	2.415	2.316	2.440	3.182	5.525
315.0	319.1	469.2	524.4	403.6	301.4	280.7	303.6	365.5	438.2	548.9	660.7	774.7	890.3	935.2	479.1	306.6	563.4	1250	3299	7526	503.0	24.39	5.407	3.856	3.005	2.412	2.065	1.652	1.579	1.444	1.347	1.207	1.180	1.332	1.174	1.073	1.052	1.116	1.119	0.902	0.981	0.861	0.946	1.034	1.182	1.420	1.493	1.639	1.939	1.666	1.415	1.457	1.608	1.452	1.420	1.634	1.658	1.852	1.926	2.127	2.322	2.514	2.822	3.083	3.373	3.461	3.755	4.280	4.130	4.628	5.720	5.878	4.086	2.827	2.339	2.127	2.450
320.0	347.0	525.6	620.8	466.7	343.3	302.7	345.0	394.4	474.0	589.3	699.6	786.0	803.7	921.8	751.6	334.4	290.2	389.1	879.7	4699	6481	420.4	13.10	4.898	3.600	2.984	2.563	1.893	1.814	1.652	1.438	1.317	1.333	1.302	1.115	1.035	0.938	1.104	1.018	0.941	0.974	0.927	1.118	1.133	1.179	1.406	1.750	2.026	2.180	1.905	1.596	1.637	1.710	1.601	1.611	1.776	1.824	2.099	2.101	2.236	2.532	2.760	2.963	3.259	3.514	3.856	3.975	4.048	3.999	4.212	4.860	5.542	5.500	4.522	2.963	2.321	2.030
325.0	384.1	620.0	732.8	568.5	396.8	343.2	374.9	426.4	514.8	623.6	740.6	823.8	817.0	810.2	864.4	515.7	270.4	224.8	284.5	1301	5441	3847	59.99	8.253	4.623	3.750	2.733	2.002	1.818	1.633	1.457	1.252	1.423	1.226	1.206	1.083	0.931	1.022	0.954	0.948	0.926	0.953	1.110	1.175	1.337	1.584	1.898	2.340	2.508	2.179	2.040	1.926	1.828	1.576	1.730	1.925	1.989	2.021	2.262	2.237	2.704	2.838	3.070	3.702	3.885	3.942	4.184	4.321	4.309	4.187	4.527	4.582	4.715	5.713	4.822	3.545	2.428
330.0	422.9	721.0	914.5	751.9	499.2	402.0	407.9	452.3	545.6	660.5	774.1	862.9	860.8	789.2	739.7	685.6	435.7	237.2	182.0	374.1	1497	3783	4404	1273	20.60	4.751	3.214	2.626	2.284	1.846	1.638	1.500	1.322	1.203	1.219	1.178	1.073	1.054	1.006	1.015	1.012	1.008	1.183	1.076	1.390	1.701	2.019	2.643	3.020	2.857	2.477	2.536	2.259	2.033	1.975	1.953	2.163	2.145	2.378	2.513	2.651	3.016	3.379	3.691	3.865	4.046	4.276	4.366	4.463	4.307	4.331	4.299	4.373	4.456	4.626	4.567	4.141
335.0	450.9	780.8	1015	888.4	610.9	475.3	444.1	483.4	571.3	682.2	809.2	887.6	899.5	819.2	704.5	606.3	617.3	385.0	208.2	201.9	406.4	908.4	2574	6072	1739	24.27	4.794	3.336	2.502	2.155	1.836	1.687	1.539	1.342	1.416	1.223	1.163	1.095	1.133	1.014	1.037	1.121	1.255	1.124	1.437	1.806	2.084	2.764	3.248	3.250	2.860	2.843	2.759	2.340	2.026	2.053	2.292	2.270	2.538	2.508	2.785	3.068	3.518	3.665	3.899	4.050	4.551	4.591	4.699	4.389	4.773	4.460	4.434	4.149	3.999	4.057	4.169
340.0	448.4	798.3	1064	964.8	679.6	520.5	475.2	496.1	583.5	696.1	804.2	886.0	897.0	828.4	717.0	577.7	564.9	545.2	275.7	184.5	184.2	263.4	673.1	3751	5729	378.5	13.27	4.063	3.397	2.568	2.043	1.754	1.731	1.436	1.309	1.049	1.161	0.980	0.956	0.975	1.048	1.068	1.194	1.238	1.524	1.817	2.210	3.065	3.229	3.530	3.062	3.096	2.956	2.360	2.206	2.168	2.370	2.357	2.756	2.722	2.884	3.057	3.559	3.922	3.973	4.098	4.505	4.363	4.597	4.723	5.021	4.529	4.484	4.226	3.725	3.723	3.657
345.0	453.6	782.4	1088	994.8	721.8	547.6	508.6	514.6	587.8	685.5	788.8	871.4	884.8	830.5	714.6	576.5	496.6	545.5	408.0	214.1	153.6	136.8	204.3	1023	4530	3292	294.2	7.060	4.088	3.089	2.251	1.826	1.772	1.571	1.442	1.154	1.125	1.060	0.951	1.118	0.956	1.129	1.208	1.154	1.421	1.777	2.175	2.931	3.319	3.468	3.115	3.375	3.317	2.545	2.376	2.401	2.676	2.543	2.555	2.721	3.158	3.156	3.493	3.720	3.717	4.017	4.213	4.306	4.369	4.827	4.792	4.372	4.251	4.202	3.831	3.812	3.555
350.0	440.3	745.3	1028	999.8	763.6	591.0	538.4	543.2	592.0	674.7	765.3	839.4	848.5	803.5	711.5	586.1	489.7	454.3	463.4	346.7	193.0	136.5	123.0	281.9	1234	3072	3708	1136	19.36	4.204	2.831	2.239	1.849	1.660	1.529	1.185	1.144	1.095	0.982	1.030	0.944	1.078	1.103	1.115	1.351	1.777	2.067	2.849	3.185	3.273	3.072	3.397	3.238	2.813	2.674	2.524	2.697	2.748	2.712	2.886	3.043	3.173	3.389	3.672	3.690	3.826	4.008	4.294	4.405	4.538	4.348	4.292	4.332	4.293	3.889	3.900	3.528
355.0	416.9	710.3	982.4	953.6	775.9	649.2	585.7	582.3	607.4	678.6	751.9	815.0	820.1	784.7	706.9	596.5	513.9	442.7	401.2	431.4	316.7	180.3	134.1	140.1	324.8	733.3	2083	4836	1566	23.51	3.946	3.261	2.028	1.776	1.501	1.275	1.269	1.187	1.044	1.026	0.978	1.041	1.180	1.119	1.419	1.732	2.096	2.582	2.882	3.135	2.824	3.461	3.219	3.200	2.861	2.923	2.875	2.819	2.923	3.052	3.009	3.279	3.386	3.665	3.676	3.844	3.935	3.873	4.511	4.290	4.099	4.205	4.370	4.429	3.870	3.935	3.865
360.0	414.4	675.6	937.7	937.6	794.8	693.9	619.5	613.4	644.5	694.5	751.3	791.8	798.2	769.7	696.1	606.0	528.1	456.8	398.6	394.9	408.4	250.4	160.7	128.0	142.7	210.2	539.9	2965	4787	360.9	12.93	3.593	2.400	2.023	1.663	1.279	1.377	1.326	1.048	0.959	1.041	1.065	1.062	1.189	1.457	1.791	1.965	2.576	2.941	2.949	2.897	3.386	3.182	3.019	2.935	3.035	2.942	2.989	2.913	3.103	3.263	3.444	3.653	3.529	3.720	3.846	3.800	3.869	4.080	4.215	4.175	4.166	4.239	4.385	3.910	4.051	4.139
365.0	391.2	632.6	875.3	937.9	809.2	721.2	648.2	627.3	655.9	699.5	742.6	782.5	779.8	752.7	693.1	609.9	542.7	478.3	414.5	373.7	402.1	351.9	206.7	146.4	118.7	107.9	161.1	812.2	3781	3062	282.7	6.574	3.156	2.224	1.943	1.451	1.438	1.182	1.192	0.950	1.136	1.114	1.039	1.084	1.314	1.567	1.881	2.326	2.747	2.913	2.840	3.095	3.397	3.059	2.983	3.042	3.124	3.096	2.967	3.170	3.291	3.288	3.568	3.694	3.641	3.904	3.957	3.897	3.932	4.004	4.340	4.112	4.065	3.914	4.271	3.816	4.045
370.0	369.6	598.9	818.9	889.4	816.8	744.0	676.5	650.8	672.9	710.6	739.4	763.0	757.7	730.9	676.0	613.6	552.9	499.4	440.5	392.6	366.8	378.3	319.9	199.8	142.1	110.7	95.45	223.3	1028	2719	3344	1049	17.61	3.325	2.288	1.689	1.619	1.297	1.312	1.072	1.090	1.074	1.086	1.130	1.271	1.549	1.774	2.292	2.528	2.706	2.588	3.050	3.358	3.178	3.064	3.092	3.337	3.191	3.265	3.192	3.445	3.443	3.481	3.601	3.753	3.752	3.866	3.901	3.852	3.820	4.131	4.162	3.993	4.062	3.983	3.987	3.836
375.0	350.2	576.7	784.5	850.9	823.5	761.5	707.7	670.9	682.7	716.2	737.6	743.8	734.9	709.7	666.8	603.7	562.8	514.8	465.3	422.8	374.5	351.1	365.6	305.0	188.0	136.8	106.3	111.2	270.8	647.9	1845	4200	1405	21.40	3.301	2.072	1.776	1.338	1.320	1.201	1.082	0.967	0.994	1.067	1.212	1.573	1.754	2.174	2.661	2.546	2.572	3.122	3.439	3.428	3.384	3.281	3.521	3.127	3.398	3.181	3.430	3.353	3.417	3.688	3.752	3.524	3.656	3.727	3.686	3.737	3.973	3.958	4.002	4.118	3.815	4.042	3.866
380.0	333.6	556.5	745.6	858.3	830.3	768.0	717.2	694.2	686.7	709.9	722.7	725.7	720.6	700.1	651.1	604.4	557.2	520.1	481.6	437.6	389.9	352.5	341.8	360.6	250.2	163.7	126.8	100.7	113.3	183.8	477.3	2560	3967	303.9	11.80	2.773	2.141	1.583	1.259	1.220	1.190	1.026	1.056	1.059	1.235	1.484	1.541	2.036	2.373	2.497	2.431	3.011	3.373	3.316	3.320	3.203	3.503	3.462	3.392	3.319	3.494	3.573	3.598	3.615	3.603	3.421	3.700	3.654	3.766	3.845	3.989	3.927	3.932	3.966	3.850	3.879	3.863
385.0	326.5	544.3	732.2	828.1	826.8	784.6	726.7	699.1	683.0	696.1	714.8	713.3	704.9	673.5	635.7	589.4	559.6	522.8	485.4	445.9	407.7	364.8	334.9	348.7	322.9	207.6	150.2	115.6	94.85	90.44	142.0	694.9	3003	2556	233.3	5.189	2.667	1.930	1.258	1.390	1.190	1.124	1.081	1.080	1.273	1.427	1.718	2.092	2.308	2.365	2.426	3.073	3.318	3.210	3.469	3.287	3.498	3.305	3.171	3.334	3.367	3.387	3.573	3.470	3.807	3.115	3.364	3.644	3.775	3.414	3.841	4.001	3.910	3.957	3.784	4.040	3.872
390.0	321.4	519.7	702.6	787.8	803.3	779.5	732.7	703.4	688.2	698.7	699.1	689.4	683.7	653.2	618.6	573.5	547.2	519.3	487.9	455.5	421.2	381.6	345.9	325.9	329.1	289.7	194.2	141.8	111.0	89.05	81.27	189.3	809.7	2088	2510	815.9	15.03	2.704	1.823	1.453	1.266	1.210	1.163	1.210	1.328	1.410	1.549	2.067	2.248	2.268	2.457	3.057	3.105	3.124	3.303	3.274	3.403	3.461	3.225	3.383	3.407	3.426	3.556	3.623	3.657	3.361	3.519	3.631	3.623	3.542	3.711	3.733	3.747	3.918	3.838	3.950	3.839
395.0	313.1	488.2	674.8	759.7	802.6	769.4	735.8	696.6	684.3	684.9	684.2	668.3	660.7	633.1	599.9	559.2	538.1	507.1	483.6	454.6	429.5	395.2	363.9	335.1	310.4	312.5	276.3	183.2	139.0	110.0	84.60	89.91	211.6	494.9	1365	3076	1088	17.94	2.816	1.984	1.609	1.381	1.246	1.111	1.336	1.473	1.580	1.925	2.227	2.133	2.463	3.006	3.086	3.143	3.367	3.250	3.428	3.423	3.255	3.597	3.647	3.573	3.570	3.421	3.289	3.226	3.363	3.434	3.433	3.553	3.498	3.650	3.549	3.729	3.731	3.571	3.760
400.0	308.1	490.3	653.6	769.6	784.5	763.7	738.8	700.2	686.5	675.5	667.9	668.0	647.1	621.0	587.8	548.9	520.1	498.2	475.2	454.4	430.0	402.9	374.9	349.2	311.6	301.1	311.3	234.9	164.1	132.7	101.4	78.67	86.00	138.1	353.4	1870	2911	255.4	9.753	2.292	1.744	1.572	1.414	1.126	1.242	1.500	1.439	2.048	2.257	2.186	2.340	2.927	2.983	3.338	3.247	3.143	3.326	3.422	3.436	3.312	3.489	3.581	3.440	3.569	3.405	3.283	3.546	3.272	3.122	3.500	3.505	3.496	3.642	3.805	3.583	3.395	3.810
405.0	306.0	464.3	650.5	760.5	781.6	770.0	731.8	695.3	679.6	667.3	660.2	662.6	636.1	605.9	576.4	532.0	507.9	487.6	468.3	448.0	429.5	406.4	381.6	355.9	321.5	297.8	302.1	287.3	199.7	149.9	116.5	88.40	68.61	64.71	102.4	503.3	2169	2125	201.2	4.150	1.934	1.635	1.583	1.169	1.327	1.460	1.507	2.115	2.071	2.269	2.223	2.915	3.016	3.202	3.297	3.237	3.298	3.381	3.321	3.418	3.355	3.378	3.426	3.355	3.398	3.350	3.153	3.215	3.240	3.324	3.296	3.418	3.591	3.602	3.395	3.502	3.619
410.0	293.7	453.2	612.1	718.0	741.3	753.0	718.3	697.2	673.6	660.0	649.6	640.2	618.2	587.6	554.0	513.7	486.4	468.1	452.4	434.8	415.7	399.6	381.8	361.2	331.4	306.0	286.0	286.8	259.9	189.9	138.7	105.2	76.67	58.57	53.54	134.3	580.8	1571	1947	664.5	13.31	2.157	1.799	1.379	1.359	1.540	1.614	1.866	2.075	2.155	2.203	2.801	3.073	3.003	3.181	3.123	3.285	3.328	3.380	3.400	3.380	3.337	3.356	3.441	3.287	3.270	3.211	3.042	3.205	3.192	3.273	3.348	3.453	3.396	3.386	3.428	3.475
415.0	272.9	433.8	602.1	701.9	735.5	728.7	713.1	688.0	669.7	654.2	636.7	623.1	598.0	560.1	528.0	487.9	462.8	447.3	430.4	415.6	399.2	388.4	374.5	358.2	339.5	313.5	288.7	265.9	269.7	246.2	168.7	122.0	91.20	66.61	50.13	57.46	148.5	368.7	999.0	2239	258.4	16.65	2.427	1.599	1.501	1.729	1.559	1.793	2.038	2.095	2.148	2.586	3.039	2.912	3.053	2.952	3.299	3.171	3.196	3.372	3.293	3.188	3.282	3.268	3.137	3.143	3.199	3.148	3.164	3.430	3.225	3.232	3.219	3.380	3.340	3.254	3.206
420.0	256.4	430.6	569.3	676.8	708.6	712.9	694.8	669.8	656.2	646.4	629.4	600.3	576.2	545.4	506.0	469.7	439.5	430.4	411.2	395.4	388.5	378.2	366.5	353.2	331.9	310.4	290.7	266.3	256.1	259.2	202.9	138.1	100.5	74.04	54.36	45.65	55.24	97.14	252.4	1312	2003	236.0	10.23	2.009	1.709	1.611	1.721	1.712	2.070	1.921	2.278	2.684	3.076	2.882	3.067	3.063	3.256	3.060	3.216	3.361	3.455	3.366	3.007	3.277	3.117	2.815	2.924	3.147	3.221	3.040	3.108	3.234	3.045	3.217	3.423	3.055	3.265
425.0	249.6	419.7	557.8	660.6	693.7	691.0	681.2	670.7	646.6	633.2	616.5	585.3	558.5	526.8	487.5	450.2	420.7	410.9	391.5	382.0	374.8	364.5	356.5	344.8	330.4	312.2	290.1	267.5	246.7	243.0	232.1	159.1	110.7	82.47	61.58	47.51	37.90	39.17	68.90	348.4	1514	1788	197.2	3.827	2.010	1.708	1.637	1.857	2.049	1.971	2.175	2.624	2.787	2.758	2.979	3.085	3.009	2.994	3.277	3.228	3.453	3.254	2.950	2.984	3.219	3.006	3.016	3.061	3.059	2.997	3.117	2.860	3.045	3.185	3.115	3.142	3.063
430.0	280.9	385.1	520.7	635.7	669.4	674.7	674.2	661.5	644.5	627.0	613.4	576.3	543.8	504.8	469.3	428.2	400.5	386.4	372.9	364.8	353.1	349.7	341.1	332.6	322.4	310.1	290.9	269.2	250.3	231.9	225.9	194.8	133.3	94.51	71.74	53.63	40.02	32.07	31.13	89.16	396.9	1174	1768	550.1	12.73	2.261	1.766	1.939	2.003	1.852	1.869	2.639	2.815	2.769	2.981	2.807	3.140	3.013	3.050	3.194	3.294	3.213	3.098	3.078	3.108	3.131	3.099	3.112	2.875	2.823	3.099	2.889	2.847	2.865	2.887	2.790	3.053
435.0	390.6	384.7	511.6	601.9	629.1	659.9	652.8	654.0	639.1	626.2	588.9	561.8	525.6	490.9	444.3	407.7	375.1	367.9	350.5	342.9	334.4	327.9	327.1	323.0	313.2	302.0	284.7	270.1	252.1	231.2	209.7	196.9	168.7	114.0	81.74	62.46	46.67	35.14	27.59	34.59	98.98	272.9	836.4	1831	241.8	16.31	2.401	2.292	2.064	1.720	1.969	2.505	2.728	2.831	2.917	2.813	3.032	3.092	3.232	3.097	3.128	3.129	3.057	2.882	3.139	3.018	2.930	2.993	2.819	2.891	2.757	2.706	2.822	2.692	2.954	2.675	2.985
440.0	501.2	418.0	496.8	564.7	620.7	642.4	636.2	645.8	631.4	615.9	597.9	555.5	516.2	468.6	427.7	387.9	363.5	348.8	335.7	327.3	318.1	316.3	314.8	309.8	304.2	296.2	281.1	267.7	249.6	231.8	207.7	184.8	175.8	136.3	90.76	68.97	51.85	40.06	29.68	24.65	34.51	70.44	207.2	1048	1769	221.4	8.975	2.500	2.023	1.862	1.934	2.490	2.594	2.920	2.671	2.793	2.888	3.106	3.212	3.172	3.189	3.248	3.016	2.884	3.070	2.929	2.902	2.820	2.903	2.686	2.401	2.585	2.761	2.680	2.658	2.659	2.764
445.0	505.3	536.3	482.6	552.3	598.4	636.7	631.6	632.8	617.7	600.3	586.8	538.8	497.5	452.9	412.9	372.4	347.6	331.8	322.1	312.5	306.9	300.9	299.1	299.0	293.3	285.4	274.0	262.5	247.1	229.6	205.9	179.7	163.2	152.0	104.3	75.08	56.55	43.61	33.55	24.91	22.53	26.70	54.83	275.0	1297	1624	161.4	4.721	2.241	2.089	1.889	2.347	2.635	2.629	2.696	2.707	2.925	2.981	3.102	3.115	3.149	3.117	3.106	2.909	2.998	2.889	2.786	2.769	2.916	2.676	2.578	2.629	2.715	2.627	2.620	2.549	2.670
450.0	376.7	836.1	576.3	526.6	560.4	590.6	606.3	606.3	593.0	579.2	560.8	519.8	473.3	429.9	386.7	349.0	323.0	309.9	296.1	287.8	282.8	279.8	277.2	279.1	275.0	267.3	259.5	250.3	238.5	222.8	203.2	175.4	151.6	142.3	122.7	87.66	62.26	47.96	37.39	28.41	22.13	19.29	22.57	69.12	337.1	1035	1395	493.5	11.19	2.435	2.192	2.446	2.577	2.604	2.687	2.603	2.893	3.026	2.934	3.014	2.860	3.009	2.887	2.838	3.000	2.791	2.581	2.699	2.846	2.527	2.534	2.561	2.489	2.593	2.437	2.338	2.619
455.0	228.8	894.9	1014	508.4	513.6	540.6	567.5	562.3	557.7	547.7	524.2	491.1	446.5	397.6	355.1	321.2	298.5	285.5	270.0	263.5	259.5	256.3	253.7	253.9	249.5	245.8	242.2	232.9	225.3	210.1	192.3	169.9	145.1	126.8	118.5	104.5	71.77	52.74	41.08	32.37	24.31	19.37	17.29	24.65	82.04	239.4	627.6	1521	204.2	12.87	2.370	2.588	2.518	2.472	2.612	2.335	2.858	2.693	2.849	2.815	2.664	2.676	2.777	2.809	2.834	2.744	2.630	2.566	2.539	2.401	2.253	2.471	2.355	2.354	2.111	2.306	2.257
460.0	186.4	645.0	1507	639.7	488.4	519.3	533.7	528.5	541.2	512.4	495.6	462.3	420.1	374.7	329.8	294.0	277.9	263.6	252.5	243.0	240.8	236.3	235.6	234.9	231.8	228.5	225.1	220.6	214.4	203.9	184.9	161.7	141.5	120.7	106.6	105.4	84.06	56.80	42.44	33.55	27.39	21.20	17.01	15.60	26.20	59.80	153.4	817.6	1381	170.1	8.081	2.537	2.631	2.364	2.574	2.331	2.549	2.750	2.759	2.534	2.632	2.782	2.715	2.810	2.653	2.636	2.617	2.547	2.525	2.244	2.154	2.177	2.138	2.241	2.109	2.278	2.293
465.0	168.9	391.4	1611	867.7	460.8	485.0	508.0	503.5	502.4	488.9	475.2	440.9	396.7	355.2	310.9	279.8	255.5	243.9	231.2	225.7	220.8	217.4	216.9	215.1	215.2	213.9	207.9	205.6	200.3	192.0	177.3	155.7	136.6	116.0	98.93	94.95	87.85	63.72	45.36	34.86	28.62	22.48	18.18	14.98	14.51	20.39	40.34	209.7	998.6	1205	136.1	4.832	2.615	2.264	2.525	2.450	2.568	2.626	2.689	2.497	2.566	2.506	2.654	2.710	2.497	2.480	2.459	2.331	2.358	2.221	2.247	2.273	2.049	2.187	1.945	2.028	2.191
470.0	173.7	274.7	989.7	1763	690.1	443.6	457.3	457.8	465.1	451.3	432.5	405.2	358.6	322.0	281.6	253.7	231.2	219.2	207.1	201.2	197.3	193.5	192.3	193.7	193.0	191.3	187.6	186.4	183.2	175.6	163.1	145.2	127.6	109.3	93.65	82.32	79.16	70.69	50.88	37.17	29.63	23.92	19.23	15.83	13.27	12.72	15.37	52.10	256.7	738.0	973.5	392.9	11.68	2.528	2.403	2.474	2.380	2.589	2.583	2.478	2.462	2.381	2.436	2.421	2.419	2.321	2.218	2.231	2.143	2.145	2.003	2.023	2.049	2.022	1.873	1.811	1.988
475.0	159.8	234.2	464.5	1674	1524	430.0	405.7	412.0	424.0	411.6	391.7	367.5	326.6	284.7	251.6	225.4	208.7	193.9	185.0	176.8	171.8	169.3	171.5	171.3	168.9	170.3	165.7	165.1	163.8	156.7	147.0	133.2	118.2	101.3	86.64	75.97	68.24	65.21	57.95	42.03	30.24	25.32	20.04	16.91	14.11	11.47	11.02	17.48	61.71	169.5	380.9	1004	207.5	14.87	2.382	2.183	2.243	2.322	2.262	2.359	2.324	2.145	2.156	2.287	2.141	2.042	2.112	2.021	1.943	1.975	1.709	1.797	1.788	1.867	1.732	1.591	1.831
480.0	155.0	224.2	307.3	1054	2170	547.9	380.9	383.7	387.3	384.4	363.4	340.7	302.9	264.0	231.4	208.1	189.1	177.1	170.3	162.2	156.6	156.4	156.6	154.7	155.4	155.3	152.9	152.9	148.3	146.2	136.5	124.2	110.9	96.47	83.97	71.74	62.61	56.82	56.91	47.33	31.92	25.85	20.69	16.88	14.40	12.07	10.18	10.03	18.74	42.13	91.84	468.1	979.7	192.0	9.259	2.293	2.153	2.132	2.222	2.074	2.248	2.270	2.312	2.075	2.119	2.162	2.092	1.892	1.996	1.748	1.754	1.698	1.558	1.738	1.653	1.497	1.603
485.0	143.4	224.1	265.5	540.4	2166	1192	368.6	357.9	363.4	358.0	347.2	313.2	281.7	246.8	216.7	191.6	178.9	163.2	158.5	150.4	145.6	144.3	143.9	144.4	142.8	142.3	140.9	139.8	139.0	135.6	127.2	116.4	103.9	91.40	78.41	69.48	60.15	52.12	51.16	50.07	36.67	26.33	21.71	17.76	15.10	12.72	10.68	8.644	9.898	13.95	24.19	116.8	628.2	937.3	155.2	4.862	2.341	2.367	2.296	2.172	2.167	2.047	2.093	2.045	1.943	1.877	1.899	1.881	1.767	1.577	1.768	1.590	1.647	1.862	1.595	1.553	1.563
490.0	127.1	220.9	250.0	328.2	1220	2111	616.3	327.5	330.0	327.9	315.1	293.9	262.5	225.7	197.5	175.2	160.8	150.2	141.3	136.3	132.2	129.3	128.9	128.7	129.6	127.6	127.0	126.4	125.9	123.2	116.7	107.1	96.50	85.62	73.98	65.92	57.05	49.19	44.53	44.16	42.14	30.65	22.26	18.67	16.01	13.25	11.34	9.414	8.026	7.822	9.606	29.72	156.8	494.2	786.5	371.9	13.28	2.407	2.168	2.166	2.002	1.943	2.046	1.927	1.924	1.824	1.794	1.815	1.792	1.590	1.693	1.521	1.632	1.603	1.465	1.451	1.432
495.0	102.9	187.9	258.4	264.9	501.3	1876	1545	324.8	295.9	300.4	284.4	265.3	233.0	203.6	177.2	157.3	144.0	136.6	126.4	121.8	117.2	115.7	112.5	114.1	114.6	112.6	112.6	111.4	111.4	110.0	104.4	96.76	87.73	77.88	68.89	60.96	52.48	46.41	41.52	36.90	38.07	35.74	25.83	18.95	16.38	13.93	11.80	9.794	8.235	7.180	6.541	10.24	38.18	113.5	298.5	875.1	549.8	18.58	2.295	2.228	1.747	1.813	1.807	1.765	1.878	1.580	1.637	1.634	1.611	1.517	1.458	1.364	1.609	1.403	1.454	1.366	1.315
500.0	100.6	153.9	270.1	239.8	301.0	1101	2301	391.5	276.4	278.8	262.2	241.4	215.7	190.4	168.4	142.9	130.7	122.6	115.2	109.6	105.3	104.2	101.9	103.7	102.9	101.7	101.6	101.6	101.5	99.98	95.61	87.58	79.66	72.36	64.35	56.30	50.45	44.17	39.19	34.08	32.72	34.82	29.11	20.09	16.65	13.79	11.68	10.12	8.557	7.164	5.954	5.996	11.71	28.10	71.24	375.2	978.5	218.9	12.07	2.103	1.818	1.792	1.574	1.604	1.713	1.554	1.508	1.594	1.476	1.367	1.347	1.350	1.288	1.295	1.310	1.465	1.286
505.0	87.88	145.5	245.0	250.9	232.6	518.8	2300	1099	262.6	252.3	244.3	222.5	196.3	175.1	150.8	131.4	117.9	111.3	105.7	101.4	97.09	95.66	92.35	93.03	92.69	92.39	92.59	90.61	92.22	90.91	88.02	80.85	73.07	66.34	58.08	52.03	46.77	41.08	36.29	31.57	28.49	29.65	30.89	22.21	16.61	13.50	11.75	9.580	8.656	7.329	5.832	5.319	6.053	9.190	18.70	90.86	503.6	877.2	183.6	6.086	1.891	1.676	1.561	1.546	1.642	1.526	1.350	1.378	1.307	1.299	1.274	1.403	1.217	1.152	1.192	1.271	1.199
510.0	80.17	114.6	187.1	256.6	210.9	272.3	1237	2160	487.4	223.3	217.0	198.2	176.6	153.9	133.1	116.6	103.0	98.62	92.93	88.30	83.88	82.88	81.52	80.69	80.46	80.86	80.36	79.18	81.17	79.59	76.93	70.57	64.31	58.71	52.20	46.92	42.30	37.39	33.10	29.32	25.40	24.25	25.67	24.46	18.57	13.85	11.39	9.586	8.543	7.250	6.342	5.374	4.707	5.089	6.836	22.79	121.5	403.7	653.9	318.0	14.18	1.991	1.478	1.469	1.427	1.368	1.332	1.318	1.138	1.252	1.251	1.205	1.179	1.080	1.014	1.154	1.103
515.0	72.84	104.1	144.5	231.3	212.8	192.2	442.7	1981	1487	225.7	191.7	173.9	153.7	133.8	113.9	101.5	91.76	85.54	78.98	75.90	72.34	71.17	69.30	69.67	68.63	69.33	68.84	68.95	67.78	68.76	66.64	60.90	56.14	51.55	46.15	41.36	37.05	32.81	29.83	26.39	23.60	20.57	20.38	21.55	21.30	14.91	11.36	9.462	8.097	7.134	5.932	5.602	4.658	4.033	4.289	7.551	29.35	92.35	207.6	626.9	237.1	19.88	1.628	1.584	1.388	1.308	1.169	1.276	1.286	1.100	1.109	1.087	1.151	1.014	0.965	1.066	0.942
520.0	73.88	94.07	124.2	191.6	217.3	170.3	226.6	1095	2392	421.2	172.2	156.0	137.1	122.2	104.8	90.07	81.58	76.88	71.10	67.84	65.42	62.20	63.22	62.47	61.09	61.45	60.73	61.15	61.42	61.22	60.26	55.64	50.20	45.56	41.49	37.32	34.16	29.87	26.59	24.46	22.32	19.29	17.42	18.09	20.54	17.52	11.82	9.287	7.865	6.784	5.837	5.507	4.899	3.925	3.591	4.180	8.875	22.80	48.78	242.7	648.1	223.6	13.52	1.529	1.386	1.251	1.071	1.153	1.204	0.906	1.055	1.033	0.961	0.991	0.958	0.906	0.860
525.0	68.51	78.50	114.7	150.8	219.1	170.7	166.6	452.3	2523	1093	161.6	145.1	124.7	110.5	92.54	81.48	74.35	69.88	64.40	60.45	58.11	55.70	56.19	55.33	54.93	54.87	54.82	54.17	54.68	54.76	53.00	49.65	45.16	41.08	37.47	34.35	31.39	27.80	24.91	22.68	20.61	18.25	16.50	15.46	17.12	17.78	13.23	9.693	7.539	6.776	5.636	5.096	4.853	4.113	3.325	3.283	4.223	7.260	12.84	58.10	307.5	630.8	182.8	6.504	1.570	1.216	1.017	1.031	1.038	1.063	1.061	1.005	0.974	0.959	0.921	0.893	0.999
530.0	57.71	72.43	94.32	118.0	188.2	184.2	138.9	204.2	1278	2312	401.9	124.6	109.1	97.26	82.07	70.33	65.55	59.93	55.02	53.79	51.12	48.63	48.50	47.64	47.65	46.99	46.58	46.95	46.96	46.53	44.92	42.41	39.15	35.83	32.26	29.50	26.97	24.36	21.91	20.37	17.88	15.94	14.72	13.52	13.16	14.79	14.20	10.59	7.325	6.307	5.384	4.756	4.267	4.238	3.739	3.185	3.084	3.539	4.609	14.69	73.00	258.1	454.4	243.1	15.04	1.538	1.083	1.094	1.015	1.009	0.964	0.874	0.908	0.868	0.801	0.830	0.872
535.0	56.61	62.28	82.89	97.12	131.6	196.1	132.2	131.8	397.5	2127	1463	127.5	92.45	83.11	70.16	60.16	55.85	50.69	47.27	45.30	43.95	42.24	40.85	39.97	40.36	39.61	38.94	39.37	40.24	40.60	38.23	35.99	33.44	30.67	27.71	25.18	23.31	21.53	19.37	17.79	15.83	14.31	13.14	11.51	10.74	10.88	12.42	12.03	7.788	5.892	5.038	4.508	4.091	3.663	3.754	3.518	2.840	2.590	2.853	4.807	17.80	59.02	131.5	403.3	242.4	21.07	1.276	1.153	0.982	0.910	0.897	0.827	0.874	0.828	0.761	0.724	0.800
540.0	49.29	64.45	71.54	82.81	99.38	170.7	143.9	113.4	167.9	1068	2527	202.8	83.03	70.88	61.48	55.22	49.92	45.38	42.43	38.95	38.85	36.22	36.32	34.68	34.76	35.63	34.49	34.21	34.80	34.60	34.68	31.51	29.25	27.39	24.76	22.34	20.96	19.27	17.48	15.52	13.93	12.88	11.57	10.52	9.865	9.246	10.09	11.47	8.920	6.275	4.666	4.234	3.832	3.402	3.496	3.601	2.854	2.509	2.199	2.725	5.455	14.63	30.98	143.6	443.0	220.4	13.83	1.213	0.988	0.910	0.778	0.806	0.785	0.797	0.772	0.683	0.716
545.0	47.04	58.23	65.79	75.76	83.56	133.2	153.3	99.37	112.4	398.5	2527	844.2	77.32	63.32	54.43	48.49	43.89	41.64	38.14	35.76	33.48	33.07	31.88	30.49	31.08	30.63	30.35	30.58	30.73	30.51	31.01	27.99	25.86	23.69	22.15	20.36	18.57	17.11	15.68	13.87	12.50	11.52	10.32	9.578	8.968	8.060	8.067	9.949	9.407	6.675	4.425	3.817	3.486	3.194	3.044	3.221	2.992	2.324	2.038	2.010	2.621	4.706	8.169	34.21	188.4	443.6	168.6	6.230	0.884	0.998	0.750	0.736	0.750	0.699	0.674	0.655	0.671
550.0	51.82	56.01	63.26	66.63	69.17	91.27	151.1	102.7	86.04	155.1	1161	1945	226.4	54.84	47.04	41.76	35.91	34.50	31.08	29.77	27.55	27.17	26.37	25.88	25.24	25.36	25.50	24.80	25.44	25.29	25.07	23.63	21.72	20.01	18.47	17.08	15.34	14.36	13.42	11.72	10.97	9.926	9.154	8.128	7.695	7.018	6.472	7.084	7.905	7.202	5.008	3.671	3.176	2.898	2.758	2.612	2.828	2.629	2.117	1.908	1.911	2.401	3.019	8.829	44.48	168.7	309.3	139.8	14.53	1.313	0.849	0.817	0.737	0.718	0.711	0.640	0.604
555.0	49.43	54.29	55.69	57.32	59.38	65.17	110.9	123.8	74.78	87.84	331.6	1872	1032	52.73	39.14	33.99	29.69	28.03	25.57	24.10	22.37	22.22	21.20	20.90	20.95	19.96	20.27	19.97	20.86	20.13	19.57	18.86	18.05	16.81	14.79	13.53	12.83	11.45	10.93	9.671	9.224	8.029	7.614	6.875	6.692	5.875	5.443	5.310	5.488	6.300	5.529	3.868	2.900	2.577	2.481	2.325	2.333	2.497	2.210	2.079	1.639	1.766	1.896	3.137	11.17	38.70	86.53	248.4	224.3	20.08	0.988	0.820	0.712	0.683	0.721	0.667	0.689
560.0	47.90	54.35	55.29	56.11	54.13	51.80	75.57	132.2	71.94	65.76	122.7	919.4	1999	115.6	34.17	29.42	26.55	24.15	21.96	20.79	19.81	18.48	17.78	17.63	17.50	16.97	16.89	17.46	17.34	17.18	16.36	16.13	15.02	14.19	12.88	11.50	10.79	10.04	9.412	8.110	7.652	7.026	6.566	5.960	5.781	5.080	4.823	4.614	4.227	4.717	5.414	4.120	2.896	2.537	2.291	2.132	1.984	2.096	2.164	2.183	1.705	1.614	1.746	2.011	3.818	9.845	20.65	85.78	284.1	191.0	12.28	0.924	0.753	0.709	0.645	0.597	0.667
565.0	50.02	55.43	53.38	52.82	46.73	43.36	54.29	121.4	84.84	54.74	69.80	313.6	2148	506.2	29.91	25.53	22.87	20.04	18.92	18.14	17.00	15.75	15.24	15.10	14.86	14.57	14.75	14.89	14.74	14.83	13.86	13.81	12.29	11.73	11.05	9.755	9.488	8.307	7.937	7.076	6.874	6.092	5.469	5.238	5.116	4.679	4.242	3.886	3.476	3.577	4.518	4.301	2.887	2.205	2.051	1.978	1.975	1.828	1.981	2.443	1.901	1.694	1.690	1.772	2.067	3.565	5.813	20.65	112.1	294.9	121.6	5.055	0.833	0.692	0.616	0.595	0.664
570.0	45.74	53.21	54.18	50.51	41.27	38.50	40.76	80.81	105.2	56.93	53.34	108.7	1026	1439	79.30	21.34	19.06	16.96	15.58	14.52	13.62	13.13	12.51	12.68	12.25	12.08	11.78	12.07	11.79	11.70	11.57	11.29	10.63	9.611	8.875	8.357	7.589	6.960	6.526	6.057	5.724	5.182	4.812	4.392	4.098	3.953	3.592	3.217	2.877	2.787	3.026	3.607	3.226	2.399	1.941	1.767	1.784	1.661	1.759	2.054	2.155	1.882	1.727	1.677	1.721	2.004	2.479	5.741	26.77	105.7	185.0	110.3	13.86	0.958	0.635	0.553	0.618
575.0	50.52	52.07	53.34	43.37	35.49	34.66	36.55	52.38	104.9	70.70	46.28	58.05	280.4	1489	664.7	21.03	15.72	13.50	12.82	12.12	11.49	11.16	10.27	10.50	10.06	9.423	8.894	9.722	9.488	9.370	9.395	9.209	8.365	7.619	7.136	6.871	6.169	5.496	5.273	5.116	4.634	4.134	3.950	3.672	3.447	3.383	2.823	2.847	2.483	2.213	2.081	2.623	2.884	2.750	1.921	1.637	1.661	1.479	1.643	1.661	1.739	2.244	1.936	1.526	1.609	1.629	1.901	2.655	7.186	24.63	49.61	142.6	155.4	17.84	0.797	0.661	0.626
580.0	57.63	51.27	51.46	41.18	34.68	32.48	31.76	39.28	81.82	90.28	43.78	45.33	93.23	751.8	1375	52.18	13.31	12.23	10.44	10.23	9.190	9.239	8.743	8.910	8.193	8.063	7.851	7.934	8.121	8.087	8.083	7.331	7.241	6.736	6.128	5.574	5.149	4.731	4.505	4.536	3.928	3.583	3.510	3.136	3.056	3.098	2.675	2.527	2.120	2.025	1.941	2.002	2.558	2.831	2.026	1.545	1.486	1.395	1.628	1.484	1.635	1.923	1.961	1.580	1.612	1.579	1.588	1.648	2.771	6.584	12.23	46.34	167.3	118.3	9.999	0.706	0.597
585.0	46.46	51.42	50.68	44.80	32.43	31.07	28.29	33.24	55.41	103.8	50.87	43.37	50.94	249.4	1540	262.3	12.23	10.61	9.189	8.793	8.307	7.852	7.741	7.577	6.864	7.147	7.148	7.669	6.888	7.141	6.796	6.495	5.983	5.440	5.157	4.805	4.823	4.525	3.913	3.936	3.446	3.190	3.287	2.702	2.777	2.577	2.238	2.229	1.949	1.947	1.654	1.711	1.859	2.341	2.071	1.513	1.373	1.443	1.386	1.482	1.376	1.535	1.803	1.720	1.573	1.430	1.466	1.433	1.631	2.377	3.699	11.41	61.47	162.8	82.81	4.247	0.584
590.0	49.26	47.55	48.80	39.68	30.03	25.65	26.74	27.57	38.99	86.19	71.57	42.17	38.57	78.37	753.3	918.3	40.58	9.248	7.997	7.648	7.031	6.466	6.362	6.373	5.939	5.815	5.688	5.936	5.703	5.750	5.474	5.540	5.115	4.679	4.337	4.170	3.962	3.565	3.381	3.200	2.873	2.660	2.536	2.260	2.249	2.142	1.919	1.840	1.618	1.537	1.387	1.453	1.399	1.672	1.969	1.775	1.391	1.227	1.218	1.200	1.244	1.196	1.405	1.711	1.557	1.318	1.318	1.268	1.302	1.381	1.628	3.277	14.65	55.35	110.6	73.44	12.32
595.0	41.36	45.98	51.15	37.10	27.10	24.45	23.59	26.07	31.73	55.78	89.35	44.33	36.83	37.26	200.1	1014	329.2	9.111	6.618	6.781	6.128	5.577	5.193	5.172	4.794	4.877	4.957	4.704	4.545	4.666	4.716	4.347	3.936	4.073	3.609	3.389	3.123	2.665	2.846	2.438	2.406	2.463	2.205	1.879	1.979	1.822	1.520	1.625	1.341	1.335	1.185	1.273	1.119	1.175	1.455	1.687	1.630	1.179	0.999	0.995	1.030	1.024	1.153	1.324	1.479	1.337	1.218	1.042	1.064	1.077	0.986	1.412	3.950	12.92	28.28	79.71	96.78
600.0	38.03	44.48	46.14	34.33	26.69	24.53	23.81	25.26	30.50	41.99	89.57	54.88	35.58	29.09	59.69	558.2	735.8	21.41	5.861	5.249	5.158	4.643	4.667	4.261	4.519	4.011	4.088	3.935	4.073	4.084	3.983	3.705	3.403	3.314	2.846	2.947	2.659	2.422	2.522	2.157	1.983	2.013	1.973	1.760	1.652	1.688	1.392	1.374	1.252	1.179	1.094	1.005	0.989	1.035	1.187	1.419	1.614	1.220	0.823	0.999	0.859	0.958	0.971	1.174	1.225	1.361	1.086	0.998	1.018	1.114	0.836	0.922	1.532	3.507	6.826	24.43	93.85
605.0	38.08	44.49	45.38	36.62	26.97	23.16	24.61	26.87	28.70	38.18	73.96	71.64	37.29	27.55	28.59	188.8	949.2	78.56	5.682	4.709	4.578	4.224	4.369	3.684	3.719	3.650	3.616	3.487	3.380	3.599	3.399	3.183	2.990	2.896	2.536	2.534	2.318	2.226	2.059	2.006	1.832	1.744	1.585	1.594	1.412	1.333	1.390	1.328	1.125	1.051	0.970	0.923	0.900	0.905	0.884	1.157	1.452	1.214	0.981	0.876	0.821	0.943	0.959	0.986	1.167	1.303	1.250	1.021	0.993	0.935	0.829	0.822	0.965	1.387	2.022	6.074	32.39
610.0	42.83	45.85	43.62	33.26	25.01	22.38	23.02	26.05	28.92	35.50	52.71	83.07	45.41	28.98	21.17	54.98	537.0	525.6	18.96	4.214	3.954	3.586	3.620	3.337	3.176	3.011	3.114	2.997	2.895	2.976	2.877	2.646	2.488	2.255	2.197	2.077	1.899	1.952	1.800	1.512	1.515	1.392	1.346	1.339	1.276	1.141	1.221	1.097	1.029	0.856	0.860	0.860	0.755	0.724	0.766	0.877	1.198	1.231	1.027	0.884	0.803	0.869	0.836	0.880	0.933	1.004	1.117	1.252	1.034	0.946	0.788	0.805	0.737	0.840	0.923	1.788	7.824
615.0	40.78	43.93	38.76	29.94	24.32	24.98	22.99	24.46	28.88	33.39	41.55	70.96	59.48	29.94	20.76	21.69	145.8	696.3	78.48	4.511	3.652	3.099	3.062	2.707	2.660	2.595	2.524	2.555	2.418	2.317	2.366	2.453	2.087	1.872	1.881	1.823	1.702	1.477	1.492	1.328	1.270	1.182	1.154	1.096	0.976	0.951	0.925	0.944	0.876	0.800	0.763	0.761	0.756	0.674	0.742	0.711	0.910	1.055	0.902	0.957	0.819	0.757	0.685	0.916	0.909	0.905	0.925	1.160	1.138	0.904	0.853	0.712	0.694	0.726	0.726	0.866	2.181
620.0	39.71	41.07	40.79	29.27	24.04	22.81	20.22	24.88	26.96	33.24	38.39	57.42	69.75	30.62	21.35	14.13	40.76	437.0	431.0	7.929	3.077	2.893	2.553	2.451	2.406	2.330	2.269	2.167	2.188	2.056	2.148	1.982	1.872	1.633	1.660	1.646	1.494	1.417	1.316	1.127	1.157	0.980	0.968	0.950	0.944	0.887	0.871	0.816	0.815	0.753	0.670	0.658	0.626	0.599	0.679	0.677	0.702	0.886	0.975	0.998	0.786	0.733	0.712	0.905	0.802	0.860	0.902	1.011	1.118	0.936	0.770	0.784	0.708	0.655	0.687	0.678	0.925
625.0	38.05	40.46	36.77	30.51	22.81	21.43	20.18	24.91	27.21	31.23	36.47	46.33	68.03	36.05	20.74	12.98	16.16	158.3	643.9	46.26	3.065	2.746	2.654	2.366	2.100	1.997	2.050	2.096	2.019	1.847	1.861	1.697	1.645	1.703	1.422	1.429	1.364	1.173	1.287	0.988	1.078	0.906	0.885	0.847	0.831	0.811	0.782	0.775	0.752	0.637	0.599	0.635	0.650	0.543	0.564	0.602	0.725	0.795	0.867	0.987	0.769	0.758	0.734	0.762	0.685	0.762	0.788	0.758	0.975	0.990	0.846	0.696	0.699	0.664	0.613	0.593	0.710
630.0	36.36	36.81	36.15	28.32	21.57	20.20	21.48	22.16	25.84	30.92	36.76	39.81	56.05	46.48	21.24	12.86	10.55	42.94	418.4	326.5	8.062	2.592	2.247	2.063	1.926	1.811	1.683	1.674	1.671	1.757	1.546	1.466	1.416	1.482	1.262	1.168	1.217	1.093	1.104	1.061	0.942	0.878	0.828	0.801	0.743	0.786	0.711	0.664	0.640	0.570	0.561	0.582	0.572	0.544	0.569	0.579	0.637	0.606	0.682	0.827	0.773	0.701	0.716	0.717	0.688	0.745	0.697	0.737	0.736	0.857	0.939	0.727	0.678	0.613	0.545	0.562	0.577
635.0	41.48	35.92	34.78	29.35	22.59	19.97	19.48	22.71	26.03	31.52	33.42	37.20	43.52	51.20	26.39	13.60	9.518	14.62	117.0	511.9	57.67	2.258	2.005	1.670	1.663	1.575	1.542	1.458	1.608	1.471	1.412	1.198	1.297	1.327	1.126	1.092	1.175	1.027	0.910	0.868	0.821	0.780	0.715	0.721	0.743	0.672	0.569	0.594	0.623	0.510	0.504	0.587	0.505	0.506	0.503	0.496	0.612	0.597	0.570	0.675	0.749	0.726	0.637	0.644	0.639	0.700	0.680	0.711	0.658	0.705	0.875	0.780	0.684	0.511	0.513	0.520	0.493
640.0	38.48	36.85	37.19	28.25	22.30	19.14	18.94	22.08	25.31	29.22	33.79	36.34	38.43	47.72	31.33	14.03	10.27	8.898	31.52	368.0	265.7	3.826	1.950	1.610	1.609	1.337	1.486	1.370	1.562	1.493	1.343	1.250	1.119	1.197	1.141	1.107	1.061	0.953	0.975	0.877	0.705	0.719	0.724	0.625	0.623	0.678	0.592	0.569	0.533	0.508	0.429	0.513	0.474	0.490	0.538	0.479	0.571	0.523	0.552	0.561	0.745	0.678	0.710	0.606	0.541	0.609	0.648	0.644	0.644	0.678	0.678	0.838	0.668	0.574	0.510	0.461	0.509
645.0	34.81	37.30	38.30	27.85	24.22	19.68	18.80	20.07	25.09	29.12	32.18	36.79	35.02	41.36	38.70	15.91	11.13	7.742	11.23	150.9	438.6	24.99	1.772	1.684	1.637	1.326	1.339	1.319	1.315	1.309	1.139	1.148	1.082	1.102	0.979	1.081	1.062	0.966	0.959	0.808	0.715	0.731	0.706	0.650	0.614	0.613	0.586	0.495	0.559	0.520	0.382	0.499	0.434	0.469	0.469	0.476	0.535	0.501	0.564	0.498	0.668	0.655	0.667	0.536	0.584	0.585	0.633	0.646	0.623	0.690	0.695	0.662	0.730	0.610	0.518	0.474	0.516
650.0	36.12	37.41	35.88	29.51	20.69	20.61	19.58	22.40	23.93	29.40	31.40	36.15	34.40	34.58	41.80	18.02	10.65	8.615	6.870	43.50	419.2	129.6	2.307	1.613	1.517	1.241	1.582	1.346	1.292	1.276	1.084	1.215	1.057	1.119	1.129	1.132	1.018	1.019	0.973	0.778	0.679	0.658	0.573	0.559	0.558	0.618	0.538	0.508	0.615	0.498	0.408	0.471	0.442	0.441	0.418	0.538	0.506	0.538	0.472	0.505	0.535	0.632	0.605	0.686	0.615	0.645	0.562	0.623	0.635	0.672	0.553	0.620	0.619	0.612	0.506	0.536	0.508
