Sample:	'1
File name:	G2025052816¬Ã¿‰—≠ª∑ÀÆ.FD3
Run date:	'13:06:59, 06/09/2025
Operator:	Administrator
Comment:	'

Instrument
Model:	F-2700 FL Spectrophotometer
Serial number:	23B8-004
ROM Version:	4J14000 07

Instrument parameters
Measurement type:	3-D scan
Data mode:	Fluorescence
EX  Start WL:	220.0 nm
EX  End WL:	600.0 nm
EX Sampling interval:	5.0 nm
EM  Start WL:	230.0 nm
EM  End WL:	650.0 nm
EM Sampling interval:	5.0 nm
Scan speed:	12000 nm/min
EX Slit:	5.0 nm
EM Slit:	5.0 nm
PMT Voltage:	700 V
Response:	Auto 
Corrected spectra:	Off
Contour interval:	50.000

Peak integration
Integration method:	Rectangular
Sensitivity:	1
Threshold:	1.000

Peaks
No.	ApexEX/EM(nm)	Height(Data)
1	240.0/390.0	619.8
2	245.0/395.0	623.7
3	245.0/535.0	169.3
4	250.0/550.0	136.5
5	255.0/560.0	122.2
6	260.0/570.0	100.3
7	265.0/585.0	95.19
8	270.0/300.0	787.9
9	270.0/595.0	80.71
10	275.0/305.0	882.3
11	275.0/340.0	418.1
12	275.0/610.0	69.15
13	280.0/310.0	751.3
14	280.0/625.0	58.35
15	285.0/315.0	687.5
16	285.0/635.0	45.35
17	290.0/325.0	604.7
18	295.0/330.0	480.5
19	300.0/335.0	453.3
20	305.0/345.0	407.0
21	310.0/350.0	355.8
22	315.0/355.0	356.1
23	320.0/365.0	349.2
24	325.0/370.0	336.0
25	330.0/375.0	332.5
26	335.0/380.0	323.8
27	340.0/390.0	292.6
28	345.0/395.0	270.8
29	350.0/400.0	262.2
30	365.0/420.0	207.2
31	415.0/485.0	37.14
32	425.0/495.0	26.89
33	430.0/505.0	23.28
34	435.0/510.0	18.72
35	445.0/525.0	14.15
36	460.0/545.0	8.043
37	545.0/300.0	6.002
38	575.0/315.0	5.461
39	580.0/320.0	5.497
40	585.0/325.0	5.074

Data points
	220.0	225.0	230.0	235.0	240.0	245.0	250.0	255.0	260.0	265.0	270.0	275.0	280.0	285.0	290.0	295.0	300.0	305.0	310.0	315.0	320.0	325.0	330.0	335.0	340.0	345.0	350.0	355.0	360.0	365.0	370.0	375.0	380.0	385.0	390.0	395.0	400.0	405.0	410.0	415.0	420.0	425.0	430.0	435.0	440.0	445.0	450.0	455.0	460.0	465.0	470.0	475.0	480.0	485.0	490.0	495.0	500.0	505.0	510.0	515.0	520.0	525.0	530.0	535.0	540.0	545.0	550.0	555.0	560.0	565.0	570.0	575.0	580.0	585.0	590.0	595.0	600.0
230.0	34.75	914.6	5305	3208	176.2	20.98	18.34	17.27	14.48	15.08	14.14	14.29	12.67	11.95	10.23	8.905	8.337	7.961	7.393	7.009	6.217	5.569	5.465	5.216	4.610	4.577	4.016	3.659	3.621	3.529	3.363	3.152	3.132	2.976	2.628	2.328	2.139	1.935	1.790	1.553	1.481	1.457	1.368	1.312	1.243	1.252	1.545	5.665	17.30	20.51	10.64	2.928	0.964	0.786	0.725	0.748	0.661	0.701	0.621	0.581	0.549	0.498	0.496	0.490	0.521	0.439	0.448	0.456	0.414	0.381	0.401	0.348	0.340	0.342	0.315	0.353	0.320
235.0	53.31	277.6	3655	9999.9	4324	325.2	30.30	20.12	18.72	16.32	16.27	16.58	14.37	13.18	10.81	8.932	8.522	8.426	7.734	7.300	6.454	6.554	5.575	5.207	4.622	4.695	4.178	3.849	3.813	3.654	3.432	3.099	3.151	2.862	2.510	2.375	2.172	2.231	1.807	1.684	1.585	1.477	1.328	1.277	1.478	1.349	1.259	2.197	6.603	17.73	37.92	54.87	21.03	8.194	1.035	0.799	0.751	0.655	0.663	0.695	0.630	0.584	0.552	0.453	0.537	0.455	0.442	0.524	0.411	0.399	0.415	0.353	0.363	0.330	0.405	0.302	0.308
240.0	84.21	131.4	1098	9377	9999.9	3766	228.8	31.17	24.59	22.06	18.87	18.26	16.39	15.07	12.23	10.14	9.278	8.812	8.164	7.730	6.547	6.321	6.211	5.496	4.848	5.125	4.307	4.088	3.786	3.554	3.683	3.303	2.934	2.826	2.867	2.724	2.390	2.248	1.959	1.798	1.713	1.627	1.446	1.481	1.490	1.334	1.130	1.438	2.481	5.486	18.69	59.53	96.44	83.82	20.02	6.059	0.980	0.799	0.740	0.670	0.640	0.694	0.621	0.572	0.546	0.523	0.555	0.506	0.431	0.431	0.467	0.407	0.395	0.316	0.383	0.298	0.386
245.0	103.3	140.0	330.4	3001	9999.9	9999.9	3003	139.1	37.87	29.34	23.69	23.49	19.02	16.91	13.91	11.55	10.11	9.476	8.222	8.087	7.042	6.500	6.450	6.093	5.478	5.159	4.789	4.480	4.073	3.846	3.773	3.528	3.378	3.000	2.895	2.810	2.594	2.087	1.968	1.867	1.842	1.740	1.677	1.546	1.528	1.469	1.335	1.480	1.550	2.107	5.138	17.93	58.35	122.9	147.4	28.30	16.99	3.166	1.044	0.956	0.751	0.791	0.737	0.607	0.552	0.608	0.513	0.594	0.452	0.528	0.526	0.423	0.414	0.378	0.334	0.350	0.453
250.0	104.6	127.1	229.1	794.9	3616	9999.9	9999.9	9999.9	189.3	52.67	38.55	31.37	24.66	20.68	16.97	13.35	11.98	11.23	9.511	8.708	7.974	6.844	6.716	6.363	6.028	5.420	4.928	4.975	4.447	4.090	3.881	3.654	3.328	3.105	2.851	2.592	2.614	2.432	2.187	2.006	1.900	1.758	1.666	1.566	1.477	1.435	1.367	1.451	1.605	1.573	2.126	5.044	14.29	36.13	77.22	115.5	179.4	130.3	97.13	12.99	3.723	1.090	0.868	0.878	0.750	0.782	0.697	0.702	0.650	0.587	0.550	0.492	0.507	0.476	0.510	0.458	0.510
255.0	115.9	96.73	164.2	410.7	952.9	2583	9999.9	9999.9	9999.9	242.3	68.78	48.48	34.29	26.39	21.73	17.20	14.96	13.13	11.46	10.10	8.677	7.884	6.969	6.662	6.579	6.243	5.625	5.609	4.990	4.474	4.153	3.794	3.861	3.436	3.076	2.818	2.801	2.610	2.475	2.032	2.140	1.778	1.791	1.817	1.847	1.583	1.500	1.424	1.445	1.485	1.874	2.748	4.390	9.105	18.35	27.74	57.72	134.4	293.8	236.5	163.7	19.98	2.918	1.284	1.047	0.998	0.896	0.915	0.718	0.754	0.598	0.615	0.602	0.707	0.491	0.551	0.534
260.0	128.3	110.6	114.4	260.3	476.1	707.5	3326	9999.9	9999.9	9999.9	193.1	71.04	47.04	35.73	27.28	20.68	16.89	14.45	12.82	11.34	9.723	8.320	7.879	7.271	7.006	6.646	6.226	5.917	5.202	5.041	4.484	4.226	3.859	3.485	2.988	2.861	2.875	2.597	2.463	2.429	2.317	2.020	1.874	1.797	1.841	1.817	1.704	1.575	1.326	1.401	1.523	2.290	2.963	3.533	5.285	7.394	14.22	34.81	111.6	256.1	431.5	234.1	29.52	14.79	1.832	1.332	1.106	1.186	0.970	0.901	0.820	0.708	0.750	0.615	0.612	0.639	0.525
265.0	135.5	119.8	106.7	155.3	381.0	401.2	871.0	5122	9999.9	9999.9	9669	150.2	68.56	49.41	33.82	25.82	20.04	16.81	14.49	12.67	11.16	9.497	8.653	8.004	7.491	6.900	6.673	6.137	5.953	5.353	4.996	5.062	4.066	4.208	3.252	2.999	2.901	2.836	2.622	2.678	2.353	2.290	2.132	2.010	1.933	1.716	1.698	1.727	1.576	1.538	1.288	1.690	2.450	2.794	3.238	3.023	4.390	9.072	26.62	71.09	203.9	393.5	531.8	221.8	25.31	8.307	1.676	1.403	1.328	1.187	0.888	0.970	0.857	0.822	0.809	0.779	0.784
270.0	178.1	140.9	119.6	114.2	202.3	390.0	480.3	1304	5954	9999.9	9999.9	9999.9	582.0	83.21	51.15	36.57	27.77	22.01	17.90	15.69	13.10	11.54	10.25	9.222	8.532	8.046	7.010	6.638	6.645	6.114	5.878	5.376	4.846	4.400	3.874	3.503	3.172	3.059	2.888	2.703	2.577	2.442	2.442	2.285	2.144	2.091	1.945	1.889	1.697	1.583	1.344	1.520	1.728	1.988	2.662	3.060	3.380	3.812	7.355	17.29	47.91	107.6	232.5	364.0	500.9	448.5	132.8	17.07	7.742	1.860	1.359	1.321	1.167	1.144	1.012	0.985	0.938
275.0	209.6	169.4	134.7	117.0	126.4	206.4	477.4	601.6	1484	2957	9999.9	9999.9	9999.9	158.8	89.89	56.23	40.78	31.09	23.09	20.25	16.52	13.73	12.42	11.15	10.21	8.788	8.502	7.883	7.204	7.212	6.223	5.808	5.620	5.149	4.575	4.087	3.529	3.469	3.093	2.759	2.650	2.680	2.810	2.673	2.467	2.282	2.093	2.034	1.946	1.783	1.571	1.590	1.793	1.697	1.953	2.129	3.137	4.018	4.602	5.658	12.32	25.54	53.68	83.77	136.3	278.6	602.4	805.4	236.9	25.73	7.182	2.189	1.811	1.531	1.393	1.223	1.174
280.0	235.7	189.7	162.6	125.2	113.5	135.0	293.5	603.8	571.7	850.7	3915	9999.9	9999.9	8301	135.3	81.65	55.56	40.40	29.39	23.75	19.41	15.98	14.14	12.61	11.01	10.00	9.128	8.498	7.754	7.476	6.679	6.574	5.825	5.449	5.075	4.557	3.940	3.643	3.511	2.897	2.645	2.787	2.977	2.770	2.746	2.502	2.287	2.317	2.107	1.840	1.667	1.721	1.892	1.677	1.755	1.718	2.096	2.995	4.465	4.851	5.190	7.385	13.67	20.47	32.54	67.24	190.5	491.9	797.9	825.7	203.2	20.75	3.628	2.246	1.873	1.771	1.514
285.0	266.3	208.8	179.6	136.5	114.6	119.2	173.9	442.2	609.4	404.1	1105	6370	9999.9	9999.9	5784	117.4	75.37	52.39	38.07	28.69	23.15	18.30	16.89	14.08	12.38	11.03	9.981	9.600	8.264	7.680	7.513	6.952	6.151	5.452	5.413	5.223	4.274	4.094	3.519	3.168	3.208	3.023	2.886	2.775	3.013	2.864	2.469	2.485	2.237	2.079	1.865	1.925	2.159	1.767	1.787	1.662	1.811	2.183	2.795	4.101	5.189	4.677	5.159	6.484	9.099	17.06	44.95	121.3	292.0	678.6	871.8	263.6	31.54	14.92	2.878	2.059	1.821
290.0	298.1	239.4	217.7	157.2	132.5	127.3	142.7	234.6	505.1	593.5	524.4	1688	6987	9999.9	9999.9	9999.9	342.4	79.69	54.60	39.76	29.84	23.67	19.47	16.11	14.76	12.47	11.24	10.67	9.299	8.751	8.444	7.717	6.777	6.272	5.595	5.393	4.612	4.369	3.819	3.468	3.554	3.283	3.141	3.007	3.017	3.041	2.693	2.684	2.366	2.253	2.024	2.203	2.084	2.008	2.043	1.878	1.995	2.104	2.171	2.750	3.473	4.442	5.180	4.757	4.614	5.880	12.22	29.28	67.79	165.7	292.7	402.5	617.8	534.5	444.8	112.3	11.55
295.0	301.7	267.8	232.5	185.8	154.4	149.5	150.4	179.6	269.9	542.0	731.1	661.5	1798	3013	9999.9	9999.9	9999.9	401.7	82.94	57.82	39.91	31.39	24.61	20.44	17.47	15.35	13.43	12.57	10.79	9.945	9.472	8.567	7.523	6.786	5.946	5.575	5.337	4.692	4.326	4.123	3.778	3.659	3.166	3.082	3.044	3.091	2.835	2.712	2.697	2.308	2.200	2.220	2.218	2.092	2.370	2.131	2.170	2.185	2.209	2.358	2.382	2.835	3.303	4.814	5.918	4.989	5.119	8.838	17.33	39.08	67.47	92.12	148.0	227.3	591.3	956.0	782.8
300.0	319.5	272.9	259.4	200.0	178.0	170.7	178.0	187.4	230.4	368.8	787.9	663.4	665.1	911.0	3986	9999.9	9999.9	5015	241.9	77.41	54.19	38.09	30.49	23.79	20.13	17.50	14.95	13.32	11.79	10.72	10.45	8.780	8.221	7.202	6.465	6.143	5.787	4.989	4.738	4.304	4.003	3.828	3.145	3.297	3.139	3.318	3.069	3.047	2.873	2.601	2.287	2.334	2.348	2.228	2.236	2.134	2.462	2.380	2.456	2.266	2.381	2.484	2.874	3.339	4.405	6.002	5.794	4.957	6.543	11.30	17.46	22.69	35.49	54.30	157.1	422.8	872.5
305.0	341.7	298.7	274.7	222.7	204.7	191.1	205.4	217.4	248.2	332.5	576.3	882.3	531.6	446.2	1127	6657	9999.9	9999.9	3706	129.3	72.27	49.56	37.15	28.96	23.96	20.33	17.23	14.58	13.45	12.23	10.44	10.19	8.676	7.751	6.781	6.121	5.560	5.759	4.930	4.648	4.326	3.677	3.694	3.599	3.403	3.341	3.082	3.032	3.018	2.635	2.398	2.558	2.392	2.369	2.489	2.432	2.528	2.636	2.664	2.748	2.596	2.780	2.864	2.937	3.546	4.552	5.893	6.052	5.073	5.230	6.093	7.514	10.08	14.64	37.62	99.74	252.9
310.0	333.9	311.1	287.9	245.5	220.4	217.0	230.0	243.3	271.0	323.2	427.0	659.7	751.3	452.2	463.5	1708	8205	9999.9	9999.9	9999.9	249.2	74.44	51.92	38.28	29.54	24.22	20.19	17.20	15.35	13.92	11.93	10.96	9.454	8.468	7.645	6.723	6.308	5.853	5.306	5.065	4.508	4.277	3.944	3.757	3.498	3.459	3.119	3.253	3.014	2.837	2.556	2.836	2.735	2.717	2.736	2.435	2.697	2.760	2.814	2.788	2.881	2.913	2.917	3.139	3.183	3.689	4.162	4.827	5.266	5.711	4.835	4.443	4.634	5.582	10.65	24.78	58.93
315.0	324.1	314.4	295.7	262.6	237.7	237.8	242.2	262.6	287.3	332.2	395.3	469.0	595.0	687.5	381.3	556.0	2005	3060	9999.9	9999.9	9999.9	270.3	76.89	54.73	39.05	30.37	24.61	20.35	17.77	16.46	13.97	11.71	11.04	9.299	8.431	7.572	7.100	6.641	5.933	5.491	4.777	4.604	4.261	4.297	3.599	3.776	3.363	3.211	3.030	2.892	2.868	2.879	3.016	3.114	3.049	2.785	2.827	2.983	2.974	3.205	2.922	3.102	3.073	3.210	3.320	3.345	3.407	3.482	3.748	4.753	5.271	5.461	4.475	3.837	4.625	7.631	15.32
320.0	323.0	322.4	312.2	276.1	254.6	252.0	258.9	271.1	296.4	336.5	389.7	431.7	455.7	636.4	534.2	319.0	609.3	849.9	4593	9999.9	9999.9	3718	163.3	67.53	50.79	36.23	29.08	23.85	19.83	17.87	14.85	13.14	11.79	10.38	8.629	8.432	7.278	6.741	6.374	5.762	5.016	4.649	4.870	4.464	4.104	4.109	3.655	3.460	3.205	2.897	2.874	3.004	3.116	3.213	3.175	2.949	3.129	3.084	3.234	3.175	3.062	3.126	3.256	3.368	3.270	3.195	3.194	3.351	3.504	3.704	3.861	5.087	5.497	4.374	3.746	3.873	5.588
325.0	329.1	330.4	340.4	307.7	272.4	250.5	263.3	281.0	304.5	341.4	387.5	418.4	413.7	467.3	604.7	368.0	296.5	335.0	1196	8465	9999.9	9999.9	502.9	108.4	63.89	46.42	33.99	28.55	23.10	20.13	16.86	14.40	12.77	10.87	9.170	8.289	7.622	7.250	6.521	5.778	5.224	4.735	4.757	4.572	4.296	4.295	3.747	3.825	3.321	3.033	2.889	3.098	3.313	3.223	2.983	3.119	3.194	3.245	3.127	3.019	3.042	2.935	3.272	3.507	3.165	3.194	3.376	3.494	3.253	3.599	3.527	3.822	4.512	5.074	4.921	3.920	3.594
330.0	334.7	336.5	378.2	353.2	308.3	280.0	276.8	288.1	309.9	344.2	388.9	411.4	407.2	391.3	437.6	480.5	324.9	217.7	393.5	2056	9657	9999.9	9999.9	9999.9	201.2	68.01	47.72	35.93	28.25	23.48	19.83	16.90	14.26	12.03	10.10	8.994	8.348	7.299	6.689	6.001	5.512	5.256	5.017	4.695	4.332	4.127	3.822	3.918	3.542	3.228	3.044	3.215	3.397	3.338	3.177	3.223	3.175	3.467	2.942	3.156	3.349	3.217	3.459	3.385	3.397	3.278	3.447	3.415	3.270	3.427	3.336	3.474	3.547	3.861	4.531	4.574	4.291
335.0	333.4	347.7	406.8	387.8	354.4	318.9	297.4	304.6	321.9	348.9	388.9	414.6	405.1	381.6	355.1	366.9	453.3	269.9	214.1	576.7	2274	3276	9999.9	9999.9	9999.9	224.9	68.76	49.45	37.61	29.35	24.48	20.18	16.39	13.41	11.43	9.907	9.020	8.003	7.105	6.256	6.299	5.682	5.239	4.838	4.733	4.464	4.140	4.096	3.809	3.523	3.243	3.609	3.555	3.395	3.406	3.322	3.348	3.430	3.024	3.183	3.279	3.229	3.437	3.346	3.534	3.311	3.213	3.495	3.462	3.563	3.735	3.432	3.389	3.586	3.426	3.283	4.167
340.0	331.4	365.1	421.8	423.8	381.8	347.0	315.0	307.5	330.6	352.4	390.0	418.1	407.5	382.7	342.3	307.1	387.3	389.1	208.7	247.4	622.5	862.1	5377	9999.9	9999.9	3169	139.0	60.44	46.97	36.22	28.34	22.61	18.17	15.22	12.82	10.65	9.235	8.712	7.523	6.543	6.348	5.786	5.159	5.132	4.651	4.588	4.353	4.098	3.927	3.771	3.425	3.660	3.760	3.653	3.425	3.649	3.527	3.531	3.222	3.292	3.344	3.533	3.492	3.449	3.626	3.451	3.544	3.401	3.497	3.740	3.485	3.405	3.374	3.620	3.070	3.155	3.311
345.0	313.1	358.4	433.6	444.1	409.4	376.8	341.1	322.9	337.0	364.8	389.2	409.0	404.8	383.5	340.6	295.4	302.9	407.0	297.6	188.6	255.3	308.7	1347	9999.9	9999.9	9999.9	432.5	91.85	57.13	43.31	32.27	25.72	20.10	16.36	13.52	10.92	9.531	8.683	7.808	6.851	6.369	6.202	5.103	5.106	4.903	4.651	4.358	4.340	4.222	3.608	3.301	4.008	3.633	3.702	3.446	3.441	3.335	3.516	3.384	3.403	3.316	3.558	3.452	3.443	3.585	3.488	3.592	3.555	3.645	3.489	3.561	3.525	3.304	3.505	3.171	3.179	3.303
350.0	312.9	358.3	442.9	479.9	457.5	409.3	363.4	353.6	352.3	371.2	392.7	407.5	409.8	388.1	348.4	305.9	281.1	307.7	355.8	272.1	192.5	186.4	413.3	2388	9876	9999.9	9999.9	9999.9	181.9	59.51	41.99	31.21	23.77	18.51	15.09	12.54	10.40	9.426	8.202	7.537	6.371	6.080	5.372	5.063	4.986	4.572	4.261	4.463	4.109	3.621	3.430	3.946	3.929	3.693	3.712	3.486	3.731	3.446	3.368	3.446	3.403	3.416	3.396	3.409	3.422	3.286	3.291	3.424	3.498	3.414	3.300	3.284	3.225	3.317	3.062	3.199	3.187
355.0	320.9	351.7	443.4	499.0	501.1	458.1	413.8	389.7	378.1	388.1	400.4	419.5	417.5	395.8	358.5	321.6	294.6	277.2	290.7	356.1	262.5	177.4	209.2	641.2	2309	3331	9999.9	9999.9	9999.9	210.8	60.76	42.65	29.69	22.82	17.82	13.98	11.39	10.54	8.880	7.790	6.840	6.246	5.594	5.006	5.019	4.620	4.231	4.356	4.303	3.578	3.598	4.041	3.950	3.832	3.867	3.654	3.814	3.548	3.730	3.543	3.373	3.576	3.452	3.425	3.736	3.318	3.139	3.431	3.303	3.462	3.164	3.230	3.253	3.444	3.086	3.301	3.210
360.0	298.6	357.4	446.1	517.4	535.3	481.0	436.1	425.3	406.4	413.8	422.5	430.3	423.7	402.3	374.2	341.0	309.7	286.1	271.3	320.0	345.7	217.9	178.0	255.9	621.0	857.3	5145	9999.9	9999.9	3012	131.7	52.84	37.11	27.51	20.42	15.96	12.70	11.35	9.996	8.228	7.411	6.846	6.181	5.343	4.981	4.790	4.584	4.566	4.349	3.626	3.726	4.157	4.004	4.009	3.916	3.629	3.907	3.498	3.701	3.709	3.639	3.642	3.609	3.535	3.424	3.330	3.240	3.426	3.477	3.374	3.428	3.299	3.244	3.446	3.358	3.236	3.382
365.0	294.0	345.5	456.5	516.9	554.1	514.7	467.8	445.5	429.3	434.2	440.9	443.9	430.2	411.3	391.1	351.6	331.2	307.9	282.9	284.2	349.2	302.1	192.3	182.9	247.5	293.9	1275	9750	9999.9	9999.9	2364	83.69	47.64	34.31	24.54	18.45	14.46	12.32	10.55	9.070	7.791	7.248	6.088	5.661	5.299	5.034	4.600	4.547	4.710	3.909	3.758	4.255	4.191	4.150	4.064	3.809	3.919	3.835	3.827	3.881	3.564	3.427	3.817	3.866	3.427	3.460	3.365	3.683	3.486	3.362	3.582	3.380	3.547	3.604	3.362	3.450	3.437
370.0	303.2	353.2	460.7	545.5	573.2	549.8	506.9	477.5	459.6	463.5	467.2	461.0	446.7	425.4	400.4	371.7	351.2	329.9	309.9	294.4	304.2	336.0	281.9	195.5	177.9	171.3	380.5	2314	9439	9999.9	9999.9	9999.9	161.2	45.55	32.84	23.37	17.57	14.27	11.95	10.20	8.571	7.710	6.527	5.932	5.324	4.986	4.731	4.703	4.467	3.999	3.803	4.320	4.354	4.233	4.113	3.943	4.225	3.794	3.856	4.012	3.876	3.651	3.807	3.773	3.663	3.471	3.579	3.374	3.364	3.377	3.561	3.372	3.516	3.535	3.416	3.355	3.408
375.0	294.6	337.0	465.7	557.6	602.9	586.9	542.6	515.4	491.7	486.2	483.4	477.4	466.6	441.0	410.9	376.9	367.7	350.7	337.2	317.2	299.6	299.2	332.5	272.1	182.7	154.5	185.1	604.5	2193	3377	9999.9	9999.9	9999.9	185.9	44.49	31.90	22.49	17.85	14.20	11.49	10.02	8.668	7.447	6.475	5.556	5.153	4.717	4.707	4.649	4.081	4.075	4.601	4.287	4.652	4.447	3.827	4.299	4.130	3.887	4.094	3.882	3.805	4.010	3.778	3.531	3.650	3.787	3.705	3.381	3.341	3.528	3.407	3.600	3.385	3.257	3.453	3.642
380.0	287.4	348.7	469.4	574.0	609.3	606.4	557.4	531.9	512.9	499.8	498.9	488.6	471.4	445.7	411.0	388.4	375.9	363.2	349.5	327.3	312.3	289.7	301.6	323.8	227.7	161.8	144.9	227.1	574.3	851.4	5087	9999.9	9999.9	2566	113.3	40.20	28.14	20.83	15.89	12.45	11.24	9.242	7.871	6.865	6.076	5.783	5.064	4.888	4.594	4.133	3.967	4.646	4.439	4.528	4.577	4.164	4.226	4.292	3.972	4.020	4.151	4.012	3.955	3.712	3.868	3.571	3.873	3.667	3.445	3.623	3.559	3.254	3.737	3.559	3.300	3.339	3.596
385.0	264.7	347.9	443.9	585.5	618.2	613.4	568.6	542.6	518.8	503.1	503.9	494.1	475.2	444.5	420.3	390.6	382.0	371.6	358.7	341.5	322.5	296.7	282.8	315.2	288.7	183.8	144.3	145.6	214.2	273.6	1243	8449	9999.9	9999.9	2022	63.83	34.93	25.32	18.65	14.10	11.86	9.633	8.361	6.982	6.446	5.870	5.134	5.108	4.669	4.414	4.029	4.503	4.702	4.735	4.445	4.303	4.417	4.266	3.952	4.086	4.148	3.853	3.879	3.636	3.781	3.675	3.771	3.599	3.346	3.486	3.519	3.375	3.360	3.596	3.379	3.574	3.716
390.0	261.0	337.6	460.2	570.2	619.8	613.8	580.0	554.2	525.9	514.4	510.1	492.7	468.3	445.3	416.7	392.5	382.1	373.1	365.5	349.4	332.4	311.8	287.5	278.7	292.6	251.7	170.9	140.0	138.9	142.2	351.5	1987	7679	9999.9	9999.9	8817	132.6	35.19	24.38	18.29	14.15	11.05	9.376	7.629	6.839	6.418	5.656	5.395	4.998	4.422	4.121	4.508	4.695	4.685	4.655	4.309	4.332	4.360	4.253	3.861	4.115	3.933	3.813	3.708	3.819	3.800	3.569	3.353	3.700	3.414	3.374	3.368	3.412	3.615	3.506	3.310	3.517
395.0	243.3	327.7	441.7	560.6	617.1	623.7	595.2	555.2	535.6	507.2	502.8	489.7	465.4	441.6	407.7	390.6	375.4	372.4	367.7	355.4	338.8	318.7	296.6	274.0	260.3	270.8	235.3	157.8	130.4	115.5	152.8	510.0	1775	2887	9999.9	9999.9	9999.9	168.4	34.90	24.44	18.17	13.38	11.11	9.212	7.640	7.067	5.735	5.729	5.321	4.746	4.280	4.608	4.867	4.884	4.629	4.375	4.468	4.366	4.460	4.107	4.052	3.824	3.842	3.770	3.660	3.708	3.524	3.305	3.184	3.434	3.591	3.279	3.438	3.470	3.576	3.265	3.596
400.0	219.3	301.3	412.4	551.1	610.2	618.4	584.5	560.5	538.0	519.2	504.3	486.9	454.8	430.2	405.7	379.8	369.1	367.3	363.6	351.9	337.7	322.1	299.1	279.0	252.9	248.2	262.2	196.2	136.8	115.3	111.0	179.7	455.6	708.8	3781	9999.9	9999.9	2284	111.0	29.83	21.60	16.22	12.28	10.25	8.456	7.769	6.286	5.928	5.303	4.775	4.283	4.693	4.838	4.747	4.505	4.382	4.498	4.447	4.536	4.251	4.088	3.881	3.615	3.770	3.688	3.768	3.815	3.487	3.575	3.312	3.701	3.313	3.303	3.239	3.395	3.209	3.378
405.0	227.7	306.7	423.0	550.8	594.9	601.4	583.5	563.1	531.2	519.3	508.8	487.2	447.7	419.7	396.5	370.2	365.7	358.7	354.7	345.7	336.2	320.5	303.5	281.5	254.6	234.1	244.0	235.2	160.3	123.1	104.5	106.6	159.2	212.3	907.8	5315	9999.9	9999.9	1963	39.41	26.39	19.23	14.40	11.43	9.082	8.117	6.652	6.320	5.353	4.635	4.273	4.755	4.628	4.757	4.422	4.381	4.354	4.431	4.259	4.143	4.022	4.003	3.701	3.701	3.781	3.601	3.624	3.516	3.485	3.266	3.328	3.424	3.211	3.185	3.394	3.211	3.198
410.0	206.3	289.2	389.9	517.3	583.1	586.7	570.3	552.7	529.1	518.6	497.0	481.9	439.3	407.8	381.7	358.3	349.1	346.4	343.7	336.5	324.7	314.6	298.7	280.3	256.6	233.2	219.5	227.2	209.3	147.8	110.4	94.63	93.91	98.60	248.7	1243	5309	9999.9	9999.9	8443	130.9	27.27	18.32	13.94	10.64	9.124	7.282	6.422	5.617	4.910	4.444	4.967	4.849	4.457	4.343	4.557	4.421	4.249	4.350	4.037	4.216	3.987	3.802	3.729	3.737	3.524	3.467	3.465	3.332	3.280	3.248	3.293	3.209	3.075	3.207	3.116	3.174
415.0	188.2	259.2	373.7	488.5	550.2	563.2	549.8	544.3	524.7	509.8	483.6	467.6	423.3	392.8	363.4	340.6	331.3	330.9	325.4	323.9	312.4	304.9	292.2	276.3	257.4	233.1	212.1	199.9	208.8	194.7	131.5	98.34	83.78	72.12	98.18	316.3	1222	2524	9999.9	9999.9	9999.9	177.9	26.13	17.56	13.93	11.10	8.031	7.120	5.995	4.941	4.675	5.171	4.896	4.762	4.591	4.354	4.634	4.338	4.159	4.240	4.343	3.972	4.163	3.655	3.621	3.575	3.388	3.254	3.389	3.057	3.115	3.119	2.906	3.020	3.118	3.034	2.975
420.0	195.7	245.6	362.5	469.0	537.1	550.0	544.6	541.8	512.9	506.5	488.2	457.3	418.6	377.8	351.3	325.5	315.1	313.6	312.5	311.2	300.7	293.2	285.8	270.6	252.7	231.7	212.7	194.7	190.4	207.2	161.8	107.8	86.07	69.65	66.37	108.1	307.8	602.7	2898	9999.9	9999.9	9999.9	38.02	23.31	16.82	13.02	9.018	7.599	6.604	5.305	4.774	5.129	5.160	4.869	4.561	4.607	4.396	4.321	4.387	4.041	4.034	3.930	4.107	3.562	3.681	3.534	3.271	3.142	3.214	3.144	3.044	3.090	2.918	3.012	3.091	2.916	3.002
425.0	184.8	247.3	348.8	464.0	515.4	547.8	542.7	532.6	523.1	503.9	481.3	445.7	408.2	369.2	342.2	313.4	306.0	300.4	297.5	296.4	290.8	285.0	276.4	264.9	246.8	232.6	212.5	195.3	182.1	188.1	185.6	126.5	89.59	71.22	59.24	60.99	102.5	166.6	686.0	3602	9999.9	9999.9	1952	34.57	19.96	14.57	10.46	8.894	6.888	5.763	4.976	5.139	5.071	4.982	4.608	4.387	4.638	4.443	4.176	4.010	3.856	4.096	3.953	3.921	3.746	3.600	3.332	3.150	3.079	3.066	3.014	2.913	2.989	2.947	3.080	3.117	2.752
430.0	210.0	218.8	336.0	437.1	495.5	518.6	521.5	526.5	511.3	499.1	478.3	438.7	395.6	355.2	323.4	298.5	284.6	284.3	282.1	279.0	277.1	271.0	264.4	255.9	240.2	228.0	211.1	196.2	183.1	173.3	174.3	156.6	108.4	77.42	60.91	51.63	55.33	66.30	181.0	837.8	3607	9999.9	9999.9	8705	130.9	22.20	14.03	10.92	8.339	6.284	5.559	5.634	5.374	5.101	4.770	4.624	4.537	4.478	4.329	4.205	4.066	4.211	3.810	3.794	3.593	3.522	3.307	3.155	3.079	3.088	2.820	2.957	2.719	2.873	2.849	2.924	2.866
435.0	272.2	222.4	322.9	412.1	460.1	513.5	513.4	521.8	509.3	492.2	468.0	431.9	389.9	341.4	303.9	284.9	270.6	265.0	268.5	262.8	257.6	256.2	250.0	245.0	233.8	223.0	208.7	196.5	183.9	170.1	159.6	155.0	139.5	92.39	65.81	52.15	44.84	42.96	65.77	211.4	829.3	2330	9999.9	9999.9	9999.9	190.7	21.63	14.65	10.77	7.872	6.424	6.376	5.573	5.630	5.322	4.656	5.095	4.731	4.523	4.202	4.253	4.220	3.974	3.730	3.744	3.434	3.237	3.034	3.095	2.902	2.694	2.840	2.733	2.678	2.774	2.788	2.747
440.0	332.4	242.1	302.5	406.0	451.0	488.6	503.1	500.7	503.7	491.2	466.9	424.6	369.0	330.6	298.1	270.9	259.2	253.9	252.0	246.7	248.2	246.7	240.3	233.9	226.8	219.7	208.7	195.7	184.4	171.4	156.3	142.4	143.0	113.3	73.57	54.39	44.63	37.18	39.30	69.66	207.1	546.0	2479	9999.9	9999.9	9999.9	32.22	20.13	12.88	9.218	7.423	6.815	5.999	5.706	5.345	4.503	5.014	4.908	4.351	4.315	4.201	4.058	3.827	3.828	3.590	3.503	3.147	2.936	3.114	3.056	2.800	2.658	2.673	2.679	2.781	2.656	2.573
445.0	347.6	337.6	290.8	384.7	449.2	474.6	490.1	488.4	487.7	477.3	457.2	418.7	365.1	321.9	291.2	265.3	250.0	241.5	237.7	235.3	237.0	233.3	230.1	223.2	219.0	210.8	202.9	191.8	183.4	171.4	152.6	134.8	130.4	124.9	86.45	57.78	46.07	37.18	33.42	37.61	66.90	143.9	580.6	2832	9999.9	9999.9	1753	30.72	16.60	11.21	8.475	7.633	6.379	6.152	5.533	4.992	5.188	4.806	4.330	4.216	4.343	4.074	3.950	3.666	3.677	3.564	3.197	3.235	2.971	2.905	2.724	2.511	2.547	2.576	2.525	2.521	2.396
450.0	274.8	736.6	495.6	363.8	420.5	446.1	462.0	469.2	462.6	454.1	436.1	394.8	349.6	303.7	270.1	245.9	231.5	222.8	220.5	215.5	216.4	214.2	213.4	209.2	204.5	199.0	190.5	182.8	179.4	168.4	152.6	132.4	117.1	111.3	99.73	69.74	48.72	38.20	32.32	29.64	34.01	51.37	150.0	656.8	2923	9999.9	9999.9	7929	115.2	17.53	10.81	9.490	7.806	6.776	6.012	5.249	5.369	4.938	4.656	4.356	4.488	4.148	4.032	3.747	3.828	3.530	3.128	2.982	2.985	2.828	2.696	2.577	2.626	2.571	2.319	2.354	2.481
455.0	171.6	1036	1240	419.7	387.6	420.0	421.9	443.3	439.2	427.2	404.6	371.6	324.8	285.4	246.6	225.0	207.2	200.7	199.1	193.9	194.5	193.6	191.5	191.1	186.1	183.9	178.3	173.2	169.3	159.4	146.6	130.1	110.6	95.86	90.80	83.65	57.14	39.32	32.10	27.82	25.93	28.35	50.42	163.8	671.0	2283	7312	9999.9	9999.9	161.6	16.93	12.09	9.037	7.635	6.406	5.436	5.273	4.855	4.621	4.448	4.569	3.921	3.731	3.645	3.353	3.437	3.051	2.794	2.877	2.875	2.708	2.348	2.472	2.402	2.430	2.260	2.480
460.0	137.6	791.7	3282	815.1	369.3	389.8	406.5	411.5	418.9	406.2	381.4	351.6	308.0	265.3	232.8	206.7	192.9	186.5	182.8	180.4	178.4	178.7	177.5	174.4	172.4	172.1	165.0	163.3	158.7	152.8	141.0	125.3	106.4	90.85	80.16	80.38	66.59	43.11	33.15	27.17	24.04	22.50	26.91	52.38	165.9	529.0	1738	9978	9999.9	9788	121.5	16.75	11.14	9.050	7.321	6.195	5.694	5.384	4.849	4.769	4.378	3.895	3.692	3.568	3.261	3.435	3.060	3.092	2.673	2.774	2.497	2.557	2.476	2.327	2.243	2.153	2.035
465.0	140.8	396.4	4310	3108	415.0	362.0	375.7	391.6	384.8	384.9	357.4	328.3	289.1	248.5	216.7	191.5	178.2	170.7	166.9	167.9	164.3	165.0	163.5	160.8	159.3	159.9	154.2	152.2	150.2	144.9	134.9	118.7	101.4	86.97	73.95	68.98	69.69	50.14	33.80	26.80	23.91	21.05	20.84	25.85	51.97	135.0	408.5	2507	9999.9	9999.9	7481	28.20	15.16	10.73	8.975	6.860	6.217	5.933	5.290	4.682	4.423	4.256	3.654	3.453	3.439	3.494	3.117	2.965	3.007	2.827	2.359	2.440	2.410	2.239	2.363	2.105	2.208
470.0	130.8	202.0	2601	7478	1986	336.9	348.7	351.5	348.4	349.7	334.0	298.4	263.3	226.6	196.9	175.5	162.2	153.2	151.5	148.2	146.7	145.9	146.7	145.4	144.4	142.6	140.3	137.8	135.2	130.8	122.0	109.5	94.16	81.02	69.00	58.81	57.71	55.33	39.65	27.62	22.99	20.30	18.37	18.73	24.56	43.51	105.3	576.6	2634	8473	9999.9	7257	119.4	16.31	10.28	8.367	7.171	6.270	5.463	4.889	4.464	4.158	3.801	3.682	3.263	3.110	3.117	2.872	2.824	2.565	2.472	2.390	2.241	2.110	2.110	2.034	2.028
475.0	130.0	156.6	790.2	7616	8164	525.1	310.4	324.3	322.2	312.4	302.6	272.4	235.6	202.0	176.3	155.6	141.1	137.0	132.9	130.0	128.7	129.4	128.7	128.2	127.7	127.6	123.5	122.6	122.2	117.6	109.5	100.5	86.17	74.08	63.78	52.11	46.22	46.35	44.43	31.00	22.29	18.62	16.75	15.62	16.15	20.25	34.16	139.8	599.5	1917	4898	9999.9	9999.9	181.4	14.39	9.590	7.949	6.449	5.586	4.753	4.209	3.945	3.630	3.739	3.459	2.870	2.847	2.667	2.409	2.258	2.231	2.122	1.866	1.913	1.939	1.957	1.873
480.0	123.8	137.5	314.1	4354	9999.9	2542	293.7	301.2	299.3	292.8	279.1	256.4	220.9	186.6	161.8	145.2	129.1	124.9	120.8	115.9	117.8	117.1	115.3	115.7	116.1	116.3	115.5	111.3	111.1	108.9	105.0	94.36	79.68	70.21	59.52	49.70	42.31	38.43	42.19	35.94	23.63	18.21	16.49	14.60	14.14	14.54	17.52	41.22	144.3	439.1	1147	6420	9999.9	9841	29.68	13.03	9.203	7.480	6.166	5.079	4.342	4.147	3.604	3.510	3.367	2.896	2.959	2.495	2.443	2.392	2.158	2.109	1.890	1.954	1.921	1.863	1.791
485.0	119.5	140.3	193.1	1581	9999.9	7682	382.8	287.2	282.4	275.3	268.4	237.2	202.7	175.0	149.6	133.8	119.6	114.8	112.9	106.7	106.3	107.7	106.3	107.4	106.1	105.9	105.2	103.7	103.2	102.1	97.61	87.30	76.15	66.59	57.21	47.55	40.29	34.53	35.36	37.14	27.29	18.80	15.33	13.51	13.06	12.60	12.81	18.60	41.46	107.8	268.1	1568	9983	9999.9	1718	26.19	11.94	8.703	6.557	5.583	4.477	4.144	3.860	3.608	3.184	2.971	2.938	2.442	2.494	2.368	1.944	1.905	1.968	1.852	1.751	1.804	1.736
490.0	99.06	141.7	171.6	512.3	6208	9999.9	2298	273.1	257.2	253.9	240.2	220.2	189.4	162.0	136.0	121.1	110.8	102.6	100.9	97.68	96.26	96.11	96.87	96.34	95.68	94.99	94.55	93.68	94.31	92.41	88.05	79.41	70.23	61.26	53.38	45.01	37.53	32.30	29.24	31.17	30.91	22.68	15.60	13.60	12.31	11.34	10.92	12.15	17.11	31.88	68.36	360.5	2446	7534	9999.9	7502	128.5	14.65	8.584	6.685	5.407	4.579	4.192	3.814	3.275	3.194	2.753	2.511	2.444	2.119	2.157	1.999	1.979	1.802	1.799	1.706	1.619
495.0	90.41	140.3	157.7	244.0	1711	9999.9	9999.9	388.8	234.9	234.1	217.4	197.5	171.5	148.9	123.0	108.4	100.9	92.10	90.42	85.83	85.92	84.76	86.36	84.91	84.62	83.92	83.34	83.96	85.07	81.94	79.51	72.33	64.44	55.78	48.75	41.88	35.21	30.79	25.95	24.37	26.22	26.89	19.14	13.55	12.16	11.07	10.44	9.979	11.00	13.56	22.25	88.22	554.0	1697	4627	9999.9	9999.9	204.0	13.60	8.223	6.206	5.255	4.368	3.978	3.160	3.013	2.564	2.487	2.439	2.060	2.088	1.972	1.865	1.847	1.672	1.537	1.544
500.0	94.04	109.6	170.8	184.6	527.7	6729	9999.9	2237	225.4	214.6	199.6	181.5	156.2	133.4	113.5	98.22	91.13	84.13	81.12	78.18	76.63	75.63	76.34	76.34	74.98	75.78	75.29	74.88	76.90	75.15	72.68	65.01	58.87	51.20	45.08	38.66	33.15	28.21	24.22	22.16	21.89	24.81	22.25	14.41	11.65	10.60	10.05	9.016	8.828	9.112	11.03	26.59	130.8	387.5	1079	5972	9999.9	9999.9	31.59	11.01	7.057	5.708	4.667	4.028	3.107	3.050	2.803	2.585	2.420	2.235	1.918	2.046	1.696	1.709	1.663	1.491	1.574
505.0	86.52	97.53	159.0	173.7	250.2	2468	9999.9	8573	276.8	199.0	189.3	169.9	147.5	125.2	106.8	90.46	82.50	75.53	72.18	72.23	69.84	68.48	70.16	68.85	68.65	69.28	69.24	68.76	69.54	67.77	65.24	60.37	53.50	47.26	41.18	35.25	30.36	26.86	22.94	20.48	18.56	20.21	23.28	16.82	11.82	10.30	9.246	8.602	8.098	8.143	7.794	11.80	35.32	94.00	251.1	1447	8679	9999.9	1861	27.19	9.267	6.392	5.119	4.289	3.497	3.068	2.672	2.538	2.208	2.176	1.919	1.967	1.776	1.838	1.544	1.474	1.404
510.0	78.61	86.38	126.1	185.8	181.9	703.9	8087	9999.9	1723	189.2	172.0	155.5	130.6	110.2	94.44	82.32	73.61	67.39	65.06	63.77	62.50	61.04	60.18	60.12	59.81	60.59	59.43	60.37	60.53	60.22	57.68	52.83	47.12	41.82	36.26	31.72	27.71	24.69	21.40	18.57	16.49	15.82	18.44	18.72	14.05	9.825	8.710	8.047	7.549	7.142	6.971	7.471	13.17	26.92	63.05	331.6	2103	7021	9999.9	7490	127.3	11.61	6.279	4.972	3.995	3.104	2.764	2.555	2.199	2.199	2.000	1.649	1.664	1.626	1.495	1.482	1.357
515.0	88.08	75.55	100.3	172.1	169.1	276.1	2217	9999.9	9999.9	280.4	158.1	135.9	115.8	97.52	83.06	73.21	65.00	59.81	55.98	56.39	54.08	51.67	51.97	52.41	51.60	51.53	52.75	51.89	52.03	52.17	49.65	45.53	41.11	35.72	32.34	28.14	24.28	21.86	19.06	16.63	14.63	13.56	13.92	16.75	16.16	11.28	8.591	7.431	6.896	6.381	5.962	6.242	7.370	10.96	19.32	79.73	475.3	1578	3760	9999.9	9999.9	198.5	9.757	6.065	4.695	3.527	2.843	2.619	2.292	2.112	1.799	1.719	1.756	1.554	1.379	1.426	1.300
520.0	80.57	71.81	85.60	143.9	173.9	170.0	625.9	8695	9999.9	1712	150.4	128.0	108.1	89.90	75.18	65.64	58.86	54.17	50.68	49.76	49.18	46.39	46.16	47.20	46.08	45.36	46.76	45.89	46.88	46.30	43.22	41.08	36.55	32.55	29.95	25.94	22.41	19.31	17.25	15.56	13.78	12.88	11.82	12.76	15.36	13.74	8.783	7.024	6.539	5.829	5.606	5.846	5.876	6.908	8.833	22.88	112.0	359.3	869.4	4959	9999.9	7085	30.81	7.985	5.360	4.021	3.231	2.573	2.396	2.217	1.899	1.607	1.558	1.606	1.375	1.283	1.270
525.0	69.35	69.03	78.17	112.4	176.7	151.1	243.7	3270	9999.9	8530	189.3	120.6	100.4	85.20	70.17	61.69	53.06	48.75	46.35	45.16	43.28	43.07	41.11	42.43	41.58	41.13	41.70	41.87	42.43	41.66	39.03	36.45	33.83	29.76	26.67	23.52	20.53	18.44	15.90	14.78	12.74	11.90	10.58	10.63	12.78	14.15	9.734	7.032	5.844	5.528	5.271	4.996	5.296	5.552	6.030	9.672	30.05	85.95	201.8	1183	6500	9999.9	1855	25.19	6.479	4.491	3.640	2.717	2.433	2.181	1.701	1.743	1.527	1.632	1.353	1.263	1.138
530.0	66.81	65.67	72.41	88.35	152.5	157.1	144.5	869.7	9999.9	9999.9	2433	118.2	93.23	76.55	62.88	54.32	47.74	44.29	40.60	39.43	37.40	37.69	36.12	36.45	36.86	35.57	35.76	35.74	36.04	35.61	34.27	32.18	29.22	25.93	23.35	20.25	18.05	15.71	14.72	12.88	11.69	10.45	9.809	9.031	9.442	11.96	11.24	8.299	5.785	5.124	4.778	4.631	4.661	5.026	5.013	5.896	10.74	23.70	50.49	270.2	1568	5523	9999.9	5515	124.4	8.204	4.369	3.382	2.623	2.174	2.021	1.882	1.589	1.372	1.380	1.276	1.240
535.0	65.24	57.74	65.53	73.08	111.8	169.3	120.8	280.5	2780	9999.9	9999.9	191.4	86.05	68.57	56.43	48.38	42.18	39.51	35.99	34.56	32.51	33.46	31.03	31.31	31.71	31.15	30.82	31.50	30.30	31.26	29.82	28.82	24.70	22.55	19.87	17.33	15.99	13.89	12.49	11.54	10.46	9.314	8.491	7.868	7.775	8.122	9.935	9.886	6.347	4.800	4.247	4.208	4.014	4.020	4.478	4.692	5.951	8.906	15.13	64.80	354.0	1239	3262	9999.9	6966	32.91	6.879	4.052	3.077	2.555	2.088	1.903	1.702	1.460	1.307	1.142	1.218
540.0	57.98	51.58	57.89	69.40	85.11	149.8	123.7	142.3	725.2	9999.9	9999.9	1199	87.45	66.35	53.58	44.35	38.35	35.60	32.28	29.56	29.26	28.77	28.59	28.11	28.24	27.80	27.48	27.70	27.08	26.65	26.12	25.14	22.78	19.43	17.67	15.78	14.29	12.34	11.32	10.46	9.447	8.681	8.024	7.180	7.091	6.554	8.202	9.386	7.357	4.749	3.819	3.837	3.719	3.602	4.112	4.423	4.590	5.255	6.745	18.29	83.11	281.0	746.5	4023	9999.9	1969	29.07	5.405	3.664	2.771	2.129	2.059	1.577	1.604	1.248	1.090	1.255
545.0	62.20	51.46	55.05	59.70	71.49	122.3	133.5	103.3	242.2	3686	9999.9	6875	102.0	64.84	50.52	41.40	35.29	33.33	28.64	27.69	26.53	25.99	25.42	25.13	24.76	24.48	24.93	23.68	24.13	24.14	23.76	21.55	19.98	17.64	16.22	14.45	13.31	11.34	10.21	9.630	8.699	8.088	7.157	6.495	6.305	5.692	6.250	7.810	8.043	5.098	3.763	3.592	3.578	3.484	3.743	4.051	4.165	4.160	4.535	7.219	21.98	66.47	171.7	945.2	5023	9438	1749	23.38	4.471	3.250	2.353	2.169	1.552	1.503	1.427	1.072	1.112
550.0	61.88	50.36	49.46	52.63	60.28	81.19	136.5	97.64	116.9	948.1	9999.9	9999.9	724.6	64.69	48.27	38.00	31.75	28.34	25.50	24.20	23.14	22.01	22.16	21.39	20.87	21.07	21.06	20.36	20.25	20.46	19.55	18.50	17.01	15.59	13.40	12.10	10.97	9.857	8.946	8.411	7.776	6.942	6.295	5.818	5.583	5.243	5.100	5.441	6.770	6.082	4.206	3.457	3.214	3.028	3.037	3.301	3.575	3.990	3.478	4.179	7.673	17.81	41.69	214.8	1188	4147	6806	3773	122.6	6.196	3.064	2.237	1.779	1.667	1.407	1.182	1.083
555.0	55.67	49.86	45.70	49.21	52.39	60.89	103.5	113.4	82.75	273.7	2716	9999.9	8731	112.4	46.99	33.90	29.98	24.85	22.59	21.22	20.00	18.84	18.81	17.63	17.80	17.43	17.05	17.04	16.81	16.73	16.58	15.10	13.96	12.78	11.21	10.54	9.434	8.357	7.812	6.813	6.682	5.802	5.269	4.851	4.756	4.683	4.418	4.065	4.805	5.693	4.964	3.595	2.915	2.729	2.800	2.843	3.058	3.364	3.088	3.166	3.970	6.329	11.94	50.63	268.0	928.8	2119	6288	4524	33.50	4.597	2.632	1.979	1.589	1.322	1.291	1.144
560.0	59.17	43.76	43.45	40.40	42.47	49.98	73.01	122.2	74.94	119.8	687.9	9999.9	9999.9	722.2	46.65	33.68	28.26	22.60	20.14	19.06	17.22	16.80	16.59	15.83	15.34	14.96	15.12	14.92	15.01	14.72	14.02	13.16	11.96	11.19	9.987	8.837	8.503	7.330	6.658	6.381	5.994	4.938	4.625	4.457	4.333	3.953	3.868	3.720	3.699	4.394	4.894	3.968	2.596	2.282	2.569	2.522	2.685	2.688	3.099	2.915	2.827	3.460	4.694	13.94	62.35	210.1	483.0	2378	6538	1944	28.35	3.641	2.395	1.987	1.352	1.191	1.087
565.0	55.92	43.38	44.30	37.00	37.43	43.37	54.04	118.6	80.28	73.32	210.4	3643	9999.9	4516	56.03	33.42	25.91	21.06	19.00	17.07	16.15	15.86	14.18	13.91	13.65	13.16	13.04	13.51	13.03	12.10	11.87	11.69	10.47	9.624	8.766	7.793	7.204	6.680	6.044	5.759	5.166	4.379	4.345	4.147	4.127	3.553	3.386	3.350	2.993	3.213	4.293	4.373	2.879	2.189	2.390	2.364	2.507	2.460	2.696	2.900	2.723	2.529	2.973	5.257	16.18	49.51	111.2	553.1	2904	5653	1578	20.69	2.808	2.182	1.560	1.209	1.028
570.0	49.85	44.75	38.92	35.81	35.07	38.20	42.30	79.94	100.3	61.19	95.04	921.1	9999.9	9999.9	491.3	35.35	25.34	20.43	17.79	15.52	14.41	14.11	12.74	12.08	11.67	11.43	10.82	11.33	11.14	10.75	10.38	9.704	9.051	8.290	7.376	6.915	6.230	5.618	5.287	4.815	4.515	4.184	3.811	3.599	3.445	3.270	2.918	2.797	2.653	2.715	3.054	3.729	3.203	2.519	2.169	2.065	2.196	2.082	2.133	2.345	2.637	2.205	2.248	2.799	5.434	12.94	27.03	125.9	676.7	2297	3805	1954	117.4	4.549	1.960	1.447	1.218
575.0	54.02	45.00	36.54	34.08	32.20	32.13	33.95	47.90	99.66	67.47	62.45	249.5	2725	9999.9	6169	60.59	25.79	19.21	16.10	14.28	12.63	12.28	11.63	10.68	10.17	10.08	9.400	9.264	9.811	9.369	8.924	8.092	7.717	6.962	6.128	5.665	5.249	5.112	4.482	4.185	3.686	3.535	3.390	3.043	2.989	3.055	2.709	2.461	2.291	2.411	2.448	2.607	3.238	2.671	2.126	1.822	1.861	1.779	1.827	1.837	2.148	2.238	2.001	2.124	2.707	4.375	7.699	29.79	152.8	514.3	1094	3237	2048	33.71	3.557	1.857	1.525
580.0	56.22	35.74	38.14	30.57	28.93	30.14	33.14	37.52	79.38	82.48	52.23	97.34	674.6	9397	9999.9	384.7	27.58	19.76	15.58	13.66	12.23	11.32	10.28	9.975	8.877	9.056	8.200	8.431	8.315	8.452	7.969	7.418	7.179	6.308	5.509	5.323	4.764	4.541	4.256	3.951	3.362	3.244	2.947	2.920	2.736	2.868	2.448	2.335	2.163	2.077	1.977	2.064	2.590	2.862	2.324	1.817	1.806	1.591	1.654	1.574	1.742	1.815	2.237	1.780	1.983	2.384	3.181	8.227	35.65	116.5	248.6	1145	3413	1759	28.29	2.559	1.683
585.0	55.97	37.44	37.10	29.62	24.49	26.48	29.12	31.76	53.19	95.19	51.69	61.28	191.6	3359	9999.9	2595	32.77	20.34	16.62	13.63	11.94	10.94	9.934	9.381	8.507	8.393	7.720	7.956	7.740	7.940	6.976	6.748	6.218	5.788	5.217	4.640	4.169	4.029	3.996	3.532	3.148	3.008	2.719	2.633	2.570	2.506	2.270	2.126	2.147	1.928	1.682	1.938	2.254	2.689	2.362	1.802	1.664	1.472	1.496	1.382	1.505	1.524	1.975	1.929	1.661	1.831	1.883	3.233	9.349	27.58	57.36	264.0	1420	3277	1307	21.34	2.016
590.0	48.65	35.68	33.05	26.67	26.33	25.63	26.72	28.73	37.37	81.33	65.76	47.14	76.90	838.3	9119	9999.9	309.3	22.39	16.58	12.95	11.10	10.17	9.119	8.609	8.314	7.783	6.979	7.115	6.690	6.790	6.412	6.151	5.408	5.180	4.466	4.160	3.945	3.531	3.332	2.994	2.973	2.778	2.620	2.399	2.294	2.310	2.074	1.938	1.825	1.716	1.577	1.635	1.712	2.014	2.316	2.115	1.636	1.492	1.482	1.391	1.532	1.427	1.584	1.660	1.599	1.491	1.500	1.766	3.156	7.325	14.20	60.37	327.2	1204	2228	1179	120.0
595.0	45.08	32.23	30.10	24.33	22.49	21.06	23.70	24.88	29.04	52.37	80.71	42.40	44.89	216.2	2423	9999.9	3869	35.70	17.30	13.87	10.89	9.264	8.628	7.972	7.630	7.091	6.383	6.799	6.135	5.942	5.601	5.455	4.752	4.702	4.009	3.496	3.517	3.088	3.037	2.643	2.543	2.617	2.291	2.134	2.090	2.139	1.926	1.640	1.705	1.641	1.383	1.593	1.437	1.535	1.832	1.882	1.643	1.521	1.335	1.329	1.231	1.307	1.314	1.373	1.661	1.541	1.400	1.326	1.583	2.595	4.106	14.56	74.13	269.8	594.8	1701	1794
600.0	39.28	26.78	27.93	26.05	21.95	22.42	23.85	22.80	25.47	37.90	78.48	47.48	36.90	74.46	587.7	8018	9999.9	87.33	18.09	13.30	11.05	9.968	8.469	7.581	6.984	6.297	6.337	5.870	5.859	5.542	5.254	4.684	4.220	4.064	3.572	3.339	3.282	2.864	2.754	2.602	2.428	2.200	2.109	2.192	2.013	1.944	1.847	1.678	1.689	1.522	1.478	1.406	1.269	1.289	1.424	1.765	1.974	1.541	1.295	1.306	1.061	1.121	1.149	1.177	1.356	1.592	1.300	1.184	1.325	1.458	1.774	4.170	17.54	61.28	134.8	549.7	1963
605.0	40.46	27.95	29.55	25.31	22.62	21.66	21.43	21.35	24.41	31.71	64.73	58.54	34.01	40.30	155.6	2877	9999.9	652.2	21.15	14.11	11.39	9.606	8.168	7.410	6.533	6.411	5.392	5.790	5.429	5.201	4.761	4.653	4.008	3.578	3.378	3.236	3.163	2.664	2.674	2.393	2.250	2.201	2.060	1.880	1.865	1.790	1.667	1.587	1.540	1.386	1.333	1.281	1.169	1.185	1.277	1.524	1.760	1.611	1.208	1.195	1.118	1.021	1.093	1.064	1.061	1.254	1.188	1.076	0.984	1.124	1.229	1.823	4.755	14.64	31.28	125.7	707.5
610.0	39.12	27.36	25.00	24.28	21.21	21.11	21.05	21.38	24.82	29.96	44.46	69.15	37.99	30.99	55.10	712.3	7742	7676	203.0	15.76	11.41	9.740	8.067	7.135	6.157	6.174	5.585	5.154	4.833	4.647	4.508	4.120	3.638	3.412	3.007	2.945	2.625	2.552	2.541	2.164	2.182	2.084	1.957	1.715	1.677	1.742	1.567	1.567	1.433	1.320	1.193	1.123	1.146	1.161	1.211	1.179	1.457	1.655	1.300	1.171	1.056	0.994	1.020	0.933	0.959	0.952	1.129	1.104	1.006	0.993	0.903	1.087	1.863	4.032	7.820	29.01	161.1
615.0	37.71	28.37	25.69	22.71	21.19	19.00	19.76	21.42	24.90	27.45	35.01	60.52	49.46	26.45	31.00	178.2	2077	9999.9	2563	21.98	12.23	10.12	7.732	6.927	6.149	5.912	5.192	5.139	4.797	4.328	4.280	4.032	3.699	3.144	3.086	2.849	2.713	2.400	2.337	2.151	1.975	1.792	1.713	1.652	1.647	1.575	1.502	1.399	1.321	1.224	1.107	0.972	1.063	1.026	1.072	1.013	1.103	1.606	1.326	1.228	0.868	0.867	0.918	0.921	0.873	0.834	0.871	0.956	1.051	0.838	0.831	0.844	0.967	1.625	2.495	7.237	36.62
620.0	38.94	30.04	25.07	20.01	21.39	17.89	21.82	21.76	23.81	24.43	29.70	45.25	56.44	26.88	23.53	57.05	503.0	7023	7581	62.37	13.79	10.29	8.365	6.835	5.845	5.585	4.835	4.709	4.494	4.283	4.012	4.073	3.441	3.112	2.894	2.895	2.355	2.141	2.145	2.123	1.986	1.737	1.604	1.612	1.603	1.587	1.480	1.331	1.311	1.080	1.076	0.998	1.021	1.017	0.980	0.949	0.928	1.231	1.171	1.290	0.992	0.895	0.880	0.852	0.830	0.782	0.773	0.985	1.092	0.901	0.857	0.815	0.835	1.036	1.208	2.378	8.823
625.0	39.43	27.91	21.26	20.88	21.05	17.45	21.36	20.14	22.21	22.47	27.43	36.02	58.35	30.74	21.64	28.40	130.2	2554	9999.9	497.8	15.95	11.31	8.793	7.216	6.143	5.594	4.606	4.511	4.337	4.332	3.936	4.026	3.127	2.946	2.743	2.502	2.192	2.087	2.033	1.856	1.793	1.675	1.635	1.540	1.600	1.489	1.360	1.325	1.194	1.072	1.014	1.061	1.024	0.956	0.979	0.919	0.946	0.961	1.086	1.177	1.007	0.870	0.846	0.875	0.811	0.747	0.775	0.767	0.847	0.976	0.880	0.743	0.727	0.776	0.814	1.171	2.506
630.0	35.18	25.80	21.30	20.72	17.52	16.24	20.17	18.64	21.19	21.48	26.38	29.91	46.21	39.11	20.13	19.45	43.65	629.9	6947	5736	49.42	12.32	8.892	7.536	6.339	5.473	4.753	4.458	4.384	4.208	3.958	3.463	3.145	2.905	2.749	2.472	2.233	2.104	1.894	1.848	1.762	1.648	1.509	1.527	1.510	1.371	1.399	1.298	1.170	1.070	1.034	1.034	1.005	0.937	0.869	0.880	0.910	0.904	0.907	1.070	1.088	0.867	0.823	0.784	0.781	0.704	0.830	0.734	0.713	0.742	0.821	0.778	0.694	0.653	0.647	0.743	1.066
635.0	34.43	23.96	19.45	19.66	16.24	16.07	18.18	18.90	19.60	21.19	23.23	26.42	32.14	45.35	23.74	17.02	23.17	154.5	1885	9250	1633	16.36	9.691	8.086	6.409	5.454	4.777	4.595	4.145	3.836	3.817	3.401	3.417	2.820	2.688	2.498	2.338	1.876	1.759	1.759	1.815	1.667	1.508	1.400	1.303	1.330	1.403	1.277	1.168	1.028	0.957	1.009	0.824	0.858	0.806	0.775	0.778	0.817	0.872	0.873	1.046	0.955	0.845	0.814	0.724	0.678	0.713	0.692	0.588	0.649	0.776	0.755	0.676	0.660	0.543	0.605	0.715
640.0	31.54	23.61	21.72	18.11	14.43	15.15	16.29	17.71	19.43	19.56	23.83	24.72	26.81	39.42	27.20	16.03	17.25	47.13	454.6	6437	4358	47.90	10.92	8.386	6.830	5.445	4.831	4.120	4.277	3.905	3.482	3.181	3.076	2.735	2.610	2.506	2.276	2.013	1.811	1.807	1.670	1.609	1.362	1.403	1.333	1.323	1.216	1.322	1.048	1.042	0.895	0.924	0.850	0.845	0.914	0.830	0.894	0.816	0.760	0.756	0.919	0.945	0.829	0.742	0.691	0.664	0.682	0.691	0.624	0.523	0.556	0.662	0.684	0.625	0.580	0.495	0.525
645.0	29.76	21.24	18.81	18.92	16.57	16.34	16.23	16.78	17.47	20.03	22.96	22.87	23.41	30.79	33.23	16.55	14.77	21.59	115.4	2471	8339	390.0	12.38	8.772	7.074	5.769	4.902	4.164	3.914	3.986	3.879	3.360	3.108	2.696	2.662	2.525	2.144	2.070	1.720	1.695	1.680	1.527	1.444	1.257	1.298	1.205	1.152	1.306	1.171	1.030	0.862	0.970	0.874	0.872	0.838	0.948	0.868	0.854	0.858	0.805	0.801	0.908	0.805	0.678	0.760	0.610	0.672	0.647	0.654	0.482	0.520	0.550	0.668	0.591	0.557	0.431	0.479
650.0	33.91	20.28	19.96	16.40	15.20	15.03	15.32	15.66	17.98	19.33	21.65	21.96	21.54	24.11	34.42	17.74	13.78	15.66	37.41	650.7	7688	2712	19.81	9.217	7.339	5.602	4.640	4.356	4.050	3.726	3.615	3.152	2.962	2.818	2.577	2.351	2.114	2.047	1.823	1.749	1.498	1.390	1.402	1.340	1.300	1.227	1.196	1.268	1.143	1.069	0.961	0.876	0.809	0.868	0.918	0.835	0.722	0.882	0.838	0.684	0.795	0.827	0.858	0.745	0.731	0.733	0.575	0.614	0.503	0.509	0.537	0.511	0.515	0.704	0.540	0.497	0.521
