Sample:	'1
File name:	G2025072312Œ‘¿«πµ»Î50m¥Ûπµ.FD3
Run date:	'11:29:08, 07/24/2025
Operator:	Administrator
Comment:	'

Instrument
Model:	F-2700 FL Spectrophotometer
Serial number:	23B8-004
ROM Version:	4J14000 07

Instrument parameters
Measurement type:	3-D scan
Data mode:	Fluorescence
EX  Start WL:	220.0 nm
EX  End WL:	600.0 nm
EX Sampling interval:	5.0 nm
EM  Start WL:	230.0 nm
EM  End WL:	650.0 nm
EM Sampling interval:	5.0 nm
Scan speed:	12000 nm/min
EX Slit:	5.0 nm
EM Slit:	5.0 nm
PMT Voltage:	700 V
Response:	Auto 
Corrected spectra:	Off
Contour interval:	50.000

Peak integration
Integration method:	Rectangular
Sensitivity:	1
Threshold:	1.000

Peaks
No.	ApexEX/EM(nm)	Height(Data)
1	225.0/605.0	76.74
2	230.0/340.0	1628
3	235.0/510.0	275.6
4	240.0/525.0	249.4
5	245.0/535.0	217.0
6	250.0/550.0	173.1
7	255.0/285.0	662.5
8	255.0/560.0	147.1
9	260.0/290.0	703.9
10	260.0/575.0	130.1
11	265.0/585.0	120.1
12	270.0/300.0	1329
13	270.0/600.0	124.5
14	275.0/305.0	1381
15	275.0/610.0	103.9
16	280.0/315.0	1233
17	280.0/625.0	84.67
18	285.0/320.0	1136
19	285.0/640.0	60.42
20	305.0/345.0	635.4
21	310.0/350.0	532.5
22	315.0/355.0	511.2
23	320.0/365.0	486.6
24	325.0/370.0	469.0
25	330.0/375.0	489.7
26	335.0/380.0	495.9
27	425.0/500.0	47.57
28	440.0/520.0	30.23
29	460.0/340.0	5.287
30	480.0/385.0	4.816
31	485.0/380.0	4.987
32	530.0/290.0	4.545
33	535.0/295.0	5.723
34	545.0/300.0	6.502
35	550.0/305.0	7.143
36	560.0/310.0	6.680
37	570.0/315.0	6.492
38	575.0/320.0	5.777
39	585.0/325.0	5.571

Data points
	220.0	225.0	230.0	235.0	240.0	245.0	250.0	255.0	260.0	265.0	270.0	275.0	280.0	285.0	290.0	295.0	300.0	305.0	310.0	315.0	320.0	325.0	330.0	335.0	340.0	345.0	350.0	355.0	360.0	365.0	370.0	375.0	380.0	385.0	390.0	395.0	400.0	405.0	410.0	415.0	420.0	425.0	430.0	435.0	440.0	445.0	450.0	455.0	460.0	465.0	470.0	475.0	480.0	485.0	490.0	495.0	500.0	505.0	510.0	515.0	520.0	525.0	530.0	535.0	540.0	545.0	550.0	555.0	560.0	565.0	570.0	575.0	580.0	585.0	590.0	595.0	600.0
230.0	211.5	4927	9512	3570	130.7	18.77	14.55	11.75	10.40	9.439	9.221	8.728	7.111	6.329	5.277	4.851	3.917	3.786	3.611	3.220	2.700	2.666	2.569	2.208	2.140	1.868	1.762	1.640	1.639	1.672	1.512	1.353	1.299	1.227	1.146	1.070	0.923	0.931	0.859	0.787	0.859	0.927	0.959	0.825	0.738	0.784	6.164	24.11	36.81	25.81	10.56	2.029	0.646	0.564	0.524	0.555	0.505	0.496	0.454	0.467	0.441	0.428	0.437	0.467	0.447	0.431	0.417	0.415	0.406	0.420	0.371	0.363	0.374	0.435	0.377	0.380	0.381
235.0	187.3	1362	6596	9999.9	3923	201.0	19.47	15.07	12.56	11.23	9.664	9.599	7.336	7.079	5.720	5.282	4.081	4.068	3.488	3.494	2.966	2.421	2.514	2.448	2.034	2.065	1.729	1.941	1.524	1.523	1.441	1.423	1.370	1.144	1.202	1.091	1.055	0.893	1.031	0.848	0.714	0.858	0.976	0.978	0.902	0.912	1.956	6.599	16.43	29.79	43.52	27.15	17.15	3.826	0.621	0.523	0.610	0.543	0.598	0.527	0.482	0.432	0.462	0.489	0.437	0.457	0.407	0.517	0.438	0.544	0.377	0.364	0.400	0.438	0.428	0.428	0.379
240.0	225.9	426.8	2117	9999.9	9999.9	2948	99.36	20.45	17.21	12.80	11.56	10.49	8.483	8.061	6.056	5.110	4.350	4.520	3.446	3.578	3.462	2.404	2.675	2.670	2.099	2.095	1.854	1.870	1.553	1.540	1.509	1.414	1.348	1.201	1.128	1.205	0.922	0.955	0.902	0.864	0.743	0.887	0.898	0.939	1.166	1.162	1.149	2.053	4.197	9.831	27.72	58.49	69.45	27.15	13.63	2.050	0.773	0.531	0.651	0.553	0.496	0.472	0.513	0.484	0.462	0.512	0.487	0.572	0.495	0.505	0.449	0.382	0.441	0.392	0.463	0.455	0.360
245.0	192.4	310.7	570.6	3898	9999.9	9999.9	479.9	40.34	20.66	16.53	12.94	11.86	9.142	8.288	6.529	6.028	4.605	4.411	4.041	3.575	3.183	3.020	2.789	2.685	2.318	2.088	2.029	1.806	1.726	1.683	1.692	1.380	1.418	1.362	1.329	1.158	0.961	0.999	0.822	0.993	0.901	0.911	0.776	0.744	0.952	1.063	1.287	1.246	1.465	2.664	7.069	22.44	56.87	87.67	82.49	24.52	9.401	1.101	0.654	0.620	0.555	0.530	0.542	0.501	0.449	0.529	0.446	0.533	0.439	0.547	0.426	0.387	0.468	0.422	0.395	0.436	0.457
250.0	118.0	221.8	363.7	999.9	4264	9999.9	9999.9	5090	134.6	24.83	18.61	15.03	11.45	10.21	7.648	6.949	5.562	5.306	4.239	3.803	3.485	3.084	2.827	2.757	2.556	2.265	2.026	2.125	2.147	1.905	1.825	1.520	1.454	1.316	1.229	1.253	1.083	1.132	0.977	0.991	0.993	0.858	0.786	0.760	0.799	0.818	1.061	1.284	1.625	1.558	2.259	5.643	14.35	31.47	59.27	84.10	106.8	81.97	16.92	8.113	1.122	0.653	0.674	0.606	0.533	0.545	0.551	0.499	0.485	0.502	0.476	0.479	0.449	0.421	0.447	0.489	0.448
255.0	101.0	105.7	253.6	520.6	1070	2829	9999.9	9999.9	2566	151.0	29.01	21.29	14.95	12.66	9.769	8.005	6.233	5.846	5.060	4.348	3.999	3.633	3.250	2.917	2.708	2.673	2.181	2.116	2.469	1.861	1.980	1.645	1.469	1.389	1.362	1.189	1.083	1.082	1.125	1.174	1.143	0.905	0.925	0.807	0.869	0.870	0.829	0.932	1.092	1.583	1.966	2.511	4.003	7.636	13.91	21.12	47.45	110.9	172.0	149.7	25.93	9.453	0.957	0.678	0.777	0.607	0.669	0.561	0.561	0.456	0.583	0.511	0.480	0.483	0.441	0.473	0.465
260.0	101.2	72.76	115.8	380.5	513.2	720.3	3830	9999.9	9999.9	2043	91.99	30.20	20.83	15.03	11.60	8.240	7.580	6.243	5.354	4.810	4.059	3.190	3.131	3.016	2.768	2.727	2.395	2.449	2.199	2.088	1.940	1.795	1.486	1.388	1.522	1.307	1.118	1.100	1.106	1.126	1.053	1.077	0.903	0.849	0.877	0.960	0.816	0.842	0.804	1.048	1.487	2.392	2.766	2.751	3.814	5.374	11.55	31.62	89.86	181.6	210.4	140.6	21.22	3.989	0.824	0.719	0.766	0.684	0.623	0.503	0.589	0.576	0.550	0.555	0.492	0.516	0.549
265.0	111.9	74.26	70.95	190.1	472.8	372.5	947.9	5924	9999.9	9999.9	1460	51.77	26.60	19.29	13.93	10.87	8.007	7.005	6.220	5.104	4.367	4.061	3.539	3.228	2.960	3.098	2.521	2.588	2.404	2.183	2.200	1.992	1.659	1.519	1.445	1.252	1.282	1.089	1.281	1.213	0.973	1.093	1.015	0.922	0.908	0.925	0.865	0.898	0.798	0.770	0.890	1.571	2.484	2.838	2.299	1.985	3.276	7.873	21.66	58.36	143.4	246.6	220.0	31.64	14.89	1.649	0.886	0.855	0.700	0.715	0.717	0.626	0.647	0.626	0.525	0.582	0.596
270.0	127.1	88.70	66.38	88.62	248.9	472.9	449.7	1451	6489	9999.9	9999.9	5376	94.55	29.34	19.51	14.19	10.20	8.660	7.072	6.299	4.936	4.352	3.989	3.619	3.333	3.063	2.792	2.693	2.560	2.289	2.314	2.161	1.855	1.620	1.530	1.390	1.306	1.284	1.254	1.212	1.053	1.153	1.076	1.118	1.060	0.985	0.919	0.930	0.819	0.732	0.789	0.964	1.263	1.858	2.568	2.624	2.568	2.885	5.665	13.96	34.47	76.71	137.6	190.7	225.3	137.3	85.52	10.62	1.853	0.827	0.838	0.813	0.671	0.653	0.664	0.645	0.663
275.0	189.8	125.5	90.63	73.59	108.1	267.2	593.9	571.7	1548	3481	9999.9	9999.9	1561	101.6	30.15	20.00	14.73	11.26	9.329	7.730	6.226	5.476	4.243	4.011	3.811	3.296	3.368	3.027	2.674	2.741	2.450	2.358	2.076	1.911	1.817	1.653	1.460	1.455	1.384	1.214	1.209	1.125	1.251	1.329	1.105	1.113	1.047	1.037	0.908	0.810	0.867	0.871	0.903	1.072	1.280	1.839	2.978	3.838	3.204	4.135	8.541	18.00	31.65	45.30	80.93	179.0	326.7	237.8	31.25	14.39	1.507	1.161	0.799	0.887	0.816	0.702	0.746
280.0	238.3	185.4	127.2	94.38	89.36	138.9	447.6	644.8	532.4	925.9	5211	9999.9	9999.9	1194	65.30	27.33	18.02	14.26	10.94	8.675	7.409	5.922	4.527	4.461	3.939	3.456	3.441	3.005	3.177	2.711	2.538	2.359	2.049	2.028	1.921	1.675	1.586	1.598	1.470	1.397	1.310	1.233	1.258	1.436	1.394	1.148	1.339	1.203	1.084	0.887	0.866	0.896	0.935	0.956	1.081	1.150	1.862	3.035	4.208	3.487	3.361	5.061	8.130	11.23	19.41	47.40	138.0	278.7	354.9	211.4	25.81	6.582	1.201	1.039	0.879	0.737	0.817
285.0	305.9	258.7	182.3	127.1	101.2	119.2	230.2	662.5	445.6	398.0	1399	8964	9999.9	9999.9	797.8	42.12	25.53	17.67	13.23	10.38	8.595	6.906	5.299	4.812	4.270	3.957	3.630	3.553	3.154	3.103	2.944	2.638	2.354	2.452	2.301	2.048	1.894	1.781	1.652	1.385	1.495	1.401	1.382	1.383	1.428	1.287	1.404	1.309	1.220	1.107	1.083	1.054	1.028	1.016	1.166	1.134	1.450	1.920	2.870	4.275	4.159	3.062	3.119	3.966	5.807	11.98	32.71	80.99	198.7	346.6	264.8	34.84	18.97	2.843	1.208	1.020	1.011
290.0	406.3	396.1	299.3	201.2	146.0	144.9	175.2	365.1	703.9	612.8	649.4	2399	8966	9999.9	9999.9	3125	59.93	26.05	18.11	13.01	10.16	8.019	6.879	5.806	5.018	4.536	3.967	3.779	3.436	3.381	3.127	2.877	2.551	2.633	2.727	2.309	2.256	2.164	1.870	1.650	1.679	1.640	1.540	1.659	1.697	1.720	1.678	1.663	1.566	1.330	1.311	1.397	1.158	1.204	1.228	1.167	1.399	1.572	1.842	2.531	3.455	4.051	4.545	3.522	3.300	4.432	9.039	19.93	47.34	99.41	158.7	226.9	261.8	209.5	112.7	13.43	3.190
295.0	546.3	565.9	450.3	299.9	212.8	192.7	198.5	270.3	469.6	982.0	934.3	1027	2381	3901	9999.9	9999.9	844.6	64.40	27.80	18.41	13.39	10.65	8.462	7.353	5.623	5.268	4.479	3.940	3.834	3.449	3.080	2.816	2.739	2.838	2.795	2.535	2.562	2.533	2.124	2.007	1.891	1.983	1.897	1.907	2.222	2.023	2.109	2.131	2.092	1.769	1.703	1.555	1.409	1.279	1.482	1.388	1.499	1.610	1.857	1.923	2.193	2.554	3.814	5.723	5.546	4.237	4.479	6.965	12.98	24.40	37.39	53.41	82.63	190.2	363.5	272.1	35.87
300.0	655.8	695.9	586.5	389.4	261.1	226.4	232.3	282.8	412.3	810.4	1329	989.7	1026	1181	5400	9999.9	9999.9	684.1	46.38	24.64	17.68	12.60	9.550	8.089	6.924	5.762	5.150	4.681	4.218	3.931	3.570	3.201	3.175	3.090	3.033	2.841	2.809	2.591	2.458	2.273	2.257	2.126	2.115	2.012	2.349	2.547	2.466	2.539	2.325	2.170	1.847	1.903	1.543	1.560	1.615	1.537	1.610	1.560	1.785	2.055	2.307	2.479	2.952	4.025	5.976	6.502	5.093	4.944	5.702	8.033	10.80	14.03	20.36	47.83	131.3	272.3	399.1
305.0	751.9	783.1	692.6	463.2	302.3	246.3	269.9	323.0	452.3	692.0	1254	1381	867.0	626.5	1436	8577	9999.9	9999.9	488.2	36.05	22.76	15.63	12.02	9.691	7.769	6.598	6.142	5.355	4.494	3.924	3.980	3.451	3.371	3.265	3.147	3.134	3.013	2.775	2.811	2.267	2.437	2.214	2.113	2.220	2.415	2.570	2.436	2.849	2.680	2.361	1.938	2.089	1.874	1.741	1.723	1.797	1.955	1.928	2.149	2.116	2.446	2.631	2.809	3.311	4.416	5.838	7.143	6.545	5.043	4.959	4.998	5.360	6.439	12.23	30.97	72.20	183.7
310.0	743.0	829.0	759.4	512.7	337.3	277.6	301.4	361.5	483.2	680.1	993.3	1368	1229	639.8	550.9	2114	8008	9999.9	9999.9	2232	48.94	23.48	16.66	12.66	9.703	8.201	6.699	6.144	5.283	4.783	4.253	3.763	3.650	3.390	3.483	3.204	3.219	3.037	2.900	2.551	2.354	2.414	2.344	2.416	2.521	2.747	2.737	2.906	2.820	2.450	2.221	2.220	2.045	1.881	1.922	1.780	2.027	2.040	2.186	2.301	2.530	2.826	2.979	3.534	4.135	4.529	5.255	6.182	6.680	6.275	4.936	3.758	3.427	4.470	8.444	17.59	42.98
315.0	799.5	884.6	777.3	535.5	349.2	308.3	327.4	396.3	509.8	685.2	906.5	1072	1233	987.2	441.3	641.7	1917	3257	9999.9	9999.9	3250	51.95	24.59	17.28	12.18	10.19	7.903	7.393	5.878	5.310	4.677	4.346	4.117	3.663	3.727	3.536	3.546	3.205	2.659	2.789	2.674	2.664	2.539	2.743	2.680	2.932	2.936	3.091	3.132	2.503	2.310	2.259	2.314	2.186	1.904	1.839	2.118	2.186	2.158	2.357	2.446	2.973	3.239	3.681	3.641	4.139	4.684	5.120	5.115	5.810	6.492	5.302	3.807	3.010	3.536	5.448	11.07
320.0	907.2	1044	906.6	594.9	392.1	347.3	352.2	420.9	537.4	692.5	892.3	1017	1051	1136	662.9	383.3	600.6	873.8	4413	9999.9	9999.9	516.7	41.78	23.47	15.75	12.47	9.510	8.326	6.587	5.708	5.476	4.564	4.317	3.899	3.765	3.530	3.470	3.286	2.848	3.023	2.665	2.562	2.652	2.950	2.770	3.279	3.429	3.652	3.748	2.780	2.517	2.606	2.467	2.353	2.106	2.099	2.388	2.302	2.476	2.486	2.753	3.197	3.139	3.726	3.776	4.110	4.489	4.644	4.747	4.879	5.142	5.777	5.388	3.926	3.091	3.050	4.089
325.0	1005	1256	1173	725.3	445.8	366.0	387.6	456.1	565.5	731.8	910.4	1026	995.0	971.3	911.3	470.5	349.6	363.9	1140	6543	9999.9	9999.9	393.7	34.32	19.94	14.55	11.43	9.157	7.752	6.402	6.191	4.644	4.347	4.117	4.036	3.467	3.468	3.237	2.886	2.985	2.769	2.373	2.705	2.978	3.129	3.806	4.148	4.366	4.215	3.301	2.843	2.801	2.394	2.535	2.319	2.326	2.518	2.458	2.555	2.757	3.086	3.369	3.375	3.872	4.096	4.149	4.683	4.902	4.585	4.573	4.587	4.841	5.295	5.571	4.520	3.220	2.738
330.0	1112	1398	1352	876.1	549.2	428.8	425.9	484.2	587.6	735.9	893.0	994.7	971.4	849.0	790.4	714.5	431.1	285.8	408.3	1619	6240	9999.9	9999.9	1837	41.39	21.42	16.04	11.66	9.387	7.980	6.666	5.663	4.965	4.532	4.040	3.554	3.420	3.277	3.054	2.936	2.747	2.715	2.902	3.136	3.399	3.900	4.264	4.784	4.400	3.892	3.327	3.234	2.748	2.677	2.603	2.435	2.482	2.693	2.688	2.784	3.123	3.462	3.371	3.830	4.075	4.423	4.425	4.572	4.566	4.724	4.443	4.346	4.272	4.351	4.671	4.484	4.018
335.0	1220	1539	1494	1039	680.8	531.2	484.8	530.0	620.7	754.4	896.3	984.2	976.0	846.2	701.2	667.1	687.5	388.7	282.9	513.6	1502	2882	9999.9	9999.9	2887	46.06	22.37	15.47	11.57	9.568	7.647	6.531	5.936	4.763	4.432	4.309	3.657	3.298	2.907	3.071	2.949	2.837	2.869	3.313	3.523	4.071	4.744	4.960	4.896	4.298	3.776	3.847	3.111	3.172	2.941	2.638	2.717	2.881	2.587	3.078	3.141	3.378	3.725	4.103	3.928	4.309	4.200	4.541	4.680	4.728	4.399	4.284	4.031	3.995	3.852	3.850	4.392
340.0	1176	1591	1628	1148	778.9	614.6	526.1	565.4	644.3	753.6	887.7	973.6	964.4	854.8	703.3	594.7	674.4	570.2	306.3	287.4	460.8	744.1	3677	9999.9	9999.9	437.0	37.53	19.97	15.30	11.34	8.652	7.366	6.738	5.111	4.766	3.804	3.828	3.419	3.274	3.052	2.951	3.011	3.148	3.297	3.833	4.203	4.588	5.168	5.287	4.741	4.136	4.124	3.675	3.332	3.163	2.772	2.878	2.973	2.943	3.249	3.117	3.444	3.836	3.885	3.974	4.451	4.461	4.475	4.594	4.625	4.221	4.227	4.162	3.855	3.638	3.782	3.712
345.0	1137	1567	1568	1193	855.4	676.6	571.8	596.3	652.2	745.8	861.0	926.8	930.8	840.4	700.7	574.4	551.8	635.4	426.3	259.8	246.1	276.3	921.1	5109	9999.9	9999.9	361.7	28.75	18.57	14.18	9.712	8.426	6.707	5.703	4.976	4.350	3.764	3.579	3.261	2.914	2.931	2.891	3.088	3.207	3.646	4.318	4.578	5.223	5.229	4.863	4.202	4.336	3.796	3.707	3.340	3.243	3.142	3.178	3.288	3.129	3.288	3.511	3.763	3.878	3.918	3.983	4.322	4.213	4.502	4.379	4.152	4.192	4.069	3.981	3.561	3.757	3.415
350.0	1078	1426	1505	1230	943.2	766.1	656.5	649.4	689.1	758.9	831.9	885.5	877.3	808.6	693.7	580.2	509.9	511.2	532.5	381.3	236.4	197.6	313.5	1244	4999	9999.9	9999.9	1667	37.37	19.43	13.07	10.04	7.803	6.504	5.287	4.472	3.972	3.530	3.155	2.960	2.895	2.739	3.090	3.114	3.573	4.005	4.422	4.755	5.018	4.591	4.236	4.569	3.971	3.830	3.548	3.539	3.496	3.449	3.474	3.441	3.512	3.660	3.775	3.746	3.745	4.039	3.993	4.109	4.106	4.158	4.185	3.933	3.993	3.860	3.556	3.564	3.448
355.0	984.1	1321	1438	1212	1025	848.2	758.0	729.4	757.9	789.3	834.5	858.7	840.3	782.0	695.3	594.1	519.6	465.1	456.4	511.2	348.6	217.2	207.1	385.4	1195	2596	9999.9	9999.9	2876	43.20	18.99	13.26	9.534	7.219	5.776	5.084	4.274	3.721	3.367	2.987	3.223	2.930	3.151	3.024	3.659	3.795	4.025	4.677	4.836	4.514	4.305	4.499	4.339	4.279	3.995	3.913	3.781	3.695	3.538	3.732	3.627	4.032	3.760	3.849	3.606	3.764	3.979	3.856	3.822	4.309	4.120	3.672	3.877	3.876	3.571	3.504	3.341
360.0	921.9	1261	1348	1207	1062	887.8	792.8	774.0	791.4	808.6	837.5	842.5	819.9	767.8	696.8	602.7	532.8	471.3	425.7	465.9	467.0	282.5	206.9	213.4	364.4	657.6	3014	9999.9	9999.9	2328	36.47	17.46	12.15	8.934	6.575	5.955	4.991	4.186	3.633	3.295	3.105	3.060	2.855	2.748	3.403	3.721	3.795	4.423	4.566	4.354	3.771	4.594	4.411	4.232	4.253	3.911	3.985	3.953	3.703	3.830	3.944	4.104	3.957	4.005	3.759	3.693	3.892	3.818	3.971	3.752	4.044	3.738	3.798	3.807	3.676	3.415	3.950
365.0	884.4	1190	1296	1179	1076	919.2	825.4	818.6	823.3	836.7	837.7	828.5	801.6	752.8	679.2	606.9	548.6	491.5	438.3	420.9	486.6	403.3	250.8	202.8	201.2	239.5	751.6	3867	9999.9	9999.9	375.5	28.05	16.04	11.08	7.510	6.348	5.182	4.581	3.862	3.309	3.182	2.949	3.027	2.979	3.329	3.559	3.593	4.203	4.378	4.248	3.992	4.631	4.578	4.457	4.027	3.922	4.172	4.119	3.833	3.969	4.133	4.308	4.055	3.961	3.901	3.767	3.842	3.681	3.951	3.744	3.910	3.845	3.702	3.974	3.388	3.474	3.837
370.0	852.0	1093	1249	1177	1082	959.5	884.7	856.8	852.9	861.5	851.7	836.3	792.4	744.9	683.1	613.9	572.2	522.3	476.2	439.5	439.5	469.0	390.6	263.4	209.4	185.2	267.1	949.5	4025	9999.9	9999.9	5888	33.76	16.36	10.65	8.105	6.323	5.109	4.373	3.723	3.514	3.206	3.351	3.013	3.359	3.467	3.643	4.353	4.346	3.996	4.064	4.809	4.471	4.667	4.122	4.075	4.397	4.348	4.115	4.236	4.343	4.263	4.070	4.022	4.075	3.814	3.828	3.790	3.767	3.651	3.847	3.645	3.584	3.807	3.363	3.587	3.808
375.0	792.2	1043	1190	1155	1110	1007	921.5	902.9	891.1	882.0	879.7	853.8	805.3	739.2	684.6	633.2	600.2	559.3	522.1	485.9	456.5	454.1	489.7	409.3	283.3	225.3	202.8	320.0	977.0	2480	9999.9	9999.9	2661	39.11	16.10	11.52	8.091	6.301	4.831	4.102	3.751	3.505	3.738	3.350	3.367	3.616	3.724	4.197	4.215	3.992	4.085	4.718	4.542	4.687	4.391	4.325	4.709	4.380	4.241	4.408	4.290	4.167	4.351	4.112	3.893	4.080	3.958	3.995	3.918	3.897	3.459	3.671	3.783	4.162	3.458	3.774	3.613
380.0	746.9	1010	1132	1157	1109	1021	930.7	913.7	905.6	906.3	879.2	868.4	814.3	731.3	690.3	641.4	618.3	582.4	549.6	514.5	482.9	456.2	471.9	495.9	365.0	263.8	212.2	199.2	311.6	627.8	2788	9999.9	9999.9	2083	31.03	14.73	10.18	7.472	5.466	4.758	4.115	3.695	3.471	3.417	3.531	3.687	3.643	4.027	4.136	3.967	3.975	4.627	4.636	4.987	4.654	4.422	4.566	4.356	4.275	4.238	4.050	4.211	4.122	4.155	4.060	4.027	4.015	3.646	3.783	3.671	3.507	3.684	3.819	3.741	3.685	3.799	3.663
385.0	740.3	951.0	1103	1125	1120	1003	921.6	898.0	892.2	894.8	872.0	854.8	801.4	731.1	679.4	644.3	625.0	595.7	565.1	537.6	502.7	471.2	451.6	485.4	449.0	308.4	230.5	185.4	175.9	219.5	686.8	3380	9999.9	9999.9	311.8	23.28	13.13	9.417	6.449	5.144	4.735	4.139	3.673	3.449	3.547	3.621	3.526	3.946	4.108	3.802	3.955	4.564	4.816	4.675	4.511	4.348	4.512	4.205	4.218	4.228	4.148	4.292	4.172	3.933	4.160	3.809	4.071	3.887	3.971	3.663	3.531	3.586	3.778	3.552	3.556	3.908	3.851
390.0	737.0	927.4	1052	1093	1071	987.6	926.5	881.1	878.2	876.8	849.0	833.3	790.5	726.5	686.6	651.4	632.1	610.7	582.9	560.0	528.6	494.7	465.1	452.0	461.4	403.5	280.3	208.3	167.7	144.8	223.7	814.8	3404	9999.9	9999.9	4814	28.49	13.33	9.384	6.806	5.227	4.543	4.032	3.587	3.779	3.696	3.741	4.004	3.958	3.797	3.783	4.604	4.557	4.512	4.473	4.380	4.560	4.310	4.423	4.115	4.326	4.207	4.249	3.749	4.017	3.977	3.875	3.744	3.917	3.689	3.659	3.761	3.559	3.645	3.595	3.811	3.741
395.0	713.1	918.4	1021	1076	1034	995.0	915.7	884.0	870.4	862.0	843.1	823.3	791.5	723.2	685.7	657.0	637.2	628.0	598.9	575.3	552.4	518.6	489.7	462.6	439.4	443.6	377.6	257.9	194.4	153.2	142.0	252.0	814.2	2396	8962	9999.9	2245	33.70	13.68	9.295	6.953	5.295	4.563	4.237	4.009	3.974	3.712	4.144	3.954	3.804	3.985	4.522	4.723	4.439	4.419	4.549	4.581	4.334	4.334	3.913	4.089	4.153	4.021	3.848	4.159	3.832	3.808	4.054	3.859	3.874	3.786	3.582	3.626	3.772	3.667	4.018	4.017
400.0	692.9	876.9	986.7	1033	1018	973.7	906.8	887.9	871.7	854.7	832.3	819.3	781.6	718.2	684.5	652.9	646.7	625.8	606.9	585.6	554.9	526.7	499.2	472.5	439.5	421.6	426.4	324.5	230.1	180.5	146.2	146.4	251.9	592.4	2378	9999.9	9999.9	1809	27.60	11.42	8.400	6.136	5.155	4.669	4.272	4.046	3.991	4.188	4.045	3.885	3.913	4.431	4.322	4.427	4.415	4.480	4.684	4.271	4.288	4.003	4.061	4.141	3.882	4.066	4.022	3.700	3.977	3.905	3.844	3.655	3.755	3.490	3.673	3.704	3.706	3.716	3.730
405.0	686.3	839.2	964.0	978.6	990.0	946.5	910.3	896.7	871.8	853.2	834.5	804.3	769.7	720.9	683.6	643.4	639.7	622.9	602.9	584.8	550.8	528.1	502.7	474.4	443.3	409.8	410.0	384.6	277.5	210.5	171.0	143.8	145.3	205.5	592.6	3038	9999.9	9999.9	278.7	19.49	9.366	7.300	5.828	4.735	4.471	4.041	3.908	4.133	4.081	3.714	3.830	4.453	4.313	4.409	4.477	4.244	4.427	4.274	4.498	4.045	4.284	4.181	3.828	4.021	3.799	3.671	3.847	3.697	3.750	3.596	3.792	3.524	3.571	3.464	3.619	3.522	3.854
410.0	671.0	813.2	923.4	946.7	938.8	914.6	894.8	872.2	849.9	822.6	812.8	782.6	746.1	703.8	665.9	633.7	620.6	611.6	590.2	567.1	541.7	519.9	495.7	472.2	444.4	409.1	381.1	384.3	348.2	258.5	198.8	161.7	137.7	130.6	200.5	737.2	3075	9999.9	9999.9	3716	23.52	9.551	7.128	5.738	4.952	4.329	4.160	4.303	4.152	3.701	3.879	4.406	4.321	4.362	4.216	4.191	4.245	4.245	4.205	4.154	3.987	4.142	3.831	3.967	3.735	3.683	3.634	3.485	3.671	3.494	3.517	3.424	3.616	3.574	3.412	3.537	3.790
415.0	647.3	752.1	870.2	908.2	903.1	871.1	856.5	836.1	823.6	803.1	778.1	742.6	707.7	675.0	643.9	609.1	597.0	581.9	565.9	540.2	518.3	497.4	479.1	458.4	437.9	403.3	371.5	347.1	351.7	316.1	225.1	174.4	139.8	115.8	114.4	220.1	728.2	2350	7057	9999.9	2003	27.98	9.407	6.595	5.985	4.991	4.428	4.376	4.074	3.695	3.560	4.356	4.252	4.022	4.154	4.256	4.332	3.997	4.188	3.988	3.790	4.004	3.681	4.019	3.788	3.578	3.387	3.471	3.434	3.356	3.560	3.369	3.350	3.435	3.318	3.424	3.585
420.0	615.6	726.0	824.2	852.3	861.2	827.1	837.1	813.3	796.9	764.5	759.6	713.9	682.9	640.9	608.7	580.8	571.6	560.2	543.8	520.4	495.5	479.3	459.6	444.4	428.1	395.4	364.9	333.9	320.3	331.6	261.2	184.2	143.1	116.9	98.88	106.7	206.5	557.5	1841	9106	9999.9	1590	21.60	8.675	6.800	5.508	4.836	4.344	4.021	3.661	3.526	4.323	4.105	3.946	4.117	4.361	4.126	3.945	4.038	4.133	3.837	3.832	3.779	3.901	3.595	3.432	3.290	3.136	3.287	3.273	3.337	3.328	3.284	3.271	3.188	3.333	3.521
425.0	604.8	702.8	790.5	808.1	803.7	805.8	799.8	783.7	767.8	743.9	723.0	685.2	653.2	612.0	583.5	559.8	540.5	535.6	522.8	499.4	481.0	458.2	443.4	431.0	412.6	387.1	361.8	331.1	310.0	310.1	292.2	206.5	151.7	122.4	99.28	84.32	94.18	158.8	438.5	2597	9999.9	9999.9	260.3	15.11	8.120	6.755	5.226	4.613	4.146	3.751	3.551	4.251	4.308	4.086	3.857	3.969	3.906	3.971	3.995	3.704	3.848	3.759	3.669	3.698	3.626	3.419	3.180	3.148	3.245	3.128	3.282	3.054	2.967	3.147	3.299	3.168	3.500
430.0	1022	659.3	726.9	763.0	773.9	769.7	760.4	752.2	744.4	714.5	693.3	662.2	633.6	590.7	548.8	526.0	510.3	500.1	484.7	468.7	449.5	433.1	422.0	411.6	395.6	378.4	356.0	331.6	306.0	288.6	281.8	247.5	177.8	132.4	106.5	86.28	73.83	73.62	125.9	603.7	2843	8813	9999.9	1145	21.08	8.706	6.328	5.350	4.382	3.971	3.763	4.141	3.973	4.095	3.982	3.776	3.968	4.077	3.781	3.776	3.805	3.737	3.710	3.374	3.329	3.325	3.180	2.968	3.153	3.044	2.875	3.001	2.845	3.008	2.948	3.060	3.193
435.0	2532	679.7	691.8	716.0	730.6	734.3	741.2	720.8	721.4	697.3	671.6	632.2	602.7	560.6	520.7	492.7	478.8	466.2	459.2	437.6	423.3	409.4	400.9	391.2	381.4	365.5	346.4	327.0	303.9	281.5	258.0	247.3	214.7	149.8	114.4	92.00	73.51	59.64	59.96	159.6	653.8	2053	6400	9999.9	1851	26.03	8.540	6.623	5.299	4.228	3.662	4.241	3.802	4.225	3.892	3.738	4.049	4.004	3.774	3.802	3.803	3.506	3.520	3.415	3.325	3.310	3.024	2.781	3.272	2.975	2.952	2.801	2.911	3.078	2.910	3.002	2.968
440.0	4541	1043	657.2	669.0	699.7	706.2	704.5	704.7	701.0	678.6	645.8	608.5	572.5	533.0	495.2	468.0	460.0	440.2	430.3	414.9	401.5	389.6	380.2	372.4	367.3	354.0	338.9	322.1	300.9	277.6	250.1	228.7	224.3	174.5	121.8	96.81	77.70	59.05	48.55	63.38	168.7	477.9	1697	8712	9999.9	1441	19.16	8.232	6.121	5.153	4.088	4.391	3.918	4.304	3.847	3.852	3.818	3.831	3.812	3.867	3.649	3.545	3.294	3.570	3.144	3.354	3.008	2.800	3.175	2.750	2.898	2.760	2.764	2.807	2.830	2.689	2.720
445.0	5312	1976	629.4	653.5	664.9	676.4	674.2	681.3	681.6	655.7	631.1	591.0	549.9	507.6	466.3	441.9	433.6	418.0	409.3	388.7	376.4	364.9	359.2	353.9	347.0	338.3	322.4	311.7	293.3	275.1	246.4	216.7	206.9	193.7	136.1	99.95	80.62	62.83	48.49	44.92	61.75	127.2	399.9	2551	9999.9	9999.9	218.0	14.75	7.141	5.394	4.576	4.617	4.041	4.175	3.800	3.825	3.756	3.735	3.687	3.846	3.487	3.418	3.386	3.509	3.199	3.172	2.974	2.810	2.842	2.553	2.677	2.494	2.599	2.702	2.758	2.613	2.541
450.0	3482	5156	1037	603.2	611.9	621.9	641.6	629.6	641.4	613.3	588.5	554.9	520.5	471.2	436.8	405.3	393.3	378.5	371.5	353.3	345.6	332.0	327.4	325.9	321.2	314.3	303.5	293.7	280.4	261.7	239.3	208.3	185.2	178.9	157.5	114.4	85.34	67.01	52.66	44.07	42.04	51.91	109.8	589.7	2879	8638	9705	2702	18.27	7.333	5.582	5.430	4.588	4.300	3.910	3.743	3.968	3.906	3.566	3.604	3.473	3.277	3.342	3.254	3.151	2.983	2.874	2.835	2.725	2.652	2.623	2.511	2.485	2.472	2.596	2.464	2.479
455.0	1227	5954	3661	616.9	568.8	576.3	579.5	585.9	595.4	575.1	543.3	511.6	477.8	436.3	395.7	365.7	352.4	340.1	328.6	314.3	309.0	303.2	297.1	297.0	293.3	289.0	278.6	274.3	260.7	248.2	228.7	200.3	172.3	156.1	152.2	132.3	93.69	71.65	56.55	46.66	40.06	37.06	45.60	149.9	657.9	2018	5701	9999.9	1536	20.68	7.227	6.098	5.129	4.529	3.920	3.737	4.097	3.819	3.795	3.508	3.291	3.288	3.005	2.962	2.811	2.770	2.524	2.921	2.605	2.501	2.518	2.323	2.577	2.238	2.264	2.401	2.447
460.0	564.3	3942	6282	923.7	530.1	528.7	547.8	557.6	557.2	535.7	516.8	475.2	447.2	409.6	365.8	341.1	322.2	311.2	299.0	288.2	281.7	277.5	272.7	271.7	270.9	268.0	259.9	253.6	244.9	234.8	219.3	194.6	166.7	143.3	136.6	136.0	106.8	74.98	59.03	48.31	40.95	34.78	32.49	52.53	163.5	466.5	1471	7404	9921	1160	16.42	7.432	5.890	5.028	4.152	3.832	4.103	3.717	3.544	3.292	3.354	3.158	3.079	2.992	2.739	2.770	2.473	2.502	2.488	2.439	2.248	2.135	2.224	2.054	2.220	2.222	2.249
465.0	417.9	1728	7324	3008	505.3	493.3	511.7	522.5	520.2	504.3	484.5	456.5	415.1	378.5	341.7	313.9	298.8	284.7	277.6	268.9	258.2	253.7	252.3	249.3	250.9	248.2	245.3	237.8	231.2	221.8	204.7	183.3	159.5	139.0	123.2	122.7	115.3	82.07	61.19	50.95	42.51	35.80	31.35	31.50	53.47	120.1	344.6	2118	8971	8106	182.2	14.28	7.380	5.755	4.790	4.099	3.972	3.903	3.692	3.274	3.398	3.242	2.962	2.797	2.806	2.646	2.519	2.537	2.313	2.335	2.236	2.107	2.080	1.995	2.264	1.917	2.054
470.0	372.0	678.3	4590	6811	1204	454.6	462.6	470.5	481.6	466.1	444.2	417.4	378.4	340.3	307.7	281.7	266.7	254.3	246.9	235.8	228.8	224.2	221.1	222.6	221.9	220.6	216.8	213.8	209.1	202.3	187.7	168.5	148.9	130.7	113.6	105.6	103.6	91.90	67.09	51.64	43.00	36.70	31.08	27.60	29.50	42.20	90.45	487.2	2495	6414	6953	2283	18.66	7.570	5.621	4.714	4.442	3.892	3.423	3.274	3.162	3.174	2.812	2.801	2.700	2.541	2.311	2.483	2.206	2.191	2.206	2.100	2.022	1.895	2.098	1.951	1.907
475.0	332.2	391.3	1494	7183	4269	467.0	422.3	435.7	423.3	418.5	399.0	368.8	339.2	301.1	272.9	251.7	232.8	222.0	216.1	209.5	199.7	193.8	193.2	195.1	195.5	195.9	188.6	189.7	184.4	180.5	171.1	153.0	136.9	121.2	106.0	94.12	87.30	86.29	76.23	54.11	43.21	36.77	31.21	26.85	24.26	24.78	32.84	119.9	566.1	1477	3700	7964	1519	23.39	6.876	5.328	4.646	3.901	3.424	3.009	3.000	2.936	2.675	2.632	2.274	2.248	2.185	2.290	2.274	1.943	2.096	1.950	1.764	1.789	1.771	1.926	1.809
480.0	336.0	330.0	594.9	4570	7423	642.4	388.4	396.2	396.2	389.7	367.8	340.7	315.1	279.0	248.2	230.2	213.5	202.0	194.2	187.3	183.2	178.1	174.2	177.0	178.5	177.5	174.5	174.7	170.0	167.0	158.0	144.3	127.0	114.2	99.80	88.45	79.29	75.64	76.62	59.74	44.70	36.19	31.38	26.97	23.97	20.93	20.53	37.81	136.5	339.2	929.7	4803	7527	1317	18.69	6.680	5.193	4.056	3.625	3.228	2.928	2.854	2.694	2.374	2.461	2.219	2.174	2.003	2.070	1.842	1.950	1.907	1.789	1.714	1.641	1.743	1.744
485.0	308.1	323.5	359.2	1916	8329	2828	373.7	374.8	374.3	359.4	348.8	323.2	293.5	260.7	232.1	212.0	197.9	187.5	179.8	171.1	167.4	165.6	162.2	163.0	162.7	163.2	160.3	160.0	160.9	155.8	148.5	135.7	121.2	109.9	95.98	83.85	74.60	67.43	69.64	66.07	48.86	36.88	31.19	27.74	23.85	20.41	18.79	19.65	40.66	84.98	216.9	1321	6209	6803	215.5	12.96	5.991	4.984	4.139	3.499	3.134	2.716	2.629	2.497	2.374	2.549	2.172	2.096	2.076	1.658	1.873	1.845	1.725	1.703	1.674	1.606	1.668
490.0	258.3	318.5	312.1	686.0	5049	7002	1003	342.4	343.7	330.3	325.1	301.6	265.6	240.6	213.7	192.3	179.1	170.8	162.6	155.1	150.9	148.7	146.8	146.6	148.0	147.7	144.8	144.6	145.0	142.6	135.8	124.6	111.7	101.2	90.00	79.95	70.95	63.37	60.05	61.61	54.71	40.93	32.11	27.62	24.03	20.98	18.62	16.52	19.54	28.10	56.87	304.0	1676	4789	6141	2255	19.56	6.602	4.669	4.010	3.271	2.896	2.720	2.554	2.347	2.273	2.027	1.910	1.819	1.789	1.865	1.740	1.665	1.641	1.607	1.519	1.644
495.0	203.5	291.9	319.8	364.3	1635	7743	3556	359.3	318.1	303.0	292.9	272.3	244.3	217.9	196.1	173.5	162.3	153.1	147.6	140.9	134.8	130.8	130.8	130.1	131.2	130.9	128.7	129.0	130.6	129.6	121.5	112.8	101.3	92.86	83.06	75.05	65.39	60.64	54.01	51.35	52.40	47.25	34.28	28.31	24.85	21.73	18.83	16.66	15.29	15.73	20.86	75.71	380.8	1100	3313	7640	1751	25.55	6.147	4.526	3.661	3.186	2.663	2.707	2.317	2.319	2.029	1.860	1.844	1.908	1.766	1.637	1.551	1.697	1.469	1.384	1.514
500.0	185.2	240.8	327.3	287.1	571.7	5027	7421	464.5	300.4	283.5	273.9	254.4	225.4	200.9	177.1	158.3	148.1	139.1	132.2	128.7	121.3	118.0	118.8	117.1	119.2	117.7	119.7	117.9	117.8	118.2	110.9	103.5	94.21	84.65	76.45	70.91	62.47	56.86	49.95	46.11	45.21	47.57	38.16	28.89	24.86	21.23	18.84	16.80	14.71	13.04	13.46	24.66	92.58	252.9	824.3	4383	7425	1449	19.55	5.381	3.974	3.321	2.885	2.675	2.427	2.066	2.075	1.963	1.845	1.837	1.628	1.564	1.512	1.621	1.447	1.423	1.518
505.0	177.6	200.8	308.6	265.4	310.5	2148	8997	2332	279.3	266.5	253.4	235.5	204.9	185.5	163.0	146.7	136.9	125.3	121.0	115.0	111.2	107.6	108.4	107.3	108.0	106.9	108.8	107.5	108.1	106.3	101.9	95.84	86.97	79.83	71.21	65.11	59.06	53.80	48.11	43.20	40.17	43.81	41.10	30.16	24.41	21.20	18.72	16.34	14.81	13.24	11.64	13.40	27.89	63.61	192.1	1167	5456	6506	238.9	12.67	4.538	3.781	3.254	2.570	2.470	2.040	2.104	1.864	1.668	1.578	1.563	1.476	1.438	1.572	1.314	1.273	1.403
510.0	157.2	164.5	247.3	275.6	230.4	688.4	5570	6860	742.1	239.6	224.6	209.3	184.7	164.5	142.6	129.2	120.3	110.5	107.9	101.8	97.69	95.19	94.47	92.87	95.07	94.39	95.18	94.67	94.64	92.95	90.42	84.94	77.45	70.97	64.19	59.01	53.27	49.01	43.75	39.78	36.61	35.88	37.95	34.58	26.31	21.37	18.16	16.08	14.43	13.07	11.44	11.08	13.50	21.10	49.86	267.5	1424	4074	5170	1070	19.17	4.721	3.636	2.907	2.583	2.150	1.983	1.713	1.735	1.581	1.504	1.518	1.369	1.425	1.217	1.221	1.288
515.0	147.2	134.6	177.6	261.5	222.7	302.0	1733	8439	2677	242.6	202.8	184.2	167.0	144.9	128.9	114.1	102.8	97.25	91.47	88.27	85.61	84.63	81.29	80.93	80.46	81.59	81.58	82.05	82.88	81.33	78.94	74.31	67.63	61.81	57.08	52.46	47.78	43.79	39.04	36.03	32.84	30.94	30.00	32.83	29.46	22.57	17.95	16.42	13.89	12.53	11.34	10.39	9.874	11.30	17.68	65.87	323.0	924.6	2325	5614	1766	25.81	4.498	3.429	2.495	2.276	2.003	1.833	1.581	1.477	1.430	1.461	1.317	1.358	1.041	1.204	1.125
520.0	136.7	126.5	145.6	233.9	236.7	202.4	557.2	5658	7073	344.1	189.1	168.6	152.3	135.4	112.8	102.0	92.03	86.14	80.42	79.88	77.13	74.64	73.29	73.72	73.11	72.37	73.21	72.52	73.67	74.06	70.81	65.16	61.74	55.63	51.58	47.41	42.92	40.66	36.53	32.27	30.42	28.11	25.99	28.48	30.23	24.48	17.84	15.47	13.64	12.30	10.90	10.38	9.421	8.932	10.13	20.81	77.74	211.7	558.5	2935	5599	1465	20.42	4.257	2.898	2.291	2.007	1.840	1.681	1.460	1.416	1.329	1.266	1.221	1.090	0.961	1.120
525.0	118.6	129.7	121.1	187.9	249.4	181.5	255.0	2359	9430	1843	179.7	155.3	139.8	120.3	102.7	92.71	83.63	79.09	74.58	70.92	68.91	65.87	66.52	65.16	65.39	64.73	64.45	65.33	66.24	66.38	63.70	59.27	55.55	49.63	47.06	43.11	38.89	37.72	33.60	29.84	28.14	25.47	23.82	24.27	26.80	25.37	19.02	14.99	13.33	11.93	10.48	9.741	9.378	8.667	8.344	10.45	22.56	52.57	130.0	739.4	3498	5052	252.5	13.93	3.201	2.548	2.074	1.928	1.583	1.416	1.336	1.229	1.151	1.161	1.111	1.085	1.029
530.0	110.7	114.2	118.2	138.7	231.5	190.3	166.9	699.1	6191	6587	576.1	138.5	122.1	105.8	92.16	82.69	73.71	68.32	65.85	62.72	59.02	56.89	57.77	56.26	56.77	56.91	55.61	56.09	57.51	56.94	55.68	51.56	48.39	44.06	41.56	37.97	34.56	32.56	29.63	27.10	25.21	23.07	21.31	20.69	20.70	23.00	21.08	15.72	12.66	10.96	9.868	9.200	8.642	8.327	7.711	7.609	9.778	16.19	33.46	169.5	871.5	2689	3701	1103	20.16	3.852	2.405	1.933	1.691	1.436	1.436	1.292	1.227	1.101	1.069	0.980	1.027
535.0	96.31	96.31	102.1	110.7	159.8	217.0	142.6	261.0	1874	8748	2151	148.4	108.8	92.29	80.09	70.99	64.36	61.41	56.44	53.35	51.55	49.72	48.84	48.24	47.52	47.60	47.32	48.31	49.13	47.82	46.77	44.42	41.32	38.32	35.85	32.99	30.71	28.36	26.09	23.76	22.18	20.42	19.33	18.27	17.09	17.78	19.75	17.45	12.11	10.43	9.021	8.557	7.769	7.415	7.465	6.539	6.618	7.847	11.54	41.46	198.1	606.1	1369	3815	1802	28.75	3.525	2.175	1.828	1.496	1.488	1.263	1.115	1.068	0.952	0.947	1.042
540.0	96.62	91.66	96.38	91.62	116.9	207.0	146.9	148.4	537.3	5832	6589	245.8	97.51	84.15	72.62	63.15	57.05	54.36	50.24	47.40	45.01	43.94	42.94	42.58	41.72	40.85	42.62	42.39	42.75	41.90	40.28	39.57	36.49	34.73	31.37	28.97	27.08	25.10	23.94	21.60	19.47	18.14	17.55	16.57	15.35	14.68	16.41	17.09	13.15	10.00	8.436	8.025	6.935	7.147	6.899	6.589	5.780	5.753	6.443	13.05	47.54	138.7	319.3	1681	4014	1499	23.12	2.915	2.114	1.697	1.495	1.253	1.113	1.050	1.004	1.056	1.076
545.0	85.51	86.52	91.73	88.48	95.97	170.4	161.4	115.3	208.4	2306	9003	1355	92.77	77.35	65.43	57.10	51.72	48.44	44.46	42.41	38.41	38.35	38.46	36.75	36.99	36.11	37.77	37.37	37.58	36.43	36.42	34.33	32.83	30.42	27.81	26.41	23.94	21.59	21.29	19.77	18.02	16.73	15.86	14.79	13.64	13.14	13.54	15.50	13.98	10.29	8.134	7.494	6.731	6.407	6.404	6.148	5.827	5.042	5.137	6.131	13.51	33.98	74.58	404.0	2062	3766	1085	16.30	2.623	1.829	1.644	1.285	1.113	1.062	1.004	0.909	0.931
550.0	80.35	74.72	75.09	76.65	76.84	112.4	173.1	108.8	121.0	635.6	5696	5439	370.7	66.87	55.81	48.51	42.84	40.00	37.41	36.26	33.51	33.05	32.08	31.38	32.03	30.95	31.24	30.91	30.81	31.33	29.95	29.31	27.38	25.27	23.68	22.23	20.11	18.77	18.06	16.44	15.52	14.90	13.41	12.76	11.74	11.00	10.82	11.50	12.50	10.51	7.977	6.500	6.036	5.926	5.671	5.091	5.462	4.801	4.238	4.309	5.712	10.21	19.14	93.04	492.6	1673	2684	1108	99.50	3.104	1.712	1.451	1.253	1.241	0.944	0.871	0.809
555.0	73.06	75.99	66.76	65.95	65.49	76.16	141.9	127.2	90.27	203.2	1627	7488	1553	70.60	47.69	41.64	36.75	33.55	30.11	29.46	28.80	26.37	25.72	25.47	25.92	25.29	26.14	26.36	25.03	25.65	24.76	23.56	21.73	20.43	19.16	17.91	16.54	15.51	14.40	13.64	12.79	11.93	11.20	10.62	9.826	9.708	8.809	8.361	9.234	9.656	8.265	6.273	5.382	5.044	4.846	4.441	4.683	4.470	4.039	3.427	3.293	4.511	6.446	22.88	111.8	375.9	839.9	2331	1722	30.49	2.597	1.821	1.474	1.337	1.098	0.893	0.736
560.0	78.40	66.72	64.44	57.76	55.04	64.08	106.1	147.1	83.34	104.3	439.2	5075	5014	156.0	42.87	36.20	32.37	28.51	27.50	25.05	24.06	22.72	21.78	22.50	22.15	21.50	21.74	21.74	21.03	21.09	21.21	19.54	19.00	17.50	16.25	14.89	13.98	13.14	12.42	11.67	10.96	10.08	9.379	9.406	8.297	8.270	7.934	7.063	6.934	7.996	8.018	6.440	5.101	4.519	4.420	4.061	4.095	3.658	4.088	3.442	2.955	2.935	3.576	7.156	27.00	85.91	192.9	890.2	2524	1283	24.20	2.274	1.482	1.301	1.006	0.931	0.767
565.0	72.51	61.90	58.03	53.65	52.23	53.10	75.98	147.1	93.60	75.43	155.8	1975	7212	903.5	41.16	32.58	28.37	25.50	23.68	22.02	20.98	19.59	18.66	19.68	18.31	17.96	19.16	18.47	17.96	18.17	17.89	16.49	15.93	15.09	14.35	13.10	11.93	11.28	10.67	10.46	9.554	8.785	8.525	8.096	7.668	7.455	6.756	6.106	5.741	6.072	6.890	6.372	4.625	4.130	4.035	3.529	3.496	3.367	3.552	3.440	2.688	2.495	2.398	3.276	7.881	21.19	45.14	208.4	1089	2340	849.5	17.44	1.833	1.428	1.164	0.934	0.844
570.0	72.68	65.30	53.84	48.70	45.90	47.06	51.30	111.3	116.5	69.80	85.43	527.1	4772	3910	110.8	29.01	24.75	21.36	19.95	18.49	17.29	16.62	15.48	16.00	15.20	14.91	15.21	14.89	15.08	15.03	14.86	13.90	13.06	12.22	12.06	10.72	9.969	9.321	8.988	8.311	7.898	7.437	7.006	6.691	6.192	5.979	5.434	5.126	4.815	4.571	5.006	5.779	4.853	3.674	3.376	3.201	2.906	2.940	2.845	2.851	2.657	2.279	2.273	2.144	3.346	6.409	11.75	48.31	254.1	907.1	1591	888.6	96.54	2.628	1.132	1.014	0.918
575.0	76.39	68.22	54.96	48.53	41.45	44.22	43.64	66.50	130.1	81.29	67.46	166.9	1379	5683	1031	31.04	20.21	19.06	16.78	15.76	14.18	13.75	12.63	12.48	12.32	12.23	12.18	11.54	12.19	12.25	11.80	11.46	10.62	10.04	9.616	8.491	8.247	7.863	7.480	6.833	6.307	6.166	6.087	5.563	5.215	5.010	4.685	4.278	3.926	3.798	3.782	4.079	4.594	3.917	3.231	2.692	2.674	2.474	2.336	2.153	2.328	2.344	2.041	1.842	1.988	2.838	3.882	12.31	58.12	204.2	449.2	1303	1192	31.26	2.200	1.126	1.064
580.0	82.78	67.57	60.48	45.29	38.71	38.82	40.44	50.06	111.6	98.10	65.46	87.65	363.4	4000	3358	92.94	20.31	16.90	15.33	14.22	12.61	12.04	11.28	10.80	10.96	10.54	10.70	10.08	10.32	10.72	10.28	9.654	9.045	8.553	8.202	7.232	6.768	6.347	6.595	5.916	5.545	5.414	4.923	4.898	4.523	4.247	4.005	3.797	3.323	3.218	3.011	3.564	3.955	3.801	3.065	2.588	2.425	2.222	2.018	2.016	2.008	2.281	1.921	1.793	1.683	1.803	2.267	4.097	14.38	46.97	102.7	459.2	1467	854.8	24.26	1.429	1.151
585.0	79.41	68.32	56.19	45.15	37.94	37.48	37.29	43.60	85.52	120.1	71.96	69.83	124.4	1596	4994	509.5	20.24	14.98	14.23	12.15	11.85	10.59	10.21	9.594	9.658	9.527	9.280	9.341	9.450	8.951	9.310	7.944	7.949	7.161	7.003	6.608	5.699	5.950	5.356	5.175	5.145	4.612	4.305	4.066	4.112	3.665	3.650	3.445	3.197	2.810	2.664	2.749	3.000	3.641	3.208	2.504	2.106	2.012	1.971	1.911	1.824	1.884	1.983	1.817	1.532	1.488	1.684	2.020	4.478	11.90	24.37	107.0	600.7	1402	267.6	15.93	1.281
590.0	74.85	70.20	54.40	43.78	37.38	34.37	34.26	38.57	59.04	119.2	87.39	65.09	71.13	418.9	3372	2421	66.38	13.59	12.23	10.65	9.729	9.085	8.610	8.194	7.951	7.793	7.728	7.658	7.804	7.500	7.269	6.812	6.394	5.923	5.663	5.389	4.901	4.882	4.419	4.272	4.116	3.843	3.581	3.519	3.488	3.304	3.026	2.855	2.665	2.483	2.314	2.342	2.452	2.741	3.099	2.579	2.116	1.792	1.555	1.665	1.590	1.596	1.676	1.833	1.535	1.459	1.390	1.493	2.106	3.740	6.487	25.01	139.7	526.7	898.4	588.9	20.85
595.0	76.06	73.83	58.01	44.67	32.16	32.67	32.00	36.35	45.37	93.65	112.3	68.79	59.37	124.4	968.3	3781	645.3	15.97	11.10	8.951	8.321	7.847	7.269	7.101	6.568	6.758	6.129	6.549	6.489	6.472	5.809	5.718	5.493	4.877	4.772	4.777	4.281	4.025	3.922	3.383	3.318	3.163	3.050	2.956	2.799	3.029	2.664	2.480	2.120	2.041	1.806	2.020	1.916	2.075	2.516	2.632	2.162	1.646	1.552	1.587	1.399	1.407	1.271	1.361	1.553	1.535	1.187	1.209	1.433	1.667	2.367	6.432	31.92	118.4	253.9	792.5	729.7
600.0	73.16	66.74	58.67	44.48	33.32	28.90	31.17	33.70	41.66	68.39	124.5	76.03	56.13	57.29	246.6	2779	2005	47.34	10.57	8.186	7.596	7.028	6.411	6.102	5.837	5.745	5.549	5.543	5.527	5.209	5.266	4.667	4.436	4.175	4.092	4.201	3.722	3.336	3.344	2.975	2.822	2.873	2.646	2.600	2.499	2.590	2.322	2.216	1.998	1.784	1.716	1.723	1.483	1.625	1.921	2.364	2.132	1.667	1.423	1.348	1.219	1.297	1.194	1.282	1.352	1.525	1.321	1.120	1.230	1.134	1.386	2.121	7.891	27.07	58.34	274.0	883.9
605.0	65.58	76.74	58.13	42.13	32.68	27.10	28.26	30.26	41.33	56.09	113.9	88.38	54.01	42.32	73.97	1148	3245	259.0	10.15	8.284	6.980	6.478	6.072	5.625	5.383	4.975	5.176	4.865	4.826	4.723	4.932	4.182	3.924	3.805	3.606	3.364	3.420	3.112	2.838	2.626	2.595	2.443	2.273	2.342	2.147	2.088	2.009	2.057	1.745	1.562	1.523	1.580	1.371	1.325	1.479	1.802	1.972	1.690	1.453	1.195	1.249	1.144	1.135	1.192	1.271	1.354	1.432	1.008	1.060	1.061	0.948	1.125	2.510	6.810	13.90	63.77	357.8
610.0	68.91	73.21	57.05	40.76	29.78	26.70	27.60	31.65	39.02	49.79	84.13	103.9	56.45	38.86	34.00	295.1	2439	1377	40.38	7.951	6.363	5.632	5.457	5.105	5.007	4.426	4.364	4.510	4.069	4.081	4.265	3.769	3.474	3.129	2.972	2.847	2.948	2.753	2.487	2.313	2.171	2.301	1.852	2.002	1.794	1.795	1.651	1.723	1.530	1.324	1.357	1.412	1.236	1.214	1.189	1.342	1.568	1.632	1.499	1.146	1.049	1.036	0.950	1.022	0.962	1.125	1.317	1.139	1.063	0.943	0.842	0.891	1.224	2.175	3.775	14.97	83.18
615.0	60.66	67.16	55.83	41.10	29.06	24.83	26.13	28.58	39.03	45.36	65.65	99.58	67.40	37.33	24.20	76.91	742.0	2551	399.4	8.858	6.502	5.057	5.219	4.478	4.010	3.785	3.654	3.796	3.304	3.612	3.304	3.259	2.894	2.567	2.473	2.668	2.323	2.418	2.181	1.880	1.819	1.950	1.608	1.644	1.743	1.592	1.450	1.328	1.309	1.193	1.109	1.122	1.029	1.017	1.028	1.012	1.228	1.461	1.475	1.257	0.984	0.946	0.984	1.039	0.886	0.926	1.026	1.112	1.126	0.892	0.824	0.746	0.956	1.068	1.372	3.934	19.21
620.0	58.19	66.38	52.87	36.74	29.60	22.61	25.26	27.95	35.45	42.82	59.27	88.91	79.44	37.98	22.31	29.75	188.2	2042	1258	23.54	6.451	5.161	4.645	4.243	3.562	3.837	3.615	3.482	3.044	3.192	3.269	2.949	2.867	2.470	2.161	2.245	2.098	1.890	1.947	1.826	1.578	1.531	1.608	1.465	1.527	1.478	1.354	1.341	1.186	1.034	1.051	1.008	1.003	0.991	0.930	0.939	0.966	1.194	1.310	1.264	0.969	0.900	0.916	0.909	0.904	0.917	0.903	1.005	1.079	0.955	0.762	0.760	0.792	0.825	0.814	1.410	4.887
625.0	64.32	55.51	48.52	36.86	26.22	21.92	23.62	26.57	34.45	43.16	54.00	68.64	84.67	39.46	21.25	16.69	52.66	912.4	2204	79.62	6.530	4.608	4.389	3.748	3.571	3.473	3.008	3.041	2.952	3.027	2.833	2.379	2.581	2.371	2.026	2.063	1.787	1.681	1.701	1.774	1.498	1.354	1.462	1.307	1.447	1.238	1.323	1.200	1.158	0.997	0.858	0.871	0.931	0.889	0.891	0.857	0.889	0.842	1.210	1.278	1.053	0.942	0.820	0.823	0.857	0.790	0.808	0.984	0.986	0.982	0.828	0.680	0.630	0.650	0.643	0.827	1.626
630.0	61.77	58.60	46.28	34.66	24.26	22.15	22.95	24.61	31.00	41.79	49.10	55.53	75.70	49.02	21.20	14.00	21.40	238.1	1819	977.3	23.61	5.005	4.176	3.565	3.231	3.237	2.822	2.612	2.457	2.626	2.504	2.267	2.133	1.938	1.825	1.889	1.631	1.480	1.555	1.486	1.502	1.221	1.236	1.206	1.122	1.152	1.077	1.119	1.001	0.897	0.799	0.830	0.839	0.788	0.740	0.822	0.833	0.718	0.939	1.078	0.949	0.871	0.758	0.747	0.800	0.781	0.787	0.836	0.749	0.851	0.870	0.779	0.588	0.602	0.597	0.623	0.770
635.0	61.00	54.83	48.49	36.40	24.82	22.28	20.35	23.05	28.94	37.19	44.36	50.59	57.89	59.30	22.84	13.77	13.16	61.76	595.1	2011	222.8	5.467	4.135	3.478	3.116	2.834	2.524	2.393	2.214	2.363	1.948	1.908	2.056	1.759	1.706	1.701	1.308	1.298	1.266	1.183	1.360	1.221	1.002	0.990	1.163	1.048	1.053	0.901	0.967	0.835	0.810	0.732	0.770	0.699	0.608	0.841	0.705	0.737	0.779	0.757	0.985	0.905	0.754	0.728	0.732	0.703	0.790	0.705	0.611	0.675	0.749	0.836	0.634	0.568	0.514	0.507	0.559
640.0	55.90	63.43	47.19	34.21	22.21	21.34	19.17	23.11	28.08	34.72	43.67	46.43	49.03	60.42	30.34	14.90	11.77	21.99	154.6	1749	604.3	11.18	4.109	3.451	2.900	2.905	2.448	2.177	2.074	2.357	1.924	1.767	1.768	1.604	1.604	1.684	1.277	1.247	1.101	1.057	1.126	1.221	1.085	1.017	0.933	0.871	0.959	0.832	0.814	0.806	0.721	0.770	0.723	0.687	0.675	0.700	0.597	0.729	0.808	0.667	0.870	0.878	0.736	0.718	0.681	0.737	0.789	0.684	0.666	0.613	0.673	0.716	0.687	0.633	0.603	0.548	0.497
645.0	59.67	64.17	52.94	32.19	25.57	22.37	19.87	24.30	29.36	33.13	40.36	45.96	44.05	53.51	36.59	16.04	13.11	13.05	42.57	863.1	1530	53.98	4.250	3.233	2.756	2.855	2.467	2.032	2.021	2.052	1.723	1.708	1.780	1.547	1.485	1.451	1.425	1.232	0.985	1.145	1.129	1.192	1.144	0.836	0.887	0.868	0.778	0.704	0.826	0.753	0.673	0.748	0.681	0.646	0.637	0.678	0.613	0.656	0.741	0.643	0.788	0.816	0.813	0.708	0.604	0.686	0.649	0.731	0.590	0.612	0.571	0.612	0.610	0.689	0.526	0.576	0.496
650.0	62.21	65.05	52.11	32.33	24.53	22.54	19.61	23.28	27.48	33.13	42.75	44.03	42.85	42.96	43.49	18.05	13.55	11.75	17.01	264.9	1777	342.8	5.177	3.483	2.943	2.256	2.338	2.148	1.914	1.907	1.936	1.833	1.760	1.527	1.437	1.353	1.233	1.169	1.096	1.124	0.978	1.098	1.089	0.990	0.756	0.869	0.884	0.801	0.741	0.636	0.733	0.611	0.613	0.661	0.605	0.617	0.602	0.627	0.651	0.601	0.685	0.741	0.745	0.765	0.622	0.528	0.647	0.635	0.542	0.624	0.669	0.635	0.647	0.710	0.563	0.483	0.462
