Sample:	'1
File name:	Default_20230714_175306.FD3
Run date:	'17:46:45, 07/14/2023
Operator:	user
Comment:	'

Instrument
Model:	F-2700 FL Spectrophotometer
Serial number:	2190-003
ROM Version:	4J14000 07

Instrument parameters
Measurement type:	3-D scan
Data mode:	Fluorescence
EX  Start WL:	220.0 nm
EX  End WL:	600.0 nm
EX Sampling interval:	5.0 nm
EM  Start WL:	230.0 nm
EM  End WL:	650.0 nm
EM Sampling interval:	5.0 nm
Scan speed:	12000 nm/min
EX Slit:	5.0 nm
EM Slit:	5.0 nm
PMT Voltage:	700 V
Response:	Auto 
Corrected spectra:	Off
Contour interval:	50.000

Peak integration
Integration method:	Rectangular
Sensitivity:	1
Threshold:	1.000

Peaks
No.	ApexEX/EM(nm)	Height(Data)
1	225.0/270.0	93.92
2	225.0/550.0	105.0
3	225.0/575.0	90.38
4	225.0/630.0	82.69
5	230.0/265.0	78.43
6	230.0/545.0	110.1
7	230.0/615.0	99.22
8	235.0/585.0	85.86
9	235.0/600.0	76.32
10	240.0/575.0	87.75
11	240.0/615.0	66.82
12	240.0/640.0	71.72
13	245.0/265.0	170.4
14	245.0/605.0	66.57
15	250.0/270.0	170.9
16	250.0/370.0	 3049
17	250.0/580.0	76.68
18	250.0/610.0	59.51
19	255.0/280.0	242.7
20	255.0/605.0	64.72
21	260.0/285.0	332.0
22	260.0/635.0	59.65
23	265.0/290.0	389.9
24	265.0/575.0	115.8
25	265.0/615.0	66.75
26	270.0/590.0	104.3
27	270.0/625.0	63.94
28	270.0/635.0	64.86
29	275.0/305.0	969.0
30	275.0/605.0	100.7
31	280.0/310.0	946.6
32	280.0/615.0	88.39
33	285.0/315.0	871.7
34	285.0/630.0	65.17
35	290.0/640.0	48.90
36	295.0/265.0	11.98
37	300.0/235.0	11.04
38	300.0/335.0	528.8
39	305.0/265.0	10.12
40	305.0/340.0	563.6
41	310.0/235.0	7.868
42	310.0/245.0	7.640
43	310.0/350.0	514.3
44	310.0/405.0	855.2
45	315.0/355.0	519.5
46	320.0/275.0	8.972
47	320.0/360.0	561.6
48	330.0/245.0	5.332
49	330.0/260.0	5.571
50	335.0/380.0	614.5
51	340.0/250.0	6.043
52	345.0/245.0	4.580
53	350.0/320.0	5.723
54	365.0/635.0	7.250
55	370.0/275.0	4.804
56	370.0/330.0	5.780
57	380.0/295.0	3.954
58	385.0/340.0	4.179
59	390.0/305.0	3.966
60	390.0/320.0	4.262
61	395.0/265.0	3.174
62	410.0/255.0	3.334
63	415.0/345.0	3.410
64	430.0/300.0	2.614
65	430.0/320.0	3.103
66	445.0/315.0	3.104
67	480.0/425.0	5.044
68	495.0/360.0	10.55
69	500.0/370.0	10.90
70	500.0/440.0	5.221
71	535.0/395.0	6.018
72	550.0/445.0	4.689
73	550.0/515.0	3.199
74	560.0/310.0	4.641
75	570.0/315.0	4.168
76	575.0/520.0	3.217
77	580.0/485.0	3.907

Data points
	220.0	225.0	230.0	235.0	240.0	245.0	250.0	255.0	260.0	265.0	270.0	275.0	280.0	285.0	290.0	295.0	300.0	305.0	310.0	315.0	320.0	325.0	330.0	335.0	340.0	345.0	350.0	355.0	360.0	365.0	370.0	375.0	380.0	385.0	390.0	395.0	400.0	405.0	410.0	415.0	420.0	425.0	430.0	435.0	440.0	445.0	450.0	455.0	460.0	465.0	470.0	475.0	480.0	485.0	490.0	495.0	500.0	505.0	510.0	515.0	520.0	525.0	530.0	535.0	540.0	545.0	550.0	555.0	560.0	565.0	570.0	575.0	580.0	585.0	590.0	595.0	600.0
230.0	71.13	91.04	605.8	659.2	110.5	31.01	30.63	32.66	28.43	26.33	18.64	16.25	13.13	13.28	11.60	7.234	9.392	6.042	6.046	5.108	6.094	5.426	4.359	4.726	4.193	4.089	3.486	4.069	3.434	2.538	3.060	3.501	3.271	2.813	2.408	2.360	2.335	2.029	2.435	2.441	2.297	2.212	2.015	1.738	2.130	1.716	1.907	1.943	2.796	2.819	2.351	1.795	1.579	1.460	1.459	1.644	1.878	1.717	1.475	1.273	1.726	1.477	1.325	1.633	1.546	1.820	1.285	1.395	1.533	1.709	1.704	1.611	1.835	1.615	1.726	1.890	1.871
235.0	110.6	83.99	263.1	917.9	897.4	129.2	36.27	23.31	27.26	23.64	16.07	20.17	19.12	12.61	8.266	10.19	11.04	4.942	7.868	7.704	6.518	4.455	3.925	4.341	3.486	2.982	3.963	3.044	2.465	3.346	3.681	2.631	2.672	2.648	2.687	2.259	2.024	2.412	2.909	2.287	2.101	1.985	2.390	2.643	1.883	2.008	1.814	1.662	1.924	3.046	3.563	4.103	3.207	1.748	1.344	2.183	2.002	1.167	1.078	1.388	1.764	1.521	1.681	1.563	1.227	2.028	2.106	1.169	1.633	1.427	1.396	1.268	1.267	1.594	1.134	2.124	1.619
240.0	92.71	74.92	104.0	428.2	 1405	901.8	102.2	32.77	21.16	24.05	15.04	17.24	17.96	11.36	9.539	10.36	7.575	5.905	4.264	7.014	6.173	3.017	5.010	4.384	1.878	3.535	3.583	3.564	2.665	3.268	3.729	2.588	1.719	2.612	1.757	2.121	2.451	2.146	2.347	2.180	1.870	1.231	2.157	1.903	1.465	1.593	1.846	1.110	1.660	1.697	2.099	4.549	4.493	4.139	2.227	1.874	1.864	1.857	1.485	1.589	1.473	2.063	1.801	2.316	1.073	1.244	1.570	1.112	1.413	1.259	1.681	1.598	1.643	1.604	1.797	2.124	1.661
245.0	96.69	94.22	106.6	124.3	757.8	 1812	772.2	57.45	30.82	17.29	18.56	18.60	13.14	15.06	11.53	12.45	6.574	6.077	7.640	6.281	6.261	3.939	5.332	4.012	3.419	4.580	3.499	4.151	3.330	3.420	4.044	3.291	3.113	2.247	2.956	1.721	2.184	2.279	2.026	1.987	2.170	2.318	1.542	1.621	1.912	2.031	1.080	1.370	1.954	1.415	1.316	2.086	3.697	6.001	5.229	3.981	2.648	1.427	1.467	1.744	1.810	1.646	1.849	2.100	1.188	1.152	1.390	1.331	1.869	1.894	1.404	1.656	2.124	1.651	1.885	1.851	1.934
250.0	83.10	73.76	91.04	98.00	211.9	883.4	 1909	 1236	215.9	20.78	20.61	19.06	15.13	16.34	13.42	10.80	6.491	6.946	6.993	6.543	5.740	5.413	3.427	4.246	6.043	3.066	3.081	3.689	4.127	3.100	3.542	3.003	2.526	2.004	2.024	1.937	1.719	1.877	2.502	2.719	2.264	2.052	2.652	1.964	2.220	1.824	1.699	1.509	1.732	1.597	1.283	1.658	1.931	3.020	3.972	5.605	6.669	5.479	4.198	2.550	1.761	1.657	1.409	2.030	1.556	1.648	1.681	1.904	1.689	1.546	1.841	1.469	1.578	1.907	1.677	1.323	1.647
255.0	47.20	52.86	53.68	109.0	123.7	241.4	671.9	 2483	 1639	238.9	20.26	21.72	14.42	15.54	12.84	7.364	8.047	6.409	5.641	6.329	5.774	4.284	5.275	5.015	5.148	3.510	3.664	2.887	3.954	2.515	2.722	3.308	2.474	2.727	2.390	2.536	1.804	1.775	3.334	2.510	2.585	2.757	2.129	1.972	1.650	1.457	2.099	1.674	1.716	1.226	1.390	2.046	1.189	1.607	2.022	2.297	3.812	5.540	8.784	9.326	5.328	2.240	1.282	1.576	1.676	1.536	1.556	1.440	1.750	2.063	1.363	2.095	1.841	1.958	2.195	1.466	1.658
260.0	62.58	43.15	68.33	84.12	131.4	120.4	185.8	 1125	 3331	 1359	114.9	19.94	17.31	13.46	14.02	8.407	7.933	7.526	7.319	5.981	3.573	3.117	5.571	4.392	2.934	3.299	3.539	4.353	4.422	2.974	2.471	3.240	2.824	2.585	1.418	3.062	2.645	2.045	2.036	2.505	1.683	2.432	2.493	1.785	1.949	2.378	1.663	1.536	2.131	1.188	1.753	2.365	1.735	1.490	1.518	1.701	2.637	2.796	4.738	9.341	11.40	8.623	3.121	1.784	1.774	1.711	1.308	1.635	1.901	2.011	1.049	2.018	0.940	2.266	1.591	1.365	1.226
265.0	75.46	59.35	78.43	66.95	103.3	170.4	80.66	294.5	 1716	 3741	 1074	51.94	21.01	11.69	9.312	11.98	5.436	10.12	6.507	5.045	5.637	4.264	4.313	4.253	4.972	3.651	2.609	3.575	3.640	3.781	3.253	3.276	3.453	2.971	1.719	3.174	2.200	2.045	1.971	2.554	1.924	2.128	2.623	2.184	1.866	2.437	1.518	1.696	1.727	1.724	1.718	1.739	1.663	1.627	1.876	1.650	1.795	1.866	2.208	4.321	6.881	11.82	12.78	6.566	2.501	1.576	0.971	1.459	1.481	2.071	1.368	1.432	1.452	1.510	1.282	1.333	2.080
270.0	79.07	93.92	59.07	51.24	76.66	130.6	170.9	130.3	435.3	 1677	 3470	 2415	256.7	17.49	12.89	9.604	7.372	9.602	6.169	6.300	7.898	4.965	4.784	3.903	4.229	3.644	3.827	3.619	4.320	3.443	3.275	2.819	2.750	2.673	2.268	2.587	2.722	2.139	1.750	2.547	1.619	2.192	2.025	1.986	2.438	1.800	1.604	1.524	1.707	1.735	1.331	1.795	1.461	1.552	1.883	1.788	1.701	1.848	2.018	2.103	2.598	4.488	7.654	10.86	13.01	10.57	5.496	2.050	1.682	1.558	1.325	1.461	1.438	1.276	1.377	1.899	1.792
275.0	86.94	88.28	81.32	48.59	53.94	61.03	122.5	235.7	156.5	408.7	 1113	 4277	 3693	231.3	17.53	13.20	7.626	6.195	6.522	7.395	8.972	5.032	4.519	3.511	4.839	4.072	3.677	4.628	4.573	2.913	4.804	3.260	4.209	2.410	2.667	2.099	2.362	2.284	2.107	2.496	2.407	2.223	2.062	2.513	2.079	2.491	1.979	1.626	2.161	1.313	1.678	1.467	1.454	1.823	1.523	1.773	2.226	2.388	2.217	2.374	1.386	1.711	2.961	3.656	5.505	11.13	18.75	15.94	7.109	1.849	2.247	0.904	1.552	1.502	1.259	1.753	1.843
280.0	85.04	69.22	77.80	40.51	43.35	58.14	65.80	242.7	214.9	144.4	303.4	 1664	 5682	 2812	98.99	14.83	13.97	7.499	8.550	8.231	8.515	5.105	5.600	3.272	4.004	4.249	3.424	4.025	3.790	3.812	3.963	3.768	3.048	2.781	2.767	2.317	2.787	2.715	2.977	1.833	2.052	1.765	2.702	2.201	2.139	1.666	1.385	1.951	2.149	1.887	1.718	1.447	2.029	2.277	1.466	1.658	1.798	1.961	2.817	2.454	1.984	1.833	1.774	2.091	2.807	4.108	8.699	16.41	20.89	13.69	4.154	1.607	1.493	1.639	1.160	1.648	1.876
285.0	67.37	75.83	95.63	61.01	58.35	49.72	55.09	149.1	332.0	170.3	134.6	453.2	 2575	 6260	707.3	42.01	10.61	8.792	7.722	7.896	7.528	5.321	5.382	6.202	5.174	3.892	4.675	3.363	3.450	3.315	4.166	3.150	2.692	2.260	2.227	2.726	2.630	2.687	2.133	2.050	1.684	1.522	2.161	1.851	2.614	1.977	1.376	2.305	1.881	1.393	1.660	1.297	2.195	2.149	1.540	1.690	1.425	1.602	1.617	2.867	2.750	2.982	1.699	2.035	1.984	1.984	3.432	6.022	12.85	21.00	20.59	8.362	2.499	1.546	1.314	2.131	1.812
290.0	76.21	94.60	107.1	75.66	59.01	63.24	61.89	96.00	224.7	389.9	277.5	244.8	735.5	 2746	 4693	 2499	175.6	11.96	8.412	6.394	6.419	5.474	5.663	4.869	5.265	3.698	4.370	3.939	3.149	3.639	3.017	2.640	3.031	2.603	3.035	2.549	3.027	2.477	2.455	2.232	1.905	1.903	1.485	1.957	2.222	2.195	1.788	2.018	1.587	1.717	1.505	1.697	2.065	1.559	1.959	1.729	1.874	1.472	2.027	2.350	2.024	3.136	2.592	2.368	1.841	2.221	2.240	2.882	4.579	7.322	12.18	16.08	17.44	13.58	6.380	2.830	1.697
295.0	83.93	115.3	113.0	86.37	84.40	92.80	105.8	150.5	216.1	340.2	641.4	419.1	408.3	793.5	 1511	 5228	 3546	194.8	10.72	7.063	5.795	6.490	6.737	4.255	5.312	3.428	2.802	4.172	2.283	4.186	2.717	2.433	3.954	3.052	3.558	2.442	3.228	1.890	2.393	2.015	1.745	2.091	1.809	2.078	2.022	1.829	1.864	1.539	1.945	1.491	1.466	1.729	1.998	1.721	1.933	2.378	2.532	2.260	2.124	1.907	2.474	2.651	2.603	2.744	3.089	3.315	2.330	2.790	2.895	3.708	4.325	5.106	7.147	14.94	24.12	18.92	7.532
300.0	119.0	114.7	132.6	129.0	104.4	111.1	160.7	226.0	286.2	365.7	682.0	779.2	465.9	425.3	487.8	 2081	 6362	 2630	97.01	8.608	7.117	5.923	5.470	5.172	4.772	4.206	4.909	4.065	4.375	4.936	4.381	3.152	3.837	2.676	3.008	1.424	2.229	1.782	1.981	1.983	1.789	1.910	2.614	2.161	2.142	1.415	2.083	1.465	1.875	1.414	1.384	2.119	2.246	2.305	2.412	2.073	2.967	2.394	2.641	1.843	2.553	2.152	3.113	2.569	3.275	4.027	2.843	3.160	2.675	2.725	2.642	2.420	3.483	5.118	11.13	22.25	25.79
305.0	142.7	120.9	141.9	157.5	123.8	161.7	202.4	269.6	346.5	431.4	631.0	969.0	744.4	413.0	289.8	576.1	 3063	 6456	441.7	33.80	7.335	6.322	5.618	4.006	5.010	3.527	4.038	5.568	4.338	4.899	3.401	3.719	3.302	2.936	3.966	1.989	2.018	2.316	1.076	1.894	2.284	1.927	1.908	2.076	1.959	1.354	1.473	1.582	2.536	1.859	1.711	1.781	1.593	2.165	2.283	2.288	2.933	2.539	2.150	2.739	3.050	2.807	3.022	2.658	3.542	3.373	4.145	3.779	3.312	3.274	2.434	1.927	2.431	2.548	3.927	7.367	16.62
310.0	98.42	117.4	135.8	161.0	157.6	188.5	245.7	328.5	424.8	526.7	659.1	818.3	946.6	658.6	315.7	257.7	790.2	 2884	 4729	 1696	129.3	8.732	6.549	6.412	5.768	5.310	4.565	4.822	3.981	4.123	3.882	3.638	3.496	3.114	3.069	2.569	2.724	2.221	1.988	2.489	1.707	2.053	1.389	1.965	2.004	2.346	1.981	2.116	2.232	2.062	1.691	1.859	1.950	1.900	2.149	2.147	2.472	2.513	2.348	3.352	2.950	3.426	3.453	3.156	3.634	3.291	4.119	4.002	4.641	3.901	3.033	2.493	2.405	2.445	2.721	2.794	5.789
315.0	86.82	127.5	182.9	173.2	184.5	197.1	309.2	386.6	477.9	581.6	690.5	753.5	779.0	871.7	501.9	218.3	263.8	704.7	 1544	 5131	 2588	160.4	8.424	7.203	4.977	4.339	4.359	5.021	4.249	3.413	2.006	3.607	2.392	2.378	2.233	2.235	2.598	2.168	1.872	2.102	2.215	2.383	1.798	2.144	1.807	3.104	1.721	2.022	1.932	1.838	1.912	2.026	1.819	2.299	1.942	2.531	2.090	2.360	2.690	3.006	3.275	2.910	3.028	2.710	2.785	3.678	4.167	3.428	3.989	4.132	4.168	3.006	2.845	2.144	2.052	1.679	3.110
320.0	92.42	156.2	187.6	200.5	246.0	259.5	336.3	393.3	519.3	617.8	702.8	723.1	714.8	750.6	710.0	286.4	168.9	230.5	403.2	 2151	 5783	 2044	81.33	7.097	5.400	4.716	5.723	4.595	4.369	3.302	3.339	2.689	2.906	2.413	4.262	3.555	2.341	2.354	1.760	2.821	2.336	1.892	3.103	2.365	2.577	2.726	2.420	1.872	1.779	1.925	2.051	2.076	2.303	2.349	1.896	2.557	2.529	3.270	2.820	2.659	2.730	4.123	3.552	3.942	3.291	3.915	3.867	3.261	4.113	3.673	4.029	3.696	2.649	2.666	2.040	1.630	2.553
325.0	97.04	139.8	219.5	278.0	318.0	352.5	403.2	504.8	569.2	655.1	698.2	712.0	716.2	631.5	690.3	495.0	194.2	146.7	159.3	547.5	 2994	 5687	 1463	26.06	8.694	5.189	4.250	4.595	4.405	3.607	4.339	3.675	3.886	2.885	3.416	2.707	3.278	2.556	2.111	2.137	2.991	1.988	2.804	2.650	1.908	1.957	2.071	1.860	1.816	2.125	1.550	1.854	2.667	2.594	2.295	2.927	2.941	3.049	3.035	2.887	2.751	3.492	3.416	3.218	3.265	4.009	3.763	3.065	3.844	2.863	3.466	3.260	3.801	3.580	2.504	1.495	2.474
330.0	126.7	201.7	299.5	425.4	577.0	649.6	692.5	765.5	728.3	751.8	762.4	705.6	689.5	595.5	559.8	558.1	408.2	198.3	136.7	189.8	760.3	 2696	 4449	 2151	107.3	7.724	6.243	5.069	5.143	3.765	5.780	3.813	3.522	3.314	2.978	2.518	3.127	2.424	2.024	2.538	2.929	2.636	2.217	2.407	1.863	1.849	1.638	2.684	2.181	2.016	2.482	2.937	3.095	2.983	3.041	3.462	3.496	4.292	4.296	3.821	3.631	3.370	3.363	3.282	3.528	3.810	3.035	3.324	3.317	2.521	2.771	3.108	2.837	2.715	3.284	3.068	3.199
335.0	145.9	284.8	444.4	693.9	945.8	 1145	 1181	 1191	994.1	956.8	839.4	719.5	677.8	618.3	526.7	445.3	528.8	407.7	189.8	147.3	245.0	659.6	 1517	 4886	 2049	137.5	7.246	4.677	5.475	4.261	4.995	4.661	3.177	3.965	3.234	3.927	2.359	2.522	2.229	2.357	2.466	1.669	2.118	2.602	2.041	1.877	1.642	2.722	2.537	2.741	3.385	3.773	4.458	4.231	4.269	4.963	4.494	5.722	5.181	4.874	4.233	4.488	4.343	3.855	3.880	3.772	3.588	3.673	3.663	3.771	3.124	3.217	2.681	2.865	3.082	3.078	3.516
340.0	185.4	310.9	562.6	920.3	 1260	 1578	 1644	 1532	 1289	 1131	916.9	743.3	677.4	621.1	543.6	452.1	469.8	563.6	312.8	172.5	161.0	221.5	403.1	 2126	 5321	 1699	77.90	7.445	6.063	4.843	4.723	4.196	2.788	4.179	2.586	3.791	2.294	2.429	2.551	2.701	2.383	2.472	2.281	2.192	2.188	2.688	1.974	2.629	2.557	2.766	3.387	4.912	5.572	5.245	6.445	6.534	5.975	6.517	5.062	5.416	4.769	4.596	4.628	4.920	3.550	3.442	3.876	3.322	2.966	4.166	3.197	2.193	2.636	3.967	2.680	2.553	3.446
345.0	151.7	388.4	678.1	 1137	 1604	 1877	 2022	 1845	 1535	 1327	994.5	759.2	690.5	645.2	583.0	492.9	434.3	514.0	478.3	245.2	175.6	149.7	164.4	558.6	 2897	 5193	 1280	28.66	7.556	5.297	4.762	3.384	3.639	3.499	3.086	2.405	1.926	2.518	2.404	3.410	2.295	2.069	2.840	2.713	2.453	2.338	1.743	3.068	3.012	3.401	4.700	5.076	5.938	6.892	6.943	6.977	7.783	7.165	6.286	6.387	5.395	5.558	5.256	4.786	3.448	3.847	3.203	3.429	2.994	3.821	3.974	3.302	2.472	3.466	2.835	2.974	2.805
350.0	200.3	437.1	816.8	 1399	 1970	 2372	 2523	 2224	 1850	 1541	 1085	790.0	694.0	681.2	611.3	538.9	477.9	461.4	514.3	450.3	274.2	187.6	156.8	213.3	756.4	 2561	 4085	 1936	100.1	7.892	5.676	5.036	4.355	2.849	3.498	2.581	2.798	2.347	2.498	3.209	2.396	2.473	2.608	2.377	2.219	2.065	2.595	3.123	3.371	3.647	5.037	6.789	7.073	8.680	8.232	8.891	8.773	8.865	7.663	7.062	6.016	6.090	5.799	5.079	4.020	3.859	3.332	2.977	3.647	3.860	3.142	3.277	3.065	4.008	2.859	2.934	3.026
355.0	190.7	466.1	903.9	 1545	 2172	 2693	 2896	 2491	 2109	 1732	 1182	798.5	719.5	717.4	664.1	595.5	559.3	510.0	468.3	519.5	475.2	278.2	203.1	182.9	271.6	644.3	 1472	 4378	 1787	125.9	7.521	5.629	4.587	3.893	3.975	3.149	2.487	2.228	2.424	1.875	2.548	2.417	2.592	1.471	2.301	2.415	2.587	3.426	4.010	4.305	5.380	7.439	8.044	9.225	8.706	10.23	9.220	9.724	8.477	8.117	6.481	6.495	5.807	5.168	4.407	3.921	4.135	3.926	3.770	3.914	3.601	3.310	3.462	3.232	4.107	3.219	3.051
360.0	242.7	464.2	 1025	 1680	 2366	 2898	 3014	 2673	 2190	 1772	 1226	822.8	750.1	722.7	696.5	643.4	594.0	553.8	507.1	491.2	561.6	378.0	269.3	209.4	189.7	242.2	401.4	 1971	 4645	 1526	72.10	6.038	6.231	3.252	4.050	3.578	2.635	2.300	2.125	1.481	2.309	2.166	1.295	2.508	2.383	3.198	2.936	3.966	3.587	4.294	5.696	7.662	8.820	8.523	9.773	10.55	9.717	10.07	8.492	8.328	7.113	7.292	6.050	4.294	3.857	4.104	4.307	3.927	4.040	3.421	3.442	3.426	4.089	3.156	3.363	3.514	3.113
365.0	237.2	486.4	970.1	 1710	 2366	 2945	 3038	 2731	 2223	 1793	 1255	845.0	750.7	742.6	733.0	684.4	615.9	593.1	557.7	508.8	534.2	544.0	343.9	266.5	212.4	185.2	182.8	527.7	 2545	 4718	 1157	26.86	7.290	3.972	3.429	3.601	3.330	2.581	2.626	3.256	3.368	2.723	2.168	2.597	2.784	2.510	2.741	3.811	4.181	4.261	5.548	7.936	8.694	8.492	10.22	10.11	10.40	9.453	8.634	7.942	7.707	7.990	6.450	5.468	3.911	3.526	3.781	3.656	4.318	3.170	3.786	3.883	4.233	3.769	4.028	3.468	4.184
370.0	266.9	510.8	 1007	 1691	 2354	 2915	 3049	 2709	 2198	 1804	 1270	874.9	786.7	766.2	760.0	718.8	681.9	667.5	624.5	571.5	539.9	562.9	526.1	379.1	274.3	223.2	173.3	212.0	675.8	 2342	 3804	 1780	83.09	6.453	4.421	3.598	3.811	3.396	2.913	2.891	2.301	2.470	2.076	2.146	2.318	2.833	3.167	3.835	4.095	4.474	5.558	7.536	8.420	9.646	9.568	10.36	10.90	9.918	8.402	7.798	6.717	7.177	6.442	5.419	4.451	4.277	3.821	4.015	4.258	3.659	3.710	3.100	4.051	3.720	3.898	3.425	4.035
375.0	243.7	468.5	958.9	 1659	 2198	 2720	 2978	 2562	 2145	 1788	 1243	895.8	817.7	799.6	779.8	764.2	737.5	708.1	696.0	640.2	606.9	566.5	576.9	552.1	381.6	291.1	232.0	191.6	250.6	593.6	 1390	 4076	 1496	102.5	6.089	4.552	3.329	4.242	2.909	2.233	3.044	2.374	2.464	2.467	1.626	2.864	3.207	4.215	3.860	4.385	5.473	7.008	7.839	8.799	8.678	9.842	10.51	9.791	8.496	7.778	6.467	7.061	6.495	5.334	4.579	4.131	3.829	3.587	3.924	3.913	3.592	3.520	4.024	3.479	3.758	4.032	4.355
380.0	222.4	475.8	960.8	 1515	 2130	 2586	 2736	 2460	 2042	 1708	 1279	927.0	842.6	841.5	813.9	788.3	775.8	755.1	727.7	697.9	662.9	612.3	577.5	614.5	517.9	363.6	283.0	222.2	190.0	227.0	381.3	 1856	 4182	 1258	54.46	5.519	4.033	4.420	3.523	2.990	2.697	2.800	2.523	2.489	1.897	2.408	2.407	3.609	3.835	4.039	4.921	6.386	7.370	8.208	8.271	10.16	9.333	8.306	7.717	7.799	6.556	6.431	5.959	5.924	4.808	3.891	3.195	3.898	3.810	3.374	2.883	3.846	4.380	4.265	3.736	4.467	3.730
385.0	226.0	431.2	870.4	 1464	 2051	 2414	 2516	 2329	 1909	 1669	 1222	920.0	860.4	845.3	830.4	802.1	790.1	791.3	764.4	723.1	701.9	649.9	598.9	596.0	620.5	464.1	342.2	263.8	211.1	169.3	168.4	496.6	 2341	 3992	903.5	18.14	5.721	4.095	4.092	2.888	1.961	1.906	2.611	2.483	2.065	2.713	2.105	3.363	3.811	3.429	5.081	6.054	7.565	8.241	7.989	8.477	9.430	7.327	8.408	7.700	6.916	6.014	6.037	5.586	4.652	4.531	4.103	3.832	3.811	3.333	3.863	3.984	3.471	3.922	3.853	4.354	4.116
390.0	211.4	404.8	811.8	 1306	 1803	 2178	 2311	 2132	 1816	 1539	 1192	932.9	862.6	858.3	845.6	826.4	819.8	809.5	798.0	770.0	747.8	704.4	659.9	625.2	617.4	590.5	459.0	331.9	270.4	202.8	159.8	196.0	618.0	 1975	 3050	 1337	62.96	5.480	4.148	2.686	2.331	2.316	2.806	3.009	2.700	3.248	2.332	3.490	3.677	3.824	4.836	6.103	6.348	7.894	7.292	8.072	8.962	7.858	7.561	7.506	6.421	6.160	5.424	5.060	4.496	4.662	3.793	3.855	4.326	4.102	3.954	4.301	3.557	4.074	4.161	4.660	4.297
395.0	220.1	413.2	713.9	 1178	 1550	 1893	 2033	 1885	 1613	 1409	 1128	927.0	880.9	860.2	855.0	841.9	831.5	829.3	833.1	821.8	789.4	754.6	712.6	666.8	632.8	616.3	587.9	434.7	339.7	259.9	204.1	160.9	221.4	495.4	 1130	 3167	 1164	75.83	5.723	2.688	2.415	1.903	2.637	2.914	2.332	2.671	2.177	2.611	3.170	3.367	4.002	5.420	5.744	7.020	6.153	7.430	7.369	7.662	6.500	6.133	6.430	5.923	4.846	6.018	4.816	4.391	3.799	4.288	4.186	4.540	4.155	4.070	3.645	4.212	4.212	4.644	4.028
400.0	173.1	390.6	639.7	 1045	 1437	 1699	 1847	 1770	 1510	 1370	 1135	942.2	891.3	869.7	877.7	850.4	822.6	835.8	854.2	826.5	808.5	763.4	742.1	712.2	659.7	622.9	627.9	536.7	395.2	312.4	241.4	182.7	150.7	179.4	305.7	 1456	 3190	968.4	40.03	4.278	4.046	2.371	2.541	2.610	2.491	2.105	2.313	2.953	3.579	2.987	4.323	5.808	5.397	6.510	6.503	7.112	6.670	6.580	6.472	5.134	5.863	6.012	5.203	4.834	4.335	4.527	4.071	3.796	3.078	4.299	3.842	4.100	4.274	3.971	3.473	3.990	4.188
405.0	174.8	310.2	572.4	931.4	 1336	 1599	 1687	 1586	 1392	 1290	 1104	941.0	908.5	885.5	880.5	874.9	851.7	852.8	855.2	839.3	809.0	789.4	757.1	730.6	682.5	647.9	605.4	608.0	472.0	356.7	280.3	213.6	158.4	127.1	126.9	385.0	 1788	 2950	684.2	13.31	5.198	3.091	3.003	2.463	1.747	1.980	2.177	3.213	3.314	3.049	3.452	5.180	5.301	5.896	5.892	6.649	6.075	6.041	5.841	5.389	5.824	5.723	5.269	4.389	4.233	4.899	3.742	3.845	3.466	3.704	4.459	4.244	4.695	3.877	3.962	4.723	4.131
410.0	145.4	315.6	556.6	857.2	 1183	 1403	 1488	 1432	 1328	 1221	 1062	937.6	910.0	888.6	870.2	845.6	825.2	842.5	846.1	835.7	817.3	804.2	779.2	746.5	715.4	680.1	622.7	593.0	567.0	450.0	337.9	264.0	193.9	147.3	110.0	141.3	467.6	 1498	 2277	614.2	51.20	4.588	3.853	2.314	2.555	2.321	2.206	2.782	3.171	2.771	3.458	4.223	4.919	5.836	5.189	6.116	5.937	6.074	5.664	4.943	5.195	5.070	5.279	4.510	3.885	4.117	3.581	4.135	3.635	4.165	4.134	3.688	4.398	4.102	3.489	4.781	4.528
415.0	176.8	268.7	479.3	829.9	 1009	 1199	 1321	 1292	 1226	 1148	 1042	941.4	909.6	876.2	850.4	819.5	796.2	817.1	814.7	820.2	803.8	792.7	779.9	761.7	733.8	700.8	642.6	590.2	565.6	531.4	416.6	309.0	234.1	178.6	134.9	104.9	155.9	370.0	838.2	 2179	968.2	62.72	5.133	3.149	2.505	3.159	2.351	3.273	2.539	3.252	3.353	4.269	4.509	4.751	5.234	4.581	5.463	5.447	5.677	4.956	5.146	4.557	4.462	4.367	3.954	4.178	3.448	4.220	3.805	3.920	4.391	3.194	3.780	3.296	4.146	4.549	4.802
420.0	156.9	276.4	456.0	698.7	918.8	 1104	 1197	 1212	 1128	 1105	 1020	921.0	886.3	863.3	841.8	813.5	787.0	795.5	795.0	796.6	786.1	792.7	777.9	750.4	733.7	694.9	658.2	591.3	568.5	543.0	484.1	348.2	266.1	203.2	153.0	113.4	97.21	126.9	221.6	 1020	 2306	789.7	26.11	3.989	3.335	2.971	2.447	3.269	2.794	3.039	2.752	4.268	4.009	4.262	4.698	4.948	5.375	5.017	5.450	4.871	4.366	4.941	4.987	4.145	3.960	4.124	4.075	3.884	4.317	3.926	4.722	3.704	4.141	3.748	3.671	4.446	3.650
425.0	146.4	224.7	431.5	676.0	902.8	 1001	 1129	 1123	 1084	 1044	983.7	902.2	880.0	853.9	826.1	800.5	770.2	775.8	774.1	781.8	766.9	767.1	768.0	749.3	726.5	695.0	660.1	601.8	565.4	521.0	506.1	401.6	292.0	223.6	166.5	124.5	94.61	81.85	87.16	271.2	 1292	 2189	135.3	9.672	3.509	3.548	2.916	3.046	2.257	2.490	2.876	3.391	5.044	4.111	4.445	4.708	4.505	4.995	4.731	4.852	4.194	4.718	3.951	4.313	4.322	4.340	3.721	3.565	3.813	3.782	4.354	3.957	3.751	3.305	4.025	4.184	3.604
430.0	160.5	220.1	408.5	629.7	809.2	935.1	 1017	 1039	 1041	 1010	974.7	897.6	849.0	847.2	809.5	772.9	744.6	750.4	745.2	754.1	752.3	751.1	749.6	734.1	713.7	688.7	664.2	614.2	579.5	526.8	491.4	444.5	351.5	256.6	194.8	146.6	113.6	87.50	69.04	94.81	335.4	 1116	 1571	538.0	43.45	4.332	3.389	2.982	2.461	2.740	2.608	3.543	3.532	3.978	4.222	4.226	4.972	4.727	4.377	4.843	4.307	4.607	4.225	3.928	4.085	4.443	3.560	3.690	3.499	3.309	3.708	3.806	4.234	3.745	4.279	3.752	4.134
435.0	181.1	257.1	378.8	552.4	730.2	849.6	916.6	973.5	978.2	976.9	903.2	871.7	826.9	817.0	776.9	748.5	729.5	720.3	721.8	726.6	725.3	721.5	724.9	717.6	695.6	679.5	661.0	623.7	577.3	541.0	486.1	440.5	403.9	308.6	222.2	173.3	133.3	102.0	75.76	66.68	107.3	274.7	631.3	 1782	840.5	49.80	4.432	3.561	2.485	2.876	2.691	3.585	3.534	4.136	4.139	3.742	4.135	3.960	4.135	4.765	4.482	4.273	4.346	4.507	3.404	3.881	3.732	3.851	3.748	3.665	3.717	3.352	3.979	3.885	4.125	3.982	3.874
440.0	171.8	240.8	387.0	528.1	682.8	798.6	864.0	924.7	928.4	950.1	919.7	854.2	849.1	808.9	751.3	728.4	708.5	698.4	699.2	698.9	704.8	701.5	709.1	701.7	685.4	667.3	643.3	615.7	582.1	537.6	496.1	437.0	398.6	350.2	254.6	193.5	148.9	117.7	88.05	67.20	63.48	90.21	167.7	892.6	 1939	631.8	18.62	4.149	3.396	2.742	2.552	3.079	3.244	3.761	3.274	3.597	5.221	3.900	4.284	4.267	4.448	3.622	3.386	4.246	3.719	3.605	3.780	3.892	4.011	3.826	3.702	3.951	3.291	4.140	4.221	4.475	3.672
445.0	161.6	269.8	356.6	471.1	672.9	743.4	793.6	915.3	921.2	918.0	905.6	862.7	816.0	797.2	733.1	694.2	682.9	671.9	679.4	670.6	682.3	681.9	674.8	675.4	673.0	648.6	629.6	601.5	578.5	539.6	489.8	438.7	390.2	358.1	285.1	212.1	165.6	129.4	98.28	76.56	61.53	52.66	63.49	236.7	 1173	 1852	106.6	7.613	3.530	2.760	2.679	3.609	3.612	3.606	3.499	3.891	4.634	3.996	4.090	3.694	4.673	3.463	3.686	3.759	3.840	3.340	4.689	3.338	3.859	3.668	4.333	3.878	3.616	4.438	3.928	3.905	4.382
450.0	137.1	314.3	362.7	468.2	599.2	699.5	761.6	849.2	870.0	873.5	861.5	847.0	783.3	752.6	709.8	670.4	657.2	633.8	632.9	636.2	634.1	631.6	634.6	629.1	626.9	622.4	602.8	580.4	557.0	527.6	478.7	437.3	384.4	339.0	306.7	242.2	182.0	144.9	112.7	87.93	69.55	55.27	46.09	77.46	307.2	 1039	 1460	442.4	30.89	3.305	3.514	3.687	3.568	3.525	3.476	3.764	3.774	3.776	3.698	3.752	4.693	3.509	3.934	3.617	3.471	3.524	3.828	3.540	3.664	3.320	3.739	3.891	4.240	3.830	3.372	3.440	3.629
455.0	135.1	240.5	559.2	498.6	546.4	641.1	664.5	756.1	792.2	839.5	804.4	797.7	756.7	706.3	665.3	643.7	602.3	602.3	584.2	590.9	581.7	582.4	589.1	584.1	584.8	580.7	554.9	545.3	529.2	502.1	467.0	423.0	377.5	324.2	291.0	269.2	207.6	156.7	126.8	99.58	79.19	62.75	49.56	46.81	93.00	250.4	620.8	 1624	623.9	29.36	3.920	3.985	3.755	2.864	3.210	3.851	3.514	3.723	3.198	3.885	3.445	3.911	3.953	3.904	4.146	3.852	4.080	3.070	3.080	3.939	4.154	3.429	3.863	3.424	3.329	3.222	3.679
460.0	139.0	178.6	591.3	561.0	500.3	599.1	638.3	724.2	760.8	794.6	770.9	762.2	719.6	666.8	624.7	583.0	562.6	556.9	555.5	563.0	545.7	552.1	556.1	560.3	550.3	541.3	541.9	522.6	500.8	483.5	450.2	407.5	369.3	308.5	274.2	265.2	226.8	171.9	136.2	104.5	86.49	67.34	54.77	44.08	46.81	76.40	160.1	879.5	 1620	410.2	11.81	4.326	3.748	3.048	3.458	3.519	3.891	4.487	3.261	3.515	2.933	3.139	3.519	3.780	4.038	3.847	3.443	3.060	2.599	3.320	3.749	3.967	3.729	3.805	3.148	3.395	4.135
465.0	139.9	170.0	449.4	748.3	471.2	582.9	595.7	679.1	691.7	731.5	743.2	726.7	682.0	636.5	610.6	565.0	535.9	532.3	523.2	520.8	525.1	500.1	514.7	521.7	511.7	503.4	501.6	491.4	476.0	459.8	433.2	397.8	352.1	307.4	270.2	240.7	225.2	185.9	139.2	112.3	88.76	72.21	57.59	46.90	37.98	39.35	52.32	233.4	 1095	 1373	84.04	5.171	4.162	3.357	3.054	3.522	3.861	3.766	4.382	2.661	3.646	3.442	4.112	4.130	3.793	3.650	3.294	3.176	2.728	3.256	3.544	3.463	3.959	2.679	2.764	2.971	3.445
470.0	109.9	180.0	307.7	845.2	669.1	509.2	557.8	619.1	658.1	659.5	702.5	672.9	635.6	587.8	565.6	521.3	499.4	478.2	472.4	458.1	466.3	463.2	463.5	463.3	464.4	459.4	458.3	444.0	443.2	427.4	406.2	373.4	334.7	292.7	256.4	225.2	205.1	190.2	152.1	115.5	94.69	76.42	62.07	51.36	40.50	33.66	30.95	68.72	287.7	857.9	858.8	360.6	21.16	4.118	3.329	3.899	3.386	3.468	3.836	3.594	3.292	3.605	3.809	3.710	3.891	3.279	3.710	3.487	3.250	3.513	3.714	3.947	3.492	2.733	3.157	3.477	3.177
475.0	95.50	156.7	213.7	563.6	977.0	542.5	509.0	551.5	588.5	645.0	621.9	596.4	577.2	538.4	494.4	468.1	453.2	437.5	422.6	419.9	419.8	418.2	416.8	407.2	414.5	416.7	406.3	403.3	398.9	380.6	372.6	343.1	306.2	274.8	240.2	213.9	187.7	170.4	160.2	126.4	97.09	80.44	64.65	53.92	45.05	36.83	30.32	34.06	77.65	203.5	442.6	 1091	431.9	16.36	3.662	3.671	3.477	3.293	3.499	2.975	3.722	3.608	3.624	4.515	3.122	3.366	2.958	3.431	2.824	3.202	3.467	2.994	2.782	2.838	2.687	3.184	2.616
480.0	118.2	136.1	256.8	355.7	 1046	701.2	473.8	524.1	559.1	609.4	611.2	575.6	546.5	504.0	470.8	438.6	425.4	393.6	384.4	390.2	397.2	383.6	393.2	380.8	381.5	384.2	382.6	380.9	364.1	358.3	350.0	329.8	293.8	265.3	231.2	205.5	183.4	157.1	155.8	134.6	101.0	82.26	68.85	57.27	45.80	38.54	30.54	27.51	32.50	58.18	115.9	642.5	 1078	100.8	7.105	4.045	3.398	3.718	3.440	3.225	3.010	3.096	3.499	3.433	3.217	3.252	3.452	3.146	3.349	2.916	3.230	2.799	3.017	2.648	2.131	2.759	3.024
485.0	106.0	147.5	222.6	297.1	757.9	 1055	443.7	486.6	520.1	558.5	565.7	540.1	510.5	500.3	447.4	421.7	402.9	375.7	373.1	366.1	382.5	353.7	365.8	357.4	363.2	364.5	355.2	353.9	344.1	345.2	333.2	309.6	278.7	254.4	222.4	196.9	178.4	154.0	138.1	133.4	108.2	86.12	69.73	58.99	48.95	40.30	33.25	27.72	25.73	26.61	36.93	178.1	784.0	802.1	75.47	4.916	2.855	3.621	3.858	3.082	2.907	3.315	3.219	3.205	3.776	3.122	3.761	3.140	3.120	3.028	3.049	2.989	3.907	3.720	2.732	2.666	2.649
490.0	106.4	144.2	203.9	251.9	435.0	 1100	736.1	453.1	479.6	503.1	527.7	518.9	504.8	465.6	422.8	389.5	365.4	345.5	343.5	341.0	337.7	321.1	325.7	323.9	326.7	332.5	324.6	320.2	317.2	317.3	303.0	289.7	260.1	239.6	209.8	189.0	171.1	145.7	133.0	124.1	113.8	93.65	73.56	61.04	51.48	44.10	36.31	29.44	25.38	21.69	20.98	49.88	211.7	604.0	781.1	303.7	18.35	3.651	3.546	3.337	2.826	3.151	2.976	2.808	3.212	3.217	3.484	3.242	3.030	3.028	3.072	2.962	2.842	3.049	2.744	2.583	2.914
495.0	132.6	143.9	181.5	234.2	310.5	700.4	 1205	501.3	421.3	456.7	485.3	485.7	465.8	411.6	378.0	349.5	333.9	309.8	306.4	300.7	296.3	290.1	294.5	290.8	291.0	299.7	285.8	293.4	292.6	287.7	280.4	268.6	241.3	220.9	199.1	175.0	163.6	139.3	125.8	115.1	104.2	100.2	78.85	60.84	55.01	45.93	38.54	32.54	27.07	22.20	17.64	22.14	55.72	144.3	423.8	978.0	381.9	13.15	3.710	3.729	2.795	3.177	3.140	2.900	2.584	3.258	2.787	2.698	2.806	3.387	3.283	3.386	2.848	2.283	2.649	2.722	2.549
500.0	104.4	144.8	178.5	253.6	267.8	421.4	 1238	739.2	403.8	438.6	461.9	456.5	428.6	406.1	359.0	334.0	307.3	289.6	287.5	281.7	276.7	267.6	265.6	268.6	267.9	266.7	264.9	261.7	269.5	266.9	260.2	246.4	220.6	205.8	185.3	166.5	153.4	132.7	118.5	107.3	96.46	93.43	85.26	64.10	55.85	46.71	40.45	33.42	27.71	22.71	18.29	17.09	21.50	40.02	111.2	608.9	912.5	97.49	6.160	3.475	3.283	2.631	2.555	2.759	2.294	3.327	3.696	3.097	2.668	3.331	2.871	2.780	2.438	2.478	2.507	2.816	2.553
505.0	113.8	119.2	128.2	235.8	240.9	322.6	882.1	 1179	405.6	411.2	424.0	424.3	400.8	366.2	338.5	315.8	284.0	269.8	265.2	258.4	252.4	254.3	247.8	241.9	245.0	243.4	244.9	238.8	240.7	241.9	237.3	228.0	203.9	191.0	173.7	157.1	142.4	126.3	115.2	103.2	90.92	85.73	83.40	67.31	57.37	44.34	40.09	34.63	28.39	22.48	19.04	16.09	15.33	17.39	32.62	168.4	736.5	781.8	78.09	4.323	3.731	2.785	3.059	2.398	2.380	2.928	2.057	2.956	2.537	3.116	3.142	2.811	2.379	2.652	2.375	2.403	3.314
510.0	103.3	117.6	145.5	201.7	241.9	272.8	450.8	 1254	722.7	366.0	376.8	379.1	354.9	331.9	307.9	281.2	254.5	242.7	235.9	231.8	227.5	222.3	214.2	210.5	212.6	213.9	217.3	217.2	218.8	216.2	209.9	200.7	185.8	172.2	157.6	144.1	131.4	116.1	106.4	94.32	84.74	77.10	74.38	69.13	56.71	44.46	39.85	34.64	29.28	24.01	20.61	16.65	14.64	13.27	15.24	44.15	200.6	572.3	694.2	237.8	13.42	3.225	3.196	2.776	2.141	2.225	2.613	2.257	2.278	2.242	3.144	2.745	2.520	2.448	2.414	2.344	2.542
515.0	99.25	88.11	133.4	170.6	213.5	231.3	289.6	719.9	 1283	408.8	346.7	322.4	317.2	301.6	274.9	241.8	228.3	210.5	205.8	205.9	198.3	192.8	189.4	185.0	187.6	184.3	184.7	188.6	192.9	185.5	179.2	173.7	165.9	151.8	138.8	128.8	115.9	104.5	97.13	85.22	78.31	68.82	61.14	62.80	59.46	46.02	38.09	35.04	29.96	24.93	19.90	17.06	14.98	13.12	12.37	17.56	51.00	134.9	355.8	783.3	104.2	9.259	2.840	2.343	2.682	2.098	3.199	2.446	2.507	2.326	2.969	2.205	2.766	3.045	2.117	2.667	2.853
520.0	129.4	89.94	146.3	149.5	212.3	240.6	233.1	396.2	 1348	690.2	318.4	295.3	291.2	277.3	248.4	216.0	199.2	193.7	189.0	186.3	182.4	168.4	171.2	169.8	166.5	168.1	170.2	172.9	171.9	171.0	168.7	160.2	147.3	137.0	120.8	116.0	106.7	97.85	91.51	81.12	70.85	63.85	58.16	54.36	55.45	50.00	38.61	31.81	29.48	23.47	20.73	17.41	14.95	13.04	11.93	11.31	17.76	36.63	92.03	490.0	684.7	87.93	4.793	2.210	3.139	2.538	2.191	2.897	2.564	2.945	2.185	3.217	2.563	2.462	2.944	2.482	2.175
525.0	99.56	91.15	126.2	149.1	200.9	220.5	198.7	269.6	915.4	 1117	309.4	271.3	254.8	245.1	221.1	206.4	187.9	173.0	171.3	173.3	165.5	156.1	153.8	162.2	157.6	154.7	154.8	152.1	153.1	153.2	155.4	146.5	136.5	125.0	113.5	106.5	99.02	90.09	80.59	74.41	68.31	60.53	53.30	48.48	50.15	49.69	39.81	31.04	27.31	22.85	20.98	18.16	14.43	12.69	11.59	10.17	11.88	14.64	26.13	135.3	539.2	569.3	63.75	2.853	2.875	2.712	1.628	2.441	2.574	2.545	1.844	2.744	2.632	2.958	2.192	2.131	2.774
530.0	84.40	79.88	115.7	134.2	173.1	223.7	188.4	224.2	417.9	 1221	645.6	252.5	234.6	223.0	200.6	185.4	167.4	153.5	152.0	154.1	142.5	140.9	136.7	138.5	138.6	135.2	130.7	134.0	135.3	135.5	132.3	130.8	119.6	111.9	105.3	94.11	89.73	79.15	72.77	66.46	62.58	55.38	49.01	44.61	42.78	43.97	43.31	33.32	26.39	21.96	19.40	17.04	14.89	13.03	11.17	10.50	9.673	9.362	11.53	35.44	146.3	403.8	474.6	162.4	10.48	2.325	2.270	2.421	2.136	2.033	1.981	2.930	2.256	2.378	1.709	2.612	2.402
535.0	73.54	88.26	97.09	138.3	125.9	179.7	197.0	196.5	256.6	641.7	 1235	288.6	212.0	201.4	169.7	157.9	148.6	137.3	139.1	125.5	125.2	122.7	115.5	118.6	117.5	116.8	117.6	115.6	115.9	114.6	118.6	110.1	105.2	95.17	88.56	82.87	76.38	72.07	64.58	60.36	55.19	48.74	44.10	39.94	37.86	37.23	36.90	32.80	27.51	20.22	18.67	15.43	14.02	12.70	11.66	10.09	8.845	8.443	8.018	12.80	36.93	94.18	244.2	527.2	98.43	6.398	2.196	2.493	1.731	2.093	1.854	2.326	2.204	1.816	2.279	1.820	1.758
540.0	72.77	92.23	78.05	129.6	125.3	186.9	182.8	179.7	195.3	317.3	 1287	571.5	194.3	175.6	165.0	144.2	132.9	121.9	118.5	113.6	109.7	111.5	102.1	105.2	105.8	103.8	104.5	103.6	104.9	102.6	102.1	95.10	92.28	84.47	82.06	74.62	65.19	64.47	59.34	54.04	49.49	45.88	41.09	37.67	36.65	31.43	33.03	32.12	26.76	20.35	17.95	14.74	13.28	12.89	11.50	10.64	8.833	7.604	6.364	8.274	13.05	24.40	63.19	328.6	468.5	77.56	4.147	2.366	1.841	1.876	2.229	1.874	2.180	1.993	1.889	2.241	2.195
545.0	78.57	96.60	110.1	92.57	125.1	169.7	173.8	166.3	171.6	212.5	833.7	 1042	175.8	162.6	150.9	129.2	120.0	114.3	109.1	103.2	99.51	97.47	95.17	97.64	93.42	93.13	90.57	90.18	92.75	91.19	92.25	86.57	81.57	74.30	72.72	67.41	60.71	57.62	51.42	48.04	44.26	40.12	38.12	34.81	32.52	28.74	28.48	28.91	27.17	21.48	16.87	13.36	12.76	11.82	10.99	9.737	9.498	7.423	6.470	7.027	7.482	10.14	16.95	91.43	372.9	388.9	48.82	2.414	1.896	2.323	2.085	1.877	1.825	1.912	2.091	1.731	2.125
550.0	88.97	105.0	104.3	84.57	113.6	119.1	150.5	153.3	143.2	160.9	343.3	 1122	512.1	140.3	130.8	114.6	105.7	96.14	91.80	88.49	83.55	79.99	79.61	80.95	81.47	78.10	78.61	76.54	76.78	75.34	77.35	73.49	70.29	64.51	60.24	57.96	53.12	48.95	45.70	41.81	38.38	35.13	33.01	29.87	26.82	24.66	24.30	22.82	24.47	21.27	17.42	12.83	11.43	10.96	9.410	8.969	8.614	7.712	6.339	6.183	5.422	5.880	6.948	23.02	99.86	269.2	316.6	63.68	5.792	2.112	1.926	2.318	1.961	2.090	1.518	1.942	2.131
555.0	62.62	77.89	83.48	94.82	93.68	114.3	107.0	145.3	123.1	134.3	182.2	531.4	 1093	169.7	103.6	90.35	87.82	83.33	74.68	69.60	66.79	66.85	66.65	66.68	66.16	65.72	61.76	62.56	64.11	63.52	61.69	63.04	57.42	53.58	49.06	46.15	45.22	40.97	37.84	34.14	32.72	28.42	28.67	24.76	23.95	21.93	19.61	18.28	17.78	19.57	16.82	12.50	9.929	9.752	8.673	7.833	8.364	7.471	6.057	5.744	4.431	4.420	4.556	8.553	24.24	63.39	157.0	327.2	87.74	4.396	1.882	2.281	2.524	2.018	2.003	2.218	1.758
560.0	65.03	94.58	70.19	86.00	79.02	114.1	104.1	138.7	125.5	114.4	134.3	217.0	 1113	430.9	90.28	80.19	74.39	70.05	62.07	61.21	60.84	61.58	59.91	60.20	55.97	54.84	55.07	51.71	54.12	52.64	51.26	50.51	49.92	47.13	43.73	40.57	37.36	34.81	32.55	31.59	26.97	25.24	23.85	22.39	21.24	18.05	18.20	16.09	14.52	15.46	15.24	12.27	9.604	8.587	7.180	6.949	6.971	6.270	6.098	4.642	4.870	3.733	4.068	5.259	7.711	16.79	39.83	193.5	302.3	62.52	3.251	2.306	1.906	1.590	2.614	2.094	2.072
565.0	96.54	92.01	76.56	85.14	88.11	92.27	88.81	108.9	124.8	108.7	109.3	127.4	667.0	868.4	90.83	69.95	67.53	60.72	55.38	55.92	54.43	50.39	50.07	48.80	44.62	46.15	48.07	46.11	45.65	45.07	43.97	41.67	41.52	38.94	36.13	35.66	32.28	29.08	27.07	26.30	22.93	23.94	19.94	18.64	18.13	15.48	15.61	14.18	13.57	12.40	13.83	12.27	8.660	8.571	6.517	6.630	6.451	5.472	5.372	5.000	4.442	3.678	3.814	4.407	3.953	6.401	11.24	53.10	228.4	234.2	30.42	2.875	1.957	1.945	1.895	1.583	2.236
570.0	80.98	84.38	72.96	71.32	79.05	76.75	80.10	77.35	122.8	98.53	95.33	90.25	243.5	973.4	370.8	63.18	56.97	49.12	46.75	45.42	43.82	40.60	41.71	40.03	38.73	39.50	38.50	38.15	37.43	38.15	36.84	36.85	33.93	31.78	29.32	28.58	25.96	25.19	23.29	21.92	19.89	19.26	17.28	15.99	14.66	14.12	13.29	11.84	11.65	10.72	10.03	10.97	8.982	7.051	6.100	6.397	6.077	4.970	4.450	4.306	4.619	3.799	3.573	3.000	3.136	3.669	5.117	13.85	61.69	156.1	149.9	52.39	3.937	1.892	1.873	1.500	1.404
575.0	71.16	90.38	53.37	82.28	87.75	58.11	64.33	76.01	91.18	115.8	85.46	76.01	110.3	424.0	917.3	101.6	46.89	42.72	41.44	37.84	37.05	37.45	33.81	29.68	33.34	30.56	29.69	32.21	29.72	32.31	31.29	29.76	28.99	25.08	25.02	22.56	23.07	20.30	18.94	18.70	17.27	15.21	14.38	13.85	11.40	12.03	11.29	9.506	9.605	8.609	7.484	9.012	9.215	7.206	5.376	4.891	5.621	4.946	4.402	4.581	3.767	3.477	4.063	3.075	3.389	2.885	3.399	5.235	16.23	36.71	82.70	191.1	64.53	2.794	1.921	1.756	1.704
580.0	86.74	62.43	70.50	70.51	79.66	43.55	76.68	63.23	83.99	115.4	84.77	78.87	77.60	155.0	927.0	325.5	40.26	39.87	33.36	30.52	31.75	29.81	29.38	26.78	29.14	26.80	28.67	26.32	26.75	26.39	25.89	26.88	24.21	23.07	21.48	18.97	18.40	18.10	16.54	15.04	14.36	13.06	11.67	10.63	10.03	10.74	9.775	9.045	7.999	7.554	7.117	6.999	7.870	7.189	5.540	4.919	4.267	4.491	4.010	4.417	3.598	2.815	3.593	3.710	2.972	3.057	2.429	3.268	5.663	9.669	21.70	111.5	169.2	38.36	2.204	1.716	2.601
585.0	103.3	72.28	82.72	85.86	58.85	62.22	55.44	52.72	73.00	104.6	96.30	70.09	68.60	79.68	540.6	667.9	46.11	32.98	29.97	25.57	25.91	25.26	26.07	23.72	23.76	23.64	23.67	22.50	25.20	22.89	23.65	21.67	21.88	19.84	16.79	15.44	16.10	14.95	15.31	14.15	11.68	11.94	10.82	10.11	8.750	9.659	8.194	8.309	7.216	6.411	6.482	5.656	6.184	7.227	5.506	4.365	5.021	4.344	3.478	3.534	3.345	2.615	3.514	2.965	2.756	2.301	1.949	2.720	3.314	3.577	6.056	30.52	125.8	112.3	20.16	1.710	2.213
590.0	84.90	84.80	53.26	77.49	54.31	60.80	54.72	49.48	62.41	87.32	104.3	76.87	65.40	59.17	173.1	738.3	289.8	30.40	24.37	23.24	22.35	21.67	23.13	20.46	20.37	19.95	19.38	19.42	20.35	17.91	18.45	19.10	16.67	16.58	15.27	13.65	13.54	13.09	11.82	12.24	9.930	9.166	9.495	9.003	7.780	8.071	7.094	7.222	5.932	5.441	5.571	4.902	4.853	5.062	5.498	5.071	4.459	3.768	3.048	3.042	3.365	2.438	3.192	2.545	2.602	2.529	2.268	2.330	2.478	2.519	2.745	8.121	34.07	84.24	100.6	35.35	3.265
595.0	93.92	73.67	64.26	71.28	51.83	53.66	54.77	56.36	61.11	71.94	100.3	89.35	59.85	57.01	72.40	295.7	682.9	62.55	19.79	18.11	20.67	17.24	16.94	16.68	16.39	16.96	17.47	15.79	16.68	16.54	14.60	15.88	12.91	14.50	11.48	11.57	10.15	9.933	10.44	9.891	8.696	7.686	8.274	7.359	7.738	6.533	6.427	5.605	4.549	4.753	4.789	4.692	4.342	3.690	4.653	4.677	4.422	4.284	2.769	3.069	2.772	3.166	2.724	2.079	2.828	3.103	1.762	2.308	2.364	1.982	2.343	3.936	9.382	21.04	50.10	110.8	39.17
600.0	84.18	83.64	53.40	76.32	46.80	51.97	44.96	60.83	58.82	60.33	79.27	99.12	59.92	49.99	44.45	97.69	638.9	235.6	17.63	17.65	18.76	16.03	16.00	15.35	14.93	15.27	15.39	14.20	13.18	13.64	12.90	13.16	11.86	12.19	10.56	9.556	9.558	8.807	8.283	8.552	8.289	6.959	7.094	5.992	6.576	5.380	6.078	5.786	4.235	3.973	4.120	4.401	3.929	3.720	3.953	4.080	4.676	3.704	2.860	2.781	2.354	2.308	2.817	2.392	2.642	3.044	1.877	1.989	2.255	2.232	2.227	2.863	3.043	6.315	13.11	61.90	102.7
605.0	91.48	51.07	51.71	66.59	59.75	66.57	56.81	64.72	64.29	62.12	71.71	100.7	63.71	47.14	34.53	43.31	352.2	493.1	28.49	15.51	14.38	15.39	15.14	13.80	12.13	11.28	13.39	12.00	11.15	12.98	11.86	12.39	10.10	11.11	9.734	9.331	8.316	8.347	7.174	7.241	7.220	6.487	6.660	6.045	5.327	5.104	4.707	4.879	4.214	3.991	3.652	4.221	3.166	3.166	3.651	3.816	4.353	3.908	2.464	2.647	2.358	2.537	2.602	2.277	2.245	2.402	2.192	2.284	2.049	1.967	2.123	2.199	1.948	2.892	4.611	17.65	73.60
610.0	66.30	53.87	85.00	58.52	50.90	54.60	59.51	57.84	55.71	61.58	75.88	84.88	76.67	47.63	35.32	30.77	108.6	513.8	218.8	14.49	14.46	12.54	13.94	12.17	11.70	9.643	10.61	11.81	9.679	9.879	9.211	9.486	9.354	7.881	7.614	7.969	6.883	7.059	6.357	6.271	6.112	5.916	5.200	5.247	4.865	4.606	4.673	3.829	3.760	3.603	3.317	3.001	2.972	3.003	3.058	3.077	3.335	3.518	2.697	2.244	2.323	2.169	2.182	2.127	2.071	1.969	1.790	1.865	2.125	1.986	1.882	1.701	1.683	2.206	2.756	5.724	20.41
615.0	77.20	68.65	99.22	59.26	66.82	65.66	43.75	52.43	56.01	66.75	61.44	64.54	88.39	50.85	34.40	27.63	40.82	200.5	511.0	45.31	10.72	12.64	10.55	9.530	9.754	8.749	9.504	8.803	7.590	8.111	9.612	8.532	7.883	7.004	7.460	5.838	6.917	6.713	5.761	5.435	5.828	5.119	4.814	4.330	4.286	4.493	3.639	3.623	3.649	3.098	3.164	2.937	3.150	2.266	2.760	2.797	3.007	3.607	3.216	2.503	2.371	1.919	2.159	2.423	1.747	1.835	2.120	2.066	1.615	1.867	2.080	1.950	1.846	1.905	2.413	2.992	6.368
620.0	80.53	62.43	73.23	59.52	52.31	41.10	48.06	56.61	58.39	62.42	55.74	62.26	87.60	58.44	33.17	25.30	25.56	61.33	476.3	191.3	9.931	10.74	9.619	7.616	8.199	6.964	8.986	7.592	7.271	7.670	8.759	8.211	7.795	6.001	6.195	5.932	6.179	5.291	4.766	4.922	3.933	4.187	2.999	3.620	3.583	3.285	2.725	3.297	3.543	2.354	2.668	2.193	3.043	2.321	2.441	2.153	2.125	2.935	3.415	3.050	2.894	2.081	2.842	2.155	1.924	2.052	1.324	1.714	1.910	1.915	1.900	2.104	1.953	2.042	2.294	2.324	2.528
625.0	69.46	75.08	59.84	60.39	51.25	38.51	48.06	53.80	57.37	59.85	63.94	54.69	72.31	64.53	30.85	21.67	16.99	24.50	264.1	397.3	18.16	10.32	8.976	5.502	6.690	6.964	8.118	6.441	7.398	6.610	6.132	6.443	7.133	5.689	6.245	5.499	5.683	4.561	4.906	4.365	4.074	4.319	2.785	3.473	2.871	3.134	3.129	3.562	2.591	2.066	2.308	2.180	2.144	2.722	2.606	1.964	2.248	2.208	2.494	2.405	3.148	2.450	2.851	2.056	1.696	2.048	1.788	1.930	2.147	1.894	1.665	1.394	1.562	1.733	1.948	2.141	1.385
630.0	69.30	82.69	56.21	53.57	53.19	51.59	42.89	42.90	54.32	48.44	54.76	53.96	58.07	65.17	39.10	22.40	18.77	15.68	76.00	412.7	169.4	8.846	7.920	5.548	7.085	6.974	7.524	6.678	6.619	6.064	5.218	5.583	6.140	4.521	6.006	5.061	4.876	4.255	3.954	3.780	3.563	3.713	3.014	2.957	2.954	2.772	2.765	2.992	2.627	1.760	2.120	1.806	2.646	2.553	2.207	2.340	1.917	1.889	2.003	2.277	2.606	2.320	2.082	2.022	1.561	1.996	2.169	1.862	2.123	1.807	2.217	1.708	1.627	1.634	2.028	2.042	1.496
635.0	101.1	69.06	58.37	26.99	63.05	55.23	45.26	46.76	59.65	48.60	64.86	49.76	48.48	50.95	45.81	23.76	16.29	11.25	23.80	160.1	413.6	35.73	7.943	7.399	7.121	6.682	5.552	6.029	4.514	7.250	4.278	4.745	4.597	4.035	4.639	4.054	3.891	3.664	2.967	3.891	3.240	2.059	3.110	2.648	2.658	2.724	2.929	2.752	2.493	2.157	2.416	2.054	1.686	2.069	2.238	2.149	2.046	2.193	1.782	1.966	2.263	2.004	2.102	2.036	1.773	1.300	1.892	1.775	1.683	1.529	2.183	2.407	1.651	1.769	1.865	1.607	2.090
640.0	118.8	56.81	67.89	33.95	71.72	54.06	60.25	36.24	51.24	44.99	54.04	53.06	45.07	47.86	48.90	27.34	15.66	12.42	13.43	46.21	392.3	152.1	7.846	7.245	6.656	4.931	4.583	5.909	5.639	5.084	4.544	4.735	4.060	4.021	4.313	3.267	3.601	3.569	3.343	3.315	2.445	3.096	3.669	2.854	3.310	2.912	2.636	2.860	2.116	1.521	1.878	2.234	1.752	1.196	2.370	2.285	2.573	2.134	1.850	1.758	1.513	1.928	1.713	1.654	1.481	1.716	1.391	2.283	1.260	2.031	1.493	2.015	2.054	2.409	1.566	2.341	1.103
645.0	136.0	75.40	81.41	56.73	56.38	55.86	47.76	38.74	52.73	43.50	52.64	51.01	45.30	39.55	45.13	27.41	17.32	13.23	12.05	18.40	215.0	317.4	13.21	6.052	5.284	4.727	5.268	4.808	5.453	5.110	4.335	2.933	5.078	3.416	4.222	3.240	2.828	3.918	3.597	3.497	2.544	2.045	2.663	2.996	2.609	2.566	2.513	2.835	1.735	1.459	1.640	1.942	1.423	1.677	1.861	2.161	2.094	2.128	1.744	2.141	1.611	1.703	2.118	1.373	1.559	1.571	1.742	1.952	1.212	1.455	2.045	1.599	1.836	2.529	1.540	1.845	1.503
650.0	92.94	76.68	80.15	57.88	70.43	55.80	58.76	42.83	45.83	48.52	56.62	47.16	38.71	36.69	39.77	34.49	17.86	12.84	10.33	11.00	71.67	381.7	67.39	6.081	5.755	5.877	4.781	2.866	4.503	4.748	4.948	3.642	3.700	3.817	4.211	2.783	3.166	3.041	3.758	2.413	2.609	2.407	2.585	2.262	2.506	2.452	2.405	2.277	1.870	1.598	1.962	1.494	1.597	1.735	1.380	1.443	2.034	1.756	2.038	1.725	1.546	1.695	1.359	1.685	1.668	1.495	1.771	1.442	1.296	1.463	1.971	1.847	1.808	2.338	1.311	1.834	1.806
