Sample:	'1
File name:	t2025042111Œ‘¿«πµ»Î50√◊¥Ûπµ.FD3
Run date:	'11:35:59, 04/22/2025
Operator:	Administrator
Comment:	'

Instrument
Model:	F-2700 FL Spectrophotometer
Serial number:	23B8-004
ROM Version:	4J14000 07

Instrument parameters
Measurement type:	3-D scan
Data mode:	Fluorescence
EX  Start WL:	220.0 nm
EX  End WL:	600.0 nm
EX Sampling interval:	5.0 nm
EM  Start WL:	230.0 nm
EM  End WL:	650.0 nm
EM Sampling interval:	5.0 nm
Scan speed:	12000 nm/min
EX Slit:	5.0 nm
EM Slit:	5.0 nm
PMT Voltage:	700 V
Response:	Auto 
Corrected spectra:	Off
Contour interval:	50.000

Peak integration
Integration method:	Rectangular
Sensitivity:	1
Threshold:	1.000

Peaks
No.	ApexEX/EM(nm)	Height(Data)
1	225.0/335.0	6237
2	225.0/595.0	252.1
3	225.0/605.0	246.5
4	225.0/645.0	211.6
5	255.0/560.0	157.8
6	260.0/575.0	157.3
7	265.0/585.0	188.4
8	270.0/600.0	224.0
9	275.0/335.0	4814
10	275.0/610.0	237.0
11	455.0/340.0	18.88
12	560.0/335.0	22.77

Data points
	220.0	225.0	230.0	235.0	240.0	245.0	250.0	255.0	260.0	265.0	270.0	275.0	280.0	285.0	290.0	295.0	300.0	305.0	310.0	315.0	320.0	325.0	330.0	335.0	340.0	345.0	350.0	355.0	360.0	365.0	370.0	375.0	380.0	385.0	390.0	395.0	400.0	405.0	410.0	415.0	420.0	425.0	430.0	435.0	440.0	445.0	450.0	455.0	460.0	465.0	470.0	475.0	480.0	485.0	490.0	495.0	500.0	505.0	510.0	515.0	520.0	525.0	530.0	535.0	540.0	545.0	550.0	555.0	560.0	565.0	570.0	575.0	580.0	585.0	590.0	595.0	600.0
230.0	73.55	3157	9999.9	6369	293.8	24.17	17.78	15.18	13.55	13.12	14.24	13.60	13.19	11.80	10.46	9.445	8.654	8.086	7.729	7.386	6.945	6.100	5.955	5.472	5.255	4.943	4.661	4.434	4.044	4.095	3.953	3.889	3.772	3.587	3.019	2.891	2.623	2.355	2.284	2.091	2.056	1.958	1.937	1.898	1.731	1.671	3.112	16.98	42.29	43.48	19.65	5.304	1.513	1.130	1.081	1.006	1.036	0.950	0.857	0.770	0.788	0.712	0.700	0.649	0.661	0.622	0.561	0.527	0.488	0.478	0.442	0.389	0.396	0.351	0.363	0.362	0.354
235.0	135.4	820.3	5801	9999.9	4846	373.5	28.88	22.78	16.95	16.19	15.02	16.51	13.59	12.22	12.04	10.10	9.255	8.450	7.921	7.381	6.926	6.168	6.309	5.905	5.783	5.293	4.852	4.715	4.423	4.159	3.879	3.728	3.812	3.621	3.180	3.125	2.584	2.351	2.228	2.132	2.023	1.953	1.946	2.125	1.912	1.613	1.950	5.203	13.19	28.22	48.90	69.21	24.24	11.98	1.695	1.191	1.124	0.897	0.943	0.890	0.816	0.877	0.687	0.668	0.619	0.555	0.577	0.479	0.519	0.514	0.453	0.422	0.412	0.418	0.393	0.345	0.376
240.0	154.9	301.6	1578	9625	9999.9	4017	264.0	30.96	22.95	19.74	19.00	17.13	15.82	13.56	12.24	10.96	9.942	9.785	8.361	7.962	7.377	6.850	6.723	5.750	6.039	5.369	4.881	4.798	4.643	4.293	4.115	3.971	3.694	3.612	3.346	3.107	2.642	2.531	2.358	2.430	1.943	2.065	1.819	1.826	1.961	1.845	1.835	2.547	4.163	7.972	20.07	60.22	98.78	91.31	22.76	8.597	1.506	1.058	1.100	0.921	0.863	0.860	0.782	0.731	0.770	0.578	0.618	0.525	0.569	0.532	0.518	0.528	0.453	0.379	0.356	0.435	0.391
245.0	121.3	220.6	457.5	2908	9999.9	9999.9	3179	164.5	34.72	25.68	22.37	19.18	18.08	14.98	12.51	11.61	10.64	10.17	9.269	8.466	7.394	6.739	6.456	6.193	6.039	5.534	5.329	5.027	4.991	4.844	4.159	3.995	3.685	3.637	3.581	3.186	3.006	2.577	2.553	2.266	2.129	2.122	1.809	1.818	1.797	1.884	1.992	2.166	2.212	2.873	5.688	17.14	49.32	105.2	136.2	97.69	20.05	4.704	1.180	1.048	0.977	1.020	0.861	0.795	0.804	0.593	0.692	0.568	0.551	0.525	0.560	0.490	0.467	0.418	0.375	0.477	0.352
250.0	95.25	144.8	268.8	770.3	3269	9999.9	9999.9	9999.9	889.3	48.14	33.84	27.37	22.22	18.99	15.31	13.79	12.11	11.36	10.12	8.772	8.008	7.269	6.944	6.557	6.270	5.813	5.891	5.615	5.231	4.973	4.630	4.116	3.893	3.455	3.512	3.114	2.821	2.734	2.574	2.470	2.254	2.164	2.088	2.071	1.884	1.855	1.842	1.939	1.971	2.108	2.561	4.982	12.25	29.02	61.41	104.0	148.9	123.6	98.94	14.23	5.152	1.133	1.035	0.915	0.832	0.699	0.706	0.686	0.645	0.555	0.572	0.473	0.486	0.472	0.462	0.462	0.407
255.0	94.63	98.77	160.4	384.7	859.9	2454	9999.9	9999.9	9999.9	253.5	57.50	43.84	31.36	26.07	19.81	17.36	14.11	12.91	11.40	9.869	9.000	7.998	7.171	6.953	6.611	6.109	6.433	6.056	5.997	5.553	4.874	4.616	4.298	3.816	3.529	3.126	2.918	2.863	2.756	2.748	2.552	2.159	2.260	2.185	2.003	2.079	1.744	1.756	1.827	1.706	2.180	2.810	4.001	7.592	14.83	24.72	41.57	91.39	219.6	234.1	168.5	21.64	4.537	1.322	1.128	0.981	0.948	0.797	0.768	0.688	0.702	0.636	0.589	0.599	0.534	0.519	0.610
260.0	107.3	92.30	109.1	222.6	425.6	657.9	2856	9999.9	9999.9	9999.9	203.5	64.46	44.01	33.47	25.34	19.68	17.08	14.24	12.39	10.99	9.712	9.305	8.376	7.711	7.457	6.540	6.192	6.191	6.274	5.431	5.301	4.747	4.686	3.971	3.696	3.333	3.037	2.995	2.911	2.632	2.532	2.325	2.309	2.174	2.105	2.077	2.052	1.848	1.740	1.546	1.805	2.308	2.854	3.398	4.544	6.800	10.49	22.98	72.64	175.3	328.0	235.3	31.36	17.50	2.166	1.266	1.064	0.987	0.991	0.832	0.758	0.626	0.638	0.666	0.662	0.675	0.611
265.0	132.7	103.0	93.79	130.3	310.3	371.3	747.8	3845	9999.9	9999.9	9999.9	157.9	63.71	44.22	31.82	23.57	19.83	16.26	13.74	12.33	11.05	9.826	9.088	8.325	8.015	7.276	7.058	6.511	6.440	5.801	5.641	5.058	5.160	4.326	3.982	3.446	3.456	3.268	2.895	2.852	2.616	2.498	2.489	2.295	2.188	2.093	2.172	1.806	1.777	1.675	1.654	1.717	2.288	2.762	3.053	2.959	3.663	6.562	17.82	45.21	129.1	271.7	407.4	226.0	27.20	11.06	1.673	1.291	1.102	1.083	0.941	0.786	0.821	0.698	0.769	0.683	0.650
270.0	278.7	223.9	169.7	123.1	174.1	327.3	435.9	1019	4447	9999.9	9999.9	9999.9	645.9	77.80	50.23	34.54	27.28	21.47	18.03	14.77	12.75	11.64	10.42	9.342	8.636	7.834	7.778	7.480	7.142	6.415	6.338	5.779	5.514	4.967	4.577	4.098	3.752	3.418	3.207	3.158	3.187	3.063	2.816	2.769	2.591	2.650	2.510	2.267	2.097	1.838	1.735	1.703	1.856	1.990	2.604	2.913	3.120	3.418	5.554	11.61	30.64	70.10	154.7	258.2	363.0	358.2	265.7	18.06	8.439	1.767	1.424	1.216	1.050	1.031	0.864	0.848	0.869
275.0	617.3	559.5	391.1	210.4	157.6	206.1	440.1	557.9	1229	2717	9999.9	9999.9	9999.9	808.5	85.83	53.86	39.40	29.12	23.82	19.23	15.65	13.92	12.48	11.32	9.894	9.098	8.723	7.870	7.687	7.348	6.619	6.528	5.996	6.004	5.547	5.294	4.600	4.267	3.892	3.523	3.561	3.585	3.532	3.640	3.460	3.209	3.232	3.034	2.693	2.293	2.169	2.045	1.927	1.905	2.009	2.175	3.050	3.580	4.272	4.621	8.627	17.29	36.48	59.89	91.95	174.3	436.0	633.9	245.0	28.19	9.756	1.902	1.535	1.344	1.216	1.269	1.157
280.0	996.1	964.4	665.0	340.9	208.1	213.8	345.9	642.6	712.6	993.4	3370	9999.9	9999.9	9067	137.5	80.43	52.49	37.53	29.02	23.23	19.32	15.66	13.93	12.00	11.13	9.927	9.492	9.016	8.526	8.041	7.746	7.070	6.571	6.488	6.289	5.685	5.537	5.124	4.307	4.078	4.192	4.230	4.145	4.190	4.444	4.279	4.153	4.099	3.318	3.087	2.481	2.392	2.122	2.111	2.155	2.210	2.765	3.100	4.192	4.731	4.911	6.238	10.61	15.94	23.39	43.09	124.2	328.2	601.9	694.7	218.5	22.65	4.247	1.964	1.675	1.510	1.415
285.0	1490	1432	1036	536.2	292.9	280.5	341.7	611.4	902.2	835.8	1430	4834	9999.9	9999.9	6666	117.8	74.86	51.33	37.50	28.43	22.37	19.23	16.51	13.52	12.14	10.91	10.48	9.841	9.172	8.714	7.990	7.710	7.254	6.888	6.842	6.773	6.617	5.733	5.176	4.768	4.782	4.579	4.619	4.928	5.431	5.375	5.326	5.143	4.355	3.848	2.956	2.756	2.822	2.594	2.377	2.404	2.985	2.953	3.605	4.754	5.649	5.463	5.919	6.797	8.973	13.64	31.94	80.86	197.7	477.6	746.6	686.2	33.23	17.45	3.007	2.142	1.817
290.0	2207	2164	1621	872.1	468.0	409.8	469.4	658.5	1060	1407	1556	2285	5648	9999.9	9999.9	9999.9	389.1	81.69	55.86	40.54	30.00	23.91	20.01	16.73	15.48	13.46	12.26	11.18	10.41	9.800	8.852	8.388	7.681	7.768	7.962	7.671	8.015	7.221	6.416	5.722	5.666	5.667	5.820	6.180	6.582	6.973	6.916	7.065	6.138	5.057	3.821	3.737	3.543	3.148	3.128	3.192	3.469	3.767	3.947	4.496	5.352	6.628	7.413	8.060	8.363	9.513	13.24	24.40	50.05	117.1	236.6	426.2	547.0	489.3	440.2	122.0	12.91
295.0	2793	2868	2249	1255	682.5	566.5	662.8	864.7	1241	1834	2406	2374	2783	3438	9999.9	9999.9	9999.9	497.1	85.86	61.20	42.37	32.72	25.56	20.89	19.43	16.50	14.09	13.01	12.12	10.89	9.957	9.457	8.577	8.640	8.934	8.987	9.209	8.619	7.687	6.700	6.551	6.679	6.548	7.282	7.708	8.594	8.555	8.980	7.718	6.601	5.052	4.613	4.257	3.717	3.909	3.918	4.355	4.648	4.688	5.559	6.358	7.582	8.633	10.49	12.14	12.23	12.17	14.46	19.71	33.50	59.28	100.4	131.3	186.9	515.0	913.3	825.3
300.0	3193	3341	2693	1541	883.7	744.6	861.9	1099	1505	2099	2952	3039	2606	2069	3669	9999.9	9999.9	9999.9	332.4	80.81	57.87	41.18	31.95	26.16	22.04	19.08	16.54	14.73	13.93	11.98	11.14	9.906	9.399	9.281	9.597	9.626	9.743	9.118	8.372	7.422	7.442	7.540	7.730	8.174	8.643	9.560	9.417	10.10	9.243	7.653	5.892	5.466	4.730	4.340	4.559	4.795	5.418	5.270	6.025	6.603	7.187	8.288	9.418	11.15	13.30	14.70	15.56	14.75	14.90	17.09	21.81	29.44	34.92	46.97	133.7	373.0	817.1
305.0	3406	3623	3004	1750	1060	917.0	1040	1316	1798	2403	3222	3702	3049	2087	1729	4961	9999.9	9999.9	4383	185.8	75.50	53.18	39.59	31.10	25.32	21.61	18.67	17.35	15.32	13.11	12.03	11.21	9.985	10.09	10.53	10.08	10.26	9.775	8.788	8.146	8.093	7.921	8.134	8.721	9.207	10.16	9.969	11.00	10.29	8.469	6.345	6.261	5.529	4.964	5.246	5.349	5.923	6.071	6.665	7.699	8.605	9.554	10.85	12.83	14.09	15.97	17.21	17.71	16.77	15.41	14.89	15.09	14.45	16.40	34.43	89.19	228.4
310.0	3603	3841	3275	1980	1218	1083	1229	1552	2073	2732	3473	3934	3714	2608	1607	1792	5880	9999.9	9999.9	9999.9	293.5	83.09	56.93	42.32	32.24	26.30	22.64	19.92	17.52	15.01	13.57	12.24	10.83	10.93	11.08	10.72	10.70	10.25	9.438	8.529	8.630	8.686	8.902	8.959	9.898	10.87	10.67	11.70	10.99	9.131	7.187	6.973	6.574	5.780	5.935	6.104	6.813	7.371	7.794	9.065	9.755	11.05	12.19	14.12	15.57	16.83	18.00	18.75	18.79	17.79	16.16	13.97	11.82	10.89	13.53	24.93	55.26
315.0	3855	4211	3503	2175	1385	1252	1392	1769	2322	3013	3781	4162	4024	3297	1991	1268	1803	2868	9999.9	9999.9	9999.9	348.6	87.69	59.69	43.56	33.98	27.36	23.96	20.52	17.76	15.12	13.86	12.10	12.00	11.37	10.95	10.62	10.90	9.645	9.256	9.107	9.385	9.821	9.509	10.56	12.30	12.09	12.64	11.65	9.838	8.115	7.448	7.123	6.459	6.727	7.108	7.306	8.313	8.924	9.865	11.20	12.53	13.55	15.15	17.05	17.78	19.31	19.40	19.56	19.15	19.14	16.84	13.70	12.07	10.23	11.25	16.81
320.0	4252	4784	3968	2353	1494	1343	1528	1909	2492	3203	4031	4423	4265	3629	2497	1344	981.2	1017	3561	9999.9	9999.9	3976	244.5	80.26	57.91	41.53	32.92	27.28	24.18	20.56	17.05	14.93	13.16	12.12	11.81	11.37	11.21	10.90	10.38	9.704	9.535	10.03	10.21	10.15	11.48	13.78	13.29	14.39	13.11	10.43	8.731	7.986	7.747	6.802	7.117	7.506	8.104	8.976	9.455	10.35	11.75	13.27	14.83	16.66	17.72	18.59	19.30	20.38	20.58	20.42	19.49	17.77	16.73	13.71	11.12	8.954	9.664
325.0	4721	5303	4457	2707	1636	1415	1626	2031	2616	3352	4166	4592	4474	3782	2794	1609	885.3	641.8	1082	5791	9999.9	9999.9	3330	142.4	76.47	53.40	40.76	31.80	27.62	22.74	19.11	16.66	14.87	13.09	12.28	11.95	11.70	11.52	10.56	10.43	10.08	10.44	10.91	11.41	12.82	14.14	14.83	15.96	14.35	12.16	9.538	8.762	8.404	7.342	7.652	7.617	8.486	9.337	9.899	10.86	12.45	13.95	15.62	17.15	18.49	20.00	20.66	21.60	21.74	21.51	19.82	18.41	17.36	15.87	13.36	10.49	8.420
330.0	4949	5837	5071	3293	2007	1605	1715	2133	2746	3467	4290	4748	4666	4001	2906	1888	1086	644.9	575.6	1580	7205	9999.9	9999.9	9999.9	240.5	80.19	54.41	43.08	34.72	27.28	22.70	19.63	16.54	14.51	13.34	12.78	12.40	12.04	11.19	10.62	10.49	10.54	11.55	12.11	13.58	15.52	15.96	16.88	16.00	13.62	10.77	10.86	9.807	8.727	8.424	8.111	9.250	9.827	10.27	11.28	12.66	14.31	16.07	17.44	18.74	20.15	21.32	22.20	22.27	21.85	20.30	19.43	17.74	16.00	13.89	11.69	10.03
335.0	5291	6237	5535	3762	2424	1813	1814	2218	2828	3522	4361	4814	4760	4172	3053	1949	1314	812.4	537.8	670.9	1884	2946	9999.9	9999.9	9999.9	289.9	80.59	58.61	45.64	33.87	27.88	22.95	19.40	16.66	14.93	13.44	13.08	12.23	11.65	11.50	11.16	11.34	12.18	13.00	14.29	16.51	17.11	18.39	16.90	14.79	11.99	12.26	11.53	9.843	9.374	8.964	9.477	10.39	11.10	11.72	12.83	14.93	16.55	17.50	19.20	20.35	21.47	22.14	22.77	22.52	21.99	20.32	18.92	16.88	13.85	11.73	10.82
340.0	5282	6180	5628	3909	2596	1931	1872	2217	2812	3507	4305	4729	4706	4150	3083	1960	1301	964.4	601.9	504.3	721.5	930.2	4074	9999.9	9999.9	9999.9	204.6	78.09	57.03	41.70	31.73	26.09	21.49	19.11	16.14	14.08	12.94	12.58	12.14	11.64	11.15	11.62	13.12	13.41	14.65	16.35	16.98	18.88	17.24	15.37	12.64	13.06	12.19	10.39	9.463	9.084	9.478	10.72	11.28	11.83	13.33	14.61	16.21	17.60	19.36	20.44	21.36	21.65	22.46	22.04	21.42	20.75	18.93	16.91	14.53	11.84	10.24
345.0	5022	5899	5450	3971	2693	1992	1895	2222	2776	3407	4152	4557	4518	4011	3031	1940	1250	981.2	714.6	509.9	490.8	497.5	1161	7252	9999.9	9999.9	2883	124.0	71.00	50.00	37.40	30.20	23.47	19.94	17.11	14.92	13.72	13.04	11.91	11.71	10.97	11.76	12.54	12.79	14.08	15.94	16.48	18.24	17.33	14.86	12.76	13.49	12.04	10.64	9.752	9.222	9.819	10.56	11.25	11.67	12.84	14.27	15.57	16.97	18.38	19.73	20.23	21.01	21.35	21.24	21.13	20.40	18.62	16.99	14.91	11.89	10.34
350.0	4699	5471	5045	3854	2729	2069	1922	2183	2669	3232	3856	4200	4194	3747	2869	1890	1246	931.2	805.7	647.7	499.1	434.3	518.0	1843	8404	9999.9	9999.9	9999.9	217.1	71.55	49.53	37.32	28.11	23.26	18.65	16.38	14.91	13.73	12.59	11.62	11.16	11.28	12.03	12.32	13.38	14.75	15.20	16.81	15.97	14.25	12.51	12.96	12.28	10.90	10.01	9.352	10.02	10.28	11.22	11.39	12.60	13.55	14.95	16.22	17.26	17.96	18.75	19.16	20.13	19.49	19.61	18.43	17.12	15.82	13.59	11.31	10.27
355.0	4186	4806	4529	3601	2641	2106	1928	2140	2535	2996	3522	3808	3799	3417	2659	1807	1242	938.4	776.9	737.8	604.4	463.7	406.9	628.1	2044	2982	9999.9	9999.9	9999.9	263.7	73.16	50.78	35.80	27.99	22.00	17.62	16.00	14.51	13.45	12.04	11.85	11.21	11.82	12.23	12.79	14.44	14.15	15.45	14.98	13.02	11.87	12.64	11.94	11.10	9.848	9.048	9.947	10.14	10.64	11.22	11.95	13.24	14.15	15.34	16.33	16.67	16.80	17.43	19.02	18.32	17.84	17.16	15.78	14.36	12.67	11.25	10.19
360.0	3852	4455	4200	3376	2569	2078	1888	2077	2429	2827	3288	3535	3495	3174	2474	1723	1223	954.2	787.8	724.6	700.5	531.9	407.7	380.7	636.2	821.5	4261	9999.9	9999.9	9999.9	187.1	66.93	45.92	34.21	25.74	20.45	17.78	16.04	13.71	12.94	11.84	11.46	11.81	11.55	12.28	13.67	13.12	14.37	13.88	12.47	11.38	12.25	11.56	10.66	10.03	9.132	9.626	10.06	10.06	11.17	11.65	12.00	13.71	14.12	15.40	15.56	15.82	16.68	17.58	16.90	16.32	16.40	15.21	13.68	11.82	10.83	9.740
365.0	3584	3995	3786	3148	2473	2014	1841	1996	2313	2677	3051	3253	3234	2925	2322	1645	1210	960.7	811.8	723.6	712.1	625.8	448.9	349.0	342.7	345.0	1111	8062	9999.9	9999.9	2720	112.0	58.66	42.78	30.15	23.56	19.75	17.03	14.94	13.43	12.34	12.25	12.01	11.36	11.73	13.10	12.73	13.70	12.90	11.50	11.04	11.98	11.46	10.38	10.33	9.294	9.644	10.01	10.48	11.06	11.53	11.75	12.75	14.01	14.26	14.44	14.70	15.51	15.92	15.47	15.29	14.89	14.59	12.87	11.27	10.45	9.609
370.0	3170	3546	3325	2851	2343	1944	1770	1889	2161	2464	2751	2921	2880	2621	2107	1534	1173	965.8	839.1	751.3	697.2	671.8	563.4	400.2	313.4	261.0	402.2	1966	8800	9999.9	9999.9	9999.9	192.8	62.93	41.36	30.54	23.68	19.58	16.66	14.67	13.49	12.45	12.12	11.59	11.70	12.43	12.21	12.71	12.29	10.91	10.23	11.27	11.14	10.24	9.821	9.218	9.515	9.573	9.848	10.28	10.84	11.39	11.95	12.62	13.11	13.34	13.70	13.89	14.31	14.03	14.16	13.91	13.01	11.99	10.75	10.01	8.940
375.0	2781	3047	2921	2560	2200	1855	1691	1758	1979	2201	2448	2598	2554	2312	1891	1419	1123	961.5	859.0	785.6	717.0	656.5	623.9	510.1	360.1	281.4	268.0	588.6	2098	3112	9999.9	9999.9	9999.9	232.9	61.68	40.20	30.50	23.70	19.44	16.75	14.44	13.40	13.08	11.53	11.52	12.00	11.34	11.94	11.24	10.18	9.511	10.90	10.58	9.601	9.726	8.987	9.133	9.507	9.079	9.783	9.970	10.58	11.45	11.98	11.85	12.13	12.17	12.25	13.04	12.62	12.26	12.52	11.50	11.20	10.13	9.391	8.565
380.0	2497	2767	2609	2328	2059	1781	1636	1648	1850	2042	2249	2353	2314	2106	1740	1336	1086	952.4	866.3	801.6	735.4	667.5	618.1	579.2	434.0	313.9	258.4	296.2	609.1	829.6	4615	9999.9	9999.9	9999.9	161.8	53.05	38.55	28.63	21.99	17.93	15.33	14.08	13.56	11.71	11.53	11.95	11.38	11.63	11.00	9.568	9.195	10.61	10.21	9.768	9.246	8.647	8.601	9.237	8.918	9.335	9.527	10.05	10.78	10.84	10.88	11.48	10.83	11.52	12.07	11.48	11.33	11.12	10.48	10.14	9.511	8.843	8.344
385.0	2305	2507	2364	2182	1942	1687	1549	1571	1729	1869	2058	2140	2094	1932	1607	1260	1054	943.1	864.9	802.2	745.0	683.6	615.7	580.4	505.9	362.5	279.9	252.3	290.8	318.0	1175	7748	9999.9	9999.9	2314	93.84	48.02	34.16	25.68	20.37	17.10	14.66	13.83	12.51	11.94	11.56	10.69	10.93	10.69	9.445	8.669	9.937	9.963	9.640	9.197	8.472	8.562	8.925	8.511	8.908	9.024	9.504	10.08	10.13	10.23	10.74	10.44	10.97	11.18	10.86	10.67	10.98	9.804	9.106	8.816	8.221	7.925
390.0	2052	2216	2118	1966	1807	1601	1462	1448	1567	1682	1830	1897	1866	1717	1465	1176	1003	917.2	853.1	808.1	760.7	708.0	637.5	580.1	535.0	463.6	349.3	283.6	252.1	226.5	396.1	1872	7420	9999.9	9999.9	9273	163.9	48.59	33.95	25.62	20.23	16.92	14.95	13.13	12.31	11.69	10.87	10.81	10.31	9.224	8.382	9.416	9.505	9.242	8.693	8.237	8.614	8.470	8.232	8.421	8.680	8.875	8.909	9.224	9.275	9.828	9.627	9.817	9.977	9.618	9.957	9.826	8.979	8.738	8.281	7.568	7.797
395.0	1819	1924	1912	1805	1652	1499	1382	1359	1436	1527	1634	1685	1655	1532	1317	1091	962.0	890.1	843.6	811.6	771.8	727.1	675.3	613.6	554.7	524.7	460.7	354.0	291.2	246.1	247.5	549.3	1765	2844	9999.9	9999.9	9999.9	208.6	48.77	34.36	25.29	21.04	16.73	14.38	13.08	12.25	11.16	10.66	10.04	9.010	8.265	8.465	9.012	8.653	8.499	8.148	8.469	8.253	8.080	7.967	8.050	8.514	8.283	8.492	8.523	9.146	8.990	8.979	8.704	8.990	8.822	8.648	8.273	8.198	7.403	7.219	7.573
400.0	1691	1797	1791	1648	1590	1437	1333	1294	1349	1407	1498	1543	1519	1406	1230	1033	923.4	867.8	833.0	801.2	777.2	737.7	696.8	644.0	585.8	539.2	524.4	428.2	335.9	278.2	236.0	270.2	509.4	741.8	3673	9999.9	9999.9	9999.9	157.1	41.00	30.52	24.31	18.54	15.48	14.03	13.11	11.46	10.73	9.796	8.815	8.259	8.422	9.200	8.309	8.272	7.784	8.116	8.179	8.122	7.496	7.722	8.054	8.103	8.083	8.158	8.057	8.110	8.253	8.591	8.435	8.382	8.106	8.095	7.903	7.091	7.022	7.347
405.0	1515	1663	1596	1559	1478	1368	1277	1248	1284	1331	1419	1433	1404	1313	1161	992.0	898.3	841.4	815.4	793.6	768.2	742.6	708.1	663.0	611.1	559.3	535.2	498.3	389.3	313.4	254.3	219.8	238.9	268.9	919.3	5253	9999.9	9999.9	2167	106.4	37.50	28.63	21.89	17.04	14.83	13.67	12.04	11.14	9.895	9.103	7.863	8.636	8.846	8.186	8.131	7.774	8.060	8.008	7.864	7.400	7.532	7.660	7.709	7.604	7.598	7.822	7.787	7.953	8.099	7.854	7.500	7.976	7.364	7.337	6.809	6.888	6.787
410.0	1388	1486	1455	1426	1371	1305	1223	1198	1213	1245	1302	1324	1288	1206	1075	929.3	850.6	809.5	784.3	770.9	752.4	734.9	706.8	677.4	632.2	585.1	540.1	517.1	465.1	370.6	290.3	231.6	193.4	170.2	294.7	1260	5467	9999.9	9999.9	9501	158.6	40.84	27.95	21.32	17.21	14.70	12.37	11.54	10.22	8.944	7.983	8.419	8.493	8.001	7.850	7.631	7.884	7.629	7.703	7.602	6.998	7.283	7.237	7.109	7.239	7.170	7.131	7.367	7.429	7.399	6.794	7.146	6.847	7.000	6.695	6.668	6.351
415.0	1236	1316	1293	1294	1274	1236	1174	1148	1153	1166	1213	1214	1171	1102	987.2	860.0	800.6	766.6	747.9	731.1	727.6	712.9	702.6	683.0	649.5	606.9	558.6	520.4	491.6	444.1	333.4	256.6	200.2	159.0	161.8	358.1	1287	2534	9999.9	9999.9	9999.9	216.7	37.31	27.14	21.23	17.23	13.53	12.45	10.13	9.251	8.093	8.367	8.318	8.008	7.674	7.834	7.691	7.833	7.362	7.420	7.059	7.235	6.993	7.143	6.663	6.822	6.680	6.863	6.725	6.584	6.753	6.975	6.496	6.591	6.647	6.109	6.113
420.0	1190	1217	1240	1214	1211	1179	1147	1088	1101	1124	1147	1153	1104	1025	923.0	813.4	755.6	732.1	712.5	702.6	701.9	695.3	691.3	674.0	649.3	615.7	573.9	532.7	491.8	464.3	380.8	283.6	216.4	169.8	136.4	159.0	353.3	631.2	2890	9999.9	9999.9	9999.9	167.6	35.29	25.92	20.27	14.89	13.29	10.82	9.376	8.304	8.911	8.378	7.977	7.710	7.524	7.909	7.733	7.379	7.528	7.240	6.849	6.855	6.938	6.886	6.656	6.262	6.572	6.477	6.444	6.551	6.638	6.254	6.035	6.148	5.628	6.227
425.0	1092	1125	1152	1161	1158	1145	1092	1077	1053	1076	1092	1091	1047	970.5	867.0	773.2	722.9	700.2	688.7	676.7	682.2	676.7	681.5	667.0	647.8	619.5	584.4	543.5	500.0	464.8	415.1	315.7	231.3	178.8	136.6	118.1	147.8	200.6	707.3	3684	9999.9	9999.9	2115	117.0	31.84	23.83	17.24	14.56	11.75	9.798	8.377	9.145	8.659	8.053	7.717	7.714	7.460	7.542	7.514	7.203	7.243	6.796	6.765	6.806	6.396	6.434	6.338	6.098	6.396	6.154	5.934	6.108	6.192	5.996	5.571	5.565	5.889
430.0	1755	1052	1080	1092	1096	1086	1047	1044	1034	1039	1055	1030	980.5	905.8	818.2	733.5	680.4	656.6	647.1	645.1	645.6	650.1	657.8	650.4	637.2	616.6	585.4	550.0	509.3	464.1	416.2	353.0	265.0	197.3	150.3	118.0	107.0	106.4	211.8	877.9	3765	9999.9	9999.9	9002	158.6	32.64	22.97	18.15	13.99	11.00	9.225	9.505	8.870	8.461	8.050	7.875	7.795	7.700	7.755	7.103	7.062	6.912	6.671	6.727	6.457	6.304	6.076	5.841	6.073	5.878	5.673	5.881	5.882	5.862	5.345	5.310	5.489
435.0	3553	1136	1011	1026	1023	1026	1031	1014	1006	1001	1006	982.3	929.1	835.6	760.5	682.3	640.9	619.4	610.2	606.3	606.9	618.2	626.9	627.1	621.9	605.2	580.3	551.8	515.6	471.5	411.8	357.9	304.4	222.1	164.8	128.4	105.7	90.14	102.5	243.7	885.1	2355	9999.9	9999.9	9999.9	228.2	32.24	23.89	17.72	13.39	10.24	10.53	9.556	8.987	8.590	8.009	8.253	7.733	7.807	7.045	7.161	6.753	6.547	6.626	6.376	6.343	5.952	5.883	5.845	5.605	5.592	5.772	5.232	5.337	5.394	5.048	5.037
440.0	4936	1737	949.4	978.1	1002	990.8	994.3	990.5	981.8	964.1	955.8	935.5	885.2	803.4	721.6	650.3	608.7	585.3	574.7	578.2	578.9	589.9	601.0	607.4	599.6	589.3	574.3	548.0	509.6	471.4	412.2	350.2	310.8	248.3	179.7	137.7	110.9	89.85	80.69	103.1	240.9	571.8	2515	9999.9	9999.9	9999.9	174.9	31.13	21.21	15.69	12.23	11.33	10.43	9.388	8.982	8.242	8.475	7.900	8.152	7.842	7.022	6.912	6.625	6.483	6.664	6.319	6.103	5.890	5.675	5.619	5.232	5.740	5.085	4.873	4.892	4.818	4.808
445.0	4867	3570	985.8	937.1	955.8	940.0	953.7	965.8	966.4	938.4	933.3	892.3	838.6	762.7	681.5	616.1	577.7	554.1	545.0	546.8	550.4	555.4	574.0	582.0	576.9	574.0	551.6	533.9	502.3	467.7	412.2	346.5	299.0	260.9	197.3	145.6	117.1	93.05	78.50	72.81	96.81	168.6	608.0	2888	9999.9	9999.9	9999.9	143.9	27.18	18.72	14.35	12.74	11.19	9.787	9.129	8.724	8.626	8.305	7.847	7.451	7.116	6.967	6.303	6.534	6.455	6.152	5.978	5.716	5.226	5.316	5.237	5.153	4.709	4.905	4.893	4.820	4.829
450.0	2746	6098	2138	858.4	890.8	891.6	898.3	914.7	907.2	888.5	876.2	837.8	765.9	698.9	628.3	563.7	527.7	508.1	503.4	498.1	503.9	512.1	528.3	538.2	539.9	537.8	522.2	508.1	483.7	451.9	403.0	341.9	288.3	252.2	212.7	163.8	124.7	99.53	81.92	68.75	65.93	77.42	173.8	686.1	3015	9999.9	9999.9	7984	754.8	34.45	18.30	15.74	13.16	11.03	10.00	9.186	9.164	8.362	8.235	7.435	7.109	6.996	6.683	6.535	6.317	5.941	5.720	5.441	5.485	5.365	4.844	4.829	4.837	4.814	4.708	4.589	4.744
455.0	1204	5515	6110	979.3	791.3	808.2	827.3	838.1	839.8	825.7	805.8	755.8	701.1	634.8	571.5	508.7	475.8	458.6	452.6	449.1	454.4	467.3	481.0	491.3	493.3	491.5	481.4	471.4	450.5	425.9	381.5	330.4	279.4	236.5	205.5	176.7	136.8	105.4	85.43	70.27	60.15	57.28	73.80	186.6	706.7	2302	7910	9999.9	9999.9	189.1	25.31	19.96	15.35	12.42	10.91	9.442	9.409	8.678	8.182	7.365	7.403	6.719	6.493	6.175	5.984	5.709	5.728	5.081	5.138	5.143	4.758	4.508	4.596	4.328	4.177	4.505	4.689
460.0	798.4	3173	9250	2491	747.2	766.6	770.7	784.1	787.6	771.2	754.1	714.0	652.3	592.2	527.7	471.2	440.7	422.4	416.8	411.9	412.3	424.4	438.7	452.7	459.3	458.4	450.5	440.0	425.1	400.5	364.1	315.0	269.5	228.5	193.8	175.3	147.1	110.8	87.34	73.48	60.29	53.48	51.79	74.76	189.7	549.5	1880	9999.9	9999.9	9999.9	155.6	27.98	19.29	14.31	13.28	10.78	9.569	9.105	8.440	7.922	7.252	6.866	6.515	5.840	5.795	5.700	5.618	5.211	4.998	4.885	4.889	4.438	4.244	4.200	3.883	4.253	4.493
465.0	619.8	1426	8944	6002	769.2	708.9	733.4	741.3	735.5	725.5	709.0	661.0	608.7	541.2	485.0	432.3	409.4	391.8	379.5	379.5	382.5	391.0	405.8	417.1	422.4	423.7	413.7	409.1	398.9	380.1	344.6	300.5	260.0	219.0	182.5	163.6	148.3	115.9	89.12	72.89	61.96	53.07	47.71	49.08	73.10	154.5	455.1	2501	9999.9	9999.9	9991	149.1	26.21	17.87	14.78	12.05	10.25	9.837	8.877	7.885	7.601	6.957	6.285	6.057	6.063	5.567	5.385	5.222	4.944	4.779	4.691	4.413	4.070	4.160	4.195	4.125	4.122
470.0	579.5	755.3	4572	9999.9	2929	666.0	666.2	682.4	670.9	654.9	635.5	603.0	546.3	487.8	436.9	388.4	364.5	348.9	335.4	337.1	340.0	347.0	359.5	369.7	375.3	376.9	371.3	367.7	359.5	343.7	313.7	276.3	241.0	204.0	172.8	149.1	134.3	119.4	94.74	73.50	62.61	53.13	45.75	41.49	45.00	62.58	129.0	588.6	2616	8588	9999.9	9999.9	818.0	25.77	18.20	14.17	12.26	10.38	9.426	7.884	7.417	6.781	6.388	6.038	5.806	5.399	5.109	4.953	4.637	4.358	4.278	4.224	4.136	3.925	3.825	3.745	3.685
475.0	522.3	539.9	1497	9241	9677	1043	593.3	601.2	613.8	584.3	571.6	531.8	485.7	436.6	381.1	342.0	319.2	305.9	297.1	294.7	297.8	304.4	313.8	321.7	328.6	329.3	327.8	324.2	320.0	308.5	282.5	251.1	220.3	187.1	161.6	138.1	119.9	109.6	98.51	76.61	60.84	51.71	44.48	38.84	36.85	38.54	52.82	153.8	605.7	1950	5021	9999.9	9999.9	213.9	27.07	16.82	13.68	11.12	9.355	7.717	7.062	6.600	5.972	5.490	5.486	4.982	4.952	4.512	4.149	3.991	3.584	3.814	3.748	3.490	3.271	3.319	3.102
480.0	491.0	495.0	725.1	4931	9999.9	3043	555.6	560.1	565.1	539.9	524.0	499.2	448.8	403.0	349.6	315.2	291.3	279.8	268.7	270.1	271.9	275.2	285.7	293.2	298.7	301.7	301.2	296.5	292.2	285.9	263.8	234.0	205.1	179.6	152.4	132.4	112.9	100.6	94.69	80.99	61.65	50.91	43.82	37.75	34.44	32.67	33.27	55.79	154.9	455.8	1174	6984	9999.9	9999.9	194.0	24.04	16.48	12.56	10.57	8.752	7.954	6.807	6.252	5.880	5.225	5.247	4.814	4.472	3.987	4.201	3.517	3.322	3.639	3.353	2.896	3.163	3.101
485.0	458.6	454.3	500.2	1845	9999.9	8043	647.9	536.5	530.2	509.6	483.7	465.8	413.7	372.3	329.7	295.7	269.3	256.8	249.3	249.2	251.0	254.1	262.4	271.2	277.0	279.1	278.5	275.0	274.0	263.8	244.5	222.3	194.4	170.0	144.9	126.2	109.2	94.76	87.14	82.04	65.21	51.40	43.66	38.89	34.35	31.15	28.96	32.55	53.32	120.2	283.0	1676	9999.9	9999.9	9999.9	147.8	21.76	14.80	11.72	10.17	8.358	7.309	6.396	6.171	5.481	5.015	4.825	4.505	4.087	3.813	3.489	3.556	3.278	3.464	3.094	3.413	3.073
490.0	390.3	427.4	439.3	734.0	5932	9999.9	2530	504.0	486.0	472.4	444.8	423.5	380.6	338.8	300.9	265.0	242.3	232.4	227.5	223.0	224.6	228.3	235.3	241.8	247.8	249.2	249.4	247.5	245.9	239.0	225.0	202.7	179.3	157.0	136.6	119.5	102.9	90.49	79.81	74.94	68.47	55.31	44.73	38.51	34.64	30.47	27.80	26.85	29.73	43.38	79.82	393.6	2425	7819	9999.9	9999.9	871.1	24.47	15.77	11.87	9.412	8.076	7.208	6.149	5.634	5.321	4.818	4.716	4.125	3.772	3.421	3.489	3.283	3.097	3.215	3.015	3.058
495.0	323.9	379.4	420.9	452.7	1750	9999.9	9999.9	845.8	444.2	427.5	406.7	380.8	339.0	305.6	266.2	238.0	217.3	207.5	204.1	199.4	198.0	201.9	208.8	214.0	217.0	219.8	221.1	219.6	219.3	212.8	200.2	183.1	163.9	142.0	125.4	110.1	97.55	85.74	75.25	66.69	63.60	58.23	47.21	38.56	35.16	30.49	26.88	24.56	23.81	24.72	32.13	102.7	557.5	1769	4709	9999.9	9999.9	235.9	26.23	14.70	10.78	8.594	7.539	6.599	6.047	5.081	4.459	4.384	3.949	3.729	3.482	3.108	3.099	3.125	2.672	2.927	2.676
500.0	317.2	338.9	381.5	378.4	675.2	5815	9999.9	2502	408.5	397.5	379.2	348.2	311.5	277.2	243.4	216.1	197.6	187.8	182.5	179.5	178.9	183.3	187.3	191.5	196.1	199.8	199.5	198.9	200.4	194.4	182.0	168.0	150.0	132.9	117.5	103.0	92.13	80.88	71.49	63.28	57.32	56.61	51.12	39.23	34.90	31.29	26.97	24.50	21.20	20.16	21.15	36.90	139.5	411.9	1099	6374	9999.9	9999.9	214.9	21.54	13.00	10.19	7.935	6.861	5.889	5.133	4.409	4.289	3.732	3.477	3.317	3.063	3.114	2.757	2.680	2.882	2.651
505.0	282.4	294.4	354.4	353.2	403.0	2105	9999.9	8165	469.2	365.1	347.7	320.2	283.1	253.3	220.8	198.1	181.2	173.3	167.2	164.3	164.8	166.1	169.3	172.8	179.7	180.7	179.6	181.9	180.3	177.2	167.3	153.1	137.8	122.3	108.4	95.52	85.61	76.02	68.09	60.16	53.43	51.21	50.44	40.94	34.47	30.63	26.39	24.45	20.80	19.36	17.99	21.59	44.69	106.7	264.4	1517	9822	9999.9	9999.9	34.44	17.68	11.46	8.687	7.310	6.218	5.242	4.620	3.983	3.911	3.503	3.329	3.113	2.790	2.676	2.506	2.638	2.488
510.0	245.8	263.8	293.0	337.8	318.0	715.2	6646	9999.9	2976	340.8	311.5	287.4	255.4	222.7	195.5	174.4	160.8	151.9	146.5	143.6	143.6	144.0	147.2	151.3	155.2	156.1	157.9	159.3	156.8	155.0	148.1	134.5	122.6	108.1	98.03	86.45	77.99	70.27	62.03	55.39	49.40	45.11	44.34	42.30	35.42	29.57	25.31	23.43	20.67	18.26	16.68	17.07	22.01	36.04	72.59	354.6	2332	7634	9999.9	9999.9	855.7	20.39	11.21	8.561	6.885	5.734	4.597	4.277	3.807	3.491	3.304	3.003	2.747	2.601	2.617	2.409	2.412
515.0	224.0	230.1	238.8	288.4	286.2	365.9	1858	9999.9	9999.9	625.3	286.0	256.2	226.0	196.3	170.9	152.4	138.7	132.8	126.3	125.1	123.0	124.3	127.2	130.6	133.3	134.4	135.9	137.1	137.1	134.2	128.8	118.6	106.7	95.59	85.84	77.60	69.32	63.91	57.24	50.23	46.03	41.38	38.32	37.94	36.65	29.86	24.27	22.03	19.92	17.48	16.16	15.51	15.40	18.86	27.28	91.26	533.5	1723	3745	9999.9	9999.9	242.5	20.57	10.84	7.877	6.260	5.210	4.474	3.914	3.528	3.209	3.144	2.486	2.569	2.501	2.494	2.337
520.0	207.7	210.3	204.8	252.5	278.8	272.3	621.9	6694	9999.9	1906	266.9	230.8	205.1	179.4	154.3	137.5	123.9	120.3	114.0	112.5	109.8	111.1	113.5	116.9	119.4	118.1	120.4	122.8	121.1	119.7	115.2	105.9	96.62	87.30	78.08	70.47	63.58	57.71	52.42	46.66	42.52	38.54	34.94	33.86	35.09	31.39	24.17	21.44	19.25	16.63	14.76	14.17	13.58	14.33	16.25	31.16	131.2	398.1	868.2	5251	9999.9	9999.9	207.3	15.72	8.938	7.285	5.844	4.534	3.768	3.226	3.337	3.101	2.603	2.443	2.734	2.346	2.176
525.0	198.4	191.5	187.3	211.4	267.5	239.3	326.6	2400	9999.9	8236	275.2	213.1	192.6	162.1	141.8	127.3	113.7	108.3	103.1	101.3	98.85	99.94	102.4	104.8	106.6	106.5	109.3	109.4	109.1	107.9	103.2	97.74	87.26	80.65	72.35	64.24	58.57	53.19	47.90	43.47	38.90	35.34	33.20	30.64	31.30	31.42	25.68	21.00	18.47	15.94	14.16	13.49	12.69	12.51	13.00	16.58	39.62	100.4	208.2	1237	7458	9999.9	9999.9	33.15	12.57	8.196	6.482	5.069	4.267	3.547	3.174	2.998	2.769	2.535	2.356	2.192	2.050
530.0	172.1	163.4	161.8	182.3	228.7	227.0	228.4	718.4	7989	9999.9	2650	204.6	171.8	145.4	125.8	110.8	100.2	92.96	88.49	86.67	86.51	86.42	88.18	89.69	91.94	92.49	93.08	94.46	94.10	93.73	89.58	84.33	75.99	70.18	63.45	56.66	52.07	46.74	42.16	38.98	35.24	31.41	29.53	27.06	26.37	27.11	25.60	20.74	17.20	14.95	13.43	12.58	11.71	11.45	11.56	11.81	17.64	31.71	56.46	288.0	1765	6601	9999.9	8579	789.8	15.49	7.714	5.798	4.727	3.813	3.281	2.990	2.696	2.429	2.290	2.118	1.941
535.0	155.4	158.5	136.4	152.3	178.6	219.2	200.0	302.5	2185	9999.9	9999.9	238.0	151.0	132.1	111.5	97.31	86.70	82.56	76.76	75.43	74.53	72.26	76.50	77.01	78.36	79.09	78.89	81.27	81.13	79.34	77.34	71.25	66.23	59.42	55.68	48.85	45.31	40.88	37.74	34.38	31.43	28.94	25.55	24.23	22.77	22.67	22.40	21.29	16.35	14.05	12.37	11.63	11.07	10.51	10.37	10.21	11.48	14.61	20.66	72.71	403.1	1485	3310	9999.9	9999.9	238.1	14.57	7.468	5.196	4.265	3.506	3.079	2.485	2.388	2.322	2.128	1.916
540.0	143.3	151.1	138.3	142.4	144.5	202.9	189.9	194.2	638.7	7345	9999.9	1343	143.3	118.9	101.6	89.09	76.18	74.17	69.04	67.61	66.02	65.32	67.10	68.60	68.30	68.86	69.68	71.30	70.76	70.22	68.74	63.41	58.46	53.55	48.96	44.60	40.00	37.01	34.18	30.77	28.27	26.08	23.56	21.75	20.49	19.95	19.21	20.20	16.66	13.41	11.57	10.84	10.11	9.667	9.395	9.122	9.440	9.829	11.81	23.67	97.94	340.3	760.1	4334	9999.9	9999.9	34.58	10.76	6.460	4.668	3.732	3.271	2.729	2.572	2.030	2.033	1.844
545.0	147.9	141.5	133.8	126.2	130.9	169.5	190.7	158.9	271.4	2563	9999.9	7251	162.5	108.8	92.13	78.24	69.08	65.23	61.83	59.68	59.51	59.25	58.59	59.73	60.85	59.51	60.93	62.40	62.25	62.51	59.78	56.56	52.96	46.71	42.69	39.32	36.22	32.96	31.48	28.24	25.46	23.60	21.55	20.33	18.88	18.36	16.77	17.35	16.60	13.45	11.08	10.31	9.349	8.817	8.499	8.592	8.611	8.527	9.187	11.96	28.65	83.18	179.2	1012	5773	9999.9	6815	30.76	8.408	5.512	3.961	3.578	2.911	2.360	2.070	1.998	1.862
550.0	157.4	139.3	131.7	113.9	109.6	126.6	177.5	147.5	169.4	710.7	8124	9999.9	955.0	102.6	81.46	68.49	60.56	56.32	52.72	51.03	50.45	49.40	49.83	50.80	51.48	51.81	51.17	52.70	52.43	51.61	50.08	47.09	43.51	39.77	36.59	33.56	31.30	27.90	26.03	23.62	22.10	20.50	19.07	17.49	16.79	16.08	14.53	14.02	14.70	13.14	10.70	9.260	8.533	7.809	7.639	7.503	7.588	7.767	7.522	8.158	11.78	24.39	46.40	233.5	1352	5079	9999.9	7104	723.1	12.20	5.354	3.921	3.075	2.654	2.301	2.081	1.803
555.0	180.1	154.9	133.0	103.2	93.72	103.8	137.4	155.5	137.6	262.1	2138	9999.9	9231	146.8	73.36	60.58	52.87	47.92	43.96	41.97	41.99	41.42	39.88	42.35	42.70	42.94	41.24	42.84	43.12	41.99	41.38	37.98	36.09	32.63	30.38	28.16	26.04	23.71	21.94	19.82	18.63	17.34	15.68	15.18	14.58	13.24	12.38	11.84	11.56	11.59	10.58	8.535	7.588	6.873	6.886	6.890	6.962	6.810	6.757	6.308	7.137	10.11	15.37	57.47	307.4	1140	2918	9999.9	9892	229.4	9.975	4.764	3.459	2.714	2.290	2.014	1.820
560.0	180.4	155.7	131.2	97.62	83.02	90.74	110.1	157.8	126.6	157.3	591.1	7560	9999.9	877.8	70.60	55.52	47.92	42.85	39.21	36.92	36.33	35.31	35.08	35.69	35.56	36.42	35.91	36.07	36.14	35.98	34.97	32.86	31.25	27.39	26.02	24.07	22.63	20.59	19.28	17.22	16.31	14.98	14.32	13.54	12.22	11.42	10.82	10.43	9.422	9.774	9.957	8.414	7.125	6.432	6.478	6.092	6.138	5.860	6.039	5.938	5.775	6.222	7.822	17.59	73.56	260.1	664.0	3494	9999.9	6579	34.54	6.778	4.111	3.191	2.185	2.201	2.001
565.0	187.3	181.0	135.3	94.24	81.52	85.43	94.60	147.7	133.8	132.5	236.1	2584	9999.9	5547	82.39	51.68	43.31	38.42	35.24	32.89	31.79	31.15	31.56	30.90	30.73	31.34	30.12	31.29	31.10	31.20	30.56	28.53	26.93	24.46	22.54	21.20	19.20	17.71	16.06	15.11	14.18	13.81	12.46	11.86	11.31	10.51	9.729	9.323	8.466	7.979	8.714	8.197	6.799	5.816	5.718	5.771	5.334	5.310	5.523	5.396	5.114	5.071	5.564	8.163	20.72	62.86	154.1	803.9	4361	9999.9	2015	29.54	5.334	3.458	2.485	2.040	1.964
570.0	211.2	196.8	157.4	97.83	77.07	74.70	83.57	117.6	153.8	133.0	160.4	708.8	8226	9999.9	542.2	50.42	38.58	34.73	30.46	27.96	26.86	26.27	26.46	25.64	25.91	25.85	25.70	25.92	25.71	26.10	25.44	23.58	21.70	20.00	18.30	17.43	16.60	15.28	14.02	13.01	12.05	11.27	10.54	10.42	9.593	8.983	8.523	8.132	7.570	6.781	6.714	7.172	6.594	5.563	5.049	5.052	4.758	4.591	4.671	4.674	4.639	4.549	4.424	5.158	8.020	17.91	38.50	184.1	1007	3732	6725	4520	141.7	9.426	3.349	2.280	2.047
575.0	237.1	229.8	183.0	104.9	75.14	69.68	77.60	97.93	157.3	151.0	154.7	275.0	2172	9999.9	6912	84.70	37.82	31.58	26.89	24.17	22.82	22.57	22.22	21.56	21.02	21.45	21.01	21.10	21.52	21.47	20.52	19.45	18.21	16.49	15.86	14.41	13.76	12.76	11.99	10.74	10.19	9.688	9.138	8.702	8.238	7.986	7.512	7.140	6.476	6.079	5.391	5.637	5.977	5.256	4.494	4.338	4.375	4.214	4.088	4.036	4.240	4.274	4.122	3.971	4.921	7.266	11.99	44.57	228.3	835.6	1840	5888	5675	224.3	6.954	3.019	2.145
580.0	241.5	241.5	193.6	112.0	78.81	68.60	74.44	94.54	147.6	172.2	158.5	190.3	599.9	7246	9999.9	535.9	37.96	29.40	24.74	22.28	20.52	19.72	19.97	19.23	18.96	19.24	18.46	18.30	17.97	18.31	17.66	16.90	16.02	14.72	13.83	12.51	12.47	11.50	10.48	9.772	9.123	8.775	8.085	7.524	7.084	7.013	6.470	6.337	5.829	5.247	5.000	4.974	5.054	5.159	4.350	4.069	3.812	3.984	3.755	3.803	3.742	4.089	3.928	3.834	3.789	4.676	5.667	13.05	54.27	189.6	416.8	1945	6628	2149	33.89	4.841	2.579
585.0	233.7	251.3	202.7	120.1	76.88	69.00	72.27	87.64	128.6	188.4	173.9	180.4	250.6	2442	9999.9	3631	44.16	28.80	23.76	20.60	19.40	18.10	17.64	17.70	17.12	15.88	16.39	16.16	15.57	16.30	15.58	15.19	13.62	12.92	12.82	11.49	11.46	10.39	9.800	8.429	8.173	7.711	7.313	6.663	6.432	6.219	5.952	5.757	5.264	4.684	4.417	4.349	4.150	4.686	4.369	3.888	3.582	3.596	3.457	3.424	3.476	3.411	3.784	3.718	3.535	3.843	3.893	5.610	15.17	45.28	96.48	445.4	2522	5965	1917	28.13	3.428
590.0	247.6	250.0	200.3	121.5	76.73	70.26	74.37	86.92	119.9	181.2	200.4	185.7	177.7	655.9	7468	9999.9	375.1	29.60	22.44	19.23	17.65	15.87	15.30	15.22	14.53	14.18	14.32	13.88	14.04	13.89	13.28	12.70	11.93	11.31	10.57	10.09	9.394	8.982	8.223	7.606	7.171	6.705	6.369	5.784	5.506	5.831	5.332	4.953	4.549	4.159	3.832	3.854	3.530	3.738	4.138	3.925	3.454	3.223	3.111	3.050	3.014	3.009	3.100	3.499	3.296	3.319	3.284	3.648	5.911	12.69	24.08	102.3	576.6	2131	4096	3011	144.5
595.0	242.5	252.1	193.5	114.8	75.70	62.72	68.10	87.87	117.8	164.8	223.5	199.4	169.1	237.0	1924	9999.9	4766	50.52	23.06	19.00	15.82	14.48	13.58	13.75	13.42	12.31	12.23	11.95	11.94	11.81	11.11	10.71	9.916	9.323	9.035	8.578	7.995	7.702	6.934	6.457	5.898	5.683	5.488	5.002	5.036	5.204	4.584	4.363	4.139	3.689	3.489	3.337	3.114	3.056	3.294	3.801	3.356	3.006	2.779	2.748	2.546	2.763	2.756	3.029	3.223	2.946	3.034	3.115	3.516	4.999	7.483	24.95	130.7	477.2	1068	3318	3593
600.0	239.1	240.7	184.8	117.5	73.34	68.02	68.42	83.24	119.3	158.7	224.0	210.9	173.3	145.1	491.9	6427	9999.9	327.0	23.90	17.64	14.73	13.37	13.26	12.43	11.60	11.15	10.56	10.54	10.67	10.38	10.14	10.20	8.975	8.504	8.573	7.597	7.434	7.062	6.196	5.404	5.486	4.872	4.670	4.860	4.660	4.362	4.134	4.084	3.814	3.475	3.194	2.933	2.767	2.661	2.814	3.114	3.344	3.224	2.617	2.765	2.699	2.509	2.747	2.667	2.988	3.071	2.890	2.822	2.794	3.371	3.680	7.577	30.95	108.6	241.7	1027	3736
605.0	218.7	246.5	196.1	118.3	76.37	63.75	67.88	87.71	122.1	153.4	220.6	229.8	178.2	128.1	166.5	2111	9999.9	2323	28.50	18.04	15.17	12.75	12.45	11.41	10.92	10.29	10.04	9.688	9.898	9.574	9.361	8.944	8.390	8.860	8.157	7.428	6.836	6.275	5.756	5.024	5.162	4.706	4.259	4.373	4.091	3.991	3.847	3.956	3.259	3.030	2.905	2.728	2.685	2.479	2.738	2.802	3.017	2.953	2.677	2.762	2.594	2.460	2.460	2.508	2.706	2.834	2.740	2.755	2.729	2.507	2.621	3.287	8.551	25.91	56.03	234.3	1311
610.0	204.9	229.8	187.0	119.2	75.96	66.58	72.97	92.23	119.2	155.2	207.9	237.0	189.6	130.9	99.14	534.9	6452	8683	271.1	19.79	15.12	12.54	11.35	10.43	9.940	9.575	9.201	8.927	8.932	9.072	9.394	8.478	8.402	8.574	8.133	7.922	7.039	6.208	5.623	4.714	4.542	4.324	3.728	3.771	3.657	3.626	3.646	3.462	3.133	2.868	2.717	2.379	2.439	2.237	2.478	2.499	2.637	2.850	2.647	2.606	2.344	2.266	2.338	2.463	2.480	2.519	2.615	2.744	2.533	2.294	2.286	2.276	3.395	7.279	14.05	54.11	297.9
615.0	193.0	212.2	177.1	118.1	72.10	67.11	74.91	90.42	117.0	153.0	200.9	228.8	199.8	136.5	88.23	159.6	1656	9999.9	3455	29.77	14.75	12.82	11.14	10.59	8.642	8.707	8.659	8.013	8.069	8.015	8.299	8.231	7.631	8.368	7.936	7.678	7.073	6.413	5.407	4.173	4.049	3.989	3.342	3.388	3.243	3.364	3.052	3.127	2.996	2.661	2.368	2.284	2.119	2.110	2.179	2.347	2.310	2.478	2.612	2.424	2.197	2.202	2.035	2.322	2.195	2.275	2.374	2.457	2.419	2.249	2.230	1.892	2.151	2.910	4.452	13.25	67.73
620.0	204.4	212.8	183.5	116.5	73.43	61.17	72.04	91.71	118.1	149.7	193.3	218.7	208.4	139.2	88.13	76.80	409.4	6084	8722	73.26	15.74	12.73	10.72	9.525	8.754	8.151	7.683	7.500	7.552	7.484	7.446	7.489	7.060	7.442	7.064	7.344	6.739	6.016	5.255	3.952	3.631	3.350	3.364	2.893	2.945	3.175	2.911	2.820	2.765	2.257	2.279	1.926	1.902	1.995	1.891	2.088	2.099	2.231	2.537	2.236	2.153	2.027	1.915	2.136	2.210	2.261	2.148	2.117	2.276	2.299	2.122	1.841	1.638	1.825	2.063	4.217	16.29
625.0	196.7	197.1	172.5	111.0	74.79	59.06	73.25	91.10	117.0	145.2	184.9	209.8	207.2	142.6	87.92	57.95	121.6	2024	9999.9	564.5	19.02	13.15	11.18	9.424	8.236	7.475	6.821	6.961	7.403	6.992	7.330	7.025	6.851	6.824	6.398	6.696	5.845	5.227	4.563	3.842	3.783	3.373	3.140	2.984	3.012	2.864	2.804	2.734	2.583	2.220	2.138	2.030	1.852	1.782	1.806	1.848	2.134	2.085	2.065	2.167	2.132	1.933	1.897	1.875	2.026	2.114	2.150	1.992	1.913	2.389	2.079	1.893	1.599	1.623	1.516	1.996	4.647
630.0	184.2	198.4	169.5	110.2	71.32	61.99	72.67	87.60	114.2	143.7	181.1	203.3	196.4	154.6	93.73	55.50	55.89	499.2	5972	6367	185.8	14.90	11.18	9.269	7.949	7.495	6.382	6.400	6.510	6.169	6.237	6.110	6.099	5.905	5.611	5.602	5.309	4.632	4.307	3.752	3.645	3.177	3.078	2.869	2.818	2.676	2.652	2.582	2.345	2.133	1.914	1.865	1.851	1.742	1.831	1.691	1.817	1.872	1.882	1.953	1.939	1.831	1.788	1.774	1.834	1.974	1.842	1.867	1.870	1.835	1.929	1.628	1.497	1.373	1.315	1.306	1.913
635.0	177.8	206.6	166.9	107.7	71.71	64.82	68.42	86.97	109.4	137.8	177.7	193.3	186.0	159.5	103.3	57.12	41.59	135.3	1529	8905	2391	20.88	11.68	10.02	8.325	6.877	6.119	6.285	6.187	5.960	5.753	5.557	5.346	5.487	5.458	5.065	4.858	4.321	3.979	3.695	3.519	3.244	2.856	2.719	2.611	2.571	2.570	2.476	2.270	2.013	1.818	1.731	1.612	1.551	1.583	1.716	1.731	1.656	1.668	1.648	1.790	1.755	1.661	1.758	1.734	1.820	1.772	1.791	1.694	1.818	1.689	1.538	1.433	1.504	1.223	1.043	1.210
640.0	171.7	209.9	172.9	102.0	70.62	63.66	67.22	81.07	106.8	138.5	178.0	191.8	183.0	158.8	110.8	59.25	38.56	52.08	368.8	5526	6435	57.65	12.43	9.902	8.180	7.240	6.400	5.914	5.640	5.597	5.631	5.491	5.521	5.281	5.276	4.802	4.528	4.465	3.874	3.418	3.304	3.131	2.677	2.494	2.506	2.507	2.313	2.377	2.312	2.096	1.675	1.576	1.600	1.528	1.528	1.579	1.715	1.767	1.644	1.555	1.680	1.754	1.617	1.787	1.840	1.755	1.710	1.611	1.589	1.627	1.531	1.491	1.442	1.396	0.996	0.995	1.015
645.0	181.3	211.6	178.6	106.9	65.88	60.92	65.30	82.29	104.5	137.5	171.1	190.3	179.7	153.0	119.1	61.21	37.87	34.71	100.1	1951	8997	458.4	14.92	9.873	8.308	7.223	6.362	5.776	5.664	5.372	5.641	5.077	4.964	5.112	5.190	4.748	4.407	4.041	3.607	3.240	2.788	2.895	2.481	2.659	2.505	2.575	2.294	2.277	2.173	1.948	1.628	1.605	1.626	1.603	1.364	1.529	1.580	1.613	1.567	1.470	1.558	1.654	1.658	1.599	1.572	1.695	1.757	1.632	1.598	1.497	1.459	1.365	1.406	1.347	1.120	0.972	0.953
650.0	194.9	205.9	163.7	105.7	69.13	53.98	65.34	80.11	106.3	133.4	169.8	178.7	175.6	146.4	119.6	63.77	37.72	29.88	38.43	502.8	7235	3335	28.75	10.82	8.346	7.389	6.405	5.789	5.341	5.450	5.505	4.969	4.745	4.974	4.872	4.603	4.124	3.658	3.495	3.162	2.765	2.683	2.504	2.517	2.304	2.317	2.295	2.238	2.151	1.940	1.497	1.556	1.483	1.542	1.419	1.490	1.482	1.568	1.578	1.280	1.507	1.496	1.600	1.505	1.590	1.624	1.610	1.599	1.452	1.407	1.399	1.219	1.252	1.265	1.115	0.961	0.874
