Sample:	'1
File name:	H2025090811–Â’Î∫”÷–«≈.FD3
Run date:	'15:07:14, 09/10/2025
Operator:	Administrator
Comment:	'

Instrument
Model:	F-2700 FL Spectrophotometer
Serial number:	23C7-003
ROM Version:	4J14000 07

Instrument parameters
Measurement type:	3-D scan
Data mode:	Fluorescence
EX  Start WL:	220.0 nm
EX  End WL:	600.0 nm
EX Sampling interval:	5.0 nm
EM  Start WL:	230.0 nm
EM  End WL:	650.0 nm
EM Sampling interval:	5.0 nm
Scan speed:	12000 nm/min
EX Slit:	5.0 nm
EM Slit:	5.0 nm
PMT Voltage:	700 V
Response:	Auto 
Corrected spectra:	Off
Contour interval:	50.000

Peak integration
Integration method:	Rectangular
Sensitivity:	1
Threshold:	1.000

Peaks
No.	ApexEX/EM(nm)	Height(Data)
1	225.0/310.0	368.8
2	225.0/600.0	39.20
3	225.0/625.0	33.06
4	230.0/345.0	497.6
5	230.0/620.0	32.40
6	240.0/520.0	185.5
7	245.0/400.0	609.5
8	245.0/535.0	150.1
9	250.0/545.0	130.0
10	255.0/280.0	360.0
11	255.0/415.0	589.3
12	255.0/560.0	109.3
13	260.0/570.0	91.61
14	265.0/585.0	92.65
15	270.0/300.0	1010
16	270.0/595.0	94.40
17	275.0/305.0	1230
18	275.0/610.0	87.38
19	280.0/310.0	1112
20	280.0/385.0	606.0
21	280.0/620.0	73.51
22	285.0/635.0	48.80
23	300.0/335.0	458.7
24	305.0/345.0	425.9
25	310.0/350.0	393.2
26	315.0/355.0	399.6
27	320.0/360.0	416.4
28	325.0/370.0	405.8
29	445.0/525.0	20.75
30	510.0/280.0	2.330
31	520.0/285.0	2.617
32	545.0/300.0	5.411
33	550.0/305.0	6.430
34	560.0/310.0	5.959
35	570.0/315.0	5.437
36	575.0/290.0	48.66
37	575.0/320.0	5.038
38	580.0/325.0	4.342

Data points
	220.0	225.0	230.0	235.0	240.0	245.0	250.0	255.0	260.0	265.0	270.0	275.0	280.0	285.0	290.0	295.0	300.0	305.0	310.0	315.0	320.0	325.0	330.0	335.0	340.0	345.0	350.0	355.0	360.0	365.0	370.0	375.0	380.0	385.0	390.0	395.0	400.0	405.0	410.0	415.0	420.0	425.0	430.0	435.0	440.0	445.0	450.0	455.0	460.0	465.0	470.0	475.0	480.0	485.0	490.0	495.0	500.0	505.0	510.0	515.0	520.0	525.0	530.0	535.0	540.0	545.0	550.0	555.0	560.0	565.0	570.0	575.0	580.0	585.0	590.0	595.0	600.0
230.0	27.48	432.2	1660	772.8	40.09	7.008	5.949	4.893	4.527	3.752	3.647	3.118	3.104	2.700	2.159	2.001	1.805	1.552	1.345	1.312	1.174	1.138	1.067	0.979	0.931	0.914	0.847	0.730	0.693	0.712	0.702	0.632	0.628	0.590	0.540	0.546	0.480	0.475	0.456	0.448	0.413	0.420	0.468	0.414	0.369	0.404	0.703	3.120	6.887	6.420	2.749	0.727	0.325	0.312	0.285	0.324	0.328	0.317	0.279	0.338	0.313	0.318	0.315	0.325	0.344	0.308	0.309	0.334	0.314	0.312	0.340	0.323	0.302	0.331	0.362	0.292	0.351
235.0	52.29	121.6	842.2	2029	458.7	70.87	7.337	5.253	4.825	4.233	3.776	3.457	3.093	2.771	2.348	2.008	1.803	1.627	1.273	1.123	1.227	1.244	1.198	1.047	1.033	0.946	0.832	0.785	0.875	0.739	0.792	0.684	0.634	0.586	0.511	0.536	0.462	0.466	0.403	0.414	0.383	0.357	0.519	0.393	0.520	0.473	0.441	0.957	2.508	5.184	7.568	8.875	5.036	1.284	0.436	0.307	0.342	0.306	0.283	0.280	0.299	0.260	0.305	0.355	0.307	0.299	0.282	0.349	0.342	0.368	0.367	0.308	0.348	0.435	0.371	0.352	0.346
240.0	70.48	78.71	232.7	1359	2508	388.0	34.19	5.772	5.007	4.689	4.449	3.616	3.446	3.193	2.420	2.252	1.853	1.602	1.485	1.458	1.413	1.061	1.314	0.998	0.948	0.880	0.867	0.734	0.755	0.801	0.612	0.771	0.564	0.573	0.508	0.500	0.421	0.588	0.498	0.425	0.399	0.405	0.460	0.422	0.547	0.551	0.542	0.531	0.814	1.599	3.713	9.391	13.79	10.24	4.109	0.724	0.334	0.328	0.271	0.304	0.389	0.295	0.369	0.337	0.276	0.343	0.290	0.343	0.294	0.363	0.360	0.305	0.313	0.424	0.336	0.346	0.374
245.0	53.51	114.4	101.0	398.4	2026	2820	306.9	15.45	6.309	4.963	4.529	3.595	3.634	3.112	2.763	2.146	2.117	1.706	1.608	1.390	1.494	1.117	1.144	0.971	1.015	0.974	0.946	0.787	0.768	0.823	0.658	0.776	0.612	0.577	0.565	0.551	0.406	0.524	0.529	0.490	0.439	0.378	0.456	0.440	0.446	0.392	0.713	0.726	0.527	0.637	1.129	3.187	8.490	15.18	15.78	8.936	2.861	0.466	0.282	0.368	0.293	0.376	0.371	0.337	0.293	0.338	0.317	0.410	0.269	0.367	0.280	0.355	0.309	0.403	0.302	0.274	0.313
250.0	30.05	77.74	139.4	158.4	574.4	2025	2867	1109	82.93	7.003	5.696	4.592	3.875	3.456	2.702	2.197	2.087	1.672	1.787	1.575	1.380	1.206	1.203	1.056	1.062	0.953	0.985	0.844	0.763	0.753	0.719	0.672	0.620	0.580	0.518	0.573	0.487	0.502	0.509	0.451	0.432	0.397	0.425	0.433	0.416	0.360	0.475	0.578	0.756	0.750	0.706	0.993	2.297	4.969	9.084	13.72	17.08	14.95	8.337	2.670	0.564	0.402	0.380	0.323	0.292	0.307	0.351	0.353	0.309	0.355	0.333	0.342	0.346	0.354	0.345	0.338	0.308
255.0	21.91	30.40	88.36	202.0	206.7	480.6	1648	4391	1641	99.79	8.156	5.779	4.972	3.732	3.188	2.891	2.164	1.967	1.551	1.814	1.439	1.228	1.174	1.073	1.176	1.082	0.920	0.897	0.774	0.771	0.765	0.745	0.703	0.548	0.562	0.539	0.448	0.449	0.416	0.405	0.384	0.404	0.383	0.396	0.424	0.395	0.364	0.428	0.478	0.678	1.010	1.027	1.045	1.403	2.293	3.449	6.520	15.27	25.49	23.23	12.92	2.991	0.450	0.300	0.314	0.305	0.342	0.376	0.344	0.325	0.398	0.375	0.425	0.358	0.342	0.309	0.308
260.0	26.17	18.43	36.47	143.6	218.4	154.5	430.6	2774	5283	1309	59.83	7.918	6.139	4.382	3.342	2.832	2.320	2.170	1.623	1.704	1.447	1.566	1.203	1.078	1.241	1.212	1.051	1.003	0.754	0.787	0.786	0.708	0.646	0.595	0.519	0.640	0.499	0.492	0.451	0.542	0.450	0.412	0.447	0.408	0.413	0.355	0.360	0.377	0.346	0.398	0.655	1.153	1.374	0.987	0.863	1.025	1.818	4.269	11.77	25.07	34.36	22.51	9.147	1.352	0.373	0.372	0.390	0.391	0.379	0.354	0.375	0.364	0.365	0.407	0.298	0.328	0.341
265.0	23.69	18.08	18.71	53.70	199.9	177.7	126.5	781.5	4080	5875	989.9	23.36	7.088	5.262	3.973	3.119	2.418	2.270	2.128	1.682	1.472	1.511	1.251	1.021	1.198	1.090	1.038	1.066	0.857	0.781	0.823	0.699	0.661	0.694	0.579	0.525	0.516	0.502	0.461	0.496	0.461	0.490	0.447	0.493	0.372	0.431	0.404	0.402	0.348	0.356	0.404	0.580	1.227	1.450	1.139	0.662	0.709	1.266	3.124	7.768	19.91	36.41	39.65	19.22	5.236	0.641	0.404	0.428	0.354	0.361	0.325	0.345	0.321	0.324	0.359	0.322	0.373
270.0	25.81	20.71	18.19	23.01	80.56	209.3	198.1	216.0	1129	4210	6428	2472	60.58	7.350	5.467	3.813	2.753	2.563	2.164	1.941	1.648	1.577	1.466	1.198	1.188	1.249	1.101	1.027	0.987	0.936	0.800	0.750	0.781	0.670	0.584	0.529	0.563	0.558	0.469	0.501	0.541	0.474	0.563	0.460	0.403	0.453	0.398	0.398	0.347	0.304	0.348	0.373	0.615	0.858	1.299	1.355	1.307	0.944	1.059	2.093	5.052	11.11	20.95	31.66	31.74	31.72	12.00	4.199	0.718	0.371	0.416	0.363	0.363	0.378	0.405	0.341	0.406
275.0	41.75	31.92	26.49	20.27	31.01	82.18	268.5	249.7	297.4	1015	3466	9029	3515	70.96	8.380	5.335	3.416	3.337	2.312	2.192	1.835	1.541	1.398	1.263	1.172	1.294	0.997	1.100	0.959	0.896	0.774	0.815	0.726	0.729	0.666	0.605	0.619	0.553	0.501	0.434	0.449	0.503	0.498	0.517	0.473	0.466	0.424	0.414	0.420	0.310	0.339	0.335	0.420	0.449	0.624	0.807	1.543	2.010	1.507	1.097	1.510	2.853	5.094	7.759	11.82	30.44	52.18	28.05	18.35	3.947	0.561	0.408	0.358	0.409	0.421	0.342	0.381
280.0	54.43	49.80	43.66	29.05	25.13	41.91	157.8	360.0	211.0	287.7	944.5	5647	9125	859.6	39.00	6.565	4.413	3.951	2.726	2.202	2.018	1.711	1.683	1.525	1.498	1.281	1.143	1.067	1.091	0.907	0.846	0.909	0.704	0.640	0.717	0.623	0.594	0.615	0.593	0.542	0.486	0.475	0.571	0.534	0.504	0.472	0.471	0.448	0.445	0.369	0.401	0.313	0.389	0.378	0.453	0.441	0.838	1.600	2.330	2.050	1.293	1.177	1.591	2.194	3.308	8.242	22.12	43.38	65.69	26.89	11.93	1.573	0.457	0.452	0.451	0.380	0.386
285.0	74.03	79.55	79.39	48.84	33.88	36.25	74.72	281.8	385.4	195.9	325.5	1651	7561	7141	591.8	15.44	6.239	4.673	3.668	2.751	2.356	1.824	1.541	1.673	1.522	1.221	1.091	1.003	1.050	0.937	1.113	0.927	0.815	0.716	0.747	0.605	0.638	0.622	0.580	0.563	0.557	0.615	0.582	0.560	0.538	0.565	0.570	0.614	0.544	0.437	0.386	0.467	0.372	0.408	0.443	0.427	0.597	0.851	1.479	2.496	2.617	1.593	1.055	1.231	1.522	2.773	5.837	13.15	34.78	61.82	67.84	22.46	5.831	0.766	0.464	0.425	0.406
290.0	116.6	163.3	148.7	97.29	61.70	56.85	73.57	158.5	388.0	495.3	361.9	642.1	2228	6164	7592	2003	35.48	6.524	4.534	3.249	2.849	2.269	1.820	1.718	1.537	1.266	1.227	1.187	1.116	1.036	1.082	0.920	0.846	0.778	0.716	0.720	0.695	0.638	0.593	0.611	0.593	0.611	0.596	0.616	0.687	0.765	0.689	0.871	0.770	0.629	0.548	0.601	0.525	0.491	0.565	0.488	0.661	0.712	0.907	1.383	2.029	2.817	2.943	2.183	1.937	2.008	2.648	4.354	9.522	18.61	34.73	48.66	41.61	45.58	13.68	5.492	0.740
295.0	177.9	251.8	237.9	155.3	94.31	84.53	105.1	154.8	279.4	607.4	806.0	636.0	895.9	1640	4196	9999.9	2759	41.41	6.529	4.607	3.642	2.811	2.250	2.022	1.566	1.611	1.554	1.230	1.189	1.033	1.116	0.913	0.887	0.890	0.798	0.848	0.714	0.724	0.684	0.637	0.668	0.573	0.684	0.798	0.759	0.877	0.941	1.164	1.074	0.891	0.704	0.672	0.707	0.613	0.688	0.649	0.760	0.769	0.847	1.214	1.389	1.949	2.950	4.183	4.348	3.359	3.024	3.304	4.186	5.933	9.362	12.23	14.41	38.52	70.38	72.64	21.40
300.0	224.6	307.1	297.9	197.1	121.4	108.2	128.5	187.0	292.2	512.8	1010	909.0	705.0	661.2	1146	6088	9944	501.1	24.80	5.887	4.245	3.541	2.537	2.263	1.935	1.687	1.392	1.282	1.315	1.089	1.232	0.950	0.918	0.869	0.797	0.876	0.856	0.745	0.675	0.688	0.586	0.664	0.748	0.874	0.852	1.023	1.101	1.238	1.231	1.060	0.865	0.798	0.768	0.708	0.807	0.798	0.914	0.918	0.971	1.322	1.510	1.922	2.522	3.281	4.886	5.411	4.381	3.710	3.586	3.713	3.992	4.094	4.321	10.18	26.28	62.63	86.53
305.0	241.0	358.2	344.9	225.5	139.7	126.5	150.6	218.1	321.1	516.0	890.0	1230	820.6	500.9	409.2	1647	7744	8011	365.3	11.68	5.433	4.026	2.924	2.336	2.102	1.891	1.680	1.447	1.297	1.135	1.162	1.060	0.990	0.892	0.873	0.779	0.815	0.782	0.718	0.716	0.658	0.712	0.756	0.901	0.918	0.939	1.188	1.315	1.362	1.235	0.948	0.898	0.804	0.842	0.818	0.757	0.968	1.183	1.138	1.403	1.548	1.987	2.724	3.017	3.688	5.050	6.430	5.180	4.219	3.638	3.139	2.487	2.200	3.151	6.641	16.81	40.13
310.0	246.6	368.8	367.8	243.9	152.9	143.4	168.9	239.2	349.5	533.3	780.1	1082	1112	602.2	287.9	462.4	2029	5943	6030	1497	25.02	5.431	3.877	2.968	2.433	1.972	1.790	1.536	1.482	1.231	1.241	1.201	1.012	0.889	0.851	0.902	0.780	0.778	0.745	0.804	0.710	0.688	0.768	0.831	0.982	1.108	1.223	1.407	1.426	1.237	1.007	1.068	0.871	0.845	0.875	0.890	1.142	1.174	1.235	1.462	1.724	2.176	2.611	3.043	3.520	4.195	4.969	5.469	5.959	5.126	3.792	2.439	1.992	1.761	2.398	4.519	9.932
315.0	241.2	359.6	369.4	258.1	173.8	156.5	181.6	253.9	360.4	529.9	729.1	889.7	977.4	870.7	350.4	224.7	527.6	1394	3431	8545	2136	29.15	5.508	3.897	3.043	2.487	1.887	1.748	1.542	1.308	1.337	1.191	1.117	0.923	0.925	0.810	0.974	0.798	0.748	0.697	0.753	0.751	0.777	0.788	0.908	1.118	1.265	1.434	1.497	1.238	0.973	1.079	0.970	0.975	0.962	0.925	1.201	1.266	1.293	1.465	1.784	2.301	2.553	2.806	3.380	3.700	4.143	4.302	4.666	5.349	5.437	4.075	2.373	1.868	1.592	1.916	2.993
320.0	258.5	378.6	385.5	266.6	177.4	164.4	186.2	264.3	359.5	513.4	697.9	820.7	818.1	836.7	550.1	211.9	211.8	371.0	869.3	5119	8064	374.0	16.90	5.169	3.669	2.684	2.164	1.834	1.873	1.351	1.368	1.196	1.022	0.971	0.966	0.886	0.925	0.893	0.755	0.755	0.734	0.796	0.802	0.910	0.953	1.206	1.324	1.434	1.505	1.312	1.079	1.117	1.057	1.025	0.951	0.992	1.188	1.237	1.278	1.569	1.842	2.206	2.636	2.841	3.301	3.671	3.897	3.921	4.161	4.133	4.500	5.038	4.087	2.560	1.685	1.420	1.673
325.0	271.1	386.0	410.4	287.2	196.8	172.1	198.6	267.5	359.1	504.4	673.6	781.2	760.8	673.1	667.8	330.8	161.7	157.8	243.8	1345	6268	6453	283.9	9.137	4.533	3.358	2.477	2.092	2.091	1.612	1.412	1.243	1.192	0.976	0.889	0.908	0.933	0.924	0.808	0.724	0.656	0.752	0.821	0.888	0.910	1.224	1.197	1.620	1.596	1.365	1.149	1.224	1.089	0.978	0.965	0.966	1.261	1.234	1.443	1.741	1.838	2.066	2.552	2.798	3.255	3.375	3.630	3.813	3.813	3.662	3.685	3.804	4.342	4.052	2.938	1.766	1.510
330.0	263.1	409.1	437.3	344.5	230.9	195.2	211.2	270.3	356.7	484.2	639.3	737.7	724.6	596.5	523.3	490.2	290.9	146.2	127.3	350.4	1632	4801	4928	1284	21.43	4.750	3.438	2.678	2.156	1.788	1.590	1.266	1.195	1.102	0.957	0.881	0.864	0.890	0.859	0.754	0.728	0.831	0.818	0.925	0.984	1.186	1.295	1.706	1.711	1.498	1.362	1.377	1.251	1.165	1.082	1.102	1.236	1.283	1.505	1.737	1.857	2.068	2.394	2.808	3.094	3.228	3.450	3.603	3.806	3.778	3.437	3.227	3.132	3.344	3.712	3.198	2.659
335.0	261.2	429.5	473.8	377.9	277.8	230.0	235.5	282.1	364.4	476.0	613.4	697.8	696.5	586.8	465.4	399.2	458.7	259.4	134.8	156.6	424.0	1130	2788	7257	1974	26.97	4.969	3.573	2.681	2.193	1.706	1.442	1.249	1.139	0.995	0.887	0.944	0.918	0.817	0.691	0.638	0.804	0.867	0.941	0.968	1.262	1.354	1.770	1.805	1.700	1.404	1.470	1.391	1.251	1.259	1.144	1.350	1.390	1.461	1.722	1.933	2.148	2.438	2.834	3.059	3.273	3.313	3.478	3.788	3.638	3.424	3.324	2.768	2.882	2.743	3.063	3.791
340.0	273.2	420.4	480.6	413.2	314.8	254.9	254.3	295.5	368.5	471.1	587.8	672.4	670.7	587.0	470.6	370.0	407.7	407.2	195.1	138.5	172.7	311.8	714.8	4258	7018	339.3	17.36	4.631	3.396	2.429	1.908	1.551	1.408	1.178	1.086	0.896	0.857	0.797	0.837	0.755	0.786	0.757	0.814	0.988	1.033	1.332	1.553	1.669	1.904	1.771	1.539	1.639	1.427	1.471	1.382	1.423	1.506	1.454	1.524	1.706	1.964	2.043	2.416	2.477	2.716	3.278	3.276	3.276	3.691	3.474	3.302	3.426	2.898	2.935	2.691	2.643	2.741
345.0	244.7	410.9	497.6	438.3	335.4	285.9	276.2	304.1	369.8	467.5	569.9	652.0	658.3	579.9	480.5	384.4	345.1	425.9	323.0	170.1	142.7	150.0	219.4	1124	5132	5700	277.5	9.329	3.922	2.868	2.157	1.747	1.553	1.377	1.078	0.952	0.921	0.840	0.817	0.817	0.761	0.804	0.861	0.934	0.971	1.240	1.548	1.603	1.751	1.764	1.737	1.718	1.645	1.583	1.414	1.374	1.505	1.612	1.574	1.619	1.952	2.081	2.359	2.647	2.772	3.043	3.434	3.096	3.476	3.519	3.232	3.227	3.131	3.012	2.657	2.556	2.494
350.0	251.3	404.3	490.9	458.7	379.6	324.0	311.0	332.3	381.7	462.1	552.2	624.3	630.3	576.7	498.0	411.5	356.9	357.6	393.2	307.9	188.6	150.1	138.5	313.5	1334	3818	3953	1191	20.28	4.235	2.882	2.124	1.607	1.428	1.094	1.085	0.925	0.876	0.855	0.785	0.846	0.794	0.841	0.904	0.997	1.266	1.442	1.680	1.829	1.693	1.708	1.879	1.785	1.657	1.592	1.535	1.695	1.686	1.758	1.872	2.068	2.182	2.324	2.473	2.617	2.844	3.075	3.019	3.236	3.436	3.251	3.192	3.279	3.032	2.901	2.853	2.691
355.0	245.8	394.4	484.0	464.8	418.6	369.6	358.9	370.4	412.4	470.4	540.8	605.4	614.0	575.2	514.2	446.0	393.4	363.9	353.5	399.6	321.3	200.3	158.7	163.1	360.8	901.6	2008	5671	1925	26.28	4.158	2.950	2.323	1.441	1.259	1.075	0.985	0.983	0.901	0.806	0.830	0.779	0.805	0.858	0.977	1.295	1.406	1.707	1.848	1.790	1.640	2.086	2.014	1.796	1.843	1.831	1.843	1.937	2.005	2.069	2.148	2.142	2.410	2.624	2.613	2.761	3.074	2.974	3.029	3.315	3.306	3.502	3.468	3.095	2.879	3.123	3.041
360.0	243.4	383.0	477.1	491.8	452.3	407.4	392.1	398.9	433.5	481.9	547.4	595.5	597.8	581.9	528.5	465.3	426.3	386.4	360.1	377.4	416.4	277.0	190.9	151.2	163.3	256.0	512.2	3058	5903	331.1	18.00	3.752	2.502	1.794	1.367	1.222	1.007	1.004	0.858	0.801	0.817	0.732	0.796	0.882	1.051	1.225	1.431	1.646	1.821	1.809	1.699	2.164	1.963	1.877	1.884	1.948	2.014	1.915	2.166	2.146	2.373	2.345	2.525	2.537	2.855	2.698	3.020	2.962	3.050	3.333	3.199	3.283	3.506	3.015	3.055	3.086	3.465
365.0	232.9	396.3	467.8	494.6	468.1	439.1	426.4	428.6	454.3	501.8	561.8	594.5	599.5	578.6	538.2	485.6	455.3	414.7	386.7	371.4	407.4	377.9	241.0	174.2	139.3	128.3	164.0	791.4	3921	5175	282.0	9.147	3.048	2.087	1.545	1.448	1.137	1.076	0.960	0.849	0.784	0.895	0.842	0.868	1.041	1.208	1.522	1.611	1.765	1.896	1.757	2.078	2.171	2.062	2.055	1.960	2.239	2.077	2.072	2.216	2.318	2.488	2.462	2.556	2.664	2.796	3.031	2.972	3.034	3.347	3.172	3.374	3.313	3.129	3.256	3.348	3.201
370.0	229.6	384.4	479.0	512.1	498.6	478.5	465.3	467.4	482.6	524.8	570.0	592.9	600.4	582.9	552.4	509.1	482.3	454.8	426.6	400.0	388.3	405.8	354.2	234.0	168.9	129.0	108.9	227.2	997.8	3161	3506	1161	19.30	3.389	2.205	1.633	1.323	1.135	1.022	0.888	0.857	0.900	0.892	0.923	1.025	1.245	1.396	1.618	1.810	1.833	1.746	2.141	2.220	2.224	2.125	2.174	2.293	2.364	2.263	2.465	2.539	2.641	2.602	2.814	2.726	2.929	2.714	3.135	3.052	3.356	3.204	3.380	3.266	3.328	3.339	3.263	3.387
375.0	235.6	379.3	481.1	517.5	529.6	520.7	504.6	497.8	515.1	541.4	583.3	600.7	604.4	587.1	553.9	523.2	501.5	480.9	457.9	438.8	406.6	385.8	394.1	345.7	221.4	161.4	123.2	123.5	273.7	744.2	1559	4878	1885	24.80	3.622	2.163	1.560	1.260	1.208	1.005	0.836	0.890	1.078	1.047	1.017	1.237	1.418	1.666	1.926	1.835	1.889	2.208	2.335	2.335	2.206	2.370	2.457	2.238	2.465	2.423	2.581	2.640	2.626	2.836	2.714	3.005	2.810	3.086	3.163	3.353	3.319	3.163	3.371	3.375	3.459	3.438	3.442
380.0	251.4	387.6	478.0	526.0	552.4	543.5	530.5	516.9	541.2	552.9	588.4	599.9	603.7	588.2	558.6	529.2	516.6	496.0	479.7	456.5	427.1	394.5	378.9	390.8	292.0	193.9	147.7	118.5	128.1	212.3	394.1	2338	4973	1368	17.39	2.947	1.900	1.569	1.250	0.997	0.941	0.967	1.053	1.065	1.088	1.403	1.376	1.714	1.811	1.848	1.816	2.242	2.362	2.433	2.231	2.511	2.504	2.488	2.596	2.412	2.665	2.738	2.655	2.903	2.825	2.929	2.913	3.003	3.182	3.189	2.901	3.255	3.468	3.350	3.345	3.452	3.709
385.0	255.6	388.0	488.0	534.2	554.8	556.1	544.6	534.2	546.8	564.4	590.3	598.8	606.0	587.6	559.3	530.0	518.0	502.3	492.8	470.6	441.0	409.1	379.4	370.6	355.4	240.0	172.8	136.7	111.9	105.9	130.4	594.1	2872	4411	252.5	10.37	2.563	2.010	1.445	1.181	1.087	0.972	1.153	1.135	1.119	1.382	1.391	1.759	1.883	1.811	1.863	2.199	2.591	2.366	2.612	2.569	2.648	2.469	2.595	2.609	2.889	2.791	2.744	2.950	2.866	2.908	2.833	2.999	3.145	3.067	3.119	3.334	3.201	3.282	3.648	3.447	3.716
390.0	243.8	373.7	493.3	546.9	569.1	570.8	561.8	552.9	549.5	574.9	586.9	593.4	594.3	578.7	551.7	529.8	515.6	509.7	496.5	477.9	454.0	427.4	393.9	361.3	352.1	317.3	227.0	167.5	131.9	104.6	88.72	174.7	712.6	2271	3211	1052	17.44	3.043	1.923	1.451	1.219	1.091	1.173	1.209	1.165	1.367	1.490	1.668	1.855	1.874	1.890	2.265	2.430	2.491	2.639	2.448	2.587	2.703	2.627	2.733	2.794	2.856	2.832	2.921	2.831	2.736	2.983	2.997	3.037	3.275	3.266	3.362	3.375	3.273	3.332	3.444	3.731
395.0	246.7	382.2	489.6	561.4	574.3	593.1	573.4	559.4	569.4	574.8	593.0	595.9	583.1	575.5	544.9	521.4	507.4	504.0	493.7	482.4	461.9	437.9	410.0	372.9	339.3	325.0	305.1	217.4	163.1	129.8	100.2	96.45	197.3	532.8	1120	3392	1650	23.78	2.971	1.948	1.526	1.174	1.279	1.247	1.218	1.505	1.586	1.657	1.887	1.886	1.794	2.321	2.337	2.436	2.633	2.466	2.620	2.676	2.654	2.717	2.860	3.014	2.749	2.906	2.787	2.989	2.869	3.043	2.924	3.080	3.380	3.258	3.524	3.362	3.277	3.413	3.554
400.0	233.9	382.0	483.6	561.7	577.3	609.5	583.8	574.2	576.6	577.6	585.8	584.4	574.0	560.4	540.5	517.5	505.4	500.0	487.3	476.9	459.8	441.5	416.5	381.5	345.9	316.3	323.1	274.0	195.0	151.0	117.8	91.22	91.65	149.8	276.3	1422	3635	1266	17.08	2.481	1.598	1.546	1.377	1.295	1.268	1.383	1.507	1.708	1.845	1.986	1.871	2.369	2.352	2.506	2.562	2.621	2.702	2.609	2.678	2.927	2.977	2.931	2.872	3.020	2.840	2.951	2.851	2.918	3.132	3.063	3.106	3.222	3.426	3.256	3.467	3.514	3.661
405.0	240.3	375.2	488.0	558.7	583.3	595.5	589.6	583.5	580.1	579.8	586.3	580.4	572.3	554.5	532.7	507.9	497.1	488.4	478.9	469.8	460.0	442.3	421.0	390.8	355.7	319.1	309.8	308.8	238.4	172.2	135.6	102.6	79.23	71.88	88.66	349.6	1809	3420	232.6	10.81	2.342	1.734	1.439	1.347	1.274	1.515	1.447	1.724	1.773	1.995	1.797	2.250	2.537	2.659	2.490	2.634	2.544	2.763	2.960	2.850	2.839	2.761	2.848	2.901	2.792	2.791	2.895	2.899	3.017	2.985	3.031	3.215	3.175	3.431	3.478	3.560	3.615
410.0	241.6	371.4	479.1	544.1	569.3	592.2	585.2	588.9	577.5	578.7	578.5	573.1	559.8	539.4	513.3	492.0	478.3	472.5	465.3	454.9	446.5	432.5	414.1	391.9	362.8	328.1	305.4	295.9	282.1	217.2	157.5	120.4	89.04	65.65	55.15	102.0	438.3	1554	2498	983.3	16.95	2.803	1.744	1.537	1.414	1.500	1.531	1.834	1.961	1.987	1.823	2.202	2.477	2.546	2.505	2.551	2.781	2.742	2.887	2.842	2.840	2.837	2.843	2.843	2.744	2.711	2.765	2.904	2.815	2.917	2.925	3.164	3.137	3.147	3.213	3.262	3.407
415.0	240.2	368.4	469.0	525.6	558.6	576.1	586.2	589.3	570.0	570.4	566.5	555.3	542.9	522.6	494.6	472.7	454.1	451.6	441.1	432.2	428.9	414.7	405.7	387.4	362.7	331.2	309.3	282.7	276.0	263.3	195.4	139.2	103.0	75.85	56.43	53.66	119.6	362.0	788.4	2431	1527	23.90	2.940	1.898	1.672	1.662	1.575	1.815	1.874	1.799	1.859	2.243	2.340	2.442	2.379	2.689	2.647	2.898	2.671	2.682	2.639	2.930	2.804	2.812	2.747	2.601	2.862	2.853	2.975	2.902	2.779	2.948	2.880	2.971	3.082	3.327	3.214
420.0	239.5	361.6	456.9	525.1	545.3	566.8	569.3	576.3	561.4	560.4	562.2	546.1	527.9	502.4	482.1	457.4	438.6	430.9	425.8	417.9	410.3	401.9	396.3	376.8	358.5	333.8	310.5	283.7	264.8	260.7	229.0	157.5	114.0	85.28	62.37	48.39	52.50	98.47	190.8	917.6	2752	1197	17.60	2.365	1.875	1.786	1.576	1.687	1.839	1.969	1.756	2.174	2.378	2.490	2.531	2.636	2.630	2.828	2.687	2.936	2.587	2.934	2.845	2.663	2.628	2.828	2.778	2.721	2.732	2.893	2.798	2.733	2.977	2.801	3.014	3.087	3.310
425.0	228.1	343.7	448.1	509.2	534.7	548.5	571.3	573.3	559.3	556.1	551.6	540.4	508.4	492.9	461.8	437.7	423.7	412.4	405.4	402.4	396.0	389.8	379.6	369.1	352.0	329.3	308.2	284.1	262.8	248.8	240.0	184.9	125.5	94.46	69.75	52.01	41.22	43.42	58.02	221.8	1215	2717	225.8	11.72	2.490	2.028	1.674	1.686	1.684	1.826	1.805	2.169	2.504	2.492	2.580	2.488	2.711	2.679	2.624	2.757	2.727	2.918	2.831	2.730	2.736	2.705	2.645	2.553	2.649	2.721	2.703	2.704	3.084	2.851	3.084	2.973	3.143
430.0	258.2	328.7	437.9	495.6	526.2	547.2	560.6	560.2	551.2	549.5	538.3	523.8	495.5	473.9	444.1	418.1	402.4	391.8	387.0	381.1	375.9	369.1	362.2	357.9	340.5	323.0	304.3	283.9	262.8	240.9	223.2	205.7	153.8	107.1	80.86	61.02	46.49	36.96	32.55	64.10	290.0	1124	1920	926.9	16.24	2.995	2.021	1.930	1.868	1.813	1.898	2.187	2.393	2.325	2.418	2.432	2.659	2.676	2.662	2.871	2.729	2.767	2.740	2.680	2.684	2.516	2.626	2.573	2.672	2.616	2.739	2.611	2.714	2.716	2.767	2.751	2.875
435.0	365.1	330.0	417.9	479.4	519.9	532.2	547.2	565.7	543.3	540.9	525.9	513.7	487.4	453.8	426.4	398.9	380.2	365.0	364.9	359.5	355.1	349.9	347.3	337.6	329.6	311.9	295.4	281.1	261.8	243.5	217.2	195.1	180.4	129.6	90.86	70.44	53.26	42.08	31.97	33.28	77.89	261.3	568.6	2027	1452	23.06	2.897	2.369	2.040	1.970	1.774	2.122	2.308	2.280	2.353	2.362	2.663	2.515	2.567	2.879	2.599	2.820	2.613	2.639	2.616	2.415	2.606	2.441	2.481	2.546	2.728	2.585	2.517	2.689	2.772	2.702	2.934
440.0	475.6	373.1	409.8	464.4	491.0	519.6	529.2	547.2	547.0	535.3	529.6	505.3	476.2	441.5	410.3	377.3	362.7	352.7	346.6	342.2	334.8	331.2	332.6	326.0	315.7	303.2	290.1	275.1	262.9	240.0	213.6	185.5	174.8	149.2	103.4	76.50	59.09	46.38	35.91	28.70	33.56	70.87	137.6	745.3	2446	1135	15.68	2.911	2.251	2.045	1.755	2.002	2.309	2.193	2.332	2.303	2.510	2.504	2.655	2.736	2.604	2.585	2.720	2.749	2.561	2.337	2.448	2.458	2.509	2.583	2.312	2.534	2.549	2.591	2.767	2.562	2.859
445.0	509.5	550.4	400.9	450.1	473.7	509.8	523.8	533.3	534.1	523.4	510.7	491.7	458.8	425.4	394.4	366.5	349.3	341.9	330.4	325.5	320.7	317.6	318.3	311.2	303.1	293.8	281.6	270.1	256.7	235.7	212.9	182.3	161.9	153.4	120.8	84.62	64.94	49.98	39.78	30.92	26.77	30.42	41.63	179.4	1058	2486	192.7	10.45	2.601	2.021	1.832	2.063	2.257	2.233	2.233	2.253	2.508	2.713	2.629	2.611	2.662	2.677	2.482	2.570	2.595	2.442	2.361	2.485	2.375	2.312	2.440	2.517	2.336	2.541	2.565	2.748	2.556
450.0	320.5	839.8	537.6	420.3	458.4	486.9	497.7	505.9	508.4	502.5	495.5	468.2	440.2	405.0	372.8	343.4	325.6	315.3	306.6	299.7	296.0	294.6	294.0	290.1	284.4	274.9	264.1	254.8	245.3	229.1	207.1	179.3	156.1	139.7	128.9	99.41	72.21	55.81	44.71	35.35	28.76	24.74	22.83	51.00	251.4	1014	1661	796.0	13.73	2.644	2.056	2.216	2.298	2.166	2.210	2.262	2.400	2.505	2.457	2.486	2.513	2.514	2.600	2.456	2.421	2.416	2.436	2.279	2.340	2.375	2.353	2.292	2.282	2.293	2.244	2.371	2.408
455.0	201.0	741.3	1053	423.5	435.4	446.9	471.6	477.2	481.7	471.3	475.1	439.4	414.3	374.2	345.7	319.5	301.9	289.5	279.6	275.5	272.2	268.6	267.2	266.7	259.7	251.8	245.0	236.4	230.1	215.9	197.7	173.9	150.4	131.0	116.5	110.2	85.76	60.91	48.78	39.74	31.67	25.96	21.02	23.99	65.74	233.6	493.7	1585	1095	16.46	2.680	2.318	2.241	2.191	2.123	2.148	2.184	2.357	2.319	2.298	2.511	2.380	2.574	2.345	2.252	2.183	2.230	2.307	2.287	2.336	2.193	2.144	2.141	2.075	2.117	2.167	2.330
460.0	172.5	465.8	1410	582.3	395.4	426.7	445.2	455.7	457.6	452.1	441.6	418.5	392.9	360.6	325.9	301.8	281.9	268.9	257.6	256.4	247.5	248.9	247.4	244.5	239.4	236.3	229.6	220.2	215.7	205.3	190.7	168.9	144.9	125.3	109.3	103.7	95.52	69.10	51.28	42.43	34.22	27.41	22.78	19.22	25.61	60.79	118.1	588.8	1780	727.5	11.24	2.500	2.312	2.240	2.172	2.036	2.096	2.432	2.234	2.354	2.362	2.322	2.216	2.172	2.133	2.089	2.285	2.219	2.103	2.079	2.223	2.058	2.127	2.202	2.033	2.156	2.201
465.0	169.4	289.3	1272	1097	390.6	407.1	424.7	428.0	433.2	432.5	426.0	396.4	369.3	341.3	305.7	281.4	262.7	252.3	242.3	238.1	230.9	228.6	231.2	227.0	224.6	219.5	212.3	208.7	202.7	194.2	182.0	163.2	140.9	122.5	105.3	94.50	91.75	75.84	54.30	43.36	35.82	29.39	24.63	19.38	17.42	23.01	33.95	140.9	813.4	1652	148.9	7.242	2.522	2.233	2.111	2.105	2.112	2.131	2.184	2.256	2.320	2.225	2.110	2.047	2.013	1.956	2.191	2.008	2.056	2.104	2.168	2.061	1.965	1.997	1.888	2.129	1.990
470.0	157.6	222.5	666.4	1615	673.3	370.2	385.0	395.0	401.2	396.3	394.6	368.8	340.0	312.2	281.2	253.5	237.1	225.7	219.5	213.1	208.6	206.2	206.0	203.7	200.9	198.9	193.2	190.5	184.7	179.8	167.6	151.3	132.8	115.9	100.9	88.22	82.02	77.03	61.59	46.02	37.15	31.15	25.85	21.01	17.37	15.98	15.98	38.34	193.6	725.4	1023	591.4	12.15	2.510	2.178	2.172	2.099	2.033	1.967	2.101	2.091	2.196	1.970	2.019	2.019	1.831	2.054	1.913	1.879	1.847	1.845	1.889	1.809	1.766	1.832	1.852	1.871
475.0	162.2	192.8	329.1	1169	1484	379.9	355.7	356.0	364.0	364.6	364.5	339.4	313.3	284.4	257.1	227.3	214.7	204.3	195.7	189.1	187.0	186.8	183.1	180.8	178.5	175.9	171.4	168.9	168.4	161.2	151.6	138.1	123.1	108.2	95.14	83.04	73.29	69.05	66.52	52.28	39.08	32.33	27.27	22.58	18.50	15.34	12.96	16.16	48.99	166.7	322.7	1093	717.0	15.61	2.616	2.243	1.934	1.900	1.853	1.988	2.024	2.006	1.961	2.022	1.886	1.682	1.880	1.877	1.822	1.794	1.610	1.856	1.729	1.764	1.675	1.713	1.766
480.0	152.9	210.1	242.4	621.9	1897	620.6	330.3	338.5	343.6	341.7	339.5	321.3	297.6	266.7	236.6	212.8	199.9	189.5	180.8	175.5	170.5	170.1	166.6	166.3	165.5	161.4	160.3	155.4	155.7	150.5	143.3	131.3	116.5	104.4	90.18	79.46	70.35	63.31	62.04	56.80	42.09	33.46	27.85	23.90	19.78	16.08	13.14	11.83	17.22	42.34	77.28	423.2	1293	185.1	10.19	2.424	2.106	1.948	2.035	1.781	1.928	1.869	1.909	1.839	1.753	1.595	1.758	1.776	1.662	1.737	1.638	1.690	1.777	1.629	1.603	1.536	1.842
485.0	135.4	201.2	216.9	341.0	1615	1208	319.6	318.5	322.7	325.2	318.6	301.9	277.0	252.8	222.1	200.8	189.6	177.3	169.6	162.8	158.8	156.4	156.5	153.2	153.9	151.1	148.2	145.1	145.7	142.4	134.8	124.1	111.8	99.38	86.93	77.11	68.16	60.85	56.07	55.91	46.74	33.94	27.93	24.22	20.45	17.05	13.99	11.40	10.68	15.10	22.04	102.3	662.9	1199	155.7	4.607	2.066	2.062	1.935	1.793	1.846	1.934	1.910	1.736	1.717	1.640	1.700	1.679	1.591	1.641	1.546	1.483	1.675	1.595	1.540	1.581	1.798
490.0	115.5	192.8	217.0	255.1	770.1	1812	578.6	296.2	297.7	304.9	297.8	279.1	258.7	233.5	205.6	186.3	172.3	163.4	154.3	149.1	145.1	142.3	141.2	139.8	139.6	137.0	134.4	134.3	133.1	130.8	124.5	115.3	104.2	93.74	83.01	73.37	65.32	57.24	51.94	49.96	48.76	39.33	29.77	24.93	20.85	17.66	14.82	12.19	10.32	9.420	10.03	27.41	159.6	581.2	1001	457.0	11.64	2.418	1.917	1.839	1.800	1.724	1.731	1.702	1.561	1.503	1.558	1.553	1.485	1.525	1.434	1.441	1.556	1.411	1.391	1.507	1.544
495.0	103.8	166.3	220.4	222.4	352.3	1314	1420	304.2	272.5	278.7	275.4	259.9	237.8	211.9	191.0	169.9	156.0	145.8	140.2	133.9	130.1	126.2	127.5	126.4	124.9	122.9	120.2	119.8	119.7	118.7	112.4	104.4	95.48	86.70	77.49	69.81	60.85	54.09	48.60	44.18	42.72	42.84	33.30	25.42	21.69	18.11	15.31	12.94	10.96	9.016	7.646	10.84	39.58	133.3	366.8	1123	612.5	14.07	1.992	1.810	1.731	1.670	1.468	1.527	1.416	1.472	1.621	1.363	1.507	1.525	1.391	1.409	1.435	1.408	1.310	1.418	1.322
500.0	96.17	143.8	223.4	208.7	240.6	673.8	1942	492.9	252.6	254.8	251.0	243.2	218.9	197.9	174.3	155.6	143.5	134.1	127.4	123.3	118.2	115.5	116.5	114.8	113.8	110.4	110.1	111.1	109.0	109.1	104.5	95.56	88.09	79.96	72.01	63.92	58.40	51.94	45.67	41.77	38.19	39.29	35.80	26.98	21.86	18.28	15.46	13.31	11.33	9.147	7.551	7.274	12.97	33.45	86.95	496.2	1203	185.6	6.807	1.886	1.698	1.572	1.398	1.332	1.390	1.407	1.345	1.326	1.363	1.348	1.292	1.263	1.294	1.369	1.308	1.258	1.344
505.0	87.05	133.1	199.6	209.5	201.4	335.1	1766	1032	242.1	239.9	233.5	221.5	203.0	178.8	163.7	146.6	132.3	123.6	115.9	112.1	108.0	105.5	105.7	103.3	104.3	100.4	100.2	99.77	99.46	100.1	96.28	88.52	81.98	73.95	66.75	59.91	54.37	48.24	43.41	39.78	35.24	34.44	35.63	29.11	21.90	18.48	15.27	13.19	11.24	9.302	7.663	6.646	7.032	11.29	22.83	121.1	681.7	999.9	134.7	2.806	1.785	1.552	1.296	1.402	1.322	1.310	1.275	1.340	1.303	1.230	1.198	1.190	1.229	1.094	1.261	1.239	1.276
510.0	77.01	112.1	157.6	209.3	182.3	211.8	848.6	1778	459.8	212.3	207.0	197.7	180.2	160.8	144.3	128.4	118.4	108.4	102.6	98.89	94.95	93.25	92.26	90.36	89.37	87.42	87.59	86.64	87.86	87.01	84.31	78.67	72.17	65.53	59.45	54.13	49.33	43.81	39.94	35.43	32.02	29.43	30.21	29.64	23.72	18.37	15.20	12.99	11.21	9.470	7.919	7.040	5.897	6.240	8.582	30.15	166.6	548.2	757.3	274.3	9.361	1.766	1.461	1.441	1.290	1.319	1.097	1.194	1.220	1.181	1.147	1.134	1.165	1.076	1.220	1.115	1.045
515.0	72.80	96.12	126.7	181.4	180.4	166.7	322.7	1459	1301	209.3	185.8	171.3	160.1	141.6	124.7	110.6	100.6	94.42	89.35	84.93	81.57	80.61	79.72	77.38	77.74	74.65	73.83	74.21	76.08	74.29	72.57	67.95	61.76	57.11	52.63	47.67	44.39	38.80	35.94	32.52	28.71	26.39	25.17	25.39	25.14	19.50	14.74	12.49	10.78	8.927	7.914	6.903	5.832	5.394	5.539	9.781	40.07	125.2	305.9	801.0	190.1	9.446	1.549	1.344	1.224	1.314	1.141	1.072	1.191	1.081	1.038	1.036	0.942	1.042	1.003	0.919	0.928
520.0	64.03	84.33	112.8	152.0	185.5	149.5	183.7	750.7	1942	368.0	167.8	156.7	143.8	129.1	112.6	101.8	89.91	84.10	79.60	76.55	71.88	71.04	70.13	70.14	69.12	66.10	67.06	66.66	68.09	67.26	64.04	61.30	56.56	51.32	47.87	43.12	39.50	35.69	32.80	29.14	27.02	24.59	22.58	21.88	23.00	20.63	14.78	12.26	10.09	8.837	7.683	6.750	5.872	5.232	4.665	5.144	11.78	30.30	72.80	403.1	747.6	146.4	3.122	1.372	1.174	1.205	1.067	0.956	1.225	0.956	0.962	0.937	0.971	0.936	0.981	1.003	0.871
525.0	56.98	85.22	100.3	123.2	179.5	142.9	148.0	316.3	1893	876.3	158.9	140.5	129.2	116.6	104.5	90.00	81.48	77.37	71.82	68.07	65.53	63.79	63.61	62.87	61.64	59.82	59.67	59.72	59.86	60.37	57.09	55.23	51.23	46.81	42.99	38.93	36.38	33.06	29.55	27.29	25.24	22.24	20.58	19.57	20.19	20.75	15.27	12.10	9.884	8.391	7.317	6.449	6.192	4.979	4.502	4.181	5.479	9.178	18.48	100.9	491.3	632.8	24.85	1.714	1.259	1.072	0.991	1.027	0.998	0.869	0.910	0.882	0.970	0.876	0.898	0.894	0.918
530.0	57.93	71.11	86.96	105.3	148.7	150.0	124.8	165.3	918.7	1785	338.6	123.0	112.7	100.9	91.22	79.79	71.96	67.17	62.54	59.88	56.70	55.13	54.02	53.99	52.63	52.14	51.72	51.32	51.66	51.77	49.97	48.02	44.58	40.62	37.23	34.73	31.71	29.02	26.57	24.70	22.57	20.26	18.72	17.35	16.65	17.52	16.49	12.44	9.403	8.089	6.922	6.375	5.835	5.184	4.432	3.919	3.860	4.558	6.123	24.36	123.1	384.2	477.9	107.9	6.584	1.082	0.956	0.915	0.926	0.805	0.856	0.870	0.881	0.806	0.789	0.850	0.780
535.0	55.38	63.85	78.38	87.71	107.6	150.1	116.3	116.1	299.1	1622	1156	121.1	97.94	87.61	78.86	67.78	63.87	58.45	54.70	51.07	49.40	46.77	45.93	46.65	45.04	44.46	43.55	43.38	44.51	43.98	42.71	41.36	37.35	34.71	32.37	29.78	27.09	25.71	23.58	21.86	20.15	17.51	16.70	15.44	14.48	14.04	14.74	13.30	9.834	7.546	6.505	5.731	5.299	4.690	4.433	4.015	3.362	3.158	3.308	7.205	29.13	87.74	215.8	519.8	160.6	4.828	1.147	0.843	0.854	0.740	0.820	0.729	0.780	0.729	0.866	0.766	0.732
540.0	46.67	59.71	74.87	77.34	88.34	133.7	121.2	96.60	144.1	848.4	1950	177.0	90.12	79.31	71.76	61.45	57.42	52.17	49.79	45.24	44.65	42.01	41.03	40.64	39.81	40.19	38.40	38.82	39.24	38.93	38.21	36.68	33.47	30.45	29.04	26.74	24.94	22.43	21.30	19.90	17.84	16.66	15.18	13.59	13.02	12.05	12.35	12.88	10.40	7.199	6.068	5.323	5.003	4.521	4.199	3.950	3.421	3.032	2.649	3.503	8.255	20.96	51.98	285.7	502.1	27.75	2.141	0.927	0.861	0.761	0.774	0.748	0.776	0.733	0.658	0.708	0.733
545.0	42.18	52.44	66.40	73.32	80.10	111.0	130.0	89.58	99.07	318.7	2028	661.9	85.07	72.21	62.75	56.37	50.80	46.92	44.33	41.22	40.72	36.93	37.38	36.01	35.27	35.15	33.70	35.05	35.09	35.21	34.16	32.70	29.62	27.86	26.06	24.67	22.30	21.01	19.52	17.97	16.17	15.34	13.93	12.53	12.22	10.90	10.49	10.91	10.51	7.697	5.733	5.257	4.784	4.362	4.094	3.973	3.664	2.776	2.573	2.463	3.392	6.142	12.88	72.58	351.6	396.3	22.49	1.276	0.922	0.797	0.698	0.792	0.780	0.669	0.640	0.626	0.705
550.0	42.43	52.18	56.23	62.38	67.45	79.22	122.2	91.54	84.49	135.9	1008	1602	214.8	63.14	55.27	49.43	44.61	40.98	37.85	36.47	34.35	33.01	32.03	31.30	30.24	30.02	29.18	30.36	30.28	30.61	29.95	28.11	26.09	24.18	22.87	20.89	19.40	18.44	17.12	15.36	14.33	13.35	12.36	11.42	10.77	9.915	9.064	8.877	9.279	8.327	6.197	4.841	4.362	4.139	3.787	3.514	3.448	3.042	2.424	2.157	2.268	2.760	4.156	17.38	89.37	263.5	282.4	95.79	4.905	0.817	0.790	0.700	0.760	0.627	0.624	0.668	0.625
555.0	35.79	48.31	53.32	53.27	56.98	64.09	98.20	103.6	76.81	84.03	292.7	1641	886.8	62.22	48.04	42.43	38.46	35.20	32.34	31.10	29.68	27.99	27.86	26.67	25.56	25.89	24.96	25.73	25.59	25.76	25.34	23.87	22.37	21.04	19.66	17.84	16.72	16.08	14.99	13.42	12.23	11.41	10.71	10.09	9.650	8.658	7.848	7.355	7.041	7.871	6.650	4.995	3.931	3.644	3.460	3.233	3.116	2.893	2.493	2.009	1.886	1.822	2.157	4.973	20.84	60.34	143.9	367.2	128.5	3.193	0.851	0.734	0.742	0.623	0.499	0.725	0.555
560.0	36.12	44.43	45.70	46.35	51.81	53.05	71.46	109.3	74.13	70.43	119.2	876.9	1688	112.8	42.83	37.19	33.21	30.31	28.43	26.98	26.04	25.27	24.53	24.26	22.75	23.15	21.46	22.22	22.34	22.57	22.20	21.07	19.31	18.29	17.73	15.67	14.48	14.12	13.37	11.79	10.90	10.43	9.811	8.798	8.386	7.932	7.152	6.402	5.814	6.725	6.629	5.188	3.995	3.350	3.316	3.026	2.724	2.522	2.513	2.187	1.887	1.532	1.556	2.230	5.737	14.37	35.25	206.7	348.1	26.18	1.297	0.715	0.730	0.652	0.491	0.633	0.470
565.0	36.35	41.93	43.34	42.98	46.34	47.61	56.60	101.2	79.70	63.98	76.65	306.1	1902	439.5	38.59	32.78	29.79	26.93	25.01	23.89	23.26	21.29	21.11	20.97	19.75	19.35	19.33	19.84	19.81	19.09	19.61	18.90	17.43	16.06	15.25	13.60	13.02	11.70	11.53	10.37	9.943	9.499	8.076	8.251	7.695	7.304	6.489	5.700	5.200	5.241	5.839	5.310	4.042	3.316	3.023	2.753	2.620	2.152	2.227	2.230	1.678	1.411	1.391	1.517	2.188	4.178	8.700	53.13	245.8	219.5	19.48	0.793	0.666	0.605	0.552	0.632	0.504
570.0	36.92	39.56	39.62	38.53	40.50	41.11	45.24	71.23	91.61	59.43	61.50	114.1	942.2	1274	78.86	28.23	25.31	22.86	21.36	20.04	19.42	18.28	17.22	17.28	16.40	16.21	16.05	16.41	16.22	16.12	16.35	15.56	14.28	13.41	12.25	11.26	10.87	10.12	9.598	8.940	8.381	7.890	7.253	6.879	6.373	5.994	5.504	4.931	4.301	4.206	4.321	4.722	4.149	3.106	2.704	2.400	2.286	2.008	1.972	2.039	1.811	1.444	1.276	1.229	1.399	1.715	2.792	12.75	62.46	165.6	205.6	67.32	2.877	0.647	0.577	0.511	0.531
575.0	37.55	38.95	37.83	33.96	33.57	35.02	35.87	46.79	87.55	69.95	55.86	70.43	262.7	1438	589.7	25.90	20.42	18.34	16.98	16.15	15.43	14.55	13.99	13.44	13.31	12.63	12.67	13.12	12.53	12.70	12.81	11.87	11.35	10.50	9.641	9.165	8.703	7.883	7.647	7.187	6.896	6.317	5.804	5.388	5.250	4.847	4.388	4.175	3.671	3.386	3.243	3.633	3.827	3.244	2.334	1.952	1.857	1.788	1.612	1.606	1.639	1.550	1.295	1.189	1.040	1.178	1.441	3.663	14.77	38.00	95.96	223.3	28.10	1.792	0.579	0.556	0.488
580.0	36.91	39.11	37.58	31.89	30.24	31.14	31.45	36.75	72.69	85.36	58.54	60.77	98.22	750.8	1295	61.37	17.18	15.43	14.05	12.96	12.57	11.61	11.69	11.55	10.69	10.44	10.42	10.34	10.21	10.27	10.68	9.581	9.122	8.636	8.065	7.712	7.119	6.602	6.417	5.967	5.607	5.154	5.083	4.471	4.281	3.985	3.656	3.356	3.150	2.933	2.709	2.654	3.166	3.079	2.349	1.855	1.687	1.677	1.452	1.327	1.396	1.440	1.409	1.164	1.050	0.958	0.993	1.509	4.033	9.124	23.36	122.1	187.2	22.60	0.785	0.511	0.473
585.0	35.84	35.66	36.76	30.19	26.62	25.28	30.02	33.83	52.75	92.65	61.85	57.44	60.90	248.4	1532	269.3	15.74	13.09	11.72	10.63	10.36	9.971	10.07	9.161	8.860	8.698	8.567	8.824	8.530	8.523	8.666	7.697	7.598	7.356	6.638	6.317	5.899	5.479	5.260	4.822	4.429	4.297	4.120	3.917	3.629	3.313	3.102	3.088	2.686	2.332	2.131	2.111	2.354	2.689	2.436	1.786	1.540	1.416	1.138	1.144	1.237	1.254	1.239	1.286	0.965	0.922	0.907	1.003	1.621	2.596	5.867	31.25	131.5	139.9	15.02	0.686	0.560
590.0	35.02	36.38	35.75	29.98	24.48	22.42	25.99	28.46	40.61	82.13	76.17	58.98	52.82	84.17	764.8	906.3	46.03	10.83	9.725	8.759	8.390	7.631	7.809	7.063	7.106	6.740	6.728	6.791	6.652	6.588	6.667	6.326	5.957	5.598	5.114	4.886	4.627	4.317	4.090	3.843	3.576	3.353	3.174	2.994	3.004	2.657	2.480	2.411	2.131	1.845	1.742	1.616	1.747	1.903	2.210	1.849	1.289	1.216	1.127	1.086	0.989	0.957	1.063	1.219	1.008	0.870	0.762	0.862	0.992	1.171	1.829	7.493	33.32	89.34	105.3	18.13	1.692
595.0	34.79	34.98	34.63	28.27	21.34	19.43	23.53	25.84	34.20	59.71	94.40	61.89	54.04	45.20	196.2	1027	394.4	10.47	7.718	6.773	6.665	6.149	5.982	5.518	5.371	5.209	5.126	4.929	5.105	5.020	5.303	4.862	4.383	4.341	4.074	3.769	3.532	3.387	3.102	2.927	2.837	2.622	2.463	2.380	2.356	2.186	2.000	1.841	1.654	1.566	1.396	1.434	1.259	1.288	1.641	1.712	1.314	1.071	0.953	0.766	0.789	0.874	0.872	1.013	1.085	0.938	0.906	0.780	0.836	0.823	0.947	2.050	7.913	20.45	45.92	104.0	25.96
600.0	31.12	39.20	33.27	24.67	19.57	18.82	20.41	25.22	31.77	48.14	92.27	69.05	53.17	37.92	58.35	531.2	869.4	30.34	6.409	5.943	5.672	5.211	5.099	5.042	4.573	4.417	4.035	4.198	4.111	4.151	4.185	3.982	3.723	3.440	3.291	3.099	3.057	2.862	2.805	2.491	2.441	2.150	2.075	1.987	1.958	1.779	1.679	1.545	1.484	1.268	1.201	1.166	1.165	1.078	1.224	1.327	1.319	1.057	0.820	0.809	0.776	0.772	0.794	0.825	0.967	0.998	0.837	0.793	0.744	0.698	0.656	0.898	2.215	4.924	11.19	55.49	93.48
605.0	29.88	38.32	33.47	24.88	19.05	18.22	20.45	23.25	29.75	41.06	78.52	81.48	51.61	35.02	27.19	163.7	1016	167.3	6.372	5.188	4.904	4.876	4.207	4.243	3.875	4.043	3.461	3.542	3.572	3.600	3.613	3.369	3.211	2.949	2.934	2.751	2.580	2.438	2.383	2.154	1.958	1.852	1.872	1.846	1.753	1.548	1.584	1.385	1.278	1.187	0.953	1.010	0.991	0.917	0.935	1.127	1.240	1.137	0.774	0.767	0.778	0.740	0.649	0.712	0.849	1.055	0.985	0.815	0.577	0.710	0.721	0.639	0.829	1.556	2.951	14.19	62.92
610.0	30.46	35.44	30.18	23.52	17.78	15.33	18.33	22.40	30.01	38.98	60.83	87.38	58.05	33.35	19.68	45.63	499.4	633.9	27.69	4.583	3.995	3.934	3.667	3.361	3.308	3.283	3.019	2.974	3.098	2.894	2.891	2.918	2.673	2.663	2.495	2.220	2.097	2.051	1.827	1.740	1.631	1.524	1.556	1.513	1.369	1.262	1.353	1.181	1.103	0.994	0.860	0.838	0.870	0.835	0.865	0.844	1.048	1.089	0.913	0.766	0.628	0.674	0.705	0.595	0.715	0.834	0.839	0.872	0.684	0.683	0.642	0.578	0.536	0.737	1.009	3.544	16.04
615.0	38.37	36.13	31.44	22.12	15.49	15.29	17.11	20.20	25.96	34.88	50.67	76.37	65.94	33.11	17.44	17.82	123.6	708.3	254.9	5.043	3.852	3.281	3.167	2.729	2.845	2.575	2.566	2.522	2.593	2.556	2.500	2.478	2.063	2.051	2.053	2.013	1.644	1.692	1.574	1.435	1.418	1.136	1.306	1.277	1.029	0.921	1.030	0.972	1.009	0.810	0.790	0.700	0.617	0.706	0.729	0.645	0.852	0.887	0.875	0.643	0.635	0.665	0.676	0.562	0.646	0.666	0.711	0.920	0.705	0.616	0.609	0.468	0.494	0.550	0.614	1.094	3.971
620.0	28.71	29.38	32.40	24.14	15.64	16.84	15.99	18.72	26.30	33.99	45.52	62.62	73.51	34.07	16.53	11.73	33.85	363.6	538.1	17.42	3.327	2.676	2.607	2.533	2.459	2.182	2.375	2.102	2.216	2.196	2.132	2.220	1.855	1.803	1.764	1.876	1.568	1.478	1.335	1.295	1.236	0.991	1.125	1.177	0.882	0.944	0.899	0.806	0.801	0.702	0.691	0.693	0.641	0.552	0.598	0.601	0.690	0.784	0.818	0.761	0.597	0.615	0.747	0.576	0.564	0.646	0.668	0.825	0.747	0.624	0.559	0.512	0.478	0.520	0.491	0.574	1.224
625.0	30.19	33.06	29.00	23.93	16.38	14.50	15.12	16.75	25.64	31.86	44.44	51.95	72.43	37.85	16.34	10.02	13.58	111.0	727.2	58.84	3.335	2.487	2.625	2.251	2.092	1.921	2.096	1.980	2.052	1.727	1.979	1.768	1.652	1.577	1.684	1.563	1.314	1.339	1.293	1.111	1.069	0.846	0.974	0.955	0.853	0.882	0.798	0.772	0.756	0.675	0.592	0.615	0.584	0.531	0.625	0.515	0.566	0.686	0.751	0.733	0.557	0.569	0.613	0.495	0.647	0.615	0.643	0.705	0.669	0.781	0.602	0.537	0.450	0.444	0.422	0.511	0.650
630.0	30.48	32.03	30.56	20.29	14.40	13.99	14.20	16.20	22.07	29.74	38.98	44.47	57.88	45.11	17.00	9.489	8.535	29.53	377.4	457.4	19.89	2.451	2.329	2.052	1.953	1.647	1.738	1.770	1.731	1.640	1.537	1.621	1.466	1.412	1.401	1.280	1.171	1.140	1.131	1.017	1.016	0.869	0.852	0.789	0.785	0.760	0.727	0.718	0.628	0.611	0.529	0.528	0.523	0.536	0.543	0.474	0.510	0.597	0.589	0.681	0.583	0.552	0.549	0.477	0.569	0.599	0.613	0.642	0.637	0.680	0.665	0.499	0.453	0.408	0.435	0.418	0.422
635.0	24.48	28.53	28.39	17.89	14.51	11.97	13.57	15.76	20.37	27.65	35.66	40.22	45.47	48.80	20.38	9.417	7.189	10.93	93.25	539.3	190.5	2.876	2.030	1.762	1.586	1.456	1.589	1.539	1.542	1.534	1.240	1.317	1.169	1.189	1.082	1.092	1.003	0.998	0.896	0.953	0.886	0.717	0.759	0.652	0.686	0.638	0.658	0.632	0.547	0.499	0.538	0.479	0.474	0.491	0.429	0.423	0.501	0.526	0.476	0.575	0.565	0.596	0.506	0.507	0.585	0.613	0.513	0.512	0.506	0.494	0.582	0.579	0.633	0.424	0.404	0.392	0.367
640.0	25.90	27.78	27.96	18.56	13.71	11.29	12.58	16.06	19.68	26.78	34.21	38.86	37.58	43.04	25.87	10.15	6.830	6.254	23.90	296.7	434.8	10.44	1.931	1.580	1.404	1.373	1.344	1.215	1.239	1.327	1.260	1.071	1.131	1.140	0.959	0.904	0.852	0.904	0.858	0.822	0.751	0.672	0.734	0.688	0.627	0.650	0.607	0.597	0.535	0.503	0.455	0.442	0.479	0.497	0.410	0.473	0.503	0.478	0.515	0.473	0.575	0.575	0.495	0.556	0.539	0.572	0.562	0.522	0.526	0.464	0.584	0.625	0.549	0.408	0.365	0.419	0.418
645.0	30.15	28.32	26.96	20.03	15.11	12.31	11.62	15.91	18.12	24.37	32.75	34.15	34.78	35.26	31.15	11.28	6.707	5.171	8.666	93.44	551.2	47.03	1.930	1.504	1.459	1.472	1.154	1.104	1.131	1.317	1.059	0.970	1.173	1.017	0.938	0.792	0.834	0.776	0.796	0.770	0.733	0.703	0.559	0.547	0.515	0.665	0.595	0.517	0.466	0.468	0.453	0.354	0.429	0.431	0.403	0.413	0.489	0.438	0.449	0.442	0.503	0.523	0.533	0.528	0.435	0.471	0.493	0.505	0.465	0.546	0.512	0.579	0.452	0.429	0.389	0.469	0.471
650.0	26.97	29.39	28.73	19.35	14.54	11.74	12.15	14.26	16.93	23.82	29.49	32.84	32.95	28.88	32.45	13.06	6.949	5.226	4.975	24.80	396.9	249.9	3.527	1.427	1.280	1.287	1.076	0.984	1.071	1.096	1.151	0.955	1.004	0.910	0.857	0.883	0.680	0.767	0.615	0.633	0.722	0.710	0.681	0.500	0.511	0.491	0.569	0.509	0.494	0.376	0.376	0.397	0.448	0.486	0.402	0.345	0.426	0.376	0.448	0.438	0.464	0.520	0.557	0.442	0.473	0.520	0.498	0.512	0.511	0.581	0.551	0.484	0.548	0.582	0.417	0.433	0.422
