Sample:	'1
File name:	t2025042302–°øµ¥Â«≈.FD3
Run date:	'10:25:50, 04/24/2025
Operator:	Administrator
Comment:	'

Instrument
Model:	F-2700 FL Spectrophotometer
Serial number:	23B8-004
ROM Version:	4J14000 07

Instrument parameters
Measurement type:	3-D scan
Data mode:	Fluorescence
EX  Start WL:	220.0 nm
EX  End WL:	600.0 nm
EX Sampling interval:	5.0 nm
EM  Start WL:	230.0 nm
EM  End WL:	650.0 nm
EM Sampling interval:	5.0 nm
Scan speed:	12000 nm/min
EX Slit:	5.0 nm
EM Slit:	5.0 nm
PMT Voltage:	700 V
Response:	Auto 
Corrected spectra:	Off
Contour interval:	50.000

Peak integration
Integration method:	Rectangular
Sensitivity:	1
Threshold:	1.000

Peaks
No.	ApexEX/EM(nm)	Height(Data)
1	225.0/565.0	53.98
2	225.0/615.0	37.17
3	230.0/345.0	1076
4	230.0/575.0	54.49
5	230.0/625.0	32.86
6	235.0/510.0	264.6
7	240.0/265.0	352.6
8	240.0/525.0	238.7
9	245.0/270.0	354.4
10	245.0/535.0	198.8
11	250.0/275.0	455.5
12	250.0/545.0	164.7
13	255.0/280.0	550.5
14	255.0/560.0	143.8
15	260.0/290.0	545.6
16	260.0/570.0	110.3
17	265.0/585.0	109.5
18	270.0/300.0	989.9
19	270.0/595.0	96.94
20	275.0/305.0	1116
21	275.0/610.0	85.02
22	280.0/310.0	1007
23	280.0/340.0	872.4
24	280.0/625.0	71.76
25	285.0/315.0	946.1
26	285.0/635.0	52.16
27	290.0/325.0	865.4
28	305.0/345.0	560.3
29	315.0/355.0	450.3
30	320.0/360.0	432.8
31	325.0/370.0	403.8
32	330.0/375.0	391.0
33	335.0/380.0	388.4
34	430.0/505.0	32.13
35	460.0/545.0	9.508
36	485.0/265.0	2.010
37	495.0/270.0	1.981
38	505.0/275.0	3.024
39	510.0/280.0	3.377
40	520.0/285.0	3.640
41	530.0/290.0	3.647
42	540.0/295.0	4.724
43	545.0/300.0	5.869
44	555.0/305.0	5.704
45	560.0/310.0	5.475
46	575.0/315.0	5.510
47	580.0/320.0	5.432
48	585.0/325.0	5.237

Data points
	220.0	225.0	230.0	235.0	240.0	245.0	250.0	255.0	260.0	265.0	270.0	275.0	280.0	285.0	290.0	295.0	300.0	305.0	310.0	315.0	320.0	325.0	330.0	335.0	340.0	345.0	350.0	355.0	360.0	365.0	370.0	375.0	380.0	385.0	390.0	395.0	400.0	405.0	410.0	415.0	420.0	425.0	430.0	435.0	440.0	445.0	450.0	455.0	460.0	465.0	470.0	475.0	480.0	485.0	490.0	495.0	500.0	505.0	510.0	515.0	520.0	525.0	530.0	535.0	540.0	545.0	550.0	555.0	560.0	565.0	570.0	575.0	580.0	585.0	590.0	595.0	600.0
230.0	26.41	471.3	1378	494.1	23.25	4.484	3.307	2.912	2.731	2.733	2.293	2.213	2.042	1.692	1.552	1.218	1.201	0.974	0.872	0.695	0.726	0.640	0.589	0.517	0.472	0.489	0.431	0.436	0.402	0.381	0.366	0.315	0.333	0.303	0.262	0.276	0.293	0.246	0.262	0.254	0.261	0.294	0.299	0.226	0.202	0.242	0.709	2.862	5.170	3.877	1.296	0.343	0.169	0.175	0.154	0.164	0.153	0.157	0.158	0.146	0.145	0.146	0.144	0.162	0.162	0.147	0.140	0.152	0.144	0.122	0.133	0.162	0.159	0.168	0.156	0.163	0.161
235.0	61.25	137.7	950.5	1860	490.4	40.40	3.767	3.873	3.464	2.826	2.439	2.455	2.325	1.916	1.730	1.279	1.102	0.866	0.883	0.715	0.795	0.608	0.607	0.599	0.500	0.523	0.571	0.432	0.362	0.353	0.432	0.302	0.308	0.318	0.248	0.270	0.295	0.268	0.269	0.232	0.259	0.287	0.297	0.308	0.328	0.293	0.299	0.853	2.250	4.527	6.453	6.692	3.040	0.611	0.173	0.181	0.132	0.160	0.166	0.166	0.133	0.153	0.145	0.146	0.144	0.149	0.153	0.134	0.147	0.197	0.140	0.163	0.148	0.168	0.168	0.157	0.167
240.0	88.44	96.74	288.8	1631	2221	388.9	21.04	4.361	3.974	3.563	3.113	2.490	2.138	2.221	1.652	1.272	1.193	0.958	0.974	0.702	0.798	0.601	0.656	0.558	0.494	0.517	0.478	0.462	0.442	0.439	0.464	0.317	0.356	0.296	0.283	0.264	0.264	0.240	0.283	0.225	0.260	0.289	0.246	0.280	0.393	0.465	0.367	0.387	0.685	1.467	4.003	9.666	11.92	7.411	2.429	0.324	0.180	0.190	0.150	0.153	0.137	0.174	0.152	0.156	0.171	0.157	0.131	0.136	0.127	0.142	0.153	0.166	0.167	0.160	0.141	0.145	0.153
245.0	75.19	140.6	113.6	565.9	2448	2389	285.4	10.95	4.502	3.368	3.220	2.856	2.455	2.467	1.619	1.403	1.351	1.173	1.001	0.832	0.884	0.609	0.738	0.617	0.625	0.666	0.483	0.462	0.430	0.391	0.387	0.376	0.351	0.341	0.338	0.257	0.238	0.259	0.326	0.204	0.246	0.281	0.229	0.253	0.296	0.521	0.502	0.507	0.437	0.485	1.152	3.439	9.234	14.57	13.60	6.703	1.448	0.228	0.213	0.173	0.173	0.178	0.206	0.189	0.188	0.168	0.143	0.147	0.130	0.139	0.166	0.141	0.146	0.166	0.169	0.152	0.156
250.0	31.97	114.8	193.2	212.0	791.3	2365	3050	1025	59.05	5.195	4.509	3.624	2.958	2.547	2.066	1.684	1.212	1.224	0.979	0.956	0.812	0.767	0.719	0.640	0.610	0.582	0.529	0.452	0.472	0.366	0.458	0.361	0.349	0.344	0.364	0.265	0.254	0.263	0.291	0.266	0.217	0.275	0.232	0.228	0.236	0.333	0.418	0.646	0.822	0.712	0.602	1.016	2.451	4.988	9.294	13.82	17.59	14.33	7.179	1.683	0.279	0.202	0.203	0.187	0.192	0.175	0.177	0.173	0.164	0.140	0.168	0.151	0.168	0.167	0.159	0.166	0.188
255.0	21.93	41.34	142.0	290.6	262.2	603.5	2365	4753	1416	55.95	6.683	5.156	4.191	2.949	2.128	1.950	1.349	1.519	1.256	0.830	0.947	0.883	0.735	0.694	0.669	0.629	0.553	0.485	0.518	0.430	0.491	0.371	0.312	0.294	0.389	0.284	0.308	0.330	0.280	0.342	0.290	0.275	0.260	0.250	0.263	0.262	0.279	0.310	0.540	0.872	1.156	1.212	0.922	1.397	2.264	3.499	7.199	17.63	28.61	24.36	10.27	1.640	0.203	0.251	0.191	0.208	0.198	0.181	0.171	0.170	0.180	0.191	0.202	0.186	0.160	0.187	0.157
260.0	19.02	22.72	57.14	248.0	296.8	190.5	720.0	3895	5362	248.5	26.18	6.660	5.214	4.012	2.460	1.944	1.606	1.591	1.210	0.887	0.974	0.829	0.697	0.671	0.711	0.620	0.605	0.530	0.554	0.420	0.464	0.493	0.377	0.409	0.360	0.336	0.310	0.319	0.235	0.286	0.279	0.314	0.278	0.258	0.257	0.283	0.218	0.217	0.350	0.391	0.745	1.630	1.681	0.944	0.749	1.030	1.904	5.127	14.04	28.44	31.56	21.73	7.518	0.824	0.196	0.222	0.214	0.206	0.175	0.182	0.185	0.226	0.202	0.174	0.172	0.151	0.164
265.0	21.05	18.29	24.47	113.8	352.6	228.7	196.3	1287	5588	5230	198.2	12.50	6.937	4.365	3.019	2.267	1.825	1.720	1.334	1.227	1.092	0.901	0.707	0.923	0.561	0.759	0.587	0.582	0.508	0.468	0.448	0.446	0.358	0.399	0.342	0.413	0.276	0.383	0.247	0.233	0.269	0.306	0.286	0.291	0.257	0.301	0.237	0.248	0.259	0.253	0.294	0.906	1.746	2.010	1.104	0.589	0.698	1.366	3.474	9.150	21.75	39.79	31.12	18.13	3.974	0.436	0.266	0.196	0.207	0.218	0.196	0.219	0.224	0.138	0.187	0.198	0.170
270.0	35.57	33.29	32.20	47.33	165.5	354.4	267.5	335.5	1723	5136	6461	777.0	46.87	6.716	4.383	3.273	2.353	1.966	1.645	1.461	1.207	1.133	0.874	0.895	0.787	0.733	0.652	0.603	0.592	0.566	0.503	0.503	0.509	0.489	0.393	0.397	0.354	0.357	0.321	0.277	0.348	0.329	0.293	0.348	0.332	0.328	0.307	0.282	0.288	0.236	0.251	0.396	0.681	1.167	1.675	1.981	1.587	0.977	1.116	2.339	5.378	12.11	20.33	33.57	34.16	33.82	13.30	4.055	0.419	0.229	0.224	0.229	0.238	0.205	0.254	0.225	0.197
275.0	77.77	93.81	83.07	56.49	64.63	162.8	455.5	314.4	436.1	1267	4425	9338	1100	42.07	6.576	4.392	3.309	2.095	2.017	1.514	1.473	1.256	0.929	1.005	0.846	0.735	0.731	0.702	0.763	0.604	0.596	0.534	0.561	0.576	0.514	0.498	0.371	0.400	0.417	0.315	0.346	0.340	0.361	0.420	0.406	0.475	0.460	0.420	0.434	0.375	0.291	0.310	0.445	0.469	0.699	1.100	2.328	3.024	2.187	1.184	1.565	3.121	4.937	8.097	11.79	28.71	53.06	32.21	20.49	3.950	0.462	0.297	0.288	0.272	0.239	0.288	0.273
280.0	115.7	170.5	160.0	94.18	58.99	75.08	288.0	550.5	265.3	350.1	1246	6914	8916	770.1	18.39	5.629	3.852	2.782	2.540	1.965	1.596	1.270	1.094	1.049	1.040	0.755	0.712	0.602	0.698	0.584	0.630	0.602	0.619	0.585	0.695	0.627	0.497	0.459	0.468	0.446	0.379	0.440	0.427	0.479	0.544	0.598	0.586	0.818	0.617	0.505	0.366	0.372	0.478	0.367	0.478	0.545	1.079	2.254	3.377	2.866	1.419	1.142	1.594	2.218	3.188	7.604	19.77	39.63	63.23	31.17	16.06	1.898	0.335	0.278	0.221	0.317	0.279
285.0	174.5	240.0	236.4	139.1	73.20	60.66	133.6	482.6	524.7	212.3	387.8	2076	8801	7021	114.6	10.14	5.743	3.706	2.873	2.149	1.681	1.375	1.179	1.133	1.075	0.782	0.793	0.733	0.720	0.631	0.658	0.636	0.569	0.688	0.642	0.717	0.491	0.545	0.473	0.479	0.418	0.444	0.473	0.482	0.475	0.707	0.798	0.891	0.874	0.672	0.562	0.562	0.500	0.390	0.385	0.411	0.632	0.918	1.981	3.520	3.640	2.067	1.071	1.065	1.426	2.466	5.139	10.89	28.33	51.06	65.77	26.97	9.501	1.067	0.354	0.265	0.233
290.0	240.3	331.1	332.9	209.1	110.7	81.88	104.6	233.0	545.6	507.4	331.9	651.2	2566	6498	6832	438.7	27.63	6.085	3.919	2.729	2.129	1.828	1.610	1.213	1.110	1.056	0.939	0.755	0.837	0.786	0.677	0.652	0.639	0.718	0.683	0.711	0.604	0.671	0.602	0.496	0.544	0.533	0.550	0.555	0.681	0.827	0.963	1.098	1.077	0.993	0.734	0.746	0.591	0.463	0.513	0.508	0.647	0.658	0.995	1.617	2.566	3.365	3.647	2.647	1.702	1.508	2.138	3.337	7.328	13.85	26.51	37.18	49.06	43.13	18.68	8.653	1.188
295.0	286.7	425.4	419.6	267.1	151.8	120.1	134.7	183.4	314.0	647.2	775.0	462.1	808.9	1647	4285	8315	649.5	25.43	5.799	3.922	2.895	1.953	1.897	1.546	1.329	1.111	0.952	0.790	0.994	0.691	0.626	0.707	0.683	0.796	0.852	0.782	0.681	0.733	0.684	0.613	0.583	0.623	0.553	0.723	0.818	0.977	1.139	1.312	1.290	1.177	0.891	0.893	0.792	0.557	0.639	0.662	0.780	0.694	1.084	1.153	1.558	1.811	2.587	4.243	4.724	3.426	2.134	2.252	2.925	4.368	7.053	9.117	12.91	21.98	46.00	65.10	30.10
300.0	306.8	446.3	464.1	317.5	190.9	154.6	174.7	209.8	284.3	477.1	989.9	721.5	491.3	578.7	1202	5887	5689	487.6	12.19	4.666	3.573	2.361	2.030	1.671	1.412	1.319	0.968	0.951	0.872	0.807	0.655	0.753	0.723	0.800	0.828	0.920	0.785	0.810	0.716	0.737	0.545	0.621	0.681	0.770	0.830	0.962	1.153	1.622	1.528	1.231	1.019	0.940	0.898	0.756	0.698	0.879	0.905	0.949	1.095	1.218	1.486	1.580	1.943	2.660	4.224	5.869	4.532	2.909	2.382	2.503	2.860	3.092	3.785	5.856	13.66	34.33	57.93
305.0	329.5	469.7	491.2	347.7	230.2	192.3	225.9	268.1	328.0	443.9	798.7	1116	612.2	410.7	437.9	1719	6619	4724	71.36	7.446	4.609	2.823	2.238	2.061	1.666	1.544	1.051	0.895	0.899	0.934	0.799	0.757	0.811	0.842	0.995	0.853	0.861	0.776	0.703	0.681	0.571	0.592	0.706	0.782	0.822	1.053	1.167	1.502	1.678	1.303	1.093	1.120	1.008	0.953	0.900	1.061	1.116	1.140	1.333	1.364	1.755	1.706	2.161	2.421	2.964	4.491	5.599	5.704	3.794	2.732	2.415	2.196	2.123	2.369	3.989	8.876	19.56
310.0	318.7	471.6	500.0	370.7	263.7	232.4	266.7	317.8	393.0	490.1	655.7	946.3	1007	565.6	331.4	513.3	1901	4783	5012	1242	20.10	4.395	2.976	2.078	1.925	1.624	1.318	1.217	1.097	1.017	0.805	0.783	0.891	0.873	0.845	0.935	0.860	0.777	0.645	0.678	0.695	0.621	0.645	0.797	0.841	1.062	1.263	1.504	1.719	1.490	1.225	1.233	1.196	1.144	1.123	1.058	1.254	1.414	1.514	1.737	1.898	2.015	2.303	2.611	2.772	3.222	4.015	4.889	5.475	5.385	4.291	2.654	2.184	1.981	1.901	3.035	5.131
315.0	314.1	481.1	517.2	380.5	296.3	266.7	308.6	359.7	440.7	536.5	655.6	779.8	898.6	946.1	455.2	295.6	537.3	1168	3141	6470	484.1	20.09	4.583	3.010	2.443	1.827	1.527	1.379	1.180	1.149	0.849	0.869	0.801	0.831	0.845	0.861	0.811	0.834	0.688	0.662	0.602	0.640	0.671	0.793	0.904	1.065	1.210	1.516	1.704	1.467	1.210	1.363	1.255	1.295	1.190	1.272	1.383	1.446	1.676	1.812	2.142	2.266	2.394	2.766	2.774	3.038	3.772	3.692	4.040	4.560	5.421	5.510	3.828	2.293	1.926	1.839	2.126
320.0	331.2	530.8	578.4	448.7	341.2	307.1	340.4	390.6	472.6	578.8	687.7	761.0	798.8	927.9	735.3	321.4	282.8	366.7	848.4	4347	4132	383.4	9.683	3.870	3.151	1.941	1.679	1.580	1.348	1.161	1.015	0.844	0.939	0.786	0.728	0.720	0.744	0.846	0.627	0.728	0.581	0.680	0.805	0.764	0.811	1.163	1.467	1.794	1.730	1.638	1.421	1.361	1.397	1.398	1.311	1.396	1.541	1.730	1.916	2.031	2.238	2.339	2.707	2.905	3.221	3.195	3.464	3.902	3.919	3.800	4.315	5.072	5.432	4.404	2.545	1.841	1.712
325.0	393.5	597.6	691.8	553.4	385.5	349.7	371.9	416.5	493.3	608.7	718.9	795.2	796.0	789.8	865.4	497.6	269.4	219.3	276.6	1231	4665	3665	57.30	6.524	3.430	2.409	1.966	1.492	1.307	1.252	1.034	0.892	0.934	0.844	0.837	0.767	0.770	0.712	0.802	0.738	0.698	0.688	0.695	0.854	0.974	1.473	1.619	2.118	2.197	2.009	1.878	1.704	1.509	1.468	1.350	1.444	1.703	1.795	1.933	2.165	2.423	2.546	2.780	3.133	3.397	3.602	3.636	3.669	3.937	3.847	3.778	3.936	4.757	5.237	4.583	2.898	2.073
330.0	422.9	695.8	870.6	719.0	485.0	397.8	395.3	448.3	531.3	643.4	753.1	822.0	828.4	758.3	724.6	687.6	438.3	235.6	179.9	359.8	1333	3505	3962	1096	17.57	3.785	2.619	1.903	1.665	1.360	1.222	1.015	0.912	0.943	0.896	0.836	0.812	0.812	0.769	0.715	0.647	0.720	0.736	0.994	1.081	1.573	1.787	2.364	2.707	2.451	2.295	2.255	1.998	1.733	1.731	1.629	1.816	1.881	2.020	2.241	2.462	2.551	2.903	3.229	3.503	3.566	3.749	3.821	4.119	4.156	4.082	3.794	3.903	4.041	4.312	4.194	4.102
335.0	442.2	764.5	980.7	861.6	585.3	466.1	443.1	484.5	562.3	666.1	770.9	859.4	871.2	789.0	683.0	604.2	641.9	386.4	204.2	198.9	369.4	847.3	2478	5225	407.3	20.28	3.793	2.807	2.029	1.549	1.412	1.155	0.917	1.000	0.950	0.895	0.825	0.744	0.732	0.598	0.661	0.772	0.743	1.024	1.133	1.510	1.938	2.561	2.928	2.794	2.469	2.689	2.357	2.096	1.897	1.741	2.011	2.174	2.252	2.307	2.624	2.677	3.194	3.127	3.445	3.624	3.756	4.185	4.423	4.227	4.476	3.938	3.873	3.878	3.590	3.577	3.965
340.0	437.4	785.2	1022	921.8	656.5	518.4	478.6	499.5	580.4	670.2	788.2	862.8	872.4	806.9	697.1	569.9	583.1	553.0	277.2	185.3	175.5	247.1	659.1	3455	4589	350.0	9.873	3.520	2.698	1.891	1.607	1.246	1.295	0.997	0.973	0.887	0.977	0.778	0.781	0.646	0.726	0.724	0.777	1.010	1.063	1.590	2.143	2.716	3.037	3.002	2.765	2.744	2.586	2.164	2.056	1.966	2.196	2.274	2.278	2.382	2.553	2.624	3.047	3.283	3.316	3.607	3.809	4.095	4.138	4.075	4.226	4.026	4.092	3.902	3.349	3.364	3.467
345.0	446.8	772.1	1076	944.2	711.2	552.6	499.3	511.3	585.8	677.3	771.9	845.6	855.8	809.8	699.5	570.2	507.9	560.3	420.4	214.7	152.2	133.7	200.8	968.5	4008	3148	51.21	5.483	3.180	2.268	1.966	1.257	1.214	1.032	0.896	0.778	0.894	0.766	0.810	0.679	0.719	0.721	0.868	0.984	1.127	1.531	2.033	2.557	3.120	3.071	2.951	3.027	2.817	2.313	2.364	2.123	2.314	2.308	2.282	2.706	2.562	2.771	3.207	3.239	3.271	3.680	3.651	3.699	4.159	4.057	4.111	4.205	3.800	4.008	3.606	3.520	3.440
350.0	415.3	729.0	996.1	965.7	754.7	604.8	548.0	539.6	593.3	677.5	764.7	817.3	835.0	792.0	703.7	590.2	504.3	467.4	478.4	357.1	196.2	138.9	125.0	271.9	1119	2802	3219	970.3	17.36	3.105	2.307	1.706	1.327	1.210	1.040	0.882	0.812	0.754	0.820	0.716	0.712	0.727	0.816	0.922	1.052	1.462	1.809	2.452	2.934	2.901	2.954	3.061	2.868	2.545	2.568	2.299	2.324	2.370	2.458	2.514	2.676	2.726	3.153	3.277	3.328	3.544	3.628	3.748	3.926	4.016	4.035	4.037	3.875	4.099	3.871	3.688	3.597
355.0	398.4	700.6	951.8	962.6	776.2	664.2	597.9	580.1	626.8	689.3	752.0	795.8	810.7	778.7	706.1	608.5	525.9	458.0	411.6	450.3	326.3	181.3	140.0	142.4	304.2	676.1	1881	4101	382.1	20.20	3.388	2.186	1.541	1.267	1.119	0.917	0.771	0.813	0.687	0.651	0.674	0.648	0.850	0.860	1.063	1.362	1.678	2.540	2.799	2.845	2.721	3.130	2.982	2.926	2.627	2.527	2.776	2.661	2.493	2.446	2.738	2.786	3.427	3.162	3.488	3.668	3.682	3.676	3.920	3.972	4.063	4.106	4.128	3.969	3.680	3.661	3.419
360.0	398.4	645.1	915.0	939.0	803.6	695.1	633.8	621.7	653.0	706.7	749.7	791.2	802.4	774.3	707.5	616.6	543.8	477.2	414.3	414.7	432.8	258.1	169.6	133.4	139.6	198.4	495.9	2627	3146	339.4	10.39	2.913	2.108	1.476	1.076	1.165	0.929	0.832	0.813	0.641	0.779	0.706	0.696	0.866	1.008	1.417	1.686	2.104	2.667	2.661	2.699	3.010	2.960	3.021	2.668	2.747	2.843	2.788	2.731	2.553	3.006	3.009	3.423	3.287	3.524	3.716	3.469	3.773	3.963	3.786	4.046	4.014	4.146	4.099	3.882	3.666	3.489
365.0	392.6	625.6	874.6	911.0	822.3	740.4	676.3	651.2	669.8	722.5	758.1	774.6	786.4	766.9	705.6	631.1	562.4	494.2	435.3	394.0	423.7	371.1	217.8	153.5	122.3	108.9	153.4	734.7	3113	2914	48.75	5.283	2.642	1.649	1.393	1.220	0.883	0.826	0.705	0.698	0.728	0.729	0.803	0.865	1.102	1.424	1.488	2.146	2.486	2.717	2.603	3.035	3.206	2.877	2.894	2.863	2.930	2.942	3.033	2.631	3.104	3.180	3.366	3.436	3.644	3.496	3.313	3.683	3.639	3.705	3.904	3.701	3.997	4.054	3.894	3.746	3.580
370.0	363.3	588.9	825.4	889.0	839.5	760.7	709.5	683.5	695.4	729.6	762.1	770.5	775.0	750.9	699.1	632.0	574.8	519.0	464.6	415.8	388.6	403.8	338.0	213.9	150.9	114.2	98.23	206.6	871.0	2426	2883	909.0	16.17	2.617	1.776	1.324	0.970	0.941	0.902	0.825	0.735	0.750	0.782	0.847	1.074	1.375	1.515	2.096	2.417	2.425	2.611	2.992	3.124	3.103	2.903	2.929	3.007	3.146	3.140	2.951	3.269	3.256	3.201	3.493	3.410	3.469	3.402	3.419	3.627	3.763	3.788	3.782	3.673	3.874	3.854	3.779	3.699
375.0	350.4	577.9	779.4	874.3	856.2	795.8	737.9	707.0	715.2	733.5	759.4	767.3	748.7	736.2	682.6	628.6	585.1	538.4	486.6	444.4	401.3	374.0	391.0	328.4	199.1	144.9	110.4	109.6	237.6	583.2	1633	3545	335.5	18.89	2.473	1.720	1.249	1.080	1.019	0.850	0.752	0.867	0.822	0.884	1.114	1.244	1.523	2.017	2.388	2.305	2.492	3.151	3.152	3.063	3.028	3.175	3.092	2.939	3.238	3.137	3.327	3.234	3.311	3.404	3.379	3.375	3.726	3.456	3.475	3.758	3.838	3.829	3.762	3.775	3.712	3.637	3.832
380.0	355.0	555.7	752.9	869.5	851.8	804.6	759.6	718.1	723.7	732.7	750.0	755.1	738.9	719.3	675.2	627.7	586.5	546.8	505.9	461.3	418.1	379.6	366.8	388.4	266.6	175.2	131.8	103.4	109.7	168.9	428.7	2228	2709	287.9	9.339	2.323	1.513	1.168	1.048	0.922	0.804	0.877	0.821	0.948	1.122	1.208	1.564	2.119	2.327	2.252	2.504	3.091	3.263	3.303	3.145	3.266	3.279	3.084	3.340	3.255	3.318	3.250	3.340	3.381	3.247	3.580	3.641	3.480	3.681	3.726	3.662	3.779	3.918	3.671	3.895	3.502	3.996
385.0	335.8	538.3	750.9	868.7	845.5	807.4	774.4	734.4	726.6	741.8	742.8	741.4	727.1	704.5	666.4	622.1	584.5	550.0	518.5	470.1	434.2	393.7	361.7	375.8	344.5	218.6	155.6	119.7	95.69	90.20	132.2	615.0	2446	2410	215.2	4.368	1.771	1.471	1.171	1.169	0.834	0.803	0.897	0.896	1.101	1.211	1.550	2.011	2.444	2.187	2.465	2.820	3.087	3.184	3.361	3.292	3.205	3.085	3.133	3.190	3.508	3.205	3.364	3.451	3.211	3.570	3.522	3.410	3.670	3.554	3.572	3.801	3.614	3.719	3.732	3.827	3.871
390.0	335.0	535.0	716.7	834.9	838.4	813.2	776.8	740.1	731.4	727.2	734.3	726.9	706.9	693.4	650.1	610.0	581.8	546.8	524.3	486.3	447.0	412.3	376.4	353.1	355.4	309.4	207.0	150.5	116.7	92.21	80.47	172.0	675.5	1835	2170	685.5	13.66	2.082	1.481	1.147	0.856	0.941	0.871	0.891	1.113	1.288	1.449	1.742	2.211	2.195	2.297	2.847	3.118	3.069	3.153	3.201	3.347	3.204	3.278	3.175	3.375	3.296	3.386	3.474	3.297	3.479	3.341	3.353	3.464	3.537	3.441	3.692	3.507	3.622	3.733	3.548	3.858
395.0	331.3	518.2	703.1	826.6	838.5	809.3	773.0	748.0	735.5	730.4	717.7	703.1	698.2	669.8	635.9	600.0	567.4	542.5	516.6	487.6	458.1	428.1	393.8	360.3	334.0	337.4	293.4	198.1	147.1	115.4	88.58	87.44	182.2	439.1	1187	2550	277.4	15.95	2.163	1.466	1.054	1.021	0.958	0.986	1.038	1.188	1.401	1.760	2.132	2.112	2.377	2.827	2.793	3.066	3.302	2.973	3.163	3.190	3.328	3.235	3.250	3.277	3.261	3.202	3.432	3.153	3.305	3.168	3.216	3.489	3.301	3.493	3.506	3.724	3.634	3.747	3.575
400.0	310.7	512.9	698.1	797.2	835.8	809.8	775.7	746.0	727.0	722.6	712.1	702.5	686.4	656.1	623.2	585.0	558.6	535.9	509.9	486.1	460.0	431.4	406.8	371.4	335.8	322.8	331.0	253.1	176.9	137.0	104.9	81.66	80.58	126.3	312.7	1582	2182	242.4	7.812	1.829	1.330	1.081	1.012	1.166	1.059	1.370	1.397	1.754	1.854	2.098	2.436	2.772	3.114	2.958	3.086	3.014	3.447	3.375	3.389	3.201	3.322	3.402	3.218	2.916	3.181	3.254	3.166	2.960	3.344	3.204	3.289	3.305	3.432	3.490	3.528	3.721	3.590
405.0	319.7	505.9	668.8	794.3	814.0	795.7	772.4	754.9	731.8	716.8	702.6	687.4	676.6	645.0	615.8	569.2	546.6	521.5	501.5	480.9	459.0	435.0	412.3	377.3	347.8	317.8	317.7	305.2	216.4	158.9	123.4	91.72	70.57	63.53	95.03	432.8	1771	1957	183.3	3.346	1.898	1.162	1.169	0.973	1.054	1.238	1.339	1.832	2.012	1.990	2.296	2.720	3.084	2.920	3.054	3.003	3.401	3.214	3.299	3.086	3.415	3.133	3.088	3.405	3.317	3.081	3.029	3.092	3.263	3.139	3.423	3.362	3.480	3.525	3.351	3.475	3.540
410.0	301.5	475.7	658.2	759.5	801.1	785.5	763.2	743.8	721.9	708.0	689.8	682.6	656.3	624.8	589.5	551.9	523.9	499.9	481.1	466.9	451.6	429.7	414.0	387.6	358.3	327.4	305.6	303.7	277.3	202.2	147.4	110.6	81.87	60.35	53.95	119.1	481.9	1383	1638	539.5	12.45	1.723	1.329	1.175	1.277	1.244	1.369	1.707	2.002	1.938	2.173	2.638	2.975	2.878	3.158	3.106	3.304	3.277	3.429	3.133	3.325	3.188	3.246	3.314	3.225	3.105	3.123	3.025	3.162	2.973	3.315	3.284	3.505	3.436	3.395	3.321	3.344
415.0	273.3	462.3	649.2	735.4	766.5	768.2	748.3	735.9	715.1	692.9	672.6	652.6	630.1	601.4	565.8	524.3	495.0	477.8	457.9	446.3	435.3	421.8	405.6	383.3	360.2	330.7	307.0	287.0	288.2	257.1	177.9	130.6	96.09	70.72	52.82	54.30	127.1	327.2	852.0	1844	251.6	15.03	1.673	1.391	1.278	1.375	1.421	1.609	1.809	1.944	2.209	2.533	2.826	2.839	3.084	3.030	3.090	3.210	3.105	3.124	3.320	3.050	2.985	3.094	3.080	3.003	3.069	3.028	3.006	3.100	3.173	3.031	3.126	3.216	3.312	3.253	3.150
420.0	282.6	436.8	616.5	719.5	756.5	748.6	734.3	728.0	707.0	678.7	662.6	638.7	605.4	579.3	541.9	500.9	474.8	456.8	443.8	428.6	418.1	406.2	392.9	381.1	360.1	337.3	310.4	284.4	271.3	276.2	214.7	143.7	105.3	78.53	58.44	45.10	50.77	88.64	217.7	1094	1685	221.3	7.049	1.854	1.366	1.380	1.411	1.591	1.931	1.985	2.035	2.568	2.886	2.682	3.050	2.838	3.166	3.210	3.257	3.089	3.212	3.210	3.037	3.213	3.109	3.135	2.971	2.958	3.082	2.978	2.953	2.943	3.133	3.113	2.994	2.968	3.145
425.0	269.3	430.1	600.1	698.4	738.8	737.1	721.0	718.0	698.1	666.8	650.5	629.5	591.2	563.9	521.8	481.5	455.1	437.4	427.5	414.1	402.4	392.6	382.4	370.5	354.6	332.1	311.6	287.0	263.7	261.0	245.5	167.7	118.6	88.19	64.06	48.91	37.51	38.64	60.94	294.1	1269	1472	33.73	3.397	1.725	1.448	1.457	1.553	1.943	1.935	1.969	2.419	2.869	2.895	2.950	2.730	3.152	3.368	3.223	2.978	3.006	3.195	3.323	2.921	3.142	2.929	3.017	2.834	2.917	2.971	2.964	3.034	3.016	2.929	2.945	2.592	3.042
430.0	299.3	418.1	568.2	670.0	704.6	710.8	714.8	712.4	689.8	663.2	646.3	614.4	576.7	538.5	499.2	456.4	431.0	417.9	405.1	391.8	383.5	373.9	366.5	358.9	346.4	329.2	310.6	289.4	266.0	246.8	237.8	205.3	143.2	99.59	74.23	56.63	41.83	32.25	29.75	76.90	335.1	977.0	1232	446.3	11.66	1.851	1.663	1.601	1.916	1.957	1.899	2.332	2.781	2.679	2.721	2.705	3.037	3.150	3.184	3.070	3.186	3.113	3.133	2.875	3.054	2.815	2.946	2.824	2.913	2.770	2.843	2.730	2.817	2.896	2.888	2.691	2.889
435.0	408.8	413.2	545.6	628.2	687.5	694.9	709.9	695.4	683.2	655.8	631.6	601.2	559.3	515.7	479.9	436.3	409.5	395.6	380.0	369.2	358.5	357.1	348.6	342.8	335.9	322.1	306.6	288.0	267.5	247.8	222.2	204.9	180.2	120.4	86.05	65.98	49.13	35.87	27.55	32.42	85.12	228.9	612.6	1503	237.4	15.03	2.152	1.786	2.006	1.836	1.995	2.369	2.519	2.740	2.974	2.864	2.939	3.160	3.155	3.065	3.029	3.155	3.052	2.947	2.902	2.976	2.794	2.903	2.899	2.647	2.649	2.716	2.818	2.822	2.621	2.808	2.758
440.0	465.2	414.9	523.5	611.3	666.9	683.0	691.6	690.2	674.2	656.7	631.4	591.3	545.2	497.5	459.2	420.6	390.0	375.4	364.3	350.7	341.0	343.7	334.3	332.0	325.8	313.8	298.0	284.3	267.3	246.3	218.3	194.0	188.1	144.4	96.36	72.91	53.99	40.27	30.33	25.39	31.57	60.44	154.9	876.5	1496	208.2	7.568	2.215	2.066	1.885	1.920	2.302	2.484	2.830	2.777	2.712	3.038	3.202	3.077	2.987	2.908	3.183	3.036	3.047	2.848	3.000	2.870	2.663	2.704	2.564	2.609	2.612	2.696	2.872	2.607	2.589	2.686
445.0	483.6	537.1	500.7	581.7	640.7	653.4	675.5	675.2	658.2	644.4	615.6	576.9	537.3	483.4	440.8	396.6	370.3	359.0	344.2	334.6	325.9	324.3	319.0	318.1	314.7	303.3	290.5	278.4	264.3	246.6	215.8	188.9	173.9	160.0	111.4	77.79	60.01	43.89	33.69	25.57	21.47	24.26	42.84	233.1	1105	1327	145.8	4.052	2.081	1.947	1.924	2.254	2.463	2.429	2.780	2.764	3.027	2.990	2.997	2.888	3.048	3.112	3.033	2.924	2.785	2.874	2.881	2.643	2.659	2.481	2.583	2.722	2.573	2.643	2.617	2.493	2.440
450.0	371.6	788.1	589.8	558.7	607.8	618.8	640.7	643.1	628.6	622.2	598.3	553.7	505.0	458.9	414.4	370.9	344.6	333.0	318.5	309.8	303.6	299.4	297.6	297.0	293.9	286.5	275.1	265.0	255.7	237.6	213.3	184.1	160.7	148.2	129.3	91.45	65.56	49.52	38.38	28.86	22.81	18.80	19.97	59.99	289.0	849.9	1140	403.2	10.46	2.143	1.903	2.310	2.443	2.432	2.518	2.625	2.798	2.762	3.074	2.897	2.970	2.995	2.916	2.866	2.701	2.585	2.598	2.609	2.427	2.390	2.486	2.507	2.505	2.374	2.529	2.311	2.510
455.0	236.6	826.2	985.9	528.1	555.3	578.9	592.3	609.0	592.2	590.7	568.1	517.8	466.5	424.3	386.9	346.1	318.5	300.4	290.3	283.4	277.5	272.4	271.0	272.8	267.1	264.9	253.7	247.7	239.0	223.6	204.3	178.6	153.8	131.4	122.6	109.9	75.86	53.71	43.01	32.90	25.84	20.14	16.59	22.69	71.43	197.2	511.3	1238	199.8	12.22	2.326	2.254	2.370	2.303	2.417	2.457	2.548	2.668	2.815	2.785	2.734	2.862	2.554	2.661	2.844	2.562	2.411	2.502	2.488	2.381	2.346	2.352	2.260	2.108	2.141	2.157	2.339
460.0	200.1	592.5	1340	635.9	529.7	552.6	570.5	564.2	562.6	548.3	530.9	493.5	438.4	401.3	352.5	320.1	294.5	281.5	271.3	263.8	253.3	251.8	251.7	252.5	247.6	246.1	238.3	234.6	224.5	217.2	197.7	172.0	148.9	126.6	110.7	110.5	87.13	59.08	45.03	34.76	27.25	22.11	17.31	15.17	23.48	50.56	126.1	669.2	1129	162.4	7.277	2.307	2.382	2.435	2.152	2.291	2.574	2.651	2.652	2.662	2.649	2.763	2.719	2.369	2.527	2.557	2.283	2.231	2.493	2.028	2.196	2.214	2.244	1.961	2.067	1.911	1.866
465.0	177.2	396.8	1403	865.1	515.6	504.6	532.0	534.0	532.1	518.2	510.3	467.1	418.0	374.6	333.6	296.0	276.2	259.4	251.2	242.2	233.2	234.2	230.7	231.8	230.1	230.2	222.0	218.4	210.1	201.8	187.0	163.9	143.8	122.3	102.7	98.51	93.71	66.40	47.16	36.27	29.65	23.47	18.74	14.45	14.04	18.27	34.06	173.9	811.9	981.1	125.4	4.371	2.466	2.188	2.284	2.142	2.612	2.525	2.475	2.444	2.442	2.579	2.477	2.354	2.329	2.177	2.250	2.191	2.164	2.145	1.961	1.919	2.130	1.917	1.951	1.919	1.869
470.0	170.5	280.5	896.2	1609	613.7	462.9	483.4	494.7	487.7	476.8	460.4	427.8	379.8	337.9	299.1	269.1	248.5	232.7	223.3	216.4	208.8	208.4	205.3	208.2	206.1	203.6	199.7	196.9	192.5	185.8	170.7	152.7	135.4	114.6	96.94	85.53	82.30	73.82	53.59	37.74	30.34	24.93	19.55	15.71	13.16	12.15	14.22	44.21	210.2	599.3	786.0	317.9	11.06	2.292	2.208	2.181	2.261	2.395	2.304	2.281	2.369	2.355	2.350	2.134	2.286	2.122	2.133	1.983	2.049	1.867	1.899	1.851	1.879	1.723	1.810	1.728	1.793
475.0	182.0	230.0	459.8	1475	1327	437.0	428.2	448.1	437.8	433.0	420.3	385.0	340.1	302.6	265.8	241.0	221.8	206.3	199.2	190.7	184.1	184.8	182.3	182.0	180.1	179.7	177.1	174.1	171.8	165.8	154.6	140.5	123.0	106.1	90.70	79.08	69.95	67.57	61.29	43.71	31.53	25.81	21.15	17.07	14.38	11.53	10.62	15.86	51.82	138.7	308.8	807.4	202.0	13.60	2.360	2.138	2.135	2.074	2.116	2.134	2.053	2.123	1.980	1.937	2.130	1.955	2.002	1.907	1.704	1.716	1.620	1.480	1.620	1.718	1.608	1.553	1.581
480.0	175.9	229.7	309.7	943.4	1880	541.0	395.4	407.5	402.8	394.4	394.9	357.6	318.3	281.9	243.9	222.3	203.9	188.5	181.3	172.9	166.9	167.3	165.4	165.7	164.4	165.1	162.6	158.4	158.0	153.3	144.4	129.4	114.3	99.79	86.24	74.07	64.99	59.16	59.52	49.20	33.82	26.31	21.69	18.01	14.78	12.42	10.12	10.17	16.64	35.16	75.33	376.4	789.1	180.6	8.153	2.176	2.059	1.930	2.036	2.023	1.953	2.013	1.921	1.834	1.897	1.610	1.924	1.923	1.639	1.660	1.488	1.402	1.537	1.577	1.434	1.430	1.447
485.0	154.0	229.5	266.2	530.1	1897	1085	379.7	383.1	382.9	368.4	360.4	336.7	296.9	262.7	228.2	207.9	189.0	174.5	167.9	160.5	155.7	154.2	152.0	152.3	152.1	152.6	150.1	146.2	146.8	142.4	134.1	121.2	108.4	95.04	82.25	71.17	61.93	53.42	52.47	51.92	38.72	27.59	22.20	18.51	15.85	12.73	10.99	8.916	9.041	12.47	20.65	94.77	506.3	763.3	141.2	4.153	2.122	2.008	1.911	1.879	1.981	1.875	2.048	1.808	1.860	1.590	1.899	1.783	1.649	1.490	1.463	1.318	1.514	1.403	1.442	1.401	1.433
490.0	119.9	226.4	263.4	343.6	1087	1849	579.3	345.7	349.8	345.6	332.1	307.9	274.6	243.7	211.8	189.7	170.3	161.3	152.0	145.4	140.4	138.2	136.2	137.2	136.3	136.3	134.7	134.6	132.4	129.3	123.3	112.8	101.7	87.96	77.58	67.97	58.93	51.07	45.87	46.05	43.55	32.40	23.53	19.26	16.20	13.73	11.68	9.539	8.050	7.816	8.764	24.85	127.3	401.8	642.1	303.2	12.69	2.280	1.986	1.849	1.816	1.856	1.724	1.701	1.784	1.592	1.737	1.538	1.507	1.519	1.362	1.401	1.419	1.357	1.332	1.273	1.279
495.0	94.18	198.7	277.9	269.2	477.6	1668	1367	345.0	313.5	312.8	302.9	280.1	244.8	220.2	187.6	167.5	152.9	144.3	135.5	128.4	126.2	123.5	121.4	119.8	121.5	119.4	120.6	119.4	117.6	116.0	111.1	102.2	92.59	80.94	70.76	63.08	56.06	47.89	42.43	39.02	39.14	36.80	26.88	19.97	16.21	13.88	11.91	10.31	8.632	7.322	6.195	9.547	31.64	92.77	246.2	719.3	226.9	17.67	2.148	1.823	1.668	1.629	1.628	1.661	1.596	1.521	1.385	1.480	1.457	1.451	1.388	1.257	1.174	1.190	1.146	1.230	1.151
500.0	89.86	159.3	273.0	258.4	302.8	1005	2022	490.5	294.0	288.7	281.1	258.8	228.9	200.7	172.3	157.1	140.2	132.5	122.6	115.0	113.4	112.3	108.6	107.6	109.1	107.4	107.4	108.4	107.6	105.9	101.3	92.12	84.11	74.79	66.24	58.73	51.68	45.75	39.64	35.78	33.13	35.81	30.04	21.00	16.50	13.93	11.87	10.34	8.811	7.512	6.006	5.959	10.49	23.79	59.34	315.7	737.6	214.4	10.65	1.957	1.806	1.513	1.453	1.479	1.535	1.466	1.340	1.383	1.313	1.354	1.232	1.265	1.167	1.167	1.129	1.170	1.112
505.0	74.04	131.8	250.1	256.2	248.5	495.4	2051	984.4	272.1	266.9	255.6	237.1	206.0	182.7	156.8	139.8	127.8	120.1	112.5	106.3	103.5	101.6	98.74	98.33	97.19	97.95	96.55	97.51	98.02	97.08	92.15	84.72	76.65	69.52	61.38	54.01	48.60	42.17	37.63	33.24	29.73	30.55	32.13	23.78	16.81	14.18	12.30	10.47	9.245	7.739	5.961	5.479	6.020	8.508	16.05	77.59	399.8	771.2	165.0	4.825	1.708	1.543	1.438	1.390	1.354	1.327	1.201	1.201	1.331	1.175	1.141	1.161	1.123	1.020	1.003	0.933	1.059
510.0	72.38	116.1	200.5	264.6	220.7	277.4	1128	1896	459.8	232.0	226.0	205.5	184.0	162.5	140.6	123.2	112.3	104.3	97.84	93.73	88.92	88.58	87.12	86.00	86.13	85.87	84.26	85.52	84.48	84.48	81.28	74.61	67.43	61.18	54.65	48.61	43.22	38.77	34.48	30.69	26.14	25.38	26.62	25.64	19.05	14.30	11.93	10.31	8.793	7.462	6.444	5.655	4.789	5.116	6.593	19.99	97.70	356.7	532.7	255.5	13.31	1.713	1.524	1.362	1.275	1.190	1.143	1.151	1.067	0.980	1.026	0.910	1.083	0.936	0.833	0.966	0.873
515.0	65.08	95.11	153.4	238.0	221.8	202.9	416.9	1787	1301	226.0	196.2	178.8	162.2	141.0	121.6	107.0	97.20	89.60	84.13	81.09	77.54	76.45	74.44	74.70	74.46	72.26	71.71	73.84	72.69	72.24	70.17	64.44	58.92	53.92	47.93	42.87	38.52	34.73	30.57	27.76	23.83	21.87	20.92	22.80	22.02	16.13	11.83	9.602	8.410	7.309	6.358	5.807	4.713	4.229	4.366	7.071	24.13	81.79	171.3	510.4	230.1	18.01	1.541	1.254	1.140	1.128	1.132	1.056	1.072	0.915	0.945	0.915	0.968	0.907	0.771	0.823	0.847
520.0	59.48	90.28	126.7	198.1	235.8	176.0	223.8	1008	2133	283.9	178.4	163.5	146.1	128.0	111.4	96.43	87.27	81.13	74.70	71.53	68.39	67.84	65.85	65.51	65.41	64.80	64.10	65.64	64.18	64.00	62.60	58.36	53.11	47.92	43.74	39.12	35.01	32.13	27.69	24.64	22.73	20.18	18.32	18.74	21.50	18.11	11.83	9.632	8.140	7.441	6.164	5.517	4.889	4.227	4.006	4.273	7.747	20.30	40.71	200.3	526.1	209.1	11.28	1.344	1.052	1.031	1.017	1.005	0.920	0.933	0.840	0.790	0.880	0.748	0.802	0.749	0.787
525.0	47.82	81.12	104.0	152.9	238.7	162.0	168.5	430.4	2270	873.5	164.8	146.1	134.3	112.0	97.81	87.50	80.24	72.50	68.29	64.23	62.43	61.59	58.00	58.95	58.79	58.04	58.72	57.68	57.89	57.20	55.28	51.21	47.52	43.47	39.04	36.46	32.56	29.57	26.23	23.10	20.74	18.43	16.42	15.77	17.44	17.88	13.19	9.833	7.948	6.874	5.904	5.296	5.115	4.653	3.722	3.396	3.954	6.495	10.97	48.20	255.7	521.2	159.4	4.783	1.114	0.937	0.925	0.963	0.791	0.868	0.814	0.693	0.822	0.819	0.719	0.586	0.740
530.0	42.64	67.29	92.69	116.4	191.5	190.9	146.2	206.0	1181	1987	351.1	128.0	115.0	100.1	86.66	75.69	69.40	62.89	58.84	56.04	53.56	52.61	50.44	51.21	49.84	49.56	50.30	49.55	49.39	49.52	47.54	44.72	41.46	38.21	33.96	31.73	28.42	25.79	22.93	20.60	18.58	16.58	14.69	13.99	13.57	15.51	14.94	11.14	7.724	6.458	5.389	4.995	4.411	4.281	4.015	3.167	2.984	3.483	4.165	12.32	61.37	220.7	369.9	209.8	13.72	1.108	0.903	0.848	0.683	0.840	0.736	0.674	0.662	0.628	0.664	0.584	0.628
535.0	37.42	50.88	78.57	98.86	135.2	198.8	133.6	139.8	377.2	1854	1269	126.1	96.30	84.12	73.54	65.51	58.76	53.97	49.60	48.43	45.41	43.79	43.74	42.99	42.24	40.60	41.50	41.16	41.94	42.05	39.61	38.84	35.04	31.69	29.13	26.81	24.58	21.55	20.30	18.13	16.53	15.06	13.19	12.70	11.22	11.54	13.18	12.31	8.350	6.421	5.034	4.697	3.943	3.747	4.029	3.370	2.527	2.545	2.563	4.208	14.95	50.50	108.2	358.8	230.3	18.54	1.132	0.775	0.678	0.834	0.720	0.636	0.676	0.544	0.643	0.571	0.496
540.0	41.02	50.78	76.70	84.51	105.6	175.7	144.8	116.6	166.8	942.1	2212	195.5	87.76	74.68	66.84	56.60	51.57	46.01	44.31	42.22	39.18	38.40	38.14	37.52	36.76	36.34	36.36	35.93	35.80	35.52	35.38	33.61	30.47	28.06	25.47	23.08	21.59	19.43	17.61	16.05	14.66	13.14	11.73	10.93	10.25	9.603	10.15	11.60	9.219	6.459	4.802	4.348	3.774	3.351	3.627	3.441	2.607	2.286	2.118	2.321	4.698	12.44	25.61	128.3	363.6	195.7	11.38	0.839	0.711	0.667	0.662	0.514	0.580	0.503	0.476	0.591	0.473
545.0	37.07	50.25	67.75	75.82	84.04	139.7	164.7	102.4	114.4	350.6	2291	697.5	80.17	66.93	60.16	51.30	46.24	40.57	39.50	36.69	35.17	34.21	34.22	33.01	32.37	32.36	31.64	31.80	31.51	31.55	30.60	29.30	26.58	25.45	22.68	21.12	19.44	17.50	15.77	14.61	13.41	11.88	10.50	10.11	9.230	8.286	7.849	9.398	9.508	6.992	4.631	3.932	3.275	3.239	3.193	3.150	2.993	2.248	1.943	1.696	2.274	3.957	6.904	30.43	156.6	358.0	136.5	4.641	0.738	0.635	0.540	0.570	0.495	0.508	0.404	0.508	0.429
550.0	31.15	52.07	63.12	64.88	72.04	93.75	160.1	109.2	87.93	145.1	1082	1744	139.9	57.65	47.98	43.68	39.16	35.21	32.65	31.53	29.92	28.33	28.32	27.09	26.46	26.56	26.67	26.41	26.96	25.96	25.72	24.15	22.65	21.16	18.76	17.38	16.39	14.78	13.41	12.25	11.15	10.21	9.372	8.548	7.707	7.304	6.489	6.683	8.084	7.243	5.108	3.638	3.024	2.870	2.680	2.538	2.807	2.533	1.854	1.627	1.607	1.940	2.446	7.735	37.01	137.7	249.5	131.7	13.48	0.818	0.536	0.581	0.474	0.459	0.458	0.460	0.443
555.0	35.91	50.29	60.92	56.08	59.29	63.83	117.6	131.6	72.96	83.77	312.7	1712	855.7	55.51	39.06	34.76	31.13	29.05	27.85	24.94	23.79	22.32	22.92	21.96	22.62	22.07	21.09	20.99	21.29	20.73	21.22	19.29	18.63	16.58	15.63	14.24	13.27	11.99	11.08	10.07	9.410	8.710	7.429	7.214	6.287	5.871	5.414	4.995	5.498	6.424	5.698	3.713	2.785	2.412	2.249	2.179	2.211	2.206	2.062	1.629	1.354	1.339	1.442	2.562	9.079	31.38	70.19	206.8	189.6	17.13	0.781	0.569	0.408	0.426	0.453	0.415	0.331
560.0	34.50	47.55	56.45	48.76	51.76	55.55	80.03	143.8	76.14	66.99	116.5	864.7	1700	105.4	34.81	30.22	25.84	24.29	22.10	20.69	20.31	19.41	19.26	18.80	18.63	17.91	17.43	17.70	18.13	17.48	17.41	16.17	15.70	14.18	12.66	11.93	11.04	10.39	9.465	8.562	7.799	7.399	6.424	6.319	5.462	5.354	4.874	4.302	4.125	4.995	5.478	4.078	2.664	2.197	1.980	1.985	1.847	1.798	2.072	1.686	1.415	1.097	1.093	1.435	2.794	7.722	16.51	71.98	231.1	140.8	9.289	0.480	0.418	0.473	0.412	0.413	0.389
565.0	42.52	53.98	50.50	47.80	49.01	46.69	56.72	129.5	87.00	56.57	68.76	298.2	1905	407.2	30.78	25.46	22.37	20.87	18.99	17.58	17.03	16.70	16.05	15.77	15.52	14.57	14.38	15.37	14.77	15.21	14.00	14.12	13.13	12.76	11.17	10.39	9.753	8.395	8.327	7.237	6.585	6.428	5.771	5.395	4.860	4.488	4.176	3.859	3.644	3.674	4.447	4.363	2.904	2.217	1.800	1.659	1.721	1.616	1.739	1.806	1.459	1.087	1.103	1.085	1.400	2.444	4.349	17.11	92.15	219.2	91.09	3.500	0.439	0.477	0.393	0.361	0.357
570.0	36.39	48.92	53.95	45.47	39.90	36.10	43.13	85.46	110.3	56.80	54.60	105.1	941.8	1267	74.70	20.95	19.01	17.18	15.75	14.46	14.19	13.58	13.04	12.92	12.71	11.99	12.31	12.13	11.71	12.25	11.76	11.61	10.43	10.03	8.838	8.262	7.457	7.218	6.764	6.164	5.606	5.039	4.806	4.309	4.034	3.803	3.566	3.241	2.922	2.770	3.091	3.723	3.095	2.300	1.664	1.518	1.433	1.272	1.364	1.454	1.588	1.246	1.002	0.902	0.936	1.189	1.554	4.451	21.69	79.21	146.1	89.47	11.89	0.567	0.400	0.345	0.340
575.0	38.74	50.75	54.49	40.31	36.30	33.46	35.93	50.87	108.6	71.92	48.08	59.12	258.1	1350	532.2	18.59	15.57	13.23	12.99	11.40	11.28	10.47	10.22	10.21	10.05	9.554	9.408	9.579	9.728	9.699	9.400	9.085	8.158	7.602	7.104	6.677	5.929	5.688	5.283	4.903	4.430	3.962	3.998	3.650	3.408	3.165	2.961	2.586	2.460	2.236	2.097	2.634	2.820	2.380	1.781	1.352	1.331	1.165	0.990	1.133	1.335	1.498	1.115	0.738	0.823	0.899	0.972	1.587	5.445	18.21	39.49	116.3	119.6	14.67	0.494	0.351	0.355
580.0	35.47	47.43	53.24	38.96	33.28	29.46	31.08	36.99	91.05	93.01	48.08	47.90	86.01	710.6	1034	43.75	13.21	11.83	10.48	9.771	9.726	8.985	8.875	8.782	8.455	7.995	7.734	8.056	8.456	8.258	7.848	7.333	7.132	6.649	5.977	5.638	5.253	4.890	4.588	4.101	3.912	3.731	3.665	3.135	2.865	2.643	2.527	2.278	2.241	1.936	1.726	1.963	2.308	2.497	1.723	1.209	1.153	1.159	0.967	1.013	0.945	1.206	1.379	0.822	0.789	0.768	0.790	1.023	1.768	4.593	9.346	37.58	134.2	92.10	6.942	0.308	0.308
585.0	33.10	47.16	49.85	36.81	29.01	25.89	28.12	32.63	59.38	109.5	51.58	42.09	47.67	237.5	1337	108.9	12.36	10.31	9.278	8.244	8.320	7.982	8.044	7.382	6.870	6.366	6.777	7.350	6.940	7.139	6.538	6.078	5.765	5.691	5.016	4.660	4.605	4.125	3.980	3.700	3.324	3.320	2.945	2.607	2.441	2.193	2.098	1.941	1.845	1.660	1.430	1.646	1.577	2.262	2.032	1.304	1.093	0.987	0.953	0.802	0.822	0.904	1.384	1.130	0.767	0.706	0.684	0.801	0.826	1.523	2.551	8.991	49.59	128.7	33.57	3.013	0.289
590.0	31.64	44.63	47.19	36.96	28.01	24.20	26.45	28.86	39.76	94.12	74.24	42.67	37.19	74.59	691.0	751.9	35.35	8.615	7.780	7.209	7.049	6.477	6.231	6.018	6.102	5.679	5.766	5.905	5.577	5.483	5.528	5.143	4.818	4.574	4.185	3.810	3.704	3.526	3.044	3.055	2.603	2.484	2.531	2.204	2.031	1.853	1.774	1.837	1.584	1.420	1.275	1.239	1.120	1.559	1.933	1.594	1.050	0.909	0.777	0.778	0.714	0.727	0.915	1.048	0.924	0.733	0.640	0.764	0.690	0.793	1.024	2.431	11.64	43.81	79.62	60.62	10.42
595.0	33.85	43.09	46.31	35.98	25.67	21.93	22.67	27.16	32.02	62.67	96.94	46.66	36.54	37.47	183.2	899.5	257.8	7.695	6.479	5.794	6.094	5.260	4.661	4.758	4.959	4.648	4.497	4.758	4.417	4.456	4.410	3.996	4.236	3.743	3.478	3.025	2.971	2.816	2.517	2.464	1.997	1.906	1.926	1.731	1.710	1.508	1.506	1.428	1.284	1.162	1.072	0.936	0.961	1.015	1.416	1.663	1.231	0.839	0.758	0.630	0.628	0.606	0.734	0.835	1.030	0.801	0.654	0.644	0.626	0.577	0.655	0.858	2.946	10.03	20.75	64.29	75.38
600.0	34.89	36.82	41.86	33.16	23.73	20.44	20.53	26.54	31.21	43.48	93.58	57.88	36.16	27.74	55.37	516.1	622.7	16.65	6.064	5.376	4.840	4.211	3.798	3.777	3.915	3.939	3.633	3.819	3.822	3.768	3.601	3.622	3.408	3.111	3.012	2.625	2.397	2.267	2.061	1.921	1.632	1.639	1.691	1.518	1.533	1.353	1.200	1.222	1.137	1.049	0.913	0.888	0.779	0.745	0.924	1.310	1.388	0.945	0.673	0.516	0.669	0.632	0.537	0.631	0.861	1.019	0.648	0.597	0.539	0.439	0.494	0.479	0.941	2.547	4.933	19.98	76.26
605.0	29.81	34.48	44.07	27.91	21.78	20.01	20.29	25.35	30.80	37.59	77.10	73.01	36.51	26.25	25.98	176.4	808.8	70.93	5.724	4.497	4.507	3.913	3.692	3.572	3.576	3.091	3.244	3.043	3.247	3.339	2.992	3.204	3.059	2.559	2.579	2.408	2.362	2.039	1.824	1.636	1.695	1.442	1.603	1.340	1.390	1.185	1.162	1.035	1.070	0.967	0.775	0.772	0.671	0.650	0.789	0.983	1.278	1.003	0.709	0.471	0.532	0.592	0.532	0.518	0.536	0.818	0.828	0.600	0.505	0.495	0.483	0.407	0.539	0.835	1.410	4.766	26.48
610.0	28.40	33.09	37.84	27.63	22.01	19.99	19.91	23.83	28.70	33.76	54.74	85.02	42.84	27.84	20.20	50.55	478.5	433.4	14.82	3.823	3.699	3.140	3.191	3.151	3.066	2.893	2.752	2.632	2.804	2.582	2.511	2.441	2.280	2.131	2.032	1.914	1.731	1.791	1.491	1.449	1.272	1.356	1.245	1.171	1.123	0.983	0.991	0.956	0.935	0.752	0.710	0.630	0.545	0.558	0.591	0.654	0.962	1.065	0.825	0.597	0.476	0.546	0.480	0.460	0.463	0.573	0.786	0.751	0.537	0.438	0.451	0.396	0.407	0.479	0.581	1.316	6.219
615.0	27.36	37.17	33.63	24.41	19.86	20.55	20.36	23.82	29.19	32.22	41.78	71.98	59.93	28.20	19.36	20.24	130.9	597.2	73.77	3.397	3.214	2.685	2.485	2.638	2.268	2.298	2.159	2.437	2.169	2.133	1.911	2.062	1.861	1.750	1.732	1.524	1.496	1.398	1.317	1.237	1.025	1.208	1.019	0.808	0.932	0.873	0.767	0.739	0.745	0.604	0.599	0.604	0.483	0.489	0.507	0.464	0.609	0.886	0.734	0.604	0.416	0.444	0.477	0.373	0.380	0.485	0.547	0.680	0.715	0.522	0.355	0.402	0.317	0.341	0.343	0.557	1.573
620.0	28.43	33.10	29.27	27.27	19.98	19.35	19.13	23.86	27.54	30.58	36.34	58.10	66.91	30.06	18.81	13.43	36.22	389.3	347.0	6.258	2.406	2.445	2.262	2.114	1.995	2.054	1.666	1.872	1.880	1.803	1.672	1.667	1.535	1.494	1.478	1.358	1.228	1.090	1.191	0.988	0.976	0.767	0.774	0.717	0.831	0.716	0.718	0.691	0.629	0.547	0.528	0.511	0.411	0.425	0.431	0.392	0.458	0.588	0.739	0.716	0.433	0.402	0.489	0.431	0.398	0.452	0.487	0.534	0.661	0.608	0.442	0.340	0.343	0.321	0.305	0.314	0.549
625.0	22.80	30.13	32.86	24.82	18.35	17.87	19.82	20.86	24.75	31.23	35.43	47.55	71.76	36.76	18.35	12.15	14.42	146.6	534.5	37.37	2.279	2.326	1.969	1.931	1.754	1.822	1.563	1.701	1.816	1.619	1.500	1.558	1.373	1.302	1.236	1.211	1.128	0.981	0.877	0.922	0.807	0.746	0.736	0.628	0.771	0.640	0.637	0.680	0.568	0.562	0.489	0.367	0.353	0.379	0.403	0.426	0.343	0.481	0.688	0.699	0.554	0.460	0.407	0.452	0.459	0.392	0.496	0.430	0.602	0.609	0.465	0.417	0.334	0.315	0.266	0.253	0.320
630.0	21.26	25.97	28.13	25.96	18.52	16.60	18.69	20.10	26.16	29.09	34.84	38.05	57.66	46.30	19.70	12.07	9.410	39.55	361.4	260.8	6.255	1.865	1.668	1.660	1.511	1.409	1.339	1.373	1.437	1.411	1.306	1.388	1.155	1.168	0.988	1.027	0.938	0.879	0.761	0.734	0.727	0.718	0.607	0.578	0.609	0.533	0.499	0.529	0.497	0.428	0.431	0.358	0.400	0.317	0.393	0.387	0.321	0.386	0.489	0.578	0.530	0.416	0.366	0.358	0.418	0.343	0.422	0.377	0.445	0.469	0.558	0.421	0.336	0.330	0.256	0.243	0.242
635.0	19.21	24.72	29.25	24.57	17.66	15.38	19.44	18.68	23.97	27.91	31.14	35.20	41.03	52.16	22.63	12.69	8.989	13.79	103.1	429.1	52.11	1.981	1.375	1.389	1.397	1.354	1.113	0.992	1.088	1.078	1.237	0.987	0.881	0.875	0.843	0.896	0.669	0.771	0.601	0.571	0.587	0.607	0.493	0.576	0.467	0.485	0.422	0.459	0.394	0.354	0.356	0.337	0.329	0.322	0.325	0.296	0.369	0.346	0.440	0.409	0.472	0.513	0.401	0.348	0.310	0.332	0.373	0.345	0.375	0.360	0.499	0.518	0.433	0.312	0.259	0.272	0.240
640.0	21.17	29.33	25.98	20.54	17.49	16.27	18.62	18.56	23.31	26.59	31.06	33.40	35.47	47.84	30.62	12.78	9.150	8.375	27.20	317.6	211.3	3.232	1.285	1.151	1.227	0.872	1.011	0.956	0.974	0.980	1.004	0.870	0.872	0.700	0.825	0.727	0.720	0.671	0.605	0.614	0.497	0.501	0.457	0.443	0.473	0.503	0.352	0.427	0.378	0.336	0.334	0.345	0.378	0.302	0.297	0.255	0.303	0.256	0.377	0.334	0.324	0.478	0.394	0.348	0.337	0.358	0.320	0.342	0.376	0.313	0.349	0.491	0.439	0.293	0.303	0.246	0.195
645.0	22.18	29.00	29.08	19.97	17.45	15.55	17.63	18.52	21.95	26.18	31.19	32.50	34.55	40.18	37.65	14.32	10.02	7.586	9.769	135.3	361.4	18.55	1.392	1.085	1.189	0.857	0.905	0.926	0.867	0.740	0.926	0.866	0.694	0.700	0.757	0.689	0.692	0.632	0.675	0.580	0.462	0.415	0.460	0.397	0.442	0.402	0.352	0.384	0.304	0.252	0.292	0.310	0.310	0.257	0.306	0.223	0.306	0.266	0.346	0.297	0.349	0.367	0.351	0.371	0.333	0.351	0.329	0.356	0.293	0.305	0.320	0.454	0.537	0.370	0.297	0.227	0.227
650.0	25.22	29.01	29.21	22.10	15.14	15.71	17.18	16.27	21.32	26.10	31.15	31.70	32.51	33.18	41.82	16.34	10.52	7.972	6.197	39.14	356.3	63.34	1.591	1.183	0.975	0.820	0.832	0.809	0.781	0.810	0.785	0.846	0.726	0.655	0.726	0.659	0.618	0.558	0.506	0.468	0.407	0.461	0.380	0.432	0.316	0.291	0.324	0.340	0.317	0.272	0.273	0.298	0.278	0.230	0.275	0.280	0.244	0.354	0.262	0.281	0.295	0.354	0.435	0.334	0.331	0.358	0.311	0.316	0.307	0.308	0.327	0.323	0.431	0.485	0.333	0.238	0.222
