Sample:	'1
File name:	t2025061906³¯ÑôºÓ.FD3
Run date:	'14:47:28, 06/23/2025
Operator:	Administrator
Comment:	'

Instrument
Model:	F-2700 FL Spectrophotometer
Serial number:	23B8-004
ROM Version:	4J14000 07

Instrument parameters
Measurement type:	3-D scan
Data mode:	Fluorescence
EX  Start WL:	220.0 nm
EX  End WL:	600.0 nm
EX Sampling interval:	5.0 nm
EM  Start WL:	230.0 nm
EM  End WL:	650.0 nm
EM Sampling interval:	5.0 nm
Scan speed:	12000 nm/min
EX Slit:	5.0 nm
EM Slit:	5.0 nm
PMT Voltage:	700 V
Response:	Auto 
Corrected spectra:	Off
Contour interval:	50.000

Peak integration
Integration method:	Rectangular
Sensitivity:	1
Threshold:	1.000

Peaks
No.	ApexEX/EM(nm)	Height(Data)
1	225.0/345.0	1095
2	225.0/410.0	1313
3	225.0/425.0	1288
4	240.0/265.0	371.3
5	245.0/270.0	378.9
6	245.0/535.0	296.9
7	250.0/275.0	493.7
8	250.0/545.0	234.2
9	250.0/635.0	24.42
10	255.0/285.0	514.6
11	255.0/560.0	181.0
12	260.0/290.0	490.0
13	260.0/570.0	137.8
14	265.0/295.0	622.2
15	265.0/585.0	111.1
16	270.0/300.0	903.2
17	270.0/600.0	100.4
18	275.0/305.0	1007
19	275.0/335.0	751.1
20	275.0/610.0	84.93
21	280.0/310.0	935.8
22	280.0/345.0	760.3
23	280.0/625.0	73.24
24	285.0/320.0	887.5
25	285.0/635.0	51.02
26	290.0/325.0	798.3
27	305.0/345.0	499.8
28	310.0/350.0	449.2
29	315.0/355.0	453.1
30	320.0/365.0	481.9
31	485.0/265.0	1.996
32	505.0/275.0	3.005
33	510.0/280.0	3.173
34	520.0/285.0	3.453
35	520.0/440.0	5.070
36	530.0/290.0	3.135
37	535.0/270.0	41.41
38	540.0/295.0	4.317
39	545.0/300.0	4.977
40	550.0/305.0	5.373
41	560.0/310.0	5.107
42	570.0/315.0	4.999
43	580.0/320.0	4.955
44	585.0/325.0	5.115

Data points
	220.0	225.0	230.0	235.0	240.0	245.0	250.0	255.0	260.0	265.0	270.0	275.0	280.0	285.0	290.0	295.0	300.0	305.0	310.0	315.0	320.0	325.0	330.0	335.0	340.0	345.0	350.0	355.0	360.0	365.0	370.0	375.0	380.0	385.0	390.0	395.0	400.0	405.0	410.0	415.0	420.0	425.0	430.0	435.0	440.0	445.0	450.0	455.0	460.0	465.0	470.0	475.0	480.0	485.0	490.0	495.0	500.0	505.0	510.0	515.0	520.0	525.0	530.0	535.0	540.0	545.0	550.0	555.0	560.0	565.0	570.0	575.0	580.0	585.0	590.0	595.0	600.0
230.0	165.8	2475	3142	523.2	19.66	7.723	5.774	4.846	3.997	4.167	3.767	3.568	3.137	2.646	2.255	1.975	1.734	1.458	1.392	1.273	1.135	1.068	0.972	0.890	0.882	0.754	0.733	0.736	0.703	0.678	0.617	0.568	0.561	0.533	0.484	0.513	0.501	0.442	0.421	0.463	0.635	0.755	0.659	0.466	0.376	0.575	3.224	9.394	10.93	5.628	1.691	0.440	0.312	0.297	0.286	0.284	0.301	0.286	0.280	0.305	0.286	0.298	0.274	0.291	0.261	0.281	0.302	0.288	0.264	0.268	0.272	0.269	0.288	0.294	0.266	0.292	0.331
235.0	166.0	731.9	2670	2846	483.0	27.18	6.589	6.224	4.333	4.536	3.928	3.786	3.334	2.742	2.173	2.015	1.688	1.554	1.366	1.095	1.228	1.062	0.884	0.946	0.925	0.958	0.784	0.635	0.685	0.672	0.630	0.522	0.604	0.547	0.521	0.475	0.445	0.476	0.459	0.448	0.484	0.490	0.791	0.691	0.603	0.432	1.018	2.704	5.467	8.501	10.10	8.708	2.972	0.702	0.292	0.299	0.331	0.295	0.298	0.303	0.307	0.316	0.255	0.251	0.253	0.264	0.284	0.304	0.309	0.283	0.232	0.250	0.283	0.325	0.264	0.312	0.257
240.0	232.0	259.1	930.2	3224	2690	346.9	15.20	6.757	4.861	5.168	4.502	4.036	3.321	3.013	2.495	2.067	1.703	1.835	1.340	1.196	1.339	1.236	1.131	0.989	0.854	0.895	0.814	0.751	0.656	0.672	0.633	0.548	0.629	0.494	0.510	0.452	0.453	0.472	0.426	0.444	0.472	0.415	0.487	0.567	0.952	0.920	0.560	0.906	1.482	2.926	7.113	14.32	14.37	8.372	2.279	0.457	0.305	0.310	0.308	0.338	0.277	0.298	0.279	0.273	0.335	0.286	0.265	0.300	0.308	0.264	0.265	0.278	0.348	0.269	0.256	0.293	0.275
245.0	189.9	243.9	268.2	1304	3843	2492	246.3	9.743	6.918	4.981	4.292	4.934	3.338	3.156	2.627	2.257	1.733	1.668	1.184	1.381	1.300	1.129	1.067	1.065	0.902	0.929	0.904	0.731	0.744	0.704	0.747	0.591	0.611	0.582	0.531	0.447	0.485	0.459	0.452	0.384	0.410	0.377	0.412	0.416	0.604	0.897	0.927	0.780	0.639	0.882	1.917	5.906	12.94	18.09	14.96	6.200	1.618	0.353	0.324	0.297	0.257	0.280	0.300	0.279	0.290	0.278	0.312	0.340	0.249	0.284	0.281	0.307	0.321	0.302	0.296	0.301	0.320
250.0	78.75	203.1	263.5	368.5	1426	3465	3479	916.1	40.11	7.240	5.511	4.928	4.232	3.587	2.939	2.445	2.033	1.826	1.506	1.449	1.354	1.039	1.048	1.025	1.017	0.863	0.799	0.822	0.775	0.690	0.685	0.638	0.550	0.603	0.501	0.415	0.462	0.419	0.494	0.415	0.465	0.471	0.431	0.419	0.439	0.513	0.708	0.880	1.084	0.849	0.808	1.637	3.485	6.782	11.88	16.54	20.06	15.76	7.675	1.834	0.412	0.308	0.295	0.326	0.289	0.314	0.276	0.331	0.303	0.285	0.311	0.320	0.332	0.282	0.339	0.330	0.338
255.0	45.48	76.36	218.6	314.3	387.3	979.8	3733	5543	301.7	38.09	8.277	6.547	5.053	3.764	3.211	2.483	2.443	1.989	1.693	1.424	1.427	1.298	1.071	1.224	1.021	0.829	0.878	0.834	0.799	0.589	0.707	0.705	0.585	0.626	0.533	0.517	0.425	0.377	0.479	0.426	0.450	0.420	0.398	0.420	0.406	0.384	0.426	0.483	0.692	1.016	1.226	1.337	1.282	1.807	2.943	4.408	9.626	21.95	34.19	25.36	11.80	2.009	0.369	0.316	0.301	0.410	0.280	0.323	0.271	0.338	0.312	0.282	0.344	0.289	0.310	0.352	0.326
260.0	39.80	35.86	96.96	298.8	285.1	266.5	1280	5764	5671	251.3	18.58	8.799	6.252	4.911	3.499	2.657	2.257	2.224	1.899	1.525	1.539	1.172	1.128	1.086	1.002	0.964	0.844	0.846	0.833	0.748	0.601	0.661	0.629	0.601	0.566	0.474	0.530	0.402	0.411	0.426	0.469	0.515	0.419	0.414	0.392	0.421	0.363	0.377	0.447	0.585	0.911	1.918	1.722	0.971	1.049	1.334	2.573	6.575	17.89	34.62	43.63	23.05	8.336	1.084	0.309	0.339	0.339	0.378	0.342	0.286	0.310	0.270	0.298	0.301	0.361	0.288	0.359
265.0	39.32	31.07	42.71	163.5	371.3	212.8	338.4	2263	7720	5459	188.4	13.16	8.246	5.356	4.072	2.863	2.777	2.270	1.955	1.699	1.480	1.162	1.104	1.074	0.993	0.943	1.024	0.911	0.824	0.800	0.747	0.727	0.768	0.632	0.558	0.555	0.502	0.498	0.526	0.473	0.473	0.473	0.513	0.476	0.444	0.393	0.337	0.404	0.335	0.365	0.468	1.011	1.850	1.996	1.249	0.780	0.941	1.981	4.609	11.58	29.18	47.15	32.53	20.31	4.283	0.537	0.381	0.366	0.335	0.274	0.364	0.279	0.337	0.318	0.358	0.299	0.326
270.0	50.26	34.98	31.67	67.69	219.3	378.9	278.0	575.3	2721	7134	7747	786.7	43.16	8.524	5.763	3.946	3.339	2.507	2.356	1.799	1.643	1.561	1.312	1.166	1.135	1.069	1.042	0.937	0.858	0.874	0.725	0.701	0.674	0.652	0.609	0.543	0.572	0.549	0.505	0.527	0.502	0.502	0.450	0.452	0.442	0.465	0.393	0.448	0.314	0.322	0.350	0.539	0.923	1.285	1.796	1.960	1.688	1.307	1.438	3.012	7.297	15.00	24.70	41.41	40.44	40.72	13.95	4.506	0.569	0.389	0.367	0.332	0.334	0.353	0.404	0.323	0.365
275.0	85.70	60.18	45.50	47.56	95.77	234.4	493.7	328.1	653.4	1869	6959	9999.9	1084	36.82	8.529	5.921	4.396	3.569	2.616	1.972	1.981	1.651	1.462	1.342	1.344	1.270	1.049	0.941	0.901	0.848	0.912	0.759	0.758	0.628	0.673	0.612	0.640	0.611	0.578	0.544	0.460	0.697	0.520	0.511	0.513	0.523	0.473	0.505	0.361	0.352	0.349	0.456	0.612	0.716	0.985	1.322	2.288	3.005	2.166	1.438	2.104	3.811	5.956	9.992	14.94	38.20	68.15	66.85	22.29	4.356	0.536	0.469	0.370	0.362	0.396	0.354	0.334
280.0	148.4	99.29	69.61	57.48	73.93	129.2	373.0	513.8	269.1	471.6	2098	9999.9	9560	149.2	18.67	7.659	5.323	4.375	3.427	2.219	2.198	2.030	1.674	1.574	1.353	1.195	1.105	1.111	0.959	0.829	0.916	0.872	0.923	0.743	0.798	0.699	0.643	0.628	0.642	0.579	0.552	0.684	0.615	0.619	0.593	0.649	0.543	0.578	0.445	0.426	0.396	0.505	0.513	0.578	0.716	0.891	1.243	2.446	3.173	2.834	1.518	1.321	1.839	2.765	3.851	9.989	26.71	58.29	80.14	32.35	16.99	1.876	0.572	0.344	0.426	0.288	0.385
285.0	201.8	166.2	114.5	69.54	74.93	101.0	188.6	514.6	343.0	196.8	550.1	3312	9999.9	7372	113.7	11.84	6.845	5.135	3.841	2.682	2.369	2.144	2.000	1.631	1.447	1.188	1.322	1.168	1.062	1.048	1.067	0.841	0.824	0.741	0.700	0.764	0.849	0.916	0.804	0.707	0.645	0.677	0.710	0.696	0.687	0.668	0.655	0.651	0.535	0.552	0.485	0.615	0.621	0.556	0.578	0.623	0.816	1.247	1.809	3.170	3.453	1.922	1.160	1.182	1.405	2.969	6.756	16.24	38.07	66.26	81.90	28.54	10.67	0.812	0.429	0.462	0.396
290.0	296.2	256.1	196.8	120.0	92.73	98.87	124.6	245.5	490.0	443.0	281.4	886.0	3282	8857	8539	449.9	30.22	7.220	4.926	3.478	3.025	2.463	2.094	1.752	1.661	1.317	1.410	1.236	1.139	1.078	1.051	0.932	0.843	0.870	0.742	0.874	0.942	0.971	0.918	0.888	0.944	0.928	0.861	0.950	0.973	0.978	0.896	0.926	0.866	0.751	0.647	0.734	0.695	0.623	0.683	0.623	0.775	0.822	1.030	1.514	2.305	2.782	3.135	2.480	1.542	1.477	2.408	4.455	9.454	18.26	34.78	48.03	61.35	50.99	18.91	8.837	1.198
295.0	412.0	385.2	277.0	184.3	130.3	115.5	134.9	163.1	273.3	622.2	621.6	440.4	926.5	2233	6317	9999.9	672.6	27.25	6.841	4.784	3.806	2.835	2.255	2.182	1.891	1.675	1.431	1.409	1.144	1.220	1.051	1.066	0.968	0.916	0.873	0.958	1.208	1.244	1.111	1.158	1.168	1.155	1.011	1.187	1.216	1.304	1.215	1.090	1.134	0.986	0.777	0.959	0.775	0.740	0.780	0.751	0.737	0.882	1.004	1.082	1.327	1.557	2.294	3.814	4.317	2.731	2.020	2.305	3.223	5.226	8.759	11.72	16.73	30.66	61.58	79.43	30.32
300.0	491.0	477.8	353.1	235.4	157.6	142.9	156.2	190.6	251.2	465.7	903.2	600.4	482.0	688.8	1797	8254	5977	501.7	14.22	6.784	4.509	3.524	2.890	2.414	2.177	1.897	1.423	1.476	1.435	1.144	1.042	1.044	1.090	0.855	1.005	0.904	1.178	1.393	1.329	1.223	1.172	1.161	1.216	1.177	1.431	1.256	1.436	1.404	1.363	1.111	0.947	0.972	0.954	0.793	0.882	0.875	0.974	1.044	1.073	1.297	1.405	1.485	1.540	2.605	4.149	4.977	4.110	2.724	2.176	2.720	3.279	3.716	4.811	8.073	19.26	46.92	73.80
305.0	584.1	540.4	449.6	280.6	199.9	184.5	210.3	247.8	312.8	435.7	790.1	1007	552.9	421.8	577.3	2525	8807	5062	73.93	9.493	5.629	4.205	3.085	2.560	2.474	1.992	1.712	1.592	1.533	1.333	1.196	1.096	0.913	0.908	1.157	1.005	1.297	1.392	1.475	1.394	1.389	1.372	1.360	1.284	1.539	1.543	1.604	1.681	1.585	1.231	1.161	1.202	1.178	1.024	0.991	1.000	1.095	1.087	1.266	1.512	1.613	1.617	1.879	2.276	2.860	3.978	5.373	4.891	3.477	2.788	2.331	2.407	2.265	3.062	5.391	12.05	26.80
310.0	671.4	643.9	510.5	334.3	242.6	221.7	248.4	300.4	371.6	473.9	639.9	920.2	935.8	534.6	369.6	713.5	2622	6264	6218	1417	22.50	5.774	3.917	3.214	2.583	2.170	1.904	1.698	1.522	1.384	1.262	1.133	1.012	1.001	1.022	1.058	1.282	1.480	1.619	1.471	1.504	1.498	1.557	1.499	1.690	1.667	1.763	1.910	1.747	1.337	1.239	1.339	1.275	1.140	1.081	1.110	1.237	1.412	1.474	1.756	1.880	2.063	2.240	2.447	2.691	3.104	3.854	4.308	5.107	4.834	3.871	2.728	2.264	2.226	2.424	3.870	7.040
315.0	710.5	724.3	558.4	386.3	276.1	251.8	281.7	342.3	410.1	515.8	628.5	738.0	876.5	873.7	434.0	344.2	712.3	1521	4170	8283	507.5	21.78	5.551	4.312	3.206	2.500	2.117	1.841	1.529	1.597	1.413	1.265	1.004	1.209	1.071	1.270	1.388	1.497	1.529	1.575	1.641	1.542	1.635	1.638	1.878	1.880	1.998	2.158	1.795	1.507	1.246	1.370	1.380	1.198	1.310	1.322	1.367	1.646	1.775	1.890	1.898	2.286	2.327	2.612	3.036	2.903	3.680	3.632	3.832	4.263	4.999	4.972	3.514	2.388	1.928	2.332	2.752
320.0	796.0	792.7	639.2	424.4	298.3	277.1	313.0	361.1	438.1	527.9	637.8	713.8	751.2	887.5	660.6	305.5	306.9	429.4	1104	5668	6943	407.6	12.06	5.262	3.692	2.757	2.551	2.220	1.828	1.695	1.467	1.094	1.104	1.299	0.956	1.120	1.340	1.533	1.473	1.573	1.563	1.637	1.575	1.772	1.965	2.194	2.129	2.289	2.069	1.603	1.400	1.536	1.442	1.283	1.397	1.352	1.603	1.585	1.779	1.999	1.884	2.291	2.469	2.935	2.973	3.025	3.505	3.397	3.438	3.472	3.806	4.613	4.955	3.967	2.398	1.911	2.075
325.0	852.6	896.2	739.0	495.3	340.0	304.3	334.0	375.9	456.7	543.6	649.0	718.9	710.8	729.6	798.3	434.1	241.5	200.2	306.9	1589	6338	3938	59.92	7.912	4.680	3.593	2.628	2.479	1.968	1.622	1.444	1.400	1.082	1.138	0.943	1.041	1.410	1.480	1.492	1.559	1.567	1.688	1.661	1.831	2.111	2.316	2.183	2.423	2.193	1.838	1.587	1.682	1.509	1.377	1.448	1.364	1.629	1.735	1.991	1.999	1.975	2.229	2.436	2.958	2.903	3.241	3.380	3.448	3.285	3.610	3.718	3.598	4.078	5.115	4.133	2.678	2.094
330.0	899.4	999.3	875.3	598.3	404.4	347.3	359.4	402.2	472.2	571.4	658.1	734.1	723.5	668.8	649.0	603.4	368.5	185.4	152.2	412.8	1771	4350	4716	1231	19.57	4.735	3.598	2.624	2.168	1.815	1.529	1.436	1.222	1.136	1.049	1.152	1.325	1.462	1.565	1.597	1.536	1.747	1.752	1.918	2.055	2.356	2.287	2.597	2.595	2.137	1.900	2.019	1.699	1.578	1.558	1.608	1.745	1.825	1.960	2.119	2.181	2.244	2.526	2.948	3.008	3.203	3.539	3.419	3.454	3.695	3.536	3.402	3.630	3.783	3.901	3.903	3.511
335.0	970.8	1065	933.5	707.6	494.3	413.3	399.0	437.5	509.3	585.8	676.1	751.1	743.6	677.5	580.7	520.6	554.9	305.5	157.6	179.7	454.6	1040	3018	6454	429.6	20.94	4.856	3.829	2.665	2.208	1.832	1.664	1.491	1.323	1.058	1.100	1.237	1.422	1.662	1.570	1.555	1.670	1.928	1.925	2.238	2.567	2.493	2.990	2.756	2.364	2.108	2.564	2.085	2.039	1.857	1.753	1.907	2.021	2.138	2.277	2.252	2.445	2.769	3.037	3.103	3.366	3.589	3.378	3.697	3.636	3.635	3.698	3.512	3.367	3.057	3.044	3.740
340.0	979.5	1084	976.7	759.5	549.8	456.2	433.3	468.0	520.4	598.0	687.2	749.6	755.8	694.8	583.0	476.0	507.6	466.5	220.9	151.0	182.6	290.5	800.3	4342	5544	362.1	11.25	4.596	3.334	2.486	1.977	1.723	1.284	1.478	1.200	1.053	1.347	1.473	1.501	1.781	1.581	1.897	2.063	2.210	2.283	2.571	2.669	3.118	2.994	2.496	2.383	2.649	2.332	2.209	2.048	1.802	1.925	2.148	2.357	2.375	2.388	2.540	2.918	3.057	3.079	3.454	3.500	3.793	3.708	3.912	3.843	3.436	3.271	3.286	3.214	2.875	3.110
345.0	1032	1095	1026	826.4	609.4	502.0	478.7	489.0	546.4	612.5	693.6	745.4	760.3	705.2	600.0	485.0	436.7	499.8	357.1	185.3	149.0	146.3	235.7	1223	4990	3340	53.19	6.331	3.964	2.856	2.472	1.843	1.355	1.188	1.106	1.226	1.279	1.478	1.573	1.707	1.532	1.819	2.151	2.099	2.449	2.679	2.595	3.186	3.019	2.561	2.585	2.935	2.444	2.490	2.158	2.036	2.141	2.221	2.446	2.635	2.660	2.559	2.987	3.035	2.913	3.206	3.647	3.671	3.475	3.839	3.860	3.694	3.596	3.485	3.380	2.887	2.898
350.0	1047	1091	1044	875.0	692.0	579.7	531.1	544.9	570.7	636.7	706.6	748.3	755.3	710.1	625.3	520.4	444.5	430.7	449.2	332.3	199.9	154.6	145.5	339.1	1410	3453	3786	1046	17.74	4.152	2.802	1.941	1.668	1.421	1.220	1.212	1.367	1.485	1.586	1.521	1.656	1.865	1.962	2.142	2.505	2.548	2.554	3.139	2.994	2.645	2.526	2.874	2.647	2.571	2.492	2.220	2.425	2.335	2.515	2.609	2.740	2.881	2.992	3.063	3.113	3.126	3.439	3.660	3.512	3.753	3.882	3.797	3.638	3.645	3.454	3.148	3.005
355.0	1038	1082	1061	912.9	763.7	663.0	617.3	606.3	629.5	668.9	724.9	761.7	755.6	730.5	655.4	562.6	489.8	436.0	417.7	453.1	337.7	210.8	168.3	176.8	385.1	841.3	2425	4990	395.2	19.31	4.031	2.632	1.988	1.810	1.325	1.250	1.416	1.447	1.451	1.554	1.825	1.833	1.925	2.054	2.206	2.590	2.657	3.073	3.164	2.526	2.555	2.877	2.789	2.971	2.769	2.541	2.659	2.823	2.778	2.796	3.173	2.973	3.054	3.116	3.268	3.309	3.698	3.699	3.416	3.895	3.709	3.757	3.723	3.732	3.643	3.297	3.510
360.0	1059	1104	1054	930.4	803.9	734.0	693.5	663.1	680.8	709.1	755.0	778.9	777.3	741.5	674.1	595.1	530.0	476.8	430.5	444.3	460.1	296.3	209.1	170.9	182.8	255.1	655.0	3439	4523	335.0	9.809	3.642	2.387	1.811	1.586	1.384	1.444	1.423	1.577	1.596	1.794	1.867	1.905	2.147	2.251	2.701	2.604	3.103	2.914	2.768	2.511	2.970	3.054	3.014	2.767	2.689	3.027	3.236	3.107	2.965	3.171	2.995	3.413	3.213	3.576	3.496	3.533	3.557	3.859	3.816	3.800	3.590	3.833	3.649	3.514	3.498	3.813
365.0	1050	1100	1062	975.5	867.9	796.4	749.5	724.1	723.2	753.0	779.4	805.5	793.4	756.8	700.4	620.1	572.4	517.5	469.8	440.0	481.9	418.9	264.9	204.8	161.7	146.9	208.0	997.4	4198	3068	48.89	5.793	3.252	2.327	1.724	1.559	1.422	1.493	1.563	1.606	1.836	1.890	2.047	2.061	2.316	2.771	2.647	3.043	3.142	2.782	2.757	3.090	3.102	3.271	3.001	3.123	3.530	3.493	3.545	3.358	3.321	3.303	3.436	3.490	3.796	3.838	3.580	3.690	4.000	3.925	4.032	3.683	4.329	3.878	3.816	3.973	4.139
370.0	1047	1117	1098	1023	933.6	864.2	830.3	798.3	793.3	810.4	825.1	831.0	816.3	779.6	732.1	662.1	614.2	569.5	524.5	481.7	463.8	477.9	403.6	274.4	207.7	161.1	141.6	287.9	1205	3103	3391	909.1	15.20	3.184	2.108	1.739	1.616	1.606	1.680	1.693	1.896	2.012	2.048	2.150	2.450	2.703	2.715	2.879	2.930	2.837	2.775	3.259	3.456	3.521	3.413	3.271	3.634	3.566	3.487	3.584	3.600	3.659	3.655	3.741	3.969	3.839	4.024	3.860	4.056	4.054	3.855	3.877	4.217	3.920	4.006	4.014	4.034
375.0	1084	1141	1121	1046	988.3	922.4	913.9	871.0	862.8	859.1	872.2	856.4	834.4	801.5	754.8	695.8	652.9	620.5	582.0	537.4	494.5	473.4	481.9	398.5	272.3	205.2	162.4	157.5	333.7	760.2	2245	4280	337.5	15.55	2.866	2.119	2.063	1.752	1.754	1.834	1.863	1.952	2.073	2.151	2.350	2.707	2.792	3.067	2.924	2.912	2.884	3.637	3.570	3.714	3.688	3.564	3.926	3.874	3.887	4.015	3.809	4.033	4.065	4.037	4.135	3.923	4.183	3.935	4.033	4.038	4.192	4.093	4.212	3.953	4.231	4.157	4.280
380.0	1137	1155	1147	1069	1037	999.1	950.3	922.3	910.9	896.9	908.3	885.0	863.9	821.6	766.7	720.7	681.3	649.4	616.2	572.3	535.3	490.9	477.2	480.8	342.6	246.4	193.2	152.5	156.9	227.1	613.2	3060	2809	271.1	7.160	2.886	2.355	2.074	2.002	2.077	1.900	1.965	2.207	2.380	2.401	2.783	2.764	3.076	2.879	2.964	3.056	3.718	3.667	3.789	3.898	3.793	4.171	4.027	4.030	4.308	3.930	3.867	4.050	4.226	4.065	4.035	4.049	3.965	4.192	4.037	4.235	4.099	4.315	4.222	4.293	4.266	4.303
385.0	1140	1210	1151	1127	1086	1038	996.3	963.9	943.2	936.5	925.4	903.9	865.9	829.5	781.5	737.8	701.6	670.2	644.3	602.8	560.4	516.1	482.0	484.9	436.0	295.9	227.2	176.8	140.5	124.4	187.5	896.0	3207	2470	39.56	4.435	2.750	2.088	2.327	2.139	2.165	2.339	2.283	2.684	2.539	2.689	2.738	3.410	3.218	2.971	3.029	3.807	3.750	3.806	3.804	4.010	4.167	4.283	4.209	4.107	4.114	4.221	4.330	4.433	4.406	4.185	4.238	4.099	4.149	4.260	4.265	4.266	4.410	4.378	4.509	4.372	4.629
390.0	1201	1255	1171	1162	1127	1088	1056	1019	985.1	970.7	960.2	934.9	889.0	844.3	796.1	750.8	720.3	695.2	665.4	636.0	594.9	555.2	509.8	476.4	466.3	399.1	287.6	218.7	172.5	133.1	116.3	250.3	940.6	2406	2469	646.6	12.59	3.241	2.557	2.268	2.145	2.503	2.462	2.586	2.557	2.738	2.912	3.304	3.286	3.112	3.117	3.789	3.824	4.101	3.988	4.202	4.289	4.454	4.305	4.356	4.483	4.592	4.527	4.551	4.517	4.486	4.210	4.171	4.255	4.298	4.217	4.430	4.442	4.494	4.560	4.435	4.552
395.0	1209	1281	1216	1172	1152	1113	1111	1061	1028	1020	991.6	957.3	911.7	856.0	809.1	765.5	736.1	710.9	687.6	660.3	623.3	587.8	546.4	500.7	462.0	450.1	387.1	276.0	217.8	169.9	126.6	128.2	257.9	591.1	1709	3038	278.1	12.55	3.513	2.916	2.468	2.599	2.611	2.732	2.721	2.913	3.011	3.459	3.428	3.065	3.416	4.066	3.941	4.089	4.284	4.345	4.586	4.689	4.866	4.645	4.705	4.537	4.602	4.996	4.412	4.475	4.168	4.417	4.184	4.597	4.250	4.302	4.601	4.563	4.606	4.537	4.422
400.0	1237	1282	1245	1219	1164	1139	1144	1101	1055	1041	1017	982.6	928.3	868.8	815.2	768.2	738.5	718.6	695.7	670.5	639.6	600.2	562.7	526.1	475.5	449.1	435.8	338.5	253.1	198.2	150.3	117.0	119.0	173.8	479.3	2276	2261	215.4	6.534	3.497	2.576	2.767	2.699	2.598	2.778	2.898	2.955	3.319	3.357	3.227	3.329	3.869	4.185	4.418	4.207	4.563	4.698	4.695	4.709	4.863	4.771	4.467	4.743	4.705	4.537	4.465	4.358	4.400	4.329	4.635	4.362	4.221	4.404	4.783	4.697	4.839	4.712
405.0	1251	1290	1260	1216	1185	1161	1146	1123	1091	1046	1034	991.8	934.3	873.6	812.4	761.0	740.6	724.3	704.1	677.8	643.6	616.7	579.3	542.1	491.6	449.2	439.5	402.6	296.5	229.1	178.3	132.9	100.3	90.80	142.5	678.3	2404	1929	34.45	4.629	2.981	2.851	2.813	2.761	2.798	3.275	3.075	3.427	3.244	3.139	3.322	4.068	4.181	4.389	4.261	4.419	4.697	4.832	4.876	4.870	4.836	4.735	4.889	4.772	4.687	4.645	4.503	4.326	4.775	4.305	4.321	4.218	4.507	4.485	4.502	4.528	4.677
410.0	1280	1313	1270	1226	1204	1181	1160	1148	1107	1077	1043	993.4	936.7	867.7	808.2	756.1	731.0	711.4	699.4	672.7	646.9	615.6	590.9	558.1	511.8	466.8	432.0	419.1	370.7	279.2	213.0	161.2	118.6	89.48	79.38	184.3	712.0	1798	1816	466.6	11.27	3.449	3.238	2.780	2.993	3.295	3.081	3.537	3.386	3.190	3.412	4.081	4.184	4.446	4.452	4.364	4.708	4.814	4.996	4.882	4.863	4.808	4.917	4.963	4.667	4.699	4.499	4.283	4.593	4.318	4.350	4.506	4.496	4.363	4.362	4.536	4.570
415.0	1232	1295	1274	1234	1199	1174	1167	1156	1121	1085	1047	984.8	925.5	860.1	795.7	745.2	713.5	701.5	683.8	663.9	637.9	612.1	588.8	556.5	519.3	482.5	437.2	407.3	396.2	343.9	249.0	188.6	142.5	105.6	79.74	83.92	188.6	440.5	1262	2145	241.0	10.77	3.822	3.204	3.218	3.160	2.890	3.492	3.637	3.014	3.328	4.044	4.143	4.213	4.145	4.438	4.851	4.964	4.625	4.827	4.923	4.989	5.097	4.836	4.596	4.769	4.297	4.437	4.389	4.165	4.376	4.415	4.185	4.108	4.276	4.630	4.514
420.0	1221	1268	1250	1211	1175	1167	1158	1152	1121	1089	1045	977.0	915.2	836.8	774.6	729.7	697.3	681.9	664.9	649.4	625.7	605.6	582.2	553.2	521.2	484.8	444.2	403.3	383.6	374.2	291.1	209.5	162.1	119.0	89.85	70.87	77.01	123.7	350.5	1604	1833	189.3	6.123	3.699	3.364	3.127	3.022	3.430	3.611	3.184	3.250	4.226	4.217	4.171	4.462	4.440	4.647	4.720	4.402	4.925	4.658	5.010	4.959	5.008	4.764	4.840	4.509	4.438	4.273	4.370	4.453	4.328	4.207	4.185	4.237	4.263	4.416
425.0	1191	1288	1235	1186	1148	1150	1147	1135	1119	1074	1050	975.2	893.9	827.9	756.8	708.5	679.0	666.3	650.2	633.5	614.3	594.1	573.8	547.5	518.8	490.1	447.9	410.0	378.5	369.1	330.4	235.2	174.7	133.1	101.1	75.84	60.36	58.25	99.87	481.1	1770	1460	32.28	4.768	3.891	3.439	3.110	3.345	3.566	3.284	3.143	4.133	3.711	4.171	4.234	4.370	4.610	4.792	4.776	5.021	4.811	4.614	4.889	4.865	4.739	4.791	4.244	4.197	4.144	4.182	4.402	4.251	4.364	4.336	4.258	4.164	4.288
430.0	1399	1228	1198	1173	1134	1126	1125	1141	1112	1077	1042	969.7	883.6	810.6	744.7	686.5	655.3	642.0	626.1	610.1	593.9	577.6	556.5	539.4	512.0	485.3	449.5	415.7	385.7	354.3	332.7	277.6	204.2	151.2	117.1	88.01	67.65	52.29	51.97	129.3	515.9	1306	1363	139.9	11.21	4.061	3.410	3.678	3.341	3.118	3.202	3.839	3.944	4.271	4.280	4.480	4.592	4.855	4.714	4.896	4.846	4.819	4.734	4.926	4.621	4.590	4.473	4.256	4.210	4.264	4.343	4.118	4.234	4.086	4.004	4.117	3.997
435.0	2303	1203	1190	1129	1106	1109	1106	1119	1102	1078	1029	956.8	872.0	791.0	720.2	663.8	632.7	615.9	599.2	590.8	572.4	554.5	541.6	527.5	502.6	476.7	451.2	416.9	392.0	356.9	321.7	294.9	244.7	173.7	132.6	103.1	80.24	62.03	50.03	57.81	136.5	319.3	929.8	1686	227.7	11.87	4.042	3.724	3.454	3.086	3.170	3.896	3.908	3.954	4.066	4.525	4.525	4.891	5.002	4.853	4.879	5.005	4.733	4.715	4.634	4.340	4.134	4.297	4.387	4.026	4.225	3.925	3.841	4.105	3.719	4.054	4.100
440.0	2909	1338	1142	1088	1078	1077	1095	1106	1094	1064	1026	942.8	861.7	779.2	703.7	648.1	610.2	596.8	578.3	567.9	551.7	538.0	526.6	512.0	490.1	469.1	444.2	418.2	391.9	356.6	320.1	286.7	262.2	200.9	145.2	114.4	90.36	72.20	54.88	46.16	56.81	90.77	259.8	1284	1579	179.5	6.793	4.073	3.700	3.222	3.161	3.751	4.062	3.964	4.142	4.323	4.495	4.549	4.609	4.824	5.070	4.922	4.829	4.716	4.781	4.541	4.372	4.160	4.266	3.863	3.853	4.050	3.981	3.976	3.765	3.887	4.157
445.0	3503	1776	1111	1088	1052	1053	1087	1088	1067	1051	1004	934.7	843.6	762.7	675.8	626.1	587.2	573.0	557.0	545.7	530.4	517.0	513.2	499.3	475.9	457.9	437.0	411.6	391.1	354.5	321.6	278.3	255.0	222.9	161.5	124.7	98.69	79.48	61.32	49.56	42.77	43.98	76.49	389.0	1507	1313	28.05	5.424	3.862	3.469	3.222	3.748	4.044	4.039	4.115	4.169	4.407	4.799	4.686	4.845	4.960	4.903	5.013	4.713	4.741	4.747	4.256	4.252	4.277	3.910	3.593	4.093	3.938	3.872	3.869	3.714	3.942
450.0	2518	2932	1205	1010	1000	1007	1022	1038	1031	1010	976.0	900.3	804.1	722.5	649.4	591.6	557.9	540.7	521.9	511.7	495.7	486.7	479.1	468.8	453.4	436.4	415.7	395.1	379.5	349.4	314.9	274.6	240.2	219.2	186.7	139.7	108.6	89.22	71.78	58.15	47.49	39.24	39.71	105.1	437.1	1142	1233	343.6	10.25	3.749	3.365	3.713	3.853	3.843	3.965	3.974	4.316	4.565	4.621	4.753	4.485	4.463	4.834	4.464	4.549	4.336	4.133	4.159	4.170	3.908	3.729	3.752	3.888	3.612	3.676	3.608	3.421
455.0	1363	3082	2001	950.0	934.1	961.7	964.7	975.6	992.1	963.7	926.6	852.6	765.0	681.6	613.6	555.9	521.3	502.5	483.4	469.3	458.6	451.1	442.1	432.4	421.6	404.3	388.5	375.1	361.0	335.7	305.4	267.6	232.6	203.4	189.3	160.8	121.7	97.18	80.45	66.68	54.52	43.95	36.38	45.49	114.4	277.9	738.9	1444	188.6	10.03	3.826	3.846	3.638	3.667	3.658	3.669	3.999	4.261	4.166	4.377	4.001	4.219	4.302	4.220	4.100	4.073	4.171	3.984	3.851	3.691	3.654	3.634	3.817	3.519	3.249	3.183	3.642
460.0	1011	2327	2876	1032	884.0	882.4	918.3	917.3	936.9	926.0	891.0	812.9	728.2	639.6	576.5	522.8	490.3	466.9	450.5	436.9	426.1	417.3	415.5	403.9	394.9	381.7	365.6	354.2	339.9	320.6	295.0	260.1	227.9	196.6	175.8	166.0	133.6	102.8	85.44	70.70	59.21	48.63	38.99	35.01	45.28	77.60	198.4	970.5	1238	147.1	6.833	3.915	3.659	3.637	3.549	3.594	3.887	4.009	4.073	4.076	3.952	4.101	4.393	4.230	3.984	4.202	3.751	3.638	3.721	3.637	3.488	3.397	3.355	3.291	3.184	3.141	3.165
465.0	894.8	1443	3233	1434	835.2	839.8	861.8	878.1	891.0	873.5	843.5	772.3	689.6	609.9	544.1	493.7	458.4	438.0	424.4	411.2	396.3	391.5	386.0	379.2	369.4	358.6	345.5	335.2	325.7	309.3	282.6	251.5	223.5	192.3	166.9	157.7	144.2	109.6	88.53	74.56	62.29	52.16	43.06	34.64	32.11	34.37	57.92	278.5	1096	1015	23.77	5.649	3.931	3.692	3.474	3.489	3.934	3.733	4.161	3.807	4.066	3.767	4.124	3.913	3.927	3.975	3.789	3.497	3.539	3.740	3.255	3.241	3.178	3.176	3.230	3.126	2.927
470.0	816.9	923.3	2193	2441	914.9	769.0	795.8	805.7	822.3	807.3	784.8	723.1	642.1	568.5	504.1	452.5	417.2	397.8	384.9	374.0	359.7	353.5	347.8	342.7	336.3	324.0	315.4	307.5	299.0	285.9	264.5	238.1	210.3	183.1	161.5	143.8	134.9	119.7	94.86	77.61	65.68	55.33	46.83	38.01	32.12	27.21	28.60	74.88	306.2	766.2	863.4	310.5	10.95	3.901	3.401	3.364	3.540	3.614	3.666	3.657	3.734	3.619	3.836	3.792	3.593	3.589	3.358	3.268	3.190	3.288	3.135	3.030	2.836	2.923	2.885	2.909	2.842
475.0	745.5	743.0	1105	2636	1599	718.4	719.7	736.1	745.9	745.5	717.6	658.5	585.8	519.2	464.7	411.4	382.1	361.4	347.5	334.0	322.0	317.3	310.6	305.8	297.5	289.4	281.8	275.8	270.7	258.8	244.1	220.9	196.2	172.7	151.5	136.5	122.1	116.3	103.9	81.22	67.18	57.80	48.20	41.20	34.58	27.90	24.64	31.62	79.82	182.4	417.1	959.7	197.5	13.01	3.498	3.355	3.408	3.467	3.466	3.296	3.398	3.571	3.392	3.318	3.394	3.237	2.977	3.099	2.976	2.940	2.952	2.715	2.750	2.700	2.650	2.820	2.621
480.0	701.8	678.0	753.4	1876	2407	780.0	662.9	687.4	698.6	705.5	669.0	619.4	554.2	486.2	430.8	386.2	354.4	336.5	319.5	309.8	300.5	290.1	286.4	282.1	277.4	269.0	260.0	257.4	250.8	242.4	227.9	208.5	184.3	165.4	146.5	130.1	116.9	108.9	104.5	86.42	70.29	58.46	50.14	42.54	36.48	30.49	24.93	22.86	30.44	50.89	107.7	521.0	897.2	177.9	7.573	3.485	3.516	3.468	3.429	3.419	3.174	3.084	3.273	3.445	2.961	3.094	3.109	3.020	2.851	2.779	2.702	2.593	2.693	2.690	2.344	2.496	2.597
485.0	678.4	676.7	627.2	1092	2701	1178	623.4	668.7	665.5	662.7	640.4	588.7	523.3	462.0	412.1	363.7	334.6	313.0	298.9	290.1	278.4	269.8	267.1	263.9	257.9	252.6	242.2	240.6	235.8	231.1	216.5	198.4	177.9	160.1	141.2	124.5	112.9	102.7	98.17	90.91	75.05	60.56	51.40	44.36	38.10	32.42	26.43	22.64	20.75	22.81	33.25	141.3	658.9	838.5	29.02	5.277	3.562	3.149	3.265	3.017	3.091	2.974	3.166	3.019	2.945	2.774	3.048	2.711	2.840	2.639	2.716	2.520	2.486	2.544	2.261	2.287	2.454
490.0	568.5	634.1	577.8	664.3	1854	2192	732.5	609.7	624.1	617.1	592.1	548.2	489.6	426.8	380.2	335.2	308.6	290.8	277.1	265.2	255.7	247.3	244.3	239.6	234.6	230.5	224.4	221.3	218.6	213.2	202.4	184.2	167.3	150.8	134.6	119.5	108.4	98.39	90.78	87.74	80.02	64.21	52.91	45.56	40.16	34.32	28.96	24.41	20.44	17.61	17.82	40.28	174.7	499.2	707.3	318.1	13.46	3.585	3.172	2.893	2.962	2.927	3.082	2.949	2.840	2.651	2.766	2.586	2.572	2.497	2.450	2.255	2.361	2.296	2.132	2.261	2.271
495.0	485.7	580.0	562.3	543.2	889.9	2395	1400	559.5	571.6	558.1	547.8	499.5	447.6	389.3	348.3	307.5	279.8	261.6	250.3	236.4	231.5	223.1	219.4	215.6	211.0	207.6	203.8	198.3	198.4	193.1	184.0	170.4	154.4	138.7	126.5	112.7	103.3	92.30	86.05	78.94	78.06	69.77	55.88	47.40	41.52	36.22	30.33	25.93	21.56	17.89	15.38	18.51	46.88	118.7	310.6	844.2	231.7	17.36	3.287	2.932	2.775	2.858	2.777	2.724	2.556	2.478	2.483	2.460	2.297	2.254	2.278	2.223	1.981	2.045	1.914	2.048	2.110
500.0	452.5	526.7	552.2	472.7	570.7	1702	2264	611.7	523.2	528.7	508.7	470.3	412.9	362.6	318.1	287.7	261.6	243.1	229.9	215.8	210.2	203.2	200.3	197.3	192.5	188.6	184.5	184.9	181.3	177.4	171.0	158.1	143.8	129.4	118.4	106.8	97.35	89.21	81.86	74.65	70.86	69.94	58.75	47.47	41.26	35.71	31.30	25.84	22.17	18.50	15.50	14.14	18.84	33.66	78.31	399.4	846.2	209.7	11.09	3.049	2.809	2.657	2.554	2.634	2.510	2.275	2.363	2.203	2.205	2.067	2.196	2.175	2.109	1.969	1.865	1.813	1.940
505.0	412.8	459.0	513.0	453.7	452.6	936.4	2641	1001	484.5	482.1	472.1	434.8	382.6	337.1	296.0	265.5	243.2	228.1	212.0	199.6	192.6	187.7	181.9	180.3	176.8	174.4	168.8	168.7	166.1	164.3	158.4	147.1	133.6	121.0	111.1	101.0	91.79	84.00	76.85	70.18	64.92	63.94	60.30	48.95	40.77	35.70	30.96	26.62	23.08	18.93	16.00	13.39	12.73	14.91	23.86	102.1	493.5	801.1	168.6	5.803	2.873	2.632	2.493	2.387	2.439	2.154	2.005	2.134	2.112	1.918	1.998	2.053	1.835	1.840	1.802	1.701	1.764
510.0	374.8	385.0	454.8	447.5	398.5	508.7	1748	2095	570.1	430.9	422.5	389.6	347.3	303.7	266.0	237.6	214.2	201.0	187.4	178.8	170.1	165.7	160.7	159.2	155.9	155.1	148.7	149.2	148.6	146.3	141.1	131.3	120.1	108.8	100.4	91.52	83.91	76.49	71.09	64.98	58.93	55.27	54.98	50.22	41.63	34.95	30.67	26.46	22.79	19.48	16.56	13.76	11.78	10.93	11.75	28.36	123.9	395.7	598.0	278.7	14.41	2.707	2.488	2.205	2.308	2.119	2.011	1.924	1.938	1.873	1.853	1.776	1.722	1.671	1.816	1.547	1.675
515.0	318.7	320.7	366.8	425.6	369.8	371.2	736.5	2461	1286	393.3	379.4	342.0	305.4	271.5	233.8	208.9	191.5	175.5	166.6	157.6	149.7	144.4	141.0	136.9	134.7	134.2	129.5	128.3	130.9	128.0	122.9	114.3	104.7	97.11	88.47	81.88	75.03	69.40	64.54	60.03	53.57	48.96	47.13	46.25	43.36	34.47	30.16	25.16	22.22	18.86	16.92	14.38	11.72	10.29	9.168	12.12	32.93	92.90	203.8	588.1	238.0	18.43	2.474	2.383	2.093	2.110	1.893	1.806	1.868	1.641	1.551	1.649	1.589	1.516	1.515	1.389	1.518
520.0	292.8	294.3	312.8	377.3	365.0	319.9	416.9	1695	2298	457.2	343.2	314.7	280.8	245.9	215.9	190.6	174.8	156.3	149.3	142.0	135.3	129.5	125.4	122.8	119.7	119.6	115.9	115.8	116.8	114.6	111.1	103.3	94.84	88.05	81.84	74.57	69.34	63.95	58.82	54.62	51.09	46.34	43.27	40.91	42.02	36.01	28.70	24.72	21.69	18.62	16.24	14.27	12.50	10.18	8.841	8.804	12.55	25.29	50.37	242.9	594.7	212.8	11.85	2.371	1.967	1.846	1.785	1.716	1.806	1.513	1.530	1.546	1.419	1.434	1.291	1.317	1.233
525.0	266.8	274.2	288.8	316.7	354.1	301.1	318.4	836.7	2793	887.0	315.7	284.2	256.5	228.2	198.3	171.2	158.4	144.2	138.7	130.6	123.0	117.7	113.1	113.1	109.6	108.7	105.5	104.2	105.3	103.9	100.6	91.89	86.85	79.76	74.82	67.72	63.72	57.43	54.22	50.85	47.22	43.13	39.26	36.88	38.43	36.36	29.15	24.05	20.95	18.68	15.86	13.95	12.16	10.78	8.732	8.076	8.107	10.08	15.35	60.61	298.3	574.7	167.0	5.850	2.065	1.725	1.769	1.597	1.629	1.406	1.544	1.376	1.492	1.363	1.237	1.212	1.345
530.0	227.5	240.3	241.8	252.9	315.9	290.3	263.7	402.1	1784	2208	421.3	254.1	228.0	199.0	174.9	152.6	138.9	127.9	120.4	114.0	107.7	103.2	99.10	97.93	95.10	93.86	92.13	91.01	91.44	90.29	88.21	81.59	76.30	70.56	65.43	60.86	56.56	51.53	48.16	44.96	41.46	38.21	35.45	33.05	32.09	32.79	29.48	24.20	19.55	17.52	15.24	13.34	11.45	10.73	9.012	8.065	7.272	6.849	7.457	16.96	72.95	247.4	413.5	212.8	14.41	1.939	1.623	1.399	1.431	1.373	1.271	1.195	1.251	1.140	1.178	1.181	1.218
535.0	191.7	206.3	193.8	210.6	255.3	296.9	239.0	263.8	662.0	2566	1221	230.2	199.0	174.0	152.7	133.1	121.8	111.3	100.9	97.08	92.59	86.85	86.64	84.78	81.65	79.90	79.93	78.60	77.93	77.68	74.97	71.99	66.03	61.69	57.31	52.68	49.78	45.32	42.65	40.21	36.78	33.61	31.32	29.33	28.00	26.72	27.80	23.75	18.80	15.90	14.40	12.20	11.04	10.15	8.993	7.927	6.847	6.006	5.381	7.125	19.37	57.71	125.6	379.0	235.8	18.27	1.765	1.491	1.233	1.221	1.167	1.281	1.196	1.176	1.106	1.178	1.118
540.0	174.4	192.1	186.8	175.8	206.8	276.0	230.5	213.7	312.4	1621	2357	285.2	177.7	156.1	135.6	118.3	107.5	98.10	91.64	85.74	82.51	77.61	75.20	75.18	74.33	70.56	69.03	69.01	69.09	68.67	66.23	64.39	58.30	54.82	50.63	46.21	43.36	40.90	38.28	36.18	32.69	30.99	28.30	26.95	25.04	22.85	23.85	22.82	18.33	15.18	13.20	11.67	10.29	9.339	8.341	7.893	6.770	5.976	5.027	4.712	7.097	15.68	30.76	142.1	408.4	197.9	11.13	1.529	1.260	1.108	1.122	1.144	1.135	1.060	1.024	0.928	0.986
545.0	171.4	172.6	169.2	152.9	168.2	229.3	234.2	186.7	210.9	705.6	2831	660.6	159.5	140.0	121.1	105.8	95.64	87.31	81.06	76.78	72.12	71.27	68.06	67.21	63.97	62.63	61.85	61.18	61.10	59.88	58.54	55.47	52.20	48.74	45.76	41.43	38.39	37.08	34.33	31.67	29.11	28.36	25.45	24.26	22.42	20.14	20.55	20.54	18.37	15.00	12.12	10.92	9.705	8.652	7.776	7.205	6.632	5.794	4.747	4.093	4.537	5.977	9.294	34.65	183.5	396.2	136.4	4.455	1.262	1.203	1.010	1.072	1.166	1.013	0.907	0.942	0.973
550.0	143.3	146.6	143.4	135.2	137.7	168.0	232.3	174.8	165.2	291.2	1655	1909	181.1	119.8	101.1	88.90	80.47	73.78	69.05	64.06	60.79	58.42	57.35	54.74	54.44	53.19	51.59	51.40	51.06	50.80	49.16	47.54	43.25	41.10	37.88	34.42	32.51	30.71	28.63	27.33	25.16	23.84	21.91	20.88	19.11	17.87	16.84	16.37	16.40	14.83	11.90	9.683	8.689	7.958	7.202	6.652	6.331	5.400	4.688	4.004	3.694	3.568	4.288	9.559	44.34	158.8	274.4	134.5	13.11	1.137	1.077	0.951	0.962	0.826	0.831	0.829	0.876
555.0	133.5	122.9	119.1	115.9	112.1	120.3	188.7	176.9	136.6	163.6	534.4	2347	832.7	104.1	86.07	73.51	66.49	60.09	57.34	52.58	50.82	47.49	45.97	44.89	44.92	42.68	42.34	41.81	41.36	42.24	40.07	38.12	35.96	33.15	30.87	29.35	26.70	25.13	23.70	22.68	20.33	19.31	18.66	17.22	15.97	15.59	14.04	13.31	12.73	13.18	11.32	9.107	7.482	6.939	6.251	5.785	5.356	4.827	4.495	3.995	3.331	2.864	3.042	3.813	11.59	36.91	80.75	233.7	193.5	15.90	1.155	0.966	0.785	0.782	0.771	0.645	0.767
560.0	121.4	103.9	102.2	100.4	92.98	98.96	142.4	181.0	122.8	123.0	208.6	1425	1843	132.0	73.19	63.76	56.54	52.93	48.09	45.19	42.21	40.70	39.21	38.06	37.32	36.15	35.76	35.16	35.40	35.62	34.54	32.60	30.73	28.03	25.74	25.03	23.19	21.63	20.32	19.44	17.58	16.92	15.87	14.83	14.51	13.08	12.14	10.99	10.57	10.83	10.69	8.614	6.689	5.940	5.495	5.091	4.645	4.446	4.464	3.903	3.223	2.700	2.545	2.328	4.350	9.714	19.48	85.87	257.5	137.6	7.533	0.983	0.840	0.718	0.714	0.661	0.641
565.0	109.8	100.2	92.89	87.34	82.64	83.25	105.0	167.1	126.1	105.9	121.2	561.0	2370	387.7	61.43	55.04	48.93	44.27	41.64	38.28	36.41	34.75	33.62	32.73	31.46	30.79	30.77	30.66	30.66	30.76	29.35	27.95	26.39	24.28	22.62	21.67	19.45	19.42	17.76	17.02	15.46	14.03	13.63	12.90	12.26	11.32	10.43	9.153	8.978	8.630	8.960	8.251	6.353	5.238	4.996	4.518	4.320	4.046	3.796	3.753	2.982	2.514	2.501	1.991	2.481	3.500	5.540	20.82	110.0	240.3	34.09	3.093	0.785	0.807	0.627	0.593	0.594
570.0	95.08	92.15	79.00	72.81	73.84	69.63	79.12	127.9	137.8	90.21	94.04	193.8	1386	1402	92.11	44.77	40.94	36.22	33.92	31.67	30.35	28.66	27.73	26.72	26.07	25.31	24.75	24.60	24.57	24.69	23.98	22.59	21.07	19.70	18.77	17.44	15.83	15.11	14.56	13.88	12.64	11.88	11.22	10.87	10.11	9.491	8.904	8.037	7.484	6.860	7.029	7.316	6.217	5.072	4.490	4.049	3.790	3.375	3.031	3.082	2.872	2.520	2.198	1.982	1.925	2.006	2.413	5.735	26.45	93.30	149.4	90.92	10.85	0.808	0.647	0.578	0.523
575.0	87.28	87.86	68.37	61.78	57.15	56.72	62.14	82.77	133.4	88.51	73.90	96.08	411.8	1767	535.1	38.77	33.95	30.24	27.54	25.63	23.92	22.69	23.22	21.47	21.31	20.69	20.23	19.90	19.38	19.30	18.97	18.08	16.88	15.84	14.60	13.70	12.92	12.38	11.40	10.86	10.31	9.917	9.332	8.959	8.295	7.925	7.097	6.524	6.509	5.523	5.302	5.388	5.694	4.612	3.805	3.248	3.475	2.812	2.600	2.592	2.536	2.535	2.325	1.770	1.775	1.666	1.725	2.287	6.985	21.80	43.05	137.1	116.0	11.12	0.670	0.644	0.419
580.0	85.32	79.72	65.35	54.63	50.47	52.35	54.03	63.67	116.3	102.5	69.35	70.76	140.0	1065	1065	55.60	28.19	24.86	23.70	22.23	20.96	19.90	19.42	17.62	17.99	17.27	17.17	16.42	16.63	16.62	16.15	15.31	14.09	13.14	12.77	11.75	11.19	10.72	9.742	9.239	8.769	8.443	7.753	7.436	6.936	6.962	6.255	5.460	5.474	4.852	4.353	4.276	4.800	4.281	3.830	3.061	3.008	2.657	2.489	2.403	2.190	2.362	2.365	1.980	1.773	1.477	1.532	1.673	2.687	5.763	10.68	49.49	150.0	83.89	4.530	0.645	0.504
585.0	74.48	71.84	63.72	52.97	43.50	45.02	49.81	49.36	87.97	111.1	66.51	60.77	71.97	401.4	1617	114.2	25.58	22.50	20.89	19.00	18.03	16.75	16.39	16.14	15.31	15.10	14.92	13.89	14.45	14.09	13.84	13.03	12.26	11.00	10.58	9.858	9.701	8.981	8.522	7.992	7.466	7.161	6.642	6.854	5.922	5.838	5.206	4.888	4.821	4.282	3.933	3.724	4.026	4.182	3.714	2.994	2.655	2.450	2.358	2.177	1.971	2.011	2.402	2.120	1.633	1.410	1.409	1.544	1.506	2.306	3.241	12.08	63.27	142.0	32.03	1.796	0.454
590.0	83.14	69.31	58.97	46.66	40.98	40.43	41.31	45.05	58.99	106.3	78.00	54.01	53.15	127.4	947.1	852.3	44.27	19.07	16.58	15.42	14.87	14.16	13.37	12.81	12.15	12.03	11.60	11.73	11.70	11.90	11.45	10.60	9.931	9.031	8.516	8.161	7.909	7.206	7.000	6.560	6.291	6.117	5.590	5.643	5.071	4.907	4.473	4.144	3.800	3.483	3.165	3.150	3.099	3.293	3.414	2.987	2.451	2.202	1.965	1.983	1.823	1.783	1.788	1.947	1.674	1.306	1.243	1.232	1.229	1.331	1.494	3.477	15.28	54.01	91.14	57.97	8.164
595.0	67.30	64.09	52.62	46.07	36.29	36.25	35.76	39.12	45.20	75.30	93.45	53.56	47.38	54.69	270.3	1151	269.3	15.80	13.44	12.77	11.81	12.03	10.80	10.65	9.819	9.680	9.280	9.362	9.369	9.533	9.090	8.508	7.903	7.337	7.054	6.467	6.686	5.752	5.689	5.496	4.921	4.474	4.481	4.396	4.213	4.018	3.619	3.511	3.205	2.853	2.556	2.463	2.434	2.356	2.864	2.748	2.352	1.918	1.792	1.600	1.499	1.443	1.450	1.535	1.554	1.299	1.177	1.044	1.048	1.104	1.081	1.400	3.935	12.61	25.93	80.69	71.80
600.0	77.88	62.84	52.30	40.17	33.84	31.44	30.72	37.45	38.64	55.21	100.4	59.84	43.57	37.89	82.61	731.6	700.2	23.47	12.17	10.58	10.14	9.968	9.492	8.531	8.482	8.301	8.423	8.108	7.597	7.849	7.676	7.286	6.750	6.164	5.829	5.717	5.230	5.162	4.927	4.666	4.141	3.998	3.998	3.614	3.774	3.275	3.044	3.047	2.788	2.468	2.308	2.193	2.098	2.009	2.070	2.525	2.301	1.850	1.472	1.567	1.405	1.147	1.345	1.386	1.417	1.540	1.291	0.978	0.991	1.116	0.966	0.924	1.496	3.310	6.305	28.10	87.22
605.0	67.49	57.39	52.72	41.54	32.42	31.11	30.95	35.42	37.37	47.30	86.84	71.19	42.01	33.54	38.12	273.1	996.2	74.31	10.19	9.895	8.957	8.417	8.320	7.422	7.334	7.152	6.746	6.928	6.779	6.299	6.610	6.247	5.811	5.454	5.142	5.030	4.703	4.312	4.126	3.992	3.634	3.459	3.303	3.129	3.230	2.915	2.706	2.529	2.382	2.074	2.005	1.900	1.902	1.648	1.668	1.940	2.205	1.917	1.425	1.278	1.299	1.254	1.212	1.126	1.240	1.434	1.260	0.984	0.832	0.816	0.835	0.746	0.820	1.270	1.805	6.937	34.67
610.0	69.89	58.66	48.67	37.38	28.94	27.59	28.41	33.05	36.29	43.70	63.33	84.93	46.95	33.00	28.76	80.16	640.4	496.7	19.25	7.818	7.269	7.271	6.691	6.087	6.137	5.966	5.672	5.710	5.656	5.404	5.292	5.060	4.635	4.372	4.277	3.966	3.933	3.548	3.408	3.277	3.010	2.781	2.676	2.632	2.554	2.409	2.131	2.078	2.048	1.833	1.646	1.484	1.474	1.324	1.516	1.419	1.765	1.691	1.347	1.177	1.142	1.139	0.994	0.990	1.014	1.023	1.249	1.034	0.870	0.816	0.828	0.671	0.652	0.687	0.786	1.965	8.496
615.0	58.10	56.97	41.35	33.17	26.23	27.13	26.93	28.39	32.26	42.20	50.03	79.35	59.81	31.73	25.32	31.47	188.9	756.0	77.14	6.877	5.998	5.920	5.532	4.942	4.718	4.481	4.792	4.437	4.795	4.275	4.035	4.176	3.817	3.595	3.601	3.271	3.035	2.957	2.816	2.600	2.657	2.498	2.150	2.134	1.981	2.007	1.797	1.820	1.770	1.518	1.303	1.320	1.229	1.240	1.305	1.136	1.302	1.343	1.400	1.062	1.121	0.963	0.931	0.779	0.904	0.841	0.935	1.047	0.941	0.803	0.707	0.646	0.609	0.633	0.576	0.840	2.337
620.0	55.97	52.65	46.27	32.28	23.99	26.55	27.30	27.82	30.04	38.25	45.31	65.28	68.63	32.68	23.83	20.34	55.66	533.3	406.4	9.246	5.025	4.620	4.371	3.923	4.109	4.087	3.810	3.834	3.847	3.766	3.804	3.706	3.387	3.082	3.091	2.832	2.747	2.363	2.546	2.216	2.298	2.068	1.821	1.743	1.730	1.742	1.433	1.617	1.427	1.304	1.302	1.153	1.033	1.062	1.102	0.997	1.102	1.131	1.125	1.150	1.027	0.938	0.812	0.711	0.803	0.728	0.784	0.840	1.009	0.782	0.688	0.699	0.520	0.561	0.586	0.681	0.875
625.0	64.08	47.78	44.47	30.66	25.23	22.78	22.43	25.34	30.13	36.53	40.39	54.31	73.24	36.31	23.41	16.73	22.11	217.2	663.6	40.18	5.003	4.387	4.147	3.776	3.682	3.539	3.380	3.199	3.356	3.252	3.246	2.911	2.954	2.684	2.571	2.421	2.168	2.136	2.135	1.887	1.780	1.719	1.640	1.565	1.498	1.542	1.341	1.399	1.195	1.128	1.054	1.069	0.836	0.923	1.012	0.860	0.890	1.002	1.201	1.088	0.952	0.804	0.749	0.893	0.839	0.749	0.638	0.655	0.815	0.833	0.759	0.680	0.528	0.551	0.497	0.596	0.645
630.0	59.82	53.79	41.03	29.21	22.71	21.36	21.42	25.50	28.68	33.62	37.48	43.50	61.35	44.69	22.71	15.67	13.71	60.63	477.2	307.3	7.816	3.688	3.590	3.352	2.878	3.031	2.737	2.670	2.722	2.714	2.609	2.511	2.285	2.168	2.153	1.940	1.775	1.830	1.855	1.807	1.476	1.474	1.370	1.382	1.264	1.221	1.231	1.103	1.023	0.913	0.882	0.937	0.811	0.814	0.809	0.713	0.782	0.829	0.904	0.916	0.865	0.759	0.631	0.701	0.706	0.666	0.604	0.593	0.736	0.769	0.837	0.597	0.588	0.529	0.537	0.516	0.477
635.0	52.02	49.70	39.34	28.29	21.89	19.01	24.42	22.75	25.94	32.27	34.48	37.52	45.42	51.02	24.61	14.20	11.43	19.87	144.6	540.3	53.89	3.443	2.900	2.616	2.505	2.432	2.371	2.221	2.004	2.355	2.186	1.972	1.737	1.668	1.705	1.658	1.605	1.629	1.452	1.342	1.359	1.214	1.066	1.043	1.106	1.017	0.998	0.899	0.820	0.782	0.749	0.721	0.666	0.595	0.737	0.644	0.614	0.639	0.599	0.683	0.830	0.724	0.591	0.531	0.544	0.584	0.608	0.584	0.693	0.560	0.695	0.663	0.575	0.490	0.502	0.454	0.387
640.0	59.19	57.63	38.44	26.22	21.09	20.16	21.33	19.81	25.70	29.98	33.01	37.21	36.91	49.91	29.84	14.01	11.39	10.41	38.56	425.4	247.9	4.237	2.568	2.337	2.184	2.174	1.965	1.919	1.776	2.039	1.951	1.693	1.556	1.569	1.502	1.234	1.427	1.333	1.285	1.218	1.305	1.095	0.864	1.039	0.843	0.933	0.787	0.785	0.757	0.686	0.683	0.656	0.598	0.562	0.646	0.612	0.547	0.593	0.506	0.613	0.737	0.691	0.638	0.630	0.549	0.584	0.637	0.530	0.629	0.530	0.537	0.582	0.605	0.532	0.452	0.451	0.456
645.0	51.28	53.89	35.69	27.52	20.35	17.53	20.99	20.21	25.89	27.27	30.60	34.69	32.58	43.37	35.22	14.99	11.59	8.076	12.28	191.4	448.6	19.44	2.319	2.094	1.960	1.913	1.794	1.752	1.852	1.834	1.740	1.709	1.467	1.579	1.493	1.293	1.203	1.168	1.115	1.079	1.145	1.164	0.795	0.853	0.817	0.805	0.835	0.724	0.639	0.589	0.558	0.658	0.589	0.494	0.513	0.518	0.519	0.556	0.568	0.521	0.629	0.677	0.640	0.623	0.564	0.484	0.527	0.461	0.534	0.519	0.498	0.596	0.698	0.521	0.496	0.456	0.389
650.0	45.05	48.99	34.20	25.20	22.77	17.69	17.75	22.11	23.62	25.80	28.12	32.48	30.35	36.07	38.19	16.41	10.93	7.528	6.783	56.74	458.6	65.14	2.603	2.138	1.839	1.761	1.564	1.530	1.585	1.579	1.404	1.544	1.365	1.319	1.229	1.235	1.162	1.193	1.029	0.913	0.933	0.945	0.972	0.814	0.798	0.717	0.725	0.667	0.567	0.517	0.542	0.514	0.479	0.411	0.442	0.473	0.521	0.509	0.572	0.465	0.440	0.526	0.600	0.501	0.499	0.452	0.544	0.493	0.515	0.454	0.491	0.523	0.595	0.547	0.441	0.398	0.357
