Sample:	'1
File name:	Default_20230629_095852.FD3
Run date:	'09:52:31, 06/29/2023
Operator:	user
Comment:	'

Instrument
Model:	F-2700 FL Spectrophotometer
Serial number:	2190-003
ROM Version:	4J14000 07

Instrument parameters
Measurement type:	3-D scan
Data mode:	Fluorescence
EX  Start WL:	220.0 nm
EX  End WL:	600.0 nm
EX Sampling interval:	5.0 nm
EM  Start WL:	230.0 nm
EM  End WL:	650.0 nm
EM Sampling interval:	5.0 nm
Scan speed:	12000 nm/min
EX Slit:	5.0 nm
EM Slit:	5.0 nm
PMT Voltage:	700 V
Response:	Auto 
Corrected spectra:	Off
Contour interval:	50.000

Peak integration
Integration method:	Rectangular
Sensitivity:	1
Threshold:	1.000

Peaks
No.	ApexEX/EM(nm)	Height(Data)
1	250.0/365.0	 5341
2	255.0/280.0	251.7
3	260.0/285.0	351.6
4	265.0/290.0	440.1
5	270.0/240.0	-19.32
6	270.0/295.0	666.1
7	270.0/590.0	113.2
8	275.0/305.0	888.0
9	275.0/605.0	94.24
10	280.0/310.0	863.7
11	280.0/615.0	61.96
12	285.0/315.0	854.1
13	290.0/325.0	812.6
14	290.0/640.0	33.86
15	295.0/330.0	752.4
16	300.0/250.0	-6.137
17	305.0/340.0	750.5
18	325.0/285.0	-2.643
19	335.0/265.0	-3.551
20	350.0/265.0	-2.646
21	360.0/295.0	-2.586
22	365.0/260.0	-2.750
23	370.0/295.0	-2.282
24	495.0/365.0	12.67
25	515.0/280.0	-0.253
26	525.0/290.0	-0.158
27	535.0/295.0	0.786
28	545.0/300.0	0.567
29	550.0/305.0	0.727
30	560.0/310.0	0.324
31	580.0/640.0	-0.644

Data points
	220.0	225.0	230.0	235.0	240.0	245.0	250.0	255.0	260.0	265.0	270.0	275.0	280.0	285.0	290.0	295.0	300.0	305.0	310.0	315.0	320.0	325.0	330.0	335.0	340.0	345.0	350.0	355.0	360.0	365.0	370.0	375.0	380.0	385.0	390.0	395.0	400.0	405.0	410.0	415.0	420.0	425.0	430.0	435.0	440.0	445.0	450.0	455.0	460.0	465.0	470.0	475.0	480.0	485.0	490.0	495.0	500.0	505.0	510.0	515.0	520.0	525.0	530.0	535.0	540.0	545.0	550.0	555.0	560.0	565.0	570.0	575.0	580.0	585.0	590.0	595.0	600.0
230.0	-138.3	-27.38	 1154	 1149	52.53	-40.57	-42.22	-34.68	-30.65	-24.46	-22.23	-19.02	-18.13	-12.74	-12.61	-10.27	-8.309	-7.003	-6.655	-6.304	-5.633	-4.846	-5.009	-4.305	-4.202	-4.202	-3.594	-3.427	-3.135	-3.781	-3.234	-3.385	-3.062	-2.566	-2.481	-2.486	-2.410	-2.407	-2.223	-2.066	-2.066	-2.195	-2.256	-2.018	-1.865	-2.063	-1.605	-0.725	0.459	0.404	-0.778	-1.528	-1.624	-1.574	-1.638	-1.851	-1.963	-1.888	-1.687	-1.835	-1.969	-1.812	-1.947	-1.750	-1.725	-1.713	-1.795	-1.873	-1.889	-1.865	-1.933	-1.876	-1.943	-2.084	-2.029	-2.040	-1.925
235.0	-118.4	-111.6	358.0	 1784	 1494	97.39	-36.03	-30.39	-30.72	-22.29	-22.60	-19.60	-19.16	-12.64	-12.15	-9.840	-8.011	-7.229	-6.954	-5.962	-6.158	-4.951	-4.222	-4.472	-4.026	-3.849	-3.677	-3.602	-3.516	-3.191	-3.984	-2.804	-2.727	-2.757	-2.814	-2.614	-2.142	-2.765	-2.491	-1.835	-2.394	-2.535	-2.424	-1.643	-2.335	-2.138	-1.753	-1.266	-1.330	-0.141	1.524	0.793	-0.118	-1.475	-1.690	-1.728	-2.165	-1.858	-1.647	-2.386	-1.839	-1.937	-1.895	-2.032	-2.034	-1.954	-1.283	-2.106	-2.175	-1.972	-1.862	-2.108	-1.936	-1.943	-1.988	-2.069	-2.046
240.0	-118.1	-102.8	18.34	704.9	 2495	 1448	54.26	-30.42	-31.84	-19.97	-19.32	-22.33	-17.22	-13.93	-14.63	-8.352	-7.471	-8.742	-7.664	-6.352	-5.921	-4.827	-3.858	-4.562	-3.838	-3.924	-3.184	-3.773	-3.650	-2.888	-4.433	-2.732	-3.430	-3.519	-2.579	-2.625	-2.691	-2.028	-2.133	-1.979	-2.156	-2.006	-2.052	-2.048	-1.969	-1.772	-1.870	-1.797	-1.637	-1.098	-0.040	1.239	2.386	0.911	-0.942	-1.605	-2.069	-1.725	-1.632	-1.825	-2.184	-1.806	-2.111	-1.885	-1.969	-1.813	-1.470	-1.837	-2.186	-1.695	-2.315	-1.941	-1.710	-1.482	-1.933	-2.079	-2.184
245.0	-128.5	-128.1	-56.11	117.1	 1361	 3290	 1262	-2.898	-27.18	-25.68	-21.36	-20.26	-17.43	-12.37	-13.86	-10.02	-6.514	-8.148	-7.133	-6.845	-4.967	-4.713	-5.089	-4.431	-3.378	-3.198	-3.856	-4.089	-3.476	-3.407	-3.531	-3.719	-2.416	-2.693	-2.181	-2.693	-2.280	-2.018	-1.778	-2.264	-1.903	-2.221	-2.606	-2.180	-1.904	-2.007	-1.667	-1.745	-1.618	-1.236	-1.218	-0.900	1.084	2.979	2.949	0.843	-1.238	-1.879	-1.729	-1.455	-1.940	-2.058	-1.989	-1.939	-2.065	-1.850	-1.937	-1.583	-1.800	-1.588	-1.904	-1.553	-2.064	-1.488	-1.997	-2.380	-2.335
250.0	-121.8	-112.6	-62.55	-0.787	296.2	 1603	 3568	 2564	298.8	-20.55	-20.10	-19.30	-19.43	-13.82	-13.17	-8.341	-6.137	-8.092	-6.658	-6.211	-4.638	-4.783	-4.434	-4.294	-4.244	-3.620	-3.624	-4.198	-3.712	-3.695	-3.442	-3.316	-2.737	-2.693	-2.426	-2.816	-2.477	-2.398	-1.916	-2.196	-1.973	-2.274	-2.477	-2.117	-1.864	-1.994	-1.790	-1.935	-1.755	-1.197	-1.174	-1.611	-0.930	-0.203	1.385	2.735	3.606	2.713	0.419	-1.188	-1.868	-1.694	-1.894	-1.965	-1.997	-1.795	-1.887	-1.748	-1.769	-1.878	-1.758	-1.965	-1.866	-1.899	-2.152	-2.259	-2.175
255.0	-120.4	-111.4	-66.29	-14.36	95.68	330.5	 1205	 5171	 4133	279.0	-19.94	-18.89	-14.54	-10.93	-13.10	-10.64	-6.980	-8.391	-7.074	-5.661	-5.188	-4.781	-4.495	-4.072	-4.340	-4.416	-4.163	-3.585	-3.246	-3.638	-3.430	-2.760	-3.348	-3.046	-2.461	-2.589	-2.894	-2.433	-2.155	-2.352	-2.240	-2.356	-2.356	-1.582	-1.509	-1.824	-1.711	-1.649	-1.745	-1.184	-1.173	-1.514	-1.297	-1.443	-0.482	-0.592	0.587	3.104	6.365	5.699	1.233	-1.245	-2.147	-1.588	-1.994	-1.960	-1.636	-2.152	-1.619	-1.980	-2.182	-1.912	-1.961	-1.945	-1.417	-1.875	-1.972
260.0	-144.5	-102.0	-88.59	-33.96	66.88	94.17	247.3	 2223	 6709	 1559	113.4	-16.71	-11.73	-11.56	-9.165	-9.509	-8.803	-7.665	-7.832	-4.952	-5.074	-4.666	-4.675	-3.706	-4.760	-3.664	-3.257	-2.891	-3.676	-2.750	-3.966	-3.749	-3.736	-2.266	-2.894	-2.711	-2.954	-2.563	-2.035	-2.169	-2.017	-1.924	-2.199	-1.734	-1.930	-1.941	-1.631	-1.515	-1.862	-1.298	-1.413	-1.564	-1.053	-1.483	-1.463	-1.436	-1.264	-0.559	2.081	5.698	6.368	4.303	-0.246	-1.613	-1.794	-2.102	-1.662	-1.974	-1.888	-1.958	-2.194	-1.895	-2.036	-2.021	-1.691	-1.838	-2.075
265.0	-116.0	-118.1	-94.00	-59.41	13.38	109.2	50.06	511.7	 3396	 6101	 1183	20.63	-11.25	-9.787	-10.58	-10.86	-7.997	-6.726	-5.552	-6.165	-6.014	-4.690	-4.146	-3.551	-4.825	-3.435	-2.646	-3.562	-3.649	-3.032	-3.553	-3.047	-2.418	-2.975	-2.923	-2.482	-2.350	-2.472	-2.386	-2.087	-1.970	-2.332	-1.952	-1.739	-1.784	-2.068	-1.834	-1.829	-1.663	-1.282	-1.483	-1.679	-1.225	-1.274	-1.279	-1.325	-1.506	-1.490	-1.297	0.511	3.408	7.834	9.478	3.440	-1.142	-1.820	-1.496	-1.822	-2.104	-1.472	-2.012	-2.004	-1.611	-1.998	-1.789	-2.036	-2.029
270.0	-132.9	-110.7	-88.27	-76.72	-32.67	65.78	128.0	142.7	806.4	 2768	 4545	 2817	250.6	-6.034	-8.487	-7.721	-9.796	-6.996	-5.461	-5.419	-5.674	-5.538	-4.051	-3.616	-4.141	-3.286	-3.581	-2.984	-3.491	-3.317	-3.011	-3.002	-2.431	-2.790	-2.993	-1.991	-2.081	-2.563	-2.250	-1.925	-2.393	-2.791	-1.844	-1.710	-1.871	-2.112	-1.867	-1.682	-1.475	-1.017	-1.632	-1.428	-1.584	-1.644	-1.148	-1.012	-0.862	-1.497	-1.525	-1.433	-0.701	0.930	4.159	7.256	8.101	6.455	2.500	-1.218	-1.754	-1.862	-1.917	-2.211	-1.868	-1.650	-2.043	-1.998	-2.102
275.0	-128.0	-89.18	-81.79	-80.34	-46.50	-13.04	83.70	240.7	211.2	637.6	 1450	 4951	 4155	215.2	-7.599	-6.967	-6.285	-4.934	-5.632	-4.765	-4.585	-5.270	-4.210	-4.994	-4.318	-3.102	-3.516	-3.618	-3.068	-3.984	-3.468	-3.162	-2.937	-3.029	-2.858	-2.493	-2.485	-2.618	-2.419	-2.155	-2.391	-2.298	-1.625	-1.721	-2.073	-2.078	-1.284	-1.794	-1.411	-1.154	-1.649	-1.404	-1.578	-1.855	-1.740	-1.532	-0.900	-0.887	-1.412	-1.520	-1.582	-1.472	-0.030	0.353	1.559	6.267	14.39	12.66	3.253	-1.410	-1.661	-1.652	-1.597	-1.761	-2.202	-2.070	-1.955
280.0	-100.9	-55.28	-70.12	-66.60	-41.90	-27.91	16.71	251.7	220.9	197.5	383.0	 1906	 6322	 3107	79.92	-7.011	-6.945	-6.441	-3.389	-4.150	-3.910	-4.281	-4.417	-5.115	-4.298	-3.237	-3.784	-3.191	-3.699	-3.521	-3.649	-2.859	-3.379	-2.495	-2.024	-2.154	-2.714	-2.032	-1.935	-1.584	-2.478	-2.215	-1.956	-2.245	-1.992	-1.912	-1.496	-1.334	-1.592	-1.084	-1.322	-1.883	-1.321	-1.928	-1.729	-1.426	-1.320	-1.305	-0.841	-0.253	-1.455	-1.446	-1.017	-1.197	-0.708	0.623	5.038	12.42	17.27	8.416	0.601	-1.702	-2.021	-1.962	-2.222	-1.915	-2.021
285.0	-98.10	-61.83	-35.35	-51.35	-35.32	-35.09	-16.54	115.1	351.6	211.8	166.6	548.4	 2899	 6863	718.3	20.44	-3.356	-5.526	-3.826	-3.989	-3.840	-2.643	-3.652	-4.768	-5.178	-2.930	-3.389	-3.593	-2.961	-3.300	-3.316	-2.698	-3.489	-3.120	-2.347	-2.090	-2.096	-2.392	-1.583	-1.682	-2.332	-2.136	-1.599	-2.632	-1.935	-1.622	-1.553	-1.524	-1.389	-1.003	-1.518	-1.475	-1.546	-1.692	-1.777	-1.771	-1.393	-1.849	-1.336	-0.517	-0.677	-1.116	-1.058	-1.307	-1.434	-1.222	-0.046	2.624	8.664	16.31	16.47	5.582	-1.406	-1.755	-2.057	-1.861	-1.650
290.0	-82.13	-15.38	8.259	-8.320	-33.29	-17.47	-5.304	57.88	215.6	440.1	320.3	306.6	818.1	 2977	 4973	 2586	173.2	-2.213	-3.933	-3.961	-3.353	-3.817	-3.384	-4.279	-3.696	-3.535	-3.175	-3.018	-3.296	-3.585	-2.691	-3.224	-3.103	-3.024	-2.595	-2.433	-2.296	-2.131	-2.062	-1.921	-2.432	-1.987	-1.761	-2.233	-1.817	-1.729	-1.670	-1.395	-1.209	-0.858	-1.229	-1.457	-1.479	-1.637	-1.449	-1.722	-1.387	-1.490	-1.490	-1.441	-0.928	-0.158	-0.288	-0.381	-1.181	-1.317	-0.920	-0.281	0.719	3.573	8.249	11.85	12.41	9.560	2.568	-1.111	-2.111
295.0	-86.88	29.94	34.74	19.42	6.017	4.455	31.95	62.89	140.4	329.2	666.1	441.5	403.1	799.7	 1592	 5775	 3729	200.8	-2.965	-2.353	-2.225	-3.373	-1.879	-4.122	-3.635	-2.965	-2.707	-3.412	-2.586	-4.329	-2.282	-3.279	-3.306	-2.740	-2.529	-2.485	-1.480	-1.965	-2.397	-1.868	-2.330	-2.296	-1.983	-2.039	-2.121	-1.577	-1.432	-1.260	-1.353	-1.173	-1.062	-1.449	-1.517	-1.707	-1.227	-1.637	-0.906	-1.115	-1.453	-1.320	-1.264	-0.902	-0.376	0.786	0.201	-0.758	-1.207	-0.970	-0.887	-0.394	0.262	1.596	2.736	10.96	19.59	16.05	2.856
300.0	-39.14	33.29	54.98	19.00	24.19	32.89	53.10	94.47	168.6	281.7	613.3	769.2	415.4	363.0	460.8	 2250	 6894	 2801	84.96	-0.555	-1.548	-4.719	-2.792	-4.327	-3.712	-2.681	-3.370	-2.507	-3.014	-3.986	-3.362	-3.103	-2.568	-2.651	-2.997	-2.273	-2.132	-2.252	-2.364	-2.532	-2.338	-2.041	-2.058	-1.991	-2.037	-1.635	-1.276	-0.968	-1.351	-0.953	-1.064	-1.469	-1.758	-1.401	-1.404	-1.325	-1.519	-1.235	-1.205	-1.157	-1.111	-1.356	-0.779	-0.320	0.150	0.567	-0.128	-0.739	-1.021	-1.249	-1.129	-0.768	-0.833	1.162	7.431	19.15	22.89
305.0	-53.89	-2.174	88.77	67.80	54.68	61.56	79.02	107.6	192.3	296.3	506.0	888.0	653.5	322.0	230.6	590.0	 3346	 7080	445.8	24.81	0.398	-4.226	-2.861	-2.944	-3.445	-2.839	-2.932	-2.771	-3.789	-3.005	-2.886	-2.894	-2.820	-3.107	-2.495	-2.474	-2.437	-1.984	-2.252	-2.471	-2.083	-1.891	-2.322	-1.808	-2.205	-1.602	-1.405	-1.788	-1.352	-1.055	-0.991	-1.122	-1.563	-1.498	-1.299	-1.357	-1.111	-1.238	-1.114	-1.086	-0.968	-1.249	-0.813	-0.483	-0.749	0.182	0.727	-0.221	-0.709	-0.925	-1.470	-1.482	-1.565	-1.304	0.391	4.343	13.48
310.0	-43.26	27.20	111.7	96.65	93.22	99.28	130.3	158.2	230.5	333.3	487.5	684.5	863.7	588.4	263.2	248.0	851.2	 3181	 5264	 1724	131.7	-0.987	-1.770	-2.531	-2.671	-2.460	-2.951	-2.904	-3.467	-2.904	-3.387	-2.988	-2.683	-2.583	-2.677	-1.988	-1.994	-1.631	-2.310	-2.046	-2.383	-2.093	-2.272	-1.863	-1.851	-1.905	-1.395	-1.418	-1.102	-1.099	-0.672	-1.360	-1.210	-1.352	-1.236	-1.331	-1.345	-1.132	-1.039	-1.136	-0.755	-0.934	-0.861	-0.672	-0.451	-0.170	-0.249	0.079	0.324	-0.139	-0.766	-1.409	-1.808	-1.551	-1.123	-0.369	1.901
315.0	-38.45	31.65	133.4	153.0	151.0	151.8	205.8	221.2	291.7	377.8	519.0	601.4	677.0	854.1	500.1	225.3	301.4	782.0	 1720	 5689	 2723	168.6	1.856	-0.424	-1.048	-2.853	-2.560	-2.806	-3.274	-3.045	-2.519	-2.875	-2.318	-2.660	-2.951	-1.773	-2.064	-1.903	-2.243	-2.058	-2.336	-2.104	-2.267	-2.287	-1.961	-1.522	-1.345	-1.237	-1.242	-1.012	-0.866	-1.273	-1.229	-1.649	-1.011	-1.164	-1.001	-1.080	-1.144	-1.036	-0.725	-0.340	-0.517	-0.925	-0.387	-0.528	-0.708	-0.184	-0.084	0.325	0.059	-0.362	-0.984	-1.455	-0.970	-1.119	-0.850
320.0	-16.60	84.86	203.5	222.2	243.5	249.2	293.2	302.5	376.5	454.9	542.7	622.0	642.9	775.6	775.7	345.5	213.6	275.0	456.8	 2360	 6583	 2192	84.86	-0.964	0.032	-2.157	-2.702	-2.714	-2.413	-2.444	-2.148	-3.026	-2.538	-2.775	-2.433	-2.006	-2.616	-2.552	-1.994	-2.285	-1.852	-1.785	-1.779	-1.901	-1.587	-1.233	-1.382	-1.203	-0.889	-0.368	-0.878	-1.015	-1.025	-0.990	-0.781	-0.800	-0.946	-1.087	-0.673	-0.968	-0.864	-0.942	0.013	-0.967	-0.500	-0.676	-0.403	-0.011	-0.752	-0.095	-0.020	0.552	-0.738	-1.220	-0.408	-1.514	-0.967
325.0	24.36	129.6	384.9	364.0	412.6	408.8	464.8	452.6	513.1	566.8	621.4	659.2	686.6	671.8	812.6	620.5	283.4	204.4	199.6	612.2	 3412	 6549	 1611	27.49	0.883	-1.858	-2.540	-2.067	-2.471	-2.835	-2.456	-2.676	-2.648	-1.930	-2.310	-2.330	-2.000	-2.095	-1.617	-1.977	-2.211	-1.871	-1.783	-1.739	-1.573	-0.822	-0.800	-0.879	-0.909	-0.388	-0.518	-0.654	-0.617	-0.297	-0.501	-0.349	-0.325	-0.819	-0.440	-0.404	-0.328	-0.332	-0.282	-0.446	-0.470	-0.652	-0.258	-0.597	0.034	-0.518	-0.290	0.382	0.155	-0.192	-0.233	-1.080	-1.334
330.0	57.43	303.3	622.8	740.4	813.6	891.5	946.0	902.3	866.5	858.3	806.4	739.8	763.8	730.3	718.8	752.4	566.7	297.3	199.2	242.2	878.1	 3135	 5054	 2466	108.6	0.680	-1.693	-1.116	-2.477	-1.789	-2.564	-2.624	-2.309	-1.825	-2.302	-2.206	-1.754	-2.203	-1.645	-1.830	-2.108	-2.125	-1.838	-1.659	-1.593	-1.191	-0.857	-0.568	-0.399	-0.154	0.053	0.325	0.173	0.815	0.866	1.026	0.709	0.583	0.684	0.734	0.508	0.108	-0.059	-0.168	-0.451	-0.487	-0.231	-0.450	-0.016	-0.221	-0.058	-0.266	-0.255	0.118	0.160	-0.471	-0.529
335.0	137.0	486.7	981.8	 1258	 1461	 1670	 1782	 1557	 1471	 1345	 1036	890.5	878.1	851.6	774.1	704.9	740.4	536.5	292.3	218.1	315.3	780.3	 1737	 5561	 2105	144.1	0.479	-0.481	-1.991	-2.371	-2.580	-1.919	-2.167	-1.789	-1.906	-1.950	-1.651	-1.555	-1.906	-1.656	-1.845	-1.768	-1.609	-1.741	-1.261	-0.934	-0.737	0.032	0.337	0.914	1.811	2.033	1.726	2.879	2.763	3.887	3.722	2.770	2.113	2.179	1.213	0.968	0.877	0.390	0.019	-0.071	0.027	0.094	0.401	0.129	0.308	-0.067	-0.445	-0.300	0.034	-0.064	0.295
340.0	201.5	670.6	 1241	 1786	 2143	 2481	 2464	 2168	 1921	 1756	 1254	 1015	987.2	973.8	874.9	740.2	695.4	750.5	457.0	264.9	229.5	286.3	474.5	 2466	 6017	 1793	81.15	0.592	-1.061	-2.023	-1.457	-2.023	-2.206	-1.742	-1.846	-1.664	-1.751	-1.662	-1.965	-1.780	-1.940	-1.910	-1.368	-1.563	-1.244	-0.560	-0.198	0.536	1.012	1.681	2.420	3.142	3.523	4.382	5.361	4.351	5.234	4.644	3.233	2.677	2.719	2.313	2.132	1.465	0.543	0.240	0.544	0.677	-0.124	-0.067	0.707	0.136	0.078	-0.188	0.057	-0.335	0.417
345.0	256.2	815.8	 1593	 2199	 2628	 2998	 2971	 2694	 2414	 2119	 1495	 1127	 1092	 1064	965.8	835.0	717.0	736.6	687.0	374.6	252.2	216.2	213.3	661.2	 3320	 5997	 1384	26.12	0.755	-1.328	-2.235	-2.146	-2.249	-2.239	-2.077	-1.953	-2.025	-1.801	-1.812	-1.621	-1.549	-1.660	-1.620	-1.648	-0.796	-0.614	0.199	0.203	1.652	2.430	3.078	5.098	5.275	5.780	6.541	6.886	6.893	5.689	5.166	3.965	3.124	2.797	2.077	1.626	0.387	0.246	0.228	1.043	0.343	0.568	0.361	0.832	0.165	-0.206	-0.156	-0.328	0.250
350.0	440.2	939.9	 1912	 2644	 3185	 3703	 3939	 3448	 3035	 2615	 1786	 1288	 1210	 1206	 1121	989.2	835.7	741.3	730.9	614.5	361.1	261.3	213.7	268.9	886.1	 3029	 4690	 2209	96.80	2.604	-0.252	-0.932	-1.915	-2.202	-2.405	-1.772	-2.038	-1.923	-2.090	-1.638	-1.709	-1.548	-1.306	-1.257	-0.482	0.014	0.440	1.134	2.454	2.964	3.865	6.107	6.566	7.774	8.196	8.353	8.874	7.609	6.755	5.946	5.044	4.298	3.285	2.219	1.178	0.736	1.009	0.821	0.591	0.909	0.230	0.886	0.764	0.576	0.156	0.313	0.482
355.0	457.7	 1089	 2142	 2895	 3918	 4397	 4595	 4121	 3610	 3151	 2127	 1566	 1419	 1366	 1302	 1164	977.9	848.4	728.6	708.3	610.2	362.6	291.8	244.4	335.7	774.0	 1716	 5033	 1813	132.3	1.785	0.026	-0.788	-1.316	-1.805	-1.678	-1.605	-1.667	-1.849	-1.131	-1.358	-1.493	-1.323	-1.680	-0.391	0.287	0.719	1.528	2.502	4.046	4.991	6.819	7.810	9.476	9.593	9.624	9.536	9.362	8.426	7.187	6.586	5.047	4.741	3.195	2.216	1.968	1.205	1.216	1.452	1.827	0.672	1.835	1.497	1.507	1.334	0.844	0.346
360.0	533.3	 1294	 2241	 3115	 4123	 4709	 5124	 4515	 4164	 3564	 2390	 1717	 1571	 1528	 1452	 1289	 1094	957.8	794.9	707.7	716.4	537.5	350.1	281.3	260.4	304.9	479.5	 2285	 5367	 1613	75.49	1.056	-0.137	-0.554	-1.478	-1.999	-1.256	-1.800	-1.675	-0.811	-1.730	-0.931	-1.195	-0.859	-0.129	0.226	1.315	2.033	2.545	3.620	5.351	7.534	8.606	10.83	10.81	11.36	11.15	10.83	9.642	7.953	7.198	6.523	5.413	3.477	2.182	2.001	1.071	1.336	1.189	1.843	1.062	1.550	1.539	1.395	0.982	0.830	1.131
365.0	516.5	 1148	 2312	 3310	 4184	 5206	 5341	 4727	 4425	 3760	 2740	 1905	 1740	 1628	 1578	 1404	 1236	 1056	898.5	748.2	716.2	700.1	471.5	335.9	275.2	235.8	218.2	620.8	 3008	 5408	 1250	27.11	0.158	-0.773	-1.347	-1.423	-1.897	-1.402	-1.471	-1.173	-1.707	-1.080	-1.169	-0.740	-0.007	0.314	2.340	2.176	2.839	3.807	5.481	7.773	9.455	9.936	11.35	12.67	12.37	11.21	10.55	8.799	7.265	6.789	6.354	4.032	2.809	2.134	2.196	1.463	1.907	2.075	1.667	2.272	1.614	1.413	0.985	1.383	0.916
370.0	556.8	 1148	 2423	 3347	 4246	 5095	 5314	 4914	 4472	 3984	 2890	 2089	 1897	 1777	 1681	 1517	 1357	 1186	 1018	853.3	752.2	731.3	677.2	487.3	358.3	282.9	214.0	253.9	798.6	 2677	 4394	 2082	83.12	1.553	-0.396	-0.844	-1.573	-1.340	-1.638	-1.620	-1.384	-1.203	-0.959	-0.896	-0.547	0.346	1.605	2.271	3.060	4.061	5.691	7.718	9.140	10.94	11.27	12.23	12.15	11.68	9.322	9.175	8.096	7.085	5.849	4.919	3.680	2.836	2.356	2.039	1.892	2.443	2.282	2.207	1.984	1.674	1.890	2.014	1.452
375.0	549.3	 1152	 2242	 3254	 4203	 4881	 5143	 4742	 4406	 4023	 3024	 2283	 2041	 1964	 1790	 1648	 1490	 1328	 1153	982.0	858.2	767.2	737.3	680.4	503.8	376.7	277.5	223.0	292.9	671.5	 1589	 4706	 1527	106.5	1.336	0.087	-0.693	-1.860	-1.612	-1.570	-0.846	-0.898	-0.819	-1.323	-0.601	-0.173	1.232	2.431	2.933	3.802	5.306	7.857	8.832	10.23	11.04	11.41	12.20	10.67	9.700	9.074	8.719	7.019	6.790	4.910	2.878	3.377	3.045	2.241	1.806	2.902	2.436	2.093	2.060	2.184	2.450	1.948	2.070
380.0	622.5	 1144	 2095	 2850	 3908	 4697	 5048	 4575	 4284	 3992	 3018	 2394	 2157	 2023	 1872	 1704	 1566	 1391	 1226	 1073	928.5	835.3	767.3	767.6	669.3	473.2	347.9	260.2	210.8	246.3	427.2	 2138	 4862	 1317	56.95	0.966	-0.562	-1.242	-1.463	-2.019	-1.154	-1.291	-0.952	-0.792	-0.416	-0.071	0.907	1.928	3.067	3.541	5.033	7.656	8.531	10.31	10.26	10.90	11.85	10.59	9.688	8.299	7.565	7.721	6.525	4.902	3.706	3.318	3.077	2.757	2.659	2.834	2.546	1.922	2.446	2.625	2.251	1.914	1.695
385.0	574.9	 1059	 1980	 2756	 3728	 4524	 4894	 4506	 4302	 3978	 3123	 2431	 2207	 2088	 1973	 1756	 1612	 1451	 1296	 1140	 1017	900.8	806.7	781.0	773.5	575.3	418.5	306.8	227.5	183.6	179.4	564.4	 2753	 4642	978.4	17.72	0.765	-0.430	-0.777	-1.202	-1.261	-0.788	-0.684	-0.883	-0.112	0.594	0.776	1.580	3.077	3.623	4.748	8.182	7.667	9.383	9.378	11.22	10.53	9.883	9.957	8.304	7.634	7.086	6.328	5.094	4.456	3.516	3.659	3.042	3.166	2.917	2.589	2.720	2.977	2.681	2.345	2.317	2.214
390.0	478.9	 1039	 1841	 2448	 3396	 4122	 4407	 4134	 3954	 3709	 2993	 2415	 2252	 2127	 1975	 1839	 1668	 1507	 1360	 1225	 1094	978.4	881.6	801.2	781.3	712.7	541.0	377.4	281.3	207.8	157.1	204.5	716.8	 2335	 3568	 1572	63.31	1.238	-0.103	-0.428	-1.050	-1.011	-1.050	-0.715	0.013	0.194	0.989	1.414	2.946	3.224	4.297	6.802	6.630	8.373	8.722	10.26	9.968	9.060	8.611	7.581	7.048	7.165	6.514	4.643	3.753	3.603	3.106	3.009	2.884	2.835	2.865	2.706	2.911	2.648	2.628	2.537	2.340
395.0	369.9	861.3	 1771	 2308	 3151	 3655	 3998	 3797	 3674	 3553	 2892	 2371	 2255	 2144	 1980	 1870	 1718	 1557	 1410	 1296	 1153	 1059	955.9	871.3	785.6	743.5	678.9	485.3	342.2	261.8	191.8	158.4	233.7	572.2	 1326	 3744	 1185	78.17	1.814	0.365	-0.399	-0.796	-0.694	-1.337	-0.441	0.573	1.116	0.717	2.101	2.854	4.047	5.976	6.300	7.284	8.331	8.895	8.349	7.835	7.288	6.812	7.032	5.701	5.985	4.489	3.542	3.726	3.161	2.501	2.747	2.767	2.576	2.783	2.850	2.586	3.283	2.218	2.873
400.0	433.3	868.2	 1635	 2225	 2692	 3311	 3692	 3547	 3452	 3311	 2802	 2434	 2238	 2121	 1992	 1852	 1722	 1574	 1459	 1318	 1187	 1111	986.3	900.4	811.7	743.8	694.2	588.3	408.0	298.1	227.2	168.1	146.1	189.0	344.2	 1754	 3703	 1031	40.87	0.840	-0.119	-0.308	-0.330	-0.548	-0.197	0.040	0.970	0.835	1.849	2.250	3.904	4.888	6.502	6.866	7.142	8.164	7.151	7.063	6.912	6.758	6.106	5.359	5.417	4.500	3.126	3.804	3.031	2.919	3.698	2.578	2.504	2.311	2.890	2.947	2.666	2.280	2.483
405.0	362.2	749.4	 1352	 1879	 2569	 3093	 3315	 3279	 3255	 3155	 2739	 2371	 2193	 2103	 1966	 1832	 1715	 1603	 1459	 1341	 1225	 1124	 1006	926.0	834.8	754.5	674.4	636.6	490.8	342.8	259.5	192.3	145.2	118.1	128.9	457.4	 2093	 3531	761.7	12.52	0.384	-0.554	-0.710	-0.414	-0.549	-0.182	0.870	1.287	1.176	2.492	3.382	4.908	5.496	5.879	6.424	7.091	6.903	6.775	5.097	5.649	5.757	5.298	4.778	4.867	3.422	3.561	3.185	3.220	3.102	2.786	2.746	2.487	2.879	2.770	2.438	2.550	2.540
410.0	303.8	667.5	 1272	 1686	 2309	 2730	 2981	 2966	 3063	 2958	 2552	 2253	 2157	 2077	 1920	 1798	 1682	 1581	 1463	 1356	 1242	 1133	 1027	943.5	856.2	767.9	673.9	612.6	566.3	428.1	309.7	231.1	176.8	127.7	100.1	152.5	539.5	 1814	 2695	 1168	50.62	0.609	-0.259	-0.242	-0.126	-0.341	0.581	0.761	1.548	1.867	2.301	3.595	4.664	5.204	5.346	6.631	6.008	5.928	5.150	5.379	4.998	5.140	4.222	3.429	3.518	3.081	3.228	2.944	2.440	2.717	2.967	2.236	2.335	2.768	2.435	2.670	2.243
415.0	256.8	615.7	 1156	 1516	 2116	 2377	 2711	 2709	 2754	 2700	 2409	 2139	 2100	 1961	 1873	 1758	 1628	 1537	 1454	 1352	 1208	 1116	 1028	933.2	861.1	782.1	689.0	606.3	548.4	514.5	394.6	271.7	209.5	153.6	119.8	99.92	167.9	437.9	 1005	 2747	 1019	67.40	1.476	0.189	0.148	-0.279	0.873	0.647	0.938	1.263	2.338	3.096	3.989	4.603	5.241	4.881	5.445	5.183	4.935	5.097	4.550	4.726	4.144	3.577	3.478	2.394	2.678	2.442	2.554	2.678	2.442	2.568	2.136	2.249	2.076	2.362	2.312
420.0	244.5	574.8	 1111	 1382	 1821	 2173	 2502	 2548	 2617	 2568	 2288	 2113	 2041	 1920	 1811	 1695	 1589	 1523	 1429	 1329	 1192	 1114	 1016	939.7	863.3	779.9	695.1	610.2	530.9	519.0	457.7	316.4	230.8	181.6	135.2	102.1	95.90	136.9	258.2	 1290	 2810	857.9	27.99	0.614	0.393	0.230	0.114	0.278	1.172	0.919	1.956	2.561	3.268	4.163	3.810	4.856	4.573	4.985	4.588	4.480	4.392	4.369	3.656	3.464	3.294	2.863	2.782	2.193	1.894	2.518	2.357	2.093	2.245	2.207	2.062	1.929	1.758
425.0	192.1	511.4	931.8	 1315	 1643	 2075	 2167	 2362	 2456	 2463	 2282	 2043	 1948	 1845	 1782	 1651	 1557	 1493	 1382	 1303	 1201	 1109	 1016	928.5	862.2	769.2	709.2	617.4	543.9	500.1	478.5	381.4	262.1	203.7	148.2	111.0	91.22	76.54	91.11	332.5	 1617	 2649	585.1	7.983	0.461	0.365	0.488	0.085	1.069	1.363	1.718	2.633	3.048	3.471	2.805	4.590	4.272	4.717	4.733	4.613	3.815	4.208	3.760	2.976	2.734	2.181	2.807	2.379	1.570	2.213	2.527	1.757	2.718	2.249	1.608	1.469	2.783
430.0	237.9	454.4	914.6	 1176	 1513	 1837	 2040	 2148	 2314	 2351	 2177	 2006	 1915	 1795	 1705	 1608	 1505	 1430	 1336	 1265	 1190	 1089	991.4	923.1	850.2	773.1	709.1	629.0	567.6	504.1	462.6	423.5	325.2	237.1	175.6	136.1	104.5	79.30	65.22	107.2	412.8	 1365	 2103	560.8	44.65	1.202	0.194	0.602	0.877	1.151	1.356	2.308	2.457	2.926	2.876	3.736	4.139	4.142	4.666	4.151	3.445	3.860	3.135	2.839	2.962	2.213	2.205	2.421	1.894	1.944	2.141	2.127	2.223	1.833	1.516	2.298	2.212
435.0	291.3	445.6	844.1	 1021	 1319	 1664	 1918	 2032	 2144	 2303	 2138	 1959	 1820	 1745	 1645	 1530	 1459	 1385	 1318	 1247	 1143	 1058	982.2	903.2	840.6	777.4	708.3	643.9	584.5	521.1	461.7	425.7	387.7	291.5	208.8	162.0	127.4	98.13	73.00	66.85	122.8	326.7	836.0	 2302	899.0	53.46	1.219	0.674	1.503	0.922	1.250	1.932	2.397	2.070	2.600	3.314	3.399	3.589	4.089	4.510	3.302	3.525	3.195	2.848	2.918	2.122	2.468	1.917	1.503	2.261	1.791	1.771	2.355	1.671	1.075	1.351	2.093
440.0	321.4	446.1	748.3	958.4	 1234	 1509	 1817	 1899	 2086	 2166	 2032	 1875	 1808	 1731	 1611	 1475	 1412	 1327	 1264	 1194	 1116	 1032	948.2	874.9	828.2	768.0	698.3	649.9	590.3	533.8	477.3	420.4	384.8	333.4	240.2	176.6	141.1	111.1	85.65	64.73	64.32	99.21	211.3	 1216	 2441	723.7	20.55	1.755	1.407	1.176	1.418	1.904	2.494	2.291	2.756	3.139	2.855	2.936	3.176	3.531	3.404	3.653	3.132	3.704	2.927	2.248	2.624	2.215	2.403	2.109	1.426	1.703	1.816	1.636	1.407	1.215	1.892
445.0	285.5	597.9	788.1	992.9	 1223	 1443	 1652	 1787	 2048	 2071	 2041	 1855	 1782	 1660	 1558	 1421	 1341	 1291	 1226	 1148	 1082	 1000	915.2	854.1	808.0	756.7	698.6	649.5	586.7	541.7	486.8	422.9	376.9	344.7	273.8	197.0	152.9	124.4	94.42	74.17	57.12	54.23	70.68	318.2	 1501	 2365	108.8	6.701	2.078	1.125	1.201	1.030	2.360	2.239	2.286	2.264	2.582	2.692	3.680	2.880	3.201	3.558	2.203	3.006	2.363	2.200	2.175	1.964	2.085	2.737	1.443	1.711	1.181	1.504	1.767	1.534	1.721
450.0	163.3	633.9	806.7	848.3	 1089	 1312	 1557	 1736	 1928	 2003	 1937	 1807	 1705	 1587	 1462	 1356	 1273	 1199	 1153	 1091	 1013	954.1	884.8	829.4	768.6	724.9	679.2	637.4	581.2	543.6	489.2	426.5	367.6	328.8	297.4	234.8	175.7	140.4	108.1	86.23	68.55	53.15	48.16	93.35	388.2	 1337	 1892	464.0	32.95	2.220	1.664	1.297	1.952	2.190	1.934	2.615	2.523	2.422	2.748	2.828	2.741	3.044	2.460	2.573	2.060	1.811	1.839	1.733	1.686	2.189	1.511	1.653	1.598	1.550	1.215	1.454	1.442
455.0	127.8	476.0	 1075	827.2	956.4	 1172	 1400	 1570	 1780	 1932	 1819	 1719	 1624	 1484	 1384	 1277	 1185	 1111	 1075	 1029	936.9	889.9	832.8	774.9	737.6	686.8	645.6	607.8	570.6	529.5	482.5	428.7	370.8	320.2	285.3	264.6	209.0	151.7	120.2	98.84	80.59	63.63	49.96	50.89	108.5	316.1	802.3	 2093	693.6	33.38	2.564	1.570	1.688	1.382	1.615	2.042	2.612	1.947	2.801	2.286	2.461	2.942	1.972	2.462	2.151	1.843	2.037	1.269	2.039	2.057	1.365	1.583	1.704	0.798	1.432	1.261	1.027
460.0	153.9	320.2	 1137	 1039	893.5	 1087	 1250	 1428	 1700	 1830	 1744	 1679	 1566	 1440	 1319	 1219	 1129	 1063	 1008	962.3	889.5	841.5	785.0	733.3	702.3	661.0	623.4	587.5	551.2	509.4	475.2	417.2	372.6	312.2	275.2	252.3	228.4	169.0	129.6	105.6	84.59	69.01	55.50	44.65	49.62	90.40	203.8	 1151	 2133	479.6	14.00	2.312	1.928	1.545	1.549	1.310	1.899	2.134	2.005	2.260	2.527	2.869	2.259	2.224	2.367	1.375	1.792	1.948	1.809	1.364	1.157	1.019	1.093	1.352	0.865	1.222	0.938
465.0	89.76	216.5	924.1	 1308	894.1	 1030	 1148	 1352	 1589	 1734	 1646	 1531	 1446	 1361	 1251	 1137	 1059	996.2	946.6	894.7	846.6	796.7	742.9	694.0	656.5	631.7	586.1	568.3	526.9	498.0	467.9	410.6	365.6	309.2	270.7	239.0	227.1	187.5	138.3	112.6	90.47	76.06	60.23	48.39	41.66	43.24	63.82	302.2	 1446	 1853	86.57	5.018	2.104	1.701	1.105	1.550	2.034	2.196	1.803	2.183	2.648	2.190	1.778	1.389	2.104	1.375	1.559	1.161	1.254	1.374	1.428	1.198	0.907	0.640	0.741	1.147	1.032
470.0	42.75	190.2	584.2	 1408	 1186	903.9	 1090	 1231	 1437	 1586	 1517	 1436	 1371	 1256	 1138	 1066	965.8	913.1	867.7	824.5	766.9	724.0	676.0	645.2	599.7	578.0	549.4	519.8	493.3	472.4	439.0	391.1	346.5	298.7	260.9	227.1	207.2	194.4	155.0	120.5	96.63	84.81	66.09	53.65	45.13	37.01	36.57	85.29	380.2	 1178	 1393	406.8	24.49	2.285	1.575	1.701	1.344	1.881	1.792	1.783	2.055	1.831	1.665	1.393	1.485	1.570	1.436	1.122	0.848	0.921	0.947	1.211	0.703	0.363	0.821	0.446	0.438
475.0	12.31	172.0	404.1	950.9	 1758	884.7	958.5	 1105	 1297	 1455	 1418	 1342	 1259	 1176	 1021	939.9	886.9	832.6	783.5	756.3	698.8	661.0	609.7	575.1	549.9	526.8	494.7	477.7	457.0	434.2	401.5	366.2	331.4	289.0	251.3	220.5	196.6	176.4	164.2	133.6	103.2	89.03	73.28	60.30	48.38	42.40	36.18	40.08	101.7	279.4	658.2	 1503	541.7	20.69	2.163	2.044	1.476	1.790	1.381	1.607	1.790	1.074	1.265	1.424	1.020	1.200	0.742	1.121	0.697	0.925	0.651	0.617	0.012	0.647	0.821	0.495	0.326
480.0	4.554	167.4	362.6	588.0	 1742	 1202	892.8	 1037	 1246	 1354	 1355	 1243	 1168	 1086	998.6	884.3	814.8	770.2	746.4	685.2	653.2	607.0	575.9	538.2	515.3	489.7	472.8	444.7	433.3	412.4	385.0	356.4	317.8	276.0	243.9	215.0	191.6	170.7	162.0	144.3	114.6	92.25	78.26	62.62	53.87	45.65	38.05	32.76	44.60	79.25	170.8	897.8	 1463	104.8	6.467	2.194	1.524	1.400	1.573	1.477	1.649	0.996	0.795	1.473	1.213	0.759	0.971	0.846	0.450	0.621	0.672	0.697	0.010	0.128	0.381	0.367	-0.243
485.0	1.367	105.4	304.3	457.3	 1236	 1736	867.0	979.3	 1174	 1299	 1252	 1240	 1105	 1041	950.5	832.6	784.9	732.5	696.6	639.7	617.0	573.4	541.4	511.2	487.2	462.5	449.4	426.2	409.4	395.2	370.4	340.3	306.5	272.2	238.8	211.9	188.5	163.3	153.6	148.4	123.2	98.72	83.17	70.06	58.12	50.39	39.86	35.04	32.67	36.28	52.78	249.7	 1084	 1217	82.00	3.766	1.927	1.645	1.419	1.840	1.523	1.237	1.341	1.227	0.839	0.602	0.837	0.835	0.616	0.708	0.751	0.400	0.397	-0.013	0.049	-0.115	0.051
490.0	1.141	118.1	255.7	406.2	690.0	 9853	 1318	902.6	 1086	 1197	 1172	 1150	 1056	973.7	881.7	792.0	722.7	679.8	642.0	597.7	567.2	526.5	497.9	471.0	450.2	435.6	415.3	397.9	376.5	370.7	355.0	323.2	292.7	259.1	229.7	202.3	183.0	159.9	143.8	137.1	131.3	107.5	85.35	72.09	63.09	54.27	46.49	39.40	33.67	28.86	28.96	69.49	293.7	852.8	980.1	368.3	21.75	2.251	1.710	1.158	1.185	1.169	1.122	0.823	0.783	0.697	0.854	0.616	0.503	0.516	0.107	0.227	0.059	0.338	0.014	-0.056	-0.161
495.0	-32.28	116.8	242.4	352.0	501.2	 2934	 2070	901.1	989.3	 1059	 1095	 1036	953.4	887.4	813.7	718.7	663.4	620.3	580.9	545.5	514.5	485.6	447.0	431.9	410.6	389.1	379.2	364.5	355.5	337.4	326.0	301.4	268.3	241.1	215.8	194.5	170.4	155.1	140.7	130.7	120.6	115.6	94.32	77.30	66.78	56.88	49.73	45.00	36.97	29.92	27.54	31.75	78.31	204.8	561.4	 1351	523.5	14.84	1.678	1.769	1.138	0.891	0.817	0.645	0.792	0.432	0.265	0.686	0.274	0.059	0.503	-0.499	-0.126	0.087	0.377	-0.879	0.507
500.0	-40.03	107.1	265.8	323.0	427.4	 1058	 2073	 1293	906.1	 1033	 1013	955.6	883.6	801.7	769.5	673.8	602.7	578.6	531.3	504.5	466.6	450.8	415.0	399.2	373.4	369.1	353.9	340.0	332.5	316.7	308.3	279.9	251.4	231.1	206.5	183.1	164.2	149.3	137.3	124.6	113.9	108.4	101.0	79.30	68.57	59.88	51.78	45.64	38.45	31.91	28.73	24.50	31.69	56.13	147.6	856.1	 1388	102.2	5.539	1.558	1.307	0.775	0.268	0.626	0.732	0.463	0.642	0.295	0.051	0.142	-0.135	-0.073	-0.100	-0.169	-0.344	-0.884	-0.157
505.0	-43.22	65.55	217.1	301.6	408.2	583.0	 1486	 1918	844.3	966.6	921.9	914.0	849.3	773.7	705.3	625.6	563.5	542.3	491.2	465.1	430.6	412.3	385.3	364.9	348.8	329.7	326.5	310.9	305.4	288.9	285.6	266.6	235.6	213.8	192.8	177.1	158.2	140.7	130.7	117.6	108.4	100.2	101.3	81.01	68.01	59.74	54.98	46.04	40.07	34.48	29.69	23.26	21.61	26.01	42.97	237.4	 1058	849.1	84.66	1.961	1.318	0.522	0.986	0.364	0.547	0.054	0.181	0.469	-0.143	-0.021	0.084	-0.301	-0.147	-0.086	-0.441	-0.647	-0.545
510.0	-38.66	26.23	179.1	265.5	349.4	441.7	791.6	 2170	 1377	839.9	832.4	805.2	760.3	689.9	634.2	565.8	510.3	470.6	440.3	414.4	389.5	363.0	345.9	329.5	314.6	297.0	295.4	283.1	272.8	265.8	254.7	236.4	214.5	194.6	177.0	157.4	145.0	132.8	119.2	109.0	99.48	90.55	90.68	84.74	71.26	59.99	54.99	47.74	41.75	36.17	30.65	24.01	21.72	19.59	21.34	62.08	286.9	742.9	907.5	316.0	15.74	1.138	0.891	0.356	0.128	-0.175	0.370	-0.083	-0.104	0.038	-0.069	-0.434	-0.065	-0.507	-0.539	-0.558	-0.880
515.0	-40.44	21.66	162.6	207.9	338.5	361.3	514.6	 1231	 2237	833.7	734.2	737.2	679.0	609.6	562.3	508.5	458.4	419.0	391.8	369.9	340.7	327.2	313.5	291.1	275.2	267.7	255.4	247.4	242.7	233.1	228.5	211.5	191.6	175.1	157.9	143.6	135.1	120.7	109.2	98.11	91.18	84.59	77.93	77.90	74.43	62.78	53.28	46.39	41.57	36.94	31.21	25.07	22.24	19.03	17.19	23.41	72.83	175.8	488.7	 1096	391.2	10.06	0.988	0.503	0.153	0.101	-0.535	-0.265	-0.576	-0.083	0.106	-0.736	0.119	-0.582	-0.966	-0.784	-0.883
520.0	-63.67	34.69	126.8	206.2	282.5	361.2	411.7	691.4	 2220	 1246	656.3	646.6	607.9	564.6	524.6	479.4	426.8	380.1	357.9	334.7	310.8	292.2	277.9	257.1	252.5	239.5	230.3	227.3	220.0	215.6	204.0	193.0	175.8	160.4	142.9	131.9	121.5	112.3	102.4	92.77	86.47	78.53	74.56	70.74	72.48	62.90	51.57	46.24	42.07	36.42	31.97	25.87	23.37	19.71	16.28	16.62	24.80	46.44	127.0	691.0	904.5	94.56	3.944	0.483	-0.295	-0.763	-0.291	-0.620	-0.437	-0.594	-0.494	-0.695	-0.247	-0.776	-0.889	-0.909	-1.114
525.0	-92.41	-12.77	130.9	186.6	260.9	336.5	386.7	485.0	 1504	 1811	647.3	601.9	584.8	513.2	476.4	422.1	385.2	353.3	328.7	302.2	286.1	266.5	250.0	235.1	231.0	210.8	213.6	209.2	197.3	199.4	187.2	176.0	164.0	145.0	137.3	123.9	113.7	105.8	97.49	84.09	81.25	74.97	69.77	62.13	64.11	63.29	54.46	44.96	40.16	35.07	30.90	25.84	22.90	19.12	15.86	16.27	15.17	17.51	34.13	192.1	755.2	769.1	72.74	1.469	-0.384	-0.535	-0.374	0.419	-0.715	-0.709	-1.327	-0.737	-0.278	-0.847	-0.872	-1.065	-1.029
530.0	-77.25	-25.13	84.68	142.2	220.1	295.1	331.0	399.2	745.7	 1892	 1062	526.2	498.2	458.8	421.8	376.4	335.6	310.0	292.4	269.9	253.9	234.1	220.5	207.0	202.8	190.8	187.9	181.8	178.1	178.4	163.1	158.1	143.8	131.9	118.4	108.1	101.9	93.57	85.45	77.63	75.47	67.29	63.63	58.85	56.37	58.05	54.82	46.87	38.01	34.43	30.49	26.03	23.59	20.26	17.52	14.87	13.88	12.12	14.70	48.40	205.8	578.2	674.9	228.0	10.29	-0.050	0.031	-0.154	-0.529	-1.002	-0.924	-0.851	-0.838	-0.904	-0.999	-1.259	-1.277
535.0	-48.92	-52.68	54.77	91.87	172.2	245.4	295.4	337.1	476.9	 1041	 1713	554.1	441.8	404.7	364.6	329.4	297.2	273.7	252.5	235.7	224.0	202.9	190.4	185.4	175.0	164.1	163.3	158.5	155.1	152.5	145.6	138.7	128.8	114.8	105.4	95.29	87.93	81.93	78.81	69.08	66.76	63.14	55.17	52.72	49.80	48.29	50.24	47.44	39.22	31.97	28.67	25.48	22.45	18.22	17.80	15.34	13.33	10.99	10.98	16.50	51.08	134.9	358.7	775.6	103.2	6.796	-0.145	-0.255	-0.481	-1.138	-0.695	-0.755	-1.118	-0.627	-0.522	-1.001	-1.089
540.0	-81.57	-54.25	22.77	87.42	164.1	192.2	275.5	297.0	410.7	568.7	 1691	845.4	402.6	361.9	332.6	294.5	265.6	239.8	219.5	216.4	197.0	183.9	171.6	166.9	156.7	146.4	144.9	142.6	140.3	133.5	130.4	126.1	113.5	105.8	95.32	85.52	79.26	74.01	69.03	63.56	60.71	56.58	51.50	47.02	45.71	43.37	44.61	45.30	40.39	32.66	28.04	24.05	20.99	17.49	16.49	15.19	12.50	12.30	10.12	9.138	15.52	33.74	91.60	483.4	675.3	87.10	1.088	-0.143	-0.793	-0.845	-0.679	-0.737	-1.356	-1.119	-1.350	-1.311	-1.029
545.0	-86.68	-47.55	31.78	48.42	133.0	160.1	255.7	259.8	350.7	394.6	 1113	 1337	367.4	333.6	294.3	252.7	237.7	221.6	196.7	191.2	175.3	160.9	153.9	147.2	139.5	133.6	127.8	128.4	122.2	117.9	118.3	112.6	101.3	92.79	83.60	75.40	72.58	66.81	61.50	59.40	53.39	49.85	49.52	44.30	42.04	38.89	38.34	39.85	39.08	33.05	26.97	22.08	19.94	17.26	15.90	14.09	11.89	11.50	9.322	7.727	8.186	11.22	23.85	134.0	542.1	569.9	58.89	0.411	-1.135	-1.139	-0.614	-0.903	-1.248	-1.347	-1.374	-1.413	-1.343
550.0	-91.70	-74.52	4.800	41.86	87.86	135.6	198.0	241.5	267.2	312.1	541.8	 1407	721.4	276.8	250.6	219.1	202.6	181.4	165.1	159.3	147.8	138.6	129.7	121.6	116.6	110.0	107.8	107.5	105.6	101.0	98.43	93.40	87.10	75.56	71.01	64.35	62.78	56.46	53.40	51.74	45.70	42.23	42.16	37.92	37.14	33.70	33.77	33.17	32.70	30.48	24.54	20.30	17.66	15.90	14.39	13.27	11.54	10.31	9.428	6.958	6.426	6.268	8.730	32.10	145.3	396.2	454.2	151.8	5.293	-0.923	-1.064	-1.098	-1.357	-1.139	-1.236	-1.495	-1.573
555.0	-112.1	-49.36	-0.515	24.95	56.87	96.70	138.1	207.8	213.5	258.4	310.9	696.0	 1348	299.6	210.7	181.0	161.7	151.0	139.5	131.4	122.6	115.6	109.6	103.1	97.00	92.91	89.33	88.46	86.63	82.85	82.17	73.11	69.19	62.40	58.17	52.46	52.02	46.22	44.76	42.58	37.50	35.10	35.11	33.99	30.78	28.23	28.35	25.86	26.90	26.88	24.48	17.93	15.10	13.50	12.63	11.77	11.49	9.768	7.907	5.802	5.905	5.207	4.719	9.144	33.99	91.01	236.6	490.0	95.19	3.018	-1.141	-1.275	-1.281	-1.493	-1.446	-1.363	-1.293
560.0	-120.3	-81.28	-16.82	6.409	18.58	79.04	120.5	181.3	205.3	217.2	237.9	333.7	 1316	550.0	177.7	152.3	139.3	123.7	122.3	108.7	101.8	95.51	93.28	84.19	84.98	76.82	75.36	72.88	72.41	69.20	68.19	61.89	58.09	52.87	49.03	47.26	42.99	40.96	37.55	35.47	33.36	30.08	30.83	27.12	25.91	23.74	25.09	22.05	22.61	21.11	21.63	16.95	13.25	11.54	12.05	10.04	9.891	8.448	7.173	5.394	5.167	4.525	3.490	3.570	9.010	21.30	58.93	290.2	421.0	72.72	-0.305	-1.045	-1.265	-1.455	-1.140	-1.807	-1.262
565.0	-107.4	-71.84	-36.93	2.714	28.19	68.43	83.03	130.2	178.1	171.7	203.1	212.5	768.2	951.6	165.3	132.7	116.7	106.6	105.7	97.63	86.07	82.26	74.33	72.49	75.37	64.29	63.73	61.27	61.89	57.07	56.34	53.29	49.29	43.86	42.46	40.04	37.18	35.08	31.01	28.47	28.54	26.33	25.31	23.73	22.92	21.56	21.17	19.61	19.58	17.71	18.19	16.00	12.72	11.07	9.908	8.537	9.281	8.654	6.536	5.339	4.320	3.634	3.426	2.270	3.223	5.615	13.49	76.94	324.7	325.8	40.86	-1.093	-1.436	-1.350	-1.320	-1.638	-1.494
570.0	-93.06	-65.53	-40.38	-20.54	27.32	38.34	59.82	83.28	159.6	170.2	164.3	158.1	310.7	 1086	467.0	111.7	95.00	85.91	83.49	77.61	69.98	65.67	60.43	57.41	56.88	51.34	49.77	49.68	48.36	46.24	46.13	41.89	39.02	37.33	33.56	30.93	28.31	27.32	25.09	24.27	22.40	22.13	19.63	18.57	17.90	17.17	17.60	16.36	15.29	14.23	13.69	13.33	11.51	9.175	8.101	7.769	7.256	6.745	5.490	4.631	3.997	3.070	2.761	1.717	1.665	2.144	3.761	17.20	84.74	222.8	256.0	56.52	1.907	-1.382	-1.342	-1.403	-1.688
575.0	-147.3	-81.04	-51.90	-32.10	3.888	8.864	47.83	59.69	113.5	157.2	119.3	130.8	158.0	482.3	 1015	134.8	75.35	69.11	64.27	62.93	54.71	49.38	45.70	44.39	44.29	40.58	36.73	41.09	37.27	36.94	36.05	33.40	31.66	28.62	26.62	23.31	22.09	20.35	19.37	18.27	18.31	17.21	16.10	15.42	14.35	13.96	13.46	12.63	12.30	11.23	10.84	9.438	10.82	8.542	6.225	6.640	5.702	5.488	4.161	4.444	3.554	2.645	2.675	1.714	0.986	1.356	1.223	4.078	19.09	49.77	127.7	264.0	77.72	0.869	-1.413	-1.368	-1.912
580.0	-122.9	-88.07	-64.47	-43.84	-2.710	-4.830	36.66	44.60	87.37	153.2	111.1	111.8	110.7	191.8	 1026	390.4	61.87	58.39	53.22	51.41	45.01	42.69	38.11	36.12	36.13	35.25	31.89	33.66	30.33	30.10	30.47	26.91	25.51	22.13	22.86	19.07	18.03	17.22	16.75	14.75	15.06	14.15	13.72	12.81	12.24	11.20	10.61	10.76	10.50	10.08	8.652	7.035	8.356	8.048	5.959	6.119	5.116	5.077	3.618	3.826	2.853	2.023	1.848	1.099	0.930	0.568	0.483	1.773	4.643	10.79	30.69	159.2	241.2	49.60	-0.781	-1.727	-1.820
585.0	-78.42	-101.5	-59.58	-37.73	-28.36	-0.302	31.19	40.09	69.32	134.0	99.12	100.7	93.54	107.1	607.4	703.2	64.33	48.35	43.59	40.80	34.61	34.11	35.17	31.72	29.98	29.46	27.63	26.00	25.51	25.51	26.16	23.79	21.60	19.01	18.26	16.78	15.75	15.63	13.57	12.55	11.81	10.80	11.20	9.628	9.330	8.658	8.910	10.20	8.547	8.012	6.991	6.264	6.282	6.507	5.771	4.348	5.002	3.997	3.254	2.847	1.801	1.814	1.821	0.863	0.570	0.310	0.597	0.315	1.035	2.696	6.362	41.63	180.6	190.3	24.73	-1.791	-1.604
590.0	-95.31	-93.51	-73.10	-35.82	-25.64	-8.190	11.74	25.64	53.07	84.90	113.2	85.27	81.55	76.43	197.9	797.7	321.2	38.12	38.98	34.56	30.61	26.68	25.39	23.67	23.44	22.79	21.67	19.86	21.26	18.25	19.83	19.25	16.62	14.90	14.40	12.77	12.07	12.37	10.38	9.802	9.449	9.042	8.603	7.258	7.773	7.102	6.823	7.093	6.811	6.416	5.328	5.109	4.411	4.556	5.205	4.078	3.579	3.034	2.581	2.122	1.419	1.366	1.130	1.071	0.653	0.170	0.137	-0.129	-0.348	0.415	0.894	8.623	46.39	127.0	136.1	43.94	0.650
595.0	-112.2	-93.38	-70.57	-34.92	-35.33	-23.10	-2.503	12.39	30.79	65.35	97.75	87.72	76.03	61.49	79.99	318.9	747.3	73.08	27.07	26.18	21.45	20.31	20.97	17.55	17.25	16.46	16.75	15.40	16.56	13.85	14.82	14.04	13.91	11.51	12.17	9.507	10.03	8.626	7.506	7.207	7.331	6.780	6.814	6.231	5.416	5.133	5.289	5.626	5.062	4.955	4.188	3.631	3.096	3.277	4.493	3.841	3.238	2.070	1.483	1.269	0.586	1.366	0.509	0.296	-0.039	-0.100	-0.200	-0.212	-0.704	-0.534	-0.382	1.227	9.797	27.81	69.30	162.9	56.02
600.0	-142.0	-89.54	-91.18	-55.47	-36.61	-10.54	-0.995	1.916	24.42	54.56	69.19	92.24	57.23	46.01	44.06	102.8	704.7	263.9	23.52	21.26	17.08	17.33	15.78	15.85	13.54	14.50	13.33	12.11	13.96	11.38	11.89	12.05	10.42	9.595	8.422	8.660	8.865	6.518	6.123	6.564	5.822	4.869	5.094	4.806	4.721	3.986	4.347	4.307	4.229	4.007	3.770	3.106	2.603	1.937	2.679	2.611	3.302	2.020	1.122	1.164	0.106	0.294	0.135	-0.200	-0.371	-0.224	-0.434	-0.524	-0.566	-0.731	-0.971	-0.876	0.997	4.618	15.77	95.49	151.2
605.0	-135.6	-85.49	-85.17	-42.28	-32.11	-25.53	-1.398	9.830	18.04	34.19	55.84	94.24	57.09	42.52	34.16	44.59	381.7	519.5	23.16	17.13	15.23	15.26	13.95	12.33	12.40	10.83	10.57	9.520	10.54	9.802	9.370	9.022	7.429	7.352	7.792	7.059	6.450	4.973	5.376	3.946	4.301	4.692	4.296	3.602	3.879	3.354	4.070	3.618	3.831	3.039	3.229	2.352	1.880	1.815	1.661	1.917	2.420	1.731	0.549	0.908	0.536	-0.218	-0.007	0.119	-0.497	-0.188	-0.732	-0.611	-0.768	-0.869	-1.459	-0.907	-0.868	-0.240	2.150	23.60	105.3
610.0	-140.3	-92.25	-88.75	-49.57	-29.82	-28.32	-10.13	1.049	12.70	26.62	36.06	63.11	60.16	36.26	29.64	25.01	110.9	548.8	235.8	11.93	10.86	12.00	10.36	8.312	9.626	7.886	7.809	7.548	7.456	7.056	6.953	6.672	4.755	5.631	5.024	4.561	4.620	3.791	3.426	2.752	3.284	3.357	2.223	3.208	2.601	2.343	2.518	2.361	2.647	1.944	1.932	1.484	1.323	1.105	1.207	1.043	1.613	1.024	0.884	0.256	0.024	-0.176	0.118	-0.071	-0.472	-0.648	-0.557	-1.076	-0.835	-1.003	-1.279	-1.054	-1.363	-1.011	-0.390	4.029	25.86
615.0	-130.7	-103.4	-72.03	-58.25	-43.80	-32.97	-11.10	-3.309	1.113	22.10	21.21	32.28	61.96	35.59	20.43	15.60	34.31	203.7	572.1	42.98	7.892	6.113	6.685	6.571	5.887	6.176	6.815	5.577	4.437	4.454	4.657	4.140	3.847	3.034	2.551	2.484	3.136	2.185	3.099	1.138	2.181	1.950	1.643	1.346	2.037	1.946	1.740	1.577	1.848	1.734	1.471	0.869	1.311	0.408	1.183	0.257	0.243	0.638	0.723	0.010	-0.385	-0.354	-0.404	-0.340	-0.880	-0.858	-0.376	-0.869	-1.204	-1.266	-1.270	-1.467	-1.391	-1.582	-1.248	-0.492	4.550
620.0	-116.3	-96.30	-68.82	-56.84	-43.98	-19.90	-14.41	-7.051	2.108	19.99	15.81	21.27	55.09	47.75	18.47	16.31	15.11	56.35	532.1	201.7	6.328	3.937	5.099	3.961	3.861	4.424	3.410	3.674	4.352	3.140	2.657	2.403	2.479	1.124	1.642	1.516	2.006	1.423	1.848	0.875	1.202	1.669	0.968	1.089	1.662	0.988	0.797	1.003	1.205	1.076	1.151	0.386	0.266	-0.285	0.439	-0.018	0.209	0.282	0.107	0.538	-0.457	-0.493	-0.872	-0.513	-0.698	-1.505	-0.727	-1.232	-1.062	-1.181	-1.220	-1.321	-1.572	-1.743	-1.911	-1.515	-0.156
625.0	-115.2	-123.5	-82.42	-66.59	-36.95	-27.27	-22.54	-11.88	0.114	16.55	25.28	22.19	35.87	47.15	13.63	15.72	10.90	16.68	276.0	416.8	14.78	3.558	4.694	2.830	1.462	2.087	2.282	1.953	2.251	1.782	2.421	2.134	1.126	1.228	0.427	0.777	1.012	1.567	1.063	0.217	0.239	0.928	0.277	0.799	0.597	0.614	0.627	0.535	0.143	1.153	0.732	0.186	0.345	-0.191	-0.086	0.057	0.208	-0.151	-0.288	-0.124	-0.676	-0.382	-0.713	-1.055	-1.134	-1.151	-1.281	-1.416	-0.991	-1.130	-1.293	-1.673	-1.394	-1.687	-1.669	-1.535	-1.397
630.0	-135.8	-101.9	-90.26	-56.97	-45.54	-33.82	-13.95	-9.242	2.365	5.108	16.03	22.81	27.44	47.13	20.80	11.73	6.936	7.052	75.12	443.4	199.2	3.003	2.772	1.221	1.125	1.525	0.744	0.603	1.174	0.873	1.356	0.824	0.225	0.071	-0.131	-0.193	0.408	0.113	0.360	0.277	-0.203	0.008	-0.285	-0.061	-0.020	-0.182	-0.124	-0.045	-0.081	0.353	0.114	-0.418	-0.232	-0.275	-0.710	-0.662	-0.481	-0.441	-0.663	-0.132	-0.834	-0.885	-0.776	-1.054	-1.315	-1.171	-1.344	-0.961	-1.053	-1.286	-1.392	-1.578	-1.602	-1.573	-1.767	-1.527	-1.981
635.0	-149.6	-106.6	-104.8	-56.95	-46.73	-32.05	-13.54	-9.422	-9.654	1.147	13.85	16.66	21.01	34.62	32.67	9.540	6.096	2.592	18.65	163.3	473.6	33.41	1.124	0.608	0.317	0.236	-0.311	-1.555	0.236	-0.843	0.655	0.167	0.043	-0.311	-0.784	-0.376	0.150	-0.433	0.128	-0.542	-0.825	-0.466	-1.098	-0.247	-0.494	-0.476	-0.702	-0.476	-0.643	-0.322	0.137	-0.720	-0.879	-0.454	-1.125	-1.200	-1.117	-0.952	-0.750	-0.778	-0.963	-0.577	-1.007	-1.687	-1.514	-1.538	-0.965	-0.942	-1.208	-1.589	-1.501	-1.238	-1.648	-2.028	-1.887	-1.551	-1.991
640.0	-165.3	-107.5	-94.80	-87.88	-45.66	-32.93	-27.01	-18.81	-7.700	2.985	6.406	15.25	17.44	19.52	33.86	12.30	6.012	2.398	5.459	40.29	454.4	156.9	-0.683	-0.437	-0.728	-1.138	0.213	-1.165	0.122	-0.728	-0.255	-0.388	-0.478	-0.730	-1.030	-0.351	-0.710	-0.783	-0.708	-1.305	-0.536	-0.929	-0.734	-0.774	-0.819	-0.476	-1.155	-0.494	-0.667	-0.240	-0.497	-0.812	-0.884	-0.912	-1.316	-0.787	-1.083	-0.968	-1.088	-1.351	-1.266	-0.980	-0.809	-1.575	-1.331	-1.272	-1.252	-1.625	-1.568	-1.220	-1.799	-1.469	-0.644	-2.031	-1.532	-1.682	-1.823
645.0	-127.1	-101.8	-81.34	-78.95	-51.79	-31.23	-25.45	-18.39	-6.985	4.392	7.113	10.32	12.76	18.32	32.69	14.76	6.022	2.626	3.070	9.769	242.0	342.8	5.464	-0.259	-0.710	-2.230	-0.188	-1.319	-0.799	-0.313	-1.352	-0.905	-1.193	-0.828	-1.116	-0.149	-1.116	-1.246	-1.437	-1.302	-0.625	-1.403	-1.101	-1.453	-1.218	-1.134	-0.702	-0.903	-0.863	-0.391	-0.914	-1.416	-0.672	-0.671	-1.073	-0.695	-1.063	-0.928	-1.358	-1.226	-0.908	-1.000	-0.983	-1.342	-1.564	-1.512	-1.253	-1.340	-1.632	-1.845	-1.363	-1.689	-1.287	-1.778	-1.823	-1.754	-1.310
650.0	-146.3	-115.9	-87.81	-57.63	-48.42	-28.25	-24.01	-10.15	-2.424	-3.251	3.800	5.579	13.67	15.68	27.76	25.27	5.942	3.960	1.241	2.131	72.13	432.3	66.78	-1.271	-2.141	-1.575	-1.974	-2.022	-0.998	-2.286	-1.564	-2.136	-1.303	-1.200	-1.306	-0.867	-1.346	-1.219	-1.394	-1.585	-1.033	-1.538	-1.382	-1.223	-1.839	-1.603	-0.764	-1.289	-1.251	-0.725	-0.918	-1.666	-1.169	-1.096	-1.136	-0.770	-1.435	-1.057	-1.485	-1.472	-1.309	-1.400	-1.447	-1.728	-1.575	-1.486	-1.624	-1.718	-1.821	-1.721	-1.923	-1.147	-1.767	-1.622	-1.618	-2.020	-1.439
