Sample:	'1
File name:	T2025030608¿˚√Ò’¢.FD3
Run date:	'12:35:59, 03/10/2025
Operator:	Administrator
Comment:	'

Instrument
Model:	F-2700 FL Spectrophotometer
Serial number:	23B8-004
ROM Version:	4J14000 07

Instrument parameters
Measurement type:	3-D scan
Data mode:	Fluorescence
EX  Start WL:	220.0 nm
EX  End WL:	600.0 nm
EX Sampling interval:	5.0 nm
EM  Start WL:	230.0 nm
EM  End WL:	650.0 nm
EM Sampling interval:	5.0 nm
Scan speed:	12000 nm/min
EX Slit:	5.0 nm
EM Slit:	5.0 nm
PMT Voltage:	700 V
Response:	Auto 
Corrected spectra:	Off
Contour interval:	50.000

Peak integration
Integration method:	Rectangular
Sensitivity:	1
Threshold:	1.000

Peaks
No.	ApexEX/EM(nm)	Height(Data)
1	225.0/575.0	87.34
2	225.0/585.0	81.83
3	225.0/635.0	67.12
4	230.0/340.0	2363
5	255.0/280.0	547.4
6	255.0/555.0	177.0
7	260.0/570.0	135.8
8	265.0/585.0	121.9
9	270.0/595.0	114.5
10	275.0/335.0	1968
11	275.0/610.0	121.0
12	275.0/640.0	80.32
13	280.0/415.0	2360
14	280.0/625.0	109.7
15	285.0/635.0	84.98
16	345.0/415.0	1722
17	350.0/430.0	1666
18	460.0/345.0	6.850
19	475.0/350.0	6.553
20	480.0/355.0	6.196
21	500.0/445.0	7.759
22	505.0/275.0	3.088
23	510.0/280.0	3.299
24	520.0/285.0	4.195
25	550.0/305.0	8.534
26	560.0/335.0	9.541
27	565.0/340.0	9.633
28	580.0/410.0	9.409

Data points
	220.0	225.0	230.0	235.0	240.0	245.0	250.0	255.0	260.0	265.0	270.0	275.0	280.0	285.0	290.0	295.0	300.0	305.0	310.0	315.0	320.0	325.0	330.0	335.0	340.0	345.0	350.0	355.0	360.0	365.0	370.0	375.0	380.0	385.0	390.0	395.0	400.0	405.0	410.0	415.0	420.0	425.0	430.0	435.0	440.0	445.0	450.0	455.0	460.0	465.0	470.0	475.0	480.0	485.0	490.0	495.0	500.0	505.0	510.0	515.0	520.0	525.0	530.0	535.0	540.0	545.0	550.0	555.0	560.0	565.0	570.0	575.0	580.0	585.0	590.0	595.0	600.0
230.0	50.84	621.1	2484	1183	80.66	11.44	8.452	7.513	6.547	6.307	5.812	5.183	4.714	4.007	3.458	2.972	2.649	2.142	1.993	1.850	1.668	1.621	1.551	1.454	1.420	1.382	1.260	1.225	1.311	1.175	1.184	1.051	0.926	0.860	0.757	0.727	0.709	0.637	0.594	0.604	0.532	0.646	0.654	0.576	0.523	0.497	0.816	3.638	8.530	8.179	3.686	1.087	0.473	0.420	0.477	0.426	0.421	0.435	0.445	0.441	0.455	0.434	0.428	0.473	0.439	0.442	0.467	0.445	0.467	0.470	0.468	0.435	0.459	0.458	0.467	0.471	0.500
235.0	82.19	188.1	1295	3016	602.6	125.1	10.45	7.849	7.467	6.461	6.220	5.947	4.493	4.409	3.720	3.182	2.682	2.324	2.120	1.866	1.748	1.600	1.502	1.408	1.589	1.563	1.257	1.259	1.200	1.168	1.132	0.979	0.941	0.837	0.804	0.765	0.695	0.693	0.589	0.624	0.569	0.568	0.588	0.631	0.611	0.563	0.533	1.210	3.002	6.094	10.21	12.73	6.722	1.960	0.522	0.428	0.427	0.432	0.433	0.446	0.444	0.450	0.459	0.456	0.465	0.434	0.571	0.485	0.431	0.430	0.441	0.469	0.473	0.440	0.445	0.508	0.499
240.0	110.1	123.2	369.7	2122	3633	496.9	64.44	9.892	8.861	6.654	6.078	6.470	4.894	4.669	3.698	3.324	2.417	2.530	2.176	1.953	1.763	1.494	1.474	1.400	1.442	1.610	1.343	1.242	1.336	1.158	1.175	0.993	0.913	0.835	0.834	0.770	0.762	0.608	0.606	0.609	0.550	0.592	0.567	0.639	0.627	0.753	0.639	0.712	1.000	1.855	4.561	12.57	18.43	14.54	6.493	1.366	0.497	0.530	0.435	0.462	0.425	0.420	0.447	0.435	0.457	0.456	0.461	0.486	0.505	0.442	0.469	0.509	0.463	0.459	0.447	0.561	0.495
245.0	87.18	156.5	153.7	654.9	3297	3627	393.4	30.03	10.19	7.742	7.381	6.238	5.542	4.993	3.678	3.451	2.617	2.369	2.210	2.042	1.835	1.511	1.632	1.542	1.585	1.409	1.396	1.195	1.180	1.177	1.116	1.064	1.021	0.874	0.864	0.711	0.818	0.694	0.613	0.564	0.557	0.555	0.589	0.554	0.519	0.789	0.855	0.843	0.687	0.744	1.361	3.788	10.33	20.66	24.15	14.48	4.495	0.813	0.449	0.489	0.420	0.460	0.415	0.443	0.449	0.437	0.460	0.417	0.466	0.519	0.475	0.488	0.528	0.474	0.512	0.479	0.525
250.0	63.61	106.0	204.1	248.5	961.8	3159	4254	1383	107.5	10.88	8.488	7.582	6.430	5.125	4.016	3.454	2.691	2.492	2.290	2.002	2.048	1.605	1.725	1.529	1.477	1.518	1.467	1.298	1.217	1.314	1.093	1.097	0.966	0.884	0.856	0.721	0.768	0.700	0.661	0.640	0.597	0.621	0.639	0.523	0.523	0.602	0.621	0.795	0.959	0.955	0.863	1.308	2.765	6.173	12.24	18.92	25.25	25.27	13.17	4.798	0.841	0.498	0.513	0.521	0.478	0.488	0.515	0.474	0.498	0.527	0.501	0.454	0.506	0.452	0.489	0.464	0.502
255.0	54.76	53.77	130.1	280.1	322.3	776.1	2891	7291	1979	129.7	12.94	9.788	7.203	5.830	4.254	3.904	3.130	2.791	2.432	2.317	2.247	1.817	1.853	1.765	1.443	1.568	1.512	1.399	1.395	1.400	1.295	1.097	0.971	0.909	0.927	0.766	0.744	0.703	0.641	0.629	0.603	0.678	0.620	0.541	0.492	0.548	0.531	0.508	0.654	0.829	1.163	1.487	1.288	1.850	3.122	4.707	8.350	20.66	40.12	29.91	20.43	5.253	0.743	0.504	0.483	0.465	0.563	0.461	0.534	0.483	0.488	0.488	0.494	0.487	0.483	0.506	0.489
260.0	49.05	39.63	62.11	211.0	306.3	241.3	827.0	5137	8586	1553	74.20	13.00	8.882	6.589	5.303	4.612	3.427	2.973	2.517	2.132	2.039	1.841	1.879	1.802	1.591	1.425	1.388	1.466	1.482	1.316	1.305	1.093	0.967	1.028	0.869	0.857	0.747	0.701	0.665	0.653	0.643	0.712	0.561	0.539	0.530	0.625	0.554	0.477	0.558	0.510	0.818	1.489	1.783	1.382	1.196	1.477	2.352	5.685	16.21	33.50	54.66	29.46	16.67	2.904	0.540	0.590	0.527	0.456	0.512	0.499	0.485	0.497	0.557	0.511	0.520	0.555	0.449
265.0	51.39	38.84	36.37	99.41	297.6	261.3	230.8	1587	7600	9182	1146	30.70	11.02	8.069	6.411	5.218	3.691	3.262	2.726	2.275	2.195	1.855	1.943	1.800	1.675	1.537	1.580	1.573	1.455	1.148	1.293	1.124	1.055	1.052	0.925	0.933	0.718	0.739	0.686	0.680	0.607	0.668	0.637	0.527	0.543	0.613	0.577	0.551	0.504	0.445	0.525	0.853	1.551	2.006	1.659	0.951	1.074	1.718	4.166	9.906	27.22	49.79	66.62	26.76	11.13	1.347	0.611	0.547	0.564	0.499	0.501	0.562	0.506	0.477	0.496	0.566	0.523
270.0	74.17	61.87	46.10	50.25	138.4	318.2	285.8	421.5	2262	7353	9999.9	3483	67.88	12.86	8.481	6.217	4.996	3.593	3.203	2.585	2.428	2.184	2.068	1.904	1.657	1.595	1.569	1.595	1.608	1.239	1.411	1.264	1.117	1.032	0.964	0.891	0.804	0.808	0.746	0.736	0.683	0.740	0.666	0.677	0.650	0.636	0.589	0.599	0.531	0.470	0.471	0.608	0.821	1.198	1.754	1.936	1.987	1.469	1.507	2.795	6.775	14.47	29.91	45.18	60.08	51.98	17.42	8.342	1.243	0.601	0.571	0.543	0.526	0.531	0.506	0.614	0.541
275.0	137.4	132.5	102.6	70.34	70.99	151.2	415.8	359.7	587.8	1808	5940	9999.9	1235	74.82	12.95	8.240	6.355	4.591	3.487	3.353	2.833	2.442	2.170	2.077	2.034	1.756	1.925	1.742	1.642	1.360	1.425	1.365	1.217	1.113	0.991	0.913	0.968	0.845	0.810	0.785	0.701	0.710	0.765	0.775	0.753	0.748	0.693	0.760	0.617	0.649	0.541	0.615	0.668	0.733	0.824	1.118	2.103	3.088	2.500	1.572	2.281	4.017	7.506	11.04	17.64	36.75	71.46	86.98	27.20	9.954	1.025	0.653	0.591	0.554	0.599	0.572	0.571
280.0	197.4	222.9	177.9	121.1	82.87	95.43	273.3	547.4	340.9	521.8	1691	8567	9999.9	956.9	39.29	10.27	7.480	5.556	3.985	3.437	2.816	2.634	2.335	2.333	2.140	1.892	1.942	1.784	1.621	1.452	1.395	1.397	1.339	1.374	1.179	1.127	1.088	0.990	0.876	0.778	0.907	0.791	0.831	0.908	0.829	0.878	0.923	0.936	0.825	0.869	0.613	0.730	0.679	0.681	0.708	0.909	1.186	2.255	3.299	3.148	2.065	1.784	2.680	3.296	4.939	9.709	25.21	60.11	88.82	81.64	22.11	4.810	0.771	0.672	0.657	0.650	0.571
285.0	267.8	327.1	292.9	196.4	120.1	103.2	164.2	462.0	579.3	318.2	558.6	2648	9999.9	8584	635.0	17.15	8.921	6.661	4.801	4.075	3.173	3.080	2.602	2.561	2.231	1.996	1.858	1.742	1.572	1.481	1.556	1.421	1.333	1.319	1.384	1.208	1.179	1.082	0.845	0.876	0.934	0.885	0.840	0.985	0.946	1.055	1.137	1.129	1.223	1.055	0.790	0.937	0.857	0.808	0.965	0.746	0.993	1.329	2.170	3.358	4.195	2.540	1.810	2.029	2.272	3.358	6.796	16.09	36.33	76.77	98.08	31.98	16.51	2.011	0.783	0.658	0.681
290.0	362.5	465.6	445.0	310.8	195.7	150.6	169.7	291.8	585.5	676.1	495.2	895.5	3084	8842	9725	2321	36.52	9.448	6.697	4.885	3.699	3.344	3.042	2.660	2.413	2.181	1.978	1.964	1.764	1.678	1.601	1.388	1.319	1.333	1.512	1.325	1.274	1.196	1.075	1.046	1.036	0.970	1.040	1.109	1.195	1.295	1.546	1.647	1.637	1.367	1.213	1.190	1.206	0.986	1.066	0.941	1.118	1.261	1.506	1.983	2.919	3.653	3.948	3.364	2.646	2.663	3.365	5.337	9.789	20.53	36.97	50.21	71.90	59.22	45.68	11.71	2.483
295.0	428.5	584.5	597.7	419.7	278.4	219.2	228.6	293.9	440.8	792.4	960.9	712.4	1090	2295	5975	9999.9	692.1	37.74	9.317	6.542	4.573	3.913	3.092	3.041	2.783	2.351	2.292	2.098	1.850	1.885	1.716	1.477	1.560	1.381	1.462	1.397	1.322	1.156	1.279	1.085	1.084	1.069	1.188	1.354	1.316	1.568	1.667	1.977	2.112	1.787	1.587	1.522	1.476	1.343	1.177	1.256	1.296	1.412	1.698	1.895	2.301	2.707	3.230	4.860	6.000	4.375	3.496	3.581	4.537	6.712	10.14	12.77	19.11	30.14	70.25	97.32	33.54
300.0	505.3	668.7	688.1	515.7	358.5	285.7	298.6	365.9	478.4	737.2	1239	1048	818.1	892.5	1764	8156	9999.9	544.9	20.04	8.273	6.130	4.787	3.690	3.262	2.951	2.635	2.531	2.133	1.897	1.926	1.878	1.578	1.522	1.545	1.621	1.418	1.487	1.460	1.327	1.222	1.179	1.201	1.198	1.319	1.346	1.773	1.905	2.170	2.243	1.998	1.744	1.750	1.619	1.526	1.446	1.557	1.650	1.791	2.107	2.097	2.475	2.761	2.970	3.975	5.606	6.790	6.280	4.619	4.512	4.571	4.689	4.941	6.250	8.432	21.06	49.79	85.26
305.0	558.9	755.1	789.2	593.4	411.9	365.8	393.8	501.2	644.5	879.4	1261	1589	1102	785.1	771.3	2570	9999.9	5091	75.01	12.36	8.078	5.562	4.508	3.859	3.173	2.815	2.415	2.301	2.034	1.907	1.834	1.714	1.507	1.535	1.524	1.568	1.547	1.540	1.271	1.198	1.088	1.242	1.278	1.324	1.373	1.918	2.022	2.417	2.494	2.239	1.967	2.084	1.778	1.823	1.762	1.784	2.067	2.376	2.647	2.711	2.905	3.492	3.902	4.501	5.648	6.684	8.534	7.824	6.442	5.126	4.587	4.445	4.165	4.156	6.749	13.36	29.81
310.0	616.7	830.4	861.0	667.0	486.9	435.2	493.8	631.4	800.5	1040	1318	1653	1583	1053	721.4	913.0	3066	7185	7197	1516	24.11	7.494	5.685	4.657	3.532	3.237	2.735	2.429	2.548	2.015	1.915	1.746	1.593	1.707	1.633	1.555	1.445	1.493	1.248	1.246	1.185	1.305	1.279	1.487	1.669	2.068	2.213	2.789	2.742	2.429	2.180	2.293	2.179	2.061	2.048	2.077	2.448	2.779	2.948	3.262	3.718	4.312	4.492	5.238	6.031	6.664	7.308	8.328	8.668	8.119	6.898	5.532	4.826	4.321	4.321	5.323	8.689
315.0	682.8	938.8	961.5	733.0	549.8	509.6	585.0	729.6	917.2	1177	1440	1642	1695	1542	923.1	644.4	984.8	1845	5254	9984	484.0	22.51	7.439	5.901	4.389	3.563	3.341	2.943	2.607	2.323	2.273	1.828	1.771	1.739	1.763	1.696	1.502	1.554	1.343	1.422	1.247	1.431	1.320	1.441	1.784	2.324	2.491	2.974	3.155	2.604	2.397	2.428	2.423	2.441	2.248	2.455	2.848	3.090	3.303	3.956	4.164	4.795	5.263	6.008	6.373	6.867	7.655	8.201	8.538	8.236	9.234	8.208	6.303	5.229	4.346	4.086	4.360
320.0	795.9	1157	1147	825.1	611.5	555.5	656.4	814.8	1010	1272	1571	1744	1722	1676	1248	692.9	581.0	617.9	1478	7564	8102	374.9	12.67	7.329	5.101	4.190	3.475	3.089	2.754	2.396	2.186	2.057	1.765	1.820	1.651	1.739	1.537	1.578	1.485	1.446	1.311	1.480	1.471	1.692	2.242	2.656	2.889	3.507	3.425	2.923	2.607	2.866	2.608	2.549	2.435	2.485	3.137	3.395	3.573	4.233	4.524	4.988	5.761	6.301	6.824	7.420	7.972	8.334	8.666	8.078	8.733	9.186	8.364	7.407	5.310	4.446	3.980
325.0	936.0	1459	1522	1066	690.9	627.7	718.7	872.1	1085	1381	1668	1852	1797	1645	1477	872.5	543.3	377.9	445.4	2302	8659	3746	55.46	9.998	6.039	5.040	3.926	3.407	2.761	2.520	2.301	2.346	1.992	1.984	1.710	1.749	1.593	1.500	1.386	1.476	1.443	1.462	1.656	2.086	2.352	2.932	3.705	4.261	4.382	3.858	3.139	3.140	3.028	2.768	2.739	2.657	3.296	3.435	4.126	4.351	4.873	5.486	6.105	6.715	7.535	8.098	8.545	8.694	8.877	8.729	8.679	8.482	8.748	8.846	7.057	5.269	4.287
330.0	1086	1725	1947	1475	965.6	762.2	791.4	940.8	1167	1447	1747	1932	1893	1682	1429	1122	697.1	391.7	275.6	634.7	2613	5812	5584	1150	19.42	6.535	4.733	3.942	3.236	3.004	2.439	2.392	2.050	1.911	1.715	1.731	1.543	1.569	1.502	1.493	1.397	1.458	1.707	2.152	2.654	3.380	4.102	5.293	5.547	5.016	4.335	4.289	3.944	3.576	3.186	3.095	3.610	3.881	4.392	4.554	5.169	5.671	6.469	7.321	7.709	8.303	8.924	9.286	8.956	9.437	8.921	8.664	8.204	8.215	7.745	7.199	6.225
335.0	1183	1932	2245	1827	1282	945.1	884.1	1009	1204	1500	1789	1968	1949	1743	1436	1115	938.9	540.6	315.4	326.5	720.9	1477	4653	7982	395.4	19.21	6.217	4.771	3.840	3.375	2.903	2.492	2.011	1.956	1.908	1.721	1.610	1.676	1.462	1.411	1.492	1.596	1.831	2.151	2.952	3.749	4.795	6.012	6.402	5.973	5.400	5.651	5.024	4.387	3.963	3.844	3.876	4.174	4.463	4.931	5.402	6.050	6.717	7.195	7.850	8.439	9.073	9.508	9.541	9.396	9.241	9.257	8.567	7.769	7.329	6.771	6.996
340.0	1225	1978	2363	1988	1426	1044	925.6	1031	1221	1492	1773	1952	1950	1758	1445	1091	922.8	719.6	389.3	296.3	336.1	465.1	1356	6433	6542	322.1	11.06	6.181	4.538	4.161	2.950	2.681	2.282	2.074	1.957	1.780	1.751	1.775	1.452	1.449	1.418	1.604	1.835	2.132	3.049	3.931	4.981	6.255	6.680	6.338	5.766	5.876	5.654	4.864	4.311	4.054	4.045	4.258	4.530	5.040	5.142	6.127	6.583	7.422	7.570	8.375	8.546	9.173	9.053	9.633	9.391	9.369	8.829	8.161	7.632	7.044	6.462
345.0	1216	2015	2349	2050	1510	1083	951.3	1026	1203	1461	1717	1898	1897	1724	1437	1086	854.5	772.0	529.2	334.9	284.3	267.1	430.7	2005	7175	3166	48.86	7.884	5.299	4.522	3.244	2.658	2.040	2.039	2.017	1.763	1.689	1.630	1.497	1.517	1.443	1.681	1.643	2.099	2.845	3.937	4.695	6.228	6.850	6.675	5.900	6.484	5.890	5.051	4.594	3.958	4.091	4.359	4.483	5.161	5.419	6.022	6.627	6.880	7.569	8.212	8.350	8.925	8.717	9.122	9.282	9.059	8.474	8.096	7.156	6.868	6.439
350.0	1117	1821	2225	2038	1537	1156	996.7	1058	1197	1410	1631	1768	1768	1635	1384	1086	849.0	707.9	642.4	484.4	334.2	273.9	263.5	566.9	2182	4643	4487	1021	17.32	5.717	3.993	3.028	2.340	2.195	1.956	1.892	1.654	1.577	1.546	1.452	1.414	1.645	1.702	2.065	2.732	3.570	4.417	5.562	6.379	6.321	5.811	6.553	5.949	5.362	5.047	4.198	4.440	4.433	4.758	5.029	5.488	5.764	6.314	6.518	7.393	7.901	8.155	8.379	8.450	8.765	8.592	8.602	8.226	7.866	7.181	6.761	6.291
355.0	1015	1648	2057	1952	1569	1213	1040	1072	1187	1349	1527	1641	1642	1539	1343	1075	862.9	708.0	625.6	628.0	472.2	338.3	278.9	289.7	593.9	1160	3517	6200	368.0	18.98	5.591	3.751	2.780	2.504	2.114	1.904	1.722	1.629	1.518	1.466	1.530	1.570	1.692	1.954	2.492	3.252	3.903	5.278	5.920	5.740	5.510	6.100	6.196	5.461	5.097	4.563	4.745	4.515	4.733	5.261	5.333	5.737	6.154	6.450	7.171	7.265	7.791	7.752	7.334	8.367	8.234	7.605	7.977	7.592	7.073	6.572	6.327
360.0	897.2	1506	1886	1879	1528	1225	1060	1094	1175	1313	1480	1550	1558	1456	1290	1073	881.4	741.5	638.2	628.0	596.4	429.4	326.2	265.7	276.7	355.6	986.7	4787	5439	316.0	11.47	5.299	3.926	2.845	2.339	1.936	1.994	1.676	1.460	1.511	1.494	1.569	1.679	1.915	2.368	3.138	3.514	4.829	5.249	5.218	5.211	6.466	6.014	5.546	5.172	4.738	4.602	4.727	4.992	5.262	5.413	5.719	5.862	6.317	6.948	6.964	7.272	7.196	7.182	7.719	7.527	7.415	7.499	7.256	6.994	6.420	6.600
365.0	855.9	1390	1761	1803	1527	1265	1103	1103	1165	1284	1437	1470	1475	1401	1242	1062	900.4	777.7	684.8	632.4	651.1	550.2	398.2	308.5	250.8	210.6	310.2	1451	5588	2993	47.75	8.177	4.682	3.145	2.483	2.049	1.899	1.709	1.549	1.522	1.380	1.466	1.672	1.730	2.168	2.761	3.478	4.560	5.077	5.049	5.076	6.014	5.889	5.508	5.203	4.588	4.825	4.755	4.866	5.360	5.732	5.688	6.012	6.298	6.655	6.591	6.731	7.100	7.237	7.489	7.318	7.390	7.383	7.337	6.764	6.576	6.309
370.0	773.6	1253	1625	1703	1514	1279	1143	1133	1199	1288	1376	1401	1388	1327	1206	1050	924.3	830.6	755.4	698.5	669.6	658.8	560.3	411.1	319.1	245.1	211.4	425.5	1659	3836	4000	1014	17.88	4.953	3.275	2.480	2.070	1.896	1.589	1.552	1.399	1.446	1.640	1.831	2.132	2.668	3.116	4.021	4.735	4.510	4.956	5.707	5.850	5.424	5.129	4.770	5.299	5.157	5.299	5.165	5.520	5.717	6.002	6.225	6.254	6.430	6.667	6.654	6.889	6.912	6.915	7.022	6.923	6.998	6.556	6.460	6.269
375.0	734.7	1148	1527	1602	1481	1288	1168	1157	1207	1263	1319	1344	1312	1269	1159	1037	937.8	871.1	817.1	761.8	722.9	684.1	681.9	568.6	418.9	327.0	254.3	250.1	478.1	963.6	2819	5352	333.3	20.71	4.990	3.712	2.821	2.305	1.750	1.479	1.492	1.651	1.637	1.726	2.072	2.561	2.937	3.831	4.573	4.399	4.390	5.312	5.633	5.442	5.116	4.631	4.944	5.003	5.097	5.190	5.540	5.585	5.764	5.904	6.185	6.273	6.279	6.544	6.383	6.227	6.632	6.532	6.787	6.856	6.504	6.379	6.323
380.0	700.1	1078	1447	1547	1458	1296	1191	1162	1202	1246	1274	1293	1284	1235	1146	1031	944.8	894.0	849.9	808.4	771.3	725.6	707.6	680.3	525.6	405.2	320.5	260.1	260.0	321.4	793.3	3767	4551	289.9	13.47	5.311	3.597	2.794	1.958	1.601	1.601	1.627	1.551	1.737	2.124	2.571	2.743	3.521	4.302	4.269	4.337	5.174	5.343	5.461	5.415	5.246	5.064	5.176	5.096	5.499	5.422	5.565	5.809	5.719	5.786	6.186	5.695	6.028	6.273	6.059	6.330	6.615	6.708	6.914	6.448	6.449	6.296
385.0	661.6	1024	1375	1498	1426	1313	1207	1192	1201	1240	1264	1276	1269	1216	1140	1028	950.9	909.4	875.5	853.0	822.7	781.8	740.5	729.4	658.2	482.2	404.3	326.0	267.2	223.3	286.5	1107	4117	2566	223.5	9.959	5.588	3.508	2.192	1.802	1.742	1.694	1.638	1.870	2.042	2.517	2.887	3.466	4.203	4.126	4.367	5.189	5.163	5.348	5.310	4.910	5.447	5.323	5.124	5.278	5.476	5.676	5.688	5.828	5.955	6.182	5.936	5.856	6.210	6.172	6.379	6.447	6.554	6.777	6.309	6.432	6.362
390.0	669.6	991.4	1342	1461	1426	1335	1261	1244	1239	1281	1312	1311	1303	1272	1179	1068	975.3	940.6	920.0	910.0	899.8	878.4	846.2	823.1	796.0	713.2	579.2	478.7	385.7	318.7	264.5	389.5	1202	2674	2960	893.7	21.35	8.741	4.029	2.493	1.981	1.827	1.782	1.891	2.147	2.502	2.785	3.462	3.941	4.100	4.234	4.999	5.402	5.219	5.357	5.198	5.473	5.379	5.541	5.698	5.752	5.983	5.961	6.066	6.264	6.134	6.104	6.030	6.333	6.384	6.511	6.523	6.938	6.661	6.320	6.581	6.769
395.0	700.6	1017	1307	1451	1483	1385	1333	1316	1326	1379	1435	1476	1477	1450	1334	1170	1037	984.3	973.2	982.8	998.5	1009	1012	1006	978.9	961.9	884.7	749.5	644.1	543.0	408.1	369.4	469.9	753.4	1752	3846	1367	31.01	10.10	4.648	2.646	2.236	2.042	1.971	2.278	2.694	2.766	3.509	4.131	3.965	4.122	5.175	5.564	5.730	5.643	5.457	6.023	5.701	6.165	6.050	6.232	6.145	6.569	6.274	6.863	6.656	6.181	6.547	6.724	6.975	6.806	6.990	7.686	7.324	7.028	6.946	6.864
400.0	676.9	993.6	1296	1475	1493	1434	1412	1401	1442	1531	1651	1707	1737	1687	1527	1303	1114	1034	1020	1048	1092	1130	1170	1203	1198	1182	1168	1061	922.1	804.0	666.7	531.4	417.4	416.2	614.0	2337	3694	276.9	25.38	7.775	3.504	2.543	2.201	2.173	2.338	2.544	2.916	3.611	4.074	4.072	4.369	5.394	5.796	6.121	5.892	5.770	6.308	6.165	6.591	6.586	6.548	6.439	6.746	7.008	6.804	6.946	6.805	6.941	7.631	7.603	7.584	8.026	7.893	7.569	7.487	7.334	7.133
405.0	695.4	969.6	1281	1470	1516	1495	1477	1501	1564	1724	1904	2028	2056	1989	1764	1468	1205	1088	1074	1107	1177	1259	1336	1406	1435	1439	1426	1384	1234	1095	944.0	760.7	583.0	466.3	421.5	811.5	2666	3326	237.3	15.64	4.967	3.114	2.588	2.427	2.510	2.824	2.935	3.750	4.394	4.192	4.464	5.434	5.955	6.106	6.297	6.078	6.728	6.847	6.913	6.834	7.124	7.182	7.131	7.188	7.333	7.601	7.611	7.590	8.069	8.554	8.478	8.643	8.713	8.399	8.278	7.733	7.546
410.0	700.0	976.4	1250	1439	1524	1547	1543	1585	1692	1882	2137	2301	2335	2233	1975	1600	1275	1116	1101	1157	1246	1362	1477	1582	1649	1676	1663	1635	1547	1385	1207	994.0	764.5	592.3	479.8	482.8	874.0	2141	2241	930.6	18.64	4.250	3.008	2.774	2.703	3.002	3.122	3.775	4.207	4.261	4.494	5.825	6.206	6.338	6.560	6.421	6.954	7.014	7.123	7.319	7.220	7.344	7.848	7.960	7.902	8.219	8.522	8.426	8.546	8.885	9.145	9.278	9.409	9.065	8.639	8.219	7.865
415.0	653.6	956.2	1214	1396	1494	1566	1568	1603	1713	1880	2131	2305	2360	2248	1982	1591	1253	1097	1082	1141	1232	1356	1486	1607	1685	1722	1715	1670	1612	1496	1287	1054	819.7	625.7	500.2	412.5	403.4	595.1	1035	2657	1255	23.16	4.028	3.201	2.994	3.181	3.092	3.699	4.090	4.042	4.419	5.791	5.935	6.316	6.462	6.752	7.230	6.989	7.389	7.380	7.380	7.173	7.831	7.938	7.999	8.764	8.254	8.374	9.073	8.800	9.126	9.088	9.118	8.934	9.025	8.073	8.280
420.0	631.7	924.4	1185	1377	1444	1529	1554	1610	1694	1841	2064	2226	2274	2165	1919	1532	1203	1058	1047	1102	1195	1311	1443	1562	1641	1687	1681	1628	1563	1476	1291	1042	806.8	619.0	491.8	387.0	291.0	244.9	294.3	1344	2648	256.8	16.35	3.840	3.244	3.343	3.138	3.758	4.194	4.058	4.373	5.284	5.984	6.054	6.113	6.430	7.467	6.990	7.186	7.365	7.425	7.341	7.573	7.697	7.476	8.378	7.755	8.545	8.425	8.646	8.665	9.104	8.815	8.689	8.603	8.016	8.074
425.0	621.5	875.1	1153	1328	1440	1527	1551	1621	1650	1808	2008	2178	2195	2117	1870	1490	1170	1028	1013	1063	1156	1266	1401	1526	1609	1654	1651	1610	1534	1442	1300	1060	813.8	625.1	496.1	383.7	272.1	169.5	121.1	353.2	1577	2060	228.5	9.971	3.803	3.364	3.062	3.699	4.122	4.063	4.354	5.270	5.665	6.204	6.399	6.355	7.467	7.017	7.255	7.575	7.250	7.276	7.551	7.455	7.554	7.876	7.627	8.331	8.372	8.438	8.601	8.904	8.852	9.019	8.061	8.046	7.482
430.0	703.1	870.6	1137	1310	1426	1526	1592	1661	1688	1819	2023	2177	2207	2110	1859	1469	1152	1004	977.4	1031	1116	1233	1371	1501	1596	1647	1666	1631	1557	1459	1332	1134	877.3	676.0	535.1	420.1	292.2	170.4	93.10	112.5	401.8	1185	1794	842.8	16.96	4.008	3.494	3.770	4.080	4.022	4.303	5.364	5.793	6.256	6.537	6.651	7.366	7.532	7.457	7.429	7.403	7.398	7.548	7.674	7.797	7.682	7.678	8.148	8.073	8.498	8.855	8.815	8.559	8.493	8.155	7.628	7.254
435.0	876.5	869.5	1094	1270	1404	1550	1633	1696	1711	1815	2007	2175	2193	2076	1815	1444	1126	968.0	942.8	986.7	1069	1178	1316	1456	1558	1612	1640	1626	1549	1456	1334	1154	938.0	719.7	567.0	451.3	318.0	187.9	97.78	66.21	114.4	281.2	715.3	2079	1175	23.05	4.429	4.160	4.027	3.942	4.304	5.348	5.674	6.196	6.816	6.418	7.439	7.621	7.819	7.658	7.472	7.732	7.339	7.663	7.832	7.840	7.958	8.215	8.143	7.912	8.508	8.701	8.469	8.125	7.666	7.537	7.020
440.0	1071	962.4	1038	1258	1418	1560	1661	1702	1699	1771	1945	2094	2088	1971	1726	1384	1084	935.7	906.0	941.4	1012	1119	1245	1376	1474	1531	1554	1546	1488	1400	1281	1101	915.5	726.1	563.1	445.4	318.7	193.7	102.7	60.10	54.34	81.41	178.9	999.2	2277	823.1	15.87	4.464	4.386	3.953	4.329	5.131	5.678	6.165	6.671	6.986	7.434	7.793	7.909	7.563	7.474	7.651	7.285	7.494	7.566	7.463	7.547	7.641	7.742	8.064	7.800	8.134	8.032	7.895	7.609	7.153	7.006
445.0	1070	1181	1025	1206	1391	1537	1654	1683	1641	1687	1820	1949	1930	1833	1602	1294	1023	893.6	852.2	879.9	936.2	1031	1146	1270	1354	1409	1428	1421	1372	1296	1186	1024	838.9	691.7	544.5	426.0	307.6	191.7	105.5	62.82	44.40	40.60	55.60	253.7	1312	2024	197.1	10.87	4.569	4.048	4.396	5.271	5.692	6.052	6.444	6.981	7.759	7.595	7.612	7.693	7.282	7.463	7.062	6.875	7.373	6.929	7.150	7.290	7.565	7.710	7.543	7.518	7.676	7.348	7.008	6.750	6.576
450.0	776.7	1582	1162	1159	1315	1470	1605	1615	1554	1544	1621	1717	1696	1608	1405	1150	918.7	811.8	780.2	798.1	836.5	901.9	1005	1102	1178	1226	1241	1238	1205	1140	1045	902.0	739.1	610.7	502.9	394.7	284.3	180.9	107.2	67.29	47.36	35.10	31.65	70.93	327.1	1054	1534	757.0	15.43	4.523	4.100	4.854	5.336	5.805	6.322	6.473	6.996	7.639	7.468	7.281	7.161	7.103	6.675	6.614	6.627	6.452	6.701	6.601	6.857	6.816	6.895	6.749	6.929	6.907	6.676	6.393	5.933
455.0	518.0	1514	1825	1106	1238	1390	1529	1531	1454	1398	1455	1499	1483	1417	1226	1018	816.8	725.7	702.7	708.0	730.3	786.5	869.7	949.7	1018	1063	1078	1074	1047	1001	921.0	793.2	653.9	533.0	447.6	376.4	270.5	174.6	108.2	72.35	51.03	38.00	29.87	32.28	85.92	245.4	568.8	1674	932.7	18.61	4.599	4.875	5.327	5.576	6.156	6.097	6.627	7.430	6.971	7.196	6.650	6.629	6.259	6.019	5.962	6.026	6.104	6.163	6.186	5.964	6.260	5.971	6.247	5.862	5.966	5.467	5.348
460.0	446.5	1072	2289	1309	1158	1328	1448	1454	1368	1296	1331	1374	1355	1288	1126	927.1	759.6	672.1	645.8	644.7	662.2	707.9	775.3	855.7	912.7	953.0	968.9	966.2	945.2	906.2	839.1	731.2	604.7	495.0	414.2	353.5	268.6	172.3	108.4	74.43	54.27	40.78	31.28	25.97	33.51	65.98	139.7	753.2	1736	644.2	13.64	5.059	5.392	5.313	5.791	5.771	6.631	6.729	6.935	6.716	6.363	6.142	5.955	5.460	5.596	5.517	5.611	5.499	5.761	5.709	5.657	5.507	5.465	5.574	5.436	5.144	5.095
465.0	411.4	727.7	2281	1868	1105	1243	1354	1374	1274	1217	1225	1268	1247	1169	1027	849.2	698.3	620.8	589.8	592.6	605.0	639.3	702.5	768.3	823.8	859.8	879.2	873.8	863.2	831.3	768.9	675.1	560.5	462.2	381.1	323.9	260.2	175.1	108.5	76.40	56.66	42.92	33.50	26.17	23.95	27.72	41.39	187.9	983.4	1521	161.3	10.52	5.237	5.136	5.595	5.492	6.464	6.591	6.711	6.274	6.158	5.859	5.270	5.120	5.253	5.266	5.157	5.101	5.522	4.994	5.372	5.042	5.146	4.891	4.947	4.638	4.855
470.0	389.0	560.5	1455	2660	1364	1127	1228	1239	1142	1079	1084	1112	1086	1019	894.5	737.5	614.4	545.0	520.0	520.4	523.4	551.8	600.9	657.4	702.1	733.5	749.5	749.7	740.9	713.9	664.7	588.7	492.6	409.3	341.1	284.7	229.3	169.5	112.2	77.33	57.89	45.01	35.34	28.31	23.80	20.35	20.93	51.51	244.6	771.2	1086	567.6	15.76	5.197	5.226	5.282	5.791	5.974	6.114	5.722	5.583	5.129	4.834	4.889	4.712	4.690	4.673	4.509	4.908	4.519	4.696	4.542	4.486	4.366	4.210	4.362	4.359
475.0	365.0	475.0	799.5	2346	2369	1035	1094	1095	1010	935.1	927.8	941.2	913.6	862.0	756.9	630.7	533.3	476.6	448.1	448.2	444.1	460.6	500.8	550.1	585.9	607.7	624.3	623.2	616.5	598.6	560.6	494.0	417.3	349.4	294.5	244.3	195.9	151.1	114.0	79.25	59.54	46.28	37.09	30.18	25.16	20.58	17.67	22.41	62.89	179.1	374.9	1088	636.7	20.08	5.161	4.842	5.533	5.569	5.601	5.248	5.062	4.613	4.499	4.363	4.575	4.152	4.242	3.879	4.193	3.867	3.965	4.190	3.957	3.975	3.873	3.845	3.873
480.0	316.9	426.1	587.0	1518	3065	1261	1011	989.4	914.0	850.9	823.6	837.1	809.1	757.6	663.2	559.2	478.8	423.4	401.8	397.9	392.7	405.2	439.7	479.2	506.1	528.3	540.9	538.2	537.0	518.7	490.6	435.0	366.7	310.9	261.5	220.3	175.1	135.5	108.7	84.36	60.44	47.00	38.01	31.61	25.78	21.33	17.82	16.52	23.16	47.66	91.74	467.7	1190	204.0	14.48	4.873	4.897	5.227	4.945	4.913	4.527	4.290	4.266	4.116	4.035	3.538	3.889	3.506	3.600	3.328	3.571	3.728	3.639	3.398	3.607	3.389	3.386
485.0	290.9	427.4	522.2	912.0	2960	1955	942.9	911.1	841.9	774.2	743.6	748.9	727.7	674.7	595.8	499.6	428.2	389.3	370.1	356.9	353.1	362.1	392.1	422.8	446.6	465.9	470.6	473.7	475.1	462.4	433.9	387.2	328.6	279.1	237.7	201.3	161.1	124.0	100.6	85.87	64.74	48.10	39.25	32.74	27.33	22.46	19.14	15.80	15.27	19.26	27.44	117.0	675.2	1088	176.1	8.631	4.823	4.785	4.700	4.531	4.212	4.057	3.829	3.759	3.344	3.435	3.554	3.442	3.370	3.550	3.277	3.438	3.450	3.307	3.176	2.961	3.063
490.0	246.9	406.0	482.4	630.5	1799	2953	1204	824.0	750.2	687.1	661.2	661.7	634.5	584.6	514.6	436.4	379.1	341.6	325.3	315.2	306.7	314.0	337.0	361.0	382.1	397.3	406.7	406.7	408.0	397.7	374.8	336.3	289.7	246.6	210.3	179.4	145.3	113.6	89.74	77.96	68.59	53.38	40.39	33.83	28.49	24.30	20.73	17.37	14.89	13.33	14.01	33.09	168.7	545.8	906.9	440.2	16.07	4.781	4.453	4.138	3.938	3.645	3.389	3.372	3.155	3.033	3.140	3.182	3.038	3.164	3.007	3.049	3.064	2.913	2.918	2.797	2.864
495.0	215.8	356.7	465.1	523.2	870.5	2676	2261	764.9	667.5	610.9	584.3	577.4	549.4	506.0	443.0	378.1	329.7	297.1	285.0	274.8	267.3	270.3	288.3	306.5	324.4	337.2	343.6	342.6	347.1	339.4	318.6	288.2	250.2	216.5	184.9	159.3	131.3	103.1	82.36	69.35	63.18	56.92	43.52	34.33	29.40	25.30	21.66	18.60	15.84	12.84	11.58	14.68	43.83	127.8	339.5	999.8	631.0	21.03	4.551	3.928	3.520	3.274	3.278	3.182	2.883	2.734	2.885	2.731	2.711	2.815	2.662	2.790	2.819	2.528	2.602	2.420	2.435
500.0	184.1	297.8	430.7	473.4	592.3	1722	3154	933.0	594.8	549.0	522.6	516.8	484.3	446.9	395.8	338.3	293.5	267.8	253.6	245.1	235.5	240.1	252.5	268.8	286.0	295.7	302.1	299.5	302.6	299.9	281.8	256.9	222.2	191.7	167.6	144.6	120.5	96.56	77.07	65.39	57.31	55.43	47.08	35.91	29.17	25.33	22.44	19.46	16.51	13.56	11.35	10.92	16.37	34.58	83.34	436.7	1110	220.4	14.42	3.862	3.419	3.253	3.036	2.906	2.860	2.546	2.478	2.703	2.382	2.540	2.371	2.643	2.526	2.369	2.497	2.210	2.321
505.0	179.0	261.1	393.5	449.6	490.2	935.1	3199	1597	548.7	492.4	469.8	460.9	437.3	399.2	352.4	304.3	259.9	237.9	230.2	218.5	210.1	213.0	223.1	237.5	250.3	259.8	262.8	264.3	265.1	263.8	249.9	227.2	198.9	170.8	150.5	130.3	110.1	88.91	70.48	61.37	52.07	50.21	48.37	38.01	30.11	25.77	22.70	19.46	16.64	14.35	12.00	10.28	10.91	13.77	24.40	109.2	600.7	975.9	181.4	7.545	3.306	3.189	2.809	2.811	2.510	2.246	2.333	2.426	2.371	2.375	2.106	2.507	2.472	2.157	2.352	2.069	2.197
510.0	153.8	223.8	329.1	420.1	426.2	552.1	1891	2866	765.2	425.8	405.3	399.1	375.4	337.7	300.3	259.3	222.5	204.2	194.2	186.6	179.2	180.8	189.6	200.4	209.9	217.1	221.1	222.8	222.3	219.8	210.7	192.3	168.0	147.0	129.3	112.8	95.45	79.17	64.67	55.25	47.53	43.02	42.02	39.62	31.62	25.54	22.17	19.56	16.72	14.52	12.71	10.89	9.682	9.479	11.07	29.52	148.9	482.1	739.9	330.0	14.26	2.935	2.755	2.576	2.267	2.084	2.129	2.102	2.162	2.079	2.055	2.008	2.169	1.913	2.023	1.876	1.986
515.0	143.0	192.2	261.0	368.0	387.8	410.3	785.1	2814	1866	392.2	347.8	337.2	314.0	284.3	250.3	219.7	189.2	172.9	165.4	157.7	151.8	149.6	157.6	166.3	172.3	177.2	183.3	184.4	180.6	181.8	172.8	158.6	141.3	123.0	108.4	95.50	82.16	68.93	57.85	49.74	43.22	38.64	35.55	35.96	33.57	26.43	21.85	19.55	16.32	14.22	12.80	11.04	9.691	8.718	8.118	11.80	37.93	112.0	261.6	748.9	231.2	18.21	2.531	2.284	2.066	1.897	1.808	1.884	1.841	1.798	1.987	1.887	1.843	1.644	1.652	1.680	1.696
520.0	128.9	168.8	226.9	310.8	368.6	352.6	454.0	1744	3009	548.6	314.4	300.7	279.6	249.8	216.7	191.2	165.7	150.5	143.5	137.9	131.0	130.7	135.0	143.1	149.3	153.1	155.0	157.1	155.0	154.2	148.5	138.1	121.2	106.6	95.28	83.89	71.95	62.44	52.57	44.87	40.58	35.43	31.95	32.47	32.83	28.11	22.13	19.15	16.32	13.98	12.53	10.55	9.773	8.580	7.549	7.687	13.08	29.11	63.64	327.3	741.8	208.9	11.03	2.263	2.037	1.898	1.819	1.632	1.777	1.626	1.737	1.639	1.741	1.744	1.482	1.544	1.576
525.0	115.8	150.1	199.3	262.1	360.8	327.1	352.0	826.8	3329	1238	284.4	266.2	245.9	223.0	195.3	167.7	144.6	132.9	125.4	122.0	116.1	114.5	117.2	125.4	128.6	132.0	135.4	136.3	136.4	135.5	129.5	119.3	106.4	95.24	83.98	74.42	64.94	55.90	48.50	41.61	37.04	33.36	29.80	27.76	29.20	28.73	22.97	18.85	15.56	13.83	11.98	10.69	9.710	8.387	7.239	6.765	7.443	10.59	18.01	80.87	407.7	698.2	162.9	4.649	2.041	1.809	1.646	1.561	1.704	1.630	1.653	1.588	1.587	1.441	1.402	1.322	1.409
530.0	105.1	136.8	169.9	210.9	288.5	313.3	285.3	400.5	1910	2613	489.0	225.8	210.5	187.3	163.4	142.1	124.9	114.0	108.2	103.1	98.20	98.10	101.0	104.8	108.6	111.6	111.3	112.7	113.7	111.8	108.4	100.6	90.39	80.38	70.94	64.26	56.77	48.29	42.65	37.16	33.48	30.05	26.88	25.54	24.21	25.21	23.83	19.34	14.95	13.04	11.62	10.43	8.888	8.126	7.429	6.447	6.079	6.360	7.596	21.12	100.4	334.0	522.6	238.2	12.76	1.895	1.572	1.548	1.534	1.463	1.501	1.304	1.310	1.335	1.284	1.341	1.244
535.0	101.6	116.4	152.5	174.5	223.9	293.2	253.6	265.4	654.7	2845	1523	206.5	175.2	156.9	138.3	118.4	103.1	96.15	91.36	86.46	82.18	81.41	83.61	86.48	90.45	91.87	92.48	92.37	93.71	92.39	89.79	81.85	74.75	65.99	60.55	54.59	47.91	41.78	36.21	32.52	29.15	26.32	24.26	22.63	21.83	20.35	21.98	19.30	14.78	12.47	10.59	9.561	8.280	7.627	7.177	6.402	5.732	5.062	4.977	7.523	24.87	76.99	179.4	513.9	224.7	15.63	1.692	1.413	1.448	1.314	1.330	1.300	1.219	1.172	1.244	1.146	1.149
540.0	94.15	104.5	132.9	152.5	179.2	262.1	234.9	214.6	300.5	1665	2898	306.5	152.2	138.0	121.3	104.3	89.97	82.17	79.31	74.98	70.90	70.38	71.83	74.83	77.93	78.41	79.90	79.45	79.82	80.33	76.16	71.46	64.83	57.13	52.33	48.10	41.50	36.68	32.12	29.71	26.82	24.15	22.03	20.80	18.82	18.03	18.66	18.67	15.20	12.09	10.16	9.125	8.098	7.047	6.644	6.228	5.425	4.642	4.352	4.503	7.837	19.27	43.13	218.4	517.1	185.9	8.065	1.322	1.291	1.327	1.204	1.191	1.156	1.082	1.150	1.146	1.007
545.0	84.24	95.81	116.1	128.1	153.2	212.4	233.9	183.0	198.5	671.5	3248	849.6	138.8	120.4	106.1	91.24	80.15	73.48	67.39	66.45	62.57	60.74	63.00	64.48	65.82	67.66	68.41	68.69	68.41	69.09	65.65	61.52	56.38	50.30	45.16	41.68	36.68	32.10	28.91	25.73	23.98	21.81	19.99	18.53	17.56	15.92	16.07	16.61	15.05	11.96	9.261	8.319	7.388	6.484	6.019	5.860	5.311	4.373	3.940	3.668	4.063	6.395	11.65	53.35	269.4	482.5	130.9	3.642	1.249	1.243	1.128	1.059	1.007	1.077	1.026	1.048	1.042
550.0	75.36	90.92	105.6	108.5	128.6	152.4	221.1	168.1	152.2	260.3	1708	2179	252.4	100.7	88.57	75.09	65.32	61.04	56.97	54.37	51.67	49.52	51.68	53.24	53.97	55.98	55.37	55.50	55.96	56.05	53.50	50.17	45.92	41.63	37.91	34.03	30.24	26.58	24.13	21.70	19.99	18.58	17.49	16.07	14.85	13.72	13.10	12.99	13.21	12.05	9.387	7.324	6.605	6.002	5.436	5.037	4.811	4.538	3.492	3.175	3.143	3.368	4.403	13.65	65.58	217.3	342.7	132.2	12.08	1.399	1.096	1.075	0.997	0.948	0.907	0.969	0.961
555.0	74.94	92.70	96.50	97.22	100.9	116.1	171.8	177.0	128.4	144.5	512.8	2503	1041	85.88	70.58	58.77	53.18	48.21	45.44	43.56	41.56	40.03	40.42	42.53	42.23	44.08	43.28	44.65	43.98	43.98	42.85	40.26	36.63	32.38	30.10	27.42	25.20	21.93	19.89	17.84	16.69	15.54	14.89	13.44	12.83	12.15	10.68	10.22	9.993	10.61	9.208	6.800	5.786	5.355	4.639	4.297	4.282	4.219	3.635	2.875	2.778	2.605	2.759	4.601	16.06	49.84	109.3	307.1	206.9	15.15	1.152	1.097	0.980	0.938	0.938	0.813	0.836
560.0	74.66	85.65	83.66	88.55	88.65	101.2	130.2	176.3	115.6	108.2	191.3	1385	2258	129.2	59.62	50.65	44.68	40.29	37.84	37.22	33.93	33.45	34.93	34.37	35.86	36.46	35.72	36.51	36.29	36.45	35.34	33.12	29.97	27.42	25.32	22.87	20.94	18.54	17.03	15.55	14.26	13.07	12.45	11.68	11.03	10.25	9.399	8.600	7.865	8.513	8.775	6.959	5.264	4.809	4.405	3.991	3.662	3.514	3.517	2.683	2.595	2.344	2.267	2.468	5.011	12.38	26.06	120.1	325.6	158.2	8.051	1.120	0.880	0.945	0.849	0.821	0.773
565.0	71.51	86.52	85.74	83.53	78.23	82.07	98.58	157.8	121.5	96.38	109.9	505.2	2655	526.1	51.06	43.42	37.64	34.67	32.35	30.39	28.66	28.18	29.31	29.33	30.29	29.93	29.08	29.97	29.48	29.67	28.93	27.50	24.78	22.80	20.98	19.10	17.45	15.95	14.41	13.57	11.78	11.36	10.66	10.09	9.153	8.751	8.188	7.585	6.700	7.061	7.542	6.973	5.123	4.200	3.656	3.624	3.260	3.000	3.053	2.831	2.386	2.223	1.783	1.929	2.397	4.030	6.962	29.11	145.2	296.9	33.32	3.538	0.925	0.874	0.853	0.859	0.839
570.0	70.56	84.46	81.37	76.10	69.62	71.55	77.55	115.4	135.8	87.57	86.67	175.1	1374	1596	91.84	36.02	30.62	28.46	26.34	24.68	22.93	22.75	23.22	23.24	23.61	24.60	23.47	23.79	24.07	23.28	22.95	21.42	20.03	18.31	16.66	15.08	13.83	12.82	11.77	11.10	10.00	9.507	8.557	8.247	7.782	7.379	6.707	6.378	5.767	5.573	5.508	5.762	5.147	3.884	3.476	3.169	2.831	2.630	2.570	2.388	2.459	2.167	1.794	1.759	1.763	2.119	2.753	7.573	34.80	116.9	183.6	111.0	12.07	0.990	0.862	0.769	0.724
575.0	69.13	87.34	79.00	74.38	63.34	63.35	63.24	78.76	130.7	97.73	73.93	94.04	389.7	1831	704.3	33.04	24.97	22.10	21.08	19.69	18.19	18.72	18.58	18.33	19.00	18.87	18.65	18.54	19.10	18.79	18.05	16.52	15.87	14.06	13.31	12.04	11.26	10.48	9.379	8.827	8.260	7.886	7.074	6.917	6.643	6.025	5.771	5.139	4.612	4.234	4.081	4.458	4.463	3.804	3.077	2.730	2.403	2.302	2.240	2.143	2.188	2.213	2.070	1.745	1.503	1.660	1.773	2.868	8.825	27.00	52.29	160.8	151.2	15.84	0.796	0.698	0.751
580.0	80.39	80.25	79.98	68.03	58.59	57.06	60.41	67.58	107.8	112.9	75.38	76.54	135.6	981.8	1574	65.85	21.20	18.74	17.61	17.22	15.53	15.32	16.01	14.80	15.26	15.40	15.76	15.37	15.43	15.56	14.34	14.03	12.87	11.85	10.56	10.26	9.425	8.595	8.100	7.362	6.914	6.565	5.982	5.764	5.295	5.283	4.883	4.512	4.116	3.657	3.576	3.409	3.854	3.920	3.038	2.473	2.227	2.131	1.962	1.865	1.933	1.972	2.019	1.630	1.380	1.326	1.540	1.681	3.071	6.893	12.65	54.29	179.0	118.1	8.501	0.720	0.739
585.0	75.54	81.83	81.42	66.06	52.54	50.02	54.37	58.82	81.82	121.9	80.69	72.15	76.12	340.4	1830	300.4	19.11	17.21	15.21	14.52	13.51	13.24	13.86	13.00	13.06	13.79	12.91	12.55	13.37	12.99	12.63	11.91	10.58	9.810	9.297	8.525	7.947	7.566	6.809	6.351	5.935	5.716	5.080	4.776	4.752	4.484	4.381	3.866	3.453	3.243	3.211	2.899	3.031	3.378	3.249	2.375	2.124	1.828	1.814	1.747	1.638	1.689	2.081	1.713	1.245	1.324	1.571	1.407	1.724	2.474	3.744	13.04	68.01	171.2	34.53	4.018	0.714
590.0	72.32	79.41	79.46	61.83	49.80	44.97	47.65	50.81	63.18	107.4	99.96	70.94	61.34	111.1	908.1	1033	49.11	14.58	12.57	11.80	11.32	10.87	10.82	10.67	10.72	11.16	10.86	10.84	10.40	10.27	10.41	9.441	8.613	8.249	7.838	7.027	6.500	6.312	5.733	4.951	5.104	4.582	4.273	4.153	4.019	3.653	3.447	3.373	3.071	2.712	2.600	2.455	2.348	2.530	2.871	2.505	1.938	1.684	1.567	1.496	1.402	1.458	1.586	1.634	1.471	1.260	1.382	1.250	1.299	1.451	1.666	3.675	16.12	58.32	102.3	77.36	13.02
595.0	68.38	76.77	74.58	60.98	44.22	41.62	40.75	44.39	54.51	79.39	114.5	75.06	59.03	56.39	246.7	1169	396.7	13.12	10.48	9.718	9.454	9.158	8.477	8.237	7.958	8.591	8.233	8.675	8.426	8.134	8.101	7.457	6.809	6.827	6.238	5.675	5.277	4.972	4.706	4.191	4.052	3.603	3.410	3.469	3.356	3.184	3.063	2.613	2.523	2.237	2.171	2.053	1.967	1.828	2.200	2.362	1.939	1.668	1.456	1.287	1.274	1.280	1.382	1.340	1.746	1.414	1.205	1.209	1.067	1.121	1.208	1.492	4.215	13.66	26.67	81.08	102.4
600.0	63.31	70.63	72.37	55.98	43.31	41.29	36.38	42.40	50.72	65.66	112.6	83.32	61.07	46.37	78.39	637.3	775.1	31.12	9.210	8.451	7.566	7.649	7.578	7.183	6.839	7.216	7.348	6.803	7.058	6.900	6.810	6.643	5.861	5.493	5.278	5.003	4.614	4.268	3.919	3.408	3.271	3.101	3.067	2.907	2.818	2.944	2.556	2.431	2.279	1.989	1.994	1.746	1.665	1.620	1.794	2.089	1.938	1.588	1.317	1.232	1.335	1.148	1.208	1.161	1.321	1.488	1.333	1.114	0.938	1.028	0.959	0.941	1.488	3.586	6.536	24.67	96.72
605.0	65.22	71.04	68.78	49.78	43.76	40.42	39.65	45.29	50.98	61.97	98.01	102.0	65.76	46.26	42.94	217.0	1074	85.16	8.456	7.271	6.987	6.484	6.449	6.475	6.247	6.312	6.172	6.229	6.152	6.018	5.924	5.850	5.281	4.945	4.448	4.377	3.791	3.523	3.335	3.037	2.718	2.692	2.648	2.539	2.275	2.433	2.218	2.083	2.013	1.834	1.674	1.543	1.527	1.378	1.460	1.626	1.984	1.803	1.278	1.213	1.213	1.007	1.080	1.147	1.093	1.451	1.398	1.126	1.035	1.029	0.959	0.868	0.935	1.339	2.062	6.130	32.03
610.0	68.66	69.36	65.01	52.54	42.47	38.83	40.32	48.76	53.79	64.76	88.74	121.0	80.48	52.79	40.47	70.94	581.6	636.0	28.10	6.369	5.846	5.268	5.337	5.455	5.314	5.271	5.028	5.054	4.951	5.007	4.837	4.885	4.257	4.066	3.551	3.414	3.210	2.846	2.613	2.479	2.345	2.188	2.175	2.036	2.048	2.027	1.828	1.779	1.653	1.485	1.435	1.301	1.305	1.210	1.236	1.271	1.566	1.620	1.403	1.167	1.096	0.996	0.998	0.984	1.070	1.042	1.278	1.182	1.100	0.980	0.869	0.882	0.808	0.896	1.015	1.913	7.684
615.0	69.11	64.88	61.90	49.75	43.61	36.84	40.13	48.43	54.88	66.13	78.82	111.5	95.63	57.28	41.74	36.91	165.4	768.1	229.9	6.072	4.888	4.732	4.793	4.476	4.219	4.023	4.056	3.860	4.159	3.829	4.046	3.691	3.317	3.258	2.757	2.726	2.689	2.319	2.221	2.034	1.970	1.945	1.902	1.725	1.750	1.719	1.576	1.550	1.335	1.247	1.229	1.161	1.128	1.115	1.020	1.125	1.196	1.310	1.296	1.068	0.994	0.924	0.915	1.054	1.136	1.023	1.072	1.158	1.349	1.070	0.878	0.884	0.712	0.763	0.881	0.945	2.293
620.0	67.12	60.75	64.64	50.46	42.52	37.65	37.51	43.18	52.13	66.39	76.53	97.20	105.2	61.51	41.97	29.28	54.33	450.3	556.3	13.78	4.595	4.398	4.192	3.751	3.625	3.704	3.546	3.428	3.453	3.544	3.440	3.272	2.940	2.737	2.360	2.307	2.309	2.102	1.950	1.731	1.627	1.778	1.671	1.546	1.638	1.555	1.409	1.328	1.238	1.114	1.079	1.008	1.012	0.956	0.943	0.948	0.933	1.160	1.303	1.185	1.020	0.897	0.922	1.013	0.977	1.016	0.923	1.112	1.200	1.130	0.910	0.870	0.735	0.731	0.719	0.805	1.069
625.0	69.81	65.74	64.81	46.14	35.21	34.62	37.26	43.60	52.81	62.70	74.48	86.51	109.7	66.08	43.30	28.07	27.84	163.1	742.9	58.37	4.535	4.069	3.933	3.491	3.062	3.250	3.170	3.143	3.203	3.026	2.976	2.818	2.653	2.286	2.132	2.050	1.993	1.822	1.676	1.574	1.607	1.664	1.462	1.298	1.279	1.284	1.257	1.115	1.182	1.047	0.851	0.973	0.940	0.923	0.814	0.924	0.833	0.943	1.115	1.124	1.143	0.874	0.794	0.962	0.939	0.929	0.924	0.984	1.078	1.144	0.908	0.849	0.779	0.801	0.763	0.702	0.799
630.0	63.59	64.89	61.37	48.29	37.19	33.80	36.29	44.00	50.78	62.16	74.28	81.64	95.63	78.35	44.66	28.88	22.30	49.52	444.0	404.1	12.63	3.643	3.298	3.027	2.945	2.823	2.765	2.736	2.599	2.564	2.492	2.429	2.052	1.960	1.872	1.700	1.694	1.540	1.493	1.332	1.477	1.297	1.247	1.134	1.100	1.154	1.106	1.075	1.053	0.929	0.797	0.921	0.821	0.856	0.774	0.836	0.798	0.826	0.877	1.061	1.065	0.931	0.864	0.900	0.892	0.846	0.949	0.892	0.950	0.975	1.085	0.914	0.790	0.769	0.695	0.694	0.665
635.0	61.95	67.12	57.06	45.58	35.19	32.18	37.14	43.23	47.98	61.33	72.51	78.98	81.66	84.98	51.27	31.13	21.41	21.39	122.5	571.4	64.33	3.419	2.805	2.667	2.508	2.552	2.309	2.413	2.160	2.261	2.055	1.892	1.857	1.742	1.564	1.467	1.346	1.488	1.274	1.148	1.130	1.168	0.994	0.999	0.985	0.963	0.947	0.978	0.854	0.761	0.728	0.708	0.725	0.735	0.745	0.806	0.701	0.761	0.724	0.887	0.908	0.919	0.853	0.857	0.860	0.880	0.831	0.937	0.888	0.953	0.964	0.935	0.893	0.757	0.690	0.641	0.662
640.0	59.89	58.94	59.69	44.50	34.99	32.06	39.60	40.34	49.26	61.78	73.77	80.32	75.91	81.82	57.82	32.04	21.73	15.99	34.17	382.0	331.6	6.477	2.703	2.499	2.405	2.258	2.252	2.133	2.018	2.190	1.949	1.801	1.576	1.780	1.464	1.320	1.148	1.346	1.063	1.034	0.948	0.996	0.931	0.972	0.904	0.941	0.820	0.888	0.790	0.701	0.724	0.651	0.687	0.682	0.681	0.694	0.719	0.642	0.727	0.745	0.847	0.841	0.854	0.748	0.808	0.830	0.850	0.945	0.895	0.883	0.814	0.858	1.032	0.751	0.776	0.656	0.648
645.0	62.80	72.86	64.36	46.63	38.80	30.34	34.67	40.21	49.82	59.56	73.62	79.32	73.14	74.95	64.00	34.04	22.17	14.17	13.76	149.4	518.6	36.73	2.658	2.501	2.462	2.243	2.139	2.029	1.804	1.894	1.886	1.708	1.491	1.559	1.347	1.219	1.184	1.175	0.976	1.037	0.949	0.972	0.902	0.936	0.845	0.838	0.777	0.789	0.724	0.673	0.661	0.623	0.655	0.609	0.618	0.581	0.668	0.641	0.661	0.738	0.690	0.779	0.827	0.814	0.745	0.738	0.865	0.851	0.855	0.836	0.798	0.823	0.930	0.836	0.756	0.686	0.635
650.0	62.83	70.98	67.60	51.24	36.48	28.17	36.05	39.56	50.39	57.63	69.82	76.41	75.11	67.91	66.63	34.85	22.32	14.17	9.803	43.22	463.0	170.9	3.270	2.087	2.235	1.996	1.949	1.860	1.756	1.627	1.717	1.576	1.372	1.424	1.165	1.116	1.018	1.095	0.980	0.945	0.875	0.979	0.933	0.818	0.795	0.715	0.732	0.745	0.735	0.699	0.574	0.712	0.642	0.588	0.633	0.537	0.695	0.643	0.662	0.677	0.649	0.773	0.789	0.787	0.721	0.804	0.784	0.849	0.908	0.762	0.873	0.767	0.789	0.790	0.721	0.752	0.685
