Sample:	'1
File name:	Default_20230303_093009.FD3
Run date:	'09:23:49, 03/03/2023
Operator:	user
Comment:	'

Instrument
Model:	F-2700 FL Spectrophotometer
Serial number:	2190-003
ROM Version:	4J14000 07

Instrument parameters
Measurement type:	3-D scan
Data mode:	Fluorescence
EX  Start WL:	220.0 nm
EX  End WL:	600.0 nm
EX Sampling interval:	5.0 nm
EM  Start WL:	230.0 nm
EM  End WL:	650.0 nm
EM Sampling interval:	5.0 nm
Scan speed:	12000 nm/min
EX Slit:	5.0 nm
EM Slit:	5.0 nm
PMT Voltage:	700 V
Response:	Auto 
Corrected spectra:	Off
Contour interval:	50.000

Peak integration
Integration method:	Rectangular
Sensitivity:	1
Threshold:	1.000

Peaks
No.	ApexEX/EM(nm)	Height(Data)
1	230.0/335.0	-72.76
2	235.0/345.0	-16.41
3	245.0/265.0	2.209
4	255.0/280.0	172.3
5	255.0/395.0	187.0
6	255.0/555.0	-109.4
7	260.0/285.0	323.5
8	260.0/565.0	-88.54
9	265.0/290.0	339.2
10	265.0/575.0	-77.82
11	270.0/295.0	541.7
12	270.0/420.0	220.2
13	270.0/430.0	213.0
14	270.0/590.0	-62.69
15	275.0/305.0	700.8
16	275.0/415.0	226.5
17	275.0/435.0	222.2
18	275.0/605.0	-46.09
19	280.0/310.0	690.5
20	280.0/395.0	252.9
21	280.0/420.0	237.3
22	280.0/440.0	220.9
23	280.0/615.0	-44.49
24	285.0/315.0	697.1
25	285.0/385.0	287.8
26	285.0/630.0	-36.76
27	290.0/320.0	644.7
28	290.0/640.0	-29.49
29	295.0/400.0	263.4
30	300.0/335.0	351.1
31	305.0/340.0	353.4
32	305.0/395.0	257.0
33	310.0/345.0	317.8
34	315.0/350.0	256.2
35	320.0/360.0	276.5
36	325.0/365.0	275.4
37	330.0/370.0	252.4
38	335.0/380.0	255.8
39	340.0/385.0	258.6
40	345.0/390.0	231.1
41	350.0/395.0	227.9
42	355.0/405.0	223.0
43	360.0/410.0	202.3
44	365.0/415.0	192.2
45	370.0/425.0	183.5
46	375.0/430.0	154.5
47	385.0/445.0	121.3
48	395.0/455.0	91.32
49	400.0/465.0	74.24
50	410.0/475.0	49.41
51	420.0/490.0	33.70
52	425.0/495.0	27.47
53	430.0/505.0	22.70
54	435.0/510.0	16.72
55	440.0/515.0	14.38
56	450.0/530.0	8.920
57	455.0/535.0	6.813
58	460.0/545.0	4.103
59	465.0/550.0	2.477
60	545.0/300.0	-5.984
61	550.0/305.0	-5.666
62	555.0/310.0	-6.294
63	570.0/315.0	-6.353
64	575.0/320.0	-6.235
65	580.0/325.0	-6.590

Data points
	220.0	225.0	230.0	235.0	240.0	245.0	250.0	255.0	260.0	265.0	270.0	275.0	280.0	285.0	290.0	295.0	300.0	305.0	310.0	315.0	320.0	325.0	330.0	335.0	340.0	345.0	350.0	355.0	360.0	365.0	370.0	375.0	380.0	385.0	390.0	395.0	400.0	405.0	410.0	415.0	420.0	425.0	430.0	435.0	440.0	445.0	450.0	455.0	460.0	465.0	470.0	475.0	480.0	485.0	490.0	495.0	500.0	505.0	510.0	515.0	520.0	525.0	530.0	535.0	540.0	545.0	550.0	555.0	560.0	565.0	570.0	575.0	580.0	585.0	590.0	595.0	600.0
230.0	-873.3	-226.1	 3093	 1660	-226.6	-276.1	-241.4	-207.9	-183.5	-161.1	-143.2	-122.5	-102.5	-82.96	-68.64	-56.06	-47.01	-40.07	-35.22	-31.39	-28.44	-25.84	-24.11	-22.14	-20.49	-19.18	-18.48	-17.82	-17.25	-16.90	-16.02	-15.01	-14.13	-13.12	-12.39	-11.26	-10.82	-10.96	-10.59	-9.933	-9.665	-9.831	-9.548	-9.319	-9.088	-8.847	-7.399	-4.758	-1.511	-1.615	-4.637	-7.236	-7.131	-7.648	-7.381	-7.716	-7.857	-7.897	-7.848	-7.921	-7.946	-8.049	-8.171	-8.109	-8.049	-8.182	-8.268	-8.248	-8.274	-8.379	-8.505	-8.345	-8.450	-8.461	-8.729	-8.914	-9.128
235.0	-828.7	-574.6	789.1	 2744	 1564	-151.6	-245.4	-207.2	-185.5	-163.2	-142.3	-122.4	-103.4	-85.35	-68.84	-54.84	-45.50	-40.89	-35.66	-31.71	-28.65	-26.09	-23.61	-22.39	-20.54	-19.23	-18.58	-18.08	-17.25	-17.04	-16.06	-15.36	-14.20	-13.32	-12.51	-11.45	-10.92	-11.01	-10.29	-10.02	-10.10	-9.905	-9.850	-9.086	-8.801	-8.866	-7.725	-7.371	-5.296	-2.907	-0.938	-3.116	-5.263	-7.284	-7.466	-7.696	-7.996	-7.882	-8.109	-7.974	-7.987	-8.134	-8.114	-8.222	-8.246	-7.980	-8.270	-8.241	-8.204	-8.312	-8.542	-8.543	-8.385	-8.446	-8.836	-8.922	-9.087
240.0	-767.9	-614.2	-238.4	 1092	 3231	 1346	-172.5	-203.5	-183.4	-161.3	-140.2	-123.9	-102.1	-84.11	-70.08	-54.12	-47.12	-40.14	-35.14	-31.84	-29.03	-25.78	-23.83	-21.66	-19.96	-18.96	-18.18	-18.02	-17.52	-16.57	-15.97	-15.34	-14.18	-13.12	-12.63	-11.45	-11.07	-10.79	-10.12	-10.12	-9.900	-9.922	-9.427	-9.311	-9.120	-8.631	-7.825	-7.784	-6.684	-5.060	-3.954	-1.762	-1.125	-3.011	-6.407	-7.812	-8.041	-8.116	-7.965	-7.881	-8.108	-8.049	-8.075	-8.050	-8.291	-8.221	-8.143	-8.308	-8.210	-8.361	-8.552	-8.566	-8.402	-8.428	-8.709	-8.947	-9.049
245.0	-875.5	-600.5	-435.6	-38.03	 1818	 3793	 1035	-177.4	-182.5	-161.1	-138.6	-122.0	-102.8	-80.26	-67.78	-55.19	-48.29	-40.77	-35.36	-31.45	-28.62	-25.65	-24.04	-21.70	-20.50	-18.62	-18.68	-17.88	-17.25	-16.85	-16.25	-15.04	-14.17	-13.31	-12.37	-11.15	-10.71	-10.64	-10.30	-9.961	-9.834	-9.972	-9.595	-9.099	-8.961	-8.570	-7.593	-7.653	-7.031	-5.784	-5.650	-5.389	-3.263	0.275	-0.493	-3.942	-7.127	-7.715	-8.051	-7.886	-7.904	-7.836	-8.162	-7.838	-8.198	-8.033	-8.092	-8.302	-7.997	-8.325	-8.446	-8.374	-8.492	-8.519	-8.623	-9.040	-9.196
250.0	-873.6	-630.4	-399.2	-246.7	212.8	 1823	 3548	 2281	111.8	-159.8	-142.7	-122.5	-102.4	-82.51	-65.28	-55.70	-47.31	-40.26	-34.89	-31.26	-28.29	-25.26	-23.66	-22.05	-20.54	-19.13	-18.62	-17.71	-16.75	-16.59	-16.03	-15.06	-14.24	-13.17	-12.32	-11.29	-10.94	-10.82	-10.31	-10.15	-9.756	-9.914	-9.738	-9.331	-9.012	-8.651	-7.760	-7.517	-6.989	-5.815	-5.906	-6.790	-6.349	-5.221	-3.028	-0.528	0.624	-0.835	-4.526	-7.201	-7.911	-7.955	-8.082	-8.047	-8.087	-8.155	-8.125	-8.116	-8.232	-8.448	-8.271	-8.408	-8.367	-8.507	-8.581	-8.895	-9.143
255.0	-867.1	-693.9	-475.3	-228.6	-111.6	209.1	 1180	 4707	 1849	204.7	-133.1	-119.3	-96.23	-82.55	-66.18	-54.56	-48.20	-40.06	-34.95	-30.02	-27.99	-25.42	-23.66	-21.77	-20.68	-19.28	-18.14	-17.40	-16.91	-16.36	-16.12	-15.28	-14.03	-13.18	-12.33	-11.45	-11.17	-11.02	-10.60	-10.06	-9.904	-9.951	-9.521	-9.334	-8.907	-8.681	-7.860	-7.672	-7.052	-5.788	-5.730	-6.955	-7.083	-7.214	-6.291	-5.898	-4.615	0.386	5.099	4.294	-3.416	-7.479	-7.902	-8.297	-8.218	-8.057	-8.047	-8.352	-8.217	-8.419	-8.665	-8.265	-8.461	-8.471	-8.695	-8.897	-9.023
260.0	-873.9	-690.3	-514.8	-314.6	-54.40	-98.06	102.3	 2068	 5984	 1600	24.64	-117.6	-96.53	-79.79	-66.45	-55.01	-47.84	-39.63	-35.99	-30.60	-27.73	-25.25	-23.61	-21.42	-20.38	-19.51	-18.39	-17.75	-17.32	-16.39	-16.12	-15.06	-13.93	-13.34	-12.35	-11.35	-11.39	-11.07	-10.53	-10.05	-9.630	-10.07	-9.410	-9.094	-8.919	-8.762	-7.856	-7.847	-7.251	-6.225	-5.882	-6.842	-6.768	-7.115	-6.800	-6.874	-7.030	-5.611	-2.015	5.864	9.653	2.811	-5.749	-8.119	-7.997	-8.126	-8.211	-8.221	-8.461	-8.387	-8.497	-8.525	-8.448	-8.379	-8.659	-8.788	-9.233
265.0	-891.4	-708.5	-562.9	-405.0	-111.8	2.209	-118.3	357.2	 3214	 7679	 1252	-60.68	-92.35	-79.50	-64.08	-54.88	-46.44	-41.07	-35.06	-31.14	-27.62	-25.25	-22.67	-21.68	-19.99	-19.35	-18.23	-17.59	-16.88	-16.21	-15.45	-15.02	-13.80	-13.45	-12.42	-11.49	-10.89	-11.17	-10.48	-10.25	-9.998	-9.686	-9.538	-9.199	-8.669	-8.712	-7.572	-7.851	-7.205	-6.079	-6.254	-7.356	-6.826	-7.092	-6.767	-7.269	-7.792	-7.436	-6.406	-3.689	1.991	10.22	9.630	-0.467	-7.189	-8.079	-8.049	-8.265	-8.338	-8.192	-8.246	-8.461	-8.407	-8.404	-8.696	-8.900	-9.023
270.0	-882.3	-708.5	-554.7	-418.5	-266.0	-53.00	35.45	-15.12	667.3	 3464	 6803	 4583	255.0	-74.49	-64.46	-52.65	-44.71	-39.32	-34.01	-30.35	-27.89	-25.50	-23.34	-21.51	-20.21	-18.88	-18.41	-17.62	-17.07	-16.41	-15.74	-15.21	-13.78	-13.26	-12.27	-11.23	-11.04	-11.02	-10.23	-10.10	-10.04	-9.693	-9.740	-9.130	-8.793	-8.637	-7.725	-7.763	-7.002	-6.150	-6.257	-7.418	-7.108	-7.406	-6.900	-6.796	-7.372	-7.697	-7.520	-6.840	-5.642	-2.333	2.032	7.346	9.426	6.372	-1.969	-7.310	-8.307	-8.339	-8.203	-8.482	-8.337	-8.464	-8.577	-8.989	-9.001
275.0	-860.4	-660.0	-540.0	-424.5	-300.9	-215.6	-0.844	152.1	72.64	681.2	 2158	 8397	 6840	337.4	-60.87	-52.22	-44.89	-38.03	-34.73	-30.46	-27.88	-25.30	-23.25	-21.86	-19.92	-18.59	-18.16	-17.97	-17.01	-16.78	-15.85	-14.87	-13.82	-13.34	-12.17	-11.20	-11.01	-10.98	-10.24	-10.08	-10.04	-10.15	-9.930	-9.102	-8.859	-8.733	-7.499	-7.647	-7.164	-6.190	-5.947	-7.412	-7.310	-7.550	-7.128	-7.370	-6.919	-6.901	-7.000	-7.279	-7.595	-6.610	-5.777	-4.439	-1.350	7.484	20.72	13.42	-1.825	-8.077	-8.134	-8.388	-8.359	-8.613	-8.596	-8.815	-8.896
280.0	-838.6	-675.2	-512.0	-412.1	-325.8	-261.3	-138.1	172.3	147.8	70.07	430.5	 3255	9999.9	 5266	145.1	-49.85	-42.54	-37.57	-33.33	-31.00	-27.40	-25.36	-23.40	-21.13	-20.07	-18.58	-17.34	-17.77	-17.50	-16.33	-15.81	-15.08	-13.94	-12.99	-12.41	-11.25	-10.85	-10.86	-10.47	-10.28	-9.708	-9.953	-9.658	-9.234	-8.977	-8.772	-7.524	-7.627	-7.080	-6.151	-5.950	-7.408	-7.201	-7.730	-7.101	-7.715	-7.621	-7.077	-6.818	-6.908	-7.234	-7.683	-7.428	-7.152	-6.330	-4.059	4.898	16.66	23.25	9.435	-5.378	-8.227	-8.393	-8.518	-8.684	-8.955	-8.928
285.0	-804.6	-665.3	-501.5	-403.3	-327.1	-270.7	-192.1	-10.55	323.5	84.84	47.40	750.4	 4673	9999.9	 3639	14.11	-41.37	-36.26	-32.84	-29.76	-27.18	-24.61	-23.39	-20.92	-19.59	-18.63	-17.60	-16.72	-17.14	-16.48	-15.88	-15.27	-13.75	-12.70	-12.22	-11.20	-10.46	-10.65	-10.54	-10.16	-9.903	-9.805	-9.739	-9.097	-8.830	-8.681	-7.423	-7.733	-7.113	-6.202	-6.047	-7.305	-7.274	-7.651	-7.151	-7.477	-7.793	-7.482	-7.344	-6.851	-6.761	-7.280	-7.739	-7.787	-7.669	-7.101	-4.909	-0.008	11.61	26.23	18.52	1.550	-7.414	-8.465	-8.622	-8.693	-8.912
290.0	-741.0	-576.5	-435.8	-361.2	-298.8	-253.7	-196.1	-116.4	98.63	339.2	180.5	202.0	 1143	 4449	 9107	 5021	173.5	-32.59	-30.52	-28.54	-25.44	-24.55	-22.78	-21.06	-19.49	-18.74	-17.84	-16.87	-16.79	-16.55	-15.46	-15.29	-13.80	-12.69	-12.01	-11.07	-10.67	-10.60	-10.21	-9.802	-9.902	-9.788	-9.727	-9.299	-8.894	-8.469	-7.468	-7.439	-6.656	-5.934	-5.960	-7.116	-7.167	-7.425	-7.228	-7.501	-7.658	-7.618	-7.733	-7.540	-7.236	-6.767	-6.837	-7.281	-7.467	-7.700	-7.236	-6.026	-3.418	2.459	9.616	16.42	17.43	10.79	-1.154	-7.886	-9.008
295.0	-689.0	-538.2	-390.0	-306.2	-279.4	-239.2	-187.6	-124.6	-29.90	158.9	541.7	280.9	374.0	 1064	 2680	 8848	 3965	243.7	-25.44	-26.29	-25.64	-23.73	-22.14	-20.76	-19.54	-18.26	-17.67	-17.37	-16.36	-16.27	-15.39	-15.11	-12.92	-12.61	-12.19	-10.95	-9.997	-10.33	-10.33	-9.743	-9.976	-9.551	-9.574	-9.191	-9.191	-8.428	-7.448	-7.214	-6.613	-5.653	-5.930	-7.217	-7.211	-7.286	-7.374	-7.494	-7.747	-7.524	-7.575	-7.738	-7.557	-7.378	-7.128	-6.511	-6.524	-7.356	-7.277	-7.353	-6.670	-5.348	-3.953	-2.309	1.960	17.56	30.45	17.72	-1.299
300.0	-632.8	-455.8	-317.9	-275.7	-250.9	-216.2	-173.3	-106.3	-44.82	71.91	426.2	647.9	301.7	352.3	657.7	 3243	9999.9	 3267	141.4	-23.20	-24.81	-22.44	-21.88	-20.65	-19.34	-18.01	-17.31	-17.36	-16.46	-16.48	-15.50	-14.95	-13.82	-12.78	-11.86	-10.76	-10.08	-10.20	-10.08	-9.557	-9.755	-9.673	-9.444	-8.929	-8.982	-8.353	-7.343	-7.421	-6.382	-5.757	-5.965	-7.138	-7.103	-7.418	-7.271	-7.637	-7.917	-7.573	-7.335	-7.718	-7.739	-7.395	-7.417	-7.091	-6.413	-5.984	-6.689	-7.347	-7.648	-7.189	-6.696	-6.900	-5.842	-1.293	11.39	29.35	33.62
305.0	-613.5	-415.2	-286.2	-281.8	-240.1	-194.7	-154.2	-101.1	-16.40	59.86	245.1	700.8	546.6	253.0	223.6	781.6	 4592	9999.9	 2499	47.99	-21.07	-20.50	-20.56	-20.57	-19.10	-17.65	-17.44	-17.28	-17.04	-16.06	-15.11	-14.31	-13.54	-12.37	-11.98	-10.54	-10.35	-10.06	-10.20	-9.472	-9.479	-9.712	-9.651	-9.052	-8.785	-8.380	-7.239	-7.367	-6.595	-5.781	-5.849	-7.031	-6.914	-7.295	-7.184	-7.401	-7.658	-7.604	-7.697	-7.509	-7.538	-7.377	-7.593	-7.502	-7.051	-6.442	-5.666	-6.417	-7.470	-7.651	-7.675	-7.719	-7.761	-6.648	-3.864	3.892	20.40
310.0	-591.1	-347.7	-255.8	-236.4	-239.4	-180.2	-128.8	-71.11	6.071	98.64	205.4	441.7	690.5	527.8	197.5	233.1	 1094	 4397	 8337	 5240	129.0	-17.58	-19.31	-19.43	-18.89	-17.58	-17.00	-16.83	-16.54	-15.87	-15.43	-13.94	-13.37	-12.27	-11.83	-10.56	-10.30	-10.23	-9.948	-9.795	-9.150	-9.587	-9.519	-8.615	-8.444	-8.310	-7.235	-7.166	-6.839	-5.861	-5.461	-7.057	-6.868	-7.172	-7.061	-7.337	-7.565	-7.779	-7.525	-7.544	-7.373	-7.328	-7.242	-7.310	-7.181	-6.954	-6.799	-6.294	-6.431	-7.016	-7.449	-7.937	-7.977	-7.841	-7.306	-5.786	-1.879
315.0	-577.6	-346.4	-233.0	-204.5	-216.0	-169.2	-110.1	-49.11	32.93	115.2	226.3	354.1	466.9	697.1	433.7	148.2	278.2	993.6	 2456	 8701	 7080	187.3	-16.95	-17.80	-18.11	-16.64	-16.48	-15.65	-16.35	-15.53	-14.99	-14.24	-13.08	-11.95	-11.79	-10.45	-9.939	-10.08	-9.670	-9.424	-9.282	-9.536	-9.275	-8.679	-8.562	-8.138	-6.933	-7.129	-6.648	-5.779	-5.623	-7.057	-6.847	-7.265	-7.128	-7.225	-7.164	-7.604	-7.519	-7.137	-7.448	-7.383	-7.326	-7.283	-7.353	-7.276	-7.149	-7.030	-7.238	-6.852	-6.353	-7.027	-7.690	-8.185	-8.208	-7.860	-7.488
320.0	-567.6	-312.0	-174.2	-192.9	-196.3	-149.4	-105.0	-29.00	41.91	118.7	238.7	333.2	384.6	521.8	644.7	244.0	116.3	237.2	560.4	 3284	9999.9	 2193	114.1	-15.16	-16.30	-16.53	-16.35	-15.83	-16.50	-14.55	-14.55	-14.19	-12.81	-12.26	-11.70	-10.28	-10.20	-10.32	-9.502	-9.696	-9.528	-9.464	-9.220	-8.823	-8.369	-7.756	-7.216	-7.058	-6.555	-5.540	-5.820	-6.881	-6.696	-6.969	-7.179	-7.117	-7.426	-7.432	-7.199	-7.057	-7.238	-7.316	-7.362	-7.116	-7.288	-7.349	-7.245	-7.087	-7.264	-7.061	-6.911	-6.235	-7.220	-7.500	-7.669	-8.418	-8.727
325.0	-510.0	-271.3	-97.20	-162.7	-172.1	-134.1	-85.10	-29.82	53.88	156.4	255.4	340.1	384.9	405.3	549.5	447.5	120.3	80.80	136.8	763.5	 4566	 9623	 1850	50.53	-15.21	-14.67	-15.21	-16.45	-15.08	-15.72	-14.65	-14.29	-13.08	-12.65	-11.40	-10.64	-10.32	-10.27	-9.687	-9.843	-9.201	-9.134	-9.279	-8.670	-8.147	-7.849	-7.155	-6.958	-6.373	-5.747	-5.686	-6.740	-6.805	-6.902	-6.766	-7.220	-7.553	-7.599	-7.655	-7.112	-7.403	-7.312	-6.752	-7.252	-7.239	-7.211	-7.259	-7.185	-7.301	-7.129	-7.246	-6.815	-6.590	-6.628	-7.585	-8.470	-8.523
330.0	-501.5	-247.0	-97.21	-135.5	-159.0	-114.8	-61.36	-14.98	73.71	185.0	262.8	353.8	383.6	377.5	366.8	420.5	325.4	110.5	53.57	181.7	 1072	 4147	 7530	 4637	100.7	-10.72	-14.34	-15.09	-15.42	-15.09	-14.29	-14.13	-13.03	-12.18	-11.46	-10.57	-10.28	-9.892	-9.753	-9.843	-9.209	-9.080	-9.316	-8.750	-8.324	-7.990	-6.937	-7.100	-6.549	-5.575	-5.690	-6.823	-6.915	-6.997	-6.828	-6.942	-7.298	-7.574	-7.412	-7.024	-7.322	-7.376	-6.997	-7.197	-7.122	-7.229	-7.128	-7.182	-7.211	-7.153	-7.359	-7.265	-7.129	-7.152	-7.333	-7.591	-8.130
335.0	-472.3	-253.5	-72.76	-108.0	-125.3	-90.77	-27.85	17.88	90.79	184.1	268.7	344.4	372.2	367.1	318.1	276.2	351.1	296.7	77.63	62.15	253.1	934.1	 2332	 8213	 6627	152.5	-11.66	-12.93	-14.41	-14.79	-14.49	-13.81	-12.91	-12.09	-11.49	-10.09	-9.963	-10.06	-9.445	-9.598	-9.064	-9.093	-9.269	-8.761	-8.145	-8.008	-7.032	-7.259	-6.494	-5.558	-5.759	-6.974	-6.746	-7.211	-7.137	-7.035	-7.442	-7.453	-7.537	-7.216	-7.375	-7.287	-7.045	-7.315	-7.155	-6.880	-7.055	-6.887	-7.044	-7.480	-7.548	-7.396	-7.441	-7.276	-7.630	-7.566	-7.451
340.0	-440.4	-239.7	-84.99	-78.51	-85.91	-59.52	-36.93	44.98	105.0	178.7	276.3	335.3	372.6	370.9	307.9	245.9	237.9	353.4	200.7	55.66	78.85	225.4	534.7	 3212	 9816	 5232	100.6	-11.45	-13.71	-13.83	-13.40	-13.31	-12.86	-12.23	-10.98	-10.07	-9.885	-10.21	-9.751	-9.691	-9.348	-9.144	-9.023	-8.712	-8.064	-7.909	-7.062	-7.014	-6.226	-5.702	-5.552	-6.802	-6.645	-7.073	-6.904	-7.200	-7.216	-7.455	-7.314	-7.198	-7.364	-7.220	-7.179	-7.247	-7.045	-6.787	-7.075	-7.091	-6.996	-7.398	-7.333	-7.522	-7.519	-7.404	-7.805	-7.945	-7.909
345.0	-497.7	-189.9	-71.55	-16.41	-28.02	-40.92	11.36	42.88	95.35	171.5	275.6	327.2	368.5	363.5	311.7	243.8	185.9	255.4	317.8	109.7	53.10	72.92	133.5	758.9	 4645	9999.9	 1500	46.83	-12.20	-12.51	-12.95	-13.48	-12.56	-11.87	-11.35	-9.885	-10.04	-10.12	-9.704	-9.616	-9.136	-9.322	-8.908	-8.956	-8.081	-7.960	-6.836	-6.922	-6.080	-5.485	-5.606	-6.825	-6.844	-6.815	-6.682	-7.309	-7.191	-7.263	-7.333	-7.214	-7.184	-7.232	-7.107	-7.091	-7.018	-7.104	-7.108	-7.200	-6.874	-7.409	-7.357	-7.391	-7.577	-7.404	-7.908	-8.330	-8.141
350.0	-479.8	-214.3	-89.31	-43.62	-31.16	-0.168	28.10	76.29	115.8	179.5	259.9	313.6	345.0	346.9	316.6	243.7	185.8	175.6	250.9	256.2	119.6	56.94	57.59	188.3	 1106	 4494	 7449	 4317	84.75	-9.541	-12.68	-12.27	-11.68	-11.48	-10.73	-10.18	-9.922	-9.696	-9.634	-9.328	-9.213	-9.234	-9.002	-8.628	-8.208	-7.918	-6.893	-6.897	-6.043	-5.436	-5.372	-6.588	-6.634	-6.925	-6.693	-7.235	-7.100	-7.035	-7.252	-7.148	-6.941	-7.215	-6.911	-7.124	-7.199	-7.150	-7.065	-7.313	-7.103	-7.175	-7.390	-7.324	-7.542	-7.659	-7.895	-8.219	-8.363
355.0	-548.3	-244.4	-143.8	-48.37	-2.994	23.91	40.86	93.47	119.5	176.9	251.9	290.9	318.0	319.4	296.2	249.7	195.3	162.2	176.8	228.4	257.5	105.4	55.87	73.12	269.2	 1018	 2480	 8097	 5973	124.1	-9.677	-11.55	-11.41	-11.33	-10.62	-10.02	-9.981	-9.831	-9.424	-9.332	-9.086	-9.430	-8.864	-8.638	-7.993	-7.888	-6.850	-6.977	-6.307	-5.400	-5.356	-6.706	-6.618	-6.915	-6.797	-6.845	-7.199	-7.060	-7.158	-7.002	-7.342	-7.217	-7.312	-7.190	-7.125	-7.227	-7.039	-7.430	-6.884	-7.301	-7.364	-7.356	-7.571	-7.654	-7.824	-8.095	-8.182
360.0	-568.4	-262.0	-113.6	-31.55	-10.90	48.66	67.74	102.9	124.9	173.1	230.9	282.8	313.5	312.5	301.5	253.4	209.4	182.0	162.5	175.5	276.5	212.5	78.35	60.81	91.49	249.2	576.2	 3408	 9525	 4341	78.62	-10.11	-9.819	-10.72	-10.31	-9.816	-9.527	-9.713	-9.158	-9.267	-9.133	-8.960	-8.894	-8.609	-7.876	-8.085	-7.020	-6.921	-6.159	-5.456	-5.416	-6.770	-6.573	-6.719	-6.754	-7.033	-7.042	-7.219	-7.098	-7.327	-7.347	-7.252	-7.003	-7.145	-7.189	-7.344	-7.271	-7.138	-7.139	-7.540	-7.669	-7.298	-7.211	-7.652	-7.593	-8.012	-8.372
365.0	-527.4	-328.6	-107.1	-36.01	13.53	71.44	95.47	117.2	144.5	169.6	234.3	277.7	294.8	309.8	290.2	264.2	221.4	195.7	170.2	162.1	212.4	275.4	147.2	75.15	66.06	87.01	150.3	815.7	 4809	 9744	 1302	31.92	-8.896	-10.15	-9.773	-8.935	-9.878	-9.373	-9.125	-9.242	-9.021	-9.005	-8.783	-8.748	-7.926	-7.847	-6.822	-6.984	-6.418	-5.566	-5.400	-6.603	-6.735	-6.517	-6.676	-7.133	-7.236	-7.268	-7.117	-7.401	-7.328	-7.022	-7.218	-7.132	-7.164	-7.450	-7.426	-6.917	-7.232	-7.512	-7.629	-7.321	-7.502	-7.883	-7.608	-7.910	-7.847
370.0	-538.7	-318.2	-129.9	-33.92	14.45	80.07	113.5	131.1	164.5	174.7	228.2	268.7	288.4	297.0	281.2	261.9	229.2	213.6	195.3	174.9	176.3	228.4	252.4	147.8	80.20	66.64	68.68	203.0	 1159	 4590	 7437	 3972	65.63	-6.899	-8.914	-8.696	-9.444	-9.434	-9.505	-9.429	-8.887	-8.940	-8.914	-8.333	-7.957	-7.869	-7.089	-6.867	-6.346	-5.514	-5.322	-6.620	-6.584	-6.553	-6.798	-7.002	-6.981	-7.068	-7.139	-7.224	-7.077	-7.286	-7.019	-6.968	-7.259	-7.413	-7.094	-7.113	-7.219	-7.395	-7.410	-7.433	-7.273	-7.513	-7.664	-7.950	-7.846
375.0	-524.6	-323.4	-190.7	-7.416	43.63	78.72	120.6	134.5	174.9	180.0	223.1	244.9	273.3	288.3	279.2	268.4	243.1	233.3	216.8	198.8	182.0	190.5	224.5	253.6	137.2	78.93	61.78	79.08	279.6	 1037	 2646	 8306	 5128	92.49	-7.439	-8.091	-8.992	-8.760	-8.950	-8.898	-8.538	-8.886	-8.890	-8.283	-7.943	-7.947	-7.076	-6.887	-6.391	-5.605	-5.347	-6.747	-6.533	-6.597	-6.438	-6.776	-6.638	-7.233	-7.031	-7.151	-7.024	-6.901	-7.052	-7.110	-7.298	-7.097	-6.956	-7.397	-7.337	-7.566	-7.436	-7.453	-7.088	-7.496	-7.770	-7.733	-7.856
380.0	-513.4	-313.1	-150.4	-16.54	24.59	87.77	117.7	167.8	189.8	189.5	211.1	249.2	255.3	273.0	273.3	269.5	251.6	243.9	225.4	219.2	200.3	185.3	184.8	255.8	215.4	108.4	71.12	59.38	90.95	247.5	615.3	 3740	 9123	 3442	51.16	-6.855	-7.569	-8.367	-8.729	-8.858	-8.650	-8.895	-8.622	-8.566	-7.761	-7.706	-7.058	-6.499	-6.376	-5.552	-5.533	-6.644	-6.472	-6.839	-6.486	-6.819	-6.901	-7.097	-7.215	-6.854	-7.251	-7.069	-7.326	-7.103	-6.841	-7.300	-7.105	-7.583	-7.227	-7.495	-7.358	-7.409	-7.174	-7.131	-7.696	-7.799	-7.825
385.0	-505.5	-265.2	-144.0	-39.09	7.710	102.7	126.1	155.5	188.6	199.9	223.9	245.0	260.2	287.8	269.9	258.9	249.3	242.1	230.7	227.2	208.8	198.2	186.0	205.4	258.6	170.7	87.99	64.37	57.56	80.05	155.0	907.7	 5118	 8502	963.1	12.76	-7.082	-8.116	-8.312	-8.575	-8.814	-8.907	-8.322	-8.902	-7.826	-7.665	-7.244	-6.707	-6.374	-5.442	-5.216	-6.480	-6.329	-6.687	-6.692	-6.934	-7.029	-7.136	-7.163	-7.021	-7.234	-6.957	-6.965	-6.799	-7.140	-7.517	-7.440	-7.243	-7.370	-7.309	-7.658	-7.377	-7.238	-7.121	-7.828	-7.708	-7.995
390.0	-557.2	-330.8	-107.7	-25.10	41.40	126.2	148.4	160.1	162.2	201.5	217.4	234.2	247.2	258.9	265.9	259.4	247.3	249.9	239.2	228.0	222.2	207.4	196.7	181.4	210.6	231.1	155.2	83.92	65.40	53.88	59.26	217.8	 1261	 4346	 6348	 2930	46.07	-6.995	-7.858	-8.043	-7.927	-8.670	-8.530	-8.432	-7.889	-7.670	-6.877	-6.959	-6.376	-5.394	-5.354	-6.593	-6.367	-6.664	-6.733	-6.766	-6.852	-7.164	-7.127	-7.041	-7.098	-7.279	-7.252	-6.991	-7.286	-7.307	-7.381	-7.429	-7.395	-7.445	-7.455	-7.074	-7.245	-7.236	-7.373	-7.903	-8.034
395.0	-587.9	-351.4	-173.2	-13.08	66.81	119.4	132.9	187.0	174.3	190.7	216.6	247.8	252.9	248.9	257.0	261.5	252.6	257.0	247.2	234.4	230.4	216.6	210.1	188.1	183.2	200.3	227.9	139.4	83.54	63.44	49.12	70.59	294.8	980.9	 2570	 7143	 3765	64.22	-6.544	-7.256	-7.785	-8.072	-8.393	-8.151	-7.739	-7.606	-6.748	-7.083	-6.009	-5.455	-5.334	-6.441	-6.196	-6.710	-6.483	-6.666	-6.987	-7.176	-7.042	-7.196	-7.061	-7.080	-7.372	-7.268	-7.396	-7.376	-7.333	-7.467	-7.453	-7.581	-7.386	-7.115	-7.109	-7.383	-7.405	-7.901	-8.009
400.0	-570.6	-331.4	-164.3	-34.34	78.31	109.3	138.4	171.1	180.5	198.9	224.4	228.5	246.0	249.7	254.1	263.4	251.2	250.1	243.0	241.9	231.1	224.3	212.8	198.5	181.0	176.1	222.5	197.5	111.1	75.28	53.20	47.13	85.10	231.3	603.6	 3601	 7381	920.9	35.21	-6.851	-7.127	-7.702	-8.370	-8.158	-8.049	-7.611	-7.050	-6.608	-6.027	-5.470	-5.498	-6.424	-6.228	-6.668	-6.277	-6.489	-6.917	-7.179	-7.033	-7.050	-7.106	-6.963	-7.378	-7.220	-7.270	-7.265	-7.191	-7.308	-7.403	-7.548	-7.597	-7.491	-7.415	-7.503	-7.563	-7.695	-8.061
405.0	-538.8	-312.6	-184.1	-30.31	47.94	129.7	157.7	158.9	168.7	213.6	217.0	223.7	217.7	240.4	247.6	251.8	248.5	244.6	243.1	240.3	230.1	226.8	217.0	202.4	187.9	174.7	186.8	223.0	157.7	90.70	65.94	49.23	42.39	66.30	143.7	900.1	 4487	 6289	764.6	9.061	-6.659	-7.113	-8.163	-7.953	-7.409	-7.747	-6.729	-6.737	-6.407	-5.224	-5.255	-6.460	-6.407	-6.394	-6.447	-6.958	-6.988	-7.306	-7.053	-6.963	-7.149	-7.130	-7.291	-7.193	-7.243	-7.207	-7.592	-7.109	-7.485	-7.368	-7.363	-7.241	-7.566	-7.365	-7.695	-7.704	-7.960
410.0	-592.3	-342.2	-208.0	-48.54	67.95	120.6	145.7	168.0	188.8	208.2	209.4	221.8	236.7	246.6	249.8	241.0	243.6	237.2	238.3	229.2	228.9	226.2	220.7	209.1	188.7	183.9	172.0	186.9	202.3	141.7	83.10	57.57	43.60	36.80	45.72	209.4	 1127	 3656	 5034	 2102	38.40	-6.513	-7.396	-7.577	-7.422	-7.316	-6.913	-6.577	-6.073	-5.233	-5.233	-6.568	-6.546	-6.416	-6.490	-6.759	-7.097	-7.159	-6.831	-7.105	-7.056	-7.335	-7.258	-7.182	-7.281	-7.440	-7.428	-7.426	-7.309	-7.583	-7.315	-7.566	-7.615	-7.556	-7.577	-7.887	-8.013
415.0	-599.3	-336.5	-217.7	-34.72	19.58	78.64	120.4	149.7	176.0	201.5	218.4	226.5	218.1	236.2	227.9	229.6	227.6	227.6	225.0	221.0	224.1	226.6	213.5	209.6	197.0	186.1	175.1	164.5	177.3	192.2	128.9	72.49	50.42	36.58	28.70	59.75	257.9	822.5	 2126	 5448	 2885	57.01	-6.794	-7.130	-7.225	-7.439	-6.781	-6.318	-6.193	-5.214	-5.303	-6.574	-6.346	-6.820	-6.154	-6.851	-6.887	-6.986	-6.988	-7.084	-6.816	-7.307	-6.863	-7.207	-7.156	-7.283	-7.381	-7.210	-7.328	-7.469	-7.495	-7.715	-7.624	-7.473	-7.863	-8.075	-7.858
420.0	-597.1	-350.2	-229.3	-47.65	30.11	73.40	126.4	151.0	179.3	211.6	220.2	212.0	237.3	233.0	233.9	224.1	214.7	221.7	219.5	218.6	212.7	218.9	208.1	204.6	195.3	191.7	176.9	162.5	160.7	183.3	168.8	92.46	58.21	43.48	29.05	29.19	64.66	188.7	503.0	 2789	 5701	821.9	23.12	-6.615	-7.145	-6.917	-5.928	-6.666	-6.098	-5.554	-5.488	-6.270	-6.396	-6.658	-6.502	-6.798	-6.628	-7.299	-7.169	-7.153	-6.954	-7.335	-7.137	-7.467	-7.295	-7.153	-7.373	-7.379	-7.528	-7.653	-7.655	-7.518	-7.676	-7.417	-7.896	-7.827	-7.928
425.0	-575.7	-395.8	-255.3	-56.01	7.348	52.89	113.7	178.1	174.8	204.1	207.2	207.6	219.8	232.2	230.5	212.1	217.7	209.0	210.9	209.9	211.0	210.8	208.9	203.2	197.7	189.1	177.6	164.4	153.6	156.5	183.5	126.2	71.41	47.43	34.41	24.41	26.75	48.39	116.4	696.8	 3499	 4790	643.0	0.959	-6.336	-6.701	-6.336	-6.486	-6.048	-5.370	-5.303	-6.432	-6.098	-6.753	-6.611	-6.816	-6.964	-7.174	-7.160	-7.000	-6.837	-7.027	-7.402	-7.495	-7.277	-7.173	-7.204	-7.399	-7.637	-7.631	-7.641	-7.567	-7.454	-7.692	-7.721	-7.585	-8.205
430.0	-337.5	-392.9	-227.4	-77.30	-11.88	51.34	93.61	142.8	196.3	189.0	213.0	204.1	214.9	222.6	208.7	201.4	205.7	202.5	198.3	201.8	202.5	205.3	198.7	200.9	193.3	190.0	179.1	167.8	156.9	147.3	152.3	154.5	104.5	60.05	42.99	29.69	22.51	20.73	32.39	158.4	877.5	 2719	 3946	 1568	31.37	-5.827	-5.808	-6.214	-5.909	-5.271	-5.422	-6.300	-6.431	-6.696	-6.575	-6.867	-6.864	-7.252	-6.996	-7.043	-7.132	-6.957	-7.272	-7.290	-7.119	-7.320	-7.397	-7.226	-7.555	-7.401	-7.586	-7.753	-7.807	-7.549	-7.857	-7.879	-8.043
435.0	474.7	-306.4	-233.2	-88.79	17.01	69.63	106.0	155.5	185.1	195.5	208.6	222.2	208.5	208.2	198.7	197.1	196.9	188.3	189.2	193.5	193.9	196.3	195.5	191.2	186.4	186.6	181.1	168.7	159.0	148.7	139.5	140.1	138.1	87.31	50.71	37.42	26.66	18.87	16.54	39.78	198.4	610.4	 1744	 4646	 2309	42.80	-4.999	-5.524	-5.837	-4.931	-5.349	-6.666	-6.295	-6.319	-6.646	-6.863	-6.888	-7.113	-6.814	-7.148	-7.026	-7.290	-7.137	-7.112	-7.431	-7.335	-7.266	-7.472	-7.449	-7.599	-7.540	-7.575	-7.606	-7.153	-7.848	-7.917	-7.997
440.0	 1004	47.42	-232.2	-118.5	2.619	72.35	95.36	149.1	171.2	189.8	209.4	207.1	220.9	206.2	179.0	195.6	186.7	183.3	184.3	180.6	179.4	187.4	188.8	180.9	185.7	179.1	177.9	171.9	158.1	147.8	132.4	125.4	133.8	115.1	66.81	43.48	30.64	21.40	15.16	16.29	48.25	138.6	413.1	 2576	 4897	709.3	16.80	-4.988	-5.409	-4.866	-4.906	-6.252	-6.172	-6.213	-6.458	-6.547	-6.818	-7.183	-6.988	-7.046	-7.144	-7.316	-7.202	-7.383	-7.028	-7.217	-7.703	-7.379	-7.486	-7.467	-7.529	-7.763	-7.491	-7.601	-7.802	-7.940	-8.384
445.0	722.7	772.0	-227.9	-113.7	-21.05	57.54	92.19	144.6	171.4	188.1	205.9	209.1	204.9	198.8	187.5	177.3	177.7	174.8	170.0	173.5	168.6	178.3	179.5	174.6	177.7	176.6	175.6	169.1	159.0	147.5	137.1	118.4	113.1	121.3	87.83	48.16	34.42	23.82	17.05	12.55	16.14	33.32	93.72	662.3	 3222	 4381	501.0	0.312	-4.998	-4.652	-4.650	-6.278	-5.949	-6.584	-6.595	-6.605	-6.888	-7.151	-6.852	-7.196	-6.971	-7.040	-7.106	-7.367	-7.310	-7.445	-7.505	-7.530	-7.472	-7.411	-7.585	-7.506	-7.526	-7.345	-7.844	-8.226	-8.260
450.0	-180.7	 1454	290.2	-121.3	-39.12	30.66	88.83	143.8	150.5	173.7	185.2	198.2	188.5	183.3	177.8	163.9	169.8	155.4	160.8	156.8	162.2	164.9	165.1	166.1	163.1	168.7	165.7	160.4	153.1	144.4	133.4	117.6	102.4	103.1	102.1	70.64	41.50	28.18	21.01	15.18	12.13	12.09	22.92	148.3	821.4	 2763	 3850	 1368	24.14	-3.612	-4.441	-5.867	-5.855	-6.681	-6.305	-6.647	-6.920	-7.107	-7.046	-7.094	-6.812	-7.027	-7.073	-7.430	-7.235	-7.302	-7.559	-7.445	-7.519	-7.563	-7.588	-7.508	-7.714	-7.354	-7.830	-8.011	-8.243
455.0	-585.1	816.4	 1434	-20.33	-49.54	11.95	69.30	111.1	142.7	166.8	176.0	185.3	176.8	157.5	157.0	155.7	153.3	149.1	142.9	139.4	146.7	152.5	148.7	155.2	150.3	157.6	151.9	148.6	147.2	142.0	130.7	113.4	97.89	83.68	89.41	91.32	56.46	35.17	24.10	18.05	13.58	10.72	9.098	34.86	182.9	624.2	 1781	 4208	 1815	28.73	-3.640	-5.841	-5.862	-6.217	-6.373	-6.718	-6.975	-6.785	-6.792	-7.187	-6.981	-6.848	-7.259	-7.206	-7.257	-7.341	-7.824	-7.508	-7.579	-7.581	-7.487	-7.536	-7.727	-7.625	-7.827	-8.183	-8.138
460.0	-688.2	-49.09	 1851	347.1	-58.69	-1.385	45.66	101.7	140.1	159.0	168.7	181.2	165.2	158.1	142.0	141.2	139.8	127.9	139.2	129.7	135.7	135.1	142.5	139.9	141.7	144.5	144.0	140.3	136.6	134.6	125.1	110.1	94.26	81.56	75.14	84.72	71.64	41.14	26.21	19.12	13.79	10.08	5.916	10.66	41.21	139.6	427.1	 2426	 4220	498.0	13.74	-5.417	-5.389	-6.297	-6.010	-6.853	-7.125	-7.059	-6.315	-7.149	-6.566	-6.851	-7.367	-7.275	-7.197	-7.192	-7.428	-7.437	-7.721	-7.446	-7.695	-7.686	-7.987	-7.623	-7.891	-8.247	-8.092
465.0	-701.2	-388.4	 1259	 1109	-46.31	-30.07	19.88	76.27	111.5	126.3	155.9	158.4	146.8	147.7	133.5	135.5	128.1	125.0	118.0	122.9	121.5	124.2	128.3	128.8	134.2	135.1	134.4	131.2	129.8	128.2	118.1	106.6	91.33	78.98	69.72	68.60	74.24	51.42	28.01	19.29	14.62	10.16	7.325	5.052	10.87	31.66	95.61	630.8	 2973	 3419	413.9	-2.421	-4.849	-5.877	-5.948	-6.527	-7.010	-6.858	-6.716	-7.418	-6.961	-7.251	-7.200	-7.014	-7.666	-7.434	-7.351	-7.660	-7.626	-7.625	-7.537	-7.345	-8.067	-7.738	-7.914	-8.290	-8.285
470.0	-665.6	-483.1	217.0	 1565	429.2	-40.69	10.40	63.38	102.3	118.5	135.7	139.3	132.1	130.9	118.2	109.7	112.6	108.3	103.1	106.8	107.4	111.8	114.9	116.3	118.0	118.7	116.7	118.6	119.0	114.5	109.5	97.23	85.83	72.07	62.65	56.12	58.15	58.13	39.42	23.09	15.75	11.46	7.064	4.969	4.239	7.714	21.52	140.3	762.6	 2244	 2737	999.7	20.18	-5.415	-5.894	-5.976	-6.798	-6.878	-6.911	-6.947	-7.159	-7.188	-7.336	-7.152	-7.351	-7.437	-7.212	-7.639	-7.715	-7.830	-7.480	-7.641	-7.775	-7.810	-8.079	-8.177	-8.557
475.0	-642.0	-496.9	-216.1	761.6	 1478	33.25	-13.02	36.81	70.20	96.41	124.3	109.7	124.0	108.0	100.6	93.33	93.14	96.07	90.35	93.26	91.66	92.94	98.60	100.1	102.6	106.1	106.1	106.4	105.1	102.3	96.92	88.28	79.40	68.46	57.53	49.03	46.32	46.54	49.41	31.42	17.63	10.86	8.462	6.647	4.147	2.869	5.557	30.62	169.4	504.4	 1230	 2890	581.1	25.57	-5.546	-5.956	-6.846	-6.765	-7.245	-7.134	-7.173	-7.384	-7.388	-7.447	-7.475	-7.566	-7.623	-7.632	-7.675	-7.851	-7.699	-7.803	-7.929	-7.898	-8.218	-8.189	-8.415
480.0	-692.3	-483.4	-311.7	88.12	 1726	458.7	-31.19	13.35	43.12	78.50	94.80	99.00	100.8	96.70	91.15	90.36	87.19	84.67	81.34	84.43	84.19	87.20	88.68	90.13	95.67	92.90	96.04	96.53	95.50	97.16	93.70	81.53	72.69	64.15	56.93	47.30	40.87	37.98	45.38	40.91	21.44	12.41	9.396	6.011	3.853	2.108	2.695	6.691	36.47	111.5	292.3	 1632	 2733	517.3	4.935	-6.051	-6.496	-6.733	-7.176	-6.839	-7.017	-7.080	-7.614	-7.675	-7.463	-7.687	-7.681	-7.412	-7.594	-7.832	-7.877	-7.875	-8.096	-7.675	-8.074	-8.445	-8.437
485.0	-759.1	-483.6	-354.6	-185.9	 1152	 1299	-27.46	14.57	36.12	62.66	104.9	83.51	89.40	85.53	76.38	81.20	82.45	73.53	70.03	72.16	75.28	81.50	80.35	82.21	85.10	87.03	87.82	88.55	90.14	91.13	86.43	79.19	69.62	62.56	54.53	47.51	39.83	34.74	35.98	40.45	28.03	13.79	9.064	6.031	3.897	2.644	2.286	2.323	7.894	25.01	64.51	423.4	 1991	 2481	73.19	-2.960	-6.384	-6.664	-6.895	-6.788	-7.186	-7.118	-7.529	-7.384	-7.560	-7.756	-7.436	-7.745	-7.497	-7.990	-7.792	-7.937	-8.060	-7.918	-8.203	-8.422	-8.396
490.0	-773.6	-523.4	-371.1	-245.3	254.7	 1650	557.2	-0.042	22.94	43.99	66.64	76.59	72.89	72.53	71.86	67.56	68.03	64.80	63.20	65.07	66.95	69.24	71.74	73.31	76.05	77.65	80.82	81.19	80.62	82.57	78.81	71.71	63.92	55.85	51.15	43.71	37.43	30.94	29.20	31.39	33.70	21.76	10.13	7.653	4.985	3.088	2.480	1.507	1.844	5.609	13.71	92.32	509.2	 1549	 2106	875.6	19.84	-6.099	-6.771	-6.806	-6.877	-7.280	-7.368	-7.517	-7.528	-7.519	-7.321	-7.738	-7.828	-8.042	-7.923	-7.801	-8.007	-8.147	-8.105	-8.364	-8.645
495.0	-730.8	-536.7	-375.0	-301.0	-97.51	819.1	 1629	78.90	5.933	26.37	55.50	50.00	64.53	64.90	63.91	55.94	51.65	51.02	56.46	56.31	55.65	60.27	61.64	63.37	67.60	66.25	67.68	69.99	68.25	71.69	66.21	62.89	58.50	52.01	44.87	40.24	33.62	27.71	25.64	24.61	26.44	27.47	16.66	8.184	5.104	3.487	2.644	2.341	0.967	2.063	2.368	18.76	110.7	346.1	 1009	 2623	627.0	24.45	-6.380	-6.763	-7.066	-7.035	-7.286	-7.414	-7.604	-7.531	-7.431	-7.771	-7.968	-7.801	-7.860	-7.914	-8.046	-8.105	-7.953	-8.294	-8.755
500.0	-789.1	-596.2	-379.8	-282.5	-184.6	165.2	 1855	578.9	2.415	23.30	31.86	39.24	50.06	46.35	51.16	48.79	47.68	42.96	45.47	47.62	49.99	53.13	52.15	54.00	56.80	57.51	61.80	61.23	61.97	61.04	60.75	58.98	52.15	45.93	42.26	37.42	32.75	26.41	25.63	20.37	19.90	26.68	20.93	10.83	5.744	4.001	3.130	2.055	0.666	1.374	-0.083	2.034	22.06	74.12	238.6	 1447	 2626	522.1	5.642	-6.454	-6.814	-7.237	-7.154	-7.417	-7.535	-7.737	-7.714	-7.745	-7.734	-7.989	-8.068	-7.884	-8.080	-8.145	-8.241	-8.446	-8.817
505.0	-776.5	-613.0	-387.5	-272.5	-201.7	-67.96	 1165	 1433	17.80	-7.434	7.195	41.10	32.82	35.68	41.16	42.78	40.85	39.50	38.98	40.74	44.67	45.66	43.21	48.38	48.88	51.17	53.64	52.69	55.56	56.27	55.95	53.65	47.80	42.54	37.43	34.56	28.69	24.41	21.74	19.42	16.16	18.89	22.70	14.78	7.414	3.871	3.338	2.402	1.209	0.744	-0.377	-2.066	2.564	13.49	50.41	365.7	 1851	 2399	78.69	-4.123	-6.514	-7.008	-6.979	-7.609	-7.341	-7.867	-7.739	-7.753	-7.803	-7.886	-8.144	-7.710	-8.021	-7.721	-8.193	-8.646	-8.850
510.0	-800.6	-618.3	-457.8	-273.6	-202.9	-155.8	279.8	 1753	710.4	-17.31	-2.192	26.02	17.66	24.29	28.64	32.04	30.51	30.50	32.68	30.18	32.32	38.90	38.03	40.69	39.15	43.40	44.31	45.46	46.43	47.22	45.94	44.74	40.60	36.39	33.33	29.61	25.71	22.11	18.08	16.77	13.52	12.87	15.73	16.72	11.08	4.505	3.237	1.968	1.167	0.597	-0.307	-2.413	-1.658	-0.339	7.794	78.23	470.2	 1466	 1877	359.1	18.55	-6.667	-7.087	-7.431	-7.208	-7.588	-7.755	-7.813	-7.848	-8.085	-7.986	-7.969	-8.031	-8.076	-8.248	-8.716	-8.544
515.0	-801.1	-614.7	-461.8	-298.0	-182.6	-184.3	-41.23	749.4	 1942	140.5	-15.42	5.623	0.916	17.83	16.20	19.31	25.24	21.59	22.81	22.61	24.69	30.46	30.23	31.51	34.47	35.34	35.98	38.10	39.31	40.02	38.12	35.69	34.52	30.29	27.31	25.59	20.68	17.78	15.85	14.35	11.98	10.02	10.31	13.29	14.38	8.133	3.490	1.619	0.900	1.015	-0.584	-2.559	-2.331	-3.345	-1.692	13.86	100.4	325.9	843.8	 2030	595.8	18.76	-7.043	-7.297	-7.243	-7.570	-7.679	-7.788	-7.791	-7.772	-8.017	-8.028	-8.092	-8.158	-8.507	-8.667	-8.664
520.0	-846.1	-654.6	-468.8	-332.8	-191.3	-192.5	-121.8	152.7	 1914	818.6	-17.97	-7.425	-7.088	5.036	10.28	8.966	19.98	14.86	21.12	19.70	17.93	27.21	23.02	24.08	27.23	28.75	31.56	33.91	33.01	33.08	32.14	32.64	26.38	26.59	23.73	21.33	18.64	16.25	14.52	11.48	10.23	8.968	6.380	7.985	13.00	10.86	4.534	1.954	0.985	0.425	-0.728	-2.975	-2.846	-4.289	-4.082	-0.357	18.36	68.54	196.4	 1134	 1981	452.9	0.457	-6.845	-7.469	-7.646	-7.369	-7.791	-7.920	-8.043	-8.036	-8.069	-8.180	-8.248	-8.357	-8.437	-8.794
525.0	-829.7	-630.7	-484.6	-355.2	-215.7	-167.1	-148.7	-53.13	 1109	 1686	27.36	-13.69	-16.15	0.165	0.550	7.866	11.84	7.696	12.58	14.12	15.12	17.55	20.08	18.77	22.91	23.70	25.25	26.17	23.48	27.63	28.11	27.60	24.08	23.07	21.21	19.78	16.57	14.46	11.57	9.511	9.360	7.695	5.236	4.939	8.625	10.74	6.659	1.380	0.310	0.333	-0.606	-2.636	-3.006	-4.299	-4.441	-3.852	-0.344	10.79	39.72	283.2	 1338	 1714	74.91	-5.545	-7.389	-7.483	-7.620	-7.635	-8.004	-8.302	-8.005	-8.259	-8.230	-8.229	-8.287	-8.538	-8.811
530.0	-824.4	-624.9	-506.6	-363.9	-253.5	-140.8	-158.2	-107.5	245.6	 1798	872.8	-24.32	-19.44	-14.02	-9.110	-4.153	3.845	3.824	3.876	7.299	9.405	12.48	13.26	14.72	15.44	17.53	20.03	20.44	19.42	22.10	23.68	22.48	19.93	19.56	16.49	16.56	12.96	11.47	9.842	8.299	7.099	6.163	4.100	2.488	3.775	6.543	8.920	4.090	0.459	-0.095	-1.045	-2.870	-3.545	-4.223	-4.274	-4.637	-4.323	-2.058	4.107	58.55	333.2	 1009	 1284	347.5	13.44	-7.181	-7.692	-7.786	-8.002	-8.146	-8.060	-8.235	-8.223	-8.353	-8.431	-8.544	-8.881
535.0	-873.9	-692.7	-479.0	-371.9	-288.6	-152.9	-134.5	-129.4	-31.12	653.9	 2242	167.7	-32.71	-25.21	-16.17	-8.460	-6.262	-2.220	1.365	1.997	4.243	7.624	7.558	7.570	10.63	12.89	14.56	14.32	15.54	17.65	16.63	16.29	15.86	14.23	12.19	10.54	10.25	7.559	6.473	4.316	5.232	3.678	2.211	1.269	1.538	2.126	5.800	6.813	1.971	-0.523	-1.210	-3.558	-3.797	-4.498	-4.196	-5.232	-5.223	-5.288	-3.895	8.272	69.66	221.4	559.9	 1416	523.0	10.77	-7.534	-7.649	-7.875	-8.120	-8.114	-8.235	-8.123	-8.035	-8.205	-8.960	-8.860
540.0	-860.5	-661.4	-502.1	-383.4	-293.7	-184.8	-122.2	-143.6	-86.61	87.09	 2032	907.1	-33.27	-27.26	-22.17	-16.58	-6.672	-5.570	-4.740	0.149	1.405	2.114	4.150	5.942	7.253	8.637	10.70	10.61	12.36	12.67	11.49	11.71	11.17	9.974	9.055	8.544	7.926	7.394	4.589	3.629	4.082	2.557	1.095	0.017	0.302	0.221	3.007	5.527	3.488	0.030	-1.420	-3.434	-3.634	-4.666	-4.303	-5.203	-5.516	-5.833	-5.515	-3.201	10.80	44.07	127.2	754.7	 1387	81.91	-2.635	-7.792	-8.002	-8.193	-8.033	-8.281	-8.100	-8.297	-8.374	-8.855	-8.667
545.0	-876.5	-675.8	-517.9	-381.1	-301.8	-226.9	-121.5	-136.6	-115.8	-62.22	997.3	 1905	22.30	-37.34	-26.31	-22.52	-14.55	-9.692	-8.607	-5.556	-1.383	-0.590	0.199	1.393	3.521	5.879	6.454	7.959	9.815	9.564	9.905	8.853	9.692	7.955	8.002	5.888	5.759	4.848	2.138	3.299	1.924	1.614	0.222	-0.643	-0.638	-0.829	0.175	2.603	4.103	0.993	-1.634	-3.587	-4.179	-4.638	-4.915	-5.316	-5.647	-5.498	-5.778	-5.738	-2.647	4.739	23.26	186.9	929.7	 1126	66.95	-6.923	-7.696	-7.973	-7.999	-8.278	-8.018	-8.250	-8.425	-8.764	-8.944
550.0	-837.0	-682.0	-529.5	-386.6	-308.3	-243.3	-146.6	-115.2	-130.4	-99.25	200.7	 1735	741.8	-37.50	-31.26	-27.17	-20.95	-14.53	-12.70	-9.453	-6.631	-5.875	-3.496	-1.740	-0.283	2.544	2.459	3.744	4.273	6.401	5.765	5.144	5.260	4.448	5.298	3.644	2.694	2.470	1.103	1.069	0.199	-0.307	-0.797	-1.464	-1.707	-2.117	-0.833	-0.825	1.674	2.477	-0.618	-4.041	-4.417	-5.276	-5.003	-5.706	-5.746	-5.903	-6.268	-6.256	-6.044	-4.120	-0.069	36.41	230.0	695.8	779.4	284.2	5.528	-7.749	-8.070	-8.236	-8.139	-8.322	-8.519	-8.844	-8.919
555.0	-826.0	-693.1	-528.0	-409.8	-308.8	-248.3	-182.4	-109.4	-120.9	-114.8	-32.87	568.2	 1890	177.4	-35.98	-34.14	-26.65	-19.45	-13.16	-12.05	-10.06	-8.724	-7.517	-6.039	-3.534	-2.721	-3.023	0.469	-0.457	0.254	0.628	1.929	2.428	0.895	1.407	1.674	0.191	-0.389	-0.810	-1.801	-1.475	-2.002	-2.522	-2.901	-2.846	-3.370	-2.678	-2.672	-0.868	0.835	0.534	-3.564	-4.633	-5.568	-5.148	-5.962	-6.429	-6.330	-6.018	-6.647	-6.651	-6.263	-5.506	2.487	45.53	150.8	380.6	928.7	341.7	-0.521	-7.983	-8.122	-8.231	-8.281	-8.532	-8.691	-8.719
560.0	-888.3	-675.1	-524.0	-412.3	-321.9	-253.9	-204.5	-126.7	-117.2	-120.2	-90.35	82.72	 1653	761.4	-38.49	-33.42	-27.44	-21.59	-16.31	-16.23	-12.16	-10.32	-9.720	-8.536	-6.534	-6.127	-5.053	-2.708	-1.923	-2.686	-1.179	-2.092	0.376	-1.269	-0.482	-0.480	-1.130	-1.937	-2.123	-2.215	-2.071	-3.078	-3.328	-3.669	-3.845	-3.963	-3.645	-3.901	-2.958	-0.978	-0.005	-2.939	-4.740	-5.859	-5.656	-5.819	-6.350	-6.395	-6.148	-6.490	-6.861	-6.980	-6.788	-4.912	4.579	28.21	85.81	519.3	845.9	73.57	-6.420	-8.196	-8.045	-8.244	-8.751	-8.817	-8.875
565.0	-831.7	-693.4	-525.4	-403.4	-327.3	-254.7	-220.7	-144.4	-88.54	-128.3	-102.1	-48.72	779.5	 1690	17.46	-36.52	-31.73	-25.20	-20.47	-16.64	-14.15	-12.11	-12.69	-9.853	-8.438	-5.959	-6.735	-5.384	-4.684	-4.344	-3.730	-3.175	-2.922	-3.644	-1.877	-2.535	-3.445	-3.436	-3.453	-3.589	-3.811	-4.348	-4.420	-4.921	-4.021	-4.434	-4.182	-4.195	-3.768	-3.072	-1.670	-2.661	-4.468	-5.705	-5.885	-6.064	-6.404	-6.571	-6.712	-6.532	-6.767	-7.113	-6.976	-6.715	-4.622	0.801	13.38	129.7	605.3	631.1	50.03	-7.911	-8.017	-8.258	-8.659	-8.806	-8.840
570.0	-858.6	-699.8	-519.6	-404.2	-321.9	-267.5	-226.9	-176.4	-94.71	-103.1	-110.0	-85.74	150.8	 1474	763.4	-34.25	-33.02	-28.64	-24.28	-20.19	-18.07	-15.46	-14.53	-12.75	-11.53	-8.881	-9.031	-8.688	-7.629	-7.429	-6.555	-5.448	-5.388	-5.002	-4.607	-3.942	-4.195	-4.492	-4.698	-4.574	-5.173	-5.431	-5.348	-5.972	-5.381	-5.216	-4.688	-4.766	-4.623	-3.671	-3.353	-3.248	-4.223	-5.297	-5.992	-6.401	-6.781	-6.882	-6.888	-6.819	-6.782	-7.091	-7.136	-7.063	-6.695	-5.537	-2.734	23.32	151.8	423.0	489.1	153.9	-2.415	-8.212	-8.380	-8.730	-8.991
575.0	-834.7	-652.4	-561.1	-401.6	-331.7	-272.3	-233.4	-196.7	-129.5	-77.82	-104.6	-92.24	-21.17	460.7	 1583	151.5	-34.35	-30.10	-27.22	-22.66	-19.70	-17.01	-16.14	-13.05	-13.43	-11.90	-10.97	-10.19	-10.35	-9.092	-8.888	-7.623	-6.429	-6.779	-6.170	-5.375	-5.721	-5.296	-6.035	-5.711	-6.367	-6.477	-5.686	-6.430	-6.603	-6.226	-5.111	-5.519	-4.776	-4.237	-4.491	-5.218	-4.088	-4.516	-5.905	-6.461	-6.818	-7.050	-7.103	-6.953	-6.984	-7.190	-7.204	-7.340	-7.287	-6.996	-6.424	-0.734	27.61	89.45	241.6	528.2	77.21	-5.367	-8.297	-8.681	-8.957
580.0	-889.2	-695.3	-526.1	-419.6	-316.8	-274.7	-225.6	-195.8	-152.9	-79.66	-101.2	-92.70	-59.09	69.63	 1316	570.5	-36.22	-31.62	-29.44	-23.99	-21.20	-20.23	-16.90	-14.69	-14.49	-12.68	-11.34	-10.86	-11.35	-10.18	-9.742	-8.955	-7.945	-8.424	-7.186	-6.344	-6.837	-6.536	-6.936	-6.815	-6.650	-6.510	-6.051	-6.944	-6.911	-6.227	-5.398	-5.899	-5.363	-4.466	-4.566	-5.924	-4.866	-5.020	-5.793	-6.549	-7.268	-7.058	-7.237	-7.147	-7.321	-7.354	-7.100	-7.359	-7.535	-7.509	-7.130	-6.159	0.344	13.98	53.18	315.0	452.8	57.53	-7.667	-8.633	-9.098
585.0	-870.8	-684.3	-514.7	-402.6	-329.4	-274.8	-227.9	-199.3	-160.7	-103.3	-77.58	-95.20	-73.60	-31.43	606.4	 1351	16.43	-33.31	-29.21	-25.25	-22.77	-20.70	-17.14	-16.39	-15.38	-12.68	-12.31	-12.27	-12.39	-11.50	-9.914	-10.38	-9.426	-9.171	-7.514	-7.302	-7.309	-7.447	-7.590	-6.861	-7.189	-6.701	-7.132	-7.270	-6.994	-6.926	-5.972	-6.230	-5.504	-4.724	-4.927	-6.208	-5.416	-5.417	-5.283	-6.069	-7.126	-7.210	-7.261	-7.116	-6.809	-7.306	-7.541	-7.415	-7.293	-7.608	-7.600	-7.349	-5.574	-2.957	5.587	78.68	356.5	358.4	33.37	-8.421	-8.877
590.0	-873.5	-691.5	-531.9	-415.4	-333.8	-271.1	-232.8	-197.9	-163.4	-125.0	-62.69	-88.74	-74.00	-53.22	115.8	 1120	587.3	-29.70	-29.03	-27.55	-23.59	-21.26	-19.68	-17.18	-16.39	-14.68	-13.83	-13.29	-13.03	-12.59	-11.40	-11.15	-10.11	-9.653	-8.673	-8.228	-7.616	-7.931	-7.644	-7.943	-7.711	-7.758	-8.012	-7.709	-7.657	-7.217	-6.033	-6.530	-5.722	-5.130	-5.239	-6.500	-6.207	-6.290	-5.725	-5.987	-7.094	-7.250	-7.217	-7.367	-7.253	-7.510	-7.547	-7.350	-7.467	-7.717	-7.684	-7.746	-7.464	-6.786	-4.964	11.43	88.98	251.9	284.5	44.71	-5.291
595.0	-868.4	-657.9	-530.5	-421.4	-335.7	-267.3	-232.9	-201.0	-173.6	-137.0	-85.75	-67.09	-77.88	-61.99	-15.29	329.2	 1214	89.27	-30.23	-26.48	-24.14	-21.59	-20.02	-18.37	-17.45	-16.15	-15.01	-14.13	-14.14	-13.51	-12.26	-11.18	-11.11	-10.38	-9.725	-9.156	-7.879	-9.032	-8.342	-8.294	-8.277	-8.246	-8.289	-8.264	-7.783	-7.392	-6.449	-6.724	-6.284	-5.214	-5.531	-6.858	-6.580	-7.059	-6.394	-6.293	-6.731	-7.378	-7.232	-7.414	-7.513	-7.683	-7.402	-7.649	-7.553	-7.523	-7.774	-7.922	-7.819	-7.785	-7.521	-3.864	13.24	51.00	147.9	306.5	66.19
600.0	-854.4	-685.9	-543.7	-422.5	-333.4	-278.3	-229.9	-195.7	-170.8	-142.4	-104.2	-53.27	-72.48	-61.47	-43.71	45.11	978.0	387.4	-29.93	-27.27	-24.88	-22.60	-20.68	-18.65	-17.81	-16.30	-15.79	-15.22	-14.59	-14.14	-12.79	-12.19	-10.56	-10.51	-10.07	-9.417	-8.246	-9.233	-8.444	-8.849	-8.575	-8.524	-8.526	-8.482	-8.065	-7.721	-6.655	-6.858	-6.363	-5.420	-5.724	-6.805	-6.541	-7.289	-6.765	-6.669	-6.546	-7.005	-7.496	-7.692	-7.515	-7.540	-7.785	-7.543	-7.816	-7.483	-7.784	-7.554	-8.119	-7.977	-8.046	-7.199	-3.231	4.893	30.42	195.8	264.6
605.0	-827.1	-684.2	-554.5	-406.7	-343.8	-277.5	-221.9	-192.8	-166.7	-142.6	-120.0	-46.09	-68.03	-63.90	-50.75	-25.05	434.9	904.4	3.567	-27.47	-25.83	-22.08	-20.86	-19.68	-18.38	-17.36	-16.31	-16.14	-15.01	-14.53	-13.49	-12.94	-11.69	-10.61	-10.82	-9.647	-9.197	-9.589	-8.682	-8.781	-8.906	-8.445	-8.806	-8.454	-7.999	-7.838	-6.941	-7.416	-6.465	-5.252	-5.590	-7.052	-6.577	-7.354	-7.060	-7.088	-6.641	-6.904	-6.975	-7.671	-7.798	-7.554	-7.869	-7.736	-7.834	-7.769	-7.650	-7.894	-8.003	-8.330	-7.949	-8.001	-7.206	-5.426	0.225	47.68	212.6
610.0	-869.3	-681.8	-560.4	-411.3	-340.4	-275.5	-231.9	-197.2	-172.4	-142.7	-120.0	-68.97	-45.57	-61.52	-53.63	-42.75	82.22	783.1	394.2	-25.87	-25.68	-22.97	-20.77	-20.14	-18.43	-17.29	-16.52	-16.10	-15.31	-14.83	-14.02	-13.49	-12.23	-11.59	-10.94	-9.748	-9.689	-9.850	-9.311	-9.130	-9.097	-8.953	-9.023	-8.475	-8.275	-7.940	-7.117	-7.162	-6.524	-5.692	-5.848	-7.078	-6.864	-7.327	-7.195	-7.391	-7.318	-7.140	-7.244	-7.644	-7.731	-7.706	-7.809	-7.924	-7.994	-7.932	-7.943	-7.811	-8.063	-8.319	-8.134	-8.244	-8.112	-7.663	-6.530	3.989	50.98
615.0	-910.2	-665.4	-549.3	-413.0	-331.9	-275.3	-235.0	-197.3	-169.6	-145.1	-128.7	-88.55	-44.49	-55.99	-55.73	-46.06	-14.21	240.0	838.5	55.08	-26.35	-23.84	-21.77	-20.73	-19.58	-17.95	-17.41	-16.23	-15.44	-15.18	-14.87	-13.78	-12.84	-12.13	-10.75	-10.03	-9.744	-10.18	-9.387	-9.503	-9.200	-9.179	-9.218	-8.688	-8.512	-8.168	-7.339	-7.379	-6.581	-5.830	-5.776	-7.113	-6.917	-7.297	-7.434	-7.591	-7.760	-7.165	-7.391	-7.577	-7.821	-7.629	-7.815	-7.923	-7.874	-7.988	-8.034	-7.743	-7.929	-8.077	-8.088	-8.180	-8.232	-8.145	-7.875	-5.893	4.217
620.0	-881.8	-717.6	-550.2	-430.2	-340.5	-281.3	-233.1	-194.0	-166.3	-144.8	-127.6	-98.23	-59.27	-41.51	-55.48	-47.96	-36.37	33.02	710.3	293.7	-25.36	-23.75	-22.14	-20.87	-19.09	-18.16	-17.48	-16.73	-15.90	-15.29	-15.15	-14.13	-12.95	-12.48	-11.02	-10.67	-10.21	-10.11	-9.546	-9.489	-9.466	-9.150	-9.364	-8.768	-8.748	-8.566	-7.328	-7.387	-6.647	-5.821	-6.078	-7.188	-6.941	-7.359	-7.235	-7.538	-7.753	-7.675	-7.254	-7.347	-7.714	-7.753	-7.932	-7.995	-7.898	-7.823	-8.060	-8.148	-8.063	-8.184	-8.210	-8.003	-8.408	-8.326	-8.307	-8.014	-6.020
625.0	-841.8	-714.5	-545.6	-400.3	-330.9	-270.8	-228.6	-200.3	-176.3	-142.1	-121.7	-101.2	-65.13	-36.82	-53.91	-47.36	-39.45	-20.20	329.8	710.0	-2.153	-24.19	-22.89	-21.05	-19.62	-18.06	-17.44	-16.86	-15.79	-15.91	-14.93	-13.90	-13.47	-12.59	-11.13	-10.30	-10.23	-10.30	-9.667	-9.790	-9.336	-9.216	-9.221	-8.898	-8.795	-8.352	-7.546	-7.559	-6.757	-5.912	-6.144	-7.289	-6.960	-7.352	-7.201	-7.637	-7.894	-7.776	-7.091	-7.236	-7.712	-7.747	-7.991	-7.997	-8.046	-7.804	-8.001	-8.242	-8.101	-8.297	-8.269	-8.235	-8.427	-8.289	-8.501	-8.582	-8.388
630.0	-901.2	-703.5	-535.7	-424.6	-337.3	-286.7	-228.6	-203.4	-177.9	-147.1	-124.6	-102.6	-76.15	-36.76	-43.92	-47.85	-41.89	-33.11	61.77	639.5	313.5	-22.82	-22.16	-21.08	-19.64	-18.49	-17.77	-17.11	-16.47	-15.91	-15.38	-14.10	-13.40	-12.57	-11.41	-10.77	-10.09	-10.34	-9.940	-9.970	-9.367	-9.097	-9.623	-8.990	-8.918	-8.467	-7.552	-7.708	-6.698	-5.797	-6.031	-7.105	-7.145	-7.544	-7.389	-7.587	-7.823	-7.857	-7.631	-7.417	-7.489	-7.778	-7.938	-8.086	-7.938	-8.001	-8.009	-8.256	-8.085	-8.235	-8.259	-8.171	-8.409	-8.428	-8.562	-8.703	-8.856
635.0	-883.8	-699.6	-563.1	-414.0	-338.5	-275.8	-232.0	-206.6	-180.1	-148.8	-127.7	-105.6	-81.53	-51.29	-32.42	-44.59	-41.43	-35.99	-12.26	207.8	706.3	43.13	-22.41	-21.07	-19.97	-18.59	-16.95	-17.50	-17.08	-16.34	-15.57	-14.64	-13.59	-12.78	-11.98	-10.82	-10.11	-10.47	-9.905	-9.721	-9.629	-9.597	-9.425	-9.282	-8.749	-8.653	-7.544	-7.903	-7.093	-6.094	-6.238	-7.371	-7.108	-7.590	-7.374	-7.750	-7.916	-7.800	-7.916	-7.502	-7.677	-7.696	-7.845	-7.932	-8.037	-8.069	-7.812	-8.042	-8.256	-8.293	-8.187	-8.225	-8.241	-8.401	-8.588	-8.912	-9.029
640.0	-890.0	-710.8	-565.6	-416.7	-339.6	-278.7	-237.2	-201.7	-176.1	-152.1	-126.6	-103.7	-82.57	-61.11	-29.49	-37.71	-41.90	-38.36	-28.55	29.62	618.2	234.3	-22.58	-20.99	-19.81	-18.35	-17.51	-17.47	-17.03	-16.14	-15.64	-14.82	-13.46	-12.77	-11.64	-10.97	-10.35	-10.60	-9.958	-9.944	-9.518	-9.968	-9.497	-8.972	-8.615	-8.802	-7.723	-7.563	-7.061	-5.837	-6.183	-7.434	-7.131	-7.551	-7.196	-7.609	-8.204	-7.833	-7.850	-7.662	-7.614	-7.797	-7.823	-7.797	-7.973	-8.062	-8.020	-8.170	-8.374	-8.244	-8.376	-7.969	-8.409	-8.411	-8.565	-8.969	-9.064
645.0	-877.9	-717.4	-552.3	-412.3	-341.7	-284.7	-235.0	-202.8	-175.3	-147.6	-131.9	-103.5	-80.62	-66.10	-33.04	-35.65	-41.98	-36.23	-31.02	-15.63	311.5	539.9	-7.115	-20.00	-19.27	-18.71	-17.81	-17.23	-16.49	-16.30	-15.23	-14.95	-14.16	-12.83	-11.82	-10.59	-10.48	-10.53	-10.03	-9.919	-9.423	-9.794	-9.685	-9.218	-8.950	-8.753	-7.609	-7.568	-7.201	-5.913	-6.343	-7.459	-7.238	-7.652	-7.198	-7.578	-8.175	-8.012	-7.951	-7.727	-7.885	-7.865	-7.914	-7.915	-8.107	-8.117	-8.296	-8.069	-8.303	-8.257	-8.408	-8.325	-8.452	-8.343	-8.434	-8.887	-9.024
650.0	-890.2	-715.4	-525.9	-411.6	-335.0	-281.0	-235.9	-207.8	-169.4	-151.7	-128.4	-103.3	-85.21	-69.51	-39.11	-29.67	-39.71	-37.26	-32.17	-26.27	73.66	616.3	102.2	-20.67	-19.74	-19.10	-18.11	-17.58	-16.92	-16.43	-15.88	-15.02	-13.88	-12.97	-12.06	-10.82	-10.29	-10.30	-10.02	-9.855	-9.795	-9.790	-9.508	-9.334	-8.992	-8.676	-7.667	-7.722	-7.133	-5.955	-6.255	-7.347	-7.246	-7.513	-7.390	-7.650	-8.033	-8.040	-7.929	-7.901	-8.121	-7.990	-7.887	-7.812	-8.008	-7.878	-8.277	-8.059	-8.352	-8.235	-8.245	-8.441	-8.492	-8.139	-8.571	-8.754	-9.041
