Sample:	'1
File name:	S2025080913»ª·áÂ·ÇÅ.FD3
Run date:	'14:37:40, 08/10/2025
Operator:	Administrator
Comment:	'

Instrument
Model:	F-2700 FL Spectrophotometer
Serial number:	3064-004
ROM Version:	4J14000 07

Instrument parameters
Measurement type:	3-D scan
Data mode:	Fluorescence
EX  Start WL:	220.0 nm
EX  End WL:	600.0 nm
EX Sampling interval:	5.0 nm
EM  Start WL:	230.0 nm
EM  End WL:	650.0 nm
EM Sampling interval:	5.0 nm
Scan speed:	12000 nm/min
EX Slit:	5.0 nm
EM Slit:	5.0 nm
PMT Voltage:	700 V
Response:	Auto 
Corrected spectra:	Off
Contour interval:	50.000

Peak integration
Integration method:	Rectangular
Sensitivity:	1
Threshold:	1.000

Peaks
No.	ApexEX/EM(nm)	Height(Data)
1	230.0/305.0	702.2
2	230.0/340.0	 1219
3	230.0/590.0	76.46
4	230.0/625.0	48.76
5	240.0/520.0	292.0
6	245.0/530.0	272.4
7	250.0/545.0	244.1
8	255.0/280.0	712.7
9	255.0/555.0	224.7
10	260.0/285.0	981.7
11	260.0/570.0	205.0
12	265.0/290.0	 1185
13	265.0/580.0	210.9
14	270.0/295.0	 1669
15	270.0/590.0	182.5
16	275.0/305.0	 2103
17	275.0/380.0	 1906
18	275.0/605.0	172.8
19	280.0/310.0	 2035
20	280.0/615.0	150.3
21	285.0/315.0	 1868
22	285.0/630.0	112.5
23	290.0/640.0	89.21
24	320.0/360.0	 1068
25	445.0/525.0	65.14
26	455.0/335.0	4.719
27	460.0/345.0	5.120
28	505.0/275.0	3.248
29	515.0/280.0	3.947
30	520.0/285.0	5.045
31	530.0/290.0	4.926
32	530.0/400.0	7.445
33	540.0/295.0	7.629
34	545.0/300.0	8.527
35	550.0/305.0	9.822
36	560.0/310.0	9.089
37	565.0/375.0	8.181
38	570.0/315.0	8.703
39	575.0/320.0	8.188
40	575.0/385.0	8.779
41	585.0/325.0	7.927

Data points
	220.0	225.0	230.0	235.0	240.0	245.0	250.0	255.0	260.0	265.0	270.0	275.0	280.0	285.0	290.0	295.0	300.0	305.0	310.0	315.0	320.0	325.0	330.0	335.0	340.0	345.0	350.0	355.0	360.0	365.0	370.0	375.0	380.0	385.0	390.0	395.0	400.0	405.0	410.0	415.0	420.0	425.0	430.0	435.0	440.0	445.0	450.0	455.0	460.0	465.0	470.0	475.0	480.0	485.0	490.0	495.0	500.0	505.0	510.0	515.0	520.0	525.0	530.0	535.0	540.0	545.0	550.0	555.0	560.0	565.0	570.0	575.0	580.0	585.0	590.0	595.0	600.0
230.0	22.40	558.6	 3315	 2080	117.6	11.57	9.525	8.963	8.471	7.165	6.341	6.007	6.124	5.362	4.790	3.765	3.448	2.875	2.686	2.496	2.632	2.040	1.988	2.089	1.669	1.785	1.602	1.467	1.525	1.337	1.143	1.180	1.157	0.989	0.927	0.969	0.914	1.022	0.902	0.851	0.782	0.919	0.891	0.675	0.733	0.670	1.626	6.373	11.16	9.175	4.039	0.982	0.489	0.473	0.541	0.486	0.485	0.422	0.470	0.424	0.380	0.419	0.365	0.411	0.387	0.442	0.384	0.322	0.305	0.294	0.346	0.268	0.292	0.395	0.350	0.292	0.243
235.0	46.78	155.6	 1340	 3756	 1121	275.3	12.45	10.62	10.55	7.420	6.259	6.272	6.316	5.505	3.899	4.066	3.648	2.654	2.716	2.602	2.556	1.880	2.149	1.592	1.522	1.866	1.423	1.371	1.206	1.265	1.252	1.135	0.992	0.874	0.648	1.004	0.808	0.931	0.903	0.830	0.845	0.724	0.902	0.807	0.925	0.748	0.935	1.930	4.070	7.388	11.33	11.24	5.726	1.739	0.439	0.439	0.430	0.472	0.432	0.474	0.426	0.412	0.569	0.408	0.355	0.441	0.420	0.251	0.291	0.297	0.350	0.349	0.276	0.655	0.479	0.256	0.334
240.0	63.05	91.72	344.6	 2047	 4353	 2961	93.41	13.28	8.949	7.152	7.978	7.439	6.476	5.118	5.214	3.663	3.022	3.699	2.879	2.722	2.876	2.510	2.049	1.809	1.910	2.125	1.794	1.374	1.237	1.484	1.624	1.284	1.177	0.999	1.075	1.162	0.879	0.949	0.848	0.799	1.005	0.688	0.614	0.694	1.023	0.891	0.696	1.104	1.440	2.300	5.647	13.10	16.12	11.52	3.957	0.859	0.489	0.435	0.407	0.357	0.381	0.457	0.342	0.311	0.474	0.414	0.330	0.364	0.382	0.285	0.299	0.383	0.356	0.478	0.362	0.372	0.317
245.0	42.00	110.5	133.2	546.0	 2926	 7682	795.5	41.59	12.43	9.395	7.781	7.615	7.204	6.114	4.303	4.596	3.265	3.285	3.126	2.754	2.726	2.615	2.462	2.112	2.217	2.014	1.520	1.556	1.707	1.589	1.474	1.128	1.033	1.044	0.997	1.135	0.786	0.938	0.801	0.725	0.824	0.897	0.641	0.590	0.719	0.947	1.092	1.169	0.830	0.939	1.661	4.265	10.32	17.67	17.61	10.01	2.852	0.569	0.492	0.582	0.395	0.367	0.368	0.351	0.388	0.292	0.345	0.312	0.413	0.351	0.375	0.320	0.407	0.334	0.314	0.368	0.385
250.0	25.12	55.96	146.5	219.3	773.7	 4243	 5273	 2800	233.5	12.79	10.82	9.775	6.134	6.845	5.088	4.280	4.206	3.583	3.285	2.616	2.871	2.519	2.188	2.354	2.437	1.730	1.605	1.649	1.795	1.505	1.311	1.094	1.187	1.127	1.033	1.195	1.121	0.824	0.918	0.747	0.722	0.781	0.745	0.896	0.884	0.782	0.785	1.001	1.059	1.023	1.118	1.405	2.757	5.742	10.31	16.04	19.04	16.88	9.897	3.013	0.724	0.535	0.477	0.365	0.348	0.357	0.270	0.420	0.330	0.257	0.411	0.454	0.382	0.331	0.273	0.321	0.357
255.0	13.87	28.97	67.45	228.3	288.4	984.4	 2206	 7029	 4328	319.0	15.76	11.32	8.320	10.18	5.209	4.832	4.931	3.350	4.030	2.876	2.383	2.282	2.009	2.575	2.735	1.935	1.784	1.711	1.708	1.481	1.205	1.000	1.197	1.128	1.215	1.179	1.034	0.693	0.773	0.971	0.869	0.714	0.823	0.849	0.811	0.707	0.725	0.766	0.833	0.980	1.446	1.480	1.572	1.774	2.884	4.311	7.337	15.79	29.62	30.79	15.70	4.138	0.800	0.475	0.349	0.459	0.331	0.350	0.234	0.341	0.303	0.427	0.272	0.339	0.400	0.319	0.459
260.0	16.81	16.92	29.24	145.8	316.5	308.5	553.2	 3401	 9464	 3680	191.3	15.61	11.01	10.45	6.185	5.573	5.371	4.759	3.891	3.470	3.159	2.725	2.109	2.275	2.552	1.709	2.170	1.905	1.558	1.735	1.550	1.021	1.096	1.339	1.116	0.909	0.840	0.811	0.827	0.815	0.739	0.769	0.696	0.793	0.851	0.676	0.775	0.721	0.895	0.708	0.995	1.578	1.885	1.240	1.203	1.529	2.207	4.654	12.84	28.01	40.76	32.78	12.64	1.916	0.425	0.432	0.435	0.438	0.298	0.400	0.354	0.324	0.425	0.345	0.322	0.306	0.452
265.0	22.03	26.75	26.33	56.07	260.3	323.3	183.0	882.8	 5407	9999.9	 2925	88.41	13.77	11.08	7.798	6.787	5.141	4.587	3.741	3.185	3.598	3.252	2.275	2.171	2.279	1.823	1.680	2.036	1.759	1.407	1.329	1.515	1.322	1.163	1.019	0.941	0.896	0.917	0.821	0.756	0.762	0.837	0.908	0.735	0.836	0.950	0.804	0.713	0.902	0.775	0.699	1.018	1.645	1.838	1.488	1.086	1.034	1.669	3.497	8.253	21.53	42.63	49.87	29.70	6.905	0.983	0.517	0.426	0.458	0.532	0.425	0.283	0.355	0.421	0.353	0.369	0.436
270.0	78.75	71.61	45.81	40.45	99.27	293.5	364.7	322.6	 1423	 5249	9999.9	 7157	186.8	18.45	11.50	8.686	6.641	5.296	4.064	3.306	3.315	3.249	2.753	2.645	2.196	2.149	1.848	1.847	1.889	1.871	1.416	1.481	1.203	1.202	1.113	0.849	1.167	1.079	1.036	1.053	1.107	1.079	1.177	1.083	0.917	1.081	0.900	0.864	0.768	0.774	0.642	0.649	0.897	1.203	1.708	1.865	2.057	1.416	1.430	2.531	5.728	12.30	23.65	38.12	44.58	43.41	22.07	6.318	0.894	0.485	0.486	0.384	0.367	0.487	0.372	0.380	0.523
275.0	188.8	172.7	127.3	84.73	62.07	126.0	392.1	569.5	511.1	 1377	 3683	9999.9	9999.9	235.4	18.40	11.06	8.031	7.020	4.687	4.528	3.668	3.369	2.289	2.804	2.376	2.332	2.351	1.764	2.127	1.969	1.675	1.400	1.693	1.132	1.360	1.404	1.196	1.209	1.049	1.375	1.347	1.381	1.370	1.385	1.559	1.535	1.353	1.140	1.113	0.998	0.779	0.775	0.829	0.699	0.863	1.254	2.249	3.248	2.570	1.970	2.345	3.901	6.167	9.581	14.81	32.70	66.26	53.25	32.93	5.806	0.745	0.455	0.417	0.351	0.273	0.550	0.478
280.0	281.3	278.1	237.7	148.9	79.51	97.90	239.0	712.7	606.4	583.6	 1137	 4631	9999.9	 2584	145.8	17.24	10.39	7.741	5.955	5.288	4.817	3.349	3.465	3.022	2.443	2.540	2.424	1.747	2.057	2.042	1.646	1.392	1.547	1.417	1.742	1.399	1.330	1.684	1.420	1.531	1.747	1.779	1.910	1.718	1.925	1.937	1.564	1.576	1.344	1.038	0.909	0.767	0.747	0.909	0.883	1.029	1.510	2.613	3.679	3.947	2.631	2.299	2.649	3.127	5.161	9.174	24.50	53.77	86.56	50.27	21.90	2.153	0.568	0.472	0.513	0.396	0.598
285.0	355.3	366.7	320.7	218.9	118.7	120.6	182.3	475.2	981.7	608.4	667.5	 1444	 6400	9999.9	 1980	79.31	13.21	9.192	6.476	5.726	4.861	3.675	4.052	2.921	2.768	2.323	2.410	2.118	2.027	2.208	1.964	1.831	1.631	1.389	1.126	1.486	1.450	1.674	1.751	1.647	1.800	2.248	1.822	2.274	2.346	2.197	2.113	2.005	1.609	1.335	1.180	1.155	1.034	0.929	0.905	0.935	1.470	1.649	2.498	3.441	5.045	3.549	2.280	2.594	3.147	4.068	6.906	15.63	39.42	74.82	93.53	40.93	9.138	1.086	0.532	0.350	0.491
290.0	424.3	485.3	484.5	333.2	209.5	177.2	215.1	362.3	777.7	 1185	985.7	923.4	 2006	 5866	9999.9	 7330	114.8	16.79	10.04	7.782	5.839	4.618	4.226	3.517	3.224	2.857	2.452	2.264	2.171	2.213	1.774	1.980	2.009	1.435	1.449	1.560	2.014	2.101	2.178	1.902	2.085	2.307	2.364	2.605	2.596	2.603	2.319	2.647	2.114	1.831	1.532	1.589	1.200	1.113	1.101	1.170	1.459	1.525	1.937	2.347	3.557	4.900	4.926	4.711	4.013	3.726	3.776	6.184	11.23	21.09	39.92	59.38	58.85	64.53	26.28	7.749	0.875
295.0	486.2	584.5	623.7	475.0	291.7	229.0	265.7	383.2	616.8	 1042	 1669	 1224	 1178	 1794	 3311	9999.9	9999.9	149.3	15.65	9.681	7.419	5.722	5.036	3.940	3.859	3.446	2.968	2.350	2.885	2.351	1.579	1.983	1.839	1.632	1.433	2.053	2.393	2.560	2.222	1.975	2.394	2.097	2.294	2.395	2.663	3.185	2.546	3.026	2.615	2.072	2.191	1.962	1.650	1.625	1.366	1.408	1.516	1.550	1.989	2.178	3.085	3.403	4.225	6.141	7.629	6.016	4.697	4.734	5.672	7.263	11.06	15.00	17.88	43.62	92.74	59.85	38.47
300.0	487.9	606.9	688.6	519.2	347.8	291.1	316.6	440.5	623.6	915.6	 1640	 1885	 1217	 1010	 1081	 4041	9999.9	 7474	103.4	14.25	9.656	6.938	5.056	4.930	4.029	3.480	3.066	2.566	2.346	2.491	2.000	2.092	1.944	1.952	1.794	2.126	2.321	2.351	2.167	2.312	2.247	2.263	2.198	2.765	2.979	3.272	2.828	3.100	2.577	2.734	2.188	1.961	1.637	1.384	1.381	1.727	1.730	1.708	2.183	2.439	2.963	3.255	3.801	5.009	7.242	8.527	7.993	5.608	5.178	4.865	5.448	5.036	5.624	11.43	30.97	67.59	110.6
305.0	489.7	629.6	702.2	576.4	401.4	334.7	368.6	471.1	694.3	952.6	 1398	 2103	 1667	991.2	679.8	 1168	 5623	9999.9	 1270	63.11	11.65	8.642	6.190	5.875	4.538	4.080	3.433	2.777	2.370	2.410	2.627	1.950	2.055	1.863	1.711	1.965	2.477	2.751	2.442	2.266	2.344	2.219	2.102	2.641	2.838	3.172	2.917	3.191	2.500	2.586	2.138	2.486	1.870	1.661	1.844	1.785	1.917	2.058	2.711	2.602	3.050	3.683	4.342	5.028	5.628	7.577	9.822	8.541	6.343	4.776	5.014	3.666	3.312	3.969	8.415	18.91	48.67
310.0	446.0	607.9	691.7	598.3	440.9	377.8	423.4	529.7	726.8	988.1	 1322	 1724	 2035	 1465	748.6	588.1	 1501	 5329	9999.9	 5052	81.95	13.07	8.211	7.341	5.464	4.669	3.788	3.430	3.040	2.761	2.461	2.098	1.974	1.954	1.734	1.773	2.370	2.469	2.271	2.320	2.591	2.215	2.193	2.607	2.878	2.965	2.827	3.033	2.914	2.448	2.234	2.111	2.027	1.886	1.825	1.792	2.329	2.322	2.662	2.794	3.168	3.620	4.410	4.814	5.477	6.216	7.617	8.367	9.089	7.967	6.071	4.528	3.459	3.199	3.574	5.846	12.38
315.0	424.9	604.5	708.6	603.0	462.4	404.0	473.2	593.3	786.4	 1004	 1310	 1564	 1689	 1868	 1162	579.6	608.5	 1368	 3085	9999.9	 7607	109.3	13.61	9.180	6.742	5.493	4.158	3.256	3.248	3.442	2.286	2.302	2.061	2.014	1.790	1.887	2.443	2.538	2.298	2.273	2.357	2.615	2.397	2.301	2.844	2.733	2.429	3.124	3.111	2.354	2.314	2.307	2.277	2.048	1.931	2.369	2.530	2.606	2.754	3.125	3.401	4.004	4.706	5.120	5.073	5.644	6.287	6.657	6.781	8.079	8.703	7.377	4.259	3.083	3.054	3.400	4.372
320.0	444.7	662.4	765.3	697.3	501.1	440.6	492.7	603.1	806.9	 1028	 1343	 1563	 1644	 1687	 1632	786.9	486.9	543.2	850.3	 3947	9999.9	 5989	78.48	11.58	8.494	5.897	5.125	3.662	3.202	3.306	2.678	2.561	2.349	1.958	1.722	2.114	2.297	2.221	2.442	2.073	2.122	2.393	2.412	2.285	2.929	3.004	2.807	3.663	3.444	2.717	2.344	2.456	2.230	2.153	1.901	2.386	2.632	2.915	2.866	3.039	3.804	4.111	4.611	5.571	5.649	5.583	6.563	6.962	6.756	7.066	7.211	8.188	7.486	4.573	3.592	3.058	3.292
325.0	483.9	742.5	946.0	834.8	571.9	453.5	519.0	646.9	810.2	 1065	 1352	 1600	 1688	 1571	 1640	 1211	587.5	422.9	396.2	 1046	 5667	9999.9	937.1	50.25	10.11	7.853	5.717	4.803	3.605	3.526	3.224	2.522	2.298	2.312	1.898	1.969	2.522	2.141	2.414	2.046	2.248	2.383	2.743	2.736	2.997	3.026	3.214	3.670	3.989	3.309	2.579	2.620	2.432	2.263	2.076	2.235	2.861	3.065	3.435	3.488	4.064	4.187	4.399	5.465	5.624	5.958	6.463	6.626	6.732	7.141	6.318	6.833	7.523	7.927	5.607	3.846	3.316
330.0	470.0	780.1	 1076	986.1	697.7	543.3	576.5	682.4	832.7	 1078	 1373	 1614	 1709	 1602	 1432	 1327	992.1	538.2	371.1	437.0	 1458	 5209	9999.9	 3859	64.41	12.77	7.521	5.814	5.385	4.048	3.815	3.183	2.492	2.387	1.981	2.037	2.192	2.052	2.318	2.415	2.166	2.515	2.398	2.362	3.111	3.312	3.661	4.185	4.306	3.721	3.098	3.131	2.607	2.467	2.438	2.581	2.874	3.046	3.270	3.435	4.253	4.081	4.515	5.250	5.670	5.844	6.735	6.726	6.808	7.190	6.308	6.662	6.660	6.998	6.936	6.452	5.073
335.0	459.4	829.4	 1135	 1082	856.5	674.4	667.1	758.8	904.4	 1124	 1379	 1587	 1722	 1650	 1427	 1170	 1150	908.3	470.6	380.4	538.4	 1315	 3201	9999.9	 6108	87.89	11.86	7.883	5.345	4.767	4.218	3.757	2.768	2.493	1.926	2.014	2.116	2.016	2.186	2.386	2.278	2.491	2.381	2.573	3.001	3.590	3.461	4.719	4.289	4.019	3.912	3.867	3.151	2.938	2.791	2.724	2.960	3.213	3.591	3.609	3.990	4.178	4.267	4.937	6.170	6.169	6.915	6.924	7.218	6.879	6.988	7.232	6.267	5.670	6.131	6.085	7.229
340.0	453.4	833.1	 1219	 1185	949.2	785.8	729.5	827.3	963.6	 1189	 1425	 1605	 1757	 1708	 1495	 1197	 1031	 1111	700.2	433.1	394.4	497.2	866.3	 4287	9999.9	 4866	64.28	11.94	6.980	5.728	4.413	4.046	2.809	2.653	2.264	2.431	1.945	2.074	2.047	2.228	2.177	2.338	2.319	2.664	2.723	3.839	4.066	4.700	5.073	4.130	3.677	4.298	3.803	3.590	3.258	3.399	3.246	3.533	3.714	3.755	3.919	4.476	4.555	4.712	6.570	6.031	6.897	7.225	7.339	7.640	7.384	7.069	6.624	5.996	5.782	5.744	5.856
345.0	465.6	841.1	 1201	 1231	 1040	883.9	841.9	902.9	 1025	 1219	 1439	 1623	 1755	 1729	 1551	 1251	 1007	 1032	970.3	565.0	419.6	376.1	386.6	 1135	 6080	9999.9	773.3	42.14	9.838	6.926	4.823	4.458	3.431	2.979	2.714	2.200	2.232	2.205	2.169	2.021	2.079	2.350	2.390	2.722	2.783	3.340	3.637	4.664	5.120	4.210	3.683	4.300	3.893	3.687	3.444	3.579	3.410	3.721	3.764	4.475	4.457	4.265	4.943	5.277	6.335	5.899	7.255	7.086	7.337	7.955	7.316	6.847	6.910	6.198	5.964	6.394	5.847
350.0	467.4	770.0	 1143	 1269	 1135	 1065	988.4	 1032	 1147	 1320	 1482	 1647	 1770	 1732	 1606	 1331	 1090	972.0	995.2	896.2	589.3	449.6	369.1	465.5	 1580	 5548	9999.9	 3290	55.87	11.41	7.071	5.286	4.040	3.402	2.704	2.494	2.346	2.477	2.311	2.372	2.199	2.306	2.467	2.577	3.115	3.386	3.566	4.194	4.449	4.267	3.937	4.360	4.194	4.414	3.942	3.926	4.144	4.222	4.347	4.495	4.664	4.894	5.333	5.694	5.957	6.425	6.953	6.608	7.582	7.215	7.383	7.285	7.185	6.377	6.508	6.461	6.260
355.0	451.3	726.9	 1104	 1270	 1286	 1233	 1177	 1214	 1323	 1465	 1598	 1717	 1790	 1770	 1688	 1399	 1218	 1047	962.4	978.3	917.3	602.8	468.9	414.6	576.8	 1392	 3474	9999.9	 5265	75.36	11.08	7.549	4.653	4.009	2.731	2.754	2.466	2.462	2.783	2.419	2.254	2.264	2.382	2.556	2.937	3.195	3.664	3.999	4.607	4.349	4.135	4.913	4.607	4.395	4.597	4.294	4.735	4.756	4.936	5.453	5.742	6.260	5.498	6.589	6.619	6.361	6.730	7.046	7.421	7.721	7.672	7.006	7.454	7.091	6.771	6.898	6.426
360.0	421.7	720.8	 1088	 1277	 1316	 1287	 1327	 1351	 1464	 1568	 1683	 1762	 1824	 1804	 1693	 1464	 1280	 1124	999.0	951.0	 1068	816.8	569.6	461.8	409.2	504.5	923.8	 4680	9999.9	 4129	51.80	10.03	6.844	4.541	3.753	3.078	2.755	2.652	2.509	2.365	2.313	2.344	2.438	2.397	2.852	3.576	3.509	3.806	4.623	4.383	4.275	5.176	4.777	5.148	4.474	4.618	5.037	4.820	5.346	5.775	6.277	6.861	6.423	7.087	6.751	6.754	6.786	7.482	7.658	7.657	8.160	8.231	7.437	8.077	7.068	7.020	6.923
365.0	401.4	709.6	 1021	 1291	 1369	 1363	 1431	 1428	 1535	 1656	 1756	 1778	 1845	 1797	 1722	 1519	 1333	 1190	 1079	984.4	 1012	 1025	716.0	534.3	426.1	358.8	379.7	 1218	 6607	9999.9	687.2	31.43	7.933	5.831	4.831	3.145	2.980	3.007	2.837	2.408	2.707	2.249	2.270	2.652	3.237	3.190	3.207	4.125	4.283	4.089	4.194	4.820	4.725	4.968	5.105	4.704	5.324	5.163	6.095	5.762	6.663	7.031	6.718	7.366	6.385	7.577	7.070	6.949	7.933	7.279	7.862	7.662	7.866	7.742	7.424	7.079	7.394
370.0	415.1	670.8	990.2	 1271	 1381	 1475	 1495	 1524	 1637	 1749	 1821	 1850	 1858	 1824	 1715	 1555	 1395	 1249	 1156	 1075	 1012	 1036	969.0	707.8	525.2	413.5	324.5	436.4	 1696	 5950	9999.9	 2851	45.03	8.683	5.709	4.036	3.381	2.980	2.876	2.730	2.469	2.443	2.370	2.551	2.711	3.091	3.300	4.011	4.215	4.110	4.253	4.718	5.021	5.150	5.338	5.250	5.752	5.522	5.691	6.123	6.840	7.112	7.065	7.215	6.980	7.601	7.317	6.859	7.872	7.806	7.480	7.827	7.805	7.831	8.099	7.530	7.797
375.0	416.3	651.8	953.1	 1223	 1430	 1516	 1587	 1632	 1690	 1803	 1882	 1892	 1883	 1813	 1717	 1549	 1435	 1323	 1238	 1162	 1103	 1034	 1035	976.9	698.1	534.9	400.8	340.8	540.4	 1440	 3784	9999.9	 4310	58.06	8.575	5.809	4.274	3.523	3.075	2.629	2.925	2.473	2.895	2.567	2.708	3.119	3.315	3.867	4.312	3.782	4.257	5.175	4.710	5.567	5.674	5.820	6.269	6.050	5.890	6.908	6.553	6.798	7.223	7.300	7.745	6.946	7.585	7.175	7.462	8.181	8.057	8.139	7.296	6.939	7.789	7.373	7.581
380.0	406.1	608.8	948.0	 1209	 1476	 1551	 1595	 1656	 1702	 1826	 1860	 1906	 1878	 1818	 1706	 1537	 1447	 1348	 1283	 1210	 1147	 1088	 1035	 1065	896.1	638.8	493.9	374.5	333.7	468.0	969.8	 5091	9999.9	 3190	38.52	7.409	5.182	3.769	3.305	3.233	2.888	2.776	3.123	2.782	2.699	3.282	3.157	3.872	4.000	3.800	3.617	4.374	5.187	5.783	5.999	6.113	6.447	6.188	6.275	7.007	6.336	7.267	7.138	7.652	7.472	7.522	7.357	6.927	7.602	7.444	7.735	8.137	7.517	7.316	7.933	8.030	7.849
385.0	371.0	590.4	922.6	 1179	 1401	 1544	 1593	 1636	 1698	 1796	 1875	 1883	 1857	 1786	 1675	 1543	 1448	 1371	 1312	 1249	 1180	 1121	 1057	 1029	 1041	774.2	571.5	435.7	338.1	289.4	342.5	 1321	 6778	9999.9	534.3	21.87	6.527	5.051	3.886	3.660	2.805	2.832	3.012	2.664	2.641	3.173	3.173	3.949	3.472	3.750	4.154	4.977	5.277	6.193	6.197	6.123	6.849	6.449	6.407	6.998	6.954	6.691	6.901	7.004	6.894	7.052	7.145	7.403	7.934	7.975	7.933	8.779	7.946	7.826	7.304	8.411	7.932
390.0	370.3	589.8	863.1	 1131	 1379	 1527	 1613	 1619	 1689	 1777	 1831	 1831	 1798	 1746	 1631	 1525	 1435	 1371	 1323	 1269	 1213	 1164	 1092	 1026	 1003	948.1	708.2	522.2	401.0	308.9	252.9	414.7	 1737	 5776	 8230	 2198	34.79	7.553	5.283	4.228	3.141	2.992	3.191	2.901	3.011	3.266	2.978	3.708	3.750	3.614	4.070	5.029	5.151	5.777	5.776	5.871	6.005	6.154	6.197	6.715	6.297	6.598	6.860	6.999	6.980	7.283	7.408	7.382	7.532	7.629	7.795	8.036	7.823	7.444	7.185	7.844	7.988
395.0	378.9	589.6	837.4	 1112	 1333	 1499	 1572	 1611	 1653	 1754	 1774	 1789	 1751	 1684	 1594	 1483	 1417	 1373	 1326	 1286	 1232	 1194	 1116	 1065	988.9	961.5	894.8	644.2	477.8	372.9	283.4	258.4	501.5	 1375	 3307	 9228	 3370	45.63	8.016	5.898	4.227	3.253	3.306	3.306	3.265	3.078	3.212	3.876	3.977	3.633	3.875	4.433	4.902	5.277	5.557	5.706	5.783	6.136	6.059	6.875	6.745	6.424	7.049	6.782	6.876	6.735	7.497	7.051	7.129	7.559	7.945	7.833	7.237	7.845	7.117	7.760	8.106
400.0	370.4	568.2	804.5	 1069	 1308	 1427	 1510	 1592	 1635	 1717	 1729	 1715	 1699	 1632	 1553	 1432	 1383	 1345	 1310	 1261	 1241	 1200	 1142	 1090	 1007	929.9	929.2	785.5	549.5	426.2	330.1	261.6	255.6	408.7	840.3	 4634	 9484	 2435	30.25	6.883	5.033	3.881	3.532	3.693	3.169	3.276	3.259	3.758	3.870	3.549	3.706	4.364	4.985	5.133	5.279	5.885	5.664	6.334	5.865	6.874	6.482	6.721	7.445	6.582	6.951	6.427	7.277	6.833	7.096	7.101	7.297	6.617	7.634	8.014	7.351	7.787	7.758
405.0	365.2	549.9	784.4	 1041	 1263	 1413	 1503	 1569	 1621	 1679	 1675	 1669	 1647	 1574	 1484	 1408	 1347	 1303	 1292	 1254	 1236	 1182	 1136	 1082	 1024	938.3	891.4	865.7	652.3	485.9	386.9	298.8	233.3	219.2	282.6	 1206	 5981	 8343	439.2	15.99	6.259	4.328	3.658	3.637	3.311	3.594	3.555	3.652	3.475	3.485	3.593	4.122	4.452	5.173	5.598	5.703	5.768	6.027	5.840	6.463	6.557	6.687	6.822	6.976	6.674	6.664	6.963	6.649	6.625	7.397	7.549	6.769	7.510	7.640	7.182	7.447	7.847
410.0	343.5	525.8	760.5	986.1	 1220	 1387	 1453	 1510	 1578	 1602	 1616	 1603	 1578	 1504	 1438	 1355	 1293	 1268	 1243	 1216	 1196	 1153	 1124	 1069	 1015	939.5	870.8	827.7	772.6	598.9	451.3	349.5	269.1	210.8	182.5	356.6	 1534	 4787	 6404	 1761	29.96	6.391	4.777	3.754	3.621	3.394	3.342	3.316	3.365	3.409	3.754	4.427	4.487	4.993	5.320	5.514	5.968	5.851	5.870	6.073	6.178	6.908	6.707	6.341	6.223	6.620	6.644	6.325	6.369	6.363	6.619	6.571	6.858	7.025	7.350	7.080	7.389
415.0	318.9	506.8	748.7	947.3	 1112	 1267	 1379	 1457	 1527	 1540	 1551	 1544	 1510	 1427	 1364	 1292	 1236	 1207	 1197	 1178	 1138	 1115	 1083	 1045	 1008	941.3	868.1	798.1	748.7	715.9	536.4	399.0	307.6	237.7	184.1	186.3	417.9	 1126	 2666	 7145	 2785	39.46	6.523	4.718	4.133	3.443	3.502	3.476	3.431	3.379	3.704	4.633	4.433	4.768	4.887	5.071	5.663	5.688	5.647	5.271	5.815	6.551	6.401	6.209	6.228	6.134	6.250	6.459	6.162	6.122	6.250	6.074	6.214	7.292	6.804	6.655	6.672
420.0	305.0	514.6	711.2	890.4	 1073	 1242	 1383	 1442	 1492	 1511	 1487	 1477	 1438	 1370	 1300	 1245	 1187	 1179	 1145	 1127	 1096	 1074	 1060	 1015	988.8	930.5	862.8	788.6	729.5	723.2	618.3	441.2	339.9	262.9	199.1	159.9	178.7	310.4	662.3	 3679	 7290	463.3	25.41	6.285	5.070	3.762	3.452	3.628	3.925	3.211	3.365	4.414	4.487	5.113	5.276	4.794	5.242	5.739	5.273	5.773	5.896	5.928	5.908	6.241	6.216	5.858	5.968	6.110	6.479	6.031	6.422	6.066	5.951	6.353	6.658	6.449	6.626
425.0	328.5	502.1	664.1	876.0	 1041	 1201	 1329	 1397	 1420	 1478	 1450	 1451	 1391	 1329	 1253	 1186	 1136	 1128	 1107	 1081	 1066	 1043	 1034	 1001	961.7	923.1	857.6	789.4	724.9	688.9	666.2	506.8	368.2	289.1	220.4	168.3	138.4	140.0	195.0	949.8	 4656	 6027	397.0	12.70	5.650	4.533	3.849	3.285	4.067	3.380	3.137	4.311	4.278	4.422	4.736	4.961	5.137	5.541	5.319	5.727	5.873	5.541	6.196	6.178	5.700	5.510	6.030	6.019	6.203	6.061	6.261	6.047	5.640	5.803	6.351	6.259	6.748
430.0	505.2	455.7	643.2	837.8	978.3	 1147	 1248	 1345	 1398	 1420	 1422	 1369	 1315	 1254	 1194	 1130	 1088	 1058	 1048	 1022	 1009	991.2	980.2	954.4	921.9	891.7	841.8	788.7	728.5	667.1	631.8	575.4	438.1	319.1	247.2	195.6	147.2	118.2	105.9	256.9	 1185	 3579	 4246	 1558	27.11	5.991	4.611	3.885	3.671	3.393	3.131	4.026	4.236	4.624	4.379	4.557	5.030	5.319	5.327	5.496	5.722	5.836	5.740	5.795	5.874	5.234	5.528	5.684	5.736	5.576	5.542	5.765	5.690	5.178	5.819	5.758	6.392
435.0	 1025	471.5	610.2	805.4	950.3	 1081	 1182	 1301	 1370	 1364	 1369	 1330	 1258	 1190	 1111	 1061	 1010	985.4	989.6	949.3	955.3	942.7	920.0	903.8	887.7	861.1	817.2	774.1	727.5	673.7	606.8	560.6	514.2	375.0	276.7	216.3	170.2	131.1	99.69	114.4	306.5	833.9	 1897	 5838	 2484	35.36	6.276	4.564	4.195	3.374	3.364	3.793	4.036	4.421	4.282	4.783	5.332	5.081	5.096	5.455	5.389	5.441	5.799	5.495	6.065	5.374	5.222	5.888	5.497	5.629	5.117	5.407	5.567	5.306	5.227	5.705	6.430
440.0	 1368	720.2	575.1	744.6	904.3	 1054	 1146	 1256	 1320	 1318	 1319	 1304	 1221	 1143	 1073	 1015	966.4	949.4	934.5	908.1	906.3	897.3	886.5	875.1	851.3	837.6	799.4	759.9	721.2	669.2	602.5	538.0	512.0	431.2	302.6	237.2	187.6	144.2	109.0	92.41	119.1	222.4	473.1	 2935	 6211	 1808	22.47	5.655	4.415	3.870	3.260	3.707	3.900	4.623	3.896	4.695	5.030	5.212	5.141	5.340	5.434	5.352	5.453	5.185	5.499	4.955	5.184	5.306	4.988	5.339	5.021	4.604	5.103	5.103	4.887	5.868	5.696
445.0	 1135	 1307	546.6	735.1	873.5	992.4	 1104	 1184	 1297	 1294	 1267	 1231	 1165	 1086	 1032	969.6	923.6	890.2	892.0	866.4	857.2	858.5	843.3	837.2	825.2	804.3	774.5	746.6	702.4	664.3	604.1	530.2	482.8	452.0	349.9	257.1	202.4	157.6	123.6	95.70	84.28	93.75	139.4	748.0	 3850	 5734	345.1	14.01	5.134	4.444	3.696	3.977	3.990	4.426	4.069	4.494	5.104	4.444	4.851	5.292	5.494	5.358	5.463	5.051	5.067	5.095	5.108	4.499	4.800	5.483	5.042	4.760	4.799	5.377	5.072	5.320	5.104
450.0	586.9	 1875	999.2	662.7	822.0	910.0	 1014	 1130	 1201	 1245	 1230	 1173	 1107	 1025	965.6	904.7	861.1	834.7	822.3	807.7	797.8	791.2	778.3	776.1	765.3	754.8	730.1	713.0	676.3	639.2	588.1	523.6	454.1	418.0	382.0	293.3	220.7	172.3	140.7	112.1	90.29	77.38	73.91	199.6	972.3	 3211	 4603	 1531	24.51	5.709	4.044	4.124	3.826	4.029	4.129	4.419	4.560	4.612	4.688	5.103	5.107	5.242	5.102	5.192	4.844	4.899	5.007	4.997	4.577	4.932	4.703	4.365	4.594	4.853	4.700	5.215	4.573
455.0	311.4	 1292	 2168	686.4	751.6	835.3	967.3	 1052	 1142	 1175	 1153	 1111	 1024	942.0	887.1	821.7	782.4	762.0	751.9	744.8	730.8	722.7	718.1	713.5	707.3	699.5	673.7	662.1	635.7	603.0	563.5	510.0	443.9	389.5	358.5	333.8	251.0	190.6	155.2	128.6	103.4	84.05	67.96	84.74	247.8	742.1	 1749	 5093	 2256	30.64	5.360	4.937	4.157	4.116	3.988	4.099	3.966	4.160	4.745	5.024	4.829	4.888	4.957	5.261	4.957	4.386	4.238	4.886	4.575	4.883	4.565	4.713	4.020	4.256	4.458	4.992	5.187
460.0	242.6	652.1	 2640	 1140	696.4	780.1	908.0	989.1	 1079	 1109	 1096	 1033	980.1	890.8	845.8	775.8	737.7	709.1	689.0	696.4	672.1	671.4	667.9	667.4	654.9	651.0	633.6	619.2	612.5	591.5	542.2	491.4	433.6	380.3	337.2	323.3	280.7	203.1	162.6	135.2	110.6	91.75	71.05	64.06	89.65	192.3	421.7	 2380	 5369	 1603	22.23	5.862	4.381	4.562	3.857	3.895	4.338	4.220	4.606	4.197	4.641	4.573	4.929	4.984	4.816	4.611	4.085	4.610	4.218	4.611	4.031	3.943	3.913	4.391	4.140	4.468	4.457
465.0	222.9	371.2	 2056	 2138	686.0	739.8	841.2	921.3	 1034	 1027	 1037	 1015	907.6	865.4	797.2	731.4	682.0	667.1	649.7	639.3	624.7	621.0	617.6	619.3	608.9	610.8	599.5	585.9	574.6	556.9	516.7	474.4	416.0	365.4	322.8	299.9	288.9	228.5	168.4	142.1	118.3	94.95	80.77	62.92	57.08	72.79	118.8	590.8	 3089	 4821	304.1	15.41	5.301	4.312	4.433	3.974	4.029	3.773	4.426	3.956	4.600	4.122	4.756	4.603	4.511	4.014	4.184	4.361	4.325	3.761	3.907	3.792	3.654	3.545	3.492	3.648	3.921
470.0	207.7	269.7	949.7	 2742	 1535	680.1	775.0	861.1	935.7	957.9	942.5	919.2	844.1	785.8	722.4	666.6	619.9	596.4	586.2	573.6	568.0	558.5	556.0	550.4	552.1	552.0	546.9	536.0	527.9	509.7	476.5	444.9	393.7	346.5	305.8	272.1	256.6	241.3	191.8	150.2	124.0	99.62	84.27	68.20	56.80	51.34	53.57	153.1	761.9	 2457	 3396	 1433	24.89	5.705	4.673	4.121	4.021	4.014	4.093	3.710	4.113	4.444	4.057	4.261	4.083	3.643	3.791	4.193	3.641	3.755	3.550	3.565	3.708	3.434	3.506	3.342	3.859
475.0	190.4	247.3	466.2	 1761	 3547	704.2	695.2	773.8	837.2	864.8	847.9	830.0	773.2	695.2	651.9	606.6	555.3	536.3	520.8	509.0	497.3	502.6	492.8	490.4	488.9	487.0	489.0	482.0	470.3	457.3	443.4	403.9	364.4	324.7	288.0	253.3	229.2	219.7	206.9	163.0	125.6	105.8	86.69	72.80	59.74	48.73	43.23	58.33	189.1	563.8	 1187	 3391	 1940	34.87	5.394	4.298	4.215	3.928	3.694	3.501	4.160	3.945	3.416	3.875	3.714	3.441	3.331	3.627	3.784	3.511	3.553	3.147	3.690	3.386	3.258	3.354	3.452
480.0	175.2	231.6	352.2	855.2	 4421	 1086	639.9	712.4	769.5	804.4	809.0	764.2	710.9	657.9	607.8	554.4	512.4	497.5	475.3	466.8	451.7	459.6	455.8	456.2	446.9	453.4	450.9	443.7	440.7	426.3	417.1	384.0	345.1	306.6	270.3	247.2	215.1	197.7	200.6	176.7	132.3	108.6	87.20	74.73	61.32	51.01	42.73	40.58	63.48	143.0	284.1	 1442	 3741	 1426	23.69	5.077	4.449	3.833	3.753	3.894	3.707	3.948	3.370	3.446	3.772	3.668	3.264	3.315	3.107	3.548	3.305	3.427	3.045	2.823	2.849	3.129	3.167
485.0	146.0	229.6	303.2	490.6	 3572	 2693	618.1	654.5	723.7	753.8	764.7	727.0	664.8	608.8	571.0	519.9	475.6	456.4	443.3	428.0	424.5	425.7	420.9	416.4	416.2	414.4	413.7	409.4	407.8	399.8	388.2	356.5	329.7	290.2	262.9	238.6	206.6	187.3	182.2	178.2	143.1	111.1	88.22	77.22	62.33	53.03	44.11	37.57	37.27	50.77	78.33	353.8	 1973	 3488	344.5	14.35	4.750	4.214	4.053	3.598	3.655	3.927	3.563	3.182	3.333	3.348	3.304	3.313	3.038	3.113	2.916	3.174	3.131	2.220	3.081	3.025	2.555
490.0	138.6	212.9	288.6	364.7	 1523	 3524	 1299	610.1	653.1	669.5	698.4	653.0	606.4	562.2	517.2	467.0	431.2	413.1	398.2	389.0	382.9	379.4	376.1	376.2	373.7	374.8	369.5	370.3	367.5	365.1	354.7	325.3	303.8	272.2	241.7	222.6	198.0	179.8	162.6	157.5	150.6	120.2	92.27	78.01	65.64	56.24	47.81	40.47	34.57	32.65	34.66	93.22	479.8	 1620	 2536	 1381	26.86	5.482	4.142	3.637	3.579	3.175	3.640	3.044	2.976	3.125	2.933	3.019	3.022	2.866	2.813	2.757	2.671	2.700	2.631	2.578	2.667
495.0	118.8	186.2	271.1	323.1	621.3	 2077	 2797	674.2	580.2	608.6	629.7	596.5	547.9	518.5	461.3	415.3	379.9	369.4	353.8	348.1	339.0	333.5	329.8	327.0	328.6	331.1	330.5	331.1	328.7	327.2	319.5	294.9	275.9	248.3	221.8	202.0	185.0	168.6	149.2	139.9	138.2	127.4	99.99	78.47	67.77	58.38	48.95	43.02	36.36	31.04	26.81	37.09	120.7	373.6	885.8	 2911	 1934	36.28	5.300	3.940	3.579	3.180	3.349	3.112	3.085	2.770	2.858	2.432	2.800	2.593	2.711	2.552	2.381	2.281	2.557	2.166	2.734
500.0	103.6	163.2	285.6	311.0	387.0	944.1	 3292	 1294	545.6	565.6	569.6	550.3	504.5	463.2	424.8	386.3	348.1	339.1	327.1	310.7	306.4	301.4	300.1	300.2	296.9	300.5	298.6	300.5	301.6	297.7	289.6	272.9	254.1	228.3	204.8	191.0	175.5	158.0	142.8	131.1	123.1	123.9	107.7	79.87	67.38	58.71	51.84	44.39	37.20	31.93	27.18	25.65	42.01	96.42	213.4	 1221	 3430	 1349	25.58	4.678	3.821	3.472	3.503	3.178	2.815	2.705	2.657	2.509	2.809	2.279	2.501	2.239	2.508	2.273	2.512	2.496	2.408
505.0	94.00	146.3	238.3	314.7	319.8	501.2	 2440	 2626	528.8	527.9	534.2	501.2	463.9	421.9	383.7	351.2	325.7	306.0	294.3	290.0	282.5	281.4	275.0	270.4	270.0	273.1	271.1	275.7	277.0	278.8	266.3	250.0	235.6	213.5	194.4	179.2	165.6	149.2	134.5	121.7	114.4	112.1	107.8	85.60	68.32	57.56	51.96	44.01	38.22	32.82	27.79	24.24	24.82	36.04	60.43	298.3	 1764	 3276	367.1	12.27	3.856	3.405	3.292	2.893	2.334	2.693	2.715	2.201	2.342	2.134	2.322	2.346	2.265	1.932	2.198	1.991	2.431
510.0	80.60	124.9	196.6	286.0	295.3	343.5	 1043	 3374	 1211	470.5	464.5	447.8	419.1	375.1	346.6	313.3	292.3	273.9	259.0	251.7	250.0	242.6	240.7	239.6	237.2	239.4	242.9	244.9	243.5	243.6	238.2	226.3	210.2	190.2	175.2	162.6	148.4	135.4	124.4	113.7	103.8	96.51	94.43	90.81	73.17	58.10	52.00	45.32	38.81	34.21	29.52	25.28	22.35	23.20	28.00	79.67	430.1	 1532	 2346	 1188	25.77	4.092	3.529	2.728	2.411	2.461	2.288	2.222	1.998	2.122	1.929	2.094	1.884	1.907	1.964	1.971	2.228
515.0	80.65	110.6	157.9	255.9	284.7	295.0	464.8	 1962	 3034	537.0	409.6	388.6	372.0	321.2	305.4	281.2	253.5	236.5	228.4	223.9	216.1	210.5	211.5	208.0	204.6	207.8	210.8	213.9	213.8	212.9	209.6	196.5	184.1	171.1	156.0	145.1	132.2	121.6	112.3	101.3	93.09	87.32	80.97	81.17	78.95	59.92	50.55	44.10	37.82	35.48	30.71	25.48	22.47	21.24	20.90	30.75	107.9	351.3	819.6	 2493	 1487	32.85	3.792	2.659	2.450	2.355	2.287	2.000	1.742	1.951	1.549	1.896	1.792	1.853	1.769	2.271	1.782
520.0	74.06	94.82	126.7	213.1	292.0	266.5	310.6	846.6	 3702	 1163	371.9	361.8	341.4	300.3	285.8	254.6	232.1	211.5	207.0	203.1	192.2	191.1	191.8	187.6	183.7	187.3	190.8	187.2	194.5	192.1	190.1	177.9	164.4	157.0	144.0	132.1	120.1	112.4	104.9	94.32	88.70	79.41	75.24	69.81	73.98	64.74	50.11	42.29	37.76	34.68	30.30	26.45	22.73	20.97	18.49	20.40	35.37	87.98	194.6	 1069	 2655	399.9	20.71	3.334	2.884	2.326	2.267	2.041	1.507	2.014	1.598	1.807	1.732	1.858	1.640	1.965	1.674
525.0	54.92	96.80	122.3	176.7	286.4	260.1	256.8	423.4	 2715	 2533	362.2	340.0	303.6	280.9	255.2	229.9	208.9	191.3	186.1	184.5	175.6	173.5	175.8	171.2	164.8	175.9	171.8	171.7	173.3	172.6	171.3	162.5	147.8	140.2	131.0	120.0	111.5	102.8	95.56	89.97	81.44	73.19	69.21	62.57	64.95	65.14	53.69	42.45	35.80	32.91	29.47	25.25	22.88	20.90	18.14	17.08	18.93	29.17	52.07	258.3	 1394	 2301	333.8	8.196	2.944	2.252	2.270	1.982	1.824	2.124	1.446	1.788	1.263	1.424	1.295	1.451	1.779
530.0	54.76	81.02	112.1	152.8	223.9	272.4	233.7	288.4	 1072	 3456	 1109	294.6	276.6	246.7	226.1	205.2	179.5	172.1	163.5	161.7	154.0	153.3	151.1	148.5	147.5	149.3	148.0	149.4	148.9	149.8	149.6	139.9	133.0	122.2	114.5	106.0	99.44	90.82	84.14	79.47	74.70	67.20	62.23	55.93	54.67	56.71	55.46	43.79	35.61	30.85	27.38	24.34	21.20	19.86	18.96	16.07	14.81	15.94	19.70	64.04	337.8	 1130	 1720	753.6	22.45	2.539	2.337	2.016	1.557	1.719	1.391	1.494	1.220	1.380	1.201	1.291	1.533
535.0	55.62	69.71	93.63	128.3	172.5	257.0	231.8	224.6	421.3	 1932	 3141	360.9	233.1	211.3	197.3	180.3	163.5	150.1	143.5	138.4	131.8	131.7	129.5	125.8	123.9	126.3	127.8	129.6	128.7	128.1	126.3	122.1	116.1	106.9	98.46	92.35	87.21	78.95	75.55	67.61	66.65	60.94	56.47	49.66	47.22	46.24	49.26	45.60	35.65	29.02	25.61	22.58	18.86	18.34	17.20	14.80	13.46	12.63	12.18	20.46	80.88	256.9	614.5	 1809	416.2	26.86	2.623	1.766	1.483	1.674	1.525	1.236	1.426	1.023	1.154	1.327	1.341
540.0	56.21	62.48	89.01	112.2	149.7	216.1	235.7	204.3	275.5	772.1	 3855	978.0	211.3	186.6	173.0	158.0	148.6	134.2	129.0	125.1	117.0	118.3	115.0	114.3	109.5	112.1	114.1	116.0	115.4	113.6	113.2	106.8	102.5	95.97	90.26	83.46	78.88	71.25	68.53	63.08	59.38	53.97	49.98	45.26	43.15	40.05	41.89	42.96	37.00	28.45	23.82	21.13	18.47	17.60	15.89	14.81	12.82	11.52	10.29	11.22	23.28	62.06	144.8	809.6	 1772	367.7	11.92	2.303	1.489	1.642	1.357	1.325	1.274	1.286	1.082	1.238	1.073
545.0	48.88	66.49	81.07	94.35	124.6	163.9	244.1	189.9	216.9	355.4	 2757	 2475	210.7	174.8	156.0	140.2	128.6	120.9	114.0	108.6	106.9	103.7	100.5	102.8	96.86	100.3	99.83	99.61	101.9	101.6	100.1	95.23	92.33	86.19	79.11	75.10	70.52	65.72	61.89	58.82	53.09	49.74	46.30	41.61	38.82	36.08	35.61	39.13	37.11	29.78	22.66	20.08	17.68	16.78	15.50	13.98	12.55	10.69	9.490	9.270	10.47	18.60	36.80	196.9	 1035	 1616	264.8	4.384	1.676	1.690	1.616	1.419	1.119	1.182	1.035	1.347	0.957
550.0	57.89	70.30	80.43	85.89	106.5	134.5	215.2	207.1	187.0	223.1	 1003	 3427	897.0	152.3	133.8	116.1	107.9	102.8	97.00	91.73	89.78	86.90	86.24	84.48	83.83	85.07	85.20	84.40	84.49	86.50	84.91	81.02	77.51	74.12	68.09	63.38	59.93	54.99	51.51	49.84	45.38	42.36	40.06	36.44	34.14	31.33	29.98	30.18	31.64	29.76	22.61	18.08	15.74	14.73	13.78	12.63	11.49	10.33	8.735	7.448	7.427	8.981	12.32	47.44	254.8	845.5	 1218	473.3	17.57	1.887	1.526	1.236	1.142	1.047	1.026	0.995	0.983
555.0	58.83	68.02	80.25	71.55	93.41	110.5	155.0	224.7	172.3	179.3	349.8	 1783	 2888	199.4	110.0	98.15	92.31	81.81	83.34	76.07	74.87	69.46	70.54	69.27	70.18	66.32	68.85	69.41	68.46	70.04	71.80	64.78	63.61	60.75	55.33	51.66	50.23	45.10	42.86	40.46	36.49	34.91	33.48	31.05	28.39	26.53	24.85	23.96	23.49	24.89	22.88	16.91	14.51	13.30	12.50	10.87	10.54	9.247	8.483	6.965	5.966	6.105	6.678	14.17	59.80	192.4	470.2	 1233	381.3	18.13	1.766	1.033	1.241	1.119	0.910	0.979	0.946
560.0	57.50	68.50	80.20	66.22	85.69	98.18	116.6	203.6	177.2	164.7	206.3	638.4	 3577	360.8	98.90	82.47	77.51	69.18	69.31	65.39	61.93	59.17	61.97	59.16	61.11	56.71	57.02	58.34	58.99	59.83	60.32	56.64	53.31	51.31	47.67	44.54	43.13	38.27	37.66	34.53	32.89	30.51	27.78	26.67	24.86	23.50	20.89	20.45	18.84	20.56	21.27	16.27	12.85	12.03	10.87	10.22	9.302	8.217	7.834	7.226	5.862	5.326	4.863	6.536	16.86	45.69	111.5	590.9	 1166	285.0	5.736	1.384	1.241	1.066	0.775	0.931	0.821
565.0	64.06	73.03	73.07	61.21	69.41	80.89	98.25	168.9	203.2	153.1	162.3	253.4	 2432	 1963	96.78	72.89	66.91	63.23	58.52	54.21	53.78	50.80	51.12	49.95	51.57	48.51	50.42	51.26	51.72	50.90	49.47	50.15	45.64	43.73	40.67	37.30	36.05	33.87	31.80	29.75	27.87	26.61	24.80	23.63	21.92	20.08	18.51	17.71	16.65	16.39	17.52	16.98	11.19	10.19	9.539	8.710	8.351	7.605	7.698	6.560	5.475	4.563	4.431	4.564	6.950	13.11	27.89	146.6	726.4	965.5	51.11	2.384	1.278	1.200	1.101	0.840	0.795
570.0	70.00	69.78	71.89	65.26	62.11	72.68	74.83	120.7	205.0	148.3	144.7	152.4	823.0	 2921	638.2	61.24	52.85	52.03	47.65	44.42	44.72	42.40	40.86	39.46	40.56	39.19	40.66	40.99	41.57	41.44	39.52	38.94	36.71	34.89	32.25	30.05	28.90	27.08	25.17	24.95	22.61	21.75	20.00	18.44	17.54	16.66	15.19	14.54	13.13	12.79	12.93	14.57	11.59	9.444	8.012	7.403	7.308	6.327	6.286	5.772	5.483	4.791	4.351	4.201	4.529	5.955	8.940	35.50	182.0	541.1	548.0	208.2	11.88	1.180	0.990	0.783	0.718
575.0	54.44	65.40	63.67	59.86	60.71	60.43	68.30	90.94	175.7	185.2	134.9	129.3	265.5	 1437	 2193	95.14	44.20	42.40	36.92	35.80	34.40	33.42	33.37	33.25	31.45	30.81	30.81	30.84	33.11	32.42	30.77	31.56	31.01	27.38	24.42	24.15	21.77	22.22	19.90	19.58	17.83	17.19	15.18	14.80	13.21	13.51	12.22	11.92	11.01	10.28	9.434	10.34	10.47	9.268	6.854	6.517	6.271	5.551	5.255	4.614	4.568	4.924	4.388	3.801	3.836	4.218	4.711	10.63	42.80	123.9	256.0	698.6	266.1	8.030	0.863	0.822	0.608
580.0	61.62	69.58	76.36	64.02	53.88	55.94	59.44	80.57	131.7	210.9	136.0	123.1	146.5	477.1	 2901	246.9	38.25	36.87	32.62	28.90	28.72	27.60	27.17	26.25	27.32	27.56	26.76	24.63	26.93	27.41	26.45	25.94	24.74	22.80	21.62	20.26	19.44	19.10	16.37	16.75	15.43	14.50	13.24	12.52	11.79	11.62	10.52	9.924	8.960	8.448	7.613	7.891	8.587	8.863	7.726	6.143	5.809	5.025	4.738	4.410	4.286	4.315	4.318	3.704	3.565	3.479	3.783	4.816	11.78	29.94	62.27	363.3	658.2	54.73	2.837	0.900	0.799
585.0	60.96	69.58	76.39	64.09	46.51	54.41	56.91	72.01	99.53	192.1	148.1	121.3	116.2	169.6	 1914	 1476	42.49	32.75	27.98	25.64	25.15	23.88	22.69	23.56	22.33	21.42	22.49	21.89	23.58	24.06	22.62	21.56	21.24	19.59	17.87	17.13	16.03	15.39	13.81	13.35	13.57	12.62	11.36	10.31	10.12	10.11	8.996	8.605	7.725	6.986	6.553	6.376	6.537	7.738	7.319	5.568	4.853	4.126	4.487	4.274	3.929	3.663	3.938	3.866	3.493	3.164	3.462	3.037	4.666	8.828	15.89	93.23	434.4	442.1	42.55	1.414	0.547
590.0	56.28	63.97	76.46	57.03	46.18	48.08	48.63	62.90	85.98	147.0	182.5	124.7	107.2	98.84	603.5	 2179	427.8	26.90	23.61	21.57	21.04	19.57	19.32	19.19	17.58	18.56	18.18	17.58	18.94	18.71	18.52	17.52	17.18	15.79	15.31	13.97	13.19	12.74	11.48	10.74	10.83	9.942	9.124	8.999	8.659	8.014	7.649	6.959	7.016	6.328	5.420	5.237	5.088	5.869	6.563	5.922	4.387	3.953	3.976	3.728	3.463	3.363	3.318	3.616	3.432	3.067	3.049	2.858	3.076	3.759	5.105	22.27	110.8	308.0	384.7	132.2	5.646
595.0	49.79	62.70	73.93	47.77	41.95	44.44	45.06	59.64	70.70	102.5	181.9	136.9	102.8	85.83	170.4	 1025	 1593	48.96	19.39	17.05	16.55	16.51	15.61	15.84	14.80	14.95	14.39	14.79	14.86	14.40	14.40	13.93	13.42	12.05	12.19	10.93	11.01	10.34	9.451	8.879	8.191	7.791	7.431	6.983	7.200	6.236	6.816	5.795	5.417	5.199	4.591	4.290	3.686	4.348	4.896	5.370	4.520	3.353	3.277	2.965	2.997	2.830	2.886	2.939	2.921	2.991	2.236	2.478	2.435	2.427	2.522	6.422	25.84	70.28	178.8	416.1	58.62
600.0	43.33	58.39	74.35	55.71	46.11	38.27	43.97	55.93	67.09	88.39	153.1	158.8	99.46	77.65	75.95	314.3	 2047	175.4	17.24	13.91	13.95	14.26	13.19	12.15	13.33	12.58	12.50	12.10	12.42	12.66	11.96	12.02	10.81	10.44	10.19	9.426	9.485	8.660	7.833	7.382	7.097	6.782	6.469	5.799	5.840	5.282	5.386	4.561	4.694	4.196	4.208	3.500	3.495	3.236	3.361	4.328	4.237	3.389	2.569	2.970	2.598	2.473	2.628	2.826	2.491	2.738	2.326	2.080	1.991	1.942	1.781	2.466	6.762	16.27	43.46	233.0	351.6
605.0	39.40	54.51	65.14	51.24	38.92	38.05	42.38	50.90	62.03	78.11	124.0	172.8	109.3	80.81	54.52	100.2	 1330	 1041	21.00	11.69	11.62	12.72	12.67	10.83	10.63	10.71	10.66	10.36	9.837	10.19	10.01	10.31	10.05	9.117	8.302	8.031	8.282	7.175	6.835	6.476	5.774	6.142	5.394	5.005	4.824	4.579	4.586	4.340	4.262	3.382	3.759	3.504	3.035	2.942	3.126	3.363	3.946	3.353	2.459	2.474	2.181	2.076	2.539	2.095	2.230	2.629	2.318	2.180	1.734	1.550	1.310	1.577	2.270	4.614	10.45	60.63	257.3
610.0	37.90	49.17	55.11	48.78	33.82	36.16	37.47	47.98	58.36	75.38	106.9	158.7	129.3	77.90	51.59	47.78	406.3	 1565	319.4	12.09	9.921	9.828	9.992	9.244	9.246	8.429	8.409	8.652	8.723	8.327	8.102	8.115	8.534	7.454	7.543	6.768	6.249	6.098	5.622	5.145	4.945	4.750	4.395	4.028	4.087	3.733	3.810	3.499	3.525	2.940	3.031	2.601	2.743	2.098	2.322	2.344	2.853	3.059	2.605	2.206	1.960	1.907	2.105	1.622	1.955	1.761	2.166	1.959	1.616	1.641	1.320	1.114	1.347	1.780	2.894	14.23	66.31
615.0	40.37	45.27	55.34	47.30	34.86	32.44	33.38	41.76	53.59	68.62	94.63	122.0	150.3	80.75	53.01	37.14	108.5	740.3	 1244	30.01	8.696	8.086	7.587	6.966	7.129	6.769	7.532	6.537	6.235	6.365	6.711	6.790	6.262	6.397	6.035	5.948	5.619	4.701	4.699	4.141	3.654	3.386	3.539	3.221	3.250	3.278	3.011	2.827	2.604	2.595	2.377	2.186	1.818	2.016	1.929	1.539	1.911	2.285	2.640	2.374	1.423	1.412	1.695	1.433	1.652	1.383	1.711	1.829	1.658	1.532	1.129	1.093	0.894	1.051	1.241	3.809	15.35
620.0	34.19	38.79	45.51	42.59	30.83	32.84	34.55	37.41	48.78	66.57	85.54	101.9	147.9	86.88	48.83	33.74	40.73	221.3	 1603	137.1	8.175	7.590	7.058	6.463	5.916	5.783	5.725	5.778	5.187	5.843	5.750	5.735	5.553	5.676	4.972	4.877	4.798	4.095	3.726	3.479	3.716	3.341	3.240	2.533	2.580	2.662	2.574	2.350	2.047	2.253	1.887	1.807	1.706	1.496	1.650	1.475	1.756	1.914	2.186	1.896	1.482	1.282	1.418	1.476	1.318	1.542	1.537	1.381	1.686	1.225	1.089	0.991	0.757	0.747	0.876	1.401	4.037
625.0	36.36	44.65	48.76	38.19	35.69	31.00	34.38	39.30	45.30	66.46	80.49	91.42	127.2	107.9	51.17	33.09	24.99	64.12	 1046	808.1	11.04	6.360	6.253	5.455	6.077	5.852	5.400	4.983	4.874	4.527	4.820	4.758	4.429	4.182	4.493	3.870	3.872	3.729	2.996	3.053	3.028	2.508	2.565	2.223	2.430	2.127	1.955	2.058	1.622	1.859	1.666	1.872	1.602	1.450	1.325	1.452	1.519	1.791	1.847	1.695	1.607	1.327	1.335	1.137	1.221	1.420	1.159	1.233	1.166	1.361	1.088	1.013	0.839	0.740	0.740	0.764	1.375
630.0	32.51	38.83	42.58	34.51	33.13	28.56	30.74	38.74	45.55	62.03	74.66	83.02	99.81	112.5	56.57	33.05	22.40	26.96	315.2	 1205	238.1	6.330	5.258	4.668	4.868	4.499	4.454	4.034	3.899	4.372	4.275	4.006	3.838	3.450	3.574	3.024	2.830	2.956	2.361	2.694	2.557	2.108	2.139	2.166	1.979	1.855	1.627	1.710	1.588	1.593	1.454	1.380	1.298	1.288	1.110	1.182	1.228	1.425	1.449	1.607	1.626	1.262	1.275	1.078	1.045	1.129	1.163	1.104	1.027	1.126	1.250	0.945	0.777	0.780	0.616	0.668	0.698
635.0	21.95	33.49	37.54	31.12	30.68	26.33	25.85	34.51	44.75	51.84	64.77	77.63	84.09	96.52	73.47	32.84	22.52	20.16	79.36	573.0	956.4	22.47	4.535	4.561	3.944	3.715	3.649	3.034	3.046	3.952	3.433	3.168	3.160	2.767	2.639	2.689	2.511	2.261	2.021	2.156	1.810	1.837	1.917	1.545	1.505	1.384	1.557	1.334	1.478	1.193	1.266	1.242	1.135	1.019	0.931	1.019	1.045	1.266	0.876	1.126	1.659	1.163	1.047	1.192	1.092	0.963	1.032	0.978	1.007	1.038	0.866	0.951	0.730	0.536	0.521	0.553	0.680
640.0	28.51	38.38	39.85	34.39	33.47	25.93	25.93	34.64	41.06	54.33	65.06	75.41	79.40	79.86	89.21	36.96	21.58	18.92	27.04	169.6	 1185	115.7	4.847	3.706	3.581	3.520	3.214	3.001	2.579	3.359	2.718	2.626	2.772	2.468	2.191	2.383	2.078	2.043	1.961	1.528	1.495	1.765	1.693	1.427	1.503	1.218	1.347	1.410	1.238	1.059	1.026	0.994	0.985	0.987	0.903	0.920	0.933	1.128	0.686	1.003	1.206	1.505	0.978	1.051	0.940	0.886	0.854	0.824	1.102	1.011	0.831	0.914	0.992	0.741	0.520	0.594	0.449
645.0	25.79	37.48	43.28	42.17	31.71	25.76	26.54	34.66	42.34	49.38	67.08	69.68	78.04	69.88	87.88	46.28	24.91	20.41	15.95	47.22	787.5	622.8	6.088	3.391	3.139	2.939	2.663	2.290	2.687	2.558	2.851	2.849	2.324	2.183	1.870	2.086	1.983	1.918	1.625	1.726	1.451	1.296	1.411	1.404	1.224	1.184	1.212	1.274	0.846	0.943	1.013	1.002	1.029	0.920	0.911	0.777	0.793	0.902	0.850	0.869	0.870	1.092	1.381	1.045	0.758	0.875	0.779	0.717	0.811	1.189	0.664	0.813	0.875	0.713	0.566	0.362	0.440
650.0	25.61	42.91	52.51	46.23	31.19	28.69	23.74	33.41	36.93	51.03	62.32	70.31	73.05	64.34	77.32	57.23	26.03	18.70	13.31	17.48	285.0	 1018	54.24	3.583	3.221	2.792	2.766	2.248	2.443	2.358	2.482	2.961	1.942	1.895	1.802	2.095	1.433	1.619	1.509	1.577	1.231	1.289	1.354	1.021	1.005	1.184	1.034	1.111	0.989	1.188	0.812	0.763	0.853	0.819	0.834	0.819	0.758	0.925	0.844	0.657	0.677	0.853	1.027	1.000	0.774	0.932	0.800	0.799	0.808	0.680	0.538	0.757	0.747	0.729	0.525	0.348	0.457
