Sample:	'1
File name:	t2025032803金星厂内雨水井.FD3
Run date:	'15:05:47, 03/28/2025
Operator:	Administrator
Comment:	'

Instrument
Model:	F-2700 FL Spectrophotometer
Serial number:	23B8-004
ROM Version:	4J14000 07

Instrument parameters
Measurement type:	3-D scan
Data mode:	Fluorescence
EX  Start WL:	220.0 nm
EX  End WL:	600.0 nm
EX Sampling interval:	5.0 nm
EM  Start WL:	230.0 nm
EM  End WL:	650.0 nm
EM Sampling interval:	5.0 nm
Scan speed:	12000 nm/min
EX Slit:	5.0 nm
EM Slit:	5.0 nm
PMT Voltage:	700 V
Response:	Auto 
Corrected spectra:	Off
Contour interval:	50.000

Peak integration
Integration method:	Rectangular
Sensitivity:	1
Threshold:	1.000

Peaks
No.	ApexEX/EM(nm)	Height(Data)
1	225.0/490.0	191.6
2	230.0/405.0	250.9
3	230.0/425.0	241.0
4	230.0/500.0	186.1
5	235.0/255.0	379.9
6	235.0/515.0	148.6
7	240.0/265.0	458.7
8	240.0/525.0	145.0
9	245.0/270.0	436.2
10	245.0/540.0	124.3
11	250.0/275.0	563.8
12	250.0/550.0	114.2
13	255.0/565.0	132.9
14	260.0/400.0	158.2
15	260.0/575.0	179.9
16	265.0/590.0	242.9
17	270.0/300.0	3424
18	270.0/600.0	259.0
19	275.0/305.0	3179
20	275.0/610.0	198.2
21	300.0/335.0	373.0
22	305.0/345.0	321.0
23	310.0/350.0	251.1
24	315.0/355.0	227.3
25	320.0/360.0	218.1
26	325.0/370.0	172.8
27	330.0/375.0	169.7
28	335.0/380.0	173.6
29	345.0/395.0	129.5
30	350.0/400.0	136.9
31	355.0/405.0	122.4
32	360.0/415.0	102.5
33	365.0/420.0	107.4
34	370.0/425.0	93.83
35	380.0/440.0	67.10
36	385.0/445.0	55.84
37	390.0/305.0	6.515
38	395.0/460.0	37.00
39	400.0/465.0	33.42
40	405.0/470.0	25.12
41	410.0/475.0	21.90
42	415.0/485.0	19.70
43	420.0/490.0	16.12
44	425.0/500.0	14.17
45	430.0/505.0	12.99
46	435.0/510.0	10.49
47	440.0/300.0	4.830
48	440.0/520.0	9.327
49	445.0/525.0	8.589
50	455.0/540.0	5.811
51	460.0/545.0	4.610
52	470.0/560.0	3.027
53	480.0/575.0	1.732
54	485.0/265.0	2.119
55	485.0/580.0	1.626
56	495.0/270.0	2.054
57	505.0/275.0	3.227
58	510.0/280.0	3.880
59	520.0/285.0	5.638
60	540.0/295.0	14.00
61	545.0/300.0	14.71
62	550.0/305.0	14.32
63	585.0/325.0	3.815

Data points
	220.0	225.0	230.0	235.0	240.0	245.0	250.0	255.0	260.0	265.0	270.0	275.0	280.0	285.0	290.0	295.0	300.0	305.0	310.0	315.0	320.0	325.0	330.0	335.0	340.0	345.0	350.0	355.0	360.0	365.0	370.0	375.0	380.0	385.0	390.0	395.0	400.0	405.0	410.0	415.0	420.0	425.0	430.0	435.0	440.0	445.0	450.0	455.0	460.0	465.0	470.0	475.0	480.0	485.0	490.0	495.0	500.0	505.0	510.0	515.0	520.0	525.0	530.0	535.0	540.0	545.0	550.0	555.0	560.0	565.0	570.0	575.0	580.0	585.0	590.0	595.0	600.0
230.0	75.45	1036	2217	523.6	14.37	3.013	3.076	2.375	2.081	1.857	2.049	1.985	1.248	1.175	0.801	0.597	0.520	0.536	0.449	0.478	0.322	0.356	0.356	0.320	0.289	0.219	0.241	0.211	0.198	0.232	0.205	0.186	0.167	0.154	0.158	0.194	0.143	0.182	0.194	0.205	0.420	0.738	0.624	0.300	0.170	0.192	1.236	4.517	6.572	3.926	1.176	0.231	0.106	0.095	0.096	0.083	0.094	0.117	0.095	0.105	0.096	0.088	0.092	0.097	0.080	0.087	0.092	0.080	0.085	0.084	0.095	0.086	0.083	0.076	0.096	0.085	0.082
235.0	165.2	302.3	1428	1868	456.4	24.58	3.510	2.298	2.405	2.478	1.938	2.116	1.373	1.269	0.698	0.662	0.675	0.533	0.433	0.448	0.372	0.322	0.273	0.370	0.236	0.225	0.228	0.199	0.242	0.208	0.212	0.156	0.213	0.277	0.157	0.155	0.150	0.234	0.230	0.151	0.247	0.358	0.599	0.748	0.559	0.309	0.417	1.279	2.711	4.366	5.534	5.363	2.068	0.406	0.088	0.116	0.134	0.122	0.091	0.092	0.108	0.081	0.084	0.118	0.096	0.093	0.090	0.090	0.098	0.091	0.093	0.082	0.102	0.066	0.091	0.096	0.115
240.0	275.4	196.8	445.9	1704	1836	363.2	14.09	3.248	3.375	2.497	2.831	1.988	1.247	1.478	0.953	0.654	0.649	0.566	0.479	0.517	0.419	0.345	0.318	0.315	0.281	0.219	0.227	0.212	0.217	0.159	0.173	0.186	0.177	0.166	0.154	0.219	0.162	0.238	0.215	0.196	0.238	0.156	0.295	0.458	0.801	0.851	0.501	0.496	0.744	1.390	3.117	7.631	8.513	5.182	1.717	0.210	0.090	0.118	0.125	0.097	0.147	0.117	0.120	0.116	0.095	0.080	0.085	0.101	0.088	0.084	0.094	0.089	0.108	0.074	0.103	0.082	0.109
245.0	197.7	305.3	186.9	625.3	2184	2049	260.6	6.983	3.452	3.007	3.306	2.775	1.731	1.693	0.931	0.723	0.548	0.660	0.442	0.453	0.447	0.334	0.460	0.354	0.362	0.302	0.281	0.234	0.259	0.231	0.203	0.207	0.200	0.171	0.201	0.143	0.137	0.252	0.251	0.181	0.232	0.094	0.182	0.192	0.538	0.869	1.053	0.840	0.426	0.440	0.857	2.753	6.614	10.24	9.211	4.481	1.151	0.190	0.098	0.115	0.124	0.103	0.100	0.104	0.107	0.094	0.098	0.096	0.087	0.103	0.061	0.089	0.104	0.077	0.092	0.076	0.099
250.0	66.61	219.7	303.0	248.6	732.2	2168	2906	801.8	34.45	4.496	4.220	3.461	2.247	1.853	1.020	0.698	0.771	0.645	0.570	0.469	0.424	0.360	0.421	0.318	0.276	0.329	0.261	0.249	0.297	0.224	0.223	0.195	0.224	0.201	0.221	0.152	0.166	0.196	0.214	0.167	0.162	0.111	0.178	0.178	0.259	0.359	0.551	0.932	1.040	0.840	0.563	0.784	1.719	3.499	6.198	9.089	11.19	8.995	4.326	1.072	0.179	0.105	0.108	0.124	0.112	0.111	0.095	0.124	0.102	0.096	0.078	0.093	0.111	0.071	0.081	0.085	0.108
255.0	24.43	65.51	224.0	379.9	258.6	570.3	2487	3005	307.0	36.24	5.268	4.213	2.458	2.055	1.405	0.913	1.030	0.622	0.583	0.573	0.557	0.393	0.520	0.448	0.344	0.352	0.277	0.264	0.296	0.233	0.243	0.240	0.233	0.234	0.195	0.179	0.209	0.218	0.172	0.141	0.174	0.162	0.190	0.164	0.169	0.170	0.206	0.384	0.624	1.080	1.382	1.213	0.763	0.921	1.528	2.272	4.483	10.20	17.41	14.97	6.283	1.093	0.192	0.155	0.148	0.128	0.102	0.123	0.105	0.089	0.065	0.093	0.108	0.091	0.107	0.090	0.088
260.0	18.24	24.51	87.43	351.1	350.5	180.7	775.4	2967	2447	259.2	16.49	5.465	2.764	2.740	1.601	1.030	1.159	0.711	0.589	0.634	0.546	0.543	0.424	0.394	0.402	0.288	0.292	0.341	0.317	0.261	0.232	0.198	0.247	0.208	0.230	0.240	0.182	0.225	0.219	0.169	0.205	0.209	0.203	0.140	0.182	0.195	0.126	0.195	0.222	0.431	0.846	1.742	1.651	0.887	0.590	0.669	1.179	2.844	8.096	16.11	20.84	14.02	4.551	0.607	0.168	0.156	0.088	0.145	0.101	0.094	0.101	0.099	0.099	0.097	0.093	0.080	0.116
265.0	16.48	17.03	30.38	156.4	458.7	251.2	210.1	1044	3727	2140	191.7	8.989	3.782	3.612	1.923	1.520	1.208	0.803	0.581	0.588	0.546	0.523	0.488	0.352	0.391	0.257	0.326	0.322	0.293	0.281	0.294	0.201	0.299	0.245	0.303	0.248	0.207	0.269	0.206	0.222	0.193	0.223	0.190	0.194	0.120	0.179	0.150	0.132	0.164	0.207	0.323	0.874	1.743	2.119	1.390	0.503	0.443	0.840	2.032	4.859	12.38	21.33	22.71	11.59	2.439	0.217	0.085	0.159	0.126	0.135	0.102	0.109	0.085	0.115	0.114	0.110	0.090
270.0	34.23	24.84	22.02	48.60	213.2	436.2	287.7	283.6	1245	3364	3974	773.4	35.60	5.389	2.551	1.960	1.303	1.030	0.789	0.681	0.621	0.628	0.504	0.445	0.343	0.364	0.350	0.300	0.289	0.284	0.337	0.245	0.360	0.334	0.334	0.366	0.257	0.267	0.291	0.218	0.233	0.246	0.232	0.201	0.194	0.234	0.161	0.148	0.191	0.143	0.172	0.310	0.610	1.162	1.989	2.054	1.673	0.921	0.758	1.301	3.059	6.426	11.70	17.43	20.39	17.13	8.890	2.185	0.339	0.144	0.137	0.129	0.127	0.117	0.127	0.177	0.125
275.0	126.4	90.60	44.81	38.02	70.66	211.4	563.8	340.5	390.2	962.0	3503	7190	977.8	31.88	4.237	2.655	1.666	1.437	1.055	0.899	0.763	0.553	0.542	0.510	0.511	0.506	0.435	0.337	0.409	0.303	0.304	0.388	0.580	0.510	0.626	0.614	0.399	0.472	0.527	0.456	0.435	0.458	0.452	0.377	0.333	0.369	0.246	0.231	0.261	0.202	0.216	0.226	0.274	0.442	0.670	1.065	2.349	3.227	2.310	0.935	1.148	1.976	3.159	4.569	6.923	14.25	26.43	26.64	12.82	3.043	0.228	0.125	0.164	0.156	0.106	0.165	0.114
280.0	416.7	250.1	133.5	81.75	70.89	119.0	433.2	765.9	373.1	477.4	1418	5983	5059	151.5	13.24	3.908	2.291	1.923	1.471	1.153	0.848	0.823	0.512	0.574	0.495	0.533	0.430	0.372	0.404	0.299	0.371	0.506	0.914	1.150	1.273	1.149	1.031	0.929	0.845	0.948	0.943	0.958	1.012	0.948	0.830	0.843	0.636	0.497	0.435	0.363	0.298	0.328	0.322	0.379	0.414	0.719	1.242	2.491	3.880	3.518	2.244	1.939	2.214	2.878	3.653	5.399	10.90	21.67	32.10	25.50	8.984	1.248	0.283	0.233	0.178	0.167	0.131
285.0	813.1	539.8	296.7	170.5	112.8	132.8	301.4	878.4	1066	960.1	1231	2510	5352	4715	112.8	7.164	3.173	2.169	1.697	1.466	1.095	0.848	0.744	0.612	0.625	0.479	0.450	0.534	0.477	0.426	0.565	0.777	1.653	2.083	2.403	2.112	1.976	1.629	1.453	1.534	1.574	1.763	1.866	1.852	1.914	1.637	1.290	1.101	0.819	0.650	0.496	0.631	0.485	0.514	0.504	0.724	1.059	1.470	2.540	4.577	5.638	4.206	3.875	4.076	4.875	5.017	6.062	8.832	15.75	26.37	30.41	19.49	5.251	0.729	0.328	0.263	0.202
290.0	1450	1034	586.8	323.2	204.0	210.0	365.9	797.8	1585	1999	1981	1961	2238	4548	3665	439.8	22.99	3.599	2.425	1.794	1.424	1.151	0.955	0.738	0.721	0.602	0.616	0.572	0.514	0.467	0.537	1.059	2.259	3.776	4.290	3.690	3.331	2.751	2.583	2.550	2.734	2.874	3.199	3.195	3.194	2.910	2.531	2.019	1.599	1.282	0.945	0.977	0.833	0.815	0.847	1.007	1.278	1.845	2.465	3.650	5.402	7.107	8.487	8.674	8.696	8.059	7.715	8.032	8.020	9.604	13.23	18.56	22.55	20.85	13.04	4.322	0.769
295.0	2012	1456	845.5	462.1	285.4	274.1	458.8	862.1	1577	2635	2999	2373	1524	1410	2481	4423	610.1	18.66	3.522	2.212	1.694	1.385	1.134	0.997	0.756	0.639	0.865	0.611	0.632	0.652	0.556	1.298	3.042	5.159	5.646	5.287	4.664	3.931	3.486	3.307	3.565	3.984	4.293	4.258	4.209	4.140	3.412	3.204	2.377	1.817	1.400	1.250	1.057	0.971	1.115	1.230	1.645	2.160	3.077	3.929	5.279	6.996	9.280	12.13	14.00	12.43	10.28	9.364	8.141	6.141	5.457	5.652	6.735	11.17	23.14	29.70	18.24
300.0	2173	1648	974.0	523.9	312.6	295.4	479.2	894.7	1569	2500	3424	2823	1492	725.8	758.2	3254	3889	89.24	8.217	3.188	2.214	1.852	1.174	1.043	0.735	0.661	0.721	0.661	0.673	0.565	0.602	1.362	3.301	5.368	6.241	5.469	5.327	4.234	3.648	3.411	3.762	4.283	4.450	4.390	4.830	4.649	3.962	3.430	2.878	1.982	1.472	1.465	1.152	1.099	1.129	1.285	1.765	2.125	3.168	3.997	5.362	6.941	8.623	11.11	13.53	14.71	13.59	10.79	8.475	5.885	4.204	3.075	2.506	3.250	7.157	16.60	28.27
305.0	2177	1687	1007	534.7	323.5	301.6	458.9	858.7	1514	2284	3106	3179	1608	608.0	298.3	978.0	3623	3042	70.69	4.547	2.495	1.982	1.597	1.275	1.018	0.891	0.708	0.643	0.584	0.540	0.633	1.455	3.491	5.526	6.515	5.620	5.215	4.588	3.657	3.650	3.789	4.180	4.315	4.702	4.747	4.332	3.897	3.576	2.777	2.089	1.614	1.571	1.257	1.150	1.082	1.207	1.794	2.179	3.050	4.029	5.192	6.448	7.931	10.32	11.64	13.25	14.32	13.18	9.926	6.339	4.090	2.764	1.686	1.497	2.233	4.404	9.868
310.0	1938	1551	950.9	491.4	305.3	273.6	413.7	753.2	1301	1960	2492	2664	1870	695.7	209.5	273.1	1038	2604	2784	302.0	16.62	3.051	1.833	1.374	1.089	1.023	0.795	0.749	0.699	0.661	0.661	1.313	3.129	4.961	5.946	5.754	4.964	4.148	3.411	3.279	3.346	3.788	3.949	4.196	4.404	4.116	3.569	3.496	2.689	1.888	1.484	1.472	1.182	0.978	1.011	1.165	1.513	1.956	2.668	3.258	4.556	5.826	7.096	8.734	9.866	10.38	10.58	11.12	10.33	8.258	5.260	3.085	1.614	1.183	1.191	1.476	2.675
315.0	1598	1290	834.7	439.4	264.3	238.2	344.4	614.2	1046	1580	1943	1963	1506	991.8	271.4	123.9	265.2	623.8	1730	3216	450.6	13.81	2.616	1.730	1.375	1.089	0.893	0.903	0.689	0.790	0.661	1.128	2.468	3.904	4.934	4.957	4.369	3.635	2.740	2.867	2.938	3.051	3.594	3.573	3.584	3.391	2.937	2.883	2.181	1.659	1.227	1.164	1.108	0.896	0.878	1.036	1.336	1.595	2.068	2.662	3.528	4.863	5.864	6.584	7.744	8.072	8.133	8.217	7.181	6.250	6.245	5.080	2.742	1.462	0.820	0.928	1.059
320.0	1396	1120	742.2	392.5	234.5	205.0	292.0	512.0	852.1	1278	1604	1573	1136	901.9	498.5	114.7	98.45	163.5	461.5	2259	2853	66.89	5.942	2.008	1.578	1.190	1.071	0.940	0.685	0.777	0.659	0.962	2.082	3.594	4.100	4.268	3.923	3.290	2.509	2.378	2.272	2.625	2.964	3.122	2.860	3.335	2.515	2.633	2.027	1.486	1.155	1.016	1.058	0.813	0.866	0.845	1.203	1.285	1.814	2.278	2.971	3.885	4.416	5.258	6.260	6.611	6.763	6.722	5.770	4.598	4.210	4.366	4.378	2.936	1.344	0.756	0.720
325.0	1249	999.6	648.2	348.1	213.3	193.4	266.1	432.5	718.9	1050	1319	1299	919.3	626.0	612.7	245.5	70.76	64.01	124.0	659.1	2608	2313	54.65	3.351	1.961	1.669	1.227	1.033	0.940	0.674	0.575	1.036	1.943	3.297	3.239	3.774	3.191	2.877	2.161	1.985	1.938	2.275	2.371	2.505	2.745	2.684	2.222	2.329	1.916	1.275	1.029	1.018	0.874	0.750	0.769	0.827	1.115	1.180	1.490	1.961	2.453	3.178	3.808	4.384	5.314	5.576	5.571	5.656	4.840	3.910	3.043	2.764	3.224	3.815	2.824	1.478	0.753
330.0	988.0	864.7	566.6	325.6	214.6	192.5	236.0	360.9	563.3	820.2	1024	1023	745.7	448.1	383.2	414.3	191.3	58.60	53.39	167.6	743.6	2010	2050	242.6	12.53	2.037	1.279	1.269	0.951	0.821	0.631	0.902	1.626	2.308	2.975	2.985	2.503	2.155	1.818	1.644	1.684	1.864	2.025	2.043	2.319	2.210	2.103	1.919	1.597	1.157	0.920	1.016	0.916	0.802	0.822	0.837	1.005	1.086	1.301	1.672	2.010	2.557	3.097	3.673	4.187	4.363	4.453	4.406	3.701	3.305	2.489	1.935	1.957	2.043	2.372	2.750	2.302
335.0	810.7	734.7	502.6	312.9	223.6	196.4	225.7	310.7	452.3	648.8	792.7	806.6	612.7	383.3	253.9	266.7	373.0	166.5	49.70	60.66	183.1	480.9	1336	2485	362.2	9.435	1.956	1.562	1.130	0.863	0.893	0.795	1.425	1.901	2.394	2.340	2.110	1.820	1.492	1.391	1.425	1.573	1.718	1.680	1.729	2.079	1.806	1.825	1.381	1.165	0.797	1.026	0.880	0.875	0.911	0.812	0.896	1.079	1.292	1.322	1.655	2.041	2.449	2.837	3.407	3.255	3.345	3.270	3.130	2.578	2.127	1.798	1.593	1.399	1.353	1.575	2.133
340.0	702.4	653.3	473.4	325.9	240.1	217.6	221.3	284.7	390.5	548.0	666.2	680.3	528.3	348.8	222.0	176.9	290.7	319.9	79.14	40.45	60.10	122.6	360.5	1808	2165	56.04	3.998	1.799	1.291	0.932	0.909	0.803	1.411	1.636	1.956	2.101	1.995	1.522	1.195	1.239	1.268	1.367	1.391	1.513	1.537	1.661	1.466	1.569	1.273	1.027	0.907	1.051	0.955	0.914	0.825	0.838	0.919	1.025	1.153	1.195	1.513	1.647	2.051	2.529	2.833	2.692	2.955	2.824	2.571	2.314	1.891	1.643	1.538	1.232	1.072	1.108	1.306
345.0	589.7	578.3	440.7	319.5	253.5	219.2	220.1	268.5	350.0	467.5	569.5	585.2	472.1	326.5	209.7	155.2	170.6	321.0	205.0	49.16	34.44	43.93	94.45	534.3	2078	1716	45.56	2.551	1.371	1.149	0.983	0.796	1.209	1.500	1.752	1.798	1.690	1.369	1.211	0.996	1.179	1.153	1.145	1.212	1.271	1.371	1.424	1.262	1.223	1.030	0.897	1.056	0.934	0.857	0.941	0.983	0.901	1.161	1.028	1.162	1.388	1.625	1.748	2.015	2.424	2.387	2.554	2.314	2.120	2.312	1.803	1.464	1.388	1.271	1.027	1.032	1.019
350.0	522.9	502.3	405.6	312.9	253.7	228.4	222.7	246.7	296.7	384.0	464.5	483.4	403.7	293.9	206.5	148.9	125.5	170.9	251.1	142.5	45.44	29.23	36.64	132.1	606.8	1553	1506	205.0	9.722	1.475	1.111	0.925	1.126	1.378	1.530	1.445	1.435	1.202	1.049	0.920	0.975	1.053	1.009	1.179	1.166	1.217	1.141	1.153	1.055	0.913	0.831	0.972	0.940	0.933	0.882	0.972	0.943	0.940	1.004	1.113	1.194	1.356	1.476	1.765	2.064	1.997	2.025	2.134	1.965	1.983	1.609	1.364	1.277	1.172	0.955	0.937	0.905
355.0	444.3	446.2	367.1	294.4	251.8	226.7	221.4	228.5	260.5	324.0	388.9	398.9	340.6	262.1	191.8	143.2	114.5	104.8	136.4	227.3	135.7	35.39	27.79	44.56	146.6	372.3	1059	1834	300.7	6.103	1.423	1.209	1.252	1.111	1.341	1.190	1.218	1.134	1.057	0.890	0.762	0.873	0.966	0.952	1.003	0.953	0.933	1.197	0.935	0.813	0.736	0.994	0.936	0.857	0.856	0.795	0.819	0.843	0.979	0.984	1.005	1.180	1.293	1.428	1.750	1.682	1.602	1.586	1.557	1.541	1.370	1.191	1.239	1.101	0.906	0.982	0.741
360.0	388.2	402.6	348.1	280.6	248.3	216.2	215.2	210.4	243.4	283.0	331.3	344.0	298.7	238.6	179.8	138.6	110.3	93.10	90.40	156.8	218.1	66.75	28.92	27.59	46.18	93.80	293.0	1443	1634	49.98	2.663	1.433	1.263	1.160	1.246	1.115	1.111	1.144	0.998	0.896	0.688	0.659	0.820	0.808	0.944	1.040	0.846	1.078	0.873	0.836	0.699	0.910	0.897	0.910	1.023	0.827	0.827	0.884	0.904	0.974	1.056	1.129	1.400	1.357	1.428	1.552	1.544	1.493	1.403	1.238	1.162	1.135	1.073	0.978	0.974	0.892	0.729
365.0	345.0	369.5	324.5	266.7	235.2	217.6	199.8	197.8	222.0	251.4	296.3	305.7	268.1	215.7	170.6	136.3	110.5	90.50	78.16	93.76	191.2	163.1	46.74	27.10	26.30	33.62	76.81	442.8	1692	1266	38.77	2.048	1.526	1.242	1.100	1.114	1.186	0.966	0.893	0.702	0.800	0.743	0.739	0.895	0.896	0.934	0.860	1.007	0.828	0.742	0.694	0.907	0.755	0.863	0.825	0.836	0.771	0.822	0.916	0.970	0.901	0.962	1.280	1.252	1.255	1.386	1.437	1.253	1.238	1.261	1.168	1.117	0.929	0.974	0.839	0.839	0.719
370.0	295.6	333.8	298.1	251.1	223.4	205.3	188.5	179.5	192.4	230.4	255.7	258.5	234.2	195.1	159.1	130.7	108.3	92.13	80.41	74.73	105.7	172.8	136.4	44.44	26.20	23.60	29.56	108.9	510.8	1268	979.9	173.6	8.553	1.486	1.224	1.087	1.103	0.934	0.856	0.754	0.682	0.748	0.652	0.729	0.825	0.763	0.714	0.805	0.800	0.638	0.692	0.902	0.763	0.786	0.793	0.802	0.930	0.796	0.838	0.775	0.727	0.854	0.999	1.135	1.170	1.136	1.157	1.122	1.176	1.108	1.002	1.057	0.910	0.820	0.810	0.723	0.796
375.0	264.9	282.1	269.4	234.2	205.6	198.4	184.5	164.0	180.6	198.0	221.7	225.9	205.2	173.4	145.8	125.8	106.9	96.33	85.60	74.54	75.23	99.39	169.7	126.8	38.74	25.09	21.76	35.60	121.9	307.2	885.4	1560	268.3	4.913	1.330	1.244	1.209	1.011	0.916	0.746	0.632	0.616	0.614	0.690	0.700	0.857	0.699	0.716	0.736	0.661	0.645	0.806	0.830	0.866	0.748	0.835	0.727	0.780	0.850	0.690	0.753	0.880	0.856	0.939	1.037	1.082	1.077	0.883	1.028	0.899	0.887	1.004	0.815	0.801	0.764	0.692	0.695
380.0	256.9	268.7	241.5	225.8	189.2	192.1	171.1	156.1	170.6	186.5	199.4	204.2	182.3	160.1	137.3	119.9	108.0	95.52	88.09	79.90	72.62	73.42	118.7	173.6	63.30	30.52	22.95	20.84	36.66	76.65	251.1	1298	1779	41.15	2.393	1.291	1.092	1.035	0.866	0.685	0.687	0.606	0.646	0.717	0.673	0.657	0.647	0.760	0.707	0.588	0.694	0.727	0.692	0.862	0.720	0.771	0.816	0.700	0.709	0.734	0.746	0.731	0.791	0.827	0.983	0.925	0.905	0.911	0.923	0.848	0.829	0.910	0.739	0.852	0.659	0.700	0.732
385.0	243.9	253.1	236.1	209.2	199.8	177.8	158.3	156.0	163.7	174.7	180.6	186.2	168.3	149.8	130.3	116.8	107.8	98.83	93.04	85.50	76.24	70.52	80.30	143.3	139.0	50.23	26.58	19.89	19.59	26.24	64.52	403.8	1991	1013	31.25	1.615	1.381	1.250	0.890	0.726	0.622	0.648	0.612	0.721	0.644	0.648	0.700	0.751	0.705	0.573	0.641	0.710	0.762	0.764	0.691	0.797	0.767	0.731	0.699	0.728	0.831	0.768	0.859	0.840	0.850	0.775	0.849	0.879	0.885	0.857	0.746	0.827	0.716	0.801	0.675	0.631	0.682
390.0	235.5	243.5	233.9	214.8	198.2	173.0	159.4	156.7	157.2	164.2	170.5	167.2	156.5	142.1	126.2	114.8	107.3	101.7	96.63	91.68	82.23	75.96	73.44	88.82	134.1	117.1	45.71	26.03	20.63	19.43	24.93	99.20	609.7	1033	748.6	132.0	6.849	1.611	1.055	0.777	0.705	0.642	0.596	0.709	0.665	0.717	0.601	0.619	0.663	0.654	0.646	0.728	0.788	0.782	0.669	0.671	0.729	0.733	0.687	0.675	0.732	0.699	0.831	0.802	0.769	0.794	0.780	0.718	0.778	0.747	0.747	0.790	0.704	0.699	0.767	0.655	0.698
395.0	224.5	235.8	226.6	226.1	199.5	178.0	160.7	157.3	154.1	156.0	160.0	152.9	148.6	133.1	121.6	112.5	105.6	103.8	102.3	96.12	87.46	81.21	77.96	72.62	84.24	129.5	110.0	42.67	25.95	21.50	19.53	33.19	144.2	251.1	676.6	995.4	200.6	11.41	1.454	0.915	0.714	0.736	0.664	0.619	0.607	0.665	0.646	0.648	0.671	0.692	0.652	0.755	0.791	0.844	0.813	0.593	0.793	0.799	0.727	0.677	0.730	0.754	0.796	0.716	0.816	0.737	0.802	0.666	0.761	0.720	0.660	0.769	0.640	0.581	0.685	0.793	0.758
400.0	220.3	226.7	232.9	225.6	205.5	168.0	156.3	151.5	158.2	153.9	154.4	147.3	139.2	132.0	116.6	111.1	104.5	103.2	101.3	97.68	92.75	86.45	81.77	72.85	69.95	93.45	136.9	78.69	34.06	25.48	20.76	20.32	41.09	62.47	192.5	824.8	888.9	219.7	2.458	0.981	0.775	0.809	0.729	0.566	0.555	0.637	0.647	0.671	0.623	0.643	0.639	0.745	0.806	0.739	0.712	0.638	0.799	0.748	0.645	0.670	0.763	0.756	0.818	0.768	0.703	0.788	0.756	0.599	0.720	0.631	0.745	0.832	0.701	0.624	0.706	0.699	0.800
405.0	211.5	224.7	250.9	238.6	211.7	166.8	165.0	149.0	151.9	152.0	151.1	143.4	134.6	125.2	113.7	108.2	104.3	102.6	103.2	100.1	95.44	89.87	85.12	76.44	69.35	71.51	113.3	122.4	52.57	30.63	24.38	19.58	19.94	21.00	48.64	257.2	899.5	1339	26.43	1.101	0.825	0.712	0.698	0.613	0.607	0.614	0.639	0.666	0.659	0.659	0.664	0.796	0.799	0.759	0.671	0.745	0.797	0.721	0.650	0.667	0.640	0.704	0.668	0.699	0.709	0.679	0.644	0.639	0.609	0.704	0.733	0.793	0.651	0.715	0.748	0.624	0.648
410.0	220.7	233.8	247.4	243.6	209.1	167.7	159.2	152.1	147.7	145.6	144.5	136.7	127.9	118.8	112.9	104.8	104.0	103.1	101.9	99.43	95.49	91.62	86.83	79.86	72.45	67.87	77.78	108.9	101.3	47.63	28.66	21.30	16.89	13.08	16.18	61.87	268.8	1130	859.3	117.5	4.189	0.895	0.763	0.684	0.637	0.661	0.702	0.710	0.745	0.667	0.675	0.878	0.883	0.849	0.715	0.684	0.760	0.705	0.702	0.724	0.638	0.672	0.685	0.675	0.692	0.628	0.669	0.708	0.635	0.627	0.690	0.746	0.624	0.767	0.687	0.674	0.593
415.0	210.2	229.6	243.1	241.6	206.4	171.1	157.9	147.5	145.8	142.3	141.5	133.9	123.6	115.4	106.4	102.4	99.60	97.71	100.5	97.91	94.93	92.15	88.41	79.87	73.98	69.02	65.87	72.43	102.5	94.23	42.21	25.03	17.74	12.98	10.43	17.97	63.76	272.8	902.5	704.6	35.12	2.940	0.957	0.815	0.679	0.739	0.691	0.771	0.660	0.656	0.751	0.925	0.849	0.813	0.628	0.776	0.719	0.730	0.724	0.688	0.719	0.754	0.651	0.736	0.752	0.648	0.701	0.596	0.653	0.593	0.623	0.646	0.654	0.706	0.697	0.674	0.652
420.0	201.0	213.6	237.7	239.7	193.0	163.0	154.2	147.5	143.7	135.5	136.9	130.5	119.9	109.4	102.9	98.65	96.92	94.84	96.51	94.56	91.96	91.78	88.03	80.72	72.67	68.66	64.32	61.39	74.97	107.4	58.02	28.86	18.95	12.32	9.409	8.919	17.63	65.50	262.2	557.3	599.8	31.28	1.841	0.908	0.778	0.772	0.683	0.730	0.696	0.709	0.791	0.820	0.809	0.768	0.598	0.700	0.702	0.601	0.626	0.760	0.699	0.670	0.638	0.660	0.687	0.600	0.668	0.642	0.586	0.612	0.613	0.599	0.600	0.659	0.556	0.658	0.670
425.0	203.1	207.0	241.0	228.1	196.9	164.7	147.0	149.2	136.1	131.3	137.4	127.2	113.7	105.4	101.7	94.53	92.08	92.56	92.78	91.27	89.20	89.00	83.96	79.44	71.89	69.74	63.91	58.20	58.25	85.79	93.83	43.54	20.24	13.10	8.914	7.582	7.936	19.46	62.48	169.5	611.3	278.1	25.74	0.970	0.694	0.743	0.725	0.782	0.649	0.743	0.687	0.799	0.760	0.780	0.689	0.690	0.703	0.651	0.701	0.716	0.615	0.610	0.635	0.640	0.617	0.537	0.599	0.601	0.622	0.593	0.567	0.546	0.548	0.620	0.572	0.651	0.641
430.0	362.1	197.4	232.6	226.3	187.8	155.8	139.5	143.9	133.5	127.8	127.9	120.0	109.4	100.9	95.40	88.37	85.87	86.87	88.20	87.56	85.03	84.38	82.41	77.12	70.96	68.11	62.93	58.24	52.71	57.74	78.98	73.07	33.37	14.98	9.771	7.584	6.767	9.607	17.41	40.70	178.7	400.5	419.3	107.8	4.595	0.804	0.740	0.734	0.733	0.621	0.694	0.832	0.818	0.704	0.686	0.662	0.682	0.585	0.641	0.693	0.670	0.602	0.604	0.583	0.561	0.635	0.595	0.588	0.550	0.566	0.514	0.643	0.512	0.587	0.529	0.508	0.572
435.0	904.0	222.3	214.3	223.7	186.2	147.4	140.7	133.8	125.7	122.2	117.0	112.1	104.2	96.35	87.67	83.57	80.68	80.17	81.76	81.58	79.68	79.47	79.86	74.71	70.16	65.73	61.94	56.26	50.02	47.74	49.99	68.99	62.31	23.59	10.75	7.870	6.326	8.165	7.596	11.72	42.06	96.57	311.1	588.3	151.4	3.868	0.875	0.829	0.785	0.659	0.634	0.771	0.769	0.639	0.652	0.582	0.679	0.716	0.666	0.710	0.634	0.579	0.556	0.562	0.546	0.573	0.681	0.522	0.628	0.568	0.531	0.550	0.563	0.443	0.509	0.561	0.525
440.0	1404	341.5	207.3	214.0	170.7	141.6	131.6	127.2	127.3	117.7	112.2	109.4	95.20	88.33	84.13	76.83	76.71	77.09	77.91	77.51	76.78	75.49	74.51	69.82	67.17	63.63	59.44	55.07	48.17	44.50	41.32	47.78	67.10	41.31	14.00	8.207	6.894	8.112	5.855	5.559	11.57	23.65	84.86	438.0	555.4	30.58	1.876	0.797	0.841	0.599	0.653	0.718	0.746	0.642	0.670	0.564	0.623	0.571	0.691	0.626	0.673	0.566	0.480	0.589	0.562	0.528	0.578	0.570	0.612	0.464	0.545	0.428	0.450	0.502	0.513	0.429	0.517
445.0	1570	716.0	199.9	201.8	156.3	132.7	123.1	120.7	121.0	113.3	107.0	101.6	91.98	83.03	80.83	73.45	72.66	73.18	73.37	73.12	72.20	70.15	69.59	67.28	63.68	60.69	57.12	52.62	46.67	42.49	37.34	35.31	50.45	55.84	24.22	9.214	7.137	7.409	5.696	4.417	5.005	7.238	20.96	128.8	500.1	456.6	22.92	1.187	0.787	0.655	0.744	0.924	0.748	0.654	0.544	0.529	0.654	0.556	0.631	0.604	0.555	0.510	0.486	0.543	0.600	0.523	0.611	0.496	0.557	0.554	0.463	0.529	0.488	0.493	0.451	0.554	0.512
450.0	929.1	1433	370.4	181.0	145.5	119.3	112.1	112.0	110.5	104.9	98.30	96.26	85.51	79.61	72.24	67.42	66.42	65.16	65.78	66.39	65.76	63.79	63.81	59.90	58.13	55.85	52.12	47.79	44.00	39.55	35.09	30.32	30.35	43.88	41.36	18.92	8.252	7.146	5.555	4.351	3.937	3.505	6.550	30.69	140.4	372.5	362.2	107.9	5.241	0.789	0.703	0.714	0.745	0.641	0.520	0.539	0.542	0.558	0.568	0.593	0.545	0.570	0.546	0.561	0.495	0.531	0.500	0.484	0.503	0.446	0.421	0.466	0.453	0.442	0.397	0.491	0.513
455.0	349.3	1398	1043	167.0	135.0	109.5	102.5	98.18	100.9	95.61	91.36	88.15	79.24	72.04	64.12	59.86	59.32	57.07	58.17	59.50	58.68	57.81	57.84	53.08	51.72	49.92	46.99	43.06	40.51	36.63	32.46	27.26	22.78	23.94	35.36	36.42	14.39	7.479	5.335	4.200	3.925	3.178	3.320	8.370	32.95	87.34	221.2	505.9	145.2	5.309	0.742	0.782	0.716	0.587	0.504	0.479	0.458	0.552	0.531	0.562	0.493	0.469	0.527	0.482	0.496	0.580	0.541	0.439	0.443	0.443	0.370	0.469	0.329	0.379	0.399	0.438	0.414
460.0	184.1	836.0	1766	279.6	114.8	98.22	100.3	90.42	90.31	85.42	81.19	80.19	73.33	64.44	59.66	54.55	54.21	53.47	52.26	53.19	52.24	50.76	51.92	48.94	47.06	45.35	41.75	39.22	37.87	34.09	29.68	25.43	20.23	18.01	22.86	37.00	25.75	9.610	5.758	4.348	3.929	3.300	2.725	3.417	8.788	21.03	56.72	311.7	459.5	110.8	2.421	0.881	0.665	0.540	0.608	0.467	0.581	0.462	0.473	0.537	0.489	0.474	0.425	0.490	0.399	0.406	0.421	0.431	0.407	0.431	0.433	0.437	0.411	0.394	0.369	0.424	0.364
465.0	148.5	368.6	1833	661.1	111.4	94.51	84.97	84.29	82.42	79.69	76.73	74.32	65.79	59.48	54.19	50.02	48.01	48.75	48.29	47.87	46.88	46.47	45.56	44.24	42.96	41.94	39.50	36.35	34.15	31.38	27.51	24.28	19.18	15.47	15.22	25.86	33.42	16.30	6.304	4.376	3.836	3.320	2.970	2.464	3.542	6.189	14.15	84.58	356.0	421.7	21.71	1.632	0.738	0.584	0.564	0.429	0.440	0.443	0.479	0.496	0.473	0.389	0.363	0.433	0.403	0.412	0.448	0.426	0.407	0.336	0.393	0.415	0.382	0.389	0.359	0.374	0.311
470.0	168.2	172.0	987.4	1307	251.9	78.15	77.61	74.02	74.01	69.73	66.77	63.83	58.26	53.18	46.68	43.60	41.45	42.05	41.34	42.34	40.33	40.48	39.62	37.76	36.94	35.99	33.79	31.96	29.85	27.59	24.62	21.42	16.95	13.78	11.85	14.33	24.13	25.12	12.44	5.124	3.680	3.412	2.892	2.639	2.421	2.722	4.450	20.22	94.06	271.9	335.9	106.5	8.013	0.663	0.515	0.491	0.404	0.455	0.415	0.426	0.437	0.440	0.377	0.420	0.369	0.350	0.335	0.390	0.353	0.352	0.350	0.397	0.356	0.295	0.266	0.393	0.285
475.0	220.8	134.4	332.2	1233	668.8	80.47	67.44	64.84	63.26	61.62	58.69	56.04	50.78	45.62	40.49	38.00	36.50	36.04	34.29	36.11	34.51	34.07	34.20	33.18	31.54	31.26	28.97	27.68	25.14	23.63	21.60	19.08	15.87	12.68	10.16	10.07	12.27	21.40	21.90	9.466	3.793	3.170	2.725	2.321	2.403	1.984	2.142	5.600	22.09	62.29	139.3	340.9	166.9	9.704	0.707	0.494	0.418	0.433	0.359	0.362	0.387	0.350	0.397	0.418	0.369	0.314	0.274	0.350	0.308	0.306	0.298	0.300	0.286	0.313	0.242	0.236	0.274
480.0	216.2	147.6	146.4	724.9	1336	183.8	61.11	61.09	59.06	54.58	53.65	52.01	45.94	40.79	38.23	34.43	31.78	31.75	31.85	31.70	30.85	31.37	31.20	29.57	27.31	27.95	26.17	25.11	23.14	21.68	19.77	17.13	14.27	12.02	10.18	8.638	8.869	13.36	21.66	15.98	5.344	3.212	2.746	2.406	2.429	2.121	1.701	2.311	5.901	14.83	33.61	169.1	370.8	138.4	3.812	0.620	0.505	0.383	0.412	0.332	0.389	0.379	0.334	0.363	0.384	0.286	0.307	0.285	0.256	0.305	0.346	0.248	0.289	0.299	0.306	0.222	0.236
485.0	174.6	181.5	100.9	313.6	1410	491.3	58.00	54.75	54.55	50.16	48.76	46.63	42.04	37.82	34.64	31.05	29.35	29.31	28.75	28.61	27.82	27.93	28.22	25.84	24.96	25.67	23.51	21.98	21.24	19.63	18.42	15.52	13.99	11.02	9.612	8.104	7.701	8.450	15.80	19.70	9.658	3.906	2.703	2.444	2.198	2.178	1.874	1.446	2.249	4.147	8.515	43.26	224.0	365.0	27.16	1.783	0.566	0.439	0.408	0.394	0.372	0.331	0.321	0.305	0.384	0.344	0.275	0.232	0.253	0.280	0.323	0.239	0.239	0.245	0.251	0.257	0.298
490.0	116.5	191.6	109.5	132.0	790.8	1181	198.4	50.69	49.67	45.53	43.20	42.17	37.67	34.97	30.60	27.50	26.84	25.47	25.25	25.51	24.68	24.42	24.62	23.13	21.94	21.51	20.65	19.22	19.18	18.05	16.36	14.06	12.67	10.52	9.039	7.859	7.046	6.881	8.807	14.72	16.12	7.915	3.328	2.463	2.039	1.964	2.064	1.870	1.448	1.816	2.700	10.41	55.86	186.6	234.9	115.3	9.649	0.612	0.389	0.399	0.347	0.307	0.300	0.282	0.306	0.274	0.287	0.246	0.261	0.267	0.251	0.252	0.203	0.221	0.239	0.231	0.242
495.0	63.08	147.0	154.6	81.58	254.1	1188	759.6	54.55	46.56	40.00	38.47	37.41	33.31	31.03	25.81	24.51	23.15	22.38	22.59	22.85	21.07	20.95	21.24	19.80	19.05	18.40	17.66	17.39	16.73	15.99	13.92	12.90	11.19	9.491	8.156	7.334	6.529	6.358	5.953	7.845	13.59	14.14	6.299	2.735	1.909	1.699	1.789	2.163	1.700	1.273	1.401	3.040	13.19	42.71	94.88	300.0	182.9	12.46	0.541	0.456	0.316	0.358	0.330	0.273	0.300	0.268	0.299	0.222	0.259	0.257	0.236	0.206	0.201	0.230	0.197	0.212	0.264
500.0	55.56	103.8	186.1	75.56	98.30	685.1	1303	146.3	42.66	36.11	35.42	34.52	29.57	27.65	23.23	21.65	20.60	19.79	20.46	19.91	18.81	17.90	18.38	18.04	16.88	15.89	16.03	14.98	14.47	14.20	12.76	11.68	10.17	8.518	7.556	7.330	6.255	5.989	5.125	5.270	8.603	14.17	10.63	3.789	1.982	1.773	1.641	1.629	1.707	1.468	1.187	1.449	3.678	10.31	22.58	129.2	324.4	147.8	5.988	0.467	0.382	0.354	0.333	0.244	0.290	0.267	0.269	0.264	0.236	0.241	0.209	0.256	0.264	0.231	0.176	0.228	0.217
505.0	48.91	66.27	183.2	109.2	58.96	275.5	1392	376.0	38.09	36.18	31.73	30.78	26.26	24.63	20.48	20.15	18.20	17.89	17.43	17.45	17.68	16.87	16.02	15.99	15.30	14.88	14.21	13.96	12.52	12.45	11.70	10.69	9.628	8.202	7.338	6.724	5.668	5.511	4.779	4.435	5.050	10.29	12.99	6.797	2.716	1.826	1.690	1.408	1.573	1.656	1.191	1.134	1.455	3.057	5.716	31.66	167.2	313.4	30.93	2.407	0.421	0.362	0.351	0.347	0.284	0.299	0.205	0.289	0.270	0.243	0.218	0.199	0.204	0.227	0.167	0.206	0.214
510.0	42.06	46.38	120.2	145.3	52.56	93.45	768.2	1216	132.1	32.34	28.70	27.32	23.26	20.34	17.94	17.98	15.82	15.60	14.87	14.55	14.67	13.80	13.95	13.52	12.85	12.38	11.95	11.83	11.01	10.47	10.24	9.339	8.444	7.255	6.295	5.879	5.238	5.076	4.384	3.897	3.853	5.313	10.16	10.49	5.393	2.290	1.566	1.395	1.329	1.446	1.474	1.220	1.034	1.364	1.970	7.802	40.39	140.9	209.4	115.2	10.00	0.441	0.342	0.280	0.256	0.255	0.212	0.299	0.199	0.216	0.214	0.160	0.178	0.206	0.150	0.218	0.169
515.0	33.33	35.78	61.51	148.6	83.94	44.52	225.5	1320	601.1	36.66	26.69	23.16	21.60	17.34	15.21	14.67	14.14	13.48	13.99	12.28	11.94	11.91	11.94	11.10	10.67	10.65	10.42	9.620	9.204	9.451	9.201	7.978	7.391	7.070	5.545	5.107	4.788	4.499	4.109	3.410	3.222	3.414	4.947	9.105	9.047	4.099	1.823	1.309	1.173	1.136	1.260	1.481	1.002	0.949	1.149	2.329	9.690	32.05	70.30	224.9	163.4	11.99	0.417	0.240	0.301	0.220	0.257	0.219	0.217	0.189	0.218	0.186	0.155	0.167	0.135	0.198	0.186
520.0	32.32	29.28	42.51	114.7	118.2	36.93	74.88	785.5	1131	106.6	24.06	20.39	19.33	15.40	14.04	13.31	12.21	11.24	11.80	11.27	10.91	10.25	10.51	9.804	9.251	9.218	8.874	8.768	8.342	8.166	7.808	7.074	6.640	6.078	5.006	4.534	4.322	4.180	3.736	3.170	2.862	2.752	3.098	5.886	9.327	6.723	2.402	1.272	1.150	1.096	0.989	1.417	1.261	1.008	0.965	1.077	2.745	7.711	16.56	90.22	249.0	116.6	5.572	0.353	0.357	0.224	0.180	0.222	0.181	0.135	0.172	0.149	0.203	0.179	0.171	0.212	0.171
525.0	27.13	25.25	35.48	75.62	145.0	46.01	36.94	303.8	1339	280.8	24.81	18.86	17.21	13.90	12.51	11.69	10.68	10.76	10.52	10.07	9.412	9.095	9.371	8.184	7.955	7.820	7.770	7.831	7.288	6.857	6.569	6.372	6.183	5.194	4.618	4.519	4.141	3.889	3.314	2.704	2.591	2.518	2.235	3.376	7.047	8.589	4.193	1.494	1.164	0.922	0.992	1.159	1.403	1.103	0.832	0.816	1.170	2.292	4.320	21.72	118.9	231.5	31.26	2.038	0.350	0.239	0.205	0.219	0.181	0.197	0.192	0.131	0.179	0.206	0.165	0.183	0.152
530.0	25.59	25.78	26.83	40.12	119.4	82.35	27.86	91.25	784.3	1171	96.73	17.18	14.76	12.49	11.31	9.673	9.508	9.064	9.184	8.656	8.176	7.945	8.101	7.436	6.905	7.108	6.283	6.387	6.219	6.314	5.631	5.631	5.241	4.483	4.110	3.831	3.641	3.467	2.965	2.600	2.409	2.286	1.881	2.270	3.704	6.923	6.503	3.103	1.204	0.958	0.844	0.882	1.023	1.331	1.037	0.738	0.709	0.986	1.441	5.303	28.44	100.3	159.0	92.12	9.478	0.366	0.192	0.255	0.212	0.219	0.196	0.152	0.162	0.163	0.148	0.141	0.117
535.0	27.02	24.44	23.27	23.17	67.38	120.4	34.77	38.88	226.9	1393	495.3	18.35	12.44	10.61	9.360	8.230	7.870	7.438	7.486	7.071	6.567	6.655	6.403	6.407	5.880	5.798	5.350	5.305	5.226	5.137	4.673	4.593	4.485	4.207	3.838	3.439	3.339	2.913	2.767	2.362	2.265	2.036	1.668	1.677	1.939	3.331	6.007	5.587	2.183	0.940	0.814	0.747	0.831	0.900	1.278	1.099	0.624	0.635	0.707	1.477	6.601	22.92	50.74	161.1	124.0	9.631	0.306	0.285	0.235	0.155	0.199	0.226	0.138	0.149	0.181	0.119	0.114
540.0	28.35	20.49	17.40	20.48	34.02	124.3	59.23	24.52	69.66	864.3	1001	59.76	12.63	9.187	8.484	7.509	7.140	6.762	6.642	6.176	5.775	5.741	5.639	5.626	5.417	4.783	4.768	4.827	4.593	4.417	4.302	4.219	3.955	3.710	3.230	3.016	3.097	2.546	2.404	2.074	1.998	1.636	1.448	1.448	1.453	1.796	3.915	5.811	3.699	1.387	0.721	0.558	0.719	0.783	0.849	1.219	0.847	0.577	0.428	0.587	1.857	5.479	11.84	62.95	181.3	87.16	4.144	0.299	0.199	0.167	0.223	0.181	0.132	0.121	0.138	0.152	0.149
545.0	23.26	17.96	19.22	15.36	21.16	97.65	88.43	20.04	32.47	344.4	1204	196.7	11.58	8.922	8.339	6.918	6.702	5.967	5.557	5.489	5.495	5.139	4.994	5.050	4.513	4.244	4.152	4.030	3.943	3.971	3.886	3.548	3.347	3.140	2.767	2.543	2.760	2.293	2.109	1.975	1.851	1.511	1.481	1.282	1.225	1.229	2.147	4.476	4.610	2.334	0.833	0.588	0.557	0.649	0.647	1.082	1.148	0.655	0.393	0.475	0.752	1.467	2.978	15.10	84.03	167.3	29.86	4.047	0.303	0.173	0.201	0.160	0.133	0.132	0.145	0.149	0.121
550.0	23.77	17.89	16.84	13.25	16.96	49.39	114.2	38.39	24.61	102.8	695.3	851.8	65.72	7.333	7.077	5.813	5.502	5.035	4.761	4.877	4.562	4.241	3.992	4.014	3.759	3.492	3.444	3.505	3.347	3.394	3.247	3.210	2.669	2.608	2.401	2.299	2.223	1.961	1.759	1.578	1.459	1.366	1.253	1.139	0.989	0.930	1.166	2.322	4.189	3.563	1.658	0.696	0.509	0.493	0.501	0.610	0.989	0.913	0.521	0.393	0.451	0.568	0.928	3.657	20.02	70.15	111.8	89.71	9.703	0.310	0.176	0.171	0.128	0.153	0.131	0.149	0.115
555.0	35.05	28.38	20.03	15.00	15.68	24.34	91.67	79.07	31.24	54.64	220.3	1107	346.6	8.955	5.708	5.155	4.937	4.250	3.836	3.667	3.820	3.614	3.056	2.860	3.146	2.938	2.967	2.469	2.661	2.791	2.524	2.639	2.438	2.120	1.920	1.903	1.860	1.798	1.620	1.365	1.294	1.117	1.006	1.147	0.966	0.840	0.877	1.083	2.149	3.512	2.707	1.153	0.550	0.426	0.404	0.460	0.544	0.867	0.896	0.424	0.305	0.421	0.497	1.129	4.760	16.07	34.60	121.9	115.6	7.317	0.239	0.192	0.123	0.149	0.118	0.144	0.109
560.0	59.55	42.28	23.47	17.73	15.77	18.81	62.10	119.8	52.21	61.07	105.3	742.4	731.8	27.83	5.393	4.520	4.313	3.402	3.432	3.057	3.342	2.760	2.549	2.615	2.668	2.454	2.540	2.061	2.229	2.209	2.130	2.337	2.134	1.740	1.870	1.651	1.443	1.573	1.379	1.297	1.110	1.066	1.015	1.009	0.782	0.803	0.688	0.818	1.113	2.409	3.027	1.818	0.660	0.448	0.362	0.382	0.365	0.672	0.988	0.691	0.426	0.454	0.396	0.651	1.428	4.011	8.220	44.32	153.7	33.33	3.014	0.180	0.141	0.179	0.117	0.120	0.100
565.0	65.52	53.18	30.71	19.67	16.09	16.66	41.11	132.9	80.91	78.04	98.15	327.5	926.1	117.3	5.927	3.966	3.537	3.106	2.954	2.716	2.733	2.497	2.401	2.099	2.121	2.081	1.966	1.905	1.964	1.962	2.037	2.018	1.950	1.880	1.829	1.516	1.504	1.303	1.316	1.246	1.097	0.972	0.961	0.928	0.852	0.847	0.660	0.635	0.711	1.338	2.520	2.334	1.113	0.469	0.355	0.312	0.283	0.488	0.674	0.952	0.562	0.502	0.500	0.537	0.852	1.401	2.393	10.71	66.07	128.6	27.67	1.109	0.165	0.161	0.157	0.114	0.148
570.0	99.35	72.60	41.10	24.42	19.34	19.14	34.44	107.5	140.6	113.3	127.3	165.4	591.4	479.8	23.11	3.738	3.064	2.788	2.433	2.275	2.183	2.138	1.930	1.765	1.746	1.593	1.578	1.728	1.593	1.509	1.450	1.549	1.542	1.537	1.508	1.291	1.352	1.137	1.119	1.052	0.966	0.814	0.858	0.907	0.776	0.687	0.591	0.588	0.574	0.677	1.398	2.019	1.661	0.804	0.405	0.338	0.288	0.406	0.483	0.807	0.932	0.765	0.613	0.612	0.741	0.847	1.082	2.936	15.84	58.86	73.02	44.47	5.109	0.198	0.202	0.115	0.119
575.0	127.4	88.24	52.51	28.65	23.26	21.84	37.14	79.74	179.9	159.4	160.6	148.1	213.0	651.6	119.5	3.634	2.609	2.318	2.047	1.827	1.905	1.592	1.708	1.298	1.482	1.352	1.450	1.309	1.200	1.181	1.176	1.266	1.376	1.390	1.289	1.108	1.094	0.990	0.934	0.829	0.931	0.727	0.821	0.814	0.803	0.654	0.583	0.551	0.484	0.509	0.637	1.233	1.732	1.405	0.611	0.419	0.323	0.389	0.411	0.536	0.861	1.121	0.793	0.788	0.780	0.843	0.929	1.298	4.007	13.51	22.69	69.25	33.67	4.318	0.197	0.134	0.096
580.0	144.4	91.68	67.02	35.01	23.74	22.30	38.32	70.56	178.4	200.1	185.5	158.8	114.9	439.0	401.2	11.49	2.323	2.133	1.874	1.584	1.505	1.468	1.622	1.195	1.191	1.269	1.383	1.068	1.005	1.196	1.217	1.064	1.232	1.364	1.235	1.143	0.954	0.899	0.828	0.918	0.798	0.844	0.730	0.702	0.717	0.632	0.620	0.479	0.523	0.372	0.410	0.612	1.315	1.626	0.960	0.390	0.392	0.387	0.370	0.435	0.629	1.140	1.075	0.860	0.800	0.803	0.850	0.995	1.372	3.350	5.450	26.71	69.86	29.41	1.688	0.136	0.107
585.0	165.5	113.6	64.71	37.68	24.31	24.69	38.25	69.86	158.1	239.1	197.4	173.8	93.89	184.5	566.2	57.97	2.215	1.831	1.747	1.413	1.209	1.351	1.370	1.155	1.213	0.959	1.225	0.947	0.871	0.947	1.037	1.009	1.137	1.288	1.311	0.940	0.953	0.890	0.896	0.865	0.808	0.752	0.632	0.717	0.717	0.572	0.563	0.562	0.443	0.388	0.373	0.432	0.907	1.548	1.172	0.621	0.328	0.370	0.325	0.457	0.554	0.897	1.349	1.255	1.036	0.989	0.922	0.902	0.832	1.196	1.512	6.430	32.25	65.65	21.59	0.798	0.115
590.0	166.5	120.8	71.56	37.37	26.04	24.92	40.28	70.64	132.7	242.9	230.7	181.3	96.95	71.24	357.6	269.9	10.00	1.671	1.401	1.286	1.153	1.068	1.122	0.962	0.932	0.955	0.904	0.878	0.755	0.803	0.770	0.830	1.012	1.059	1.208	1.009	0.918	0.750	0.743	0.768	0.702	0.684	0.613	0.606	0.640	0.594	0.543	0.471	0.448	0.318	0.341	0.366	0.474	0.874	1.101	0.894	0.437	0.357	0.347	0.451	0.528	0.735	0.932	1.283	1.272	1.041	0.880	0.897	0.783	0.672	0.639	1.634	7.751	27.49	46.32	22.98	3.317
595.0	157.3	125.1	71.81	39.95	23.57	26.40	37.03	64.26	115.5	208.9	252.7	185.3	97.78	43.75	105.6	380.2	72.27	1.816	1.289	1.194	0.910	0.938	0.891	0.912	0.855	0.747	0.614	0.642	0.691	0.681	0.706	0.694	0.830	0.974	1.019	0.908	0.832	0.700	0.695	0.616	0.634	0.691	0.636	0.649	0.610	0.518	0.535	0.413	0.430	0.274	0.292	0.286	0.313	0.389	0.882	1.090	0.738	0.409	0.315	0.427	0.404	0.710	0.701	0.946	1.404	1.162	0.917	0.913	0.630	0.530	0.407	0.611	1.926	6.312	14.15	40.16	30.68
600.0	140.4	109.7	72.73	37.12	25.43	23.17	35.22	61.06	107.8	181.7	259.0	189.6	97.81	37.46	32.71	260.1	210.4	5.140	1.260	0.991	0.822	0.802	0.741	0.863	0.612	0.607	0.631	0.575	0.580	0.522	0.571	0.588	0.729	0.921	0.908	0.844	0.816	0.652	0.609	0.498	0.571	0.636	0.637	0.621	0.534	0.511	0.432	0.391	0.301	0.302	0.308	0.203	0.242	0.246	0.494	0.964	0.891	0.497	0.373	0.349	0.472	0.633	0.820	0.865	1.168	1.274	0.954	0.799	0.602	0.512	0.385	0.318	0.643	1.554	3.376	15.10	44.16
605.0	150.9	113.8	72.87	39.18	23.46	20.73	32.00	57.68	101.8	158.3	236.5	194.7	95.01	34.78	15.34	103.0	311.8	28.01	1.112	1.126	0.973	0.700	0.619	0.685	0.595	0.619	0.532	0.466	0.530	0.433	0.576	0.516	0.732	0.724	0.758	0.796	0.843	0.704	0.586	0.502	0.532	0.499	0.590	0.489	0.499	0.485	0.344	0.387	0.314	0.330	0.270	0.219	0.216	0.238	0.297	0.672	0.869	0.703	0.447	0.376	0.471	0.618	0.611	0.745	0.991	1.098	1.210	0.816	0.667	0.508	0.343	0.254	0.308	0.487	0.906	3.617	19.54
610.0	130.0	100.7	59.72	30.85	21.65	18.33	29.68	52.84	90.84	138.3	187.3	198.2	93.26	35.68	11.32	28.37	210.3	143.6	4.808	0.996	0.834	0.603	0.644	0.571	0.515	0.556	0.533	0.443	0.408	0.386	0.491	0.531	0.522	0.657	0.698	0.712	0.739	0.682	0.488	0.416	0.485	0.416	0.487	0.464	0.460	0.392	0.372	0.376	0.329	0.250	0.227	0.211	0.196	0.201	0.206	0.329	0.660	0.733	0.601	0.393	0.414	0.544	0.534	0.744	0.751	0.803	1.144	0.991	0.636	0.478	0.343	0.240	0.215	0.263	0.337	0.937	4.636
615.0	123.8	92.56	52.06	31.84	18.61	17.45	25.72	47.77	79.35	120.8	152.9	175.4	101.5	33.46	9.761	9.359	62.21	232.5	42.41	0.903	0.809	0.552	0.629	0.515	0.480	0.400	0.538	0.367	0.466	0.347	0.443	0.465	0.429	0.574	0.654	0.608	0.514	0.587	0.525	0.468	0.447	0.385	0.405	0.410	0.454	0.412	0.368	0.328	0.348	0.216	0.170	0.222	0.198	0.129	0.201	0.247	0.372	0.634	0.630	0.444	0.437	0.491	0.528	0.548	0.634	0.710	0.762	0.947	0.762	0.442	0.270	0.295	0.180	0.187	0.220	0.315	1.162
620.0	107.0	87.23	50.40	29.71	17.63	15.43	22.41	40.79	68.25	104.1	133.5	148.6	108.5	32.75	10.23	4.933	16.94	170.7	128.0	2.205	0.715	0.538	0.618	0.460	0.472	0.332	0.362	0.318	0.362	0.255	0.368	0.391	0.400	0.534	0.477	0.509	0.503	0.416	0.436	0.402	0.337	0.295	0.355	0.387	0.375	0.295	0.319	0.276	0.323	0.182	0.130	0.199	0.190	0.128	0.157	0.162	0.287	0.439	0.660	0.538	0.420	0.451	0.438	0.486	0.539	0.690	0.595	0.728	0.782	0.582	0.306	0.242	0.174	0.109	0.168	0.175	0.373
625.0	95.92	77.50	47.40	26.64	16.46	12.90	22.82	37.37	61.99	92.06	114.1	119.7	108.7	34.58	9.877	4.186	5.701	70.15	203.5	13.37	0.810	0.523	0.538	0.435	0.452	0.380	0.374	0.333	0.427	0.328	0.240	0.330	0.427	0.475	0.465	0.510	0.444	0.438	0.405	0.447	0.312	0.258	0.311	0.390	0.289	0.327	0.285	0.250	0.242	0.186	0.186	0.178	0.164	0.160	0.145	0.141	0.188	0.274	0.426	0.530	0.485	0.410	0.355	0.443	0.442	0.620	0.552	0.614	0.626	0.712	0.418	0.180	0.175	0.176	0.126	0.137	0.170
630.0	84.20	66.78	41.52	22.80	12.74	12.11	18.94	32.10	54.52	79.60	99.08	96.76	89.57	44.29	9.959	3.753	3.228	19.16	147.8	91.98	2.343	0.500	0.535	0.414	0.427	0.380	0.290	0.330	0.341	0.259	0.223	0.302	0.365	0.411	0.440	0.419	0.399	0.419	0.334	0.414	0.348	0.319	0.301	0.295	0.271	0.287	0.225	0.216	0.217	0.172	0.173	0.140	0.151	0.132	0.133	0.145	0.170	0.221	0.294	0.401	0.504	0.409	0.342	0.444	0.398	0.562	0.487	0.535	0.558	0.511	0.459	0.308	0.148	0.161	0.119	0.125	0.126
635.0	74.40	60.59	38.22	23.28	12.37	10.06	16.15	27.62	45.16	65.69	82.28	77.24	65.55	52.27	11.95	4.005	2.483	5.820	45.89	158.8	24.20	0.612	0.468	0.328	0.366	0.349	0.346	0.247	0.364	0.227	0.235	0.235	0.399	0.353	0.347	0.330	0.395	0.432	0.283	0.318	0.322	0.355	0.263	0.210	0.332	0.285	0.232	0.225	0.179	0.143	0.171	0.166	0.174	0.135	0.126	0.135	0.155	0.171	0.200	0.266	0.437	0.406	0.360	0.435	0.299	0.474	0.374	0.404	0.388	0.362	0.381	0.374	0.226	0.182	0.131	0.105	0.148
640.0	71.25	56.32	32.24	17.69	9.748	10.09	16.39	22.12	38.53	55.44	69.11	66.95	50.78	49.97	18.54	4.114	2.563	2.694	12.45	123.0	67.52	1.106	0.609	0.407	0.331	0.330	0.313	0.252	0.284	0.177	0.243	0.240	0.294	0.261	0.314	0.320	0.364	0.351	0.274	0.210	0.313	0.376	0.227	0.217	0.259	0.192	0.254	0.155	0.149	0.135	0.128	0.151	0.142	0.141	0.135	0.120	0.160	0.140	0.158	0.173	0.344	0.394	0.435	0.372	0.334	0.342	0.343	0.351	0.280	0.344	0.253	0.303	0.320	0.142	0.132	0.131	0.124
645.0	58.91	47.92	27.63	17.46	9.183	9.181	13.36	20.51	32.75	49.52	58.90	60.62	43.50	39.09	26.55	4.778	2.797	1.966	4.053	57.22	137.5	7.330	0.508	0.387	0.368	0.401	0.298	0.294	0.195	0.253	0.162	0.255	0.252	0.204	0.311	0.300	0.308	0.285	0.225	0.182	0.207	0.358	0.203	0.234	0.226	0.223	0.209	0.146	0.182	0.116	0.123	0.157	0.110	0.115	0.142	0.151	0.105	0.158	0.162	0.145	0.264	0.345	0.453	0.362	0.330	0.354	0.297	0.308	0.332	0.284	0.245	0.265	0.326	0.172	0.121	0.084	0.147
650.0	66.84	40.25	29.87	15.53	9.958	8.286	10.95	18.02	29.29	43.64	54.19	52.79	37.06	28.09	31.14	6.486	2.666	1.842	2.130	17.64	141.0	36.35	0.495	0.393	0.345	0.341	0.283	0.262	0.254	0.227	0.182	0.257	0.255	0.280	0.286	0.213	0.288	0.303	0.207	0.185	0.164	0.219	0.305	0.171	0.201	0.215	0.147	0.149	0.190	0.133	0.107	0.144	0.081	0.114	0.138	0.117	0.102	0.141	0.132	0.186	0.177	0.287	0.356	0.277	0.321	0.301	0.251	0.325	0.279	0.295	0.227	0.164	0.203	0.280	0.213	0.097	0.117
