Sample:	'1
File name:	t2025061904秦台河236省道.FD3
Run date:	'14:30:35, 06/23/2025
Operator:	Administrator
Comment:	'

Instrument
Model:	F-2700 FL Spectrophotometer
Serial number:	23B8-004
ROM Version:	4J14000 07

Instrument parameters
Measurement type:	3-D scan
Data mode:	Fluorescence
EX  Start WL:	220.0 nm
EX  End WL:	600.0 nm
EX Sampling interval:	5.0 nm
EM  Start WL:	230.0 nm
EM  End WL:	650.0 nm
EM Sampling interval:	5.0 nm
Scan speed:	12000 nm/min
EX Slit:	5.0 nm
EM Slit:	5.0 nm
PMT Voltage:	700 V
Response:	Auto 
Corrected spectra:	Off
Contour interval:	50.000

Peak integration
Integration method:	Rectangular
Sensitivity:	1
Threshold:	1.000

Peaks
No.	ApexEX/EM(nm)	Height(Data)
1	225.0/635.0	76.42
2	230.0/345.0	2972
3	230.0/600.0	79.70
4	230.0/620.0	71.74
5	235.0/350.0	3029
6	235.0/415.0	2992
7	240.0/265.0	307.9
8	245.0/270.0	344.2
9	245.0/420.0	2941
10	250.0/275.0	456.9
11	255.0/285.0	492.1
12	260.0/290.0	501.5
13	265.0/585.0	132.8
14	275.0/615.0	145.7
15	280.0/320.0	2151
16	280.0/335.0	2097
17	280.0/625.0	123.8
18	285.0/640.0	103.3
19	315.0/410.0	1628
20	475.0/350.0	9.923
21	505.0/275.0	2.548
22	505.0/420.0	11.83
23	510.0/280.0	2.883
24	515.0/285.0	3.136
25	515.0/425.0	11.98
26	560.0/310.0	10.43
27	570.0/315.0	10.67
28	580.0/320.0	10.91
29	585.0/325.0	10.53

Data points
	220.0	225.0	230.0	235.0	240.0	245.0	250.0	255.0	260.0	265.0	270.0	275.0	280.0	285.0	290.0	295.0	300.0	305.0	310.0	315.0	320.0	325.0	330.0	335.0	340.0	345.0	350.0	355.0	360.0	365.0	370.0	375.0	380.0	385.0	390.0	395.0	400.0	405.0	410.0	415.0	420.0	425.0	430.0	435.0	440.0	445.0	450.0	455.0	460.0	465.0	470.0	475.0	480.0	485.0	490.0	495.0	500.0	505.0	510.0	515.0	520.0	525.0	530.0	535.0	540.0	545.0	550.0	555.0	560.0	565.0	570.0	575.0	580.0	585.0	590.0	595.0	600.0
230.0	65.13	887.2	1424	330.0	15.28	7.097	5.578	5.117	4.465	3.664	3.636	3.407	3.254	2.548	2.276	1.906	1.703	1.522	1.447	1.293	1.221	1.117	1.021	0.978	0.959	0.818	0.847	0.858	0.749	0.653	0.629	0.601	0.559	0.527	0.476	0.482	0.459	0.426	0.398	0.396	0.365	0.416	0.429	0.355	0.334	0.329	1.316	3.892	4.794	2.612	0.889	0.328	0.263	0.236	0.248	0.255	0.249	0.274	0.264	0.252	0.285	0.251	0.266	0.265	0.258	0.270	0.271	0.245	0.286	0.256	0.244	0.251	0.252	0.251	0.266	0.271	0.268
235.0	75.71	271.1	1142	1532	395.0	20.87	6.772	5.202	5.102	4.148	3.736	3.028	3.025	2.499	2.126	1.850	1.727	1.414	1.425	1.324	1.362	1.239	1.001	0.950	0.984	0.940	0.947	0.760	0.761	0.689	0.733	0.603	0.487	0.526	0.437	0.424	0.453	0.475	0.398	0.343	0.411	0.374	0.409	0.430	0.443	0.341	0.587	1.272	2.657	4.094	5.081	4.751	1.658	0.412	0.269	0.271	0.252	0.232	0.241	0.291	0.299	0.250	0.271	0.254	0.235	0.270	0.279	0.239	0.306	0.307	0.222	0.212	0.279	0.273	0.336	0.229	0.318
240.0	110.2	108.1	400.3	1623	1638	307.3	12.51	6.319	5.230	4.665	3.699	3.305	3.119	2.419	2.230	1.993	1.796	1.426	1.562	1.281	1.322	1.278	1.012	0.951	1.055	0.887	0.923	0.681	0.823	0.756	0.721	0.597	0.506	0.562	0.472	0.495	0.360	0.534	0.381	0.348	0.392	0.374	0.406	0.379	0.558	0.482	0.432	0.568	0.849	1.547	3.726	8.170	7.827	4.379	1.425	0.391	0.245	0.291	0.246	0.301	0.272	0.304	0.280	0.238	0.215	0.306	0.260	0.262	0.341	0.323	0.245	0.267	0.320	0.290	0.259	0.267	0.302
245.0	109.6	123.5	136.1	653.1	2152	1515	196.9	7.831	6.229	4.913	4.569	3.427	3.777	2.946	2.475	2.223	2.000	1.847	1.444	1.491	1.561	1.064	1.105	0.903	0.996	0.854	0.849	0.763	0.765	0.679	0.685	0.515	0.448	0.530	0.484	0.469	0.368	0.427	0.373	0.485	0.401	0.313	0.351	0.358	0.518	0.550	0.550	0.641	0.445	0.567	1.080	3.462	7.436	10.30	8.665	3.727	0.825	0.351	0.307	0.293	0.315	0.261	0.300	0.212	0.269	0.283	0.264	0.243	0.323	0.274	0.270	0.285	0.379	0.285	0.240	0.282	0.328
250.0	59.83	122.7	169.2	202.9	789.9	1905	2017	563.8	32.46	5.620	5.173	4.178	3.823	2.916	2.631	2.075	1.896	1.825	1.515	1.495	1.382	1.202	1.183	0.941	0.989	0.906	0.877	0.775	0.833	0.693	0.806	0.625	0.537	0.562	0.505	0.466	0.356	0.404	0.389	0.417	0.384	0.381	0.346	0.328	0.380	0.401	0.471	0.688	0.698	0.607	0.549	1.038	2.090	4.023	6.679	9.246	10.57	8.151	3.741	1.048	0.304	0.279	0.282	0.239	0.274	0.271	0.272	0.273	0.295	0.284	0.278	0.300	0.283	0.287	0.251	0.303	0.337
255.0	37.51	52.42	154.7	236.4	233.3	533.0	2032	2707	291.6	24.82	6.842	4.924	3.770	3.944	2.548	2.065	1.841	1.728	1.551	1.459	1.365	1.225	1.149	1.054	1.052	1.143	0.896	0.837	0.920	0.728	0.718	0.684	0.576	0.537	0.484	0.512	0.383	0.438	0.378	0.378	0.363	0.357	0.395	0.382	0.331	0.400	0.317	0.421	0.488	0.771	1.001	0.955	0.889	1.153	1.774	2.540	5.046	11.73	16.90	13.41	5.006	0.954	0.245	0.280	0.291	0.327	0.263	0.281	0.275	0.274	0.251	0.318	0.290	0.304	0.248	0.320	0.319
260.0	34.99	30.31	73.95	234.9	215.8	168.4	703.3	2883	2357	220.7	14.75	6.991	4.544	3.854	3.393	2.302	2.245	1.903	1.632	1.424	1.381	1.401	1.138	1.004	1.036	1.128	0.976	0.830	0.846	0.877	0.731	0.694	0.672	0.541	0.578	0.504	0.352	0.464	0.377	0.490	0.439	0.397	0.418	0.452	0.410	0.333	0.350	0.314	0.347	0.470	0.802	1.334	1.202	0.789	0.739	0.890	1.489	3.690	9.228	17.13	19.45	12.00	3.413	0.511	0.297	0.293	0.278	0.259	0.261	0.271	0.243	0.376	0.265	0.291	0.291	0.348	0.364
265.0	33.74	24.38	37.11	138.4	307.9	171.1	208.0	1130	4991	1918	163.0	8.710	4.918	3.994	3.418	2.997	2.247	2.168	1.823	1.479	1.528	1.290	1.203	1.144	1.034	1.208	0.941	0.937	1.037	0.891	0.748	0.625	0.661	0.562	0.539	0.444	0.363	0.492	0.417	0.436	0.355	0.329	0.420	0.401	0.376	0.419	0.296	0.315	0.292	0.370	0.445	0.843	1.458	1.551	1.065	0.664	0.706	1.232	2.523	5.769	13.75	22.45	20.58	9.874	1.935	0.327	0.394	0.255	0.287	0.308	0.231	0.379	0.271	0.326	0.272	0.328	0.292
270.0	43.07	35.40	31.27	63.78	199.4	344.2	233.8	311.7	1780	3231	3155	628.6	27.10	5.888	4.413	3.595	2.787	2.238	1.976	1.799	1.605	1.329	1.284	1.353	1.068	1.111	1.056	0.819	0.941	0.889	0.775	0.679	0.689	0.579	0.583	0.496	0.482	0.518	0.408	0.408	0.406	0.367	0.476	0.377	0.421	0.419	0.345	0.357	0.311	0.283	0.325	0.512	0.739	1.184	1.653	1.792	1.484	1.041	1.066	1.706	3.612	7.368	12.85	19.15	20.72	16.35	8.029	1.806	0.395	0.325	0.279	0.320	0.292	0.323	0.290	0.296	0.286
275.0	89.61	78.03	63.36	62.80	107.7	250.2	456.9	250.3	450.8	879.3	3239	4882	806.2	22.15	5.465	4.615	3.235	2.582	2.070	1.916	1.667	1.529	1.507	1.393	1.153	1.128	1.145	1.124	0.938	0.876	0.855	0.709	0.701	0.659	0.613	0.565	0.629	0.481	0.566	0.391	0.439	0.468	0.461	0.458	0.481	0.564	0.410	0.429	0.426	0.357	0.353	0.435	0.565	0.669	0.934	1.276	2.245	2.548	1.654	0.928	1.160	2.047	3.334	4.923	7.752	17.44	29.84	25.74	10.41	1.871	0.383	0.390	0.326	0.358	0.279	0.293	0.263
280.0	139.2	140.3	108.7	78.51	97.81	156.9	378.3	398.3	212.3	260.4	1045	4697	4372	138.8	11.11	5.253	3.996	3.077	2.321	2.074	1.843	1.708	1.544	1.396	1.344	1.220	1.062	1.003	1.031	0.919	0.937	0.818	0.689	0.662	0.734	0.644	0.671	0.527	0.618	0.527	0.417	0.511	0.523	0.513	0.505	0.619	0.567	0.581	0.536	0.442	0.396	0.449	0.522	0.621	0.646	0.848	1.351	2.121	2.883	2.105	1.142	0.925	1.246	1.622	2.228	4.861	12.56	25.26	32.07	22.50	6.545	0.889	0.346	0.354	0.404	0.294	0.361
285.0	197.0	196.2	163.3	103.3	100.8	122.8	210.4	492.1	316.1	166.3	331.7	1667	5435	3256	98.43	7.261	4.561	3.154	2.873	2.135	1.730	1.813	1.727	1.562	1.340	1.266	1.110	0.948	1.035	0.846	1.003	0.769	0.731	0.742	0.712	0.776	0.629	0.708	0.580	0.603	0.504	0.545	0.592	0.580	0.612	0.766	0.722	0.762	0.720	0.514	0.490	0.554	0.518	0.548	0.695	0.739	0.902	1.115	1.934	3.136	2.745	1.637	0.866	0.945	1.157	1.682	3.500	7.552	17.07	30.10	31.37	16.95	3.698	0.597	0.443	0.372	0.347
290.0	253.2	283.8	246.7	163.1	120.1	130.2	154.9	269.3	501.5	424.7	252.0	533.0	1823	3896	2840	397.6	20.67	4.467	3.299	2.493	1.960	1.823	1.727	1.681	1.390	1.365	1.127	1.023	0.997	0.897	0.996	0.828	0.751	0.698	0.777	0.787	0.845	0.736	0.694	0.654	0.642	0.665	0.694	0.683	0.780	0.916	0.903	0.937	0.894	0.739	0.692	0.723	0.739	0.622	0.653	0.780	0.850	0.877	1.110	1.580	2.247	2.940	2.961	2.034	1.519	1.265	1.794	2.624	4.827	8.870	14.90	21.43	24.61	21.17	11.94	3.528	0.589
295.0	330.0	379.5	344.1	233.8	168.4	162.3	176.8	217.0	335.3	693.5	618.9	418.0	635.2	1085	2789	4403	539.1	18.87	4.537	3.057	2.471	2.101	1.847	1.813	1.586	1.411	1.114	1.072	1.117	0.998	0.958	0.755	0.722	0.680	0.898	0.809	0.901	0.824	0.750	0.756	0.756	0.714	0.752	0.866	0.893	1.136	1.049	1.123	1.147	0.885	0.892	0.961	0.865	0.848	0.824	0.909	1.002	1.055	1.174	1.165	1.424	1.861	2.546	3.967	4.290	2.627	1.951	2.118	2.449	3.205	4.371	5.869	7.460	14.82	28.36	31.03	17.77
300.0	388.5	484.7	447.5	321.9	246.3	237.5	281.9	322.2	356.1	676.6	1082	767.5	593.3	563.0	994.6	3890	3793	86.42	12.24	4.297	3.091	2.525	2.143	1.808	1.561	1.421	1.326	1.054	1.139	1.009	0.812	0.888	0.778	0.859	0.926	0.894	0.971	0.940	0.876	0.819	0.813	0.746	0.758	0.876	0.973	1.110	1.222	1.352	1.235	1.203	1.099	1.190	1.122	1.129	1.077	1.204	1.514	1.436	1.639	1.543	1.727	2.077	2.449	3.151	4.946	5.659	4.669	3.309	3.156	3.080	2.853	3.143	3.275	5.177	10.40	21.33	34.11
305.0	539.9	636.0	609.8	473.3	384.0	397.7	458.5	600.3	764.7	1039	1480	1583	1142	849.5	796.4	1588	4513	2963	69.37	7.653	3.897	3.452	2.282	2.226	1.837	1.627	1.472	1.137	1.287	1.102	1.083	0.883	0.890	0.894	0.846	1.076	0.961	0.915	0.974	0.913	0.907	0.929	1.033	0.988	1.216	1.521	1.545	1.964	1.813	1.643	1.516	1.621	1.624	1.636	1.599	1.800	2.240	2.532	2.750	2.934	3.408	3.629	4.398	5.023	5.841	7.204	8.283	7.706	6.286	5.748	4.786	4.580	4.430	4.742	5.443	7.852	15.34
310.0	650.5	826.1	814.7	668.9	560.8	575.4	705.6	870.8	1055	1360	1688	2044	1922	1338	1040	960.6	1878	3232	2849	289.5	16.80	4.108	2.640	2.558	2.376	1.819	1.825	1.316	1.309	1.266	1.134	0.941	0.943	0.894	0.857	0.996	1.087	1.136	1.035	1.060	1.115	1.195	1.119	1.191	1.469	1.896	2.034	2.555	2.425	2.071	2.029	2.284	2.190	2.259	2.201	2.446	2.940	3.354	3.703	4.050	4.449	4.928	5.792	6.535	7.031	7.687	8.371	9.624	10.43	9.506	8.011	6.569	6.210	5.978	5.507	5.586	6.717
315.0	840.5	1032	1088	868.1	719.2	733.4	882.7	1030	1195	1500	1799	2062	2139	1899	1317	954.1	1070	1092	2140	3453	428.0	14.51	4.149	3.204	2.249	1.968	1.932	1.639	1.389	1.312	1.094	1.081	0.956	0.942	0.863	0.980	1.063	1.170	1.091	1.093	1.237	1.295	1.275	1.329	1.703	2.307	2.450	2.950	3.054	2.768	2.610	2.920	2.801	2.777	2.782	3.123	3.567	4.241	4.278	4.779	4.901	5.634	6.250	6.982	7.560	8.334	8.677	9.654	9.750	10.35	10.67	9.829	8.485	7.158	6.417	6.009	5.578
320.0	925.0	1273	1288	1030	842.1	824.4	960.6	1107	1272	1579	1895	2137	2151	2083	1655	1058	955.0	635.5	685.1	2681	3036	65.99	8.317	4.291	2.921	2.172	1.861	1.813	1.589	1.386	1.159	1.102	1.026	0.983	1.056	1.011	1.033	1.256	1.214	1.199	1.216	1.443	1.435	1.572	1.813	2.295	2.762	3.548	3.619	3.271	3.091	3.620	3.279	3.110	3.072	3.317	4.023	4.231	4.708	5.269	5.358	5.669	6.881	7.162	8.137	8.750	9.134	9.452	10.21	10.24	10.39	10.55	10.91	9.441	7.518	6.172	5.708
325.0	1033	1492	1595	1256	943.6	865.2	1004	1157	1283	1553	1865	2112	2111	1965	1842	1204	942.1	561.7	316.3	861.9	3021	2408	54.93	6.324	3.376	2.514	1.982	1.966	1.525	1.535	1.173	1.279	0.988	0.870	1.052	1.009	1.036	1.218	1.203	1.254	1.223	1.495	1.438	1.773	2.144	2.743	3.584	4.026	4.285	3.904	3.624	4.176	3.676	3.594	3.431	3.515	4.186	4.453	4.975	5.296	5.464	5.600	6.614	7.123	7.987	8.452	8.905	9.645	9.995	9.758	9.929	9.817	10.06	10.53	9.356	7.393	5.798
330.0	1223	1815	2159	1874	1387	1054	1047	1175	1286	1528	1827	2052	2073	1897	1724	1422	1078	618.5	320.8	346.5	961.1	2283	2351	242.4	16.26	3.501	2.447	2.326	1.641	1.739	1.384	1.287	1.085	1.041	1.009	0.987	1.136	1.226	1.146	1.252	1.276	1.462	1.694	2.054	2.573	3.208	3.976	5.115	5.871	5.418	5.430	5.923	5.273	4.819	4.201	3.856	4.148	4.674	4.988	5.340	5.375	5.719	6.564	7.342	7.886	8.142	8.771	9.490	9.731	9.503	9.864	9.820	9.319	9.594	9.079	8.844	7.761
335.0	1430	2169	2734	2641	2049	1411	1188	1256	1356	1581	1832	2049	2097	1957	1720	1431	1330	784.6	446.9	332.7	392.6	652.4	1656	2982	377.8	15.01	3.790	2.925	2.222	1.952	1.592	1.402	1.239	1.134	1.036	1.077	1.068	1.166	1.245	1.251	1.246	1.438	1.652	2.223	2.791	3.390	4.562	6.020	7.043	7.107	7.454	8.461	7.968	6.968	5.871	4.747	4.945	5.198	5.365	5.596	5.856	5.790	6.790	7.346	7.880	8.380	8.821	9.552	9.845	10.13	10.03	9.684	9.590	9.067	8.896	8.588	8.513
340.0	1471	2273	2963	2915	2337	1561	1250	1291	1387	1561	1801	1986	2047	1932	1715	1405	1307	1004	556.3	385.4	311.4	302.4	544.1	2247	2660	286.5	7.876	3.015	2.655	2.194	1.895	1.507	1.223	1.224	1.152	1.178	1.126	1.218	1.215	1.192	1.365	1.387	1.900	2.253	2.815	3.690	4.878	6.283	7.731	7.680	8.240	9.547	8.704	7.808	6.607	5.105	5.390	5.280	5.531	5.736	5.952	6.136	6.866	7.467	7.826	8.199	8.538	9.096	9.906	9.614	10.21	9.672	9.660	9.367	8.845	8.314	8.194
345.0	1438	2347	2972	2951	2376	1639	1293	1319	1390	1554	1737	1920	1952	1857	1661	1377	1201	1055	705.6	449.9	336.5	264.1	264.3	732.4	2552	2148	49.73	5.226	3.285	2.448	1.768	1.494	1.351	1.269	1.118	1.079	1.077	1.217	1.151	0.997	1.461	1.367	1.908	2.178	2.834	3.658	4.675	6.592	7.574	7.624	8.471	9.803	9.055	8.026	6.692	5.437	5.476	5.271	5.456	5.971	5.893	6.307	6.791	7.029	7.907	8.289	8.130	8.710	9.644	9.349	9.794	9.381	9.090	9.202	8.616	8.468	7.951
350.0	1419	2208	2930	3029	2525	1747	1381	1383	1414	1550	1705	1827	1858	1776	1619	1376	1189	1000	849.5	640.2	433.7	331.8	271.3	307.7	801.0	1897	1962	216.3	14.96	3.228	2.207	1.674	1.497	1.310	1.212	1.207	1.222	1.196	1.168	1.145	1.388	1.521	1.799	2.164	2.837	3.515	4.538	6.195	7.304	7.670	8.251	9.923	9.384	8.650	7.217	5.949	5.684	5.681	5.824	6.168	6.490	6.421	6.668	7.287	7.647	7.835	8.064	8.236	8.611	8.638	9.067	9.081	8.881	8.921	8.458	8.438	8.112
355.0	1344	2132	2800	2979	2589	1859	1497	1457	1513	1575	1685	1771	1776	1705	1582	1373	1213	1025	864.6	811.5	603.6	440.6	352.4	278.7	313.0	523.3	1323	2392	342.9	14.57	3.433	2.244	1.712	1.408	1.239	1.193	1.202	1.166	1.072	1.282	1.319	1.431	1.915	2.106	2.735	3.592	4.519	6.197	7.015	7.242	7.882	9.691	9.469	9.243	7.293	6.079	6.136	5.847	6.562	6.611	6.578	6.618	6.873	7.200	7.262	7.510	8.027	8.333	8.262	8.712	8.510	8.662	8.767	8.730	8.200	8.211	8.273
360.0	1323	1993	2608	2848	2554	1919	1589	1539	1557	1611	1677	1723	1735	1660	1543	1366	1230	1057	903.6	836.5	769.8	559.2	432.0	328.5	255.5	238.0	417.4	1795	2232	264.2	7.951	2.965	2.079	1.653	1.294	1.294	1.122	1.339	1.184	1.317	1.434	1.612	1.776	2.124	2.746	3.275	4.253	5.472	6.427	6.997	7.509	9.292	9.062	8.992	7.331	6.425	6.499	6.287	6.542	6.751	6.655	6.875	7.183	7.641	7.411	7.335	7.897	8.202	8.176	8.132	8.180	8.442	8.595	8.715	7.766	7.936	8.073
365.0	1295	1899	2489	2721	2489	1951	1659	1609	1627	1664	1691	1705	1701	1616	1516	1370	1243	1102	962.0	862.8	841.6	724.9	532.0	408.7	301.8	226.8	207.2	592.1	2167	1873	46.40	5.103	2.699	1.892	1.532	1.449	1.184	1.264	1.185	1.328	1.374	1.546	1.735	2.054	2.574	3.114	4.012	5.363	6.136	6.277	7.225	9.231	8.898	8.816	7.261	6.513	6.904	6.738	6.992	6.935	6.923	6.963	7.354	7.568	7.743	7.538	7.707	7.622	8.033	8.009	8.285	8.188	8.436	8.095	7.735	7.713	8.014
370.0	1275	1873	2353	2606	2452	2025	1782	1725	1717	1729	1733	1717	1677	1603	1516	1390	1289	1176	1065	964.5	896.8	859.7	741.6	554.3	415.9	313.0	234.1	261.0	695.1	1684	1740	194.8	13.44	2.944	1.999	1.520	1.435	1.375	1.400	1.235	1.347	1.598	1.761	2.142	2.529	3.200	3.740	5.082	6.070	6.120	6.816	8.750	8.878	8.811	7.574	7.031	7.243	7.163	7.373	7.347	7.275	7.489	7.562	7.868	7.864	7.586	7.780	7.565	7.797	7.800	8.174	8.039	7.984	8.000	7.900	8.296	8.292
375.0	1269	1844	2264	2546	2466	2116	1915	1860	1849	1816	1791	1757	1687	1609	1515	1419	1333	1250	1172	1088	1003	938.1	909.8	762.6	566.3	439.0	330.6	263.0	290.5	479.1	1212	2012	292.3	12.56	3.323	1.965	1.746	1.554	1.575	1.449	1.549	1.674	1.766	2.208	2.741	3.271	3.897	5.033	5.717	5.962	6.638	8.273	8.681	8.865	8.063	7.328	7.876	7.671	8.004	7.887	7.956	7.888	8.250	8.286	8.317	7.750	7.881	7.327	7.760	7.702	8.174	7.695	8.234	8.368	8.532	7.918	8.980
380.0	1336	1826	2258	2501	2467	2210	2029	1959	1939	1891	1854	1788	1701	1621	1525	1442	1371	1311	1242	1173	1095	1023	972.3	913.7	714.7	542.8	426.4	319.0	249.4	227.5	389.6	1547	1777	217.1	6.550	2.991	2.106	1.705	1.514	1.582	1.580	1.893	1.793	2.196	2.882	3.332	3.769	5.178	5.567	5.760	6.518	8.389	8.245	8.950	8.461	7.812	8.278	8.081	8.191	8.504	8.372	8.242	8.256	8.515	8.420	8.299	7.958	7.822	7.823	7.978	8.078	8.031	8.053	8.440	8.456	8.740	8.331
385.0	1358	1889	2281	2510	2494	2295	2129	2071	2036	1977	1907	1820	1714	1640	1559	1468	1411	1371	1313	1255	1188	1116	1047	995.4	874.4	666.1	520.6	399.0	294.2	212.8	188.0	508.7	1718	1523	37.26	4.703	2.841	2.013	1.676	1.736	1.612	1.808	1.883	2.108	2.894	3.529	3.961	5.086	5.729	5.960	6.625	7.965	8.708	8.956	8.939	8.040	8.484	8.338	8.605	8.859	8.641	8.693	8.918	8.938	8.638	8.578	8.341	8.115	7.931	7.986	8.061	8.261	8.313	8.738	8.274	8.587	8.723
390.0	1515	1992	2378	2594	2582	2434	2308	2244	2180	2100	2018	1895	1767	1677	1584	1504	1464	1445	1403	1360	1307	1246	1168	1086	1011	865.8	672.8	524.2	396.1	286.2	201.7	213.6	549.9	1377	1427	152.9	11.70	3.370	2.463	1.991	1.823	2.063	1.956	2.477	3.013	3.806	4.332	5.350	6.091	5.907	6.726	8.133	8.928	9.253	9.149	8.630	9.308	9.258	9.433	9.420	9.433	9.287	9.674	8.952	8.854	8.932	8.357	8.430	8.103	8.189	7.944	8.374	8.289	8.828	8.361	8.618	9.036
395.0	1621	2111	2517	2674	2710	2576	2506	2421	2346	2261	2156	2008	1842	1738	1639	1564	1521	1513	1492	1463	1427	1384	1314	1222	1126	1032	879.4	678.5	529.5	393.7	280.8	202.4	222.2	385.0	1038	1590	237.1	10.27	3.547	2.613	2.280	2.319	2.521	2.569	3.588	4.302	4.893	5.535	6.636	6.150	7.101	9.003	9.200	9.542	9.506	9.221	10.18	10.12	10.20	10.23	9.916	9.953	10.32	9.659	9.533	9.621	8.961	8.471	8.729	8.761	8.402	8.797	8.278	8.780	8.671	8.598	9.172
400.0	1705	2273	2677	2783	2788	2706	2619	2560	2499	2399	2292	2108	1945	1807	1675	1603	1566	1558	1553	1541	1501	1470	1417	1334	1227	1119	1019	824.4	642.4	476.6	359.9	249.0	186.9	175.7	336.6	1266	1323	37.93	6.481	3.327	2.415	2.497	2.654	2.897	3.674	4.510	5.220	6.116	6.677	6.698	7.274	9.444	9.616	9.648	9.793	9.525	10.47	10.55	10.80	10.58	10.65	10.30	10.91	10.39	10.12	9.693	9.550	9.128	9.045	8.950	9.003	8.862	8.842	8.972	8.608	8.902	9.491
405.0	1781	2377	2780	2886	2842	2828	2723	2666	2602	2510	2396	2201	2019	1861	1725	1632	1600	1588	1598	1596	1566	1539	1496	1432	1324	1201	1102	964.3	756.5	582.3	439.0	312.1	218.8	158.6	157.9	424.6	1327	996.2	31.92	4.926	3.100	2.859	2.857	3.057	3.687	4.536	5.374	6.476	7.168	6.986	7.461	9.701	9.933	9.948	10.30	9.825	10.80	10.88	10.86	10.88	11.29	10.42	11.29	10.92	10.61	10.03	9.731	9.665	9.254	8.705	9.007	9.081	9.038	8.966	8.789	9.229	9.896
410.0	1883	2468	2888	2948	2881	2902	2810	2769	2695	2605	2492	2296	2069	1900	1751	1654	1608	1607	1619	1628	1611	1597	1560	1506	1408	1290	1174	1058	901.8	701.8	532.8	389.2	277.8	195.2	147.7	173.0	431.9	939.0	914.2	137.1	9.215	3.238	3.050	3.286	4.014	4.849	5.543	6.705	7.534	7.134	7.811	9.497	10.05	10.14	10.40	10.48	11.20	11.50	11.38	11.51	11.45	11.11	11.23	11.41	10.88	10.53	9.935	9.655	9.370	8.833	9.013	8.768	9.019	9.171	9.101	9.420	9.792
415.0	1896	2527	2910	2992	2933	2930	2893	2813	2716	2654	2529	2298	2066	1876	1724	1624	1565	1579	1606	1621	1612	1596	1580	1527	1444	1332	1216	1089	962.5	803.5	605.1	449.1	324.3	235.3	169.3	132.9	159.6	258.6	654.4	1059	196.5	7.568	3.820	3.700	4.127	4.896	5.351	6.729	7.639	7.366	7.621	9.638	9.799	10.12	10.46	10.73	11.35	11.75	11.79	11.88	11.61	11.34	11.27	11.22	11.06	10.96	9.869	9.685	9.242	8.550	9.421	8.621	8.609	9.020	8.754	9.147	9.258
420.0	1916	2516	2892	2962	2893	2941	2873	2809	2741	2650	2480	2282	2021	1824	1677	1571	1540	1543	1575	1586	1577	1575	1559	1509	1440	1341	1224	1088	964.7	842.8	656.7	481.7	354.4	258.3	186.5	137.1	107.0	103.0	201.1	824.3	928.3	34.19	5.423	4.444	4.444	5.118	5.604	6.653	7.598	7.307	7.717	9.654	9.962	9.954	10.43	10.42	11.26	11.83	11.37	11.41	11.70	11.41	11.36	11.15	10.88	10.59	9.789	9.756	9.250	9.074	8.429	8.288	8.620	8.651	8.503	8.815	9.357
425.0	1840	2547	2886	2884	2855	2872	2870	2804	2731	2615	2472	2242	1993	1788	1627	1528	1507	1500	1532	1543	1546	1539	1523	1483	1423	1329	1216	1097	962.9	848.4	704.0	518.1	377.7	278.7	202.8	149.7	105.6	74.78	78.15	265.4	909.7	723.7	28.52	4.905	4.624	5.126	5.458	6.521	7.389	7.150	7.622	9.027	9.760	9.993	10.15	10.13	11.15	11.34	11.58	11.98	11.41	11.18	11.47	10.95	10.95	10.18	10.05	9.431	9.186	8.879	8.385	8.406	8.726	8.617	8.157	8.190	8.970
430.0	1873	2449	2854	2856	2835	2814	2838	2780	2708	2584	2437	2209	1958	1737	1578	1480	1442	1445	1478	1487	1486	1479	1479	1446	1394	1308	1210	1103	975.1	851.7	727.0	577.7	421.0	313.3	234.2	174.1	123.3	83.72	61.03	88.35	279.3	671.3	557.9	122.4	9.960	5.423	5.724	6.737	7.402	7.226	7.535	9.235	9.334	9.968	10.39	10.44	11.04	11.41	11.70	11.45	11.43	11.13	11.21	11.04	10.61	9.859	9.829	9.030	8.654	8.930	7.925	8.051	8.436	8.337	8.153	8.254	8.609
435.0	2065	2411	2824	2798	2770	2749	2812	2765	2669	2545	2386	2142	1908	1675	1511	1426	1384	1385	1414	1417	1421	1408	1418	1392	1359	1282	1193	1090	975.3	854.4	731.4	604.1	476.3	349.0	265.2	200.4	145.0	100.0	68.67	57.67	87.64	174.8	446.2	798.6	177.3	9.465	6.165	7.043	7.337	6.853	7.526	9.028	9.430	9.554	9.504	10.44	10.90	11.37	11.18	11.63	11.37	11.10	11.19	10.88	10.51	9.785	9.526	8.832	8.710	8.398	8.160	7.494	7.922	7.713	7.961	7.815	8.377
440.0	2245	2434	2738	2739	2706	2701	2766	2726	2632	2477	2326	2081	1846	1630	1456	1372	1333	1330	1356	1362	1354	1354	1357	1341	1308	1242	1162	1072	967.3	851.1	728.3	595.0	501.3	378.7	281.5	216.5	159.0	113.9	78.15	56.80	51.58	61.23	136.1	612.8	726.1	32.23	7.511	7.164	7.340	6.797	7.326	8.947	9.282	9.664	9.802	9.984	10.43	11.54	11.04	11.48	11.04	10.83	10.58	10.22	10.16	9.343	9.071	8.622	8.810	8.199	7.988	7.578	7.384	7.586	7.452	7.571	7.896
445.0	2289	2459	2650	2665	2623	2655	2718	2676	2550	2425	2248	2015	1780	1564	1392	1307	1269	1269	1292	1296	1287	1283	1288	1276	1248	1188	1118	1038	946.3	831.6	718.3	589.9	493.0	401.5	298.4	227.6	169.9	124.1	88.92	63.12	48.44	39.07	49.72	194.8	683.9	582.1	25.90	7.469	7.442	6.591	7.159	8.950	8.903	9.443	9.852	9.528	10.83	11.31	10.89	11.12	11.05	10.61	10.44	10.34	9.710	9.381	8.785	8.348	8.589	7.751	7.418	7.211	7.258	7.075	7.391	7.157	7.898
450.0	1829	2788	2602	2510	2505	2540	2603	2560	2415	2270	2102	1874	1644	1449	1300	1210	1176	1174	1191	1191	1182	1177	1182	1178	1146	1103	1039	970.5	886.3	791.1	687.0	569.9	468.8	393.7	321.2	240.2	181.8	134.6	98.89	73.04	54.30	41.37	35.22	61.48	206.5	512.8	443.1	113.4	11.37	6.763	6.798	8.440	8.486	9.056	9.244	9.343	10.36	10.53	10.60	10.37	10.50	10.34	9.913	9.730	9.166	8.647	8.266	8.015	7.519	7.207	7.056	6.723	6.803	6.599	6.964	7.022	7.320
455.0	1473	2754	2798	2350	2351	2393	2444	2377	2249	2110	1930	1733	1504	1318	1184	1099	1074	1061	1076	1069	1063	1058	1066	1062	1040	997.3	952.3	891.1	820.7	739.4	645.5	545.2	449.7	374.9	317.4	259.6	192.6	143.2	109.0	81.86	63.42	47.96	36.91	35.56	62.69	132.6	314.0	638.6	151.9	10.56	6.848	7.918	8.080	8.206	8.793	8.874	9.662	9.506	9.861	10.30	9.638	9.595	9.365	9.257	8.669	8.200	7.880	7.363	7.261	6.779	6.946	6.256	6.267	6.152	6.138	6.296	6.508
460.0	1298	2274	3065	2265	2230	2249	2297	2227	2115	1962	1806	1608	1397	1220	1094	1018	993.8	977.8	983.3	986.1	977.3	970.3	972.4	973.9	952.9	922.3	876.5	831.9	770.3	699.4	616.8	521.9	432.1	360.9	305.0	261.7	203.7	148.4	114.6	88.47	68.88	53.29	40.62	32.68	33.55	45.16	92.46	440.8	575.4	109.1	8.284	8.020	7.868	7.842	8.266	8.477	9.205	9.179	9.417	9.661	9.237	8.681	8.291	8.332	8.001	7.441	7.558	7.196	6.694	6.587	6.323	5.845	6.163	5.888	5.774	5.617	6.393
465.0	1197	1887	3083	2443	2087	2132	2164	2110	1982	1847	1693	1506	1302	1148	1029	947.1	918.3	903.0	909.5	911.5	894.1	891.7	893.1	897.6	879.5	851.6	811.5	771.1	717.3	658.2	582.0	494.5	415.6	345.6	291.9	252.1	209.5	157.2	118.5	92.92	73.40	58.04	44.76	35.14	29.65	27.99	34.76	132.7	505.5	469.6	22.77	8.117	7.393	7.749	7.795	8.113	8.622	8.731	8.619	8.628	8.262	8.589	8.243	7.852	7.541	7.395	6.707	6.174	6.084	5.893	6.360	5.504	5.437	5.358	5.321	5.357	5.642
470.0	1077	1547	2423	2839	1987	1927	1964	1908	1799	1663	1527	1350	1167	1030	913.2	843.1	818.0	801.1	804.2	807.2	789.5	786.0	789.2	789.9	780.9	757.5	723.7	685.5	644.8	592.5	530.6	453.0	385.9	324.3	274.3	233.1	199.9	164.4	124.2	96.83	77.53	61.88	48.95	39.03	31.72	25.94	23.49	42.73	147.1	356.3	396.1	109.2	12.16	7.197	7.212	7.233	7.635	7.797	7.939	8.062	7.570	7.725	7.398	7.069	6.761	6.466	6.209	5.722	5.576	5.260	5.414	5.025	5.004	4.854	4.805	4.843	5.223
475.0	924.2	1334	1774	2731	2261	1733	1749	1711	1618	1480	1351	1201	1031	900.6	802.7	739.5	715.8	702.9	702.8	697.1	685.9	683.9	683.1	687.6	680.3	662.0	635.4	600.9	569.8	529.5	474.0	411.7	352.8	296.9	255.5	216.0	183.0	159.5	132.0	100.8	79.68	65.01	52.19	41.88	34.68	27.23	23.11	24.19	44.68	90.64	197.9	426.8	150.2	12.26	7.040	6.511	7.403	7.137	7.226	7.222	7.146	6.961	6.428	6.648	6.010	5.751	5.362	5.400	5.109	4.762	4.316	4.336	4.472	4.418	4.217	4.431	4.977
480.0	837.0	1224	1526	2191	2631	1689	1609	1571	1480	1348	1245	1106	942.3	832.4	736.2	672.0	646.3	636.1	637.3	626.9	617.9	618.4	615.4	620.6	610.5	599.9	574.5	544.1	515.2	479.6	433.9	380.0	326.8	280.0	239.7	204.3	173.9	149.7	133.1	107.1	81.39	66.26	53.72	44.21	36.18	29.47	24.58	21.29	22.17	30.48	56.46	240.4	419.0	123.8	8.286	6.372	6.623	6.520	6.454	6.458	6.525	6.308	6.206	6.106	5.576	5.272	5.361	4.905	4.638	4.649	4.150	4.074	4.140	4.382	3.852	3.969	4.168
485.0	809.0	1159	1387	1700	2640	1880	1481	1445	1361	1269	1161	1018	869.8	763.2	679.8	628.3	598.4	582.7	582.6	573.5	565.2	561.8	566.5	569.2	561.1	549.8	525.4	503.5	474.4	446.0	405.0	355.3	307.5	264.4	227.8	195.7	167.6	142.4	126.2	111.9	85.29	67.43	56.74	45.67	38.27	31.43	26.40	21.49	18.35	18.12	22.24	70.08	304.8	390.4	27.41	6.799	6.478	6.574	6.102	6.281	5.619	5.767	5.658	5.668	5.133	4.749	4.935	4.618	4.187	4.217	3.866	3.960	3.860	3.845	3.602	3.605	3.866
490.0	708.0	1059	1280	1380	2007	2305	1450	1298	1234	1162	1055	923.5	794.4	690.1	612.5	562.4	533.8	524.6	518.0	511.3	506.6	501.7	504.3	506.6	501.9	490.8	471.0	450.5	426.6	400.3	368.8	327.0	282.3	245.8	212.9	185.0	158.2	136.1	117.9	107.0	92.77	71.21	58.34	48.36	40.33	33.49	28.20	23.45	19.37	16.33	15.30	24.85	85.22	233.0	273.2	115.5	13.31	6.108	5.845	5.876	5.450	5.510	5.261	5.223	4.779	4.670	4.297	4.100	4.110	3.709	3.559	3.623	3.405	3.456	3.424	3.428	3.533
495.0	610.4	962.3	1197	1211	1384	2235	1751	1175	1115	1046	939.9	822.1	715.1	617.1	546.6	498.8	477.5	463.1	457.1	454.1	444.7	441.6	443.8	444.4	441.0	431.2	415.7	399.8	379.9	357.3	329.2	292.1	258.2	226.3	196.7	172.7	148.1	128.4	113.1	98.36	89.60	77.08	59.98	49.36	42.22	35.65	29.19	25.05	20.99	16.88	14.42	15.25	27.65	60.07	134.3	375.0	184.9	14.43	5.508	5.045	5.008	4.738	4.942	4.748	4.204	4.060	3.975	3.722	3.330	3.524	3.120	3.313	3.025	3.158	3.019	3.093	3.128
500.0	574.8	821.7	1095	1086	1123	1723	2124	1130	1025	950.4	861.0	748.9	646.3	557.7	495.3	447.2	426.3	415.4	412.6	402.9	399.0	398.6	397.2	397.6	395.7	385.7	373.3	358.9	341.0	323.2	301.5	267.3	236.6	209.4	182.2	161.5	140.7	121.8	106.2	91.67	83.46	77.88	64.15	51.05	42.05	35.76	29.97	25.58	21.67	17.05	14.88	13.54	14.81	20.82	38.20	182.1	399.2	146.1	8.947	4.860	4.798	4.536	4.422	4.221	4.058	3.832	3.834	3.379	3.142	3.179	2.755	2.980	2.781	2.773	2.627	2.691	2.788
505.0	512.1	732.2	1024	1016	1005	1231	2183	1273	926.6	864.3	790.5	688.2	594.5	508.3	450.5	407.2	388.7	372.4	368.3	366.3	357.3	358.1	359.2	355.7	356.4	349.8	336.0	322.0	308.1	293.0	273.4	243.5	217.0	192.6	169.9	150.4	130.5	114.8	99.67	86.98	76.64	71.84	65.04	51.70	42.03	36.21	30.15	25.93	22.16	18.39	15.76	13.38	12.59	12.29	15.58	50.40	230.4	370.7	31.47	6.156	4.470	4.367	3.987	3.998	3.673	3.530	3.319	2.955	2.970	2.944	2.793	2.813	2.527	2.565	2.480	2.442	2.437
510.0	445.3	644.3	862.6	892.9	870.6	925.8	1571	1711	884.1	754.8	692.2	601.3	512.5	439.9	390.5	355.5	334.7	322.4	318.9	312.7	306.9	307.8	310.6	309.5	308.3	302.4	291.8	279.0	267.5	253.5	238.8	213.8	190.7	170.1	150.4	134.5	118.2	104.6	91.50	79.94	70.45	63.07	59.87	52.96	43.41	35.66	30.67	25.75	22.09	18.24	16.16	13.90	11.90	11.04	10.66	17.45	61.17	181.5	230.7	121.4	12.65	4.137	3.584	3.585	3.340	3.138	2.820	2.654	2.656	2.718	2.447	2.465	2.364	2.371	2.360	2.240	2.350
515.0	355.9	577.9	734.1	787.4	747.1	740.9	940.6	1734	1171	650.4	600.9	516.0	447.5	386.5	335.6	307.5	286.8	274.2	272.1	266.4	263.9	262.2	262.9	264.4	261.8	257.2	250.2	236.8	229.1	217.8	205.2	182.8	163.8	148.5	131.7	117.5	104.9	93.34	83.58	72.57	65.00	57.24	52.11	50.51	44.99	35.23	29.79	25.56	21.71	18.15	15.88	14.26	11.75	11.02	9.696	10.54	19.62	45.35	85.89	264.3	178.3	14.57	3.701	2.957	3.044	2.953	2.599	2.285	2.510	2.449	2.185	2.070	2.087	2.089	1.983	1.991	1.930
520.0	337.2	510.8	636.6	709.3	688.5	656.2	698.5	1286	1551	642.1	537.3	460.6	388.9	343.9	300.2	269.5	253.2	243.9	236.6	234.0	231.9	233.5	233.2	232.0	230.8	226.6	219.7	209.3	202.6	192.4	181.2	163.6	144.9	132.4	118.8	107.5	96.72	86.04	75.89	68.20	58.89	53.42	47.47	44.38	43.65	36.39	29.30	24.66	21.16	18.26	15.63	14.49	12.01	10.55	9.313	9.200	10.20	15.27	24.19	110.7	284.4	128.1	8.164	2.971	2.899	2.715	2.319	2.215	2.169	2.178	2.030	1.834	1.890	1.760	1.726	1.719	1.711
525.0	300.9	447.5	545.5	615.2	644.8	599.4	585.8	815.3	1696	805.6	484.2	415.7	353.2	309.0	263.5	244.9	228.9	217.7	211.8	209.4	206.4	207.4	207.3	209.4	204.1	201.3	194.7	186.8	179.7	170.8	161.7	147.0	131.4	119.3	108.2	97.92	87.16	79.06	71.28	63.23	56.70	49.96	44.20	40.34	39.97	36.54	29.57	23.74	20.75	17.69	15.51	13.64	12.20	10.55	9.119	8.218	7.978	8.512	10.07	29.96	139.0	259.9	32.05	4.467	2.776	2.290	2.261	2.161	2.090	1.777	1.734	1.844	1.842	1.688	1.612	1.766	1.811
530.0	265.3	385.5	476.5	516.1	565.6	545.4	502.1	550.4	1175	1310	494.6	358.3	307.0	264.0	232.7	209.2	196.6	187.9	183.3	180.3	178.4	176.2	178.2	179.5	175.9	172.6	166.7	159.9	154.2	147.3	138.9	125.7	114.4	103.5	95.06	85.88	77.69	69.11	62.41	56.17	50.52	45.12	40.14	36.40	34.39	33.35	29.85	23.72	19.90	16.90	14.65	12.92	11.57	10.61	9.426	8.248	7.489	7.121	6.484	10.61	35.82	113.5	177.0	103.3	11.77	2.245	2.144	2.045	1.846	1.604	1.588	1.633	1.546	1.448	1.507	1.493	1.505
535.0	227.0	328.7	419.2	423.1	471.1	489.6	425.8	433.4	600.8	1406	787.5	313.9	260.5	224.2	198.3	176.9	167.0	159.3	154.0	151.0	149.4	147.6	148.5	149.3	149.2	144.8	139.6	133.8	128.4	124.5	116.0	106.2	96.91	87.56	81.55	74.30	67.68	61.75	53.97	49.33	44.37	40.07	35.50	32.87	29.66	27.85	28.05	24.19	19.25	16.03	14.13	12.40	10.68	10.16	9.201	7.924	7.112	6.166	5.735	5.973	11.36	28.29	56.69	173.4	139.6	13.58	1.931	1.766	1.679	1.465	1.290	1.336	1.357	1.385	1.356	1.246	1.334
540.0	194.2	288.3	376.3	376.1	388.7	446.7	388.7	366.9	403.3	978.9	1200	313.5	229.9	195.3	171.8	157.7	145.7	138.6	134.0	132.2	129.6	128.9	130.5	131.5	130.5	125.7	122.6	117.5	111.4	109.0	102.6	92.76	85.13	78.07	72.42	65.11	60.08	55.18	49.31	44.78	39.91	36.20	32.42	29.24	26.86	24.55	23.89	23.44	18.88	15.24	13.11	11.28	10.21	9.515	8.415	8.108	6.949	5.892	5.412	4.909	5.734	9.214	15.22	66.32	190.9	101.0	6.512	1.725	1.435	1.366	1.267	1.196	1.095	1.024	1.190	1.103	1.245
545.0	187.4	270.7	341.3	330.8	330.1	380.1	368.3	312.9	324.9	541.9	1382	441.2	205.0	172.6	151.0	136.1	126.8	120.1	118.0	116.7	113.3	112.6	113.5	114.5	112.7	110.4	105.5	102.4	98.64	95.25	90.29	82.96	75.87	68.10	63.78	57.42	54.31	48.07	43.18	39.44	36.09	32.28	29.66	26.84	24.76	22.03	20.84	21.56	18.72	15.48	12.09	11.13	9.723	8.670	7.819	7.544	6.457	5.579	5.127	4.304	4.168	4.906	5.946	17.44	85.82	183.0	32.05	2.950	1.391	1.308	1.239	1.167	1.060	0.957	1.061	1.114	1.038
550.0	149.1	226.3	276.9	270.9	269.2	299.2	328.4	271.2	263.8	311.4	891.8	910.7	197.6	143.6	127.4	113.2	104.8	99.03	99.10	95.14	94.34	93.29	93.43	94.18	92.71	90.96	87.80	84.79	80.32	79.17	73.76	68.19	62.46	56.95	52.26	47.83	44.81	40.95	36.73	33.56	30.59	27.53	25.30	23.25	21.23	18.85	17.42	16.75	16.73	14.74	11.72	9.903	8.554	7.687	6.824	6.458	6.108	5.624	4.863	3.994	3.759	3.556	3.481	5.965	21.65	74.63	120.4	73.25	9.773	1.284	1.104	1.032	1.044	0.891	1.007	0.899	0.954
555.0	131.7	190.6	223.2	216.8	209.7	224.0	266.5	252.3	213.8	223.8	367.0	1082	413.3	118.9	101.7	94.06	86.29	80.79	80.35	77.84	75.37	74.27	76.19	76.19	74.12	73.19	71.37	68.57	65.38	63.67	59.68	54.56	50.42	45.73	41.98	39.36	36.43	34.21	30.79	27.11	25.76	23.02	21.26	18.76	17.36	16.16	14.59	13.72	12.85	13.27	11.17	9.077	7.278	6.919	6.018	5.622	5.111	5.120	4.594	3.698	3.292	3.013	2.862	3.051	6.574	18.08	37.56	113.2	92.81	9.553	1.143	0.926	0.961	0.774	0.750	0.833	0.800
560.0	110.4	162.8	182.7	179.0	179.1	182.3	213.9	239.4	185.5	180.1	201.9	732.3	773.7	122.2	85.45	76.94	71.12	67.71	67.09	64.84	63.62	62.14	62.26	63.54	62.61	61.24	59.36	56.92	54.69	52.25	49.30	46.00	41.95	39.02	35.83	33.15	30.42	27.86	26.12	23.65	22.04	19.56	18.53	16.40	15.08	14.01	13.05	11.80	10.82	10.83	10.46	8.349	6.576	6.199	5.391	5.343	4.651	4.387	4.242	3.655	3.091	2.748	2.512	2.450	3.011	5.359	9.868	42.44	124.1	34.69	4.312	0.941	0.815	0.706	0.734	0.822	0.807
565.0	107.8	145.5	158.4	156.6	159.2	149.3	168.7	226.2	170.8	155.0	152.6	341.7	996.8	165.3	73.26	63.91	61.83	57.93	57.61	53.94	54.07	53.71	53.10	53.06	52.10	51.88	49.65	47.30	45.78	43.93	41.08	39.25	36.01	32.91	31.52	28.62	25.34	24.37	22.25	20.06	18.34	17.13	15.42	14.93	13.64	12.06	11.21	10.38	9.105	8.877	8.777	7.940	6.317	5.427	5.033	4.627	4.262	4.017	3.827	3.669	2.984	2.473	2.085	2.069	2.005	2.547	3.544	11.09	54.32	118.0	29.57	1.854	0.791	0.686	0.710	0.677	0.787
570.0	93.33	131.5	135.4	134.8	123.8	122.7	130.8	170.8	170.9	130.4	123.4	157.0	639.0	570.7	82.36	52.69	49.58	46.84	45.54	43.46	43.23	43.19	42.75	42.45	42.23	41.16	39.27	37.49	36.73	35.48	33.14	30.72	29.37	26.27	24.90	22.82	21.10	19.70	18.41	16.65	15.31	14.19	12.79	12.01	11.34	9.994	9.327	8.662	7.630	7.120	6.937	7.061	6.042	5.089	4.395	4.056	3.798	3.370	3.219	3.035	2.932	2.576	2.042	1.748	1.731	1.858	1.854	3.470	13.64	49.41	82.54	50.07	6.701	0.755	0.652	0.611	0.600
575.0	88.85	114.5	109.3	115.8	103.6	102.0	103.8	119.5	161.4	121.8	98.78	99.60	223.5	743.7	221.6	43.82	39.20	36.72	35.53	34.71	33.98	34.70	34.31	32.95	33.63	31.82	31.30	29.94	28.86	28.42	26.63	24.54	22.93	21.41	19.17	17.88	16.84	15.62	14.86	13.55	12.36	11.62	10.51	10.12	9.362	8.628	7.606	6.953	6.335	5.837	5.384	5.277	5.358	4.735	4.026	3.601	3.144	2.910	2.698	2.541	2.557	2.419	2.016	1.740	1.525	1.496	1.484	1.783	4.063	11.83	25.18	72.80	35.03	6.049	0.601	0.543	0.582
580.0	81.21	98.52	101.9	98.73	86.46	89.53	84.47	94.29	142.1	123.8	89.37	80.26	101.7	497.0	483.9	47.93	33.49	31.14	28.82	28.29	28.63	28.95	28.42	27.95	28.37	26.34	26.49	25.43	24.34	23.33	21.97	20.95	19.16	17.66	16.91	15.30	14.35	13.13	12.51	11.17	10.50	9.744	8.818	8.544	7.949	7.491	6.481	5.915	5.423	4.887	4.627	4.270	4.386	4.611	3.883	3.224	2.792	2.649	2.462	2.278	2.209	2.306	2.018	1.643	1.555	1.357	1.293	1.494	1.774	3.493	6.571	27.04	75.26	31.73	2.703	0.504	0.547
585.0	75.68	90.61	98.15	81.63	74.43	76.67	74.13	76.32	110.2	132.8	82.88	71.41	69.94	213.1	658.7	92.55	28.63	27.33	25.09	24.27	24.28	24.69	24.85	23.79	23.81	22.36	22.16	21.16	21.36	19.43	18.90	17.38	16.32	14.74	14.25	12.88	12.26	11.51	10.71	9.664	9.087	8.624	7.534	7.226	6.700	6.276	5.948	5.236	4.966	4.196	3.839	3.495	3.741	4.005	3.545	3.300	2.529	2.519	2.238	2.090	1.879	1.933	1.970	1.851	1.389	1.473	1.276	1.233	1.134	1.494	2.235	6.903	34.51	72.11	25.34	1.320	0.515
590.0	69.02	83.95	82.83	73.59	65.32	62.73	64.67	65.55	80.47	121.5	91.40	64.44	57.31	83.56	418.0	331.7	34.08	22.66	20.88	20.14	20.37	19.60	19.91	18.89	18.86	18.15	17.62	17.51	16.89	15.94	15.26	14.22	13.28	12.17	11.60	10.51	10.11	9.188	8.943	7.832	7.381	6.894	6.450	5.885	5.703	5.260	5.002	4.123	4.118	3.443	3.277	3.049	3.029	3.113	3.251	3.033	2.523	2.157	2.022	1.799	1.713	1.666	1.667	1.808	1.397	1.326	1.194	1.099	1.082	1.058	1.190	2.175	8.599	29.36	51.09	33.67	4.857
595.0	60.92	75.75	74.27	61.22	55.18	53.88	56.65	53.19	63.37	95.48	105.7	63.16	52.98	49.21	135.2	470.0	89.69	18.68	16.66	16.43	15.85	15.57	15.78	15.65	15.30	14.63	13.51	13.85	12.74	12.62	12.05	11.23	11.07	9.778	8.934	8.234	8.052	7.288	6.932	6.152	6.238	5.390	5.507	4.784	4.583	4.366	4.090	3.713	3.358	2.827	2.709	2.554	2.397	2.283	2.508	2.585	2.199	1.819	1.870	1.455	1.474	1.578	1.292	1.510	1.583	1.272	1.160	1.142	0.955	0.892	0.980	1.254	2.527	7.107	15.27	47.07	33.76
600.0	63.71	72.26	79.70	58.30	51.40	49.71	51.15	50.60	56.88	76.93	112.2	68.55	53.94	43.35	56.09	325.7	265.7	20.69	14.61	13.38	13.59	13.52	13.00	12.95	13.04	12.07	11.30	11.51	10.83	10.18	10.34	9.487	9.210	8.092	7.523	7.119	6.750	6.033	5.627	5.416	5.094	4.614	4.499	4.215	3.893	3.689	3.379	3.144	2.661	2.474	2.213	2.245	1.940	1.940	2.127	2.479	2.327	1.741	1.636	1.379	1.435	1.393	1.209	1.273	1.404	1.360	1.066	0.928	0.960	0.948	0.879	0.874	1.115	2.055	3.905	17.48	50.83
605.0	59.75	68.05	71.08	58.80	48.54	47.72	50.12	54.23	64.82	72.76	114.6	88.48	61.15	48.00	41.96	142.8	397.9	48.15	12.75	11.75	11.79	11.53	11.12	11.28	10.77	10.57	9.711	9.741	9.401	9.089	8.868	7.950	7.308	6.858	6.526	6.121	5.643	5.235	4.990	4.572	4.397	4.281	3.829	3.380	3.574	3.139	2.858	2.775	2.579	2.292	2.040	2.025	1.749	1.725	1.685	2.109	2.163	1.849	1.438	1.319	1.285	1.210	1.184	1.160	1.137	1.227	1.138	1.055	1.064	0.913	0.770	0.788	0.911	0.994	1.413	4.515	22.26
610.0	59.16	69.86	70.16	56.57	48.84	47.95	56.02	63.00	77.29	92.48	118.8	134.2	89.20	66.10	55.14	69.03	292.8	177.9	15.36	9.605	9.158	9.404	9.197	8.684	8.869	8.311	8.033	7.834	7.546	7.454	6.941	6.559	5.853	5.478	5.211	4.750	4.595	4.241	3.977	3.541	3.607	3.456	3.174	2.705	2.884	2.729	2.497	2.337	2.175	1.899	1.738	1.715	1.581	1.478	1.433	1.482	1.749	1.711	1.490	1.252	1.144	1.120	1.068	1.155	1.088	1.124	1.300	1.219	1.061	1.013	0.836	0.795	0.816	0.848	0.893	1.487	5.697
615.0	58.34	68.86	66.62	58.56	46.40	47.35	55.40	65.50	81.87	94.86	115.2	145.7	111.3	78.85	62.84	53.76	117.9	304.7	55.92	8.550	7.203	7.889	7.100	6.827	7.008	6.908	6.485	6.177	5.770	6.006	5.302	4.947	4.634	4.674	4.074	3.731	3.695	3.445	3.217	2.896	2.958	2.755	2.607	2.089	2.371	2.016	2.113	1.794	1.928	1.568	1.354	1.537	1.283	1.281	1.187	1.210	1.328	1.377	1.487	1.191	1.038	1.261	0.925	1.058	1.088	1.070	1.180	1.220	1.126	1.001	0.995	0.868	0.820	0.819	0.798	0.831	1.722
620.0	61.72	63.93	71.74	59.00	45.07	46.99	57.40	65.22	76.08	92.68	106.1	131.3	121.3	77.94	64.07	48.40	61.04	238.5	157.4	8.585	6.119	6.351	6.405	6.359	5.366	5.297	5.305	4.861	5.077	4.945	4.692	3.917	3.939	4.034	3.300	3.152	3.251	2.968	2.678	2.788	2.385	2.097	2.305	1.852	1.978	1.809	1.731	1.524	1.592	1.271	1.278	1.265	1.133	1.235	1.117	1.041	1.201	1.300	1.355	1.169	1.135	1.030	0.941	1.011	1.051	0.946	0.879	1.042	1.312	0.997	1.004	0.951	0.745	0.610	0.716	0.714	0.855
625.0	60.09	61.60	69.07	56.39	45.75	46.98	50.39	61.66	72.78	84.54	99.23	114.7	123.8	82.01	61.71	46.06	46.46	114.9	253.9	20.38	5.317	5.522	5.516	5.075	5.018	4.664	4.225	4.274	4.475	3.741	3.982	3.759	3.439	3.395	2.855	2.780	2.753	2.507	2.208	2.397	1.884	1.761	1.679	1.876	1.574	1.537	1.504	1.281	1.265	1.274	1.223	1.141	1.062	1.053	1.118	0.831	0.996	1.021	1.296	1.117	1.017	1.048	0.933	1.039	1.020	0.921	0.880	1.038	1.151	0.988	0.969	0.897	0.787	0.758	0.611	0.598	0.588
630.0	56.05	67.95	62.16	53.08	44.72	44.69	52.71	58.00	67.16	81.01	94.83	103.9	118.5	90.15	63.51	45.13	41.90	46.27	198.2	110.4	6.643	4.499	4.503	4.289	4.387	3.913	3.629	3.589	3.485	3.206	3.201	2.907	2.767	2.633	2.453	2.234	2.077	2.070	1.816	1.872	1.650	1.573	1.510	1.509	1.387	1.395	1.171	1.208	1.028	1.010	1.023	0.980	0.913	0.878	0.837	0.799	0.892	0.955	1.013	1.036	0.978	0.935	0.897	0.880	0.887	0.873	0.905	0.942	0.923	0.939	0.967	0.855	0.782	0.727	0.617	0.605	0.578
635.0	57.30	76.42	66.18	52.62	45.13	44.27	51.13	58.97	63.18	79.64	92.94	96.17	107.3	99.94	65.57	46.29	41.17	28.44	67.89	208.0	28.55	3.928	3.535	3.566	3.439	3.300	2.903	2.874	2.809	2.407	2.864	2.448	2.262	1.962	1.916	2.060	1.752	1.575	1.616	1.449	1.166	1.243	1.236	1.210	1.064	1.194	1.096	1.003	0.916	0.855	0.773	0.796	0.872	0.736	0.688	0.681	0.787	0.867	0.786	0.892	0.879	0.926	0.873	0.726	0.706	0.868	0.754	0.900	0.792	0.862	0.912	0.969	0.742	0.677	0.623	0.573	0.682
640.0	54.75	74.55	65.53	54.85	44.39	42.30	47.42	57.53	64.08	77.33	87.13	93.70	97.35	103.3	69.57	46.78	41.07	25.01	23.93	174.3	71.32	3.912	3.122	3.024	2.896	2.656	2.683	2.433	2.237	2.268	2.236	2.013	1.766	1.581	1.621	1.638	1.296	1.405	1.234	1.266	1.188	1.127	1.127	1.038	0.937	0.975	0.868	0.905	0.902	0.794	0.720	0.745	0.711	0.690	0.652	0.611	0.733	0.681	0.701	0.739	0.800	0.797	0.846	0.691	0.628	0.799	0.735	0.786	0.752	0.864	0.775	0.907	0.886	0.703	0.583	0.562	0.679
645.0	58.82	68.20	66.93	55.13	43.14	41.32	47.12	55.24	60.96	72.79	84.60	94.22	93.35	96.26	74.54	48.48	41.00	23.40	13.14	85.18	165.0	9.903	2.972	2.583	2.468	2.354	2.260	2.138	2.103	1.913	1.773	1.689	1.691	1.345	1.441	1.384	1.289	1.127	1.077	1.111	0.895	1.097	0.903	0.868	0.812	0.869	0.831	0.841	0.748	0.658	0.628	0.670	0.589	0.609	0.617	0.515	0.626	0.633	0.652	0.663	0.671	0.893	0.760	0.744	0.652	0.695	0.688	0.836	0.903	0.897	0.711	0.807	0.863	0.704	0.634	0.590	0.614
650.0	49.40	66.25	67.67	53.71	43.80	41.83	45.27	50.20	56.03	65.89	80.44	86.75	85.54	83.16	75.25	48.07	39.43	23.35	10.49	29.24	177.7	42.46	2.510	2.223	2.067	2.066	2.117	1.915	1.897	1.780	1.589	1.406	1.468	1.208	1.228	1.128	1.086	1.082	1.001	0.973	0.819	1.016	0.849	0.678	0.688	0.727	0.720	0.702	0.706	0.597	0.603	0.631	0.595	0.599	0.499	0.567	0.581	0.580	0.641	0.596	0.646	0.664	0.815	0.769	0.672	0.551	0.649	0.662	0.772	0.714	0.730	0.799	0.737	0.717	0.637	0.599	0.498
