Sample:	'1
File name:	w111206–§’Ú«≈”ÍÀÆ≈≈ø⁄.FD3
Run date:	'14:28:57, 11/12/2024
Operator:	Administrator
Comment:	'

Instrument
Model:	F-2700 FL Spectrophotometer
Serial number:	23B8-004
ROM Version:	4J14000 07

Instrument parameters
Measurement type:	3-D scan
Data mode:	Fluorescence
EX  Start WL:	220.0 nm
EX  End WL:	600.0 nm
EX Sampling interval:	5.0 nm
EM  Start WL:	230.0 nm
EM  End WL:	650.0 nm
EM Sampling interval:	5.0 nm
Scan speed:	12000 nm/min
EX Slit:	5.0 nm
EM Slit:	5.0 nm
PMT Voltage:	700 V
Response:	Auto 
Corrected spectra:	Off
Contour interval:	50.000

Peak integration
Integration method:	Rectangular
Sensitivity:	1
Threshold:	1.000

Peaks
No.	ApexEX/EM(nm)	Height(Data)
1	225.0/575.0	56.69
2	225.0/610.0	46.49
3	225.0/630.0	42.67
4	230.0/340.0	983.4
5	230.0/500.0	305.0
6	235.0/510.0	258.8
7	240.0/525.0	218.2
8	245.0/535.0	180.8
9	250.0/550.0	152.4
10	255.0/280.0	535.3
11	255.0/560.0	129.9
12	260.0/290.0	488.6
13	260.0/575.0	103.6
14	265.0/295.0	608.6
15	265.0/585.0	92.03
16	270.0/300.0	850.0
17	270.0/600.0	84.07
18	275.0/305.0	854.4
19	275.0/610.0	67.80
20	280.0/315.0	822.7
21	280.0/340.0	704.9
22	280.0/625.0	63.64
23	285.0/320.0	812.7
24	285.0/635.0	46.06
25	290.0/325.0	710.1
26	305.0/345.0	433.6
27	310.0/350.0	370.9
28	315.0/355.0	364.2
29	320.0/365.0	363.7
30	325.0/370.0	352.7
31	330.0/375.0	347.6
32	335.0/380.0	340.7
33	350.0/400.0	277.7
34	360.0/415.0	232.2
35	365.0/420.0	223.8
36	425.0/500.0	34.47
37	440.0/520.0	20.81
38	505.0/275.0	2.924
39	510.0/280.0	3.341
40	515.0/285.0	3.327
41	525.0/290.0	3.194
42	540.0/295.0	4.230
43	545.0/300.0	4.539
44	550.0/305.0	4.866
45	560.0/310.0	4.354
46	570.0/315.0	4.548
47	580.0/320.0	4.779
48	585.0/325.0	4.776

Data points
	220.0	225.0	230.0	235.0	240.0	245.0	250.0	255.0	260.0	265.0	270.0	275.0	280.0	285.0	290.0	295.0	300.0	305.0	310.0	315.0	320.0	325.0	330.0	335.0	340.0	345.0	350.0	355.0	360.0	365.0	370.0	375.0	380.0	385.0	390.0	395.0	400.0	405.0	410.0	415.0	420.0	425.0	430.0	435.0	440.0	445.0	450.0	455.0	460.0	465.0	470.0	475.0	480.0	485.0	490.0	495.0	500.0	505.0	510.0	515.0	520.0	525.0	530.0	535.0	540.0	545.0	550.0	555.0	560.0	565.0	570.0	575.0	580.0	585.0	590.0	595.0	600.0
230.0	79.93	1390	3649	1150	51.58	8.595	7.245	5.880	5.186	4.680	4.633	3.986	3.468	2.881	2.725	2.078	2.040	1.684	1.648	1.610	1.341	1.314	1.322	1.300	1.047	1.084	0.913	0.862	0.934	0.905	0.863	0.847	0.787	0.691	0.696	0.676	0.572	0.553	0.539	0.527	0.600	0.712	0.731	0.566	0.504	0.468	1.671	6.886	11.53	8.347	3.265	0.737	0.413	0.417	0.354	0.364	0.385	0.390	0.348	0.355	0.343	0.348	0.328	0.355	0.380	0.389	0.373	0.372	0.356	0.337	0.341	0.343	0.340	0.322	0.335	0.342	0.327
235.0	160.1	401.2	2206	3750	618.4	66.11	7.675	7.250	5.420	5.062	4.862	4.193	3.540	3.166	3.020	2.131	2.317	1.565	1.878	1.544	1.317	1.303	1.427	1.293	1.085	1.069	0.960	1.009	0.978	0.917	0.875	0.844	0.799	0.712	0.786	0.698	0.598	0.616	0.572	0.541	0.588	0.608	0.635	0.777	0.700	0.572	0.723	2.057	4.576	8.509	13.08	12.59	5.569	1.114	0.384	0.340	0.426	0.379	0.327	0.385	0.366	0.314	0.297	0.334	0.371	0.352	0.347	0.361	0.342	0.329	0.338	0.350	0.324	0.311	0.319	0.317	0.369
240.0	201.3	193.4	669.5	3267	3991	475.5	29.98	8.822	7.249	6.030	5.528	4.588	4.311	2.998	3.276	2.357	2.162	1.814	1.833	1.535	1.290	1.373	1.243	1.448	1.202	1.073	1.134	1.008	0.958	0.935	0.871	0.785	0.724	0.724	0.738	0.697	0.700	0.577	0.579	0.585	0.526	0.586	0.536	0.736	0.841	0.923	0.719	0.895	1.418	2.746	7.354	16.76	20.70	12.78	3.909	0.706	0.473	0.349	0.380	0.396	0.361	0.343	0.309	0.362	0.454	0.358	0.353	0.362	0.345	0.345	0.361	0.333	0.324	0.387	0.366	0.308	0.346
245.0	155.7	245.6	230.4	1120	4472	3671	348.7	16.35	8.703	7.142	6.023	4.988	4.413	3.498	3.547	2.477	2.280	2.139	1.856	1.777	1.445	1.305	1.370	1.465	1.201	1.083	1.100	1.014	1.061	0.867	0.855	0.753	0.779	0.709	0.730	0.728	0.634	0.625	0.470	0.532	0.536	0.572	0.487	0.537	0.616	0.850	1.052	0.901	0.729	0.908	2.053	5.838	15.44	23.66	21.79	11.07	2.428	0.468	0.427	0.396	0.380	0.413	0.340	0.357	0.385	0.387	0.304	0.337	0.305	0.368	0.368	0.380	0.331	0.349	0.367	0.318	0.355
250.0	75.60	182.4	272.8	350.7	1462	4073	4617	1275	74.37	9.301	7.512	5.760	4.988	4.077	3.631	2.933	2.518	2.090	1.950	1.782	1.566	1.384	1.543	1.549	1.261	1.158	1.092	1.025	1.096	0.926	0.893	0.803	0.749	0.827	0.756	0.693	0.631	0.610	0.531	0.597	0.540	0.552	0.606	0.532	0.552	0.641	0.734	0.994	1.167	0.958	1.019	1.680	3.972	8.061	14.68	21.28	25.80	18.39	10.18	2.855	0.608	0.377	0.350	0.409	0.407	0.393	0.357	0.346	0.387	0.377	0.379	0.397	0.339	0.353	0.370	0.366	0.439
255.0	56.92	71.96	196.3	342.7	412.5	1060	4118	7730	1774	65.02	10.49	7.593	6.563	5.273	4.270	3.297	2.724	2.284	2.172	2.127	1.954	1.552	1.651	1.655	1.161	1.218	1.111	1.110	1.165	0.960	0.963	0.838	0.836	0.823	0.770	0.745	0.649	0.645	0.628	0.575	0.553	0.547	0.562	0.505	0.483	0.520	0.481	0.646	0.726	1.034	1.475	1.383	1.350	2.216	3.705	5.538	10.93	25.85	43.48	27.92	16.08	2.872	0.499	0.388	0.400	0.433	0.443	0.371	0.439	0.356	0.383	0.333	0.371	0.373	0.399	0.369	0.373
260.0	41.83	40.78	81.22	302.8	345.5	289.1	1312	7014	9509	1233	34.19	10.95	9.164	5.913	4.621	3.842	2.813	2.493	2.261	2.365	1.826	1.637	1.716	1.502	1.288	1.372	1.322	1.235	1.073	1.210	0.971	1.081	0.901	0.812	0.727	0.752	0.664	0.621	0.600	0.578	0.624	0.573	0.588	0.572	0.593	0.482	0.484	0.477	0.503	0.640	1.043	1.787	1.664	1.408	1.299	1.717	2.821	7.552	20.86	40.82	56.22	26.15	11.81	1.542	0.487	0.466	0.444	0.377	0.438	0.395	0.417	0.346	0.398	0.381	0.392	0.367	0.350
265.0	53.88	35.00	42.26	145.6	381.3	245.3	332.4	2539	9999.9	7852	215.7	16.88	10.98	6.773	5.735	3.943	2.942	2.626	2.509	2.382	1.933	1.744	1.699	1.655	1.266	1.427	1.236	1.340	1.121	1.130	0.909	0.960	0.934	0.798	0.755	0.676	0.614	0.647	0.695	0.542	0.654	0.546	0.633	0.587	0.614	0.543	0.513	0.454	0.455	0.453	0.632	1.042	1.754	2.069	1.435	0.879	1.055	2.130	5.287	12.99	34.12	55.38	61.94	23.17	7.611	0.854	0.453	0.458	0.423	0.434	0.488	0.374	0.420	0.382	0.344	0.421	0.367
270.0	54.21	36.45	35.69	54.90	189.7	371.6	282.7	623.6	3458	9078	9999.9	807.1	51.25	10.59	8.084	5.487	4.189	3.101	2.951	2.711	2.123	1.943	2.111	1.797	1.406	1.487	1.210	1.279	1.202	1.178	1.041	1.051	1.048	0.899	0.817	0.733	0.681	0.645	0.658	0.559	0.630	0.629	0.590	0.597	0.562	0.554	0.509	0.481	0.504	0.433	0.468	0.597	0.838	1.373	1.819	1.958	1.768	1.262	1.675	3.387	8.536	16.92	33.93	47.68	68.38	58.35	15.72	6.315	0.851	0.500	0.435	0.429	0.449	0.443	0.406	0.414	0.405
275.0	76.90	61.63	42.81	35.65	64.08	177.6	473.3	347.2	815.2	2361	9999.9	9999.9	1148	46.67	12.14	7.543	5.668	4.303	3.514	3.246	2.442	2.392	2.240	1.863	1.658	1.633	1.427	1.314	1.378	1.302	1.104	1.014	1.077	1.026	1.034	0.875	0.800	0.769	0.776	0.690	0.663	0.750	0.645	0.666	0.654	0.677	0.700	0.608	0.453	0.436	0.488	0.470	0.539	0.636	0.861	1.245	2.398	2.924	2.173	1.487	2.317	4.208	8.139	11.53	22.40	51.68	81.63	83.33	24.62	6.956	0.700	0.503	0.483	0.467	0.465	0.507	0.436
280.0	100.4	87.10	68.20	40.30	37.80	72.55	312.9	535.3	302.7	583.0	3089	9999.9	9999.9	785.7	22.93	10.63	7.045	5.708	4.364	3.717	2.845	2.542	2.560	2.149	1.785	1.667	1.569	1.345	1.441	1.422	1.287	1.143	1.296	1.176	1.077	0.953	1.018	0.867	0.729	0.810	0.747	0.762	0.742	0.648	0.676	0.692	0.681	0.585	0.562	0.469	0.474	0.484	0.475	0.546	0.577	0.721	1.308	2.365	3.341	2.682	1.626	1.452	2.375	3.091	5.676	13.40	31.11	67.72	96.86	32.58	19.43	3.240	0.571	0.489	0.485	0.480	0.401
285.0	144.3	120.3	95.35	54.95	41.97	42.69	132.0	490.2	348.9	218.2	776.4	3997	9999.9	7881	112.4	15.79	9.724	6.562	5.094	4.347	3.112	2.825	2.802	2.207	1.968	1.700	1.775	1.497	1.418	1.443	1.338	1.333	1.175	1.075	1.196	1.091	1.087	0.885	0.766	0.838	0.875	0.774	0.784	0.735	0.760	0.793	0.782	0.663	0.670	0.537	0.495	0.600	0.514	0.537	0.585	0.569	0.806	1.067	2.085	3.327	3.177	1.848	1.248	1.276	1.912	3.757	7.758	18.39	44.86	78.67	106.4	30.59	13.93	1.310	0.581	0.540	0.544
290.0	208.2	185.2	148.8	91.47	59.23	49.36	73.83	211.8	488.6	447.3	315.3	1027	4195	9999.9	9999.9	1863	30.06	9.670	7.012	5.867	4.084	3.395	3.340	2.598	2.283	1.977	1.844	1.788	1.654	1.629	1.289	1.392	1.373	1.280	1.301	1.272	1.070	1.062	0.899	0.914	0.873	0.807	0.877	0.869	0.881	0.848	0.908	0.899	0.791	0.742	0.639	0.674	0.567	0.596	0.590	0.597	0.669	0.760	1.064	1.520	2.203	3.194	3.134	2.297	1.534	1.705	2.541	4.876	11.02	21.61	45.73	58.77	79.41	68.16	45.06	10.12	1.701
295.0	259.2	258.7	214.6	134.0	84.96	73.79	78.53	122.2	244.6	608.6	580.5	402.7	1087	2609	9999.9	9999.9	630.4	26.36	10.66	8.464	5.441	4.188	4.211	3.225	2.408	2.404	2.082	2.156	1.922	1.797	1.454	1.458	1.499	1.587	1.314	1.384	1.252	1.169	1.069	1.096	1.016	0.946	1.043	0.947	0.975	1.080	0.983	1.090	0.996	0.781	0.758	0.741	0.721	0.768	0.702	0.741	0.760	0.796	0.936	1.003	1.160	1.643	2.278	3.707	4.230	2.589	1.732	2.105	3.549	5.559	11.16	14.17	21.41	40.42	84.90	109.9	32.20
300.0	289.5	315.4	262.9	169.1	107.9	92.24	105.8	126.2	189.3	399.8	850.0	483.5	452.6	724.9	2971	9999.9	9999.9	461.4	16.85	11.99	6.799	4.904	4.746	3.643	2.916	2.750	2.373	2.291	2.050	2.066	1.701	1.451	1.778	1.611	1.423	1.415	1.337	1.395	1.111	1.111	1.065	0.976	1.160	1.029	1.122	1.041	1.014	1.163	1.062	0.827	0.867	0.897	0.785	0.874	0.751	0.844	0.900	0.967	1.051	1.096	1.217	1.254	1.538	2.327	3.963	4.539	3.512	2.222	2.150	2.259	3.549	4.117	5.840	10.42	26.32	64.86	102.2
305.0	318.1	358.5	314.4	208.9	141.8	118.3	137.6	164.1	212.6	307.1	705.7	854.4	436.4	348.7	798.3	3641	9999.9	4861	69.11	16.37	8.645	6.079	5.641	4.061	3.500	3.048	2.540	2.211	2.057	2.247	1.706	1.603	1.619	1.722	1.496	1.472	1.437	1.340	1.184	1.226	1.164	1.107	1.197	1.076	1.214	1.193	1.131	1.251	1.160	0.959	0.948	0.989	0.896	0.863	0.848	0.927	0.957	1.173	1.193	1.245	1.559	1.352	1.526	1.751	2.507	3.625	4.866	4.264	2.949	2.072	2.187	2.151	2.497	3.396	6.703	16.27	37.18
310.0	364.8	414.4	360.1	245.2	168.8	148.0	168.1	208.3	266.5	330.4	525.2	805.8	815.2	399.2	354.5	928.6	3627	9999.9	9861	1615	23.98	8.480	7.770	5.678	4.185	3.289	2.802	2.612	2.305	2.351	1.807	1.686	1.702	1.778	1.553	1.515	1.495	1.429	1.374	1.219	1.161	1.174	1.221	1.169	1.244	1.239	1.286	1.404	1.353	1.085	1.073	1.202	1.042	1.002	0.974	1.011	1.178	1.265	1.282	1.351	1.451	1.713	1.745	2.007	2.207	2.534	3.336	3.867	4.354	4.118	3.199	2.466	2.103	2.080	2.566	4.552	9.314
315.0	431.5	466.8	421.7	283.4	203.2	179.7	201.6	247.7	316.5	366.1	512.2	599.2	822.7	738.6	338.8	334.9	898.4	2464	9033	9999.9	466.6	23.08	11.57	7.664	5.153	3.997	3.313	3.152	2.615	2.536	1.963	1.729	2.094	1.788	1.492	1.647	1.416	1.476	1.329	1.358	1.276	1.237	1.258	1.334	1.309	1.459	1.400	1.660	1.469	1.285	1.234	1.178	1.218	1.159	1.144	1.207	1.250	1.318	1.658	1.622	1.484	1.669	1.873	2.192	2.215	2.549	2.605	2.861	3.228	3.688	4.548	4.492	3.094	2.049	1.746	2.044	3.058
320.0	466.5	539.7	498.0	329.5	232.6	204.9	221.4	278.2	338.4	403.3	544.6	574.0	676.9	812.7	540.3	237.7	307.3	617.3	2522	9999.9	9999.9	375.6	18.83	10.16	6.707	4.797	3.839	3.392	2.934	2.869	2.120	1.985	2.099	2.012	1.724	1.719	1.593	1.488	1.371	1.307	1.473	1.292	1.283	1.471	1.381	1.493	1.591	1.792	1.582	1.485	1.375	1.404	1.346	1.201	1.200	1.251	1.393	1.459	1.645	1.759	1.675	1.860	2.204	2.095	2.498	2.754	2.799	2.918	2.881	2.903	3.496	4.441	4.779	3.595	2.155	1.706	1.775
325.0	511.2	655.6	612.1	421.7	258.5	231.2	243.3	296.4	367.2	434.9	577.5	599.8	652.1	650.0	710.1	327.0	194.6	212.2	617.0	3430	9999.9	8878	58.27	13.83	8.624	5.948	4.547	4.006	3.498	3.025	2.487	2.064	2.072	2.014	1.780	1.946	1.654	1.595	1.453	1.329	1.427	1.337	1.449	1.510	1.596	1.766	1.797	2.062	1.973	1.731	1.590	1.523	1.459	1.385	1.203	1.384	1.453	1.534	1.652	1.770	1.790	1.906	2.124	2.262	2.487	2.883	3.021	2.890	2.965	2.683	2.991	3.125	3.942	4.776	3.873	2.513	1.591
330.0	596.1	753.9	769.5	560.5	346.4	282.3	291.7	341.7	406.7	470.5	606.5	632.5	673.5	563.8	576.8	521.5	285.0	151.1	205.7	824.9	3318	9620	9745	1422	22.98	8.613	6.213	4.890	4.063	3.745	2.938	2.451	2.532	2.213	1.859	1.785	1.712	1.589	1.609	1.445	1.429	1.409	1.445	1.619	1.734	1.961	2.034	2.371	2.434	2.163	1.850	1.976	1.689	1.596	1.473	1.580	1.566	1.668	1.799	1.875	1.959	2.100	2.340	2.365	2.726	2.947	3.021	3.111	3.132	2.944	2.924	2.883	3.164	3.381	3.582	3.611	3.104
335.0	692.2	863.1	891.0	668.8	457.6	366.3	349.4	392.4	442.4	505.4	647.6	661.5	698.7	569.6	489.5	447.3	476.9	227.3	140.5	253.6	791.9	2312	8824	9999.9	2055	25.41	9.469	6.666	4.931	4.299	3.357	2.858	2.846	2.274	1.951	1.807	1.631	1.631	1.662	1.412	1.609	1.392	1.509	1.646	1.831	2.089	2.275	2.443	2.651	2.381	2.198	2.156	1.946	1.855	1.711	1.773	1.809	1.917	1.955	2.030	2.265	2.346	2.610	2.598	2.880	3.044	3.097	3.297	3.121	3.106	3.192	2.927	2.991	2.825	2.961	2.635	3.126
340.0	742.3	935.3	983.4	766.4	532.6	427.2	411.0	433.4	476.8	539.4	658.2	666.4	704.9	580.7	482.5	381.5	446.2	379.2	168.0	143.9	242.6	566.5	2426	9999.9	9999.9	363.9	16.72	8.733	6.736	5.116	3.612	3.471	3.047	2.533	2.165	2.025	1.826	1.598	1.706	1.570	1.571	1.294	1.667	1.759	1.986	2.192	2.453	2.672	2.852	2.542	2.313	2.421	2.334	2.055	1.950	1.867	2.060	2.035	2.219	2.174	2.413	2.458	2.547	2.597	2.777	3.118	2.917	3.340	3.280	3.330	3.311	3.182	3.043	2.741	2.720	2.518	2.534
345.0	741.6	931.7	978.7	813.5	599.9	497.3	459.5	481.1	496.4	555.5	651.4	664.9	698.5	588.7	491.2	370.6	353.1	433.6	278.2	143.8	135.0	190.5	595.7	3139	9999.9	9129	51.83	12.26	7.831	5.736	4.081	3.531	3.444	2.581	2.338	2.137	1.795	1.722	1.574	1.531	1.456	1.555	1.478	1.844	2.023	2.079	2.390	2.832	2.769	2.617	2.449	2.665	2.556	2.363	2.219	2.186	2.469	2.225	2.467	2.301	2.393	2.584	2.726	2.721	2.815	2.790	2.980	3.151	3.159	3.231	3.114	3.174	3.000	3.147	2.711	2.515	2.477
350.0	711.4	912.9	966.6	861.8	660.0	570.6	534.9	527.7	540.6	574.9	645.5	654.1	683.0	593.4	499.1	391.7	333.2	341.8	370.9	258.5	149.5	131.6	203.8	758.2	3076	8547	7524	1376	23.11	8.282	5.749	4.266	3.811	2.959	2.543	2.245	1.870	1.751	1.591	1.586	1.624	1.528	1.499	1.705	2.006	2.119	2.365	2.869	2.602	2.617	2.496	2.962	2.635	2.561	2.507	2.436	2.643	2.517	2.510	2.585	2.610	2.798	2.785	2.747	2.711	3.026	3.049	3.066	3.101	3.180	3.337	3.153	3.240	2.920	2.805	2.727	2.586
355.0	700.2	903.7	956.5	872.9	750.2	653.1	616.2	594.1	596.7	598.4	645.1	649.5	664.8	591.9	511.7	418.5	355.2	320.0	312.9	364.2	252.1	154.7	142.0	242.3	737.6	2009	5746	9999.9	2206	28.85	7.919	5.482	4.578	3.661	2.720	2.602	2.006	2.037	1.785	1.741	1.565	1.598	1.548	1.624	1.927	2.121	2.297	2.698	2.903	2.556	2.551	2.918	2.800	2.778	2.674	2.810	2.691	2.730	2.886	2.818	2.930	2.789	3.127	2.978	2.800	3.012	3.228	3.126	3.008	3.029	3.189	3.001	3.394	3.030	2.909	2.618	2.888
360.0	688.7	893.3	944.8	886.3	765.4	701.3	658.6	642.7	626.3	621.2	653.4	648.4	654.2	590.4	516.2	440.0	378.3	333.0	306.2	336.9	357.5	213.3	148.7	145.3	232.0	495.3	1505	8242	9999.9	373.9	20.47	7.206	6.029	3.884	3.093	2.829	2.236	1.947	1.796	1.542	1.680	1.604	1.618	1.598	1.835	2.166	2.385	2.741	2.707	2.608	2.454	2.844	2.944	3.025	2.862	2.965	2.943	2.966	3.011	2.975	2.941	2.901	3.177	3.143	2.879	3.067	3.085	3.090	3.221	3.046	3.121	3.146	3.419	3.092	2.707	2.685	2.841
365.0	684.9	856.7	930.7	858.1	771.6	737.4	697.0	666.9	654.1	638.2	651.5	640.0	645.7	580.7	520.9	451.0	396.0	356.1	319.5	308.3	363.7	312.6	184.9	141.2	134.5	169.5	380.2	2346	9999.9	9999.9	321.5	12.81	7.343	4.957	3.364	3.011	2.655	2.064	1.935	1.744	1.852	1.614	1.631	1.639	1.886	2.045	2.340	2.650	2.685	2.517	2.555	3.060	2.947	2.968	3.196	2.990	2.962	3.074	3.205	3.183	2.886	3.169	3.076	3.050	2.888	3.061	2.998	3.154	3.006	2.979	3.160	3.197	3.157	3.104	2.966	2.828	2.785
370.0	684.1	829.7	896.2	862.7	807.1	757.7	721.1	696.2	671.7	655.2	657.9	635.8	626.8	573.2	520.8	458.6	418.3	382.7	348.6	326.0	326.0	352.7	296.2	186.8	137.2	118.5	142.8	567.1	2824	8415	9585	1339	23.85	7.300	4.845	3.810	2.885	2.399	2.059	1.893	1.864	1.728	1.698	1.775	1.922	2.028	2.253	2.558	2.652	2.425	2.551	2.943	3.064	2.971	2.988	3.026	3.117	3.260	3.159	3.218	3.208	3.147	3.179	2.978	3.089	3.049	3.020	3.030	3.061	2.885	3.083	2.971	3.097	2.956	3.047	2.840	2.942
375.0	659.2	779.1	876.3	842.6	829.2	769.9	748.2	712.8	695.9	670.1	655.8	638.3	612.8	562.8	517.1	465.9	434.8	406.0	374.9	352.7	326.8	318.8	347.6	285.3	171.8	129.2	109.6	182.6	669.6	1953	5451	9999.9	2234	28.88	7.074	4.938	3.598	2.891	2.312	2.135	2.092	1.743	1.854	1.922	2.039	2.051	2.130	2.454	2.578	2.405	2.584	3.094	3.041	2.889	3.094	3.106	3.165	3.172	3.183	2.995	3.184	3.122	3.212	2.982	3.175	3.053	3.030	2.825	3.015	2.923	3.148	3.121	3.060	3.193	3.006	3.008	2.974
380.0	618.2	788.5	853.1	831.5	810.0	776.8	757.1	710.2	695.6	673.8	656.6	620.5	605.1	553.4	520.0	467.1	444.9	419.6	389.4	368.0	340.5	315.6	321.9	340.7	228.6	148.7	115.8	109.1	199.5	473.1	1377	7151	9999.9	1669	19.77	6.125	4.557	3.483	2.398	2.469	2.320	1.767	1.797	1.717	1.984	2.240	2.210	2.301	2.485	2.208	2.589	2.938	3.106	2.933	3.064	3.040	3.319	3.278	3.402	3.088	3.316	3.212	3.125	3.016	2.970	3.261	3.031	2.898	2.950	2.732	3.033	2.951	2.983	2.991	3.175	3.095	3.152
385.0	586.3	724.7	797.5	817.6	785.6	768.3	743.4	715.2	678.3	661.3	639.2	610.3	589.2	548.5	510.4	464.7	442.6	424.6	397.1	378.8	351.0	321.8	304.6	327.5	297.1	185.4	132.3	104.9	106.8	150.1	343.2	1941	8888	9365	279.9	12.66	5.672	3.942	2.939	2.591	2.272	2.018	1.876	1.941	2.179	2.090	2.273	2.353	2.323	2.287	2.460	2.735	2.996	2.888	3.075	2.970	3.187	3.312	3.218	3.024	3.203	3.244	3.139	3.318	3.200	3.198	2.923	3.169	2.832	2.925	3.008	3.027	3.072	3.064	3.010	2.859	3.206
390.0	570.1	719.8	789.5	797.6	781.3	753.2	731.9	698.9	667.4	640.9	629.5	601.8	571.7	534.1	496.3	459.9	440.7	422.9	404.4	387.0	364.2	336.8	315.1	298.1	301.6	260.5	175.5	125.5	102.8	95.14	121.6	466.8	2366	6537	7891	1189	20.17	5.750	4.049	3.109	2.720	2.054	2.119	2.025	2.011	2.032	2.209	2.304	2.565	2.296	2.472	2.834	3.064	3.034	2.950	3.012	3.113	3.392	3.136	3.013	3.317	3.194	2.991	3.142	3.063	3.059	2.925	2.997	2.770	2.967	2.925	3.012	3.059	2.900	2.830	2.838	2.903
395.0	573.3	700.0	756.9	757.4	758.0	743.3	711.5	682.7	663.0	630.3	614.4	585.1	558.7	523.7	493.1	456.4	435.6	416.4	402.0	390.6	370.4	348.3	323.3	298.7	276.2	282.5	247.0	161.8	121.4	99.98	86.91	148.0	558.1	1505	4040	9719	1944	25.53	5.396	3.931	3.490	2.490	2.332	2.125	2.012	2.020	2.129	2.456	2.364	2.242	2.195	2.706	2.900	3.054	2.862	2.818	3.148	3.147	3.153	3.179	3.187	3.097	3.075	3.007	3.019	3.067	2.719	2.925	2.915	2.758	2.651	2.907	2.997	3.082	2.763	3.060	2.873
400.0	568.6	670.7	709.3	749.0	740.3	719.4	694.1	676.1	649.6	629.2	603.8	577.5	552.4	511.9	486.4	444.3	427.8	413.8	397.6	388.8	367.7	352.4	330.9	305.5	273.3	262.0	277.7	209.5	140.9	113.4	88.60	85.53	162.0	363.0	997.3	5793	8613	1512	17.89	4.797	3.817	2.961	2.406	2.270	2.276	2.290	2.277	2.480	2.194	2.135	2.233	2.709	2.658	2.861	3.072	2.891	3.133	3.308	2.948	3.139	3.043	3.051	3.043	2.963	2.865	2.791	2.850	2.736	2.955	2.785	2.622	2.661	3.125	2.949	2.919	2.777	2.790
405.0	528.5	678.9	715.1	728.0	720.5	711.5	685.6	677.3	642.2	619.7	597.2	570.5	543.5	506.6	473.5	439.4	418.1	407.7	395.9	381.3	367.5	352.9	332.3	309.2	283.0	254.2	262.7	254.0	174.6	128.4	99.35	80.07	80.54	113.5	246.8	1515	6293	7365	253.3	11.43	4.585	3.104	2.757	2.473	2.321	2.213	2.256	2.332	2.303	2.259	2.286	2.759	2.853	2.778	2.706	2.919	3.055	2.970	3.175	3.151	2.946	2.916	2.973	2.895	2.742	2.964	2.964	2.626	2.867	2.792	2.917	2.748	2.963	2.632	2.877	2.919	2.919
410.0	497.2	618.1	689.6	700.3	685.5	680.8	669.8	658.2	630.4	607.5	591.0	568.6	532.6	497.4	460.1	426.5	406.7	392.1	382.5	372.8	362.1	348.9	332.2	311.4	287.4	258.3	243.0	248.3	227.6	162.0	117.0	91.14	72.90	65.46	84.24	360.0	1631	4874	6091	1117	18.27	4.519	3.497	2.936	2.567	2.294	2.352	2.391	2.300	2.184	2.254	2.782	2.789	2.773	2.747	2.975	2.810	2.971	2.978	2.967	2.927	3.027	2.873	2.886	2.828	2.770	2.765	2.607	2.799	2.660	2.579	2.625	2.870	2.665	2.703	2.736	2.607
415.0	486.7	617.6	648.5	657.8	654.7	658.1	650.2	634.7	613.8	591.0	577.5	549.1	513.4	479.4	434.8	401.7	384.2	375.2	364.7	358.6	348.6	339.3	328.7	309.6	287.7	263.1	238.5	225.1	232.2	210.9	145.1	104.1	81.05	62.95	54.59	106.0	381.8	1116	2951	6871	1741	22.60	4.551	3.305	3.052	2.685	2.402	2.321	2.249	2.154	2.147	2.666	2.590	2.620	2.630	3.042	2.834	2.900	2.982	3.013	2.683	2.935	2.879	2.717	2.664	2.736	2.623	2.599	2.688	2.682	2.460	2.424	2.555	2.481	2.525	2.614	2.557
420.0	470.4	589.4	615.2	628.0	623.2	651.7	626.4	617.1	603.0	584.0	565.7	539.6	493.3	461.9	423.2	388.5	366.1	360.7	351.5	346.6	336.7	326.7	319.2	303.4	285.9	260.5	242.7	220.6	211.7	223.8	176.9	116.0	86.63	66.86	52.21	53.18	106.4	264.7	722.1	4003	6947	1282	16.19	4.141	3.326	2.835	2.626	2.379	2.345	2.054	2.252	2.561	2.640	2.599	2.573	2.793	2.887	2.926	2.889	2.996	2.900	2.806	2.670	2.717	2.796	2.629	2.644	2.501	2.645	2.632	2.480	2.526	2.528	2.387	2.397	2.523	2.547
425.0	480.1	549.7	611.0	614.7	604.0	625.4	611.1	605.1	589.0	570.3	549.0	523.7	484.2	448.2	407.4	374.9	354.4	341.6	337.3	333.3	323.8	317.0	309.1	297.5	280.2	259.7	242.3	220.8	203.9	206.7	203.1	137.6	95.45	73.52	55.53	45.29	47.87	76.87	175.8	1039	5008	5536	239.4	9.125	4.054	3.123	2.793	2.693	2.337	2.153	2.264	2.580	2.610	2.443	2.626	2.848	2.839	2.781	2.810	2.819	2.728	2.793	2.713	2.710	2.826	2.643	2.583	2.551	2.491	2.479	2.314	2.333	2.356	2.426	2.267	2.414	2.572
430.0	634.5	543.8	570.9	596.9	590.8	610.7	591.6	592.2	573.7	555.5	540.6	508.4	472.2	429.7	391.9	358.3	337.3	328.3	323.8	316.7	309.0	304.6	298.1	286.5	275.3	256.3	240.9	221.2	204.8	190.1	190.4	169.3	117.9	82.17	62.12	49.49	39.97	39.06	55.78	245.0	1300	3658	4856	949.5	16.35	4.201	3.231	2.940	2.528	2.299	2.222	2.588	2.535	2.611	2.663	2.760	2.635	2.813	2.826	2.767	2.735	2.720	2.689	2.626	2.731	2.458	2.694	2.497	2.482	2.388	2.497	2.278	2.356	2.427	2.250	2.264	2.404
435.0	1195	526.0	542.0	561.7	569.2	569.4	573.3	573.2	557.6	548.7	529.3	497.1	453.4	412.2	375.8	340.5	324.1	311.0	305.0	299.1	293.3	289.1	286.8	278.0	268.5	251.0	238.2	221.3	206.8	189.9	173.5	166.4	148.7	100.4	70.69	55.52	43.64	35.54	32.46	69.97	301.9	836.9	2464	5966	1576	21.12	4.118	3.376	2.777	2.431	2.295	2.661	2.564	2.551	2.691	2.752	2.793	2.747	2.733	2.774	2.741	2.679	2.713	2.579	2.733	2.481	2.606	2.431	2.443	2.349	2.334	2.172	2.212	2.160	2.306	2.268	2.114
440.0	1673	674.8	558.7	531.6	543.9	552.6	569.0	564.1	547.5	540.5	513.1	480.8	444.4	402.9	362.2	331.0	309.4	299.0	290.8	285.1	281.1	280.1	273.5	267.2	260.1	247.3	234.0	219.0	206.6	188.7	170.3	153.9	154.2	119.9	79.62	61.43	48.03	37.83	30.34	33.57	81.42	198.3	612.2	3691	6153	1189	13.57	4.248	3.231	2.575	2.417	2.578	2.629	2.542	2.647	2.650	2.650	2.668	2.724	2.650	2.795	2.641	2.616	2.490	2.630	2.465	2.720	2.442	2.271	2.224	2.261	2.243	2.077	2.179	2.188	2.182	2.180
445.0	1757	1155	535.7	522.6	529.6	531.0	549.6	550.8	533.7	521.0	502.0	464.7	423.4	394.8	348.3	316.4	299.7	287.3	278.0	274.9	270.1	265.7	261.2	259.2	250.4	240.2	228.4	215.3	203.1	189.2	169.2	149.1	142.4	134.1	92.78	65.99	51.42	42.06	32.07	28.03	33.37	56.99	148.0	982.1	4741	5386	197.0	8.919	3.631	2.838	2.554	2.708	2.613	2.651	2.353	2.523	2.757	2.737	2.657	2.618	2.599	2.680	2.603	2.592	2.561	2.301	2.517	2.297	2.178	2.222	2.194	2.266	2.130	2.101	2.106	2.118	2.191
450.0	1166	2083	778.0	498.5	501.9	510.1	521.2	526.2	513.2	494.3	478.2	439.8	403.2	366.4	326.3	296.2	276.6	266.0	257.2	252.3	248.6	247.5	242.8	240.7	234.2	225.0	216.2	205.9	195.4	182.8	166.9	144.1	129.0	123.2	110.0	78.34	55.65	45.23	36.15	29.11	26.19	27.52	45.07	229.2	1251	3741	4819	905.6	13.48	3.787	2.908	2.956	2.869	2.475	2.469	2.532	2.684	2.642	2.665	2.598	2.595	2.668	2.487	2.413	2.521	2.342	2.366	2.066	2.120	2.202	2.044	2.069	2.111	2.104	2.046	1.987	2.123
455.0	555.7	2086	1751	491.7	471.1	472.3	485.2	503.0	480.6	468.7	445.5	412.2	377.9	339.3	300.7	269.5	253.0	243.3	235.8	231.7	225.5	222.4	223.2	220.2	213.7	207.6	201.1	191.6	185.8	174.5	159.1	140.1	122.2	107.7	104.8	95.05	65.55	48.41	39.21	32.17	26.57	22.59	23.46	62.10	287.8	856.7	2374	5354	1273	16.15	3.772	3.363	3.043	2.717	2.494	2.631	2.581	2.533	2.763	2.330	2.545	2.690	2.444	2.299	2.325	2.171	2.326	2.028	2.038	2.054	2.017	2.058	1.953	1.795	1.732	1.774	1.998
460.0	368.7	1390	2653	705.7	439.2	451.5	459.8	465.6	450.3	443.3	423.9	391.5	358.7	320.0	282.2	251.6	238.9	227.1	219.0	215.2	207.1	206.3	206.5	206.2	198.9	192.5	187.2	181.1	175.8	165.6	150.8	135.2	117.8	102.0	94.14	96.22	75.66	52.11	41.75	33.93	28.38	23.37	20.03	25.87	73.90	199.4	582.2	3221	4810	933.3	12.57	3.773	3.254	2.940	2.625	2.474	2.630	2.594	2.597	2.464	2.462	2.418	2.355	2.313	2.250	2.071	2.157	1.974	2.073	2.068	1.902	1.945	1.894	1.905	1.664	1.864	1.764
465.0	334.2	728.7	2756	1392	427.9	431.7	433.4	436.3	426.6	419.5	396.4	366.2	334.8	300.4	265.4	234.8	221.7	208.7	203.6	200.1	194.1	191.9	191.2	190.1	186.1	180.1	174.1	170.9	163.4	156.8	144.0	129.6	113.5	97.53	86.49	85.09	82.59	59.18	42.85	35.52	29.41	23.53	19.79	18.32	26.58	52.93	137.8	852.2	3765	4202	163.9	8.586	3.699	3.082	2.671	2.642	2.710	2.518	2.403	2.503	2.346	2.400	2.274	2.407	1.993	2.014	2.010	1.987	2.091	1.945	1.758	1.764	1.721	1.855	1.628	1.817	1.741
470.0	322.3	417.4	1649	2755	595.4	378.6	392.6	399.4	393.8	386.8	363.8	336.9	308.4	274.4	238.7	213.9	198.0	188.7	183.0	177.0	172.3	171.0	171.8	168.9	165.8	162.5	157.0	153.0	147.7	143.4	133.8	119.8	106.1	91.46	80.83	73.77	71.85	66.33	48.51	36.38	30.13	24.69	20.78	17.31	16.95	20.90	38.65	197.4	994.5	2894	3512	838.0	14.04	3.767	2.990	2.666	2.623	2.575	2.423	2.417	2.275	2.204	2.011	2.134	1.970	2.032	1.856	1.866	1.893	1.855	1.837	1.734	1.690	1.637	1.574	1.729	1.686
475.0	333.4	323.8	676.2	2802	1764	376.0	355.7	360.6	357.2	348.0	329.1	304.4	272.7	247.3	213.4	193.0	175.5	171.0	162.7	155.4	153.1	150.2	148.1	149.5	146.1	143.1	140.0	136.5	133.3	129.4	121.9	110.1	98.60	85.86	74.67	66.46	60.08	61.07	57.39	39.54	30.09	25.09	21.06	17.40	15.62	14.43	16.57	50.36	227.1	658.9	1609	3703	1249	18.31	3.406	3.021	2.613	2.600	2.521	2.320	2.077	2.148	1.937	1.921	1.948	1.929	1.745	1.828	1.655	1.819	1.765	1.707	1.511	1.590	1.639	1.844	1.533
480.0	301.7	302.0	382.1	1775	2775	528.6	331.2	332.5	335.4	323.7	310.1	287.6	257.9	228.2	197.2	178.2	163.2	154.9	146.7	143.5	140.0	136.1	136.2	135.3	132.4	129.5	126.6	124.2	123.4	119.7	113.3	102.2	91.45	81.90	71.38	62.85	55.79	52.47	56.40	45.29	31.91	25.67	21.37	17.75	15.53	13.43	12.28	18.30	56.38	152.1	388.9	2080	4112	997.3	11.92	3.542	2.828	2.580	2.467	2.197	2.130	2.071	1.990	1.922	1.905	1.950	1.754	1.776	1.600	1.492	1.501	1.545	1.394	1.530	1.363	1.624	1.487
485.0	275.4	317.8	300.8	848.7	2992	1263	316.9	315.9	304.9	305.1	292.5	270.7	242.1	213.5	185.3	165.4	152.5	144.4	138.0	132.0	128.7	126.8	125.5	126.1	123.3	121.0	118.7	116.4	115.7	111.6	106.3	96.89	86.04	77.37	68.66	59.67	52.80	47.50	49.44	48.44	35.19	26.03	21.92	18.29	15.57	13.31	11.61	11.57	18.52	39.12	91.75	547.0	3054	3751	184.9	6.930	3.172	2.695	2.434	2.322	1.902	2.073	1.955	1.712	1.963	1.724	1.648	1.595	1.555	1.447	1.492	1.511	1.504	1.393	1.294	1.514	1.336
490.0	234.2	326.6	292.5	391.1	1793	2585	428.8	290.5	284.6	279.4	271.4	252.4	221.0	197.6	170.6	152.5	139.9	130.8	124.2	119.7	116.3	114.4	113.1	111.9	112.1	108.8	107.1	105.6	104.5	101.4	96.69	88.62	79.96	71.35	63.63	57.06	50.11	44.18	41.60	42.90	40.50	29.36	22.64	18.67	16.03	13.52	11.69	10.28	10.65	14.25	25.40	126.7	797.0	2432	2512	805.7	14.72	3.419	2.730	2.273	2.160	1.978	1.834	1.781	1.772	1.624	1.626	1.513	1.433	1.432	1.399	1.392	1.353	1.370	1.246	1.218	1.179
495.0	183.4	285.8	294.9	267.4	661.0	2685	1556	276.3	259.9	255.6	242.2	228.9	201.8	179.4	155.8	139.0	126.0	117.9	112.2	106.7	102.7	102.3	99.59	99.55	99.06	97.13	97.22	94.75	93.76	91.33	86.03	79.92	72.59	64.67	58.76	52.46	46.87	42.13	37.33	35.45	37.23	34.17	25.05	18.36	16.37	13.77	12.08	10.53	9.112	9.057	10.69	32.76	182.1	553.3	1432	3909	1346	19.85	3.455	2.585	2.286	1.854	1.844	1.673	1.704	1.562	1.421	1.467	1.319	1.366	1.376	1.330	1.336	1.253	1.241	1.176	1.218
500.0	171.8	235.3	305.0	241.8	319.7	1735	2713	378.6	238.1	237.9	224.4	207.4	189.2	164.6	142.9	126.2	116.6	107.7	101.2	98.62	93.55	93.79	91.67	91.42	89.44	88.94	87.59	85.64	83.45	83.26	79.95	74.10	67.28	61.45	54.51	49.62	44.24	39.96	35.26	32.31	32.34	34.47	28.15	19.53	16.19	14.03	12.18	10.67	9.241	8.001	7.260	12.01	44.97	127.5	351.4	2176	3837	1063	13.98	2.921	2.397	2.039	1.824	1.749	1.610	1.534	1.404	1.330	1.270	1.334	1.280	1.229	1.364	1.116	1.171	1.251	1.100
505.0	162.3	199.4	299.2	237.4	227.6	796.4	3127	1139	224.2	218.4	210.1	196.5	174.4	149.1	131.7	114.2	105.8	99.23	92.30	88.08	87.96	83.87	83.65	84.20	81.08	79.89	78.87	77.45	77.52	75.96	72.41	68.78	61.59	56.13	50.65	47.05	42.00	37.06	33.44	30.83	28.21	30.34	29.97	21.56	16.43	13.93	12.26	10.90	9.466	8.003	7.020	7.477	14.08	32.63	82.54	564.3	2659	3678	210.3	7.144	2.684	2.173	1.746	1.677	1.623	1.530	1.502	1.368	1.357	1.138	1.206	1.201	1.201	1.054	1.003	1.137	1.099
510.0	142.3	161.2	238.2	258.8	192.2	328.7	1930	2888	420.9	196.5	189.6	172.4	154.6	132.9	116.6	102.8	92.29	86.81	80.69	77.66	75.56	72.94	72.59	72.43	71.09	69.14	68.61	68.39	67.49	67.47	63.99	60.18	55.76	50.57	45.79	41.71	37.22	33.52	30.45	28.04	25.23	24.21	26.14	24.35	18.01	14.22	12.09	10.57	9.192	8.036	7.188	6.498	7.400	11.34	22.22	129.7	680.8	2187	2326	901.7	15.39	2.663	2.040	1.652	1.628	1.509	1.371	1.411	1.217	1.176	1.151	1.114	1.173	1.040	1.080	1.004	1.027
515.0	122.2	153.2	173.1	251.2	186.3	202.7	662.3	3363	1531	179.0	164.0	154.6	137.1	119.6	103.3	90.16	80.65	74.52	70.44	67.01	65.65	63.48	61.56	61.72	61.09	60.07	59.10	58.87	59.55	59.44	56.44	52.64	48.08	43.02	41.28	36.56	32.90	30.23	27.28	25.18	22.46	21.21	20.16	22.65	20.65	15.36	11.65	10.12	8.582	7.572	6.871	6.484	5.769	6.481	8.525	32.31	154.8	494.6	1096	2992	1338	20.81	2.622	1.911	1.738	1.499	1.416	1.288	1.170	1.152	1.110	0.962	1.107	1.019	0.991	0.925	0.982
520.0	109.2	125.8	141.0	210.2	207.4	158.1	263.8	2166	3100	254.6	149.8	138.8	123.9	108.0	94.43	81.15	73.97	67.64	63.77	61.30	57.53	57.27	54.64	55.14	54.24	53.70	52.46	52.02	53.13	52.17	50.66	47.65	42.80	39.76	36.50	32.99	30.40	27.15	24.99	23.17	21.33	19.24	17.32	19.21	20.81	16.95	11.50	9.501	8.640	7.413	6.610	6.462	5.819	5.315	5.342	10.63	37.45	113.2	261.3	1482	3035	968.6	15.22	2.183	1.869	1.422	1.411	1.214	1.131	1.241	0.977	1.063	0.985	0.837	0.846	0.925	0.856
525.0	113.0	127.2	126.8	165.4	218.2	147.2	164.9	928.1	3969	819.3	139.0	125.5	113.3	98.53	83.72	74.23	67.88	61.81	58.79	55.77	53.22	51.55	49.28	49.37	48.72	48.22	47.44	48.05	47.28	46.55	44.61	43.32	39.12	35.52	32.95	30.37	27.21	25.25	23.13	22.22	20.02	17.66	16.35	16.23	18.15	17.86	12.97	9.572	8.139	6.940	6.640	5.884	5.741	5.059	4.610	5.599	11.25	28.12	61.40	366.4	1804	2666	223.9	9.020	2.189	1.744	1.285	1.150	1.200	1.123	0.916	0.940	0.965	0.849	0.929	0.914	0.805
530.0	97.29	111.1	110.7	120.4	191.9	158.8	128.3	319.1	2517	2435	318.0	109.4	98.84	87.73	74.89	65.25	59.41	53.43	50.21	47.70	45.29	43.62	43.27	43.67	41.97	41.40	40.98	40.90	41.19	40.39	38.63	37.00	33.96	31.56	28.71	26.18	24.38	22.56	20.46	19.05	17.71	15.67	14.16	13.59	13.54	15.48	14.62	10.22	7.856	6.822	6.238	5.672	5.093	5.233	4.450	4.243	5.239	8.963	16.22	84.09	443.9	1365	1758	873.5	16.49	2.268	1.482	1.201	1.135	1.166	0.959	0.960	0.914	0.840	0.871	0.841	0.778
535.0	84.77	99.00	97.93	94.24	134.1	180.8	117.6	149.6	781.9	3053	1475	104.2	83.72	75.79	63.79	55.29	50.68	46.43	42.40	40.77	38.03	37.59	36.34	36.08	34.84	34.81	34.47	35.27	34.77	35.13	33.25	31.07	29.17	27.22	25.14	22.08	21.46	19.35	18.08	16.55	15.04	13.65	12.88	12.04	11.71	11.40	13.33	11.74	8.068	6.383	5.722	5.068	4.740	4.558	4.321	3.917	3.791	4.374	5.913	20.96	101.1	307.1	643.5	1944	1330	23.88	1.946	1.331	1.165	1.092	1.033	0.938	0.940	0.896	0.816	0.721	0.720
540.0	78.29	87.38	83.23	83.25	99.70	176.3	127.6	107.0	258.2	1977	3593	167.2	76.45	69.50	57.27	48.65	45.58	41.02	37.73	36.39	34.58	32.76	32.97	31.43	31.10	30.62	30.58	30.67	30.40	30.23	28.85	27.39	25.77	23.74	22.32	20.39	18.75	16.64	16.34	14.90	13.53	12.02	11.62	10.94	9.934	9.565	10.85	11.53	8.857	6.307	5.288	4.721	4.382	4.190	3.872	3.869	3.228	3.308	3.412	6.760	24.60	70.26	148.8	812.2	2243	977.4	17.53	1.734	1.225	1.137	1.053	0.817	0.842	0.815	0.841	0.742	0.684
545.0	74.34	77.63	73.31	74.62	82.34	141.0	145.5	90.64	124.9	805.3	4725	620.1	71.75	60.48	50.31	42.76	40.03	36.72	34.12	32.18	30.07	28.80	28.43	28.73	27.48	27.08	27.39	27.01	26.77	27.00	25.89	24.47	22.80	20.88	19.12	18.10	16.85	15.15	14.21	13.43	12.32	11.59	10.75	9.613	8.734	8.319	8.543	9.894	9.592	6.708	4.986	4.416	3.855	3.841	3.478	3.799	3.345	2.844	2.904	3.480	7.298	17.35	35.00	192.5	1087	2072	235.1	11.65	1.466	1.120	1.013	0.926	0.857	0.809	0.746	0.729	0.725
550.0	69.78	69.02	61.62	63.72	65.75	94.94	152.4	92.53	82.87	250.9	2846	2141	127.8	50.09	43.10	36.40	33.05	30.48	28.74	26.88	25.61	24.28	24.07	23.44	23.40	22.51	22.28	21.78	22.23	22.07	20.98	20.30	19.04	17.30	16.32	14.98	14.05	13.15	12.11	11.18	10.29	9.703	8.862	8.025	7.715	6.890	6.785	7.421	8.236	7.207	5.115	4.017	3.572	3.426	3.055	2.937	3.164	3.018	2.505	2.392	3.121	5.329	9.335	44.40	256.3	886.1	1331	771.9	18.27	1.977	1.191	0.911	0.889	0.869	0.654	0.669	0.643
555.0	64.40	64.14	56.45	53.25	55.58	63.31	116.9	114.1	65.41	104.5	818.2	2913	1037	45.20	36.29	31.66	27.03	24.66	24.34	21.95	20.79	19.60	19.88	19.50	19.04	18.43	18.30	17.73	17.78	17.26	17.33	16.48	15.45	13.92	13.02	12.40	11.18	10.37	10.02	9.132	8.532	8.085	7.636	6.474	6.672	5.526	5.609	5.464	5.914	6.317	5.617	4.033	3.194	2.888	2.888	2.615	2.629	2.767	2.394	2.027	2.133	2.518	3.212	11.08	58.50	199.1	400.9	1258	955.6	27.60	1.791	1.018	0.819	0.791	0.696	0.644	0.658
560.0	55.24	58.05	51.63	47.86	46.38	52.48	84.26	129.9	61.48	67.62	235.3	1865	2778	90.19	32.08	26.88	23.72	21.20	20.08	18.67	16.75	17.08	16.46	16.09	16.37	15.94	15.69	15.58	15.09	14.87	14.45	14.17	13.07	12.12	10.97	10.32	9.608	8.973	8.621	7.730	7.313	6.598	6.630	5.920	5.701	5.012	4.789	4.744	4.431	5.154	5.500	4.239	2.806	2.678	2.562	2.244	2.214	2.254	2.359	2.075	1.776	1.676	1.836	3.744	14.24	45.71	91.50	450.9	1228	758.3	21.86	1.255	0.877	0.774	0.727	0.635	0.644
565.0	49.58	53.52	51.08	46.96	38.52	43.86	55.87	122.2	71.02	53.01	90.97	729.1	3796	406.3	29.54	23.40	20.90	18.05	17.37	15.64	14.89	14.78	14.29	13.87	13.49	13.28	13.08	13.07	13.09	12.84	12.64	11.84	11.69	10.19	9.922	8.944	8.243	7.896	7.255	6.899	6.557	5.727	5.674	5.229	5.030	4.712	4.129	3.845	3.665	3.866	4.746	4.662	2.919	2.482	2.347	2.142	1.952	1.998	2.148	2.228	1.656	1.509	1.501	1.812	4.311	11.43	21.62	104.8	501.8	1246	246.7	13.91	1.071	0.848	0.672	0.636	0.611
570.0	51.87	50.03	43.43	38.65	33.15	35.71	39.48	83.45	93.93	49.41	53.06	207.2	2280	1684	70.04	20.33	16.77	15.50	14.28	12.89	12.77	11.80	11.66	11.57	10.88	10.68	10.50	10.54	10.29	10.99	10.51	9.990	9.166	8.260	8.035	7.273	6.880	6.282	6.100	5.689	5.276	4.715	4.645	4.307	4.143	3.913	3.505	3.419	3.047	2.982	3.380	3.994	3.286	2.351	1.991	1.856	1.838	1.725	1.739	1.809	1.903	1.512	1.321	1.261	2.014	3.648	5.918	24.68	115.9	457.2	806.9	528.8	19.14	1.822	0.720	0.686	0.581
575.0	54.23	56.69	42.80	35.61	32.68	29.07	32.12	48.06	103.6	59.15	40.98	72.24	640.3	2411	645.6	18.78	14.63	13.12	11.42	11.10	10.58	9.854	9.298	9.548	8.798	8.775	8.651	8.827	8.444	8.741	8.319	7.985	7.065	6.810	6.204	5.960	5.702	5.236	4.722	4.348	4.352	3.852	3.792	3.763	3.464	3.076	2.969	2.795	2.523	2.314	2.477	2.855	3.379	2.552	1.850	1.668	1.508	1.471	1.446	1.523	1.647	1.768	1.368	1.144	1.369	1.818	2.310	6.670	26.64	102.7	214.5	633.1	737.3	29.13	1.333	0.789	0.671
580.0	53.49	56.66	41.65	32.41	29.88	28.71	27.23	33.21	84.72	79.07	36.93	42.47	174.0	1524	1715	44.61	12.83	10.94	10.32	9.423	9.224	8.325	8.599	7.973	7.832	7.116	7.393	7.450	7.409	7.170	6.854	6.650	6.172	5.905	5.432	4.976	5.193	4.365	4.018	3.983	3.654	3.388	3.135	3.226	2.872	2.718	2.563	2.377	2.248	2.137	2.004	2.033	2.705	2.698	2.023	1.564	1.433	1.372	1.395	1.399	1.350	1.540	1.608	1.129	1.183	1.559	1.399	2.457	6.679	23.76	49.06	199.6	797.6	533.8	22.70	1.060	0.684
585.0	56.95	47.38	41.69	31.30	25.97	24.36	24.87	27.09	56.95	92.03	40.81	35.11	62.12	565.1	2358	106.5	12.23	9.417	9.390	8.148	7.624	7.537	7.243	6.857	6.966	6.102	6.492	6.328	6.021	6.103	6.154	5.361	5.262	5.058	4.656	4.399	4.269	3.971	3.750	3.265	3.103	2.742	2.740	2.991	2.662	2.337	2.252	2.140	1.993	1.856	1.646	1.634	2.074	2.478	2.114	1.559	1.408	1.287	1.192	1.268	1.242	1.262	1.423	1.141	1.188	1.365	1.145	1.497	2.158	6.108	11.98	46.12	287.3	740.2	242.5	14.75	0.839
590.0	52.55	42.83	39.01	30.57	24.80	21.78	22.93	24.48	35.92	85.54	55.82	31.86	36.25	154.2	1440	1103	37.20	8.894	7.988	7.129	6.714	6.172	5.907	5.893	5.303	5.511	5.437	5.007	5.233	4.922	4.830	4.701	4.340	4.181	4.108	3.633	3.555	3.155	3.009	2.891	2.712	2.440	2.312	2.420	2.030	2.094	1.905	1.891	1.746	1.539	1.423	1.335	1.543	1.852	2.014	1.742	1.323	1.202	1.095	1.124	1.048	1.031	1.094	1.135	1.200	1.134	0.959	1.071	1.094	1.992	3.460	10.97	65.84	247.8	445.3	374.1	19.85
595.0	51.56	42.70	38.99	27.88	19.79	18.84	20.52	20.25	25.56	55.61	79.30	33.19	29.07	50.51	402.7	1690	368.2	8.364	6.709	6.113	5.727	5.090	4.807	4.981	4.368	4.278	4.668	3.883	4.345	4.281	4.071	3.742	3.853	3.319	3.283	3.062	2.864	2.563	2.484	2.395	2.403	2.106	2.128	1.955	1.692	1.749	1.636	1.534	1.396	1.273	1.258	1.102	1.181	1.316	1.590	1.643	1.530	1.227	0.977	0.951	0.917	0.837	0.797	0.999	1.229	1.091	0.906	0.802	0.772	1.015	1.443	3.142	15.34	55.81	112.9	380.1	461.4
600.0	44.18	42.59	34.57	27.64	19.85	18.89	18.97	19.10	22.42	37.68	84.07	39.83	27.74	26.74	107.6	1135	1080	19.40	6.703	5.741	4.873	4.599	4.513	4.055	4.039	3.968	4.115	3.807	4.016	3.745	3.469	3.263	3.136	2.893	3.048	2.754	2.496	2.363	2.063	2.077	2.058	1.839	1.889	1.683	1.572	1.562	1.438	1.343	1.103	1.099	1.193	1.027	0.911	1.167	1.258	1.592	1.579	1.123	0.886	0.766	0.863	0.742	0.793	0.779	1.094	1.207	1.059	0.822	0.787	0.795	0.860	1.264	3.969	13.03	25.85	114.8	464.2
605.0	43.87	43.63	36.26	25.90	18.97	16.83	16.95	20.35	20.83	30.20	72.83	52.96	27.18	21.38	36.66	437.1	1621	73.01	6.292	4.713	4.380	3.855	3.772	3.728	3.497	3.214	3.564	3.255	3.135	3.101	3.182	3.009	2.616	2.511	2.643	2.091	2.310	2.013	1.949	1.787	1.645	1.542	1.654	1.536	1.415	1.269	1.295	1.257	1.060	0.967	1.090	0.947	0.914	0.896	0.967	1.211	1.604	1.170	0.888	0.864	0.823	0.705	0.780	0.694	0.849	1.027	1.015	0.824	0.812	0.781	0.750	0.897	1.408	3.456	6.235	26.44	162.0
610.0	44.72	46.49	39.84	26.16	18.54	18.49	17.28	21.22	21.52	26.99	49.90	67.80	32.87	21.16	21.02	117.3	1092	734.7	20.42	4.373	4.027	3.610	3.278	3.194	3.089	2.836	3.152	2.859	2.790	2.624	2.641	2.516	2.399	2.141	2.259	1.895	1.857	1.801	1.578	1.553	1.408	1.397	1.348	1.320	1.272	1.164	1.157	1.001	0.905	0.887	0.870	0.813	0.782	0.801	0.858	0.886	1.182	1.253	0.937	0.776	0.703	0.659	0.697	0.675	0.726	0.787	0.935	0.945	0.845	0.644	0.728	0.731	0.842	1.198	1.842	6.331	37.13
615.0	48.30	42.98	36.59	21.50	18.74	18.31	18.43	18.58	21.02	25.86	35.80	65.36	47.84	21.89	17.79	34.69	320.4	1198	215.7	4.552	3.719	3.413	2.668	2.727	2.701	2.387	2.442	2.402	2.393	2.350	2.068	2.054	2.013	1.862	1.813	1.666	1.520	1.485	1.439	1.368	1.255	1.206	1.207	1.037	1.122	1.017	0.946	0.835	0.881	0.764	0.735	0.778	0.697	0.688	0.696	0.724	0.837	1.080	1.076	0.871	0.770	0.695	0.667	0.692	0.646	0.644	0.700	0.923	0.896	0.648	0.667	0.687	0.717	0.779	0.855	1.812	8.715
620.0	41.03	40.81	33.20	24.71	19.57	15.88	16.62	18.50	20.62	22.97	30.97	51.37	57.06	22.83	16.03	15.67	83.67	875.5	585.1	9.123	3.528	3.047	2.399	2.600	2.325	2.085	2.297	2.089	2.107	2.154	2.038	1.754	1.653	1.614	1.642	1.463	1.320	1.340	1.341	1.155	1.174	1.079	1.096	0.866	0.970	1.005	0.871	0.834	0.835	0.694	0.711	0.777	0.656	0.728	0.621	0.652	0.677	0.799	0.968	0.946	0.653	0.653	0.616	0.583	0.599	0.701	0.576	0.721	0.934	0.732	0.671	0.580	0.586	0.622	0.630	0.814	2.345
625.0	43.34	40.19	32.21	23.61	17.02	15.87	17.74	18.79	20.30	23.24	30.02	39.62	63.64	26.56	15.55	11.40	25.90	363.4	1124	49.02	3.651	3.119	2.247	2.485	2.027	2.080	1.996	2.207	1.994	1.882	1.878	1.731	1.579	1.507	1.413	1.251	1.313	1.151	1.142	1.055	0.975	0.996	1.007	0.981	0.895	0.837	0.805	0.874	0.659	0.670	0.647	0.665	0.654	0.669	0.604	0.584	0.681	0.668	0.867	0.922	0.703	0.576	0.582	0.497	0.520	0.679	0.602	0.694	0.690	0.745	0.779	0.661	0.630	0.526	0.566	0.653	1.004
630.0	42.47	42.67	31.04	22.23	17.55	15.47	15.84	17.20	20.18	22.52	28.05	32.10	54.83	38.04	15.44	10.43	12.07	95.06	847.2	546.6	10.52	2.812	2.300	2.183	1.966	1.850	1.821	1.608	1.660	1.698	1.570	1.449	1.392	1.402	1.279	1.046	1.115	1.112	0.952	0.917	0.848	0.882	0.856	0.796	0.774	0.780	0.744	0.699	0.664	0.596	0.573	0.623	0.579	0.570	0.568	0.557	0.588	0.616	0.630	0.825	0.731	0.643	0.584	0.584	0.550	0.633	0.641	0.605	0.591	0.647	0.841	0.700	0.639	0.512	0.493	0.519	0.633
635.0	45.19	38.11	31.01	21.22	16.34	15.54	14.87	16.33	19.60	23.14	27.87	29.08	38.85	46.06	18.91	10.73	8.931	25.80	261.3	1003	61.70	2.875	2.240	2.065	1.931	1.752	1.741	1.341	1.615	1.511	1.480	1.245	1.188	1.143	1.134	1.030	1.054	0.970	0.914	0.836	0.803	0.780	0.847	0.697	0.729	0.700	0.667	0.595	0.604	0.522	0.532	0.541	0.505	0.551	0.466	0.519	0.531	0.577	0.555	0.672	0.731	0.609	0.630	0.528	0.560	0.717	0.574	0.637	0.519	0.521	0.772	0.731	0.744	0.549	0.504	0.504	0.629
640.0	41.88	37.59	31.41	21.45	16.46	14.12	15.12	16.56	17.49	20.98	26.41	26.79	32.91	44.18	23.06	10.50	7.736	10.45	67.99	808.8	427.8	4.779	2.120	1.976	1.736	1.591	1.678	1.362	1.472	1.389	1.208	1.156	1.166	1.107	1.065	1.011	1.005	0.865	0.835	0.725	0.742	0.759	0.786	0.690	0.666	0.648	0.642	0.571	0.559	0.463	0.535	0.533	0.513	0.466	0.439	0.580	0.493	0.478	0.602	0.606	0.584	0.629	0.613	0.510	0.560	0.704	0.590	0.673	0.506	0.476	0.763	0.709	0.743	0.659	0.395	0.548	0.558
645.0	40.27	40.38	31.06	22.40	19.70	14.83	13.47	17.42	17.60	21.52	26.85	25.97	28.15	37.63	30.95	11.18	7.665	6.586	19.15	367.7	854.8	30.57	2.246	1.775	1.740	1.494	1.715	1.360	1.250	1.406	1.219	1.013	1.099	1.091	1.016	0.913	1.073	0.706	0.738	0.644	0.656	0.715	0.723	0.627	0.676	0.560	0.570	0.608	0.526	0.471	0.473	0.519	0.512	0.438	0.488	0.500	0.437	0.519	0.539	0.558	0.561	0.661	0.587	0.514	0.565	0.660	0.624	0.627	0.511	0.485	0.668	0.628	0.747	0.746	0.401	0.500	0.466
650.0	51.61	43.17	35.89	22.22	18.32	14.86	13.93	16.94	18.23	20.56	25.96	26.51	27.18	30.28	33.89	12.57	7.349	5.598	7.973	110.5	890.5	186.5	2.499	1.847	1.582	1.543	1.717	1.376	1.400	1.216	1.207	0.999	1.058	0.979	0.909	0.878	0.892	0.757	0.780	0.722	0.597	0.646	0.695	0.590	0.571	0.557	0.506	0.611	0.424	0.500	0.430	0.470	0.463	0.426	0.480	0.464	0.451	0.446	0.502	0.555	0.533	0.631	0.638	0.555	0.605	0.660	0.660	0.647	0.484	0.611	0.624	0.622	0.803	0.648	0.523	0.523	0.481
