Sample:	'1
File name:	T2025021212Œ‘¿«πµ50m¥Ûπµ 20±∂.FD3
Run date:	'11:05:49, 02/13/2025
Operator:	Administrator
Comment:	'

Instrument
Model:	F-2700 FL Spectrophotometer
Serial number:	23B8-004
ROM Version:	4J14000 07

Instrument parameters
Measurement type:	3-D scan
Data mode:	Fluorescence
EX  Start WL:	220.0 nm
EX  End WL:	600.0 nm
EX Sampling interval:	5.0 nm
EM  Start WL:	230.0 nm
EM  End WL:	650.0 nm
EM Sampling interval:	5.0 nm
Scan speed:	12000 nm/min
EX Slit:	5.0 nm
EM Slit:	5.0 nm
PMT Voltage:	700 V
Response:	Auto 
Corrected spectra:	Off
Contour interval:	50.000

Peak integration
Integration method:	Rectangular
Sensitivity:	1
Threshold:	1.000

Peaks
No.	ApexEX/EM(nm)	Height(Data)
1	225.0/335.0	5642
2	225.0/580.0	44.59
3	230.0/500.0	225.8
4	235.0/510.0	174.1
5	240.0/265.0	416.8
6	240.0/525.0	155.9
7	245.0/270.0	420.4
8	245.0/535.0	126.6
9	245.0/600.0	38.41
10	250.0/275.0	542.3
11	250.0/550.0	116.5
12	250.0/605.0	36.62
13	255.0/285.0	654.8
14	255.0/565.0	114.7
15	260.0/290.0	737.7
16	260.0/575.0	108.9
17	265.0/295.0	958.9
18	265.0/585.0	110.5
19	270.0/300.0	1292
20	270.0/600.0	107.3
21	275.0/305.0	1278
22	275.0/335.0	1823
23	275.0/610.0	88.36
24	280.0/625.0	68.71
25	285.0/320.0	1437
26	285.0/640.0	68.98
27	310.0/350.0	571.2
28	315.0/355.0	561.8
29	320.0/360.0	527.5
30	350.0/400.0	136.8
31	355.0/405.0	121.5
32	365.0/420.0	95.35
33	370.0/425.0	86.71
34	375.0/430.0	68.85
35	380.0/435.0	71.77
36	385.0/445.0	58.22
37	395.0/455.0	40.39
38	400.0/465.0	37.88
39	405.0/470.0	28.00
40	410.0/475.0	24.22
41	415.0/485.0	21.72
42	420.0/490.0	18.18
43	425.0/500.0	16.08
44	430.0/505.0	13.90
45	435.0/510.0	11.04
46	440.0/520.0	10.43
47	445.0/525.0	9.042
48	450.0/335.0	14.95
49	455.0/540.0	6.446
50	470.0/560.0	3.413
51	485.0/265.0	2.523
52	505.0/275.0	3.391
53	510.0/280.0	4.160
54	515.0/285.0	4.355
55	530.0/290.0	4.930
56	540.0/295.0	6.664
57	545.0/300.0	7.590
58	550.0/305.0	7.895
59	560.0/335.0	9.747
60	585.0/325.0	9.738

Data points
	220.0	225.0	230.0	235.0	240.0	245.0	250.0	255.0	260.0	265.0	270.0	275.0	280.0	285.0	290.0	295.0	300.0	305.0	310.0	315.0	320.0	325.0	330.0	335.0	340.0	345.0	350.0	355.0	360.0	365.0	370.0	375.0	380.0	385.0	390.0	395.0	400.0	405.0	410.0	415.0	420.0	425.0	430.0	435.0	440.0	445.0	450.0	455.0	460.0	465.0	470.0	475.0	480.0	485.0	490.0	495.0	500.0	505.0	510.0	515.0	520.0	525.0	530.0	535.0	540.0	545.0	550.0	555.0	560.0	565.0	570.0	575.0	580.0	585.0	590.0	595.0	600.0
230.0	93.19	2119	5204	1396	41.96	8.054	5.628	4.860	4.356	3.953	3.878	3.581	3.363	3.090	2.582	2.158	1.829	1.874	1.793	1.549	1.473	1.348	1.193	1.192	1.044	0.953	0.884	0.860	0.759	0.735	0.692	0.638	1.075	0.704	0.532	0.545	0.490	0.418	0.409	0.405	0.449	0.653	0.667	0.491	0.340	0.372	2.055	10.41	18.09	12.69	3.994	0.751	0.292	0.260	0.241	0.252	0.246	0.227	0.248	0.236	0.238	0.203	0.220	0.245	0.203	0.197	0.238	0.229	0.204	0.226	0.199	0.206	0.223	0.218	0.234	0.213	0.228
235.0	163.2	588.7	3081	4938	519.9	78.89	7.252	6.755	4.148	4.576	4.496	4.081	3.438	3.047	2.837	2.427	2.019	1.681	1.660	1.651	1.531	1.308	1.195	1.283	1.009	1.040	0.798	0.834	0.825	0.783	0.667	0.605	1.147	0.778	0.550	0.590	0.504	0.461	0.405	0.410	0.332	0.513	0.568	0.664	0.677	0.531	0.737	2.861	6.775	11.62	15.71	15.16	7.174	1.790	0.309	0.251	0.271	0.307	0.238	0.251	0.240	0.247	0.232	0.303	0.243	0.224	0.286	0.199	0.233	0.212	0.202	0.261	0.258	0.224	0.219	0.206	0.251
240.0	233.4	253.7	923.4	4292	3949	434.2	43.75	8.179	5.820	5.284	4.581	4.070	3.696	3.392	3.085	2.840	2.020	2.027	1.680	1.771	1.464	1.349	1.153	1.266	0.973	0.956	0.971	0.860	0.816	0.627	0.655	0.736	1.053	0.939	0.492	0.565	0.538	0.460	0.390	0.409	0.366	0.401	0.393	0.532	0.905	0.890	0.740	0.949	1.810	3.561	8.658	20.58	23.85	16.62	7.030	1.101	0.341	0.263	0.265	0.235	0.248	0.246	0.237	0.275	0.245	0.250	0.225	0.168	0.232	0.245	0.246	0.244	0.250	0.250	0.191	0.221	0.244
245.0	167.1	285.8	282.0	1481	4855	3412	338.8	17.42	7.985	6.428	4.362	5.225	4.394	3.950	3.327	2.603	2.464	1.912	1.909	1.816	1.446	1.328	1.293	1.229	1.139	0.867	0.957	0.941	0.889	0.676	0.694	0.662	1.174	0.844	0.519	0.527	0.612	0.383	0.422	0.412	0.366	0.423	0.358	0.374	0.528	1.025	1.153	0.947	0.786	1.042	2.267	7.037	17.45	28.54	26.29	16.49	5.085	0.502	0.286	0.277	0.262	0.272	0.299	0.252	0.248	0.272	0.228	0.165	0.227	0.250	0.242	0.248	0.201	0.261	0.221	0.218	0.287
250.0	72.92	198.4	312.1	434.8	1605	4812	4562	1239	77.89	9.851	7.176	6.296	5.501	4.231	3.696	2.985	2.490	2.274	2.059	2.026	1.469	1.534	1.365	1.370	1.325	1.083	0.993	0.878	0.922	0.730	0.738	0.649	1.158	0.782	0.548	0.522	0.477	0.454	0.424	0.463	0.428	0.470	0.362	0.374	0.423	0.564	0.756	1.096	1.201	1.036	0.996	1.941	4.499	9.727	18.37	28.25	32.19	32.29	13.90	5.835	0.665	0.296	0.322	0.291	0.285	0.273	0.279	0.276	0.255	0.276	0.283	0.255	0.238	0.320	0.251	0.246	0.274
255.0	39.85	69.09	221.3	397.7	449.8	1254	4259	8435	1759	79.69	12.22	8.443	6.953	5.233	4.391	3.201	2.845	2.445	2.371	2.121	1.830	1.737	1.638	1.326	1.311	1.254	1.067	1.024	0.978	0.840	0.831	0.799	1.289	0.952	0.574	0.526	0.477	0.533	0.402	0.446	0.498	0.453	0.404	0.406	0.351	0.480	0.468	0.486	0.731	1.206	1.604	1.698	1.438	2.500	4.406	7.049	13.49	32.97	57.74	59.99	21.70	6.289	0.479	0.387	0.310	0.319	0.317	0.322	0.342	0.308	0.284	0.289	0.297	0.299	0.255	0.235	0.239
260.0	38.06	40.44	92.15	342.7	358.0	339.8	1366	7464	8740	1366	42.37	12.36	8.301	6.367	5.194	3.767	3.327	2.919	2.370	2.276	1.971	1.593	1.675	1.403	1.338	1.371	1.056	1.059	1.034	0.855	0.835	0.798	1.294	0.937	0.573	0.564	0.549	0.507	0.391	0.457	0.427	0.531	0.517	0.430	0.434	0.449	0.396	0.354	0.462	0.652	1.140	2.100	1.850	1.434	1.368	1.977	3.466	9.297	26.53	58.09	77.67	29.81	17.42	3.083	0.441	0.368	0.350	0.365	0.327	0.309	0.310	0.339	0.277	0.275	0.260	0.318	0.310
265.0	42.29	32.50	40.25	164.4	416.8	264.5	354.2	2646	9340	9281	205.9	20.77	11.22	8.171	6.004	4.888	3.578	3.097	2.579	2.327	2.020	1.865	1.782	1.592	1.441	1.366	1.177	1.154	1.100	0.963	0.966	0.910	1.465	0.897	0.585	0.628	0.577	0.525	0.482	0.493	0.453	0.472	0.479	0.386	0.438	0.452	0.394	0.447	0.461	0.367	0.558	1.164	2.045	2.523	1.506	0.918	1.182	2.499	6.554	17.40	44.60	77.71	93.30	28.15	12.54	1.125	0.470	0.377	0.399	0.337	0.344	0.345	0.314	0.414	0.322	0.311	0.324
270.0	51.91	36.90	30.81	59.88	222.1	420.4	288.4	655.8	3058	9076	9999.9	3683	58.53	12.73	8.717	6.390	4.773	3.901	3.368	2.783	2.445	2.090	1.922	1.585	1.441	1.490	1.278	1.254	1.197	1.012	1.021	1.023	1.622	1.142	0.770	0.699	0.668	0.591	0.534	0.567	0.537	0.482	0.519	0.463	0.447	0.513	0.417	0.407	0.377	0.340	0.375	0.540	0.929	1.615	2.154	2.328	1.925	1.410	1.975	4.356	10.80	23.28	47.17	70.64	94.11	76.11	50.94	9.217	1.398	0.426	0.397	0.395	0.368	0.374	0.393	0.367	0.382
275.0	97.45	58.63	44.22	46.41	90.73	232.0	542.3	373.0	758.7	2335	7743	9999.9	1187	60.92	13.49	9.504	5.962	4.682	3.869	3.351	2.810	2.285	2.211	1.935	1.699	1.432	1.464	1.377	1.294	1.260	1.057	1.104	1.828	1.400	1.098	0.938	0.898	0.759	0.677	0.657	0.649	0.707	0.673	0.540	0.664	0.580	0.541	0.434	0.383	0.406	0.348	0.483	0.584	0.724	0.970	1.551	2.946	3.391	2.349	1.771	2.943	5.770	11.28	16.83	28.82	63.39	139.2	135.0	28.43	12.15	1.016	0.495	0.492	0.497	0.409	0.393	0.413
280.0	157.3	111.4	78.93	84.35	95.56	148.7	427.9	626.2	354.6	675.6	2384	9999.9	9999.9	909.0	29.57	12.26	7.947	6.026	4.652	3.877	3.145	2.786	2.393	2.122	1.903	1.702	1.543	1.402	1.453	1.296	1.146	1.054	1.923	1.582	1.402	1.188	1.174	0.907	0.836	0.963	0.766	0.780	0.782	0.657	0.814	0.745	0.645	0.607	0.539	0.556	0.476	0.551	0.678	0.731	0.773	1.024	1.666	3.083	4.160	3.456	1.981	2.221	3.464	4.795	7.456	16.57	50.58	107.7	147.2	122.5	23.86	5.786	0.664	0.600	0.497	0.478	0.442
285.0	233.4	172.6	146.9	131.1	145.3	170.5	265.9	654.8	578.3	362.7	785.5	3652	9999.9	8200	115.6	18.19	10.78	7.755	5.506	4.364	3.482	2.992	2.981	2.309	2.314	1.998	1.651	1.723	1.470	1.318	1.183	1.296	2.151	1.700	1.682	1.482	1.302	1.254	1.101	1.047	0.923	0.896	0.887	0.865	0.902	0.864	0.735	0.786	0.739	0.712	0.681	0.774	0.858	0.900	0.971	1.063	1.346	1.611	2.839	4.355	4.252	2.689	2.217	2.367	3.079	5.338	12.90	28.82	69.56	138.3	154.9	32.36	17.30	2.306	0.717	0.526	0.586
290.0	326.0	277.7	244.5	213.0	225.7	238.3	268.6	400.1	737.7	724.4	576.1	1172	3728	9999.9	9999.9	2220	32.67	10.84	7.847	5.838	4.417	3.546	3.053	2.643	2.278	2.195	1.847	1.691	1.598	1.443	1.306	1.392	2.318	1.859	1.812	1.842	1.626	1.455	1.380	1.331	1.246	1.125	1.132	1.100	1.024	1.040	1.045	1.047	1.049	1.061	0.930	1.173	1.159	1.230	1.348	1.292	1.496	1.530	1.920	2.511	3.464	4.522	4.930	3.970	3.168	3.355	4.856	8.423	17.80	37.08	67.06	90.05	123.6	109.2	70.59	11.58	2.252
295.0	423.5	391.8	350.3	305.3	316.3	337.4	342.8	363.4	512.5	958.9	951.3	736.2	1157	2633	9999.9	9999.9	656.9	29.76	10.34	7.727	5.509	4.273	3.658	3.067	2.772	2.488	2.211	1.750	1.660	1.462	1.369	1.468	2.653	2.014	2.171	1.880	1.886	1.688	1.721	1.399	1.377	1.279	1.274	1.231	1.238	1.180	1.242	1.447	1.251	1.239	1.229	1.397	1.580	1.658	1.703	1.823	1.935	1.869	1.992	2.029	2.398	3.069	4.194	6.249	6.664	4.996	3.687	4.199	6.262	10.22	16.60	21.47	33.13	73.14	149.6	160.7	32.88
300.0	486.3	467.7	434.1	384.5	395.8	431.5	424.6	414.2	504.6	784.6	1292	882.1	666.5	822.7	2976	9999.9	9999.9	495.5	18.10	10.10	7.056	5.428	4.185	3.481	3.033	2.672	2.245	1.998	1.780	1.761	1.600	1.576	2.557	2.188	2.138	2.175	2.038	1.826	1.835	1.537	1.500	1.580	1.475	1.400	1.397	1.544	1.527	1.700	1.639	1.530	1.534	1.745	1.906	1.961	2.188	2.186	2.585	2.371	2.470	2.307	2.491	2.771	3.528	4.372	6.292	7.590	6.086	4.584	4.430	4.801	5.565	6.406	8.676	18.28	46.76	106.0	157.3
305.0	540.9	526.5	493.2	448.0	448.7	485.3	500.5	484.3	550.0	696.2	1136	1278	674.4	472.3	836.1	3897	9999.9	4928	70.51	13.95	9.031	6.729	5.238	4.200	3.170	3.204	2.281	2.210	2.036	1.759	1.563	1.566	2.585	2.200	2.058	2.169	2.206	1.955	1.882	1.674	1.641	1.567	1.651	1.420	1.500	1.650	1.803	1.702	1.793	1.616	1.575	2.106	2.110	2.289	2.328	2.609	2.802	2.687	2.861	2.591	2.817	2.931	3.450	3.732	4.452	6.570	7.895	6.812	5.223	4.070	3.556	3.241	3.499	5.549	11.59	26.67	62.67
310.0	685.8	660.2	535.9	450.2	455.7	505.5	522.1	507.3	566.6	681.2	864.2	1151	1028	517.9	394.2	1015	3830	9999.9	9864	1481	25.31	9.356	6.714	5.091	3.911	3.550	2.817	2.569	2.202	1.943	1.705	1.795	2.792	2.330	2.051	2.185	2.095	2.193	1.847	1.812	1.835	1.635	1.634	1.740	1.873	2.162	2.107	2.023	1.789	1.765	1.684	1.960	2.142	2.246	2.372	2.644	2.844	2.665	2.723	2.704	2.877	3.210	3.452	3.683	4.022	4.800	5.529	6.268	6.715	6.237	4.624	3.167	2.611	3.080	4.027	7.182	15.14
315.0	1623	1428	870.5	520.9	474.4	527.4	566.8	581.7	678.4	829.6	988.4	1106	1206	1021	523.9	471.0	995.9	2517	9735	9999.9	470.0	25.60	9.281	6.841	5.112	4.223	3.285	2.905	2.523	2.286	2.085	1.940	3.188	2.709	2.131	2.089	2.147	2.183	2.063	2.043	2.036	2.210	2.497	3.197	3.758	4.407	4.317	3.762	2.692	2.129	1.863	2.167	2.311	2.357	2.327	2.799	3.217	2.876	3.187	3.171	3.431	3.855	4.027	4.382	4.999	5.024	5.505	5.737	5.897	6.646	7.381	6.703	4.628	3.841	3.196	3.620	4.971
320.0	3259	3293	1595	679.3	530.3	559.2	623.3	705.8	869.7	1095	1299	1433	1397	1437	945.9	549.9	491.9	745.2	2818	9999.9	9999.9	377.1	17.42	8.881	6.718	4.538	3.810	3.043	2.945	2.671	2.268	1.930	3.970	2.560	2.076	2.197	2.247	2.253	2.329	2.456	3.020	3.134	4.212	5.721	7.435	9.209	8.801	7.728	4.808	3.110	2.260	2.615	2.470	2.528	2.540	2.805	3.297	3.325	3.526	4.076	4.173	4.608	5.211	5.689	6.248	6.741	7.039	7.394	7.419	7.444	7.820	8.546	8.519	7.729	5.182	4.419	3.649
325.0	4320	4416	2123	831.8	574.1	572.5	650.5	786.5	974.4	1244	1481	1632	1570	1429	1322	725.9	424.4	391.7	790.8	3565	9999.9	3694	57.36	12.87	8.458	5.610	4.561	3.657	3.010	2.602	2.444	2.156	4.208	3.144	2.368	2.285	2.499	2.427	2.666	3.017	3.470	3.893	5.266	7.014	9.539	12.11	11.53	10.31	6.218	3.799	2.734	2.817	2.691	2.575	2.634	2.892	3.326	3.416	3.801	4.517	4.844	5.098	6.008	6.528	7.253	7.533	7.699	8.408	8.422	8.380	7.923	8.285	8.564	9.738	7.628	5.513	3.614
330.0	4871	4932	2437	1023	641.5	576.0	659.1	807.6	1030	1302	1549	1685	1614	1373	1208	917.1	518.3	347.1	379.5	982.0	3572	9007	7898	1253	22.39	8.129	5.641	4.415	3.547	3.039	2.781	2.574	4.785	3.111	2.308	2.421	2.433	2.665	2.683	3.116	3.569	4.520	5.961	8.142	10.58	13.24	12.93	11.23	7.007	4.533	3.251	3.167	3.015	2.861	2.652	2.838	3.357	3.406	3.900	4.421	5.017	5.524	6.272	6.952	7.655	7.793	8.180	8.813	8.774	8.771	7.841	8.002	7.616	8.218	7.601	6.732	5.545
335.0	5520	5642	2969	1368	817.6	628.6	683.1	841.9	1102	1390	1670	1823	1749	1485	1210	895.4	761.3	472.0	354.2	464.1	1007	2315	7975	9999.9	394.1	23.57	8.048	6.026	4.095	3.751	3.315	2.813	5.403	3.398	2.498	2.492	2.566	2.730	2.834	3.429	4.063	4.891	6.674	8.920	12.08	14.83	14.95	13.25	8.674	5.581	4.213	4.261	3.646	2.995	2.943	2.857	3.572	3.527	4.174	4.353	5.044	5.710	6.458	7.300	8.047	8.514	8.986	9.299	9.747	9.456	8.488	8.720	7.996	8.547	7.026	6.074	5.676
340.0	5391	5546	3157	1537	925.4	645.8	672.6	826.4	1071	1358	1623	1752	1689	1432	1161	799.2	712.2	617.3	392.2	368.6	462.4	699.9	2324	9999.9	9072	339.7	15.08	7.145	5.479	4.440	3.454	3.142	6.011	3.906	2.470	2.587	2.513	2.496	2.799	3.332	4.143	4.722	6.798	8.835	11.72	14.41	14.17	13.03	9.246	6.049	4.560	4.930	4.180	3.319	2.860	2.854	3.424	3.538	3.976	4.451	4.758	5.772	6.378	6.772	7.395	8.551	8.715	8.673	9.393	9.297	8.520	8.342	7.729	8.062	6.985	5.174	4.827
345.0	4786	5034	3068	1638	963.1	659.5	645.1	763.7	993.9	1252	1478	1600	1545	1313	1060	729.4	574.1	651.3	494.5	374.7	364.4	371.3	669.7	3288	9999.9	3148	50.84	9.466	6.182	4.719	3.507	3.239	6.636	3.635	2.498	2.323	2.494	2.557	2.653	3.129	3.584	4.321	6.130	7.929	10.57	12.83	12.58	12.41	8.915	5.846	5.253	5.045	4.189	3.428	3.014	2.861	3.125	3.299	3.709	3.810	4.461	5.390	5.950	6.248	7.185	7.810	8.249	7.828	8.491	8.453	8.092	7.440	6.988	7.556	6.384	4.871	4.144
350.0	4148	4383	2843	1649	991.2	654.9	609.9	708.7	889.2	1119	1316	1417	1371	1175	957.2	669.9	508.1	521.2	571.2	480.4	374.8	325.5	324.3	839.7	3249	7132	6095	1110	19.63	6.233	4.479	3.614	7.817	4.043	2.394	2.413	2.483	2.449	2.407	2.815	3.328	4.078	5.412	7.035	9.154	11.31	11.01	10.93	8.354	6.037	5.269	5.097	4.310	3.356	2.871	2.840	2.898	3.186	3.495	3.629	4.259	4.893	5.297	5.738	6.389	6.851	7.060	7.138	7.655	7.575	7.083	6.633	6.372	6.826	5.765	4.600	4.018
355.0	3379	3697	2549	1583	965.5	635.1	565.1	625.4	774.9	981.3	1136	1222	1189	1032	843.7	616.6	479.9	455.7	477.5	561.8	450.1	331.2	261.0	304.6	788.1	1726	5533	8477	371.4	23.17	5.798	4.204	9.590	4.366	2.462	2.224	2.195	2.321	2.508	2.693	2.808	3.498	4.320	5.507	7.793	9.187	9.066	9.774	7.807	5.984	4.972	5.074	4.209	3.307	3.006	2.800	2.531	2.816	3.036	3.329	3.540	4.295	4.648	5.200	5.374	5.875	6.153	6.490	6.494	6.479	5.869	6.063	5.627	6.482	5.049	4.397	4.088
360.0	2774	3149	2325	1498	949.8	617.3	536.9	578.5	705.5	871.7	996.1	1072	1047	908.4	765.0	574.3	465.3	433.9	429.2	499.9	527.5	363.9	253.8	195.6	249.9	426.1	1502	7149	7014	336.3	13.92	5.262	12.27	5.587	2.790	2.411	2.186	2.264	2.261	2.488	2.795	3.094	3.831	4.967	6.762	7.995	7.781	8.255	6.783	5.481	4.768	5.033	3.929	3.424	2.883	2.583	2.555	2.590	2.769	2.997	3.306	3.828	4.077	4.605	5.067	5.169	5.362	5.377	5.730	5.731	5.022	5.547	5.218	5.556	4.682	4.238	3.733
365.0	2420	2699	2073	1403	922.1	617.0	510.6	533.4	641.5	782.1	893.1	954.9	936.0	826.1	703.1	545.4	457.2	425.0	418.5	433.1	502.7	443.2	266.4	178.8	136.9	138.2	363.1	2141	7771	6018	269.7	8.071	15.00	6.061	2.987	2.644	2.327	2.258	2.233	2.411	2.544	2.833	3.408	4.068	5.252	6.698	6.604	7.312	6.232	4.976	4.505	4.788	3.843	3.182	2.738	2.562	2.569	2.470	2.782	2.899	3.159	3.748	3.907	4.096	4.488	4.532	4.845	5.202	5.152	5.177	4.772	4.748	4.756	5.223	4.501	3.822	3.734
370.0	1981	2247	1827	1295	892.6	608.3	474.5	480.0	560.6	678.0	773.1	831.8	819.1	742.4	655.0	536.1	460.6	429.3	410.4	399.7	410.3	434.2	337.8	190.5	117.1	79.05	109.8	499.6	2291	5924	5047	1119	31.20	7.792	3.635	3.063	2.565	2.342	2.173	2.124	2.400	2.636	3.048	3.555	4.383	5.592	5.707	6.146	5.436	4.622	4.124	4.361	3.816	3.230	2.699	2.472	2.274	2.309	2.504	2.533	2.740	3.128	3.405	3.606	3.942	3.967	4.166	4.481	4.436	4.613	4.379	4.288	4.234	5.028	3.995	3.622	3.562
375.0	1598	1824	1595	1193	853.4	598.9	456.4	431.0	490.8	585.6	679.5	723.2	728.5	679.5	624.6	533.4	471.2	435.5	407.3	377.0	359.8	342.8	347.5	256.9	122.9	70.53	57.68	133.2	526.2	1391	3958	7146	2522	26.19	4.520	3.705	3.003	2.634	2.373	2.208	2.370	2.373	2.663	3.040	3.535	4.647	4.944	5.170	5.094	4.140	3.788	4.014	3.565	3.202	2.608	2.481	2.278	2.211	2.247	2.263	2.622	2.749	3.006	3.238	3.275	3.491	3.581	3.776	4.134	3.996	3.905	4.085	3.949	4.848	4.180	3.735	3.529
380.0	1409	1600	1402	1115	833.5	600.3	435.6	401.3	449.2	527.8	601.5	657.3	675.3	649.9	612.9	541.2	488.9	445.5	408.1	367.4	336.5	299.4	287.8	288.1	155.5	73.27	48.10	54.79	136.0	326.2	1044	5313	9999.9	1706	13.63	4.227	3.500	3.029	2.547	2.166	2.422	2.287	2.590	2.907	3.297	3.997	4.278	4.458	4.432	3.838	3.671	3.827	3.652	3.066	2.701	2.490	2.147	2.072	2.100	2.209	2.271	2.673	2.841	2.927	2.935	3.175	3.390	3.601	3.814	3.890	3.934	3.809	3.812	4.527	4.076	3.709	3.899
385.0	1180	1438	1263	1052	823.1	602.4	441.3	372.4	408.7	483.0	550.9	620.7	639.7	629.9	610.4	557.7	507.5	455.3	406.2	355.6	318.1	277.0	242.5	245.4	208.0	91.06	48.56	39.64	51.10	89.90	248.4	1507	9999.9	9999.9	241.4	7.686	4.111	3.415	2.783	2.579	2.343	2.263	2.436	2.699	3.068	3.503	3.770	3.933	4.043	3.333	3.373	3.831	3.332	3.182	2.921	2.559	2.190	1.896	2.060	2.068	2.089	2.391	2.472	2.525	2.772	2.920	3.105	3.081	3.545	3.491	3.576	3.685	3.877	4.528	3.929	3.944	3.793
390.0	1005	1232	1164	1002	804.8	593.5	424.1	349.3	371.1	434.0	496.8	564.7	609.4	617.5	610.0	572.8	523.7	462.1	398.2	341.5	297.1	254.6	213.0	185.2	186.1	147.5	69.71	40.48	36.42	39.89	71.30	350.1	3260	8443	3658	951.1	16.47	4.088	3.194	2.858	2.497	2.375	2.506	2.440	2.795	3.239	3.303	3.728	3.629	3.140	3.174	3.483	3.242	3.087	2.916	2.499	2.199	1.946	2.020	1.946	1.957	2.042	2.296	2.479	2.489	2.651	2.825	3.027	3.264	3.400	3.394	3.554	3.832	4.462	4.000	4.109	3.898
395.0	905.7	1046	1063	941.4	784.0	587.5	414.5	321.7	340.4	392.3	451.8	515.8	569.9	602.3	606.6	580.6	530.3	461.6	390.5	323.1	271.3	234.2	193.7	156.1	132.7	143.7	122.8	52.61	36.29	31.44	34.19	92.02	750.4	1940	2476	5271	1417	19.64	3.793	3.310	2.979	2.539	2.468	2.350	2.480	2.816	2.864	3.227	3.265	3.079	2.959	3.400	3.312	3.033	2.884	2.378	2.133	1.949	1.786	1.849	1.882	1.925	1.896	2.250	2.411	2.370	2.506	2.851	2.914	3.232	3.324	3.543	3.671	4.257	4.266	4.217	4.241
400.0	827.9	946.7	1006	896.6	759.2	573.6	397.5	310.4	310.6	359.5	418.0	485.0	547.4	583.2	596.4	577.6	526.0	457.9	380.2	309.6	259.9	219.2	179.7	140.9	115.7	106.1	136.8	88.55	41.17	31.20	27.13	36.30	190.8	446.7	636.4	3520	4543	256.3	12.09	3.531	3.085	2.645	2.243	2.314	2.313	2.564	2.844	3.165	3.078	3.114	2.923	3.363	3.223	2.945	2.702	2.288	2.151	1.970	1.750	1.763	1.652	1.801	1.883	2.068	2.115	2.404	2.407	2.611	2.972	3.119	3.072	3.379	3.534	3.890	4.086	4.131	4.400
405.0	769.3	873.2	935.6	866.8	734.4	564.3	394.7	303.5	296.1	334.2	388.6	456.1	520.2	564.1	582.9	566.9	517.2	448.0	368.8	299.1	243.4	206.7	166.6	134.4	107.9	87.01	106.3	121.5	54.83	34.63	27.48	25.13	67.26	114.2	152.1	967.7	3718	3334	207.5	5.918	3.315	2.727	2.393	2.204	2.050	2.522	2.646	2.837	2.754	2.824	2.654	3.192	3.058	2.835	2.614	2.317	2.109	1.933	1.681	1.769	1.652	1.517	1.905	1.982	2.168	2.295	2.428	2.352	2.819	2.931	2.971	3.432	3.382	4.062	3.805	3.834	4.143
410.0	670.2	787.5	849.8	796.8	698.4	540.5	381.5	293.2	271.1	307.6	355.7	419.0	482.8	527.2	551.0	536.2	492.9	428.5	343.8	277.4	221.9	185.1	152.6	124.2	101.3	79.21	75.77	99.40	98.12	54.78	31.15	24.88	42.23	40.94	43.66	224.3	1001	2571	2490	790.0	14.54	3.228	2.780	2.232	2.158	2.371	2.439	2.744	2.800	2.570	2.496	2.948	2.989	2.906	2.704	2.249	2.130	1.800	1.678	1.769	1.583	1.692	1.664	1.787	1.915	1.960	2.089	2.196	2.564	2.720	2.895	3.151	3.128	3.933	3.516	3.668	3.856
415.0	590.7	717.9	762.5	724.0	651.0	511.8	373.4	283.9	251.9	275.4	321.6	378.6	437.0	479.1	506.1	497.3	457.2	393.0	319.4	252.7	199.9	164.5	136.6	114.7	94.72	74.66	65.25	65.42	89.97	92.23	44.74	27.17	36.45	25.26	20.05	58.04	230.1	593.6	1469	3221	1109	17.44	3.058	2.504	2.165	2.304	2.335	2.475	2.497	2.551	2.313	2.664	2.582	2.681	2.401	2.033	2.046	1.787	1.740	1.555	1.504	1.541	1.616	1.505	1.946	1.888	1.812	2.097	2.346	2.508	2.657	2.816	2.884	3.621	3.364	3.554	3.535
420.0	539.6	633.6	695.9	691.2	608.2	484.1	348.2	276.6	243.5	252.5	296.8	349.1	401.9	449.6	467.0	463.5	424.8	365.6	293.3	230.7	184.3	151.6	125.9	106.5	89.66	71.93	61.36	56.93	66.53	95.35	69.00	31.01	33.89	22.26	14.99	21.31	58.22	139.0	370.4	2029	3108	236.5	10.25	2.741	2.380	2.348	2.212	2.386	2.463	2.406	2.340	2.583	2.428	2.534	2.451	2.098	1.859	1.652	1.597	1.481	1.491	1.451	1.518	1.423	1.624	1.691	1.766	1.927	2.180	2.429	2.535	2.853	2.807	3.049	3.139	3.382	3.273
425.0	514.7	592.1	640.1	649.0	580.5	459.9	333.7	262.9	232.9	236.7	273.5	325.5	369.8	413.4	434.9	427.6	397.7	335.7	273.3	214.2	170.2	141.2	117.4	99.90	83.48	68.33	60.53	54.37	53.44	72.29	86.71	44.63	33.64	20.87	14.60	13.47	19.94	37.07	88.63	547.3	2387	1970	187.5	4.703	2.486	2.476	2.229	2.327	2.387	2.133	2.023	2.484	2.567	2.262	2.250	2.021	1.819	1.655	1.660	1.398	1.430	1.376	1.413	1.386	1.469	1.735	1.703	1.695	2.047	2.137	2.320	2.631	2.567	2.907	2.775	3.022	3.157
430.0	742.1	536.1	576.5	581.5	519.5	428.5	326.5	258.6	223.1	219.1	247.5	291.1	334.1	374.0	391.5	382.0	354.7	306.0	245.3	194.1	152.3	126.4	106.8	90.87	78.60	66.51	58.76	52.99	49.07	50.88	68.20	68.85	47.29	22.54	14.79	12.48	12.17	14.90	25.28	127.3	633.0	1643	1987	682.7	12.78	2.882	2.452	2.278	2.272	2.127	1.944	2.282	2.292	2.247	2.008	1.884	1.836	1.646	1.519	1.377	1.419	1.334	1.300	1.383	1.316	1.468	1.557	1.554	1.738	1.940	2.237	2.300	2.436	2.780	2.590	2.693	2.827
435.0	1719	519.6	519.4	507.7	475.4	394.1	312.1	248.6	210.8	202.1	227.7	260.1	295.7	326.8	347.2	336.9	310.8	268.9	222.5	173.9	136.6	112.1	96.25	83.96	73.18	64.40	57.98	51.00	48.38	44.19	46.07	60.16	71.77	32.82	15.84	12.43	11.26	10.55	11.47	33.30	145.5	378.7	1117	2669	847.9	16.31	2.883	2.302	2.402	1.980	1.847	2.114	2.218	2.018	1.892	1.763	1.735	1.625	1.457	1.353	1.281	1.237	1.253	1.163	1.257	1.244	1.529	1.558	1.667	1.750	1.725	1.883	2.294	2.407	2.488	2.397	2.341
440.0	2768	697.3	481.6	483.3	434.9	368.8	302.7	239.5	200.8	191.9	208.4	236.6	266.5	295.2	310.4	305.5	281.5	241.5	200.2	157.5	123.8	102.9	88.17	79.59	69.74	61.83	55.38	49.97	47.74	42.03	39.01	43.46	71.16	45.45	19.75	13.58	10.92	9.799	9.033	13.28	37.04	88.70	283.4	1724	2017	215.1	8.591	2.654	2.185	1.999	1.846	2.064	2.198	1.809	1.909	1.727	1.602	1.472	1.646	1.332	1.342	1.226	1.218	1.187	1.261	1.133	1.310	1.410	1.355	1.562	1.814	1.934	1.980	2.166	1.999	2.270	2.177
445.0	3088	1334	454.6	439.4	408.8	338.6	283.6	239.0	193.0	183.1	193.9	219.0	245.4	269.6	277.2	281.1	255.4	222.8	181.0	144.7	116.2	94.80	81.99	74.10	66.79	58.20	52.50	49.79	46.19	41.59	38.01	35.11	54.87	58.22	30.59	15.11	11.87	10.00	8.435	8.512	13.03	23.96	67.27	470.4	1845	1814	155.2	4.364	2.426	2.136	1.732	1.997	1.915	1.933	1.819	1.592	1.564	1.412	1.423	1.175	1.209	1.278	1.102	1.195	1.182	1.208	1.208	1.286	1.325	1.632	1.648	1.830	1.934	1.982	1.945	2.033	2.063
450.0	1995	2809	687.3	389.4	363.9	313.2	260.0	223.1	180.6	167.3	173.6	193.4	213.4	235.8	243.2	240.5	222.6	194.2	159.0	127.6	103.2	86.53	74.23	66.64	61.64	55.23	50.76	48.47	44.45	41.04	36.23	31.78	40.08	46.48	45.11	24.92	13.76	10.74	9.028	7.808	8.018	9.626	18.76	108.8	499.0	1532	1882	565.8	10.34	2.333	1.822	1.943	1.998	1.871	1.664	1.633	1.564	1.474	1.339	1.329	1.233	1.175	1.061	1.144	1.165	1.123	1.120	1.274	1.259	1.394	1.484	1.639	1.569	1.925	1.874	1.757	1.734
455.0	726.6	3066	1866	370.9	314.9	280.5	239.6	205.9	170.0	152.9	153.0	169.5	185.0	199.0	207.8	201.9	188.4	163.5	136.4	111.3	88.46	75.51	65.63	61.08	54.58	51.38	48.04	44.27	40.93	39.86	35.50	30.51	33.40	29.96	38.23	40.39	20.37	11.70	9.355	8.221	7.325	6.985	8.052	27.65	114.4	352.0	1026	2086	194.4	12.06	2.055	2.080	1.984	1.669	1.505	1.436	1.531	1.493	1.311	1.263	1.198	1.194	1.083	0.903	1.095	1.048	1.047	1.166	1.065	1.232	1.278	1.329	1.358	1.532	1.638	1.587	1.557
460.0	344.4	2031	3131	568.3	279.5	253.3	225.2	193.2	158.8	142.3	145.9	149.5	164.9	172.7	182.6	174.7	163.2	143.9	120.6	98.03	80.20	67.18	60.44	54.74	49.67	47.84	43.63	42.68	39.00	38.08	34.38	30.07	31.77	25.87	27.31	39.95	30.74	14.66	9.935	8.335	7.197	6.334	5.894	9.460	28.67	81.72	253.7	1271	2108	165.0	6.958	2.091	2.128	1.704	1.497	1.396	1.465	1.363	1.391	1.253	1.041	1.104	0.931	0.888	0.959	1.072	1.026	1.130	1.081	1.121	1.105	1.204	1.428	1.404	1.655	1.432	1.471
465.0	259.3	925.8	3521	1337	256.6	228.2	205.7	184.1	145.4	130.9	130.0	136.3	145.7	152.4	160.3	157.0	144.7	126.8	107.9	86.99	72.54	60.66	55.36	51.72	46.70	44.33	41.72	40.30	37.87	35.52	33.18	28.57	30.36	23.84	20.91	29.70	37.88	20.54	10.89	7.971	7.109	5.963	5.577	5.703	9.540	21.39	59.92	338.0	1880	1380	131.2	3.540	2.138	1.761	1.534	1.343	1.495	1.303	1.270	1.185	1.009	1.131	1.045	0.954	0.913	0.974	1.011	1.027	1.013	1.136	0.947	1.022	1.260	1.305	1.408	1.304	1.333
470.0	247.9	381.6	2095	2956	428.2	195.9	180.8	164.8	132.6	117.4	117.4	120.0	124.8	131.4	134.9	131.1	121.9	106.8	91.27	75.39	63.24	53.47	48.45	45.04	41.96	39.88	38.27	37.00	34.92	33.44	30.80	26.80	29.03	22.23	18.31	19.88	27.86	28.00	16.56	8.901	7.254	6.069	5.606	5.159	5.428	7.755	16.28	78.19	510.3	1202	1323	463.7	10.14	2.003	1.610	1.335	1.437	1.279	1.258	1.103	1.101	0.995	0.946	0.807	0.829	0.851	0.867	0.906	0.919	0.953	0.956	0.995	1.079	1.197	1.142	1.119	1.099
475.0	257.7	242.5	704.8	3274	1516	196.0	159.1	144.9	117.4	102.2	99.86	105.5	108.8	109.5	112.1	107.4	100.4	88.76	75.22	61.92	53.74	46.38	41.87	39.41	36.26	35.77	33.89	33.66	31.71	30.04	27.94	25.44	26.32	20.35	16.94	15.82	17.96	23.92	24.22	12.74	7.553	5.890	5.333	4.624	4.876	4.586	6.147	19.87	116.1	274.3	639.0	1495	197.5	12.49	1.774	1.444	1.410	1.180	1.284	0.964	1.033	0.860	0.830	0.906	0.804	0.832	0.827	0.737	0.818	0.876	0.804	0.855	0.808	0.997	0.931	1.019	1.000
480.0	255.2	217.1	302.9	2117	2718	375.6	143.8	131.2	110.3	93.55	89.00	93.12	96.44	96.26	95.82	92.10	88.54	79.62	67.35	54.95	46.76	41.12	36.64	35.91	33.99	33.04	31.43	31.25	29.52	28.00	26.21	23.27	24.93	19.19	16.29	14.47	13.85	16.81	24.15	18.34	9.509	6.035	5.065	4.567	4.397	4.002	4.019	6.857	28.41	63.54	155.3	833.7	1520	182.2	6.130	1.673	1.481	1.300	1.411	1.052	0.964	0.819	0.803	0.832	0.772	0.715	0.744	0.720	0.822	0.727	0.734	0.843	0.812	0.844	0.834	0.872	0.920
485.0	219.9	250.8	198.8	915.7	3032	1056	138.4	122.8	103.4	89.94	84.94	86.20	84.81	85.56	84.39	83.32	78.43	70.53	60.49	51.10	41.52	37.71	34.77	32.97	31.32	29.85	28.81	28.48	27.52	26.50	24.59	22.44	23.93	18.73	15.84	13.99	12.97	12.71	18.82	21.72	12.79	6.752	5.523	4.361	4.244	4.175	3.819	3.836	8.596	16.55	37.07	218.3	1220	1327	140.3	2.965	1.544	1.405	1.218	1.094	0.848	0.867	0.844	0.788	0.756	0.731	0.762	0.699	0.671	0.690	0.788	0.831	0.778	0.842	0.839	0.924	0.827
490.0	161.2	245.9	181.1	334.5	1806	2343	299.0	109.8	94.45	81.81	76.96	76.11	75.21	74.94	74.13	72.47	67.68	59.75	51.61	44.14	37.47	33.39	30.29	29.55	28.16	27.39	26.18	25.79	25.03	24.76	22.84	20.77	22.20	17.25	14.82	13.05	11.89	11.04	12.25	17.24	18.18	10.55	5.930	4.505	4.137	3.880	3.697	3.421	4.212	5.795	10.37	50.97	320.4	880.5	1269	465.8	11.02	1.553	1.394	1.167	0.956	0.843	0.751	0.767	0.738	0.807	0.737	0.652	0.670	0.651	0.721	0.714	0.752	0.854	0.732	0.806	0.752
495.0	108.3	205.5	210.5	175.7	601.7	2508	1490	115.6	83.19	73.27	69.55	69.24	65.24	65.77	62.39	60.79	57.31	51.27	45.27	39.16	32.63	29.70	27.59	27.04	25.48	24.53	23.66	23.62	22.77	22.53	21.00	19.70	19.76	16.52	14.30	12.27	10.92	9.931	9.495	10.90	15.82	15.32	8.419	4.744	4.303	3.742	3.341	3.429	3.450	3.308	4.396	13.29	73.46	200.9	649.5	1533	221.8	13.41	1.562	1.361	1.086	0.951	0.828	0.713	0.784	0.652	0.729	0.631	0.678	0.608	0.608	0.719	0.630	0.729	0.731	0.679	0.663
500.0	94.46	153.8	225.8	138.9	224.7	1617	2608	253.0	77.73	70.79	64.78	61.57	57.25	57.57	54.65	52.66	50.69	44.77	38.95	34.00	29.14	27.04	24.59	23.72	23.68	22.20	21.15	20.93	21.08	20.54	19.29	17.82	18.37	15.09	13.26	11.53	10.28	9.503	8.408	8.110	11.04	16.08	11.92	5.693	4.122	3.640	3.338	3.218	3.474	3.019	2.745	4.983	18.29	46.74	158.0	844.2	1546	201.9	7.347	1.467	1.128	0.919	0.790	0.698	0.767	0.657	0.724	0.609	0.674	0.637	0.646	0.678	0.627	0.700	0.630	0.624	0.696
505.0	80.99	118.9	214.2	141.9	126.0	690.8	2893	968.6	74.95	64.69	57.98	55.43	53.40	50.79	49.20	46.19	43.37	38.72	35.29	30.49	26.35	24.53	22.04	21.55	21.01	19.75	19.76	18.90	19.20	18.67	17.69	17.47	17.39	13.96	12.12	10.89	9.395	8.874	7.758	7.036	7.760	12.41	13.90	7.943	4.308	3.509	3.280	2.871	3.188	3.010	2.553	3.075	5.901	12.20	37.28	217.8	1121	1431	163.6	3.456	1.201	0.984	0.911	0.717	0.682	0.669	0.664	0.603	0.568	0.523	0.603	0.653	0.623	0.654	0.590	0.591	0.674
510.0	71.62	93.17	155.3	174.1	98.19	227.9	1727	2289	188.6	57.47	51.14	48.06	45.04	44.11	41.40	39.49	37.39	32.98	29.65	26.32	22.64	20.68	18.89	18.77	18.31	17.74	17.61	17.29	17.04	15.97	15.71	14.84	15.70	12.70	11.07	9.516	8.614	7.896	7.113	6.256	6.263	7.420	11.03	11.04	6.492	3.666	3.087	2.763	2.743	2.797	2.789	2.548	2.949	4.319	10.02	50.32	286.7	873.0	1256	490.8	11.49	1.336	0.923	0.833	0.687	0.636	0.634	0.613	0.552	0.567	0.512	0.504	0.541	0.641	0.559	0.538	0.585
515.0	66.09	75.23	102.8	172.2	105.8	103.6	540.3	2410	1437	63.08	45.95	41.17	40.50	38.52	36.49	32.16	31.12	28.03	25.02	21.56	18.96	17.84	16.70	15.75	15.50	15.87	15.05	15.35	14.80	14.17	13.52	12.79	13.81	11.09	9.340	8.745	7.650	7.149	6.256	5.628	5.267	5.105	6.405	10.16	9.676	5.134	3.102	2.632	2.629	2.554	2.492	2.459	2.284	2.488	3.716	12.73	65.41	197.5	540.5	1471	662.2	15.94	1.121	0.916	0.721	0.616	0.668	0.676	0.504	0.492	0.531	0.580	0.536	0.692	0.545	0.412	0.481
520.0	58.86	65.00	80.81	144.3	131.7	72.76	173.4	1508	2719	174.1	42.22	37.57	34.42	33.37	31.48	28.37	26.33	24.36	22.99	19.22	16.74	15.88	14.97	14.00	13.69	14.52	13.50	13.44	13.22	13.15	12.12	11.45	12.24	10.08	8.348	8.036	6.930	6.284	5.973	5.249	4.763	4.474	4.501	6.997	10.43	7.240	3.515	2.514	2.531	2.228	2.298	2.668	2.277	2.102	2.233	4.238	15.94	45.33	127.8	724.6	1439	219.1	9.317	1.088	0.882	0.682	0.676	0.633	0.620	0.456	0.522	0.443	0.443	0.592	0.504	0.469	0.498
525.0	51.02	66.52	65.72	109.9	155.9	73.51	83.49	620.1	3165	940.0	42.50	34.27	32.11	29.38	27.67	25.81	22.58	20.89	19.06	17.46	15.19	14.42	12.82	12.95	12.46	12.73	12.02	11.83	11.65	11.71	11.01	10.63	11.72	9.354	7.808	7.381	6.741	5.773	5.416	4.716	4.581	4.395	3.945	4.461	8.193	9.042	4.789	2.864	2.209	2.155	2.044	2.167	2.639	2.129	1.878	2.392	4.865	11.31	29.96	178.3	852.2	1322	185.2	4.143	0.992	0.724	0.626	0.594	0.474	0.603	0.460	0.537	0.576	0.544	0.512	0.434	0.454
530.0	46.22	53.99	50.04	66.92	140.1	97.39	57.72	188.1	1796	2429	150.3	32.23	28.23	27.13	23.73	22.21	19.50	18.17	16.40	14.85	13.48	11.99	11.81	11.14	10.86	10.73	10.58	10.48	9.954	10.40	9.909	9.285	10.27	8.003	6.974	6.345	5.773	5.285	4.706	4.460	3.845	3.678	3.432	3.274	4.768	7.284	7.002	3.946	2.198	1.872	1.860	1.963	2.076	2.228	1.833	1.722	2.375	3.681	7.854	41.02	208.7	688.7	1022	476.2	13.05	1.023	0.748	0.674	0.572	0.526	0.483	0.456	0.481	0.492	0.536	0.434	0.452
535.0	49.46	46.15	44.49	47.13	94.15	126.6	53.36	75.01	523.5	2717	1408	38.32	24.10	23.30	19.96	17.62	16.69	15.74	14.14	12.86	11.20	10.21	9.789	9.525	9.250	8.917	8.888	8.785	9.126	8.539	8.567	7.750	9.211	7.159	5.748	5.677	5.140	4.558	4.192	3.702	3.533	3.252	2.901	2.726	3.106	4.267	6.572	5.944	2.955	1.922	1.741	1.580	1.717	1.754	2.168	1.675	1.491	1.746	2.753	10.11	47.43	155.2	356.4	1122	685.0	18.85	1.056	0.742	0.686	0.644	0.491	0.535	0.588	0.483	0.443	0.447	0.380
540.0	45.00	40.76	41.58	38.16	56.83	124.9	67.68	46.68	151.2	1547	2788	147.9	22.94	19.18	18.67	15.49	15.37	14.48	12.23	10.91	9.643	9.323	8.494	8.548	8.498	8.035	7.759	8.117	8.008	7.883	7.381	6.919	8.383	6.590	5.156	5.033	4.686	4.094	3.848	3.502	3.246	2.843	2.671	2.653	2.522	2.812	4.579	6.446	4.166	2.151	1.582	1.570	1.486	1.523	1.878	1.961	1.452	1.408	1.487	3.214	11.57	35.57	82.44	467.9	1179	231.1	12.94	0.984	0.753	0.566	0.516	0.591	0.552	0.527	0.416	0.429	0.462
545.0	43.22	38.74	36.35	35.70	38.36	104.8	95.61	38.05	60.89	574.5	3025	824.3	22.42	17.92	16.65	15.08	13.28	12.57	10.83	9.740	8.900	8.246	7.893	7.726	7.411	7.005	6.941	6.968	7.081	6.869	6.629	6.381	7.476	5.755	4.801	4.387	3.855	3.708	3.476	3.113	2.897	2.671	2.554	2.201	2.192	2.254	2.989	5.203	5.151	2.846	1.677	1.358	1.397	1.314	1.512	1.817	1.843	1.231	1.209	1.478	3.467	8.802	19.44	110.5	570.8	1074	207.4	7.257	0.893	0.529	0.589	0.562	0.557	0.463	0.389	0.423	0.378
550.0	38.98	34.24	33.13	30.75	31.16	58.86	116.5	48.53	36.15	163.4	1529	2286	107.4	16.72	13.93	12.37	11.58	10.49	9.321	8.394	7.684	6.870	6.606	6.554	6.240	6.027	6.043	5.813	5.899	5.749	5.573	5.313	6.297	4.818	3.988	3.740	3.363	3.244	3.101	2.650	2.557	2.357	2.211	1.996	1.947	1.797	1.911	2.963	4.440	3.842	2.146	1.377	1.293	1.198	1.259	1.384	1.602	1.640	1.164	1.097	1.456	2.694	5.110	25.49	134.4	465.0	806.8	498.7	15.62	1.044	0.596	0.531	0.558	0.522	0.420	0.387	0.361
555.0	40.24	36.17	27.31	30.51	25.33	34.59	95.30	80.66	32.77	61.56	426.2	2297	1021	21.38	12.33	10.80	9.323	9.306	7.826	6.906	6.499	5.666	5.472	5.332	5.142	5.045	4.936	4.540	4.774	4.767	4.674	4.394	5.323	4.176	3.191	2.995	2.849	2.731	2.568	2.276	2.071	1.908	1.847	1.804	1.745	1.594	1.675	1.749	2.607	3.744	3.149	1.525	1.106	1.040	1.010	1.185	1.238	1.400	1.426	1.055	0.922	1.169	1.843	6.384	30.68	104.5	240.0	781.8	634.1	23.26	0.945	0.680	0.577	0.558	0.503	0.404	0.328
560.0	44.65	35.84	26.36	28.46	27.67	30.29	66.60	109.7	39.76	42.19	128.7	1249	2173	99.78	11.19	9.610	8.579	7.470	6.164	5.957	5.530	4.999	4.814	4.739	4.645	4.176	4.401	3.890	4.019	4.016	3.825	3.677	4.717	3.577	2.852	2.611	2.372	2.174	2.187	2.071	1.802	1.822	1.751	1.656	1.509	1.550	1.487	1.250	1.682	2.854	3.413	2.192	1.183	1.080	0.817	0.960	1.039	1.136	1.593	1.164	0.829	0.809	1.116	2.020	7.546	24.04	54.82	274.6	839.9	245.7	16.50	0.887	0.695	0.608	0.507	0.431	0.354
565.0	39.07	32.02	28.43	27.87	27.35	29.48	44.28	114.7	56.09	40.22	62.96	454.9	2446	564.5	11.64	8.569	7.134	6.313	5.610	5.214	4.779	4.672	4.360	3.865	3.861	3.664	3.926	3.592	3.723	3.324	3.290	3.257	4.305	3.073	2.553	2.390	2.339	2.012	1.975	1.748	1.661	1.546	1.433	1.347	1.302	1.339	1.276	1.095	1.180	1.823	2.803	2.657	1.439	0.994	0.872	0.957	1.013	0.907	1.158	1.415	1.000	0.770	0.845	1.018	2.345	5.996	13.09	63.76	340.2	767.6	218.4	10.47	0.793	0.605	0.419	0.396	0.339
570.0	42.85	35.65	31.08	28.94	25.71	28.01	31.85	82.34	92.62	41.95	49.89	141.1	1279	1559	71.09	8.249	6.471	5.615	5.061	4.289	4.246	3.723	3.425	3.467	3.239	3.089	3.267	2.724	2.930	2.926	2.900	2.568	3.661	2.500	2.247	2.066	1.881	1.788	1.691	1.502	1.499	1.419	1.230	1.214	1.234	1.144	1.000	0.859	0.984	1.149	1.728	2.283	1.962	1.159	0.911	0.788	0.836	0.809	0.838	1.059	1.258	0.948	0.792	0.809	1.164	1.904	3.498	14.87	78.52	286.4	545.6	417.7	18.78	1.568	0.523	0.403	0.356
575.0	45.02	42.02	33.40	34.23	29.84	29.34	30.56	49.15	108.9	61.88	49.46	67.19	358.1	1832	684.3	9.973	5.834	4.354	4.415	3.767	3.674	3.153	3.077	2.809	2.758	2.319	2.656	2.460	2.605	2.574	2.473	2.181	3.143	2.439	1.715	1.741	1.530	1.553	1.348	1.344	1.241	1.226	1.047	1.117	1.046	0.919	0.888	0.895	0.884	0.854	0.984	1.560	1.940	1.645	1.023	0.778	0.773	0.680	0.736	0.722	0.994	1.354	0.963	0.806	0.814	1.005	1.316	3.916	18.16	64.51	143.2	489.3	648.8	28.40	0.894	0.539	0.387
580.0	43.60	44.59	34.75	33.42	31.03	30.97	30.78	35.32	90.47	87.67	50.19	50.73	111.2	1074	1455	54.07	5.806	4.731	3.860	3.276	3.437	2.993	3.130	2.689	2.458	2.381	2.179	2.274	2.361	2.161	2.039	2.011	3.056	2.096	1.562	1.412	1.412	1.408	1.264	1.301	1.184	1.012	1.003	0.907	0.947	0.911	0.747	0.848	0.756	0.715	0.753	1.095	1.628	1.854	1.230	0.757	0.680	0.624	0.656	0.650	0.730	1.163	1.155	0.798	0.702	0.745	0.911	1.409	4.701	15.01	32.65	152.2	646.6	595.0	18.87	0.643	0.428
585.0	43.91	42.34	42.33	34.76	31.54	31.60	31.70	34.52	65.94	110.5	57.23	48.42	53.51	378.9	1708	288.7	5.575	4.317	3.987	3.188	3.071	2.583	2.572	2.455	2.370	2.260	2.078	2.068	2.110	1.782	1.810	1.669	2.745	1.819	1.583	1.306	1.348	1.219	1.117	1.082	0.958	0.940	0.837	0.818	0.852	0.812	0.648	0.783	0.653	0.626	0.675	0.779	1.089	1.593	1.334	0.975	0.633	0.582	0.679	0.562	0.634	0.884	1.183	1.048	0.690	0.723	0.822	0.823	1.699	3.806	7.810	35.12	222.8	852.4	224.0	10.98	0.550
590.0	40.79	41.54	38.45	33.18	31.77	31.60	32.12	31.79	42.71	103.8	76.25	47.47	40.11	107.6	949.9	966.4	39.82	4.329	3.665	3.126	2.704	2.384	2.181	2.108	2.096	2.013	1.824	1.684	1.803	1.534	1.499	1.471	2.471	1.712	1.464	1.201	1.100	1.077	1.022	0.860	0.881	0.800	0.822	0.731	0.780	0.753	0.673	0.648	0.603	0.574	0.592	0.664	0.704	1.133	1.496	1.171	0.760	0.600	0.615	0.578	0.571	0.654	0.833	1.004	0.899	0.728	0.705	0.692	0.887	1.330	2.174	8.334	50.95	286.8	392.6	305.7	17.85
595.0	47.97	42.28	36.35	33.34	32.78	35.84	32.24	32.45	38.31	74.13	99.77	50.10	37.50	40.00	256.3	1196	350.8	5.074	3.267	2.731	2.465	2.299	1.952	1.776	1.846	1.807	1.635	1.593	1.500	1.423	1.210	1.275	2.047	1.290	1.263	1.167	1.059	0.799	0.853	0.776	0.775	0.737	0.771	0.665	0.639	0.659	0.589	0.632	0.548	0.457	0.474	0.575	0.582	0.776	1.120	1.319	0.959	0.636	0.596	0.598	0.537	0.583	0.636	0.772	1.193	0.922	0.740	0.651	0.602	0.715	0.869	2.252	11.83	64.46	100.3	312.4	266.1
600.0	49.33	43.34	37.73	36.37	32.19	38.41	33.83	33.80	37.66	54.31	107.3	58.03	38.62	27.09	70.23	767.1	729.5	21.67	3.110	2.514	2.301	2.351	1.840	1.837	1.806	1.483	1.396	1.455	1.323	1.268	1.208	1.132	1.948	1.210	0.977	1.144	1.161	0.728	0.739	0.672	0.735	0.623	0.673	0.619	0.563	0.562	0.521	0.594	0.522	0.490	0.449	0.512	0.561	0.558	0.746	1.200	1.099	0.820	0.613	0.523	0.512	0.549	0.600	0.605	0.872	0.950	0.787	0.597	0.518	0.576	0.541	0.930	3.044	14.90	22.92	94.17	340.6
605.0	46.78	45.43	40.20	38.64	34.32	35.63	36.62	33.09	40.04	49.07	94.12	75.19	39.39	25.85	26.95	292.6	1055	79.24	3.397	2.747	2.099	2.214	1.708	1.660	1.440	1.525	1.398	1.404	1.200	1.097	1.191	1.039	1.784	1.082	0.909	0.990	0.988	0.887	0.637	0.551	0.599	0.675	0.549	0.538	0.628	0.536	0.520	0.497	0.553	0.456	0.482	0.514	0.578	0.485	0.575	0.847	1.177	0.916	0.670	0.482	0.508	0.475	0.598	0.541	0.763	0.857	0.891	0.610	0.518	0.549	0.503	0.576	1.074	3.781	5.474	21.69	120.1
610.0	43.92	41.86	38.75	32.31	29.60	33.28	34.70	33.44	37.91	43.06	66.89	88.36	42.65	24.90	17.98	79.27	663.0	517.4	22.78	2.575	2.062	1.981	1.703	1.374	1.443	1.318	1.222	1.153	1.077	1.001	1.039	0.866	1.739	0.961	0.836	0.874	0.812	0.828	0.577	0.536	0.557	0.521	0.541	0.461	0.548	0.512	0.499	0.440	0.472	0.465	0.424	0.486	0.491	0.451	0.549	0.612	0.857	0.893	0.796	0.541	0.523	0.489	0.491	0.521	0.631	0.622	0.817	0.734	0.639	0.498	0.459	0.435	0.577	1.238	1.553	5.206	27.58
615.0	42.99	41.24	34.74	27.87	26.86	31.16	32.00	30.97	34.81	40.48	47.91	81.72	50.97	23.72	15.23	25.36	187.7	744.5	189.5	2.909	2.017	1.913	1.573	1.231	1.216	1.353	1.020	1.042	1.064	0.898	1.009	0.832	1.662	0.801	0.810	0.813	0.602	0.692	0.663	0.583	0.504	0.486	0.495	0.488	0.432	0.418	0.425	0.400	0.460	0.393	0.394	0.456	0.438	0.481	0.433	0.463	0.593	0.806	0.800	0.597	0.457	0.486	0.397	0.488	0.583	0.503	0.560	0.799	0.751	0.489	0.472	0.456	0.485	0.599	0.613	1.490	6.414
620.0	44.74	40.76	32.61	26.51	26.67	29.61	29.02	28.44	32.39	36.12	41.83	66.58	63.26	24.87	14.64	13.78	50.02	522.1	463.3	11.48	2.081	1.783	1.675	1.246	1.294	1.199	1.090	0.890	0.950	1.056	0.797	0.823	1.665	0.831	0.770	0.609	0.606	0.601	0.612	0.540	0.476	0.368	0.405	0.448	0.381	0.389	0.452	0.408	0.448	0.349	0.369	0.422	0.379	0.414	0.407	0.407	0.493	0.606	0.753	0.658	0.449	0.452	0.416	0.434	0.482	0.419	0.527	0.640	0.831	0.589	0.436	0.433	0.369	0.483	0.452	0.594	1.697
625.0	46.71	44.84	33.61	27.05	25.72	29.38	28.48	30.07	30.67	36.15	39.85	51.82	68.71	30.28	14.86	11.35	17.41	219.7	673.3	58.39	2.229	1.944	1.560	1.339	1.249	1.206	1.187	0.884	0.874	0.871	0.829	0.708	1.509	0.862	0.637	0.593	0.559	0.553	0.595	0.644	0.500	0.428	0.404	0.343	0.418	0.403	0.458	0.479	0.445	0.340	0.366	0.365	0.381	0.367	0.394	0.395	0.423	0.464	0.622	0.731	0.521	0.515	0.444	0.535	0.449	0.467	0.458	0.563	0.648	0.696	0.435	0.432	0.403	0.498	0.399	0.405	0.616
630.0	57.51	53.13	38.21	26.26	25.09	28.09	29.87	28.56	31.95	35.28	41.50	45.34	62.20	42.67	18.31	12.41	10.08	57.94	494.1	371.7	12.87	1.605	1.436	1.361	1.279	1.109	1.054	0.928	0.829	0.881	0.713	0.667	1.409	0.766	0.676	0.556	0.547	0.463	0.528	0.577	0.531	0.491	0.406	0.402	0.400	0.476	0.433	0.414	0.402	0.342	0.350	0.353	0.319	0.371	0.380	0.378	0.427	0.403	0.491	0.704	0.598	0.534	0.435	0.501	0.481	0.448	0.451	0.490	0.550	0.590	0.678	0.534	0.530	0.444	0.378	0.378	0.418
635.0	103.0	96.77	48.59	27.81	24.87	25.84	29.80	29.52	35.25	40.92	48.25	51.10	56.50	59.91	28.77	16.10	9.440	18.44	158.1	606.2	62.94	2.049	1.584	1.260	1.158	0.992	0.971	0.792	0.900	0.742	0.786	0.612	1.321	0.727	0.614	0.525	0.575	0.392	0.495	0.385	0.559	0.530	0.422	0.477	0.473	0.479	0.480	0.524	0.380	0.310	0.300	0.357	0.323	0.412	0.348	0.366	0.383	0.409	0.407	0.545	0.605	0.565	0.575	0.548	0.515	0.445	0.526	0.529	0.511	0.537	0.641	0.725	0.529	0.473	0.372	0.369	0.356
640.0	154.1	143.0	64.86	34.45	24.47	26.26	29.36	30.98	37.71	48.63	53.23	61.11	62.94	68.98	43.05	22.40	13.76	12.52	43.58	489.5	310.7	6.249	1.765	1.341	1.146	0.856	0.845	0.830	0.868	0.676	0.643	0.641	1.320	0.761	0.568	0.420	0.487	0.509	0.454	0.439	0.535	0.677	0.452	0.563	0.551	0.577	0.666	0.554	0.425	0.356	0.305	0.367	0.301	0.381	0.341	0.298	0.400	0.399	0.346	0.439	0.500	0.570	0.589	0.557	0.506	0.438	0.526	0.521	0.519	0.593	0.587	0.720	0.657	0.593	0.404	0.362	0.385
645.0	179.8	182.9	86.98	35.23	23.17	26.57	29.99	34.22	39.10	51.92	61.01	68.24	67.57	68.79	56.59	27.15	17.59	13.63	17.26	238.4	527.4	40.56	1.889	1.381	1.179	0.973	0.912	0.801	0.760	0.701	0.719	0.629	1.238	0.801	0.514	0.506	0.547	0.430	0.429	0.446	0.435	0.700	0.615	0.561	0.643	0.805	0.716	0.613	0.483	0.435	0.264	0.345	0.263	0.333	0.331	0.344	0.401	0.350	0.373	0.385	0.466	0.472	0.578	0.579	0.532	0.518	0.562	0.615	0.598	0.610	0.611	0.568	0.690	0.705	0.502	0.372	0.379
650.0	191.1	188.1	89.68	37.38	25.44	23.13	28.73	33.65	40.12	53.01	60.46	68.87	64.86	61.24	60.52	28.79	17.96	12.95	11.33	74.77	546.6	157.1	2.370	1.331	1.200	0.880	0.983	0.720	0.722	0.631	0.680	0.602	1.347	0.735	0.438	0.514	0.482	0.452	0.484	0.422	0.394	0.608	0.700	0.622	0.749	0.794	0.807	0.594	0.433	0.356	0.274	0.335	0.314	0.330	0.308	0.310	0.395	0.376	0.372	0.409	0.466	0.489	0.567	0.604	0.516	0.538	0.518	0.552	0.534	0.618	0.558	0.535	0.634	0.672	0.485	0.397	0.346
