Sample:	'1
File name:	c2025080108恒立纸业集水池800倍.FD3
Run date:	'10:23:10, 08/02/2025
Operator:	dsjg
Comment:	'

Instrument
Model:	F-2700 FL Spectrophotometer
Serial number:	2198-001
ROM Version:	4J14000 07

Instrument parameters
Measurement type:	3-D scan
Data mode:	Fluorescence
EX  Start WL:	220.0 nm
EX  End WL:	600.0 nm
EX Sampling interval:	5.0 nm
EM  Start WL:	230.0 nm
EM  End WL:	650.0 nm
EM Sampling interval:	5.0 nm
Scan speed:	12000 nm/min
EX Slit:	5.0 nm
EM Slit:	5.0 nm
PMT Voltage:	700 V
Response:	Auto 
Corrected spectra:	Off
Contour interval:	50.000

Peak integration
Integration method:	Rectangular
Sensitivity:	1
Threshold:	1.000

Peaks
No.	ApexEX/EM(nm)	Height(Data)
1	225.0/625.0	10.44
2	235.0/610.0	6.972
3	235.0/625.0	6.249
4	240.0/265.0	180.3
5	240.0/395.0	 2686
6	240.0/525.0	75.79
7	245.0/270.0	161.3
8	245.0/540.0	59.93
9	250.0/275.0	174.9
10	250.0/550.0	45.50
11	255.0/280.0	192.3
12	255.0/565.0	36.69
13	260.0/285.0	173.3
14	260.0/575.0	26.63
15	265.0/585.0	25.39
16	270.0/300.0	257.5
17	270.0/595.0	22.22
18	275.0/305.0	282.7
19	275.0/610.0	20.80
20	280.0/310.0	246.0
21	280.0/620.0	18.07
22	285.0/315.0	235.5
23	285.0/630.0	13.58
24	290.0/325.0	218.5
25	295.0/330.0	179.6
26	300.0/335.0	184.4
27	305.0/340.0	180.7
28	305.0/395.0	 2674
29	370.0/425.0	86.54
30	375.0/430.0	64.31
31	380.0/435.0	54.55
32	385.0/445.0	48.71
33	390.0/450.0	37.44
34	395.0/455.0	34.33
35	400.0/465.0	30.62
36	405.0/470.0	23.97
37	410.0/475.0	21.87
38	415.0/485.0	19.83
39	420.0/490.0	16.53
40	425.0/395.0	9.464
41	425.0/495.0	14.28
42	430.0/505.0	12.97
43	435.0/510.0	10.07
44	440.0/520.0	9.184
45	445.0/525.0	8.136
46	450.0/530.0	6.525
47	455.0/540.0	5.681
48	460.0/545.0	4.869
49	490.0/395.0	13.67
50	520.0/285.0	1.484
51	540.0/295.0	1.503
52	550.0/305.0	1.633

Data points
	220.0	225.0	230.0	235.0	240.0	245.0	250.0	255.0	260.0	265.0	270.0	275.0	280.0	285.0	290.0	295.0	300.0	305.0	310.0	315.0	320.0	325.0	330.0	335.0	340.0	345.0	350.0	355.0	360.0	365.0	370.0	375.0	380.0	385.0	390.0	395.0	400.0	405.0	410.0	415.0	420.0	425.0	430.0	435.0	440.0	445.0	450.0	455.0	460.0	465.0	470.0	475.0	480.0	485.0	490.0	495.0	500.0	505.0	510.0	515.0	520.0	525.0	530.0	535.0	540.0	545.0	550.0	555.0	560.0	565.0	570.0	575.0	580.0	585.0	590.0	595.0	600.0
230.0	62.45	 1185	 2149	479.2	13.14	4.486	3.579	2.710	2.272	1.559	1.184	1.197	1.193	1.153	1.073	1.157	1.049	1.199	1.067	1.046	0.924	0.861	0.690	0.556	0.578	0.442	0.379	0.306	0.270	0.293	0.286	0.277	0.238	0.227	0.276	0.268	0.312	0.274	0.261	0.250	0.306	0.461	0.528	0.348	0.241	0.230	0.452	2.765	5.887	5.530	2.687	0.575	0.196	0.175	0.174	0.149	0.155	0.166	0.141	0.149	0.160	0.167	0.157	0.144	0.149	0.169	0.181	0.141	0.177	0.166	0.149	0.149	0.171	0.155	0.163	0.150	0.184
235.0	76.98	328.7	 1375	 1802	420.6	14.97	4.202	2.321	2.450	1.661	1.819	0.976	1.374	1.376	1.134	1.137	1.062	1.138	0.964	1.073	1.034	0.792	0.808	0.536	0.589	0.397	0.335	0.295	0.219	0.255	0.237	0.247	0.305	0.372	0.234	0.229	0.330	0.317	0.283	0.286	0.228	0.284	0.401	0.544	0.382	0.404	0.265	0.885	1.844	3.479	4.924	5.827	3.248	0.965	0.193	0.128	0.143	0.174	0.205	0.134	0.186	0.156	0.140	0.141	0.113	0.147	0.136	0.152	0.173	0.181	0.152	0.169	0.135	0.158	0.193	0.171	0.142
240.0	123.9	125.7	426.7	 1555	 1614	281.3	7.772	2.791	2.390	1.538	2.076	1.244	1.504	1.230	1.097	1.199	1.217	1.261	1.302	1.087	1.198	0.786	0.711	0.545	0.454	0.300	0.300	0.383	0.337	0.251	0.259	0.204	0.290	0.311	0.228	0.175	0.241	0.286	0.276	0.273	0.222	0.368	0.243	0.305	0.450	0.523	0.407	0.377	0.538	1.019	2.137	5.065	6.953	5.350	1.995	0.391	0.154	0.187	0.201	0.161	0.145	0.144	0.160	0.180	0.155	0.175	0.155	0.144	0.165	0.143	0.119	0.161	0.128	0.148	0.173	0.146	0.146
245.0	108.3	135.2	124.9	570.4	 1744	 1302	161.4	4.145	2.244	1.507	1.665	1.195	1.930	1.402	1.258	1.144	1.135	1.206	1.081	1.168	1.054	0.746	0.744	0.651	0.493	0.389	0.375	0.393	0.287	0.328	0.263	0.200	0.295	0.286	0.252	0.164	0.194	0.231	0.242	0.279	0.216	0.256	0.245	0.210	0.291	0.410	0.705	0.605	0.350	0.398	0.618	1.559	3.851	6.552	6.771	3.933	1.171	0.259	0.210	0.210	0.175	0.144	0.189	0.161	0.130	0.155	0.231	0.150	0.172	0.157	0.143	0.183	0.147	0.182	0.149	0.160	0.157
250.0	44.09	112.2	143.8	166.7	593.7	 1320	 1301	216.3	18.14	1.884	1.722	1.197	1.469	1.316	1.487	1.089	1.264	1.237	1.171	1.036	0.971	0.886	0.763	0.685	0.487	0.434	0.380	0.376	0.284	0.237	0.261	0.224	0.296	0.253	0.262	0.193	0.184	0.225	0.230	0.289	0.274	0.249	0.269	0.234	0.205	0.267	0.349	0.583	0.660	0.591	0.459	0.541	1.068	2.013	3.430	4.804	5.203	4.313	2.383	0.863	0.230	0.165	0.150	0.170	0.148	0.167	0.199	0.163	0.148	0.138	0.152	0.143	0.158	0.176	0.216	0.180	0.212
255.0	23.89	37.10	123.5	166.9	166.8	348.3	 1041	 1487	278.9	14.51	2.644	1.936	1.816	1.270	1.259	1.357	1.333	1.175	1.198	0.958	0.863	0.822	0.901	0.611	0.489	0.423	0.382	0.313	0.301	0.313	0.266	0.298	0.392	0.236	0.242	0.233	0.204	0.234	0.259	0.241	0.245	0.229	0.241	0.241	0.224	0.217	0.263	0.329	0.318	0.436	0.664	0.811	0.668	0.656	0.923	1.252	1.721	3.552	5.171	5.691	3.157	1.012	0.214	0.147	0.226	0.127	0.147	0.159	0.207	0.189	0.172	0.125	0.182	0.157	0.193	0.177	0.125
260.0	13.89	17.67	51.64	163.9	139.4	97.11	329.9	 1260	 1270	204.2	6.946	2.142	1.912	1.433	1.381	1.359	1.187	1.289	1.336	1.172	1.076	0.913	0.915	0.761	0.536	0.394	0.346	0.339	0.317	0.253	0.231	0.322	0.302	0.283	0.174	0.258	0.210	0.212	0.207	0.235	0.209	0.272	0.288	0.187	0.263	0.208	0.263	0.226	0.230	0.227	0.378	0.825	1.065	0.672	0.477	0.437	0.534	1.090	2.199	4.424	6.210	5.244	2.367	0.424	0.197	0.185	0.167	0.177	0.164	0.144	0.157	0.190	0.157	0.168	0.163	0.148	0.166
265.0	14.50	7.651	19.11	86.23	180.3	92.01	86.70	448.0	 1309	 1040	146.9	4.326	1.940	1.721	1.444	1.538	1.385	1.286	1.306	1.369	0.984	0.861	0.932	0.676	0.629	0.462	0.429	0.409	0.363	0.257	0.359	0.308	0.299	0.268	0.225	0.304	0.245	0.221	0.255	0.226	0.230	0.261	0.253	0.245	0.259	0.229	0.227	0.227	0.176	0.174	0.173	0.450	0.769	1.067	0.921	0.504	0.300	0.445	0.665	1.462	2.960	5.283	6.102	4.276	1.288	0.263	0.193	0.224	0.171	0.169	0.122	0.192	0.177	0.175	0.147	0.129	0.173
270.0	14.04	10.67	9.979	27.29	96.79	161.3	106.7	120.7	427.1	923.8	965.0	369.9	26.12	2.161	1.665	1.599	1.431	1.237	1.289	1.121	1.074	0.812	0.901	0.621	0.575	0.451	0.487	0.374	0.358	0.279	0.311	0.292	0.296	0.282	0.259	0.239	0.237	0.218	0.203	0.219	0.185	0.200	0.245	0.262	0.243	0.236	0.248	0.205	0.192	0.182	0.163	0.234	0.360	0.554	0.807	0.996	0.851	0.551	0.389	0.525	0.884	1.643	2.772	4.138	4.790	4.486	2.870	1.187	0.286	0.157	0.165	0.164	0.145	0.184	0.175	0.194	0.188
275.0	15.20	9.471	9.466	10.08	28.00	84.00	174.9	126.5	110.6	244.1	631.8	 1104	190.7	20.99	2.243	1.471	1.638	1.344	1.424	1.246	1.415	0.975	0.812	0.776	0.545	0.404	0.475	0.395	0.289	0.310	0.251	0.322	0.296	0.306	0.223	0.238	0.273	0.226	0.249	0.223	0.263	0.200	0.278	0.197	0.258	0.268	0.207	0.198	0.244	0.202	0.171	0.178	0.205	0.243	0.303	0.424	0.830	1.196	1.166	0.614	0.373	0.500	0.743	1.121	1.623	2.820	5.032	5.902	3.735	1.028	0.205	0.205	0.124	0.202	0.181	0.197	0.151
280.0	19.21	13.05	7.720	8.072	11.05	31.76	124.3	192.3	88.50	69.14	199.6	767.4	 1010	155.3	8.341	1.821	1.865	1.731	1.289	1.266	1.332	1.057	0.814	0.753	0.554	0.531	0.499	0.415	0.359	0.387	0.270	0.367	0.342	0.281	0.296	0.255	0.302	0.284	0.233	0.259	0.261	0.202	0.208	0.232	0.235	0.261	0.266	0.243	0.228	0.184	0.159	0.222	0.208	0.196	0.204	0.208	0.386	0.762	1.178	1.290	0.822	0.369	0.325	0.430	0.541	0.868	1.995	4.038	6.214	5.705	2.487	0.596	0.189	0.189	0.121	0.134	0.188
285.0	26.25	17.56	13.23	8.208	7.521	14.75	51.75	165.9	173.3	55.86	64.17	262.4	819.2	911.4	113.6	3.703	1.914	1.902	1.519	1.276	1.288	0.979	1.013	0.727	0.632	0.519	0.433	0.394	0.407	0.409	0.331	0.340	0.401	0.349	0.376	0.286	0.349	0.313	0.214	0.278	0.273	0.267	0.201	0.250	0.201	0.259	0.299	0.246	0.261	0.232	0.184	0.169	0.208	0.216	0.194	0.244	0.273	0.311	0.627	1.069	1.484	0.944	0.443	0.297	0.313	0.440	0.693	1.265	2.730	4.737	6.245	4.255	1.431	0.227	0.192	0.166	0.168
290.0	31.89	22.37	18.20	11.02	9.712	10.70	21.28	72.56	167.2	177.3	80.77	90.26	267.3	618.2	756.1	366.0	23.25	2.221	1.635	1.436	1.330	1.132	0.949	0.867	0.657	0.516	0.414	0.402	0.450	0.444	0.393	0.277	0.388	0.394	0.498	0.459	0.406	0.337	0.269	0.289	0.271	0.267	0.273	0.275	0.221	0.228	0.287	0.259	0.288	0.210	0.212	0.177	0.199	0.208	0.190	0.214	0.211	0.242	0.340	0.497	0.768	1.025	1.294	1.039	0.676	0.432	0.429	0.556	0.893	1.520	2.624	3.560	4.521	4.375	2.738	0.904	0.252
295.0	42.51	32.00	23.48	15.91	13.43	12.32	17.82	34.49	77.01	185.5	223.8	91.45	97.17	175.2	397.1	864.7	510.1	18.54	2.068	1.834	1.744	1.101	1.026	0.799	0.803	0.510	0.561	0.421	0.423	0.385	0.324	0.298	0.392	0.434	0.579	0.472	0.453	0.317	0.353	0.351	0.249	0.288	0.374	0.255	0.270	0.262	0.280	0.296	0.302	0.245	0.218	0.226	0.202	0.216	0.223	0.250	0.174	0.234	0.273	0.363	0.402	0.450	0.720	1.243	1.503	1.249	0.647	0.386	0.529	0.696	0.868	1.032	1.508	2.554	4.900	6.277	3.371
300.0	46.30	42.76	26.50	17.92	14.24	15.77	18.66	28.41	46.59	117.4	257.5	197.3	75.46	70.76	128.5	508.2	957.6	95.81	7.608	2.052	1.564	1.355	1.149	1.111	0.726	0.513	0.431	0.424	0.403	0.366	0.324	0.382	0.440	0.458	0.594	0.530	0.504	0.484	0.386	0.382	0.229	0.350	0.261	0.326	0.293	0.293	0.290	0.246	0.328	0.314	0.244	0.216	0.232	0.219	0.236	0.241	0.267	0.193	0.281	0.320	0.366	0.452	0.479	0.658	1.205	1.622	1.631	0.726	0.514	0.498	0.478	0.525	0.557	0.892	1.960	4.057	6.483
305.0	58.81	45.58	29.17	21.49	16.97	18.83	22.59	29.91	42.72	76.38	181.5	282.7	139.0	53.45	51.91	169.3	617.9	746.4	76.16	3.486	1.873	1.469	1.256	1.080	0.711	0.618	0.452	0.441	0.435	0.380	0.316	0.311	0.458	0.497	0.596	0.548	0.578	0.420	0.337	0.358	0.342	0.280	0.343	0.396	0.251	0.293	0.315	0.252	0.287	0.292	0.256	0.276	0.278	0.221	0.234	0.279	0.322	0.225	0.335	0.358	0.304	0.360	0.447	0.510	0.657	1.095	1.633	1.620	1.023	0.506	0.450	0.359	0.385	0.514	0.627	1.304	3.007
310.0	53.85	48.81	32.66	22.89	22.15	21.69	24.87	32.54	41.71	60.71	102.3	197.9	246.0	117.7	41.14	57.34	188.0	489.2	650.3	295.4	17.44	1.853	1.507	1.085	0.810	0.636	0.612	0.378	0.410	0.349	0.371	0.338	0.382	0.527	0.677	0.563	0.558	0.485	0.355	0.349	0.318	0.326	0.337	0.332	0.323	0.347	0.274	0.271	0.247	0.245	0.246	0.265	0.270	0.289	0.303	0.290	0.316	0.263	0.354	0.386	0.320	0.393	0.386	0.496	0.477	0.745	0.905	1.248	1.399	1.360	0.882	0.497	0.387	0.382	0.343	0.519	0.912
315.0	66.92	52.99	38.76	26.82	24.41	25.00	27.50	35.54	44.42	58.13	78.79	111.6	176.5	235.5	97.35	37.61	60.67	128.7	307.8	800.4	415.1	13.63	1.499	1.232	1.065	0.623	0.715	0.494	0.506	0.486	0.380	0.346	0.358	0.547	0.667	0.583	0.565	0.358	0.421	0.386	0.422	0.356	0.354	0.307	0.305	0.337	0.251	0.307	0.240	0.273	0.234	0.288	0.298	0.273	0.286	0.318	0.350	0.255	0.373	0.398	0.364	0.481	0.396	0.472	0.464	0.565	0.663	0.685	0.806	1.019	1.337	1.374	0.716	0.410	0.382	0.357	0.447
320.0	70.10	67.84	47.10	29.64	27.27	30.13	27.24	35.48	45.91	58.29	73.48	86.78	114.2	208.9	196.4	51.70	34.05	42.68	92.89	423.9	887.1	69.67	5.414	1.610	1.088	0.881	0.663	0.613	0.501	0.493	0.435	0.409	0.440	0.568	0.650	0.626	0.573	0.481	0.388	0.377	0.340	0.380	0.288	0.295	0.322	0.330	0.295	0.236	0.287	0.253	0.214	0.229	0.315	0.308	0.291	0.299	0.320	0.281	0.379	0.373	0.379	0.424	0.505	0.523	0.542	0.524	0.601	0.530	0.557	0.673	0.964	1.261	1.427	0.857	0.452	0.284	0.425
325.0	81.26	85.11	53.61	39.00	31.59	28.09	33.95	37.42	44.80	59.16	70.07	81.33	90.19	129.0	218.5	117.6	34.09	25.29	32.88	128.4	548.9	790.1	57.45	2.530	1.311	0.867	0.670	0.625	0.602	0.522	0.409	0.424	0.390	0.476	0.680	0.593	0.534	0.453	0.402	0.331	0.412	0.425	0.310	0.334	0.298	0.374	0.361	0.350	0.390	0.320	0.217	0.295	0.334	0.392	0.352	0.257	0.313	0.361	0.308	0.403	0.328	0.466	0.507	0.526	0.469	0.515	0.522	0.541	0.491	0.601	0.599	0.693	1.214	1.401	1.092	0.429	0.400
330.0	92.68	91.84	72.36	49.57	38.63	36.42	36.89	38.72	46.49	56.91	68.05	79.63	82.35	86.87	128.6	179.6	112.4	32.74	23.41	42.79	157.7	464.8	561.2	236.2	14.33	1.194	0.883	0.732	0.648	0.496	0.433	0.383	0.395	0.535	0.555	0.513	0.505	0.420	0.401	0.371	0.378	0.394	0.388	0.403	0.321	0.443	0.414	0.470	0.388	0.358	0.269	0.318	0.324	0.319	0.378	0.367	0.421	0.373	0.323	0.368	0.356	0.431	0.466	0.477	0.544	0.474	0.535	0.503	0.534	0.579	0.519	0.521	0.687	0.868	1.161	1.127	0.917
335.0	119.5	107.0	88.23	64.68	48.97	41.11	39.05	40.46	47.84	58.67	70.24	78.63	82.92	79.86	78.84	108.5	184.4	91.35	30.55	29.49	53.08	122.6	268.1	764.6	344.7	12.33	1.273	0.839	0.668	0.525	0.507	0.431	0.444	0.542	0.649	0.502	0.567	0.467	0.529	0.425	0.358	0.406	0.418	0.360	0.328	0.387	0.459	0.474	0.478	0.441	0.386	0.325	0.399	0.327	0.341	0.351	0.429	0.404	0.401	0.395	0.371	0.464	0.506	0.494	0.612	0.507	0.482	0.558	0.570	0.567	0.469	0.408	0.560	0.493	0.603	0.761	1.219
340.0	132.1	126.5	96.90	73.17	53.93	51.20	41.38	43.46	48.83	59.96	70.17	78.06	82.11	80.10	72.98	74.73	136.5	180.7	66.92	33.57	36.26	47.76	83.60	397.6	825.3	57.26	4.433	1.163	0.765	0.630	0.624	0.551	0.440	0.525	0.504	0.617	0.497	0.500	0.464	0.458	0.372	0.411	0.351	0.371	0.408	0.479	0.552	0.547	0.535	0.451	0.395	0.442	0.427	0.407	0.432	0.376	0.413	0.461	0.374	0.393	0.356	0.557	0.489	0.422	0.536	0.461	0.547	0.487	0.632	0.501	0.533	0.458	0.521	0.533	0.401	0.556	0.762
345.0	132.9	137.9	114.0	83.14	69.72	61.04	48.34	48.42	51.62	61.65	71.42	76.34	85.57	83.13	78.96	70.92	91.31	175.8	150.3	54.88	42.51	40.64	40.49	120.8	526.3	709.9	48.16	2.461	1.118	0.675	0.623	0.509	0.477	0.589	0.517	0.603	0.522	0.511	0.426	0.483	0.420	0.485	0.427	0.449	0.504	0.507	0.522	0.596	0.561	0.491	0.399	0.500	0.476	0.560	0.470	0.434	0.523	0.530	0.467	0.404	0.503	0.520	0.463	0.497	0.606	0.510	0.598	0.589	0.607	0.526	0.510	0.494	0.540	0.502	0.472	0.529	0.528
350.0	197.2	175.8	143.2	131.2	119.3	105.7	79.23	67.94	60.49	67.40	75.62	82.95	97.70	104.2	108.9	104.7	107.0	145.6	203.7	155.4	94.14	65.06	55.20	58.50	157.9	432.7	495.4	206.6	13.24	1.275	0.804	0.626	0.531	0.551	0.592	0.579	0.583	0.575	0.511	0.605	0.576	0.651	0.596	0.666	0.637	0.702	0.677	0.704	0.656	0.596	0.537	0.731	0.678	0.753	0.737	0.732	0.667	0.599	0.559	0.536	0.577	0.540	0.557	0.565	0.604	0.555	0.556	0.615	0.643	0.643	0.651	0.651	0.693	0.679	0.692	0.648	0.740
355.0	320.1	282.2	245.2	235.7	244.9	218.1	159.5	116.2	84.94	79.92	92.50	106.2	133.5	163.2	189.3	208.8	222.7	239.0	258.2	304.7	264.5	163.8	121.5	89.65	83.02	131.1	243.5	682.0	305.6	12.38	1.114	0.770	0.642	0.674	0.702	0.781	0.887	0.846	0.912	0.974	1.010	1.018	0.988	0.988	1.044	0.927	0.974	1.117	1.058	0.949	0.956	1.183	1.317	1.304	1.368	1.323	1.195	1.054	0.835	0.807	0.738	0.762	0.595	0.642	0.600	0.706	0.821	0.824	0.789	0.909	0.874	1.011	0.963	1.034	1.096	1.212	1.477
360.0	500.9	419.6	388.7	392.9	421.8	370.6	268.2	184.1	119.8	104.5	114.8	141.0	190.1	249.8	309.7	356.0	395.1	407.8	407.4	430.2	455.5	326.8	220.8	154.6	108.0	81.03	93.30	358.0	718.1	53.31	4.835	1.085	0.868	0.814	1.021	0.924	1.302	1.171	1.360	1.528	1.405	1.576	1.615	1.492	1.580	1.418	1.371	1.478	1.463	1.376	1.403	1.951	2.063	2.228	2.291	2.062	1.992	1.729	1.387	1.242	1.019	0.981	0.720	0.760	0.689	0.726	0.857	1.006	1.002	1.094	1.301	1.459	1.550	1.740	1.807	1.917	2.250
365.0	768.0	642.0	622.1	635.0	646.7	576.8	441.2	285.2	166.5	133.0	150.6	196.3	273.3	381.2	485.4	568.6	639.5	665.9	655.4	639.7	632.9	552.1	377.0	255.0	170.2	108.3	70.32	121.7	466.7	623.9	45.50	2.380	1.194	1.149	1.208	1.285	1.538	1.915	2.005	2.438	2.295	2.418	2.425	2.339	2.253	2.211	2.135	2.177	2.080	2.167	2.256	3.026	3.065	3.603	3.649	3.463	3.161	2.724	2.315	1.730	1.360	1.110	0.994	0.952	0.941	1.062	1.124	1.324	1.478	1.779	1.935	2.160	2.313	2.822	2.693	3.206	3.275
370.0	 1306	 1062	 1012	 1063	 1159	 1053	783.3	467.0	267.7	197.5	221.8	295.9	450.9	632.3	820.7	985.2	 1094	 1161	 1147	 1095	 1009	893.2	681.8	453.5	297.4	185.2	108.9	78.18	145.4	385.2	455.7	180.3	11.36	1.669	1.803	2.104	2.546	2.986	3.388	3.764	4.063	4.079	3.990	4.044	3.839	3.541	3.204	3.425	3.517	3.604	3.629	4.929	5.509	5.867	5.827	5.759	5.484	4.538	3.731	2.878	2.128	1.544	1.380	1.243	1.377	1.380	1.553	1.827	2.123	2.467	2.916	3.462	3.682	4.453	4.934	5.380	5.798
375.0	 1937	 1562	 1520	 1647	 1753	 1587	 1182	693.5	388.0	271.0	304.5	427.5	645.8	928.1	 1207	 1467	 1648	 1731	 1715	 1635	 1473	 1251	 1008	744.9	459.1	279.0	165.3	94.38	71.54	108.3	216.9	576.6	257.5	10.80	2.786	3.022	3.498	4.247	4.955	5.475	5.915	6.183	6.189	5.765	5.323	5.111	4.709	5.016	5.131	4.977	5.441	6.949	8.146	8.337	8.672	8.324	7.914	6.600	5.388	4.022	3.103	2.255	1.823	1.723	1.726	1.901	1.921	2.553	2.899	3.541	4.187	4.749	5.797	6.336	6.852	7.968	8.509
380.0	 2356	 1888	 1837	 2002	 2123	 1953	 1424	860.7	463.7	322.2	363.8	514.1	771.4	 1116	 1479	 1781	 2018	 2103	 2083	 1993	 1789	 1494	 1183	912.1	596.0	345.3	202.4	113.1	63.39	49.06	67.66	299.6	601.9	44.71	5.258	3.679	4.071	5.089	5.828	6.620	6.924	7.477	7.068	6.641	6.339	6.250	5.557	5.934	6.332	6.088	6.780	8.772	9.808	10.41	10.52	10.26	9.436	8.049	6.542	4.797	3.618	2.604	2.243	1.864	2.146	2.321	2.407	2.909	3.503	4.225	5.086	5.758	7.064	7.714	8.408	9.713	10.42
385.0	 2689	 2131	 2088	 2272	 2394	 2201	 1623	968.1	519.5	356.9	397.0	577.4	869.0	 1250	 1664	 2005	 2277	 2380	 2359	 2253	 2019	 1691	 1311	980.4	703.9	408.8	232.1	127.0	66.86	37.42	31.77	87.98	390.2	489.6	36.49	4.578	4.715	6.004	6.503	7.359	8.047	8.251	8.106	7.288	7.161	6.925	6.344	6.943	6.910	6.543	7.694	10.17	11.42	11.77	11.95	11.51	10.88	8.952	7.102	5.352	3.953	3.040	2.242	1.886	2.151	2.466	2.779	3.312	3.672	4.834	5.473	6.513	7.528	8.443	9.622	10.62	11.96
390.0	 2946	 2380	 2291	 2494	 2633	 2414	 1780	 1054	564.1	393.0	438.6	618.8	930.0	 1366	 1814	 2191	 2478	 2595	 2572	 2454	 2206	 1848	 1430	 1041	738.8	496.2	276.8	143.0	75.12	40.98	25.86	30.79	105.6	294.4	344.5	139.1	12.53	6.203	6.936	8.211	8.571	8.922	8.707	8.455	7.659	7.332	6.747	7.271	7.464	7.341	8.187	11.27	12.05	12.92	13.17	12.69	12.16	10.01	7.999	5.687	4.122	3.162	2.530	2.082	2.412	2.500	2.951	3.701	4.242	5.104	6.158	6.951	8.362	9.446	10.62	11.66	13.00
395.0	 3036	 2451	 2375	 2560	 2686	 2491	 1847	 1093	584.4	401.3	443.9	636.8	962.4	 1405	 1861	 2247	 2558	 2674	 2660	 2532	 2279	 1912	 1486	 1071	732.1	503.7	333.9	171.1	83.57	46.49	27.95	19.77	30.97	72.73	157.4	428.8	199.3	11.94	7.428	8.900	8.787	9.464	9.022	8.635	8.036	8.095	7.127	7.661	7.696	7.824	8.359	11.46	12.51	13.21	13.67	13.08	12.07	10.32	7.991	6.167	4.195	3.175	2.635	2.240	2.390	2.438	2.968	3.719	4.197	5.336	6.397	7.548	8.573	9.900	10.77	12.19	12.97
400.0	 2991	 2437	 2358	 2503	 2669	 2490	 1855	 1093	573.8	399.2	446.1	632.3	956.7	 1379	 1833	 2232	 2512	 2643	 2614	 2494	 2257	 1894	 1477	 1066	724.4	479.5	339.4	206.8	94.27	50.10	30.06	19.28	15.74	22.65	44.00	222.3	436.9	38.98	9.581	8.530	8.779	8.970	8.914	8.581	8.047	8.279	6.821	7.725	8.035	7.694	8.316	11.49	12.51	12.94	13.20	12.59	11.95	10.33	8.190	6.189	4.456	3.279	2.448	2.321	2.377	2.545	2.918	3.686	4.208	5.120	6.371	7.142	8.377	9.629	10.47	12.36	13.41
405.0	 2934	 2341	 2295	 2436	 2572	 2391	 1777	 1056	560.5	391.3	430.3	600.5	918.6	 1335	 1765	 2129	 2415	 2536	 2516	 2400	 2169	 1823	 1427	 1033	705.8	457.8	308.8	229.7	113.8	53.78	32.52	20.11	13.18	12.25	15.70	62.74	276.6	295.5	33.76	8.928	9.010	8.841	8.550	8.272	7.746	7.531	6.864	7.303	7.624	7.357	8.114	10.86	11.85	12.38	12.77	12.25	11.60	9.722	8.039	6.094	4.286	3.093	2.530	2.341	2.135	2.524	2.986	3.271	3.812	4.922	5.822	7.012	7.986	9.190	10.07	11.83	12.71
410.0	 2697	 2158	 2097	 2224	 2353	 2204	 1619	986.6	526.1	363.9	398.1	554.2	841.5	 1220	 1607	 1942	 2205	 2302	 2290	 2196	 1995	 1676	 1322	962.7	659.3	430.2	274.9	194.3	141.2	72.94	36.57	20.94	13.51	10.68	9.899	19.96	75.38	204.0	277.0	118.7	13.71	8.211	8.136	7.482	7.064	6.915	6.259	6.692	6.946	6.628	7.451	9.851	10.94	11.29	11.67	11.12	10.75	9.105	7.115	5.493	3.873	2.685	2.266	2.192	2.017	2.321	2.721	3.126	3.817	4.335	5.447	6.354	7.485	8.257	9.353	10.64	11.14
415.0	 2367	 1931	 1832	 1961	 2083	 1926	 1426	878.2	471.5	326.8	353.4	491.8	738.7	 1070	 1405	 1705	 1925	 2022	 2009	 1937	 1766	 1487	 1175	860.8	593.7	392.3	249.3	161.2	121.3	105.7	51.11	23.35	15.18	10.88	9.732	10.46	22.77	52.24	126.6	318.9	152.2	12.06	7.413	6.587	6.398	6.236	5.404	5.855	6.171	5.917	6.602	8.681	9.492	10.10	9.953	9.915	9.626	8.305	6.297	4.693	3.533	2.593	2.223	1.905	1.820	2.043	2.398	2.797	3.250	3.936	4.626	5.577	6.524	7.229	8.124	9.516	9.907
420.0	 2134	 1707	 1631	 1769	 1856	 1713	 1276	780.6	429.9	299.0	326.8	446.4	663.2	960.6	 1258	 1513	 1722	 1806	 1794	 1733	 1581	 1337	 1062	782.6	542.6	362.0	231.1	146.5	99.06	100.8	76.39	29.23	15.74	11.65	9.258	8.646	10.87	17.45	35.88	164.8	328.3	36.23	7.943	6.013	5.814	5.578	4.703	5.342	5.414	5.246	5.931	7.560	8.562	8.993	8.919	8.521	8.556	7.321	5.710	4.179	3.247	2.339	1.979	1.791	1.635	1.902	2.231	2.693	3.001	3.423	4.320	4.982	5.959	6.584	7.426	8.268	8.976
425.0	 1902	 1539	 1473	 1579	 1651	 1551	 1149	703.2	389.6	274.2	294.7	410.2	586.4	851.7	 1128	 1354	 1536	 1609	 1606	 1542	 1415	 1214	962.3	713.9	498.1	335.2	215.6	139.0	87.27	78.35	86.54	46.35	18.43	12.29	9.633	8.282	8.673	9.311	13.29	48.27	212.7	260.2	30.27	5.958	5.337	4.847	4.418	4.890	5.006	4.729	5.343	6.973	7.557	8.076	8.425	7.559	7.628	6.591	5.248	3.933	3.117	2.214	1.877	1.617	1.602	1.794	2.132	2.302	2.764	3.035	3.901	4.466	5.373	5.838	6.562	7.236	7.918
430.0	 1656	 1318	 1275	 1354	 1422	 1317	999.7	617.7	343.7	240.6	259.3	351.0	511.1	732.4	960.0	 1157	 1306	 1366	 1374	 1321	 1214	 1048	833.7	625.7	440.3	298.7	195.4	126.2	81.21	60.35	63.63	64.31	33.46	14.10	9.907	8.778	8.060	7.752	7.896	15.98	59.11	165.1	217.1	90.20	8.946	4.360	3.921	4.209	4.309	4.206	4.548	5.959	6.634	6.993	7.203	6.658	6.568	5.628	4.452	3.490	2.638	2.017	1.551	1.466	1.466	1.511	1.656	2.017	2.427	2.806	3.238	3.633	4.352	5.004	5.607	6.237	6.889
435.0	 1597	 1085	 1066	 1139	 1185	 1112	843.8	515.6	297.5	210.0	220.8	298.2	431.5	611.4	797.7	956.3	 1086	 1142	 1133	 1102	 1021	883.4	706.7	536.0	379.5	261.2	173.6	115.0	75.88	53.75	44.17	48.65	54.55	26.50	11.51	9.240	8.395	7.552	6.900	8.104	17.74	41.98	98.23	249.2	117.3	7.357	3.403	3.548	3.727	3.504	3.865	4.933	5.540	5.836	6.064	5.714	5.316	4.623	3.703	2.822	2.353	1.718	1.391	1.313	1.256	1.434	1.337	1.892	2.039	2.404	2.701	3.188	3.682	4.110	4.746	5.285	5.856
440.0	 1781	981.3	927.9	974.4	 1040	955.9	732.8	459.2	264.0	192.9	203.1	262.6	370.1	528.8	690.4	825.8	937.9	984.4	986.8	960.4	890.5	770.2	618.9	473.2	340.6	234.9	159.3	106.3	71.90	51.62	37.99	34.59	50.66	42.25	15.77	9.338	8.527	7.486	6.741	6.450	8.175	13.56	27.60	139.7	264.5	31.03	4.012	3.222	3.332	3.033	3.298	4.302	4.656	5.242	5.225	4.936	4.798	4.005	3.341	2.590	2.025	1.455	1.231	1.211	1.139	1.249	1.313	1.667	1.895	2.034	2.302	2.780	3.207	3.802	4.158	4.750	5.141
445.0	 1998	940.7	812.2	862.9	900.4	836.2	639.3	409.3	237.8	174.6	182.0	233.4	329.3	468.3	603.4	725.0	812.3	858.3	859.7	835.5	773.6	678.3	549.0	419.2	306.1	211.9	146.4	99.25	68.78	48.47	36.21	28.97	36.03	48.71	26.57	11.01	8.544	7.217	6.650	6.410	5.950	7.046	9.828	40.59	188.4	214.1	21.66	3.262	2.741	2.864	3.070	3.875	4.069	4.728	4.335	4.357	4.053	3.510	3.138	2.245	1.874	1.358	1.105	1.083	1.025	1.111	1.188	1.461	1.585	1.864	2.224	2.559	2.984	3.156	3.620	4.045	4.330
450.0	 1721	 1270	699.3	704.2	748.4	692.9	535.2	347.8	203.0	150.6	155.8	198.0	275.6	386.9	495.2	592.3	665.5	700.5	710.6	690.5	639.9	562.2	459.0	353.7	258.6	182.9	128.7	89.30	61.93	46.02	33.87	26.56	24.05	33.20	37.44	21.34	9.762	7.419	6.604	6.248	5.539	5.417	5.685	12.19	51.64	147.7	188.2	73.29	5.609	2.442	2.420	3.182	3.495	3.803	3.619	3.581	3.424	3.042	2.508	1.893	1.615	1.317	0.977	0.905	0.942	0.941	1.049	1.251	1.358	1.633	1.844	2.125	2.386	2.639	3.033	3.356	3.565
455.0	 1048	 1580	806.1	577.5	597.4	555.5	428.0	285.2	172.2	124.4	129.8	162.4	224.1	311.1	399.3	469.0	528.5	559.8	567.6	550.7	515.0	455.6	371.8	289.1	212.7	154.0	109.5	77.99	56.14	41.57	32.31	24.68	20.04	20.15	27.33	34.33	17.62	7.992	6.285	5.828	5.274	5.065	4.554	5.708	14.18	36.09	86.47	213.6	90.88	4.515	2.182	2.783	2.830	3.168	3.055	2.832	2.870	2.580	2.064	1.660	1.276	1.139	0.789	0.853	0.766	0.790	0.841	1.011	1.134	1.315	1.555	1.705	2.023	2.304	2.449	2.544	2.935
460.0	688.4	 1352	 1067	511.9	523.0	473.7	368.6	242.5	151.0	111.5	117.4	138.8	190.3	260.8	336.1	397.5	446.8	469.0	479.9	463.1	436.4	384.4	316.3	247.5	187.4	134.2	95.84	69.39	51.03	38.96	31.12	23.79	18.58	16.34	18.04	31.57	26.78	10.88	6.501	5.785	5.359	4.806	4.309	4.071	5.658	10.11	23.03	120.0	212.0	22.46	2.639	2.397	2.580	2.599	2.537	2.434	2.399	2.182	1.815	1.341	1.081	1.015	0.798	0.772	0.900	0.725	0.879	0.881	0.962	1.217	1.426	1.525	1.745	1.783	2.011	2.301	2.308
465.0	545.4	919.5	 1367	533.0	438.2	404.4	320.8	213.0	134.8	100.7	102.2	127.4	165.7	225.6	290.2	342.2	379.6	399.9	406.5	399.9	375.4	331.5	274.6	214.5	163.2	117.9	86.31	62.86	46.43	36.53	29.32	23.20	18.18	15.07	14.17	21.37	30.62	16.95	7.709	5.634	5.271	4.491	4.182	3.847	3.526	4.253	7.041	33.82	155.6	165.0	17.39	2.188	2.321	2.395	2.201	2.043	1.995	1.758	1.563	1.231	1.004	0.896	0.751	0.692	0.750	0.659	0.690	0.729	0.930	1.015	1.113	1.298	1.516	1.603	1.748	2.025	2.195
470.0	440.5	489.9	 1122	866.7	377.6	328.1	259.6	172.2	113.2	85.42	84.83	106.1	137.2	184.2	232.4	271.0	304.7	320.5	325.0	320.5	303.7	269.9	225.4	176.5	133.3	98.88	73.22	54.73	41.72	32.65	26.54	21.72	17.12	14.58	12.44	13.28	20.82	23.97	14.10	6.837	5.177	4.337	4.045	3.770	3.116	2.880	3.290	9.390	42.59	115.4	138.7	54.76	4.163	1.978	1.855	1.731	1.648	1.597	1.301	1.078	0.936	0.741	0.717	0.600	0.612	0.612	0.611	0.681	0.778	0.893	0.938	1.099	1.251	1.348	1.469	1.709	1.789
475.0	372.4	317.9	543.3	 1105	479.8	257.7	206.8	144.0	92.34	74.18	73.98	86.98	111.7	148.6	183.1	214.9	240.9	252.2	256.9	253.3	242.1	212.3	180.4	142.5	109.8	81.22	59.60	47.12	36.94	29.25	24.07	19.86	15.76	13.70	11.13	10.31	12.01	17.98	21.87	11.11	5.435	4.539	3.798	3.335	2.950	2.706	2.255	3.679	11.05	27.51	61.85	146.4	26.96	3.266	1.554	1.495	1.299	1.404	1.058	0.984	0.727	0.628	0.566	0.538	0.611	0.498	0.593	0.579	0.656	0.830	0.744	0.910	1.037	1.130	1.245	1.357	1.425
480.0	335.2	238.0	290.1	918.6	698.8	229.0	174.3	124.7	82.17	67.46	64.09	74.94	97.02	123.4	155.2	181.6	202.2	210.2	214.2	212.1	203.0	179.0	152.1	122.6	93.82	70.16	54.19	42.45	32.76	27.28	22.41	18.80	15.16	12.97	11.00	9.541	9.269	11.78	20.19	17.63	6.990	4.577	3.522	3.213	2.968	2.835	2.242	2.268	3.880	7.409	16.13	79.29	135.8	23.71	1.873	1.358	1.240	1.121	0.971	0.799	0.648	0.553	0.444	0.436	0.491	0.444	0.524	0.552	0.617	0.660	0.599	0.806	0.969	0.844	0.972	1.221	1.207
485.0	300.1	222.4	207.8	546.5	923.9	286.8	150.9	110.3	73.31	58.99	58.48	67.69	81.40	111.3	135.2	156.7	173.0	178.8	182.9	180.9	173.8	155.2	130.3	106.3	81.46	62.03	48.32	38.20	30.28	25.88	21.22	17.33	14.71	12.47	10.49	9.054	8.515	8.447	13.61	19.83	11.27	5.176	3.545	3.249	2.936	2.886	2.222	1.959	2.139	2.864	4.830	21.88	102.9	124.9	17.07	1.361	1.066	0.958	0.928	0.741	0.601	0.516	0.457	0.422	0.489	0.429	0.510	0.487	0.482	0.546	0.556	0.750	0.738	0.878	0.862	0.958	1.109
490.0	238.9	208.2	166.5	261.8	737.0	559.4	144.1	93.32	64.56	50.00	51.72	56.58	69.92	91.10	111.7	127.8	140.0	146.3	150.7	148.9	140.9	126.2	107.8	88.68	67.55	52.45	41.38	32.79	26.47	22.38	19.31	16.40	14.08	11.71	10.19	8.901	8.196	7.264	8.561	14.06	16.53	9.454	4.434	3.164	2.816	2.571	2.341	2.133	1.810	1.734	2.161	6.014	27.86	82.34	109.3	44.04	2.813	0.945	0.790	0.654	0.558	0.519	0.453	0.450	0.448	0.419	0.440	0.444	0.442	0.473	0.568	0.611	0.574	0.773	0.763	0.852	0.999
495.0	182.9	181.1	152.2	153.5	346.0	739.2	267.6	74.91	54.83	44.73	45.43	47.85	59.11	74.37	90.28	100.4	111.3	118.0	120.2	118.1	113.2	100.8	87.38	70.62	55.81	43.61	34.35	28.51	23.33	19.90	17.36	14.67	12.65	10.76	9.823	8.343	7.303	6.621	6.530	8.066	13.31	14.28	7.122	3.434	2.683	2.709	2.353	2.038	1.879	1.467	1.359	2.313	7.186	19.86	55.36	126.4	27.85	2.214	0.707	0.654	0.516	0.494	0.435	0.412	0.449	0.380	0.374	0.405	0.350	0.520	0.441	0.500	0.529	0.650	0.613	0.771	0.753
500.0	144.5	148.3	148.5	121.5	168.5	580.8	454.2	75.84	48.30	38.59	38.63	41.97	50.47	63.57	73.70	84.98	93.08	97.82	99.00	97.88	94.85	86.04	73.59	59.90	48.11	37.34	29.87	24.65	20.95	18.06	15.46	13.68	11.50	10.49	8.905	8.386	6.954	6.357	5.774	6.049	8.380	13.78	11.10	4.703	2.743	2.623	2.273	2.049	2.023	1.515	1.183	1.455	2.552	5.395	14.56	70.60	122.6	23.01	1.117	0.582	0.495	0.479	0.288	0.395	0.341	0.388	0.340	0.368	0.403	0.450	0.393	0.551	0.535	0.597	0.620	0.620	0.665
505.0	119.2	129.1	139.8	107.6	107.4	329.0	608.9	133.3	41.80	35.85	34.10	38.19	45.87	55.19	62.96	73.56	79.04	82.65	83.18	82.02	80.75	71.10	62.82	51.13	40.96	32.69	26.19	21.55	18.75	16.15	14.57	12.85	10.81	9.527	8.458	7.499	6.639	5.895	5.480	5.504	5.894	10.11	12.97	7.304	3.243	2.364	2.135	1.886	1.734	1.571	1.141	1.239	1.367	2.050	4.054	19.46	90.49	105.3	16.15	0.624	0.500	0.445	0.314	0.387	0.330	0.370	0.297	0.308	0.417	0.396	0.406	0.408	0.482	0.506	0.556	0.526	0.675
510.0	89.35	90.56	118.4	103.8	79.28	142.0	457.6	333.0	50.75	29.37	30.01	32.24	37.26	45.26	52.31	58.98	63.31	67.18	66.68	65.41	64.59	57.26	51.07	41.82	32.98	27.17	22.13	18.92	15.77	14.52	12.57	11.16	9.683	8.804	7.780	6.857	6.137	5.688	4.983	4.878	4.651	5.945	9.360	10.07	5.600	2.675	2.080	1.764	1.645	1.456	1.422	1.164	1.071	1.191	1.656	5.117	24.24	67.75	85.48	19.23	2.185	0.415	0.315	0.341	0.280	0.333	0.283	0.292	0.359	0.337	0.376	0.384	0.417	0.424	0.474	0.501	0.546
515.0	73.29	66.83	82.26	105.2	70.55	76.67	187.1	458.2	151.9	25.04	26.11	26.30	30.34	37.14	42.86	46.10	51.30	51.62	53.86	51.87	50.14	46.30	39.22	33.86	26.32	22.23	18.53	14.92	13.15	12.42	11.00	9.870	8.562	7.677	7.136	6.319	5.640	5.174	4.629	4.496	4.193	4.012	5.009	8.319	9.182	4.312	2.238	1.758	1.399	1.310	1.275	1.171	0.952	0.920	0.982	1.810	6.063	15.92	38.98	90.70	26.91	1.520	0.296	0.283	0.275	0.255	0.317	0.247	0.350	0.302	0.339	0.295	0.344	0.383	0.433	0.471	0.417
520.0	62.52	58.00	62.68	96.85	74.65	56.70	77.77	350.9	302.4	30.47	22.01	23.45	26.21	31.14	35.76	39.06	42.26	42.95	43.66	41.87	42.11	39.17	33.39	28.70	22.62	18.99	16.16	13.31	11.57	11.08	9.779	9.019	7.423	6.719	6.345	5.719	5.248	4.721	4.282	4.152	3.602	3.493	3.555	5.261	9.184	6.583	2.789	1.725	1.374	1.192	1.093	1.077	1.150	0.869	0.729	0.888	1.880	4.111	9.960	50.57	90.22	19.94	0.580	0.298	0.265	0.241	0.305	0.228	0.315	0.267	0.408	0.298	0.375	0.311	0.377	0.425	0.343
525.0	56.23	50.50	46.11	73.75	75.79	48.49	48.79	182.4	398.5	84.35	19.45	19.56	23.37	28.27	31.63	34.10	35.51	37.44	37.71	36.49	36.12	33.64	29.34	24.96	19.92	16.62	14.27	12.26	10.51	9.327	9.062	8.021	7.084	6.487	5.846	5.213	5.026	4.598	3.861	3.684	3.243	3.206	2.916	3.245	6.649	8.136	4.381	2.028	1.250	1.121	1.014	0.979	1.016	1.014	0.767	0.699	0.945	1.422	2.748	13.74	62.36	74.62	12.88	0.351	0.281	0.260	0.308	0.201	0.274	0.277	0.373	0.251	0.311	0.241	0.346	0.390	0.368
530.0	46.31	42.21	38.78	49.52	71.96	50.82	33.84	65.43	271.7	242.0	33.34	17.63	20.30	22.54	24.66	27.21	28.85	31.16	30.27	29.64	29.45	27.37	23.87	20.16	16.36	13.46	11.62	10.47	9.299	8.443	7.974	7.029	6.390	5.869	5.076	4.765	4.419	4.120	3.509	3.548	3.030	2.706	2.714	2.439	3.602	6.285	6.525	3.305	1.516	1.129	0.956	0.934	0.865	0.977	0.893	0.668	0.701	0.801	1.078	3.506	16.36	46.59	60.68	17.30	1.494	0.267	0.284	0.250	0.271	0.263	0.258	0.243	0.305	0.265	0.296	0.377	0.333
535.0	40.34	35.31	32.27	34.84	55.28	58.42	29.31	31.65	98.93	293.3	128.2	15.60	16.33	17.96	21.12	22.12	23.64	24.34	23.83	24.84	22.91	21.22	18.73	16.03	13.15	11.49	9.739	8.347	7.901	7.368	6.776	6.264	5.391	4.905	4.570	4.071	3.947	3.590	3.285	3.099	3.085	2.559	2.466	2.024	2.386	3.212	5.661	5.253	2.532	1.300	0.988	0.878	0.848	0.825	0.783	0.790	0.599	0.586	0.679	1.164	3.989	10.97	26.19	62.87	24.11	1.266	0.361	0.225	0.245	0.220	0.225	0.205	0.268	0.320	0.268	0.311	0.255
540.0	33.65	32.69	30.22	28.63	40.33	59.93	31.77	24.05	36.78	203.1	234.0	24.98	15.16	16.45	19.16	19.11	19.69	20.43	19.44	20.34	18.95	17.73	15.67	13.81	11.58	9.705	8.557	7.331	6.835	6.649	5.931	5.747	4.717	4.473	3.975	3.734	3.530	3.357	2.959	2.657	2.648	2.339	2.199	1.990	1.912	2.087	3.833	5.681	3.835	1.482	0.987	0.739	0.791	0.703	0.658	0.950	0.633	0.501	0.576	0.632	1.258	2.871	6.720	33.61	61.31	17.19	0.587	0.220	0.312	0.266	0.291	0.223	0.293	0.322	0.238	0.241	0.252
545.0	26.61	24.79	24.03	20.20	28.03	51.23	36.58	18.79	20.24	97.10	264.9	74.48	13.81	14.55	16.92	16.86	17.91	17.57	17.71	18.01	16.35	14.92	14.00	12.20	10.17	8.520	7.547	6.478	6.035	5.792	5.309	5.170	4.465	3.969	3.711	3.488	3.202	2.944	2.917	2.496	2.277	2.220	2.044	1.808	1.670	1.563	2.336	4.539	4.869	2.494	1.084	0.809	0.648	0.709	0.626	0.751	0.813	0.519	0.485	0.527	0.625	0.974	1.854	8.948	40.88	53.56	9.818	0.382	0.257	0.229	0.196	0.222	0.223	0.278	0.265	0.238	0.316
550.0	24.13	22.72	21.37	18.45	20.70	32.61	45.50	20.66	14.15	34.06	158.3	183.0	27.79	12.69	13.00	13.74	14.84	14.09	14.44	14.68	13.72	12.20	11.42	10.05	8.414	7.256	6.305	5.697	5.249	4.917	4.528	4.338	3.829	3.555	3.122	3.035	2.772	2.601	2.488	2.297	2.113	2.004	1.789	1.600	1.506	1.418	1.557	2.389	3.915	3.516	1.954	0.934	0.699	0.618	0.568	0.630	0.655	0.626	0.486	0.502	0.463	0.543	0.689	2.291	10.59	31.75	36.71	16.21	1.244	0.244	0.209	0.225	0.217	0.217	0.257	0.234	0.271
555.0	25.31	18.11	15.36	15.23	15.74	18.47	35.93	29.76	10.99	15.82	54.04	181.7	106.8	11.11	11.11	10.99	11.62	11.50	10.80	11.60	11.67	10.03	9.017	7.973	6.806	5.700	5.020	4.511	4.288	3.927	3.713	3.420	3.097	3.166	2.847	2.758	2.289	2.348	2.061	1.922	1.801	1.761	1.554	1.459	1.247	1.241	1.235	1.401	2.116	3.403	3.148	1.445	0.645	0.516	0.483	0.501	0.430	0.533	0.545	0.537	0.357	0.323	0.429	0.776	2.620	7.379	15.99	43.99	21.21	1.042	0.233	0.203	0.188	0.190	0.236	0.215	0.234
560.0	21.70	15.83	12.73	14.25	14.02	12.56	26.57	35.41	12.14	9.601	19.56	110.6	173.4	22.29	9.399	9.358	9.644	9.265	9.526	9.482	9.697	8.354	7.772	6.526	5.732	4.797	4.182	3.844	3.574	3.594	3.312	2.945	2.752	2.742	2.341	2.122	2.097	2.047	1.717	1.512	1.731	1.526	1.401	1.318	1.240	1.127	1.106	0.991	1.174	2.425	3.053	1.983	0.822	0.505	0.400	0.511	0.441	0.462	0.493	0.490	0.346	0.280	0.396	0.381	0.857	1.849	4.084	21.95	43.87	13.03	0.509	0.233	0.214	0.228	0.274	0.252	0.242
565.0	17.18	15.13	12.02	12.88	11.85	11.08	18.03	36.69	16.36	8.931	11.31	49.96	169.1	68.54	7.829	8.006	8.231	8.220	7.917	7.939	7.552	7.093	6.737	5.618	4.913	4.298	3.521	3.316	3.246	2.698	2.693	2.643	2.619	2.215	2.153	2.122	1.800	1.810	1.586	1.457	1.507	1.436	1.297	1.056	1.094	1.026	1.002	0.856	0.889	1.396	2.595	2.472	1.149	0.639	0.400	0.443	0.417	0.429	0.386	0.516	0.398	0.305	0.309	0.246	0.370	0.654	1.185	5.829	26.79	33.84	6.753	0.316	0.209	0.229	0.193	0.265	0.275
570.0	15.07	13.60	10.42	10.80	9.746	8.979	10.61	24.95	26.49	9.492	7.909	18.17	92.41	135.7	24.38	6.031	6.506	6.436	6.428	6.019	6.084	5.543	4.917	4.375	3.758	3.367	2.763	2.613	2.591	2.409	2.190	2.237	2.019	1.859	1.735	1.627	1.496	1.414	1.342	1.286	1.185	1.225	1.054	0.900	0.902	0.838	0.802	0.730	0.641	0.794	1.293	1.997	1.654	0.825	0.462	0.414	0.367	0.338	0.361	0.412	0.393	0.387	0.279	0.262	0.275	0.333	0.494	1.491	6.965	19.42	25.00	10.73	0.801	0.213	0.200	0.217	0.225
575.0	13.34	10.49	9.766	8.266	7.749	8.009	7.225	13.74	26.63	16.49	7.136	9.502	30.50	110.2	87.12	5.640	4.707	5.092	4.761	4.989	4.640	4.491	4.107	3.536	2.756	2.442	2.246	2.163	1.994	2.048	1.626	1.643	1.591	1.570	1.309	1.285	1.249	1.139	1.068	0.983	1.054	0.900	0.906	0.744	0.776	0.633	0.675	0.577	0.598	0.545	0.617	1.052	1.556	1.314	0.672	0.370	0.312	0.309	0.221	0.328	0.367	0.426	0.382	0.274	0.263	0.238	0.265	0.550	1.748	4.615	9.595	25.08	11.49	0.641	0.230	0.182	0.246
580.0	15.57	10.97	9.020	6.256	6.518	6.856	6.739	7.636	20.86	22.04	6.718	7.259	12.31	61.88	125.4	17.73	4.072	4.668	3.885	3.879	3.771	3.711	3.361	2.843	2.300	2.360	2.087	1.596	1.537	1.659	1.426	1.391	1.448	1.458	1.132	1.106	0.989	1.040	0.879	0.882	0.878	0.867	0.776	0.652	0.635	0.564	0.605	0.527	0.475	0.408	0.359	0.566	1.173	1.493	0.915	0.500	0.337	0.259	0.283	0.345	0.252	0.357	0.400	0.287	0.289	0.264	0.230	0.336	0.575	1.187	2.448	11.88	22.16	6.584	0.487	0.203	0.180
585.0	13.79	10.86	9.829	8.205	6.407	6.617	5.543	6.057	15.05	25.39	10.65	6.121	7.896	27.77	110.2	56.66	3.853	3.525	3.366	3.481	3.318	2.966	2.774	2.157	1.972	1.836	1.635	1.463	1.440	1.313	1.236	1.193	1.112	1.173	1.113	1.037	0.724	0.721	0.824	0.732	0.806	0.706	0.586	0.588	0.597	0.566	0.442	0.493	0.485	0.357	0.338	0.415	0.663	1.381	1.076	0.661	0.287	0.264	0.327	0.244	0.247	0.268	0.337	0.414	0.231	0.283	0.310	0.247	0.331	0.461	0.713	3.083	13.45	18.65	3.925	0.218	0.192
590.0	14.75	10.82	7.454	6.409	5.018	5.722	5.070	5.669	8.633	21.72	18.37	6.684	6.977	10.36	53.76	96.39	18.83	3.035	3.064	2.848	2.603	2.458	2.279	2.011	1.705	1.513	1.272	1.207	1.188	1.098	1.066	1.032	0.968	0.820	0.900	0.874	0.744	0.672	0.655	0.685	0.620	0.601	0.490	0.538	0.495	0.456	0.381	0.387	0.389	0.311	0.312	0.327	0.361	0.767	1.135	0.912	0.493	0.271	0.218	0.220	0.236	0.225	0.276	0.384	0.333	0.237	0.217	0.221	0.241	0.267	0.322	0.867	3.540	10.17	13.70	5.848	0.607
595.0	12.45	10.55	6.913	5.802	4.307	5.457	4.758	3.889	6.131	14.13	22.22	10.15	5.799	5.612	17.27	67.71	67.66	3.727	2.407	2.624	2.224	1.910	1.934	1.540	1.403	1.217	1.004	0.973	0.812	0.975	0.857	0.833	0.804	0.738	0.722	0.750	0.685	0.588	0.551	0.602	0.529	0.483	0.440	0.459	0.396	0.416	0.368	0.291	0.295	0.280	0.261	0.240	0.307	0.441	0.719	0.977	0.817	0.326	0.251	0.207	0.227	0.197	0.208	0.243	0.336	0.375	0.261	0.178	0.210	0.187	0.271	0.368	0.970	2.433	5.405	13.13	7.510
600.0	11.30	8.126	6.761	5.644	5.118	4.402	3.874	3.934	5.289	8.554	21.87	14.74	5.519	4.325	6.435	34.50	92.80	14.65	2.058	2.239	2.168	1.752	1.759	1.274	1.222	0.994	0.854	0.802	0.859	0.820	0.744	0.753	0.721	0.669	0.641	0.601	0.561	0.597	0.505	0.469	0.494	0.445	0.444	0.415	0.337	0.350	0.376	0.317	0.300	0.287	0.221	0.225	0.244	0.295	0.409	0.676	0.807	0.413	0.250	0.208	0.257	0.210	0.184	0.204	0.247	0.352	0.288	0.216	0.172	0.144	0.250	0.288	0.418	0.696	1.475	6.367	13.41
605.0	10.99	6.856	6.648	6.174	4.515	4.477	3.544	4.707	5.208	6.553	16.70	20.69	6.405	4.024	4.197	13.60	74.09	45.52	2.393	1.814	1.738	1.656	1.467	1.129	1.070	0.963	0.725	0.820	0.705	0.828	0.631	0.634	0.518	0.653	0.597	0.539	0.492	0.509	0.495	0.457	0.412	0.415	0.374	0.400	0.340	0.341	0.278	0.248	0.239	0.264	0.242	0.219	0.231	0.223	0.293	0.446	0.725	0.596	0.338	0.199	0.216	0.184	0.205	0.226	0.196	0.290	0.332	0.241	0.185	0.187	0.241	0.259	0.248	0.306	0.483	1.746	7.601
610.0	9.546	9.041	5.562	6.972	4.164	4.197	4.713	4.543	4.335	5.230	11.31	20.80	10.19	4.563	3.394	5.385	33.04	72.48	16.94	1.709	1.516	1.325	1.221	1.062	0.852	0.892	0.578	0.655	0.627	0.657	0.608	0.545	0.482	0.501	0.462	0.451	0.435	0.551	0.470	0.403	0.338	0.324	0.364	0.345	0.277	0.277	0.268	0.247	0.219	0.200	0.223	0.183	0.225	0.183	0.200	0.254	0.512	0.661	0.459	0.273	0.217	0.232	0.235	0.203	0.192	0.208	0.287	0.234	0.219	0.191	0.222	0.210	0.162	0.194	0.223	0.547	2.067
615.0	11.88	7.849	7.297	5.360	4.766	4.514	4.711	3.433	3.731	4.541	6.795	15.27	16.37	5.028	3.011	3.354	10.11	45.74	55.89	2.797	1.576	1.155	1.107	0.954	0.829	0.715	0.626	0.683	0.541	0.528	0.537	0.523	0.482	0.362	0.513	0.400	0.364	0.502	0.442	0.389	0.324	0.300	0.251	0.276	0.307	0.272	0.283	0.264	0.238	0.205	0.170	0.221	0.192	0.184	0.209	0.174	0.327	0.488	0.505	0.388	0.278	0.232	0.175	0.150	0.157	0.229	0.219	0.212	0.261	0.218	0.180	0.153	0.180	0.144	0.168	0.235	0.603
620.0	11.07	9.196	5.235	5.231	3.078	4.355	3.981	3.159	3.754	3.501	5.475	10.60	18.07	7.355	2.961	2.810	4.355	22.01	71.48	12.97	1.402	1.210	1.012	0.874	0.765	0.591	0.513	0.521	0.439	0.463	0.506	0.515	0.394	0.369	0.421	0.329	0.379	0.356	0.390	0.388	0.303	0.268	0.272	0.260	0.271	0.255	0.223	0.211	0.166	0.199	0.161	0.178	0.181	0.161	0.186	0.186	0.234	0.321	0.475	0.436	0.336	0.238	0.215	0.178	0.172	0.230	0.181	0.243	0.246	0.272	0.232	0.232	0.218	0.168	0.219	0.152	0.265
625.0	9.420	10.44	4.894	6.249	5.054	3.986	3.127	3.208	3.319	3.635	4.853	7.230	15.32	11.01	2.853	2.357	2.798	8.478	52.33	39.85	1.432	1.100	0.906	0.639	0.784	0.629	0.508	0.527	0.507	0.344	0.479	0.377	0.383	0.410	0.446	0.268	0.383	0.253	0.308	0.453	0.312	0.283	0.250	0.241	0.215	0.241	0.245	0.206	0.176	0.136	0.165	0.195	0.182	0.139	0.178	0.258	0.189	0.244	0.314	0.407	0.349	0.240	0.199	0.159	0.142	0.179	0.193	0.195	0.228	0.287	0.237	0.188	0.200	0.166	0.249	0.190	0.164
630.0	10.74	9.358	5.343	5.058	4.745	3.409	3.699	3.493	3.951	3.732	4.436	5.066	10.10	13.58	4.452	2.364	2.120	3.400	21.50	56.84	13.57	1.140	0.869	0.756	0.702	0.528	0.476	0.444	0.427	0.314	0.382	0.401	0.386	0.331	0.362	0.281	0.270	0.268	0.240	0.293	0.327	0.296	0.252	0.216	0.227	0.225	0.212	0.174	0.184	0.137	0.169	0.165	0.161	0.159	0.149	0.201	0.172	0.210	0.210	0.334	0.395	0.267	0.186	0.183	0.151	0.180	0.205	0.184	0.206	0.243	0.233	0.213	0.203	0.217	0.219	0.150	0.185
635.0	8.346	8.030	6.139	4.344	4.222	2.631	3.596	3.742	2.873	3.422	3.908	5.028	6.923	13.43	8.179	2.512	1.854	2.107	6.447	32.63	45.38	2.082	1.076	0.664	0.615	0.469	0.448	0.367	0.405	0.245	0.322	0.307	0.258	0.335	0.303	0.255	0.227	0.215	0.194	0.270	0.236	0.291	0.207	0.251	0.210	0.196	0.255	0.161	0.194	0.136	0.148	0.126	0.144	0.124	0.129	0.141	0.150	0.173	0.167	0.229	0.343	0.303	0.330	0.193	0.143	0.160	0.181	0.196	0.224	0.182	0.221	0.231	0.182	0.182	0.181	0.160	0.184
640.0	10.32	7.561	6.235	4.788	4.583	3.405	4.156	3.600	3.240	3.032	4.092	4.628	4.513	10.02	10.55	2.845	2.243	1.803	2.644	14.22	53.85	11.33	1.027	0.736	0.581	0.499	0.385	0.349	0.301	0.336	0.411	0.307	0.270	0.263	0.259	0.244	0.224	0.218	0.223	0.226	0.252	0.273	0.281	0.187	0.214	0.212	0.225	0.142	0.170	0.127	0.108	0.158	0.142	0.171	0.157	0.142	0.174	0.135	0.192	0.216	0.231	0.243	0.285	0.190	0.210	0.181	0.165	0.163	0.173	0.188	0.158	0.262	0.266	0.197	0.202	0.153	0.130
645.0	12.60	7.962	5.939	4.568	3.912	2.941	3.110	3.391	3.335	2.704	3.820	4.248	4.432	7.334	11.34	4.345	2.145	1.918	1.666	5.285	37.16	32.76	1.160	0.538	0.455	0.412	0.417	0.328	0.282	0.315	0.264	0.273	0.277	0.280	0.304	0.250	0.196	0.193	0.230	0.212	0.245	0.230	0.249	0.194	0.210	0.184	0.173	0.125	0.152	0.145	0.118	0.157	0.134	0.154	0.159	0.133	0.149	0.144	0.171	0.156	0.184	0.263	0.247	0.236	0.208	0.253	0.175	0.218	0.169	0.195	0.272	0.185	0.190	0.220	0.156	0.186	0.157
650.0	11.20	8.418	4.231	4.512	3.587	3.218	2.595	2.223	3.238	3.170	3.328	4.295	4.036	4.968	10.54	6.385	2.211	1.774	1.493	2.502	17.55	48.18	4.407	0.489	0.581	0.469	0.394	0.349	0.254	0.325	0.324	0.281	0.323	0.240	0.281	0.197	0.190	0.196	0.238	0.212	0.159	0.166	0.259	0.266	0.164	0.144	0.166	0.139	0.190	0.103	0.139	0.171	0.135	0.176	0.175	0.116	0.174	0.157	0.143	0.142	0.150	0.270	0.277	0.222	0.148	0.160	0.179	0.171	0.194	0.189	0.206	0.158	0.171	0.219	0.170	0.165	0.142
