Sample:	'1
File name:	G2025062508’≈’‘«≈.FD3
Run date:	'10:15:42, 06/26/2025
Operator:	Administrator
Comment:	'

Instrument
Model:	F-2700 FL Spectrophotometer
Serial number:	23B8-004
ROM Version:	4J14000 07

Instrument parameters
Measurement type:	3-D scan
Data mode:	Fluorescence
EX  Start WL:	220.0 nm
EX  End WL:	600.0 nm
EX Sampling interval:	5.0 nm
EM  Start WL:	230.0 nm
EM  End WL:	650.0 nm
EM Sampling interval:	5.0 nm
Scan speed:	12000 nm/min
EX Slit:	5.0 nm
EM Slit:	5.0 nm
PMT Voltage:	700 V
Response:	Auto 
Corrected spectra:	Off
Contour interval:	50.000

Peak integration
Integration method:	Rectangular
Sensitivity:	1
Threshold:	1.000

Peaks
No.	ApexEX/EM(nm)	Height(Data)
1	225.0/570.0	69.37
2	225.0/580.0	65.48
3	225.0/615.0	69.56
4	230.0/345.0	2335
5	230.0/500.0	367.5
6	230.0/620.0	65.12
7	230.0/630.0	67.91
8	235.0/510.0	307.3
9	240.0/265.0	406.4
10	240.0/525.0	261.3
11	245.0/270.0	425.3
12	245.0/535.0	211.8
13	250.0/275.0	545.6
14	250.0/550.0	172.1
15	255.0/285.0	577.9
16	255.0/565.0	146.0
17	260.0/290.0	575.8
18	260.0/575.0	121.4
19	265.0/295.0	764.9
20	265.0/585.0	104.1
21	270.0/600.0	103.8
22	275.0/310.0	1700
23	275.0/615.0	120.8
24	280.0/315.0	1740
25	280.0/625.0	110.9
26	285.0/320.0	1726
27	285.0/640.0	86.46
28	425.0/500.0	40.26
29	455.0/540.0	12.90
30	475.0/345.0	6.693
31	505.0/275.0	3.114
32	510.0/280.0	3.480
33	520.0/285.0	3.706
34	525.0/290.0	3.506
35	535.0/270.0	43.91
36	560.0/310.0	8.746
37	570.0/315.0	9.265
38	580.0/320.0	9.191
39	585.0/325.0	9.190

Data points
	220.0	225.0	230.0	235.0	240.0	245.0	250.0	255.0	260.0	265.0	270.0	275.0	280.0	285.0	290.0	295.0	300.0	305.0	310.0	315.0	320.0	325.0	330.0	335.0	340.0	345.0	350.0	355.0	360.0	365.0	370.0	375.0	380.0	385.0	390.0	395.0	400.0	405.0	410.0	415.0	420.0	425.0	430.0	435.0	440.0	445.0	450.0	455.0	460.0	465.0	470.0	475.0	480.0	485.0	490.0	495.0	500.0	505.0	510.0	515.0	520.0	525.0	530.0	535.0	540.0	545.0	550.0	555.0	560.0	565.0	570.0	575.0	580.0	585.0	590.0	595.0	600.0
230.0	97.79	1545	2563	540.1	20.65	6.462	5.908	4.796	4.556	4.026	3.964	3.344	3.339	2.816	2.206	1.964	1.691	1.392	1.303	1.212	0.972	0.909	0.945	0.899	0.795	0.707	0.672	0.676	0.622	0.554	0.543	0.545	0.562	0.461	0.472	0.485	0.419	0.413	0.412	0.392	0.451	0.555	0.456	0.393	0.349	0.385	1.998	6.612	9.075	5.445	1.748	0.431	0.292	0.286	0.265	0.273	0.284	0.281	0.293	0.241	0.266	0.255	0.285	0.275	0.268	0.259	0.291	0.289	0.247	0.257	0.259	0.257	0.279	0.274	0.281	0.250	0.265
235.0	108.6	463.1	2162	2854	516.7	31.99	7.314	4.581	5.868	4.518	4.145	3.532	3.361	3.399	2.399	1.802	1.618	1.437	1.347	1.308	1.039	1.001	0.956	0.821	0.782	0.749	0.712	0.720	0.934	0.625	0.506	0.639	0.516	0.466	0.437	0.434	0.429	0.408	0.407	0.344	0.386	0.496	0.500	0.560	0.521	0.389	0.706	1.900	4.371	7.601	9.874	9.346	3.393	0.961	0.304	0.266	0.267	0.327	0.352	0.279	0.300	0.294	0.275	0.260	0.232	0.265	0.257	0.253	0.241	0.239	0.260	0.278	0.282	0.253	0.282	0.247	0.279
240.0	172.5	171.3	727.0	3080	3001	389.1	17.13	5.288	6.426	4.597	4.777	3.705	3.315	3.080	2.830	1.967	1.896	1.487	1.373	1.311	1.182	1.226	0.923	0.856	0.932	0.706	0.666	0.753	0.683	0.675	0.573	0.526	0.500	0.477	0.516	0.434	0.468	0.442	0.401	0.366	0.403	0.375	0.446	0.516	0.591	0.656	0.487	0.756	1.243	2.508	6.569	14.95	15.66	8.969	2.754	0.516	0.340	0.301	0.334	0.297	0.277	0.310	0.273	0.270	0.296	0.291	0.293	0.261	0.238	0.280	0.265	0.285	0.234	0.264	0.265	0.236	0.264
245.0	160.6	213.8	217.3	1243	4064	2871	275.0	10.07	7.033	5.785	5.409	3.682	3.814	3.197	2.352	1.960	2.253	1.712	1.337	1.428	1.215	1.176	1.042	0.857	0.923	0.702	0.726	0.667	0.694	0.628	0.638	0.550	0.519	0.524	0.442	0.458	0.421	0.416	0.423	0.445	0.420	0.466	0.347	0.419	0.570	0.781	0.767	0.636	0.648	0.832	1.820	5.925	13.61	20.28	17.50	7.923	1.816	0.357	0.316	0.312	0.282	0.331	0.302	0.279	0.252	0.378	0.230	0.322	0.264	0.309	0.338	0.266	0.267	0.239	0.334	0.291	0.250
250.0	72.60	177.0	248.0	357.5	1489	3779	4007	1045	50.22	7.619	7.000	4.762	4.712	3.275	2.673	2.412	2.087	1.557	1.410	1.599	1.304	1.173	1.024	0.999	0.909	0.771	0.742	0.761	0.689	0.627	0.635	0.591	0.551	0.540	0.495	0.409	0.463	0.422	0.403	0.499	0.412	0.495	0.389	0.408	0.384	0.495	0.591	0.826	0.992	0.892	0.771	1.636	3.575	7.440	12.73	18.49	23.23	17.28	8.642	2.077	0.389	0.339	0.346	0.310	0.269	0.292	0.261	0.308	0.305	0.332	0.313	0.265	0.282	0.281	0.294	0.309	0.259
255.0	37.13	68.85	207.8	335.0	409.8	1049	4156	6201	1418	45.48	9.709	6.983	6.186	4.294	3.399	2.993	2.238	1.848	1.710	1.575	1.513	1.138	1.138	1.013	1.000	0.844	0.825	0.632	0.755	0.680	0.646	0.560	0.530	0.575	0.569	0.411	0.444	0.425	0.438	0.442	0.408	0.473	0.450	0.390	0.382	0.415	0.442	0.452	0.661	1.014	1.257	1.256	1.344	1.951	3.154	4.843	10.26	23.44	37.01	26.91	12.97	2.074	0.337	0.434	0.363	0.318	0.307	0.377	0.302	0.295	0.293	0.309	0.303	0.319	0.320	0.302	0.343
260.0	34.83	40.81	94.35	311.6	311.3	288.2	1420	6322	6591	257.8	23.05	9.195	6.657	5.731	3.941	3.206	2.517	2.161	2.027	1.560	1.519	1.355	1.251	1.157	1.148	0.906	0.881	0.664	0.890	0.774	0.646	0.645	0.474	0.609	0.511	0.464	0.588	0.490	0.421	0.430	0.427	0.517	0.429	0.410	0.388	0.396	0.373	0.390	0.451	0.550	0.972	1.765	1.752	1.157	1.055	1.415	2.721	6.859	18.78	36.50	47.74	24.58	9.264	0.997	0.372	0.335	0.414	0.310	0.298	0.363	0.265	0.355	0.297	0.308	0.309	0.314	0.369
265.0	43.44	33.02	42.31	170.8	406.4	233.2	368.4	2444	8556	6130	198.5	14.16	8.774	6.295	4.810	3.127	3.020	2.477	2.262	1.732	1.631	1.344	1.205	1.151	1.253	1.067	0.950	0.889	0.908	0.732	0.754	0.619	0.633	0.604	0.589	0.555	0.456	0.447	0.456	0.452	0.411	0.441	0.427	0.441	0.457	0.342	0.383	0.441	0.378	0.352	0.523	1.047	1.758	2.005	1.419	0.802	0.959	1.974	4.734	12.24	30.07	51.12	32.98	20.37	4.497	0.530	0.398	0.339	0.323	0.313	0.375	0.290	0.256	0.286	0.374	0.329	0.292
270.0	52.74	44.32	37.87	72.71	245.9	425.3	304.1	619.5	3004	7923	8349	808.0	44.36	9.605	6.641	4.395	3.603	2.774	2.458	1.970	1.786	1.603	1.209	1.126	1.175	1.018	0.978	0.979	0.893	0.862	0.807	0.666	0.699	0.700	0.555	0.578	0.556	0.424	0.486	0.455	0.471	0.427	0.443	0.521	0.450	0.432	0.429	0.439	0.409	0.358	0.379	0.601	0.836	1.420	2.004	2.129	1.804	1.355	1.567	3.124	7.522	16.29	25.49	43.91	42.50	42.53	14.39	4.624	0.597	0.379	0.377	0.423	0.358	0.366	0.319	0.353	0.329
275.0	92.91	89.16	75.70	69.56	113.9	264.9	545.6	358.1	728.7	2079	7656	9999.9	1096	39.25	9.431	6.202	4.240	3.578	2.722	2.184	2.004	1.884	1.551	1.279	1.145	1.098	1.063	0.911	1.134	1.000	0.909	0.855	0.788	0.822	0.699	0.728	0.601	0.588	0.550	0.551	0.532	0.507	0.563	0.573	0.536	0.570	0.511	0.540	0.552	0.450	0.397	0.495	0.632	0.664	0.983	1.553	2.568	3.114	2.171	1.366	2.180	4.042	6.170	10.63	15.62	40.77	71.70	69.74	22.09	4.042	0.482	0.440	0.363	0.408	0.332	0.365	0.358
280.0	163.7	168.1	123.4	98.20	93.44	148.6	412.1	574.6	297.0	534.1	2334	9999.9	9674	150.4	19.48	7.926	5.613	4.398	3.432	2.382	2.571	1.957	1.686	1.500	1.226	1.297	1.230	1.036	1.067	1.089	0.936	0.836	0.797	0.801	0.813	0.763	0.714	0.629	0.591	0.613	0.670	0.547	0.558	0.589	0.742	0.744	0.656	0.794	0.718	0.587	0.514	0.557	0.576	0.598	0.713	0.947	1.395	2.345	3.480	2.727	1.752	1.499	1.953	2.960	4.011	10.73	28.16	61.67	83.96	32.52	16.48	1.900	0.438	0.446	0.345	0.398	0.464
285.0	227.4	256.1	203.4	134.4	94.79	114.1	210.7	577.9	356.0	237.0	634.4	3461	9999.9	7467	114.1	12.63	7.896	4.984	4.386	3.088	2.568	2.065	1.823	1.469	1.551	1.354	1.248	1.258	1.113	1.111	0.988	0.975	0.896	0.878	0.839	0.922	0.750	0.749	0.744	0.729	0.613	0.664	0.562	0.686	0.768	0.887	0.907	0.847	0.968	0.714	0.702	0.668	0.622	0.624	0.696	0.734	0.909	1.206	2.066	3.580	3.706	2.170	1.174	1.384	1.627	3.087	7.152	17.28	39.94	70.17	84.85	28.30	10.57	0.847	0.447	0.436	0.435
290.0	336.6	383.2	303.2	196.6	123.0	114.9	150.9	294.9	575.8	506.3	330.8	960.3	3428	9559	8954	452.3	31.18	8.057	5.475	3.929	3.227	2.452	2.058	1.848	1.584	1.366	1.361	1.232	1.195	1.114	0.985	0.985	0.946	0.940	0.866	0.996	0.947	0.870	0.802	0.764	0.771	0.828	0.771	0.847	0.991	1.160	1.192	1.213	1.198	0.972	0.862	0.877	0.688	0.689	0.705	0.731	0.824	0.997	1.192	1.613	2.566	3.506	3.485	2.588	1.701	1.791	2.640	4.900	9.994	19.32	36.98	50.16	64.76	53.69	19.01	8.652	1.218
295.0	425.1	501.5	426.0	268.1	181.0	151.2	175.8	230.7	362.6	764.9	733.4	544.9	1019	2445	6930	9999.9	673.2	31.66	7.982	5.499	4.032	3.282	2.711	2.064	1.726	1.694	1.665	1.436	1.193	1.185	1.069	1.169	0.970	0.994	1.033	1.043	1.086	1.000	0.913	0.897	0.848	0.850	0.904	0.999	1.102	1.400	1.260	1.568	1.534	1.242	1.013	1.060	0.844	0.921	0.839	0.862	0.983	1.022	1.131	1.346	1.734	2.108	2.585	4.449	4.901	3.438	2.271	2.667	3.667	5.777	9.536	12.33	17.99	33.69	67.26	84.21	30.45
300.0	528.1	606.0	558.3	359.7	242.6	229.7	255.7	311.6	366.8	674.2	1169	821.8	663.2	858.8	2060	9011	5980	509.8	16.96	7.009	5.223	3.648	3.143	2.444	2.116	1.769	1.545	1.416	1.482	1.139	1.374	1.041	1.074	1.021	1.162	1.137	1.186	1.110	1.033	1.006	1.108	1.060	1.043	1.169	1.233	1.739	1.487	1.950	1.814	1.538	1.272	1.514	1.113	1.123	1.167	1.164	1.328	1.252	1.581	1.742	1.846	2.130	2.789	3.703	5.055	6.228	4.817	3.574	3.178	3.475	3.990	4.552	5.607	9.324	21.82	50.97	80.86
305.0	648.6	766.0	702.0	490.1	340.0	338.4	412.0	506.7	633.3	843.0	1319	1543	984.7	769.5	887.1	2946	9793	5141	76.61	11.12	6.284	5.126	3.557	2.589	2.442	1.954	1.791	1.629	1.242	1.439	1.293	1.065	1.074	1.055	1.111	1.311	1.258	1.195	1.210	1.060	1.325	1.144	1.200	1.303	1.507	1.906	1.906	2.299	2.265	1.873	1.679	1.806	1.458	1.446	1.699	1.607	1.839	2.009	2.349	2.632	2.759	3.276	3.804	4.531	4.904	6.593	7.370	7.388	6.102	4.826	4.043	3.912	4.086	4.737	7.146	14.26	30.35
310.0	772.0	948.1	884.6	637.1	462.9	460.1	567.3	684.2	842.4	1060	1340	1700	1615	1076	820.6	1069	3175	7056	6810	1486	23.76	6.483	4.848	3.476	2.878	2.327	2.029	1.811	1.540	1.356	1.285	1.074	1.112	1.209	1.190	1.361	1.387	1.326	1.270	1.129	1.217	1.297	1.399	1.504	1.832	2.069	2.287	2.724	2.743	2.358	2.033	2.191	1.916	1.833	1.993	2.109	2.486	2.719	3.032	3.406	3.560	3.993	4.657	5.200	5.583	6.412	6.748	7.933	8.746	7.955	6.771	5.460	4.747	4.671	4.648	5.721	9.028
315.0	871.8	1117	1072	768.9	582.4	577.6	676.5	800.0	961.3	1190	1416	1621	1740	1606	1006	750.5	1118	1865	4852	9288	511.8	23.93	6.867	5.063	3.394	2.800	2.321	2.054	1.816	1.480	1.601	1.318	1.205	1.238	1.307	1.451	1.466	1.315	1.325	1.198	1.344	1.461	1.422	1.795	2.022	2.327	2.685	3.364	3.420	2.824	2.397	2.581	2.418	2.288	2.333	2.562	3.022	3.221	3.741	3.846	4.266	4.544	5.216	5.609	5.902	6.692	7.331	7.386	7.986	8.236	9.265	8.705	6.657	5.422	4.617	4.334	4.906
320.0	1029	1312	1268	903.6	681.0	639.0	734.6	862.7	1027	1240	1481	1670	1688	1726	1333	778.1	726.3	690.5	1350	6633	7797	414.3	13.68	6.068	4.563	3.296	2.490	2.084	1.937	1.793	1.603	1.373	1.326	1.303	1.385	1.529	1.443	1.267	1.426	1.352	1.415	1.512	1.636	1.914	2.127	2.630	3.187	3.610	3.774	3.198	2.613	2.935	2.844	2.584	2.732	2.645	3.073	3.412	4.047	4.220	4.337	4.630	5.312	5.752	6.478	6.701	6.984	7.549	8.244	7.896	8.194	8.602	9.191	7.799	5.595	4.734	4.487
325.0	1134	1503	1531	1111	770.7	704.6	771.6	901.6	1031	1253	1481	1662	1654	1581	1509	930.3	662.1	460.9	442.4	1927	7458	3985	60.11	9.446	5.430	4.004	3.186	2.185	2.091	1.893	1.649	1.583	1.515	1.376	1.333	1.460	1.376	1.602	1.398	1.448	1.435	1.405	1.712	2.028	2.165	3.051	3.684	4.215	4.162	3.676	3.413	3.381	3.129	2.835	2.929	2.852	3.304	3.643	3.836	4.430	4.296	4.436	5.057	5.927	6.517	7.046	7.273	7.590	8.057	8.205	7.453	7.515	8.218	9.190	7.419	5.677	4.407
330.0	1261	1784	1920	1500	1038	800.9	794.8	900.7	1018	1224	1464	1646	1635	1504	1363	1140	783.5	454.1	288.6	553.8	2141	5042	5307	1299	21.14	5.530	3.699	2.957	2.481	2.185	1.816	1.605	1.484	1.285	1.389	1.427	1.442	1.546	1.453	1.571	1.462	1.669	1.907	2.018	2.582	3.523	4.052	5.110	5.265	4.671	4.223	4.669	4.087	3.530	3.297	3.145	3.421	3.698	3.779	4.328	4.512	4.714	5.152	5.619	6.335	6.812	7.084	7.249	7.547	7.750	7.500	7.423	7.360	7.815	7.107	6.772	5.975
335.0	1401	1972	2221	1889	1374	966.4	837.6	901.7	1013	1209	1431	1603	1630	1505	1310	1076	1016	605.7	325.9	303.4	590.7	1235	3627	7584	435.0	22.62	5.350	3.675	3.007	2.508	2.116	1.785	1.588	1.345	1.486	1.382	1.597	1.517	1.388	1.469	1.562	1.857	1.893	2.170	2.818	3.570	4.466	5.518	5.951	5.782	5.141	6.061	5.275	4.567	4.201	3.585	3.648	3.903	3.878	4.345	4.266	4.707	5.435	5.356	6.280	6.728	7.014	7.447	7.571	7.739	7.729	7.368	7.491	7.039	6.398	6.302	6.512
340.0	1386	2019	2318	1991	1484	1010	861.5	884.4	983.1	1154	1356	1529	1567	1466	1261	1011	948.4	771.2	395.5	270.2	266.9	367.4	982.0	5262	6661	372.9	12.05	4.905	3.672	2.835	2.408	1.945	1.626	1.488	1.447	1.365	1.495	1.315	1.550	1.489	1.512	1.806	2.079	2.323	2.782	3.682	4.585	5.775	6.229	5.870	5.697	6.335	5.784	5.219	4.402	3.745	3.784	4.042	3.700	4.240	4.317	4.435	4.908	5.041	5.672	6.295	6.582	7.139	7.207	7.665	7.258	7.450	7.247	7.034	6.266	5.823	5.612
345.0	1268	2006	2335	2031	1506	1032	848.5	862.5	948.0	1102	1274	1446	1468	1384	1206	954.5	827.8	780.8	524.3	297.2	215.9	191.0	297.6	1500	6165	3390	53.76	7.581	4.809	3.123	2.419	2.267	1.678	1.680	1.484	1.451	1.404	1.454	1.378	1.633	1.402	1.682	1.818	2.245	2.669	3.622	4.521	5.525	6.346	5.930	5.533	6.693	5.925	5.025	4.350	3.795	3.647	3.885	3.612	4.012	4.167	4.204	4.735	5.212	5.423	5.775	5.899	6.726	7.028	6.859	7.273	7.065	6.825	6.595	6.025	5.317	5.457
350.0	1192	1830	2201	2012	1540	1067	858.2	857.8	913.2	1044	1188	1311	1362	1291	1143	932.8	783.7	667.9	606.5	439.7	255.0	187.4	175.8	406.7	1741	4059	4358	1141	18.65	4.489	3.171	2.333	1.905	1.842	1.523	1.486	1.413	1.415	1.284	1.443	1.485	1.393	1.685	2.173	2.533	3.368	4.085	5.335	5.667	5.609	5.571	6.635	5.920	5.192	4.559	3.809	3.705	3.750	3.547	3.873	4.172	4.125	4.653	4.972	5.232	5.231	5.655	5.960	6.271	6.517	6.700	6.641	6.429	6.368	5.973	5.364	5.364
355.0	1103	1658	1981	1899	1519	1091	866.9	861.7	905.4	996.0	1112	1209	1250	1203	1077	902.9	776.9	632.1	542.3	545.9	384.3	230.5	181.1	190.8	451.3	978.0	2927	6019	397.9	20.44	4.525	3.285	2.285	1.919	1.626	1.443	1.472	1.445	1.303	1.354	1.468	1.522	1.678	1.927	2.327	3.149	3.860	4.807	5.228	5.369	5.340	5.974	5.802	5.185	4.542	3.679	3.937	3.781	3.630	3.710	3.916	4.126	4.160	4.789	4.766	5.292	5.201	5.481	5.788	6.087	5.964	5.984	6.036	5.762	5.597	5.250	5.353
360.0	986.0	1528	1855	1754	1425	1087	889.2	845.9	900.1	975.9	1063	1139	1170	1128	1020	876.3	757.1	637.2	529.6	512.5	491.6	305.7	207.2	163.4	183.7	274.6	777.8	4249	5437	345.6	11.10	3.895	2.688	2.231	1.704	1.633	1.617	1.350	1.222	1.342	1.511	1.432	1.715	1.923	2.227	2.813	3.538	4.537	4.718	4.764	5.026	5.456	5.365	5.148	4.515	3.724	3.842	3.857	3.726	3.921	3.842	3.985	4.347	4.612	5.009	5.122	4.900	4.890	5.373	5.609	5.716	5.877	5.573	5.669	5.237	5.114	5.138
365.0	961.2	1408	1718	1642	1377	1070	910.9	852.3	892.3	959.0	1021	1084	1096	1065	977.3	856.1	750.8	641.9	541.5	484.2	499.3	417.2	254.0	184.8	146.5	136.0	223.0	1226	5198	3159	49.83	5.982	3.434	2.517	1.901	1.771	1.535	1.484	1.237	1.346	1.499	1.484	1.542	1.838	2.129	2.727	3.285	4.033	4.528	4.515	4.653	5.208	4.992	5.115	4.563	3.749	4.143	3.625	3.721	4.034	3.980	4.017	4.462	4.542	4.383	4.831	4.702	4.980	5.025	5.339	5.479	5.387	5.194	5.386	4.841	4.873	4.923
370.0	897.9	1248	1522	1525	1328	1055	910.8	875.0	893.2	938.1	984.3	1031	1041	996.4	927.8	833.9	742.6	651.7	566.9	502.6	460.6	463.3	379.4	243.2	173.8	133.5	124.5	326.7	1488	3747	4010	1022	16.48	3.995	2.600	1.996	1.788	1.490	1.416	1.297	1.403	1.450	1.544	1.812	2.072	2.519	2.991	3.628	4.072	3.965	4.333	4.897	4.792	4.838	4.206	3.883	3.927	3.817	3.800	3.861	4.120	4.119	4.151	4.380	4.498	4.638	4.655	4.854	4.891	5.188	5.102	5.089	5.134	5.210	5.030	4.987	4.819
375.0	804.3	1132	1382	1407	1272	1052	925.7	886.0	896.7	923.8	962.3	984.3	993.7	948.0	878.2	802.3	731.7	663.5	591.3	528.9	469.3	433.0	441.9	356.8	222.3	167.7	132.7	151.6	380.7	908.3	2819	5302	342.6	17.51	3.756	2.501	2.132	1.626	1.587	1.315	1.393	1.717	1.454	1.682	1.943	2.320	2.758	3.324	3.569	3.756	3.793	4.661	4.588	4.793	4.307	3.986	3.929	3.989	4.057	4.008	4.091	4.172	4.251	4.338	4.364	4.612	4.303	4.559	4.731	4.798	4.658	5.122	4.754	4.960	4.812	5.078	4.772
380.0	761.2	1097	1265	1313	1225	1041	936.8	885.2	896.0	907.9	943.6	947.6	957.4	912.9	848.3	778.4	720.3	661.2	600.3	547.1	483.1	436.5	420.5	426.0	292.6	199.4	158.2	133.0	156.5	255.2	771.4	3902	4478	280.3	8.114	3.161	2.413	1.842	1.614	1.450	1.322	1.498	1.490	1.561	1.970	2.218	2.577	2.862	3.398	3.490	3.620	4.475	4.326	4.424	4.138	3.790	3.894	3.729	4.074	3.820	3.914	4.245	4.112	4.158	4.364	4.450	4.487	4.302	4.395	4.686	4.768	4.616	4.889	4.854	4.644	4.792	4.391
385.0	758.5	1031	1204	1241	1181	1031	932.8	888.1	876.6	902.2	918.8	923.5	920.3	875.5	823.5	759.0	705.8	656.4	600.8	554.9	495.9	451.2	414.0	422.4	375.7	244.1	187.9	148.3	123.2	123.2	225.4	1151	4328	2612	40.12	5.089	2.920	2.338	1.692	1.765	1.216	1.482	1.539	1.527	1.947	2.320	2.447	3.046	3.321	3.144	3.475	4.033	4.209	4.322	4.205	3.762	4.259	3.729	3.969	3.771	3.852	4.112	3.869	4.202	4.503	4.261	4.428	4.228	4.211	4.637	4.519	4.352	4.862	4.833	4.748	4.369	4.505
390.0	736.2	976.6	1142	1177	1129	1014	927.9	874.8	874.0	883.6	899.1	891.3	888.9	841.3	784.8	729.9	688.9	648.2	603.7	556.6	511.1	469.3	426.9	399.7	396.9	334.3	234.9	179.5	140.1	113.8	116.4	304.4	1254	2982	3029	756.0	13.17	3.162	2.191	1.868	1.497	1.554	1.566	1.579	1.916	2.184	2.313	2.817	3.161	3.082	3.229	3.846	4.269	4.084	3.849	3.845	4.053	3.858	3.921	3.766	3.887	3.953	3.959	4.151	4.294	3.976	4.148	4.191	4.126	4.306	4.304	4.251	4.459	4.421	4.378	4.434	4.319
395.0	690.4	926.7	1049	1106	1093	993.7	916.3	875.2	864.6	870.5	872.7	868.4	854.6	816.7	758.5	709.9	669.7	635.7	599.8	561.6	526.1	485.2	451.2	409.7	378.9	378.1	326.1	225.0	176.0	139.6	116.5	132.1	319.4	722.3	2211	3911	282.2	13.07	3.207	2.333	1.715	1.605	1.791	1.654	1.924	2.172	2.300	2.734	3.088	2.962	3.098	4.020	3.996	3.801	3.717	3.605	4.127	3.879	3.834	3.929	3.995	4.086	3.918	4.139	3.973	3.969	3.905	3.737	4.190	4.162	4.183	4.092	4.135	4.357	4.233	4.404	4.319
400.0	681.5	872.1	1018	1069	1046	986.8	913.0	875.4	868.0	854.4	866.7	853.2	849.6	798.2	741.7	691.5	655.8	625.2	593.0	557.9	533.1	496.0	469.2	425.8	387.0	370.7	376.0	284.9	206.4	168.3	135.8	111.5	124.0	197.4	612.4	2998	2362	228.2	6.545	2.744	1.918	1.627	1.768	1.671	1.885	2.261	2.154	2.819	3.068	2.842	2.969	3.891	3.685	3.930	3.983	3.810	4.031	3.807	3.861	3.891	3.956	4.022	3.922	4.170	4.026	3.983	3.600	3.783	4.096	4.027	4.069	4.012	4.350	4.361	3.900	4.231	4.072
405.0	654.3	854.4	969.6	1050	1031	967.1	909.8	883.1	855.9	853.4	868.8	848.2	839.0	788.5	729.4	673.3	641.0	606.8	585.3	553.1	531.8	503.6	476.9	440.5	403.2	371.8	370.3	348.2	248.9	194.5	157.7	122.1	95.09	89.76	170.2	891.7	3076	2154	34.85	4.185	2.470	1.935	1.928	1.807	1.944	2.276	2.138	2.631	2.892	2.649	2.780	3.685	3.845	3.738	3.693	3.568	4.139	3.714	3.614	3.771	3.921	3.745	3.838	3.981	4.099	3.827	3.868	3.864	3.938	3.877	4.235	3.936	4.426	4.183	4.052	4.427	4.203
410.0	619.7	830.4	945.1	987.2	995.6	935.0	895.7	867.6	838.7	844.7	854.9	832.3	810.5	763.7	707.1	653.9	613.8	587.8	562.4	542.4	521.1	498.3	476.8	448.7	418.1	382.3	358.6	360.2	316.4	234.5	183.4	141.0	103.9	79.35	80.75	230.2	916.3	2320	2359	603.0	10.97	2.583	2.017	1.961	1.923	2.060	2.230	2.589	2.734	2.600	2.766	3.572	3.794	3.679	3.863	3.649	3.911	3.821	3.735	3.765	3.838	3.721	3.807	3.945	3.962	3.731	3.765	3.775	3.743	3.742	4.061	3.909	3.982	4.004	3.861	4.086	4.065
415.0	598.0	768.0	918.1	949.7	953.5	910.3	883.7	855.1	833.6	821.4	825.3	797.8	767.7	731.8	672.9	619.8	581.8	555.5	537.6	520.2	502.7	487.5	466.5	444.2	417.7	387.9	356.9	334.2	332.4	292.5	209.4	156.9	116.0	87.32	68.13	86.72	229.0	561.2	1699	2911	251.8	10.54	2.744	2.243	1.854	2.115	2.308	2.436	2.625	2.545	2.718	3.330	3.488	3.528	3.514	3.537	3.722	3.698	3.854	3.794	3.870	3.743	3.968	3.794	4.001	3.515	3.612	3.606	3.602	3.540	3.625	3.685	3.816	3.832	3.749	3.572	4.049
420.0	576.8	753.5	885.7	896.2	919.8	885.6	860.2	845.4	820.5	803.4	799.4	770.9	741.4	703.7	643.9	592.8	556.7	531.0	514.9	499.3	482.9	469.5	457.4	438.2	413.3	387.7	357.0	328.8	316.3	310.5	238.1	168.4	124.5	94.35	72.04	59.16	78.92	144.4	463.8	2216	2125	204.5	4.921	2.664	2.029	2.192	2.219	2.406	2.504	2.500	2.487	3.406	3.515	3.541	3.474	3.576	3.740	3.673	3.638	3.882	3.880	3.673	3.517	3.726	3.880	3.484	3.658	3.450	3.515	3.586	3.375	3.479	3.578	3.680	3.500	3.682	3.804
425.0	555.2	715.0	834.5	864.3	888.9	874.7	846.9	824.5	807.7	777.6	774.0	761.9	726.5	672.1	623.2	571.8	529.1	507.3	493.3	472.7	464.0	454.1	446.2	425.3	406.0	384.1	358.4	326.4	304.5	297.6	270.1	189.2	134.7	102.0	76.73	57.65	49.70	53.67	118.7	659.8	2372	1875	32.67	3.661	2.530	2.392	2.180	2.441	2.666	2.482	2.652	3.311	3.424	3.556	3.516	3.650	3.806	3.377	3.817	3.860	3.843	3.550	3.578	3.752	3.649	3.688	3.770	3.505	3.377	3.746	3.468	3.460	3.387	3.342	3.636	3.480	3.484
430.0	585.8	698.2	784.3	828.5	848.2	838.2	826.7	813.8	782.0	766.1	760.9	737.2	692.8	641.8	593.6	538.8	503.6	479.7	465.7	450.2	441.7	432.1	424.5	415.3	399.3	377.6	353.8	330.1	305.0	281.4	271.2	228.2	157.8	113.7	87.17	65.60	50.41	39.21	45.24	161.2	688.7	1793	1919	520.4	10.48	2.928	2.485	2.484	2.599	2.387	2.561	3.108	3.418	3.400	3.459	3.365	3.563	3.477	3.641	3.652	3.674	3.514	3.598	3.590	3.713	3.615	3.478	3.405	3.500	3.464	3.252	3.211	3.247	3.290	3.100	3.295	3.335
435.0	887.2	660.6	762.3	805.8	818.4	824.2	815.0	794.8	768.5	755.3	745.2	716.2	667.6	619.2	560.5	513.2	476.8	456.1	439.4	430.2	419.9	411.0	406.1	399.2	386.2	368.3	348.6	330.5	306.4	278.0	253.7	234.2	195.2	132.5	98.61	75.59	57.77	42.13	33.09	52.87	166.0	427.1	1319	2497	240.3	11.79	3.012	2.588	2.568	2.439	2.324	2.986	3.045	3.330	3.365	3.067	3.621	3.627	3.596	3.667	3.719	3.558	3.462	3.580	3.635	3.402	3.394	3.242	3.237	3.352	3.288	2.982	3.252	3.236	2.992	3.052	3.180
440.0	1326	711.8	730.7	776.1	797.5	806.8	806.1	792.5	762.5	743.5	728.2	699.7	645.7	591.1	539.0	491.5	457.0	438.1	417.9	410.7	397.1	392.0	390.8	385.3	373.0	361.8	340.7	322.4	299.7	279.1	248.9	221.0	206.3	154.3	107.2	82.87	62.90	45.76	33.91	30.99	52.00	106.8	357.1	1861	1984	196.8	6.051	2.878	2.855	2.501	2.348	3.167	3.055	3.180	3.158	3.085	3.533	3.394	3.427	3.555	3.419	3.612	3.542	3.377	3.293	3.181	3.159	3.245	3.359	3.322	3.164	3.222	2.920	3.256	2.980	3.241	3.240
445.0	1539	973.1	715.3	738.6	751.4	784.7	794.6	782.0	745.5	724.2	709.1	681.7	631.1	565.4	515.5	468.0	431.6	415.2	398.9	390.0	377.6	373.6	370.2	365.6	354.7	342.5	332.9	313.8	295.8	275.2	241.9	211.6	195.8	172.2	119.5	88.92	67.82	49.82	38.07	29.77	28.47	36.85	89.96	550.2	2121	1758	28.40	4.128	3.275	2.405	2.470	2.884	2.991	3.125	3.068	3.290	3.433	3.200	3.512	3.535	3.334	3.463	3.428	3.214	3.375	3.164	3.180	3.058	3.141	3.072	3.225	3.185	2.990	3.106	2.897	2.954	3.075
450.0	1172	1708	809.6	694.9	708.2	738.1	753.3	736.6	719.3	695.1	676.4	640.6	585.8	530.8	476.6	435.6	403.5	384.1	371.8	360.5	348.9	346.4	343.1	337.8	331.5	324.2	311.3	295.3	281.8	263.1	235.4	204.8	176.6	164.7	139.8	98.41	72.71	55.13	42.83	33.37	26.61	23.97	32.09	132.6	607.6	1623	1772	505.8	9.953	2.850	2.624	2.961	2.996	2.906	3.109	3.125	3.378	3.233	3.368	3.390	3.409	3.316	3.320	3.291	3.206	3.003	3.141	3.083	2.950	3.005	2.912	2.752	2.762	2.835	2.708	2.783	2.808
455.0	624.2	2011	1271	665.0	677.6	702.3	710.7	690.9	674.3	657.5	627.7	599.3	542.5	492.2	444.0	396.6	368.2	351.0	337.6	327.5	320.7	314.4	311.5	314.8	305.1	297.7	287.2	275.7	264.1	249.0	223.7	195.9	167.9	146.8	137.8	116.0	80.78	59.26	47.26	37.48	29.19	23.92	21.19	40.61	144.2	382.9	1075	2150	200.8	10.77	2.976	2.862	3.047	2.801	3.002	2.796	3.112	3.259	3.171	2.965	3.179	3.184	3.236	3.189	3.004	2.839	2.797	3.072	2.711	2.677	2.673	2.584	2.637	2.410	2.568	2.540	2.565
460.0	431.5	1472	2185	749.7	646.7	661.7	663.1	659.2	639.6	616.8	591.6	565.0	508.3	462.0	412.7	370.1	343.5	326.2	312.5	300.0	294.7	286.6	287.7	288.4	283.2	276.3	269.1	261.9	249.4	235.6	214.9	188.3	161.7	139.3	124.4	120.0	90.86	63.41	49.57	40.29	31.49	25.15	20.64	21.52	42.08	93.48	278.9	1450	1641	159.4	6.600	3.145	2.973	2.767	2.940	2.798	3.012	3.036	2.951	3.077	3.012	3.136	3.107	2.995	2.903	2.896	2.692	2.621	2.794	2.723	2.421	2.389	2.331	2.593	2.485	2.192	2.595
465.0	365.9	872.8	2634	957.2	594.8	607.9	627.0	622.2	599.0	580.8	558.4	534.4	477.4	429.7	385.0	345.5	321.7	301.5	287.3	280.7	271.7	262.8	264.5	264.5	260.9	256.4	252.0	244.6	233.6	222.3	204.2	181.8	154.7	135.3	115.0	109.9	100.4	69.22	51.98	41.86	33.46	26.82	21.88	18.40	20.14	29.67	69.97	406.7	1618	1354	128.1	4.608	2.992	3.033	3.006	2.932	2.786	2.947	2.772	2.838	2.735	2.939	3.099	2.852	2.745	2.654	2.491	2.630	2.431	2.502	2.415	2.349	2.331	2.389	2.283	2.188	2.311
470.0	341.4	507.6	1797	2260	673.5	553.6	578.4	562.4	549.2	535.0	509.9	486.8	430.5	390.5	348.4	310.7	287.3	270.6	257.4	247.9	242.6	236.1	236.1	233.1	231.1	228.0	226.3	219.1	212.6	203.1	187.1	167.7	145.3	124.5	107.9	95.94	91.85	78.55	57.21	42.89	35.22	28.50	23.20	19.01	16.23	16.09	23.55	97.54	448.1	1128	1310	463.4	11.15	3.200	2.702	2.685	2.820	2.853	2.675	2.740	2.661	2.587	2.830	2.649	2.570	2.472	2.346	2.407	2.324	2.205	2.227	2.135	2.109	2.171	2.102	1.982	1.964
475.0	354.4	407.0	806.3	2536	1536	515.3	506.5	517.8	495.2	480.2	467.0	437.9	390.0	349.9	308.3	275.9	256.5	239.3	228.0	219.1	212.4	208.8	206.3	206.7	202.6	200.8	195.9	194.1	188.7	182.3	168.9	152.7	133.0	116.1	100.9	86.55	77.37	73.86	63.99	46.94	35.92	29.75	24.14	19.47	16.36	14.30	13.90	28.47	105.4	260.7	641.4	1484	209.4	13.65	2.839	2.674	2.638	2.586	2.562	2.486	2.600	2.404	2.355	2.342	2.373	2.181	2.373	2.211	2.265	2.127	2.012	1.932	1.927	1.997	1.971	1.846	1.774
480.0	329.4	358.8	475.4	1783	2466	584.6	475.7	474.4	465.1	446.2	430.6	401.7	361.9	320.0	286.0	251.5	237.1	218.6	210.7	199.2	194.5	188.7	189.6	187.7	184.7	182.7	178.0	178.2	174.2	168.8	156.6	142.5	125.4	107.6	93.84	81.49	71.16	67.26	65.59	51.73	37.82	30.32	24.79	20.23	17.19	14.55	12.42	14.04	29.74	63.29	158.3	811.2	1386	196.9	8.385	2.827	2.737	2.464	2.442	2.356	2.293	2.466	2.187	2.247	2.254	2.157	2.167	2.008	2.026	2.157	1.761	1.950	1.781	1.928	1.755	1.682	1.632
485.0	306.3	355.7	379.4	960.3	2844	1090	443.9	441.1	436.4	416.6	404.3	374.9	337.8	302.0	266.7	235.9	220.8	204.1	194.6	184.5	178.5	173.4	174.7	172.8	170.9	168.3	164.9	164.7	161.1	154.7	146.4	133.3	116.8	103.9	91.06	78.48	67.93	61.25	60.93	56.09	41.56	29.70	25.16	21.28	17.97	15.25	12.45	11.11	13.03	19.58	40.12	213.0	1034	1314	158.4	4.509	2.790	2.707	2.410	2.372	2.278	2.303	2.181	1.958	2.149	2.023	1.899	1.784	1.842	1.919	1.683	1.728	1.660	1.595	1.557	1.585	1.727
490.0	253.6	371.2	350.3	503.2	1866	2311	590.3	405.8	393.7	393.0	371.2	345.5	309.7	273.4	240.0	215.1	197.1	182.9	174.6	167.6	159.9	157.9	155.9	154.1	152.9	151.0	150.0	148.4	145.3	141.9	135.2	122.8	108.5	96.23	84.60	74.20	64.04	56.86	51.58	51.68	46.62	33.96	26.05	22.36	18.88	15.77	13.30	11.48	9.822	10.06	13.83	51.87	267.4	792.9	1158	499.6	13.75	2.834	2.335	2.091	2.277	2.061	2.044	1.970	1.974	1.905	1.890	1.771	1.731	1.677	1.541	1.614	1.576	1.666	1.455	1.487	1.534
495.0	215.2	317.1	363.6	366.6	765.6	2590	1413	376.4	360.3	350.3	332.8	313.4	276.6	247.0	218.1	190.4	176.3	163.3	153.6	151.7	141.6	142.1	136.2	137.3	134.7	133.3	132.0	131.1	129.4	127.9	120.9	110.1	98.91	87.59	78.35	69.46	60.82	53.46	47.20	44.14	45.21	39.40	28.33	22.56	19.09	15.82	14.02	12.11	9.822	8.496	8.274	16.15	63.38	181.6	503.5	1355	741.0	18.15	2.511	2.159	2.098	1.838	2.011	1.900	1.878	1.801	1.673	1.551	1.662	1.572	1.553	1.415	1.435	1.424	1.439	1.413	1.325
500.0	180.5	285.4	367.5	316.3	407.2	1739	2439	422.8	330.6	325.0	311.0	288.9	256.9	225.1	201.1	174.0	157.5	149.3	142.4	133.5	126.3	124.9	122.8	123.2	122.8	121.2	118.2	117.7	118.5	116.5	109.2	101.3	89.73	82.04	72.43	64.70	57.39	49.98	44.72	39.10	38.82	40.26	31.95	22.63	18.98	16.23	14.19	12.31	9.948	8.465	7.259	8.167	18.09	44.04	120.6	637.3	1473	230.9	12.62	2.295	1.973	1.926	1.890	1.864	1.727	1.554	1.526	1.516	1.573	1.607	1.519	1.180	1.381	1.284	1.381	1.368	1.225
505.0	159.7	238.3	349.8	294.9	297.3	859.6	2847	937.7	300.9	288.6	286.9	265.2	237.3	204.0	183.1	158.6	146.2	136.0	130.3	122.5	115.1	113.3	109.8	110.5	110.8	108.9	107.4	107.6	107.5	105.5	99.91	92.11	82.16	75.29	66.84	61.00	53.97	47.63	40.92	36.82	33.84	35.82	33.04	24.12	19.34	16.05	13.85	12.07	10.12	8.682	6.987	6.747	8.090	13.39	30.19	156.9	828.1	1282	198.8	6.588	2.127	1.958	1.981	1.729	1.800	1.523	1.648	1.501	1.260	1.415	1.330	1.261	1.341	1.285	1.299	1.197	1.133
510.0	151.0	190.4	281.9	307.3	256.8	398.2	1806	2256	431.7	256.2	250.7	234.6	207.8	181.8	158.7	141.3	128.4	119.1	112.9	106.8	103.3	100.2	97.37	97.23	96.10	94.10	93.63	93.00	93.42	91.21	87.70	81.59	73.58	67.22	59.44	53.90	49.48	42.60	37.10	33.21	30.70	29.14	29.84	27.52	20.30	16.13	13.64	11.73	10.02	8.580	7.435	6.378	5.748	6.409	9.939	38.09	202.9	638.1	975.6	452.6	15.31	2.133	1.842	1.666	1.498	1.473	1.343	1.401	1.278	1.267	1.253	1.233	1.181	1.221	1.017	1.082	1.140
515.0	134.1	159.1	215.2	295.2	244.6	255.3	676.3	2655	1288	237.9	217.7	203.3	179.3	161.5	137.5	123.0	113.2	101.3	97.37	91.35	87.00	84.88	83.82	83.68	81.45	81.39	80.06	81.07	78.95	78.08	75.88	70.07	62.89	57.95	53.45	47.87	43.88	38.53	33.55	30.34	27.41	24.58	23.46	25.71	22.96	16.77	13.09	11.45	9.757	8.359	7.140	6.365	5.540	4.909	5.426	11.39	48.22	145.2	330.5	974.9	659.3	21.11	2.047	1.637	1.443	1.494	1.260	1.249	1.202	1.007	1.226	1.145	1.127	1.009	0.966	1.000	0.982
520.0	120.8	139.2	175.6	249.8	252.8	205.1	311.1	1747	2421	297.3	200.1	184.2	164.8	146.1	125.0	110.6	99.46	92.31	88.05	81.80	78.37	77.13	73.99	74.00	73.06	71.17	70.77	70.87	70.14	70.94	67.43	62.77	57.55	52.24	46.39	42.37	39.63	34.48	31.54	28.32	25.35	22.60	20.28	21.88	22.83	18.65	13.41	10.56	8.901	7.750	6.837	6.538	5.719	4.818	4.386	5.458	13.57	35.01	77.76	398.9	1061	240.1	14.32	1.769	1.409	1.438	1.207	1.249	1.005	1.042	1.031	0.952	1.001	0.833	0.956	1.068	0.983
525.0	111.6	130.2	150.7	203.3	261.3	192.1	206.4	789.5	3002	830.5	181.3	165.2	147.4	130.7	112.4	98.39	89.47	81.46	76.13	74.10	71.14	68.58	66.64	65.70	65.09	64.96	64.67	62.86	63.79	63.07	60.89	55.89	52.23	47.47	42.44	38.35	35.94	31.75	29.26	25.98	23.45	20.66	18.36	18.30	20.43	19.88	14.26	10.95	8.542	7.552	6.803	5.920	5.494	4.875	4.124	4.020	5.593	10.23	19.86	95.77	510.1	938.4	206.8	7.296	1.608	1.383	1.182	1.231	1.109	0.909	0.928	0.915	1.018	0.803	0.812	0.879	0.927
530.0	99.49	113.2	132.1	152.1	230.1	203.0	169.7	307.8	1873	2317	324.8	142.9	127.9	113.4	100.1	84.76	77.67	71.76	68.09	64.39	61.54	59.14	57.94	56.91	56.08	55.27	54.47	53.71	54.84	54.04	52.66	48.46	44.89	40.54	37.59	33.97	31.52	28.10	25.69	23.39	20.78	18.62	16.97	15.82	15.95	17.45	15.76	11.55	8.544	7.131	6.415	5.737	5.161	4.896	4.335	3.596	3.843	4.591	6.654	23.57	121.3	406.4	683.9	416.5	15.96	1.654	1.286	1.184	1.017	0.988	0.845	0.882	0.858	0.823	0.748	0.792	0.794
535.0	91.23	94.80	114.3	123.4	176.6	211.8	155.1	174.8	619.3	2756	1238	132.4	112.5	98.31	82.86	72.89	67.63	61.55	58.70	53.68	52.74	50.80	49.08	47.75	47.85	47.63	46.01	45.80	46.14	46.08	43.54	41.05	38.68	34.44	31.71	29.56	26.73	24.29	22.03	20.71	18.46	16.24	14.81	13.58	13.06	13.43	14.61	12.64	8.580	6.652	5.922	5.349	4.550	4.628	4.244	3.585	3.388	3.427	3.641	7.061	28.92	92.33	206.0	658.7	525.6	21.95	1.393	1.292	0.993	0.929	0.940	0.793	0.761	0.718	0.758	0.686	0.655
540.0	85.02	83.26	106.2	110.5	133.7	202.5	154.1	134.2	238.6	1713	2462	191.9	99.29	84.57	76.10	64.33	59.17	54.30	51.11	46.97	45.12	43.51	42.86	42.91	42.26	41.26	39.79	40.53	39.92	39.63	38.25	36.31	33.86	30.77	28.49	25.94	23.68	21.56	19.45	18.39	16.47	15.38	13.24	12.58	11.33	10.74	11.94	12.90	9.746	6.792	5.435	5.073	4.259	4.325	3.986	4.046	3.443	3.255	2.805	3.485	8.102	22.36	48.21	242.9	735.5	241.4	14.75	1.278	1.022	0.898	0.870	0.753	0.859	0.598	0.668	0.711	0.739
545.0	71.16	80.04	88.19	99.72	106.5	173.3	167.2	115.3	139.1	698.1	3024	615.9	87.84	75.07	66.86	57.59	51.10	48.48	44.70	41.63	39.41	37.47	36.84	37.88	36.59	35.43	35.90	35.20	34.23	35.20	34.70	32.23	29.50	27.67	25.04	23.37	20.91	18.75	17.75	16.10	14.88	13.22	11.94	11.45	10.33	9.466	9.621	11.41	10.40	7.107	5.416	4.849	4.121	3.863	3.670	3.817	3.635	2.940	2.563	2.572	3.304	6.738	12.47	57.37	321.0	669.5	196.4	6.212	1.232	0.991	0.865	0.695	0.748	0.724	0.673	0.686	0.610
550.0	74.52	76.40	78.17	79.14	84.56	120.0	172.1	109.4	99.14	235.5	1769	1966	138.6	65.33	55.91	48.30	43.10	41.10	37.53	35.00	32.86	31.44	31.84	30.69	30.68	30.07	29.66	29.65	29.33	28.37	28.85	26.57	24.59	22.66	20.75	19.05	17.60	15.46	14.97	14.01	12.88	11.27	10.71	9.522	9.022	8.066	7.622	8.226	9.108	7.423	5.593	4.409	3.754	3.496	3.144	3.063	3.448	3.000	2.549	2.193	2.298	3.017	4.270	14.34	75.83	271.8	471.1	244.9	15.06	1.272	1.083	0.859	0.763	0.674	0.698	0.617	0.587
555.0	69.49	71.50	70.49	68.91	73.78	87.51	144.9	129.5	81.23	115.3	523.2	2487	814.2	57.46	47.33	40.33	36.05	33.07	30.90	28.79	26.97	25.86	25.18	24.93	24.35	24.13	23.78	23.78	23.21	22.82	23.42	21.27	20.33	18.18	16.74	15.69	14.26	13.19	12.66	11.05	10.39	9.647	9.202	8.231	7.498	6.479	6.452	6.395	6.337	6.993	6.121	4.223	3.688	3.086	2.864	2.753	2.834	2.787	2.799	2.324	2.037	2.338	2.356	4.712	18.36	61.91	138.8	416.3	249.7	19.56	1.333	1.055	0.819	0.747	0.602	0.622	0.555
560.0	64.51	68.54	68.96	59.79	61.85	69.22	99.73	143.9	76.87	77.68	173.5	1544	1888	97.19	40.45	34.59	30.84	27.62	25.65	24.75	23.30	22.75	21.25	21.18	20.55	20.48	20.28	19.49	19.71	19.59	19.26	17.99	17.11	15.51	14.09	12.92	12.26	11.19	10.33	9.469	8.660	8.399	7.631	7.342	6.720	6.219	5.405	5.279	5.021	5.594	6.073	4.453	3.198	2.706	2.554	2.533	2.494	2.494	2.902	2.469	2.046	2.146	2.038	2.606	5.542	15.33	32.75	152.0	436.6	215.2	11.85	1.349	0.984	0.889	0.657	0.609	0.612
565.0	60.94	67.44	64.05	55.14	56.33	56.76	74.44	146.0	81.65	65.86	87.03	583.9	2507	361.6	35.12	28.86	25.91	23.74	22.44	21.30	19.79	18.88	17.72	18.08	16.81	16.73	16.59	16.33	16.72	16.70	16.24	15.59	14.76	13.02	12.43	11.49	10.45	9.720	9.149	8.554	7.729	7.449	6.819	5.972	5.970	5.219	4.879	4.669	4.088	4.287	5.256	4.671	3.299	2.397	2.417	2.517	2.400	2.468	2.467	2.494	2.336	2.209	2.184	2.159	2.810	5.106	8.954	36.65	190.2	417.7	149.4	5.132	1.396	1.132	0.779	0.780	0.586
570.0	60.05	69.37	60.06	49.79	48.96	47.04	52.28	102.0	105.6	60.31	62.16	180.1	1504	1438	73.75	24.79	21.89	20.00	18.04	17.27	16.11	15.90	14.55	14.77	14.08	13.80	13.68	13.71	13.89	13.78	13.54	13.39	12.10	10.49	10.01	9.272	8.690	8.215	7.380	6.814	6.226	6.059	5.542	5.230	4.931	4.408	4.155	3.817	3.405	3.254	3.568	4.033	3.627	2.588	2.478	2.257	2.259	2.375	2.372	2.487	2.884	2.515	2.482	2.497	2.648	3.183	3.987	10.35	46.43	164.2	287.7	141.1	13.89	1.502	1.096	0.847	0.687
575.0	59.34	56.70	61.65	49.18	39.75	40.08	42.06	61.92	121.4	66.83	52.68	75.42	427.0	1915	516.3	22.62	17.18	16.16	14.95	13.65	13.17	13.19	11.72	12.16	11.51	11.27	10.79	11.20	10.87	11.12	11.03	10.16	9.759	8.838	8.288	7.451	7.199	6.839	6.253	5.819	5.142	4.607	4.426	4.355	4.073	3.727	3.378	3.361	2.886	2.662	2.638	3.040	3.479	2.960	2.458	2.173	2.032	2.214	2.534	2.501	2.899	3.013	2.820	2.964	3.245	3.054	3.675	5.232	13.51	39.60	84.45	240.5	208.5	17.10	1.579	1.082	0.917
580.0	59.73	65.48	57.87	43.20	39.14	35.40	38.40	42.40	107.2	86.49	49.26	52.51	130.3	1199	1056	43.09	15.97	14.05	13.39	12.61	11.14	10.58	10.74	10.25	9.540	9.491	9.022	9.703	9.368	9.430	9.190	8.673	8.025	7.637	7.047	6.613	6.291	5.649	5.138	5.045	4.623	4.262	4.028	3.747	3.464	3.088	3.150	2.778	2.536	2.282	2.292	2.428	2.933	3.179	2.656	2.201	2.046	2.446	2.403	2.576	2.603	3.068	3.283	3.207	3.241	3.416	3.627	4.365	6.430	12.16	22.51	88.66	269.4	149.5	8.951	1.436	1.086
585.0	63.36	61.25	55.59	43.49	38.75	32.23	34.61	38.35	77.36	104.1	50.05	48.75	60.63	443.3	1726	109.1	14.61	13.59	12.00	11.35	9.985	9.265	8.918	8.870	8.037	8.257	8.705	8.512	8.773	7.931	8.372	7.383	6.851	6.543	6.268	5.822	5.196	5.014	4.528	4.556	3.934	3.800	3.396	3.212	3.070	2.743	2.647	2.554	2.383	2.002	2.173	2.019	2.421	2.995	2.771	2.214	2.164	2.092	2.503	2.490	2.782	2.999	3.653	3.609	3.588	3.864	3.862	4.394	5.374	6.749	9.306	23.74	114.4	256.1	36.07	3.978	1.309
590.0	58.63	58.60	55.96	43.11	33.56	29.38	31.99	36.52	51.64	103.2	66.29	46.89	44.13	130.1	1047	894.8	36.41	11.52	10.10	9.377	8.379	8.219	7.749	7.004	6.755	7.105	6.712	6.890	6.908	7.013	6.599	6.338	5.704	5.674	5.125	4.955	4.343	4.288	3.828	3.750	3.334	3.175	2.853	2.748	2.614	2.389	2.312	2.136	2.120	1.770	1.886	1.756	1.908	2.349	2.631	2.414	2.200	2.204	2.397	2.435	2.821	3.246	3.662	4.142	4.081	4.081	4.507	4.988	5.686	5.932	6.544	9.170	29.83	99.25	161.8	101.0	12.21
595.0	53.54	58.17	58.16	38.65	32.89	28.79	29.56	35.99	42.55	78.19	93.07	48.72	41.33	54.72	297.5	1265	269.6	10.62	8.755	7.772	6.933	7.287	6.314	6.248	6.019	5.857	5.609	5.729	5.413	5.888	5.399	5.401	4.646	4.533	4.228	4.179	3.997	3.660	3.343	3.267	2.920	2.670	2.323	2.205	2.393	1.984	2.043	1.865	1.903	1.508	1.600	1.574	1.690	1.718	2.086	2.527	2.200	2.290	2.217	2.809	2.738	3.380	3.828	4.184	4.201	4.826	4.988	5.240	6.193	6.439	6.273	6.285	10.38	25.13	47.88	145.8	130.9
600.0	56.50	60.80	56.06	41.79	32.40	29.38	30.34	35.79	39.62	58.40	103.8	59.49	46.26	36.01	87.58	818.8	714.8	19.22	8.141	6.626	6.136	5.907	5.306	5.342	5.136	5.059	4.917	5.261	4.802	4.841	4.847	4.601	4.244	3.947	3.963	3.390	3.450	3.171	2.948	2.972	2.563	2.482	2.087	1.920	2.101	1.834	1.851	1.717	1.563	1.468	1.363	1.394	1.488	1.529	1.806	2.196	2.417	2.357	2.349	2.694	2.997	3.389	3.753	4.185	4.257	5.003	5.314	5.652	6.409	6.436	6.380	5.585	6.371	8.712	13.16	52.23	163.7
605.0	55.50	62.49	57.58	44.01	31.79	30.81	31.67	35.76	44.63	54.85	102.2	81.22	51.88	38.62	43.40	315.5	1088	72.92	7.429	5.974	5.242	5.515	4.505	4.721	4.232	4.635	4.432	4.389	4.308	4.228	4.085	4.159	4.078	3.552	3.506	3.083	3.202	2.787	2.540	2.462	2.320	2.223	1.964	1.858	1.691	1.752	1.631	1.734	1.483	1.307	1.398	1.340	1.321	1.335	1.552	1.998	2.541	2.411	2.442	2.571	2.923	3.503	3.798	4.039	4.626	5.031	5.341	6.140	6.518	6.690	6.621	5.920	5.339	5.099	5.428	14.01	67.34
610.0	57.85	65.66	57.88	42.30	32.90	34.35	36.46	42.63	52.20	63.83	91.33	112.7	71.87	50.96	41.80	100.3	732.7	512.2	16.68	5.600	4.770	4.546	3.997	4.076	4.017	4.071	3.656	3.702	3.751	3.816	3.640	3.625	3.260	3.191	3.024	2.709	2.676	2.347	2.156	2.120	1.956	1.774	1.635	1.639	1.706	1.600	1.430	1.418	1.299	1.221	1.224	1.241	1.300	1.304	1.461	1.671	2.213	2.397	2.642	2.731	3.069	3.368	3.555	3.887	4.392	4.817	5.444	6.000	6.151	6.898	6.417	6.023	5.046	4.392	3.793	5.409	17.33
615.0	66.55	69.56	62.82	44.36	36.05	35.28	41.13	47.85	57.69	67.56	81.24	120.8	94.07	57.89	44.65	47.52	224.7	839.5	77.29	5.288	4.260	3.878	3.570	3.589	3.336	3.189	2.944	2.919	3.025	3.166	3.095	3.126	2.723	2.747	2.679	2.248	2.281	2.165	1.847	1.835	1.660	1.588	1.503	1.341	1.444	1.328	1.332	1.154	1.181	1.066	1.045	1.180	1.005	1.119	1.286	1.450	1.846	2.244	2.524	2.600	2.820	3.043	3.249	3.776	4.161	4.212	4.996	5.894	6.064	6.355	5.929	5.574	4.730	4.167	3.412	3.306	5.644
620.0	54.18	63.24	65.12	47.25	34.97	32.91	37.32	46.45	54.24	64.72	75.63	109.2	105.3	61.03	45.46	35.68	74.01	614.1	441.4	8.713	3.832	3.547	3.313	3.011	3.190	2.899	2.688	2.754	2.751	2.798	2.915	2.698	2.617	2.417	2.395	1.922	1.961	1.799	1.737	1.524	1.508	1.442	1.325	1.235	1.213	1.169	1.144	1.026	1.049	0.997	0.930	1.020	0.956	1.069	1.126	1.425	1.490	1.894	2.411	2.242	2.490	2.574	2.996	3.500	3.846	3.634	4.527	5.181	5.419	5.689	5.406	4.908	4.135	3.589	3.055	2.621	2.872
625.0	64.96	59.97	62.70	45.35	37.91	34.10	38.67	47.57	54.03	60.95	72.71	91.80	110.9	63.35	46.61	31.69	37.10	259.1	734.2	40.77	4.072	3.181	2.905	2.651	2.465	2.486	2.461	2.215	2.528	2.526	2.369	2.376	2.243	2.314	1.890	1.823	1.826	1.715	1.620	1.451	1.224	1.212	1.197	1.193	1.134	1.136	0.998	0.870	0.892	0.802	0.820	0.892	0.873	0.951	1.066	1.133	1.300	1.501	2.178	2.103	2.422	2.609	2.644	3.112	3.273	3.328	3.738	4.278	4.512	5.307	4.923	4.414	3.690	3.146	2.657	2.127	2.013
630.0	64.30	63.45	67.91	45.30	33.56	32.74	38.35	44.34	50.86	62.34	68.83	80.94	99.61	73.40	46.35	30.24	28.50	76.13	551.6	332.4	7.680	2.720	2.538	2.206	2.187	2.034	2.202	1.819	2.096	2.041	2.003	2.002	1.821	1.808	1.533	1.515	1.484	1.358	1.337	1.167	1.102	1.029	1.011	0.983	0.954	0.862	0.848	0.789	0.891	0.710	0.728	0.734	0.782	0.848	0.886	0.857	1.169	1.224	1.569	1.768	1.961	2.122	2.148	2.393	2.580	2.810	2.942	3.316	3.721	4.155	3.919	3.409	3.021	2.431	2.219	1.735	1.642
635.0	56.39	59.51	60.71	40.19	33.30	32.11	37.40	43.81	49.01	58.51	68.90	77.15	83.00	83.99	49.00	31.80	26.20	29.50	170.2	612.9	54.61	2.571	2.074	1.982	1.714	1.784	1.822	1.698	1.711	1.624	1.616	1.666	1.514	1.455	1.289	1.182	1.154	1.143	1.255	1.050	0.836	0.884	0.938	0.864	0.800	0.756	0.735	0.623	0.720	0.626	0.624	0.614	0.627	0.666	0.702	0.878	0.903	0.970	1.142	1.282	1.401	1.671	1.750	1.941	2.133	2.233	2.351	2.513	2.847	3.002	2.990	2.761	2.235	1.892	1.798	1.439	1.169
640.0	61.75	65.23	61.69	43.77	33.17	33.32	40.10	41.95	48.68	57.07	67.21	75.41	75.11	86.46	54.59	32.61	26.61	19.30	47.00	492.0	268.4	4.077	2.357	1.835	1.514	1.292	1.548	1.367	1.482	1.516	1.484	1.359	1.250	1.128	1.105	1.158	0.934	1.013	1.012	0.873	0.844	0.825	0.821	0.780	0.781	0.655	0.633	0.621	0.640	0.590	0.624	0.545	0.532	0.579	0.680	0.690	0.746	0.790	1.007	0.981	1.106	1.437	1.499	1.527	1.713	1.811	1.984	2.137	2.242	2.392	2.393	2.293	2.014	1.613	1.462	1.097	0.971
645.0	62.56	72.43	65.27	43.99	34.01	33.96	36.39	41.55	43.85	56.86	65.23	72.07	69.37	76.47	62.99	34.29	27.06	16.49	16.80	223.7	501.5	19.84	2.124	1.834	1.671	1.368	1.249	1.325	1.230	1.298	1.339	1.258	1.165	1.050	1.033	1.029	0.994	0.828	0.865	0.783	0.722	0.750	0.698	0.664	0.681	0.597	0.617	0.583	0.640	0.626	0.607	0.506	0.500	0.611	0.644	0.660	0.781	0.823	0.871	0.919	0.990	1.145	1.230	1.286	1.471	1.554	1.527	1.816	1.908	1.965	2.010	2.129	1.693	1.444	1.211	0.873	0.877
650.0	61.40	73.02	67.61	45.93	32.34	30.92	36.93	39.97	44.71	54.28	63.77	69.45	65.30	66.73	67.03	35.02	26.80	16.04	9.649	67.20	525.1	66.15	2.053	1.605	1.437	1.531	1.246	1.257	1.192	1.109	1.216	1.240	1.173	1.046	0.907	0.934	0.801	0.807	0.775	0.670	0.700	0.695	0.642	0.665	0.606	0.508	0.546	0.641	0.585	0.535	0.501	0.433	0.497	0.519	0.494	0.577	0.641	0.648	0.764	0.816	0.875	0.996	1.225	1.147	1.285	1.388	1.354	1.595	1.568	1.653	1.712	1.716	1.491	1.279	1.038	0.881	0.762
