Sample:	'1
File name:	C2024121018¿˚√Ò’¢.FD3
Run date:	'11:14:26, 12/11/2024
Operator:	Administrator
Comment:	'

Instrument
Model:	F-2700 FL Spectrophotometer
Serial number:	23B8-004
ROM Version:	4J14000 07

Instrument parameters
Measurement type:	3-D scan
Data mode:	Fluorescence
EX  Start WL:	220.0 nm
EX  End WL:	600.0 nm
EX Sampling interval:	5.0 nm
EM  Start WL:	230.0 nm
EM  End WL:	650.0 nm
EM Sampling interval:	5.0 nm
Scan speed:	12000 nm/min
EX Slit:	5.0 nm
EM Slit:	5.0 nm
PMT Voltage:	700 V
Response:	Auto 
Corrected spectra:	Off
Contour interval:	50.000

Peak integration
Integration method:	Rectangular
Sensitivity:	1
Threshold:	1.000

Peaks
No.	ApexEX/EM(nm)	Height(Data)
1	230.0/305.0	1938
2	230.0/340.0	3339
3	230.0/580.0	143.7
4	230.0/590.0	144.3
5	230.0/640.0	87.26
6	240.0/265.0	319.2
7	245.0/270.0	330.8
8	255.0/280.0	596.7
9	260.0/570.0	165.6
10	265.0/585.0	167.9
11	270.0/600.0	178.7
12	275.0/310.0	2966
13	275.0/325.0	2962
14	275.0/415.0	4097
15	275.0/435.0	3856
16	275.0/610.0	194.6
17	345.0/415.0	2343
18	345.0/430.0	2228
19	475.0/345.0	8.765
20	505.0/275.0	2.602
21	510.0/280.0	2.986
22	520.0/285.0	3.550
23	545.0/410.0	12.04
24	555.0/305.0	12.48
25	560.0/310.0	12.46
26	565.0/325.0	11.96
27	565.0/415.0	12.27
28	570.0/315.0	11.82

Data points
	220.0	225.0	230.0	235.0	240.0	245.0	250.0	255.0	260.0	265.0	270.0	275.0	280.0	285.0	290.0	295.0	300.0	305.0	310.0	315.0	320.0	325.0	330.0	335.0	340.0	345.0	350.0	355.0	360.0	365.0	370.0	375.0	380.0	385.0	390.0	395.0	400.0	405.0	410.0	415.0	420.0	425.0	430.0	435.0	440.0	445.0	450.0	455.0	460.0	465.0	470.0	475.0	480.0	485.0	490.0	495.0	500.0	505.0	510.0	515.0	520.0	525.0	530.0	535.0	540.0	545.0	550.0	555.0	560.0	565.0	570.0	575.0	580.0	585.0	590.0	595.0	600.0
230.0	23.40	465.5	1675	676.5	38.09	4.536	4.143	3.813	3.237	3.172	3.621	3.561	3.018	2.642	2.271	1.810	1.487	1.439	1.193	1.193	1.077	0.994	0.942	0.931	1.021	0.961	0.890	0.810	0.765	0.683	0.668	0.541	0.540	0.449	0.437	0.406	0.330	0.343	0.275	0.242	0.241	0.263	0.257	0.205	0.188	0.201	0.434	2.607	5.883	5.227	2.231	0.480	0.175	0.169	0.166	0.148	0.157	0.155	0.156	0.137	0.127	0.131	0.142	0.121	0.117	0.121	0.118	0.113	0.111	0.114	0.098	0.100	0.105	0.094	0.099	0.090	0.102
235.0	58.48	133.2	963.5	2188	624.1	65.79	6.685	3.644	4.145	3.493	3.673	4.106	3.431	3.041	2.448	1.820	1.653	1.723	1.300	1.071	1.100	1.082	0.983	0.974	0.806	0.923	0.904	0.817	0.803	0.666	0.666	0.550	0.516	0.419	0.363	0.346	0.345	0.375	0.274	0.251	0.236	0.195	0.251	0.242	0.291	0.236	0.277	0.816	2.101	4.686	7.806	9.422	4.898	0.980	0.215	0.149	0.150	0.149	0.161	0.169	0.111	0.119	0.141	0.104	0.121	0.130	0.108	0.137	0.105	0.095	0.087	0.098	0.101	0.111	0.114	0.089	0.096
240.0	81.50	96.15	279.0	1633	2742	510.9	38.24	4.728	4.728	4.287	3.787	3.698	3.952	2.923	2.735	1.947	1.566	1.477	1.411	1.172	1.110	1.083	0.978	0.931	0.880	0.892	0.977	0.825	0.816	0.691	0.774	0.515	0.537	0.444	0.387	0.431	0.369	0.331	0.257	0.298	0.260	0.239	0.296	0.222	0.397	0.396	0.368	0.405	0.635	1.315	3.577	10.31	14.56	11.57	4.237	0.630	0.151	0.184	0.213	0.154	0.174	0.165	0.105	0.111	0.123	0.142	0.133	0.133	0.098	0.112	0.102	0.089	0.093	0.099	0.126	0.114	0.121
245.0	54.38	141.9	127.7	518.1	2550	3042	382.4	18.57	5.316	5.229	5.610	3.904	3.898	3.447	2.705	2.131	1.660	1.638	1.415	1.089	1.112	0.981	1.045	1.102	0.887	1.027	1.037	0.701	0.773	0.638	0.768	0.504	0.537	0.426	0.427	0.374	0.344	0.354	0.320	0.321	0.267	0.229	0.263	0.216	0.262	0.330	0.557	0.400	0.372	0.467	0.967	3.266	8.909	17.09	19.56	10.64	2.979	0.332	0.211	0.178	0.134	0.136	0.181	0.112	0.148	0.131	0.126	0.155	0.129	0.099	0.102	0.118	0.104	0.115	0.126	0.130	0.095
250.0	28.66	91.82	191.2	207.5	750.6	2453	3551	1375	91.28	7.147	5.965	5.433	4.066	3.711	3.001	2.272	1.917	1.571	1.294	1.256	1.274	1.216	1.069	1.065	1.020	1.029	1.032	0.789	0.781	0.742	0.698	0.699	0.514	0.501	0.446	0.382	0.358	0.323	0.346	0.306	0.275	0.254	0.231	0.283	0.264	0.241	0.331	0.429	0.617	0.597	0.582	0.939	2.223	5.066	10.34	15.63	22.02	19.40	11.39	3.308	0.448	0.227	0.178	0.148	0.142	0.177	0.141	0.162	0.134	0.112	0.114	0.123	0.115	0.129	0.123	0.119	0.113
255.0	20.93	31.34	118.4	280.2	273.5	598.1	2170	5393	1968	109.1	8.969	5.977	5.885	4.212	3.439	2.656	2.236	1.645	1.386	1.239	1.236	1.233	1.278	1.066	1.176	0.889	0.908	0.817	0.891	0.851	0.765	0.707	0.520	0.485	0.469	0.432	0.377	0.351	0.349	0.373	0.356	0.262	0.261	0.244	0.299	0.250	0.237	0.263	0.338	0.542	0.854	1.100	0.942	1.341	2.455	3.788	7.148	16.99	33.89	29.50	18.53	3.969	0.383	0.210	0.182	0.234	0.136	0.154	0.165	0.185	0.149	0.124	0.131	0.125	0.149	0.110	0.136
260.0	26.61	18.89	47.03	211.2	306.1	204.3	601.9	3622	6416	1546	51.59	8.512	6.497	4.971	3.573	3.097	2.046	1.806	1.770	1.283	1.387	1.352	1.273	1.170	1.249	0.948	1.133	0.953	0.896	0.801	0.702	0.649	0.660	0.591	0.525	0.450	0.451	0.350	0.324	0.360	0.328	0.289	0.310	0.245	0.286	0.244	0.237	0.252	0.291	0.298	0.498	1.035	1.429	1.003	0.818	1.080	1.861	4.431	13.10	28.39	45.86	28.62	15.09	1.942	0.217	0.242	0.186	0.155	0.178	0.199	0.176	0.143	0.128	0.143	0.126	0.135	0.127
265.0	24.69	21.24	24.56	90.07	319.2	271.6	179.7	1086	5403	6849	254.4	22.30	7.469	5.911	4.208	3.365	2.472	1.884	1.959	1.401	1.507	1.340	1.259	1.342	1.033	1.042	1.014	0.923	0.984	0.786	0.791	0.658	0.604	0.528	0.480	0.423	0.462	0.378	0.330	0.319	0.350	0.285	0.285	0.226	0.321	0.264	0.230	0.264	0.249	0.230	0.260	0.515	1.271	1.658	1.388	0.720	0.658	1.226	3.201	8.096	21.90	42.71	56.21	26.26	9.817	0.945	0.249	0.234	0.185	0.186	0.134	0.197	0.170	0.137	0.149	0.104	0.151
270.0	39.58	48.10	43.94	52.58	141.2	330.8	300.5	308.3	1558	5150	7383	2680	67.68	9.378	6.030	4.484	3.309	2.658	2.034	1.734	1.702	1.437	1.478	1.462	1.367	1.182	1.108	1.098	1.007	0.975	0.846	0.815	0.693	0.706	0.573	0.533	0.423	0.399	0.365	0.379	0.304	0.308	0.316	0.321	0.378	0.309	0.318	0.347	0.262	0.246	0.281	0.282	0.578	0.839	1.387	1.695	1.769	1.100	1.075	2.142	5.283	11.70	24.81	37.54	50.66	44.70	17.78	8.267	1.264	0.305	0.248	0.223	0.213	0.154	0.169	0.145	0.144
275.0	116.0	157.0	158.7	115.4	96.53	157.7	429.0	385.1	441.3	1269	3989	9999.9	1370	76.55	9.961	6.004	4.159	3.201	2.523	2.116	1.702	1.637	1.441	1.520	1.415	1.346	1.199	1.138	1.058	0.938	0.877	0.847	0.740	0.848	0.604	0.598	0.490	0.484	0.512	0.513	0.352	0.317	0.308	0.410	0.420	0.522	0.506	0.626	0.554	0.445	0.435	0.449	0.454	0.497	0.605	0.834	1.595	2.602	2.355	1.302	1.599	3.066	6.047	8.955	13.98	26.70	56.71	76.54	28.58	11.49	0.926	0.235	0.269	0.273	0.220	0.168	0.149
280.0	223.5	324.1	393.7	307.6	180.4	134.6	274.3	596.7	362.2	449.7	1177	6192	9999.9	1045	41.01	7.983	5.149	3.641	3.149	2.530	2.169	2.032	1.564	1.589	1.547	1.265	1.362	1.341	1.057	0.977	0.977	0.920	0.899	0.754	0.681	0.740	0.647	0.523	0.526	0.590	0.454	0.459	0.383	0.521	0.591	0.786	0.754	1.197	1.158	0.986	0.858	0.936	0.729	0.676	0.667	0.621	0.936	1.729	2.986	2.787	1.949	1.502	2.078	2.719	3.983	7.076	17.65	44.15	73.58	76.48	25.19	6.758	0.480	0.356	0.282	0.235	0.235
285.0	365.7	602.5	725.7	575.7	338.9	206.2	207.5	491.0	713.5	368.5	600.0	1969	8141	8775	702.8	19.28	7.137	5.315	3.664	2.877	2.412	2.190	1.825	1.706	1.588	1.526	1.538	1.325	1.149	1.175	0.937	0.847	0.954	0.794	0.745	0.742	0.703	0.657	0.627	0.615	0.477	0.603	0.603	0.629	0.867	1.120	1.348	1.771	1.803	1.624	1.549	1.549	1.344	0.981	0.741	0.729	0.801	1.165	1.779	2.777	3.550	3.010	2.001	1.859	2.286	3.109	5.356	11.91	26.38	57.80	82.96	34.28	20.15	3.244	0.345	0.343	0.267
290.0	554.8	950.9	1206	985.3	598.6	333.4	272.3	408.1	777.1	1020	923.9	1140	2680	6514	7835	2382	40.18	8.139	4.839	4.023	3.040	2.642	2.280	1.963	1.761	1.652	1.669	1.438	1.225	1.352	1.166	0.933	0.930	0.922	1.149	0.979	1.043	0.817	0.785	0.677	0.626	0.681	0.698	0.820	1.132	1.478	1.878	2.621	2.922	2.730	2.475	2.614	2.092	1.595	1.234	1.133	1.107	1.327	1.477	2.173	2.754	3.907	4.559	4.378	3.733	3.544	4.222	5.330	8.595	16.27	28.85	39.11	61.26	52.36	48.50	14.53	4.119
295.0	781.8	1314	1554	1364	823.5	468.1	396.1	504.2	758.1	1281	1742	1469	1540	1989	3959	9865	3143	46.73	7.874	5.003	4.158	3.008	2.718	2.316	2.106	1.870	1.716	1.622	1.550	1.311	1.242	1.065	0.937	1.104	1.190	1.371	1.203	1.002	0.826	0.778	0.628	0.692	0.879	1.071	1.478	1.899	2.598	3.443	3.778	3.586	3.311	3.603	3.130	2.259	1.694	1.569	1.746	1.728	2.031	2.367	2.549	3.372	4.461	6.180	7.464	6.937	5.843	5.492	6.249	7.273	9.319	11.00	15.90	21.35	52.71	85.57	35.74
300.0	851.3	1463	1791	1511	957.1	570.3	523.1	669.0	952.4	1413	2200	1952	1636	1223	1342	5723	9880	617.1	26.37	7.387	4.572	3.618	3.034	2.724	2.544	1.904	1.979	1.785	1.467	1.490	1.300	1.135	1.036	1.205	1.313	1.521	1.292	1.096	0.994	0.853	0.840	0.812	0.956	1.261	1.569	2.240	2.658	3.746	4.440	4.088	3.773	3.948	3.459	2.611	2.027	1.904	2.072	2.327	2.603	3.246	3.516	4.035	5.038	6.338	7.997	9.864	9.540	8.020	7.685	6.816	6.273	5.717	6.163	6.999	14.75	35.48	66.03
305.0	950.7	1513	1938	1595	1049	692.9	698.1	888.4	1246	1765	2428	2906	2254	1384	960.3	1862	7503	5328	443.8	12.70	6.721	4.950	3.682	3.185	2.724	2.445	2.081	1.971	1.742	1.699	1.409	1.356	1.220	1.212	1.242	1.504	1.432	1.152	1.028	0.945	0.978	0.836	1.123	1.273	1.636	2.191	2.916	4.009	4.518	4.256	4.045	4.176	3.601	3.073	2.447	2.272	2.758	3.035	3.451	4.428	4.591	5.307	6.652	7.646	8.847	10.17	11.16	12.48	11.01	8.794	7.447	6.034	4.985	4.770	5.920	10.40	20.62
310.0	933.0	1531	1886	1596	1085	775.1	825.7	1059	1413	1939	2508	2966	2847	1832	1083	930.6	2339	5126	6028	1722	28.17	6.733	4.990	3.803	3.243	2.635	2.286	2.091	1.889	1.745	1.584	1.500	1.372	1.352	1.367	1.319	1.376	1.289	1.064	0.961	0.983	0.978	1.250	1.367	1.634	2.424	3.031	4.057	4.433	4.238	3.800	4.216	3.685	3.191	2.877	2.803	3.178	3.455	4.030	4.636	5.403	6.113	7.385	8.182	9.282	10.13	11.01	12.22	12.46	11.93	9.895	7.892	6.237	5.317	4.741	5.103	7.025
315.0	994.5	1569	1885	1554	1100	875.8	925.1	1169	1519	2044	2567	2920	2857	2350	1412	878.2	1021	1436	3300	8048	2361	32.06	7.294	5.144	3.707	2.933	2.775	2.530	2.353	2.009	1.593	1.575	1.351	1.298	1.471	1.359	1.324	1.283	1.245	1.115	0.957	1.218	1.183	1.397	1.918	2.437	3.203	3.884	4.661	4.120	3.846	4.143	3.701	3.111	3.083	2.888	3.417	3.738	4.301	4.729	5.586	6.550	7.540	8.592	9.534	10.48	11.17	11.61	11.80	11.30	11.82	10.57	8.657	6.787	5.383	4.859	4.602
320.0	1037	1817	2023	1637	1138	916.8	999.2	1256	1580	2102	2623	2946	2840	2453	1825	1005	809.6	647.2	925.3	4716	7672	468.3	19.68	6.591	4.659	3.683	3.252	2.547	2.476	2.195	1.686	1.652	1.427	1.471	1.336	1.332	1.281	1.106	1.076	1.052	1.079	1.094	1.372	1.473	2.081	2.722	3.616	4.627	5.008	4.443	4.083	4.151	3.731	3.479	3.234	3.250	3.618	3.987	4.600	5.357	5.903	6.743	7.742	8.754	9.186	10.98	11.57	11.45	11.93	11.64	11.26	10.36	10.54	9.047	6.532	5.266	4.793
325.0	1193	2075	2469	1954	1289	991.1	1054	1299	1621	2110	2632	2962	2872	2396	2005	1295	831.9	517.1	376.1	1331	5804	6326	361.8	11.99	6.157	4.619	3.820	3.062	2.616	2.327	1.819	1.863	1.548	1.382	1.404	1.448	1.321	1.211	1.086	1.025	1.054	1.251	1.232	1.544	2.225	3.048	4.205	5.584	6.070	5.401	4.667	4.880	4.240	3.597	3.457	3.570	3.800	4.369	4.723	5.397	6.152	6.622	7.936	8.833	9.500	10.43	11.36	11.31	11.90	11.96	10.95	10.44	10.24	10.26	8.560	6.790	5.582
330.0	1292	2328	3004	2526	1688	1194	1140	1336	1652	2088	2607	2920	2868	2426	1952	1527	1053	590.8	342.6	469.0	1637	4517	4922	1440	24.97	6.811	4.772	3.605	3.164	2.661	2.410	1.971	1.701	1.517	1.525	1.403	1.269	1.174	1.084	1.059	1.077	1.256	1.385	1.767	2.328	3.322	4.488	6.319	6.951	6.688	6.203	6.367	5.710	4.620	4.450	4.015	4.236	4.644	4.850	5.597	6.040	6.974	7.979	8.810	9.791	10.75	11.09	11.70	12.01	11.61	11.32	10.34	9.924	9.298	8.786	8.205	7.449
335.0	1389	2529	3263	2944	2165	1456	1265	1407	1661	2074	2524	2845	2820	2464	1960	1504	1290	775.3	445.7	377.5	568.8	1177	2932	7077	2052	29.96	6.511	4.721	3.766	3.300	2.867	2.172	2.025	1.721	1.662	1.346	1.328	1.245	1.169	1.161	1.113	1.204	1.561	1.812	2.455	3.523	4.729	6.764	7.784	7.350	7.112	7.814	7.255	5.972	5.467	4.463	4.897	4.833	5.238	5.683	6.179	7.248	7.716	8.702	9.311	10.18	11.34	11.35	11.86	11.88	11.13	10.88	10.06	9.654	8.682	7.778	7.668
340.0	1376	2535	3339	3175	2320	1564	1323	1413	1648	2033	2426	2747	2728	2438	1964	1496	1250	1001	573.4	414.4	380.7	455.9	875.0	4440	6727	395.4	18.97	6.015	4.499	3.664	3.047	2.396	2.069	1.822	1.632	1.653	1.486	1.186	1.216	1.094	1.116	1.315	1.460	1.716	2.722	3.645	4.779	6.696	8.132	7.601	7.443	8.332	7.402	6.371	5.578	4.602	4.895	4.808	5.186	5.579	6.085	6.740	7.731	8.214	8.918	9.965	10.22	10.95	10.98	11.27	11.52	10.43	10.08	9.892	8.545	7.821	7.233
345.0	1357	2443	3289	3199	2370	1624	1344	1423	1621	1972	2322	2595	2594	2351	1926	1501	1194	1024	758.4	491.8	387.3	343.4	379.4	1311	5416	5533	318.6	9.527	5.469	4.245	3.256	2.530	2.130	1.860	1.771	1.503	1.352	1.308	1.181	1.174	1.175	1.309	1.496	1.736	2.400	3.436	4.538	6.629	7.711	7.817	7.518	8.765	7.563	6.832	5.888	4.774	5.088	4.675	5.132	5.489	6.041	6.460	7.465	8.319	8.676	9.857	9.988	10.83	10.63	10.58	10.37	10.27	9.863	9.326	8.580	7.782	7.603
350.0	1218	2181	3059	3055	2381	1726	1377	1446	1600	1892	2183	2398	2410	2217	1883	1506	1203	984.1	881.5	693.9	492.0	394.0	334.6	470.5	1570	4141	4261	1251	22.09	5.708	3.920	2.994	2.316	1.952	1.782	1.596	1.351	1.266	1.239	1.200	1.116	1.181	1.457	1.546	2.220	3.193	4.290	5.999	7.061	7.293	7.308	8.439	7.696	6.985	6.037	5.235	5.167	5.097	5.430	5.608	6.061	6.519	7.374	7.983	8.292	8.789	9.254	9.480	9.868	9.792	9.800	9.865	9.218	8.919	8.199	7.903	7.555
355.0	1077	1952	2724	2855	2315	1780	1442	1454	1582	1808	2052	2211	2232	2087	1820	1501	1246	1022	886.4	854.3	688.9	501.7	402.1	348.3	510.4	1047	2655	5998	1793	26.84	5.851	4.031	2.997	2.111	1.881	1.667	1.352	1.199	1.278	1.102	1.044	1.176	1.355	1.555	2.173	2.780	3.671	5.271	6.305	6.574	6.633	7.729	7.494	6.981	5.871	5.318	5.414	5.091	5.456	5.434	5.985	6.584	6.944	7.555	7.858	8.232	8.317	8.850	9.201	9.424	9.355	9.433	9.096	8.872	8.490	7.949	7.585
360.0	956.6	1808	2495	2654	2210	1762	1495	1472	1575	1770	1958	2094	2114	1996	1762	1498	1272	1079	933.1	878.8	847.8	626.8	478.6	375.0	324.4	373.0	750.9	3954	5950	370.1	17.83	4.883	3.725	2.459	2.142	1.729	1.469	1.411	1.193	1.045	0.972	1.037	1.237	1.490	1.901	2.563	3.425	4.880	5.705	6.046	6.483	7.543	6.994	6.865	5.850	5.525	5.313	5.235	5.410	5.939	5.950	6.647	6.749	7.197	7.615	8.023	8.304	8.613	8.669	9.127	8.706	8.841	8.402	8.282	8.051	7.592	7.293
365.0	895.2	1646	2340	2523	2189	1749	1505	1474	1594	1747	1896	2017	2008	1911	1717	1485	1300	1137	1004	917.3	906.8	799.7	581.6	442.5	342.5	269.7	286.1	1157	5043	5105	299.8	8.911	4.441	2.984	2.399	1.909	1.724	1.486	1.276	1.219	1.116	1.199	1.165	1.374	1.845	2.385	3.194	4.385	5.616	5.708	5.777	7.504	7.105	6.454	6.011	5.495	5.687	5.423	5.634	5.782	6.081	6.323	6.534	7.019	7.452	7.392	8.045	8.102	8.286	8.148	8.435	8.262	8.236	8.341	8.188	7.443	7.629
370.0	801.7	1481	2132	2375	2105	1762	1544	1525	1612	1736	1839	1906	1906	1819	1668	1485	1340	1213	1107	1015	954.5	919.8	785.3	576.5	438.6	328.9	251.0	385.7	1462	3990	4107	1165	20.77	5.257	3.288	2.442	1.787	1.660	1.432	1.206	1.088	1.152	1.246	1.340	1.789	2.308	2.965	3.979	4.979	5.249	5.406	6.995	6.869	6.386	6.179	5.574	5.743	5.753	5.702	5.886	6.110	6.605	6.668	6.964	7.108	7.145	7.411	7.565	7.967	7.790	7.963	7.957	8.009	8.051	7.832	7.663	7.587
375.0	798.9	1375	1975	2197	2026	1787	1576	1560	1606	1694	1781	1811	1814	1728	1608	1471	1354	1261	1189	1116	1043	966.1	931.8	783.0	571.3	440.7	330.3	288.5	468.2	1011	2596	5591	1661	25.38	5.528	3.574	2.471	1.945	1.764	1.353	1.262	1.306	1.299	1.475	1.737	2.225	2.687	3.702	4.380	4.711	5.144	6.674	6.548	6.367	6.110	5.444	5.719	5.860	5.934	6.064	6.240	6.230	6.433	7.164	7.191	7.277	6.515	7.445	7.573	7.320	7.765	8.085	7.610	7.701	7.755	7.434	7.648
380.0	755.6	1258	1820	2063	1967	1767	1570	1564	1600	1664	1727	1758	1739	1676	1565	1451	1366	1285	1235	1173	1106	1028	972.1	912.5	717.3	538.9	421.7	335.2	298.9	363.9	749.2	3666	5262	316.1	16.80	5.229	3.358	2.560	1.798	1.518	1.392	1.327	1.289	1.457	1.503	2.249	2.430	3.669	4.113	4.723	4.855	6.190	6.392	6.303	5.989	5.414	5.709	6.056	5.837	5.915	6.055	6.172	6.342	6.848	6.621	6.983	6.652	7.129	7.175	7.495	7.364	7.509	7.696	7.481	7.634	7.251	7.579
385.0	728.5	1188	1699	1952	1936	1767	1605	1564	1599	1654	1697	1726	1713	1659	1546	1444	1363	1308	1265	1220	1161	1098	1018	970.2	867.6	660.9	521.3	417.3	331.6	274.4	305.4	1088	4285	4195	250.8	10.78	5.331	3.520	2.022	1.609	1.372	1.443	1.289	1.614	1.824	2.173	2.544	3.468	4.100	4.424	4.576	5.817	6.083	6.171	6.151	5.575	5.947	6.003	6.004	6.054	5.920	6.284	6.583	6.893	6.493	6.572	6.724	6.883	7.027	7.122	7.432	7.409	7.357	7.547	7.200	7.252	7.628
390.0	710.1	1148	1627	1896	1923	1783	1646	1629	1650	1716	1762	1764	1768	1713	1606	1482	1386	1336	1306	1286	1251	1207	1147	1077	1025	900.7	727.3	593.3	482.3	377.7	305.2	404.6	1251	3147	3223	954.6	21.45	8.632	4.144	2.553	1.716	1.489	1.525	1.531	1.779	2.022	2.643	3.328	3.852	4.323	4.569	5.916	6.235	6.113	5.966	5.840	6.227	6.231	6.406	6.264	6.561	6.393	6.819	7.055	6.671	6.748	6.797	6.856	6.885	7.191	7.408	7.409	7.741	7.531	7.458	7.626	7.745
395.0	677.9	1109	1596	1873	1929	1838	1761	1771	1821	1912	2039	2013	2078	2009	1851	1640	1475	1395	1369	1375	1369	1366	1349	1310	1256	1196	1087	893.0	755.9	617.9	483.7	389.6	482.3	858.3	1979	4307	1472	30.39	10.53	4.423	2.422	1.868	1.722	1.654	1.965	2.239	2.532	3.291	3.976	4.460	4.463	5.945	6.370	6.384	6.565	6.031	6.873	6.906	7.016	7.115	6.868	7.149	7.403	7.371	7.245	7.366	7.680	7.598	7.698	8.029	7.726	8.059	8.224	8.230	8.318	8.059	8.291
400.0	683.0	1136	1569	1881	1979	1945	1885	1909	2012	2221	2457	2582	2606	2480	2239	1902	1623	1475	1448	1479	1504	1554	1581	1584	1559	1502	1445	1269	1066	898.8	719.1	544.2	417.4	427.1	667.9	2743	4193	282.7	25.68	8.032	3.553	2.286	2.065	1.744	2.154	2.508	2.591	3.352	4.099	4.476	4.717	6.351	6.753	6.852	6.895	7.128	7.390	7.601	7.640	7.658	7.779	7.868	8.423	8.534	8.661	8.834	9.105	8.972	8.530	8.859	9.105	8.716	8.730	9.379	8.770	8.103	8.240
405.0	698.1	1106	1544	1889	2001	2041	2062	2129	2295	2618	3023	3274	3272	3086	2731	2262	1829	1595	1542	1588	1656	1759	1847	1920	1913	1857	1803	1683	1445	1222	996.2	767.7	566.5	410.8	422.9	940.3	3240	3498	242.2	16.28	5.475	3.050	2.322	2.134	2.210	2.437	2.773	3.470	4.344	4.553	5.096	6.442	7.418	7.465	7.532	7.769	8.438	8.535	8.655	8.814	8.857	9.171	9.714	10.26	10.22	10.16	10.11	10.21	10.29	10.26	10.57	10.08	9.847	10.02	9.538	8.649	8.790
410.0	677.4	1088	1541	1875	2036	2112	2194	2337	2622	3102	3643	3973	3991	3749	3263	2627	2025	1693	1622	1678	1794	1949	2095	2221	2265	2245	2169	2050	1854	1580	1298	1021	762.7	571.6	481.9	524.9	1068	2498	2662	904.3	19.19	4.586	3.201	2.739	2.374	2.731	3.087	3.788	4.678	4.612	5.488	7.142	7.887	8.150	8.305	8.564	9.328	9.355	9.911	10.03	10.50	10.81	11.21	11.84	11.86	12.04	11.86	11.79	11.93	12.00	11.91	11.37	11.19	11.00	10.37	9.795	9.231
415.0	658.3	1053	1508	1814	2035	2137	2199	2391	2677	3169	3738	4097	4074	3842	3356	2668	2033	1671	1594	1654	1790	1950	2130	2273	2339	2343	2256	2131	1971	1736	1426	1123	849.4	644.6	529.4	453.1	486.0	713.5	1461	3369	1316	22.84	4.025	2.985	2.789	2.919	3.202	3.779	4.551	4.675	5.309	6.811	8.134	7.940	8.766	8.517	9.666	10.10	9.873	9.955	10.58	10.72	11.54	11.45	12.05	11.90	12.01	12.23	11.93	12.27	11.76	11.35	10.90	11.01	10.22	9.668	9.359
420.0	644.3	1002	1415	1721	1940	2103	2188	2342	2602	3031	3597	3895	3902	3657	3201	2547	1930	1599	1527	1583	1710	1880	2044	2198	2269	2266	2208	2079	1912	1722	1444	1126	859.4	658.5	533.1	430.2	350.0	303.9	425.3	1940	3292	262.0	15.19	3.847	3.112	3.118	3.089	3.781	4.072	4.614	5.060	6.828	7.854	7.754	8.428	8.351	9.503	9.500	9.988	10.10	10.51	10.59	11.00	11.35	11.50	11.45	11.75	11.81	11.78	11.77	11.64	11.03	10.46	10.49	9.820	9.079	9.216
425.0	630.2	976.9	1368	1704	1927	2074	2174	2321	2558	2987	3437	3750	3763	3534	3074	2447	1856	1531	1465	1518	1644	1807	1978	2123	2206	2206	2159	2027	1864	1685	1463	1148	871.9	671.9	541.6	432.5	326.3	216.9	172.5	537.4	2270	2138	224.6	8.664	4.068	3.255	3.249	3.933	4.251	4.644	4.772	6.740	7.445	7.471	8.435	8.493	9.315	9.573	9.531	9.810	9.997	10.46	10.68	10.86	11.54	11.34	11.29	11.35	11.58	11.05	11.12	10.86	10.45	9.609	9.427	8.774	9.167
430.0	680.5	937.3	1353	1701	1929	2103	2239	2402	2607	3018	3509	3827	3810	3566	3087	2448	1846	1512	1439	1489	1607	1770	1954	2110	2209	2228	2181	2068	1907	1709	1494	1225	940.2	723.9	591.0	477.3	359.7	225.8	134.7	170.1	603.4	1611	2223	850.5	17.05	4.349	3.507	4.214	4.444	4.655	4.864	6.877	7.548	7.895	8.436	8.734	9.596	9.627	10.12	10.14	10.50	10.67	10.65	11.28	11.41	11.13	11.26	11.53	11.71	11.42	11.03	10.76	10.60	10.19	9.413	8.603	8.837
435.0	819.7	913.7	1364	1690	1951	2160	2303	2473	2696	3060	3548	3856	3854	3604	3126	2465	1849	1498	1417	1458	1567	1728	1910	2090	2195	2224	2191	2085	1939	1745	1514	1264	1016	790.6	641.1	527.6	400.2	254.5	144.8	102.5	172.3	387.9	1048	2900	1356	23.18	4.606	4.565	4.626	4.827	4.923	6.553	7.926	8.260	8.473	9.354	10.24	10.49	10.83	10.51	10.60	11.05	10.93	11.64	11.52	11.29	11.54	11.16	11.58	11.36	10.88	11.02	10.61	10.18	9.370	8.498	8.522
440.0	879.6	957.3	1314	1637	1917	2171	2356	2503	2658	2999	3423	3725	3711	3471	2998	2377	1792	1457	1377	1402	1494	1649	1826	1998	2103	2141	2108	2026	1881	1703	1481	1240	1015	814.7	655.8	541.1	415.2	270.1	156.8	94.99	83.63	115.4	269.2	1547	3149	1031	16.42	5.117	4.777	4.847	5.026	6.740	7.471	8.225	8.492	9.164	10.40	10.46	10.68	10.29	10.39	10.78	11.01	11.44	11.34	10.94	11.21	10.45	11.26	10.66	10.71	10.71	10.55	9.703	8.867	8.592	8.161
445.0	883.3	1111	1228	1592	1909	2161	2349	2463	2570	2806	3185	3439	3422	3186	2783	2211	1677	1373	1299	1320	1399	1520	1682	1837	1938	1982	1955	1882	1752	1602	1399	1172	962.7	797.5	650.6	530.1	410.4	273.8	166.2	100.2	69.18	59.11	82.75	404.8	2000	2982	204.6	12.51	5.116	4.810	5.318	6.720	7.301	7.959	8.779	8.815	10.02	9.942	10.51	10.59	10.22	10.48	10.14	10.62	10.88	10.76	10.44	10.30	10.30	10.13	9.738	10.07	9.919	9.176	8.917	8.047	8.046
450.0	672.3	1328	1281	1503	1812	2085	2279	2366	2377	2508	2782	2971	2944	2751	2407	1945	1500	1243	1176	1185	1230	1327	1463	1598	1681	1717	1708	1648	1546	1420	1248	1056	867.5	729.3	619.0	504.5	388.3	266.7	170.9	109.0	74.39	53.95	47.02	111.0	509.5	1638	1995	897.8	16.22	5.461	5.101	6.491	7.111	7.470	8.349	8.132	9.470	9.580	9.682	9.682	9.586	9.486	9.210	9.600	9.543	9.463	8.877	9.136	9.350	8.850	8.631	8.764	8.224	7.950	7.923	7.514	6.955
455.0	478.7	1284	1699	1416	1700	1943	2145	2236	2174	2229	2419	2563	2530	2373	2081	1691	1326	1115	1054	1049	1079	1151	1263	1377	1446	1485	1480	1433	1354	1247	1114	946.4	786.3	656.4	565.9	487.2	373.3	257.9	173.7	118.5	82.88	59.65	44.18	49.67	131.9	381.1	831.0	2535	1239	20.30	5.553	6.328	6.688	7.096	7.663	7.679	8.571	9.130	9.465	9.313	8.987	8.498	8.600	8.025	8.015	8.097	7.912	8.035	7.875	7.771	7.653	7.830	7.342	7.084	6.693	6.591	6.183
460.0	413.5	1009	2054	1535	1625	1849	2063	2123	2045	2074	2217	2330	2308	2132	1878	1536	1216	1029	966.2	963.2	975.8	1036	1134	1238	1301	1337	1335	1294	1230	1142	1029	876.1	732.7	610.3	524.3	463.8	370.6	257.4	176.4	123.6	88.33	64.91	47.92	39.55	50.48	101.4	205.2	1184	2632	932.6	15.85	6.574	6.735	6.874	7.328	7.310	8.033	8.830	8.506	8.478	8.737	8.003	7.939	7.628	7.111	7.673	7.267	7.302	7.417	7.075	6.894	6.904	6.863	6.681	6.253	6.027	5.828
465.0	400.8	744.4	2023	1924	1538	1780	1951	1994	1914	1928	2046	2140	2103	1959	1728	1413	1120	949.5	892.5	884.6	885.8	941.7	1030	1117	1183	1212	1213	1184	1123	1050	947.9	811.2	681.4	575.9	489.0	433.6	357.7	259.8	178.4	124.3	91.79	69.12	52.02	40.08	35.11	40.42	60.17	297.3	1534	2408	172.6	14.71	6.745	6.816	7.303	7.094	7.855	8.243	8.257	8.290	8.179	7.137	7.441	7.264	6.905	6.826	6.828	6.715	6.487	6.610	6.580	6.417	6.552	6.176	5.810	5.633	5.671
470.0	362.7	613.9	1403	2445	1673	1602	1759	1802	1712	1695	1783	1858	1810	1702	1495	1230	980.1	835.7	784.4	771.2	770.1	808.4	878.4	958.6	1017	1039	1041	1017	973.8	910.6	826.1	718.1	610.3	518.5	442.1	386.1	323.5	251.5	178.9	126.4	94.19	72.56	55.73	42.95	34.84	29.90	30.60	79.79	382.4	1198	1698	840.2	18.66	7.055	6.915	6.705	7.287	7.419	7.566	7.517	7.184	6.759	6.582	6.399	6.133	6.104	5.904	6.087	5.702	6.097	5.807	5.852	5.440	5.477	5.290	4.997	4.772
475.0	348.7	540.3	875.3	2088	2369	1458	1571	1589	1500	1449	1492	1560	1532	1406	1244	1032	842.6	720.8	671.7	656.9	651.0	676.8	729.1	791.8	838.5	860.3	860.7	844.7	816.3	766.9	700.4	611.3	524.0	452.0	389.8	338.7	281.5	227.9	176.3	129.5	94.94	75.24	58.82	46.19	37.69	31.06	26.10	33.70	97.49	277.0	557.4	1669	1181	24.87	6.958	6.382	7.089	6.666	6.732	6.312	6.284	5.730	5.500	5.462	5.215	5.121	5.035	4.905	4.994	4.905	4.857	4.666	4.789	4.820	4.299	4.458	4.122
480.0	318.0	501.1	731.6	1424	2870	1604	1408	1438	1345	1271	1313	1357	1320	1222	1083	905.5	743.9	641.2	599.2	582.4	572.0	590.6	634.6	687.1	722.0	741.6	746.5	731.8	707.4	671.9	616.4	544.0	467.6	406.0	351.9	306.3	255.7	205.1	164.9	132.0	97.49	75.00	60.18	48.14	40.40	32.36	26.94	24.33	35.90	72.53	135.3	656.1	1995	1009	21.09	6.435	6.702	6.314	6.451	5.852	5.726	5.394	5.056	4.864	4.741	4.868	4.560	4.659	4.501	4.500	4.327	4.196	4.450	4.443	3.970	4.028	3.872
485.0	289.3	482.6	653.0	971.8	2632	2157	1318	1325	1208	1151	1172	1201	1167	1082	950.7	799.5	673.8	580.0	541.1	523.8	510.4	529.5	562.6	606.3	637.7	654.6	652.8	645.0	629.8	595.1	553.9	485.8	426.0	369.6	321.9	281.6	236.8	192.7	153.3	130.2	102.1	75.81	60.60	51.08	42.57	33.79	29.43	23.93	22.81	28.27	40.56	162.1	1003	2015	217.9	15.54	6.629	6.104	6.115	5.544	5.243	4.832	4.800	4.628	4.219	4.433	4.235	4.002	3.866	3.972	4.112	3.685	4.083	3.815	3.629	3.586	3.684
490.0	244.0	443.0	603.3	768.1	1627	2772	1492	1171	1081	1020	1021	1039	1005	926.4	817.4	693.6	585.8	511.0	479.1	459.1	445.0	454.5	486.6	516.8	545.3	559.1	561.5	556.6	542.2	515.3	481.9	429.5	375.4	328.1	289.1	252.8	215.2	173.8	141.2	120.0	102.5	81.31	62.26	52.66	44.26	36.79	31.61	25.83	22.04	20.20	20.42	46.14	244.6	865.1	1481	881.1	84.91	6.656	5.713	5.100	4.878	4.446	4.198	4.018	3.759	3.835	3.774	3.730	3.488	3.475	3.521	3.355	3.411	3.484	3.113	3.241	3.045
495.0	222.9	379.2	569.9	642.9	959.1	2283	2314	1049	942.6	878.5	885.4	896.6	859.4	791.2	693.6	592.9	504.3	441.2	416.9	397.2	382.6	387.6	414.5	439.2	464.0	471.6	474.9	472.5	457.5	443.2	413.9	372.5	326.2	289.4	255.0	224.7	191.8	157.9	129.8	108.0	95.21	83.52	65.65	53.19	45.74	37.97	32.74	28.44	23.32	20.17	17.68	21.48	63.75	201.3	497.1	1635	1372	28.30	5.761	4.996	4.457	4.199	3.829	3.754	3.548	3.284	3.213	3.109	2.930	3.041	3.107	3.069	3.018	2.755	2.799	2.822	2.634
500.0	200.7	313.6	529.5	599.7	730.4	1481	2838	1177	846.2	788.8	784.6	791.8	763.0	692.4	610.2	524.3	445.6	392.0	371.7	352.6	339.1	341.2	362.4	386.9	407.9	412.2	414.8	414.5	402.7	390.5	365.5	329.8	288.5	260.9	231.6	204.7	176.2	146.3	120.4	99.96	86.52	79.30	69.26	53.70	45.64	38.91	33.60	29.69	24.71	21.00	17.61	16.73	24.35	53.63	120.7	627.5	1987	1029	22.70	4.802	4.184	3.783	3.394	3.424	3.480	3.146	3.022	3.018	2.908	2.779	2.817	2.773	2.695	2.564	2.565	2.479	2.388
505.0	167.5	280.7	471.6	577.1	663.4	928.6	2595	1729	751.1	698.9	704.0	704.0	676.3	610.9	546.5	464.9	397.7	349.5	332.2	309.8	299.7	300.5	320.7	342.6	357.3	363.0	363.6	363.1	356.6	341.4	323.1	294.7	260.1	232.4	207.8	183.4	159.8	135.9	111.1	92.52	80.40	73.13	68.64	56.78	45.12	38.76	34.11	29.55	24.78	21.68	18.43	16.17	16.00	21.24	34.98	153.3	918.7	1950	238.0	15.90	4.259	3.548	3.283	3.005	3.149	2.726	2.568	2.644	2.750	2.828	2.648	2.534	2.219	2.248	2.247	2.198	2.077
510.0	138.7	231.8	379.3	533.5	552.2	664.4	1526	2527	927.9	598.2	595.9	595.5	572.3	516.3	459.1	393.4	339.1	296.9	279.3	264.7	253.7	256.2	270.4	286.0	296.7	302.6	304.5	301.9	298.5	287.2	272.1	249.3	221.4	198.7	178.7	159.8	139.7	119.2	99.87	83.80	72.39	64.28	60.55	56.98	46.47	39.06	33.26	29.18	24.77	21.77	18.90	17.01	14.61	14.69	16.52	41.95	221.8	802.1	1306	792.1	19.70	4.182	2.961	2.770	2.670	2.480	2.401	2.317	2.316	2.227	2.266	2.144	2.144	2.088	1.961	1.840	1.838
515.0	127.4	202.8	305.1	445.2	504.9	535.7	774.9	2145	1818	538.0	497.3	501.8	473.3	424.2	380.4	325.8	278.9	251.4	236.1	222.4	214.7	210.9	221.8	231.9	240.4	246.8	248.1	243.9	242.4	236.5	222.4	206.7	186.2	166.6	150.3	136.4	119.9	102.6	87.73	75.43	65.49	57.61	51.53	50.38	48.01	39.49	32.70	28.46	24.68	21.20	19.29	17.40	14.45	13.07	12.65	17.53	56.17	185.1	394.9	1273	1089	27.85	3.613	2.523	2.418	2.211	2.182	1.940	1.948	1.880	1.900	1.670	1.734	1.782	1.624	1.671	1.718
520.0	103.5	176.4	262.3	359.9	475.0	467.4	545.9	1269	2584	679.8	434.5	429.2	407.2	367.9	328.0	281.6	242.4	218.0	205.7	193.6	184.4	180.2	190.4	200.1	205.1	211.9	211.8	211.0	208.5	205.0	193.1	177.8	161.3	145.3	133.5	121.1	105.0	90.48	79.26	68.89	60.91	52.32	47.16	44.65	45.28	40.46	31.98	27.75	23.89	21.00	18.83	17.01	14.73	12.81	11.76	11.70	19.58	47.42	94.31	465.2	1467	827.5	21.91	2.753	2.034	2.150	1.994	1.792	1.780	1.750	1.679	1.575	1.513	1.482	1.537	1.401	1.641
525.0	96.62	158.0	229.4	310.4	439.1	424.6	444.7	707.9	2498	1269	389.6	381.0	358.5	324.3	281.2	249.1	210.7	192.2	179.9	171.0	161.9	158.8	167.0	176.7	179.5	185.8	185.4	182.8	182.0	178.4	170.2	157.0	142.5	127.1	117.8	107.6	94.47	82.94	71.39	62.31	55.60	49.40	44.01	40.74	40.20	39.70	33.01	26.91	23.25	20.30	18.18	16.30	14.06	12.57	11.23	10.40	11.23	16.26	26.48	111.5	636.1	1438	240.1	14.24	2.277	2.111	1.732	1.739	1.611	1.475	1.436	1.428	1.481	1.354	1.331	1.259	1.392
530.0	86.41	138.3	196.0	265.3	363.8	397.9	374.0	439.2	1342	2311	574.4	326.2	301.5	274.3	238.2	206.1	180.8	161.6	152.0	144.3	135.7	133.3	138.6	148.8	149.2	153.0	153.9	150.8	151.2	148.5	143.2	132.2	120.5	108.3	99.22	91.80	81.67	71.00	62.80	54.69	49.95	44.46	40.05	36.57	34.93	34.33	32.56	27.24	21.70	19.09	17.11	15.32	13.38	12.19	10.90	9.837	9.004	9.274	10.67	29.17	150.7	562.9	959.5	616.7	18.91	2.582	1.664	1.515	1.452	1.415	1.299	1.355	1.289	1.173	1.226	1.115	1.126
535.0	70.87	127.8	170.9	212.9	277.7	368.5	327.0	316.4	544.5	2038	1505	288.0	252.5	224.9	197.7	166.5	148.1	133.6	127.1	119.2	111.4	111.0	113.7	118.0	122.9	125.5	125.8	123.6	122.6	121.7	116.2	108.3	99.81	89.05	83.37	76.94	69.44	60.43	53.33	47.13	42.78	38.33	34.77	32.75	29.60	28.55	28.88	26.36	21.09	17.34	15.81	14.07	12.17	11.37	10.43	9.506	7.896	7.440	7.054	10.29	36.67	128.3	280.2	921.5	816.8	27.39	2.175	1.544	1.343	1.290	1.144	1.060	1.080	0.958	0.986	1.008	0.996
540.0	66.04	103.4	149.2	199.9	223.4	315.6	299.5	274.0	319.0	1101	2348	376.9	218.5	192.5	172.3	145.4	125.3	117.8	109.7	102.5	96.64	94.18	95.94	101.3	105.4	105.4	107.5	106.0	103.7	103.0	100.6	93.13	86.05	76.90	71.22	65.51	60.23	52.88	47.51	42.07	38.46	34.92	31.03	28.76	27.08	24.63	24.28	24.77	21.32	16.65	14.79	13.22	11.45	10.60	9.869	8.729	7.644	6.518	5.929	5.891	11.42	31.33	65.74	326.1	1056	615.8	20.91	1.605	1.334	1.165	1.173	0.984	1.041	0.960	0.867	0.993	0.833
545.0	61.99	89.80	138.2	165.6	189.4	257.2	300.1	237.7	238.9	483.1	2366	868.2	190.7	166.7	148.5	125.9	110.7	101.4	94.22	87.58	83.27	83.40	83.30	87.08	88.83	90.45	92.65	92.01	89.24	88.85	85.89	80.00	75.31	67.08	61.59	57.18	52.27	46.67	41.37	37.77	34.12	31.38	28.22	25.98	23.94	22.64	21.41	21.04	20.54	16.52	13.69	12.38	10.99	9.899	8.787	7.989	7.461	6.089	5.429	4.691	5.516	9.551	16.89	76.95	438.8	1020	235.6	13.45	1.534	1.263	1.130	1.047	0.939	0.866	0.755	0.782	0.731
550.0	61.11	86.29	121.2	133.5	150.3	189.2	266.9	220.0	189.2	243.2	1175	1886	290.5	136.9	118.4	103.6	92.51	83.62	76.66	71.42	67.47	66.89	68.60	69.87	72.41	72.83	72.59	73.13	72.61	71.34	69.34	64.45	60.65	54.96	51.22	46.50	42.62	38.63	34.21	31.01	28.63	25.98	23.72	21.95	20.56	19.16	17.73	17.04	17.59	15.59	12.93	10.88	9.378	8.448	7.949	6.992	6.641	5.905	5.047	4.005	3.787	4.322	5.894	19.05	102.5	380.0	663.1	455.3	18.61	1.880	0.983	0.921	0.804	0.817	0.678	0.668	0.691
555.0	61.31	96.64	118.3	121.5	123.1	148.3	197.7	217.2	156.3	166.8	392.8	1793	972.6	116.7	96.20	82.64	74.21	65.10	61.37	56.93	52.86	52.80	54.53	55.85	56.57	57.52	55.94	56.80	57.70	55.31	55.02	50.98	47.34	44.37	40.13	36.60	33.82	30.69	28.81	25.16	23.38	21.22	19.67	18.72	17.43	16.32	14.75	13.85	13.34	13.18	12.14	9.665	8.340	7.144	6.682	6.305	5.589	5.265	4.704	3.812	3.036	3.174	3.171	5.899	24.27	86.00	186.3	589.9	573.3	27.07	1.285	0.845	0.723	0.650	0.594	0.748	0.624
560.0	57.24	97.28	114.2	116.8	120.1	116.0	151.3	203.4	146.4	135.0	188.0	951.3	1775	153.0	82.81	68.44	60.83	54.88	49.97	48.38	44.53	44.90	44.55	46.27	46.78	47.03	46.64	47.08	46.26	45.91	45.92	41.84	39.26	35.98	33.38	31.31	28.84	25.87	24.00	21.12	20.07	17.66	16.77	16.05	14.96	14.10	12.46	11.60	10.67	10.88	10.64	9.403	7.499	6.387	5.862	5.338	5.167	4.632	4.358	3.918	2.784	2.606	2.419	2.741	6.870	20.50	42.89	199.8	668.2	257.4	20.01	0.916	0.823	0.643	0.538	0.556	0.486
565.0	63.41	95.10	122.7	118.4	103.9	104.2	120.7	182.7	154.4	120.6	134.5	378.2	1960	475.7	72.51	56.92	52.01	46.49	42.47	40.42	37.66	37.30	38.01	37.77	39.71	39.72	39.52	39.09	38.84	38.81	38.45	34.87	33.03	29.99	27.85	26.04	24.05	21.47	20.29	17.99	16.71	15.02	14.49	13.38	12.85	12.16	10.89	10.23	9.169	9.016	9.138	9.278	6.842	5.640	5.105	4.781	4.551	4.042	3.431	3.719	2.912	2.348	1.941	1.900	2.876	5.817	10.85	46.61	260.3	605.4	227.8	11.96	0.762	0.613	0.645	0.467	0.494
570.0	66.78	102.5	126.6	122.5	98.91	92.16	93.74	131.7	165.6	116.3	116.9	171.4	1034	1325	102.5	47.01	40.96	36.79	34.07	32.55	30.20	29.76	29.71	30.32	30.90	30.89	31.10	31.21	30.62	30.84	29.89	27.67	26.01	23.53	22.74	20.91	19.03	17.71	15.95	14.52	13.84	12.46	12.04	11.09	10.38	9.905	8.888	8.387	7.863	7.267	7.009	7.547	6.413	5.164	4.264	4.072	3.930	3.232	3.047	2.878	2.773	2.245	1.935	1.656	1.864	2.501	3.668	11.46	60.72	223.3	424.2	308.0	17.74	1.223	0.591	0.467	0.416
575.0	66.19	124.8	132.9	126.0	96.31	79.94	77.95	94.26	157.1	134.9	115.3	126.2	328.8	1411	573.9	38.87	32.74	30.60	25.81	24.48	23.59	23.23	23.28	23.68	23.87	23.97	24.05	24.09	23.20	23.98	23.56	21.44	20.54	18.76	17.55	16.54	15.08	14.20	12.67	11.60	10.89	10.09	9.316	9.093	8.407	7.810	7.288	6.793	6.362	6.088	5.515	5.376	5.432	5.102	3.940	3.580	3.179	2.676	2.716	2.433	2.276	2.375	1.976	1.550	1.667	1.667	1.812	3.650	14.39	50.85	114.5	356.1	262.1	25.77	0.868	0.441	0.405
580.0	74.84	130.3	143.7	135.6	98.17	75.57	68.67	83.08	134.5	157.3	115.4	119.0	151.9	794.6	1088	61.36	27.60	24.70	22.66	20.32	19.61	18.25	19.74	19.05	20.66	19.58	19.49	19.41	18.85	19.58	18.89	17.27	16.38	14.89	14.39	13.58	12.32	11.76	11.14	9.950	8.989	8.261	8.011	7.733	6.911	6.966	6.025	5.698	5.447	5.053	4.676	4.378	4.792	4.917	3.890	3.025	2.824	2.447	2.495	2.005	2.031	2.021	1.934	1.548	1.430	1.420	1.479	1.814	4.197	12.43	26.73	116.4	385.8	240.4	17.69	0.658	0.405
585.0	70.41	120.4	138.1	134.9	93.14	74.44	64.15	76.76	108.2	167.9	129.6	122.7	112.6	303.8	1383	119.6	23.39	20.92	19.92	17.34	16.51	16.26	16.91	16.42	16.54	16.32	17.01	16.27	15.88	16.22	16.19	14.13	13.66	13.31	12.30	11.64	10.13	9.855	8.772	8.482	7.721	7.073	6.780	6.635	5.975	5.602	5.241	4.932	4.984	4.343	4.077	3.901	3.769	4.143	3.953	2.934	2.456	2.213	2.114	1.818	1.660	1.690	2.077	1.586	1.361	1.328	1.428	1.357	1.877	3.644	6.793	27.26	148.2	392.6	191.3	9.066	0.420
590.0	75.17	123.0	144.3	127.8	90.88	65.39	59.30	69.90	90.66	148.9	154.2	126.9	108.2	123.5	744.5	786.7	46.56	17.45	16.13	14.05	13.88	13.48	13.18	13.51	13.36	13.02	13.50	13.28	12.94	13.28	12.80	11.45	11.20	10.80	9.580	9.272	8.456	8.090	6.924	6.907	6.485	5.938	5.668	5.338	4.901	4.812	4.403	4.397	4.026	3.635	3.353	3.185	2.920	3.073	3.353	2.919	2.241	2.034	1.773	1.519	1.478	1.414	1.460	1.576	1.512	1.297	1.233	1.248	1.316	1.568	2.221	6.703	34.35	135.2	269.0	195.5	17.39
595.0	75.94	123.7	144.2	120.2	87.50	60.70	58.37	64.36	83.05	124.8	173.9	132.9	109.3	80.35	215.7	951.7	288.5	15.45	12.33	11.47	11.39	10.71	10.45	10.16	10.07	10.64	10.82	10.09	10.06	10.48	10.02	8.784	8.425	8.328	7.547	7.375	6.745	6.396	5.532	5.504	5.069	4.681	4.594	4.321	3.743	3.750	3.547	3.547	3.235	2.933	2.708	2.692	2.207	2.269	2.470	2.509	2.298	1.780	1.542	1.312	1.313	1.383	1.262	1.292	1.454	1.475	1.202	1.055	1.146	1.091	1.177	2.087	8.190	30.62	69.18	204.8	243.4
600.0	72.51	120.4	133.7	122.3	81.72	58.36	53.09	61.10	80.62	110.7	178.7	151.5	112.8	76.48	78.27	559.5	690.3	24.98	10.57	9.417	9.386	8.701	8.465	8.668	8.705	8.914	8.691	8.417	8.520	8.418	8.460	7.678	7.252	7.136	6.753	5.876	5.489	5.363	4.454	4.555	4.100	3.948	3.686	3.638	3.341	3.071	3.253	2.877	2.735	2.544	2.373	2.174	1.902	1.992	1.831	2.094	2.167	1.758	1.464	1.115	1.164	1.102	1.147	1.083	1.233	1.500	1.161	0.955	1.187	1.051	0.945	0.980	2.289	7.210	15.81	62.21	240.4
605.0	70.73	112.3	132.4	117.4	82.21	55.16	54.92	60.40	82.06	107.4	170.2	174.4	119.3	79.00	53.36	205.8	896.1	79.06	9.982	9.161	8.100	7.761	7.144	7.119	7.301	7.757	7.492	7.175	7.119	7.145	6.962	6.620	6.240	5.720	5.518	5.126	4.570	4.367	3.856	3.954	3.613	3.280	2.981	3.117	2.870	2.838	2.685	2.562	2.298	2.174	1.946	1.900	1.660	1.597	1.620	1.709	1.960	1.819	1.408	1.115	0.980	1.024	1.007	0.958	1.116	1.264	1.380	1.097	1.118	0.942	0.808	0.737	0.934	2.016	3.891	14.35	83.14
610.0	65.99	98.72	123.7	103.9	76.50	52.53	55.54	63.27	86.37	119.9	162.6	194.6	144.0	90.18	58.55	76.80	535.3	501.4	22.05	7.184	6.656	6.669	6.016	5.743	6.044	5.982	5.713	5.830	5.928	5.716	5.648	4.954	4.894	4.517	4.227	4.235	3.798	3.502	3.183	3.012	2.920	2.704	2.519	2.436	2.343	2.305	2.174	2.017	1.912	1.772	1.624	1.661	1.508	1.347	1.416	1.343	1.565	1.667	1.302	1.092	0.973	0.937	0.958	0.970	1.022	1.115	1.299	1.150	1.044	0.881	0.756	0.638	0.652	0.842	1.259	3.593	19.13
615.0	63.81	92.69	116.5	95.90	70.41	49.69	53.54	63.26	87.43	115.5	150.9	186.4	163.9	97.74	59.14	47.58	164.0	662.6	79.68	6.311	5.464	5.308	4.565	4.589	4.701	4.755	4.394	4.493	4.807	4.572	4.575	3.749	3.753	3.427	3.228	3.108	2.921	3.000	2.574	2.411	2.282	2.235	2.028	1.868	1.807	1.868	1.804	1.628	1.384	1.482	1.347	1.243	1.279	1.215	1.002	1.121	1.068	1.194	1.254	1.209	0.907	0.739	0.871	0.909	1.025	1.017	1.136	1.137	1.049	0.879	0.833	0.551	0.574	0.560	0.586	1.064	4.596
620.0	57.46	93.62	103.4	87.58	68.88	49.83	50.97	63.82	82.07	104.6	140.5	171.6	170.1	97.57	58.87	39.76	62.30	421.4	413.4	10.58	4.650	4.521	4.141	3.880	4.174	3.826	3.846	3.686	4.103	3.753	3.908	2.984	3.101	2.878	2.639	2.688	2.534	2.410	2.184	1.922	1.838	1.825	1.575	1.564	1.566	1.496	1.409	1.572	1.265	1.224	1.114	0.966	1.063	0.999	0.940	0.917	0.849	0.981	0.978	0.951	0.954	0.784	0.792	0.824	0.928	0.894	0.935	0.893	1.054	0.855	0.700	0.690	0.642	0.487	0.393	0.510	1.271
625.0	64.65	90.07	96.72	82.70	65.05	46.72	51.82	61.17	79.10	103.5	134.8	152.9	166.8	100.8	59.67	38.03	36.49	162.1	609.7	47.76	4.157	4.082	3.628	3.617	3.654	3.618	3.323	3.078	3.130	3.270	3.224	2.954	2.668	2.640	2.351	2.096	2.042	1.986	1.834	1.768	1.476	1.298	1.416	1.256	1.414	1.257	1.312	1.336	1.219	1.123	1.030	0.829	0.817	0.785	0.799	0.724	0.686	0.767	0.849	0.914	0.952	0.733	0.723	0.698	0.846	0.890	0.876	0.830	0.995	1.090	0.949	0.643	0.611	0.442	0.492	0.404	0.502
630.0	54.49	80.30	87.39	78.85	59.25	46.07	50.25	59.33	76.76	101.1	124.2	140.2	148.7	109.8	61.87	39.88	30.25	52.66	389.3	328.5	9.054	3.504	3.020	2.936	2.904	2.829	2.602	2.548	2.647	2.489	2.323	2.258	2.029	2.176	1.833	1.809	1.559	1.590	1.381	1.318	1.218	1.108	1.187	1.026	1.120	1.018	1.029	1.049	0.951	0.878	0.802	0.743	0.722	0.699	0.632	0.628	0.641	0.659	0.746	0.734	0.888	0.716	0.690	0.778	0.803	0.814	0.768	0.724	0.845	0.901	0.862	0.705	0.526	0.442	0.396	0.333	0.366
635.0	50.42	82.63	80.66	69.63	56.70	42.59	45.95	57.37	75.64	94.06	121.6	136.3	133.2	120.6	65.94	39.40	30.48	25.69	110.7	498.1	59.93	3.256	2.575	2.590	2.439	2.118	1.953	2.188	2.158	2.142	1.992	1.837	1.889	1.585	1.427	1.498	1.276	1.252	1.146	0.851	0.966	1.004	0.970	0.799	0.894	0.824	0.756	0.869	0.842	0.715	0.657	0.708	0.573	0.568	0.572	0.612	0.575	0.508	0.611	0.529	0.788	0.665	0.669	0.609	0.647	0.701	0.643	0.669	0.691	0.772	0.694	0.764	0.484	0.479	0.398	0.362	0.414
640.0	51.00	75.24	87.26	68.45	51.06	40.70	44.21	55.76	72.18	93.50	114.9	129.1	122.3	116.8	76.72	41.77	32.09	20.45	32.08	347.8	277.2	5.218	2.396	2.593	2.128	1.926	1.973	1.851	1.939	1.695	1.730	1.524	1.494	1.228	1.326	1.205	1.090	1.080	0.950	0.876	0.836	0.794	0.799	0.718	0.761	0.713	0.816	0.750	0.783	0.779	0.530	0.575	0.601	0.476	0.531	0.500	0.522	0.550	0.570	0.553	0.684	0.716	0.622	0.732	0.659	0.773	0.612	0.689	0.673	0.712	0.611	0.770	0.630	0.493	0.399	0.403	0.330
645.0	50.09	74.88	84.95	67.87	49.07	39.01	45.62	53.52	67.80	90.48	108.8	121.4	116.5	106.4	84.47	44.33	31.91	19.66	13.63	140.0	440.3	31.01	2.232	2.072	1.982	1.782	1.731	1.701	1.612	1.425	1.465	1.206	1.154	1.102	1.077	1.039	0.961	0.951	0.959	0.858	0.734	0.678	0.721	0.598	0.634	0.621	0.760	0.577	0.670	0.667	0.514	0.528	0.552	0.464	0.437	0.453	0.399	0.500	0.479	0.484	0.583	0.574	0.629	0.720	0.727	0.689	0.685	0.601	0.644	0.644	0.589	0.759	0.601	0.621	0.384	0.340	0.277
650.0	50.21	85.65	84.66	72.48	51.35	39.52	43.18	51.65	66.43	83.97	103.1	117.3	112.9	97.69	85.63	49.40	31.93	19.46	10.15	40.87	402.8	143.1	2.536	1.942	1.829	1.536	1.543	1.608	1.579	1.237	1.323	1.017	1.258	1.048	1.037	0.876	0.720	0.809	0.764	0.652	0.621	0.574	0.535	0.470	0.614	0.580	0.618	0.555	0.609	0.542	0.437	0.417	0.458	0.420	0.442	0.409	0.415	0.486	0.405	0.438	0.475	0.546	0.605	0.677	0.616	0.585	0.671	0.603	0.640	0.711	0.596	0.570	0.505	0.491	0.428	0.374	0.316
