Sample:	'1
File name:	¹Þ³µ300±¶.FD3
Run date:	'16:04:00, 01/12/2024
Operator:	Administrator
Comment:	'

Instrument
Model:	F-2700 FL Spectrophotometer
Serial number:	23B8-004
ROM Version:	4J14000 07

Instrument parameters
Measurement type:	3-D scan
Data mode:	Fluorescence
EX  Start WL:	220.0 nm
EX  End WL:	600.0 nm
EX Sampling interval:	5.0 nm
EM  Start WL:	230.0 nm
EM  End WL:	650.0 nm
EM Sampling interval:	5.0 nm
Scan speed:	12000 nm/min
EX Slit:	5.0 nm
EM Slit:	5.0 nm
PMT Voltage:	700 V
Response:	Auto 
Corrected spectra:	Off
Contour interval:	50.000

Peak integration
Integration method:	Rectangular
Sensitivity:	1
Threshold:	1.000

Peaks
No.	ApexEX/EM(nm)	Height(Data)
1	225.0/540.0	20.54
2	225.0/585.0	23.95
3	230.0/500.0	104.3
4	235.0/255.0	215.9
5	235.0/365.0	3221
6	235.0/515.0	100.3
7	240.0/265.0	327.2
8	240.0/525.0	102.5
9	245.0/270.0	376.1
10	245.0/535.0	106.3
11	250.0/275.0	534.8
12	250.0/550.0	103.4
13	255.0/280.0	698.5
14	255.0/560.0	117.3
15	260.0/575.0	112.7
16	265.0/310.0	4678
17	270.0/605.0	304.1
18	290.0/325.0	1412
19	300.0/365.0	5815
20	350.0/400.0	241.9
21	355.0/405.0	216.8
22	365.0/420.0	173.4
23	370.0/425.0	155.4
24	380.0/440.0	109.7
25	385.0/445.0	92.86
26	395.0/460.0	62.70
27	400.0/465.0	54.26
28	410.0/480.0	35.03
29	415.0/310.0	3.638
30	415.0/485.0	30.41
31	425.0/500.0	22.60
32	430.0/505.0	19.87
33	440.0/520.0	15.31
34	445.0/525.0	13.01
35	455.0/540.0	9.251
36	470.0/560.0	4.306
37	475.0/365.0	13.06
38	480.0/575.0	2.645
39	485.0/265.0	1.940
40	485.0/580.0	2.250
41	495.0/270.0	2.066
42	495.0/595.0	1.768
43	505.0/275.0	3.194
44	505.0/610.0	1.509
45	510.0/280.0	3.513
46	520.0/285.0	4.240
47	530.0/310.0	19.62
48	580.0/320.0	8.220
49	585.0/325.0	6.835

Data points
	220.0	225.0	230.0	235.0	240.0	245.0	250.0	255.0	260.0	265.0	270.0	275.0	280.0	285.0	290.0	295.0	300.0	305.0	310.0	315.0	320.0	325.0	330.0	335.0	340.0	345.0	350.0	355.0	360.0	365.0	370.0	375.0	380.0	385.0	390.0	395.0	400.0	405.0	410.0	415.0	420.0	425.0	430.0	435.0	440.0	445.0	450.0	455.0	460.0	465.0	470.0	475.0	480.0	485.0	490.0	495.0	500.0	505.0	510.0	515.0	520.0	525.0	530.0	535.0	540.0	545.0	550.0	555.0	560.0	565.0	570.0	575.0	580.0	585.0	590.0	595.0	600.0
230.0	16.62	268.9	842.3	307.4	13.48	3.732	3.413	3.509	2.909	2.980	2.652	2.826	2.574	2.161	1.904	2.111	1.980	1.748	1.458	1.423	1.059	0.896	0.653	0.468	0.407	0.435	0.437	0.401	0.359	0.375	0.315	0.259	0.255	0.323	0.248	0.283	0.282	0.278	0.225	0.214	0.297	0.440	0.382	0.303	0.192	0.216	0.431	2.068	3.819	2.996	1.212	0.324	0.149	0.182	0.132	0.158	0.165	0.121	0.151	0.151	0.145	0.138	0.149	0.128	0.173	0.140	0.143	0.147	0.126	0.133	0.127	0.106	0.125	0.121	0.136	0.159	0.111
235.0	45.32	76.13	463.5	959.4	393.6	22.86	3.683	3.300	3.041	2.765	3.663	2.307	2.583	2.080	2.150	2.192	2.082	1.801	1.536	1.398	1.005	0.877	0.730	0.523	0.369	0.410	0.393	0.390	0.426	0.365	0.262	0.273	0.219	0.282	0.278	0.266	0.284	0.338	0.271	0.223	0.291	0.277	0.376	0.392	0.387	0.222	0.236	0.678	1.302	2.311	3.554	3.989	2.048	0.732	0.165	0.134	0.161	0.137	0.180	0.151	0.132	0.211	0.146	0.178	0.166	0.153	0.137	0.135	0.149	0.108	0.132	0.107	0.157	0.114	0.148	0.137	0.154
240.0	69.45	64.94	137.5	764.1	1226	391.9	14.10	4.060	3.402	3.666	2.911	3.026	2.490	2.156	2.491	2.522	1.987	1.841	1.730	1.477	1.310	1.004	0.636	0.647	0.346	0.446	0.401	0.424	0.423	0.373	0.327	0.287	0.285	0.342	0.313	0.238	0.237	0.309	0.224	0.223	0.255	0.220	0.266	0.341	0.453	0.438	0.297	0.345	0.441	0.719	1.811	4.431	5.898	4.785	2.112	0.425	0.182	0.140	0.203	0.172	0.163	0.152	0.124	0.142	0.192	0.189	0.123	0.158	0.178	0.117	0.120	0.126	0.110	0.142	0.144	0.135	0.110
245.0	53.35	122.9	69.57	256.4	1209	1625	301.0	8.608	4.098	3.271	2.579	2.742	2.365	2.347	2.893	2.426	2.151	2.085	1.617	1.495	1.160	0.854	0.692	0.578	0.425	0.484	0.351	0.467	0.360	0.377	0.289	0.353	0.262	0.350	0.249	0.238	0.292	0.242	0.174	0.226	0.259	0.237	0.249	0.299	0.280	0.401	0.626	0.605	0.401	0.302	0.556	1.472	3.712	7.018	8.384	4.973	1.301	0.211	0.171	0.153	0.164	0.147	0.162	0.100	0.164	0.193	0.149	0.189	0.166	0.133	0.130	0.102	0.126	0.137	0.157	0.162	0.103
250.0	20.30	83.26	144.3	114.6	381.0	1451	2095	834.1	50.88	5.027	4.191	3.445	3.640	2.497	2.461	2.340	2.169	2.301	1.792	1.603	1.211	0.919	0.688	0.560	0.450	0.523	0.477	0.419	0.333	0.315	0.318	0.335	0.297	0.336	0.276	0.241	0.320	0.270	0.216	0.211	0.268	0.278	0.238	0.246	0.210	0.248	0.357	0.645	0.705	0.629	0.481	0.512	1.002	2.201	4.539	7.356	9.500	8.162	4.968	1.485	0.269	0.166	0.172	0.166	0.158	0.159	0.153	0.153	0.140	0.171	0.139	0.109	0.150	0.139	0.158	0.150	0.110
255.0	13.79	26.34	102.6	215.9	153.8	369.5	1424	3372	434.4	37.47	6.422	4.924	4.094	3.149	2.759	2.752	2.521	2.433	2.106	1.831	1.488	1.048	0.727	0.493	0.470	0.400	0.402	0.464	0.477	0.386	0.406	0.326	0.308	0.458	0.303	0.344	0.237	0.254	0.264	0.198	0.256	0.267	0.245	0.204	0.224	0.234	0.228	0.291	0.372	0.621	1.101	1.009	0.788	0.667	1.188	1.886	3.470	7.366	14.05	15.00	7.329	1.536	0.271	0.164	0.219	0.167	0.146	0.166	0.153	0.176	0.141	0.126	0.164	0.155	0.130	0.137	0.167
260.0	13.32	14.11	39.80	195.7	240.3	132.2	416.8	2618	3347	345.6	22.73	6.161	4.770	3.442	3.030	2.843	2.485	2.514	2.104	2.050	1.232	1.137	0.871	0.594	0.492	0.517	0.469	0.483	0.490	0.417	0.348	0.356	0.350	0.491	0.233	0.277	0.226	0.208	0.269	0.274	0.258	0.249	0.213	0.307	0.286	0.254	0.236	0.219	0.236	0.289	0.684	1.535	1.467	0.803	0.562	0.581	1.047	2.098	5.803	12.97	17.54	14.01	6.363	0.640	0.175	0.189	0.160	0.165	0.158	0.145	0.169	0.107	0.129	0.152	0.149	0.127	0.205
265.0	17.70	12.33	18.80	88.00	327.2	211.8	133.2	857.4	3595	2864	281.1	9.887	6.091	3.612	3.762	3.733	2.500	2.257	2.203	1.880	1.402	1.087	0.818	0.513	0.500	0.565	0.550	0.492	0.509	0.488	0.350	0.360	0.457	0.389	0.253	0.308	0.313	0.250	0.267	0.255	0.345	0.345	0.229	0.300	0.213	0.190	0.209	0.206	0.191	0.203	0.314	0.755	1.462	1.940	1.312	0.536	0.476	0.738	1.615	3.899	8.966	17.67	25.19	11.74	2.573	0.266	0.216	0.160	0.136	0.124	0.199	0.141	0.150	0.182	0.192	0.173	0.146
270.0	34.20	19.61	18.96	33.31	157.4	376.1	284.3	268.7	1127	3287	4367	967.9	39.23	5.280	5.162	3.961	3.321	2.832	2.405	2.259	1.605	1.213	0.888	0.649	0.689	0.574	0.681	0.546	0.443	0.538	0.409	0.444	0.488	0.599	0.492	0.452	0.402	0.415	0.417	0.471	0.438	0.389	0.390	0.397	0.261	0.322	0.249	0.229	0.242	0.186	0.195	0.350	0.566	1.040	1.608	2.066	1.799	0.993	0.786	1.224	2.401	5.247	12.14	14.99	18.10	15.90	8.643	2.018	0.287	0.174	0.191	0.209	0.169	0.153	0.175	0.209	0.150
275.0	79.50	48.67	36.18	28.25	60.62	179.3	534.8	371.7	359.6	884.2	3229	6042	1284	26.41	6.359	5.262	4.220	3.315	2.868	2.349	1.703	1.310	0.985	0.755	0.867	0.599	0.674	0.562	0.496	0.524	0.313	0.517	0.643	1.045	0.737	0.635	0.665	0.606	0.689	0.668	0.733	0.528	0.584	0.459	0.393	0.402	0.314	0.297	0.301	0.226	0.209	0.219	0.377	0.424	0.608	1.205	2.460	3.194	2.044	1.104	1.062	1.688	3.179	3.947	5.788	11.88	24.49	24.71	11.21	1.961	0.203	0.212	0.169	0.180	0.220	0.211	0.164
280.0	114.5	86.31	55.34	32.72	38.65	88.42	360.1	698.5	325.7	336.8	978.4	4663	6809	216.6	14.78	6.153	4.893	4.147	2.858	2.646	1.809	1.322	1.147	0.797	0.741	0.647	0.563	0.595	0.535	0.486	0.381	0.684	0.643	0.976	0.771	0.751	0.891	0.760	0.837	0.887	0.852	0.729	0.741	0.607	0.480	0.502	0.394	0.448	0.393	0.291	0.263	0.298	0.324	0.328	0.326	0.528	1.133	2.371	3.513	3.239	1.734	1.059	1.308	1.499	2.008	3.423	8.985	18.74	27.45	22.14	8.338	0.927	0.321	0.145	0.247	0.185	0.159
285.0	143.9	120.7	81.00	45.32	41.92	65.59	181.1	645.7	672.3	293.4	392.3	1488	7234	3868	156.5	9.783	5.916	5.180	3.351	3.143	2.214	1.680	1.082	0.922	0.665	0.653	0.669	0.754	0.584	0.671	0.501	0.473	0.668	1.169	1.087	0.924	0.947	0.920	0.926	0.880	1.010	0.894	0.789	0.822	0.503	0.648	0.550	0.488	0.549	0.316	0.356	0.349	0.270	0.341	0.310	0.417	0.660	1.021	1.952	3.883	4.240	2.623	1.231	1.116	1.208	1.449	2.629	5.304	12.49	24.74	32.92	15.48	5.669	0.469	0.234	0.323	0.210
290.0	180.2	156.4	115.8	72.19	62.09	83.96	145.8	345.9	767.9	711.1	376.5	548.7	2170	3778	3654	620.3	30.86	6.901	4.285	3.828	2.446	1.950	1.308	1.114	0.859	0.795	0.668	0.688	0.579	0.696	0.489	0.526	0.789	1.204	1.190	1.073	1.057	1.116	0.951	1.016	1.066	0.933	1.009	0.818	0.806	0.757	0.680	0.701	0.581	0.417	0.406	0.421	0.351	0.392	0.417	0.487	0.665	0.867	1.125	1.882	2.976	4.015	4.143	3.333	1.950	1.409	1.593	2.027	3.688	6.891	14.01	17.39	25.96	19.13	12.18	3.438	0.540
295.0	251.9	219.7	158.7	131.4	161.8	266.0	416.9	510.8	947.7	1431	1353	783.8	733.8	1129	3181	6537	807.3	31.82	6.370	5.381	3.033	2.205	1.763	1.054	1.054	0.938	0.861	0.720	0.676	0.714	0.493	0.685	0.749	1.247	1.347	1.218	1.302	1.393	1.172	1.203	1.279	1.183	1.142	1.189	1.025	0.993	0.900	0.971	0.702	0.636	0.624	0.694	0.811	0.991	1.029	1.300	1.826	2.084	2.590	3.037	3.488	4.201	5.059	7.070	7.035	4.609	3.349	2.648	2.755	3.148	4.245	5.113	7.643	11.38	25.70	28.04	16.18
300.0	459.0	351.6	270.4	287.5	470.0	701.7	1437	2107	2717	2972	2931	2227	1290	1092	1542	5804	4759	136.0	14.19	6.812	3.761	2.435	2.216	1.531	1.492	1.176	0.973	1.054	0.789	0.810	0.664	0.715	0.896	1.485	1.670	1.825	2.011	2.190	2.288	2.449	2.467	2.134	1.964	1.966	1.872	1.842	1.470	1.465	1.131	0.929	0.969	1.311	1.798	2.257	2.927	4.194	5.510	6.886	8.692	9.396	9.828	11.80	12.36	13.25	13.30	13.28	11.12	8.668	6.123	4.718	4.160	4.864	5.024	5.636	10.22	20.25	33.43
305.0	611.8	452.2	338.9	387.5	687.1	1262	2212	3279	4206	4599	4422	3921	2031	1458	1416	2730	5184	4631	97.86	9.931	4.737	3.466	2.717	2.093	1.450	1.455	1.039	1.320	0.903	0.896	0.962	0.872	1.008	1.590	1.903	2.243	2.575	3.079	3.433	3.426	3.343	3.196	2.658	2.302	2.333	2.356	1.628	1.581	1.509	1.052	1.275	1.827	2.362	3.557	4.439	6.014	8.385	10.69	13.03	14.26	15.74	18.57	19.21	18.86	17.86	17.76	17.20	15.41	10.80	7.143	5.476	6.491	6.637	6.032	6.291	9.768	17.59
310.0	605.7	444.6	337.7	380.1	700.1	1297	2270	3354	4254	4678	4256	3768	2500	1599	1332	1637	2176	4454	2891	449.3	19.11	4.423	2.999	2.268	1.944	1.555	1.469	1.241	0.848	1.061	0.893	0.868	1.019	1.579	2.021	2.345	2.868	2.986	3.595	3.638	3.401	3.045	2.807	2.275	2.286	2.043	1.588	1.562	1.488	1.181	1.223	1.967	2.521	3.584	4.852	6.463	8.912	10.98	13.27	14.96	16.46	19.17	19.62	19.33	17.08	16.51	15.50	14.61	12.77	9.595	6.856	6.678	6.869	5.819	5.416	6.653	9.725
315.0	535.0	409.4	302.9	352.6	660.4	1206	2090	3053	3900	4256	3858	3182	2210	1889	1306	1283	1188	1152	2460	6560	593.5	14.91	4.628	2.876	1.801	1.741	1.722	1.471	1.165	1.033	0.948	1.099	0.925	1.442	1.934	2.046	2.467	2.741	3.168	3.138	3.091	2.908	2.508	2.210	2.171	1.928	1.453	1.477	1.270	1.108	1.131	2.144	2.499	3.365	4.767	5.621	8.410	9.844	12.12	13.46	15.94	17.33	17.54	17.13	15.42	14.42	13.39	12.52	10.48	8.593	8.242	8.566	7.306	5.524	4.810	5.889	6.963
320.0	468.8	365.8	285.0	320.4	568.4	1026	1767	2561	3283	3559	3217	2632	1702	1684	1405	1089	866.7	386.2	690.7	5115	3909	95.57	10.64	3.832	2.681	1.992	1.638	1.647	1.266	0.988	1.160	0.889	0.836	1.377	1.461	1.830	2.066	2.484	2.895	2.724	2.809	2.264	2.107	1.932	2.111	1.767	1.436	1.459	1.233	1.088	1.141	1.801	2.125	2.955	4.058	4.996	7.187	8.020	10.29	11.70	13.08	14.44	15.03	14.76	13.38	12.11	11.31	10.05	8.083	6.158	5.535	7.474	8.220	6.294	4.653	5.057	5.837
325.0	396.1	346.7	281.6	312.5	487.3	829.2	1412	2053	2610	2819	2571	2142	1353	1239	1412	1088	743.1	259.3	255.3	1542	3863	2912	79.81	8.081	3.705	2.468	1.788	1.672	1.337	1.153	1.118	0.900	1.021	1.086	1.208	1.641	1.886	2.158	2.298	2.428	2.237	2.126	1.883	1.678	1.794	1.717	1.289	1.411	1.270	1.077	1.084	1.681	1.958	2.444	3.309	4.203	5.631	6.521	8.231	8.698	10.29	11.59	11.75	11.64	11.17	10.14	9.117	8.009	6.602	5.153	4.060	5.476	6.357	6.835	5.125	4.591	5.034
330.0	381.2	392.5	399.3	463.9	548.9	684.1	1035	1490	1926	2130	2005	1748	1255	1143	1280	1436	1052	582.6	477.9	678.0	1330	2866	3565	354.5	21.56	4.169	2.729	1.857	1.654	1.250	1.174	0.912	0.953	1.236	1.208	1.633	1.867	1.783	1.930	2.037	1.969	1.681	1.629	1.497	1.495	1.562	1.371	1.702	1.515	1.468	1.603	2.249	2.299	2.594	2.736	3.257	4.055	5.036	6.024	6.718	7.698	8.506	8.639	8.916	8.569	8.001	7.145	6.554	5.980	4.813	4.487	4.824	5.361	5.777	5.907	6.623	7.214
335.0	420.9	541.2	745.8	874.2	824.4	662.6	773.1	1067	1409	1636	1688	1668	1507	1551	1652	1868	1988	1469	1021	955.7	912.5	1035	2627	3544	535.3	17.01	4.455	2.763	1.992	1.806	1.401	1.152	1.135	1.629	1.685	1.809	1.932	1.886	1.835	1.714	1.612	1.543	1.566	1.669	1.605	1.830	1.987	2.535	2.623	2.785	3.095	3.804	3.826	3.278	2.652	2.537	3.287	3.926	4.467	4.799	5.931	6.501	6.836	6.756	7.033	6.568	6.378	6.290	6.464	5.661	5.758	6.845	7.034	7.292	7.655	8.340	9.904
340.0	491.2	734.7	1063	1318	1170	724.9	644.3	849.2	1139	1427	1605	1779	1865	2041	2282	2461	2635	2465	1906	1533	1153	813.4	951.1	2692	3317	83.46	9.205	3.989	2.877	2.161	1.707	1.416	1.279	1.690	1.803	2.123	2.308	2.157	1.946	1.786	1.660	1.575	1.561	1.577	2.020	2.291	2.368	3.308	3.739	3.699	4.575	5.490	5.307	4.272	3.185	2.444	2.770	3.062	3.414	3.922	4.886	5.253	5.346	6.038	6.108	6.425	6.172	7.016	7.080	7.240	7.923	8.486	9.248	10.20	10.55	10.15	11.88
345.0	536.5	927.9	1426	1743	1510	807.9	568.6	726.9	1022	1313	1640	1979	2266	2624	2966	3177	3282	3278	2801	2136	1550	931.3	592.8	903.4	3222	2933	72.21	4.880	3.466	2.680	1.980	1.732	1.310	2.054	1.894	2.428	2.617	2.392	2.060	1.852	1.660	1.616	1.513	1.609	2.349	2.677	3.091	4.123	4.810	5.224	5.820	7.207	6.783	5.471	3.709	2.549	2.358	2.678	3.017	3.410	4.123	4.681	5.254	5.970	6.180	6.674	7.062	7.637	8.163	9.240	10.06	10.85	11.85	12.82	13.42	13.71	14.72
350.0	670.1	1174	1868	2317	1937	961.3	533.1	641.2	941.2	1305	1768	2287	2804	3344	3807	4116	4225	4112	3782	3018	2126	1302	658.7	401.5	984.4	2747	3304	319.5	19.53	3.617	2.590	1.949	1.730	2.475	2.566	2.934	2.989	2.699	2.520	2.015	2.033	1.645	1.620	1.855	2.561	3.047	3.925	5.399	6.229	7.033	7.583	9.372	9.130	6.856	4.562	2.722	2.534	2.175	2.447	3.114	3.595	4.344	4.979	5.737	6.427	7.219	8.062	8.944	10.12	11.15	12.31	13.44	15.17	15.93	16.90	17.95	19.48
355.0	776.9	1411	2264	2802	2339	1091	521.4	595.5	903.7	1335	1895	2587	3274	3975	4577	4951	5104	4928	4466	3795	2743	1633	799.3	344.4	314.3	680.1	2163	3609	519.0	16.84	3.290	2.733	2.136	3.049	2.941	3.341	3.563	3.073	2.876	2.159	2.032	1.803	1.970	2.140	2.686	3.561	4.491	6.459	7.533	8.208	9.195	11.52	10.69	7.956	5.008	3.355	2.667	2.205	2.334	3.039	3.457	4.277	4.964	5.556	6.590	7.597	8.552	10.28	11.86	12.79	14.48	16.23	17.23	19.19	19.99	22.36	23.38
360.0	818.3	1530	2493	3092	2577	1178	529.5	571.4	889.5	1334	1961	2754	3545	4323	4978	5410	5580	5418	4872	4083	3124	1883	892.9	362.0	179.2	204.5	580.0	2661	3831	398.8	6.966	3.202	2.502	3.385	3.330	3.670	3.959	3.476	2.996	2.479	2.313	2.106	2.193	2.414	3.033	3.865	4.711	6.873	8.137	9.054	10.08	12.76	11.34	9.004	5.700	3.287	2.590	2.417	2.257	2.913	3.233	4.118	4.882	6.142	6.688	7.763	8.929	10.96	12.28	13.95	15.88	17.38	19.44	20.53	22.01	24.40	25.67
365.0	855.0	1594	2594	3221	2681	1230	531.5	561.4	872.8	1332	2009	2809	3676	4504	5173	5633	5815	5662	5098	4193	3239	2091	974.7	390.7	167.0	107.1	167.2	776.6	3518	3122	66.02	4.574	2.906	3.613	3.397	3.817	4.067	3.656	3.196	2.405	2.239	1.862	2.017	2.504	3.307	3.954	4.834	7.372	8.676	9.087	10.56	13.06	12.19	9.184	5.697	3.644	2.532	2.160	2.292	2.707	3.225	3.873	5.003	5.864	6.609	8.065	9.526	11.32	12.23	14.35	15.61	17.91	19.73	21.63	22.73	25.45	26.47
370.0	853.2	1594	2548	3201	2691	1219	527.6	546.7	834.9	1304	1966	2769	3623	4464	5133	5617	5812	5675	5103	4194	3156	2111	1115	444.8	185.9	102.4	90.46	211.2	992.8	2657	2300	289.7	18.85	4.771	3.774	4.303	3.927	3.805	3.235	2.569	2.293	2.130	2.114	2.568	3.125	4.092	5.057	7.214	8.620	9.088	10.62	12.87	11.95	9.334	5.909	3.486	2.418	2.065	2.230	2.577	3.127	3.973	4.848	5.897	6.913	7.860	9.284	10.63	12.19	14.43	15.80	18.01	20.18	22.32	22.89	25.62	25.90
375.0	816.5	1495	2447	3062	2592	1181	522.6	523.2	787.9	1243	1868	2636	3443	4253	4869	5367	5550	5425	4906	4028	3000	1963	1133	555.1	223.8	123.2	92.10	102.3	265.2	648.7	1428	3142	438.8	20.07	4.805	4.674	4.284	3.640	2.962	2.555	2.131	2.152	2.038	2.474	3.043	3.917	4.852	6.767	8.247	8.832	9.939	12.65	11.27	9.259	5.610	3.462	2.383	2.055	2.317	2.334	2.973	3.700	4.371	5.636	6.170	7.500	8.471	9.841	11.37	13.66	15.17	16.85	18.58	20.43	21.81	23.57	24.50
380.0	766.7	1452	2361	2893	2445	1138	506.8	494.1	742.0	1172	1753	2477	3204	3991	4596	5032	5204	5121	4629	3795	2832	1846	1027	597.2	291.5	142.2	101.2	88.14	111.7	189.6	398.7	2266	2311	367.4	8.771	4.916	4.630	3.518	3.385	2.595	2.120	2.061	1.663	2.136	2.950	3.643	4.703	6.339	7.894	8.508	9.618	12.22	10.83	8.879	5.676	3.250	2.430	1.880	2.144	2.416	2.788	3.135	4.171	5.106	5.790	6.964	8.471	9.560	10.93	12.96	14.41	15.61	18.18	19.48	20.41	22.38	22.79
385.0	734.5	1363	2177	2668	2257	1079	483.0	485.4	694.6	1102	1617	2284	2982	3678	4233	4647	4792	4716	4282	3518	2637	1713	928.1	533.1	363.1	178.9	111.8	90.78	86.60	92.36	128.1	658.3	1996	2914	56.78	6.044	5.013	3.647	3.151	2.345	2.190	1.826	1.832	2.229	2.504	3.556	4.451	5.977	6.944	7.451	8.986	11.15	10.41	7.605	5.143	2.870	2.323	1.959	2.006	2.208	2.581	3.193	4.055	4.921	5.430	6.759	7.434	8.897	10.22	11.90	13.36	15.10	16.71	18.49	19.38	20.03	22.21
390.0	646.1	1169	1890	2344	1996	970.7	446.2	434.4	613.1	953.5	1413	2001	2607	3218	3688	4060	4200	4127	3756	3100	2334	1520	829.3	436.9	328.9	258.9	148.3	100.4	87.35	76.20	72.51	175.6	565.8	2401	1763	700.7	18.35	3.914	3.285	2.408	2.086	1.900	1.827	1.918	2.503	3.149	3.908	5.337	6.246	6.691	7.626	9.633	8.697	6.989	4.527	2.557	2.074	1.792	1.735	2.075	2.262	2.871	3.688	4.147	4.770	5.646	6.794	7.606	8.857	10.16	11.60	13.28	14.64	16.17	16.73	17.96	19.09
395.0	579.6	993.6	1613	1999	1697	846.3	405.4	384.8	536.1	825.4	1221	1704	2202	2743	3121	3434	3558	3499	3181	2642	1993	1321	734.0	383.5	252.9	253.6	225.3	125.8	92.57	80.04	65.90	72.89	146.8	568.5	1058	2971	387.5	14.63	3.503	2.373	2.256	1.821	1.520	1.878	2.149	2.864	3.216	4.525	5.556	5.570	6.602	8.362	7.796	5.918	4.070	2.481	1.832	1.760	1.673	1.916	2.019	2.441	3.194	3.810	4.096	4.845	5.715	6.424	7.494	8.878	9.665	10.68	11.95	13.83	14.05	15.27	15.95
400.0	497.2	874.5	1387	1727	1477	755.4	377.0	359.5	490.9	724.6	1060	1494	1925	2371	2717	2979	3083	3041	2761	2305	1750	1161	654.2	355.7	223.9	200.2	241.9	172.7	102.2	85.49	68.34	53.98	56.74	144.7	282.8	2052	2185	270.5	7.049	2.734	2.332	1.724	1.820	1.832	1.899	2.659	3.083	4.187	4.680	5.145	5.800	7.265	6.797	5.319	3.567	2.267	1.826	1.720	1.648	1.707	1.922	2.282	2.725	3.199	3.635	4.265	5.102	5.950	6.463	7.847	8.517	9.518	10.65	11.46	12.07	13.22	14.07
405.0	424.2	760.6	1208	1511	1294	672.4	352.0	331.7	448.2	650.6	945.6	1303	1692	2062	2376	2596	2685	2643	2412	2010	1533	1021	591.6	326.4	213.4	172.2	199.3	216.8	130.4	88.05	70.35	52.93	41.07	52.74	77.92	584.7	1864	1526	49.58	3.650	2.445	1.773	1.612	1.831	1.667	2.330	2.789	3.750	4.276	4.520	5.209	6.246	5.856	4.638	3.175	1.951	1.658	1.577	1.610	1.560	1.738	2.126	2.258	2.896	3.201	3.718	4.289	5.165	5.931	6.860	7.402	8.535	9.297	10.61	10.80	11.46	12.21
410.0	361.2	644.8	1014	1248	1084	591.8	313.0	298.6	380.5	550.5	795.8	1092	1401	1693	1950	2124	2204	2178	1977	1666	1277	862.0	508.5	290.1	195.8	156.8	152.4	185.8	183.1	114.0	76.09	55.46	41.71	36.18	34.42	143.7	519.7	1208	1319	211.5	14.88	2.154	1.616	1.588	1.632	1.956	2.356	3.117	3.530	3.667	4.381	5.385	4.725	3.831	2.604	1.719	1.464	1.321	1.344	1.546	1.588	1.828	2.337	2.329	2.766	3.244	3.737	4.558	5.088	5.426	6.275	7.227	7.877	8.381	8.758	9.396	9.903
415.0	306.2	528.8	811.6	993.7	897.2	504.5	272.4	258.3	330.6	456.7	662.3	894.4	1145	1360	1555	1696	1758	1742	1587	1348	1034	706.8	427.1	258.2	179.7	147.0	131.6	133.9	172.0	166.3	91.59	59.99	44.70	35.14	27.78	46.45	126.4	286.7	789.4	1413	352.9	11.66	1.942	1.723	1.536	1.774	1.896	2.410	2.921	3.084	3.467	4.366	3.882	3.204	2.381	1.589	1.476	1.302	1.259	1.311	1.290	1.587	1.890	2.148	2.258	2.646	2.988	3.713	4.033	4.336	4.893	5.743	6.185	6.727	7.379	7.875	8.201
420.0	258.2	451.5	676.5	856.0	753.6	422.2	259.0	233.1	292.8	403.8	571.9	756.8	964.4	1149	1310	1418	1473	1458	1330	1122	873.6	604.7	372.2	230.4	167.8	139.4	122.7	115.6	130.9	173.4	126.5	67.74	48.06	37.26	27.41	26.27	40.22	73.24	209.5	938.7	1975	245.5	5.309	1.817	1.528	1.626	1.843	2.299	2.681	2.579	2.901	3.723	3.263	2.969	2.012	1.508	1.201	1.166	1.013	1.204	1.208	1.441	1.629	1.794	2.202	2.332	2.699	3.047	3.381	3.974	4.429	4.887	5.314	5.665	6.059	6.435	6.981
425.0	229.3	370.2	579.7	742.0	646.7	380.6	230.5	207.1	264.6	358.7	488.5	658.2	820.4	977.6	1105	1198	1246	1226	1119	956.0	752.2	523.5	330.5	213.4	154.8	130.6	118.3	110.7	109.3	138.3	155.4	81.61	50.70	38.57	29.64	23.54	22.74	26.89	55.44	265.4	1671	1324	46.65	2.701	1.513	1.713	1.600	2.171	2.087	2.154	2.368	3.085	2.982	2.405	1.822	1.434	1.338	1.202	1.120	0.991	1.094	1.292	1.453	1.548	1.966	1.887	2.398	2.697	2.905	3.423	3.751	4.201	4.501	4.628	5.071	5.816	5.762
430.0	241.6	314.7	486.2	610.8	533.7	329.7	209.7	193.3	222.1	302.8	405.8	549.4	678.4	798.0	894.6	968.4	1003	993.6	913.8	774.4	615.0	437.9	279.8	186.9	143.6	123.4	114.0	105.2	101.3	105.6	128.4	121.6	67.03	41.65	31.67	24.78	20.74	17.88	21.78	66.54	460.1	1063	1157	195.7	13.06	1.820	1.597	1.923	1.973	1.846	2.113	2.612	2.395	1.924	1.503	1.421	1.208	1.092	0.930	0.951	1.146	1.162	1.183	1.343	1.544	1.763	2.107	2.151	2.559	2.798	3.201	3.377	3.803	3.866	4.159	4.414	4.647
435.0	356.7	253.7	387.2	470.2	452.0	273.4	192.5	175.2	194.1	261.6	346.3	452.5	553.0	647.7	709.5	777.0	798.3	787.7	734.6	624.0	498.7	358.2	239.5	164.2	129.9	116.7	107.7	100.1	94.83	90.33	93.53	110.5	104.3	55.50	35.69	26.85	21.94	16.96	15.18	22.74	109.0	250.2	680.8	1430	307.2	13.77	1.896	1.803	1.831	1.678	1.885	2.180	2.069	1.598	1.374	1.212	1.017	0.799	0.855	0.893	0.919	0.893	0.954	1.199	1.306	1.541	1.720	1.984	2.017	2.429	2.480	2.737	3.012	3.206	3.143	3.426	3.741
440.0	447.0	259.0	335.2	411.2	376.5	237.2	173.3	155.2	183.1	235.2	306.5	392.6	475.0	542.7	602.5	645.7	668.9	667.7	618.3	525.0	425.1	311.5	210.2	149.0	121.7	109.2	103.0	97.15	91.64	86.75	80.95	85.59	109.7	72.49	39.30	28.46	22.80	18.04	14.75	13.39	31.21	61.03	177.6	960.9	1345	244.0	5.603	1.794	1.694	1.507	1.711	1.914	1.979	1.486	1.514	0.981	0.916	0.913	0.888	0.828	0.922	0.896	1.011	1.001	1.234	1.263	1.270	1.586	1.832	1.943	2.376	2.206	2.421	2.747	2.768	3.092	3.146
445.0	453.9	316.3	293.8	357.4	327.4	220.9	165.4	148.0	168.4	212.0	272.3	338.4	409.2	467.7	518.5	548.7	572.1	571.3	524.8	446.3	363.8	273.6	187.4	137.2	115.0	104.6	96.88	91.86	86.41	83.21	75.31	70.20	88.38	92.86	52.68	29.85	22.71	18.72	15.02	12.70	14.25	19.23	44.57	270.4	1122	1254	39.18	3.070	1.794	1.543	1.448	1.924	1.792	1.500	1.253	0.905	0.792	0.919	0.809	0.696	0.842	0.906	0.983	1.006	1.099	1.307	1.324	1.435	1.521	1.710	1.840	2.066	2.098	2.198	2.471	2.539	2.558
450.0	278.5	460.2	284.6	285.8	268.7	187.7	146.2	134.6	146.5	181.6	230.1	283.2	337.4	379.8	422.1	445.7	456.8	454.6	422.5	363.5	294.1	223.6	159.6	119.3	102.3	94.63	89.28	85.19	81.47	76.44	69.91	62.80	62.22	76.91	72.05	41.09	24.96	19.38	15.86	12.88	11.48	10.49	14.95	65.14	308.6	938.8	974.8	176.4	11.64	1.600	1.510	1.631	1.537	1.334	1.055	0.953	0.866	0.819	0.769	0.770	0.760	0.763	0.850	0.937	0.880	1.135	1.146	1.303	1.349	1.540	1.559	1.885	1.718	1.948	1.881	2.094	2.327
455.0	139.1	436.8	421.1	227.7	223.0	158.1	126.5	115.7	125.8	153.1	196.1	234.3	271.7	299.9	331.3	347.2	356.5	356.8	331.1	288.7	234.6	180.7	134.7	104.2	88.54	84.24	80.49	76.21	75.70	71.61	66.20	57.05	51.90	50.80	65.09	61.08	32.14	19.46	15.83	13.08	10.72	9.258	8.506	19.03	72.74	219.1	523.9	1296	259.4	10.71	1.652	1.440	1.413	1.274	0.971	0.864	0.776	0.695	0.748	0.657	0.721	0.685	0.654	0.783	0.831	0.923	0.911	1.119	1.223	1.290	1.389	1.354	1.400	1.608	1.432	1.748	1.734
460.0	89.85	289.3	568.8	233.3	184.1	138.8	111.8	106.6	111.0	137.2	167.2	199.4	229.7	255.4	278.1	288.5	295.5	295.3	273.6	241.3	198.9	154.9	116.7	91.49	78.64	75.48	73.57	71.48	69.28	67.15	61.17	52.77	47.51	42.85	46.66	62.70	45.34	21.76	15.99	12.83	10.40	9.046	7.641	8.629	20.17	52.65	133.6	824.8	1132	185.3	5.445	1.697	1.370	1.207	0.924	0.794	0.827	0.602	0.616	0.677	0.687	0.674	0.665	0.670	0.737	0.874	0.798	1.064	0.989	1.119	1.168	1.184	1.394	1.461	1.374	1.441	1.444
465.0	75.33	156.4	585.7	341.3	164.5	123.5	99.61	94.51	98.10	125.9	147.1	171.4	200.3	220.3	230.2	239.7	247.0	245.4	231.0	202.1	169.4	136.4	100.9	83.49	72.25	69.04	67.28	65.80	65.38	60.77	56.56	49.15	44.01	37.47	36.66	48.93	54.26	29.23	16.01	12.63	10.04	8.713	7.635	6.732	8.180	15.33	33.20	227.2	926.8	877.8	32.27	2.835	1.464	1.171	0.988	0.779	0.817	0.644	0.629	0.621	0.662	0.762	0.775	0.746	0.679	0.685	0.717	0.932	0.790	0.965	1.015	0.950	1.120	1.189	1.059	1.125	1.107
470.0	78.92	96.69	348.2	601.4	186.7	106.1	88.14	87.02	88.40	106.1	125.1	145.1	164.2	177.1	187.5	192.0	198.3	195.0	184.5	164.1	136.7	108.3	85.59	70.85	63.53	60.28	59.51	58.25	57.33	53.16	50.17	44.92	39.65	33.90	30.21	32.49	42.74	40.21	22.79	13.30	10.54	8.440	7.316	6.378	6.231	7.005	10.50	53.80	253.6	635.0	789.6	162.7	11.31	1.467	1.068	0.815	0.781	0.673	0.601	0.578	0.546	0.603	0.655	0.614	0.646	0.604	0.681	0.818	0.751	0.841	0.835	0.875	0.960	0.840	0.951	0.912	0.987
475.0	90.40	75.41	147.8	590.0	416.0	91.24	78.67	72.36	77.99	90.48	106.5	118.8	138.1	140.7	144.8	149.4	152.2	152.4	145.6	128.0	107.8	90.51	70.14	60.43	55.19	52.14	52.14	50.55	51.33	46.71	43.95	39.21	35.05	30.08	27.13	24.72	26.35	36.54	34.47	16.99	10.54	8.658	7.192	6.273	5.789	5.122	5.375	14.82	58.93	146.5	394.8	815.7	249.1	14.23	1.166	0.916	0.716	0.726	0.592	0.589	0.409	0.551	0.548	0.549	0.619	0.597	0.616	0.738	0.635	0.728	0.681	0.689	0.789	0.927	0.888	0.786	0.795
480.0	80.15	80.14	93.44	378.5	678.3	130.3	71.66	64.69	69.92	78.55	93.32	106.0	113.7	121.0	122.5	125.2	126.3	126.4	120.9	107.2	91.54	77.56	62.56	53.21	49.32	46.80	46.65	45.26	46.55	42.63	40.15	35.09	31.22	28.06	24.63	21.63	20.23	26.20	35.03	24.36	11.99	8.342	7.015	6.490	5.324	5.309	4.290	6.034	15.39	34.56	98.07	465.6	873.2	227.7	5.767	0.946	0.701	0.701	0.657	0.553	0.527	0.452	0.530	0.479	0.569	0.547	0.499	0.568	0.494	0.681	0.661	0.604	0.716	0.800	0.762	0.736	0.700
485.0	70.50	80.28	73.80	184.2	790.5	324.6	62.33	61.06	64.34	72.72	84.72	94.57	100.3	107.8	106.0	110.1	108.4	110.4	104.5	90.35	79.94	67.29	54.77	47.17	44.27	41.77	42.75	42.37	41.72	40.55	35.88	33.19	30.17	25.78	22.47	20.05	18.49	18.78	27.50	30.41	16.81	8.314	7.144	6.595	5.610	5.472	4.159	4.106	5.393	9.644	23.98	125.2	645.0	845.4	38.23	2.539	0.868	0.729	0.614	0.591	0.502	0.560	0.535	0.467	0.452	0.527	0.565	0.497	0.476	0.611	0.538	0.651	0.679	0.588	0.698	0.703	0.645
490.0	52.88	92.65	70.24	94.06	460.5	773.2	137.4	56.61	58.16	67.45	72.20	83.11	85.18	88.70	88.40	90.68	90.84	90.40	84.86	75.48	66.63	56.06	47.02	41.18	38.64	38.59	38.00	37.65	36.93	35.85	33.40	30.12	27.33	23.42	20.88	18.50	16.19	15.34	17.31	25.73	24.34	13.36	7.745	6.429	5.414	5.148	4.473	3.931	3.493	4.046	7.274	29.80	167.4	501.1	676.5	318.0	13.65	1.023	0.729	0.588	0.622	0.512	0.488	0.459	0.457	0.484	0.538	0.490	0.485	0.617	0.533	0.546	0.583	0.557	0.564	0.611	0.545
495.0	40.45	77.34	85.61	68.37	163.3	849.8	495.8	56.71	52.13	56.69	63.22	69.88	72.99	73.29	71.54	73.42	73.44	72.29	69.63	61.92	55.33	46.89	40.78	36.19	35.21	34.54	33.70	32.34	32.04	31.32	29.99	26.63	24.03	21.19	19.04	17.19	15.56	13.29	13.08	15.51	23.29	21.24	11.07	6.308	5.619	4.888	4.269	4.190	3.524	2.861	3.355	8.347	38.97	114.4	311.4	853.5	289.7	16.32	0.997	0.606	0.672	0.502	0.489	0.400	0.476	0.505	0.453	0.421	0.426	0.502	0.490	0.416	0.474	0.446	0.464	0.491	0.472
500.0	38.14	57.54	104.3	58.61	76.24	507.8	912.9	107.7	47.11	51.48	58.59	62.31	62.14	62.93	61.54	61.25	63.82	59.52	59.12	53.29	46.99	40.24	35.30	31.86	31.60	30.96	29.69	29.56	28.98	28.40	26.54	24.47	22.17	19.05	17.11	15.36	13.36	12.31	11.22	10.71	16.15	22.60	15.97	7.564	5.504	4.827	4.253	4.163	3.865	2.930	2.601	3.549	10.17	27.10	75.37	423.2	792.5	234.9	7.119	0.829	0.685	0.511	0.485	0.328	0.474	0.479	0.442	0.397	0.405	0.350	0.366	0.369	0.405	0.421	0.471	0.452	0.377
505.0	32.36	41.56	98.43	70.81	50.65	208.7	1019	327.7	41.97	48.04	52.52	57.20	55.67	53.11	53.37	54.40	51.75	53.92	50.35	47.71	41.58	36.45	31.52	29.56	27.74	28.59	26.86	26.52	26.25	25.31	24.33	22.02	20.10	18.28	15.81	14.00	12.71	11.18	9.903	9.105	11.16	18.22	19.87	10.86	5.664	4.791	4.422	3.975	3.561	3.123	2.545	2.394	3.785	7.544	18.36	107.4	486.6	700.7	42.41	3.086	0.729	0.509	0.452	0.440	0.440	0.414	0.381	0.449	0.351	0.405	0.473	0.341	0.363	0.360	0.445	0.468	0.365
510.0	30.86	35.01	71.36	90.94	47.86	78.55	569.3	909.8	120.2	42.72	47.54	47.87	48.30	46.03	44.68	44.49	42.77	43.27	41.52	38.33	33.44	29.66	27.44	25.04	23.71	23.43	22.81	23.06	23.31	21.89	21.51	19.67	17.54	16.17	13.98	12.22	10.99	10.29	9.455	8.562	8.380	10.78	16.95	15.96	9.021	5.149	4.283	4.025	3.343	3.118	2.861	2.521	2.491	3.023	5.277	25.19	121.8	362.3	494.1	177.3	14.49	0.789	0.568	0.435	0.456	0.384	0.356	0.420	0.340	0.345	0.391	0.339	0.330	0.382	0.382	0.392	0.357
515.0	25.20	27.39	40.46	100.3	61.52	43.74	176.2	987.6	443.7	40.35	41.62	42.80	39.78	39.66	36.96	36.57	35.71	35.04	33.69	31.86	27.70	24.72	22.71	20.85	20.09	19.35	20.39	19.18	19.95	19.42	18.81	16.28	15.51	13.81	12.05	10.79	10.18	8.958	8.397	7.889	6.955	6.842	9.922	15.06	14.06	7.583	4.470	3.829	3.280	2.785	2.682	2.718	2.179	2.203	2.350	6.800	28.15	82.23	192.5	541.7	281.4	16.80	0.815	0.559	0.479	0.362	0.351	0.364	0.318	0.421	0.400	0.310	0.331	0.379	0.390	0.302	0.303
520.0	23.90	24.13	26.87	81.58	87.42	36.77	69.11	574.3	1120	118.3	35.44	36.74	34.57	33.02	33.42	31.11	31.24	29.80	28.48	27.36	24.37	20.99	19.76	18.13	17.05	16.64	17.75	17.83	17.52	17.42	16.18	14.94	13.76	12.73	10.59	10.21	9.421	8.229	7.613	7.211	6.439	5.975	6.687	11.13	15.31	10.41	5.273	3.511	2.836	2.734	2.409	2.562	2.453	1.933	1.656	2.407	7.234	19.29	45.48	246.8	538.2	220.9	8.994	0.700	0.470	0.400	0.391	0.378	0.343	0.355	0.324	0.361	0.317	0.361	0.293	0.271	0.257
525.0	21.52	22.94	20.48	53.58	102.5	41.83	41.15	219.7	1392	374.7	31.96	32.89	31.22	30.51	29.49	26.83	26.68	25.70	25.19	22.50	20.62	19.18	16.93	16.81	15.69	15.40	15.44	16.21	15.71	15.14	14.24	13.44	12.53	11.94	9.856	9.314	8.182	7.726	7.122	6.919	5.869	5.683	5.577	7.435	12.22	13.01	7.223	3.680	2.934	2.524	2.351	2.327	2.472	1.966	1.654	1.689	2.519	5.181	11.19	60.40	282.0	519.0	44.15	3.430	0.534	0.415	0.362	0.350	0.349	0.333	0.257	0.356	0.261	0.323	0.240	0.259	0.270
530.0	19.21	19.99	21.16	32.75	87.49	70.07	33.71	75.08	805.0	1589	146.0	29.55	29.03	25.62	23.77	22.68	21.82	22.36	20.30	18.95	17.20	15.97	14.49	14.56	13.69	13.41	13.50	13.81	13.63	13.24	12.50	11.44	10.71	10.23	8.769	7.951	7.499	6.957	6.061	5.902	5.558	5.009	5.152	5.217	7.168	11.46	10.14	5.355	3.094	2.502	2.315	2.158	1.879	2.111	1.720	1.493	1.477	2.094	3.272	14.24	68.58	241.5	391.2	177.8	14.62	0.517	0.405	0.417	0.250	0.315	0.346	0.324	0.286	0.289	0.264	0.284	0.257
535.0	19.30	17.22	19.01	22.04	53.99	106.3	37.99	39.43	228.2	1816	767.0	28.02	24.85	20.51	18.85	18.73	18.92	18.26	16.75	14.97	14.85	13.89	12.29	11.82	11.45	12.09	11.54	11.39	11.16	10.82	11.20	10.06	8.904	8.079	7.807	6.797	6.227	5.924	5.348	5.208	4.652	4.272	4.438	4.044	4.329	6.486	9.931	8.482	4.268	2.412	2.129	1.821	1.612	1.700	1.894	1.685	1.220	1.225	1.461	3.799	15.92	54.76	134.4	419.0	266.6	17.30	0.617	0.406	0.280	0.270	0.314	0.329	0.264	0.302	0.237	0.256	0.273
540.0	17.18	20.54	15.18	17.78	29.42	101.2	63.06	29.89	77.12	983.9	1576	71.05	21.27	17.25	17.69	15.49	15.44	14.94	14.39	13.79	12.65	11.77	10.75	10.12	9.949	10.33	9.916	10.14	9.928	9.481	9.794	8.855	7.897	7.210	6.703	6.258	5.864	5.026	4.967	4.418	4.426	4.021	3.960	3.436	3.782	4.229	7.170	9.251	5.838	2.814	2.022	1.753	1.526	1.506	1.592	1.934	1.275	0.956	1.032	1.514	4.208	12.95	31.43	169.4	432.0	197.3	8.518	0.504	0.364	0.319	0.290	0.319	0.269	0.275	0.212	0.205	0.204
545.0	23.05	17.19	16.53	16.34	20.34	80.97	89.28	29.93	38.27	340.8	1971	256.6	19.44	16.80	15.34	13.77	13.06	13.48	12.69	12.02	11.42	10.39	9.130	9.286	8.879	8.711	9.019	8.922	8.555	8.418	8.863	7.844	7.056	6.583	5.964	5.524	5.331	4.792	4.350	4.003	3.890	3.573	3.472	3.262	3.427	3.361	4.624	7.622	7.236	3.875	2.193	1.770	1.547	1.486	1.341	1.656	1.654	0.942	0.986	0.837	1.461	3.580	7.629	40.56	209.9	401.3	44.31	2.761	0.389	0.389	0.300	0.294	0.231	0.257	0.245	0.212	0.235
550.0	24.09	18.54	15.18	15.19	15.97	41.44	103.4	48.11	30.58	103.2	1126	913.6	87.35	14.63	12.24	12.04	11.56	11.03	10.33	10.05	9.276	8.197	7.899	7.404	7.325	7.307	7.502	7.491	7.150	6.992	7.234	6.524	5.957	5.674	5.269	4.746	4.178	4.074	3.605	3.636	3.226	3.117	2.931	2.756	2.828	2.678	2.947	4.331	6.447	5.302	3.004	1.611	1.383	1.198	1.162	1.108	1.360	1.376	0.901	0.654	0.855	1.253	2.226	9.613	50.39	174.2	263.3	138.9	14.57	0.553	0.322	0.282	0.271	0.256	0.227	0.231	0.206
555.0	24.55	18.25	16.32	14.52	13.31	21.76	76.82	87.45	31.31	49.18	299.2	1017	586.8	13.09	10.35	9.534	9.749	8.269	8.511	8.380	7.793	6.492	6.686	6.197	5.982	6.094	5.955	5.892	6.182	6.068	5.768	5.451	4.569	4.606	4.244	3.671	3.753	3.538	3.069	2.828	2.823	2.727	2.447	2.432	2.294	2.179	2.232	2.424	3.831	5.287	4.293	2.110	1.363	1.031	0.874	0.925	0.889	1.288	1.301	0.755	0.609	0.751	0.891	2.666	11.71	39.30	82.54	234.2	185.0	16.39	0.442	0.332	0.362	0.281	0.253	0.273	0.243
560.0	22.60	15.51	15.99	12.11	13.31	16.82	47.62	117.3	39.22	34.95	90.60	562.0	1278	38.70	8.767	8.364	7.958	7.577	7.082	7.369	6.701	5.489	5.504	5.290	4.578	5.298	4.861	4.865	5.086	5.212	4.669	4.751	4.162	4.186	3.803	3.088	3.146	2.976	2.931	2.500	2.410	2.462	2.260	2.122	1.999	2.084	1.902	1.799	2.429	3.796	4.306	3.137	1.390	0.990	0.789	0.785	0.739	0.825	1.071	1.058	0.638	0.683	0.599	1.067	3.108	9.232	19.16	87.30	244.4	135.3	8.685	0.353	0.475	0.261	0.238	0.276	0.199
565.0	24.95	20.30	15.75	12.58	10.92	11.64	28.49	112.7	61.32	31.80	42.65	192.9	1498	172.7	8.548	7.840	6.874	7.062	6.573	6.321	5.698	4.871	4.515	4.734	4.244	4.725	4.086	4.385	4.357	4.398	4.007	3.947	3.682	3.514	3.336	2.725	2.680	2.318	2.368	2.293	2.129	2.138	2.010	1.785	1.719	1.669	1.570	1.561	1.493	2.299	3.660	3.424	1.701	1.054	0.742	0.764	0.679	0.792	0.770	1.236	0.758	0.568	0.563	0.553	1.122	2.483	4.721	20.54	103.6	225.9	45.07	3.988	0.537	0.308	0.261	0.213	0.178
570.0	26.40	21.63	14.07	13.39	10.24	11.53	18.64	71.78	101.9	37.71	33.75	64.35	764.1	677.2	45.56	6.503	5.951	6.024	5.296	4.992	4.574	3.883	3.899	3.670	3.456	3.616	3.576	3.394	3.772	3.243	3.438	3.013	2.966	2.789	2.398	2.334	2.200	1.999	1.993	1.981	1.759	1.774	1.668	1.614	1.426	1.504	1.539	1.316	1.202	1.357	2.076	2.903	2.539	1.449	0.758	0.641	0.596	0.585	0.575	0.848	1.003	0.759	0.513	0.437	0.557	0.908	1.450	4.948	24.38	87.17	153.7	113.2	15.72	0.494	0.321	0.233	0.172
575.0	23.61	21.71	16.15	12.09	10.64	10.57	14.36	37.16	112.7	62.78	34.30	37.33	203.4	799.3	199.1	6.965	5.667	4.693	4.427	3.913	3.633	3.488	3.125	2.853	3.136	3.049	3.124	2.718	2.956	2.931	2.595	2.592	2.636	2.275	2.308	2.130	1.837	1.611	1.541	1.698	1.599	1.362	1.369	1.334	1.211	1.291	1.233	1.111	1.022	0.895	1.061	1.661	2.645	1.868	1.086	0.506	0.582	0.538	0.501	0.478	0.758	1.065	0.724	0.468	0.464	0.537	0.620	1.402	5.722	19.69	44.02	158.6	192.3	17.51	0.452	0.284	0.199
580.0	25.05	20.18	18.27	12.03	9.528	11.59	14.92	25.44	88.55	93.21	37.60	30.71	61.99	443.4	787.6	21.53	4.655	3.593	3.913	3.746	3.115	2.854	2.504	2.686	2.685	2.495	2.407	2.431	2.602	2.333	2.323	2.167	2.255	1.733	2.022	1.734	1.444	1.321	1.354	1.353	1.303	1.254	1.288	1.163	0.901	1.057	1.038	0.989	0.852	0.761	0.732	0.942	1.949	2.250	1.509	0.643	0.624	0.439	0.459	0.420	0.496	0.853	1.078	0.579	0.491	0.451	0.419	0.621	1.595	4.639	10.20	53.80	242.2	138.3	6.932	0.308	0.216
585.0	21.08	23.95	18.01	12.41	10.37	10.60	16.48	22.53	61.03	116.0	43.03	30.69	30.69	147.3	1012	106.4	5.495	4.029	3.980	3.232	2.873	2.567	2.601	1.987	2.239	2.238	2.131	2.045	2.234	2.181	2.272	1.735	1.870	1.665	1.473	1.650	1.355	1.347	1.097	1.255	1.213	1.152	1.046	0.961	1.004	1.011	0.911	0.877	0.756	0.755	0.671	0.683	1.336	2.023	1.672	0.951	0.553	0.516	0.485	0.438	0.433	0.569	0.914	0.879	0.368	0.354	0.393	0.389	0.554	1.334	2.471	12.60	99.97	229.7	43.47	3.078	0.242
590.0	24.05	20.47	17.15	12.58	11.43	13.74	20.62	28.85	50.33	112.8	76.87	35.75	27.04	46.91	551.2	432.7	22.54	4.038	3.481	3.153	2.379	2.274	2.253	1.847	1.863	1.872	1.722	1.858	1.833	1.620	1.746	1.517	1.529	1.370	1.278	1.323	1.246	1.030	0.966	1.060	0.960	0.966	1.013	0.927	0.831	0.945	0.752	0.710	0.587	0.606	0.592	0.540	0.786	1.289	1.628	1.333	0.684	0.513	0.396	0.462	0.372	0.499	0.632	0.880	0.661	0.461	0.409	0.335	0.455	0.579	0.840	3.019	23.32	86.85	138.5	85.87	10.68
595.0	30.34	23.98	21.33	17.31	19.87	29.20	44.81	68.49	88.66	129.5	150.1	79.59	44.76	36.53	159.0	555.9	133.4	5.524	3.041	2.507	2.334	2.011	1.850	1.487	1.525	1.471	1.364	1.458	1.457	1.246	1.421	1.215	1.264	1.148	1.247	1.048	1.183	0.894	0.842	0.960	0.746	0.727	0.854	0.758	0.799	0.749	0.602	0.679	0.549	0.468	0.453	0.458	0.576	0.657	1.305	1.768	1.307	0.719	0.533	0.547	0.536	0.570	0.621	0.951	0.907	0.723	0.581	0.450	0.424	0.334	0.538	0.932	5.564	19.64	43.46	111.9	84.33
600.0	36.40	32.25	24.19	23.63	33.22	58.26	95.69	138.7	172.7	202.4	244.3	157.0	81.78	61.49	82.68	375.4	399.1	16.03	3.012	2.241	2.599	1.937	1.398	1.463	1.475	1.356	1.269	1.512	1.502	1.185	1.282	1.008	1.009	1.005	1.131	0.957	1.018	0.865	0.798	0.959	0.801	0.670	0.746	0.636	0.699	0.642	0.634	0.528	0.544	0.385	0.395	0.501	0.517	0.548	0.844	1.432	1.440	1.267	0.790	0.882	0.961	0.932	1.024	1.016	1.243	1.321	0.892	0.703	0.590	0.349	0.497	0.507	1.606	4.672	10.14	38.39	96.40
605.0	47.16	32.92	25.01	29.08	44.51	80.98	137.9	198.1	257.8	282.1	304.1	237.1	117.7	90.71	84.07	192.3	542.5	76.20	3.381	2.389	1.915	1.964	1.215	1.309	1.254	1.222	1.218	1.274	1.096	1.016	1.165	0.983	1.033	0.933	0.901	0.824	0.901	0.978	0.906	0.953	0.775	0.813	0.684	0.581	0.644	0.583	0.532	0.567	0.475	0.400	0.429	0.393	0.486	0.513	0.671	1.231	1.536	1.486	1.219	1.208	1.265	1.361	1.512	1.212	1.195	1.357	1.352	1.101	0.784	0.568	0.522	0.611	0.755	1.474	2.640	9.307	39.19
610.0	45.56	32.11	25.38	26.97	47.27	80.43	138.8	201.2	264.3	278.2	273.3	258.1	128.4	88.24	79.80	106.8	341.0	349.3	12.03	2.021	1.779	1.520	1.260	1.025	1.150	1.064	1.068	1.048	1.070	0.945	0.998	0.835	0.866	0.782	0.760	0.736	0.853	0.817	0.750	0.706	0.726	0.759	0.569	0.554	0.537	0.560	0.467	0.528	0.382	0.372	0.340	0.414	0.469	0.483	0.584	0.898	1.336	1.509	1.404	1.113	1.193	1.365	1.388	1.223	1.303	1.226	1.268	1.153	0.804	0.585	0.451	0.540	0.547	0.706	0.972	2.454	9.438
615.0	40.28	28.38	23.01	25.22	41.89	78.53	123.6	180.1	228.1	253.6	228.7	228.2	131.7	82.04	71.64	76.64	128.1	479.2	95.27	2.295	1.895	1.330	1.067	0.973	0.883	0.897	0.815	0.882	0.949	0.744	0.844	0.749	0.823	0.612	0.699	0.632	0.708	0.669	0.669	0.599	0.709	0.703	0.538	0.544	0.490	0.485	0.379	0.485	0.382	0.325	0.383	0.388	0.364	0.398	0.541	0.595	0.907	1.170	1.348	1.265	1.063	1.259	1.131	1.195	1.028	1.029	1.031	1.078	0.923	0.604	0.458	0.423	0.419	0.503	0.511	0.965	2.518
620.0	39.03	26.71	19.20	21.34	37.21	74.54	118.0	168.9	215.2	237.3	216.9	193.0	141.4	78.02	68.00	67.76	69.42	317.2	306.3	5.661	1.791	1.265	1.041	0.883	0.819	0.825	0.733	0.753	0.954	0.703	0.766	0.769	0.681	0.530	0.610	0.539	0.585	0.743	0.599	0.572	0.589	0.607	0.523	0.504	0.434	0.554	0.331	0.433	0.404	0.351	0.375	0.367	0.374	0.426	0.437	0.521	0.652	1.048	1.372	1.232	1.079	1.109	1.144	1.136	1.055	0.957	0.935	0.964	0.797	0.564	0.563	0.412	0.385	0.473	0.414	0.587	0.972
625.0	33.84	24.70	19.08	20.64	37.08	65.51	109.5	160.0	205.7	223.6	200.3	172.2	139.9	78.48	62.63	65.69	54.80	120.2	448.8	31.43	1.907	1.331	0.839	1.004	0.743	0.797	0.784	0.724	0.783	0.676	0.603	0.660	0.643	0.498	0.544	0.445	0.555	0.613	0.550	0.641	0.554	0.385	0.363	0.500	0.408	0.505	0.331	0.383	0.304	0.302	0.313	0.344	0.341	0.388	0.416	0.570	0.616	0.822	1.141	1.262	1.150	1.114	1.049	1.025	0.985	0.979	0.915	0.810	0.702	0.707	0.542	0.419	0.496	0.346	0.333	0.549	0.629
630.0	33.97	25.16	19.05	20.74	32.63	59.86	100.2	151.5	190.1	196.8	180.9	147.1	119.3	90.21	58.84	59.53	45.89	35.73	295.3	171.9	5.528	1.220	0.976	0.773	0.688	0.670	0.714	0.666	0.648	0.691	0.551	0.627	0.573	0.489	0.509	0.474	0.509	0.505	0.510	0.514	0.468	0.391	0.357	0.416	0.362	0.407	0.314	0.320	0.320	0.244	0.278	0.304	0.310	0.331	0.381	0.474	0.598	0.685	0.808	1.081	1.183	1.067	1.095	0.993	0.889	0.887	0.759	0.721	0.567	0.656	0.609	0.494	0.431	0.365	0.402	0.405	0.564
635.0	32.94	22.49	17.57	18.18	28.31	53.26	88.43	134.1	160.0	174.6	163.8	125.7	91.48	90.86	56.68	52.34	39.67	14.23	83.65	283.4	55.22	1.411	1.064	0.735	0.628	0.646	0.700	0.530	0.598	0.549	0.513	0.517	0.319	0.366	0.384	0.371	0.428	0.409	0.452	0.399	0.533	0.339	0.386	0.338	0.307	0.346	0.324	0.240	0.239	0.264	0.243	0.263	0.339	0.312	0.389	0.416	0.545	0.515	0.680	0.835	1.053	0.983	0.961	0.945	0.777	0.767	0.706	0.607	0.655	0.449	0.535	0.601	0.415	0.415	0.319	0.318	0.486
640.0	23.69	21.16	14.90	15.58	27.96	44.83	75.64	115.6	140.4	151.0	136.9	109.8	72.15	81.32	58.99	44.69	36.08	9.327	22.33	209.5	179.7	2.349	1.077	0.733	0.611	0.591	0.632	0.515	0.640	0.585	0.456	0.398	0.292	0.387	0.414	0.394	0.414	0.413	0.338	0.355	0.444	0.407	0.320	0.318	0.340	0.273	0.307	0.241	0.202	0.227	0.180	0.234	0.259	0.309	0.359	0.389	0.491	0.499	0.557	0.681	0.782	0.873	0.909	0.932	0.675	0.591	0.590	0.508	0.663	0.390	0.464	0.502	0.476	0.393	0.340	0.339	0.350
645.0	24.39	20.43	13.42	14.69	22.50	39.34	63.73	94.77	117.2	129.3	115.7	95.04	61.44	61.87	60.21	40.68	30.80	8.408	8.655	87.75	303.8	13.79	1.259	0.733	0.682	0.551	0.703	0.567	0.478	0.495	0.409	0.458	0.277	0.406	0.393	0.395	0.327	0.357	0.353	0.345	0.309	0.415	0.316	0.299	0.290	0.265	0.262	0.257	0.210	0.237	0.192	0.226	0.260	0.245	0.246	0.318	0.452	0.423	0.556	0.554	0.709	0.817	0.932	0.719	0.577	0.599	0.549	0.399	0.474	0.326	0.279	0.386	0.531	0.406	0.418	0.294	0.295
650.0	21.84	17.64	13.83	13.31	18.64	33.81	55.00	79.53	99.47	110.7	97.98	82.16	51.29	48.87	62.39	38.92	27.74	8.502	6.012	26.38	299.4	66.24	1.379	0.771	0.688	0.443	0.526	0.551	0.511	0.470	0.515	0.419	0.309	0.351	0.361	0.328	0.268	0.354	0.399	0.332	0.282	0.347	0.409	0.306	0.287	0.240	0.305	0.233	0.229	0.244	0.208	0.221	0.231	0.230	0.289	0.344	0.434	0.410	0.542	0.457	0.638	0.718	0.737	0.603	0.716	0.540	0.446	0.404	0.460	0.273	0.246	0.352	0.400	0.464	0.336	0.249	0.346
