Sample:	'1
File name:	G2025070118±ı±±Õ‚≈≈ÀÆ.FD3
Run date:	'10:44:31, 07/04/2025
Operator:	Administrator
Comment:	'

Instrument
Model:	F-2700 FL Spectrophotometer
Serial number:	23B8-004
ROM Version:	4J14000 07

Instrument parameters
Measurement type:	3-D scan
Data mode:	Fluorescence
EX  Start WL:	220.0 nm
EX  End WL:	600.0 nm
EX Sampling interval:	5.0 nm
EM  Start WL:	230.0 nm
EM  End WL:	650.0 nm
EM Sampling interval:	5.0 nm
Scan speed:	12000 nm/min
EX Slit:	5.0 nm
EM Slit:	5.0 nm
PMT Voltage:	700 V
Response:	Auto 
Corrected spectra:	Off
Contour interval:	50.000

Peak integration
Integration method:	Rectangular
Sensitivity:	1
Threshold:	1.000

Peaks
No.	ApexEX/EM(nm)	Height(Data)
1	225.0/340.0	1057
2	225.0/600.0	46.73
3	230.0/345.0	1041
4	230.0/505.0	282.6
5	235.0/260.0	355.6
6	235.0/405.0	650.2
7	235.0/515.0	244.2
8	240.0/265.0	409.9
9	240.0/525.0	207.1
10	245.0/270.0	411.0
11	245.0/535.0	175.3
12	250.0/275.0	542.5
13	250.0/550.0	144.4
14	255.0/285.0	616.3
15	255.0/565.0	125.5
16	260.0/290.0	568.7
17	260.0/575.0	105.1
18	265.0/295.0	696.9
19	265.0/585.0	89.82
20	270.0/300.0	878.2
21	270.0/600.0	84.20
22	275.0/305.0	858.7
23	275.0/340.0	509.0
24	275.0/415.0	848.6
25	275.0/435.0	801.3
26	275.0/610.0	69.10
27	280.0/625.0	57.79
28	285.0/320.0	766.5
29	285.0/640.0	42.84
30	290.0/325.0	688.9
31	300.0/335.0	500.3
32	305.0/345.0	440.9
33	310.0/350.0	362.8
34	315.0/355.0	348.0
35	320.0/360.0	327.8
36	325.0/370.0	311.0
37	330.0/375.0	300.1
38	335.0/380.0	301.2
39	335.0/410.0	385.8
40	340.0/390.0	270.4
41	355.0/410.0	371.6
42	360.0/415.0	355.9
43	365.0/420.0	338.6
44	425.0/500.0	25.55
45	440.0/520.0	14.77
46	455.0/340.0	3.225
47	455.0/540.0	8.479
48	480.0/265.0	2.283
49	495.0/270.0	2.163
50	505.0/275.0	3.325
51	510.0/280.0	3.812
52	520.0/285.0	4.069
53	530.0/290.0	3.671
54	535.0/425.0	3.774
55	540.0/295.0	4.729
56	545.0/300.0	5.245
57	550.0/305.0	5.267
58	560.0/310.0	5.030
59	570.0/315.0	5.188
60	580.0/320.0	4.603
61	585.0/325.0	4.822

Data points
	220.0	225.0	230.0	235.0	240.0	245.0	250.0	255.0	260.0	265.0	270.0	275.0	280.0	285.0	290.0	295.0	300.0	305.0	310.0	315.0	320.0	325.0	330.0	335.0	340.0	345.0	350.0	355.0	360.0	365.0	370.0	375.0	380.0	385.0	390.0	395.0	400.0	405.0	410.0	415.0	420.0	425.0	430.0	435.0	440.0	445.0	450.0	455.0	460.0	465.0	470.0	475.0	480.0	485.0	490.0	495.0	500.0	505.0	510.0	515.0	520.0	525.0	530.0	535.0	540.0	545.0	550.0	555.0	560.0	565.0	570.0	575.0	580.0	585.0	590.0	595.0	600.0
230.0	69.26	935.1	1884	482.4	20.16	5.620	4.797	3.761	3.200	3.081	2.581	2.696	1.934	1.806	1.370	1.324	1.174	1.091	0.951	0.911	0.792	0.699	0.687	0.678	0.656	0.632	0.570	0.530	0.540	0.520	0.486	0.436	0.398	0.432	0.396	0.360	0.385	0.340	0.374	0.380	0.483	0.658	0.628	0.446	0.326	0.339	1.329	5.069	7.379	4.747	1.703	0.462	0.249	0.279	0.259	0.255	0.270	0.256	0.245	0.242	0.265	0.257	0.260	0.262	0.259	0.254	0.241	0.241	0.220	0.247	0.237	0.260	0.257	0.283	0.285	0.263	0.268
235.0	176.7	284.1	1325	1841	430.6	26.48	4.717	4.421	3.646	2.913	3.085	2.656	2.241	2.005	1.407	1.142	1.336	1.039	0.906	1.099	0.800	0.673	0.688	0.644	0.641	0.561	0.613	0.614	0.517	0.518	0.565	0.482	0.399	0.457	0.428	0.351	0.404	0.334	0.350	0.359	0.362	0.458	0.642	0.734	0.686	0.361	0.593	1.467	3.181	5.184	7.284	6.818	2.638	0.751	0.266	0.258	0.211	0.284	0.250	0.266	0.252	0.246	0.310	0.304	0.344	0.254	0.261	0.241	0.212	0.257	0.262	0.283	0.258	0.254	0.240	0.245	0.304
240.0	255.7	173.3	437.8	1776	1844	313.9	11.42	5.482	4.251	3.412	3.170	2.442	1.998	1.986	1.478	1.198	1.257	1.095	0.881	1.122	0.770	0.883	0.642	0.687	0.609	0.626	0.611	0.605	0.530	0.509	0.527	0.516	0.437	0.496	0.444	0.353	0.395	0.363	0.395	0.360	0.371	0.378	0.505	0.572	0.884	0.859	0.613	0.578	1.048	1.793	4.439	9.842	10.39	7.036	2.311	0.392	0.282	0.263	0.269	0.268	0.230	0.273	0.248	0.269	0.316	0.252	0.257	0.217	0.274	0.352	0.316	0.224	0.223	0.275	0.296	0.276	0.293
245.0	185.5	260.3	166.2	664.2	2335	1800	206.2	6.874	5.037	4.030	3.698	2.607	2.224	2.181	1.598	1.601	1.238	1.140	0.925	0.974	0.774	0.917	0.670	0.662	0.651	0.643	0.614	0.547	0.589	0.478	0.498	0.499	0.391	0.457	0.434	0.370	0.360	0.414	0.354	0.372	0.351	0.347	0.378	0.393	0.603	0.830	1.016	0.767	0.554	0.625	1.266	3.703	8.472	13.56	11.50	5.740	1.299	0.341	0.293	0.258	0.277	0.273	0.262	0.252	0.382	0.242	0.277	0.244	0.261	0.233	0.281	0.221	0.321	0.263	0.279	0.284	0.249
250.0	78.11	210.7	275.2	237.6	840.4	2189	2255	647.5	30.87	4.664	4.157	3.181	2.726	1.943	1.937	1.739	1.274	1.130	1.045	1.013	0.911	0.866	0.750	0.738	0.617	0.677	0.638	0.550	0.541	0.548	0.511	0.520	0.572	0.377	0.416	0.354	0.385	0.337	0.303	0.365	0.326	0.325	0.342	0.370	0.379	0.479	0.704	0.974	1.157	0.954	0.717	1.136	2.301	5.017	8.301	11.96	13.94	12.07	6.026	1.533	0.324	0.294	0.295	0.260	0.327	0.261	0.281	0.269	0.272	0.249	0.279	0.228	0.280	0.295	0.247	0.265	0.286
255.0	37.57	70.51	228.9	342.8	263.8	612.5	2313	2631	266.9	26.70	5.589	3.969	3.492	2.807	2.038	1.938	1.556	1.281	1.152	1.155	0.792	1.026	0.804	0.796	0.682	0.625	0.650	0.578	0.540	0.538	0.548	0.506	0.517	0.439	0.401	0.388	0.394	0.328	0.359	0.319	0.360	0.353	0.351	0.337	0.316	0.333	0.411	0.462	0.641	1.173	1.548	1.398	0.986	1.396	2.141	3.204	6.381	14.98	22.86	19.90	8.127	1.363	0.336	0.327	0.279	0.247	0.323	0.245	0.269	0.240	0.278	0.227	0.287	0.293	0.369	0.244	0.309
260.0	34.78	29.10	91.75	355.6	305.8	182.0	789.0	3336	2155	214.2	12.40	4.711	4.478	2.844	2.590	1.753	1.736	1.161	1.104	1.212	0.866	0.959	0.953	0.760	0.679	0.700	0.655	0.613	0.557	0.517	0.627	0.530	0.494	0.466	0.456	0.452	0.355	0.372	0.342	0.311	0.288	0.392	0.304	0.374	0.342	0.308	0.305	0.341	0.336	0.550	1.188	2.097	1.820	1.041	0.848	0.979	1.761	4.452	11.71	22.84	27.24	17.63	5.352	0.752	0.285	0.280	0.250	0.253	0.254	0.322	0.322	0.255	0.326	0.268	0.305	0.243	0.281
265.0	28.11	23.60	37.02	182.9	409.9	204.7	210.7	1329	4296	1868	153.9	7.952	5.235	3.486	2.429	1.784	1.680	1.220	1.180	1.191	0.921	0.867	0.894	0.882	0.822	0.730	0.641	0.631	0.626	0.585	0.577	0.607	0.482	0.464	0.532	0.456	0.405	0.455	0.337	0.377	0.302	0.359	0.320	0.411	0.388	0.366	0.254	0.372	0.276	0.343	0.563	1.194	2.283	2.251	1.312	0.675	0.782	1.321	3.136	7.563	17.62	29.37	28.48	14.47	2.974	0.439	0.277	0.364	0.312	0.311	0.240	0.281	0.353	0.292	0.290	0.231	0.307
270.0	49.36	35.39	31.43	63.33	232.8	411.0	240.3	345.1	1561	3770	3579	618.8	23.87	4.479	2.998	2.660	1.935	1.591	1.307	1.184	1.096	0.980	0.925	0.974	0.798	0.756	0.699	0.641	0.661	0.690	0.641	0.575	0.507	0.527	0.536	0.467	0.452	0.470	0.357	0.381	0.359	0.343	0.364	0.363	0.434	0.382	0.341	0.360	0.333	0.291	0.326	0.518	0.908	1.478	2.031	2.163	1.806	0.910	1.092	2.030	4.523	9.264	16.83	24.55	26.92	20.20	11.28	2.763	0.470	0.358	0.311	0.333	0.342	0.290	0.270	0.299	0.267
275.0	89.26	86.16	61.24	46.47	79.29	233.0	542.5	275.6	392.5	1021	3715	5686	785.9	17.96	4.825	3.652	2.543	2.269	1.505	1.461	1.195	1.257	1.025	0.953	0.915	0.722	0.714	0.779	0.640	0.615	0.802	0.559	0.580	0.709	0.600	0.599	0.526	0.543	0.507	0.435	0.425	0.450	0.412	0.431	0.565	0.520	0.526	0.514	0.430	0.380	0.356	0.388	0.464	0.604	0.760	1.383	2.809	3.325	2.148	1.065	1.411	2.414	4.186	6.107	9.379	20.64	37.56	30.38	15.10	2.314	0.407	0.337	0.337	0.355	0.296	0.277	0.392
280.0	139.4	156.1	108.2	62.79	48.41	96.58	415.6	557.1	203.1	281.5	1185	5490	4891	129.2	8.782	4.301	3.228	2.494	1.712	1.462	1.391	1.160	1.107	1.023	1.031	0.902	0.804	0.878	0.708	0.643	0.707	0.571	0.572	0.723	0.683	0.690	0.623	0.613	0.569	0.525	0.506	0.498	0.496	0.579	0.646	0.773	0.706	0.683	0.585	0.492	0.369	0.390	0.386	0.449	0.518	0.651	1.354	2.677	3.812	2.985	1.476	0.949	1.261	1.817	2.636	5.654	15.00	30.71	41.58	26.62	9.953	1.125	0.433	0.351	0.365	0.351	0.339
285.0	216.7	220.4	159.9	86.23	50.55	62.58	187.4	616.3	307.9	149.8	340.8	1916	6305	3497	89.94	6.176	4.013	2.833	1.935	1.814	1.549	1.201	1.081	1.120	1.056	0.930	0.851	0.741	0.776	0.817	0.632	0.630	0.572	0.606	0.738	0.795	0.753	0.688	0.554	0.618	0.557	0.590	0.681	0.727	0.714	0.918	0.911	0.871	0.767	0.580	0.428	0.494	0.374	0.431	0.506	0.491	0.705	1.220	2.473	3.946	4.069	1.887	0.966	0.852	1.119	1.886	3.945	8.712	20.66	37.20	34.76	21.41	4.965	0.566	0.522	0.355	0.321
290.0	289.0	284.5	217.8	121.1	69.87	66.21	101.8	276.9	568.7	446.2	211.1	536.1	2078	4571	3201	363.9	14.46	3.713	2.721	2.104	1.774	1.466	1.163	1.044	1.060	0.934	0.970	0.840	0.715	0.743	0.701	0.624	0.659	0.809	0.914	0.898	0.873	0.809	0.704	0.672	0.618	0.684	0.743	0.780	0.805	1.009	0.929	1.096	0.898	0.710	0.550	0.582	0.529	0.466	0.532	0.492	0.592	0.709	1.126	1.727	2.894	3.514	3.671	2.540	1.298	1.195	1.529	2.644	5.381	10.49	17.15	26.45	29.12	27.15	13.99	4.227	0.595
295.0	337.3	336.3	258.0	151.8	96.18	84.19	98.46	149.2	280.6	696.9	549.4	281.1	580.0	1198	3383	4825	466.6	10.90	4.031	2.632	1.989	1.660	1.374	1.254	1.019	1.025	1.025	0.847	0.720	0.870	0.729	0.808	0.726	0.759	0.969	0.880	1.041	0.806	0.765	0.778	0.674	0.687	0.877	0.891	1.004	0.985	1.096	1.244	1.126	0.767	0.642	0.695	0.659	0.583	0.595	0.622	0.628	0.715	0.832	0.906	1.312	1.659	2.671	4.582	4.729	2.719	1.364	1.513	2.139	3.148	4.573	6.694	8.511	17.41	35.20	34.47	20.86
300.0	345.8	364.4	279.1	177.2	121.3	113.2	115.8	146.9	206.5	459.0	878.2	427.8	279.2	373.6	1043	4621	3925	77.01	6.277	3.394	2.380	1.961	1.678	1.384	1.196	1.026	0.977	1.105	0.751	0.845	0.670	0.753	0.775	0.718	0.977	1.118	1.158	0.850	0.883	0.840	0.763	0.783	0.791	0.850	1.019	1.101	1.129	1.272	1.076	0.888	0.694	0.804	0.772	0.598	0.749	0.740	0.761	0.771	1.024	0.917	1.065	1.179	1.544	2.401	4.168	5.245	3.373	2.210	1.571	1.716	2.055	2.396	2.654	4.746	11.87	25.76	41.78
305.0	365.9	396.3	316.1	196.6	149.5	137.5	154.0	189.2	233.4	343.6	727.6	858.7	337.3	240.3	342.0	1564	5078	2829	56.50	4.469	2.934	2.508	1.770	1.462	1.284	1.173	1.015	1.103	0.976	0.877	0.706	0.815	0.753	0.818	0.870	1.086	1.054	0.886	0.838	0.867	0.779	0.811	0.999	1.046	1.086	1.219	1.074	1.313	1.039	0.989	0.740	0.804	0.928	0.705	0.796	0.837	0.963	1.015	1.112	1.136	1.215	1.372	1.431	1.857	2.757	3.881	5.267	4.855	2.947	1.883	1.640	1.686	1.339	2.052	3.504	7.017	16.74
310.0	367.1	388.4	329.3	219.7	168.6	167.9	196.8	226.4	263.1	335.3	472.2	777.7	729.0	332.6	222.3	448.8	1650	3544	2460	264.7	11.30	3.014	2.210	1.836	1.424	1.349	1.185	1.025	0.969	0.893	0.766	0.717	0.801	0.829	0.965	1.022	0.962	0.990	0.915	0.901	0.895	0.838	0.900	0.937	1.119	1.232	1.210	1.360	1.129	1.006	0.865	0.931	0.930	0.840	0.938	0.889	1.111	1.215	1.295	1.345	1.361	1.513	1.561	1.885	2.228	2.491	3.205	4.263	5.030	4.538	3.077	1.921	1.506	1.557	1.841	2.301	4.496
315.0	390.6	417.5	358.2	246.0	194.0	194.4	217.7	255.3	282.5	339.5	411.9	505.5	704.2	690.6	271.2	221.4	454.9	905.2	2542	3778	371.2	8.434	3.125	2.241	1.668	1.739	1.338	1.009	0.978	1.123	0.848	0.765	0.834	0.784	0.928	1.092	0.864	0.987	0.894	0.910	0.870	0.866	0.962	0.946	1.191	1.271	1.291	1.399	1.197	0.976	0.844	1.030	0.929	0.940	1.014	1.012	1.241	1.295	1.394	1.356	1.530	1.944	1.774	2.017	1.950	2.203	2.300	2.734	2.913	3.727	5.188	4.164	2.769	1.747	1.497	1.599	1.936
320.0	506.7	548.1	438.5	279.6	221.5	217.4	238.5	272.8	311.9	363.8	422.4	462.8	534.7	766.5	491.0	208.9	216.2	272.3	741.6	3371	3111	60.57	5.211	3.006	1.970	1.661	1.313	1.243	1.082	0.975	0.936	0.782	0.821	0.845	0.987	0.966	0.943	1.061	1.035	0.993	0.891	0.931	1.105	1.109	1.384	1.600	1.617	1.849	1.429	1.059	0.943	1.256	1.083	1.067	1.043	1.061	1.304	1.416	1.425	1.404	1.631	1.808	1.887	2.139	2.088	2.293	2.214	2.500	2.550	2.723	3.457	4.587	4.603	3.213	1.992	1.447	1.415
325.0	606.5	734.6	604.6	367.5	254.4	238.3	262.1	295.8	331.7	387.9	440.2	478.8	477.1	575.4	688.9	319.0	181.7	141.0	217.6	1085	3664	2296	46.40	3.960	2.387	1.695	1.431	1.368	1.214	1.061	0.923	0.757	0.845	0.892	0.917	0.956	1.039	0.982	1.026	0.976	1.050	1.067	1.149	1.285	1.532	1.779	2.017	2.568	1.982	1.470	1.243	1.436	1.263	1.174	1.151	1.244	1.330	1.540	1.450	1.528	1.811	1.897	1.955	2.107	2.217	2.454	2.239	2.392	2.435	2.581	2.833	3.155	4.173	4.822	3.869	2.200	1.514
330.0	678.0	868.0	772.5	514.3	341.6	283.6	292.2	312.7	346.8	395.0	455.2	490.6	481.3	468.5	534.0	528.1	290.1	141.8	118.2	292.4	1136	2591	2432	226.4	11.19	2.541	2.018	1.583	1.381	1.245	1.057	0.889	0.904	0.795	0.883	1.102	0.949	0.923	0.973	0.961	1.110	1.135	1.149	1.389	1.645	2.143	2.448	2.851	2.595	2.087	1.665	1.742	1.474	1.475	1.437	1.343	1.430	1.527	1.586	1.631	1.792	1.928	1.982	2.238	2.156	2.324	2.421	2.506	2.401	2.616	2.741	2.718	2.891	3.298	3.654	3.776	3.176
335.0	761.0	972.8	902.6	643.1	434.9	347.7	326.8	344.7	367.7	421.1	469.3	503.2	499.8	461.5	420.9	438.0	500.3	237.6	121.3	130.6	299.0	643.9	1961	3170	338.9	8.643	2.749	1.965	1.575	1.167	1.112	1.080	1.041	0.867	0.941	0.897	0.937	0.946	1.012	0.937	1.007	1.146	1.408	1.526	1.778	2.288	2.670	3.092	2.970	2.440	2.037	2.305	1.902	1.867	1.510	1.644	1.640	1.735	1.819	1.908	1.850	2.038	1.999	2.153	2.287	2.513	2.489	2.527	2.501	2.592	2.738	2.601	2.516	2.954	2.737	2.722	3.372
340.0	770.5	1057	1002	726.7	484.5	383.2	355.7	357.9	383.7	427.2	470.2	509.0	497.9	461.5	405.3	357.8	452.7	399.7	161.6	111.4	124.5	184.0	552.8	2612	2665	53.25	4.961	2.447	2.033	1.526	1.172	1.118	0.980	0.960	0.898	0.931	0.895	1.025	0.971	0.906	1.032	1.211	1.413	1.491	1.836	2.519	2.812	3.225	3.071	2.771	2.137	2.581	2.120	2.007	1.748	1.724	1.762	1.913	1.741	1.906	1.894	2.114	2.172	2.251	2.387	2.661	2.635	2.733	2.663	2.667	2.688	2.561	2.642	2.675	2.425	2.530	2.394
345.0	779.9	1036	1041	764.4	544.7	423.2	373.3	376.0	385.7	409.6	461.0	504.1	488.6	454.2	400.9	338.4	338.7	440.9	277.1	125.4	97.39	91.02	158.9	802.3	2832	2068	44.46	3.472	2.251	1.763	1.333	1.195	1.136	0.955	1.047	1.066	0.915	0.921	0.963	0.913	1.062	1.167	1.352	1.493	1.972	2.455	2.783	3.216	3.029	2.722	2.319	2.784	2.175	2.053	1.981	1.701	1.798	2.020	1.823	1.966	1.879	1.911	2.110	2.303	2.307	2.414	2.567	2.565	2.513	2.711	2.615	2.551	2.721	2.486	2.571	2.431	2.319
350.0	754.5	960.4	984.2	787.9	591.5	468.3	414.7	390.7	397.3	415.8	453.5	479.8	477.5	450.0	397.5	340.3	299.3	324.3	362.8	241.9	123.1	89.83	86.10	216.5	845.2	1998	1995	208.1	12.51	2.379	1.608	1.268	1.194	1.005	1.048	1.056	0.974	0.951	0.933	0.967	1.063	1.204	1.228	1.409	1.846	2.146	2.521	3.175	2.933	2.587	2.488	2.656	2.404	2.220	2.083	1.820	2.035	1.999	1.989	1.966	2.137	1.936	2.108	2.269	2.262	2.225	2.454	2.481	2.448	2.662	2.556	2.488	2.750	2.507	2.637	2.444	2.233
355.0	725.8	889.5	926.3	799.2	622.2	515.3	455.1	431.5	424.4	432.5	451.3	468.4	464.2	444.4	401.9	352.6	312.4	283.1	283.8	348.0	227.3	120.9	93.51	101.9	227.2	489.7	1359	2467	334.4	10.95	2.105	1.766	1.244	1.201	1.177	1.067	1.033	1.095	1.018	1.020	1.006	1.244	1.229	1.472	1.818	2.068	2.496	2.816	2.743	2.652	2.343	2.526	2.537	2.373	2.381	2.103	2.285	1.982	2.105	2.086	2.115	2.183	2.511	2.540	2.382	2.340	2.457	2.385	2.540	2.533	2.697	2.569	2.666	2.693	2.647	2.497	2.421
360.0	645.9	839.4	868.4	776.5	639.2	549.1	487.9	453.8	448.3	443.0	457.6	466.2	459.5	443.8	408.4	360.1	321.8	283.7	258.2	302.0	327.8	183.4	115.2	94.11	101.5	146.9	373.1	1805	2326	266.5	5.847	2.174	1.502	1.437	1.204	1.149	1.084	1.038	1.024	0.973	1.037	1.126	1.356	1.435	1.746	2.037	2.319	2.837	2.796	2.485	2.319	2.638	2.716	2.501	2.229	2.315	2.379	2.305	2.172	2.132	2.272	2.234	2.194	2.399	2.401	2.482	2.485	2.386	2.380	2.491	2.449	2.367	2.655	2.686	2.362	2.480	2.494
365.0	663.8	824.9	815.5	754.5	651.2	576.3	517.0	475.0	455.2	459.1	455.9	462.8	452.5	443.1	405.4	370.9	330.5	297.2	269.5	260.7	322.9	284.5	149.8	107.9	89.77	80.09	118.1	527.0	2161	2024	46.09	3.660	1.877	1.407	1.269	1.143	0.926	1.039	1.131	1.062	1.030	1.052	1.367	1.426	1.601	1.995	2.117	2.493	2.648	2.422	2.278	2.795	2.572	2.492	2.329	2.331	2.487	2.377	2.407	2.301	2.410	2.251	2.466	2.435	2.502	2.505	2.454	2.457	2.356	2.326	2.564	2.405	2.647	2.700	2.418	2.539	2.403
370.0	622.3	772.1	794.5	738.8	671.8	597.7	544.2	505.2	483.4	477.6	467.0	462.8	452.7	433.4	402.8	372.9	339.9	312.3	286.5	263.1	269.4	311.0	256.3	150.6	106.4	83.63	72.76	152.4	618.8	1673	1847	198.1	12.91	2.000	1.433	1.350	1.054	1.037	1.084	1.078	1.084	1.115	1.230	1.396	1.466	1.828	2.004	2.290	2.347	2.163	2.167	2.679	2.589	2.756	2.382	2.497	2.583	2.388	2.450	2.483	2.476	2.337	2.390	2.429	2.383	2.435	2.432	2.409	2.354	2.350	2.520	2.438	2.549	2.701	2.465	2.554	2.593
375.0	591.9	722.8	761.2	725.7	666.5	612.9	561.1	530.4	502.3	481.5	473.9	465.8	451.9	426.7	403.5	371.7	348.9	324.9	307.6	282.4	264.2	263.0	300.1	246.6	141.9	103.1	80.40	80.81	170.2	404.7	1110	2204	310.6	13.02	1.907	1.599	1.258	1.216	1.163	1.219	1.055	1.204	1.156	1.389	1.487	1.901	1.864	2.258	2.178	2.072	2.181	2.802	2.615	2.724	2.599	2.522	2.733	2.500	2.512	2.624	2.558	2.441	2.545	2.536	2.447	2.601	2.511	2.343	2.418	2.423	2.542	2.473	2.380	2.530	2.448	2.521	2.747
380.0	571.6	708.5	727.1	709.4	663.1	627.8	564.7	531.4	507.7	489.2	477.3	466.0	452.0	430.4	404.9	373.1	351.0	335.5	315.7	293.8	268.8	251.9	267.4	301.2	198.4	123.6	93.22	76.33	79.78	119.2	295.9	1492	1943	240.1	5.670	2.059	1.681	1.391	1.105	1.111	1.049	1.160	1.194	1.284	1.366	1.599	1.771	1.975	2.162	2.019	2.175	2.553	2.459	2.631	2.601	2.540	2.716	2.708	2.502	2.522	2.441	2.450	2.615	2.507	2.420	2.437	2.334	2.276	2.293	2.329	2.465	2.347	2.544	2.535	2.478	2.238	2.635
385.0	555.7	681.2	718.2	688.6	664.1	619.2	568.4	534.4	507.9	497.3	476.8	465.6	449.3	423.7	400.1	370.4	353.5	337.7	319.8	298.4	279.9	257.8	247.4	277.4	265.3	157.8	109.2	86.37	69.36	62.97	92.42	420.9	1643	1608	38.40	3.810	2.035	1.539	1.173	1.212	1.072	1.111	1.328	1.229	1.546	1.709	1.735	2.021	2.083	2.030	1.979	2.372	2.448	2.599	2.524	2.410	2.611	2.489	2.640	2.383	2.686	2.484	2.562	2.540	2.472	2.492	2.414	2.315	2.387	2.282	2.330	2.409	2.684	2.429	2.471	2.470	2.465
390.0	522.0	642.4	674.0	678.7	643.2	616.8	578.8	541.6	518.8	512.5	492.5	482.3	464.8	436.5	403.2	375.8	355.1	338.2	324.4	306.5	291.6	270.8	254.2	248.7	270.4	240.0	156.4	111.8	88.67	69.58	61.38	125.9	460.8	1230	1372	482.6	12.55	2.596	1.580	1.388	1.120	1.134	1.279	1.397	1.420	1.669	1.709	2.052	2.077	1.845	2.002	2.420	2.528	2.715	2.443	2.483	2.786	2.613	2.796	2.585	2.738	2.603	2.579	2.455	2.504	2.509	2.495	2.418	2.448	2.527	2.385	2.496	2.516	2.470	2.544	2.428	2.441
395.0	529.5	614.3	661.2	646.8	648.6	613.3	583.0	573.3	560.1	560.7	554.0	542.8	517.4	478.9	442.0	397.5	363.9	345.2	332.0	319.0	313.1	292.7	279.6	270.4	259.8	277.7	253.9	169.8	131.3	108.9	89.93	86.30	143.1	313.6	802.7	1888	262.9	14.34	2.648	1.775	1.340	1.302	1.216	1.328	1.575	1.642	1.809	2.092	2.100	1.946	1.968	2.460	2.413	2.600	2.454	2.626	2.795	2.814	2.797	2.647	2.706	2.737	2.690	2.680	2.699	2.783	2.549	2.658	2.786	2.659	2.617	2.504	2.382	2.647	2.496	2.603	2.615
400.0	533.4	588.1	653.7	644.9	641.8	629.0	611.4	590.9	594.1	611.3	634.1	630.6	604.5	549.2	497.2	431.0	385.6	357.1	343.6	333.8	332.3	319.1	313.5	305.2	289.5	289.1	320.0	254.7	186.5	158.9	131.8	111.2	101.7	124.0	241.6	1218	1477	208.1	7.307	2.382	1.618	1.319	1.316	1.519	1.597	1.740	1.738	2.013	2.065	2.042	1.995	2.588	2.670	2.505	2.703	2.941	2.813	2.978	3.098	2.770	3.060	3.010	3.069	2.872	2.985	3.114	3.028	2.880	3.037	2.964	2.686	2.802	2.773	2.808	2.709	2.707	2.596
405.0	513.5	560.5	635.6	650.2	646.8	637.7	627.6	619.1	643.2	696.6	729.4	748.5	706.5	636.9	567.7	472.2	407.1	365.3	353.9	350.7	351.2	351.1	352.6	346.0	336.6	323.2	347.2	341.4	259.9	215.6	184.5	153.8	125.4	106.1	117.4	370.9	1240	1237	34.92	3.979	2.023	1.434	1.353	1.570	1.525	1.658	1.625	2.145	2.214	2.009	2.032	2.621	2.764	2.822	2.801	2.900	3.028	3.014	3.074	3.252	2.963	3.356	3.211	3.212	3.492	3.267	3.411	3.157	3.242	3.236	3.149	3.107	2.997	3.153	2.873	2.685	2.871
410.0	497.1	559.0	629.4	619.7	637.2	634.7	636.4	651.7	690.3	761.3	818.0	833.0	795.0	712.8	620.9	506.9	421.4	374.9	360.0	359.0	363.2	374.4	383.1	385.8	381.6	366.1	361.6	371.6	351.2	283.1	236.7	196.8	158.0	124.9	107.8	147.3	371.3	948.4	1038	147.1	11.03	1.943	1.649	1.647	1.674	1.627	1.678	2.131	2.139	2.069	2.101	2.737	2.649	2.909	3.005	3.127	3.181	3.236	3.181	3.373	3.472	3.543	3.617	3.345	3.700	3.619	3.676	3.370	3.559	3.405	3.386	3.250	3.242	3.014	2.903	2.849	2.747
415.0	495.1	536.8	599.5	603.9	620.1	627.7	628.4	655.0	688.3	766.5	817.3	848.6	796.3	714.5	618.7	499.0	407.5	363.4	349.6	345.8	356.3	372.4	380.2	385.0	384.4	368.5	356.8	348.4	355.9	334.4	263.1	211.8	170.0	133.4	108.9	99.64	128.0	241.9	587.9	1183	236.5	9.528	2.060	2.011	1.813	1.698	1.733	2.000	2.060	1.952	2.091	2.804	2.665	2.772	3.004	3.069	3.146	3.265	3.235	3.208	3.483	3.318	3.810	3.617	3.698	3.758	3.533	3.406	3.449	3.432	3.398	3.316	3.283	3.011	2.924	2.718	2.988
420.0	463.0	523.5	568.7	590.0	600.8	603.4	616.2	629.0	682.1	741.0	799.2	815.1	767.1	685.8	595.0	480.4	388.4	347.7	334.8	335.6	342.0	358.6	369.0	375.6	374.7	359.5	345.9	330.6	322.4	338.6	284.3	215.0	168.2	132.6	108.7	86.58	71.47	78.27	158.2	778.9	1131	173.8	4.362	1.959	1.743	1.727	1.788	2.069	1.959	1.786	1.957	2.665	2.604	2.638	2.912	3.049	3.010	3.269	3.306	3.136	3.462	3.303	3.507	3.512	3.621	3.440	3.362	3.407	3.454	3.294	3.192	2.854	3.003	3.049	2.828	2.554	2.619
425.0	479.8	514.0	558.1	562.9	584.0	592.9	612.7	632.8	670.8	725.2	787.3	790.7	748.0	672.3	574.2	467.0	374.6	334.2	320.8	327.5	331.8	346.7	358.3	366.6	366.6	356.6	341.9	328.0	309.1	314.8	306.6	230.7	173.1	134.1	109.1	85.88	59.66	41.96	48.73	217.2	909.2	912.7	31.34	2.547	1.703	1.793	1.718	2.066	1.918	1.818	1.929	2.486	2.589	2.544	2.916	2.899	3.103	3.142	3.058	3.047	3.138	3.519	3.546	3.774	3.414	3.345	3.541	3.235	3.327	3.229	3.067	2.839	3.098	2.892	2.699	2.531	2.516
430.0	553.3	494.6	541.6	545.0	568.1	579.9	606.5	633.5	673.2	727.1	786.2	800.9	747.4	671.7	571.1	463.0	371.1	328.2	312.4	315.9	323.6	340.6	352.9	365.8	368.6	362.0	351.3	333.6	315.5	302.4	298.9	267.8	196.3	146.1	118.0	92.13	63.53	38.19	26.39	57.71	248.2	690.7	800.4	135.6	8.970	2.180	1.836	2.098	1.906	1.820	2.065	2.420	2.666	2.626	2.937	2.905	3.124	3.232	3.230	3.139	3.377	3.517	3.466	3.551	3.498	3.609	3.403	3.257	3.293	3.161	2.957	2.874	2.942	2.770	2.585	2.455	2.570
435.0	913.7	492.0	516.3	533.7	560.6	577.3	610.6	632.9	674.0	732.9	784.9	801.3	747.8	669.1	564.7	455.7	363.9	313.7	302.3	305.1	314.1	333.4	345.7	360.0	364.1	363.1	353.1	337.5	320.7	303.8	284.0	267.9	231.0	164.1	127.0	100.1	69.94	42.22	24.33	23.94	62.83	163.5	470.2	1095	207.4	8.707	2.071	2.085	1.920	1.730	2.036	2.431	2.642	2.652	2.881	3.048	3.195	3.236	3.407	3.224	3.304	3.309	3.442	3.352	3.489	3.628	3.400	3.113	3.333	3.301	2.987	2.970	2.806	2.843	2.661	2.558	2.404
440.0	1300	566.1	498.0	528.2	541.6	562.4	590.5	626.1	664.6	708.9	774.1	773.0	718.9	644.1	540.5	439.0	347.3	302.1	288.7	293.3	303.8	316.2	332.6	345.0	350.0	349.1	341.2	331.0	314.2	298.0	270.3	245.9	231.5	180.0	129.8	100.9	71.37	44.03	25.55	17.80	22.70	43.40	124.3	765.1	937.9	159.7	3.983	2.263	2.000	1.782	1.879	2.408	2.573	2.613	2.850	2.826	3.155	3.028	3.272	3.345	3.245	3.236	3.404	3.317	3.460	3.457	3.272	3.365	3.136	3.121	2.909	3.031	2.827	2.567	2.603	2.432	2.433
445.0	1400	843.8	484.6	503.1	517.5	547.7	567.1	603.2	634.9	669.0	723.4	731.9	681.9	603.2	506.0	409.1	326.5	290.7	273.6	276.9	284.8	296.4	313.3	324.4	328.2	329.1	318.8	309.5	296.8	280.2	255.1	225.8	206.5	184.0	133.7	98.14	69.75	44.26	26.92	18.16	14.61	16.78	33.72	217.7	818.8	891.5	26.45	2.719	2.026	1.758	1.757	2.471	2.420	2.459	2.689	2.878	2.892	3.180	3.104	3.321	3.421	3.168	3.093	3.088	3.387	3.266	3.153	3.108	2.955	3.021	2.796	2.749	2.642	2.372	2.189	2.410	2.299
450.0	953.5	1457	574.8	461.9	489.5	508.9	543.2	568.1	583.2	619.1	649.2	649.2	601.9	536.1	455.3	366.9	297.1	262.1	251.0	252.2	256.4	268.8	279.4	289.8	293.8	291.4	283.5	277.4	266.9	251.4	230.5	203.2	173.9	159.9	139.4	99.53	67.12	43.18	27.16	18.95	14.77	12.21	13.73	53.94	227.0	717.6	739.8	119.3	7.549	1.885	1.872	2.359	2.319	2.388	2.381	2.641	2.747	2.932	2.844	2.879	2.903	3.004	2.936	2.977	3.153	2.892	2.842	2.996	2.740	2.720	2.559	2.443	2.446	2.262	2.096	2.132	2.092
455.0	516.2	1509	1049	438.3	465.3	477.2	509.2	524.7	535.2	559.4	584.1	573.3	536.6	471.0	402.9	327.0	267.0	238.1	225.6	226.1	229.1	237.0	247.0	256.7	260.7	258.6	251.9	246.9	236.7	224.7	207.9	182.4	154.3	133.7	125.3	108.0	70.42	43.14	28.23	20.26	15.38	12.78	10.55	17.71	55.26	168.7	412.8	824.0	169.5	7.188	1.843	2.282	2.082	2.232	2.353	2.447	2.697	2.721	2.948	2.762	2.747	2.909	2.780	2.818	2.727	2.588	2.705	2.492	2.380	2.489	2.286	2.440	2.161	2.210	2.031	1.939	1.946
460.0	367.1	1052	1597	507.4	418.0	443.2	477.4	492.8	513.1	532.4	539.0	525.9	487.1	430.3	367.7	301.0	243.3	214.8	210.4	206.6	209.3	217.7	228.2	233.9	238.7	235.1	231.2	227.2	218.4	205.7	193.7	169.8	142.0	121.5	107.9	104.7	76.95	44.95	29.12	21.50	16.53	13.47	10.84	10.30	17.67	42.13	106.5	544.2	738.5	122.2	3.889	2.195	2.186	2.045	2.172	2.342	2.440	2.478	2.822	2.449	2.661	2.661	2.488	2.605	2.459	2.550	2.679	2.404	2.508	2.366	2.110	2.085	1.960	2.042	1.975	1.800	1.775
465.0	317.9	609.8	1733	760.5	392.8	427.5	453.0	468.6	473.5	489.3	498.6	488.7	454.1	394.2	340.4	274.9	227.8	202.7	195.2	187.6	192.4	199.2	208.3	212.3	217.9	217.4	213.1	208.1	202.0	190.0	180.2	157.8	133.2	113.0	97.21	92.68	81.29	49.50	30.29	22.63	17.47	13.90	11.32	9.498	9.500	14.17	27.84	152.4	638.0	607.5	22.16	2.758	2.142	2.124	2.353	2.282	2.297	2.315	2.491	2.384	2.556	2.579	2.357	2.282	2.374	2.413	2.461	2.162	2.190	2.151	2.069	2.076	2.018	1.923	1.902	1.898	1.616
470.0	313.0	387.7	1134	1442	461.3	388.0	407.4	418.4	425.2	436.7	445.9	434.0	395.5	346.9	295.3	242.2	202.2	180.0	171.1	167.3	169.5	173.7	181.8	186.7	189.6	189.6	186.7	183.7	177.8	170.4	160.1	141.0	120.1	101.4	86.51	75.49	70.42	56.91	35.28	23.10	18.08	14.54	11.80	10.01	8.347	8.005	10.24	37.91	176.0	460.4	505.1	112.4	7.746	2.062	1.973	2.098	2.149	2.417	2.225	2.303	2.335	2.205	2.244	2.227	2.122	2.231	2.258	1.948	1.927	1.954	1.932	1.889	1.862	1.683	1.681	1.570	1.484
475.0	318.9	297.1	522.6	1558	944.8	349.5	355.6	370.9	376.3	377.8	379.5	373.1	342.3	297.0	253.7	205.6	175.6	155.8	146.9	145.9	144.3	147.7	155.0	158.8	163.8	161.5	159.2	155.5	151.8	145.0	136.5	122.5	103.5	88.29	76.66	64.44	54.69	51.30	43.00	26.55	18.48	15.07	12.51	9.946	8.578	6.984	6.599	12.31	42.31	107.3	255.3	550.3	161.9	7.618	2.011	1.871	1.855	2.114	1.877	2.021	1.834	1.786	2.074	2.058	1.877	1.964	1.745	1.700	1.586	1.581	1.639	1.622	1.509	1.495	1.385	1.408	1.265
480.0	332.8	285.1	321.0	1075	1508	392.5	327.8	345.2	340.1	338.6	345.1	334.3	301.4	267.3	226.6	184.9	157.3	139.8	133.4	131.4	129.4	132.0	134.8	142.0	143.2	142.0	139.4	135.7	133.3	129.3	122.3	109.0	93.75	79.01	68.49	59.21	47.23	42.16	43.48	32.07	19.82	14.96	12.59	10.23	8.833	7.639	6.276	6.700	12.56	26.79	64.75	321.1	547.9	130.4	3.672	1.890	1.889	1.868	1.726	1.817	1.872	1.760	1.878	1.845	1.757	1.745	1.674	1.571	1.563	1.469	1.530	1.382	1.506	1.449	1.112	1.340	1.143
485.0	299.3	305.6	256.6	587.0	1706	534.5	308.8	312.3	308.8	313.4	314.9	299.2	270.5	240.5	207.8	170.0	142.6	128.0	122.7	118.8	118.1	120.4	123.7	127.5	128.1	128.8	125.7	124.7	120.4	116.5	110.2	98.34	85.02	72.62	62.65	53.24	43.90	35.89	37.47	35.96	23.59	15.34	12.20	10.83	9.089	8.014	6.479	5.686	6.132	8.701	17.06	87.71	429.4	488.6	25.56	2.379	1.679	1.951	1.853	1.717	1.707	1.646	1.714	1.753	1.554	1.484	1.594	1.401	1.367	1.438	1.400	1.342	1.307	1.327	1.198	1.266	1.129
490.0	227.6	318.9	249.3	319.2	1139	1301	352.4	283.8	278.0	284.6	279.9	269.9	239.5	211.7	179.1	150.8	127.3	113.2	110.0	106.6	104.2	105.4	107.3	111.0	112.3	111.7	110.0	109.4	106.8	102.0	97.56	87.67	76.42	65.55	57.50	49.39	40.34	32.85	29.25	31.77	29.04	18.81	13.13	11.00	9.235	8.151	7.138	5.936	4.970	4.777	6.247	22.17	114.7	321.4	339.9	115.6	8.568	1.903	1.735	1.613	1.609	1.576	1.527	1.518	1.503	1.441	1.439	1.361	1.356	1.308	1.320	1.310	1.201	1.114	1.116	1.130	1.129
495.0	171.2	302.4	273.2	226.8	489.9	1515	759.0	254.7	247.2	246.5	247.6	232.9	210.4	185.9	157.2	131.5	112.2	100.4	95.85	92.21	91.24	91.52	94.90	95.98	96.20	96.56	96.50	94.58	92.85	89.32	85.97	77.53	68.48	58.05	51.48	44.23	36.75	30.45	25.96	24.02	27.95	24.71	15.75	11.12	9.325	8.178	7.166	6.190	5.257	4.092	4.029	7.318	27.71	74.92	197.5	499.6	182.6	9.707	1.828	1.585	1.429	1.465	1.287	1.401	1.306	1.371	1.284	1.287	1.281	1.139	1.187	1.256	1.208	1.054	0.929	0.870	0.972
500.0	154.3	241.7	280.3	200.5	266.3	1085	1300	283.9	228.5	222.9	218.7	209.9	189.4	161.1	141.9	118.5	102.4	91.63	85.44	83.58	83.33	82.75	83.80	84.87	85.17	85.73	84.71	84.41	82.13	80.40	76.78	70.28	60.83	52.70	46.52	40.28	34.27	28.67	24.10	21.16	22.12	25.55	19.01	11.31	8.998	7.842	7.198	5.988	5.520	4.091	3.435	3.779	8.299	18.91	49.82	279.7	510.4	147.9	4.109	1.619	1.450	1.362	1.354	1.331	1.249	1.246	1.253	1.236	1.179	1.175	1.123	1.089	1.056	1.022	0.846	1.064	0.964
505.0	144.4	181.3	282.6	216.0	196.9	578.6	1580	374.8	207.9	204.4	196.3	190.7	173.0	150.2	125.7	105.6	91.13	80.59	77.87	76.21	74.12	73.66	74.65	76.03	77.06	76.92	75.33	73.82	75.16	72.30	69.76	63.45	55.95	48.63	42.28	37.45	31.92	25.53	21.95	19.59	17.92	21.67	20.61	13.89	9.623	8.169	6.773	5.925	5.298	4.511	3.476	3.222	4.052	6.193	12.96	73.90	348.7	481.8	29.30	2.115	1.271	1.233	1.403	1.214	1.102	1.221	1.166	1.041	0.956	1.042	0.966	0.928	0.955	0.859	0.974	0.847	0.925
510.0	116.3	143.5	223.3	230.5	169.3	269.9	1120	1136	235.3	177.6	171.8	164.8	145.5	128.3	108.6	91.67	78.67	70.09	66.80	64.59	63.24	63.03	63.39	65.11	65.19	65.05	64.39	63.60	62.61	61.46	59.62	54.43	48.34	42.30	37.06	32.77	27.77	23.06	20.05	17.44	15.35	16.18	18.50	16.90	11.36	8.453	6.634	5.744	5.020	4.444	3.880	3.208	3.009	3.238	4.663	18.21	90.53	279.3	300.0	118.8	8.862	1.454	1.194	1.154	1.012	0.997	1.004	0.886	0.903	0.939	0.927	0.917	0.833	0.838	0.911	0.764	0.905
515.0	108.8	121.0	146.9	244.2	168.5	170.4	445.0	1496	573.8	157.1	147.1	138.4	123.2	105.3	94.63	79.46	65.98	58.84	56.78	55.09	53.55	51.76	52.78	54.48	55.01	54.20	53.80	53.19	51.86	50.68	49.84	45.35	40.17	35.63	31.51	28.30	23.90	20.36	17.99	15.63	13.58	12.86	13.33	15.79	14.52	9.221	6.621	5.324	4.859	4.152	3.793	3.662	2.856	2.704	2.704	5.571	21.69	64.25	140.0	378.9	174.4	9.468	1.092	0.975	0.967	0.888	0.987	0.856	0.890	0.869	0.772	0.787	0.685	0.705	0.663	0.718	0.840
520.0	95.10	111.1	119.3	212.9	189.8	138.3	204.5	1086	1161	176.9	129.8	121.8	110.6	93.54	82.28	71.36	61.14	54.24	51.32	49.16	47.45	47.21	46.92	47.03	46.00	47.04	46.19	45.88	46.06	45.31	43.59	39.58	35.22	31.72	28.13	25.64	22.23	18.82	16.53	14.00	12.51	11.58	11.00	12.75	14.77	10.90	6.724	5.326	4.554	3.959	3.579	3.694	3.187	2.605	2.432	2.643	6.320	15.60	34.15	187.3	373.1	127.0	4.401	0.967	0.989	1.030	0.829	0.826	0.764	0.794	0.727	0.726	0.687	0.778	0.754	0.669	0.688
525.0	92.66	103.0	102.6	159.2	207.1	126.8	140.2	521.2	1567	270.7	118.6	108.8	97.77	83.28	72.04	60.80	53.87	49.68	45.75	43.86	42.64	41.46	40.98	42.14	40.79	41.39	39.96	40.88	40.64	38.89	38.13	34.43	31.62	27.17	25.34	22.35	20.40	17.13	15.52	13.48	11.49	10.78	9.968	10.01	12.76	12.18	7.861	5.375	4.309	3.798	3.316	3.198	3.199	2.561	2.162	2.125	2.819	4.868	8.916	47.34	216.9	334.2	30.55	2.006	0.892	0.865	0.896	0.806	0.773	0.785	0.695	0.689	0.696	0.714	0.735	0.568	0.605
530.0	84.13	90.45	91.45	110.6	192.5	146.2	109.2	208.0	1075	1039	152.3	92.32	83.03	72.80	61.42	52.24	46.52	42.08	39.24	37.28	36.09	34.85	35.51	34.86	34.54	35.41	34.00	33.91	33.74	33.54	32.30	29.79	26.85	23.90	21.62	19.74	16.99	15.09	13.61	11.70	10.36	9.809	8.658	7.877	8.818	11.23	9.856	6.303	4.304	3.559	3.096	2.824	2.764	2.725	2.346	1.938	1.939	2.307	3.065	11.73	54.03	167.8	226.9	114.8	9.615	0.894	0.808	0.744	0.713	0.681	0.646	0.605	0.550	0.643	0.652	0.615	0.612
535.0	69.22	72.23	75.17	78.38	132.9	175.3	92.73	117.5	372.0	1415	493.6	78.65	71.00	60.80	51.29	43.54	38.40	35.33	31.84	30.86	29.69	29.13	29.20	30.28	29.80	28.53	28.27	28.55	28.38	27.68	26.54	24.86	23.37	21.11	18.25	16.73	14.42	12.88	11.46	10.45	9.347	8.036	7.609	6.707	6.830	7.774	9.705	8.185	4.611	3.279	2.790	2.619	2.200	2.535	2.735	2.054	1.663	1.645	1.835	3.585	13.04	38.60	82.58	248.3	160.8	11.00	0.827	0.706	0.625	0.635	0.569	0.548	0.520	0.518	0.558	0.540	0.589
540.0	57.36	69.21	69.47	74.12	91.06	171.1	104.2	86.32	149.0	941.4	1080	102.2	62.40	53.14	44.01	38.27	33.46	30.82	28.89	26.60	26.09	25.24	25.33	25.88	25.46	24.53	24.65	23.99	24.19	23.60	23.19	21.54	19.64	18.44	15.52	14.49	12.89	11.46	10.21	9.751	8.242	7.543	6.913	5.990	5.892	5.668	7.243	8.479	5.737	3.464	2.726	2.374	2.063	2.226	2.272	2.399	1.692	1.410	1.517	1.716	3.875	9.396	19.68	102.5	260.3	118.2	5.334	0.792	0.628	0.556	0.501	0.458	0.534	0.510	0.499	0.526	0.530
545.0	59.79	59.58	63.22	64.92	71.45	147.8	120.7	72.78	88.13	392.1	1432	193.4	54.83	45.86	39.27	33.41	30.27	27.00	25.55	23.58	22.47	21.94	22.11	21.76	22.50	21.30	21.53	21.18	20.99	21.16	19.83	18.46	17.20	15.84	13.86	12.50	11.13	10.08	9.032	8.274	7.484	6.580	6.345	5.590	5.376	4.739	5.372	7.537	6.769	4.053	2.569	2.304	1.999	1.937	1.873	2.126	1.949	1.338	1.299	1.304	1.766	2.933	5.216	24.70	126.1	245.7	31.85	2.361	0.641	0.615	0.493	0.581	0.481	0.516	0.404	0.524	0.460
550.0	54.77	62.33	55.18	53.83	57.20	91.39	144.4	75.08	65.00	139.4	877.3	867.7	79.74	38.58	32.53	27.15	24.38	22.64	21.16	19.05	18.44	18.69	17.64	17.97	17.77	17.61	17.79	17.34	17.10	17.13	16.02	15.20	14.08	12.64	11.32	10.33	9.470	8.584	7.526	6.891	6.358	5.554	5.144	4.743	4.371	4.073	4.036	4.859	5.875	4.959	3.146	2.067	1.782	1.606	1.563	1.621	1.900	1.693	1.306	1.132	1.228	1.409	1.874	6.224	30.17	103.3	156.3	90.82	10.06	0.682	0.595	0.527	0.423	0.476	0.460	0.441	0.447
555.0	56.74	56.34	50.04	46.93	47.22	55.21	127.6	96.60	51.23	68.63	270.7	1156	334.6	33.35	26.35	22.86	18.92	18.18	17.38	15.73	14.89	14.45	14.39	14.58	13.83	13.74	13.72	13.20	13.82	13.98	12.56	12.66	11.13	10.19	9.013	8.114	7.461	6.935	5.931	5.908	5.414	4.688	4.215	4.207	3.833	3.622	3.087	3.187	3.652	4.689	3.976	2.344	1.654	1.455	1.460	1.422	1.398	1.648	1.674	1.005	0.980	0.956	1.109	2.127	7.378	23.63	47.74	145.6	117.9	11.22	0.609	0.538	0.461	0.459	0.408	0.416	0.400
560.0	50.53	52.90	51.78	42.75	36.69	40.96	87.18	125.3	52.67	50.50	96.00	742.0	804.3	47.86	22.74	19.61	15.92	15.74	14.26	14.28	12.22	12.55	11.98	11.49	11.94	11.72	11.48	11.40	11.93	11.36	10.80	10.10	9.266	8.757	7.848	6.957	6.121	6.175	5.216	4.760	4.485	4.086	3.671	3.646	3.237	3.061	2.751	2.593	2.637	3.646	3.872	2.756	1.689	1.379	1.238	1.179	1.061	1.254	1.739	1.383	0.805	0.766	0.896	1.045	2.223	5.904	11.30	53.01	154.8	85.06	5.316	0.516	0.412	0.463	0.357	0.408	0.376
565.0	52.42	53.81	45.94	36.80	32.07	31.55	54.77	125.5	61.98	39.51	53.35	284.4	1098	125.3	19.75	16.66	14.09	12.91	12.11	11.65	10.05	10.62	9.991	9.866	10.25	10.15	9.761	9.970	9.856	9.589	9.041	8.287	7.993	7.432	6.892	5.819	5.620	5.041	4.469	4.230	3.869	3.611	3.144	2.981	2.645	2.627	2.347	2.287	1.976	2.566	3.351	3.200	1.736	1.274	1.122	1.165	1.050	1.040	1.353	1.585	1.046	0.854	0.752	0.703	1.068	1.910	3.066	12.61	63.95	142.7	32.19	2.328	0.504	0.371	0.343	0.415	0.423
570.0	54.70	53.03	44.21	34.21	28.54	29.04	36.97	90.66	90.72	38.88	39.08	92.29	665.6	624.2	39.59	13.86	11.69	10.29	9.637	9.452	8.111	8.339	8.252	8.263	8.222	7.948	7.720	7.721	7.831	7.498	7.353	6.618	6.422	5.947	5.333	4.694	4.509	4.175	3.739	3.606	3.265	3.005	2.716	2.410	2.225	2.285	2.018	1.879	1.675	1.765	2.211	2.912	2.151	1.424	0.979	0.892	0.957	0.881	0.975	1.159	1.333	0.988	0.672	0.643	0.728	0.919	1.144	3.309	15.19	52.68	90.65	61.59	9.129	0.528	0.407	0.329	0.371
575.0	54.92	51.51	40.72	28.92	22.58	25.18	29.16	49.60	105.1	51.34	31.38	42.43	192.6	823.3	125.2	12.47	10.07	9.267	8.453	7.127	6.519	6.616	6.322	6.531	6.337	6.434	6.099	5.937	6.203	6.155	5.793	5.339	5.006	4.671	4.271	3.868	3.830	3.502	3.018	2.630	2.793	2.571	2.190	2.027	2.011	1.956	1.807	1.699	1.521	1.222	1.397	1.995	2.202	1.866	1.084	0.837	0.828	0.780	0.786	0.746	1.155	1.278	0.911	0.647	0.631	0.572	0.667	1.141	3.810	12.17	24.82	77.64	79.07	9.735	0.401	0.450	0.343
580.0	56.86	47.27	42.61	28.31	21.86	23.99	23.98	32.80	93.14	69.95	29.60	30.49	62.11	523.0	538.8	20.45	8.641	7.633	6.549	5.787	5.953	5.502	5.720	5.615	5.522	5.338	5.073	4.896	5.162	4.974	4.895	4.478	4.338	3.878	3.720	3.304	3.120	2.736	2.401	2.353	2.286	2.294	1.868	1.765	1.804	1.646	1.572	1.523	1.216	0.993	1.078	1.301	1.952	1.933	1.301	0.831	0.788	0.723	0.643	0.664	0.679	0.994	1.208	0.803	0.667	0.542	0.561	0.681	1.184	3.129	5.984	26.24	90.71	35.73	4.393	0.426	0.427
585.0	49.04	47.49	38.96	27.30	19.11	22.82	22.43	25.27	62.28	89.82	32.98	26.48	31.14	194.1	748.5	75.64	7.562	6.333	5.729	5.602	5.067	4.857	4.773	4.678	4.575	4.508	4.217	4.447	4.368	4.396	4.184	3.970	3.719	3.466	3.176	3.063	2.686	2.579	2.213	1.973	2.008	1.968	1.773	1.576	1.513	1.623	1.342	1.179	1.076	1.068	0.964	1.028	1.349	1.658	1.555	0.869	0.817	0.677	0.674	0.533	0.588	0.721	1.157	0.900	0.653	0.497	0.519	0.504	0.752	1.089	1.719	6.299	34.69	86.94	30.09	1.735	0.464
590.0	46.17	45.93	37.25	24.58	21.25	19.45	18.79	20.77	35.38	88.35	48.34	24.16	23.11	59.32	457.4	378.9	17.13	5.533	5.036	4.683	4.249	4.132	3.833	3.799	3.752	3.829	3.555	3.529	3.640	3.669	3.473	3.094	3.133	2.873	2.524	2.474	2.250	2.089	1.920	1.770	1.615	1.571	1.520	1.400	1.234	1.353	1.108	1.029	0.938	0.864	0.756	0.789	0.925	1.303	1.534	1.302	0.829	0.627	0.572	0.561	0.549	0.564	0.852	0.953	0.766	0.557	0.473	0.420	0.530	0.607	0.712	1.767	8.283	31.87	56.63	40.08	6.281
595.0	49.38	44.46	33.35	21.89	18.46	16.98	18.30	19.51	24.20	56.03	77.22	25.58	19.53	23.57	129.2	531.0	83.60	5.059	4.219	3.984	3.583	3.754	3.179	3.121	3.303	3.048	2.768	2.869	3.095	3.142	2.784	2.567	2.335	2.265	2.030	1.814	1.784	1.869	1.507	1.476	1.289	1.179	1.345	1.198	1.040	0.966	0.996	0.814	0.740	0.686	0.660	0.668	0.689	0.800	1.195	1.299	0.966	0.636	0.536	0.574	0.599	0.505	0.536	0.585	0.881	0.717	0.454	0.471	0.513	0.472	0.443	0.690	2.133	7.398	15.19	46.27	36.44
600.0	41.99	46.73	31.28	24.42	17.38	15.75	14.50	19.26	20.27	35.71	84.20	34.26	18.83	16.33	38.01	348.7	310.9	8.701	3.903	3.439	2.939	3.152	3.058	2.775	3.007	2.529	2.342	2.534	2.530	2.604	2.332	2.227	2.025	1.970	1.724	1.649	1.541	1.465	1.230	1.293	1.190	1.107	1.015	1.088	0.972	0.917	0.890	0.788	0.742	0.620	0.592	0.563	0.535	0.686	0.846	1.100	1.061	0.712	0.553	0.475	0.513	0.495	0.437	0.512	0.697	0.850	0.627	0.433	0.387	0.436	0.433	0.451	0.758	1.994	3.703	15.10	50.12
605.0	44.00	39.51	31.53	24.04	16.33	17.41	15.41	17.54	19.82	27.94	73.02	50.23	20.96	15.54	16.62	133.7	456.9	39.89	3.521	3.128	2.572	2.646	2.597	2.225	2.379	2.139	2.034	2.391	2.295	2.333	2.044	1.862	1.781	1.657	1.550	1.505	1.349	1.296	1.330	1.104	0.989	0.939	0.946	0.847	0.827	0.912	0.822	0.775	0.635	0.632	0.561	0.528	0.526	0.541	0.597	0.758	1.076	0.844	0.626	0.410	0.407	0.447	0.438	0.552	0.449	0.744	0.832	0.532	0.413	0.433	0.461	0.389	0.433	0.721	1.132	3.710	19.57
610.0	41.40	37.54	30.99	19.81	17.00	15.82	17.98	18.31	20.18	24.95	48.99	69.10	26.81	16.53	13.65	39.86	301.4	229.8	7.700	2.668	2.434	2.217	2.221	1.917	2.024	2.098	1.782	1.767	1.753	1.858	1.742	1.621	1.518	1.389	1.282	1.272	1.055	1.106	1.087	0.947	0.925	0.855	0.796	0.742	0.712	0.683	0.694	0.659	0.589	0.543	0.460	0.448	0.437	0.440	0.458	0.541	0.830	0.982	0.688	0.473	0.423	0.471	0.444	0.473	0.423	0.509	0.719	0.617	0.471	0.439	0.399	0.357	0.393	0.460	0.528	1.104	4.717
615.0	41.96	33.10	29.16	19.68	15.23	16.05	17.22	18.02	19.47	23.51	33.11	66.02	38.14	17.16	12.46	15.94	88.95	350.9	56.17	2.354	2.217	2.008	1.753	1.691	1.702	1.656	1.524	1.380	1.422	1.465	1.291	1.328	1.297	1.213	1.160	1.105	0.966	0.930	0.961	0.802	0.790	0.768	0.633	0.674	0.677	0.632	0.552	0.519	0.546	0.482	0.365	0.448	0.430	0.329	0.462	0.445	0.611	0.900	0.725	0.600	0.473	0.362	0.426	0.413	0.354	0.471	0.542	0.612	0.556	0.448	0.317	0.425	0.329	0.364	0.411	0.532	1.323
620.0	35.40	30.48	28.00	21.46	13.37	15.87	14.75	17.64	18.30	21.08	26.00	48.50	51.86	16.75	11.75	10.56	26.38	254.4	193.0	4.010	1.833	1.645	1.572	1.541	1.447	1.333	1.373	1.455	1.210	1.319	1.183	1.328	1.037	0.936	1.015	0.980	0.807	0.797	0.752	0.701	0.709	0.583	0.570	0.564	0.540	0.533	0.483	0.464	0.446	0.428	0.321	0.359	0.390	0.388	0.423	0.402	0.404	0.645	0.700	0.625	0.508	0.423	0.384	0.398	0.410	0.463	0.482	0.478	0.675	0.478	0.296	0.361	0.333	0.324	0.414	0.364	0.586
625.0	32.21	29.39	23.30	18.76	14.35	14.00	15.27	15.71	19.06	18.58	24.38	36.26	57.79	19.08	12.01	8.716	11.57	104.3	316.1	20.11	1.764	1.585	1.557	1.400	1.286	1.176	1.121	1.319	1.118	1.252	1.016	1.093	0.999	0.893	0.873	0.811	0.692	0.702	0.612	0.697	0.630	0.623	0.491	0.551	0.535	0.461	0.438	0.429	0.390	0.340	0.299	0.346	0.392	0.440	0.341	0.390	0.428	0.505	0.651	0.662	0.556	0.436	0.414	0.396	0.414	0.441	0.368	0.339	0.541	0.597	0.499	0.334	0.309	0.334	0.360	0.385	0.324
630.0	34.30	30.24	23.38	18.41	13.71	13.77	15.35	14.66	17.44	19.68	21.60	26.84	48.78	31.59	12.51	8.480	7.873	29.19	228.2	133.4	3.943	1.470	1.301	1.239	1.162	1.016	1.054	1.001	1.019	1.065	0.976	0.902	0.811	0.794	0.835	0.729	0.622	0.610	0.549	0.604	0.612	0.494	0.484	0.457	0.519	0.482	0.424	0.430	0.361	0.334	0.263	0.324	0.346	0.358	0.290	0.394	0.348	0.411	0.485	0.570	0.534	0.467	0.446	0.394	0.355	0.411	0.361	0.353	0.445	0.511	0.611	0.372	0.336	0.332	0.369	0.362	0.336
635.0	32.21	31.71	22.49	19.11	14.78	13.61	13.56	14.76	16.12	17.34	20.14	23.21	31.07	42.82	14.63	8.537	7.677	9.947	70.62	254.4	34.35	1.487	1.326	1.061	0.996	1.033	0.870	0.874	0.852	0.834	0.793	0.879	0.765	0.672	0.677	0.583	0.547	0.540	0.511	0.518	0.622	0.410	0.448	0.413	0.446	0.391	0.415	0.345	0.371	0.299	0.259	0.335	0.295	0.335	0.326	0.318	0.340	0.346	0.351	0.389	0.599	0.555	0.441	0.345	0.358	0.362	0.385	0.289	0.361	0.446	0.482	0.549	0.408	0.325	0.309	0.325	0.308
640.0	34.41	29.75	26.16	19.99	14.15	14.00	14.58	15.34	15.20	17.71	21.01	22.39	23.75	42.84	20.10	8.616	7.369	6.041	19.85	206.6	119.5	2.104	1.255	1.129	0.895	0.904	0.757	0.789	0.891	0.706	0.704	0.661	0.718	0.676	0.565	0.558	0.514	0.521	0.514	0.402	0.493	0.372	0.444	0.402	0.387	0.423	0.349	0.395	0.373	0.293	0.288	0.339	0.297	0.283	0.313	0.336	0.407	0.288	0.354	0.322	0.499	0.444	0.390	0.435	0.405	0.390	0.391	0.285	0.390	0.355	0.389	0.572	0.520	0.435	0.309	0.301	0.316
645.0	40.22	40.43	26.54	17.22	14.89	12.97	15.06	14.46	15.83	18.53	19.41	22.20	19.83	34.73	27.37	9.969	7.521	5.645	7.131	94.29	215.7	9.937	1.287	1.116	0.812	0.913	0.722	0.695	0.836	0.712	0.628	0.756	0.657	0.599	0.568	0.540	0.479	0.425	0.463	0.423	0.461	0.401	0.487	0.370	0.381	0.418	0.361	0.343	0.340	0.272	0.296	0.341	0.308	0.327	0.290	0.372	0.348	0.264	0.348	0.289	0.422	0.436	0.476	0.401	0.343	0.360	0.385	0.366	0.387	0.377	0.367	0.418	0.521	0.451	0.292	0.302	0.322
650.0	47.54	43.08	28.26	17.69	14.51	12.78	15.47	14.02	15.32	17.46	18.96	20.72	20.38	26.04	33.46	11.41	7.472	5.089	4.193	29.15	219.3	49.07	1.239	0.926	0.848	0.818	0.674	0.701	0.794	0.707	0.656	0.635	0.601	0.524	0.569	0.552	0.543	0.425	0.443	0.439	0.415	0.351	0.414	0.365	0.304	0.392	0.352	0.385	0.347	0.274	0.291	0.323	0.311	0.304	0.313	0.325	0.327	0.248	0.319	0.277	0.317	0.341	0.499	0.474	0.353	0.348	0.377	0.348	0.345	0.331	0.349	0.379	0.571	0.428	0.369	0.321	0.359
