Sample:	'1
File name:	L2025080903¶«¶þÂ·ÇÅ.FD3
Run date:	'12:47:25, 08/10/2025
Operator:	Administrator
Comment:	'

Instrument
Model:	F-2700 FL Spectrophotometer
Serial number:	3064-004
ROM Version:	4J14000 07

Instrument parameters
Measurement type:	3-D scan
Data mode:	Fluorescence
EX  Start WL:	220.0 nm
EX  End WL:	600.0 nm
EX Sampling interval:	5.0 nm
EM  Start WL:	230.0 nm
EM  End WL:	650.0 nm
EM Sampling interval:	5.0 nm
Scan speed:	12000 nm/min
EX Slit:	5.0 nm
EM Slit:	5.0 nm
PMT Voltage:	700 V
Response:	Auto 
Corrected spectra:	Off
Contour interval:	50.000

Peak integration
Integration method:	Rectangular
Sensitivity:	1
Threshold:	1.000

Peaks
No.	ApexEX/EM(nm)	Height(Data)
1	225.0/635.0	31.43
2	230.0/340.0	 1307
3	230.0/590.0	63.75
4	230.0/605.0	57.67
5	235.0/355.0	 1357
6	235.0/570.0	62.84
7	235.0/580.0	64.99
8	235.0/600.0	56.94
9	235.0/615.0	49.10
10	245.0/530.0	263.8
11	250.0/545.0	249.7
12	255.0/280.0	705.5
13	255.0/555.0	224.3
14	260.0/285.0	 1009
15	260.0/565.0	205.8
16	265.0/290.0	 1227
17	265.0/580.0	203.1
18	270.0/295.0	 1761
19	270.0/590.0	189.4
20	275.0/305.0	 2219
21	275.0/375.0	 1978
22	275.0/605.0	189.4
23	280.0/235.0	7.888
24	280.0/310.0	 2129
25	280.0/340.0	 1902
26	280.0/615.0	156.8
27	285.0/315.0	 1981
28	285.0/360.0	 1930
29	285.0/630.0	117.6
30	290.0/645.0	91.84
31	320.0/360.0	 1088
32	335.0/380.0	 1109
33	445.0/525.0	62.88
34	460.0/340.0	6.041
35	505.0/275.0	3.120
36	515.0/280.0	3.949
37	520.0/285.0	4.621
38	530.0/290.0	5.732
39	540.0/295.0	8.005
40	545.0/300.0	9.025
41	550.0/305.0	9.662
42	560.0/310.0	9.685
43	560.0/335.0	8.587
44	565.0/340.0	8.791
45	570.0/315.0	9.856
46	575.0/320.0	10.04
47	580.0/365.0	9.089
48	585.0/325.0	8.093

Data points
	220.0	225.0	230.0	235.0	240.0	245.0	250.0	255.0	260.0	265.0	270.0	275.0	280.0	285.0	290.0	295.0	300.0	305.0	310.0	315.0	320.0	325.0	330.0	335.0	340.0	345.0	350.0	355.0	360.0	365.0	370.0	375.0	380.0	385.0	390.0	395.0	400.0	405.0	410.0	415.0	420.0	425.0	430.0	435.0	440.0	445.0	450.0	455.0	460.0	465.0	470.0	475.0	480.0	485.0	490.0	495.0	500.0	505.0	510.0	515.0	520.0	525.0	530.0	535.0	540.0	545.0	550.0	555.0	560.0	565.0	570.0	575.0	580.0	585.0	590.0	595.0	600.0
230.0	22.37	788.0	 5196	 3088	203.2	9.819	10.53	6.747	7.307	5.788	8.643	5.131	5.641	5.487	4.827	4.178	4.637	3.454	3.413	3.095	3.767	2.916	2.627	2.644	2.669	2.564	2.173	1.925	1.908	1.805	1.420	1.710	1.669	1.505	1.500	1.477	1.086	1.062	0.870	0.883	0.963	0.804	0.927	0.673	0.663	0.719	1.639	7.643	14.75	11.86	5.118	1.137	0.523	0.438	0.320	0.346	0.286	0.297	0.272	0.192	0.226	0.183	0.176	0.215	0.100	0.081	0.093	0.081	0.099	0.017	0.024	-0.009	0.045	-0.004	0.004	0.021	-0.019
235.0	53.45	207.1	 2084	 5470	 4264	385.1	15.58	7.184	7.751	6.919	9.546	6.608	7.888	6.589	4.551	4.977	4.592	3.884	4.189	3.747	3.448	3.089	2.481	2.676	2.495	2.322	1.962	2.362	1.918	2.064	1.581	1.467	1.667	1.539	1.764	1.577	1.140	1.144	0.837	0.743	1.049	0.747	0.836	0.733	0.956	0.656	0.801	2.446	5.291	9.327	13.98	14.29	7.107	1.885	0.375	0.323	0.328	0.247	0.211	0.243	0.260	0.109	0.183	0.263	0.107	0.145	0.072	0.110	0.042	-0.006	-0.046	-0.003	0.048	-0.045	-0.056	0.036	0.020
240.0	51.44	103.1	514.7	 2867	 9373	 4126	246.2	12.20	14.84	7.730	9.886	5.648	7.133	6.560	3.986	4.982	3.324	3.828	3.748	3.296	3.343	3.366	2.485	3.118	2.210	2.748	1.822	2.210	1.828	1.774	1.956	1.788	1.485	1.527	1.334	1.368	1.229	1.297	0.853	0.978	1.111	0.907	0.768	0.731	0.977	0.993	0.894	1.072	1.693	2.905	6.877	17.04	22.34	15.44	5.996	0.727	0.338	0.293	0.243	0.183	0.299	0.183	0.115	0.145	0.165	0.107	0.165	0.006	0.024	0.022	0.003	0.134	-0.033	-0.085	-0.091	0.092	-0.050
245.0	33.91	100.0	172.1	751.2	 6166	 9833	 4223	83.98	18.12	8.631	12.02	5.315	6.745	7.417	5.645	5.889	4.206	4.130	3.743	4.310	4.257	3.163	3.024	3.525	2.399	3.209	2.229	2.038	2.217	2.002	1.497	1.767	1.386	1.462	1.319	1.190	1.380	1.095	0.965	0.754	1.005	1.179	0.731	0.658	0.842	0.891	1.264	1.273	0.886	1.078	1.915	5.311	13.99	25.39	25.71	14.57	4.646	0.623	0.349	0.148	0.272	0.244	0.113	0.163	0.340	0.115	0.189	0.064	0.080	0.106	0.075	0.083	0.021	-0.017	-0.065	0.039	0.012
250.0	24.43	56.55	150.2	255.9	 1592	 5129	9999.9	 5325	283.7	17.88	18.59	10.25	8.398	9.061	7.641	4.852	4.842	5.030	3.750	4.175	4.158	3.401	3.371	2.967	2.854	2.996	2.384	2.396	2.196	2.244	1.768	1.875	1.717	1.612	1.461	1.535	1.160	0.785	1.152	1.042	1.050	0.960	0.821	0.801	0.917	0.891	0.940	1.124	1.126	1.091	0.985	1.617	3.642	7.892	13.97	21.43	32.30	25.38	14.77	4.348	0.798	0.290	0.337	0.136	0.263	0.071	0.166	0.021	0.022	0.081	0.114	0.022	0.033	-0.006	0.002	-0.017	0.059
255.0	33.92	27.85	75.76	246.7	490.5	 1187	 4562	9999.9	9999.9	381.6	29.49	14.00	11.17	10.53	8.999	6.943	5.395	5.873	4.341	4.670	3.784	3.764	3.607	3.359	3.184	3.030	2.800	2.345	2.332	2.536	2.412	2.074	2.011	1.733	1.303	1.128	1.108	1.022	0.960	1.115	0.938	0.807	0.976	0.721	0.880	0.808	0.695	0.701	0.974	0.978	1.631	1.342	1.492	2.155	3.672	5.379	11.05	23.73	44.30	46.28	26.28	5.829	0.686	0.132	0.262	0.115	0.173	-0.001	0.076	0.046	0.056	-0.005	-0.053	0.060	-0.040	0.048	0.006
260.0	26.67	17.92	32.50	137.7	366.2	371.9	 1112	 4993	9999.9	 4391	307.9	22.44	15.40	14.09	11.76	7.976	6.088	5.251	4.299	4.900	4.209	3.886	3.470	3.882	3.050	3.306	2.781	2.807	2.565	3.001	2.282	1.926	2.212	1.926	1.495	1.228	1.063	1.167	0.968	1.032	1.185	0.918	0.883	0.761	0.798	0.729	0.917	0.689	0.645	0.831	0.941	1.548	1.616	1.574	1.212	1.516	2.680	6.448	18.74	43.14	64.03	44.67	20.59	2.218	0.319	0.237	0.179	0.082	0.113	0.205	0.248	0.106	0.031	0.007	0.042	-0.007	0.024
265.0	31.91	27.33	25.03	53.70	264.6	352.1	313.2	 1269	9999.9	9999.9	 3884	144.5	22.01	17.06	12.35	8.831	7.867	5.880	5.615	5.223	4.944	3.901	4.556	3.307	3.264	3.326	2.776	2.605	3.046	2.687	2.342	2.454	2.127	1.861	1.635	1.579	1.253	1.269	1.173	1.380	1.096	0.940	1.050	0.768	0.731	0.847	1.003	0.681	0.653	0.633	0.689	1.026	1.445	1.932	1.586	0.947	1.015	1.817	4.640	12.27	31.91	65.60	84.03	41.25	11.19	0.655	0.215	0.202	0.207	0.115	0.266	0.089	0.084	0.054	0.016	0.041	0.058
270.0	74.48	66.52	54.12	39.72	110.0	302.5	419.2	413.5	 2591	 7112	9999.9	9999.9	216.1	29.87	17.53	11.26	9.409	7.004	6.716	5.789	5.339	4.742	4.618	3.702	3.487	3.872	3.370	3.156	2.932	3.098	2.528	2.531	1.898	2.259	1.690	1.613	1.288	1.375	1.255	1.271	1.269	1.066	1.171	1.126	1.123	1.004	0.992	0.759	0.877	0.722	0.753	0.709	0.760	1.228	1.685	2.006	1.818	1.661	1.687	3.347	7.876	18.38	37.99	62.32	63.14	72.64	26.11	11.45	1.040	0.190	0.230	0.148	0.163	0.098	0.144	0.121	0.052
275.0	166.8	151.0	115.6	84.73	67.64	128.8	399.7	608.0	802.2	 1797	 4787	9999.9	9999.9	285.1	31.75	18.16	11.92	9.557	8.766	6.371	5.968	4.857	4.746	3.814	4.391	4.051	3.809	3.662	3.266	3.489	2.571	2.566	2.231	2.191	1.719	1.972	2.005	1.594	1.426	1.481	1.592	1.395	1.383	1.492	1.474	1.519	1.341	1.052	1.026	1.037	0.821	0.929	0.736	0.685	0.745	1.339	2.211	3.120	2.866	2.082	2.612	4.879	9.386	15.20	20.80	54.18	111.1	128.5	41.11	10.14	0.659	0.436	0.225	0.182	0.239	0.268	0.350
280.0	276.0	225.2	207.3	139.6	95.81	92.70	242.0	705.5	702.7	698.4	 1436	 6257	9999.9	9999.9	187.3	27.36	17.60	11.08	10.27	8.056	7.132	5.291	5.643	4.200	4.949	3.944	3.773	3.756	2.906	3.759	3.101	2.552	2.553	2.327	2.333	1.792	2.235	1.759	2.159	1.777	1.920	1.923	2.266	2.030	2.125	2.068	1.895	1.563	1.363	1.246	0.891	0.954	0.823	0.659	0.848	1.183	1.702	2.429	3.702	3.949	2.531	2.773	3.383	5.060	6.234	14.35	39.52	97.77	146.9	56.85	30.88	3.219	0.383	0.319	0.368	0.239	0.279
285.0	312.5	335.5	320.5	212.6	135.7	110.1	177.0	469.6	 1009	661.3	768.7	 1873	 8956	9999.9	 2227	113.8	25.15	16.11	13.43	9.366	7.791	6.927	5.178	5.086	4.625	4.631	4.107	4.425	3.788	3.788	2.903	2.812	2.731	2.450	1.902	2.496	2.693	2.363	2.580	2.276	2.262	2.337	2.371	2.825	2.426	2.458	2.232	2.178	1.835	1.575	1.159	1.396	0.915	0.766	0.807	1.042	1.369	1.576	2.273	3.699	4.621	3.674	2.686	3.139	3.251	4.988	10.67	25.95	64.94	126.0	177.0	49.61	17.27	1.116	0.314	0.246	0.216
290.0	384.5	467.5	474.8	375.1	237.4	177.6	216.0	355.2	775.7	 1227	 1043	 1075	 2669	 9014	9999.9	9999.9	626.3	28.16	17.51	12.71	9.306	8.684	6.563	5.723	5.742	5.587	4.660	4.276	4.169	3.779	3.104	3.140	2.704	2.372	2.291	2.533	2.858	2.876	2.723	2.529	2.638	2.703	2.899	2.890	2.899	2.904	2.784	2.725	2.408	2.167	1.659	1.636	1.341	1.078	1.167	1.340	1.428	1.648	1.969	2.498	3.913	5.052	5.732	5.549	4.246	3.898	5.151	8.692	16.74	34.40	73.27	102.5	139.7	114.3	30.60	13.40	1.157
295.0	422.8	524.6	631.9	522.6	315.9	245.8	265.1	387.0	621.9	 1053	 1761	 1331	 1411	 2551	 3989	9999.9	9999.9	172.9	28.67	18.53	12.76	10.53	7.972	7.268	6.278	7.130	4.833	4.589	4.318	4.335	3.284	3.362	2.766	2.962	2.600	2.669	2.932	3.256	2.756	3.000	2.746	2.460	2.971	2.853	3.421	3.263	3.518	3.404	2.791	2.797	2.325	2.334	1.686	1.572	1.400	1.501	1.762	1.779	2.228	2.069	2.867	3.966	4.691	7.057	8.005	6.108	4.985	5.681	7.267	10.53	18.71	24.88	38.61	78.67	172.1	201.8	48.66
300.0	454.0	567.8	683.4	592.6	367.1	297.2	321.2	444.7	660.8	954.5	 1695	 1987	 1344	 1259	 1285	 5271	9999.9	9999.9	132.3	25.50	18.08	14.24	9.163	8.228	7.528	6.810	5.281	4.563	4.281	4.694	3.498	3.911	3.298	3.293	2.788	3.267	3.467	3.273	3.223	2.772	2.998	2.897	2.778	3.005	2.847	3.139	3.111	3.404	3.030	3.218	2.486	2.408	1.910	1.770	1.571	1.789	1.814	1.869	2.321	2.121	2.635	3.934	4.547	4.891	7.651	9.025	7.837	5.967	5.972	5.998	7.181	7.766	10.37	19.98	56.68	148.6	225.5
305.0	459.7	591.5	744.3	635.0	432.0	345.4	371.1	491.5	700.5	999.8	 1471	 2219	 1784	 1109	786.1	 1489	 8539	9999.9	 7714	93.22	24.00	16.01	11.84	9.676	8.347	7.452	5.668	5.753	5.261	5.251	4.434	3.254	3.823	3.557	3.156	3.146	3.437	2.920	2.927	2.997	3.225	2.803	2.658	2.996	3.351	3.754	3.094	3.677	3.804	3.107	2.479	2.680	2.453	1.722	1.864	2.028	1.958	2.581	2.665	2.582	3.386	3.883	4.212	4.875	6.355	7.747	9.662	9.320	7.647	5.478	4.909	4.685	4.235	6.404	14.35	38.58	97.70
310.0	447.1	616.0	736.1	638.6	471.9	395.3	434.6	561.3	768.1	 1028	 1408	 1823	 2129	 1579	843.1	694.2	 2212	 8293	9999.9	9999.9	492.2	29.05	17.91	13.54	10.01	9.091	7.061	7.028	5.505	5.389	4.897	4.130	3.737	3.167	3.087	3.146	3.191	3.176	3.081	3.214	2.907	3.065	3.048	2.959	3.201	3.703	3.482	3.843	3.588	3.172	2.672	2.712	2.345	2.179	2.150	2.185	2.357	2.637	2.741	3.049	3.467	4.224	4.462	5.338	6.180	6.641	8.070	8.702	9.685	8.897	6.232	4.642	3.988	3.698	4.990	10.20	23.45
315.0	434.5	634.8	789.8	660.2	495.9	442.2	492.4	624.2	798.8	 1054	 1403	 1676	 1805	 1981	 1276	645.6	803.0	 2061	 3887	9999.9	9999.9	128.6	28.78	19.08	13.56	10.96	8.597	7.457	6.774	6.867	4.788	4.511	3.952	3.893	3.288	3.190	3.019	3.568	3.575	3.164	2.714	3.079	3.226	3.124	3.078	3.291	3.773	3.823	3.680	3.178	2.525	3.042	2.585	2.245	2.037	2.342	2.351	2.754	3.108	3.566	4.160	4.156	4.630	5.737	6.356	6.688	7.264	7.441	7.602	8.190	9.856	8.291	4.961	4.231	3.416	4.494	7.275
320.0	443.5	689.0	881.1	736.7	539.2	457.3	503.0	642.9	840.7	 1120	 1435	 1685	 1758	 1806	 1730	861.9	570.0	727.6	 1071	 5828	9999.9	 7815	101.0	24.24	17.45	13.83	9.698	7.959	7.069	6.836	5.195	4.473	4.427	3.984	3.269	3.364	3.028	3.953	3.480	3.170	2.885	2.832	3.535	3.199	3.211	3.743	4.268	3.890	3.828	3.472	2.611	2.976	2.506	2.370	2.629	2.664	2.783	2.961	3.232	3.665	3.912	4.781	4.943	5.828	6.546	6.611	6.866	7.563	7.186	7.306	8.520	10.04	7.714	5.557	3.843	3.427	3.731
325.0	432.3	766.6	 1024	899.9	634.9	496.0	558.8	684.0	855.6	 1150	 1487	 1738	 1776	 1715	 1716	 1295	642.9	495.5	473.3	 1523	 9907	9999.9	 6285	74.02	23.48	18.32	12.19	9.339	8.266	6.963	6.517	4.750	5.191	4.382	3.610	3.514	3.448	3.568	3.516	3.125	2.691	3.305	3.411	3.147	3.730	3.854	3.768	4.491	4.492	3.891	3.293	3.066	3.161	2.684	3.016	2.428	2.710	3.239	3.453	3.718	4.226	4.488	4.886	5.701	6.426	6.888	6.895	7.324	7.160	7.920	7.811	8.058	7.749	8.093	5.922	4.093	3.405
330.0	463.4	812.4	 1171	 1095	779.1	597.5	604.1	727.9	899.0	 1167	 1476	 1732	 1842	 1743	 1536	 1407	 1049	591.9	419.3	568.8	 2490	 9245	9999.9	9999.9	399.9	29.47	17.69	13.17	10.01	8.630	6.820	6.004	5.386	4.325	4.211	3.775	3.680	3.847	3.601	3.663	2.897	3.158	3.418	3.482	3.559	4.357	4.491	5.100	4.912	4.152	3.773	3.918	3.373	3.235	2.860	2.669	2.837	3.580	3.627	3.665	4.243	4.732	5.143	5.649	6.081	7.016	7.123	7.155	7.900	7.867	7.620	7.507	7.161	7.508	7.376	6.215	5.503
335.0	496.1	849.9	 1209	 1219	915.5	728.4	670.2	758.4	960.0	 1195	 1500	 1734	 1878	 1805	 1554	 1264	 1207	945.3	517.7	428.5	788.9	 2244	 4452	9999.9	9999.9	105.1	26.94	17.64	13.86	10.22	8.568	7.599	6.435	5.144	4.235	4.101	4.008	4.052	3.755	3.251	3.412	3.342	3.393	3.656	3.906	4.522	4.804	5.298	5.568	4.711	4.261	4.342	3.725	3.533	3.191	3.482	3.517	3.637	3.885	4.083	5.039	5.031	5.529	5.807	6.422	6.865	7.525	7.415	8.587	8.185	7.452	7.834	7.990	6.691	6.515	6.013	7.014
340.0	494.8	902.8	 1307	 1302	 1025	850.7	766.2	853.6	 1033	 1250	 1535	 1768	 1902	 1844	 1615	 1288	 1108	 1145	746.9	475.0	471.2	734.6	 1198	 7163	9999.9	 6387	85.85	25.06	16.97	13.01	10.08	8.266	6.609	5.649	4.290	4.410	3.670	3.931	3.478	3.264	3.409	3.145	3.484	3.551	3.750	4.363	5.099	5.429	6.041	4.961	4.476	4.737	4.477	3.857	3.776	3.994	3.998	4.095	3.911	4.213	4.949	5.390	5.394	6.413	6.737	7.130	7.516	7.957	8.281	8.791	8.100	8.011	7.984	6.920	6.371	6.016	5.737
345.0	447.0	834.1	 1261	 1316	 1148	938.7	901.0	949.6	 1066	 1296	 1533	 1756	 1892	 1880	 1650	 1340	 1076	 1061	 1024	606.1	463.6	454.2	487.2	 1867	9999.9	9999.9	 5316	67.69	24.09	16.93	12.21	9.379	7.007	5.994	4.701	4.533	4.187	3.893	3.378	3.377	3.196	3.588	3.621	3.653	3.836	4.666	4.531	5.482	5.821	5.281	4.713	5.454	4.751	4.210	4.121	4.122	4.052	4.413	4.373	4.416	4.822	5.398	5.744	6.602	7.226	6.856	7.407	7.616	8.419	8.757	8.606	8.203	7.848	7.427	6.703	6.061	6.394
350.0	444.8	815.5	 1240	 1338	 1235	 1125	 1054	 1092	 1203	 1391	 1601	 1780	 1894	 1892	 1697	 1419	 1151	 1007	 1041	926.1	633.4	491.1	425.2	659.7	 2592	9999.9	9999.9	9999.9	349.0	26.51	17.72	12.54	8.657	7.728	5.605	5.113	4.433	4.403	3.631	3.503	3.704	3.432	3.544	3.525	3.871	4.504	4.598	5.556	5.705	5.235	4.874	5.457	5.039	4.594	4.701	4.508	4.674	4.747	4.913	4.908	5.569	6.006	6.310	6.397	6.736	7.034	7.477	7.634	8.224	8.728	8.268	8.291	8.032	7.656	7.165	6.715	6.572
355.0	435.9	780.8	 1186	 1357	 1343	 1294	 1292	 1276	 1377	 1577	 1703	 1843	 1926	 1900	 1734	 1499	 1250	 1079	 1007	 1009	959.6	647.4	500.0	478.9	828.3	 2425	 5369	9999.9	9999.9	93.05	26.20	17.62	12.15	9.292	6.681	5.914	4.957	4.646	4.115	3.538	3.799	3.170	3.529	3.571	3.461	4.151	4.906	4.988	5.329	5.011	5.109	5.331	5.842	5.458	5.260	5.349	5.692	5.767	5.781	5.430	5.997	6.535	7.152	6.997	7.241	7.028	7.369	7.904	7.636	8.683	8.906	8.545	8.378	8.318	7.863	7.265	6.653
360.0	453.9	751.4	 1090	 1315	 1400	 1394	 1396	 1412	 1543	 1663	 1780	 1884	 1928	 1930	 1777	 1551	 1311	 1154	 1045	983.6	 1088	875.9	604.8	500.5	494.0	764.3	 1406	 8880	9999.9	 5686	75.21	23.60	15.37	10.67	7.866	6.755	5.290	4.609	4.186	4.098	3.563	3.580	3.896	3.426	3.826	4.167	4.395	4.972	5.501	5.443	5.335	5.872	6.057	5.720	5.412	5.613	5.725	6.101	6.032	5.864	6.756	6.972	7.407	7.594	7.544	7.231	7.776	8.042	8.326	8.336	8.982	8.806	8.992	8.596	8.037	7.597	7.231
365.0	432.3	695.6	 1088	 1316	 1440	 1461	 1469	 1492	 1594	 1750	 1844	 1932	 1952	 1909	 1788	 1585	 1392	 1224	 1122	 1019	 1053	 1068	753.4	574.9	473.9	445.7	507.7	 2290	9999.9	9999.9	 4692	56.40	21.17	14.30	9.481	6.982	5.687	5.510	5.046	4.402	3.908	4.084	3.770	3.779	3.991	4.600	4.349	5.397	5.363	5.275	4.759	5.961	5.896	5.919	5.767	5.496	6.171	5.993	6.188	6.332	7.049	6.791	7.572	7.898	7.827	7.890	8.086	7.827	8.115	8.361	8.234	8.993	9.089	8.536	8.320	7.665	7.648
370.0	419.6	663.5	 1034	 1319	 1463	 1529	 1544	 1570	 1687	 1814	 1890	 1944	 1948	 1894	 1795	 1609	 1436	 1298	 1208	 1110	 1058	 1073	 1024	756.8	576.2	463.5	382.3	705.1	 2684	9999.9	9999.9	9999.9	281.7	21.65	14.05	9.871	7.186	5.993	5.264	4.759	4.314	3.887	3.908	4.041	4.089	4.161	4.072	4.990	5.203	4.929	4.828	5.483	5.979	6.387	6.328	6.311	6.749	6.421	6.768	6.896	7.599	7.134	7.814	7.893	8.029	7.733	8.123	8.622	8.474	8.297	8.595	8.888	8.580	8.803	8.272	7.884	8.202
375.0	407.6	659.9	981.4	 1269	 1429	 1562	 1596	 1613	 1746	 1839	 1911	 1978	 1965	 1860	 1778	 1614	 1472	 1378	 1284	 1201	 1133	 1083	 1080	 1030	754.0	579.5	457.0	427.1	783.6	 2383	 6649	9999.9	9999.9	72.76	21.88	13.26	9.932	7.450	5.846	5.108	4.593	4.351	3.975	4.162	3.745	4.254	3.966	4.747	5.152	4.567	4.897	5.779	5.945	6.458	6.551	6.574	7.012	7.158	7.474	7.547	7.650	7.967	7.699	8.046	8.422	8.252	7.877	8.411	8.344	8.501	8.269	8.716	8.542	8.615	8.652	8.074	7.907
380.0	421.5	604.7	969.8	 1260	 1469	 1628	 1610	 1675	 1773	 1883	 1904	 1963	 1921	 1862	 1746	 1610	 1477	 1392	 1330	 1266	 1199	 1128	 1076	 1109	956.3	690.3	536.5	425.2	409.9	695.5	 1685	9999.9	9999.9	 4558	57.67	18.80	12.87	9.756	7.345	5.433	4.492	5.070	4.162	4.556	4.166	3.797	4.144	4.582	4.794	4.760	4.917	6.131	5.980	6.683	6.337	6.673	7.409	7.606	7.318	7.138	7.475	7.882	7.446	7.425	7.845	8.298	8.146	8.396	8.358	8.192	8.487	8.219	7.850	8.377	7.867	7.841	8.136
385.0	424.5	562.1	954.7	 1213	 1469	 1587	 1614	 1676	 1748	 1853	 1899	 1911	 1911	 1830	 1723	 1594	 1494	 1403	 1359	 1295	 1243	 1175	 1102	 1085	 1096	832.0	611.3	479.9	375.6	357.2	523.1	 2606	9999.9	9999.9	 3581	42.09	16.90	12.29	8.067	6.365	5.334	5.403	4.422	4.825	3.914	4.251	3.841	4.980	4.632	4.461	5.141	5.954	6.289	6.614	6.459	7.339	6.658	7.308	6.550	6.829	7.177	7.904	7.861	7.496	7.673	8.206	8.230	8.262	8.047	8.698	8.554	8.411	7.831	8.540	8.044	7.885	8.224
390.0	411.5	578.0	868.0	 1167	 1398	 1561	 1591	 1659	 1705	 1813	 1867	 1852	 1851	 1768	 1674	 1558	 1465	 1403	 1365	 1313	 1277	 1221	 1145	 1080	 1068	992.0	759.0	563.6	432.6	344.6	307.2	719.9	 2759	9999.9	9999.9	9999.9	212.8	18.07	11.27	8.723	6.944	5.575	4.840	4.689	4.250	4.303	3.916	4.537	5.045	4.439	4.551	6.057	6.158	6.201	6.444	6.519	7.044	7.475	7.107	7.138	7.317	6.987	7.532	8.021	7.873	7.382	8.221	8.048	8.086	8.121	7.972	8.607	8.522	8.139	8.072	8.024	8.665
395.0	397.1	563.9	843.3	 1061	 1344	 1505	 1580	 1618	 1688	 1750	 1791	 1827	 1808	 1716	 1624	 1529	 1458	 1401	 1358	 1325	 1288	 1235	 1173	 1112	 1049	 1006	941.9	693.5	515.5	401.0	315.9	338.9	741.7	 2346	 6620	9999.9	9999.9	59.94	16.28	12.11	8.780	7.034	5.804	4.936	5.177	4.634	3.891	4.099	5.145	4.410	4.873	6.025	6.053	6.330	6.310	6.542	7.017	7.275	7.269	6.860	6.747	7.006	7.978	7.602	7.364	8.107	7.667	8.094	7.902	8.266	7.727	7.841	7.973	8.628	8.264	8.107	8.872
400.0	400.9	566.0	795.5	 1060	 1333	 1531	 1560	 1610	 1652	 1695	 1753	 1750	 1729	 1661	 1585	 1499	 1433	 1371	 1346	 1318	 1276	 1245	 1188	 1130	 1064	982.3	976.5	831.5	592.8	457.5	358.6	288.9	318.4	634.9	 1658	9999.9	9999.9	 3734	45.98	15.18	10.41	8.228	6.514	5.837	5.073	4.349	4.328	4.784	5.050	4.599	4.728	5.766	5.857	6.125	6.524	6.274	6.817	6.864	6.960	6.810	6.982	7.183	6.815	7.269	7.047	7.735	7.500	7.468	7.394	8.316	7.689	7.705	7.813	7.744	8.453	8.183	8.224
405.0	388.1	536.4	773.5	 1048	 1243	 1469	 1550	 1604	 1653	 1654	 1706	 1696	 1669	 1597	 1539	 1445	 1389	 1351	 1323	 1298	 1270	 1231	 1185	 1131	 1081	985.7	935.3	911.2	702.5	523.9	405.1	310.1	253.8	273.3	469.8	 2621	9999.9	9999.9	 2860	34.25	13.09	9.362	7.724	6.389	5.511	4.670	4.562	4.481	4.559	4.802	5.055	5.720	5.595	6.298	6.248	5.915	6.786	6.787	6.523	6.525	7.165	7.169	6.316	6.750	7.160	7.321	6.683	7.176	7.417	7.353	7.482	7.171	7.296	7.466	8.264	7.738	8.569
410.0	356.2	517.1	731.6	963.6	 1178	 1373	 1496	 1561	 1612	 1616	 1648	 1629	 1592	 1534	 1463	 1376	 1323	 1302	 1278	 1262	 1234	 1209	 1168	 1114	 1078	992.6	923.5	876.0	815.8	636.4	470.2	365.0	278.1	227.3	227.3	676.2	 2709	9999.9	9999.9	 7999	40.75	13.96	9.510	7.203	6.063	5.326	4.618	4.743	4.848	4.404	4.833	5.406	5.444	5.488	5.805	5.745	6.397	6.795	6.365	6.593	7.262	7.058	6.673	6.997	7.156	6.706	6.972	6.656	6.904	7.312	6.959	7.118	7.116	7.627	7.358	7.165	8.089
415.0	335.9	493.6	712.6	938.0	 1101	 1317	 1412	 1475	 1555	 1554	 1592	 1563	 1502	 1444	 1386	 1286	 1239	 1237	 1208	 1217	 1184	 1166	 1131	 1099	 1057	994.9	919.2	848.9	805.1	762.7	563.0	413.8	314.1	246.3	198.2	260.5	683.9	 2309	 5824	9999.9	9999.9	52.65	13.23	8.607	7.107	5.552	5.666	4.535	4.922	4.767	4.629	4.917	5.723	5.601	5.424	5.710	6.310	6.849	6.456	6.881	6.840	6.639	6.734	6.603	6.535	5.835	6.565	6.910	6.955	6.997	6.494	6.947	7.045	7.005	7.161	7.013	7.518
420.0	323.7	456.9	682.7	873.7	 1068	 1248	 1361	 1426	 1489	 1541	 1530	 1493	 1443	 1373	 1327	 1231	 1207	 1188	 1172	 1170	 1142	 1123	 1091	 1061	 1034	983.2	915.9	851.3	776.1	758.8	657.1	459.5	349.9	270.6	208.7	181.4	240.5	582.5	 1430	 8298	9999.9	 3316	40.26	11.73	8.179	7.140	6.019	5.002	5.051	4.512	4.491	4.822	5.421	5.775	5.240	5.811	6.836	6.505	6.292	6.381	6.426	6.062	6.745	6.421	6.553	6.152	6.621	6.217	7.110	6.740	6.403	6.761	6.568	6.413	6.742	6.753	7.652
425.0	319.0	474.6	643.1	831.1	 1015	 1203	 1297	 1358	 1453	 1487	 1499	 1450	 1384	 1318	 1268	 1191	 1159	 1144	 1139	 1111	 1098	 1075	 1049	 1027	 1010	968.7	907.1	845.1	764.2	720.5	689.3	529.9	380.5	289.9	229.7	176.7	156.9	203.5	377.5	 2162	9999.9	9999.9	 2507	28.12	9.995	8.102	6.706	5.542	4.689	4.607	4.385	5.144	5.144	5.515	5.251	5.538	5.924	6.328	5.847	5.815	6.505	6.554	6.448	6.233	6.018	5.849	5.805	5.762	6.555	6.262	6.594	6.088	6.114	6.417	6.677	6.875	6.606
430.0	667.3	437.1	600.4	807.3	973.5	 1138	 1239	 1339	 1400	 1431	 1414	 1386	 1332	 1264	 1208	 1130	 1102	 1086	 1061	 1051	 1028	 1021	 1003	987.1	967.4	933.3	885.2	836.1	769.1	702.4	656.6	595.8	452.6	328.3	254.1	197.7	158.4	136.7	152.1	536.0	 2592	 8958	9999.9	 6334	35.59	11.51	7.982	6.479	5.366	4.361	4.646	4.848	4.585	5.341	5.386	5.523	5.500	6.134	5.757	6.088	6.507	6.323	5.990	6.089	5.972	5.966	6.090	5.692	5.872	5.687	6.066	5.821	6.094	6.185	6.435	5.975	6.540
435.0	 1597	456.6	560.7	782.4	936.2	 1066	 1203	 1288	 1366	 1376	 1381	 1336	 1278	 1201	 1119	 1055	 1027	 1014	987.1	991.6	983.6	956.5	947.5	947.1	915.5	886.5	862.3	817.5	763.9	707.2	628.9	573.6	524.7	387.4	286.3	223.7	177.3	140.3	115.0	184.5	624.5	 2050	 4956	9999.9	 3419	47.92	11.63	8.545	7.147	5.232	4.571	5.057	4.775	5.484	5.220	5.614	5.423	6.167	6.248	6.063	6.229	6.461	6.169	5.843	6.405	5.615	5.903	4.803	5.545	5.760	5.045	5.574	6.661	6.188	5.566	6.256	6.217
440.0	 2007	883.7	531.6	743.4	899.1	 1012	 1150	 1261	 1315	 1331	 1330	 1289	 1225	 1147	 1076	 1015	969.3	970.8	939.2	938.4	935.9	902.3	912.9	908.2	888.9	870.6	831.7	804.6	751.8	690.2	624.1	556.4	526.3	448.0	314.1	243.6	193.7	149.7	117.0	112.1	196.4	500.7	 1198	 6928	9999.9	 3049	35.33	10.93	8.157	5.829	5.227	5.358	4.987	5.340	5.647	5.214	5.752	5.476	5.671	5.894	6.011	5.873	6.181	6.021	6.071	5.641	5.479	5.326	5.362	5.752	5.133	5.451	5.598	5.419	5.007	6.107	5.944
445.0	 1741	 1710	556.2	697.3	842.8	947.6	 1114	 1214	 1265	 1309	 1294	 1256	 1177	 1117	 1028	973.3	920.5	922.9	898.2	889.1	883.4	870.8	866.7	863.4	853.8	835.4	812.3	787.6	744.5	688.8	618.0	550.4	498.9	463.2	357.6	262.1	201.3	164.7	126.8	106.3	105.6	159.0	307.8	 1760	 9359	9999.9	 2228	27.85	9.535	6.753	5.680	5.426	5.136	5.449	5.633	5.060	5.259	5.347	5.265	5.616	5.678	5.424	6.101	5.637	5.802	5.839	5.070	5.073	5.303	5.238	4.853	4.880	4.754	5.206	4.811	5.167	5.426
450.0	780.9	 2373	 1071	641.8	794.2	908.6	 1026	 1152	 1204	 1234	 1223	 1171	 1118	 1040	967.3	897.2	862.9	846.4	830.1	823.2	813.1	795.0	794.4	796.8	789.9	784.3	768.7	743.8	710.2	671.6	611.8	535.1	474.2	431.3	387.4	298.5	221.7	177.4	142.9	114.8	96.45	93.23	113.3	429.4	 2356	 7796	9999.9	 5962	31.65	9.632	6.959	6.413	5.748	5.207	5.019	4.968	5.275	5.396	5.641	5.222	5.845	5.757	5.960	5.442	5.550	5.246	5.404	5.444	5.183	4.886	4.650	4.920	4.708	4.580	4.829	5.093	4.850
455.0	342.7	 1581	 2536	754.8	753.1	848.4	956.0	 1076	 1134	 1155	 1159	 1089	 1019	966.3	896.2	824.9	792.8	775.2	748.2	742.4	731.5	726.5	729.7	739.7	731.1	724.5	709.5	697.9	674.9	634.3	586.8	523.3	456.2	398.2	362.8	336.2	253.1	191.6	155.5	125.1	105.0	86.51	75.83	136.5	558.9	 1777	 4186	9999.9	 8241	38.27	9.403	7.474	6.976	5.919	5.102	4.626	5.324	5.081	5.834	5.241	5.285	4.914	5.196	5.301	5.441	5.024	5.390	5.385	5.165	4.359	4.588	4.510	4.585	4.166	4.780	4.770	4.853
460.0	229.1	733.4	 3138	 1367	684.6	768.0	910.8	 1001	 1083	 1114	 1107	 1041	977.4	906.7	832.4	776.4	728.8	718.3	693.0	687.9	682.7	684.8	677.8	674.4	675.5	674.0	666.1	658.3	638.5	602.7	560.0	499.0	442.2	386.1	338.6	325.1	283.8	206.1	164.9	134.4	109.6	89.67	73.03	75.16	161.3	425.6	993.5	 5642	9999.9	 2457	30.75	8.905	7.320	6.176	5.620	5.223	5.222	4.988	5.272	5.416	4.959	4.944	5.212	4.722	5.492	4.951	5.281	4.696	4.897	4.459	4.343	4.324	4.098	3.879	3.966	4.411	4.228
465.0	208.3	402.9	 2422	 2961	680.6	723.7	845.7	941.0	 1033	 1046	 1019	990.4	925.3	858.9	791.2	738.8	685.9	669.7	652.0	648.0	633.0	632.4	631.1	631.7	635.8	628.6	627.4	616.4	598.7	578.6	531.9	483.7	423.0	372.1	326.1	298.9	287.2	225.1	170.7	138.8	117.0	95.17	75.77	65.80	75.45	126.5	249.7	 1392	 7467	9999.9	 2044	25.70	8.807	7.138	5.717	5.648	5.362	4.785	5.022	5.025	5.051	4.967	4.913	4.791	4.756	4.455	4.664	4.466	4.608	4.632	3.910	4.080	4.394	4.376	3.884	4.116	3.986
470.0	213.2	282.6	 1081	 3914	 1768	675.0	772.5	852.2	931.9	965.2	947.4	915.1	840.4	785.0	714.7	658.0	627.5	604.7	589.5	581.5	571.2	565.9	568.0	567.0	566.9	565.8	562.4	560.6	545.6	528.7	498.5	453.9	403.0	353.3	308.4	273.6	254.3	240.0	189.3	145.9	117.6	100.7	81.89	67.08	58.97	63.43	84.98	336.1	 1831	 6085	9999.9	 4821	146.5	9.704	6.524	5.989	5.596	5.147	4.890	4.511	4.637	4.934	4.637	4.168	4.558	3.932	4.177	4.292	3.923	4.272	3.906	3.772	3.564	3.731	3.445	3.548	3.671
475.0	202.2	247.3	490.6	 2376	 4532	807.8	706.7	760.3	843.3	874.6	864.2	825.6	762.1	700.6	653.2	579.4	566.4	536.0	528.3	517.2	506.5	498.5	502.7	501.9	502.1	508.0	506.4	499.9	492.7	481.3	457.9	421.4	373.4	333.4	290.0	256.3	227.2	215.7	203.2	161.3	121.8	101.8	83.31	68.27	58.15	50.39	50.25	100.4	429.1	 1379	 3371	9999.9	 2909	43.92	8.736	6.801	5.672	5.053	4.266	4.188	4.285	4.204	4.156	4.067	4.332	3.947	3.554	3.643	3.557	3.521	3.812	3.536	3.062	3.327	3.200	3.251	3.488
480.0	183.4	239.6	345.9	 1065	 5678	 1977	625.7	727.0	781.3	804.5	807.4	771.0	706.6	662.1	604.9	546.6	504.3	498.7	484.9	471.0	463.6	458.4	461.8	457.2	458.4	461.7	466.1	458.1	460.0	444.4	421.8	390.3	352.5	308.5	276.1	245.7	217.5	196.6	194.6	171.3	126.4	103.4	85.27	72.06	59.16	49.78	42.37	50.76	117.8	326.5	784.6	 4141	9999.9	 2718	33.81	7.584	6.064	5.818	4.398	4.762	4.185	4.075	3.838	3.460	3.760	3.494	3.836	3.356	3.487	3.604	3.322	3.175	2.936	3.200	2.898	2.790	3.204
485.0	159.7	241.7	296.8	529.4	 4225	 3928	638.9	683.5	727.6	753.5	741.9	711.3	670.3	610.8	551.1	500.6	475.2	458.6	442.8	440.3	419.3	420.0	423.0	425.6	422.9	430.2	433.1	423.8	431.9	414.9	395.7	362.4	333.1	297.6	264.5	236.3	206.3	186.4	174.1	173.3	138.7	106.2	85.79	74.20	61.33	52.21	43.60	40.01	49.67	92.38	192.4	990.7	 5484	 9837	 2018	23.49	7.018	5.626	5.190	4.445	4.337	3.846	4.069	3.548	3.735	3.680	3.099	3.574	3.513	3.026	3.209	3.167	3.111	3.350	2.690	2.765	3.066
490.0	131.3	214.3	280.3	374.2	 1626	 4462	 1984	628.1	645.9	687.9	690.5	645.1	604.5	549.9	500.5	454.2	425.7	415.4	402.6	393.9	384.7	385.2	374.0	373.6	381.9	384.3	385.5	384.5	385.8	379.1	362.6	336.1	306.9	275.9	246.7	221.6	193.7	173.9	157.2	152.3	145.2	116.8	89.02	74.92	62.86	53.52	46.14	38.57	36.90	41.61	60.48	237.2	 1315	 4508	 7634	 3939	33.09	8.158	6.033	4.890	4.143	4.148	4.034	3.729	3.264	3.455	3.299	3.083	3.006	2.934	2.957	2.877	2.964	2.898	2.960	2.503	2.569
495.0	103.8	176.7	263.1	290.6	642.7	 2520	 5506	754.4	605.5	615.2	612.9	575.2	540.9	503.1	450.3	417.8	381.9	366.3	355.0	350.8	340.7	333.3	333.6	336.4	335.6	334.6	341.3	343.2	346.6	337.3	322.3	303.6	279.1	251.9	225.8	203.8	183.0	163.1	146.8	134.1	132.2	123.4	98.36	75.00	62.85	56.08	47.17	41.84	35.36	31.82	32.35	68.77	306.8	 1019	 2512	 8281	 3122	45.26	8.279	5.738	4.540	4.333	4.062	3.818	3.252	2.910	3.205	3.195	2.515	2.416	2.472	2.653	2.653	2.294	2.611	2.058	2.242
500.0	104.1	156.0	254.8	285.8	398.4	 1033	 6857	 2082	560.8	569.1	573.5	535.0	502.0	456.7	404.9	375.3	346.0	330.8	322.8	311.8	305.3	303.6	300.7	300.7	303.3	304.6	306.3	308.8	313.2	311.1	299.0	275.5	254.7	235.0	211.1	188.9	169.2	154.4	139.9	123.2	118.0	116.3	104.2	77.77	64.61	57.88	47.76	42.85	36.15	30.22	26.43	32.13	82.44	240.5	582.7	 3349	 9143	 2747	34.99	6.201	5.102	4.143	3.900	3.639	3.224	3.048	2.839	2.451	2.556	2.553	2.459	2.190	2.227	2.303	2.366	1.957	2.032
505.0	94.18	140.6	236.8	304.5	319.9	508.7	 4998	 4087	577.2	525.2	526.5	496.7	463.7	429.6	377.4	351.1	317.5	300.8	295.4	288.2	282.3	277.7	273.6	273.1	282.8	276.7	282.1	281.2	287.7	285.8	274.6	255.2	235.9	219.0	196.1	181.9	159.4	147.8	131.1	118.9	107.3	107.2	103.5	85.20	63.60	55.30	48.89	42.33	35.86	31.85	25.79	24.28	32.29	67.36	144.5	793.8	 4676	 9088	 2049	22.72	5.877	4.617	4.012	3.584	3.242	2.540	2.559	2.308	2.422	2.238	2.505	1.943	2.217	2.163	2.086	2.109	1.892
510.0	83.21	120.2	189.2	284.0	284.8	351.8	 1834	 5732	 2130	471.8	466.4	445.0	410.6	374.3	337.1	303.4	279.2	265.5	261.5	251.7	248.0	246.8	241.5	235.9	243.2	244.7	245.8	247.5	250.9	250.6	242.5	224.0	209.1	192.0	177.5	163.2	145.4	135.2	121.6	110.0	98.95	92.30	91.38	87.10	69.96	55.80	47.15	41.71	35.81	31.18	26.58	23.37	22.74	28.64	45.35	188.5	 1116	 4148	 6775	 3192	30.62	6.245	4.495	3.687	3.321	2.661	2.607	2.144	2.533	2.226	2.212	2.073	1.889	1.805	1.934	2.019	1.887
515.0	70.67	111.9	143.8	235.8	274.9	293.3	645.4	 3395	 5078	609.0	418.0	400.9	364.3	333.7	298.7	269.8	246.9	238.3	224.6	219.6	213.8	214.4	210.8	207.0	210.8	216.3	213.1	218.7	215.4	220.9	211.0	197.5	183.2	170.9	158.5	144.4	132.4	121.0	111.4	99.71	89.86	81.12	77.39	76.67	74.73	58.89	46.98	39.63	35.53	30.34	26.62	23.64	21.27	19.64	22.66	53.29	259.2	935.6	 2240	 6814	 2976	43.69	5.572	4.090	3.327	2.962	2.594	2.131	2.260	1.923	1.934	1.779	1.607	1.913	1.695	1.549	1.685
520.0	65.07	94.81	135.9	186.9	289.7	263.4	353.4	 1282	 5757	 2336	365.6	364.1	329.3	304.9	272.4	247.0	220.7	213.1	199.7	193.6	195.2	187.7	191.1	184.7	190.3	187.9	192.7	197.6	192.9	201.2	189.6	183.2	168.0	154.7	142.9	135.0	121.0	110.4	102.6	93.76	83.22	77.34	70.51	67.63	70.91	62.49	48.20	38.90	34.69	29.66	25.63	23.13	20.76	17.28	17.17	23.11	67.89	217.5	518.5	 2864	 7158	 2438	30.27	4.320	3.367	3.118	2.622	2.554	1.950	1.992	1.973	1.631	1.456	1.450	1.563	1.327	1.510
525.0	62.99	90.29	111.8	161.0	257.9	256.7	278.4	523.5	 4039	 4965	390.4	331.4	303.5	274.0	244.0	216.7	201.1	190.8	190.3	177.9	176.6	168.9	168.8	172.0	173.0	170.2	173.7	175.7	177.5	179.6	171.8	165.2	153.7	138.8	129.6	121.2	110.8	101.2	95.63	86.00	77.94	71.94	65.58	59.91	61.91	62.88	50.57	39.37	34.02	29.38	24.65	22.44	19.70	17.28	15.83	16.53	24.82	57.32	124.2	683.1	 3730	 6958	414.0	16.75	4.073	2.941	2.409	2.481	1.748	1.802	1.627	1.723	1.369	1.506	1.454	1.414	1.527
530.0	55.90	75.73	105.4	133.0	213.2	263.8	235.0	305.2	 1460	 7138	 1995	293.8	269.5	238.0	217.3	192.7	175.7	169.7	162.6	155.0	152.5	149.0	146.0	147.8	148.4	152.2	152.6	151.5	154.2	155.0	150.9	143.0	134.9	123.7	113.2	106.7	97.79	89.37	84.76	77.20	69.85	64.70	59.14	54.32	50.61	52.69	52.32	41.46	32.19	27.63	24.27	20.97	18.38	17.00	15.55	14.27	14.56	21.08	35.39	159.2	892.9	 3221	 5018	 1754	27.44	4.036	2.812	2.241	1.931	1.587	1.640	1.478	1.134	1.396	1.345	1.261	1.319
535.0	56.93	69.82	93.77	112.9	161.6	247.2	218.2	234.0	511.1	 3395	 7566	428.9	234.9	209.5	186.9	162.4	154.8	141.1	134.7	134.8	129.0	127.9	127.4	125.0	126.6	126.8	128.0	130.5	130.0	134.7	127.8	124.0	115.3	108.6	97.74	90.95	85.52	79.34	73.80	67.68	62.24	57.67	51.92	48.96	43.70	43.86	46.41	44.68	32.60	25.66	22.18	20.40	18.30	15.72	14.47	13.63	12.57	12.11	15.03	41.86	205.1	725.7	 1750	 5153	 2539	36.21	3.342	2.621	1.842	1.738	1.727	1.537	1.176	1.135	1.053	1.244	1.153
540.0	56.14	65.50	87.77	103.0	133.2	203.9	241.6	208.7	278.5	 1176	 8682	 1817	208.6	192.6	162.4	144.9	141.0	131.2	119.2	122.3	114.5	113.4	112.3	111.1	115.6	112.4	112.4	113.4	116.7	117.5	115.3	107.8	101.9	96.73	87.79	80.43	77.73	72.02	65.91	59.91	57.62	50.29	45.70	43.97	40.52	39.56	36.36	42.85	34.27	25.80	21.03	18.58	17.23	15.15	13.91	12.90	11.31	10.40	10.11	14.95	51.67	167.7	406.1	 2262	 5297	 1667	21.21	2.927	1.954	1.929	1.408	1.403	1.146	1.397	1.060	1.253	0.974
545.0	58.48	67.56	72.23	88.11	113.3	152.6	249.7	181.7	212.7	440.1	 5375	 3874	226.3	173.8	148.4	130.3	127.1	115.3	108.6	106.9	104.5	103.4	102.3	100.7	100.6	101.1	100.2	101.8	103.4	106.3	101.3	94.62	93.05	83.63	78.06	73.47	70.45	63.60	59.60	55.88	51.09	46.51	42.11	40.37	37.79	33.94	30.63	36.79	35.75	25.94	19.85	17.57	15.45	14.52	12.75	12.45	11.66	9.612	8.581	8.982	17.37	42.77	96.14	542.0	 2903	 4538	376.2	7.902	2.119	1.702	1.396	1.185	1.103	0.996	1.043	0.830	1.130
550.0	57.81	59.52	67.98	78.65	91.52	118.5	203.8	214.2	179.6	245.5	 1773	 5897	 1488	145.2	126.6	113.2	104.6	99.23	92.78	90.01	87.33	85.51	84.63	85.61	85.29	85.69	82.92	87.56	85.83	88.38	84.83	81.42	77.00	71.58	66.01	62.63	57.71	53.33	51.25	47.59	43.81	40.82	38.03	34.62	32.05	29.00	27.28	27.79	29.27	27.46	20.37	16.06	14.36	12.36	11.63	10.79	10.08	9.373	7.834	7.699	8.973	13.84	25.73	125.6	702.3	 2266	 2985	 1208	22.97	2.411	1.567	1.294	1.146	1.134	0.770	0.839	0.894
555.0	55.12	60.47	61.10	70.54	76.99	101.1	138.0	224.3	169.2	184.4	531.2	 2814	 5882	248.0	103.8	91.43	83.51	78.94	75.63	73.31	69.44	67.86	68.71	71.11	67.65	68.43	69.93	70.25	71.96	72.92	69.60	67.20	62.50	58.07	54.55	52.89	48.61	44.01	41.75	40.12	36.29	33.38	30.40	29.92	26.66	25.26	22.60	21.65	21.79	23.05	20.37	15.58	12.09	11.06	10.10	10.53	8.887	8.470	7.371	6.423	6.089	7.176	9.515	31.40	159.8	510.8	 1137	 3203	 1444	28.15	2.329	1.529	1.172	1.070	0.937	0.663	0.627
560.0	67.00	70.04	67.21	68.87	69.68	86.08	110.9	209.4	171.3	161.9	242.1	921.1	 7217	 1456	92.95	80.19	72.89	67.37	63.84	61.53	60.18	58.56	58.48	58.47	57.17	59.06	59.16	61.80	61.38	61.23	58.71	55.46	51.48	50.34	46.62	44.66	39.92	37.93	35.25	34.63	30.91	29.08	27.50	25.99	23.13	22.07	19.65	18.71	17.37	18.78	19.16	15.97	11.52	9.605	9.002	9.209	7.761	7.336	6.914	6.588	5.855	5.284	6.009	10.35	39.20	117.4	265.7	 1493	 3101	399.1	11.52	1.872	1.451	1.293	1.007	0.948	0.471
565.0	49.73	57.59	58.37	61.47	68.95	67.24	100.0	162.9	205.8	140.6	179.9	320.5	 4759	 4604	106.4	66.72	62.47	60.70	54.77	52.89	52.34	49.54	48.79	48.76	49.07	49.62	50.13	51.98	49.47	52.19	50.63	48.61	42.95	41.62	39.39	38.82	34.56	33.73	30.24	27.96	27.08	25.18	23.56	21.67	20.00	18.55	17.48	15.73	14.55	14.58	16.88	15.75	11.47	8.990	8.080	7.913	6.993	6.405	6.314	5.673	5.406	5.180	5.042	5.682	12.37	30.05	63.02	363.7	 1850	 2408	287.4	3.738	1.300	1.201	0.872	0.675	0.428
570.0	49.32	62.44	55.21	62.84	59.59	61.48	72.01	113.0	201.9	148.8	145.4	173.8	 1461	 6490	 1144	60.27	53.46	49.09	45.31	42.77	41.56	40.35	39.93	38.84	38.88	38.82	40.08	41.73	39.97	40.31	40.32	37.48	36.39	34.02	31.67	30.90	28.33	26.65	24.16	23.43	21.59	19.76	19.06	17.87	16.75	15.02	13.88	13.06	12.53	11.11	11.68	12.70	11.69	8.409	7.454	6.600	6.616	5.960	5.536	5.347	5.238	4.850	4.613	5.044	6.319	10.10	17.54	84.70	456.9	 1342	 1734	606.9	17.32	1.439	0.978	0.591	0.777
575.0	46.98	59.16	63.12	61.79	54.10	56.61	64.72	84.77	154.4	185.6	133.9	139.3	413.2	 3052	 5388	140.7	44.94	37.60	36.58	33.03	33.53	32.48	33.08	30.57	30.84	30.27	30.76	33.15	32.64	32.13	31.75	30.72	29.37	26.56	24.21	23.51	22.99	21.62	19.74	18.55	17.09	16.36	15.29	14.11	13.16	11.96	10.70	10.31	9.498	8.915	8.472	9.244	10.34	8.788	6.654	5.526	5.547	5.279	4.855	4.971	4.803	5.312	4.567	4.541	4.727	5.387	7.348	22.42	105.1	304.2	700.2	 1768	406.8	16.11	1.122	0.867	0.663
580.0	49.50	55.82	63.33	64.99	48.79	49.81	50.04	69.76	114.8	203.1	142.5	124.0	179.5	920.8	 6384	949.7	39.53	32.47	30.87	28.96	29.01	28.54	25.24	26.00	25.30	26.07	26.71	28.03	26.10	27.51	27.15	25.35	24.33	22.70	20.46	19.83	19.37	18.25	16.14	15.20	14.74	13.65	12.92	11.99	11.22	9.789	10.04	9.088	8.614	7.653	7.005	6.803	8.026	8.189	6.938	5.102	4.550	4.951	4.228	4.550	4.109	4.899	4.762	4.734	4.505	4.683	4.644	8.365	26.65	70.91	166.7	889.9	 1574	305.4	4.949	0.923	0.677
585.0	47.41	60.16	62.29	57.81	48.93	44.98	52.99	64.91	94.00	187.7	150.1	124.2	126.9	277.3	 3876	 3094	48.96	28.18	27.85	25.65	24.88	23.73	21.08	22.13	21.29	22.33	22.82	21.73	22.31	22.73	21.99	20.88	20.08	19.43	17.29	16.83	16.22	14.52	14.03	13.21	11.73	12.10	10.91	9.718	9.327	9.485	8.751	7.809	7.168	6.910	5.649	5.509	5.983	7.374	7.487	4.859	4.441	4.349	4.322	4.054	4.202	4.000	4.939	4.406	4.271	4.211	4.465	5.241	9.109	19.03	40.66	222.6	 1047	 1287	52.56	1.616	1.211
590.0	44.94	53.26	63.75	54.52	46.38	40.41	51.82	56.93	77.71	138.5	189.4	124.1	111.4	123.8	 1153	 4276	765.1	27.49	24.96	21.10	20.36	18.72	18.55	19.03	18.04	18.27	18.09	17.43	17.77	19.17	17.79	17.51	16.72	16.10	13.88	13.70	12.91	11.57	12.27	10.41	10.14	9.486	8.959	7.776	7.506	7.483	7.013	6.701	6.138	5.594	5.052	4.639	4.720	5.179	6.143	5.335	4.124	3.767	3.482	3.382	3.677	3.476	4.071	4.117	3.943	3.767	3.902	4.127	4.986	7.172	11.87	52.03	263.8	773.5	933.8	228.7	11.74
595.0	32.41	44.18	63.12	50.25	51.70	37.55	39.93	57.49	67.50	96.11	182.8	139.5	106.1	91.51	295.7	 1886	 3448	86.04	19.14	19.11	16.42	15.97	15.52	14.88	14.52	15.29	14.36	14.51	14.51	14.68	14.65	13.98	13.03	13.70	10.92	11.41	10.21	9.402	9.199	8.716	7.882	7.572	7.362	6.891	6.448	5.396	5.880	5.376	5.074	4.620	4.363	3.624	3.341	3.750	4.580	5.033	4.293	3.311	2.900	3.009	2.959	3.083	3.621	3.346	3.850	3.531	3.210	3.474	3.818	4.071	5.082	13.61	60.73	175.6	418.7	986.0	317.4
600.0	27.12	49.35	51.37	56.94	42.63	30.84	34.43	51.06	69.55	90.71	159.4	170.2	105.9	84.28	104.4	544.0	 4121	715.7	18.77	15.55	13.90	14.24	12.31	11.82	13.10	12.74	12.33	12.76	12.38	11.90	12.98	11.43	10.91	10.60	9.561	10.07	9.013	8.174	7.890	6.750	7.160	6.811	5.695	5.641	5.554	5.464	4.827	4.483	4.304	4.065	3.536	3.105	2.631	2.838	3.648	4.519	4.589	3.240	2.641	2.662	2.358	3.031	2.685	3.025	3.299	3.680	3.157	3.058	3.214	3.104	3.047	5.025	15.17	40.55	100.5	540.2	894.7
605.0	29.65	52.52	57.67	48.90	38.20	38.13	35.82	48.69	63.74	85.91	119.3	189.4	115.1	78.05	63.29	152.6	 2557	 2561	27.17	12.78	12.76	12.58	10.52	9.771	11.04	11.83	9.943	12.10	11.13	10.41	9.862	9.544	8.928	8.718	8.170	7.616	7.306	7.379	6.507	6.145	5.621	5.450	5.319	4.607	4.459	4.576	3.989	4.129	3.670	3.444	3.317	2.501	2.698	2.544	2.804	3.386	3.888	3.756	2.901	2.263	2.158	2.755	2.764	2.973	2.855	3.047	3.179	3.293	3.124	2.887	2.591	2.826	4.622	10.07	23.53	137.9	625.9
610.0	30.62	40.68	53.93	46.80	36.75	33.42	33.02	45.12	60.60	76.97	101.3	164.5	134.7	79.59	55.22	59.74	749.9	 3611	597.0	14.51	11.41	10.30	9.181	8.899	9.161	9.128	8.345	9.628	9.433	8.845	8.580	8.240	7.568	7.439	6.967	6.422	5.970	6.048	5.182	5.249	4.625	4.410	4.387	4.126	3.547	3.823	3.416	3.407	3.120	2.713	2.517	2.332	2.125	2.135	2.091	2.401	2.901	3.243	2.994	2.289	2.070	2.250	2.370	2.349	2.255	2.655	3.053	3.066	2.640	2.352	2.542	2.247	2.237	3.208	5.862	31.61	160.0
615.0	29.74	38.70	46.53	49.10	31.68	30.16	30.90	39.62	55.84	73.21	91.03	124.7	156.8	86.72	53.09	39.06	187.7	 1596	 2713	57.35	9.687	9.341	7.615	8.000	7.152	7.429	7.195	8.021	7.186	6.857	6.792	6.346	6.341	5.659	5.851	5.712	4.674	4.706	4.127	3.881	3.849	3.579	3.557	3.223	2.762	3.025	2.756	2.717	2.578	2.202	2.072	2.169	1.869	1.822	1.628	1.644	1.909	2.463	2.691	2.214	1.981	1.875	2.102	2.133	2.011	1.979	2.154	2.931	2.600	1.925	2.284	1.659	1.679	1.667	1.928	7.756	36.35
620.0	37.79	41.91	46.00	40.70	30.58	31.11	28.68	35.90	51.57	65.40	86.22	110.4	152.9	98.74	54.14	34.76	58.72	457.4	 3302	538.9	10.01	7.996	7.122	6.590	6.244	6.321	6.742	6.235	5.936	5.658	6.232	5.195	4.465	5.046	4.943	4.799	4.136	3.995	3.875	3.851	3.177	2.998	2.691	2.941	2.810	2.411	2.152	2.556	1.906	2.027	1.838	1.596	1.504	1.232	1.269	1.248	1.447	1.789	1.980	2.245	1.686	1.826	1.729	1.647	2.059	1.691	2.169	2.445	2.103	1.854	1.605	1.426	1.468	0.915	0.897	2.120	8.833
625.0	33.41	32.24	39.25	41.01	29.68	28.36	26.95	36.74	45.92	65.25	83.19	99.69	129.5	110.3	51.80	34.40	32.94	120.8	 2080	 1892	17.00	7.074	5.691	5.846	5.658	5.423	5.205	5.474	5.124	5.044	5.311	4.475	4.372	3.584	4.196	3.877	3.882	3.052	3.167	3.136	2.860	2.404	2.251	2.358	2.383	2.152	2.327	2.043	2.052	1.859	1.467	1.487	1.337	1.346	1.330	1.271	1.465	1.303	1.571	1.986	1.751	1.568	1.652	1.377	1.594	1.477	1.627	1.801	2.020	1.623	1.611	1.323	1.109	0.806	0.681	0.885	2.451
630.0	28.29	27.76	38.29	36.83	28.30	29.51	29.04	36.99	45.80	59.74	80.18	88.91	103.7	117.6	60.56	34.09	24.71	41.64	604.5	 2688	494.8	7.619	6.253	5.305	4.782	4.394	4.420	4.530	4.150	4.219	4.302	3.927	3.698	3.250	3.357	3.327	3.144	2.816	2.450	2.336	2.442	2.074	1.836	1.672	1.951	1.995	1.750	1.640	1.495	1.523	1.353	1.143	1.027	1.163	1.064	1.224	1.153	1.173	1.154	1.592	1.512	1.531	1.214	1.213	1.187	1.404	1.436	1.479	1.506	1.410	1.363	1.134	0.905	0.587	0.597	0.573	0.870
635.0	24.93	31.43	30.54	27.10	24.47	28.18	25.46	35.32	42.90	53.93	71.82	84.56	91.45	104.4	77.93	36.66	22.61	23.76	146.2	 1203	 2315	47.28	5.540	4.872	4.560	3.496	3.850	3.419	3.500	3.006	3.763	2.842	3.366	2.948	2.808	2.715	2.743	2.099	2.146	1.748	2.042	2.026	1.676	1.685	1.554	1.794	1.280	1.285	1.298	1.126	1.102	1.082	0.794	0.817	0.813	1.047	0.864	1.026	0.852	0.929	1.338	1.323	1.092	1.030	1.059	0.907	1.139	1.099	1.278	1.215	1.072	1.221	0.790	0.385	0.566	0.414	0.439
640.0	29.79	29.53	36.12	32.21	21.50	25.68	27.52	32.95	35.68	52.09	71.37	82.89	83.06	88.66	90.40	38.01	24.93	19.44	44.71	340.4	 2838	468.0	6.575	4.440	4.200	4.207	2.846	2.969	3.190	3.195	2.932	3.182	2.980	2.929	2.561	2.121	2.326	1.705	1.899	1.523	2.006	1.461	1.601	1.271	1.200	1.486	0.990	1.190	1.259	0.887	0.835	0.901	0.596	0.668	0.669	0.719	0.631	1.051	0.784	0.788	1.008	1.203	1.225	1.019	1.100	0.775	0.918	0.986	0.971	1.076	0.857	1.114	0.861	0.400	0.467	0.597	0.414
645.0	27.91	28.27	47.27	32.16	26.35	23.23	23.09	31.30	40.83	51.78	67.59	77.09	74.52	74.32	91.84	47.14	25.77	18.24	21.90	88.97	 1790	 1614	12.72	3.459	4.159	4.017	3.072	2.985	3.103	3.321	2.831	2.489	2.330	2.363	2.353	1.925	1.785	1.523	1.867	1.540	1.487	1.435	1.190	0.940	0.934	1.421	0.904	1.119	0.921	0.960	0.886	0.766	0.671	0.788	0.610	0.633	0.770	0.665	0.823	0.535	0.723	1.100	0.941	0.765	0.893	0.861	0.753	0.720	0.839	0.882	0.751	0.701	0.757	0.388	0.278	0.432	0.344
650.0	38.45	28.85	44.45	36.85	26.85	23.78	20.84	31.70	40.30	50.64	69.99	72.70	72.68	69.38	77.69	56.64	27.20	19.37	15.97	28.09	628.4	 2544	92.21	4.384	3.530	3.751	3.350	2.930	3.104	2.963	2.665	2.352	2.204	2.195	2.015	1.632	1.595	1.524	1.591	1.417	1.390	1.021	1.184	0.863	0.869	1.269	0.979	1.192	0.775	0.847	0.705	0.620	0.745	0.611	0.593	0.588	0.505	0.579	0.725	0.761	0.631	1.111	0.793	0.826	0.819	0.891	0.671	0.799	0.581	0.650	0.817	0.680	0.622	0.453	0.521	0.287	0.201
