Sample:	'1
File name:	Default_20230210_160204.FD3
Run date:	'15:55:42, 02/10/2023
Operator:	dsjg
Comment:	'

Instrument
Model:	F-2700 FL Spectrophotometer
Serial number:	2198-001
ROM Version:	4J14000 07

Instrument parameters
Measurement type:	3-D scan
Data mode:	Fluorescence
EX  Start WL:	220.0 nm
EX  End WL:	600.0 nm
EX Sampling interval:	5.0 nm
EM  Start WL:	230.0 nm
EM  End WL:	650.0 nm
EM Sampling interval:	5.0 nm
Scan speed:	12000 nm/min
EX Slit:	5.0 nm
EM Slit:	5.0 nm
PMT Voltage:	700 V
Response:	Auto 
Corrected spectra:	Off
Contour interval:	50.000

Peak integration
Integration method:	Rectangular
Sensitivity:	1
Threshold:	1.000

Peaks
No.	ApexEX/EM(nm)	Height(Data)
1	225.0/595.0	26.52
2	225.0/635.0	23.40
3	230.0/350.0	545.9
4	240.0/385.0	679.1
5	240.0/400.0	678.5
6	250.0/440.0	885.1
7	255.0/280.0	151.7
8	270.0/300.0	336.8
9	270.0/595.0	37.96
10	275.0/305.0	410.0
11	275.0/380.0	628.0
12	275.0/605.0	33.38
13	280.0/355.0	563.2
14	280.0/620.0	28.94
15	285.0/320.0	418.5
16	335.0/380.0	358.0
17	510.0/440.0	4.756

Data points
	220.0	225.0	230.0	235.0	240.0	245.0	250.0	255.0	260.0	265.0	270.0	275.0	280.0	285.0	290.0	295.0	300.0	305.0	310.0	315.0	320.0	325.0	330.0	335.0	340.0	345.0	350.0	355.0	360.0	365.0	370.0	375.0	380.0	385.0	390.0	395.0	400.0	405.0	410.0	415.0	420.0	425.0	430.0	435.0	440.0	445.0	450.0	455.0	460.0	465.0	470.0	475.0	480.0	485.0	490.0	495.0	500.0	505.0	510.0	515.0	520.0	525.0	530.0	535.0	540.0	545.0	550.0	555.0	560.0	565.0	570.0	575.0	580.0	585.0	590.0	595.0	600.0
230.0	31.19	410.8	883.5	215.5	11.32	7.074	5.942	4.973	4.191	3.571	3.284	2.884	2.604	2.233	1.921	1.684	1.575	1.405	1.291	1.237	1.091	1.050	0.949	0.963	1.001	0.893	0.897	0.798	0.833	0.803	0.808	0.736	0.732	0.702	0.619	0.675	0.692	0.659	0.597	0.575	0.552	0.556	0.536	0.552	0.483	0.497	0.542	1.548	3.675	3.911	1.747	0.606	0.386	0.388	0.376	0.395	0.388	0.386	0.405	0.404	0.395	0.371	0.350	0.355	0.379	0.398	0.391	0.386	0.400	0.368	0.388	0.381	0.401	0.412	0.388	0.400	0.389
235.0	25.16	136.8	781.7	 1252	298.7	13.90	6.217	5.332	4.605	4.017	3.563	2.936	2.870	2.406	2.027	1.641	1.529	1.501	1.258	1.160	1.045	1.120	1.009	0.985	1.033	0.913	0.829	0.885	0.891	0.753	0.768	0.740	0.730	0.680	0.606	0.603	0.630	0.735	0.667	0.564	0.565	0.554	0.611	0.532	0.486	0.492	0.465	0.698	1.460	3.107	4.987	6.454	3.494	0.952	0.426	0.414	0.411	0.343	0.446	0.352	0.390	0.350	0.342	0.365	0.416	0.383	0.395	0.370	0.414	0.385	0.385	0.366	0.381	0.381	0.386	0.412	0.371
240.0	32.99	50.72	295.6	 1369	 1452	225.8	8.349	6.060	5.175	4.725	3.943	3.006	2.841	2.256	2.139	1.945	1.631	1.471	1.208	1.277	1.045	1.118	0.997	1.010	1.019	0.946	0.858	0.877	0.911	0.864	0.852	0.717	0.667	0.662	0.598	0.601	0.572	0.723	0.651	0.574	0.590	0.527	0.538	0.546	0.531	0.546	0.452	0.515	0.667	1.134	2.556	6.681	9.625	7.280	2.732	0.629	0.474	0.379	0.380	0.380	0.383	0.341	0.378	0.426	0.484	0.461	0.366	0.401	0.391	0.400	0.400	0.353	0.374	0.372	0.396	0.443	0.410
245.0	36.59	49.78	85.56	601.0	 1911	 1432	148.8	6.972	5.332	4.763	4.021	3.034	3.124	2.647	2.050	1.961	1.666	1.292	1.232	1.310	1.187	1.153	0.985	1.022	1.004	0.961	0.850	0.932	0.874	0.848	0.833	0.740	0.776	0.682	0.688	0.592	0.590	0.603	0.681	0.657	0.628	0.573	0.487	0.546	0.535	0.523	0.565	0.509	0.514	0.543	0.891	2.513	6.115	10.94	10.74	6.166	1.674	0.446	0.413	0.414	0.400	0.399	0.414	0.400	0.417	0.382	0.383	0.378	0.402	0.390	0.375	0.347	0.432	0.376	0.367	0.407	0.349
250.0	25.44	53.34	75.81	165.0	749.0	 1814	 1783	531.3	23.44	5.622	4.508	3.873	3.190	2.755	2.349	1.911	1.664	1.510	1.342	1.321	1.206	1.137	1.063	1.027	1.000	0.910	0.858	0.954	0.906	0.898	0.792	0.801	0.746	0.640	0.658	0.636	0.539	0.572	0.640	0.628	0.608	0.617	0.573	0.542	0.500	0.530	0.552	0.581	0.642	0.570	0.568	0.942	1.778	3.815	6.633	9.915	12.00	9.876	5.295	1.530	0.485	0.410	0.425	0.411	0.415	0.381	0.397	0.371	0.416	0.393	0.374	0.387	0.417	0.371	0.374	0.426	0.397
255.0	22.99	28.14	76.68	118.4	192.8	523.4	 1822	 2225	232.0	21.34	5.407	4.156	3.567	3.085	2.588	2.123	1.717	1.467	1.382	1.230	1.248	1.234	1.162	1.042	1.009	1.035	0.965	0.939	0.942	0.827	0.819	0.821	0.697	0.640	0.660	0.627	0.604	0.575	0.594	0.565	0.568	0.582	0.598	0.525	0.552	0.546	0.488	0.461	0.488	0.575	0.660	0.968	0.876	1.160	1.817	2.727	4.927	10.43	16.66	16.25	8.202	1.717	0.400	0.446	0.434	0.399	0.423	0.402	0.401	0.384	0.400	0.366	0.399	0.361	0.399	0.402	0.376
260.0	19.83	20.81	40.96	110.6	112.2	133.3	653.4	 2466	 1862	188.1	12.36	4.842	3.928	3.392	2.581	2.491	1.689	1.587	1.421	1.434	1.340	1.152	1.112	1.087	1.145	0.960	0.988	0.960	0.884	0.886	0.775	0.818	0.701	0.625	0.629	0.646	0.637	0.541	0.539	0.530	0.532	0.578	0.598	0.573	0.584	0.525	0.539	0.439	0.504	0.456	0.547	0.933	1.072	0.824	0.740	0.967	1.446	3.138	8.165	15.91	21.47	15.42	5.995	0.994	0.477	0.432	0.391	0.435	0.364	0.431	0.416	0.359	0.370	0.391	0.400	0.386	0.369
265.0	20.27	17.06	20.76	66.31	132.3	77.17	164.9	993.4	 3025	 1613	150.2	7.926	4.872	3.732	2.818	2.910	2.067	1.782	1.618	1.320	1.248	1.223	1.230	1.047	1.141	0.980	1.006	0.914	0.813	0.854	0.772	0.800	0.712	0.713	0.637	0.699	0.639	0.523	0.519	0.572	0.551	0.566	0.533	0.544	0.592	0.558	0.563	0.500	0.463	0.428	0.402	0.637	0.950	1.165	0.837	0.653	0.697	1.073	2.210	5.329	12.66	21.56	22.65	12.99	3.513	0.517	0.416	0.408	0.404	0.435	0.385	0.380	0.395	0.405	0.381	0.457	0.410
270.0	22.56	18.57	17.62	26.93	76.78	118.0	98.22	247.3	 1091	 2531	 2583	643.2	39.50	4.648	3.659	2.927	2.323	1.955	1.785	1.543	1.366	1.288	1.161	1.151	1.125	1.008	1.087	0.968	1.011	0.918	0.848	0.823	0.797	0.711	0.690	0.629	0.586	0.568	0.542	0.577	0.523	0.526	0.559	0.564	0.607	0.570	0.520	0.472	0.508	0.423	0.398	0.480	0.598	0.731	0.899	0.959	0.994	0.809	0.896	1.594	3.336	6.829	11.77	17.51	20.17	17.01	9.832	3.423	0.604	0.433	0.414	0.402	0.384	0.415	0.390	0.452	0.396
275.0	26.51	27.50	23.20	20.37	29.08	70.87	141.8	125.9	263.9	691.3	 2277	 3928	956.3	44.39	4.258	3.749	2.741	2.276	2.045	1.616	1.546	1.356	1.184	1.234	1.097	1.024	1.063	1.030	1.043	1.047	0.872	0.864	0.844	0.715	0.707	0.628	0.553	0.568	0.572	0.579	0.546	0.578	0.499	0.568	0.596	0.634	0.543	0.522	0.499	0.470	0.456	0.438	0.451	0.494	0.614	0.662	1.026	1.238	1.069	0.937	1.141	1.857	3.038	4.486	6.829	13.54	23.86	25.31	14.46	3.428	0.513	0.449	0.402	0.433	0.429	0.424	0.445
280.0	30.38	41.47	36.87	24.74	20.18	33.15	104.2	151.7	114.6	185.5	745.7	 2981	 3960	745.0	20.33	4.506	3.317	2.678	2.143	1.770	1.587	1.528	1.367	1.230	1.212	1.166	1.140	0.970	1.001	0.879	0.960	0.895	0.884	0.760	0.793	0.698	0.581	0.631	0.571	0.591	0.568	0.490	0.522	0.496	0.486	0.631	0.588	0.620	0.537	0.463	0.446	0.509	0.448	0.453	0.524	0.497	0.631	0.900	1.263	1.302	0.930	0.932	1.095	1.487	1.985	3.942	9.608	19.69	28.65	23.32	9.704	1.432	0.435	0.442	0.464	0.440	0.458
285.0	42.78	54.35	52.64	34.64	23.20	25.98	56.78	142.4	153.9	99.72	220.6	 1050	 3410	 3653	100.0	8.895	4.409	2.964	2.616	2.029	1.797	1.739	1.451	1.325	1.265	1.299	1.024	0.973	1.082	0.925	0.943	0.966	0.798	0.757	0.732	0.685	0.594	0.682	0.588	0.559	0.558	0.511	0.470	0.557	0.527	0.623	0.622	0.655	0.595	0.550	0.481	0.510	0.477	0.461	0.454	0.488	0.557	0.685	0.928	1.212	1.428	1.149	0.813	0.854	1.011	1.465	2.829	5.996	13.40	24.16	27.80	19.27	5.414	0.638	0.447	0.448	0.500
290.0	54.75	80.27	75.30	51.60	36.58	31.98	42.92	90.79	170.2	185.8	160.2	328.8	 1119	 2612	 3139	 1400	29.84	4.152	3.143	2.493	1.968	1.889	1.594	1.450	1.425	1.328	1.153	1.122	1.137	1.002	0.979	0.915	0.888	0.765	0.688	0.762	0.662	0.643	0.599	0.553	0.534	0.560	0.495	0.541	0.546	0.593	0.642	0.677	0.759	0.645	0.553	0.555	0.559	0.521	0.503	0.523	0.558	0.609	0.686	0.775	1.042	1.338	1.463	1.336	1.074	1.140	1.342	2.045	3.800	7.283	12.27	18.74	21.37	20.38	12.14	3.946	0.625
295.0	64.59	110.3	105.5	76.40	50.96	47.10	56.10	78.10	129.6	236.2	282.6	221.5	367.3	711.9	 1753	 3772	 2141	34.60	4.560	3.042	2.361	2.213	1.682	1.516	1.451	1.389	1.268	1.124	1.093	1.070	0.998	1.071	0.919	0.744	0.761	0.683	0.720	0.705	0.616	0.571	0.563	0.572	0.509	0.573	0.574	0.643	0.617	0.692	0.839	0.757	0.610	0.743	0.628	0.662	0.602	0.536	0.601	0.667	0.753	0.798	0.888	1.023	1.326	1.695	1.909	1.820	1.409	1.379	1.764	2.441	3.537	5.050	6.814	12.66	24.02	28.06	16.71
300.0	70.64	123.8	129.5	93.50	65.12	61.83	69.93	92.50	130.6	216.8	336.8	312.6	241.4	261.5	558.4	 2242	 4312	515.6	19.71	3.869	2.943	2.396	2.034	1.872	1.578	1.587	1.283	1.165	1.120	1.203	1.054	1.013	0.889	0.861	0.809	0.731	0.824	0.657	0.721	0.660	0.608	0.534	0.578	0.543	0.549	0.644	0.652	0.749	0.873	0.802	0.721	0.830	0.695	0.683	0.688	0.663	0.632	0.746	0.725	0.793	0.914	0.986	1.106	1.483	1.905	2.313	2.222	1.658	1.508	1.452	1.711	1.937	2.155	3.701	8.871	19.60	30.83
305.0	82.23	132.7	151.6	105.6	80.85	77.83	93.56	115.1	152.1	214.6	326.7	410.0	295.2	198.6	215.5	736.3	 2822	 3980	396.8	8.008	3.443	2.722	2.289	2.003	1.787	1.532	1.363	1.283	1.247	1.122	1.062	0.987	0.954	0.920	0.914	0.707	0.777	0.718	0.668	0.651	0.611	0.559	0.633	0.586	0.567	0.628	0.671	0.805	0.862	0.861	0.733	0.815	0.778	0.729	0.733	0.783	0.725	0.882	0.897	0.976	1.109	1.106	1.220	1.423	1.651	2.062	2.588	2.500	1.855	1.608	1.438	1.342	1.370	1.529	2.700	5.909	13.48
310.0	88.60	145.9	161.3	123.0	95.86	95.95	111.4	140.2	176.9	234.0	311.1	395.5	404.8	266.0	171.1	238.2	843.3	 2364	 3282	 1440	22.84	3.928	2.852	2.298	2.018	1.884	1.586	1.481	1.335	1.177	1.141	0.985	1.028	0.927	0.826	0.848	0.777	0.724	0.664	0.624	0.599	0.572	0.604	0.550	0.625	0.701	0.722	0.854	0.919	0.847	0.765	0.869	0.808	0.821	0.777	0.793	0.935	0.944	1.043	1.024	1.200	1.188	1.352	1.481	1.701	1.852	2.075	2.379	2.473	2.295	2.001	1.595	1.277	1.223	1.319	1.944	3.798
315.0	94.98	169.6	186.4	139.7	112.0	112.4	134.4	162.2	206.7	263.2	330.3	372.4	408.4	392.9	234.6	156.9	254.9	597.2	 1453	 3857	 2127	28.87	3.800	2.829	2.446	2.025	1.849	1.657	1.518	1.339	1.192	1.106	1.061	0.962	0.888	0.821	0.853	0.752	0.678	0.632	0.581	0.635	0.625	0.581	0.703	0.730	0.809	0.934	0.996	0.952	0.892	0.904	0.967	0.829	0.869	0.907	0.943	0.963	1.180	1.204	1.243	1.377	1.580	1.644	1.897	1.959	2.159	2.152	2.263	2.278	2.573	2.350	1.733	1.399	1.259	1.218	1.592
320.0	120.6	224.4	229.9	169.3	130.7	123.7	152.8	185.6	231.6	295.3	358.0	400.7	411.0	418.5	345.1	182.6	147.6	190.9	415.7	 1940	 4415	396.6	17.84	3.751	2.861	2.270	1.916	1.746	1.573	1.473	1.208	1.160	1.077	0.905	0.944	0.816	0.837	0.791	0.631	0.651	0.579	0.603	0.638	0.612	0.653	0.808	0.901	1.093	1.171	0.987	0.977	1.012	0.906	0.928	0.922	0.996	1.048	1.081	1.296	1.265	1.414	1.488	1.798	1.876	1.963	2.100	2.171	2.348	2.381	2.362	2.453	2.698	2.482	1.970	1.360	1.214	1.310
325.0	143.5	268.2	299.5	218.6	151.4	143.2	167.6	206.2	255.4	329.8	395.0	437.7	431.7	409.6	402.2	265.3	148.7	117.6	142.3	566.7	 2633	 3267	327.8	7.831	3.386	2.665	2.040	1.844	1.737	1.612	1.312	1.221	1.136	0.919	0.983	0.853	0.821	0.753	0.640	0.687	0.613	0.577	0.654	0.618	0.678	0.846	0.979	1.323	1.314	1.135	1.063	1.155	1.032	0.980	1.045	0.960	1.070	1.204	1.245	1.378	1.557	1.653	1.966	1.872	2.194	2.218	2.361	2.497	2.367	2.474	2.406	2.521	2.694	2.671	1.975	1.607	1.365
330.0	171.3	330.6	380.1	294.8	197.0	167.8	192.8	226.7	282.5	351.8	426.6	470.3	467.5	427.2	387.2	339.8	233.9	134.1	100.7	175.4	724.7	 2121	 3068	 1280	20.98	3.808	2.830	2.320	1.918	1.749	1.506	1.325	1.236	1.039	1.011	0.840	0.840	0.809	0.729	0.727	0.630	0.640	0.659	0.629	0.723	0.892	1.056	1.484	1.632	1.531	1.323	1.410	1.208	1.156	1.090	1.094	1.326	1.309	1.374	1.462	1.549	1.801	2.041	2.051	2.246	2.346	2.448	2.515	2.618	2.634	2.630	2.347	2.486	2.467	2.332	2.244	1.962
335.0	185.8	377.9	454.5	368.9	256.9	213.0	229.3	255.2	316.0	379.3	453.9	502.5	506.8	459.6	395.6	328.6	319.4	210.0	122.6	109.8	212.7	525.6	 1330	 4023	 1972	26.53	3.838	2.874	2.335	2.003	1.673	1.414	1.292	1.208	1.026	0.920	0.842	0.926	0.755	0.759	0.687	0.742	0.677	0.697	0.775	1.008	1.297	1.628	1.761	1.914	1.708	1.726	1.522	1.370	1.382	1.329	1.321	1.466	1.479	1.653	1.729	2.053	1.998	2.185	2.477	2.632	2.692	2.686	2.830	2.768	2.824	2.663	2.583	2.368	2.180	2.108	2.172
340.0	190.9	402.2	511.2	426.1	303.9	251.7	252.7	283.4	334.6	394.7	477.0	523.4	530.2	493.0	423.9	336.3	312.8	289.0	165.4	114.8	116.2	169.3	368.1	 1982	 4517	342.2	16.72	3.622	2.665	2.110	1.972	1.714	1.393	1.272	1.134	0.908	0.977	0.794	0.886	0.788	0.690	0.667	0.710	0.746	0.820	0.928	1.340	1.621	1.908	2.006	1.819	1.996	1.774	1.621	1.432	1.362	1.427	1.535	1.566	1.789	1.915	2.163	2.252	2.458	2.638	2.469	2.681	2.928	2.856	2.740	2.787	2.697	2.773	2.402	2.310	2.024	2.090
345.0	181.1	396.0	541.5	480.3	363.2	291.9	286.2	303.8	350.5	409.5	483.2	531.6	541.5	507.9	443.7	353.9	299.8	302.1	236.3	140.6	112.2	105.1	133.5	557.3	 2813	 3963	288.7	7.904	3.453	2.757	2.081	1.851	1.579	1.263	1.142	0.933	0.972	0.852	0.970	0.718	0.662	0.718	0.666	0.674	0.816	0.939	1.212	1.805	1.955	2.166	1.996	2.243	2.091	1.952	1.722	1.604	1.530	1.805	1.656	1.910	2.047	2.174	2.162	2.546	2.488	2.681	2.847	2.862	2.917	2.932	3.049	2.805	2.838	2.529	2.141	2.329	2.209
350.0	177.4	385.6	545.9	528.9	447.1	374.7	368.2	390.9	405.1	454.8	508.5	550.3	552.7	527.9	469.6	387.3	325.0	288.0	278.1	225.1	146.7	116.8	102.9	179.2	754.2	 2335	 2908	 1157	19.46	3.472	2.551	2.213	1.623	1.418	1.261	0.954	1.023	0.901	0.890	0.774	0.727	0.761	0.742	0.676	0.755	1.023	1.205	1.742	2.016	2.091	2.072	2.328	2.263	2.160	2.054	1.998	2.054	2.087	2.254	2.231	2.344	2.287	2.422	2.576	2.717	2.814	2.879	2.987	3.031	3.026	3.053	2.975	3.011	2.666	2.442	2.634	2.320
355.0	168.0	377.6	543.5	568.2	510.1	443.6	425.9	450.0	442.9	483.6	523.6	558.6	563.2	534.9	486.5	414.1	359.8	306.4	270.5	280.4	229.1	151.6	123.3	119.2	223.4	566.6	 1295	 3898	 1785	25.65	3.597	2.669	1.863	1.587	1.359	1.148	1.092	0.892	0.950	0.923	0.787	0.761	0.683	0.662	0.789	1.021	1.113	1.606	2.018	1.962	2.058	2.451	2.471	2.304	2.431	2.281	2.279	2.299	2.386	2.320	2.532	2.618	2.501	2.821	2.788	2.795	2.862	3.070	3.127	3.026	3.217	3.055	3.093	2.774	2.806	2.799	2.659
360.0	167.5	364.6	541.1	578.8	528.2	466.5	440.2	452.1	453.7	484.6	522.8	548.5	559.6	531.8	494.9	422.5	378.5	324.2	282.0	276.9	287.9	201.8	147.8	122.2	121.2	173.8	346.6	 1972	 4252	324.8	15.90	3.462	2.361	1.877	1.487	1.229	1.181	1.002	0.877	0.903	0.770	0.786	0.762	0.701	0.795	0.943	1.221	1.518	1.972	1.964	2.061	2.548	2.553	2.514	2.510	2.344	2.259	2.434	2.370	2.468	2.561	2.694	2.651	2.762	2.782	2.838	2.835	3.034	3.077	3.085	3.083	3.084	3.112	2.795	2.738	2.806	2.552
365.0	154.8	350.2	527.3	581.1	557.4	492.0	462.7	469.0	457.1	489.6	527.6	546.6	549.4	530.4	497.6	432.9	390.4	346.4	302.8	282.0	297.1	271.4	185.9	143.7	115.6	101.9	120.8	536.9	 2756	 3792	274.1	8.159	3.084	2.182	1.681	1.213	1.169	1.070	0.963	0.918	0.844	0.769	0.751	0.781	0.814	0.934	1.080	1.604	1.921	1.957	2.014	2.552	2.672	2.664	2.460	2.335	2.410	2.481	2.558	2.692	2.623	2.789	2.788	2.928	2.981	2.877	2.791	2.984	3.081	3.099	2.988	3.097	3.141	2.859	2.895	2.810	2.691
370.0	148.9	328.1	521.4	590.0	598.2	544.9	519.2	516.6	498.7	519.1	547.0	562.3	560.7	538.1	504.7	455.8	419.7	375.2	337.9	311.5	298.8	306.8	270.8	195.3	151.1	118.0	98.07	170.7	739.2	 2340	 2855	 1069	17.60	3.430	2.208	1.570	1.308	1.102	1.033	0.899	0.844	0.796	0.761	0.795	0.813	0.958	1.060	1.535	1.824	1.999	2.176	2.689	2.870	2.843	2.687	2.491	2.737	2.693	2.884	2.716	2.840	2.808	2.842	2.993	3.088	2.992	2.900	3.077	3.110	3.142	3.016	3.106	3.201	3.078	2.978	2.914	2.835
375.0	157.5	321.6	515.3	624.7	643.8	581.1	549.9	536.2	522.1	546.4	580.1	604.6	585.0	538.4	504.6	470.0	440.4	408.2	378.9	353.5	333.8	323.6	332.6	296.7	219.9	177.2	143.5	130.2	232.8	577.8	 1346	 3977	 1615	22.37	3.021	1.979	1.700	1.274	1.088	1.072	0.904	0.989	0.872	0.788	0.839	0.907	1.175	1.425	1.781	1.918	2.183	2.822	3.067	3.027	2.827	2.789	2.789	2.728	2.948	2.879	2.880	2.820	2.822	3.070	3.168	3.127	3.020	3.145	3.272	3.148	3.159	3.316	3.142	3.086	3.043	2.962	3.025
380.0	158.3	323.5	507.4	634.1	672.6	600.3	550.2	538.8	533.4	561.0	593.0	628.0	618.6	546.8	510.6	479.4	451.4	428.0	400.5	380.5	361.7	348.0	345.4	358.0	288.3	226.2	195.3	159.7	152.8	206.9	381.0	 2101	 3969	277.2	13.28	2.701	2.075	1.468	1.137	1.001	0.992	0.886	0.830	0.793	0.785	0.943	1.128	1.473	1.755	2.057	2.130	2.774	3.163	3.235	3.057	2.814	2.970	2.855	2.929	2.915	2.872	2.944	3.019	3.059	3.193	3.170	3.066	3.457	3.371	3.461	3.234	3.280	3.233	3.172	3.100	3.195	3.010
385.0	154.9	318.7	508.2	639.4	679.1	611.3	563.2	538.2	538.8	558.5	592.5	613.0	618.5	551.0	506.1	474.9	459.2	439.8	413.2	397.6	378.8	361.2	347.4	355.4	336.6	261.2	218.8	180.0	151.7	142.8	156.3	583.3	 2638	 3152	221.1	5.396	2.340	1.782	1.368	1.193	1.051	0.929	0.936	0.889	0.801	1.003	1.140	1.421	1.775	2.049	2.148	2.687	3.050	3.247	3.146	2.940	2.969	2.703	2.907	2.900	2.827	2.795	2.953	3.046	3.181	3.142	3.203	3.512	3.497	3.420	3.389	3.176	3.187	3.027	3.088	3.156	3.116
390.0	150.9	305.8	486.4	620.6	664.2	624.3	583.6	565.4	535.8	546.9	565.9	593.8	593.2	541.6	509.2	480.1	466.8	447.6	426.6	412.4	394.3	377.4	359.4	346.4	341.2	309.7	245.2	195.2	158.2	131.4	108.8	179.7	705.4	 2001	 2327	813.8	14.00	2.378	1.690	1.372	1.081	1.024	0.973	0.933	0.811	0.998	1.140	1.450	1.743	2.005	2.091	2.663	3.086	3.175	3.124	3.025	3.053	2.993	2.967	2.919	2.903	2.903	3.004	3.098	3.118	3.069	3.159	3.230	3.324	3.244	3.081	3.171	3.130	3.062	3.146	3.111	3.145
395.0	150.4	304.5	473.2	613.6	677.4	647.6	613.4	594.3	543.9	548.2	567.7	586.9	581.0	535.5	510.3	487.5	469.4	459.2	442.8	429.4	410.3	397.4	382.5	365.4	345.2	337.7	307.4	235.4	185.2	150.9	114.6	102.5	197.2	477.6	 1112	 2930	 1228	17.71	2.248	1.574	1.348	1.075	0.992	0.974	0.845	1.108	1.191	1.459	1.711	1.876	2.157	2.679	3.119	3.232	3.182	3.033	3.199	3.169	3.192	3.109	2.954	2.909	2.824	3.073	3.111	2.880	3.092	3.261	3.203	3.293	3.103	3.205	3.059	3.037	3.161	3.226	3.132
400.0	152.5	294.2	471.6	596.8	678.5	661.9	644.7	618.1	554.8	547.2	564.1	583.1	581.8	533.6	506.5	484.0	472.6	456.4	449.1	436.5	420.1	407.4	399.6	382.6	357.4	341.2	342.2	283.0	216.7	175.7	136.3	99.93	95.15	138.2	287.0	 1564	 2990	237.0	10.42	2.175	1.535	1.222	1.058	1.001	0.915	1.012	1.295	1.407	1.802	1.894	2.035	2.640	3.045	3.249	3.294	3.189	3.287	3.292	3.365	3.177	2.952	2.965	3.040	3.135	3.034	3.031	2.875	3.269	3.188	3.259	3.213	3.079	3.135	3.003	3.175	3.281	3.131
405.0	146.4	289.1	465.2	593.7	669.4	675.1	660.6	635.4	565.0	549.9	558.8	574.3	569.8	536.7	501.0	482.6	471.5	456.0	451.3	435.6	425.4	414.4	403.5	389.3	367.2	343.5	336.0	317.1	249.3	198.1	154.4	111.3	82.79	70.41	89.95	417.8	 1979	 1930	190.8	4.678	2.012	1.419	1.219	1.052	0.989	1.066	1.171	1.416	1.775	1.941	2.070	2.688	3.100	3.241	3.192	3.198	3.327	3.280	3.458	3.148	3.017	3.095	3.008	2.789	2.908	2.841	2.985	3.109	3.079	3.191	3.111	3.133	3.041	3.069	3.087	3.255	3.323
410.0	147.7	292.1	460.4	584.1	671.3	696.3	704.1	675.1	576.1	546.8	544.3	552.0	550.9	522.3	496.4	476.1	465.0	454.0	444.7	430.2	417.6	410.7	399.0	391.1	370.0	346.4	327.3	314.2	285.2	226.9	172.0	128.1	92.03	66.97	55.32	118.4	519.0	 1441	 1891	698.4	11.99	2.191	1.623	1.288	1.178	1.163	1.234	1.557	1.792	1.968	2.126	2.744	3.057	3.175	3.281	3.195	3.471	3.634	3.663	3.455	3.338	3.177	2.883	2.882	2.836	2.836	2.996	3.035	3.149	3.158	3.087	3.051	3.069	3.007	3.040	3.128	3.124
415.0	148.9	285.6	447.6	569.8	676.9	711.7	746.4	727.4	598.8	546.5	535.0	541.7	529.6	511.8	487.6	469.2	456.6	446.7	438.7	424.0	409.7	403.7	394.0	388.9	374.6	350.8	330.3	306.2	289.8	265.2	197.4	145.9	106.7	78.14	59.46	59.55	138.8	342.4	896.4	 2308	927.3	15.91	2.597	1.704	1.389	1.299	1.231	1.602	1.773	1.778	2.123	2.698	3.022	3.227	3.473	3.359	3.628	3.780	3.812	3.603	3.358	3.183	3.143	3.074	2.986	2.837	2.803	2.956	3.018	2.904	2.934	2.988	2.882	3.094	3.068	2.874	2.963
420.0	147.4	271.3	443.6	577.7	673.6	728.5	789.1	752.4	619.0	549.3	532.1	527.8	518.9	496.6	481.3	457.7	446.8	440.1	433.0	415.2	402.4	396.8	389.0	385.4	372.7	353.3	333.6	308.5	285.4	278.0	228.3	161.4	120.5	88.35	66.78	52.62	59.63	97.20	229.3	 1238	 2304	214.3	9.722	2.408	1.712	1.457	1.304	1.633	1.698	1.895	2.021	2.665	3.122	3.317	3.492	3.405	3.812	4.008	4.021	3.829	3.318	3.186	3.209	2.966	2.806	2.852	2.852	2.909	2.843	2.978	2.916	2.754	2.844	2.991	2.903	2.933	3.045
425.0	134.4	270.3	442.8	573.4	674.4	754.4	807.5	787.7	629.1	547.8	531.0	521.0	511.2	486.2	467.3	450.4	439.3	433.1	424.5	406.3	395.5	391.8	384.3	378.8	370.3	352.4	336.9	312.3	287.7	272.5	249.4	184.9	133.2	98.92	75.38	59.19	49.65	48.63	72.36	334.5	 1600	 1718	168.1	4.901	2.206	1.652	1.455	1.526	1.713	1.919	1.913	2.508	2.920	3.355	3.425	3.477	3.890	4.134	4.133	4.065	3.655	3.123	3.007	3.098	2.924	2.843	2.854	2.759	2.879	2.798	2.858	3.034	2.927	2.823	2.892	3.170	3.027
430.0	141.8	272.4	433.4	565.9	684.9	775.5	839.5	818.3	656.8	556.9	529.2	511.5	495.1	479.8	461.7	443.2	426.4	421.9	414.6	398.1	383.1	375.7	372.8	370.1	363.5	349.4	336.3	315.8	291.7	269.8	247.6	212.4	157.5	115.4	89.73	73.23	60.37	50.81	48.70	103.1	438.7	 1218	 1575	553.7	11.41	2.424	1.758	1.647	1.838	1.878	1.988	2.559	3.004	3.262	3.388	3.599	4.122	4.192	4.306	4.083	3.631	3.230	2.980	3.055	2.925	2.767	2.758	2.705	2.900	2.769	2.726	2.781	2.849	2.786	2.795	2.991	3.022
435.0	159.0	265.5	424.9	556.8	677.2	796.9	870.5	840.8	671.3	560.1	527.6	514.2	487.4	468.5	452.5	431.7	415.6	409.2	401.9	385.8	368.0	359.3	358.5	358.7	352.8	341.8	331.2	315.8	297.0	273.8	242.2	214.7	187.0	137.8	106.5	87.04	72.91	62.18	54.24	62.11	130.8	304.0	766.6	 1920	207.5	13.05	2.383	2.004	2.013	1.863	2.071	2.697	3.136	3.357	3.360	3.758	4.129	4.305	4.565	4.330	3.836	3.466	2.994	2.892	3.013	2.743	2.729	2.799	2.700	2.736	2.875	2.806	2.847	2.848	2.782	2.943	3.089
440.0	198.0	256.3	418.0	557.1	672.0	790.5	885.1	859.3	680.5	556.9	523.9	503.7	478.8	457.2	439.8	421.0	407.5	400.4	390.9	375.0	357.1	349.0	348.7	347.9	344.4	339.0	326.9	314.2	296.8	274.3	244.1	210.8	193.1	157.5	116.9	95.76	81.57	69.35	59.88	56.71	67.02	100.1	210.2	 1149	 1673	185.2	5.593	2.277	2.170	2.041	2.049	2.546	3.022	3.273	3.600	3.717	4.256	4.479	4.756	4.400	3.788	3.300	3.194	2.972	2.890	2.654	2.890	2.701	2.652	2.917	2.612	2.631	2.757	2.745	2.710	2.868	3.074
445.0	229.5	269.2	403.1	551.6	672.7	789.7	885.0	865.0	678.3	555.4	515.7	494.6	467.2	437.4	426.5	408.6	395.1	389.9	379.3	363.0	342.9	335.8	333.6	337.0	336.1	329.4	321.5	307.4	294.3	273.7	243.4	209.6	186.6	167.4	129.7	101.8	87.48	74.05	64.15	57.42	53.97	55.98	72.79	324.4	 1459	 1504	24.40	3.377	2.255	2.331	2.128	2.609	3.120	3.285	3.495	3.643	4.351	4.425	4.655	4.220	3.810	3.500	3.038	3.054	2.711	2.613	2.711	2.648	2.527	2.666	2.541	2.672	2.778	2.770	2.579	2.826	2.924
450.0	231.9	339.2	400.5	534.9	660.6	774.0	873.4	847.8	667.2	543.5	500.0	474.4	444.3	418.7	403.8	385.9	373.2	369.2	358.7	341.3	321.6	315.1	314.5	317.8	316.1	311.6	306.3	295.8	284.2	266.0	239.4	208.0	179.4	159.9	141.5	112.5	91.65	77.60	67.83	59.08	52.42	46.98	43.05	90.60	397.7	 1164	 1382	459.5	8.544	2.431	2.211	2.776	2.967	3.173	3.475	3.680	4.179	4.264	4.662	4.376	3.795	3.504	3.069	2.893	2.658	2.728	2.618	2.525	2.545	2.540	2.550	2.510	2.541	2.581	2.597	2.776	2.756
455.0	175.2	466.5	443.8	507.0	614.8	741.4	853.3	812.8	637.3	523.9	476.6	446.7	417.1	394.8	378.5	360.0	347.3	342.1	334.3	315.8	297.2	289.6	288.5	292.3	293.4	289.1	283.9	279.2	268.7	254.8	231.2	203.1	172.9	150.6	136.0	123.9	98.44	78.73	68.68	60.62	51.20	45.10	36.13	38.76	99.87	272.3	711.4	 1646	174.7	9.426	2.592	2.702	2.978	3.186	3.318	3.482	3.975	4.247	4.282	4.289	3.734	3.349	3.161	2.813	2.631	2.497	2.565	2.339	2.332	2.329	2.316	2.380	2.468	2.359	2.457	2.563	2.681
460.0	138.0	498.5	591.5	489.1	592.2	720.2	810.2	789.9	617.1	499.4	456.8	418.6	399.4	373.9	355.5	340.9	327.3	319.6	312.8	293.6	277.4	269.4	268.7	273.1	272.9	272.1	268.3	265.1	256.4	244.8	223.9	194.6	168.4	145.1	128.2	122.5	105.7	81.80	69.39	59.64	51.12	43.97	35.20	27.57	34.71	68.90	178.6	978.7	 1386	136.8	5.112	2.923	2.950	3.146	3.236	3.419	3.751	4.121	4.059	4.052	3.573	3.269	2.946	2.769	2.533	2.493	2.379	2.287	2.306	2.202	2.286	2.233	2.293	2.285	2.218	2.312	2.492
465.0	118.3	416.5	774.5	522.9	566.7	673.7	763.5	752.7	595.6	483.4	439.4	398.6	375.2	354.8	335.3	319.0	308.5	299.9	295.2	276.7	259.1	251.6	252.2	256.8	255.9	256.7	254.3	248.8	243.4	233.4	215.5	189.3	162.8	140.3	123.7	113.3	107.4	85.69	68.71	58.74	50.59	43.52	33.73	25.48	21.05	24.50	46.92	266.8	 1191	 1124	19.31	3.731	2.925	3.119	3.293	3.299	3.683	3.943	3.935	3.896	3.590	2.993	2.684	2.615	2.541	2.535	2.350	2.227	2.249	2.169	2.154	2.133	2.326	2.116	2.292	2.139	2.248
470.0	102.4	263.8	796.7	790.3	544.4	613.8	704.6	695.2	548.7	448.4	406.6	374.0	347.0	324.0	304.8	289.9	279.5	273.6	266.1	248.6	234.3	226.5	228.3	229.8	232.7	232.8	230.7	227.7	222.3	214.1	199.3	177.2	154.2	133.8	116.9	103.4	96.94	88.97	71.82	58.34	49.55	41.96	33.53	25.55	19.07	15.95	18.75	66.42	324.8	879.3	 1010	351.4	8.702	3.154	3.162	3.220	3.533	3.778	3.784	3.609	3.292	2.789	2.584	2.532	2.403	2.231	2.166	2.130	2.121	1.997	2.080	2.052	2.166	2.154	2.123	2.122	2.159
475.0	102.8	193.6	512.1	 1151	657.6	556.2	638.2	623.4	495.8	406.7	375.0	343.3	317.0	296.5	274.1	262.9	252.9	243.9	237.8	224.4	209.7	201.8	203.8	204.2	207.6	208.4	206.7	205.7	201.5	195.0	182.3	163.5	144.2	125.4	109.5	96.96	86.85	80.88	74.71	59.17	47.88	40.55	32.98	25.53	19.25	15.35	13.43	22.09	78.15	204.9	495.3	 1163	168.2	9.593	3.046	3.087	3.306	3.544	3.560	3.369	3.116	2.589	2.402	2.456	2.114	2.133	2.132	2.077	1.956	1.841	1.974	1.877	2.002	1.892	2.003	2.004	1.996
480.0	93.75	167.6	324.6	 1052	960.6	528.1	583.4	583.3	460.3	387.4	349.6	323.5	295.4	273.6	255.4	242.8	232.5	226.8	221.1	205.5	191.9	186.5	186.4	188.6	189.3	189.6	190.1	190.1	186.3	182.0	169.3	153.2	136.8	120.2	104.1	91.70	81.00	73.87	71.87	62.21	48.98	39.42	32.51	26.16	19.89	16.08	13.03	13.07	24.04	51.19	124.6	650.7	 1055	144.9	5.049	3.130	3.220	3.299	3.224	3.037	2.700	2.353	2.237	2.224	2.089	1.965	1.886	1.879	1.833	1.747	1.993	1.817	1.813	1.863	1.779	1.831	1.819
485.0	89.11	158.8	261.0	740.1	 1281	595.8	545.4	547.4	435.8	366.0	331.1	306.3	277.9	258.6	238.3	225.3	216.5	209.6	206.6	190.7	176.3	171.4	171.5	173.6	175.5	176.4	176.5	176.5	174.1	169.1	160.3	144.2	128.6	113.8	100.1	88.70	78.58	69.04	65.06	63.64	51.33	39.53	33.03	26.31	20.33	16.99	13.76	11.89	12.29	17.35	32.88	173.3	859.2	975.8	23.28	3.708	3.260	3.189	3.093	2.889	2.789	2.501	2.219	2.127	2.040	1.949	1.912	1.768	1.650	1.604	1.853	1.744	1.679	1.771	1.607	1.785	1.711
490.0	87.83	148.5	226.3	417.3	 1139	996.2	517.6	489.8	396.9	337.2	303.5	280.9	254.3	235.8	218.9	204.2	196.2	188.0	185.0	171.4	160.8	154.2	155.0	156.2	157.0	159.0	158.5	159.2	158.2	154.1	145.6	132.5	119.0	105.4	94.04	82.99	74.41	65.59	58.98	57.18	52.64	41.75	32.93	26.77	21.88	17.77	14.68	12.61	10.70	10.34	13.01	43.56	229.6	676.8	838.3	304.0	9.249	3.263	3.101	2.757	2.537	2.349	2.135	2.011	1.913	1.816	1.750	1.646	1.708	1.608	1.670	1.604	1.636	1.537	1.566	1.672	1.556
495.0	79.06	141.4	206.5	296.2	632.7	 1321	676.9	437.5	362.6	303.8	279.2	255.3	227.9	210.5	195.4	182.2	175.5	166.6	164.1	150.5	142.3	136.8	139.2	137.9	140.6	140.7	141.3	142.6	140.8	138.2	131.9	120.0	107.8	97.09	85.91	76.72	68.82	61.20	55.72	49.83	48.31	44.13	34.49	26.91	22.41	18.51	15.86	13.21	10.93	9.901	8.966	15.09	55.99	158.0	458.5	 1056	179.9	9.837	3.066	2.712	2.460	2.181	2.009	1.863	1.780	1.668	1.528	1.451	1.627	1.558	1.492	1.453	1.539	1.410	1.441	1.518	1.483
500.0	68.92	132.0	196.5	254.9	378.3	 1144	 1012	416.3	334.0	280.5	256.4	234.1	210.6	193.3	178.2	165.0	159.4	151.5	148.0	137.1	128.8	124.1	124.9	124.5	128.0	126.3	127.7	127.5	127.7	125.1	119.6	109.4	99.93	89.62	80.70	70.61	64.14	56.89	51.63	46.38	42.72	42.51	36.35	27.07	22.54	19.08	16.28	14.19	11.90	10.10	8.905	9.005	17.39	39.42	115.6	597.0	987.3	150.4	5.172	2.724	2.419	2.132	1.909	1.715	1.690	1.519	1.512	1.455	1.532	1.448	1.420	1.416	1.352	1.295	1.309	1.349	1.414
505.0	65.28	116.8	176.9	228.0	287.7	733.4	 1310	498.6	307.1	255.0	237.5	214.9	193.9	180.9	162.1	149.9	142.7	137.4	133.8	125.0	117.1	113.2	113.4	113.4	115.4	114.4	115.7	116.9	116.6	113.3	108.1	100.3	90.86	81.72	74.40	66.64	59.71	53.68	48.80	44.06	39.14	37.77	37.08	28.42	22.51	18.91	16.58	14.44	12.38	10.52	8.752	7.862	9.019	13.32	29.78	159.0	761.1	852.3	25.09	3.239	2.457	1.994	1.838	1.833	1.521	1.411	1.501	1.438	1.362	1.339	1.327	1.405	1.291	1.283	1.331	1.329	1.325
510.0	59.55	96.70	168.4	208.7	242.7	393.8	 1071	920.4	287.0	229.2	210.1	194.1	172.8	158.7	142.7	133.7	124.2	120.5	114.9	109.2	102.0	99.13	97.81	98.98	99.44	99.51	99.68	100.8	101.4	99.84	94.78	89.37	80.17	72.87	65.79	59.84	54.09	49.24	44.18	39.73	35.76	32.66	32.36	29.87	24.11	19.10	16.55	14.74	12.46	10.91	9.261	8.147	7.368	7.693	10.73	39.39	201.8	573.5	684.3	108.0	8.524	2.023	1.826	1.630	1.449	1.380	1.347	1.277	1.271	1.227	1.232	1.281	1.171	1.237	1.172	1.168	1.206
515.0	52.20	84.13	140.9	194.9	210.4	262.2	540.4	 1181	511.8	200.3	186.1	169.6	152.2	136.7	124.3	116.2	108.2	103.0	99.73	93.08	85.97	85.38	84.03	83.95	84.13	85.80	85.23	85.84	86.26	86.22	81.65	77.67	69.56	63.56	57.89	52.83	48.18	44.26	39.45	36.26	32.09	29.19	26.79	26.86	25.73	20.05	16.36	14.61	12.12	10.87	9.763	8.425	7.399	6.669	6.813	12.82	48.68	133.0	328.4	749.9	178.0	8.067	1.713	1.452	1.305	1.390	1.199	1.201	1.121	1.091	1.184	1.140	1.058	1.033	1.112	1.052	1.043
520.0	48.81	77.51	122.6	171.5	191.8	213.9	310.8	969.2	893.6	207.2	164.8	155.9	137.0	123.8	112.6	104.1	96.23	93.10	89.32	84.10	78.62	75.98	75.56	75.67	75.34	75.94	76.28	75.39	77.55	77.03	73.92	70.01	62.95	57.95	53.28	49.02	44.03	39.66	36.35	33.41	29.57	26.99	25.15	23.38	24.73	21.28	16.26	14.22	12.21	10.80	9.490	8.660	7.326	6.558	6.004	6.954	14.73	33.08	81.96	428.1	732.9	135.2	3.277	1.712	1.337	1.386	1.191	1.153	1.088	1.070	1.063	0.972	1.050	0.988	1.119	0.985	1.071
525.0	44.74	67.30	108.3	152.6	183.3	189.6	231.0	578.3	 1137	341.8	157.3	140.5	125.3	114.3	101.3	93.85	87.78	84.64	80.46	75.06	70.20	67.85	66.87	67.69	67.90	67.71	68.92	68.53	68.73	69.50	66.59	62.53	57.62	52.51	47.76	44.27	40.42	36.64	33.76	30.82	28.02	25.32	23.11	21.30	21.76	21.17	17.32	13.92	11.96	10.47	9.265	8.648	7.395	6.629	6.064	5.761	7.206	10.82	21.41	113.2	535.7	599.9	23.80	2.137	1.453	1.264	1.190	1.231	0.988	0.972	1.005	0.977	0.952	0.930	1.058	0.868	0.975
530.0	41.69	58.51	92.43	123.2	166.2	169.4	185.5	281.9	861.9	795.8	172.5	126.8	109.7	100.4	88.25	81.83	76.09	71.87	68.49	64.30	61.07	58.39	58.15	57.96	58.29	58.61	59.86	59.57	60.29	60.05	57.51	54.42	50.53	46.10	41.54	38.81	36.01	32.82	30.00	27.23	24.99	22.86	20.84	18.82	18.37	19.12	18.23	14.51	11.81	10.08	9.151	8.400	7.079	6.637	6.089	5.391	5.318	5.822	7.928	27.94	139.9	393.3	475.7	105.3	6.940	1.245	1.144	1.095	0.983	0.915	0.906	0.923	0.896	0.911	0.877	0.833	0.869
535.0	35.47	55.90	79.52	100.9	138.8	153.8	156.2	179.2	381.3	967.1	472.2	110.8	97.49	87.07	75.81	69.66	64.43	61.88	58.97	54.90	52.47	50.71	50.48	49.53	49.58	49.53	49.53	51.60	50.02	52.03	49.47	46.10	43.71	39.88	36.02	33.62	31.02	28.34	26.89	24.40	22.44	20.37	18.88	16.95	15.93	15.82	16.61	15.29	11.65	9.744	8.632	7.911	6.830	6.453	6.108	5.498	4.905	4.824	4.843	9.032	33.50	90.81	215.6	524.9	165.5	6.548	1.287	1.102	0.966	0.961	0.900	0.856	0.898	0.853	0.812	0.762	0.800
540.0	37.09	54.17	69.89	91.47	116.2	142.6	140.2	142.3	188.6	704.7	834.8	135.2	86.30	78.43	69.29	61.97	58.90	55.56	51.29	49.54	46.66	44.61	44.25	44.26	43.89	44.14	44.25	44.85	45.85	45.73	44.33	41.12	38.57	35.00	32.41	30.26	27.98	26.04	23.99	21.99	20.66	18.41	17.17	15.89	14.46	13.93	14.41	14.63	12.06	9.860	8.495	7.455	6.574	6.184	5.410	5.338	4.970	4.567	4.167	4.647	9.817	22.47	53.21	285.7	517.8	26.88	2.640	1.096	0.935	0.907	0.916	0.774	0.833	0.757	0.757	0.755	0.768
545.0	36.45	49.17	63.67	79.50	97.54	122.9	131.7	126.8	128.3	379.8	969.9	309.2	78.83	70.38	62.40	55.35	52.25	50.26	46.34	43.92	42.31	40.31	39.82	39.68	39.31	39.97	39.13	39.58	41.61	40.40	39.27	36.62	34.31	31.55	28.67	26.98	25.13	23.41	21.21	20.37	18.43	16.76	16.06	14.83	13.79	12.78	12.17	12.99	12.29	9.933	8.019	6.989	6.290	5.691	5.318	5.199	4.833	4.385	3.912	3.750	4.523	7.021	13.69	74.92	361.0	417.0	23.40	1.498	0.915	0.967	0.835	0.828	0.783	0.765	0.772	0.723	0.731
550.0	32.13	42.61	56.22	71.65	83.15	101.8	120.1	106.8	100.4	163.0	628.0	700.6	107.2	62.72	54.00	49.90	45.71	42.23	39.90	38.19	35.80	33.92	34.43	33.81	33.97	33.50	33.96	34.26	34.95	34.57	33.65	31.96	29.36	27.27	24.98	23.21	21.56	20.32	18.72	17.64	16.09	15.12	14.11	13.12	12.32	11.19	10.60	10.38	10.77	9.893	8.069	6.637	5.858	5.410	5.032	4.846	4.530	4.179	4.027	3.340	3.280	3.579	4.829	18.35	93.31	269.9	275.8	101.3	6.244	0.985	0.859	0.791	0.840	0.747	0.741	0.671	0.738
555.0	28.89	39.67	48.57	61.99	68.32	77.95	102.4	96.24	82.67	92.03	240.7	716.6	410.9	55.19	46.21	43.12	37.64	35.28	32.86	31.99	29.98	28.14	28.23	27.42	28.11	28.21	28.47	28.03	28.33	28.51	27.89	26.32	25.10	22.22	20.95	19.65	18.76	17.78	15.94	15.12	13.72	12.72	12.11	11.13	10.39	9.828	9.295	8.432	8.370	9.054	8.077	6.642	5.385	4.931	4.717	4.252	4.344	4.038	3.710	3.314	3.020	2.816	2.894	5.654	22.37	62.24	132.3	362.7	147.4	5.073	0.940	0.816	0.811	0.682	0.664	0.645	0.647
560.0	29.47	35.38	43.40	56.68	60.07	65.77	84.48	94.07	72.65	70.52	107.1	470.3	680.4	84.55	40.93	36.61	32.47	31.28	29.24	27.25	26.26	24.05	24.00	23.66	23.99	24.29	23.71	24.47	24.51	24.32	23.94	22.66	21.69	19.60	17.86	17.14	16.06	15.25	14.33	13.09	12.27	11.09	10.65	9.910	9.440	8.661	7.988	7.586	6.901	7.455	7.608	6.656	4.998	4.542	4.346	4.032	4.140	3.761	3.580	3.349	2.817	2.587	2.447	3.003	6.595	15.36	32.85	186.4	356.5	27.34	2.044	0.809	0.682	0.666	0.687	0.667	0.611
565.0	28.12	32.42	41.74	48.20	50.86	56.42	66.82	85.34	67.45	59.09	67.45	231.3	703.7	258.1	35.40	31.97	28.31	26.74	25.54	23.53	22.53	20.76	20.96	21.04	20.37	21.01	21.09	20.82	21.02	21.19	20.39	19.69	18.28	16.40	15.66	15.07	13.63	13.02	12.17	11.25	10.55	9.926	9.232	8.595	8.555	7.904	6.905	6.575	6.024	6.135	6.518	6.875	4.979	4.446	4.059	3.720	3.889	3.401	3.351	2.945	2.713	2.562	2.276	2.288	3.041	4.965	8.668	47.97	230.4	281.0	22.27	1.151	0.831	0.663	0.632	0.643	0.610
570.0	26.30	30.78	38.39	39.57	42.38	48.16	51.14	66.15	63.76	51.32	50.67	90.15	399.6	538.1	68.92	25.90	23.37	21.88	20.15	19.28	17.82	17.37	17.17	16.85	16.94	16.75	17.23	16.71	16.84	16.85	16.41	16.09	14.79	13.48	12.86	11.94	11.14	10.29	10.03	9.106	8.349	8.054	7.706	7.128	6.776	6.455	5.838	5.475	5.094	4.783	4.945	5.270	4.726	4.107	3.456	3.372	3.167	3.004	2.847	2.594	2.577	2.370	2.013	2.002	2.154	2.476	3.270	11.87	58.78	167.6	196.7	78.33	4.337	0.717	0.657	0.573	0.576
575.0	21.72	28.38	33.48	31.95	33.78	36.39	39.76	48.69	55.29	48.39	41.09	48.13	139.5	466.2	344.0	22.71	18.47	17.05	15.57	15.09	14.23	13.34	12.95	13.18	12.71	12.72	13.24	13.29	13.23	13.28	12.61	12.33	11.55	10.45	10.14	9.403	8.734	8.060	7.710	7.127	6.518	6.311	6.099	5.657	5.118	5.055	4.736	4.348	4.182	4.005	3.680	3.871	4.032	3.814	3.206	2.861	2.659	2.446	2.431	2.301	2.244	2.147	1.912	1.787	1.815	1.838	1.979	3.837	14.09	38.70	81.90	206.3	90.67	3.130	0.607	0.533	0.542
580.0	24.59	26.49	28.76	29.55	29.88	31.69	35.02	38.26	46.51	46.91	35.46	35.67	55.24	276.6	528.9	57.41	15.66	14.29	12.87	12.23	11.55	11.27	10.65	10.99	10.51	10.62	10.65	11.44	10.76	10.65	10.47	10.04	9.238	8.684	8.212	7.864	7.037	6.665	6.438	5.881	5.532	5.271	4.981	4.728	4.491	4.388	3.947	3.670	3.459	3.306	3.018	2.929	3.281	3.343	2.915	2.471	2.333	2.253	2.118	2.093	1.960	1.877	1.697	1.740	1.598	1.608	1.618	1.928	4.165	9.513	19.97	103.7	197.0	25.24	1.106	0.661	0.515
585.0	25.60	24.08	25.67	25.59	26.72	26.55	31.01	32.76	37.22	45.43	34.79	31.75	33.97	125.0	486.4	218.0	13.49	12.33	11.25	10.72	9.793	9.528	8.996	8.905	8.938	8.782	9.105	9.227	9.158	8.913	8.822	8.347	8.081	7.457	6.741	6.451	6.032	5.680	5.482	5.177	4.731	4.571	4.094	3.914	3.746	3.669	3.264	3.196	2.872	2.851	2.646	2.494	2.626	2.764	2.928	2.311	2.058	2.008	1.816	1.736	1.691	1.513	1.689	1.594	1.493	1.438	1.337	1.386	1.830	2.935	5.194	26.55	124.2	148.5	18.55	0.748	0.561
590.0	23.30	24.28	23.45	23.25	22.93	23.68	26.24	26.70	30.24	39.43	37.25	28.82	25.79	45.59	246.1	414.0	46.75	10.06	9.059	8.520	8.167	7.818	7.201	7.480	7.362	7.424	7.252	7.458	7.254	7.107	7.027	6.702	6.317	5.909	5.456	5.180	4.940	4.556	4.427	4.215	3.885	3.687	3.447	3.258	3.182	3.080	2.890	2.689	2.404	2.319	2.112	2.065	2.091	2.245	2.416	2.312	1.863	1.625	1.630	1.520	1.407	1.338	1.424	1.364	1.275	1.271	1.141	1.227	1.154	1.381	1.727	6.560	31.57	85.92	111.2	44.57	2.592
595.0	23.93	26.52	23.27	20.69	21.02	20.47	22.45	24.00	23.86	33.09	37.96	28.77	23.38	24.03	78.41	309.7	270.1	10.14	7.338	6.688	6.757	5.962	6.226	6.085	5.720	5.911	5.622	5.896	6.007	5.621	5.567	5.303	5.067	4.591	4.209	4.244	3.874	3.690	3.684	3.241	3.063	3.015	2.805	2.617	2.657	2.392	2.294	2.181	2.017	1.874	1.706	1.661	1.636	1.662	1.793	2.084	1.809	1.500	1.452	1.211	1.268	1.178	1.144	1.156	1.112	1.129	1.056	1.056	0.986	0.838	0.926	1.972	7.523	19.72	43.58	112.0	27.66
600.0	22.65	25.68	21.93	19.97	18.91	17.30	20.13	20.57	21.24	26.91	34.59	29.58	21.58	18.09	28.31	162.6	393.5	42.70	6.309	6.075	5.623	5.113	5.052	5.035	5.131	4.909	4.824	5.103	4.714	4.845	4.663	4.576	4.280	3.869	3.725	3.664	3.151	3.283	2.931	2.893	2.789	2.482	2.503	2.185	2.133	2.062	1.953	1.946	1.758	1.582	1.504	1.509	1.453	1.339	1.510	1.625	1.786	1.509	1.165	1.125	1.089	1.038	1.012	1.032	0.932	0.996	0.977	0.879	0.830	0.801	0.660	0.907	2.211	4.908	10.68	53.82	100.8
605.0	24.69	23.69	20.42	18.82	17.11	17.00	17.71	18.86	19.54	23.39	32.12	33.38	22.89	17.26	16.60	66.47	336.2	174.1	5.948	5.438	4.562	4.204	4.412	4.396	4.080	4.229	4.154	4.123	4.135	4.217	4.141	3.797	3.754	3.638	3.273	3.169	2.885	2.872	2.532	2.514	2.321	2.195	2.154	1.919	2.003	1.907	1.788	1.727	1.545	1.346	1.409	1.392	1.221	1.182	1.269	1.345	1.595	1.411	1.111	1.010	1.018	0.941	0.906	0.891	0.936	0.917	0.910	0.822	0.753	0.755	0.628	0.652	0.932	1.457	2.836	13.66	63.88
610.0	22.71	22.81	20.66	17.83	16.99	15.61	16.33	17.46	18.61	21.57	27.88	33.07	24.19	16.94	13.94	23.06	152.9	312.8	37.38	4.619	3.978	3.927	3.745	3.586	3.448	3.720	3.553	3.466	3.557	3.402	3.333	3.220	2.978	2.982	2.740	2.540	2.346	2.313	2.262	2.093	1.937	1.870	1.771	1.641	1.625	1.575	1.534	1.409	1.272	1.143	1.151	1.195	1.049	0.981	1.037	1.059	1.239	1.315	1.213	0.991	0.916	0.904	0.866	0.844	0.824	0.818	0.788	0.810	0.703	0.667	0.595	0.587	0.614	0.724	1.035	3.450	16.21
615.0	22.08	21.43	18.57	15.82	15.31	15.28	14.30	15.00	18.02	19.00	23.80	29.66	27.10	16.19	12.38	11.88	44.38	212.0	229.1	6.412	3.550	3.134	3.061	2.882	3.081	2.916	2.874	2.955	2.841	2.786	2.808	2.609	2.552	2.486	2.297	2.020	1.960	1.849	1.789	1.673	1.652	1.613	1.410	1.313	1.276	1.331	1.319	1.283	1.065	0.947	0.975	0.943	0.824	0.980	0.812	0.797	0.959	1.107	1.053	1.077	0.834	0.834	0.717	0.749	0.746	0.803	0.761	0.818	0.735	0.696	0.624	0.592	0.548	0.566	0.621	1.151	3.935
620.0	20.50	19.36	19.77	15.06	14.29	13.44	13.19	14.57	16.76	17.76	20.24	26.07	28.94	16.91	12.10	8.814	14.80	101.2	316.7	39.00	3.135	2.989	2.725	2.542	2.694	2.471	2.449	2.375	2.423	2.644	2.476	2.198	2.255	2.036	1.840	1.856	1.763	1.597	1.609	1.433	1.406	1.331	1.274	1.209	1.190	1.094	1.103	1.025	0.917	0.909	0.853	0.787	0.836	0.826	0.729	0.739	0.759	0.830	1.026	0.992	0.757	0.749	0.656	0.668	0.732	0.701	0.664	0.660	0.704	0.668	0.630	0.547	0.549	0.553	0.456	0.632	1.233
625.0	19.88	21.09	19.10	15.44	14.67	12.64	13.06	14.02	15.67	17.76	19.06	22.51	27.57	19.28	11.34	7.965	8.190	38.79	251.7	162.2	3.374	2.498	2.330	2.190	2.453	2.355	2.107	2.002	2.182	2.065	2.159	1.978	2.009	1.820	1.669	1.687	1.510	1.443	1.392	1.343	1.232	1.155	1.137	1.055	1.117	0.997	0.968	0.938	0.840	0.832	0.744	0.746	0.704	0.724	0.697	0.666	0.705	0.689	0.893	0.873	0.791	0.662	0.612	0.631	0.616	0.632	0.633	0.613	0.610	0.628	0.554	0.504	0.479	0.435	0.530	0.546	0.648
630.0	21.06	22.40	16.22	14.71	12.52	12.84	12.51	13.42	14.66	16.31	18.03	20.90	23.20	21.93	12.02	8.301	6.388	12.90	102.8	262.0	32.78	2.380	2.257	1.935	2.044	2.012	1.810	1.859	1.925	1.806	1.835	1.754	1.563	1.630	1.420	1.435	1.265	1.286	1.162	1.124	1.054	1.014	0.935	0.944	1.020	0.889	0.842	0.829	0.779	0.655	0.683	0.639	0.624	0.661	0.677	0.632	0.641	0.638	0.685	0.703	0.752	0.678	0.629	0.647	0.616	0.590	0.575	0.614	0.562	0.580	0.536	0.554	0.493	0.526	0.443	0.513	0.468
635.0	20.51	23.40	18.71	14.88	13.82	11.58	12.45	12.75	14.59	15.61	17.76	19.36	20.40	21.14	14.68	7.773	6.155	6.348	28.04	153.7	199.3	4.653	1.987	1.737	1.840	1.661	1.590	1.589	1.621	1.669	1.604	1.600	1.375	1.393	1.159	1.321	1.074	1.091	1.073	0.931	0.976	0.851	0.920	0.883	0.816	0.778	0.700	0.714	0.660	0.605	0.564	0.526	0.629	0.562	0.602	0.575	0.594	0.600	0.600	0.571	0.676	0.624	0.592	0.535	0.612	0.529	0.595	0.549	0.596	0.506	0.559	0.579	0.439	0.429	0.443	0.498	0.472
640.0	21.50	20.86	18.81	14.61	13.42	11.77	11.84	12.35	14.23	15.29	18.01	18.53	18.93	18.82	17.43	9.065	6.583	5.402	9.324	65.48	261.4	35.02	1.781	1.740	1.659	1.495	1.447	1.451	1.485	1.504	1.429	1.305	1.351	1.201	1.189	1.109	1.081	0.980	0.922	0.860	0.849	0.868	0.782	0.763	0.709	0.724	0.676	0.629	0.580	0.559	0.488	0.469	0.554	0.469	0.545	0.541	0.558	0.565	0.600	0.576	0.570	0.608	0.616	0.502	0.556	0.595	0.608	0.543	0.522	0.432	0.482	0.547	0.578	0.405	0.438	0.444	0.491
645.0	21.27	22.41	19.73	14.99	12.38	11.14	11.18	11.38	14.03	15.26	17.71	19.47	19.01	17.35	18.78	9.705	7.027	4.717	4.948	22.15	191.9	141.0	2.381	1.606	1.408	1.478	1.399	1.350	1.396	1.241	1.342	1.368	1.158	1.126	1.056	0.960	1.034	0.996	0.859	0.918	0.726	0.726	0.674	0.724	0.720	0.618	0.698	0.600	0.586	0.532	0.499	0.496	0.508	0.517	0.534	0.470	0.523	0.554	0.544	0.507	0.522	0.579	0.583	0.519	0.524	0.498	0.593	0.514	0.529	0.435	0.480	0.515	0.534	0.502	0.446	0.460	0.469
650.0	22.81	21.23	19.77	16.21	12.21	11.65	11.54	11.33	13.28	14.82	17.78	18.66	18.27	16.26	17.78	11.58	7.001	5.165	4.068	7.489	90.99	230.6	13.76	1.710	1.457	1.362	1.398	1.187	1.233	1.294	1.277	1.286	1.118	1.004	0.991	0.940	0.942	0.997	0.844	0.777	0.713	0.683	0.665	0.683	0.632	0.619	0.554	0.587	0.526	0.453	0.440	0.473	0.484	0.518	0.555	0.434	0.487	0.481	0.502	0.476	0.454	0.545	0.544	0.563	0.534	0.492	0.539	0.476	0.543	0.436	0.500	0.478	0.487	0.489	0.476	0.497	0.485
