Sample:	'1
File name:	2025.7.16 4.00 3±¶.FD3
Run date:	'10:44:29, 07/17/2025
Operator:	Administrator
Comment:	'

Instrument
Model:	F-2700 FL Spectrophotometer
Serial number:	23B8-004
ROM Version:	4J14000 07

Instrument parameters
Measurement type:	3-D scan
Data mode:	Fluorescence
EX  Start WL:	220.0 nm
EX  End WL:	600.0 nm
EX Sampling interval:	5.0 nm
EM  Start WL:	230.0 nm
EM  End WL:	650.0 nm
EM Sampling interval:	5.0 nm
Scan speed:	12000 nm/min
EX Slit:	5.0 nm
EM Slit:	5.0 nm
PMT Voltage:	700 V
Response:	Auto 
Corrected spectra:	Off
Contour interval:	50.000

Peak integration
Integration method:	Rectangular
Sensitivity:	1
Threshold:	1.000

Peaks
No.	ApexEX/EM(nm)	Height(Data)
1	230.0/345.0	3775
2	230.0/600.0	21.87
3	230.0/615.0	20.42
4	235.0/625.0	14.69
5	235.0/635.0	14.79
6	240.0/265.0	396.9
7	245.0/270.0	389.9
8	250.0/275.0	541.1
9	255.0/280.0	602.6
10	260.0/290.0	630.6
11	260.0/575.0	145.2
12	265.0/295.0	876.4
13	265.0/585.0	131.5
14	270.0/600.0	116.2
15	275.0/310.0	1637
16	275.0/415.0	4927
17	275.0/435.0	4731
18	275.0/615.0	116.4
19	280.0/340.0	2076
20	280.0/625.0	105.0
21	285.0/640.0	80.19
22	320.0/365.0	904.8
23	350.0/415.0	2971
24	355.0/435.0	2977
25	475.0/345.0	9.787
26	485.0/265.0	1.284
27	495.0/270.0	1.303
28	505.0/275.0	2.297
29	510.0/280.0	2.810
30	515.0/285.0	2.743
31	530.0/290.0	2.693
32	550.0/305.0	6.140
33	550.0/410.0	14.60
34	570.0/315.0	7.033
35	570.0/340.0	7.580
36	585.0/325.0	7.205

Data points
	220.0	225.0	230.0	235.0	240.0	245.0	250.0	255.0	260.0	265.0	270.0	275.0	280.0	285.0	290.0	295.0	300.0	305.0	310.0	315.0	320.0	325.0	330.0	335.0	340.0	345.0	350.0	355.0	360.0	365.0	370.0	375.0	380.0	385.0	390.0	395.0	400.0	405.0	410.0	415.0	420.0	425.0	430.0	435.0	440.0	445.0	450.0	455.0	460.0	465.0	470.0	475.0	480.0	485.0	490.0	495.0	500.0	505.0	510.0	515.0	520.0	525.0	530.0	535.0	540.0	545.0	550.0	555.0	560.0	565.0	570.0	575.0	580.0	585.0	590.0	595.0	600.0
230.0	-27.09	794.3	2100	697.8	7.876	-9.389	-7.897	-6.520	-5.638	-4.665	-3.234	-2.826	-2.529	-1.839	-1.479	-1.392	-1.308	-1.193	-1.074	-1.098	-0.886	-0.838	-0.841	-0.686	-0.591	-0.588	-0.556	-0.585	-0.527	-0.636	-0.608	-0.591	-0.614	-0.618	-0.537	-0.569	-0.649	-0.650	-0.742	-0.748	-0.652	-0.635	-0.614	-0.669	-0.678	-0.681	0.081	3.018	5.401	3.946	1.134	-0.384	-0.607	-0.620	-0.637	-0.653	-0.672	-0.680	-0.693	-0.713	-0.712	-0.706	-0.712	-0.736	-0.706	-0.724	-0.754	-0.748	-0.735	-0.745	-0.761	-0.771	-0.805	-0.800	-0.825	-0.790	-0.830
235.0	18.29	189.7	1314	2570	524.3	27.25	-7.236	-5.391	-5.015	-4.727	-3.391	-2.993	-2.001	-1.921	-1.392	-1.378	-1.287	-0.849	-1.069	-1.234	-0.977	-0.730	-0.744	-0.594	-0.628	-0.639	-0.580	-0.700	-0.559	-0.507	-0.552	-0.601	-0.528	-0.655	-0.574	-0.559	-0.603	-0.636	-0.698	-0.771	-0.729	-0.666	-0.636	-0.533	-0.545	-0.560	-0.470	0.328	1.751	4.191	5.727	5.982	2.415	0.066	-0.625	-0.605	-0.632	-0.725	-0.696	-0.706	-0.723	-0.728	-0.705	-0.703	-0.719	-0.697	-0.761	-0.757	-0.767	-0.737	-0.769	-0.766	-0.765	-0.801	-0.843	-0.789	-0.789
240.0	68.48	87.99	383.9	2202	2312	404.2	7.660	-5.165	-4.595	-4.462	-2.928	-2.776	-1.529	-1.749	-1.747	-1.595	-1.083	-1.123	-1.070	-1.119	-1.042	-0.761	-0.635	-0.584	-0.732	-0.474	-0.668	-0.522	-0.661	-0.595	-0.511	-0.542	-0.553	-0.589	-0.628	-0.561	-0.605	-0.621	-0.704	-0.684	-0.735	-0.684	-0.726	-0.552	-0.399	-0.250	-0.370	-0.331	-0.022	0.863	3.246	8.171	9.346	6.349	1.547	-0.448	-0.638	-0.718	-0.715	-0.678	-0.708	-0.610	-0.697	-0.721	-0.767	-0.686	-0.753	-0.743	-0.761	-0.741	-0.795	-0.745	-0.778	-0.746	-0.790	-0.830	-0.759
245.0	46.55	159.3	127.7	761.7	2611	2265	289.4	-0.970	-2.989	-3.839	-2.711	-2.114	-1.449	-0.986	-0.999	-1.575	-1.089	-1.355	-0.943	-1.140	-0.971	-0.877	-0.636	-0.451	-0.703	-0.743	-0.610	-0.578	-0.577	-0.600	-0.486	-0.505	-0.447	-0.628	-0.464	-0.558	-0.586	-0.649	-0.717	-0.747	-0.711	-0.629	-0.706	-0.656	-0.557	-0.262	-0.031	-0.163	-0.313	-0.162	0.355	2.471	7.049	11.65	10.97	5.281	0.775	-0.567	-0.703	-0.680	-0.694	-0.684	-0.743	-0.651	-0.750	-0.715	-0.749	-0.756	-0.742	-0.724	-0.798	-0.760	-0.771	-0.766	-0.770	-0.795	-0.821
250.0	-26.15	112.8	211.5	242.7	869.5	2432	2969	909.6	40.37	-1.304	-1.349	-1.213	-1.320	-1.260	-0.987	-1.146	-1.090	-1.121	-0.942	-0.907	-0.794	-0.766	-0.716	-0.576	-0.530	-0.523	-0.505	-0.530	-0.516	-0.583	-0.459	-0.478	-0.545	-0.530	-0.535	-0.552	-0.582	-0.644	-0.662	-0.646	-0.735	-0.668	-0.734	-0.658	-0.600	-0.515	-0.341	0.067	0.200	0.042	-0.072	0.172	1.301	3.510	7.006	10.84	12.83	10.89	5.142	0.753	-0.541	-0.669	-0.694	-0.687	-0.721	-0.718	-0.701	-0.735	-0.767	-0.764	-0.782	-0.742	-0.764	-0.779	-0.794	-0.825	-0.787
255.0	-44.07	6.298	154.4	312.0	273.0	637.8	2705	4172	1204	34.32	0.558	-0.017	-0.789	-0.897	-0.289	-0.737	-0.804	-0.875	-1.007	-0.617	-0.707	-0.692	-0.669	-0.644	-0.561	-0.498	-0.452	-0.470	-0.490	-0.344	-0.516	-0.323	-0.517	-0.565	-0.588	-0.395	-0.592	-0.639	-0.655	-0.688	-0.743	-0.655	-0.724	-0.669	-0.654	-0.633	-0.580	-0.421	-0.227	0.315	0.611	0.530	0.068	0.414	1.147	2.200	4.967	12.72	20.50	18.06	8.154	0.840	-0.549	-0.682	-0.716	-0.693	-0.734	-0.743	-0.761	-0.777	-0.742	-0.743	-0.748	-0.786	-0.783	-0.803	-0.831
260.0	-46.33	-22.08	41.82	288.9	301.5	183.5	885.1	3860	4300	268.6	11.72	1.193	0.878	0.055	-0.140	-0.908	-0.829	-0.915	-0.662	-0.778	-0.752	-0.691	-0.522	-0.626	-0.489	-0.568	-0.489	-0.390	-0.494	-0.399	-0.442	-0.429	-0.562	-0.570	-0.428	-0.442	-0.593	-0.622	-0.719	-0.689	-0.772	-0.753	-0.705	-0.664	-0.652	-0.668	-0.595	-0.577	-0.462	-0.168	0.340	1.033	0.936	0.160	-0.100	0.073	0.748	3.238	9.429	19.63	25.34	16.76	5.415	-0.152	-0.708	-0.714	-0.728	-0.657	-0.757	-0.752	-0.761	-0.766	-0.761	-0.783	-0.761	-0.825	-0.820
265.0	-49.33	-28.66	-3.563	130.4	396.9	219.2	229.2	1409	5111	2280	198.1	4.356	1.292	0.570	0.168	-0.471	-0.407	-0.688	-0.693	-0.728	-0.592	-0.503	-0.565	-0.461	-0.430	-0.474	-0.390	-0.447	-0.460	-0.466	-0.472	-0.538	-0.595	-0.382	-0.427	-0.534	-0.564	-0.657	-0.758	-0.665	-0.723	-0.754	-0.713	-0.600	-0.638	-0.546	-0.570	-0.603	-0.515	-0.429	-0.251	0.231	1.156	1.284	0.520	-0.101	-0.180	0.320	1.730	5.840	15.16	25.93	26.98	13.08	2.186	-0.593	-0.669	-0.676	-0.729	-0.760	-0.799	-0.757	-0.753	-0.750	-0.814	-0.812	-0.851
270.0	-34.11	-19.55	-4.436	32.33	192.7	389.9	267.3	361.9	1746	4204	4162	799.7	33.02	2.388	1.146	0.428	-0.302	-0.433	-0.592	-0.601	-0.556	-0.497	-0.306	-0.331	-0.450	-0.432	-0.287	-0.409	-0.379	-0.348	-0.343	-0.462	-0.470	-0.423	-0.487	-0.479	-0.635	-0.653	-0.668	-0.708	-0.677	-0.681	-0.662	-0.643	-0.624	-0.559	-0.555	-0.540	-0.515	-0.477	-0.399	-0.373	-0.047	0.491	1.217	1.303	0.734	0.077	0.035	0.936	3.128	7.458	14.39	21.26	25.53	19.17	9.702	1.665	-0.608	-0.712	-0.773	-0.745	-0.776	-0.760	-0.771	-0.780	-0.846
275.0	8.115	24.15	20.29	22.30	59.48	196.7	541.1	315.4	435.0	1139	4142	6633	1032	22.02	2.236	1.125	0.203	-0.196	-0.335	-0.250	-0.454	-0.384	-0.163	-0.277	-0.373	-0.393	-0.230	-0.374	-0.253	-0.322	-0.239	-0.509	-0.524	-0.371	-0.295	-0.350	-0.553	-0.607	-0.663	-0.586	-0.620	-0.666	-0.645	-0.602	-0.570	-0.514	-0.464	-0.394	-0.454	-0.448	-0.373	-0.477	-0.437	-0.280	-0.067	0.424	1.506	2.297	1.148	0.153	0.362	1.292	2.962	4.611	8.161	18.95	33.57	28.66	12.90	1.407	-0.617	-0.690	-0.736	-0.728	-0.699	-0.776	-0.816
280.0	42.76	61.92	58.34	36.23	39.68	83.96	377.3	602.6	242.0	326.3	1337	6204	5822	155.6	9.625	2.428	1.309	0.288	-0.229	-0.231	-0.290	-0.484	-0.244	-0.340	-0.306	-0.368	-0.269	-0.205	-0.308	-0.363	-0.516	-0.382	-0.421	-0.433	-0.326	-0.393	-0.286	-0.555	-0.544	-0.513	-0.516	-0.667	-0.601	-0.567	-0.413	-0.399	-0.383	-0.359	-0.319	-0.323	-0.286	-0.399	-0.451	-0.360	-0.354	-0.269	0.262	1.410	2.810	1.960	0.525	-0.065	0.429	0.867	1.669	4.440	12.56	28.86	37.43	24.67	7.977	0.089	-0.716	-0.740	-0.682	-0.757	-0.769
285.0	100.9	139.7	119.1	78.61	49.29	59.03	170.8	594.3	362.0	199.9	427.8	2204	7246	4234	109.3	4.526	2.822	1.028	0.345	0.184	-0.054	-0.356	-0.362	-0.151	-0.284	-0.270	-0.322	-0.216	-0.248	-0.401	-0.295	-0.235	-0.327	-0.371	-0.248	-0.328	-0.297	-0.508	-0.554	-0.535	-0.512	-0.537	-0.476	-0.560	-0.399	-0.335	-0.200	-0.160	-0.136	-0.149	-0.238	-0.380	-0.391	-0.387	-0.358	-0.335	-0.109	0.136	1.349	2.743	2.614	1.063	0.101	0.110	0.237	0.971	2.768	7.520	17.85	34.48	32.91	18.93	3.349	-0.494	-0.621	-0.712	-0.704
290.0	168.1	233.7	216.3	141.5	90.03	89.76	127.7	290.0	630.6	556.7	367.2	724.1	2464	5323	3719	439.9	18.60	2.546	1.026	0.531	0.158	-0.097	0.021	-0.012	-0.070	-0.047	-0.204	-0.110	-0.198	-0.323	-0.277	-0.284	-0.350	-0.274	-0.189	-0.189	-0.286	-0.367	-0.425	-0.472	-0.508	-0.497	-0.390	-0.280	-0.261	-0.202	-0.060	0.051	0.008	0.117	-0.023	-0.217	-0.213	-0.314	-0.295	-0.255	-0.149	-0.136	0.266	0.776	1.662	2.659	2.693	1.517	0.748	0.546	0.981	2.022	4.261	9.272	16.06	23.87	26.75	21.80	12.24	2.751	-0.403
295.0	251.1	340.2	333.1	223.2	145.6	140.0	155.5	222.6	393.0	876.4	829.3	541.0	842.5	1480	3960	5565	571.6	13.46	2.644	1.579	0.585	0.413	0.479	0.075	0.058	0.226	0.034	-0.159	-0.110	-0.180	-0.236	-0.201	-0.186	-0.160	-0.051	-0.125	-0.133	-0.271	-0.346	-0.327	-0.294	-0.367	-0.289	-0.216	0.018	0.040	0.191	0.405	0.385	0.249	0.093	0.083	-0.013	-0.079	-0.103	-0.035	-0.029	0.058	0.128	0.395	0.592	1.034	1.925	3.786	4.010	2.332	1.287	1.442	1.814	2.667	3.896	5.659	7.629	15.36	32.99	32.06	16.38
300.0	297.2	431.0	414.4	280.6	201.8	191.2	225.6	280.8	371.4	710.2	1267	849.3	623.5	617.7	1298	5343	4559	88.17	7.365	2.486	1.100	0.806	0.705	0.391	0.355	0.451	0.187	0.145	-0.129	-0.135	-0.238	-0.219	-0.175	-0.095	-0.188	0.040	-0.179	-0.075	-0.293	-0.189	-0.214	-0.221	-0.290	-0.112	0.121	0.268	0.345	0.598	0.525	0.586	0.356	0.439	0.305	0.133	0.025	0.165	0.339	0.302	0.439	0.499	0.712	0.848	1.417	2.421	3.826	4.919	4.012	2.231	1.672	1.822	1.746	1.972	2.145	3.762	10.80	24.24	36.80
305.0	355.8	497.8	524.8	373.3	284.4	280.8	335.5	408.7	543.8	773.3	1297	1511	900.8	633.1	627.4	1946	5932	3257	65.93	5.476	2.175	1.418	0.911	0.526	0.495	0.675	0.203	0.036	-0.028	-0.110	0.094	-0.294	-0.274	-0.265	-0.148	0.069	-0.037	-0.051	-0.249	-0.199	-0.127	-0.174	-0.269	-0.034	0.078	0.376	0.507	0.951	0.933	0.813	0.608	0.743	0.476	0.305	0.356	0.530	0.518	0.847	1.037	1.215	1.333	1.503	1.983	2.530	3.040	4.756	6.140	5.674	3.611	2.845	2.225	1.866	1.761	1.773	3.143	6.494	14.78
310.0	446.7	612.1	647.5	469.9	376.3	376.6	464.4	580.7	706.5	930.0	1212	1637	1557	941.0	660.1	786.9	2130	4141	2730	295.4	13.57	2.518	1.532	0.832	0.890	0.728	0.461	0.272	0.143	0.061	0.089	-0.032	-0.055	-0.061	0.026	0.097	0.099	-0.082	-0.204	-0.089	-0.048	-0.106	-0.134	0.011	0.329	0.564	0.765	1.138	1.161	1.057	0.889	0.945	0.781	0.672	0.785	0.911	1.161	1.359	1.583	1.804	1.898	2.128	2.801	3.054	3.300	4.089	5.205	5.791	6.144	5.745	4.464	2.931	2.389	2.136	2.213	2.639	4.043
315.0	596.3	806.8	810.0	578.1	472.7	473.4	591.0	684.0	823.9	1027	1261	1487	1681	1450	874.1	649.5	866.8	1217	2900	4149	404.7	10.46	2.770	1.590	1.131	0.901	0.533	0.512	0.240	0.256	0.098	0.073	-0.006	0.085	0.029	0.138	0.023	-0.007	-0.205	-0.007	0.033	-0.019	0.004	0.170	0.454	0.833	1.262	1.550	1.641	1.402	1.166	1.200	1.084	1.209	1.134	1.244	1.656	1.819	2.077	2.167	2.304	2.814	2.902	3.457	3.972	4.392	4.633	4.903	5.464	5.897	7.033	5.720	4.161	3.136	2.433	2.366	2.219
320.0	827.1	1218	1091	766.7	581.8	554.0	669.8	766.5	909.5	1133	1383	1577	1660	1744	1233	771.7	690.0	575.0	931.6	3754	3329	64.29	6.270	2.932	1.511	1.087	0.688	0.790	0.490	0.369	0.250	0.059	0.132	0.176	0.057	0.144	0.122	0.120	-0.112	-0.063	-0.019	0.181	0.316	0.379	1.047	1.434	2.003	2.803	2.527	1.913	1.508	1.496	1.525	1.476	1.401	1.578	1.943	2.318	2.234	2.527	2.542	2.866	3.304	4.207	4.420	4.630	5.048	5.350	5.476	5.397	5.910	6.611	6.814	5.195	3.489	2.785	2.729
325.0	1128	1689	1643	1190	724.2	671.7	730.9	848.2	972.5	1220	1484	1697	1723	1692	1638	1011	732.0	500.8	399.6	1267	3991	2440	50.97	5.219	2.028	1.444	0.841	0.979	0.743	0.574	0.610	0.065	0.137	0.243	0.153	0.099	0.139	0.075	-0.041	0.015	0.064	0.334	0.440	0.760	1.543	2.362	3.184	4.153	3.867	3.111	3.034	2.605	2.202	1.850	1.706	1.791	1.963	2.464	2.674	2.871	2.846	3.351	3.696	4.347	4.478	5.095	5.615	5.857	6.094	6.002	5.714	6.119	6.735	7.205	5.878	4.215	3.144
330.0	1496	2388	2582	2036	1255	889.2	850.6	957.8	1088	1340	1604	1840	1873	1749	1632	1404	971.3	590.8	380.9	475.7	1333	2826	2552	240.0	14.54	2.730	1.902	1.174	0.832	0.600	0.645	0.276	0.264	0.251	0.265	0.200	0.207	0.056	-0.057	0.103	0.259	0.475	0.770	1.280	2.120	3.542	4.743	6.516	6.538	5.814	5.340	5.218	4.077	3.244	2.552	2.513	2.579	2.833	2.811	3.204	3.490	3.658	4.444	4.749	5.167	5.713	6.034	6.297	6.340	6.742	6.594	6.265	6.228	6.567	6.487	6.200	5.566
335.0	1711	2941	3301	2856	1900	1238	998.9	1077	1206	1449	1728	1972	2027	1902	1690	1466	1361	825.3	511.5	425.2	537.2	852.8	2177	3222	357.6	13.44	2.865	2.041	1.465	0.811	0.839	0.412	0.370	0.391	0.369	0.318	0.201	0.159	0.171	0.264	0.333	0.662	0.930	1.603	2.641	4.251	5.797	7.474	8.499	7.821	7.569	8.534	6.765	5.144	3.885	3.175	3.285	3.165	3.466	3.391	3.873	4.360	4.760	5.365	5.679	6.374	6.797	6.817	7.063	7.063	7.152	7.291	6.850	6.751	6.145	6.271	6.109
340.0	1846	3203	3697	3247	2210	1431	1099	1131	1259	1488	1756	1991	2076	1976	1740	1444	1374	1092	634.6	470.0	420.9	424.3	768.5	2740	2670	56.37	7.324	2.809	1.927	0.994	0.995	0.703	0.539	0.256	0.233	0.258	0.220	0.248	0.221	0.316	0.506	0.714	1.088	1.841	2.817	4.625	6.346	8.550	9.169	9.287	8.758	9.307	7.722	6.363	4.747	3.781	3.730	3.540	3.616	3.747	4.080	4.376	4.985	5.397	5.949	6.287	6.755	6.783	7.304	6.992	7.580	7.356	7.112	6.962	6.611	5.954	5.662
345.0	1845	3211	3775	3368	2308	1513	1160	1177	1295	1495	1749	1964	2043	1949	1735	1431	1240	1159	783.3	532.9	436.4	373.0	393.4	963.5	2897	2024	47.64	5.165	2.543	1.224	1.110	0.678	0.534	0.366	0.434	0.295	0.279	0.189	0.011	0.189	0.407	0.725	0.971	1.603	2.961	4.832	6.160	8.608	9.263	9.474	9.323	9.787	8.199	6.458	4.996	4.053	4.082	3.837	4.001	4.028	4.365	4.206	4.749	5.191	5.764	6.379	6.551	6.775	7.270	6.967	7.495	7.152	7.405	7.078	6.429	6.196	5.384
350.0	1721	2978	3611	3318	2413	1621	1245	1244	1322	1505	1711	1895	1955	1872	1688	1415	1192	1045	946.3	724.2	523.1	432.5	369.2	414.4	963.7	2013	1925	215.8	13.29	2.349	1.461	0.810	0.634	0.487	0.336	0.334	0.335	0.220	0.105	0.213	0.383	0.562	1.042	1.739	2.743	4.264	5.630	7.695	9.137	9.183	9.091	9.513	8.446	7.046	5.609	4.688	4.202	3.974	4.331	4.231	4.553	4.451	4.872	5.290	5.660	5.834	6.176	6.384	6.991	6.573	6.971	7.077	7.130	6.617	6.253	5.956	5.557
355.0	1558	2686	3290	3148	2395	1673	1321	1302	1366	1496	1659	1791	1847	1789	1614	1396	1185	1015	906.6	908.5	704.8	521.9	427.4	349.2	381.9	570.9	1360	2362	336.0	13.16	2.463	1.278	0.963	0.484	0.361	0.391	0.256	0.192	0.280	0.246	0.340	0.554	0.968	1.744	2.378	3.724	5.045	7.126	8.281	8.326	8.640	8.935	8.155	7.309	5.497	4.639	4.529	4.429	4.318	4.630	4.539	4.585	5.079	5.339	5.301	5.404	5.881	5.980	6.168	6.641	6.677	6.301	6.768	6.406	5.987	5.814	5.509
360.0	1444	2462	3033	2960	2294	1651	1333	1318	1385	1486	1615	1713	1744	1686	1556	1362	1177	1025	898.8	886.6	868.6	620.8	487.9	376.2	297.2	266.4	429.3	1773	2191	259.3	6.989	1.914	1.390	0.764	0.553	0.526	0.224	0.215	0.311	0.267	0.370	0.505	0.999	1.608	2.363	3.240	4.496	6.403	7.539	7.568	7.878	8.779	8.124	6.930	5.788	5.036	4.584	4.568	4.573	4.446	4.622	4.675	4.879	5.162	5.360	5.538	5.652	5.568	5.792	6.310	6.059	5.951	6.198	6.087	5.776	5.333	5.202
365.0	1310	2192	2782	2731	2197	1637	1378	1339	1388	1470	1589	1644	1654	1613	1497	1332	1178	1034	919.8	869.0	904.8	789.9	566.9	435.8	321.7	234.7	203.2	561.5	2082	1859	46.29	4.430	2.026	1.411	0.663	0.439	0.398	0.255	0.198	0.273	0.292	0.513	0.767	1.307	2.086	2.985	4.159	5.781	6.622	6.965	7.154	7.910	7.509	6.698	5.722	4.929	4.905	4.451	4.561	4.590	4.629	5.025	5.200	4.652	5.551	5.598	5.316	5.275	5.454	5.781	5.702	5.353	5.940	5.918	5.682	5.327	5.056
370.0	1208	1939	2502	2503	2088	1637	1407	1367	1401	1479	1553	1577	1576	1516	1429	1287	1166	1061	965.1	909.4	880.3	875.5	751.9	528.3	397.9	289.2	204.5	229.0	644.3	1594	1711	198.2	13.37	2.702	1.407	0.968	0.532	0.325	0.258	0.277	0.296	0.493	0.592	1.195	1.833	2.708	3.544	5.163	5.947	6.336	6.504	7.281	7.132	6.702	5.418	4.925	4.992	4.534	4.782	4.807	4.637	4.756	5.002	4.832	5.165	5.214	5.304	5.052	5.295	5.544	5.351	5.252	5.474	5.671	5.294	5.445	5.221
375.0	1038	1697	2208	2263	1984	1624	1426	1367	1390	1468	1499	1506	1493	1441	1354	1238	1152	1070	999.5	950.1	908.6	863.6	860.1	700.7	496.9	370.4	264.5	203.7	248.0	436.8	1075	2029	306.7	14.96	3.722	2.579	1.518	0.800	0.319	0.457	0.264	0.322	0.649	0.985	1.558	2.266	3.206	4.521	5.259	5.619	5.687	6.817	6.763	6.084	5.170	5.000	4.851	4.855	4.824	4.878	4.501	4.631	4.907	5.136	4.787	4.967	5.116	4.542	5.067	5.109	5.300	5.217	4.927	5.443	4.797	5.226	5.214
380.0	988.2	1580	2021	2122	1904	1607	1435	1377	1399	1459	1462	1466	1449	1392	1311	1212	1134	1071	1017	976.4	937.6	884.0	851.6	820.7	610.5	440.6	325.6	245.2	198.6	199.0	337.9	1423	1799	229.8	11.81	5.735	3.320	1.693	0.626	0.427	0.276	0.382	0.773	0.861	1.355	2.177	2.822	3.908	4.795	4.948	5.338	6.308	6.021	5.755	5.269	5.118	5.014	4.801	4.709	5.045	4.615	4.741	4.744	5.197	4.970	4.833	4.842	4.580	4.780	4.876	4.962	4.879	4.693	4.779	4.611	5.286	4.797
385.0	941.5	1421	1875	2005	1848	1597	1455	1407	1411	1442	1470	1460	1439	1367	1296	1187	1121	1075	1039	1009	972.3	917.5	868.0	845.2	750.0	521.2	406.3	314.1	245.8	195.0	183.6	461.6	1576	1478	40.40	15.72	8.207	4.016	1.230	0.693	0.383	0.430	0.874	0.839	1.249	2.029	2.673	3.626	4.375	4.704	4.864	5.983	5.981	5.605	5.171	4.957	4.948	4.815	4.758	4.847	4.543	4.958	4.943	5.047	5.011	4.804	4.614	4.963	4.710	4.782	4.798	4.634	4.678	5.064	4.494	4.854	4.942
390.0	881.9	1313	1747	1886	1785	1650	1535	1479	1484	1561	1611	1622	1591	1509	1403	1260	1154	1103	1074	1069	1054	1031	988.1	942.2	913.3	805.1	619.5	517.8	402.9	348.3	299.7	310.3	580.1	1248	1336	168.4	53.83	19.22	6.399	2.134	0.904	0.633	0.823	0.958	1.349	1.906	2.559	3.552	3.968	4.497	4.840	5.847	5.952	5.755	5.441	5.219	5.383	5.314	5.171	5.147	5.088	5.026	5.130	5.423	5.537	5.319	5.269	5.202	5.230	4.985	5.097	5.262	4.970	5.293	4.905	4.942	5.075
395.0	838.8	1271	1660	1806	1789	1752	1693	1666	1739	1918	2102	2057	2155	2004	1782	1542	1328	1215	1194	1213	1242	1272	1279	1271	1250	1238	1149	990.3	880.9	795.6	708.1	610.8	472.6	595.9	1040	1644	291.2	77.56	23.56	7.038	2.292	1.407	1.125	1.352	1.617	2.102	2.684	3.709	3.963	4.407	4.946	6.069	6.260	6.191	5.947	6.063	6.280	6.477	5.754	5.789	6.114	5.800	6.348	6.623	6.672	7.155	7.026	6.700	6.791	6.550	6.349	6.466	6.341	6.134	5.986	5.955	6.042
400.0	800.9	1227	1632	1780	1855	1886	1903	1890	2091	2450	2808	2984	2961	2725	2379	1954	1579	1382	1364	1402	1488	1582	1661	1719	1737	1741	1754	1627	1475	1381	1269	1107	904.5	793.4	804.4	1429	1599	265.8	54.87	14.99	4.324	2.336	1.578	1.624	1.784	2.390	2.722	3.927	4.626	4.750	5.232	6.694	6.980	7.416	7.194	7.447	7.338	7.621	7.290	7.542	7.749	7.679	8.183	8.311	8.875	9.285	8.896	9.173	9.338	9.014	8.654	8.591	8.541	7.805	7.221	7.231	6.869
405.0	780.4	1200	1577	1808	1897	2011	2107	2191	2525	3061	3679	3974	3919	3584	3086	2447	1895	1581	1546	1627	1766	1930	2101	2237	2306	2344	2380	2346	2187	2067	1939	1707	1422	1191	1041	1058	1627	1320	192.6	26.36	7.848	3.330	2.425	2.136	2.333	2.699	3.373	4.396	5.052	5.442	6.053	7.558	8.125	8.137	8.384	8.686	9.111	9.102	8.856	9.195	9.021	9.628	10.27	10.46	11.57	12.14	12.01	11.97	11.93	11.41	11.24	11.40	10.60	10.12	9.229	8.726	8.030
410.0	764.4	1156	1560	1792	1982	2166	2310	2459	2895	3620	4465	4851	4786	4372	3698	2891	2158	1759	1699	1800	1996	2216	2463	2673	2810	2882	2918	2924	2852	2700	2538	2272	1906	1592	1365	1165	1049	1196	1073	158.6	17.84	5.107	3.198	2.698	2.780	3.152	3.791	4.774	5.628	5.898	6.414	8.037	8.507	9.165	9.320	9.670	10.26	10.41	10.43	10.85	10.78	11.31	12.10	12.96	13.82	14.17	14.60	14.35	14.55	13.47	13.40	12.96	12.55	11.58	10.43	9.962	9.351
415.0	737.0	1118	1493	1734	1952	2194	2398	2522	2963	3664	4500	4927	4854	4425	3724	2904	2161	1742	1689	1795	1988	2220	2469	2701	2859	2936	2971	2963	2929	2836	2641	2361	1988	1656	1411	1169	862.4	599.9	681.6	1084	227.4	12.50	4.025	3.340	3.075	3.197	3.716	4.732	5.458	5.622	6.301	7.879	8.803	9.540	9.388	9.921	10.66	10.81	10.66	10.73	10.79	11.51	12.11	13.46	14.06	13.76	14.54	14.08	14.29	13.93	13.71	12.72	12.49	11.64	10.68	9.556	9.271
420.0	688.7	1046	1414	1699	1928	2173	2385	2505	2881	3519	4309	4695	4613	4221	3557	2782	2065	1680	1615	1718	1900	2126	2370	2595	2746	2818	2857	2836	2786	2744	2569	2274	1910	1598	1354	1109	777.7	440.5	288.6	738.5	987.3	164.9	6.213	3.376	2.935	3.183	3.702	4.681	5.199	5.582	5.929	7.562	8.541	9.270	9.156	9.875	10.55	10.77	10.38	10.41	11.10	11.05	11.99	12.94	13.17	13.34	14.30	13.84	13.77	13.08	13.35	12.09	11.92	11.35	10.12	9.061	8.670
425.0	703.7	1021	1372	1680	1919	2166	2384	2495	2850	3447	4178	4556	4501	4106	3465	2704	2015	1638	1578	1677	1848	2069	2313	2537	2681	2767	2810	2793	2728	2673	2564	2255	1886	1575	1342	1088	750.2	399.9	188.3	243.9	819.0	816.4	31.48	4.417	3.224	3.552	3.302	4.659	4.938	5.176	5.880	7.809	8.244	9.158	9.717	9.949	10.42	10.44	10.45	10.28	10.97	11.04	11.68	12.53	12.97	12.99	13.11	13.92	13.47	12.55	12.66	11.76	11.27	10.90	10.23	9.150	8.226
430.0	782.3	1011	1367	1660	1934	2264	2493	2616	2928	3538	4269	4675	4595	4201	3563	2754	2044	1659	1593	1691	1859	2088	2352	2592	2759	2858	2911	2902	2842	2779	2684	2422	2016	1677	1433	1166	802.8	423.9	182.2	110.3	246.5	633.4	710.8	133.0	10.25	3.943	3.826	4.741	5.145	5.495	5.817	7.923	8.533	9.252	9.773	10.38	11.39	10.93	10.68	10.91	10.89	11.29	11.85	12.64	13.20	13.16	13.34	13.75	13.60	13.34	12.60	12.67	11.87	11.09	9.803	9.489	8.301
435.0	1133	999.6	1349	1652	1975	2352	2621	2782	3032	3584	4329	4731	4645	4244	3592	2787	2063	1665	1588	1682	1850	2074	2351	2603	2784	2903	2970	2977	2935	2866	2749	2522	2135	1768	1506	1234	861.0	461.5	198.8	92.96	89.80	167.4	435.9	879.8	199.5	9.757	4.557	4.927	5.179	5.486	6.060	8.067	8.436	9.612	9.990	10.67	12.12	11.58	11.36	11.71	11.36	11.73	11.98	13.00	13.11	13.09	13.88	14.06	13.70	13.59	12.76	12.40	12.32	11.04	10.20	9.360	8.592
440.0	1444	1098	1302	1623	1974	2341	2641	2780	2991	3478	4147	4540	4433	4045	3448	2681	1992	1617	1534	1621	1760	1987	2239	2489	2664	2776	2859	2862	2821	2755	2651	2426	2086	1736	1474	1208	848.8	464.5	207.0	93.06	59.54	62.39	129.3	621.6	839.3	32.64	6.719	5.135	5.272	5.444	6.000	7.731	8.419	9.140	10.06	10.37	11.54	12.08	11.42	11.27	11.29	11.52	11.86	12.38	12.39	13.00	13.54	12.73	13.01	13.14	12.51	11.61	11.40	10.74	10.18	8.904	8.138
445.0	1433	1386	1264	1576	1941	2345	2641	2716	2850	3262	3793	4137	4064	3711	3160	2480	1858	1527	1453	1520	1629	1822	2049	2280	2436	2544	2608	2624	2589	2530	2424	2210	1904	1624	1370	1111	788.7	438.8	203.8	97.16	57.99	44.12	50.39	189.4	742.9	688.8	26.88	6.143	5.235	5.060	5.873	7.531	7.928	8.599	9.923	10.28	10.97	11.25	11.17	11.26	10.87	10.76	11.09	11.52	11.87	11.82	12.35	11.92	11.90	11.70	11.42	10.47	10.49	9.724	9.044	8.173	7.526
450.0	1031	1937	1403	1516	1877	2271	2553	2589	2624	2862	3275	3538	3478	3183	2727	2172	1656	1372	1307	1352	1434	1578	1768	1950	2089	2180	2231	2248	2214	2167	2077	1892	1623	1388	1201	969.2	682.5	390.6	194.3	101.8	65.29	47.40	38.17	61.98	217.9	570.4	645.2	119.0	10.10	5.153	5.411	6.850	7.598	8.360	9.069	9.501	10.58	10.88	10.41	10.55	9.989	9.515	9.644	9.908	10.22	10.23	10.51	10.16	10.34	9.673	9.585	9.077	9.093	8.532	7.790	7.073	6.798
455.0	673.3	1860	1972	1461	1768	2156	2430	2435	2399	2518	2827	3042	2971	2731	2352	1895	1459	1222	1175	1197	1247	1361	1521	1670	1788	1869	1915	1925	1906	1863	1793	1631	1390	1188	1042	863.0	608.7	352.0	187.7	108.0	73.08	55.52	42.46	38.72	66.95	145.8	376.2	736.9	165.4	9.645	5.322	6.516	6.820	7.904	8.202	8.606	9.789	9.957	9.691	9.606	9.263	8.513	8.509	8.534	8.966	8.629	8.994	8.577	8.790	8.513	8.576	8.195	7.588	7.039	7.208	6.247	6.096
460.0	543.1	1366	2514	1557	1662	2066	2315	2314	2232	2312	2568	2719	2695	2459	2132	1715	1348	1126	1073	1093	1132	1231	1370	1509	1610	1687	1730	1744	1723	1699	1627	1478	1270	1082	937.0	801.2	574.3	334.1	184.5	111.8	79.29	60.61	47.81	36.30	35.15	48.05	107.4	499.3	667.5	118.9	6.828	6.457	6.925	7.291	7.986	8.513	9.454	9.616	9.321	9.296	8.426	8.343	7.793	7.736	7.866	8.039	8.017	7.594	7.664	7.721	7.413	7.116	6.552	6.208	6.348	5.512	5.705
465.0	489.3	973.8	2539	1961	1614	1960	2177	2188	2112	2147	2352	2497	2446	2248	1948	1565	1234	1042	991.4	1001	1034	1113	1236	1370	1462	1529	1576	1589	1576	1551	1492	1360	1166	994.5	857.0	733.2	547.6	324.4	180.3	112.9	82.98	65.14	49.76	38.13	29.99	27.78	37.16	148.3	586.2	547.2	23.02	6.850	6.511	6.773	7.753	8.170	9.386	9.246	8.545	8.583	7.900	7.752	7.130	7.103	7.286	7.473	7.246	7.408	6.953	6.905	6.985	6.674	6.084	6.090	5.693	5.305	4.731
470.0	435.8	728.0	1666	2762	1643	1754	1991	1991	1875	1864	2035	2151	2103	1932	1684	1365	1082	915.0	870.9	873.7	893.6	956.6	1061	1168	1250	1307	1345	1362	1353	1331	1287	1177	1010	860.3	746.3	628.8	481.8	309.6	177.7	111.9	84.86	67.10	53.25	42.00	31.71	25.54	22.71	44.45	167.9	422.3	459.0	112.2	10.92	6.596	6.681	7.398	8.128	8.167	8.013	7.583	6.743	6.524	6.254	6.240	6.373	6.489	6.303	6.284	5.914	5.983	6.048	5.679	5.230	5.162	4.884	4.588	4.157
475.0	423.5	630.2	970.1	2731	2226	1572	1772	1747	1615	1567	1686	1787	1729	1599	1383	1140	916.2	776.4	741.6	742.4	749.9	786.5	870.1	954.4	1026	1070	1106	1110	1104	1093	1058	967.1	831.7	713.8	619.5	525.5	398.4	272.3	175.1	112.2	84.33	68.05	55.58	44.44	33.86	26.98	21.88	22.94	47.21	104.7	244.5	507.6	155.3	10.51	6.273	6.513	7.161	6.788	6.720	6.133	5.877	5.620	5.020	5.306	4.962	5.205	5.032	4.921	4.710	4.838	4.847	4.741	4.062	4.285	3.984	3.721	3.486
480.0	390.6	586.2	774.9	1999	2770	1553	1596	1549	1445	1389	1463	1542	1481	1364	1194	984.8	799.5	685.6	656.0	646.6	650.8	677.8	744.8	816.3	870.6	913.8	942.6	945.4	940.9	936.7	902.7	824.2	714.6	610.3	534.4	449.9	345.3	236.6	166.6	117.7	85.19	68.98	56.81	45.43	35.34	28.58	22.37	19.18	22.05	31.99	67.66	307.4	496.9	120.1	7.606	6.090	6.090	6.068	6.082	5.508	5.098	4.976	4.616	4.406	4.459	4.405	4.338	4.291	3.825	3.765	4.126	3.963	3.620	3.775	3.386	3.097	2.955
485.0	359.0	572.7	695.2	1269	2790	1841	1458	1420	1298	1215	1300	1349	1293	1200	1044	876.7	711.9	619.3	585.2	578.2	573.8	597.4	656.5	712.1	762.1	792.3	812.8	823.1	821.4	814.6	782.2	716.6	627.7	540.0	469.7	396.2	304.7	210.2	151.4	120.7	88.75	68.29	57.11	46.98	37.02	30.27	24.31	20.06	17.19	17.16	23.43	90.42	398.0	448.1	26.46	6.470	5.784	5.586	5.655	4.864	4.802	4.416	4.207	3.859	3.723	3.781	3.652	3.611	3.453	3.433	3.554	3.343	3.136	3.192	3.059	2.824	2.532
490.0	299.2	536.5	623.5	836.6	1869	2481	1437	1246	1145	1065	1113	1142	1102	1021	889.8	749.5	619.0	539.5	515.1	502.2	496.3	512.5	557.8	603.0	643.8	672.0	687.5	698.1	696.1	689.7	663.7	608.0	533.6	463.1	401.7	341.8	266.1	187.1	134.7	113.4	95.58	73.66	58.40	48.23	40.08	32.10	26.83	21.80	18.32	15.67	15.19	28.56	112.4	306.6	333.3	115.6	11.51	5.361	5.156	4.474	4.119	3.699	3.538	3.319	3.201	3.202	3.067	2.994	2.794	2.909	2.873	2.702	2.593	2.542	2.326	2.310	2.081
495.0	235.9	474.5	592.2	699.0	1108	2338	1947	1103	993.5	928.1	945.6	973.4	935.2	866.4	751.4	639.4	525.7	469.3	440.3	436.7	424.7	437.0	472.5	506.8	541.4	561.0	580.3	588.8	583.3	580.5	560.0	513.5	455.2	396.5	347.1	296.3	233.0	167.8	122.8	99.56	92.27	79.75	60.91	50.05	42.08	34.00	28.59	24.96	20.46	16.78	14.80	16.26	33.57	76.81	196.8	488.9	177.9	10.99	5.106	4.060	3.623	3.415	3.048	2.620	2.687	2.535	2.576	2.455	2.550	2.299	2.203	2.118	2.029	2.084	1.914	1.703	1.709
500.0	210.3	388.6	571.0	608.3	820.1	1691	2581	1068	882.6	818.5	832.7	855.1	828.7	769.8	668.7	563.8	468.3	413.7	393.2	383.7	374.7	386.3	414.6	443.4	475.5	490.8	505.5	512.1	508.1	506.0	491.0	449.8	401.3	349.0	307.7	262.9	209.7	152.6	113.9	90.85	83.10	79.73	64.44	49.91	41.97	35.70	29.68	25.23	21.60	17.84	14.97	14.21	16.68	25.52	55.50	277.6	495.2	132.0	7.055	3.830	3.241	3.078	2.871	2.338	2.338	2.406	2.137	2.408	2.158	2.160	2.079	2.009	1.898	1.678	1.622	1.501	1.489
505.0	178.3	324.5	515.0	564.1	689.7	1108	2762	1267	785.7	740.0	742.7	769.2	728.7	673.9	586.4	494.4	416.6	363.7	351.5	339.3	327.0	339.6	362.7	390.7	413.5	430.3	440.6	446.7	444.3	444.5	433.0	393.8	353.0	306.2	270.6	233.0	187.7	139.4	105.8	85.38	74.64	73.26	67.86	51.25	41.93	34.94	29.81	25.99	22.17	19.38	16.35	14.26	13.61	14.69	19.79	79.07	347.8	435.7	29.16	4.363	3.249	2.517	2.412	2.268	1.986	1.785	1.907	1.973	1.764	1.713	1.587	1.631	1.693	1.411	1.327	1.094	1.158
510.0	138.8	266.5	421.1	544.4	578.9	763.7	1855	1928	766.4	634.5	631.3	638.9	606.7	562.8	488.6	416.9	350.6	309.9	295.4	285.1	275.7	279.5	301.1	321.5	342.1	356.2	361.3	366.1	364.5	366.2	355.9	328.5	292.0	255.4	229.4	198.4	161.5	122.0	94.22	77.93	67.90	63.19	61.89	54.38	43.03	34.51	29.48	25.72	22.67	20.07	17.45	15.26	13.50	12.66	12.81	24.70	95.09	264.4	289.4	117.2	9.666	2.440	2.006	1.911	1.491	1.509	1.464	1.494	1.383	1.217	1.352	1.353	1.158	1.149	1.121	0.901	0.918
515.0	96.50	219.5	323.1	484.5	506.2	570.7	940.8	1993	1159	533.8	525.2	523.5	500.2	462.9	403.4	341.7	293.7	260.3	244.5	234.6	226.9	230.4	245.3	260.0	275.2	289.0	288.6	292.6	293.2	296.4	284.7	265.4	234.5	208.3	186.3	163.6	133.9	105.6	82.95	69.61	60.88	55.07	51.64	50.97	45.63	35.03	28.60	25.55	22.04	20.03	17.24	15.97	13.54	12.21	11.08	12.57	27.47	64.77	137.2	364.7	168.9	9.787	1.821	1.395	1.207	1.223	1.086	1.020	1.189	0.956	0.947	0.945	0.781	0.936	0.675	0.654	0.509
520.0	90.39	188.0	274.3	419.8	492.1	482.0	613.6	1403	1719	530.6	451.9	448.0	430.5	391.1	344.9	294.2	254.1	227.2	212.8	203.0	197.3	197.0	211.0	221.2	235.0	240.5	246.5	246.0	248.0	245.1	239.9	223.5	200.6	177.8	159.5	139.1	116.3	92.60	73.98	63.86	55.34	50.52	46.78	46.25	45.79	36.18	28.19	24.80	21.67	19.30	17.02	16.12	14.48	11.93	10.72	10.19	12.53	19.74	36.52	182.0	365.5	120.5	4.504	1.324	1.058	1.011	0.897	0.718	0.885	0.672	0.755	0.610	0.590	0.719	0.508	0.367	0.295
525.0	77.51	168.4	231.6	340.9	459.8	425.5	490.7	801.2	1971	744.3	398.9	393.5	372.2	341.6	302.0	260.4	220.9	198.5	186.2	179.0	173.2	171.5	180.6	191.3	203.1	207.7	211.2	212.9	212.3	211.6	204.7	191.8	172.9	154.6	138.3	120.9	103.5	81.31	67.99	57.90	51.47	46.80	42.49	40.21	41.83	37.74	29.92	24.08	20.73	18.82	16.65	14.96	14.22	12.65	10.69	9.517	8.867	9.600	12.18	48.05	218.6	326.1	29.49	2.194	1.236	0.818	1.005	0.671	0.739	0.597	0.546	0.442	0.450	0.591	0.429	0.198	0.245
530.0	46.93	127.6	189.7	264.0	393.9	396.5	396.6	471.5	1297	1453	418.1	331.2	313.7	284.8	249.7	214.8	184.3	165.7	157.4	149.6	143.1	142.0	149.0	157.5	165.5	170.0	173.4	174.8	172.8	173.6	168.9	158.4	142.7	127.1	114.6	101.8	87.60	70.63	60.18	51.33	46.52	42.38	37.44	34.43	34.61	34.39	30.61	24.03	20.15	17.77	15.85	14.17	12.95	12.18	10.51	8.894	7.950	7.126	6.658	13.88	56.18	167.3	223.7	110.8	8.981	0.802	0.688	0.500	0.485	0.356	0.366	0.261	0.259	0.339	0.229	0.182	-0.003
535.0	29.32	99.05	144.2	216.2	287.8	383.8	332.4	332.6	562.4	1630	800.8	276.7	258.9	233.0	204.6	176.0	149.1	138.5	131.1	122.3	116.9	117.5	122.0	126.9	132.3	136.7	138.3	141.7	139.1	138.6	138.1	127.6	117.6	103.2	94.00	84.68	72.37	60.37	52.09	44.42	40.09	36.55	32.92	30.08	27.66	27.77	28.16	25.15	19.54	16.49	14.51	13.16	12.12	11.13	10.11	8.766	7.365	6.153	5.192	6.163	15.24	39.38	82.97	245.9	153.5	9.387	0.523	0.354	0.420	0.147	0.104	0.221	0.085	0.012	0.057	-0.034	-0.143
540.0	13.83	81.10	130.4	179.3	217.3	354.1	303.6	276.2	316.5	1076	1401	271.1	222.2	199.3	174.8	153.0	129.4	120.1	113.7	105.3	101.4	98.89	104.9	108.5	112.2	116.5	116.0	121.0	118.0	118.3	114.9	106.9	98.38	89.54	79.65	72.32	62.51	52.20	45.11	39.65	35.60	32.66	29.94	27.44	25.13	23.85	24.47	24.39	19.40	15.79	13.67	12.43	11.12	10.00	9.230	8.899	7.164	5.467	4.744	4.364	6.125	10.69	20.74	105.9	255.8	106.2	3.949	0.261	0.377	0.078	0.015	0.110	0.065	-0.059	0.044	-0.014	-0.142
545.0	18.26	71.17	113.7	148.6	178.9	279.8	299.8	235.7	230.6	510.8	1665	452.9	187.0	170.7	145.7	126.9	108.4	102.4	96.89	90.97	86.39	85.88	89.34	92.91	96.76	97.09	100.2	101.4	100.2	100.1	97.61	92.49	84.82	75.91	68.74	62.83	54.47	45.97	40.82	34.02	30.95	28.61	26.69	24.53	22.39	21.14	20.64	21.41	19.80	15.50	12.66	11.55	10.47	9.474	8.406	8.110	7.278	5.548	4.577	3.913	3.584	4.410	6.139	26.36	125.9	231.7	30.17	1.687	0.206	0.097	-0.141	-0.051	-0.113	-0.111	-0.040	-0.195	-0.070
550.0	5.353	49.29	92.91	113.6	145.3	193.0	276.5	201.5	177.3	241.6	1016	1103	192.0	137.3	118.7	101.3	89.11	80.57	76.05	71.83	67.93	67.04	70.92	73.98	76.85	79.23	81.18	79.67	80.53	80.36	78.31	72.31	67.45	59.95	55.78	50.49	43.40	37.18	32.28	29.17	26.51	24.38	22.00	20.68	19.25	17.79	16.92	16.87	17.24	15.21	12.27	10.09	8.941	8.499	7.234	6.812	6.389	5.153	4.232	3.385	2.827	2.722	2.701	7.102	30.61	100.3	153.8	85.82	9.037	0.096	-0.091	-0.232	-0.201	-0.273	-0.222	-0.359	-0.267
555.0	6.071	31.01	68.46	90.15	108.1	133.8	209.2	201.4	142.4	149.7	355.6	1316	483.9	109.8	93.53	80.87	69.23	62.13	58.20	55.54	52.58	52.04	53.45	57.57	58.19	60.68	62.19	59.79	62.32	62.07	60.88	56.78	50.56	47.01	42.85	39.10	34.16	29.64	25.27	23.58	21.74	19.39	17.87	16.77	15.89	14.53	14.07	12.97	12.88	13.29	11.66	8.828	7.374	6.961	6.284	5.450	5.380	4.714	3.969	3.172	2.216	2.228	1.717	2.606	7.601	23.07	48.97	145.9	109.6	8.778	-0.005	-0.194	-0.219	-0.307	-0.374	-0.401	-0.437
560.0	-16.80	30.27	49.50	74.84	85.74	110.7	154.5	202.3	126.9	116.6	167.9	840.5	965.5	115.2	76.72	66.67	56.38	51.81	48.02	45.21	43.80	43.26	43.11	45.67	47.25	48.73	48.84	48.43	48.51	46.97	47.81	46.32	40.14	37.93	34.53	31.85	27.70	24.11	21.36	19.18	18.28	16.69	15.68	14.35	13.48	12.70	11.82	10.49	10.18	11.06	10.96	8.638	6.767	6.259	5.572	4.840	4.381	3.984	3.635	2.782	2.123	1.639	1.295	1.423	2.351	5.622	11.55	53.61	150.9	79.43	3.759	-0.194	-0.338	-0.459	-0.424	-0.494	-0.409
565.0	-18.26	19.48	44.55	61.36	70.96	83.03	108.3	188.6	131.5	97.00	110.6	353.3	1226	177.4	62.02	54.17	46.78	44.03	40.68	37.03	36.40	35.62	35.75	37.78	38.43	39.64	39.44	39.91	40.21	39.44	39.21	38.38	33.36	31.02	28.89	25.91	23.33	20.33	18.38	15.79	15.08	14.31	13.29	12.41	11.80	10.83	10.06	9.062	8.067	8.897	9.526	8.392	6.280	5.280	4.660	4.176	3.605	3.378	3.085	2.946	1.879	1.345	1.258	1.079	1.132	1.885	2.945	12.56	63.92	140.0	30.24	1.322	-0.341	-0.512	-0.450	-0.536	-0.609
570.0	-18.16	19.54	41.65	51.88	58.57	63.71	78.28	129.6	144.5	85.26	88.77	142.9	751.2	716.5	80.64	42.99	36.52	33.66	31.94	29.05	28.97	28.00	28.56	28.90	30.08	31.28	30.68	30.84	30.93	30.25	29.42	29.18	26.56	23.77	22.12	20.02	18.71	16.23	14.46	12.96	12.17	11.56	10.91	10.07	9.329	8.567	8.095	7.388	6.814	6.716	7.094	6.919	6.074	4.680	3.713	3.492	3.107	2.669	2.393	2.247	2.054	1.301	1.124	0.869	0.760	0.755	0.913	3.036	14.84	53.36	88.29	58.20	7.506	-0.344	-0.495	-0.573	-0.593
575.0	-20.90	13.46	31.72	41.71	47.05	51.86	57.22	77.17	145.2	91.97	73.21	85.36	242.8	896.5	288.2	33.62	28.59	26.81	23.84	23.14	21.55	20.88	22.30	22.68	23.04	23.92	23.37	23.16	23.07	22.68	22.64	21.37	19.92	18.30	17.08	15.36	14.55	12.61	11.37	10.46	9.322	8.958	8.619	7.606	7.335	6.990	6.548	5.962	5.387	5.180	5.012	4.830	5.484	4.686	3.248	2.873	2.519	2.086	1.758	1.730	1.473	1.507	1.070	0.747	0.619	0.423	0.382	0.891	3.513	11.81	24.56	77.97	72.36	7.048	-0.497	-0.573	-0.633
580.0	-24.63	9.646	29.51	33.14	38.06	43.77	46.82	57.91	122.4	111.5	66.54	69.71	98.67	579.8	629.0	40.44	23.18	21.39	19.38	19.16	17.86	17.23	18.41	17.89	19.10	19.09	18.48	18.85	18.59	18.74	18.81	17.79	15.96	15.07	13.92	12.52	11.32	10.18	9.282	8.873	8.106	7.887	6.903	6.791	6.541	5.939	5.515	4.934	4.570	4.313	3.926	3.878	4.547	4.361	3.194	2.399	2.010	1.738	1.478	1.249	0.988	1.278	1.288	0.634	0.427	0.207	0.202	0.298	0.978	2.615	5.529	26.22	87.57	33.30	2.769	-0.527	-0.631
585.0	-23.29	4.520	25.33	31.92	31.71	36.00	40.04	47.60	87.22	131.5	65.08	61.61	63.69	233.2	817.1	99.75	19.16	17.21	16.20	15.42	15.16	14.45	15.25	14.66	15.46	15.44	15.55	15.87	15.25	16.05	15.14	14.83	13.71	12.61	11.58	10.33	9.976	8.771	7.596	7.203	6.606	6.074	5.861	5.504	5.151	5.061	4.680	4.178	3.508	3.722	3.310	2.923	3.400	3.522	3.148	2.279	1.781	1.551	1.200	0.996	0.941	0.990	1.118	0.787	0.428	0.289	0.198	0.157	0.255	0.578	1.114	5.765	34.70	78.94	27.93	0.547	-0.675
590.0	-23.39	3.929	20.01	20.44	24.02	30.03	35.61	39.08	56.40	117.9	86.46	57.19	53.44	84.60	495.6	414.3	28.73	14.60	12.39	11.33	11.09	11.23	11.76	11.69	12.06	12.29	12.14	12.43	12.11	12.26	12.11	11.37	10.63	9.883	8.849	8.500	7.517	6.772	6.035	5.798	5.327	4.927	4.804	4.324	4.232	3.940	3.641	3.261	2.997	2.905	2.558	2.472	2.368	2.698	2.707	2.217	1.526	1.142	0.938	0.757	0.619	0.614	0.611	0.604	0.522	0.110	0.067	0.016	0.069	0.030	0.092	1.122	7.735	29.16	55.88	37.33	4.082
595.0	-25.47	10.17	19.86	21.13	19.44	23.74	30.13	36.15	45.08	81.20	107.1	59.38	49.59	46.37	148.5	562.5	98.54	11.82	9.534	8.785	8.497	8.276	8.610	9.112	9.046	9.521	8.943	9.111	9.714	9.685	9.492	8.718	7.883	7.374	6.872	6.265	5.472	5.173	4.455	4.489	4.330	3.703	3.504	3.551	3.202	3.087	2.969	2.591	2.326	2.227	1.957	1.744	1.553	1.706	1.928	1.989	1.539	0.892	0.689	0.588	0.446	0.308	0.412	0.249	0.518	0.237	-0.011	-0.123	-0.036	-0.124	-0.143	0.043	1.384	6.151	14.69	46.19	33.70
600.0	-27.34	5.433	21.87	17.60	16.50	21.47	23.92	31.01	39.89	60.01	116.2	69.94	48.63	37.90	53.53	371.7	325.9	14.24	8.094	7.453	7.017	6.807	6.847	7.589	7.333	7.469	7.161	7.871	7.925	7.730	7.578	6.832	6.521	6.001	5.627	5.036	4.503	4.029	3.886	3.498	3.405	3.122	2.854	2.619	2.622	2.378	2.342	2.192	2.030	1.807	1.663	1.315	1.267	1.151	1.364	1.859	1.542	0.832	0.549	0.321	0.264	0.379	0.243	0.090	0.181	0.326	-0.001	-0.244	-0.049	-0.203	-0.323	-0.270	-0.021	0.904	2.891	15.04	49.23
605.0	-25.52	6.508	15.75	16.60	16.55	19.30	24.26	31.58	35.54	49.92	106.0	87.56	50.17	37.71	31.98	151.0	479.4	50.17	7.148	6.463	5.538	6.159	5.733	5.987	5.512	5.665	6.104	6.000	6.335	6.449	5.997	5.585	5.167	4.616	4.539	4.241	3.862	3.322	3.291	2.914	2.736	2.463	2.283	2.099	2.153	1.955	1.764	1.739	1.481	1.513	1.417	0.888	0.938	0.868	0.856	1.228	1.498	0.959	0.534	0.337	0.098	0.117	0.085	0.072	0.088	0.246	0.122	-0.237	-0.147	-0.274	-0.329	-0.432	-0.368	-0.215	0.218	3.050	19.09
610.0	-28.80	2.080	14.58	16.53	14.98	18.27	24.75	32.43	40.92	53.96	87.34	116.2	65.81	46.01	34.37	56.59	328.0	240.6	11.61	4.942	4.281	4.365	4.338	4.354	4.337	4.380	4.601	4.366	4.660	4.504	4.704	4.498	3.952	3.568	3.473	3.362	3.193	2.700	2.257	1.907	1.977	1.656	1.681	1.571	1.504	1.393	1.325	1.197	1.176	1.250	0.982	0.672	0.694	0.524	0.540	0.546	0.873	0.875	0.629	0.204	0.039	0.012	0.000	-0.048	-0.002	0.069	0.130	0.017	-0.152	-0.288	-0.293	-0.478	-0.382	-0.449	-0.360	0.207	3.963
615.0	-30.53	-0.412	20.42	12.11	15.73	17.75	22.56	30.84	42.42	51.07	71.03	116.4	85.17	49.39	36.23	32.59	107.1	372.2	61.73	3.446	3.355	3.214	3.209	3.031	3.253	3.297	3.371	3.226	3.032	3.239	3.375	3.048	2.820	2.623	2.499	2.396	2.096	1.618	1.530	1.422	1.344	1.179	1.160	1.118	1.137	0.933	0.820	0.754	0.777	0.827	0.658	0.422	0.343	0.282	0.344	0.290	0.424	0.611	0.525	0.337	-0.070	-0.044	-0.139	-0.131	-0.222	-0.103	-0.094	0.042	-0.062	-0.292	-0.309	-0.468	-0.411	-0.408	-0.525	-0.339	0.406
620.0	-29.57	0.076	11.75	13.03	12.57	18.55	22.37	31.45	40.21	48.52	65.76	96.39	98.04	52.34	38.12	27.11	42.31	266.1	198.3	4.643	2.491	2.437	2.282	2.709	2.242	2.687	2.607	2.254	2.548	2.574	2.671	2.363	2.247	1.943	1.803	1.878	1.557	1.226	1.127	0.993	0.861	0.923	0.772	0.835	0.642	0.749	0.688	0.556	0.510	0.575	0.537	0.332	0.278	0.226	0.191	0.027	0.085	0.303	0.228	0.360	-0.107	-0.127	-0.218	-0.242	-0.279	-0.271	-0.182	-0.166	-0.097	-0.232	-0.397	-0.450	-0.555	-0.497	-0.591	-0.531	-0.351
625.0	-29.17	-2.181	8.528	14.69	10.80	16.28	21.88	29.34	36.80	50.31	59.98	80.86	105.0	54.96	37.34	25.84	27.79	116.0	311.0	21.46	2.228	1.725	1.915	1.848	2.287	2.430	1.898	2.071	1.929	2.011	2.006	1.933	1.707	1.505	1.268	1.369	1.053	1.042	0.714	0.673	0.665	0.648	0.727	0.453	0.552	0.473	0.416	0.332	0.430	0.412	0.384	0.137	0.150	0.155	0.097	-0.042	-0.060	0.055	0.215	0.256	-0.042	-0.143	-0.259	-0.256	-0.228	-0.211	-0.362	-0.313	-0.130	-0.104	-0.293	-0.473	-0.528	-0.515	-0.568	-0.594	-0.593
630.0	-32.71	-0.262	12.59	9.148	9.147	14.91	20.64	27.32	33.47	46.87	57.18	69.78	90.96	69.24	37.34	25.77	23.07	39.01	230.9	133.5	4.212	1.170	1.549	0.974	1.504	1.400	1.374	1.286	1.547	1.465	1.141	1.304	1.129	0.949	0.929	0.817	0.691	0.498	0.403	0.468	0.270	0.382	0.286	0.204	0.388	0.181	0.208	0.152	0.194	0.215	0.193	-0.010	-0.057	-0.117	-0.002	-0.131	-0.157	-0.152	-0.096	0.002	-0.103	-0.212	-0.251	-0.341	-0.274	-0.269	-0.338	-0.312	-0.290	-0.288	-0.271	-0.353	-0.551	-0.513	-0.537	-0.568	-0.631
635.0	-29.79	-9.112	14.06	14.79	9.032	15.89	21.27	27.72	35.55	46.34	53.05	65.31	74.01	79.93	41.96	27.37	22.75	20.02	73.25	251.1	33.82	0.842	1.140	0.592	1.002	0.796	1.071	0.985	1.159	0.937	0.893	0.737	0.676	0.655	0.619	0.513	0.429	0.191	0.079	0.165	0.113	-0.049	-0.042	0.058	0.096	0.087	0.056	0.102	-0.015	0.042	-0.026	-0.164	-0.170	-0.209	-0.183	-0.178	-0.336	-0.254	-0.238	-0.172	-0.105	-0.218	-0.310	-0.398	-0.336	-0.337	-0.332	-0.358	-0.432	-0.445	-0.438	-0.292	-0.475	-0.580	-0.578	-0.609	-0.594
640.0	-26.69	-1.086	13.20	11.81	11.57	16.25	20.25	27.56	33.31	43.26	55.51	64.65	66.47	80.19	51.50	30.93	25.08	17.20	22.60	204.7	116.0	1.504	0.481	0.382	0.691	0.474	0.774	0.613	0.631	0.641	0.501	0.618	0.382	0.309	0.223	0.222	0.370	-0.093	0.044	-0.029	-0.015	0.018	-0.042	-0.008	-0.123	-0.065	-0.016	-0.081	-0.060	-0.030	-0.160	-0.180	-0.238	-0.233	-0.299	-0.215	-0.341	-0.322	-0.348	-0.316	-0.287	-0.123	-0.269	-0.359	-0.383	-0.430	-0.422	-0.483	-0.444	-0.427	-0.448	-0.244	-0.406	-0.493	-0.556	-0.637	-0.583
645.0	-19.16	12.54	26.62	13.92	10.50	17.69	22.06	28.61	32.70	43.16	57.37	65.06	65.83	74.39	63.36	33.09	27.09	16.95	10.73	96.48	204.9	9.497	0.485	0.354	0.411	0.311	0.363	0.413	0.251	0.381	0.258	0.277	0.409	0.240	0.050	0.193	0.151	-0.125	-0.052	-0.130	-0.170	-0.127	-0.165	-0.305	-0.221	-0.230	-0.090	-0.086	-0.113	0.000	-0.154	-0.266	-0.325	-0.252	-0.283	-0.283	-0.320	-0.253	-0.317	-0.337	-0.279	-0.208	-0.256	-0.365	-0.437	-0.429	-0.421	-0.523	-0.431	-0.462	-0.428	-0.375	-0.324	-0.390	-0.572	-0.621	-0.608
650.0	-17.82	21.94	31.53	19.96	12.85	10.54	19.71	27.17	30.47	43.72	55.65	62.12	63.57	66.83	69.34	36.40	26.08	16.45	8.117	30.60	218.2	47.07	0.169	0.342	0.294	0.214	0.115	-0.032	0.097	0.221	0.196	0.351	0.049	0.043	-0.167	0.047	-0.122	-0.285	-0.201	-0.242	-0.309	-0.301	-0.253	-0.373	-0.184	-0.289	-0.289	-0.169	-0.023	-0.096	-0.200	-0.367	-0.302	-0.285	-0.366	-0.437	-0.315	-0.379	-0.326	-0.463	-0.378	-0.336	-0.269	-0.389	-0.472	-0.473	-0.452	-0.456	-0.393	-0.439	-0.517	-0.488	-0.377	-0.349	-0.581	-0.617	-0.673
