Sample:	'1
File name:	2025031110µã.FD3
Run date:	'10:50:45, 03/13/2025
Operator:	Administrator
Comment:	'

Instrument
Model:	F-2700 FL Spectrophotometer
Serial number:	23B8-004
ROM Version:	4J14000 07

Instrument parameters
Measurement type:	3-D scan
Data mode:	Fluorescence
EX  Start WL:	220.0 nm
EX  End WL:	600.0 nm
EX Sampling interval:	5.0 nm
EM  Start WL:	230.0 nm
EM  End WL:	650.0 nm
EM Sampling interval:	5.0 nm
Scan speed:	12000 nm/min
EX Slit:	5.0 nm
EM Slit:	5.0 nm
PMT Voltage:	700 V
Response:	Auto 
Corrected spectra:	Off
Contour interval:	50.000

Peak integration
Integration method:	Rectangular
Sensitivity:	1
Threshold:	1.000

Peaks
No.	ApexEX/EM(nm)	Height(Data)
1	225.0/340.0	5569
2	230.0/500.0	344.0
3	235.0/510.0	269.0
4	240.0/265.0	438.8
5	240.0/525.0	238.6
6	245.0/270.0	421.8
7	245.0/535.0	199.9
8	250.0/275.0	525.9
9	250.0/455.0	791.8
10	250.0/550.0	162.7
11	255.0/280.0	612.6
12	255.0/565.0	127.2
13	260.0/290.0	539.8
14	260.0/575.0	100.7
15	265.0/585.0	87.13
16	275.0/615.0	127.7
17	280.0/325.0	2252
18	280.0/625.0	122.7
19	285.0/635.0	104.3
20	320.0/360.0	346.8
21	330.0/375.0	225.3
22	335.0/380.0	210.0
23	345.0/395.0	153.3
24	350.0/400.0	160.8
25	355.0/405.0	145.3
26	360.0/415.0	132.2
27	365.0/420.0	135.1
28	375.0/435.0	104.5
29	380.0/440.0	111.2
30	395.0/460.0	63.44
31	400.0/465.0	53.12
32	415.0/485.0	26.62
33	425.0/500.0	18.82
34	430.0/505.0	17.33
35	440.0/520.0	12.05
36	445.0/525.0	10.44
37	455.0/540.0	7.476
38	460.0/340.0	15.49
39	475.0/565.0	3.201
40	485.0/265.0	2.314
41	495.0/270.0	2.324
42	505.0/275.0	3.494
43	510.0/280.0	3.629
44	520.0/285.0	4.129
45	530.0/290.0	3.592
46	560.0/325.0	11.36
47	570.0/315.0	11.51
48	575.0/320.0	11.71

Data points
	220.0	225.0	230.0	235.0	240.0	245.0	250.0	255.0	260.0	265.0	270.0	275.0	280.0	285.0	290.0	295.0	300.0	305.0	310.0	315.0	320.0	325.0	330.0	335.0	340.0	345.0	350.0	355.0	360.0	365.0	370.0	375.0	380.0	385.0	390.0	395.0	400.0	405.0	410.0	415.0	420.0	425.0	430.0	435.0	440.0	445.0	450.0	455.0	460.0	465.0	470.0	475.0	480.0	485.0	490.0	495.0	500.0	505.0	510.0	515.0	520.0	525.0	530.0	535.0	540.0	545.0	550.0	555.0	560.0	565.0	570.0	575.0	580.0	585.0	590.0	595.0	600.0
230.0	123.1	2573	3885	718.0	25.64	5.538	4.895	4.477	3.474	3.464	3.344	2.996	2.693	2.457	1.752	1.754	1.785	1.306	1.153	0.872	0.815	0.703	0.746	0.681	0.625	0.606	0.478	0.508	0.504	0.453	0.435	0.429	0.429	0.362	0.372	0.373	0.368	0.326	0.329	0.351	0.630	0.895	0.740	0.424	0.293	0.353	2.278	10.45	13.47	6.676	2.082	0.421	0.234	0.210	0.193	0.198	0.199	0.187	0.199	0.185	0.180	0.182	0.155	0.163	0.174	0.185	0.184	0.168	0.193	0.191	0.175	0.185	0.179	0.173	0.172	0.174	0.187
235.0	202.4	740.1	2789	3241	518.9	41.12	6.056	4.273	4.242	3.573	3.200	3.239	2.917	2.521	1.966	1.756	1.786	1.434	1.197	0.856	1.141	0.872	0.770	0.714	0.603	0.603	0.522	0.473	0.520	0.469	0.470	0.368	0.455	0.380	0.404	0.386	0.300	0.339	0.333	0.362	0.355	0.501	0.706	0.928	0.673	0.421	0.780	2.762	5.325	7.934	11.17	9.326	4.510	0.770	0.231	0.189	0.220	0.197	0.180	0.185	0.180	0.175	0.163	0.158	0.179	0.191	0.196	0.154	0.206	0.211	0.197	0.183	0.181	0.166	0.180	0.174	0.188
240.0	294.0	288.7	869.5	3085	3360	397.1	19.83	6.524	5.405	4.762	3.797	3.639	3.177	2.688	2.406	2.124	1.795	1.354	1.339	0.922	0.968	0.870	0.793	0.744	0.566	0.593	0.600	0.473	0.508	0.462	0.422	0.452	0.490	0.425	0.456	0.307	0.296	0.368	0.338	0.375	0.291	0.302	0.391	0.681	0.987	0.923	0.681	0.919	1.412	2.416	6.598	13.45	20.18	9.446	2.864	0.557	0.272	0.229	0.215	0.183	0.173	0.174	0.163	0.179	0.186	0.187	0.181	0.185	0.184	0.201	0.185	0.194	0.178	0.162	0.191	0.181	0.214
245.0	236.1	323.5	277.0	1123	3972	3085	275.3	11.28	6.583	5.747	4.901	3.989	3.800	2.592	2.292	2.284	2.089	1.514	1.250	0.977	1.074	1.078	0.825	0.807	0.592	0.660	0.608	0.569	0.499	0.480	0.540	0.446	0.520	0.334	0.373	0.284	0.367	0.347	0.359	0.362	0.294	0.277	0.308	0.395	0.521	0.924	1.096	0.867	0.619	0.757	1.760	4.967	15.87	19.54	17.73	10.84	2.173	0.366	0.230	0.168	0.203	0.193	0.186	0.223	0.153	0.220	0.191	0.199	0.210	0.192	0.211	0.166	0.186	0.251	0.237	0.175	0.204
250.0	89.02	237.7	326.3	353.2	1326	3597	3741	1126	58.51	8.302	6.889	5.223	4.207	3.560	2.749	2.520	2.239	1.735	1.358	1.019	0.993	0.994	0.865	0.831	0.722	0.762	0.546	0.550	0.478	0.446	0.521	0.450	0.529	0.448	0.376	0.373	0.322	0.322	0.328	0.348	0.312	0.315	0.341	0.317	0.343	0.423	0.682	1.044	1.206	0.997	0.885	1.390	3.937	6.566	11.95	20.13	22.91	17.26	10.48	2.460	0.434	0.224	0.188	0.203	0.178	0.201	0.212	0.173	0.205	0.205	0.184	0.194	0.204	0.216	0.183	0.209	0.202
255.0	48.44	90.31	242.1	387.1	381.9	942.4	3334	6528	1510	65.03	9.625	7.423	5.220	3.799	2.892	2.681	2.410	1.826	1.413	1.165	1.059	0.933	0.821	0.901	0.776	0.782	0.634	0.593	0.594	0.591	0.598	0.537	0.529	0.442	0.457	0.408	0.345	0.307	0.428	0.395	0.350	0.281	0.310	0.331	0.362	0.313	0.354	0.493	0.623	0.959	1.588	1.565	1.436	1.715	2.928	4.958	8.875	20.08	39.31	27.27	17.20	2.765	0.332	0.248	0.259	0.255	0.206	0.185	0.192	0.181	0.199	0.192	0.228	0.206	0.192	0.186	0.195
260.0	39.98	47.41	95.02	346.8	370.9	270.8	1058	5689	6752	1183	33.48	10.07	6.812	4.302	3.942	3.278	3.383	2.053	1.697	1.216	1.398	1.189	0.956	0.906	0.696	0.837	0.705	0.632	0.598	0.535	0.551	0.578	0.537	0.460	0.426	0.465	0.336	0.324	0.406	0.362	0.344	0.306	0.302	0.297	0.327	0.344	0.310	0.331	0.371	0.431	1.037	1.852	2.106	1.284	0.989	1.398	2.330	5.436	16.74	34.35	55.81	26.18	11.59	1.193	0.325	0.285	0.229	0.248	0.210	0.232	0.168	0.195	0.209	0.205	0.213	0.224	0.191
265.0	39.47	34.61	42.15	169.2	438.8	266.1	282.2	1973	7562	7473	208.8	17.96	8.065	5.501	4.500	3.730	3.501	2.576	1.732	1.364	1.285	1.183	1.061	0.968	0.819	0.762	0.729	0.788	0.641	0.492	0.511	0.511	0.542	0.524	0.434	0.439	0.373	0.351	0.411	0.380	0.385	0.290	0.368	0.369	0.364	0.361	0.318	0.367	0.269	0.285	0.460	0.951	2.006	2.314	1.587	0.878	0.864	1.526	4.212	10.12	30.84	47.79	53.03	21.76	6.252	0.615	0.252	0.258	0.201	0.277	0.185	0.205	0.201	0.220	0.234	0.222	0.239
270.0	47.09	43.93	32.66	58.58	218.3	421.8	294.7	499.5	2432	7827	9999.9	2849	52.01	9.518	6.562	5.048	4.895	2.841	2.159	1.590	1.430	1.341	1.129	1.056	0.800	0.864	0.705	0.858	0.663	0.665	0.665	0.592	0.702	0.582	0.553	0.466	0.463	0.390	0.376	0.369	0.380	0.301	0.377	0.402	0.342	0.347	0.314	0.355	0.289	0.256	0.293	0.454	0.782	1.318	1.908	2.324	2.039	1.251	1.318	2.590	7.407	13.69	26.34	36.70	36.50	52.33	15.32	5.730	0.595	0.322	0.258	0.241	0.244	0.258	0.253	0.229	0.277
275.0	76.99	72.75	40.88	39.25	76.65	205.8	525.9	360.7	585.1	1934	7538	9999.9	1156	56.08	9.486	7.680	6.075	3.196	2.712	1.818	1.739	1.524	1.230	1.178	1.010	0.931	0.840	0.842	0.684	0.756	0.823	0.664	0.700	0.642	0.633	0.603	0.532	0.538	0.436	0.467	0.483	0.352	0.427	0.446	0.500	0.379	0.393	0.401	0.364	0.312	0.272	0.316	0.506	0.565	0.728	1.171	2.419	3.494	2.493	1.371	2.057	3.395	6.194	8.668	11.22	35.64	56.21	63.16	23.40	6.670	0.559	0.276	0.305	0.319	0.246	0.251	0.249
280.0	106.4	101.0	61.11	40.42	43.12	85.82	330.3	612.6	282.0	481.1	2130	9999.9	9877	869.2	27.99	9.744	7.554	4.542	3.155	2.361	2.099	1.596	1.446	1.286	1.110	1.017	0.885	0.832	0.750	0.772	0.784	0.654	0.730	0.729	0.766	0.695	0.660	0.550	0.547	0.495	0.560	0.451	0.413	0.521	0.522	0.544	0.493	0.502	0.462	0.303	0.343	0.354	0.327	0.383	0.470	0.594	1.075	2.152	3.629	3.087	1.897	1.243	1.780	2.333	2.917	8.919	18.95	42.11	64.53	32.82	19.43	3.860	0.424	0.342	0.323	0.313	0.251
285.0	145.7	144.9	92.08	50.94	40.06	52.61	138.3	520.3	530.4	206.3	545.9	3058	9999.9	8123	120.0	16.66	10.54	5.616	4.299	2.413	2.296	1.797	1.743	1.513	1.093	1.100	0.947	0.806	0.844	0.770	0.867	0.811	0.816	0.842	0.888	0.889	0.887	0.623	0.601	0.625	0.553	0.549	0.563	0.691	0.536	0.659	0.618	0.562	0.525	0.413	0.370	0.358	0.397	0.344	0.428	0.477	0.563	0.875	1.852	3.271	4.129	2.457	1.183	0.980	1.002	2.576	4.737	10.84	25.57	55.19	82.13	31.61	13.82	1.679	0.403	0.344	0.326
290.0	214.4	191.1	138.9	79.10	54.68	52.24	77.54	226.3	539.8	485.5	264.8	785.3	2927	8768	9531	2416	40.87	9.250	5.436	3.284	2.769	2.459	1.939	1.755	1.370	1.248	1.032	0.888	0.955	0.903	0.845	0.799	0.988	1.014	1.122	1.061	0.979	0.782	0.710	0.707	0.683	0.624	0.574	0.675	0.681	0.735	0.683	0.756	0.692	0.521	0.420	0.441	0.447	0.445	0.432	0.431	0.501	0.623	0.834	1.297	2.293	3.217	3.592	2.809	1.540	1.294	1.679	3.046	6.355	14.16	29.68	41.01	60.40	61.15	43.29	9.542	1.577
295.0	302.3	289.4	213.8	134.0	105.0	96.05	116.0	179.7	276.9	641.3	704.9	349.1	795.1	2169	5876	9999.9	3574	44.69	8.209	4.721	3.831	3.238	2.327	2.129	1.541	1.564	1.188	1.108	0.883	0.842	0.885	0.847	1.022	1.160	1.197	1.250	1.105	0.926	0.870	0.879	0.907	0.722	0.833	0.821	0.935	0.955	1.042	0.977	0.922	0.721	0.622	0.611	0.610	0.647	0.587	0.596	0.692	0.708	0.856	0.995	1.194	1.527	2.338	3.935	5.127	3.427	1.757	1.698	2.510	4.063	7.389	9.931	15.35	27.58	61.45	69.82	31.80
300.0	456.8	496.7	375.6	254.5	210.6	213.3	247.6	309.9	316.5	605.7	1127	807.8	587.1	797.5	1736	8743	9999.9	589.9	25.88	7.076	4.454	3.586	3.011	2.441	1.656	1.819	1.262	1.342	1.186	0.901	1.084	0.925	1.149	1.549	1.444	1.496	1.331	1.192	1.198	1.117	1.085	1.059	1.170	1.201	1.180	1.393	1.356	1.466	1.369	1.121	1.077	1.067	1.028	0.957	0.914	1.141	1.176	1.339	1.451	1.651	1.634	1.838	2.365	3.118	4.883	6.119	5.256	3.362	2.853	3.085	3.746	3.724	5.329	7.934	18.08	35.99	69.03
305.0	743.3	795.8	656.8	466.9	393.4	407.9	442.3	636.6	726.4	967.3	1396	1579	1155	908.7	976.4	2864	9999.9	9999.9	411.9	12.56	6.006	4.831	3.495	2.961	1.949	2.056	1.529	1.382	1.259	0.980	1.084	1.135	1.321	1.436	1.632	1.746	1.918	1.654	1.743	1.616	1.740	1.634	1.728	1.769	1.669	1.975	1.991	2.293	2.041	1.599	1.611	1.693	1.776	1.701	1.627	1.898	2.248	2.672	2.732	3.000	3.169	3.552	4.251	4.463	5.495	6.587	8.369	8.469	6.908	5.675	5.083	4.660	4.650	5.214	7.065	11.01	23.93
310.0	1076	1204	1011	724.4	595.2	607.2	748.9	921.8	998.6	1251	1556	1909	1969	1375	1075	1255	3393	7745	7217	1591	25.61	6.855	4.723	3.675	2.461	2.413	1.906	1.453	1.411	1.277	1.168	1.118	1.448	1.559	1.904	1.985	2.200	2.253	2.207	2.171	2.115	2.063	2.079	2.334	2.405	2.797	2.819	3.310	2.982	2.626	2.252	2.608	2.505	2.477	2.528	2.768	3.148	3.770	3.950	4.338	4.328	4.710	5.625	6.074	6.753	7.390	8.111	9.437	10.22	10.33	8.656	7.042	6.255	6.115	5.931	6.280	8.636
315.0	1549	1720	1492	1023	808.6	812.4	958.8	1123	1172	1420	1743	1996	2154	2023	1369	1016	1365	2096	4482	8397	508.0	29.37	7.068	4.885	3.274	2.985	2.292	1.709	1.739	1.304	1.307	1.276	1.484	1.604	2.073	2.175	2.352	2.631	2.634	2.645	2.768	2.529	2.538	2.964	3.061	3.981	4.553	5.021	4.404	3.501	3.097	3.536	3.395	3.111	3.298	3.573	4.050	4.585	4.740	4.868	5.224	5.805	6.563	7.136	7.461	8.155	9.075	8.932	10.26	10.75	11.51	11.42	8.879	7.693	6.622	5.683	5.934
320.0	2303	2770	2265	1321	953.4	914.0	1108	1271	1293	1584	1925	2145	2203	2180	1744	1066	955.0	834.2	1236	5292	7719	437.7	16.16	6.087	3.760	3.609	2.456	2.044	1.836	1.454	1.485	1.273	1.600	1.708	2.167	2.330	2.554	2.780	2.951	3.102	3.319	3.310	3.411	3.942	4.711	6.142	6.586	7.598	6.648	4.982	4.093	4.048	3.878	3.483	3.621	3.951	4.676	5.252	5.531	5.651	5.958	6.220	7.013	7.678	8.309	9.109	9.543	9.851	11.06	11.02	11.09	11.71	11.30	10.06	7.892	6.393	5.502
325.0	3059	3973	3256	1761	1068	983.7	1143	1332	1373	1661	2000	2238	2252	2083	1916	1230	870.4	561.3	408.8	1490	6798	7104	60.51	10.37	5.035	4.350	2.719	2.450	1.833	1.816	1.614	1.444	1.780	1.803	2.044	2.429	2.606	2.860	3.079	3.390	3.376	3.767	4.234	5.116	6.569	8.055	9.335	10.83	10.10	7.407	5.324	4.678	4.150	3.811	3.814	4.204	4.900	5.696	5.820	6.107	5.754	6.826	7.220	7.730	8.565	9.572	10.08	10.48	11.36	10.97	10.94	10.86	10.60	11.31	9.714	7.283	5.887
330.0	3577	4641	4127	2458	1532	1170	1172	1322	1361	1600	1941	2185	2205	1979	1723	1390	980.8	534.1	275.3	442.4	1923	5756	5651	1367	22.04	6.060	3.825	2.884	2.479	1.862	1.726	1.527	1.940	1.749	2.133	2.367	2.578	2.835	3.211	3.456	3.745	4.293	4.845	5.630	7.225	9.071	11.08	12.76	12.34	9.712	7.418	7.036	6.172	5.398	5.045	4.551	5.010	5.628	5.721	6.130	6.049	6.692	7.397	7.857	8.697	9.669	9.582	10.01	10.57	10.64	10.89	10.28	9.732	10.00	9.255	8.569	7.809
335.0	4090	5465	5114	3482	2414	1564	1268	1357	1373	1597	1938	2182	2210	2026	1696	1342	1209	705.4	348.5	288.8	578.1	1425	3796	8424	1840	24.43	5.336	3.697	2.951	2.139	1.918	1.631	2.057	1.850	2.361	2.600	2.784	2.953	3.452	3.906	4.157	4.704	5.322	6.782	8.402	10.75	12.38	15.19	14.46	12.62	10.24	10.54	9.893	8.332	6.851	5.505	5.638	5.921	6.080	6.072	6.141	6.556	7.058	8.029	8.628	9.697	9.591	10.33	10.38	10.79	10.76	10.58	10.03	9.638	8.681	8.183	8.381
340.0	4138	5569	5397	3768	2667	1671	1283	1311	1312	1520	1827	2044	2085	1938	1617	1239	1093	855.2	407.5	265.5	289.3	435.6	1052	5791	6908	370.3	10.86	4.505	3.454	2.563	2.186	1.719	2.283	1.936	2.464	2.454	2.765	3.175	3.355	3.786	3.855	4.415	5.165	6.891	8.719	10.90	12.76	15.36	15.49	13.27	10.78	11.75	11.09	9.156	7.512	5.747	5.606	5.697	5.937	5.718	5.922	6.308	6.807	7.661	8.020	8.752	9.238	9.633	9.865	10.35	10.58	9.844	9.436	9.277	8.247	7.553	6.984
345.0	3725	5088	4980	3613	2517	1575	1159	1181	1180	1356	1611	1778	1839	1714	1439	1094	897.5	788.7	494.3	258.7	215.3	213.5	327.3	1672	6188	3285	50.53	6.347	4.419	2.828	2.412	2.126	2.420	2.049	2.539	2.387	2.866	2.987	3.299	3.424	3.631	4.156	4.807	5.985	8.043	9.615	11.52	14.06	14.27	12.09	10.58	11.05	9.980	8.713	6.899	5.477	5.171	5.041	5.319	5.157	5.606	5.661	6.029	6.731	7.194	7.779	7.811	8.192	8.608	9.020	9.154	8.830	8.313	8.163	7.646	6.805	6.241
350.0	3248	4334	4342	3369	2435	1514	1034	1024	1007	1147	1352	1503	1555	1466	1238	957.7	762.3	610.4	522.4	356.6	215.3	168.0	172.4	442.5	1762	4467	4355	1073	16.89	3.905	3.012	2.301	2.599	2.065	2.383	2.298	2.639	2.663	2.940	3.008	3.258	3.701	4.268	5.349	6.541	8.352	9.814	12.34	12.38	10.91	9.726	10.35	9.495	8.582	6.691	5.045	4.488	4.521	4.585	4.821	4.764	4.937	5.169	5.535	6.203	6.477	6.702	7.145	7.586	7.764	8.032	7.796	7.343	6.917	6.658	5.960	5.443
355.0	2749	3697	3793	3008	2275	1384	924.6	879.2	861.8	969.6	1124	1248	1296	1239	1065	834.6	663.4	508.2	397.2	412.9	289.6	162.5	139.2	170.9	424.7	1056	3107	6027	379.7	15.76	4.083	2.801	3.069	2.350	2.414	2.214	2.278	2.325	2.647	2.585	3.221	3.401	3.760	4.461	5.576	7.189	8.631	10.51	10.60	9.506	8.658	9.418	9.219	8.240	6.344	4.719	4.240	4.014	4.119	3.968	3.905	3.989	4.688	4.642	5.021	5.496	5.848	5.866	6.383	6.427	6.610	6.620	6.475	6.043	5.923	5.395	4.652
360.0	2274	3095	3215	2610	2008	1212	801.8	751.8	733.1	812.9	945.3	1042	1080	1035	898.0	709.9	575.0	435.4	326.4	324.6	346.8	189.5	125.5	105.8	131.2	257.5	827.7	4530	5479	309.0	8.267	3.532	3.437	2.430	2.385	2.172	2.220	2.290	2.368	2.263	2.659	2.921	3.314	3.701	4.672	6.225	7.157	8.665	8.558	8.006	7.427	8.257	7.861	7.228	5.615	4.235	3.590	3.396	3.282	3.448	3.344	3.450	3.788	3.973	4.258	4.628	4.974	4.915	5.348	5.423	5.783	5.714	5.487	5.584	5.254	4.602	4.095
365.0	1895	2560	2689	2202	1726	1066	695.0	648.6	634.1	678.1	792.8	874.4	914.3	866.0	756.6	611.7	492.6	377.9	282.4	245.3	306.0	256.9	131.1	88.00	66.28	81.67	203.6	1328	5564	2946	46.41	4.991	4.313	2.566	2.239	2.133	2.277	1.916	2.203	2.190	2.214	2.307	2.733	3.205	3.923	5.279	5.968	6.953	7.175	6.784	6.390	7.387	6.693	6.178	4.866	3.713	3.247	2.931	2.968	3.064	2.944	2.937	3.205	3.426	3.612	4.019	4.257	4.151	4.467	4.728	4.632	4.877	5.029	4.637	4.423	3.698	3.870
370.0	1556	2015	2136	1828	1468	906.9	586.5	551.7	528.2	567.6	655.1	711.1	743.1	710.8	627.8	515.9	423.2	332.2	253.6	210.0	213.6	254.3	205.2	101.9	57.31	48.59	68.09	315.8	1627	3667	3921	902.6	16.09	3.268	2.776	2.404	2.219	2.030	1.925	2.098	2.047	2.046	2.504	2.811	3.365	4.200	4.608	5.747	5.791	5.667	5.261	6.307	5.880	5.175	4.262	3.017	2.837	2.441	2.535	2.578	2.516	2.468	2.759	2.935	3.069	3.222	3.397	3.632	3.839	3.751	3.984	3.905	3.931	3.677	3.535	3.221	3.163
375.0	1268	1599	1682	1482	1211	761.7	493.9	455.8	439.9	457.2	540.4	571.9	602.1	576.1	511.6	431.7	358.8	287.6	230.3	192.2	171.0	176.4	225.3	172.1	64.29	47.27	43.88	93.22	380.8	876.5	3025	5273	333.5	13.25	3.602	2.662	2.347	2.001	1.770	1.872	1.979	2.037	2.134	2.377	2.714	3.353	3.564	4.698	4.717	4.577	4.066	4.946	5.015	4.245	3.425	2.852	2.361	2.213	2.069	2.156	2.130	2.123	2.144	2.339	2.463	2.586	2.884	2.937	2.972	3.210	3.128	3.371	3.374	3.074	2.857	2.776	2.701
380.0	1008	1274	1355	1232	1024	660.5	444.6	409.8	387.4	403.2	457.7	488.4	509.6	484.2	439.1	371.4	313.1	262.6	212.1	181.0	158.5	145.3	174.5	210.0	106.6	53.46	42.41	47.97	107.1	212.4	824.3	4224	5765	252.5	6.317	3.231	2.598	2.352	1.878	1.850	1.901	1.849	1.996	2.116	2.250	2.862	2.962	3.773	3.939	3.514	3.610	4.221	3.949	3.667	3.120	2.255	2.142	2.053	1.916	1.881	1.936	1.905	2.012	2.007	2.095	2.156	2.462	2.503	2.580	2.665	2.638	2.862	2.698	2.711	2.483	2.402	2.149
385.0	856.7	1093	1157	1047	876.4	587.1	406.3	364.3	338.9	358.1	394.6	425.4	440.6	421.5	384.5	327.2	279.1	238.4	199.7	172.7	151.1	137.3	136.4	180.9	164.0	74.12	46.79	41.24	49.65	66.15	200.2	1279	6067	2446	36.80	4.285	2.788	2.675	2.016	1.745	1.749	1.654	1.750	1.983	2.129	2.443	2.588	3.132	3.340	3.036	3.168	3.661	3.672	3.504	2.778	2.149	2.074	1.979	1.839	1.761	1.703	1.825	1.673	2.011	1.932	2.123	2.279	2.170	2.251	2.169	2.351	2.649	2.483	2.340	2.351	2.161	2.154
390.0	718.0	874.1	928.8	872.9	763.2	534.8	381.2	334.7	307.9	317.4	351.9	375.1	378.6	365.4	328.7	287.4	249.2	216.8	188.2	166.5	148.7	135.0	125.8	131.1	161.5	138.0	70.38	47.76	43.32	39.33	62.99	300.4	1783	3076	3558	732.5	11.58	2.901	2.196	1.895	1.700	1.450	1.580	1.784	1.870	2.179	2.175	2.711	2.647	2.608	2.717	3.178	3.115	2.968	2.442	1.898	1.981	1.808	1.659	1.710	1.619	1.643	1.516	1.694	1.645	1.819	1.946	1.930	1.994	1.955	2.167	2.198	2.071	2.130	2.083	1.930	2.025
395.0	622.0	715.2	774.9	741.0	660.8	490.2	369.4	324.9	289.5	294.5	314.9	333.0	339.9	325.1	289.1	258.3	225.4	200.7	179.3	162.6	145.3	132.9	124.9	116.6	117.8	153.3	134.4	65.80	49.22	40.50	38.79	84.48	411.3	735.2	2900	4129	267.3	11.39	2.607	2.150	1.949	1.665	1.670	1.759	1.580	1.950	1.884	2.320	2.231	2.197	2.241	2.791	2.721	2.626	2.228	1.846	1.864	1.651	1.706	1.532	1.565	1.593	1.555	1.624	1.499	1.608	1.754	1.816	1.604	1.726	2.012	1.835	1.884	1.916	1.890	1.855	1.984
400.0	530.9	635.9	681.7	660.1	599.3	472.1	365.1	316.6	279.0	277.9	298.4	318.1	311.7	296.2	267.5	240.3	213.2	190.7	174.0	156.8	143.7	134.6	127.6	116.1	106.0	122.3	160.8	103.2	57.87	45.98	37.07	40.41	108.8	176.1	794.3	3237	3540	217.1	5.147	2.617	2.020	1.835	1.507	1.619	1.597	1.895	1.710	2.070	2.022	1.967	1.857	2.282	2.495	2.312	2.083	1.962	1.844	1.516	1.751	1.434	1.443	1.452	1.538	1.536	1.562	1.463	1.590	1.592	1.631	1.561	1.789	1.771	1.698	1.848	1.573	1.677	1.801
405.0	503.8	585.5	607.4	602.9	556.2	467.6	363.8	322.7	279.6	271.9	286.6	299.2	297.5	283.2	251.0	228.0	199.2	185.2	167.5	156.2	145.4	136.6	130.3	118.4	108.8	105.7	141.3	145.3	80.59	53.18	41.18	34.75	44.50	53.04	190.0	969.6	3680	2082	32.80	3.642	2.307	1.797	1.665	1.675	1.593	1.863	1.623	1.897	1.890	1.842	1.865	2.150	2.345	2.280	2.137	1.849	1.848	1.598	1.844	1.582	1.511	1.408	1.454	1.432	1.463	1.478	1.527	1.590	1.664	1.614	1.620	1.473	1.541	1.624	1.729	1.461	1.707
410.0	467.3	527.3	550.4	554.2	521.8	452.3	383.0	329.7	278.8	269.7	277.8	286.1	279.0	262.6	236.5	213.9	190.3	175.7	164.3	153.7	145.2	134.9	131.4	123.1	114.2	105.4	111.1	137.6	129.6	76.25	49.59	39.03	36.99	29.46	55.88	227.5	1078	2366	2108	603.7	9.986	2.152	1.772	1.685	1.680	1.719	1.582	1.768	1.779	1.706	1.809	2.234	2.113	2.119	1.993	1.922	1.814	1.803	1.797	1.590	1.553	1.436	1.474	1.411	1.450	1.543	1.400	1.460	1.541	1.521	1.577	1.515	1.434	1.538	1.518	1.484	1.614
415.0	430.5	472.7	499.5	504.5	495.1	450.3	387.6	342.2	277.4	267.7	267.2	268.5	266.7	248.6	221.5	205.4	183.5	170.7	161.0	150.5	141.9	131.0	130.6	123.5	117.6	106.9	102.1	106.4	132.2	118.2	65.48	44.81	39.40	27.41	28.25	62.26	249.4	566.0	1610	2791	236.0	9.420	2.064	1.877	1.720	1.778	1.419	1.731	1.640	1.687	1.593	2.036	1.999	2.013	1.955	1.978	2.068	1.789	1.738	1.687	1.561	1.374	1.373	1.386	1.426	1.359	1.377	1.207	1.599	1.539	1.418	1.462	1.428	1.337	1.375	1.420	1.464
420.0	424.1	434.8	474.6	483.6	488.7	452.8	417.7	358.0	293.0	271.9	260.1	258.3	254.0	235.5	211.9	197.7	180.5	167.3	159.9	150.1	138.4	130.6	127.8	120.7	116.1	108.3	101.3	97.62	109.6	135.1	92.81	51.32	44.03	28.97	23.71	27.34	65.55	134.3	443.3	2082	2004	188.8	4.202	2.231	1.834	1.987	1.517	1.694	1.655	1.637	1.544	1.908	2.035	2.039	2.078	1.952	2.127	1.948	1.769	1.713	1.585	1.440	1.475	1.386	1.218	1.462	1.291	1.463	1.506	1.434	1.315	1.348	1.413	1.446	1.325	1.378	1.464
425.0	427.2	439.2	474.1	490.0	489.3	484.4	450.2	385.2	310.8	272.3	258.9	254.3	247.4	226.5	209.7	194.7	180.5	166.8	161.8	150.3	134.8	127.6	125.5	120.0	116.4	110.3	102.7	97.09	97.77	119.4	118.7	67.37	47.69	32.29	24.96	21.41	25.80	38.48	105.8	612.8	2268	1658	31.18	3.179	2.087	1.951	1.517	1.722	1.639	1.538	1.559	1.934	2.133	2.059	1.965	2.161	2.232	2.019	1.977	1.770	1.727	1.474	1.512	1.430	1.321	1.275	1.294	1.435	1.376	1.346	1.435	1.376	1.520	1.314	1.378	1.471	1.330
430.0	760.5	447.5	464.0	473.9	518.5	533.0	512.2	453.1	349.9	289.4	255.5	246.6	245.5	225.2	206.8	196.5	186.5	174.6	166.9	152.3	134.9	125.8	122.6	119.7	118.1	112.5	106.6	103.0	98.05	99.15	112.2	101.7	66.94	38.95	29.78	23.76	20.71	18.98	30.47	143.1	656.4	1473	1626	542.4	9.742	2.503	1.809	1.886	1.680	1.540	1.598	1.982	2.219	2.208	2.280	2.274	2.335	2.488	2.251	2.157	1.915	1.728	1.560	1.464	1.348	1.258	1.282	1.300	1.294	1.225	1.357	1.283	1.343	1.325	1.420	1.445	1.477
435.0	2060	487.4	457.7	486.3	541.3	592.1	593.3	536.4	401.6	311.9	257.4	244.4	238.8	225.4	208.5	200.7	195.4	185.0	175.3	158.8	135.8	124.2	120.8	119.0	117.0	115.0	110.0	109.0	104.2	98.83	94.73	104.5	99.66	47.99	35.95	28.06	21.72	17.16	15.40	38.66	151.8	345.4	1088	2636	230.0	12.43	2.232	2.142	1.853	1.618	1.529	2.203	2.256	2.283	2.596	2.395	2.647	2.746	2.764	2.584	2.151	1.837	1.626	1.457	1.233	1.246	1.218	1.252	1.115	1.288	1.270	1.193	1.408	1.384	1.468	1.413	1.503
440.0	3626	732.5	467.0	507.5	580.3	643.8	668.1	605.9	434.8	325.1	257.8	242.2	238.8	226.4	208.4	209.9	199.2	191.2	181.9	163.4	136.3	121.1	117.1	117.3	116.5	116.4	113.6	110.0	106.9	101.2	92.41	93.00	111.2	71.62	42.91	30.08	23.94	17.82	13.75	15.97	39.25	81.84	287.0	1947	1905	203.2	5.976	2.616	2.106	1.782	1.590	2.338	2.468	2.459	2.575	2.824	3.048	3.075	3.027	2.726	2.379	1.968	1.716	1.645	1.323	1.310	1.155	1.165	1.108	1.345	1.247	1.405	1.355	1.507	1.459	1.500	1.428
445.0	3962	1444	471.0	519.7	603.1	672.1	722.3	651.1	467.3	329.9	251.8	235.8	227.9	222.7	213.0	211.3	204.9	194.4	188.1	168.0	136.6	116.9	113.7	113.7	115.0	115.1	113.4	111.1	109.9	104.0	93.75	86.56	100.4	90.99	54.52	34.33	26.51	19.46	14.32	12.44	15.06	23.44	68.55	560.1	2032	1804	28.02	4.069	2.349	1.929	1.815	2.299	2.602	2.590	2.926	2.926	3.223	3.325	3.452	2.832	2.508	2.059	1.712	1.590	1.301	1.195	1.170	1.264	1.246	1.280	1.341	1.271	1.260	1.505	1.347	1.423	1.501
450.0	2533	3113	748.2	523.4	622.7	711.1	764.2	694.0	495.0	332.9	241.7	222.8	218.0	216.4	211.0	209.3	205.2	198.3	190.7	167.9	133.7	112.2	107.7	108.1	111.0	111.2	111.5	111.2	110.7	104.8	95.67	85.82	85.01	81.81	72.84	45.07	29.12	20.88	14.96	12.51	10.80	10.76	19.84	129.7	566.5	1636	1627	594.9	10.32	2.218	1.952	2.389	2.698	2.704	2.994	3.182	3.338	3.605	3.418	3.163	2.769	2.280	1.918	1.576	1.276	1.226	1.225	1.224	1.151	1.250	1.326	1.309	1.350	1.534	1.437	1.523	1.535
455.0	1003	3505	1830	534.3	619.4	727.6	791.8	709.5	497.1	326.5	229.2	209.9	208.6	208.6	199.0	202.9	201.8	193.7	188.0	164.4	126.4	103.9	98.37	100.0	104.9	104.8	107.8	108.8	108.3	104.7	94.89	84.64	79.42	66.08	70.00	60.64	36.62	22.59	16.61	12.75	10.81	9.551	9.599	33.35	130.5	378.7	889.4	2283	200.5	13.19	2.176	2.536	2.977	2.909	3.074	3.293	3.421	3.534	3.539	3.267	2.696	2.353	1.996	1.496	1.284	1.195	1.189	1.209	1.184	1.233	1.230	1.327	1.458	1.289	1.514	1.380	1.498
460.0	529.7	2360	2793	726.4	612.3	710.3	778.9	705.4	482.3	319.7	222.1	197.1	196.6	194.4	192.5	195.0	194.1	188.6	179.1	154.7	118.8	97.19	91.32	93.53	97.91	98.89	102.7	103.8	103.6	102.0	94.00	83.55	77.13	60.90	57.65	63.44	46.61	25.21	17.32	13.37	11.00	9.288	7.828	12.12	33.11	88.34	221.3	1377	1629	170.5	7.874	2.807	3.108	3.145	3.031	3.062	3.415	3.938	3.409	3.106	2.801	2.300	1.838	1.499	1.188	1.219	1.070	1.060	1.145	1.128	1.264	1.259	1.292	1.391	1.450	1.355	1.566
465.0	446.4	1151	3005	1380	596.2	686.8	752.9	671.7	480.5	304.4	204.5	185.7	185.2	182.4	183.0	189.6	184.1	180.0	171.9	148.0	112.2	90.75	86.52	87.52	92.13	94.18	97.82	99.06	98.58	97.00	90.25	80.50	74.16	57.55	50.81	53.02	53.12	30.67	18.56	14.05	11.05	9.414	7.803	7.509	11.53	23.50	53.06	364.2	1466	1383	140.6	5.914	3.212	2.921	3.158	3.192	3.532	3.793	3.508	2.936	2.722	2.152	1.684	1.449	1.168	1.063	0.965	1.126	0.986	1.065	1.134	1.177	1.224	1.165	1.310	1.169	1.474
470.0	442.9	579.4	1793	2637	789.8	639.6	699.8	627.8	444.9	276.0	183.1	165.4	165.5	163.5	164.7	170.1	169.7	164.3	155.9	134.4	101.8	81.25	77.36	78.33	82.75	84.10	86.93	88.09	89.56	89.05	83.42	74.47	68.73	53.82	46.15	41.05	43.37	38.87	23.57	14.60	11.25	9.264	7.862	7.041	6.948	8.874	15.07	84.58	383.3	961.0	1276	568.7	13.41	3.166	3.089	3.075	3.231	3.505	3.125	2.875	2.550	2.101	1.633	1.301	1.221	1.102	0.963	0.977	0.890	1.015	1.042	1.139	1.138	1.128	1.085	1.229	1.319
475.0	465.0	407.1	725.6	2667	1710	601.5	632.8	560.1	395.1	253.6	163.7	148.5	146.6	150.4	148.6	149.7	151.1	146.4	139.4	118.7	89.86	71.27	67.73	69.26	72.53	74.37	77.01	78.01	79.76	80.04	75.59	68.33	62.57	49.16	41.38	34.67	31.87	33.86	31.37	18.22	11.60	8.956	7.799	6.700	6.146	5.883	6.288	21.70	87.99	218.5	535.8	1416	1132	18.41	3.335	2.933	3.111	3.104	2.968	2.778	2.278	1.890	1.544	1.230	1.003	0.929	0.899	0.919	0.863	0.918	0.964	0.902	0.996	1.086	1.010	1.137	1.189
480.0	402.8	394.3	391.1	1681	2627	742.7	573.7	514.0	365.6	226.7	149.3	133.4	135.4	133.0	136.7	135.9	138.2	132.2	127.8	109.0	81.97	64.98	59.84	63.62	65.13	66.84	68.58	72.31	73.80	72.58	69.57	62.14	57.61	45.80	38.48	31.67	27.23	26.04	31.04	23.59	12.97	9.130	7.591	5.983	5.746	5.487	4.612	7.756	22.11	51.03	127.5	650.6	2654	209.9	15.12	2.858	2.879	3.112	2.721	2.647	2.099	1.788	1.425	1.082	0.991	0.922	0.899	0.772	0.915	0.869	0.843	0.997	1.039	0.977	0.966	0.959	1.188
485.0	354.9	406.7	302.1	833.3	2733	1340	536.3	467.7	340.1	204.3	137.0	124.9	122.7	123.6	124.5	125.5	127.2	122.2	117.8	99.04	75.39	59.59	55.99	57.43	59.84	62.38	63.12	66.24	68.34	68.29	63.58	58.40	54.11	43.22	37.00	29.70	24.90	21.34	25.04	26.62	17.16	9.416	7.639	6.835	5.525	5.445	4.538	4.769	7.526	13.74	30.76	161.5	1634	1647	197.0	7.938	2.993	3.020	2.808	2.512	1.985	1.730	1.292	1.101	0.876	0.893	0.802	0.822	0.778	0.799	0.874	0.884	0.915	0.871	0.948	0.997	1.104
490.0	286.8	398.6	287.8	413.2	1651	2506	733.2	420.9	298.0	185.3	124.8	111.8	110.0	110.8	109.2	112.9	111.8	108.3	104.3	89.22	65.99	53.32	49.64	50.82	53.12	55.60	57.52	58.76	60.36	60.91	57.28	52.76	48.66	39.28	33.26	27.37	23.10	19.60	18.49	22.26	22.01	13.33	8.135	6.728	5.889	5.186	4.841	4.453	4.435	5.341	8.957	38.30	404.0	886.5	1332	624.5	16.23	3.513	2.673	2.284	1.941	1.545	1.169	0.971	0.772	0.773	0.834	0.691	0.777	0.765	0.767	0.805	0.826	0.810	0.854	0.918	0.947
495.0	229.4	342.1	326.4	285.8	654.2	2448	1783	387.3	255.6	165.9	110.0	99.08	98.52	94.49	95.20	96.68	97.99	95.08	89.92	76.83	57.90	46.68	43.42	45.42	46.95	48.12	50.50	51.96	52.90	53.85	50.46	47.03	42.53	36.16	30.45	25.21	21.21	17.67	15.15	15.41	19.33	18.55	10.81	6.748	5.679	5.342	4.630	4.509	4.243	3.526	4.263	10.80	92.51	200.8	487.8	1316	926.7	23.58	2.773	2.235	1.748	1.310	1.156	0.936	0.780	0.803	0.679	0.678	0.689	0.684	0.833	0.701	0.772	0.737	0.732	0.821	0.877
500.0	186.1	256.0	344.0	245.3	354.2	1531	2856	485.9	228.3	149.6	101.3	90.05	86.55	85.19	84.67	85.29	85.94	85.01	80.42	68.55	51.38	42.12	39.35	40.19	41.74	42.26	45.09	46.73	47.73	47.50	45.23	41.83	38.71	31.88	27.38	23.26	19.65	16.13	13.70	12.32	14.58	18.82	14.51	7.853	5.928	5.315	4.626	4.444	4.219	3.466	3.083	4.700	22.86	47.09	114.5	559.5	1530	910.4	17.00	2.477	1.853	1.280	1.025	0.953	0.852	0.843	0.669	0.637	0.662	0.643	0.656	0.623	0.640	0.634	0.591	0.749	0.735
505.0	175.1	200.2	303.0	257.1	267.5	745.8	3100	1005	208.5	135.0	92.12	82.04	77.64	76.47	76.15	76.35	77.44	75.37	69.87	61.10	45.54	35.95	34.32	36.36	37.09	38.12	40.97	41.84	44.06	42.80	40.63	36.95	34.93	29.72	24.64	20.48	18.64	15.22	12.43	11.78	10.77	15.15	17.33	10.37	6.237	5.172	4.551	4.129	3.894	3.800	2.994	3.152	7.311	12.91	28.21	134.8	760.6	1908	216.4	10.17	1.928	1.242	1.015	0.810	0.767	0.840	0.675	0.554	0.656	0.698	0.659	0.662	0.663	0.717	0.584	0.650	0.772
510.0	146.9	162.7	231.2	269.0	225.3	349.5	1837	2152	376.7	116.0	83.44	72.67	67.66	65.94	66.08	66.75	66.15	62.76	59.53	51.94	39.59	32.23	30.64	31.62	32.24	33.09	35.00	35.56	36.90	35.99	35.70	32.55	30.45	25.50	22.02	18.83	16.00	13.70	11.48	10.62	9.174	10.27	13.79	13.63	8.612	5.314	4.464	4.121	3.684	3.497	3.436	3.087	3.911	5.055	8.562	32.26	181.5	832.8	1040	642.2	16.10	1.698	1.110	0.843	0.800	0.711	0.597	0.620	0.611	0.617	0.526	0.613	0.587	0.623	0.589	0.607	0.624
515.0	119.9	134.2	160.3	250.7	225.6	230.6	647.9	2312	1379	114.8	74.34	61.51	60.21	59.34	56.79	55.88	55.47	53.02	50.35	43.26	32.35	27.04	26.30	26.33	27.26	28.65	29.57	29.76	31.04	30.64	30.09	27.66	25.86	21.50	19.04	16.74	14.41	12.48	10.24	9.055	8.329	8.108	8.964	12.88	11.72	7.427	4.506	4.122	3.418	3.284	3.317	3.317	3.154	3.132	3.898	9.278	42.45	187.9	335.7	1245	700.3	21.86	1.264	0.892	0.781	0.719	0.647	0.491	0.545	0.519	0.469	0.531	0.629	0.488	0.613	0.576	0.490
520.0	115.8	116.5	124.4	202.7	228.8	186.8	290.1	1466	2425	225.6	66.33	55.31	52.41	51.34	51.39	50.05	47.15	47.26	43.89	37.97	29.31	23.67	23.37	24.14	24.23	24.74	25.52	25.82	26.94	27.26	26.88	24.21	22.84	19.77	17.11	14.77	13.07	11.13	9.481	8.441	7.578	6.994	6.901	9.253	12.05	9.280	5.057	4.065	3.256	3.148	2.904	3.405	3.455	2.736	2.815	4.016	11.40	43.80	77.79	515.6	1074	231.2	15.77	0.904	0.823	0.616	0.589	0.532	0.540	0.471	0.519	0.472	0.515	0.534	0.557	0.558	0.547
525.0	107.4	97.92	101.5	158.7	238.6	165.2	196.7	640.8	3056	834.8	61.34	51.80	48.26	45.25	43.79	42.90	41.30	41.33	38.51	32.76	26.46	21.28	20.63	21.10	21.56	22.39	22.27	23.36	24.14	24.21	23.26	21.80	19.78	17.63	15.09	13.43	11.83	10.11	8.508	7.821	7.254	6.441	6.105	6.590	10.16	10.44	6.499	3.862	3.451	2.893	2.677	2.839	3.344	2.815	2.692	2.758	4.163	11.50	19.06	122.9	506.4	901.0	203.7	6.437	0.895	0.612	0.510	0.521	0.469	0.475	0.443	0.536	0.533	0.528	0.519	0.535	0.551
530.0	90.39	79.97	87.90	106.6	205.9	176.7	148.5	246.4	1800	2365	162.3	46.13	43.14	39.80	37.38	36.90	36.57	34.32	31.94	27.72	22.48	18.57	17.81	18.08	18.03	18.91	19.20	20.09	20.51	20.64	20.12	18.93	17.32	15.26	13.31	11.86	10.42	9.052	7.851	6.973	6.597	5.838	5.369	5.259	6.535	9.218	8.931	5.145	3.341	2.804	2.569	2.347	2.774	2.912	2.887	2.199	2.570	4.093	5.672	28.82	119.9	393.4	610.7	362.3	15.28	0.970	0.619	0.531	0.466	0.424	0.488	0.455	0.458	0.484	0.526	0.430	0.429
535.0	72.58	78.80	71.24	79.29	138.1	199.9	125.6	130.1	545.8	2837	1283	49.98	37.51	34.60	32.79	31.07	29.97	28.40	26.67	23.40	19.17	15.59	14.72	15.04	15.35	15.36	15.76	16.41	17.27	17.39	17.17	16.13	14.53	13.15	11.37	10.35	8.994	7.646	6.690	6.325	5.850	5.143	4.834	4.258	4.736	5.765	8.183	7.264	4.142	2.811	2.426	2.230	2.549	2.267	2.739	2.295	2.048	2.311	2.513	7.691	27.78	88.82	184.5	583.8	496.3	21.18	0.844	0.593	0.527	0.503	0.479	0.388	0.395	0.434	0.471	0.441	0.429
540.0	60.63	62.90	59.48	68.97	88.05	194.3	128.9	95.43	179.5	1756	2658	145.8	33.21	30.14	29.55	27.99	26.28	23.81	22.76	19.87	16.43	13.34	13.00	12.90	12.80	13.56	14.09	14.14	15.44	15.30	14.70	13.60	12.62	10.95	9.916	9.046	8.022	6.967	6.091	5.868	5.439	4.624	4.472	4.105	3.846	4.177	5.753	7.476	5.278	2.961	2.243	2.268	2.276	1.968	2.361	2.410	2.115	1.865	1.697	2.843	7.098	20.80	42.57	219.7	681.4	233.7	13.31	0.759	0.569	0.506	0.441	0.385	0.425	0.379	0.365	0.443	0.340
545.0	59.56	53.53	53.58	57.80	67.71	155.8	147.8	79.16	88.77	649.5	3216	658.1	31.10	26.96	25.43	24.40	22.16	21.16	19.39	17.96	13.94	12.33	11.66	11.64	11.56	12.23	12.57	12.36	12.79	13.60	12.80	11.95	11.30	9.992	9.021	7.770	7.313	6.563	5.532	5.063	4.441	4.615	4.320	3.828	3.582	3.565	4.153	6.320	5.918	3.499	2.320	2.114	2.055	1.814	1.981	2.323	2.471	1.735	1.478	1.839	2.425	5.485	10.31	51.58	300.3	754.5	182.2	6.345	0.698	0.519	0.437	0.432	0.445	0.367	0.315	0.332	0.448
550.0	52.11	55.13	48.34	46.28	53.56	95.89	162.7	81.26	57.74	185.0	1767	2137	103.6	24.42	20.90	20.49	18.67	17.59	15.77	14.99	11.46	10.17	9.830	9.774	9.547	10.36	10.56	10.58	10.31	10.90	10.54	9.959	9.370	8.258	7.431	6.616	6.111	5.489	4.779	4.658	4.097	3.835	3.591	3.232	3.149	3.217	3.030	3.994	5.298	4.652	2.871	1.975	1.786	1.732	1.724	1.688	2.217	2.036	1.345	1.324	1.425	1.981	3.009	12.22	70.37	322.8	438.2	245.0	14.37	0.758	0.476	0.420	0.437	0.370	0.311	0.337	0.364
555.0	44.17	44.68	39.56	40.07	42.62	58.61	123.1	105.7	45.17	68.75	482.2	2910	941.6	25.72	17.36	16.82	15.23	13.88	13.32	11.60	9.552	8.732	7.468	8.150	8.208	8.007	8.396	8.097	8.185	8.787	8.156	8.415	7.654	6.698	6.189	5.265	4.809	4.491	4.233	3.682	3.273	3.144	3.009	2.822	2.650	2.725	2.576	2.699	3.371	4.405	3.732	2.143	1.719	1.469	1.485	1.428	1.552	1.693	1.817	1.202	0.978	1.145	1.242	3.261	16.32	72.71	129.6	424.9	243.8	18.10	0.720	0.473	0.449	0.354	0.341	0.337	0.384
560.0	43.35	43.12	33.83	33.91	33.84	43.81	85.86	124.0	46.44	37.61	131.6	1845	2041	73.59	15.58	14.96	12.91	11.90	10.94	9.720	8.114	7.015	6.404	6.795	6.989	6.707	7.121	7.337	7.502	7.724	6.850	6.765	6.443	5.506	5.070	4.484	4.198	3.921	3.672	3.388	2.874	2.862	2.675	2.455	2.477	2.180	2.245	2.100	2.290	3.240	3.682	2.701	1.572	1.426	1.328	1.234	1.270	1.322	1.703	1.288	0.925	0.777	0.799	1.300	4.168	16.95	29.86	156.9	467.9	202.1	11.28	0.590	0.400	0.385	0.332	0.300	0.414
565.0	41.73	40.34	31.54	29.10	30.95	34.69	53.56	127.2	56.61	30.77	48.96	638.5	2476	331.6	15.01	12.41	11.00	10.93	9.252	8.873	7.161	6.122	5.479	5.314	5.657	5.869	5.675	6.445	6.096	6.545	6.117	5.787	5.347	4.621	4.454	3.941	3.562	3.259	3.310	2.903	2.633	2.335	2.366	2.170	2.180	1.902	1.876	1.790	1.696	2.174	3.194	3.201	1.729	1.332	1.250	1.182	1.079	1.147	1.349	1.570	0.971	0.735	0.712	0.791	1.418	4.317	7.211	36.66	204.0	407.4	152.8	4.536	0.462	0.376	0.382	0.317	0.334
570.0	38.39	39.04	30.27	27.45	25.42	28.37	33.76	86.40	87.95	29.13	28.55	167.2	1371	1378	54.20	10.93	9.731	8.746	7.790	7.107	5.904	4.971	4.702	4.680	4.651	4.687	4.910	4.881	5.025	5.434	4.928	4.792	4.495	4.073	3.611	3.561	3.022	2.815	2.766	2.414	2.198	2.059	1.961	1.757	1.895	1.670	1.646	1.609	1.489	1.502	2.032	2.592	2.300	1.426	1.086	1.043	0.926	0.858	0.935	1.299	1.286	0.895	0.601	0.598	0.781	1.414	2.041	8.718	47.77	164.6	312.4	138.0	12.77	0.573	0.339	0.320	0.338
575.0	36.39	37.05	27.99	22.81	20.73	22.80	24.94	44.92	100.7	43.53	21.77	54.20	391.8	1857	433.1	11.35	8.212	7.465	6.389	5.421	4.932	4.294	3.917	3.765	3.982	3.706	3.984	3.929	4.326	4.239	3.924	4.203	4.041	3.431	3.122	2.998	2.667	2.329	2.173	2.008	1.861	1.708	1.701	1.500	1.505	1.556	1.414	1.350	1.256	1.217	1.170	1.652	2.194	1.740	1.142	0.932	0.825	0.831	0.713	0.900	0.979	1.205	0.702	0.620	0.573	0.732	0.824	2.312	11.05	37.16	92.65	263.6	227.4	15.66	0.399	0.376	0.314
580.0	43.26	37.43	27.60	19.24	19.60	19.88	20.70	28.33	86.10	65.91	20.68	26.62	107.5	1162	971.0	34.61	7.421	6.644	5.474	4.660	4.356	3.664	2.981	3.243	3.407	3.405	3.521	3.401	3.492	3.695	3.375	3.346	3.212	3.062	2.704	2.368	2.167	2.016	1.847	1.761	1.707	1.556	1.543	1.420	1.390	1.227	1.283	1.161	1.038	1.053	0.927	1.117	1.914	1.969	1.221	0.901	0.682	0.686	0.627	0.690	0.680	0.998	0.968	0.572	0.487	0.547	0.525	0.881	2.855	8.721	21.30	98.71	359.3	167.5	6.453	0.421	0.300
585.0	41.04	40.08	24.03	17.53	19.03	16.77	16.96	19.53	59.15	87.13	26.18	20.77	38.22	420.3	1463	105.1	7.874	5.713	4.863	3.822	3.539	3.268	3.021	2.931	2.868	2.997	3.033	3.097	3.076	3.240	3.025	2.923	2.918	2.545	2.204	2.145	2.009	1.942	1.549	1.427	1.446	1.424	1.402	1.208	1.223	1.130	1.141	1.058	0.929	0.798	0.831	0.903	1.333	1.838	1.523	0.910	0.553	0.710	0.638	0.524	0.607	0.712	1.131	0.853	0.563	0.504	0.456	0.567	1.008	2.341	5.205	23.19	158.9	313.4	33.74	2.478	0.350
590.0	37.22	33.03	25.53	20.26	18.51	15.87	18.21	17.49	32.05	83.69	47.04	20.47	22.67	111.3	877.3	960.7	36.33	5.619	4.034	3.651	3.095	2.797	2.464	2.372	2.446	2.465	2.510	2.411	2.461	2.698	2.447	2.389	2.415	2.274	1.864	1.948	1.693	1.522	1.405	1.261	1.177	1.226	1.165	1.077	1.040	1.008	0.839	0.893	0.842	0.712	0.673	0.753	0.920	1.265	1.421	1.211	0.735	0.636	0.536	0.534	0.524	0.505	0.702	0.877	0.739	0.475	0.429	0.447	0.573	0.814	1.443	5.514	37.17	126.6	178.3	110.5	10.92
595.0	36.13	30.43	26.10	21.05	16.22	16.35	17.04	17.98	22.04	59.09	74.50	26.68	21.52	36.80	243.1	1319	275.5	5.561	3.462	2.880	2.573	2.281	2.031	2.299	2.210	2.233	2.105	2.064	2.099	2.176	2.310	2.097	2.207	1.813	1.660	1.554	1.536	1.225	1.166	1.139	1.011	0.959	0.865	0.912	0.873	0.844	0.752	0.768	0.733	0.668	0.625	0.567	0.666	0.754	1.027	1.284	0.956	0.680	0.421	0.568	0.493	0.456	0.432	0.622	0.779	0.784	0.419	0.442	0.511	0.461	0.612	1.530	8.572	28.59	52.77	179.6	158.4
600.0	33.04	35.53	28.11	25.39	20.21	17.38	17.54	20.66	22.34	40.66	87.40	39.21	26.21	25.19	68.86	836.2	689.8	15.62	3.419	2.672	2.361	2.255	1.804	1.866	1.742	1.792	1.820	1.829	1.742	1.899	1.837	1.948	1.746	1.479	1.365	1.410	1.327	1.073	1.132	0.988	0.895	0.855	0.855	0.811	0.796	0.738	0.729	0.729	0.643	0.567	0.649	0.637	0.544	0.603	0.749	1.159	1.151	0.840	0.481	0.472	0.532	0.450	0.413	0.489	0.650	0.819	0.511	0.393	0.421	0.412	0.449	0.634	2.217	6.656	12.18	65.28	231.9
605.0	34.63	45.56	34.97	27.14	22.17	22.35	23.17	25.63	28.69	42.27	88.16	68.00	36.76	29.43	35.06	319.6	1161	68.85	3.577	2.654	2.154	1.885	1.845	1.833	1.522	1.607	1.738	1.550	1.751	1.619	1.775	1.574	1.365	1.246	1.412	1.219	1.227	1.018	0.903	0.942	0.790	0.819	0.777	0.762	0.755	0.719	0.670	0.604	0.578	0.543	0.518	0.568	0.605	0.535	0.512	0.890	1.077	0.952	0.564	0.460	0.508	0.465	0.456	0.562	0.530	0.807	0.755	0.425	0.424	0.372	0.499	0.436	0.823	1.761	3.030	15.35	104.8
610.0	58.70	55.72	44.45	33.91	30.17	31.50	34.04	38.51	46.44	61.32	90.00	116.0	69.73	50.48	44.10	106.1	891.6	501.9	14.04	2.562	1.852	1.693	1.513	1.637	1.383	1.516	1.476	1.357	1.456	1.536	1.447	1.472	1.339	1.234	1.196	1.206	1.127	1.101	0.850	0.858	0.700	0.651	0.651	0.695	0.657	0.672	0.603	0.625	0.568	0.539	0.456	0.500	0.535	0.533	0.441	0.657	0.908	1.004	0.746	0.554	0.530	0.480	0.558	0.608	0.659	0.668	0.900	0.831	0.681	0.522	0.578	0.468	0.600	0.806	1.089	3.793	24.77
615.0	63.82	62.04	58.02	38.07	34.04	36.83	38.40	47.41	55.95	75.91	92.40	127.7	99.19	62.59	52.63	55.98	279.0	786.5	73.27	2.770	1.796	1.552	1.364	1.463	1.115	1.245	1.269	1.299	1.275	1.240	1.166	1.286	1.208	1.114	1.133	1.057	0.957	1.048	0.940	0.829	0.670	0.638	0.620	0.590	0.541	0.530	0.554	0.640	0.592	0.510	0.508	0.426	0.484	0.400	0.424	0.474	0.690	0.888	0.787	0.788	0.568	0.598	0.571	0.628	0.624	0.657	0.777	0.860	0.881	0.646	0.614	0.494	0.580	0.618	0.672	1.224	5.853
620.0	69.85	72.06	60.98	43.37	34.52	38.24	42.78	48.81	58.75	73.41	87.39	113.7	114.7	70.35	55.73	44.74	92.85	557.0	359.1	5.176	1.969	1.448	1.340	1.214	1.066	1.110	0.984	1.175	1.034	1.049	1.168	1.124	1.120	1.072	0.952	0.873	0.840	0.868	0.779	0.627	0.617	0.624	0.630	0.556	0.643	0.550	0.553	0.528	0.544	0.475	0.476	0.379	0.487	0.380	0.403	0.506	0.535	0.704	0.846	0.838	0.586	0.562	0.559	0.541	0.611	0.602	0.561	0.722	0.916	0.904	0.666	0.557	0.582	0.586	0.470	0.681	1.639
625.0	77.33	76.78	61.44	44.28	34.96	38.36	42.23	50.54	54.06	71.84	82.46	97.73	122.7	76.03	56.98	41.78	49.32	234.8	567.1	36.08	1.928	1.505	1.265	0.919	1.094	1.064	1.165	0.973	0.979	0.987	1.044	0.962	1.039	0.854	0.732	0.781	0.688	0.802	0.739	0.735	0.511	0.545	0.524	0.527	0.537	0.550	0.517	0.505	0.501	0.530	0.462	0.408	0.464	0.406	0.391	0.438	0.456	0.586	0.715	0.777	0.650	0.506	0.512	0.532	0.685	0.566	0.568	0.629	0.956	0.918	0.701	0.540	0.493	0.608	0.464	0.588	0.736
630.0	72.57	80.59	68.63	46.70	39.80	39.16	46.95	52.99	55.00	71.21	80.62	91.48	113.6	91.93	59.25	41.48	38.22	73.53	401.5	274.3	6.396	1.382	1.177	1.143	0.995	0.969	1.018	0.825	0.883	0.903	0.832	0.748	0.792	0.737	0.669	0.701	0.649	0.603	0.571	0.708	0.608	0.528	0.488	0.468	0.464	0.506	0.505	0.478	0.524	0.454	0.392	0.398	0.448	0.380	0.354	0.449	0.424	0.444	0.585	0.682	0.605	0.566	0.537	0.527	0.612	0.592	0.581	0.620	0.745	0.800	0.828	0.624	0.511	0.567	0.505	0.485	0.493
635.0	85.32	95.41	78.41	53.34	42.40	40.06	50.47	52.69	54.50	65.90	83.43	89.18	99.82	104.3	64.30	44.48	37.43	31.79	121.0	442.2	55.85	1.388	1.039	1.076	0.881	0.811	0.857	0.724	0.787	0.745	0.690	0.657	0.686	0.645	0.565	0.641	0.593	0.526	0.424	0.508	0.602	0.569	0.480	0.475	0.449	0.418	0.463	0.598	0.469	0.408	0.349	0.372	0.429	0.334	0.427	0.394	0.426	0.465	0.533	0.613	0.665	0.593	0.531	0.573	0.652	0.528	0.573	0.591	0.639	0.644	0.833	0.816	0.606	0.517	0.482	0.536	0.391
640.0	90.15	101.9	83.67	56.18	42.54	43.04	49.21	53.48	58.31	66.49	83.80	89.10	91.23	103.0	72.09	45.79	36.71	22.34	33.85	321.2	267.4	2.952	1.110	0.996	0.718	0.884	0.771	0.709	0.732	0.771	0.650	0.659	0.602	0.567	0.581	0.493	0.495	0.509	0.345	0.436	0.554	0.561	0.439	0.373	0.466	0.441	0.526	0.585	0.491	0.442	0.327	0.394	0.365	0.329	0.401	0.330	0.414	0.528	0.499	0.559	0.570	0.631	0.628	0.539	0.572	0.511	0.624	0.579	0.644	0.575	0.652	0.806	0.777	0.567	0.442	0.478	0.427
645.0	113.1	132.7	102.2	61.53	41.74	41.77	49.11	52.16	59.25	66.54	81.53	90.61	90.01	94.02	79.14	45.62	36.22	20.31	13.23	133.0	458.7	20.72	1.111	1.007	0.754	0.789	0.790	0.681	0.667	0.688	0.678	0.691	0.652	0.574	0.547	0.449	0.424	0.536	0.440	0.409	0.412	0.525	0.516	0.385	0.447	0.505	0.536	0.577	0.559	0.397	0.306	0.371	0.342	0.359	0.360	0.315	0.428	0.490	0.438	0.464	0.523	0.583	0.561	0.515	0.557	0.556	0.592	0.553	0.593	0.672	0.636	0.727	0.761	0.596	0.456	0.470	0.424
650.0	138.9	161.5	119.6	65.49	42.17	42.69	48.81	52.46	54.50	68.62	76.13	89.29	89.62	85.04	81.61	46.73	34.05	19.63	8.385	39.00	443.1	63.88	1.406	0.983	0.855	0.760	0.842	0.662	0.787	0.632	0.562	0.628	0.645	0.552	0.545	0.449	0.529	0.459	0.431	0.384	0.420	0.530	0.675	0.479	0.467	0.587	0.548	0.723	0.567	0.445	0.362	0.366	0.358	0.352	0.359	0.274	0.423	0.450	0.423	0.515	0.369	0.501	0.585	0.549	0.508	0.571	0.564	0.587	0.520	0.619	0.657	0.585	0.647	0.750	0.602	0.521	0.418
