Sample:	'1
File name:	2025.7.15 16.00 2±¶.FD3
Run date:	'10:12:14, 07/17/2025
Operator:	Administrator
Comment:	'

Instrument
Model:	F-2700 FL Spectrophotometer
Serial number:	23B8-004
ROM Version:	4J14000 07

Instrument parameters
Measurement type:	3-D scan
Data mode:	Fluorescence
EX  Start WL:	220.0 nm
EX  End WL:	600.0 nm
EX Sampling interval:	5.0 nm
EM  Start WL:	230.0 nm
EM  End WL:	650.0 nm
EM Sampling interval:	5.0 nm
Scan speed:	12000 nm/min
EX Slit:	5.0 nm
EM Slit:	5.0 nm
PMT Voltage:	700 V
Response:	Auto 
Corrected spectra:	Off
Contour interval:	50.000

Peak integration
Integration method:	Rectangular
Sensitivity:	1
Threshold:	1.000

Peaks
No.	ApexEX/EM(nm)	Height(Data)
1	230.0/345.0	5107
2	230.0/625.0	28.40
3	255.0/280.0	630.7
4	260.0/290.0	679.1
5	260.0/570.0	176.1
6	265.0/295.0	950.7
7	265.0/585.0	151.4
8	270.0/600.0	132.0
9	275.0/415.0	4776
10	275.0/435.0	4717
11	275.0/615.0	137.9
12	280.0/340.0	3044
13	280.0/625.0	123.5
14	285.0/640.0	104.1
15	335.0/415.0	2441
16	335.0/430.0	2382
17	475.0/345.0	14.87
18	500.0/440.0	15.07
19	505.0/275.0	2.438
20	510.0/280.0	2.635
21	520.0/285.0	2.812
22	535.0/270.0	63.68
23	540.0/420.0	12.16
24	560.0/410.0	12.68
25	565.0/340.0	11.59
26	565.0/415.0	12.59

Data points
	220.0	225.0	230.0	235.0	240.0	245.0	250.0	255.0	260.0	265.0	270.0	275.0	280.0	285.0	290.0	295.0	300.0	305.0	310.0	315.0	320.0	325.0	330.0	335.0	340.0	345.0	350.0	355.0	360.0	365.0	370.0	375.0	380.0	385.0	390.0	395.0	400.0	405.0	410.0	415.0	420.0	425.0	430.0	435.0	440.0	445.0	450.0	455.0	460.0	465.0	470.0	475.0	480.0	485.0	490.0	495.0	500.0	505.0	510.0	515.0	520.0	525.0	530.0	535.0	540.0	545.0	550.0	555.0	560.0	565.0	570.0	575.0	580.0	585.0	590.0	595.0	600.0
230.0	-23.44	1690	4050	1316	28.83	-6.140	-5.626	-3.418	-2.717	-2.121	-1.848	-1.745	-0.531	-0.913	-0.380	-0.434	-0.145	-0.154	-0.305	-0.361	-0.122	-0.043	-0.192	-0.092	-0.081	-0.151	-0.164	-0.217	-0.343	-0.312	-0.536	-0.413	-0.438	-0.355	-0.129	-0.432	-0.451	-0.480	-0.528	-0.549	-0.508	-0.523	-0.461	-0.502	-0.537	-0.532	1.130	6.689	13.44	8.485	3.336	-0.052	-0.504	-0.554	-0.605	-0.561	-0.606	-0.613	-0.621	-0.657	-0.664	-0.693	-0.679	-0.713	-0.703	-0.719	-0.698	-0.744	-0.769	-0.748	-0.774	-0.778	-0.797	-0.816	-0.816	-0.849	-0.862
235.0	-10.24	428.1	2768	4487	612.4	62.58	-4.100	-1.422	-1.813	-1.298	-1.985	-1.369	-0.065	-0.788	-0.198	-0.540	0.056	0.007	-0.349	-0.417	0.002	-0.009	0.159	0.034	-0.102	-0.012	0.033	-0.289	-0.341	-0.462	-0.363	-0.500	-0.357	-0.320	-0.109	-0.401	-0.387	-0.424	-0.469	-0.528	-0.468	-0.542	-0.530	-0.367	-0.436	-0.522	-0.072	1.305	5.326	9.661	16.07	14.46	5.559	0.432	-0.567	-0.498	-0.547	-0.621	-0.640	-0.619	-0.670	-0.669	-0.671	-0.657	-0.694	-0.698	-0.715	-0.724	-0.724	-0.769	-0.802	-0.734	-0.795	-0.825	-0.828	-0.794	-0.856
240.0	43.48	128.1	834.6	4169	4768	498.8	28.06	-0.644	1.595	-1.209	-1.353	-0.537	0.163	-0.340	0.290	-0.288	-0.003	0.026	0.126	-0.327	0.000	0.044	-0.080	-0.058	0.261	-0.021	0.132	-0.210	-0.362	-0.374	-0.422	-0.518	-0.309	-0.333	-0.192	-0.398	-0.430	-0.501	-0.336	-0.473	-0.494	-0.584	-0.566	-0.496	-0.301	-0.287	-0.283	-0.080	0.895	2.661	9.454	20.19	23.83	15.39	4.784	-0.063	-0.608	-0.561	-0.589	-0.652	-0.689	-0.651	-0.699	-0.703	-0.711	-0.730	-0.731	-0.694	-0.768	-0.763	-0.665	-0.790	-0.815	-0.835	-0.827	-0.839	-0.851
245.0	33.49	132.4	227.7	1488	5961	4123	390.4	10.62	4.232	0.897	0.846	0.699	0.906	0.415	0.917	-0.027	0.248	0.284	-0.093	-0.105	0.107	0.048	-0.012	0.050	0.180	0.097	0.180	-0.218	-0.133	-0.197	-0.397	-0.434	-0.387	-0.393	-0.070	-0.390	-0.298	-0.537	-0.411	-0.358	-0.402	-0.603	-0.572	-0.521	-0.412	-0.246	-0.021	-0.100	-0.079	0.340	2.014	6.842	18.69	32.16	25.55	13.40	2.527	-0.429	-0.523	-0.581	-0.667	-0.669	-0.698	-0.713	-0.707	-0.745	-0.712	-0.747	-0.702	-0.785	-0.752	-0.784	-0.794	-0.793	-0.813	-0.830	-0.817
250.0	-15.96	92.50	205.8	405.9	2009	6121	6499	1507	94.44	5.509	3.286	2.040	2.525	1.026	1.324	0.708	0.794	0.517	-0.021	0.050	0.199	0.213	0.340	0.238	0.239	0.220	0.282	-0.072	-0.149	-0.244	-0.352	-0.476	-0.314	-0.217	-0.006	-0.307	-0.376	-0.507	-0.381	-0.315	-0.372	-0.512	-0.607	-0.443	-0.413	-0.398	-0.188	0.040	0.222	0.239	0.371	1.245	4.167	10.50	18.85	30.60	33.15	19.74	11.97	2.782	-0.422	-0.637	-0.602	-0.662	-0.661	-0.680	-0.648	-0.725	-0.722	-0.721	-0.782	-0.752	-0.789	-0.804	-0.791	-0.828	-0.813
255.0	-30.37	9.083	157.3	341.4	525.8	1609	6429	9999.9	2246	89.53	7.812	4.552	4.397	2.220	1.505	1.170	1.064	0.694	0.356	0.188	0.391	0.232	0.261	0.416	0.288	0.503	0.339	0.143	-0.174	-0.202	-0.200	-0.332	-0.218	-0.321	0.081	-0.214	-0.398	-0.412	-0.419	-0.359	-0.382	-0.503	-0.517	-0.454	-0.363	-0.483	-0.355	-0.329	-0.093	0.385	0.755	0.700	0.810	2.082	3.877	7.083	14.34	32.50	61.64	29.79	18.06	2.820	-0.554	-0.490	-0.612	-0.616	-0.663	-0.658	-0.711	-0.725	-0.743	-0.759	-0.743	-0.813	-0.762	-0.815	-0.821
260.0	-27.52	-10.00	51.56	295.2	353.0	412.4	2064	9999.9	9999.9	1595	33.15	8.710	7.767	3.763	2.515	1.639	2.005	0.996	0.797	0.331	0.899	0.294	0.154	0.453	0.546	0.343	0.414	0.110	-0.035	-0.196	-0.258	-0.388	-0.101	-0.215	0.110	-0.217	-0.440	-0.438	-0.380	-0.409	-0.407	-0.480	-0.543	-0.396	-0.435	-0.374	-0.363	-0.453	-0.320	-0.040	0.400	1.132	1.077	0.599	0.654	1.238	3.013	8.526	29.88	54.46	67.85	28.13	12.06	0.952	-0.467	-0.618	-0.614	-0.588	-0.682	-0.653	-0.677	-0.697	-0.787	-0.749	-0.718	-0.779	-0.819
265.0	-22.28	-14.61	11.31	127.0	394.6	264.3	506.8	4196	9999.9	9999.9	241.5	17.88	10.74	5.182	3.786	2.289	2.229	1.762	0.857	0.690	0.907	0.833	0.296	0.742	0.584	0.180	0.572	0.290	0.188	-0.015	-0.071	-0.124	-0.125	-0.070	0.323	-0.156	-0.375	-0.401	-0.427	-0.386	-0.402	-0.423	-0.438	-0.412	-0.360	-0.356	-0.395	-0.388	-0.301	-0.295	-0.113	0.242	0.924	1.386	0.810	0.093	0.416	1.681	6.583	17.00	42.86	73.42	65.58	25.16	6.948	-0.131	-0.590	-0.616	-0.672	-0.667	-0.614	-0.677	-0.748	-0.733	-0.699	-0.785	-0.792
270.0	-10.58	-2.442	10.34	40.13	189.9	391.1	333.5	1020	4630	9999.9	9999.9	951.2	65.13	10.69	7.006	4.265	3.526	2.649	1.426	0.866	1.348	1.079	0.790	0.820	0.862	0.522	0.683	0.380	0.202	0.040	-0.092	-0.080	-0.111	-0.063	0.338	-0.222	-0.302	-0.382	-0.328	-0.353	-0.353	-0.375	-0.350	-0.359	-0.288	-0.390	-0.347	-0.356	-0.281	-0.274	-0.286	-0.229	0.058	0.576	1.236	1.453	1.002	0.512	1.269	3.591	9.758	22.38	36.49	63.68	50.19	52.84	15.06	5.955	-0.170	-0.581	-0.583	-0.574	-0.699	-0.652	-0.710	-0.713	-0.770
275.0	22.18	43.97	44.54	38.99	72.22	199.2	531.8	468.0	1108	2758	9999.9	9999.9	1416	60.42	12.78	7.241	5.546	4.189	2.313	1.544	1.740	1.464	1.279	0.932	1.021	0.871	1.030	0.625	0.406	0.130	-0.095	-0.136	0.083	0.001	0.391	-0.086	-0.173	-0.241	-0.258	-0.324	-0.293	-0.306	-0.293	-0.261	-0.248	-0.214	-0.262	-0.138	-0.198	-0.214	-0.215	-0.311	-0.196	-0.110	0.143	0.609	1.702	2.438	1.369	0.815	1.985	4.767	7.947	14.46	17.72	50.39	85.55	102.5	24.39	5.273	-0.254	-0.561	-0.588	-0.637	-0.645	-0.602	-0.647
280.0	64.41	99.61	98.46	71.97	63.10	103.2	379.8	630.7	423.4	719.0	3272	9999.9	9999.9	992.8	29.63	10.90	8.528	5.617	3.851	2.268	2.207	1.802	1.276	1.004	1.585	1.070	1.061	0.596	0.371	0.243	-0.005	-0.020	0.157	0.207	0.422	0.060	-0.116	-0.185	-0.128	-0.214	-0.218	-0.306	-0.239	-0.114	-0.102	-0.150	-0.151	-0.039	-0.012	0.026	-0.071	-0.184	-0.209	-0.181	-0.150	-0.007	0.506	1.496	2.635	2.064	0.838	1.075	1.696	3.243	4.035	12.47	33.44	89.47	102.0	32.68	18.26	2.220	-0.500	-0.556	-0.602	-0.644	-0.625
285.0	130.9	167.5	161.8	115.3	81.19	95.13	200.2	617.2	404.4	342.9	917.4	4218	9999.9	9396	134.8	18.53	12.19	7.268	4.604	2.854	3.149	2.491	1.401	1.459	1.765	1.264	1.147	0.895	0.523	0.517	0.192	0.081	0.044	0.164	0.642	0.210	-0.020	0.022	0.052	-0.063	-0.058	-0.227	-0.269	-0.081	-0.071	0.021	0.067	0.336	0.199	0.080	0.043	-0.031	-0.199	-0.089	-0.091	-0.061	-0.057	0.390	1.302	2.730	2.812	1.291	0.636	0.807	1.062	2.984	7.742	23.99	50.45	84.16	103.4	30.69	12.37	0.403	-0.510	-0.619	-0.571
290.0	199.5	284.2	286.9	196.3	138.3	134.2	165.7	337.1	679.1	678.4	523.9	1248	4759	9999.9	9999.9	2291	43.07	13.12	7.510	4.437	4.650	3.248	2.241	2.065	2.011	1.417	1.464	0.946	0.659	0.618	0.303	0.146	0.181	0.297	0.926	0.249	0.114	-0.031	0.028	0.030	-0.089	-0.199	-0.143	0.108	0.095	0.240	0.302	0.376	0.529	0.382	0.281	0.213	0.066	0.027	0.089	0.078	0.090	0.217	0.453	1.025	1.879	2.708	2.912	2.059	1.125	1.317	2.417	6.018	12.05	22.94	46.49	70.35	100.2	78.13	19.14	7.797	0.277
295.0	280.3	380.4	416.0	293.0	204.8	193.3	218.2	280.0	466.2	950.7	920.4	752.8	1433	2821	9999.9	9999.9	795.9	46.31	12.71	6.762	6.305	3.948	3.173	2.591	2.527	2.140	1.862	1.318	0.882	0.759	0.370	0.434	0.257	0.424	1.067	0.284	0.271	0.113	0.269	0.038	-0.064	0.016	-0.003	0.213	0.307	0.473	0.573	0.751	0.971	0.661	0.554	0.508	0.419	0.332	0.381	0.478	0.341	0.460	0.508	0.731	1.038	1.333	2.193	4.155	4.331	2.875	1.931	2.657	3.953	6.199	11.11	16.27	27.82	52.55	101.0	104.0	29.87
300.0	333.2	476.7	520.6	371.1	281.1	269.3	316.2	365.8	493.4	839.7	1392	1006	879.3	1011	3265	9999.9	9999.9	609.4	26.92	10.11	8.772	5.806	4.168	3.044	2.929	2.111	2.163	1.852	1.292	0.838	0.648	0.511	0.387	0.669	1.208	0.432	0.346	0.192	0.402	0.076	0.167	0.203	0.024	0.316	0.436	0.558	0.714	1.091	1.282	1.032	0.831	0.782	0.596	0.585	0.654	0.640	0.696	0.796	0.782	1.198	1.163	1.486	1.943	2.975	4.856	5.616	4.436	2.968	3.023	3.189	4.032	4.887	7.021	12.89	32.98	72.17	111.4
305.0	412.4	581.7	643.5	493.5	397.2	385.4	449.5	566.5	730.9	992.0	1541	1756	1160	890.3	1208	4568	9999.9	5901	86.77	16.72	12.65	7.298	5.223	3.988	3.752	2.595	2.645	2.184	1.525	0.883	0.773	0.645	0.469	0.642	1.467	0.560	0.502	0.281	0.423	0.262	0.332	0.154	0.189	0.315	0.549	0.925	1.199	1.411	1.576	1.461	1.215	1.272	0.980	0.883	1.171	1.103	1.319	1.476	1.804	1.890	1.955	2.394	2.866	3.679	4.158	5.717	7.250	6.729	5.214	3.990	3.652	3.455	3.611	4.522	8.798	18.78	44.95
310.0	476.9	703.9	784.9	624.5	519.0	526.0	638.3	779.6	960.1	1219	1559	1998	1863	1234	991.0	1531	4707	9999.9	9999.9	1775	34.14	11.96	7.214	5.551	5.008	3.445	3.003	2.455	1.689	1.220	1.057	0.772	0.671	0.793	1.523	0.692	0.506	0.356	0.505	0.277	0.385	0.315	0.480	0.397	0.801	1.094	1.376	1.767	2.016	1.836	1.493	1.606	1.418	1.276	1.375	1.814	2.018	2.222	2.545	2.924	2.979	3.312	3.914	4.493	4.830	5.608	6.459	7.432	8.256	7.566	6.047	4.513	3.937	3.903	4.373	6.022	11.72
315.0	600.7	933.8	984.5	778.7	646.7	659.0	785.6	924.4	1114	1381	1681	1943	2119	1883	1209	1013	1603	2807	9999.9	9999.9	559.4	35.81	11.91	8.597	7.245	4.932	4.189	3.009	2.156	1.671	1.140	0.920	0.850	0.876	1.837	0.892	0.719	0.539	0.614	0.390	0.391	0.430	0.639	0.805	0.945	1.717	1.991	2.465	2.417	2.299	1.985	2.300	1.993	1.780	1.879	2.286	2.433	2.783	3.072	3.421	3.462	3.961	4.731	5.167	5.516	6.224	6.335	6.953	7.319	8.020	8.827	7.854	5.987	5.030	4.455	4.026	4.773
320.0	899.8	1510	1313	957.4	803.5	779.5	912.4	1058	1245	1537	1910	2156	2225	2283	1728	1111	1078	1070	2974	9999.9	9999.9	468.0	22.46	11.60	10.11	6.038	5.289	4.122	2.843	2.114	1.640	0.943	1.159	1.126	1.916	0.898	0.871	0.526	0.776	0.671	0.387	0.555	0.841	1.265	1.711	2.419	3.286	4.183	3.650	3.104	2.711	2.818	2.494	2.644	2.479	2.520	2.842	3.273	3.588	4.076	4.237	4.392	5.275	6.219	6.367	6.772	7.158	7.577	8.026	7.995	8.753	9.233	9.287	7.857	6.064	4.469	4.413
325.0	1229	2251	2230	1574	1093	915.2	1025	1178	1391	1696	2092	2387	2409	2343	2179	1427	1074	776.2	945.8	3561	9999.9	9999.9	65.57	19.96	13.18	8.247	5.785	4.622	3.448	2.723	1.546	1.109	1.373	1.293	1.936	0.951	0.860	0.674	0.749	0.709	0.703	0.703	1.121	1.412	2.066	3.389	5.006	6.202	5.841	4.823	4.387	3.996	3.809	3.070	3.022	3.118	3.515	3.936	4.090	4.541	4.463	5.151	5.817	6.745	7.147	7.930	8.181	8.370	8.873	8.671	9.059	9.310	9.634	9.988	8.304	6.109	5.023
330.0	1656	3007	3521	2809	1803	1253	1199	1333	1541	1881	2307	2623	2695	2520	2289	1901	1359	869.2	642.0	1103	4207	9999.9	9999.9	1691	34.92	12.96	8.889	5.775	4.459	3.108	2.048	1.618	1.757	1.615	2.300	1.084	0.949	0.979	0.906	0.890	0.993	0.845	1.328	1.928	3.017	4.900	6.596	8.801	9.215	8.827	8.099	7.852	6.405	5.182	4.349	4.051	4.300	4.556	4.747	5.124	5.081	5.972	6.554	7.314	7.891	8.371	8.944	9.515	10.02	9.879	9.880	10.05	9.691	9.671	9.700	8.856	7.500
335.0	1933	3754	4585	4003	2760	1805	1454	1523	1709	2078	2494	2866	2959	2802	2466	2089	1836	1194	780.1	767.1	1366	2751	9999.9	9999.9	2717	37.85	14.77	8.591	6.154	4.237	2.588	1.957	2.293	2.199	2.744	1.165	1.163	1.087	0.990	1.091	1.129	1.294	1.767	2.293	3.710	5.851	8.371	11.27	12.30	11.89	11.62	12.41	10.25	8.462	6.421	5.499	5.217	5.137	5.733	5.514	6.210	6.490	6.818	8.077	8.314	9.721	9.540	10.38	11.19	11.08	11.30	10.83	10.43	10.26	9.725	9.433	9.003
340.0	2131	4036	5047	4575	3229	2075	1576	1614	1803	2136	2585	2935	3044	2896	2568	2116	1891	1494	951.2	781.1	814.5	1031	3082	9999.9	9999.9	412.9	30.08	11.38	7.626	5.571	3.324	2.431	2.251	2.426	2.882	1.542	1.274	1.269	1.130	1.355	1.199	1.599	1.873	2.373	4.182	6.140	8.726	12.19	13.83	13.20	13.16	14.38	11.89	9.698	8.191	6.145	5.809	5.323	6.018	5.979	6.567	6.767	7.109	8.361	8.838	9.816	10.25	11.01	11.47	11.59	11.39	11.28	11.35	10.80	10.22	9.685	9.084
345.0	2143	4077	5107	4780	3415	2186	1670	1660	1854	2164	2563	2892	3012	2879	2553	2115	1787	1582	1133	841.8	742.6	709.3	1102	3559	9999.9	9999.9	332.8	18.82	10.75	6.919	4.063	2.866	2.720	2.531	3.177	1.810	1.419	1.329	1.274	1.176	1.255	1.697	1.810	2.739	4.102	6.217	8.889	12.31	13.34	13.74	13.76	14.87	12.64	10.25	8.309	6.627	6.484	5.823	5.913	6.191	6.757	7.109	7.456	8.420	8.560	9.608	10.03	10.47	10.96	11.23	10.99	11.22	11.29	10.96	10.32	9.442	8.593
350.0	2027	3745	4889	4721	3485	2310	1756	1723	1874	2148	2471	2748	2854	2757	2472	2088	1737	1484	1310	1049	824.7	717.4	733.6	1160	3879	9999.9	9999.9	1536	28.77	10.34	6.034	3.526	3.454	2.959	3.436	1.843	1.495	1.306	1.483	1.426	1.174	1.478	1.961	2.720	3.830	5.880	8.125	11.26	12.82	13.12	13.17	14.60	12.77	10.63	8.576	7.177	6.517	6.339	6.521	6.433	6.778	7.174	7.589	7.873	8.169	9.213	9.676	9.699	10.64	10.87	10.56	10.72	10.78	10.70	9.744	9.065	8.909
355.0	1833	3337	4440	4378	3439	2319	1796	1765	1871	2090	2353	2582	2660	2597	2351	2026	1710	1460	1277	1241	1015	797.4	715.5	674.3	1150	2559	9839	9999.9	2519	32.87	9.192	5.470	4.378	3.392	3.885	1.842	1.615	1.538	1.236	1.332	1.204	1.338	1.763	2.510	3.385	5.410	7.284	9.733	11.74	11.93	12.44	14.20	12.78	10.72	8.524	7.488	7.018	6.738	6.367	6.834	6.784	6.896	7.174	7.743	7.806	8.599	9.094	9.336	9.514	10.00	10.08	10.32	10.57	10.20	9.193	9.041	8.570
360.0	1650	3016	4060	4080	3256	2290	1798	1766	1835	2028	2242	2415	2509	2444	2236	1966	1684	1451	1266	1227	1171	910.3	751.7	607.7	598.1	790.8	2708	9999.9	9999.9	394.9	22.73	7.247	5.738	5.072	4.773	2.468	1.976	1.410	1.566	1.604	1.209	1.306	1.706	2.287	3.147	4.927	6.493	8.545	10.67	10.52	11.19	13.04	12.00	10.16	8.627	7.268	6.752	6.463	6.442	6.636	6.792	6.657	6.877	7.457	7.757	8.071	8.444	8.978	9.239	9.308	9.249	9.632	9.851	9.462	8.896	8.637	8.319
365.0	1494	2739	3644	3776	3042	2218	1780	1757	1819	1969	2152	2293	2355	2314	2146	1897	1661	1464	1293	1207	1202	1068	822.8	642.6	525.5	441.8	762.1	3030	9999.9	9999.9	332.1	13.97	8.138	6.503	5.869	2.955	2.174	1.768	1.609	1.669	1.380	1.291	1.491	2.073	3.078	4.072	5.573	8.011	9.419	9.933	10.40	11.97	11.05	9.819	8.124	7.239	6.569	6.318	6.335	6.478	6.466	6.767	6.920	7.380	7.738	7.773	8.122	8.367	8.842	8.256	8.654	8.732	9.048	8.495	8.711	8.314	8.117
370.0	1309	2377	3258	3369	2857	2207	1818	1765	1813	1940	2068	2174	2199	2149	2008	1816	1630	1473	1340	1252	1191	1169	1013	755.2	582.3	433.0	391.2	826.6	3065	9762	9999.9	1357	25.50	10.31	9.023	4.056	2.727	2.075	1.843	1.572	1.451	1.402	1.491	1.950	2.765	3.908	4.939	6.997	8.554	8.718	9.345	10.74	10.25	9.189	7.919	6.992	6.884	6.401	6.350	6.527	6.597	6.849	6.748	7.249	7.418	7.365	7.718	7.668	8.149	7.832	7.938	8.068	8.397	8.369	8.257	7.855	7.595
375.0	1157	2036	2831	2974	2650	2123	1805	1736	1773	1868	1979	2042	2059	2000	1879	1729	1584	1460	1370	1298	1226	1158	1124	939.5	684.8	507.3	382.0	393.4	830.3	2345	6083	9999.9	2340	34.15	14.46	6.472	4.312	2.832	2.341	1.934	1.552	1.464	1.630	2.146	2.429	3.519	4.711	6.079	7.127	7.761	8.134	10.21	9.272	8.716	7.718	7.096	6.917	6.338	6.289	6.196	6.619	6.395	6.309	6.978	7.247	7.246	7.159	7.210	7.817	7.315	7.390	7.769	7.666	8.162	7.683	7.631	7.759
380.0	1079	1830	2551	2745	2478	2053	1789	1741	1742	1843	1902	1977	1966	1925	1799	1665	1551	1464	1390	1324	1254	1177	1121	1055	806.7	585.8	439.2	351.0	377.7	656.5	1616	7140	9999.9	1924	30.31	9.815	5.948	4.036	2.891	2.147	1.563	1.779	1.656	2.141	2.416	2.973	4.032	5.605	6.536	6.609	7.463	9.459	8.505	8.314	7.429	6.908	6.652	6.814	6.966	6.254	6.348	6.145	6.366	6.609	6.858	6.698	6.797	6.881	7.152	6.831	7.130	7.040	7.404	7.395	7.183	7.351	7.265
385.0	991.9	1703	2376	2591	2389	2057	1819	1761	1742	1821	1894	1937	1919	1872	1751	1634	1530	1456	1406	1347	1290	1225	1140	1088	952.9	694.6	518.9	405.0	330.1	324.8	486.0	2032	9999.9	9999.9	303.7	19.47	9.807	6.033	3.950	2.675	1.931	1.496	1.600	2.014	2.489	2.892	3.883	5.422	6.116	6.294	7.031	8.885	8.546	7.892	7.159	6.955	6.912	6.952	6.805	6.345	6.143	6.337	6.330	6.260	6.857	6.488	6.402	6.393	6.914	6.755	6.814	6.853	7.025	6.985	7.033	7.139	6.809
390.0	921.2	1538	2196	2451	2320	2121	1927	1853	1839	1919	2019	2035	2016	1958	1815	1664	1547	1476	1437	1407	1378	1328	1260	1173	1094	936.9	711.5	552.8	431.3	364.6	328.7	610.8	2859	9707	9999.9	1252	28.69	15.16	7.889	4.563	2.753	1.884	1.959	2.103	2.582	2.986	3.719	5.056	5.722	5.958	6.654	8.328	8.071	7.992	7.410	7.064	7.469	7.107	7.130	6.428	6.494	6.687	6.550	6.425	6.737	6.816	6.782	6.730	6.956	6.830	6.917	6.987	7.055	7.114	6.846	6.894	6.868
395.0	862.4	1425	2101	2361	2375	2281	2163	2081	2105	2249	2385	2499	2456	2331	2121	1861	1665	1568	1541	1546	1545	1529	1496	1421	1320	1231	1074	855.0	701.1	582.3	443.9	445.6	874.1	2407	8442	9999.9	1931	37.84	19.16	8.239	4.421	2.777	2.333	2.441	2.548	3.057	3.590	4.870	5.499	5.880	6.468	8.240	8.585	8.461	8.023	7.842	8.724	7.903	7.150	6.961	7.299	7.481	7.112	7.802	7.569	7.644	7.908	7.814	7.978	7.673	7.795	7.699	7.901	7.672	7.684	7.299	7.374
400.0	823.2	1391	2028	2357	2474	2463	2414	2367	2495	2670	3011	3148	3090	2875	2549	2156	1857	1708	1678	1710	1729	1774	1767	1729	1638	1527	1438	1222	1014	857.7	706.4	590.3	537.3	839.6	2412	7377	9959	1499	36.10	13.32	6.179	3.659	2.970	2.904	2.935	3.287	3.952	5.430	5.713	6.223	6.881	8.726	8.794	9.204	8.509	8.929	9.679	9.087	8.737	7.885	8.005	8.117	8.514	8.815	8.822	9.156	9.450	9.117	9.121	8.958	9.564	8.983	9.069	8.625	8.453	8.129	7.832
405.0	809.5	1373	2002	2343	2573	2669	2679	2713	2904	3318	3737	3915	3798	3505	3058	2522	2078	1874	1831	1886	1951	2028	2084	2078	1990	1880	1775	1624	1369	1167	999.8	830.9	679.4	648.1	936.3	2315	8738	8797	274.4	24.65	8.881	4.710	3.614	3.105	3.177	3.382	4.045	5.240	5.927	6.215	7.091	8.556	9.477	9.454	9.893	9.552	10.33	9.842	9.888	9.281	9.317	8.934	9.833	10.18	10.62	10.64	10.68	10.65	10.72	10.70	10.87	10.09	10.28	9.850	9.687	9.031	8.942
410.0	762.7	1347	1963	2377	2679	2875	2996	3086	3385	3866	4414	4617	4476	4099	3525	2845	2288	2018	1973	2045	2141	2256	2355	2374	2327	2213	2074	1939	1742	1503	1280	1078	883.6	752.6	727.8	945.0	2659	6842	8573	1202	22.81	7.492	5.183	4.059	3.788	3.781	4.468	5.473	6.079	6.320	7.248	9.212	9.984	10.31	10.54	10.87	11.71	10.86	11.22	10.35	10.43	10.58	10.91	11.49	11.54	11.96	12.03	12.23	12.68	12.39	12.01	11.89	11.52	11.21	10.18	9.584	9.400
415.0	715.0	1329	1910	2371	2657	2958	3147	3253	3530	4010	4574	4776	4636	4248	3641	2903	2315	2031	1988	2055	2164	2283	2407	2441	2403	2295	2150	1993	1836	1649	1395	1167	957.3	800.6	700.7	652.5	910.1	1753	4752	9803	1782	24.38	7.121	5.069	4.693	3.830	4.521	5.308	6.112	6.411	6.913	9.318	10.05	10.35	10.92	11.39	11.92	11.71	11.42	11.53	10.82	11.00	11.57	11.71	12.00	11.86	12.01	12.04	12.22	12.59	11.68	11.96	11.61	11.43	10.32	9.634	9.640
420.0	715.1	1260	1858	2297	2625	2957	3180	3273	3531	3997	4507	4711	4574	4179	3570	2844	2269	1990	1952	2010	2112	2247	2356	2408	2372	2271	2123	1967	1796	1656	1428	1179	969.4	807.6	685.6	578.3	513.7	569.7	1266	6362	8363	273.5	16.70	6.509	5.110	4.461	4.731	5.206	6.127	6.314	7.001	8.926	10.15	10.55	10.93	11.35	11.93	11.71	11.53	11.61	10.89	11.07	11.74	11.64	12.16	12.00	11.73	11.64	11.99	11.92	11.94	11.90	11.45	11.13	10.35	9.245	9.114
425.0	662.8	1238	1829	2244	2599	3000	3228	3304	3528	3968	4446	4654	4504	4120	3525	2815	2248	1964	1917	1974	2078	2202	2310	2366	2345	2249	2123	1966	1794	1644	1469	1213	991.4	821.9	700.8	571.2	432.5	310.9	375.9	1762	6922	6489	229.5	11.21	6.097	5.437	5.026	5.599	6.182	6.180	6.934	9.211	9.834	10.33	10.87	11.92	12.94	11.81	11.79	11.58	11.29	10.83	11.52	11.43	12.11	11.91	11.61	12.03	12.00	11.78	11.37	11.44	11.36	10.58	10.41	9.176	8.775
430.0	780.1	1196	1781	2251	2713	3127	3418	3508	3681	4045	4519	4710	4572	4174	3562	2838	2265	1980	1922	1973	2076	2191	2312	2382	2370	2299	2178	2029	1856	1691	1532	1332	1082	891.2	764.4	624.1	456.9	280.8	193.9	451.6	1895	5277	6302	1011	18.93	7.487	5.675	6.009	6.482	6.291	7.250	9.313	10.10	11.02	11.53	12.41	13.49	12.67	12.62	11.93	11.95	11.71	11.65	11.38	11.73	11.90	12.09	12.02	11.86	11.82	12.03	11.71	11.39	10.87	10.49	9.675	9.056
435.0	1211	1207	1768	2235	2804	3288	3665	3732	3822	4137	4533	4717	4580	4176	3574	2839	2272	1987	1933	1968	2052	2161	2282	2356	2365	2298	2197	2067	1906	1739	1572	1390	1178	964.1	815.4	675.6	496.6	302.2	171.7	172.1	467.6	1246	3920	8376	1677	22.35	7.701	6.957	6.850	6.416	7.653	9.591	10.69	11.51	12.12	12.92	14.42	13.96	13.58	12.51	12.52	11.82	11.90	11.71	11.78	11.92	12.16	12.27	11.69	11.84	12.06	11.60	11.32	11.21	10.28	9.431	8.996
440.0	1613	1309	1747	2259	2839	3383	3749	3838	3837	4063	4375	4556	4421	4061	3467	2776	2226	1946	1890	1923	1976	2074	2199	2269	2285	2230	2144	2016	1874	1717	1547	1366	1190	989.5	822.6	685.6	506.8	316.4	175.9	118.2	155.7	316.0	1047	5829	7898	249.0	15.39	7.861	7.489	6.988	7.681	9.543	10.54	11.69	12.39	13.46	15.07	14.08	13.86	13.28	12.62	11.94	11.66	11.70	11.59	11.61	11.75	11.81	11.33	11.71	11.54	11.16	10.87	10.65	9.811	8.949	8.830
445.0	1755	1676	1716	2245	2813	3384	3796	3818	3716	3846	4126	4269	4120	3798	3271	2635	2132	1880	1818	1833	1860	1939	2055	2125	2140	2096	2013	1895	1770	1635	1473	1305	1128	974.3	810.5	662.2	498.3	314.6	183.7	115.5	97.00	114.6	268.8	1647	6791	5789	190.1	12.03	8.285	7.133	7.685	9.478	10.47	11.64	12.32	13.34	14.72	14.55	14.39	13.85	12.47	11.65	10.91	11.06	10.95	10.83	11.30	10.72	10.74	10.77	10.74	10.25	10.60	9.682	9.465	8.649	8.543
450.0	1284	2646	1948	2128	2706	3303	3699	3689	3532	3499	3666	3779	3672	3377	2922	2384	1964	1739	1687	1676	1684	1735	1826	1892	1903	1869	1806	1709	1602	1486	1350	1191	1022	892.4	773.6	626.5	466.7	306.1	190.8	125.5	93.98	80.52	101.9	399.9	1871	4664	4976	864.9	16.92	8.054	7.991	9.538	10.33	11.47	12.05	13.55	14.29	14.13	14.19	13.11	12.05	11.34	10.55	10.32	10.00	9.683	10.05	9.780	9.550	9.583	9.335	9.412	9.101	9.016	8.424	8.074	7.835
455.0	773.1	2744	3414	2006	2589	3176	3555	3545	3306	3152	3254	3321	3217	2969	2591	2135	1778	1587	1543	1510	1494	1532	1601	1660	1674	1647	1602	1527	1439	1346	1228	1087	935.7	806.4	712.2	600.3	446.5	299.0	194.3	136.2	104.2	82.60	72.63	126.8	444.9	1099	2878	5757	1243	18.32	9.053	9.815	10.33	10.74	12.10	12.82	13.78	13.74	13.40	12.45	11.81	10.73	9.884	9.712	8.895	8.710	8.580	8.831	8.723	8.354	8.246	8.250	8.162	7.799	7.809	7.330	7.284
460.0	564.9	2061	5254	2128	2456	3030	3424	3379	3098	2928	2977	3031	2933	2694	2352	1960	1649	1480	1423	1390	1367	1393	1454	1501	1523	1501	1461	1405	1328	1248	1146	1014	876.0	755.9	665.1	577.1	442.5	297.3	199.3	146.5	112.4	87.97	71.36	69.94	130.6	270.3	748.0	3894	5292	189.9	15.61	10.63	10.30	10.31	11.12	12.49	13.58	13.45	13.01	12.27	10.66	10.03	9.222	8.847	8.234	8.164	8.084	8.083	7.859	7.644	7.586	7.478	7.515	7.093	6.947	6.427	6.467
465.0	523.2	1330	5864	2810	2329	2871	3209	3207	2915	2703	2729	2763	2679	2465	2160	1804	1520	1367	1314	1282	1250	1265	1323	1371	1387	1371	1339	1289	1233	1154	1068	951.0	824.1	711.8	617.5	541.6	436.0	301.6	202.3	151.5	117.6	92.52	75.28	61.31	64.38	87.53	189.8	1100	4774	3577	167.3	14.31	10.52	10.50	10.80	11.92	12.98	12.70	12.48	11.75	10.40	9.399	8.342	8.083	7.525	7.474	7.565	7.377	7.108	7.036	7.071	6.734	7.114	6.910	6.229	6.198	6.028
470.0	467.3	926.0	3526	4249	2427	2588	2929	2879	2609	2379	2375	2394	2311	2136	1880	1586	1344	1210	1167	1129	1086	1092	1139	1184	1197	1188	1168	1126	1078	1022	949.1	848.4	738.3	642.7	559.6	479.8	397.7	296.6	204.2	151.8	120.4	95.76	78.31	61.25	52.40	49.76	65.00	265.0	1339	2799	3535	850.2	18.95	11.03	10.83	11.47	12.03	11.81	11.38	10.30	9.326	8.327	7.538	7.161	6.498	6.373	6.469	6.251	6.116	6.315	6.273	5.929	6.085	6.170	5.708	5.405	5.340
475.0	462.1	777.6	1705	4352	3537	2321	2592	2537	2251	2030	2002	2012	1937	1792	1592	1355	1155	1045	1005	964.8	918.6	919.4	954.8	992.3	1006	1002	985.0	954.8	918.5	879.3	816.2	729.7	640.4	563.4	491.9	420.9	345.1	272.4	208.2	151.2	120.6	98.30	80.20	63.60	51.85	43.67	39.33	79.09	313.8	650.4	1853	3684	1141	21.48	10.43	11.00	11.32	10.76	10.48	9.496	8.136	7.175	6.456	5.810	5.706	5.406	5.342	5.449	4.882	4.988	5.263	5.076	5.216	5.044	4.912	4.834	4.840
480.0	422.3	705.7	1117	3074	4868	2338	2335	2284	2037	1816	1771	1774	1694	1571	1393	1191	1034	939.7	899.9	856.3	811.3	806.5	834.6	865.3	879.0	881.2	864.3	842.4	812.5	776.4	722.0	654.0	577.6	503.2	445.3	382.1	313.1	246.1	200.3	156.9	120.7	98.44	81.25	65.62	53.60	43.47	36.36	38.98	87.26	158.9	466.8	2186	3580	220.0	19.14	11.08	10.65	10.30	9.426	8.413	7.600	6.587	6.068	5.322	5.241	4.952	4.515	4.401	4.614	4.342	4.510	4.660	4.260	4.661	4.027	3.952	3.835
485.0	400.0	659.7	927.5	1860	5228	2977	2160	2090	1868	1633	1583	1575	1527	1413	1250	1075	932.8	848.9	813.8	773.1	731.0	719.2	742.9	776.3	784.1	780.2	773.1	747.9	730.9	702.8	651.0	594.1	524.7	461.3	405.3	351.6	289.0	227.7	188.4	160.2	125.7	99.44	83.08	67.33	55.63	45.41	37.61	32.22	37.94	50.73	117.8	599.2	2845	3146	201.5	15.49	10.79	9.837	9.254	8.323	6.970	5.974	5.503	4.979	4.760	4.204	4.221	4.181	3.833	3.997	4.197	4.020	3.952	4.168	3.618	3.556	3.401
490.0	343.6	611.1	830.3	1239	3496	4492	2264	1848	1640	1437	1378	1371	1321	1218	1086	938.3	816.3	746.0	714.9	676.0	635.2	628.5	648.9	670.6	674.8	679.1	669.4	651.7	635.4	611.7	577.2	523.7	466.1	411.8	364.2	316.0	266.5	210.7	172.1	151.0	131.5	103.4	84.20	69.60	59.51	48.77	40.24	33.53	29.28	28.66	41.52	147.6	764.3	2262	2580	952.4	21.22	9.966	9.102	7.505	6.662	5.506	4.992	4.392	4.122	3.886	3.772	3.384	3.540	3.464	3.574	3.489	3.339	3.478	3.196	3.175	2.946
495.0	280.3	519.3	760.6	963.6	1811	4519	3576	1626	1418	1259	1188	1195	1139	1056	932.3	806.6	706.9	645.2	617.4	580.8	548.7	535.3	557.3	571.6	578.5	581.6	570.7	559.5	548.2	529.5	504.6	459.4	411.2	365.7	324.5	282.8	241.4	196.2	159.7	137.0	126.8	109.7	87.85	71.35	60.77	51.39	43.03	36.53	30.76	26.68	26.00	47.67	183.6	527.2	1485	4899	1546	25.19	9.469	7.168	5.920	4.942	4.475	4.160	3.570	3.408	3.463	3.067	3.113	2.948	2.904	2.873	2.839	2.900	2.617	2.657	2.481
500.0	231.5	451.9	712.8	843.2	1228	3178	5282	1680	1267	1132	1071	1061	1018	927.7	825.0	715.7	630.2	574.7	545.4	518.8	485.3	476.4	488.7	506.4	516.8	518.0	510.2	495.5	484.0	468.3	446.7	412.0	367.5	331.5	294.8	259.7	220.8	180.1	149.4	128.4	116.5	109.7	90.93	72.24	61.31	52.20	44.03	38.28	32.49	26.78	23.69	26.91	55.08	130.8	376.6	2783	4950	1087	19.32	7.281	5.538	4.808	4.042	3.730	3.110	3.303	2.943	2.939	2.654	2.457	2.605	2.586	2.567	2.549	2.188	2.216	2.262
505.0	201.0	389.1	669.2	785.4	1008	1908	5860	2328	1126	1010	953.7	943.0	898.6	822.6	736.9	635.8	560.4	510.7	487.4	463.4	426.1	421.5	430.4	449.2	454.2	457.9	452.0	440.5	430.7	421.1	397.3	369.9	333.6	298.4	266.8	238.0	203.7	166.8	140.6	119.7	108.7	101.0	91.57	73.46	60.71	52.44	44.88	38.96	33.64	28.69	24.30	23.34	27.27	42.75	96.99	732.0	3474	3887	228.0	12.13	5.631	4.523	3.965	3.567	2.883	2.881	2.654	2.417	2.532	2.374	2.375	2.136	2.322	2.042	1.962	1.851	1.775
510.0	164.9	327.8	550.1	727.1	844.5	1181	3796	4254	1233	856.7	820.7	794.3	759.4	697.5	622.3	539.9	477.7	434.3	416.6	387.9	362.9	356.8	363.9	376.7	383.3	385.8	379.6	371.3	366.7	359.2	341.2	315.5	284.7	256.1	230.6	207.1	180.4	150.2	127.3	110.6	97.73	89.12	84.37	75.71	61.55	51.32	45.36	39.05	33.96	29.75	25.98	23.05	21.83	24.09	34.72	175.5	899.9	2425	3335	979.2	17.85	4.731	3.762	3.321	2.615	2.517	2.179	2.096	2.173	1.911	1.943	1.848	1.830	1.642	1.706	1.613	1.481
515.0	140.9	275.8	435.6	637.8	701.7	871.8	1686	5173	2453	735.4	681.6	663.1	627.6	580.5	511.7	450.4	399.7	365.3	343.8	322.8	304.3	294.8	301.2	312.9	318.2	320.7	312.8	306.9	303.1	297.3	287.0	264.6	241.2	219.0	197.3	177.5	155.6	132.6	114.5	99.52	88.54	79.09	74.40	71.37	62.95	50.98	43.77	38.12	33.52	28.73	25.99	23.03	21.02	19.27	20.67	51.04	211.0	555.5	1468	3411	1354	22.71	4.100	3.252	2.499	2.087	1.862	1.829	1.732	1.622	1.553	1.452	1.407	1.268	1.254	1.225	1.079
520.0	115.3	242.5	362.6	549.7	665.2	745.9	983.4	3648	4801	816.7	602.6	578.5	549.7	505.5	446.2	392.4	348.3	318.8	298.5	278.4	263.3	256.5	257.0	267.3	273.2	274.6	270.6	266.3	261.6	257.0	247.2	231.2	211.3	191.7	174.5	157.9	139.1	119.7	105.3	90.88	82.18	73.19	67.68	63.39	62.17	53.18	42.81	37.30	32.87	28.76	25.01	22.79	20.70	18.07	17.32	22.61	56.80	132.4	354.7	1691	3023	984.1	19.41	3.390	2.275	1.874	1.467	1.788	1.433	1.220	1.200	1.300	1.248	1.058	0.957	1.002	0.799
525.0	89.81	199.7	308.2	477.2	609.3	638.9	747.9	1805	6424	1500	541.0	513.3	476.1	443.2	390.8	343.2	307.5	280.9	267.2	247.5	228.5	222.1	228.9	233.4	238.8	239.3	235.9	232.8	229.1	225.1	217.2	202.1	185.7	170.4	155.5	141.4	124.3	107.4	95.67	85.03	75.85	66.79	62.68	57.95	57.21	53.00	42.93	35.92	32.35	28.79	24.96	22.30	20.15	18.07	16.10	15.90	22.21	37.86	86.56	422.0	1802	2738	242.6	10.55	2.314	1.994	1.712	1.503	1.267	1.040	1.172	0.983	0.953	1.038	0.765	0.847	0.647
530.0	57.92	171.9	261.0	373.2	524.7	563.1	597.5	845.7	4362	3455	667.8	431.9	405.6	376.2	329.3	290.8	254.5	234.2	221.9	206.7	193.8	188.9	192.4	197.3	199.1	200.2	197.6	194.5	192.7	189.6	182.0	172.3	157.3	144.2	132.7	120.7	107.4	94.27	83.70	75.38	67.58	61.23	56.37	51.19	48.79	48.09	43.61	35.46	29.65	26.37	23.20	21.22	18.95	17.44	15.24	14.19	13.79	16.03	25.92	99.70	446.4	1392	1866	996.5	16.66	2.621	1.802	1.336	1.094	0.987	0.971	0.772	0.774	0.706	0.681	0.687	0.487
535.0	38.67	125.2	206.4	281.2	404.4	508.7	472.5	531.0	1501	4480	1784	378.5	344.7	315.9	270.2	239.2	209.3	193.1	184.1	170.9	161.0	156.4	155.3	161.4	166.0	165.7	162.5	160.5	156.8	157.7	149.1	141.3	131.3	122.0	110.5	102.0	90.35	80.79	72.28	67.07	58.86	52.99	48.89	45.48	41.87	40.77	39.57	35.81	28.21	24.04	21.99	19.87	17.42	16.02	14.65	13.00	11.48	10.93	11.94	27.17	104.2	315.0	670.3	2540	1215	24.14	2.275	1.321	0.770	0.899	0.830	0.713	0.467	0.574	0.515	0.368	0.247
540.0	27.44	106.4	180.3	234.0	316.3	433.3	419.6	409.1	618.5	2948	3555	445.1	297.2	268.6	234.1	206.6	180.7	166.2	158.5	148.6	137.1	134.4	133.7	137.4	140.5	140.6	136.7	136.5	135.3	135.4	129.3	122.4	112.8	104.8	96.11	88.43	80.07	71.64	64.44	58.52	52.29	48.36	44.37	40.93	36.18	35.35	35.13	34.01	27.79	22.76	20.66	18.09	16.10	14.91	13.18	12.38	10.43	9.007	8.516	11.05	27.44	73.65	156.9	1087	2132	1015	21.37	1.746	1.015	0.676	0.473	0.566	0.498	0.400	0.223	0.314	0.084
545.0	14.40	95.41	150.2	203.7	264.4	360.4	396.6	339.8	372.3	1278	4412	979.7	253.8	233.4	200.9	178.5	157.7	144.8	133.2	127.2	117.4	112.7	114.7	119.7	120.4	122.3	117.6	116.8	118.6	116.3	111.6	106.2	98.69	92.06	84.99	78.55	70.33	63.79	57.07	51.98	47.52	43.26	39.47	36.19	32.58	31.07	29.98	30.05	27.05	21.74	18.67	17.01	15.06	13.87	12.39	11.30	10.48	8.519	7.327	7.166	10.11	19.65	38.24	260.0	1061	2362	256.3	10.68	1.101	0.757	0.521	0.508	0.426	0.238	0.237	0.040	0.079
550.0	5.524	73.13	133.0	170.4	202.5	265.9	351.5	290.6	266.7	482.5	2653	2697	365.6	189.5	165.3	142.6	127.3	115.0	110.8	103.2	96.50	93.31	93.45	96.01	98.15	99.29	96.63	95.03	95.23	93.01	91.33	86.38	81.21	74.64	69.12	63.82	58.08	53.05	48.56	42.76	40.26	36.45	33.30	30.91	28.35	26.43	24.67	23.99	23.94	20.50	17.08	15.04	13.42	12.10	10.96	9.797	9.039	8.085	6.425	5.285	5.473	7.385	10.97	60.47	252.4	1035	1609	846.7	17.27	1.443	0.511	0.373	0.155	0.170	0.005	-0.085	-0.048
555.0	-2.592	60.19	99.98	132.9	156.2	199.5	268.0	263.5	205.6	248.9	847.0	3587	1283	154.6	127.8	112.2	99.02	91.05	85.63	79.63	75.33	72.85	72.31	75.32	76.93	77.22	76.16	73.80	74.55	73.19	70.76	68.34	64.17	59.23	54.98	51.02	46.78	42.37	37.92	34.54	32.15	29.44	27.34	25.06	23.27	22.06	19.85	19.01	18.88	18.45	15.86	12.83	11.21	10.17	9.017	8.255	7.201	6.986	5.737	4.692	3.966	4.003	4.426	15.28	57.85	232.4	492.8	1469	904.7	25.74	0.966	0.437	0.222	-0.042	-0.012	-0.107	-0.116
560.0	-6.387	53.94	84.36	105.7	130.3	151.7	202.7	258.8	175.7	175.3	312.3	2269	3069	177.9	108.1	92.19	82.28	75.10	69.58	66.75	61.05	58.86	58.30	62.21	64.19	63.30	62.32	61.70	61.08	61.07	59.13	57.04	53.07	48.59	46.04	41.09	38.31	35.28	31.37	29.17	27.61	24.99	23.41	22.00	19.82	18.62	17.10	16.21	15.28	15.63	14.55	12.14	9.751	8.771	8.141	7.152	6.467	5.744	5.202	4.491	3.612	3.052	2.752	5.196	14.51	53.43	112.8	537.9	1275	619.7	18.78	0.642	0.141	-0.025	-0.147	-0.106	-0.220
565.0	-7.345	36.33	64.22	92.19	111.2	128.2	159.0	235.0	170.5	142.4	177.7	880.8	4108	625.5	90.09	77.81	67.93	61.88	57.54	54.92	50.93	48.12	48.30	50.63	51.11	51.23	50.59	50.74	49.56	49.20	48.84	45.58	43.14	40.81	37.93	35.29	32.71	29.36	26.48	24.85	23.36	21.16	20.55	18.92	16.90	16.09	14.93	14.16	12.96	12.72	12.63	11.42	8.864	7.767	6.864	6.404	5.838	4.999	4.443	4.201	3.162	2.645	2.103	2.531	4.508	13.35	26.53	124.6	538.7	1072	249.4	11.39	0.362	0.050	-0.167	-0.227	-0.244
570.0	-14.23	30.88	57.99	74.71	90.19	96.28	116.0	171.1	176.1	121.0	124.1	291.1	2495	2184	121.0	63.01	54.95	49.97	45.62	42.69	40.44	38.51	38.72	38.95	39.71	40.58	39.09	39.75	38.99	38.42	38.53	35.93	34.68	32.42	29.73	27.34	25.59	23.81	21.62	19.78	18.56	17.02	16.05	15.12	13.66	13.03	12.47	11.38	10.27	9.853	9.678	9.954	8.416	6.872	5.975	5.390	4.833	4.226	3.533	3.306	3.018	2.535	1.926	1.998	2.038	3.944	6.935	28.54	125.4	404.4	777.4	540.1	17.58	0.612	-0.011	-0.286	-0.296
575.0	-14.94	24.13	53.80	62.29	68.72	77.29	88.97	113.3	169.1	119.8	106.6	137.6	724.5	3133	769.1	53.06	42.68	39.59	34.78	32.47	31.74	29.94	30.46	29.36	31.43	32.03	30.96	29.71	29.82	29.82	29.66	27.92	26.17	25.63	22.72	21.64	20.73	18.20	17.14	16.13	14.54	13.75	13.10	11.89	11.22	10.63	9.882	9.162	8.288	7.604	7.457	7.324	7.262	6.330	5.048	4.484	3.825	3.287	2.916	2.456	2.162	2.428	1.903	1.610	1.428	1.701	2.416	7.154	28.41	90.80	215.8	730.9	620.0	25.14	0.379	-0.233	-0.411
580.0	-19.75	21.47	45.99	52.67	56.49	66.61	76.34	83.62	145.1	131.9	94.13	96.08	228.5	2033	1854	89.45	34.91	32.48	28.96	26.67	25.76	24.75	24.61	24.90	25.88	25.44	25.80	24.71	24.66	24.56	24.44	22.60	22.43	20.76	19.62	18.04	16.70	15.62	14.30	13.36	12.60	11.48	10.65	10.14	9.201	8.933	8.102	7.794	6.970	6.419	6.212	5.526	5.812	5.860	4.560	3.691	2.971	2.851	2.559	2.203	1.908	1.813	1.860	1.250	1.075	1.133	1.099	2.213	6.898	20.60	48.96	247.4	782.1	267.9	19.13	-0.151	-0.355
585.0	-22.49	10.57	38.00	45.62	48.05	56.14	61.91	69.86	105.7	151.4	90.65	86.73	107.5	780.0	2531	348.2	31.62	27.90	23.97	23.43	22.42	20.89	20.86	20.91	22.19	20.98	20.93	19.88	21.55	21.04	20.18	19.42	18.89	17.20	16.33	14.78	13.97	13.22	11.77	11.34	10.09	9.968	9.090	8.614	8.260	7.718	6.791	6.856	5.877	5.360	5.134	4.602	4.798	5.220	4.509	3.603	2.738	2.639	2.175	1.750	1.546	1.482	1.644	1.343	0.950	0.818	0.722	0.904	2.018	5.001	11.32	56.92	313.5	715.2	239.0	8.927	-0.202
590.0	-28.18	4.959	32.11	36.98	39.54	43.92	52.77	57.67	73.88	137.5	105.5	78.24	75.04	226.0	1552	1478	62.95	22.34	20.50	18.34	17.80	15.96	16.70	16.61	17.03	17.16	16.70	16.18	16.34	16.45	16.26	15.56	14.43	13.80	13.27	12.02	10.71	10.43	9.754	9.084	7.897	7.670	7.335	6.971	6.681	6.117	5.870	5.567	4.926	4.402	4.007	3.751	3.550	3.820	3.859	3.312	2.316	1.962	1.850	1.638	1.304	1.219	1.113	1.257	0.975	0.592	0.567	0.585	0.802	1.322	2.531	12.76	72.05	265.8	498.1	310.6	17.27
595.0	-32.50	8.053	33.03	31.96	30.05	37.17	47.32	50.09	58.91	96.13	127.7	74.44	65.98	88.80	451.8	2277	435.5	19.68	16.20	14.98	13.57	12.74	12.74	13.13	13.06	12.74	12.53	12.47	12.71	12.65	11.96	11.63	11.51	10.63	9.851	9.515	8.387	8.332	7.657	7.120	6.305	6.184	5.628	5.776	5.198	4.765	4.404	4.520	3.876	3.426	3.059	2.818	2.659	2.806	2.790	3.007	2.296	1.597	1.277	1.439	0.774	0.854	0.736	0.648	0.904	0.698	0.337	0.246	0.293	0.410	0.574	2.826	16.05	59.14	134.8	377.3	281.8
600.0	-33.82	3.987	30.21	27.50	25.76	32.71	39.10	43.29	51.21	71.46	132.0	82.64	67.05	58.25	131.7	1574	898.8	40.70	13.31	12.48	11.69	10.12	10.56	11.15	11.00	10.27	9.940	9.712	10.21	10.15	10.12	9.052	9.017	8.748	8.153	7.643	6.430	6.701	6.099	5.868	5.240	4.721	4.383	4.230	4.143	3.748	3.540	3.507	3.209	2.907	2.493	2.528	2.111	2.096	2.085	2.387	2.261	1.425	1.131	0.990	0.709	0.606	0.581	0.509	0.593	0.728	0.415	0.182	0.151	0.050	0.054	0.597	3.483	12.94	30.09	126.5	505.9
605.0	-35.41	4.897	29.83	23.91	26.31	30.46	38.97	42.16	48.33	66.71	124.8	103.0	71.62	54.24	58.29	622.1	1654	97.01	11.59	10.53	10.02	8.537	8.691	8.928	8.770	8.739	8.550	8.201	8.637	8.711	8.609	7.989	7.564	7.776	6.991	6.372	5.855	5.421	4.987	4.751	4.435	4.004	3.700	3.502	3.513	3.071	3.001	2.992	2.456	2.460	2.115	1.938	1.772	1.540	1.646	1.860	2.068	1.422	0.994	0.754	0.604	0.517	0.417	0.396	0.335	0.599	0.561	0.244	0.024	-0.110	0.058	-0.003	0.600	2.739	6.610	28.66	205.4
610.0	-29.92	-2.723	27.88	24.66	22.14	28.67	38.45	48.55	57.65	73.58	108.0	135.8	87.37	63.40	51.54	179.5	1170	868.0	34.04	8.644	7.902	6.764	6.887	6.860	7.115	7.097	7.025	6.616	6.917	6.570	6.397	6.035	5.946	5.655	5.413	4.725	4.590	4.092	4.013	3.705	3.350	3.024	3.118	2.702	2.803	2.429	2.430	2.318	1.847	1.917	1.764	1.485	1.278	1.146	1.312	1.211	1.488	1.267	0.879	0.583	0.506	0.401	0.310	0.355	0.190	0.203	0.383	0.387	0.145	-0.112	-0.078	-0.050	-0.039	0.417	1.248	6.007	46.79
615.0	-32.85	2.278	24.41	23.59	20.08	24.24	37.64	47.33	59.40	77.91	93.79	137.9	105.1	69.72	52.76	70.53	361.1	1424	251.4	7.442	6.702	5.752	5.590	5.297	5.598	5.834	5.272	5.257	4.638	4.774	4.835	4.675	4.455	4.123	4.159	3.712	3.216	3.054	2.896	2.709	2.559	2.251	2.195	2.082	2.178	1.766	1.765	1.650	1.443	1.496	1.305	1.136	0.864	0.811	0.795	0.762	0.788	0.845	0.846	0.566	0.328	0.225	0.079	0.232	0.135	0.135	0.089	0.209	0.181	-0.069	-0.185	-0.138	-0.236	-0.196	0.091	1.005	10.04
620.0	-34.09	4.623	22.37	24.82	24.60	22.67	34.32	42.80	58.02	70.57	87.31	118.8	115.5	73.04	51.58	45.77	109.9	1048	663.2	15.83	5.883	4.609	4.159	3.954	4.629	4.631	4.138	3.958	3.821	3.577	3.766	3.396	3.353	3.347	3.113	2.883	2.642	2.581	2.001	2.051	2.039	1.789	1.729	1.500	1.741	1.466	1.446	1.264	1.073	1.061	0.991	0.796	0.584	0.575	0.503	0.476	0.421	0.559	0.737	0.508	0.342	0.138	0.118	0.265	0.015	0.026	0.024	0.060	0.139	-0.073	-0.157	-0.137	-0.181	-0.353	-0.213	-0.100	1.851
625.0	-29.45	-0.932	28.40	25.03	18.48	24.98	32.10	44.93	52.99	70.72	83.04	101.1	123.5	73.63	51.39	39.12	48.96	438.5	1191	65.69	5.393	4.000	3.433	3.413	3.672	3.616	3.518	3.046	3.113	3.024	3.095	2.844	2.640	2.618	2.411	2.175	2.122	1.905	1.673	1.650	1.559	1.483	1.401	1.260	1.327	0.982	1.118	0.966	0.991	0.779	0.876	0.485	0.515	0.467	0.315	0.345	0.443	0.254	0.553	0.515	0.253	0.121	0.176	0.164	-0.091	-0.097	-0.058	0.007	-0.005	0.105	-0.264	-0.296	-0.321	-0.340	-0.385	-0.522	0.094
630.0	-33.63	-4.631	23.47	22.87	19.54	25.74	32.12	42.84	51.37	66.56	77.39	90.93	113.0	84.87	53.09	38.29	35.80	123.7	899.2	595.1	17.85	3.315	3.159	2.847	2.832	2.663	2.414	2.202	2.473	2.184	2.370	2.055	1.859	1.927	1.759	1.661	1.441	1.407	1.280	1.250	1.011	0.953	0.787	0.852	0.819	0.670	0.719	0.624	0.593	0.601	0.494	0.234	0.310	0.216	0.127	0.205	0.139	0.073	0.173	0.313	0.217	0.053	-0.044	-0.055	-0.144	-0.183	-0.108	-0.106	-0.167	0.006	-0.078	-0.302	-0.327	-0.368	-0.453	-0.571	-0.390
635.0	-35.89	5.030	23.35	19.62	20.90	25.01	31.86	39.43	50.37	63.55	75.98	90.51	93.69	99.22	60.12	39.78	34.23	43.51	274.3	1093	73.14	3.171	2.444	1.930	1.943	2.105	1.927	1.637	1.584	1.469	1.508	1.338	1.493	1.316	1.567	1.033	1.153	0.841	0.848	0.765	0.618	0.474	0.454	0.341	0.618	0.422	0.382	0.428	0.309	0.426	0.257	0.107	0.117	0.058	-0.020	-0.015	-0.012	-0.106	-0.104	-0.019	0.091	0.021	-0.091	-0.087	-0.210	-0.207	-0.086	-0.103	-0.192	-0.167	-0.206	-0.141	-0.205	-0.375	-0.398	-0.525	-0.451
640.0	-25.21	17.62	36.45	21.73	17.63	24.42	35.49	43.59	47.52	65.39	78.16	88.82	90.42	104.1	71.66	45.70	36.99	28.04	74.96	890.1	544.8	7.107	1.853	1.748	1.879	1.547	1.552	1.285	1.090	1.166	1.114	1.299	0.923	0.947	1.072	0.685	0.707	0.653	0.520	0.517	0.394	0.233	0.212	0.370	0.236	0.229	0.423	0.238	0.292	0.272	0.115	0.046	-0.050	0.030	-0.083	-0.137	-0.081	-0.175	-0.204	0.023	-0.058	-0.108	-0.033	-0.178	-0.224	-0.238	-0.152	-0.120	-0.251	-0.248	-0.267	-0.193	-0.223	-0.466	-0.469	-0.504	-0.494
645.0	-26.14	28.27	37.57	27.22	19.14	24.85	31.32	43.75	47.70	61.84	78.36	89.99	91.90	103.9	84.45	49.55	39.58	26.89	26.72	413.9	1321	43.26	2.135	1.626	1.793	1.187	1.318	1.009	0.971	0.736	0.755	0.836	0.754	0.699	0.784	0.668	0.417	0.424	0.410	0.344	0.326	0.083	0.138	0.108	0.150	0.113	0.239	0.293	0.155	0.144	0.039	0.018	-0.038	-0.145	-0.083	-0.156	-0.243	-0.173	-0.282	-0.114	-0.238	-0.114	-0.044	-0.247	-0.166	-0.197	-0.202	-0.213	-0.248	-0.210	-0.331	-0.286	-0.290	-0.351	-0.378	-0.490	-0.551
650.0	-21.96	31.52	55.19	35.96	19.89	23.05	30.83	42.10	48.80	64.14	77.57	90.51	90.40	94.36	89.04	50.89	39.11	25.51	16.39	127.3	1449	254.3	2.613	1.245	1.606	1.262	0.995	0.726	0.951	0.629	0.531	0.420	0.654	0.662	0.353	0.452	0.285	0.138	0.303	0.121	0.074	0.000	-0.006	-0.035	-0.106	0.051	0.101	0.196	0.198	0.135	0.023	-0.123	-0.078	-0.227	-0.197	-0.205	-0.230	-0.279	-0.217	-0.176	-0.252	-0.210	-0.080	-0.231	-0.170	-0.277	-0.190	-0.191	-0.344	-0.353	-0.302	-0.220	-0.287	-0.219	-0.347	-0.545	-0.605
