Sample:	'1
File name:	t2025060612袁家屋子东南闸口.FD3
Run date:	'15:44:55, 06/09/2025
Operator:	Administrator
Comment:	'

Instrument
Model:	F-2700 FL Spectrophotometer
Serial number:	23B8-004
ROM Version:	4J14000 07

Instrument parameters
Measurement type:	3-D scan
Data mode:	Fluorescence
EX  Start WL:	220.0 nm
EX  End WL:	600.0 nm
EX Sampling interval:	5.0 nm
EM  Start WL:	230.0 nm
EM  End WL:	650.0 nm
EM Sampling interval:	5.0 nm
Scan speed:	12000 nm/min
EX Slit:	5.0 nm
EM Slit:	5.0 nm
PMT Voltage:	700 V
Response:	Auto 
Corrected spectra:	Off
Contour interval:	50.000

Peak integration
Integration method:	Rectangular
Sensitivity:	1
Threshold:	1.000

Peaks
No.	ApexEX/EM(nm)	Height(Data)
1	225.0/560.0	86.38
2	225.0/575.0	85.03
3	225.0/605.0	66.17
4	230.0/345.0	1370
5	230.0/595.0	65.64
6	235.0/405.0	1048
7	240.0/265.0	317.3
8	240.0/520.0	275.1
9	245.0/270.0	319.9
10	245.0/535.0	233.7
11	250.0/275.0	406.7
12	250.0/545.0	185.2
13	255.0/280.0	518.3
14	255.0/560.0	149.1
15	260.0/285.0	519.5
16	260.0/575.0	118.2
17	265.0/585.0	108.8
18	270.0/300.0	949.5
19	270.0/595.0	92.80
20	275.0/305.0	1130
21	275.0/375.0	853.6
22	275.0/610.0	86.65
23	280.0/310.0	1040
24	280.0/340.0	908.1
25	280.0/365.0	854.3
26	280.0/625.0	71.02
27	285.0/320.0	965.1
28	285.0/635.0	54.45
29	290.0/325.0	908.8
30	305.0/345.0	614.6
31	320.0/365.0	497.4
32	445.0/525.0	23.36
33	455.0/340.0	3.699
34	460.0/345.0	3.819
35	505.0/275.0	2.807
36	510.0/280.0	3.098
37	520.0/285.0	3.443
38	530.0/290.0	3.478
39	540.0/295.0	4.926
40	545.0/300.0	5.284
41	555.0/305.0	5.548
42	560.0/310.0	5.547
43	575.0/315.0	5.532
44	580.0/320.0	5.573
45	585.0/325.0	5.755

Data points
	220.0	225.0	230.0	235.0	240.0	245.0	250.0	255.0	260.0	265.0	270.0	275.0	280.0	285.0	290.0	295.0	300.0	305.0	310.0	315.0	320.0	325.0	330.0	335.0	340.0	345.0	350.0	355.0	360.0	365.0	370.0	375.0	380.0	385.0	390.0	395.0	400.0	405.0	410.0	415.0	420.0	425.0	430.0	435.0	440.0	445.0	450.0	455.0	460.0	465.0	470.0	475.0	480.0	485.0	490.0	495.0	500.0	505.0	510.0	515.0	520.0	525.0	530.0	535.0	540.0	545.0	550.0	555.0	560.0	565.0	570.0	575.0	580.0	585.0	590.0	595.0	600.0
230.0	61.20	685.0	2018	717.6	37.52	5.393	4.133	3.350	2.850	2.711	2.632	2.351	2.228	1.874	1.479	1.293	1.198	1.117	0.983	0.869	0.764	0.714	0.672	0.664	0.558	0.511	0.519	0.491	0.458	0.441	0.436	0.415	0.415	0.340	0.353	0.336	0.346	0.318	0.260	0.294	0.359	0.538	0.534	0.390	0.252	0.263	0.805	3.848	7.039	5.219	2.075	0.498	0.206	0.179	0.173	0.166	0.186	0.191	0.171	0.172	0.177	0.165	0.194	0.167	0.186	0.166	0.186	0.154	0.192	0.171	0.185	0.158	0.184	0.174	0.184	0.189	0.177
235.0	142.0	205.6	1049	1909	551.5	58.76	4.939	3.629	3.154	3.342	3.154	2.582	2.705	2.571	1.645	1.367	1.238	1.149	0.952	0.846	0.773	0.642	0.653	0.668	0.599	0.616	0.595	0.500	0.412	0.395	0.477	0.439	0.356	0.319	0.388	0.306	0.326	0.302	0.295	0.299	0.303	0.299	0.431	0.561	0.627	0.408	0.392	1.047	2.559	4.131	6.012	7.097	3.132	0.797	0.213	0.140	0.182	0.185	0.215	0.150	0.178	0.150	0.143	0.195	0.174	0.174	0.173	0.172	0.229	0.127	0.200	0.179	0.184	0.164	0.166	0.181	0.136
240.0	180.9	167.3	301.1	1361	2105	442.7	31.52	4.157	4.307	3.310	3.001	2.503	2.374	2.208	1.946	1.398	1.325	1.003	0.871	0.697	1.071	0.640	0.758	0.583	0.572	0.631	0.688	0.519	0.478	0.390	0.405	0.421	0.326	0.313	0.377	0.274	0.315	0.333	0.321	0.306	0.315	0.334	0.320	0.371	0.574	0.650	0.559	0.518	0.736	1.217	2.951	7.537	10.44	7.253	2.879	0.530	0.234	0.212	0.202	0.164	0.180	0.138	0.215	0.148	0.190	0.177	0.173	0.196	0.217	0.156	0.163	0.153	0.185	0.167	0.146	0.165	0.163
245.0	114.1	240.0	155.1	423.4	1912	2188	330.1	15.16	4.532	3.642	3.244	2.652	2.242	2.176	1.879	1.524	1.216	1.265	1.012	0.770	0.894	0.805	0.802	0.592	0.733	0.517	0.581	0.523	0.488	0.404	0.342	0.440	0.404	0.294	0.299	0.309	0.303	0.281	0.271	0.359	0.306	0.340	0.284	0.283	0.343	0.643	0.856	0.688	0.439	0.434	0.805	2.354	6.408	11.23	12.23	7.158	2.066	0.366	0.224	0.150	0.218	0.166	0.192	0.158	0.190	0.189	0.224	0.176	0.248	0.165	0.156	0.202	0.199	0.234	0.151	0.210	0.164
250.0	44.90	154.0	241.6	206.5	570.6	1766	2576	1090	75.15	5.252	5.022	3.501	2.467	2.502	2.088	1.774	1.401	1.287	1.212	1.136	0.927	0.879	0.744	0.664	0.751	0.549	0.665	0.623	0.493	0.408	0.406	0.448	0.400	0.368	0.374	0.342	0.286	0.310	0.309	0.357	0.258	0.327	0.291	0.280	0.271	0.354	0.496	0.700	0.864	0.850	0.610	0.839	1.685	3.468	6.652	10.52	13.86	12.96	7.615	2.339	0.391	0.207	0.209	0.205	0.197	0.177	0.227	0.175	0.183	0.176	0.200	0.195	0.185	0.201	0.212	0.179	0.215
255.0	28.28	51.43	136.2	290.8	234.1	436.3	1583	3944	1583	86.98	5.840	4.688	3.372	2.874	2.080	1.716	1.522	1.442	1.260	1.072	1.059	0.918	0.868	0.622	0.768	0.577	0.635	0.564	0.550	0.510	0.533	0.411	0.453	0.443	0.408	0.280	0.392	0.333	0.302	0.294	0.276	0.322	0.286	0.296	0.235	0.312	0.285	0.355	0.431	0.722	1.164	1.257	0.908	0.961	1.700	2.598	4.653	11.12	21.28	23.26	12.32	2.892	0.323	0.177	0.190	0.159	0.211	0.207	0.222	0.215	0.179	0.251	0.173	0.215	0.224	0.191	0.202
260.0	31.26	28.17	54.31	227.8	301.9	164.3	448.1	2663	4680	1236	41.82	5.862	4.064	3.546	2.684	1.982	1.884	1.502	1.224	1.109	0.957	0.893	0.758	0.643	0.929	0.601	0.602	0.586	0.581	0.561	0.476	0.488	0.419	0.459	0.374	0.357	0.371	0.281	0.305	0.303	0.249	0.343	0.312	0.321	0.294	0.289	0.311	0.260	0.238	0.366	0.653	1.295	1.615	1.101	0.694	0.824	1.264	3.001	8.460	19.17	28.97	24.09	9.754	1.474	0.259	0.188	0.229	0.222	0.252	0.270	0.191	0.232	0.180	0.199	0.216	0.188	0.165
265.0	29.85	25.37	21.98	93.46	317.3	255.0	136.5	809.5	3981	5043	223.0	16.71	5.139	3.841	3.425	2.278	2.155	1.696	1.326	1.138	1.270	1.013	0.964	0.802	0.893	0.720	0.639	0.633	0.588	0.554	0.512	0.565	0.421	0.456	0.398	0.392	0.358	0.290	0.299	0.275	0.300	0.305	0.332	0.339	0.310	0.284	0.249	0.242	0.230	0.249	0.304	0.605	1.331	1.784	1.416	0.734	0.491	0.915	2.209	5.431	13.95	28.29	31.99	21.38	6.377	0.729	0.303	0.265	0.249	0.277	0.207	0.259	0.187	0.201	0.202	0.195	0.202
270.0	53.90	48.34	37.11	42.67	134.0	319.9	274.1	232.4	1155	3840	5520	834.0	56.95	6.355	4.395	3.194	2.696	2.034	1.504	1.419	1.315	1.018	1.071	0.849	0.784	0.722	0.705	0.730	0.602	0.622	0.555	0.567	0.448	0.472	0.518	0.452	0.418	0.429	0.351	0.338	0.362	0.329	0.331	0.366	0.343	0.341	0.291	0.302	0.271	0.282	0.277	0.343	0.518	0.968	1.532	1.760	1.547	1.039	0.847	1.479	3.463	7.857	14.80	25.08	28.90	30.38	15.34	6.014	0.726	0.314	0.262	0.301	0.231	0.211	0.200	0.226	0.258
275.0	131.4	125.5	97.08	55.49	57.42	131.5	406.7	327.6	309.4	931.8	3017	7760	1210	60.30	6.697	4.482	3.154	2.572	2.011	1.718	1.383	1.287	1.013	0.917	0.850	0.886	0.752	0.804	0.675	0.646	0.558	0.620	0.512	0.623	0.610	0.611	0.615	0.578	0.451	0.483	0.439	0.452	0.490	0.446	0.463	0.573	0.467	0.624	0.428	0.371	0.318	0.352	0.306	0.436	0.627	0.764	1.666	2.807	2.200	1.211	1.131	2.136	3.700	6.013	8.332	18.57	38.07	49.52	24.56	6.915	0.553	0.346	0.283	0.235	0.196	0.267	0.341
280.0	226.9	250.6	173.1	95.40	55.09	59.68	228.3	518.3	253.3	277.8	835.8	4837	7981	890.3	25.29	6.431	4.387	3.132	2.571	1.769	1.460	1.452	1.002	1.027	0.922	0.781	0.910	0.720	0.761	0.775	0.762	0.563	0.549	0.637	0.675	0.882	0.800	0.829	0.606	0.640	0.611	0.523	0.636	0.624	0.629	0.780	0.692	0.707	0.738	0.564	0.422	0.394	0.345	0.366	0.357	0.446	0.772	1.777	3.098	2.606	1.367	0.917	1.227	1.796	2.385	4.849	12.35	31.29	50.45	33.25	19.64	3.490	0.390	0.278	0.253	0.297	0.274
285.0	343.4	331.3	260.7	145.7	73.20	52.90	103.9	403.6	519.5	208.0	294.9	1413	6493	6990	123.1	12.18	4.880	3.691	2.867	2.395	1.537	1.703	1.120	1.204	0.892	0.981	0.908	0.785	0.721	0.788	0.744	0.678	0.642	0.696	0.877	1.063	0.916	1.039	0.717	0.719	0.692	0.751	0.757	0.819	0.787	0.902	0.875	1.060	0.905	0.820	0.601	0.529	0.450	0.392	0.341	0.402	0.551	0.820	1.488	2.818	3.443	2.122	1.154	0.912	1.146	1.765	3.389	8.143	19.01	37.35	56.29	30.00	13.32	1.375	0.379	0.368	0.303
290.0	468.3	466.0	388.1	228.7	118.3	83.98	96.66	201.2	489.7	578.3	324.9	504.2	1853	5169	6147	1697	31.18	5.385	4.179	2.844	1.906	1.823	1.519	1.308	1.171	1.073	0.963	0.878	0.787	0.644	0.751	0.690	0.752	0.822	1.099	1.258	1.271	1.191	1.083	1.014	0.825	0.868	0.942	1.061	1.072	1.198	1.236	1.373	1.311	0.954	0.780	0.794	0.604	0.573	0.461	0.478	0.549	0.643	0.850	1.313	2.213	2.923	3.478	2.743	1.750	1.452	1.735	2.769	5.280	9.880	19.76	29.02	40.75	37.22	20.27	10.19	1.768
295.0	581.1	589.0	490.5	307.2	167.0	127.0	128.0	179.4	288.6	613.8	784.4	452.7	661.5	1341	3239	7530	693.9	30.83	5.559	3.404	2.592	2.415	1.686	1.491	1.464	1.227	1.162	0.879	0.988	0.921	0.871	0.702	0.897	0.877	1.141	1.497	1.452	1.387	1.225	1.120	1.157	1.083	1.179	1.256	1.207	1.463	1.538	1.553	1.512	1.221	0.999	0.901	0.843	0.766	0.579	0.573	0.750	0.843	0.888	0.960	1.342	1.659	2.195	3.763	4.926	3.455	2.194	1.954	2.620	3.472	5.518	7.514	10.52	16.34	34.98	56.27	31.98
300.0	613.8	647.7	545.5	364.8	204.6	165.4	172.4	215.0	285.4	466.4	949.5	762.5	489.2	524.7	937.0	4685	5788	521.8	14.18	4.854	3.209	2.784	2.131	1.842	1.532	1.217	1.221	0.939	0.761	0.968	0.830	0.822	0.771	0.990	1.253	1.483	1.522	1.537	1.300	1.363	1.204	1.119	1.183	1.227	1.345	1.539	1.555	1.892	1.755	1.448	1.254	1.040	0.972	0.844	0.899	0.753	0.952	1.068	1.074	1.133	1.263	1.387	1.706	2.453	4.223	5.284	4.469	2.933	2.434	2.491	2.723	2.812	3.390	4.651	10.17	26.09	48.11
305.0	637.7	692.1	592.7	404.5	251.4	212.1	229.5	274.6	343.3	462.6	771.0	1130	655.9	426.4	404.1	1355	5609	4842	74.97	7.518	3.775	3.100	2.267	1.905	1.529	1.372	1.173	1.161	1.050	1.144	0.915	0.758	0.835	0.946	1.284	1.541	1.704	1.675	1.515	1.364	1.210	1.348	1.274	1.359	1.397	1.652	1.638	1.896	1.895	1.569	1.359	1.182	1.166	1.029	1.105	0.896	1.068	1.198	1.300	1.506	1.553	1.749	2.015	2.142	3.123	4.264	5.262	5.548	4.025	2.851	2.683	2.242	2.124	2.197	3.242	6.704	15.15
310.0	667.6	709.3	618.7	434.1	287.9	257.1	275.7	331.7	400.5	506.9	665.9	961.3	1040	595.8	352.9	452.8	1613	4308	4720	1211	20.07	4.291	2.940	2.394	1.994	1.638	1.346	1.281	1.189	1.072	0.981	0.795	0.893	1.015	1.277	1.542	1.677	1.629	1.619	1.535	1.359	1.341	1.392	1.416	1.605	1.760	1.683	1.935	1.862	1.638	1.246	1.224	1.210	1.220	1.144	1.120	1.276	1.481	1.564	1.751	1.797	2.072	2.292	2.518	3.038	3.272	3.898	4.967	5.547	5.354	4.108	2.714	2.411	2.109	2.036	2.464	4.336
315.0	711.4	697.1	658.3	458.0	327.9	298.3	323.8	376.5	440.9	548.4	665.4	798.5	929.6	956.9	481.3	304.1	496.6	1075	2913	5986	484.6	17.09	4.188	2.957	2.425	1.869	1.458	1.349	1.304	1.157	1.054	0.911	0.872	0.891	1.356	1.405	1.567	1.746	1.534	1.397	1.380	1.398	1.424	1.415	1.662	1.884	1.646	1.944	1.758	1.529	1.451	1.393	1.428	1.254	1.183	1.277	1.471	1.565	1.485	1.960	2.113	2.134	2.410	2.664	3.072	3.345	3.617	3.994	4.009	4.702	5.353	5.532	3.937	2.521	2.046	1.897	2.180
320.0	734.4	827.4	731.1	515.2	370.5	333.6	359.5	410.7	487.5	587.1	700.4	787.0	830.7	965.1	749.2	354.4	298.6	364.3	813.5	4169	4115	364.3	8.045	3.804	2.446	2.126	1.450	1.535	1.242	1.124	0.933	1.087	0.967	0.996	1.247	1.447	1.541	1.608	1.487	1.497	1.347	1.487	1.426	1.485	1.555	1.924	1.955	2.411	2.247	1.758	1.368	1.449	1.529	1.445	1.387	1.440	1.649	1.828	1.899	2.009	2.079	2.334	2.655	3.144	3.269	3.316	3.688	3.672	3.867	4.045	4.247	5.289	5.573	4.163	2.657	2.198	1.949
325.0	830.1	980.6	906.3	625.2	435.7	365.2	395.4	450.0	518.0	624.6	740.9	813.8	825.0	831.3	908.8	523.6	301.3	238.2	279.0	1235	4624	3498	55.06	5.821	3.438	2.590	1.893	1.955	1.427	1.304	1.057	1.065	0.994	1.086	1.256	1.354	1.370	1.591	1.549	1.469	1.528	1.543	1.531	1.656	1.709	2.318	2.339	2.681	2.570	2.107	1.717	1.951	1.663	1.615	1.459	1.565	1.818	1.933	1.907	2.267	2.285	2.527	2.747	3.142	3.204	3.527	3.883	3.960	4.119	4.124	3.906	4.176	4.726	5.755	4.535	2.970	2.380
330.0	930.5	1112	1118	823.4	554.6	443.7	435.6	479.1	550.7	649.8	763.4	848.2	856.7	798.0	774.4	726.8	459.4	261.3	194.1	368.1	1371	3514	3664	881.9	15.42	3.419	2.302	2.065	1.740	1.316	1.195	1.036	1.042	1.035	1.195	1.227	1.452	1.449	1.599	1.374	1.446	1.599	1.494	1.791	1.938	2.531	2.605	3.098	3.010	2.779	2.378	2.432	2.098	1.940	1.735	1.727	1.980	2.030	2.083	2.332	2.587	2.617	2.958	3.272	3.364	3.611	3.935	3.703	4.169	4.217	4.149	4.086	3.982	4.415	4.518	4.446	3.822
335.0	997.7	1245	1264	987.6	689.0	535.3	494.0	516.4	576.6	682.2	798.0	871.9	895.6	832.9	734.4	666.7	683.2	404.6	227.4	213.9	385.0	863.7	2615	4772	392.7	13.22	3.477	2.317	2.182	1.680	1.364	1.264	1.078	1.161	1.251	1.208	1.393	1.481	1.469	1.496	1.545	1.549	1.636	1.762	2.075	2.423	2.796	3.345	3.342	3.302	2.795	2.941	2.773	2.279	2.088	2.032	2.312	2.144	2.316	2.473	2.764	2.765	3.167	3.341	3.536	3.879	3.966	4.100	4.390	4.312	4.107	4.177	4.353	3.938	4.010	3.962	3.839
340.0	1015	1285	1339	1095	782.2	585.1	536.8	545.8	603.3	698.6	800.9	887.5	908.1	852.1	752.2	636.7	655.9	575.1	299.4	205.6	189.4	255.0	727.8	3633	3375	303.3	6.700	3.477	2.517	1.890	1.593	1.375	1.165	1.097	1.226	1.314	1.325	1.457	1.530	1.616	1.513	1.469	1.655	1.819	2.248	2.679	2.917	3.699	3.632	3.247	2.894	3.007	2.686	2.286	2.309	2.177	2.496	2.250	2.493	2.455	2.675	2.980	3.056	3.225	3.511	3.930	3.685	4.456	4.471	4.338	4.287	4.422	4.503	4.390	4.004	3.699	3.559
345.0	1042	1296	1370	1140	834.1	634.0	574.9	578.5	629.0	697.8	800.6	882.2	896.8	860.2	772.8	637.2	576.7	614.6	434.0	237.5	169.8	141.2	218.0	1105	4039	2883	47.23	4.838	2.864	2.235	1.637	1.417	1.215	1.116	1.267	1.275	1.262	1.568	1.449	1.486	1.477	1.373	1.812	1.912	2.225	2.701	2.987	3.638	3.819	3.465	3.109	3.387	2.904	2.592	2.552	2.383	2.521	2.621	2.349	2.610	2.863	2.844	3.215	3.086	3.685	3.833	3.814	3.986	4.213	4.311	4.266	4.378	4.382	4.313	3.972	3.675	3.482
350.0	989.1	1235	1313	1154	886.6	692.0	627.1	605.9	645.0	713.1	792.1	856.1	882.8	851.1	772.6	658.4	573.3	536.7	529.6	378.3	218.7	156.4	139.1	309.9	1225	2937	2947	218.5	13.71	3.005	1.994	1.674	1.349	1.251	1.265	1.409	1.407	1.625	1.350	1.316	1.476	1.512	1.695	1.927	2.023	2.565	2.813	3.462	3.639	3.317	3.170	3.438	3.146	2.787	2.764	2.603	2.842	2.794	2.639	2.919	2.747	3.055	3.175	3.372	3.559	3.621	3.725	3.893	4.008	4.088	4.210	4.329	4.236	4.322	4.134	3.937	3.715
355.0	948.9	1182	1258	1141	932.5	766.6	690.6	656.1	696.1	735.4	795.3	843.1	862.6	844.3	779.7	685.9	609.8	534.7	491.1	508.3	349.5	209.3	161.7	165.1	335.8	726.2	2122	3229	354.6	13.40	2.953	2.178	1.481	1.479	1.261	1.288	1.359	1.371	1.259	1.343	1.413	1.481	1.653	1.831	1.992	2.471	2.716	3.275	3.336	3.220	3.065	3.548	3.363	3.075	2.979	2.673	2.989	2.979	2.805	2.964	3.038	3.094	3.303	3.338	3.568	3.457	3.759	3.826	3.839	4.161	4.212	3.961	4.203	4.202	4.290	4.297	3.961
360.0	944.0	1152	1219	1126	954.4	816.7	741.9	705.9	722.9	758.4	802.1	842.9	853.0	840.8	781.3	713.0	635.0	556.7	491.0	490.0	470.0	290.3	199.8	158.9	159.4	220.4	592.3	2781	3019	287.5	6.151	2.798	2.097	1.801	1.397	1.385	1.290	1.456	1.446	1.462	1.388	1.543	1.572	1.968	2.001	2.415	2.822	3.094	3.090	3.259	2.999	3.487	3.452	3.405	3.359	2.917	3.336	3.224	2.973	3.315	3.221	3.304	3.334	3.539	3.453	3.667	3.793	3.872	4.072	4.109	4.102	4.037	4.366	4.668	4.428	4.162	4.217
365.0	935.3	1108	1203	1131	972.8	849.7	778.0	741.7	756.4	784.7	814.4	847.6	854.3	834.3	789.5	715.6	653.8	583.7	512.6	470.7	497.4	407.3	253.7	185.9	143.3	125.8	183.3	856.5	3365	2650	45.31	4.215	2.479	1.803	1.627	1.394	1.412	1.471	1.370	1.440	1.408	1.589	1.496	1.843	1.965	2.200	2.631	2.978	3.287	3.082	2.956	3.615	3.642	3.232	3.364	3.045	3.309	3.254	3.302	3.306	3.373	3.390	3.529	3.609	3.571	3.988	3.813	3.868	3.933	3.904	4.262	4.343	4.252	4.558	4.240	4.166	4.238
370.0	900.8	1094	1162	1095	999.1	892.5	817.2	784.5	786.6	814.1	842.7	851.4	853.2	835.5	789.4	731.3	675.7	619.3	556.5	505.0	475.5	471.1	384.2	249.4	182.1	139.4	118.9	245.0	1012	2590	2701	693.7	12.95	2.582	1.995	1.577	1.590	1.616	1.569	1.427	1.429	1.664	1.625	1.852	2.091	2.445	2.486	2.944	2.983	3.008	2.882	3.582	3.524	3.423	3.311	3.404	3.450	3.487	3.501	3.284	3.429	3.359	3.639	3.739	3.760	3.726	3.649	3.967	4.094	4.048	4.109	4.369	4.244	4.370	4.369	4.309	4.248
375.0	879.6	1026	1104	1072	1025	930.9	859.5	830.4	820.9	831.5	844.7	853.6	851.0	831.3	792.1	742.1	701.3	647.4	597.5	543.1	493.7	456.8	461.2	368.9	239.0	180.4	134.7	135.8	279.2	641.3	1903	3019	314.4	13.09	2.720	2.187	1.774	1.718	1.498	1.552	1.446	1.741	1.734	1.863	2.098	2.346	2.544	2.928	2.834	2.961	2.817	3.311	3.676	3.535	3.583	3.511	3.639	3.457	3.695	3.482	3.570	3.653	3.871	3.831	3.561	3.606	3.826	3.923	4.027	4.051	4.250	4.406	4.245	4.598	4.482	4.342	4.616
380.0	900.9	1015	1106	1088	1031	940.4	885.8	844.6	844.0	845.7	846.8	849.5	846.1	822.7	782.4	746.1	702.6	665.5	622.8	573.7	518.9	467.3	453.0	447.4	305.2	212.9	164.6	131.5	133.8	194.2	530.2	2509	2610	245.8	6.155	2.682	2.015	1.968	1.578	1.692	1.561	1.739	1.739	2.075	2.210	2.346	2.617	2.814	2.813	2.931	2.916	3.336	3.853	3.592	3.430	3.713	3.514	3.651	3.610	3.587	3.655	3.764	3.644	3.973	3.567	3.775	3.843	3.992	4.165	4.179	4.388	4.075	4.238	4.604	4.138	4.357	4.463
385.0	918.4	1043	1090	1082	1042	964.5	903.9	870.7	847.6	847.7	847.8	847.7	847.3	822.5	783.6	742.2	704.8	674.1	636.9	595.3	543.2	486.1	444.8	451.5	395.0	266.0	198.3	152.4	120.2	108.6	163.4	759.8	2703	2192	38.10	4.163	2.481	2.188	1.770	1.629	1.722	1.746	1.750	1.833	2.146	2.245	2.409	2.744	2.979	2.872	2.823	3.421	3.816	3.661	3.509	3.443	3.843	3.700	3.722	3.845	3.748	3.722	3.790	3.607	3.779	3.863	4.024	3.605	3.999	4.154	4.085	4.255	4.022	4.582	4.446	4.293	4.481
390.0	915.2	1036	1069	1057	1033	980.8	915.9	881.4	862.5	855.7	852.7	845.9	833.2	815.0	776.3	739.8	708.6	678.5	653.4	613.6	569.8	521.9	475.5	440.6	431.3	365.8	259.9	194.2	153.8	122.4	107.4	218.6	794.0	1940	2024	565.3	12.71	2.878	2.032	1.890	1.711	1.805	1.927	1.905	2.126	2.429	2.400	2.679	2.824	2.733	2.793	3.593	3.662	3.633	3.696	3.583	3.801	3.801	3.795	3.750	3.843	3.945	3.797	3.822	3.900	3.827	4.027	3.766	3.894	4.094	4.208	4.095	4.271	4.443	4.392	4.163	4.484
395.0	910.1	1009	1070	1056	1020	986.9	934.4	898.9	883.0	860.4	855.5	840.5	839.3	807.2	773.6	733.7	708.2	681.8	658.3	628.6	586.3	546.2	503.8	462.0	425.8	415.5	359.8	251.6	201.7	161.5	124.8	117.6	226.6	486.2	1303	2379	272.4	13.65	2.926	2.211	1.942	1.824	1.966	2.052	2.190	2.412	2.449	2.809	2.738	2.584	2.738	3.534	3.686	3.611	3.605	3.532	3.751	3.917	3.880	3.658	3.853	4.065	3.861	3.754	3.842	3.870	3.893	3.733	3.987	4.075	3.991	4.014	4.484	4.043	4.173	4.405	4.367
400.0	898.4	1009	1051	1027	1028	991.9	933.8	900.4	886.2	857.3	858.5	847.2	834.1	799.2	766.5	725.1	704.9	680.5	659.5	633.2	596.1	558.9	523.0	480.7	438.8	410.6	412.3	315.9	235.5	193.3	149.5	113.7	111.7	154.9	362.3	1647	2150	228.6	7.587	2.722	2.209	2.230	2.047	2.022	2.176	2.463	2.600	2.670	2.702	2.795	2.730	3.565	3.707	3.509	3.746	3.647	3.851	3.931	3.879	3.916	3.947	3.944	3.745	3.881	3.802	3.768	3.905	3.879	3.779	3.987	4.042	3.775	4.320	4.102	4.118	4.450	4.285
405.0	913.6	984.8	1026	1048	1011	988.1	938.8	918.3	889.6	873.2	864.3	846.8	835.0	802.7	759.6	720.0	690.6	673.9	656.0	630.2	599.0	568.6	534.1	496.3	457.4	417.1	409.6	378.8	283.2	221.8	176.0	129.2	98.90	89.54	120.3	470.7	1850	1798	36.01	4.342	2.603	2.262	2.183	2.025	2.100	2.309	2.799	2.667	2.716	2.693	2.938	3.542	3.582	3.549	3.699	3.543	3.862	3.921	3.877	3.824	3.901	3.885	3.917	3.777	4.125	3.827	3.772	3.899	3.786	3.863	3.999	4.073	4.190	4.108	4.057	4.302	4.114
410.0	876.6	969.6	1014	1020	997.8	973.6	940.2	924.4	893.4	873.3	862.2	839.5	821.5	785.0	746.2	703.1	673.0	654.4	636.4	620.2	594.7	566.8	537.8	507.3	469.0	433.9	400.5	390.8	355.0	272.6	206.6	155.0	115.8	89.86	77.42	139.0	513.8	1339	1554	511.1	13.08	2.793	2.378	2.179	2.159	2.290	2.617	2.700	2.836	2.801	2.756	3.337	3.612	3.547	3.843	3.631	3.728	3.899	4.008	3.943	3.769	3.863	3.988	3.876	3.887	3.682	3.709	3.835	3.817	3.769	3.765	3.896	3.995	3.857	3.954	4.197	4.033
415.0	884.2	978.1	991.0	989.1	972.0	960.6	934.3	918.5	888.2	870.1	849.2	833.5	790.4	764.0	722.9	682.1	647.6	636.8	615.5	600.6	580.3	556.3	535.6	510.2	476.3	442.3	408.0	381.4	374.4	337.1	243.6	179.9	137.3	105.0	79.82	73.12	142.8	323.4	827.5	1805	255.7	15.82	2.712	2.525	2.310	2.379	2.507	2.609	2.596	2.541	2.609	3.232	3.323	3.517	3.965	3.506	3.733	3.912	3.763	3.947	3.673	3.879	3.805	3.780	3.895	3.716	3.580	3.792	3.718	3.773	3.608	3.891	3.767	3.760	4.004	4.104	3.998
420.0	833.8	942.6	967.6	961.8	949.6	933.8	909.2	907.6	883.8	853.8	831.2	812.5	774.4	740.2	693.7	657.4	628.2	609.2	598.0	584.2	564.6	542.2	528.8	502.3	474.6	442.3	410.0	375.7	357.6	355.1	282.7	196.7	150.8	115.7	87.00	64.57	63.25	93.95	215.1	1056	1658	226.7	9.233	2.597	2.399	2.522	2.509	2.638	2.594	2.665	2.615	3.044	3.357	3.339	3.730	3.289	3.753	3.994	3.857	3.813	3.910	3.893	3.468	3.688	3.459	3.756	3.637	3.607	3.765	3.933	3.691	3.437	3.741	3.811	3.764	3.658	3.944
425.0	855.4	915.1	927.4	931.7	922.1	913.4	889.2	880.4	869.5	832.1	808.3	791.5	758.2	718.4	673.9	631.9	609.8	586.6	579.2	559.7	543.0	525.0	510.9	489.5	469.1	441.1	406.3	374.6	349.9	338.8	313.2	221.6	161.0	125.3	94.69	67.49	52.21	45.63	65.86	282.7	1208	1474	175.9	4.818	2.856	2.479	2.275	2.539	2.627	2.449	2.631	2.988	3.348	3.337	3.452	3.373	4.111	4.043	3.953	3.580	3.993	3.693	4.003	3.696	3.652	3.508	3.775	3.515	3.558	3.826	3.692	3.417	3.617	3.895	3.538	3.704	4.088
430.0	1012	892.7	907.9	903.0	889.8	887.0	872.6	868.8	852.1	821.4	799.4	771.6	738.4	688.6	647.8	607.0	579.7	563.0	550.1	532.5	518.1	505.3	492.1	475.9	456.7	430.4	405.1	375.1	350.9	321.9	301.2	256.4	187.3	136.4	105.5	77.70	57.69	41.99	37.73	79.36	316.9	918.7	1240	485.0	13.84	3.146	2.649	2.783	2.659	2.492	2.630	3.003	3.105	3.279	3.328	3.296	3.750	3.757	3.650	3.496	3.621	3.639	3.871	3.718	3.516	3.533	3.492	3.320	3.461	3.442	3.381	3.428	3.492	3.635	3.589	3.586	3.698
435.0	1530	885.2	856.7	865.2	863.6	856.1	856.5	853.0	829.0	818.7	781.4	752.7	717.2	669.9	619.5	571.5	550.3	535.5	521.5	509.7	492.8	483.5	467.9	454.5	439.7	420.5	400.7	372.0	347.9	319.7	286.2	258.2	223.6	160.4	117.8	89.32	68.08	49.83	37.97	38.43	86.31	218.3	539.0	1448	724.0	18.76	3.084	2.933	2.736	2.520	2.533	2.968	3.054	3.109	3.400	3.209	3.702	3.582	3.806	3.563	3.630	3.644	3.868	3.609	3.540	3.498	3.412	3.335	3.508	3.293	3.378	3.387	3.251	3.393	3.390	3.442	3.526
440.0	1863	1009	838.4	835.9	817.1	832.7	844.5	833.4	814.3	802.4	765.9	736.3	696.2	650.2	597.4	553.8	530.2	514.3	495.5	489.4	472.6	461.8	453.0	439.6	423.3	409.3	391.3	367.4	343.6	316.2	281.6	246.3	228.0	182.6	130.5	97.89	73.89	55.99	42.01	33.17	37.73	62.51	136.6	742.8	1537	230.8	11.78	3.313	2.820	2.552	2.555	2.796	3.151	3.267	3.063	3.347	3.519	3.520	3.717	3.435	3.579	3.456	3.700	3.495	3.266	3.622	3.505	3.233	3.256	3.224	3.347	3.331	3.241	3.458	3.287	3.508	3.338
445.0	1734	1406	806.9	803.0	790.0	805.6	808.1	807.1	802.4	776.0	755.0	711.1	669.6	622.9	571.2	528.2	503.9	489.9	475.2	464.4	452.0	441.9	434.7	423.7	409.6	394.1	373.9	356.2	337.3	311.4	278.3	238.3	213.2	197.6	146.0	104.9	81.18	61.66	46.70	36.10	29.55	29.80	43.00	192.1	934.8	1368	176.3	7.310	3.188	2.532	2.360	2.841	3.253	2.969	3.166	3.159	3.675	3.559	3.724	3.622	3.861	3.315	3.688	3.622	3.197	3.328	3.452	3.067	3.016	3.042	3.066	3.243	3.100	3.219	3.099	3.505	3.215
450.0	1123	1865	1007	758.7	752.5	762.4	771.5	765.8	771.2	738.5	718.8	674.8	632.9	581.3	533.8	492.6	468.0	450.8	438.5	431.1	417.7	409.5	399.3	391.9	380.3	367.3	351.2	335.9	318.2	299.5	267.7	231.8	199.9	182.8	160.9	119.5	87.56	67.81	53.04	41.23	32.91	26.51	24.82	54.10	236.9	741.1	1114	476.1	13.41	2.977	2.400	2.767	2.998	2.911	3.157	3.025	3.227	3.412	3.315	3.498	3.381	3.307	3.406	3.240	3.248	3.295	3.199	3.060	3.015	3.069	2.952	2.918	2.904	3.042	2.805	2.975	2.988
455.0	709.7	1552	1603	729.3	698.1	701.4	717.6	717.6	718.9	693.0	673.2	627.9	582.9	538.5	493.8	448.2	427.0	412.7	396.9	390.6	377.1	372.7	361.3	358.8	346.1	335.0	322.5	312.8	297.3	282.4	252.4	222.2	191.1	166.7	151.6	133.5	97.99	73.74	58.03	45.67	36.36	29.28	22.92	25.92	63.36	174.6	402.3	1138	656.7	16.94	2.600	2.848	2.769	2.782	2.808	2.876	3.105	3.268	2.917	3.088	3.301	3.437	3.150	3.307	3.085	2.947	2.835	2.754	2.942	2.784	2.929	2.815	2.771	2.888	2.716	2.915	2.872
460.0	582.7	1083	1973	886.6	646.3	660.8	666.8	680.9	678.0	657.3	633.7	595.2	546.2	503.1	461.1	416.8	397.9	383.4	368.9	357.7	347.9	340.3	334.5	328.6	320.8	312.4	299.4	292.3	279.4	268.2	241.7	214.3	182.4	158.0	141.2	132.3	109.9	77.43	61.54	49.20	39.41	31.70	24.67	21.47	26.04	48.23	99.18	507.7	1209	181.9	11.60	2.925	2.788	2.598	2.504	2.478	2.993	3.000	2.927	3.080	3.024	3.163	3.194	3.055	2.799	2.924	2.604	2.697	2.800	2.613	2.708	2.585	2.541	2.695	2.247	2.674	2.652
465.0	541.1	720.2	1804	1333	620.1	619.5	634.9	641.0	634.2	621.0	604.9	560.0	517.5	470.8	427.3	391.0	370.0	356.9	341.2	329.4	322.9	316.8	307.6	302.7	296.8	289.3	280.5	272.8	261.6	251.8	230.5	202.0	176.7	154.0	132.6	121.7	114.0	86.63	64.32	51.10	41.14	33.20	26.64	21.54	18.99	21.30	30.56	127.6	673.8	1030	154.7	8.317	2.907	2.511	2.676	2.521	2.572	2.903	2.766	2.792	2.934	2.961	2.824	2.789	2.886	2.733	2.554	2.637	2.571	2.466	2.582	2.412	2.360	2.285	2.252	2.402	2.671
470.0	518.1	561.8	1099	1790	829.3	563.3	581.2	589.7	576.7	571.5	546.8	512.7	473.0	427.8	387.1	353.1	331.2	321.3	305.3	295.1	285.2	280.9	275.4	270.1	264.1	259.1	251.7	245.6	238.1	229.3	211.3	186.9	164.0	145.2	123.4	108.2	102.3	92.35	69.92	52.48	42.95	35.27	28.61	23.09	18.89	16.82	16.15	36.26	167.5	520.3	783.0	422.2	13.61	2.747	2.696	2.392	2.529	2.704	2.604	2.747	2.791	2.747	2.535	2.666	2.698	2.554	2.303	2.262	2.307	2.295	2.293	2.252	2.194	2.151	2.171	2.189	2.405
475.0	500.3	500.2	641.0	1467	1443	550.9	519.4	532.6	524.1	515.5	494.2	470.4	423.3	386.2	348.3	315.8	296.4	284.0	269.3	262.2	252.6	244.3	243.0	237.1	232.4	228.8	223.6	218.1	211.3	205.3	190.0	171.3	149.8	133.3	115.7	101.5	89.75	84.57	75.79	58.14	44.27	36.31	29.43	25.00	20.19	17.06	13.71	16.27	44.13	121.5	260.1	746.8	214.7	18.19	2.592	2.252	2.559	2.367	2.400	2.392	2.425	2.569	2.346	2.218	2.510	2.244	2.200	2.211	2.129	2.160	2.061	1.947	2.151	1.969	1.915	2.045	2.279
480.0	455.5	476.7	487.1	936.2	1828	617.2	484.1	492.7	474.9	477.9	464.2	438.0	392.7	356.4	319.8	290.5	270.9	258.2	244.4	240.2	230.0	226.1	221.9	215.7	210.7	207.3	204.6	200.8	194.1	188.9	177.0	162.6	141.8	126.3	110.9	96.64	84.46	74.86	74.98	63.53	46.77	36.73	30.73	25.53	20.87	17.50	14.20	12.58	17.21	32.84	64.10	301.8	780.8	203.2	11.99	2.539	2.362	2.338	2.273	2.199	2.432	2.280	2.350	2.131	2.221	2.061	2.056	2.061	2.190	1.832	1.845	1.747	2.001	1.868	1.847	2.040	1.940
485.0	415.5	480.1	438.0	565.4	1713	1106	457.4	451.7	452.1	445.6	439.4	408.3	370.5	330.9	298.9	269.3	251.6	241.0	227.3	224.4	213.5	210.9	204.0	201.6	195.9	193.5	188.8	185.2	182.2	176.4	166.7	151.0	135.0	119.3	105.6	92.94	81.37	71.24	67.41	65.16	51.07	38.43	31.43	26.29	22.01	18.37	15.43	12.71	12.05	13.52	19.62	75.10	432.9	779.8	167.8	6.122	2.618	2.418	2.044	2.196	2.256	2.140	2.186	2.014	2.144	1.980	2.067	2.077	1.969	1.874	1.652	1.782	1.778	1.793	1.805	1.755	1.755
490.0	343.7	456.2	416.1	410.4	1008	1673	628.8	415.8	415.6	416.5	403.1	370.3	339.9	304.1	273.5	248.2	231.8	218.5	208.8	199.9	194.2	188.3	184.9	181.7	177.4	174.3	169.6	168.6	164.5	161.1	153.6	140.0	125.8	111.9	99.10	88.20	77.11	66.94	60.60	59.48	54.97	42.42	32.33	27.07	22.74	19.33	16.61	13.48	11.21	9.665	9.834	21.57	107.0	365.3	643.8	331.5	14.45	2.528	2.109	2.057	2.164	1.935	2.024	1.857	1.911	1.881	1.884	1.859	1.694	1.750	1.693	1.700	1.730	1.593	1.542	1.596	1.562
495.0	288.1	375.4	414.1	355.1	501.8	1440	1265	404.5	379.3	373.5	360.0	334.2	306.4	276.7	248.7	221.3	209.4	191.1	184.8	178.7	171.4	166.6	163.3	160.2	155.3	155.0	150.8	150.2	145.9	145.8	137.2	126.9	114.8	103.5	91.99	81.58	72.98	62.43	56.85	51.17	50.21	46.84	36.02	27.46	22.65	20.13	17.07	14.65	11.75	9.769	8.593	9.861	28.24	85.28	225.1	682.9	489.3	19.64	2.306	1.962	2.010	1.845	1.850	2.019	1.616	1.671	1.774	1.696	1.702	1.556	1.521	1.478	1.556	1.599	1.451	1.383	1.465
500.0	251.8	316.1	415.6	335.6	354.5	889.3	1764	517.6	343.5	346.3	331.9	311.8	285.9	252.8	226.2	202.7	189.4	176.7	170.3	161.3	155.6	151.9	147.5	145.3	142.7	141.1	138.1	136.8	134.8	131.9	126.4	116.0	106.4	95.89	86.85	76.33	67.88	59.75	52.69	47.62	44.56	44.81	39.11	28.52	23.66	20.09	17.06	14.55	12.00	10.23	8.189	7.677	10.83	23.07	54.46	278.0	789.8	219.3	12.53	2.189	1.858	1.765	1.662	1.829	1.668	1.640	1.538	1.541	1.515	1.729	1.503	1.311	1.461	1.543	1.355	1.293	1.312
505.0	228.6	286.4	375.4	344.7	298.0	488.4	1727	912.4	325.1	316.1	308.4	286.0	265.1	235.5	206.2	185.8	171.2	164.8	153.1	148.3	140.3	138.7	135.6	132.4	129.5	128.7	125.2	123.0	122.9	119.6	116.4	106.5	98.77	88.17	80.17	70.49	62.97	56.12	49.54	45.13	40.03	39.83	39.48	31.11	23.78	19.95	16.80	14.33	12.42	10.46	8.479	7.489	6.867	8.974	15.71	67.99	393.9	716.8	176.2	5.759	1.907	1.722	1.598	1.791	1.649	1.544	1.393	1.417	1.573	1.501	1.440	1.411	1.352	1.474	1.185	1.362	1.261
510.0	202.2	234.9	297.5	338.0	269.4	308.4	979.3	1604	458.3	281.5	273.4	255.1	234.2	207.9	184.5	163.8	151.3	143.3	134.0	128.7	122.6	120.7	118.2	114.7	112.7	110.8	109.9	107.3	108.7	106.9	102.1	94.29	87.47	78.66	70.42	63.96	57.13	51.72	45.72	41.41	36.78	33.78	34.82	32.84	25.60	20.14	16.78	14.29	12.02	10.53	9.110	7.591	6.260	5.972	7.105	18.23	95.93	323.8	536.5	262.2	13.70	1.911	1.594	1.510	1.509	1.523	1.388	1.286	1.253	1.275	1.293	1.305	1.146	1.188	1.063	1.258	1.178
515.0	171.5	192.6	242.3	308.4	264.5	247.9	416.4	1504	1096	262.5	239.8	225.7	200.4	182.3	159.4	143.8	131.0	122.9	117.6	112.4	107.4	102.8	102.6	100.0	95.62	95.71	95.21	93.09	92.55	92.84	88.92	83.23	75.50	69.91	61.22	57.51	51.66	46.19	40.62	37.64	33.35	29.51	28.85	29.54	27.78	21.12	16.40	13.66	11.95	9.869	8.903	8.046	6.442	5.315	5.486	7.455	24.13	74.89	174.3	524.2	234.8	17.88	1.727	1.555	1.417	1.418	1.341	1.185	1.174	1.251	1.195	1.159	1.043	1.005	1.052	1.123	0.968
520.0	150.7	178.6	200.6	257.2	275.1	221.3	256.4	921.3	1736	301.5	215.5	201.0	182.5	163.8	142.7	129.8	117.7	109.5	105.2	101.4	96.67	93.22	92.29	88.96	85.86	85.29	83.28	84.06	82.24	83.62	80.23	73.92	67.37	62.29	56.17	52.42	47.11	42.73	37.81	34.38	30.79	27.49	25.18	24.59	26.13	22.67	16.73	13.44	11.49	9.732	8.448	7.888	6.390	5.381	4.928	4.678	8.307	18.98	41.77	215.3	542.7	203.0	10.43	1.539	1.227	1.192	1.295	1.122	1.064	1.189	1.024	0.993	0.964	0.840	0.946	0.976	1.046
525.0	147.2	165.7	177.2	213.7	258.8	222.4	206.2	432.5	1851	737.3	200.1	189.6	167.0	148.5	130.9	119.4	107.1	100.7	93.84	91.15	87.66	82.59	82.69	79.44	78.34	76.35	75.26	75.43	75.28	74.55	72.58	67.02	61.15	55.85	51.62	47.52	42.14	38.98	36.42	31.84	28.48	26.13	23.83	21.85	23.00	23.36	17.85	13.38	11.15	9.577	8.263	7.351	6.504	5.636	4.773	4.109	4.666	6.507	11.66	52.25	271.6	518.7	150.9	3.864	1.260	1.058	1.150	1.011	1.064	0.977	0.891	0.903	0.816	0.904	0.853	0.897	0.919
530.0	127.9	144.2	152.1	165.8	222.2	222.7	178.4	231.1	1054	1583	322.5	162.6	150.5	131.5	116.5	102.4	94.01	86.68	81.34	79.07	76.10	72.33	71.25	69.16	67.78	66.52	65.62	64.74	65.04	64.41	62.38	58.76	54.23	49.21	45.71	41.72	37.71	34.38	32.60	29.00	26.13	23.85	21.41	19.44	18.90	20.32	18.92	14.36	10.85	9.093	7.966	6.956	6.048	5.704	4.903	4.117	3.801	3.998	4.873	13.76	66.25	234.0	384.7	135.6	12.20	1.215	1.103	1.015	0.925	0.941	0.784	0.833	0.916	0.785	0.829	0.815	0.725
535.0	113.3	123.7	127.3	137.7	169.2	233.7	161.2	165.7	377.2	1606	954.3	148.9	129.1	115.3	99.83	88.13	79.74	74.69	70.92	66.48	64.37	62.26	60.11	59.04	58.59	57.91	55.76	55.12	55.92	54.77	52.44	49.96	46.29	43.13	39.32	35.79	32.44	30.18	27.82	25.52	23.12	20.75	19.44	17.51	16.36	16.03	17.14	15.67	11.30	8.653	7.429	6.699	5.726	5.221	4.909	4.413	3.665	3.304	3.266	5.094	16.39	53.85	123.7	366.3	216.6	15.02	1.214	0.918	0.956	0.962	0.697	0.719	0.799	0.739	0.643	0.689	0.758
540.0	98.14	115.6	124.1	116.8	134.8	205.9	171.0	143.4	189.0	916.1	1687	197.6	112.3	99.96	88.39	78.04	72.00	65.66	62.45	58.84	56.80	54.47	53.77	51.95	50.48	50.56	48.70	48.84	49.02	48.06	46.77	44.42	41.17	37.90	34.62	31.90	29.40	26.86	25.14	22.52	20.54	18.91	17.35	15.64	14.86	13.63	14.30	14.92	11.61	8.495	6.879	6.266	5.475	4.881	4.520	4.668	3.707	3.228	2.876	3.072	5.298	13.43	29.52	150.2	387.7	174.3	7.458	1.043	0.802	0.874	0.747	0.696	0.635	0.636	0.584	0.584	0.722
545.0	92.62	105.7	109.3	107.1	109.2	165.0	185.2	121.3	135.6	383.8	1871	520.5	105.0	89.24	78.09	67.80	63.08	57.68	56.07	52.37	49.55	48.51	46.58	46.01	43.93	44.20	42.48	43.04	42.99	42.34	41.46	38.60	36.91	33.19	31.11	28.21	26.29	24.38	22.51	20.39	18.52	16.72	15.36	14.69	12.77	11.66	11.29	13.02	11.86	8.952	6.857	5.785	5.101	4.651	4.073	4.088	3.729	3.147	2.604	2.368	2.792	4.513	8.023	36.44	189.2	367.3	33.03	2.855	0.854	0.710	0.820	0.641	0.592	0.592	0.573	0.581	0.629
550.0	82.22	100.7	97.22	86.89	91.06	114.7	174.4	124.7	109.1	166.1	982.6	1385	144.2	77.12	65.97	58.66	53.69	49.61	46.42	44.19	40.97	39.71	38.37	37.65	36.31	36.98	35.85	35.46	35.42	35.09	34.12	32.23	30.42	27.79	25.66	24.37	21.90	20.30	19.07	17.24	15.94	14.50	13.06	12.23	11.31	10.60	9.411	9.843	10.43	9.331	6.929	5.446	4.550	4.077	3.774	3.594	3.483	3.283	2.586	2.162	2.204	2.387	3.016	9.283	45.72	157.9	219.3	124.7	11.12	0.771	0.712	0.603	0.574	0.577	0.565	0.554	0.565
555.0	81.80	81.55	83.53	75.01	72.70	83.93	137.7	143.9	90.55	102.1	309.3	1479	627.5	68.38	56.95	48.85	45.06	40.21	38.07	36.14	33.09	31.72	31.72	29.80	29.95	29.42	29.47	29.03	29.64	28.68	27.93	26.90	24.68	22.56	21.72	19.89	17.87	16.89	15.69	14.54	13.05	12.25	10.69	10.11	9.609	8.841	8.297	7.479	7.698	8.203	7.293	5.302	4.031	3.751	3.366	3.192	2.907	2.890	2.797	2.116	1.982	1.816	1.851	3.018	11.08	36.25	71.23	231.3	169.9	12.86	0.699	0.516	0.505	0.443	0.410	0.428	0.532
560.0	80.39	86.38	83.81	77.11	63.63	66.64	96.65	149.1	84.28	81.61	128.5	821.4	1290	95.91	47.81	41.73	37.63	34.29	30.82	29.69	28.53	28.34	26.41	25.46	25.37	24.66	23.77	24.21	24.52	24.74	22.98	22.75	21.42	19.76	18.04	16.54	15.32	14.92	13.26	12.55	11.55	10.29	9.287	8.910	8.578	7.658	7.037	6.379	5.784	6.584	6.574	5.344	3.648	3.515	3.028	2.763	2.591	2.478	2.563	2.057	1.947	1.661	1.598	1.686	3.446	9.026	16.93	88.48	240.9	120.0	5.460	0.588	0.469	0.501	0.415	0.426	0.461
565.0	86.27	78.14	77.16	70.51	60.26	56.85	70.95	133.5	94.60	73.26	81.10	309.9	1561	297.5	41.88	34.69	31.73	29.79	26.95	25.66	24.03	23.60	22.59	22.11	21.03	20.90	20.26	21.09	20.90	20.59	19.98	19.20	18.28	16.93	15.19	14.38	13.13	12.42	11.25	10.45	9.696	9.195	8.281	7.945	7.405	7.099	6.000	5.749	4.844	5.270	5.566	5.380	3.749	2.986	2.663	2.395	2.390	2.303	2.415	2.328	1.789	1.584	1.466	1.259	1.469	2.810	4.680	21.09	107.4	222.6	32.80	2.383	0.592	0.498	0.357	0.424	0.466
570.0	76.62	79.15	70.65	58.56	49.75	46.23	51.78	91.23	115.1	67.39	64.22	116.6	845.9	1014	72.69	28.39	25.52	23.82	22.42	20.57	19.65	19.16	18.39	17.65	17.58	16.80	16.75	16.76	16.69	16.46	16.34	15.05	14.23	13.20	12.39	11.73	10.81	10.02	9.370	8.651	7.918	7.720	6.697	6.437	5.927	5.688	5.181	4.593	4.247	4.037	4.105	4.547	3.836	3.029	2.435	2.155	1.994	1.878	1.900	1.851	1.955	1.557	1.341	1.187	1.135	1.335	1.815	5.513	25.52	88.15	138.7	85.09	10.13	0.565	0.435	0.395	0.401
575.0	76.75	85.03	72.35	53.49	41.05	39.19	41.69	56.43	118.2	77.77	54.72	64.57	247.6	1157	399.8	26.03	20.29	19.62	18.36	16.17	15.21	16.03	14.97	13.62	13.28	13.88	13.95	13.03	13.17	13.54	13.61	12.25	11.20	11.40	10.00	9.561	8.820	8.327	7.716	7.041	6.298	6.325	5.519	5.246	4.765	4.576	4.367	3.892	3.580	3.059	3.146	3.457	3.394	3.137	2.208	1.820	1.730	1.462	1.758	1.391	1.539	1.671	1.364	1.164	1.101	1.034	1.153	1.969	6.380	20.36	40.65	127.0	109.4	10.67	0.532	0.365	0.330
580.0	85.09	82.80	68.18	52.92	39.16	36.55	37.30	42.39	94.35	95.18	52.20	51.43	90.10	647.8	904.5	40.23	17.68	16.42	15.58	13.91	13.43	12.74	12.86	11.73	11.09	11.86	11.71	11.09	11.03	11.46	10.93	10.38	9.513	9.219	8.102	7.948	7.548	6.938	6.604	6.241	5.298	5.456	4.861	4.307	4.160	4.040	3.650	3.625	3.165	2.802	2.531	2.792	2.901	3.074	2.083	1.706	1.749	1.449	1.381	1.255	1.393	1.604	1.464	1.132	0.982	0.925	0.919	1.114	2.029	5.082	9.738	44.99	139.5	79.88	4.961	0.338	0.359
585.0	74.22	71.01	68.46	51.20	35.65	34.12	31.71	36.10	64.30	108.8	56.37	50.53	51.25	232.7	1120	105.5	16.54	14.39	13.62	12.23	11.76	10.93	10.78	10.63	9.416	10.11	10.17	9.785	9.707	10.10	9.227	9.178	8.229	7.422	7.289	6.917	6.417	5.923	5.516	5.362	4.824	4.707	4.254	3.895	3.737	3.681	3.205	2.978	2.467	2.328	2.234	2.165	2.225	2.760	2.206	1.735	1.437	1.353	1.279	1.284	1.123	1.254	1.445	1.292	0.844	0.856	0.894	0.857	1.003	1.712	2.779	10.79	57.11	131.0	32.26	1.997	0.390
590.0	65.60	72.24	60.98	46.38	33.37	31.86	30.14	34.45	44.67	95.05	74.02	48.13	42.34	79.48	606.6	614.1	32.70	11.71	11.05	9.899	9.622	8.837	8.674	8.701	8.252	8.111	7.901	7.969	7.718	8.086	7.472	7.542	6.640	6.102	6.146	5.698	5.403	4.798	4.404	4.212	3.968	3.694	3.521	3.270	3.151	3.074	2.618	2.538	2.259	1.986	1.764	1.672	1.709	2.010	2.108	1.849	1.353	1.239	1.150	1.045	1.018	0.954	0.997	1.223	0.998	0.802	0.728	0.784	0.708	0.881	1.026	2.860	13.51	47.73	81.51	56.82	8.929
595.0	61.31	64.79	65.64	42.29	29.89	26.58	26.47	30.67	36.59	64.13	92.80	49.38	39.30	40.91	169.9	754.0	204.4	11.05	9.177	8.210	7.729	7.419	6.607	7.045	6.403	6.213	6.189	6.095	5.979	6.585	6.097	5.595	5.370	5.100	4.584	4.481	4.265	3.742	3.606	3.533	3.036	2.955	3.011	2.479	2.553	2.383	2.094	1.973	1.900	1.793	1.530	1.452	1.387	1.371	1.692	1.806	1.485	1.107	0.974	0.848	0.896	0.738	0.772	0.777	1.111	1.002	0.786	0.691	0.692	0.776	0.667	0.968	3.512	10.96	22.39	67.52	71.22
600.0	62.24	58.30	53.36	37.15	27.70	25.33	24.93	29.23	35.27	47.61	90.55	58.73	38.19	32.12	54.57	446.1	518.9	17.59	7.807	6.735	7.161	6.694	6.018	6.158	5.291	5.409	5.310	5.189	5.003	5.206	4.967	4.710	4.270	4.067	4.213	3.737	3.620	3.259	3.141	3.018	2.680	2.414	2.611	2.337	2.166	2.075	1.897	1.832	1.601	1.614	1.372	1.146	1.192	1.184	1.235	1.584	1.605	1.211	0.842	0.686	0.801	0.668	0.711	0.601	0.806	1.068	0.723	0.567	0.628	0.653	0.577	0.686	1.192	2.766	5.371	21.81	76.09
605.0	57.00	66.17	49.56	39.43	26.45	26.37	27.00	28.64	31.98	38.97	78.48	74.73	40.56	29.72	28.17	160.7	695.6	66.04	7.608	5.908	5.299	5.557	5.382	4.951	4.684	4.810	4.412	4.426	4.683	4.655	4.333	3.813	3.704	3.416	3.202	3.138	3.060	2.796	2.476	2.461	2.138	2.112	2.100	1.878	1.920	1.752	1.742	1.533	1.405	1.471	1.161	1.016	1.026	0.957	1.133	1.231	1.432	1.119	0.856	0.708	0.685	0.652	0.738	0.554	0.667	0.860	0.940	0.584	0.590	0.592	0.533	0.528	0.635	0.874	1.489	5.189	27.81
610.0	54.71	59.84	45.46	38.10	26.21	23.70	25.20	26.06	30.39	36.96	57.65	86.65	47.44	30.74	23.85	50.06	408.5	377.0	15.15	5.254	4.783	4.428	4.305	4.073	3.918	3.795	3.749	3.683	3.798	3.703	3.491	3.361	3.083	3.100	2.718	2.665	2.599	2.385	2.232	2.165	1.788	1.772	1.669	1.656	1.563	1.435	1.462	1.301	1.225	1.138	0.976	0.913	0.872	0.821	0.878	0.861	1.115	1.204	0.914	0.713	0.678	0.562	0.640	0.612	0.551	0.649	0.850	0.693	0.624	0.534	0.544	0.462	0.469	0.472	0.590	1.438	6.539
615.0	47.71	56.31	45.75	32.21	22.98	21.15	21.76	25.74	30.06	37.96	45.78	76.96	62.05	32.36	23.06	22.45	115.3	508.0	74.40	4.911	3.863	3.603	3.321	3.129	3.268	2.888	2.744	2.864	2.990	2.961	2.890	2.575	2.437	2.529	2.320	2.147	2.221	2.031	1.854	1.740	1.533	1.423	1.305	1.242	1.104	1.265	1.106	1.063	0.910	0.846	0.873	0.832	0.730	0.672	0.659	0.671	0.811	0.965	0.949	0.843	0.573	0.544	0.601	0.570	0.528	0.607	0.663	0.698	0.730	0.524	0.425	0.404	0.413	0.348	0.373	0.563	1.694
620.0	56.06	46.45	45.72	32.84	24.43	20.74	21.15	25.56	28.32	34.11	39.51	59.52	70.18	31.15	21.08	15.63	34.53	322.0	317.5	7.822	3.572	3.236	3.127	2.822	2.548	2.601	2.691	2.488	2.523	2.368	2.348	2.390	2.286	2.341	2.000	2.039	1.890	1.699	1.613	1.630	1.315	1.314	1.241	0.975	1.007	0.999	0.875	0.885	0.842	0.813	0.710	0.682	0.697	0.621	0.635	0.612	0.674	0.806	0.914	0.856	0.485	0.511	0.467	0.499	0.507	0.528	0.551	0.547	0.746	0.571	0.457	0.393	0.383	0.391	0.308	0.391	0.620
625.0	47.49	41.25	42.94	29.35	22.10	20.07	22.74	22.82	27.90	34.48	37.95	47.94	71.02	37.05	21.38	14.29	15.32	117.7	474.3	40.57	3.396	2.805	2.587	2.516	2.116	2.312	2.003	2.216	2.287	2.134	1.969	1.961	1.979	2.023	1.705	1.625	1.591	1.471	1.579	1.461	1.220	1.254	1.100	0.943	0.971	1.021	0.775	0.781	0.754	0.718	0.629	0.585	0.630	0.546	0.544	0.522	0.575	0.592	0.752	0.774	0.606	0.485	0.463	0.515	0.513	0.439	0.491	0.501	0.673	0.729	0.529	0.387	0.356	0.386	0.280	0.319	0.354
630.0	46.50	41.22	36.77	27.31	20.98	19.79	21.96	22.12	26.65	31.42	34.97	41.30	58.09	47.52	22.27	14.01	10.96	33.78	302.0	246.6	7.811	2.449	2.095	2.244	1.924	1.923	1.933	1.865	1.918	1.843	1.691	1.616	1.609	1.533	1.427	1.392	1.461	1.205	1.184	1.221	1.054	1.023	0.884	0.864	0.843	0.779	0.683	0.672	0.623	0.540	0.539	0.549	0.498	0.443	0.441	0.459	0.479	0.522	0.506	0.639	0.616	0.559	0.445	0.455	0.389	0.444	0.432	0.414	0.480	0.593	0.570	0.483	0.372	0.366	0.302	0.304	0.308
635.0	40.78	40.34	32.61	27.80	20.28	21.51	21.27	22.84	25.86	28.85	34.59	39.40	43.13	54.45	27.24	14.74	10.89	13.23	85.01	377.2	55.15	2.346	1.984	1.751	1.532	1.696	1.619	1.498	1.433	1.470	1.324	1.400	1.316	1.235	1.346	1.181	1.081	0.907	0.898	0.916	0.932	0.803	0.690	0.705	0.640	0.591	0.590	0.568	0.461	0.485	0.484	0.428	0.459	0.359	0.419	0.327	0.430	0.472	0.479	0.470	0.627	0.506	0.395	0.436	0.410	0.376	0.411	0.437	0.431	0.509	0.492	0.524	0.398	0.347	0.287	0.267	0.283
640.0	43.35	43.34	37.74	24.57	23.28	19.51	17.37	20.52	23.98	29.37	33.77	37.72	37.37	50.89	33.60	15.36	11.33	9.094	24.34	260.5	213.6	3.743	1.607	1.424	1.414	1.465	1.417	1.265	1.268	1.095	1.000	1.147	1.214	1.047	0.999	1.057	1.003	0.859	0.832	0.762	0.766	0.675	0.621	0.539	0.580	0.548	0.495	0.453	0.430	0.435	0.394	0.385	0.407	0.401	0.360	0.303	0.407	0.382	0.488	0.409	0.467	0.460	0.470	0.400	0.366	0.370	0.393	0.362	0.356	0.419	0.446	0.529	0.558	0.346	0.278	0.238	0.295
645.0	40.12	43.92	39.87	25.22	21.48	19.50	20.15	19.32	23.05	28.17	33.55	34.97	34.38	41.75	40.66	16.88	11.67	8.784	9.893	102.0	339.3	24.40	1.703	1.299	1.353	1.348	1.049	1.284	1.231	0.930	1.055	1.068	0.956	0.920	0.884	1.033	0.800	0.895	0.816	0.624	0.559	0.676	0.599	0.513	0.518	0.483	0.405	0.484	0.462	0.341	0.325	0.359	0.332	0.337	0.312	0.365	0.343	0.343	0.424	0.396	0.420	0.481	0.430	0.381	0.347	0.339	0.341	0.359	0.380	0.355	0.337	0.414	0.445	0.330	0.281	0.327	0.293
650.0	47.39	43.50	39.23	23.66	22.63	17.54	17.85	19.65	22.05	26.56	30.89	34.52	35.14	35.57	42.86	19.25	12.20	8.911	6.776	30.24	299.9	67.19	1.921	1.313	1.266	1.025	1.006	1.130	1.239	0.964	0.934	0.949	0.888	0.873	0.740	0.933	0.808	0.895	0.726	0.671	0.541	0.684	0.646	0.560	0.524	0.468	0.429	0.450	0.428	0.308	0.361	0.310	0.271	0.320	0.371	0.391	0.309	0.332	0.381	0.349	0.419	0.354	0.437	0.311	0.348	0.325	0.417	0.331	0.471	0.333	0.324	0.399	0.423	0.454	0.359	0.322	0.315
