Sample:	'1
File name:	g04001合益气体污水总排口.FD3
Run date:	'09:28:41, 08/02/2024
Operator:	horiz
Comment:	'

Instrument
Model:	F-2700 FL Spectrophotometer
Serial number:	23B8-004
ROM Version:	4J14000 07

Instrument parameters
Measurement type:	3-D scan
Data mode:	Fluorescence
EX  Start WL:	220.0 nm
EX  End WL:	600.0 nm
EX Sampling interval:	5.0 nm
EM  Start WL:	230.0 nm
EM  End WL:	650.0 nm
EM Sampling interval:	5.0 nm
Scan speed:	12000 nm/min
EX Slit:	5.0 nm
EM Slit:	5.0 nm
PMT Voltage:	700 V
Response:	Auto 
Corrected spectra:	Off
Contour interval:	50.000

Peak integration
Integration method:	Rectangular
Sensitivity:	1
Threshold:	1.000

Peaks
No.	ApexEX/EM(nm)	Height(Data)
1	225.0/305.0	2063
2	225.0/590.0	148.7
3	230.0/250.0	274.9
4	230.0/340.0	2320
5	230.0/500.0	438.7
6	235.0/255.0	362.4
7	235.0/510.0	363.8
8	240.0/265.0	378.0
9	240.0/520.0	315.3
10	245.0/270.0	402.7
11	245.0/535.0	250.1
12	250.0/275.0	497.9
13	250.0/545.0	203.3
14	255.0/280.0	667.3
15	255.0/560.0	170.2
16	260.0/575.0	145.2
17	265.0/375.0	1443
18	265.0/585.0	165.4
19	270.0/300.0	2377
20	270.0/600.0	190.7
21	275.0/305.0	2828
22	275.0/610.0	179.0
23	280.0/620.0	141.5
24	305.0/345.0	728.5
25	315.0/355.0	629.4
26	320.0/365.0	628.4
27	335.0/380.0	590.8
28	445.0/525.0	27.47
29	455.0/335.0	6.338
30	460.0/340.0	6.659
31	480.0/260.0	1.993
32	485.0/265.0	2.181
33	495.0/270.0	2.074
34	505.0/275.0	3.218
35	510.0/280.0	3.653
36	520.0/285.0	4.287
37	525.0/365.0	6.450
38	530.0/380.0	6.409
39	545.0/300.0	11.71
40	550.0/305.0	13.03
41	560.0/310.0	11.92

Wavelength data
No.	EX/EM(nm)	Height(Data)	

Data points
	220.0	225.0	230.0	235.0	240.0	245.0	250.0	255.0	260.0	265.0	270.0	275.0	280.0	285.0	290.0	295.0	300.0	305.0	310.0	315.0	320.0	325.0	330.0	335.0	340.0	345.0	350.0	355.0	360.0	365.0	370.0	375.0	380.0	385.0	390.0	395.0	400.0	405.0	410.0	415.0	420.0	425.0	430.0	435.0	440.0	445.0	450.0	455.0	460.0	465.0	470.0	475.0	480.0	485.0	490.0	495.0	500.0	505.0	510.0	515.0	520.0	525.0	530.0	535.0	540.0	545.0	550.0	555.0	560.0	565.0	570.0	575.0	580.0	585.0	590.0	595.0	600.0
230.0	55.27	398.3	1942	1009	71.17	3.659	2.723	2.385	2.314	2.037	1.779	1.872	1.574	1.338	1.101	0.975	0.821	0.731	0.651	0.596	0.500	0.436	0.460	0.384	0.346	0.324	0.306	0.276	0.238	0.235	0.235	0.162	0.191	0.170	0.171	0.176	0.171	0.176	0.183	0.132	0.199	0.375	0.497	0.322	0.198	0.176	0.378	2.603	6.177	6.139	2.919	0.685	0.134	0.083	0.078	0.088	0.068	0.077	0.102	0.080	0.067	0.069	0.048	0.078	0.073	0.054	0.056	0.052	0.053	0.062	0.063	0.053	0.046	0.053	0.062	0.056	0.053
235.0	161.6	143.4	791.9	1868	633.9	97.53	4.461	2.628	1.701	2.571	2.220	1.951	1.713	1.384	1.117	0.982	0.917	0.592	0.749	0.636	0.501	0.593	0.471	0.359	0.304	0.323	0.354	0.257	0.293	0.205	0.215	0.159	0.210	0.170	0.142	0.150	0.184	0.186	0.223	0.124	0.234	0.243	0.345	0.456	0.505	0.426	0.213	0.696	1.942	3.306	5.731	6.965	4.384	1.195	0.129	0.081	0.094	0.111	0.066	0.092	0.092	0.073	0.052	0.062	0.067	0.044	0.063	0.050	0.049	0.040	0.047	0.047	0.039	0.070	0.051	0.047	0.045
240.0	188.4	188.9	225.6	1035	1984	512.9	51.32	4.319	3.048	2.993	2.197	2.051	2.019	1.359	1.191	0.910	0.802	0.636	0.597	0.658	0.562	0.510	0.355	0.432	0.369	0.407	0.389	0.256	0.342	0.276	0.227	0.191	0.192	0.126	0.152	0.146	0.177	0.152	0.264	0.175	0.210	0.234	0.183	0.259	0.474	0.743	0.458	0.344	0.541	0.866	2.235	5.993	9.727	7.931	3.624	0.709	0.102	0.102	0.104	0.073	0.073	0.100	0.072	0.072	0.051	0.085	0.081	0.057	0.058	0.037	0.072	0.062	0.040	0.067	0.047	0.039	0.049
245.0	104.7	264.5	162.4	294.3	1461	2181	390.2	20.71	3.064	3.751	2.781	2.462	2.314	1.428	1.371	0.951	0.834	0.861	0.836	0.633	0.775	0.527	0.555	0.498	0.335	0.470	0.395	0.274	0.302	0.282	0.262	0.233	0.201	0.141	0.203	0.183	0.132	0.150	0.206	0.211	0.163	0.188	0.098	0.191	0.255	0.598	0.699	0.899	0.454	0.304	0.617	1.732	4.743	9.339	11.57	7.759	2.440	0.348	0.091	0.098	0.091	0.088	0.069	0.060	0.106	0.087	0.049	0.121	0.056	0.085	0.049	0.082	0.126	0.057	0.050	0.051	0.037
250.0	33.87	142.3	274.9	207.6	414.1	1372	2194	1125	90.71	4.885	3.701	3.365	2.556	1.791	1.609	1.100	0.874	0.975	0.681	0.692	0.663	0.546	0.517	0.475	0.420	0.367	0.363	0.282	0.263	0.286	0.310	0.289	0.147	0.150	0.214	0.180	0.195	0.141	0.191	0.212	0.150	0.175	0.164	0.169	0.155	0.264	0.370	0.690	0.979	0.928	0.620	0.575	1.168	2.640	5.313	8.379	11.32	11.17	6.999	2.430	0.321	0.102	0.082	0.105	0.118	0.075	0.070	0.099	0.079	0.055	0.045	0.057	0.082	0.066	0.060	0.073	0.055
255.0	14.84	42.17	145.5	362.4	249.1	338.8	1088	3000	1602	98.39	4.972	3.752	3.327	1.841	1.788	1.282	1.145	1.003	0.814	0.722	0.622	0.713	0.437	0.455	0.342	0.412	0.361	0.373	0.252	0.332	0.315	0.294	0.161	0.156	0.197	0.193	0.158	0.118	0.158	0.179	0.156	0.207	0.255	0.162	0.160	0.211	0.149	0.248	0.366	0.702	1.319	1.587	0.872	0.748	1.311	2.002	3.413	7.811	15.58	17.60	10.97	2.591	0.223	0.104	0.080	0.094	0.096	0.078	0.073	0.072	0.053	0.073	0.083	0.055	0.073	0.067	0.066
260.0	12.25	18.31	49.85	257.2	377.2	164.8	296.3	1769	3574	1201	44.18	4.582	3.632	2.104	2.178	1.510	1.139	0.924	0.870	0.515	0.707	0.745	0.618	0.507	0.405	0.377	0.301	0.405	0.350	0.314	0.264	0.244	0.256	0.200	0.183	0.182	0.140	0.193	0.167	0.151	0.132	0.219	0.222	0.146	0.155	0.173	0.172	0.127	0.194	0.267	0.653	1.645	1.993	1.156	0.592	0.584	0.940	2.005	5.738	13.43	21.12	18.46	8.473	1.281	0.146	0.110	0.077	0.068	0.067	0.049	0.065	0.077	0.072	0.049	0.075	0.078	0.068
265.0	13.88	18.25	21.37	95.34	378.0	323.8	112.4	507.6	2665	3770	239.0	14.48	4.666	3.005	2.149	1.617	1.323	1.238	0.890	0.648	0.755	0.699	0.502	0.685	0.424	0.469	0.368	0.352	0.367	0.293	0.298	0.265	0.297	0.213	0.151	0.218	0.142	0.177	0.197	0.136	0.127	0.153	0.235	0.142	0.141	0.187	0.116	0.185	0.133	0.156	0.251	0.753	1.656	2.181	1.651	0.695	0.393	0.619	1.458	3.688	9.491	19.59	25.27	17.50	4.870	0.473	0.135	0.172	0.120	0.084	0.080	0.071	0.088	0.052	0.109	0.087	0.050
270.0	34.74	32.78	27.66	36.39	149.4	402.7	324.3	179.1	758.7	2617	3770	851.8	55.89	5.042	3.024	2.234	1.691	1.444	1.081	0.878	0.812	0.640	0.558	0.588	0.519	0.550	0.502	0.382	0.331	0.284	0.339	0.281	0.317	0.270	0.234	0.206	0.271	0.252	0.223	0.232	0.177	0.176	0.243	0.213	0.202	0.227	0.178	0.206	0.151	0.154	0.157	0.295	0.542	1.007	1.714	2.074	1.884	1.056	0.629	0.989	2.378	5.367	10.87	17.95	22.40	20.74	12.59	4.018	0.434	0.103	0.104	0.087	0.103	0.102	0.083	0.060	0.070
275.0	156.0	142.6	115.7	81.63	70.67	160.4	497.9	358.7	243.2	666.6	2065	5119	1159	50.31	4.787	3.182	2.036	1.671	1.101	0.977	1.069	0.831	0.629	0.681	0.476	0.570	0.409	0.379	0.401	0.328	0.289	0.297	0.233	0.266	0.289	0.341	0.329	0.410	0.406	0.370	0.458	0.292	0.313	0.346	0.421	0.461	0.478	0.449	0.468	0.392	0.301	0.338	0.320	0.403	0.520	0.886	2.308	3.218	2.305	0.939	0.831	1.501	2.812	4.469	6.521	13.37	27.41	30.82	18.23	3.851	0.288	0.122	0.124	0.115	0.105	0.142	0.151
280.0	330.3	341.9	295.6	198.6	102.9	85.42	288.1	667.3	291.6	268.4	659.0	3385	5107	763.1	20.70	4.696	2.547	2.157	1.373	1.351	1.134	0.891	0.745	0.617	0.570	0.584	0.419	0.406	0.444	0.409	0.410	0.373	0.368	0.414	0.449	0.494	0.518	0.606	0.632	0.559	0.568	0.588	0.622	0.791	0.755	0.850	0.907	0.856	0.978	0.754	0.713	0.490	0.463	0.348	0.412	0.401	0.975	2.038	3.653	3.096	1.658	0.925	1.154	1.690	2.052	3.933	9.518	21.43	33.90	28.55	12.61	1.806	0.289	0.181	0.111	0.145	0.120
285.0	595.1	621.7	540.3	343.7	161.1	96.51	151.1	552.4	716.4	300.2	375.7	1206	4559	4299	121.9	8.970	3.845	2.684	1.716	1.391	1.306	0.860	0.856	0.652	0.734	0.766	0.603	0.419	0.505	0.387	0.446	0.409	0.352	0.427	0.558	0.764	1.091	0.997	0.906	0.752	0.836	1.064	0.898	1.041	1.239	1.443	1.538	1.588	1.790	1.535	1.110	0.983	0.750	0.464	0.370	0.375	0.627	0.956	2.061	3.767	4.287	2.551	1.507	1.541	1.724	2.301	3.502	6.500	14.22	28.09	34.79	24.41	7.412	0.921	0.235	0.128	0.113
290.0	1027	1133	951.3	622.6	300.3	173.6	183.9	372.4	849.5	1062	866.0	1016	1818	3703	3861	446.4	26.10	4.001	2.378	1.986	1.388	1.204	1.104	1.056	0.747	0.772	0.585	0.565	0.492	0.534	0.493	0.405	0.381	0.514	0.731	1.195	1.669	1.575	1.496	1.350	1.294	1.424	1.670	1.819	2.144	2.438	2.582	2.874	3.018	2.409	1.827	1.666	1.282	0.946	0.588	0.638	0.849	0.951	1.416	2.166	3.400	4.524	5.387	4.910	3.862	3.943	4.004	4.617	6.079	9.592	15.03	22.09	25.91	27.24	16.25	7.356	0.912
295.0	1457	1645	1403	866.2	442.8	280.0	285.4	418.2	752.3	1429	1857	1520	1420	1363	2401	4693	611.9	21.61	3.744	2.976	1.852	1.820	1.316	1.265	0.835	0.770	0.627	0.629	0.674	0.577	0.467	0.422	0.439	0.534	1.052	1.568	2.249	2.160	1.992	1.633	1.968	1.987	2.428	2.381	2.911	3.548	3.760	4.262	4.145	3.240	2.460	2.321	1.802	1.370	1.085	1.011	1.287	1.355	1.660	2.003	2.886	3.666	5.461	8.117	9.146	7.587	6.380	6.423	6.350	6.779	6.841	7.204	7.628	12.92	26.74	41.93	26.26
300.0	1688	1902	1629	1011	544.6	357.5	374.6	515.9	836.6	1392	2377	2176	1587	962.9	814.9	3344	4199	87.99	9.376	3.409	2.852	1.780	1.511	1.280	0.924	0.861	0.756	0.708	0.575	0.648	0.566	0.400	0.477	0.543	1.116	1.868	2.457	2.502	2.298	1.932	2.062	2.267	2.543	2.923	3.590	4.185	4.392	5.299	4.777	3.721	3.001	2.708	2.060	1.548	1.398	1.362	1.717	1.704	2.091	2.257	3.173	3.959	5.518	7.355	9.457	11.71	10.50	8.664	7.659	7.289	5.907	4.557	3.401	3.946	8.205	21.07	36.26
305.0	1823	2063	1762	1062	599.5	422.6	458.0	621.3	958.0	1461	2293	2828	1924	997.4	458.2	1045	4044	3266	69.58	5.326	3.248	2.127	1.956	1.526	1.296	0.837	0.864	0.850	0.703	0.701	0.528	0.462	0.533	0.624	1.080	2.236	2.687	2.726	2.229	2.133	2.143	2.383	2.690	3.017	3.906	4.470	4.588	5.393	4.863	3.885	3.118	2.760	2.425	1.849	1.648	1.900	1.880	2.147	2.579	3.086	3.737	4.868	6.027	7.087	8.663	11.23	13.03	12.68	10.02	8.267	6.496	4.060	2.705	2.210	2.835	5.625	12.09
310.0	1716	1984	1736	1084	652.2	501.4	549.3	722.9	1029	1506	2137	2658	2460	1239	489.0	419.6	1236	2990	3070	292.2	15.79	3.232	2.383	1.798	1.433	1.103	1.028	0.861	0.746	0.734	0.606	0.540	0.539	0.609	1.189	2.041	2.554	2.539	2.376	2.259	2.141	2.357	2.756	3.286	3.794	4.516	4.710	5.106	4.786	3.954	3.150	2.879	2.548	2.123	1.929	2.004	2.064	2.521	2.966	3.382	4.022	5.091	6.190	7.142	8.458	9.847	10.76	11.75	11.92	11.31	8.518	5.287	3.255	2.262	1.939	2.295	3.581
315.0	1592	1884	1611	1038	670.2	555.9	604.3	767.9	1041	1477	1991	2302	2291	1729	672.3	353.7	443.5	793.6	2045	3693	425.2	13.81	3.700	2.165	1.815	1.357	1.294	0.973	0.810	0.736	0.706	0.659	0.544	0.633	1.205	1.933	2.247	2.137	2.217	1.911	2.037	2.117	2.629	2.898	3.612	4.061	4.387	4.939	4.617	3.810	3.007	2.782	2.542	2.384	2.174	2.086	2.138	2.640	2.861	3.550	4.117	4.820	5.999	6.920	8.116	8.704	9.619	9.558	9.601	9.949	9.824	7.755	4.818	2.866	1.978	1.976	2.048
320.0	1614	1858	1705	1086	713.1	603.7	638.2	782.1	1023	1406	1888	2144	2023	1722	1006	418.7	306.9	311.7	600.2	2757	3205	64.33	6.914	2.883	2.116	1.657	1.437	1.157	1.016	0.784	0.822	0.762	0.572	0.667	1.060	1.543	2.059	1.884	1.956	1.940	1.991	2.126	2.438	2.679	3.580	4.048	4.431	4.966	4.801	3.810	3.107	2.661	2.642	2.429	2.141	2.174	2.381	2.779	3.256	3.525	4.098	5.020	5.666	6.641	7.320	8.285	8.861	8.836	8.706	8.475	7.966	7.530	6.592	4.814	2.654	1.950	1.821
325.0	1696	1974	1901	1288	779.4	671.1	685.5	797.4	998.3	1363	1807	2019	1897	1503	1237	628.2	331.3	239.2	237.0	853.1	3230	2485	51.77	4.932	2.795	1.857	1.642	1.338	1.040	0.933	0.806	0.802	0.685	0.567	1.120	1.535	1.971	1.925	1.878	1.758	1.885	1.952	2.379	2.725	3.485	4.456	4.857	5.756	5.576	4.482	3.514	3.327	3.156	2.619	2.365	2.348	2.526	2.820	3.219	3.625	4.160	4.745	5.229	6.137	6.872	7.849	8.222	8.345	8.045	8.054	7.015	6.357	5.996	6.660	5.094	3.209	2.253
330.0	1637	2103	2112	1580	1065	811.8	752.6	814.3	981.9	1293	1668	1880	1794	1393	1083	908.6	531.1	284.8	200.1	287.2	986.5	2409	2474	235.5	13.91	3.282	2.005	1.654	1.292	1.167	0.917	0.801	0.808	0.706	0.954	1.343	1.659	1.807	1.728	1.645	1.842	1.959	2.346	2.778	3.634	4.326	4.799	6.063	6.069	5.288	4.323	4.394	3.929	3.427	2.880	2.682	2.864	3.128	3.263	3.657	3.811	4.493	5.036	5.682	6.676	7.228	7.755	7.802	7.791	7.602	6.692	5.710	5.140	4.886	4.889	5.108	4.135
335.0	1619	2178	2250	1766	1293	965.2	829.4	852.0	980.3	1237	1522	1721	1679	1352	992.4	813.5	806.4	445.8	244.8	203.4	317.4	632.6	1817	3268	357.0	12.03	3.074	2.065	1.597	1.397	1.045	0.918	0.857	0.823	0.939	1.299	1.588	1.507	1.528	1.617	1.751	2.014	2.443	2.731	3.391	4.591	5.019	6.338	6.163	5.663	4.898	5.398	4.518	4.134	3.572	3.042	3.149	3.239	3.684	3.468	3.993	4.392	5.069	5.471	6.186	6.646	7.111	7.152	7.133	6.983	6.229	5.615	5.039	4.283	4.016	4.034	4.507
340.0	1620	2143	2320	1903	1433	1080	910.9	884.9	996.8	1209	1450	1626	1586	1320	987.1	759.1	766.8	660.7	328.3	218.2	200.0	239.1	544.3	2585	2798	55.22	6.524	2.713	2.122	1.367	1.185	0.893	0.879	0.844	0.989	1.269	1.410	1.401	1.506	1.584	1.653	1.950	2.360	2.581	3.668	4.468	5.094	6.122	6.659	6.089	5.261	5.796	5.202	4.527	4.111	3.562	3.492	3.220	3.722	3.738	4.152	4.727	5.026	5.270	5.893	6.125	6.473	6.309	6.786	6.932	6.441	5.645	5.026	4.611	4.261	4.010	3.650
345.0	1514	2066	2308	1950	1528	1181	988.8	947.8	1041	1217	1408	1549	1507	1292	1008	771.0	668.1	728.5	505.1	271.2	210.4	180.9	212.1	820.6	2893	2178	47.17	4.584	2.552	1.723	1.255	1.006	0.841	0.849	0.887	1.182	1.244	1.449	1.365	1.421	1.494	2.035	2.326	2.596	3.411	4.360	4.866	5.967	6.448	6.034	5.545	6.269	5.528	4.843	4.407	3.907	3.696	3.827	4.007	4.168	4.344	5.056	5.078	5.393	5.812	6.036	6.346	6.380	6.363	6.472	6.270	5.477	5.219	4.921	4.330	4.097	3.677
350.0	1392	1860	2137	1923	1596	1326	1115	1075	1135	1267	1394	1471	1433	1257	1027	819.1	678.4	633.6	641.5	464.4	287.0	224.6	185.5	282.4	900.8	2077	2124	214.6	13.93	2.650	1.588	1.289	0.977	0.965	0.953	1.058	1.189	1.266	1.323	1.368	1.440	1.779	1.976	2.430	3.107	3.859	4.513	5.592	5.761	5.724	5.349	6.168	5.921	5.378	4.858	4.399	4.389	4.429	4.345	4.664	4.677	4.981	5.320	5.535	5.821	6.001	6.296	6.203	5.956	6.262	5.984	5.467	5.227	5.056	4.637	4.514	4.062
355.0	1323	1733	1995	1879	1654	1419	1249	1213	1238	1332	1410	1417	1367	1241	1040	858.7	728.5	631.1	585.2	629.4	459.2	297.9	232.8	207.2	299.0	550.5	1503	2654	341.0	14.94	2.469	1.929	1.260	0.880	1.093	0.993	1.316	1.283	1.338	1.400	1.638	1.592	1.954	2.320	2.815	3.684	4.028	5.270	5.160	5.430	5.142	6.057	5.716	5.912	5.256	4.682	5.199	4.856	5.170	5.334	5.146	5.505	5.582	5.799	6.247	6.056	5.992	5.934	5.847	6.072	5.708	5.474	5.199	4.998	4.677	4.899	4.518
360.0	1233	1664	1871	1796	1664	1473	1319	1284	1321	1392	1421	1393	1341	1218	1046	887.8	771.7	664.4	591.0	605.3	609.4	395.3	281.5	224.7	191.8	209.6	445.7	2011	2511	283.5	6.739	2.826	1.535	1.243	1.109	1.106	1.174	1.098	1.350	1.316	1.506	1.695	1.881	2.340	2.682	3.331	4.039	4.759	4.939	5.103	5.002	6.152	6.108	5.915	5.600	5.137	5.594	5.185	5.768	5.366	5.401	6.073	5.857	6.138	6.074	5.956	6.334	5.985	5.900	5.996	5.730	5.624	5.345	4.854	4.890	4.853	4.772
365.0	1191	1580	1748	1745	1653	1493	1392	1349	1365	1415	1434	1380	1321	1201	1052	910.9	797.7	701.5	620.2	574.3	628.4	537.3	348.1	264.1	198.9	159.5	175.1	625.4	2445	2238	47.14	4.761	2.105	1.241	1.280	1.152	1.165	1.289	1.541	1.352	1.444	1.684	1.963	2.201	2.642	3.129	3.785	4.548	4.884	4.870	4.670	5.998	6.107	5.909	5.845	5.480	5.773	5.433	5.496	5.666	5.854	6.450	6.334	6.088	6.210	6.085	6.269	5.692	5.984	5.739	5.584	5.740	5.489	5.018	4.793	4.823	4.810
370.0	1132	1434	1666	1674	1636	1531	1439	1386	1394	1438	1435	1373	1289	1171	1046	924.1	828.2	746.8	671.4	609.2	587.5	603.2	506.7	346.3	252.8	190.2	149.6	216.1	735.8	1920	2073	588.5	14.04	2.287	1.531	1.227	1.318	1.236	1.372	1.264	1.545	1.572	1.955	2.218	2.631	3.102	3.443	4.142	4.426	4.474	4.609	5.714	5.836	5.831	5.924	5.436	5.872	5.766	5.794	5.854	5.976	6.268	6.373	6.205	6.258	5.994	5.898	5.866	5.799	5.638	5.429	5.403	5.471	5.375	5.118	4.892	4.964
375.0	1067	1318	1531	1600	1601	1547	1439	1412	1408	1443	1412	1371	1258	1148	1030	923.6	846.3	774.5	709.6	653.3	604.7	578.5	594.9	493.0	328.1	246.6	185.8	159.1	238.1	492.7	1302	2516	320.9	15.66	2.349	1.630	1.474	1.411	1.421	1.329	1.495	1.555	1.773	2.027	2.488	2.934	3.311	3.943	4.290	4.362	4.457	5.531	6.094	5.914	5.653	5.529	6.159	6.072	5.702	5.868	5.795	6.200	6.343	6.166	6.246	5.712	5.934	5.857	5.506	5.533	5.278	5.366	5.192	5.345	4.963	5.164	4.825
380.0	1012	1263	1511	1557	1573	1528	1443	1413	1394	1399	1377	1324	1238	1124	1021	921.2	848.3	790.8	731.1	681.0	627.9	586.2	573.8	590.8	417.0	295.2	222.7	172.8	147.8	174.9	370.8	1700	2224	260.0	7.946	2.225	1.814	1.636	1.426	1.313	1.505	1.701	1.667	2.017	2.452	2.821	2.915	3.709	4.091	4.180	4.371	5.308	5.675	5.807	5.551	5.446	6.217	5.949	5.655	6.076	5.886	6.085	6.409	6.150	5.984	5.782	5.934	5.521	5.633	5.540	5.494	4.894	5.417	5.196	4.960	5.251	4.839
385.0	984.0	1227	1442	1478	1558	1489	1434	1376	1387	1360	1340	1289	1202	1093	1001	907.7	840.7	792.8	745.8	697.1	645.0	600.6	558.3	574.6	513.8	353.3	258.3	201.9	149.8	121.0	138.1	499.0	1911	1870	40.83	4.379	2.198	1.783	1.615	1.592	1.587	1.762	1.524	2.159	2.392	2.899	2.906	3.727	3.833	4.070	4.009	5.472	5.344	5.394	5.924	5.457	6.094	5.840	5.445	5.927	5.708	5.877	5.868	6.108	5.953	5.498	5.720	5.392	5.608	5.241	5.381	5.352	5.022	5.251	4.895	4.969	5.047
390.0	966.8	1189	1355	1422	1460	1450	1389	1334	1323	1307	1285	1241	1151	1059	960.2	883.7	827.2	784.2	742.6	699.8	660.3	616.7	567.7	539.0	531.1	459.5	319.6	239.4	183.2	137.7	107.6	162.8	545.8	1394	1646	525.1	14.12	2.571	1.867	1.797	1.640	1.770	1.651	2.077	2.137	2.825	2.866	3.485	3.717	3.745	3.956	4.979	5.317	5.271	5.505	5.391	6.023	5.580	5.566	5.777	5.640	5.744	5.680	6.008	5.622	5.390	5.424	5.215	5.215	5.193	5.009	4.936	4.839	4.758	4.928	4.931	5.024
395.0	921.7	1143	1281	1362	1382	1411	1352	1302	1280	1268	1222	1175	1103	1011	921.5	854.0	809.0	770.6	737.6	699.0	666.1	618.5	579.9	538.7	500.1	487.6	426.3	295.0	220.1	171.6	127.7	105.9	168.6	349.5	880.3	1882	283.6	18.19	2.889	2.079	1.945	1.792	1.816	2.098	2.250	2.688	2.680	3.277	3.428	3.565	3.740	4.591	5.300	4.933	5.503	5.384	5.570	5.621	5.408	5.476	5.291	5.525	5.648	5.285	5.538	5.404	5.281	5.147	5.131	4.853	4.942	4.834	4.785	4.803	4.615	4.866	4.908
400.0	893.7	1084	1226	1304	1341	1334	1312	1268	1238	1213	1177	1123	1050	975.9	893.9	823.0	783.1	751.9	725.7	689.2	662.5	620.0	584.3	545.8	493.6	460.9	465.2	360.1	253.1	197.5	147.3	108.5	96.39	117.6	240.7	1094	1708	247.4	11.20	2.645	1.999	2.114	1.803	2.262	2.165	2.428	2.485	3.168	3.263	3.493	3.664	4.340	4.937	4.734	5.323	4.983	5.294	5.288	5.432	5.481	5.320	5.030	5.146	5.378	5.419	5.175	4.959	4.907	4.618	4.514	4.818	4.976	4.675	4.686	4.474	4.393	4.663
405.0	921.9	1060	1171	1235	1303	1294	1287	1214	1198	1163	1141	1084	1012	937.2	868.0	798.1	752.7	727.7	706.3	669.8	646.8	619.2	585.0	544.5	496.4	451.1	439.8	419.3	300.1	223.0	170.1	124.8	93.30	76.00	88.37	300.6	1236	1533	194.4	5.705	2.305	2.255	2.027	2.062	2.258	2.658	2.675	3.150	3.354	3.290	3.426	4.266	4.763	4.626	5.269	4.803	5.131	5.208	5.245	5.173	5.290	4.776	5.035	5.034	4.891	4.856	4.971	4.637	4.515	4.476	4.662	4.567	4.347	4.478	4.433	4.335	4.167
410.0	879.6	1005	1129	1179	1220	1242	1220	1192	1169	1121	1091	1031	954.9	892.7	821.5	762.5	724.8	699.7	675.1	649.8	627.0	603.6	573.5	538.3	495.5	451.6	414.1	407.3	371.1	273.3	197.5	148.8	110.4	81.27	65.85	99.26	336.0	954.3	1266	482.4	15.04	2.851	2.228	2.258	2.247	2.520	2.465	3.053	3.077	3.125	3.319	4.047	4.621	4.514	4.658	4.675	4.947	5.107	4.900	4.926	5.026	4.958	4.737	4.968	4.679	4.770	4.516	4.321	4.580	4.335	4.252	4.250	4.108	4.279	3.949	4.252	4.131
415.0	832.0	984.8	1062	1112	1166	1178	1166	1154	1119	1076	1042	992.0	908.2	842.9	779.3	719.3	686.2	662.2	642.3	620.0	597.7	579.5	555.2	528.1	488.7	446.1	407.0	379.2	371.9	338.8	236.7	171.3	129.9	96.13	73.19	64.78	104.5	236.7	558.4	1365	265.9	19.75	2.915	2.275	2.264	2.474	2.409	2.862	3.089	2.966	3.036	3.940	4.192	4.138	4.268	4.538	4.992	4.867	4.662	4.747	4.984	4.721	4.583	4.645	4.825	4.254	4.146	4.070	4.215	4.003	3.901	4.057	4.263	4.127	3.615	3.872	4.172
420.0	801.3	966.8	1008	1054	1125	1120	1128	1106	1082	1042	990.2	942.5	868.8	801.1	742.9	686.5	650.9	628.6	613.6	592.8	573.7	554.5	532.4	514.5	481.0	447.4	404.4	369.5	351.1	353.5	282.8	190.3	143.6	108.4	81.99	62.43	58.69	77.29	148.6	706.9	1295	240.5	12.16	2.834	2.500	2.453	2.444	2.971	3.108	3.032	2.879	3.723	3.968	4.022	4.198	4.424	4.762	4.836	4.406	4.501	4.370	4.707	4.620	4.702	4.389	4.032	3.955	3.871	4.138	4.032	3.933	3.975	3.820	3.981	3.737	3.706	3.704
425.0	750.6	871.2	968.0	1005	1050	1098	1082	1093	1060	1005	963.6	908.8	838.4	777.6	709.2	658.9	622.2	602.2	587.9	567.8	551.2	532.3	516.5	499.4	467.3	439.0	403.9	365.3	338.1	329.5	312.7	221.9	154.3	118.5	90.39	67.87	52.67	46.08	54.21	189.9	837.7	1200	187.8	6.275	2.863	2.636	2.526	2.709	2.831	3.009	3.015	3.583	3.684	3.760	4.260	4.073	4.574	4.610	4.376	4.642	4.334	4.606	4.414	4.453	4.356	3.910	3.961	3.935	3.722	3.779	3.815	3.742	3.451	3.678	3.663	3.763	3.705
430.0	936.1	818.4	911.9	961.5	1009	1018	1033	1044	1022	979.1	932.0	872.6	799.7	735.2	674.2	623.1	588.1	568.6	553.3	536.3	524.1	505.6	492.2	474.3	452.1	426.5	396.7	367.2	337.1	311.6	293.9	260.9	185.9	134.0	102.8	78.12	60.38	46.18	39.06	61.99	221.4	674.7	975.5	426.1	15.35	3.292	2.659	2.882	2.860	2.880	2.842	3.369	3.512	3.681	4.036	3.801	4.048	4.458	4.300	4.201	4.319	4.466	4.281	4.461	4.107	4.027	3.653	3.738	3.803	3.540	3.646	3.354	3.255	3.426	3.501	3.500	3.622
435.0	1442	825.1	858.6	910.9	956.3	960.4	989.2	1018	979.1	945.2	898.8	838.5	764.2	697.6	642.7	588.0	555.9	533.9	519.2	506.2	490.3	481.2	470.6	454.4	435.8	410.8	386.5	361.6	338.6	310.5	275.9	255.1	227.8	159.1	115.7	89.84	71.41	55.30	43.04	39.19	68.96	165.6	389.6	1115	646.5	21.51	3.260	3.007	2.785	2.757	2.608	3.284	3.345	3.599	3.641	3.547	3.955	4.213	4.511	4.410	4.277	4.146	4.047	4.048	3.758	3.664	3.567	3.560	3.463	3.424	3.435	3.406	3.550	3.248	3.206	3.090	3.350
440.0	1626	985.2	825.2	868.3	909.7	936.7	960.4	993.9	956.1	926.5	875.1	809.2	729.1	672.4	609.8	561.6	532.7	511.4	497.1	483.8	469.5	461.8	449.9	436.6	421.7	399.5	376.7	358.4	336.9	306.5	274.3	239.6	231.4	187.4	129.6	99.34	78.42	62.83	48.31	39.11	39.07	54.75	104.3	542.8	1229	236.5	13.50	3.382	2.942	2.654	2.563	3.001	3.237	3.513	3.450	3.463	3.685	3.923	4.201	3.950	4.238	3.952	3.962	4.063	3.801	3.682	3.330	3.259	3.276	3.019	3.167	3.154	3.083	3.186	3.011	3.031	3.084
445.0	1457	1348	829.7	838.1	882.2	894.5	924.5	957.7	942.6	899.9	846.5	785.8	705.1	642.7	586.4	539.2	507.6	484.7	474.1	459.6	449.5	437.7	427.9	419.8	404.4	388.4	368.1	350.8	328.0	303.1	269.7	234.4	215.2	205.5	149.7	108.5	85.68	69.61	55.45	44.83	36.64	34.34	39.94	144.5	710.2	1109	176.3	8.549	3.161	2.723	2.489	3.000	3.055	3.494	3.281	3.438	3.749	3.857	3.857	3.983	4.023	4.140	3.992	3.777	3.634	3.394	3.103	3.215	3.227	2.925	3.165	3.187	3.086	3.067	2.986	2.901	3.059
450.0	900.2	1644	1023	781.9	817.7	843.8	873.4	891.9	891.2	863.3	804.1	747.3	676.4	604.2	549.8	502.7	469.5	453.3	438.6	429.3	415.7	404.3	399.5	389.8	378.1	364.7	347.0	332.3	314.9	295.2	264.9	229.6	200.4	188.5	169.4	126.8	94.24	77.73	63.97	53.08	43.63	36.41	31.06	49.76	184.7	578.9	893.9	445.1	14.30	3.066	2.674	2.916	3.020	3.136	3.056	3.227	3.585	3.624	3.642	3.813	3.667	3.828	3.710	3.620	3.477	3.421	3.081	3.183	3.056	3.007	2.903	3.091	2.749	2.853	2.669	2.873	2.861
455.0	609.4	1309	1616	789.4	754.1	772.0	814.8	838.4	823.3	797.3	755.7	695.4	623.0	562.7	510.9	462.5	430.8	415.1	402.9	391.2	377.9	372.2	363.9	356.0	348.8	334.0	321.8	308.9	295.8	280.1	254.2	223.9	191.9	168.5	159.6	148.0	108.8	83.83	70.76	60.64	50.50	41.90	33.31	31.64	57.29	141.8	324.4	916.9	544.7	17.30	3.141	2.954	2.974	3.070	3.080	3.096	3.229	3.376	3.595	3.614	3.587	3.567	3.264	3.511	3.413	3.105	2.865	2.985	3.077	2.917	2.707	2.637	2.650	2.766	2.589	2.444	2.486
460.0	537.4	901.3	1871	942.1	706.9	736.2	766.2	784.0	790.1	752.2	720.4	656.3	588.3	530.7	475.2	431.5	403.2	383.6	372.8	357.5	349.3	341.8	337.2	332.9	326.0	309.4	301.6	292.1	281.3	266.0	244.6	214.4	184.4	162.8	144.6	145.9	124.0	90.57	74.89	64.08	54.61	45.42	37.29	30.01	30.59	45.17	84.54	413.1	988.0	182.3	11.82	3.284	3.118	2.779	3.020	2.763	3.036	3.281	3.307	3.275	3.495	3.378	3.240	3.189	2.973	3.083	2.719	2.693	2.817	2.722	2.418	2.600	2.405	2.588	2.400	2.312	2.385
465.0	461.8	632.7	1587	1321	680.2	676.6	726.7	734.9	750.8	718.3	683.6	615.8	554.2	492.3	447.9	404.3	374.2	358.9	346.8	334.0	325.9	320.2	316.2	306.3	302.1	288.4	281.9	275.6	264.7	251.7	232.4	206.1	180.0	157.3	136.7	130.5	128.0	100.9	78.07	66.90	57.91	47.62	40.32	31.58	26.24	24.89	29.77	106.9	557.4	821.8	148.0	7.643	3.390	2.704	2.696	2.627	2.951	3.160	3.044	3.036	3.218	3.178	3.158	2.971	2.936	2.925	2.605	2.639	2.721	2.514	2.398	2.363	2.256	2.437	2.324	2.217	2.210
470.0	461.4	506.7	943.4	1648	841.3	623.8	659.8	676.8	685.7	662.5	618.5	560.7	503.3	452.4	407.8	364.4	340.4	322.7	311.4	299.1	289.5	285.4	281.3	275.2	269.2	260.8	255.3	249.3	240.9	231.4	213.6	192.0	167.4	145.9	128.7	116.2	113.4	108.8	86.13	68.92	58.86	49.35	41.61	33.16	26.72	21.66	18.85	33.32	141.4	420.1	614.1	293.9	13.58	2.971	2.772	2.450	2.959	2.788	2.797	2.873	2.855	2.706	2.710	2.767	2.738	2.568	2.295	2.458	2.385	2.330	2.147	2.119	2.088	2.154	2.046	1.970	2.018
475.0	448.9	448.5	588.5	1228	1348	590.8	583.0	606.6	616.1	599.7	560.0	510.7	453.8	407.1	367.4	330.3	306.6	287.4	274.9	264.8	258.6	253.2	248.0	245.0	238.0	230.3	225.6	223.4	215.3	209.6	194.4	176.1	153.1	135.4	119.0	107.8	99.90	98.27	94.45	73.16	58.55	50.67	41.61	34.52	27.71	22.01	17.31	17.33	39.68	100.0	212.3	599.7	212.6	17.33	2.894	2.625	2.550	2.344	2.463	2.390	2.584	2.486	2.421	2.478	2.490	2.268	2.233	2.114	2.069	2.061	1.946	1.971	1.764	1.869	1.585	1.776	1.850
480.0	420.1	447.1	464.2	782.3	1592	715.3	535.2	566.3	567.5	551.5	524.6	475.8	423.8	382.0	341.1	304.7	285.1	265.0	253.4	247.1	236.6	229.8	228.7	225.3	219.3	213.4	207.3	203.8	201.9	195.7	180.5	163.6	145.0	129.0	113.2	101.7	92.11	86.83	92.22	79.03	59.67	50.31	41.63	35.50	28.65	22.79	17.66	14.65	17.34	29.16	53.93	259.9	648.6	191.3	10.86	2.822	2.675	2.565	2.420	2.449	2.286	2.300	2.431	2.373	2.321	2.194	2.146	1.873	1.932	2.058	1.708	1.763	1.697	1.808	1.581	1.681	1.832
485.0	364.2	472.4	429.9	536.5	1422	1065	519.8	524.4	533.5	519.1	493.5	449.5	400.2	360.8	320.9	285.3	265.0	245.9	236.8	229.0	221.5	216.3	211.3	208.9	202.1	197.6	194.6	190.4	188.1	183.4	171.2	154.8	136.6	122.4	108.5	97.26	87.23	80.04	81.18	81.01	64.48	50.71	41.73	34.71	29.14	23.52	19.20	14.81	13.13	13.86	18.02	67.16	375.4	640.0	148.9	5.649	2.616	2.453	2.280	2.242	2.268	2.229	2.364	2.318	2.299	2.037	1.866	1.803	1.847	1.910	1.676	1.613	1.609	1.689	1.527	1.590	1.764
490.0	297.0	457.5	415.1	427.7	827.9	1421	650.9	483.1	486.0	480.5	455.5	414.4	370.2	327.6	296.8	265.7	241.1	225.9	216.0	204.6	200.4	194.6	191.5	189.6	185.1	180.4	176.6	172.6	170.9	168.5	156.5	143.9	127.1	114.2	102.6	92.12	83.58	76.19	71.30	72.58	69.21	54.50	42.09	34.81	29.27	24.46	19.74	16.38	12.78	11.51	10.82	20.70	95.59	316.3	538.5	261.2	13.75	2.724	2.306	2.221	2.263	2.185	2.192	2.005	1.922	1.806	1.814	1.751	1.711	1.764	1.587	1.599	1.526	1.645	1.414	1.429	1.484
495.0	242.8	378.5	432.6	376.2	484.3	1142	1119	460.1	449.9	433.7	409.2	378.4	337.0	299.2	270.2	239.8	219.2	201.6	193.8	184.5	181.3	175.0	170.1	168.0	165.7	158.8	157.8	156.6	155.2	151.0	141.7	130.2	116.9	105.4	94.39	85.28	78.07	70.85	66.11	62.98	62.46	59.99	45.30	34.43	29.21	24.70	20.17	17.51	14.30	11.37	10.02	10.93	26.26	75.14	199.3	571.9	230.1	17.60	2.615	2.178	2.141	2.030	1.998	1.656	1.885	1.812	1.607	1.535	1.560	1.488	1.459	1.542	1.456	1.408	1.384	1.394	1.357
500.0	223.6	313.4	438.7	353.0	368.2	716.2	1424	546.2	402.8	395.0	373.6	350.1	306.9	276.3	247.9	218.9	200.8	187.3	176.3	168.6	164.9	158.0	155.1	151.8	149.4	144.1	143.2	143.9	142.0	136.6	131.1	119.1	107.8	96.20	86.87	80.61	73.74	66.81	61.65	56.66	54.29	57.10	47.71	36.25	28.80	23.95	20.32	17.57	14.87	11.91	10.00	9.009	11.26	21.55	49.68	249.6	613.0	200.2	10.86	2.297	1.989	1.920	1.859	1.610	1.632	1.752	1.429	1.503	1.479	1.468	1.285	1.446	1.272	1.289	1.351	1.344	1.322
505.0	192.8	264.0	387.3	355.2	329.2	443.7	1321	829.3	372.4	364.3	350.0	318.7	284.3	256.7	225.0	203.0	185.3	171.4	163.4	155.9	147.5	144.7	140.9	137.1	135.6	132.4	130.4	130.2	128.5	126.2	119.1	109.8	100.3	89.55	81.92	73.77	68.36	64.29	58.26	53.26	49.29	49.90	49.26	39.06	28.62	23.52	20.31	17.19	14.52	12.43	10.35	8.784	7.755	9.738	15.64	63.71	338.9	590.5	149.4	4.758	1.866	1.780	1.614	1.878	1.669	1.501	1.208	1.369	1.376	1.247	1.276	1.274	1.184	1.179	1.182	1.295	0.980
510.0	176.0	225.0	293.3	363.8	300.7	319.6	753.8	1264	456.0	324.6	310.6	287.0	255.9	226.4	199.7	180.3	162.5	152.1	142.9	136.2	129.8	126.4	123.4	121.0	119.4	116.2	115.4	113.2	112.9	111.9	105.7	97.79	88.58	80.45	73.60	66.11	61.63	57.38	53.08	49.05	44.91	41.30	42.33	39.23	30.84	23.17	19.40	16.44	14.21	12.26	10.82	9.210	7.582	7.544	8.079	18.57	85.11	282.3	444.4	134.2	12.44	2.019	1.660	1.614	1.475	1.426	1.274	1.133	1.180	1.153	1.093	1.124	1.020	1.193	1.067	1.034	1.012
515.0	156.0	197.9	229.7	328.7	297.8	262.9	382.7	1099	894.3	304.7	272.0	255.4	224.1	199.3	175.9	155.6	141.3	133.0	124.0	118.5	111.9	109.6	107.6	104.7	102.4	99.08	100.2	96.31	97.92	96.48	91.59	85.78	76.21	70.79	64.48	59.44	55.38	51.01	47.00	43.54	40.14	36.72	34.25	34.83	33.09	24.33	19.00	16.20	13.97	12.18	10.53	9.614	8.216	7.162	6.551	8.462	22.87	66.34	154.6	421.1	217.9	15.40	1.760	1.469	1.283	1.356	1.188	1.118	1.131	1.041	0.943	0.945	0.917	1.049	0.912	0.874	0.850
520.0	135.8	173.2	198.8	267.6	315.3	239.4	273.2	664.9	1278	330.7	248.2	227.6	198.2	177.0	160.0	141.9	125.3	119.2	112.3	104.6	101.5	98.98	95.96	92.86	90.59	89.25	88.95	87.67	87.42	87.55	82.19	76.58	70.04	64.39	58.98	53.46	50.17	46.33	43.22	40.28	36.70	33.29	29.84	30.38	31.49	27.05	19.43	15.40	13.61	11.72	10.39	9.105	8.391	6.784	6.503	6.213	9.057	17.89	38.16	183.9	451.7	179.3	7.841	1.422	1.273	1.308	1.194	1.030	1.018	0.984	1.003	0.900	0.838	0.921	0.855	0.803	0.859
525.0	128.0	140.0	177.9	213.5	299.7	233.7	227.0	360.1	1305	625.6	226.6	208.6	182.1	165.0	145.9	127.1	116.7	107.8	100.8	94.16	92.42	87.52	86.00	84.37	80.96	81.40	80.14	78.87	78.50	77.93	75.27	69.65	62.95	58.39	53.04	48.37	45.31	41.74	39.44	36.90	33.68	30.61	27.98	26.12	27.08	27.47	20.52	15.20	12.95	11.16	10.07	8.620	8.256	6.848	6.225	5.477	5.832	7.316	11.21	46.32	237.3	425.6	32.54	3.588	1.283	1.225	1.080	0.804	1.028	0.870	0.833	0.869	0.815	0.812	0.876	0.695	0.731
530.0	114.9	129.7	163.6	169.0	242.1	247.4	197.7	229.6	718.9	1144	309.5	181.2	160.8	144.4	126.6	110.8	100.3	92.71	87.28	82.36	79.17	76.37	74.01	72.75	69.86	69.98	69.08	67.76	68.60	67.63	64.79	59.97	55.49	50.40	46.34	43.06	39.97	37.01	34.45	32.29	28.84	27.12	24.25	22.42	22.03	23.51	21.84	16.43	12.42	10.68	9.343	8.219	7.590	7.162	6.321	5.517	5.035	4.852	5.158	12.74	58.52	195.6	296.7	130.5	11.44	1.263	0.964	0.896	0.820	0.817	0.757	0.698	0.672	0.696	0.782	0.671	0.737
535.0	100.5	111.1	138.4	137.6	179.6	250.1	187.6	180.0	305.3	1066	717.3	162.0	138.0	124.1	109.5	96.67	86.33	80.48	76.17	69.25	68.85	65.22	63.48	62.24	60.89	59.25	58.52	57.51	58.49	56.66	53.73	50.94	47.94	43.26	39.96	37.03	34.04	32.07	29.96	28.31	25.32	23.39	21.79	19.26	18.18	18.12	19.34	17.72	12.40	10.14	8.893	7.671	6.888	6.494	6.012	5.453	4.450	4.309	3.932	4.973	15.08	45.37	100.6	297.7	195.3	13.53	1.075	0.922	0.867	0.767	0.654	0.688	0.596	0.594	0.598	0.568	0.534
540.0	94.86	100.5	116.4	121.5	137.3	225.1	191.4	158.0	185.5	611.9	1147	198.7	122.5	107.5	95.72	85.52	77.13	70.29	65.06	61.07	57.91	57.77	54.53	53.93	53.72	51.01	50.31	50.50	50.87	50.64	48.27	44.95	41.91	37.16	34.56	33.10	30.61	28.46	26.41	24.20	22.75	21.35	19.19	17.63	16.23	15.28	16.09	16.65	13.25	9.708	8.122	7.216	6.479	5.865	5.723	5.247	4.655	3.927	3.467	3.200	5.248	11.79	24.36	123.4	321.8	146.8	6.527	0.926	0.754	0.633	0.594	0.582	0.499	0.594	0.559	0.530	0.492
545.0	83.83	91.57	103.9	111.8	118.1	177.0	203.3	143.6	142.9	281.9	1208	410.8	107.3	96.08	86.51	75.66	67.97	62.76	58.16	54.05	51.23	49.39	47.55	47.63	46.66	45.98	44.59	43.73	44.04	45.10	42.46	39.74	36.95	33.90	30.26	29.16	26.78	25.44	23.59	21.71	20.14	18.65	17.46	15.93	14.03	13.19	12.56	14.53	14.21	10.02	7.583	6.566	6.199	5.452	5.048	5.187	4.683	3.677	3.161	2.763	2.962	4.319	6.952	30.26	157.9	299.1	32.51	2.711	0.692	0.639	0.532	0.511	0.405	0.454	0.471	0.483	0.428
550.0	82.21	80.81	95.32	90.99	94.58	119.9	196.7	142.2	117.6	153.3	638.7	928.0	143.6	80.14	70.44	61.87	56.07	52.29	48.58	44.98	43.29	40.96	39.54	39.34	37.80	38.07	36.95	36.92	37.08	36.78	35.09	33.50	30.06	28.01	25.42	24.11	22.37	21.05	19.71	18.46	17.27	15.61	14.81	13.53	12.21	11.37	10.55	11.19	12.02	10.68	7.781	6.095	5.391	4.944	4.403	4.446	4.245	3.876	3.182	2.530	2.478	2.429	2.929	7.984	38.31	128.4	196.8	109.7	10.92	0.755	0.560	0.512	0.439	0.435	0.393	0.475	0.392
555.0	75.02	86.84	81.87	82.98	77.32	85.08	140.6	162.5	103.5	107.4	225.0	949.3	448.2	68.29	57.84	51.26	44.98	40.81	38.39	36.74	35.46	33.49	32.53	31.61	30.61	31.36	28.90	29.92	29.92	29.07	27.84	26.46	24.43	22.54	20.51	19.61	18.55	16.68	16.28	14.82	14.09	13.07	12.15	11.21	10.46	9.663	8.820	8.472	8.896	9.320	8.321	6.033	4.822	4.179	4.095	3.765	3.290	3.464	3.079	2.461	2.159	1.828	1.900	2.912	9.349	29.56	61.64	187.9	147.0	12.65	0.584	0.500	0.479	0.407	0.370	0.312	0.347
560.0	90.63	91.86	81.39	80.27	72.68	71.85	97.11	170.2	98.28	90.22	116.4	532.3	849.6	91.33	48.89	43.03	38.38	35.71	32.57	31.14	28.79	27.15	27.87	25.91	25.63	26.10	24.50	24.80	24.65	24.92	23.67	21.99	20.83	19.50	17.09	15.92	15.34	14.72	13.52	13.18	11.70	10.76	10.56	9.726	8.746	8.445	7.706	7.030	6.773	7.628	8.053	6.175	4.278	3.657	3.431	3.244	2.767	2.913	2.776	2.619	1.891	1.787	1.511	1.678	2.851	7.421	14.60	69.98	201.8	105.0	6.230	0.499	0.443	0.364	0.377	0.319	0.293
565.0	86.82	92.46	95.14	79.88	63.92	58.18	74.55	154.7	114.7	83.92	90.15	220.2	993.1	163.3	43.89	37.86	33.31	31.45	27.73	25.68	24.45	22.86	23.05	21.80	22.31	21.19	20.78	21.20	21.55	20.91	20.50	18.92	17.33	16.24	15.02	13.91	13.00	12.33	11.39	10.83	10.03	9.149	9.023	8.047	7.459	7.037	6.421	5.998	5.395	5.975	6.602	6.354	4.094	3.168	3.103	2.949	2.643	2.478	2.545	2.532	1.853	1.516	1.355	1.224	1.310	2.413	3.924	16.81	87.43	184.5	33.08	2.585	0.477	0.380	0.283	0.316	0.290
570.0	86.83	101.7	102.7	78.39	60.17	54.15	57.44	107.3	143.3	89.95	85.18	116.0	550.6	641.9	69.81	30.40	27.80	24.38	22.70	20.82	19.59	18.82	18.22	18.00	17.43	17.17	16.67	16.56	16.91	16.80	16.19	15.00	14.07	13.27	11.92	11.27	10.51	10.03	9.395	8.915	8.293	7.569	7.268	6.449	6.236	5.759	5.494	5.001	4.717	4.396	4.684	5.297	4.417	3.353	2.723	2.440	2.364	2.136	2.021	2.004	1.985	1.603	1.270	1.024	1.045	1.232	1.600	4.416	20.81	70.66	115.0	74.63	10.45	0.465	0.293	0.283	0.269
575.0	101.1	118.5	109.8	84.34	60.59	47.12	48.36	67.77	145.2	112.7	93.43	101.0	197.3	737.1	277.8	25.21	22.53	18.78	18.12	16.65	15.98	15.36	14.75	14.10	13.88	13.78	13.28	13.13	13.29	12.86	12.92	12.13	10.84	10.27	9.589	9.076	8.666	8.243	7.081	7.215	6.683	5.911	6.070	5.379	5.096	4.898	4.150	4.214	3.897	3.453	3.280	3.776	4.048	3.506	2.567	2.154	2.016	2.020	1.714	1.648	1.737	1.909	1.400	0.972	0.976	1.033	1.046	1.607	5.252	16.28	32.73	101.1	97.14	12.29	0.381	0.326	0.203
580.0	101.8	127.5	117.9	82.63	58.36	47.02	45.15	56.51	121.0	144.2	106.7	104.2	113.3	436.8	586.4	37.62	17.96	15.96	15.54	13.90	13.37	12.63	12.75	11.69	11.94	11.18	11.23	11.06	11.13	11.17	10.56	10.11	8.995	9.015	8.017	7.186	7.033	7.013	6.022	6.250	5.681	4.996	5.201	4.687	4.390	4.070	3.960	3.407	3.279	3.038	2.677	2.855	3.293	3.483	2.819	2.020	1.725	1.569	1.546	1.280	1.372	1.683	1.625	1.192	1.006	0.986	0.940	1.035	1.849	4.231	7.838	34.10	112.9	77.42	6.014	0.303	0.258
585.0	109.8	134.1	119.0	82.78	58.49	42.92	45.37	53.74	95.16	165.4	121.9	111.9	102.8	179.0	721.1	98.47	16.26	14.37	13.80	12.52	10.72	11.11	10.62	9.908	10.15	9.337	9.247	9.417	9.519	9.343	8.901	8.233	7.607	7.426	6.788	6.238	5.889	5.882	5.326	5.129	4.735	4.562	4.628	4.098	4.148	3.583	3.447	3.247	3.075	2.584	2.382	2.390	2.488	3.036	2.877	2.062	1.599	1.432	1.243	1.213	1.171	1.256	1.555	1.392	1.056	0.960	1.037	0.891	0.965	1.464	2.172	8.243	42.77	108.9	33.09	2.589	0.218
590.0	128.9	148.7	117.4	80.60	52.69	40.13	41.02	51.10	75.08	155.4	155.8	126.0	108.0	88.44	390.9	407.3	29.12	12.41	10.84	9.904	9.326	9.272	8.740	8.170	7.958	7.585	7.614	7.646	7.614	7.391	7.230	6.682	6.127	6.011	5.541	5.069	4.849	4.664	4.513	4.073	3.882	3.712	3.419	3.199	3.279	2.887	2.733	2.704	2.480	2.263	2.033	1.953	1.885	2.111	2.642	2.109	1.618	1.265	1.169	1.172	1.015	1.112	1.112	1.414	1.284	1.057	1.013	0.907	0.905	0.912	1.012	2.286	10.07	37.49	69.27	54.30	9.627
595.0	118.9	137.4	119.7	83.89	46.77	36.56	37.85	48.66	73.53	120.2	187.5	137.3	111.9	68.17	117.1	493.0	96.86	10.71	8.900	7.976	7.346	7.132	6.748	6.299	6.111	5.954	6.311	5.962	5.875	5.520	5.988	5.371	4.838	4.903	4.345	4.141	4.036	3.678	3.521	3.146	3.136	3.000	2.651	2.599	2.687	2.654	2.345	2.302	1.942	1.779	1.728	1.475	1.434	1.542	1.938	1.994	1.740	1.181	1.058	1.099	0.906	0.962	0.913	1.140	1.333	1.195	0.930	0.902	0.874	0.759	0.639	0.921	2.561	8.607	17.92	56.15	65.31
600.0	122.1	130.9	116.3	78.24	48.47	37.72	35.27	48.01	67.49	100.6	190.7	155.1	110.0	66.10	47.20	293.1	334.1	16.53	7.287	6.560	6.197	6.276	5.574	5.456	5.247	5.008	5.063	5.191	5.317	4.880	4.920	4.384	4.013	3.777	3.395	3.484	3.417	3.039	3.096	2.840	2.654	2.777	2.216	2.382	2.170	2.142	1.958	1.940	1.750	1.585	1.541	1.388	1.238	1.197	1.398	1.656	1.606	1.401	0.913	0.900	0.803	0.852	0.802	0.940	1.062	1.283	1.131	0.783	0.923	0.755	0.647	0.580	0.933	2.141	4.205	16.90	62.50
605.0	113.2	132.4	117.7	80.96	49.71	36.95	36.50	47.05	65.86	95.36	168.2	166.0	113.3	64.80	30.22	106.3	450.4	58.48	5.828	5.581	5.642	5.273	4.530	4.927	4.379	4.701	4.259	4.217	4.136	4.479	4.284	3.923	3.615	3.125	2.692	3.057	3.008	2.608	2.695	2.442	2.036	2.173	2.117	1.839	1.871	1.867	1.758	1.732	1.502	1.485	1.179	1.127	1.111	0.869	1.051	1.414	1.442	1.380	0.796	0.801	0.744	0.708	0.761	0.737	0.962	1.252	1.260	0.999	0.871	0.719	0.662	0.433	0.504	0.706	1.135	4.038	21.22
610.0	110.3	121.6	104.8	71.55	44.23	35.04	36.40	45.03	64.44	91.63	136.9	179.0	119.2	64.77	27.39	36.52	268.1	253.7	12.52	4.582	4.401	4.373	3.945	3.710	3.786	3.641	3.588	3.531	3.532	3.412	3.318	3.001	2.774	2.631	2.390	2.393	2.301	2.182	2.142	1.835	1.709	1.665	1.631	1.632	1.478	1.476	1.507	1.440	1.302	1.185	1.045	0.947	0.908	0.809	0.878	0.905	1.116	1.368	0.979	0.768	0.683	0.612	0.708	0.796	0.846	0.927	1.102	1.091	0.848	0.706	0.571	0.421	0.339	0.357	0.401	1.054	4.939
615.0	106.8	106.9	97.56	64.10	41.74	33.86	33.46	45.16	62.09	91.22	121.5	163.6	132.0	62.24	27.29	19.78	78.16	341.2	66.94	4.143	3.509	3.301	3.087	2.839	2.924	2.756	2.728	2.779	2.427	2.904	2.589	2.200	2.264	1.937	1.987	1.881	1.762	1.786	1.535	1.547	1.351	1.305	1.179	1.324	1.198	1.217	1.127	1.082	1.006	0.888	0.884	0.810	0.663	0.666	0.729	0.644	0.775	0.977	0.936	0.791	0.682	0.540	0.603	0.705	0.759	0.790	0.882	0.907	0.950	0.707	0.607	0.453	0.287	0.264	0.209	0.369	1.211
620.0	99.24	108.6	88.46	63.69	40.38	32.61	32.96	42.15	56.25	84.40	108.9	139.5	141.5	65.08	28.21	17.03	27.02	220.7	214.8	6.673	3.023	2.533	2.615	2.380	2.474	2.234	2.163	2.347	2.161	1.992	2.286	1.782	1.903	1.659	1.689	1.657	1.386	1.593	1.311	1.313	1.231	1.012	1.105	1.088	1.046	1.026	1.085	1.009	0.888	0.757	0.738	0.639	0.605	0.566	0.642	0.569	0.514	0.751	0.869	0.743	0.627	0.602	0.682	0.605	0.752	0.686	0.734	0.688	0.976	0.807	0.577	0.369	0.252	0.294	0.174	0.210	0.404
625.0	88.44	99.12	81.73	66.77	37.98	30.24	33.72	42.73	52.78	79.90	102.7	125.0	138.8	68.14	30.36	15.65	15.15	83.49	316.0	28.98	2.657	2.407	2.124	2.341	1.964	1.936	1.969	1.849	1.744	1.723	1.956	1.674	1.512	1.397	1.280	1.459	1.169	1.319	1.157	1.101	1.123	0.892	0.919	1.011	0.883	0.818	1.032	0.831	0.772	0.671	0.582	0.562	0.637	0.417	0.464	0.496	0.468	0.600	0.753	0.735	0.638	0.505	0.563	0.601	0.718	0.688	0.620	0.681	0.792	0.825	0.690	0.388	0.470	0.226	0.185	0.223	0.213
630.0	79.26	93.50	76.72	55.25	38.61	28.72	31.14	39.18	51.72	71.32	95.95	107.9	119.2	81.53	30.30	15.47	12.51	25.63	202.2	146.1	5.835	1.967	2.005	1.836	1.621	1.623	1.483	1.542	1.425	1.456	1.536	1.279	1.292	1.179	1.130	1.103	0.960	0.981	0.874	0.831	0.817	0.812	0.803	0.754	0.695	0.685	0.746	0.725	0.637	0.580	0.487	0.468	0.462	0.354	0.385	0.435	0.402	0.464	0.465	0.687	0.637	0.561	0.439	0.512	0.615	0.640	0.543	0.555	0.651	0.677	0.737	0.471	0.342	0.216	0.202	0.177	0.147
635.0	78.41	79.16	69.85	49.71	31.30	24.58	29.61	36.77	46.50	64.22	86.47	96.76	95.53	87.79	35.19	16.32	11.84	12.23	59.30	246.9	45.86	1.973	1.506	1.294	1.460	1.389	1.222	1.160	1.036	1.199	1.015	1.048	1.019	0.910	0.868	0.790	0.769	0.824	0.755	0.674	0.669	0.664	0.629	0.551	0.597	0.513	0.614	0.572	0.566	0.505	0.478	0.405	0.360	0.334	0.327	0.372	0.381	0.347	0.382	0.494	0.601	0.542	0.496	0.362	0.461	0.531	0.476	0.584	0.486	0.475	0.559	0.511	0.349	0.202	0.194	0.161	0.318
640.0	70.87	77.46	60.54	44.99	29.97	27.33	30.44	36.64	43.36	59.65	80.25	87.59	83.88	81.73	41.68	17.36	11.75	9.173	18.07	177.3	140.4	3.297	1.400	1.143	1.212	1.045	1.215	1.076	0.952	0.952	0.767	0.962	0.833	0.801	0.709	0.648	0.763	0.621	0.584	0.574	0.556	0.520	0.562	0.471	0.601	0.530	0.572	0.506	0.513	0.470	0.360	0.325	0.316	0.340	0.308	0.363	0.335	0.250	0.360	0.351	0.548	0.493	0.443	0.426	0.513	0.511	0.468	0.441	0.445	0.490	0.469	0.487	0.436	0.264	0.168	0.183	0.222
645.0	65.94	80.49	68.82	43.56	30.91	26.91	29.53	34.24	42.47	54.02	72.61	80.56	74.00	67.06	49.68	19.16	11.71	8.556	8.443	72.14	224.9	15.82	1.378	0.993	1.005	0.913	1.014	0.920	0.784	0.765	0.827	0.807	0.736	0.566	0.695	0.546	0.599	0.586	0.515	0.447	0.456	0.436	0.534	0.380	0.441	0.413	0.472	0.467	0.410	0.445	0.260	0.339	0.320	0.306	0.346	0.281	0.284	0.208	0.264	0.320	0.437	0.494	0.475	0.416	0.425	0.512	0.462	0.401	0.468	0.342	0.374	0.399	0.460	0.355	0.198	0.163	0.167
650.0	75.96	75.65	73.01	42.75	31.63	25.57	27.77	32.83	38.89	50.32	70.85	78.43	70.88	57.86	54.55	21.26	12.09	8.509	6.252	21.81	207.9	58.77	1.489	0.907	0.874	0.949	0.903	0.863	0.681	0.769	0.770	0.668	0.536	0.436	0.522	0.593	0.483	0.571	0.425	0.437	0.418	0.363	0.468	0.404	0.397	0.398	0.430	0.401	0.409	0.392	0.310	0.334	0.295	0.258	0.245	0.201	0.268	0.234	0.296	0.253	0.314	0.385	0.457	0.454	0.414	0.424	0.344	0.347	0.479	0.352	0.405	0.310	0.356	0.422	0.232	0.201	0.163
