Sample:	'1
File name:	S2025080905»ÆºÓÂ·ÇÅ.FD3
Run date:	'15:13:53, 08/10/2025
Operator:	Administrator
Comment:	'

Instrument
Model:	F-2700 FL Spectrophotometer
Serial number:	3064-004
ROM Version:	4J14000 07

Instrument parameters
Measurement type:	3-D scan
Data mode:	Fluorescence
EX  Start WL:	220.0 nm
EX  End WL:	600.0 nm
EX Sampling interval:	5.0 nm
EM  Start WL:	230.0 nm
EM  End WL:	650.0 nm
EM Sampling interval:	5.0 nm
Scan speed:	12000 nm/min
EX Slit:	5.0 nm
EM Slit:	5.0 nm
PMT Voltage:	700 V
Response:	Auto 
Corrected spectra:	Off
Contour interval:	50.000

Peak integration
Integration method:	Rectangular
Sensitivity:	1
Threshold:	1.000

Peaks
No.	ApexEX/EM(nm)	Height(Data)
1	230.0/580.0	70.06
2	230.0/605.0	65.21
3	235.0/350.0	 1239
4	235.0/595.0	65.36
5	235.0/625.0	55.27
6	240.0/520.0	252.2
7	245.0/265.0	324.3
8	245.0/380.0	 1361
9	245.0/530.0	234.2
10	250.0/545.0	225.6
11	255.0/280.0	672.2
12	255.0/555.0	206.3
13	260.0/285.0	926.0
14	260.0/570.0	181.0
15	265.0/290.0	 1132
16	265.0/580.0	181.9
17	270.0/295.0	 1577
18	270.0/590.0	171.0
19	275.0/305.0	 1919
20	275.0/605.0	169.0
21	280.0/310.0	 1801
22	280.0/335.0	 1559
23	280.0/345.0	 1556
24	280.0/360.0	 1580
25	280.0/375.0	 1573
26	280.0/615.0	129.4
27	285.0/315.0	 1671
28	285.0/630.0	97.53
29	290.0/645.0	82.62
30	305.0/340.0	 1045
31	315.0/355.0	888.1
32	320.0/360.0	950.9
33	325.0/365.0	926.4
34	335.0/380.0	962.3
35	340.0/385.0	939.7
36	430.0/505.0	86.88
37	445.0/525.0	51.71
38	460.0/340.0	5.231
39	505.0/275.0	3.513
40	520.0/285.0	4.874
41	530.0/290.0	5.440
42	540.0/295.0	7.186
43	545.0/300.0	7.460
44	550.0/305.0	8.555
45	560.0/310.0	8.279
46	565.0/315.0	7.819
47	575.0/320.0	7.635
48	585.0/325.0	8.051
49	590.0/330.0	6.913

Data points
	220.0	225.0	230.0	235.0	240.0	245.0	250.0	255.0	260.0	265.0	270.0	275.0	280.0	285.0	290.0	295.0	300.0	305.0	310.0	315.0	320.0	325.0	330.0	335.0	340.0	345.0	350.0	355.0	360.0	365.0	370.0	375.0	380.0	385.0	390.0	395.0	400.0	405.0	410.0	415.0	420.0	425.0	430.0	435.0	440.0	445.0	450.0	455.0	460.0	465.0	470.0	475.0	480.0	485.0	490.0	495.0	500.0	505.0	510.0	515.0	520.0	525.0	530.0	535.0	540.0	545.0	550.0	555.0	560.0	565.0	570.0	575.0	580.0	585.0	590.0	595.0	600.0
230.0	35.39	984.9	 5209	 2683	112.5	14.00	9.747	10.31	7.858	6.866	8.568	6.706	6.391	5.648	5.030	4.748	4.449	4.117	3.821	3.699	3.252	3.076	2.993	2.740	2.685	2.733	2.624	2.350	2.226	2.199	2.228	2.112	1.895	1.705	1.688	1.645	1.474	1.393	1.402	1.235	1.296	1.293	1.147	1.139	0.976	1.114	1.956	5.549	9.437	8.203	3.740	1.064	0.745	0.738	0.730	0.719	0.727	0.648	0.643	0.537	0.545	0.607	0.578	0.600	0.581	0.505	0.521	0.505	0.474	0.459	0.531	0.470	0.484	0.443	0.388	0.504	0.412
235.0	53.63	261.9	 2180	 5462	 1123	162.4	12.81	10.32	7.852	7.364	9.495	7.926	8.117	5.958	4.863	5.151	4.813	4.475	3.912	3.864	3.391	3.101	2.970	2.972	2.925	2.644	2.661	2.441	2.726	2.746	2.264	2.054	1.764	1.774	1.903	1.609	1.285	1.723	1.452	1.285	1.345	1.121	1.010	1.465	1.104	1.204	1.358	2.185	3.661	6.893	9.743	10.75	4.844	1.709	0.720	0.830	0.740	0.756	0.714	0.539	0.720	0.613	0.574	0.566	0.655	0.506	0.434	0.462	0.458	0.404	0.465	0.457	0.411	0.459	0.422	0.618	0.458
240.0	59.34	124.8	549.5	 3114	 4556	963.2	90.86	14.84	10.63	6.696	8.910	8.357	8.188	6.918	5.232	4.433	5.201	3.742	4.015	3.220	3.975	3.235	2.927	3.149	2.672	2.446	2.137	2.772	2.566	2.255	2.048	2.036	1.853	1.697	1.798	1.562	1.491	1.653	1.507	1.465	1.007	1.290	0.975	1.326	1.266	1.119	1.343	1.360	1.532	2.486	5.425	12.18	15.85	11.62	3.989	1.266	0.698	0.879	0.649	0.514	0.686	0.615	0.490	0.509	0.559	0.486	0.484	0.517	0.464	0.480	0.501	0.349	0.484	0.388	0.417	0.597	0.514
245.0	47.75	110.3	193.6	824.3	 3134	 4988	790.3	49.37	12.13	10.44	9.461	7.742	7.158	6.187	6.362	5.201	4.880	4.768	4.655	3.668	3.534	3.200	3.337	3.233	2.628	2.325	2.521	2.836	2.227	2.266	2.319	1.914	1.805	1.845	1.761	1.824	1.451	1.481	1.268	1.346	1.150	1.107	1.158	1.048	1.117	1.278	1.422	1.344	1.133	1.187	2.139	4.221	10.71	16.79	17.21	10.07	3.245	0.885	0.807	0.686	0.715	0.605	0.510	0.627	0.637	0.560	0.477	0.477	0.450	0.416	0.404	0.386	0.608	0.301	0.360	0.651	0.554
250.0	39.76	75.07	171.2	286.0	830.9	 2947	 5067	 2839	236.9	15.72	13.02	10.04	8.137	7.640	6.836	5.421	6.199	4.765	4.913	3.886	3.737	3.727	3.565	3.224	3.240	2.733	2.526	2.832	2.628	2.515	2.524	2.127	2.050	1.728	1.636	1.668	1.527	1.864	1.466	1.455	1.147	1.386	1.267	1.204	1.161	1.116	1.100	1.274	1.521	1.416	1.341	1.672	3.068	5.572	10.25	16.08	20.51	17.28	10.19	3.549	0.901	0.604	0.514	0.588	0.527	0.654	0.536	0.496	0.449	0.512	0.441	0.395	0.528	0.464	0.443	0.535	0.529
255.0	37.37	41.04	103.0	260.5	319.9	691.3	 2147	 7510	 4399	321.9	15.09	13.37	9.917	9.765	7.444	7.377	6.056	5.348	5.278	3.553	4.739	3.878	3.588	3.520	3.285	3.261	2.729	2.830	2.779	2.588	2.633	2.266	2.220	2.077	2.046	1.565	1.563	1.602	1.510	1.506	1.402	1.250	1.258	1.313	1.297	1.149	1.118	1.082	1.067	1.281	1.668	1.933	1.629	1.768	2.850	4.288	7.698	17.32	30.15	33.71	17.72	3.936	0.781	0.844	0.530	0.633	0.559	0.653	0.525	0.511	0.563	0.593	0.597	0.576	0.482	0.511	0.530
260.0	36.20	31.08	56.61	152.0	331.7	252.8	544.1	 3705	 9937	 3761	203.0	19.05	11.82	12.27	8.317	6.090	5.902	5.529	4.750	3.900	4.914	4.557	3.843	3.507	3.465	3.230	2.855	3.095	3.184	2.938	2.768	2.169	2.389	1.853	1.796	1.568	1.620	1.519	1.354	1.368	1.541	1.284	1.260	1.345	1.386	0.955	1.172	0.979	0.889	1.031	1.220	1.912	2.081	1.521	1.512	1.688	2.426	4.916	13.22	30.24	44.07	36.00	13.54	2.088	0.612	0.621	0.501	0.528	0.610	0.677	0.513	0.474	0.524	0.412	0.404	0.458	0.464
265.0	56.29	32.65	38.92	65.78	260.0	324.3	176.8	961.0	 5685	9999.9	 3045	95.64	15.47	14.99	9.600	7.222	6.237	5.190	5.373	4.533	4.743	4.533	3.743	3.406	3.303	3.532	3.337	2.980	3.362	2.657	2.771	2.195	2.688	1.631	1.704	1.873	1.507	1.638	1.255	1.551	1.607	1.242	1.492	1.401	1.278	1.014	1.064	0.970	1.026	0.952	1.009	1.310	1.836	2.334	2.043	1.221	1.313	1.705	3.713	9.025	22.89	45.43	51.97	33.32	8.456	1.147	0.628	0.508	0.726	0.588	0.611	0.513	0.509	0.595	0.506	0.460	0.420
270.0	79.23	52.13	48.31	45.21	102.1	303.4	359.6	326.3	 1482	 5523	9999.9	 8085	192.1	21.57	12.55	10.74	7.991	6.790	5.738	5.502	4.902	4.767	4.326	3.650	2.977	3.551	3.283	3.103	3.446	2.975	2.922	2.673	2.172	2.097	2.111	1.772	1.751	1.839	1.336	1.509	1.443	1.376	1.342	1.529	1.375	1.471	1.243	1.180	1.073	1.016	0.893	1.031	0.975	1.555	2.102	2.434	2.193	1.681	1.688	2.795	6.081	13.41	25.89	43.15	49.15	51.68	23.58	8.090	1.141	0.580	0.632	0.633	0.511	0.495	0.639	0.394	0.589
275.0	145.7	105.6	89.31	65.02	65.40	123.2	381.8	573.6	506.7	 1398	 3840	9999.9	9999.9	248.8	21.61	13.85	10.17	8.897	6.754	6.342	5.793	4.506	4.432	4.300	3.693	3.654	3.297	3.764	3.395	2.947	3.017	2.317	2.447	2.731	2.392	1.786	1.842	1.557	1.574	1.576	1.519	1.432	1.515	1.422	1.697	1.473	1.224	1.252	1.383	1.173	0.970	1.126	0.726	1.036	1.383	1.521	2.708	3.513	2.998	2.109	2.329	3.910	6.815	10.81	16.06	38.78	76.86	54.48	35.58	7.284	0.794	0.620	0.597	0.532	0.509	0.460	0.649
280.0	221.9	202.5	162.7	130.4	80.80	90.67	220.6	672.2	572.3	537.6	 1140	 5050	9999.9	 9662	158.5	20.10	15.07	11.52	8.870	6.617	6.633	5.411	4.902	4.163	4.283	4.084	4.000	3.685	3.526	3.446	3.017	2.849	2.880	2.510	2.172	2.171	1.733	1.710	1.622	1.788	1.595	1.753	1.666	1.929	1.963	1.811	1.662	1.588	1.570	1.330	1.158	1.221	0.983	1.098	1.008	1.235	1.803	2.680	3.722	3.781	2.458	2.254	2.922	3.777	5.231	10.92	29.09	62.81	104.6	52.56	23.70	2.584	0.685	0.612	0.644	0.552	0.712
285.0	451.3	293.3	238.6	196.3	128.0	107.8	158.7	444.2	926.0	566.3	615.7	 1524	 7272	9999.9	 2073	97.59	19.17	12.52	10.88	7.679	7.446	5.896	5.876	3.907	4.223	4.504	4.036	3.802	3.916	4.154	3.135	3.020	2.730	2.653	2.322	2.469	1.943	1.622	2.011	1.764	1.547	1.629	1.705	2.007	2.021	2.068	1.709	2.142	1.882	1.558	1.440	1.426	1.223	1.282	1.065	1.248	1.413	1.644	2.538	4.263	4.874	3.177	2.821	2.971	2.899	4.009	8.262	18.33	47.32	93.33	118.5	43.37	12.13	0.974	0.781	0.671	0.692
290.0	361.8	402.5	417.6	337.6	243.2	179.1	205.1	322.1	704.9	 1132	870.6	880.7	 2153	 6684	9999.9	 7928	124.5	21.25	12.76	9.775	8.463	6.700	6.042	5.687	4.598	4.466	4.030	4.289	3.559	4.031	3.428	3.333	2.945	2.664	2.678	2.288	2.306	1.917	2.023	1.931	1.910	1.981	2.071	2.262	2.186	2.240	2.206	2.515	2.230	2.084	1.977	1.858	1.679	1.530	1.348	1.407	1.506	1.772	2.174	2.497	3.578	4.701	5.440	4.725	3.764	3.602	4.401	6.471	12.73	26.20	50.27	74.32	72.97	85.15	28.14	11.28	1.215
295.0	380.9	492.2	547.7	487.3	355.7	281.6	268.9	350.3	551.5	960.7	 1577	 1110	 1097	 1909	 3570	9999.9	9999.9	157.9	21.45	14.60	11.34	8.497	6.942	6.698	5.350	5.171	4.835	4.444	4.211	4.606	3.740	3.940	3.287	2.973	2.609	2.618	2.417	2.479	2.064	2.158	1.972	1.906	1.908	2.393	2.548	2.808	2.620	2.875	2.520	2.554	2.074	2.689	1.887	1.851	1.688	1.727	2.136	1.991	2.044	2.331	2.884	3.410	4.392	5.828	7.186	5.662	4.536	5.138	5.794	8.356	13.08	18.32	22.56	60.65	126.3	143.5	43.19
300.0	351.6	524.2	607.0	571.3	400.0	309.1	336.8	393.5	560.7	825.8	 1503	 1711	 1055	948.9	 1107	 4727	9999.9	 8833	115.1	19.17	14.95	11.10	8.028	7.091	6.564	5.680	5.572	4.571	3.984	4.344	4.274	3.352	3.135	3.224	2.673	2.724	2.317	2.606	2.368	2.081	2.022	2.212	2.217	2.722	2.387	2.879	2.947	2.994	3.026	2.672	2.333	2.745	2.464	2.109	2.170	1.689	2.074	2.275	2.473	2.745	2.792	3.106	3.803	4.540	6.596	7.460	7.366	5.686	4.664	4.909	5.436	6.398	6.581	15.85	43.23	109.4	164.8
305.0	378.1	542.3	671.0	646.0	481.6	369.8	382.6	440.6	603.9	814.3	 1244	 1919	 1465	853.8	616.2	 1305	 7179	9999.9	 6410	75.76	17.48	12.75	10.52	8.230	6.688	6.449	5.641	4.976	4.404	4.060	4.567	3.815	3.252	3.429	2.672	2.797	2.618	2.605	2.544	2.373	2.410	2.314	2.476	2.737	2.539	2.946	2.981	3.267	3.528	2.952	2.720	2.544	3.049	2.203	2.580	2.015	2.382	2.175	2.552	2.939	2.770	3.284	3.989	4.539	5.141	6.646	8.555	8.447	5.933	4.512	4.221	3.878	3.232	5.022	11.07	28.60	72.95
310.0	382.8	524.1	682.4	662.1	503.8	420.4	428.8	504.5	639.5	836.1	 1122	 1486	 1801	 1291	634.5	574.6	 1853	 6960	9999.9	9999.9	429.0	20.53	14.72	10.61	7.747	7.258	6.354	5.591	4.942	4.413	5.122	4.125	3.850	3.314	2.936	2.531	2.890	2.499	2.550	2.260	2.257	2.404	2.151	2.500	2.499	2.740	3.035	3.220	3.126	2.978	2.944	2.726	2.856	2.405	2.376	2.234	2.315	2.440	3.291	3.168	3.299	3.280	4.107	4.444	5.123	5.490	6.455	7.383	8.279	7.504	5.652	3.967	3.320	2.842	4.173	7.928	17.93
315.0	375.5	551.9	700.2	668.1	534.6	455.6	468.6	543.0	685.1	876.0	 1104	 1317	 1477	 1671	 1020	519.2	669.6	 1725	 3545	9999.9	 8423	117.9	20.43	16.07	10.19	9.741	7.930	6.321	6.594	4.671	5.257	4.296	3.987	3.532	3.595	2.753	2.881	2.415	2.629	2.310	2.243	2.639	2.572	2.406	2.351	3.035	3.316	3.127	3.155	3.002	2.903	2.730	2.724	2.851	2.380	2.483	2.062	2.760	3.018	3.305	3.689	3.382	4.263	4.471	5.197	5.618	5.412	5.906	6.565	7.819	7.782	7.291	4.216	3.111	3.367	4.027	5.769
320.0	411.4	614.7	804.3	741.1	590.6	476.1	494.3	574.9	722.7	894.1	 1144	 1343	 1395	 1501	 1493	714.6	466.0	603.8	951.0	 5098	9999.9	 7083	89.63	19.37	14.02	10.76	8.830	7.222	6.832	5.666	5.169	4.721	3.993	3.835	3.459	2.838	3.116	3.166	2.777	2.240	2.304	2.508	2.529	2.650	2.867	3.558	3.211	3.511	3.788	3.317	2.971	3.080	2.803	2.370	2.505	2.623	2.393	3.057	3.105	3.501	3.652	3.708	4.168	4.477	5.354	5.243	5.533	6.149	6.425	6.096	6.697	7.635	7.157	4.896	3.778	3.403	3.599
325.0	406.0	695.6	924.3	865.2	652.3	512.5	524.5	622.2	768.3	928.3	 1196	 1384	 1447	 1391	 1470	 1108	533.6	409.3	405.5	 1324	 8256	9999.9	 5389	64.70	17.51	13.24	9.802	8.507	7.616	5.865	6.031	4.983	4.777	3.613	3.806	3.278	3.286	3.188	2.718	2.581	2.330	2.490	2.393	2.973	3.181	3.367	3.391	4.061	4.206	3.760	3.534	3.498	3.091	3.020	2.900	2.747	2.692	3.278	2.996	3.428	3.672	3.666	4.342	4.768	5.432	5.843	5.826	6.318	6.679	5.789	5.414	6.325	7.632	8.051	5.648	3.854	3.658
330.0	426.8	711.1	 1043	 1016	776.6	596.1	580.6	655.1	795.1	975.0	 1219	 1426	 1481	 1430	 1280	 1216	917.6	500.6	354.2	482.8	 2067	 7703	9999.9	9999.9	356.1	20.38	14.25	10.99	8.929	7.488	6.549	5.239	4.892	4.150	3.815	3.518	3.249	2.877	2.790	2.849	2.404	2.796	2.618	2.787	3.048	3.500	3.712	4.628	4.507	4.109	3.663	3.668	3.732	3.521	3.015	3.229	3.051	3.069	3.433	3.588	4.068	3.856	4.392	4.880	5.701	6.161	6.034	6.728	6.852	6.775	5.885	5.853	6.236	6.898	6.913	6.333	5.111
335.0	432.8	753.3	 1095	 1102	921.2	695.9	668.9	702.2	837.0	998.5	 1249	 1449	 1559	 1494	 1269	 1070	 1081	846.4	448.9	363.6	653.6	 1863	 4016	9999.9	9999.9	95.41	22.08	14.25	11.43	8.950	7.893	6.427	5.944	4.542	3.873	3.711	3.156	3.378	2.847	2.813	2.581	2.608	2.589	2.678	3.200	3.995	3.924	4.326	4.977	4.409	3.820	4.180	3.973	3.239	3.337	3.313	3.102	3.257	3.645	3.396	4.335	3.860	4.424	4.781	5.502	6.197	6.613	6.125	6.970	6.561	6.850	6.374	5.914	6.108	5.252	5.762	6.262
340.0	451.1	745.5	 1125	 1176	988.3	812.6	727.6	775.7	864.5	 1050	 1268	 1464	 1544	 1531	 1314	 1072	956.1	 1045	639.2	389.2	386.0	596.7	 1053	 6335	9999.9	 5859	77.02	21.12	13.63	10.61	9.201	6.934	6.522	5.537	4.149	4.041	3.658	3.152	3.094	3.136	2.785	3.318	2.763	2.969	3.301	4.046	3.945	4.714	5.231	4.720	4.015	4.756	4.258	3.726	3.873	3.669	3.566	3.734	3.597	3.875	4.386	4.315	4.482	5.156	5.177	6.191	5.902	6.638	6.595	6.466	7.014	6.054	6.635	6.243	5.913	5.325	6.005
345.0	425.4	727.5	 1129	 1239	 1080	888.0	808.1	813.9	892.6	 1080	 1292	 1467	 1556	 1529	 1360	 1109	920.3	963.9	907.3	513.4	379.4	366.9	407.4	 1624	9999.9	9999.9	 4676	56.57	17.56	12.79	11.40	7.784	7.044	5.836	4.892	4.335	3.810	3.373	3.247	2.708	3.232	2.853	2.557	2.753	3.278	3.848	4.201	4.934	4.664	4.853	4.456	4.870	4.738	4.228	4.261	3.655	3.534	3.831	3.746	4.137	4.659	4.244	4.439	5.457	5.504	6.032	6.350	6.590	6.770	6.465	7.020	6.138	7.060	5.819	6.487	5.792	5.128
350.0	402.2	697.1	 1062	 1239	 1136	 1011	928.6	919.6	 1003	 1144	 1314	 1473	 1546	 1526	 1387	 1158	956.7	870.9	896.5	807.3	518.6	395.9	336.3	553.1	 2521	 9402	9999.9	9999.9	311.4	20.55	15.13	10.33	8.089	6.300	5.514	5.224	4.182	3.588	3.465	3.148	2.835	2.850	2.696	2.732	3.133	3.457	3.938	4.663	4.492	4.948	4.579	4.812	5.006	4.366	4.432	4.405	4.272	4.245	4.428	4.420	4.496	4.552	5.097	5.449	5.560	6.004	6.188	6.457	6.443	6.930	6.764	6.685	6.768	6.123	6.181	5.745	5.816
355.0	405.6	688.3	 1006	 1212	 1184	 1098	 1066	 1033	 1126	 1266	 1375	 1502	 1572	 1519	 1403	 1208	 1042	920.5	837.3	888.1	829.7	526.0	417.8	388.5	755.2	 2244	 4869	9999.9	9999.9	85.33	22.43	14.32	10.26	8.072	6.456	5.216	4.240	3.947	3.564	3.267	2.804	3.224	2.772	2.921	3.353	3.741	3.776	4.432	4.798	4.604	4.756	4.942	4.911	4.769	4.528	4.852	4.507	4.812	4.919	5.258	4.782	4.849	5.662	5.540	5.649	6.111	6.437	6.398	6.908	7.036	6.820	6.847	6.876	6.835	6.263	6.642	6.067
360.0	404.7	660.6	989.8	 1200	 1240	 1179	 1166	 1148	 1206	 1306	 1425	 1509	 1580	 1541	 1420	 1261	 1099	980.9	872.4	852.2	950.9	736.2	496.7	405.2	410.3	678.4	 1252	 8073	9999.9	 5301	66.55	18.16	13.16	10.06	7.490	5.993	4.550	4.551	4.193	3.470	2.663	2.934	2.652	2.776	3.503	3.686	3.861	4.003	4.576	4.441	4.966	4.974	5.320	5.087	5.022	5.445	5.027	4.673	5.159	5.018	5.000	5.324	5.745	5.654	6.298	6.517	6.702	6.832	6.778	6.618	7.117	7.189	6.939	6.810	6.348	6.980	6.413
365.0	391.8	610.7	955.9	 1154	 1266	 1260	 1200	 1202	 1283	 1379	 1470	 1519	 1544	 1535	 1438	 1282	 1136	 1021	939.6	848.1	898.4	926.4	625.3	461.9	389.3	377.1	436.8	 2061	9999.9	9999.9	 4174	46.64	16.41	12.24	8.890	6.645	5.689	5.064	4.140	3.784	2.789	2.989	3.276	2.974	3.398	3.849	3.833	4.297	4.452	4.755	4.440	5.150	5.339	5.200	5.601	5.143	5.479	5.796	5.292	5.795	5.582	5.774	5.882	6.389	6.474	6.449	6.760	6.308	6.946	6.919	6.685	7.152	6.706	6.730	6.707	6.637	7.283
370.0	387.7	581.0	904.8	 1145	 1271	 1300	 1291	 1284	 1340	 1438	 1501	 1534	 1557	 1525	 1443	 1313	 1192	 1100	 1023	941.9	903.6	925.8	875.2	627.8	471.9	381.2	316.7	622.3	 2614	9999.9	9999.9	9999.9	54.67	18.22	11.93	8.882	6.916	5.968	4.584	3.949	3.672	3.338	3.563	3.046	3.219	3.447	3.648	4.310	4.308	4.473	4.219	4.882	5.660	5.286	5.709	5.392	5.485	5.563	5.581	5.502	6.181	5.985	6.080	6.374	6.283	6.340	6.620	6.836	7.070	7.112	6.867	7.106	6.647	7.370	6.808	6.809	7.382
375.0	353.8	559.7	844.7	 1103	 1284	 1343	 1342	 1317	 1394	 1487	 1521	 1558	 1573	 1527	 1439	 1346	 1233	 1162	 1107	 1034	977.5	913.0	930.0	880.6	627.0	477.2	370.0	365.9	741.0	 2354	 6316	9999.9	9999.9	68.38	18.29	11.76	8.862	7.008	5.144	4.447	4.212	4.226	3.756	3.306	3.386	3.889	3.756	4.044	4.430	4.253	4.169	5.268	5.367	5.661	5.877	5.373	5.779	5.652	5.776	6.214	6.281	6.262	6.005	5.926	6.402	6.885	7.317	6.546	6.811	7.353	7.228	7.057	6.902	6.916	7.081	7.251	7.416
380.0	340.3	554.8	849.8	 1114	 1295	 1361	 1356	 1334	 1398	 1485	 1530	 1559	 1562	 1497	 1429	 1338	 1259	 1217	 1153	 1079	 1032	964.0	913.5	962.3	813.0	569.9	435.7	355.0	363.7	661.8	 1583	 9837	9999.9	 4268	51.74	15.63	11.41	7.840	6.208	5.167	4.203	4.089	3.941	3.584	3.732	3.486	3.463	4.212	4.652	4.046	4.113	5.252	5.509	5.609	5.572	5.492	6.221	5.679	5.765	5.904	6.010	6.237	6.531	6.673	6.781	6.892	6.935	6.897	7.150	6.959	7.040	7.178	7.290	6.585	7.221	6.858	7.370
385.0	351.0	545.1	841.3	 1082	 1265	 1338	 1348	 1359	 1399	 1453	 1505	 1536	 1528	 1500	 1425	 1331	 1269	 1219	 1180	 1136	 1075	 1002	932.0	924.8	939.7	681.5	508.5	397.0	322.7	317.5	479.9	 2537	9999.9	9999.9	 3215	35.59	14.29	10.44	7.508	5.872	4.573	4.308	3.944	3.858	3.605	4.292	3.473	4.339	4.647	4.209	4.631	5.144	5.733	5.592	5.686	6.101	6.323	5.853	6.486	6.088	5.659	6.613	6.536	6.247	6.465	7.092	7.055	7.223	6.878	6.726	6.790	7.194	7.437	6.763	7.623	7.115	7.668
390.0	356.2	527.7	809.9	 1042	 1224	 1346	 1334	 1351	 1375	 1427	 1489	 1500	 1484	 1454	 1382	 1318	 1258	 1228	 1192	 1165	 1104	 1049	976.5	921.5	911.4	849.5	643.5	467.9	363.5	295.1	270.3	681.2	 2716	9999.9	9999.9	 9207	43.76	14.69	9.310	8.005	5.785	4.856	4.610	4.202	4.001	4.150	3.809	4.268	4.323	4.248	4.376	5.072	5.435	5.818	5.902	5.723	6.152	5.632	6.271	5.661	5.769	6.164	5.821	6.088	6.308	6.511	6.899	6.822	6.994	6.853	6.817	6.833	6.835	6.884	7.388	7.265	7.471
395.0	364.5	484.8	792.7	969.0	 1166	 1327	 1322	 1345	 1345	 1421	 1424	 1436	 1448	 1389	 1344	 1279	 1244	 1215	 1208	 1173	 1120	 1064	 1012	942.6	885.3	861.3	807.5	579.4	431.3	340.5	273.7	302.9	709.7	 2321	 6357	9999.9	9999.9	54.97	14.43	10.28	7.252	5.427	5.124	4.262	4.039	4.229	3.696	4.495	4.439	4.134	4.544	5.149	5.455	5.711	5.791	5.455	6.163	5.516	6.210	5.451	5.637	5.933	6.082	6.404	6.394	6.330	6.792	6.407	6.759	6.767	6.635	6.331	6.781	7.012	6.623	7.423	8.002
400.0	352.3	498.7	752.4	954.0	 1141	 1295	 1329	 1337	 1335	 1358	 1408	 1390	 1409	 1362	 1308	 1252	 1213	 1200	 1192	 1162	 1112	 1082	 1038	964.7	899.0	833.1	834.5	709.5	492.4	386.6	299.3	248.6	282.8	606.3	 1574	 9535	9999.9	 3506	41.73	13.28	8.922	6.925	5.638	5.025	4.618	4.672	4.200	4.580	4.006	4.091	4.330	4.838	5.236	5.668	5.427	5.551	5.809	5.896	6.014	5.983	5.949	5.666	6.103	5.883	6.105	5.930	6.717	6.468	6.809	6.265	6.406	6.457	6.700	6.564	6.678	6.292	7.020
405.0	326.6	478.5	707.3	900.1	 1122	 1226	 1310	 1303	 1319	 1336	 1359	 1364	 1352	 1325	 1272	 1232	 1185	 1180	 1164	 1137	 1107	 1084	 1026	976.5	911.1	835.5	795.9	785.6	596.4	430.7	330.4	259.3	207.2	241.8	429.4	 2475	9999.9	9999.9	487.7	27.76	11.57	8.040	6.742	5.612	4.500	4.213	4.140	4.789	4.179	4.171	4.285	4.784	5.027	5.992	5.144	5.655	5.239	5.569	5.940	5.913	5.212	5.755	5.930	5.621	6.231	5.857	6.107	6.356	6.130	6.272	6.400	6.281	6.432	6.709	6.538	6.416	7.672
410.0	332.8	453.2	692.9	886.5	 1063	 1181	 1243	 1284	 1295	 1301	 1315	 1315	 1290	 1265	 1231	 1166	 1135	 1137	 1121	 1099	 1080	 1045	 1009	965.2	903.2	831.6	769.7	748.2	694.3	524.8	382.2	296.9	222.5	185.5	189.0	620.9	 2678	9999.9	9999.9	 6973	36.78	11.34	8.706	6.484	5.557	4.587	4.412	4.606	4.507	3.941	4.340	4.820	5.180	5.348	5.090	5.354	5.809	5.702	5.804	5.675	5.944	5.628	5.795	5.507	5.687	5.854	5.805	6.360	6.184	6.142	6.274	5.897	5.979	6.648	6.470	6.556	6.655
415.0	312.0	440.1	640.4	857.9	998.1	 1129	 1195	 1226	 1273	 1260	 1281	 1244	 1233	 1192	 1158	 1109	 1070	 1065	 1062	 1053	 1031	 1009	976.0	934.9	893.0	837.6	769.7	713.5	667.1	638.6	464.4	335.0	255.2	194.2	154.1	220.4	657.6	 2293	 5862	9999.9	 3579	47.63	11.91	7.824	6.089	5.460	4.857	4.306	4.163	4.033	4.498	4.511	4.744	4.956	5.007	4.836	5.849	5.191	5.744	5.613	5.743	5.402	5.309	5.775	5.340	5.159	5.662	5.636	6.043	6.180	6.077	5.498	6.086	5.843	6.155	6.154	6.394
420.0	298.8	424.9	595.1	798.8	948.6	 1079	 1154	 1200	 1200	 1224	 1212	 1213	 1179	 1149	 1090	 1058	 1022	 1016	 1023	 1014	989.5	968.7	950.6	908.9	867.4	824.2	763.9	700.7	640.0	650.5	544.1	374.1	278.1	213.6	160.6	142.7	217.7	562.5	 1427	 8394	9999.9	 3089	35.67	10.27	7.558	6.080	4.979	4.517	4.127	4.149	4.207	4.928	4.684	5.022	4.712	4.776	5.296	5.722	5.483	5.507	5.443	5.207	5.826	5.191	5.170	5.161	5.312	5.432	5.697	5.356	5.698	5.710	5.493	5.475	5.676	5.692	6.171
425.0	300.3	411.4	576.2	814.1	925.6	 1038	 1114	 1163	 1167	 1187	 1174	 1182	 1148	 1093	 1060	 1004	980.6	971.0	981.4	970.6	945.4	928.9	917.1	888.0	842.7	809.2	750.1	699.5	630.9	600.9	583.9	436.5	302.5	231.0	172.1	137.6	127.7	183.7	365.1	 2191	9999.9	9999.9	451.7	21.52	9.679	7.172	5.478	5.062	4.738	3.852	4.449	4.385	4.590	4.960	4.903	5.107	5.020	5.167	5.151	5.124	5.848	5.460	5.460	5.555	5.071	5.013	5.051	5.582	5.285	5.309	5.263	5.303	5.494	5.322	5.406	5.699	5.686
430.0	505.9	414.1	565.4	755.9	880.2	976.0	 1065	 1125	 1164	 1161	 1154	 1132	 1069	 1039	 1003	954.1	920.5	915.5	917.5	905.6	890.3	878.8	866.5	847.9	813.2	784.4	740.7	686.5	625.2	578.8	543.3	495.2	365.1	259.4	195.3	153.0	123.4	112.7	134.7	530.3	 2588	 8663	9999.9	 5493	33.36	10.40	7.204	6.237	5.079	4.084	4.290	4.662	4.483	4.916	4.447	4.684	5.007	5.019	5.050	5.030	5.134	5.455	5.183	5.377	5.211	5.157	4.995	5.218	5.245	4.953	5.074	4.963	5.313	4.773	5.511	5.511	5.825
435.0	 1218	419.7	533.0	722.4	819.1	936.3	 1012	 1088	 1139	 1136	 1118	 1077	 1025	987.2	947.2	891.5	882.1	856.9	848.1	838.8	844.7	830.7	817.7	801.1	783.6	751.7	715.6	677.1	616.8	571.8	514.7	472.4	432.9	308.2	219.6	174.6	137.3	111.4	94.31	166.4	614.6	 1974	 4925	9999.9	 3304	44.00	9.782	8.118	6.113	4.974	4.290	4.566	4.637	5.058	4.651	4.766	4.598	5.039	5.100	4.883	5.042	5.065	5.141	5.334	4.878	5.324	4.649	4.735	4.616	4.923	4.693	4.763	4.802	5.178	4.869	5.009	5.329
440.0	 1749	665.9	520.2	681.3	775.5	905.1	977.6	 1041	 1105	 1100	 1070	 1031	997.0	944.8	905.0	856.1	819.1	806.6	807.3	798.1	800.3	787.0	781.9	769.7	748.0	726.7	693.4	660.3	620.5	568.4	505.6	443.9	431.7	358.5	248.5	181.0	148.8	117.3	94.15	95.05	180.0	475.0	 1183	 6911	9999.9	 2837	31.08	9.472	6.971	5.681	4.591	4.629	5.054	4.925	4.523	4.867	4.400	5.024	5.019	5.049	4.909	5.080	5.017	5.074	4.794	5.184	4.864	4.970	4.422	4.705	4.631	4.955	4.892	4.381	4.289	4.937	5.108
445.0	 1814	 1355	501.3	630.3	747.3	863.9	925.1	 1010	 1035	 1050	 1035	 1005	958.5	898.8	852.8	817.3	776.1	770.8	765.9	758.3	754.4	743.1	740.1	733.8	714.6	699.7	671.2	642.7	596.6	550.0	503.5	438.4	394.3	374.3	282.3	198.8	156.6	126.2	98.72	84.29	88.74	144.2	295.7	 1758	 9206	9999.9	 2039	22.66	8.655	6.384	5.384	4.974	4.894	4.700	4.412	4.860	4.837	4.978	4.548	5.345	5.128	5.206	4.910	5.071	4.477	4.712	5.146	4.571	4.600	4.130	4.652	4.493	4.629	4.701	4.440	5.217	4.852
450.0	 2104	 2378	 1070	585.6	673.7	792.6	881.4	945.1	995.9	 1001	993.5	938.1	907.8	841.9	798.2	754.8	724.0	710.4	704.4	696.0	691.8	693.5	682.8	673.8	665.2	649.4	629.5	606.1	573.2	533.4	489.0	427.3	371.8	340.8	312.8	234.3	170.1	136.6	109.7	88.78	76.34	77.13	100.1	420.5	 2324	 7702	9999.9	 5226	29.41	9.023	6.591	5.913	5.212	4.798	4.383	4.610	4.458	5.049	4.903	5.111	4.950	5.114	4.701	4.940	4.604	4.427	4.626	4.640	4.337	3.932	4.372	4.181	4.127	4.207	4.465	4.702	4.390
455.0	625.6	 1778	 2820	628.8	617.1	718.1	816.1	893.7	929.6	922.1	919.5	881.5	839.4	773.4	730.6	686.9	655.7	646.2	637.4	622.6	633.1	630.7	622.9	618.8	606.7	600.2	583.3	562.3	537.4	506.0	464.1	409.5	357.7	311.6	288.2	272.8	195.0	149.9	118.7	96.83	79.80	67.43	62.43	126.3	543.8	 1750	 4238	9999.9	 2808	35.91	8.741	6.576	5.625	4.843	4.693	4.575	4.456	4.763	4.602	4.728	4.821	4.773	4.664	4.782	4.460	4.292	4.476	4.277	4.247	4.202	3.746	4.103	4.117	3.629	3.679	4.439	4.194
460.0	302.0	858.7	 3600	 1190	577.8	669.0	755.2	827.7	865.8	891.7	871.4	820.3	783.9	707.8	677.1	641.2	615.0	602.8	597.3	580.4	586.1	581.3	574.4	578.0	562.1	556.8	546.1	529.4	509.7	478.1	447.6	395.4	346.7	297.3	263.2	260.4	225.6	163.0	126.9	103.3	85.06	69.80	59.48	63.00	149.8	414.3	 1000	 5694	9999.9	 2308	27.84	8.354	6.604	5.520	4.833	4.927	4.534	4.500	4.622	4.504	4.546	4.530	4.545	4.958	4.511	4.518	4.069	3.822	4.040	3.749	3.986	3.678	4.071	3.222	3.559	3.860	3.740
465.0	211.6	420.4	 2912	 2748	573.7	630.2	723.5	792.8	820.2	827.3	818.8	769.3	733.5	689.4	632.5	601.3	566.3	563.7	548.1	538.5	543.8	538.1	535.0	531.0	518.6	522.2	515.5	500.6	485.5	455.4	419.9	383.4	333.7	288.8	247.9	234.7	232.8	182.0	132.9	107.6	89.43	74.36	61.40	52.12	65.31	117.2	245.8	 1402	 7476	9999.9	 1860	22.40	7.791	6.380	5.105	5.129	4.711	4.215	4.390	4.194	3.846	4.484	4.898	4.536	4.358	3.894	3.894	3.735	3.794	3.621	3.796	3.596	3.689	3.697	3.503	3.553	3.697
470.0	188.9	284.0	 1236	 4329	995.8	560.9	640.1	711.9	757.4	764.5	749.2	716.3	666.5	614.6	574.7	544.3	509.0	502.7	489.6	486.6	486.3	476.3	479.3	478.2	474.4	462.4	464.5	450.5	436.3	420.5	392.1	360.7	315.6	273.9	239.3	209.3	204.7	194.0	151.7	112.6	92.84	78.24	65.26	52.91	48.95	54.17	78.52	333.8	 1837	 6099	 9636	 4154	29.80	7.857	5.571	5.757	4.861	4.680	4.479	4.186	4.013	4.278	3.996	3.907	4.102	3.837	3.745	3.550	3.678	3.566	3.498	3.525	3.444	3.378	3.032	3.180	3.773
475.0	179.1	226.2	499.5	 2897	 2412	622.5	579.1	649.2	684.9	694.0	692.9	657.9	597.4	553.3	512.7	487.0	453.5	438.9	440.8	430.5	431.6	416.7	430.4	423.3	419.7	413.0	413.4	401.1	395.1	378.1	354.4	329.3	294.5	254.3	224.1	198.0	177.8	173.4	165.7	128.3	94.86	79.06	67.32	56.11	46.18	42.41	42.13	94.87	426.4	 1378	 3307	 9376	 2803	40.60	7.304	5.525	5.368	4.704	4.123	3.910	3.954	3.968	3.918	3.450	3.399	3.424	3.610	3.453	3.179	3.291	3.350	3.028	3.041	2.970	2.689	2.945	2.885
480.0	161.5	222.9	328.2	 1236	 2800	 1049	544.4	576.6	644.5	640.0	645.5	613.9	559.8	517.3	474.6	443.9	415.6	403.4	400.3	395.5	389.7	385.5	387.0	382.2	382.4	380.4	379.6	373.1	366.1	359.1	333.2	309.6	273.3	242.4	212.4	190.1	166.5	154.9	159.4	137.5	99.86	79.84	66.22	55.88	47.37	40.31	36.83	43.06	112.8	322.6	765.2	 3955	 9939	 2543	30.85	7.025	5.719	5.081	4.304	4.068	3.738	3.574	3.761	3.462	3.728	3.483	3.415	3.372	3.164	2.875	3.263	2.880	2.921	2.800	2.757	2.684	3.008
485.0	143.4	222.1	278.8	545.4	 2141	 2230	534.7	553.2	605.6	599.8	601.5	569.3	521.2	485.9	452.1	406.3	383.4	372.4	367.5	362.9	362.3	354.7	353.7	353.3	349.7	350.9	348.7	350.8	341.9	335.6	312.0	289.2	256.3	229.3	204.4	181.9	162.9	143.8	140.6	142.1	110.7	82.33	66.96	58.04	49.84	41.19	35.74	33.60	44.30	87.58	184.4	944.7	 5406	 9208	 1831	20.50	6.251	5.386	4.964	4.332	3.940	3.707	3.235	3.064	3.641	3.225	3.279	3.001	2.848	2.817	2.900	2.335	2.706	3.066	2.519	2.671	2.834
490.0	134.7	188.5	253.6	346.0	937.2	 2854	 1198	502.7	543.1	551.1	547.3	514.0	473.0	441.6	406.2	367.8	345.8	334.1	331.2	329.5	322.3	317.7	313.9	318.3	316.9	314.8	311.8	311.3	308.2	300.7	285.4	266.4	240.0	214.6	191.0	171.3	153.3	134.6	125.6	122.9	119.2	92.15	70.15	59.16	50.86	43.52	37.35	32.29	30.24	36.39	55.08	222.8	 1293	 4361	 7319	 3538	30.68	6.857	5.043	4.592	4.094	3.792	3.728	3.320	3.389	3.022	2.930	2.779	2.994	2.589	2.462	2.296	2.622	2.867	2.599	2.721	2.428
495.0	132.8	170.8	262.7	280.6	445.4	 1736	 2742	581.7	485.8	489.7	491.1	477.5	431.7	392.0	360.4	329.6	306.5	297.3	291.7	294.5	279.9	283.1	277.1	278.5	281.0	274.9	278.2	278.0	274.8	270.0	253.0	242.1	221.9	195.4	176.1	162.2	142.1	126.7	115.6	104.3	108.3	102.7	76.89	58.87	50.98	43.76	37.04	32.40	27.95	25.38	26.53	62.50	299.1	983.0	 2477	 7890	 2990	42.38	6.268	4.762	4.565	4.103	3.594	3.310	2.847	3.235	2.773	2.741	2.456	2.300	2.524	2.249	2.366	2.475	2.596	2.391	2.472
500.0	124.3	144.3	259.0	260.5	322.9	789.1	 3223	 1181	451.7	460.2	449.4	435.1	402.9	357.3	333.8	300.5	282.8	266.6	267.2	258.9	256.8	252.3	251.2	252.1	253.3	249.9	250.8	251.6	248.6	242.5	237.5	221.8	202.0	181.4	163.1	147.1	132.9	120.6	108.3	98.42	93.43	99.34	82.83	61.44	50.78	42.35	38.42	32.58	28.02	24.18	20.71	26.44	77.59	228.6	571.2	 3281	 8608	 2565	30.60	6.344	4.668	4.259	3.773	3.639	3.089	2.999	3.070	2.709	2.624	2.433	2.364	2.532	2.466	2.528	2.294	2.147	2.357
505.0	104.6	141.7	217.1	269.3	265.7	418.5	 2390	 2460	448.0	422.4	404.3	389.1	359.5	332.1	305.1	271.2	256.6	247.2	241.3	237.7	231.2	231.6	230.2	228.2	230.8	231.7	225.6	227.5	223.2	223.4	215.6	205.9	187.2	170.1	150.9	140.5	126.0	114.2	103.3	92.45	82.98	85.19	86.88	68.19	50.93	43.16	37.27	32.58	28.73	24.68	20.22	19.61	28.61	61.66	138.2	777.5	 4551	 8584	 1834	18.79	5.015	4.608	3.695	3.623	3.150	2.809	2.534	2.736	2.276	2.230	2.424	2.410	1.952	2.395	2.383	2.400	2.093
510.0	92.74	123.2	178.5	265.2	242.7	284.9	991.9	 3242	 1174	374.1	365.2	341.7	317.1	296.6	265.7	243.3	227.7	217.5	214.5	208.5	204.2	199.2	203.1	202.0	202.1	202.3	200.0	199.1	200.5	195.0	190.9	181.7	165.2	150.6	136.9	127.1	114.3	104.1	94.39	83.84	76.99	72.57	74.09	72.59	55.78	43.54	37.08	32.09	28.88	24.20	20.28	17.88	17.76	24.10	39.76	181.8	 1089	 4045	 6392	 1750	29.24	5.427	4.087	3.702	3.113	2.815	2.481	2.378	2.137	2.236	2.168	1.933	1.762	1.768	1.919	2.168	1.983
515.0	76.35	103.2	151.5	224.8	248.6	243.1	413.4	 1956	 3023	459.9	326.2	299.2	284.5	265.0	239.1	218.0	211.5	189.9	185.3	178.1	180.0	176.1	175.1	174.9	172.8	175.4	176.6	173.2	171.8	173.8	167.8	159.3	147.4	134.1	120.5	112.7	102.3	94.67	86.63	76.04	70.76	63.73	59.55	63.60	61.54	46.63	36.24	30.63	27.24	23.57	20.46	18.34	16.50	15.25	17.17	48.77	249.9	909.4	 2188	 6321	 2796	39.35	5.245	3.607	2.928	3.079	2.404	2.389	2.111	1.958	1.908	1.871	1.685	1.706	1.746	1.815	1.734
520.0	72.73	106.2	130.6	181.4	252.2	213.8	273.6	821.8	 3756	 1131	287.9	271.7	259.5	236.7	216.3	195.2	187.7	172.4	169.4	159.8	162.8	157.1	154.1	154.1	156.0	155.9	157.3	155.4	152.8	158.0	149.4	145.7	134.8	123.9	110.9	103.0	93.70	88.77	79.60	70.29	65.63	58.18	52.96	53.53	58.57	50.66	35.95	30.43	26.68	23.01	19.86	17.77	15.39	13.10	12.41	18.71	63.82	209.9	505.3	 2765	 6704	 2136	27.49	4.243	3.343	2.812	2.720	2.231	1.972	1.856	1.916	1.790	1.762	1.742	1.759	1.597	1.760
525.0	69.07	93.47	120.5	163.6	240.9	216.6	218.4	361.6	 2784	 2611	298.5	249.7	232.1	214.7	199.5	179.7	166.5	158.4	152.5	145.0	147.4	139.4	137.5	139.1	140.7	142.8	139.4	141.1	138.6	140.3	136.5	129.7	119.1	111.1	101.9	94.84	86.27	79.83	74.55	65.67	60.13	55.86	49.49	47.07	50.89	51.71	40.06	31.69	25.25	22.88	18.79	17.38	14.61	12.45	11.38	12.33	21.63	53.55	119.6	658.8	 3567	 6147	397.6	13.09	3.651	2.815	2.558	2.062	1.805	1.810	1.640	1.535	1.765	1.519	1.747	1.373	1.614
530.0	65.69	78.09	109.6	128.8	189.4	234.2	197.0	235.8	 1070	 3682	 1126	229.1	209.8	190.8	174.4	152.4	145.1	140.6	132.8	125.8	125.1	121.1	122.9	121.7	122.4	123.4	121.2	123.6	120.4	122.6	119.1	114.1	107.0	96.98	90.03	84.68	77.50	70.26	66.08	59.53	53.93	50.01	45.69	43.19	39.68	44.75	43.30	33.73	25.16	21.50	18.01	16.52	14.13	12.88	11.40	10.28	11.98	17.91	32.96	152.9	854.5	 2970	 4305	 1642	25.69	3.610	2.793	2.076	1.978	1.484	1.520	1.471	1.516	1.405	1.386	1.451	1.467
535.0	63.39	68.06	100.6	108.5	146.3	216.8	189.0	190.8	385.9	 2091	 3432	325.5	180.2	168.3	153.8	128.3	127.2	122.4	110.7	109.6	108.3	102.4	103.5	108.1	104.5	105.5	105.7	105.4	105.5	106.7	100.7	97.48	93.02	83.00	78.44	71.67	64.94	61.57	58.12	53.45	49.42	44.97	41.17	37.24	35.51	35.45	37.58	36.60	26.48	20.20	16.83	15.40	12.97	11.73	10.79	10.05	9.340	9.780	12.83	39.83	195.0	667.5	 1543	 4594	 2261	33.34	3.421	2.371	2.191	2.010	1.724	1.252	1.566	1.362	1.459	1.476	1.324
540.0	61.54	72.02	86.31	99.92	117.6	186.7	212.8	175.7	231.5	797.2	 4269	 1033	167.7	147.3	135.3	119.0	111.1	109.1	100.9	99.37	99.04	93.50	92.85	94.19	95.63	94.40	94.31	93.81	95.76	96.96	90.96	86.40	85.22	76.35	70.12	64.68	59.53	56.80	52.78	48.39	44.72	40.26	37.77	34.58	32.58	31.45	30.07	34.64	27.13	20.12	16.83	14.08	12.55	11.05	10.14	9.976	9.069	7.832	8.590	13.82	47.64	153.4	357.2	 2070	 4721	421.7	19.37	2.651	2.332	2.097	1.685	1.463	1.473	1.242	1.408	1.355	1.053
545.0	58.08	55.61	75.28	96.35	106.0	135.5	225.6	161.2	178.2	327.1	 3080	 2730	168.5	133.2	121.9	109.3	99.01	95.14	89.77	89.09	84.88	82.26	82.72	83.24	83.94	81.92	83.28	84.72	82.07	82.75	80.40	79.15	72.75	66.73	63.05	59.15	54.22	50.75	46.93	41.99	41.02	37.43	35.07	30.11	28.81	26.93	26.52	29.82	29.06	21.40	15.68	13.42	11.79	10.43	9.875	9.667	8.900	7.539	6.498	7.801	15.20	38.42	84.61	497.3	 2668	 3374	354.1	6.685	2.548	2.193	1.570	1.663	1.401	1.368	1.276	1.309	1.043
550.0	63.64	57.48	71.94	80.83	91.92	106.8	189.8	183.0	150.4	196.6	 1085	 3856	962.2	117.3	104.0	95.37	82.91	82.03	77.06	75.92	72.64	70.74	70.64	69.72	70.29	69.50	69.51	69.57	71.08	70.74	69.58	66.21	62.51	56.89	53.84	48.79	46.01	43.74	40.90	36.28	34.91	32.33	30.15	27.07	24.49	23.52	21.63	22.83	25.18	22.67	16.54	12.16	10.72	9.512	8.719	8.284	7.967	7.169	6.078	5.905	7.401	12.32	22.21	114.6	646.8	 1968	 2852	 1103	21.31	2.639	1.688	1.687	1.370	1.380	1.372	0.978	1.004
555.0	61.55	63.65	65.01	74.59	78.18	83.93	123.2	206.3	137.4	151.2	347.5	 1995	 3072	172.4	88.62	78.34	68.21	65.37	65.56	60.50	60.16	58.98	56.13	57.81	57.13	57.63	58.86	56.88	57.56	57.87	56.23	55.62	50.00	46.76	43.80	42.16	39.07	36.10	33.61	29.87	29.02	26.60	23.87	23.15	21.12	19.47	18.25	17.67	17.80	20.79	17.28	11.73	8.998	8.416	7.718	6.953	6.827	6.816	6.249	5.445	4.991	6.143	7.979	29.03	146.9	443.8	 1115	 3063	 1291	24.74	2.159	1.689	1.385	1.268	1.294	0.916	1.196
560.0	51.80	63.24	67.29	68.09	71.01	72.15	91.02	199.3	151.6	132.0	181.4	679.7	 4171	355.7	76.72	67.31	62.75	56.29	53.20	50.35	52.02	51.16	48.28	49.61	48.44	47.36	48.98	47.82	48.40	50.21	50.22	46.75	42.80	39.94	37.52	35.87	33.36	30.41	28.96	25.94	24.76	23.47	20.83	20.20	18.20	16.91	15.74	14.91	14.39	16.54	16.70	12.73	9.019	7.431	7.178	5.678	5.790	5.824	5.893	4.922	4.632	4.852	4.461	9.560	35.73	101.8	260.7	 1463	 2883	382.1	9.129	1.929	1.337	1.394	1.228	1.009	1.112
565.0	53.25	60.00	60.41	69.22	63.97	63.19	76.87	165.5	179.2	121.4	137.3	246.9	 2903	 2238	84.82	58.55	53.38	49.55	46.40	43.74	43.39	41.95	40.85	42.80	41.33	39.95	41.08	40.44	41.87	42.44	39.25	39.78	36.34	34.59	32.60	30.77	29.09	27.33	24.85	22.42	21.11	19.55	18.01	17.06	16.31	14.81	14.05	12.63	12.52	12.33	14.09	13.10	9.589	6.607	6.111	5.382	5.550	5.486	5.345	4.478	4.573	3.937	3.499	4.542	10.69	25.42	60.99	358.1	 1775	 2252	56.18	3.516	1.449	1.280	1.113	1.203	0.984
570.0	53.31	61.71	65.98	67.66	61.27	55.78	66.19	107.9	181.0	130.9	115.9	136.1	955.5	 3564	748.3	49.72	44.74	41.13	38.46	36.40	34.65	33.61	33.79	33.48	32.92	32.71	32.89	32.42	33.13	33.98	33.16	32.19	30.01	27.55	26.40	24.54	22.92	21.89	20.66	18.91	16.68	16.48	15.18	14.08	13.50	11.93	11.56	10.88	10.07	9.150	10.11	10.96	9.318	6.735	5.387	5.049	4.951	4.588	4.285	4.193	4.537	3.541	3.101	3.513	4.669	8.017	16.16	82.49	439.8	 1301	 1610	552.4	15.58	1.445	1.153	1.288	1.101
575.0	52.92	58.48	68.84	60.96	51.03	53.15	57.06	79.10	149.5	159.2	104.2	108.9	286.2	 1791	 2919	95.11	36.15	32.91	32.55	27.97	28.07	26.81	27.75	26.91	26.22	25.45	27.13	25.45	26.13	27.28	25.62	25.81	23.51	22.52	21.03	19.25	17.65	17.30	16.58	15.07	13.82	13.41	11.83	11.55	10.53	9.836	9.381	8.289	8.206	7.331	7.010	7.729	8.350	7.468	5.232	4.234	4.125	3.881	3.545	3.414	3.818	3.898	3.344	3.442	3.156	4.494	6.405	20.68	99.88	293.7	686.9	 1703	384.9	13.34	1.438	1.275	1.073
580.0	49.59	60.23	70.06	69.59	47.97	48.28	48.02	67.65	109.8	181.9	108.7	106.7	133.7	573.2	 3672	248.7	29.85	29.96	25.74	24.10	24.36	23.18	22.74	23.03	22.29	21.87	21.48	20.52	21.48	22.87	20.06	21.15	20.48	18.22	18.02	16.12	15.00	14.42	13.79	12.92	11.70	11.82	10.36	10.10	9.173	8.327	8.141	7.634	6.531	6.495	5.503	5.906	7.122	6.944	5.231	3.913	3.832	3.765	3.238	3.065	3.524	3.416	3.011	3.222	2.998	3.274	3.771	6.879	24.44	67.50	162.8	873.1	 1522	279.9	4.227	1.162	1.152
585.0	46.47	58.74	68.24	68.97	48.28	46.02	47.78	63.73	86.94	175.2	132.2	102.8	99.90	185.8	 2428	 1707	37.67	24.12	23.19	22.20	19.92	21.18	19.32	19.86	19.31	18.25	18.53	18.06	18.52	19.85	17.98	17.75	16.38	15.78	14.58	13.94	12.97	13.29	11.93	10.41	10.33	10.10	9.007	8.564	8.262	7.977	6.947	7.177	5.853	5.673	5.071	4.828	5.026	5.879	5.800	4.022	3.457	3.304	3.090	2.950	3.193	2.803	2.965	2.699	2.560	2.686	2.889	3.553	7.435	16.78	37.87	218.2	 1055	 1216	51.30	1.723	1.194
590.0	45.79	59.01	68.20	60.47	49.43	44.13	47.23	53.21	70.93	129.8	171.0	106.4	87.20	92.54	758.6	 2867	604.2	20.35	19.27	18.34	17.43	16.73	16.46	15.91	15.94	15.23	15.31	15.09	15.06	14.77	15.57	14.30	13.77	13.12	11.72	11.11	10.83	10.47	9.767	8.868	8.219	7.868	6.919	7.324	6.817	6.626	6.165	5.444	5.097	4.659	4.495	4.046	3.660	4.521	5.386	4.412	3.468	2.993	2.747	2.667	2.695	2.545	2.567	2.650	2.637	2.453	2.421	2.528	3.400	5.298	10.16	49.99	267.7	763.3	892.4	216.2	10.46
595.0	39.38	58.95	61.97	65.36	46.33	48.33	41.11	46.59	64.59	89.27	164.3	125.3	89.11	68.19	201.4	 1388	 2488	55.36	14.70	15.57	14.68	13.94	13.01	13.10	12.49	12.69	12.32	13.07	11.97	11.79	12.43	11.64	11.27	10.52	9.885	9.060	9.090	8.663	8.291	7.557	6.857	6.666	6.835	5.661	5.943	5.620	5.094	4.703	4.069	3.595	3.566	3.481	2.824	3.492	3.630	4.562	3.758	3.014	2.537	2.215	2.384	2.297	2.296	2.332	2.466	2.516	2.019	2.163	2.342	2.490	3.769	12.21	60.79	172.7	414.3	942.3	294.1
600.0	35.75	53.57	61.49	60.10	48.20	46.32	43.44	45.60	57.08	78.88	136.4	144.9	85.61	68.07	76.23	420.1	 3129	185.4	14.76	13.71	12.60	11.41	11.78	11.17	10.66	10.25	10.81	10.18	10.49	9.839	10.02	9.760	9.708	8.721	8.481	7.573	7.626	6.857	6.351	6.123	5.636	5.599	5.022	5.427	5.243	4.384	4.512	3.881	3.552	3.662	3.080	2.684	2.472	2.638	2.581	3.682	3.654	2.632	2.257	2.114	2.080	2.090	1.810	2.008	2.231	2.781	1.922	1.900	1.723	1.838	2.013	3.914	14.89	39.70	100.5	541.9	846.2
605.0	42.84	53.92	65.21	53.18	54.59	40.74	39.86	47.76	54.32	74.30	113.9	169.0	92.70	64.75	50.41	116.0	 2006	 1326	22.02	12.19	10.87	10.45	10.29	9.511	9.934	8.664	8.836	9.259	8.668	9.071	7.969	9.002	8.543	7.573	7.214	6.396	6.513	6.381	5.488	5.058	5.292	4.938	4.307	4.243	4.437	4.113	3.954	3.490	3.544	2.821	2.570	2.542	2.379	2.212	1.971	2.942	3.273	3.226	2.123	1.725	1.999	1.928	1.767	1.930	1.806	2.123	1.844	2.064	1.671	1.837	1.779	1.784	4.412	9.824	23.54	139.8	615.4
610.0	45.68	46.86	57.09	55.08	48.11	37.68	37.09	44.63	57.79	68.32	90.28	147.1	108.4	63.96	43.18	50.02	607.8	 2307	447.4	11.95	9.752	8.854	8.986	8.049	8.019	7.774	7.371	7.759	7.642	7.773	7.598	7.243	6.732	6.339	5.770	4.926	5.105	4.901	4.585	4.698	4.223	4.385	3.825	3.749	3.590	3.213	3.444	2.945	2.724	2.429	2.169	2.021	1.964	1.801	1.898	2.167	2.805	2.923	2.483	1.780	1.688	1.670	1.664	1.730	1.730	1.621	1.771	2.053	1.510	1.583	1.361	1.461	1.731	2.963	5.930	31.99	158.4
615.0	40.73	43.82	51.42	43.90	40.54	39.58	32.04	41.78	54.01	63.66	74.32	108.2	129.4	67.13	40.28	31.86	152.3	 1111	 1903	39.47	8.943	7.412	7.096	6.141	6.890	6.504	6.280	6.862	6.133	6.991	6.085	6.062	5.759	4.870	4.626	4.580	4.207	3.895	3.578	3.766	3.574	3.559	2.970	3.362	2.885	2.352	2.568	2.292	2.401	2.212	2.116	1.948	1.411	1.737	1.438	1.521	1.680	2.364	2.429	1.659	1.325	1.423	1.451	1.596	1.509	1.562	1.466	1.617	1.882	1.653	1.310	1.152	1.363	1.411	2.027	7.731	36.00
620.0	34.50	35.15	52.36	51.92	40.85	32.48	34.63	40.63	50.56	61.72	70.14	86.64	127.5	78.63	42.24	26.80	49.86	330.6	 2406	151.6	7.643	6.864	6.942	5.836	6.126	5.051	5.612	5.243	5.459	5.457	5.935	4.654	4.769	3.855	4.231	4.159	3.581	3.464	3.611	3.123	2.952	3.148	2.637	2.852	2.434	2.245	2.409	2.047	2.131	2.062	1.633	1.600	1.557	1.695	1.347	1.423	1.470	1.859	2.013	1.706	1.504	1.241	1.360	1.288	1.419	1.330	1.376	1.318	1.958	1.561	1.264	1.123	1.205	0.960	1.209	2.161	8.751
625.0	34.72	36.84	47.93	55.27	35.62	31.49	35.94	42.21	48.30	54.97	68.98	76.65	107.1	90.52	42.93	25.77	26.96	88.48	 1591	 1103	13.18	6.921	6.168	5.233	5.713	4.867	4.860	4.426	5.202	4.457	4.615	4.459	4.125	3.813	3.447	3.403	3.264	3.163	3.108	2.905	2.642	2.642	2.376	2.175	1.821	1.989	2.080	1.806	1.907	1.660	1.420	1.465	1.216	1.300	1.042	1.233	1.268	1.610	1.622	1.940	1.920	1.137	1.189	1.057	1.397	1.292	1.119	1.114	1.312	1.447	1.211	1.156	1.173	0.825	0.897	0.916	2.513
630.0	33.54	39.35	47.12	47.52	32.87	32.19	34.04	35.78	43.79	54.81	63.86	69.93	82.63	97.53	48.60	28.64	22.89	31.75	482.7	 2006	374.3	6.994	5.710	5.024	4.790	4.684	4.169	4.045	4.324	3.985	4.121	3.596	3.435	3.293	2.911	2.968	2.944	2.582	2.516	2.314	2.173	1.917	1.947	1.950	1.811	1.912	1.758	1.740	1.650	1.537	1.290	1.192	1.249	1.226	1.129	1.202	1.076	1.309	1.324	1.656	1.639	1.354	1.209	1.013	1.142	1.084	1.150	1.183	1.149	1.260	1.314	1.052	0.861	0.873	0.711	0.800	1.086
635.0	28.93	37.10	42.83	44.17	32.35	33.12	33.11	33.77	41.68	50.93	62.58	71.17	72.18	86.98	67.41	28.17	20.81	18.99	118.1	968.0	 1598	31.44	5.548	4.248	4.279	4.227	3.686	3.813	3.842	3.575	3.828	3.058	3.049	2.777	2.680	2.608	2.157	2.065	2.471	2.173	1.879	1.861	1.542	1.551	1.524	1.723	1.431	1.732	1.274	1.243	1.208	1.135	1.114	1.215	1.027	0.954	1.055	1.129	1.109	1.291	1.363	1.250	1.387	1.097	0.750	0.909	0.991	0.883	0.874	0.848	1.024	1.223	0.808	0.748	0.793	0.600	0.843
640.0	30.89	31.93	43.59	38.62	33.05	28.20	27.90	34.11	41.85	45.93	59.31	67.93	74.20	74.09	78.15	35.01	20.72	17.97	36.50	278.3	 2017	127.4	5.315	4.597	4.014	3.857	3.062	3.661	3.174	3.255	3.486	2.808	2.749	2.370	2.355	2.372	2.331	2.075	1.937	1.979	1.805	1.570	1.949	1.481	1.397	1.384	1.381	1.543	1.098	1.047	1.062	1.195	0.945	1.120	0.830	0.861	0.858	1.033	1.019	0.944	1.078	1.161	1.297	1.045	1.120	0.880	0.967	0.928	0.720	0.914	0.860	1.173	1.098	0.891	0.662	0.676	0.729
645.0	33.65	37.90	45.09	40.23	32.64	32.91	30.63	32.39	39.02	48.40	58.99	65.04	68.69	66.76	82.62	41.02	21.24	17.18	17.53	71.74	 1347	927.9	10.19	4.866	3.545	3.586	2.836	3.090	3.079	2.992	2.743	2.064	2.204	2.339	2.233	1.887	1.929	2.508	1.821	1.633	1.657	1.363	1.682	1.384	1.338	1.422	1.252	1.360	1.219	0.951	0.906	1.084	0.785	0.951	0.854	0.954	0.888	1.052	1.014	0.822	1.017	1.086	1.421	0.834	0.947	0.885	0.889	1.054	0.909	1.010	0.791	0.830	1.046	0.912	0.794	0.579	0.656
650.0	47.41	42.67	43.46	38.96	33.15	28.59	30.87	34.11	33.74	46.54	56.92	61.43	63.25	62.06	72.77	53.60	23.64	17.49	14.59	24.48	495.8	 1811	76.12	4.756	4.071	3.704	2.767	2.614	2.609	2.565	2.361	2.234	1.847	2.403	2.073	1.761	1.671	2.004	1.635	1.593	1.248	1.389	1.221	1.161	1.414	1.077	1.131	1.188	1.110	0.977	0.947	0.879	0.929	0.872	0.875	1.095	0.707	0.861	0.823	1.050	0.774	0.987	1.318	1.095	0.908	0.852	0.763	0.816	0.951	0.847	0.855	0.902	0.966	0.941	0.878	0.648	0.666
