Sample:	'1
File name:	Default_20230428_111128.FD3
Run date:	'11:05:07, 04/28/2023
Operator:	user
Comment:	'

Instrument
Model:	F-2700 FL Spectrophotometer
Serial number:	2190-003
ROM Version:	4J14000 07

Instrument parameters
Measurement type:	3-D scan
Data mode:	Fluorescence
EX  Start WL:	220.0 nm
EX  End WL:	600.0 nm
EX Sampling interval:	5.0 nm
EM  Start WL:	230.0 nm
EM  End WL:	650.0 nm
EM Sampling interval:	5.0 nm
Scan speed:	12000 nm/min
EX Slit:	5.0 nm
EM Slit:	5.0 nm
PMT Voltage:	700 V
Response:	Auto 
Corrected spectra:	Off
Contour interval:	50.000

Peak integration
Integration method:	Rectangular
Sensitivity:	1
Threshold:	1.000

Peaks
No.	ApexEX/EM(nm)	Height(Data)
1	225.0/570.0	64.40
2	225.0/590.0	57.68
3	225.0/615.0	61.46
4	230.0/340.0	352.8
5	235.0/345.0	358.2
6	235.0/635.0	56.18
7	240.0/515.0	167.3
8	240.0/575.0	52.97
9	245.0/265.0	203.7
10	250.0/540.0	145.2
11	250.0/635.0	30.86
12	255.0/280.0	331.0
13	255.0/555.0	124.9
14	255.0/600.0	40.03
15	260.0/285.0	422.0
16	260.0/565.0	113.6
17	265.0/290.0	495.8
18	265.0/575.0	115.5
19	270.0/235.0	16.09
20	270.0/295.0	731.3
21	270.0/415.0	570.2
22	270.0/585.0	94.17
23	275.0/305.0	929.8
24	275.0/605.0	97.60
25	280.0/235.0	14.66
26	280.0/310.0	 1057
27	280.0/335.0	925.5
28	280.0/615.0	89.17
29	285.0/315.0	 1115
30	285.0/625.0	74.20
31	290.0/320.0	 1046
32	290.0/635.0	66.06
33	305.0/340.0	541.9
34	310.0/345.0	490.6
35	315.0/410.0	518.4
36	320.0/255.0	6.184
37	320.0/360.0	465.2
38	325.0/365.0	457.7
39	330.0/370.0	434.7
40	335.0/380.0	460.9
41	340.0/385.0	461.7
42	350.0/400.0	416.3
43	355.0/405.0	409.6
44	360.0/410.0	380.4
45	400.0/285.0	3.349
46	430.0/505.0	54.47
47	450.0/530.0	28.66
48	470.0/560.0	11.33
49	510.0/420.0	4.093
50	520.0/285.0	3.661
51	535.0/295.0	4.503
52	545.0/300.0	4.532
53	550.0/305.0	4.921
54	560.0/310.0	4.855
55	570.0/315.0	5.240
56	580.0/325.0	4.785

Data points
	220.0	225.0	230.0	235.0	240.0	245.0	250.0	255.0	260.0	265.0	270.0	275.0	280.0	285.0	290.0	295.0	300.0	305.0	310.0	315.0	320.0	325.0	330.0	335.0	340.0	345.0	350.0	355.0	360.0	365.0	370.0	375.0	380.0	385.0	390.0	395.0	400.0	405.0	410.0	415.0	420.0	425.0	430.0	435.0	440.0	445.0	450.0	455.0	460.0	465.0	470.0	475.0	480.0	485.0	490.0	495.0	500.0	505.0	510.0	515.0	520.0	525.0	530.0	535.0	540.0	545.0	550.0	555.0	560.0	565.0	570.0	575.0	580.0	585.0	590.0	595.0	600.0
230.0	48.40	111.5	 1013	904.2	87.71	28.04	21.20	21.02	17.90	14.57	13.46	13.52	11.10	9.878	8.888	7.498	6.144	6.288	4.980	5.354	4.483	4.095	3.977	4.134	3.587	3.845	2.972	3.060	3.308	3.152	3.027	2.671	2.780	2.522	2.514	2.428	2.187	2.189	2.164	2.103	1.925	1.812	1.705	1.816	1.650	1.893	1.653	2.889	5.054	5.011	2.788	1.584	1.471	1.534	1.449	1.466	1.431	1.444	1.438	1.402	1.442	1.542	1.179	1.462	1.314	1.288	1.403	1.202	1.325	1.292	1.254	1.071	1.346	1.407	1.433	1.227	1.443
235.0	62.54	64.62	401.9	 1485	 1229	132.0	20.09	19.70	15.06	13.57	16.09	12.09	14.66	9.906	8.936	6.791	6.795	5.568	6.391	5.739	4.372	4.845	4.161	4.081	4.232	3.902	3.473	3.750	2.715	2.971	2.466	2.569	2.760	2.296	2.586	1.901	2.791	2.102	2.526	1.953	2.142	1.645	1.978	2.089	1.478	2.003	1.578	1.931	2.972	3.781	5.776	7.447	4.449	1.909	1.568	1.447	1.300	1.389	1.378	1.304	1.351	1.345	1.357	1.500	1.084	1.421	1.147	1.274	1.353	1.386	1.557	1.020	1.632	1.023	1.459	1.072	1.544
240.0	54.83	65.30	124.3	780.9	 2304	 1232	98.27	21.55	17.23	20.28	15.06	11.01	14.23	10.35	9.533	8.633	8.110	5.582	6.138	5.561	4.676	5.274	4.214	4.133	3.867	4.007	3.324	3.586	3.599	3.020	3.377	2.716	2.258	2.841	2.365	1.807	2.298	2.225	2.396	2.310	2.147	1.846	2.226	1.724	1.625	1.650	1.487	1.759	1.891	1.800	3.279	7.945	10.81	8.064	3.688	1.375	1.632	1.442	1.287	1.626	1.038	1.359	1.388	1.568	1.333	1.502	1.112	1.136	1.573	1.468	1.334	1.294	1.271	1.355	1.408	1.463	1.446
245.0	55.69	63.97	83.90	228.5	 1426	 3122	 1055	51.34	21.03	17.97	16.21	13.21	13.29	11.78	8.913	8.447	6.787	6.823	4.906	5.236	4.793	4.518	4.040	4.482	3.852	3.838	3.836	3.271	3.403	3.437	2.899	2.608	2.858	2.479	2.280	2.475	1.891	2.266	2.175	2.134	1.966	1.934	1.971	1.990	1.823	1.713	1.902	1.736	1.451	1.595	1.703	3.566	7.645	12.65	13.74	7.927	2.594	1.455	1.239	1.333	1.056	1.035	1.258	1.670	1.454	1.470	1.360	1.190	1.446	1.190	1.258	1.261	1.098	1.324	1.300	1.208	1.584
250.0	54.37	61.36	96.83	116.2	392.3	 1683	 3432	 2568	366.6	23.11	21.09	14.71	13.28	11.82	8.902	7.768	7.090	6.868	5.460	5.023	4.863	4.985	4.452	4.330	3.751	3.463	3.381	3.251	3.095	3.108	2.656	2.777	2.332	2.577	2.240	2.251	2.243	2.238	2.394	2.226	1.948	1.829	1.971	1.623	1.557	1.857	1.781	1.641	1.810	1.527	1.541	1.977	3.047	5.167	8.826	13.41	16.16	14.94	7.890	2.859	1.364	1.428	1.390	1.517	1.490	1.442	1.500	1.391	1.583	1.255	1.341	1.341	1.494	1.219	1.337	1.233	1.551
255.0	62.11	58.66	64.11	140.8	183.9	412.4	 1265	 5238	 4869	443.3	20.72	22.01	16.90	13.65	10.27	9.205	9.505	7.606	5.785	4.762	6.184	4.143	4.178	4.456	3.069	3.834	3.274	3.088	3.209	2.535	3.254	2.652	2.562	2.224	2.657	1.753	2.109	2.553	2.556	2.015	2.264	2.053	2.029	1.789	1.806	1.987	1.796	1.492	1.276	1.571	1.617	2.227	2.116	2.076	3.004	4.355	7.164	16.19	28.05	26.58	10.91	2.364	1.555	1.388	1.644	1.295	1.540	1.202	1.319	1.148	1.436	1.268	1.379	1.182	1.275	1.196	1.193
260.0	55.15	48.95	47.72	85.90	195.8	155.4	318.5	 2386	 7689	 4588	262.3	22.72	16.60	13.58	13.14	10.52	9.308	6.843	7.143	5.781	4.583	4.698	5.005	4.623	2.507	3.859	3.658	3.539	3.659	3.615	3.155	2.766	1.944	2.273	2.963	2.089	1.810	2.428	1.725	1.883	2.103	1.896	2.273	2.289	1.881	1.609	1.829	1.932	1.360	1.427	1.565	1.875	1.934	1.769	1.727	2.300	3.104	5.336	14.29	29.19	36.47	26.62	7.054	1.656	1.146	1.734	1.459	1.174	1.484	1.102	1.394	1.400	1.249	1.356	1.235	1.446	1.146
265.0	49.84	42.61	51.57	60.47	145.1	203.7	118.8	616.6	 3899	 9572	 1098	106.8	19.12	14.89	15.50	11.07	8.366	7.757	5.951	6.685	4.338	5.127	4.496	4.472	3.730	3.936	3.785	3.958	3.632	2.749	2.996	3.323	2.734	1.450	2.765	2.316	1.870	2.077	2.121	1.986	2.198	2.085	2.039	2.053	1.870	2.168	1.894	1.885	1.397	1.152	1.328	1.650	1.662	2.328	2.107	1.609	1.988	2.295	4.774	9.725	22.71	40.99	39.02	18.45	3.121	1.769	1.498	1.336	1.470	1.521	1.119	1.395	1.219	1.478	1.184	1.569	1.325
270.0	64.71	55.85	44.68	41.75	69.32	161.6	228.0	210.9	968.2	 4235	 8945	 4114	374.3	22.28	16.02	13.84	11.40	7.308	7.418	6.356	5.217	5.106	4.779	4.512	4.261	3.498	3.989	3.257	3.596	3.129	3.162	2.915	2.819	2.160	2.936	2.154	2.222	1.921	2.114	2.045	2.183	2.079	1.871	2.016	1.787	2.064	1.738	1.771	1.457	1.317	1.152	1.553	1.324	1.751	2.361	2.512	2.474	1.789	2.346	3.288	6.303	13.68	24.09	33.93	39.60	31.66	13.68	3.238	1.503	1.679	1.295	1.201	1.393	1.431	1.259	1.493	1.538
275.0	69.43	56.67	55.40	46.28	52.45	67.08	188.2	308.8	285.9	990.0	 2867	9999.9	 6404	475.7	19.93	13.56	11.35	8.824	7.463	7.067	5.461	5.785	4.624	4.342	4.328	4.208	4.595	3.873	3.932	3.733	3.324	3.106	3.162	2.564	2.336	2.172	2.079	1.963	2.116	1.743	2.241	2.155	1.589	1.954	1.562	1.726	1.459	2.136	1.682	1.569	1.020	1.485	1.531	1.727	1.567	2.234	2.725	2.971	2.769	2.167	2.931	4.269	6.692	9.184	15.60	36.73	58.03	48.07	15.28	2.234	1.594	1.741	1.556	1.464	1.277	1.629	1.449
280.0	62.57	68.10	69.77	47.74	51.08	50.30	92.07	331.0	315.7	284.2	720.6	 3906	9999.9	 5360	285.4	17.40	12.97	10.49	9.162	7.844	5.695	6.233	4.932	4.452	4.395	4.385	4.072	3.358	3.116	3.827	3.416	2.960	3.123	2.439	2.589	2.264	2.587	1.989	1.808	2.021	2.049	2.352	1.691	2.222	2.206	1.726	2.116	1.795	1.819	1.325	1.262	1.835	1.776	1.408	1.558	1.703	1.846	2.576	3.115	3.300	2.547	2.231	2.503	3.154	4.773	10.95	27.14	55.02	64.78	34.94	6.600	1.578	1.584	1.358	1.475	1.796	1.437
285.0	60.68	75.51	79.06	65.51	48.63	45.42	61.80	174.0	422.0	257.2	249.8	 1009	 5418	9999.9	 4057	125.6	16.17	11.73	9.656	10.23	6.836	7.009	5.700	4.915	4.242	4.868	4.051	3.328	3.999	4.040	3.081	3.418	2.605	2.189	2.377	2.740	3.349	2.265	1.915	2.064	1.931	2.049	1.921	2.030	2.433	2.148	2.227	1.646	2.150	1.587	1.513	1.684	1.639	1.598	2.117	1.727	1.782	1.919	2.491	3.572	3.661	2.818	1.947	2.110	2.539	3.803	7.697	18.37	43.36	67.46	54.98	19.37	2.875	1.539	1.399	1.669	1.709
290.0	74.00	94.65	109.4	90.11	64.24	58.22	64.00	107.3	255.2	495.8	381.7	404.1	 1455	 5372	9999.9	 8473	239.6	17.69	11.53	10.34	7.730	7.751	5.931	5.586	4.845	5.195	4.612	4.112	3.861	3.450	3.237	3.423	2.636	2.797	2.833	2.508	2.581	2.522	2.073	2.135	2.010	1.932	1.781	1.830	1.948	1.819	2.050	1.855	1.673	1.572	1.580	1.526	1.602	1.622	1.553	1.626	1.648	1.827	2.129	2.189	3.027	3.582	3.600	2.901	2.606	2.559	3.374	6.182	11.75	22.63	36.84	50.04	50.53	35.02	14.06	2.701	1.374
295.0	98.68	115.3	140.4	113.6	77.79	83.62	90.54	113.3	160.3	343.4	731.3	522.1	619.0	 1434	 3153	9999.9	9999.9	310.8	16.53	11.48	7.723	6.924	6.479	5.703	5.461	4.741	4.294	3.683	3.452	4.006	3.399	3.077	3.635	2.858	2.883	2.440	2.348	2.460	2.704	1.424	1.458	2.040	1.842	1.828	1.855	1.803	2.081	2.048	1.950	1.646	1.561	1.696	1.678	1.697	1.657	1.763	1.656	2.150	1.855	2.073	2.056	2.315	2.985	4.503	4.156	3.277	2.558	3.365	4.262	6.624	9.741	12.97	21.15	48.28	69.97	48.28	14.06
300.0	101.4	128.5	176.8	142.4	102.0	96.72	102.4	121.3	175.5	280.7	646.3	855.0	562.0	612.7	901.6	 4093	9999.9	 3251	201.0	13.24	9.263	8.225	7.155	6.014	6.071	4.505	4.795	4.342	4.112	3.744	3.674	3.061	3.431	3.130	2.722	2.386	2.194	1.941	2.449	2.100	1.804	2.262	2.174	2.270	1.961	2.075	1.946	1.894	2.303	1.819	1.558	2.329	1.442	1.830	1.724	1.670	1.817	1.990	2.101	1.852	2.022	2.295	2.830	3.131	4.504	4.532	3.263	3.292	2.840	3.569	4.546	4.334	6.134	14.08	35.20	67.52	72.52
305.0	102.8	150.4	182.0	160.7	136.9	106.4	121.5	155.1	199.1	293.6	501.8	929.8	859.0	545.2	466.3	 1081	 5657	9999.9	 2678	105.3	15.26	11.09	7.773	6.826	6.160	4.865	5.363	4.224	4.812	3.322	3.852	3.801	3.627	3.879	2.731	2.372	2.369	2.372	2.413	2.170	2.219	1.736	2.172	1.749	2.057	2.208	1.622	1.976	2.301	2.026	1.848	2.174	1.680	2.004	1.644	2.098	2.055	1.964	2.230	1.990	2.491	2.411	2.878	2.702	3.693	4.261	4.921	4.276	3.663	2.894	3.106	2.780	2.998	4.836	9.940	23.66	53.22
310.0	106.9	152.2	208.3	188.6	146.5	128.9	136.0	183.0	243.2	331.3	473.5	729.0	 1057	874.7	479.1	432.8	 1415	 5291	9999.9	 7106	171.4	17.11	9.970	7.603	6.584	5.865	5.449	5.134	4.404	3.529	4.231	3.544	3.358	3.735	2.764	2.633	2.421	2.405	2.419	2.079	2.173	1.962	1.995	1.826	1.742	2.113	1.910	2.261	2.281	1.955	1.948	2.018	1.833	2.143	1.888	2.151	2.072	2.030	2.357	2.417	2.400	2.649	2.791	2.968	3.311	3.296	4.491	4.330	4.855	4.136	3.433	3.054	2.550	2.896	3.681	6.736	14.18
315.0	103.2	177.7	236.4	227.4	158.7	138.5	164.6	220.8	280.0	372.2	542.3	674.7	859.0	 1115	710.8	369.9	443.6	 1253	 3080	9999.9	 9985	229.4	14.22	10.61	7.543	5.845	4.948	5.306	5.051	4.861	4.211	3.891	3.043	3.272	2.758	2.680	2.857	2.093	2.710	2.152	1.989	1.740	1.980	1.889	1.899	1.914	2.177	2.228	2.627	2.272	1.939	2.017	1.848	1.990	1.880	2.087	1.823	2.294	2.229	2.652	2.593	2.590	2.919	3.248	3.412	3.466	3.767	3.603	3.606	5.035	5.240	3.550	2.657	2.354	2.451	3.066	4.495
320.0	117.0	183.5	251.9	229.5	174.6	145.2	171.4	232.5	312.3	419.5	585.6	708.0	840.3	965.6	 1046	513.5	265.4	369.9	754.5	 4084	9999.9	 7288	157.2	13.32	8.288	6.855	6.186	5.801	5.435	4.842	4.742	3.929	3.188	3.028	2.695	2.653	3.123	2.655	2.334	2.276	2.366	2.061	2.496	1.988	2.197	1.711	1.932	2.380	2.270	2.044	1.972	2.129	1.988	2.063	1.930	1.951	1.852	2.854	2.704	2.312	2.772	2.681	3.078	3.224	3.236	3.652	4.178	3.616	3.884	4.516	4.959	4.322	3.650	2.484	2.461	2.248	2.489
325.0	120.6	180.8	311.6	250.9	195.4	171.9	197.8	259.1	325.0	455.7	614.9	738.3	884.2	896.1	967.5	767.9	288.6	187.9	240.2	999.1	 5583	9999.9	 2022	90.75	12.42	8.085	6.836	6.152	5.141	5.347	4.126	4.248	3.258	2.969	2.729	2.562	2.508	2.878	2.496	2.267	2.081	2.422	2.517	1.783	1.940	1.990	2.115	2.461	2.025	2.138	2.185	2.450	2.089	1.797	2.130	2.426	2.285	2.588	2.631	2.895	2.640	2.577	3.354	3.157	3.418	3.823	4.186	3.936	3.900	4.171	3.980	4.262	4.785	4.029	3.229	2.179	2.333
330.0	132.4	215.7	321.6	304.7	220.8	192.9	219.4	279.7	360.3	478.5	647.3	777.3	908.7	903.2	827.8	750.1	534.9	231.4	148.5	289.8	 1357	 5190	9999.9	 6391	137.7	14.40	9.738	7.033	6.157	5.343	4.477	4.280	3.982	3.426	3.169	3.127	2.513	2.644	2.357	2.189	2.008	2.277	2.353	1.828	2.292	2.238	2.351	2.546	2.460	1.834	2.168	2.348	1.979	2.302	2.311	2.390	2.422	2.493	2.515	2.845	2.824	3.058	3.226	3.477	3.863	4.046	4.287	3.976	3.806	3.985	3.685	3.658	3.742	3.766	3.608	3.270	2.826
335.0	125.3	223.2	326.0	312.0	258.0	214.1	243.6	312.8	370.7	502.1	677.2	813.2	925.5	904.6	800.6	605.7	569.4	441.1	189.7	156.3	370.0	 1210	 3181	9999.9	 9444	186.9	12.79	9.702	6.998	7.022	4.916	5.147	4.274	3.876	3.456	2.955	2.791	2.397	2.428	2.360	1.825	2.185	2.462	2.362	2.048	1.910	2.372	2.636	2.765	2.222	2.095	2.317	2.209	2.584	2.215	2.421	2.598	2.411	3.023	2.987	3.051	3.247	3.703	3.609	3.507	3.952	3.864	3.736	4.053	3.951	3.534	3.853	3.516	3.471	3.445	3.291	3.795
340.0	120.0	236.5	352.8	328.0	255.2	242.5	266.1	323.0	397.6	507.7	665.9	795.6	924.5	906.4	791.7	579.6	458.2	541.9	332.5	148.4	164.1	332.4	769.9	 4288	9999.9	 6809	135.8	11.64	9.252	7.545	5.765	5.568	4.246	3.659	3.000	3.007	2.582	2.707	2.824	2.354	2.103	2.410	2.446	2.357	1.983	2.299	2.209	2.356	2.640	2.244	2.114	2.194	2.000	2.227	2.212	2.285	2.978	2.764	3.025	2.863	3.412	3.089	3.855	3.752	3.428	4.098	3.718	3.956	3.652	3.905	3.896	3.890	3.452	3.382	3.590	2.954	3.755
345.0	118.9	229.6	341.3	358.2	290.9	263.4	278.1	324.0	426.2	513.1	664.0	780.7	899.6	893.4	789.9	573.5	423.2	442.0	490.6	230.7	144.2	156.1	233.6	 1047	 6087	9999.9	 1658	78.08	11.52	8.602	6.751	5.524	4.554	4.409	2.714	3.346	2.699	2.992	2.213	2.284	2.290	2.202	2.330	2.446	1.913	2.346	2.145	2.491	2.503	2.319	2.048	2.414	2.147	2.181	2.637	2.372	2.790	2.789	2.751	2.804	3.057	3.317	3.854	3.858	3.630	3.807	3.918	3.703	4.062	4.190	3.660	3.909	3.229	3.199	3.047	2.681	2.929
350.0	139.1	220.3	296.9	339.3	314.6	282.8	295.8	343.1	411.5	507.8	634.9	733.2	843.0	865.3	765.4	581.3	423.2	356.7	425.7	405.2	236.0	152.4	141.0	304.5	 1504	 5545	9999.9	 5732	116.6	12.53	8.926	6.014	4.830	4.393	3.643	3.219	3.164	3.009	2.533	2.326	2.266	2.529	2.299	2.166	2.100	2.349	2.250	2.551	2.474	2.119	2.168	2.661	2.351	2.183	2.442	2.538	2.785	2.588	2.686	3.063	3.018	3.132	3.646	3.515	3.322	3.614	3.737	3.717	4.018	4.064	3.603	3.899	3.487	3.039	3.195	2.793	2.953
355.0	130.9	212.7	320.1	328.6	313.5	303.4	338.5	367.9	423.2	489.2	599.1	712.4	797.2	812.8	725.3	576.9	430.2	367.4	349.1	402.5	426.8	227.3	158.3	174.4	409.2	 1296	 3409	9999.9	 8023	159.9	12.31	8.245	6.292	4.467	4.050	3.294	3.035	3.240	2.580	2.190	2.645	2.922	2.615	2.366	2.356	2.180	2.231	2.593	2.250	2.155	1.898	2.654	2.250	2.350	2.445	2.717	2.853	3.030	2.556	3.505	3.159	2.952	3.537	3.319	3.435	3.564	3.613	3.667	3.775	3.614	3.743	3.554	3.153	2.974	3.165	2.882	3.058
360.0	122.6	186.8	311.3	328.2	316.6	312.9	351.6	371.9	414.2	490.8	596.3	681.8	759.3	768.9	722.8	579.5	457.8	399.2	355.7	346.7	465.2	328.5	207.5	164.3	190.5	361.5	824.8	 4583	9999.9	 5812	110.3	10.85	7.732	5.613	4.451	3.537	3.132	3.480	3.095	2.011	2.257	2.517	2.677	2.403	2.106	2.205	2.285	2.560	2.494	2.283	1.966	2.327	2.753	3.018	2.505	2.535	2.753	2.892	2.683	3.030	3.584	3.058	3.209	3.677	3.577	3.720	3.646	3.639	3.971	3.628	3.234	3.603	3.233	3.345	3.323	3.057	3.253
365.0	108.3	156.1	301.4	335.5	343.9	364.9	348.5	404.8	430.6	493.7	587.0	668.7	716.9	751.7	706.1	591.0	475.2	419.8	377.2	355.1	400.8	457.7	295.6	193.3	163.6	177.3	252.4	 1130	 6044	9999.9	 1470	57.44	8.685	6.290	4.882	3.857	2.931	3.446	3.127	3.357	2.668	2.504	2.384	2.289	2.522	2.264	2.123	2.752	2.424	2.392	2.360	2.762	2.546	2.469	2.621	2.579	2.925	3.071	2.818	3.201	3.222	3.346	2.863	3.649	3.572	3.978	3.616	2.999	3.521	3.253	3.603	3.606	3.019	3.009	3.235	3.054	2.929
370.0	105.7	183.2	289.2	314.6	357.6	379.4	381.2	400.9	450.3	499.2	578.0	642.9	712.8	725.8	690.9	588.3	499.2	445.6	416.8	392.3	378.0	423.7	434.7	296.8	196.7	164.9	148.2	317.3	 1498	 5755	9999.9	 5134	91.73	10.06	6.557	5.012	3.557	3.480	3.163	3.232	2.684	2.847	2.526	2.247	2.604	2.137	2.202	2.485	2.332	2.280	2.164	2.585	2.566	2.982	3.017	2.676	2.899	3.339	3.156	3.125	2.961	3.105	3.387	3.805	3.387	3.817	3.511	3.447	3.355	3.532	3.202	3.475	3.185	3.342	3.257	3.211	2.817
375.0	102.5	169.2	283.6	315.0	363.5	369.7	404.8	437.5	476.1	501.7	579.4	623.2	681.1	701.4	674.7	583.2	529.0	482.9	464.2	431.3	400.5	399.3	427.4	442.1	267.0	199.5	153.2	159.0	397.9	 1332	 3688	9999.9	 6737	121.3	9.058	5.838	4.820	3.794	3.738	2.825	2.835	2.792	2.560	2.636	2.602	2.339	2.214	2.253	2.447	2.188	2.330	3.050	2.756	2.882	3.056	2.677	3.113	3.034	3.006	3.266	3.268	3.605	3.588	3.403	3.480	3.477	3.687	3.384	3.541	3.250	3.200	3.776	3.127	2.960	3.243	3.732	2.874
380.0	112.5	149.7	254.0	318.7	373.1	382.0	418.9	446.6	475.5	521.3	573.8	615.7	670.9	676.5	666.9	596.4	537.1	495.9	483.6	456.6	429.0	417.9	406.0	460.9	396.8	244.0	178.3	142.3	169.5	355.7	886.5	 5027	9999.9	 4445	76.07	7.143	5.360	5.004	4.208	3.862	3.470	3.011	2.770	2.794	2.613	2.530	2.381	2.324	2.758	2.169	2.424	3.001	2.631	2.660	2.945	2.847	3.164	3.328	2.565	3.090	2.915	3.414	3.498	3.510	3.505	3.844	3.209	3.011	3.422	3.089	2.969	3.474	3.134	3.114	3.040	3.928	3.172
385.0	115.1	178.5	272.9	312.6	399.6	390.1	411.6	464.8	457.6	505.9	562.2	597.6	650.1	669.7	643.8	591.1	555.5	520.2	496.8	474.8	453.5	428.7	401.9	421.7	461.7	325.6	208.8	158.6	135.0	152.5	252.4	 1255	 6622	9999.9	 1115	27.64	6.882	5.563	3.877	4.101	3.580	3.037	2.981	2.554	2.485	2.618	2.113	2.706	2.635	2.258	2.481	2.946	2.668	2.901	2.998	3.596	2.900	3.746	2.979	3.479	3.538	3.473	3.077	3.661	3.641	3.050	3.624	3.081	3.598	3.427	3.245	3.703	3.368	2.989	3.233	3.130	3.419
390.0	99.13	181.5	257.6	314.5	383.0	420.3	437.5	479.6	491.1	517.0	550.3	569.3	627.8	659.5	634.5	589.4	553.7	525.9	508.0	492.1	477.3	459.6	425.3	405.5	424.8	422.0	298.4	205.4	161.3	134.3	130.5	332.0	 1669	 5840	 8476	 3394	67.03	7.426	5.469	4.749	3.434	3.338	3.178	2.864	2.628	2.578	2.077	2.459	2.541	2.336	2.367	2.434	2.908	2.901	3.080	3.249	3.025	3.361	3.126	3.311	3.248	3.407	3.278	3.403	3.182	3.070	3.427	3.463	3.240	3.344	3.415	3.486	3.399	3.213	3.322	3.254	3.746
395.0	111.3	169.9	251.5	334.1	403.4	416.8	466.8	472.2	493.3	521.9	551.5	573.2	620.4	637.2	628.0	578.0	550.5	533.9	529.8	515.1	491.8	484.9	457.2	424.6	406.0	409.3	401.1	284.2	200.4	161.0	126.9	147.8	422.3	 1342	 3581	 9846	 4806	85.29	7.596	5.793	4.516	3.782	3.368	3.007	2.854	2.750	2.444	2.394	2.680	2.265	2.493	2.805	3.269	2.872	3.082	3.526	3.082	3.075	2.834	3.070	3.173	3.289	3.497	2.877	3.059	3.189	3.467	3.941	3.434	3.480	3.165	3.498	3.204	3.076	3.544	3.559	3.585
400.0	126.5	161.6	239.7	317.9	372.9	425.0	461.0	476.5	496.9	525.3	550.7	566.3	607.2	621.7	618.4	582.3	548.1	543.6	523.1	514.2	497.4	495.5	469.7	449.6	410.6	402.0	416.3	362.8	242.7	183.0	144.1	119.2	154.0	342.0	865.9	 5198	9999.9	 1061	51.55	6.304	4.942	4.776	3.651	3.110	3.123	3.191	2.326	2.592	2.814	2.411	2.481	2.829	3.113	2.847	3.290	3.287	3.238	3.336	2.983	3.251	3.206	3.527	3.640	2.972	3.182	3.495	3.544	3.642	3.001	3.347	3.277	3.268	3.473	3.363	3.792	3.108	3.225
405.0	124.0	168.5	256.4	334.8	398.5	408.8	443.1	492.3	492.6	512.4	559.3	570.2	606.2	612.8	602.5	579.2	545.8	534.7	525.2	511.7	513.4	506.4	481.1	465.8	422.0	402.2	381.5	409.6	313.4	216.0	165.9	131.5	108.0	127.1	231.5	 1324	 6399	 8214	879.9	20.18	5.837	4.830	4.165	2.900	2.492	3.286	2.318	2.424	2.834	2.237	2.347	2.963	3.352	2.923	2.804	3.252	3.109	3.469	2.978	3.330	3.499	3.570	3.480	3.465	2.783	3.665	3.392	3.402	3.156	3.208	3.591	2.949	3.368	3.141	3.338	2.986	3.448
410.0	104.5	159.5	260.0	328.0	382.8	421.0	469.1	495.2	503.3	532.5	561.6	566.4	586.5	601.2	601.3	557.3	534.8	520.2	512.3	518.4	510.2	499.8	482.1	474.2	438.3	421.6	379.4	379.4	380.4	288.2	202.6	153.2	117.2	96.55	100.2	330.2	 1638	 5064	 6834	 2626	55.52	6.267	5.007	3.910	2.975	3.080	2.486	2.711	2.355	2.341	2.570	2.819	2.934	3.279	2.909	3.217	3.383	3.322	3.263	3.671	3.478	3.536	3.452	3.250	3.297	3.239	3.423	3.428	3.162	3.172	3.132	3.012	3.504	3.363	3.189	3.186	3.334
415.0	107.5	153.7	234.1	319.8	388.4	429.1	468.9	495.7	522.5	540.8	570.2	546.6	573.3	602.8	587.3	537.9	511.8	509.0	497.7	495.5	485.9	489.0	480.2	464.0	454.7	431.4	386.0	357.3	363.9	359.8	267.2	181.5	139.7	103.6	81.39	118.8	396.4	 1160	 3029	 7678	 3662	74.29	6.061	4.662	4.112	3.466	2.618	2.859	2.364	2.666	2.731	2.534	2.787	3.129	2.995	3.173	3.531	3.210	3.741	3.387	3.221	3.744	3.411	3.141	2.960	3.149	3.188	3.073	2.912	3.090	3.309	3.618	3.231	3.277	3.280	3.174	3.242
420.0	108.0	158.7	242.3	314.3	363.9	421.9	460.7	502.2	526.4	531.9	566.6	564.9	578.2	594.3	582.8	527.1	497.1	489.1	490.3	473.9	474.8	477.2	468.2	463.1	448.3	430.5	393.3	364.9	351.5	357.3	318.1	208.9	154.9	115.1	88.28	78.81	125.9	285.0	733.3	 4241	 7941	951.0	37.01	5.262	4.144	4.372	2.867	2.913	2.641	2.499	2.424	2.741	2.866	3.357	3.119	3.774	3.267	3.287	4.093	3.574	3.293	3.476	3.039	3.132	3.153	3.249	3.235	2.825	2.993	3.081	3.438	3.233	3.229	3.071	3.463	3.012	3.455
425.0	110.0	153.9	243.0	308.2	380.9	424.2	454.4	486.9	528.5	528.9	565.1	568.6	572.2	587.1	566.1	524.9	479.0	465.8	474.0	468.2	460.1	464.5	465.9	453.1	438.1	429.6	397.6	363.1	343.4	331.2	333.3	258.0	175.6	124.7	97.27	74.68	70.61	95.22	187.4	 1099	 5255	 6562	740.6	13.28	5.159	4.473	3.071	2.996	2.814	2.240	2.307	2.557	3.053	3.281	3.085	3.486	3.283	3.563	3.487	3.570	3.368	3.481	3.573	3.137	3.240	3.605	3.181	2.495	3.107	3.054	3.165	3.601	3.301	3.081	3.509	3.340	3.452
430.0	104.4	156.5	227.8	297.0	359.4	419.1	427.2	491.2	517.0	528.7	559.3	557.7	569.3	569.2	535.9	507.1	465.3	456.2	442.2	446.4	446.0	446.9	450.9	441.8	430.9	431.9	396.1	370.6	347.2	318.1	312.4	292.2	217.8	147.9	112.4	86.27	68.73	59.22	71.75	266.9	 1354	 4006	 5506	 2052	47.56	5.615	4.006	3.362	3.165	2.520	2.411	2.794	2.783	3.370	3.283	3.297	3.425	3.534	3.883	3.249	3.480	3.642	3.400	3.445	3.245	3.549	3.309	2.880	3.288	3.402	2.732	3.182	2.998	3.137	3.405	3.267	3.476
435.0	137.1	143.7	215.2	314.0	359.4	408.7	429.9	476.7	523.6	530.8	567.0	567.1	568.1	549.0	521.2	483.2	437.7	427.7	427.6	432.9	425.0	429.7	431.3	428.0	425.8	422.6	389.7	370.0	352.0	327.9	301.0	280.0	260.0	183.9	132.0	98.68	77.16	62.57	50.45	86.22	322.7	915.0	 2638	 6520	 3000	60.30	5.570	4.306	3.908	2.994	3.113	3.177	3.267	3.186	3.389	3.169	3.774	3.231	3.636	3.567	3.432	3.489	3.476	3.341	3.421	2.991	3.214	2.733	2.860	3.381	2.682	2.970	2.481	3.068	2.863	3.616	3.375
440.0	182.7	154.2	218.3	316.7	367.8	394.5	420.6	485.7	517.8	529.0	546.3	542.5	567.2	531.5	503.8	461.7	422.9	424.1	421.9	410.7	414.2	414.1	413.3	411.8	407.6	413.5	383.7	373.0	351.9	332.0	297.5	266.2	260.4	221.5	147.4	110.3	84.74	67.09	51.87	50.08	93.85	222.9	645.7	 3787	 6848	832.5	31.49	5.402	3.618	2.719	3.289	3.257	2.851	3.083	3.369	3.479	3.256	3.543	3.589	3.478	3.410	3.519	3.357	3.191	3.378	3.321	3.552	2.512	3.002	3.392	2.677	2.984	2.797	2.559	3.110	3.101	3.469
445.0	172.7	228.5	223.1	294.9	343.3	384.0	425.2	469.8	501.4	518.3	539.1	543.3	542.8	523.1	489.6	452.8	421.6	402.9	403.5	400.9	395.7	399.3	395.4	402.8	390.8	396.1	378.3	367.7	351.7	328.4	306.0	257.8	239.1	232.7	173.5	118.9	94.63	74.31	57.16	46.46	47.28	69.75	161.8	998.0	 4752	 6013	622.0	13.41	4.521	3.267	3.655	3.612	2.806	3.202	3.115	3.638	3.355	3.238	3.376	3.537	3.563	3.123	3.331	3.411	3.219	2.827	3.060	3.122	2.645	3.204	2.897	3.152	2.920	2.708	3.078	3.070	3.372
450.0	118.2	314.9	293.8	268.2	336.0	362.3	410.9	456.2	490.5	491.1	535.0	517.0	508.9	505.4	468.8	431.4	395.1	378.7	374.0	372.7	370.6	374.5	370.8	374.1	369.4	375.2	362.8	344.8	339.3	322.2	298.1	256.0	224.4	210.7	196.5	148.3	104.5	80.65	64.80	50.20	42.53	40.72	55.80	238.5	 1237	 3939	 5314	 1973	39.27	4.655	3.806	3.422	3.202	3.116	3.416	3.514	3.305	3.200	3.657	3.476	3.399	3.221	3.310	3.486	3.327	2.876	3.271	3.345	2.690	2.972	2.836	2.927	2.952	3.054	2.763	2.935	3.172
455.0	98.73	266.2	542.1	285.0	316.7	351.9	386.6	458.2	464.4	485.2	497.6	498.1	509.9	482.8	436.1	398.0	364.4	352.1	341.6	340.3	336.9	340.4	340.8	341.6	344.5	349.3	335.2	327.8	317.9	305.9	286.4	255.3	222.1	196.2	182.6	172.8	122.0	90.62	70.04	54.86	45.49	36.84	33.33	69.58	289.1	901.4	 2509	 6196	 2591	43.98	4.693	3.684	3.269	3.442	3.259	3.418	3.237	3.349	3.108	3.557	3.216	3.185	3.528	3.297	2.967	2.822	3.299	3.265	2.857	3.078	3.068	2.918	2.848	2.956	2.636	2.436	2.965
460.0	97.10	160.8	736.3	459.8	279.7	327.1	380.6	401.3	430.4	465.1	489.1	477.0	475.4	446.7	411.8	382.7	341.6	333.4	321.1	317.6	310.4	312.9	319.4	319.9	316.0	333.5	320.6	307.5	306.3	297.4	272.0	252.4	214.5	184.8	166.3	167.7	143.9	97.23	74.69	60.86	47.09	39.84	31.73	34.66	79.98	214.4	610.8	 3575	 6070	610.2	24.38	4.342	3.819	4.034	3.524	3.597	3.703	3.220	3.152	3.402	3.147	3.109	3.456	3.452	2.974	3.235	3.657	3.019	3.385	2.603	3.203	3.109	2.585	2.672	2.781	2.764	2.688
465.0	88.64	105.7	642.8	818.1	287.5	321.3	333.5	397.5	429.8	456.9	469.3	468.0	443.9	432.5	401.3	366.1	320.8	307.5	299.2	297.4	289.4	294.7	296.7	305.1	303.9	305.8	299.5	292.1	290.4	283.2	261.1	234.6	207.4	178.2	155.9	149.7	148.3	110.3	79.18	61.33	51.10	39.40	32.80	28.91	33.17	61.40	147.9	937.1	 4352	 4747	508.3	9.906	4.399	4.161	3.592	3.547	3.110	3.282	2.989	3.118	3.323	2.712	3.273	3.265	3.063	3.224	2.917	2.860	3.295	3.092	2.567	2.638	2.565	2.537	2.600	2.796	2.748
470.0	92.02	109.8	317.9	 1050	612.0	287.1	318.0	373.8	403.3	422.1	436.9	429.9	407.0	388.4	369.5	334.1	297.3	281.5	271.8	270.2	267.0	265.9	266.3	272.7	269.9	273.6	269.6	262.5	262.5	262.5	245.0	222.9	196.5	168.4	149.5	133.3	125.9	116.9	90.08	65.98	51.93	43.04	35.09	29.64	25.62	28.56	45.77	220.3	 1130	 3302	 3999	 1443	35.83	4.917	3.732	3.434	3.549	3.436	3.468	3.100	3.403	2.762	3.252	3.031	2.750	2.949	2.831	2.848	2.963	2.826	2.701	2.494	2.504	2.470	2.403	2.518	2.430
475.0	89.44	98.54	188.6	657.6	 1264	363.0	291.7	341.4	355.7	397.9	392.7	398.1	388.3	352.1	344.2	299.9	275.4	251.0	243.9	241.8	240.3	243.4	234.0	244.8	243.9	247.9	242.5	234.1	234.0	235.7	222.8	206.2	183.5	161.0	140.7	123.0	109.9	107.6	102.3	74.56	52.96	44.52	38.17	30.89	25.99	22.82	25.27	61.37	261.0	753.5	 1917	 4317	709.3	44.60	4.128	4.079	3.389	3.548	3.249	3.538	2.897	2.680	3.127	3.150	2.524	2.692	2.517	2.973	2.529	2.552	2.869	2.683	2.534	2.176	2.059	2.569	2.569
480.0	90.16	111.5	152.3	316.2	 1423	641.4	273.2	321.3	328.3	361.9	383.1	372.6	356.0	333.5	313.6	277.8	254.3	234.4	229.5	221.7	220.6	213.8	215.3	220.6	223.8	230.0	224.0	222.3	219.6	215.1	206.2	196.5	172.5	153.4	137.1	119.5	106.3	96.33	99.76	81.91	59.29	45.59	37.41	33.12	26.01	22.30	19.96	26.56	68.22	176.2	467.7	 2480	 4086	651.5	19.55	4.486	3.614	3.587	3.312	3.117	2.762	2.512	2.604	2.946	2.566	2.678	2.285	2.946	2.257	2.666	2.454	2.786	2.914	2.397	2.477	2.404	2.867
485.0	89.63	113.1	144.6	196.3	 1069	 1286	280.9	299.5	320.7	335.7	357.1	347.5	341.6	320.8	297.3	263.8	236.5	221.5	219.3	203.9	202.6	206.9	208.2	207.9	204.9	214.9	212.0	202.9	200.5	204.3	196.2	181.1	168.7	149.5	130.7	116.8	104.3	89.80	87.63	86.15	66.32	49.26	38.68	33.85	28.79	23.78	20.37	20.40	26.01	48.29	112.6	655.9	 3005	 3679	468.1	8.149	4.094	3.758	3.201	3.507	2.910	2.723	2.300	3.129	2.688	2.426	2.596	2.599	2.201	2.316	2.567	2.281	2.358	2.494	2.356	2.410	2.454
490.0	80.55	112.7	137.8	173.7	475.7	 1580	808.4	273.1	288.2	317.2	336.9	322.5	320.2	307.6	271.6	244.0	214.9	204.3	195.8	192.2	186.1	188.3	189.2	186.7	183.6	197.9	190.7	185.9	186.6	189.4	184.1	171.5	155.5	143.2	123.3	111.0	98.97	86.33	77.46	75.82	72.80	57.31	40.25	35.60	28.83	25.01	21.96	19.05	18.18	20.86	33.27	154.4	777.6	 2324	 3216	 1257	36.63	4.475	3.562	3.502	2.931	2.812	2.854	3.063	2.611	2.572	2.776	2.822	2.245	2.109	2.507	2.156	2.280	2.399	2.341	2.290	2.256
495.0	80.50	99.05	143.0	175.3	249.9	902.4	 1747	407.2	274.6	283.1	296.3	311.6	299.8	272.9	249.7	217.7	193.8	181.0	174.2	166.2	164.8	169.7	167.7	168.7	163.3	173.8	172.1	164.8	169.4	169.3	163.9	153.3	142.3	125.8	115.9	102.9	95.39	81.23	73.87	67.52	64.68	63.63	46.59	35.38	30.43	26.32	22.13	19.48	17.01	14.73	16.72	41.99	179.7	529.4	 1514	 3872	762.7	43.91	4.729	3.795	3.246	3.188	3.036	2.688	2.637	2.752	2.704	2.562	2.631	2.090	2.391	1.653	2.396	2.070	2.576	1.881	2.045
500.0	76.65	89.63	137.9	158.1	194.9	409.1	 1944	935.8	247.0	256.9	287.1	275.8	277.2	247.2	237.1	192.2	179.8	168.9	159.8	159.2	155.0	153.4	148.7	154.1	146.2	157.8	155.1	155.7	157.4	154.0	150.4	141.0	131.2	118.7	110.9	97.83	88.96	76.50	70.60	60.41	58.12	60.07	52.77	37.13	31.00	26.40	21.99	19.97	17.01	14.52	12.94	17.75	46.83	124.6	365.9	 2160	 3861	659.5	20.66	4.377	3.305	3.057	2.721	2.691	2.483	2.459	2.954	2.214	2.440	2.022	2.336	2.090	2.266	2.100	2.512	1.960	2.075
505.0	76.26	73.87	145.4	145.9	167.9	226.0	 1299	 1672	280.3	247.6	264.6	253.5	250.9	231.2	212.6	181.4	165.4	155.1	150.8	140.5	141.1	136.6	136.4	136.9	132.4	143.3	143.8	140.4	142.6	143.1	141.8	129.3	118.3	112.2	103.2	88.79	83.22	74.10	65.80	56.84	52.53	52.08	54.47	40.57	29.81	26.44	23.00	19.96	17.78	14.40	12.36	11.72	17.33	34.08	87.82	554.4	 2752	 3606	488.8	7.409	3.413	2.789	2.656	2.500	2.654	1.962	2.354	2.133	2.345	2.153	1.964	2.046	2.365	2.157	2.105	2.011	2.680
510.0	65.22	77.58	118.9	147.1	152.9	160.1	515.3	 2082	 1012	233.2	240.4	237.1	234.4	206.5	192.6	163.9	147.2	138.4	134.4	125.0	124.2	122.9	123.4	122.6	120.3	126.6	126.9	123.9	126.3	126.0	123.1	117.7	108.6	101.4	92.31	81.58	73.44	67.28	61.46	53.18	48.97	44.71	46.67	44.47	34.87	26.83	22.31	19.81	17.50	14.29	12.58	10.82	11.04	13.99	25.47	129.3	704.3	 2225	 2910	 1084	35.04	3.919	3.105	2.585	2.609	2.151	2.239	2.297	2.034	2.295	1.992	2.001	2.339	2.214	1.902	2.021	2.308
515.0	56.37	73.99	87.22	133.1	167.3	145.3	242.3	 1027	 2435	452.1	209.9	207.9	203.6	182.8	175.1	144.6	130.4	125.9	117.9	108.9	105.6	106.1	106.3	108.8	103.9	108.8	108.6	104.7	108.8	111.2	109.7	104.6	93.30	88.40	80.70	72.36	68.77	61.25	55.43	48.87	43.71	39.98	36.25	40.75	38.34	29.42	22.46	20.06	15.98	14.65	12.66	11.43	10.01	10.06	11.34	33.81	162.7	505.1	 1300	 3251	740.3	39.34	3.998	2.975	2.851	2.471	2.168	2.167	1.940	2.204	2.141	1.861	1.735	1.598	1.924	2.118	2.182
520.0	66.98	73.49	98.34	109.9	147.1	123.1	164.8	411.2	 2443	 1106	193.0	194.5	187.7	170.1	158.9	130.5	115.6	110.5	107.3	100.1	97.17	93.84	94.62	94.25	91.84	95.62	96.72	94.02	96.55	100.6	99.51	94.58	87.03	77.58	71.01	64.74	62.50	56.70	50.31	46.42	42.68	37.14	33.80	33.82	37.60	33.27	23.29	20.03	16.12	14.39	12.45	11.40	10.03	9.166	8.957	13.36	41.86	117.4	311.8	 1772	 2999	603.5	15.84	3.277	3.374	2.237	2.248	1.975	1.765	1.898	2.330	1.682	2.138	2.225	1.864	1.928	1.719
525.0	62.47	75.88	84.30	91.62	148.4	143.8	143.0	202.0	 1428	 2362	290.0	179.3	164.2	157.2	139.0	121.4	105.5	97.02	96.26	88.40	87.57	89.98	85.40	86.05	86.30	85.37	85.87	83.44	87.24	93.56	87.84	83.47	79.33	71.45	68.85	60.32	55.44	51.99	46.00	42.33	37.50	35.28	31.82	29.40	31.49	33.03	26.38	18.81	15.11	13.71	12.11	10.83	9.481	8.465	8.011	8.524	14.94	30.65	74.97	453.0	 2031	 2634	101.1	6.070	2.844	2.703	2.294	2.222	2.297	1.697	2.018	1.882	2.142	1.855	1.711	2.142	1.653
530.0	67.41	68.30	79.14	87.78	118.9	142.6	130.3	144.1	492.4	 2464	 1641	172.4	149.1	144.1	127.5	107.9	97.46	87.55	87.97	77.94	77.00	76.08	76.36	76.78	77.64	77.35	76.17	74.32	76.77	82.35	76.06	76.77	69.20	64.21	59.68	53.43	50.77	46.46	43.15	37.81	35.53	31.80	28.33	26.41	26.31	27.07	28.66	20.96	15.73	13.55	11.51	10.34	9.143	8.771	7.872	7.428	8.439	11.82	21.37	105.8	515.3	 1573	 2021	427.1	29.50	3.139	2.583	2.297	2.199	1.966	2.034	1.868	1.840	1.766	1.846	1.792	1.980
535.0	62.62	60.49	69.34	78.31	93.45	123.0	132.7	125.0	204.2	995.6	 3673	471.6	132.6	129.5	113.8	95.83	86.29	78.94	72.71	70.99	67.31	64.38	64.74	66.74	66.70	68.11	64.44	67.21	65.08	67.63	67.06	64.22	59.10	54.84	50.66	49.00	44.51	42.36	38.64	34.78	31.09	28.13	25.35	23.84	22.44	21.32	25.00	23.43	16.58	13.41	10.55	10.44	8.733	8.351	7.188	6.974	6.760	7.069	8.808	27.62	118.6	356.5	877.4	 2195	679.8	28.68	2.880	2.543	2.177	2.011	1.746	2.232	1.926	1.621	1.603	1.669	1.882
540.0	58.37	56.40	68.84	81.42	87.91	106.6	145.2	107.4	127.1	345.0	 3350	 1027	137.4	112.6	97.98	84.47	79.69	73.90	64.43	65.57	60.79	59.57	59.13	58.77	57.37	58.43	58.88	57.78	57.08	59.69	57.42	55.25	53.25	47.92	43.40	43.70	39.41	36.48	34.74	29.77	27.86	25.43	23.74	21.69	21.31	18.99	20.50	22.40	18.61	13.20	10.32	10.06	7.696	7.446	7.057	7.419	7.144	5.785	6.323	10.36	30.18	82.99	208.7	 1180	 2156	508.3	9.531	2.887	2.327	2.170	2.325	2.227	1.769	1.618	1.843	1.363	1.857
545.0	60.59	73.46	61.88	78.41	88.24	85.39	141.5	110.3	103.4	165.9	 1753	 2652	251.6	103.4	89.15	79.19	70.05	64.93	56.18	61.16	53.41	51.95	51.64	52.08	51.62	51.03	50.91	49.04	53.26	51.44	52.25	49.36	48.68	43.69	39.47	38.41	34.63	33.97	30.88	29.10	26.24	24.02	22.07	20.55	18.90	18.28	17.57	19.61	19.55	13.73	10.02	9.040	7.946	6.898	6.482	6.982	6.855	5.316	5.377	6.293	10.29	22.07	49.85	301.0	 1465	 1841	92.94	3.676	2.364	2.159	1.816	1.771	1.919	1.690	1.954	2.246	1.788
550.0	60.23	61.79	69.09	70.75	70.92	72.72	113.8	119.1	93.74	105.7	518.1	 2394	 1466	98.79	75.66	69.05	58.66	57.33	50.62	48.89	45.44	47.17	43.54	45.36	43.03	43.91	44.79	42.64	43.24	43.54	44.14	41.68	41.52	36.57	34.65	34.00	29.81	28.74	26.28	24.04	22.64	20.75	19.98	18.25	17.42	15.80	14.94	15.01	16.10	14.94	10.96	8.598	7.438	6.909	6.367	6.149	5.872	5.721	4.800	5.040	5.352	7.660	14.30	70.07	372.9	 1135	 1113	383.1	21.61	2.392	1.918	1.867	1.859	1.784	1.635	2.077	1.767
555.0	56.10	57.34	58.50	59.54	64.97	58.01	78.45	124.9	96.44	84.54	175.6	843.8	 2903	449.2	66.03	57.72	52.28	46.60	40.84	42.06	39.76	37.70	35.07	37.72	36.35	35.71	37.42	35.13	36.17	35.88	37.21	34.93	33.02	31.19	29.50	26.90	23.71	23.86	21.57	20.13	19.69	16.65	16.40	15.81	14.67	13.76	12.68	12.22	11.72	13.15	11.19	8.598	6.591	6.295	5.865	5.685	5.588	5.663	4.836	4.461	3.932	4.329	5.770	18.83	85.49	258.0	586.2	 1485	530.9	14.70	2.243	1.902	2.023	1.804	1.489	1.318	1.669
560.0	56.48	62.83	56.59	48.53	60.55	53.59	66.62	115.5	102.4	76.32	96.76	268.5	 2490	 1548	65.30	50.57	42.34	38.82	37.82	35.79	34.77	33.25	32.18	30.96	32.44	30.85	31.17	32.00	31.05	31.07	32.70	30.77	29.26	26.09	25.61	23.91	21.42	22.18	19.69	16.60	15.48	15.39	14.28	12.87	13.00	11.95	11.22	10.66	9.106	10.89	11.33	8.426	6.450	5.587	5.286	4.938	4.667	4.528	4.582	4.562	3.394	3.549	3.807	6.608	21.76	60.16	142.8	854.5	 1389	100.6	4.561	2.045	1.965	1.897	1.618	1.562	1.516
565.0	64.26	62.58	56.19	51.16	50.06	55.00	57.60	78.63	113.6	74.61	73.66	117.4	 1163	 2823	175.2	47.06	39.28	32.18	33.07	30.43	29.86	31.58	27.55	27.74	28.24	26.77	25.65	26.92	26.50	26.83	28.01	25.73	23.70	22.67	21.27	20.49	20.47	18.70	17.76	15.26	13.78	12.85	12.19	11.69	11.53	10.13	9.799	9.603	7.933	8.469	9.440	9.288	6.749	5.877	4.584	5.111	4.804	4.374	4.263	4.567	3.808	3.613	3.652	3.889	7.118	15.35	33.97	224.7	 1001	807.3	75.14	2.432	2.294	1.742	1.627	1.507	1.630
570.0	59.14	64.40	49.33	49.65	49.83	49.08	48.54	54.79	101.4	85.35	68.57	76.83	339.6	 2352	 1269	49.31	34.65	28.07	29.42	25.35	24.83	24.40	23.03	22.65	22.00	23.05	22.04	22.01	21.47	22.51	22.98	21.38	20.12	18.50	18.24	16.36	15.81	14.72	14.08	12.69	11.74	11.20	10.59	9.645	9.537	8.571	8.577	7.588	6.930	6.633	6.679	7.108	7.221	5.458	4.436	4.103	4.057	3.911	3.508	3.822	3.245	3.301	2.792	3.050	3.646	5.472	9.907	52.54	261.4	655.8	782.9	262.9	11.12	1.630	1.935	1.512	1.549
575.0	60.18	51.53	55.84	46.08	52.97	50.07	41.41	51.56	68.91	115.5	68.24	56.21	121.9	758.3	 2678	321.1	30.21	24.45	21.62	23.11	20.80	21.61	18.73	20.31	18.85	18.00	17.41	17.97	17.58	20.19	18.25	17.17	16.17	15.59	14.69	13.39	13.41	12.21	11.25	11.07	10.50	9.727	8.934	8.478	8.161	6.812	6.911	6.459	5.552	5.295	5.215	5.479	6.750	5.274	4.114	3.337	3.722	3.400	3.136	3.526	3.101	3.239	3.031	3.064	3.102	3.311	4.294	14.05	60.18	150.0	405.6	878.9	102.4	6.878	2.233	1.679	1.574
580.0	58.78	50.29	51.29	43.29	44.73	48.83	37.62	47.06	50.05	108.9	78.49	55.12	75.30	220.1	 2223	 1206	28.83	21.44	22.06	18.55	18.40	18.74	17.99	17.26	16.12	15.64	14.69	15.39	14.69	16.10	15.40	14.47	13.66	13.00	12.97	11.90	11.89	11.19	10.70	9.316	9.036	7.719	7.151	6.609	7.656	6.408	6.034	6.427	5.555	4.765	4.750	4.193	5.584	4.896	4.295	3.928	2.790	2.999	2.782	2.663	2.648	3.113	3.309	3.088	2.820	2.680	2.908	4.833	15.17	35.33	101.1	532.8	738.6	85.06	3.464	2.122	1.668
585.0	54.54	54.36	50.94	48.84	47.01	37.96	37.77	37.10	47.48	88.80	94.17	63.53	57.40	87.82	 1020	 2154	106.3	21.63	17.76	17.14	16.01	15.88	15.35	14.89	14.47	14.17	14.05	13.26	14.25	14.08	14.02	12.88	12.57	11.24	11.24	10.14	10.17	9.822	8.753	8.474	7.952	7.519	6.963	6.171	6.984	5.957	5.079	5.191	4.671	3.952	4.318	3.958	4.181	5.059	4.451	3.780	3.153	2.893	3.187	2.584	3.021	2.823	2.886	3.191	2.948	2.808	2.759	3.228	5.579	9.896	24.32	144.5	597.7	591.4	59.87	2.233	1.896
590.0	53.63	57.68	49.90	50.78	40.94	35.80	35.38	36.90	39.87	62.95	93.64	66.49	53.64	54.21	279.3	 1771	885.8	25.81	17.13	15.46	13.58	13.90	12.00	12.09	12.28	11.60	11.97	11.33	12.72	11.89	11.36	11.15	10.60	9.439	9.398	9.252	8.504	8.057	7.450	7.189	6.325	6.268	5.915	5.555	5.416	5.408	5.037	4.583	4.279	3.770	3.721	3.592	3.566	4.409	4.137	3.958	3.481	2.707	2.823	2.744	2.625	2.593	2.671	2.888	2.725	2.909	2.544	2.753	3.271	4.276	7.433	34.38	161.7	433.2	479.8	67.33	6.228
595.0	57.13	49.87	55.27	35.84	40.51	32.02	34.45	34.28	39.63	45.96	86.09	82.34	53.98	43.42	88.42	569.2	 1806	203.8	16.77	13.78	11.56	12.19	9.688	10.89	10.32	10.83	9.477	10.28	10.58	10.44	8.907	9.847	9.205	9.036	8.049	7.802	7.528	7.150	6.918	6.011	5.194	5.211	4.934	4.751	4.284	4.288	4.419	3.565	3.663	3.048	3.121	3.204	3.152	2.990	3.240	3.904	3.194	2.374	2.521	2.435	2.789	2.456	2.592	2.556	2.753	2.843	2.413	2.316	2.507	2.857	3.612	9.670	37.84	100.1	262.6	507.7	94.60
600.0	71.71	49.04	51.14	50.28	40.33	32.58	34.80	40.03	37.11	42.61	61.78	94.88	60.28	43.62	49.49	153.7	 1457	754.9	16.85	12.24	11.55	10.91	11.25	10.01	11.04	10.49	7.880	9.403	8.747	8.391	7.663	8.219	7.839	8.407	7.676	6.251	5.944	6.449	5.963	5.250	5.081	4.731	4.391	4.140	4.002	3.849	3.449	3.383	3.099	2.759	2.644	2.825	2.511	2.292	2.885	3.361	3.719	2.937	2.677	2.450	2.518	2.212	2.199	2.558	2.368	2.984	2.259	2.330	2.565	2.184	2.500	3.804	10.24	23.71	66.70	337.6	449.4
605.0	57.59	50.73	51.45	47.36	50.22	35.73	33.87	32.04	36.60	38.38	49.46	97.60	69.51	44.49	37.43	52.26	672.5	 1388	65.08	11.49	10.87	9.378	10.05	8.882	9.254	8.747	8.038	8.037	7.877	7.715	7.083	7.710	6.921	7.548	6.649	6.278	5.691	6.073	5.469	4.674	5.229	4.508	4.462	3.655	3.572	3.491	3.138	3.281	2.934	3.121	2.530	2.601	1.957	2.173	2.376	3.319	3.242	3.050	2.829	2.230	2.429	2.785	2.065	2.412	2.183	2.600	2.505	2.717	2.507	2.733	2.370	2.704	4.222	7.263	16.56	95.52	377.6
610.0	57.97	56.82	51.12	48.99	43.65	32.42	33.26	31.19	37.01	40.54	45.43	75.87	83.63	49.67	36.41	29.64	182.1	 1185	603.5	14.64	9.706	9.031	8.889	8.081	8.333	8.077	7.309	7.322	7.446	6.633	6.521	6.618	5.908	6.121	5.563	5.536	4.798	4.502	4.750	3.866	4.184	3.968	3.749	3.552	3.591	3.094	2.848	2.951	2.878	2.704	2.406	2.306	1.947	2.393	2.081	2.534	2.963	2.872	2.721	2.257	2.414	2.225	2.304	2.455	2.084	2.303	2.773	2.847	2.696	2.698	2.422	2.358	2.795	3.325	5.486	23.10	104.4
615.0	50.63	61.46	54.24	45.02	42.33	35.18	30.87	36.04	36.09	38.15	46.05	55.89	89.17	53.58	37.43	25.94	53.76	388.0	 1276	130.8	9.484	7.961	8.033	6.958	6.385	6.931	6.186	5.812	7.111	5.959	5.898	5.859	5.063	5.978	5.219	4.745	3.732	3.773	4.336	3.395	3.340	3.686	3.093	3.179	3.301	2.941	2.650	2.446	2.374	2.090	2.258	1.893	2.221	1.786	2.201	2.006	2.544	3.126	2.748	2.510	2.219	1.922	2.265	1.930	1.963	2.011	2.233	2.783	2.898	2.425	2.205	2.120	2.297	2.256	3.061	6.758	24.93
620.0	52.09	60.11	56.45	42.75	33.40	31.98	28.25	29.46	36.66	33.78	45.39	54.80	76.53	64.58	38.53	24.69	24.35	101.9	 1094	356.6	9.880	7.151	7.133	7.111	5.872	7.530	5.638	5.326	6.186	5.445	5.049	5.661	4.522	5.441	4.620	4.494	3.376	4.003	3.614	3.560	3.567	3.313	2.938	2.871	3.299	2.725	2.402	2.165	2.406	1.962	1.978	1.806	2.009	1.883	1.942	1.939	2.012	2.385	2.482	2.415	1.924	1.925	2.529	2.224	2.088	2.138	2.192	2.575	2.749	2.915	2.351	2.290	2.180	1.981	2.251	3.101	6.747
625.0	54.45	54.00	55.75	43.83	38.77	29.01	27.00	27.46	34.44	35.30	43.99	50.98	63.09	74.20	42.07	26.83	18.03	33.12	533.1	 1067	40.27	7.072	6.861	6.578	5.738	6.301	5.645	5.073	5.556	5.621	5.382	4.918	4.035	4.689	4.998	4.662	4.117	3.573	3.439	3.504	3.204	3.132	3.058	2.733	2.496	1.981	2.240	2.270	2.217	2.214	1.965	1.870	1.767	1.781	1.775	1.894	2.027	1.889	2.168	2.444	1.851	2.163	2.037	2.485	2.315	1.891	2.232	2.309	2.634	2.710	2.367	2.203	1.683	2.171	1.831	2.341	2.879
630.0	53.50	53.10	50.04	45.86	37.94	31.21	27.32	27.55	31.66	33.77	42.76	47.01	52.91	73.91	48.82	22.96	16.82	17.07	142.9	984.2	458.9	10.16	5.513	5.738	5.107	5.369	5.469	5.068	4.777	4.977	4.760	4.771	4.118	4.274	4.152	4.201	3.431	3.643	3.495	3.350	2.986	2.744	2.759	2.446	2.503	2.212	2.072	2.198	1.933	1.649	1.934	1.951	1.966	1.607	1.729	1.643	1.890	1.723	1.986	2.180	1.918	2.125	1.592	1.903	2.171	1.992	2.036	2.237	2.222	1.993	2.212	2.156	1.967	1.893	1.992	1.797	1.864
635.0	50.45	44.11	43.49	56.18	31.61	27.51	30.86	28.87	33.75	32.82	41.75	46.31	48.39	61.84	66.06	29.21	16.64	12.00	39.20	346.5	 1020	94.88	5.597	5.307	5.091	4.833	5.000	5.097	4.169	5.026	4.151	4.391	4.293	3.644	3.701	3.573	3.521	3.613	3.322	2.996	2.913	2.327	2.347	2.688	2.461	2.307	2.081	2.035	1.724	1.208	1.487	1.848	1.721	1.844	1.579	1.543	1.359	1.989	2.069	1.962	2.084	2.041	1.753	1.818	2.041	1.643	1.606	2.104	1.965	2.138	1.636	2.249	1.725	1.807	2.212	1.712	1.599
640.0	42.34	58.56	57.03	50.80	31.89	33.36	25.96	25.98	33.90	32.62	41.75	46.86	45.25	52.16	64.86	33.12	14.36	11.55	17.12	91.26	917.5	294.8	6.698	4.765	5.654	5.572	3.930	3.716	3.952	3.994	4.613	4.464	4.172	3.938	4.413	4.016	3.214	3.199	3.063	2.784	2.527	2.757	2.296	2.546	2.188	2.375	2.069	1.883	1.710	1.595	1.294	1.742	1.529	1.551	1.462	1.598	1.616	1.834	1.479	1.904	1.693	2.186	1.994	1.958	1.714	1.607	1.614	1.594	1.715	1.566	1.719	1.923	1.775	2.193	1.751	1.523	1.591
645.0	57.69	65.41	48.63	44.55	36.88	29.62	29.50	27.15	31.16	34.78	44.18	44.44	44.90	49.78	58.21	36.88	15.52	13.38	11.28	27.75	468.4	782.3	26.46	4.619	5.184	4.529	4.393	4.041	4.160	4.701	4.133	4.248	4.149	3.708	4.811	4.375	3.946	3.973	2.840	2.452	2.796	2.462	1.799	2.251	2.283	1.926	2.143	2.143	1.503	1.633	1.498	1.871	1.422	1.722	1.436	1.597	1.685	1.854	1.540	1.570	1.645	1.950	1.899	1.877	1.659	1.576	1.723	1.327	1.790	1.853	1.838	2.076	1.853	1.529	1.739	1.308	1.727
650.0	53.92	55.29	67.90	39.48	37.71	30.39	22.24	30.60	28.33	32.11	41.22	45.08	46.06	48.83	45.46	44.92	18.90	11.37	10.22	13.20	143.5	930.1	178.7	6.047	4.286	5.379	4.607	4.409	4.142	4.369	4.526	4.257	4.208	4.589	5.204	4.626	4.592	4.178	3.242	2.701	2.610	2.398	2.157	2.019	2.270	1.844	1.720	1.956	1.832	1.564	1.457	1.792	1.081	1.465	1.631	1.499	1.600	1.577	1.821	1.632	1.845	1.575	2.044	2.043	1.649	1.834	1.761	1.791	1.661	2.003	1.219	1.906	1.777	1.813	1.592	1.841	1.775
