Sample:	'1
File name:	w101409袁家屋子东南闸口.FD3
Run date:	'09:57:29, 10/15/2024
Operator:	horiz
Comment:	'

Instrument
Model:	F-2700 FL Spectrophotometer
Serial number:	23B8-004
ROM Version:	4J14000 07

Instrument parameters
Measurement type:	3-D scan
Data mode:	Fluorescence
EX  Start WL:	220.0 nm
EX  End WL:	600.0 nm
EX Sampling interval:	5.0 nm
EM  Start WL:	230.0 nm
EM  End WL:	650.0 nm
EM Sampling interval:	5.0 nm
Scan speed:	12000 nm/min
EX Slit:	5.0 nm
EM Slit:	5.0 nm
PMT Voltage:	700 V
Response:	Auto 
Corrected spectra:	Off
Contour interval:	50.000

Peak integration
Integration method:	Rectangular
Sensitivity:	1
Threshold:	1.000

Peaks
No.	ApexEX/EM(nm)	Height(Data)
1	225.0/605.0	68.61
2	225.0/620.0	67.77
3	230.0/345.0	2999
4	230.0/580.0	87.34
5	230.0/615.0	68.77
6	230.0/625.0	66.82
7	245.0/410.0	1880
8	255.0/440.0	2048
9	260.0/575.0	156.8
10	265.0/585.0	140.6
11	270.0/600.0	127.3
12	275.0/615.0	140.7
13	280.0/335.0	2554
14	280.0/415.0	2358
15	280.0/625.0	129.3
16	335.0/415.0	1627
17	460.0/345.0	11.52
18	475.0/355.0	11.46
19	565.0/335.0	13.65
20	570.0/400.0	9.865
21	575.0/290.0	305.7
22	585.0/325.0	12.29

Wavelength data
No.	EX/EM(nm)	Height(Data)	

Data points
	220.0	225.0	230.0	235.0	240.0	245.0	250.0	255.0	260.0	265.0	270.0	275.0	280.0	285.0	290.0	295.0	300.0	305.0	310.0	315.0	320.0	325.0	330.0	335.0	340.0	345.0	350.0	355.0	360.0	365.0	370.0	375.0	380.0	385.0	390.0	395.0	400.0	405.0	410.0	415.0	420.0	425.0	430.0	435.0	440.0	445.0	450.0	455.0	460.0	465.0	470.0	475.0	480.0	485.0	490.0	495.0	500.0	505.0	510.0	515.0	520.0	525.0	530.0	535.0	540.0	545.0	550.0	555.0	560.0	565.0	570.0	575.0	580.0	585.0	590.0	595.0	600.0
230.0	35.86	1864	7076	3086	128.1	13.05	10.85	9.991	9.196	8.960	9.447	9.182	9.196	8.416	7.669	6.726	6.341	6.285	5.713	6.262	5.113	4.882	4.583	4.213	4.240	3.947	3.667	3.284	3.370	3.342	3.234	2.998	2.930	2.855	2.564	2.290	2.137	1.979	1.804	1.703	1.784	1.533	1.553	1.549	1.503	1.490	2.874	11.97	26.05	21.31	9.354	2.246	1.117	0.865	0.895	0.883	0.804	0.824	0.742	0.701	0.624	0.622	0.570	0.519	0.534	0.484	0.479	0.441	0.420	0.336	0.285	0.324	0.292	0.252	0.230	0.236	0.201
235.0	66.80	503.2	4372	9979	3804	210.4	16.21	11.55	12.59	11.33	10.60	10.27	10.35	9.087	7.992	7.622	6.254	6.373	5.962	6.963	5.198	4.725	4.984	4.396	4.088	4.175	3.742	3.690	3.393	3.411	3.283	2.787	2.897	2.876	2.670	2.356	2.270	2.231	1.935	1.695	1.746	1.558	1.638	1.647	1.703	1.428	1.673	3.985	10.21	20.78	33.41	27.01	16.38	3.491	1.045	0.915	0.866	0.847	0.693	0.722	0.667	0.657	0.566	0.556	0.503	0.445	0.405	0.420	0.445	0.364	0.370	0.321	0.300	0.268	0.300	0.265	0.247
240.0	96.00	187.1	1271	8307	9999.9	3000	113.8	19.50	14.93	14.49	14.23	11.57	11.23	9.747	9.056	7.674	6.685	6.487	6.184	6.682	5.474	5.861	4.877	4.542	4.489	3.927	4.107	3.922	3.390	3.310	3.166	2.832	2.831	2.863	2.724	2.430	2.409	2.082	2.007	1.677	1.753	1.583	1.590	1.668	1.661	1.680	1.611	1.982	3.230	6.641	18.45	45.96	61.36	26.79	13.62	2.372	1.043	0.851	0.761	0.661	0.691	0.615	0.608	0.611	0.540	0.505	0.468	0.562	0.376	0.413	0.336	0.310	0.313	0.303	0.288	0.297	0.293
245.0	92.00	175.6	359.7	2704	9999.9	9999.9	2171	47.11	19.40	17.89	16.92	13.48	13.70	10.30	9.978	7.615	7.665	7.630	5.986	6.793	5.420	5.599	4.742	4.872	4.718	4.507	3.916	3.746	3.534	3.704	3.163	3.071	2.791	2.786	2.799	2.521	2.475	2.060	1.824	1.873	1.880	1.762	1.557	1.561	1.611	1.616	1.703	1.962	1.833	2.467	5.368	16.29	43.66	72.58	79.12	24.89	9.306	1.332	0.974	0.675	0.808	0.699	0.550	0.615	0.555	0.483	0.509	0.493	0.406	0.440	0.291	0.295	0.303	0.310	0.346	0.265	0.386
250.0	58.22	129.2	253.0	707.2	3456	9999.9	9999.9	6366	140.6	28.62	22.68	18.09	15.22	13.26	10.87	8.912	8.908	7.993	6.942	7.730	5.907	5.928	5.325	5.175	5.073	4.543	4.739	4.025	3.928	3.932	3.503	3.050	2.902	2.826	2.615	2.449	2.418	2.178	2.049	1.923	1.944	1.650	1.640	1.679	1.673	1.681	1.483	1.737	1.994	1.860	2.300	4.649	11.20	24.45	50.59	71.63	95.74	75.03	17.59	8.515	1.254	0.889	0.727	0.744	0.632	0.608	0.642	0.492	0.452	0.493	0.384	0.419	0.334	0.342	0.328	0.286	0.283
255.0	59.57	68.20	173.9	406.0	881.0	2583	9999.9	9999.9	2576	170.6	37.05	26.04	21.50	16.60	14.34	10.85	10.13	8.872	8.344	8.645	6.405	5.988	5.552	5.203	5.849	4.947	5.100	4.425	4.546	4.220	3.829	3.242	3.237	3.065	2.783	2.633	2.732	2.285	2.193	2.206	1.978	1.813	1.840	1.665	1.751	1.719	1.512	1.559	1.670	1.954	2.325	2.718	3.736	6.469	12.23	17.94	38.74	91.85	152.3	144.1	26.82	9.662	1.128	0.936	0.739	0.739	0.658	0.533	0.511	0.440	0.593	0.429	0.435	0.411	0.383	0.299	0.304
260.0	60.46	56.46	92.15	297.6	438.2	657.1	3359	9999.9	9999.9	2115	113.9	35.64	27.40	20.78	16.60	13.01	11.17	9.752	9.130	9.701	6.956	7.090	5.846	5.474	5.685	5.180	5.178	4.463	4.562	4.334	4.278	3.556	3.388	3.061	2.990	2.604	2.478	2.457	2.339	2.188	2.243	2.005	1.942	1.765	1.770	1.608	1.460	1.498	1.432	1.562	1.889	2.665	3.017	2.758	3.732	4.975	9.800	25.56	72.99	159.1	197.4	144.8	22.58	4.805	1.000	0.889	0.741	0.687	0.490	0.553	0.516	0.471	0.448	0.437	0.373	0.410	0.390
265.0	60.82	60.53	63.26	149.0	391.2	342.2	829.7	5278	9999.9	9999.9	1588	65.13	36.32	27.15	20.05	15.73	13.22	10.92	9.840	10.42	8.166	7.706	6.257	5.860	5.930	5.431	5.511	4.914	5.177	4.997	4.339	3.722	3.640	2.904	3.070	2.836	2.287	2.549	2.209	2.356	2.080	2.176	1.908	1.966	1.931	1.804	1.595	1.531	1.482	1.406	1.446	1.958	2.527	2.829	2.538	2.163	3.170	6.810	17.80	49.12	123.9	231.6	231.1	32.96	16.39	2.059	1.022	0.950	0.683	0.612	0.585	0.528	0.490	0.488	0.472	0.411	0.405
270.0	83.12	82.35	72.60	83.88	203.9	390.9	412.8	1301	6078	9999.9	9999.9	5992	112.8	45.16	30.71	22.13	17.26	14.25	12.06	12.30	9.140	8.371	7.331	6.604	6.490	5.950	5.903	4.904	5.313	5.173	4.756	4.133	4.154	3.405	3.249	2.922	2.641	2.593	2.331	2.415	2.449	2.177	2.018	2.021	2.041	1.937	1.718	1.727	1.618	1.482	1.407	1.519	1.749	2.098	2.714	2.789	2.733	2.940	4.992	12.04	29.84	69.12	128.9	184.7	229.7	143.7	100.6	11.92	2.295	0.885	0.804	0.669	0.562	0.669	0.544	0.568	0.467
275.0	138.7	144.6	132.7	95.15	101.3	206.0	513.3	545.3	1467	3319	9999.9	9999.9	8418	124.4	49.09	31.15	24.14	19.03	14.57	15.31	11.52	9.712	8.475	7.482	7.252	6.891	6.569	5.765	5.255	5.542	5.055	4.521	4.583	4.227	3.691	3.167	2.990	2.863	2.645	2.501	2.220	2.320	2.145	2.137	2.325	2.253	1.940	2.203	1.855	1.591	1.554	1.475	1.524	1.473	1.663	2.040	3.276	3.933	3.336	3.900	7.685	16.59	29.96	43.76	75.37	165.5	360.4	257.8	33.00	17.22	1.791	1.105	0.919	0.857	0.896	0.719	0.666
280.0	205.0	226.0	219.4	147.4	101.7	123.0	346.9	620.5	530.6	905.4	5262	9999.9	9999.9	1210	96.23	45.76	31.40	24.26	17.46	17.63	12.93	11.38	9.888	8.283	8.325	7.236	7.178	6.061	5.453	6.054	5.452	4.759	4.681	4.406	4.082	3.592	3.313	3.054	2.666	2.662	2.498	2.491	2.467	2.424	2.508	2.324	2.368	2.246	2.249	1.783	1.794	1.755	1.691	1.603	1.512	1.733	2.120	3.290	4.169	3.724	3.342	5.197	7.918	11.26	18.65	42.29	133.9	283.0	406.0	245.9	29.68	10.40	1.468	1.096	0.927	0.882	0.774
285.0	268.3	327.9	324.6	230.4	135.3	119.8	196.6	570.8	573.8	418.5	1450	9296	9999.9	9999.9	869.5	71.97	43.25	31.78	23.24	22.60	15.02	13.12	11.15	9.583	8.810	8.580	7.384	6.715	5.986	6.655	5.679	4.980	4.894	4.769	4.468	4.206	3.608	3.094	3.088	2.883	2.765	2.556	2.621	2.528	2.881	2.561	2.681	2.864	2.665	2.120	2.017	1.972	2.055	1.653	1.614	1.673	1.832	2.214	2.939	4.495	4.446	3.456	3.229	4.096	5.796	11.37	32.07	75.66	192.3	395.6	481.8	215.0	23.47	4.726	1.383	1.173	0.981
290.0	376.3	495.6	491.8	350.3	219.2	169.1	192.2	338.6	666.0	681.8	703.9	2492	9999.9	9999.9	9999.9	3652	83.71	48.97	33.57	30.65	19.54	16.48	13.52	11.43	10.83	9.687	8.808	7.961	7.379	6.841	6.341	5.419	5.402	5.069	4.883	4.647	4.092	3.695	3.377	3.142	2.933	2.917	2.654	2.858	2.967	3.098	3.027	3.399	3.098	2.597	2.363	2.362	2.391	1.951	1.885	1.917	2.012	2.056	2.210	2.795	3.688	4.437	4.823	4.082	3.715	4.849	9.261	19.08	45.66	104.2	204.9	305.7	290.4	284.9	139.2	16.56	5.810
295.0	449.8	606.5	652.7	471.8	305.8	239.3	259.8	323.0	484.1	928.0	969.0	1081	2693	4066	9999.9	9999.9	4981	92.03	52.14	45.60	27.43	22.27	17.13	14.30	13.35	11.35	9.949	9.094	8.599	8.098	7.027	6.478	5.923	5.402	5.413	5.159	4.409	4.189	3.756	3.902	3.475	3.228	3.183	3.108	3.463	3.735	3.739	3.940	3.772	3.034	2.878	2.913	2.959	2.387	2.292	2.279	2.366	2.463	2.447	2.706	2.875	3.305	4.327	5.665	6.215	5.377	5.154	7.243	13.01	26.10	48.60	70.70	81.00	196.6	442.1	572.8	236.1
300.0	513.3	718.9	774.8	603.9	388.4	324.7	355.2	409.1	544.9	862.5	1384	1130	1260	1415	6690	9999.9	9999.9	704.7	81.54	63.46	36.64	28.84	21.81	16.87	15.82	12.76	11.91	10.64	9.496	9.302	7.700	6.545	6.424	5.999	5.723	5.176	4.765	4.516	4.409	4.154	3.791	3.208	3.102	3.070	3.770	3.895	3.917	4.367	4.021	3.424	3.062	3.253	3.313	2.650	2.687	2.646	2.767	2.988	3.131	3.321	3.311	3.651	4.130	4.999	6.549	7.741	6.805	5.724	6.844	10.02	14.37	18.74	21.10	48.49	135.6	351.8	612.2
305.0	602.5	836.7	900.3	715.9	502.4	436.0	496.2	616.8	760.1	1042	1565	1776	1347	1102	2147	9999.9	9999.9	9999.9	562.3	86.18	50.09	36.58	26.74	20.96	18.15	14.79	12.94	11.65	10.84	10.14	8.361	7.499	7.023	6.062	5.927	5.382	5.328	4.728	4.566	4.427	4.168	3.414	3.288	3.339	3.807	3.997	4.158	4.913	4.785	3.758	3.526	3.896	3.654	3.050	3.117	3.419	3.571	3.607	3.977	4.169	4.712	4.975	5.624	5.693	6.576	7.777	9.428	9.328	7.367	7.818	8.324	8.478	8.689	14.45	34.04	87.31	225.8
310.0	670.6	939.9	1017	820.5	619.0	556.7	664.7	816.2	1008	1290	1669	2070	1998	1388	1332	2874	9999.9	9999.9	9999.9	9999.9	176.2	56.56	37.42	28.80	23.00	18.45	16.40	13.92	12.45	11.62	9.942	8.270	7.711	7.262	6.473	6.113	5.401	5.404	4.974	4.847	4.769	4.050	3.923	3.951	3.967	4.323	4.653	5.089	5.117	4.408	4.220	4.318	4.188	3.607	3.826	3.882	4.148	4.499	4.897	4.934	5.426	6.078	7.097	7.226	7.720	8.502	9.085	10.33	10.26	10.52	9.411	7.668	7.206	8.398	11.83	23.09	54.15
315.0	761.7	1058	1165	950.3	721.9	652.1	794.3	959.1	1169	1477	1809	2059	2250	1947	1385	1300	2775	4163	9999.9	9999.9	3990	178.1	58.32	40.43	30.80	23.57	19.64	17.00	14.94	13.24	11.53	9.718	8.995	7.985	7.463	6.635	6.059	5.846	5.474	5.308	5.349	4.650	4.259	4.359	4.736	4.663	5.336	5.835	5.506	4.966	4.854	4.960	4.360	4.081	4.382	4.593	4.749	5.104	5.516	5.736	5.907	6.927	7.400	8.115	8.582	8.967	9.265	9.999	10.33	11.35	12.21	10.77	8.848	8.154	7.881	9.743	15.96
320.0	847.0	1316	1373	1058	812.8	736.3	889.4	1042	1274	1586	1954	2197	2280	2224	1717	1076	1228	1330	6230	9999.9	9999.9	3192	106.1	56.40	41.12	29.38	23.95	19.72	17.84	15.01	12.68	10.82	10.04	9.224	7.756	7.096	6.587	6.336	5.751	5.557	5.575	5.092	4.781	4.808	5.207	5.601	5.765	6.421	6.164	5.235	5.236	5.489	4.869	4.868	4.829	5.129	5.338	5.591	5.927	6.329	6.639	7.546	8.301	8.740	9.093	9.512	10.13	10.72	10.51	11.50	11.79	11.26	11.65	9.920	8.247	7.384	8.114
325.0	961.9	1595	1765	1345	956.5	829.2	951.1	1117	1346	1688	2057	2310	2368	2206	2032	1213	929.9	709.4	1680	9999.9	9999.9	9999.9	485.7	84.23	54.11	37.50	29.27	22.63	19.73	16.72	14.28	12.15	10.29	9.986	8.342	7.687	7.112	6.411	5.974	5.965	5.623	5.187	4.941	5.173	5.707	6.618	6.499	7.866	7.539	6.573	6.090	5.990	5.515	5.159	5.135	5.143	5.660	6.091	6.440	6.609	7.073	7.592	8.716	9.099	9.564	10.04	10.82	11.07	11.59	12.48	12.16	10.91	11.41	12.29	9.751	7.932	6.544
330.0	1159	1938	2338	1942	1323	1004	1034	1189	1409	1745	2138	2408	2480	2228	2037	1526	1034	637.6	680.7	2583	9999.9	9999.9	9999.9	9999.9	174.4	56.18	41.69	30.18	24.79	20.76	16.90	13.96	12.29	11.02	9.525	8.093	7.414	7.034	6.316	6.465	5.869	5.516	5.330	5.545	6.240	6.905	7.692	9.048	9.320	8.298	8.071	7.784	7.169	6.428	5.934	5.840	6.054	6.523	6.604	6.787	7.113	8.150	8.907	9.358	10.10	10.01	11.34	11.27	11.60	13.18	12.42	11.31	11.18	10.84	10.26	9.631	8.247
335.0	1319	2196	2746	2484	1791	1271	1174	1252	1458	1797	2177	2445	2554	2316	2053	1560	1319	792.3	554.0	903.1	2493	3824	9999.9	9999.9	3587	197.0	59.90	45.16	33.09	26.51	20.88	17.37	14.19	12.54	11.07	9.401	8.584	7.705	7.063	6.903	6.479	6.205	5.847	6.015	6.829	8.114	8.588	10.18	10.60	9.434	9.271	9.969	8.997	7.926	7.336	6.720	6.849	6.892	7.042	7.202	7.981	8.538	8.988	9.436	10.30	10.50	11.58	11.73	11.88	13.65	13.04	12.00	11.68	11.10	10.36	9.765	9.541
340.0	1308	2298	2973	2732	2018	1426	1249	1303	1490	1816	2166	2448	2544	2335	2066	1532	1347	1006	610.4	579.5	857.9	1131	5789	9999.9	9999.9	3125	123.5	58.37	41.61	32.23	25.14	19.70	16.68	14.04	11.62	10.63	9.073	7.946	7.543	7.028	6.741	6.282	5.945	6.390	7.050	8.243	8.818	10.52	11.29	10.45	10.11	11.04	10.22	8.873	7.787	7.098	7.038	6.966	7.284	7.505	8.052	8.893	8.881	9.672	10.24	10.46	11.60	11.93	11.97	13.62	13.06	11.94	11.55	11.46	10.32	9.719	8.695
345.0	1296	2223	2999	2875	2161	1509	1289	1335	1507	1799	2112	2359	2467	2288	2053	1530	1258	1114	747.1	560.5	534.8	545.0	1581	9999.9	9999.9	9999.9	450.2	88.15	52.21	39.99	29.01	21.64	18.47	15.62	13.11	11.22	9.624	8.784	7.539	7.459	7.061	6.448	6.115	6.279	7.153	8.078	8.774	10.77	11.52	10.88	10.70	11.45	10.45	9.208	8.010	7.393	7.233	6.944	7.412	7.469	8.423	8.724	8.757	9.303	9.787	10.06	11.07	11.24	12.18	13.01	12.48	11.61	11.20	11.50	10.05	9.212	8.829
350.0	1231	2094	2845	2868	2293	1706	1482	1504	1615	1795	2063	2259	2341	2207	2014	1566	1281	1065	941.4	731.0	551.1	481.4	653.4	2519	9745	9999.9	9999.9	9999.9	182.5	55.40	39.20	27.53	21.95	18.20	14.80	12.13	10.34	9.585	8.462	7.650	7.318	6.471	6.407	6.419	7.092	7.985	8.374	10.45	10.87	10.60	10.58	11.33	10.74	9.708	8.632	8.087	8.056	8.057	8.176	8.274	8.692	8.585	9.324	9.349	9.880	10.32	10.48	10.82	10.83	11.93	12.05	11.01	10.80	11.13	10.17	9.522	8.939
355.0	1147	1957	2615	2714	2341	1802	1571	1601	1656	1790	1984	2129	2199	2091	1939	1578	1333	1092	953.0	923.5	718.6	548.7	512.2	850.4	2396	3251	9999.9	9999.9	9999.9	238.4	56.11	36.68	28.72	20.72	17.01	14.58	11.57	10.35	9.169	8.232	7.694	6.946	6.412	6.599	6.990	7.927	7.907	10.05	10.44	10.23	10.06	11.46	10.59	10.07	9.065	8.420	8.227	8.302	8.534	8.675	8.497	8.984	8.989	9.419	9.857	10.18	9.780	10.61	10.37	11.35	11.20	10.80	10.18	10.34	10.00	9.528	9.160
360.0	1073	1825	2488	2608	2280	1793	1575	1601	1649	1754	1918	2021	2081	1995	1867	1566	1348	1135	981.7	948.2	887.9	632.0	535.6	525.2	795.4	939.4	4460	9999.9	9999.9	3252	158.1	50.77	37.13	26.31	19.43	16.78	12.68	11.42	9.945	8.900	8.245	7.325	6.741	6.746	6.965	7.271	8.135	9.358	10.08	9.774	10.03	11.22	10.85	10.11	8.802	8.550	8.164	8.434	8.230	8.508	8.347	8.906	9.279	8.806	9.312	9.551	9.693	10.27	10.35	10.75	11.24	10.29	9.828	10.12	9.751	9.244	8.897
365.0	1001	1706	2322	2494	2223	1820	1615	1613	1656	1745	1864	1938	1987	1917	1806	1555	1365	1183	1041	964.4	957.4	823.3	621.7	510.7	486.6	450.6	1207	7253	9999.9	9999.9	2738	93.69	48.72	34.61	24.69	18.70	14.45	12.92	10.63	9.634	8.676	7.966	7.416	7.029	7.265	7.527	7.939	9.496	9.915	9.497	9.553	10.75	10.54	9.790	9.267	8.411	8.581	8.482	8.490	8.292	8.553	9.016	9.043	9.047	9.493	9.451	9.323	9.754	10.08	10.27	10.65	9.445	9.696	9.889	9.562	9.128	9.256
370.0	941.6	1555	2134	2334	2194	1853	1696	1687	1694	1745	1844	1884	1907	1842	1740	1546	1402	1253	1136	1052	991.7	963.8	824.5	622.9	511.1	422.1	519.1	1851	7705	9999.9	9999.9	9999.9	192.0	52.87	34.49	24.88	18.59	15.15	12.20	10.96	9.787	8.423	7.676	7.276	7.414	7.775	7.731	9.009	9.465	9.091	9.394	10.77	10.56	9.836	9.235	8.839	8.791	9.035	9.054	8.745	8.806	8.725	8.768	8.984	9.403	9.357	9.207	9.123	9.475	9.724	9.820	9.463	9.374	9.558	9.594	9.443	9.395
375.0	891.0	1439	1964	2195	2123	1863	1695	1704	1676	1730	1783	1822	1835	1751	1670	1522	1414	1297	1211	1144	1074	1017	988.1	839.1	643.3	513.5	454.7	689.5	1934	3020	9999.9	9999.9	9999.9	238.5	48.68	34.73	25.17	18.96	14.76	12.82	11.27	8.915	7.943	7.731	8.006	7.850	7.876	8.949	9.439	8.552	8.834	10.39	10.36	10.06	9.456	9.162	9.314	9.094	8.918	8.678	8.618	8.718	8.924	9.124	9.425	9.022	9.138	9.354	8.923	9.891	9.076	9.173	9.239	9.285	9.221	8.838	8.791
380.0	844.6	1364	1871	2098	2041	1848	1672	1648	1646	1704	1750	1773	1798	1693	1623	1494	1402	1320	1257	1205	1139	1070	1027	982.0	778.6	615.1	505.1	488.3	694.9	899.0	3999	9999.9	9999.9	9999.9	159.4	44.79	32.07	23.59	17.68	14.64	12.37	9.917	8.893	8.304	8.238	8.039	7.980	9.012	9.240	8.330	8.417	10.40	10.43	10.01	8.951	8.641	9.185	8.585	9.235	8.711	8.635	8.520	9.202	9.015	9.360	9.061	8.640	9.025	8.864	9.885	9.591	8.751	9.150	8.973	8.811	9.007	8.972
385.0	810.5	1320	1808	2005	1993	1823	1668	1660	1640	1669	1715	1755	1745	1685	1588	1480	1408	1342	1291	1249	1188	1133	1061	1035	933.9	729.2	594.6	509.0	474.1	460.8	1122	5936	9999.9	9999.9	2429	100.3	42.00	29.05	21.38	16.92	14.46	10.88	9.496	8.805	9.209	8.340	8.036	9.327	8.964	8.315	8.349	9.990	10.01	9.832	9.324	9.268	8.977	8.453	9.113	8.782	8.577	8.458	8.917	8.907	8.712	8.732	8.558	8.861	8.378	9.380	9.177	8.833	9.016	8.883	8.647	8.693	9.361
390.0	803.0	1258	1693	1918	1931	1812	1705	1678	1668	1693	1733	1754	1760	1711	1605	1491	1410	1358	1327	1304	1267	1230	1166	1116	1070	946.2	768.8	641.1	541.4	455.9	530.5	1553	6049	9999.9	9999.9	9841	174.6	40.56	29.87	22.55	17.51	13.09	10.92	9.843	9.719	8.834	8.520	9.086	8.826	8.386	8.459	9.940	10.04	9.723	9.300	9.187	9.320	8.898	9.110	8.801	8.856	8.675	8.800	8.741	8.756	8.657	8.422	8.669	8.548	8.778	8.967	8.912	9.113	8.959	8.924	8.742	9.113
395.0	808.3	1226	1667	1822	1931	1832	1745	1721	1726	1763	1819	1867	1854	1806	1693	1538	1428	1380	1376	1370	1366	1352	1308	1265	1194	1134	1008	832.0	697.6	580.1	494.9	623.9	1552	2730	9999.9	9999.9	9999.9	221.2	42.34	31.63	23.92	16.64	13.27	11.08	10.66	9.715	9.061	9.807	9.454	8.548	8.649	10.38	9.924	9.831	9.619	9.467	9.806	9.544	9.343	9.059	9.336	8.688	8.761	8.942	9.187	8.805	8.841	8.777	8.841	8.815	8.797	8.817	8.809	9.076	9.151	8.928	9.235
400.0	761.7	1158	1573	1826	1898	1855	1770	1766	1792	1849	1929	2004	1997	1944	1792	1595	1464	1411	1410	1430	1446	1439	1428	1387	1321	1246	1181	1012	835.7	698.5	566.5	481.2	589.5	796.4	3320	9999.9	9999.9	9999.9	161.3	40.15	29.49	19.87	15.01	12.86	11.56	10.23	9.446	9.817	9.524	8.891	8.822	10.39	9.895	9.966	9.776	9.505	10.13	9.821	9.991	9.497	9.379	9.109	9.190	9.298	9.112	8.792	9.018	9.080	8.940	9.085	9.865	8.875	8.781	9.072	9.085	9.146	9.234
405.0	796.4	1146	1524	1773	1879	1853	1802	1806	1866	1953	2076	2156	2161	2080	1890	1657	1494	1434	1447	1466	1498	1523	1526	1502	1440	1351	1278	1181	981.3	814.0	656.3	506.7	424.7	392.3	913.8	4649	9999.9	9999.9	2273	98.89	36.39	24.00	17.76	14.14	12.71	11.15	9.423	10.20	9.518	9.077	8.617	9.858	9.833	9.990	9.682	9.723	10.03	9.794	9.821	9.544	9.732	9.187	9.493	8.855	9.537	8.832	8.923	9.475	9.201	9.567	9.751	9.312	9.334	9.356	8.888	8.769	9.244
410.0	766.7	1138	1513	1736	1841	1880	1863	1892	1938	2057	2185	2308	2313	2219	1993	1709	1515	1447	1455	1487	1538	1586	1608	1600	1549	1461	1360	1278	1148	957.1	768.3	588.9	449.0	351.6	401.6	1196	4796	9999.9	9999.9	9999.9	161.8	34.01	23.41	17.88	15.03	12.53	10.24	10.80	10.21	9.305	8.824	9.992	10.44	10.36	10.20	9.918	10.43	10.19	10.20	10.02	9.710	9.828	9.646	9.248	9.500	9.265	9.406	9.255	9.213	9.268	9.780	9.520	9.555	9.442	9.198	8.936	9.125
415.0	761.6	1110	1439	1688	1812	1862	1895	1933	1986	2098	2250	2351	2358	2258	2032	1707	1498	1419	1430	1474	1526	1583	1626	1627	1590	1514	1415	1309	1221	1077	862.9	660.5	499.3	382.0	318.3	434.3	1194	2564	9999.9	9999.9	9999.9	202.3	33.59	23.13	18.89	14.74	12.07	11.80	10.49	9.293	9.221	10.78	10.14	10.29	10.14	10.24	10.77	10.37	10.24	10.34	9.949	9.704	9.845	9.671	9.551	9.069	9.852	9.101	9.054	9.324	9.405	9.952	9.632	9.313	8.942	8.737	8.783
420.0	729.3	1051	1421	1650	1795	1835	1903	1927	1993	2105	2230	2351	2352	2223	2010	1684	1463	1377	1393	1436	1497	1562	1607	1616	1589	1526	1432	1325	1222	1122	926.6	705.5	532.4	409.8	314.0	276.1	398.1	673.1	2990	9999.9	9999.9	9999.9	140.0	30.39	22.32	18.03	13.42	12.56	10.96	9.536	9.426	10.57	10.76	10.20	10.45	10.45	10.95	10.59	10.44	10.45	10.23	9.788	10.15	9.710	9.287	8.891	9.298	8.684	9.118	9.191	9.701	9.479	9.535	9.420	8.932	8.374	8.436
425.0	687.8	1050	1369	1608	1768	1843	1917	1945	2008	2082	2208	2321	2328	2196	1974	1657	1427	1343	1355	1395	1457	1520	1575	1590	1568	1513	1424	1326	1218	1114	967.8	751.1	561.5	431.0	330.7	255.0	231.9	253.8	754.6	4031	9999.9	9999.9	2140	40.43	29.13	20.57	15.69	13.44	11.55	9.948	9.701	10.84	10.83	10.33	10.50	10.86	10.36	11.04	10.81	10.22	10.05	10.11	10.08	9.888	9.154	8.730	9.024	8.657	8.904	8.947	9.126	9.198	9.132	9.195	9.131	8.616	8.525
430.0	767.1	1013	1353	1569	1725	1835	1942	1982	2004	2067	2197	2288	2274	2165	1929	1610	1390	1308	1310	1352	1404	1459	1521	1541	1523	1475	1394	1311	1209	1094	964.7	799.8	606.8	462.0	356.2	270.9	210.3	171.9	255.2	979.5	4533	9999.9	9999.9	8525	139.7	29.36	20.28	17.21	13.17	10.75	10.44	11.59	11.39	10.75	10.76	10.55	11.43	11.48	10.87	10.67	10.11	9.941	10.13	9.748	9.363	9.041	9.083	8.738	8.822	8.691	9.006	8.924	8.907	8.771	8.627	8.304	8.149
435.0	1067	994.9	1298	1552	1720	1853	1967	2034	2023	2046	2154	2243	2213	2098	1876	1560	1348	1266	1264	1296	1336	1397	1446	1476	1466	1425	1348	1277	1186	1074	940.1	801.0	655.4	497.7	381.0	294.7	222.1	169.7	154.7	295.2	1077	2483	9999.9	9999.9	9999.9	185.1	30.00	22.39	16.60	12.72	11.29	12.53	11.84	11.30	10.93	11.37	11.97	11.44	11.56	11.01	10.49	10.25	10.40	9.226	9.647	9.000	8.775	8.757	8.675	8.531	8.844	8.631	8.570	8.496	8.230	7.791	7.457
440.0	1400	1061	1232	1513	1687	1848	1983	2048	2022	2017	2097	2160	2136	2032	1799	1515	1309	1222	1220	1243	1279	1330	1377	1415	1401	1372	1305	1234	1153	1057	922.7	782.4	664.5	531.1	400.4	310.5	236.2	178.0	141.1	149.8	308.2	617.4	2970	9999.9	9999.9	9999.9	120.0	29.35	19.69	14.85	12.84	13.24	12.19	11.75	11.54	11.64	12.12	12.09	11.68	10.92	11.03	10.47	9.974	8.842	9.427	8.713	8.539	8.249	8.829	8.246	8.730	8.258	8.466	8.207	8.003	7.834	7.219
445.0	1612	1447	1215	1477	1662	1842	1979	2038	1976	1941	2024	2082	2038	1926	1715	1448	1259	1174	1167	1176	1205	1246	1306	1338	1328	1299	1241	1183	1111	1021	899.4	761.6	644.4	550.3	421.9	321.0	248.5	189.4	143.9	121.2	138.7	197.2	725.6	4114	9999.9	9999.9	1770	71.98	24.53	17.24	14.84	13.72	13.06	12.31	12.12	11.77	12.41	12.07	11.85	11.10	10.74	10.34	10.13	8.736	9.007	8.679	8.620	8.164	8.232	8.454	8.165	8.026	8.030	7.892	7.587	7.556	7.245
450.0	1212	2726	1566	1407	1614	1809	1929	1960	1905	1837	1881	1909	1873	1770	1574	1337	1170	1093	1083	1086	1098	1135	1183	1212	1206	1185	1136	1087	1031	957.1	851.8	725.6	612.4	525.7	439.2	336.6	259.4	198.9	154.4	122.0	106.2	105.2	214.3	977.9	4627	9999.9	9999.9	8163	113.2	24.26	18.30	16.87	15.20	13.28	12.67	12.25	12.59	12.33	12.20	11.02	10.60	10.20	9.816	9.153	8.705	8.242	8.114	7.880	7.837	7.827	7.823	7.823	7.535	7.730	7.215	7.027	7.200
455.0	703.8	2996	3199	1397	1520	1704	1846	1876	1790	1691	1686	1734	1686	1595	1417	1211	1062	999.5	983.0	982.1	986.4	1013	1051	1077	1077	1061	1022	988.1	940.9	876.3	790.9	677.9	577.4	490.6	421.8	355.5	269.1	205.8	163.6	127.4	102.9	86.73	100.4	264.3	1078	2511	9999.9	9999.9	9999.9	138.5	25.37	20.21	17.64	14.68	13.30	12.89	12.47	11.97	11.83	11.56	10.09	9.669	9.379	8.517	8.501	7.663	7.786	7.758	7.498	7.380	7.060	7.487	6.913	7.265	6.854	6.304	6.500
460.0	544.8	2126	5274	1817	1448	1620	1763	1786	1700	1576	1577	1604	1553	1463	1311	1111	992.6	925.1	905.5	899.2	905.2	924.2	950.3	977.7	976.2	958.4	928.1	902.2	868.0	810.4	737.7	638.9	548.9	462.2	396.3	347.2	278.3	209.7	167.5	132.0	105.1	84.56	75.93	105.4	284.8	608.0	2823	9999.9	9999.9	8241	102.6	26.58	20.19	16.01	14.16	13.38	12.89	12.44	11.69	11.27	10.08	9.730	9.266	8.460	7.957	7.744	7.518	7.574	7.206	6.886	6.810	6.636	6.700	6.785	6.776	6.191	6.176
465.0	507.7	1215	5851	3402	1391	1525	1666	1682	1600	1481	1469	1475	1432	1335	1201	1023	910.2	857.8	835.9	831.9	825.3	840.6	863.4	885.1	886.9	876.1	850.6	829.4	797.3	753.7	683.2	602.0	515.5	439.4	374.2	326.4	281.0	215.8	169.0	136.0	108.0	87.57	71.66	71.65	108.1	177.2	677.5	3813	9999.9	9999.9	1448	72.32	25.83	18.94	15.96	14.36	13.59	12.80	11.84	11.29	10.11	9.452	8.797	8.351	7.651	7.184	7.281	6.866	7.082	6.898	6.499	6.551	6.478	6.417	6.176	5.882	6.115
470.0	467.6	782.9	3560	6836	2176	1393	1514	1528	1442	1326	1297	1300	1260	1176	1057	908.6	804.7	760.9	741.3	731.1	721.0	729.2	754.2	770.3	772.7	761.2	741.2	724.9	701.9	665.4	610.9	546.5	470.1	405.6	347.0	297.1	260.8	218.9	172.3	136.0	108.8	88.18	72.47	63.30	66.48	77.95	187.7	897.4	4044	9999.9	9999.9	7571	116.9	25.50	18.84	16.07	14.94	13.29	12.10	10.94	9.881	9.442	8.451	7.914	7.479	6.841	7.083	6.420	6.368	6.249	6.225	6.028	5.978	5.970	5.579	5.405	5.555
475.0	406.5	613.2	1475	6935	5225	1327	1348	1359	1289	1173	1145	1136	1088	1015	909.9	791.6	704.1	665.4	649.8	628.2	621.5	627.0	642.8	660.6	660.0	652.0	636.0	619.8	607.1	578.9	540.8	482.9	419.1	366.5	317.3	268.7	233.0	204.5	174.8	136.6	107.6	86.40	72.35	61.62	55.68	52.90	74.94	231.5	931.8	2388	9870	9999.9	9999.9	158.5	23.67	18.07	15.64	13.22	12.08	10.22	9.026	8.992	7.881	7.135	6.912	6.397	6.041	5.744	5.660	5.534	5.558	5.562	5.305	5.160	4.978	4.813	4.851
480.0	386.3	559.7	857.8	4261	8946	1981	1246	1261	1167	1077	1035	1021	986.6	908.4	816.6	718.2	641.3	598.1	584.4	570.8	556.6	559.5	574.1	585.6	585.2	583.2	566.9	561.6	544.3	525.0	488.0	441.6	387.5	340.1	295.8	254.3	218.8	187.8	169.6	138.5	109.1	85.82	72.78	60.40	53.89	47.03	48.65	82.58	234.9	560.9	2554	9999.9	9999.9	1870	33.85	21.71	17.72	14.74	12.88	10.69	9.361	8.570	7.646	7.250	6.564	6.010	5.879	5.592	5.561	5.239	5.118	4.984	4.972	4.711	4.520	4.464	4.545
485.0	360.0	530.7	677.3	1987	9732	4055	1174	1170	1076	990.3	949.4	942.1	899.2	837.0	745.8	649.1	584.6	544.7	534.9	523.4	507.2	508.3	514.6	532.5	530.2	525.5	515.6	509.6	494.6	478.2	450.0	408.0	363.5	318.8	277.7	239.0	205.7	177.4	160.0	139.6	110.2	85.99	72.19	62.16	53.14	46.39	43.28	47.85	78.39	150.2	599.4	3165	9999.9	9999.9	1633	32.16	21.34	16.68	13.76	11.16	9.942	8.761	7.595	6.956	7.017	6.079	5.793	5.623	5.291	4.838	5.173	4.856	4.717	4.586	4.460	4.365	4.077
490.0	328.7	502.5	614.9	998.6	5610	8840	2022	1053	974.2	883.3	849.0	835.4	798.1	737.4	662.7	579.4	521.9	491.8	474.5	462.2	445.9	446.2	453.3	466.0	465.4	462.4	455.1	446.5	439.8	425.0	399.7	365.4	327.8	290.6	253.4	221.3	192.6	165.5	145.6	131.5	113.9	89.75	72.60	62.49	54.59	47.15	41.60	39.77	43.30	56.56	156.5	734.8	3504	9999.9	9999.9	7132	127.1	22.80	16.08	12.62	10.76	9.257	8.020	7.096	6.534	6.086	5.799	5.511	5.115	4.879	4.676	4.441	4.398	4.273	4.170	3.996	3.954
495.0	289.5	442.9	566.0	699.2	1987	9245	5960	998.3	868.5	784.8	761.0	747.2	694.7	641.3	574.2	507.7	458.0	427.8	417.8	399.3	386.9	386.2	393.5	404.9	402.5	400.5	393.5	388.7	381.9	370.9	350.4	325.1	290.1	256.8	229.6	201.6	176.8	152.5	134.8	117.9	107.8	94.76	74.32	62.39	54.97	47.08	42.69	38.24	35.09	34.98	56.25	185.1	804.1	2343	9999.9	9999.9	9999.9	175.2	22.28	15.07	11.96	9.963	8.657	7.152	6.567	5.996	5.698	5.307	4.754	4.653	4.520	4.321	4.136	3.958	4.164	3.832	3.741
500.0	262.2	376.5	538.3	598.7	966.8	5691	9999.9	1506	786.2	714.8	694.4	666.9	623.1	575.7	512.7	455.8	411.3	383.9	373.9	361.2	342.6	342.6	348.7	356.6	356.5	355.9	350.6	347.6	343.6	332.2	317.0	293.1	264.9	237.8	208.4	186.4	164.9	143.2	124.1	108.6	98.89	91.55	76.41	61.61	54.70	46.81	42.47	37.32	33.03	30.48	32.91	61.45	199.4	545.7	2582	9999.9	9999.9	9022	35.83	19.19	13.35	10.61	9.093	7.371	6.510	6.036	5.233	5.051	4.327	4.467	4.434	4.113	3.954	3.733	3.836	3.425	3.329
505.0	233.6	327.7	508.7	569.7	674.5	2482	9999.9	3095	727.6	647.1	623.0	601.2	561.8	518.2	462.1	411.0	371.6	347.0	334.3	319.3	306.4	306.6	310.1	318.0	319.7	315.3	313.5	307.6	308.0	300.9	287.1	263.9	241.9	214.7	190.1	169.3	151.1	133.6	117.4	101.2	91.23	84.55	77.97	63.32	53.32	46.34	41.79	37.10	32.60	28.55	27.08	33.20	63.43	141.1	601.8	3037	9999.9	9999.9	1843	31.60	15.70	11.45	9.178	7.823	6.496	5.767	5.342	5.108	4.474	4.135	4.163	3.912	3.759	3.374	3.427	3.177	3.134
510.0	199.9	275.0	422.2	524.4	556.8	1018	6599	9275	1394	566.6	545.3	524.0	489.9	448.9	401.4	349.8	317.9	302.2	289.1	276.7	264.3	263.6	266.3	272.2	272.6	268.6	266.1	262.8	261.5	259.4	246.8	228.3	206.8	188.0	167.7	149.5	134.7	120.0	105.9	91.68	81.45	74.71	70.60	64.08	53.59	45.92	39.68	36.17	31.74	27.67	25.58	25.66	31.64	48.64	152.4	701.0	3157	9999.9	9999.9	7244	126.8	16.67	10.67	8.636	6.998	6.250	5.210	4.824	4.484	4.121	3.851	3.592	3.444	3.108	3.321	2.947	2.853
515.0	189.0	239.2	329.2	459.5	497.5	603.4	2151	9999.9	5296	536.4	470.5	452.9	415.8	384.0	342.7	302.1	270.5	256.9	245.5	234.0	224.2	221.3	224.7	227.4	229.9	227.0	222.3	221.5	221.3	216.4	209.8	194.3	177.2	161.2	144.9	130.5	117.7	105.6	94.01	82.56	73.43	65.66	59.84	59.17	54.46	45.00	38.45	34.75	30.77	27.13	24.21	23.15	23.36	26.53	49.61	172.7	721.4	2303	7821	9999.9	9999.9	179.5	16.18	10.29	8.025	6.554	5.992	4.917	4.482	3.913	3.667	3.547	3.302	2.829	3.108	2.797	2.802
520.0	152.1	220.9	287.8	408.0	463.8	468.8	846.1	6755	9999.9	993.0	419.0	404.5	367.1	336.8	296.9	270.6	237.3	224.3	217.0	204.0	197.4	195.0	196.0	199.1	199.8	199.7	195.5	193.4	192.6	190.9	183.7	171.5	156.4	142.3	127.3	116.5	104.5	94.86	83.82	76.22	67.17	60.08	54.84	52.90	52.45	46.14	37.24	33.04	30.07	26.29	22.94	22.11	20.53	20.55	25.72	53.19	176.6	531.7	1929	9999.9	9999.9	8292	33.87	13.26	9.137	6.944	6.121	4.701	4.566	3.682	3.528	3.367	2.891	2.882	2.780	2.514	2.521
525.0	131.2	195.4	256.6	334.6	451.9	406.9	505.8	2777	9999.9	2335	389.3	360.6	329.7	298.3	267.4	235.5	212.0	196.2	190.8	183.1	174.7	173.6	174.0	176.9	177.6	176.9	173.0	169.0	171.0	170.6	164.6	152.7	139.0	127.1	116.2	106.3	95.06	86.01	77.45	69.92	61.74	55.11	49.88	47.06	47.72	44.81	37.94	32.13	28.09	24.80	22.57	20.95	19.91	17.90	19.12	24.96	53.47	132.9	448.9	2635	9999.9	9999.9	1924	28.82	11.78	7.609	6.415	4.842	4.394	3.827	3.425	3.365	2.686	2.841	2.690	2.485	2.221
530.0	116.0	164.5	219.5	267.0	378.0	382.5	380.8	933.8	7722	9999.9	1009	312.2	288.5	257.5	229.8	201.3	180.9	173.0	162.4	155.1	149.0	146.5	147.5	150.5	150.3	149.9	146.6	144.0	144.7	144.0	139.7	130.1	119.3	108.7	99.67	91.03	82.95	74.88	68.45	61.55	54.62	49.10	45.06	41.68	40.60	40.96	37.88	30.92	26.20	23.50	21.01	19.62	18.28	17.04	16.82	17.17	23.69	41.56	112.7	602.8	2658	9091	9999.9	7695	135.0	13.21	7.777	5.896	4.889	4.019	3.687	3.024	2.737	2.527	2.504	2.440	2.035
535.0	104.8	149.2	187.2	223.4	279.4	372.7	318.0	440.2	2328	9999.9	5380	305.1	244.3	216.9	197.2	166.7	152.8	147.1	137.1	131.0	124.3	122.0	123.3	124.4	124.3	123.4	123.6	120.6	120.6	120.0	116.0	109.4	99.57	93.19	83.68	76.89	71.32	63.85	58.05	54.24	47.71	43.25	39.96	36.77	34.33	33.34	34.66	30.83	24.85	21.02	18.89	18.38	17.23	15.71	15.47	14.61	15.91	19.70	35.22	144.9	603.7	2055	4797	9999.9	9999.9	201.6	12.53	6.957	5.196	4.417	3.891	3.111	2.857	2.496	2.276	2.383	1.816
540.0	105.9	137.0	165.1	200.3	230.9	323.2	299.6	303.9	732.9	7646	9999.9	684.6	217.4	192.8	170.3	149.3	134.6	126.1	120.4	113.4	106.8	105.4	105.4	107.2	106.6	106.9	105.5	102.9	104.8	101.0	100.7	94.31	87.70	79.33	73.77	67.94	60.46	56.32	51.38	48.06	43.43	38.80	36.47	33.24	31.72	29.32	30.06	30.12	24.28	20.10	18.00	16.70	15.73	14.80	14.30	13.75	13.20	13.41	17.13	41.34	144.5	468.5	1131	6057	9999.9	7931	34.25	10.08	6.420	4.554	4.157	3.374	2.904	2.351	2.409	2.283	1.969
545.0	96.11	121.9	138.8	170.8	199.4	267.2	291.1	245.8	342.9	2959	9999.9	1792	202.1	171.8	149.5	129.1	117.1	110.2	103.7	99.79	94.48	91.86	91.96	93.05	92.78	91.26	91.83	90.14	89.18	89.28	88.04	81.30	77.33	69.31	62.48	59.86	53.84	50.12	44.94	41.97	38.79	34.58	32.75	29.90	28.11	27.10	25.49	26.30	24.16	19.19	16.63	15.17	14.26	13.24	12.90	13.01	12.20	11.38	12.16	17.57	40.45	113.5	263.7	1479	7696	9999.9	2025	29.53	8.540	5.585	5.036	3.365	2.987	2.422	2.345	2.062	1.813
550.0	80.30	110.7	124.7	149.5	164.3	195.0	263.6	217.1	221.8	844.4	8365	9999.9	602.6	146.1	124.3	109.5	98.69	91.32	86.06	81.77	78.13	75.85	75.82	76.13	76.29	75.56	74.63	73.82	73.78	74.06	70.66	66.33	62.07	57.01	52.61	49.53	44.81	42.07	38.23	35.48	32.77	29.49	27.43	25.81	24.28	23.19	21.48	21.08	20.87	18.62	15.57	13.49	12.40	11.68	11.32	10.97	10.64	10.47	9.938	10.59	15.89	32.31	66.59	338.6	1864	6035	9999.9	6631	143.7	11.68	5.750	4.073	3.219	2.689	2.485	1.987	1.837
555.0	76.93	96.09	113.0	115.6	123.9	146.3	206.0	209.0	168.4	306.9	2375	9999.9	4158	142.6	103.3	91.88	81.91	74.59	68.49	65.86	62.26	60.82	60.70	61.71	61.72	60.24	59.89	58.55	58.91	58.71	55.79	52.69	49.21	46.32	43.34	39.27	36.06	34.35	32.03	29.57	26.46	24.26	22.89	21.60	20.48	19.07	17.92	16.64	16.38	16.08	14.63	11.69	10.81	10.25	9.986	9.541	8.971	9.289	8.995	8.468	9.522	13.21	21.08	81.76	422.6	1356	3313	9999.9	8482	225.9	10.99	5.385	3.615	2.851	2.373	1.986	1.706
560.0	73.95	95.27	102.7	104.0	112.7	123.2	154.6	210.0	145.4	167.6	654.9	8747	9999.9	375.1	92.38	77.98	70.28	62.58	58.91	55.92	52.89	51.71	52.47	51.17	50.94	50.81	50.56	50.02	49.60	49.04	47.04	44.53	41.66	38.24	36.05	33.24	30.77	29.15	26.12	25.01	23.07	20.77	20.10	18.89	17.67	16.55	15.51	14.52	13.55	14.06	13.83	11.53	9.936	8.763	8.803	8.583	8.104	8.191	8.446	7.757	7.369	8.022	10.00	23.80	100.4	309.4	760.7	3861	9999.9	6089	35.79	7.596	4.170	3.202	2.499	2.188	1.627
565.0	75.55	83.37	99.34	94.25	99.12	102.3	125.0	188.8	143.7	128.6	244.0	3456	9999.9	1216	85.33	69.24	60.09	54.29	51.00	48.66	45.79	44.70	44.11	44.61	43.76	42.41	42.72	41.93	42.14	42.07	40.07	37.53	34.36	32.59	30.90	28.43	26.70	24.47	22.83	21.44	19.62	17.71	16.97	16.32	15.42	14.36	13.59	12.51	11.33	11.45	11.86	11.02	9.586	8.145	7.586	7.837	7.422	7.411	7.400	7.118	6.789	6.337	6.843	10.47	27.60	74.97	177.6	902.6	4588	9999.9	2086	29.73	5.919	3.868	2.710	2.145	1.835
570.0	71.03	82.11	87.83	89.59	82.44	85.17	95.75	139.7	152.5	110.4	139.5	921.5	8739	8977	362.7	61.70	50.69	46.30	41.32	40.24	37.94	37.31	36.08	35.29	35.17	34.12	34.39	33.37	34.02	33.64	32.30	30.95	28.17	27.61	24.52	23.00	21.47	20.30	18.59	17.67	16.28	14.48	14.53	13.58	13.15	12.11	11.43	10.51	9.864	9.520	9.493	9.631	8.947	7.489	6.861	6.656	6.550	6.553	6.386	6.385	6.378	5.825	5.712	6.606	10.71	21.85	45.47	207.8	1069	3932	7206	4484	145.7	9.760	3.495	2.447	2.016
575.0	58.76	74.11	82.07	87.21	72.26	72.34	75.31	97.21	156.8	112.7	106.0	280.4	2463	9999.9	3137	64.97	44.08	38.33	34.89	32.99	31.20	29.60	28.91	28.38	27.64	27.58	27.69	26.69	28.14	27.05	26.41	24.39	22.87	21.26	19.36	18.49	17.81	16.58	14.94	14.53	12.96	12.20	11.91	10.86	10.63	10.34	9.502	8.747	8.108	7.665	7.499	7.494	7.989	7.013	6.423	5.740	6.005	5.854	5.415	5.223	5.502	5.544	5.452	5.459	6.341	9.149	14.91	50.97	243.2	881.7	2003	5890	5586	231.4	8.478	3.128	2.136
580.0	58.22	75.37	87.34	72.97	67.52	65.07	65.48	76.62	133.5	125.3	94.25	134.0	638.8	8127	8240	120.9	40.37	35.11	29.72	29.28	25.93	26.67	24.88	24.17	23.77	23.30	22.77	22.74	23.32	21.95	22.14	20.46	19.42	18.19	16.50	15.61	14.78	14.30	13.01	12.32	10.97	10.76	9.954	9.550	9.314	8.528	8.231	7.633	7.184	6.820	6.560	6.279	7.009	6.398	6.140	5.456	5.200	5.035	4.814	4.882	4.548	4.871	5.063	4.669	4.748	6.153	7.411	15.82	58.72	201.0	454.8	1936	6387	4317	36.35	5.245	2.622
585.0	58.02	75.66	81.70	71.24	65.42	59.64	61.61	66.87	101.6	140.6	94.67	100.0	208.6	3143	9999.9	811.3	40.33	31.67	27.15	26.59	23.18	23.08	21.24	21.26	20.29	19.67	19.80	19.93	19.56	18.97	18.72	17.48	16.84	15.81	14.44	13.48	12.46	11.97	11.12	10.40	9.624	9.544	8.671	8.379	8.338	7.561	7.549	7.050	6.198	6.223	5.557	5.342	5.751	6.065	5.616	5.139	4.748	4.532	4.221	4.296	4.147	4.210	4.758	4.273	4.167	4.970	5.456	7.362	16.86	48.47	106.1	444.8	2412	6372	2032	30.07	3.651
590.0	59.60	76.49	77.78	67.16	57.27	52.25	53.83	58.74	76.59	130.7	104.1	86.87	105.6	809.9	8030	7440	190.5	30.15	24.33	22.36	20.26	19.01	18.39	17.91	17.34	16.45	16.61	16.68	15.87	15.90	15.37	14.31	13.51	13.28	11.90	11.14	10.53	10.35	9.387	8.744	8.048	7.633	7.435	7.042	6.790	6.484	6.228	5.976	5.402	5.024	4.696	4.508	4.647	4.821	5.045	4.662	4.414	3.932	3.623	3.657	3.750	3.631	3.802	3.978	3.939	4.029	4.207	4.641	6.855	13.75	26.77	102.8	552.5	2219	4180	3016	149.9
595.0	58.74	73.19	73.66	63.65	51.95	47.11	50.89	54.11	63.58	96.83	126.0	88.05	79.95	229.3	2290	9999.9	814.8	34.13	21.81	19.86	17.83	16.62	14.94	15.30	14.23	13.70	13.72	13.78	13.00	13.26	12.46	11.83	11.30	10.71	9.965	9.155	8.379	8.372	7.744	7.617	6.916	6.143	6.119	5.960	5.929	5.428	5.146	5.154	4.737	4.025	3.954	3.706	3.673	3.551	4.684	4.466	4.063	3.623	3.121	3.267	3.145	2.965	3.174	3.249	3.435	3.600	3.277	3.671	3.938	5.427	8.172	25.17	125.2	496.9	1092	3290	3490
600.0	52.86	65.62	74.35	62.36	46.26	42.06	46.43	51.47	61.03	82.00	127.3	93.03	75.60	101.3	577.8	8515	5269	76.84	20.84	18.13	15.72	14.39	13.22	13.43	12.56	11.85	11.90	12.04	11.37	11.29	11.17	10.25	10.04	8.706	8.202	7.864	7.431	7.127	6.477	6.343	5.975	5.261	5.594	5.212	5.121	4.861	4.720	4.715	4.165	3.839	3.681	3.357	3.340	3.162	3.528	3.879	3.944	3.342	2.836	2.979	2.806	2.756	2.824	2.655	2.937	3.173	3.161	3.116	3.030	3.168	3.663	7.473	29.69	112.8	247.2	1028	3679
605.0	47.15	68.61	67.45	62.21	45.80	40.70	46.27	48.66	61.16	76.91	124.5	109.9	82.38	72.86	173.3	3469	9132	522.8	22.12	17.70	15.12	12.98	12.04	11.53	11.71	10.49	10.20	10.49	9.916	10.45	9.463	8.948	8.491	7.510	7.312	7.088	6.601	6.145	6.122	5.236	5.104	5.161	4.720	4.477	4.589	4.359	4.168	4.089	3.641	3.419	3.356	3.160	3.116	2.753	3.185	3.386	3.511	3.162	2.852	2.701	2.499	2.520	2.779	2.302	2.378	2.803	3.078	2.674	2.401	2.554	2.651	3.570	8.145	26.86	57.39	235.2	1329
610.0	50.41	68.06	66.46	59.80	44.96	42.53	46.55	55.02	68.21	80.76	113.9	136.5	97.54	77.79	90.37	894.9	6791	4254	57.82	17.35	14.33	12.20	10.97	10.12	10.16	9.261	9.028	9.218	8.365	8.919	8.542	7.756	7.192	6.646	6.284	6.085	5.617	5.225	5.313	4.616	4.381	4.352	4.104	4.098	3.858	3.639	3.614	3.540	3.057	2.916	2.845	2.664	2.563	2.383	2.603	2.826	2.948	3.036	2.769	2.427	2.234	2.100	2.422	2.092	2.245	2.387	2.497	2.654	2.278	2.117	2.042	2.265	3.241	7.528	14.40	54.16	303.1
615.0	44.70	63.84	68.77	55.04	43.48	41.27	47.70	57.72	67.60	83.87	108.2	140.7	112.4	79.62	76.10	247.3	2030	8471	607.7	19.55	13.95	11.30	9.957	9.344	8.994	8.234	8.039	7.792	7.296	7.550	7.405	6.707	6.236	5.061	5.455	5.154	4.755	4.549	4.347	4.202	3.727	3.425	3.612	3.645	3.310	3.168	3.267	3.053	2.910	2.508	2.510	2.449	2.223	2.033	2.175	2.279	2.367	2.673	2.574	2.230	2.094	1.705	2.237	1.996	2.013	1.881	2.171	2.342	2.175	1.918	1.795	1.663	1.870	2.939	4.459	13.33	68.84
620.0	45.53	67.77	62.26	55.19	40.09	41.62	46.76	53.91	66.88	80.66	94.22	128.4	126.0	80.69	70.26	100.9	518.6	6708	3834	47.46	14.23	11.23	9.540	8.845	7.963	7.329	7.314	7.140	6.625	6.586	6.451	5.992	5.439	4.598	4.997	4.281	4.187	3.755	3.868	3.467	3.440	3.247	3.371	3.273	3.010	2.951	3.011	2.760	2.641	2.301	2.214	2.133	2.153	1.888	2.041	1.920	2.040	2.303	2.410	2.218	2.017	1.677	1.986	1.582	1.954	1.743	1.974	1.992	2.122	1.975	1.619	1.687	1.537	1.787	2.220	3.992	16.47
625.0	43.60	58.99	66.82	53.97	40.95	42.28	45.13	54.36	63.51	79.28	94.85	113.5	129.3	83.38	68.57	66.68	149.1	2924	7126	338.4	15.57	11.24	9.159	7.802	7.121	6.777	6.771	6.356	6.329	5.999	5.623	5.141	4.917	4.330	4.413	3.969	3.779	3.558	3.759	3.351	3.049	2.841	2.965	2.883	2.736	2.498	2.761	2.503	2.237	2.215	1.926	1.998	1.945	1.828	2.036	1.821	1.869	1.942	2.193	2.195	1.892	1.641	1.799	1.673	1.717	1.725	1.780	1.856	1.758	1.958	1.506	1.629	1.339	1.338	1.561	1.839	4.529
630.0	43.02	51.00	62.09	51.18	38.88	40.29	45.87	52.19	62.02	75.98	92.32	101.5	122.8	95.88	70.05	58.72	62.66	752.4	5846	3258	41.41	11.74	9.049	8.064	6.672	6.031	5.765	5.759	5.281	5.502	5.063	4.695	4.382	4.342	3.851	3.567	3.548	3.294	3.143	3.021	2.725	2.628	2.536	2.454	2.550	2.301	2.420	2.344	2.071	2.039	1.819	1.722	1.624	1.736	1.757	1.691	1.708	1.662	1.728	1.879	1.895	1.613	1.673	1.615	1.562	1.514	1.624	1.754	1.494	1.687	1.470	1.408	1.169	1.229	1.209	1.194	1.882
635.0	43.54	50.36	60.22	46.71	38.15	38.35	45.77	50.36	64.06	74.47	89.08	97.70	110.5	106.6	75.07	58.55	43.33	188.9	1858	7200	477.0	13.35	9.256	7.498	6.725	5.987	5.148	5.241	5.104	4.861	4.338	4.180	3.888	3.735	3.578	3.472	3.102	2.949	2.870	2.838	2.370	2.340	2.395	2.163	2.353	2.346	2.178	2.288	1.873	1.843	1.783	1.575	1.556	1.439	1.706	1.573	1.567	1.573	1.390	1.542	1.535	1.521	1.537	1.307	1.480	1.468	1.456	1.628	1.327	1.287	1.293	1.402	1.174	0.985	1.119	1.083	1.129
640.0	47.06	54.15	54.75	52.95	37.85	36.79	43.62	50.27	63.13	72.69	90.68	97.67	103.1	105.8	81.16	59.44	39.32	62.90	470.0	6209	2889	27.94	9.733	8.058	6.258	5.794	5.429	5.178	4.501	4.485	4.367	3.709	3.499	3.759	3.538	3.154	2.927	2.903	2.648	2.574	2.407	2.176	2.080	2.133	2.239	1.970	1.935	2.024	1.906	1.714	1.532	1.481	1.480	1.453	1.531	1.435	1.309	1.405	1.400	1.333	1.569	1.523	1.399	1.216	1.228	1.208	1.458	1.607	1.382	1.192	1.259	1.273	1.248	1.015	1.045	0.997	0.846
645.0	44.68	60.51	56.26	49.50	36.62	32.69	42.01	50.38	60.86	74.46	86.29	97.87	96.71	99.44	92.22	60.30	39.07	34.68	121.0	2983	5879	71.42	10.41	8.141	6.762	5.657	5.190	4.880	4.275	4.352	4.017	3.616	3.429	3.695	3.175	3.170	2.778	2.599	2.402	2.540	2.208	2.017	1.988	1.874	2.059	2.066	1.977	1.962	1.756	1.614	1.554	1.473	1.536	1.323	1.415	1.490	1.344	1.395	1.283	1.247	1.385	1.390	1.418	1.260	1.272	1.097	1.196	1.482	1.338	0.957	1.149	1.145	1.232	0.984	0.998	0.767	0.846
650.0	48.16	62.22	67.17	54.92	39.15	33.50	41.90	48.24	56.68	68.75	83.35	93.64	91.64	92.66	93.23	61.26	37.69	29.14	40.91	889.6	6635	532.4	13.49	8.160	6.923	5.385	5.223	4.776	4.155	4.056	4.188	3.746	3.455	3.493	3.059	2.859	2.709	2.464	2.246	2.431	2.012	1.933	2.014	1.928	1.945	1.954	1.703	1.997	1.700	1.565	1.524	1.496	1.463	1.378	1.392	1.325	1.295	1.363	1.191	1.254	1.171	1.304	1.280	1.230	1.218	1.179	1.262	1.362	1.266	1.031	1.050	1.084	1.079	1.025	0.913	0.875	0.802
