Sample:	'1
File name:	Default_20250723_162815.FD3
Run date:	'16:21:55, 07/23/2025
Operator:	Administrator
Comment:	'

Instrument
Model:	F-2700 FL Spectrophotometer
Serial number:	3064-004
ROM Version:	4J14000 07

Instrument parameters
Measurement type:	3-D scan
Data mode:	Fluorescence
EX  Start WL:	220.0 nm
EX  End WL:	600.0 nm
EX Sampling interval:	5.0 nm
EM  Start WL:	230.0 nm
EM  End WL:	650.0 nm
EM Sampling interval:	5.0 nm
Scan speed:	12000 nm/min
EX Slit:	5.0 nm
EM Slit:	5.0 nm
PMT Voltage:	700 V
Response:	Auto 
Corrected spectra:	Off
Contour interval:	50.000

Peak integration
Integration method:	Rectangular
Sensitivity:	1
Threshold:	1.000

Peaks
No.	ApexEX/EM(nm)	Height(Data)
1	230.0/340.0	925.3
2	230.0/585.0	59.98
3	230.0/620.0	34.89
4	235.0/345.0	923.9
5	235.0/510.0	222.5
6	235.0/625.0	34.50
7	240.0/520.0	224.4
8	245.0/265.0	346.9
9	245.0/530.0	208.6
10	250.0/545.0	200.7
11	255.0/280.0	692.3
12	255.0/555.0	192.0
13	260.0/285.0	917.1
14	260.0/570.0	174.7
15	265.0/290.0	 1028
16	265.0/580.0	178.6
17	270.0/295.0	 1426
18	270.0/380.0	 1153
19	270.0/595.0	155.2
20	275.0/305.0	 1708
21	275.0/375.0	 1169
22	275.0/605.0	150.0
23	280.0/310.0	 1562
24	280.0/340.0	 1237
25	280.0/615.0	123.7
26	285.0/315.0	 1465
27	285.0/630.0	93.65
28	290.0/320.0	 1316
29	290.0/645.0	69.96
30	305.0/340.0	861.4
31	315.0/355.0	634.0
32	320.0/360.0	688.8
33	325.0/365.0	669.9
34	330.0/375.0	624.9
35	335.0/380.0	671.8
36	340.0/385.0	662.9
37	350.0/400.0	595.6
38	355.0/405.0	575.2
39	370.0/425.0	451.7
40	415.0/485.0	123.9
41	430.0/505.0	78.69
42	445.0/525.0	47.90
43	455.0/540.0	33.61
44	460.0/340.0	4.059
45	505.0/275.0	3.482
46	510.0/280.0	4.068
47	520.0/285.0	4.522
48	530.0/290.0	4.843
49	540.0/295.0	6.713
50	545.0/300.0	7.902
51	550.0/305.0	8.276
52	560.0/310.0	7.340
53	570.0/315.0	7.292
54	580.0/320.0	6.672
55	590.0/330.0	5.952

Data points
	220.0	225.0	230.0	235.0	240.0	245.0	250.0	255.0	260.0	265.0	270.0	275.0	280.0	285.0	290.0	295.0	300.0	305.0	310.0	315.0	320.0	325.0	330.0	335.0	340.0	345.0	350.0	355.0	360.0	365.0	370.0	375.0	380.0	385.0	390.0	395.0	400.0	405.0	410.0	415.0	420.0	425.0	430.0	435.0	440.0	445.0	450.0	455.0	460.0	465.0	470.0	475.0	480.0	485.0	490.0	495.0	500.0	505.0	510.0	515.0	520.0	525.0	530.0	535.0	540.0	545.0	550.0	555.0	560.0	565.0	570.0	575.0	580.0	585.0	590.0	595.0	600.0
230.0	38.51	749.5	 2814	 1734	115.9	13.17	12.26	10.53	9.343	6.431	7.103	6.850	6.030	5.560	4.452	4.159	3.338	3.120	2.702	2.299	2.261	2.123	2.140	1.921	1.752	1.653	1.596	1.481	1.389	1.398	1.442	1.280	1.145	1.150	1.144	1.172	1.001	1.021	0.902	0.942	0.789	0.930	0.995	0.913	0.761	0.713	1.670	6.117	10.88	8.586	3.748	1.087	0.711	0.652	0.588	0.581	0.584	0.601	0.558	0.629	0.475	0.559	0.528	0.542	0.547	0.524	0.442	0.507	0.493	0.461	0.484	0.481	0.488	0.539	0.563	0.447	0.428
235.0	75.22	201.5	 1187	 3214	 1091	166.0	12.62	11.65	8.934	7.337	8.088	6.601	6.069	4.475	4.858	3.653	3.661	2.980	2.610	2.228	2.157	2.061	1.741	2.105	1.838	1.650	1.651	1.830	1.202	1.511	1.638	1.087	1.265	1.131	1.109	0.871	1.236	0.977	0.934	0.877	0.981	0.991	1.037	0.914	1.066	0.911	0.996	2.079	3.956	7.413	10.72	11.13	5.358	1.544	0.627	0.789	0.630	0.738	0.453	0.494	0.501	0.558	0.435	0.440	0.484	0.658	0.499	0.570	0.445	0.412	0.471	0.497	0.423	0.492	0.523	0.508	0.484
240.0	83.22	124.3	307.9	 1755	 4082	936.0	87.72	14.02	13.17	9.339	8.346	8.530	6.879	5.358	4.838	3.738	4.700	3.295	3.368	2.637	2.546	1.855	1.750	1.807	1.607	1.707	1.365	1.566	1.359	1.327	1.461	1.063	0.962	1.135	0.972	0.876	1.135	1.103	1.123	0.866	0.769	0.830	0.858	0.936	1.017	1.097	1.200	0.980	1.598	2.339	5.323	12.19	14.81	10.44	3.642	0.941	0.634	0.685	0.468	0.485	0.528	0.522	0.441	0.479	0.453	0.489	0.565	0.563	0.486	0.374	0.467	0.457	0.488	0.455	0.576	0.493	0.657
245.0	64.14	121.7	134.3	476.0	 2748	 4484	768.6	41.22	14.77	10.24	9.642	7.473	9.110	5.860	4.713	4.130	3.504	3.203	3.631	3.006	2.341	2.054	2.172	1.835	2.391	1.726	1.604	1.440	1.501	1.243	1.489	1.287	1.310	1.117	0.802	1.086	0.971	0.740	0.802	0.984	1.002	0.889	0.734	1.033	0.825	1.136	1.251	1.191	1.016	1.037	1.640	4.109	9.855	16.55	16.07	8.379	2.472	0.688	0.588	0.595	0.551	0.432	0.550	0.616	0.534	0.457	0.470	0.597	0.483	0.456	0.420	0.498	0.481	0.546	0.442	0.483	0.648
250.0	51.02	71.36	158.7	215.0	732.8	 2606	 4511	 2601	222.3	15.81	10.00	10.35	8.707	7.552	6.148	4.376	3.970	3.134	2.917	2.946	2.464	2.316	2.165	2.199	2.010	1.846	1.563	1.526	1.432	1.396	1.649	1.223	1.201	1.226	0.984	0.919	1.009	0.927	0.958	0.868	0.956	0.874	0.765	0.970	0.758	0.806	0.999	1.140	1.341	1.140	1.130	1.442	2.851	5.341	9.635	14.00	16.59	14.13	8.382	2.625	0.828	0.569	0.601	0.630	0.655	0.505	0.525	0.616	0.514	0.574	0.447	0.601	0.499	0.547	0.554	0.762	0.605
255.0	44.94	29.02	85.84	235.4	298.8	616.9	 1883	 6162	 4017	290.2	15.33	11.49	9.872	7.134	5.616	4.784	4.295	3.618	2.719	2.922	2.723	2.529	2.078	2.140	1.510	2.010	1.714	1.607	1.452	1.667	1.394	1.633	1.277	1.078	0.925	0.996	0.975	1.035	0.957	0.981	1.001	0.893	0.958	1.094	0.974	0.833	0.919	0.939	0.942	1.040	1.511	1.664	1.480	1.733	2.709	3.709	6.144	13.48	23.76	24.19	12.08	3.499	0.900	0.439	0.556	0.486	0.529	0.607	0.601	0.613	0.436	0.555	0.531	0.299	0.467	0.573	0.514
260.0	46.17	28.76	37.41	157.6	325.3	237.1	471.3	 3022	 7956	 3376	173.1	13.50	11.30	7.720	7.059	5.909	5.186	3.991	3.162	3.275	2.529	2.339	2.199	2.321	1.703	1.793	1.570	1.985	1.556	1.846	1.400	1.401	1.519	1.114	1.134	1.292	0.899	1.102	0.985	0.961	0.873	0.875	0.841	1.278	0.926	0.830	0.902	0.947	0.750	0.810	1.099	1.904	2.254	1.529	1.119	1.615	2.070	3.934	10.40	23.04	32.98	26.34	10.01	1.492	0.502	0.511	0.599	0.480	0.574	0.427	0.449	0.556	0.498	0.486	0.406	0.501	0.515
265.0	67.32	33.73	24.43	62.74	273.9	346.9	161.3	778.3	 4581	 9226	 2616	76.12	14.41	8.185	7.151	6.779	4.856	4.774	3.289	3.551	2.997	2.380	2.151	2.226	2.052	1.978	1.813	2.014	1.676	1.747	1.537	1.462	1.502	1.044	1.027	1.179	1.028	1.064	0.900	0.958	0.696	1.003	0.855	0.989	1.016	0.827	0.869	0.786	0.749	0.713	0.802	1.315	1.863	2.348	1.862	1.226	1.279	1.391	2.980	7.322	17.05	33.13	38.47	23.90	5.627	0.811	0.473	0.459	0.649	0.515	0.666	0.523	0.449	0.510	0.642	0.485	0.618
270.0	115.7	65.83	44.80	41.76	100.2	316.2	373.7	285.6	 1192	 4544	 8698	 4944	179.9	15.76	11.09	7.530	6.003	4.909	3.744	3.432	3.227	2.654	2.521	2.554	2.217	2.149	1.994	2.007	1.789	1.571	1.652	1.609	1.241	1.169	1.135	1.026	1.111	1.132	1.002	1.104	0.818	1.048	0.939	0.911	1.161	1.065	1.107	0.890	0.791	0.851	0.712	0.867	0.948	1.478	1.983	2.253	2.328	1.631	1.452	2.337	4.597	9.922	18.65	29.31	37.03	33.53	18.92	5.145	1.050	0.622	0.567	0.563	0.563	0.621	0.512	0.566	0.662
275.0	194.0	115.1	82.21	48.47	51.02	113.6	400.5	564.6	414.7	 1144	 3111	9999.9	 7931	221.4	15.21	10.03	7.062	6.089	5.148	3.898	3.276	2.758	2.345	2.438	2.355	2.154	2.005	1.743	2.007	1.599	1.749	1.794	1.154	1.035	1.279	1.066	1.593	1.196	1.217	1.195	1.018	1.393	1.385	1.363	1.389	1.532	1.211	1.175	0.956	1.093	0.738	0.755	0.655	0.994	1.227	1.534	2.436	3.482	2.689	1.632	1.949	3.107	5.136	7.787	12.15	25.87	49.31	50.59	26.99	4.850	0.811	0.501	0.518	0.701	0.400	0.477	0.725
280.0	243.5	194.1	153.0	92.12	65.90	69.15	205.5	692.3	539.4	457.5	923.8	 4184	9999.9	 2489	130.2	12.78	7.771	7.054	5.020	4.422	4.141	3.476	2.425	2.453	2.372	2.129	2.179	1.935	1.972	1.921	1.721	1.668	1.270	1.446	1.439	1.329	1.892	1.293	1.541	1.350	1.441	1.437	1.630	1.574	1.456	1.753	1.274	1.442	1.197	1.237	1.036	0.883	0.751	1.076	0.881	0.968	1.394	2.493	4.068	3.989	2.399	1.973	2.292	2.864	4.016	7.386	18.27	42.59	65.04	44.94	14.87	1.773	0.667	0.750	0.453	0.559	0.692
285.0	288.1	257.9	218.1	137.9	80.48	73.23	129.1	426.2	917.1	495.8	488.6	 1233	 5432	9999.9	 1839	61.38	10.71	8.977	5.999	4.476	4.695	3.415	3.228	2.966	2.692	2.208	2.043	2.146	1.958	1.781	1.670	1.437	1.407	1.201	1.563	1.518	1.760	1.583	1.502	1.714	1.396	1.360	1.996	1.663	1.767	1.792	1.472	1.991	1.427	1.520	1.069	1.015	1.104	0.912	0.987	1.011	1.191	1.403	2.415	4.326	4.522	3.713	2.469	1.817	2.502	3.058	5.486	12.51	30.47	58.30	57.19	33.59	6.704	0.986	0.712	0.830	0.551
290.0	336.1	311.4	299.3	212.4	123.3	102.0	136.7	265.3	664.3	 1028	747.8	678.4	 1594	 4942	9999.9	 5994	107.9	13.52	7.415	6.337	5.206	4.077	3.687	3.416	2.878	2.638	2.410	2.032	1.890	1.820	1.646	1.575	1.858	1.538	1.607	1.657	2.099	1.578	1.747	1.670	1.562	1.610	1.939	1.763	2.083	2.033	1.997	2.117	1.669	1.499	1.386	1.198	1.063	0.972	1.138	1.202	1.092	1.328	1.730	2.365	3.280	4.645	4.843	4.436	3.591	2.656	3.300	4.655	8.476	16.30	27.34	43.46	47.88	46.30	23.45	5.900	0.926
295.0	383.6	355.4	355.2	268.2	174.5	144.0	168.7	257.7	441.1	813.0	 1426	899.8	815.1	 1392	 3018	9999.9	 8194	140.6	11.97	8.225	5.665	4.066	4.622	3.721	2.972	2.614	2.625	2.113	2.023	2.173	1.811	1.800	1.713	1.513	1.563	1.707	1.986	1.879	1.951	1.863	1.862	1.913	1.927	2.227	2.046	2.131	2.282	2.166	2.256	1.557	1.722	1.469	1.365	1.115	1.201	1.374	1.322	1.712	1.643	2.156	2.332	2.985	3.719	5.929	6.713	5.184	3.429	3.543	4.080	5.676	7.288	11.01	14.54	32.47	65.69	57.80	32.09
300.0	385.6	378.4	402.7	340.5	212.9	181.5	203.9	288.9	439.2	667.4	 1324	 1478	789.9	692.4	888.8	 3560	9999.9	 5846	94.08	11.05	7.778	5.711	5.036	4.265	3.265	2.674	2.319	2.754	2.147	2.155	1.783	2.128	1.828	1.485	1.587	1.679	2.444	2.070	2.053	2.001	1.658	2.170	2.190	2.221	1.843	1.899	2.456	2.534	2.185	1.697	1.739	1.703	1.602	1.351	1.356	1.551	1.629	1.601	1.721	2.079	2.370	2.628	3.132	4.020	6.124	7.902	6.175	4.236	3.623	3.670	3.587	3.998	4.660	8.617	22.54	54.52	86.23
305.0	364.8	376.7	433.8	351.4	240.2	223.9	261.1	338.3	469.6	669.7	 1020	 1708	 1231	621.8	456.0	974.9	 4691	9999.9	 1208	52.77	9.696	7.279	5.733	4.605	3.241	2.927	2.945	2.527	2.460	2.132	2.056	1.956	1.776	1.532	1.715	1.862	2.095	1.918	2.069	1.987	1.675	1.889	2.005	2.184	1.873	1.898	2.615	2.281	1.953	1.788	1.708	1.686	1.419	1.497	1.619	1.593	1.715	1.684	2.189	2.238	2.413	2.613	3.418	3.662	4.437	6.044	8.276	7.596	4.348	3.665	3.117	2.520	2.637	3.184	6.214	14.94	38.71
310.0	344.7	373.3	437.2	369.7	273.5	254.7	302.4	382.7	516.8	684.7	930.4	 1255	 1562	 1065	489.2	436.2	 1219	 4462	 8300	 4645	76.57	10.82	7.099	4.935	4.209	3.666	2.967	2.810	2.436	2.479	2.255	2.069	2.037	1.584	1.912	1.972	2.247	1.761	1.692	1.922	1.507	1.662	1.875	1.778	2.110	2.063	2.390	2.073	2.131	1.937	1.642	1.816	1.585	1.438	1.622	1.628	1.918	1.947	2.239	2.416	2.805	2.861	3.332	3.617	4.366	4.661	5.364	6.739	7.340	6.387	4.357	3.106	2.661	2.494	2.766	4.802	10.10
315.0	368.7	408.7	454.2	383.4	301.3	281.3	325.2	430.9	569.4	727.8	938.5	 1098	 1216	 1465	876.4	408.1	457.3	 1125	 2471	 9115	 6646	102.3	9.180	6.365	5.481	4.489	3.172	2.804	3.248	2.845	2.325	2.089	2.000	1.725	1.802	1.973	2.077	1.834	2.072	1.713	1.575	1.657	1.874	1.996	2.205	2.307	2.438	2.417	2.028	1.946	1.678	1.721	1.694	1.803	1.765	1.725	1.627	2.179	2.477	2.293	2.604	3.001	3.569	3.994	4.487	4.510	4.390	5.182	5.705	5.965	7.292	5.825	4.104	2.463	2.189	3.003	3.634
320.0	405.9	484.5	571.4	476.4	325.3	310.4	359.4	457.9	610.7	776.5	983.7	 1098	 1138	 1260	 1316	584.6	347.4	415.9	667.7	 3266	9999.9	 4973	72.11	9.392	6.342	5.205	4.171	3.431	2.902	3.068	2.597	2.327	2.299	1.827	1.753	1.713	2.073	2.105	2.125	1.723	1.545	1.790	1.945	2.249	2.352	2.471	2.701	3.059	2.340	2.192	2.225	1.657	1.874	1.712	1.984	1.992	1.922	2.092	2.474	2.522	2.613	3.242	3.531	4.095	4.602	4.598	4.819	4.911	4.708	5.070	5.726	6.669	6.672	4.231	2.892	2.756	2.225
325.0	447.4	523.8	700.4	597.5	419.2	345.5	409.5	491.7	640.6	793.8	 1033	 1152	 1186	 1139	 1280	992.2	416.8	302.6	289.6	847.5	 4674	9999.9	905.0	41.82	8.190	5.631	4.753	4.480	3.455	3.318	2.544	2.439	2.492	1.774	1.961	1.790	1.977	2.209	1.908	1.780	1.949	1.886	2.062	2.233	2.263	2.570	2.821	3.285	3.291	2.661	2.351	2.385	1.784	1.926	1.835	2.074	2.088	2.318	2.454	2.527	3.074	3.328	3.873	4.093	4.971	5.207	4.957	5.150	5.232	5.047	4.865	5.752	6.526	6.432	4.115	3.455	2.872
330.0	481.5	568.1	815.3	752.0	504.4	395.0	427.8	523.5	655.9	816.6	 1046	 1181	 1232	 1139	 1046	 1061	781.1	370.9	253.4	322.1	 1176	 4382	 7875	 3620	59.78	8.847	5.742	4.504	3.762	3.660	3.075	2.668	2.287	2.062	1.841	1.956	1.918	2.051	1.812	1.556	2.048	1.802	2.081	2.029	2.468	2.910	3.116	3.366	3.733	3.293	2.812	2.781	2.163	2.094	2.140	1.946	2.066	2.491	2.711	2.804	3.388	3.362	3.828	4.134	4.763	4.713	4.861	5.082	5.376	5.086	5.004	4.706	4.941	5.401	5.952	5.774	4.625
335.0	462.7	625.7	910.7	813.4	612.7	463.4	476.3	548.7	686.8	829.8	 1051	 1199	 1232	 1170	989.4	832.1	904.0	693.3	310.8	245.5	394.7	 1074	 2439	 8513	 5410	80.59	9.121	5.810	4.714	4.130	3.071	2.689	2.531	2.266	1.929	2.288	2.085	1.808	1.806	1.741	1.863	2.049	1.891	2.357	2.359	3.052	3.239	3.789	4.024	3.433	3.016	2.858	2.862	2.273	2.541	2.404	2.145	2.443	2.530	2.768	3.762	3.422	4.475	3.875	4.314	5.158	5.363	4.871	5.615	5.375	5.337	4.932	5.231	4.326	4.663	4.841	5.972
340.0	420.4	607.5	925.3	879.7	659.7	527.1	516.8	562.0	711.9	847.4	 1039	 1193	 1237	 1182	 1000	787.5	747.9	861.4	485.6	266.5	246.6	354.8	641.8	 3336	9999.9	 4051	57.29	7.969	6.002	4.498	3.800	2.886	3.045	2.404	1.961	2.343	2.228	1.858	1.551	1.784	1.645	1.955	1.791	2.262	2.146	3.106	2.869	3.997	4.059	3.616	3.192	2.960	2.950	2.622	2.551	2.758	2.462	2.501	2.919	3.099	3.927	3.816	4.209	4.013	4.380	4.948	5.339	5.013	5.493	5.573	5.489	5.184	5.062	4.146	4.300	4.125	4.769
345.0	362.8	587.1	902.4	923.9	734.6	588.9	577.1	618.0	722.2	872.9	 1029	 1158	 1210	 1160	990.7	788.4	664.2	730.6	722.5	352.7	242.1	225.9	255.5	853.9	 4910	9999.9	739.8	34.25	7.186	5.706	4.149	2.950	3.074	2.413	2.296	2.451	2.248	1.598	2.015	1.950	1.764	1.829	1.973	2.234	2.358	2.906	3.062	3.860	4.014	3.604	3.085	3.402	3.068	2.891	2.573	2.758	2.914	2.747	2.952	3.056	3.535	3.303	3.692	4.601	4.388	5.087	5.313	5.194	5.031	5.063	5.274	5.024	4.870	4.624	4.235	4.528	4.142
350.0	377.8	520.3	818.9	902.1	761.1	672.6	642.4	680.0	779.8	896.3	 1022	 1132	 1166	 1143	991.5	812.8	667.2	594.9	675.5	611.5	346.0	246.6	211.3	303.4	 1230	 4553	 7320	 3064	50.86	7.890	5.229	4.181	3.261	2.939	2.332	2.334	2.132	1.910	2.023	1.966	1.761	1.802	1.905	2.300	2.151	2.895	2.974	3.381	3.664	3.414	3.139	3.281	3.386	3.119	2.892	2.887	3.148	2.981	3.061	3.307	3.919	3.475	3.839	4.514	4.599	5.246	4.779	5.129	5.030	4.952	4.870	5.120	4.763	4.946	4.406	4.295	4.348
355.0	371.8	507.5	756.9	857.1	804.2	749.5	729.9	787.1	869.3	965.6	 1051	 1123	 1141	 1135	 1007	849.4	704.4	602.0	564.0	634.0	603.0	336.6	244.8	225.4	392.5	 1104	 2485	 8152	 4567	70.32	8.479	5.562	3.784	3.360	2.735	2.505	2.320	2.024	2.043	1.710	1.956	1.827	1.921	2.243	2.260	2.744	3.110	3.399	3.236	3.372	3.080	3.429	3.357	3.777	3.115	3.383	3.332	3.555	3.562	3.740	3.644	4.116	4.371	4.287	4.596	4.465	4.803	4.790	5.289	4.869	5.124	4.771	5.048	4.799	4.766	4.358	4.072
360.0	353.0	456.9	729.5	814.4	826.5	798.7	799.8	832.3	928.5	 1005	 1087	 1123	 1142	 1109	995.6	849.3	727.4	639.3	556.5	561.3	688.8	503.9	296.1	243.5	237.0	353.7	644.3	 3524	 9351	 3476	45.59	6.502	5.002	3.619	2.730	3.003	2.361	2.024	1.769	1.956	1.537	1.801	1.795	1.970	2.250	2.668	2.562	3.290	3.256	3.068	3.203	3.260	3.308	3.568	3.322	3.317	3.561	3.638	3.231	4.127	3.943	4.485	4.381	4.439	4.381	4.293	4.653	4.845	5.226	5.222	5.103	4.974	5.092	5.040	4.708	4.690	4.098
365.0	312.3	441.8	677.5	813.5	828.6	853.7	839.3	871.0	967.7	 1039	 1094	 1125	 1123	 1094	 1008	870.7	761.4	662.8	583.7	541.8	606.4	669.9	401.5	283.3	230.5	214.8	238.8	898.3	 5105	 9582	647.0	24.61	6.183	4.497	3.382	2.926	2.321	2.553	1.972	1.855	1.696	1.822	2.288	2.136	1.984	2.309	2.765	2.798	2.977	3.119	2.906	3.172	3.361	3.680	3.232	3.265	3.833	3.479	3.892	4.103	4.060	4.604	4.720	4.516	4.792	4.578	4.852	4.887	5.290	5.049	5.281	5.163	4.820	5.071	4.728	4.537	4.170
370.0	282.7	418.9	622.4	769.6	822.0	874.8	885.6	925.6	 1019	 1070	 1123	 1139	 1112	 1097	994.2	871.8	790.9	697.0	624.7	575.2	558.5	623.4	615.1	403.1	286.5	230.1	186.9	296.7	 1283	 4805	 6015	 2639	40.82	6.097	4.315	3.405	2.805	2.459	2.362	2.156	1.774	1.962	2.008	2.150	2.087	2.248	2.545	2.900	2.796	2.873	2.953	3.184	3.237	3.622	3.471	3.557	3.742	4.030	4.356	4.033	4.216	4.902	4.699	4.796	5.082	4.901	4.794	5.162	5.106	4.767	4.956	4.728	4.821	4.988	4.880	4.717	4.624
375.0	274.0	401.6	607.0	763.6	853.7	932.4	936.1	973.0	 1062	 1107	 1132	 1169	 1122	 1076	982.2	890.9	805.6	732.1	672.6	632.0	581.1	566.3	624.9	624.1	402.0	297.2	229.8	206.5	381.4	 1141	 2419	 7996	 3754	52.01	6.236	4.535	3.646	2.774	2.111	2.003	1.876	2.026	2.015	2.127	2.109	2.196	2.596	2.772	2.922	2.694	2.999	3.485	3.625	3.974	3.887	3.626	4.501	4.180	4.489	4.103	4.493	4.497	4.948	5.052	4.973	4.934	4.651	5.043	5.080	4.616	4.889	5.222	5.374	4.548	4.725	4.992	4.819
380.0	289.3	388.3	567.4	739.2	857.0	924.3	950.3	974.2	 1044	 1104	 1153	 1143	 1126	 1072	957.5	877.1	810.1	757.8	708.7	660.3	618.1	585.8	582.1	671.8	555.2	372.7	280.9	216.3	204.6	338.8	619.5	 3766	 8633	 2546	32.51	6.111	4.179	3.549	2.427	2.261	1.972	2.284	2.065	2.396	2.236	2.492	2.283	2.860	2.831	2.568	2.728	3.671	3.767	3.645	3.693	3.614	4.126	4.103	4.183	4.295	4.779	4.558	4.905	5.001	4.763	4.756	4.654	5.121	4.879	4.299	5.354	4.803	4.985	5.297	4.738	5.133	5.117
385.0	283.9	397.0	545.4	729.2	852.3	912.3	959.5	988.3	 1012	 1092	 1117	 1129	 1126	 1045	926.5	881.0	814.9	764.3	714.6	670.3	643.8	608.4	571.2	610.2	662.9	473.5	324.5	252.5	197.5	183.4	212.3	962.0	 5136	 7605	499.4	14.46	4.990	4.057	2.820	2.421	2.092	2.293	2.005	2.454	2.458	2.182	2.203	2.702	2.664	2.689	2.902	3.352	3.687	3.785	3.555	3.638	4.040	4.046	3.895	4.363	4.358	4.635	4.608	4.928	5.198	5.008	4.905	4.987	5.243	4.749	4.904	4.624	4.624	4.664	4.963	4.595	5.011
390.0	281.9	368.8	532.2	675.4	810.4	940.6	931.3	984.7	 1041	 1056	 1104	 1107	 1073	 1016	927.8	861.5	809.5	758.9	735.2	702.3	675.1	632.3	604.9	586.2	615.6	611.3	431.9	303.5	229.8	180.7	149.5	287.0	 1301	 4146	 4953	 1840	31.88	5.911	3.656	3.168	2.540	2.300	2.183	2.085	2.153	2.293	2.379	2.518	2.492	2.670	2.835	3.221	3.484	3.692	3.873	3.864	4.113	4.316	4.034	4.558	4.681	4.882	4.527	4.602	4.582	4.721	4.794	4.824	5.007	4.938	4.677	4.863	4.650	4.810	4.720	4.857	4.709
395.0	269.8	350.1	517.6	635.0	782.0	875.8	928.3	972.1	 1008	 1048	 1053	 1076	 1050	 1000	921.1	851.1	814.6	749.8	736.3	708.7	696.3	657.4	632.9	602.5	574.0	592.3	581.4	389.9	276.1	222.9	171.8	163.5	358.9	976.6	 2123	 6444	 2859	40.77	5.987	4.110	3.146	2.696	2.381	2.231	2.166	2.274	2.486	2.611	2.561	2.878	2.484	3.118	3.355	3.687	3.549	4.105	4.319	4.354	4.261	4.139	4.658	4.907	4.376	4.527	4.789	4.732	4.845	4.887	4.788	4.954	4.624	4.971	4.734	4.371	4.637	5.493	4.919
400.0	263.8	351.6	483.9	670.8	766.5	867.2	911.2	957.3	 1017	 1019	 1030	 1059	 1030	975.7	889.9	827.4	803.6	754.1	739.0	709.7	700.7	675.5	644.9	613.4	582.8	562.2	595.6	509.2	333.9	251.7	195.9	156.7	166.1	275.2	536.5	 3236	 6645	495.4	24.16	5.036	3.543	2.563	2.515	2.454	2.204	2.255	2.575	2.656	2.536	2.649	2.590	3.283	3.444	3.380	3.613	3.646	4.104	4.290	4.050	3.970	4.564	4.465	4.447	4.230	4.362	4.251	4.491	4.649	5.191	4.618	4.603	4.820	4.481	4.385	4.760	5.003	4.748
405.0	250.7	328.6	498.3	638.4	742.5	819.0	906.9	951.3	980.0	991.8	 1027	 1020	995.6	947.2	873.8	826.3	787.8	742.8	740.1	709.4	694.1	682.1	650.2	626.6	595.5	555.0	549.2	575.2	417.0	288.7	228.0	174.1	141.0	131.4	172.9	833.6	 4171	 5516	409.0	11.40	4.590	2.918	2.475	2.706	2.348	2.621	2.392	2.350	2.744	2.633	2.465	3.274	3.237	3.506	3.394	3.802	4.475	4.113	3.580	3.911	4.193	3.858	3.946	4.242	3.823	4.160	4.613	4.516	4.728	4.705	4.660	4.289	4.320	4.597	4.275	4.776	4.881
410.0	237.2	315.6	461.2	607.8	724.5	805.5	870.7	921.0	938.4	967.3	994.2	991.4	954.0	921.7	849.6	802.8	762.6	732.6	713.5	701.1	684.1	669.0	647.9	627.9	599.6	562.6	527.5	524.4	514.9	376.4	271.3	208.0	160.3	123.7	107.5	235.9	 1066	 3264	 4074	 1533	26.77	4.520	3.417	2.754	2.565	2.385	2.329	2.500	2.517	2.419	2.455	3.124	3.116	3.609	3.387	3.583	3.563	3.937	3.845	4.133	4.309	4.042	4.009	4.255	4.091	4.149	3.939	4.387	4.329	4.461	4.366	4.215	4.430	4.256	4.126	4.868	4.399
415.0	239.7	321.3	448.7	574.9	698.3	774.8	829.0	867.1	917.7	934.6	949.0	943.5	909.1	873.6	813.6	765.1	724.9	705.4	686.5	674.4	668.3	656.0	628.5	616.3	594.2	566.7	516.4	480.3	484.0	483.0	335.3	241.5	184.3	142.3	110.3	116.2	282.3	764.0	 1785	 5031	 2208	34.63	4.386	3.404	3.059	2.639	2.233	2.474	2.466	2.503	2.290	3.050	3.178	3.344	3.145	3.365	3.496	3.604	3.641	3.844	3.797	4.076	4.078	4.102	4.164	3.975	4.108	4.362	3.986	4.436	3.988	3.821	4.361	3.924	4.395	4.895	4.517
420.0	219.1	300.7	441.8	568.8	665.9	718.8	807.3	839.1	887.0	904.7	937.1	914.1	876.5	830.0	772.9	731.2	695.5	684.6	664.4	658.0	641.5	631.7	617.2	596.9	587.9	559.3	519.4	477.0	450.7	475.4	416.6	271.3	203.7	156.1	121.3	97.41	114.1	208.6	444.2	 2573	 5075	451.4	19.97	3.898	3.168	2.919	2.250	2.558	2.243	2.260	2.351	3.145	2.961	3.249	3.154	3.294	3.783	3.706	3.655	3.834	3.810	4.206	4.094	4.309	4.157	3.945	3.886	4.409	4.010	3.968	4.237	3.909	3.909	3.900	4.163	4.051	4.247
425.0	223.3	289.1	413.2	522.8	655.5	688.1	781.9	837.0	863.6	899.0	891.3	869.8	847.8	808.4	756.2	714.4	664.0	652.0	639.9	632.6	621.8	613.3	600.5	586.5	571.9	555.3	516.1	482.1	443.0	438.9	451.7	326.4	225.9	175.2	131.0	102.7	84.22	90.05	131.6	664.5	 3229	 3623	364.3	9.063	4.194	3.048	2.713	2.608	2.349	2.464	2.318	3.008	3.012	2.992	3.326	3.127	3.511	3.531	3.857	3.983	3.799	4.101	4.422	4.284	3.678	3.833	3.595	4.207	4.001	3.942	3.979	3.558	3.539	4.234	3.938	3.678	4.340
430.0	541.3	272.6	385.9	494.9	617.5	670.0	749.9	813.0	844.3	868.9	875.2	847.6	820.3	780.5	720.5	683.5	633.6	621.7	613.3	602.2	599.6	591.2	578.6	574.3	560.6	537.5	511.1	483.4	442.4	416.4	412.9	388.6	283.8	196.8	150.2	120.4	92.22	76.18	70.19	177.2	821.8	 2363	 3319	 1300	24.29	4.271	3.281	2.854	2.779	2.398	2.262	2.863	3.127	3.135	3.343	3.027	3.639	3.517	3.891	3.866	3.725	3.767	3.839	3.729	3.819	3.813	3.720	3.724	4.031	3.891	3.864	3.794	3.846	3.761	3.630	3.764	3.954
435.0	 1415	309.8	354.7	477.5	585.2	631.9	717.0	761.0	811.1	831.1	850.6	808.7	775.6	743.9	673.4	631.8	601.2	586.9	577.8	568.1	562.8	563.1	551.9	543.3	540.8	519.0	502.9	480.4	446.2	408.6	384.6	365.5	347.7	241.6	175.7	138.2	106.8	83.20	66.61	76.84	211.5	551.7	 1411	 4074	 1907	32.07	4.189	3.541	3.106	2.696	2.262	2.675	2.958	3.045	3.013	3.322	3.547	3.510	3.699	3.551	3.273	3.744	3.682	3.713	3.786	3.279	3.478	3.947	3.704	3.677	3.669	3.465	3.719	3.490	3.214	3.849	3.770
440.0	 2079	620.1	358.7	457.7	523.6	596.7	686.4	773.7	805.2	811.5	836.6	789.7	751.8	727.0	656.3	616.4	589.2	559.9	545.7	544.1	540.7	532.5	528.5	524.9	518.0	506.9	488.5	471.7	441.2	411.1	376.5	343.6	349.4	296.7	197.3	148.7	116.5	93.68	72.55	61.28	80.60	148.1	347.8	 2054	 4317	415.5	19.04	4.056	3.281	2.737	2.436	2.717	2.771	2.923	3.196	3.119	3.003	3.476	3.552	3.277	3.246	3.782	3.565	3.907	3.522	3.378	3.408	3.766	3.362	3.398	3.467	3.320	3.292	3.274	3.754	3.585	3.853
445.0	 1888	 1236	330.2	441.7	521.6	592.4	654.4	740.1	766.3	781.8	798.3	762.1	728.8	685.7	628.2	595.3	562.5	539.2	527.8	523.2	514.3	510.7	506.3	509.9	506.1	492.7	474.3	457.6	436.9	407.4	368.9	336.6	315.4	316.9	234.1	161.8	126.1	102.7	81.18	63.54	56.45	63.63	100.9	524.5	 2675	 3322	323.6	10.21	3.717	2.985	2.694	2.907	2.830	3.170	2.810	3.056	3.449	3.512	3.365	3.120	3.521	3.337	3.850	3.655	3.365	3.235	3.730	3.556	3.221	3.230	3.470	3.340	3.194	3.186	3.345	3.213	3.892
450.0	932.3	 1904	676.8	407.2	487.6	576.3	634.5	702.7	740.3	760.2	753.6	724.6	689.0	640.8	586.0	551.0	518.0	499.9	484.9	490.6	475.3	478.0	468.5	468.3	469.3	463.4	452.0	437.5	417.7	399.8	364.3	331.0	290.2	280.0	267.4	196.9	138.8	113.0	90.62	72.67	59.52	50.14	50.41	139.3	676.5	 2098	 2941	 1222	22.12	3.747	3.002	2.953	3.049	3.020	2.732	3.160	3.398	3.123	3.231	3.035	3.414	3.432	3.360	3.414	3.604	3.586	3.533	3.364	3.389	3.341	3.255	3.008	3.162	3.262	3.174	3.001	3.400
455.0	360.0	 1423	 1519	455.3	451.0	517.9	593.3	660.0	695.6	704.3	714.7	678.6	645.1	589.9	549.6	509.5	473.4	457.6	448.0	448.9	438.7	435.8	431.5	432.5	434.1	425.6	415.5	416.2	394.2	382.2	356.0	321.1	281.1	250.6	242.6	231.5	163.8	122.5	100.6	81.79	67.97	52.77	43.95	58.96	172.4	485.7	 1165	 3555	 1826	27.46	3.893	3.473	3.227	2.848	2.934	3.367	3.215	2.891	3.227	3.111	3.590	3.696	3.394	2.980	3.437	3.532	3.020	3.259	3.245	3.119	3.052	2.975	2.862	2.874	2.989	2.974	3.180
460.0	221.2	641.0	 1971	849.9	421.1	493.9	566.8	618.9	655.3	682.1	676.2	653.2	596.8	561.5	525.9	474.7	456.6	424.5	424.0	404.7	404.9	397.7	400.8	402.3	403.2	396.5	391.4	390.4	378.0	360.7	340.7	307.2	272.9	239.6	219.3	223.9	193.4	134.1	106.4	88.84	70.88	59.37	46.77	43.58	61.71	127.6	282.9	 1659	 3766	 1201	18.60	3.753	3.360	3.278	2.934	2.932	3.191	2.813	2.707	3.211	3.441	2.960	3.346	3.038	2.990	3.698	3.109	3.214	3.375	2.998	2.858	3.166	3.034	2.670	2.826	3.141	2.853
465.0	226.2	306.2	 1586	 1428	420.1	461.4	543.5	572.4	618.8	639.6	635.1	613.7	572.2	534.6	486.6	434.6	424.9	397.3	390.3	380.0	372.1	373.4	375.4	369.7	378.7	374.3	367.3	368.1	353.9	342.0	328.0	296.5	264.2	228.9	208.9	198.6	200.4	151.9	111.6	91.24	77.14	61.86	49.72	43.04	38.75	47.96	80.07	411.9	 2144	 3353	289.2	10.33	3.579	3.266	2.776	2.822	2.782	2.982	2.805	2.896	3.142	2.743	2.999	2.937	3.109	3.159	3.276	3.121	2.965	2.566	3.386	2.712	2.904	2.609	2.602	2.772	2.528
470.0	212.3	206.8	732.3	 2151	898.4	415.3	477.3	536.8	570.1	587.2	595.2	564.9	526.2	489.7	442.2	400.3	385.4	360.2	355.8	347.1	340.6	336.0	334.8	331.5	341.6	339.0	335.5	332.1	326.6	318.1	302.6	278.9	248.3	219.7	195.2	177.0	174.2	168.0	131.7	97.02	79.12	66.65	53.53	44.53	36.79	33.46	36.42	107.4	528.0	 1701	 2216	 1171	22.65	4.206	3.576	2.877	2.883	2.778	2.672	2.998	2.738	2.723	2.983	3.014	3.083	2.939	2.827	2.480	2.732	2.739	2.666	2.487	2.525	2.554	2.582	2.561	2.415
475.0	198.0	166.2	328.5	 1339	 2196	487.8	424.0	488.6	529.4	529.5	543.7	511.9	473.2	439.2	399.2	367.1	342.7	331.1	317.9	307.1	302.5	302.2	297.5	297.2	303.4	296.8	301.3	294.5	301.4	292.4	280.3	254.7	232.7	206.4	182.2	164.5	149.3	148.9	146.4	108.9	81.59	68.70	56.12	47.23	38.25	32.14	28.23	40.58	131.8	390.5	790.5	 2404	 1420	32.27	3.716	2.912	2.910	2.740	2.516	2.642	2.708	2.696	2.607	2.620	2.769	2.646	2.777	2.664	2.392	2.317	2.209	2.239	2.014	2.323	1.898	2.354	2.214
480.0	163.8	169.9	218.0	623.7	 2589	921.0	387.1	446.3	501.5	498.0	506.5	469.0	440.7	413.4	363.8	335.1	317.6	297.0	294.8	284.3	280.2	273.3	270.9	272.9	275.5	276.6	274.4	276.5	274.8	271.7	259.0	238.6	217.3	194.0	175.4	154.0	138.9	130.6	137.4	121.9	87.15	68.03	57.40	49.93	39.83	33.77	28.47	26.77	44.64	99.43	190.2	 1018	 2655	381.7	20.87	3.706	3.429	3.030	2.688	2.822	2.468	2.553	2.287	2.368	2.524	2.712	2.291	2.393	2.538	2.105	2.234	2.359	2.256	2.257	2.072	2.436	2.122
485.0	151.7	180.5	198.1	329.4	 1907	 1954	387.0	423.2	464.1	475.7	465.0	444.2	433.4	387.9	344.1	322.6	290.7	279.0	264.4	261.6	258.2	251.0	251.9	255.9	255.9	255.2	251.4	255.9	253.7	250.7	242.7	226.0	203.8	185.0	165.5	149.1	132.5	119.8	121.9	123.9	99.58	71.31	59.14	49.82	41.93	35.23	30.25	25.86	25.67	35.59	52.79	249.5	 1396	 2317	323.4	11.19	3.453	2.934	3.020	2.719	2.617	2.421	2.322	2.173	2.240	2.467	2.325	2.184	2.023	2.006	1.996	2.462	2.155	2.352	2.208	2.152	2.276
490.0	141.4	176.4	195.9	241.2	803.7	 2502	 1057	382.4	430.9	428.7	429.7	411.7	394.1	347.8	313.0	291.4	269.7	251.5	242.4	238.1	233.2	224.3	228.5	226.3	231.9	228.4	228.7	228.8	229.0	228.1	221.6	204.6	186.8	170.0	154.5	141.9	124.3	113.1	107.1	106.8	106.3	82.81	61.25	51.02	43.83	36.83	32.36	27.38	23.53	22.61	23.87	65.90	340.1	 1112	 1870	 1035	24.62	3.776	3.054	2.829	2.417	2.449	2.391	2.038	2.288	2.296	2.136	2.332	2.078	1.946	2.131	2.052	2.101	2.100	2.122	1.938	2.009
495.0	115.2	151.3	219.9	212.2	356.7	 1494	 2394	457.8	375.5	391.8	389.5	373.5	349.2	328.1	280.4	258.5	242.5	223.0	214.1	211.2	209.1	203.5	203.1	201.5	204.5	200.7	208.3	203.2	203.5	204.1	197.9	187.3	169.4	155.0	141.8	129.0	118.1	106.0	97.48	89.84	95.30	90.43	68.15	52.09	44.41	38.01	33.70	29.28	25.04	21.14	18.76	26.23	85.80	257.0	637.9	 2060	 1376	33.48	3.496	2.759	2.727	2.616	2.468	2.157	2.099	1.962	2.194	2.234	1.824	1.893	1.752	1.879	1.648	1.785	1.839	1.421	1.851
500.0	105.4	123.9	211.1	211.7	237.1	663.6	 2755	794.1	351.2	366.4	361.1	333.4	327.2	296.0	260.5	232.3	220.5	206.1	198.7	194.8	192.6	184.1	184.5	182.3	184.7	186.9	187.0	185.9	190.0	185.7	180.5	172.7	155.9	144.1	133.3	121.4	111.9	99.22	92.96	84.21	80.84	87.28	78.16	55.49	44.30	39.41	34.55	29.83	25.39	22.07	18.57	17.81	29.10	66.60	152.8	858.6	 2396	398.1	22.02	3.273	2.583	2.757	2.114	2.464	2.026	1.892	1.728	1.663	1.782	1.694	1.974	1.831	1.610	1.623	1.701	1.521	1.520
505.0	98.97	110.8	183.2	217.1	201.9	329.5	 2027	 1987	347.4	334.7	332.9	313.0	292.1	270.5	238.4	211.0	200.4	188.2	184.2	173.9	176.2	165.9	166.1	164.7	170.1	166.5	169.9	169.2	172.5	173.3	167.9	158.7	145.5	134.9	125.3	112.7	103.5	94.06	87.02	78.43	71.66	74.34	78.69	60.56	44.73	38.53	34.53	30.72	25.35	23.08	18.99	16.80	17.36	24.77	42.79	209.1	 1230	 2193	339.2	9.123	3.131	3.014	2.108	2.061	1.774	1.838	1.869	1.863	1.763	1.552	1.801	1.743	1.410	1.633	1.549	1.475	1.428
510.0	92.32	99.07	139.3	222.5	197.9	226.5	834.8	 2594	974.3	296.6	306.9	275.7	264.2	239.6	217.5	191.9	177.4	164.4	161.1	158.1	155.2	147.2	150.0	146.8	148.7	150.1	149.3	151.5	149.6	151.9	147.2	142.2	130.1	120.3	112.0	101.3	93.89	85.95	79.54	73.57	66.26	62.48	65.80	65.03	51.08	38.78	34.16	29.98	25.43	22.89	19.68	17.37	15.09	15.77	17.86	54.62	299.1	 1052	 1664	773.6	23.47	3.101	2.418	2.130	1.863	1.886	1.778	1.784	1.582	1.482	1.646	1.522	1.401	1.506	1.825	1.512	1.498
515.0	82.98	90.19	113.5	181.2	208.0	183.2	346.8	 1535	 2440	368.5	268.9	247.4	239.7	211.6	195.9	173.9	159.9	144.6	141.0	138.8	136.6	128.6	131.3	127.8	126.9	131.1	130.0	131.6	131.2	132.1	127.5	122.9	116.7	105.9	99.00	91.36	84.17	77.72	70.99	63.71	61.52	55.77	53.73	55.67	55.37	42.42	33.11	28.21	25.45	22.47	19.43	17.93	15.30	13.60	12.90	19.51	73.63	240.9	574.1	 1735	 1066	31.53	2.481	2.528	2.026	1.893	1.601	1.545	1.808	1.579	1.632	1.597	1.523	1.538	1.620	1.364	1.365
520.0	84.64	76.34	97.72	143.0	224.4	175.8	212.9	651.9	 2965	621.4	238.9	221.8	216.2	194.1	175.7	151.7	141.6	135.6	125.8	124.6	122.8	116.6	119.9	116.4	115.5	114.5	118.8	119.8	116.7	119.7	113.6	110.5	105.0	96.69	89.01	83.51	79.51	72.40	66.54	59.15	57.18	49.86	47.99	48.46	53.09	47.04	34.79	27.54	24.82	21.39	19.47	17.80	15.58	13.37	12.05	12.42	23.19	59.92	136.1	748.6	 1872	381.1	17.17	2.691	1.803	1.606	1.372	1.764	1.645	1.613	1.454	1.652	1.368	1.404	1.289	1.507	1.458
525.0	75.44	56.26	79.57	117.1	223.7	169.9	173.1	292.0	 2161	 1993	245.0	212.3	195.1	177.9	157.2	139.0	127.8	121.5	115.6	114.7	108.4	106.2	109.3	104.4	104.1	107.1	106.1	106.6	107.9	107.8	104.5	98.56	93.58	86.78	81.34	77.93	72.37	65.40	60.50	55.90	51.36	47.62	44.04	41.02	46.91	47.90	38.46	28.69	24.38	22.35	19.23	17.48	15.16	13.30	11.91	10.70	12.60	19.80	35.21	183.0	975.5	 1649	304.7	6.137	2.009	1.602	1.627	1.342	1.593	1.642	1.352	1.546	1.114	1.276	1.344	1.324	1.224
530.0	73.92	59.31	78.64	102.7	166.9	208.6	154.1	188.4	842.1	 2701	880.1	185.1	176.5	154.8	136.9	125.8	117.1	109.6	103.1	99.92	96.04	95.20	92.20	92.04	90.32	94.00	93.36	92.63	94.58	93.19	91.93	87.29	82.88	77.51	72.59	67.35	63.25	58.37	54.65	50.76	46.69	43.43	39.62	35.95	36.60	40.96	40.72	30.67	23.71	20.76	18.11	16.51	14.57	13.19	11.64	10.28	10.08	10.52	13.06	46.01	236.7	802.6	 1257	549.9	20.93	2.085	1.706	1.277	1.364	1.443	1.183	1.355	1.153	1.317	1.308	1.350	1.274
535.0	81.87	57.13	71.67	77.81	125.3	194.2	160.2	156.7	317.7	 1527	 2478	246.1	156.1	141.8	124.6	112.4	102.2	94.33	89.08	85.19	83.07	81.35	78.73	79.32	78.73	79.34	80.93	79.72	81.42	81.25	79.32	77.80	72.51	68.49	63.44	57.26	54.54	51.21	48.49	44.99	41.22	38.62	36.83	33.71	30.07	31.92	36.70	33.37	25.12	19.43	16.69	15.08	14.02	12.25	11.78	10.63	9.342	8.240	7.774	14.89	56.87	182.6	442.8	 1299	400.1	24.36	1.900	1.601	1.598	1.328	1.337	1.238	1.101	1.199	1.198	1.271	1.016
540.0	75.54	51.62	64.00	77.27	99.87	170.6	181.3	137.5	189.0	592.3	 2937	473.8	137.3	126.7	114.5	99.24	91.40	82.52	79.59	77.14	73.94	71.44	71.26	70.23	70.30	69.82	71.75	71.12	72.24	72.03	69.55	69.12	65.61	61.08	57.01	49.88	48.74	45.00	44.06	41.24	37.50	35.28	32.93	30.74	28.07	27.07	29.34	33.61	27.00	19.52	15.70	14.11	13.05	12.13	10.93	9.413	8.885	7.440	6.741	8.034	16.71	44.26	105.2	585.0	 1290	334.3	10.09	1.644	1.799	1.279	0.918	1.170	0.916	1.124	1.164	1.192	0.949
545.0	67.76	51.83	63.13	75.50	89.61	128.5	200.7	140.5	141.0	244.3	 2080	 1838	137.1	113.1	103.0	86.72	80.48	73.97	70.64	70.25	65.38	63.55	64.08	62.20	62.82	62.90	62.60	64.33	64.20	65.01	63.91	61.03	58.53	54.69	51.00	44.37	43.74	41.71	39.81	36.96	34.43	32.02	29.96	27.86	25.15	23.55	24.25	28.11	27.68	20.91	15.50	13.29	12.00	11.52	9.955	9.296	9.332	7.150	6.513	6.164	7.734	13.10	26.72	143.1	739.6	 1184	54.83	3.323	1.684	1.267	1.225	1.265	0.785	1.021	1.243	0.863	0.915
550.0	64.26	54.55	58.40	65.02	73.24	91.10	175.1	163.4	124.7	155.9	757.0	 2568	668.3	101.0	89.77	75.50	69.70	65.40	61.60	59.09	55.16	56.96	54.68	52.04	54.60	53.45	54.03	54.48	53.66	54.10	53.20	51.36	49.80	45.35	43.04	39.54	38.21	36.19	33.71	31.16	29.76	27.71	25.09	23.71	22.88	20.94	20.05	20.92	24.04	22.09	16.42	12.43	10.81	9.924	8.921	8.502	7.923	7.425	5.952	5.584	5.421	6.014	8.940	34.68	181.9	614.1	860.0	228.4	16.19	1.327	1.377	1.244	0.938	0.852	0.977	0.852	0.883
555.0	62.79	53.99	61.07	55.97	71.01	71.77	120.1	192.0	114.4	117.7	260.7	 1337	 2124	133.0	71.13	60.32	59.11	52.82	52.12	47.87	48.71	44.86	44.17	43.69	44.87	44.29	42.72	44.70	43.00	45.04	44.97	42.94	39.24	37.06	35.48	33.43	31.17	28.86	26.70	26.15	23.69	23.29	21.35	20.42	19.29	17.11	16.67	15.83	17.46	19.70	17.89	12.80	9.658	8.878	8.096	7.680	7.020	6.490	5.862	5.262	4.525	4.362	5.210	10.52	43.00	139.7	337.3	866.6	344.7	14.39	1.370	1.008	1.174	0.782	0.909	0.874	0.977
560.0	59.98	47.08	50.70	58.45	55.18	56.28	80.20	188.9	134.9	113.7	138.7	477.4	 2612	325.5	62.56	51.94	51.69	45.05	44.04	42.94	41.51	38.22	36.69	36.81	37.28	37.11	36.72	38.44	36.97	38.05	40.08	34.75	32.66	32.46	29.90	28.59	26.63	23.79	23.93	22.35	21.25	19.15	18.94	17.97	16.06	14.63	14.31	14.47	13.62	15.34	16.46	12.70	8.928	7.799	7.448	7.107	6.541	5.802	5.701	5.010	4.299	3.684	3.732	4.752	11.97	33.63	80.13	419.1	853.3	232.9	4.984	1.299	1.052	0.861	0.843	0.942	0.729
565.0	60.04	52.16	59.88	47.28	47.80	48.69	61.09	146.9	156.2	100.5	103.4	188.5	 1795	 1447	61.05	46.76	43.18	38.15	37.83	36.80	34.09	32.43	31.33	32.94	31.72	30.28	31.20	31.78	31.69	31.48	34.00	29.60	28.80	27.04	24.86	24.34	22.86	21.09	20.05	19.35	18.25	16.29	15.56	15.03	14.29	12.83	12.45	11.97	11.54	11.97	13.77	12.89	9.759	7.058	6.269	5.808	5.459	5.371	5.083	4.919	4.727	3.574	3.204	3.370	4.593	9.431	19.93	104.6	522.7	705.5	49.08	1.791	1.001	0.888	1.022	0.823	0.737
570.0	54.30	49.96	58.67	43.51	41.68	45.96	53.47	95.68	174.7	109.4	96.56	108.9	610.5	 2137	466.8	41.40	36.57	31.95	30.56	28.59	26.93	27.27	25.60	26.24	25.71	25.15	25.63	25.60	25.61	25.82	25.27	24.59	22.43	21.68	20.29	18.75	18.62	17.69	16.73	15.60	15.32	13.64	12.68	12.66	11.10	10.97	10.62	9.405	9.460	8.924	9.779	10.60	9.641	6.741	5.417	5.178	4.792	4.920	4.208	4.434	4.019	3.559	2.877	3.079	3.195	3.907	6.337	25.21	130.7	393.6	454.4	183.0	9.990	1.030	0.878	0.823	0.826
575.0	50.73	53.92	48.19	49.48	40.48	37.26	48.33	67.00	138.2	147.7	94.77	94.75	193.5	 1054	 1695	66.09	29.20	28.22	24.27	23.31	20.97	21.67	21.46	20.09	19.77	19.23	20.60	21.65	20.53	19.96	20.23	18.70	18.05	17.22	16.62	15.99	15.00	14.04	12.90	12.15	11.52	10.71	10.67	10.42	9.173	9.400	9.083	7.539	7.730	7.113	6.551	7.688	8.086	7.004	5.256	4.451	4.078	4.212	3.863	4.121	3.464	3.360	2.651	2.697	2.244	2.871	3.324	7.505	30.37	89.76	200.4	521.0	208.8	6.400	0.917	0.723	0.815
580.0	61.43	55.30	54.95	47.37	37.03	35.19	47.26	59.22	96.61	178.6	99.69	85.43	99.79	358.5	 2106	220.8	27.22	23.14	21.38	19.10	19.50	18.67	17.75	16.84	17.26	16.22	16.89	18.10	17.77	18.14	17.03	15.32	15.32	14.10	12.96	13.24	12.38	11.25	11.35	10.31	10.37	10.05	9.085	8.926	7.867	7.922	7.456	6.664	6.265	5.845	5.247	5.967	6.963	7.224	5.634	4.038	4.319	3.778	3.213	3.331	3.066	3.241	3.032	2.388	2.053	2.449	2.407	3.279	8.128	21.39	48.54	269.4	476.4	52.47	2.289	1.109	0.913
585.0	49.00	51.62	59.98	40.46	35.40	37.08	37.67	50.41	75.86	168.3	116.9	79.34	76.44	126.9	 1383	 1069	27.98	20.56	20.35	17.16	16.21	16.61	15.53	14.69	15.41	13.90	15.12	14.22	15.56	14.54	14.94	13.56	12.87	12.73	11.15	11.56	11.07	10.19	9.725	9.148	8.580	8.399	7.767	7.244	7.180	6.409	6.339	5.831	5.660	5.159	4.417	4.655	5.220	6.392	5.427	4.365	3.761	3.235	3.288	3.139	2.558	2.626	3.088	2.790	1.895	2.011	2.102	2.263	3.073	6.167	11.79	69.15	317.1	377.0	38.55	1.321	0.778
590.0	50.70	47.48	50.65	40.70	35.96	32.08	33.89	45.12	58.91	111.5	152.4	80.24	68.13	66.57	442.6	 1565	319.7	18.78	16.75	15.19	13.84	13.55	12.75	12.39	12.72	11.21	12.36	12.41	11.39	12.06	11.67	11.44	10.99	10.15	9.041	9.487	8.763	8.171	8.185	7.439	6.981	6.719	6.277	5.815	6.091	5.797	5.084	5.021	4.782	4.477	3.850	3.712	3.726	4.562	5.397	4.463	3.228	2.891	2.942	2.394	2.385	2.108	2.484	2.612	2.151	1.994	1.841	1.879	2.016	2.486	3.741	16.41	81.45	234.0	291.3	103.9	4.920
595.0	49.55	44.35	45.63	44.14	32.02	31.34	33.50	39.83	55.08	75.06	155.2	103.5	68.15	51.15	123.1	740.9	 1191	38.46	12.50	11.97	11.27	10.86	11.02	9.663	11.10	9.392	10.30	9.660	9.497	9.962	9.480	9.238	8.389	7.410	7.927	7.436	6.955	6.776	6.351	5.782	5.940	5.667	5.350	4.761	4.494	5.283	4.291	4.063	3.557	3.717	3.259	3.125	3.142	3.258	4.187	4.366	3.455	2.910	2.224	2.138	1.811	1.954	1.818	1.982	2.286	2.072	1.710	1.659	1.489	1.585	1.846	4.549	19.01	53.30	134.8	311.8	57.20
600.0	59.92	47.31	46.39	38.46	32.00	33.13	38.78	40.07	53.70	66.07	130.1	136.5	68.57	46.35	50.88	234.4	 1473	156.2	11.73	10.04	10.20	8.799	9.362	8.439	9.437	8.025	8.602	8.028	8.116	8.331	8.535	8.212	7.704	6.843	6.970	6.318	6.590	6.033	5.476	5.329	4.915	4.386	4.226	4.172	3.598	4.092	3.748	3.778	3.378	3.141	2.684	2.593	2.829	2.526	3.086	3.857	3.672	3.036	2.101	1.926	1.679	1.989	1.725	1.896	1.937	1.901	1.864	1.360	1.284	1.325	1.340	1.723	4.924	12.69	33.18	173.0	271.4
605.0	47.08	41.01	42.04	40.87	29.22	29.29	31.91	35.42	53.18	57.25	96.59	150.0	70.74	44.84	36.78	73.66	962.0	746.5	14.17	9.049	8.787	7.092	7.681	6.964	7.849	7.484	7.298	6.977	7.382	6.867	7.980	6.628	6.230	6.687	5.754	5.488	5.591	5.013	4.962	4.467	4.408	4.033	3.586	3.628	3.040	3.527	3.164	3.065	2.996	2.737	2.296	2.529	2.360	2.382	2.289	2.823	3.282	3.015	2.382	1.748	1.761	1.704	1.503	1.769	1.815	2.003	2.024	1.457	1.204	1.146	1.216	1.346	1.868	3.646	8.304	45.97	200.9
610.0	37.42	33.59	39.00	37.20	29.13	30.87	30.03	34.40	44.27	58.11	75.42	132.8	97.28	49.12	34.29	32.04	296.2	 1121	223.0	8.729	7.808	6.971	6.608	6.549	6.120	6.004	6.199	5.920	5.706	5.384	6.539	6.098	5.344	5.326	5.050	4.674	4.510	4.236	3.917	3.531	3.730	3.536	3.185	3.100	2.865	2.904	2.791	2.576	2.520	2.378	1.952	2.092	2.036	1.889	1.826	2.019	2.697	2.640	2.261	1.738	1.479	1.388	1.240	1.309	1.481	1.811	1.769	1.625	1.204	1.152	1.071	1.114	1.300	1.522	2.374	11.09	52.24
615.0	42.63	34.06	31.04	32.58	25.44	25.92	26.94	33.10	42.30	51.91	66.50	93.89	123.7	54.45	33.56	23.37	78.80	535.2	869.5	22.87	5.743	5.484	5.903	5.538	4.999	4.827	4.869	4.434	4.811	4.596	4.873	4.926	4.146	4.448	3.731	4.409	3.526	3.285	3.226	2.987	2.928	2.869	2.525	2.346	2.460	2.432	2.385	2.070	2.155	1.825	1.703	1.857	1.695	1.731	1.529	1.703	1.762	2.182	1.988	1.929	1.387	1.318	1.292	1.206	1.220	1.341	1.181	1.469	1.303	1.074	0.932	0.905	0.978	0.985	1.047	3.162	12.18
620.0	32.05	34.39	34.89	32.42	24.99	22.41	26.80	30.40	36.44	50.03	57.02	74.18	113.7	65.46	30.85	23.42	29.94	160.7	 1091	121.5	5.720	5.110	5.168	4.846	4.221	4.284	4.244	4.378	4.380	4.178	4.497	3.908	3.832	3.404	2.990	3.248	3.226	2.588	3.016	2.807	2.392	2.590	2.106	2.086	1.814	2.153	1.994	1.986	2.071	1.740	1.459	1.714	1.340	1.489	1.264	1.303	1.390	1.715	2.188	2.153	1.407	1.122	1.264	1.235	1.186	0.976	0.829	1.168	1.396	1.403	0.965	0.707	1.027	0.836	0.846	1.342	3.317
625.0	34.36	33.61	32.90	34.50	25.14	25.59	28.13	29.72	36.75	43.96	53.24	65.95	93.12	83.13	31.91	23.28	17.72	48.42	714.3	560.1	7.529	5.216	4.174	5.230	3.631	3.790	3.800	3.693	3.702	3.902	4.095	3.062	3.298	3.218	3.022	3.041	2.545	2.506	2.157	2.202	2.244	2.036	2.083	1.925	1.593	1.992	1.531	1.825	1.559	1.395	1.309	1.296	1.166	1.221	1.294	1.107	1.223	1.443	1.631	1.888	1.397	1.039	1.176	1.089	1.311	1.255	0.950	1.121	1.352	1.220	0.961	0.796	0.916	0.760	0.747	0.827	1.650
630.0	30.03	25.06	33.22	31.03	27.40	24.44	24.94	29.59	34.78	41.23	52.63	61.65	72.42	93.65	39.73	23.95	16.29	20.92	216.7	845.2	164.7	4.953	3.892	3.974	3.238	3.233	3.324	3.066	3.100	3.026	3.036	2.913	2.511	2.598	2.093	2.705	2.140	1.969	1.937	1.903	1.932	1.891	1.488	1.634	1.489	1.511	1.440	1.444	1.583	1.173	1.240	1.101	1.258	1.035	1.024	1.054	1.136	1.187	1.221	1.369	1.403	1.296	1.140	1.142	1.091	1.064	0.925	0.889	0.887	1.131	1.053	0.968	0.890	0.839	0.806	0.696	0.902
635.0	38.80	28.01	33.46	28.96	26.75	23.99	25.26	29.72	34.15	41.69	48.93	56.83	58.11	79.27	56.43	24.78	17.96	14.52	55.57	402.6	663.6	16.07	3.447	3.347	3.138	2.641	2.470	3.009	2.489	3.001	2.547	2.420	2.139	2.497	2.626	2.023	1.796	2.021	1.631	1.344	1.291	1.691	1.133	1.424	1.335	1.156	1.391	1.239	1.129	1.003	1.003	1.026	0.746	1.094	0.897	0.881	0.968	0.972	0.782	1.132	1.262	1.120	1.231	0.902	0.826	0.863	1.075	0.870	0.843	0.899	1.108	1.077	0.710	0.762	0.603	0.629	0.620
640.0	37.19	36.47	33.26	33.27	23.58	25.93	24.05	27.86	36.04	41.29	53.04	53.02	57.06	64.81	68.33	27.63	16.96	13.97	19.95	120.8	829.6	101.1	3.967	3.146	2.969	2.294	2.209	2.288	2.082	2.571	2.695	2.497	1.882	2.055	1.898	2.110	1.988	1.821	1.563	1.531	1.200	1.582	1.267	1.343	1.286	1.307	1.289	1.226	1.202	1.024	0.982	0.938	0.760	0.996	0.928	0.677	0.907	1.050	0.845	0.938	1.077	1.179	1.284	0.768	0.684	0.809	0.921	0.864	0.907	0.771	0.818	0.968	0.790	0.846	0.482	0.625	0.584
645.0	44.48	42.07	37.03	32.43	24.79	25.57	26.35	28.37	34.43	43.80	51.32	50.49	57.69	52.62	69.96	36.82	17.94	14.02	12.09	34.79	553.0	440.6	5.603	2.472	2.403	2.291	2.545	2.023	2.321	2.107	1.906	2.197	1.818	1.737	1.628	1.551	1.816	1.378	1.485	1.518	1.307	1.334	1.434	1.200	1.073	1.002	0.918	1.124	1.030	0.900	0.849	0.911	0.806	0.831	0.711	0.686	0.748	0.803	0.804	1.059	0.927	1.035	1.027	0.815	0.773	0.665	0.620	0.691	0.701	0.806	0.830	1.008	0.967	0.666	0.688	0.613	0.699
650.0	45.40	37.37	43.73	28.15	22.59	27.31	21.97	24.16	31.73	37.77	50.55	50.47	54.08	47.48	61.23	46.29	19.73	12.67	10.39	13.72	204.4	716.1	38.62	3.210	2.219	2.320	2.555	2.037	1.733	2.341	2.025	1.862	1.514	1.617	1.325	1.477	1.493	1.346	1.403	1.230	1.141	1.066	1.297	0.948	0.963	1.232	0.928	0.956	1.105	0.755	0.708	0.855	0.799	0.624	0.693	0.571	0.746	0.776	0.912	0.850	0.845	0.928	1.055	0.849	0.938	0.845	0.638	0.660	0.760	0.741	0.834	0.974	0.925	0.976	0.793	0.506	0.505
