Sample:	'1
File name:	g2025082004ÕÂÆë¹µ¶ÏÃæ2±¶.FD3
Run date:	'15:54:22, 08/20/2025
Operator:	Administrator
Comment:	'

Instrument
Model:	F-2700 FL Spectrophotometer
Serial number:	23B8-004
ROM Version:	4J14000 07

Instrument parameters
Measurement type:	3-D scan
Data mode:	Fluorescence
EX  Start WL:	220.0 nm
EX  End WL:	600.0 nm
EX Sampling interval:	5.0 nm
EM  Start WL:	230.0 nm
EM  End WL:	650.0 nm
EM Sampling interval:	5.0 nm
Scan speed:	12000 nm/min
EX Slit:	5.0 nm
EM Slit:	5.0 nm
PMT Voltage:	700 V
Response:	Auto 
Corrected spectra:	Off
Contour interval:	50.000

Peak integration
Integration method:	Rectangular
Sensitivity:	1
Threshold:	1.000

Peaks
No.	ApexEX/EM(nm)	Height(Data)
1	225.0/590.0	41.65
2	225.0/600.0	40.96
3	230.0/505.0	253.7
4	230.0/595.0	39.48
5	235.0/255.0	314.7
6	235.0/510.0	230.7
7	240.0/265.0	376.9
8	240.0/340.0	1894
9	240.0/525.0	216.7
10	245.0/270.0	381.5
11	245.0/535.0	188.1
12	250.0/275.0	499.1
13	250.0/550.0	159.6
14	255.0/280.0	594.4
15	255.0/560.0	133.5
16	260.0/290.0	608.3
17	260.0/575.0	118.1
18	265.0/590.0	107.5
19	270.0/300.0	1217
20	270.0/600.0	110.8
21	275.0/305.0	1295
22	275.0/610.0	92.46
23	280.0/625.0	77.22
24	300.0/340.0	3108
25	335.0/385.0	432.1
26	350.0/400.0	373.6
27	365.0/420.0	311.7
28	440.0/520.0	31.13
29	485.0/265.0	2.304
30	485.0/340.0	9.586
31	495.0/270.0	2.180
32	505.0/275.0	3.291
33	510.0/280.0	3.526
34	520.0/285.0	3.941
35	530.0/290.0	3.651
36	540.0/295.0	5.581
37	545.0/300.0	6.128
38	550.0/305.0	6.750

Data points
	220.0	225.0	230.0	235.0	240.0	245.0	250.0	255.0	260.0	265.0	270.0	275.0	280.0	285.0	290.0	295.0	300.0	305.0	310.0	315.0	320.0	325.0	330.0	335.0	340.0	345.0	350.0	355.0	360.0	365.0	370.0	375.0	380.0	385.0	390.0	395.0	400.0	405.0	410.0	415.0	420.0	425.0	430.0	435.0	440.0	445.0	450.0	455.0	460.0	465.0	470.0	475.0	480.0	485.0	490.0	495.0	500.0	505.0	510.0	515.0	520.0	525.0	530.0	535.0	540.0	545.0	550.0	555.0	560.0	565.0	570.0	575.0	580.0	585.0	590.0	595.0	600.0
230.0	20.75	488.2	1247	383.7	14.07	2.492	2.051	1.930	1.975	1.447	1.871	1.497	1.313	1.487	1.240	1.177	1.131	0.975	0.838	0.712	0.477	0.374	0.415	0.432	0.327	0.333	0.363	0.206	0.300	0.279	0.165	0.268	0.276	0.163	0.152	0.195	0.177	0.172	0.147	0.099	0.156	0.218	0.224	0.147	0.084	0.137	0.570	2.956	5.390	4.183	1.632	0.306	0.079	0.074	0.062	0.057	0.053	0.099	0.069	0.040	0.021	0.034	0.043	0.042	0.082	0.024	0.034	0.054	0.065	0.033	0.026	0.007	0.012	0.068	0.048	0.021	0.041
235.0	56.56	138.3	780.0	1381	440.2	25.73	3.164	2.126	1.942	1.185	2.763	1.465	1.652	1.174	1.502	1.089	1.055	1.055	0.963	1.038	0.547	0.403	0.434	0.334	0.403	0.410	0.295	0.266	0.332	0.266	0.179	0.261	0.166	0.160	0.127	0.212	0.150	0.192	0.159	0.117	0.181	0.197	0.185	0.259	0.247	0.161	0.295	0.781	1.984	4.262	6.666	7.463	3.358	0.812	0.122	0.097	0.122	0.123	0.069	0.052	0.061	0.079	0.068	0.045	0.080	0.066	0.031	0.012	0.024	0.075	0.046	-0.020	0.045	0.069	0.043	0.020	0.093
240.0	94.75	93.01	232.3	1164	1598	347.0	12.82	3.124	1.942	1.263	2.462	1.730	1.753	1.620	1.525	1.292	1.049	0.925	1.139	0.796	0.555	0.437	0.386	0.340	0.482	0.444	0.314	0.376	0.257	0.223	0.101	0.295	0.127	0.229	0.226	0.125	0.125	0.121	0.133	0.111	0.166	0.123	0.183	0.180	0.306	0.378	0.478	0.260	0.532	1.267	3.484	9.388	11.30	8.511	3.336	0.458	0.133	0.117	0.070	0.083	0.027	0.089	0.085	0.027	0.113	0.119	0.050	0.034	0.083	0.039	0.074	-0.025	0.058	0.053	0.028	0.017	0.032
245.0	73.08	149.4	107.8	389.0	1672	1667	260.4	8.328	2.208	2.306	2.684	1.579	1.917	2.147	1.396	1.313	1.251	1.020	0.864	0.717	0.574	0.468	0.346	0.478	0.447	0.420	0.485	0.333	0.243	0.261	0.150	0.227	0.183	0.311	0.328	0.102	0.152	0.170	0.077	0.130	0.140	0.136	0.067	0.184	0.213	0.448	0.688	0.541	0.388	0.414	0.894	2.986	7.436	14.02	15.26	7.933	2.094	0.314	0.065	0.136	0.074	0.180	0.083	0.019	0.185	0.074	0.058	0.054	0.120	0.031	0.018	-0.028	0.058	0.060	0.045	0.016	0.154
250.0	28.16	121.3	213.9	172.3	531.9	1580	2078	805.3	48.50	4.239	3.117	2.721	2.638	1.792	1.660	1.515	1.469	0.992	0.984	0.785	0.522	0.537	0.381	0.488	0.457	0.382	0.439	0.328	0.202	0.337	0.261	0.231	0.198	0.200	0.214	0.198	0.205	0.177	0.135	0.151	0.155	0.159	0.125	0.152	0.158	0.218	0.378	0.619	0.816	0.725	0.590	0.857	1.871	4.380	8.394	12.58	16.57	15.56	9.079	2.645	0.387	0.080	0.061	0.112	0.115	0.148	0.036	0.086	0.086	0.098	0.010	0.039	0.042	0.026	0.088	0.030	0.079
255.0	11.97	37.55	156.5	314.7	212.3	402.3	1541	2979	1128	46.33	4.113	3.693	3.432	2.035	2.318	1.530	1.684	1.157	1.144	1.081	0.543	0.441	0.415	0.494	0.451	0.602	0.292	0.296	0.322	0.313	0.325	0.231	0.228	0.185	0.297	0.221	0.173	0.168	0.119	0.246	0.226	0.138	0.189	0.211	0.225	0.117	0.128	0.213	0.384	0.776	1.373	1.320	0.909	1.125	2.022	3.053	5.584	13.41	25.52	27.58	15.03	3.098	0.205	0.084	0.129	0.173	0.071	0.147	0.038	0.112	0.031	0.075	0.079	0.060	0.097	0.067	0.066
260.0	12.61	17.76	56.02	273.3	316.0	139.4	464.7	2439	3679	266.0	21.85	4.666	3.513	3.150	2.279	1.980	1.729	1.430	1.267	1.095	0.644	0.498	0.471	0.499	0.594	0.492	0.481	0.289	0.399	0.343	0.409	0.227	0.235	0.260	0.208	0.272	0.207	0.164	0.076	0.133	0.218	0.149	0.129	0.123	0.158	0.081	0.101	0.114	0.260	0.294	0.767	1.678	1.844	1.174	0.755	0.791	1.400	3.596	10.26	23.31	34.91	26.46	12.00	1.732	0.180	0.118	0.081	0.068	0.094	0.143	0.081	0.087	0.062	0.086	0.091	0.059	0.059
265.0	13.98	10.98	21.11	116.0	376.9	240.6	133.9	805.0	3593	3634	207.9	10.58	4.755	3.347	2.717	2.137	2.069	1.687	1.172	0.995	0.814	0.566	0.553	0.430	0.591	0.429	0.344	0.423	0.421	0.335	0.309	0.194	0.279	0.308	0.245	0.230	0.171	0.255	0.104	0.134	0.245	0.230	0.156	0.142	0.162	0.123	0.204	0.128	0.154	0.118	0.274	0.689	1.639	2.304	1.607	0.647	0.451	0.912	2.532	6.320	16.67	31.87	40.64	23.96	7.623	0.634	0.115	0.141	0.244	0.086	0.051	0.124	0.074	0.058	0.149	0.018	0.088
270.0	16.63	13.26	17.59	37.40	170.6	381.5	272.1	226.2	1110	3370	3596	810.8	45.11	4.729	3.597	2.681	2.008	1.650	1.374	1.103	0.922	0.733	0.640	0.513	0.457	0.454	0.479	0.498	0.446	0.325	0.366	0.268	0.276	0.268	0.214	0.272	0.242	0.239	0.170	0.143	0.152	0.170	0.135	0.238	0.247	0.173	0.180	0.159	0.166	0.177	0.189	0.287	0.495	1.111	1.695	2.180	1.926	1.046	0.827	1.581	3.947	8.578	17.49	27.55	30.99	33.19	16.44	6.832	0.729	0.130	0.147	0.111	0.082	0.086	0.131	0.134	0.072
275.0	31.28	30.52	30.99	27.83	52.39	158.2	499.1	310.3	291.8	841.3	2738	6140	1091	41.06	5.158	3.309	2.746	2.093	1.559	1.482	1.276	0.915	0.633	0.540	0.668	0.526	0.541	0.429	0.426	0.345	0.569	0.292	0.317	0.370	0.328	0.292	0.279	0.244	0.155	0.322	0.182	0.142	0.159	0.244	0.250	0.224	0.203	0.249	0.226	0.179	0.229	0.190	0.165	0.355	0.582	0.861	2.221	3.291	2.414	0.972	1.055	2.195	4.148	6.550	8.717	19.56	41.34	53.02	26.44	6.936	0.506	0.171	0.202	0.139	0.127	0.126	0.069
280.0	57.38	69.39	61.25	43.84	33.06	55.60	291.0	594.4	228.9	244.5	815.9	4514	5878	737.9	16.95	4.443	3.524	2.666	2.141	1.657	1.425	1.112	0.687	0.765	0.654	0.572	0.572	0.554	0.450	0.623	0.313	0.396	0.319	0.501	0.363	0.357	0.308	0.246	0.185	0.370	0.258	0.237	0.281	0.282	0.299	0.295	0.227	0.262	0.300	0.253	0.302	0.209	0.223	0.264	0.294	0.415	0.828	1.915	3.526	3.029	1.642	0.857	1.310	1.765	2.298	4.996	13.13	32.66	53.38	34.55	20.43	3.225	0.361	0.149	0.203	0.198	0.170
285.0	101.5	125.2	125.2	77.03	49.61	39.95	124.2	509.7	539.4	192.1	292.5	1440	5727	4899	118.5	8.556	4.469	3.580	2.445	1.876	1.507	1.125	0.908	0.832	0.745	0.845	0.587	0.556	0.478	0.576	0.364	0.427	0.424	0.576	0.614	0.401	0.322	0.293	0.259	0.322	0.229	0.244	0.448	0.509	0.377	0.339	0.516	0.482	0.434	0.426	0.321	0.325	0.305	0.289	0.306	0.364	0.450	0.672	1.721	3.302	3.941	2.388	1.087	0.864	0.932	1.543	3.459	8.489	20.01	40.28	60.52	31.54	13.63	1.199	0.253	0.161	0.165
290.0	181.1	241.6	245.9	157.0	94.28	73.07	98.88	248.4	608.3	563.4	361.5	559.7	1806	4495	4566	452.9	27.34	4.701	3.341	2.499	1.689	1.277	1.154	1.034	0.875	0.838	0.676	0.631	0.551	0.541	0.531	0.465	0.508	0.567	0.597	0.534	0.469	0.438	0.374	0.285	0.272	0.361	0.392	0.512	0.497	0.604	0.680	0.759	0.759	0.704	0.598	0.506	0.555	0.401	0.361	0.391	0.447	0.555	0.863	1.464	2.388	3.371	3.651	3.197	1.930	1.626	1.949	2.981	5.585	10.85	21.07	30.82	43.88	40.31	20.73	10.54	1.407
295.0	272.1	379.8	372.5	243.0	146.9	119.4	138.4	202.6	370.8	803.4	909.6	551.4	722.5	1226	2981	5638	631.9	23.14	4.626	3.153	2.296	2.048	1.256	0.960	0.998	0.993	0.708	0.749	0.642	0.525	0.548	0.429	0.562	0.534	0.591	0.625	0.569	0.572	0.439	0.427	0.434	0.431	0.444	0.591	0.632	0.800	1.058	1.098	1.277	0.978	0.938	0.879	0.703	0.594	0.577	0.654	0.643	0.776	0.959	1.064	1.387	1.852	2.795	4.045	5.581	4.200	2.557	2.415	3.167	4.015	5.886	7.813	11.16	18.23	40.51	66.93	32.34
300.0	331.4	460.6	435.2	307.2	191.0	155.8	179.2	234.8	345.3	617.2	1217	860.8	573.5	506.8	884.5	4200	5032	89.10	11.02	4.080	2.853	2.190	1.821	1.217	1.039	0.988	0.847	0.713	0.589	0.728	0.522	0.499	0.505	0.626	0.739	0.632	0.727	0.755	0.574	0.518	0.480	0.456	0.441	0.736	0.714	0.914	1.170	1.353	1.389	1.112	1.019	0.996	0.905	0.745	0.719	0.759	0.790	0.949	1.040	1.117	1.465	1.778	2.004	2.803	4.783	6.128	5.606	3.651	3.085	2.771	3.017	2.879	3.163	4.884	11.69	31.93	54.37
305.0	344.7	487.1	486.0	335.4	218.7	188.4	216.6	286.5	386.2	555.4	1019	1295	701.8	403.1	344.6	1285	5024	3925	71.67	8.322	4.102	2.854	2.036	1.362	1.154	1.227	1.103	0.783	0.756	0.724	0.582	0.606	0.667	0.787	0.769	0.605	0.690	0.628	0.541	0.597	0.554	0.485	0.527	0.717	0.895	0.974	1.073	1.424	1.385	1.228	1.228	1.190	1.113	0.887	0.797	0.881	1.028	1.223	1.194	1.447	1.669	1.839	2.116	2.596	3.534	4.669	6.750	6.446	4.449	3.166	2.686	2.140	2.055	2.048	3.353	8.088	17.74
310.0	361.0	494.9	517.7	385.3	277.9	264.4	286.3	343.7	450.6	596.7	834.7	1188	1152	588.6	328.0	453.3	1560	3808	3827	303.8	24.48	5.052	2.669	1.749	1.555	1.261	1.192	0.956	0.879	0.804	0.711	0.568	0.636	0.622	0.770	0.753	0.613	0.690	0.589	0.607	0.557	0.472	0.643	0.708	0.927	1.010	1.260	1.570	1.460	1.312	1.341	1.401	1.300	1.236	1.259	1.238	1.429	1.500	1.515	1.621	1.969	2.205	2.522	2.911	3.339	3.958	5.025	5.664	6.174	6.358	4.899	3.441	2.643	2.732	2.719	3.885	5.842
315.0	431.8	573.8	623.8	550.4	509.0	485.6	455.0	495.0	613.6	756.9	952.6	1123	1315	1226	751.3	648.6	840.4	1286	2935	4479	467.1	25.59	5.289	2.746	1.919	1.606	1.474	1.259	1.121	0.892	0.834	0.725	0.708	0.795	0.667	0.819	0.833	0.727	0.749	0.623	0.572	0.652	0.713	0.716	0.990	1.281	1.371	1.901	1.772	1.867	1.815	2.329	2.290	2.296	2.414	2.228	2.712	2.426	2.538	2.620	2.931	3.103	3.732	4.383	4.864	5.725	6.079	6.757	7.779	8.676	10.41	10.50	9.425	9.078	8.668	9.727	10.69
320.0	499.8	729.6	825.0	844.9	860.6	852.1	741.9	696.3	840.9	1039	1264	1429	1553	1809	1581	1266	1259	1165	1414	4080	3895	339.5	12.22	4.134	3.018	2.121	1.904	1.660	1.231	0.971	0.972	0.985	0.842	0.923	0.908	0.982	0.988	1.009	0.889	0.755	0.843	0.884	1.060	1.061	1.246	1.671	1.907	2.374	2.633	2.768	2.942	3.606	4.136	4.559	4.614	4.132	4.399	3.542	3.535	3.745	4.182	4.800	5.847	6.894	7.682	8.729	9.593	11.05	12.44	13.17	15.84	18.60	20.22	20.68	21.25	21.68	23.50
325.0	580.3	834.7	1009	1106	1142	1133	941.3	841.5	1015	1250	1508	1707	1806	2007	2245	1868	1711	1440	1201	1837	4452	3101	55.51	6.668	3.797	2.578	2.013	1.925	1.351	1.253	1.314	1.095	0.876	0.874	0.958	1.056	1.197	1.078	0.995	1.096	1.033	1.154	1.205	1.342	1.441	1.830	2.338	2.943	3.241	3.373	3.927	4.635	5.365	6.071	5.883	5.485	5.805	4.934	4.309	4.730	5.111	6.168	7.337	8.703	9.941	11.51	12.89	14.67	16.09	17.96	19.92	22.70	26.57	30.20	31.24	32.34	33.19
330.0	663.2	966.6	1191	1335	1406	1342	1103	975.3	1147	1401	1691	1911	2027	2183	2402	2458	2191	1736	1326	1199	1629	3232	3207	241.2	14.82	3.725	2.782	2.342	1.694	1.686	1.447	1.202	1.005	0.988	1.002	0.997	1.087	1.045	1.153	1.155	1.212	1.199	1.247	1.551	1.798	1.991	2.559	3.370	3.974	4.209	4.593	5.939	6.411	7.348	6.920	6.830	6.743	5.520	5.165	5.552	6.132	7.343	8.684	9.862	11.43	13.32	14.66	16.42	18.77	20.88	24.11	27.02	30.37	34.68	37.65	40.34	42.61
335.0	782.0	1121	1405	1634	1749	1659	1326	1136	1326	1602	1948	2208	2378	2589	2743	2861	2940	2291	1659	1279	795.9	868.7	2519	3622	372.9	11.83	3.995	2.958	2.447	1.831	1.605	1.425	1.223	1.203	1.158	1.160	1.075	1.310	1.317	1.274	1.560	1.422	1.515	1.905	1.846	2.431	2.818	4.051	4.697	5.013	5.716	7.667	8.280	9.263	8.646	8.075	8.209	6.655	6.051	6.757	7.488	8.472	10.03	11.78	13.83	16.32	17.93	20.56	22.68	25.89	29.16	33.31	38.10	42.41	46.27	49.00	53.60
340.0	846.2	1169	1486	1736	1894	1799	1408	1192	1401	1695	2055	2334	2521	2753	2908	2959	3108	2640	1834	1364	653.4	317.7	735.6	3298	3260	55.33	7.064	3.675	2.634	2.160	1.768	1.639	1.232	1.219	1.131	1.103	1.163	1.333	1.421	1.558	1.359	1.544	1.550	1.923	2.177	2.688	3.135	4.101	5.022	5.164	6.014	8.080	8.803	9.586	9.316	8.945	8.764	7.022	6.169	6.770	8.070	8.647	10.56	12.48	14.84	17.35	18.88	21.63	24.25	27.71	31.24	36.15	40.89	46.41	49.44	52.58	56.09
345.0	814.4	1148	1456	1698	1864	1769	1386	1181	1373	1635	1997	2254	2457	2674	2834	2848	2884	2625	1905	1349	610.2	205.3	225.3	1057	3888	2680	46.48	4.935	3.484	2.466	2.174	1.717	1.453	1.572	1.269	1.234	1.262	1.235	1.446	1.576	1.467	1.639	1.588	1.802	1.979	2.649	3.164	4.384	4.724	5.089	5.922	8.290	9.006	9.395	8.891	8.654	8.659	7.100	6.160	6.390	7.548	8.843	10.27	12.02	13.44	16.43	18.64	20.57	22.91	26.63	29.89	34.56	39.79	44.47	46.95	50.59	54.08
350.0	747.8	1088	1395	1633	1767	1693	1344	1135	1291	1548	1871	2108	2293	2506	2661	2665	2652	2339	1910	1390	609.7	204.8	134.6	293.4	1208	2885	2797	215.9	12.66	3.282	2.486	1.822	1.518	1.320	1.225	1.205	1.160	1.178	1.485	1.429	1.309	1.431	1.411	1.644	1.946	2.351	3.010	4.175	4.553	4.811	5.642	7.592	8.405	8.892	8.469	7.868	8.248	6.856	5.914	6.281	7.244	8.388	9.664	11.28	13.08	14.88	17.12	19.41	21.73	24.86	28.04	32.26	36.79	40.81	43.20	46.80	50.05
355.0	728.2	1025	1293	1543	1682	1609	1279	1085	1229	1468	1745	1953	2133	2337	2474	2486	2471	2124	1718	1448	696.2	242.0	143.1	145.5	321.4	721.0	2202	3225	342.3	9.980	3.382	2.498	1.576	1.612	1.387	1.281	1.189	1.175	1.214	1.401	1.261	1.277	1.448	1.511	1.807	2.226	2.605	3.801	4.392	4.620	5.092	7.253	7.843	8.442	8.314	7.633	7.454	6.351	5.684	6.303	6.876	7.844	9.076	10.54	12.06	13.66	15.52	17.39	20.13	22.78	25.59	29.52	34.14	37.27	39.97	42.77	45.79
360.0	677.1	943.1	1215	1443	1580	1492	1200	1040	1148	1371	1628	1800	1958	2143	2271	2293	2256	1945	1545	1318	791.9	302.1	171.1	134.5	142.9	209.4	636.3	2944	2994	51.91	5.688	3.063	2.019	1.480	1.491	1.620	1.234	1.278	1.279	1.328	1.174	1.138	1.498	1.548	1.821	2.050	2.295	3.239	4.031	4.201	4.953	6.407	7.069	7.814	7.703	6.923	7.026	6.111	5.562	5.756	6.365	7.417	8.389	10.00	11.33	12.72	13.99	15.70	18.27	21.03	23.52	26.43	29.94	33.64	35.18	38.29	41.64
365.0	636.8	861.1	1116	1320	1444	1368	1145	981.5	1079	1261	1491	1646	1776	1940	2049	2054	2034	1761	1405	1153	777.1	416.3	213.6	154.5	121.7	108.5	185.0	952.2	3600	2473	42.61	4.285	2.631	1.745	1.683	1.570	1.132	1.327	1.274	1.300	1.188	1.051	1.285	1.298	1.446	1.886	2.152	3.017	3.356	3.960	4.280	6.019	6.304	7.134	6.913	6.331	6.287	5.438	5.201	5.238	5.842	6.905	7.816	8.998	10.32	10.98	12.51	13.83	16.08	18.10	20.48	23.58	26.84	29.69	31.32	33.62	36.00
370.0	548.6	764.0	1016	1190	1295	1232	1047	919.9	1002	1150	1333	1474	1576	1705	1799	1809	1790	1569	1263	1029	669.3	485.1	343.1	209.1	148.7	113.6	101.9	256.5	1128	2771	2710	198.2	11.56	2.778	2.071	1.487	1.341	1.228	1.334	1.191	1.058	1.004	1.229	1.245	1.355	1.831	2.069	2.753	3.098	3.515	4.162	5.240	5.777	6.285	6.389	5.725	5.719	5.001	4.754	4.836	5.285	6.084	6.806	7.549	8.865	9.833	10.46	11.87	13.66	15.59	17.26	19.38	22.51	24.96	26.22	28.87	30.57
375.0	521.6	705.4	946.4	1087	1185	1126	965.4	870.5	921.8	1051	1197	1307	1388	1496	1569	1578	1561	1384	1139	938.3	618.3	438.7	440.8	327.5	199.3	148.2	112.5	122.5	297.1	696.9	2186	2984	300.7	9.856	3.096	1.896	1.567	1.328	1.186	1.135	1.145	1.141	1.026	1.373	1.409	1.493	1.841	2.365	2.943	3.325	3.542	4.798	5.169	5.672	5.355	5.132	5.244	4.489	4.171	4.538	4.861	5.717	5.860	6.625	7.872	8.426	8.835	10.02	11.13	12.95	14.13	16.14	18.82	20.53	21.92	23.62	24.92
380.0	475.3	684.9	866.5	985.8	1073	1047	908.6	829.0	862.0	970.3	1109	1201	1263	1348	1411	1407	1402	1259	1052	886.4	605.6	430.2	419.8	425.1	268.9	178.6	137.4	110.8	125.9	198.5	635.5	2804	2614	44.67	5.101	2.498	1.685	1.565	1.186	1.134	1.097	1.045	0.986	1.209	1.449	1.443	1.897	2.147	2.661	3.051	3.345	4.536	4.773	5.227	4.991	4.678	4.703	4.275	3.872	4.194	4.416	5.029	5.163	5.924	7.082	7.494	7.576	8.717	9.903	11.08	12.08	14.19	15.83	17.41	18.38	19.91	21.41
385.0	451.7	628.5	796.5	923.2	990.0	979.9	866.1	779.1	812.9	904.2	1017	1085	1151	1211	1267	1260	1254	1140	967.6	839.6	592.4	443.9	397.0	432.1	367.6	225.1	165.7	128.3	103.3	100.2	186.8	904.1	3009	2088	36.68	3.727	2.453	1.616	1.340	1.196	1.204	1.000	0.890	1.209	1.388	1.474	1.819	2.085	2.481	2.683	3.090	4.005	4.269	4.786	4.573	4.328	4.556	4.017	3.862	3.868	4.417	4.586	5.001	5.206	5.779	6.457	7.082	7.603	9.033	9.631	10.82	12.13	13.57	14.42	15.79	16.74	18.40
390.0	400.7	593.0	746.0	847.3	922.5	891.2	800.9	740.5	766.4	830.8	915.1	971.3	1023	1063	1102	1105	1098	1013	885.7	779.2	589.2	466.3	407.9	392.9	399.5	330.8	218.4	160.9	124.9	101.2	100.0	244.1	920.6	2211	2108	163.0	10.42	2.416	1.630	1.291	1.218	1.032	0.967	1.068	1.229	1.355	1.628	1.943	2.309	2.547	2.879	3.782	3.894	4.068	4.115	4.088	3.973	3.830	3.639	3.455	3.858	4.083	4.500	4.734	5.115	5.416	5.869	6.435	7.242	7.846	8.860	9.765	10.94	11.57	12.88	13.89	14.48
395.0	389.0	533.8	677.3	797.6	833.4	831.3	747.0	702.5	714.0	771.0	822.0	879.2	916.4	942.1	968.8	972.8	967.5	899.0	812.2	722.9	583.1	483.2	430.1	396.4	372.1	382.4	313.5	207.9	158.7	125.1	101.7	112.1	242.0	549.6	1616	2391	260.2	9.404	2.359	1.660	1.453	1.071	1.137	1.168	1.268	1.240	1.563	1.758	2.289	2.325	2.651	3.168	3.596	3.751	3.604	3.685	3.748	3.583	3.231	3.238	3.712	3.746	3.771	4.204	4.406	4.307	4.933	5.709	6.116	6.334	7.532	7.381	8.887	9.268	10.15	11.00	11.39
400.0	362.7	499.2	668.0	753.3	807.0	794.6	710.0	684.1	695.4	728.6	781.5	821.2	837.6	864.6	883.5	885.2	879.1	825.7	760.0	688.7	575.8	486.9	444.2	410.2	369.1	358.9	373.6	271.2	189.1	150.7	118.7	96.47	101.1	154.3	457.7	2034	2170	39.17	4.641	1.904	1.689	1.188	1.216	1.343	1.063	1.278	1.452	1.635	2.018	2.191	2.445	3.082	3.399	3.600	3.483	3.316	3.407	3.286	3.245	3.226	3.511	3.320	3.335	4.100	3.900	4.200	4.585	4.966	5.040	5.584	6.267	6.617	7.489	8.172	8.691	9.118	9.725
405.0	354.1	484.1	663.9	719.1	774.3	754.3	694.0	663.7	663.9	697.4	739.0	764.1	782.8	805.0	807.3	806.6	806.3	771.4	713.9	653.6	560.8	489.2	454.7	419.8	382.7	349.7	364.2	339.9	227.9	172.4	139.5	105.5	82.13	73.59	130.0	625.3	2271	1787	33.64	3.121	1.817	1.331	1.190	1.147	1.107	1.400	1.610	1.688	1.935	2.018	2.244	3.248	3.082	3.418	3.438	3.052	3.338	3.198	3.173	3.232	3.513	3.361	3.308	3.738	3.786	3.987	4.397	4.471	4.375	5.146	5.302	5.945	6.878	7.043	7.263	8.175	8.845
410.0	325.3	468.0	611.0	674.6	716.1	708.2	667.8	644.4	636.9	655.1	682.9	703.1	712.0	729.7	731.8	724.0	725.8	695.4	656.1	612.8	540.8	483.9	455.2	426.9	392.5	359.5	339.0	345.8	304.4	216.0	164.6	125.1	91.58	68.69	64.60	165.4	669.2	1725	1680	154.7	9.707	2.001	1.422	1.211	1.228	1.304	1.532	1.661	1.869	1.968	2.189	2.938	2.937	3.037	3.161	3.075	3.117	3.125	3.113	3.055	3.072	3.030	3.082	3.238	3.474	3.567	3.784	3.811	4.073	4.339	4.620	5.188	5.533	6.014	5.999	6.605	7.241
415.0	308.6	440.1	564.3	638.8	671.7	665.9	641.6	618.4	608.9	622.8	639.3	648.4	648.0	662.0	654.9	649.5	646.8	633.1	596.7	566.9	512.0	476.5	447.6	426.7	397.5	367.9	338.3	315.4	323.7	285.6	196.7	144.3	108.2	79.48	60.81	69.43	171.5	420.3	1155	1949	244.3	9.405	1.928	1.503	1.297	1.390	1.328	1.624	1.963	1.908	2.006	2.622	2.630	2.867	2.952	2.882	3.178	2.832	2.803	2.990	2.863	2.873	2.899	2.860	3.009	3.365	3.449	3.567	3.498	3.714	4.016	4.241	4.492	5.258	4.864	5.638	5.571
420.0	279.6	427.0	543.2	599.6	641.8	635.5	616.7	601.4	581.5	597.8	604.7	616.8	617.8	612.6	608.8	599.1	595.8	583.6	558.6	538.6	488.6	461.6	439.4	419.9	396.8	367.3	339.9	311.4	300.5	311.7	237.2	162.1	120.9	91.45	67.20	54.00	65.15	112.6	315.4	1450	1788	193.8	4.359	1.866	1.492	1.523	1.403	1.614	1.821	1.709	1.838	2.533	2.630	2.782	2.676	2.583	2.897	2.792	2.695	2.776	2.579	2.707	2.657	2.763	2.948	2.959	3.258	3.217	3.105	3.434	3.404	3.903	4.295	4.697	4.509	4.772	5.015
425.0	284.8	400.7	524.8	576.6	618.3	612.2	589.4	574.9	576.5	574.7	574.3	583.2	576.6	577.9	568.2	556.1	559.8	544.9	527.5	507.1	468.2	443.8	428.3	413.5	394.4	364.0	342.8	312.3	290.0	294.8	276.1	189.5	133.0	101.4	75.73	57.15	46.65	47.08	86.65	425.7	1688	1443	32.66	2.961	1.913	1.535	1.410	1.628	1.723	1.761	2.091	2.222	2.625	2.815	2.674	2.513	2.848	2.728	2.657	2.617	2.754	2.518	2.511	2.706	2.696	2.706	2.962	3.014	3.105	3.206	3.110	3.532	3.624	3.972	4.012	4.289	4.241
430.0	288.0	387.9	479.7	555.1	589.1	585.6	569.7	562.5	550.9	554.4	556.0	548.1	538.5	536.7	527.8	514.5	511.3	499.7	484.2	469.1	442.3	423.5	414.6	399.0	383.5	361.9	341.4	316.6	288.0	272.9	269.4	236.3	164.0	115.3	87.58	66.78	51.08	39.65	40.54	110.1	477.9	1199	1358	423.1	10.84	2.062	1.608	1.661	1.669	1.666	1.935	2.213	2.256	2.566	2.537	2.345	2.637	2.514	2.613	2.614	2.573	2.528	2.574	2.647	2.618	2.699	2.688	2.848	2.721	2.926	2.789	3.066	3.161	3.459	3.324	3.724	3.659
435.0	392.6	346.1	443.3	520.0	566.6	560.0	552.8	539.8	528.3	532.9	525.1	521.4	508.9	496.0	486.5	471.5	466.5	461.0	443.5	433.5	415.1	397.7	395.9	381.8	371.2	355.4	338.7	317.1	293.0	271.4	249.4	239.1	206.7	140.1	101.6	78.08	60.52	44.52	36.09	44.53	121.0	285.7	813.6	1795	250.3	12.62	2.143	1.928	1.719	1.694	1.830	2.216	2.348	2.255	2.426	2.394	2.491	2.480	2.381	2.733	2.480	2.388	2.436	2.617	2.400	2.450	2.461	2.579	2.664	2.611	2.621	2.757	2.989	3.093	2.885	3.092	3.074
440.0	554.6	387.3	441.7	504.2	533.9	547.4	546.3	532.0	514.5	517.2	503.9	506.1	483.3	475.5	459.6	445.5	439.6	427.7	417.2	408.6	391.7	383.1	378.4	368.4	361.5	347.8	332.9	312.4	292.4	273.2	244.3	223.6	219.6	168.9	114.3	86.34	67.41	51.39	39.86	33.34	44.81	76.71	215.1	1177	1704	206.6	6.342	2.339	1.901	1.693	1.891	2.037	2.298	2.206	2.355	2.198	2.510	2.513	2.569	2.660	2.541	2.622	2.309	2.481	2.526	2.498	2.363	2.493	2.345	2.490	2.678	2.457	2.678	2.793	2.805	2.975	2.887
445.0	606.7	528.4	421.1	476.7	509.0	519.2	515.3	516.2	510.8	498.5	494.0	478.4	461.6	450.7	433.8	416.6	412.7	400.3	394.8	386.7	374.0	363.0	360.8	354.8	347.4	334.3	324.7	307.9	289.3	268.3	244.1	215.0	204.5	189.5	132.3	94.04	75.51	57.88	44.95	34.45	30.64	32.01	59.69	328.3	1404	1431	30.27	3.618	2.265	1.964	1.835	2.153	2.175	2.163	2.338	2.075	2.425	2.501	2.256	2.372	2.256	2.291	2.169	2.446	2.389	2.235	2.372	2.361	2.228	2.290	2.281	2.292	2.492	2.544	2.731	2.862	2.954
450.0	427.7	816.1	455.0	437.4	476.6	481.1	488.3	484.6	484.2	474.1	467.4	455.2	433.8	418.8	392.4	380.6	373.0	367.7	359.7	351.7	339.1	333.4	330.8	327.7	323.5	314.1	304.0	290.7	279.7	261.9	236.5	209.0	185.3	176.3	156.6	111.6	81.54	63.82	50.68	39.48	31.34	26.09	27.77	84.63	380.4	1036	1285	435.4	11.08	2.398	1.991	2.106	2.282	2.167	2.189	2.203	2.311	2.371	2.253	2.207	2.237	2.140	2.148	2.267	2.175	2.197	2.079	2.126	2.218	1.901	2.113	2.192	2.252	2.263	2.498	2.482	2.472
455.0	272.2	858.7	779.3	406.5	435.4	442.9	450.0	454.6	448.7	440.2	434.3	421.6	402.0	385.0	355.6	347.4	337.4	330.6	323.3	318.5	305.5	303.4	302.5	299.6	296.3	289.8	281.6	271.7	261.8	249.2	228.7	202.4	175.6	156.7	151.1	133.8	93.52	68.76	55.11	44.98	35.28	28.23	23.46	32.43	95.12	242.3	616.5	1472	215.5	13.34	2.382	2.105	2.102	2.017	1.924	2.081	2.294	2.190	2.112	2.137	2.221	2.105	2.041	2.202	2.171	1.973	2.003	1.947	2.058	1.761	1.955	1.904	1.694	1.936	2.024	2.237	2.221
460.0	187.3	578.6	1125	460.6	411.6	419.0	423.0	432.7	433.5	416.4	414.6	397.3	374.2	352.2	333.5	316.7	311.0	304.3	295.7	292.4	281.8	279.1	277.9	279.8	274.4	270.8	265.4	256.9	247.1	236.4	219.1	193.4	169.8	149.2	135.1	135.2	108.3	73.91	58.08	47.44	37.67	29.75	24.18	21.78	32.85	62.72	155.6	828.6	1324	178.3	8.641	2.448	2.285	2.058	2.033	2.026	1.843	2.120	2.052	1.955	1.982	1.997	2.021	2.018	1.880	1.995	1.974	1.887	1.832	1.741	1.854	1.878	1.772	1.943	1.860	1.852	2.138
465.0	157.9	344.2	1184	700.3	386.6	395.1	407.5	406.5	402.8	394.9	388.8	373.1	353.0	329.3	310.1	291.5	284.4	274.5	273.6	271.5	258.7	258.8	255.6	261.1	254.2	250.0	248.6	240.9	232.9	223.7	208.7	187.5	165.7	142.2	125.9	121.9	114.8	83.11	60.31	49.24	39.81	31.80	25.83	21.13	20.53	24.27	42.94	219.7	981.3	1148	146.4	4.954	2.540	2.296	2.111	1.764	1.903	1.997	1.943	2.023	1.897	1.923	1.933	1.864	1.657	1.687	1.746	1.661	1.598	1.740	1.619	1.691	1.619	1.549	1.779	1.837	1.839
470.0	166.9	238.3	747.5	1164	467.3	361.8	369.0	368.9	363.7	368.4	359.1	342.7	322.6	299.3	275.1	260.0	254.3	244.8	240.5	237.5	232.7	229.4	229.3	230.6	226.9	224.1	220.5	217.8	213.4	206.1	193.8	175.8	154.2	134.1	117.9	106.1	104.2	93.12	68.91	51.67	41.20	33.58	27.68	22.77	19.16	17.03	18.52	56.67	257.8	732.3	939.5	362.3	11.96	2.583	2.031	1.881	1.920	1.857	1.846	1.793	1.804	1.787	1.766	1.751	1.577	1.667	1.659	1.647	1.521	1.537	1.488	1.553	1.543	1.517	1.644	1.536	1.552
475.0	173.3	198.7	369.6	1137	894.9	334.2	331.1	340.5	333.1	333.0	324.6	307.2	293.9	267.6	244.6	233.8	224.2	217.5	212.6	208.3	203.9	202.5	203.1	205.0	201.7	197.4	198.7	195.4	191.3	186.9	176.4	161.3	143.0	125.7	112.7	98.09	88.74	87.30	78.63	56.23	43.20	35.27	28.95	24.19	20.38	16.75	14.73	21.41	64.86	170.6	396.7	972.4	218.8	16.22	2.345	2.122	1.873	1.808	1.662	1.689	1.602	1.755	1.520	1.614	1.560	1.532	1.478	1.273	1.319	1.405	1.444	1.456	1.461	1.404	1.482	1.231	1.480
480.0	162.7	199.5	257.0	738.1	1295	403.7	308.7	313.7	312.9	306.4	300.7	287.6	268.2	246.9	229.5	214.5	206.1	199.5	194.3	188.7	186.2	184.0	185.9	184.0	184.8	183.0	182.7	181.5	179.5	173.1	165.0	149.8	134.8	122.0	105.3	93.05	82.57	77.15	78.38	63.53	44.78	35.28	29.60	25.50	21.53	17.57	14.94	14.22	22.54	44.89	99.17	492.7	1003	203.3	9.413	2.338	1.804	1.722	1.494	1.566	1.445	1.736	1.608	1.467	1.752	1.446	1.214	1.342	1.459	1.512	1.239	1.362	1.319	1.330	1.218	1.187	1.547
485.0	147.1	206.2	216.3	426.3	1381	579.3	299.1	300.1	299.5	290.3	286.4	268.2	251.9	230.3	218.1	201.7	193.4	185.0	183.2	177.8	174.9	170.6	170.7	170.2	171.7	169.8	168.8	167.8	168.8	162.4	154.5	141.0	129.1	115.5	101.0	89.42	78.70	71.07	71.33	68.71	49.68	36.98	30.61	26.67	22.44	18.71	16.03	13.37	13.96	17.66	29.14	130.5	674.8	930.5	156.8	4.943	2.083	1.719	1.718	1.409	1.356	1.488	1.407	1.297	1.521	1.312	1.106	1.366	1.264	1.340	1.081	1.327	1.100	1.329	1.099	1.238	1.340
490.0	117.6	215.4	209.9	264.5	853.5	1183	382.0	275.8	275.7	273.1	267.1	252.8	235.2	212.1	198.0	184.2	177.0	168.0	165.8	161.1	156.4	154.7	155.0	154.2	154.8	152.6	153.7	153.9	152.7	150.4	143.8	132.3	119.8	107.4	96.08	85.05	75.60	66.88	62.25	62.78	57.15	42.34	32.01	27.28	23.57	20.02	17.41	14.95	13.03	12.46	13.99	35.93	174.9	530.4	828.7	355.7	13.86	2.209	1.853	1.616	1.534	1.399	1.371	1.337	1.380	1.252	1.101	1.172	1.155	1.281	1.093	1.178	1.177	1.059	1.070	1.218	1.186
495.0	100.4	196.7	234.9	209.9	390.0	1222	810.0	259.3	254.2	251.7	242.8	227.7	214.9	194.5	180.1	166.6	156.2	153.2	147.9	145.4	140.6	136.7	136.8	138.5	137.5	136.3	136.4	136.2	134.3	137.6	129.8	120.7	110.1	99.70	89.89	79.54	71.89	63.14	55.81	52.97	53.22	49.35	35.20	28.04	23.74	21.52	18.27	16.31	13.91	12.48	11.74	15.25	45.43	124.5	348.7	908.5	245.2	18.20	2.109	1.560	1.438	1.342	1.284	1.140	1.298	1.077	1.036	1.091	1.145	1.071	1.207	1.014	1.139	1.023	1.033	1.115	0.916
500.0	75.18	151.2	248.3	201.8	250.2	810.3	1293	315.9	235.2	232.4	226.0	213.4	198.4	179.9	166.8	151.2	145.5	140.7	137.6	131.9	126.7	123.9	125.7	126.1	124.6	123.7	125.1	123.3	124.7	124.6	121.2	112.1	101.4	93.65	84.62	75.20	66.76	60.90	53.32	48.78	45.85	49.23	39.92	28.95	23.97	21.45	18.01	16.78	14.23	12.67	11.50	11.17	17.33	33.42	86.05	430.2	930.2	226.6	11.42	1.836	1.615	1.324	1.237	1.069	1.167	1.106	1.036	0.966	0.991	0.952	0.933	0.817	0.969	1.053	0.787	0.906	0.840
505.0	77.26	128.9	253.7	204.6	206.9	429.7	1443	579.1	215.2	213.7	212.6	197.6	185.6	168.9	154.9	141.7	131.4	128.8	126.0	122.3	116.1	112.7	114.3	115.2	115.0	112.3	114.6	112.3	115.0	113.4	111.2	103.8	93.67	86.50	78.73	71.92	63.08	57.53	50.88	46.01	40.89	43.75	42.82	31.62	24.09	20.77	18.55	16.50	14.66	12.89	11.71	10.27	10.72	13.53	24.63	110.2	561.7	892.4	179.2	4.732	1.676	1.666	1.358	1.153	1.139	1.191	1.031	1.001	1.021	1.002	0.986	1.130	0.973	0.922	0.771	0.756	0.901
510.0	65.18	108.0	190.7	230.7	180.0	236.1	891.4	1207	270.6	192.4	189.4	176.1	162.0	146.3	135.9	124.9	116.7	114.4	110.6	106.5	102.3	99.65	99.82	100.4	99.53	100.3	100.1	99.76	102.0	100.2	97.81	92.48	83.25	78.08	70.61	64.38	57.74	52.21	46.74	41.09	37.65	35.78	38.03	34.97	26.44	20.80	17.89	16.16	14.74	13.07	11.85	10.11	9.435	9.169	10.82	29.27	141.3	462.9	693.9	290.9	13.67	1.670	1.318	1.195	1.065	0.992	0.936	0.890	0.837	0.877	0.874	0.894	0.851	0.802	0.781	0.725	0.769
515.0	60.43	86.70	139.8	228.6	187.0	168.0	360.9	1347	685.9	179.4	168.8	156.0	145.4	131.2	119.1	110.8	105.2	101.2	97.27	92.30	88.91	85.65	85.54	85.93	88.60	86.53	86.40	87.56	89.05	89.05	86.71	79.88	74.55	68.75	62.47	56.92	52.24	47.27	42.61	37.36	34.90	31.78	30.80	32.62	29.98	21.78	17.71	15.48	13.93	12.66	11.56	10.47	9.194	7.928	7.839	11.40	35.43	106.5	254.3	678.0	248.4	17.93	1.346	1.164	0.811	0.879	0.868	0.909	0.836	0.855	0.771	0.733	0.775	0.630	0.783	0.698	0.700
520.0	64.24	85.48	111.8	202.1	203.2	152.5	198.2	892.0	1223	219.3	150.9	143.0	132.5	123.2	108.4	98.89	93.86	89.61	88.05	83.68	79.04	77.18	77.19	76.80	77.38	77.80	77.96	77.49	80.37	81.11	77.84	72.34	68.12	62.31	57.17	51.75	48.49	43.70	39.42	34.92	31.91	28.60	26.36	28.05	31.13	24.19	17.95	14.93	13.48	12.27	11.17	10.17	9.123	7.883	7.065	7.073	11.83	27.00	61.84	307.2	700.0	213.9	10.06	1.284	0.820	0.881	0.880	0.816	0.638	0.800	0.707	0.619	0.704	0.613	0.594	0.647	0.697
525.0	46.53	76.33	92.41	151.4	216.7	145.7	148.1	424.3	1512	312.5	139.0	134.6	120.2	111.3	98.30	91.82	84.52	81.96	78.59	74.84	72.87	69.36	68.91	68.85	69.13	69.51	69.71	71.03	71.36	72.33	69.60	65.38	60.75	57.10	51.68	47.12	44.00	39.18	36.86	32.56	29.51	27.31	24.53	23.61	27.79	25.81	18.91	14.65	13.35	11.90	10.57	9.431	9.221	7.810	6.727	5.944	6.277	9.362	16.63	76.42	389.2	644.1	163.0	3.700	1.062	0.932	0.853	0.712	0.640	0.706	0.600	0.565	0.710	0.589	0.466	0.636	0.587
530.0	43.41	65.34	81.21	106.7	197.7	160.6	123.8	198.2	974.3	1097	186.1	116.1	107.6	97.38	87.48	79.66	74.17	72.61	68.25	66.32	61.88	60.70	60.27	60.19	60.47	60.30	61.57	61.53	62.74	63.14	61.06	58.20	53.52	49.71	45.72	42.40	39.79	35.18	33.08	30.22	26.68	24.65	22.24	21.04	21.98	23.38	21.12	15.39	12.57	11.05	9.972	8.900	8.456	7.690	6.821	5.824	4.851	5.264	6.231	19.21	96.60	317.2	491.2	143.5	12.57	1.064	0.741	0.810	0.623	0.579	0.533	0.564	0.606	0.492	0.471	0.524	0.511
535.0	39.22	52.80	65.12	88.63	136.2	188.1	111.9	122.1	351.8	1384	561.7	104.8	92.72	82.73	76.73	68.84	63.49	63.69	60.02	56.14	54.03	52.95	51.77	51.15	52.05	51.32	52.70	52.62	53.30	53.78	53.23	50.87	46.66	42.93	39.87	36.99	34.03	31.15	28.95	26.32	23.87	21.32	19.68	18.46	18.03	18.15	19.59	17.33	12.53	10.20	9.356	8.324	7.542	6.883	6.564	5.780	4.554	3.890	3.815	6.287	23.25	72.51	171.8	465.5	235.9	15.36	0.934	0.817	0.694	0.544	0.480	0.573	0.507	0.533	0.477	0.415	0.468
540.0	31.20	52.08	55.68	72.80	97.03	183.8	121.9	98.44	156.8	933.8	1145	130.1	81.22	73.11	69.07	61.00	57.39	54.83	54.08	51.34	47.84	47.65	45.96	44.68	46.43	44.61	45.55	46.88	46.39	47.25	45.85	45.02	41.78	37.76	36.08	33.03	30.72	28.87	25.82	23.87	21.57	19.68	17.79	16.87	16.02	14.99	16.59	17.30	13.07	9.940	8.791	8.003	7.129	6.576	5.988	5.532	4.681	3.764	3.224	3.394	6.995	17.63	40.93	203.7	504.7	187.7	8.071	0.907	0.623	0.540	0.536	0.563	0.428	0.497	0.467	0.380	0.389
545.0	29.28	38.97	54.93	64.74	72.41	151.8	144.1	85.45	101.8	411.8	1474	224.3	73.92	66.73	59.39	52.78	52.21	49.39	47.92	44.73	42.16	42.11	40.71	39.87	40.18	40.85	40.27	41.13	41.36	41.08	40.84	39.34	36.51	33.71	31.98	28.45	27.98	25.42	22.80	21.51	19.71	17.43	15.66	15.25	14.13	13.24	13.48	15.43	13.75	9.955	7.823	7.098	6.507	5.957	5.457	5.362	4.645	3.570	2.871	2.640	3.318	5.518	10.55	49.81	265.2	453.4	133.2	2.983	0.683	0.557	0.438	0.447	0.433	0.344	0.375	0.354	0.379
550.0	28.46	34.37	41.74	56.69	60.57	98.75	159.6	88.29	80.20	158.2	936.2	912.8	100.6	56.02	52.37	46.15	42.92	41.49	39.90	37.55	36.13	34.56	33.77	33.46	33.47	34.11	33.55	33.66	35.12	34.96	34.34	32.44	30.62	29.14	26.48	24.32	23.58	21.36	20.03	18.11	16.83	15.28	14.18	13.13	12.12	11.49	10.95	11.73	12.28	10.68	7.837	6.365	5.612	5.228	4.752	4.469	4.195	3.750	2.699	2.454	2.167	2.564	3.584	12.05	64.49	210.8	348.0	139.2	11.59	0.829	0.418	0.428	0.359	0.326	0.290	0.420	0.371
555.0	22.65	25.10	41.29	43.75	49.13	60.77	135.1	107.0	64.72	81.85	307.3	1259	345.1	46.93	42.59	38.75	34.85	33.89	32.87	30.66	29.04	28.11	27.90	27.34	26.98	26.79	27.35	27.40	28.95	27.55	27.77	26.15	24.86	23.86	21.62	20.20	19.38	17.08	16.30	14.83	13.96	12.59	12.23	11.17	10.44	9.349	9.021	8.530	9.076	9.936	8.292	5.975	5.078	4.625	4.201	3.725	3.462	3.323	2.988	2.404	1.853	1.732	1.876	3.666	15.20	47.95	115.5	324.8	199.7	13.72	0.588	0.356	0.312	0.286	0.223	0.351	0.407
560.0	22.46	34.24	36.80	35.05	43.97	48.72	92.04	133.5	59.67	61.22	117.4	862.3	829.9	59.32	37.06	33.08	30.06	28.46	27.98	25.42	24.98	24.51	24.25	22.87	23.07	22.36	22.58	23.23	23.73	23.55	23.01	22.84	21.16	19.77	18.29	17.35	15.80	15.05	14.17	12.45	11.73	10.81	10.38	9.535	8.658	8.098	7.754	6.794	7.166	8.328	8.071	6.042	4.545	3.862	3.698	3.346	3.026	2.726	2.870	2.331	1.647	1.380	1.363	1.625	4.085	11.38	27.10	134.0	326.0	140.6	5.552	0.482	0.299	0.316	0.260	0.201	0.352
565.0	20.92	27.09	36.76	33.25	39.41	43.02	58.73	133.2	65.18	51.06	65.70	360.4	1196	139.2	32.20	27.14	25.98	24.03	23.18	22.03	21.09	20.41	19.85	20.22	20.10	19.80	18.97	19.51	20.35	19.76	19.96	19.63	17.92	16.90	16.04	15.04	13.90	13.04	12.53	11.45	10.69	9.876	8.654	8.344	7.525	7.105	6.790	6.253	5.839	6.492	7.160	6.309	4.434	3.448	3.330	2.848	2.510	2.491	2.211	2.332	1.720	1.332	1.283	1.172	1.702	3.168	6.730	32.13	157.4	285.7	34.02	1.932	0.542	0.318	0.269	0.187	0.301
570.0	25.62	29.74	33.19	31.24	31.69	34.20	39.99	95.44	99.24	49.33	52.68	123.6	803.6	654.8	49.01	22.68	21.53	19.12	18.85	18.50	16.86	16.32	15.83	15.82	16.32	15.70	15.58	16.01	16.26	16.21	16.15	16.04	14.61	13.43	13.26	11.87	11.20	10.56	9.703	9.215	8.427	8.154	7.070	6.677	6.383	5.926	5.491	5.230	4.758	4.763	5.166	5.330	4.517	3.543	2.855	2.440	2.218	2.101	1.937	1.940	1.978	1.374	1.098	0.861	1.047	1.291	2.073	7.783	37.56	122.5	189.7	102.7	9.415	0.470	0.270	0.257	0.260
575.0	23.05	30.40	34.17	32.13	28.37	26.42	32.64	54.74	118.1	62.62	47.02	62.97	258.9	967.5	134.6	19.24	17.97	15.12	16.45	15.68	13.69	13.35	12.44	12.53	12.84	12.86	12.18	12.37	12.57	13.27	12.98	12.51	11.42	10.64	10.33	9.288	9.052	8.583	7.679	7.488	6.709	6.332	5.939	5.354	5.313	4.838	4.412	4.126	3.971	3.520	3.530	4.120	4.197	3.484	2.641	2.290	1.919	1.621	1.605	1.422	1.579	1.689	1.181	0.853	1.013	0.819	0.948	2.274	8.885	27.92	60.64	183.4	128.9	9.144	0.325	0.226	0.265
580.0	26.10	25.91	32.80	28.00	27.33	25.16	28.66	38.79	104.9	87.09	46.78	51.70	92.70	682.9	634.4	25.53	15.39	13.11	12.99	12.19	11.49	11.10	10.67	10.46	10.67	10.20	10.70	10.21	11.06	10.86	11.11	10.34	9.202	8.685	9.053	7.831	7.740	7.210	6.726	6.037	5.669	5.268	4.851	4.626	4.272	4.260	4.013	3.491	3.178	3.082	2.842	2.974	3.709	3.450	2.401	1.933	1.734	1.482	1.263	1.182	1.229	1.438	1.386	0.880	0.789	0.767	0.715	0.977	2.427	6.720	14.07	72.87	194.6	36.49	3.727	0.222	0.192
585.0	24.65	38.79	32.86	30.61	25.83	22.38	25.18	33.58	70.98	105.8	50.50	47.76	51.98	284.2	1009	77.37	13.01	11.83	11.39	11.16	9.752	9.229	9.230	9.390	8.505	8.797	9.260	8.704	9.342	9.969	9.070	9.039	8.062	7.617	7.375	7.045	6.271	5.750	5.489	5.353	5.083	4.621	4.126	3.868	3.874	3.592	3.528	2.946	2.718	2.655	2.611	2.505	2.920	3.186	2.616	1.893	1.465	1.285	1.131	1.084	0.959	1.162	1.469	1.085	0.882	0.678	0.667	0.715	1.000	1.840	3.642	17.52	91.60	164.6	31.84	1.298	0.200
590.0	29.59	41.65	38.18	30.25	23.30	21.59	22.62	29.59	46.72	107.5	71.67	48.56	44.36	91.49	687.0	410.8	20.39	10.10	9.482	9.062	8.121	8.037	7.450	7.451	7.331	7.096	7.347	7.597	7.536	7.728	7.529	7.405	6.818	6.102	6.023	5.632	5.104	4.939	4.524	4.398	4.060	3.768	3.517	3.145	3.247	3.022	2.792	2.562	2.370	2.148	1.984	1.874	1.899	2.335	2.472	2.108	1.467	1.113	1.062	0.988	0.842	0.891	0.978	1.050	0.964	0.791	0.612	0.619	0.619	0.790	1.107	4.290	21.78	71.42	116.0	67.53	6.934
595.0	27.36	39.40	39.48	30.94	22.44	19.90	20.76	26.87	37.64	77.53	102.3	51.40	43.55	41.48	205.8	657.6	86.46	9.311	7.610	7.238	6.788	6.636	6.750	5.947	5.482	5.554	6.123	6.011	6.247	6.047	5.811	5.916	5.925	4.968	5.214	4.491	4.281	4.015	3.703	3.744	3.258	3.161	2.870	2.629	2.714	2.392	2.323	2.072	1.982	1.739	1.633	1.672	1.398	1.549	1.957	2.003	1.473	1.065	0.789	0.736	0.761	0.713	0.740	0.848	1.097	0.736	0.522	0.555	0.499	0.549	0.556	1.208	5.152	16.19	35.45	107.4	78.14
600.0	24.41	40.96	38.23	29.54	20.62	18.95	20.92	25.49	34.87	56.71	110.8	60.01	42.85	30.91	63.23	470.8	330.1	12.10	6.177	6.202	5.827	5.661	5.327	4.967	4.654	4.633	4.990	5.398	4.930	5.125	5.068	4.649	4.332	4.094	4.238	3.881	3.721	3.433	3.125	2.950	2.733	2.583	2.420	2.353	2.418	2.134	1.931	1.885	1.623	1.502	1.329	1.374	1.191	1.139	1.324	1.742	1.732	1.047	0.880	0.644	0.731	0.692	0.632	0.569	0.859	0.864	0.621	0.410	0.400	0.374	0.443	0.527	1.415	3.886	8.169	39.61	109.0
605.0	27.22	36.77	38.64	26.41	20.81	19.35	18.02	22.35	31.89	46.14	100.4	76.43	41.38	29.16	26.66	193.0	540.0	41.03	5.828	5.132	5.016	4.751	4.468	4.244	4.151	4.004	4.222	4.273	4.003	4.086	4.059	4.227	3.780	3.715	3.501	3.381	2.868	2.973	2.734	2.640	2.410	2.160	2.101	2.180	2.019	1.856	1.530	1.497	1.502	1.305	1.165	1.215	0.970	0.936	1.007	1.393	1.649	1.213	0.890	0.594	0.567	0.653	0.575	0.569	0.558	0.779	0.768	0.416	0.462	0.391	0.328	0.365	0.613	1.007	2.045	9.308	47.58
610.0	26.82	33.19	32.08	26.92	19.03	17.86	18.67	22.92	29.88	39.10	72.35	92.46	45.19	27.67	18.25	56.69	386.1	259.7	10.27	4.549	4.115	3.765	3.526	3.409	3.358	3.082	3.378	3.348	3.376	3.304	3.180	3.336	3.055	2.759	2.661	2.557	2.484	2.304	2.334	2.031	2.046	1.681	1.655	1.694	1.553	1.523	1.361	1.231	1.187	1.083	1.025	0.974	0.811	0.815	0.836	0.864	1.207	1.152	0.984	0.558	0.572	0.560	0.536	0.542	0.460	0.627	0.670	0.671	0.476	0.375	0.356	0.333	0.328	0.436	0.629	2.291	11.13
615.0	22.95	30.88	33.15	24.56	17.61	14.73	21.44	21.09	28.12	37.96	53.87	88.16	59.53	27.44	16.58	21.06	119.2	444.5	61.42	4.031	3.187	3.144	2.796	2.878	2.824	2.502	2.802	2.723	2.564	2.753	2.563	2.535	2.362	2.349	2.121	1.978	1.872	1.891	1.707	1.670	1.637	1.338	1.239	1.242	1.341	1.220	1.087	1.008	1.010	0.938	0.831	0.797	0.656	0.667	0.685	0.642	0.791	0.948	1.144	0.741	0.486	0.529	0.467	0.501	0.463	0.491	0.501	0.610	0.658	0.455	0.272	0.266	0.336	0.315	0.237	0.611	2.591
620.0	22.53	26.96	29.84	23.60	20.09	16.69	19.86	21.93	27.94	34.17	46.30	73.27	71.10	30.10	16.62	13.36	35.61	331.5	230.8	6.290	3.043	2.890	2.213	2.607	2.422	2.075	2.042	2.277	2.285	2.203	1.974	2.245	2.086	1.962	1.911	1.736	1.493	1.451	1.379	1.266	1.206	1.189	1.022	1.059	1.055	0.880	0.959	0.857	0.840	0.771	0.662	0.585	0.622	0.589	0.516	0.559	0.594	0.763	0.904	0.726	0.513	0.395	0.359	0.369	0.348	0.388	0.443	0.476	0.686	0.505	0.300	0.253	0.271	0.226	0.241	0.356	0.808
625.0	22.01	29.75	30.44	20.25	18.07	15.41	18.70	22.49	27.21	33.32	41.65	57.49	77.22	33.85	18.17	13.00	16.13	138.9	393.5	25.41	3.003	2.519	2.062	1.933	2.005	1.835	2.109	2.123	1.870	1.738	1.824	1.856	1.746	1.570	1.766	1.682	1.348	1.277	1.251	1.174	1.037	1.086	0.922	0.866	0.911	0.737	0.908	0.764	0.657	0.631	0.527	0.563	0.544	0.569	0.555	0.490	0.449	0.556	0.764	0.738	0.606	0.402	0.342	0.462	0.253	0.396	0.354	0.414	0.432	0.688	0.457	0.345	0.271	0.229	0.305	0.194	0.294
630.0	15.99	25.58	28.77	24.12	17.91	18.67	19.89	22.71	28.59	33.34	41.87	48.35	72.06	48.52	24.81	18.58	17.24	44.86	300.8	166.4	7.078	2.400	1.674	1.766	1.505	1.589	1.603	1.551	1.614	1.465	1.417	1.366	1.422	1.215	1.237	1.146	1.088	1.054	1.016	0.876	0.938	0.816	0.847	0.716	0.730	0.664	0.728	0.638	0.563	0.489	0.462	0.531	0.463	0.412	0.474	0.459	0.425	0.457	0.477	0.612	0.563	0.400	0.314	0.420	0.322	0.457	0.341	0.390	0.390	0.594	0.616	0.459	0.315	0.288	0.305	0.318	0.340
635.0	20.84	35.67	36.40	32.18	29.49	26.76	26.08	26.13	31.09	39.48	44.70	48.67	60.05	69.44	41.02	32.64	31.43	31.54	104.8	341.9	47.29	2.777	1.698	1.388	1.389	1.154	1.351	1.419	1.232	1.240	1.179	1.045	0.963	0.828	0.972	0.885	0.892	0.830	0.815	0.770	0.784	0.603	0.664	0.631	0.511	0.489	0.493	0.528	0.440	0.437	0.474	0.452	0.440	0.355	0.445	0.371	0.350	0.320	0.356	0.405	0.514	0.460	0.334	0.404	0.330	0.381	0.457	0.515	0.512	0.540	0.707	0.733	0.561	0.523	0.567	0.577	0.500
640.0	20.47	27.66	36.38	35.03	33.28	33.22	34.87	32.65	35.99	45.44	55.29	56.74	62.72	82.95	61.16	49.93	47.44	39.39	50.51	277.3	169.1	4.225	1.559	1.408	1.255	1.129	1.191	0.911	0.950	0.952	1.102	0.847	0.944	0.846	0.651	0.784	0.668	0.728	0.650	0.598	0.771	0.531	0.501	0.437	0.439	0.451	0.493	0.504	0.351	0.403	0.377	0.328	0.322	0.454	0.393	0.365	0.392	0.303	0.337	0.357	0.378	0.596	0.597	0.404	0.341	0.412	0.505	0.490	0.631	0.636	0.842	1.030	0.830	0.888	0.974	0.718	1.088
645.0	20.24	28.47	41.37	39.28	44.07	41.65	35.90	36.61	37.78	48.54	59.87	63.71	67.72	85.97	82.59	64.11	62.15	51.16	43.03	136.0	303.9	18.01	1.571	1.218	0.938	0.797	0.926	0.750	0.918	0.992	0.860	0.699	0.680	0.689	0.574	0.561	0.698	0.630	0.573	0.588	0.520	0.443	0.460	0.400	0.357	0.436	0.513	0.382	0.312	0.399	0.380	0.474	0.350	0.381	0.428	0.332	0.277	0.287	0.330	0.394	0.392	0.534	0.609	0.448	0.415	0.421	0.522	0.667	0.706	0.637	0.846	1.071	1.192	1.333	1.142	1.207	1.262
650.0	23.20	32.45	41.41	40.83	45.27	46.71	38.03	37.30	41.87	52.50	60.21	66.51	68.99	82.41	97.30	72.83	68.76	56.85	44.56	61.84	299.2	61.41	2.094	1.025	0.874	0.828	0.711	0.715	0.778	0.863	0.846	0.630	0.629	0.650	0.503	0.511	0.517	0.552	0.489	0.361	0.313	0.395	0.478	0.418	0.385	0.348	0.360	0.343	0.407	0.333	0.362	0.535	0.401	0.324	0.310	0.304	0.324	0.283	0.337	0.276	0.368	0.565	0.615	0.491	0.534	0.463	0.639	0.597	0.668	0.761	0.849	0.941	1.148	1.414	1.358	1.355	1.392
