Sample:	'1
File name:	w11103’≈’‘«≈.FD3
Run date:	'09:34:24, 11/12/2024
Operator:	Administrator
Comment:	'

Instrument
Model:	F-2700 FL Spectrophotometer
Serial number:	23B8-004
ROM Version:	4J14000 07

Instrument parameters
Measurement type:	3-D scan
Data mode:	Fluorescence
EX  Start WL:	220.0 nm
EX  End WL:	600.0 nm
EX Sampling interval:	5.0 nm
EM  Start WL:	230.0 nm
EM  End WL:	650.0 nm
EM Sampling interval:	5.0 nm
Scan speed:	12000 nm/min
EX Slit:	5.0 nm
EM Slit:	5.0 nm
PMT Voltage:	700 V
Response:	Auto 
Corrected spectra:	Off
Contour interval:	50.000

Peak integration
Integration method:	Rectangular
Sensitivity:	1
Threshold:	1.000

Peaks
No.	ApexEX/EM(nm)	Height(Data)
1	230.0/345.0	1935
2	230.0/585.0	35.02
3	230.0/605.0	28.94
4	235.0/610.0	25.14
5	235.0/625.0	20.86
6	245.0/535.0	232.3
7	250.0/545.0	181.7
8	255.0/445.0	1033
9	255.0/560.0	152.0
10	260.0/290.0	650.5
11	260.0/575.0	124.1
12	265.0/585.0	110.2
13	270.0/300.0	1190
14	270.0/600.0	101.7
15	275.0/310.0	1417
16	275.0/335.0	1429
17	275.0/415.0	1175
18	275.0/610.0	97.71
19	280.0/315.0	1406
20	280.0/625.0	86.13
21	285.0/320.0	1386
22	285.0/640.0	67.56
23	315.0/410.0	715.9
24	320.0/365.0	578.8
25	460.0/345.0	6.716
26	510.0/280.0	3.681
27	520.0/285.0	3.372
28	530.0/290.0	3.604
29	535.0/295.0	4.843
30	545.0/300.0	5.839
31	550.0/305.0	6.827
32	560.0/310.0	7.271
33	565.0/340.0	7.006
34	570.0/315.0	7.299
35	575.0/320.0	7.098
36	585.0/325.0	7.224

Data points
	220.0	225.0	230.0	235.0	240.0	245.0	250.0	255.0	260.0	265.0	270.0	275.0	280.0	285.0	290.0	295.0	300.0	305.0	310.0	315.0	320.0	325.0	330.0	335.0	340.0	345.0	350.0	355.0	360.0	365.0	370.0	375.0	380.0	385.0	390.0	395.0	400.0	405.0	410.0	415.0	420.0	425.0	430.0	435.0	440.0	445.0	450.0	455.0	460.0	465.0	470.0	475.0	480.0	485.0	490.0	495.0	500.0	505.0	510.0	515.0	520.0	525.0	530.0	535.0	540.0	545.0	550.0	555.0	560.0	565.0	570.0	575.0	580.0	585.0	590.0	595.0	600.0
230.0	-28.01	1986	6358	2460	73.76	-2.615	-2.577	-2.044	-0.351	0.744	1.421	2.435	3.510	2.809	2.788	2.786	2.709	2.649	2.730	2.452	2.059	2.113	1.912	1.841	1.727	1.571	1.386	1.285	1.287	1.183	1.193	1.413	1.227	1.166	0.982	0.914	0.735	0.578	0.460	0.365	0.395	0.382	0.355	0.322	0.324	0.344	1.903	10.10	20.20	15.83	5.865	0.941	0.081	-0.008	-0.095	-0.125	-0.133	-0.134	-0.232	-0.256	-0.319	-0.360	-0.420	-0.411	-0.421	-0.443	-0.544	-0.540	-0.578	-0.620	-0.646	-0.680	-0.683	-0.741	-0.761	-0.769	-0.793
235.0	2.007	510.2	4219	9146	3211	148.0	2.376	1.082	1.364	1.481	2.554	3.205	3.562	3.195	3.636	2.897	3.163	2.680	2.942	2.554	2.137	2.018	2.011	2.067	1.813	1.747	1.714	1.510	1.203	1.405	1.303	1.293	1.193	1.240	0.952	1.020	0.703	0.623	0.502	0.549	0.396	0.360	0.315	0.340	0.477	0.383	0.774	2.668	8.019	17.75	28.46	22.08	12.29	1.982	0.060	-0.105	-0.043	-0.199	-0.102	-0.220	-0.366	-0.254	-0.352	-0.483	-0.459	-0.468	-0.573	-0.554	-0.614	-0.598	-0.688	-0.672	-0.642	-0.746	-0.715	-0.779	-0.780
240.0	41.84	153.8	1280	8253	9999.9	2515	62.32	6.664	5.161	4.442	4.887	4.461	4.577	3.866	3.684	3.392	3.765	2.864	3.471	2.493	2.332	2.437	1.938	2.030	2.189	2.237	1.489	1.479	1.266	1.402	1.342	1.171	1.106	1.067	0.903	1.148	1.022	0.806	0.531	0.606	0.489	0.264	0.360	0.363	0.535	0.585	0.604	0.873	2.081	5.351	16.91	41.23	52.57	21.79	9.387	0.615	-0.005	-0.036	-0.114	-0.225	-0.359	-0.252	-0.290	-0.331	-0.398	-0.420	-0.499	-0.557	-0.517	-0.619	-0.615	-0.641	-0.700	-0.636	-0.739	-0.726	-0.716
245.0	23.07	148.8	335.3	2851	9999.9	9999.9	412.7	26.11	8.162	6.960	8.052	5.917	5.227	5.312	4.084	3.844	3.913	3.277	3.451	2.920	2.558	2.247	2.352	2.052	2.310	2.102	1.815	1.835	1.400	1.265	1.275	1.121	1.309	1.162	0.955	1.231	1.147	0.615	0.573	0.570	0.587	0.296	0.384	0.366	0.312	0.530	0.659	0.776	0.854	1.508	4.208	14.33	41.24	64.80	63.18	19.37	5.780	0.077	-0.082	-0.220	-0.287	-0.290	-0.323	-0.377	-0.420	-0.397	-0.445	-0.505	-0.542	-0.586	-0.601	-0.657	-0.632	-0.682	-0.749	-0.740	-0.728
250.0	-14.17	104.1	244.6	728.1	3654	9999.9	9999.9	5060	107.9	16.99	13.89	9.833	7.651	7.185	5.729	4.868	4.895	3.771	3.821	3.383	2.911	2.853	2.485	2.311	2.483	2.584	2.264	2.173	1.596	1.613	1.380	1.156	1.281	1.332	0.913	1.086	1.027	0.840	0.692	0.574	0.597	0.517	0.417	0.413	0.293	0.460	0.510	0.784	1.025	0.984	1.421	3.439	10.07	21.96	43.40	64.05	63.14	65.98	14.23	5.689	0.175	-0.180	-0.265	-0.211	-0.394	-0.363	-0.376	-0.457	-0.525	-0.521	-0.565	-0.616	-0.608	-0.665	-0.675	-0.706	-0.718
255.0	-12.85	23.56	167.0	416.7	910.3	2677	9999.9	9999.9	2216	130.4	24.97	17.17	12.23	10.73	7.633	6.859	6.251	4.923	4.175	3.939	3.561	3.154	2.767	2.640	2.769	2.757	2.591	2.089	1.923	1.866	1.642	1.368	1.409	1.204	1.255	1.137	0.919	0.745	0.888	0.686	0.574	0.617	0.436	0.530	0.470	0.534	0.387	0.437	0.610	0.986	1.443	1.616	2.556	5.108	9.853	15.65	31.84	87.39	145.7	125.7	22.30	6.748	0.068	-0.092	-0.213	-0.170	-0.417	-0.417	-0.486	-0.517	-0.537	-0.602	-0.597	-0.718	-0.586	-0.636	-0.696
260.0	-21.37	6.129	67.57	305.1	453.4	660.3	3620	9999.9	9999.9	1773	82.79	27.04	18.42	15.62	9.276	8.523	6.535	6.205	5.165	4.482	4.089	3.536	3.211	2.909	2.908	2.838	2.854	2.253	2.441	2.060	2.090	1.731	1.409	1.439	1.194	0.990	0.865	0.775	0.935	0.739	0.831	0.733	0.544	0.587	0.550	0.630	0.553	0.457	0.442	0.595	1.037	1.520	2.003	1.595	2.417	3.823	7.505	24.23	72.43	149.1	188.4	128.0	18.64	2.669	-0.100	-0.093	-0.246	-0.297	-0.381	-0.417	-0.520	-0.529	-0.562	-0.526	-0.589	-0.610	-0.701
265.0	-0.156	10.82	30.08	138.1	422.7	335.8	887.7	5625	9999.9	9999.9	1278	51.14	27.62	19.18	13.79	10.80	8.076	6.929	5.795	5.364	4.593	4.049	3.731	2.927	3.386	2.781	2.959	2.926	2.245	2.248	2.223	1.773	1.628	1.433	1.281	1.096	1.194	0.887	0.880	0.935	0.817	0.789	0.589	0.707	0.650	0.581	0.631	0.477	0.379	0.445	0.615	0.948	1.653	1.969	1.381	1.207	1.923	5.638	17.11	46.47	121.7	222.4	208.3	28.29	12.51	0.736	-0.073	-0.205	-0.378	-0.364	-0.407	-0.431	-0.409	-0.523	-0.531	-0.573	-0.697
270.0	20.74	26.44	37.97	59.52	211.5	417.1	421.6	1376	6475	9999.9	9999.9	5040	90.67	34.23	22.98	16.21	11.73	9.571	7.957	6.715	5.789	4.744	4.458	3.938	4.039	3.488	3.112	3.007	2.723	2.716	2.459	2.165	2.069	2.039	1.731	1.345	1.348	1.189	0.906	0.862	1.058	0.929	0.919	0.714	0.761	0.705	0.800	0.602	0.506	0.587	0.539	0.519	0.737	1.126	1.739	2.028	1.660	1.772	4.123	10.70	28.83	67.15	123.3	178.7	213.7	129.3	87.10	9.536	0.897	-0.078	-0.241	-0.313	-0.273	-0.403	-0.435	-0.461	-0.536
275.0	84.32	92.77	92.51	63.22	89.83	204.5	534.8	544.3	1542	3451	9999.9	9999.9	6871	102.6	39.04	26.23	17.91	14.08	10.71	8.755	6.982	6.042	5.659	4.551	4.428	4.235	3.914	3.436	3.107	3.260	2.709	2.518	2.633	2.612	2.225	1.563	1.611	1.438	1.111	0.936	1.124	0.930	1.023	0.936	0.790	0.881	0.975	0.862	0.818	0.776	0.659	0.494	0.439	0.538	0.846	1.191	2.439	3.157	2.526	2.901	6.868	15.36	27.85	41.89	71.71	161.1	334.7	233.7	28.67	14.23	0.790	-0.061	-0.008	-0.200	-0.340	-0.319	-0.275
280.0	139.0	206.5	192.6	130.2	86.36	105.4	361.9	623.9	522.9	920.6	5360	9999.9	9999.9	1023	79.51	39.10	25.28	19.04	13.31	10.46	8.764	7.318	5.801	5.603	5.273	4.911	3.970	3.914	3.456	3.728	3.063	2.982	2.715	2.575	2.261	2.231	1.818	1.637	1.366	1.124	1.125	1.145	1.231	0.928	1.034	1.151	1.065	1.166	1.030	1.009	0.845	0.732	0.652	0.744	0.610	0.600	1.262	2.462	3.681	2.848	2.333	3.993	6.824	10.14	16.73	41.04	125.7	264.7	388.2	222.6	25.80	8.371	0.523	0.136	-0.061	-0.107	-0.181
285.0	220.8	307.8	310.0	212.2	120.0	96.71	188.3	582.2	581.8	398.9	1439	9098	9999.9	9999.9	721.5	64.14	35.12	25.15	17.33	13.33	11.08	8.927	7.525	6.481	6.032	4.956	4.626	4.425	3.982	3.549	3.529	3.226	2.735	2.951	2.403	2.330	2.188	1.703	1.512	1.254	1.213	1.159	1.333	1.431	1.406	1.441	1.392	1.340	1.244	1.215	1.078	1.022	0.768	0.700	0.605	0.554	0.665	1.151	2.286	3.356	3.372	2.644	2.264	3.147	4.397	10.02	29.40	70.83	181.6	361.9	443.8	195.6	20.63	3.260	0.315	0.220	-0.022
290.0	313.4	432.0	468.5	331.8	189.0	131.1	154.8	308.9	650.5	648.2	637.1	2384	9428	9999.9	9999.9	3149	71.27	40.98	27.23	18.81	14.54	12.12	9.436	8.045	7.364	6.321	5.500	5.053	4.670	4.325	4.147	3.483	3.412	3.438	3.019	2.769	2.625	2.252	1.816	1.565	1.615	1.415	1.469	1.398	1.584	1.742	1.878	1.999	1.859	1.608	1.522	1.394	1.122	0.942	0.793	0.668	0.849	0.893	1.254	1.732	2.595	3.363	3.604	3.143	2.580	3.504	7.815	17.10	42.38	94.33	186.4	270.1	359.2	261.8	129.1	14.65	4.839
295.0	406.9	535.4	590.9	441.7	264.3	180.8	179.7	245.6	410.9	838.7	852.6	934.9	2437	3660	9999.9	9999.9	4372	78.25	43.96	29.04	20.67	15.91	12.90	10.62	8.938	7.960	6.878	6.356	5.527	5.068	4.676	4.215	3.977	3.751	3.279	3.202	2.869	2.487	2.482	2.006	1.700	1.581	1.669	1.702	1.666	1.868	2.142	2.471	2.340	2.100	1.814	1.860	1.336	1.620	1.005	0.929	1.066	1.162	1.266	1.486	1.730	2.018	2.870	4.843	4.816	3.878	3.637	5.493	11.21	22.64	42.91	62.02	93.38	168.1	390.9	513.5	225.2
300.0	478.3	617.0	677.6	511.2	322.9	238.4	238.9	292.1	399.4	688.3	1190	892.1	991.5	1169	5379	9999.9	9999.9	606.9	72.35	41.80	28.52	21.23	16.74	12.88	10.75	9.198	7.828	7.646	6.026	6.096	5.394	4.733	4.439	4.305	3.281	3.206	3.320	2.947	2.634	2.472	2.007	1.758	1.756	1.716	1.920	2.378	2.454	2.759	2.800	2.404	2.180	1.924	1.643	1.562	1.341	1.366	1.379	1.420	1.598	1.765	1.932	2.151	2.435	3.622	4.993	5.839	5.044	3.868	5.257	7.174	11.48	15.42	22.36	40.53	117.3	301.9	537.3
305.0	477.7	692.6	735.2	576.9	369.4	303.5	313.8	383.7	505.9	704.7	1157	1355	902.5	732.0	1600	9912	9999.9	9999.9	487.5	63.50	39.39	27.57	21.41	16.24	12.50	10.67	9.258	8.235	7.049	6.513	5.780	4.988	4.942	4.493	4.388	3.377	2.984	3.188	2.791	2.408	2.262	1.851	2.012	1.971	2.050	2.337	2.515	3.077	2.945	2.468	2.229	2.312	2.179	1.665	1.720	1.611	1.861	1.852	1.900	2.386	2.696	2.859	2.923	3.124	4.105	5.304	6.827	6.684	5.194	4.693	5.235	6.036	7.364	11.06	28.11	73.50	187.6
310.0	506.7	718.5	811.7	625.9	430.4	370.5	407.3	491.2	618.1	804.3	1060	1417	1348	851.1	834.4	2596	9999.9	9999.9	9999.9	9834	148.5	43.28	31.09	21.63	16.65	13.65	11.38	10.01	8.204	7.641	6.868	6.016	5.285	5.265	4.470	3.946	3.513	3.393	3.078	2.656	2.641	2.317	2.230	2.291	2.242	2.451	2.794	3.162	3.168	2.893	2.382	2.416	2.164	1.924	2.008	1.972	2.155	2.228	2.398	2.577	2.888	3.394	3.553	3.948	4.359	4.824	5.924	6.586	7.271	6.628	5.757	4.768	4.353	4.861	8.201	18.08	43.77
315.0	521.6	799.3	872.2	681.3	475.6	428.9	470.9	571.6	701.7	894.9	1075	1274	1406	1220	796.1	935.8	2519	3618	9999.9	9999.9	3541	145.9	46.60	32.25	23.27	18.08	14.60	12.43	10.39	9.252	8.233	6.950	6.111	6.111	4.916	4.346	4.116	3.745	3.690	3.081	2.915	2.840	2.672	2.609	2.755	2.864	3.057	3.449	3.225	3.221	2.766	2.737	2.626	2.205	2.295	2.454	2.523	2.760	2.895	3.034	3.386	3.652	4.082	4.378	4.710	5.179	5.652	5.750	6.210	6.859	7.299	6.628	5.202	4.006	4.186	5.991	11.80
320.0	578.2	881.5	1010	749.8	520.4	468.5	505.4	612.1	748.8	949.5	1151	1294	1318	1386	1013	631.8	877.9	1040	5336	9999.9	9999.9	2843	63.19	43.86	31.45	22.83	17.83	14.80	12.11	10.51	9.033	8.281	6.670	6.884	5.281	4.953	4.499	4.344	3.741	3.294	3.153	3.078	2.873	2.947	2.753	3.214	3.569	3.956	3.680	3.394	3.080	2.985	2.800	2.487	2.496	2.554	2.800	3.041	2.980	3.410	3.455	3.876	4.435	4.696	5.317	5.732	5.820	6.320	6.276	6.132	6.568	7.098	6.966	5.646	4.294	3.789	4.706
325.0	641.7	1080	1250	917.4	609.9	507.0	543.5	658.2	797.8	992.9	1208	1346	1316	1278	1267	697.6	538.1	460.1	1391	8730	9999.9	9999.9	420.3	59.61	42.34	28.09	21.38	17.85	14.39	12.24	10.15	8.820	7.496	7.300	5.944	5.356	4.920	4.250	3.716	3.665	3.423	3.358	3.214	3.038	2.931	3.399	4.113	4.407	4.400	3.896	3.669	3.600	2.865	2.804	2.845	2.860	3.008	3.081	3.300	3.448	3.866	4.176	4.857	5.212	5.595	5.831	6.203	6.164	6.294	6.494	6.305	6.150	6.475	7.224	5.723	4.269	3.538
330.0	775.2	1270	1575	1289	816.4	625.1	600.8	701.0	849.0	1036	1255	1389	1365	1237	1184	918.7	591.9	364.0	488.3	2148	9065	9999.9	9999.9	9929	146.9	43.86	31.50	24.06	18.22	15.09	12.41	9.936	9.094	8.161	6.319	5.528	5.176	4.864	4.060	3.758	3.523	3.403	3.314	3.237	3.274	3.855	4.320	5.289	5.402	4.951	4.527	4.731	3.840	3.533	3.220	2.913	3.277	3.259	3.492	3.739	4.042	4.405	4.899	5.304	5.616	5.941	6.294	6.316	6.376	6.748	6.630	6.196	6.037	6.207	5.894	5.438	4.714
335.0	796.1	1368	1831	1570	1077	759.5	659.1	742.9	885.0	1064	1273	1429	1401	1271	1128	888.0	803.0	454.6	325.1	651.9	2168	3357	9999.9	9999.9	3144	166.8	46.44	34.00	24.17	19.29	15.42	12.46	10.33	9.822	7.600	6.670	5.694	5.399	4.566	4.285	3.845	3.674	3.714	3.297	3.653	4.291	4.791	5.802	5.772	5.597	5.435	5.672	4.684	4.035	3.928	3.416	3.784	3.594	3.717	4.020	4.151	4.354	5.050	5.357	5.766	6.169	6.560	6.483	6.746	6.723	6.861	6.623	6.319	5.737	5.645	5.189	4.744
340.0	851.6	1449	1929	1705	1192	838.1	708.4	782.4	905.9	1063	1269	1407	1387	1280	1126	833.2	784.5	623.3	343.1	339.4	645.3	904.7	4893	9999.9	9999.9	2763	103.6	44.02	30.81	23.01	19.21	14.06	12.30	10.99	8.415	6.848	6.244	5.630	4.702	4.098	4.353	3.899	3.892	3.512	3.622	4.369	4.944	6.197	6.457	6.089	5.895	6.307	5.129	4.697	4.128	3.880	4.107	3.885	4.041	4.347	4.627	4.786	5.046	5.588	5.841	5.924	6.702	6.624	6.540	7.006	6.535	6.361	6.243	5.406	5.315	4.870	4.677
345.0	837.8	1479	1935	1757	1257	881.7	755.5	804.2	907.7	1057	1238	1365	1359	1252	1115	817.6	692.8	684.6	459.8	303.1	326.7	360.8	1262	8140	9999.9	9999.9	395.8	55.36	40.01	29.82	21.74	17.12	13.36	12.02	9.539	7.519	6.559	5.826	4.764	4.432	3.923	3.817	3.750	3.698	3.762	4.441	5.148	5.946	6.716	6.189	6.170	6.531	5.295	4.979	4.270	3.968	3.910	3.987	4.090	3.768	4.426	4.682	4.494	5.253	5.468	6.002	5.981	6.407	6.484	6.794	6.332	6.356	6.153	5.564	5.568	4.782	4.338
350.0	752.1	1357	1810	1727	1302	948.3	803.2	842.1	918.4	1042	1189	1294	1301	1206	1084	833.0	679.7	611.9	587.1	438.1	317.5	285.8	459.7	2005	8230	9999.9	9999.9	9999.9	156.4	42.38	29.43	20.99	16.26	13.88	10.44	8.359	7.147	6.243	5.287	4.844	4.351	3.912	3.663	3.769	3.812	4.239	4.904	5.786	6.117	6.128	5.734	6.259	5.517	5.170	4.419	4.123	4.125	3.954	4.066	4.164	4.441	4.550	4.832	5.081	5.431	5.619	5.804	6.270	6.024	6.060	6.030	6.041	5.973	5.588	5.446	4.695	4.314
355.0	704.9	1197	1626	1618	1299	1010	854.0	866.2	928.4	1035	1140	1235	1230	1157	1054	839.6	697.8	595.7	552.6	573.1	428.2	316.0	312.7	616.7	1976	3066	9999.9	9999.9	9999.9	196.4	44.01	29.86	21.60	16.82	12.40	9.952	8.268	6.978	5.559	5.240	4.801	4.137	3.724	3.658	3.728	4.470	4.750	5.629	5.940	5.791	5.569	6.264	5.394	5.117	4.306	4.383	4.303	4.251	4.355	4.411	4.740	4.494	4.852	5.026	5.460	5.278	5.740	5.664	5.901	5.955	5.868	5.981	5.888	5.770	5.287	4.781	4.640
360.0	609.6	1100	1505	1562	1267	1027	882.7	897.6	947.2	1022	1114	1188	1177	1120	1025	844.8	719.2	617.8	542.5	559.3	548.5	381.4	305.9	327.7	595.9	825.9	4117	9999.9	9999.9	2846	129.3	40.13	27.91	21.22	14.62	11.21	9.297	7.884	6.403	5.753	5.084	4.238	4.208	3.949	3.710	4.410	4.625	5.300	5.632	5.436	5.276	6.252	5.236	5.217	4.338	4.436	4.311	4.433	4.394	4.277	4.490	4.737	4.919	5.153	5.074	5.333	5.681	5.378	5.405	5.744	5.524	5.416	5.502	5.251	5.077	4.611	4.903
365.0	604.2	1037	1395	1458	1246	1028	895.3	908.1	961.6	1027	1086	1146	1135	1084	998.6	841.2	736.6	644.6	577.2	542.8	578.8	498.2	351.4	293.1	310.5	333.4	1061	6574	9999.9	9999.9	2345	76.38	37.36	27.02	18.16	13.23	10.56	8.641	7.320	6.075	5.617	4.932	4.810	4.100	3.982	4.389	4.744	5.084	5.396	5.096	5.178	5.776	5.328	4.900	4.689	4.570	4.488	4.274	4.730	4.275	4.592	4.635	4.843	4.847	4.958	5.165	5.119	5.354	5.348	5.432	5.639	5.798	5.239	5.287	4.911	4.610	4.594
370.0	572.2	968.1	1270	1369	1212	1043	939.0	939.5	985.9	1028	1082	1102	1088	1040	971.5	843.8	756.2	681.4	627.5	582.7	562.1	574.1	491.8	355.2	291.4	257.9	378.1	1610	6907	9999.9	9999.9	9999.9	155.0	39.96	26.28	17.91	13.26	10.64	8.678	6.936	6.324	5.277	4.971	4.362	4.075	4.557	4.506	4.970	5.353	5.061	4.997	5.582	5.473	4.984	4.664	4.414	4.566	4.585	4.536	4.664	4.716	4.816	4.883	4.810	5.080	4.951	4.869	5.012	5.262	5.314	5.319	5.437	5.076	5.208	5.262	4.835	4.896
375.0	543.4	866.6	1190	1278	1183	1037	967.1	954.9	980.0	1022	1056	1065	1040	998.8	927.7	837.1	766.7	715.5	664.9	626.2	580.4	557.2	570.3	470.6	336.6	274.5	252.4	490.5	1650	2847	9999.9	9999.9	9999.9	205.0	38.86	25.50	17.71	13.31	10.65	8.318	7.109	6.323	5.596	4.605	4.387	4.569	4.537	5.003	5.376	4.786	4.881	5.747	5.589	5.268	4.945	4.609	4.885	4.810	4.804	4.633	4.795	4.722	4.911	4.725	4.995	4.831	4.691	4.661	4.765	5.006	5.258	4.840	4.867	4.940	5.126	4.706	4.845
380.0	512.5	829.7	1102	1207	1144	1034	962.4	956.5	966.7	1007	1041	1036	1005	966.0	908.1	825.6	762.1	723.5	687.7	648.5	597.8	558.8	554.2	548.3	407.3	304.8	248.9	262.7	490.4	751.6	3714	9999.9	9999.9	9999.9	129.0	34.33	23.08	16.56	12.29	9.651	7.931	6.755	5.964	5.232	4.791	4.787	4.837	4.902	5.060	4.499	4.897	5.442	5.255	5.284	5.029	4.598	4.880	4.855	4.608	4.687	4.557	4.682	5.142	4.819	4.944	4.639	4.668	4.217	4.743	4.744	4.949	5.099	4.576	4.796	4.925	4.453	4.582
385.0	475.6	808.4	1054	1176	1140	1047	954.6	958.1	952.0	995.1	1012	1020	988.3	944.5	889.0	806.3	763.7	727.1	693.9	659.0	616.3	580.3	548.6	550.6	490.8	359.0	277.3	236.3	252.8	287.7	952.3	5668	9999.9	9999.9	2084	71.19	29.91	21.29	15.21	10.89	9.081	7.260	6.442	5.828	5.233	4.889	4.943	5.097	5.149	4.599	4.828	5.050	5.062	5.003	4.953	4.612	4.694	4.675	4.629	4.515	4.796	4.584	4.845	4.888	4.775	4.493	4.616	4.292	4.642	4.682	4.989	4.593	4.596	4.795	4.537	4.400	4.529
390.0	464.0	777.8	1012	1112	1111	1027	963.6	958.8	962.8	984.9	1007	1009	971.2	933.8	879.5	800.4	755.2	732.1	703.1	680.3	648.8	617.5	582.0	546.8	531.7	465.3	347.2	278.0	237.8	214.9	336.7	1385	5779	9999.9	9999.9	8349	133.5	30.59	20.87	14.67	11.44	8.967	7.488	6.500	5.584	5.261	5.070	5.411	5.121	4.662	4.680	5.242	5.179	5.089	5.045	4.640	4.966	4.630	4.857	4.649	4.812	4.733	4.778	4.902	4.934	4.670	4.431	4.409	4.417	4.485	4.654	4.595	4.535	4.648	4.661	4.500	4.487
395.0	462.1	717.5	952.2	1074	1085	1033	982.6	972.9	989.7	1002	1026	1026	997.9	954.3	887.1	809.8	758.1	731.8	714.5	698.7	677.5	655.6	625.1	584.2	544.7	531.5	461.7	346.1	285.3	240.8	228.5	430.0	1383	2767	9999.9	9999.9	9999.9	176.5	31.28	20.57	15.25	11.19	8.848	7.379	6.316	5.700	5.380	5.332	5.247	4.689	4.648	5.382	5.304	5.089	4.872	4.948	5.160	4.906	5.066	4.886	4.515	4.670	4.922	4.913	4.927	4.708	4.483	4.545	4.581	4.702	4.527	4.667	4.290	4.752	4.652	4.420	4.308
400.0	461.3	714.9	948.9	1036	1084	1026	993.8	997.9	1019	1046	1069	1077	1044	988.8	908.6	819.1	762.7	732.6	717.0	705.9	694.0	675.1	657.8	619.5	573.3	541.2	531.2	429.4	337.4	280.3	231.7	235.0	412.0	711.3	3220	9999.9	9999.9	9999.9	126.1	27.66	18.90	14.01	10.36	8.069	6.966	6.418	5.760	5.437	5.162	4.694	4.642	5.431	5.119	5.377	5.043	5.057	5.253	5.129	5.057	4.676	4.677	4.523	4.847	4.697	4.572	4.621	4.552	4.637	4.513	4.768	4.439	4.650	4.484	4.706	4.742	4.136	4.615
405.0	440.1	678.1	908.9	1014	1067	1046	1020	1021	1041	1080	1104	1121	1091	1026	937.9	834.5	768.2	727.1	717.1	714.1	707.7	697.4	687.8	658.7	606.2	561.4	545.2	508.5	400.1	318.3	257.6	210.7	209.6	251.6	804.4	4375	9999.9	9999.9	1928	37.14	23.68	17.08	11.96	9.437	7.570	7.051	6.059	5.448	5.269	4.938	4.869	5.377	5.108	5.199	5.090	5.144	5.143	5.004	4.815	4.947	4.925	5.048	4.544	4.759	4.315	4.580	4.519	4.559	4.625	4.376	4.593	4.854	4.561	4.733	4.135	4.489	4.690
410.0	425.5	638.2	873.3	993.8	1033	1038	1028	1034	1071	1112	1161	1170	1126	1067	961.5	840.3	757.4	724.7	707.5	715.9	708.1	710.2	702.4	684.6	639.4	594.5	554.9	533.0	480.9	381.3	298.9	230.5	185.5	162.2	261.3	1054	4465	9999.9	9999.9	7936	127.9	25.67	16.13	12.42	9.435	7.903	6.739	6.113	5.918	5.205	4.953	5.428	5.278	5.368	4.974	4.923	5.218	5.195	4.890	4.937	4.946	4.895	4.944	4.782	4.565	4.630	4.569	4.370	4.614	4.669	4.626	4.763	4.621	4.703	4.484	4.227	4.272
415.0	393.6	613.1	845.4	942.8	1011	1024	1018	1046	1075	1134	1171	1175	1128	1062	953.0	822.5	737.8	698.9	689.4	691.9	697.7	697.2	695.8	684.9	654.6	610.5	565.5	527.1	504.0	445.8	341.9	254.4	196.3	155.4	148.4	305.3	1053	2513	9999.9	9999.9	9999.9	169.0	24.93	15.33	12.13	9.564	7.935	6.916	6.397	5.491	5.083	5.694	5.505	5.376	4.786	5.319	5.207	5.475	5.042	4.859	5.133	4.881	5.004	4.857	4.965	4.447	4.311	4.547	4.613	4.664	4.572	4.461	4.498	4.404	4.277	3.862	4.230
420.0	345.7	594.0	799.1	917.1	975.9	1006	998.1	1031	1067	1113	1151	1153	1115	1046	927.2	798.3	717.9	675.4	666.7	667.9	676.4	680.5	684.1	671.8	654.2	617.1	570.9	526.0	493.6	470.2	380.6	271.2	207.5	159.1	128.3	140.2	292.6	613.6	2897	9999.9	9999.9	9492	115.2	21.52	14.70	11.70	9.137	7.598	6.831	5.394	5.397	5.586	5.485	5.165	5.154	5.260	5.146	5.413	5.096	4.944	5.006	4.759	4.893	4.686	4.939	4.613	4.453	4.459	4.131	4.481	4.352	4.583	4.494	4.156	4.310	3.982	4.028
425.0	360.1	572.1	770.4	901.8	966.5	995.7	994.4	1033	1075	1096	1139	1135	1095	1027	906.0	775.6	690.1	646.7	645.5	643.4	655.6	664.0	667.1	658.6	639.6	612.8	567.5	526.9	486.2	456.2	409.3	300.1	217.9	167.0	130.4	108.9	124.9	185.9	696.4	3737	9999.9	9999.9	1813	32.91	19.60	14.57	10.98	8.396	7.010	5.775	5.564	5.747	5.827	5.579	5.502	5.368	5.404	5.259	5.575	5.173	5.066	4.839	4.717	4.904	4.663	4.421	4.514	4.152	4.220	4.268	4.363	4.694	4.341	4.007	4.218	3.965	4.144
430.0	448.9	560.1	759.1	872.0	932.0	974.4	1007	1032	1062	1083	1124	1119	1074	1001	885.9	752.1	669.3	627.6	617.3	617.1	628.4	637.5	643.5	640.7	621.1	595.0	559.0	519.7	480.6	436.7	398.0	336.5	244.2	181.8	140.2	108.7	93.03	92.78	197.4	880.3	3916	9999.9	9999.9	7264	114.8	21.77	14.27	11.14	8.380	6.490	5.785	6.187	5.843	5.791	5.663	5.498	5.712	5.514	5.352	5.256	5.227	5.069	4.589	4.742	4.697	4.441	4.497	4.168	4.053	4.267	4.237	4.546	4.098	4.193	3.727	3.827	4.019
435.0	846.5	554.2	721.1	833.5	919.9	957.1	1015	1023	1044	1066	1101	1090	1046	979.5	852.2	723.4	641.1	602.5	592.3	590.4	593.9	606.1	612.8	610.7	593.9	576.6	543.8	509.2	474.9	429.8	378.3	337.8	279.9	201.5	151.6	116.9	92.13	76.13	87.67	233.6	908.9	2451	9999.9	9999.9	9999.9	156.9	22.97	14.78	10.50	7.681	6.737	6.816	6.388	6.062	5.896	5.521	6.145	5.766	5.562	5.329	5.006	5.255	4.832	4.624	4.695	4.322	4.200	4.017	3.917	3.843	3.966	3.973	3.797	3.998	3.601	3.550	3.612
440.0	1208	662.5	691.7	810.6	911.2	953.7	1028	1020	1031	1048	1066	1060	1006	930.1	822.9	701.2	616.2	575.2	570.6	561.2	565.1	570.6	583.1	588.9	569.3	554.9	524.2	496.3	466.9	425.5	370.9	320.8	288.5	226.1	160.8	124.3	96.61	76.80	65.98	90.86	236.8	583.5	2877	9999.9	9999.9	1865	100.7	21.20	13.14	9.654	7.799	7.655	6.939	6.529	6.606	5.803	6.013	5.978	5.678	5.521	5.095	4.993	4.834	4.610	4.712	4.208	4.391	4.224	3.900	3.933	3.847	4.035	3.718	4.143	3.605	3.620	3.433
445.0	1359	1109	675.7	790.5	875.8	939.6	1013	1033	1015	1015	1037	1024	960.6	887.7	792.5	675.5	590.3	556.6	546.7	533.3	537.5	540.3	555.3	555.9	543.5	526.7	503.3	483.3	450.3	414.9	364.9	309.9	272.9	240.7	175.3	131.0	102.2	79.61	64.88	60.12	86.91	163.3	681.1	3841	9999.9	9999.9	1530	30.23	17.12	11.56	8.963	8.456	7.389	6.781	6.584	6.219	6.504	6.058	5.658	5.724	5.076	5.113	4.715	4.455	4.412	4.283	4.136	3.973	4.207	4.051	3.789	3.653	3.578	3.576	3.376	3.495	3.112
450.0	937.7	2228	953.1	740.3	832.8	906.1	967.2	991.6	967.8	960.4	964.9	947.7	888.1	821.1	725.0	620.7	548.5	512.3	500.1	491.7	489.8	493.7	506.5	507.2	500.5	482.7	467.7	447.5	424.5	393.3	349.4	297.3	254.8	226.8	195.0	144.7	107.5	83.77	68.35	56.20	55.31	67.31	181.1	896.5	4007	9999.9	9999.9	6531	96.49	17.50	11.70	10.37	8.553	7.237	6.748	6.482	6.499	6.190	5.938	5.686	5.123	4.865	4.729	4.552	4.294	3.993	4.012	3.771	3.858	3.810	3.619	3.443	3.570	3.444	3.278	3.141	3.320
455.0	419.7	2655	2560	742.8	785.5	854.8	919.0	935.8	900.9	887.3	887.0	862.7	813.2	744.7	651.7	561.2	500.7	468.5	453.4	443.4	438.8	444.5	448.7	453.3	451.9	437.2	423.1	403.5	391.0	365.0	327.9	283.0	241.1	206.8	186.3	161.1	116.8	88.96	72.07	57.16	49.06	45.69	67.78	225.7	920.7	2461	9999.9	9999.9	9706	118.7	17.53	13.40	10.24	8.397	7.250	6.952	6.713	6.345	5.662	5.552	5.281	4.690	4.572	4.494	4.034	3.746	3.621	3.627	3.642	3.515	3.356	3.209	3.114	3.184	3.205	2.822	3.067
460.0	295.6	1860	4401	933.5	738.4	812.9	876.0	875.2	839.1	809.4	830.3	797.3	755.4	685.5	598.9	519.8	464.4	433.8	418.7	408.5	403.5	404.9	409.5	413.1	409.7	400.7	392.5	375.3	363.5	339.6	309.7	268.3	231.1	197.1	171.2	158.1	127.2	93.09	72.42	59.02	49.66	41.34	42.45	75.65	229.4	579.0	2742	9999.9	9999.9	6920	83.78	17.94	12.11	9.856	7.988	7.640	7.049	6.559	6.070	5.777	5.201	5.096	4.307	4.386	3.950	3.927	3.651	3.443	3.382	3.107	3.233	2.970	2.927	2.728	2.876	2.596	2.700
465.0	236.4	926.6	5155	2550	717.0	768.2	824.7	829.0	789.6	762.3	758.7	736.6	695.7	633.6	553.9	484.9	427.3	400.6	388.6	377.8	368.8	369.9	375.0	377.9	375.2	366.3	357.9	348.2	338.8	317.6	290.0	253.1	221.6	188.6	160.5	146.9	133.0	98.81	74.42	60.41	49.68	41.78	37.69	42.14	74.35	153.8	644.0	3516	9999.9	9999.9	1262	27.95	15.95	11.84	9.556	8.431	7.479	6.587	6.302	5.539	5.197	5.327	4.484	4.187	3.852	3.721	3.554	3.182	3.212	3.034	3.311	3.012	2.926	2.915	2.591	2.373	2.469
470.0	222.0	471.9	3171	5899	1380	700.2	754.5	757.0	719.0	701.0	680.8	659.7	615.5	561.6	492.5	431.2	382.7	358.7	345.1	333.0	323.5	324.4	326.3	330.7	328.3	324.1	317.4	307.6	301.2	284.2	263.4	233.6	201.9	174.4	148.4	130.6	120.2	104.5	79.77	60.38	49.98	41.91	36.05	33.83	39.18	55.81	165.9	815.1	3723	9999.9	9999.9	6521	97.53	17.65	11.60	9.560	8.658	7.378	6.377	5.900	5.115	4.895	4.395	4.170	3.751	3.687	3.163	3.094	3.102	2.893	2.817	2.749	2.714	2.659	2.460	2.291	2.379
475.0	205.8	335.5	1101	6480	4287	694.0	668.9	679.9	637.5	614.1	595.1	580.9	534.1	487.1	430.6	375.3	337.1	315.3	300.3	288.3	280.8	279.0	283.3	285.6	285.0	277.3	273.6	266.2	262.2	252.2	234.6	209.0	183.4	159.6	136.9	118.2	104.1	97.11	85.79	64.03	48.51	42.08	35.65	31.38	29.18	32.29	54.66	199.3	848.6	2364	8573	9999.9	8840	132.0	15.70	10.87	9.364	7.754	6.155	5.633	5.095	4.446	3.995	4.240	3.497	3.183	2.909	2.923	2.826	2.440	2.403	2.543	2.473	2.129	2.089	1.925	2.078
480.0	198.3	320.7	545.0	4073	7698	1246	617.6	615.5	584.4	568.1	540.3	530.7	491.1	444.1	390.2	339.8	308.0	281.7	273.6	262.4	254.0	248.4	253.9	254.3	255.2	249.3	245.3	242.6	239.6	230.7	211.9	192.7	168.4	147.2	128.8	111.0	97.40	87.57	83.21	68.20	50.12	40.23	35.32	29.92	26.88	26.22	29.39	60.91	205.4	545.8	2197	9999.9	9999.9	1655	27.70	14.55	11.03	8.662	6.738	6.051	5.143	4.501	4.137	3.723	3.449	3.113	3.133	2.864	2.504	2.406	2.174	2.261	2.178	1.992	1.826	1.826	1.838
485.0	196.1	295.0	382.1	1760	8774	3277	594.5	570.4	541.4	516.9	505.1	486.3	448.8	404.7	354.5	310.1	278.6	261.3	253.8	245.1	232.9	228.9	231.8	231.5	230.5	230.0	226.0	222.1	218.3	209.2	198.9	178.5	157.8	140.1	123.4	105.5	92.62	80.71	75.38	71.03	53.69	41.63	35.86	31.16	26.96	23.79	23.24	29.17	60.60	136.4	509.3	2948	9999.9	9999.9	1411	25.44	14.14	10.13	7.799	6.325	5.464	4.639	4.532	3.790	3.466	3.279	2.918	2.779	2.526	2.267	2.071	2.001	2.033	1.818	1.873	1.866	1.778
490.0	148.2	280.8	330.3	699.0	5194	7983	1311	518.0	495.3	461.1	457.8	434.2	403.3	364.0	319.0	279.5	246.9	234.2	224.8	215.1	205.4	203.1	205.8	204.7	204.7	203.2	199.7	196.5	195.0	187.9	178.6	161.5	145.3	128.7	114.6	98.85	86.98	75.29	67.45	64.40	58.13	45.00	35.09	30.56	26.68	23.67	21.78	21.65	27.58	43.16	126.7	676.9	3094	9999.9	9999.9	6171	110.4	16.65	9.824	7.709	6.372	5.360	4.555	3.995	3.425	3.258	2.810	2.648	2.594	2.267	2.059	1.900	1.719	1.784	1.730	1.632	1.554
495.0	114.6	255.7	328.4	416.2	1680	8659	3543	516.1	445.1	411.8	405.3	380.1	353.2	322.2	282.1	244.9	220.7	209.9	199.8	186.7	181.1	176.6	179.0	180.6	179.7	176.9	176.4	172.7	172.7	167.6	157.4	144.2	130.5	116.2	104.0	92.18	80.63	69.80	61.37	56.85	54.63	49.89	37.04	30.37	26.19	23.66	21.27	19.91	19.37	21.55	39.88	162.8	703.5	2311	8493	9999.9	9999.9	155.8	16.42	10.08	7.272	5.893	5.172	3.866	3.308	3.307	2.648	2.424	2.320	2.218	1.910	1.844	1.493	1.653	1.519	1.578	1.504
500.0	97.53	209.1	336.6	347.9	647.3	5401	8904	975.4	400.2	381.6	368.2	349.4	323.5	284.7	256.5	221.0	197.0	187.8	176.4	170.2	160.8	159.9	159.5	160.0	160.4	158.8	156.7	156.3	153.5	151.1	142.7	129.2	119.1	106.9	95.88	85.68	75.66	66.32	57.65	52.00	48.32	47.90	40.98	31.34	25.54	23.43	21.12	19.06	17.19	16.32	19.50	47.54	168.7	530.7	2134	9999.9	9999.9	7692	30.62	13.94	8.545	6.529	5.343	4.290	3.480	3.076	2.739	2.481	2.350	2.203	2.009	1.937	1.520	1.356	1.241	1.321	1.259
505.0	86.95	172.1	317.5	306.3	383.7	2233	9999.9	2563	373.1	348.1	332.2	315.0	288.4	260.3	231.1	201.7	178.0	169.6	160.3	153.2	142.4	141.9	142.8	142.5	142.4	141.4	140.7	138.9	137.2	136.4	129.0	119.8	109.0	97.03	87.07	79.39	68.66	61.94	54.21	47.74	42.80	43.45	42.73	32.28	25.54	23.76	20.00	18.15	16.53	15.14	14.99	21.01	48.15	130.4	492.7	2771	9999.9	9999.9	1635	27.66	11.38	7.659	5.864	4.576	3.817	3.184	2.678	2.440	2.207	1.815	1.555	1.660	1.308	1.436	1.281	1.134	1.127
510.0	59.04	122.8	246.0	315.0	301.9	757.5	6494	8432	957.3	307.4	293.4	276.7	256.0	226.5	197.9	175.6	157.7	147.3	139.4	132.2	124.5	123.0	122.5	122.5	123.0	121.5	120.7	120.4	119.6	116.9	113.0	104.7	95.22	86.56	78.00	69.84	61.85	55.23	48.72	43.43	38.32	35.93	37.69	34.36	27.57	22.53	19.91	17.63	15.47	13.98	13.38	13.98	20.20	38.59	120.5	632.4	2862	9614	9999.9	6932	115.6	13.17	7.330	5.188	4.151	3.638	2.807	2.322	2.285	1.737	1.514	1.531	1.306	1.250	1.166	0.937	0.946
515.0	42.53	99.93	179.0	287.9	281.0	362.0	1964	9999.9	4474	296.4	256.1	240.7	218.9	197.2	171.6	150.6	137.0	125.1	119.0	113.7	106.2	104.8	105.5	103.8	105.2	102.2	102.5	100.8	101.4	101.2	96.42	88.79	82.88	74.60	67.49	61.37	54.73	48.99	44.62	39.00	35.18	31.67	30.71	31.91	29.45	23.05	18.74	16.78	15.35	13.24	12.37	11.95	12.74	16.99	35.35	150.4	649.0	2191	5978	9999.9	9985	168.4	13.01	6.911	5.112	3.849	3.292	2.632	2.028	1.918	1.546	1.486	1.233	1.243	0.923	0.655	0.904
520.0	30.98	87.06	150.2	236.1	287.8	253.6	637.0	6676	9693	709.3	228.1	219.1	192.4	174.7	152.9	133.2	118.9	110.1	106.0	99.67	95.44	90.99	92.69	90.99	91.41	90.29	91.17	88.11	89.61	88.75	85.27	79.35	74.79	67.64	60.89	53.94	48.80	44.86	40.16	36.18	32.49	29.61	26.98	26.35	29.13	24.35	18.65	15.96	14.64	12.49	11.34	10.70	10.46	10.91	15.59	41.54	154.0	499.4	1450	7800	9999.9	7126	30.17	10.13	5.931	4.441	3.666	2.575	2.061	1.880	1.458	1.523	1.286	0.951	0.927	0.786	0.716
525.0	23.90	75.94	121.6	184.8	278.2	214.2	308.7	2706	9999.9	1982	215.7	200.3	173.4	155.7	136.6	118.9	105.8	99.30	95.48	89.59	84.39	82.24	80.74	80.70	81.82	81.25	82.10	78.18	79.90	79.48	76.30	70.55	66.95	60.17	54.16	49.39	44.89	40.04	36.47	33.37	29.33	27.25	24.00	23.20	25.64	24.93	19.29	15.19	13.37	11.77	10.71	10.10	9.975	9.429	10.45	16.29	41.96	120.0	335.3	2001	9871	9999.9	1734	25.67	8.282	5.062	4.001	3.118	2.148	1.887	1.480	1.290	1.259	0.798	0.935	0.920	0.689
530.0	17.09	62.73	99.98	141.5	235.7	223.4	211.3	796.1	7568	9508	709.0	175.3	154.5	136.3	116.6	102.6	92.16	85.34	81.47	75.75	72.55	70.34	69.34	70.88	69.28	68.77	68.45	67.33	68.45	67.44	65.22	61.05	56.24	51.37	47.48	42.86	39.63	35.56	31.93	29.84	25.96	24.30	21.60	20.08	20.29	21.88	20.41	15.80	12.71	11.02	9.865	9.335	8.910	8.477	8.401	9.713	15.74	33.25	82.09	455.8	2491	7530	9999.9	6543	121.5	10.90	5.246	3.637	2.654	2.249	1.612	1.401	1.119	0.842	0.849	0.633	0.528
535.0	6.126	45.86	82.63	114.6	161.5	232.3	176.0	300.4	2248	9999.9	4567	178.3	130.5	117.4	98.93	88.36	78.66	73.14	68.75	64.07	60.23	58.83	58.65	58.64	57.70	58.94	57.70	56.82	56.96	57.63	54.61	51.88	47.30	43.70	40.17	36.39	34.31	30.82	28.37	25.21	22.75	21.18	19.43	17.61	16.43	17.34	18.73	16.65	12.32	10.18	9.110	8.378	7.646	7.475	7.631	7.625	8.986	12.77	23.77	107.5	561.0	1697	4076	9999.9	8711	185.4	10.45	4.826	3.303	2.436	1.970	1.509	1.048	0.923	0.791	0.430	0.501
540.0	5.563	28.03	71.32	93.45	125.4	210.5	168.6	177.8	637.8	7689	9999.9	464.7	120.2	104.8	86.94	76.18	68.17	64.55	59.90	55.65	54.27	51.26	51.07	52.06	49.85	49.17	49.34	50.09	48.92	48.97	47.73	45.64	41.10	38.36	35.32	32.45	29.79	26.88	25.06	22.85	20.43	19.16	17.47	15.87	14.87	14.19	15.30	16.04	12.69	9.656	8.465	7.564	7.052	6.729	7.030	6.907	6.807	7.540	9.835	29.08	130.4	385.0	951.2	5107	9999.9	6343	30.40	8.073	4.174	2.830	2.160	1.673	1.158	0.849	0.694	0.625	0.496
545.0	1.577	25.95	56.00	80.63	106.7	172.9	181.7	137.1	241.2	3074	9999.9	1464	114.1	95.17	77.06	68.97	60.33	56.91	52.74	49.29	47.19	45.11	45.02	45.38	42.96	43.84	42.58	43.11	43.54	43.20	41.20	39.72	36.90	33.54	30.26	27.58	26.40	24.10	22.11	20.30	18.77	16.72	16.29	14.21	13.25	12.47	12.58	14.21	13.03	9.652	7.697	6.932	6.463	6.082	6.241	6.212	6.145	5.766	6.364	10.78	33.38	90.97	219.3	1235	6300	9999.9	1805	25.94	5.997	3.441	2.203	1.888	1.358	1.065	0.822	0.534	0.532
550.0	-7.791	29.56	50.64	65.37	82.99	114.2	176.8	121.5	131.6	827.9	8091	9218	448.2	81.36	66.94	57.11	49.95	46.69	42.85	40.21	39.28	36.56	36.94	37.74	35.94	35.58	35.41	35.56	35.81	35.29	33.99	32.02	30.10	27.84	25.91	23.63	21.83	19.77	18.58	17.13	16.01	14.47	13.61	12.53	11.68	10.99	10.36	10.81	11.27	9.865	7.792	6.069	5.757	5.399	5.362	5.333	5.511	5.116	5.121	5.804	10.89	24.04	53.40	281.0	1516	5141	9154	5156	127.6	9.315	3.338	2.231	1.548	1.142	0.883	0.484	0.509
555.0	-17.73	26.64	50.15	55.11	67.06	74.38	137.8	141.1	93.56	254.6	2306	9999.9	3518	85.09	57.67	48.23	41.84	38.65	36.19	33.34	31.96	29.54	29.97	29.65	29.82	28.46	28.91	28.36	29.35	27.93	27.79	25.72	23.97	22.59	20.59	19.47	17.95	16.18	14.99	13.61	13.45	11.84	10.89	10.57	9.921	8.820	8.852	8.164	8.530	8.846	7.934	5.584	4.648	4.770	4.389	4.483	4.457	4.604	4.423	4.146	5.097	8.249	14.86	65.92	341.5	1153	2861	8600	6643	198.5	8.526	3.394	2.004	1.273	0.880	0.548	0.368
560.0	-17.23	30.90	51.04	50.72	54.30	60.01	93.62	152.0	85.75	119.5	599.6	8179	9369	146.1	51.24	42.60	36.95	33.77	30.47	28.19	26.58	24.92	25.07	25.24	24.93	24.10	23.99	23.50	23.53	23.34	23.51	21.42	20.32	18.49	17.50	16.29	14.85	13.72	13.06	12.07	11.13	10.08	9.355	8.773	8.688	7.770	7.476	7.132	6.643	7.186	7.448	5.742	4.370	4.035	3.844	4.115	3.638	3.910	3.863	3.586	3.527	4.426	5.985	17.39	79.14	261.0	652.9	3189	9066	4804	31.44	5.800	2.841	1.502	0.821	0.583	0.291
565.0	-24.33	20.45	46.83	45.74	43.36	47.39	67.68	143.3	89.25	81.71	194.0	3213	9999.9	971.6	50.43	37.74	32.53	29.12	26.59	24.78	23.32	21.84	20.52	21.49	20.74	20.89	20.20	19.92	19.67	19.39	19.87	18.63	17.66	16.13	14.67	13.64	13.07	11.88	10.86	10.28	9.459	8.245	8.256	7.712	7.189	6.536	6.656	6.078	5.412	5.434	6.254	5.939	4.104	3.665	3.607	3.263	3.227	3.202	3.254	3.190	2.910	2.956	3.571	6.077	20.07	61.26	149.6	741.8	3883	8469	1838	26.22	3.779	2.107	1.106	0.714	0.513
570.0	-14.21	20.41	39.94	39.81	35.54	40.41	45.80	100.8	112.7	68.95	96.65	832.0	8244	7871	258.7	34.28	28.65	25.36	21.71	20.84	19.39	17.85	17.01	17.42	16.33	16.66	16.43	16.29	16.20	16.06	16.14	15.06	13.81	12.80	11.72	10.91	10.50	9.755	8.887	8.349	7.568	7.007	6.497	6.311	6.058	5.637	5.461	5.056	4.603	4.275	4.647	4.957	4.214	3.405	2.936	2.727	2.746	2.747	2.738	2.702	2.691	2.520	2.410	3.069	6.324	15.82	35.72	168.4	901.3	3239	5386	3549	130.3	7.496	1.758	0.925	0.633
575.0	-14.98	14.10	37.78	41.20	32.51	31.86	36.63	55.84	124.1	75.96	69.72	235.2	2339	9999.9	2397	37.83	25.22	20.16	17.81	16.71	15.64	14.69	14.64	13.81	14.23	13.92	12.86	13.10	12.42	12.85	12.23	11.87	11.04	10.50	9.540	8.954	8.212	7.745	7.204	7.142	6.322	5.945	5.323	5.119	4.933	4.536	4.436	4.020	3.899	3.474	3.565	3.983	3.990	3.435	2.723	2.289	2.353	2.295	2.034	2.059	2.257	2.417	2.118	2.067	2.814	4.899	9.556	39.31	202.9	724.7	1524	4769	4412	202.1	5.636	1.678	0.916
580.0	-19.78	12.51	33.43	35.07	27.36	26.60	32.59	39.30	100.4	90.93	61.56	97.17	588.7	7713	6745	87.90	23.03	18.00	16.15	15.06	13.16	12.53	12.66	12.01	12.09	11.50	10.83	11.19	10.67	10.52	10.57	10.18	9.337	8.742	8.361	7.693	6.968	6.356	6.060	5.959	5.256	5.347	4.491	4.661	4.430	3.769	3.930	3.395	3.077	3.081	2.798	3.020	3.271	3.479	2.624	2.165	1.938	1.866	1.704	1.790	1.866	2.043	2.062	1.771	1.814	2.384	3.686	10.16	46.97	163.2	345.1	1624	5290	2022	31.29	3.382	1.156
585.0	-19.41	20.74	35.02	32.75	25.14	23.55	26.95	32.90	69.01	110.2	62.81	66.69	172.4	3010	9999.9	631.9	24.20	16.76	15.39	12.93	11.62	10.86	10.83	10.80	10.04	9.675	9.768	9.680	9.069	8.975	8.691	8.626	7.879	7.363	7.547	6.394	5.872	5.368	5.453	4.909	4.420	4.498	3.742	3.669	3.735	3.262	3.335	3.188	3.063	2.629	2.442	2.326	2.558	3.000	2.537	2.270	1.759	1.604	1.471	1.536	1.451	1.598	1.879	1.727	1.416	1.600	2.001	3.695	11.67	37.93	79.04	373.2	2083	4743	1698	25.36	2.394
590.0	-22.10	15.18	33.09	32.62	24.81	22.79	22.71	29.16	45.95	101.9	74.80	55.18	76.38	764.2	7068	5644	62.59	16.92	13.82	11.53	10.19	9.490	9.113	9.256	8.452	8.271	8.179	8.073	7.708	7.713	7.443	7.320	6.574	6.167	5.883	5.148	4.822	4.595	4.433	3.851	3.683	3.693	3.273	3.078	3.037	2.787	2.841	2.676	2.493	2.242	2.026	1.848	1.797	2.320	2.498	2.115	1.692	1.374	1.357	1.255	1.258	1.127	1.385	1.541	1.270	1.343	1.197	1.729	3.452	9.507	18.81	84.82	477.9	1732	3290	2371	133.6
595.0	-29.77	12.67	25.16	26.03	20.95	14.67	18.99	24.61	32.80	71.03	96.02	55.90	52.00	199.1	1985	9216	669.3	20.43	12.11	10.35	9.506	8.339	7.808	7.217	6.933	6.288	6.671	6.386	6.627	6.339	5.822	5.703	5.276	4.995	4.590	4.324	3.955	3.871	3.604	3.114	2.893	3.143	2.623	2.524	2.531	2.406	2.177	2.053	2.057	1.863	1.712	1.592	1.394	1.726	1.811	2.044	1.890	1.223	0.925	1.031	0.914	0.803	0.835	1.062	1.216	1.230	1.051	1.077	1.517	2.893	4.874	19.82	107.4	387.1	871.3	2657	2124
600.0	-25.31	0.713	27.33	23.25	17.17	15.39	18.06	22.65	30.71	50.45	101.7	60.65	47.09	71.66	489.5	6579	4477	56.34	12.62	9.030	8.465	7.418	6.542	6.499	6.553	5.018	5.883	5.397	5.810	5.069	5.113	4.720	4.058	4.381	4.149	3.682	3.409	3.266	2.927	2.682	2.569	2.461	2.174	2.250	2.012	2.046	1.985	1.815	1.680	1.631	1.530	1.295	1.251	1.173	1.472	1.771	1.674	1.164	0.875	0.879	0.770	0.768	0.680	0.778	1.074	1.140	0.917	0.583	0.817	1.092	1.534	5.086	24.66	87.17	196.5	842.2	2960
605.0	-29.48	-0.805	28.94	23.71	17.49	15.02	18.44	24.46	29.32	45.95	93.21	75.21	46.13	46.20	133.6	2627	7629	425.3	13.94	9.925	8.126	7.103	6.147	5.612	5.868	5.064	5.248	4.833	4.687	4.616	4.510	3.942	3.720	3.659	3.182	3.123	2.816	2.925	2.490	2.354	2.124	2.161	2.039	1.870	1.683	1.932	1.686	1.566	1.483	1.428	1.306	1.137	1.057	1.003	1.109	1.418	1.539	1.307	0.853	0.736	0.691	0.607	0.597	0.660	0.651	1.048	1.041	0.531	0.646	0.602	0.815	1.594	6.187	20.08	44.55	191.8	1110
610.0	-28.16	-3.137	22.44	25.14	12.71	14.92	16.17	24.30	32.05	46.50	74.97	97.71	57.53	45.07	56.42	665.5	5525	3632	43.59	9.717	7.728	6.544	5.335	5.072	4.731	4.405	4.387	4.088	3.887	3.737	3.702	3.439	3.179	3.040	2.761	2.496	2.601	2.327	2.216	2.005	1.808	1.657	1.565	1.547	1.429	1.603	1.518	1.375	1.245	1.261	1.126	1.020	0.925	0.753	0.923	0.961	1.175	1.285	0.854	0.650	0.602	0.559	0.548	0.514	0.537	0.709	0.809	0.699	0.605	0.402	0.389	0.557	1.608	4.758	10.32	43.46	252.8
615.0	-36.49	1.622	18.96	22.61	13.21	14.87	17.09	24.85	32.84	44.24	59.66	95.65	70.45	44.48	39.01	169.1	1637	6769	519.3	12.20	7.773	5.980	5.216	4.100	3.946	3.585	3.855	3.787	3.263	3.075	3.110	2.888	2.684	2.429	2.492	2.339	2.023	1.830	1.911	1.505	1.486	1.313	1.423	1.235	1.231	1.384	1.172	1.247	1.038	1.075	1.016	0.669	0.703	0.709	0.606	0.753	0.811	0.879	0.784	0.698	0.511	0.379	0.427	0.358	0.408	0.375	0.329	0.496	0.360	0.344	0.272	0.235	0.559	1.142	2.367	9.860	56.46
620.0	-32.42	-5.689	15.98	18.79	14.96	10.38	17.14	24.26	31.31	44.01	53.67	82.04	82.22	44.86	34.62	56.74	408.7	5229	3305	33.33	7.650	5.899	4.999	4.266	3.966	3.373	3.410	3.427	2.748	3.133	2.893	2.559	2.217	2.279	2.002	2.111	1.731	1.560	1.592	1.370	1.457	1.064	1.003	1.044	1.258	1.262	0.938	1.069	0.924	0.941	0.848	0.515	0.608	0.562	0.494	0.542	0.657	0.612	0.733	0.787	0.440	0.386	0.426	0.244	0.291	0.203	0.157	0.291	0.568	0.418	0.187	0.023	0.291	0.433	0.610	2.276	12.74
625.0	-37.82	-2.991	15.48	20.86	13.09	12.71	14.58	25.71	31.51	39.76	52.32	71.02	86.13	47.79	32.89	30.68	109.5	2272	6012	254.5	8.662	6.038	4.944	3.936	4.010	3.048	3.159	2.969	2.648	2.540	2.415	2.066	1.917	2.071	1.623	1.817	1.611	1.500	1.217	1.224	1.258	1.026	1.114	1.003	1.064	0.976	0.937	0.993	0.834	0.874	0.806	0.643	0.571	0.444	0.419	0.412	0.423	0.452	0.461	0.629	0.548	0.416	0.372	0.311	0.184	0.265	0.062	0.082	0.307	0.391	0.163	0.056	0.034	0.104	0.168	0.402	2.902
630.0	-41.67	-7.124	14.19	13.55	10.87	9.594	15.73	22.31	30.83	39.33	48.30	58.16	79.52	58.89	32.39	24.92	39.51	579.6	4848	2632	30.36	6.389	5.058	3.767	3.359	2.671	2.726	2.458	2.509	2.332	2.130	1.930	1.803	1.764	1.608	1.481	1.298	1.253	1.143	1.039	1.011	0.809	0.924	0.742	0.846	0.836	0.807	0.729	0.740	0.668	0.677	0.477	0.490	0.400	0.329	0.375	0.274	0.368	0.387	0.475	0.438	0.332	0.228	0.209	0.097	0.200	0.088	0.013	0.091	0.204	0.141	-0.002	0.030	-0.150	-0.082	-0.036	0.524
635.0	-44.89	-6.743	14.36	12.18	8.475	10.33	13.78	21.86	27.70	38.78	49.31	56.33	65.03	66.64	36.03	24.28	22.88	141.9	1541	5266	396.3	9.171	5.324	4.021	3.416	2.534	2.432	2.651	2.284	2.030	1.706	1.782	1.551	1.728	1.313	1.382	1.328	1.063	0.815	0.660	0.801	0.712	0.797	0.637	0.776	0.626	0.594	0.714	0.595	0.583	0.544	0.481	0.392	0.334	0.289	0.280	0.150	0.280	0.205	0.214	0.294	0.278	0.071	0.074	0.014	0.115	0.025	-0.029	0.050	-0.026	0.045	0.005	-0.002	-0.271	-0.230	-0.286	-0.127
640.0	-48.43	-4.786	10.09	9.871	8.668	10.76	14.85	22.00	26.63	37.95	48.92	55.20	57.09	67.56	40.45	23.64	19.38	42.29	386.3	4449	2263	19.60	5.754	4.278	3.194	2.640	2.424	2.256	1.983	1.839	1.543	1.424	1.557	1.596	1.427	1.065	1.105	1.124	0.870	0.732	0.686	0.639	0.630	0.542	0.566	0.538	0.643	0.752	0.572	0.547	0.540	0.394	0.272	0.312	0.292	0.356	0.172	0.242	0.192	0.151	0.154	0.307	0.223	0.048	-0.030	0.036	-0.045	-0.015	-0.046	-0.088	-0.090	-0.071	0.068	-0.287	-0.320	-0.325	-0.299
645.0	-40.79	-1.928	14.58	8.930	8.476	9.276	13.81	23.62	27.80	38.55	47.13	54.82	51.97	62.21	46.18	23.88	17.84	19.84	96.09	2134	4244	59.06	6.490	4.328	3.362	2.788	2.267	2.180	1.789	1.671	1.421	1.369	1.447	1.391	1.261	1.025	1.083	0.997	0.722	0.574	0.609	0.526	0.507	0.422	0.611	0.498	0.606	0.647	0.475	0.480	0.489	0.319	0.194	0.209	0.168	0.315	0.180	0.195	0.068	0.177	0.113	0.180	0.202	0.008	-0.046	-0.034	-0.109	-0.139	-0.092	-0.178	-0.085	-0.172	0.066	-0.210	-0.261	-0.345	-0.378
650.0	-42.44	-3.909	14.33	13.57	10.27	8.346	13.16	19.61	25.26	36.65	45.31	50.92	50.35	54.20	51.18	25.43	17.69	14.45	29.19	636.6	4921	461.9	10.10	4.799	3.410	2.466	2.371	2.204	1.809	1.767	1.344	1.427	1.363	1.211	1.146	1.201	0.960	0.753	0.703	0.661	0.570	0.300	0.380	0.484	0.579	0.365	0.501	0.526	0.440	0.517	0.368	0.366	0.278	0.165	0.105	0.264	0.204	0.150	0.109	0.068	-0.023	0.112	0.022	-0.068	-0.125	-0.048	-0.089	-0.112	-0.120	-0.131	-0.059	-0.236	-0.122	-0.084	-0.271	-0.407	-0.394
