Sample:	'1
File name:	t2025042103¸ßÍÝ´å¶«ÇÅ.FD3
Run date:	'10:16:36, 04/22/2025
Operator:	Administrator
Comment:	'

Instrument
Model:	F-2700 FL Spectrophotometer
Serial number:	23B8-004
ROM Version:	4J14000 07

Instrument parameters
Measurement type:	3-D scan
Data mode:	Fluorescence
EX  Start WL:	220.0 nm
EX  End WL:	600.0 nm
EX Sampling interval:	5.0 nm
EM  Start WL:	230.0 nm
EM  End WL:	650.0 nm
EM Sampling interval:	5.0 nm
Scan speed:	12000 nm/min
EX Slit:	5.0 nm
EM Slit:	5.0 nm
PMT Voltage:	700 V
Response:	Auto 
Corrected spectra:	Off
Contour interval:	50.000

Peak integration
Integration method:	Rectangular
Sensitivity:	1
Threshold:	1.000

Peaks
No.	ApexEX/EM(nm)	Height(Data)
1	225.0/560.0	50.36
2	225.0/590.0	33.52
3	225.0/625.0	27.22
4	225.0/640.0	28.15
5	230.0/340.0	711.3
6	230.0/390.0	482.4
7	235.0/405.0	473.3
8	235.0/510.0	232.7
9	240.0/525.0	207.0
10	245.0/410.0	446.7
11	245.0/535.0	182.5
12	245.0/635.0	12.59
13	250.0/545.0	155.3
14	255.0/280.0	650.8
15	255.0/560.0	137.2
16	260.0/285.0	658.7
17	260.0/570.0	110.2
18	265.0/290.0	623.4
19	265.0/585.0	100.5
20	270.0/300.0	814.0
21	270.0/380.0	378.6
22	270.0/595.0	85.63
23	275.0/305.0	957.6
24	275.0/335.0	498.3
25	275.0/610.0	71.54
26	280.0/310.0	831.2
27	280.0/620.0	61.27
28	285.0/315.0	811.9
29	285.0/635.0	49.48
30	290.0/325.0	734.0
31	295.0/330.0	545.7
32	300.0/335.0	461.1
33	305.0/340.0	399.7
34	310.0/350.0	313.0
35	315.0/355.0	290.4
36	320.0/360.0	290.2
37	325.0/370.0	249.9
38	330.0/375.0	240.9
39	335.0/380.0	249.5
40	340.0/385.0	228.5
41	345.0/395.0	196.5
42	350.0/400.0	204.4
43	355.0/405.0	189.5
44	365.0/420.0	158.9
45	370.0/425.0	147.0
46	380.0/440.0	108.7
47	385.0/445.0	99.23
48	400.0/465.0	62.40
49	410.0/475.0	43.87
50	415.0/485.0	37.91
51	420.0/490.0	32.46
52	425.0/495.0	28.21
53	430.0/505.0	25.49
54	435.0/510.0	21.52
55	440.0/515.0	18.60
56	460.0/545.0	9.378
57	515.0/280.0	4.431
58	520.0/285.0	4.567
59	530.0/290.0	4.399
60	540.0/295.0	5.310
61	545.0/300.0	5.524
62	555.0/305.0	5.652
63	560.0/310.0	4.927
64	570.0/315.0	5.154
65	580.0/320.0	5.403
66	585.0/325.0	4.907

Data points
	220.0	225.0	230.0	235.0	240.0	245.0	250.0	255.0	260.0	265.0	270.0	275.0	280.0	285.0	290.0	295.0	300.0	305.0	310.0	315.0	320.0	325.0	330.0	335.0	340.0	345.0	350.0	355.0	360.0	365.0	370.0	375.0	380.0	385.0	390.0	395.0	400.0	405.0	410.0	415.0	420.0	425.0	430.0	435.0	440.0	445.0	450.0	455.0	460.0	465.0	470.0	475.0	480.0	485.0	490.0	495.0	500.0	505.0	510.0	515.0	520.0	525.0	530.0	535.0	540.0	545.0	550.0	555.0	560.0	565.0	570.0	575.0	580.0	585.0	590.0	595.0	600.0
230.0	59.05	2008	8712	4285	204.9	11.95	10.28	8.547	7.116	7.311	7.296	6.942	6.891	6.448	5.190	4.679	4.151	4.052	4.011	3.482	3.306	3.020	2.628	2.609	2.671	2.374	2.350	2.233	2.041	1.916	1.860	1.876	1.669	1.608	1.437	1.412	1.213	1.115	1.081	0.989	1.024	1.070	1.102	0.950	0.837	0.845	1.747	10.53	26.54	26.49	12.80	3.092	0.797	0.555	0.517	0.468	0.506	0.405	0.397	0.426	0.363	0.336	0.320	0.281	0.316	0.335	0.285	0.249	0.231	0.184	0.193	0.200	0.188	0.145	0.149	0.136	0.146
235.0	156.3	537.1	4283	9999.9	4266	311.2	14.71	11.54	8.933	8.901	8.494	7.766	6.903	6.648	5.425	5.312	4.496	4.090	4.566	4.137	3.338	3.257	3.190	2.691	2.840	2.325	2.323	2.029	2.165	1.974	1.740	1.957	1.632	1.513	1.404	1.384	1.237	1.142	1.154	0.967	0.963	0.962	1.041	1.122	1.075	1.013	1.125	2.973	8.151	16.80	30.24	26.08	20.70	6.598	0.988	0.466	0.511	0.426	0.451	0.414	0.359	0.339	0.371	0.394	0.311	0.304	0.308	0.235	0.233	0.224	0.227	0.202	0.185	0.172	0.171	0.141	0.126
240.0	186.9	264.3	1144	6675	9999.9	3519	198.0	18.56	11.17	12.30	9.757	9.239	7.993	7.234	5.890	5.558	4.757	4.153	4.782	4.027	3.739	3.004	2.789	3.073	2.743	2.619	2.396	2.179	2.059	2.059	1.889	1.947	1.624	1.537	1.418	1.525	1.444	1.174	1.068	1.025	1.083	0.975	1.012	0.961	1.111	1.252	1.306	1.329	2.489	4.579	12.25	32.25	58.05	27.71	18.56	4.318	0.707	0.439	0.531	0.446	0.531	0.355	0.347	0.378	0.356	0.338	0.319	0.262	0.222	0.258	0.200	0.187	0.161	0.191	0.204	0.141	0.143
245.0	135.1	276.7	371.7	1925	9985	9999.9	2697	106.2	17.62	15.20	13.27	10.38	8.908	8.211	6.813	6.419	5.102	4.661	4.534	3.972	3.720	3.077	3.003	3.144	3.186	2.904	2.488	2.516	2.116	1.990	1.848	1.997	1.792	1.564	1.528	1.545	1.483	1.305	1.128	1.180	1.179	0.918	0.948	0.890	0.963	1.011	1.370	1.401	1.305	1.726	3.322	9.467	29.32	55.14	77.53	26.65	15.18	2.242	0.746	0.428	0.485	0.361	0.407	0.398	0.367	0.326	0.313	0.301	0.218	0.197	0.293	0.176	0.141	0.191	0.209	0.231	0.176
250.0	70.96	166.8	337.5	579.5	2834	9556	9999.9	8658	172.5	26.83	18.66	14.54	12.69	10.12	8.080	7.402	6.370	5.347	4.846	4.468	3.980	3.647	3.373	3.335	3.340	3.021	2.703	2.716	2.321	2.420	1.888	1.869	1.693	1.610	1.596	1.621	1.457	1.444	1.179	1.100	1.199	0.962	1.068	1.006	0.893	0.946	1.063	1.376	1.529	1.534	1.671	2.837	7.243	15.50	34.97	51.28	82.41	73.65	57.48	11.42	2.570	0.592	0.589	0.495	0.457	0.336	0.325	0.352	0.289	0.330	0.259	0.247	0.208	0.187	0.223	0.220	0.185
255.0	58.37	77.87	191.7	454.5	802.5	2267	7928	9999.9	9999.9	228.7	32.59	22.74	16.62	14.21	10.56	8.438	7.692	6.231	5.630	5.274	4.090	4.041	3.652	3.493	3.511	3.086	3.053	2.929	2.455	2.376	2.426	1.877	1.745	1.797	1.710	1.480	1.399	1.281	1.216	1.271	1.085	1.152	1.109	0.953	1.044	0.954	1.064	1.002	1.016	1.373	1.783	2.288	2.805	4.193	8.366	12.18	23.46	53.26	126.4	153.0	30.08	16.99	1.819	0.734	0.584	0.525	0.420	0.385	0.343	0.341	0.296	0.287	0.249	0.249	0.247	0.261	0.176
260.0	64.24	58.95	87.50	303.5	521.4	619.6	2147	9999.9	9999.9	9999.9	164.9	33.76	24.38	17.25	12.95	10.95	8.498	7.267	6.463	5.428	5.080	4.596	3.936	3.948	3.846	3.761	3.281	3.290	2.779	2.670	2.598	2.184	1.894	1.880	1.850	1.569	1.567	1.394	1.528	1.324	1.274	1.231	1.060	1.162	0.998	1.024	1.093	0.983	0.852	1.000	1.158	2.129	2.620	2.338	2.687	3.328	5.881	13.52	42.87	106.9	174.8	179.6	27.47	11.39	0.987	0.729	0.684	0.512	0.425	0.538	0.418	0.313	0.369	0.267	0.267	0.223	0.280
265.0	67.65	56.50	56.10	142.4	431.8	429.8	565.5	3291	9999.9	9999.9	1809	108.7	34.97	24.23	16.93	12.99	9.678	8.209	7.005	5.990	5.914	4.574	4.565	4.060	3.977	3.671	3.554	3.584	2.944	2.727	2.787	2.227	2.173	2.081	1.919	1.687	1.658	1.482	1.481	1.435	1.320	1.334	1.266	1.225	1.084	1.034	0.962	1.034	0.897	0.806	0.873	1.262	2.051	2.682	2.540	1.791	2.006	3.827	10.54	27.85	75.29	173.0	231.9	172.1	21.81	4.866	0.975	0.636	0.570	0.538	0.436	0.346	0.402	0.364	0.326	0.291	0.274
270.0	86.22	77.14	60.50	73.95	189.8	432.0	437.5	843.0	3667	9999.9	9999.9	9999.9	122.6	42.04	26.43	17.92	13.80	11.18	8.915	7.572	6.427	5.430	5.106	4.692	4.314	4.036	3.657	3.816	3.366	3.152	2.883	2.740	2.462	2.350	2.130	1.876	1.734	1.652	1.618	1.466	1.363	1.430	1.377	1.365	1.212	1.184	1.140	1.112	1.003	0.943	0.871	1.000	1.232	1.583	2.294	2.638	2.771	2.409	3.322	7.026	17.89	44.50	92.85	163.3	194.9	171.5	119.7	14.72	5.362	0.978	0.688	0.627	0.490	0.527	0.427	0.438	0.371
275.0	121.2	104.9	92.23	73.61	88.83	179.7	508.2	515.7	917.3	2483	9999.9	9999.9	9999.9	146.9	46.03	28.63	20.26	15.33	12.19	9.651	8.297	7.017	6.022	5.035	5.174	4.673	4.347	4.152	3.866	3.455	3.474	3.022	3.136	2.589	2.207	2.232	1.900	1.847	1.807	1.560	1.543	1.493	1.489	1.489	1.357	1.420	1.329	1.287	1.089	1.081	0.923	1.011	1.130	1.102	1.302	1.432	2.573	3.605	3.692	3.062	4.861	10.75	21.63	37.53	50.29	99.62	257.0	374.9	199.9	23.71	4.571	1.143	0.760	0.729	0.626	0.583	0.537
280.0	151.9	136.3	105.6	79.16	65.88	91.70	275.5	650.8	444.3	655.3	2779	9999.9	9999.9	7934	114.2	42.27	28.94	20.28	16.12	11.60	9.750	8.325	7.076	5.661	5.659	5.190	5.035	4.528	4.122	3.656	3.685	3.366	3.206	2.773	2.616	2.707	2.133	1.800	1.918	1.589	1.667	1.972	1.534	1.492	1.516	1.516	1.383	1.366	1.242	1.095	1.039	1.060	1.179	1.002	1.091	1.126	1.378	2.363	3.919	4.431	3.176	3.401	5.668	9.398	12.36	24.05	73.42	201.3	359.6	260.5	33.59	17.80	1.914	1.138	0.912	0.785	0.701
285.0	196.0	173.6	137.8	88.97	72.45	72.02	125.9	446.6	658.7	315.3	743.0	3514	9999.9	9999.9	5368	84.48	40.52	26.89	19.19	13.93	11.58	9.768	8.381	7.115	6.727	5.651	5.416	4.916	4.314	3.850	4.010	3.734	3.286	2.921	2.819	2.580	2.652	2.085	1.895	1.733	1.695	1.806	1.734	1.609	1.517	1.716	1.670	1.305	1.309	1.228	1.144	1.115	1.247	0.983	1.097	1.033	1.189	1.333	1.990	3.627	4.567	3.416	2.632	3.069	3.766	6.445	17.63	48.31	117.1	245.0	398.9	245.8	29.03	11.88	1.496	0.998	0.858
290.0	226.8	227.6	178.1	124.7	85.48	76.15	88.12	189.2	508.3	623.4	354.1	940.2	3795	9999.9	9999.9	9999.9	302.8	45.20	29.02	19.78	15.70	12.10	10.11	8.431	7.791	6.822	5.975	5.661	4.932	4.383	4.137	3.874	3.677	3.359	3.139	2.906	2.785	2.508	2.232	2.133	1.957	1.824	1.761	1.704	1.734	1.759	1.683	1.625	1.604	1.439	1.312	1.239	1.296	1.089	1.190	1.110	1.132	1.283	1.411	1.751	2.656	3.693	4.399	3.827	2.705	2.759	5.188	12.06	27.44	59.05	127.8	213.6	293.1	304.4	233.4	19.73	9.855
295.0	291.5	290.9	226.9	166.5	105.8	86.86	93.91	124.5	222.5	530.4	758.5	403.0	1019	2525	9999.9	9999.9	9999.9	91.82	46.58	30.75	22.43	16.47	12.60	10.23	8.861	8.066	7.142	6.263	5.488	5.353	4.896	4.500	4.119	3.696	3.363	3.186	2.831	3.009	2.769	2.345	2.145	2.003	2.023	1.930	1.812	1.886	1.781	1.765	1.739	1.618	1.563	1.523	1.422	1.384	1.226	1.294	1.217	1.225	1.359	1.358	1.728	2.069	2.375	4.041	5.310	4.217	3.014	4.091	7.367	14.47	29.71	48.94	69.45	112.9	281.5	468.0	268.5
300.0	320.7	312.0	265.5	190.8	125.1	108.8	108.8	130.3	170.2	317.9	814.0	661.6	444.5	744.7	2790	9999.9	9999.9	4907	80.33	43.04	29.74	20.52	15.97	13.34	11.59	9.393	8.236	7.085	5.903	5.603	4.903	4.985	4.410	3.999	3.754	3.404	3.088	2.841	2.744	2.426	2.329	1.887	2.163	1.943	1.833	1.953	1.745	2.069	1.866	1.687	1.628	1.591	1.422	1.369	1.383	1.313	1.326	1.271	1.475	1.404	1.620	1.705	1.706	2.299	3.720	5.524	4.891	3.203	3.383	4.791	8.111	12.57	16.87	26.94	72.77	195.3	394.5
305.0	341.9	335.5	300.4	212.5	145.2	132.7	135.3	157.5	191.7	268.1	558.1	957.6	517.0	380.7	813.1	3559	9999.9	9999.9	3653	67.74	39.55	26.82	20.13	15.07	13.00	10.80	9.507	7.944	6.762	6.611	5.392	4.995	4.603	4.399	3.990	3.316	3.442	2.994	3.001	2.598	2.549	2.297	2.224	2.074	2.182	1.991	1.921	2.169	2.105	1.852	1.659	1.571	1.539	1.552	1.463	1.380	1.589	1.538	1.607	1.543	1.826	1.765	1.863	2.132	2.552	3.547	5.225	5.652	4.089	3.209	3.504	4.554	5.396	7.662	17.80	46.12	113.4
310.0	360.1	374.5	356.9	239.6	168.4	145.9	160.3	183.8	218.8	284.9	411.5	683.9	831.2	498.1	397.1	958.9	4069	9999.9	9999.9	9999.9	214.7	40.42	27.55	20.67	16.93	13.32	11.58	9.227	7.674	7.380	6.381	5.786	5.200	4.661	4.280	3.705	3.574	3.210	3.052	2.788	2.781	2.367	2.589	2.357	2.263	2.277	2.203	2.297	2.147	2.034	1.720	1.770	1.862	1.745	1.630	1.581	1.814	1.671	1.805	1.710	1.834	1.969	2.027	2.285	2.373	2.737	3.303	4.354	4.927	4.874	4.181	3.381	3.037	3.291	5.554	11.77	26.73
315.0	373.0	439.7	381.9	273.8	187.9	162.5	184.8	219.7	241.3	308.8	404.4	494.4	633.5	811.9	433.6	379.5	1035	2522	9999.9	9999.9	9999.9	70.45	42.68	28.62	22.36	16.90	14.08	10.91	9.066	8.452	7.241	6.028	6.112	4.930	4.728	4.308	3.771	3.350	3.210	2.978	3.014	2.736	2.862	2.567	2.551	2.625	2.609	2.538	2.470	2.233	1.871	1.885	1.987	1.869	1.780	1.711	1.831	1.779	1.935	2.010	2.016	2.081	2.298	2.423	2.473	2.735	3.053	3.287	3.171	3.627	5.154	5.045	3.691	2.773	2.986	4.077	7.299
320.0	423.2	503.5	456.2	314.1	204.3	178.5	198.5	227.6	265.0	333.2	417.3	480.6	504.2	718.8	673.4	300.6	361.7	678.9	2922	9999.9	9999.9	3654	65.31	40.28	28.94	19.90	16.63	12.74	10.56	9.509	7.666	7.091	6.215	5.321	4.609	4.425	4.127	3.589	3.293	3.399	3.215	2.861	2.898	2.621	2.857	2.783	2.641	2.674	2.503	2.371	2.158	2.225	1.949	1.857	1.906	1.858	1.930	2.116	1.971	2.134	2.169	2.125	2.417	2.468	2.663	2.795	2.828	3.198	2.817	2.988	3.720	4.662	5.403	4.012	3.113	2.611	2.965
325.0	470.8	602.3	546.7	371.1	232.1	195.2	208.9	240.7	282.7	353.4	431.9	487.2	475.0	542.2	734.0	435.4	220.6	258.3	751.6	4083	9999.9	9999.9	2768	58.47	38.80	25.78	19.70	14.96	12.20	10.77	8.745	7.661	7.030	6.008	5.360	4.522	4.304	4.022	3.569	3.402	3.227	3.131	3.112	2.798	3.000	3.139	2.854	2.763	2.855	2.574	2.321	2.205	2.223	2.051	2.106	1.872	2.028	2.122	2.128	2.144	2.199	2.401	2.413	2.615	2.710	2.784	2.839	3.111	2.701	3.034	3.168	3.474	4.157	4.907	4.148	3.164	2.184
330.0	499.1	648.4	609.9	443.4	282.8	217.6	216.2	254.0	281.3	356.2	444.3	491.1	477.1	474.9	522.6	545.7	331.6	176.6	253.3	1004	4703	9999.9	9999.9	9999.9	175.7	39.23	27.67	19.74	15.29	12.59	9.973	8.845	7.699	6.444	5.911	5.168	4.469	4.115	4.003	3.530	3.185	3.215	3.036	2.947	3.019	3.189	3.105	3.171	3.101	2.793	2.469	2.424	2.259	2.202	2.113	1.986	2.092	2.161	2.145	2.142	2.290	2.485	2.568	2.603	2.738	2.908	3.020	3.158	2.843	3.055	2.926	2.997	2.979	3.521	3.725	3.920	3.624
335.0	565.7	691.4	685.8	493.7	333.8	244.3	236.4	258.6	295.0	365.8	447.0	498.3	483.8	465.6	427.7	398.3	461.1	272.9	150.8	301.7	1123	2561	9999.9	9999.9	9999.9	61.04	40.66	27.90	19.90	16.05	12.44	10.32	8.705	7.337	6.587	5.626	4.980	4.283	4.181	3.905	3.466	3.397	3.350	3.100	3.385	3.335	3.552	3.522	3.354	2.984	2.632	2.772	2.531	2.228	2.326	2.120	2.318	2.362	2.219	2.405	2.332	2.407	2.485	2.754	2.609	2.951	3.152	3.124	2.914	2.933	2.950	2.863	2.907	2.941	2.871	3.011	3.368
340.0	516.8	694.6	711.3	563.2	348.9	269.9	249.0	265.7	294.7	366.1	432.8	491.9	478.0	462.0	404.6	326.7	362.2	399.7	173.8	147.2	322.9	645.8	3126	9999.9	9999.9	3154	58.03	36.46	25.40	18.66	14.48	12.50	10.08	8.243	6.817	5.850	5.388	4.938	4.373	3.958	3.759	3.656	3.315	3.353	3.347	3.450	3.493	3.528	3.530	3.091	2.821	2.768	2.694	2.326	2.385	2.223	2.373	2.212	2.228	2.323	2.350	2.447	2.514	2.551	2.678	2.959	2.998	3.282	3.060	2.985	3.055	2.818	2.692	2.826	2.568	2.404	2.483
345.0	496.8	663.2	694.1	553.5	372.9	280.6	249.6	273.3	288.4	344.9	418.1	469.6	461.0	447.0	391.5	307.6	262.8	376.6	282.6	127.9	143.3	212.6	778.1	4633	9999.9	9999.9	2478	52.09	32.09	23.08	16.88	13.67	11.40	8.895	7.587	6.356	5.610	5.140	4.432	4.112	3.860	3.589	3.658	3.372	3.238	3.517	3.371	3.531	3.514	3.132	2.675	2.797	2.710	2.303	2.429	2.350	2.372	2.315	2.324	2.277	2.269	2.376	2.377	2.741	2.707	2.905	2.879	3.239	2.868	2.780	2.961	2.660	2.735	2.525	2.452	2.282	2.102
350.0	474.6	624.5	632.2	543.7	382.6	305.4	273.8	283.6	294.2	337.8	400.2	443.6	433.1	425.2	377.2	299.6	232.3	252.1	313.0	233.3	125.8	118.1	240.5	1112	5434	9999.9	9999.9	9999.9	155.1	33.47	22.40	16.85	13.11	10.07	8.311	6.797	6.077	5.374	4.814	4.114	3.780	3.458	3.482	3.326	3.164	3.432	3.177	3.490	3.368	3.060	2.614	2.775	2.755	2.363	2.308	2.181	2.374	2.197	2.339	2.321	2.324	2.351	2.337	2.607	2.526	2.818	2.702	2.922	2.683	2.799	2.724	2.607	2.739	2.492	2.367	2.334	2.196
355.0	451.7	564.7	604.2	520.2	392.3	323.0	294.6	297.9	301.4	334.5	383.4	421.4	412.2	399.4	358.2	294.5	230.0	211.4	218.4	290.4	216.1	113.3	123.3	311.8	1275	2612	9999.9	9999.9	9999.9	55.60	33.52	22.83	16.66	12.33	9.549	8.129	6.514	5.713	5.231	4.434	3.871	3.639	3.646	3.171	3.173	3.434	3.031	3.438	3.400	3.089	2.654	2.902	2.770	2.336	2.399	2.429	2.410	2.416	2.204	2.225	2.283	2.360	2.428	2.558	2.388	2.588	2.659	2.795	2.571	2.639	2.772	2.568	2.726	2.283	2.353	2.319	2.273
360.0	436.6	537.0	571.6	513.9	394.3	347.4	309.3	310.6	320.2	333.1	375.9	404.4	397.5	381.4	346.6	293.8	235.9	207.9	188.7	230.2	290.2	161.3	104.3	136.9	349.0	647.1	3255	9999.9	9999.9	2963	51.33	29.72	21.41	14.68	11.11	8.917	7.236	6.383	5.588	4.869	4.351	3.893	3.796	3.318	3.141	3.320	3.237	3.295	3.212	2.931	2.839	2.867	2.719	2.349	2.457	2.314	2.447	2.476	2.392	2.263	2.293	2.281	2.423	2.477	2.530	2.462	2.550	2.557	2.424	2.688	2.531	2.462	2.314	2.239	2.233	2.275	2.170
365.0	425.9	520.3	563.7	504.3	410.4	354.3	320.4	326.0	324.8	338.6	371.3	393.2	379.5	372.3	342.8	293.2	243.4	215.0	192.1	188.6	259.8	248.6	123.9	103.1	145.5	204.5	800.3	4806	9999.9	9999.9	2312	46.09	26.72	18.61	13.83	9.981	8.222	7.352	5.867	5.092	4.546	4.058	3.882	3.449	3.205	3.430	3.352	3.350	3.215	2.912	2.707	2.912	2.809	2.536	2.683	2.454	2.624	2.483	2.464	2.309	2.393	2.522	2.443	2.569	2.426	2.464	2.496	2.520	2.568	2.535	2.417	2.234	2.409	2.389	2.135	2.192	2.267
370.0	390.5	489.7	531.5	503.4	421.9	379.4	349.8	340.7	334.8	353.3	370.5	382.5	364.0	362.3	335.6	291.2	252.0	230.8	205.2	187.2	198.9	249.9	216.7	124.4	107.1	109.4	238.8	1147	5282	9999.9	9999.9	9758	141.2	28.50	18.70	13.06	10.22	8.620	7.045	5.684	5.150	4.620	4.103	3.795	3.734	3.394	3.198	3.296	3.156	2.816	2.660	2.944	2.876	2.649	2.772	2.503	2.557	2.530	2.493	2.407	2.552	2.625	2.513	2.570	2.576	2.366	2.460	2.339	2.453	2.385	2.416	2.269	2.228	2.310	2.153	2.285	2.352
375.0	393.4	465.6	501.0	492.0	440.0	390.9	377.0	362.3	343.8	357.4	367.9	369.9	360.4	353.6	323.6	291.2	260.4	240.5	217.7	199.6	186.7	191.6	240.9	207.2	117.1	95.27	116.2	312.2	1234	2648	9999.9	9999.9	9999.9	47.30	27.82	18.17	13.15	9.984	7.907	6.659	5.762	5.258	4.702	3.884	3.932	3.772	3.167	3.407	3.432	2.696	2.741	3.015	3.057	2.795	2.681	2.573	2.667	2.562	2.557	2.431	2.531	2.645	2.484	2.629	2.360	2.364	2.429	2.307	2.496	2.313	2.262	2.303	2.468	2.254	2.252	2.188	2.207
380.0	391.9	470.5	499.2	469.8	448.1	402.9	388.7	377.1	357.9	362.6	378.6	364.6	355.3	337.0	319.0	286.6	264.1	246.1	226.3	209.7	191.0	180.8	198.8	249.5	165.6	101.7	92.66	127.8	329.5	649.9	3327	9999.9	9999.9	2499	42.26	23.38	16.93	12.54	9.605	7.833	6.380	5.368	4.679	4.334	3.948	3.831	3.525	3.556	3.526	2.906	2.733	3.125	2.859	2.735	2.882	2.472	2.611	2.589	2.484	2.554	2.593	2.607	2.703	2.490	2.499	2.509	2.445	2.458	2.526	2.407	2.509	2.159	2.374	2.227	2.268	2.275	2.391
385.0	365.6	442.2	472.7	477.2	457.6	417.1	400.2	378.3	369.1	369.2	370.8	361.2	351.2	338.3	315.1	283.5	263.7	248.0	233.3	216.2	199.1	183.0	177.5	220.1	228.5	126.2	92.31	90.23	129.2	197.2	806.1	4704	9999.9	9999.9	1933	36.25	20.94	14.84	10.83	8.825	6.625	6.289	5.461	4.553	4.186	4.248	3.752	3.547	3.353	3.019	2.854	3.268	3.198	2.937	2.892	2.582	2.664	2.841	2.590	2.708	2.800	2.584	2.671	2.398	2.627	2.243	2.501	2.369	2.338	2.346	2.534	2.356	2.268	2.226	2.246	2.212	2.145
390.0	365.9	432.6	482.4	478.0	449.1	434.8	411.5	392.4	388.1	375.5	367.5	360.6	349.5	332.1	309.9	285.4	267.0	253.7	241.6	226.3	207.2	192.0	178.3	181.8	213.0	194.3	122.2	91.00	89.12	97.22	228.6	1111	4789	9999.9	9999.9	8042	125.3	22.17	15.02	10.94	8.247	6.919	5.802	5.138	4.683	4.326	3.795	3.683	3.590	2.968	2.980	3.246	3.177	3.028	2.920	2.830	3.011	2.852	2.947	2.816	2.749	2.560	2.592	2.552	2.526	2.402	2.512	2.411	2.322	2.239	2.336	2.231	2.278	2.307	2.252	2.222	2.301
395.0	364.3	432.8	471.0	462.8	458.2	436.6	428.6	410.6	398.8	379.3	376.2	358.2	341.8	328.0	309.2	287.8	268.0	255.6	244.7	230.9	213.8	200.4	184.9	171.7	175.3	196.5	186.0	111.6	85.90	80.09	100.7	291.7	1110	2528	9999.9	9999.9	9999.9	40.14	21.96	14.95	11.14	8.542	6.780	5.922	5.066	4.839	4.040	3.874	3.974	3.312	2.854	3.322	3.164	3.307	3.022	2.831	3.146	2.977	2.920	2.887	2.813	2.700	2.523	2.571	2.580	2.516	2.528	2.372	2.314	2.407	2.122	2.235	2.206	2.280	2.204	2.499	2.342
400.0	348.0	418.3	458.4	460.9	454.1	442.2	431.3	419.9	401.8	378.2	378.9	367.5	339.1	329.9	301.5	281.2	267.0	254.1	246.4	234.8	216.6	203.5	188.0	174.8	164.9	169.5	204.4	152.1	93.44	79.58	74.25	110.2	286.9	606.9	2936	9999.9	9999.9	2218	36.98	19.72	13.42	10.81	8.179	6.488	5.431	5.202	4.235	4.249	4.010	3.483	3.172	3.165	3.197	3.111	3.303	2.861	3.115	2.903	2.936	2.984	2.680	2.830	2.646	2.469	2.490	2.559	2.494	2.507	2.264	2.198	2.250	2.376	2.239	2.212	2.272	2.358	2.339
405.0	321.7	396.0	451.1	473.3	458.5	441.3	429.8	418.0	403.4	384.0	375.6	363.4	338.5	319.1	293.5	276.1	262.2	253.3	242.6	233.3	216.8	206.8	193.2	179.6	166.6	154.6	177.2	189.5	120.9	84.20	71.20	70.00	103.3	171.0	698.2	3678	9999.9	9999.9	1901	33.15	17.33	12.59	9.462	7.230	6.045	5.490	4.447	4.340	4.156	3.326	3.198	3.315	3.402	3.063	3.166	3.068	2.975	3.200	2.949	3.003	2.814	2.609	2.640	2.620	2.458	2.445	2.309	2.496	2.333	2.256	2.194	2.222	2.249	2.131	2.267	2.307	2.231
410.0	315.0	385.0	434.5	444.3	445.2	446.7	431.0	418.3	415.4	389.1	375.7	362.6	331.8	310.0	288.2	270.9	255.9	244.6	234.8	226.5	215.5	205.5	191.4	181.2	170.5	154.0	151.0	171.0	166.0	110.9	76.97	65.06	64.32	73.55	187.8	858.7	3704	9999.9	9999.9	7890	125.5	18.83	12.29	9.062	7.333	6.198	5.078	4.581	4.226	3.503	3.197	3.556	3.442	3.178	3.103	2.892	3.056	3.092	2.915	3.035	2.744	2.645	2.822	2.563	2.530	2.523	2.383	2.338	2.269	2.165	2.132	2.176	2.228	2.179	2.219	2.133	2.132
415.0	339.9	383.4	420.2	436.3	434.1	432.0	425.2	418.1	415.5	396.5	371.2	357.0	328.3	307.0	278.9	258.2	247.0	236.7	228.3	219.9	210.1	200.6	192.8	181.4	169.8	155.0	145.4	141.9	159.6	156.0	96.75	68.25	57.54	53.45	73.91	219.3	853.7	2383	9999.9	9999.9	9999.9	37.27	19.41	12.00	9.240	7.569	5.716	4.802	4.817	3.804	3.461	3.766	3.362	3.276	3.181	3.018	2.995	3.037	3.016	2.972	2.938	2.891	2.596	2.396	2.535	2.515	2.231	2.310	2.294	2.123	2.160	2.200	2.203	2.097	2.030	2.197	2.261
420.0	323.1	390.5	428.3	432.7	426.8	429.7	419.3	417.9	407.0	396.9	374.1	345.9	320.9	295.2	271.4	249.9	238.2	230.4	220.3	214.5	206.0	196.1	187.0	181.3	169.8	154.9	143.1	131.8	135.8	158.9	126.1	75.48	59.72	49.52	47.80	75.84	216.3	559.7	2568	9999.9	9999.9	2105	35.10	17.03	11.13	8.736	6.817	5.567	4.902	3.957	3.579	3.615	3.813	3.252	3.205	3.081	3.237	3.031	3.049	2.739	2.868	2.815	2.645	2.740	2.315	2.447	2.193	2.417	2.264	2.129	2.384	2.066	2.232	2.084	2.180	2.084	2.126
425.0	309.7	353.1	411.3	424.2	413.1	416.7	414.5	404.4	390.9	392.4	370.4	340.8	318.1	286.2	260.6	240.0	230.2	221.6	214.9	206.5	197.9	191.7	181.3	176.7	166.0	154.6	143.6	131.1	124.2	140.3	147.0	95.64	62.72	49.88	42.85	44.92	72.87	148.5	601.8	2960	9999.9	9999.9	1912	30.34	14.26	9.954	7.952	6.425	5.099	4.259	3.576	3.621	3.748	3.271	3.243	3.117	3.334	3.370	3.084	2.950	3.025	2.767	2.722	2.635	2.324	2.425	2.378	2.355	2.223	2.210	2.185	2.148	2.216	1.874	2.031	2.000	2.225
430.0	473.6	343.1	383.0	396.2	405.5	407.5	409.0	402.6	395.0	390.1	366.0	336.8	313.7	279.7	255.8	233.8	222.5	213.7	204.8	199.0	189.4	185.8	177.2	172.5	163.2	152.3	143.2	133.1	122.6	119.6	129.3	122.3	81.11	54.51	44.22	38.17	41.37	55.97	156.1	685.8	2977	9999.9	9999.9	8301	127.9	17.25	10.48	8.108	6.052	4.666	4.181	4.025	3.951	3.569	3.607	3.196	3.314	3.418	3.261	2.992	3.030	2.726	2.848	2.702	2.533	2.529	2.365	2.241	2.066	2.111	2.042	2.102	2.082	2.016	1.948	1.992	2.014
435.0	1205	382.8	361.7	394.5	384.8	396.9	403.8	402.4	398.3	384.0	361.5	331.5	305.3	273.7	246.3	224.6	210.0	202.7	195.9	189.1	183.4	177.5	170.1	165.1	161.0	153.0	141.8	134.8	124.4	114.4	109.4	113.5	108.1	69.25	47.10	39.47	36.08	34.82	55.53	172.3	682.9	2298	7580	9999.9	9999.9	195.1	17.25	11.02	8.178	5.941	4.771	4.445	4.241	3.906	3.661	3.384	3.643	3.493	3.354	3.246	3.045	2.927	2.837	2.635	2.484	2.554	2.372	2.110	2.039	2.014	2.135	2.018	1.975	1.904	1.970	1.868	2.056
440.0	1885	672.9	359.4	376.2	387.9	380.8	383.0	392.8	389.5	384.4	362.3	332.8	298.2	270.7	237.3	215.9	203.4	194.9	188.9	182.5	173.8	170.2	167.7	160.1	157.6	148.0	141.8	131.4	124.6	115.6	103.6	98.99	108.7	88.79	53.30	41.25	35.49	30.99	33.12	57.11	171.0	533.7	1857	9999.9	9999.9	9999.9	30.93	16.20	10.25	7.087	5.679	5.275	4.522	4.102	3.753	3.799	3.608	3.622	3.511	3.170	3.157	2.898	2.819	2.713	2.590	2.570	2.386	2.386	2.207	1.908	2.140	1.989	1.825	1.775	1.832	1.934	1.934
445.0	2110	1556	378.2	364.4	377.7	376.8	376.1	383.6	386.6	372.6	358.8	323.4	292.0	258.5	230.7	205.4	195.0	186.7	180.7	176.1	167.7	163.5	160.8	157.1	152.5	144.6	138.4	131.3	122.0	114.4	102.0	92.43	94.68	99.23	66.86	44.13	36.23	31.29	28.01	31.40	56.03	137.7	436.6	2604	9999.9	9999.9	1747	29.69	14.04	9.056	6.504	5.758	4.842	4.344	3.907	3.719	3.843	3.693	3.607	3.193	3.148	3.008	2.844	2.889	2.614	2.434	2.473	2.442	2.132	1.994	2.009	1.868	1.904	1.892	1.819	1.771	1.917
450.0	1238	3409	952.7	348.9	353.6	351.6	365.1	361.4	368.6	356.0	341.3	311.7	277.5	247.1	216.4	197.2	183.0	174.2	169.0	164.5	156.8	152.4	150.8	148.1	142.4	137.1	131.9	124.5	118.5	111.5	100.1	88.31	81.26	84.58	80.97	57.06	39.25	31.94	27.76	26.06	29.98	47.01	114.5	600.5	2642	9606	9999.9	7854	117.0	15.68	8.980	7.523	5.949	4.935	4.450	4.127	4.136	3.847	3.717	3.324	3.324	3.053	2.924	2.824	2.622	2.479	2.508	2.324	2.319	2.006	1.937	1.878	1.988	1.997	1.889	1.835	1.866
455.0	488.2	3301	3681	501.9	322.6	335.5	338.5	340.1	351.7	340.6	326.1	295.1	265.6	232.2	202.5	183.0	168.7	160.0	154.7	152.3	144.8	140.0	138.4	137.3	131.1	125.8	124.7	118.4	112.2	108.2	97.90	86.82	75.14	69.95	72.23	71.12	48.58	33.61	28.66	24.87	24.04	26.08	39.92	148.7	604.7	2181	5379	9999.9	9999.9	167.6	15.81	9.976	7.497	5.632	5.092	4.564	4.344	4.167	3.714	3.294	3.296	2.908	2.869	2.885	2.589	2.531	2.401	2.225	2.120	2.114	2.135	1.955	1.859	1.802	1.785	1.880	1.726
460.0	271.9	1875	5777	926.9	309.5	321.1	319.0	325.9	330.3	323.3	309.1	285.5	252.4	221.5	192.5	172.8	160.1	149.3	145.0	140.2	134.5	130.4	128.1	127.3	124.5	120.9	117.2	112.5	108.4	103.1	92.60	84.00	72.48	63.72	59.88	68.27	59.32	37.43	29.08	24.74	22.92	21.17	23.62	47.09	149.2	502.7	1276	7442	9999.9	9464	128.8	15.30	9.304	7.563	5.876	4.992	4.389	4.266	3.748	3.545	3.106	3.109	2.884	2.718	2.771	2.496	2.377	2.064	2.039	2.039	1.895	1.940	1.804	1.795	1.733	1.764	1.722
465.0	245.3	777.6	5713	3500	362.7	298.3	303.0	308.3	308.8	307.1	295.0	274.2	240.8	209.0	182.3	162.7	151.2	139.6	137.2	129.1	125.1	124.1	120.4	118.1	117.2	113.5	109.9	106.0	102.8	97.72	90.39	80.70	70.77	61.74	54.23	58.53	62.40	45.14	30.66	25.23	22.51	20.28	19.66	24.30	47.31	126.4	302.4	1848	9999.9	9999.9	7213	27.77	13.61	8.938	7.259	6.013	5.002	4.489	3.994	3.573	3.436	3.045	2.997	2.964	2.743	2.579	2.262	2.233	2.337	2.074	2.048	1.861	1.812	1.745	1.556	1.717	1.700
470.0	258.0	369.5	2828	6588	1502	285.0	280.1	287.8	285.1	286.9	277.5	252.3	220.1	192.8	169.6	149.2	137.4	127.9	123.4	116.6	113.1	111.5	109.2	107.1	104.8	101.6	98.88	97.30	94.97	90.37	83.83	75.09	66.62	58.40	50.97	47.55	51.25	50.00	37.16	26.29	22.17	20.08	18.59	18.67	23.10	40.82	80.67	427.5	2480	7335	9999.9	7171	622.2	16.28	9.150	6.670	5.943	5.018	4.281	3.836	3.414	3.238	3.046	2.917	2.798	2.456	2.368	2.118	2.102	1.993	1.927	1.793	1.747	1.758	1.594	1.634	1.519
475.0	259.5	253.0	862.7	5491	5036	454.9	256.2	263.9	265.9	265.5	254.3	232.3	203.8	176.5	155.2	133.0	124.8	115.9	108.9	104.0	103.1	100.1	97.08	94.37	93.35	89.83	87.93	87.25	85.92	83.19	77.83	68.49	61.65	55.64	47.55	43.04	40.41	42.91	43.87	30.57	22.19	19.05	16.95	16.24	16.71	20.11	28.59	105.9	563.3	1655	3755	9999.9	9999.9	198.7	15.71	8.412	6.819	5.368	4.434	3.788	3.402	3.094	2.774	2.650	2.525	2.479	2.160	2.105	1.906	1.773	1.717	1.657	1.639	1.729	1.534	1.433	1.453
480.0	233.2	252.6	373.8	2788	7895	1579	238.2	245.5	252.0	245.5	237.6	218.0	191.4	163.7	142.7	124.2	114.9	108.3	101.3	97.24	95.61	90.61	89.91	87.55	86.04	83.99	81.86	80.86	80.35	78.07	72.76	64.26	59.09	52.31	45.87	39.78	35.75	34.45	41.17	35.96	24.36	18.82	16.58	15.89	15.16	15.64	16.49	33.29	135.1	379.5	871.3	4604	9999.9	9999.9	166.0	12.83	8.469	6.182	5.096	4.126	3.660	3.262	2.866	2.577	2.505	2.489	2.247	1.887	1.938	1.903	1.524	1.692	1.574	1.533	1.643	1.345	1.394
485.0	196.6	252.6	251.2	1005	7556	4007	287.1	236.6	234.5	228.5	224.5	204.6	181.2	156.9	135.7	117.2	109.5	101.8	96.75	90.75	88.62	85.30	84.15	81.55	81.48	79.14	78.05	76.72	74.53	73.56	68.20	61.85	56.43	49.68	43.88	38.27	35.33	30.77	34.10	37.91	28.48	19.32	17.09	15.34	14.60	14.02	13.67	16.57	39.14	93.57	205.3	1096	7047	9999.9	6931	27.65	11.93	7.421	5.739	4.653	3.797	3.610	2.859	2.720	2.675	2.432	2.226	1.942	2.003	1.789	1.597	1.903	1.438	1.368	1.581	1.354	1.309
490.0	164.6	261.7	239.5	384.6	3654	7950	1497	225.3	216.2	213.3	210.8	192.8	171.3	148.0	128.4	109.6	100.0	93.64	87.66	84.77	81.55	78.63	76.64	74.76	75.00	73.41	71.23	70.35	69.17	67.09	62.98	58.11	52.69	46.99	41.71	36.99	33.03	29.31	28.47	31.25	32.46	24.04	18.01	15.21	14.24	13.26	12.57	12.61	17.10	28.74	53.91	254.2	1682	5951	9999.9	7556	719.3	15.79	7.785	5.777	4.718	4.054	3.111	2.904	2.764	2.549	2.384	2.054	2.009	1.741	1.862	1.686	1.573	1.497	1.491	1.306	1.418
495.0	133.0	230.3	275.7	231.7	1020	6766	5978	352.4	199.0	197.1	192.0	179.1	158.7	135.6	116.8	101.2	89.04	84.16	79.35	75.76	72.65	72.23	68.52	66.80	67.06	66.18	65.51	62.85	64.34	61.44	58.28	53.17	48.47	43.87	38.96	34.86	31.74	27.90	25.62	25.00	27.72	28.21	20.96	15.48	13.78	12.72	12.01	11.35	11.95	13.62	19.11	63.96	383.1	1340	3548	9999.9	9999.9	226.0	16.19	7.977	5.832	4.521	3.758	3.249	2.767	2.589	2.291	1.864	1.918	1.701	1.769	1.697	1.505	1.332	1.454	1.283	1.378
500.0	130.2	173.5	275.3	199.7	360.9	3402	9359	1431	196.3	184.8	181.5	168.1	148.1	126.4	108.8	93.92	82.95	78.91	71.21	69.81	67.59	65.12	63.53	62.65	59.83	60.38	59.43	57.74	59.17	56.92	53.28	49.79	45.37	41.23	35.80	33.15	29.73	26.50	24.35	22.83	22.16	27.07	23.76	16.97	13.26	12.55	11.87	10.91	10.20	10.02	10.86	20.83	92.22	307.1	817.7	4335	9999.9	9999.9	186.7	12.67	7.287	5.187	3.963	3.351	2.815	2.587	2.332	2.047	1.980	1.904	1.702	1.599	1.477	1.253	1.317	1.313	1.318
505.0	117.3	153.2	253.4	213.8	209.6	1159	9229	3103	222.0	171.7	164.9	156.7	134.2	116.8	101.9	87.32	77.30	72.53	67.14	63.82	62.43	60.08	57.87	56.62	56.07	55.85	54.83	53.14	53.55	52.04	49.61	45.79	42.38	37.59	34.00	30.62	27.94	24.80	22.85	21.12	20.24	22.48	25.49	19.47	13.57	12.28	11.05	10.73	9.427	8.844	8.688	10.90	26.75	75.40	191.6	1021	6155	9999.9	7110	30.36	10.49	6.172	4.525	3.621	2.937	2.639	2.249	2.136	1.786	1.791	1.718	1.662	1.377	1.355	1.269	1.212	1.186
510.0	103.2	119.4	190.2	232.7	172.9	378.4	4460	8976	1200	163.8	151.0	142.6	121.6	104.9	91.79	78.91	70.42	66.30	61.13	56.89	54.69	52.47	51.04	50.48	49.55	49.41	48.34	47.31	47.85	47.50	44.99	41.05	37.93	34.38	30.79	28.12	25.64	22.87	21.11	19.08	17.98	17.65	20.48	21.52	16.15	12.06	10.49	9.832	8.991	8.115	8.085	8.166	11.60	22.57	49.19	235.6	1454	5360	9999.9	7565	687.1	13.54	6.019	4.476	3.481	3.046	2.423	2.145	1.871	1.808	1.690	1.564	1.315	1.278	1.243	1.221	1.193
515.0	97.37	110.6	143.2	215.8	180.4	190.4	1181	8415	6381	256.6	137.7	128.5	108.6	94.96	81.49	69.09	63.30	57.28	53.64	51.91	48.74	46.02	44.70	44.15	44.38	42.85	41.57	42.09	41.64	41.98	38.78	36.43	33.47	30.88	27.11	25.28	22.84	20.53	18.82	16.67	16.30	14.90	15.24	17.93	18.60	13.85	9.858	9.155	8.588	7.318	7.258	7.256	7.453	9.694	16.36	58.24	330.4	1204	3071	9999.9	9999.9	225.1	12.90	6.327	4.082	3.475	2.689	2.215	1.963	1.801	1.633	1.411	1.431	1.265	1.198	1.080	1.080
520.0	85.98	96.22	113.7	175.5	205.0	146.2	362.3	4349	9999.9	1269	132.2	118.6	100.6	89.13	74.73	63.46	58.66	52.49	49.31	46.50	43.61	41.65	41.04	39.87	39.77	38.77	37.29	38.02	37.98	37.63	35.68	32.34	30.92	27.81	25.17	23.02	21.04	19.01	17.49	15.84	15.28	13.84	13.23	14.38	18.12	16.24	10.44	8.864	7.834	7.172	6.671	6.746	6.654	6.695	8.439	18.07	78.87	275.2	702.5	3841	9999.9	7869	33.29	9.381	5.232	3.851	3.097	2.539	1.920	1.785	1.572	1.323	1.393	1.173	1.270	1.074	0.959
525.0	78.35	87.30	94.09	135.9	207.0	138.3	169.4	1442	9999.9	4547	153.1	109.8	93.93	80.39	69.34	59.03	55.16	50.07	44.37	42.32	40.81	37.27	38.06	35.64	35.40	34.75	34.55	34.25	35.51	33.37	33.61	30.06	27.44	25.74	23.22	21.43	19.76	18.01	15.96	14.82	13.72	12.34	12.26	11.87	14.18	15.90	12.52	8.566	7.501	6.782	6.333	6.016	6.402	6.064	6.255	8.615	22.40	66.93	163.7	894.1	5018	9999.9	1928	29.27	7.543	4.432	3.310	2.673	2.142	1.810	1.653	1.399	1.348	1.125	1.064	1.077	0.923
530.0	73.17	79.61	86.60	98.50	170.0	158.2	121.9	414.9	5464	9999.9	952.7	105.4	87.22	74.75	61.86	53.55	48.16	43.81	40.03	37.58	36.05	32.99	33.63	31.75	31.06	30.96	30.34	30.35	30.46	30.10	28.81	26.32	24.69	22.70	21.14	19.05	17.43	16.39	14.94	13.40	12.56	11.15	10.91	10.55	10.74	13.58	13.40	9.860	7.019	6.157	5.622	5.443	5.323	5.750	5.590	5.869	9.162	19.19	41.53	205.3	1179	4541	8954	5678	134.3	10.99	4.648	3.163	2.450	1.990	1.763	1.379	1.289	1.172	0.970	0.924	0.952
535.0	63.59	70.35	73.37	82.30	118.3	182.5	110.4	168.2	1418	9999.9	6861	168.9	81.73	66.73	57.01	48.07	41.17	38.83	36.16	32.51	30.73	30.12	28.48	27.75	27.93	26.80	26.39	26.17	26.19	25.93	24.37	23.71	22.35	19.13	17.66	15.96	15.33	14.22	13.20	12.20	11.13	10.50	9.705	8.877	9.150	9.890	11.60	11.35	7.589	5.728	5.228	4.974	4.862	4.818	4.858	4.947	5.610	8.173	13.03	49.88	267.3	1019	2609	8766	7502	213.1	9.170	4.051	3.172	2.320	1.937	1.575	1.466	1.331	1.161	1.056	1.010
540.0	59.07	62.67	66.28	72.52	81.62	161.0	126.9	104.5	389.3	5184	9999.9	903.7	74.92	62.22	53.01	43.62	37.54	35.64	32.68	29.83	27.79	27.46	25.96	24.67	24.66	24.12	23.72	23.43	22.62	23.02	21.02	20.65	19.54	17.20	15.85	14.55	13.49	12.40	11.92	10.89	9.971	9.259	9.142	8.171	7.892	7.882	9.076	10.82	8.831	5.495	4.784	4.748	4.498	4.318	4.305	4.554	4.446	5.028	6.452	14.70	63.61	231.9	593.6	3137	9963	5573	32.55	6.874	3.907	2.528	2.157	1.686	1.481	1.278	1.228	1.064	0.895
545.0	57.26	62.09	59.95	63.87	66.43	127.7	155.3	84.91	153.4	1652	9999.9	3932	85.02	58.39	48.99	39.62	35.21	31.42	29.21	26.44	25.01	23.72	22.96	22.28	21.72	21.33	20.73	20.42	20.49	20.28	19.24	18.08	17.43	15.24	14.77	13.41	12.27	11.23	10.65	10.05	9.305	8.599	7.790	7.497	7.012	6.945	7.168	8.913	9.378	6.644	4.727	4.191	4.135	3.801	3.854	4.468	4.446	4.098	4.326	6.285	17.61	55.39	137.1	726.1	4221	9783	1886	26.91	5.725	3.103	2.256	1.683	1.549	1.173	1.114	0.908	1.050
550.0	53.98	57.22	57.47	54.23	56.57	79.22	150.5	94.59	89.23	436.6	5649	9999.9	656.2	53.96	41.46	34.84	30.01	27.84	24.26	22.00	20.84	20.37	19.92	19.45	18.59	17.90	17.82	17.09	17.15	17.26	16.35	15.98	14.68	13.21	12.35	11.28	10.53	9.930	9.291	8.246	7.766	7.136	7.071	6.599	6.303	5.881	5.766	6.307	8.037	7.265	5.310	3.943	3.688	3.424	3.553	3.694	3.997	3.959	3.719	4.002	6.713	15.28	33.82	166.0	979.8	3759	6380	4056	133.8	8.365	3.129	2.177	1.760	1.278	1.225	1.025	1.046
555.0	46.47	47.83	50.83	49.55	47.74	51.63	105.6	125.7	69.49	144.0	1422	9999.9	5641	92.89	37.46	30.93	25.57	23.45	20.58	18.51	18.56	17.02	17.40	15.97	15.52	15.34	14.93	14.10	14.47	14.88	13.57	13.16	12.24	11.17	10.80	9.696	9.116	8.094	7.869	7.310	6.848	6.284	5.944	5.649	5.187	5.159	4.664	4.815	5.465	6.467	5.754	3.988	3.320	2.987	3.201	3.108	3.091	3.236	3.369	3.286	3.654	5.573	10.02	39.70	221.4	841.5	1829	5786	5009	203.5	6.354	3.041	1.910	1.690	1.314	1.016	0.877
560.0	44.61	50.36	44.42	43.10	37.40	43.05	70.24	137.2	67.35	75.56	367.1	5208	9999.9	530.3	35.81	28.32	23.54	20.67	18.13	17.18	15.99	14.85	14.42	13.64	13.49	13.38	13.39	12.28	12.91	12.65	12.00	11.31	10.45	9.485	9.040	8.719	7.472	7.238	6.904	6.272	5.829	5.572	5.055	4.672	4.704	4.628	4.395	4.014	4.029	5.100	5.475	4.191	3.006	2.729	2.823	2.661	2.765	2.700	3.112	3.024	2.832	3.244	4.338	11.14	51.79	190.5	415.3	2019	6318	2056	31.76	4.651	2.363	1.843	1.283	1.086	1.023
565.0	46.93	45.60	42.47	35.94	33.38	37.19	45.50	125.2	85.21	54.69	124.4	1612	9999.9	2806	40.88	26.09	21.70	18.32	16.78	16.13	13.81	13.09	12.50	11.88	11.60	11.31	11.16	10.76	11.84	11.07	10.34	9.828	8.605	8.387	8.062	7.425	6.761	6.381	5.891	5.722	5.258	4.899	4.612	4.183	4.045	3.940	3.779	3.667	3.434	3.824	4.554	4.424	3.157	2.580	2.504	2.317	2.582	2.446	2.708	3.002	2.480	2.479	2.719	4.497	13.70	44.91	96.07	465.0	2559	5593	1756	24.91	3.446	2.074	1.611	1.141	0.965
570.0	42.05	39.70	40.69	31.75	30.02	31.38	34.67	77.45	110.2	48.66	62.36	407.9	5562	9332	438.1	26.53	20.32	16.41	14.77	13.68	12.38	11.67	10.21	10.13	9.947	9.736	9.473	9.196	9.601	9.290	8.680	8.029	7.346	7.075	6.671	6.234	5.864	5.456	4.926	4.643	4.431	3.974	3.918	3.715	3.480	3.458	3.249	3.072	2.904	2.927	3.218	3.943	3.490	2.718	2.178	2.095	2.161	2.049	2.188	2.361	2.358	2.182	2.185	2.466	4.762	11.89	23.59	106.3	590.0	2111	3883	2641	129.1	6.158	2.061	1.361	1.142
575.0	34.06	39.49	36.84	31.24	27.87	28.90	27.16	43.53	105.7	63.32	44.09	121.6	1385	9637	4152	45.17	19.51	14.78	12.81	11.58	10.47	9.936	9.391	8.705	8.372	8.331	7.951	7.845	7.627	7.320	7.308	6.708	6.201	5.951	5.301	4.871	5.051	4.379	4.291	3.822	3.702	3.503	3.452	3.202	2.958	2.861	2.733	2.643	2.463	2.474	2.346	2.712	3.284	3.132	2.200	1.964	1.871	1.626	1.823	1.899	1.970	2.348	2.047	1.971	2.396	4.136	6.909	25.49	133.5	472.8	1065	3303	2097	192.0	4.637	1.979	1.249
580.0	34.48	35.15	33.21	28.78	23.73	23.12	24.51	30.95	80.20	89.44	40.53	56.92	343.6	4840	8350	113.5	19.27	14.21	12.64	10.66	9.312	9.083	8.984	7.993	7.575	6.895	6.983	6.910	6.503	6.523	6.468	6.169	5.621	5.001	4.884	4.345	4.416	3.917	3.796	3.405	3.186	3.180	3.120	2.751	2.568	2.495	2.592	2.543	2.153	2.135	1.987	2.012	2.563	3.026	2.438	1.842	1.741	1.461	1.420	1.638	1.736	2.001	2.000	1.825	1.748	2.180	3.212	6.995	31.30	107.3	241.3	1105	3455	1928	30.86	3.192	1.474
585.0	31.78	29.39	33.46	23.92	22.42	21.24	21.63	23.04	52.00	100.5	43.77	39.34	104.0	1467	9999.9	841.0	22.04	13.81	12.02	9.695	9.000	7.928	7.980	7.447	7.281	6.373	6.274	6.019	5.980	5.866	5.789	5.269	5.097	4.540	4.429	4.106	4.024	3.451	3.333	3.125	3.048	2.784	2.609	2.629	2.402	2.250	2.351	2.263	1.892	1.825	1.781	1.729	1.973	2.673	2.671	1.949	1.614	1.516	1.435	1.455	1.415	1.543	1.842	1.764	1.517	1.686	2.162	2.873	8.388	25.43	55.45	253.3	1367	3484	1493	24.37	2.307
590.0	30.98	33.52	30.11	23.10	20.07	17.19	19.48	19.84	30.23	83.28	65.83	32.88	46.32	361.0	4899	6325	267.2	14.11	11.07	9.098	7.998	7.158	7.072	6.523	6.129	5.363	5.638	5.260	5.142	5.073	4.844	4.648	4.336	4.085	3.780	3.526	3.224	3.004	2.883	2.647	2.501	2.480	2.370	2.242	2.120	2.099	2.040	1.965	1.799	1.605	1.535	1.540	1.515	1.844	2.321	2.050	1.655	1.417	1.327	1.306	1.281	1.340	1.449	1.660	1.622	1.372	1.647	1.724	2.958	6.714	13.67	58.01	313.7	1232	2389	1206	130.5
595.0	29.33	31.67	25.77	20.90	19.31	15.82	14.93	18.10	21.76	47.56	85.63	35.42	32.22	100.9	1202	7020	2579	22.23	11.03	8.834	7.776	6.888	6.359	6.086	5.437	5.182	4.641	4.942	4.277	4.460	4.235	3.816	3.702	3.478	3.129	2.923	2.906	2.642	2.695	2.273	2.117	1.941	1.974	1.943	1.819	1.882	1.866	1.736	1.655	1.372	1.358	1.357	1.327	1.234	1.703	2.077	1.781	1.430	1.087	1.087	1.068	1.266	1.157	1.217	1.568	1.514	1.317	1.239	1.530	2.398	4.074	13.92	71.12	275.8	623.6	1764	1986
600.0	30.15	26.52	25.35	19.09	16.56	15.90	15.25	17.17	19.49	31.76	81.52	47.60	27.45	41.86	289.4	3689	5881	77.57	11.84	8.525	7.234	6.101	5.971	5.611	5.255	4.664	4.404	4.097	4.057	3.837	3.586	3.730	3.441	2.842	2.827	2.677	2.470	2.568	2.311	2.108	1.887	1.803	1.864	1.817	1.686	1.633	1.617	1.546	1.433	1.305	1.247	1.243	1.146	1.196	1.419	1.884	1.784	1.603	1.078	0.940	0.989	1.025	1.040	1.006	1.205	1.411	1.236	1.071	1.140	1.307	1.645	3.971	16.84	62.72	140.9	561.0	2126
605.0	29.61	26.05	27.76	19.39	16.15	14.45	14.64	16.38	18.94	24.85	61.76	62.12	27.36	28.05	82.05	1147	7261	621.7	13.73	8.723	6.840	5.867	5.347	5.017	4.937	4.137	4.204	3.816	3.924	3.328	3.232	3.164	2.944	2.749	2.667	2.441	2.421	2.127	1.998	1.899	1.810	1.692	1.686	1.661	1.522	1.562	1.602	1.280	1.385	1.241	1.118	1.144	0.998	1.134	1.094	1.459	1.672	1.472	1.131	0.995	0.919	1.032	0.810	1.034	0.969	1.196	1.321	1.027	1.065	1.113	1.081	1.687	4.642	14.96	32.46	128.1	756.6
610.0	25.94	26.22	24.22	18.03	14.74	13.89	13.04	15.55	17.98	21.55	39.90	71.54	35.57	24.95	34.27	280.3	3809	4388	167.9	9.493	7.174	5.774	4.921	4.544	4.359	3.768	3.604	3.337	3.584	3.106	2.944	2.923	2.578	2.543	2.341	2.204	2.011	2.039	1.865	1.763	1.587	1.518	1.457	1.444	1.361	1.374	1.425	1.227	1.153	1.028	1.032	0.991	0.860	0.991	0.944	1.056	1.265	1.462	1.241	1.029	0.828	0.847	0.726	0.877	0.890	0.912	1.132	1.077	0.959	0.903	0.844	1.012	1.647	4.025	7.971	29.40	172.0
615.0	19.51	26.43	22.94	18.16	12.83	10.65	13.04	13.70	16.54	21.31	28.38	58.12	52.48	23.19	22.34	74.99	949.2	5331	1706	13.67	7.633	5.839	4.702	4.335	4.373	3.464	3.299	3.116	3.293	3.054	2.582	2.661	2.187	2.236	2.227	2.009	1.801	1.677	1.543	1.622	1.447	1.443	1.447	1.207	1.317	1.234	1.325	1.227	1.064	0.961	1.021	0.886	0.783	0.892	0.818	0.828	0.995	1.161	1.257	1.006	0.883	0.755	0.801	0.833	0.715	0.774	0.880	0.956	1.029	0.835	0.737	0.774	0.785	1.513	2.378	7.076	39.07
620.0	20.89	26.28	23.23	15.42	12.40	11.59	13.87	13.54	16.42	18.87	25.84	42.82	61.27	26.48	19.05	28.83	226.8	3053	4245	54.77	8.085	5.982	4.905	4.144	3.933	3.636	3.209	3.094	2.838	2.811	2.629	2.305	2.329	2.217	1.889	1.916	1.782	1.474	1.640	1.482	1.315	1.308	1.142	1.239	1.237	1.183	1.155	1.117	1.032	0.970	0.973	0.807	0.762	0.809	0.728	0.738	0.755	0.866	1.138	1.079	0.861	0.692	0.883	0.721	0.713	0.790	0.671	0.805	0.960	0.874	0.639	0.780	0.694	0.891	0.994	2.117	9.345
625.0	20.67	27.22	22.45	13.78	10.74	10.24	11.60	13.25	16.19	19.93	23.07	31.15	59.24	32.56	17.93	17.65	62.07	1002	5533	457.5	9.316	6.306	4.745	3.876	3.759	3.320	3.032	2.972	2.639	2.517	2.525	2.350	2.018	1.871	1.599	1.768	1.489	1.364	1.444	1.426	1.161	1.174	1.154	1.230	1.058	1.154	1.069	1.105	1.022	0.878	0.915	0.842	0.769	0.740	0.652	0.738	0.856	0.779	0.912	0.993	0.897	0.846	0.738	0.632	0.674	0.677	0.626	0.691	0.738	0.932	0.700	0.709	0.600	0.625	0.665	1.058	2.593
630.0	19.52	23.12	21.13	14.73	12.20	11.20	10.20	12.14	14.87	17.93	21.96	25.42	45.09	44.00	18.99	14.23	23.06	242.8	3143	3257	41.83	7.008	4.979	4.098	3.904	3.108	2.920	2.621	2.546	2.504	2.275	2.182	1.855	1.943	1.630	1.654	1.395	1.348	1.314	1.204	1.189	1.057	1.093	1.104	1.000	1.046	0.955	0.989	0.875	0.838	0.851	0.739	0.788	0.660	0.635	0.734	0.720	0.656	0.726	0.898	0.801	0.796	0.593	0.634	0.655	0.680	0.634	0.594	0.571	0.699	0.710	0.660	0.562	0.531	0.495	0.586	0.995
635.0	21.40	24.44	18.32	15.84	11.35	12.59	10.65	11.65	14.62	17.97	20.82	24.22	30.97	49.48	23.87	13.65	13.56	61.92	801.0	4397	520.4	9.550	5.400	4.219	3.684	3.471	2.778	2.385	2.239	2.254	2.346	1.869	1.914	1.776	1.656	1.438	1.473	1.297	1.162	1.246	1.132	1.118	0.998	0.938	0.873	1.070	0.971	0.932	0.856	0.753	0.773	0.716	0.703	0.628	0.559	0.618	0.634	0.590	0.648	0.688	0.706	0.666	0.671	0.703	0.550	0.586	0.611	0.554	0.522	0.481	0.592	0.636	0.628	0.424	0.523	0.390	0.558
640.0	26.27	28.15	17.85	14.94	12.74	10.58	9.384	11.61	14.97	16.93	22.15	22.11	25.37	43.49	30.46	12.72	11.43	20.98	191.3	2783	2845	35.66	6.233	4.211	3.926	3.426	3.037	2.372	2.296	2.268	2.173	1.931	1.798	1.683	1.613	1.381	1.226	1.490	1.130	1.203	1.000	1.012	0.964	0.915	0.933	0.924	0.884	0.896	0.807	0.789	0.766	0.607	0.652	0.634	0.546	0.592	0.668	0.698	0.629	0.654	0.606	0.677	0.700	0.642	0.516	0.540	0.599	0.498	0.549	0.506	0.514	0.580	0.645	0.453	0.389	0.418	0.439
645.0	25.88	27.17	25.40	15.30	11.33	9.548	9.488	12.10	14.67	17.27	19.51	22.44	21.90	33.05	35.79	13.30	10.08	11.86	50.75	998.4	4235	322.1	7.132	4.597	3.870	3.045	2.862	2.259	2.273	2.232	2.085	1.771	1.697	1.814	1.481	1.423	1.335	1.273	1.091	1.136	0.981	1.022	0.997	0.989	0.884	0.945	0.891	0.867	0.852	0.737	0.787	0.617	0.712	0.666	0.581	0.614	0.627	0.600	0.564	0.635	0.540	0.707	0.638	0.549	0.486	0.591	0.472	0.522	0.454	0.413	0.436	0.424	0.628	0.577	0.419	0.311	0.315
650.0	28.93	23.82	25.37	15.01	10.66	9.603	9.099	10.10	13.12	15.97	19.41	22.84	20.94	26.82	36.09	15.38	9.532	9.391	17.80	255.0	3564	1564	11.58	5.090	4.166	3.130	2.891	2.379	2.258	2.168	2.135	1.754	1.757	1.575	1.437	1.529	1.362	1.387	1.138	1.212	1.005	0.892	0.937	1.110	0.825	0.906	0.908	0.737	0.798	0.755	0.756	0.663	0.673	0.589	0.571	0.636	0.613	0.471	0.547	0.545	0.543	0.616	0.527	0.516	0.507	0.484	0.445	0.541	0.490	0.379	0.448	0.418	0.459	0.586	0.409	0.307	0.347
