Sample:	'1
File name:	t2025022503金星科技厂内雨水井2.FD3
Run date:	'10:58:36, 02/26/2025
Operator:	Administrator
Comment:	'

Instrument
Model:	F-2700 FL Spectrophotometer
Serial number:	23B8-004
ROM Version:	4J14000 07

Instrument parameters
Measurement type:	3-D scan
Data mode:	Fluorescence
EX  Start WL:	220.0 nm
EX  End WL:	600.0 nm
EX Sampling interval:	5.0 nm
EM  Start WL:	230.0 nm
EM  End WL:	650.0 nm
EM Sampling interval:	5.0 nm
Scan speed:	12000 nm/min
EX Slit:	5.0 nm
EM Slit:	5.0 nm
PMT Voltage:	700 V
Response:	Auto 
Corrected spectra:	Off
Contour interval:	50.000

Peak integration
Integration method:	Rectangular
Sensitivity:	1
Threshold:	1.000

Peaks
No.	ApexEX/EM(nm)	Height(Data)
1	225.0/300.0	2444
2	225.0/345.0	2026
3	225.0/590.0	215.6
4	265.0/585.0	269.0
5	270.0/305.0	3898
6	270.0/600.0	284.4
7	275.0/310.0	3804
8	275.0/345.0	4880
9	310.0/415.0	2312
10	315.0/420.0	2326
11	360.0/450.0	1406
12	365.0/455.0	1417
13	455.0/300.0	5.720
14	550.0/305.0	18.01
15	560.0/345.0	21.43

Data points
	220.0	225.0	230.0	235.0	240.0	245.0	250.0	255.0	260.0	265.0	270.0	275.0	280.0	285.0	290.0	295.0	300.0	305.0	310.0	315.0	320.0	325.0	330.0	335.0	340.0	345.0	350.0	355.0	360.0	365.0	370.0	375.0	380.0	385.0	390.0	395.0	400.0	405.0	410.0	415.0	420.0	425.0	430.0	435.0	440.0	445.0	450.0	455.0	460.0	465.0	470.0	475.0	480.0	485.0	490.0	495.0	500.0	505.0	510.0	515.0	520.0	525.0	530.0	535.0	540.0	545.0	550.0	555.0	560.0	565.0	570.0	575.0	580.0	585.0	590.0	595.0	600.0
230.0	20.82	202.6	439.3	111.8	8.443	4.357	4.140	3.458	4.155	3.723	4.047	3.610	3.448	2.756	2.317	2.082	1.760	1.568	1.416	1.352	1.296	1.272	1.289	1.137	1.139	0.980	0.908	0.873	0.810	0.819	0.764	0.704	0.646	0.603	0.588	0.505	0.450	0.449	0.381	0.367	0.332	0.329	0.306	0.358	0.267	0.290	0.458	1.211	1.623	0.996	0.416	0.253	0.222	0.253	0.225	0.229	0.236	0.221	0.223	0.227	0.230	0.243	0.236	0.216	0.242	0.247	0.241	0.233	0.237	0.248	0.239	0.236	0.228	0.234	0.221	0.245	0.262
235.0	21.63	62.38	293.8	438.4	131.6	10.37	4.873	3.679	4.521	4.534	3.993	3.436	3.931	3.085	2.397	2.163	1.638	1.581	1.464	1.496	1.364	1.342	1.337	1.179	1.040	1.032	0.814	0.781	0.700	0.832	0.740	0.639	0.760	0.572	0.553	0.565	0.428	0.380	0.412	0.333	0.381	0.307	0.312	0.354	0.298	0.301	0.335	0.478	0.878	1.228	1.482	1.460	0.694	0.307	0.196	0.219	0.243	0.255	0.202	0.246	0.259	0.290	0.242	0.249	0.210	0.227	0.217	0.257	0.217	0.235	0.241	0.213	0.225	0.254	0.228	0.252	0.292
240.0	22.19	27.29	95.44	420.4	500.5	124.1	8.055	4.315	4.820	5.000	3.892	3.799	3.285	3.078	2.174	2.253	1.789	1.564	1.339	1.574	1.660	1.181	1.347	1.141	1.019	1.044	0.895	0.814	0.723	0.812	0.712	0.649	0.693	0.531	0.534	0.605	0.460	0.414	0.405	0.356	0.398	0.305	0.307	0.281	0.266	0.293	0.285	0.348	0.372	0.489	1.089	2.272	2.424	1.755	0.682	0.295	0.224	0.262	0.219	0.274	0.237	0.213	0.216	0.213	0.248	0.204	0.245	0.291	0.240	0.228	0.238	0.226	0.256	0.263	0.233	0.260	0.270
245.0	21.16	27.51	33.64	152.2	651.0	475.8	101.1	6.026	4.363	5.425	3.983	4.283	3.375	3.101	2.315	2.181	1.786	1.530	1.463	1.554	1.354	1.175	1.206	1.443	0.891	1.062	0.940	0.772	0.760	0.757	0.717	0.694	0.698	0.574	0.573	0.551	0.445	0.405	0.369	0.394	0.410	0.381	0.311	0.270	0.283	0.299	0.315	0.296	0.248	0.262	0.404	0.988	2.249	3.476	3.482	1.898	0.595	0.290	0.232	0.229	0.216	0.233	0.261	0.215	0.272	0.248	0.235	0.245	0.213	0.236	0.277	0.248	0.271	0.245	0.231	0.246	0.226
250.0	22.64	23.22	31.42	52.63	231.5	774.9	932.4	192.4	21.75	5.114	5.010	5.452	4.046	3.432	2.681	2.362	1.895	1.807	1.579	1.487	1.432	1.251	1.368	1.274	1.114	1.031	0.986	0.913	0.825	0.845	0.788	0.711	0.676	0.579	0.594	0.565	0.471	0.395	0.388	0.394	0.361	0.311	0.348	0.300	0.312	0.283	0.287	0.327	0.297	0.294	0.291	0.439	0.769	1.375	2.860	4.331	5.627	5.314	2.922	0.908	0.276	0.257	0.251	0.251	0.233	0.257	0.220	0.240	0.257	0.247	0.256	0.238	0.254	0.225	0.231	0.256	0.236
255.0	23.35	18.28	33.30	58.30	72.83	220.3	1040	2055	252.0	20.45	6.636	5.824	4.622	3.563	2.949	2.699	2.052	1.649	1.581	1.466	1.743	1.285	1.409	1.317	1.086	1.044	0.997	0.835	0.900	0.786	0.790	0.797	0.809	0.634	0.598	0.415	0.571	0.460	0.427	0.375	0.373	0.322	0.332	0.325	0.302	0.296	0.285	0.296	0.282	0.308	0.328	0.382	0.372	0.515	0.853	1.313	2.720	6.964	11.99	10.88	5.229	0.961	0.255	0.283	0.264	0.264	0.250	0.224	0.240	0.264	0.277	0.241	0.260	0.244	0.260	0.284	0.236
260.0	25.15	18.82	23.25	53.66	70.44	76.24	357.4	2024	2012	198.7	12.74	6.987	5.320	4.343	3.234	2.557	1.760	1.941	1.695	1.628	1.520	1.622	1.332	1.269	1.143	1.055	1.030	0.969	0.905	0.895	0.787	0.854	0.743	0.666	0.575	0.481	0.570	0.506	0.430	0.367	0.398	0.392	0.439	0.352	0.335	0.280	0.289	0.265	0.267	0.249	0.332	0.454	0.496	0.446	0.416	0.557	0.878	2.168	6.317	13.38	17.04	12.00	3.862	0.505	0.321	0.268	0.250	0.262	0.260	0.280	0.290	0.253	0.262	0.200	0.273	0.285	0.246
265.0	31.21	22.60	18.98	38.35	95.88	90.52	117.3	762.3	2950	1764	144.7	9.685	6.847	4.271	3.410	2.674	2.036	2.020	1.674	1.752	1.513	1.683	1.224	1.322	1.201	1.005	0.975	0.948	0.996	0.883	0.771	0.863	0.677	0.664	0.636	0.591	0.599	0.432	0.426	0.393	0.411	0.377	0.403	0.348	0.392	0.285	0.280	0.303	0.283	0.236	0.259	0.376	0.613	0.684	0.538	0.499	0.526	0.817	1.763	4.377	10.88	19.86	20.77	10.31	2.071	0.318	0.288	0.268	0.272	0.284	0.296	0.275	0.281	0.246	0.276	0.257	0.260
270.0	168.1	149.4	100.9	62.35	90.84	170.9	171.2	281.3	1097	2861	2953	582.1	24.40	5.907	4.016	3.315	2.535	2.106	2.108	1.912	1.697	1.640	1.443	1.437	1.326	1.179	1.062	1.004	1.052	0.975	0.835	0.818	0.797	0.807	0.835	0.715	0.642	0.540	0.592	0.476	0.520	0.510	0.553	0.586	0.628	0.598	0.502	0.491	0.431	0.381	0.334	0.391	0.456	0.650	0.830	1.049	0.976	0.895	0.963	1.605	3.161	6.637	12.02	17.59	21.22	17.31	8.827	2.250	0.452	0.295	0.286	0.302	0.273	0.264	0.298	0.276	0.270
275.0	541.2	506.1	359.2	159.1	112.8	200.4	346.3	356.1	508.6	1048	2946	4733	159.5	18.33	5.980	4.131	3.413	2.394	2.209	2.083	1.920	1.814	1.687	1.385	1.423	1.225	1.247	1.031	0.986	0.993	0.991	1.011	0.999	1.056	1.119	0.846	0.818	0.798	0.768	0.681	0.789	0.886	1.072	1.256	1.253	1.317	1.204	1.219	1.126	0.930	0.583	0.604	0.536	0.642	0.795	1.215	1.617	1.838	1.685	1.827	2.196	3.050	4.137	5.462	8.182	15.99	27.98	27.00	13.50	2.144	0.411	0.354	0.298	0.294	0.317	0.316	0.301
280.0	949.9	878.4	645.5	263.5	149.0	230.6	413.6	611.8	679.6	825.4	1351	4421	4780	123.6	11.66	5.083	4.023	2.847	2.788	2.193	2.048	1.754	1.622	1.432	1.476	1.178	1.369	1.162	0.906	1.016	0.928	0.990	1.155	1.371	1.396	1.156	1.098	0.961	0.974	1.059	1.132	1.418	1.680	1.733	1.886	2.000	2.103	2.078	1.755	1.346	0.879	0.647	0.704	0.743	0.897	1.226	1.550	2.055	2.835	2.731	2.984	3.117	3.383	3.868	4.581	6.256	12.50	23.31	32.05	24.21	8.541	1.140	0.410	0.344	0.317	0.325	0.361
285.0	1334	1287	945.1	388.0	195.1	276.7	463.1	800.8	1053	1127	1206	2014	6030	3256	85.08	7.513	4.754	3.343	3.111	2.587	2.194	1.813	1.745	1.629	1.390	1.381	1.134	1.151	0.976	0.988	0.921	1.111	1.302	1.646	1.720	1.427	1.231	1.099	1.177	1.115	1.353	1.828	1.920	2.167	2.680	2.913	2.998	2.986	2.543	1.976	1.221	0.848	0.868	0.871	1.013	1.316	1.630	2.264	3.055	4.034	4.570	4.822	4.560	5.316	5.258	5.226	6.573	8.802	16.33	29.67	31.81	19.46	4.955	0.667	0.362	0.341	0.429
290.0	1815	1804	1302	567.6	270.9	343.7	580.6	985.4	1565	1952	1965	1792	2609	4278	3210	355.5	14.98	4.912	3.637	3.016	2.709	2.370	1.957	1.908	1.595	1.517	1.389	1.146	1.136	1.158	1.054	1.086	1.471	1.834	1.839	1.800	1.442	1.335	1.387	1.277	1.581	2.063	2.367	2.940	3.567	4.052	4.069	4.187	3.530	2.514	1.663	1.254	1.069	1.121	1.220	1.579	2.292	2.740	3.457	4.602	6.130	7.407	8.145	8.921	8.795	8.575	8.512	8.033	8.679	11.39	16.31	23.43	26.25	26.73	14.96	5.235	0.806
295.0	2122	2294	1647	747.4	366.8	425.5	714.8	1213	1942	2773	3050	2572	1977	1635	3459	5434	474.3	12.39	4.907	4.168	3.422	2.819	2.475	2.137	1.774	1.557	1.590	1.430	1.473	1.317	1.179	1.285	1.564	1.931	2.166	2.141	1.680	1.456	1.512	1.472	1.833	2.445	2.970	3.558	4.166	5.038	5.040	5.336	4.294	3.512	2.064	1.795	1.334	1.420	1.627	1.872	2.633	3.537	4.624	5.417	7.484	9.041	11.08	12.61	13.93	13.43	12.65	11.26	10.23	9.325	8.736	8.281	8.735	16.61	33.40	33.95	23.72
300.0	2183	2444	1777	860.2	441.8	486.6	775.6	1339	2147	3023	3701	3227	2180	1162	1217	5193	4568	75.14	8.325	4.985	4.442	3.293	2.937	2.497	2.017	1.868	1.650	1.678	1.429	1.308	1.517	1.373	1.617	1.959	2.150	2.086	1.872	1.464	1.591	1.573	1.943	2.357	2.923	3.563	4.375	5.094	5.323	5.720	4.778	3.616	2.534	2.018	1.677	1.529	1.895	2.150	2.746	3.767	5.151	6.281	8.102	9.908	11.92	13.89	15.92	16.66	15.93	13.98	12.23	9.872	8.059	6.052	4.585	5.368	11.13	24.50	46.59
305.0	2106	2356	1776	905.0	498.1	533.7	828.7	1374	2217	3116	3898	3732	2496	1234	601.8	1786	6123	3492	54.69	6.781	5.212	4.097	3.226	2.806	2.472	2.166	1.710	1.752	1.581	1.534	1.436	1.331	1.617	2.042	2.073	2.027	1.796	1.530	1.585	1.583	1.894	2.316	2.877	3.589	4.473	5.128	5.275	5.597	4.911	3.511	2.849	2.267	1.934	1.909	2.146	2.396	2.868	3.861	5.286	6.514	8.224	10.33	11.89	14.55	16.13	17.42	18.01	16.90	13.90	11.74	8.936	6.318	4.382	3.472	3.832	6.882	17.33
310.0	1917	2160	1688	932.3	579.0	598.1	879.3	1393	2175	3087	3789	3804	2907	1515	629.9	608.3	1986	4552	4199	269.7	14.55	5.167	3.862	3.167	2.624	2.385	1.963	1.825	1.680	1.604	1.413	1.337	1.493	1.838	1.949	1.911	1.607	1.578	1.553	1.438	1.706	2.013	2.569	3.392	3.877	4.620	4.823	5.101	4.693	3.532	2.778	2.403	2.100	2.147	2.219	2.513	3.258	4.119	5.136	6.572	8.239	10.30	11.85	14.19	15.64	17.16	17.24	17.11	16.04	14.05	10.57	7.694	5.111	3.952	2.810	3.122	5.051
315.0	1666	1941	1544	922.0	670.5	692.8	936.6	1421	2148	3002	3688	3728	3059	1946	883.4	476.6	605.1	1171	3716	4224	396.6	12.41	5.481	3.889	3.058	2.828	2.287	1.947	1.977	1.773	1.595	1.366	1.610	1.706	1.754	1.854	1.678	1.527	1.418	1.454	1.578	1.907	2.281	2.895	3.442	4.266	4.369	4.529	4.303	3.152	2.749	2.651	2.356	2.577	2.592	2.976	3.678	4.335	5.546	6.964	8.246	10.11	11.97	13.61	14.89	16.60	16.89	16.62	15.63	14.51	12.75	9.559	6.863	5.291	3.658	3.015	2.945
320.0	1591	1846	1483	958.4	728.5	772.1	1010	1500	2203	3037	3688	3791	3166	2247	1239	579.5	373.1	382.7	1084	4755	3842	60.41	9.560	5.277	3.998	3.312	2.553	2.100	2.200	1.987	1.730	1.523	1.515	1.801	1.724	1.668	1.598	1.499	1.345	1.414	1.585	1.870	2.209	2.768	3.131	4.202	4.400	4.658	3.999	3.174	2.803	2.904	2.615	2.911	2.957	3.528	4.017	4.712	5.765	7.042	8.529	9.974	12.15	14.07	15.18	16.27	16.73	16.62	15.90	14.50	12.86	10.72	9.350	7.020	4.976	3.872	2.958
325.0	1549	1866	1509	1030	814.6	867.0	1123	1641	2326	3164	3803	3924	3371	2469	1648	815.9	422.5	273.1	348.6	1583	5864	3278	50.71	8.003	5.124	4.043	2.991	2.669	2.757	2.009	1.932	1.592	1.668	1.776	1.662	1.610	1.619	1.453	1.276	1.362	1.525	1.885	2.093	2.673	3.296	4.084	4.116	4.370	4.069	3.194	2.982	3.114	2.983	3.024	3.312	3.626	4.229	5.073	6.138	7.611	8.725	10.81	12.09	14.75	15.92	16.57	17.23	17.20	16.47	15.37	13.74	12.01	10.69	9.116	7.200	5.169	3.747
330.0	1595	1908	1623	1200	976.0	1019	1285	1812	2553	3394	4066	4256	3777	2904	2014	1264	673.0	377.9	271.6	479.7	1886	4657	4616	1004	16.93	5.650	3.938	3.168	2.860	2.317	2.070	1.818	1.833	1.825	1.741	1.610	1.588	1.497	1.391	1.454	1.559	1.840	2.230	2.658	3.398	4.128	4.237	4.630	4.370	3.645	3.322	3.518	3.436	3.496	3.684	4.056	4.992	5.843	6.861	8.266	9.881	11.77	13.37	15.37	16.95	17.73	18.28	18.17	18.21	17.29	15.92	13.97	12.46	10.71	9.346	7.662	6.630
335.0	1620	1967	1704	1330	1097	1149	1456	2016	2797	3659	4369	4591	4199	3394	2403	1529	1045	595.1	361.3	305.8	556.3	1202	3875	6616	382.3	17.92	5.427	4.196	3.151	2.629	2.631	2.192	1.946	1.782	1.751	1.644	1.579	1.610	1.452	1.534	1.569	1.824	2.283	2.746	3.232	4.133	4.352	4.744	4.643	3.992	3.692	3.903	3.745	3.969	4.084	4.567	5.595	6.322	7.818	9.004	10.97	12.52	14.57	16.72	17.97	18.44	19.54	19.22	19.45	18.86	17.75	16.00	14.74	13.31	11.00	8.669	8.301
340.0	1632	2019	1740	1393	1175	1245	1552	2142	2930	3825	4530	4778	4430	3695	2684	1688	1176	817.2	468.7	325.2	302.6	395.3	1122	5422	5648	313.1	9.793	5.051	3.852	3.167	2.623	2.388	2.098	1.859	1.655	1.769	1.588	1.663	1.441	1.628	1.499	1.773	2.094	2.962	3.326	4.220	4.596	4.951	4.635	3.903	3.653	4.241	4.076	4.075	4.319	4.825	5.995	6.437	7.945	9.351	11.68	12.92	14.81	16.90	18.24	19.05	20.05	20.63	20.84	20.24	18.48	17.63	16.18	14.35	11.87	10.04	9.080
345.0	1699	2026	1754	1416	1221	1304	1628	2191	3022	3886	4604	4880	4582	3869	2874	1820	1215	951.2	625.8	387.5	291.6	252.3	359.8	1680	6114	3107	48.16	7.560	4.519	3.584	2.743	2.603	2.183	1.972	1.791	1.513	1.678	1.562	1.364	1.466	1.596	1.801	2.169	2.802	3.478	4.185	4.522	4.597	4.577	4.091	3.857	4.346	4.447	4.456	4.777	5.107	6.178	6.909	8.292	9.915	11.66	12.71	15.33	17.20	18.38	19.78	20.45	20.57	21.43	20.40	19.72	18.24	17.75	15.72	12.49	11.03	9.764
350.0	1681	1968	1700	1404	1262	1355	1699	2268	3076	3898	4593	4858	4622	3960	3010	1950	1305	973.7	792.3	550.7	380.4	291.6	244.7	483.8	1842	4069	4101	1036	17.87	4.805	3.481	2.856	2.405	2.095	1.995	1.703	1.659	1.505	1.463	1.473	1.637	1.760	2.357	2.792	3.525	4.154	4.323	4.818	4.350	3.904	3.770	4.431	4.363	4.543	4.869	5.375	6.270	7.416	8.471	9.831	11.89	13.28	15.40	17.21	18.42	19.60	20.16	20.57	21.17	20.98	19.73	18.66	18.36	16.07	13.47	11.93	9.753
355.0	1639	1902	1604	1360	1271	1407	1755	2330	3094	3873	4512	4760	4557	3971	3049	2027	1400	1045	843.1	741.6	544.0	392.6	299.0	280.5	523.7	1018	2922	5692	373.1	20.45	4.897	3.686	2.867	2.279	2.030	1.674	1.640	1.556	1.623	1.386	1.674	1.716	2.330	2.636	3.541	4.164	4.302	4.662	4.343	3.680	3.574	4.308	4.419	4.559	4.701	5.622	6.693	7.562	8.572	9.991	12.09	13.58	15.38	17.22	17.80	19.11	19.79	19.79	20.31	20.22	19.64	18.78	18.56	16.48	13.40	11.76	10.30
360.0	1637	1836	1581	1337	1287	1439	1796	2353	3092	3825	4421	4645	4456	3932	3049	2071	1466	1128	905.1	804.7	713.9	517.1	382.0	289.4	278.6	334.1	813.6	4033	5216	336.4	13.19	4.343	3.518	2.563	2.346	1.803	1.717	1.579	1.578	1.423	1.517	1.643	2.306	2.555	3.430	4.101	4.210	4.238	4.157	3.538	3.508	4.194	4.469	4.637	5.248	5.655	6.564	7.907	8.866	10.29	11.92	13.39	15.46	16.85	17.82	19.06	19.14	19.50	20.01	19.58	19.65	18.75	18.37	16.22	13.93	11.85	10.52
365.0	1604	1832	1500	1313	1297	1466	1821	2363	3034	3756	4316	4531	4353	3859	3046	2100	1540	1210	988.5	865.0	813.6	701.7	492.2	367.1	280.8	225.9	280.0	1172	4788	3012	265.8	7.550	4.408	2.936	2.357	2.215	1.849	1.660	1.718	1.365	1.476	1.658	2.203	2.740	3.362	4.043	4.080	4.431	3.908	3.254	3.391	4.074	4.450	4.845	5.375	5.756	6.468	7.649	8.836	10.02	11.63	13.22	14.82	16.29	17.49	18.75	18.80	18.77	19.26	19.71	18.67	18.63	17.91	16.05	14.10	12.11	10.67
370.0	1587	1733	1447	1285	1308	1490	1836	2356	2962	3603	4104	4317	4162	3735	3000	2142	1635	1340	1147	1006	919.1	871.3	719.4	515.7	383.1	282.3	217.8	360.1	1367	3348	3845	1082	18.63	4.547	3.217	2.450	2.105	1.827	1.669	1.556	1.704	1.760	2.139	2.764	3.353	3.938	3.825	4.185	3.813	3.351	3.377	4.065	4.422	4.965	5.287	5.759	6.733	7.661	8.889	9.915	11.55	12.61	14.29	15.12	16.59	17.43	17.37	18.23	18.36	18.74	18.09	17.88	17.73	16.09	13.79	12.47	11.12
375.0	1489	1621	1392	1260	1302	1528	1852	2312	2885	3431	3870	4068	3959	3589	2959	2190	1757	1497	1313	1188	1082	1003	924.3	747.5	535.6	391.1	275.4	230.1	398.5	823.8	2365	5103	1537	22.31	4.408	3.030	2.390	2.055	1.737	1.651	1.677	1.860	2.191	2.653	3.279	3.712	3.740	3.899	3.713	3.216	3.352	3.932	4.285	5.023	5.277	5.826	6.937	7.848	8.840	9.538	11.20	12.57	13.59	14.72	15.57	16.43	16.72	17.25	17.40	17.51	17.71	17.22	17.43	15.66	13.82	12.70	11.95
380.0	1428	1580	1368	1253	1308	1530	1850	2266	2766	3296	3670	3886	3779	3478	2910	2236	1842	1610	1442	1328	1224	1122	1017	912.2	682.5	486.0	347.2	248.2	216.6	264.6	633.7	3234	4776	301.4	13.46	3.937	2.956	2.496	2.076	1.854	1.816	1.901	2.151	2.676	3.131	3.847	3.682	3.739	3.605	3.327	3.321	3.990	4.237	4.991	5.364	6.013	6.765	7.964	9.028	9.452	11.02	12.24	13.13	14.24	14.81	15.39	16.37	16.58	17.10	16.93	17.11	17.01	16.87	15.22	14.08	13.25	12.37
385.0	1399	1521	1342	1236	1336	1546	1847	2229	2647	3110	3506	3689	3624	3371	2874	2276	1931	1723	1568	1454	1360	1254	1121	1002	840.4	594.6	424.3	298.7	213.3	166.2	209.9	893.1	3673	3977	238.8	7.216	3.455	2.741	2.237	1.969	1.847	1.829	2.237	2.635	3.036	3.497	3.627	3.702	3.332	3.209	3.187	4.007	4.373	5.053	5.426	6.053	6.845	7.491	8.910	9.476	10.40	11.85	12.76	13.57	14.13	14.74	15.28	15.99	15.97	16.29	16.11	15.98	16.87	14.85	14.18	13.17	12.82
390.0	1364	1474	1322	1224	1333	1551	1832	2153	2509	2896	3245	3436	3396	3227	2810	2321	2027	1858	1729	1623	1536	1432	1283	1106	957.2	769.2	548.0	390.0	278.3	196.6	154.6	268.5	1000	2779	2920	905.0	16.43	4.196	2.921	2.182	1.941	2.159	2.393	2.626	3.019	3.470	3.468	3.727	3.295	3.197	3.243	4.249	4.493	5.104	5.391	5.845	6.979	7.656	8.487	9.122	10.01	10.69	11.63	12.64	13.48	14.14	14.44	14.97	15.21	15.42	15.55	15.35	15.93	15.04	14.05	13.41	13.10
395.0	1329	1427	1292	1237	1349	1554	1811	2058	2362	2677	2977	3165	3162	3044	2739	2348	2132	2000	1902	1814	1738	1624	1456	1252	1051	891.2	708.5	502.3	366.5	267.2	190.3	165.5	291.1	671.8	1608	3782	1335	20.31	4.174	2.904	2.402	2.323	2.211	2.568	2.956	3.418	3.243	3.733	3.390	3.189	3.284	4.484	4.586	5.191	5.423	6.119	7.087	7.588	8.340	8.762	9.526	9.950	10.76	11.92	12.42	12.91	13.31	13.84	13.81	14.33	14.74	14.94	15.04	14.93	13.96	13.69	13.67
400.0	1249	1393	1260	1214	1350	1537	1781	2017	2253	2522	2784	2975	2975	2924	2680	2356	2195	2099	2022	1954	1887	1762	1586	1363	1132	948.3	803.8	608.7	438.8	328.8	239.5	175.7	154.8	208.7	426.3	2228	3592	261.9	13.03	3.763	2.730	2.631	2.376	2.544	2.877	3.424	3.213	3.465	3.258	3.143	3.265	4.449	4.448	5.225	5.501	5.938	7.246	7.650	8.000	8.368	8.880	9.825	10.35	10.86	11.66	12.05	12.25	12.89	13.37	13.98	14.36	14.21	14.37	14.89	14.07	13.44	13.70
405.0	1226	1335	1240	1219	1332	1540	1763	1959	2143	2387	2623	2800	2824	2797	2607	2367	2251	2185	2125	2067	2014	1888	1695	1454	1211	999.8	847.8	710.7	525.8	394.1	294.6	211.4	153.5	125.5	145.8	607.1	2595	2181	212.8	7.481	3.668	3.042	2.646	2.721	2.927	3.380	3.134	3.337	3.205	3.068	3.214	4.170	4.507	5.178	5.527	5.777	7.450	7.183	7.858	8.183	8.550	9.295	10.24	10.46	11.19	11.63	11.50	12.32	12.54	13.05	12.95	13.65	13.65	14.03	13.59	13.80	13.74
410.0	1182	1270	1195	1194	1330	1532	1718	1887	2027	2221	2430	2578	2618	2618	2498	2337	2275	2255	2237	2213	2145	2026	1822	1559	1301	1079	899.7	784.0	660.3	509.5	380.5	286.4	205.8	149.0	114.7	191.1	701.9	1788	2254	788.0	15.74	4.417	3.281	3.118	3.028	3.116	3.181	3.460	3.244	2.991	3.059	4.057	4.517	4.819	5.502	5.819	6.839	7.175	7.572	7.931	8.269	8.867	9.473	9.771	10.40	10.58	10.88	11.49	11.48	12.25	12.32	12.80	13.43	13.38	12.98	13.48	13.82
415.0	1101	1188	1140	1192	1305	1497	1686	1818	1926	2076	2232	2350	2396	2429	2363	2270	2259	2286	2312	2298	2248	2128	1916	1646	1379	1148	980.1	848.2	756.1	657.1	504.1	384.0	287.4	212.1	154.0	131.8	216.9	445.1	1160	2735	1066	19.78	4.611	3.796	3.330	3.428	2.977	3.018	3.121	3.012	3.197	3.861	4.525	4.782	5.325	5.671	6.671	6.764	7.389	7.515	7.978	8.397	8.906	9.278	8.912	9.365	10.04	10.47	10.91	11.18	11.57	12.05	12.30	12.97	12.70	13.03	13.68
420.0	1047	1153	1100	1128	1259	1473	1632	1786	1868	1987	2118	2213	2254	2291	2255	2194	2224	2265	2311	2326	2283	2169	1961	1681	1417	1196	1038	909.6	821.0	751.3	622.7	474.1	363.8	275.3	201.7	150.9	134.1	157.1	318.0	1581	2672	240.2	12.64	4.435	3.609	3.441	3.033	3.103	3.237	3.044	3.101	3.922	4.362	4.868	5.468	5.466	6.531	6.964	7.153	7.566	7.596	7.662	8.430	8.708	8.873	9.339	9.371	9.931	10.24	10.83	11.17	11.10	11.80	12.16	12.21	12.72	13.42
425.0	1034	1083	1074	1110	1241	1430	1599	1740	1824	1924	2006	2103	2132	2154	2142	2104	2169	2238	2295	2308	2286	2177	1972	1697	1444	1246	1095	982.3	900.3	830.0	741.9	584.4	453.1	351.3	263.6	195.0	146.2	115.5	126.1	441.2	1880	1965	193.3	7.598	4.288	3.779	3.253	3.325	3.111	2.794	3.204	3.749	4.406	4.634	4.849	5.411	6.537	6.614	7.001	7.619	7.332	7.736	8.165	8.643	8.761	8.855	9.032	9.010	9.900	10.14	10.48	10.45	11.30	11.57	11.58	12.25	12.90
430.0	978.0	1007	1002	1060	1207	1389	1571	1701	1781	1872	1941	1977	1990	2007	2001	1990	2064	2154	2221	2255	2246	2152	1960	1713	1481	1303	1180	1097	1026	959.7	881.4	764.1	608.7	477.5	366.5	276.6	203.0	146.8	112.9	156.5	518.0	1409	1817	635.0	14.66	4.448	3.388	3.383	3.192	2.824	2.990	3.827	4.241	4.547	5.030	5.483	6.219	6.642	7.039	7.442	7.484	7.796	8.026	8.527	8.704	8.554	8.651	8.923	9.102	9.402	9.671	9.828	10.40	10.81	10.86	11.75	12.40
435.0	1033	941.3	944.7	1030	1138	1324	1526	1658	1744	1826	1863	1881	1849	1859	1852	1867	1939	2028	2116	2161	2160	2084	1921	1711	1501	1364	1271	1217	1173	1124	1032	930.8	794.9	628.1	486.6	375.5	280.1	200.5	142.9	114.4	167.7	352.4	924.8	2242	851.5	17.38	3.892	3.669	3.160	2.754	2.971	3.796	3.988	4.423	4.917	5.030	5.957	6.485	6.802	7.222	7.375	7.555	7.862	8.050	8.101	8.075	8.103	8.119	8.609	9.118	8.658	9.688	9.489	9.869	10.37	10.62	11.70
440.0	1054	921.8	897.3	966.1	1083	1289	1489	1626	1731	1774	1812	1795	1748	1740	1738	1758	1825	1931	2013	2059	2071	2014	1873	1687	1517	1404	1330	1297	1278	1243	1156	1043	917.6	747.7	584.5	452.0	339.3	244.6	173.6	121.3	100.7	119.1	249.6	1369	2029	211.5	10.05	3.956	3.508	2.922	2.881	3.757	4.089	4.314	4.777	5.123	5.940	6.584	6.759	7.002	7.107	7.568	7.599	7.979	7.797	7.738	7.969	8.079	8.228	8.272	8.273	8.705	9.266	9.193	9.664	10.01	10.74
445.0	993.2	930.5	839.9	914.5	1060	1254	1455	1567	1684	1730	1743	1714	1659	1637	1640	1646	1713	1808	1894	1945	1972	1928	1807	1641	1507	1419	1374	1354	1355	1331	1257	1138	1005	850.2	672.2	516.8	391.9	285.3	203.2	140.7	97.18	73.48	84.93	377.5	1647	1739	153.6	5.792	3.651	3.103	2.881	3.740	3.987	4.446	4.758	5.030	5.870	6.315	6.598	6.518	7.130	7.100	7.728	7.569	7.526	7.819	7.532	7.549	7.850	7.746	7.793	8.044	8.695	9.033	9.299	9.776	10.35
450.0	790.6	991.3	840.3	850.6	985.5	1190	1379	1510	1615	1642	1650	1606	1533	1487	1476	1485	1543	1625	1700	1760	1799	1771	1679	1551	1458	1395	1375	1384	1406	1400	1340	1224	1079	927.4	766.2	596.3	450.4	330.4	237.8	166.0	112.5	75.83	56.43	108.3	447.4	1284	1587	529.7	11.50	3.459	2.916	3.654	3.769	4.280	4.448	5.027	5.630	6.126	6.307	6.378	7.060	7.129	7.455	7.319	7.367	7.316	7.295	7.209	7.252	7.308	7.270	7.690	7.948	8.121	8.283	8.821	9.419
455.0	639.3	906.8	871.4	779.0	905.2	1096	1281	1419	1527	1547	1530	1468	1391	1330	1299	1305	1357	1421	1489	1551	1593	1579	1522	1426	1365	1327	1336	1361	1401	1417	1371	1267	1120	958.4	810.6	655.9	498.4	363.7	266.6	189.9	131.0	87.08	57.18	53.13	119.9	304.2	791.4	1841	196.2	12.89	3.473	3.540	3.645	4.065	4.140	4.533	5.470	6.089	5.932	6.089	6.473	6.610	6.980	7.013	6.877	6.804	6.594	6.751	6.553	7.078	6.676	6.912	7.359	7.488	7.509	7.707	8.819
460.0	539.1	757.9	905.5	735.8	845.0	1004	1191	1346	1438	1476	1432	1375	1272	1217	1184	1175	1217	1267	1335	1389	1426	1431	1387	1322	1273	1263	1272	1314	1362	1391	1350	1257	1118	962.4	806.3	670.3	517.4	383.0	281.7	201.9	141.5	94.55	61.81	44.48	48.63	82.15	201.6	1095	1548	159.5	8.066	3.840	3.717	3.858	3.934	4.422	5.403	5.460	5.636	6.024	6.119	6.285	6.683	6.566	6.735	6.782	6.305	6.408	6.138	6.365	5.983	6.557	6.455	6.695	6.669	7.098	7.824
465.0	492.2	600.3	879.0	752.4	776.0	942.6	1111	1261	1347	1382	1352	1276	1185	1102	1073	1056	1083	1135	1191	1239	1281	1289	1263	1212	1181	1177	1199	1251	1302	1331	1299	1216	1087	939.8	784.9	653.4	524.3	392.6	286.6	206.7	146.0	100.7	66.83	46.56	35.37	35.08	57.23	295.2	1284	1290	128.5	5.564	3.719	3.780	3.662	4.219	4.872	5.008	5.247	5.435	5.841	6.090	6.135	6.128	6.555	6.046	5.812	5.847	5.779	5.973	5.424	5.833	6.111	5.930	6.110	6.442	6.995
470.0	410.3	491.8	662.7	820.1	711.6	840.3	995.7	1142	1231	1249	1221	1146	1044	970.1	931.6	910.7	929.9	966.6	1013	1058	1093	1106	1089	1059	1046	1050	1079	1129	1184	1213	1193	1122	1009	874.4	741.9	613.4	495.3	388.2	287.1	207.0	149.6	104.1	71.93	49.79	36.25	27.34	26.92	76.48	345.2	940.5	1140	402.2	11.18	3.928	3.734	3.827	4.428	4.552	4.998	4.956	5.328	5.518	5.688	5.395	5.642	5.486	5.413	5.291	5.319	5.210	4.974	5.042	5.089	5.390	5.420	5.641	6.078
475.0	346.8	410.8	484.1	741.2	756.6	729.6	875.8	1014	1098	1116	1079	1002	910.8	837.4	793.6	773.8	783.3	811.2	844.1	881.1	909.8	930.8	918.4	905.5	904.3	916.5	948.6	994.9	1047	1079	1070	1006	915.3	796.4	682.7	561.4	454.8	362.0	283.1	205.6	147.6	106.6	74.20	53.37	39.31	29.03	22.30	29.10	85.77	219.6	525.7	1223	195.1	13.27	3.722	3.744	3.857	4.226	4.665	4.562	4.759	4.756	5.199	5.063	5.327	5.036	4.832	4.814	4.699	4.528	4.367	4.607	4.575	4.517	4.702	4.938	4.938
480.0	308.0	382.0	407.2	597.6	829.0	691.0	810.8	939.9	1009	1034	988.4	925.8	836.6	752.6	708.8	686.1	687.0	705.6	739.4	764.9	794.6	815.4	811.3	806.2	805.6	821.5	859.1	900.7	952.0	979.6	980.3	921.4	841.5	740.6	633.5	527.4	426.7	337.4	274.2	206.9	148.2	105.9	76.38	55.64	41.54	30.68	23.09	19.78	29.00	57.00	131.6	667.4	1151	178.8	7.722	3.651	3.808	4.031	4.253	4.183	4.500	4.671	4.726	4.687	4.599	4.602	4.564	4.358	4.519	4.042	4.169	4.080	4.132	4.016	3.982	4.355	4.312
485.0	285.1	331.7	372.1	477.3	846.8	725.1	747.9	863.7	943.8	961.2	926.5	864.5	767.0	688.4	639.6	610.9	611.7	626.0	654.3	689.2	706.2	723.1	730.4	725.3	727.3	742.8	782.9	822.6	872.5	904.0	900.5	853.5	779.0	689.8	590.5	494.2	403.3	320.2	259.9	205.4	150.6	107.0	78.03	57.57	43.56	32.70	25.28	19.46	17.41	21.56	36.24	177.7	879.1	1070	27.61	4.884	3.822	3.658	4.105	3.992	4.147	4.347	4.431	4.122	4.315	4.355	4.090	4.012	3.950	3.804	3.736	3.683	3.615	3.755	3.636	3.977	4.132
490.0	256.3	297.5	326.8	389.5	659.9	920.0	708.7	781.4	855.0	875.3	847.2	774.3	683.7	606.4	560.8	530.8	529.1	541.2	560.7	588.6	609.0	623.1	634.1	632.7	639.1	654.4	690.9	730.0	773.2	803.7	802.6	763.0	700.3	622.8	536.0	452.8	374.7	299.7	239.4	193.2	151.4	109.6	79.27	59.41	46.46	36.19	27.79	21.52	16.80	15.18	16.15	46.15	232.4	686.0	939.3	369.5	12.31	3.698	3.943	3.906	3.978	4.099	4.050	4.119	4.014	4.059	3.759	3.654	3.434	3.496	3.312	3.362	3.249	3.300	3.298	3.261	3.337
495.0	237.2	256.9	301.5	327.5	464.7	942.0	827.4	698.6	763.4	775.4	757.1	690.1	596.5	532.5	478.9	455.9	453.0	458.9	473.0	492.6	511.2	527.3	535.8	538.5	551.6	566.7	595.6	636.1	672.6	703.3	703.9	665.2	617.2	549.8	477.0	406.3	336.0	273.4	220.7	176.6	142.8	113.8	82.25	61.27	48.57	38.13	30.75	23.67	18.52	14.76	12.76	17.79	57.71	160.3	472.6	1159	217.9	14.58	3.856	3.647	3.428	3.647	3.654	3.553	3.645	3.669	3.428	3.300	3.238	3.093	2.835	2.937	2.786	2.849	2.853	2.946	2.872
500.0	194.2	237.0	267.1	285.4	369.3	740.5	1029	657.8	695.6	714.0	686.5	618.3	538.5	479.5	428.7	404.4	394.7	401.7	414.1	430.3	446.2	459.1	470.0	474.9	486.3	500.4	530.1	562.9	595.9	625.0	624.2	597.7	552.0	497.3	432.7	370.4	310.5	254.1	205.4	164.7	133.2	109.5	84.98	62.42	49.27	39.37	31.13	25.06	19.41	15.74	12.95	11.69	19.64	41.47	118.8	631.0	1116	190.7	8.329	3.730	3.332	3.619	3.518	3.512	3.394	3.310	3.259	2.909	2.933	2.823	2.656	2.540	2.605	2.619	2.746	2.708	2.513
505.0	181.4	218.6	240.7	262.1	318.1	518.6	1132	736.4	627.2	649.5	622.5	561.3	489.8	434.0	382.4	354.5	346.5	352.2	363.8	375.7	389.6	402.6	410.3	420.6	430.3	446.5	471.3	498.7	529.9	557.0	556.0	529.9	493.7	444.1	392.0	337.0	282.7	233.2	190.1	154.3	123.2	102.9	85.61	64.09	49.17	40.31	32.34	25.75	20.33	16.56	13.42	11.31	11.52	15.36	31.92	166.8	789.3	985.4	30.13	4.975	3.439	3.406	3.276	3.138	3.073	3.037	2.861	2.647	2.646	2.518	2.351	2.430	2.481	2.381	2.389	2.382	2.337
510.0	156.5	180.8	211.4	236.3	276.1	368.1	841.6	1081	596.0	568.0	546.9	493.4	426.8	370.0	326.7	301.7	294.5	294.4	303.2	312.0	325.0	337.2	345.2	351.8	361.3	378.3	399.9	423.7	450.3	471.4	474.9	454.9	421.1	380.6	337.6	289.7	248.3	206.2	169.5	139.1	113.2	91.57	79.20	65.05	50.95	40.04	32.97	26.37	21.37	17.33	14.17	11.90	10.28	10.10	13.02	42.39	205.5	593.2	763.9	297.9	12.36	3.318	3.058	3.024	2.851	2.770	2.551	2.412	2.301	2.219	2.247	2.150	2.110	2.053	2.137	2.135	2.145
515.0	138.8	153.0	178.0	208.7	231.2	302.4	489.6	1202	797.6	488.6	468.9	420.1	359.1	311.1	273.7	254.1	246.0	241.8	249.2	254.5	268.3	275.6	285.2	290.5	297.9	313.0	331.3	352.7	373.4	393.2	394.8	379.0	351.7	322.8	284.6	248.7	212.5	177.7	149.4	122.9	101.5	82.35	68.61	61.39	52.05	40.67	32.35	27.03	21.25	17.88	14.32	12.26	10.26	9.506	9.337	15.04	50.77	137.5	330.0	844.2	220.0	15.33	2.864	2.647	2.507	2.552	2.319	2.225	2.034	2.050	1.871	1.926	1.844	1.772	1.795	1.805	1.943
520.0	117.1	125.9	150.8	179.0	216.5	262.1	346.7	906.3	1150	463.1	418.5	370.4	319.9	273.8	239.8	221.3	214.0	210.8	214.6	221.1	227.3	237.1	243.6	249.6	260.8	270.3	284.2	306.3	326.8	342.4	346.1	327.8	307.2	281.3	251.0	220.4	188.9	158.7	135.2	111.1	93.00	75.33	62.30	55.05	51.00	41.08	32.28	26.38	20.90	17.49	14.80	12.56	10.70	9.049	8.526	8.913	16.38	35.20	81.50	419.7	800.6	193.4	9.143	2.472	2.368	2.260	1.915	2.065	1.855	1.742	1.679	1.679	1.636	1.428	1.516	1.514	1.586
525.0	99.45	114.0	127.6	158.3	199.0	230.7	298.0	549.9	1374	582.9	370.7	330.7	281.4	243.5	210.6	198.5	187.7	184.0	186.8	189.2	199.0	206.7	213.1	218.1	228.8	236.2	248.7	270.2	284.3	297.9	301.0	289.2	271.5	246.1	219.0	196.4	167.0	143.1	121.4	101.7	83.69	69.87	57.73	50.56	46.82	41.31	32.27	25.18	21.03	16.98	14.25	12.46	10.25	9.187	8.063	7.421	8.942	12.57	22.25	106.5	488.9	732.6	149.8	4.226	2.394	1.932	1.788	1.791	1.786	1.591	1.598	1.521	1.480	1.457	1.341	1.363	1.479
530.0	89.78	107.2	112.1	131.2	173.5	203.2	246.7	344.3	964.4	1083	366.8	283.0	240.4	204.9	176.0	166.4	157.3	155.2	156.3	160.0	164.8	171.5	176.7	183.2	190.2	197.8	207.1	222.3	237.2	248.6	251.3	241.4	226.9	208.0	185.3	165.2	144.4	123.3	104.8	88.88	73.99	62.14	51.57	44.70	40.25	37.40	32.60	24.93	19.64	16.50	13.92	11.92	10.11	8.906	8.059	7.092	6.998	7.168	8.951	27.21	122.6	379.4	552.7	244.9	12.82	2.087	1.834	1.578	1.580	1.375	1.452	1.303	1.333	1.293	1.306	1.161	1.260
535.0	81.03	94.76	99.60	107.1	145.5	182.9	216.1	257.9	465.7	1262	616.2	240.8	203.4	172.2	146.5	136.3	129.2	129.2	128.3	131.5	135.1	139.5	145.6	149.0	153.4	163.1	170.3	182.0	195.4	203.2	204.5	199.0	186.1	171.2	152.7	137.8	119.9	102.6	89.26	75.67	63.79	53.95	45.87	39.41	34.97	31.29	30.32	25.56	18.72	15.40	12.63	11.10	9.652	8.535	7.680	6.757	6.304	5.925	5.974	9.338	30.09	87.33	193.5	552.3	226.3	16.65	1.828	1.381	1.450	1.152	1.155	1.121	1.196	1.079	0.986	1.106	0.999
540.0	91.52	89.22	95.32	101.0	119.7	171.7	197.9	220.4	293.3	855.3	1057	233.7	174.4	148.6	129.5	116.6	112.7	109.7	108.8	111.0	114.5	117.9	121.4	125.6	130.7	137.5	144.0	154.3	165.1	171.7	174.0	168.5	158.7	146.0	131.7	117.8	103.2	89.00	77.50	66.25	56.76	47.51	40.97	35.47	31.38	27.16	26.17	24.13	18.98	14.63	11.83	10.64	9.278	8.028	6.993	6.880	6.086	5.382	4.743	5.185	9.396	22.19	46.38	232.7	548.7	196.8	10.27	1.401	1.301	1.180	0.994	1.047	1.028	0.978	0.943	0.927	0.966
545.0	105.8	102.9	92.80	91.07	103.0	147.5	188.1	202.0	239.0	450.9	1305	351.2	152.1	129.3	114.5	102.1	98.19	92.78	93.71	93.87	96.62	101.2	105.6	108.0	111.9	117.7	124.3	131.5	139.9	148.3	148.6	144.2	136.3	125.9	113.8	100.7	89.72	77.80	67.74	58.22	49.95	41.87	37.27	32.26	28.10	24.86	22.45	21.08	19.06	14.25	11.38	9.804	8.378	7.549	6.723	6.280	5.742	5.054	4.409	4.235	4.997	7.378	12.58	56.69	274.9	515.2	153.2	4.470	1.250	1.078	1.060	1.005	0.859	0.857	0.938	0.902	0.866
550.0	119.2	121.2	105.8	82.91	91.57	120.0	170.6	190.5	212.9	264.9	821.0	836.8	156.2	106.0	92.84	82.63	79.19	76.35	75.26	75.82	78.62	81.71	84.41	85.50	90.70	95.78	99.82	105.4	113.0	117.9	118.2	115.9	108.5	101.1	92.45	81.75	72.33	63.68	55.74	47.95	41.95	35.62	31.01	27.01	23.89	21.44	18.68	16.86	16.74	13.99	10.96	8.826	7.440	6.776	5.997	5.624	5.003	4.892	3.999	3.765	3.534	3.925	4.705	14.54	66.35	220.7	368.0	134.5	13.57	1.258	0.968	0.874	0.862	0.748	0.724	0.798	0.772
555.0	142.5	143.0	120.0	76.58	75.74	99.13	149.4	181.0	193.3	212.9	345.4	1011	430.1	86.63	75.92	65.79	61.96	58.05	60.26	59.17	61.99	64.18	66.41	67.46	70.26	74.19	77.19	82.45	87.07	91.60	92.98	89.67	85.17	78.95	70.38	64.58	57.26	50.98	44.92	39.13	34.35	29.37	24.97	21.74	19.67	17.18	15.45	13.55	12.80	12.30	10.56	8.123	6.350	5.920	5.062	4.822	4.394	4.284	3.524	3.398	3.019	2.784	2.933	4.893	16.28	50.72	110.6	306.2	226.2	18.29	1.157	0.775	0.839	0.745	0.704	0.681	0.692
560.0	155.4	144.8	117.9	76.12	65.93	85.52	125.7	173.5	188.3	197.2	215.9	656.5	938.1	86.12	61.96	55.15	51.77	48.95	49.65	49.71	50.72	53.06	55.25	56.74	58.92	60.21	64.22	68.11	71.53	74.72	76.40	74.25	70.15	65.10	58.87	52.39	47.29	41.79	36.69	32.91	28.98	24.24	21.58	19.15	16.89	14.82	13.67	11.50	10.65	10.21	9.606	7.646	5.652	5.399	4.777	4.377	4.095	3.730	3.432	3.179	2.919	2.729	2.449	3.023	5.265	12.72	26.28	112.9	347.5	183.2	11.20	0.841	0.826	0.678	0.619	0.657	0.595
565.0	180.4	168.4	133.3	79.43	57.43	77.59	112.7	167.6	188.5	200.2	191.9	317.8	1236	141.6	53.26	47.87	42.96	42.16	41.94	42.59	42.12	43.59	46.27	47.04	48.19	50.91	52.91	55.62	59.63	61.96	63.71	60.73	57.89	53.81	48.52	43.90	40.30	35.30	30.85	28.07	24.04	20.90	18.25	16.42	14.79	13.27	11.75	10.03	8.987	8.196	8.303	7.451	5.740	4.850	4.158	3.922	3.714	3.515	3.117	3.048	2.697	2.542	2.421	2.334	2.783	4.128	7.206	27.32	145.5	312.9	127.1	4.782	0.818	0.607	0.570	0.646	0.588
570.0	202.3	201.9	143.1	74.19	54.95	62.90	99.84	154.0	201.6	207.7	197.6	193.7	760.8	595.2	62.30	37.22	33.82	33.35	32.07	33.86	33.01	34.47	35.81	36.85	37.58	39.71	41.55	43.14	46.66	47.98	49.73	47.62	45.02	41.85	38.62	34.58	31.40	27.71	24.46	21.87	19.60	16.89	14.44	13.24	12.04	10.87	9.801	8.395	7.423	6.643	6.349	6.190	5.591	4.299	3.637	3.366	3.139	3.026	2.771	2.657	2.537	2.396	2.197	2.106	2.239	2.280	2.872	7.233	34.35	113.8	203.2	122.3	13.89	0.926	0.602	0.647	0.505
575.0	213.6	203.3	149.7	79.38	52.07	59.15	90.64	139.0	212.3	225.2	218.8	179.3	285.7	785.0	229.0	31.42	27.50	25.91	24.83	25.82	25.81	26.44	27.18	28.08	29.30	30.72	32.35	32.88	36.16	37.21	38.12	36.30	34.12	31.59	29.75	26.63	24.74	21.45	19.16	17.18	15.43	13.17	11.76	10.65	9.704	8.988	8.119	7.053	6.283	5.596	4.750	4.631	5.028	4.325	3.193	2.955	2.712	2.517	2.302	2.268	2.362	2.240	2.267	2.069	2.065	1.958	2.054	2.856	8.785	26.25	54.50	158.9	173.3	19.06	0.709	0.664	0.445
580.0	218.3	210.2	155.4	76.53	46.06	54.67	92.50	130.7	210.2	247.1	237.3	195.9	164.2	514.9	557.9	35.81	23.09	22.55	21.07	21.70	22.19	22.79	23.26	23.53	23.23	24.74	25.55	26.84	29.37	31.06	30.74	29.74	27.65	26.41	24.93	21.78	20.42	17.18	15.87	14.23	12.43	11.48	9.493	9.085	8.010	7.516	6.694	6.088	5.414	4.843	4.094	3.944	4.194	4.028	3.300	2.751	2.483	2.329	2.215	2.017	2.083	2.255	2.151	2.229	1.821	1.892	1.864	1.872	3.145	6.880	13.01	50.79	183.9	132.3	10.64	0.580	0.467
585.0	225.5	215.1	159.2	77.41	45.67	53.29	85.36	129.2	199.9	269.0	254.4	214.2	145.6	230.3	777.9	84.38	20.10	19.01	18.23	19.04	18.25	18.60	19.45	19.60	19.13	20.86	22.05	22.89	24.78	26.01	25.75	24.55	23.30	22.03	20.34	18.50	16.57	15.08	13.39	12.50	10.53	9.945	8.554	7.792	7.210	6.706	5.728	5.447	4.525	4.122	3.404	3.213	3.276	3.483	2.964	2.548	2.274	1.948	2.021	1.946	1.787	2.149	2.242	2.031	1.912	1.914	1.915	1.714	1.763	2.472	3.769	12.30	67.29	181.6	91.11	4.346	0.463
590.0	208.6	215.6	163.3	80.47	47.94	51.74	78.84	123.0	186.7	263.0	275.9	230.0	154.0	113.5	489.7	432.9	26.75	16.02	14.92	14.99	14.82	14.80	15.63	15.70	15.93	17.10	17.34	18.18	19.49	20.10	19.69	19.46	18.48	17.16	16.25	14.33	13.48	12.08	10.76	9.733	8.601	7.785	7.082	6.237	5.790	5.427	4.898	4.469	3.974	3.375	3.006	2.672	2.500	2.682	2.984	2.544	2.187	1.793	1.807	1.769	1.779	1.982	1.912	2.016	1.973	1.916	1.833	1.631	1.592	1.659	1.654	3.376	15.86	61.50	123.7	81.43	12.64
595.0	192.1	209.9	152.7	79.50	43.86	47.33	76.62	113.9	176.7	249.7	281.9	239.3	160.9	87.59	154.6	627.3	87.62	13.23	11.76	11.43	11.91	11.60	12.09	12.59	13.28	13.02	13.92	14.34	15.18	15.63	15.51	14.68	14.35	13.28	12.46	11.71	10.34	9.651	8.718	7.686	6.776	6.350	5.614	4.946	4.869	4.519	3.878	3.695	3.208	2.825	2.513	2.046	1.951	1.858	2.360	2.485	2.046	1.808	1.515	1.571	1.561	1.653	1.781	1.856	2.002	1.940	1.847	1.584	1.607	1.371	1.247	1.484	4.060	14.21	31.74	92.07	108.0
600.0	173.9	199.6	144.1	76.24	44.85	45.42	70.58	107.8	167.5	234.7	284.4	241.0	164.6	82.33	61.66	426.8	374.9	15.49	10.09	10.03	10.46	10.22	10.04	10.62	10.86	10.95	11.67	11.56	12.65	12.65	12.70	12.24	12.36	11.08	10.21	9.433	8.424	7.635	7.032	6.350	5.800	5.359	4.577	4.045	3.917	3.767	3.338	3.111	2.790	2.516	2.119	1.646	1.807	1.627	1.872	2.256	2.079	1.622	1.303	1.395	1.292	1.555	1.665	1.787	2.055	1.963	1.903	1.563	1.379	1.187	1.136	0.992	1.394	3.637	7.503	28.44	107.8
605.0	165.2	177.0	132.5	70.59	40.73	44.58	63.48	104.4	159.6	216.4	271.0	243.6	159.4	82.23	38.75	168.7	570.9	49.98	9.174	8.546	8.944	8.546	9.277	8.982	9.801	8.762	9.341	9.559	9.959	10.35	10.28	10.32	10.07	9.244	8.655	8.262	7.306	6.449	5.933	5.167	4.741	4.562	4.156	3.680	3.464	3.382	2.936	2.764	2.327	2.022	1.831	1.582	1.555	1.423	1.523	1.621	1.933	1.851	1.320	1.398	1.319	1.514	1.543	1.628	1.853	1.860	1.873	1.445	1.210	1.234	0.993	0.880	0.866	1.297	2.035	6.850	37.87
610.0	150.2	155.3	119.1	65.39	40.11	42.87	60.46	94.24	146.4	201.4	246.3	239.7	163.4	84.23	35.60	53.49	387.0	294.1	13.20	6.787	7.072	7.096	7.397	7.096	7.458	7.511	7.592	7.958	8.061	8.432	8.405	8.149	7.964	7.063	7.111	6.550	5.776	5.190	4.696	4.225	3.685	3.447	3.194	2.953	2.893	2.640	2.396	2.239	1.974	1.676	1.557	1.457	1.326	1.222	1.209	1.272	1.550	1.571	1.421	1.230	1.190	1.381	1.492	1.486	1.615	1.608	1.709	1.549	1.215	1.129	1.009	0.815	0.850	0.720	0.848	1.887	8.883
615.0	132.8	147.6	109.3	60.04	41.40	37.88	56.08	89.32	131.3	185.4	222.8	223.6	162.6	83.30	35.07	25.48	117.7	470.6	63.78	5.587	5.796	5.830	5.719	5.855	5.477	5.808	5.968	6.371	6.233	6.628	6.312	6.619	5.782	5.800	5.835	4.974	4.398	4.290	3.544	3.322	2.895	2.915	2.554	2.373	2.303	2.211	1.988	1.807	1.611	1.375	1.337	1.231	1.068	1.038	1.075	1.030	1.095	1.331	1.359	1.222	1.082	1.197	1.243	1.310	1.556	1.461	1.586	1.481	1.329	1.220	1.095	0.725	0.671	0.653	0.545	0.734	2.313
620.0	116.1	116.7	98.23	55.97	37.67	36.14	52.70	80.14	123.8	172.0	203.4	204.8	164.8	84.75	36.27	19.11	35.81	346.9	260.5	6.565	4.895	5.243	4.849	4.761	4.617	4.959	4.902	4.981	5.407	5.587	5.574	5.409	5.125	4.757	4.409	4.019	3.662	3.472	2.866	2.690	2.602	2.533	1.999	1.982	1.887	1.831	1.614	1.537	1.310	1.233	1.138	1.000	0.918	0.923	0.940	0.844	0.934	1.012	1.104	1.209	1.110	0.961	1.189	1.149	1.278	1.167	1.409	1.326	1.388	1.207	0.992	0.765	0.624	0.567	0.465	0.454	0.949
625.0	104.7	119.9	92.27	55.17	36.99	38.78	47.13	73.20	116.4	157.0	193.7	193.8	161.5	86.71	38.18	18.67	16.80	146.7	437.9	26.60	4.619	4.429	4.176	4.148	3.835	4.497	4.151	4.314	4.681	4.704	4.712	4.280	4.158	4.397	3.905	3.648	3.016	2.805	2.601	2.177	2.120	1.952	1.741	1.712	1.664	1.519	1.579	1.370	1.202	1.069	1.042	0.853	0.787	0.766	0.795	0.804	0.781	0.890	1.004	1.211	1.068	0.971	1.036	1.044	1.195	1.178	1.250	1.194	1.154	1.202	1.047	0.692	0.687	0.561	0.553	0.469	0.558
630.0	93.37	102.7	82.34	50.25	36.45	37.17	46.58	69.13	107.4	144.5	178.0	180.8	150.7	91.89	41.49	20.89	12.52	42.16	332.5	180.4	6.422	3.694	3.780	3.526	3.297	3.675	3.330	3.402	3.699	3.694	3.579	3.392	3.268	3.274	2.975	2.630	2.436	2.284	2.017	1.974	1.687	1.600	1.535	1.416	1.332	1.288	1.257	1.244	1.051	0.904	0.852	0.785	0.687	0.741	0.689	0.678	0.709	0.739	0.752	1.034	1.079	1.030	0.998	1.011	1.160	1.148	1.123	1.081	1.018	1.065	1.038	0.858	0.693	0.572	0.511	0.444	0.431
635.0	90.62	96.37	70.26	48.26	37.49	38.20	44.13	69.03	102.1	138.5	162.8	167.6	139.3	100.1	46.21	23.50	13.15	15.47	104.5	385.1	45.34	3.260	3.183	2.904	2.862	2.970	2.714	2.791	3.050	2.805	2.879	2.748	2.674	2.643	2.448	2.265	1.831	1.838	1.602	1.589	1.280	1.326	1.277	1.218	1.074	1.127	1.040	0.902	0.790	0.784	0.741	0.633	0.577	0.630	0.607	0.628	0.615	0.696	0.616	0.855	0.976	0.982	1.047	0.971	1.153	0.986	1.107	0.988	1.040	0.924	0.945	0.777	0.640	0.584	0.470	0.453	0.434
640.0	80.54	91.18	69.15	44.44	36.44	38.70	45.44	66.39	96.51	129.2	160.4	161.5	135.1	100.2	52.74	24.54	14.74	9.646	29.37	321.9	184.9	4.093	2.832	2.579	2.304	2.410	2.296	2.457	2.555	2.421	2.427	2.587	2.287	2.005	1.811	1.977	1.893	1.406	1.563	1.246	1.050	1.004	1.009	0.965	0.975	0.925	0.888	0.863	0.810	0.695	0.655	0.505	0.552	0.573	0.517	0.619	0.573	0.592	0.650	0.681	0.863	0.933	1.014	0.991	0.984	1.044	1.020	0.946	1.006	1.012	0.922	0.826	0.697	0.586	0.493	0.442	0.341
645.0	77.55	81.88	66.30	43.87	34.00	36.55	45.77	65.31	96.52	124.6	155.0	157.6	130.8	95.60	60.69	27.78	15.41	9.196	11.65	150.7	350.3	16.89	2.696	2.280	2.324	2.290	2.271	2.256	2.354	2.098	2.188	2.050	1.925	1.684	1.560	1.625	1.516	1.344	1.217	1.093	0.835	0.861	0.893	0.829	0.876	0.853	0.746	0.831	0.620	0.553	0.552	0.525	0.483	0.509	0.445	0.586	0.522	0.525	0.556	0.614	0.680	0.872	0.984	0.915	1.024	0.925	0.938	0.917	0.951	0.776	0.847	0.901	0.684	0.607	0.608	0.442	0.428
650.0	75.90	78.07	68.99	44.08	33.13	35.53	44.73	64.92	93.48	118.6	149.9	151.7	129.5	94.25	65.96	31.05	17.07	9.851	7.562	47.04	382.4	59.32	2.683	2.253	2.151	2.135	2.000	1.900	1.966	2.046	1.767	1.763	1.703	1.436	1.550	1.334	1.237	1.189	1.079	1.065	0.922	0.865	0.778	0.811	0.872	0.772	0.681	0.713	0.625	0.466	0.476	0.502	0.503	0.485	0.474	0.544	0.587	0.535	0.504	0.673	0.640	0.858	0.945	0.925	0.934	0.927	1.107	0.940	0.818	0.829	0.854	0.714	0.686	0.671	0.537	0.528	0.473
