Sample:	'1
File name:	w11205–§’Ú«≈.FD3
Run date:	'13:46:03, 11/12/2024
Operator:	Administrator
Comment:	'

Instrument
Model:	F-2700 FL Spectrophotometer
Serial number:	23B8-004
ROM Version:	4J14000 07

Instrument parameters
Measurement type:	3-D scan
Data mode:	Fluorescence
EX  Start WL:	220.0 nm
EX  End WL:	600.0 nm
EX Sampling interval:	5.0 nm
EM  Start WL:	230.0 nm
EM  End WL:	650.0 nm
EM Sampling interval:	5.0 nm
Scan speed:	12000 nm/min
EX Slit:	5.0 nm
EM Slit:	5.0 nm
PMT Voltage:	700 V
Response:	Auto 
Corrected spectra:	Off
Contour interval:	50.000

Peak integration
Integration method:	Rectangular
Sensitivity:	1
Threshold:	1.000

Peaks
No.	ApexEX/EM(nm)	Height(Data)
1	230.0/345.0	6041
2	255.0/285.0	479.2
3	270.0/600.0	163.2
4	275.0/430.0	7480
5	275.0/615.0	193.4
6	280.0/340.0	4436
7	280.0/625.0	169.2
8	335.0/415.0	5309
9	475.0/350.0	17.34
10	565.0/340.0	20.18
11	565.0/430.0	23.19
12	570.0/420.0	23.45
13	575.0/345.0	19.86
14	575.0/425.0	23.41
15	580.0/415.0	23.35

Data points
	220.0	225.0	230.0	235.0	240.0	245.0	250.0	255.0	260.0	265.0	270.0	275.0	280.0	285.0	290.0	295.0	300.0	305.0	310.0	315.0	320.0	325.0	330.0	335.0	340.0	345.0	350.0	355.0	360.0	365.0	370.0	375.0	380.0	385.0	390.0	395.0	400.0	405.0	410.0	415.0	420.0	425.0	430.0	435.0	440.0	445.0	450.0	455.0	460.0	465.0	470.0	475.0	480.0	485.0	490.0	495.0	500.0	505.0	510.0	515.0	520.0	525.0	530.0	535.0	540.0	545.0	550.0	555.0	560.0	565.0	570.0	575.0	580.0	585.0	590.0	595.0	600.0
230.0	39.99	596.9	1887	677.1	43.00	10.65	8.684	10.27	7.134	6.868	6.632	6.428	6.347	5.405	4.858	3.738	3.646	3.440	3.081	2.945	2.919	2.737	2.772	2.658	2.531	2.417	2.109	2.059	2.141	2.066	1.904	1.696	1.538	1.345	1.259	1.005	0.975	0.890	0.796	0.813	0.694	0.697	0.678	0.637	0.601	0.594	0.975	3.061	6.005	5.435	2.346	0.764	0.518	0.440	0.440	0.432	0.464	0.430	0.443	0.423	0.374	0.389	0.420	0.382	0.408	0.385	0.391	0.414	0.380	0.405	0.405	0.377	0.334	0.371	0.358	0.373	0.378
235.0	60.36	180.8	1275	2694	585.9	65.96	10.02	12.37	8.510	6.739	7.813	6.678	6.086	5.701	5.090	4.092	3.964	3.486	3.158	3.090	2.877	2.661	2.838	2.697	2.681	2.528	2.237	2.257	2.149	2.008	1.827	1.689	1.680	1.460	1.316	0.973	0.929	0.997	0.886	0.747	0.694	0.690	0.658	0.664	0.694	0.707	0.590	1.218	2.647	5.693	8.702	9.325	4.677	1.180	0.417	0.473	0.486	0.420	0.389	0.427	0.395	0.376	0.400	0.368	0.389	0.427	0.389	0.484	0.367	0.348	0.425	0.356	0.355	0.391	0.347	0.409	0.382
240.0	80.94	85.90	404.5	2441	3439	477.4	33.98	14.28	10.03	7.823	8.503	7.036	6.165	5.588	6.322	4.968	3.878	3.707	3.208	3.054	3.117	2.684	3.025	2.797	2.680	2.388	2.238	2.351	2.172	2.054	1.910	1.685	1.583	1.491	1.342	1.080	1.039	0.935	0.872	0.886	0.661	0.686	0.600	0.712	0.685	0.749	0.630	0.699	1.044	1.969	5.229	12.65	16.71	11.40	3.971	0.869	0.502	0.425	0.421	0.513	0.398	0.390	0.369	0.397	0.417	0.426	0.410	0.404	0.394	0.398	0.384	0.413	0.406	0.391	0.397	0.464	0.361
245.0	73.46	113.5	137.2	854.2	3926	3624	351.2	25.47	11.56	8.825	8.709	8.197	7.036	6.499	5.885	5.019	4.088	4.010	3.428	3.033	3.034	2.773	2.936	2.722	2.508	2.611	2.307	2.358	2.118	1.832	2.051	1.818	1.616	1.488	1.382	1.096	1.062	0.951	0.918	0.792	0.749	0.616	0.681	0.698	0.672	0.725	0.681	0.710	0.669	0.878	1.585	4.651	12.25	21.38	20.40	11.82	2.918	0.635	0.470	0.472	0.386	0.451	0.404	0.405	0.433	0.393	0.421	0.394	0.395	0.435	0.385	0.384	0.386	0.428	0.380	0.376	0.390
250.0	57.46	85.81	151.8	253.7	1297	4149	4782	1463	76.98	11.00	10.53	9.850	8.574	6.716	5.763	5.225	4.320	4.000	3.558	3.356	3.118	2.956	3.029	2.689	2.653	2.713	2.455	2.387	2.412	2.000	2.101	1.665	1.565	1.461	1.344	1.207	1.042	0.925	0.848	0.866	0.759	0.659	0.736	0.694	0.652	0.655	0.642	0.716	0.878	0.839	0.887	1.488	3.287	7.360	13.60	24.78	26.63	18.21	10.45	2.885	0.586	0.477	0.438	0.463	0.483	0.451	0.405	0.391	0.401	0.390	0.357	0.374	0.392	0.416	0.392	0.404	0.414
255.0	47.77	47.52	113.4	225.6	347.7	1072	4371	9999.9	1757	73.80	13.79	11.03	9.618	7.416	5.820	5.373	4.479	4.307	3.673	3.677	3.216	3.140	3.194	2.876	2.801	2.831	2.621	2.581	2.421	2.139	2.212	1.827	1.765	1.509	1.250	1.112	1.189	0.956	1.004	0.927	0.842	0.680	0.793	0.791	0.658	0.691	0.562	0.599	0.689	0.836	1.010	1.181	1.214	2.023	3.412	6.345	11.52	25.95	46.04	27.63	17.11	2.925	0.637	0.507	0.440	0.488	0.421	0.367	0.426	0.445	0.374	0.437	0.481	0.412	0.409	0.409	0.443
260.0	50.43	39.41	60.62	196.1	238.5	284.1	1389	9999.9	9232	1264	34.52	13.40	11.28	9.705	6.895	6.123	4.782	4.163	3.966	3.505	3.337	3.233	3.169	2.894	2.849	2.825	2.960	2.644	2.523	2.356	2.119	1.714	1.866	1.706	1.369	1.198	1.165	0.889	0.956	0.930	0.870	0.768	0.767	0.788	0.683	0.800	0.580	0.594	0.616	0.674	0.826	1.260	1.286	1.152	1.181	1.811	3.109	7.547	22.48	42.28	61.43	26.52	12.38	1.683	0.528	0.582	0.445	0.449	0.481	0.396	0.435	0.466	0.447	0.386	0.433	0.394	0.439
265.0	49.91	42.20	40.49	100.9	260.8	185.1	350.5	5238	9999.9	8777	213.0	21.21	14.58	10.53	8.833	6.629	5.405	4.709	4.174	4.130	3.612	3.306	3.456	3.446	3.208	3.063	2.713	2.699	2.620	2.519	2.236	1.890	1.734	1.635	1.459	1.303	1.102	0.961	0.968	0.986	0.940	0.808	0.871	0.802	0.737	0.762	0.655	0.618	0.614	0.689	0.599	0.885	1.378	1.424	1.255	0.932	1.183	2.194	5.682	13.57	38.61	64.41	68.51	23.55	8.068	0.794	0.638	0.428	0.519	0.512	0.452	0.445	0.391	0.469	0.430	0.421	0.405
270.0	62.66	57.43	43.18	56.35	136.6	255.2	230.0	1272	3509	9999.9	9999.9	811.9	55.33	15.55	11.31	8.588	6.536	5.659	4.842	4.399	4.035	3.534	3.554	3.546	3.489	3.344	2.965	2.820	2.571	2.553	2.289	2.072	1.891	1.710	1.620	1.327	1.228	1.022	1.035	0.955	0.835	0.899	0.910	0.766	0.714	0.790	0.686	0.645	0.609	0.650	0.584	0.651	0.840	1.123	1.523	1.652	1.342	1.240	1.784	3.522	9.567	19.90	37.76	56.36	77.11	55.79	15.74	6.640	1.021	0.564	0.529	0.482	0.515	0.535	0.491	0.412	0.491
275.0	96.55	101.6	84.86	69.16	74.67	154.9	359.6	466.2	856.3	2632	9999.9	9999.9	1147	53.42	15.75	11.39	8.364	6.964	5.519	5.044	4.468	3.607	3.567	3.736	3.831	3.327	2.990	2.938	2.775	2.687	2.257	2.296	1.950	1.910	1.655	1.388	1.434	1.125	1.028	0.899	0.950	0.918	0.960	0.906	0.792	0.850	0.860	0.746	0.746	0.727	0.632	0.701	0.752	0.854	0.895	1.159	1.821	2.482	1.786	1.506	2.755	5.081	9.181	13.69	25.63	50.81	95.01	96.59	25.55	8.743	0.706	0.632	0.629	0.553	0.519	0.501	0.515
280.0	141.9	167.1	162.5	112.2	93.64	110.4	279.4	442.6	352.3	725.4	3230	9999.9	9999.9	795.1	29.16	15.15	10.75	8.802	6.600	5.794	4.903	4.487	4.136	3.988	3.619	3.367	3.140	3.192	2.766	2.698	2.559	2.354	2.060	2.079	1.581	1.494	1.503	1.287	1.017	1.131	0.979	0.952	1.040	0.995	0.816	0.997	1.008	0.919	0.932	0.966	0.754	0.838	0.863	0.805	0.821	0.890	1.346	2.125	2.777	2.361	1.776	2.041	2.895	3.987	6.786	13.52	36.31	81.39	121.2	105.1	20.75	3.503	0.651	0.654	0.644	0.563	0.551
285.0	195.0	283.1	257.2	188.2	135.0	132.2	203.4	479.2	459.5	375.5	965.4	4410	9999.9	8001	114.5	21.89	13.50	10.18	7.436	6.678	5.642	4.669	4.324	4.472	3.899	3.589	3.459	3.215	2.952	3.009	2.719	2.534	2.161	2.109	1.980	1.578	1.556	1.403	1.261	1.100	1.037	0.889	0.908	0.927	0.959	1.209	1.096	1.170	1.164	1.132	0.957	1.003	1.009	0.969	0.876	1.083	1.090	1.488	2.067	2.855	3.209	2.311	1.897	2.217	2.888	4.407	9.458	22.85	57.35	120.6	131.9	30.82	14.25	1.275	0.744	0.616	0.563
290.0	294.4	396.8	425.8	321.7	226.8	204.7	238.1	362.7	614.7	644.5	642.2	1412	4538	9999.9	9999.9	1996	37.33	15.05	10.53	8.242	6.535	5.586	5.242	4.939	4.358	3.840	3.757	3.558	3.289	3.190	2.842	2.758	2.309	2.158	2.066	1.848	1.611	1.451	1.282	1.231	1.092	1.076	1.101	1.159	1.228	1.276	1.476	1.497	1.517	1.464	1.309	1.413	1.237	1.290	1.211	1.360	1.345	1.499	1.596	2.071	2.799	3.602	3.583	3.168	2.695	3.191	4.249	6.998	15.08	33.17	56.93	77.59	100.9	82.48	58.75	11.40	1.928
295.0	388.5	549.7	595.1	460.2	341.5	311.8	337.6	406.6	558.8	933.5	1004	968.1	1534	2906	9999.9	9999.9	641.8	39.32	15.72	11.06	8.864	7.039	6.238	5.353	4.985	4.565	4.307	3.853	3.610	3.489	3.228	2.824	2.340	2.364	2.210	1.956	1.733	1.424	1.445	1.382	1.176	1.169	1.155	1.182	1.284	1.530	1.660	1.923	2.058	1.891	1.744	1.905	1.738	1.645	1.598	1.748	2.045	1.793	1.941	2.278	2.446	2.763	3.633	5.272	5.125	4.781	4.265	4.592	6.397	10.25	15.20	19.56	27.75	52.99	119.4	158.7	32.78
300.0	447.4	694.7	746.2	607.0	462.6	428.7	468.2	565.7	710.1	1036	1517	1304	1165	1204	3452	9999.9	9999.9	492.6	26.63	15.01	11.20	8.517	7.197	6.264	5.370	5.015	4.790	4.018	4.023	3.634	3.275	3.169	2.454	2.407	2.197	1.861	1.863	1.588	1.482	1.587	1.292	1.264	1.182	1.387	1.326	1.713	1.758	2.265	2.374	2.340	1.929	2.332	2.001	2.035	2.068	2.157	2.373	2.505	2.605	2.929	3.120	3.524	4.207	5.089	6.598	7.252	6.684	5.749	6.038	6.104	7.084	7.331	8.943	14.57	37.36	93.30	148.1
305.0	538.7	837.0	920.2	745.8	613.4	580.2	721.1	895.5	1140	1490	2010	2247	1493	1247	1527	4638	9999.9	9999.9	74.66	21.29	14.76	10.48	8.143	7.343	6.389	5.520	4.927	4.341	4.072	3.796	3.432	3.071	3.021	2.676	2.489	2.152	1.943	1.703	1.643	1.617	1.488	1.318	1.366	1.573	1.503	1.868	2.092	2.866	2.778	2.656	2.399	2.621	2.458	2.529	2.764	2.752	3.083	3.428	3.860	4.405	4.667	5.303	6.432	6.813	7.845	9.147	10.45	10.13	9.472	7.891	7.614	7.051	6.606	7.704	12.26	25.54	56.85
310.0	658.6	992.2	1133	948.1	788.0	786.5	971.9	1227	1505	1945	2405	2813	2532	1832	1467	1793	4953	9999.9	9999.9	1644	32.98	15.08	11.01	9.294	7.380	6.308	5.586	5.101	4.475	4.339	3.812	3.491	3.086	2.890	2.563	2.171	2.130	1.937	1.909	1.764	1.726	1.598	1.512	1.574	1.970	2.161	2.513	3.235	3.357	3.095	2.973	3.247	3.116	3.185	3.335	3.545	4.116	4.599	5.026	5.844	6.258	7.259	8.236	9.041	9.775	10.57	11.50	12.33	12.80	12.32	10.69	9.152	8.390	8.296	8.315	10.42	16.77
315.0	792.9	1199	1366	1145	957.9	954.9	1173	1457	1752	2234	2720	3032	3025	2534	1793	1357	1881	2920	9999.9	9999.9	487.1	34.17	15.89	11.99	9.695	7.793	6.562	5.553	5.061	4.763	4.370	3.618	3.506	3.006	2.958	2.377	2.364	2.124	2.228	1.957	1.677	1.654	1.876	1.750	2.046	2.775	3.180	3.702	3.917	3.593	3.590	3.935	3.749	3.589	4.022	4.249	4.879	5.540	5.833	6.457	7.231	8.012	9.292	10.03	11.12	12.07	12.46	13.08	13.67	13.88	13.69	12.64	10.92	10.16	8.909	8.349	8.560
320.0	973.2	1651	1765	1410	1112	1093	1317	1637	1951	2474	3034	3381	3293	3009	2271	1497	1352	1140	3087	9999.9	9999.9	407.4	27.69	16.21	11.87	9.466	7.892	6.237	5.604	5.172	4.477	4.299	3.934	3.049	3.205	2.408	2.431	2.155	2.178	2.025	1.818	1.836	2.204	2.052	2.482	3.234	4.236	4.781	4.915	4.262	4.325	4.563	4.029	4.101	4.266	4.648	5.369	6.054	6.935	6.962	8.061	8.879	9.979	11.41	12.25	13.26	13.57	14.47	15.03	15.35	14.37	14.74	13.91	12.58	10.61	8.895	8.347
325.0	1326	2263	2581	2007	1425	1239	1442	1794	2112	2693	3259	3638	3569	3219	2708	1774	1337	824.3	953.4	3977	9999.9	9999.9	61.41	24.30	15.43	11.13	9.054	7.547	6.237	5.713	5.295	4.625	3.958	3.394	3.104	2.659	2.500	2.216	2.307	2.079	2.059	2.046	2.324	2.424	3.283	4.017	5.236	6.595	6.629	6.154	5.786	6.039	5.344	4.949	4.959	5.164	5.680	6.585	7.347	7.712	8.486	9.799	10.72	11.96	13.08	13.80	15.00	15.11	16.37	16.75	15.95	15.20	15.35	15.42	12.87	11.06	9.562
330.0	1749	3225	4060	3433	2315	1659	1650	1979	2346	2937	3562	3995	3966	3576	2996	2278	1618	953.9	653.7	1214	4161	9999.9	9999.9	1554	34.06	16.73	11.71	9.450	7.691	6.710	5.972	5.116	4.300	3.653	3.216	2.832	2.720	2.359	2.329	2.240	2.153	2.151	2.526	2.959	3.890	5.188	6.551	9.204	10.13	9.825	9.620	10.18	8.479	7.318	6.522	6.364	6.485	7.262	8.215	8.651	9.502	10.37	11.87	12.92	14.12	15.21	16.15	16.89	17.41	17.93	17.47	17.06	16.70	16.07	14.73	13.82	12.48
335.0	2031	3864	5225	4905	3488	2307	1955	2200	2567	3167	3816	4276	4332	3959	3312	2607	2089	1315	860.8	844.3	1386	2820	9999.9	9999.9	2374	39.15	18.19	12.92	9.548	8.298	7.068	5.826	4.961	4.374	3.749	3.105	2.939	2.673	2.325	2.479	2.265	2.221	2.677	3.455	4.196	6.037	7.811	11.30	12.70	12.75	13.08	14.80	12.46	10.85	8.819	7.827	7.938	8.365	8.715	9.327	10.30	11.45	12.75	14.14	14.92	16.09	17.28	18.12	18.70	18.98	19.34	18.59	18.23	17.51	15.97	14.84	14.41
340.0	2156	4149	5823	5615	4006	2627	2137	2325	2688	3259	3896	4372	4436	4111	3484	2742	2234	1633	1079	897.5	896.1	1107	3200	9999.9	9999.9	383.8	33.66	16.36	11.36	9.735	7.951	6.270	5.181	4.488	4.089	3.461	3.104	2.598	2.481	2.512	2.297	2.396	2.923	3.525	4.538	6.719	8.329	12.05	13.93	14.36	14.85	17.10	14.38	12.65	10.04	8.573	8.765	8.916	9.031	9.852	10.66	11.45	12.74	14.72	15.63	16.70	17.81	18.00	19.48	20.18	19.72	19.35	19.05	19.41	17.04	15.72	14.32
345.0	2234	4267	6041	5885	4221	2777	2220	2386	2733	3263	3872	4320	4412	4130	3523	2819	2257	1797	1318	1030	900.7	835.6	1204	3906	9999.9	9999.9	324.1	24.75	15.07	11.67	9.141	6.851	5.745	4.744	3.995	3.455	3.242	2.769	2.623	2.638	2.299	2.694	3.095	3.461	4.434	6.745	8.506	12.09	14.26	14.97	15.44	17.22	15.00	12.91	10.56	9.025	9.152	8.866	9.304	9.663	11.04	11.87	13.07	14.70	15.01	16.41	17.48	17.69	19.24	19.49	19.61	19.86	18.97	19.79	17.15	16.57	14.69
350.0	2104	4061	5797	5847	4415	2949	2370	2479	2750	3229	3750	4135	4227	4000	3491	2884	2353	1908	1622	1345	1114	968.4	925.5	1353	3879	9999.9	9999.9	1477	32.95	17.05	11.66	8.418	6.476	5.438	4.907	3.786	3.427	2.829	2.697	2.571	2.442	2.546	2.959	3.394	4.395	6.292	8.198	11.69	13.90	14.53	15.59	17.34	15.47	13.27	10.84	9.529	9.534	9.240	9.694	10.22	11.00	11.83	12.97	14.24	15.06	15.81	16.65	17.41	18.34	18.56	18.77	18.88	18.74	18.66	17.05	17.00	15.56
355.0	1952	3759	5367	5602	4384	3052	2476	2565	2794	3210	3633	3963	4017	3841	3428	2939	2480	2095	1829	1708	1467	1225	1069	960.0	1320	2657	9370	9999.9	2540	40.67	17.92	11.78	8.095	6.274	5.480	4.031	3.546	2.986	2.924	2.727	2.506	2.601	2.983	3.456	4.305	5.990	7.622	11.10	13.16	13.49	14.85	17.04	15.27	13.38	11.48	10.05	9.980	10.35	10.47	10.55	10.86	11.94	13.00	13.91	15.26	15.00	16.21	16.29	17.29	17.79	18.25	18.32	18.10	18.02	17.18	16.68	16.27
360.0	1861	3457	4982	5273	4299	3084	2582	2634	2869	3215	3559	3792	3859	3734	3353	2958	2576	2258	2018	1912	1787	1504	1273	1037	911.5	975.8	2675	9999.9	9999.9	2200	36.02	17.24	10.51	7.617	6.309	4.697	3.926	3.221	2.929	2.626	2.666	2.608	2.912	3.338	3.981	5.725	7.392	10.28	12.20	12.85	13.76	16.03	14.58	13.11	11.45	10.19	10.63	10.67	10.53	11.07	11.41	12.00	12.71	14.17	14.76	14.68	15.07	15.64	16.50	16.89	17.28	17.49	17.29	17.77	17.08	16.94	16.81
365.0	1780	3215	4672	4997	4176	3159	2737	2777	2972	3266	3518	3690	3732	3620	3313	2993	2688	2426	2234	2122	2045	1848	1538	1247	993.6	783.0	952.1	3195	9999.9	9999.9	345.8	30.60	14.91	9.849	7.416	5.201	4.188	3.685	3.198	2.772	2.748	2.803	3.122	3.277	3.968	5.388	7.003	9.339	11.22	11.98	12.93	15.24	14.44	13.30	11.59	10.42	10.93	10.55	11.05	11.10	12.33	12.73	13.17	14.29	14.89	14.89	15.00	15.35	15.99	16.95	17.00	17.06	17.31	17.52	16.99	16.82	17.13
370.0	1629	2950	4269	4702	4139	3329	2961	3001	3172	3404	3528	3577	3578	3487	3289	3031	2826	2664	2543	2456	2357	2245	2002	1632	1310	1003	788.8	1112	3388	9999.9	9999.9	5340	34.73	17.49	10.58	6.841	5.257	4.215	3.718	3.379	3.005	3.027	3.119	3.324	3.928	5.141	6.315	8.539	10.56	11.21	12.24	14.78	14.06	13.44	12.07	11.25	11.47	11.55	11.68	12.16	13.31	13.08	13.96	14.44	14.75	14.93	14.78	14.98	15.42	16.17	16.08	16.59	17.01	17.46	16.98	17.00	17.40
375.0	1493	2741	3952	4413	4043	3421	3131	3144	3307	3485	3495	3497	3459	3393	3225	3051	2922	2846	2783	2734	2673	2544	2411	2089	1702	1351	1026	881.9	1217	2639	8563	9999.9	2509	40.13	19.51	10.33	7.420	5.252	4.216	3.718	3.281	3.086	3.239	3.465	3.784	4.873	5.958	8.171	9.768	10.17	11.50	13.50	13.67	13.08	12.34	11.35	12.08	12.34	12.29	12.88	13.62	13.74	14.50	14.97	14.87	14.59	14.48	14.37	15.40	15.49	15.72	16.09	16.46	17.10	16.42	16.72	17.52
380.0	1485	2549	3694	4174	3943	3468	3203	3230	3351	3490	3487	3445	3419	3347	3216	3044	2959	2928	2933	2917	2881	2778	2648	2434	2059	1672	1312	1053	928.0	1067	2502	9999.9	9999.9	2072	36.24	16.75	10.40	6.811	5.232	4.096	3.641	3.036	3.483	3.522	3.773	4.637	5.869	7.821	9.314	9.817	10.90	13.41	13.33	13.17	12.61	11.79	12.42	12.46	13.08	13.57	13.89	13.84	14.49	15.02	15.06	14.51	14.79	14.12	14.80	14.83	15.31	15.53	16.29	16.68	16.69	16.64	17.38
385.0	1395	2490	3549	4123	3950	3501	3308	3353	3459	3578	3535	3443	3421	3357	3238	3069	3004	3013	3055	3082	3080	3007	2887	2712	2436	2023	1646	1353	1100	920.6	1051	3118	9999.9	9999.9	300.3	31.68	16.29	9.259	6.628	4.871	3.847	3.530	3.811	3.852	4.090	4.842	5.799	7.550	8.969	9.559	10.74	12.72	13.28	13.11	12.65	12.21	12.80	13.20	13.42	13.99	13.96	14.47	14.83	14.96	15.68	14.53	14.28	14.15	14.78	14.76	15.35	15.99	16.17	17.12	16.90	16.49	17.67
390.0	1406	2439	3457	4023	4020	3690	3527	3603	3710	3845	3808	3688	3691	3606	3445	3222	3111	3143	3223	3311	3365	3362	3311	3145	2943	2623	2215	1885	1576	1281	1049	1266	3203	9999.9	9999.9	4410	112.5	19.68	10.83	6.898	5.029	4.133	4.097	3.920	4.317	5.001	5.990	7.456	8.774	9.302	10.57	12.87	13.36	13.38	12.98	12.91	13.73	13.90	14.15	14.44	14.64	15.01	15.62	15.65	15.96	15.31	14.99	14.90	15.17	15.48	15.97	16.52	16.85	17.22	17.31	17.39	17.60
395.0	1450	2474	3431	4025	4047	3906	3817	3908	4119	4340	4399	4359	4389	4251	3949	3531	3304	3317	3429	3585	3703	3802	3818	3734	3551	3314	2968	2601	2246	1882	1504	1209	1339	2675	6719	9999.9	2143	38.15	21.18	11.42	7.006	5.143	4.569	4.408	4.566	5.374	5.733	7.582	8.883	9.713	10.21	13.18	13.58	14.27	13.61	13.84	14.49	14.77	15.16	15.65	15.65	16.44	17.02	17.57	16.98	16.69	16.39	16.13	16.80	16.69	17.86	17.67	18.30	18.29	18.05	18.12	18.31
400.0	1478	2448	3421	4098	4213	4079	4093	4237	4513	4887	5115	5202	5190	4975	4511	3885	3505	3468	3617	3812	4020	4186	4268	4253	4105	3877	3584	3243	2841	2437	1980	1513	1172	1187	2044	8124	9999.9	1786	35.75	16.54	9.266	6.701	5.208	4.862	5.124	5.755	6.335	7.304	8.963	9.538	10.85	13.46	13.73	14.27	14.04	14.70	15.43	15.81	16.16	17.09	16.70	17.50	18.64	18.30	18.55	17.79	18.40	18.35	18.36	18.75	18.89	19.45	19.30	19.85	19.53	18.97	19.09
405.0	1523	2442	3498	4118	4304	4239	4334	4536	4919	5457	5900	6062	6062	5761	5107	4279	3718	3636	3775	4020	4275	4546	4694	4722	4615	4393	4114	3839	3416	2973	2455	1893	1389	1058	1005	2491	9999.9	9999.9	1390	27.79	13.14	8.368	6.546	5.369	5.493	6.178	6.993	7.762	9.560	9.812	10.68	13.76	14.10	14.66	14.51	14.55	15.99	16.58	17.15	17.79	17.95	18.42	19.56	19.72	20.49	19.88	20.04	20.22	20.45	20.06	20.97	20.77	20.75	21.55	20.32	19.43	19.60
410.0	1554	2461	3471	4129	4404	4455	4574	4849	5335	6029	6647	6919	6931	6565	5713	4633	3915	3751	3902	4175	4510	4823	5065	5150	5084	4901	4630	4371	4024	3547	2970	2345	1752	1283	971.7	1052	2911	7701	9999.9	3792	27.17	12.87	8.957	6.717	6.152	6.565	6.966	8.296	9.649	10.08	10.88	13.90	13.94	15.26	15.23	15.96	16.86	17.12	18.00	18.63	18.86	19.68	20.95	21.31	21.96	21.32	21.26	21.75	21.81	21.90	22.42	22.48	22.64	22.75	21.20	20.45	19.96
415.0	1535	2459	3447	4106	4402	4541	4711	4990	5537	6295	6988	7327	7336	6919	5966	4767	3955	3752	3876	4172	4531	4874	5167	5309	5291	5151	4897	4653	4361	3926	3329	2668	2036	1510	1104	839.5	1024	1946	5180	9999.9	1934	31.13	13.68	8.990	7.399	7.155	7.236	8.526	9.510	10.19	10.97	14.05	14.25	15.17	15.67	15.83	17.45	17.37	18.37	18.61	19.90	20.88	21.68	22.59	22.45	22.61	21.99	22.38	22.60	23.17	23.00	23.19	23.35	23.04	21.62	20.26	20.30
420.0	1458	2405	3357	4002	4343	4548	4748	5077	5553	6320	7044	7407	7425	6979	6010	4753	3913	3679	3808	4093	4439	4803	5105	5271	5286	5166	4951	4718	4444	4066	3498	2822	2180	1641	1208	853.9	654.7	680.4	1392	6901	9999.9	1634	26.68	12.04	8.754	7.726	7.378	8.782	9.545	10.02	10.67	14.24	14.21	14.91	15.31	16.08	17.68	17.64	18.47	19.23	19.82	20.87	21.22	22.09	22.47	22.76	22.78	22.59	22.57	23.15	23.45	22.96	23.23	22.80	21.50	20.67	19.71
425.0	1455	2359	3303	3900	4349	4578	4806	5096	5593	6339	7022	7444	7452	6996	5978	4726	3853	3612	3701	3984	4316	4682	4990	5183	5210	5108	4926	4711	4456	4089	3603	2928	2286	1746	1301	922.1	627.6	443.5	485.2	1909	7991	9960	254.0	21.25	11.02	8.622	8.142	9.069	9.546	10.12	10.66	13.71	14.23	15.29	15.53	16.04	17.49	18.35	18.76	19.41	20.03	20.69	21.11	22.27	22.55	23.14	22.65	22.20	22.43	23.08	23.40	23.41	23.22	23.04	21.25	20.32	19.30
430.0	1441	2281	3214	3862	4360	4673	4937	5217	5646	6322	7041	7480	7455	6989	5965	4684	3817	3542	3624	3866	4177	4516	4840	5035	5083	5003	4843	4667	4439	4098	3636	3027	2402	1861	1415	1027	706.4	461.5	339.4	576.0	2164	6626	9140	3087	23.47	12.05	9.646	9.656	10.06	10.15	10.67	13.75	14.40	15.58	15.74	16.39	17.98	18.80	19.37	19.50	20.11	20.56	21.66	22.20	22.18	22.68	22.18	22.40	22.25	23.19	22.79	22.91	22.25	22.34	20.65	19.69	19.11
435.0	1562	2218	3103	3820	4397	4762	5131	5373	5679	6266	6955	7359	7331	6860	5866	4599	3759	3452	3514	3727	3994	4312	4618	4829	4883	4825	4692	4540	4331	4032	3606	3054	2486	1958	1512	1128	797.2	533.7	367.1	326.8	612.4	1584	4699	9999.9	1803	28.23	13.08	11.12	11.08	10.42	10.98	13.77	14.91	15.65	15.85	17.62	19.18	20.09	20.65	20.40	20.38	21.11	21.71	21.71	21.83	22.18	21.50	22.55	21.71	22.19	21.83	21.85	21.40	21.69	20.17	18.90	18.77
440.0	1658	2231	3025	3764	4396	4814	5222	5445	5623	6109	6755	7134	7110	6629	5701	4478	3658	3363	3394	3571	3801	4090	4387	4577	4662	4610	4493	4365	4183	3931	3527	3004	2494	2000	1559	1178	852.9	590.3	410.3	298.7	291.0	457.6	1220	6507	9999.9	1456	22.99	12.90	11.73	11.09	11.18	14.23	14.84	15.73	16.61	17.38	19.10	19.94	20.43	20.20	20.49	20.13	20.99	21.95	21.46	21.63	21.19	21.23	21.51	21.90	21.46	21.35	21.37	21.18	19.41	18.80	18.31
445.0	1634	2300	2938	3709	4299	4837	5243	5433	5494	5864	6423	6758	6727	6295	5417	4285	3500	3222	3243	3382	3573	3832	4108	4289	4378	4347	4239	4138	3981	3771	3405	2911	2438	1993	1580	1208	892.4	636.4	452.5	324.9	243.9	224.3	355.9	1781	8068	9095	211.0	19.52	13.23	11.59	11.48	14.03	14.64	16.29	16.63	17.74	19.50	20.27	20.75	20.29	20.47	20.18	20.70	20.99	20.72	20.23	20.11	20.59	20.26	20.55	20.64	20.24	20.38	20.38	18.51	18.41	17.36
450.0	1419	2526	2897	3522	4172	4694	5140	5272	5222	5424	5873	6148	6112	5716	4937	3945	3240	2982	2989	3074	3223	3433	3677	3840	3930	3903	3828	3754	3635	3467	3152	2738	2306	1918	1565	1221	918.9	674.7	499.6	366.5	267.2	200.8	184.8	471.2	2172	6445	7405	2464	22.00	14.34	12.28	14.32	14.64	15.70	16.58	17.70	19.23	20.12	20.21	19.74	19.81	19.39	19.61	19.52	19.04	18.69	18.90	18.64	19.54	19.19	18.94	19.36	19.64	18.53	17.78	16.70	16.69
455.0	1207	2528	3168	3340	3967	4504	4931	4969	4854	4917	5281	5488	5458	5099	4405	3558	2952	2717	2705	2746	2844	3012	3222	3365	3438	3437	3376	3326	3247	3112	2856	2508	2144	1797	1498	1210	929.2	698.6	535.9	405.2	300.5	220.5	170.1	196.6	549.8	1513	3626	8633	1477	23.65	14.19	14.88	14.60	15.84	16.44	16.83	18.98	19.06	19.46	18.96	18.88	18.50	18.05	17.68	17.10	16.99	17.15	17.37	17.18	17.33	17.43	17.85	17.53	16.94	16.18	15.81	15.46
460.0	1053	2162	3557	3230	3794	4312	4728	4754	4542	4556	4832	4996	4963	4628	4018	3264	2725	2511	2490	2505	2572	2712	2886	3012	3090	3096	3047	3017	2952	2844	2630	2331	2011	1694	1427	1173	923.9	707.1	550.8	423.6	322.0	241.0	181.1	147.5	200.5	395.9	919.2	5060	8412	1186	21.08	16.58	14.83	16.00	15.83	16.64	18.28	18.55	18.69	18.26	17.79	16.93	17.03	16.56	16.10	15.68	15.39	15.34	15.39	16.24	16.22	16.11	15.96	15.61	14.87	14.67	13.99
465.0	990.1	1805	3681	3548	3623	4103	4499	4492	4254	4219	4428	4555	4530	4224	3676	3005	2503	2318	2285	2288	2325	2441	2601	2721	2788	2792	2750	2734	2672	2591	2410	2153	1863	1594	1349	1117	910.0	706.6	557.7	435.6	336.9	256.6	194.3	147.1	132.0	155.5	257.9	1360	6668	8673	171.9	22.57	15.77	15.60	15.94	15.94	17.52	17.81	18.22	17.85	16.77	16.18	15.93	15.40	15.29	14.77	14.50	14.60	14.62	14.55	14.74	15.16	14.90	14.41	14.08	13.65	13.22
470.0	880.2	1471	2864	4290	3463	3698	4076	4079	3807	3741	3874	3999	3930	3679	3193	2625	2208	2052	2009	1991	2011	2100	2230	2328	2390	2394	2364	2354	2322	2259	2116	1902	1663	1438	1228	1028	852.0	688.4	550.4	439.0	345.8	268.7	208.2	160.8	129.3	112.7	118.2	351.4	1787	6020	5903	2200	23.39	16.69	15.60	15.38	16.62	16.70	16.87	16.20	14.76	14.76	14.17	13.75	13.56	13.23	12.95	13.10	13.30	12.99	13.36	13.05	13.09	12.72	12.70	12.17	11.91
475.0	745.3	1275	2009	4210	4054	3324	3608	3610	3348	3237	3334	3437	3378	3128	2714	2264	1918	1773	1732	1704	1710	1774	1874	1954	2002	2013	1990	1981	1970	1924	1812	1647	1460	1273	1099	928.9	777.6	644.1	533.0	431.5	342.6	271.9	216.8	172.5	138.2	112.8	95.75	134.4	441.0	1393	2736	6648	1420	26.91	16.39	15.03	15.78	15.29	14.62	14.40	13.56	13.13	12.82	11.91	12.29	11.61	11.48	11.51	11.74	11.31	11.41	11.23	11.54	11.55	10.95	10.20	10.65
480.0	711.7	1125	1691	3300	4823	3212	3314	3271	3049	2903	2957	3042	2983	2783	2410	2013	1725	1585	1553	1520	1514	1558	1642	1719	1768	1762	1752	1744	1739	1703	1613	1474	1319	1164	1008	863.7	725.9	605.6	518.0	426.5	341.9	273.2	221.3	180.5	147.0	118.7	97.98	92.32	146.5	348.6	683.2	3621	6286	1253	23.40	15.81	15.48	14.40	13.76	13.12	12.64	12.07	11.68	11.41	11.05	10.48	10.36	10.38	10.01	10.51	10.28	10.16	10.28	10.02	9.892	9.454	9.562
485.0	658.3	1087	1515	2431	4905	3648	3056	3005	2788	2661	2694	2761	2701	2508	2160	1822	1564	1445	1409	1371	1357	1395	1462	1536	1577	1573	1570	1561	1559	1531	1465	1346	1204	1065	933.9	806.6	684.7	576.3	493.1	418.2	340.6	274.7	223.0	185.1	151.4	125.5	104.6	87.88	86.53	121.0	188.0	966.8	4789	5847	200.9	21.06	16.47	14.65	13.65	12.65	11.97	11.30	11.02	10.40	9.956	9.831	9.589	9.516	9.602	9.784	9.482	9.789	9.203	9.481	9.024	8.814	8.542
490.0	576.7	979.3	1389	1899	3626	4749	2949	2692	2497	2358	2383	2429	2369	2199	1902	1599	1386	1275	1242	1202	1181	1217	1269	1329	1362	1372	1359	1357	1361	1340	1282	1185	1069	952.0	840.6	734.7	630.6	536.8	463.3	400.0	339.7	277.1	228.0	191.8	161.6	136.8	115.1	96.30	81.58	78.32	84.08	251.1	1274	3770	5143	2087	24.91	15.52	13.66	11.99	11.24	10.46	9.763	9.452	9.360	8.904	8.715	8.756	8.649	8.574	8.446	8.699	8.301	8.347	8.142	7.995	8.140
495.0	504.2	878.0	1216	1597	2304	4699	3706	2381	2174	2057	2075	2113	2051	1887	1641	1391	1203	1113	1073	1041	1016	1043	1084	1136	1165	1167	1161	1159	1167	1152	1107	1028	933.0	840.6	745.4	659.0	573.6	494.1	427.9	371.8	321.6	275.3	229.0	194.6	167.4	144.4	125.1	105.8	87.57	75.87	68.25	97.59	317.2	880.3	2646	6620	1604	27.81	14.14	12.07	10.38	9.615	9.099	8.656	8.251	8.311	7.773	8.079	8.056	7.598	7.569	7.510	7.389	7.910	7.031	7.347	7.171
500.0	455.9	789.2	1136	1444	1808	3575	4748	2305	1959	1853	1864	1887	1822	1680	1455	1240	1073	993.8	954.2	920.8	900.5	920.1	949.5	1005	1024	1027	1024	1015	1022	1013	982.6	912.5	835.4	750.1	675.3	598.1	524.2	457.4	398.1	348.7	303.7	265.7	229.6	194.2	169.2	148.8	129.2	109.7	93.56	80.26	68.45	66.78	108.9	228.1	666.0	3626	6403	1278	23.09	12.05	10.27	9.383	8.663	8.489	7.700	7.069	7.326	7.159	7.133	7.024	6.913	6.719	6.947	6.822	6.423	6.615	6.859
505.0	417.2	689.3	1039	1302	1567	2402	5134	2770	1759	1664	1674	1695	1627	1502	1293	1091	957.3	894.6	850.6	816.5	799.2	810.1	842.8	885.1	907.1	909.2	900.6	895.1	898.9	894.2	873.2	809.8	747.5	675.0	608.1	543.2	478.6	418.6	373.5	327.0	285.5	252.0	225.1	194.1	167.9	148.6	130.5	112.2	96.99	83.94	71.64	64.15	64.78	85.59	177.8	956.0	4524	5152	221.8	17.30	10.50	9.025	8.244	7.522	7.058	6.628	6.822	6.545	6.440	6.367	6.367	6.260	6.323	6.248	5.841	5.742	6.103
510.0	372.1	579.0	901.7	1154	1333	1656	3606	4365	1731	1450	1445	1459	1397	1272	1101	936.3	813.5	759.0	725.3	697.1	675.4	686.7	713.3	743.3	763.9	765.8	758.0	756.5	759.7	754.3	734.8	693.5	639.5	580.5	524.6	470.5	419.4	373.9	334.5	294.8	259.1	231.5	209.1	186.6	165.1	145.1	129.8	113.8	98.80	86.27	75.29	65.14	58.12	56.70	71.25	239.8	1176	3095	3991	976.0	21.13	9.440	7.638	7.065	6.393	6.242	5.928	5.885	6.038	5.773	5.761	5.495	5.484	5.307	5.039	5.070	5.098
515.0	327.4	501.6	748.7	1007	1139	1289	1945	5044	2518	1240	1229	1229	1176	1061	922.3	783.5	682.8	637.8	607.2	583.2	564.0	569.8	589.7	615.1	633.3	638.4	624.9	626.2	627.5	628.9	609.7	577.8	534.0	490.4	443.6	401.8	361.5	325.8	293.2	261.9	233.8	208.5	189.9	175.1	159.5	140.7	123.5	110.7	96.61	85.98	75.67	66.24	57.07	51.60	48.02	80.63	284.5	714.1	1728	4174	1591	25.65	8.073	6.868	5.880	5.724	5.285	5.148	4.980	5.162	4.901	4.873	4.867	4.406	4.372	4.262	4.587
520.0	277.1	437.9	649.0	859.9	1028	1117	1345	3861	4301	1228	1082	1081	1024	919.0	798.0	685.2	598.2	554.4	528.8	504.7	485.2	495.8	509.9	533.9	550.0	550.7	537.6	539.5	539.4	542.5	531.5	502.9	467.3	428.8	389.2	356.6	322.4	291.7	265.6	237.5	214.1	191.3	172.3	162.0	151.2	135.6	120.6	107.4	95.15	83.55	74.55	65.63	57.10	49.81	42.94	45.85	87.10	177.5	420.6	2085	4541	1265	20.88	6.996	5.824	5.308	4.938	4.749	4.778	4.441	4.779	4.354	4.350	4.131	3.926	3.981	4.054
525.0	250.3	405.4	574.6	743.7	920.9	968.0	1092	2213	5320	1726	968.7	969.9	912.5	810.8	704.7	600.0	530.1	489.4	465.1	442.5	423.7	432.2	446.4	466.0	478.2	479.0	471.4	468.9	469.8	474.5	463.5	441.2	410.7	378.2	344.9	318.0	288.5	261.7	239.0	215.8	195.8	177.8	160.1	148.3	142.1	130.1	116.6	102.9	90.85	81.44	71.65	64.28	55.00	48.67	40.93	37.27	42.84	57.22	109.0	523.9	2744	3899	232.7	14.73	6.002	4.980	4.801	4.266	4.343	4.387	4.139	3.972	3.688	3.748	3.536	3.521	3.556
530.0	215.4	350.5	488.7	627.9	789.0	846.6	900.7	1184	3602	3697	1013	816.1	769.6	685.1	594.2	509.2	445.0	412.5	391.7	374.6	360.9	365.8	376.9	389.6	399.1	402.0	395.2	392.6	393.8	396.9	388.9	370.2	343.6	320.2	295.1	271.6	246.7	225.6	206.1	188.8	171.9	156.8	144.3	133.2	126.3	119.7	109.5	96.53	85.57	76.77	68.03	61.03	52.23	46.31	38.96	34.54	31.16	29.94	38.91	128.4	681.9	2018	2837	1010	20.30	5.774	4.720	3.947	3.943	3.827	3.581	3.446	3.201	3.440	3.042	3.132	3.096
535.0	187.9	290.0	412.0	531.1	634.9	740.1	743.3	805.1	1498	4569	1827	691.3	641.1	565.3	489.4	418.9	370.3	343.3	324.0	307.4	300.8	300.6	310.6	321.1	328.4	331.5	324.0	322.9	326.5	325.5	319.5	304.4	283.3	264.4	247.2	224.5	208.1	191.2	177.2	161.1	148.4	136.7	127.5	117.2	109.8	103.7	99.39	89.35	79.12	69.84	62.00	55.85	48.26	42.80	37.24	32.22	27.94	23.48	22.02	39.61	161.1	459.0	1014	3017	1589	26.20	5.123	4.026	3.570	3.436	3.271	3.059	2.795	2.894	2.721	2.802	2.630
540.0	169.0	242.8	364.5	460.2	526.9	639.5	640.7	651.1	803.5	3149	3864	695.1	553.0	490.8	425.1	363.4	319.2	293.3	275.8	264.8	255.8	260.2	263.8	275.1	280.5	285.2	277.3	273.3	277.4	277.6	272.8	262.0	243.8	228.1	211.1	196.1	181.5	167.4	154.4	141.2	130.8	122.1	113.2	105.5	99.31	93.71	88.76	82.01	72.90	64.63	57.84	51.04	45.01	40.32	34.99	30.48	25.86	21.19	17.87	19.27	45.04	109.7	238.4	1289	3063	1233	21.20	4.344	3.421	3.145	2.921	2.704	2.767	2.539	2.394	2.547	2.418
545.0	141.1	229.0	316.6	396.3	451.7	541.4	587.4	553.4	581.3	1496	5004	1145	478.9	429.3	366.0	312.5	278.6	256.1	238.9	227.8	220.3	221.9	228.6	234.5	239.7	243.5	238.5	236.3	237.2	236.1	234.5	224.6	210.6	195.4	181.8	170.4	156.2	146.1	134.4	126.3	116.1	106.9	100.7	94.27	90.01	83.54	79.91	73.60	68.19	58.77	52.74	47.00	41.47	36.73	32.43	28.70	24.22	19.94	16.47	14.61	18.44	31.57	59.68	308.9	1513	2747	243.7	15.19	3.724	3.093	2.977	2.663	2.540	2.446	2.301	2.224	2.132
550.0	126.2	179.3	263.4	330.0	373.9	425.6	493.3	460.4	455.7	669.4	3191	3175	510.1	348.5	295.1	255.6	224.0	206.1	194.4	185.7	179.2	179.8	183.6	188.5	193.5	196.3	191.6	190.4	191.4	193.3	190.7	180.6	168.9	159.3	148.0	138.3	128.1	119.1	111.4	104.9	96.77	89.90	84.71	79.24	75.89	70.92	67.32	61.45	58.24	53.03	47.29	41.63	36.17	32.15	28.27	25.03	21.51	18.09	14.91	12.28	11.78	13.49	19.18	74.23	359.6	1166	1650	984.0	93.77	3.836	2.830	2.407	2.272	2.098	2.042	1.927	1.924
555.0	113.7	156.9	221.5	268.2	292.7	334.6	381.3	390.3	360.9	402.1	1116	4095	1187	280.4	235.5	202.7	175.3	163.0	153.9	147.0	142.2	140.2	145.0	149.1	151.7	152.6	148.7	148.7	148.9	150.4	149.6	141.1	132.7	125.0	116.5	109.9	100.9	95.13	90.36	83.84	77.94	72.27	68.60	65.05	62.79	58.11	55.20	50.52	47.57	44.92	40.88	35.04	30.58	27.47	24.24	21.85	18.70	15.42	13.18	10.82	9.325	8.725	9.366	21.13	84.29	263.8	513.4	1684	1503	29.15	3.207	2.204	2.083	1.795	1.751	1.631	1.665
560.0	90.12	146.7	186.0	233.8	248.5	269.3	313.4	343.2	305.2	310.8	476.8	2716	2900	295.5	193.7	169.4	146.4	133.1	127.5	120.7	117.0	115.3	119.4	122.1	124.9	126.1	122.3	121.2	121.5	122.8	122.9	117.4	110.8	103.1	97.84	89.08	84.62	78.58	75.05	70.89	66.28	62.16	58.72	56.47	52.73	49.05	47.08	43.78	39.96	38.34	34.93	30.96	26.83	23.70	21.27	18.90	16.67	14.19	11.66	9.873	8.348	7.393	6.797	8.918	22.50	62.34	119.0	606.1	1966	982.1	23.45	2.529	1.961	1.684	1.493	1.400	1.497
565.0	92.85	129.0	169.7	195.9	212.9	232.9	260.1	301.9	272.5	256.9	299.6	1156	4015	626.8	165.3	140.8	123.9	114.1	105.4	101.1	99.26	96.91	99.67	101.7	102.9	105.0	102.2	100.4	102.4	102.5	101.2	97.19	91.41	86.76	81.44	74.79	71.19	65.90	62.44	59.49	56.39	52.56	49.44	47.75	44.72	42.81	39.76	38.14	34.68	32.60	30.06	27.74	23.81	20.97	18.33	16.78	14.13	12.16	10.23	8.959	7.641	6.398	5.829	5.798	8.564	17.04	29.43	141.7	811.6	1660	254.0	16.33	1.849	1.659	1.489	1.388	1.343
570.0	87.71	113.8	144.0	162.1	175.9	187.3	205.1	234.2	249.4	214.2	227.1	431.7	2552	2116	212.5	110.9	99.67	89.83	84.54	78.53	76.73	77.05	77.79	79.83	80.80	82.42	80.74	79.16	79.68	81.26	78.40	76.28	72.45	68.26	63.81	59.45	57.11	52.21	49.59	47.44	44.82	42.10	39.69	38.90	36.20	34.82	32.73	30.83	27.93	26.13	24.36	22.90	19.89	17.78	15.24	14.08	12.31	10.49	8.828	7.805	6.943	5.687	5.097	4.650	4.961	6.551	8.927	33.98	188.4	615.5	1097	708.5	87.88	2.819	1.512	1.238	1.222
575.0	78.21	101.8	134.3	127.6	139.6	150.1	165.2	173.1	219.6	189.9	185.8	227.0	797.2	3254	799.1	89.35	77.44	70.84	65.88	61.12	60.02	58.79	61.12	62.01	63.65	64.43	63.02	61.68	61.06	61.61	61.37	59.33	57.29	52.37	49.64	47.22	43.74	41.56	39.93	37.11	35.19	32.83	31.52	30.54	29.25	27.58	26.08	24.41	22.65	21.07	19.01	17.79	16.70	14.79	13.04	11.68	10.28	8.779	7.473	6.737	5.639	5.222	4.507	4.044	3.742	3.857	4.198	9.745	44.05	139.2	294.9	908.5	875.4	30.44	2.200	1.448	1.262
580.0	82.42	96.86	118.9	123.3	124.2	132.3	138.4	145.0	192.0	190.0	168.4	173.0	294.1	2147	2389	101.8	65.47	58.75	55.28	51.39	49.48	49.11	51.08	52.04	52.29	52.20	50.72	50.15	51.46	51.12	50.58	48.89	46.11	43.99	40.75	38.35	36.68	34.97	33.10	30.20	30.02	28.06	26.43	25.71	24.55	23.37	22.07	20.17	18.84	17.61	16.05	14.85	14.20	13.09	11.56	10.38	9.000	7.495	6.629	6.019	5.175	4.661	4.279	3.647	3.262	3.157	3.058	4.087	11.64	32.83	67.87	291.4	930.3	704.3	24.77	1.657	1.299
585.0	73.20	94.15	107.9	116.8	109.5	112.8	118.8	128.2	156.6	186.4	153.9	147.4	166.0	842.3	3410	332.6	57.29	48.83	47.96	43.65	42.37	41.81	43.55	43.93	43.92	43.30	43.09	42.55	42.93	43.81	43.04	41.68	39.04	36.35	33.57	32.39	30.51	29.19	27.76	25.68	24.89	23.54	22.37	21.68	21.34	20.04	18.35	17.50	16.17	15.07	13.74	13.04	11.70	11.17	10.36	9.071	7.827	7.007	5.903	5.336	4.445	4.257	4.007	3.592	3.191	2.670	2.711	2.795	4.313	9.033	16.87	67.43	338.2	994.2	256.5	16.72	1.157
590.0	69.96	89.95	99.22	102.4	93.51	97.96	102.5	110.4	127.1	168.9	156.9	136.7	128.1	272.8	2163	1495	73.63	40.74	39.28	36.13	34.20	33.82	34.33	34.26	35.62	35.09	34.79	34.31	34.21	35.12	34.68	32.62	31.04	29.51	27.56	25.97	24.08	23.86	22.47	20.75	20.31	19.25	17.98	17.91	17.06	16.15	15.22	14.42	13.03	12.40	11.28	10.32	9.587	8.988	8.847	8.046	6.789	5.893	5.104	4.421	3.978	3.654	3.332	3.223	2.883	2.415	2.288	2.199	2.474	3.440	5.210	16.44	77.92	334.1	620.0	450.8	21.01
595.0	71.76	88.18	92.13	94.73	82.97	81.46	90.10	96.04	103.7	138.7	163.1	128.9	117.4	124.4	632.2	2466	516.3	34.65	31.93	28.49	28.33	27.57	27.33	27.51	27.85	27.61	26.78	26.56	26.25	27.46	27.38	26.35	24.71	22.66	21.13	20.59	19.76	18.38	17.33	16.89	15.90	15.32	14.28	14.07	13.68	13.16	12.16	11.44	11.01	10.07	9.123	8.246	8.018	7.415	6.956	6.683	6.066	4.899	4.304	3.750	3.463	3.216	2.884	2.696	2.760	2.327	2.059	1.970	2.043	2.160	2.431	4.972	18.37	75.51	158.8	477.6	612.5
600.0	70.88	82.53	89.00	89.19	78.85	74.99	80.80	91.79	94.35	122.0	163.2	134.2	111.0	93.28	195.0	1723	1716	44.98	27.33	25.24	22.81	23.64	23.38	23.05	23.40	23.18	22.68	22.46	21.90	22.32	21.92	21.62	20.83	19.00	17.89	16.77	15.45	15.04	14.34	13.74	13.44	12.74	12.47	11.80	11.67	10.86	10.36	9.620	9.084	8.227	7.479	6.957	6.473	6.336	5.616	5.725	5.364	4.306	3.759	3.202	2.869	2.916	2.404	2.363	2.446	2.426	1.891	1.724	1.713	1.700	1.869	2.199	4.989	17.90	36.48	144.8	606.7
605.0	65.73	71.74	90.34	83.82	75.31	70.55	81.90	92.72	100.7	121.6	161.8	151.8	118.7	93.66	96.88	691.0	2663	86.44	24.28	20.93	19.34	19.63	19.24	19.29	19.82	20.05	18.97	19.05	18.73	19.41	18.48	18.08	17.46	16.13	15.06	14.02	13.26	12.88	12.45	11.67	11.17	10.87	10.28	9.853	10.05	9.069	8.846	8.186	7.792	7.222	6.312	6.097	5.439	5.317	4.830	4.774	4.968	4.138	3.256	2.858	2.708	2.657	2.354	2.153	2.102	2.244	1.819	1.829	1.698	1.619	1.519	1.441	2.137	4.888	9.072	33.62	210.2
610.0	64.77	77.73	85.72	80.41	72.96	70.86	79.63	95.42	109.1	134.5	167.8	187.8	145.8	109.0	91.65	216.4	1883	981.4	39.73	18.13	16.19	15.91	15.55	15.60	15.95	16.05	15.51	15.23	15.37	15.44	14.84	14.59	13.75	12.70	12.17	11.25	10.47	10.45	9.732	9.243	9.081	8.447	8.278	7.897	7.762	7.458	7.160	6.604	6.243	5.734	5.193	5.008	4.324	4.523	3.989	3.736	3.949	3.646	2.921	2.522	2.433	2.301	2.232	2.094	1.920	1.920	1.912	1.831	1.764	1.562	1.553	1.360	1.459	2.067	2.915	8.472	48.30
615.0	63.08	74.50	87.40	75.95	68.48	69.54	78.41	93.32	112.4	136.6	158.7	193.4	159.2	117.7	91.27	97.70	591.6	1728	339.6	15.62	13.73	12.86	12.35	13.16	12.89	12.15	12.29	12.39	12.52	12.12	11.88	11.67	10.84	10.05	9.658	9.015	8.059	8.444	7.683	7.060	7.203	6.791	6.307	6.056	5.872	6.065	5.627	5.245	5.022	4.537	4.270	4.240	3.515	3.476	3.503	3.166	2.882	2.781	2.705	2.430	2.082	2.042	1.902	1.880	1.845	1.842	1.768	1.775	1.772	1.521	1.461	1.266	1.325	1.368	1.438	2.750	11.51
620.0	66.45	73.58	83.36	72.05	65.71	68.18	75.22	90.23	105.0	128.5	147.2	172.1	165.5	116.6	90.16	70.20	185.1	1298	1189	20.52	12.11	10.86	10.58	11.07	11.18	10.44	10.13	10.18	10.25	10.42	9.814	9.695	9.236	8.457	7.787	7.604	6.893	6.396	6.364	5.817	5.870	5.564	5.472	5.121	4.574	5.054	4.539	4.525	4.424	3.742	3.454	3.499	3.081	3.035	2.724	2.641	2.448	2.428	2.431	2.179	2.021	1.647	1.744	1.706	1.599	1.643	1.559	1.601	1.583	1.601	1.331	1.186	1.239	1.277	1.125	1.329	3.251
625.0	71.88	79.03	83.40	76.03	59.55	63.79	69.78	87.11	100.3	124.1	144.0	164.3	169.2	118.5	88.24	62.19	84.73	557.8	2013	61.07	10.92	10.09	9.825	9.699	9.259	9.155	9.519	8.875	8.573	9.037	8.350	8.205	7.732	6.908	6.867	6.308	5.996	5.394	5.180	4.892	4.971	4.805	4.551	4.328	4.031	4.153	3.585	3.705	3.532	3.214	2.913	2.886	2.608	2.446	2.337	2.325	2.196	2.064	2.166	2.041	1.925	1.724	1.544	1.562	1.558	1.444	1.504	1.450	1.538	1.552	1.378	1.204	1.058	1.202	0.951	1.077	1.357
630.0	64.49	76.60	82.38	69.65	61.20	61.67	69.21	82.73	96.68	120.1	141.7	156.4	161.1	127.0	88.74	61.28	59.44	161.4	1540	766.9	19.75	8.921	8.197	7.781	7.855	7.675	7.372	7.196	6.999	7.245	6.826	6.832	6.365	5.573	5.378	5.091	4.704	4.610	4.247	4.229	3.806	3.897	3.522	3.494	3.406	3.434	3.067	2.974	2.857	2.652	2.530	2.338	2.040	2.180	1.940	1.922	1.799	1.796	1.799	1.782	1.707	1.538	1.471	1.427	1.363	1.425	1.372	1.445	1.444	1.495	1.381	1.180	1.113	1.074	0.973	0.972	0.928
635.0	60.84	77.85	85.08	75.83	57.77	60.12	69.81	79.54	96.07	118.0	139.1	156.6	151.4	137.4	94.14	63.46	55.95	59.98	481.1	1514	65.86	8.076	6.893	6.501	6.261	6.361	6.217	5.620	5.735	6.295	5.846	5.579	4.989	4.503	4.401	4.216	3.926	3.386	3.609	3.285	3.164	3.149	2.935	2.880	2.826	2.761	2.479	2.518	2.349	2.154	1.969	1.936	1.860	1.769	1.459	1.635	1.525	1.586	1.550	1.422	1.404	1.488	1.400	1.290	1.253	1.163	1.284	1.255	1.400	1.219	1.293	1.295	1.192	1.047	0.992	0.879	0.800
640.0	72.92	87.39	87.79	74.85	56.14	61.48	68.25	78.08	92.70	119.3	134.7	155.5	149.3	143.1	103.7	67.07	57.38	36.92	130.3	1253	486.8	10.92	6.293	5.654	5.862	5.208	5.238	5.131	4.745	5.224	4.958	4.699	4.127	3.893	3.740	3.331	3.100	2.927	2.924	2.765	2.527	2.506	2.544	2.294	2.469	2.317	2.275	2.139	2.023	1.841	1.750	1.643	1.609	1.355	1.358	1.402	1.438	1.328	1.331	1.315	1.378	1.263	1.365	1.298	1.241	1.214	1.238	1.197	1.306	1.253	1.274	1.261	1.296	1.194	0.916	0.881	0.847
645.0	74.89	109.7	87.67	78.17	61.98	59.97	64.70	76.59	91.28	114.9	134.8	155.6	150.3	140.1	108.9	70.44	57.30	32.55	42.70	588.6	1286	42.69	6.487	5.350	5.267	5.028	4.515	4.417	4.524	4.386	4.483	3.862	3.711	3.456	3.363	2.743	3.031	2.484	2.422	2.390	2.132	2.171	2.126	2.008	2.009	2.064	2.014	1.851	1.811	1.551	1.499	1.391	1.361	1.327	1.325	1.214	1.250	1.305	1.167	1.173	1.218	1.241	1.269	1.204	1.224	1.069	1.229	1.226	1.280	1.213	1.167	1.167	1.131	1.163	0.946	0.819	0.852
650.0	68.86	106.5	102.3	84.65	59.08	54.50	63.87	76.30	91.55	108.0	133.2	149.6	145.3	131.5	114.2	72.08	56.62	31.26	22.36	179.9	1428	297.8	7.048	4.768	4.857	4.531	4.106	3.995	4.030	4.005	3.711	3.707	3.109	2.921	2.921	2.544	2.678	2.150	2.128	2.011	1.871	1.847	1.851	1.687	1.760	1.812	1.779	1.580	1.644	1.436	1.353	1.355	1.246	1.203	1.129	1.170	1.112	1.153	1.071	0.982	1.083	1.211	1.292	1.202	1.084	1.076	1.196	1.059	1.171	1.266	1.121	1.082	1.037	1.249	0.902	0.831	0.836
