Sample:	'1
File name:	S2025090501ÅË×¯¶þ´åÇÅ.FD3
Run date:	'11:37:12, 09/05/2025
Operator:	Administrator
Comment:	'

Instrument
Model:	F-2700 FL Spectrophotometer
Serial number:	23C7-003
ROM Version:	4J14000 07

Instrument parameters
Measurement type:	3-D scan
Data mode:	Fluorescence
EX  Start WL:	220.0 nm
EX  End WL:	600.0 nm
EX Sampling interval:	5.0 nm
EM  Start WL:	230.0 nm
EM  End WL:	650.0 nm
EM Sampling interval:	5.0 nm
Scan speed:	12000 nm/min
EX Slit:	5.0 nm
EM Slit:	5.0 nm
PMT Voltage:	700 V
Response:	Auto 
Corrected spectra:	Off
Contour interval:	50.000

Peak integration
Integration method:	Rectangular
Sensitivity:	1
Threshold:	1.000

Peaks
No.	ApexEX/EM(nm)	Height(Data)
1	225.0/585.0	19.36
2	225.0/600.0	17.51
3	230.0/345.0	388.9
4	230.0/500.0	193.4
5	230.0/605.0	16.09
6	230.0/635.0	13.53
7	235.0/510.0	185.3
8	240.0/260.0	219.9
9	240.0/520.0	166.4
10	245.0/270.0	224.5
11	245.0/405.0	519.9
12	245.0/535.0	137.6
13	250.0/275.0	285.6
14	250.0/545.0	126.0
15	255.0/280.0	384.0
16	255.0/560.0	111.3
17	260.0/285.0	396.8
18	260.0/570.0	85.54
19	265.0/585.0	81.22
20	270.0/300.0	733.6
21	270.0/595.0	71.78
22	275.0/305.0	838.9
23	275.0/385.0	505.6
24	275.0/610.0	63.00
25	280.0/310.0	758.6
26	280.0/345.0	476.4
27	280.0/625.0	53.86
28	285.0/315.0	683.1
29	285.0/635.0	40.55
30	290.0/325.0	624.5
31	295.0/330.0	474.9
32	300.0/335.0	446.6
33	305.0/345.0	410.7
34	310.0/350.0	372.3
35	315.0/355.0	376.2
36	320.0/360.0	387.1
37	325.0/370.0	369.0
38	330.0/375.0	355.3
39	335.0/380.0	358.9
40	350.0/400.0	283.9
41	355.0/405.0	270.5
42	425.0/495.0	38.46
43	460.0/545.0	9.702
44	470.0/560.0	5.921
45	505.0/275.0	1.779
46	510.0/280.0	2.271
47	515.0/285.0	2.325
48	525.0/290.0	2.254
49	535.0/295.0	3.138
50	545.0/300.0	3.838
51	550.0/305.0	4.237
52	560.0/310.0	3.967
53	570.0/315.0	3.937
54	575.0/290.0	31.16
55	575.0/320.0	3.846
56	585.0/325.0	3.564

Data points
	220.0	225.0	230.0	235.0	240.0	245.0	250.0	255.0	260.0	265.0	270.0	275.0	280.0	285.0	290.0	295.0	300.0	305.0	310.0	315.0	320.0	325.0	330.0	335.0	340.0	345.0	350.0	355.0	360.0	365.0	370.0	375.0	380.0	385.0	390.0	395.0	400.0	405.0	410.0	415.0	420.0	425.0	430.0	435.0	440.0	445.0	450.0	455.0	460.0	465.0	470.0	475.0	480.0	485.0	490.0	495.0	500.0	505.0	510.0	515.0	520.0	525.0	530.0	535.0	540.0	545.0	550.0	555.0	560.0	565.0	570.0	575.0	580.0	585.0	590.0	595.0	600.0
230.0	9.682	386.6	1571	628.0	31.89	2.864	1.757	1.490	1.667	1.431	1.315	1.289	1.278	0.992	0.843	0.761	0.801	0.659	0.660	0.587	0.468	0.452	0.432	0.408	0.383	0.354	0.325	0.335	0.250	0.213	0.194	0.259	0.210	0.113	0.138	0.143	0.122	0.119	0.098	0.088	0.113	0.079	0.127	0.115	0.090	0.099	0.378	2.318	5.371	4.938	2.011	0.373	0.085	0.064	0.053	0.035	0.046	0.064	0.058	0.045	0.042	0.029	0.036	0.046	0.034	-0.010	0.027	0.079	0.018	0.028	0.036	0.010	0.032	-0.002	0.008	0.003	0.021
235.0	38.74	104.3	812.7	1920	482.4	60.69	3.627	2.544	2.105	1.465	1.510	1.738	1.379	1.165	0.988	0.899	0.766	0.757	0.697	0.665	0.489	0.411	0.483	0.422	0.382	0.358	0.270	0.365	0.157	0.232	0.222	0.261	0.271	0.145	0.126	0.125	0.127	0.123	0.114	0.099	0.124	0.100	0.123	0.199	0.182	0.161	0.205	0.576	1.797	3.905	6.134	7.181	3.866	0.761	0.058	0.059	0.065	0.046	0.031	0.064	0.041	0.021	0.022	0.070	0.013	0.011	0.042	0.074	0.041	0.017	0.020	0.011	-0.002	-0.011	0.017	0.033	-0.016
240.0	54.50	64.30	213.2	1298	2310	404.7	28.92	3.034	2.004	2.111	1.829	1.863	1.781	1.095	1.090	0.893	0.637	0.646	0.790	0.576	0.432	0.479	0.491	0.447	0.412	0.469	0.283	0.295	0.194	0.187	0.168	0.228	0.209	0.118	0.158	0.128	0.146	0.138	0.170	0.115	0.099	0.096	0.093	0.187	0.167	0.279	0.223	0.265	0.467	1.086	2.992	7.935	10.82	7.482	2.641	0.362	0.042	0.048	0.102	0.036	0.059	0.012	0.031	0.016	0.071	0.025	0.021	0.041	-0.003	0.041	0.073	0.008	-0.004	0.040	-0.002	-0.005	0.023
245.0	34.72	104.8	89.79	372.9	1895	2607	312.5	10.16	2.395	2.739	2.198	1.827	1.740	1.489	1.233	0.974	1.109	0.771	0.778	0.479	0.530	0.435	0.530	0.395	0.541	0.418	0.298	0.281	0.312	0.183	0.232	0.203	0.181	0.077	0.203	0.144	0.093	0.190	0.086	0.184	0.178	0.111	0.102	0.127	0.145	0.316	0.372	0.387	0.261	0.343	0.751	2.589	6.969	11.65	11.92	6.436	1.619	0.123	0.093	0.034	0.062	0.015	0.027	0.015	0.065	0.017	0.019	0.047	0.035	0.010	0.024	-0.013	0.031	0.037	0.010	0.016	0.043
250.0	13.95	65.94	138.7	154.9	534.5	1837	2660	1082	76.76	3.652	2.824	2.234	1.675	1.547	1.495	0.899	1.090	0.842	0.804	0.579	0.575	0.447	0.501	0.401	0.419	0.369	0.321	0.287	0.328	0.261	0.236	0.189	0.242	0.152	0.166	0.170	0.102	0.141	0.079	0.158	0.162	0.143	0.079	0.094	0.124	0.152	0.212	0.357	0.474	0.507	0.445	0.709	1.723	3.655	6.920	10.00	12.46	10.27	5.396	1.453	0.175	0.046	0.061	0.041	0.061	0.023	-0.009	0.011	0.068	0.022	0.045	0.049	0.009	-0.003	0.033	0.012	0.011
255.0	6.126	18.60	79.47	206.1	195.4	435.0	1461	3609	1583	87.00	4.429	3.640	2.313	1.739	1.667	0.847	0.956	1.002	0.847	0.647	0.497	0.588	0.714	0.405	0.398	0.438	0.292	0.266	0.373	0.249	0.272	0.258	0.193	0.161	0.117	0.129	0.130	0.100	0.096	0.158	0.113	0.173	0.075	0.051	0.109	0.123	0.139	0.163	0.239	0.438	0.845	0.902	0.765	0.946	1.637	2.413	4.591	10.70	17.03	16.51	8.465	1.666	0.169	0.036	0.045	0.017	0.037	0.029	0.075	0.084	0.039	0.043	0.036	-0.020	0.029	0.029	0.046
260.0	6.656	8.183	28.06	145.8	219.9	143.8	380.3	2255	4210	1192	40.38	4.436	3.165	1.838	1.798	1.367	1.172	1.095	0.958	1.027	0.596	0.753	0.681	0.589	0.490	0.458	0.408	0.453	0.476	0.279	0.341	0.317	0.157	0.221	0.174	0.109	0.132	0.112	0.102	0.120	0.140	0.111	0.135	0.129	0.090	0.115	0.127	0.115	0.109	0.222	0.455	0.859	1.152	0.719	0.501	0.629	1.162	2.954	8.005	17.43	22.44	16.68	5.440	0.594	0.054	0.035	-0.001	0.062	0.033	0.110	0.037	0.087	0.072	0.068	0.062	0.024	0.037
265.0	6.332	7.605	11.03	55.32	213.6	195.2	110.4	633.3	3212	4322	204.0	14.73	4.180	2.882	2.028	1.743	1.419	1.196	0.974	0.906	0.837	0.593	0.610	0.636	0.509	0.559	0.436	0.355	0.457	0.320	0.319	0.205	0.225	0.196	0.245	0.152	0.169	0.114	0.113	0.118	0.115	0.135	0.141	0.117	0.098	0.159	0.102	0.071	0.086	0.120	0.156	0.362	1.033	1.352	0.977	0.477	0.352	0.753	1.980	5.261	13.10	24.33	25.26	13.01	2.695	0.152	0.016	0.028	0.090	0.074	0.051	0.045	0.028	0.048	0.034	0.046	0.016
270.0	9.723	8.306	7.822	17.65	83.80	224.5	204.1	183.6	889.2	3043	4406	761.7	55.75	4.546	3.044	2.272	1.628	1.388	1.274	0.904	0.828	0.729	0.587	0.610	0.516	0.458	0.451	0.351	0.391	0.358	0.335	0.302	0.238	0.250	0.208	0.198	0.161	0.121	0.158	0.109	0.137	0.123	0.109	0.125	0.158	0.118	0.115	0.125	0.058	0.081	0.119	0.146	0.347	0.696	1.105	1.334	1.045	0.566	0.650	1.293	3.204	7.258	14.01	20.48	23.48	17.74	9.510	2.496	0.214	0.070	0.090	0.029	0.052	0.041	0.076	0.048	0.127
275.0	20.06	14.25	16.09	12.57	26.90	82.19	285.6	252.2	239.7	732.8	2398	5954	1128	59.71	4.990	2.984	2.111	1.610	1.219	1.248	1.022	0.850	0.695	0.555	0.507	0.601	0.395	0.411	0.479	0.480	0.337	0.370	0.235	0.209	0.238	0.308	0.183	0.196	0.172	0.144	0.204	0.110	0.069	0.130	0.115	0.137	0.179	0.117	0.145	0.099	0.101	0.135	0.128	0.197	0.337	0.622	1.312	1.779	1.316	0.601	0.892	1.803	3.401	4.972	8.276	19.51	33.86	26.13	13.57	2.079	0.164	0.069	0.033	0.048	0.094	0.022	0.054
280.0	27.64	31.30	28.81	18.93	20.02	32.68	155.4	384.0	202.9	213.2	658.3	3828	6389	807.0	25.21	4.078	2.703	1.910	1.314	1.400	1.021	0.876	0.674	0.710	0.518	0.748	0.504	0.444	0.409	0.423	0.252	0.324	0.318	0.269	0.280	0.246	0.227	0.188	0.208	0.147	0.161	0.190	0.113	0.130	0.162	0.168	0.209	0.181	0.195	0.144	0.126	0.141	0.093	0.113	0.164	0.263	0.521	1.321	2.271	1.691	0.762	0.604	1.048	1.455	2.119	5.365	14.79	30.41	42.11	22.84	7.436	0.657	0.111	0.090	0.059	0.040	0.094
285.0	38.25	49.53	46.24	34.74	22.35	24.36	64.81	287.9	396.8	150.5	225.6	1111	5238	5519	111.6	10.16	3.705	2.674	1.893	1.512	1.132	1.328	0.852	0.749	0.606	0.686	0.567	0.449	0.419	0.341	0.259	0.350	0.298	0.285	0.325	0.238	0.227	0.239	0.176	0.223	0.170	0.178	0.196	0.208	0.212	0.241	0.238	0.234	0.235	0.203	0.216	0.157	0.122	0.127	0.140	0.213	0.270	0.506	1.260	2.325	2.083	0.969	0.602	0.695	0.833	1.650	3.783	8.858	22.72	40.30	30.12	17.86	3.389	0.180	0.120	0.110	0.097
290.0	62.75	94.42	89.22	64.48	43.50	39.62	55.97	131.6	352.6	385.6	208.5	386.3	1505	4308	5026	1422	30.88	3.953	2.849	1.928	1.482	1.326	1.020	0.826	0.629	0.684	0.616	0.485	0.443	0.456	0.364	0.315	0.274	0.318	0.340	0.293	0.270	0.262	0.211	0.217	0.186	0.199	0.231	0.279	0.264	0.266	0.325	0.374	0.364	0.290	0.266	0.240	0.260	0.196	0.215	0.245	0.261	0.327	0.557	0.997	1.714	2.254	2.122	1.634	0.962	1.052	1.475	2.660	5.842	12.00	19.08	31.16	30.99	28.85	11.56	3.059	0.292
295.0	91.31	137.5	134.7	99.43	68.43	63.10	71.42	101.0	186.7	452.0	587.4	335.7	518.7	1105	2847	6046	615.6	33.41	4.239	2.703	2.010	1.588	1.286	0.989	0.850	0.655	0.685	0.645	0.661	0.503	0.437	0.326	0.347	0.349	0.281	0.304	0.274	0.227	0.279	0.216	0.237	0.205	0.178	0.259	0.289	0.346	0.467	0.531	0.497	0.512	0.444	0.343	0.246	0.244	0.318	0.276	0.336	0.442	0.501	0.594	0.930	1.096	1.969	3.138	3.106	1.725	1.421	1.531	2.231	3.532	4.967	7.635	10.46	25.37	46.19	30.19	17.17
300.0	95.86	159.6	171.3	128.9	83.59	74.53	82.01	107.2	160.2	311.2	733.6	548.7	361.3	399.2	781.8	4057	5131	471.4	15.54	3.493	2.718	1.911	1.467	1.123	1.005	0.773	0.608	0.639	0.500	0.559	0.413	0.348	0.363	0.304	0.345	0.294	0.324	0.262	0.275	0.185	0.285	0.190	0.258	0.286	0.306	0.321	0.556	0.600	0.622	0.549	0.428	0.434	0.333	0.352	0.378	0.361	0.495	0.513	0.568	0.732	0.708	0.925	1.319	2.191	3.644	3.838	2.753	1.665	1.538	1.772	1.905	2.399	2.864	6.688	17.38	38.83	56.13
305.0	119.5	172.1	202.5	141.0	98.21	89.65	98.50	125.8	171.3	267.4	550.4	838.9	454.5	281.8	283.5	1131	4964	4299	68.61	6.653	2.983	2.231	1.682	1.526	1.029	0.912	0.714	0.612	0.523	0.518	0.406	0.385	0.456	0.442	0.327	0.344	0.283	0.340	0.285	0.281	0.269	0.227	0.292	0.265	0.331	0.441	0.557	0.653	0.648	0.590	0.583	0.554	0.399	0.443	0.411	0.486	0.607	0.590	0.555	0.710	0.739	0.941	1.083	1.588	2.134	3.432	4.237	3.381	2.132	1.665	1.614	1.380	1.304	2.016	4.340	10.58	26.81
310.0	132.3	187.6	212.3	157.5	112.8	106.8	122.3	148.1	192.4	277.0	408.5	677.4	758.6	390.7	208.4	333.3	1344	3786	4900	1220	21.45	3.487	2.372	1.792	1.278	1.033	0.834	0.687	0.670	0.553	0.491	0.488	0.473	0.374	0.354	0.283	0.302	0.374	0.290	0.255	0.277	0.264	0.250	0.281	0.320	0.462	0.564	0.720	0.749	0.650	0.538	0.577	0.555	0.486	0.469	0.525	0.594	0.612	0.644	0.825	0.845	0.982	1.140	1.507	1.608	2.128	2.837	3.602	3.967	3.374	2.247	1.432	1.142	1.109	1.511	2.819	6.550
315.0	128.5	203.4	231.2	168.5	123.7	114.6	133.6	168.4	209.0	278.4	386.0	491.3	640.3	683.1	281.8	178.3	365.1	904.5	2813	5652	439.9	23.33	3.451	2.432	1.553	1.429	1.077	0.841	0.802	0.612	0.518	0.506	0.484	0.285	0.425	0.399	0.322	0.343	0.301	0.375	0.300	0.254	0.292	0.332	0.436	0.482	0.610	0.731	0.896	0.702	0.563	0.634	0.631	0.504	0.524	0.572	0.605	0.643	0.701	0.888	0.842	1.059	1.271	1.389	1.657	1.770	2.030	2.306	2.816	3.545	3.937	3.219	1.593	1.139	1.010	1.235	2.026
320.0	132.0	218.6	239.5	179.0	136.9	127.6	142.7	177.7	222.9	295.5	381.3	453.9	503.1	669.3	492.5	181.9	164.4	255.1	717.4	3491	5012	348.3	11.31	3.138	1.972	1.620	1.219	0.986	0.900	0.666	0.644	0.500	0.495	0.361	0.410	0.346	0.318	0.328	0.327	0.313	0.248	0.330	0.320	0.310	0.424	0.481	0.621	0.760	0.858	0.730	0.568	0.724	0.584	0.547	0.645	0.473	0.640	0.751	0.736	0.935	0.897	1.165	1.346	1.480	1.711	1.658	1.923	2.030	2.167	2.466	3.272	3.846	3.180	1.766	1.085	1.111	1.023
325.0	133.1	247.7	286.4	214.1	150.3	139.8	157.2	186.1	231.2	303.4	388.4	456.7	462.0	500.3	624.5	303.9	139.5	122.0	202.7	934.5	4138	3284	52.84	5.873	2.574	2.025	1.492	1.091	0.911	0.851	0.657	0.584	0.485	0.383	0.420	0.351	0.374	0.316	0.335	0.317	0.270	0.295	0.323	0.343	0.393	0.575	0.705	0.871	0.994	0.791	0.660	0.682	0.669	0.581	0.656	0.581	0.698	0.774	0.935	0.953	0.865	1.088	1.356	1.488	1.649	1.680	1.947	2.088	2.158	2.298	2.461	2.715	3.391	3.564	2.170	1.230	0.902
330.0	156.5	267.9	326.3	263.4	190.5	163.9	173.5	200.6	244.4	312.6	388.8	454.0	463.5	434.4	463.2	474.9	271.1	124.0	106.0	252.0	1097	2983	3591	1092	18.42	3.070	2.060	1.409	1.266	0.983	0.733	0.677	0.594	0.465	0.406	0.375	0.340	0.308	0.326	0.323	0.289	0.301	0.315	0.338	0.495	0.581	0.850	0.946	1.084	0.953	0.818	0.819	0.825	0.702	0.643	0.651	0.827	0.823	0.894	0.997	1.107	1.225	1.426	1.536	1.717	1.806	1.989	2.121	2.270	2.317	2.240	2.057	2.285	2.711	2.724	2.831	2.112
335.0	157.8	291.6	347.9	303.2	226.6	189.9	196.3	214.9	256.9	321.7	399.0	460.0	469.1	432.1	386.8	368.9	446.6	239.8	114.1	121.7	293.6	713.9	1953	4839	374.3	22.19	2.737	2.030	1.545	1.212	0.844	0.790	0.567	0.514	0.389	0.447	0.435	0.361	0.344	0.347	0.357	0.268	0.314	0.339	0.600	0.599	0.861	1.031	1.322	1.137	0.924	1.032	1.057	0.823	0.737	0.750	0.825	0.861	0.984	1.091	1.007	1.313	1.453	1.535	1.745	1.804	1.995	2.085	2.158	2.147	2.113	2.034	2.238	2.086	2.045	2.307	3.264
340.0	161.3	295.6	382.4	336.6	262.6	216.9	216.0	228.7	271.2	331.7	399.1	464.5	471.8	442.2	380.9	323.1	385.4	396.7	170.7	110.4	131.0	207.7	508.5	2854	4438	327.5	11.48	2.867	1.852	1.616	1.045	0.715	0.651	0.476	0.446	0.430	0.409	0.363	0.323	0.292	0.362	0.334	0.319	0.353	0.623	0.652	0.841	1.111	1.322	1.133	1.104	1.157	1.116	0.895	0.913	0.911	0.956	0.957	1.090	1.254	1.148	1.414	1.421	1.650	1.818	1.930	2.133	2.050	2.474	2.215	2.108	2.273	2.181	2.004	1.830	2.008	2.287
345.0	166.5	302.9	388.9	358.2	291.1	248.4	241.1	250.4	281.8	335.8	408.5	457.4	476.4	450.3	392.4	326.1	308.3	410.7	301.1	141.2	115.8	114.1	162.0	764.4	3384	2909	251.8	5.657	2.537	1.812	1.268	0.927	0.742	0.551	0.592	0.435	0.455	0.348	0.306	0.278	0.334	0.364	0.386	0.466	0.528	0.657	0.818	1.065	1.233	1.275	1.090	1.217	1.313	1.077	1.054	1.091	0.949	1.102	1.112	1.120	1.171	1.441	1.516	1.590	1.753	1.726	1.916	1.999	2.294	2.237	2.207	2.157	2.100	2.118	2.045	1.762	1.836
350.0	164.8	294.4	385.3	380.5	325.5	294.4	275.8	274.9	302.7	348.5	409.9	456.8	468.9	454.5	411.0	347.6	306.5	318.8	372.3	284.4	159.6	123.7	110.7	222.9	892.9	2383	3019	1030	17.70	2.940	1.661	1.247	0.942	0.687	0.670	0.445	0.481	0.439	0.378	0.294	0.367	0.325	0.278	0.427	0.598	0.650	0.830	1.130	1.328	1.318	1.206	1.284	1.394	1.256	1.161	1.145	1.115	1.159	1.227	1.185	1.336	1.328	1.459	1.660	1.736	1.961	2.001	2.114	2.248	2.214	2.241	2.281	2.143	2.175	2.041	2.023	2.002
355.0	157.5	299.6	379.7	410.4	370.9	336.9	325.5	310.4	334.1	366.7	417.9	463.2	473.7	467.5	432.1	378.3	339.8	311.6	311.7	376.2	292.2	168.8	128.5	127.2	252.5	573.8	1445	3854	1551	23.06	2.915	1.716	1.262	0.798	0.739	0.466	0.569	0.432	0.475	0.394	0.362	0.411	0.339	0.448	0.573	0.727	0.810	1.138	1.282	1.309	1.260	1.364	1.528	1.340	1.258	1.499	1.417	1.397	1.359	1.402	1.473	1.705	1.670	1.686	1.799	1.824	2.157	1.914	2.096	2.455	2.308	2.253	2.137	2.162	2.047	2.209	2.257
360.0	153.8	297.9	387.8	411.3	392.0	371.9	355.9	353.8	363.6	393.4	435.0	461.6	482.9	475.0	442.8	403.5	364.1	335.4	313.2	336.6	387.1	243.8	158.4	127.5	126.1	175.3	373.7	2074	4048	325.9	14.06	2.483	1.645	1.086	0.859	0.564	0.582	0.458	0.341	0.446	0.389	0.416	0.430	0.471	0.654	0.760	0.922	1.158	1.229	1.276	1.381	1.321	1.579	1.539	1.477	1.567	1.586	1.432	1.492	1.517	1.591	1.627	1.747	1.793	1.990	1.879	2.153	2.008	2.183	2.275	2.316	2.412	2.582	2.443	2.161	2.236	2.210
365.0	162.0	284.0	398.6	430.9	412.5	397.6	380.2	374.4	387.0	414.8	445.3	476.0	487.6	480.3	456.7	421.1	385.4	362.4	328.9	320.1	375.4	351.8	206.5	147.1	116.4	99.58	125.3	545.3	2681	2768	268.2	6.278	1.990	1.549	1.038	0.790	0.540	0.535	0.460	0.495	0.374	0.362	0.395	0.531	0.538	0.796	0.929	1.189	1.181	1.249	1.391	1.536	1.526	1.590	1.651	1.499	1.816	1.647	1.569	1.679	1.610	1.816	1.818	1.865	1.925	2.159	2.120	2.282	2.087	2.241	2.271	2.447	2.525	2.599	2.337	2.218	2.427
370.0	163.7	289.3	391.8	435.3	443.1	431.6	419.2	410.8	419.3	445.3	465.7	484.9	492.0	490.5	465.4	438.3	414.8	392.5	367.1	341.8	340.1	369.0	323.4	203.7	142.2	107.9	89.87	164.3	691.8	1972	2741	1038	17.68	2.280	1.474	0.876	0.762	0.534	0.526	0.377	0.497	0.444	0.440	0.503	0.549	0.738	0.961	1.129	1.265	1.307	1.333	1.603	1.689	1.704	1.711	1.637	1.903	1.795	1.721	1.717	1.798	1.913	1.934	1.962	2.095	2.091	2.105	2.122	2.170	2.365	2.257	2.459	2.520	2.457	2.505	2.408	2.630
375.0	174.5	285.1	399.2	447.0	471.3	463.2	453.4	440.5	444.3	465.5	483.1	491.0	498.4	489.3	472.3	449.6	436.1	416.1	396.4	369.1	350.5	332.4	355.3	314.1	189.7	135.0	103.1	97.49	196.4	471.9	1150	3389	1563	23.53	2.291	1.317	0.978	0.603	0.691	0.476	0.491	0.491	0.433	0.630	0.563	0.719	0.987	1.165	1.281	1.314	1.373	1.768	1.853	1.797	1.768	1.897	1.802	1.968	1.792	1.866	1.915	2.070	2.063	1.949	2.128	2.033	2.104	2.135	2.290	2.293	2.348	2.294	2.568	2.572	2.488	2.653	2.712
380.0	171.2	280.2	406.0	466.9	474.6	476.2	474.0	467.9	455.4	476.0	490.1	495.9	503.2	487.9	478.3	460.8	444.5	431.9	412.5	387.7	363.4	336.8	327.8	358.9	261.2	162.3	123.5	97.30	97.68	142.0	292.7	1622	3417	295.2	14.86	1.954	1.210	0.782	0.733	0.609	0.554	0.564	0.492	0.563	0.655	0.787	0.902	1.089	1.363	1.299	1.353	1.723	1.973	1.812	1.734	1.889	1.987	1.849	1.995	1.910	2.066	1.977	2.070	1.848	2.163	2.141	2.053	2.161	2.278	2.414	2.387	2.446	2.607	2.463	2.610	2.655	2.813
385.0	167.3	290.1	399.8	462.5	473.8	485.1	489.8	472.0	475.3	480.1	493.2	505.6	504.2	491.0	474.4	462.6	444.7	437.0	420.4	401.7	377.9	349.9	320.7	327.7	326.1	208.1	145.1	111.0	89.17	79.05	99.16	414.6	1967	2384	246.0	7.082	1.736	1.066	0.869	0.612	0.566	0.516	0.534	0.526	0.578	0.805	0.808	1.114	1.289	1.456	1.467	1.732	1.993	1.811	1.907	1.847	1.905	1.887	1.975	2.015	2.055	1.885	2.084	1.945	2.078	2.026	1.988	2.193	2.187	2.255	2.407	2.612	2.471	2.516	2.545	2.679	2.881
390.0	169.3	290.5	405.4	465.7	495.2	500.8	502.3	493.3	482.9	487.1	496.4	499.9	497.1	484.7	474.0	456.1	442.8	438.7	424.5	409.8	386.8	363.6	329.4	307.8	309.2	283.4	194.6	137.9	108.0	84.16	68.88	124.4	492.5	1412	2109	879.8	15.93	1.826	1.106	0.827	0.659	0.500	0.532	0.592	0.582	0.845	0.855	1.135	1.367	1.354	1.504	1.778	1.888	2.015	1.959	1.952	2.033	2.086	2.091	2.134	2.127	2.029	2.145	2.193	2.098	1.989	2.060	2.150	2.229	2.273	2.370	2.291	2.551	2.604	2.686	2.696	2.636
395.0	172.6	301.9	401.3	476.9	499.6	509.9	511.5	499.1	491.1	492.4	496.3	495.3	483.5	480.0	464.1	446.8	437.9	432.2	423.4	411.2	389.3	370.1	343.0	314.6	289.1	282.5	271.3	181.8	134.0	104.3	78.92	72.56	139.4	336.2	760.1	2345	1370	21.68	1.940	1.132	0.862	0.810	0.631	0.684	0.682	0.767	1.017	1.282	1.322	1.280	1.521	1.702	1.895	1.909	1.829	2.035	2.191	2.020	2.124	2.207	2.096	2.110	2.113	2.074	2.028	1.975	2.135	2.135	2.255	2.280	2.483	2.299	2.420	2.523	2.692	2.723	2.680
400.0	173.4	295.0	401.2	456.1	508.8	517.1	515.4	498.3	494.4	492.9	495.8	489.9	478.8	472.5	456.5	442.9	429.1	426.7	421.9	403.0	389.6	373.3	348.3	323.3	289.8	268.9	283.9	237.1	160.0	122.5	92.27	69.81	68.05	100.1	191.1	987.6	2513	256.9	14.48	1.668	1.046	0.833	0.712	0.569	0.735	0.666	0.978	1.194	1.328	1.266	1.503	1.786	1.988	1.966	2.017	2.113	2.189	2.212	2.121	2.128	2.230	1.976	2.079	2.076	2.175	2.077	2.089	2.084	2.038	2.103	2.296	2.196	2.505	2.442	2.382	2.562	2.454
405.0	178.6	287.0	392.2	463.2	498.4	519.9	518.4	508.9	497.3	492.3	493.9	487.7	479.5	466.2	449.7	432.6	422.4	421.7	414.1	401.3	388.3	373.0	351.5	327.0	296.8	268.5	261.9	270.5	198.1	139.4	107.0	79.55	59.95	53.70	63.70	246.4	1248	2049	227.1	8.150	1.404	1.019	0.862	0.724	0.766	0.818	0.910	1.188	1.433	1.339	1.443	1.814	1.944	1.895	1.970	1.979	2.135	2.198	2.241	2.148	2.147	2.206	1.999	2.107	2.052	2.156	2.057	1.947	2.029	2.254	2.170	2.279	2.356	2.233	2.447	2.580	2.566
410.0	171.7	279.5	384.5	457.0	489.7	503.6	515.2	509.2	496.7	493.7	492.2	485.4	472.1	455.4	434.0	418.3	409.6	406.0	397.6	385.8	379.4	364.5	346.8	327.8	299.4	274.0	250.0	248.7	244.0	182.6	127.3	94.73	68.98	52.30	42.21	74.58	305.7	996.4	1640	859.1	16.10	1.616	1.054	0.926	0.831	0.912	0.929	1.192	1.359	1.399	1.472	1.751	1.946	1.906	1.962	2.020	2.133	2.104	2.162	2.196	2.168	2.232	2.140	2.098	2.048	2.051	2.005	1.987	2.052	2.206	2.111	2.386	2.218	2.405	2.303	2.343	2.598
415.0	168.2	284.6	371.2	440.4	480.3	502.7	509.9	509.4	497.3	488.2	488.6	470.8	456.4	443.6	418.0	400.5	389.4	387.2	381.8	371.1	362.8	353.5	338.5	321.5	301.6	277.5	254.6	234.1	231.9	229.4	164.4	110.9	82.30	61.83	45.89	41.56	85.75	234.8	526.4	1666	1205	22.20	1.721	1.245	1.018	0.979	1.018	1.148	1.368	1.369	1.472	1.803	1.841	1.824	1.884	1.949	2.070	2.044	2.387	2.293	2.023	2.099	2.112	2.124	1.967	2.028	2.032	2.078	1.960	2.010	2.144	2.121	2.186	2.263	2.284	2.002	2.449
420.0	156.5	267.6	370.5	435.8	472.1	487.6	503.3	498.8	492.0	483.3	480.6	461.7	446.1	420.1	405.7	384.7	375.0	369.8	361.5	356.5	351.0	341.2	330.5	316.2	299.3	277.0	254.2	232.6	219.4	226.3	199.6	127.1	93.05	68.76	50.94	38.68	40.00	67.10	129.5	631.0	1895	828.5	15.44	1.741	1.086	1.055	1.052	1.198	1.116	1.324	1.419	1.629	1.864	1.896	1.836	1.957	2.031	2.119	2.181	2.223	2.115	2.102	2.010	1.923	1.971	1.891	2.013	1.935	2.055	2.123	2.077	2.157	2.039	2.143	2.119	2.215	2.398
425.0	161.7	262.7	364.4	427.7	466.6	478.6	493.9	493.0	487.8	478.9	469.5	449.7	434.0	411.2	391.4	372.4	362.7	353.9	348.2	345.9	336.2	326.1	323.4	308.2	293.4	271.9	254.9	232.8	215.0	207.6	211.9	155.9	102.9	75.20	56.60	42.03	34.05	31.62	40.72	154.3	842.4	1817	221.6	9.307	1.522	1.237	1.151	1.222	1.151	1.332	1.371	1.626	1.760	1.736	1.917	1.839	1.962	2.124	1.960	1.978	2.092	2.109	2.173	1.954	2.085	1.838	1.888	1.971	1.876	2.031	1.810	2.022	1.979	2.082	2.052	2.154	2.261
430.0	199.6	254.6	352.8	415.2	441.5	468.1	485.5	491.8	485.0	471.6	466.3	440.9	420.8	397.4	377.9	354.2	340.3	334.4	328.3	323.1	319.8	314.8	305.7	296.9	286.5	267.6	250.9	234.9	217.9	199.4	190.8	178.1	131.1	88.76	65.72	49.41	37.99	29.17	24.89	46.22	203.1	757.5	1313	790.0	15.55	2.052	1.433	1.309	1.250	1.253	1.346	1.539	1.830	1.813	1.930	1.810	2.015	1.937	2.042	2.065	2.010	2.062	2.046	1.896	1.982	1.970	1.847	1.970	1.848	1.898	1.850	2.025	1.947	1.914	1.930	2.027	1.919
435.0	273.1	250.4	331.9	409.0	429.3	461.1	464.7	486.9	479.8	468.3	459.4	438.0	406.7	383.7	356.9	335.2	321.5	315.5	311.9	303.5	303.2	298.6	291.7	285.7	274.9	262.7	246.2	234.5	218.2	199.7	180.5	165.0	154.2	112.0	76.08	57.06	45.22	34.51	25.76	25.61	56.63	177.4	393.9	1421	1188	21.79	2.135	1.629	1.408	1.289	1.317	1.512	1.666	1.740	1.581	1.729	1.929	2.002	1.975	2.201	2.160	2.048	2.040	1.924	1.815	1.939	1.741	1.979	1.846	1.587	1.846	1.830	1.916	1.719	1.997	1.866	1.970
440.0	397.6	300.8	330.6	387.1	417.2	442.9	456.5	473.8	472.8	458.6	458.0	433.1	400.3	375.3	347.7	319.4	310.7	300.6	300.5	290.0	288.9	288.0	281.3	277.1	264.8	256.3	241.7	230.4	217.2	199.5	179.7	156.9	151.3	133.7	88.79	63.54	50.33	37.79	29.54	23.87	25.88	49.50	97.12	524.2	1769	839.6	14.13	2.040	1.608	1.425	1.221	1.560	1.532	1.685	1.754	1.790	2.059	1.914	1.925	1.930	1.979	1.907	2.057	1.757	1.822	1.673	1.701	1.884	1.671	1.738	1.823	1.747	1.713	1.772	1.873	1.674	1.839
445.0	403.6	447.1	321.0	372.4	401.3	424.7	450.8	464.2	466.5	454.6	443.2	422.9	388.8	362.8	337.5	307.8	298.2	292.1	284.7	276.3	275.8	272.2	268.7	264.8	254.5	246.0	235.7	225.9	213.1	198.2	179.5	154.5	139.0	136.9	106.5	70.28	53.66	41.25	33.13	26.26	20.79	22.38	30.92	127.4	768.1	1772	192.6	8.944	1.794	1.545	1.305	1.559	1.560	1.794	1.702	1.756	1.957	1.807	1.854	1.846	1.890	1.844	1.905	1.796	1.914	1.722	1.817	1.747	1.612	1.730	1.820	1.747	1.882	1.600	1.949	1.674	1.899
450.0	248.3	728.2	457.3	354.9	380.2	401.4	423.3	442.5	443.1	442.0	424.9	403.5	368.3	342.9	314.7	289.7	276.7	270.9	262.3	258.3	257.1	252.0	250.5	245.7	240.7	233.0	224.1	215.7	205.7	193.8	176.4	152.9	131.4	119.7	115.0	87.24	60.59	46.67	37.08	29.35	23.15	19.66	18.17	37.09	183.4	730.1	1224	652.6	12.76	1.929	1.456	1.596	1.631	1.672	1.730	1.720	1.811	1.835	1.707	1.743	1.730	1.861	1.889	1.700	1.878	1.739	1.694	1.660	1.609	1.633	1.668	1.598	1.672	1.543	1.683	1.729	1.753
455.0	148.9	624.3	880.3	357.2	360.6	378.6	398.8	415.5	422.0	410.3	407.3	383.4	351.1	317.9	292.4	266.1	253.3	247.5	239.6	237.3	234.1	230.1	229.8	226.4	221.8	214.6	208.2	202.5	196.3	182.8	168.1	148.4	127.9	110.7	101.2	99.26	75.27	51.99	40.82	32.86	26.36	21.39	17.54	18.71	48.77	168.9	369.4	1149	808.9	15.33	1.797	1.687	1.555	1.618	1.618	1.528	1.632	1.672	1.707	1.741	1.664	1.963	1.655	1.619	1.607	1.727	1.745	1.628	1.583	1.529	1.534	1.446	1.680	1.403	1.545	1.512	1.601
460.0	115.8	370.9	1258	543.6	330.9	357.2	377.6	395.9	404.7	393.2	387.9	364.6	334.3	302.1	272.9	250.5	238.2	230.1	224.9	217.9	214.7	211.8	211.7	210.4	206.4	200.0	194.7	188.2	185.0	176.5	164.2	142.9	124.3	107.1	93.13	92.04	84.55	59.15	43.03	35.18	29.19	23.12	18.78	15.72	20.03	44.68	88.91	430.4	1266	519.8	9.737	1.997	1.555	1.506	1.495	1.455	1.599	1.663	1.754	1.833	1.711	1.767	1.684	1.646	1.741	1.384	1.485	1.480	1.407	1.460	1.353	1.360	1.458	1.413	1.585	1.468	1.446
465.0	107.3	224.8	1135	980.3	330.8	335.2	354.4	370.6	379.5	382.1	363.9	346.6	314.0	288.9	261.9	235.5	220.3	216.6	210.3	201.6	199.7	199.3	197.5	196.6	192.8	186.9	181.1	179.2	174.3	166.0	157.4	138.9	120.8	103.8	89.80	82.18	82.45	66.74	46.31	36.58	30.46	24.39	19.95	16.32	14.82	17.69	25.98	103.7	581.2	1177	145.1	5.534	1.814	1.664	1.537	1.557	1.556	1.552	1.712	1.627	1.509	1.710	1.577	1.664	1.591	1.408	1.464	1.459	1.299	1.344	1.339	1.317	1.274	1.318	1.386	1.290	1.445
470.0	120.3	168.7	579.6	1443	610.7	312.9	328.1	344.2	347.0	347.8	340.1	321.4	290.1	263.8	236.7	215.8	201.9	195.7	188.5	183.8	178.4	179.0	177.7	175.8	173.0	169.3	165.1	162.4	160.5	153.3	145.4	128.9	114.6	98.87	85.79	75.69	71.32	69.56	55.14	39.01	31.27	25.72	21.11	17.79	14.44	12.70	12.80	28.75	139.2	522.1	788.1	391.2	11.67	1.893	1.643	1.431	1.458	1.327	1.566	1.506	1.581	1.531	1.598	1.538	1.517	1.344	1.379	1.406	1.241	1.312	1.171	1.188	1.303	1.304	1.244	1.240	1.213
475.0	116.7	158.0	288.5	1053	1337	330.3	302.6	312.4	318.3	319.8	310.5	293.2	267.9	241.5	212.4	197.9	182.4	174.2	168.0	163.7	159.3	159.0	158.5	154.4	155.3	150.6	149.3	147.2	144.2	140.8	133.2	118.6	105.7	93.15	81.65	71.33	62.96	60.00	58.97	46.26	32.09	26.74	21.81	18.48	15.57	12.46	10.14	12.45	35.98	120.6	248.6	786.0	512.6	14.90	1.870	1.503	1.367	1.310	1.324	1.482	1.380	1.562	1.358	1.291	1.253	1.225	1.253	1.282	1.172	1.256	1.223	1.115	1.137	1.080	1.091	1.206	1.048
480.0	112.4	155.3	204.9	537.0	1734	467.8	278.6	292.8	296.6	297.6	293.5	276.1	247.4	225.5	197.0	183.5	170.2	159.5	154.4	151.7	149.3	144.8	144.3	143.3	141.9	139.2	137.5	135.9	133.8	131.4	125.5	112.0	100.0	89.11	77.59	68.49	59.39	53.76	55.28	51.34	35.72	27.21	22.91	19.82	16.19	13.61	11.02	9.486	13.04	31.12	59.70	310.9	922.6	182.1	8.657	1.680	1.588	1.281	1.299	1.319	1.336	1.362	1.384	1.167	1.283	1.277	1.177	1.088	1.169	1.164	1.036	1.095	1.044	0.890	1.032	0.979	1.092
485.0	93.02	160.5	177.0	292.9	1403	1047	278.2	276.7	281.2	278.4	279.1	263.3	235.9	212.9	189.0	171.0	157.9	149.1	145.4	140.6	137.8	134.5	132.6	134.4	130.6	129.8	127.4	128.1	127.2	122.8	118.5	107.7	97.39	85.41	74.80	66.10	57.48	51.06	49.33	51.10	41.52	29.88	23.33	20.02	16.89	14.54	11.68	9.820	8.639	11.65	17.47	75.93	482.3	873.6	144.2	3.436	1.449	1.295	1.301	1.286	1.235	1.326	1.353	1.228	1.154	1.286	1.097	1.051	1.070	1.064	1.108	1.044	1.042	1.060	0.948	1.089	1.058
490.0	74.60	157.4	178.5	214.4	660.4	1559	527.9	256.3	261.6	263.3	257.0	246.6	224.2	197.8	177.7	156.8	146.6	139.6	133.5	128.9	125.5	123.5	121.8	121.6	118.8	117.5	116.3	115.8	116.2	113.9	109.1	100.5	90.58	79.94	71.43	62.62	55.20	49.26	44.77	43.60	43.65	33.83	25.35	21.06	17.77	14.71	12.46	10.11	8.251	7.681	7.905	20.51	116.9	426.0	739.1	333.2	10.77	1.608	1.351	1.347	1.197	1.234	1.324	1.208	1.098	1.136	1.094	0.995	1.118	1.064	0.898	0.980	1.031	1.057	0.893	0.902	1.015
495.0	69.92	133.5	192.9	178.2	292.9	1108	1268	266.2	241.4	245.8	234.9	226.9	200.5	181.4	159.3	143.4	132.9	122.7	120.4	114.7	112.2	111.9	108.4	108.7	107.1	105.0	105.2	104.7	104.3	102.6	98.55	91.66	81.78	73.26	66.81	58.14	52.68	47.24	41.64	37.27	36.50	38.46	28.75	21.60	18.00	15.20	12.71	10.54	8.842	7.417	6.260	8.451	29.24	97.95	274.2	812.8	206.6	12.18	1.460	1.264	1.204	1.276	1.354	1.116	0.996	0.956	1.011	0.981	0.991	0.934	0.802	0.869	0.887	0.915	0.969	0.839	0.837
500.0	58.50	107.3	193.4	174.5	199.9	557.7	1679	350.8	225.6	223.4	216.6	210.6	187.7	166.6	146.0	132.7	124.2	114.4	108.0	103.5	102.9	101.5	98.82	97.68	98.11	95.79	95.70	95.68	94.52	93.82	89.62	83.83	75.98	68.74	62.33	54.89	49.95	44.07	38.91	34.75	32.43	35.66	32.54	22.90	17.86	15.44	12.85	10.65	9.096	7.323	6.038	5.637	9.786	24.88	65.33	362.7	815.7	174.6	5.299	1.403	1.160	1.228	1.118	0.919	0.895	0.862	0.943	0.867	0.950	0.777	0.776	0.814	0.716	0.770	0.758	0.730	0.776
505.0	53.76	88.19	173.4	177.2	176.3	272.5	1473	840.6	211.5	206.2	203.4	195.0	171.6	153.8	135.5	123.0	110.6	104.1	98.65	95.34	94.82	90.44	89.67	88.91	89.00	86.01	86.05	85.93	87.11	86.50	82.89	77.42	70.93	64.73	56.30	51.85	46.62	41.37	37.41	33.32	29.58	30.91	32.18	25.89	18.49	15.31	12.77	11.12	9.403	7.745	6.220	5.153	5.607	8.380	17.29	88.91	485.8	730.2	27.72	1.924	1.067	1.070	1.028	0.894	0.908	0.894	0.863	0.798	0.782	0.671	0.756	0.781	0.729	0.701	0.633	0.681	0.804
510.0	46.56	80.38	134.5	185.3	156.9	179.1	688.8	1433	396.5	183.2	180.3	172.9	154.2	137.4	121.9	107.9	100.9	91.68	88.01	84.71	82.26	80.39	78.18	77.64	76.85	75.60	75.54	76.04	75.35	75.27	73.92	67.53	63.48	56.81	50.69	46.61	41.83	37.66	33.98	30.44	27.07	26.10	26.48	26.72	20.61	15.28	12.62	10.55	9.093	7.638	6.414	5.385	4.645	4.826	6.384	22.21	119.9	401.8	534.7	115.6	8.367	1.103	0.972	0.890	0.850	0.795	0.731	0.764	0.772	0.676	0.675	0.654	0.620	0.643	0.567	0.606	0.638
515.0	42.59	67.48	98.94	163.7	158.4	139.2	267.7	1148	1040	179.6	159.5	148.3	136.5	119.3	105.6	93.50	85.80	81.23	76.52	72.65	70.48	70.39	67.94	67.80	66.56	65.42	65.30	65.20	64.65	65.50	63.13	58.31	55.35	50.16	45.74	40.86	36.98	33.79	30.59	26.97	24.53	22.59	21.35	23.01	22.90	16.34	12.01	10.42	8.583	7.335	6.282	5.408	4.643	4.120	3.936	7.218	28.77	91.80	221.2	565.7	179.8	7.370	1.119	0.890	0.839	0.757	0.732	0.677	0.632	0.690	0.539	0.750	0.526	0.534	0.529	0.628	0.593
520.0	37.39	59.91	81.09	132.1	166.4	126.7	157.6	581.3	1516	248.9	144.8	132.1	122.8	109.0	95.84	85.12	77.44	72.33	67.49	65.62	63.09	61.58	60.34	59.23	58.66	58.99	57.86	56.20	57.19	58.32	55.52	52.85	49.58	44.98	41.18	36.77	33.41	30.94	27.66	24.94	22.93	20.16	18.62	19.17	21.26	18.35	12.99	10.20	8.290	6.827	6.264	5.454	4.662	4.045	3.473	3.980	8.433	22.36	52.97	293.2	554.6	126.1	2.495	0.945	0.837	0.740	0.659	0.551	0.602	0.509	0.450	0.558	0.586	0.490	0.487	0.499	0.516
525.0	35.15	53.15	77.81	100.5	155.5	122.0	127.2	246.7	1423	660.0	132.2	123.1	110.6	98.32	87.43	76.85	69.05	64.59	61.39	59.03	56.98	54.58	54.37	53.49	52.14	51.74	51.86	51.30	53.02	51.36	50.54	47.95	44.37	40.58	36.88	32.88	30.85	28.38	25.55	23.43	21.16	18.57	17.10	16.86	17.65	18.20	13.81	9.818	7.782	6.602	5.657	4.973	4.722	4.134	3.233	3.078	3.982	6.700	13.54	73.78	363.7	466.2	24.54	1.412	0.787	0.659	0.684	0.628	0.588	0.492	0.450	0.519	0.495	0.399	0.477	0.477	0.452
530.0	27.81	47.84	68.57	79.15	127.6	137.4	108.1	137.5	682.9	1316	268.5	107.9	96.69	86.74	77.13	66.60	60.39	56.10	53.49	51.35	49.41	47.48	46.82	46.52	45.14	45.00	44.41	44.96	45.51	45.32	43.84	41.75	38.23	35.45	31.92	29.12	27.44	24.90	22.71	20.48	18.64	17.27	15.51	14.61	14.23	15.71	14.30	10.73	7.562	6.262	5.347	4.825	4.522	4.010	3.280	2.979	2.780	3.224	4.483	17.85	91.70	284.2	296.4	103.0	5.907	0.652	0.618	0.546	0.479	0.438	0.439	0.496	0.427	0.354	0.429	0.393	0.381
535.0	25.02	40.13	57.67	67.88	86.98	137.6	104.0	100.2	228.9	1170	843.5	103.6	82.14	73.97	67.11	56.45	51.52	49.47	46.13	44.86	42.10	40.64	40.35	40.05	38.74	38.61	38.36	37.71	38.53	38.36	37.87	35.66	32.65	30.64	27.68	25.75	23.57	21.27	19.75	18.05	16.39	14.88	14.15	12.97	12.06	11.98	12.66	11.63	8.174	5.951	5.201	4.251	4.100	3.770	3.590	3.097	2.576	2.475	2.497	5.373	21.63	65.08	148.8	400.7	149.3	3.756	0.696	0.534	0.482	0.498	0.359	0.327	0.403	0.309	0.420	0.366	0.373
540.0	21.62	36.53	48.58	62.08	72.21	123.8	111.0	86.94	119.6	602.9	1393	168.3	75.97	66.99	58.87	51.66	47.76	43.70	40.72	39.56	38.20	35.76	35.64	34.19	34.15	34.62	33.48	33.38	33.25	34.54	33.70	31.40	29.15	27.07	24.81	23.07	20.73	19.35	17.81	16.80	14.77	13.59	12.64	11.79	10.48	10.28	10.49	11.35	9.216	6.147	4.898	4.193	3.866	3.403	3.197	3.018	2.517	2.040	1.976	2.398	5.990	15.49	36.35	220.1	405.0	27.36	1.530	0.463	0.459	0.318	0.386	0.355	0.361	0.304	0.381	0.309	0.338
545.0	20.65	34.43	46.82	55.96	63.58	97.60	126.0	79.70	89.16	232.0	1426	491.7	70.47	62.35	53.62	47.46	41.66	39.83	35.83	34.85	34.39	31.77	32.08	30.67	31.02	30.73	30.29	30.37	29.41	30.27	30.32	28.26	26.13	24.76	22.61	20.39	19.24	17.49	16.03	15.22	13.93	12.68	11.67	10.73	9.824	9.467	8.577	9.633	9.702	6.551	4.629	4.222	3.817	3.444	2.988	2.874	2.521	2.003	1.786	1.671	2.362	4.542	9.051	56.54	278.4	225.3	21.51	0.750	0.467	0.413	0.314	0.382	0.309	0.354	0.281	0.273	0.364
550.0	20.03	29.27	40.75	45.69	48.62	66.05	116.1	82.53	74.36	109.3	698.1	1189	125.5	53.59	47.68	40.18	37.54	34.20	31.82	30.22	28.97	28.36	27.61	27.19	26.79	25.93	26.04	26.46	25.98	26.09	25.93	24.38	22.67	21.26	19.27	17.70	16.51	15.60	14.16	13.09	12.34	10.98	10.23	9.568	8.728	7.981	7.363	7.450	8.359	7.247	5.032	3.859	3.412	3.003	2.751	2.493	2.706	2.174	1.736	1.508	1.565	1.859	2.879	13.28	70.93	184.2	235.1	91.43	3.748	0.457	0.342	0.312	0.274	0.266	0.309	0.263	0.308
555.0	18.49	26.76	36.32	41.05	45.10	52.46	88.25	102.4	62.91	70.99	212.5	1172	626.1	49.84	41.02	34.41	31.73	29.43	26.47	25.92	24.15	23.73	22.84	23.49	22.91	22.16	22.00	22.41	21.89	21.96	21.86	20.94	18.98	17.87	16.45	15.18	14.32	13.65	12.27	11.67	10.25	9.524	8.415	8.411	7.788	6.829	6.487	5.966	6.111	6.703	5.902	4.110	2.930	2.508	2.477	2.358	2.317	2.115	1.921	1.378	1.357	1.324	1.393	3.620	16.46	42.23	116.0	327.5	29.21	2.509	0.327	0.310	0.303	0.254	0.268	0.186	0.274
560.0	14.88	25.87	28.29	35.31	42.42	44.77	61.52	111.3	61.13	58.87	92.83	620.3	1166	93.27	35.78	31.79	28.25	25.79	23.81	22.17	21.92	20.28	20.33	19.74	19.67	19.38	19.59	19.31	19.89	19.44	18.97	18.15	16.59	15.84	14.60	13.74	12.59	11.74	10.94	10.31	9.330	8.431	7.936	7.267	6.872	6.208	5.672	5.208	4.901	5.398	5.921	4.451	2.857	2.388	2.462	2.163	2.073	1.833	1.937	1.378	1.284	1.042	1.038	1.427	4.209	10.02	28.49	185.2	230.6	25.67	0.907	0.373	0.304	0.227	0.201	0.221	0.173
565.0	11.65	24.21	26.53	33.26	35.83	40.33	46.49	100.1	68.86	51.47	60.73	220.7	1293	299.3	32.23	27.02	25.87	22.51	20.93	19.21	19.14	18.44	18.17	17.68	16.89	17.08	16.90	16.49	17.34	16.89	16.32	16.08	14.49	13.90	12.80	11.51	11.03	10.47	9.368	8.694	8.292	7.789	7.189	6.501	6.016	5.798	5.134	4.634	4.266	4.392	5.306	4.642	3.200	2.407	2.335	1.992	1.721	1.609	1.807	1.548	1.251	1.040	0.886	0.888	1.603	2.828	6.867	47.38	180.1	206.3	18.27	0.495	0.295	0.207	0.199	0.138	0.283
570.0	10.17	20.60	25.07	29.60	31.28	32.82	36.33	67.44	85.54	49.75	50.13	82.90	643.9	887.9	68.08	22.77	21.20	19.27	17.36	16.01	16.17	15.10	14.64	14.97	14.24	13.76	13.83	13.57	13.33	13.85	13.83	12.91	12.07	11.14	10.54	9.615	8.902	8.545	7.956	7.273	6.817	6.208	5.929	5.467	5.095	4.691	4.390	3.983	3.447	3.279	3.579	4.066	3.495	2.348	1.989	1.696	1.496	1.404	1.426	1.438	1.360	0.994	0.848	0.758	0.875	1.083	1.989	11.05	46.27	138.0	162.7	54.41	2.176	0.287	0.206	0.180	0.191
575.0	15.20	19.42	24.98	21.11	25.28	26.61	28.12	37.89	80.40	59.23	40.00	49.24	179.1	958.6	394.9	20.37	17.54	14.75	13.88	12.97	12.16	11.59	11.48	11.56	10.78	11.13	10.51	10.22	10.55	10.66	10.44	9.964	9.114	8.505	8.299	7.216	7.061	6.549	6.184	5.684	5.448	4.921	4.630	4.127	3.997	3.947	3.492	3.189	2.741	2.614	2.446	2.980	3.152	2.424	1.886	1.477	1.407	1.121	1.038	1.181	1.140	1.209	0.849	0.685	0.710	0.588	0.946	2.904	10.72	31.45	75.75	173.7	27.81	1.419	0.215	0.188	0.180
580.0	15.23	18.00	20.84	18.51	23.89	21.85	23.73	29.19	62.40	72.86	39.15	40.68	65.17	507.6	835.1	43.49	13.66	12.25	10.80	10.86	10.10	9.914	8.969	9.316	8.672	9.236	8.489	8.324	8.310	8.874	8.316	8.121	7.465	6.777	6.883	5.630	5.853	5.369	4.963	4.870	4.529	4.084	3.861	3.311	3.387	3.093	2.836	2.589	2.297	2.039	1.920	1.914	2.415	2.674	1.869	1.332	1.107	1.018	1.044	0.882	0.907	1.087	0.918	0.660	0.619	0.498	0.618	1.159	2.742	7.343	18.32	95.79	143.8	21.58	0.588	0.209	0.098
585.0	12.70	19.36	17.78	18.67	19.87	19.54	20.20	21.87	40.86	81.22	41.80	37.29	38.22	169.4	1004	99.30	12.04	9.825	9.410	8.822	8.582	7.778	7.782	7.389	7.136	7.645	7.414	6.848	6.988	7.492	6.938	6.683	6.286	5.676	5.513	5.085	4.729	4.835	3.883	3.971	3.851	3.274	3.109	2.874	2.677	2.561	2.302	2.165	1.826	1.736	1.643	1.480	1.825	2.167	1.822	1.302	0.939	0.908	0.863	0.766	0.689	0.720	0.932	0.698	0.592	0.413	0.462	0.632	0.903	1.945	4.442	24.59	101.5	110.4	13.65	0.285	0.174
590.0	12.15	16.33	19.20	16.48	16.60	15.53	17.98	18.84	28.23	67.81	56.23	34.37	31.59	55.46	516.9	585.9	36.23	8.113	7.457	7.133	6.614	6.289	6.248	5.737	5.458	5.358	5.493	5.485	5.533	5.309	5.396	5.062	4.872	4.496	4.254	3.823	3.473	3.445	3.232	2.939	2.799	2.522	2.316	2.294	2.172	1.918	1.905	1.746	1.536	1.358	1.200	1.123	1.191	1.529	1.801	1.334	0.881	0.754	0.686	0.661	0.594	0.525	0.711	0.773	0.546	0.430	0.389	0.451	0.500	0.698	1.218	5.724	25.68	71.04	82.98	18.05	1.174
595.0	11.14	14.28	15.86	15.22	14.80	13.91	15.27	17.00	21.49	40.05	71.78	35.50	29.05	27.97	134.5	679.9	247.0	7.349	5.892	5.387	4.956	4.672	4.805	4.051	4.537	3.788	4.429	4.011	3.996	4.030	4.167	3.770	3.546	3.318	3.174	3.011	2.779	2.669	2.484	2.264	2.152	2.040	1.908	1.775	1.774	1.526	1.490	1.199	1.169	1.076	0.967	0.847	0.937	1.022	1.352	1.406	0.891	0.677	0.602	0.431	0.430	0.412	0.413	0.571	0.642	0.483	0.441	0.392	0.372	0.429	0.491	1.501	5.905	16.14	37.25	91.87	24.38
600.0	9.007	17.51	14.75	15.76	11.67	11.78	12.66	15.00	18.19	27.80	70.89	44.56	26.96	21.69	40.85	364.6	543.3	19.54	5.243	4.687	4.072	3.787	4.136	3.555	3.481	3.231	3.476	3.495	3.343	3.179	3.259	3.117	2.949	2.620	2.694	2.425	2.278	2.108	2.082	1.977	1.853	1.571	1.643	1.411	1.418	1.386	1.210	1.101	1.038	0.881	0.766	0.776	0.692	0.728	0.903	1.191	0.890	0.676	0.441	0.492	0.337	0.396	0.403	0.452	0.553	0.556	0.374	0.343	0.360	0.329	0.314	0.569	1.479	3.749	8.926	49.49	77.80
605.0	9.081	14.33	16.09	12.23	11.22	9.933	12.92	13.77	16.59	25.08	55.79	55.23	27.72	20.05	18.82	115.5	657.5	69.72	4.562	3.926	3.700	3.719	3.336	3.266	2.906	2.687	2.859	2.811	2.751	2.442	2.515	2.698	2.317	2.259	2.176	2.113	1.917	1.721	1.606	1.519	1.557	1.317	1.309	1.302	1.089	1.160	1.001	0.991	0.837	0.694	0.682	0.616	0.542	0.619	0.585	0.804	0.825	0.658	0.455	0.471	0.457	0.318	0.382	0.364	0.481	0.605	0.435	0.332	0.307	0.203	0.226	0.350	0.518	0.968	2.156	12.62	54.68
610.0	8.577	14.82	14.83	10.61	11.74	9.794	11.71	13.01	15.85	21.08	37.13	63.00	32.11	19.92	13.82	32.82	337.1	397.6	20.36	3.294	2.978	3.091	2.637	2.330	2.327	2.051	2.373	2.174	2.240	2.144	2.168	2.145	2.041	1.784	1.813	1.641	1.537	1.323	1.308	1.206	1.128	1.051	1.019	0.959	0.995	0.909	0.751	0.770	0.626	0.588	0.611	0.520	0.431	0.499	0.464	0.558	0.655	0.677	0.520	0.377	0.365	0.310	0.294	0.363	0.372	0.388	0.457	0.417	0.270	0.230	0.217	0.243	0.261	0.340	0.587	2.958	13.90
615.0	9.938	12.22	13.31	11.08	8.283	10.20	11.22	11.03	14.38	21.08	27.74	52.50	44.36	19.19	12.82	13.72	84.29	465.4	158.6	3.474	2.476	2.303	2.123	2.062	2.003	1.880	1.717	1.666	1.747	1.841	1.702	1.550	1.612	1.489	1.428	1.262	1.357	1.068	1.088	0.913	0.719	0.830	0.759	0.714	0.724	0.716	0.693	0.582	0.548	0.431	0.441	0.435	0.349	0.332	0.400	0.422	0.402	0.567	0.542	0.370	0.345	0.233	0.277	0.333	0.251	0.251	0.352	0.547	0.310	0.221	0.231	0.220	0.178	0.140	0.211	0.792	3.234
620.0	10.14	10.44	13.01	11.80	10.07	9.776	9.932	11.20	14.00	18.42	23.97	38.42	53.28	20.57	12.42	8.320	23.46	250.1	381.2	11.35	2.013	1.963	1.926	1.942	1.492	1.493	1.548	1.300	1.552	1.347	1.344	1.403	1.355	1.179	1.160	1.001	1.062	0.939	0.957	0.703	0.721	0.729	0.649	0.605	0.542	0.491	0.613	0.511	0.510	0.355	0.366	0.317	0.294	0.274	0.424	0.366	0.296	0.362	0.550	0.317	0.290	0.259	0.259	0.299	0.211	0.220	0.278	0.404	0.421	0.347	0.231	0.275	0.169	0.189	0.116	0.272	0.835
625.0	7.635	12.03	12.54	10.33	9.375	8.995	9.516	11.07	13.94	18.12	21.43	29.38	53.86	26.48	11.83	7.390	9.507	78.53	488.9	52.20	2.115	1.663	1.492	1.636	1.278	1.249	1.258	1.193	1.260	1.076	1.272	1.026	1.146	1.027	0.938	1.022	0.857	0.814	0.766	0.636	0.560	0.629	0.502	0.518	0.472	0.452	0.479	0.409	0.393	0.325	0.315	0.279	0.297	0.291	0.369	0.214	0.268	0.223	0.425	0.353	0.370	0.222	0.248	0.240	0.236	0.176	0.240	0.393	0.442	0.424	0.249	0.219	0.213	0.145	0.058	0.131	0.292
630.0	6.782	10.59	12.45	8.571	7.917	7.880	7.930	9.569	12.48	15.75	21.10	24.68	40.19	36.09	12.75	8.043	6.323	21.02	259.2	293.8	13.72	1.621	1.391	1.321	1.128	1.074	1.044	1.104	1.015	0.916	0.940	0.903	0.812	0.835	0.749	0.798	0.713	0.585	0.628	0.517	0.541	0.505	0.387	0.442	0.438	0.400	0.380	0.292	0.319	0.283	0.227	0.223	0.221	0.211	0.231	0.232	0.230	0.193	0.303	0.354	0.316	0.281	0.168	0.181	0.218	0.164	0.200	0.245	0.306	0.344	0.322	0.161	0.172	0.144	0.127	0.121	0.159
635.0	7.597	8.229	13.53	9.705	7.678	6.516	7.694	9.343	11.63	14.81	19.91	20.72	27.44	40.55	16.32	7.772	5.150	7.615	64.93	356.8	117.7	1.782	1.190	1.178	0.943	0.787	0.782	0.860	0.927	0.846	0.813	0.751	0.553	0.707	0.682	0.643	0.559	0.519	0.518	0.415	0.422	0.420	0.373	0.336	0.285	0.286	0.282	0.257	0.311	0.207	0.178	0.206	0.208	0.184	0.153	0.182	0.182	0.163	0.183	0.313	0.308	0.276	0.156	0.154	0.177	0.148	0.166	0.196	0.175	0.196	0.354	0.273	0.175	0.139	0.146	0.104	0.090
640.0	4.878	8.617	9.704	10.27	6.400	6.631	7.802	9.274	11.39	13.14	17.99	20.55	22.25	36.80	23.21	7.713	5.082	4.571	17.20	199.7	289.5	6.062	1.053	1.051	0.850	0.749	0.726	0.802	0.696	0.659	0.651	0.651	0.549	0.594	0.543	0.564	0.527	0.519	0.416	0.306	0.363	0.389	0.328	0.276	0.268	0.225	0.235	0.222	0.301	0.181	0.154	0.198	0.171	0.152	0.132	0.181	0.149	0.104	0.095	0.213	0.224	0.285	0.171	0.148	0.135	0.158	0.135	0.158	0.183	0.128	0.208	0.374	0.200	0.111	0.100	0.140	0.107
645.0	3.509	6.745	10.49	10.51	7.384	6.669	7.608	8.624	10.68	14.38	18.09	19.53	19.88	28.16	27.81	8.591	5.612	3.861	6.307	64.42	364.3	39.39	1.073	0.927	0.788	0.636	0.621	0.648	0.576	0.663	0.528	0.502	0.565	0.473	0.458	0.356	0.424	0.354	0.338	0.302	0.316	0.292	0.271	0.251	0.267	0.197	0.217	0.237	0.186	0.207	0.109	0.157	0.194	0.139	0.151	0.128	0.122	0.097	0.117	0.130	0.174	0.278	0.177	0.149	0.126	0.137	0.113	0.159	0.139	0.147	0.138	0.237	0.204	0.133	0.076	0.123	0.119
650.0	5.088	10.63	10.02	9.909	7.961	6.705	6.635	9.068	10.96	13.41	18.06	19.87	19.09	21.00	30.64	10.44	5.987	4.039	3.426	17.29	262.6	164.6	2.088	0.954	0.743	0.560	0.654	0.602	0.539	0.549	0.468	0.486	0.477	0.406	0.356	0.326	0.406	0.424	0.290	0.295	0.287	0.180	0.246	0.198	0.140	0.153	0.148	0.245	0.176	0.142	0.110	0.121	0.150	0.093	0.114	0.103	0.092	0.135	0.115	0.076	0.116	0.226	0.253	0.119	0.134	0.194	0.121	0.125	0.170	0.110	0.110	0.177	0.250	0.150	0.132	0.075	0.130
