Sample:	'1
File name:	Default_20250716_144437.FD3
Run date:	'14:38:16, 07/16/2025
Operator:	dsjg
Comment:	'

Instrument
Model:	F-2700 FL Spectrophotometer
Serial number:	2198-001
ROM Version:	4J14000 07

Instrument parameters
Measurement type:	3-D scan
Data mode:	Fluorescence
EX  Start WL:	220.0 nm
EX  End WL:	600.0 nm
EX Sampling interval:	5.0 nm
EM  Start WL:	230.0 nm
EM  End WL:	650.0 nm
EM Sampling interval:	5.0 nm
Scan speed:	12000 nm/min
EX Slit:	5.0 nm
EM Slit:	5.0 nm
PMT Voltage:	700 V
Response:	Auto 
Corrected spectra:	Off
Contour interval:	50.000

Peak integration
Integration method:	Rectangular
Sensitivity:	1
Threshold:	1.000

Peaks
No.	ApexEX/EM(nm)	Height(Data)
1	225.0/340.0	 6275
2	230.0/345.0	 6230
3	240.0/265.0	180.8
4	245.0/270.0	159.5
5	250.0/275.0	182.0
6	250.0/455.0	 1801
7	255.0/280.0	210.3
8	265.0/585.0	44.19
9	275.0/615.0	121.4
10	275.0/635.0	118.7
11	280.0/335.0	 3216
12	280.0/620.0	119.2
13	305.0/445.0	757.7
14	350.0/400.0	207.1
15	355.0/405.0	213.3
16	365.0/420.0	212.3
17	430.0/505.0	23.51
18	445.0/525.0	13.50
19	460.0/340.0	21.27
20	460.0/545.0	8.291
21	475.0/350.0	22.50
22	505.0/455.0	9.887
23	560.0/340.0	17.30
24	570.0/335.0	17.34

Data points
	220.0	225.0	230.0	235.0	240.0	245.0	250.0	255.0	260.0	265.0	270.0	275.0	280.0	285.0	290.0	295.0	300.0	305.0	310.0	315.0	320.0	325.0	330.0	335.0	340.0	345.0	350.0	355.0	360.0	365.0	370.0	375.0	380.0	385.0	390.0	395.0	400.0	405.0	410.0	415.0	420.0	425.0	430.0	435.0	440.0	445.0	450.0	455.0	460.0	465.0	470.0	475.0	480.0	485.0	490.0	495.0	500.0	505.0	510.0	515.0	520.0	525.0	530.0	535.0	540.0	545.0	550.0	555.0	560.0	565.0	570.0	575.0	580.0	585.0	590.0	595.0	600.0
230.0	83.01	 1124	 2160	475.6	24.18	13.13	10.11	8.985	7.987	6.441	5.930	5.547	5.106	4.076	3.840	3.348	3.035	2.776	2.227	2.010	1.726	1.684	1.631	1.430	1.241	1.248	1.167	1.233	1.294	1.132	1.106	1.080	1.096	0.913	1.001	0.933	0.898	0.876	0.942	0.829	0.862	0.997	1.099	0.973	0.791	0.701	0.909	3.084	6.423	6.722	3.664	1.406	0.699	0.619	0.618	0.648	0.685	0.707	0.652	0.675	0.692	0.656	0.702	0.654	0.680	0.673	0.674	0.651	0.681	0.710	0.675	0.669	0.696	0.680	0.767	0.712	0.757
235.0	106.1	325.2	 1341	 1768	428.4	24.99	10.36	8.865	8.175	5.942	5.612	6.260	5.360	4.002	3.784	3.206	2.800	2.782	2.051	1.948	1.965	1.770	1.575	1.293	1.396	1.354	1.121	1.310	1.153	1.248	1.121	1.103	0.999	0.848	1.037	0.890	0.961	0.932	0.845	0.998	0.780	0.831	1.006	0.944	0.993	0.832	0.757	1.195	2.287	3.666	5.647	7.484	4.506	1.689	0.682	0.617	0.711	0.722	0.775	0.676	0.719	0.646	0.759	0.630	0.676	0.688	0.744	0.640	0.726	0.661	0.644	0.686	0.752	0.696	0.830	0.709	0.661
240.0	137.1	140.8	428.5	 1527	 1659	306.0	13.93	9.229	8.021	6.909	5.808	5.989	4.908	4.796	3.723	3.109	3.175	2.479	2.147	1.830	1.833	1.635	1.523	1.308	1.433	1.291	1.223	1.295	1.141	1.245	1.147	1.026	1.095	0.908	0.965	0.840	1.001	0.925	0.801	0.906	0.799	0.776	0.810	0.924	1.019	1.009	0.900	0.895	1.039	1.321	2.541	6.110	8.767	7.618	3.673	0.964	0.733	0.705	0.671	0.666	0.660	0.661	0.737	0.704	0.665	0.725	0.686	0.692	0.725	0.707	0.701	0.731	0.747	0.704	0.801	0.696	0.774
245.0	124.4	154.4	137.3	561.2	 1780	 1426	192.7	10.70	8.224	8.196	7.344	5.968	4.987	4.307	3.792	3.214	2.662	2.714	2.243	1.975	1.811	1.555	1.502	1.492	1.456	1.394	1.218	1.268	1.178	1.246	1.157	1.239	1.171	0.943	0.905	0.902	0.833	0.800	0.908	0.874	0.844	0.824	0.848	0.830	0.791	0.905	0.933	1.154	0.871	0.762	1.035	2.223	4.457	8.405	9.324	5.985	2.282	0.824	0.689	0.702	0.649	0.639	0.777	0.732	0.678	0.633	0.682	0.659	0.680	0.667	0.849	0.726	0.723	0.694	0.725	0.743	0.829
250.0	66.93	132.7	146.9	174.2	603.4	 1439	 1458	224.7	26.80	8.064	7.160	6.133	5.219	4.851	4.111	3.446	2.911	2.686	2.250	2.069	2.031	1.914	1.475	1.468	1.382	1.216	1.191	1.256	1.295	1.217	1.230	1.238	1.073	0.930	0.961	0.894	0.815	0.812	0.787	0.909	0.866	0.857	0.820	0.806	0.770	0.819	0.845	1.017	1.072	1.080	0.845	1.010	1.501	2.889	4.551	6.550	7.740	6.687	4.237	1.809	0.816	0.717	0.677	0.753	0.658	0.667	0.659	0.694	0.682	0.738	0.734	0.748	0.810	0.711	0.727	0.736	0.767
255.0	49.68	59.88	130.4	175.8	174.4	377.3	 1130	 1725	285.2	25.16	7.510	6.033	6.391	4.967	4.378	3.800	3.425	2.594	2.229	1.933	1.924	1.754	1.462	1.390	1.480	1.273	1.185	1.230	1.262	1.085	1.103	1.057	0.963	0.979	1.166	1.028	0.767	0.808	0.859	0.841	0.794	0.861	0.783	0.960	0.845	0.835	0.714	0.759	0.776	0.979	1.171	1.405	1.030	1.250	1.560	2.050	2.963	5.267	8.681	9.483	5.868	2.043	0.763	0.744	0.753	0.704	0.707	0.740	0.648	0.750	0.656	0.687	0.659	0.653	0.648	0.696	0.736
260.0	40.42	41.59	65.58	168.4	151.6	111.7	363.4	 1428	 1561	229.3	13.84	7.818	6.505	5.271	4.492	3.796	3.024	2.746	2.393	2.038	1.921	1.839	1.596	1.478	1.395	1.331	1.251	1.315	1.329	1.063	1.250	1.052	1.078	1.005	1.015	0.978	0.829	0.828	0.749	0.761	0.798	0.806	0.834	0.825	0.863	0.854	0.689	0.746	0.693	0.625	0.877	1.279	1.587	1.198	0.942	0.947	1.302	1.863	3.653	7.421	10.24	8.816	4.158	1.268	0.693	0.722	0.709	0.750	0.695	0.763	0.688	0.727	0.661	0.691	0.680	0.641	0.813
265.0	40.43	35.39	37.90	91.03	180.8	106.7	100.4	509.2	 1580	 1421	170.4	9.744	7.325	5.477	4.795	3.887	3.483	3.015	2.399	2.272	2.060	1.980	1.530	1.580	1.473	1.372	1.269	1.347	1.311	1.170	1.172	1.272	1.124	1.101	0.959	0.915	0.788	0.847	0.840	0.840	0.755	0.822	0.878	0.829	0.807	0.801	0.687	0.758	0.686	0.563	0.661	0.884	1.182	1.534	1.403	0.929	0.861	0.988	1.373	2.493	5.049	8.789	10.43	7.072	2.749	0.836	0.675	0.778	0.661	0.768	0.772	0.727	0.787	0.784	0.744	0.735	0.811
270.0	38.19	36.27	29.56	40.94	99.82	159.5	114.6	140.6	517.2	 1251	 1330	529.5	40.12	6.128	5.149	4.254	3.629	2.978	2.715	2.306	2.017	1.771	1.496	1.515	1.492	1.300	1.343	1.259	1.145	1.295	1.277	1.157	1.105	1.094	0.959	0.948	0.829	0.903	0.818	0.843	0.819	0.803	0.783	0.807	0.786	0.776	0.731	0.747	0.696	0.577	0.615	0.697	0.782	1.048	1.251	1.502	1.566	1.236	1.019	1.139	1.758	2.981	4.807	6.734	8.003	7.396	4.932	2.227	0.886	0.743	0.751	0.783	0.759	0.731	0.742	0.756	0.745
275.0	57.36	46.69	30.87	25.88	38.62	84.21	182.0	143.8	144.5	333.5	869.2	 1567	724.5	36.87	6.247	4.738	3.845	3.334	2.702	2.269	2.247	1.755	1.865	1.622	1.434	1.355	1.340	1.243	1.226	1.214	1.265	1.177	1.108	1.216	1.185	1.022	0.909	0.918	0.827	0.909	0.783	0.919	0.875	0.821	0.825	0.853	0.728	0.727	0.631	0.618	0.581	0.664	0.677	0.739	0.912	1.015	1.394	1.849	1.837	1.238	1.054	1.256	1.725	2.100	2.879	4.915	8.313	9.932	6.841	2.300	0.874	0.801	0.888	0.772	0.812	0.704	0.693
280.0	82.68	58.43	39.59	26.05	23.89	38.31	128.7	210.3	122.7	116.3	293.1	 1086	 1535	161.2	16.17	4.679	4.037	3.416	2.707	2.287	2.131	1.760	1.838	1.373	1.476	1.394	1.306	1.263	1.181	1.069	1.214	1.128	1.170	1.303	1.221	1.081	0.994	0.905	0.991	0.935	0.837	0.870	0.851	0.883	0.782	0.926	0.901	0.834	0.699	0.612	0.542	0.643	0.689	0.646	0.771	0.887	1.014	1.297	1.882	2.030	1.412	1.125	1.094	1.228	1.412	1.994	3.334	6.825	9.841	9.234	4.593	1.275	0.797	0.800	0.721	0.700	0.682
285.0	99.87	70.41	43.93	26.32	22.57	27.19	67.52	189.2	214.5	108.5	126.4	396.7	 1197	 1221	125.1	7.487	4.831	3.734	2.881	2.253	2.241	1.788	1.722	1.551	1.547	1.350	1.220	1.282	1.281	1.245	1.215	1.101	1.111	1.340	1.287	1.232	1.219	0.997	1.159	0.947	0.970	0.904	0.912	0.918	0.879	1.057	0.891	0.814	0.776	0.703	0.652	0.623	0.695	0.660	0.644	0.702	0.900	0.888	1.365	1.754	2.163	1.833	1.355	1.202	1.186	1.253	1.518	2.568	4.439	7.807	10.02	7.513	2.903	0.904	0.746	0.754	0.781
290.0	130.5	90.74	57.88	40.48	37.41	41.15	58.86	121.4	232.1	261.4	165.8	178.0	406.0	873.2	 1038	453.1	33.12	6.087	3.437	2.526	2.351	1.940	1.790	1.756	1.569	1.380	1.426	1.400	1.262	1.197	1.299	1.139	1.291	1.372	1.427	1.409	1.240	1.231	1.129	1.046	1.074	0.977	1.016	0.972	1.035	0.985	0.951	0.867	0.845	0.769	0.684	0.733	0.733	0.756	0.704	0.831	0.916	0.897	1.041	1.250	1.602	1.976	2.267	2.124	1.732	1.353	1.372	1.596	1.885	2.770	4.370	6.196	7.493	7.233	4.955	2.042	0.922
295.0	185.8	145.8	108.2	88.79	84.71	99.25	135.3	170.5	243.1	382.7	441.0	234.1	241.0	320.9	643.9	 1352	663.2	46.46	7.047	3.579	2.502	2.459	2.028	1.882	1.564	1.546	1.531	1.427	1.360	1.239	1.376	1.177	1.294	1.510	1.661	1.542	1.395	1.345	1.385	1.362	1.164	1.171	1.228	1.113	1.164	1.161	0.982	1.134	1.069	0.866	0.788	0.854	0.910	1.018	1.022	1.067	1.263	1.385	1.453	1.645	1.768	1.909	2.269	2.795	3.441	3.135	2.084	1.982	1.946	2.080	2.305	2.621	3.328	4.818	8.410	10.49	6.569
300.0	307.1	265.6	226.5	192.4	194.8	241.8	327.1	349.5	353.2	715.4	918.5	866.8	669.1	549.8	586.1	 1088	 1686	555.8	37.54	6.249	3.162	2.742	2.071	1.861	1.617	1.682	1.591	1.518	1.332	1.244	1.292	1.291	1.377	1.647	1.884	1.692	1.688	1.701	1.576	1.832	1.533	1.308	1.502	1.496	1.440	1.506	1.348	1.551	1.519	1.281	1.151	1.391	1.325	1.366	1.682	1.763	2.023	2.187	2.531	2.876	3.114	3.592	4.003	4.525	5.054	5.892	5.911	4.915	4.345	4.071	3.753	3.552	3.555	3.757	5.064	8.460	11.98
305.0	486.8	486.0	409.3	349.9	352.9	440.5	603.9	764.3	997.3	 1322	 1613	 1766	 1476	 1168	 1044	 1020	 1680	 1836	364.9	13.71	4.189	2.908	2.285	2.133	2.156	1.761	1.643	1.424	1.345	1.329	1.360	1.408	1.559	1.891	2.144	2.119	2.298	2.501	2.248	2.382	1.972	1.974	1.937	1.892	1.929	2.240	1.950	2.245	1.995	1.897	1.599	2.092	2.113	2.149	2.351	2.720	3.236	3.640	4.353	4.884	5.265	6.233	7.001	8.125	8.091	9.506	10.33	10.73	9.358	7.857	7.400	6.299	6.667	6.388	5.996	6.460	9.404
310.0	728.7	786.4	648.2	526.1	531.7	651.4	860.9	 1063	 1323	 1681	 1970	 2211	 2147	 1710	 1437	 1155	 1306	 1459	 1204	330.2	23.79	4.153	2.969	2.413	2.129	1.748	1.733	1.620	1.371	1.372	1.387	1.491	1.468	1.982	2.400	2.512	2.658	2.842	2.842	2.765	2.567	2.483	2.477	2.365	2.566	2.907	2.885	3.039	2.895	2.598	2.288	2.803	2.795	2.955	3.214	3.651	4.191	4.998	5.646	6.283	6.749	7.871	8.747	9.678	10.16	11.21	11.65	12.46	12.57	11.53	10.35	8.917	9.071	8.628	7.571	6.845	7.712
315.0	 1125	 1240	997.2	762.6	709.0	837.8	 1070	 1270	 1528	 1915	 2255	 2505	 2503	 2246	 1827	 1360	 1297	988.1	643.3	 1179	490.5	24.25	4.026	3.068	2.287	1.883	1.815	1.872	1.491	1.390	1.562	1.443	1.734	2.075	2.325	2.758	2.793	2.993	2.942	3.147	2.986	2.967	3.215	3.024	3.575	3.961	4.112	4.681	4.332	3.550	2.911	3.713	3.457	3.570	4.063	4.289	5.490	6.408	6.640	7.340	7.860	8.847	9.853	11.31	11.77	12.97	13.67	13.63	13.98	13.64	13.40	11.87	11.28	10.35	9.287	7.564	8.032
320.0	 1761	 2036	 1481	968.3	831.0	940.5	 1180	 1425	 1672	 2077	 2464	 2734	 2711	 2477	 2134	 1523	 1356	915.3	344.6	660.3	 1279	352.6	12.90	4.310	2.525	2.359	1.950	1.899	1.614	1.627	1.410	1.352	1.685	2.073	2.470	2.770	2.948	3.298	3.494	3.603	3.277	3.380	3.871	4.122	4.784	5.459	6.225	7.384	6.350	4.704	3.968	4.235	3.935	4.123	4.650	4.836	6.211	6.679	7.448	8.171	8.630	9.661	10.61	11.90	12.78	13.64	14.66	14.67	15.32	14.31	14.14	13.54	13.55	12.03	9.801	8.740	8.483
325.0	 2398	 2963	 2190	 1318	 1006	 1021	 1249	 1487	 1720	 2109	 2514	 2806	 2805	 2529	 2264	 1678	 1369	897.3	309.4	280.9	843.2	 1213	64.42	10.12	3.609	2.576	2.199	1.867	1.642	1.819	1.495	1.435	1.682	2.120	2.307	2.806	3.012	3.350	3.569	3.862	3.609	4.196	4.209	5.347	5.905	7.699	8.574	10.15	9.445	7.047	5.559	5.582	5.103	4.966	4.895	5.244	6.370	7.065	7.759	8.551	8.821	9.945	10.88	12.20	12.64	14.39	14.27	15.00	16.12	15.05	14.21	14.07	14.08	13.62	11.71	9.440	9.112
330.0	 3174	 4057	 3588	 2544	 1836	 1410	 1401	 1572	 1754	 2135	 2549	 2877	 2936	 2689	 2383	 1937	 1602	 1040	475.3	312.2	403.4	808.4	 1023	264.1	24.21	4.203	2.444	2.192	1.896	1.815	1.654	1.523	1.636	2.016	2.370	2.801	3.220	3.518	3.764	4.044	4.093	4.635	4.885	6.163	7.476	9.825	11.30	13.81	13.80	11.53	10.11	10.25	9.319	8.572	7.354	6.631	7.214	7.802	8.494	8.750	9.013	10.13	10.87	12.26	13.19	14.29	14.88	15.61	16.37	15.95	15.17	14.58	14.37	13.81	12.71	11.56	10.81
335.0	 4285	 5705	 5399	 4292	 3227	 2085	 1674	 1722	 1884	 2254	 2719	 3087	 3216	 3037	 2699	 2250	 1996	 1403	748.8	533.6	447.1	463.9	630.1	 1214	408.9	23.69	3.753	2.537	2.260	2.157	1.832	1.744	1.797	2.214	2.576	3.050	3.169	3.801	4.117	4.522	4.825	5.504	6.073	7.630	9.461	12.43	14.87	18.65	19.00	17.00	15.65	17.44	16.96	15.09	11.86	9.643	9.106	9.089	9.295	9.726	9.589	10.43	11.49	12.27	13.98	14.74	15.40	16.90	16.43	17.02	17.34	16.73	16.11	15.62	14.11	13.29	12.76
340.0	 4622	 6275	 6094	 5008	 3789	 2349	 1765	 1747	 1877	 2237	 2671	 3040	 3195	 3082	 2753	 2289	 2002	 1574	930.5	634.6	495.7	415.3	404.1	737.9	 1227	305.3	9.285	3.065	2.443	2.278	1.965	1.761	1.946	2.218	2.733	2.980	3.349	3.902	4.405	4.630	4.737	5.832	6.500	8.434	9.984	13.54	15.80	20.45	21.27	18.94	18.17	20.73	19.63	17.79	13.89	10.58	9.776	9.663	9.705	9.969	9.858	10.31	11.72	12.38	13.53	14.96	15.55	16.29	17.30	17.11	17.01	16.66	16.87	15.69	14.46	13.74	13.02
345.0	 4465	 6160	 6230	 5270	 3910	 2398	 1726	 1677	 1766	 2075	 2483	 2839	 3008	 2936	 2639	 2220	 1897	 1531	 1035	676.1	511.9	410.5	350.2	350.3	816.8	 1074	53.70	4.871	2.547	2.321	2.040	1.800	2.029	2.389	2.489	2.891	3.244	3.621	3.821	4.594	4.858	5.655	6.413	8.237	9.961	12.95	15.94	19.95	20.84	19.37	19.30	21.78	20.71	18.13	14.65	11.07	10.04	9.349	9.216	9.162	9.415	10.03	10.93	11.72	12.91	13.67	14.61	15.27	15.97	16.46	15.73	15.79	15.53	15.12	14.63	12.78	12.32
350.0	 4259	 5865	 6181	 5406	 4112	 2465	 1683	 1553	 1621	 1885	 2243	 2583	 2750	 2723	 2490	 2125	 1811	 1431	 1070	790.3	554.5	433.2	361.6	253.6	271.1	634.0	843.7	226.3	16.71	2.416	2.268	1.802	1.980	2.130	2.384	2.587	2.909	3.223	3.753	4.255	4.650	5.463	6.215	7.721	9.536	12.56	14.68	18.69	20.12	19.50	19.43	22.50	21.28	19.33	15.29	11.31	9.716	8.911	8.853	8.782	8.794	9.375	10.11	10.66	11.96	12.41	13.28	14.01	14.47	14.99	14.76	15.03	14.83	14.52	13.80	12.55	11.81
355.0	 3861	 5396	 5811	 5271	 4028	 2384	 1579	 1404	 1458	 1674	 1979	 2269	 2439	 2448	 2261	 1954	 1680	 1323	981.6	811.3	623.7	443.0	367.5	241.8	130.1	170.1	359.5	946.6	360.7	17.64	2.550	2.055	2.049	2.219	2.334	2.396	2.737	3.167	3.390	4.002	4.354	4.957	5.693	6.829	8.508	11.31	13.31	17.31	18.58	18.40	18.12	21.66	20.78	19.11	14.82	11.07	9.517	8.487	7.895	8.344	8.044	8.230	8.829	9.441	10.48	11.21	11.85	12.36	13.08	13.23	13.79	13.42	13.24	13.85	12.98	11.86	10.88
360.0	 3375	 4774	 5213	 4775	 3728	 2213	 1443	 1261	 1297	 1472	 1735	 1983	 2144	 2151	 2009	 1744	 1509	 1203	885.8	716.5	631.1	453.7	346.8	222.0	100.9	67.48	102.7	484.6	 1038	270.7	7.538	2.284	2.045	2.080	2.288	2.417	2.709	2.802	3.129	3.654	3.803	4.309	5.231	6.346	7.945	10.05	11.58	15.33	16.68	16.60	16.17	20.06	19.30	17.44	14.07	10.73	8.867	7.848	7.470	7.516	7.150	7.358	8.147	8.718	9.415	9.812	10.83	11.05	11.69	11.51	12.07	12.31	12.22	12.02	11.68	10.76	10.23
365.0	 2927	 4185	 4642	 4312	 3366	 2006	 1312	 1119	 1133	 1283	 1517	 1725	 1877	 1890	 1776	 1565	 1350	 1083	809.2	634.2	558.1	487.2	343.9	209.7	94.23	48.51	41.81	138.3	670.7	964.2	50.24	3.822	2.178	2.099	2.158	2.277	2.639	2.757	2.891	3.198	3.430	3.907	4.661	5.616	6.631	9.062	10.23	13.61	14.93	14.97	14.77	17.76	17.34	16.04	12.79	9.734	7.809	6.911	6.471	6.869	6.661	6.512	7.232	7.534	8.299	8.720	9.435	9.630	9.798	10.61	10.82	10.82	10.93	10.52	10.63	9.908	9.137
370.0	 2525	 3507	 3951	 3756	 2963	 1782	 1145	976.1	972.4	 1087	 1277	 1456	 1588	 1607	 1518	 1350	 1175	956.0	727.2	564.2	470.4	442.2	384.8	217.0	94.77	50.58	34.33	47.69	182.3	566.7	773.4	206.4	14.50	2.363	2.246	2.336	2.225	2.515	2.678	2.961	2.957	3.473	4.154	4.767	5.889	7.604	8.516	11.29	12.60	12.77	13.13	15.34	15.37	13.94	11.25	8.672	7.177	6.150	5.636	5.774	5.807	5.766	6.463	6.788	7.019	7.359	7.741	8.238	8.541	9.027	9.163	8.958	9.390	9.105	9.209	8.666	8.085
375.0	 2020	 2878	 3262	 3103	 2528	 1531	985.9	834.0	821.3	900.2	 1052	 1209	 1314	 1330	 1269	 1139	996.0	828.4	640.8	503.8	409.8	358.1	361.7	267.3	112.0	59.50	40.98	34.82	57.56	141.1	327.8	862.9	313.3	16.45	2.542	2.347	2.131	2.247	2.457	2.532	2.865	3.204	3.413	4.202	4.721	6.214	7.393	9.136	10.62	10.93	11.12	13.48	13.03	11.95	9.624	7.822	6.395	5.463	5.117	4.964	4.945	5.059	5.430	5.627	5.653	5.963	6.571	6.995	6.969	7.530	7.585	7.546	7.631	8.019	7.727	7.478	7.131
380.0	 1720	 2387	 2773	 2706	 2212	 1366	897.4	739.2	729.0	784.0	910.0	 1032	 1136	 1148	 1097	 1001	878.0	737.8	586.0	468.3	384.7	325.3	308.1	279.9	154.8	71.63	49.15	37.28	34.89	47.39	90.45	445.1	888.4	244.1	6.486	2.498	2.336	2.309	2.248	2.434	2.434	2.745	3.143	3.745	4.173	5.625	6.482	7.767	8.945	9.493	9.779	11.68	11.77	10.91	8.656	6.801	5.609	5.035	4.735	4.397	4.469	4.664	4.648	4.863	5.255	5.525	5.527	5.859	6.399	6.560	6.700	6.531	6.761	6.789	6.546	6.499	6.538
385.0	 1506	 2101	 2458	 2359	 1945	 1243	828.2	679.5	654.2	709.1	804.7	914.4	996.9	 1016	975.1	895.7	798.9	677.3	554.7	450.4	370.5	316.7	280.7	244.5	201.7	100.8	59.85	45.45	37.04	32.39	36.18	125.7	575.0	907.6	41.16	4.106	2.588	2.476	2.182	2.348	2.503	2.593	2.949	3.267	3.849	4.917	5.546	7.054	8.052	8.005	8.597	10.03	10.16	9.639	7.546	6.057	5.227	4.761	4.369	4.051	3.991	4.131	4.217	4.624	4.755	4.899	5.442	5.396	5.689	5.910	5.915	5.986	6.352	6.130	5.864	6.023	5.784
390.0	 1292	 1781	 2053	 2020	 1694	 1123	780.0	635.7	595.0	629.6	711.6	797.7	868.7	884.4	862.6	805.3	730.5	638.0	535.9	451.4	381.1	325.2	280.9	222.6	194.8	169.2	101.4	66.06	51.80	42.73	34.93	48.05	160.0	531.0	604.4	163.3	13.23	2.930	2.289	2.330	2.392	2.470	2.688	2.933	3.457	4.140	4.650	6.079	6.815	6.900	7.335	8.640	8.657	8.445	6.727	5.692	5.036	4.429	4.209	3.950	3.613	3.784	3.765	4.072	4.301	4.308	4.921	4.885	5.054	5.158	5.383	5.744	5.594	5.561	5.651	5.514	5.275
395.0	 1093	 1505	 1765	 1749	 1500	 1060	749.5	629.4	563.3	582.9	652.8	721.2	783.2	796.3	782.1	744.0	695.2	627.0	548.3	476.7	413.6	358.0	310.4	241.5	190.0	188.3	177.4	109.1	76.91	63.98	51.49	44.75	61.00	139.6	262.8	664.4	253.7	14.52	3.017	2.415	2.412	2.484	2.444	2.696	3.137	3.704	4.004	5.237	5.709	5.860	6.170	7.675	7.601	7.435	6.414	5.502	4.876	4.366	4.042	3.868	3.638	3.538	3.593	3.920	3.917	4.101	4.351	4.251	4.792	4.742	4.940	5.143	5.157	5.160	5.228	5.127	5.071
400.0	993.1	 1350	 1590	 1586	 1382	 1039	759.5	637.2	563.9	568.5	627.7	698.5	738.0	768.9	746.0	717.3	686.5	634.8	569.3	509.6	445.2	388.3	341.6	270.5	211.0	189.4	207.1	166.7	106.0	84.37	68.23	55.37	49.14	59.68	84.97	348.0	684.4	185.9	6.676	2.874	2.484	2.342	2.638	2.568	3.006	3.488	3.616	4.782	5.054	5.365	5.526	6.996	7.106	6.902	5.923	5.427	4.858	4.734	4.050	3.957	3.675	3.584	3.434	3.776	3.617	3.830	4.079	4.253	4.428	4.537	4.738	4.680	4.980	4.886	4.976	5.073	5.165
405.0	964.7	 1240	 1458	 1489	 1328	 1028	785.4	664.5	587.3	575.3	624.7	686.3	721.2	750.9	739.9	719.1	692.2	653.6	602.6	548.4	487.4	425.1	373.6	303.4	238.4	203.6	203.3	213.3	148.9	105.4	86.10	70.50	55.50	50.00	47.74	109.7	433.3	597.8	35.89	4.249	2.815	2.503	2.578	2.544	2.689	3.198	3.491	4.230	4.677	4.956	5.014	6.704	6.519	6.577	5.598	5.388	4.950	4.527	4.275	3.843	3.790	3.530	3.587	3.878	3.600	3.880	3.735	3.796	4.448	4.442	4.518	4.870	4.902	4.640	4.821	4.896	5.156
410.0	879.1	 1154	 1323	 1389	 1273	 1040	846.3	710.1	610.4	590.0	620.7	671.8	713.1	735.4	726.2	722.4	702.4	679.3	639.7	590.7	525.6	466.0	406.4	333.0	271.8	229.8	206.3	210.0	202.4	147.7	109.0	89.90	72.54	60.58	48.81	53.36	126.7	351.5	374.9	150.7	10.95	3.015	2.742	2.605	2.662	3.103	3.182	3.969	4.421	4.428	4.872	6.064	6.521	6.150	5.655	5.337	4.937	4.881	4.525	4.044	3.915	3.710	3.692	3.693	3.691	3.837	3.802	3.877	3.979	4.324	4.266	4.570	4.779	4.732	4.621	4.832	4.868
415.0	817.5	 1044	 1199	 1275	 1242	 1069	899.7	770.7	643.2	597.3	606.7	645.6	684.7	709.2	710.9	709.3	705.1	697.3	669.1	619.6	552.3	489.4	422.0	354.9	288.0	249.6	221.0	204.4	204.4	201.4	143.6	108.1	87.58	72.75	57.88	46.52	51.57	93.64	183.1	605.5	209.9	10.99	2.834	2.576	2.690	2.943	3.031	3.848	4.398	4.287	4.549	5.651	5.866	5.963	5.754	5.161	5.083	5.200	4.752	4.351	4.111	3.756	3.658	3.783	3.612	3.674	3.840	3.638	3.826	4.048	4.419	4.454	4.631	4.402	4.840	4.794	4.970
420.0	792.8	979.5	 1144	 1239	 1227	 1095	958.7	833.4	674.2	597.0	596.0	637.6	677.7	695.2	700.1	707.5	712.1	708.2	685.6	633.6	566.1	498.8	428.5	361.8	301.2	261.7	234.7	213.0	198.2	212.3	183.0	127.4	99.30	82.48	67.07	50.20	38.20	38.05	54.12	317.9	516.9	148.8	5.569	3.030	2.880	3.155	3.059	3.545	4.012	3.897	4.135	5.546	5.565	5.907	5.514	5.428	5.379	5.497	5.284	4.715	4.226	3.923	3.852	3.630	3.440	3.703	3.922	3.331	3.869	3.721	4.352	4.254	4.560	4.375	4.615	4.995	4.741
425.0	785.5	980.2	 1119	 1217	 1238	 1163	 1058	898.8	710.0	605.3	597.1	630.4	668.5	685.3	696.3	707.1	717.9	716.4	696.0	650.1	575.8	498.5	434.7	366.7	309.8	271.2	246.1	222.5	201.9	202.4	210.7	157.1	113.2	92.56	75.53	56.75	39.64	28.45	24.25	88.72	331.0	455.1	33.37	3.850	2.884	2.992	3.016	3.501	3.771	3.850	4.157	5.065	5.501	6.141	5.771	5.865	6.076	6.104	5.612	5.230	4.756	4.280	3.962	3.643	3.616	3.677	3.653	3.666	3.696	3.807	4.088	4.126	4.365	4.366	4.970	5.082	4.993
430.0	808.2	941.3	 1080	 1208	 1291	 1274	 1211	 1040	804.9	637.4	595.9	618.7	651.3	685.0	698.1	716.0	728.8	733.9	714.2	666.1	579.1	498.3	430.6	372.5	320.6	288.2	262.5	240.2	223.3	209.6	208.5	198.2	151.2	112.7	90.54	68.44	48.10	31.81	21.27	30.49	91.03	269.7	314.2	127.9	10.02	3.241	3.157	3.438	3.747	3.766	4.127	5.153	5.682	6.251	6.249	6.249	6.590	6.761	6.362	5.832	5.218	4.623	4.222	3.634	3.635	3.554	3.662	3.661	3.681	3.798	4.095	4.177	4.406	4.337	4.601	4.975	5.104
435.0	963.8	941.5	 1062	 1228	 1362	 1434	 1412	 1215	920.5	677.5	587.4	604.9	643.2	676.6	696.3	721.0	746.9	750.8	736.0	676.4	574.7	491.1	429.2	372.8	329.0	298.4	278.3	260.5	246.2	231.1	216.8	207.6	196.8	144.8	108.3	82.05	58.80	38.63	25.72	20.34	29.21	67.86	145.2	409.7	186.0	9.410	3.451	3.689	3.688	3.829	4.204	5.258	5.674	6.484	7.103	6.901	7.585	7.608	7.474	6.833	6.020	5.005	4.441	3.669	3.607	3.644	3.528	3.399	3.562	3.764	4.224	4.154	4.601	4.231	4.734	5.235	5.218
440.0	 1334	946.9	 1055	 1238	 1425	 1543	 1537	 1347	990.7	693.0	578.4	590.0	629.0	673.5	698.9	723.5	752.6	757.4	747.0	684.1	572.2	478.3	416.1	365.7	330.7	302.2	286.0	272.7	261.0	247.8	229.9	210.9	208.1	173.3	123.1	90.44	66.25	44.01	29.19	20.52	17.71	23.50	41.09	224.9	444.3	34.89	4.982	3.823	3.688	3.701	4.085	5.349	6.140	6.898	6.927	7.605	8.267	8.594	8.328	7.325	6.607	5.467	4.831	3.969	3.596	3.338	3.262	3.241	3.332	3.837	4.102	4.280	4.437	4.199	4.751	5.180	5.284
445.0	 1680	 1009	 1042	 1241	 1451	 1618	 1643	 1432	 1043	704.0	573.5	571.1	613.1	661.8	692.7	718.8	753.4	757.7	746.5	674.6	557.0	462.6	400.9	354.5	323.9	300.4	289.5	279.0	270.3	258.6	236.5	216.6	203.1	189.2	142.8	97.52	71.71	47.11	32.55	22.77	16.35	14.44	16.46	64.17	311.7	267.9	26.86	4.319	3.603	3.640	3.976	5.471	6.257	6.908	7.554	7.875	9.011	9.120	8.755	7.899	6.984	5.780	4.975	3.929	3.585	3.277	3.349	3.421	3.293	3.501	3.877	4.092	4.356	4.184	4.782	4.981	4.983
450.0	 1611	 1437	 1041	 1232	 1464	 1670	 1754	 1530	 1084	700.9	546.0	540.2	586.4	631.7	662.6	700.1	733.5	740.9	724.3	650.7	529.3	425.4	371.5	334.2	309.1	295.8	287.7	280.1	275.3	264.6	246.9	224.6	199.5	182.6	161.4	115.9	78.71	53.07	36.61	26.46	19.00	14.63	12.81	21.35	85.31	224.6	280.6	113.8	9.370	3.800	4.046	5.506	6.138	7.069	7.688	8.395	9.136	9.638	9.230	8.185	7.265	6.099	5.088	3.977	3.543	3.219	3.192	3.395	3.319	3.445	3.719	3.931	4.287	4.304	4.637	4.842	5.107
455.0	 1060	 1859	 1179	 1176	 1468	 1709	 1801	 1545	 1096	686.2	514.9	506.5	544.8	592.6	624.2	665.7	693.3	703.7	691.6	612.8	487.9	384.1	338.1	308.4	290.3	282.2	280.0	275.9	271.9	263.8	252.1	228.4	199.9	173.8	154.8	132.3	90.00	57.40	40.90	29.72	21.54	16.68	12.46	12.48	25.66	56.43	135.8	394.6	154.2	8.252	4.012	5.352	5.872	6.913	7.636	8.218	9.242	9.887	9.334	8.613	7.548	6.020	4.833	3.924	3.245	2.898	3.091	3.295	3.167	3.144	3.583	3.614	3.951	4.076	4.465	4.399	4.961
460.0	754.7	 1717	 1524	 1154	 1426	 1689	 1775	 1542	 1080	668.4	489.3	471.4	510.9	557.1	587.7	632.4	658.9	669.5	648.1	582.3	457.7	356.4	313.6	284.6	272.4	268.2	265.6	267.2	264.9	261.0	246.8	221.4	197.4	167.4	144.8	129.9	102.3	61.82	42.40	31.60	23.17	17.71	14.33	11.26	12.82	18.64	37.63	222.0	369.0	26.75	5.518	5.065	6.077	6.857	7.580	8.387	9.044	9.713	9.244	8.508	7.421	6.020	4.821	3.795	3.128	2.844	2.799	2.923	3.209	3.114	3.463	3.594	3.889	3.871	4.284	4.527	4.605
465.0	677.2	 1275	 1871	 1194	 1354	 1607	 1714	 1482	 1037	628.5	451.7	442.5	482.5	522.1	553.9	592.3	618.3	627.9	614.1	544.9	424.8	327.1	287.7	267.6	257.7	253.1	253.4	257.8	255.7	253.7	238.6	218.3	192.6	162.5	136.4	118.9	104.0	68.94	43.32	31.85	24.12	18.80	14.85	11.98	10.11	10.17	13.49	62.54	264.6	289.9	22.88	5.230	5.831	6.441	7.514	8.039	8.957	9.212	9.209	8.353	6.986	5.831	4.342	3.505	2.985	2.751	2.804	2.958	3.019	3.152	3.209	3.326	3.710	3.913	4.258	4.378	4.326
470.0	614.5	844.1	 1645	 1524	 1262	 1485	 1597	 1390	964.4	576.8	411.1	393.6	426.0	468.4	499.3	535.6	560.2	561.5	546.1	485.6	374.7	287.0	253.3	235.5	228.8	228.2	231.6	234.5	235.5	232.5	221.8	202.1	178.8	151.4	126.8	104.4	89.63	74.13	48.92	32.74	24.59	19.13	15.01	12.41	9.831	8.391	8.151	18.77	72.60	199.7	208.3	96.76	9.830	6.139	6.731	7.545	8.371	8.598	8.724	7.686	6.406	5.207	4.315	3.174	2.855	2.470	2.595	2.553	2.811	2.820	3.019	3.047	3.371	3.454	3.786	4.067	4.252
475.0	563.3	659.9	 1018	 1753	 1310	 1341	 1434	 1250	860.7	519.7	364.5	346.1	372.2	414.1	442.1	471.8	493.1	493.3	481.8	421.8	324.7	247.9	217.5	206.1	201.5	202.2	207.2	208.3	212.5	212.0	200.0	185.1	163.7	138.7	115.3	93.98	75.24	64.56	55.70	37.02	24.87	19.32	15.48	12.24	10.59	8.557	7.146	8.868	20.19	48.88	98.96	266.1	107.3	9.269	6.048	6.930	7.693	7.883	7.808	7.283	5.947	4.843	3.960	2.871	2.503	2.260	2.159	2.345	2.436	2.704	2.612	2.836	3.007	3.133	3.586	3.571	3.544
480.0	518.1	577.7	725.4	 1553	 1558	 1234	 1324	 1160	796.8	473.6	328.0	316.6	335.4	375.1	399.6	426.4	451.2	444.9	434.1	381.6	289.3	218.9	194.8	184.8	181.9	185.6	188.6	192.0	195.0	193.3	185.4	170.1	151.6	129.2	107.7	86.93	69.05	55.48	53.00	42.77	26.65	19.25	15.89	12.89	10.58	8.896	7.231	6.684	8.736	14.55	27.20	142.7	247.3	30.82	7.146	6.665	7.134	7.372	7.290	6.551	5.734	4.739	3.651	2.983	2.325	2.174	2.140	2.197	2.396	2.484	2.418	2.562	2.970	2.909	3.081	3.384	3.135
485.0	498.3	536.8	613.3	 1121	 1721	 1230	 1212	 1060	741.1	432.7	299.2	287.6	304.8	342.1	362.5	389.8	408.7	408.4	393.2	343.9	260.6	198.2	175.6	168.1	164.6	169.3	172.1	173.7	179.3	178.7	172.7	158.4	138.8	119.6	100.6	82.35	64.26	49.70	45.59	44.06	30.19	20.05	15.84	12.73	10.49	9.132	7.402	6.311	6.090	7.034	9.671	40.58	184.5	218.9	26.09	6.298	6.754	6.794	6.893	6.049	5.294	4.331	3.471	2.750	2.094	2.136	2.082	2.207	2.259	2.334	2.538	2.382	2.743	2.768	2.943	3.036	3.132
490.0	434.3	498.5	522.7	747.9	 1459	 1442	 1094	931.6	646.6	381.6	264.6	254.6	271.1	298.3	315.8	339.1	352.9	351.6	340.6	298.5	227.4	170.9	152.5	145.3	144.8	146.2	150.2	154.3	158.6	159.1	152.5	140.6	124.7	107.0	91.13	73.82	58.56	45.31	37.64	36.63	33.93	23.71	15.81	12.47	10.34	9.230	7.444	6.444	5.518	5.274	5.702	12.77	51.13	144.0	195.8	86.55	10.15	6.277	6.125	5.277	4.722	3.793	3.100	2.429	1.985	1.896	1.761	1.888	1.970	2.053	2.167	2.254	2.439	2.474	2.795	2.833	2.875
495.0	370.2	443.1	452.6	581.3	938.3	 1534	 1074	794.9	554.0	326.9	233.1	214.6	233.4	256.0	272.3	287.6	297.7	297.5	290.4	251.3	191.3	144.5	129.9	124.6	125.0	126.9	128.9	134.1	136.7	136.3	131.5	121.7	108.1	93.65	79.46	65.51	51.75	40.45	33.21	28.66	29.64	28.41	18.19	12.41	10.52	8.789	7.699	6.832	5.748	5.201	4.609	6.634	15.07	36.52	98.04	238.8	105.7	8.941	5.446	4.947	4.280	3.521	2.819	2.173	1.697	1.760	1.657	1.731	1.753	1.857	1.869	2.023	2.073	2.276	2.403	2.434	2.769
500.0	301.8	395.3	409.2	499.8	671.0	 1294	 1218	705.1	494.3	293.6	204.6	190.9	209.2	222.5	237.2	252.4	263.0	257.2	251.5	218.9	164.5	126.9	113.2	109.2	109.2	112.5	115.2	118.5	119.7	121.1	116.9	108.1	95.26	82.60	69.87	58.04	47.56	37.34	29.98	24.44	23.58	27.46	21.60	13.83	10.21	8.588	7.607	6.629	6.038	5.230	4.524	4.951	6.919	11.62	27.14	131.7	246.2	32.19	5.991	4.218	4.067	3.121	2.472	2.046	1.831	1.514	1.404	1.499	1.711	1.708	1.723	1.950	1.915	2.149	2.130	2.119	2.385
505.0	274.7	350.3	391.5	454.7	557.3	912.0	 1328	693.4	430.5	258.8	179.6	171.6	182.6	196.6	209.2	221.6	227.3	225.3	223.2	191.0	145.5	111.3	100.2	96.84	97.45	98.10	101.5	104.1	105.8	107.2	103.2	95.94	86.80	73.80	63.54	51.93	42.38	33.59	26.86	22.47	19.95	22.85	23.51	16.16	10.57	8.582	7.442	6.580	5.650	5.179	4.695	4.470	4.921	5.924	9.435	37.82	175.0	197.5	26.62	4.342	3.382	2.842	2.341	1.860	1.740	1.513	1.415	1.410	1.577	1.720	1.645	1.816	1.854	1.883	2.001	2.025	2.090
510.0	235.7	280.1	335.4	377.2	453.0	600.7	 1047	870.2	375.2	215.0	155.1	145.8	157.6	168.7	174.3	184.1	189.2	187.2	181.9	159.4	121.1	91.84	84.13	80.69	81.62	82.50	84.61	87.42	90.22	90.59	87.68	80.90	73.13	63.27	54.43	44.80	37.41	29.58	24.73	20.34	17.66	17.14	18.84	18.61	12.72	8.703	7.253	6.303	5.729	4.885	4.702	4.377	4.318	4.491	5.282	11.62	48.68	124.2	162.4	70.42	6.890	2.501	2.042	1.661	1.598	1.404	1.321	1.327	1.436	1.538	1.461	1.610	1.715	1.629	1.791	1.919	1.894
515.0	212.4	224.6	267.3	341.4	384.3	451.7	616.3	920.4	437.1	182.1	131.6	123.7	130.6	136.0	142.8	151.9	155.5	152.4	147.2	127.5	97.15	77.08	69.72	67.33	67.51	68.54	70.33	72.00	73.30	74.50	72.61	66.93	60.76	52.60	44.56	37.94	31.54	25.65	21.40	17.97	15.76	13.96	13.27	16.31	15.65	10.53	7.249	6.167	5.551	4.797	4.576	4.624	4.109	4.042	4.093	5.606	13.91	31.27	72.07	181.1	33.76	5.233	1.851	1.574	1.424	1.260	1.255	1.318	1.242	1.515	1.290	1.354	1.641	1.540	1.653	1.578	1.728
520.0	190.9	194.9	227.2	294.0	341.7	373.3	433.6	734.6	593.6	171.6	119.6	106.5	114.1	117.4	122.3	128.4	132.7	130.0	125.6	110.6	84.30	65.85	59.18	56.93	58.10	58.67	59.86	62.73	64.69	64.90	62.17	58.37	51.81	45.43	39.00	33.52	27.60	23.13	19.93	16.77	14.41	12.58	11.36	12.37	15.19	12.35	7.860	6.156	5.267	4.653	4.349	4.428	4.096	4.038	3.787	4.087	6.100	9.807	19.77	96.46	166.3	30.02	2.823	1.535	1.285	1.246	1.181	1.106	1.252	1.490	1.309	1.215	1.418	1.309	1.454	1.524	1.615
525.0	163.4	171.1	191.0	256.6	296.2	323.2	349.4	478.8	682.7	223.5	101.0	95.02	99.86	105.1	107.8	111.7	115.8	111.3	106.3	95.41	72.85	56.97	51.65	50.83	49.97	51.04	52.71	54.39	57.35	56.99	54.92	51.63	44.82	39.90	34.92	30.75	24.92	20.71	17.81	15.21	13.29	11.27	10.70	9.948	12.40	13.50	8.919	6.347	5.097	4.580	4.149	4.097	3.967	4.039	3.592	3.729	4.070	4.812	6.915	26.95	114.1	144.6	23.55	1.740	1.250	1.196	1.031	1.123	1.223	1.227	1.188	1.221	1.322	1.268	1.335	1.457	1.604
530.0	137.7	148.7	165.8	198.1	260.2	277.1	278.1	294.4	494.6	383.2	107.0	81.13	84.95	89.56	89.25	93.83	95.77	92.48	89.05	78.33	58.97	47.94	43.26	42.72	41.69	44.11	44.19	45.94	47.93	47.45	46.34	43.24	38.41	34.03	29.53	26.04	21.55	18.03	15.71	13.44	11.77	10.28	9.598	8.953	9.096	11.52	11.06	7.576	5.119	4.452	4.090	3.878	3.841	3.742	3.592	3.310	3.494	3.547	3.784	8.153	30.79	87.86	118.8	53.86	4.384	1.163	1.086	1.056	1.128	1.086	1.080	1.139	1.203	1.185	1.069	1.269	1.371
535.0	119.8	125.3	134.4	158.7	205.7	238.8	225.5	211.4	244.3	450.9	219.6	70.87	70.37	74.28	75.02	76.57	77.21	75.34	71.47	63.46	49.69	39.61	35.68	34.49	34.49	37.60	36.90	37.36	39.68	39.48	38.25	36.18	31.90	27.75	24.70	21.63	18.33	14.93	13.01	11.67	10.66	9.082	8.301	7.792	7.224	7.726	10.09	9.534	5.775	4.261	3.847	3.681	3.663	3.590	3.597	3.240	2.985	3.053	3.165	3.796	8.627	21.39	49.67	135.8	33.31	3.768	1.071	0.999	1.038	1.111	1.051	1.039	1.139	1.039	1.035	1.247	1.406
540.0	101.1	114.7	121.9	132.4	167.5	210.5	200.3	173.8	145.5	329.8	357.0	74.37	62.08	65.35	65.80	63.92	66.03	64.49	61.09	53.92	42.63	33.73	30.86	30.60	30.26	31.17	32.05	32.65	34.60	33.71	32.72	29.95	27.53	24.40	22.23	18.33	16.46	13.53	12.14	10.59	9.603	8.356	7.979	7.200	6.679	6.510	7.576	9.303	7.232	4.647	3.670	3.590	3.500	3.194	3.159	3.273	3.045	2.798	2.803	2.684	3.618	6.283	13.06	70.07	121.2	28.63	2.062	1.038	1.060	1.006	0.994	1.043	1.034	1.113	1.078	1.216	1.266
545.0	96.84	104.6	110.1	114.4	138.7	181.1	179.8	144.8	111.4	183.6	402.9	139.0	54.93	56.95	57.09	56.38	57.13	55.91	53.16	46.55	37.01	29.46	26.80	26.95	27.33	27.05	27.86	28.39	30.00	29.08	28.70	27.03	24.46	21.65	19.68	16.31	14.40	12.52	11.07	9.599	8.618	7.800	7.081	6.516	5.837	5.576	5.847	7.840	8.291	5.169	3.587	3.451	3.214	3.044	2.848	3.134	3.050	2.693	2.488	2.484	2.467	2.902	4.206	19.09	78.57	109.0	21.60	1.435	1.065	0.998	1.005	0.999	0.887	1.126	1.050	1.086	1.220
550.0	88.92	91.82	88.80	102.6	112.0	141.7	159.1	123.4	91.43	91.51	252.7	273.7	69.04	47.81	47.69	46.95	47.47	45.49	43.96	38.27	29.92	24.74	23.07	22.75	22.43	22.72	23.59	24.06	24.68	24.38	23.90	23.00	20.29	18.03	16.13	14.10	11.95	10.74	9.461	8.438	7.479	7.079	6.450	5.779	5.288	5.005	4.735	5.578	6.968	6.482	4.374	3.279	2.867	2.801	2.536	2.793	2.753	2.675	2.386	2.216	2.020	1.994	2.128	5.391	20.81	62.40	86.69	40.67	4.017	0.928	0.992	0.923	0.935	0.929	0.998	1.082	1.079
555.0	77.88	82.29	75.95	83.88	87.69	103.5	128.5	111.2	75.95	59.97	105.4	278.3	172.6	40.88	38.67	38.43	37.90	37.58	34.08	30.53	24.86	20.85	18.64	18.53	18.02	18.42	19.22	19.57	19.99	20.01	19.20	18.15	16.65	14.76	13.14	11.74	10.48	9.318	8.212	7.367	6.092	5.946	5.496	5.165	4.582	4.356	4.079	4.197	4.556	5.818	5.272	3.586	2.748	2.720	2.553	2.574	2.559	2.332	2.238	2.101	1.848	1.802	1.603	2.253	5.753	14.92	34.05	88.42	33.19	3.260	0.942	0.857	0.952	0.923	0.918	1.066	1.002
560.0	69.64	75.59	64.20	68.52	72.61	83.81	101.6	102.4	66.71	47.39	56.69	183.3	264.3	49.43	33.64	32.22	33.11	30.95	28.75	26.16	20.43	18.06	15.23	15.51	15.18	15.89	16.37	16.95	16.83	16.98	16.70	15.33	14.07	12.47	10.86	9.659	9.015	8.072	7.068	6.424	5.746	5.185	4.893	4.791	4.354	3.965	3.851	3.631	3.508	4.493	5.264	4.342	2.868	2.382	2.319	2.191	2.485	2.107	2.318	2.068	1.851	1.439	1.432	1.602	2.211	4.234	8.859	42.16	87.25	26.71	1.649	0.887	0.895	0.899	0.967	1.181	0.888
565.0	68.34	72.33	56.49	63.92	65.13	70.36	78.61	91.08	63.47	42.67	38.47	93.69	268.5	111.7	28.88	27.25	27.99	26.34	24.60	22.31	17.25	14.73	13.61	13.34	13.45	13.70	13.60	13.76	14.58	14.52	14.20	13.05	12.01	10.72	9.752	8.373	7.529	7.059	6.251	5.817	5.092	4.587	4.354	4.368	3.837	3.738	3.540	3.205	3.105	3.206	4.501	4.445	3.036	2.239	2.162	2.028	2.313	1.805	1.824	1.979	1.835	1.422	1.435	1.284	1.492	1.755	2.907	11.15	51.87	75.39	18.29	1.164	0.932	0.892	0.853	0.918	0.832
570.0	66.56	63.36	52.99	50.56	54.42	56.49	60.98	69.26	63.37	35.59	32.12	44.01	150.6	203.7	47.56	22.43	22.39	20.49	19.72	17.50	13.78	11.65	11.55	10.82	10.87	11.04	10.83	10.85	11.31	11.64	11.27	10.14	9.715	8.552	7.803	6.893	6.184	5.822	5.065	4.764	4.338	3.947	3.741	3.423	3.168	3.146	2.850	2.813	2.503	2.477	2.991	3.755	3.256	2.490	1.924	1.909	1.877	1.761	1.550	1.685	1.644	1.549	1.367	1.249	1.238	1.242	1.439	3.244	13.62	39.50	55.12	21.73	2.925	0.850	0.893	0.846	0.849
575.0	66.28	54.17	45.06	41.17	44.17	45.04	46.47	48.67	57.34	38.55	27.01	29.76	56.59	162.4	131.1	18.06	16.99	15.88	15.44	13.01	10.57	9.037	8.715	8.329	8.661	8.464	8.274	8.650	8.881	8.968	8.394	8.101	7.495	6.725	6.387	5.544	4.884	4.776	4.206	3.681	3.364	3.373	3.197	2.987	2.582	2.486	2.407	2.162	2.050	1.944	1.895	2.403	3.050	2.934	1.898	1.714	1.609	1.645	1.481	1.368	1.407	1.520	1.394	1.213	1.014	1.005	1.124	1.545	3.797	9.684	20.19	51.23	28.37	2.608	0.856	0.871	0.895
580.0	63.41	48.03	42.07	37.54	37.75	36.47	40.62	37.80	47.89	42.33	26.61	23.95	27.89	98.04	188.8	34.13	14.19	13.05	12.86	10.84	8.918	7.582	7.144	6.936	7.173	7.205	7.085	7.337	7.048	7.231	7.104	6.818	6.311	5.459	5.261	4.663	4.416	4.041	3.615	3.397	2.735	2.864	2.705	2.510	2.334	2.288	2.299	2.080	1.829	1.661	1.572	1.765	2.317	2.815	1.994	1.631	1.448	1.497	1.315	1.296	1.234	1.239	1.318	1.164	1.078	1.026	1.019	1.186	1.433	2.876	5.405	23.74	52.10	19.65	1.311	0.910	0.885
585.0	56.26	44.84	38.81	32.90	33.82	32.86	38.38	31.61	36.67	44.19	28.77	23.27	20.27	48.38	165.5	89.83	12.55	11.71	10.77	9.655	8.014	6.481	6.345	6.354	5.985	5.842	6.029	6.299	6.008	6.274	6.237	5.702	5.457	4.638	4.676	3.937	3.713	3.684	3.305	2.957	2.661	2.542	2.461	2.363	2.323	1.990	1.917	1.751	1.560	1.520	1.361	1.493	1.710	2.612	2.316	1.753	1.334	1.456	1.342	1.283	1.098	1.213	1.191	1.141	1.069	1.067	0.925	1.060	1.022	1.304	1.897	6.542	28.96	44.23	11.41	1.099	0.794
590.0	53.47	42.92	37.16	30.70	31.87	29.94	32.84	30.81	31.65	43.51	38.88	24.47	20.36	24.97	84.98	148.0	33.93	9.814	8.537	7.559	6.633	5.622	5.551	5.170	5.042	4.914	4.876	5.098	4.950	5.149	5.071	4.676	4.402	3.781	3.643	3.325	3.132	3.012	2.666	2.399	2.280	2.156	2.007	1.968	1.880	1.667	1.649	1.519	1.392	1.313	1.206	1.288	1.355	1.885	2.079	1.907	1.418	1.284	1.143	1.190	1.057	1.136	1.136	1.167	1.212	0.997	0.952	1.052	0.972	1.017	1.090	2.156	7.700	22.05	30.73	16.84	2.181
595.0	47.75	48.27	35.92	34.76	31.31	30.10	31.71	28.71	32.98	39.18	48.85	34.17	25.99	23.31	35.99	112.3	104.3	10.97	7.193	5.926	5.591	4.998	4.518	4.154	4.238	4.076	3.851	3.977	4.311	4.016	4.169	3.896	3.534	3.103	2.974	2.699	2.699	2.396	2.242	2.062	1.983	1.794	1.785	1.632	1.708	1.516	1.515	1.360	1.354	1.073	1.093	1.179	1.140	1.306	1.606	1.780	1.536	1.290	1.064	1.082	1.022	1.045	1.120	1.048	1.108	1.033	0.992	0.894	0.983	1.032	0.856	1.161	2.422	5.519	11.26	30.80	19.75
600.0	57.78	46.50	39.23	33.07	34.78	30.98	37.78	36.34	40.18	46.94	63.04	54.27	38.21	33.09	31.27	69.38	148.7	31.21	7.262	5.132	4.590	4.400	3.924	3.619	3.553	3.635	3.497	3.455	3.437	3.421	3.588	3.325	2.912	2.703	2.747	2.631	2.637	2.235	2.115	1.863	1.755	1.637	1.632	1.442	1.389	1.554	1.415	1.371	1.101	1.025	1.089	1.092	1.017	1.097	1.237	1.604	1.742	1.426	1.100	1.152	1.066	1.122	1.161	1.065	1.093	1.173	1.139	1.062	1.064	1.031	0.858	1.006	1.283	1.929	3.259	13.95	31.00
605.0	62.09	56.19	43.21	36.90	37.83	37.22	43.89	47.96	58.25	65.99	81.71	91.03	66.50	55.64	48.11	54.50	137.3	85.75	8.452	4.944	4.202	3.694	3.410	3.304	3.157	3.156	3.292	2.969	3.148	3.207	2.995	3.018	2.928	2.477	2.735	2.311	2.317	2.034	1.938	1.504	1.699	1.614	1.602	1.328	1.457	1.384	1.197	1.230	1.121	0.957	1.078	0.942	0.995	0.978	1.051	1.420	1.563	1.533	1.251	1.149	1.147	1.060	1.196	1.147	1.226	1.186	1.372	1.227	1.177	1.184	1.004	1.044	1.189	1.229	1.548	3.987	16.76
610.0	66.73	55.59	49.93	40.51	41.54	43.92	54.16	62.85	74.41	91.24	108.2	121.1	104.2	80.29	72.14	60.32	98.92	141.3	30.28	4.530	3.742	3.345	3.158	2.795	2.818	2.867	2.874	2.761	2.828	2.906	2.849	2.702	2.440	2.245	2.397	2.189	2.149	1.916	1.723	1.570	1.505	1.496	1.375	1.353	1.280	1.286	1.098	1.191	1.144	0.927	0.930	0.980	0.977	0.945	0.988	1.229	1.349	1.631	1.492	1.243	1.180	1.160	1.237	1.265	1.337	1.291	1.458	1.490	1.344	1.276	1.194	1.073	1.174	1.189	1.205	1.739	4.937
615.0	70.02	63.42	49.81	47.24	44.22	45.12	59.24	63.45	77.32	94.80	105.2	121.4	115.6	86.03	74.62	60.00	69.76	102.5	84.86	5.718	3.375	2.872	2.594	2.572	2.650	2.262	2.392	2.379	2.352	2.566	2.292	2.238	2.099	1.852	1.912	1.896	1.775	1.674	1.581	1.498	1.317	1.287	1.183	1.189	1.232	1.229	1.081	1.042	1.101	0.834	0.842	1.018	0.959	0.924	1.016	1.052	1.118	1.304	1.490	1.294	1.207	1.172	1.244	1.292	1.320	1.223	1.331	1.427	1.488	1.314	1.213	1.197	1.204	1.119	1.112	1.200	1.938
620.0	72.64	67.45	61.06	44.49	43.71	42.41	57.42	64.14	78.23	91.92	101.5	118.0	119.2	91.66	75.72	60.42	60.48	67.43	109.6	21.22	2.883	2.663	2.597	2.395	2.558	2.170	2.269	2.214	2.050	2.156	2.233	1.952	1.985	1.888	1.745	1.556	1.668	1.382	1.578	1.474	1.253	1.120	1.239	1.063	1.109	1.007	1.025	0.951	0.975	0.834	0.821	1.007	0.841	0.911	0.964	1.060	0.976	1.199	1.410	1.297	1.237	1.140	1.149	1.300	1.204	1.267	1.274	1.427	1.539	1.400	1.305	1.176	1.237	1.110	1.127	1.128	1.392
625.0	80.73	72.31	58.33	46.59	42.89	46.82	56.72	64.53	74.71	87.73	103.1	115.1	117.3	99.07	78.56	60.09	57.28	47.71	83.60	60.96	3.238	2.700	2.263	2.188	2.137	2.090	2.041	2.125	1.946	1.847	2.020	1.794	1.702	1.640	1.545	1.519	1.500	1.388	1.345	1.401	1.159	1.033	1.127	1.032	1.026	1.011	0.988	1.026	0.986	0.829	0.748	0.936	0.875	0.899	0.924	0.912	0.934	1.129	1.356	1.312	1.327	1.149	1.107	1.215	1.112	1.234	1.263	1.338	1.345	1.399	1.263	1.064	1.160	1.125	1.049	1.117	1.137
630.0	82.74	79.28	63.51	50.32	46.18	48.63	59.24	65.09	73.83	89.18	102.3	116.1	114.6	104.5	81.59	61.84	57.61	41.48	39.61	83.91	20.35	2.645	2.161	2.086	1.928	1.769	1.766	1.840	1.754	1.782	1.700	1.610	1.546	1.584	1.510	1.529	1.265	1.403	1.199	1.129	1.174	1.041	1.084	0.955	1.045	1.020	0.967	0.966	0.921	0.774	0.752	0.814	0.847	0.870	0.845	0.919	0.967	0.994	1.200	1.150	1.355	1.177	1.212	1.209	1.067	1.300	1.263	1.295	1.438	1.327	1.302	1.156	1.141	1.209	1.097	1.054	1.133
635.0	94.40	92.34	74.21	51.87	44.75	47.11	60.08	66.42	72.83	88.76	105.3	118.7	114.1	103.6	87.97	65.61	59.14	40.10	18.48	48.17	65.47	3.918	2.040	1.947	1.779	1.633	1.667	1.745	1.624	1.410	1.644	1.660	1.550	1.470	1.250	1.306	1.210	1.177	1.071	0.985	1.063	1.135	1.047	1.059	0.947	1.060	0.936	0.986	0.960	0.841	0.811	0.802	0.790	0.902	0.812	0.937	1.031	1.015	1.048	1.128	1.137	1.181	1.215	1.231	1.198	1.249	1.431	1.223	1.454	1.286	1.316	1.334	1.184	1.179	1.236	0.977	1.062
640.0	110.6	110.3	80.03	51.36	43.59	48.08	57.77	62.01	70.73	91.91	102.7	115.7	112.7	101.6	91.36	65.45	57.80	39.52	13.18	22.53	80.64	17.38	2.236	1.944	1.714	1.596	1.690	1.600	1.565	1.457	1.579	1.582	1.502	1.403	1.202	1.209	1.277	1.151	1.145	1.002	1.015	1.194	1.180	0.965	0.939	1.041	0.952	1.071	0.913	0.793	0.818	0.849	0.810	0.901	0.854	0.867	1.029	0.931	1.010	1.054	1.098	1.298	1.206	1.225	1.206	1.152	1.319	1.234	1.393	1.230	1.275	1.284	1.262	1.099	1.052	1.073	1.099
645.0	131.0	123.0	91.16	60.10	46.20	45.68	56.40	61.82	69.54	86.22	98.28	111.1	108.8	98.13	92.87	63.59	54.83	36.97	12.16	10.96	57.17	47.58	2.563	1.969	1.656	1.464	1.504	1.557	1.423	1.385	1.343	1.322	1.319	1.310	1.221	1.043	1.259	1.140	1.154	0.971	0.996	1.149	1.162	0.908	1.097	1.022	0.974	1.109	0.896	0.821	0.726	0.825	0.795	0.859	0.776	0.919	0.881	0.870	0.992	1.036	0.928	1.101	1.225	1.262	1.090	1.177	1.215	1.222	1.205	1.270	1.142	1.157	1.385	1.185	1.078	1.044	1.095
650.0	143.1	137.1	102.5	65.33	48.27	45.16	53.67	58.93	66.77	77.83	93.92	105.5	103.1	93.61	87.64	64.44	51.67	34.97	12.31	7.851	28.96	73.03	7.602	2.058	1.421	1.575	1.427	1.490	1.291	1.573	1.284	1.351	1.182	1.156	1.133	1.010	1.108	1.028	1.070	1.015	0.884	0.980	0.966	0.960	0.987	1.073	0.969	1.051	0.966	0.892	0.745	0.825	0.810	0.772	0.729	0.865	0.947	0.884	0.996	0.986	0.984	1.079	1.074	1.200	1.156	1.204	1.100	1.225	1.221	1.239	1.105	1.215	1.296	1.209	1.127	0.897	1.074
