Sample:	'1
File name:	¡˙ÃÔ≥ı”ÍÀÆ 6±∂.FD3
Run date:	'10:36:51, 09/10/2025
Operator:	Administrator
Comment:	'

Instrument
Model:	F-2700 FL Spectrophotometer
Serial number:	24D1-003
ROM Version:	4J14000 07

Instrument parameters
Measurement type:	3-D scan
Data mode:	Fluorescence
EX  Start WL:	220.0 nm
EX  End WL:	600.0 nm
EX Sampling interval:	5.0 nm
EM  Start WL:	230.0 nm
EM  End WL:	650.0 nm
EM Sampling interval:	5.0 nm
Scan speed:	12000 nm/min
EX Slit:	5.0 nm
EM Slit:	5.0 nm
PMT Voltage:	700 V
Response:	Auto 
Corrected spectra:	Off
Contour interval:	50.000

Peak integration
Integration method:	Rectangular
Sensitivity:	1
Threshold:	1.000

Peaks
No.	ApexEX/EM(nm)	Height(Data)
1	225.0/340.0	1452
2	225.0/540.0	54.95
3	240.0/265.0	141.7
4	240.0/525.0	120.4
5	245.0/535.0	109.0
6	250.0/550.0	112.8
7	255.0/280.0	517.0
8	255.0/415.0	860.3
9	255.0/565.0	121.4
10	260.0/575.0	144.5
11	265.0/585.0	172.1
12	270.0/300.0	2125
13	270.0/600.0	171.2
14	275.0/305.0	2271
15	275.0/610.0	151.6
16	280.0/335.0	1989
17	280.0/620.0	121.3
18	285.0/635.0	94.27
19	305.0/410.0	1203
20	320.0/360.0	713.3
21	415.0/485.0	68.28
22	425.0/500.0	51.21
23	445.0/525.0	26.97
24	455.0/335.0	4.442
25	455.0/540.0	16.99
26	470.0/560.0	8.321
27	540.0/295.0	8.417
28	545.0/300.0	9.208
29	550.0/305.0	9.724
30	565.0/335.0	8.004
31	570.0/315.0	8.078
32	575.0/290.0	31.11
33	575.0/320.0	8.451
34	585.0/325.0	8.425

Data points
	220.0	225.0	230.0	235.0	240.0	245.0	250.0	255.0	260.0	265.0	270.0	275.0	280.0	285.0	290.0	295.0	300.0	305.0	310.0	315.0	320.0	325.0	330.0	335.0	340.0	345.0	350.0	355.0	360.0	365.0	370.0	375.0	380.0	385.0	390.0	395.0	400.0	405.0	410.0	415.0	420.0	425.0	430.0	435.0	440.0	445.0	450.0	455.0	460.0	465.0	470.0	475.0	480.0	485.0	490.0	495.0	500.0	505.0	510.0	515.0	520.0	525.0	530.0	535.0	540.0	545.0	550.0	555.0	560.0	565.0	570.0	575.0	580.0	585.0	590.0	595.0	600.0
230.0	18.28	278.4	514.7	113.5	6.144	4.316	3.896	3.591	3.054	3.151	3.382	2.963	2.369	2.256	2.144	1.861	1.651	1.369	1.294	1.271	1.131	0.991	0.910	0.938	0.925	0.886	0.701	0.682	0.691	0.619	0.602	0.551	0.618	0.549	0.468	0.481	0.364	0.418	0.391	0.402	0.421	0.413	0.356	0.362	0.372	0.325	0.415	1.134	1.786	1.294	0.641	0.226	0.256	0.221	0.286	0.247	0.237	0.270	0.245	0.268	0.254	0.272	0.294	0.283	0.234	0.243	0.252	0.237	0.242	0.235	0.262	0.225	0.228	0.288	0.240	0.233	0.246
235.0	36.12	79.90	324.2	542.9	165.9	9.524	4.697	4.662	3.274	3.308	3.507	2.824	2.611	2.441	2.096	1.951	1.738	1.536	1.411	1.227	1.122	1.081	0.949	0.927	0.919	0.931	0.605	0.590	0.743	0.655	0.498	0.451	0.559	0.580	0.387	0.447	0.455	0.264	0.388	0.291	0.301	0.371	0.300	0.476	0.418	0.378	0.348	0.438	0.749	1.157	2.049	1.401	0.956	0.375	0.292	0.240	0.249	0.258	0.252	0.301	0.262	0.237	0.292	0.252	0.302	0.201	0.242	0.197	0.172	0.243	0.308	0.165	0.312	0.221	0.209	0.212	0.215
240.0	53.95	37.35	100.3	508.8	522.9	155.4	7.304	3.942	3.607	4.612	3.340	3.453	2.499	2.643	2.645	1.856	1.899	1.668	1.340	1.367	1.265	1.169	1.182	1.064	0.876	0.856	0.780	0.635	0.618	0.908	0.593	0.500	0.594	0.699	0.423	0.402	0.326	0.359	0.311	0.342	0.437	0.375	0.311	0.413	0.437	0.419	0.407	0.349	0.363	0.540	1.010	1.952	2.462	1.823	0.911	0.341	0.200	0.265	0.244	0.215	0.317	0.251	0.226	0.242	0.262	0.263	0.199	0.245	0.181	0.223	0.230	0.192	0.256	0.235	0.184	0.237	0.173
245.0	38.52	44.44	38.68	170.9	678.5	853.4	153.4	4.758	3.651	3.943	3.310	3.246	2.675	2.412	2.604	2.222	2.155	1.625	1.711	1.164	1.169	1.097	1.129	1.050	0.932	1.010	0.993	0.712	0.581	0.753	0.526	0.610	0.539	0.592	0.504	0.422	0.394	0.504	0.379	0.421	0.357	0.327	0.265	0.412	0.381	0.380	0.429	0.417	0.325	0.348	0.401	0.785	1.514	2.765	3.301	2.051	0.772	0.294	0.242	0.247	0.261	0.247	0.239	0.248	0.271	0.186	0.229	0.222	0.260	0.228	0.233	0.357	0.217	0.247	0.226	0.264	0.264
250.0	22.86	41.73	60.94	63.74	219.1	881.4	1513	614.8	35.68	5.609	4.337	4.136	3.328	2.981	2.377	2.137	1.846	1.585	1.631	1.201	1.239	1.148	1.035	1.088	1.040	0.871	0.862	0.698	0.854	0.576	0.557	0.600	0.571	0.481	0.512	0.491	0.354	0.462	0.390	0.337	0.333	0.292	0.334	0.377	0.412	0.352	0.366	0.410	0.410	0.400	0.327	0.383	0.544	1.022	1.898	3.034	4.834	4.562	2.950	1.138	0.330	0.310	0.301	0.260	0.275	0.219	0.216	0.228	0.235	0.244	0.306	0.274	0.169	0.207	0.258	0.252	0.241
255.0	18.35	21.70	47.92	103.4	78.65	223.0	1155	2610	284.6	48.10	6.255	5.133	3.860	3.737	2.850	2.312	2.072	1.753	1.449	1.361	1.463	1.385	0.849	1.166	1.187	0.861	0.882	0.814	0.837	0.711	0.609	0.625	0.569	0.529	0.522	0.367	0.371	0.391	0.429	0.337	0.304	0.328	0.309	0.362	0.407	0.298	0.287	0.259	0.345	0.400	0.492	0.625	0.452	0.383	0.648	0.898	1.720	3.884	7.951	10.29	9.754	1.923	0.324	0.234	0.273	0.193	0.242	0.325	0.238	0.353	0.320	0.398	0.185	0.216	0.248	0.300	0.240
260.0	17.25	16.52	24.20	99.27	109.9	70.58	347.1	2187	3608	257.4	27.27	6.233	5.023	3.748	2.844	2.410	2.313	1.921	1.388	1.624	1.363	1.287	1.018	1.216	1.138	0.903	0.840	0.732	0.774	0.769	0.750	0.645	0.599	0.469	0.576	0.436	0.438	0.365	0.447	0.319	0.321	0.312	0.351	0.364	0.373	0.437	0.307	0.364	0.321	0.265	0.307	0.735	0.801	0.540	0.485	0.417	0.632	1.153	3.359	8.758	22.92	17.90	4.775	0.837	0.292	0.238	0.262	0.244	0.247	0.236	0.249	0.378	0.221	0.298	0.201	0.288	0.239
265.0	17.15	16.91	13.05	49.48	141.7	107.5	95.11	698.3	3559	5049	220.2	11.72	5.748	4.386	3.346	2.670	2.727	2.138	1.891	1.586	1.376	1.089	1.216	1.267	0.967	0.983	0.881	0.912	0.764	0.759	0.842	0.614	0.603	0.576	0.613	0.513	0.379	0.323	0.370	0.354	0.289	0.391	0.468	0.408	0.324	0.447	0.343	0.337	0.328	0.228	0.347	0.416	0.695	0.997	0.831	0.408	0.371	0.523	1.001	2.640	11.10	21.50	19.81	12.77	6.129	0.481	0.210	0.275	0.257	0.231	0.282	0.275	0.331	0.273	0.270	0.268	0.339
270.0	63.14	47.73	24.19	24.72	70.58	180.9	162.3	203.9	1073	4133	6601	2435	63.78	6.541	5.179	3.501	3.164	2.198	1.835	1.506	1.575	1.348	1.158	1.199	1.076	1.106	0.867	0.943	0.814	0.838	0.716	0.606	0.622	0.591	0.586	0.544	0.431	0.409	0.357	0.461	0.388	0.466	0.488	0.526	0.456	0.491	0.432	0.369	0.326	0.304	0.276	0.334	0.392	0.624	0.831	0.962	1.163	0.714	0.578	0.921	2.928	6.142	9.035	15.24	29.35	20.92	13.92	3.714	0.520	0.235	0.294	0.302	0.322	0.237	0.272	0.228	0.294
275.0	225.8	185.1	90.53	41.38	40.38	94.01	303.3	283.3	383.2	1143	3494	8894	1341	78.21	7.089	5.195	3.522	2.368	2.168	1.731	1.620	1.220	1.425	1.345	1.416	1.130	1.130	0.875	0.801	0.692	0.677	0.871	0.622	0.634	0.618	0.634	0.451	0.526	0.680	0.540	0.698	0.777	0.695	0.802	0.810	0.801	0.756	0.650	0.633	0.429	0.345	0.430	0.357	0.369	0.411	0.616	1.117	1.812	1.852	1.096	1.398	2.019	2.833	4.501	9.028	14.62	36.83	31.10	21.43	3.492	0.490	0.331	0.345	0.294	0.243	0.257	0.253
280.0	404.2	339.3	171.0	68.98	43.13	70.07	228.1	517.0	350.3	599.4	1253	5331	7640	1012	46.59	6.638	4.989	2.593	2.587	2.070	1.762	1.294	1.431	1.206	1.255	1.187	1.054	1.019	0.909	0.835	0.731	0.759	0.642	0.719	0.741	0.552	0.534	0.586	0.725	0.693	0.878	1.149	1.088	1.200	1.349	1.353	1.087	1.171	0.982	0.536	0.396	0.461	0.463	0.418	0.487	0.534	0.726	1.299	2.419	2.699	2.114	1.837	1.942	2.807	3.744	5.029	13.53	24.32	45.57	28.47	17.95	1.332	0.373	0.325	0.379	0.305	0.291
285.0	593.1	480.1	261.9	101.6	63.59	85.94	179.2	516.4	784.5	701.5	889.0	1904	5229	7211	813.9	19.69	6.429	3.368	3.288	2.294	2.155	1.588	1.249	1.546	1.402	1.339	1.110	1.029	1.046	0.947	0.947	0.657	0.708	0.695	0.935	0.712	0.704	0.686	0.783	0.899	0.955	1.297	1.482	1.613	1.731	1.775	1.475	1.468	1.182	0.815	0.593	0.487	0.399	0.479	0.494	0.610	0.691	0.986	1.576	2.943	3.969	3.568	2.737	3.103	3.442	3.788	5.313	8.115	18.11	36.01	77.61	24.85	5.221	0.548	0.411	0.373	0.315
290.0	743.9	611.1	347.2	153.3	96.21	121.1	203.4	428.2	921.1	1313	1203	1246	1793	4304	7590	2988	48.10	5.497	4.165	3.055	2.493	1.765	1.559	1.717	1.499	1.530	1.207	1.041	0.920	0.960	1.039	0.766	0.690	0.843	0.865	0.827	0.817	0.875	0.873	1.020	1.229	1.368	1.673	1.950	2.120	2.130	2.007	1.842	1.468	0.943	0.755	0.596	0.575	0.619	0.671	0.716	0.902	1.217	1.576	2.349	3.347	4.713	5.612	5.596	5.064	4.702	4.810	4.881	6.543	10.77	27.69	31.11	29.00	36.02	54.41	9.068	0.621
295.0	788.7	665.9	405.2	196.1	136.5	164.2	256.1	465.3	825.8	1472	1903	1414	1111	1299	2869	9620	4826	54.14	7.216	4.294	2.952	2.226	1.816	1.792	1.789	1.750	1.366	1.216	1.149	1.006	0.928	0.865	0.789	0.957	0.983	1.017	0.832	0.983	0.932	1.073	1.319	1.589	1.770	1.995	2.264	2.338	2.221	2.136	1.697	1.205	0.838	0.817	0.874	0.815	0.854	0.970	1.068	1.390	1.649	2.470	3.251	4.084	5.171	7.102	8.417	7.403	5.916	5.395	4.760	4.896	7.861	8.066	8.894	23.75	108.1	109.4	25.37
300.0	750.7	650.3	417.0	223.5	165.1	201.4	305.2	506.2	842.3	1351	2125	1808	1121	744.8	900.3	4465	9999.9	669.6	36.08	6.063	3.559	2.733	2.396	2.185	2.297	1.853	1.439	1.300	1.046	1.091	1.110	0.731	0.790	0.890	0.941	1.001	0.990	0.931	0.957	1.060	1.135	1.403	1.866	2.164	2.321	2.408	2.262	2.226	1.630	1.253	0.972	0.957	0.952	0.925	1.017	1.078	1.412	1.614	1.984	2.594	3.374	4.301	4.698	6.168	8.235	9.208	8.576	6.594	4.973	3.918	4.078	3.717	3.222	6.706	32.10	66.25	58.35
305.0	717.9	639.5	419.6	249.3	211.3	262.1	374.5	573.0	896.4	1330	1872	2271	1458	796.0	562.5	1290	6152	5609	567.8	19.84	4.759	3.403	2.786	2.603	2.426	1.930	1.657	1.426	1.276	1.140	1.076	0.747	0.821	0.835	0.874	0.912	0.857	0.848	0.997	1.180	1.051	1.310	1.838	1.998	2.147	2.201	1.997	2.100	1.830	1.307	1.108	1.038	1.019	0.981	1.146	1.199	1.640	1.955	2.341	2.918	3.544	4.507	5.096	6.084	6.857	8.481	9.724	9.385	6.479	4.761	3.522	3.188	2.827	2.842	8.672	17.33	23.15
310.0	617.1	580.3	408.6	271.7	254.5	320.3	441.3	637.9	923.9	1303	1669	1990	1912	1150	664.5	620.5	1686	3517	7836	2382	33.85	5.106	3.479	3.135	2.891	2.112	1.934	1.479	1.267	1.138	1.106	0.979	0.966	0.859	0.958	0.856	0.854	0.840	1.002	1.062	0.981	1.266	1.639	1.764	1.749	2.109	1.935	1.894	1.642	1.279	1.031	1.268	1.151	1.166	1.331	1.459	1.899	2.138	2.628	3.029	3.728	4.059	4.975	5.714	6.364	6.895	7.439	8.202	8.194	7.328	5.724	3.892	3.128	2.721	3.881	5.522	6.636
315.0	598.1	596.1	448.2	314.0	299.7	369.9	500.6	692.4	933.8	1264	1589	1762	1754	1699	1029	613.7	694.5	984.3	2802	7883	3222	44.15	5.513	4.521	3.534	2.684	2.170	1.828	1.429	1.381	1.164	0.873	0.978	0.928	0.920	0.694	0.848	0.949	0.976	0.917	0.922	1.141	1.388	1.760	1.769	1.974	1.914	1.877	1.737	1.415	1.146	1.332	1.179	1.439	1.608	1.550	2.102	2.462	2.940	3.471	3.539	4.142	4.780	5.448	6.226	6.635	6.816	7.262	7.114	7.221	8.078	6.890	4.980	3.533	3.380	3.314	3.327
320.0	706.8	823.5	663.2	392.6	344.0	406.1	545.0	736.5	980.6	1299	1632	1821	1781	1766	1541	828.9	573.4	479.5	774.2	3552	7477	513.0	30.93	6.117	4.597	3.261	2.462	1.841	1.740	1.337	1.229	1.099	1.010	0.859	0.912	0.821	0.952	0.862	0.915	0.965	1.162	1.318	1.387	1.862	2.036	2.235	2.492	2.551	2.420	1.672	1.586	1.451	1.479	1.387	1.724	1.880	2.180	2.495	2.946	3.513	3.929	4.382	5.075	5.677	6.260	6.883	6.660	7.333	7.192	7.090	7.355	8.451	7.630	5.760	4.158	3.697	3.184
325.0	879.2	1119	928.8	541.1	390.8	448.0	582.9	789.0	1030	1367	1720	1921	1904	1762	1741	1238	668.3	436.5	350.7	952.0	4165	6425	449.4	20.71	6.026	3.971	2.563	2.216	1.705	1.446	1.400	1.062	1.005	0.883	0.823	0.834	0.852	0.845	0.824	0.891	1.158	1.418	1.486	1.747	2.345	2.964	2.995	3.602	3.175	2.489	2.114	1.692	1.802	1.496	1.816	2.126	2.350	2.738	3.137	3.608	4.375	4.831	5.495	5.800	6.936	7.087	7.098	7.802	7.663	7.547	7.525	8.073	8.009	8.425	6.223	5.007	3.783
330.0	960.5	1309	1136	688.6	483.1	486.9	607.2	803.6	1042	1354	1701	1936	1962	1816	1619	1440	982.1	520.8	320.2	367.4	1105	3515	5379	1963	31.73	6.620	3.716	2.634	2.031	1.798	1.595	1.215	1.093	0.989	0.936	0.822	0.868	0.747	0.842	0.996	1.039	1.290	1.574	1.965	2.578	3.151	3.560	4.065	3.777	3.089	2.480	2.207	2.191	1.853	1.995	2.058	2.518	2.807	2.980	3.721	4.347	4.566	5.202	5.880	6.464	7.021	7.621	7.802	7.935	7.859	7.942	7.716	7.309	7.269	7.176	6.967	5.546
335.0	1033	1448	1273	815.1	581.8	528.9	611.9	795.5	1021	1337	1696	1925	1989	1857	1605	1324	1181	766.6	395.0	300.5	412.4	909.3	1999	7853	3218	43.88	6.173	3.902	2.498	2.123	1.860	1.588	1.139	1.224	1.222	0.908	0.830	0.903	0.825	0.977	1.060	1.442	1.694	2.184	2.575	3.220	3.636	4.442	4.303	3.662	2.908	2.627	2.488	2.146	2.349	2.365	2.495	2.851	3.100	3.547	4.222	4.678	5.226	5.811	6.622	6.771	7.481	7.746	7.940	8.004	7.918	7.878	7.293	6.966	7.138	6.495	6.546
340.0	1020	1452	1349	868.5	632.1	548.6	616.8	787.7	999.9	1291	1632	1879	1961	1843	1618	1283	1074	966.2	538.5	322.4	290.5	352.0	564.6	3699	9999.9	2728	30.48	5.365	3.009	2.257	1.943	1.567	1.164	1.217	1.201	0.950	0.803	0.893	0.982	0.995	1.011	1.233	1.697	2.062	2.646	3.256	3.777	4.357	4.321	3.908	3.110	2.859	2.840	2.433	2.520	2.365	2.568	2.703	3.031	3.767	4.076	4.449	5.456	5.770	5.956	6.692	7.192	7.478	7.858	7.843	7.813	8.102	7.492	7.044	6.903	6.099	5.955
345.0	962.0	1333	1283	873.9	649.7	560.4	606.9	742.0	945.8	1218	1528	1766	1840	1763	1553	1246	972.3	905.3	723.7	394.6	290.9	257.9	256.3	987.5	6220	9999.9	399.1	18.17	4.489	3.028	2.267	1.849	1.186	1.289	1.318	0.996	0.786	0.830	1.096	1.042	1.109	1.415	1.637	2.030	2.393	3.162	3.295	4.284	4.315	3.749	3.074	3.217	2.785	2.629	2.330	2.337	2.587	2.738	2.900	3.500	4.032	4.220	4.789	5.306	5.574	6.257	6.785	7.069	7.446	7.261	7.715	7.587	7.253	7.055	6.658	5.981	5.509
350.0	824.6	1144	1120	837.0	643.1	575.1	587.3	702.8	880.7	1111	1383	1586	1672	1622	1451	1194	942.7	777.5	750.2	614.9	384.2	287.0	235.2	346.2	1595	5510	6385	1702	27.22	4.602	3.091	2.053	1.658	1.376	1.289	0.965	0.971	0.826	1.029	1.072	1.111	1.328	1.426	1.804	2.226	2.740	3.030	3.709	3.753	3.182	2.757	2.908	2.912	2.625	2.439	2.235	2.619	2.726	2.881	3.261	3.664	4.039	4.366	4.885	5.230	5.826	5.917	6.430	6.826	6.673	7.017	6.882	6.754	6.498	6.030	5.873	5.164
355.0	701.6	998.5	967.0	777.5	643.1	579.2	590.5	672.1	828.0	1015	1256	1433	1507	1490	1361	1158	943.9	770.1	669.0	691.3	597.5	377.3	284.1	252.9	471.5	1309	2385	6779	2599	34.49	4.726	2.870	2.248	1.604	1.343	1.072	0.964	0.950	0.968	1.023	1.122	1.085	1.437	1.641	2.114	2.502	2.577	2.970	3.302	2.784	2.531	2.751	2.635	2.704	2.445	2.221	2.369	2.625	2.951	3.004	3.429	3.545	4.034	4.353	4.712	5.392	5.128	6.039	6.010	6.226	6.622	6.420	6.229	6.355	5.874	5.571	5.071
360.0	639.3	869.8	858.9	734.0	617.2	589.0	582.9	656.5	786.3	956.7	1161	1339	1410	1389	1294	1122	950.3	794.8	683.5	648.1	713.3	523.3	339.7	268.6	252.6	390.7	612.8	3212	6526	1952	24.42	3.920	2.414	2.058	1.649	1.296	1.080	0.999	0.972	1.061	1.110	1.059	1.284	1.504	1.837	2.355	2.235	2.746	2.697	2.631	2.335	2.644	2.391	2.566	2.401	2.348	2.616	2.630	2.789	3.004	3.253	3.522	3.638	4.362	4.495	5.023	4.943	5.360	5.660	5.891	6.043	5.873	6.052	5.945	6.033	5.731	4.919
365.0	586.2	763.3	769.0	673.6	601.8	595.6	599.8	649.3	772.9	920.1	1113	1251	1320	1320	1248	1109	966.4	825.3	732.4	653.9	682.4	679.1	441.6	314.4	239.4	212.7	219.0	831.1	3792	6742	356.8	9.629	3.533	2.474	1.779	1.304	1.159	1.101	0.899	1.047	0.975	1.190	1.255	1.459	1.690	2.174	2.131	2.478	2.415	2.536	2.164	2.441	2.480	2.599	2.583	2.209	2.608	2.645	2.651	2.597	3.064	3.464	3.603	3.909	4.087	4.758	4.814	4.981	5.253	5.461	5.947	5.921	5.528	5.595	5.600	5.617	5.588
370.0	525.9	655.6	682.5	628.5	607.8	599.9	616.4	663.9	766.2	877.2	1045	1175	1233	1245	1201	1102	987.6	877.9	797.6	726.4	681.1	696.5	630.2	429.6	290.5	217.1	165.6	262.8	972.0	3794	5325	1283	20.84	3.714	2.435	1.528	1.198	1.184	0.995	1.061	0.992	1.147	1.327	1.548	1.679	1.963	2.003	2.238	2.248	2.267	2.037	2.507	2.348	2.555	2.652	2.373	2.486	2.710	2.800	2.921	3.116	3.448	3.528	3.833	3.924	4.477	4.528	4.788	5.006	5.252	5.434	5.562	5.497	5.678	5.594	5.593	5.570
375.0	499.4	583.1	601.3	600.3	583.8	610.1	645.6	694.1	763.4	850.8	991.1	1098	1168	1195	1164	1099	1019	941.4	873.7	814.2	737.9	683.5	677.3	612.3	385.8	263.0	192.3	166.7	291.2	898.7	2179	5885	2134	26.58	3.661	2.247	1.464	1.273	1.154	1.134	0.955	1.089	1.417	1.600	1.616	1.836	1.857	2.022	2.095	2.028	1.951	2.110	2.425	2.440	2.538	2.414	2.649	2.640	2.908	2.905	3.478	3.479	3.287	3.849	3.852	3.798	4.220	4.161	4.797	4.977	5.083	5.369	5.427	5.828	5.738	5.466	5.805
380.0	463.3	549.7	564.1	566.6	573.2	616.4	659.3	711.8	775.6	847.1	954.1	1067	1111	1147	1138	1105	1043	985.8	928.0	863.5	795.8	713.7	664.7	673.3	497.6	311.3	224.2	170.7	156.6	260.6	549.6	3342	6669	1520	15.95	3.068	1.883	1.447	1.425	1.291	1.110	1.299	1.311	1.556	1.525	1.970	1.752	1.796	1.959	1.993	1.858	2.209	2.410	2.474	2.551	2.602	2.578	2.862	3.007	3.002	3.526	3.362	3.448	3.644	3.565	3.625	4.277	4.165	4.437	4.972	4.876	5.296	5.258	5.685	5.689	5.769	5.629
385.0	460.7	512.9	526.7	552.3	581.1	631.6	683.1	733.4	796.4	836.9	934.1	1018	1083	1121	1132	1107	1063	1022	974.3	914.6	844.5	759.7	679.1	638.6	595.7	393.0	261.3	193.3	147.1	134.7	173.8	899.3	4537	5687	277.6	7.783	2.538	1.797	1.528	1.392	1.176	1.350	1.448	1.477	1.637	1.878	1.763	1.913	1.977	1.876	1.826	2.085	2.317	2.463	2.579	2.626	2.820	2.824	3.138	2.958	3.139	3.333	3.553	3.676	3.668	3.740	3.979	4.113	4.325	4.728	4.700	5.110	5.219	5.674	5.625	5.646	6.203
390.0	447.5	510.5	516.4	545.2	596.4	650.0	723.0	763.1	810.7	839.9	909.4	984.2	1047	1088	1128	1119	1097	1080	1036	986.4	910.5	823.0	722.5	633.3	576.4	502.1	346.5	235.4	175.9	131.4	109.8	245.3	1183	3507	4925	1029	15.86	2.761	1.816	1.876	1.440	1.561	1.532	1.599	1.778	1.844	1.638	1.865	1.770	1.771	1.755	2.177	2.436	2.382	2.620	2.722	2.992	3.050	3.296	3.222	3.275	3.477	3.354	3.554	3.727	3.654	3.879	3.923	4.431	4.455	4.753	5.046	5.241	5.579	5.650	5.650	6.358
395.0	465.5	490.7	493.7	552.4	606.2	682.9	760.7	804.5	817.7	837.8	886.5	946.5	1005	1075	1105	1132	1148	1123	1099	1060	974.7	875.2	770.0	656.3	556.2	499.1	453.5	304.7	210.3	157.5	117.2	116.3	305.8	818.0	2256	4819	1549	21.05	2.896	2.219	1.803	1.647	1.585	1.721	1.764	1.734	1.741	1.868	1.779	1.764	1.753	2.237	2.395	2.463	2.699	2.780	2.998	3.327	3.118	3.445	3.466	3.435	3.252	3.374	3.357	3.312	3.838	3.783	4.256	4.280	4.908	5.085	5.030	5.404	5.847	5.818	6.262
400.0	446.8	467.8	477.9	541.7	621.1	697.3	774.4	846.9	834.0	831.8	879.7	925.0	978.9	1046	1102	1138	1167	1169	1140	1087	1010	910.0	792.8	677.6	560.8	478.3	468.9	382.4	248.3	179.9	136.3	102.0	119.8	217.1	560.9	2694	4046	276.7	13.06	2.746	2.167	1.973	1.677	1.773	1.807	1.950	1.733	1.734	1.639	1.671	1.807	2.136	2.397	2.284	2.945	2.758	2.852	3.161	3.318	3.223	3.309	3.802	3.446	3.355	3.235	3.251	3.670	3.794	4.177	4.076	4.355	5.065	5.269	5.403	5.669	6.207	6.511
405.0	455.9	453.7	491.2	545.9	621.8	713.4	801.3	848.8	848.8	818.9	856.7	908.2	955.7	1038	1083	1143	1180	1192	1171	1120	1036	926.6	810.2	685.9	574.6	473.5	435.1	429.7	306.5	206.9	157.4	112.2	89.65	91.01	156.5	707.0	2701	3342	238.3	7.618	2.387	2.175	1.659	1.824	2.079	1.889	1.596	1.918	1.709	1.712	1.791	2.069	2.498	2.547	2.930	2.744	2.985	3.346	3.501	3.407	3.505	3.454	3.604	3.339	3.324	3.398	3.515	3.610	3.994	4.104	4.427	4.817	4.925	5.364	6.124	6.214	6.632
410.0	450.4	464.8	485.0	532.7	616.6	712.8	812.2	856.8	851.6	814.7	831.4	875.8	924.1	996.3	1063	1130	1174	1203	1186	1139	1058	945.3	820.0	694.5	579.2	481.4	415.6	397.9	374.9	264.7	187.0	134.0	99.75	78.49	74.70	185.1	701.8	2095	2350	1013	15.20	2.976	2.192	2.183	1.939	1.923	1.663	1.833	1.693	1.761	1.787	2.282	2.464	2.575	2.881	2.807	3.246	3.437	3.433	3.608	3.564	3.421	3.461	3.121	3.223	3.261	3.283	3.579	3.774	4.049	4.285	4.586	5.102	5.141	6.020	6.297	6.499
415.0	451.1	448.7	458.1	520.8	602.8	700.4	789.5	860.3	820.2	809.4	801.0	846.4	882.3	942.1	1016	1096	1145	1174	1178	1128	1059	936.8	815.8	686.8	576.0	483.2	413.5	371.5	358.8	335.9	231.9	157.1	119.4	87.79	68.10	75.80	180.1	488.3	1096	3628	1348	19.06	2.811	2.471	2.299	2.176	1.780	1.787	1.835	1.805	1.766	2.174	2.425	2.614	2.794	2.851	3.048	3.606	3.499	3.545	3.408	3.342	3.191	2.994	3.219	3.325	3.112	3.416	3.380	3.754	4.008	4.099	4.844	5.199	5.552	6.001	6.534
420.0	440.7	435.5	452.2	507.0	587.7	674.2	782.9	853.3	816.0	786.7	780.1	815.9	839.4	904.8	973.3	1046	1100	1146	1143	1102	1025	917.7	793.1	666.9	561.8	480.0	414.5	364.3	335.4	343.4	284.7	176.7	131.5	97.05	72.80	56.50	67.47	129.3	274.7	1991	3237	256.7	11.94	3.076	2.642	2.343	1.867	1.896	1.839	1.748	1.732	2.067	2.366	2.428	2.834	2.882	3.121	3.237	3.429	3.481	3.509	3.438	2.996	3.064	3.359	3.212	3.237	3.297	3.157	3.622	3.764	4.055	4.669	5.128	5.274	5.772	6.393
425.0	429.1	426.4	437.4	484.9	560.7	670.0	766.8	826.0	811.3	769.2	763.5	783.8	810.4	870.8	927.7	997.3	1057	1097	1099	1067	990.3	884.2	764.7	647.6	552.2	465.6	408.6	364.4	327.5	313.4	310.2	211.4	142.8	108.1	79.98	57.78	46.48	51.71	78.54	519.3	2109	2842	217.0	8.024	3.047	2.346	2.055	1.810	1.839	1.661	1.757	2.163	2.171	2.576	2.675	2.754	3.063	3.330	3.160	3.159	3.579	3.483	3.131	2.932	3.182	2.872	2.812	3.056	2.946	3.567	3.886	4.005	4.566	4.723	4.909	5.559	6.115
430.0	418.4	408.0	420.0	463.5	539.8	638.9	756.4	803.6	791.4	741.8	723.1	729.9	753.2	802.9	862.7	926.0	983.7	1017	1027	993.4	924.6	832.3	720.3	612.9	521.7	450.8	398.0	356.4	324.7	295.0	282.9	253.2	176.7	121.0	88.86	65.08	49.14	38.27	37.46	131.2	542.6	1798	2061	965.8	15.50	3.241	2.335	1.971	1.727	1.672	1.742	1.927	2.250	2.459	2.439	2.639	2.948	3.092	3.224	3.316	3.414	3.482	3.111	2.944	2.950	2.892	2.901	2.675	2.992	3.242	3.263	3.757	4.110	4.238	4.717	5.218	5.502
435.0	476.2	367.5	384.1	453.5	515.4	606.9	697.2	761.2	760.7	710.7	691.2	686.7	714.0	742.2	791.1	840.5	900.0	933.1	944.2	918.7	864.2	771.8	667.7	571.1	489.4	429.7	383.7	348.7	321.9	289.8	259.4	241.5	216.7	146.4	98.00	72.99	55.74	40.96	32.99	46.69	134.3	416.0	965.7	3198	1563	21.95	2.926	2.081	1.763	1.774	1.704	1.937	2.193	2.106	2.290	2.427	2.872	2.889	3.023	3.322	3.142	3.161	3.057	2.631	2.730	2.827	2.680	2.609	3.001	2.971	3.137	3.502	3.813	3.979	4.521	4.823	4.985
440.0	539.0	373.8	376.7	418.2	490.4	578.5	677.6	738.3	733.7	687.9	663.1	657.7	661.4	694.3	738.5	785.8	837.8	872.0	879.2	852.5	808.2	718.0	632.8	544.5	467.3	414.7	371.0	340.6	316.0	283.9	253.1	221.5	220.6	173.3	108.0	78.98	60.21	44.22	35.16	31.74	45.37	104.9	239.8	1707	4148	1140	13.06	2.691	2.160	1.755	1.753	2.015	2.116	2.012	2.362	2.490	2.885	2.835	2.908	3.127	2.928	2.978	2.837	2.729	2.551	2.738	2.590	2.607	2.851	2.957	3.087	3.346	3.451	3.886	4.014	4.655	4.629
445.0	554.1	401.1	358.9	393.2	461.7	538.8	640.4	701.7	709.7	663.8	644.4	623.6	626.5	654.6	684.7	733.8	777.8	804.8	816.4	789.5	745.8	671.0	593.6	515.2	444.1	394.0	357.5	331.4	309.4	280.0	250.4	211.2	198.7	185.8	131.7	85.43	64.82	49.17	38.18	30.35	27.51	37.71	64.94	441.8	2621	3805	204.4	7.522	2.368	1.948	1.827	1.908	1.972	1.855	2.239	2.284	2.643	2.657	2.705	2.998	2.730	2.706	2.552	2.696	2.641	2.362	2.389	2.359	2.735	2.801	2.879	3.210	3.283	3.624	3.834	4.137	4.428
450.0	434.1	508.2	345.6	370.8	415.1	504.0	584.3	653.5	658.4	630.3	601.8	579.2	574.2	589.9	616.8	655.4	688.8	719.1	725.5	708.3	664.2	607.2	536.7	468.1	409.0	365.6	334.3	313.3	295.4	271.2	243.8	205.1	179.9	167.6	150.9	105.1	70.96	54.12	42.59	33.82	27.27	25.36	27.66	109.9	663.0	2246	2710	854.3	12.98	2.442	2.023	2.045	1.980	1.887	2.097	2.274	2.449	2.587	2.656	2.760	2.557	2.672	2.693	2.522	2.484	2.246	2.302	2.260	2.513	2.575	2.786	2.870	3.004	3.119	3.370	3.595	4.101
455.0	290.1	497.0	414.3	329.4	379.6	455.5	535.9	600.2	602.0	579.3	548.8	530.5	522.8	526.5	545.8	577.6	602.3	621.5	630.5	616.8	580.8	534.8	471.0	416.8	372.2	334.0	304.5	291.0	276.0	256.0	233.6	201.9	168.9	147.3	139.9	126.4	85.33	59.49	47.92	38.08	31.06	25.93	21.79	37.68	158.1	515.4	1160	2567	1082	16.19	2.408	2.167	1.983	1.751	2.005	1.961	2.235	2.259	2.584	2.556	2.376	2.309	2.421	2.332	2.333	2.089	2.196	2.148	2.160	2.416	2.256	2.485	2.533	2.916	3.145	3.243	3.522
460.0	246.5	398.5	505.6	319.6	358.0	416.9	494.7	560.4	566.0	561.1	516.1	486.8	488.8	484.8	498.7	518.2	549.1	556.6	564.4	557.3	522.8	479.9	427.1	383.6	341.8	311.1	284.5	272.0	260.3	245.4	222.1	192.8	166.2	140.7	124.0	125.3	101.7	65.58	50.53	41.23	33.66	28.01	22.83	22.88	47.29	125.1	282.0	1372	2435	755.1	10.34	2.329	2.191	1.846	1.915	1.993	2.219	2.168	2.295	2.528	2.386	2.316	2.263	2.225	2.222	2.021	2.102	2.287	2.076	2.068	2.121	2.474	2.257	2.557	2.718	3.086	3.119
465.0	220.6	289.5	528.2	365.8	329.5	386.0	457.5	511.3	534.5	514.2	489.2	462.2	449.0	446.7	455.6	467.6	492.0	498.3	505.3	497.2	471.4	436.0	389.5	347.1	313.6	285.3	263.5	254.4	244.0	229.3	211.4	185.3	160.6	135.0	116.3	111.2	111.3	77.86	54.17	43.47	36.37	29.73	25.41	21.57	23.77	39.07	72.09	352.0	1588	2390	165.1	6.288	2.271	1.785	1.793	1.746	2.069	2.030	2.040	2.400	2.252	2.214	2.284	2.311	2.343	1.799	1.850	2.018	1.761	1.833	2.096	2.074	2.176	2.327	2.569	2.717	2.776
470.0	195.3	228.5	374.8	483.9	310.4	343.4	405.0	464.1	485.4	463.4	441.1	417.4	404.9	400.5	399.7	406.1	423.3	429.5	435.5	427.1	404.2	375.6	339.6	305.5	275.5	254.9	239.2	230.1	221.3	211.1	195.2	171.2	150.6	128.4	108.4	97.27	95.64	89.40	65.28	47.11	38.57	33.23	27.26	23.11	21.06	21.31	26.31	87.19	406.0	1470	1941	716.8	13.60	2.171	2.002	1.600	1.917	2.000	1.918	2.097	2.191	2.124	2.017	1.982	1.965	1.767	1.819	1.726	1.708	1.845	1.829	1.910	1.926	2.026	2.057	2.270	2.480
475.0	171.3	181.5	240.8	481.0	402.7	298.4	352.9	410.1	426.8	413.2	397.9	369.0	357.0	349.1	346.7	348.0	357.6	367.4	369.3	361.3	345.3	320.1	293.1	263.5	240.2	225.5	210.6	205.6	198.9	188.8	176.0	160.7	138.8	119.6	103.2	89.81	80.75	81.59	77.09	54.56	41.48	34.23	29.52	24.77	21.67	18.68	17.51	28.91	97.99	337.5	816.6	1845	779.0	18.65	2.272	1.687	1.952	1.691	1.822	1.804	2.066	1.935	1.835	1.757	1.908	1.649	1.529	1.658	1.573	1.715	1.671	1.795	1.818	1.937	1.874	2.130	1.929
480.0	169.2	168.9	181.0	360.5	531.3	292.6	318.8	375.5	394.3	388.1	370.1	337.6	327.3	312.5	314.0	308.9	316.3	321.5	321.2	314.8	301.8	283.5	260.3	235.4	219.6	206.7	194.3	189.8	185.6	175.9	166.1	149.0	132.2	113.7	99.13	86.31	75.39	71.05	76.77	62.68	43.69	35.40	30.67	26.84	22.68	19.33	16.21	16.47	30.25	81.86	198.1	934.6	1482	209.8	13.08	2.151	1.944	1.820	1.635	1.713	2.145	1.683	1.813	1.794	1.726	1.739	1.445	1.572	1.743	1.579	1.658	1.570	1.741	1.664	1.685	1.875	1.902
485.0	159.0	164.8	154.7	239.4	581.8	366.6	302.9	337.8	367.4	360.7	338.9	315.4	298.9	284.8	283.9	280.6	286.5	285.8	287.7	282.2	270.8	254.2	237.4	213.9	199.2	191.4	180.7	175.2	172.6	165.5	155.3	140.5	126.5	109.3	95.51	83.81	73.27	65.71	67.68	68.28	49.96	37.70	31.73	27.89	23.40	20.29	16.72	14.66	15.34	25.46	50.78	238.7	869.8	1303	194.0	6.987	2.108	1.841	1.764	1.767	1.886	1.762	1.666	1.795	1.592	1.548	1.358	1.481	1.588	1.366	1.434	1.583	1.563	1.436	1.726	1.764	1.851
490.0	138.4	156.2	149.5	174.3	402.9	592.9	307.1	303.5	334.7	329.7	308.9	290.0	274.1	257.9	253.0	246.1	248.8	252.7	252.1	243.7	235.2	223.1	208.8	191.3	177.8	169.2	162.9	158.9	157.0	151.3	143.0	130.3	116.0	101.4	90.55	79.89	69.65	62.72	58.35	61.06	57.45	43.98	33.49	28.36	24.70	21.66	18.21	15.16	13.20	13.80	18.17	59.22	215.9	649.7	1167	676.2	14.17	2.132	1.858	1.767	1.634	1.595	1.573	1.611	1.449	1.405	1.334	1.318	1.363	1.248	1.301	1.302	1.319	1.377	1.490	1.554	1.601
495.0	114.8	133.7	157.3	149.3	222.0	670.0	431.4	279.0	291.2	301.6	278.1	262.1	247.4	227.6	221.0	215.9	212.6	219.6	214.4	209.3	202.2	191.3	179.9	166.0	157.3	148.2	145.3	141.5	142.0	135.5	129.4	118.5	106.4	95.26	85.02	74.57	66.26	59.18	53.34	51.27	52.97	51.13	37.34	29.23	25.89	22.26	19.20	16.30	14.00	11.76	11.83	19.16	53.11	149.4	445.8	1477	840.3	18.87	2.015	2.058	1.640	1.667	1.515	1.353	1.433	1.288	1.225	1.146	1.140	1.196	1.241	1.104	1.184	1.290	1.254	1.354	1.376
500.0	105.4	117.5	142.8	140.8	160.5	476.6	756.6	285.8	273.4	271.7	254.4	241.3	223.3	209.3	200.4	195.3	192.6	197.7	192.1	184.3	179.8	169.8	158.8	148.5	143.1	135.0	132.8	131.1	130.8	125.8	117.9	109.0	97.45	88.46	79.75	70.42	63.86	55.34	51.48	46.63	46.45	51.21	41.94	30.57	25.86	22.89	19.65	16.81	13.88	11.14	10.33	10.34	16.81	37.54	107.2	686.2	1553	223.8	13.24	1.774	1.647	1.593	1.480	1.270	1.402	1.136	1.279	0.985	1.281	1.235	1.210	1.152	1.084	1.168	1.365	1.310	1.472
505.0	106.3	102.1	127.5	127.4	139.2	265.1	902.3	370.2	244.4	248.8	242.2	223.8	204.5	194.6	184.1	177.2	174.3	177.4	169.9	165.6	158.9	155.0	143.8	136.1	129.5	120.8	120.6	121.3	117.9	114.3	109.2	100.3	91.54	81.66	73.13	65.33	59.15	52.54	47.68	44.00	40.96	44.69	44.64	33.61	26.11	21.96	19.52	16.53	13.52	11.58	9.984	8.575	9.146	12.88	27.80	169.0	887.2	1216	199.8	5.992	1.903	1.555	1.490	1.319	1.252	0.994	1.081	1.097	1.202	0.928	1.144	1.157	1.018	1.077	1.276	1.078	1.118
510.0	81.64	87.30	108.0	127.3	119.4	164.3	596.0	921.7	266.7	220.2	216.3	198.2	182.0	170.5	156.8	154.1	148.4	147.8	144.6	141.2	134.9	131.3	124.0	117.6	111.9	107.4	105.3	104.8	104.6	101.6	96.84	89.54	81.21	73.09	66.44	59.43	54.17	48.93	44.23	39.74	36.80	36.62	39.16	37.49	27.97	21.96	18.79	16.18	13.60	11.40	9.909	8.431	7.310	7.364	9.980	41.06	219.1	650.4	1007	500.9	14.23	1.665	1.386	1.267	1.174	1.159	1.176	0.993	1.062	0.947	0.993	0.859	0.806	1.126	1.004	1.051	1.110
515.0	67.64	79.89	84.40	120.9	111.0	128.0	252.6	1044	643.3	195.0	188.3	170.5	159.9	147.4	137.0	129.3	124.7	125.2	122.1	116.6	113.2	108.6	105.0	99.67	96.11	93.11	92.40	90.05	89.74	86.54	84.43	76.84	70.99	64.19	58.44	51.79	47.89	44.30	39.70	36.25	32.91	31.43	30.77	34.72	32.11	23.39	18.21	15.11	12.80	10.93	9.691	8.042	6.992	6.064	5.879	12.15	51.48	148.1	373.1	1157	838.2	17.26	1.491	1.378	1.122	1.168	1.159	0.919	0.916	0.826	0.911	0.843	0.827	0.982	0.785	0.945	1.017
520.0	68.50	78.97	74.56	103.7	107.9	110.5	155.0	683.9	1158	229.2	167.4	154.8	144.0	130.6	122.1	115.8	109.2	109.6	107.1	102.9	101.7	96.39	91.90	87.75	86.35	82.20	80.96	82.03	81.28	77.77	74.91	70.32	64.68	58.61	52.35	48.04	44.46	39.63	37.05	33.29	30.79	28.10	26.48	28.12	31.61	24.96	17.89	14.56	12.24	10.81	9.406	7.807	6.827	5.800	4.876	5.726	14.05	35.25	88.52	532.9	1565	225.2	8.526	1.289	1.249	0.973	0.997	0.846	0.975	0.829	0.852	0.867	0.775	0.933	0.803	0.838	0.850
525.0	60.85	67.05	71.55	87.05	120.4	103.6	126.2	325.2	1397	544.9	153.2	140.1	126.6	117.2	109.8	103.1	97.58	96.67	93.24	90.43	87.93	84.77	81.81	78.43	76.67	74.39	72.36	73.20	72.95	71.58	67.20	62.60	59.88	53.32	49.02	44.09	40.08	36.53	33.81	31.13	28.75	25.44	23.95	23.50	26.90	26.97	19.80	13.73	11.87	10.15	8.629	7.576	6.456	5.971	4.732	4.399	5.659	10.19	21.97	131.4	906.4	1333	174.7	3.815	1.153	1.017	0.965	0.790	0.837	0.862	0.715	0.653	0.701	0.743	0.767	0.724	0.684
530.0	56.05	58.43	58.55	68.22	105.9	102.0	105.9	167.3	832.1	1485	200.9	124.2	114.1	103.0	93.88	88.69	84.12	81.60	79.79	78.20	75.61	73.24	70.69	67.11	65.92	64.11	63.69	62.98	63.46	62.96	59.53	54.88	51.82	46.07	42.60	38.76	34.84	32.36	30.27	27.67	26.01	23.45	21.90	19.87	20.81	23.71	21.26	15.45	11.31	9.455	8.235	7.355	6.146	5.337	4.539	3.994	3.701	4.196	6.827	31.03	223.0	767.8	958.6	382.4	11.61	1.138	0.925	0.938	0.732	0.805	0.736	0.680	0.647	0.724	0.750	0.776	0.749
535.0	47.86	52.73	53.47	56.60	77.14	109.0	96.57	111.2	293.5	1599	959.0	113.2	98.19	88.66	80.93	75.82	72.73	68.72	67.86	64.84	62.78	61.07	60.41	57.12	55.73	54.99	54.79	55.56	54.02	52.86	51.97	47.29	43.33	40.21	36.73	33.60	30.58	28.49	26.41	24.33	22.88	20.67	18.87	17.88	17.09	17.50	19.71	16.87	11.67	8.714	7.665	6.650	5.906	4.725	4.570	4.020	3.168	2.912	3.304	8.413	51.17	174.2	392.0	1020	240.2	13.39	1.056	0.845	0.774	0.712	0.704	0.594	0.651	0.601	0.725	0.615	0.632
540.0	49.66	54.95	46.35	48.52	57.16	107.0	95.22	98.53	147.5	924.9	1831	152.1	89.24	78.16	71.73	65.87	65.05	59.31	59.18	56.70	56.12	54.57	52.58	50.98	49.58	48.86	47.38	48.03	48.45	47.66	47.36	42.83	38.39	36.82	32.40	30.28	27.66	25.38	23.81	22.64	20.06	19.16	17.26	16.43	14.93	14.67	16.07	16.99	13.16	8.744	6.982	6.070	5.305	4.768	4.146	3.884	2.936	2.705	2.297	3.285	12.77	40.37	93.93	511.3	1043	194.0	4.703	0.886	0.672	0.721	0.667	0.740	0.716	0.628	0.704	0.640	0.719
545.0	50.83	52.19	40.84	46.58	48.80	88.02	102.0	88.20	107.5	372.1	2069	463.9	82.29	69.81	64.25	60.20	57.18	53.78	52.71	50.52	49.74	47.44	46.19	46.48	44.28	44.00	43.08	42.61	43.22	42.81	41.12	38.76	34.00	32.01	28.87	26.93	25.09	23.41	21.37	20.35	17.89	17.31	15.26	14.58	13.49	12.45	12.99	15.05	13.97	9.477	6.708	5.629	5.036	4.589	4.024	3.537	3.152	2.545	2.165	2.285	4.299	10.25	22.51	128.5	696.8	824.7	31.10	1.827	0.752	0.764	0.787	0.725	0.677	0.655	0.554	0.497	0.614
550.0	55.62	51.81	44.58	41.09	44.03	66.27	112.8	85.57	94.94	161.4	1069	1343	134.5	62.40	56.93	51.90	48.96	45.90	45.11	42.67	40.88	40.36	39.44	39.35	37.64	37.77	37.01	37.33	36.59	36.17	34.93	32.42	30.34	27.28	25.55	23.71	21.71	19.86	18.63	17.58	15.69	15.26	13.50	12.91	11.85	10.95	10.47	11.04	12.15	10.47	7.304	5.272	4.609	3.941	3.426	3.267	2.839	2.632	2.089	1.908	2.228	3.474	6.345	29.85	176.5	503.3	651.8	133.8	9.550	0.756	0.730	0.609	0.525	0.575	0.513	0.545	0.565
555.0	57.49	54.95	42.85	38.06	35.19	49.80	92.20	106.4	88.06	114.4	337.7	1394	709.9	57.29	47.93	43.31	41.67	38.71	36.97	35.56	35.20	34.44	33.63	31.70	31.22	31.91	31.13	31.62	31.33	30.56	28.83	27.92	24.79	22.78	21.48	19.82	18.60	16.99	16.18	14.53	13.57	13.25	11.72	11.38	10.34	9.273	8.948	8.382	8.651	9.967	8.279	5.574	4.200	3.560	3.065	2.963	2.570	2.399	1.961	1.731	1.687	1.807	2.499	7.644	40.37	114.4	278.4	632.6	222.3	9.500	0.835	0.545	0.505	0.637	0.588	0.476	0.548
560.0	71.74	65.17	42.34	35.98	32.39	42.89	70.89	118.3	91.43	103.6	156.7	782.9	1305	103.4	41.72	38.02	35.95	33.91	31.68	31.76	29.51	29.00	28.29	28.46	27.60	27.48	26.53	27.26	26.87	26.66	25.92	24.01	21.26	20.17	18.41	17.19	16.45	14.67	13.89	12.80	12.19	11.39	10.65	10.04	9.031	8.549	7.470	7.075	6.863	8.240	8.321	6.175	4.274	3.390	2.695	2.713	2.341	2.094	2.200	1.944	1.581	1.600	1.719	2.770	9.996	26.43	67.26	356.0	654.4	164.6	2.941	0.583	0.638	0.513	0.492	0.590	0.606
565.0	78.86	60.57	45.04	35.26	32.79	38.51	54.73	121.4	105.2	103.3	119.5	321.7	1405	442.2	36.80	32.87	31.26	29.09	28.05	27.06	25.39	25.09	25.11	24.00	24.35	24.28	23.96	24.44	23.59	23.34	21.80	20.58	18.83	17.47	16.23	15.06	13.67	13.02	11.99	11.53	11.10	9.900	9.544	8.691	8.024	7.317	6.823	6.261	5.816	6.105	7.471	6.738	4.303	2.973	2.691	2.407	2.187	1.828	1.911	1.902	1.584	1.370	1.363	1.624	3.017	6.882	15.95	92.62	431.4	612.4	29.93	0.952	0.534	0.535	0.413	0.469	0.444
570.0	80.07	66.96	48.46	30.28	29.49	33.39	44.88	94.71	130.5	110.9	118.3	153.7	684.1	1205	87.00	27.39	25.20	23.60	22.99	21.57	20.73	21.18	19.94	19.99	19.79	19.72	19.54	19.67	19.18	19.30	18.39	16.85	15.75	14.21	13.14	12.14	11.19	10.36	9.664	9.452	8.680	8.047	7.619	7.135	6.689	6.214	5.670	4.980	4.613	4.424	4.989	5.929	4.796	3.117	2.532	2.078	1.755	1.652	1.574	1.634	1.678	1.493	1.248	1.254	1.512	2.447	4.397	21.53	110.9	383.1	511.5	114.4	4.569	0.539	0.408	0.428	0.401
575.0	84.41	70.47	43.98	31.62	25.42	31.63	36.30	67.41	144.5	126.3	121.2	121.1	215.8	1108	684.5	25.35	19.47	18.29	17.73	16.82	15.89	16.17	15.46	15.79	16.11	15.12	15.03	14.97	14.64	14.53	14.19	13.17	12.13	10.91	10.29	9.825	8.812	8.174	7.437	7.202	6.715	6.372	6.016	5.555	5.391	4.870	4.665	3.968	3.671	3.359	3.524	3.976	4.631	3.512	2.241	1.727	1.482	1.434	1.352	1.104	1.401	1.641	1.345	1.056	1.172	1.253	1.685	5.690	25.44	87.24	239.9	431.1	127.8	1.679	0.433	0.381	0.457
580.0	86.30	68.44	41.47	28.03	23.86	28.71	34.02	59.89	129.9	151.1	125.2	113.1	108.8	546.0	1161	67.42	16.19	14.76	14.93	13.81	12.81	12.74	12.65	12.95	12.55	12.99	12.26	11.90	12.19	12.32	11.34	10.69	9.781	9.100	8.318	7.651	7.170	6.472	6.216	5.888	5.599	5.409	5.247	4.577	4.535	3.995	3.982	3.455	2.976	2.808	2.657	2.712	3.679	3.704	2.610	1.703	1.251	1.276	1.230	1.163	1.317	1.506	1.461	1.166	1.034	1.000	1.260	2.183	6.309	20.13	58.73	257.5	356.5	26.24	0.907	0.341	0.434
585.0	85.37	75.14	43.64	27.52	19.98	25.63	33.75	52.31	105.9	172.1	127.2	114.6	81.16	190.8	1280	456.6	14.43	12.36	12.39	11.66	10.90	10.82	11.28	10.72	10.53	10.34	9.606	9.516	10.20	10.19	9.669	8.905	7.998	7.472	6.925	6.229	6.030	5.442	5.245	5.114	4.602	4.444	4.271	3.763	3.770	3.377	3.143	2.901	2.430	2.310	2.032	2.054	2.552	3.010	2.763	1.696	1.245	1.138	1.053	1.156	1.174	1.200	1.477	1.257	0.934	0.958	0.936	1.371	2.002	5.164	13.82	70.11	284.1	222.1	19.28	0.394	0.422
590.0	80.78	69.87	41.64	26.57	22.28	23.32	32.46	48.94	83.25	164.9	149.6	116.1	78.33	75.99	582.3	1187	50.84	10.52	9.838	9.449	8.642	8.325	8.920	8.480	8.099	8.222	8.081	7.792	8.112	7.948	7.803	7.239	6.303	6.030	5.365	5.065	4.807	4.482	4.090	4.109	3.599	3.396	3.374	3.222	3.125	2.669	2.517	2.391	1.989	1.918	1.698	1.566	1.661	2.211	2.642	1.958	1.343	1.000	0.927	0.863	0.968	1.031	1.147	1.393	1.085	0.943	0.889	0.944	1.101	1.717	3.575	16.23	78.00	199.9	220.4	20.15	1.561
595.0	69.91	62.63	35.10	25.09	20.14	21.27	30.18	46.78	71.57	128.0	170.8	116.7	79.01	49.01	153.6	1083	470.5	9.732	8.251	7.658	7.274	6.669	6.883	6.676	6.578	6.674	6.934	6.371	6.109	6.232	5.731	5.255	5.094	4.437	4.403	4.137	3.599	3.435	3.527	3.041	2.940	2.828	2.690	2.363	2.463	2.294	2.022	1.761	1.735	1.615	1.352	1.231	1.109	1.455	1.900	1.935	1.597	0.984	0.802	0.713	0.797	0.893	1.044	1.034	1.018	0.955	0.712	0.813	0.912	0.984	1.209	4.092	17.81	47.03	133.4	233.7	29.36
600.0	63.48	56.82	36.53	21.12	19.58	20.14	28.89	42.29	63.75	107.1	171.2	124.1	77.69	43.88	53.34	492.5	864.4	28.92	7.195	7.142	5.858	5.942	5.533	5.952	5.718	5.413	5.234	5.229	4.998	5.321	4.766	4.576	4.119	3.721	3.656	3.507	3.196	2.970	2.832	2.566	2.452	2.294	2.054	1.973	2.022	1.957	1.777	1.647	1.361	1.350	1.138	1.089	1.133	1.024	1.248	1.576	1.760	1.154	0.692	0.724	0.833	0.771	0.853	0.954	1.073	1.079	0.828	0.771	0.690	0.812	0.689	1.436	4.402	10.89	35.15	183.6	202.9
605.0	52.12	50.26	34.87	18.96	20.56	20.86	25.89	40.19	62.42	95.75	147.8	140.6	79.30	43.69	32.35	152.5	1037	91.61	6.535	5.209	5.087	4.813	4.534	4.824	4.815	4.717	4.603	4.637	4.350	4.444	3.959	3.574	3.562	3.495	2.873	3.020	2.659	2.361	2.263	2.155	2.222	1.938	1.776	1.818	1.794	1.712	1.586	1.383	1.109	1.073	0.935	0.908	0.865	0.930	0.976	1.379	1.703	1.254	0.778	0.723	0.804	0.768	0.795	0.879	0.889	1.118	1.047	0.774	0.677	0.693	0.628	0.719	1.272	2.886	8.304	56.05	195.6
610.0	55.91	48.36	30.59	19.37	17.59	19.66	28.46	42.62	60.68	84.39	121.3	151.6	89.59	48.89	32.06	50.51	494.2	695.6	32.29	4.642	4.126	4.115	3.994	4.120	4.067	3.680	3.803	3.717	3.870	3.655	3.314	2.977	3.137	2.909	2.576	2.338	2.248	2.007	1.822	1.867	1.811	1.545	1.544	1.455	1.457	1.439	1.240	1.063	0.966	0.937	0.873	0.837	0.891	0.828	0.737	0.845	1.240	1.392	1.026	0.643	0.687	0.631	0.742	0.862	0.807	0.812	1.097	0.903	0.711	0.651	0.593	0.570	0.644	0.981	2.260	12.97	56.21
615.0	52.13	39.79	29.58	18.48	19.13	21.24	28.00	38.49	56.48	79.47	102.7	138.4	106.1	54.17	34.69	29.22	130.3	699.6	322.4	4.586	3.577	3.175	3.347	3.124	3.146	3.044	3.114	3.108	3.159	2.911	2.945	2.571	2.458	2.465	2.098	2.015	1.890	1.734	1.630	1.568	1.414	1.322	1.291	1.269	1.257	1.187	1.164	1.058	0.850	0.914	0.716	0.718	0.718	0.577	0.675	0.584	0.815	1.237	1.074	0.735	0.695	0.525	0.578	0.656	0.789	0.700	0.722	0.888	0.975	0.554	0.578	0.516	0.550	0.564	0.778	3.248	12.92
620.0	41.48	35.98	29.95	18.14	18.24	21.33	28.24	39.54	55.60	70.40	91.88	118.3	121.3	56.60	35.03	24.15	43.42	338.3	667.0	16.20	3.354	3.292	3.162	2.920	2.885	2.501	2.768	2.705	2.648	2.587	2.509	2.304	2.118	2.052	1.756	1.539	1.457	1.405	1.369	1.257	1.338	1.036	1.094	1.055	1.161	1.075	0.942	0.907	0.728	0.799	0.619	0.691	0.595	0.451	0.533	0.640	0.575	0.901	1.084	0.948	0.758	0.544	0.622	0.658	0.624	0.757	0.617	0.743	0.970	0.677	0.463	0.437	0.498	0.426	0.513	1.094	3.300
625.0	40.42	36.87	25.76	19.11	16.46	22.37	28.44	38.75	52.11	67.14	85.54	98.23	118.6	65.70	37.80	24.55	23.22	107.4	804.6	72.56	3.113	2.838	2.730	2.620	2.377	2.241	2.172	2.624	2.141	2.242	2.333	1.982	1.838	1.934	1.686	1.359	1.294	1.372	1.170	1.131	1.295	1.013	1.071	0.955	0.864	0.982	0.922	0.735	0.642	0.623	0.548	0.623	0.438	0.481	0.470	0.589	0.551	0.695	0.970	0.962	0.825	0.504	0.650	0.542	0.721	0.661	0.678	0.782	0.851	0.650	0.556	0.366	0.487	0.495	0.484	0.647	1.046
630.0	41.94	34.88	24.53	19.41	18.25	21.09	28.14	34.18	48.79	63.88	77.74	86.92	99.14	84.69	41.07	25.96	19.43	34.75	400.4	552.6	15.95	2.632	2.328	2.188	2.277	1.963	2.034	2.001	1.845	1.847	1.784	1.756	1.598	1.552	1.369	1.156	1.151	1.128	1.168	0.923	0.977	0.871	0.876	0.759	0.860	0.741	0.754	0.671	0.602	0.564	0.472	0.572	0.480	0.479	0.466	0.443	0.451	0.528	0.603	0.799	0.806	0.586	0.521	0.512	0.680	0.557	0.719	0.650	0.688	0.654	0.618	0.488	0.440	0.479	0.434	0.487	0.493
635.0	34.97	34.54	21.91	21.35	19.60	19.62	26.64	36.24	45.96	61.47	74.64	79.35	78.98	94.27	49.76	28.41	21.16	17.96	100.9	619.6	153.1	2.716	2.327	1.809	1.718	1.878	1.726	1.723	1.631	1.607	1.477	1.318	1.413	1.136	1.124	0.953	1.033	0.828	0.860	0.744	0.795	0.678	0.848	0.647	0.915	0.690	0.582	0.611	0.547	0.463	0.458	0.457	0.464	0.420	0.449	0.428	0.498	0.487	0.472	0.517	0.761	0.679	0.612	0.475	0.613	0.537	0.580	0.541	0.586	0.560	0.670	0.609	0.476	0.456	0.395	0.454	0.336
640.0	33.54	31.72	25.75	21.84	19.22	21.60	27.51	35.33	44.07	56.82	71.47	79.15	74.11	87.27	62.28	30.74	22.58	14.86	29.13	330.3	364.3	7.126	2.101	1.766	1.648	1.652	1.594	1.353	1.477	1.553	1.246	1.111	0.979	0.815	1.010	0.902	0.936	0.709	0.705	0.790	0.701	0.650	0.626	0.501	0.689	0.615	0.586	0.593	0.536	0.453	0.376	0.375	0.425	0.391	0.416	0.397	0.480	0.580	0.436	0.544	0.616	0.687	0.591	0.601	0.524	0.537	0.576	0.632	0.491	0.702	0.619	0.654	0.562	0.471	0.440	0.496	0.377
645.0	35.85	38.89	34.97	18.51	22.56	21.23	25.55	35.02	42.71	56.67	72.94	76.87	76.41	77.75	76.17	35.52	24.11	14.59	12.83	105.8	469.5	48.92	2.219	1.855	1.729	1.538	1.424	1.222	1.034	1.326	1.130	1.176	1.018	0.889	0.755	0.839	0.810	0.728	0.595	0.810	0.587	0.640	0.538	0.537	0.626	0.484	0.606	0.563	0.455	0.439	0.349	0.369	0.427	0.340	0.388	0.418	0.419	0.421	0.411	0.511	0.528	0.627	0.630	0.681	0.647	0.538	0.558	0.595	0.676	0.573	0.643	0.574	0.759	0.439	0.503	0.458	0.421
650.0	45.01	44.57	36.98	23.80	19.66	20.72	25.24	35.94	44.31	56.97	71.17	79.61	76.54	71.50	81.05	43.62	24.67	15.70	9.594	30.25	353.4	223.6	2.658	1.831	1.664	1.377	1.139	1.090	1.083	1.191	1.060	0.965	0.856	0.870	0.820	0.868	0.815	0.665	0.608	0.685	0.499	0.557	0.519	0.550	0.647	0.568	0.570	0.617	0.467	0.362	0.350	0.410	0.389	0.301	0.387	0.434	0.440	0.382	0.382	0.355	0.487	0.526	0.642	0.638	0.660	0.556	0.564	0.495	0.580	0.615	0.539	0.490	0.674	0.566	0.462	0.360	0.572
