Sample:	'1
File name:	t2025031905·ÉÊ¨½í±»Èí»¯Ë®.FD3
Run date:	'20:10:21, 03/19/2025
Operator:	Administrator
Comment:	'

Instrument
Model:	F-2700 FL Spectrophotometer
Serial number:	23B8-004
ROM Version:	4J14000 07

Instrument parameters
Measurement type:	3-D scan
Data mode:	Fluorescence
EX  Start WL:	220.0 nm
EX  End WL:	600.0 nm
EX Sampling interval:	5.0 nm
EM  Start WL:	230.0 nm
EM  End WL:	650.0 nm
EM Sampling interval:	5.0 nm
Scan speed:	12000 nm/min
EX Slit:	5.0 nm
EM Slit:	5.0 nm
PMT Voltage:	700 V
Response:	Auto 
Corrected spectra:	Off
Contour interval:	50.000

Peak integration
Integration method:	Rectangular
Sensitivity:	1
Threshold:	1.000

Peaks
No.	ApexEX/EM(nm)	Height(Data)
1	230.0/505.0	151.3
2	235.0/340.0	3860
3	235.0/515.0	159.9
4	240.0/265.0	403.0
5	240.0/525.0	169.9
6	245.0/270.0	399.3
7	245.0/540.0	155.9
8	250.0/275.0	515.0
9	250.0/450.0	448.6
10	250.0/550.0	128.9
11	255.0/280.0	589.8
12	255.0/565.0	107.4
13	260.0/290.0	511.8
14	260.0/575.0	92.66
15	265.0/585.0	81.49
16	275.0/320.0	4451
17	275.0/615.0	269.6
18	280.0/625.0	230.9
19	320.0/360.0	386.5
20	330.0/375.0	242.2
21	335.0/380.0	207.4
22	345.0/395.0	129.4
23	350.0/400.0	135.3
24	355.0/405.0	116.5
25	360.0/415.0	96.44
26	365.0/420.0	98.93
27	370.0/425.0	83.61
28	375.0/435.0	67.92
29	380.0/440.0	69.53
30	385.0/445.0	60.11
31	395.0/460.0	42.65
32	400.0/465.0	36.10
33	410.0/480.0	22.44
34	415.0/485.0	19.46
35	420.0/490.0	15.20
36	425.0/500.0	13.78
37	430.0/505.0	12.00
38	435.0/510.0	9.688
39	440.0/520.0	8.937
40	445.0/525.0	7.420
41	455.0/540.0	5.388
42	460.0/545.0	4.549
43	465.0/555.0	3.329
44	470.0/560.0	2.819
45	475.0/340.0	14.65
46	475.0/565.0	2.443
47	480.0/260.0	1.937
48	480.0/575.0	1.852
49	485.0/265.0	2.326
50	485.0/580.0	1.599
51	495.0/270.0	2.368
52	505.0/275.0	3.359
53	510.0/280.0	3.652
54	520.0/285.0	3.995
55	530.0/290.0	3.442
56	560.0/315.0	21.79

Data points
	220.0	225.0	230.0	235.0	240.0	245.0	250.0	255.0	260.0	265.0	270.0	275.0	280.0	285.0	290.0	295.0	300.0	305.0	310.0	315.0	320.0	325.0	330.0	335.0	340.0	345.0	350.0	355.0	360.0	365.0	370.0	375.0	380.0	385.0	390.0	395.0	400.0	405.0	410.0	415.0	420.0	425.0	430.0	435.0	440.0	445.0	450.0	455.0	460.0	465.0	470.0	475.0	480.0	485.0	490.0	495.0	500.0	505.0	510.0	515.0	520.0	525.0	530.0	535.0	540.0	545.0	550.0	555.0	560.0	565.0	570.0	575.0	580.0	585.0	590.0	595.0	600.0
230.0	25.80	241.0	609.1	198.4	12.27	5.368	4.506	3.835	3.133	3.129	3.130	3.097	2.560	2.386	1.937	1.526	1.428	1.304	1.118	0.949	0.781	0.710	0.733	0.680	0.627	0.593	0.520	0.489	0.518	0.424	0.526	0.444	0.441	0.432	0.423	0.367	0.383	0.394	0.351	0.295	0.330	0.321	0.372	0.326	0.285	0.335	0.462	1.182	2.138	1.849	0.765	0.324	0.262	0.247	0.253	0.265	0.263	0.279	0.235	0.269	0.285	0.257	0.257	0.267	0.252	0.252	0.257	0.271	0.291	0.275	0.268	0.220	0.265	0.271	0.246	0.262	0.279
235.0	39.99	79.73	556.6	783.7	357.5	20.44	5.046	3.895	3.085	2.870	3.630	3.374	3.241	2.368	2.100	1.699	1.717	1.512	1.053	0.930	0.741	0.890	0.727	0.643	0.581	0.580	0.473	0.522	0.538	0.446	0.533	0.493	0.404	0.485	0.437	0.324	0.414	0.463	0.339	0.287	0.360	0.303	0.342	0.483	0.361	0.381	0.321	0.550	1.078	2.291	3.612	4.082	1.934	0.616	0.270	0.280	0.231	0.337	0.253	0.309	0.254	0.273	0.281	0.286	0.281	0.224	0.302	0.263	0.278	0.231	0.300	0.266	0.276	0.260	0.242	0.249	0.262
240.0	69.55	56.09	199.0	1018	1454	301.1	12.43	5.485	3.956	3.364	2.950	3.578	3.054	2.521	2.170	2.015	1.649	1.470	0.944	0.833	0.768	0.922	0.719	0.573	0.601	0.591	0.508	0.552	0.449	0.529	0.578	0.503	0.387	0.385	0.428	0.325	0.426	0.362	0.326	0.346	0.334	0.325	0.360	0.407	0.394	0.458	0.356	0.360	0.467	0.847	2.317	5.920	7.036	5.374	2.410	0.428	0.243	0.403	0.313	0.317	0.276	0.264	0.284	0.267	0.290	0.231	0.263	0.249	0.263	0.227	0.278	0.305	0.298	0.238	0.263	0.233	0.263
245.0	70.57	109.4	89.89	410.5	1836	1566	217.3	7.430	4.944	3.459	3.532	3.555	3.005	2.730	2.021	1.858	1.679	1.444	1.214	0.921	0.831	0.776	0.657	0.693	0.649	0.629	0.588	0.595	0.518	0.537	0.443	0.495	0.449	0.374	0.407	0.389	0.412	0.392	0.356	0.341	0.301	0.406	0.369	0.368	0.356	0.485	0.511	0.546	0.414	0.469	0.740	2.343	5.872	9.963	12.27	5.034	1.410	0.369	0.265	0.277	0.275	0.294	0.292	0.235	0.299	0.227	0.262	0.267	0.259	0.219	0.245	0.266	0.254	0.224	0.269	0.267	0.237
250.0	38.49	106.1	181.7	169.6	648.3	1779	2161	691.4	37.54	5.339	4.279	4.460	3.220	2.824	2.480	1.991	1.624	1.573	1.186	0.993	0.813	0.768	0.731	0.703	0.657	0.618	0.620	0.582	0.579	0.547	0.452	0.454	0.490	0.457	0.450	0.447	0.391	0.358	0.385	0.336	0.370	0.346	0.325	0.371	0.338	0.342	0.452	0.659	0.869	0.677	0.581	0.801	1.647	3.466	7.829	9.817	12.41	10.66	5.372	1.600	0.389	0.271	0.280	0.287	0.276	0.298	0.285	0.272	0.266	0.314	0.282	0.320	0.255	0.265	0.288	0.268	0.252
255.0	29.65	42.01	160.9	298.5	226.4	479.1	1875	2751	285.3	34.28	6.146	5.776	3.691	3.317	2.749	2.161	1.740	1.560	1.277	1.151	1.059	0.737	0.728	0.825	0.747	0.742	0.691	0.706	0.675	0.503	0.512	0.424	0.525	0.496	0.398	0.366	0.458	0.424	0.464	0.374	0.358	0.374	0.280	0.337	0.311	0.338	0.376	0.423	0.615	0.853	1.273	1.277	0.914	1.042	1.995	2.604	4.873	11.44	19.50	17.85	8.317	1.574	0.303	0.366	0.288	0.249	0.271	0.250	0.249	0.300	0.284	0.278	0.229	0.268	0.283	0.334	0.265
260.0	26.97	25.79	71.59	299.3	300.2	160.6	599.8	2828	3490	237.8	15.59	7.567	4.878	3.915	2.888	2.084	2.154	1.992	1.508	1.183	1.103	0.884	0.881	0.826	0.610	0.748	0.698	0.731	0.632	0.561	0.559	0.543	0.429	0.478	0.431	0.382	0.403	0.393	0.421	0.387	0.363	0.367	0.333	0.313	0.314	0.350	0.321	0.323	0.327	0.452	0.931	1.736	1.937	1.204	0.766	0.908	1.459	3.396	8.986	17.74	24.01	18.03	6.591	0.954	0.364	0.249	0.308	0.271	0.249	0.268	0.321	0.397	0.277	0.287	0.244	0.322	0.280
265.0	27.18	27.79	32.50	149.1	403.0	225.6	168.4	1015	4027	1977	178.6	12.31	5.547	4.227	3.225	2.248	2.293	2.181	1.757	1.215	0.984	1.164	0.815	0.771	0.677	0.702	0.670	0.646	0.628	0.641	0.553	0.570	0.468	0.509	0.484	0.437	0.357	0.420	0.355	0.328	0.324	0.364	0.386	0.418	0.382	0.354	0.339	0.342	0.340	0.297	0.448	0.923	1.874	2.326	1.613	0.769	0.701	1.066	2.420	5.433	13.43	24.86	28.65	16.88	4.411	0.442	0.295	0.300	0.292	0.378	0.336	0.327	0.302	0.376	0.309	0.335	0.280
270.0	29.06	22.52	23.88	50.88	199.7	399.3	266.3	276.3	1308	3431	3669	790.2	37.83	6.197	4.477	3.128	3.008	2.517	1.915	1.460	1.221	1.053	0.911	0.939	0.889	0.730	0.810	0.639	0.676	0.661	0.648	0.584	0.580	0.525	0.522	0.504	0.474	0.437	0.433	0.413	0.339	0.373	0.419	0.399	0.397	0.376	0.351	0.362	0.349	0.287	0.290	0.494	0.784	1.269	1.980	2.368	1.932	1.110	1.027	1.472	3.396	7.267	14.26	22.85	29.70	21.00	12.52	4.211	0.551	0.324	0.313	0.357	0.313	0.344	0.302	0.373	0.313
275.0	32.25	31.68	28.27	28.64	62.95	188.3	515.0	311.0	329.7	864.8	2973	8356	1005	36.81	6.171	4.367	3.426	3.211	2.256	1.628	1.372	1.162	1.097	0.838	0.895	0.786	0.754	0.613	0.691	0.719	0.734	0.620	0.619	0.589	0.575	0.475	0.463	0.436	0.468	0.422	0.452	0.389	0.435	0.484	0.412	0.420	0.353	0.371	0.338	0.342	0.265	0.407	0.349	0.585	0.755	1.250	2.396	3.359	2.603	1.201	1.139	2.028	3.590	5.552	8.850	15.75	34.37	32.17	19.29	3.842	0.470	0.401	0.361	0.380	0.407	0.317	0.281
280.0	40.91	40.41	41.11	31.69	32.74	70.12	320.2	589.8	214.8	229.1	851.6	5830	5790	146.6	16.73	5.378	3.900	3.675	2.793	1.916	1.396	1.362	1.028	0.880	1.048	0.818	0.780	0.745	0.857	0.737	0.712	0.642	0.528	0.650	0.610	0.583	0.479	0.418	0.454	0.458	0.411	0.388	0.482	0.460	0.364	0.397	0.372	0.385	0.408	0.339	0.268	0.325	0.321	0.371	0.518	0.550	1.041	2.114	3.652	3.296	1.634	0.937	1.220	1.602	2.398	4.168	11.58	25.61	40.59	30.00	13.89	2.041	0.431	0.377	0.330	0.296	0.409
285.0	47.46	52.89	49.14	34.33	24.96	36.70	119.3	503.6	488.1	129.5	230.3	1693	5442	5106	111.7	10.27	5.884	4.694	3.206	2.056	1.612	1.538	1.123	1.068	1.160	0.929	0.856	0.867	0.779	0.698	0.834	0.695	0.659	0.721	0.592	0.595	0.449	0.486	0.517	0.445	0.477	0.438	0.449	0.483	0.331	0.385	0.402	0.418	0.410	0.444	0.309	0.326	0.338	0.397	0.442	0.363	0.506	0.918	1.864	3.306	3.995	2.238	0.962	0.807	0.880	1.284	3.018	6.754	15.77	31.86	42.46	25.53	8.804	1.044	0.439	0.402	0.364
290.0	53.32	67.01	61.67	49.39	34.81	34.33	57.59	188.0	511.8	452.3	160.3	441.5	1550	4314	4713	451.3	31.16	8.046	4.752	2.614	1.954	1.700	1.502	1.166	1.058	1.116	0.981	0.808	0.814	0.745	0.795	0.664	0.627	0.655	0.612	0.519	0.587	0.455	0.544	0.452	0.431	0.445	0.435	0.446	0.402	0.437	0.422	0.508	0.468	0.475	0.403	0.401	0.451	0.371	0.457	0.401	0.563	0.589	0.831	1.316	2.240	3.239	3.442	2.711	1.312	0.885	1.166	2.022	4.018	8.294	15.45	24.21	27.95	32.32	17.03	7.710	1.275
295.0	68.36	96.73	107.3	95.23	80.94	80.00	105.2	150.5	274.2	626.0	697.8	264.8	481.5	1123	2752	6186	676.9	45.59	8.291	3.784	2.430	1.941	1.531	1.213	1.259	1.120	0.922	0.754	0.805	0.752	0.762	0.710	0.744	0.719	0.622	0.532	0.599	0.567	0.547	0.366	0.500	0.456	0.549	0.427	0.418	0.438	0.492	0.602	0.581	0.542	0.487	0.512	0.483	0.559	0.675	0.548	0.684	0.813	0.981	1.061	1.245	1.609	2.284	4.031	4.635	3.221	1.842	1.504	2.124	2.847	4.481	6.413	7.734	14.84	28.68	43.91	28.60
300.0	123.9	193.9	244.4	225.9	222.3	252.5	331.5	341.7	340.6	1036	1552	1187	937.2	906.7	1260	4315	5710	570.8	38.66	6.700	3.536	2.654	2.110	1.647	1.428	1.371	1.146	0.855	1.033	0.859	0.855	0.781	0.842	0.786	0.717	0.664	0.607	0.649	0.588	0.609	0.496	0.536	0.603	0.507	0.561	0.665	0.806	0.927	1.082	0.831	0.910	1.063	1.056	1.012	1.365	1.366	1.824	2.101	2.306	2.446	3.059	3.572	4.038	5.008	6.695	8.798	7.685	5.819	5.131	5.099	5.023	4.944	5.398	7.198	11.02	23.39	44.46
305.0	232.9	415.6	511.4	490.3	487.4	527.1	918.2	1282	1768	2106	3087	3552	2723	2056	1940	2365	6473	5252	461.9	15.13	5.333	3.629	2.759	2.122	1.814	1.481	1.472	1.179	1.214	0.912	1.070	0.952	0.946	0.856	0.743	0.747	0.806	0.765	0.696	0.753	0.657	0.619	0.750	0.772	0.789	1.053	1.273	1.713	1.866	1.666	1.580	2.001	1.987	2.142	2.546	2.918	3.634	4.657	5.551	6.429	7.529	8.990	10.55	11.49	12.68	14.97	16.81	17.71	15.20	13.06	11.97	10.44	10.29	11.26	10.94	12.56	20.20
310.0	351.8	646.9	853.8	791.2	768.6	908.8	1325	1841	2400	3057	3731	4312	4074	3001	2558	2100	3294	6443	6459	1232	23.50	5.073	3.805	2.850	2.245	1.803	1.762	1.499	1.406	1.220	1.152	1.054	1.078	0.983	0.874	0.834	0.903	0.810	0.830	0.773	0.841	0.840	0.880	0.950	1.021	1.426	1.698	2.370	2.839	2.665	2.515	3.136	3.150	3.231	3.754	4.194	5.339	6.621	7.876	8.813	9.931	11.70	13.61	15.02	16.41	17.41	18.78	20.62	21.32	20.14	17.90	14.76	13.90	14.89	13.24	11.92	12.62
315.0	433.1	857.9	1181	1121	1013	1154	1564	2085	2597	3304	3944	4427	4352	3775	2985	2182	2431	2400	3527	5507	507.1	23.21	5.125	3.927	2.759	2.164	1.949	1.577	1.468	1.478	1.160	1.155	1.269	0.971	0.948	0.825	0.950	1.021	0.857	0.849	0.880	0.817	1.072	1.021	1.281	1.654	2.214	3.131	3.834	3.667	3.584	4.403	4.092	3.969	4.421	5.049	6.381	7.671	9.005	10.15	10.72	12.19	14.37	16.34	16.90	18.77	19.40	20.88	21.79	21.55	20.46	19.27	17.56	16.96	14.35	12.57	11.63
320.0	507.0	1020	1400	1279	1157	1258	1652	2151	2614	3313	3957	4451	4300	3876	3353	2263	2245	1472	1030	3457	4200	403.6	12.27	4.864	3.249	2.448	2.077	1.682	1.675	1.458	1.470	1.094	1.113	0.974	1.005	0.905	0.972	0.853	0.880	0.908	0.877	0.917	1.037	1.053	1.222	1.879	2.410	3.735	4.580	4.163	4.225	4.685	4.659	4.742	5.183	5.360	6.857	8.054	9.369	10.31	10.88	12.42	14.66	16.41	17.23	18.75	19.64	20.79	21.65	20.76	19.63	19.62	19.35	19.37	15.44	12.63	11.57
325.0	565.0	1142	1591	1526	1267	1251	1579	2027	2386	2961	3563	4057	3930	3474	3268	2274	2030	1185	424.7	995.9	3926	3607	60.22	8.278	4.245	2.766	2.355	1.762	1.817	1.571	1.526	1.113	1.169	1.131	0.995	0.931	0.994	0.842	0.990	0.985	0.848	0.906	1.036	1.046	1.360	1.984	2.662	4.003	4.747	4.754	4.781	5.640	5.049	5.049	5.257	5.321	6.665	7.599	8.975	9.903	10.17	11.11	12.97	14.72	15.11	17.13	17.00	18.78	19.62	19.10	17.24	17.17	17.40	19.03	16.16	13.26	11.34
330.0	646.5	1378	2209	2450	2074	1518	1470	1784	2035	2496	3030	3489	3447	3059	2800	2268	1937	1077	366.8	372.2	1164	3102	3700	1057	19.92	4.165	3.053	2.137	2.124	1.731	1.699	1.204	1.182	1.154	1.073	1.038	0.966	0.882	0.922	0.941	0.788	0.860	1.012	1.168	1.535	2.265	3.166	5.001	6.336	6.680	7.439	9.052	8.440	8.084	6.829	5.540	6.452	6.869	7.978	8.659	9.045	9.717	10.89	11.98	12.88	14.44	15.22	16.03	17.36	16.59	15.56	15.61	15.34	15.51	14.71	13.52	12.06
335.0	683.3	1699	2983	3685	3407	2119	1504	1615	1770	2152	2607	3031	3087	2816	2525	2055	1994	1193	473.4	343.1	459.1	869.3	2333	4924	422.3	18.35	4.376	2.421	2.191	1.820	1.571	1.465	1.454	1.264	1.074	1.013	0.905	0.977	0.946	0.989	0.813	0.891	1.019	1.305	1.698	2.648	3.708	5.922	7.830	9.073	10.60	13.51	13.69	12.97	9.673	7.037	6.594	6.307	7.515	7.674	7.728	8.465	9.886	10.66	10.93	12.55	13.49	13.93	15.20	14.95	14.52	14.51	13.90	13.97	12.74	11.96	11.50
340.0	688.4	1676	2986	3860	3620	2129	1357	1413	1526	1800	2206	2567	2658	2475	2195	1755	1698	1231	522.4	333.2	303.5	356.6	725.3	3408	3500	334.2	8.584	3.359	2.710	2.014	1.810	1.473	1.392	1.271	1.121	0.937	0.942	0.933	0.907	0.839	0.873	0.834	1.138	1.138	1.698	2.437	3.692	5.825	8.265	9.438	11.31	14.65	14.46	13.77	10.08	6.799	5.863	6.034	6.460	6.826	6.629	7.101	8.095	8.877	9.869	10.70	11.15	11.86	13.08	12.44	12.84	13.05	12.56	12.50	11.60	10.66	9.936
345.0	615.6	1561	2762	3663	3404	1942	1166	1178	1257	1494	1795	2103	2206	2078	1851	1479	1342	1077	594.9	321.8	252.7	230.9	293.4	1021	3633	3017	50.94	4.662	3.154	2.411	1.839	1.599	1.401	1.252	1.215	0.829	0.876	0.944	0.996	0.877	0.729	0.867	1.044	1.111	1.552	2.268	3.281	5.545	7.662	9.112	10.51	13.74	13.79	12.81	9.097	5.863	5.111	5.306	5.608	5.788	5.538	5.868	6.937	7.224	8.088	8.794	9.448	9.847	10.72	10.39	10.88	10.80	10.64	10.37	9.726	9.162	8.526
350.0	562.4	1398	2639	3593	3445	1918	1012	976.9	1015	1183	1431	1683	1775	1709	1541	1248	1095	832.1	616.0	430.2	266.0	212.4	209.9	315.8	1045	2712	3331	768.2	14.67	2.928	2.319	1.860	1.481	1.355	1.117	1.026	0.937	0.830	0.859	0.832	0.752	0.775	0.950	0.971	1.339	2.069	3.075	4.972	7.144	8.523	10.15	14.00	14.06	12.84	9.219	5.713	4.363	4.431	4.512	4.952	4.375	4.829	5.410	5.639	6.415	6.838	7.460	8.180	8.676	8.800	8.672	8.974	8.916	8.821	8.294	7.536	7.302
355.0	472.9	1221	2336	3234	3209	1774	874.5	807.9	817.9	924.1	1114	1313	1399	1371	1250	1035	895.8	662.4	473.5	477.8	339.8	211.2	186.3	161.6	262.7	642.0	2269	3372	368.7	12.53	2.974	2.231	1.772	1.438	1.193	1.119	1.101	0.925	0.782	0.751	0.690	0.791	0.956	0.938	1.255	1.815	2.726	4.361	6.346	7.773	9.202	12.91	12.80	11.97	8.793	5.256	3.929	3.760	3.643	3.917	3.953	3.916	4.204	4.569	5.033	5.543	6.200	6.598	7.059	7.046	7.020	7.243	6.913	7.070	6.883	6.442	5.898
360.0	415.8	1007	1985	2771	2737	1518	728.1	668.1	664.0	749.5	891.7	1054	1114	1103	1004	846.3	729.3	542.8	376.2	371.3	386.5	228.0	163.1	114.0	90.23	160.2	599.1	2717	3076	288.7	5.671	2.519	2.172	1.440	1.331	1.246	0.956	0.909	0.886	0.824	0.742	0.765	0.797	0.929	1.188	1.600	2.241	3.664	5.281	6.608	7.912	10.66	11.11	10.79	7.478	4.447	3.466	3.155	3.294	3.205	3.343	3.077	3.677	3.824	3.962	4.249	4.855	5.232	5.445	5.594	5.808	5.735	5.596	5.767	5.631	5.341	5.257
365.0	344.6	853.5	1682	2373	2322	1321	635.5	549.3	552.9	613.3	725.9	850.6	904.5	900.6	823.1	700.3	611.1	458.1	319.7	279.3	339.6	288.7	161.7	95.29	53.75	55.98	150.2	804.4	3403	2749	45.67	3.703	2.596	1.659	1.530	1.174	0.994	0.921	0.920	0.857	0.863	0.655	0.729	0.874	1.045	1.439	2.004	3.215	4.568	5.770	6.707	9.002	9.362	9.129	6.559	3.646	2.830	2.873	2.832	2.736	2.609	2.696	3.116	3.061	3.442	3.769	3.818	4.341	4.678	4.753	4.747	4.786	4.588	4.622	4.430	4.209	4.197
370.0	299.5	693.7	1364	1983	1992	1135	542.2	465.3	453.9	495.3	577.9	666.6	715.4	709.6	660.3	570.9	500.5	387.4	277.9	232.6	233.7	274.9	231.8	104.5	47.95	35.54	51.39	193.9	1003	2758	2838	198.5	12.51	2.313	1.790	1.311	1.143	0.961	0.950	0.855	0.845	0.674	0.776	0.766	0.921	1.185	1.571	2.728	3.704	4.785	5.753	7.645	7.889	7.643	5.617	3.358	2.641	2.315	2.346	2.264	2.254	2.275	2.325	2.642	2.815	2.924	3.255	3.321	3.646	3.815	3.801	3.858	3.875	3.887	3.745	3.554	3.580
375.0	230.5	561.5	1092	1553	1612	937.2	463.3	383.4	373.1	402.3	459.5	518.5	551.6	556.4	517.7	450.7	397.9	317.7	239.7	199.5	176.9	180.6	242.2	169.3	55.94	34.85	33.35	60.16	236.1	656.9	2071	2939	318.1	10.47	2.259	1.541	1.345	1.147	0.945	0.895	0.832	0.722	0.784	0.645	0.809	1.060	1.395	1.990	2.935	3.827	4.502	6.229	6.500	6.346	4.957	2.836	2.291	2.041	2.180	1.977	1.864	1.998	2.059	2.095	2.493	2.478	2.685	2.629	2.644	2.736	2.958	3.051	3.172	3.232	2.772	2.805	2.957
380.0	209.5	451.9	901.2	1259	1340	794.4	407.3	340.2	314.2	339.6	382.2	425.6	449.8	446.7	423.2	374.6	330.8	269.2	210.2	178.7	152.2	143.2	178.7	207.4	94.29	40.80	31.05	32.48	67.80	158.4	560.5	2671	2725	237.1	4.066	2.066	1.467	1.274	1.117	0.860	0.841	0.789	0.754	0.754	0.775	0.967	1.207	1.691	2.427	2.911	3.840	5.140	5.353	5.369	4.293	2.529	2.050	1.955	1.917	1.639	1.767	1.625	1.762	1.910	1.890	2.049	2.179	2.370	2.402	2.231	2.394	2.588	2.523	2.543	2.562	2.301	2.513
385.0	165.2	374.6	754.5	1071	1156	686.7	370.1	313.8	280.9	292.1	326.2	353.2	377.1	378.1	352.9	314.6	280.6	233.2	182.4	160.3	137.6	125.7	128.7	172.4	151.7	56.84	33.94	28.53	32.18	48.76	137.3	815.4	3279	2245	35.51	2.774	1.862	1.375	1.292	0.909	0.857	0.649	0.761	0.814	0.680	0.808	1.090	1.653	2.023	2.693	3.137	4.114	4.610	4.627	3.556	2.250	2.006	1.673	1.611	1.545	1.606	1.382	1.487	1.566	1.792	1.620	1.806	2.138	1.984	2.096	2.070	2.237	2.190	2.146	2.117	2.100	1.979
390.0	145.1	307.9	596.6	871.7	942.7	609.0	356.7	293.5	254.7	254.2	276.5	298.1	311.4	310.2	289.5	262.0	233.2	197.1	162.0	142.1	126.0	112.9	108.5	109.3	141.9	121.0	49.48	32.10	26.53	27.31	43.48	192.4	978.2	2365	2216	156.9	9.471	1.683	1.397	0.993	0.933	0.768	0.750	0.707	0.650	0.807	0.991	1.341	1.778	2.225	2.603	3.454	3.758	3.921	2.972	2.111	1.833	1.585	1.549	1.469	1.523	1.292	1.433	1.470	1.525	1.436	1.585	1.685	1.740	1.710	1.781	1.765	1.850	1.833	1.832	1.819	1.746
395.0	121.8	244.0	484.9	704.1	789.4	561.7	345.8	287.0	237.4	222.0	240.7	256.3	255.8	258.7	241.5	220.0	193.3	167.9	141.9	128.0	114.2	103.9	100.2	85.91	88.81	129.4	108.0	44.96	30.52	25.13	25.19	53.46	226.6	565.1	1714	2322	254.5	6.456	1.736	1.260	0.966	0.920	0.889	0.709	0.693	0.803	0.817	1.185	1.608	1.800	2.150	2.827	2.962	3.358	2.747	1.985	1.730	1.699	1.510	1.408	1.401	1.085	1.298	1.372	1.278	1.341	1.366	1.458	1.481	1.593	1.561	1.546	1.697	1.621	1.606	1.373	1.579
400.0	110.4	210.1	413.6	609.5	678.3	513.6	350.2	284.2	225.8	210.1	218.6	226.8	231.6	226.8	209.4	191.8	171.2	150.3	129.2	115.8	106.6	97.37	94.36	79.05	72.83	94.24	135.3	77.69	36.38	26.89	21.98	23.61	58.95	132.9	472.1	2117	2180	37.25	3.312	1.449	1.118	1.002	0.959	0.731	0.680	0.794	0.814	1.070	1.445	1.635	1.841	2.468	2.629	2.928	2.507	1.860	1.834	1.662	1.456	1.445	1.283	1.118	1.327	1.193	1.199	1.270	1.194	1.313	1.449	1.481	1.396	1.519	1.578	1.419	1.494	1.392	1.397
405.0	93.59	184.1	370.1	530.3	601.7	478.4	350.9	274.9	219.6	201.1	196.9	209.2	209.8	209.1	187.8	170.6	155.3	133.0	117.2	107.6	100.4	94.16	89.66	77.34	67.55	69.60	110.3	116.5	51.34	29.72	22.67	18.49	22.38	36.76	111.4	653.1	2571	1673	31.21	2.115	1.271	1.072	1.079	0.691	0.739	0.792	0.849	0.841	1.219	1.516	1.650	2.224	2.554	2.448	2.395	1.710	1.692	1.601	1.435	1.413	1.261	1.054	1.185	1.183	1.093	1.322	1.137	1.168	1.325	1.344	1.316	1.364	1.403	1.370	1.360	1.209	1.317
410.0	85.55	168.0	310.8	453.1	532.8	447.9	345.2	273.1	211.9	190.1	181.1	189.8	189.6	183.0	167.6	153.5	137.2	120.5	108.1	98.87	93.16	88.67	84.15	74.87	67.18	62.53	73.02	104.6	95.61	44.71	25.91	18.95	14.94	15.64	30.40	151.4	764.9	1756	1922	145.5	7.624	1.305	1.192	0.830	0.788	0.813	0.818	0.974	1.198	1.296	1.389	2.030	2.137	2.157	2.104	1.607	1.745	1.708	1.547	1.444	1.249	1.094	1.127	1.089	1.117	1.089	1.148	1.203	1.073	1.164	1.192	1.158	1.284	1.094	1.258	1.111	1.099
415.0	72.85	148.4	263.9	399.3	459.8	422.8	337.1	276.3	207.0	178.8	170.6	165.2	169.3	162.9	150.6	136.6	121.7	107.3	98.79	91.70	85.77	82.66	79.67	72.91	65.67	61.17	59.60	67.12	96.44	84.61	37.31	20.71	15.38	12.19	13.59	38.67	174.8	420.3	1467	2023	221.2	5.855	1.569	1.040	0.929	0.849	0.719	0.880	1.063	1.057	1.364	1.757	1.887	2.088	1.836	1.652	1.577	1.606	1.629	1.472	1.264	1.126	1.087	0.995	1.079	1.035	1.042	1.158	1.058	1.118	1.060	0.941	1.101	0.977	1.109	1.090	1.039
420.0	80.26	126.8	239.1	367.3	440.1	406.1	356.7	282.8	207.6	171.6	164.1	158.6	158.5	149.2	138.5	126.8	114.6	101.0	94.09	88.43	82.01	77.20	75.32	69.52	64.01	59.09	56.09	54.90	68.70	98.93	55.31	24.46	16.10	12.46	10.33	14.25	43.37	97.70	401.2	1593	1713	34.97	3.081	1.187	1.001	0.967	0.751	0.938	1.045	1.027	1.196	1.628	1.752	1.868	1.939	1.755	1.669	1.662	1.628	1.473	1.166	1.157	1.006	0.945	1.036	0.909	1.149	1.060	1.023	1.037	1.041	0.872	1.057	1.015	1.004	0.977	0.979
425.0	75.15	119.9	227.1	336.1	411.5	408.1	355.6	290.7	209.8	170.9	159.8	155.3	151.6	139.8	132.5	120.1	108.6	99.77	89.86	84.35	77.23	74.65	72.35	68.13	63.16	58.27	56.26	51.66	52.50	79.99	83.61	39.12	18.00	13.54	10.36	9.455	14.49	25.72	93.78	473.0	1736	1338	30.10	1.727	1.125	1.096	0.827	0.958	0.927	1.065	1.107	1.467	1.970	1.847	1.863	1.807	1.710	1.745	1.663	1.627	1.273	1.162	1.062	0.931	0.947	0.850	1.072	0.971	0.939	0.913	0.961	0.924	1.040	0.948	1.078	0.990	1.072
430.0	69.89	117.3	204.2	312.3	395.5	403.4	368.3	312.3	225.1	173.3	152.3	145.2	140.9	134.5	126.0	115.9	106.6	96.77	91.58	83.47	75.08	70.49	68.55	65.74	62.02	59.04	55.89	51.31	48.57	54.50	72.94	67.67	32.37	16.65	12.26	9.543	9.368	10.09	24.63	109.1	497.5	1245	1648	137.2	8.311	1.471	0.990	1.040	0.988	1.040	1.135	1.464	1.627	1.839	1.901	1.738	1.770	1.831	1.662	1.550	1.331	1.174	1.125	1.000	0.958	0.917	1.009	0.915	0.978	0.969	0.961	0.978	1.013	1.008	1.102	0.939	0.997
435.0	92.44	117.4	191.6	298.3	382.6	406.9	396.4	339.3	236.3	174.0	147.4	138.5	132.5	130.1	125.0	114.0	105.6	98.23	91.58	83.73	73.71	66.23	64.54	62.45	61.59	58.53	56.15	53.49	49.83	47.72	49.89	67.92	61.20	26.56	15.27	11.45	9.066	7.705	9.583	27.57	113.6	291.9	1127	1752	226.2	9.838	1.380	1.188	1.026	1.154	1.093	1.482	1.699	1.847	1.918	1.836	1.968	1.884	1.958	1.748	1.491	1.304	1.126	1.114	0.899	0.824	0.898	0.850	0.922	0.961	0.993	0.912	0.993	0.985	1.117	1.024	1.036
440.0	112.4	125.5	193.9	292.2	375.7	417.7	422.6	363.8	260.9	176.8	142.1	135.2	126.3	127.5	119.2	115.5	106.8	101.0	92.91	83.54	70.62	65.11	61.47	61.25	59.86	57.66	56.06	52.91	50.83	47.89	43.69	50.68	69.53	43.35	18.60	12.69	9.703	7.359	6.785	9.361	28.13	67.74	297.2	1302	1624	193.8	3.613	1.438	1.248	1.178	1.100	1.562	1.780	1.746	1.991	1.831	1.956	2.061	1.969	1.771	1.439	1.221	1.094	1.075	0.886	0.805	0.901	0.873	0.959	0.884	1.012	0.853	0.999	1.036	1.086	0.985	1.073
445.0	143.7	141.2	184.8	289.4	392.9	432.5	444.8	384.1	264.3	184.3	138.4	131.2	125.7	128.1	119.0	114.6	108.0	101.2	95.68	84.81	70.04	62.19	60.25	58.01	57.61	57.20	55.70	54.25	51.98	48.61	43.52	41.78	56.44	60.11	29.49	14.43	10.38	7.818	6.398	5.790	9.000	17.53	69.28	373.6	1469	1542	27.36	2.434	1.266	1.225	1.203	1.476	1.770	1.926	1.931	1.880	2.209	2.188	1.976	1.743	1.592	1.310	1.086	1.104	0.866	0.947	0.971	0.859	0.910	0.959	0.977	0.942	0.922	0.938	0.998	0.935	1.152
450.0	120.0	246.4	206.5	275.4	374.8	432.5	448.6	395.6	277.7	181.3	135.2	124.8	121.3	123.0	114.7	111.7	106.0	102.0	96.29	83.47	68.15	58.40	56.64	54.98	54.84	55.34	54.12	53.83	51.56	49.30	44.38	39.63	40.05	50.86	46.83	23.96	12.51	8.532	6.552	4.972	4.913	6.317	17.95	85.75	403.3	1199	1355	466.7	8.458	1.498	1.377	1.526	1.755	1.795	1.898	1.926	2.104	2.202	1.963	1.882	1.651	1.391	1.148	1.028	0.891	0.896	0.888	0.842	0.846	0.777	0.934	0.844	0.866	0.924	0.893	0.954	1.084
455.0	80.27	287.5	310.2	264.3	353.6	420.9	445.8	393.5	272.0	175.9	129.3	116.2	114.2	114.5	109.1	107.4	106.2	97.72	92.81	81.83	63.20	52.98	51.96	50.19	51.13	52.15	51.33	51.52	50.50	48.54	44.09	38.15	34.34	34.17	44.08	40.11	18.77	9.394	6.670	5.226	4.015	3.763	6.222	21.07	91.71	276.4	725.8	1788	202.3	10.88	1.489	1.486	1.695	1.612	1.875	2.007	2.264	2.173	1.902	1.791	1.476	1.314	1.196	0.921	0.886	0.942	0.789	0.878	0.869	0.880	0.842	0.850	0.834	0.851	0.915	0.954	0.895
460.0	63.51	236.5	516.0	283.1	331.0	404.5	430.4	382.1	267.2	168.5	121.6	110.8	108.5	106.7	103.9	103.0	100.7	93.51	89.93	78.37	60.60	49.56	48.53	47.36	48.43	49.03	48.58	49.11	49.32	47.86	42.89	37.78	32.42	28.22	31.64	42.65	28.92	11.78	7.122	5.267	3.965	3.344	3.778	6.526	22.26	63.57	179.3	1074	1452	168.7	6.235	1.743	1.726	1.701	1.910	1.869	2.084	2.152	1.934	1.811	1.631	1.319	1.111	0.899	0.847	0.838	0.861	0.795	0.876	0.871	0.735	0.866	0.922	0.828	0.852	0.871	0.884
465.0	57.57	150.4	633.2	427.2	317.3	383.8	416.3	369.2	259.9	160.7	118.2	103.2	102.4	98.96	96.48	96.73	95.45	90.59	84.85	74.65	56.28	46.48	44.46	44.52	45.27	45.97	44.81	46.43	46.82	45.19	41.69	37.00	31.05	25.02	24.04	32.45	36.10	17.79	7.557	5.357	4.133	3.435	3.130	3.228	6.533	16.02	41.88	282.2	1133	1352	133.0	3.826	1.981	1.741	2.046	1.928	2.036	2.195	1.952	1.865	1.543	1.418	1.174	1.004	0.782	0.749	0.716	0.742	0.798	0.741	0.873	0.863	0.791	0.898	0.781	0.916	0.865
470.0	58.63	102.3	453.8	826.6	380.9	344.5	370.5	337.3	239.1	146.1	103.7	92.85	90.21	89.83	87.73	87.66	87.22	81.84	78.40	66.66	50.59	41.38	39.13	39.22	39.97	41.33	40.85	42.24	42.35	42.00	38.23	33.69	29.00	24.28	20.67	20.87	27.57	26.46	13.15	5.787	4.179	3.355	2.897	2.682	3.110	5.106	10.99	64.73	292.5	873.3	996.8	411.6	11.20	2.025	1.926	1.763	1.993	1.908	1.848	1.742	1.518	1.238	1.089	0.944	0.782	0.744	0.721	0.697	0.735	0.720	0.715	0.705	0.750	0.761	0.833	0.855	0.876
475.0	67.76	82.39	214.1	899.4	662.9	311.0	329.5	301.6	212.8	135.6	90.71	82.45	80.52	79.99	79.24	80.97	75.34	72.45	69.10	58.85	45.52	36.18	34.29	34.85	35.29	36.29	36.20	36.66	37.86	36.91	34.01	30.69	26.78	21.58	18.35	16.16	16.13	21.89	21.72	9.586	4.363	3.229	2.765	2.349	2.383	2.659	3.743	15.72	66.49	197.6	397.3	1054	212.5	15.88	1.954	1.689	1.947	1.838	1.768	1.632	1.297	1.080	1.100	0.930	0.638	0.830	0.700	0.527	0.769	0.710	0.663	0.623	0.615	0.734	0.726	0.838	0.794
480.0	79.79	83.73	130.0	620.0	1249	379.5	304.4	273.3	194.7	122.2	84.11	77.07	76.11	73.64	71.69	70.94	69.13	66.63	62.73	53.53	40.58	32.99	29.65	31.11	31.02	33.24	33.28	34.17	34.54	34.46	32.23	28.50	24.61	20.93	17.43	14.11	12.31	14.60	22.44	15.49	5.859	3.146	2.617	2.156	2.123	2.318	2.037	4.740	16.01	45.52	93.68	492.7	985.6	205.7	10.32	1.829	1.748	1.657	1.672	1.431	1.188	1.108	0.965	0.841	0.681	0.673	0.674	0.659	0.709	0.682	0.668	0.630	0.626	0.706	0.708	0.793	0.813
485.0	64.74	98.20	110.4	329.7	1391	553.5	282.0	252.3	184.7	110.8	80.65	72.49	69.14	68.02	66.77	65.57	64.18	61.93	57.75	49.47	36.45	30.25	27.97	28.70	28.97	29.90	31.13	31.35	32.20	31.96	30.14	25.76	23.25	19.79	16.44	13.11	11.12	10.41	16.22	19.46	9.556	3.667	2.559	2.116	2.041	1.978	1.864	2.336	4.726	11.54	22.32	121.6	618.5	1015	171.3	5.212	1.810	1.617	1.606	1.302	1.323	1.112	0.918	0.687	0.735	0.699	0.667	0.551	0.592	0.672	0.668	0.679	0.546	0.610	0.665	0.710	0.660
490.0	48.88	108.1	111.5	181.2	866.8	1214	363.8	220.9	161.9	102.5	70.74	64.82	63.04	61.19	59.33	57.77	56.77	54.62	51.14	44.33	33.40	26.82	25.13	24.55	25.95	26.61	27.15	27.95	28.42	28.66	26.57	23.98	21.06	17.88	14.47	12.20	10.10	8.283	9.283	14.67	15.20	7.231	3.119	2.284	1.885	1.811	1.699	1.852	2.261	3.632	6.124	28.47	152.2	514.9	926.0	424.6	14.11	1.909	1.557	1.323	1.234	1.055	0.953	0.789	0.646	0.585	0.593	0.606	0.565	0.593	0.654	0.616	0.582	0.607	0.649	0.646	0.612
495.0	41.38	96.73	137.2	131.8	354.2	1239	859.5	201.1	138.2	89.64	63.86	56.33	55.13	53.26	51.79	51.28	51.20	47.19	43.61	37.33	29.04	23.08	21.88	21.50	22.22	23.66	23.81	24.85	24.70	24.88	23.35	21.17	18.42	16.05	12.92	11.08	8.553	7.439	6.816	7.851	13.20	12.92	6.033	2.445	1.919	1.699	1.616	1.704	1.840	1.765	2.361	7.412	35.20	116.5	332.9	926.0	668.6	21.27	1.830	1.340	1.061	0.900	0.848	0.752	0.637	0.606	0.567	0.595	0.575	0.566	0.578	0.503	0.593	0.523	0.612	0.526	0.677
500.0	38.57	74.13	146.8	118.0	191.9	767.4	1371	272.1	121.0	78.33	56.12	51.31	49.10	47.39	44.83	45.04	44.99	41.61	38.09	32.97	24.67	21.16	19.26	20.09	19.56	20.85	21.34	21.06	23.05	21.74	20.74	19.12	16.62	14.21	12.22	10.53	8.387	6.675	5.708	5.581	8.230	13.78	9.609	3.469	2.046	1.725	1.486	1.502	1.642	1.543	1.447	2.644	8.987	27.27	77.25	374.1	1074	235.0	15.12	1.452	1.185	1.001	0.783	0.712	0.615	0.563	0.573	0.495	0.520	0.472	0.557	0.534	0.568	0.557	0.545	0.554	0.663
505.0	33.60	53.14	151.3	126.9	141.2	372.4	1492	567.7	106.2	72.73	52.81	47.98	44.70	42.30	40.57	41.99	40.36	37.89	34.99	29.96	23.03	18.49	16.77	17.45	17.08	18.34	19.07	19.73	20.27	20.37	18.93	17.28	15.51	12.62	11.29	9.762	7.657	6.015	4.914	4.403	4.927	9.698	12.00	6.081	2.289	1.611	1.485	1.312	1.396	1.734	1.245	1.543	3.021	7.194	18.67	88.88	526.0	1006	201.6	7.128	1.202	0.816	0.756	0.687	0.641	0.553	0.475	0.487	0.480	0.510	0.548	0.416	0.586	0.521	0.530	0.467	0.593
510.0	29.56	44.18	116.0	154.3	120.2	179.8	877.1	1219	192.7	63.70	45.23	42.75	38.05	36.68	35.31	34.21	34.00	31.91	28.71	25.47	19.44	15.90	13.95	14.91	14.86	15.58	15.73	16.84	16.97	16.78	16.06	14.59	12.94	10.99	9.477	8.187	6.846	5.462	4.531	3.879	3.620	5.056	9.254	9.688	4.731	1.937	1.369	1.282	1.222	1.384	1.455	1.308	1.593	2.414	5.159	20.98	125.0	445.4	716.9	368.6	14.94	1.187	0.843	0.757	0.566	0.537	0.556	0.489	0.481	0.477	0.465	0.451	0.524	0.495	0.467	0.523	0.579
515.0	26.47	33.90	67.45	159.9	126.0	121.3	317.9	1311	682.2	60.41	39.59	38.55	33.77	32.11	29.09	28.66	27.89	27.21	25.45	21.46	16.61	13.15	12.34	12.71	12.53	12.68	13.36	13.65	14.03	14.02	13.35	12.49	11.62	9.525	8.113	7.045	5.648	4.812	4.150	3.417	3.125	3.086	4.625	8.381	8.120	3.640	1.503	1.206	1.129	1.111	1.232	1.570	1.312	1.304	1.946	5.582	28.93	100.5	224.2	715.8	531.9	20.49	1.021	0.809	0.604	0.503	0.552	0.427	0.499	0.451	0.499	0.509	0.459	0.467	0.427	0.430	0.515
520.0	22.39	32.23	47.38	131.2	145.2	97.83	147.3	816.5	1261	128.0	36.85	34.10	30.22	27.83	26.65	25.15	24.14	23.20	21.61	18.36	14.46	11.57	11.07	10.57	10.76	11.42	11.92	12.19	12.60	12.07	11.93	11.00	10.10	8.466	7.464	6.242	5.246	4.121	3.734	3.165	2.728	2.352	2.646	5.282	8.937	6.118	2.164	1.145	1.085	1.070	0.933	1.476	1.321	1.105	1.208	2.073	7.282	23.40	51.70	276.4	782.5	230.3	13.44	0.874	0.630	0.532	0.585	0.469	0.431	0.422	0.467	0.415	0.431	0.431	0.529	0.450	0.492
525.0	23.55	32.49	37.78	99.45	169.9	97.39	100.4	344.8	1485	266.8	34.20	29.50	26.95	25.31	23.77	22.17	22.00	20.16	18.62	16.69	12.47	10.12	10.45	9.307	9.679	9.661	10.28	10.75	11.25	10.94	10.31	9.733	8.543	7.332	6.836	5.451	4.646	3.775	3.490	2.721	2.503	2.074	2.251	2.983	6.656	7.420	4.019	1.404	0.900	0.945	0.815	1.125	1.570	1.240	1.003	1.300	2.395	6.136	12.44	65.15	359.9	709.5	192.5	6.333	0.792	0.511	0.517	0.481	0.396	0.447	0.378	0.443	0.460	0.399	0.454	0.461	0.513
530.0	26.18	26.74	31.89	58.31	147.6	115.5	78.81	132.9	897.3	1074	112.5	25.72	23.39	21.21	20.05	19.01	18.90	17.55	15.36	13.51	10.42	8.699	8.527	8.074	8.453	8.480	8.873	8.926	9.522	9.112	8.757	8.366	7.402	6.474	5.561	4.876	3.947	3.289	3.044	2.571	2.136	1.970	1.828	1.965	3.353	6.324	6.133	2.786	1.037	0.787	0.708	0.884	1.149	1.432	1.275	1.010	1.188	2.058	3.532	15.32	84.82	304.9	562.2	369.3	14.32	0.817	0.527	0.476	0.429	0.453	0.425	0.416	0.443	0.444	0.406	0.471	0.444
535.0	22.26	25.37	27.83	38.85	93.42	147.7	71.66	71.44	272.5	1247	579.3	25.84	19.08	18.13	17.42	15.53	15.48	13.89	12.73	10.70	8.527	7.485	6.967	6.738	7.207	7.385	7.191	7.364	7.634	8.052	7.660	7.034	6.029	5.310	4.651	4.281	3.496	2.694	2.756	2.050	1.946	1.625	1.513	1.496	1.772	3.034	5.618	4.731	2.010	0.855	0.710	0.756	0.800	1.027	1.512	1.156	0.851	0.970	1.398	4.087	19.59	68.72	173.3	720.7	244.9	18.40	0.677	0.585	0.488	0.507	0.424	0.444	0.389	0.385	0.325	0.393	0.413
540.0	22.81	25.54	26.65	34.70	55.58	155.9	86.34	52.57	92.39	754.4	1178	73.23	18.52	15.35	15.54	13.83	12.76	12.29	10.78	9.317	7.279	6.107	5.849	5.788	5.792	6.273	6.417	6.629	6.994	6.902	6.532	5.962	5.206	4.289	4.050	3.568	3.080	2.715	2.291	1.879	1.783	1.620	1.396	1.250	1.360	1.534	3.745	5.388	3.205	1.331	0.704	0.751	0.710	0.790	1.123	1.445	1.014	0.784	0.794	1.532	5.033	15.94	39.81	274.1	541.1	213.2	11.46	0.638	0.530	0.514	0.507	0.402	0.408	0.373	0.377	0.403	0.378
545.0	21.13	22.99	26.10	29.14	40.94	121.7	110.9	43.65	48.03	284.1	1421	196.3	16.79	13.89	13.80	12.35	11.50	10.94	9.296	8.104	7.000	5.577	5.205	5.111	5.627	5.561	5.454	5.780	5.870	5.789	5.693	5.099	4.812	4.187	3.632	3.094	2.757	2.274	1.975	1.768	1.508	1.492	1.274	1.142	1.132	1.177	1.918	4.225	4.549	2.131	0.785	0.634	0.640	0.651	0.752	1.255	1.286	0.668	0.702	0.816	1.632	4.114	9.495	64.01	251.1	484.2	169.9	4.069	0.627	0.434	0.512	0.406	0.525	0.402	0.386	0.354	0.400
550.0	21.55	21.87	21.79	24.78	29.87	68.65	128.9	52.23	32.62	84.86	792.5	950.9	64.89	12.20	11.46	10.96	9.784	8.964	7.594	6.856	5.759	4.690	4.335	4.380	4.316	4.415	4.472	4.822	4.670	4.664	4.522	4.267	3.878	3.410	2.987	2.530	2.291	2.060	1.831	1.570	1.280	1.297	1.141	0.965	0.953	1.028	1.077	2.272	4.023	3.225	1.553	0.807	0.572	0.598	0.633	0.779	1.165	1.162	0.758	0.582	0.793	1.382	2.630	14.84	58.82	197.7	385.1	140.8	13.17	0.630	0.470	0.431	0.454	0.355	0.353	0.394	0.382
555.0	21.89	22.53	20.58	21.49	24.64	35.04	99.36	86.47	27.51	33.25	218.5	1180	396.4	12.55	9.735	8.687	8.090	7.369	6.288	5.769	5.065	3.605	3.809	3.425	3.381	3.348	3.741	4.134	3.747	3.830	3.583	3.026	3.134	2.535	2.619	2.119	2.020	1.499	1.455	1.356	1.072	1.038	0.922	0.866	0.777	0.757	0.745	1.095	1.990	3.329	2.635	1.157	0.567	0.531	0.539	0.644	0.747	1.015	1.168	0.659	0.554	0.725	0.913	3.735	13.61	44.46	112.7	317.0	227.0	16.88	0.570	0.486	0.472	0.371	0.326	0.332	0.370
560.0	22.91	21.13	16.78	19.60	18.55	22.88	65.51	103.8	31.95	20.39	62.97	701.6	904.6	37.91	9.275	7.356	7.063	6.139	5.240	4.716	3.940	3.475	3.236	3.163	2.758	3.001	3.311	3.381	3.048	3.029	3.032	2.534	2.388	2.362	2.062	1.892	1.704	1.388	1.326	1.216	0.944	0.927	0.790	0.765	0.814	0.650	0.644	0.865	1.078	2.287	2.819	1.827	0.649	0.489	0.500	0.524	0.577	0.676	1.122	0.814	0.508	0.489	0.542	1.258	3.489	10.39	25.85	118.6	350.4	173.4	8.146	0.505	0.452	0.417	0.329	0.364	0.364
565.0	26.74	18.58	17.30	18.82	18.19	19.95	36.31	107.4	43.74	16.28	26.57	252.3	1170	133.4	8.224	6.144	5.864	5.055	4.746	4.019	3.228	2.900	2.736	3.005	2.445	2.559	2.649	2.786	2.674	2.655	2.689	2.122	2.344	2.036	1.756	1.617	1.418	1.372	1.151	1.040	0.796	0.885	0.771	0.726	0.734	0.649	0.632	0.693	0.727	1.278	2.244	2.443	1.027	0.486	0.452	0.466	0.475	0.506	0.779	0.995	0.574	0.454	0.428	0.627	1.160	2.749	6.372	27.67	153.3	318.4	34.42	2.664	0.493	0.414	0.409	0.311	0.332
570.0	21.89	19.24	17.95	16.59	16.29	15.88	20.63	71.84	79.22	18.32	15.61	70.77	686.5	704.5	34.70	5.278	5.143	4.508	3.752	3.490	2.974	2.400	2.215	2.308	2.199	2.239	2.272	2.261	2.450	2.213	2.154	1.794	1.852	1.746	1.436	1.396	1.302	1.153	0.919	0.913	0.736	0.757	0.741	0.642	0.624	0.607	0.597	0.557	0.622	0.738	1.261	2.081	1.621	0.853	0.455	0.424	0.419	0.438	0.542	0.805	0.969	0.621	0.456	0.475	0.595	0.938	1.816	6.578	36.04	127.0	207.1	117.3	10.94	0.470	0.398	0.347	0.341
575.0	21.03	16.44	17.73	15.07	13.71	14.37	13.69	34.30	92.66	31.49	11.59	24.81	190.9	910.6	247.3	5.784	4.635	3.845	3.223	2.800	2.408	1.942	1.850	1.767	1.848	1.799	1.763	1.809	1.889	1.892	1.635	1.755	1.538	1.327	1.190	1.241	0.999	0.993	0.798	0.737	0.754	0.691	0.746	0.537	0.561	0.495	0.436	0.432	0.526	0.488	0.648	1.185	1.852	1.370	0.667	0.422	0.451	0.420	0.437	0.453	0.753	0.944	0.586	0.445	0.450	0.536	0.711	1.834	8.338	28.71	62.58	194.9	153.1	11.84	0.449	0.380	0.358
580.0	21.41	17.93	16.12	13.32	13.35	12.17	12.65	18.32	78.98	55.31	12.26	14.00	51.84	565.2	626.7	18.54	4.371	3.911	3.060	2.407	2.288	2.056	1.836	1.835	1.721	1.440	1.562	1.642	1.678	1.584	1.402	1.451	1.462	1.098	1.125	0.967	0.904	0.764	0.743	0.658	0.708	0.616	0.674	0.511	0.470	0.500	0.356	0.384	0.428	0.398	0.395	0.665	1.333	1.599	0.945	0.500	0.394	0.446	0.441	0.401	0.570	0.834	0.821	0.516	0.351	0.410	0.460	0.746	2.170	6.804	14.45	72.23	209.0	102.5	5.210	0.438	0.372
585.0	22.31	15.27	12.13	14.29	12.80	12.27	12.90	12.86	49.98	81.49	16.24	12.05	19.71	205.9	839.4	83.67	4.383	3.783	2.247	2.217	2.111	1.696	1.501	1.543	1.527	1.408	1.315	1.349	1.381	1.367	1.195	1.250	1.241	1.049	0.981	0.915	0.816	0.762	0.770	0.616	0.696	0.606	0.556	0.507	0.410	0.475	0.381	0.419	0.390	0.347	0.336	0.413	0.859	1.565	1.300	0.669	0.386	0.360	0.387	0.414	0.398	0.560	0.935	0.681	0.363	0.418	0.372	0.556	0.772	1.905	3.536	16.99	91.21	194.2	33.15	1.856	0.401
590.0	18.49	17.72	14.36	13.39	11.53	11.41	12.28	12.63	25.62	81.22	39.07	12.74	13.85	57.54	496.2	448.1	18.13	3.820	2.553	1.965	1.990	1.399	1.343	1.402	1.233	1.241	1.200	1.117	1.267	1.235	1.075	1.128	1.026	0.924	0.870	0.755	0.694	0.662	0.613	0.586	0.547	0.455	0.476	0.482	0.490	0.401	0.417	0.389	0.377	0.306	0.313	0.332	0.510	0.973	1.259	0.974	0.549	0.400	0.358	0.375	0.365	0.411	0.641	0.832	0.655	0.410	0.352	0.460	0.462	0.753	1.123	4.148	21.49	77.93	150.8	81.85	8.839
595.0	18.06	17.85	15.71	13.65	15.30	13.20	13.62	14.98	19.24	53.46	69.59	22.21	16.51	24.15	140.0	619.0	91.96	4.760	2.525	1.920	1.649	1.387	1.244	1.206	1.096	1.089	1.107	0.945	1.016	0.996	1.015	1.068	0.831	0.818	0.860	0.582	0.639	0.498	0.544	0.511	0.470	0.364	0.437	0.449	0.348	0.434	0.327	0.329	0.361	0.287	0.338	0.323	0.360	0.518	1.013	1.156	0.760	0.517	0.373	0.432	0.375	0.388	0.426	0.548	0.848	0.610	0.423	0.363	0.405	0.444	0.508	1.235	5.114	17.71	45.28	135.0	95.37
600.0	19.28	19.62	22.81	17.25	15.26	14.86	17.78	19.35	24.86	40.55	86.47	42.46	26.46	25.52	50.35	403.5	447.2	15.04	2.535	1.656	1.496	1.294	1.123	1.216	0.937	1.095	0.992	0.897	0.914	0.909	0.862	0.833	0.786	0.824	0.773	0.594	0.652	0.517	0.510	0.445	0.434	0.512	0.388	0.389	0.405	0.441	0.320	0.379	0.344	0.317	0.325	0.328	0.307	0.395	0.663	1.020	0.983	0.662	0.352	0.374	0.340	0.387	0.404	0.529	0.650	0.801	0.605	0.446	0.460	0.462	0.452	0.712	1.452	4.335	10.65	49.49	130.5
605.0	18.77	22.37	28.46	22.25	21.25	22.35	30.47	37.91	46.36	66.14	116.7	99.00	61.34	50.87	49.97	173.6	698.2	69.73	3.721	1.829	1.470	1.202	1.250	1.005	0.854	0.933	0.969	0.831	0.779	0.811	0.783	0.789	0.702	0.682	0.722	0.504	0.569	0.514	0.435	0.434	0.425	0.454	0.323	0.411	0.378	0.355	0.322	0.386	0.354	0.282	0.309	0.294	0.289	0.373	0.505	0.751	1.192	0.823	0.547	0.481	0.495	0.508	0.470	0.584	0.671	0.928	0.932	0.799	0.683	0.529	0.546	0.689	0.761	1.439	2.831	11.75	56.07
610.0	28.56	32.06	35.91	34.41	34.03	41.66	58.74	81.76	111.6	149.3	189.7	222.3	163.3	123.5	111.3	115.9	531.3	497.7	14.56	2.109	1.418	1.101	1.085	0.937	0.806	0.856	0.979	0.751	0.814	0.728	0.771	0.665	0.647	0.657	0.557	0.543	0.535	0.497	0.453	0.424	0.447	0.415	0.373	0.371	0.426	0.398	0.362	0.425	0.402	0.337	0.306	0.378	0.396	0.408	0.414	0.577	0.981	1.093	0.851	0.724	0.775	0.758	0.846	1.050	0.953	1.165	1.361	1.354	1.217	0.978	0.927	0.948	0.913	1.161	1.387	3.244	13.56
615.0	34.84	39.26	45.85	40.58	42.02	49.45	73.05	103.2	140.4	185.2	221.1	269.6	222.2	158.9	140.4	113.2	233.7	800.4	75.28	2.434	1.325	1.074	0.889	0.947	0.873	0.741	0.938	0.609	0.716	0.729	0.685	0.722	0.596	0.554	0.495	0.551	0.540	0.450	0.557	0.421	0.429	0.360	0.431	0.359	0.365	0.407	0.451	0.482	0.369	0.375	0.308	0.392	0.375	0.464	0.537	0.556	0.676	1.016	0.961	0.934	0.931	0.919	1.007	1.216	1.224	1.300	1.313	1.608	1.526	1.304	1.022	1.012	0.911	1.074	1.271	1.465	3.703
620.0	31.96	42.00	52.12	41.40	45.49	55.10	73.62	103.9	134.9	177.6	201.9	246.4	230.0	156.1	138.9	105.7	136.6	589.3	367.6	4.742	1.370	1.008	1.047	0.811	0.777	0.753	0.781	0.629	0.632	0.603	0.646	0.613	0.627	0.684	0.639	0.504	0.454	0.502	0.543	0.426	0.411	0.353	0.359	0.357	0.368	0.500	0.391	0.395	0.364	0.406	0.294	0.449	0.437	0.490	0.521	0.489	0.644	0.946	1.077	0.937	0.891	1.000	0.989	1.113	1.181	1.129	1.158	1.382	1.582	1.385	1.159	0.999	0.943	1.120	1.018	0.987	1.463
625.0	32.12	48.29	50.16	45.97	48.37	53.46	74.27	103.4	130.4	167.3	191.7	222.6	230.9	159.0	139.2	99.68	110.5	265.9	581.7	25.36	1.517	0.980	0.954	0.736	0.806	0.646	0.854	0.592	0.579	0.617	0.640	0.586	0.469	0.531	0.489	0.466	0.423	0.458	0.523	0.366	0.333	0.384	0.366	0.385	0.363	0.445	0.359	0.374	0.411	0.363	0.321	0.434	0.430	0.436	0.410	0.515	0.548	0.707	0.986	0.935	0.947	0.930	1.062	1.067	1.110	1.071	1.196	1.281	1.518	1.509	1.252	1.090	1.016	1.079	0.952	0.808	0.884
630.0	32.30	46.86	54.81	54.02	49.01	53.75	78.13	101.0	121.4	156.7	186.7	204.3	214.1	172.1	135.2	99.36	101.3	106.5	405.1	166.2	4.259	1.167	0.852	0.762	0.664	0.660	0.739	0.637	0.675	0.613	0.612	0.559	0.518	0.451	0.477	0.420	0.395	0.381	0.425	0.387	0.369	0.348	0.354	0.347	0.350	0.343	0.359	0.421	0.440	0.372	0.363	0.461	0.405	0.420	0.417	0.483	0.528	0.618	0.850	0.924	0.946	0.924	0.954	1.053	1.019	1.074	1.171	1.230	1.237	1.380	1.278	1.151	0.962	1.030	0.909	0.924	0.834
635.0	30.39	51.55	59.42	56.70	52.42	57.75	77.92	97.76	120.0	148.5	177.1	197.4	197.3	181.9	137.7	97.92	98.59	66.52	121.3	323.3	44.02	1.278	0.998	0.811	0.697	0.678	0.626	0.604	0.605	0.540	0.596	0.554	0.519	0.442	0.470	0.385	0.434	0.336	0.406	0.339	0.348	0.351	0.345	0.309	0.333	0.333	0.366	0.374	0.436	0.393	0.399	0.441	0.476	0.466	0.385	0.404	0.574	0.545	0.809	0.818	0.812	0.943	0.897	1.064	1.063	1.143	1.257	1.191	1.297	1.131	1.395	1.266	1.065	1.063	0.827	0.874	0.773
640.0	35.04	48.48	65.18	55.56	54.67	58.17	71.96	98.06	114.3	152.7	175.0	193.7	185.8	183.2	144.8	96.73	96.84	55.76	36.10	254.1	166.6	2.181	1.044	0.839	0.742	0.609	0.552	0.672	0.628	0.657	0.571	0.460	0.469	0.495	0.414	0.419	0.407	0.472	0.456	0.411	0.294	0.278	0.368	0.295	0.274	0.343	0.373	0.381	0.399	0.436	0.381	0.366	0.451	0.484	0.427	0.411	0.548	0.651	0.604	0.717	0.827	0.901	0.938	0.996	1.033	1.064	1.122	1.225	1.238	1.015	1.139	1.107	1.132	1.018	0.890	0.906	0.714
645.0	33.60	53.55	65.48	55.15	50.48	53.36	71.31	91.27	108.4	141.7	165.6	186.2	177.1	163.9	146.3	95.48	92.95	51.88	16.45	110.8	292.2	14.05	1.082	0.902	0.811	0.569	0.740	0.549	0.600	0.584	0.520	0.496	0.582	0.476	0.404	0.368	0.361	0.345	0.409	0.337	0.332	0.307	0.330	0.315	0.275	0.307	0.365	0.456	0.416	0.474	0.371	0.376	0.502	0.396	0.507	0.420	0.469	0.590	0.569	0.660	0.818	0.897	0.964	0.984	0.902	1.002	0.993	1.076	1.293	1.067	1.046	1.109	1.289	1.060	0.869	0.874	0.762
650.0	39.15	49.85	67.43	54.31	47.94	52.99	65.53	85.64	103.4	126.3	147.6	164.1	160.9	144.9	138.1	88.66	84.66	46.20	11.71	33.06	290.2	60.23	1.245	0.917	0.807	0.583	0.709	0.630	0.625	0.475	0.585	0.428	0.471	0.473	0.369	0.386	0.407	0.384	0.389	0.328	0.375	0.317	0.357	0.376	0.365	0.339	0.320	0.395	0.432	0.426	0.377	0.403	0.424	0.457	0.426	0.413	0.531	0.548	0.579	0.591	0.741	0.829	0.871	0.929	0.928	0.877	1.019	1.017	1.107	1.010	0.902	0.900	1.087	1.036	0.938	0.781	0.818
