Sample:	'1
File name:	¹àÄÏ2³¡Ë®·Ê.FD3
Run date:	'14:48:42, 02/20/2024
Operator:	Administrator
Comment:	'

Instrument
Model:	F-2700 FL Spectrophotometer
Serial number:	23B8-004
ROM Version:	4J14000 07

Instrument parameters
Measurement type:	3-D scan
Data mode:	Fluorescence
EX  Start WL:	220.0 nm
EX  End WL:	600.0 nm
EX Sampling interval:	5.0 nm
EM  Start WL:	230.0 nm
EM  End WL:	650.0 nm
EM Sampling interval:	5.0 nm
Scan speed:	12000 nm/min
EX Slit:	5.0 nm
EM Slit:	5.0 nm
PMT Voltage:	700 V
Response:	Auto 
Corrected spectra:	Off
Contour interval:	50.000

Peak integration
Integration method:	Rectangular
Sensitivity:	1
Threshold:	1.000

Peaks
No.	ApexEX/EM(nm)	Height(Data)
1	225.0/345.0	3702
2	255.0/560.0	157.2
3	270.0/600.0	283.8
4	275.0/305.0	4635
5	275.0/340.0	4653
6	275.0/605.0	285.7
7	455.0/345.0	11.98
8	550.0/305.0	21.94
9	560.0/310.0	22.02
10	560.0/345.0	22.63
11	565.0/340.0	22.59

Data points
	220.0	225.0	230.0	235.0	240.0	245.0	250.0	255.0	260.0	265.0	270.0	275.0	280.0	285.0	290.0	295.0	300.0	305.0	310.0	315.0	320.0	325.0	330.0	335.0	340.0	345.0	350.0	355.0	360.0	365.0	370.0	375.0	380.0	385.0	390.0	395.0	400.0	405.0	410.0	415.0	420.0	425.0	430.0	435.0	440.0	445.0	450.0	455.0	460.0	465.0	470.0	475.0	480.0	485.0	490.0	495.0	500.0	505.0	510.0	515.0	520.0	525.0	530.0	535.0	540.0	545.0	550.0	555.0	560.0	565.0	570.0	575.0	580.0	585.0	590.0	595.0	600.0
230.0	63.41	3030	8424	2758	85.20	11.02	7.956	8.408	7.024	7.281	6.995	6.581	6.198	5.723	4.437	3.754	3.429	3.205	2.752	2.781	2.176	2.194	1.938	1.828	1.799	1.592	1.366	1.264	1.306	1.205	1.136	1.040	1.052	0.966	0.859	0.792	0.685	0.676	0.646	0.550	0.611	0.670	0.702	0.548	0.499	0.485	3.872	19.81	34.36	23.91	8.387	1.443	0.391	0.262	0.267	0.257	0.243	0.187	0.237	0.184	0.179	0.198	0.185	0.165	0.163	0.139	0.114	0.115	0.079	0.081	0.102	0.091	0.068	0.051	0.053	0.050	0.054
235.0	86.31	773.8	4667	8760	2982	163.3	11.82	9.638	8.043	7.617	7.642	8.343	6.766	5.621	5.034	4.098	3.731	3.096	2.510	2.617	2.270	2.240	2.162	1.926	1.929	1.649	1.595	1.402	1.260	1.202	1.209	1.013	0.949	1.012	0.871	0.894	0.626	0.662	0.719	0.538	0.503	0.522	0.519	0.638	0.730	0.584	1.252	5.053	12.20	21.88	31.34	23.80	15.59	3.455	0.357	0.348	0.328	0.248	0.302	0.230	0.184	0.187	0.226	0.159	0.170	0.143	0.123	0.125	0.111	0.051	0.087	0.087	0.065	0.060	0.092	0.049	0.058
240.0	111.1	243.1	1290	6734	9999.9	2426	88.20	14.17	10.70	9.144	10.45	8.872	7.593	6.656	5.250	4.489	3.865	3.466	3.091	3.034	2.260	2.339	2.321	2.040	2.035	1.913	1.737	1.490	1.243	1.444	1.192	1.134	1.028	0.819	1.011	0.877	0.736	0.625	0.658	0.499	0.537	0.497	0.520	0.574	0.762	0.680	0.812	1.519	3.124	6.102	15.81	38.75	55.14	24.36	13.01	1.725	0.329	0.327	0.265	0.245	0.247	0.189	0.174	0.172	0.182	0.184	0.170	0.126	0.110	0.125	0.131	0.089	0.075	0.043	0.076	0.078	0.091
245.0	83.76	179.9	344.0	2115	9959	9999.9	386.9	36.66	15.32	12.24	12.64	9.500	9.117	7.670	6.166	4.573	3.879	3.887	3.287	3.192	2.414	2.552	2.388	2.073	1.938	1.837	1.988	1.541	1.438	1.377	1.317	1.282	1.049	0.918	1.039	0.813	0.820	0.682	0.593	0.506	0.624	0.475	0.581	0.502	0.460	0.783	0.924	1.022	1.106	1.681	3.866	12.33	35.25	60.01	68.70	22.56	8.761	0.792	0.328	0.289	0.284	0.231	0.203	0.187	0.205	0.120	0.183	0.137	0.158	0.120	0.120	0.108	0.070	0.119	0.075	0.107	0.100
250.0	45.80	110.7	210.6	543.9	2960	9407	9999.9	5319	118.4	20.71	17.38	13.74	11.26	9.070	6.855	5.398	4.812	4.205	3.752	3.419	2.938	2.475	2.487	2.395	2.118	2.006	1.990	1.604	1.569	1.450	1.237	1.215	1.081	1.079	1.005	0.812	0.892	0.812	0.639	0.595	0.589	0.563	0.560	0.514	0.461	0.539	0.652	0.842	1.037	1.043	1.368	3.139	8.520	18.43	37.86	55.62	78.24	65.03	16.59	7.909	1.013	0.301	0.314	0.278	0.258	0.203	0.200	0.145	0.206	0.135	0.144	0.157	0.107	0.110	0.116	0.103	0.115
255.0	41.25	53.64	122.0	297.7	733.0	2266	8300	9999.9	8164	145.2	28.21	19.23	14.91	11.53	8.500	7.217	5.759	4.988	4.104	3.975	3.337	2.953	2.791	2.513	2.184	2.094	1.946	1.891	1.883	1.735	1.408	1.291	1.229	1.174	1.062	0.965	0.939	0.793	0.785	0.750	0.664	0.651	0.565	0.581	0.508	0.590	0.544	0.564	0.628	0.828	1.261	1.641	2.551	4.469	8.791	13.23	26.60	63.61	117.4	126.9	26.15	9.700	0.783	0.393	0.370	0.336	0.292	0.257	0.228	0.238	0.177	0.226	0.159	0.166	0.143	0.132	0.134
260.0	43.43	45.91	58.93	192.0	339.1	566.7	2326	9999.9	9999.9	1766	104.5	27.43	20.40	14.97	10.39	8.430	6.905	5.584	4.853	4.154	3.463	3.046	2.903	2.823	2.437	2.246	1.984	2.059	1.951	1.692	1.529	1.399	1.369	1.343	1.130	1.002	0.866	0.796	0.878	0.824	0.733	0.591	0.656	0.688	0.575	0.554	0.539	0.546	0.545	0.578	0.862	1.354	1.753	1.806	2.385	3.418	6.501	16.43	48.33	116.3	163.3	134.6	22.20	4.968	0.512	0.407	0.358	0.316	0.252	0.264	0.223	0.228	0.224	0.156	0.168	0.133	0.115
265.0	63.47	47.97	38.16	93.84	271.3	281.9	579.0	3459	9999.9	9999.9	1402	60.51	27.55	19.77	13.02	9.769	8.394	6.517	5.041	4.566	3.873	3.543	2.875	3.237	2.615	2.619	2.533	2.157	2.289	1.961	1.809	1.701	1.418	1.344	1.390	0.970	1.022	0.837	1.019	0.878	0.823	0.736	0.732	0.896	0.659	0.659	0.623	0.701	0.560	0.566	0.553	0.937	1.590	1.785	1.612	1.429	1.964	4.138	11.64	32.19	85.38	176.4	208.8	30.78	15.58	1.631	0.577	0.508	0.392	0.396	0.324	0.251	0.261	0.233	0.207	0.211	0.172
270.0	199.7	99.78	57.01	57.60	141.4	292.8	351.2	887.4	3824	9999.9	9999.9	5746	93.27	32.33	20.64	14.08	10.74	8.122	7.043	5.523	4.780	4.232	3.627	3.465	3.103	2.731	2.510	2.390	2.267	2.083	2.074	1.995	1.727	1.729	1.522	1.355	1.401	1.239	1.448	1.266	1.347	1.489	1.238	1.330	1.026	0.850	0.769	0.692	0.598	0.523	0.541	0.589	0.865	1.125	1.530	1.929	2.139	1.937	3.351	7.945	20.27	48.81	97.52	136.9	184.5	131.4	91.51	11.02	2.007	0.637	0.438	0.459	0.324	0.313	0.271	0.285	0.239
275.0	414.8	193.5	99.12	63.42	87.14	172.7	425.4	485.8	1039	2625	9999.9	9999.9	7872	108.3	34.67	22.20	15.84	11.50	8.984	6.913	6.068	5.224	4.199	3.702	3.460	3.429	3.052	2.718	2.481	2.240	2.299	1.996	2.221	2.100	1.986	1.802	1.802	1.970	1.997	2.049	2.160	2.372	2.154	2.183	1.607	1.378	1.046	1.024	0.747	0.633	0.647	0.685	0.746	0.820	1.006	1.384	2.246	3.090	2.952	3.074	5.559	12.07	22.90	32.14	52.89	111.2	253.4	237.4	30.60	15.68	1.429	0.782	0.535	0.517	0.399	0.457	0.374
280.0	665.1	345.7	181.5	104.8	94.37	140.9	317.4	618.8	490.8	899.6	3117	9999.9	9999.9	5573	81.66	32.28	20.82	14.63	11.37	8.363	7.135	5.857	5.045	4.474	3.962	3.811	3.205	2.924	2.811	2.599	2.486	2.539	2.266	2.539	2.543	2.379	2.469	2.388	2.656	2.931	2.706	3.029	3.115	2.878	2.125	1.736	1.457	1.422	1.075	0.913	0.743	0.823	0.741	0.825	0.933	1.130	1.558	2.421	3.688	3.780	3.368	4.222	6.810	8.889	13.77	28.37	83.62	191.3	299.1	224.7	27.99	10.24	0.923	0.801	0.522	0.537	0.482
285.0	1048	672.5	394.8	213.4	141.5	162.6	284.8	621.3	839.9	827.4	1396	4327	9999.9	9999.9	824.8	56.38	28.70	19.83	14.20	10.32	8.860	7.210	5.888	4.980	4.548	3.978	3.411	3.267	3.192	2.785	2.471	2.430	2.515	2.907	2.875	2.998	3.142	3.260	3.392	3.683	3.661	3.592	3.880	3.681	3.449	2.799	2.454	2.355	1.873	1.376	1.161	1.097	1.068	1.002	1.042	1.199	1.533	1.923	2.983	4.134	4.929	4.610	4.791	5.359	6.504	9.960	22.56	50.31	123.2	260.1	338.0	196.2	22.57	4.674	0.886	0.797	0.585
290.0	1869	1478	1010	540.9	291.8	261.2	382.1	671.3	1216	1665	1956	2611	5222	9999.9	9999.9	9999.9	65.50	32.06	20.94	14.63	11.49	8.830	7.347	6.175	5.400	4.776	4.282	3.734	3.457	3.335	2.922	2.787	2.788	3.235	3.849	4.108	4.500	4.663	4.927	5.024	5.062	5.265	5.287	5.592	5.388	5.074	4.877	4.699	3.810	2.892	2.280	2.108	1.654	1.410	1.509	1.600	2.049	2.326	2.989	4.080	5.460	7.280	8.603	9.316	9.459	10.09	13.13	19.52	35.34	70.50	130.1	201.6	211.5	186.6	128.2	15.84	6.163
295.0	2675	2392	1762	944.1	465.9	385.1	533.7	866.0	1462	2394	3250	3274	3343	3497	9999.9	9999.9	4976	73.16	32.32	23.07	14.82	11.45	9.393	7.265	6.609	5.806	4.880	4.326	3.949	3.394	3.391	3.188	3.567	3.845	4.558	5.296	5.763	6.329	6.024	6.523	6.523	6.990	6.812	7.248	7.596	7.864	7.196	7.299	6.395	4.664	3.641	3.301	2.480	2.107	2.306	2.133	2.656	3.136	3.805	4.997	6.285	8.554	10.38	13.17	15.81	15.54	15.93	17.31	20.10	26.33	36.53	50.71	55.34	103.0	258.9	373.0	220.2
300.0	3158	2923	2186	1226	606.8	471.8	621.0	1006	1667	2625	3916	4052	3361	2184	3204	9999.9	9999.9	3843	59.87	30.86	20.87	14.70	11.72	9.086	7.702	6.727	5.517	4.944	4.727	4.103	3.814	3.440	3.763	4.324	5.298	5.689	6.831	7.139	7.184	7.086	7.314	7.757	8.048	8.274	8.950	9.292	8.869	8.951	7.739	5.735	4.553	4.071	3.093	2.468	2.367	2.351	2.961	3.559	4.591	5.326	7.190	9.500	11.68	14.13	17.69	20.01	20.07	19.33	19.39	18.52	17.57	18.08	16.98	26.42	72.33	186.0	351.1
305.0	3410	3196	2460	1398	695.3	528.6	687.8	1078	1774	2747	3983	4635	3711	2110	1395	3737	9999.9	9999.9	540.4	48.38	27.40	19.65	14.47	11.50	9.337	7.470	6.585	5.478	5.065	4.458	4.293	3.746	3.967	4.625	5.774	5.847	7.086	7.777	7.588	7.622	8.015	8.084	8.479	8.588	9.827	10.16	9.653	9.982	8.367	6.733	5.054	4.667	3.669	2.830	2.561	2.668	3.439	3.929	4.984	6.072	7.582	9.834	12.25	14.45	17.44	19.94	21.94	21.87	20.92	17.83	15.09	11.92	9.276	9.599	18.96	44.85	110.7
310.0	3354	3310	2579	1487	768.3	578.1	747.8	1139	1812	2780	3867	4496	4096	2402	1194	1201	4101	9999.9	9999.9	9999.9	52.14	29.19	20.00	14.81	11.21	8.897	7.685	6.340	5.996	5.264	4.736	4.259	4.212	4.438	5.544	6.173	7.079	7.648	7.525	7.651	7.566	7.813	8.292	8.708	9.449	10.22	10.11	10.20	8.887	7.158	5.455	4.871	3.796	3.022	2.900	3.046	3.678	4.171	5.190	6.428	7.962	10.29	12.72	14.82	17.17	19.19	21.09	21.50	22.02	20.06	16.36	11.74	8.936	6.764	7.748	12.43	26.76
315.0	3238	3238	2630	1552	819.6	656.6	829.9	1209	1860	2784	3767	4285	4010	2895	1475	802.0	1170	2516	9999.9	9999.9	3758	58.70	30.54	20.71	15.71	11.19	9.677	7.591	7.228	5.906	5.489	4.829	4.711	4.815	5.656	6.257	6.825	7.408	7.481	7.413	7.031	7.640	8.166	8.439	9.480	10.38	9.800	9.948	9.125	7.284	5.587	5.192	4.273	3.271	3.313	3.334	3.778	4.554	5.690	6.582	8.239	10.10	12.78	14.79	16.67	18.46	20.24	20.33	20.40	19.59	17.88	14.63	10.82	8.252	6.342	6.065	8.386
320.0	3128	3213	2674	1566	900.1	751.3	922.7	1325	1959	2844	3760	4248	3969	3058	1915	888.3	614.8	760.7	2801	9999.9	9999.9	3124	50.05	27.38	19.28	14.30	11.03	9.026	8.318	7.043	5.688	5.230	4.851	5.036	5.631	5.943	6.612	6.880	6.761	7.098	7.039	7.511	7.952	8.349	9.294	10.21	10.04	10.52	9.265	7.511	5.792	5.248	4.461	3.804	3.664	3.701	4.582	5.357	5.889	7.496	9.005	10.69	13.08	15.00	16.79	18.38	19.76	19.96	20.09	18.94	17.03	15.38	13.45	10.82	7.312	5.950	5.359
325.0	3133	3263	2689	1622	974.6	865.6	1034	1475	2104	2975	3838	4324	4072	3144	2246	1195	612.9	437.8	794.5	3548	9999.9	9999.9	439.8	43.33	25.11	18.40	13.21	10.78	9.287	7.793	6.530	5.795	5.291	5.164	5.470	5.745	6.284	6.791	6.703	6.951	6.904	7.271	7.671	8.438	9.337	9.911	10.15	10.67	9.695	7.473	5.976	5.484	4.742	4.096	4.079	4.203	4.900	5.993	6.526	7.958	9.522	11.34	13.97	15.63	17.25	18.96	19.63	20.22	20.60	20.46	17.93	15.66	13.93	12.91	10.10	7.371	5.688
330.0	3272	3421	2776	1725	1122	1025	1227	1681	2324	3177	4000	4463	4286	3444	2465	1570	884.4	486.2	407.9	943.7	3858	9999.9	9999.9	9906	45.75	26.85	18.50	14.07	11.50	9.155	7.754	6.605	5.918	5.589	5.691	5.945	6.191	6.538	6.502	6.558	6.620	7.192	8.088	8.807	9.851	10.80	10.49	11.02	10.00	7.459	6.057	5.696	5.187	4.719	4.670	4.916	5.963	6.790	7.571	8.843	10.69	12.31	14.77	16.54	17.91	19.57	20.03	20.68	21.44	21.03	19.15	17.34	15.38	13.89	11.59	9.657	7.993
335.0	3408	3615	2899	1815	1251	1185	1398	1875	2541	3366	4192	4621	4521	3751	2753	1725	1188	683.8	401.6	410.5	988.1	2438	9999.9	9999.9	9999.9	51.94	27.58	20.07	14.89	11.93	9.479	7.984	6.652	6.272	5.803	6.218	6.449	6.819	6.645	6.531	6.830	7.366	8.168	9.539	10.27	11.42	11.09	11.45	10.15	7.815	6.353	6.075	5.762	5.316	5.379	5.613	6.546	7.402	8.603	9.627	11.17	13.46	15.91	17.32	18.42	20.57	20.86	22.14	22.45	22.38	20.72	19.18	16.93	15.41	12.43	10.14	9.094
340.0	3521	3690	2943	1860	1336	1281	1507	1961	2641	3434	4208	4653	4572	3899	2922	1825	1223	886.8	488.7	329.4	377.0	654.6	2741	9999.9	9999.9	2880	46.35	25.48	18.31	14.14	10.76	8.444	7.323	6.677	6.120	6.329	6.429	6.414	6.357	6.508	6.899	7.849	8.237	9.606	10.47	11.50	11.31	11.95	10.40	8.117	6.657	6.697	6.033	5.551	5.703	6.095	6.705	7.624	9.181	10.34	11.85	13.75	16.20	17.39	18.63	20.61	21.36	22.02	22.16	22.59	20.71	20.11	18.42	16.29	13.09	10.69	9.517
345.0	3503	3702	2905	1857	1367	1304	1562	2008	2657	3422	4140	4601	4545	3932	2999	1884	1216	930.8	636.9	366.8	278.3	281.4	720.5	3496	9999.9	9999.9	2310	38.66	22.54	16.98	11.73	9.465	8.309	6.969	6.306	6.185	6.309	6.368	6.318	6.241	6.446	7.414	8.309	9.455	10.43	11.58	11.37	11.98	10.57	7.986	6.628	6.640	6.418	5.680	6.061	6.232	7.010	7.764	8.913	10.80	12.00	13.49	15.87	17.27	18.69	20.03	21.03	21.82	22.63	22.28	21.19	20.16	18.79	16.68	13.42	11.08	9.769
350.0	3414	3606	2826	1833	1370	1340	1566	1996	2575	3300	3978	4417	4391	3846	2995	1925	1254	892.9	721.6	526.3	332.0	251.2	307.9	897.9	3944	9999.9	9999.9	9106	41.34	23.52	16.61	11.73	9.186	7.463	6.964	6.463	6.368	6.360	6.047	6.354	6.437	7.459	8.044	9.090	10.09	11.01	11.18	11.79	10.02	7.525	6.378	6.389	6.318	5.689	6.118	6.286	7.019	8.032	9.112	10.07	11.51	13.22	14.99	16.64	18.39	19.17	19.88	20.91	21.82	21.56	21.08	19.80	18.58	16.63	13.32	11.06	9.876
355.0	3334	3497	2695	1784	1373	1348	1528	1921	2456	3119	3744	4142	4134	3663	2923	1911	1283	911.2	709.8	641.8	484.0	318.2	269.9	356.4	994.8	2436	9999.9	9999.9	9999.9	46.87	23.62	15.67	11.60	9.112	7.791	6.590	6.550	6.629	6.081	6.221	6.548	7.281	7.953	8.833	9.748	11.01	10.66	11.09	9.618	7.410	6.020	6.328	5.949	5.588	6.007	5.934	6.676	7.858	9.029	9.868	11.50	12.50	14.28	15.73	16.98	18.56	18.91	19.61	20.00	20.15	19.61	18.92	17.65	16.30	13.05	11.36	9.668
360.0	3192	3321	2589	1750	1354	1323	1494	1853	2365	2946	3523	3902	3915	3512	2821	1868	1291	950.0	741.3	647.9	606.0	423.3	309.3	273.7	364.2	647.2	2747	9999.9	9999.9	2748	41.42	20.67	15.13	10.82	8.519	7.318	6.583	6.687	5.910	6.216	6.347	7.220	7.828	8.872	9.492	10.78	10.19	10.57	9.157	7.164	5.830	6.329	5.968	5.845	5.965	5.981	6.837	7.416	8.225	9.292	10.83	11.73	13.30	14.65	16.06	16.74	18.22	18.71	18.97	19.47	18.57	17.64	16.75	15.57	13.38	11.46	9.936
365.0	3007	3156	2526	1687	1347	1315	1483	1801	2238	2790	3333	3673	3706	3348	2697	1837	1306	988.3	790.9	672.0	635.3	546.6	383.8	300.3	260.0	269.6	704.9	3480	9999.9	9999.9	2219	33.58	19.31	13.51	9.683	8.347	7.368	6.508	6.451	6.224	6.172	6.986	7.481	8.070	9.203	10.39	9.996	10.09	8.791	7.007	5.664	6.000	5.896	5.530	5.832	6.095	6.688	7.101	7.940	9.312	10.29	11.51	12.70	14.03	14.85	16.29	16.53	17.48	18.02	18.57	17.61	17.21	16.53	15.15	12.74	11.17	9.733
370.0	2898	2994	2379	1635	1329	1300	1446	1723	2106	2585	3062	3369	3398	3091	2544	1783	1315	1037	864.9	752.5	675.5	641.3	546.7	393.1	293.9	230.3	275.4	864.8	3874	9999.9	9999.9	8435	35.72	19.27	13.21	9.952	8.568	7.388	6.710	6.802	6.231	6.898	7.363	8.115	9.037	9.734	9.482	9.736	8.609	6.720	5.850	6.101	6.137	5.717	5.829	6.070	6.575	7.100	7.636	8.779	9.521	10.61	11.91	13.18	13.78	14.60	15.34	16.19	16.60	16.71	16.25	15.88	15.35	13.99	12.10	10.99	9.745
375.0	2726	2816	2284	1580	1304	1284	1425	1653	1957	2353	2775	3048	3085	2849	2380	1724	1324	1094	950.5	848.4	764.4	691.8	658.5	548.2	376.2	275.3	218.5	303.8	945.0	2442	9999.9	9999.9	9999.9	40.34	18.62	12.87	10.24	8.552	7.394	6.854	6.394	7.158	7.245	7.881	8.797	9.684	9.311	9.352	8.071	6.648	5.510	6.244	6.058	5.568	5.833	5.906	6.598	7.007	7.426	8.099	9.025	9.887	11.02	12.31	12.63	13.05	13.55	14.63	14.97	15.37	15.25	14.37	13.81	12.96	11.36	10.57	9.886
380.0	2707	2643	2215	1601	1338	1310	1424	1613	1874	2196	2569	2808	2865	2660	2263	1694	1330	1131	1012	919.4	834.5	745.9	687.2	643.7	466.4	326.9	239.2	204.9	311.9	623.7	2815	9999.9	9999.9	2315	33.46	16.71	12.25	9.866	8.073	7.139	6.946	7.231	7.278	7.879	8.587	9.285	8.810	9.107	7.905	6.509	5.600	6.183	6.018	5.973	6.127	5.959	6.634	6.850	7.573	8.163	8.773	9.493	10.70	11.34	12.00	12.56	12.51	12.99	13.82	14.51	13.74	13.80	13.70	12.25	11.16	10.42	9.655
385.0	2544	2597	2121	1581	1358	1328	1407	1581	1805	2085	2394	2630	2690	2505	2155	1657	1347	1171	1064	982.1	896.1	806.6	723.3	672.0	576.7	396.7	283.1	213.4	195.8	234.3	705.2	3520	9999.9	9999.9	1789	26.56	15.41	11.59	8.807	8.191	7.360	7.187	7.382	8.034	8.499	8.959	9.002	8.720	7.653	6.443	5.526	6.166	6.241	5.987	6.045	6.121	6.570	6.834	7.226	7.777	8.461	8.931	9.978	10.30	11.14	11.55	11.72	12.83	12.69	13.17	13.23	13.02	13.11	11.99	10.70	9.962	9.571
390.0	2393	2499	2093	1590	1396	1368	1429	1558	1736	1951	2208	2413	2476	2329	2040	1624	1362	1219	1121	1047	975.2	889.7	795.7	703.9	631.7	516.4	367.9	271.2	215.8	183.8	256.9	863.2	3761	9999.9	9999.9	6472	29.24	15.66	11.50	9.862	8.232	7.797	7.659	8.125	8.415	8.970	8.328	8.820	7.675	6.398	5.738	6.237	6.188	6.071	6.179	6.121	6.553	6.813	7.295	7.764	8.192	8.471	9.298	9.637	10.29	10.71	10.96	11.89	11.95	12.33	12.40	12.10	12.09	11.55	10.68	9.888	9.273
395.0	2329	2391	2033	1606	1444	1405	1454	1541	1685	1841	2053	2221	2276	2178	1942	1604	1380	1266	1173	1104	1028	953.0	862.2	765.3	660.2	583.6	489.1	348.6	268.6	217.7	188.1	286.8	905.8	2420	9999.9	9999.9	8845	33.85	16.55	12.30	9.673	8.914	8.590	8.634	8.490	9.163	8.318	8.291	7.700	6.429	5.707	6.470	6.442	6.281	6.332	6.190	7.019	7.225	7.338	7.526	8.284	8.289	8.853	9.148	9.319	9.894	10.20	10.92	10.95	11.53	11.22	11.45	11.25	10.68	10.35	10.13	9.691
400.0	2280	2370	1999	1618	1471	1448	1478	1540	1643	1781	1960	2102	2157	2074	1875	1578	1389	1273	1193	1134	1061	985.7	899.4	799.5	693.3	600.2	553.0	427.0	321.0	256.4	200.2	180.1	284.8	600.8	2697	9999.9	9999.9	1979	28.94	14.74	11.20	10.07	8.967	8.610	8.827	9.482	8.193	8.531	7.713	6.614	5.828	6.756	6.493	6.490	6.710	6.518	7.130	6.906	7.337	7.480	7.800	8.038	8.556	8.833	8.961	9.446	9.541	10.64	10.51	10.77	11.02	10.82	10.68	10.44	9.713	9.693	9.440
405.0	2254	2344	2014	1618	1480	1468	1491	1557	1613	1713	1867	2002	2055	1992	1820	1559	1382	1276	1210	1139	1080	1010	922.2	826.6	718.0	618.9	560.4	500.2	379.3	294.9	229.8	177.9	161.3	205.2	656.8	3193	9999.9	9999.9	1567	23.66	12.99	11.24	9.516	8.853	8.787	9.089	8.335	8.509	7.888	6.546	5.873	6.529	6.626	6.233	6.678	6.696	6.947	7.159	7.405	7.327	7.727	8.088	8.212	8.816	8.810	8.822	9.066	9.544	9.872	10.49	10.62	10.29	10.59	10.27	9.589	10.07	9.810
410.0	2204	2262	1985	1630	1485	1477	1486	1553	1580	1649	1765	1872	1936	1877	1739	1516	1356	1269	1196	1132	1074	1009	928.2	846.7	746.7	648.5	573.7	529.1	462.2	359.1	271.2	205.3	158.5	134.3	211.5	765.5	3257	9999.9	9999.9	5674	26.18	14.43	11.38	10.34	9.369	9.053	8.308	8.410	7.857	6.369	6.171	6.555	6.766	6.629	6.651	6.438	7.072	7.261	7.361	7.537	7.696	7.936	8.164	8.323	8.335	8.273	8.562	9.098	9.399	9.743	10.06	9.703	10.34	9.916	9.408	9.335	9.524
415.0	2114	2133	1900	1606	1482	1449	1470	1519	1530	1575	1655	1738	1808	1771	1644	1456	1320	1234	1157	1100	1043	981.4	917.0	843.1	756.7	665.2	591.7	534.0	496.4	432.0	320.9	238.7	182.4	137.5	128.3	230.9	773.0	2363	8247	9999.9	2011	31.28	14.98	12.21	10.01	9.403	8.661	8.486	7.737	6.199	5.954	6.738	6.812	6.623	6.817	6.639	7.234	7.075	7.360	7.314	7.652	7.780	7.709	7.740	8.036	7.812	8.481	8.362	8.758	8.860	9.256	9.441	9.379	9.753	8.860	9.311	9.197
420.0	2011	2064	1839	1565	1447	1418	1457	1473	1491	1523	1590	1654	1705	1685	1567	1391	1271	1190	1113	1067	1014	957.4	894.8	826.7	750.3	666.8	600.7	538.8	491.6	459.6	363.3	263.3	198.9	151.7	120.8	121.1	226.9	569.2	2135	9999.9	9999.9	1847	27.57	14.06	11.24	10.29	8.813	8.372	7.566	6.489	6.029	6.841	6.587	6.651	6.357	6.616	6.916	7.355	7.417	7.154	7.269	7.203	7.359	7.508	7.920	7.591	8.145	7.890	8.335	8.617	8.831	8.805	9.276	9.550	8.844	8.911	8.480
425.0	1978	1994	1798	1531	1405	1389	1412	1439	1443	1463	1516	1568	1625	1599	1506	1341	1223	1145	1075	1020	977.1	922.7	866.7	807.2	736.3	665.6	600.9	542.3	493.3	457.3	403.6	293.0	217.3	168.9	131.0	107.7	112.7	173.8	516.5	2859	9999.9	9999.9	1459	22.84	12.38	10.73	9.116	8.534	7.714	6.488	5.843	6.816	6.899	6.478	6.383	6.763	6.930	7.029	7.249	7.009	7.098	7.133	7.362	7.343	7.375	7.249	7.698	7.463	8.104	8.302	8.537	8.427	8.798	9.155	8.652	8.557	8.332
430.0	2399	1909	1701	1475	1361	1350	1370	1406	1402	1400	1434	1477	1518	1494	1416	1265	1162	1089	1017	966.4	924.6	871.6	823.1	772.0	711.8	651.1	594.5	546.9	495.1	446.6	406.3	339.8	252.2	190.8	150.5	120.3	102.1	98.25	162.1	676.6	2926	9999.9	9999.9	4801	24.59	13.59	10.57	9.389	8.098	6.601	6.145	6.522	6.487	6.339	6.279	6.536	6.791	6.837	6.814	6.866	6.922	7.132	6.932	6.949	6.974	6.661	7.121	7.217	7.639	7.833	7.954	8.032	8.435	8.245	7.866	8.105	7.835
435.0	4084	1840	1584	1406	1302	1292	1323	1349	1353	1333	1352	1394	1412	1387	1321	1190	1090	1018	953.0	904.6	864.1	823.5	773.9	736.5	682.9	629.0	588.0	540.7	497.5	452.2	401.0	355.0	298.0	221.3	172.5	140.0	114.5	95.50	94.79	196.8	688.6	2322	6826	9999.9	1892	30.13	13.35	10.79	8.840	6.693	6.041	6.611	6.347	6.524	6.616	6.250	6.946	6.614	6.954	6.866	6.827	6.898	6.765	6.609	6.723	6.541	6.858	7.278	7.102	7.118	7.516	7.505	7.486	7.765	7.538	7.578	7.548
440.0	5558	2196	1528	1353	1265	1238	1284	1311	1311	1275	1297	1332	1343	1322	1250	1126	1034	964.9	907.1	854.2	818.9	776.4	738.5	705.9	660.9	607.8	571.0	534.2	495.9	454.9	399.6	349.1	315.6	251.2	193.5	156.2	127.3	105.7	89.88	97.11	196.3	553.1	1753	9145	9999.9	1740	24.92	12.90	9.656	7.139	6.610	6.902	6.447	6.217	6.326	6.180	6.715	6.580	6.760	6.675	6.752	6.414	6.642	6.636	6.499	6.491	6.488	6.464	6.756	6.759	6.985	7.003	7.017	7.402	7.480	7.291	7.215
445.0	5435	3389	1455	1303	1203	1193	1250	1270	1263	1221	1229	1255	1273	1248	1177	1071	982.3	912.5	852.2	807.0	767.1	735.2	702.8	670.7	630.4	585.1	552.0	520.3	490.3	450.4	398.3	343.9	310.5	276.5	212.1	171.0	142.1	116.9	96.09	83.45	94.44	163.5	426.0	2541	9999.9	9999.9	1298	21.46	10.68	7.941	6.845	7.094	6.464	6.304	6.191	5.915	6.583	6.192	6.568	6.389	6.354	6.416	6.160	6.400	6.111	6.106	6.191	5.895	6.704	6.373	6.604	6.787	7.227	7.026	6.818	6.672	6.737
450.0	3307	5451	2027	1199	1126	1123	1162	1186	1171	1141	1135	1144	1159	1136	1075	976.4	897.9	831.0	775.1	735.4	699.4	667.6	643.4	616.8	581.5	547.1	518.7	496.8	469.0	437.9	392.6	343.4	300.3	273.4	240.6	193.3	157.7	133.2	112.0	92.91	82.10	85.47	134.0	599.5	2757	8819	9999.9	4807	86.37	10.34	7.735	7.621	6.816	6.342	6.207	6.002	6.503	5.842	6.475	6.207	6.067	6.348	5.965	6.098	5.807	5.598	5.785	5.638	5.962	5.989	6.182	6.189	6.289	6.503	6.473	6.238	6.202
455.0	1736	4938	4290	1174	1020	1029	1075	1079	1076	1048	1032	1033	1040	1016	964.4	871.1	802.7	747.3	692.8	659.5	624.1	601.2	576.4	556.7	526.0	497.9	479.6	462.7	442.0	419.6	382.9	340.1	295.8	264.9	242.9	217.5	177.1	149.0	127.0	105.7	88.73	77.44	75.93	169.5	642.4	2024	5290	9999.9	6120	23.25	9.618	8.191	6.903	6.405	5.870	5.735	6.006	5.918	5.924	5.676	5.893	5.658	5.679	5.657	5.475	5.036	5.309	5.271	5.551	5.328	5.684	5.630	5.626	6.102	5.553	5.727	5.621
460.0	1280	3086	6240	1663	959.2	966.6	992.2	1007	997.1	974.4	962.9	951.1	951.3	931.2	876.8	807.4	726.9	676.5	633.4	602.3	568.8	547.8	526.3	513.1	483.2	460.7	448.7	435.6	421.5	400.5	370.2	330.3	293.2	260.3	236.8	224.6	194.6	159.2	135.3	114.4	96.86	80.26	67.35	77.88	174.0	476.3	1290	6693	9999.9	1358	19.87	9.982	7.742	6.668	6.292	5.908	5.740	5.606	5.604	5.679	5.421	5.469	5.370	5.365	5.037	4.724	4.906	4.776	5.182	4.905	4.985	5.097	5.205	5.409	5.550	5.090	5.142
465.0	1123	1706	6200	3280	926.9	890.7	923.9	941.8	943.8	896.4	899.7	881.0	875.4	854.2	798.5	729.7	669.6	620.7	584.1	548.3	524.3	501.1	484.8	474.7	448.7	428.9	420.5	411.7	398.1	378.1	353.9	317.3	286.5	256.3	231.8	216.8	204.7	170.0	141.7	119.9	102.5	85.40	68.99	60.01	71.62	132.3	309.9	1731	8645	9999.9	1165	19.47	9.156	7.243	6.683	6.084	5.852	5.390	5.463	5.358	5.361	5.129	4.889	5.322	4.930	4.837	4.734	4.619	4.718	4.646	4.686	4.729	5.003	4.868	5.220	4.861	4.853
470.0	992.4	1122	3426	5948	1638	810.6	833.5	841.6	845.7	808.5	802.4	783.5	775.7	757.9	706.4	641.7	590.2	545.4	513.9	484.0	463.1	444.6	428.4	420.4	401.3	383.5	379.6	370.7	363.7	351.3	329.0	299.3	273.5	246.1	223.4	205.7	194.1	179.0	150.6	125.4	106.2	87.88	71.48	58.39	51.30	56.94	91.15	404.6	2217	6518	9023	4029	95.14	9.577	7.260	6.034	5.848	5.517	5.314	4.913	5.003	4.929	4.575	4.723	4.243	4.348	4.273	4.137	4.227	4.248	4.347	4.436	4.309	4.421	4.259	4.098	4.277
475.0	840.5	903.3	1421	5336	4175	806.9	744.0	758.2	748.8	727.2	708.2	685.0	671.9	656.1	611.7	558.8	512.5	472.6	441.0	420.8	402.3	386.7	371.7	366.3	355.7	340.4	334.9	330.0	328.1	315.8	301.4	277.9	254.5	231.8	212.5	196.5	181.1	171.1	155.7	129.9	106.7	88.58	72.62	59.03	47.61	41.06	42.76	108.3	507.9	1475	3422	9398	5042	26.58	8.705	6.408	5.943	5.463	5.082	4.823	4.600	4.544	4.396	4.171	3.944	4.021	3.709	3.637	3.635	3.736	3.770	3.762	3.778	3.818	3.791	3.464	3.596
480.0	767.1	795.7	880.4	3021	6830	1428	678.8	686.9	687.3	678.0	646.0	628.2	612.0	586.8	555.0	503.0	458.8	423.5	395.3	379.5	366.9	349.5	336.6	330.6	322.5	309.0	308.2	306.0	304.7	294.9	281.4	263.5	240.6	222.9	204.7	188.5	171.9	161.9	154.2	133.5	108.5	89.82	74.22	59.46	48.79	38.74	32.36	42.54	128.0	341.4	803.0	4148	9999.9	1583	23.85	8.099	6.598	5.614	5.260	4.734	4.452	4.115	4.160	3.893	3.886	3.660	3.564	3.294	3.332	3.566	3.586	3.555	3.477	3.388	3.363	3.491	3.213
485.0	690.0	737.3	731.5	1365	6843	3283	652.9	642.1	645.7	625.8	601.8	580.8	563.6	537.6	504.6	460.6	414.4	385.9	364.0	347.8	335.4	322.4	309.9	305.0	294.5	288.1	282.7	284.9	284.2	276.9	265.5	250.6	229.5	213.5	198.4	182.2	166.7	154.3	147.2	135.8	111.1	89.47	74.02	61.13	48.53	39.10	31.39	29.32	44.39	89.21	191.3	1009	5842	9410	1415	19.68	7.870	6.464	5.387	4.865	4.322	4.084	3.989	3.753	3.639	3.284	3.165	2.876	3.162	3.209	3.227	3.131	3.114	3.301	3.037	3.035	2.967
490.0	621.2	675.5	656.3	767.6	3527	6689	1503	584.8	575.7	565.9	540.4	524.6	504.9	480.8	449.0	408.6	371.0	346.5	324.8	311.9	297.9	288.8	278.5	276.9	267.1	260.8	259.8	260.4	258.4	256.1	246.2	230.8	214.9	201.3	185.7	173.0	158.6	146.0	135.8	127.3	114.8	92.80	74.69	61.27	50.04	40.63	32.87	27.39	26.96	34.20	54.58	236.3	1425	4622	7897	4512	112.3	9.242	6.114	5.044	4.579	4.097	3.789	3.620	3.516	3.173	3.089	2.977	2.969	2.938	2.859	2.883	2.956	3.090	2.792	2.691	2.757
495.0	524.7	586.9	602.9	574.2	1217	6000	4776	602.0	518.7	509.2	485.4	465.3	448.9	421.9	392.2	358.8	326.0	303.5	287.3	272.3	267.2	254.5	247.7	244.1	236.1	232.7	231.5	232.8	233.6	233.9	222.1	210.1	198.0	185.2	173.7	161.9	150.8	139.3	127.2	116.2	108.4	96.16	74.86	61.34	50.35	41.64	33.95	28.67	24.59	23.47	25.64	64.98	328.1	1044	2838	8672	5969	30.51	8.726	5.813	4.685	4.185	3.914	3.520	3.270	3.009	2.782	2.675	2.700	2.795	2.663	2.507	2.719	2.713	2.624	2.409	2.450
500.0	446.8	522.7	554.1	499.0	621.8	3179	7716	1248	467.7	463.0	438.6	416.0	401.8	377.2	350.4	321.2	294.9	273.4	256.5	244.4	237.8	230.0	225.2	219.8	215.0	209.6	212.1	212.0	216.1	212.0	204.9	193.2	183.0	172.4	162.1	152.6	141.0	130.8	118.6	109.3	98.71	91.78	78.37	61.59	50.93	42.05	34.79	28.95	25.19	21.79	20.30	27.52	85.17	244.3	660.5	3521	9673	1786	27.58	7.266	5.256	4.203	3.801	3.295	3.089	2.919	2.614	2.581	2.574	2.438	2.572	2.356	2.527	2.458	2.425	2.364	2.126
505.0	416.4	451.9	511.1	465.4	461.8	1244	7776	2639	451.3	425.7	407.3	382.5	367.0	338.8	316.3	288.6	264.6	244.1	233.0	220.7	215.1	207.5	201.6	201.5	195.1	190.8	192.2	192.0	196.0	194.0	187.4	178.5	168.4	158.4	150.6	141.4	131.9	123.2	113.2	103.0	91.20	85.35	77.89	63.64	50.36	41.42	35.21	29.81	25.75	22.63	19.86	19.43	31.48	66.61	159.8	838.1	4756	8695	1616	22.38	6.293	4.579	4.028	3.500	3.074	2.689	2.492	2.189	2.381	2.599	2.231	2.208	2.023	2.069	2.161	2.136	1.991
510.0	343.1	384.0	429.6	433.7	380.2	548.9	3872	7391	1211	375.2	357.7	337.0	317.8	300.7	276.7	248.3	228.2	213.4	203.4	193.8	188.0	181.1	176.3	175.7	171.8	168.2	169.5	170.6	171.0	170.6	167.1	159.6	149.9	141.3	134.2	126.0	118.5	110.6	102.6	93.78	82.97	75.69	69.83	62.60	50.55	41.88	34.84	30.28	26.27	23.20	20.35	18.60	20.12	27.62	48.51	199.8	1134	3881	6445	3736	115.2	7.460	4.370	3.634	2.917	2.610	2.413	2.157	2.201	2.224	2.106	1.947	2.034	1.840	1.934	1.875	1.800
515.0	290.6	330.9	350.2	375.3	338.1	343.3	1157	6961	5177	411.8	312.5	288.9	276.4	259.3	235.5	211.4	193.4	180.8	174.9	166.9	161.1	153.9	151.9	150.7	146.0	144.9	145.5	146.5	149.6	149.2	146.6	137.7	130.9	124.2	117.8	110.4	105.2	97.20	90.85	83.19	74.88	66.83	60.71	57.32	50.93	41.51	33.43	29.32	25.84	23.05	20.36	18.80	17.96	19.83	23.90	57.29	264.5	876.2	1993	6192	4828	30.92	6.211	4.220	3.227	2.852	2.447	1.998	1.958	1.895	1.891	1.747	1.710	1.672	1.644	1.565	1.604
520.0	264.9	300.3	302.8	320.3	321.0	281.1	475.0	3520	9183	1118	279.3	260.7	247.6	227.7	208.1	186.6	170.0	160.8	155.4	150.0	142.4	137.4	136.0	133.0	129.7	128.5	130.0	130.8	133.7	133.4	129.3	123.4	119.1	109.8	105.4	99.95	94.44	87.98	81.53	76.09	69.33	61.13	54.71	51.08	49.08	42.00	33.97	29.12	25.25	22.57	20.07	18.56	17.29	17.05	18.10	25.07	70.28	205.5	460.0	2288	6788	1815	28.02	5.277	3.727	2.625	2.408	1.900	1.834	1.760	1.754	1.658	1.694	1.374	1.464	1.365	1.497
525.0	227.4	254.6	276.4	273.2	303.9	253.7	296.2	1212	9614	3809	269.0	235.2	219.1	200.1	184.2	164.3	152.8	143.6	135.6	133.0	127.6	124.4	121.0	120.7	116.3	114.6	116.1	118.2	120.3	119.8	116.7	110.7	105.6	98.32	94.41	91.04	85.38	80.04	74.94	68.13	62.18	56.25	49.49	46.50	43.88	41.74	33.91	28.02	24.22	21.77	19.86	18.00	16.85	16.10	16.04	17.50	26.52	55.33	111.6	533.0	2929	6149	1645	22.64	4.299	2.796	2.536	1.844	1.678	1.900	1.655	1.461	1.546	1.446	1.431	1.224	1.289
530.0	200.5	219.5	240.3	223.1	255.9	244.2	227.8	443.5	4560	8894	1012	206.7	193.4	173.3	159.4	142.1	131.2	123.7	117.2	112.9	109.6	105.7	104.0	102.6	101.3	99.25	100.7	102.4	102.7	103.7	101.2	96.31	92.19	86.37	82.10	78.37	74.46	69.91	65.65	60.54	54.98	49.56	44.31	40.64	37.83	36.91	33.56	27.32	22.77	20.04	18.28	16.63	15.48	15.08	14.79	14.63	16.04	21.35	32.30	125.7	683.0	2472	4485	2984	120.9	6.456	2.855	2.229	1.761	1.709	1.614	1.498	1.382	1.389	1.255	1.147	1.174
535.0	180.2	195.3	199.5	189.6	195.0	228.9	201.2	245.9	1225	7904	5915	212.6	164.6	149.4	136.1	119.7	109.3	105.2	97.42	95.51	92.83	90.45	88.54	88.27	85.17	84.92	84.59	86.64	87.03	88.53	85.29	80.73	78.61	73.95	70.66	66.12	63.03	59.76	56.04	52.20	47.62	42.84	38.98	35.59	32.41	30.12	29.30	27.10	22.18	18.20	16.65	14.71	14.47	13.43	13.57	13.11	12.59	12.88	14.23	33.92	157.5	555.5	1247	4062	3785	185.2	4.610	2.617	1.930	1.679	1.680	1.417	1.146	1.140	1.166	1.093	0.994
540.0	168.4	164.3	175.9	167.2	167.1	196.2	191.5	188.6	411.6	3679	9999.9	829.2	148.2	132.3	119.1	105.5	96.25	88.73	86.16	83.17	79.89	78.86	77.31	75.80	74.82	74.25	73.55	76.80	76.23	77.59	75.30	72.07	67.64	64.39	61.53	58.28	55.14	52.32	49.91	46.15	42.06	38.47	34.82	31.51	28.84	27.22	25.07	25.30	21.69	17.68	15.33	13.45	13.14	12.29	12.34	12.39	11.23	10.43	9.244	13.28	40.10	128.5	284.6	1382	4603	1871	28.79	3.494	2.261	1.844	1.436	1.252	1.259	1.097	1.138	0.975	0.898
545.0	167.1	145.7	161.8	142.8	137.6	167.8	192.5	159.5	217.9	1150	9999.9	3449	141.8	118.4	103.3	93.11	84.51	78.81	74.96	72.51	70.36	69.67	67.09	66.70	66.72	65.67	65.53	67.59	66.67	66.74	64.76	63.16	59.77	55.70	52.99	51.19	48.30	46.04	43.89	40.67	37.40	34.98	31.41	28.68	25.76	24.27	22.01	22.00	21.11	17.28	14.08	12.63	11.68	11.61	11.34	10.79	10.27	9.148	7.695	7.930	13.33	32.68	67.33	318.4	1829	4293	1559	22.77	2.830	1.912	1.493	1.314	1.175	1.050	0.973	0.854	0.788
550.0	151.5	134.4	133.0	121.0	113.1	130.7	180.0	153.4	153.3	368.6	4433	8848	603.7	101.0	87.48	77.13	70.40	65.55	62.50	59.42	57.68	57.30	55.79	55.58	55.25	53.95	54.23	55.29	55.48	56.77	53.69	52.24	49.34	46.76	44.33	42.40	40.37	38.44	36.36	33.78	31.46	28.85	26.43	24.21	21.92	20.42	18.51	17.85	17.90	16.37	13.61	11.34	10.49	10.05	9.823	9.364	9.074	8.190	6.895	6.372	6.820	10.69	18.32	73.98	421.4	1601	2996	2108	118.5	4.622	1.802	1.308	1.258	1.068	0.872	0.826	0.729
555.0	151.6	120.3	112.9	99.34	93.91	99.16	140.5	155.1	131.6	177.8	1127	7985	4604	115.2	72.65	63.73	56.57	54.30	50.61	47.99	47.34	46.98	45.55	44.69	44.25	44.00	44.36	45.15	44.63	44.73	43.79	40.94	38.78	37.30	36.52	34.17	32.87	31.18	29.88	27.52	25.75	23.37	21.64	20.39	18.42	17.59	15.11	14.43	14.01	13.69	12.77	10.48	9.223	8.595	8.102	8.032	7.303	7.075	6.159	5.267	4.900	5.300	6.858	19.31	96.40	359.1	816.9	2563	1920	32.46	3.382	1.449	1.263	0.995	0.875	0.763	0.739
560.0	141.1	116.0	98.58	85.02	81.94	81.88	107.3	157.2	125.1	130.2	345.0	3648	8964	460.5	64.85	54.91	49.83	46.30	43.12	40.76	40.33	39.48	38.44	37.92	37.10	36.55	37.42	36.79	37.65	37.69	37.08	34.00	32.93	31.82	29.93	29.23	27.11	26.00	24.69	23.13	21.40	19.45	18.78	16.99	15.84	14.77	13.21	12.52	11.50	11.12	11.43	9.991	8.309	7.593	7.205	6.883	6.404	6.221	5.650	4.893	4.174	3.975	3.952	6.762	23.48	82.03	185.7	845.0	2733	1643	28.60	2.019	1.374	0.990	0.794	0.680	0.649
565.0	147.0	111.6	89.05	83.25	68.23	74.81	90.46	145.1	134.3	121.3	172.6	1112	9534	2313	62.21	48.06	43.98	38.87	36.32	35.20	34.01	33.79	34.25	32.37	31.40	31.58	30.84	31.23	31.90	32.24	31.12	29.69	28.99	27.06	24.98	24.92	23.80	22.29	20.82	20.07	18.84	17.22	16.24	14.84	14.14	13.15	11.68	10.75	10.00	9.491	9.851	9.446	7.545	6.837	6.456	6.279	5.887	5.445	4.901	4.500	3.913	3.362	3.113	3.732	7.263	20.36	43.36	194.0	1079	2673	1163	20.08	1.790	1.048	0.798	0.702	0.623
570.0	165.6	122.2	99.67	76.09	60.72	64.20	75.81	114.8	157.7	135.6	155.8	370.3	4381	7127	387.0	41.25	36.51	32.92	30.45	29.22	28.08	27.77	27.03	26.40	25.73	26.27	25.33	25.31	25.39	26.08	25.20	23.68	22.95	22.11	20.71	20.26	19.48	18.36	17.59	16.19	15.40	13.94	13.27	12.42	11.73	10.48	9.966	8.966	8.267	7.565	7.379	7.617	7.111	6.080	5.491	5.336	4.946	4.457	4.189	3.831	3.693	3.330	2.725	2.787	3.610	6.358	11.33	45.12	247.9	957.6	1812	1043	108.6	2.879	0.957	0.744	0.647
575.0	180.8	154.2	116.7	79.24	55.64	59.58	70.50	97.99	166.1	172.2	179.5	228.1	1152	6940	3348	47.91	29.70	26.85	25.08	23.65	23.24	22.30	22.45	21.43	20.74	20.67	20.63	20.52	20.61	21.45	19.88	18.72	17.89	17.46	17.00	16.37	16.02	15.46	14.63	13.16	12.10	11.74	10.69	9.968	9.417	8.421	8.352	7.681	6.800	6.001	6.253	5.727	6.199	5.742	4.857	4.284	4.178	3.820	3.333	3.308	3.195	3.092	2.717	2.506	2.613	3.195	4.314	11.80	56.79	215.0	480.0	1414	1471	31.78	2.158	0.893	0.740
580.0	203.1	174.2	131.5	84.37	53.88	55.95	70.27	95.49	155.6	201.8	203.8	222.5	397.8	3342	6967	103.2	27.75	24.04	20.88	21.11	19.41	18.66	19.05	18.26	17.29	17.54	17.60	18.02	17.64	17.84	17.00	16.05	15.54	14.56	14.00	13.78	13.69	13.05	11.99	11.62	10.20	9.981	9.048	8.437	8.217	7.447	7.194	6.637	5.827	5.392	5.019	4.906	5.077	5.345	4.796	3.945	3.766	3.433	2.841	2.990	2.828	2.808	2.714	2.354	2.444	2.636	2.562	4.180	14.25	49.46	109.2	462.9	1653	1095	26.55	1.320	0.873
585.0	204.2	183.7	139.1	91.19	52.02	57.17	69.17	90.61	144.4	223.6	230.4	236.4	243.7	1036	7705	751.0	27.75	22.38	19.72	17.76	17.03	17.31	15.87	15.46	15.38	14.99	15.09	15.27	15.32	15.27	14.21	13.39	12.89	12.32	12.65	11.85	11.78	11.56	10.32	9.883	8.931	8.535	7.681	7.696	7.351	6.554	6.352	5.838	5.130	4.653	4.477	4.113	4.224	4.504	4.267	3.784	3.279	3.098	2.600	2.646	2.499	2.533	2.838	2.688	2.343	2.454	2.268	2.606	4.893	12.53	25.86	106.4	621.3	1607	743.3	18.90	1.156
590.0	235.0	201.2	149.2	92.53	54.18	49.58	64.71	89.92	137.4	220.6	266.3	259.0	219.8	327.7	3641	4762	215.3	20.15	16.65	15.52	14.76	14.61	12.99	12.92	12.66	12.47	12.33	11.87	12.29	12.40	12.06	11.03	10.80	10.19	10.09	9.691	9.752	9.298	8.568	7.922	7.542	7.027	6.419	6.166	6.158	5.767	5.082	4.932	4.630	3.939	3.786	3.490	3.342	3.532	3.810	3.701	3.049	2.673	2.402	2.314	2.217	2.183	2.515	2.537	2.646	2.273	2.070	2.199	2.633	4.366	7.089	24.98	142.4	558.1	1077	690.5	99.72
595.0	233.0	219.2	165.4	94.11	55.61	50.39	60.03	86.67	129.9	206.6	283.0	271.9	224.7	168.4	908.7	5189	1910	22.45	14.38	13.55	12.02	11.90	10.62	10.66	10.40	10.17	10.47	10.21	9.824	9.839	9.804	9.246	8.882	8.321	7.889	8.006	7.851	7.493	7.283	6.172	6.245	5.650	5.190	5.307	4.970	5.003	4.320	4.377	3.732	3.574	3.179	3.049	2.799	2.849	3.122	3.396	2.982	2.402	2.141	2.157	2.084	2.025	2.132	2.185	2.467	2.430	1.963	2.075	2.093	2.257	2.778	6.588	32.61	125.2	279.2	831.1	934.3
600.0	223.2	214.9	167.5	94.69	55.71	45.85	55.53	82.74	124.6	193.6	283.8	275.8	228.8	136.2	247.9	2744	4439	66.36	14.33	12.17	10.90	10.32	9.685	9.738	8.917	8.521	8.772	8.767	8.577	8.639	8.255	7.578	7.215	7.045	6.988	6.677	6.551	6.302	6.120	5.398	5.174	4.746	4.518	4.402	4.338	4.194	3.984	3.791	3.363	3.103	2.893	2.610	2.509	2.384	2.488	2.832	3.004	2.317	2.018	2.020	1.869	1.880	2.068	2.115	2.179	2.299	1.983	2.051	1.798	2.004	1.848	2.513	8.062	28.65	63.58	264.4	977.7
605.0	207.6	199.2	162.5	96.00	51.47	44.11	54.19	79.81	120.9	182.3	267.1	285.7	223.5	129.6	101.2	848.6	5423	529.3	13.52	11.68	9.510	8.915	8.521	8.510	8.021	7.783	7.434	8.021	7.662	7.508	6.952	6.683	6.704	6.297	6.363	6.349	5.890	5.665	5.157	4.687	4.414	4.153	4.219	3.910	3.662	3.676	3.740	3.344	3.031	2.652	2.502	2.326	2.251	2.129	2.172	2.377	2.547	2.359	1.844	1.779	1.652	1.884	1.873	2.036	2.044	2.242	2.265	2.038	1.794	1.742	1.527	1.453	2.568	7.070	14.89	60.50	351.0
610.0	205.7	198.3	154.4	92.07	47.21	41.22	49.58	73.66	112.4	169.3	242.6	284.8	220.0	126.6	69.12	218.0	2919	3220	46.84	10.03	8.941	8.381	8.025	7.241	6.701	6.622	6.457	6.374	6.360	6.552	6.191	6.005	6.029	5.800	6.095	5.777	5.396	5.085	4.406	3.840	3.418	3.537	3.428	3.338	3.156	3.239	3.056	2.911	2.724	2.304	2.095	1.937	1.803	1.761	1.813	1.879	2.035	2.150	1.752	1.642	1.501	1.571	1.685	1.788	1.947	1.942	2.001	1.959	1.803	1.611	1.322	1.120	1.190	2.138	3.888	14.12	80.18
615.0	188.0	173.6	146.1	84.86	46.25	37.19	47.34	67.91	99.64	157.4	219.5	260.7	225.0	122.9	61.73	70.48	734.4	4063	557.1	11.38	8.486	7.302	7.010	6.318	5.840	5.321	5.665	5.335	5.395	5.424	5.238	5.071	5.141	5.178	5.128	5.294	4.768	4.502	3.851	3.144	3.028	2.822	2.874	2.822	2.540	2.655	2.560	2.389	2.130	2.031	1.860	1.620	1.518	1.548	1.415	1.478	1.514	1.778	1.809	1.591	1.372	1.429	1.588	1.658	1.721	1.740	1.667	1.815	1.709	1.602	1.194	0.983	0.899	1.062	1.338	3.581	18.26
620.0	170.4	164.8	140.2	83.03	41.75	38.18	41.26	64.13	96.65	148.6	205.4	239.4	223.7	123.5	59.92	38.96	180.6	2439	2814	36.63	8.041	7.013	6.196	5.522	4.883	4.914	4.727	4.771	4.649	4.840	4.704	4.512	4.402	4.451	4.387	4.409	4.053	3.893	3.401	2.753	2.758	2.338	2.509	2.436	2.349	2.078	2.222	2.053	1.898	1.872	1.558	1.524	1.308	1.374	1.366	1.299	1.325	1.457	1.562	1.572	1.229	1.302	1.473	1.363	1.518	1.522	1.511	1.529	1.554	1.544	1.147	0.989	0.718	0.840	0.702	1.161	4.471
625.0	156.2	169.0	134.5	80.85	40.36	35.92	41.17	62.71	94.11	140.1	194.1	217.8	217.4	126.1	60.83	31.23	54.13	825.5	4023	324.2	8.121	6.538	5.690	5.578	4.373	4.451	4.328	4.141	3.862	4.244	4.057	3.892	3.758	3.683	3.507	3.616	3.332	3.153	2.941	2.506	2.411	2.121	2.203	2.087	2.036	1.948	1.923	1.831	1.708	1.603	1.429	1.387	1.118	1.085	1.091	1.034	1.090	1.188	1.336	1.349	1.368	1.151	1.284	1.328	1.397	1.352	1.386	1.373	1.448	1.410	1.096	0.918	0.676	0.644	0.585	0.677	1.318
630.0	160.4	159.4	122.4	75.82	42.27	32.56	40.55	58.56	89.68	131.5	178.1	198.5	197.5	132.7	63.85	30.90	25.57	203.1	2470	2179	30.29	6.347	5.315	4.790	3.985	3.882	3.716	3.396	3.386	3.378	3.172	3.015	3.162	3.028	2.909	3.036	2.744	2.537	2.346	2.206	2.058	1.857	1.708	1.728	1.743	1.738	1.746	1.629	1.501	1.303	1.258	1.093	1.007	1.035	0.908	0.975	0.969	0.926	1.028	1.196	1.096	1.066	1.062	1.130	1.320	1.264	1.298	1.349	1.154	1.303	1.198	0.923	0.694	0.659	0.521	0.463	0.628
635.0	135.5	142.4	111.4	72.97	38.73	32.41	42.02	56.64	85.25	125.8	164.3	183.7	176.5	134.2	70.08	32.19	20.18	55.04	650.9	3257	419.4	6.874	5.045	4.307	3.649	3.194	3.101	3.070	3.029	2.961	2.699	2.435	2.586	2.542	2.498	2.281	2.130	2.266	1.844	1.765	1.683	1.791	1.515	1.469	1.361	1.445	1.484	1.439	1.319	1.108	1.069	0.874	0.900	0.910	0.732	0.815	0.802	0.816	0.842	1.026	1.048	1.081	1.056	1.052	1.266	1.142	1.279	1.153	1.111	1.131	1.016	0.877	0.716	0.626	0.487	0.390	0.440
640.0	137.2	136.7	108.7	69.43	37.83	34.42	41.62	56.49	85.75	124.1	155.3	174.5	162.3	130.9	80.06	35.41	20.41	22.99	157.1	2249	1822	17.87	5.057	3.983	3.388	3.035	3.015	2.789	2.733	2.908	2.451	2.283	2.266	2.392	2.266	2.185	2.093	2.058	1.664	1.485	1.504	1.698	1.383	1.374	1.249	1.258	1.261	1.219	1.130	0.991	0.957	0.824	0.807	0.725	0.645	0.724	0.719	0.759	0.744	0.853	0.940	1.027	1.002	1.003	0.978	1.052	1.147	0.990	1.175	1.085	0.992	0.808	0.825	0.545	0.454	0.469	0.391
645.0	133.0	133.7	111.1	64.85	38.56	33.82	39.54	58.86	82.60	113.7	149.3	172.4	158.0	123.7	84.96	39.22	21.58	16.15	43.53	864.5	2955	60.83	5.123	4.076	3.462	2.938	2.670	2.493	2.371	2.694	2.247	2.024	2.021	2.090	2.181	2.015	1.768	1.721	1.658	1.354	1.274	1.480	1.467	1.241	1.145	1.196	1.136	1.126	0.993	0.875	0.772	0.788	0.697	0.661	0.697	0.650	0.749	0.678	0.656	0.765	0.865	0.901	0.970	1.031	0.863	1.016	1.014	0.934	0.993	1.099	0.958	0.671	0.858	0.600	0.539	0.437	0.358
650.0	127.6	126.9	102.6	65.20	40.28	35.16	39.42	57.02	81.63	111.8	146.7	163.6	151.1	116.7	89.41	43.24	22.94	14.64	17.63	225.6	2705	470.2	6.562	4.199	3.319	2.943	2.465	2.356	2.157	2.377	2.216	1.887	1.902	2.075	1.910	1.720	1.716	1.534	1.278	1.181	1.282	1.367	1.485	1.094	1.119	1.080	1.033	0.978	0.966	0.835	0.796	0.693	0.664	0.677	0.637	0.625	0.676	0.606	0.631	0.622	0.732	0.728	0.935	0.975	0.880	0.960	0.976	1.021	1.004	0.932	0.898	0.728	0.819	0.650	0.591	0.391	0.285
