Sample:	'1
File name:	G2025062416秦台河入潮河闸.FD3
Run date:	'09:50:13, 06/27/2025
Operator:	Administrator
Comment:	'

Instrument
Model:	F-2700 FL Spectrophotometer
Serial number:	23B8-004
ROM Version:	4J14000 07

Instrument parameters
Measurement type:	3-D scan
Data mode:	Fluorescence
EX  Start WL:	220.0 nm
EX  End WL:	600.0 nm
EX Sampling interval:	5.0 nm
EM  Start WL:	230.0 nm
EM  End WL:	650.0 nm
EM Sampling interval:	5.0 nm
Scan speed:	12000 nm/min
EX Slit:	5.0 nm
EM Slit:	5.0 nm
PMT Voltage:	700 V
Response:	Auto 
Corrected spectra:	Off
Contour interval:	50.000

Peak integration
Integration method:	Rectangular
Sensitivity:	1
Threshold:	1.000

Peaks
No.	ApexEX/EM(nm)	Height(Data)
1	225.0/610.0	70.63
2	230.0/415.0	3230
3	230.0/605.0	68.90
4	235.0/350.0	2854
5	235.0/410.0	3185
6	235.0/420.0	3192
7	240.0/265.0	321.1
8	245.0/270.0	368.6
9	250.0/275.0	471.1
10	255.0/280.0	497.9
11	260.0/290.0	494.6
12	265.0/585.0	133.2
13	275.0/615.0	143.6
14	280.0/315.0	2190
15	280.0/625.0	125.6
16	285.0/640.0	101.9
17	315.0/415.0	1700
18	320.0/410.0	1704
19	475.0/350.0	9.647
20	495.0/270.0	1.932
21	505.0/275.0	2.757
22	510.0/280.0	2.981
23	515.0/285.0	3.094
24	520.0/415.0	12.00
25	525.0/420.0	12.03
26	560.0/310.0	10.06
27	570.0/315.0	10.77
28	580.0/320.0	10.96
29	585.0/325.0	10.56

Data points
	220.0	225.0	230.0	235.0	240.0	245.0	250.0	255.0	260.0	265.0	270.0	275.0	280.0	285.0	290.0	295.0	300.0	305.0	310.0	315.0	320.0	325.0	330.0	335.0	340.0	345.0	350.0	355.0	360.0	365.0	370.0	375.0	380.0	385.0	390.0	395.0	400.0	405.0	410.0	415.0	420.0	425.0	430.0	435.0	440.0	445.0	450.0	455.0	460.0	465.0	470.0	475.0	480.0	485.0	490.0	495.0	500.0	505.0	510.0	515.0	520.0	525.0	530.0	535.0	540.0	545.0	550.0	555.0	560.0	565.0	570.0	575.0	580.0	585.0	590.0	595.0	600.0
230.0	31.57	388.3	1071	373.2	19.72	4.404	3.812	3.283	3.088	2.631	2.642	2.369	2.394	1.755	1.830	1.474	1.222	1.165	1.023	0.857	0.940	0.852	0.830	0.749	0.745	0.619	0.631	0.587	0.570	0.474	0.466	0.340	0.399	0.333	0.295	0.300	0.288	0.232	0.274	0.232	0.285	0.288	0.282	0.249	0.222	0.221	0.708	2.786	4.611	3.321	1.284	0.311	0.182	0.167	0.162	0.158	0.155	0.167	0.151	0.161	0.159	0.163	0.147	0.139	0.150	0.145	0.146	0.164	0.154	0.144	0.163	0.157	0.147	0.148	0.170	0.149	0.158
235.0	68.75	119.9	677.3	1201	436.1	28.48	4.364	3.291	3.125	3.228	2.691	3.243	2.211	1.809	2.023	1.388	1.348	1.321	1.166	0.994	1.090	0.952	0.856	0.739	0.686	0.579	0.710	0.670	0.489	0.540	0.434	0.429	0.324	0.394	0.335	0.337	0.253	0.225	0.294	0.251	0.288	0.261	0.306	0.300	0.351	0.273	0.308	0.860	1.806	3.313	4.802	5.496	2.499	0.641	0.182	0.137	0.195	0.181	0.148	0.135	0.195	0.151	0.151	0.161	0.144	0.146	0.183	0.163	0.173	0.202	0.133	0.158	0.160	0.132	0.199	0.175	0.165
240.0	110.2	93.46	213.0	1036	1480	343.4	15.57	3.937	3.392	3.140	2.598	2.907	2.501	2.413	1.949	1.374	1.584	1.250	1.042	1.001	1.067	0.985	0.891	0.855	0.662	0.720	0.515	0.676	0.584	0.504	0.431	0.411	0.333	0.343	0.393	0.281	0.294	0.227	0.369	0.257	0.250	0.238	0.249	0.312	0.352	0.512	0.304	0.343	0.589	1.074	2.659	6.822	8.912	5.927	2.104	0.415	0.199	0.181	0.164	0.157	0.143	0.163	0.126	0.212	0.141	0.168	0.152	0.236	0.138	0.131	0.147	0.145	0.167	0.149	0.154	0.146	0.170
245.0	77.35	144.1	97.97	363.2	1562	1551	236.9	8.061	5.357	3.703	3.028	2.891	2.944	2.191	1.664	1.453	1.760	1.311	1.291	1.166	1.140	0.813	0.812	0.779	0.846	0.757	0.678	0.717	0.580	0.472	0.386	0.418	0.375	0.302	0.279	0.309	0.329	0.308	0.347	0.261	0.329	0.255	0.267	0.253	0.294	0.409	0.493	0.455	0.352	0.380	0.749	2.303	6.069	10.17	9.820	5.454	1.571	0.247	0.190	0.161	0.124	0.186	0.225	0.162	0.187	0.169	0.157	0.156	0.210	0.152	0.157	0.145	0.125	0.129	0.161	0.150	0.181
250.0	32.82	108.6	177.4	152.0	507.2	1502	1919	667.3	37.43	4.901	3.914	3.249	2.733	2.726	1.952	1.665	1.505	1.362	1.213	1.098	1.116	0.981	0.787	0.941	0.880	0.822	0.681	0.580	0.540	0.487	0.471	0.478	0.368	0.370	0.276	0.295	0.303	0.257	0.295	0.273	0.267	0.246	0.288	0.229	0.250	0.261	0.333	0.568	0.706	0.636	0.493	0.778	1.592	3.408	6.139	9.553	12.05	10.86	5.675	1.538	0.249	0.166	0.181	0.161	0.197	0.163	0.170	0.204	0.178	0.175	0.173	0.202	0.156	0.169	0.156	0.162	0.175
255.0	20.28	41.97	124.1	248.7	188.7	398.0	1517	2830	299.5	29.23	5.156	4.320	3.270	2.872	2.414	1.727	1.711	1.204	1.408	1.177	1.001	1.018	0.813	0.931	0.955	0.908	0.750	0.661	0.609	0.493	0.536	0.470	0.328	0.380	0.290	0.306	0.275	0.273	0.288	0.268	0.368	0.279	0.298	0.252	0.258	0.246	0.222	0.262	0.380	0.643	0.976	1.062	0.719	0.949	1.550	2.429	4.629	10.64	18.54	18.69	8.815	1.575	0.259	0.210	0.291	0.172	0.160	0.199	0.216	0.148	0.182	0.173	0.146	0.135	0.161	0.192	0.178
260.0	19.99	21.42	50.10	230.5	249.9	146.6	489.5	2464	2360	238.3	15.42	5.270	4.052	3.188	2.805	2.133	2.000	1.215	1.418	1.077	1.030	1.005	0.926	0.881	0.873	0.809	0.747	0.686	0.705	0.575	0.542	0.437	0.373	0.459	0.305	0.339	0.311	0.250	0.293	0.272	0.290	0.284	0.353	0.293	0.269	0.252	0.254	0.216	0.207	0.314	0.720	1.441	1.346	0.835	0.635	0.773	1.319	2.986	8.173	17.80	24.45	17.54	6.164	0.908	0.288	0.189	0.214	0.180	0.178	0.170	0.201	0.173	0.178	0.173	0.163	0.185	0.187
265.0	19.97	20.19	25.03	114.4	321.1	216.2	162.4	880.1	3286	2022	174.4	7.792	5.082	3.925	2.721	2.535	1.981	1.421	1.603	1.205	1.086	1.129	1.102	0.872	0.729	0.917	0.754	0.800	0.605	0.574	0.516	0.589	0.466	0.433	0.343	0.360	0.361	0.347	0.290	0.300	0.248	0.299	0.303	0.309	0.240	0.240	0.243	0.253	0.199	0.208	0.335	0.811	1.385	1.537	1.158	0.646	0.582	0.945	2.172	5.418	13.37	24.39	26.74	15.88	3.814	0.365	0.195	0.196	0.207	0.192	0.173	0.176	0.201	0.193	0.158	0.165	0.252
270.0	32.21	27.92	25.03	51.90	185.1	368.6	257.3	257.5	1124	3019	3247	676.1	27.89	5.077	3.437	2.810	2.258	1.777	1.615	1.341	1.251	1.055	1.053	0.941	0.853	0.940	0.778	0.737	0.712	0.621	0.547	0.568	0.462	0.446	0.420	0.383	0.383	0.344	0.304	0.277	0.255	0.313	0.274	0.330	0.316	0.322	0.263	0.295	0.240	0.213	0.264	0.422	0.669	1.025	1.637	1.932	1.682	1.022	0.877	1.518	3.438	7.214	13.34	20.93	24.59	20.66	11.77	3.021	0.443	0.237	0.200	0.208	0.189	0.213	0.198	0.173	0.224
275.0	70.98	75.81	59.71	52.30	98.88	232.6	471.1	279.7	302.5	801.2	2951	5238	846.8	18.24	4.694	3.607	2.832	1.900	1.752	1.459	1.407	1.238	1.083	0.945	1.006	0.894	0.817	0.772	0.739	0.663	0.585	0.522	0.425	0.534	0.517	0.343	0.427	0.338	0.331	0.370	0.275	0.317	0.334	0.307	0.397	0.416	0.344	0.356	0.356	0.345	0.256	0.382	0.424	0.590	0.809	1.318	2.072	2.757	1.866	0.874	1.111	1.983	3.296	5.182	7.627	16.56	32.22	30.90	17.11	3.296	0.350	0.265	0.205	0.191	0.219	0.166	0.237
280.0	138.2	134.3	100.9	77.98	86.93	145.5	355.6	497.9	201.2	242.5	946.7	4642	4655	133.6	10.18	4.696	3.278	2.715	2.111	1.564	1.479	1.458	1.280	1.253	1.003	0.976	0.937	0.854	0.770	0.636	0.654	0.538	0.568	0.667	0.556	0.450	0.509	0.397	0.414	0.414	0.307	0.331	0.365	0.404	0.493	0.492	0.415	0.479	0.455	0.487	0.354	0.388	0.438	0.445	0.701	0.733	1.099	2.072	2.981	2.569	1.226	0.878	1.148	1.567	2.113	4.614	11.78	25.62	38.49	28.26	11.25	1.579	0.260	0.203	0.227	0.223	0.216
285.0	180.5	191.5	158.9	112.4	95.04	119.9	193.6	487.3	332.4	165.3	309.1	1598	5452	3530	92.53	6.519	4.104	3.127	2.396	1.779	1.885	1.294	1.354	1.218	1.033	1.083	0.988	0.877	0.714	0.701	0.682	0.637	0.710	0.755	0.616	0.529	0.510	0.479	0.377	0.473	0.341	0.343	0.397	0.456	0.512	0.594	0.590	0.678	0.568	0.450	0.421	0.441	0.508	0.585	0.601	0.591	0.810	1.058	1.853	3.094	3.004	1.491	0.848	0.832	1.005	1.655	3.209	7.163	16.52	31.66	34.93	23.75	6.554	0.593	0.264	0.313	0.246
290.0	246.9	279.4	248.6	164.9	126.3	123.0	147.2	258.2	494.6	444.1	246.4	518.9	1807	4079	2958	380.6	15.57	4.744	2.846	2.190	1.984	1.465	1.444	1.365	1.175	1.140	1.045	0.974	0.814	0.831	0.666	0.634	0.624	0.637	0.600	0.663	0.640	0.563	0.549	0.532	0.476	0.470	0.502	0.574	0.610	0.700	0.740	0.930	0.832	0.609	0.599	0.600	0.571	0.564	0.645	0.596	0.804	0.817	1.013	1.416	2.126	2.899	3.035	2.194	1.337	1.294	1.620	2.444	4.664	8.690	14.81	23.36	26.96	26.93	15.36	5.296	0.736
295.0	320.7	386.9	340.1	229.3	178.6	162.9	169.6	209.8	322.0	681.6	632.0	407.2	621.9	1137	2922	4506	487.2	14.56	4.257	2.961	2.400	1.835	1.756	1.640	1.419	1.267	1.021	0.994	0.844	0.750	0.688	0.745	0.642	0.681	0.649	0.748	0.688	0.694	0.674	0.654	0.472	0.552	0.558	0.629	0.778	0.940	0.913	1.106	1.066	0.856	0.756	0.871	0.803	0.816	0.804	0.727	0.868	0.785	1.004	1.072	1.315	1.722	2.513	4.001	4.187	2.904	1.830	1.844	2.342	3.001	4.381	6.123	7.590	14.43	30.13	35.02	23.34
300.0	402.5	455.6	454.1	341.6	262.2	244.4	269.7	314.2	353.7	662.7	1087	764.9	583.4	580.5	1058	4156	3812	81.76	8.904	3.967	2.884	2.269	1.881	1.658	1.426	1.373	1.175	1.140	1.051	0.853	0.765	0.717	0.785	0.713	0.687	0.862	0.752	0.813	0.773	0.773	0.730	0.679	0.696	0.705	0.879	1.118	1.103	1.466	1.322	1.180	1.045	1.102	1.091	1.080	1.059	1.149	1.111	1.542	1.417	1.577	1.729	1.993	2.254	3.180	4.677	5.380	4.767	3.367	3.143	2.859	3.050	3.178	3.283	4.883	9.990	21.53	36.46
305.0	523.2	646.0	654.1	495.6	394.2	404.1	458.3	593.6	745.6	1002	1470	1585	1126	862.5	809.5	1737	4894	2818	60.49	6.410	3.519	2.690	2.380	1.583	1.567	1.610	1.257	1.021	1.089	0.879	0.763	0.788	0.807	0.837	0.786	0.892	0.860	0.960	0.881	0.900	0.836	0.826	0.808	0.898	1.074	1.432	1.450	1.857	1.821	1.572	1.460	1.502	1.502	1.644	1.549	1.812	1.812	2.583	2.528	2.860	3.198	3.597	4.162	4.740	5.313	6.763	8.244	8.345	6.483	5.149	4.717	4.198	4.518	4.432	5.021	7.639	14.59
310.0	665.7	875.7	902.4	707.4	591.1	593.6	707.7	861.2	1044	1337	1685	2051	1928	1342	1049	1002	2057	3505	2267	261.2	10.86	3.847	2.870	2.215	1.828	1.745	1.461	1.206	1.155	1.015	0.950	0.863	0.840	0.818	0.771	0.809	0.936	0.918	0.994	0.973	0.862	1.039	1.108	1.170	1.384	1.877	2.186	2.440	2.622	2.162	2.188	2.277	2.138	2.221	2.237	2.457	2.750	3.444	3.609	3.867	4.275	4.766	5.758	6.401	6.892	7.688	8.513	9.714	10.06	9.134	7.862	6.382	6.170	5.995	5.425	5.478	6.301
315.0	818.9	1147	1180	934.6	762.1	746.0	890.2	1036	1193	1481	1811	2068	2190	1912	1321	965.7	1104	1171	2391	3437	68.79	8.396	3.829	2.802	2.482	1.905	1.704	1.452	1.131	1.096	1.147	0.949	0.919	0.966	0.788	0.867	0.893	1.003	1.030	1.113	0.989	1.117	1.208	1.510	1.810	2.210	2.486	3.117	3.383	2.804	2.653	2.885	2.814	2.813	2.728	2.940	3.367	4.141	4.204	4.598	4.952	5.650	6.040	7.027	7.357	7.972	8.831	9.544	9.650	10.32	10.77	9.824	8.427	7.232	6.340	5.602	5.293
320.0	925.2	1341	1401	1102	885.1	825.8	981.8	1111	1272	1579	1897	2170	2179	2141	1639	1055	967.0	635.0	791.6	3148	2735	58.61	6.188	3.287	2.912	2.099	2.043	1.455	1.295	1.243	1.179	0.975	0.955	0.903	0.809	0.882	0.964	1.340	0.949	0.987	1.007	1.069	1.151	1.446	1.924	2.610	2.868	3.716	4.111	3.301	3.066	3.297	3.235	3.282	3.205	3.346	3.987	4.323	4.742	4.819	5.320	5.577	6.565	7.855	7.925	8.285	8.993	9.494	9.629	10.15	10.24	10.59	10.96	9.039	7.203	6.369	5.538
325.0	1018	1518	1630	1310	968.3	880.7	1007	1143	1270	1555	1882	2139	2142	2027	1855	1184	947.9	546.3	325.3	1087	3422	2041	44.19	4.914	3.432	2.169	2.030	1.780	1.465	1.128	1.364	1.025	1.047	0.843	0.844	0.803	0.935	1.106	1.026	1.242	1.087	1.275	1.296	1.655	1.978	2.416	3.423	4.322	4.647	3.729	3.664	3.997	3.456	3.693	3.354	3.870	4.117	4.829	5.118	5.174	5.082	5.738	6.475	7.618	7.984	7.900	8.936	9.131	9.858	10.07	9.837	9.973	10.46	10.56	8.991	7.284	5.894
330.0	1156	1808	2093	1845	1354	1051	1055	1174	1273	1513	1810	2054	2070	1910	1733	1403	1027	575.8	295.0	376.0	1149	2514	1794	217.3	11.21	3.554	2.556	2.034	1.713	1.446	1.269	1.072	1.041	0.878	0.803	0.820	0.996	1.074	1.042	1.192	1.094	1.233	1.563	1.771	2.396	2.851	3.880	4.931	5.657	5.183	5.223	5.643	4.907	4.564	4.131	4.017	4.120	4.695	5.104	5.164	5.338	5.612	6.516	6.899	7.347	7.908	8.730	9.201	9.714	9.570	9.262	9.478	9.315	9.222	8.844	8.358	7.252
335.0	1354	2093	2618	2488	1990	1359	1173	1232	1298	1521	1783	2027	2052	1919	1672	1404	1276	736.4	392.4	307.5	405.7	712.8	1955	2918	310.2	8.982	3.699	2.546	2.178	1.622	1.380	1.208	1.239	0.883	0.977	0.944	1.004	1.072	1.094	1.201	1.191	1.398	1.623	1.987	2.636	3.467	4.359	5.928	6.611	6.788	6.635	7.953	7.215	6.640	5.198	4.490	4.583	4.910	5.184	5.424	5.541	5.921	6.483	6.961	7.163	7.723	8.384	9.025	9.417	9.352	9.832	9.253	8.752	8.658	8.449	7.492	7.556
340.0	1366	2167	2796	2777	2237	1511	1231	1277	1332	1524	1745	1955	1994	1876	1636	1346	1276	921.9	491.2	344.3	284.9	296.1	655.8	2684	2450	52.33	5.905	3.144	2.103	1.672	1.528	1.437	1.282	0.998	1.016	0.948	0.960	0.997	1.057	1.188	1.208	1.459	1.601	2.017	2.633	3.551	4.468	6.165	6.992	7.206	7.160	8.999	8.016	7.394	5.697	5.097	4.695	5.087	5.345	5.901	5.684	5.938	6.532	7.110	7.265	7.630	8.469	8.644	9.117	9.044	9.290	9.178	8.773	8.703	8.350	7.684	6.994
345.0	1329	2174	2827	2831	2288	1563	1269	1292	1335	1490	1687	1857	1901	1790	1582	1297	1157	1007	632.4	399.1	300.1	238.2	277.7	935.3	2956	1840	41.57	4.634	2.683	2.128	1.508	1.374	1.284	1.077	1.076	0.924	0.989	1.012	1.167	1.174	1.268	1.543	1.597	1.910	2.609	3.447	4.701	6.146	7.153	7.053	7.403	9.256	8.154	7.854	5.994	5.272	5.134	5.279	5.565	5.981	5.523	5.791	6.110	6.665	7.153	7.383	7.665	8.111	8.539	8.481	8.608	8.912	8.605	8.238	7.968	7.570	6.964
350.0	1299	2097	2763	2854	2448	1683	1352	1345	1391	1483	1633	1766	1787	1703	1531	1297	1118	948.0	802.0	567.9	391.7	301.8	253.4	337.8	984.4	2113	1500	200.4	10.66	3.030	1.863	1.462	1.297	1.139	1.147	1.021	0.989	1.038	1.056	1.108	1.260	1.330	1.584	1.951	2.393	3.502	4.333	6.235	6.703	7.023	7.518	9.647	8.549	8.004	6.479	5.620	5.658	5.576	5.899	5.742	5.780	6.105	6.338	6.677	6.985	7.048	7.219	7.772	7.647	8.126	8.174	8.184	7.904	8.029	7.662	7.372	7.189
355.0	1295	1961	2646	2844	2524	1828	1480	1426	1448	1512	1596	1691	1701	1628	1499	1304	1135	963.4	817.3	771.1	561.1	405.3	326.5	269.4	340.3	581.3	1529	2438	298.4	9.831	2.908	1.983	1.461	1.283	1.092	1.097	1.100	1.023	1.015	1.116	1.200	1.416	1.533	1.928	2.522	3.461	4.155	5.898	6.182	6.790	7.359	9.245	8.919	8.267	6.911	5.857	6.298	6.087	6.516	6.117	6.434	6.652	6.470	6.799	6.957	7.134	6.830	7.363	7.295	7.799	7.850	7.606	7.994	7.796	7.422	7.599	7.211
360.0	1305	1882	2511	2731	2504	1885	1575	1535	1516	1548	1612	1648	1665	1583	1471	1297	1159	997.2	848.6	814.0	735.9	519.5	401.8	309.2	246.6	242.1	493.1	2114	2188	50.89	6.303	2.936	2.143	1.443	1.143	1.244	1.004	1.114	1.114	1.081	1.097	1.397	1.550	1.880	2.418	3.250	3.813	5.458	6.172	6.299	7.035	8.607	8.622	8.233	7.142	6.670	6.571	6.469	6.527	6.253	6.593	6.586	6.690	6.753	6.781	7.376	6.713	7.115	7.485	7.558	7.540	7.759	7.887	7.566	7.909	7.711	7.186
365.0	1211	1864	2391	2629	2456	1943	1657	1616	1602	1604	1630	1632	1634	1560	1454	1302	1190	1047	907.6	831.7	819.5	682.0	499.8	382.6	282.9	213.3	218.4	717.2	2452	1791	42.12	5.370	2.572	1.611	1.284	1.232	1.141	1.057	1.105	0.987	1.231	1.285	1.451	1.785	2.521	3.332	3.698	4.922	5.853	5.911	6.767	8.259	8.355	8.324	7.287	6.777	6.462	6.446	6.716	6.563	6.808	6.989	6.930	7.320	6.723	6.986	6.882	7.166	7.370	7.553	7.392	7.639	7.503	7.645	7.718	7.427	7.126
370.0	1216	1801	2295	2528	2452	2030	1781	1726	1711	1688	1684	1656	1635	1559	1457	1334	1239	1125	1016	928.5	871.3	833.3	705.9	522.7	398.1	301.8	230.9	285.5	808.8	1861	1841	193.0	12.32	2.748	1.752	1.449	1.259	1.166	1.255	1.093	1.255	1.342	1.673	1.867	2.346	3.059	3.763	4.880	5.517	5.908	6.678	8.120	8.591	8.355	7.573	7.080	7.203	7.021	7.316	7.577	7.026	7.201	7.675	7.439	7.116	7.099	7.194	7.223	7.351	7.280	7.250	7.516	7.499	7.547	7.671	7.708	7.435
375.0	1188	1807	2250	2446	2475	2132	1943	1865	1833	1798	1767	1712	1660	1566	1477	1382	1304	1220	1127	1058	974.6	919.1	894.2	733.7	548.4	430.0	328.4	261.8	316.1	521.1	1387	2221	288.7	11.81	2.931	1.746	1.405	1.255	1.246	1.262	1.296	1.363	1.709	1.982	2.626	3.000	3.846	4.961	5.378	5.621	6.193	8.211	8.312	8.300	7.652	7.509	7.527	7.625	7.682	7.591	7.616	7.654	7.835	7.972	7.825	7.332	7.020	6.979	7.574	7.207	7.234	7.422	7.821	7.665	7.655	7.869	8.039
380.0	1264	1853	2221	2470	2471	2227	2040	1975	1943	1911	1843	1757	1678	1581	1502	1403	1354	1290	1214	1158	1083	1006	965.5	904.6	694.8	537.4	422.9	319.2	253.0	236.5	437.6	1752	1952	215.0	6.468	2.451	1.937	1.493	1.437	1.384	1.462	1.546	1.809	2.154	2.803	3.180	3.812	4.826	5.343	5.564	6.154	8.177	8.474	8.579	7.905	8.061	8.126	7.819	8.177	8.331	8.060	8.224	8.215	8.128	8.360	7.749	7.408	7.254	7.563	7.273	7.649	7.493	7.430	7.688	7.905	7.857	8.214
385.0	1328	1910	2312	2527	2547	2319	2155	2107	2066	2013	1902	1811	1718	1605	1527	1446	1404	1357	1296	1241	1180	1104	1036	996.4	870.4	662.9	519.4	404.0	295.6	213.2	198.5	564.0	1905	1562	37.73	5.017	2.776	1.939	1.592	1.697	1.593	1.705	1.896	2.333	2.856	3.350	3.686	4.916	5.657	5.600	6.566	7.918	8.711	8.665	8.409	8.256	8.532	8.355	8.483	8.217	8.527	8.280	8.605	9.019	8.800	7.763	7.834	7.638	7.810	7.697	8.032	7.843	7.539	8.143	7.784	7.820	8.160
390.0	1536	2087	2440	2636	2631	2480	2350	2302	2242	2154	2050	1916	1791	1670	1582	1513	1474	1435	1404	1366	1319	1247	1178	1103	1022	875.5	683.0	530.0	403.4	288.9	204.3	225.8	591.0	1356	1403	158.3	13.33	3.472	2.233	1.880	1.727	1.892	2.128	2.507	2.866	3.772	4.154	5.486	5.883	5.946	6.743	8.365	8.435	9.149	8.670	8.678	9.107	9.204	9.390	9.013	9.081	9.171	9.174	9.270	9.024	8.305	8.027	8.100	7.786	7.700	8.202	7.816	7.852	8.297	8.117	8.263	8.159
395.0	1673	2296	2682	2831	2783	2700	2560	2508	2444	2346	2230	2048	1888	1759	1663	1590	1555	1537	1516	1503	1462	1406	1347	1251	1158	1063	913.6	701.7	551.4	409.4	288.6	213.8	236.9	379.6	903.8	1649	263.1	15.41	3.439	2.356	2.045	2.249	2.432	2.804	3.155	4.096	4.779	6.010	6.693	6.524	7.090	8.831	8.989	9.744	9.488	9.291	9.969	10.16	10.11	10.22	10.15	9.987	10.21	9.596	9.191	8.901	8.496	8.166	8.148	7.922	7.784	8.238	8.185	8.525	8.489	8.365	8.825
400.0	1768	2483	2859	2946	2910	2855	2709	2682	2585	2518	2344	2177	1989	1837	1730	1648	1613	1597	1605	1587	1561	1527	1468	1381	1281	1172	1075	871.2	680.9	521.3	379.4	269.5	203.2	186.6	293.6	1138	1507	211.6	9.420	3.403	2.563	2.462	2.461	3.019	3.578	4.298	5.125	6.624	7.042	6.879	7.203	9.176	9.100	9.962	9.884	10.36	10.46	10.84	10.87	11.03	10.59	10.40	10.53	10.24	9.610	9.266	8.892	8.447	8.835	8.531	8.323	8.419	8.245	8.716	8.709	8.895	9.575
405.0	1928	2638	3015	3112	3016	2949	2861	2824	2742	2671	2481	2302	2065	1923	1787	1697	1659	1651	1668	1653	1649	1616	1569	1505	1397	1278	1175	1030	818.5	634.0	477.8	343.7	245.5	180.1	161.5	370.4	1258	1279	36.65	5.290	3.051	2.691	2.711	3.252	4.044	4.572	5.392	7.054	7.565	6.942	7.657	9.572	9.509	10.52	10.46	10.23	10.86	11.25	11.04	11.22	11.22	11.01	10.29	10.55	10.12	9.641	9.428	8.857	9.001	8.758	8.317	8.590	8.243	8.873	8.559	8.473	9.375
410.0	2043	2717	3117	3185	3082	3022	2970	2922	2868	2766	2613	2398	2150	1954	1813	1720	1684	1679	1698	1697	1704	1681	1647	1597	1504	1385	1260	1134	972.6	765.3	582.9	429.3	311.0	221.8	166.0	172.4	389.0	946.2	1083	359.1	12.64	3.448	3.351	3.422	4.238	4.924	5.584	7.104	7.847	7.475	7.836	10.15	9.948	10.55	10.21	10.55	11.27	11.63	11.72	11.43	11.40	11.58	11.06	10.84	10.35	10.42	9.562	9.462	9.097	8.926	8.666	8.643	8.585	8.821	8.589	8.651	9.256
415.0	2049	2748	3230	3148	3075	3037	3042	2971	2908	2784	2626	2385	2128	1918	1775	1671	1651	1666	1681	1700	1696	1680	1668	1615	1539	1431	1296	1157	1028	862.5	651.1	484.9	351.4	254.8	185.6	142.9	155.1	254.5	574.4	1248	246.9	14.04	4.120	3.596	4.389	5.248	5.951	7.040	7.578	7.510	7.763	9.815	10.02	10.55	10.06	10.92	11.97	11.86	11.52	11.49	12.00	11.74	11.55	11.41	10.87	10.36	9.741	9.522	8.980	8.847	8.534	8.212	8.732	8.347	8.769	8.845	9.304
420.0	2018	2810	3167	3192	3086	3020	3028	2975	2871	2774	2602	2340	2090	1884	1724	1624	1598	1626	1647	1668	1665	1659	1644	1604	1523	1423	1293	1161	1021	890.2	702.7	511.1	371.1	272.5	198.9	144.2	108.3	100.1	164.8	741.6	1163	201.6	8.214	4.092	4.382	5.130	5.826	7.256	7.662	7.393	7.827	9.535	9.595	10.09	10.24	10.73	11.76	11.52	11.76	11.66	11.93	12.03	11.45	11.32	11.05	10.31	9.827	9.087	8.915	8.716	8.688	8.122	8.723	7.961	8.308	8.346	8.902
425.0	1993	2804	3156	3145	3031	3010	2973	2946	2880	2764	2575	2301	2035	1833	1680	1575	1564	1579	1602	1624	1632	1628	1612	1584	1505	1416	1290	1160	1012	883.8	743.4	548.1	395.2	291.9	213.4	155.9	106.0	73.87	68.02	210.0	852.9	1009	34.62	5.700	4.730	5.126	5.565	7.133	7.507	7.407	7.917	9.553	9.599	9.813	9.977	10.52	11.36	11.59	11.64	11.48	11.80	11.63	11.22	10.97	10.76	10.20	9.560	9.247	8.862	8.348	8.640	7.926	8.219	8.277	8.001	8.457	8.792
430.0	1993	2706	3134	3104	2987	2938	2938	2905	2834	2712	2539	2267	1991	1782	1610	1518	1496	1507	1539	1559	1574	1567	1560	1537	1474	1395	1287	1163	1024	889.5	756.4	607.1	444.0	325.7	242.0	178.5	123.7	81.15	55.70	72.81	235.2	667.1	861.7	319.2	13.76	5.746	6.145	7.268	7.383	7.406	7.729	9.366	9.555	9.942	10.14	10.66	11.15	11.64	11.49	11.44	11.59	11.38	11.11	10.97	10.20	10.06	9.212	8.950	8.593	8.165	8.030	7.823	7.954	7.754	7.470	7.834	8.557
435.0	2050	2661	3040	3018	2903	2862	2892	2862	2787	2661	2488	2201	1939	1716	1546	1452	1425	1435	1466	1479	1502	1495	1496	1481	1427	1353	1266	1149	1025	889.4	754.1	631.5	498.7	361.3	269.3	201.3	142.6	97.34	63.06	49.69	75.65	167.3	427.7	1053	235.9	16.26	6.324	7.209	7.534	7.329	7.805	9.000	9.197	9.923	10.01	10.10	10.94	11.13	11.64	11.43	11.12	11.03	10.77	10.83	10.18	9.438	9.060	8.822	8.142	8.023	7.749	7.581	7.455	7.449	7.078	7.566	8.313
440.0	2083	2597	2907	2952	2838	2804	2832	2820	2734	2561	2402	2141	1848	1646	1482	1382	1356	1371	1396	1409	1428	1428	1427	1420	1365	1305	1223	1122	1004	880.4	740.9	616.7	502.1	390.0	284.8	214.2	156.2	106.8	71.17	49.89	44.10	56.87	116.6	615.2	1047	195.4	10.71	7.309	7.192	7.040	7.220	9.207	9.083	9.634	9.724	10.22	10.77	10.80	11.33	11.29	10.87	10.62	10.81	10.27	10.41	9.484	8.694	8.418	7.874	7.548	7.254	7.037	6.971	7.195	6.775	7.159	7.571
445.0	2021	2603	2861	2831	2747	2711	2779	2734	2630	2474	2308	2042	1771	1554	1396	1317	1292	1306	1322	1343	1341	1345	1354	1344	1299	1244	1167	1070	967.3	853.5	724.2	601.5	485.5	400.6	298.5	220.0	160.4	115.4	78.39	55.35	41.15	35.06	42.40	171.4	769.4	944.7	30.37	8.567	7.365	7.083	7.532	9.121	8.814	8.785	9.181	9.838	10.53	10.53	10.98	10.91	10.80	10.64	10.37	9.900	9.917	8.691	8.288	8.154	7.547	7.509	6.925	6.943	6.817	6.563	6.493	6.921	7.057
450.0	1760	2640	2731	2657	2585	2576	2616	2597	2482	2323	2146	1880	1627	1434	1280	1211	1187	1192	1211	1226	1229	1227	1233	1223	1191	1136	1076	989.8	901.0	799.4	682.1	567.7	459.3	379.2	310.5	232.6	168.6	121.9	86.80	62.86	47.18	35.43	29.70	53.84	208.7	616.8	799.6	290.5	14.40	6.958	7.035	8.440	8.134	8.701	8.730	9.533	9.811	10.33	10.36	10.07	10.40	9.763	9.441	9.234	9.176	8.288	8.149	7.453	7.222	6.818	6.470	6.454	6.251	6.395	6.166	6.174	6.528
455.0	1454	2562	2787	2482	2421	2377	2422	2407	2323	2142	1981	1729	1491	1297	1166	1090	1072	1075	1091	1101	1101	1101	1102	1101	1074	1028	974.3	904.4	830.7	736.9	639.4	532.2	434.6	353.1	297.2	245.0	178.3	128.6	94.81	70.33	54.42	40.23	31.34	30.19	60.92	151.5	367.4	899.7	195.2	14.48	7.042	8.051	7.654	7.900	8.048	8.481	9.414	9.422	9.584	9.577	9.679	9.284	9.132	8.412	8.512	7.703	7.303	6.683	6.971	6.245	5.797	5.622	5.689	5.727	5.901	5.831	5.938
460.0	1348	2227	2896	2372	2249	2236	2279	2267	2161	2005	1831	1602	1385	1206	1082	1006	982.0	982.1	999.7	1011	1004	1009	1007	1008	987.5	946.1	899.0	839.0	776.4	691.2	604.0	505.8	416.0	339.0	281.0	242.4	188.3	131.8	100.6	75.56	57.78	44.59	34.07	27.29	29.86	46.83	97.92	499.2	833.7	151.3	10.89	7.541	7.019	7.889	7.555	7.941	8.620	8.922	9.074	9.018	9.099	8.851	8.378	8.354	7.820	7.263	6.792	6.407	6.204	5.959	5.535	5.452	5.529	5.211	5.213	5.537	5.313
465.0	1259	1904	2810	2384	2078	2085	2137	2109	2037	1872	1716	1499	1281	1116	1004	929.9	907.5	904.0	920.9	927.3	927.6	923.9	922.7	929.0	902.3	872.8	830.5	776.3	716.2	645.0	570.0	481.1	395.1	323.9	267.9	227.4	192.3	140.8	103.0	78.28	61.77	46.80	37.04	29.09	24.47	24.65	34.05	137.0	611.7	723.1	118.8	8.885	6.939	7.835	7.313	7.640	8.243	8.425	8.259	8.462	8.315	8.052	8.054	8.060	7.065	7.206	6.402	6.029	5.806	5.525	5.079	5.353	5.149	5.048	4.727	5.184	5.321
470.0	1129	1621	2293	2601	1940	1882	1947	1908	1832	1700	1539	1340	1147	1002	887.4	827.1	800.3	799.6	808.7	811.8	812.0	808.7	813.6	810.8	796.8	771.9	731.7	687.7	636.6	577.2	513.8	436.3	363.8	299.3	249.0	207.8	180.0	146.1	108.8	80.42	64.16	50.79	40.05	32.19	25.82	21.89	20.61	42.10	166.1	461.1	590.6	232.8	13.43	7.216	6.794	7.090	7.259	7.495	7.716	7.717	7.557	7.577	7.613	7.153	6.612	6.352	5.733	5.410	5.108	4.947	4.725	4.630	4.668	4.557	4.422	4.478	4.642
475.0	1001	1430	1828	2447	2135	1690	1742	1698	1630	1507	1370	1181	1006	884.4	784.9	723.2	699.4	698.4	701.6	705.8	702.5	701.4	701.5	705.9	696.3	672.9	636.5	602.9	558.8	508.9	456.3	389.5	328.9	276.0	229.3	192.1	161.5	137.5	115.0	84.73	65.28	52.64	41.91	34.49	27.85	22.64	19.53	22.04	47.47	112.3	252.3	621.7	185.5	14.38	6.694	6.237	6.730	6.817	6.856	7.028	6.694	6.503	6.597	6.345	6.142	5.533	5.371	4.781	4.693	4.434	4.139	4.074	4.142	3.894	4.078	3.970	4.169
480.0	928.6	1282	1564	2053	2400	1642	1583	1563	1499	1394	1247	1091	926.6	802.2	708.8	657.8	632.6	631.7	632.2	635.5	630.7	634.4	633.1	634.9	628.7	605.8	578.4	547.5	510.8	465.0	417.7	360.4	307.5	256.4	215.4	181.1	151.3	127.7	113.9	91.79	66.64	54.09	43.84	36.24	29.49	24.63	20.06	18.36	21.44	34.12	67.07	329.7	615.1	158.5	9.241	6.141	6.400	6.365	6.537	6.303	6.143	6.156	5.716	5.767	5.337	5.087	5.053	4.673	4.115	3.910	3.982	3.550	3.545	3.977	3.590	3.737	3.739
485.0	826.0	1223	1416	1630	2413	1788	1469	1457	1388	1297	1166	1007	857.9	740.3	657.8	605.1	581.7	576.4	579.0	582.8	579.6	579.2	582.3	578.7	572.8	548.9	528.6	499.3	468.2	428.5	386.7	335.9	286.7	242.2	205.3	173.7	144.9	120.6	105.3	95.99	72.77	55.47	45.39	36.82	31.12	25.98	21.23	18.43	16.05	17.26	23.31	91.51	437.3	578.5	28.76	7.025	6.196	6.101	6.128	6.097	5.747	5.832	5.424	5.199	5.170	4.768	4.451	4.188	3.710	3.715	3.757	3.426	3.386	3.439	3.541	3.404	3.686
490.0	746.6	1148	1310	1373	1907	2148	1397	1316	1265	1178	1064	910.9	771.3	664.3	591.4	541.2	519.9	519.3	518.6	518.9	512.9	513.2	517.2	516.3	511.3	493.2	472.1	445.8	417.1	386.5	348.1	306.8	261.9	223.3	191.6	163.5	137.2	114.9	98.62	89.95	77.99	60.66	46.81	38.62	33.33	27.25	23.51	19.67	16.24	14.27	13.85	28.48	118.5	349.7	484.7	122.6	13.29	5.741	5.654	5.452	5.258	5.284	5.011	4.841	4.512	4.529	4.092	3.832	3.499	3.391	3.276	3.162	3.103	3.067	3.067	3.102	3.082
495.0	655.3	1038	1213	1203	1337	2099	1634	1170	1136	1050	955.4	809.3	690.1	594.6	521.7	480.3	460.7	456.8	452.1	452.4	450.9	451.7	452.5	456.7	450.4	432.3	417.1	391.8	367.2	341.9	314.5	274.0	236.7	206.2	175.0	151.7	128.9	108.2	92.66	81.24	74.92	66.03	49.80	39.76	34.00	28.22	24.47	20.58	17.40	14.17	12.52	14.74	33.05	84.78	230.3	572.2	206.1	14.24	5.426	4.807	5.005	4.581	4.600	4.440	4.215	4.127	3.549	3.361	3.054	2.967	2.901	2.847	2.649	2.800	2.791	2.750	2.741
500.0	571.7	899.1	1152	1090	1093	1640	1964	1099	1037	968.4	864.4	742.7	631.3	533.6	471.4	432.8	414.4	407.9	405.4	407.9	402.6	405.0	408.0	408.8	403.4	390.0	374.8	350.6	332.7	313.2	284.4	249.4	217.4	190.1	162.1	141.0	122.7	103.3	87.73	75.95	68.45	64.69	53.41	40.09	33.60	29.12	24.53	21.42	17.77	14.21	12.66	11.94	14.45	25.09	60.52	302.8	597.4	166.5	8.364	4.946	4.764	4.328	4.437	4.116	3.986	3.719	3.336	3.147	3.017	2.793	2.808	2.726	2.398	2.507	2.597	2.484	2.488
505.0	530.5	810.9	1046	1027	956.9	1192	2080	1229	938.8	888.7	793.8	678.7	568.0	486.8	428.3	396.1	376.1	367.2	366.7	365.8	360.0	366.0	367.8	366.8	364.1	353.0	338.1	316.1	300.4	283.4	257.3	228.5	199.1	174.0	149.0	130.4	115.3	98.30	83.07	72.76	63.12	59.70	55.22	42.38	34.31	29.12	24.90	21.79	17.70	14.64	13.06	11.23	10.29	12.39	19.13	81.56	392.1	545.8	31.26	5.466	4.300	4.109	3.907	3.661	3.561	3.489	3.329	2.902	2.719	2.632	2.494	2.407	2.441	2.165	2.307	2.321	2.337
510.0	465.1	711.0	909.5	916.0	837.9	895.4	1535	1664	882.3	779.4	698.3	593.7	495.7	429.1	370.0	344.7	329.2	319.8	318.4	314.9	312.2	315.1	319.1	319.6	315.7	304.4	291.2	275.7	259.4	245.4	225.7	200.0	175.1	153.1	134.2	118.0	103.9	89.96	76.36	67.18	58.46	52.83	49.94	44.46	35.26	28.99	24.49	21.27	17.75	15.25	13.17	11.31	9.515	9.579	10.07	23.66	103.5	311.0	410.8	127.5	11.82	3.956	3.623	3.403	3.277	3.035	2.792	2.658	2.244	2.318	2.101	2.139	2.133	1.909	1.988	2.135	2.104
515.0	378.0	604.6	766.0	799.1	726.0	719.4	927.4	1764	1112	686.6	598.5	510.5	428.9	367.9	321.4	296.3	279.9	276.5	272.3	269.0	265.2	268.2	271.0	271.2	267.9	259.7	248.4	234.3	220.9	211.5	194.1	170.2	151.1	132.6	118.1	103.2	92.68	79.64	70.15	60.73	53.38	47.21	42.45	41.83	37.40	28.58	23.63	20.62	17.07	14.86	12.93	11.57	9.687	8.802	7.970	10.47	27.79	74.12	173.3	444.3	193.4	12.05	3.184	3.183	2.821	2.770	2.532	2.319	2.094	2.095	1.981	1.779	1.894	1.646	1.708	1.752	1.822
520.0	343.8	522.5	667.7	706.4	682.1	650.5	691.9	1363	1529	642.5	538.5	454.1	385.2	327.3	286.2	262.2	246.1	241.9	242.2	239.9	234.1	236.3	240.2	237.7	237.7	229.5	219.2	207.4	197.2	185.5	170.9	150.8	134.7	118.8	106.9	94.28	84.36	72.73	64.49	57.79	49.37	43.54	39.32	37.68	36.50	29.97	23.19	19.89	16.82	14.45	12.72	11.47	9.531	8.575	7.439	7.323	10.97	20.54	44.41	220.7	447.3	145.1	6.575	2.949	2.889	2.266	2.389	2.092	1.871	1.868	1.678	1.546	1.789	1.462	1.423	1.523	1.772
525.0	315.1	474.1	601.6	621.7	637.7	581.8	595.3	886.5	1778	759.4	486.0	412.1	347.8	295.5	257.3	231.1	221.1	215.4	211.8	211.2	209.8	212.4	214.7	215.7	210.0	204.4	195.8	184.1	175.6	164.4	151.9	136.4	121.9	106.8	96.43	87.47	76.40	67.32	58.69	53.07	46.62	40.77	36.36	32.62	33.50	31.25	24.05	19.33	16.20	14.09	12.60	10.96	9.739	8.599	7.298	6.458	7.100	8.649	13.71	58.07	268.4	402.2	31.20	3.626	2.577	2.263	2.165	1.823	1.718	1.753	1.579	1.570	1.672	1.436	1.411	1.443	1.463
530.0	271.2	419.9	518.7	513.3	552.0	525.5	506.3	578.7	1302	1294	465.2	360.7	298.9	254.9	220.7	199.8	189.6	185.2	183.4	182.2	180.9	180.7	183.9	182.9	182.0	173.9	167.6	158.2	151.2	142.1	129.7	116.7	106.6	94.50	83.77	76.06	66.53	60.00	53.43	47.06	41.54	36.91	32.78	29.67	28.15	28.62	25.39	19.35	15.62	13.34	12.08	10.46	9.136	8.498	7.323	6.617	6.218	6.036	6.607	16.16	69.17	212.0	257.0	121.3	10.45	2.131	1.884	1.717	1.605	1.514	1.452	1.347	1.381	1.240	1.371	1.365	1.190
535.0	231.9	349.1	440.3	430.8	448.4	482.6	426.3	445.4	675.8	1543	706.4	307.7	251.9	215.9	186.6	169.2	158.7	156.4	153.1	152.6	154.4	153.9	155.4	152.9	152.2	146.0	140.2	134.3	126.9	121.2	110.1	99.53	88.87	80.56	71.25	65.27	58.17	52.40	46.41	41.07	36.97	33.14	29.50	26.55	24.91	23.64	23.31	19.45	15.29	12.83	10.88	9.939	8.655	7.629	7.742	6.220	5.914	5.044	4.999	6.974	18.02	49.83	104.1	308.9	172.9	10.39	1.745	1.736	1.439	1.267	1.234	1.312	1.230	0.985	1.133	1.181	1.120
540.0	207.3	302.4	382.7	382.4	360.3	447.8	391.5	378.8	426.2	1141	1173	296.9	220.2	190.2	165.0	148.2	141.5	135.5	137.2	134.9	136.0	132.3	135.9	133.9	131.3	127.7	123.0	117.1	110.7	105.4	96.16	87.28	77.81	70.50	63.07	57.39	51.76	46.88	42.40	37.48	33.99	29.65	26.92	23.74	22.19	20.15	20.62	19.43	15.79	12.52	10.09	9.174	7.798	7.365	7.229	6.565	5.582	4.941	4.102	4.519	6.832	13.44	26.64	141.4	318.2	120.9	4.770	1.534	1.253	1.109	1.167	1.084	1.095	1.003	0.970	0.979	0.829
545.0	181.4	264.8	330.1	332.1	311.4	382.1	369.3	329.3	338.2	635.7	1485	383.5	194.0	163.7	146.5	130.9	123.8	119.0	117.5	119.0	118.9	116.0	117.9	117.4	114.9	111.8	107.0	101.6	95.19	90.97	85.13	77.14	68.28	61.66	55.91	51.19	46.80	42.75	37.59	33.83	29.97	26.82	24.20	21.31	19.74	17.63	16.79	17.41	16.07	12.08	9.795	8.667	7.611	6.855	6.291	6.038	5.478	4.712	4.026	3.729	4.077	5.378	8.129	35.92	171.7	274.5	31.17	2.567	1.229	1.129	1.075	0.983	0.981	0.903	0.878	0.875	0.828
550.0	148.9	221.2	278.2	279.6	258.2	297.5	330.1	288.4	275.4	345.2	1024	909.9	184.1	138.2	119.4	108.0	102.9	100.9	97.09	96.12	96.82	95.49	96.71	95.88	93.36	91.14	87.33	83.37	78.85	75.52	68.93	63.53	56.90	51.38	47.10	42.67	38.89	35.11	32.08	28.66	25.17	23.04	20.86	18.90	16.99	15.32	14.34	13.99	14.23	12.01	9.361	7.675	6.704	6.269	5.611	5.249	5.097	4.462	3.804	3.355	3.351	3.313	3.772	9.803	42.76	133.3	194.1	98.88	9.512	1.079	0.961	0.904	0.891	0.812	0.773	0.842	0.756
555.0	129.4	197.4	231.1	218.6	213.2	221.9	269.2	259.8	227.1	235.9	423.7	1205	363.7	116.5	97.05	87.86	83.26	79.69	79.10	78.97	75.19	78.33	76.49	76.80	73.87	73.28	70.31	67.29	63.94	60.01	55.58	51.79	46.59	41.78	37.15	34.71	32.12	28.69	25.86	24.01	20.87	19.24	17.29	15.52	14.42	12.80	12.24	10.93	11.27	10.82	9.548	7.257	5.889	5.391	4.636	4.487	4.395	4.116	3.723	3.175	2.831	2.609	2.575	3.781	11.11	31.06	66.46	190.1	127.4	9.198	1.016	0.859	0.765	0.712	0.736	0.727	0.754
560.0	112.6	168.0	194.3	188.1	177.5	185.4	210.6	242.7	195.6	188.9	223.4	870.9	776.0	108.1	81.63	74.59	69.98	67.49	63.90	65.42	64.90	65.02	64.24	62.96	62.69	61.12	58.44	54.65	54.00	50.80	47.70	41.69	38.34	35.87	31.45	29.81	27.06	24.26	22.27	19.87	18.25	16.35	14.80	13.59	12.87	11.43	10.25	9.239	8.960	9.461	8.962	7.045	5.556	4.832	4.300	4.071	3.912	3.446	3.413	2.894	2.551	2.209	2.228	2.270	3.838	8.253	16.12	76.75	194.5	89.20	3.956	0.747	0.669	0.656	0.578	0.622	0.654
565.0	98.89	148.9	181.9	169.6	148.7	153.4	159.3	226.0	179.3	161.7	155.8	412.9	1083	153.2	72.12	61.80	57.41	55.99	54.92	55.13	53.70	55.76	54.41	52.88	53.39	50.48	47.62	45.84	45.40	41.09	39.05	35.76	32.47	29.34	26.86	25.18	22.19	21.39	19.76	17.71	15.60	14.07	12.99	12.23	11.12	9.890	9.075	8.272	7.525	7.491	7.668	7.268	5.299	4.337	4.130	3.588	3.457	3.241	3.120	3.016	2.286	2.121	1.897	1.751	2.197	2.874	4.737	18.91	90.07	177.3	31.09	1.953	0.656	0.651	0.654	0.501	0.427
570.0	92.41	130.9	147.8	133.9	118.0	123.0	127.8	170.0	176.6	135.2	122.1	174.5	744.3	585.0	72.47	50.95	47.49	44.82	44.59	43.67	43.21	43.20	42.88	42.62	42.47	40.77	38.91	36.81	35.60	32.83	31.01	29.05	26.09	23.82	21.77	20.18	18.17	16.54	15.88	13.95	12.57	11.60	10.61	9.992	9.223	8.285	7.606	6.764	6.266	5.848	5.829	6.091	5.131	4.193	3.521	3.059	2.946	2.774	2.458	2.574	2.342	2.031	1.765	1.633	1.652	1.688	2.083	5.117	21.98	72.64	113.2	67.96	8.724	0.728	0.566	0.457	0.405
575.0	81.06	102.1	124.4	109.0	96.20	97.69	101.9	119.7	166.8	125.5	98.28	104.1	260.6	841.4	133.3	41.60	36.85	35.26	34.42	35.96	33.85	33.42	33.91	34.18	33.24	32.54	30.60	29.71	27.58	26.39	24.35	21.82	20.84	18.84	16.97	15.71	14.65	13.02	13.02	11.65	10.18	9.415	9.111	7.921	7.492	6.851	6.067	5.585	5.064	4.622	4.238	4.514	4.590	4.016	3.183	2.777	2.650	2.593	2.087	2.009	2.092	2.171	1.614	1.550	1.419	1.383	1.350	1.958	5.728	16.94	33.86	101.5	87.95	8.428	0.515	0.399	0.392
580.0	74.84	88.14	121.0	96.40	85.96	79.85	82.07	91.93	142.2	125.6	90.61	81.84	107.7	591.1	485.7	39.94	31.80	30.17	28.82	29.36	27.13	27.71	28.18	28.70	27.77	27.46	25.00	24.13	22.78	21.79	20.03	18.38	17.06	15.53	13.99	13.26	12.18	11.58	10.62	9.870	8.622	7.847	7.256	6.540	6.300	5.501	5.326	4.844	4.448	3.961	3.735	3.672	3.982	3.922	2.938	2.478	2.006	2.274	1.915	1.667	1.688	1.908	1.730	1.379	1.219	1.218	1.170	1.211	2.148	4.469	8.240	35.99	109.5	35.33	4.439	0.367	0.421
585.0	62.60	87.71	99.17	86.62	78.53	77.78	69.16	80.24	109.9	133.2	87.09	72.33	67.52	259.0	730.4	78.51	27.41	26.40	23.74	24.11	23.08	23.44	24.12	24.08	23.39	23.16	21.52	20.23	19.72	18.61	16.97	15.89	14.78	13.29	11.84	11.35	10.59	9.894	8.530	7.977	7.558	6.755	6.349	5.744	5.563	4.715	4.523	4.219	3.809	3.475	3.076	2.955	3.263	3.445	3.231	2.453	1.966	1.826	1.796	1.696	1.419	1.512	1.704	1.525	1.122	1.145	1.087	1.062	1.244	1.689	2.422	8.830	44.13	98.53	31.03	1.944	0.411
590.0	55.75	79.87	82.85	68.83	61.58	63.23	63.96	65.52	77.48	122.2	89.17	63.16	56.22	93.80	488.6	357.6	29.76	20.78	20.10	19.86	19.17	19.40	19.63	19.05	19.54	18.22	17.04	16.13	15.63	14.94	13.93	12.75	11.73	10.90	9.562	9.272	8.441	7.770	6.889	6.674	6.124	5.426	5.193	4.798	4.421	4.019	3.718	3.565	3.153	2.776	2.614	2.431	2.393	2.590	2.862	2.326	1.859	1.720	1.441	1.420	1.308	1.298	1.414	1.437	1.258	1.054	0.942	0.962	0.960	0.960	1.160	2.492	10.51	36.78	65.95	47.51	7.522
595.0	53.64	68.94	69.60	60.63	50.81	52.87	53.06	55.77	61.47	91.83	106.3	61.80	51.72	51.06	159.0	530.2	85.74	16.66	16.24	15.89	15.25	15.38	15.72	15.20	14.72	14.20	13.52	12.99	12.35	11.85	11.04	10.16	9.192	8.547	7.648	7.372	6.896	6.097	5.761	5.510	4.945	4.688	4.194	3.819	3.768	3.162	3.247	2.751	2.611	2.401	2.095	1.866	1.918	2.005	2.256	2.129	1.801	1.512	1.400	1.218	1.186	1.018	1.042	1.278	1.281	0.988	0.901	0.932	0.767	0.705	0.786	1.070	2.812	8.591	17.66	53.91	57.65
600.0	53.95	66.53	61.67	59.57	51.91	48.07	47.23	52.66	57.77	73.34	110.4	68.05	50.66	42.06	61.58	380.0	286.5	18.11	13.28	13.44	13.62	12.83	13.16	12.43	12.19	11.59	11.46	10.87	10.33	10.14	9.179	8.454	7.457	6.984	6.595	6.020	5.609	4.959	4.603	4.520	3.768	3.830	3.598	3.211	3.014	2.813	2.703	2.408	2.289	2.119	1.789	1.640	1.633	1.511	1.788	1.972	1.915	1.432	1.230	1.099	1.073	0.979	1.043	1.057	1.112	1.111	1.052	0.921	0.687	0.669	0.717	0.745	1.032	2.315	4.315	17.51	61.29
605.0	50.05	61.45	68.90	57.02	47.72	44.39	46.81	51.06	61.42	69.05	111.2	90.63	63.10	47.84	43.55	169.9	449.8	45.54	11.85	11.09	11.22	11.31	11.63	10.67	10.35	10.09	9.257	8.732	8.832	8.459	7.785	6.706	6.282	5.625	5.584	5.144	4.647	4.288	4.026	3.896	3.397	3.105	3.098	2.769	2.619	2.563	2.240	2.072	1.887	1.882	1.626	1.536	1.432	1.285	1.402	1.582	1.813	1.538	1.208	1.220	0.979	0.930	1.018	0.934	0.891	1.045	1.084	0.897	0.746	0.678	0.767	0.687	0.705	0.878	1.300	4.296	22.40
610.0	54.01	70.63	68.54	57.79	48.43	48.19	53.06	58.44	73.91	91.61	115.8	136.5	90.61	67.50	56.80	75.23	330.1	229.4	14.50	9.094	9.152	9.030	8.918	8.692	8.503	8.195	7.628	7.150	7.125	6.881	6.091	5.356	5.079	4.764	4.367	4.212	3.943	3.596	3.320	3.008	2.802	2.530	2.421	2.338	2.214	2.078	1.886	1.721	1.668	1.506	1.342	1.361	1.211	1.036	1.126	1.244	1.434	1.524	1.242	1.059	0.893	0.853	0.955	0.913	0.902	0.933	1.091	1.030	0.884	0.712	0.787	0.712	0.642	0.711	0.737	1.316	5.434
615.0	52.77	69.72	66.39	53.25	52.90	48.35	54.12	62.42	73.68	97.91	110.0	143.6	112.2	76.18	63.90	54.25	128.8	361.8	58.50	7.587	7.447	7.103	6.934	6.576	6.412	6.285	6.062	5.646	5.115	5.320	4.828	4.172	4.033	3.668	3.564	3.324	3.231	2.893	2.809	2.576	2.380	2.000	1.923	1.892	1.775	1.749	1.481	1.533	1.362	1.255	1.152	1.027	0.989	0.929	0.950	0.930	1.004	1.318	1.169	1.061	0.836	0.932	0.800	0.945	0.828	0.860	0.905	1.150	1.118	0.840	0.855	0.838	0.591	0.696	0.656	0.684	1.556
620.0	50.32	69.05	68.57	57.92	43.19	47.25	52.75	64.49	71.06	88.01	99.07	129.8	121.6	78.91	63.74	48.91	63.77	273.6	185.3	8.159	6.227	6.301	5.885	5.515	5.897	5.064	5.167	5.128	4.468	4.443	4.073	3.369	3.392	3.016	2.916	2.681	2.644	2.398	2.307	2.036	1.831	1.631	1.578	1.587	1.491	1.440	1.352	1.213	1.119	1.020	0.981	0.956	0.828	0.878	0.787	0.894	0.800	0.962	1.119	1.078	0.814	0.799	0.702	0.804	0.833	0.868	0.733	0.874	0.941	0.981	0.814	0.784	0.663	0.682	0.497	0.595	0.673
625.0	53.50	63.50	63.87	57.12	42.87	47.08	52.52	59.80	64.83	82.10	96.87	113.1	125.6	82.56	65.24	45.35	47.10	130.3	303.0	20.93	5.196	5.112	5.117	4.614	4.901	4.301	4.358	4.016	3.734	3.974	3.503	3.025	2.946	2.491	2.330	2.405	2.078	1.982	1.876	1.763	1.640	1.443	1.405	1.426	1.230	1.239	1.093	1.022	0.982	0.989	0.948	0.879	0.787	0.780	0.836	0.749	0.731	0.838	0.978	0.990	0.805	0.721	0.761	0.751	0.803	0.719	0.653	0.749	0.972	1.006	0.711	0.687	0.649	0.660	0.514	0.477	0.545
630.0	56.49	62.18	63.03	54.97	44.60	44.54	49.34	57.71	63.59	77.03	93.27	104.3	117.6	90.30	65.33	45.56	42.31	49.30	230.3	129.3	6.033	3.834	4.074	3.902	3.690	3.684	3.381	3.443	3.169	2.994	2.857	2.394	2.276	2.051	1.934	1.943	1.796	1.548	1.524	1.450	1.361	1.256	1.235	1.139	1.014	0.968	1.001	0.873	0.884	0.792	0.760	0.677	0.722	0.681	0.752	0.619	0.689	0.672	0.821	0.892	0.781	0.712	0.678	0.718	0.753	0.646	0.715	0.658	0.799	0.837	0.818	0.683	0.573	0.546	0.504	0.463	0.456
635.0	49.86	58.47	63.67	54.10	43.56	43.38	48.93	56.98	63.52	74.79	88.33	98.72	106.5	101.5	69.88	47.38	42.17	28.47	76.22	249.4	31.18	3.390	3.273	2.884	3.059	2.871	2.701	2.508	2.297	2.336	2.166	2.046	1.694	1.884	1.642	1.453	1.397	1.222	1.158	1.173	1.137	0.905	0.840	0.928	0.806	0.803	0.798	0.759	0.704	0.706	0.690	0.655	0.628	0.588	0.563	0.594	0.627	0.562	0.596	0.691	0.808	0.696	0.736	0.686	0.698	0.675	0.660	0.728	0.830	0.672	0.733	0.720	0.606	0.543	0.495	0.479	0.394
640.0	47.05	63.64	64.60	56.29	45.01	46.20	46.83	54.83	62.13	74.32	86.81	97.12	96.85	101.9	74.41	46.25	42.27	23.24	25.52	202.3	72.38	4.101	2.766	2.822	2.655	2.589	2.206	2.213	1.826	2.059	1.757	1.638	1.484	1.375	1.390	1.159	1.028	1.096	0.995	0.931	0.901	0.797	0.686	0.689	0.815	0.680	0.679	0.756	0.689	0.602	0.609	0.563	0.500	0.456	0.578	0.489	0.511	0.471	0.550	0.577	0.736	0.703	0.624	0.581	0.680	0.668	0.654	0.646	0.657	0.582	0.649	0.675	0.759	0.663	0.553	0.469	0.379
645.0	47.21	61.05	67.58	52.30	43.83	41.00	48.81	54.87	58.46	72.19	82.25	93.27	90.01	94.27	77.80	47.01	41.46	22.54	12.60	96.36	198.2	11.05	2.441	2.413	2.006	2.226	1.969	1.911	1.701	1.680	1.524	1.359	1.241	1.184	1.171	1.255	0.906	0.889	0.908	0.804	0.796	0.652	0.719	0.629	0.602	0.652	0.609	0.631	0.589	0.513	0.512	0.530	0.509	0.363	0.393	0.423	0.456	0.471	0.500	0.459	0.616	0.547	0.634	0.596	0.577	0.638	0.648	0.615	0.581	0.627	0.575	0.632	0.757	0.663	0.499	0.436	0.340
650.0	53.59	66.69	65.93	51.46	38.92	37.25	42.62	49.48	51.56	67.83	79.24	87.58	86.60	83.60	78.91	47.31	37.82	22.14	9.830	31.70	214.3	47.41	2.254	2.094	1.916	1.911	1.655	1.598	1.453	1.488	1.264	1.170	1.089	1.030	0.894	0.921	0.793	0.831	0.814	0.684	0.646	0.583	0.554	0.651	0.558	0.633	0.514	0.555	0.521	0.499	0.434	0.521	0.485	0.420	0.382	0.432	0.438	0.489	0.415	0.451	0.561	0.473	0.540	0.683	0.509	0.611	0.553	0.687	0.488	0.573	0.576	0.629	0.635	0.664	0.559	0.435	0.389
