Sample:	'1
File name:	G2025062006ÕÅ¹Ù×¯.FD3
Run date:	'12:40:09, 06/24/2025
Operator:	Administrator
Comment:	'

Instrument
Model:	F-2700 FL Spectrophotometer
Serial number:	23B8-004
ROM Version:	4J14000 07

Instrument parameters
Measurement type:	3-D scan
Data mode:	Fluorescence
EX  Start WL:	220.0 nm
EX  End WL:	600.0 nm
EX Sampling interval:	5.0 nm
EM  Start WL:	230.0 nm
EM  End WL:	650.0 nm
EM Sampling interval:	5.0 nm
Scan speed:	12000 nm/min
EX Slit:	5.0 nm
EM Slit:	5.0 nm
PMT Voltage:	700 V
Response:	Auto 
Corrected spectra:	Off
Contour interval:	50.000

Peak integration
Integration method:	Rectangular
Sensitivity:	1
Threshold:	1.000

Peaks
No.	ApexEX/EM(nm)	Height(Data)
1	225.0/585.0	81.35
2	230.0/340.0	3979
3	235.0/260.0	285.2
4	240.0/265.0	396.2
5	240.0/525.0	311.5
6	245.0/270.0	434.8
7	245.0/535.0	250.6
8	250.0/275.0	572.8
9	250.0/545.0	199.5
10	255.0/280.0	580.5
11	255.0/560.0	157.4
12	260.0/290.0	562.6
13	260.0/575.0	123.5
14	265.0/585.0	108.6
15	275.0/320.0	2938
16	275.0/410.0	1648
17	275.0/615.0	179.6
18	280.0/625.0	160.8
19	285.0/640.0	131.5
20	340.0/415.0	905.9
21	350.0/435.0	872.4
22	475.0/340.0	11.02
23	505.0/275.0	3.208
24	510.0/280.0	3.581
25	520.0/285.0	3.532
26	545.0/415.0	5.984
27	560.0/320.0	13.91

Data points
	220.0	225.0	230.0	235.0	240.0	245.0	250.0	255.0	260.0	265.0	270.0	275.0	280.0	285.0	290.0	295.0	300.0	305.0	310.0	315.0	320.0	325.0	330.0	335.0	340.0	345.0	350.0	355.0	360.0	365.0	370.0	375.0	380.0	385.0	390.0	395.0	400.0	405.0	410.0	415.0	420.0	425.0	430.0	435.0	440.0	445.0	450.0	455.0	460.0	465.0	470.0	475.0	480.0	485.0	490.0	495.0	500.0	505.0	510.0	515.0	520.0	525.0	530.0	535.0	540.0	545.0	550.0	555.0	560.0	565.0	570.0	575.0	580.0	585.0	590.0	595.0	600.0
230.0	104.4	1020	1641	355.8	15.74	7.502	5.601	4.852	4.330	4.261	3.959	3.744	3.450	2.892	2.455	2.055	1.951	1.519	1.190	1.210	1.117	1.078	1.035	0.961	0.906	0.827	0.815	0.771	0.732	0.782	0.686	0.622	0.587	0.516	0.574	0.476	0.481	0.481	0.421	0.432	0.503	0.569	0.493	0.380	0.372	0.398	1.366	4.647	5.912	3.605	1.084	0.407	0.323	0.309	0.295	0.269	0.307	0.339	0.297	0.288	0.280	0.275	0.302	0.308	0.299	0.273	0.268	0.293	0.302	0.289	0.269	0.321	0.316	0.310	0.323	0.348	0.321
235.0	105.0	313.1	1316	1769	407.1	17.85	7.294	5.227	5.101	4.031	4.044	3.910	3.591	2.711	2.410	2.481	1.743	1.493	1.159	1.292	1.060	1.052	0.984	0.929	0.860	0.946	0.805	0.835	0.730	0.818	0.660	0.557	0.641	0.613	0.457	0.448	0.531	0.526	0.473	0.434	0.413	0.418	0.640	0.490	0.507	0.394	0.582	1.496	2.928	4.825	6.291	5.459	2.343	0.546	0.310	0.304	0.348	0.321	0.267	0.390	0.274	0.276	0.326	0.287	0.272	0.329	0.287	0.341	0.250	0.316	0.286	0.317	0.294	0.317	0.346	0.326	0.294
240.0	164.8	140.7	451.6	1861	1822	300.3	12.23	5.542	5.128	3.811	4.335	4.276	3.880	2.654	2.639	1.967	1.753	1.598	1.245	1.215	1.145	1.133	0.880	1.013	0.821	0.963	0.789	0.892	0.721	0.799	0.752	0.708	0.561	0.641	0.469	0.401	0.480	0.496	0.407	0.457	0.409	0.454	0.473	0.478	0.626	0.722	0.530	0.617	0.896	1.759	4.214	8.828	9.214	5.459	1.814	0.400	0.333	0.320	0.344	0.298	0.297	0.312	0.281	0.279	0.308	0.358	0.331	0.362	0.264	0.312	0.381	0.284	0.263	0.284	0.339	0.324	0.299
245.0	145.4	188.8	155.2	751.7	2438	1734	197.7	7.930	6.134	4.858	4.892	4.646	4.167	3.318	2.434	2.105	2.022	1.578	1.543	1.221	1.156	1.184	0.997	1.165	1.005	0.854	0.918	0.754	0.777	0.779	0.659	0.576	0.610	0.658	0.499	0.466	0.525	0.481	0.404	0.416	0.429	0.430	0.445	0.411	0.502	0.760	0.835	0.665	0.560	0.667	1.227	3.565	8.126	12.30	10.55	4.605	1.188	0.366	0.342	0.385	0.299	0.255	0.276	0.312	0.298	0.355	0.333	0.315	0.293	0.320	0.305	0.305	0.315	0.282	0.284	0.315	0.378
250.0	71.38	169.2	218.7	242.6	886.9	2248	2395	682.3	31.29	6.600	5.584	4.960	4.372	3.588	2.726	2.564	2.196	1.664	1.530	1.422	1.175	1.139	1.154	1.035	0.976	0.872	0.869	0.854	0.812	0.805	0.744	0.697	0.632	0.640	0.470	0.519	0.475	0.432	0.475	0.446	0.414	0.439	0.439	0.392	0.421	0.463	0.603	0.892	0.921	0.808	0.670	1.109	2.277	4.442	8.029	11.50	13.40	10.72	5.382	1.404	0.370	0.311	0.309	0.299	0.308	0.370	0.339	0.328	0.316	0.339	0.296	0.298	0.306	0.332	0.297	0.331	0.345
255.0	40.74	67.18	201.2	284.5	262.4	640.6	2458	2894	293.9	26.88	7.398	5.973	4.994	3.973	3.343	2.434	2.192	1.794	1.596	1.460	1.375	1.210	1.277	1.057	0.900	0.896	0.869	0.863	0.815	0.698	0.717	0.690	0.580	0.598	0.541	0.536	0.465	0.420	0.427	0.442	0.443	0.493	0.473	0.409	0.406	0.405	0.424	0.512	0.683	0.957	1.241	1.241	1.022	1.310	2.165	3.093	6.206	14.15	22.50	19.40	8.218	1.402	0.328	0.307	0.346	0.332	0.325	0.349	0.291	0.334	0.320	0.328	0.287	0.348	0.263	0.289	0.326
260.0	35.26	33.83	95.36	285.2	269.0	204.3	860.4	3619	2383	233.5	16.35	8.235	5.638	4.695	3.629	3.032	2.180	2.007	1.670	1.406	1.393	1.276	1.189	1.094	0.981	0.962	0.927	0.817	0.814	0.875	0.796	0.766	0.561	0.602	0.513	0.573	0.501	0.429	0.451	0.481	0.520	0.435	0.473	0.414	0.413	0.418	0.420	0.448	0.448	0.539	0.912	1.563	1.576	1.116	0.935	1.059	1.788	4.349	11.59	22.92	28.33	18.94	5.968	0.757	0.348	0.326	0.345	0.388	0.328	0.359	0.312	0.388	0.333	0.326	0.316	0.298	0.358
265.0	34.29	28.70	39.84	162.9	396.2	221.3	255.1	1451	4836	2044	174.2	10.38	6.418	5.448	4.356	3.007	2.626	2.235	1.736	1.601	1.378	1.362	1.254	1.227	1.085	0.966	1.031	0.960	0.908	0.853	0.773	0.777	0.615	0.594	0.528	0.563	0.528	0.448	0.397	0.457	0.418	0.480	0.511	0.455	0.440	0.415	0.364	0.396	0.376	0.341	0.472	1.052	1.668	1.949	1.383	0.891	0.822	1.428	3.165	7.339	17.93	31.01	29.44	16.02	3.281	0.452	0.417	0.371	0.387	0.322	0.282	0.411	0.326	0.291	0.324	0.372	0.435
270.0	53.64	42.88	41.73	74.91	254.6	434.8	299.8	404.5	1759	4407	4403	736.3	32.72	6.802	5.122	3.712	3.207	2.462	1.908	1.693	1.549	1.337	1.219	1.190	1.130	1.080	0.967	0.995	0.937	0.898	0.835	0.849	0.730	0.636	0.628	0.579	0.525	0.551	0.504	0.452	0.405	0.433	0.444	0.538	0.463	0.435	0.438	0.409	0.389	0.329	0.403	0.606	0.883	1.439	1.982	2.279	1.798	1.280	1.328	2.115	4.606	9.809	17.53	27.00	29.34	26.57	12.17	3.156	0.484	0.346	0.372	0.404	0.365	0.363	0.346	0.371	0.344
275.0	120.0	119.9	90.31	80.46	142.3	305.5	572.8	330.1	455.8	1191	4409	8435	969.0	25.96	7.164	4.684	3.459	2.889	2.418	2.048	1.577	1.525	1.507	1.408	1.122	1.011	1.004	1.144	0.935	1.040	0.901	0.842	0.764	0.703	0.644	0.740	0.628	0.611	0.626	0.538	0.497	0.504	0.523	0.609	0.546	0.542	0.608	0.541	0.513	0.465	0.405	0.579	0.718	0.901	1.039	1.638	2.591	3.208	2.072	1.200	1.534	2.697	4.451	6.646	10.30	23.07	41.75	31.86	18.32	2.988	0.469	0.347	0.388	0.377	0.377	0.389	0.339
280.0	206.0	191.6	163.6	115.4	128.8	201.3	448.5	580.5	249.7	340.4	1388	7384	7123	143.1	14.57	5.928	4.837	3.266	2.749	2.128	1.966	1.637	1.691	1.540	1.214	1.121	1.082	1.168	1.002	0.922	0.822	0.887	0.800	0.753	0.799	0.812	0.716	0.710	0.742	0.628	0.570	0.657	0.655	0.677	0.718	0.765	0.799	0.711	0.627	0.557	0.545	0.593	0.691	0.817	0.833	1.116	1.689	2.314	3.581	2.655	1.523	1.351	1.598	1.981	2.906	6.363	16.12	33.53	50.46	29.81	13.19	1.387	0.538	0.401	0.466	0.381	0.370
285.0	271.0	294.5	237.1	162.7	136.7	172.5	263.1	574.6	345.5	207.3	423.8	2417	8070	5580	106.0	9.108	5.937	4.203	2.809	2.245	2.049	1.804	1.540	1.640	1.238	1.214	1.084	1.238	0.919	1.032	0.871	0.914	0.928	0.684	0.897	0.898	0.806	0.816	0.876	0.781	0.641	0.739	0.753	0.850	0.933	0.884	1.109	1.095	0.994	0.747	0.659	0.703	0.700	0.766	0.763	0.976	1.171	1.405	2.215	3.140	3.532	2.153	1.177	1.114	1.428	2.104	4.448	9.621	22.82	44.18	52.27	25.44	7.472	0.762	0.430	0.385	0.423
290.0	407.4	423.3	347.7	227.0	163.3	169.9	197.4	313.6	562.6	507.4	335.3	738.2	2529	5930	5792	433.6	25.27	6.258	3.958	2.849	2.326	1.956	1.775	1.526	1.328	1.422	1.301	1.220	1.021	1.151	0.950	0.911	0.855	0.872	1.028	1.102	1.082	0.945	0.913	0.925	0.867	0.797	0.958	1.013	1.086	1.171	1.221	1.421	1.290	0.990	0.853	0.861	0.790	0.819	0.864	0.929	1.061	1.104	1.394	1.633	2.641	3.358	3.440	2.721	1.887	1.504	2.114	3.162	6.175	12.37	21.79	31.56	32.18	35.22	16.97	6.806	0.935
295.0	528.8	596.1	485.7	314.0	212.1	214.0	237.8	276.3	405.7	775.3	787.8	540.8	854.2	1592	4158	6550	614.7	25.81	6.689	4.020	3.116	2.566	2.007	1.893	1.508	1.522	1.487	1.213	1.151	1.274	0.978	0.916	0.988	0.883	1.056	1.132	1.392	1.162	1.101	0.946	0.948	1.006	1.073	1.224	1.163	1.361	1.428	1.661	1.681	1.277	1.105	1.246	1.013	1.043	1.005	1.148	1.207	1.244	1.350	1.511	1.824	2.121	2.876	4.444	4.914	3.715	2.401	2.570	3.027	4.418	6.300	8.315	9.603	19.58	39.08	51.98	27.43
300.0	652.0	767.9	669.1	456.8	329.4	325.8	390.6	395.1	595.6	885.1	1377	1063	827.4	822.3	1429	5506	5557	470.3	17.08	5.604	3.815	2.994	2.215	2.045	1.982	1.502	1.457	1.244	1.309	1.053	1.105	0.959	0.937	1.089	1.111	1.216	1.319	1.330	1.179	1.090	1.051	1.116	1.172	1.265	1.535	1.878	1.803	2.134	2.118	1.664	1.618	1.691	1.445	1.411	1.381	1.580	1.765	1.842	2.235	2.208	2.393	2.747	3.335	4.289	5.809	6.953	5.956	4.678	4.028	4.307	4.236	4.399	4.341	6.615	13.15	30.14	50.59
305.0	899.2	1054	951.7	689.2	541.8	548.9	716.3	882.6	1167	1502	1987	2298	1441	1198	1148	2172	6646	4609	74.78	10.39	5.193	3.597	2.721	2.361	2.059	1.971	1.580	1.272	1.530	1.254	1.139	0.977	1.057	1.149	1.326	1.496	1.448	1.342	1.493	1.486	1.376	1.458	1.597	1.785	2.036	2.321	2.530	2.659	2.879	2.369	2.218	2.349	2.038	2.259	2.153	2.425	2.828	3.415	3.884	4.280	4.600	5.340	6.317	7.064	7.992	9.257	11.02	10.57	9.157	7.448	6.596	6.084	5.847	6.591	6.942	10.70	20.28
310.0	1158	1406	1319	965.1	781.6	812.6	1023	1261	1539	1944	2347	2770	2591	1874	1490	1348	2639	4866	4583	308.9	20.52	5.330	3.931	2.866	2.524	2.111	2.058	1.552	1.549	1.367	1.219	1.166	1.149	1.237	1.457	1.555	1.651	1.711	1.755	1.664	1.750	1.778	1.825	2.128	2.498	3.038	3.235	3.928	3.952	3.246	2.898	3.297	2.960	2.994	3.183	3.171	4.148	4.805	5.257	5.964	5.951	6.838	8.223	9.141	10.09	10.72	11.99	12.58	13.46	12.22	10.61	8.939	8.093	8.459	7.176	7.319	9.168
315.0	1378	1790	1709	1259	1013	1035	1235	1477	1719	2118	2512	2834	2875	2566	1838	1331	1487	1603	3005	5596	482.5	19.03	5.381	4.020	2.944	2.689	2.212	1.909	1.638	1.630	1.356	1.453	1.255	1.221	1.496	1.806	1.735	1.691	1.770	1.813	1.798	2.009	2.100	2.653	2.819	3.508	3.888	5.096	4.925	4.093	3.726	4.244	3.722	3.580	4.119	3.755	4.726	5.756	6.052	6.742	6.975	7.675	9.173	9.969	10.78	11.25	11.84	13.08	13.76	13.07	13.60	12.74	10.96	10.48	8.396	7.597	7.160
320.0	1627	2095	1995	1486	1164	1131	1336	1562	1781	2194	2625	2938	2904	2742	2235	1454	1314	898.5	914.3	3946	4167	375.9	10.71	5.234	3.741	2.781	2.220	2.088	1.674	1.852	1.369	1.404	1.344	1.408	1.354	1.747	1.792	1.740	1.783	1.800	1.884	2.112	2.229	2.736	3.280	4.055	4.863	5.946	5.678	4.805	4.347	4.760	4.137	4.389	4.041	4.532	5.451	6.045	6.662	7.165	7.609	7.759	8.887	10.12	10.67	11.46	12.06	13.17	13.91	13.23	13.02	13.40	13.77	12.49	9.195	8.077	7.452
325.0	1860	2490	2489	1840	1342	1212	1344	1562	1745	2126	2539	2860	2822	2591	2398	1614	1267	753.1	401.6	1181	4383	3589	58.60	7.339	4.165	3.245	2.755	2.052	2.005	1.916	1.541	1.456	1.440	1.351	1.366	1.509	1.776	1.750	1.794	1.864	1.920	2.196	2.354	3.045	3.857	4.918	5.620	6.923	6.851	5.899	5.217	5.698	5.005	4.642	4.240	4.596	5.615	5.819	6.746	7.371	7.331	7.524	8.791	9.543	10.52	11.59	12.00	12.73	13.61	13.01	13.29	12.63	13.19	13.32	11.13	9.322	7.673
330.0	2107	3046	3254	2618	1784	1358	1363	1511	1645	1983	2373	2673	2696	2465	2201	1775	1358	757.7	362.8	426.6	1312	3348	3675	1004	18.28	4.429	3.314	2.522	2.263	2.250	1.735	1.418	1.391	1.475	1.364	1.656	1.635	1.811	1.752	1.958	2.066	2.178	2.621	3.299	4.041	5.555	6.636	8.200	8.727	7.855	7.634	8.035	6.756	5.740	5.023	4.819	5.660	5.950	6.647	7.004	7.087	7.055	8.321	9.046	9.824	10.66	11.36	11.98	12.39	12.68	12.39	11.84	12.12	11.72	10.80	10.19	9.437
335.0	2254	3330	3820	3299	2343	1587	1370	1462	1575	1869	2226	2520	2565	2389	2067	1679	1527	918.5	445.9	338.0	455.0	881.8	2331	4799	416.3	18.90	4.582	3.345	2.659	2.220	1.879	1.626	1.479	1.604	1.506	1.564	1.788	1.729	1.769	2.029	1.931	2.423	2.746	3.517	4.264	5.765	7.027	8.866	9.923	9.372	9.305	10.33	8.834	7.755	6.373	5.245	5.496	5.840	6.333	6.807	6.703	6.793	7.840	8.337	9.251	10.33	10.48	10.75	11.63	11.83	12.07	11.23	10.76	11.01	10.05	9.197	9.274
340.0	2400	3438	3979	3478	2492	1634	1343	1390	1472	1741	2056	2322	2386	2242	1960	1559	1416	1058	532.3	349.4	293.4	332.8	682.0	3255	3474	339.4	9.374	4.032	3.231	2.418	1.870	1.810	1.581	1.638	1.430	1.468	1.797	1.633	1.789	1.796	1.974	2.216	2.701	3.348	4.278	5.851	7.227	9.283	10.44	9.748	9.770	11.02	9.572	8.084	6.878	5.407	5.408	5.539	6.259	6.543	6.185	6.759	7.281	7.871	8.572	9.407	9.370	10.13	11.01	11.27	10.90	11.12	10.52	10.42	9.371	8.744	8.305
345.0	2340	3342	3918	3477	2496	1610	1265	1298	1365	1590	1873	2121	2180	2080	1829	1458	1238	1032	670.6	393.0	280.5	234.2	264.9	955.4	3618	3096	51.56	5.837	3.570	2.883	2.144	1.908	1.565	1.579	1.411	1.491	1.634	1.659	1.739	1.840	1.935	2.161	2.683	3.160	4.176	5.699	6.887	9.085	10.08	9.644	9.853	10.80	9.535	8.308	6.612	5.518	5.124	5.380	5.850	6.124	5.584	6.143	6.783	7.406	7.698	8.164	8.735	8.885	10.01	10.44	10.06	9.898	10.23	9.617	8.893	8.197	7.724
350.0	2038	2994	3631	3374	2508	1620	1243	1220	1284	1456	1671	1867	1942	1860	1669	1367	1146	909.9	751.5	542.8	340.0	259.4	213.3	310.5	1052	2730	3039	846.6	16.32	3.677	2.544	2.036	1.748	1.517	1.471	1.463	1.477	1.599	1.598	1.645	1.899	2.021	2.315	3.142	3.955	5.186	6.361	8.153	9.298	8.841	9.433	10.49	9.559	8.385	6.963	5.370	5.065	5.148	5.296	5.428	5.356	5.777	6.126	6.619	6.815	7.232	7.974	8.242	8.674	8.774	8.921	9.078	9.036	8.807	8.301	7.743	7.255
355.0	1854	2666	3220	3115	2401	1593	1214	1177	1217	1342	1511	1668	1729	1664	1503	1276	1088	862.3	691.5	657.9	476.5	315.2	242.3	201.4	315.5	676.7	1880	3860	382.7	17.24	3.564	2.363	2.025	1.681	1.532	1.473	1.480	1.471	1.506	1.497	1.842	1.895	2.165	2.695	3.668	4.679	5.713	6.978	8.365	8.156	8.742	9.648	8.838	8.118	6.585	5.299	5.049	4.999	4.861	5.263	5.085	5.460	5.683	6.076	6.292	6.600	6.948	7.145	8.055	7.976	8.048	8.171	8.182	8.041	7.658	7.491	7.037
360.0	1660	2407	2931	2856	2249	1529	1198	1146	1185	1277	1412	1528	1573	1530	1397	1204	1037	847.0	680.0	620.1	587.4	395.7	277.4	205.9	178.2	222.1	516.1	2658	3168	316.8	8.338	3.312	2.164	1.892	1.563	1.375	1.526	1.432	1.454	1.402	1.649	1.715	2.022	2.652	3.356	4.044	5.078	6.464	7.559	7.504	7.658	9.123	8.440	7.817	6.131	5.058	4.949	4.930	4.858	5.160	4.975	5.473	5.536	5.657	5.974	6.377	6.379	6.646	7.103	7.445	7.476	7.678	7.371	7.394	7.349	6.833	6.603
365.0	1475	2157	2662	2600	2146	1488	1180	1128	1158	1223	1337	1434	1460	1431	1303	1150	1002	839.3	696.6	600.5	600.4	508.4	333.6	237.2	174.6	141.2	177.1	781.0	3195	2827	47.94	5.407	2.780	2.117	1.651	1.613	1.493	1.378	1.419	1.439	1.516	1.765	1.973	2.342	2.998	3.696	4.691	6.371	6.677	7.048	7.041	8.260	7.405	7.471	6.238	5.079	4.859	4.691	4.780	4.968	5.119	5.191	5.387	5.610	5.983	6.004	6.203	6.101	6.714	6.691	6.966	7.151	6.871	7.021	6.912	6.677	6.384
370.0	1345	1931	2329	2350	1983	1457	1167	1122	1134	1187	1270	1330	1350	1321	1221	1094	974.3	844.3	721.8	628.4	572.7	561.4	465.3	306.9	221.0	163.6	135.9	243.2	934.7	2532	2814	747.1	15.35	3.405	2.258	1.850	1.731	1.531	1.473	1.497	1.601	1.704	1.806	2.290	2.775	3.456	4.217	5.385	5.817	5.965	6.327	7.551	7.177	6.912	5.778	5.135	4.959	4.828	4.860	4.855	4.849	4.939	5.305	5.463	5.342	5.399	5.736	5.936	6.182	6.399	6.360	6.572	6.416	6.668	6.650	6.122	6.411
375.0	1200	1726	2023	2078	1842	1421	1161	1104	1112	1163	1227	1257	1279	1233	1143	1044	945.6	842.9	744.4	666.1	592.1	543.8	539.0	434.6	290.4	217.3	172.9	162.2	283.8	639.3	1827	3428	332.5	15.66	3.206	2.334	1.979	1.704	1.572	1.503	1.482	1.736	1.799	2.168	2.563	3.162	3.465	4.781	5.105	4.993	5.471	6.771	6.709	6.046	5.685	5.002	5.053	4.719	4.867	4.755	4.669	4.769	5.042	5.369	4.878	5.518	5.556	5.565	5.879	6.178	6.249	5.999	6.142	5.786	6.093	5.840	5.893
380.0	1101	1612	1830	1898	1729	1395	1156	1101	1122	1143	1192	1205	1217	1178	1084	1000	914.2	835.4	757.3	684.2	612.2	554.7	527.2	515.4	368.8	263.3	213.3	172.4	163.9	215.9	529.1	2476	2706	258.7	7.144	3.230	2.424	1.858	1.671	1.478	1.549	1.666	1.855	2.001	2.445	3.106	3.407	4.289	4.668	4.641	5.192	6.209	6.234	5.686	5.366	4.786	4.801	5.043	4.641	4.853	4.604	4.755	5.078	5.131	5.149	5.351	5.311	5.474	5.555	5.837	5.860	5.828	6.029	5.804	6.084	5.590	5.831
385.0	1075	1440	1719	1738	1645	1355	1155	1110	1100	1123	1168	1180	1176	1137	1041	968.3	898.9	827.0	760.1	696.5	630.4	573.7	529.0	521.3	458.2	324.2	257.0	208.5	164.4	145.2	200.7	757.6	2701	2265	38.72	5.777	3.011	2.221	1.845	1.739	1.620	1.640	1.771	2.023	2.461	2.970	3.274	4.155	4.287	4.345	4.893	5.797	5.964	5.632	4.947	4.852	4.692	4.966	4.707	4.564	4.506	4.901	5.000	5.100	4.997	5.233	5.085	5.442	5.259	5.584	5.717	5.684	5.571	5.631	5.544	5.410	5.666
390.0	1012	1309	1582	1627	1548	1317	1155	1105	1107	1121	1163	1169	1158	1110	1024	945.9	876.3	816.8	761.6	708.6	658.7	610.1	566.8	525.1	511.1	445.5	340.5	274.4	221.0	177.9	162.5	257.1	811.2	2034	2063	540.8	14.42	4.488	2.523	1.814	1.643	1.610	1.677	1.936	2.281	2.768	3.059	3.775	3.964	4.083	4.376	5.250	5.584	5.465	5.022	4.646	4.996	4.713	4.543	4.668	4.669	4.737	5.015	5.081	5.103	4.904	5.119	5.163	5.116	5.389	5.557	5.441	5.294	5.602	5.596	5.483	5.503
395.0	977.8	1211	1473	1528	1473	1299	1158	1125	1133	1179	1212	1228	1212	1150	1055	954.5	883.6	820.6	772.5	736.7	703.0	668.4	635.4	594.7	565.1	558.6	476.2	396.9	334.8	277.0	235.3	212.3	287.4	546.3	1446	2396	273.0	16.59	4.704	2.620	1.854	1.891	1.820	1.803	2.326	2.743	2.932	3.514	3.819	3.780	4.054	4.935	5.065	5.239	5.048	4.780	4.995	4.920	4.800	4.760	4.846	4.870	5.109	5.180	5.141	5.147	5.389	4.969	5.127	5.298	5.344	5.453	5.483	5.671	5.242	5.469	5.532
400.0	948.3	1159	1414	1444	1418	1291	1186	1166	1195	1263	1327	1350	1331	1247	1130	1001	898.3	836.1	791.8	769.8	741.7	733.2	713.0	692.3	660.9	650.0	650.8	559.6	456.6	402.2	350.5	282.4	232.4	244.9	474.0	1905	2131	210.5	9.939	3.638	2.572	1.941	2.063	2.138	2.298	2.725	2.889	3.509	3.671	3.624	4.101	4.910	4.801	4.900	4.883	4.851	5.167	4.932	4.951	5.236	5.342	4.909	5.211	5.395	5.497	5.407	5.622	4.938	5.576	5.592	5.510	5.399	5.581	5.524	5.415	5.028	5.352
405.0	912.8	1144	1380	1397	1395	1297	1218	1214	1254	1363	1465	1509	1487	1388	1237	1070	940.2	858.5	815.0	804.7	794.7	798.2	797.5	796.9	781.6	768.3	771.9	743.9	628.6	546.3	485.4	393.9	297.7	239.2	250.2	650.1	2137	1730	35.64	5.852	2.963	2.216	2.177	2.113	2.163	2.815	2.861	3.544	3.510	3.580	3.782	4.766	4.743	5.271	4.919	4.903	5.036	4.983	4.963	5.102	4.844	5.081	5.417	5.480	5.656	5.821	5.679	5.553	5.697	5.612	5.502	5.822	5.561	5.511	5.406	5.326	5.378
410.0	879.9	1131	1302	1334	1359	1279	1237	1258	1330	1466	1573	1648	1619	1494	1321	1115	963.7	861.0	825.4	817.3	826.3	848.2	866.6	886.8	886.6	877.5	869.7	871.3	808.6	705.1	615.5	505.2	385.9	296.5	245.5	289.1	697.9	1600	1558	149.4	10.57	2.810	2.349	2.195	2.276	2.623	2.769	3.571	3.593	3.361	3.829	4.846	4.926	5.209	4.839	4.975	4.916	5.014	5.285	5.175	5.164	5.350	5.649	5.711	5.849	5.743	5.860	5.669	5.720	5.757	5.643	5.671	5.703	5.666	5.632	5.230	5.374
415.0	860.2	1053	1207	1244	1284	1254	1227	1258	1313	1457	1570	1647	1601	1468	1304	1090	935.9	828.5	800.8	798.8	816.8	835.3	871.5	901.2	905.9	898.8	890.8	866.6	847.6	779.4	657.5	537.8	415.4	321.1	252.0	212.0	253.1	425.0	1089	1803	230.9	9.057	2.861	2.320	2.472	2.891	2.779	3.345	3.288	3.372	3.494	4.578	4.761	4.981	4.784	4.786	5.098	5.085	5.178	5.189	5.309	5.493	5.636	5.456	5.636	5.984	5.807	5.395	5.933	5.585	5.388	5.717	5.528	5.595	5.483	4.611	4.858
420.0	830.1	1044	1150	1215	1234	1227	1210	1229	1281	1417	1512	1582	1531	1411	1241	1042	894.0	795.0	763.3	766.7	785.5	805.0	842.2	872.8	883.4	881.5	867.9	841.8	807.2	782.8	669.7	534.2	410.2	318.1	248.3	191.5	150.5	145.5	309.5	1380	1590	176.9	4.632	2.533	2.374	2.561	2.640	3.063	3.215	3.165	3.396	4.367	4.478	4.609	4.653	4.658	4.866	5.207	4.801	5.030	5.370	5.322	5.462	5.327	5.418	5.440	5.590	5.254	5.402	5.345	5.429	5.536	5.198	5.567	5.121	4.910	4.919
425.0	764.1	995.6	1117	1188	1199	1188	1191	1216	1273	1363	1478	1528	1484	1360	1197	1004	853.8	764.8	738.1	737.5	755.8	784.0	816.4	852.8	864.9	864.6	858.7	826.6	783.2	754.4	687.5	546.9	413.8	322.2	253.4	191.5	130.4	84.12	95.23	416.1	1541	1279	30.98	3.571	2.876	2.847	2.626	3.357	3.167	3.217	3.339	4.159	4.552	4.479	4.501	4.286	5.063	5.013	5.058	5.010	5.284	5.421	5.340	5.527	5.293	5.218	5.263	5.159	5.105	5.421	5.414	5.369	5.107	5.361	4.856	4.850	4.845
430.0	778.1	923.2	1080	1131	1162	1173	1182	1213	1272	1377	1485	1525	1471	1347	1180	985.4	826.1	739.5	714.0	717.6	735.2	764.6	804.3	845.3	864.3	869.9	869.6	841.5	802.9	756.1	704.9	599.5	453.0	347.3	273.2	208.9	139.3	79.41	53.22	110.8	448.1	1148	1217	136.2	9.613	3.145	2.939	3.040	3.256	3.076	3.276	4.158	4.294	4.521	4.662	4.475	4.939	4.865	4.790	5.172	5.076	5.164	5.236	5.281	5.159	5.064	5.286	5.024	5.132	5.396	5.257	5.043	4.960	5.143	4.695	4.550	4.629
435.0	1033	917.5	1036	1087	1125	1161	1191	1209	1285	1375	1473	1519	1445	1326	1159	968.9	805.0	718.6	687.8	695.8	712.8	743.7	787.6	834.7	855.9	871.4	872.4	854.0	816.6	762.5	699.7	621.8	505.0	375.4	295.0	227.0	153.6	88.00	50.76	47.42	114.5	278.1	834.3	1523	218.8	9.654	3.190	3.294	3.266	3.043	3.287	4.004	4.213	4.636	4.788	4.572	4.908	5.129	4.949	4.950	5.075	5.140	5.368	5.186	5.234	5.405	5.162	5.136	4.992	4.989	5.328	4.950	4.812	4.696	4.667	4.444	4.616
440.0	1301	888.8	989.6	1041	1109	1156	1185	1197	1239	1338	1422	1470	1379	1277	1117	928.9	770.2	689.7	654.8	668.4	678.2	706.2	751.3	797.8	828.0	836.4	849.1	833.6	793.6	747.3	682.5	596.0	509.6	389.9	294.9	230.7	159.8	94.34	53.75	36.81	43.54	74.73	230.0	1162	1411	170.1	5.199	3.557	3.096	2.950	3.240	4.078	4.178	4.516	4.748	4.524	4.831	4.970	5.160	5.110	4.997	5.241	5.220	5.084	4.975	5.020	5.069	5.010	4.577	4.907	4.909	4.897	4.758	4.470	4.526	4.508	4.348
445.0	1335	1064	937.6	1024	1069	1139	1165	1172	1201	1277	1342	1371	1293	1204	1040	871.5	729.4	652.7	621.9	628.3	640.9	661.7	703.7	743.7	769.7	783.8	788.2	779.3	745.6	706.0	639.6	551.1	473.5	387.6	293.6	223.4	158.3	97.63	57.59	37.09	30.13	31.38	62.60	347.2	1347	1173	27.18	4.335	3.328	3.105	3.179	3.808	4.079	4.352	4.460	4.302	4.793	4.852	4.886	4.762	4.869	4.850	5.145	4.984	4.844	4.927	4.854	4.804	4.761	4.715	4.794	4.416	4.394	4.186	4.528	4.440	4.154
450.0	1096	1488	968.8	977.3	1018	1074	1109	1121	1136	1166	1226	1228	1166	1071	928.3	785.9	664.4	595.5	570.2	571.5	577.2	595.6	627.9	663.1	682.6	692.8	695.7	689.6	665.7	631.5	572.3	492.9	413.3	347.0	288.1	214.4	150.0	96.41	61.43	41.57	30.97	24.97	27.52	88.09	387.0	1012	1106	123.1	9.220	3.242	3.116	3.681	3.784	4.111	4.206	4.333	4.818	4.580	4.749	4.758	4.911	4.735	4.735	4.802	4.634	4.615	4.563	4.437	4.385	4.384	4.325	4.104	4.128	3.995	3.920	4.010	3.841
455.0	728.5	1652	1278	918.7	945.3	1008	1050	1052	1049	1061	1099	1100	1042	954.0	827.7	699.8	599.2	536.6	516.1	507.4	512.0	527.7	554.5	583.1	596.0	611.4	612.1	606.0	589.1	560.9	510.3	442.6	369.4	306.0	263.7	214.8	149.0	96.40	63.67	45.58	34.01	26.72	22.13	31.71	95.85	241.8	658.1	1251	185.9	9.144	3.298	3.667	3.825	3.924	3.932	3.909	4.462	4.416	4.577	4.560	4.643	4.542	4.384	4.598	4.361	4.298	4.229	4.028	4.230	3.992	3.852	3.536	3.552	3.524	3.612	3.801	3.519
460.0	544.1	1319	1748	919.8	880.6	933.5	983.7	991.5	981.8	980.6	1013	1011	952.3	873.5	755.9	642.6	549.1	496.0	472.9	467.8	468.7	480.0	502.2	528.7	544.9	553.0	558.1	553.5	537.0	513.0	471.2	411.5	342.1	281.2	238.7	209.8	154.3	97.97	65.72	48.65	37.44	29.42	22.50	20.87	31.80	62.90	172.9	855.9	1120	141.1	5.671	3.844	3.485	3.527	3.842	3.581	4.253	4.345	4.177	4.092	4.355	4.214	3.892	4.265	3.847	4.006	3.799	3.587	3.767	3.537	3.644	3.436	3.341	3.565	3.477	3.479	3.079
465.0	502.4	884.9	1953	1156	838.0	878.6	930.9	938.7	928.2	923.5	940.8	930.7	883.2	797.3	698.2	595.6	507.7	460.1	439.1	432.8	431.8	438.5	461.1	485.7	501.7	509.0	512.4	512.9	493.0	476.9	439.4	382.9	321.1	265.0	222.9	194.8	156.0	102.8	67.88	50.47	39.19	31.12	24.02	19.66	19.12	23.53	46.29	242.9	989.2	911.5	23.10	4.598	3.574	3.705	3.644	3.435	4.106	4.364	4.005	4.227	4.074	3.839	3.805	4.063	3.619	3.658	3.653	3.447	3.549	3.664	3.352	3.107	3.392	3.329	2.888	3.046	3.179
470.0	478.6	645.0	1399	1716	868.6	799.7	853.3	854.9	825.5	829.2	835.7	825.9	778.9	707.5	613.5	524.6	450.9	408.8	387.5	381.9	378.5	381.9	401.9	421.9	435.8	441.9	445.5	444.6	431.4	416.6	388.0	340.1	287.6	239.9	200.0	169.1	141.9	107.1	72.26	51.59	40.89	32.77	26.20	21.24	17.66	15.68	19.15	61.39	273.7	691.4	774.2	281.0	10.21	3.628	3.524	3.369	3.602	3.800	3.934	3.795	3.738	3.553	3.521	3.386	3.446	3.209	3.256	3.413	3.098	3.224	2.982	2.915	3.026	2.904	2.895	2.793	2.797
475.0	446.2	538.1	799.5	1805	1287	721.3	758.8	767.9	734.4	725.7	731.7	720.4	667.2	607.2	526.8	455.9	390.8	353.9	336.5	329.2	323.2	324.7	343.0	355.0	365.7	373.9	377.3	374.8	365.1	355.1	329.7	292.2	247.4	209.2	173.9	146.9	121.7	99.60	78.94	53.65	41.74	33.59	27.64	21.91	18.08	15.35	13.82	21.37	67.37	162.2	374.4	860.7	190.8	11.89	3.350	3.364	3.283	3.446	3.381	3.362	3.261	3.281	3.148	2.804	3.071	2.988	3.039	3.078	2.708	2.955	2.834	2.723	2.728	2.490	2.628	2.446	2.506
480.0	432.4	490.1	570.4	1347	1764	750.2	696.0	697.6	666.4	653.2	657.8	641.0	600.5	534.8	470.7	406.4	349.0	319.6	303.3	295.5	289.6	289.2	302.2	313.9	323.6	327.8	329.8	329.2	320.9	314.5	291.6	259.7	222.6	187.5	159.6	132.1	107.8	88.01	78.23	59.30	42.77	34.68	27.92	22.75	18.66	15.75	13.38	12.93	21.77	41.73	94.08	469.8	819.8	171.3	6.938	2.954	3.263	3.299	3.162	3.015	3.154	3.166	2.835	2.825	2.867	2.688	2.863	2.730	2.642	2.576	2.465	2.516	2.471	2.337	2.341	2.088	2.218
485.0	395.6	464.0	492.3	845.3	1969	1022	635.8	632.3	612.5	592.5	597.7	585.2	535.3	479.4	423.9	367.4	323.7	291.4	277.3	271.0	260.0	262.7	271.2	281.7	287.7	290.6	291.3	292.0	289.5	280.4	262.0	230.9	203.6	171.5	145.4	123.4	100.4	79.31	71.86	63.98	45.85	34.94	28.63	23.45	20.40	16.90	13.95	11.51	12.10	15.00	26.02	125.0	599.0	771.2	28.61	4.475	3.264	3.214	2.968	3.023	2.900	2.875	2.623	2.822	2.905	2.625	2.694	2.499	2.337	2.347	2.377	2.316	2.380	2.221	2.194	2.317	2.069
490.0	327.4	460.2	457.3	553.7	1378	1670	681.5	572.4	558.7	539.8	531.6	522.6	483.8	426.1	377.0	321.5	283.4	257.5	245.8	239.4	230.4	229.6	236.5	245.3	250.0	255.4	255.8	255.2	252.8	244.0	230.0	205.7	179.1	153.5	131.4	111.6	92.41	73.78	62.14	59.04	51.80	38.49	29.71	24.49	20.75	17.70	14.94	12.52	10.73	9.707	11.14	32.59	155.8	459.0	651.9	291.6	12.73	3.268	2.994	2.732	2.684	2.576	2.509	2.480	2.495	2.366	2.356	2.321	2.146	2.189	2.124	2.090	2.073	2.083	1.956	1.935	2.121
495.0	265.9	405.8	453.3	443.0	713.9	1818	1116	512.7	498.1	475.4	469.5	457.5	420.2	372.9	324.6	280.8	249.1	225.0	216.1	206.6	201.2	201.0	204.7	210.8	216.5	219.5	220.0	220.1	219.0	210.7	198.2	181.3	157.9	134.6	117.0	99.73	83.15	67.94	56.75	50.87	48.80	44.34	31.59	25.22	20.61	18.02	15.83	13.34	11.24	9.005	8.319	12.33	39.09	106.6	286.4	769.2	229.4	16.00	2.899	2.621	2.525	2.317	2.322	2.283	2.228	2.006	2.101	2.182	1.974	2.074	1.965	1.897	1.947	1.907	1.782	1.859	1.835
500.0	238.5	355.8	447.6	397.3	483.1	1308	1705	531.8	445.2	430.6	422.5	412.4	378.2	335.6	293.2	253.3	222.1	202.2	191.6	187.3	180.4	179.5	182.5	186.3	192.1	194.2	193.8	195.4	193.7	186.9	178.0	162.6	140.4	122.7	107.8	91.98	76.45	63.91	52.52	46.56	42.84	43.87	34.12	25.31	20.95	18.46	15.79	13.42	11.57	9.407	7.911	7.922	13.19	27.65	70.38	363.6	782.7	204.4	10.06	2.500	2.413	2.129	2.178	2.195	1.964	1.914	1.917	1.891	1.823	1.833	1.810	1.784	1.809	1.664	1.705	1.686	1.671
505.0	205.1	292.2	408.0	369.4	386.2	747.6	1962	789.9	404.2	384.1	382.4	368.3	341.2	304.0	264.4	228.0	198.1	180.9	173.4	168.1	159.9	159.7	162.4	167.9	170.0	172.2	174.1	172.6	171.1	168.1	157.6	144.7	127.5	110.5	97.22	84.38	71.09	59.74	49.84	42.77	37.59	39.33	36.65	26.93	21.53	18.11	15.81	13.56	11.31	9.769	7.899	7.244	7.297	10.19	19.25	91.34	457.1	745.2	160.4	4.924	2.414	2.112	1.992	1.946	1.788	1.823	1.845	1.806	1.655	1.716	1.702	1.573	1.537	1.521	1.546	1.524	1.526
510.0	187.2	243.8	341.0	363.0	328.1	427.5	1304	1555	456.6	335.4	331.3	322.2	288.0	257.7	226.8	196.3	173.0	157.9	149.5	143.8	138.8	137.0	136.6	143.3	144.3	145.0	146.2	145.8	146.5	142.5	134.9	124.4	108.6	94.88	84.51	73.62	62.54	53.19	45.09	38.94	34.26	32.86	32.69	29.50	22.73	18.03	15.18	13.29	10.98	9.710	8.208	7.120	6.219	6.274	7.867	23.67	113.3	366.8	560.2	257.4	13.38	2.223	1.984	1.785	1.645	1.666	1.600	1.469	1.615	1.509	1.507	1.412	1.411	1.396	1.346	1.258	1.339
515.0	164.6	216.6	248.8	346.7	299.6	311.8	575.7	1774	942.9	304.1	285.7	272.1	249.0	219.0	190.8	165.2	146.7	133.8	127.5	122.0	117.4	115.1	117.3	119.3	119.1	121.1	122.7	122.9	120.4	118.5	113.1	104.4	92.01	81.32	71.88	64.71	54.72	46.70	40.40	35.34	30.92	27.98	26.32	27.82	25.34	18.71	14.22	12.71	10.79	9.330	8.212	7.458	6.071	5.478	5.036	8.312	28.26	84.50	190.4	550.1	235.6	17.78	1.877	1.640	1.610	1.431	1.436	1.424	1.315	1.354	1.337	1.388	1.241	1.146	1.219	1.056	1.199
520.0	143.4	177.5	215.2	302.3	304.6	265.6	341.9	1225	1645	315.4	248.0	240.2	221.2	192.8	167.0	146.2	130.7	119.1	112.3	107.1	101.6	101.4	102.0	104.0	103.6	104.2	106.4	105.9	104.6	103.9	98.31	90.92	78.80	72.31	63.80	56.76	49.54	41.64	36.92	32.71	28.39	25.61	23.93	23.66	24.48	20.87	14.74	12.07	10.33	9.123	8.001	7.320	6.264	5.161	4.760	4.981	9.338	21.60	45.87	226.8	562.3	207.0	10.85	1.704	1.518	1.419	1.307	1.226	1.232	1.328	1.135	1.194	1.163	1.029	1.097	1.128	1.103
525.0	132.4	162.8	187.8	245.0	311.5	243.5	258.8	621.5	1993	633.2	226.4	214.2	195.0	171.8	147.8	129.5	114.7	106.7	98.85	94.49	89.52	88.78	90.62	91.42	92.12	90.59	90.73	92.47	90.59	91.25	85.31	80.27	72.18	63.88	55.76	50.78	44.33	37.90	33.54	29.40	26.42	24.12	21.35	20.78	21.42	21.49	15.93	11.96	10.04	8.644	8.218	7.067	6.346	5.552	4.639	4.155	5.035	7.602	12.64	55.48	278.3	536.4	159.8	4.631	1.475	1.254	1.279	1.255	1.240	1.171	1.130	1.138	1.088	0.994	1.132	1.020	1.091
530.0	120.6	146.8	165.5	185.3	269.7	242.4	216.0	304.0	1275	1553	307.2	187.5	168.5	147.4	127.7	111.6	99.15	91.79	85.51	81.54	77.61	76.65	75.16	76.54	76.71	76.45	75.54	76.61	76.88	75.77	72.43	67.14	61.14	54.88	48.22	43.85	38.39	33.45	29.83	26.46	23.77	21.27	18.95	18.11	17.44	18.82	17.28	12.81	9.614	8.299	7.574	6.591	5.721	5.271	4.722	4.216	3.818	4.298	5.229	14.50	67.05	231.3	389.1	207.8	13.51	1.478	1.186	1.206	1.061	1.147	1.083	1.012	0.916	1.021	0.912	0.969	0.980
535.0	105.9	115.8	138.7	154.3	207.6	250.6	191.3	200.3	478.7	1795	876.8	167.3	140.3	124.6	106.2	94.70	85.56	77.62	71.32	68.15	64.90	63.75	63.62	64.49	65.16	65.31	63.10	62.39	64.07	62.06	60.19	55.24	51.51	46.19	40.94	37.24	32.69	28.48	25.89	22.72	20.51	19.09	16.71	15.71	14.55	14.21	15.66	13.96	9.952	7.952	6.829	5.947	5.487	4.846	4.881	4.197	3.546	3.387	3.613	5.250	16.68	53.07	118.1	370.6	231.4	18.10	1.360	1.145	0.950	1.031	0.864	0.827	0.799	0.873	0.925	0.842	0.862
540.0	97.52	116.3	117.2	128.4	154.4	234.5	188.0	168.2	227.6	1144	1651	200.1	125.8	109.2	91.87	81.29	73.85	66.96	62.67	58.49	56.55	54.17	55.18	54.62	55.18	56.51	55.78	54.62	55.43	54.74	51.82	48.25	43.55	39.53	35.26	32.48	28.56	25.29	22.74	21.01	18.80	17.44	15.43	13.60	12.74	11.95	12.81	13.79	10.54	7.824	6.454	5.487	5.064	4.309	4.035	4.408	3.639	3.254	3.195	3.129	5.392	13.50	28.28	137.8	389.9	194.8	10.56	1.115	1.136	1.004	0.888	0.825	0.834	0.820	0.800	0.795	0.795
545.0	91.59	110.6	112.1	116.8	126.6	194.2	199.5	144.3	160.2	494.4	1981	458.1	107.4	96.74	81.54	71.64	65.03	59.54	55.70	53.13	50.05	47.39	46.98	48.57	46.90	48.11	47.65	48.90	47.98	47.13	45.32	42.16	37.63	33.67	31.03	28.20	25.78	22.47	19.90	18.50	17.11	14.99	13.68	12.92	11.47	10.67	10.58	12.43	10.86	7.777	6.304	5.529	4.823	4.276	4.101	3.987	3.836	3.099	2.686	2.514	3.001	4.586	7.741	33.03	175.0	383.2	131.2	3.848	1.200	0.893	0.931	0.796	0.816	0.707	0.737	0.747	0.821
550.0	79.62	93.53	105.2	102.2	107.8	140.2	196.0	134.4	120.9	199.4	1158	1363	142.6	77.54	68.62	59.94	54.30	48.77	45.50	43.43	41.13	39.88	39.34	39.60	38.24	39.89	39.29	39.73	39.11	38.28	37.04	34.48	31.69	28.43	25.99	23.32	21.21	19.14	16.76	15.50	14.18	12.91	11.94	10.87	9.928	9.451	8.693	9.070	9.590	8.373	6.337	4.990	4.074	4.073	3.653	3.407	3.327	3.210	2.440	2.274	2.125	2.410	3.060	8.575	41.74	153.0	260.4	131.8	12.66	0.934	0.809	0.740	0.738	0.655	0.676	0.713	0.663
555.0	75.42	92.51	87.85	86.84	83.21	103.9	160.5	145.8	97.16	111.7	369.6	1640	591.0	66.30	57.06	49.57	42.82	39.18	36.39	34.59	33.00	31.70	30.36	31.55	30.74	32.06	31.15	30.62	31.04	30.87	29.07	28.01	25.42	22.96	20.91	19.16	17.06	15.89	13.74	12.79	11.26	10.39	9.927	9.367	8.279	7.915	7.046	6.731	6.971	7.516	6.520	4.992	3.494	3.550	3.075	2.845	2.777	2.885	2.631	2.141	1.937	1.815	1.726	3.057	10.42	35.20	76.75	224.5	184.1	14.62	0.846	0.740	0.681	0.691	0.659	0.612	0.613
560.0	79.28	86.50	85.53	70.63	73.50	83.71	116.5	157.4	87.88	82.64	150.1	998.4	1298	89.95	48.11	42.76	36.74	33.09	30.90	28.74	27.94	27.21	26.74	26.78	26.19	26.32	26.52	25.26	25.92	25.48	23.77	23.18	21.25	19.58	16.91	15.88	14.65	13.43	11.96	11.00	9.663	9.161	8.664	7.944	7.374	6.863	6.226	5.712	5.160	6.091	6.368	4.894	3.354	3.014	2.678	2.656	2.468	2.506	2.498	2.246	1.800	1.649	1.602	1.754	3.289	8.898	18.19	81.23	246.2	132.2	6.808	0.812	0.667	0.623	0.534	0.682	0.502
565.0	77.43	80.86	74.79	69.20	70.47	71.16	87.38	152.1	95.02	75.00	90.53	392.2	1682	160.2	41.66	35.60	32.42	27.92	26.90	24.56	23.56	23.18	22.55	22.96	21.49	21.47	22.24	20.85	21.57	21.64	20.67	19.22	17.29	16.51	14.54	13.14	12.71	11.08	10.24	9.246	8.506	8.246	7.177	6.909	6.427	5.992	5.433	4.897	4.656	4.673	5.338	4.782	3.423	2.717	2.506	2.565	2.199	2.393	2.263	2.401	1.773	1.492	1.399	1.385	1.728	2.858	4.904	19.57	105.1	228.8	33.97	2.522	0.598	0.642	0.556	0.555	0.543
570.0	72.73	75.15	72.94	62.79	56.03	59.08	63.37	108.3	117.5	66.83	65.98	140.1	980.5	956.2	69.22	29.25	26.31	23.48	21.49	20.42	19.21	18.29	18.14	17.79	17.53	17.84	17.42	16.82	17.24	17.33	16.71	15.03	14.20	12.90	11.93	10.65	10.39	8.957	8.234	7.575	6.901	6.806	5.912	5.823	5.396	4.866	4.474	4.200	3.811	3.634	3.935	4.238	3.708	2.829	2.263	2.109	1.851	1.902	1.774	1.829	1.911	1.548	1.343	1.268	1.215	1.527	1.890	5.244	24.99	89.02	144.7	86.57	9.837	0.657	0.572	0.488	0.511
575.0	67.12	76.14	75.67	56.40	50.70	47.60	49.48	68.46	123.5	76.08	57.77	74.18	295.1	1236	377.3	25.40	22.03	18.85	17.35	15.66	15.15	14.13	14.05	13.96	14.11	13.72	13.90	13.57	13.27	13.41	13.05	11.68	11.48	10.11	9.674	8.610	8.420	7.193	6.578	5.979	5.582	5.583	4.949	4.790	4.326	4.083	3.797	3.438	3.217	2.994	2.733	3.128	3.254	2.979	2.184	1.704	1.709	1.669	1.499	1.606	1.587	1.632	1.333	1.147	1.110	1.110	1.162	2.097	6.311	20.51	42.39	130.0	114.9	10.15	0.562	0.530	0.461
580.0	72.76	72.84	70.84	52.85	43.33	41.46	43.83	51.67	103.8	91.72	56.55	55.04	102.7	752.0	895.8	38.07	17.65	16.91	14.37	13.06	13.17	11.98	12.16	12.06	12.13	11.59	11.76	11.66	11.40	11.32	11.13	9.994	9.555	8.683	8.016	7.153	7.023	6.694	5.763	5.386	4.825	4.588	4.211	4.118	3.644	3.739	3.135	2.995	2.727	2.571	2.355	2.318	2.965	2.997	2.261	1.712	1.593	1.400	1.341	1.489	1.411	1.500	1.544	1.180	1.074	0.909	0.986	1.334	2.258	5.331	10.30	46.74	153.2	77.38	4.389	0.493	0.435
585.0	75.33	81.35	67.10	50.76	39.97	41.39	40.71	43.39	75.27	108.6	58.09	50.20	54.79	284.9	1174	100.9	15.77	14.01	12.72	12.03	11.01	10.03	10.19	10.32	10.58	10.25	9.715	9.768	9.736	9.449	9.570	8.271	8.031	7.464	6.746	6.244	5.759	5.376	4.793	4.619	4.238	3.928	3.647	3.622	3.309	3.284	2.852	2.616	2.599	2.160	1.950	2.013	2.151	2.724	2.388	1.809	1.438	1.419	1.130	1.183	1.102	1.285	1.607	1.299	0.982	0.911	0.953	1.105	1.222	1.897	3.053	11.36	65.15	134.2	31.36	1.697	0.410
590.0	69.50	70.54	59.61	48.74	35.66	36.99	38.20	39.51	52.70	103.6	76.92	49.65	44.91	93.71	681.9	613.1	30.61	12.38	10.87	9.916	8.802	8.573	8.510	8.246	8.337	8.427	7.866	7.992	7.880	7.946	7.453	7.145	6.522	6.010	5.691	5.077	4.762	4.511	4.019	3.824	3.703	3.286	3.117	3.017	2.735	2.727	2.334	2.320	2.154	1.821	1.573	1.678	1.602	1.991	2.210	1.943	1.432	1.176	1.026	1.074	1.080	1.074	1.231	1.304	1.149	1.005	0.898	0.921	0.963	1.156	1.327	3.151	15.52	51.37	87.20	55.83	7.309
595.0	71.20	68.48	58.82	44.87	37.29	35.57	38.28	37.25	47.70	79.60	101.6	56.21	44.25	48.34	196.5	816.5	98.58	11.48	8.564	8.005	7.043	6.852	7.149	6.648	6.637	6.697	6.115	6.036	6.027	6.490	6.163	6.094	5.246	4.738	4.529	4.183	3.924	3.552	3.261	3.176	2.763	2.780	2.664	2.331	2.249	2.367	2.110	1.836	1.776	1.635	1.304	1.485	1.390	1.365	1.689	2.000	1.534	1.133	0.989	1.083	0.957	0.930	0.970	1.035	1.132	1.043	0.885	0.895	0.933	0.893	0.866	1.229	3.998	11.93	24.86	75.99	68.28
600.0	66.24	71.45	57.80	46.11	36.80	37.24	38.28	40.83	47.92	65.31	111.9	73.15	52.91	41.01	68.09	522.4	496.5	17.00	7.808	7.183	6.730	6.500	5.792	5.815	5.837	5.717	5.632	5.372	5.197	5.246	5.455	4.800	4.491	4.069	3.822	3.617	3.176	3.092	2.714	2.691	2.523	2.269	2.292	2.011	1.955	1.945	1.883	1.619	1.503	1.455	1.378	1.354	1.154	1.179	1.280	1.470	1.571	1.157	0.941	0.959	0.827	0.907	0.930	0.902	1.021	1.101	1.017	0.909	0.914	0.802	0.758	0.889	1.503	3.177	6.052	26.62	84.76
605.0	67.65	77.72	60.37	46.62	37.14	39.79	44.63	52.83	58.04	73.35	119.2	106.1	72.07	53.18	48.54	208.5	728.1	64.84	7.247	6.295	5.478	5.858	4.980	5.153	5.005	5.153	4.774	4.721	4.844	4.342	4.396	3.901	3.799	3.419	3.371	2.892	2.987	2.863	2.563	2.239	2.108	1.985	1.929	1.862	1.717	1.664	1.577	1.426	1.378	1.252	1.281	1.134	1.083	0.975	1.044	1.241	1.508	1.336	1.026	0.882	0.841	0.918	0.774	0.947	0.974	1.069	1.324	0.898	0.923	0.869	0.752	0.792	0.919	1.245	1.891	6.534	34.22
610.0	80.81	86.05	75.63	55.95	45.22	46.15	58.76	67.79	85.40	105.3	138.1	167.0	115.3	84.01	69.77	92.34	493.8	382.4	14.91	5.039	4.737	4.492	4.196	4.087	3.926	4.059	3.980	3.821	3.826	3.684	3.657	3.434	3.162	2.973	2.652	2.576	2.557	2.403	2.241	1.894	1.798	1.772	1.586	1.542	1.478	1.432	1.355	1.255	1.208	1.129	0.992	1.016	0.976	0.886	0.961	0.986	1.343	1.549	1.095	0.988	0.987	0.897	0.820	0.991	1.092	1.021	1.305	1.351	1.089	1.045	0.894	0.819	0.827	0.926	0.925	1.994	8.413
615.0	85.33	85.93	83.03	63.53	50.82	53.34	66.19	79.34	97.96	115.5	140.3	179.6	145.5	104.3	83.05	70.90	181.4	570.1	71.22	4.651	4.054	3.756	3.523	3.320	3.411	3.325	3.367	2.994	3.247	3.268	2.971	2.786	2.666	2.705	2.336	2.204	2.140	1.887	1.813	1.640	1.574	1.469	1.424	1.474	1.118	1.312	1.106	1.130	1.125	0.934	0.899	0.894	0.903	0.779	0.851	0.824	0.956	1.257	1.248	1.175	0.974	0.956	0.902	1.033	1.086	1.004	1.123	1.388	1.316	1.154	0.938	0.879	0.848	0.781	0.807	1.056	2.481
620.0	84.09	92.66	77.57	64.18	51.05	52.17	69.39	77.94	93.12	117.4	132.1	164.3	157.9	105.6	85.45	62.39	87.30	410.8	300.1	6.523	3.460	3.332	2.866	3.017	2.781	2.778	2.803	2.635	2.561	2.593	2.502	2.505	2.312	2.305	1.988	1.998	1.873	1.543	1.571	1.395	1.209	1.321	1.207	1.046	1.066	1.106	1.060	1.065	0.957	0.820	0.770	0.796	0.804	0.637	0.741	0.733	1.004	1.052	0.968	1.136	1.173	1.006	0.863	0.936	0.974	1.008	1.178	1.178	1.275	1.010	1.010	0.961	0.873	0.843	0.773	0.778	1.136
625.0	84.69	97.20	79.23	65.01	52.27	51.57	67.85	76.51	95.67	111.8	126.6	145.2	160.8	108.3	85.98	59.76	59.43	181.2	482.2	29.87	3.202	2.870	2.922	2.675	2.525	2.507	2.463	2.221	2.324	1.992	2.295	2.197	2.053	1.950	1.802	1.752	1.579	1.540	1.323	1.284	1.194	1.197	1.091	0.960	0.996	1.009	0.960	0.998	0.881	0.837	0.649	0.772	0.732	0.719	0.654	0.715	0.805	0.927	1.022	1.077	0.981	0.868	0.933	0.880	0.868	0.982	1.027	1.074	1.151	1.022	1.051	0.979	0.873	0.775	0.919	0.724	0.739
630.0	86.18	99.43	88.28	70.97	53.17	52.94	65.30	76.50	86.83	104.6	120.7	136.7	152.1	119.8	84.38	60.90	55.29	67.26	350.8	193.4	6.006	2.540	2.484	2.294	2.141	2.114	2.163	1.903	2.037	1.874	1.902	1.791	1.624	1.594	1.553	1.425	1.362	1.326	1.230	1.092	1.093	1.005	1.020	0.811	0.928	0.905	0.852	0.904	0.756	0.713	0.681	0.684	0.629	0.668	0.660	0.686	0.711	0.771	0.817	0.870	0.997	0.802	0.892	0.905	0.868	1.008	1.001	0.967	1.004	1.095	1.048	0.956	0.925	0.769	0.708	0.708	0.689
635.0	81.45	104.5	93.30	72.52	59.28	53.68	66.82	75.98	88.41	105.4	118.0	135.8	135.9	130.4	90.18	60.93	55.81	38.10	110.9	387.9	46.14	2.501	2.105	1.754	1.918	1.852	1.830	1.682	1.787	1.469	1.562	1.533	1.483	1.279	1.271	1.204	1.283	1.086	1.034	0.985	1.000	0.856	0.881	0.846	0.807	0.877	0.719	0.771	0.699	0.527	0.587	0.613	0.615	0.702	0.599	0.565	0.689	0.598	0.714	0.666	1.072	0.893	0.835	0.924	0.850	0.997	0.965	0.981	1.071	1.004	1.055	0.956	0.915	0.771	0.635	0.777	0.598
640.0	86.63	106.4	96.50	66.99	60.99	49.13	67.21	73.52	83.51	98.71	118.7	131.4	128.2	131.5	95.47	62.67	55.05	32.38	34.52	307.3	187.7	3.452	2.160	1.810	1.722	1.690	1.584	1.326	1.513	1.371	1.421	1.387	1.258	1.309	1.146	0.966	1.134	0.998	0.838	0.858	0.838	0.874	0.806	0.774	0.797	0.826	0.716	0.801	0.717	0.586	0.556	0.658	0.551	0.631	0.641	0.601	0.743	0.801	0.613	0.633	0.897	0.864	0.748	0.812	0.849	1.015	0.811	0.943	0.960	0.897	0.987	1.066	0.908	0.912	0.676	0.732	0.599
645.0	93.12	112.4	92.59	71.99	58.33	53.97	63.95	70.89	78.31	96.02	114.0	123.1	125.6	121.5	101.5	62.89	53.80	31.85	15.74	140.7	332.0	15.35	1.807	1.756	1.634	1.383	1.465	1.447	1.574	1.213	1.318	1.147	1.165	1.078	1.045	0.875	1.008	0.905	0.816	0.717	0.750	0.751	0.775	0.726	0.719	0.779	0.669	0.678	0.588	0.558	0.556	0.592	0.508	0.668	0.544	0.568	0.645	0.671	0.563	0.688	0.742	0.847	0.808	0.816	0.808	0.911	0.835	0.985	0.895	0.929	0.989	0.934	0.964	0.863	0.648	0.674	0.564
650.0	82.14	104.6	99.59	73.24	54.05	53.45	57.20	68.74	75.04	88.89	108.0	118.8	115.4	106.7	101.9	62.27	52.67	29.52	11.88	43.78	338.4	59.92	2.049	1.593	1.563	1.474	1.216	1.489	1.290	1.237	1.160	1.121	1.014	0.999	0.953	0.780	0.866	0.710	0.772	0.679	0.709	0.681	0.692	0.598	0.681	0.612	0.619	0.619	0.557	0.470	0.512	0.600	0.459	0.509	0.519	0.572	0.614	0.665	0.613	0.756	0.619	0.739	0.760	0.837	0.826	0.768	0.799	0.919	0.821	0.932	0.743	0.796	0.938	1.003	0.856	0.693	0.683
