Sample:	'1
File name:	L2025080904¶«ÈýÂ·ÇÅ.FD3
Run date:	'12:57:46, 08/10/2025
Operator:	Administrator
Comment:	'

Instrument
Model:	F-2700 FL Spectrophotometer
Serial number:	3064-004
ROM Version:	4J14000 07

Instrument parameters
Measurement type:	3-D scan
Data mode:	Fluorescence
EX  Start WL:	220.0 nm
EX  End WL:	600.0 nm
EX Sampling interval:	5.0 nm
EM  Start WL:	230.0 nm
EM  End WL:	650.0 nm
EM Sampling interval:	5.0 nm
Scan speed:	12000 nm/min
EX Slit:	5.0 nm
EM Slit:	5.0 nm
PMT Voltage:	700 V
Response:	Auto 
Corrected spectra:	Off
Contour interval:	50.000

Peak integration
Integration method:	Rectangular
Sensitivity:	1
Threshold:	1.000

Peaks
No.	ApexEX/EM(nm)	Height(Data)
1	230.0/340.0	 1339
2	230.0/570.0	67.08
3	230.0/625.0	46.03
4	235.0/350.0	 1390
5	235.0/585.0	58.39
6	235.0/620.0	43.91
7	245.0/265.0	324.4
8	245.0/530.0	270.2
9	250.0/540.0	248.5
10	255.0/280.0	698.9
11	255.0/555.0	223.8
12	260.0/285.0	 1014
13	260.0/565.0	209.1
14	265.0/290.0	 1231
15	265.0/580.0	201.9
16	270.0/295.0	 1782
17	270.0/590.0	192.8
18	275.0/305.0	 2302
19	275.0/380.0	 2062
20	275.0/605.0	193.4
21	280.0/310.0	 2235
22	280.0/375.0	 2064
23	280.0/615.0	161.3
24	285.0/315.0	 2048
25	285.0/355.0	 2041
26	285.0/630.0	120.9
27	290.0/645.0	95.11
28	320.0/360.0	 1158
29	455.0/345.0	5.847
30	460.0/335.0	5.729
31	505.0/275.0	3.506
32	520.0/285.0	4.549
33	530.0/290.0	5.504
34	540.0/295.0	8.481
35	545.0/300.0	9.251
36	555.0/305.0	10.55
37	560.0/310.0	9.674
38	565.0/340.0	9.418
39	565.0/360.0	9.343
40	570.0/315.0	9.414
41	570.0/355.0	9.716
42	575.0/320.0	9.054
43	575.0/375.0	9.288
44	580.0/325.0	8.754
45	580.0/385.0	9.182

Data points
	220.0	225.0	230.0	235.0	240.0	245.0	250.0	255.0	260.0	265.0	270.0	275.0	280.0	285.0	290.0	295.0	300.0	305.0	310.0	315.0	320.0	325.0	330.0	335.0	340.0	345.0	350.0	355.0	360.0	365.0	370.0	375.0	380.0	385.0	390.0	395.0	400.0	405.0	410.0	415.0	420.0	425.0	430.0	435.0	440.0	445.0	450.0	455.0	460.0	465.0	470.0	475.0	480.0	485.0	490.0	495.0	500.0	505.0	510.0	515.0	520.0	525.0	530.0	535.0	540.0	545.0	550.0	555.0	560.0	565.0	570.0	575.0	580.0	585.0	590.0	595.0	600.0
230.0	9.852	485.2	 3568	 2427	134.8	5.763	5.852	4.545	3.872	5.589	4.807	6.350	5.283	4.970	4.017	3.968	3.725	3.411	3.260	3.526	2.827	2.643	2.270	2.502	2.179	2.180	1.966	1.660	1.706	1.416	1.598	1.410	1.270	1.396	1.228	1.106	1.000	0.939	0.729	0.844	0.864	0.812	0.751	0.654	0.572	0.573	1.627	7.438	13.66	11.42	4.725	1.007	0.405	0.289	0.232	0.286	0.238	0.145	0.217	0.146	0.181	0.116	0.103	0.072	0.041	0.004	0.017	0.048	0.025	0.018	-0.023	-0.016	-0.073	-0.038	-0.112	-0.077	-0.104
235.0	32.27	127.7	 1430	 4341	 2733	220.0	7.361	6.860	3.944	4.136	5.546	5.740	5.859	4.943	3.764	3.612	4.364	3.645	3.658	3.006	3.308	3.066	2.808	2.293	2.234	2.565	2.269	1.553	1.620	1.441	1.851	1.475	1.281	1.174	1.275	1.233	1.159	0.759	1.080	0.777	0.799	0.721	0.716	0.703	0.749	0.525	0.801	2.153	4.753	9.179	13.64	15.60	6.957	1.651	0.439	0.281	0.228	0.289	0.194	0.134	0.061	0.244	0.151	0.096	0.071	0.111	-0.019	-0.068	0.010	-0.058	-0.041	-0.034	-0.010	-0.043	-0.083	-0.011	-0.032
240.0	41.44	69.52	357.2	 2270	 5531	 1002	122.3	8.390	5.566	6.385	5.180	5.980	6.355	5.658	4.531	3.539	4.158	3.824	3.196	3.994	3.666	3.152	3.195	2.419	2.614	2.236	2.337	1.800	1.580	1.685	1.988	1.713	1.251	1.055	1.106	1.242	0.849	0.987	1.003	1.095	0.820	0.744	0.588	0.628	0.783	0.678	0.597	0.807	1.567	2.644	6.939	16.68	21.37	16.67	5.738	0.788	0.264	0.345	0.242	0.147	0.242	0.181	0.100	0.152	0.003	0.070	0.072	-0.026	-0.014	-0.068	0.002	-0.103	-0.039	-0.060	0.021	-0.023	-0.103
245.0	25.83	79.87	128.0	587.8	 3569	 6509	841.9	56.38	10.54	8.220	7.946	6.208	7.120	5.788	4.185	4.359	4.490	3.523	3.158	3.972	3.740	2.761	2.810	2.602	2.560	2.253	2.403	1.893	2.114	1.703	2.078	1.568	1.334	1.223	1.167	1.187	0.885	0.957	0.982	1.015	1.127	0.681	0.494	0.457	0.653	0.880	0.819	0.952	0.798	1.006	1.953	5.434	13.60	24.78	26.31	14.85	4.227	0.314	0.198	0.331	0.193	0.174	0.137	0.181	0.094	0.128	0.150	-0.023	-0.061	0.044	0.109	-0.012	-0.110	-0.113	-0.121	-0.052	0.005
250.0	10.01	47.61	132.1	220.5	920.6	 3722	 6528	 3133	260.4	15.90	12.85	9.697	10.40	7.744	5.784	5.230	4.682	4.690	3.275	4.052	3.706	3.493	3.111	2.769	2.868	2.163	2.239	2.340	2.094	1.968	1.469	1.671	1.364	1.257	1.300	1.211	0.930	0.983	0.930	0.932	0.831	0.855	0.703	0.595	0.797	0.641	0.717	0.985	1.026	0.918	0.924	1.581	3.470	7.749	14.10	23.25	29.74	26.41	15.33	4.568	0.473	0.176	0.250	0.252	0.170	0.072	0.126	0.062	0.278	0.001	0.012	-0.063	-0.065	0.016	0.009	-0.064	0.038
255.0	2.821	13.97	61.14	225.9	329.3	868.3	 2725	9999.9	 4878	358.5	17.36	17.40	12.65	9.608	6.742	7.250	4.911	5.879	4.051	4.347	3.845	4.052	3.077	2.708	3.446	2.545	2.865	2.566	1.784	2.288	1.701	1.762	1.366	1.375	1.438	1.318	1.022	0.935	0.948	0.999	0.828	1.017	0.798	0.753	0.725	0.637	0.523	0.698	0.826	1.123	1.136	1.502	1.346	1.924	3.547	5.712	10.52	24.78	47.02	45.91	26.32	4.980	0.459	0.226	0.026	0.113	0.274	0.181	0.195	0.087	0.168	0.018	-0.098	0.138	0.065	-0.043	-0.122
260.0	5.225	11.25	24.86	139.1	324.0	278.2	673.5	 4808	9999.9	 4231	237.6	20.05	14.65	9.683	9.143	7.206	6.598	4.720	5.252	4.701	4.031	4.332	3.397	2.761	3.291	2.696	2.661	2.466	2.278	2.224	2.051	1.594	1.615	1.693	1.516	1.239	1.132	1.018	0.975	0.921	0.950	0.792	0.957	0.813	0.677	0.527	0.628	0.663	0.549	0.835	0.857	1.476	1.489	1.275	1.371	1.685	2.727	6.583	19.20	44.82	67.71	44.06	20.56	2.365	0.337	0.257	0.240	0.263	0.235	0.051	0.334	0.038	-0.085	-0.006	-0.038	0.030	-0.159
265.0	12.67	8.075	12.80	54.29	247.9	324.4	205.3	 1222	 7030	9999.9	 3502	141.1	20.11	11.70	10.83	8.043	7.254	6.489	6.314	5.030	4.741	4.268	3.447	3.382	3.633	3.437	2.910	2.456	2.568	2.425	2.478	2.190	1.571	1.523	1.252	1.346	1.201	1.001	1.161	0.930	0.962	0.749	0.924	0.818	0.788	0.604	0.687	0.609	0.571	0.686	0.531	0.929	1.378	1.739	1.473	1.128	0.895	1.867	4.748	12.81	33.71	66.22	84.83	41.53	11.75	0.718	0.129	0.317	0.130	0.132	0.215	0.221	0.061	-0.074	0.086	0.046	-0.144
270.0	59.69	40.34	34.93	35.80	98.03	295.9	381.4	400.5	 1830	 6801	9999.9	9999.9	211.7	24.94	16.36	11.88	9.144	7.672	6.095	5.069	5.055	4.089	3.873	3.248	3.697	3.290	2.874	2.538	2.654	2.441	2.465	2.487	1.964	1.631	1.657	1.307	1.249	1.205	1.246	1.017	1.024	1.161	1.104	1.129	1.179	0.908	0.762	0.939	0.693	0.712	0.500	0.526	0.754	1.031	1.447	2.000	1.959	1.408	1.711	3.454	8.363	18.96	38.68	60.38	61.70	72.81	26.78	11.34	0.874	0.225	0.239	0.244	0.197	0.046	0.066	0.062	0.035
275.0	145.2	128.2	103.4	75.94	59.04	122.5	372.1	606.5	606.3	 1725	 4270	9999.9	9999.9	274.8	26.89	18.51	12.35	9.925	7.516	5.845	6.080	5.330	5.063	3.858	3.784	3.022	3.540	2.660	3.019	2.748	2.417	1.990	2.286	1.658	1.612	1.606	1.479	1.530	1.517	1.261	1.180	1.730	1.780	1.500	1.454	1.479	1.236	1.359	1.114	0.955	0.722	0.597	0.638	0.669	0.708	1.131	2.339	3.506	2.709	1.951	2.471	5.064	9.698	14.70	20.63	53.58	111.5	130.2	41.12	10.37	0.463	0.420	0.352	0.186	0.120	0.037	0.091
280.0	247.7	238.2	192.1	123.7	81.19	87.00	216.3	698.9	641.4	683.4	 1308	 5959	9999.9	9999.9	181.1	28.18	14.88	11.70	9.862	8.386	6.955	6.337	5.219	4.127	4.506	3.864	4.006	3.138	3.057	2.638	2.784	2.211	1.825	2.237	2.194	1.688	1.798	1.990	1.880	1.551	1.857	1.971	2.112	2.247	2.427	2.063	1.671	1.363	1.537	1.209	0.792	0.794	0.822	0.635	0.759	0.972	1.359	2.394	3.598	3.813	2.767	2.485	3.427	4.539	6.152	13.92	39.97	99.32	152.4	56.16	29.37	3.245	0.525	0.471	0.208	0.160	0.095
285.0	303.5	355.8	301.0	210.2	124.8	103.0	168.4	479.5	 1014	648.7	736.5	 1826	 8942	9999.9	 2183	118.7	21.75	17.30	12.51	8.439	7.099	6.835	5.696	5.211	4.896	3.963	4.416	3.615	3.129	3.372	3.191	2.428	2.113	2.285	2.107	2.260	2.392	2.102	1.890	1.876	1.890	2.130	2.484	2.290	2.272	2.338	2.270	2.085	1.840	1.731	1.245	1.087	0.918	0.700	0.952	0.927	1.109	1.623	2.308	4.100	4.549	3.657	2.762	2.595	3.413	5.134	10.69	26.81	66.72	128.5	171.0	49.30	15.76	0.901	0.252	0.194	0.289
290.0	374.3	488.2	491.9	367.5	220.7	173.7	201.0	364.7	765.0	 1231	 1056	 1084	 2691	 8287	9999.9	9999.9	623.6	28.34	18.28	12.51	9.464	8.244	6.352	6.115	4.875	4.543	4.077	3.885	3.511	3.334	3.143	2.671	2.414	2.421	2.151	2.185	2.497	2.714	2.611	2.496	2.633	2.543	2.783	2.583	2.710	2.745	2.777	2.765	2.499	2.054	1.718	1.596	1.289	1.088	1.003	1.079	1.226	1.609	1.877	2.705	3.609	4.923	5.504	4.878	3.963	4.218	5.388	8.601	17.26	34.54	71.32	103.0	138.3	115.4	30.26	13.07	1.244
295.0	450.8	559.8	656.4	530.0	316.9	231.4	271.6	416.4	630.5	 1089	 1782	 1394	 1441	 2400	 3945	9999.9	9999.9	170.2	27.92	17.02	12.31	9.327	8.123	7.852	6.306	4.418	5.015	4.865	3.838	4.149	3.383	3.144	2.577	2.788	2.328	2.670	2.982	3.064	2.958	2.590	2.843	2.436	2.814	3.001	3.001	3.431	3.142	3.301	3.027	2.718	2.443	1.806	1.743	1.426	1.532	1.322	1.674	1.771	2.141	2.559	3.410	4.064	4.538	7.120	8.481	6.162	5.144	5.718	7.339	10.43	18.48	25.12	38.55	81.32	174.5	203.6	47.64
300.0	481.6	618.5	714.5	597.6	386.5	296.0	345.4	472.5	659.5	 1009	 1741	 2071	 1389	 1240	 1299	 5382	9999.9	9999.9	129.6	24.79	17.17	11.44	9.591	7.701	7.379	6.283	5.393	4.874	3.915	4.160	3.607	3.457	2.481	3.261	2.584	2.817	3.222	3.517	2.994	2.810	3.091	2.505	2.826	3.013	3.581	3.669	3.383	3.289	3.145	3.005	2.530	2.208	1.753	1.802	1.506	1.624	2.030	2.036	2.359	2.751	3.114	3.742	4.764	5.314	7.916	9.251	7.918	6.443	6.404	6.101	7.031	8.106	10.34	20.67	57.83	149.5	223.2
305.0	432.4	640.2	734.3	630.4	435.9	339.8	395.3	517.4	727.6	 1060	 1519	 2302	 1853	 1146	802.6	 1537	 8569	9999.9	 7519	90.99	23.95	15.07	11.76	9.837	7.582	6.616	5.900	5.414	4.501	4.069	3.828	3.606	2.553	3.012	2.453	2.469	3.252	3.530	2.922	2.847	2.912	2.605	3.224	3.002	3.528	3.570	3.558	3.529	3.794	3.352	2.647	2.218	2.134	1.946	1.787	2.296	2.320	2.418	2.679	2.742	3.398	4.254	4.421	5.257	6.652	8.096	10.17	10.55	7.329	5.915	5.030	5.104	4.343	6.227	14.29	38.31	95.33
310.0	420.6	638.0	742.3	628.7	479.7	396.9	451.8	573.8	780.7	 1090	 1467	 1921	 2235	 1653	885.8	731.7	 2233	 8267	9999.9	9999.9	476.4	25.93	16.50	12.38	9.473	7.778	6.475	5.877	5.604	5.227	4.380	3.686	2.933	2.685	2.570	2.572	3.238	3.241	2.771	3.157	2.940	2.875	2.887	3.353	3.210	3.216	3.802	3.656	3.526	3.320	2.592	2.606	2.299	2.227	2.119	2.224	2.373	2.470	3.025	2.932	3.653	3.889	4.624	5.392	6.183	7.068	8.228	9.572	9.674	9.254	6.662	4.773	4.007	3.716	4.852	10.20	23.10
315.0	431.1	615.2	772.7	665.1	515.1	428.8	499.8	627.2	844.1	 1118	 1457	 1751	 1928	 2048	 1326	690.8	823.8	 2064	 3883	9999.9	9999.9	125.4	27.37	18.87	13.16	10.34	7.669	6.932	6.474	5.601	4.636	3.941	3.609	3.490	2.645	2.649	3.283	3.564	2.980	3.030	3.223	2.854	2.712	2.914	3.110	3.371	3.856	4.031	3.509	3.180	2.783	3.038	2.341	2.564	1.938	2.695	2.370	2.834	3.126	3.169	3.746	4.488	5.057	5.439	5.873	6.243	7.705	7.867	8.006	8.502	9.414	8.088	5.253	3.919	3.492	4.322	7.086
320.0	451.7	714.6	896.8	742.5	548.3	465.3	530.1	688.1	882.2	 1153	 1501	 1759	 1864	 1920	 1807	907.7	597.3	736.6	 1072	 5774	9999.9	 7666	100.5	27.08	16.53	12.82	9.582	7.232	6.812	6.054	4.944	4.211	3.788	3.224	2.862	2.867	3.050	3.400	2.709	3.072	3.204	3.211	2.688	3.150	3.306	3.834	3.855	3.886	3.835	3.429	3.162	2.998	2.407	2.544	2.196	2.809	2.876	2.807	3.370	3.567	3.539	4.889	5.217	5.501	6.613	6.306	7.971	7.882	7.625	7.484	8.689	9.054	8.421	5.747	3.924	3.637	4.152
325.0	470.8	819.6	 1075	895.3	663.4	514.9	572.3	722.3	928.5	 1185	 1548	 1826	 1902	 1825	 1814	 1362	676.4	517.3	482.5	 1520	 9632	9999.9	 6135	74.13	23.07	16.51	11.63	9.321	7.809	7.182	5.033	5.007	4.244	3.569	3.276	3.452	3.366	3.004	2.777	2.967	3.326	2.759	2.756	3.611	3.623	3.801	4.425	4.576	4.345	3.602	3.696	3.273	2.800	2.824	2.329	2.792	2.901	3.130	3.389	3.829	4.131	5.082	4.907	5.859	6.359	6.752	8.235	7.749	8.084	8.372	8.060	8.220	8.754	8.448	6.993	4.057	3.517
330.0	493.7	874.4	 1200	 1085	780.7	597.6	620.9	753.1	948.4	 1222	 1565	 1836	 1957	 1863	 1644	 1478	 1096	619.1	435.2	576.8	 2432	 8810	9999.9	9999.9	391.9	25.29	16.37	11.98	9.521	7.874	6.100	5.537	4.575	3.922	3.577	3.374	3.323	2.977	3.149	2.866	3.063	2.784	3.235	3.759	3.635	3.891	4.527	4.967	5.246	4.410	4.007	3.943	3.592	2.729	2.798	3.156	3.020	3.121	3.188	3.909	4.206	5.241	5.708	6.181	6.548	7.002	7.809	8.218	8.405	8.266	8.470	7.442	7.673	7.646	8.287	6.567	5.740
335.0	494.3	875.3	 1299	 1247	929.0	737.3	703.2	818.7	995.9	 1264	 1578	 1851	 1970	 1926	 1672	 1349	 1265	979.4	548.4	446.0	792.0	 2157	 4329	9999.9	9999.9	101.9	25.89	17.14	12.18	9.285	7.926	6.493	5.198	4.309	3.364	3.546	3.452	2.612	3.215	3.083	3.073	3.018	2.868	3.456	3.887	4.297	4.453	5.207	5.729	4.690	4.139	4.415	3.803	3.372	2.888	3.251	3.349	3.735	3.526	4.185	4.242	4.912	5.506	6.199	6.477	7.713	7.930	8.129	8.208	9.298	8.629	7.634	8.048	7.313	6.573	6.571	7.692
340.0	521.0	942.5	 1339	 1317	 1067	866.7	796.8	870.5	 1077	 1314	 1622	 1847	 1984	 1978	 1725	 1355	 1172	 1199	782.9	497.4	486.3	726.3	 1173	 6987	9999.9	 6226	83.28	24.82	16.44	11.41	9.207	7.125	6.100	5.184	3.821	4.156	3.260	3.418	3.785	3.165	2.908	3.353	3.728	3.539	4.109	4.634	4.638	5.555	5.505	5.434	4.595	5.010	4.195	3.967	3.749	3.356	3.854	3.795	3.737	4.128	4.942	5.670	5.435	6.029	6.927	7.414	8.619	7.717	8.444	9.418	8.786	8.118	8.203	7.312	6.167	5.933	6.431
345.0	523.4	899.6	 1338	 1379	 1155	967.8	913.3	962.9	 1143	 1371	 1626	 1855	 1988	 1984	 1771	 1425	 1155	 1118	 1068	638.1	496.7	470.0	499.6	 1831	9999.9	9999.9	 5158	65.55	23.23	15.55	11.84	8.284	7.140	5.320	5.036	4.133	3.742	3.494	3.331	2.818	2.869	3.448	3.331	3.416	3.999	4.390	4.642	5.847	5.514	4.988	4.737	5.722	4.787	4.518	3.997	4.119	4.002	3.929	4.134	4.749	5.087	5.513	5.813	6.125	6.637	6.964	7.863	8.016	8.563	8.892	8.868	8.244	8.259	8.143	7.436	6.587	6.301
350.0	481.4	838.1	 1262	 1390	 1276	 1130	 1095	 1143	 1283	 1467	 1673	 1876	 1993	 2007	 1817	 1501	 1234	 1072	 1080	981.8	673.6	524.5	451.6	670.3	 2590	9999.9	9999.9	9999.9	339.2	24.24	15.25	11.22	8.400	6.237	5.491	4.610	4.142	3.842	3.644	3.157	3.186	3.414	3.413	3.300	3.775	4.446	4.468	5.574	5.344	5.173	5.072	5.517	5.260	4.926	4.797	4.365	4.804	4.655	4.920	5.194	5.389	5.678	6.276	6.694	6.839	7.186	7.928	8.163	9.012	8.225	8.721	8.716	8.717	8.080	7.204	7.388	6.522
355.0	461.5	783.7	 1207	 1369	 1361	 1316	 1325	 1331	 1456	 1649	 1794	 1932	 2038	 2041	 1874	 1584	 1333	 1160	 1056	 1074	 1017	689.5	539.9	512.1	846.2	 2432	 5186	9999.9	9999.9	92.34	23.95	14.84	11.18	7.793	5.859	4.992	4.334	3.811	4.182	3.313	2.910	3.911	3.469	2.959	3.625	4.711	4.261	5.215	5.092	4.938	5.024	5.499	4.954	5.806	5.501	5.300	5.445	5.650	5.346	5.863	6.289	6.586	7.027	7.007	6.647	7.585	7.570	8.198	9.262	9.008	9.716	8.304	8.760	8.633	7.776	7.696	7.125
360.0	460.9	740.0	 1143	 1335	 1439	 1424	 1421	 1442	 1570	 1722	 1878	 1985	 2041	 2030	 1902	 1660	 1410	 1241	 1110	 1057	 1158	929.7	650.2	539.5	524.5	780.8	 1366	 8431	9999.9	 5594	72.44	20.49	14.09	10.15	6.768	5.072	5.141	4.118	4.068	3.736	3.262	3.746	3.210	3.114	3.771	4.014	4.345	5.259	5.196	5.223	5.188	5.548	5.768	5.232	5.826	5.889	5.495	6.106	5.981	6.193	6.496	7.112	7.116	7.520	6.942	7.583	8.180	8.499	8.563	9.343	9.070	8.472	8.706	8.620	7.989	7.609	8.321
365.0	409.3	704.8	 1058	 1344	 1489	 1487	 1522	 1538	 1654	 1805	 1933	 1999	 2053	 2023	 1898	 1690	 1473	 1318	 1183	 1101	 1123	 1139	813.2	626.1	509.8	470.4	512.0	 2191	9999.9	9999.9	 4518	53.00	17.78	11.58	8.618	6.931	5.789	4.318	4.227	4.142	3.641	3.548	3.229	3.175	3.660	4.213	4.420	5.052	5.204	5.185	4.770	5.794	6.149	5.560	6.207	5.496	5.936	6.498	6.551	6.753	7.142	7.331	7.499	7.766	7.752	7.614	8.426	8.368	8.649	9.079	8.687	8.750	8.305	8.780	7.635	7.633	7.950
370.0	399.7	674.4	 1040	 1326	 1525	 1537	 1574	 1663	 1761	 1903	 1972	 2037	 2052	 2027	 1896	 1710	 1519	 1397	 1277	 1189	 1132	 1151	 1086	816.9	622.1	492.7	399.1	693.7	 2653	9999.9	9999.9	9999.9	267.5	19.12	12.21	8.719	6.554	5.610	4.961	4.364	3.853	3.787	3.480	3.747	3.999	4.137	4.122	4.824	4.894	5.196	4.963	5.995	6.177	6.171	6.122	6.351	6.760	6.673	6.686	7.087	7.618	7.472	7.751	7.754	8.068	8.324	8.164	8.559	9.182	8.816	8.714	8.925	8.776	8.831	8.612	8.269	8.206
375.0	383.2	652.9	986.4	 1312	 1505	 1615	 1656	 1717	 1819	 1946	 2029	 2057	 2064	 1999	 1893	 1723	 1577	 1466	 1367	 1293	 1223	 1163	 1160	 1115	813.3	622.4	481.6	440.7	788.2	 2383	 6304	9999.9	9999.9	70.51	18.98	12.68	9.074	6.996	6.197	4.928	3.853	4.010	3.807	3.673	3.867	3.986	4.390	4.915	4.510	4.864	4.854	5.923	6.409	6.707	6.598	6.060	6.957	6.594	7.189	7.202	7.519	7.719	8.186	7.856	8.077	8.406	8.603	8.529	8.890	9.167	8.789	9.288	8.806	8.621	8.509	8.469	8.244
380.0	374.3	629.6	987.5	 1238	 1467	 1605	 1696	 1741	 1794	 1967	 2035	 2062	 2049	 1984	 1859	 1710	 1587	 1491	 1413	 1355	 1294	 1216	 1163	 1193	 1025	742.9	569.4	444.7	417.7	705.8	 1606	 9837	9999.9	 4403	53.54	17.05	10.61	8.530	6.635	5.551	4.629	3.964	3.698	3.639	3.950	4.078	4.499	4.802	4.460	4.815	5.056	5.712	6.371	7.037	6.769	6.698	7.292	7.032	7.135	6.867	7.413	7.542	7.585	7.855	8.040	8.701	8.209	8.639	8.268	8.682	8.323	9.127	8.414	8.459	8.365	8.641	9.298
385.0	376.2	636.7	927.4	 1226	 1447	 1614	 1688	 1750	 1809	 1915	 1995	 2035	 2002	 1949	 1835	 1698	 1586	 1519	 1438	 1398	 1332	 1261	 1196	 1174	 1156	893.8	659.8	507.0	391.7	371.2	510.6	 2548	9999.9	9999.9	 3356	38.62	14.69	10.66	7.415	6.283	5.129	4.419	4.123	4.119	4.141	4.478	4.054	4.403	4.409	4.718	4.784	6.100	6.646	6.660	6.692	6.978	7.330	7.300	6.879	6.841	7.150	7.547	7.684	7.429	7.900	8.173	7.985	8.264	7.991	8.180	8.335	8.736	9.182	8.453	8.051	9.289	8.995
390.0	357.0	606.7	906.7	 1184	 1436	 1602	 1678	 1731	 1769	 1897	 1936	 1967	 1941	 1896	 1777	 1660	 1571	 1518	 1456	 1415	 1361	 1321	 1236	 1172	 1143	 1064	811.5	595.8	459.1	362.0	313.9	713.2	 2720	9999.9	9999.9	 9423	45.23	16.12	10.27	7.374	5.838	5.140	5.015	4.222	4.260	4.455	3.981	4.673	4.597	4.518	4.462	5.842	6.001	6.229	6.604	7.078	6.848	7.001	7.055	7.384	7.306	7.315	7.595	7.758	8.056	7.985	8.004	8.034	8.392	7.906	7.844	7.939	8.153	8.901	8.520	8.590	8.517
395.0	350.7	558.4	864.3	 1131	 1426	 1559	 1604	 1700	 1759	 1854	 1880	 1872	 1890	 1810	 1738	 1606	 1539	 1476	 1452	 1424	 1382	 1335	 1275	 1210	 1130	 1077	 1011	735.6	547.1	431.2	333.2	352.1	739.3	 2343	 6051	9999.9	9999.9	57.74	16.29	10.74	7.660	6.043	4.821	4.646	4.391	4.147	4.319	4.267	4.454	4.474	4.320	5.631	6.171	6.085	6.907	6.477	6.868	6.624	6.724	6.977	6.692	7.536	7.519	7.982	8.006	7.807	7.674	7.152	8.079	8.393	8.828	7.351	8.086	8.695	8.176	8.541	8.355
400.0	356.3	558.6	840.9	 1146	 1337	 1513	 1587	 1691	 1747	 1792	 1850	 1833	 1851	 1751	 1676	 1580	 1477	 1464	 1436	 1408	 1374	 1347	 1298	 1235	 1153	 1066	 1049	885.9	640.2	497.5	386.6	309.8	326.5	638.3	 1516	 9031	9999.9	 3603	43.12	13.64	9.635	7.782	5.213	4.625	4.772	4.756	4.134	4.549	4.742	4.361	4.556	5.612	5.727	5.775	6.492	6.443	6.619	6.835	6.304	6.559	7.334	6.724	7.015	7.275	7.153	7.800	7.729	7.729	7.902	8.159	8.209	7.729	8.029	8.159	8.549	8.079	7.985
405.0	328.6	542.9	815.7	 1080	 1309	 1463	 1564	 1603	 1694	 1763	 1833	 1805	 1809	 1724	 1629	 1549	 1468	 1443	 1408	 1401	 1369	 1335	 1293	 1236	 1178	 1071	 1021	980.5	754.8	568.7	442.6	342.3	272.5	283.0	441.3	 2356	9999.9	9999.9	 2698	30.51	12.34	8.288	6.589	5.067	4.991	4.774	4.220	5.121	4.571	4.350	4.056	5.624	5.869	5.505	6.289	6.328	6.292	6.527	6.864	6.962	7.035	7.033	6.759	6.989	7.280	7.209	7.597	7.228	7.759	7.226	7.878	8.230	8.175	7.786	8.035	8.125	8.279
410.0	328.4	513.3	787.5	 1015	 1256	 1400	 1545	 1582	 1664	 1698	 1751	 1753	 1716	 1655	 1562	 1485	 1417	 1380	 1360	 1358	 1340	 1318	 1274	 1224	 1177	 1091	 1006	954.8	892.2	694.1	516.2	399.2	303.1	244.8	229.9	622.8	 2663	9999.9	9999.9	 6874	38.72	12.04	8.274	6.921	5.813	4.983	4.703	4.496	4.711	4.345	4.393	5.258	5.644	5.403	5.942	6.225	6.682	6.265	6.588	6.835	6.730	6.767	7.121	7.103	7.249	7.036	7.306	6.971	7.201	7.110	7.548	7.228	7.369	7.687	7.616	7.467	7.572
415.0	326.9	495.7	726.4	990.8	 1188	 1354	 1489	 1559	 1606	 1643	 1687	 1657	 1645	 1586	 1465	 1397	 1349	 1328	 1323	 1306	 1286	 1278	 1253	 1208	 1167	 1106	 1012	943.6	880.8	831.6	624.3	466.3	356.4	271.6	211.5	254.4	676.2	 2306	 5422	9999.9	 3637	51.08	12.83	8.549	6.719	5.777	4.589	4.933	4.592	4.157	4.602	4.945	5.544	5.410	5.661	6.125	6.393	6.233	6.467	7.061	7.241	6.563	6.233	6.615	6.845	6.448	6.700	6.982	6.611	7.084	6.896	6.247	7.051	7.064	7.533	7.525	7.074
420.0	298.3	486.8	715.0	933.3	 1151	 1288	 1451	 1504	 1603	 1612	 1619	 1625	 1601	 1508	 1414	 1358	 1288	 1279	 1273	 1249	 1249	 1240	 1223	 1189	 1154	 1099	 1022	938.4	869.6	852.9	721.1	518.2	388.2	301.1	224.0	186.9	247.2	583.8	 1331	 7572	9999.9	 3169	37.69	9.860	7.819	6.487	4.890	4.797	4.287	4.357	4.308	4.664	5.423	5.402	5.709	5.820	6.366	6.255	6.249	6.313	6.933	6.881	6.913	7.166	6.155	6.711	6.256	6.701	6.864	6.475	6.734	6.596	6.584	6.680	6.561	6.980	6.999
425.0	302.5	449.8	676.6	884.2	 1106	 1232	 1384	 1478	 1565	 1603	 1610	 1601	 1540	 1454	 1365	 1294	 1235	 1233	 1215	 1202	 1195	 1197	 1179	 1161	 1123	 1083	 1016	951.6	872.4	816.1	777.7	591.5	427.5	327.4	247.8	191.2	165.9	212.2	356.1	 1970	9999.9	9999.9	462.0	24.53	9.561	6.875	5.746	5.116	4.356	4.303	4.120	4.879	5.129	5.424	5.598	6.110	5.947	6.124	6.281	6.341	6.248	6.668	6.546	6.657	6.227	6.488	6.185	6.503	6.472	6.540	6.036	6.605	5.810	6.807	6.188	6.779	7.009
430.0	492.5	422.6	654.5	878.5	 1071	 1203	 1351	 1443	 1495	 1571	 1559	 1555	 1485	 1385	 1292	 1227	 1173	 1161	 1145	 1142	 1138	 1135	 1124	 1106	 1084	 1056	 1002	951.8	880.3	809.7	747.5	674.0	506.3	369.2	281.3	214.7	169.4	144.9	151.1	494.4	 2554	 8026	9999.9	 5354	35.08	10.83	7.218	6.197	4.911	4.451	4.252	5.126	5.157	5.659	5.193	5.630	5.702	6.037	5.720	6.098	6.214	6.709	7.007	6.746	6.233	6.646	6.520	6.414	6.399	6.724	6.217	6.342	5.980	6.101	6.356	6.395	6.701
435.0	977.7	479.2	641.2	817.8	 1014	 1108	 1268	 1384	 1444	 1515	 1530	 1499	 1429	 1322	 1213	 1155	 1116	 1086	 1071	 1087	 1067	 1079	 1069	 1058	 1046	 1019	985.5	943.8	880.6	814.1	729.3	668.2	589.8	433.0	313.9	244.8	186.9	149.3	123.5	176.9	618.1	 1840	 4592	9999.9	 3342	45.56	10.85	7.934	6.044	5.067	4.245	5.004	5.123	5.261	5.256	5.446	5.409	6.143	5.993	6.299	6.028	5.979	6.269	6.224	6.426	6.307	6.226	6.164	5.920	6.335	5.007	5.384	5.953	5.489	6.100	6.125	6.314
440.0	 1181	707.4	589.7	778.3	964.4	 1087	 1239	 1340	 1406	 1469	 1473	 1461	 1373	 1279	 1174	 1100	 1054	 1040	 1029	 1024	 1031	 1025	 1020	 1014	 1018	987.6	962.8	922.6	874.8	810.9	735.1	646.3	591.2	493.6	346.8	269.1	207.2	163.5	124.9	115.4	195.7	454.7	 1108	 6281	9999.9	 2900	33.70	10.16	7.134	5.510	4.674	4.891	5.035	5.130	4.929	5.398	5.885	5.732	5.661	6.091	6.252	5.930	6.452	5.665	5.763	6.011	6.283	6.046	5.899	5.976	5.505	5.726	5.601	5.158	5.726	5.259	5.489
445.0	979.5	 1296	589.3	747.0	933.3	 1021	 1189	 1305	 1377	 1400	 1456	 1426	 1334	 1230	 1131	 1046	 1003	988.3	987.2	975.6	971.4	984.9	986.3	968.7	978.8	953.1	936.0	903.9	865.6	806.6	733.6	641.9	560.8	518.2	390.0	286.1	224.4	172.5	137.4	111.1	108.7	151.3	286.2	 1589	 8393	9999.9	 2091	25.24	9.099	6.329	5.592	5.479	5.412	5.071	5.175	4.858	5.558	5.667	5.972	5.817	5.879	5.649	5.540	5.796	5.793	5.685	5.965	5.914	5.826	5.808	5.404	5.342	5.319	5.813	5.275	5.873	5.365
450.0	492.5	 1672	 1038	704.0	864.0	975.9	 1123	 1228	 1297	 1346	 1382	 1341	 1262	 1162	 1047	976.5	929.5	908.6	904.1	901.8	901.6	908.0	909.3	912.4	909.9	896.1	880.0	861.2	828.6	783.2	717.6	625.2	537.0	482.7	424.7	326.2	241.4	190.9	152.0	122.6	102.4	92.27	109.4	391.7	 2112	 7054	9999.9	 5037	30.38	9.257	6.652	5.890	5.342	4.876	5.071	5.133	5.091	5.507	5.514	5.573	5.662	6.073	5.798	6.029	5.505	5.482	5.936	5.578	5.619	5.269	4.962	5.156	4.612	5.329	5.019	5.363	5.540
455.0	271.5	 1089	 2115	757.9	810.3	898.6	 1030	 1129	 1218	 1282	 1308	 1250	 1163	 1072	975.0	895.8	857.3	821.1	821.4	820.0	827.3	823.1	818.8	839.0	837.3	825.8	811.6	804.4	774.3	744.8	679.7	608.2	522.2	450.6	398.5	361.5	275.1	206.2	165.3	136.4	108.9	88.20	77.50	127.7	502.6	 1608	 3956	9999.9	 2829	37.20	9.085	7.035	5.909	5.736	5.443	5.019	4.760	5.447	5.204	5.346	5.394	4.800	5.672	5.828	5.871	5.308	5.706	5.623	4.658	4.867	5.706	4.943	4.454	4.417	4.833	4.428	5.155
460.0	227.9	580.0	 2531	 1222	745.3	844.8	944.6	 1052	 1144	 1225	 1219	 1177	 1092	 1023	912.8	845.4	794.9	769.6	766.0	755.8	764.9	756.2	763.1	773.2	781.6	775.9	770.3	756.5	730.6	701.1	649.9	589.0	499.3	433.0	373.2	355.5	307.7	223.5	173.4	144.0	115.8	94.81	75.94	75.25	149.8	388.5	936.4	 5223	9999.9	 2353	28.84	8.869	6.696	5.791	5.503	4.978	4.867	5.297	5.332	4.759	4.953	5.254	5.427	5.420	4.909	5.136	5.230	5.422	5.022	4.594	4.975	4.827	4.032	4.577	4.410	4.692	5.373
465.0	199.5	348.5	 2007	 2314	707.7	829.6	888.2	995.5	 1114	 1136	 1138	 1130	 1023	944.1	852.7	784.5	741.3	721.3	706.4	699.2	702.9	702.0	712.3	718.7	721.8	722.0	717.0	709.6	690.3	669.3	623.1	568.8	486.6	417.8	358.8	326.7	310.0	246.2	180.4	150.3	123.9	99.58	79.48	66.11	72.83	118.9	236.5	 1285	 6800	9999.9	 1889	23.83	7.924	6.587	5.450	5.486	5.143	5.540	4.932	4.711	5.362	5.495	4.905	5.114	4.833	5.155	5.018	4.801	4.787	4.203	4.624	4.112	3.615	4.374	4.453	4.322	4.710
470.0	186.1	284.2	936.2	 2985	 1480	758.2	802.8	899.6	 1007	 1046	 1059	 1019	940.9	866.0	779.0	710.4	674.6	645.1	641.4	634.1	631.8	631.5	632.8	646.6	649.9	657.3	646.4	641.7	625.6	608.3	573.5	522.6	454.5	392.4	336.8	297.8	274.6	252.7	202.1	156.6	127.8	105.4	85.77	70.88	60.94	61.45	81.67	311.7	 1666	 5594	 8769	 3951	30.33	8.815	6.302	5.641	5.163	5.316	5.236	4.585	4.939	4.650	4.645	4.909	4.497	4.468	4.391	4.359	4.444	4.121	4.133	3.881	3.737	3.855	3.847	3.971	4.053
475.0	170.7	251.6	456.1	 1842	 3203	786.8	749.3	835.6	899.1	934.7	940.6	918.0	854.9	776.8	698.0	653.8	602.2	579.2	567.4	563.8	564.8	562.1	561.0	569.3	580.0	578.9	578.2	578.0	562.3	552.1	521.3	475.6	420.4	366.8	318.1	277.3	246.9	227.2	214.8	169.1	130.5	106.8	89.74	73.66	59.68	52.36	50.43	96.36	392.8	 1270	 2933	 8412	 2807	42.21	8.057	5.993	5.544	4.916	4.737	4.733	4.364	4.474	4.052	4.173	4.051	4.070	4.455	4.215	3.720	3.551	3.519	3.777	3.501	3.486	3.550	3.700	3.232
480.0	151.5	231.8	352.4	880.3	 3697	 1500	681.5	769.7	835.0	853.9	879.4	844.2	800.6	713.6	651.4	598.7	558.6	523.5	519.8	515.5	517.7	517.6	513.9	518.1	523.2	527.4	522.8	526.8	524.8	506.7	477.3	440.9	392.2	348.3	298.7	268.0	232.6	210.3	203.4	181.8	136.0	107.7	91.60	74.82	62.05	52.60	46.20	48.56	109.7	302.1	683.4	 3463	 8791	 2562	32.11	6.724	5.829	4.729	4.774	4.519	3.922	4.348	4.145	4.000	4.007	3.834	3.727	3.620	3.652	3.533	3.152	3.450	3.228	3.027	3.084	3.265	3.378
485.0	128.7	224.3	307.8	510.3	 2743	 2973	683.6	713.9	789.6	810.7	814.1	794.5	738.3	674.2	599.8	544.4	505.3	488.2	482.9	471.6	474.9	481.4	472.1	477.6	477.1	488.0	482.5	480.5	485.6	477.7	451.3	416.5	371.6	329.2	288.4	251.6	227.3	198.7	186.0	182.0	147.9	111.7	92.01	76.47	65.25	54.25	46.37	40.01	49.20	86.77	169.1	830.7	 4644	 8409	 1831	22.85	7.021	5.213	4.285	4.251	4.097	3.923	3.823	3.764	3.524	3.690	3.530	3.457	2.986	3.024	3.293	3.127	3.305	2.849	2.719	2.918	3.206
490.0	114.5	198.2	287.6	375.4	 1167	 3783	 1609	665.3	724.0	737.8	744.3	720.9	667.0	606.3	550.5	491.6	458.6	441.9	427.9	426.2	427.7	428.3	422.0	426.9	429.4	434.6	432.4	429.3	436.3	429.2	410.4	377.1	335.8	303.0	267.7	240.8	209.9	187.0	168.9	163.1	150.9	123.0	94.41	78.47	67.69	56.52	48.80	40.60	37.61	40.47	55.77	200.8	 1113	 3866	 6610	 3295	32.04	7.181	5.113	4.674	4.296	3.663	3.735	3.632	3.550	3.425	3.117	3.241	3.248	3.296	2.671	3.097	2.746	2.804	2.792	2.483	2.754
495.0	95.84	150.8	258.8	326.3	558.8	 2206	 3907	742.2	624.9	667.4	657.6	649.8	614.7	544.0	489.2	450.6	415.2	394.7	384.4	377.3	371.3	368.5	370.2	371.9	379.0	380.7	387.6	381.1	387.9	383.8	366.0	340.8	305.9	272.3	242.3	220.8	195.8	174.0	158.9	144.5	139.0	130.5	101.4	77.62	67.79	58.79	49.65	41.27	37.71	32.07	30.91	61.16	261.8	877.1	 2189	 6974	 2986	43.88	6.737	5.202	4.867	4.025	3.768	3.849	3.199	3.262	3.174	2.992	2.900	2.738	2.705	2.636	2.603	2.560	2.706	2.176	2.285
500.0	84.34	132.8	268.2	305.6	373.0	961.0	 4444	 1634	578.6	600.7	612.0	571.0	550.9	490.7	453.1	411.1	377.2	360.3	345.1	340.3	341.9	336.5	335.9	331.8	347.3	348.3	349.5	352.2	352.9	342.8	331.8	308.5	285.3	253.0	231.2	203.4	185.6	164.1	149.5	134.4	121.9	122.3	109.9	81.96	70.46	59.40	50.98	43.64	37.83	31.37	26.78	30.38	73.12	209.6	509.3	 2846	 7823	 2547	32.55	6.836	4.871	4.504	3.611	3.220	2.928	2.553	2.972	2.577	2.653	2.568	2.406	2.290	2.515	2.125	2.820	2.207	1.966
505.0	91.29	132.0	241.7	321.0	320.6	491.0	 3240	 3546	584.1	564.7	570.5	536.5	514.2	451.9	406.1	373.9	341.3	324.2	320.3	310.3	307.1	306.1	307.2	305.4	311.5	316.6	315.9	321.0	323.9	312.8	300.9	283.6	261.5	234.3	211.3	189.1	173.8	153.4	140.9	125.0	111.8	111.3	108.6	89.01	68.81	59.49	50.44	44.20	38.44	31.98	27.51	24.08	31.49	60.67	126.8	677.7	 4027	 7726	 1819	21.27	5.502	4.736	3.819	3.258	3.145	2.616	2.396	2.513	2.587	2.514	1.955	2.019	2.244	1.980	2.173	2.290	1.808
510.0	69.88	111.6	184.6	292.8	292.0	358.5	 1319	 4561	 1624	499.6	487.8	480.1	452.1	403.7	360.8	330.2	303.4	285.5	276.6	274.9	270.8	267.7	269.9	268.4	272.6	271.5	274.7	278.2	281.8	278.8	264.4	253.3	230.0	208.4	188.6	173.1	157.3	139.4	127.5	115.9	103.7	95.44	94.32	90.72	72.32	57.22	49.33	43.55	38.34	32.15	27.80	24.57	22.92	27.45	40.65	162.8	964.7	 3547	 5764	 1747	29.75	5.774	4.367	3.358	3.084	2.515	2.402	2.375	2.263	2.248	1.881	2.006	2.183	1.850	1.624	1.880	1.724
515.0	57.68	95.18	150.9	257.6	290.1	307.0	532.0	 2586	 4542	600.0	434.4	416.7	383.5	365.2	316.5	289.4	263.4	254.1	243.2	242.5	238.4	231.1	234.6	234.5	231.1	234.4	236.5	241.9	244.7	240.3	232.1	218.6	203.3	183.4	164.8	154.9	140.1	126.2	117.3	104.7	95.68	85.36	80.82	79.40	75.97	61.08	48.67	41.39	37.37	32.19	28.25	24.95	20.80	20.61	21.66	47.77	225.1	800.8	 1919	 5579	 2778	40.79	5.367	3.821	3.259	2.724	2.529	2.178	2.083	2.091	1.980	1.925	1.739	1.661	1.715	1.449	1.553
520.0	59.77	81.91	127.9	200.2	294.0	261.3	341.9	 1051	 5450	 1690	417.1	367.6	355.9	328.9	288.7	257.8	237.7	226.9	222.0	216.1	209.2	207.7	211.6	209.6	207.3	207.4	213.3	216.1	217.0	213.6	211.6	198.7	183.4	167.5	149.4	138.6	128.6	117.9	106.6	96.65	89.20	80.07	72.26	68.02	71.52	65.27	49.78	40.29	35.91	30.79	27.37	24.43	21.40	18.33	17.37	21.95	59.88	187.5	446.2	 2400	 6056	 2093	27.77	4.870	3.382	2.786	2.489	2.196	1.771	2.041	1.500	1.449	1.371	1.228	1.330	1.497	1.192
525.0	51.40	81.59	121.4	173.3	271.8	241.4	276.9	484.2	 3893	 3983	405.7	345.4	326.8	291.5	258.9	229.1	216.8	205.2	200.4	199.4	187.7	186.6	187.6	191.1	190.2	183.7	190.9	191.6	197.6	193.2	190.2	180.1	165.7	152.8	137.9	128.2	117.1	109.3	97.40	90.29	83.70	75.64	68.33	61.26	62.97	64.65	52.57	41.40	34.67	31.03	26.80	22.64	19.66	18.78	17.19	15.80	22.79	50.18	107.9	572.2	 3159	 5616	401.3	13.94	3.170	2.950	2.219	2.117	2.008	1.747	1.484	1.427	1.309	1.221	1.440	1.533	1.585
530.0	45.16	71.54	103.3	144.4	212.7	270.2	233.6	306.0	 1437	 5411	 1636	310.2	288.9	255.4	228.8	206.9	189.7	180.0	174.2	168.8	167.2	163.0	165.1	163.9	163.3	163.2	164.9	165.8	168.8	167.0	165.5	156.4	145.0	132.8	123.3	112.3	103.8	97.00	89.24	81.52	73.53	66.25	61.08	55.35	52.38	55.20	54.81	42.71	33.30	28.95	25.55	22.06	19.56	17.91	16.26	13.97	14.52	19.78	31.61	134.7	757.4	 2633	 3333	 1616	26.36	3.325	2.448	2.071	1.978	1.572	1.436	1.399	1.300	1.091	1.292	1.371	1.365
535.0	40.65	69.35	84.20	110.0	161.0	257.9	219.6	240.9	508.5	 2844	 5244	426.8	245.6	230.2	200.4	179.6	165.7	156.9	147.3	143.9	142.1	138.7	141.1	141.2	142.6	140.9	143.0	146.7	144.3	143.7	140.0	132.4	125.4	115.8	105.2	97.63	89.13	84.19	76.87	71.65	64.59	58.99	54.88	50.07	43.85	45.14	47.79	44.61	34.37	27.96	23.13	20.54	18.56	16.70	15.34	13.56	12.24	13.35	14.77	35.98	174.4	593.8	 1246	 4092	 2203	34.39	2.998	1.994	2.020	1.867	1.511	1.298	1.118	1.036	1.125	1.060	1.005
540.0	33.55	53.97	72.49	105.0	132.0	217.6	248.5	213.3	287.5	 1033	 6282	 1588	222.2	196.9	178.3	161.0	145.8	137.9	132.0	125.6	125.7	129.6	123.4	122.7	123.6	122.9	124.5	127.3	127.3	127.4	122.9	116.7	110.7	100.3	93.03	85.52	79.61	74.06	70.80	63.86	58.43	53.25	49.21	46.42	40.80	39.13	39.34	42.45	36.28	27.30	22.43	19.24	17.05	15.20	14.45	12.62	11.82	11.26	10.01	14.51	44.48	137.4	290.6	 1802	 4292	421.8	21.21	2.674	1.942	1.289	1.442	1.437	1.043	1.091	1.281	1.101	0.782
545.0	39.94	60.57	71.34	97.50	111.7	167.0	237.8	200.0	217.7	417.3	 4260	 3692	239.0	174.4	163.4	141.2	131.3	116.0	117.0	116.7	114.4	111.2	108.6	106.7	109.2	111.2	108.9	111.3	114.2	112.7	110.3	104.0	100.1	91.26	84.20	77.63	70.72	66.31	63.29	56.44	53.31	48.69	45.54	41.47	38.03	35.47	33.12	37.10	35.64	28.45	21.72	18.26	16.00	14.35	13.43	12.59	11.58	10.04	9.179	9.339	14.77	35.13	69.61	432.2	 2359	 3335	360.9	6.992	2.123	1.652	1.638	1.481	1.218	1.018	0.895	1.068	0.794
550.0	41.44	56.29	74.05	78.36	102.5	121.1	205.2	203.0	184.7	244.1	 1445	 5627	 1393	152.7	136.0	122.5	110.9	99.58	97.41	96.86	94.44	94.24	89.82	90.82	92.15	92.08	91.16	92.75	94.43	94.78	92.53	89.23	82.53	76.02	69.83	65.99	60.65	57.14	52.58	48.62	45.94	42.61	39.31	35.58	33.16	30.92	28.30	28.15	29.96	27.99	21.96	16.46	14.16	13.21	12.63	11.00	10.46	9.671	8.484	7.266	8.148	12.22	19.76	100.7	570.7	 1802	 2634	 1016	21.76	2.123	1.613	1.390	1.178	0.850	0.804	0.816	0.639
555.0	38.73	59.43	73.63	72.55	85.88	96.63	139.8	223.8	176.2	202.3	463.7	 2740	 5155	250.6	111.8	98.95	91.07	84.55	80.25	79.66	77.98	78.10	72.60	74.11	74.13	73.23	74.02	77.59	76.95	76.06	73.22	70.99	68.48	61.05	57.42	55.23	49.47	47.27	44.41	40.15	37.37	35.28	32.26	29.44	28.73	25.16	23.85	21.80	22.35	24.69	22.78	16.35	12.77	11.91	10.35	10.23	9.105	9.128	8.134	6.733	5.782	7.235	8.062	26.16	130.7	407.3	995.5	 2704	430.5	25.71	2.170	1.486	1.068	0.792	0.729	0.632	0.539
560.0	44.06	44.70	58.31	62.67	82.16	87.04	108.4	219.5	176.4	168.6	236.2	893.1	 6276	 1236	103.5	86.49	77.50	69.41	69.44	68.22	64.73	63.14	60.78	63.78	64.30	62.60	63.48	62.56	63.55	64.30	61.87	59.78	56.77	54.60	49.50	47.29	42.25	40.83	38.04	33.66	33.13	29.81	27.41	26.00	24.38	22.31	21.05	19.27	17.37	19.99	20.38	16.74	11.95	10.53	8.953	8.564	8.123	7.820	7.669	6.332	5.378	5.664	5.465	9.309	32.78	94.18	233.1	 1270	 2432	383.1	10.38	1.657	1.264	0.919	0.890	0.802	0.539
565.0	42.44	52.18	58.10	66.90	67.97	73.95	93.65	163.1	209.1	154.9	170.0	319.9	 4060	 2813	114.0	74.74	65.57	60.49	60.42	55.46	54.41	53.19	53.87	52.77	55.04	53.12	52.45	52.92	53.61	55.21	54.24	51.87	48.84	43.91	41.24	40.18	36.32	33.70	32.74	30.03	28.56	25.46	24.09	22.74	21.93	19.76	18.16	17.04	15.21	15.26	16.60	16.26	12.07	9.832	8.550	7.823	7.374	7.359	6.779	6.403	5.489	5.255	5.313	5.958	11.19	24.49	55.84	311.7	 1519	 2060	56.87	3.450	1.432	0.866	1.047	0.598	0.376
570.0	42.12	55.13	67.08	55.96	58.14	60.16	71.82	114.5	208.3	159.0	147.3	172.9	 1279	 5087	 1040	67.53	54.04	52.00	49.32	44.91	44.52	42.06	44.33	42.36	43.85	42.30	42.33	43.22	42.70	42.78	43.26	40.80	39.53	36.50	32.93	31.09	29.25	27.17	25.63	24.49	22.29	20.92	19.43	17.63	16.72	16.21	14.91	13.59	12.11	12.26	12.33	13.41	12.04	9.281	7.629	6.584	6.389	6.330	5.793	5.421	5.774	5.421	4.945	4.769	6.023	8.778	16.02	73.08	377.2	 1150	 1426	242.5	16.11	1.352	1.069	0.530	0.539
575.0	41.53	57.98	65.60	54.27	50.57	50.09	59.42	82.56	161.4	188.2	135.0	136.5	373.7	 2406	 4451	141.6	43.54	41.92	40.30	36.34	36.21	34.95	33.56	32.43	34.18	33.68	34.05	33.18	33.33	33.77	33.63	31.88	29.55	28.51	24.97	23.70	22.98	21.89	19.68	19.79	17.49	16.69	15.93	14.33	13.26	12.59	11.86	10.92	9.654	9.499	9.021	9.227	9.839	8.762	6.642	5.741	5.169	5.586	5.323	4.649	5.405	5.533	4.770	4.488	4.671	5.353	6.998	19.90	87.35	260.5	591.9	 1449	386.9	13.72	1.119	0.637	0.377
580.0	46.27	56.83	58.68	55.72	42.40	48.72	54.15	68.96	121.1	201.9	139.3	129.9	172.2	743.4	 5425	929.9	40.73	33.09	32.34	32.96	31.29	30.58	28.21	28.50	27.17	28.72	28.06	27.32	27.40	28.60	27.96	26.00	25.24	22.77	22.09	19.52	18.94	19.05	17.18	16.33	15.56	14.14	13.31	12.09	11.75	10.70	10.14	9.535	8.598	8.279	7.091	7.612	7.926	8.533	7.204	5.422	4.511	5.342	4.813	4.536	4.504	4.816	4.850	4.294	4.623	4.484	4.751	8.119	22.58	61.06	141.2	746.9	 1353	278.8	3.944	1.222	0.428
585.0	50.08	51.47	57.52	58.39	52.73	39.84	52.31	68.08	95.71	191.4	158.7	129.2	129.5	235.9	 3426	 3096	49.63	30.74	30.37	27.95	25.78	26.10	25.03	24.43	22.35	22.48	24.31	23.56	24.39	23.48	24.28	22.02	21.09	20.58	18.71	17.36	15.76	15.71	14.48	14.24	12.99	11.74	11.29	9.772	9.609	9.218	9.200	8.522	7.455	7.053	6.163	6.325	6.015	7.258	7.134	5.303	4.306	4.634	4.547	4.562	4.300	4.184	4.906	4.500	4.358	4.183	3.911	4.512	7.781	15.98	34.13	187.5	902.4	 1109	50.99	1.650	0.681
590.0	39.29	50.56	56.90	57.88	40.27	37.39	45.78	59.09	82.78	144.6	192.8	129.4	118.1	117.8	 1030	 4260	750.9	28.35	24.18	22.84	21.34	20.31	20.16	19.55	17.61	18.40	19.13	19.13	19.63	19.42	18.76	18.17	17.02	16.45	15.22	14.77	13.59	12.79	11.83	10.83	10.04	9.536	9.280	8.610	7.835	7.565	7.468	6.641	6.393	5.725	5.057	4.921	4.702	5.469	6.467	5.473	4.358	3.774	3.794	3.412	3.467	3.447	3.820	4.323	3.882	3.728	3.337	3.432	4.271	5.814	9.762	43.69	227.9	667.7	643.8	216.2	9.942
595.0	37.34	45.93	56.90	53.70	38.86	34.57	42.56	51.70	73.08	110.2	192.2	154.8	114.0	90.46	270.2	 1868	 3378	82.40	20.86	17.58	16.24	16.59	15.47	16.12	15.30	15.78	15.06	14.82	15.16	15.19	14.97	14.38	13.32	13.14	11.98	10.86	10.57	9.670	9.379	8.657	8.159	7.985	7.372	6.547	6.556	6.251	5.557	5.455	5.074	4.677	4.361	3.911	3.805	4.066	4.830	4.948	4.512	3.242	3.111	2.762	2.868	2.790	2.888	3.584	3.586	3.225	3.216	2.803	3.144	3.155	3.850	11.28	52.25	151.1	324.2	850.1	291.3
600.0	29.64	38.32	56.59	54.43	35.67	33.65	39.48	50.50	68.37	93.78	159.3	172.4	112.0	85.50	101.3	545.6	 4101	643.1	19.74	15.13	13.93	13.74	13.18	12.84	12.58	13.09	12.92	12.52	13.01	13.55	12.63	12.12	11.51	10.96	10.33	8.952	9.076	8.668	7.722	7.151	6.832	6.402	6.201	5.666	5.660	5.072	5.195	4.315	4.093	4.292	3.664	3.683	3.118	3.136	3.514	4.440	4.017	3.170	2.795	2.635	2.308	2.457	2.373	2.846	2.818	3.288	2.736	2.759	2.755	2.499	2.585	3.973	12.96	34.74	78.52	472.9	773.9
605.0	26.32	48.21	54.00	46.90	34.53	32.06	34.82	46.13	61.82	87.60	128.0	193.4	114.0	81.98	64.98	153.8	 2561	 2250	27.81	14.16	13.26	12.07	12.10	11.70	10.26	10.86	10.85	11.55	10.73	10.97	11.16	10.78	9.823	9.623	8.533	7.402	8.039	7.417	6.778	5.857	6.659	5.097	5.133	4.818	4.751	4.201	4.377	3.662	3.750	3.951	3.175	3.077	2.827	2.555	2.790	3.241	4.009	3.163	3.025	2.264	2.343	2.411	2.143	2.382	2.411	2.649	2.914	2.614	2.131	2.381	2.149	1.893	4.048	8.674	18.37	121.1	542.2
610.0	26.27	45.00	52.74	45.25	32.00	30.63	32.89	43.72	60.56	79.77	109.4	170.3	140.2	83.46	57.74	63.51	758.4	 3218	578.3	14.45	11.97	10.49	10.38	9.973	8.807	9.559	9.050	8.914	8.836	9.191	8.705	8.496	7.989	7.430	6.510	6.822	6.015	5.696	5.867	4.708	4.946	4.451	4.371	3.825	3.604	3.829	3.505	3.260	2.847	3.064	2.638	2.376	2.321	2.302	2.152	2.308	2.738	3.017	2.835	1.973	2.111	2.063	1.870	2.038	2.163	2.269	2.396	2.277	2.101	2.005	1.665	1.337	1.719	2.749	4.753	27.55	137.8
615.0	22.24	41.03	40.06	37.91	31.18	27.39	30.56	40.95	59.80	68.39	94.54	134.1	161.3	88.62	58.43	40.79	188.9	 1453	 2632	57.56	10.56	9.236	8.534	7.349	8.104	7.642	7.730	6.504	6.990	7.249	6.855	6.513	6.136	6.168	5.641	5.301	5.129	4.344	4.500	4.298	3.988	3.553	3.454	3.229	2.860	2.980	2.797	2.750	2.191	2.209	2.071	1.890	1.815	1.784	1.614	1.817	1.752	2.751	2.346	2.048	1.766	1.727	1.804	1.683	1.638	1.833	1.842	1.920	1.919	1.698	1.409	1.104	1.052	1.267	1.485	6.721	31.18
620.0	16.22	36.47	43.36	43.91	31.49	27.69	34.86	39.93	54.66	68.01	91.31	110.9	151.6	98.35	53.74	34.15	61.10	419.1	 3233	520.2	10.51	8.163	8.032	6.174	6.926	6.632	6.336	5.593	5.762	6.015	5.273	6.119	5.361	5.641	4.505	4.376	4.471	3.491	3.734	3.505	3.190	3.154	2.706	2.517	2.854	2.427	2.571	2.094	2.014	1.804	1.691	1.752	1.291	1.415	1.345	1.487	1.645	1.995	2.104	1.976	1.257	1.423	1.488	1.416	1.308	1.504	1.465	1.251	1.932	1.650	1.367	0.930	1.001	0.817	0.724	2.005	7.284
625.0	9.501	33.76	46.03	39.75	27.60	24.82	31.82	39.31	51.40	64.93	84.24	103.2	137.8	112.2	54.14	36.06	31.65	110.3	 2040	 1266	17.97	7.644	6.047	5.613	5.643	6.223	5.299	5.001	4.947	5.456	5.184	5.134	4.547	4.347	4.063	4.219	4.073	3.621	3.143	3.038	2.711	2.357	2.103	2.425	2.026	2.096	2.092	1.776	2.010	1.506	1.444	1.510	1.419	1.247	1.086	1.311	1.182	1.548	1.658	1.897	1.593	1.221	1.341	1.411	1.241	1.400	1.348	1.123	1.358	1.379	1.244	1.050	0.627	0.669	0.451	0.874	1.948
630.0	16.66	26.88	42.74	30.98	23.26	27.00	25.21	33.98	46.63	61.51	76.73	92.92	106.5	120.9	60.31	35.90	25.68	39.20	601.0	 2482	478.1	7.976	5.412	5.210	4.996	4.105	4.819	4.435	4.348	4.294	3.965	4.071	3.769	3.379	3.638	3.280	2.862	2.964	2.342	2.739	2.426	2.230	1.976	1.913	1.662	1.727	1.779	1.581	1.573	1.336	1.271	0.951	1.080	1.086	0.984	0.966	0.960	1.023	1.130	1.515	1.670	1.307	1.213	1.124	1.288	1.129	1.026	1.292	0.978	1.295	1.228	1.024	0.739	0.510	0.407	0.471	0.683
635.0	18.47	33.32	33.65	32.56	24.31	25.15	26.15	29.89	43.31	55.41	75.29	88.61	89.13	102.9	80.44	38.81	24.41	24.61	145.6	 1163	 2130	43.76	5.338	4.504	4.409	3.524	4.001	3.619	4.066	3.302	3.362	3.013	3.118	2.602	2.829	2.490	2.431	2.239	2.243	1.926	2.103	1.720	1.856	1.499	1.504	1.269	1.249	1.352	1.170	1.188	0.950	1.034	0.928	0.758	0.820	0.567	0.712	0.688	0.801	0.912	1.218	1.314	0.884	0.982	0.995	0.815	0.879	0.978	0.733	1.010	1.094	0.767	0.925	0.395	0.328	0.385	0.220
640.0	14.19	21.78	45.29	29.42	21.61	19.80	26.07	30.34	40.00	47.09	70.93	87.99	87.38	90.04	94.01	45.40	24.47	21.71	44.53	331.5	 2625	435.4	5.636	4.213	4.024	3.111	4.116	2.773	3.248	2.736	3.403	2.195	2.215	2.476	2.207	2.425	2.108	1.905	2.213	1.529	1.574	1.694	1.582	1.137	1.219	1.105	1.136	0.943	1.061	1.058	0.934	0.855	0.610	0.783	0.694	0.611	0.702	0.653	0.720	0.729	0.914	0.981	0.864	0.870	0.750	0.875	0.705	0.702	1.025	0.756	0.822	0.800	0.565	0.403	0.418	0.406	0.370
645.0	22.01	25.75	42.55	37.58	24.05	19.32	25.68	34.14	40.47	46.86	67.44	79.40	88.10	79.93	95.11	51.99	28.39	21.29	20.70	85.46	 1675	 1075	12.44	4.004	4.146	3.949	3.299	2.797	2.776	2.414	3.132	2.198	2.091	2.127	1.679	1.695	1.763	1.499	1.668	1.478	1.357	1.232	1.684	0.842	1.091	0.975	0.949	0.973	0.828	0.981	0.869	0.778	0.718	0.652	0.673	0.646	0.543	0.657	0.627	0.685	0.509	0.822	1.148	0.755	0.669	0.763	0.699	0.655	0.627	0.786	0.516	0.665	0.450	0.521	0.232	0.176	0.312
650.0	22.32	26.79	49.81	37.52	26.11	24.47	25.56	31.48	39.05	52.42	66.85	77.19	80.44	78.48	82.71	62.65	26.95	21.78	14.99	29.31	596.4	 2262	89.34	4.939	3.650	3.326	2.908	2.568	2.494	2.261	2.791	1.951	2.183	2.051	1.474	1.575	2.015	1.497	1.598	1.212	1.040	1.103	1.238	1.061	1.026	0.933	0.955	0.839	1.057	0.988	0.727	0.727	0.604	0.440	0.428	0.559	0.566	0.608	0.585	0.588	0.610	0.756	0.775	0.734	0.531	0.373	0.512	0.426	0.647	0.799	0.569	0.351	0.499	0.542	0.281	0.165	0.182
