Sample:	'1
File name:	G2025090915∫√…˙±√’æ 9±∂.FD3
Run date:	'09:44:44, 09/11/2025
Operator:	Administrator
Comment:	'

Instrument
Model:	F-2700 FL Spectrophotometer
Serial number:	24D1-003
ROM Version:	4J14000 07

Instrument parameters
Measurement type:	3-D scan
Data mode:	Fluorescence
EX  Start WL:	220.0 nm
EX  End WL:	600.0 nm
EX Sampling interval:	5.0 nm
EM  Start WL:	230.0 nm
EM  End WL:	650.0 nm
EM Sampling interval:	5.0 nm
Scan speed:	12000 nm/min
EX Slit:	5.0 nm
EM Slit:	5.0 nm
PMT Voltage:	700 V
Response:	Auto 
Corrected spectra:	Off
Contour interval:	50.000

Peak integration
Integration method:	Rectangular
Sensitivity:	1
Threshold:	1.000

Peaks
No.	ApexEX/EM(nm)	Height(Data)
1	225.0/340.0	1626
2	230.0/625.0	30.97
3	245.0/535.0	328.0
4	250.0/545.0	266.5
5	255.0/280.0	638.4
6	255.0/560.0	230.1
7	260.0/285.0	646.2
8	260.0/570.0	181.2
9	265.0/405.0	2466
10	265.0/585.0	151.3
11	270.0/300.0	1189
12	270.0/595.0	135.4
13	275.0/305.0	1487
14	275.0/610.0	114.7
15	280.0/310.0	1427
16	280.0/325.0	1137
17	280.0/335.0	1142
18	280.0/625.0	97.64
19	285.0/315.0	1326
20	285.0/415.0	2338
21	285.0/635.0	76.30
22	290.0/325.0	1221
23	305.0/340.0	795.2
24	350.0/415.0	3365
25	455.0/345.0	5.368
26	505.0/275.0	2.734
27	510.0/280.0	3.250
28	520.0/285.0	3.611
29	530.0/290.0	3.690
30	530.0/400.0	10.14
31	535.0/395.0	9.469
32	540.0/295.0	5.119
33	545.0/300.0	5.903
34	555.0/305.0	6.232
35	560.0/310.0	6.141
36	570.0/315.0	6.417
37	575.0/320.0	6.528
38	580.0/415.0	10.40
39	585.0/325.0	6.139

Data points
	220.0	225.0	230.0	235.0	240.0	245.0	250.0	255.0	260.0	265.0	270.0	275.0	280.0	285.0	290.0	295.0	300.0	305.0	310.0	315.0	320.0	325.0	330.0	335.0	340.0	345.0	350.0	355.0	360.0	365.0	370.0	375.0	380.0	385.0	390.0	395.0	400.0	405.0	410.0	415.0	420.0	425.0	430.0	435.0	440.0	445.0	450.0	455.0	460.0	465.0	470.0	475.0	480.0	485.0	490.0	495.0	500.0	505.0	510.0	515.0	520.0	525.0	530.0	535.0	540.0	545.0	550.0	555.0	560.0	565.0	570.0	575.0	580.0	585.0	590.0	595.0	600.0
230.0	78.27	2438	4955	1048	26.83	5.942	4.959	4.702	4.801	3.653	3.708	3.479	2.963	2.802	2.240	1.874	1.923	1.700	1.718	1.495	1.521	1.502	1.545	1.413	1.449	1.409	1.424	1.201	1.175	1.080	1.065	0.844	0.873	0.826	0.684	0.594	0.540	0.525	0.467	0.377	0.495	0.644	0.664	0.377	0.360	0.323	1.759	7.869	13.66	9.296	3.231	0.562	0.210	0.220	0.175	0.172	0.177	0.187	0.157	0.166	0.162	0.144	0.181	0.143	0.180	0.155	0.168	0.188	0.155	0.181	0.173	0.158	0.125	0.178	0.104	0.164	0.164
235.0	114.5	643.4	3131	4967	507.6	44.63	6.844	5.335	5.539	5.643	3.324	3.713	3.194	2.549	2.288	2.184	1.802	1.607	1.828	1.677	1.578	1.416	1.399	1.420	1.571	1.472	1.640	1.332	1.358	1.064	1.027	0.855	0.851	0.846	0.586	0.621	0.578	0.537	0.512	0.371	0.370	0.454	0.532	0.723	0.728	0.446	0.555	2.147	5.095	8.593	12.40	13.06	6.953	1.329	0.289	0.209	0.208	0.182	0.199	0.143	0.180	0.190	0.218	0.190	0.126	0.166	0.138	0.185	0.173	0.085	0.200	0.196	0.136	0.093	0.123	0.159	0.132
240.0	186.9	228.3	914.2	4319	4215	405.3	18.57	6.249	6.395	5.940	4.361	4.603	3.294	3.087	2.360	2.150	1.925	1.449	1.777	1.690	1.792	1.655	1.774	1.668	1.298	1.445	1.671	1.195	1.130	1.239	1.021	0.983	0.901	0.779	0.673	0.574	0.472	0.546	0.480	0.357	0.422	0.372	0.365	0.491	0.846	0.925	0.591	0.767	1.355	2.549	6.053	15.95	21.50	14.28	5.082	0.725	0.226	0.180	0.253	0.218	0.208	0.213	0.156	0.156	0.135	0.193	0.170	0.176	0.143	0.120	0.158	0.238	0.136	0.158	0.165	0.132	0.138
245.0	140.1	261.8	269.7	1405	5892	3500	323.1	11.92	8.005	6.009	5.111	4.235	3.998	3.371	2.579	2.278	1.958	1.873	1.668	1.834	1.608	1.588	1.488	1.681	1.326	1.281	1.388	1.266	1.018	1.237	1.007	1.132	0.801	0.744	0.716	0.661	0.538	0.566	0.484	0.437	0.403	0.358	0.352	0.271	0.431	0.838	0.949	0.952	0.562	0.753	1.584	5.077	12.25	21.80	23.43	11.84	3.424	0.373	0.237	0.267	0.212	0.155	0.131	0.163	0.109	0.174	0.225	0.173	0.205	0.184	0.147	0.241	0.203	0.157	0.124	0.197	0.177
250.0	50.63	189.7	287.5	408.2	1821	4516	5491	1345	82.74	8.278	7.285	5.931	5.038	4.275	3.281	2.606	2.204	2.081	2.043	1.749	1.830	1.751	1.692	1.632	1.498	1.479	1.490	1.313	1.353	1.190	1.287	1.124	0.843	0.806	0.604	0.630	0.597	0.620	0.499	0.473	0.397	0.405	0.364	0.282	0.343	0.406	0.601	0.907	1.044	0.949	0.843	1.459	3.038	6.427	12.23	17.54	22.17	18.46	11.01	3.523	0.394	0.192	0.151	0.178	0.194	0.190	0.208	0.182	0.140	0.150	0.167	0.194	0.128	0.177	0.145	0.168	0.182
255.0	24.12	64.21	190.8	387.7	491.5	1113	4269	9999.9	1981	98.34	11.22	8.609	5.957	4.218	3.683	3.003	2.506	2.341	2.286	2.307	1.857	1.681	1.960	1.605	1.431	1.487	1.467	1.385	1.272	1.183	1.137	1.281	0.931	0.848	0.701	0.638	0.622	0.615	0.527	0.406	0.392	0.362	0.322	0.299	0.356	0.363	0.341	0.435	0.567	0.906	1.317	1.588	1.353	1.619	2.866	4.246	7.238	15.15	29.84	28.85	17.54	3.533	0.381	0.218	0.159	0.229	0.187	0.203	0.132	0.191	0.190	0.127	0.164	0.167	0.142	0.073	0.212
260.0	19.55	26.73	69.97	324.7	379.4	295.7	1220	8418	9999.9	1560	51.83	9.913	6.688	4.800	3.997	3.520	2.862	2.341	2.590	2.277	1.849	1.912	1.823	1.661	1.706	1.598	1.716	1.375	1.477	1.151	1.108	1.167	0.873	0.900	0.739	0.584	0.634	0.718	0.514	0.489	0.423	0.379	0.406	0.372	0.345	0.379	0.314	0.335	0.426	0.418	0.676	1.723	1.903	1.340	0.996	1.124	1.891	3.940	12.08	27.63	42.59	26.81	12.03	1.219	0.231	0.268	0.207	0.220	0.199	0.229	0.143	0.090	0.184	0.149	0.143	0.101	0.190
265.0	18.23	20.69	27.50	129.4	409.2	273.2	309.4	2524	9999.9	9999.9	1241	21.59	9.016	6.228	5.736	3.807	3.429	2.442	2.918	2.077	2.144	2.168	1.833	1.943	1.807	1.527	1.741	1.596	1.437	1.025	1.196	1.307	0.912	0.879	0.902	0.599	0.650	0.641	0.582	0.574	0.496	0.462	0.389	0.378	0.395	0.345	0.259	0.324	0.309	0.247	0.311	0.792	1.465	2.098	1.622	0.760	0.663	1.115	3.064	7.649	20.48	38.06	48.30	22.44	6.586	0.517	0.303	0.286	0.261	0.277	0.257	0.160	0.192	0.188	0.240	0.179	0.117
270.0	36.13	34.72	28.31	44.79	176.9	404.6	311.3	619.3	2876	9999.9	9999.9	4419	76.64	10.37	6.814	4.479	4.204	2.997	3.102	2.527	2.330	2.253	1.818	1.749	1.852	1.655	1.578	1.564	1.386	1.284	1.227	1.137	0.938	0.859	0.791	0.741	0.661	0.546	0.584	0.545	0.547	0.496	0.481	0.381	0.401	0.362	0.322	0.310	0.386	0.259	0.272	0.431	0.592	0.994	1.550	1.927	1.840	1.148	1.068	1.996	4.939	10.39	20.60	30.83	33.51	40.72	16.10	8.658	0.705	0.314	0.272	0.183	0.287	0.193	0.185	0.172	0.142
275.0	83.83	83.97	66.26	35.09	56.98	165.8	492.3	405.8	698.1	2376	6266	9999.9	6439	96.50	10.31	6.935	5.516	4.331	3.619	2.688	2.227	2.813	1.977	1.815	1.943	2.033	1.693	1.665	1.443	1.554	1.469	1.193	0.983	0.878	0.904	0.875	0.643	0.700	0.583	0.520	0.573	0.513	0.472	0.419	0.502	0.466	0.495	0.415	0.474	0.394	0.239	0.323	0.339	0.464	0.604	0.825	1.766	2.734	2.531	1.266	1.380	2.624	5.083	7.413	10.19	28.03	63.80	101.9	26.13	8.908	0.420	0.245	0.286	0.294	0.228	0.164	0.130
280.0	129.6	144.6	107.6	52.86	35.66	63.64	284.6	638.4	344.9	608.0	1672	8737	9999.9	1189	60.03	10.04	7.207	5.279	4.286	3.162	2.830	2.686	2.281	2.046	1.918	2.182	1.739	1.860	1.649	1.723	1.275	1.224	1.093	0.952	0.924	0.972	0.897	0.764	0.688	0.634	0.537	0.645	0.465	0.434	0.616	0.689	0.701	0.601	0.563	0.528	0.363	0.310	0.286	0.342	0.415	0.480	0.836	1.572	3.250	3.031	1.590	1.162	1.576	2.214	2.689	7.052	21.90	70.42	98.92	93.40	18.58	2.418	0.366	0.332	0.241	0.260	0.144
285.0	193.9	223.0	169.2	75.38	39.25	42.20	117.5	482.9	646.2	299.1	505.2	2491	9441	9999.9	904.5	29.91	9.598	6.278	4.500	4.038	3.380	2.813	2.721	2.149	2.279	2.157	1.961	1.937	1.785	1.681	1.358	1.357	1.092	0.900	0.923	0.970	0.952	0.987	0.828	0.595	0.723	0.646	0.516	0.660	0.814	0.898	0.846	0.875	0.849	0.674	0.476	0.341	0.359	0.276	0.349	0.351	0.518	0.712	1.444	2.989	3.611	2.439	1.203	1.032	1.217	2.326	5.562	17.96	38.23	86.41	90.94	29.87	11.70	0.696	0.340	0.306	0.169
290.0	283.6	324.8	242.8	113.3	63.47	58.04	91.64	230.3	584.5	741.3	450.6	809.7	2619	7933	9999.9	3681	54.17	10.26	7.142	4.847	4.012	3.364	2.890	2.516	2.349	2.241	2.064	1.782	1.833	1.645	1.611	1.258	1.103	1.010	1.033	1.072	1.129	1.146	0.911	0.854	0.857	0.772	0.755	0.875	0.919	1.067	1.037	1.124	1.115	0.750	0.655	0.561	0.550	0.469	0.517	0.443	0.484	0.650	0.856	1.365	2.184	3.046	3.690	2.829	1.987	1.789	2.367	5.152	9.699	21.95	34.38	49.95	70.68	59.12	18.10	8.633	0.737
295.0	358.6	413.2	318.8	158.2	90.18	90.72	118.6	182.7	331.7	759.7	1035	623.4	925.9	2013	4090	9999.9	5594	68.35	11.00	6.661	5.088	4.164	3.424	2.867	2.500	2.325	2.267	1.992	1.780	1.782	1.390	1.340	1.293	1.117	1.192	1.110	1.247	1.226	0.992	0.827	0.882	0.987	1.012	1.058	1.129	1.246	1.305	1.435	1.309	0.965	0.810	0.688	0.602	0.622	0.600	0.557	0.606	0.819	0.878	0.897	1.378	1.592	2.374	3.786	5.119	3.916	2.424	2.717	3.703	6.320	8.780	12.34	18.72	35.90	75.46	96.79	28.45
300.0	379.1	468.3	343.7	192.9	111.3	117.5	152.9	203.3	307.0	558.2	1189	1015	666.3	750.8	1136	5833	9999.9	4201	48.87	9.651	6.044	5.206	3.843	2.994	2.910	2.614	2.210	1.979	1.987	1.787	1.567	1.450	1.361	1.203	1.177	1.242	1.263	1.244	1.103	1.079	1.004	1.081	1.035	1.007	1.309	1.443	1.454	1.462	1.407	1.078	0.846	0.800	0.665	0.697	0.911	0.577	0.672	0.965	0.954	0.989	1.380	1.387	1.805	2.397	4.321	5.903	4.992	3.372	2.749	3.024	3.642	4.127	5.248	9.303	24.36	61.98	88.01
305.0	412.8	483.0	380.4	219.9	144.5	150.0	192.7	263.7	369.8	546.6	956.8	1487	952.2	592.7	531.9	1607	8560	9999.9	629.6	30.12	9.171	6.684	4.210	3.425	3.385	2.589	2.248	2.054	2.284	1.763	1.445	1.539	1.255	1.295	1.125	1.223	1.345	1.296	1.159	1.069	0.951	1.095	1.081	1.144	1.203	1.451	1.517	1.497	1.634	1.093	0.904	0.944	0.845	0.722	0.894	0.796	0.873	1.123	1.173	1.337	1.550	1.799	2.107	2.491	3.231	4.522	6.224	6.232	4.490	3.362	2.900	2.644	2.577	3.447	6.579	15.99	34.28
310.0	409.2	490.1	390.4	246.8	177.1	183.6	239.8	319.1	439.4	613.6	846.2	1244	1427	892.2	518.2	623.4	2272	7828	9999.9	5784	41.15	10.15	6.361	4.665	3.993	3.052	2.899	2.342	2.344	1.966	1.763	1.582	1.411	1.136	1.178	1.259	1.418	1.461	1.191	1.131	1.157	1.120	1.122	1.179	1.320	1.468	1.594	1.671	1.632	1.286	0.955	1.036	0.922	0.870	0.958	0.888	1.103	1.284	1.378	1.712	1.878	2.197	2.469	2.876	3.227	3.879	4.606	5.593	6.141	5.605	4.499	3.106	2.488	2.435	2.879	4.931	8.928
315.0	458.7	528.0	455.4	295.8	217.5	217.8	276.7	361.8	496.8	673.7	850.5	1040	1186	1326	772.9	471.4	759.3	1954	4106	9999.9	4169	53.66	9.799	6.664	4.562	4.454	3.604	2.588	2.842	2.194	1.952	1.643	1.375	1.357	1.189	1.249	1.515	1.424	1.299	1.225	1.131	1.060	1.020	1.236	1.311	1.406	1.705	1.783	1.661	1.458	1.146	1.179	1.017	0.992	1.087	1.140	1.414	1.430	1.459	1.873	2.189	2.167	2.506	3.125	3.305	3.718	4.281	4.390	5.046	5.435	6.417	5.716	3.801	2.722	2.467	2.649	3.456
320.0	606.4	800.1	678.5	396.8	267.9	253.3	315.7	422.6	554.8	733.8	926.0	1061	1110	1237	1147	573.1	463.6	667.7	1086	5568	9999.9	3370	39.31	8.336	5.577	4.534	3.916	3.002	2.866	2.406	2.209	1.762	1.487	1.379	1.292	1.301	1.663	1.423	1.174	1.413	1.370	1.187	1.208	1.433	1.664	1.855	2.436	2.629	2.590	1.840	1.438	1.375	1.208	1.117	1.216	1.282	1.440	1.686	1.648	2.070	2.299	2.480	2.924	3.035	3.622	3.798	4.272	4.292	4.482	4.571	5.476	6.528	6.456	4.479	3.185	2.459	2.346
325.0	820.5	1167	1001	544.3	318.8	293.2	356.2	461.9	609.0	788.5	981.4	1114	1137	1081	1221	863.7	454.1	404.9	399.3	1440	7774	9999.9	2494	26.69	7.671	5.719	4.435	3.153	2.761	2.853	2.340	1.888	1.734	1.459	1.372	1.430	1.550	1.445	1.222	1.386	1.288	1.421	1.413	1.852	2.157	2.524	3.100	3.633	3.776	2.823	1.973	1.863	1.451	1.412	1.332	1.282	1.485	1.807	1.924	2.166	2.715	2.993	3.162	3.341	3.753	4.096	4.543	4.668	4.716	4.767	4.594	4.702	6.093	6.139	4.839	3.109	2.585
330.0	909.4	1348	1288	731.3	426.2	353.4	392.5	492.3	630.7	819.3	990.6	1121	1129	1039	977.6	979.0	699.4	403.7	283.5	446.5	1968	7509	9999.9	5328	34.45	8.294	5.930	4.168	3.282	3.009	2.446	2.008	1.706	1.476	1.445	1.355	1.479	1.501	1.357	1.302	1.396	1.533	1.591	1.894	2.190	2.962	3.483	4.469	4.286	3.546	2.628	2.305	2.045	1.705	1.578	1.405	1.710	1.925	2.126	2.322	2.695	2.987	3.221	3.621	3.709	4.031	4.319	4.649	4.794	4.756	4.488	4.438	4.607	4.657	5.297	4.989	4.328
335.0	1035	1572	1495	913.3	573.4	438.1	449.1	530.0	677.4	849.8	1009	1123	1142	1038	914.1	791.0	849.1	627.8	317.6	272.3	567.6	1784	3822	9999.9	3394	46.06	8.988	5.520	4.362	3.454	2.945	2.338	1.864	1.604	1.548	1.377	1.424	1.541	1.471	1.347	1.332	1.580	1.628	2.051	2.509	3.265	4.103	5.043	4.702	4.101	3.117	2.979	2.526	2.058	2.023	1.779	1.966	1.932	2.192	2.481	2.653	3.070	3.432	3.823	3.709	4.208	4.415	4.731	4.880	4.736	4.533	4.392	4.380	4.259	4.117	4.481	4.894
340.0	1090	1626	1621	1037	685.8	522.9	510.6	581.1	729.6	898.7	1041	1119	1133	1058	916.4	748.7	731.5	795.2	455.5	281.8	297.9	533.5	981.9	5555	9999.9	2769	36.49	7.523	5.466	3.870	3.069	2.687	2.096	1.777	1.404	1.417	1.492	1.552	1.506	1.302	1.511	1.518	1.531	2.094	2.546	3.418	4.054	5.295	5.071	4.490	3.327	3.519	2.951	2.457	2.430	2.171	2.337	2.271	2.383	2.616	2.753	3.418	3.525	3.892	3.882	4.266	4.636	4.633	4.736	4.980	4.754	4.316	4.611	3.970	4.211	3.763	4.101
345.0	1024	1570	1605	1066	768.6	605.3	578.8	635.0	782.5	936.8	1053	1098	1105	1041	926.7	766.6	665.5	751.6	672.1	371.0	290.6	301.1	361.1	1461	6928	9999.9	2172	24.58	7.747	4.845	3.497	2.712	2.315	1.903	1.747	1.396	1.640	1.607	1.439	1.604	1.443	1.482	1.748	1.975	2.461	3.439	4.096	5.368	4.979	4.180	3.508	3.517	3.197	2.880	2.899	2.311	2.637	2.597	2.802	2.835	3.243	3.658	3.762	4.006	3.901	4.296	4.480	4.438	4.606	4.895	4.579	4.614	4.390	3.940	3.888	3.812	3.832
350.0	951.3	1459	1502	1088	850.3	712.0	684.7	731.0	855.9	1019	1100	1108	1102	1042	943.7	818.5	711.3	688.4	740.4	649.0	440.4	356.2	314.7	506.8	1816	6385	9705	3776	32.32	8.834	5.406	3.504	2.597	2.101	1.978	1.430	1.573	1.410	1.582	1.546	1.524	1.423	1.641	1.851	2.357	3.103	3.885	4.757	4.670	4.102	3.506	3.715	3.535	3.228	3.119	2.765	2.895	2.991	3.119	3.233	3.466	3.871	4.055	4.152	4.157	4.411	4.413	4.458	4.459	4.714	4.663	4.388	4.412	4.275	4.079	4.204	3.931
355.0	908.0	1355	1442	1149	955.7	864.3	857.5	910.9	1050	1185	1206	1179	1143	1088	1014	914.3	830.0	782.9	766.3	820.6	757.2	539.4	444.4	415.7	639.3	1601	3590	9999.9	3022	41.63	10.96	5.560	3.941	2.488	2.263	1.723	1.762	1.727	1.704	1.512	1.669	1.538	1.622	1.860	2.485	3.133	3.498	4.540	4.374	3.843	3.479	4.004	3.635	3.543	3.645	3.437	3.623	3.911	3.824	3.867	4.083	4.451	4.571	4.808	4.643	4.612	4.489	4.767	4.895	4.809	4.587	4.634	4.769	4.685	4.666	4.755	4.630
360.0	892.2	1318	1403	1223	1068	1010	1015	1101	1247	1383	1337	1251	1198	1158	1076	1006	953.1	920.4	890.5	895.5	990.4	803.7	575.1	517.9	488.6	617.7	1016	4794	9999.9	2397	34.80	9.820	5.431	3.480	2.419	2.017	2.079	2.088	1.707	1.741	1.502	1.658	1.583	1.931	2.477	3.066	3.409	4.446	4.651	3.797	3.823	4.074	4.019	4.046	4.224	3.797	4.252	4.208	4.395	4.651	4.999	5.046	5.511	5.588	5.595	4.978	4.823	4.944	4.873	4.936	4.599	4.937	5.214	4.999	4.976	5.428	5.565
365.0	892.2	1280	1409	1318	1216	1166	1192	1306	1473	1604	1484	1310	1250	1204	1149	1111	1086	1091	1077	1066	1131	1135	877.9	726.9	622.7	527.4	524.9	1380	6391	9999.9	379.8	23.39	9.095	5.099	3.229	2.464	2.304	2.114	1.966	1.961	1.681	1.816	1.892	1.987	2.557	3.055	3.354	4.189	4.555	3.990	4.004	4.333	4.347	4.513	4.517	4.604	4.556	4.979	5.316	5.237	5.593	5.895	6.331	6.497	6.005	5.526	4.972	5.257	4.924	5.049	5.185	4.978	5.592	5.532	5.438	5.572	6.105
370.0	913.3	1302	1471	1437	1399	1370	1401	1550	1751	1845	1673	1411	1328	1282	1255	1252	1272	1313	1340	1342	1371	1414	1344	1117	934.1	779.6	618.2	705.2	1860	6053	8029	1541	30.32	11.67	5.746	3.690	2.700	2.565	2.391	2.061	1.843	2.030	2.008	2.244	2.498	3.153	3.616	4.233	4.691	4.421	4.269	5.076	5.422	5.330	5.335	5.067	5.376	5.704	5.903	6.054	6.595	7.125	7.373	7.402	6.674	6.069	5.603	5.390	5.312	5.423	5.383	5.561	5.845	6.038	6.025	6.582	7.051
375.0	962.9	1342	1565	1580	1578	1545	1598	1736	1941	2045	1835	1523	1440	1358	1353	1366	1408	1485	1554	1590	1640	1644	1663	1598	1340	1144	961.9	832.6	950.3	1740	3385	9717	2429	38.01	12.72	6.537	4.146	3.157	2.740	2.364	2.320	2.059	2.251	2.485	2.737	3.118	3.904	4.381	4.637	4.681	4.601	5.595	6.183	5.956	5.929	6.004	6.194	6.168	6.439	7.080	7.448	7.687	8.201	7.934	7.252	6.314	6.293	6.253	5.792	5.936	5.977	5.983	6.218	6.398	6.631	7.131	7.847
380.0	1027	1363	1595	1663	1696	1677	1696	1844	2039	2162	1938	1627	1571	1456	1432	1436	1488	1582	1678	1757	1825	1851	1865	1910	1737	1494	1307	1119	989.0	962.2	1186	5681	9999.9	1879	31.08	10.99	6.256	4.022	2.949	2.759	2.420	2.278	2.447	2.635	2.950	3.472	3.678	4.376	4.957	4.782	4.698	5.744	6.517	6.380	6.682	6.197	6.574	6.743	6.941	7.409	8.215	8.462	8.541	8.158	7.809	6.622	6.538	5.886	6.331	6.447	6.610	6.141	6.509	6.848	7.031	7.288	8.213
385.0	1064	1400	1657	1751	1786	1773	1796	1925	2139	2243	2025	1697	1667	1558	1522	1512	1562	1670	1786	1886	1992	2054	2075	2114	2097	1857	1649	1444	1245	1020	841.8	1822	7622	9507	299.7	24.17	10.44	5.736	3.885	3.404	2.781	2.637	2.520	2.982	3.098	3.654	3.968	4.730	5.049	5.103	4.893	6.062	6.538	6.919	6.656	6.293	6.922	7.257	7.317	7.629	8.201	8.722	8.657	8.499	8.406	7.174	6.723	6.138	6.411	6.807	6.554	6.559	6.864	7.146	7.401	7.898	8.533
390.0	1171	1493	1752	1843	1879	1886	1905	2046	2258	2351	2113	1759	1749	1706	1670	1624	1650	1770	1910	2046	2191	2301	2359	2396	2416	2339	2110	1884	1660	1365	1052	974.6	2294	6266	7520	2755	27.72	12.58	6.712	4.494	3.387	2.818	2.946	3.235	3.365	3.900	4.008	5.143	5.266	5.229	5.316	6.412	7.129	7.041	7.439	6.893	7.516	7.771	7.865	8.058	8.816	9.066	9.222	9.154	8.547	7.375	6.679	6.570	6.934	7.168	7.161	7.024	7.640	8.147	8.023	8.441	8.950
395.0	1273	1612	1830	1905	1928	1960	1975	2140	2326	2429	2211	1898	1890	1874	1843	1754	1704	1816	1975	2149	2332	2481	2602	2681	2731	2715	2636	2389	2154	1826	1439	1049	1042	1732	3576	8971	2084	34.05	13.48	7.167	4.596	3.265	3.502	3.557	3.786	4.126	4.303	5.209	5.299	5.380	5.327	6.718	7.424	7.382	7.538	7.027	7.949	7.575	8.230	8.492	8.861	9.342	9.360	9.469	8.660	7.584	7.447	7.062	7.542	7.702	7.900	8.016	8.422	8.665	8.416	8.764	9.475
400.0	1355	1687	1863	1922	1955	1973	2004	2168	2348	2463	2263	2020	2020	2027	1973	1820	1734	1807	1977	2160	2382	2574	2733	2861	2946	2943	2947	2800	2537	2191	1783	1280	940.1	834.0	1134	5036	9097	1705	29.20	10.41	6.064	4.567	4.122	3.867	4.042	4.477	4.401	5.320	5.613	5.308	5.664	6.860	7.501	7.367	7.312	7.130	7.859	8.029	8.450	8.861	9.058	9.161	10.14	9.203	8.789	7.923	7.762	7.555	7.928	8.518	8.384	8.829	8.913	8.934	8.914	9.157	9.448
405.0	1445	1727	1889	1941	1967	1981	2010	2174	2343	2466	2308	2123	2148	2173	2096	1873	1733	1786	1949	2151	2382	2592	2801	2976	3095	3135	3137	3118	2892	2531	2101	1556	1099	779.3	652.0	1531	6378	8586	274.5	21.54	8.822	5.881	4.434	4.227	4.386	4.380	4.745	5.419	5.523	5.392	5.514	6.872	7.512	7.269	7.242	7.041	7.740	8.180	8.314	8.578	9.060	9.283	9.707	9.371	8.984	8.494	8.352	7.953	8.507	8.912	8.960	9.289	9.629	9.368	9.120	8.997	9.483
410.0	1556	1777	1887	1915	1932	1946	2010	2168	2345	2459	2352	2200	2244	2299	2202	1922	1709	1733	1881	2089	2325	2566	2811	3024	3196	3280	3308	3306	3217	2881	2431	1855	1341	943.2	689.2	704.7	1830	5413	6489	2583	23.42	9.447	6.314	5.266	5.038	5.023	5.009	5.513	5.696	5.406	5.671	6.731	7.378	7.384	7.465	7.277	7.694	8.013	8.457	8.738	9.070	9.149	9.415	9.292	8.916	8.735	8.303	8.534	8.768	9.066	9.267	9.897	10.36	10.21	9.828	8.933	9.418
415.0	1564	1776	1845	1861	1886	1903	1983	2136	2303	2425	2345	2232	2298	2338	2246	1931	1663	1656	1790	1990	2231	2484	2734	2984	3180	3291	3365	3358	3318	3102	2651	2056	1526	1103	801.2	605.4	689.8	1378	2864	7869	1892	28.47	10.32	6.942	6.166	5.619	5.461	5.518	6.156	5.520	5.582	6.543	6.939	6.920	7.221	7.168	7.333	7.591	8.138	8.633	9.096	9.134	9.499	9.082	9.206	8.563	8.256	8.355	8.964	8.961	9.508	10.24	10.40	10.01	9.954	8.824	8.904
420.0	1526	1763	1802	1816	1822	1832	1920	2071	2246	2366	2329	2238	2300	2333	2232	1890	1624	1593	1696	1875	2117	2374	2631	2879	3085	3227	3307	3333	3294	3131	2746	2143	1610	1194	882.5	630.0	475.1	500.3	793.9	4361	7140	1452	22.97	9.112	7.032	6.226	5.467	5.632	5.980	5.405	5.416	6.484	6.999	6.617	6.793	6.919	7.454	7.577	7.859	7.843	8.857	8.864	9.077	9.082	9.071	8.828	8.081	8.486	9.129	9.445	9.210	10.08	9.986	10.09	9.274	9.241	8.919
425.0	1529	1703	1741	1760	1766	1792	1857	1996	2159	2295	2242	2201	2273	2296	2193	1846	1557	1510	1602	1771	1987	2234	2489	2745	2950	3108	3190	3237	3220	3061	2765	2193	1667	1255	947.6	683.0	471.4	341.2	324.0	1205	4675	5782	256.8	17.06	8.717	6.755	5.773	5.815	5.816	5.161	5.208	6.506	6.515	6.342	6.727	6.772	7.373	7.402	8.031	7.800	8.671	9.131	8.513	8.630	8.769	8.367	8.216	7.857	8.960	9.026	8.955	9.731	10.10	9.448	9.278	8.853	8.527
430.0	1558	1620	1661	1661	1683	1695	1779	1902	2053	2168	2162	2138	2193	2211	2099	1761	1478	1415	1482	1627	1816	2039	2283	2532	2745	2905	2995	3072	3062	2935	2670	2215	1720	1311	1017	759.2	535.1	367.3	272.0	402.2	1256	3495	4686	1071	21.27	8.492	6.507	6.200	5.947	5.238	5.068	6.264	6.352	6.456	6.342	6.361	7.338	7.022	7.540	7.583	7.967	8.401	8.046	8.243	8.212	7.872	8.015	7.781	8.401	8.575	8.766	9.216	9.659	9.184	8.501	8.322	8.134
435.0	1949	1545	1593	1544	1592	1617	1695	1795	1950	2049	2068	2064	2105	2112	1980	1673	1391	1320	1367	1475	1634	1852	2064	2297	2508	2658	2766	2851	2867	2766	2540	2144	1755	1367	1080	830.6	610.6	433.7	315.2	265.2	397.6	861.6	2029	5024	1736	25.93	8.636	6.940	6.299	5.255	4.699	6.168	6.120	5.946	6.324	5.952	6.819	6.668	7.062	7.278	7.230	7.863	7.629	7.780	8.254	7.268	7.511	7.508	8.040	8.159	8.606	8.753	8.867	8.618	7.797	8.012	7.731
440.0	2525	1536	1524	1505	1547	1561	1648	1735	1866	1965	1998	2002	2030	2023	1899	1589	1332	1253	1284	1377	1517	1699	1906	2121	2320	2464	2573	2667	2706	2630	2424	2063	1729	1401	1105	867.8	661.9	481.1	358.3	262.5	229.2	281.1	533.4	2768	5555	1313	18.85	8.046	6.496	5.045	4.937	5.885	5.905	5.816	5.970	5.979	6.609	6.650	6.993	7.014	6.988	7.353	7.541	7.352	7.506	7.141	6.871	7.336	7.515	7.901	8.198	8.489	8.724	8.557	7.864	7.292	7.251
445.0	2892	1889	1416	1450	1465	1499	1578	1678	1800	1888	1920	1932	1950	1926	1809	1511	1272	1185	1201	1276	1410	1565	1745	1948	2137	2284	2394	2474	2532	2472	2302	1971	1663	1404	1130	894.3	687.4	523.0	394.2	289.8	208.2	165.8	188.0	743.1	3604	4732	215.2	14.30	7.332	5.748	5.426	5.645	5.951	5.548	5.999	5.664	5.894	6.275	6.573	6.710	6.827	7.145	7.413	7.522	7.426	7.238	6.678	7.140	7.568	7.733	7.980	8.259	8.250	8.124	7.575	6.912	7.125
450.0	2137	2839	1506	1354	1357	1411	1476	1558	1684	1757	1812	1817	1823	1785	1662	1401	1176	1089	1097	1141	1245	1382	1538	1720	1888	2018	2118	2208	2270	2241	2098	1839	1562	1334	1130	915.5	719.5	562.0	435.0	325.4	232.9	162.1	125.7	221.7	939.0	2755	3915	960.4	17.72	7.175	5.922	5.808	5.875	5.502	5.594	5.425	5.707	6.161	6.257	6.505	6.410	6.846	6.567	7.012	6.955	6.624	6.309	6.677	6.948	7.214	7.468	7.532	7.490	7.441	7.256	6.566	6.518
455.0	1287	3048	2269	1246	1264	1325	1367	1445	1531	1629	1671	1682	1661	1626	1506	1259	1069	979.1	976.0	999.8	1082	1195	1344	1483	1623	1739	1837	1933	1988	1989	1886	1673	1447	1244	1082	920.8	735.0	584.6	464.0	357.4	260.0	183.8	130.1	117.4	257.6	655.6	1651	4059	1405	20.09	7.582	6.388	6.126	5.548	5.254	5.246	5.804	5.778	5.635	5.896	6.007	5.888	5.974	6.192	6.342	6.337	6.003	6.353	6.516	6.500	6.734	6.715	7.089	6.935	6.368	6.173	6.022
460.0	1016	2253	3194	1336	1172	1241	1298	1365	1435	1528	1563	1583	1564	1508	1388	1163	993.4	910.7	896.2	905.1	970.7	1064	1190	1316	1446	1551	1644	1724	1785	1807	1723	1546	1353	1173	1035	899.2	750.3	594.0	477.3	373.2	276.3	200.2	142.4	106.7	114.8	189.3	421.4	2166	4006	980.5	16.39	7.142	5.917	5.597	5.356	4.912	5.394	5.315	5.428	5.398	5.430	5.512	5.847	5.776	6.078	5.951	5.917	6.171	6.064	6.359	6.236	6.323	6.366	6.334	6.025	5.851	5.694
465.0	882.0	1425	3458	1826	1109	1156	1203	1258	1350	1429	1461	1483	1455	1386	1276	1082	915.3	841.5	821.6	822.4	869.7	955.5	1059	1175	1291	1384	1472	1544	1607	1628	1572	1419	1259	1108	976.8	854.9	741.6	601.8	484.3	380.2	289.2	213.3	155.0	114.7	92.35	92.94	134.0	573.0	2628	3497	176.1	12.92	6.830	5.771	5.181	4.581	5.305	4.975	5.468	5.088	5.479	5.237	5.557	5.464	5.809	5.636	5.352	6.060	5.521	5.829	6.069	5.971	5.715	5.934	5.472	5.279	5.213
470.0	820.9	992.6	2276	3113	1243	1046	1089	1145	1219	1289	1331	1333	1310	1239	1130	962.1	819.4	750.1	725.3	714.6	752.2	818.0	901.9	1002	1096	1177	1248	1320	1383	1403	1367	1258	1129	1002	894.1	785.0	689.4	590.3	484.1	380.2	296.0	221.6	167.8	126.1	99.67	81.81	79.58	168.1	690.0	2128	2713	849.5	18.54	6.807	5.738	4.780	5.057	4.610	4.727	4.619	4.873	4.835	5.083	5.070	5.395	5.127	4.971	5.218	5.478	5.124	5.299	5.084	5.219	5.089	4.934	4.586	4.746
475.0	732.3	822.6	1158	3161	2326	918.4	962.2	1024	1094	1150	1193	1192	1167	1084	982.3	835.8	713.9	654.4	622.8	616.5	636.7	686.3	761.1	837.0	911.6	979.4	1039	1097	1157	1190	1167	1087	986.8	890.4	801.3	711.1	622.2	548.1	474.0	375.2	291.5	226.4	174.9	136.5	109.3	88.70	74.78	84.11	189.9	504.8	1100	2786	1377	23.06	6.734	5.355	4.974	5.008	4.194	4.185	4.417	4.591	4.608	4.433	4.596	4.441	4.758	4.641	4.765	4.601	4.619	4.452	4.528	4.426	4.240	4.277	3.769
480.0	689.1	737.7	839.4	2167	3458	1023	891.9	952.2	1004	1055	1094	1097	1057	984.1	891.1	751.7	643.0	594.6	562.4	546.8	569.3	607.3	669.9	732.0	800.6	857.5	908.3	968.3	1020	1048	1036	973.4	890.6	811.6	733.5	657.3	581.4	509.1	452.8	371.0	289.8	226.7	178.9	140.7	115.0	95.04	77.78	68.63	82.88	143.2	280.2	1448	2951	1086	19.02	6.258	5.281	4.558	4.244	4.171	4.307	3.899	4.301	4.214	4.189	4.461	4.385	4.309	4.334	4.150	4.082	4.103	3.992	4.103	4.005	4.097	3.609
485.0	621.1	699.3	717.0	1176	3807	1654	826.3	880.4	936.6	976.5	1009	1013	971.6	899.1	804.3	689.4	592.1	540.7	519.9	492.2	511.3	541.8	591.3	652.7	708.8	756.3	800.9	855.2	907.5	933.0	924.6	882.4	810.9	740.0	676.7	611.9	544.5	476.8	424.7	365.0	288.4	224.8	180.9	146.7	120.6	98.99	84.43	70.29	62.91	65.67	89.11	383.0	1742	2881	218.0	13.50	6.136	4.612	4.409	4.049	4.177	3.864	4.164	4.205	3.928	4.000	4.324	4.153	4.020	4.013	4.051	3.643	3.726	3.652	3.712	3.600	3.522
490.0	527.1	668.2	649.7	764.4	2307	3216	996.1	792.6	843.4	883.7	909.9	912.7	875.9	797.9	716.0	613.2	525.4	481.5	456.7	435.6	443.3	472.3	510.5	560.2	607.2	650.9	688.8	735.1	776.4	803.1	809.7	768.2	715.6	658.3	608.8	554.7	494.6	436.5	386.2	337.9	283.5	224.4	181.8	150.1	126.4	106.6	91.80	77.44	64.66	54.30	51.77	111.0	443.3	1455	2363	900.8	18.65	5.692	4.657	4.141	3.965	3.574	3.818	3.686	3.737	3.607	3.625	3.909	3.786	3.762	3.417	3.260	3.449	3.204	3.170	3.183	3.136
495.0	421.3	576.8	612.0	606.7	1018	3409	2162	721.9	766.9	798.0	819.5	820.8	773.7	713.4	619.4	531.4	462.9	418.8	394.1	380.9	380.0	402.4	436.2	476.3	511.8	548.7	582.3	616.2	653.6	682.3	688.2	662.4	618.8	576.3	533.6	489.5	443.5	395.8	351.1	304.9	266.5	224.9	182.3	150.4	129.3	112.4	98.12	84.07	71.09	58.02	49.38	55.03	123.6	345.9	914.6	2487	1408	24.03	5.306	4.579	3.881	3.437	3.492	3.056	3.376	3.185	3.215	3.438	3.303	3.254	3.102	2.852	3.010	3.070	2.824	2.648	2.698
500.0	385.1	518.9	582.6	539.6	660.4	2233	3376	841.2	697.0	733.1	753.1	752.8	713.5	642.7	554.5	476.3	413.3	377.9	353.7	337.5	336.6	356.8	387.1	421.0	451.2	478.6	507.2	535.5	571.0	599.3	606.7	586.4	549.4	513.3	481.2	441.7	403.5	360.5	324.3	280.8	243.2	217.5	181.5	150.1	131.2	114.1	99.42	86.81	74.70	60.77	52.02	45.07	55.95	99.55	229.1	1159	2691	932.0	17.49	4.995	4.052	3.545	3.393	2.982	3.297	3.077	2.949	2.995	2.990	3.105	2.923	2.736	2.904	2.743	2.544	2.460	2.609
505.0	360.1	450.6	544.8	511.4	531.2	1084	3739	1645	631.6	673.3	682.2	676.0	645.1	577.4	504.3	430.3	368.4	337.9	315.7	302.5	305.3	316.6	342.3	370.4	396.9	422.6	446.0	473.5	504.9	526.8	535.2	516.9	490.2	459.2	432.4	400.6	365.8	332.9	298.8	261.3	226.4	200.9	179.2	150.8	129.7	115.1	100.1	88.10	76.79	64.66	54.91	46.14	42.30	46.61	71.35	295.8	1534	2432	222.8	11.31	4.233	3.556	3.141	3.025	2.796	2.638	2.578	2.670	2.821	2.780	2.690	2.509	2.466	2.639	2.375	2.149	2.295
510.0	298.2	380.3	444.9	487.3	460.1	603.4	2197	3425	801.8	603.9	604.8	595.8	564.9	494.9	434.1	366.7	321.5	292.1	273.1	260.1	258.5	271.2	287.2	311.8	333.6	353.9	372.6	397.2	423.5	443.5	451.4	438.2	416.4	391.1	369.8	344.5	317.4	288.0	262.2	231.0	203.2	178.8	163.7	148.6	127.0	111.0	99.85	87.62	77.06	65.79	57.22	48.41	42.05	37.93	38.71	84.46	387.4	1254	1659	853.8	16.67	3.803	3.227	2.929	2.763	2.559	2.368	2.462	2.404	2.362	2.522	2.255	2.292	2.014	2.030	1.970	1.891
515.0	248.6	308.8	349.6	456.3	418.1	436.2	859.5	3516	2063	530.4	525.6	516.8	480.6	422.2	366.5	308.3	268.5	246.1	231.1	218.0	219.3	224.2	239.0	258.5	276.7	292.1	306.2	323.5	349.6	366.5	375.7	362.8	349.5	328.5	308.5	289.3	268.8	246.4	225.6	202.8	179.7	158.6	143.7	136.5	123.3	108.0	95.32	84.31	75.64	65.64	57.63	49.49	42.78	36.98	32.67	38.82	101.8	292.8	636.6	2000	1092	21.15	3.443	2.712	2.666	2.296	2.067	2.193	2.101	1.967	2.104	1.786	1.886	1.572	1.519	1.556	1.610
520.0	213.0	275.5	302.8	394.8	407.4	373.0	493.9	2120	3890	659.5	475.1	460.0	432.2	378.1	320.1	277.9	231.9	212.2	203.1	192.9	190.4	194.9	210.5	224.1	239.6	251.6	264.6	280.6	300.5	315.3	322.0	314.9	301.4	284.8	269.4	253.9	237.1	218.0	200.9	183.6	163.9	145.0	130.4	123.7	119.0	105.9	91.99	81.46	72.78	63.77	56.68	49.36	43.18	37.58	31.31	28.78	38.57	77.10	156.6	962.9	2067	240.1	13.35	3.090	2.325	2.159	2.125	2.031	1.987	1.908	1.948	1.718	1.793	1.492	1.504	1.516	1.395
525.0	194.4	258.9	264.7	320.3	401.3	334.8	371.5	949.8	4592	1687	424.4	416.9	386.8	337.0	284.8	239.5	206.8	191.5	179.3	172.4	169.6	173.1	184.8	195.3	209.4	219.2	232.1	243.8	262.3	276.8	279.9	276.0	263.0	249.2	239.0	225.0	209.9	194.2	179.7	164.3	147.1	132.8	119.6	111.5	109.8	103.2	89.85	77.68	69.34	61.33	54.02	47.70	41.77	36.35	30.17	25.50	24.28	29.46	44.24	244.0	1223	1786	205.0	6.781	2.684	2.092	1.834	1.940	1.821	1.821	1.710	1.493	1.674	1.448	1.290	1.310	1.387
530.0	171.0	201.3	225.2	262.5	346.7	320.0	311.8	469.3	2539	4904	589.1	359.7	332.6	288.6	242.4	204.6	176.2	161.7	153.0	145.6	143.4	147.7	157.0	164.8	175.3	184.5	194.2	204.7	216.5	229.5	234.9	228.9	222.5	209.5	201.4	190.6	178.3	166.5	154.8	142.4	129.0	116.3	107.0	99.58	94.80	92.92	85.91	73.46	64.58	56.83	50.50	45.01	38.56	34.56	28.63	24.12	20.47	17.77	18.58	61.30	304.2	999.3	1394	575.7	14.17	2.241	1.994	1.808	1.836	1.521	1.463	1.352	1.300	1.248	1.179	1.288	1.171
535.0	149.2	170.6	196.8	214.3	256.1	328.0	277.7	322.3	840.6	4976	1733	320.3	282.3	244.8	205.1	170.2	149.6	136.9	128.4	120.4	121.1	123.4	128.7	139.1	144.1	151.1	160.3	169.0	178.8	189.8	192.3	188.9	182.7	174.5	165.7	158.3	148.2	138.5	131.7	121.9	110.5	99.74	93.83	86.59	82.31	79.24	76.37	70.07	59.40	52.14	46.37	40.57	35.27	31.42	27.26	22.71	18.45	14.96	12.51	20.02	72.52	228.6	559.8	1543	791.4	17.75	2.011	1.673	1.627	1.490	1.257	1.235	1.299	1.125	1.199	1.087	1.076
540.0	144.6	146.3	169.1	192.7	213.5	300.1	255.2	255.2	394.5	2712	3427	401.4	250.9	213.3	176.0	147.1	129.8	119.4	111.5	105.6	104.9	108.3	112.1	118.9	124.7	131.2	138.3	145.1	153.6	166.8	167.3	165.2	157.5	152.3	143.9	137.9	128.9	120.8	115.0	105.9	97.14	89.58	83.77	78.07	74.29	70.34	69.07	66.37	56.04	47.88	42.46	37.31	33.40	28.87	25.53	21.76	18.13	14.24	10.71	10.67	21.20	54.91	134.4	796.4	1657	230.0	9.295	1.844	1.547	1.518	1.167	1.146	1.094	0.906	1.028	1.027	0.955
545.0	129.7	138.2	154.6	167.4	180.5	254.1	266.5	227.8	265.5	1038	3912	1131	221.4	188.0	159.4	130.0	114.9	105.8	98.01	94.46	92.20	94.31	97.83	105.5	108.4	114.4	118.8	125.7	134.2	142.0	146.3	142.7	136.6	132.5	125.7	118.8	114.2	106.9	101.6	93.43	89.47	80.70	77.12	71.37	67.03	64.28	60.19	58.41	53.68	45.23	39.35	34.54	30.66	26.57	23.55	20.44	17.32	13.56	9.645	8.404	9.421	16.19	33.26	203.0	1063	1413	186.3	3.975	1.779	1.449	1.014	1.218	0.898	1.027	0.877	0.748	0.820
550.0	102.9	127.0	130.5	140.7	148.5	193.4	259.8	212.3	214.0	407.8	2030	3383	397.2	158.5	134.1	111.1	97.63	89.54	83.89	79.66	78.01	80.02	82.21	88.49	91.84	97.61	99.62	105.5	112.5	117.9	120.2	117.8	115.0	109.5	105.0	99.54	94.33	90.58	85.44	80.03	75.69	69.34	65.87	62.93	58.99	56.13	52.87	49.68	47.40	42.35	36.24	30.54	27.46	23.88	20.96	18.26	15.64	12.16	9.336	7.363	6.401	7.185	10.40	48.03	267.7	835.2	1273	518.7	12.31	1.411	1.121	1.040	0.882	0.825	0.767	0.691	0.728
555.0	88.60	106.4	114.5	116.9	124.1	143.7	215.4	225.1	182.2	232.6	630.4	3551	1399	140.6	110.1	91.64	81.01	75.55	69.92	66.16	65.01	67.05	70.01	73.11	75.84	78.95	81.00	85.16	91.45	94.59	98.47	97.33	93.74	88.29	85.68	80.98	77.04	75.31	70.85	66.17	62.59	58.50	54.85	52.80	49.73	48.07	44.23	41.23	39.24	37.94	33.25	27.44	23.94	21.59	18.62	16.16	13.73	11.20	9.113	6.436	5.360	5.077	5.237	12.94	61.82	190.0	536.1	1533	254.3	12.67	1.123	1.022	0.814	0.669	0.798	0.683	0.785
560.0	81.09	101.3	106.0	103.4	107.2	123.8	162.8	230.1	166.4	174.8	268.5	1867	2939	173.5	97.18	78.11	69.66	61.96	59.61	57.29	55.65	57.59	59.78	62.57	64.94	67.45	70.41	72.95	76.67	81.69	84.09	82.96	79.88	76.49	71.83	68.76	65.47	64.79	61.37	57.56	53.77	50.36	48.93	46.06	44.75	42.24	39.38	36.82	33.75	33.24	30.60	25.54	21.76	19.00	16.77	14.74	12.07	10.19	8.378	6.477	4.867	4.333	3.713	5.231	15.70	44.26	129.0	829.3	1424	205.6	4.584	1.033	0.762	0.696	0.496	0.586	0.760
565.0	84.28	89.30	93.76	87.70	92.84	105.1	124.7	216.1	158.7	148.1	172.7	666.9	3162	843.8	86.75	69.26	59.91	53.62	52.04	47.99	48.40	48.22	51.63	53.76	55.15	56.79	59.31	61.99	66.62	68.54	71.38	69.67	65.91	64.69	60.70	58.46	55.48	54.39	52.04	49.10	46.56	43.83	41.87	39.63	38.49	36.94	34.26	32.03	28.41	27.46	27.04	23.88	19.99	16.82	15.05	13.20	11.13	9.110	7.360	6.250	4.552	3.697	3.323	3.141	5.513	11.66	30.76	215.9	982.6	1094	31.95	1.559	0.803	0.717	0.610	0.511	0.660
570.0	64.90	84.20	76.78	72.32	77.41	81.18	91.74	153.1	181.2	125.9	129.6	240.8	1470	2481	230.1	56.15	47.83	43.71	41.14	38.42	38.71	38.62	41.14	42.62	42.73	44.77	45.56	48.57	52.01	53.82	55.82	53.54	52.41	50.28	48.56	46.73	44.40	42.58	41.19	39.48	37.03	35.22	33.84	31.78	31.46	30.08	27.76	25.65	23.28	21.50	20.60	19.96	17.35	14.56	12.67	10.81	9.404	7.328	6.408	5.254	4.335	3.334	2.871	2.523	2.837	4.081	8.374	49.91	251.5	710.5	703.5	136.0	5.932	0.729	0.615	0.547	0.454
575.0	62.95	72.85	63.74	56.96	60.46	64.09	67.84	96.17	173.8	124.8	107.5	124.7	411.3	2346	1021	47.73	36.86	32.53	30.81	31.12	29.22	28.87	30.64	32.07	32.34	34.05	34.90	36.67	39.53	39.92	41.28	41.32	38.92	37.37	35.69	35.50	33.47	32.45	30.37	30.13	28.00	26.73	25.58	24.74	23.97	22.87	21.38	19.71	18.50	16.67	15.17	14.97	14.59	12.18	10.21	8.525	7.496	6.373	5.073	3.985	3.466	3.442	2.496	1.978	2.088	2.215	3.309	12.38	57.22	162.0	318.8	698.6	180.7	2.482	0.607	0.511	0.377
580.0	56.41	70.41	59.85	53.09	51.10	54.95	59.35	71.47	140.1	140.8	94.45	95.92	151.8	1126	2215	94.36	30.66	27.56	25.06	25.43	22.96	24.39	25.05	26.01	25.93	26.51	28.02	28.99	31.08	31.75	32.93	32.88	31.76	30.67	28.40	28.54	27.10	25.53	24.28	24.29	22.42	21.61	20.88	20.40	19.80	18.07	17.50	16.17	15.56	13.61	12.61	11.68	11.84	10.70	8.661	6.804	6.144	5.081	4.104	3.442	2.831	2.819	2.411	1.794	1.772	1.781	1.858	3.839	13.94	37.30	77.83	415.4	580.4	29.96	0.895	0.487	0.378
585.0	56.47	60.36	51.91	45.46	44.74	46.08	51.27	60.10	101.8	151.3	90.13	81.79	89.65	358.2	2310	600.7	26.28	22.74	21.87	20.45	18.93	19.91	20.19	20.88	21.55	21.85	23.14	24.89	25.28	26.02	27.01	26.71	25.01	24.65	23.81	23.03	21.95	20.56	19.96	19.05	18.61	18.00	16.94	17.11	15.62	14.67	14.16	13.42	12.60	11.41	10.31	9.341	9.163	8.899	8.333	6.284	5.003	4.327	3.445	2.790	2.487	2.138	2.291	1.815	1.565	1.629	1.338	1.797	4.150	9.326	18.28	111.8	468.6	265.1	22.83	0.680	0.337
590.0	55.91	56.73	45.78	36.74	37.76	38.36	43.60	49.37	67.16	139.2	102.6	73.57	69.34	118.9	1014	1876	65.05	18.05	16.85	15.72	16.01	15.79	15.82	16.70	16.59	17.31	18.05	18.64	19.12	20.33	20.47	20.12	19.48	18.46	17.81	17.29	16.53	15.99	15.46	14.93	14.32	13.86	12.94	13.20	12.02	11.52	11.25	10.38	9.719	8.712	7.911	7.286	6.677	6.900	6.669	5.436	4.477	3.573	2.767	2.344	2.200	1.709	1.822	1.846	1.696	1.303	1.237	1.260	1.822	2.843	4.763	25.65	127.0	309.2	328.6	85.81	2.357
595.0	50.23	52.09	38.39	35.57	30.82	30.17	35.31	40.58	47.81	91.11	135.4	71.04	61.06	60.56	259.7	1765	719.4	16.73	13.17	12.54	12.72	11.64	12.75	12.41	12.66	13.99	13.70	13.68	14.98	15.38	15.51	15.37	14.86	13.94	13.69	12.66	12.79	12.51	11.57	11.82	10.68	10.27	10.62	9.830	9.607	8.976	8.384	7.963	7.388	6.654	6.290	5.593	4.931	4.613	4.957	4.709	3.908	2.933	2.205	1.977	1.589	1.317	1.317	1.286	1.522	1.312	1.057	0.965	1.153	1.307	1.641	6.361	28.83	72.37	213.1	396.1	33.69
600.0	46.23	47.52	39.67	30.42	26.24	28.91	30.30	36.80	44.23	64.59	129.5	77.40	55.63	44.16	80.33	828.9	1679	52.79	11.39	10.58	10.95	9.753	10.55	10.13	10.49	11.26	10.73	12.02	12.80	12.57	12.90	11.89	12.15	11.32	10.83	10.33	10.64	10.17	9.268	9.533	8.890	8.564	8.525	8.021	8.068	7.564	6.733	6.472	6.293	5.526	5.054	4.857	4.266	3.806	3.936	3.930	3.546	2.666	2.013	1.735	1.474	1.144	1.148	1.107	1.247	1.262	1.022	0.931	0.923	0.809	0.838	1.969	6.798	16.67	55.20	286.7	275.9
605.0	38.65	40.70	39.06	28.41	23.72	25.21	29.41	31.84	40.30	53.33	108.7	97.64	54.93	42.44	37.86	245.3	1806	421.8	10.39	8.677	8.596	9.030	9.298	8.807	9.212	9.394	9.554	9.705	9.878	10.34	10.81	10.16	9.875	9.263	8.987	8.700	8.433	8.154	7.575	7.660	7.544	7.185	6.846	6.504	6.342	6.291	5.996	5.637	4.994	4.558	4.174	3.926	3.784	3.168	3.070	3.219	2.956	2.393	1.962	1.382	1.269	1.117	0.963	0.957	1.028	1.223	1.190	0.902	0.864	0.679	0.647	0.918	1.884	4.035	12.71	84.08	285.9
610.0	38.54	35.74	32.36	24.49	19.69	22.23	25.94	30.79	38.61	49.37	78.70	114.7	65.25	43.08	31.91	72.46	819.2	1456	45.04	7.834	7.554	7.773	7.273	7.336	7.523	7.324	7.413	7.843	7.880	8.504	8.422	8.171	7.792	7.536	7.015	6.988	6.564	6.689	6.001	5.864	5.749	5.297	5.340	5.386	5.266	5.027	4.813	4.332	4.042	3.565	3.507	3.048	2.898	2.459	2.384	2.335	2.381	2.275	1.713	1.239	1.114	1.088	0.813	0.921	0.808	0.977	1.050	0.940	0.924	0.593	0.629	0.555	0.803	1.212	3.271	19.27	81.91
615.0	28.40	33.50	30.75	23.50	18.76	22.18	23.77	29.56	34.69	45.41	59.36	103.4	86.96	46.04	31.34	32.55	208.7	1486	553.4	7.404	6.613	6.101	5.959	6.103	5.979	5.952	5.898	6.008	6.335	6.607	6.343	6.229	5.948	6.154	5.443	5.188	5.268	5.063	4.661	4.399	4.625	4.225	4.371	4.197	3.941	3.979	3.781	3.301	3.259	2.973	2.561	2.318	2.182	1.948	1.833	1.786	1.759	1.788	1.545	1.358	0.947	0.778	0.750	0.653	0.731	0.766	0.817	0.943	0.804	0.586	0.466	0.487	0.447	0.635	0.984	4.712	18.73
620.0	27.68	32.12	28.21	22.43	18.46	19.94	23.74	31.14	32.80	43.97	52.78	84.28	97.16	44.54	30.01	25.20	61.13	750.7	1319	26.64	6.060	5.136	5.640	5.319	5.090	5.283	4.909	5.614	5.351	5.298	5.380	4.945	5.029	4.879	4.749	4.247	4.226	4.283	3.955	3.745	3.814	3.577	3.471	3.480	3.392	3.324	3.204	2.861	2.772	2.341	2.027	1.920	1.839	1.702	1.521	1.605	1.270	1.379	1.246	1.426	0.804	0.698	0.772	0.671	0.707	0.599	0.687	0.783	0.875	0.661	0.493	0.425	0.466	0.391	0.609	1.420	4.577
625.0	29.46	28.66	30.97	20.27	18.28	17.44	22.03	24.31	32.12	41.99	52.00	67.33	97.64	52.66	31.74	22.81	27.00	229.7	1514	228.9	5.436	4.858	4.761	4.242	4.246	4.740	4.254	4.416	4.545	4.635	4.568	4.207	4.177	4.174	3.824	3.426	3.615	3.418	3.179	3.118	2.874	2.967	2.903	2.902	2.699	2.755	2.615	2.298	2.168	2.072	1.751	1.569	1.482	1.424	1.407	1.185	1.101	1.040	1.211	1.204	1.016	0.591	0.612	0.629	0.715	0.612	0.633	0.579	0.801	0.882	0.500	0.381	0.357	0.342	0.402	0.662	1.376
630.0	27.91	29.19	26.74	18.21	16.04	15.78	19.84	23.16	29.83	37.34	48.19	54.36	78.27	72.01	32.68	23.11	19.91	64.43	746.3	864.5	28.13	4.424	4.117	3.927	3.755	3.946	3.628	3.760	3.748	3.829	3.909	3.487	3.459	3.183	3.104	2.739	3.085	2.689	2.792	2.497	2.414	2.518	2.330	2.310	2.169	2.230	1.977	1.872	1.709	1.608	1.503	1.404	1.198	1.095	1.125	1.082	0.949	0.815	0.891	0.986	0.890	0.686	0.579	0.565	0.575	0.622	0.607	0.526	0.602	0.672	0.614	0.425	0.369	0.297	0.350	0.438	0.535
635.0	27.96	33.78	28.43	16.10	17.07	16.08	18.01	21.72	28.21	36.78	43.80	49.99	59.56	76.30	37.98	22.19	18.35	26.23	184.6	1041	366.4	4.384	3.521	3.626	3.332	2.893	3.052	3.089	3.169	3.317	2.960	2.819	2.524	2.716	2.405	2.023	2.342	2.100	2.077	2.038	1.805	1.924	1.877	1.760	1.836	1.879	1.424	1.487	1.281	1.290	1.123	1.173	0.910	0.843	0.929	0.853	0.775	0.637	0.632	0.745	0.893	0.808	0.648	0.556	0.592	0.518	0.550	0.469	0.589	0.479	0.624	0.529	0.346	0.281	0.369	0.375	0.335
640.0	25.43	31.63	27.43	19.12	15.93	15.59	16.69	21.84	29.98	37.87	43.53	50.87	50.18	69.70	49.63	22.98	18.29	17.71	48.69	566.7	883.8	14.04	3.366	3.062	3.123	2.597	2.642	2.815	2.767	2.605	2.856	2.474	2.452	2.358	2.069	1.871	1.924	1.659	1.777	1.891	1.482	1.665	1.526	1.503	1.501	1.378	1.282	1.447	1.023	1.079	0.918	1.035	0.804	0.811	0.746	0.692	0.740	0.540	0.516	0.656	0.794	0.745	0.603	0.490	0.532	0.501	0.493	0.490	0.506	0.427	0.445	0.494	0.419	0.304	0.279	0.413	0.278
645.0	33.66	37.03	33.74	18.93	16.06	16.27	17.70	22.12	27.10	37.03	43.48	48.09	48.25	58.39	58.55	25.91	17.19	15.66	18.25	178.5	1131	64.37	3.252	2.655	2.786	2.554	2.279	2.353	2.376	2.381	2.428	2.219	2.018	1.804	1.840	1.582	1.747	1.588	1.475	1.579	1.377	1.412	1.262	1.346	1.252	1.153	1.281	1.135	0.970	0.791	0.745	0.851	0.728	0.636	0.583	0.630	0.695	0.461	0.522	0.514	0.519	0.706	0.615	0.476	0.464	0.447	0.478	0.461	0.456	0.464	0.280	0.445	0.484	0.409	0.248	0.382	0.286
650.0	44.49	46.53	36.57	21.78	16.26	14.58	18.33	20.42	27.61	35.55	41.79	48.04	49.17	48.10	59.96	30.48	18.28	14.41	12.00	47.25	831.5	477.1	4.282	2.420	2.403	2.191	2.199	2.168	2.055	2.082	2.120	2.068	1.805	1.731	1.545	1.428	1.399	1.598	1.328	1.422	1.108	1.192	1.320	1.061	1.048	1.007	1.081	1.064	0.930	0.719	0.696	0.831	0.684	0.670	0.587	0.542	0.545	0.529	0.447	0.470	0.391	0.541	0.620	0.516	0.414	0.411	0.546	0.355	0.454	0.511	0.296	0.467	0.553	0.414	0.303	0.301	0.253
