Sample:	'1
File name:	T2025041707 ãÆ¼Ò´å¶«ÇÅ.FD3
Run date:	'10:37:21, 04/21/2025
Operator:	Administrator
Comment:	'

Instrument
Model:	F-2700 FL Spectrophotometer
Serial number:	23B8-004
ROM Version:	4J14000 07

Instrument parameters
Measurement type:	3-D scan
Data mode:	Fluorescence
EX  Start WL:	220.0 nm
EX  End WL:	600.0 nm
EX Sampling interval:	5.0 nm
EM  Start WL:	230.0 nm
EM  End WL:	650.0 nm
EM Sampling interval:	5.0 nm
Scan speed:	12000 nm/min
EX Slit:	5.0 nm
EM Slit:	5.0 nm
PMT Voltage:	700 V
Response:	Auto 
Corrected spectra:	Off
Contour interval:	50.000

Peak integration
Integration method:	Rectangular
Sensitivity:	1
Threshold:	1.000

Peaks
No.	ApexEX/EM(nm)	Height(Data)
1	225.0/310.0	516.9
2	230.0/305.0	521.3
3	230.0/345.0	1137
4	230.0/500.0	309.3
5	230.0/560.0	62.52
6	230.0/580.0	60.64
7	230.0/600.0	52.54
8	230.0/625.0	39.51
9	235.0/510.0	265.2
10	240.0/265.0	347.3
11	240.0/525.0	232.0
12	245.0/270.0	348.8
13	245.0/535.0	200.0
14	250.0/275.0	444.4
15	250.0/545.0	159.0
16	255.0/280.0	571.5
17	255.0/560.0	132.5
18	260.0/285.0	573.6
19	260.0/570.0	109.1
20	265.0/585.0	107.1
21	270.0/300.0	951.9
22	270.0/595.0	92.71
23	275.0/305.0	1113
24	275.0/610.0	80.51
25	280.0/310.0	999.0
26	280.0/340.0	848.1
27	280.0/620.0	68.41
28	285.0/315.0	930.7
29	285.0/635.0	51.24
30	290.0/325.0	856.2
31	305.0/345.0	556.6
32	315.0/355.0	449.0
33	320.0/365.0	426.2
34	330.0/375.0	387.7
35	335.0/380.0	380.0
36	430.0/505.0	30.98
37	445.0/525.0	17.71
38	460.0/345.0	3.043
39	505.0/275.0	2.992
40	510.0/280.0	3.261
41	520.0/285.0	3.780
42	530.0/290.0	3.358
43	540.0/295.0	4.771
44	545.0/300.0	5.291
45	555.0/305.0	5.527
46	560.0/310.0	5.030
47	580.0/320.0	5.330
48	585.0/325.0	5.066

Data points
	220.0	225.0	230.0	235.0	240.0	245.0	250.0	255.0	260.0	265.0	270.0	275.0	280.0	285.0	290.0	295.0	300.0	305.0	310.0	315.0	320.0	325.0	330.0	335.0	340.0	345.0	350.0	355.0	360.0	365.0	370.0	375.0	380.0	385.0	390.0	395.0	400.0	405.0	410.0	415.0	420.0	425.0	430.0	435.0	440.0	445.0	450.0	455.0	460.0	465.0	470.0	475.0	480.0	485.0	490.0	495.0	500.0	505.0	510.0	515.0	520.0	525.0	530.0	535.0	540.0	545.0	550.0	555.0	560.0	565.0	570.0	575.0	580.0	585.0	590.0	595.0	600.0
230.0	33.73	475.3	1606	628.8	35.85	5.432	4.283	3.622	2.719	2.638	2.634	2.166	2.057	1.765	1.440	1.419	1.206	0.982	0.936	0.756	0.759	0.625	0.650	0.601	0.564	0.525	0.486	0.435	0.427	0.442	0.365	0.374	0.391	0.336	0.356	0.296	0.294	0.303	0.297	0.268	0.288	0.366	0.371	0.306	0.255	0.273	0.551	2.430	5.370	4.701	2.103	0.558	0.204	0.197	0.185	0.194	0.164	0.171	0.190	0.192	0.192	0.190	0.179	0.199	0.182	0.161	0.166	0.166	0.174	0.169	0.181	0.183	0.183	0.164	0.186	0.167	0.183
235.0	79.71	152.2	960.7	1916	558.2	65.19	4.213	3.788	3.326	2.868	3.103	2.487	2.127	1.735	1.864	1.206	1.127	1.157	0.821	0.846	0.953	0.684	0.712	0.626	0.627	0.684	0.458	0.396	0.439	0.465	0.425	0.354	0.349	0.290	0.289	0.304	0.270	0.337	0.331	0.327	0.285	0.298	0.364	0.472	0.395	0.381	0.294	0.713	1.953	3.935	6.271	7.476	4.170	1.017	0.269	0.177	0.211	0.229	0.183	0.227	0.185	0.216	0.171	0.193	0.257	0.166	0.152	0.141	0.180	0.138	0.176	0.162	0.250	0.184	0.163	0.186	0.203
240.0	115.2	122.1	280.6	1448	2357	460.7	35.32	4.836	4.628	3.926	3.082	2.825	2.245	2.263	2.032	1.197	1.000	1.178	0.818	0.783	0.867	0.833	0.754	0.640	0.699	0.576	0.478	0.409	0.470	0.490	0.348	0.422	0.363	0.386	0.348	0.310	0.326	0.300	0.297	0.352	0.275	0.303	0.251	0.389	0.467	0.587	0.463	0.403	0.590	1.180	3.036	8.037	12.04	8.865	3.547	0.638	0.274	0.217	0.185	0.206	0.186	0.167	0.177	0.177	0.197	0.154	0.176	0.161	0.159	0.133	0.189	0.162	0.200	0.206	0.161	0.161	0.192
245.0	87.27	169.0	133.4	460.5	2176	2605	353.7	16.45	5.432	4.007	3.630	2.978	2.760	2.562	1.705	1.255	1.176	1.251	0.929	0.765	0.819	0.752	0.738	0.682	0.676	0.602	0.557	0.491	0.432	0.416	0.449	0.370	0.388	0.389	0.337	0.289	0.282	0.297	0.321	0.386	0.296	0.294	0.246	0.287	0.324	0.580	0.626	0.603	0.427	0.413	0.885	2.508	6.952	12.69	15.00	8.687	2.806	0.456	0.198	0.210	0.196	0.156	0.209	0.185	0.170	0.186	0.172	0.189	0.186	0.188	0.176	0.160	0.235	0.185	0.166	0.208	0.153
250.0	41.60	120.7	214.8	208.0	647.5	2110	3050	1240	86.11	5.741	4.739	3.727	3.298	2.282	2.147	1.574	1.380	1.384	0.969	0.882	0.882	0.762	0.798	0.713	0.694	0.601	0.560	0.464	0.460	0.433	0.482	0.419	0.379	0.356	0.321	0.303	0.313	0.328	0.311	0.349	0.311	0.378	0.308	0.261	0.249	0.327	0.420	0.652	0.785	0.787	0.629	0.844	1.799	3.909	7.658	11.59	15.74	15.74	9.759	3.075	0.458	0.182	0.226	0.173	0.223	0.180	0.183	0.178	0.184	0.172	0.178	0.186	0.195	0.205	0.175	0.212	0.183
255.0	26.32	45.44	134.2	319.0	259.5	521.8	1862	4620	1789	103.3	6.581	4.777	3.898	3.099	2.209	1.896	1.507	1.389	1.208	1.038	0.940	1.030	0.721	0.684	0.775	0.671	0.631	0.490	0.569	0.538	0.567	0.479	0.417	0.393	0.354	0.336	0.331	0.365	0.307	0.299	0.308	0.307	0.274	0.271	0.283	0.277	0.281	0.342	0.445	0.777	1.064	1.345	0.878	1.079	1.906	2.914	5.086	11.81	24.44	27.19	16.01	3.536	0.345	0.222	0.235	0.205	0.233	0.198	0.209	0.218	0.206	0.192	0.153	0.164	0.193	0.222	0.205
260.0	30.41	27.16	49.21	246.3	326.0	192.7	520.9	3043	5560	1411	52.98	6.586	5.115	3.209	2.826	2.138	1.738	1.622	1.326	1.318	0.940	0.969	0.803	0.683	0.803	0.787	0.639	0.518	0.552	0.579	0.478	0.518	0.425	0.414	0.396	0.377	0.293	0.325	0.289	0.250	0.342	0.292	0.401	0.250	0.251	0.336	0.237	0.253	0.316	0.402	0.635	1.371	1.686	1.096	0.756	0.835	1.447	3.128	9.272	21.46	33.61	26.34	12.58	2.032	0.252	0.251	0.247	0.241	0.271	0.227	0.218	0.194	0.213	0.202	0.242	0.233	0.243
265.0	29.76	26.29	24.52	104.0	347.3	277.4	160.1	918.2	4566	6010	232.9	23.16	7.063	4.333	3.295	2.447	1.989	1.586	1.423	1.533	1.014	0.975	0.767	0.768	0.620	0.753	0.610	0.616	0.528	0.513	0.616	0.508	0.405	0.440	0.348	0.432	0.345	0.393	0.317	0.365	0.312	0.299	0.236	0.323	0.289	0.312	0.286	0.243	0.263	0.241	0.346	0.671	1.297	1.979	1.544	0.763	0.586	0.893	2.412	5.835	15.33	30.24	40.28	24.25	7.802	0.874	0.297	0.235	0.200	0.211	0.280	0.239	0.195	0.180	0.241	0.285	0.198
270.0	47.38	50.35	41.80	45.96	150.6	348.8	305.0	265.9	1303	4336	6293	2476	70.38	7.136	4.481	3.254	2.564	1.840	1.592	1.465	1.173	1.056	0.998	0.878	0.811	0.783	0.704	0.743	0.564	0.658	0.623	0.570	0.435	0.438	0.409	0.429	0.423	0.371	0.348	0.370	0.336	0.353	0.318	0.366	0.347	0.354	0.338	0.325	0.290	0.270	0.286	0.372	0.538	1.017	1.499	1.870	1.910	1.097	0.976	1.612	3.788	8.229	16.78	27.07	29.63	33.53	16.34	6.935	0.821	0.283	0.271	0.233	0.239	0.202	0.278	0.250	0.213
275.0	106.1	127.7	114.1	66.93	60.50	143.6	444.4	348.4	352.7	1048	3225	8962	1305	72.91	7.129	4.684	3.344	2.359	2.192	1.714	1.294	1.189	1.114	0.932	0.863	0.779	0.719	0.700	0.650	0.645	0.654	0.536	0.497	0.501	0.593	0.547	0.456	0.395	0.445	0.438	0.328	0.454	0.407	0.371	0.437	0.535	0.479	0.457	0.406	0.395	0.344	0.314	0.319	0.497	0.604	0.936	1.976	2.992	2.442	1.268	1.174	2.136	4.055	6.467	8.372	19.13	41.41	55.24	25.73	7.864	0.593	0.259	0.318	0.241	0.260	0.282	0.256
280.0	167.5	216.3	189.6	112.7	63.16	67.59	252.1	571.5	284.6	308.6	882.3	5124	9858	963.5	36.40	6.503	4.386	3.024	2.488	1.907	1.772	1.392	1.205	0.999	0.933	0.964	0.730	0.805	0.679	0.746	0.652	0.673	0.634	0.559	0.532	0.621	0.556	0.478	0.519	0.517	0.360	0.438	0.475	0.519	0.577	0.620	0.644	0.700	0.667	0.551	0.496	0.476	0.402	0.388	0.424	0.505	0.878	1.610	3.261	3.103	1.792	0.981	1.311	1.933	2.397	5.027	12.84	32.86	54.65	33.72	20.28	3.801	0.429	0.310	0.298	0.276	0.325
285.0	223.1	316.5	270.7	164.8	79.78	60.26	116.0	434.2	573.6	235.5	309.5	1455	7263	7966	638.7	15.16	5.313	3.602	2.717	2.164	1.852	1.524	1.289	1.135	1.050	0.919	0.941	0.831	0.793	0.739	0.647	0.652	0.640	0.650	0.718	0.744	0.590	0.504	0.592	0.519	0.519	0.465	0.479	0.524	0.617	0.641	0.819	1.038	0.793	0.756	0.585	0.533	0.451	0.411	0.360	0.436	0.567	0.815	1.642	2.958	3.780	2.531	1.165	1.027	1.110	1.780	3.416	8.462	19.84	38.29	58.69	31.23	14.16	1.680	0.363	0.306	0.298
290.0	291.0	403.5	371.7	227.3	117.5	79.94	95.92	207.5	509.2	618.4	341.3	507.1	2002	5322	6701	2078	36.88	5.927	3.824	2.916	2.253	1.860	1.485	1.362	1.153	1.094	0.974	0.938	0.813	0.808	0.725	0.704	0.678	0.749	0.773	0.787	0.648	0.700	0.593	0.538	0.475	0.535	0.597	0.601	0.797	0.906	1.010	1.280	1.188	1.015	0.802	0.766	0.613	0.534	0.427	0.537	0.570	0.679	0.903	1.317	2.240	3.045	3.358	2.771	1.917	1.483	1.734	2.887	5.342	10.04	20.50	30.25	42.47	38.71	20.53	11.09	1.860
295.0	328.4	446.9	439.3	296.2	160.8	119.5	130.8	178.8	289.2	620.3	818.6	441.5	679.6	1354	3119	7966	718.4	38.20	5.629	3.628	2.890	2.060	1.782	1.595	1.396	1.258	1.053	1.002	0.822	0.841	0.823	0.778	0.553	0.715	0.845	0.787	0.764	0.784	0.587	0.610	0.586	0.603	0.543	0.667	0.969	1.023	1.182	1.333	1.197	1.206	0.969	0.863	0.755	0.649	0.646	0.747	0.665	0.723	0.883	1.018	1.288	1.735	2.101	3.691	4.771	3.469	1.955	2.032	2.419	3.374	5.686	7.586	10.89	16.23	36.68	67.94	31.87
300.0	365.9	493.6	497.9	336.4	195.0	150.0	173.5	212.7	281.9	466.6	951.9	761.2	471.4	512.1	884.1	4437	7375	561.3	17.35	5.304	3.392	2.582	2.161	1.904	1.543	1.450	1.156	1.101	0.879	0.867	0.829	0.694	0.796	0.800	0.914	0.715	0.907	0.830	0.779	0.760	0.624	0.643	0.596	0.763	0.946	1.104	1.344	1.416	1.559	1.315	1.151	1.025	0.944	0.747	0.701	0.736	0.913	0.954	1.007	1.271	1.363	1.524	1.705	2.341	3.999	5.291	4.555	2.966	2.291	2.200	2.708	2.928	3.374	4.438	10.55	30.81	51.79
305.0	364.5	498.5	521.3	360.7	217.6	187.4	215.8	263.3	337.5	449.7	753.4	1113	627.9	399.2	373.6	1244	5631	5043	78.42	8.842	4.143	3.219	2.594	2.107	1.790	1.441	1.407	1.151	0.951	1.007	0.851	0.704	0.942	0.889	0.911	0.860	0.850	0.727	0.798	0.772	0.661	0.726	0.737	0.759	0.987	1.204	1.258	1.469	1.541	1.308	1.197	1.072	1.065	0.862	0.860	0.819	0.983	1.156	1.147	1.484	1.610	1.704	1.833	2.269	2.879	3.778	5.357	5.527	3.920	2.418	2.338	2.188	1.919	2.038	3.304	7.827	16.45
310.0	381.2	516.9	513.8	382.0	251.2	227.2	259.0	316.1	390.5	495.3	632.7	903.4	999.0	576.2	322.3	408.9	1546	4097	4763	1387	22.42	4.181	3.184	2.584	1.882	1.567	1.556	1.053	1.180	1.029	0.908	0.819	0.932	0.968	0.931	0.834	0.845	0.781	0.791	0.709	0.643	0.775	0.768	0.849	0.941	1.259	1.169	1.509	1.594	1.411	1.231	1.232	1.157	1.028	1.072	0.943	1.214	1.389	1.412	1.633	1.809	2.021	2.166	2.369	2.632	3.137	3.572	4.606	5.030	4.768	3.788	2.867	2.011	1.860	1.902	2.699	4.494
315.0	362.7	505.3	526.7	403.3	280.9	262.5	293.6	353.8	434.8	539.5	629.9	737.7	852.8	930.7	459.9	273.8	464.8	1007	2585	6060	502.4	21.60	4.711	3.358	2.402	1.892	1.625	1.532	1.228	1.130	1.030	0.862	0.899	0.888	0.819	0.830	0.874	0.805	0.796	0.747	0.692	0.722	0.736	0.831	1.059	1.300	1.260	1.547	1.546	1.466	1.217	1.190	1.181	1.131	1.221	1.076	1.390	1.571	1.693	1.850	1.941	2.217	2.406	2.678	2.664	3.126	2.972	3.446	4.003	4.073	4.908	4.997	3.163	2.266	1.787	1.798	1.911
320.0	400.4	562.7	599.7	438.5	324.0	295.0	325.5	390.9	467.6	570.5	667.2	725.9	755.4	901.3	730.4	317.9	263.3	331.6	707.0	3822	4170	391.7	10.65	4.195	2.723	2.298	1.856	1.552	1.263	1.212	1.184	0.959	1.001	0.934	0.938	0.819	0.959	0.776	0.727	0.796	0.806	0.828	0.788	0.892	1.061	1.251	1.424	1.826	1.787	1.543	1.385	1.381	1.326	1.211	1.225	1.303	1.635	1.620	1.826	1.834	2.086	2.367	2.580	2.539	2.926	3.200	3.131	3.417	3.407	3.700	3.905	5.014	5.330	4.011	2.255	1.713	1.654
325.0	446.1	684.9	747.6	555.7	378.2	338.9	355.6	408.1	489.4	600.8	702.7	757.9	758.8	761.6	856.2	498.0	265.6	208.9	244.1	1094	4332	3626	57.78	6.678	3.510	2.580	2.009	1.565	1.653	1.375	1.163	1.215	0.969	0.823	0.820	0.799	0.834	0.718	0.703	0.688	0.710	0.822	0.761	0.924	0.948	1.389	1.715	2.003	1.972	1.868	1.766	1.598	1.519	1.451	1.343	1.330	1.672	1.650	1.865	2.067	2.237	2.339	2.939	2.781	2.984	3.129	3.448	3.558	3.414	3.669	3.652	3.933	4.585	5.066	4.290	2.478	2.082
330.0	497.9	784.7	922.2	735.1	480.3	380.8	385.1	435.1	518.7	629.8	733.1	799.7	800.8	736.8	718.2	685.6	432.5	232.1	173.9	325.8	1243	3378	3795	1004	16.79	3.967	2.746	1.933	1.594	1.379	1.312	1.180	0.977	1.041	0.929	0.880	0.799	0.778	0.771	0.728	0.747	0.782	0.830	0.945	1.131	1.448	1.855	2.284	2.654	2.468	2.210	2.147	1.979	1.714	1.650	1.487	1.708	1.722	1.956	2.186	2.388	2.527	2.835	3.073	2.998	3.250	3.581	3.583	3.642	3.756	3.756	3.708	3.737	3.909	3.945	4.258	3.742
335.0	521.1	891.9	1061	867.9	583.5	448.5	424.7	469.8	550.3	657.6	760.9	823.4	839.9	773.2	679.8	604.1	636.7	377.7	201.4	187.9	352.0	822.7	2462	4981	402.7	16.27	3.819	2.686	2.000	1.577	1.540	1.239	1.127	1.012	0.988	0.942	0.844	0.907	0.835	0.757	0.774	0.780	0.870	0.986	1.251	1.604	1.972	2.566	2.996	2.630	2.620	2.439	2.398	1.951	1.748	1.799	1.842	1.919	2.041	2.169	2.416	2.607	3.016	3.012	3.364	3.589	3.884	3.684	4.056	3.991	4.061	3.563	3.920	3.703	3.599	3.298	3.785
340.0	546.1	900.9	1115	943.9	647.9	490.6	456.3	490.1	565.9	667.7	770.4	843.5	848.1	789.7	697.1	569.7	588.8	543.6	269.6	181.7	171.6	241.3	673.2	3558	3384	315.1	7.712	3.462	2.435	1.883	1.609	1.465	1.373	1.073	0.920	0.912	0.791	0.845	0.716	0.773	0.658	0.751	0.887	1.077	1.158	1.648	1.998	2.612	2.842	2.928	2.726	2.713	2.634	2.008	1.843	1.922	1.925	2.012	2.286	2.211	2.499	2.521	2.891	3.076	3.553	3.651	3.829	3.699	3.644	4.086	4.288	3.923	3.838	3.996	3.440	3.277	3.482
345.0	558.4	875.8	1137	982.3	697.7	530.3	481.1	502.5	571.5	672.4	763.9	837.9	847.8	791.8	704.7	574.5	512.0	556.6	405.1	211.8	151.1	131.4	203.3	1056	3898	2948	49.01	5.639	2.997	2.340	1.500	1.386	1.237	1.192	0.981	0.918	0.878	0.879	0.807	0.766	0.685	0.796	0.969	1.127	1.232	1.680	1.945	2.750	3.043	3.024	2.673	2.955	2.680	2.264	1.985	2.008	2.125	1.994	2.213	2.156	2.547	2.578	2.743	3.053	3.561	3.413	3.723	3.601	3.599	3.922	4.282	4.076	4.230	3.894	3.458	3.471	3.373
350.0	538.3	842.1	1106	1003	727.6	566.3	502.9	508.8	580.5	657.6	742.7	803.9	816.2	783.8	699.5	585.2	498.6	468.7	475.7	344.9	190.3	137.9	122.6	290.5	1158	2987	3067	783.1	14.20	2.956	2.127	1.607	1.314	1.272	0.988	0.958	0.924	0.903	0.833	0.844	0.743	0.845	0.865	1.057	1.196	1.551	1.897	2.548	2.855	2.808	2.710	3.059	2.769	2.396	2.273	2.241	2.133	2.156	2.313	2.237	2.518	2.605	2.801	2.970	3.264	3.372	3.615	3.564	3.734	3.844	3.959	4.010	3.877	3.692	3.425	3.129	3.242
355.0	493.6	797.2	1033	979.0	754.7	605.1	547.2	532.1	588.0	653.6	725.7	778.9	791.3	767.2	703.9	603.5	518.9	452.4	415.8	449.0	311.4	178.7	134.9	142.6	308.0	730.3	2137	4027	358.6	13.48	3.178	2.137	1.627	1.319	1.169	0.966	0.934	0.885	0.829	0.856	0.802	0.836	0.849	0.983	1.197	1.471	1.806	2.356	2.677	2.847	2.846	3.036	2.670	2.534	2.338	2.167	2.366	2.226	2.439	2.278	2.546	2.612	3.003	2.894	3.277	3.465	3.325	3.584	3.497	3.571	3.884	3.788	3.726	3.812	3.539	3.599	3.446
360.0	492.5	734.7	974.7	948.2	773.8	637.0	571.6	560.7	595.1	657.3	710.1	754.3	771.7	751.5	698.8	613.5	542.3	463.9	410.7	418.8	419.2	251.4	165.9	130.1	138.9	209.4	590.2	3088	3035	286.6	6.446	2.637	1.994	1.402	1.241	0.994	1.039	0.930	0.821	0.821	0.821	0.799	0.838	1.017	1.181	1.572	1.670	2.341	2.584	2.811	2.730	3.058	2.715	2.689	2.287	2.226	2.463	2.368	2.344	2.495	2.722	2.618	2.804	2.777	3.125	3.281	3.234	3.554	3.355	3.517	3.770	3.691	3.790	3.727	3.630	3.472	3.436
365.0	467.1	701.1	932.5	913.0	785.6	659.5	597.0	567.1	601.0	661.9	708.5	737.2	754.0	733.1	690.3	614.5	553.2	485.4	427.0	388.4	426.2	356.5	208.3	149.7	119.5	107.4	172.1	943.5	3478	2661	44.23	4.201	2.246	1.627	1.498	1.274	0.961	0.991	0.880	0.747	0.844	0.806	0.860	1.075	1.193	1.489	1.584	2.250	2.394	2.576	2.533	3.022	2.846	2.627	2.637	2.154	2.524	2.420	2.521	2.662	2.540	2.727	2.959	3.056	3.196	3.253	3.377	3.478	3.540	3.617	3.709	3.739	3.847	3.435	3.686	3.536	3.616
370.0	458.4	666.8	889.3	890.7	785.9	679.1	613.5	591.2	611.1	662.2	700.2	718.6	730.3	713.6	680.2	613.1	563.1	506.9	452.3	407.0	388.0	397.5	323.6	205.7	146.4	110.9	97.72	253.2	1051	2732	2827	194.8	12.94	2.622	1.801	1.370	1.061	1.082	1.088	0.824	0.907	0.754	0.832	0.959	1.075	1.365	1.575	2.049	2.262	2.363	2.395	2.776	2.858	2.695	2.640	2.351	2.635	2.677	2.502	2.612	2.566	2.824	2.938	2.955	3.231	3.113	3.150	3.384	3.468	3.537	3.502	3.550	3.725	3.537	3.433	3.508	3.669
375.0	444.7	637.5	847.1	869.9	786.2	709.7	642.1	609.8	629.7	668.5	688.7	697.5	709.4	699.8	658.3	617.3	567.5	525.5	479.7	434.5	395.9	367.7	387.7	312.7	192.6	139.3	108.2	118.2	276.6	669.7	2115	2878	311.7	12.21	2.553	1.755	1.282	1.289	1.082	1.033	0.821	0.905	0.777	0.958	1.144	1.326	1.422	1.960	2.061	2.246	2.360	2.743	2.889	2.763	2.694	2.567	2.735	2.716	2.487	2.607	2.900	2.826	2.914	2.857	3.157	3.234	3.075	3.136	3.179	3.206	3.434	3.334	3.737	3.586	3.591	3.477	3.485
380.0	407.0	635.9	813.9	838.7	789.4	719.9	652.3	616.9	635.7	662.6	686.5	681.7	691.0	684.6	642.2	611.5	568.9	534.9	492.6	453.2	409.7	371.9	367.5	380.0	256.0	170.6	128.3	103.3	116.6	188.3	591.5	2519	2631	240.1	5.317	2.118	1.862	1.261	1.083	0.926	0.700	0.850	0.906	1.004	1.024	1.307	1.467	1.906	2.105	2.000	2.230	2.648	2.721	2.665	2.686	2.629	2.686	2.768	2.578	2.645	3.024	2.808	3.110	2.871	3.032	3.188	3.122	3.282	3.150	3.255	3.395	3.269	3.539	3.553	3.468	3.388	3.691
385.0	421.4	615.8	787.4	826.7	801.8	726.4	667.2	639.1	642.6	652.2	675.7	671.2	676.6	667.3	634.0	598.1	566.0	536.2	505.3	467.5	427.4	384.5	355.9	374.9	331.3	212.2	153.9	117.0	95.87	89.51	168.6	771.1	2902	2210	36.93	3.699	2.122	1.585	1.092	1.045	0.811	0.907	0.933	0.947	0.984	1.237	1.426	1.968	2.109	2.100	2.060	2.741	2.877	2.682	2.742	2.721	2.796	2.684	2.672	2.841	2.855	2.821	2.897	2.945	3.035	2.971	3.162	3.107	3.220	3.235	3.297	3.425	3.293	3.543	3.501	3.381	3.750
390.0	404.9	584.3	744.7	810.7	776.9	729.1	673.0	645.7	637.7	648.7	660.3	658.9	661.7	649.2	621.6	585.1	555.9	534.3	509.5	476.1	441.4	404.6	370.0	348.7	350.5	298.7	203.0	148.5	114.4	89.40	87.03	207.0	854.8	2096	2056	551.2	11.39	2.275	1.385	1.175	1.049	0.860	0.921	0.929	0.992	1.148	1.395	1.853	1.932	2.054	2.064	2.651	2.926	2.612	2.872	2.616	2.862	2.645	2.650	2.821	2.769	2.755	2.961	2.911	3.149	2.883	2.981	3.065	3.121	2.979	3.208	3.322	3.269	3.370	3.402	3.262	3.560
395.0	395.8	563.7	728.0	791.6	766.6	735.4	682.0	655.2	641.3	636.3	642.3	646.0	648.1	629.3	600.4	571.7	549.1	524.1	506.6	480.5	450.3	421.4	388.6	358.8	330.5	331.0	284.6	193.0	144.7	115.2	89.07	94.64	222.2	509.0	1407	2377	265.5	12.23	2.083	1.407	1.268	0.972	1.029	1.000	1.104	1.268	1.327	1.801	1.775	1.845	2.040	2.607	2.791	2.766	2.874	2.727	2.885	2.748	2.662	2.797	2.861	2.793	2.881	2.838	2.985	2.858	2.760	2.959	3.017	3.175	3.097	3.330	3.244	3.244	3.264	3.417	3.448
400.0	379.8	562.0	712.4	782.9	773.1	739.7	681.2	669.8	638.4	637.3	643.4	639.7	637.9	622.2	590.2	557.3	537.1	518.8	500.1	475.8	452.5	425.3	403.4	370.2	335.1	318.0	322.0	247.5	175.3	139.9	104.5	81.97	89.76	140.7	382.6	1823	2162	221.8	5.916	1.761	1.419	1.117	1.033	1.219	1.161	1.325	1.366	1.734	1.865	1.998	1.956	2.479	2.638	2.844	2.702	2.867	2.676	2.821	2.701	2.856	2.923	3.090	2.912	2.846	2.984	2.768	2.895	2.824	2.978	3.102	3.126	3.255	3.418	3.145	3.290	3.379	3.432
405.0	400.8	552.4	711.3	772.6	756.8	735.8	680.4	661.5	652.3	631.8	639.7	628.1	616.4	604.9	581.2	543.2	518.9	507.5	489.1	473.9	448.0	427.7	408.3	379.9	344.1	314.9	315.7	303.3	212.9	162.0	123.5	90.39	70.62	65.50	109.8	532.0	2036	1891	34.71	3.225	1.852	1.322	1.123	1.153	1.162	1.174	1.317	1.637	1.918	2.057	1.971	2.581	2.677	2.696	2.742	2.803	3.013	2.772	2.859	2.670	2.873	2.885	2.980	3.045	3.136	2.670	2.949	2.921	2.815	3.225	3.111	3.246	3.252	3.185	3.238	3.320	3.350
410.0	380.9	523.3	684.9	752.1	746.7	728.2	693.0	657.6	645.1	623.9	635.7	616.2	602.4	588.6	560.4	523.0	499.8	487.3	469.9	457.4	443.5	421.9	405.9	386.3	356.7	325.0	302.0	304.4	275.0	201.8	147.1	108.6	80.20	58.85	55.58	140.7	571.8	1524	1666	518.5	11.54	1.952	1.324	1.176	1.222	1.391	1.308	1.694	1.829	1.900	1.965	2.459	2.767	2.554	2.741	2.750	2.836	2.770	2.974	2.933	2.785	2.729	2.849	2.995	2.856	2.674	2.654	2.940	2.796	3.044	2.873	3.053	3.187	2.959	3.187	3.139	3.266
415.0	375.7	485.1	654.4	718.5	726.6	713.2	688.9	653.2	642.9	620.5	620.4	604.1	583.7	561.1	535.4	494.2	474.9	459.1	450.1	436.5	424.4	411.3	399.1	386.2	363.8	330.8	302.5	284.8	285.7	258.5	176.4	127.9	93.55	69.48	52.38	58.38	146.4	362.4	959.0	2036	251.6	13.87	1.811	1.525	1.364	1.457	1.387	1.650	1.851	1.787	1.994	2.273	2.639	2.793	2.728	2.732	2.721	2.637	2.897	2.644	2.777	2.827	2.624	2.709	2.681	2.484	2.588	2.823	2.725	2.708	2.771	2.829	3.024	2.730	2.838	2.915	3.113
420.0	344.1	486.1	632.1	680.1	704.3	691.4	671.5	644.3	624.4	604.9	607.5	587.9	563.0	539.4	510.9	476.3	452.2	438.4	428.0	418.3	410.7	399.6	388.0	377.7	355.7	328.0	305.5	285.3	269.2	276.3	212.5	143.1	105.7	76.57	55.98	45.12	54.92	95.94	248.6	1288	1753	219.2	7.605	1.768	1.444	1.549	1.375	1.599	1.823	1.964	1.958	2.253	2.487	2.532	2.770	2.711	2.865	2.621	2.790	2.608	2.622	2.747	2.852	2.713	2.802	2.634	2.714	2.644	2.538	2.760	2.630	2.695	3.002	2.779	2.830	2.928	2.961
425.0	328.8	476.3	619.8	663.5	695.4	692.6	663.2	639.9	617.6	600.0	584.6	570.8	546.6	523.2	494.0	454.3	435.1	420.9	409.1	400.6	389.9	382.0	376.2	371.6	351.8	328.1	306.5	283.7	262.7	258.6	240.7	165.8	115.3	86.48	62.86	46.24	38.50	40.02	68.23	351.5	1374	1543	34.45	3.675	1.916	1.623	1.460	1.639	1.862	1.898	1.706	2.139	2.402	2.256	2.639	2.543	2.638	2.643	2.792	2.550	2.585	2.671	2.683	2.638	2.762	2.517	2.713	2.552	2.614	2.820	2.608	2.597	2.705	2.885	2.740	2.811	2.829
430.0	354.0	461.4	593.2	649.4	666.3	668.1	657.0	630.7	612.8	594.6	576.2	555.1	525.1	497.9	470.1	432.4	408.9	398.3	386.2	377.5	370.1	364.5	359.4	355.4	341.6	321.6	303.0	284.5	260.7	243.1	233.0	201.0	140.3	98.69	72.71	54.71	41.79	32.33	31.64	90.16	364.1	1031	1327	505.6	13.16	1.983	1.709	1.803	1.789	1.755	1.724	2.281	2.398	2.353	2.482	2.347	2.707	2.710	2.698	2.645	2.740	2.719	2.647	2.409	2.634	2.580	2.544	2.401	2.499	2.534	2.485	2.652	2.466	2.495	2.517	2.739	2.493
435.0	443.8	445.7	556.9	625.3	646.3	642.0	641.7	632.2	601.0	584.7	573.2	542.8	511.9	478.4	447.1	409.8	388.7	377.9	365.9	358.1	350.4	346.2	342.3	337.9	329.0	313.4	296.4	283.2	263.5	241.6	215.6	200.2	174.1	117.6	83.70	64.54	47.57	36.26	28.58	36.19	92.03	240.5	618.5	1591	790.7	17.80	1.982	1.951	1.825	1.770	1.665	2.265	2.291	2.254	2.273	2.359	2.733	2.530	2.687	2.805	2.616	2.506	2.524	2.526	2.598	2.549	2.542	2.331	2.374	2.464	2.478	2.633	2.486	2.377	2.362	2.501	2.323
440.0	532.9	467.8	544.4	616.9	624.2	639.1	622.9	615.1	588.5	580.3	558.5	530.6	490.2	466.3	428.1	391.8	368.9	353.9	349.1	341.2	330.8	328.5	327.2	323.9	317.7	302.6	288.2	280.9	261.8	239.9	213.2	188.7	179.8	140.5	94.29	69.98	54.26	41.09	30.53	26.32	33.79	63.58	154.3	849.2	1724	232.4	11.22	2.207	1.998	1.816	1.836	2.218	2.296	2.358	2.349	2.320	2.625	2.577	2.700	2.638	2.650	2.474	2.713	2.424	2.579	2.639	2.538	2.369	2.208	2.425	2.273	2.375	2.388	2.378	2.286	2.499	2.308
445.0	594.4	574.5	518.1	594.2	618.0	615.8	616.2	596.6	580.5	565.1	547.8	513.6	472.9	446.9	405.0	376.7	350.3	339.1	328.6	322.0	311.7	312.8	311.1	307.7	305.0	292.7	280.0	271.8	255.9	235.3	210.7	181.2	168.6	155.1	110.4	75.78	59.29	44.72	33.64	26.76	22.77	25.36	43.30	217.9	1074	1520	178.4	6.542	2.295	1.805	1.879	2.129	2.405	2.260	2.282	2.357	2.424	2.497	2.798	2.741	2.555	2.666	2.728	2.480	2.565	2.381	2.361	2.332	2.375	2.306	2.375	2.116	2.416	2.345	1.996	2.312	2.385
450.0	453.7	870.8	622.0	547.7	564.9	578.2	586.2	567.6	557.0	542.5	523.4	486.5	447.9	418.1	378.1	344.4	323.6	311.2	300.6	295.1	289.7	287.9	288.9	286.2	283.9	271.0	265.6	258.1	241.5	228.3	206.2	178.1	154.6	143.1	127.2	90.90	65.24	49.18	38.45	29.78	23.69	19.94	20.07	56.67	270.0	839.3	1253	511.8	13.24	2.254	1.845	2.137	2.378	2.166	2.294	2.242	2.503	2.360	2.490	2.557	2.542	2.612	2.580	2.381	2.433	2.184	2.357	2.198	2.205	2.168	2.183	2.095	2.317	2.142	2.105	2.210	2.183
455.0	293.3	894.4	1070	524.7	521.7	546.8	539.5	530.9	531.5	513.8	488.9	457.6	423.4	386.2	347.3	314.2	295.7	283.4	274.2	268.6	261.1	260.2	261.8	258.8	259.7	249.7	243.0	237.7	227.0	213.9	196.9	170.9	147.4	128.1	119.7	107.6	76.32	53.70	41.89	33.27	25.41	20.68	16.72	22.00	67.11	193.8	453.9	1231	734.2	17.38	2.301	2.176	2.144	2.090	2.340	2.103	2.348	2.400	2.435	2.371	2.395	2.646	2.369	2.191	2.411	2.027	2.331	2.208	2.062	1.934	2.074	1.932	2.119	1.974	1.948	2.029	1.940
460.0	230.8	641.6	1435	654.2	494.8	502.3	502.7	499.2	494.4	478.5	457.7	427.7	398.5	361.7	323.5	292.4	274.6	262.6	256.6	248.5	240.2	240.1	240.2	239.9	237.0	231.1	225.5	223.1	214.5	201.9	188.0	163.6	142.3	120.9	107.5	108.0	88.01	59.04	44.40	34.98	27.95	22.11	17.22	15.41	22.86	49.91	109.6	544.0	1335	184.4	12.30	2.348	2.229	2.058	2.123	2.099	2.272	2.205	2.290	2.231	2.291	2.379	2.174	2.286	2.181	2.213	2.312	1.932	2.091	1.934	1.877	1.818	1.873	1.901	1.673	1.867	1.803
465.0	225.3	403.3	1442	942.7	466.5	475.7	473.4	466.4	461.5	452.5	435.3	410.2	376.8	338.2	302.9	271.6	257.8	245.3	235.3	230.1	224.2	220.8	222.9	221.4	218.1	215.7	209.5	207.5	200.6	191.5	177.9	158.0	135.5	115.7	101.0	96.00	91.00	66.30	46.83	36.88	29.47	23.37	18.68	15.05	13.96	18.34	30.47	133.9	730.0	1150	160.0	9.222	2.349	2.098	2.054	2.030	2.369	2.191	2.102	2.178	1.989	2.030	2.051	2.240	1.958	2.083	2.069	1.898	1.894	1.749	1.890	1.772	1.920	1.759	1.750	1.719	1.732
470.0	228.7	303.2	868.7	1638	621.4	429.0	432.7	432.7	425.4	416.0	398.2	377.0	347.5	305.0	271.4	248.2	228.0	219.8	210.9	203.3	198.1	196.9	196.0	196.3	196.1	190.9	188.1	187.2	182.8	174.8	163.7	146.8	127.0	109.6	94.87	84.16	79.87	73.18	53.91	38.61	30.75	24.70	19.80	15.98	13.12	12.10	13.42	35.25	178.5	565.3	867.0	499.3	14.47	2.383	2.168	1.953	2.058	2.226	1.952	2.096	1.887	2.045	2.056	2.015	1.863	1.858	1.837	1.861	1.749	1.695	1.709	1.721	1.737	1.568	1.686	1.605	1.650
475.0	236.0	249.0	449.5	1418	1373	423.5	389.7	386.9	381.4	383.6	362.2	340.2	311.5	274.1	244.4	220.5	202.7	195.0	185.9	177.8	173.5	174.8	171.9	174.1	173.0	169.3	167.9	165.4	163.4	156.5	148.1	133.2	116.7	103.5	87.67	77.52	67.65	65.15	61.16	43.47	31.81	25.22	21.10	17.21	13.88	11.51	9.924	13.23	44.48	130.3	280.3	841.6	586.9	20.13	2.234	1.945	2.031	1.842	1.705	1.737	1.862	1.769	1.858	1.835	1.633	1.665	1.555	1.520	1.512	1.681	1.586	1.467	1.539	1.470	1.535	1.326	1.557
480.0	212.9	256.4	323.3	892.3	1892	564.4	361.3	358.0	360.7	355.1	339.5	314.2	283.4	256.4	227.8	200.4	187.0	177.3	168.0	165.0	160.2	156.7	157.6	158.5	157.0	156.2	152.4	151.3	151.9	144.8	138.0	123.5	111.1	96.77	83.19	73.37	63.29	57.66	57.97	50.10	33.67	25.71	21.30	17.61	14.36	12.28	9.862	9.030	15.06	33.35	67.27	328.1	964.7	209.8	14.82	2.170	2.046	1.826	1.802	1.796	1.761	1.800	1.715	1.648	1.705	1.548	1.505	1.518	1.517	1.602	1.519	1.395	1.470	1.319	1.413	1.233	1.213
485.0	185.1	271.6	287.0	495.5	1802	1119	342.3	340.6	338.7	331.6	321.1	296.2	264.6	239.9	216.3	187.4	174.8	164.1	159.1	153.3	148.1	146.6	146.2	145.3	146.2	143.2	140.6	142.1	140.6	135.5	130.3	116.6	104.2	91.82	79.29	69.75	60.27	52.52	51.37	52.06	38.29	26.52	21.84	18.40	15.14	12.99	10.22	8.739	8.915	12.10	18.73	80.39	487.6	914.5	186.5	8.059	2.154	1.896	1.722	1.605	1.616	1.693	1.667	1.674	1.562	1.580	1.577	1.508	1.463	1.351	1.377	1.367	1.276	1.364	1.275	1.192	1.199
490.0	145.5	264.7	280.3	324.3	1023	1806	575.3	312.6	312.6	307.7	293.5	271.9	245.4	222.2	194.7	172.0	160.1	147.6	143.2	138.3	134.5	132.4	130.6	131.0	131.6	128.1	126.1	126.7	127.1	123.0	118.5	108.8	97.19	85.21	74.94	66.00	57.63	49.71	45.51	45.58	42.28	31.68	22.97	19.09	15.68	13.23	11.25	9.638	7.854	7.719	8.199	21.64	117.8	409.6	751.0	457.9	15.82	2.311	1.857	1.621	1.519	1.502	1.709	1.619	1.467	1.406	1.445	1.368	1.271	1.315	1.293	1.215	1.315	1.261	1.155	1.110	1.167
495.0	123.9	238.1	295.0	275.3	453.0	1535	1360	309.6	283.0	275.5	265.2	245.5	220.7	201.1	173.6	156.6	144.9	134.3	128.5	122.6	118.1	118.4	114.8	115.7	117.1	113.1	112.4	113.2	112.6	111.0	107.1	98.25	88.59	78.50	68.67	61.78	53.12	46.49	41.91	37.95	38.93	36.59	26.07	19.11	16.11	13.79	11.90	9.812	8.495	7.033	6.336	8.637	29.33	94.21	245.5	776.7	601.3	22.12	2.019	1.684	1.546	1.403	1.538	1.493	1.357	1.282	1.400	1.221	1.204	1.272	1.100	1.137	1.125	1.181	1.045	1.091	0.993
500.0	111.7	180.5	309.3	251.9	279.3	910.0	1972	402.1	263.4	249.3	243.4	227.3	203.4	182.1	157.2	141.5	131.3	120.8	114.4	111.5	108.1	105.8	105.2	105.7	105.0	101.4	102.1	103.1	101.4	100.3	97.53	87.57	80.63	72.95	63.98	56.81	51.00	44.10	39.24	34.70	32.40	34.33	29.41	20.23	16.11	13.73	11.94	9.937	8.647	7.001	5.670	5.706	9.816	23.76	58.16	294.9	900.3	229.7	15.28	1.730	1.628	1.288	1.366	1.432	1.314	1.284	1.358	1.296	1.175	1.134	1.157	1.055	1.023	0.994	0.989	0.994	0.942
505.0	99.70	152.4	275.1	258.2	226.2	452.7	1935	970.9	246.1	226.4	224.9	211.8	185.6	167.6	145.6	128.9	119.3	111.7	104.1	102.0	97.26	95.97	95.82	96.15	93.84	92.36	92.54	93.60	93.56	92.29	88.59	80.21	74.78	67.10	59.87	53.68	47.63	41.66	36.89	32.14	28.65	30.21	30.98	23.11	16.23	13.48	11.34	9.924	8.483	7.449	5.965	5.020	5.663	8.259	15.85	70.89	419.7	853.5	197.4	7.926	1.635	1.481	1.374	1.192	1.361	1.254	1.230	1.126	1.100	1.075	1.130	1.057	0.971	1.022	0.950	0.994	0.929
510.0	88.95	123.2	211.6	265.2	209.0	260.1	1042	1820	436.6	207.0	203.4	185.8	167.5	149.7	130.1	113.3	103.9	98.63	93.22	88.44	85.80	83.59	82.86	83.37	82.05	79.83	80.63	80.69	81.00	80.21	78.23	72.23	65.43	59.25	53.31	47.48	42.12	38.05	33.54	28.96	26.54	24.30	25.62	24.71	18.38	13.68	11.17	9.729	8.260	7.204	6.127	5.367	4.743	4.643	6.148	18.14	99.85	366.2	623.8	379.4	15.07	1.522	1.315	1.208	1.219	1.127	1.061	0.970	1.000	0.959	0.981	0.991	0.874	0.912	0.887	0.856	0.804
515.0	76.19	106.9	158.6	250.9	216.0	194.3	389.5	1659	1247	200.9	178.2	167.7	147.5	130.0	114.3	100.2	91.61	85.58	81.27	76.31	74.65	72.68	72.04	70.18	70.38	68.62	68.53	68.99	69.89	69.50	66.96	62.79	57.08	52.18	47.22	41.75	38.01	33.85	30.03	26.64	23.63	21.31	20.28	22.10	21.00	15.52	10.87	9.425	8.015	6.996	6.062	5.473	4.747	3.910	3.900	6.420	24.37	83.50	191.5	611.7	472.0	20.81	1.363	1.287	1.118	1.134	0.934	0.904	0.888	0.845	0.839	0.897	0.754	0.638	0.779	0.770	0.777
520.0	76.24	88.79	133.6	208.0	225.8	167.0	211.9	945.7	1961	282.2	159.0	148.1	136.2	116.6	101.8	90.73	83.99	76.32	73.24	69.01	66.30	64.19	64.30	62.07	63.64	60.84	63.60	61.01	63.43	61.99	59.88	56.52	51.25	47.28	42.27	38.50	34.36	31.24	27.22	24.66	22.13	19.21	17.75	18.15	20.63	17.60	11.81	9.125	7.664	6.629	5.956	5.206	4.933	3.893	3.170	3.604	7.518	20.58	45.17	236.3	690.9	222.5	13.01	1.292	1.080	1.098	0.883	0.970	0.968	0.784	0.823	0.777	0.685	0.654	0.653	0.787	0.653
525.0	59.47	86.87	110.9	157.2	232.0	160.5	164.2	411.6	2086	846.8	151.2	131.3	122.3	105.8	90.00	82.26	74.90	69.34	65.55	61.04	59.19	57.24	56.43	56.03	56.52	54.02	54.91	55.13	55.42	55.36	53.70	50.42	47.71	41.90	37.83	34.01	31.10	28.72	25.75	22.37	20.19	17.92	16.62	15.32	17.20	17.71	12.82	9.383	7.479	6.500	5.610	4.760	4.555	4.351	3.295	2.953	3.554	6.499	11.86	56.62	317.7	620.1	181.1	4.944	0.987	1.003	0.905	0.900	0.841	0.696	0.708	0.756	0.611	0.628	0.718	0.667	0.677
530.0	56.56	76.99	100.8	118.4	194.8	176.2	134.0	193.7	1123	1849	321.2	118.8	105.5	93.38	80.57	71.34	63.72	59.71	56.03	54.16	51.50	50.18	48.90	48.88	48.96	47.51	47.69	47.52	48.12	48.02	46.60	43.94	41.42	36.72	33.86	30.47	28.08	25.22	22.72	20.57	18.04	16.56	14.50	13.34	13.25	14.98	14.44	10.33	7.268	6.050	5.248	4.698	4.154	4.182	3.603	2.875	2.841	3.338	4.363	14.25	75.91	267.5	459.6	232.8	13.33	1.105	0.904	0.779	0.786	0.645	0.679	0.601	0.684	0.627	0.673	0.646	0.596
535.0	47.95	69.39	82.52	96.41	138.3	200.0	130.9	126.3	369.0	1771	1135	114.6	91.24	79.37	69.16	61.80	56.13	51.66	48.11	45.31	43.62	43.07	42.34	41.34	41.12	40.16	40.55	40.72	40.93	40.66	40.41	37.58	33.24	32.13	29.72	26.60	24.08	21.51	19.59	17.38	16.34	14.08	12.77	11.60	11.37	10.95	13.11	11.64	8.096	5.964	5.038	4.522	3.747	3.543	3.559	3.062	2.569	2.439	2.565	4.660	18.19	60.95	141.0	440.2	234.9	17.41	1.080	0.781	0.737	0.569	0.604	0.521	0.661	0.528	0.504	0.618	0.623
540.0	45.10	57.76	74.49	89.76	98.15	184.2	140.8	103.7	162.8	955.0	1926	185.3	81.19	72.13	62.13	54.28	49.06	45.33	43.17	40.36	38.14	38.41	37.01	36.28	37.13	35.18	35.72	35.38	36.08	36.05	34.79	33.40	30.17	28.03	25.84	23.74	20.96	19.27	17.91	15.19	14.39	13.12	11.86	10.36	9.831	9.010	10.41	11.42	8.902	5.912	4.611	4.003	3.579	3.419	3.315	3.281	2.442	2.282	2.058	2.498	5.480	14.80	33.08	169.8	472.5	201.3	9.755	0.788	0.698	0.613	0.586	0.555	0.545	0.491	0.583	0.556	0.576
545.0	42.43	60.85	69.88	79.29	82.10	140.6	159.0	94.16	103.1	369.4	2057	637.2	75.36	65.14	54.54	49.17	43.19	39.37	37.58	35.53	34.00	32.97	32.04	31.51	32.20	30.56	30.79	31.72	32.38	31.79	31.00	28.79	26.02	24.60	22.74	20.52	18.31	16.91	16.21	14.22	12.54	11.51	10.43	9.592	9.002	7.765	8.163	9.480	9.090	6.412	4.508	3.810	3.345	3.082	2.918	2.854	2.644	2.219	1.912	1.780	2.532	4.466	8.489	40.38	227.0	458.8	142.3	3.591	0.752	0.557	0.558	0.559	0.520	0.623	0.440	0.494	0.475
550.0	44.29	54.81	63.70	66.01	66.13	97.83	153.5	103.4	82.78	145.1	1027	1619	137.0	53.67	46.44	41.46	36.96	33.27	31.51	30.24	28.64	27.52	26.95	26.27	26.86	25.27	25.42	26.12	26.60	26.18	25.69	24.36	22.09	20.70	18.60	17.53	15.63	14.28	13.60	12.10	10.77	9.933	9.243	8.657	7.622	6.842	6.619	6.845	7.531	6.954	4.953	3.624	2.995	2.645	2.611	2.512	2.637	2.386	1.762	1.518	1.732	2.053	2.820	10.02	54.01	193.1	321.2	135.7	12.20	0.782	0.635	0.505	0.485	0.464	0.469	0.421	0.413
555.0	47.21	52.36	59.72	58.26	56.24	63.83	113.9	120.0	66.55	80.51	302.2	1606	805.9	51.12	40.43	33.53	30.39	27.49	25.54	24.05	23.39	22.84	21.80	21.08	21.71	20.12	20.76	21.07	20.49	21.78	21.07	19.43	17.76	16.93	15.52	14.28	12.72	11.94	11.06	10.12	9.019	8.493	7.595	6.639	6.192	5.806	5.223	5.147	5.521	6.407	5.603	3.683	2.843	2.462	2.357	2.173	2.124	2.303	1.942	1.637	1.373	1.477	1.542	3.158	12.86	43.99	97.44	292.5	203.1	15.06	0.668	0.570	0.526	0.412	0.419	0.441	0.408
560.0	45.56	57.21	62.52	52.46	47.68	52.78	73.98	132.5	66.13	62.61	114.2	831.9	1456	99.66	34.58	28.32	25.64	23.19	21.89	20.24	19.96	18.76	18.06	18.73	18.30	16.89	17.18	17.49	17.73	17.91	17.50	16.41	15.33	14.18	13.05	11.75	10.50	9.892	9.390	8.904	7.757	7.374	6.550	5.730	5.425	5.382	4.673	4.428	4.191	4.908	5.404	3.934	2.710	2.120	2.092	1.859	1.700	1.912	2.001	1.755	1.262	1.264	1.222	1.512	3.682	10.50	22.66	111.0	303.9	154.0	6.780	0.620	0.477	0.399	0.417	0.359	0.432
565.0	44.48	56.46	60.99	48.63	40.72	45.59	50.58	121.9	84.29	53.51	66.09	294.1	1737	378.2	28.96	24.24	21.78	20.38	18.89	18.14	16.13	15.86	15.47	15.60	15.31	14.41	14.38	15.09	15.23	15.85	14.83	14.06	12.91	11.46	11.29	10.33	9.111	8.761	8.152	7.265	6.857	6.060	5.749	5.056	4.759	4.666	3.968	3.679	3.534	3.616	4.578	4.149	2.754	2.121	1.948	1.683	1.447	1.601	1.704	1.838	1.369	1.168	1.221	1.120	1.588	3.209	5.771	26.41	136.4	290.7	33.40	2.512	0.460	0.409	0.403	0.334	0.384
570.0	44.89	58.25	61.63	49.63	37.54	38.55	40.36	82.50	109.1	51.21	50.79	102.1	865.3	1176	72.82	20.16	17.68	16.96	14.92	15.09	13.60	12.80	12.80	12.18	12.38	12.03	11.92	11.84	12.43	12.43	12.31	10.92	10.53	9.360	9.224	8.070	7.521	7.121	6.517	6.129	5.631	5.035	4.665	4.273	3.977	3.827	3.306	3.105	2.845	2.620	3.073	3.589	3.035	2.174	1.768	1.475	1.376	1.410	1.337	1.494	1.585	1.181	1.056	0.941	1.058	1.388	1.937	6.600	32.23	116.6	176.7	103.0	10.85	0.561	0.439	0.313	0.348
575.0	42.02	55.56	56.58	48.37	35.11	32.93	33.98	49.76	106.8	69.71	43.49	56.78	241.5	1212	507.7	20.66	14.37	13.01	12.36	12.20	11.42	10.67	10.12	9.708	9.780	9.392	9.740	9.364	9.738	9.676	9.627	9.131	8.620	7.898	7.573	6.459	6.315	5.615	5.332	4.848	4.467	4.205	3.793	3.573	3.220	3.031	2.714	2.684	2.381	2.217	2.105	2.431	2.813	2.583	1.705	1.380	1.160	1.154	1.060	1.171	1.431	1.393	1.074	0.823	0.906	0.894	1.085	2.119	7.813	26.61	52.55	165.6	139.1	12.13	0.456	0.380	0.342
580.0	41.71	56.18	60.64	43.99	31.48	26.97	30.32	36.86	83.03	91.42	44.01	43.20	81.78	626.3	1019	44.38	13.00	11.59	10.30	10.44	9.594	9.096	8.142	8.172	8.548	7.680	8.003	8.134	8.072	8.342	8.108	7.883	6.762	6.717	6.001	5.384	5.465	4.793	4.547	3.908	3.825	3.405	3.231	3.124	2.705	2.508	2.274	2.303	2.246	1.776	1.780	1.891	2.271	2.630	1.797	1.319	1.117	1.063	1.065	1.088	1.201	1.198	1.166	0.921	0.908	0.869	0.886	1.050	2.308	6.517	12.52	59.89	184.0	99.03	5.205	0.382	0.309
585.0	47.07	56.10	58.03	37.20	26.83	26.28	27.66	29.44	59.42	107.1	48.71	40.65	44.98	212.9	1221	110.5	11.85	9.865	8.813	9.383	8.553	7.523	6.940	7.344	7.751	6.657	6.916	6.997	6.631	7.060	6.699	6.813	5.769	5.592	5.254	4.734	4.525	4.075	4.040	3.540	3.107	2.989	2.761	2.641	2.472	2.186	2.044	2.104	1.997	1.695	1.572	1.562	1.717	2.394	1.973	1.451	1.139	0.857	0.987	0.973	0.964	0.980	1.209	1.127	0.848	0.803	0.714	0.801	1.025	2.044	3.391	14.32	77.04	170.2	33.25	2.232	0.373
590.0	42.12	54.63	50.49	38.35	28.57	23.73	25.55	26.93	39.05	91.10	70.94	38.13	35.89	69.54	612.2	722.8	37.36	8.454	8.009	7.486	6.571	5.984	6.428	5.974	5.854	5.341	5.620	5.687	5.416	5.849	5.493	5.218	4.673	4.409	4.378	3.889	3.441	3.429	3.235	2.957	2.656	2.644	2.301	2.091	2.064	1.927	1.800	1.735	1.601	1.452	1.325	1.326	1.226	1.558	1.862	1.556	1.084	0.785	0.843	0.786	0.788	0.819	0.921	1.117	0.885	0.782	0.704	0.654	0.774	1.054	1.273	3.708	18.17	64.96	119.9	77.02	9.754
595.0	35.68	45.74	52.02	34.33	24.84	21.01	22.91	26.86	29.38	58.89	92.71	44.59	35.62	35.02	164.4	805.5	263.7	8.586	6.865	6.088	5.189	5.033	5.158	4.716	4.645	4.393	4.318	4.682	4.368	4.746	4.333	4.127	3.929	3.590	3.411	3.023	3.010	2.866	2.585	2.378	2.131	2.255	1.897	1.728	1.738	1.544	1.433	1.550	1.333	1.226	1.178	0.992	1.012	1.107	1.482	1.460	1.125	0.834	0.795	0.619	0.672	0.693	0.708	0.860	1.031	0.912	0.728	0.685	0.614	0.717	0.868	1.296	4.503	14.79	33.78	106.4	93.59
600.0	39.35	46.73	52.54	34.13	22.66	20.11	21.58	23.73	28.70	43.05	89.84	56.58	34.30	26.98	50.41	433.0	609.9	18.60	5.842	5.272	4.346	4.466	4.270	4.253	3.721	3.781	3.985	3.679	3.962	3.955	3.709	3.642	3.623	3.116	2.823	2.517	2.319	2.367	2.284	1.883	1.802	1.763	1.572	1.533	1.416	1.391	1.215	1.307	1.206	1.052	0.922	0.821	0.870	0.811	1.061	1.411	1.359	0.987	0.744	0.538	0.640	0.626	0.635	0.563	0.807	0.910	0.776	0.563	0.536	0.613	0.578	0.676	1.345	3.635	7.859	35.94	110.8
605.0	38.68	41.55	42.24	30.28	24.93	21.20	20.66	23.69	28.96	35.55	74.22	69.73	36.03	26.11	24.16	146.5	746.8	74.38	5.135	4.392	4.092	3.912	3.942	3.535	3.234	3.185	3.364	3.281	3.296	3.232	3.158	3.436	2.837	2.598	2.260	2.396	2.211	1.948	1.940	1.609	1.620	1.607	1.332	1.214	1.254	1.150	1.112	1.082	0.961	0.858	0.878	0.823	0.789	0.696	0.749	1.132	1.183	0.937	0.785	0.590	0.567	0.564	0.520	0.507	0.666	0.811	0.895	0.643	0.487	0.575	0.496	0.504	0.678	1.155	2.107	8.443	42.50
610.0	34.38	43.58	40.93	27.73	23.06	20.74	19.78	24.11	28.30	34.71	52.29	80.51	43.91	27.25	19.46	43.67	397.1	426.4	18.49	3.899	3.380	3.352	2.972	2.957	2.816	2.587	2.596	2.761	2.776	2.724	2.683	2.562	2.378	2.141	1.974	1.962	1.900	1.609	1.570	1.353	1.363	1.288	1.196	1.130	1.069	1.047	0.996	0.881	0.783	0.722	0.686	0.671	0.637	0.638	0.601	0.767	0.963	1.022	0.871	0.663	0.534	0.558	0.515	0.525	0.559	0.645	0.762	0.725	0.589	0.513	0.513	0.438	0.477	0.580	0.755	2.166	9.891
615.0	31.96	39.00	38.45	27.68	24.31	19.78	20.33	22.07	26.13	33.49	41.19	67.66	61.02	27.53	18.68	18.16	106.8	517.1	78.46	3.438	2.911	2.501	2.603	2.460	2.375	2.112	2.093	2.233	2.389	2.314	2.095	1.948	1.751	1.913	1.618	1.692	1.484	1.335	1.353	1.201	1.077	0.944	0.994	0.920	0.767	0.947	0.779	0.790	0.670	0.636	0.539	0.651	0.593	0.459	0.508	0.605	0.609	0.865	0.833	0.672	0.533	0.469	0.447	0.564	0.526	0.457	0.588	0.673	0.703	0.553	0.414	0.361	0.403	0.390	0.441	0.705	2.480
620.0	32.66	39.73	38.58	24.60	20.50	16.84	18.42	21.51	26.39	32.38	36.84	53.29	68.41	28.94	18.51	12.85	30.89	299.4	363.0	8.149	2.576	2.352	2.146	2.176	1.990	1.849	1.874	1.984	1.830	2.021	1.775	1.797	1.706	1.611	1.421	1.337	1.354	1.293	1.193	1.162	1.025	0.902	0.877	0.784	0.717	0.704	0.812	0.752	0.587	0.563	0.512	0.508	0.516	0.474	0.442	0.422	0.506	0.596	0.757	0.723	0.501	0.514	0.505	0.446	0.453	0.483	0.470	0.620	0.728	0.559	0.390	0.379	0.365	0.374	0.335	0.370	0.849
625.0	29.17	34.71	39.51	26.36	18.80	17.09	17.47	21.57	24.90	30.50	33.81	44.17	66.91	35.86	18.94	12.39	13.13	102.9	494.2	48.96	2.597	2.061	1.948	1.887	1.740	1.513	1.571	1.544	1.494	1.770	1.515	1.667	1.536	1.323	1.302	1.240	1.135	1.177	1.015	0.833	0.984	0.683	0.741	0.674	0.631	0.645	0.598	0.647	0.544	0.503	0.448	0.505	0.434	0.343	0.432	0.419	0.500	0.486	0.701	0.699	0.499	0.503	0.533	0.473	0.441	0.421	0.462	0.450	0.564	0.648	0.467	0.377	0.377	0.331	0.317	0.340	0.452
630.0	31.61	31.31	34.20	23.77	18.15	16.93	16.45	19.80	23.05	28.58	32.97	38.88	52.17	45.40	20.23	11.93	9.143	28.84	285.1	276.5	9.197	1.836	1.820	1.549	1.459	1.381	1.302	1.335	1.179	1.334	1.338	1.355	1.271	1.154	1.084	1.072	1.018	0.994	0.844	0.739	0.814	0.596	0.703	0.603	0.599	0.576	0.558	0.533	0.504	0.395	0.409	0.459	0.440	0.324	0.348	0.352	0.434	0.384	0.558	0.605	0.540	0.556	0.432	0.392	0.431	0.464	0.424	0.411	0.478	0.503	0.526	0.422	0.359	0.335	0.326	0.283	0.333
635.0	32.53	26.33	28.87	23.36	17.87	16.56	17.49	19.81	23.07	26.86	30.06	34.86	39.46	51.24	26.08	11.87	8.709	11.56	76.52	375.6	61.30	2.176	1.639	1.385	1.238	1.043	1.127	1.124	1.085	1.156	1.055	1.172	0.967	0.898	0.921	0.935	0.839	0.820	0.708	0.616	0.645	0.554	0.588	0.527	0.413	0.504	0.466	0.514	0.376	0.358	0.360	0.341	0.328	0.367	0.354	0.347	0.360	0.429	0.426	0.420	0.486	0.470	0.408	0.397	0.443	0.352	0.360	0.325	0.425	0.383	0.427	0.607	0.443	0.367	0.337	0.324	0.283
640.0	28.50	26.20	27.21	21.44	19.13	15.52	16.19	20.24	21.57	25.84	32.29	31.57	34.65	44.20	31.01	13.70	9.248	7.777	21.50	239.0	237.2	4.324	1.755	1.433	1.121	0.979	1.129	1.028	1.019	1.060	0.969	0.988	0.979	1.019	0.910	0.819	0.899	0.747	0.587	0.621	0.522	0.489	0.556	0.497	0.384	0.396	0.390	0.488	0.383	0.306	0.320	0.280	0.288	0.333	0.254	0.318	0.337	0.375	0.288	0.359	0.453	0.488	0.510	0.381	0.385	0.324	0.348	0.337	0.366	0.412	0.387	0.527	0.496	0.321	0.296	0.307	0.231
645.0	26.28	30.05	25.04	21.37	17.76	14.61	15.63	19.45	21.20	26.15	31.55	32.71	33.61	38.81	39.29	15.62	10.22	7.237	8.618	86.99	347.9	31.28	1.512	1.400	1.158	1.103	0.986	1.044	1.030	0.869	0.950	0.951	0.906	0.912	0.860	0.835	0.833	0.671	0.540	0.617	0.455	0.473	0.496	0.414	0.404	0.340	0.366	0.395	0.386	0.286	0.319	0.270	0.294	0.285	0.288	0.290	0.317	0.365	0.298	0.307	0.378	0.440	0.443	0.426	0.313	0.364	0.300	0.322	0.375	0.333	0.359	0.372	0.518	0.381	0.266	0.330	0.278
650.0	33.97	27.05	34.93	25.13	16.14	13.81	14.41	18.73	20.64	26.26	30.03	32.69	30.95	31.60	40.31	18.67	10.72	7.544	6.069	24.71	290.5	133.3	2.042	1.287	1.103	0.902	0.929	0.966	0.788	0.833	0.748	0.894	0.784	0.916	0.845	0.869	0.874	0.796	0.579	0.514	0.522	0.482	0.416	0.416	0.383	0.363	0.364	0.357	0.337	0.280	0.281	0.313	0.291	0.310	0.252	0.361	0.343	0.293	0.280	0.314	0.376	0.382	0.397	0.518	0.414	0.337	0.350	0.324	0.353	0.316	0.324	0.311	0.478	0.450	0.339	0.306	0.290
