Sample:	'1
File name:	Default_20230112_143826.FD3
Run date:	'14:32:05, 01/12/2023
Operator:	dsjg
Comment:	'

Instrument
Model:	F-2700 FL Spectrophotometer
Serial number:	2198-001
ROM Version:	4J14000 07

Instrument parameters
Measurement type:	3-D scan
Data mode:	Fluorescence
EX  Start WL:	220.0 nm
EX  End WL:	600.0 nm
EX Sampling interval:	5.0 nm
EM  Start WL:	230.0 nm
EM  End WL:	650.0 nm
EM Sampling interval:	5.0 nm
Scan speed:	12000 nm/min
EX Slit:	5.0 nm
EM Slit:	5.0 nm
PMT Voltage:	700 V
Response:	Auto 
Corrected spectra:	Off
Contour interval:	50.000

Peak integration
Integration method:	Rectangular
Sensitivity:	1
Threshold:	1.000

Peaks
No.	ApexEX/EM(nm)	Height(Data)
1	225.0/495.0	62.60
2	230.0/365.0	138.2
3	230.0/505.0	67.53
4	235.0/260.0	176.3
5	235.0/375.0	138.0
6	235.0/515.0	63.36
7	235.0/635.0	3.383
8	240.0/265.0	198.4
9	240.0/385.0	125.0
10	240.0/530.0	57.62
11	245.0/270.0	181.6
12	245.0/540.0	51.16
13	250.0/275.0	202.3
14	250.0/435.0	99.01
15	250.0/550.0	44.48
16	255.0/280.0	216.8
17	255.0/560.0	37.29
18	260.0/285.0	199.4
19	260.0/570.0	28.29
20	265.0/585.0	28.87
21	270.0/300.0	292.9
22	270.0/595.0	24.59
23	275.0/305.0	310.2
24	275.0/610.0	20.51
25	280.0/310.0	270.3
26	280.0/350.0	134.8
27	280.0/620.0	17.79
28	285.0/315.0	271.0
29	285.0/355.0	133.6
30	285.0/630.0	13.94
31	290.0/325.0	248.0
32	290.0/645.0	11.33
33	295.0/330.0	203.2
34	300.0/335.0	198.6
35	305.0/340.0	185.6
36	310.0/350.0	151.9
37	315.0/355.0	140.7
38	320.0/360.0	153.6
39	330.0/375.0	113.1
40	335.0/380.0	124.6
41	340.0/385.0	111.3
42	350.0/400.0	91.53
43	355.0/405.0	88.94
44	360.0/410.0	73.88
45	365.0/415.0	70.02
46	370.0/425.0	67.00
47	375.0/430.0	54.35
48	380.0/435.0	48.62
49	385.0/445.0	43.94
50	390.0/450.0	35.79
51	395.0/455.0	32.98
52	400.0/465.0	31.19
53	405.0/470.0	26.71
54	410.0/475.0	24.12
55	415.0/485.0	22.41
56	420.0/490.0	18.63
57	425.0/495.0	16.42
58	430.0/505.0	13.29
59	435.0/510.0	10.43
60	440.0/515.0	8.276
61	445.0/525.0	6.981
62	450.0/530.0	5.774
63	455.0/540.0	4.855
64	460.0/545.0	4.222
65	465.0/550.0	3.228
66	470.0/555.0	2.744
67	475.0/565.0	2.173
68	520.0/285.0	1.461
69	540.0/295.0	1.691
70	545.0/300.0	1.875
71	550.0/305.0	1.708
72	560.0/310.0	1.534
73	570.0/315.0	1.722
74	575.0/320.0	1.598
75	585.0/325.0	1.605

Data points
	220.0	225.0	230.0	235.0	240.0	245.0	250.0	255.0	260.0	265.0	270.0	275.0	280.0	285.0	290.0	295.0	300.0	305.0	310.0	315.0	320.0	325.0	330.0	335.0	340.0	345.0	350.0	355.0	360.0	365.0	370.0	375.0	380.0	385.0	390.0	395.0	400.0	405.0	410.0	415.0	420.0	425.0	430.0	435.0	440.0	445.0	450.0	455.0	460.0	465.0	470.0	475.0	480.0	485.0	490.0	495.0	500.0	505.0	510.0	515.0	520.0	525.0	530.0	535.0	540.0	545.0	550.0	555.0	560.0	565.0	570.0	575.0	580.0	585.0	590.0	595.0	600.0
230.0	33.24	596.4	 1285	243.0	6.570	1.457	1.029	0.921	0.540	0.551	0.480	0.386	0.410	0.248	0.243	0.229	0.200	0.212	0.207	0.170	0.172	0.114	0.165	0.139	0.148	0.121	0.112	0.096	0.079	0.092	0.094	0.111	0.049	0.088	0.111	0.189	0.191	0.202	0.155	0.148	0.148	0.184	0.171	0.149	0.110	0.116	0.195	1.081	3.006	3.272	1.566	0.302	0.072	0.058	0.046	0.046	0.042	0.028	0.030	0.034	0.020	0.028	0.026	0.019	0.027	0.018	0.006	0.010	0.011	0.006	0.014	0.006	0.001	0.005	-0.002	0.000	-0.003
235.0	29.18	178.3	 1019	 1125	326.7	9.095	1.337	1.301	0.816	0.700	0.465	0.395	0.668	0.239	0.446	0.301	0.164	0.158	0.228	0.132	0.110	0.166	0.127	0.149	0.163	0.122	0.089	0.116	0.053	0.060	0.102	0.133	0.075	0.060	0.070	0.114	0.223	0.198	0.188	0.161	0.175	0.142	0.149	0.184	0.195	0.186	0.129	0.340	0.972	2.172	3.577	4.487	2.404	0.524	0.068	0.060	0.040	0.047	0.038	0.013	0.026	0.028	0.021	0.023	0.035	0.025	-0.001	0.033	0.001	0.002	0.014	0.019	0.006	0.001	-0.001	0.000	0.002
240.0	62.67	67.39	357.4	 1119	 1509	205.1	3.242	1.615	1.372	1.024	0.724	0.373	0.531	0.350	0.301	0.235	0.252	0.211	0.204	0.232	0.155	0.193	0.204	0.148	0.145	0.151	0.102	0.130	0.085	0.106	0.070	0.147	0.088	0.072	0.111	0.093	0.186	0.191	0.199	0.187	0.154	0.167	0.153	0.177	0.169	0.315	0.253	0.202	0.318	0.643	1.574	3.997	5.896	4.488	1.760	0.291	0.034	0.045	0.043	0.034	0.047	0.015	0.023	0.025	0.007	0.008	0.022	0.040	0.010	0.022	0.004	0.005	0.004	0.005	0.004	-0.003	0.006
245.0	55.62	96.56	105.9	455.8	 1737	 1091	116.5	2.660	1.406	1.200	0.774	0.700	0.580	0.428	0.428	0.223	0.294	0.222	0.171	0.228	0.191	0.205	0.204	0.159	0.127	0.119	0.136	0.157	0.157	0.113	0.114	0.137	0.080	0.083	0.099	0.092	0.084	0.132	0.191	0.225	0.194	0.136	0.123	0.136	0.135	0.332	0.389	0.431	0.273	0.232	0.458	1.279	3.292	5.947	6.570	3.814	0.980	0.093	0.030	0.042	0.055	0.020	0.009	0.011	0.013	0.025	0.030	0.013	0.018	0.008	0.029	0.006	0.008	0.029	0.002	-0.002	0.003
250.0	20.28	92.40	128.1	139.9	621.8	 1250	 1120	171.3	14.98	1.387	1.174	0.665	0.928	0.452	0.431	0.316	0.292	0.288	0.236	0.205	0.175	0.180	0.203	0.127	0.156	0.129	0.188	0.155	0.114	0.094	0.102	0.110	0.096	0.061	0.108	0.071	0.069	0.090	0.140	0.167	0.181	0.165	0.122	0.145	0.119	0.185	0.218	0.346	0.574	0.518	0.412	0.446	0.860	1.870	3.534	5.048	6.111	5.372	3.015	0.827	0.096	0.045	0.015	0.023	0.018	0.012	0.017	0.009	0.013	0.008	0.017	0.008	0.006	0.008	0.010	0.004	0.002
255.0	6.065	31.03	119.3	172.8	172.2	345.1	994.8	 1523	227.9	13.24	1.770	1.194	1.067	0.653	0.455	0.395	0.428	0.326	0.333	0.199	0.238	0.231	0.202	0.117	0.202	0.163	0.131	0.149	0.151	0.107	0.104	0.122	0.123	0.066	0.080	0.075	0.093	0.081	0.120	0.086	0.162	0.189	0.152	0.132	0.138	0.152	0.144	0.174	0.264	0.448	0.725	0.855	0.496	0.533	0.889	1.281	2.154	4.604	8.173	8.433	4.532	0.881	0.095	0.051	0.028	0.033	0.022	0.013	0.035	-0.002	0.007	-0.001	0.019	0.004	0.011	0.012	0.029
260.0	4.821	8.618	51.23	176.3	155.7	99.47	334.2	 1354	 1559	182.7	5.784	1.839	1.285	0.652	0.420	0.452	0.475	0.346	0.354	0.174	0.259	0.194	0.174	0.146	0.148	0.164	0.128	0.126	0.157	0.099	0.100	0.133	0.115	0.090	0.087	0.068	0.078	0.053	0.103	0.089	0.124	0.171	0.212	0.179	0.137	0.148	0.115	0.165	0.146	0.200	0.388	0.852	1.061	0.613	0.344	0.370	0.593	1.295	3.489	7.115	10.40	7.957	2.981	0.329	0.047	0.016	0.014	0.021	0.021	0.020	0.026	0.010	0.018	0.008	-0.002	-0.004	0.027
265.0	5.820	4.350	16.54	94.13	198.4	99.89	88.46	506.6	 1689	 1378	132.4	3.612	1.781	0.967	0.767	0.537	0.476	0.431	0.368	0.300	0.312	0.175	0.237	0.163	0.120	0.185	0.104	0.159	0.170	0.127	0.140	0.132	0.102	0.112	0.091	0.098	0.083	0.049	0.078	0.081	0.091	0.133	0.202	0.179	0.165	0.111	0.123	0.133	0.110	0.116	0.184	0.410	0.784	1.148	0.774	0.349	0.273	0.365	0.923	2.170	5.638	9.996	11.02	6.456	1.478	0.102	0.062	0.025	0.079	0.012	0.022	0.016	0.028	0.021	0.000	0.006	0.011
270.0	6.372	4.427	7.565	27.30	107.3	181.6	116.3	135.5	566.9	 1342	 1510	541.0	29.80	1.389	1.080	0.803	0.649	0.482	0.365	0.422	0.361	0.284	0.273	0.211	0.164	0.242	0.115	0.152	0.181	0.110	0.127	0.145	0.109	0.085	0.118	0.108	0.102	0.061	0.089	0.088	0.083	0.064	0.135	0.157	0.193	0.175	0.156	0.162	0.103	0.134	0.121	0.187	0.290	0.499	0.765	0.952	0.905	0.491	0.395	0.574	1.428	2.936	5.357	7.716	8.971	7.823	4.493	1.220	0.119	0.045	0.002	0.021	0.026	0.013	0.006	0.001	0.008
275.0	10.53	7.993	8.084	10.21	29.85	95.08	202.3	137.9	143.1	353.8	 1070	 1960	762.9	25.38	1.370	1.266	0.935	0.654	0.495	0.434	0.341	0.311	0.228	0.270	0.199	0.269	0.124	0.122	0.181	0.146	0.088	0.117	0.123	0.112	0.109	0.076	0.092	0.062	0.070	0.075	0.105	0.054	0.088	0.117	0.187	0.196	0.177	0.179	0.159	0.120	0.117	0.104	0.119	0.169	0.252	0.393	0.826	1.296	1.008	0.593	0.416	0.755	1.297	1.906	3.087	6.035	10.58	11.24	5.546	1.033	0.045	0.004	0.025	0.006	0.016	0.006	0.003
280.0	21.41	13.06	13.19	8.786	12.38	33.03	141.5	216.8	103.2	97.08	335.8	 1393	 1954	124.0	8.467	1.550	1.151	0.729	0.629	0.563	0.431	0.343	0.232	0.253	0.297	0.216	0.207	0.202	0.154	0.124	0.121	0.105	0.136	0.096	0.110	0.072	0.111	0.093	0.107	0.085	0.087	0.060	0.079	0.078	0.163	0.190	0.216	0.233	0.158	0.160	0.139	0.152	0.100	0.139	0.156	0.174	0.389	0.702	1.245	1.341	0.815	0.369	0.439	0.542	0.806	1.650	4.203	8.816	12.09	9.726	3.079	0.259	0.024	0.013	0.032	0.029	0.013
285.0	27.96	21.22	19.55	10.20	10.58	14.53	59.83	189.5	199.4	68.25	100.0	475.8	 1580	 1660	94.70	3.104	1.460	0.975	0.637	0.573	0.502	0.442	0.315	0.274	0.213	0.258	0.210	0.198	0.129	0.212	0.152	0.154	0.174	0.097	0.129	0.156	0.090	0.111	0.099	0.063	0.075	0.088	0.099	0.082	0.144	0.160	0.269	0.233	0.210	0.192	0.147	0.143	0.118	0.112	0.130	0.090	0.188	0.256	0.619	1.180	1.461	0.989	0.478	0.254	0.348	0.492	1.165	2.652	6.275	10.92	12.00	6.699	1.300	0.043	0.027	0.021	0.016
290.0	34.25	31.81	27.45	15.97	13.39	13.41	27.66	82.87	193.7	204.9	98.53	143.9	506.1	 1197	 1450	372.8	22.15	1.454	1.000	0.751	0.650	0.529	0.441	0.358	0.292	0.219	0.247	0.266	0.194	0.228	0.175	0.150	0.162	0.131	0.144	0.155	0.122	0.126	0.093	0.070	0.113	0.088	0.099	0.118	0.109	0.145	0.244	0.257	0.247	0.244	0.172	0.164	0.162	0.166	0.140	0.141	0.147	0.151	0.271	0.453	0.783	1.144	1.303	1.055	0.594	0.348	0.466	0.774	1.666	3.227	5.728	8.158	9.397	8.108	3.982	0.909	0.063
295.0	40.80	40.33	36.22	23.09	19.63	18.91	25.02	40.27	90.77	215.5	259.4	114.3	156.5	321.2	804.7	 1698	564.6	21.50	1.450	1.166	0.982	0.644	0.516	0.414	0.338	0.276	0.293	0.235	0.293	0.182	0.200	0.166	0.233	0.178	0.181	0.176	0.112	0.164	0.108	0.112	0.115	0.085	0.098	0.112	0.106	0.166	0.234	0.237	0.250	0.286	0.192	0.212	0.189	0.158	0.171	0.179	0.151	0.152	0.210	0.262	0.357	0.499	0.716	1.268	1.691	1.226	0.550	0.467	0.647	0.916	1.428	2.044	3.130	6.562	11.69	11.93	5.170
300.0	37.54	40.73	44.16	31.63	23.42	23.62	27.59	36.66	57.75	135.6	292.9	184.9	95.49	109.2	250.6	 1053	 2003	410.5	6.513	1.603	1.018	0.703	0.613	0.507	0.355	0.314	0.301	0.270	0.201	0.160	0.178	0.219	0.249	0.192	0.179	0.178	0.162	0.132	0.134	0.085	0.095	0.067	0.111	0.131	0.125	0.175	0.210	0.212	0.258	0.268	0.243	0.223	0.261	0.183	0.200	0.173	0.173	0.193	0.235	0.251	0.264	0.343	0.401	0.679	1.279	1.875	1.554	0.708	0.451	0.431	0.538	0.660	0.844	1.889	4.742	10.10	13.62
305.0	42.93	50.04	47.61	38.46	30.00	27.33	32.65	41.75	54.89	87.29	206.8	310.2	142.3	68.11	86.12	338.1	 1457	 1766	62.62	2.926	1.153	0.918	0.731	0.546	0.435	0.417	0.371	0.283	0.253	0.273	0.227	0.230	0.205	0.227	0.149	0.218	0.139	0.165	0.153	0.106	0.098	0.118	0.091	0.104	0.193	0.193	0.209	0.181	0.212	0.240	0.323	0.263	0.277	0.223	0.236	0.185	0.232	0.271	0.291	0.252	0.299	0.341	0.338	0.422	0.636	1.282	1.708	1.645	0.843	0.421	0.353	0.366	0.327	0.563	1.213	3.118	7.081
310.0	39.41	52.50	51.91	42.60	35.04	35.22	39.01	45.51	57.65	75.95	120.8	222.7	270.3	140.0	57.95	99.94	440.2	 1122	 1445	593.8	15.43	1.374	0.984	0.712	0.680	0.450	0.433	0.385	0.301	0.298	0.257	0.231	0.196	0.203	0.181	0.181	0.148	0.149	0.172	0.135	0.115	0.119	0.125	0.108	0.156	0.180	0.207	0.154	0.237	0.205	0.255	0.305	0.250	0.270	0.261	0.251	0.261	0.259	0.310	0.274	0.296	0.333	0.381	0.400	0.467	0.666	0.868	1.382	1.534	1.400	0.815	0.414	0.298	0.286	0.414	0.862	1.803
315.0	42.38	59.70	59.43	44.54	40.85	40.06	44.88	51.85	61.96	76.58	99.11	133.7	202.1	271.0	102.6	53.81	120.9	280.5	706.4	 1739	403.6	14.72	1.248	1.010	0.685	0.545	0.484	0.453	0.354	0.256	0.310	0.219	0.238	0.187	0.222	0.205	0.182	0.140	0.156	0.138	0.109	0.131	0.150	0.122	0.120	0.203	0.188	0.217	0.206	0.190	0.184	0.278	0.210	0.337	0.289	0.248	0.305	0.246	0.243	0.308	0.320	0.288	0.419	0.444	0.428	0.503	0.587	0.662	0.770	1.331	1.722	1.294	0.604	0.343	0.249	0.371	0.546
320.0	52.75	65.04	63.47	47.13	45.71	44.59	50.81	57.64	65.69	80.01	98.95	114.4	140.2	239.4	220.5	68.52	54.18	82.59	204.3	963.1	 1729	306.3	5.209	1.230	0.864	0.667	0.524	0.494	0.403	0.313	0.291	0.219	0.269	0.171	0.271	0.174	0.144	0.177	0.189	0.152	0.128	0.171	0.141	0.165	0.185	0.210	0.215	0.278	0.246	0.203	0.223	0.235	0.289	0.385	0.294	0.321	0.282	0.377	0.299	0.350	0.334	0.334	0.373	0.511	0.463	0.459	0.584	0.552	0.539	0.801	1.276	1.598	1.584	0.803	0.353	0.249	0.297
325.0	59.89	76.62	70.77	56.56	50.06	47.84	52.32	60.63	70.52	85.91	104.8	113.0	119.3	159.1	248.0	147.5	47.62	42.66	63.04	284.8	 1228	 1620	48.53	2.076	1.124	0.879	0.594	0.608	0.425	0.369	0.315	0.289	0.251	0.268	0.257	0.175	0.185	0.179	0.169	0.183	0.113	0.118	0.148	0.173	0.184	0.232	0.264	0.302	0.334	0.236	0.250	0.223	0.246	0.345	0.302	0.278	0.311	0.389	0.337	0.335	0.379	0.451	0.446	0.563	0.423	0.469	0.557	0.446	0.538	0.571	0.729	0.966	1.490	1.605	0.946	0.432	0.287
330.0	66.64	89.51	88.00	67.73	55.58	52.83	56.95	63.44	75.46	90.61	107.3	116.3	118.7	119.8	156.8	203.2	122.6	45.18	36.06	79.57	346.0	 1049	 1373	527.6	12.87	1.210	0.888	0.728	0.542	0.403	0.397	0.306	0.278	0.253	0.224	0.208	0.162	0.195	0.196	0.157	0.135	0.133	0.162	0.179	0.170	0.290	0.284	0.374	0.356	0.348	0.316	0.292	0.262	0.291	0.277	0.329	0.352	0.417	0.373	0.344	0.362	0.470	0.417	0.460	0.510	0.557	0.587	0.572	0.592	0.607	0.623	0.699	0.771	1.047	1.108	1.156	0.844
335.0	82.01	113.3	107.2	84.12	69.11	61.39	63.71	71.72	79.17	95.21	115.2	122.1	125.0	115.9	113.0	130.3	198.6	111.2	37.72	37.74	92.33	254.1	673.0	 1702	334.3	13.17	1.238	0.953	0.743	0.483	0.404	0.350	0.303	0.287	0.246	0.220	0.195	0.209	0.191	0.156	0.173	0.229	0.174	0.219	0.263	0.291	0.303	0.365	0.411	0.372	0.364	0.330	0.367	0.286	0.285	0.353	0.413	0.377	0.429	0.454	0.411	0.415	0.547	0.528	0.479	0.495	0.603	0.605	0.632	0.652	0.672	0.577	0.612	0.610	0.662	0.979	1.196
340.0	79.11	118.7	119.2	102.6	79.31	71.92	71.62	78.13	87.15	98.66	117.4	126.2	130.5	125.1	107.1	98.05	149.7	185.6	63.52	32.18	39.72	71.55	183.4	959.3	 1687	261.9	4.304	1.199	0.907	0.596	0.546	0.384	0.358	0.287	0.250	0.206	0.169	0.264	0.194	0.126	0.166	0.178	0.151	0.235	0.244	0.304	0.342	0.411	0.439	0.395	0.409	0.385	0.423	0.321	0.332	0.379	0.365	0.499	0.486	0.456	0.482	0.447	0.555	0.589	0.483	0.544	0.621	0.648	0.681	0.717	0.625	0.633	0.578	0.552	0.553	0.575	0.797
345.0	83.03	114.8	126.6	112.2	93.07	79.33	80.70	87.15	89.07	99.62	117.0	129.2	132.7	129.6	114.1	91.14	98.29	174.5	139.9	44.51	30.97	34.14	54.90	275.4	 1272	 1491	41.64	2.197	0.953	0.730	0.572	0.405	0.342	0.342	0.243	0.252	0.193	0.231	0.227	0.147	0.168	0.135	0.144	0.222	0.216	0.336	0.364	0.413	0.469	0.493	0.425	0.418	0.400	0.365	0.334	0.382	0.353	0.489	0.509	0.579	0.518	0.502	0.529	0.615	0.588	0.531	0.619	0.644	0.569	0.695	0.631	0.628	0.580	0.596	0.522	0.493	0.469
350.0	76.32	115.5	127.9	123.5	103.3	93.34	86.37	93.02	94.35	103.1	117.8	130.6	134.8	130.4	115.7	91.30	81.11	104.2	151.9	105.2	44.37	30.86	30.59	76.71	351.7	 1019	 1260	182.9	11.75	1.012	0.779	0.566	0.436	0.412	0.309	0.295	0.249	0.244	0.212	0.193	0.201	0.133	0.183	0.184	0.223	0.301	0.338	0.425	0.474	0.489	0.456	0.506	0.453	0.469	0.415	0.343	0.400	0.465	0.525	0.532	0.546	0.555	0.536	0.653	0.569	0.606	0.670	0.666	0.636	0.724	0.635	0.636	0.643	0.625	0.485	0.531	0.462
355.0	78.60	113.7	131.3	133.6	113.5	100.4	95.31	100.8	99.31	107.2	119.9	127.4	133.1	133.6	117.2	97.83	80.24	78.70	90.61	140.7	113.2	43.02	30.57	36.16	91.64	243.1	623.9	 1493	309.0	12.50	1.151	0.811	0.493	0.432	0.453	0.378	0.268	0.263	0.243	0.191	0.190	0.139	0.183	0.178	0.211	0.336	0.279	0.429	0.530	0.468	0.486	0.472	0.535	0.483	0.505	0.420	0.427	0.541	0.428	0.573	0.546	0.580	0.516	0.554	0.556	0.598	0.697	0.711	0.645	0.659	0.643	0.664	0.620	0.533	0.583	0.456	0.462
360.0	72.81	112.3	132.7	135.3	121.5	109.2	101.8	106.4	104.2	109.1	117.7	125.2	133.2	129.8	119.1	99.75	83.18	75.38	72.17	100.4	153.6	60.62	35.16	29.42	35.50	64.86	163.9	887.6	 1544	245.6	3.763	1.011	0.661	0.523	0.478	0.327	0.289	0.272	0.203	0.206	0.192	0.179	0.215	0.194	0.222	0.244	0.332	0.345	0.488	0.508	0.472	0.554	0.569	0.562	0.453	0.480	0.482	0.489	0.531	0.492	0.473	0.535	0.482	0.545	0.619	0.593	0.671	0.657	0.648	0.689	0.602	0.629	0.652	0.560	0.508	0.471	0.465
365.0	73.55	108.2	138.2	136.9	124.1	111.3	106.1	104.9	106.1	113.1	116.9	125.8	130.4	126.0	116.4	98.66	85.71	75.90	70.15	74.47	127.6	126.9	50.82	30.82	26.36	27.04	46.27	248.8	 1208	 1385	38.93	1.794	0.868	0.560	0.453	0.330	0.306	0.297	0.268	0.219	0.138	0.193	0.164	0.167	0.170	0.237	0.270	0.342	0.474	0.506	0.450	0.601	0.547	0.519	0.462	0.519	0.449	0.491	0.498	0.443	0.567	0.511	0.559	0.568	0.642	0.618	0.682	0.604	0.644	0.637	0.641	0.561	0.577	0.577	0.552	0.545	0.473
370.0	69.47	104.0	130.8	134.6	125.4	115.0	102.6	104.1	106.7	108.9	114.7	123.5	127.1	121.2	113.0	98.27	87.29	79.63	73.22	69.07	82.54	120.4	111.4	45.84	27.88	22.15	21.83	64.14	330.8	985.7	 1210	168.0	10.29	0.832	0.655	0.452	0.384	0.296	0.267	0.240	0.207	0.189	0.190	0.182	0.221	0.246	0.361	0.401	0.492	0.474	0.423	0.563	0.517	0.531	0.501	0.491	0.494	0.500	0.489	0.444	0.518	0.465	0.549	0.577	0.632	0.594	0.627	0.610	0.606	0.678	0.606	0.598	0.673	0.583	0.566	0.532	0.515
375.0	72.38	100.9	128.9	138.0	127.5	117.4	103.5	105.9	105.8	106.8	113.3	118.3	121.2	118.9	109.0	97.23	88.72	81.62	76.24	71.42	70.08	78.78	113.1	107.6	41.67	24.57	19.48	25.22	81.45	232.1	625.1	 1383	267.6	11.16	0.849	0.524	0.465	0.365	0.299	0.255	0.235	0.184	0.152	0.195	0.295	0.254	0.368	0.385	0.369	0.465	0.434	0.548	0.541	0.471	0.527	0.527	0.469	0.514	0.513	0.420	0.516	0.473	0.528	0.563	0.600	0.548	0.545	0.610	0.597	0.557	0.597	0.661	0.600	0.540	0.543	0.571	0.493
380.0	69.39	102.2	119.7	131.0	123.8	113.0	108.7	99.35	103.8	106.2	111.6	115.9	116.3	112.4	107.8	94.54	88.79	83.75	77.25	72.93	68.56	67.37	80.84	124.6	76.12	29.33	21.59	18.34	28.30	58.73	161.1	836.7	 1339	209.9	3.023	0.682	0.538	0.472	0.323	0.320	0.252	0.150	0.222	0.199	0.269	0.273	0.323	0.332	0.419	0.440	0.465	0.528	0.552	0.512	0.502	0.582	0.506	0.503	0.485	0.489	0.510	0.477	0.535	0.514	0.572	0.552	0.529	0.564	0.584	0.584	0.645	0.630	0.600	0.571	0.534	0.497	0.473
385.0	67.80	94.63	114.5	124.2	125.0	112.1	106.3	100.1	99.89	99.74	109.2	113.6	112.7	109.1	105.9	94.42	86.77	83.53	78.38	73.04	69.01	65.96	65.23	95.97	111.3	46.46	24.52	18.66	17.58	21.19	42.80	233.7	 1057	 1151	31.76	1.169	0.616	0.521	0.352	0.355	0.239	0.228	0.226	0.221	0.239	0.249	0.312	0.393	0.419	0.427	0.456	0.579	0.567	0.569	0.593	0.578	0.504	0.518	0.535	0.457	0.454	0.482	0.526	0.516	0.501	0.619	0.550	0.587	0.559	0.567	0.545	0.584	0.565	0.573	0.504	0.505	0.516
390.0	58.79	86.57	115.8	125.3	124.3	112.3	107.1	99.47	97.51	98.22	103.8	108.9	106.5	103.4	98.26	91.35	85.80	82.68	78.65	74.07	70.88	65.75	61.67	66.12	92.56	89.59	40.27	22.59	17.95	15.40	17.32	58.08	290.5	817.5	921.7	133.5	8.719	0.722	0.434	0.333	0.303	0.244	0.178	0.232	0.278	0.290	0.302	0.357	0.404	0.425	0.448	0.505	0.539	0.503	0.548	0.552	0.472	0.474	0.447	0.442	0.491	0.470	0.467	0.480	0.498	0.513	0.510	0.591	0.554	0.554	0.522	0.614	0.532	0.545	0.555	0.534	0.541
395.0	55.28	85.11	99.77	122.7	120.9	114.9	103.1	96.60	97.67	96.00	99.61	100.7	103.2	99.00	93.33	88.26	82.86	81.86	78.59	74.80	71.35	67.06	61.30	58.70	60.88	81.49	86.71	38.45	21.19	17.00	13.48	20.16	69.66	190.9	485.1	 1067	223.5	9.203	0.613	0.369	0.350	0.280	0.216	0.272	0.272	0.276	0.345	0.366	0.327	0.413	0.420	0.484	0.506	0.596	0.498	0.476	0.483	0.486	0.521	0.466	0.474	0.441	0.472	0.499	0.514	0.462	0.419	0.538	0.528	0.482	0.475	0.561	0.485	0.495	0.534	0.547	0.437
400.0	55.15	82.43	103.8	111.2	116.1	109.6	106.4	96.43	92.70	89.08	94.63	97.27	99.45	94.52	90.23	85.74	81.15	80.35	78.50	75.27	71.41	66.81	62.67	57.43	52.75	59.02	91.53	69.19	27.86	18.83	14.59	13.17	21.45	47.17	123.6	643.4	 1069	179.2	2.641	0.499	0.431	0.297	0.290	0.267	0.194	0.257	0.321	0.352	0.345	0.383	0.433	0.485	0.525	0.553	0.503	0.486	0.474	0.483	0.492	0.398	0.500	0.400	0.505	0.524	0.492	0.450	0.444	0.452	0.521	0.531	0.511	0.570	0.553	0.568	0.534	0.522	0.517
405.0	53.10	74.23	97.88	107.6	111.9	111.9	103.7	94.09	90.58	89.21	92.82	93.34	95.73	91.79	89.33	82.95	78.54	77.42	75.32	72.49	70.95	67.02	62.63	57.97	52.40	50.21	67.59	88.94	43.68	22.16	16.46	12.76	12.03	15.36	31.66	177.3	807.6	903.1	28.20	1.142	0.426	0.389	0.359	0.318	0.253	0.271	0.322	0.333	0.351	0.363	0.433	0.442	0.541	0.519	0.531	0.496	0.492	0.565	0.494	0.456	0.523	0.414	0.434	0.492	0.490	0.561	0.458	0.418	0.525	0.509	0.534	0.513	0.468	0.472	0.479	0.499	0.489
410.0	50.23	73.35	90.72	102.4	106.3	104.9	99.04	92.41	89.81	87.75	91.53	90.01	89.51	87.88	83.59	77.91	74.57	73.73	71.79	70.52	68.30	65.45	61.57	57.70	53.82	48.33	49.30	67.47	73.88	38.41	20.10	14.47	11.11	9.690	11.73	43.30	217.5	622.9	731.3	125.4	7.512	0.554	0.376	0.286	0.302	0.298	0.320	0.344	0.400	0.386	0.403	0.479	0.464	0.513	0.483	0.488	0.464	0.559	0.494	0.455	0.486	0.426	0.443	0.505	0.444	0.419	0.414	0.446	0.457	0.457	0.461	0.477	0.464	0.461	0.455	0.447	0.405
415.0	42.90	70.13	88.61	95.57	102.6	103.7	98.47	91.37	86.76	85.12	84.81	86.27	84.58	85.23	77.66	73.50	70.44	70.26	67.60	66.58	64.74	63.34	61.07	57.01	52.22	48.38	44.12	46.37	62.14	70.02	33.91	16.37	12.46	9.578	8.109	13.84	51.54	144.7	380.7	815.1	192.3	8.865	0.535	0.329	0.303	0.370	0.277	0.373	0.378	0.381	0.330	0.479	0.490	0.504	0.491	0.490	0.433	0.477	0.486	0.433	0.481	0.361	0.407	0.458	0.478	0.434	0.411	0.434	0.442	0.451	0.433	0.523	0.456	0.440	0.456	0.366	0.445
420.0	43.29	66.12	88.00	88.19	104.1	101.8	97.67	90.44	84.45	84.04	81.36	84.04	80.44	79.31	73.35	69.15	67.06	67.26	64.26	63.45	62.15	60.98	58.34	56.77	52.22	48.93	43.47	40.48	45.23	69.47	55.94	22.01	13.46	9.874	7.555	7.394	14.61	34.95	95.62	479.5	797.8	161.0	2.701	0.478	0.315	0.326	0.298	0.361	0.365	0.365	0.367	0.450	0.460	0.429	0.490	0.434	0.483	0.453	0.492	0.433	0.418	0.383	0.377	0.424	0.385	0.467	0.373	0.403	0.432	0.414	0.391	0.458	0.429	0.369	0.456	0.398	0.361
425.0	43.78	62.29	84.85	90.29	99.84	98.63	93.68	91.86	85.71	83.06	79.86	79.25	78.07	75.58	70.62	65.26	65.11	63.36	62.42	60.99	60.23	58.76	56.61	54.98	51.18	47.80	43.55	38.98	38.46	50.32	67.00	36.55	15.30	10.69	7.969	6.730	6.838	10.58	23.66	129.2	598.0	691.8	27.41	0.951	0.458	0.415	0.356	0.358	0.350	0.287	0.331	0.441	0.484	0.456	0.421	0.420	0.482	0.428	0.478	0.421	0.362	0.455	0.354	0.388	0.382	0.440	0.362	0.352	0.390	0.417	0.363	0.402	0.339	0.411	0.421	0.409	0.394
430.0	45.09	57.97	77.82	87.40	93.96	98.67	95.18	88.18	84.22	80.38	76.98	74.14	73.53	70.84	66.49	61.84	60.57	60.58	59.05	57.54	58.16	56.22	55.50	53.05	50.42	47.75	43.28	39.08	36.89	37.07	49.25	54.35	28.62	12.93	9.250	7.082	6.008	5.639	7.846	31.15	160.7	469.7	573.8	115.9	6.883	0.562	0.444	0.356	0.336	0.388	0.338	0.411	0.455	0.496	0.425	0.419	0.496	0.417	0.399	0.436	0.344	0.399	0.386	0.454	0.374	0.384	0.381	0.328	0.394	0.370	0.369	0.388	0.355	0.384	0.368	0.400	0.349
435.0	61.86	58.30	72.62	83.16	87.95	95.17	99.01	90.56	79.88	77.73	75.97	72.74	70.67	67.48	63.42	59.24	56.00	57.13	54.69	54.49	53.51	53.51	51.69	50.04	49.13	46.02	43.12	38.97	36.37	33.95	32.95	42.95	48.62	22.75	11.07	8.330	6.638	5.317	4.954	9.484	38.08	109.0	289.1	678.3	182.9	7.328	0.641	0.423	0.380	0.365	0.342	0.430	0.375	0.397	0.451	0.405	0.414	0.436	0.429	0.467	0.443	0.401	0.355	0.346	0.339	0.387	0.349	0.381	0.379	0.356	0.339	0.394	0.439	0.321	0.333	0.383	0.445
440.0	100.2	56.87	68.35	80.51	87.31	93.21	94.89	88.45	80.74	77.06	74.88	72.37	67.51	64.13	61.15	56.21	54.48	54.39	52.95	51.68	50.75	50.20	49.34	49.21	48.22	44.54	42.56	38.91	35.70	32.55	29.14	30.79	46.26	36.90	14.77	9.121	7.214	5.885	5.209	5.341	11.08	26.83	73.68	420.8	705.8	136.3	1.874	0.561	0.456	0.399	0.320	0.463	0.394	0.415	0.494	0.384	0.471	0.484	0.477	0.505	0.379	0.413	0.326	0.354	0.392	0.384	0.328	0.295	0.356	0.309	0.347	0.345	0.331	0.353	0.277	0.330	0.413
445.0	180.0	71.75	65.41	77.57	84.68	93.02	94.89	87.46	81.22	74.08	72.40	70.64	66.09	61.97	57.06	54.34	50.89	51.22	50.56	49.54	48.94	47.82	47.01	45.88	45.96	43.41	40.54	39.35	35.63	32.51	28.22	25.48	33.76	43.94	24.57	10.31	8.098	6.972	5.922	5.444	6.144	9.134	19.29	118.8	566.9	595.5	21.63	0.874	0.473	0.414	0.395	0.416	0.367	0.431	0.445	0.410	0.498	0.438	0.454	0.434	0.396	0.377	0.390	0.371	0.330	0.333	0.307	0.280	0.366	0.353	0.379	0.309	0.372	0.261	0.284	0.330	0.374
450.0	218.6	176.4	69.23	71.52	79.72	88.47	93.16	84.67	79.22	73.46	70.22	66.80	61.20	58.94	54.57	50.87	48.23	47.48	46.55	46.22	44.22	44.45	44.32	43.13	42.74	40.36	39.12	36.81	34.59	32.32	27.93	24.08	24.08	32.26	35.79	20.19	10.48	8.210	7.150	6.895	6.630	6.514	7.798	29.54	154.6	436.6	515.3	101.3	5.443	0.533	0.448	0.429	0.383	0.383	0.487	0.395	0.504	0.453	0.417	0.458	0.394	0.351	0.357	0.373	0.309	0.335	0.310	0.286	0.367	0.266	0.273	0.274	0.319	0.350	0.352	0.313	0.289
455.0	128.3	381.1	162.8	68.25	74.88	81.75	86.25	82.77	77.04	70.75	70.02	61.74	56.95	53.66	50.88	47.61	45.02	42.81	42.57	41.55	41.24	39.89	40.07	39.67	38.84	37.72	36.18	34.84	32.61	31.02	27.53	23.79	21.03	21.13	29.32	32.98	18.24	10.54	9.001	8.956	8.025	7.360	6.286	9.857	36.97	101.7	264.5	577.8	151.1	5.287	0.477	0.499	0.366	0.456	0.448	0.424	0.439	0.477	0.343	0.446	0.372	0.420	0.399	0.357	0.291	0.301	0.340	0.271	0.308	0.285	0.291	0.276	0.241	0.286	0.268	0.348	0.299
460.0	55.61	399.3	380.3	70.36	75.53	78.09	82.24	80.48	74.86	67.48	67.74	60.03	52.98	52.26	47.19	44.47	42.33	40.98	38.78	38.92	37.43	37.25	37.26	37.29	36.49	35.82	33.97	33.17	31.43	29.30	26.00	23.16	19.93	18.69	21.01	31.57	27.26	14.03	10.24	9.789	9.323	8.145	6.718	6.181	11.14	24.71	66.35	355.4	556.2	20.97	1.815	0.487	0.435	0.414	0.442	0.433	0.420	0.425	0.383	0.388	0.427	0.379	0.334	0.343	0.302	0.306	0.304	0.266	0.310	0.236	0.283	0.266	0.251	0.272	0.248	0.283	0.243
465.0	31.67	277.1	703.7	117.5	70.65	76.07	81.24	78.62	71.48	65.37	60.78	55.50	51.58	47.69	43.63	42.09	39.70	37.97	37.04	35.72	34.36	35.54	34.55	34.20	33.36	32.84	31.74	30.69	29.39	27.88	25.67	22.69	19.09	17.37	16.27	24.03	31.19	20.43	11.84	10.95	10.21	8.817	6.978	5.788	5.365	7.752	16.60	97.66	450.4	435.5	17.53	0.838	0.546	0.436	0.427	0.390	0.452	0.519	0.375	0.365	0.466	0.415	0.302	0.353	0.352	0.285	0.343	0.220	0.269	0.205	0.268	0.259	0.246	0.219	0.226	0.273	0.246
470.0	30.82	114.3	762.3	400.9	78.18	69.93	75.06	72.06	66.42	63.99	58.52	52.79	47.42	43.42	40.12	37.71	36.25	34.36	33.19	32.25	31.13	31.40	31.36	30.04	30.54	30.26	29.08	28.52	27.00	25.98	23.79	21.04	18.61	16.80	15.00	16.88	23.23	26.71	17.62	11.81	10.50	9.114	7.536	5.811	4.298	3.971	5.365	23.26	123.4	327.2	380.2	89.42	5.294	0.481	0.422	0.374	0.446	0.417	0.340	0.364	0.394	0.371	0.373	0.352	0.345	0.274	0.279	0.256	0.249	0.229	0.250	0.233	0.244	0.230	0.223	0.224	0.196
475.0	34.88	54.99	368.8	667.0	215.3	65.08	65.90	67.38	60.16	59.08	53.52	49.17	43.79	39.43	36.48	33.88	31.26	30.67	29.56	27.63	27.81	27.37	26.99	26.59	27.05	26.96	25.85	25.42	24.27	23.35	22.04	19.65	17.53	15.48	14.14	14.11	14.89	21.22	24.12	15.97	10.74	9.157	7.540	5.786	4.142	3.283	2.790	6.399	28.51	75.32	179.6	420.1	135.8	4.448	0.490	0.396	0.417	0.407	0.337	0.373	0.369	0.319	0.336	0.313	0.273	0.261	0.255	0.255	0.263	0.217	0.180	0.231	0.196	0.309	0.201	0.207	0.204
480.0	39.64	39.43	137.9	596.3	459.2	64.94	62.83	61.48	58.78	54.84	49.85	45.72	39.52	35.60	32.62	31.40	28.93	28.24	26.39	25.85	25.30	24.59	24.99	24.22	24.91	24.46	23.80	23.47	22.67	21.70	20.46	17.85	16.05	14.84	13.64	12.91	12.50	15.17	23.15	21.03	12.04	9.051	7.469	5.469	3.826	2.971	2.281	2.708	7.365	17.74	44.74	233.6	411.4	23.70	1.640	0.445	0.409	0.427	0.351	0.331	0.290	0.378	0.238	0.257	0.267	0.290	0.217	0.240	0.216	0.247	0.195	0.196	0.220	0.216	0.194	0.195	0.145
485.0	46.16	37.12	60.42	340.4	721.0	133.6	59.43	57.16	55.73	52.39	48.80	42.48	36.40	33.17	30.23	28.37	26.84	25.46	24.37	23.10	23.75	22.51	22.66	22.12	22.37	22.09	21.78	21.49	21.38	20.56	18.83	17.20	15.60	14.17	12.67	12.08	11.60	12.07	17.48	22.41	15.67	9.381	6.815	5.305	3.763	3.099	2.168	1.876	2.633	4.896	10.80	61.97	318.7	356.8	20.83	0.777	0.402	0.385	0.359	0.335	0.294	0.265	0.328	0.263	0.266	0.252	0.191	0.221	0.223	0.174	0.156	0.156	0.229	0.164	0.148	0.177	0.171
490.0	40.08	56.32	40.91	127.4	614.7	412.7	68.47	54.20	50.63	48.67	42.58	38.75	33.13	29.41	26.94	25.70	24.08	23.12	21.64	20.68	20.86	20.06	20.21	19.83	20.31	19.73	19.18	19.25	19.10	18.78	16.90	16.21	14.42	13.19	12.17	11.50	10.90	10.76	12.13	16.93	18.63	12.46	7.292	5.116	3.689	2.943	2.160	1.829	1.582	1.901	3.144	14.59	84.65	245.6	274.1	90.71	5.058	0.459	0.372	0.339	0.275	0.286	0.281	0.254	0.216	0.218	0.212	0.201	0.182	0.153	0.190	0.173	0.157	0.165	0.132	0.181	0.143
495.0	24.62	62.60	48.38	55.80	255.3	645.1	185.2	50.95	45.09	42.64	39.70	36.55	29.39	27.25	24.93	22.02	20.70	20.26	19.00	18.90	17.61	17.50	17.63	17.17	17.68	17.48	16.71	16.80	16.83	16.77	15.11	14.26	13.19	12.65	11.16	10.14	10.10	9.811	10.05	11.03	15.17	16.42	9.209	5.024	3.697	2.804	2.126	1.898	1.540	1.245	1.429	3.939	19.55	56.68	164.4	386.6	133.5	3.936	0.417	0.361	0.306	0.230	0.304	0.278	0.236	0.211	0.211	0.206	0.151	0.158	0.205	0.154	0.154	0.172	0.093	0.145	0.195
500.0	14.44	53.98	59.16	37.14	96.63	542.1	363.6	55.14	39.83	39.41	34.93	32.34	27.54	24.01	22.73	19.72	18.22	17.87	18.05	16.36	16.00	15.61	15.88	15.59	15.79	15.34	15.18	15.03	15.07	15.42	13.89	13.44	11.99	11.27	10.24	9.616	9.260	8.894	9.016	9.080	10.68	15.41	12.15	6.036	3.521	2.477	1.950	1.793	1.525	1.241	1.028	1.605	5.038	13.27	41.45	222.5	383.2	25.58	1.416	0.358	0.331	0.236	0.286	0.223	0.204	0.211	0.240	0.166	0.137	0.156	0.144	0.123	0.108	0.149	0.118	0.092	0.109
505.0	12.06	37.03	67.53	37.42	47.13	295.0	568.7	116.7	35.86	37.30	33.45	29.40	25.48	22.88	19.98	17.72	16.51	15.85	15.78	14.89	14.83	14.38	13.95	14.05	14.14	13.98	13.72	13.85	13.88	14.08	13.13	12.16	11.26	10.22	9.418	9.023	8.682	8.499	8.207	7.876	7.913	11.28	13.29	8.269	3.792	2.454	1.837	1.681	1.333	1.473	0.912	0.980	1.722	3.626	9.893	59.44	289.1	312.0	20.98	0.570	0.384	0.283	0.213	0.230	0.199	0.219	0.142	0.122	0.149	0.115	0.131	0.115	0.108	0.142	0.087	0.115	0.081
510.0	11.65	22.80	59.69	53.09	34.22	105.3	453.0	366.0	50.23	32.16	30.02	26.13	21.61	19.77	17.73	15.75	14.34	13.87	13.48	13.23	12.51	12.48	12.48	11.97	12.25	11.83	12.08	11.80	12.00	11.90	11.58	10.67	9.917	9.184	8.397	8.088	7.704	7.540	7.064	7.007	6.688	7.416	9.907	10.43	5.900	2.718	1.755	1.477	1.294	1.207	1.086	1.008	0.963	1.319	2.796	13.85	76.72	213.8	237.7	87.41	4.170	0.296	0.254	0.196	0.245	0.188	0.162	0.111	0.122	0.133	0.112	0.102	0.100	0.110	0.086	0.100	0.099
515.0	9.350	14.39	35.69	63.36	34.08	44.83	178.6	532.4	188.1	28.90	27.00	23.65	18.67	17.19	14.81	13.25	12.42	11.41	11.19	11.03	10.93	10.27	10.11	10.34	10.34	9.982	10.18	10.28	10.30	10.25	9.714	9.472	8.789	8.024	7.615	6.861	6.622	6.158	6.327	6.240	5.852	5.445	5.691	8.123	8.276	4.471	1.902	1.340	1.180	1.085	1.159	1.246	0.919	0.798	1.087	3.565	17.58	48.93	123.1	293.1	111.9	2.926	0.265	0.209	0.179	0.159	0.177	0.124	0.139	0.116	0.087	0.088	0.064	0.095	0.082	0.115	0.068
520.0	8.576	11.38	19.77	61.91	46.00	27.30	66.51	403.7	397.6	37.76	22.51	19.73	17.10	14.28	13.08	11.88	11.05	9.993	10.20	9.421	9.050	8.562	9.372	9.204	8.970	8.732	9.203	9.141	8.948	9.107	8.881	8.460	7.759	7.231	6.473	6.012	6.202	5.704	5.572	5.576	5.324	4.518	4.322	5.254	8.203	6.384	2.727	1.375	1.208	1.065	1.009	1.092	0.997	0.671	0.695	1.246	4.293	11.39	30.33	165.9	279.1	24.30	0.929	0.256	0.176	0.168	0.130	0.123	0.125	0.118	0.099	0.104	0.058	0.088	0.054	0.086	0.063
525.0	8.652	9.695	14.62	46.47	57.24	25.16	33.38	209.1	535.2	116.6	20.37	17.67	14.57	13.83	11.29	10.02	9.809	9.259	8.505	8.283	8.021	7.415	8.014	8.343	7.943	8.153	8.066	7.956	7.679	8.027	7.835	7.445	6.941	6.531	5.953	5.561	5.573	5.210	5.163	4.950	4.684	3.937	3.770	3.597	6.017	6.981	4.123	1.624	1.132	0.974	0.870	0.912	1.047	0.822	0.582	0.721	1.283	2.955	7.217	44.13	204.7	196.8	18.51	0.388	0.167	0.175	0.106	0.118	0.127	0.089	0.081	0.094	0.066	0.074	0.050	0.089	0.047
530.0	5.610	8.094	11.86	28.33	57.62	34.40	22.78	71.44	372.5	332.8	42.69	15.70	13.03	11.95	10.02	9.003	8.034	7.931	7.396	7.474	7.002	6.973	6.767	7.044	6.904	6.701	7.130	6.811	6.672	6.893	6.815	6.400	5.986	5.438	5.199	4.891	4.611	4.486	4.263	4.261	4.005	3.547	3.057	2.757	3.346	5.376	5.774	3.048	1.334	0.873	0.810	0.730	0.762	0.858	0.686	0.598	0.611	1.020	1.954	10.18	53.59	143.6	179.5	66.27	2.768	0.213	0.111	0.127	0.141	0.075	0.080	0.068	0.055	0.053	0.091	0.070	0.054
535.0	5.831	8.196	10.06	16.41	39.99	49.36	21.45	30.49	130.7	435.1	177.8	14.46	10.96	10.20	8.502	7.383	6.761	6.700	6.172	6.021	5.862	5.866	5.819	5.908	5.691	5.695	5.952	5.866	5.650	5.846	5.707	5.500	5.053	4.604	4.327	4.352	3.952	3.680	3.670	3.448	3.378	3.091	2.563	2.233	2.283	2.679	4.726	4.838	2.272	0.927	0.718	0.655	0.662	0.673	0.732	0.621	0.444	0.513	0.752	2.554	12.22	32.89	85.23	206.6	26.78	1.883	0.169	0.105	0.114	0.074	0.061	0.052	0.046	0.060	0.051	0.050	0.041
540.0	4.940	6.777	7.846	10.56	23.65	51.16	24.62	19.48	44.68	298.9	373.1	31.41	10.14	8.827	8.041	6.726	6.357	6.427	5.366	5.301	5.493	5.062	4.907	5.105	4.816	5.070	4.924	5.149	5.003	5.147	4.878	4.788	4.355	4.102	3.791	3.830	3.651	3.157	3.357	3.013	2.831	2.679	2.249	1.967	1.780	1.628	2.928	4.855	3.514	1.378	0.712	0.604	0.481	0.525	0.595	0.693	0.529	0.381	0.358	0.815	2.949	7.604	20.96	115.0	188.0	23.45	0.609	0.109	0.098	0.077	0.062	0.058	0.055	0.027	0.044	0.059	0.058
545.0	4.583	6.601	8.203	8.907	14.76	43.76	36.61	15.49	21.29	138.7	435.1	123.0	9.639	8.186	6.438	5.892	5.580	5.374	4.685	4.765	4.857	4.507	4.378	4.209	4.450	4.678	4.503	4.487	4.565	4.733	4.520	4.182	3.840	3.764	3.464	3.216	3.156	2.971	2.856	2.718	2.641	2.440	1.960	1.936	1.448	1.450	1.814	3.579	4.222	2.231	0.945	0.614	0.464	0.454	0.442	0.562	0.725	0.376	0.282	0.377	0.802	1.952	4.953	30.46	142.9	158.3	16.95	0.256	0.109	0.078	0.074	0.041	0.061	0.056	0.059	0.067	0.051
550.0	4.388	4.767	6.864	7.949	9.456	25.82	44.48	18.93	14.32	44.22	257.0	313.1	37.13	6.839	5.677	5.005	4.861	4.630	4.211	4.185	3.829	3.900	3.612	3.604	3.727	3.674	3.846	3.588	3.742	3.816	3.801	3.667	3.322	3.109	2.972	2.820	2.674	2.630	2.442	2.385	2.221	2.020	1.760	1.542	1.243	1.146	1.152	1.845	3.204	3.228	1.702	0.731	0.508	0.423	0.390	0.391	0.496	0.518	0.324	0.236	0.366	0.618	1.291	6.994	37.31	106.2	130.0	48.03	2.037	0.104	0.097	0.061	0.045	0.046	0.041	0.051	0.053
555.0	2.251	4.839	6.296	6.175	6.986	13.07	34.49	32.20	11.63	17.45	82.22	302.2	144.5	6.879	4.723	4.205	4.038	3.906	3.311	3.219	3.098	3.110	2.934	3.058	2.763	2.982	3.146	2.909	3.239	3.452	2.935	2.991	2.769	2.494	2.451	2.363	2.107	2.140	1.998	1.920	1.722	1.704	1.519	1.259	1.075	0.961	0.848	1.006	1.503	2.668	2.744	1.281	0.499	0.497	0.331	0.362	0.305	0.465	0.491	0.224	0.218	0.326	0.462	1.676	8.468	24.23	59.65	144.8	26.36	1.399	0.121	0.083	0.049	0.033	0.024	0.030	0.050
560.0	2.782	5.008	4.698	6.042	6.611	8.439	23.73	37.29	12.79	11.64	26.91	177.2	299.3	27.88	4.388	3.973	3.462	3.104	3.136	2.808	2.649	2.738	2.626	2.590	2.799	2.702	2.706	2.514	2.695	2.860	2.585	2.396	2.223	2.201	2.017	1.951	1.704	1.850	1.727	1.629	1.560	1.404	1.240	1.105	1.045	0.831	0.820	0.681	0.909	1.683	2.703	2.015	0.694	0.377	0.298	0.301	0.313	0.316	0.435	0.384	0.207	0.218	0.231	0.525	2.079	5.557	14.55	78.69	129.0	21.16	0.427	0.070	0.042	0.030	0.029	0.021	0.030
565.0	3.084	5.227	5.193	5.824	5.774	6.217	13.97	35.97	18.59	8.870	12.47	72.35	301.5	106.2	4.069	3.677	2.537	2.560	2.318	2.265	2.371	2.460	2.307	2.134	2.417	2.295	2.233	2.173	2.375	2.384	2.201	2.010	2.022	1.889	1.751	1.731	1.571	1.448	1.502	1.404	1.350	1.147	1.140	0.926	0.851	0.649	0.675	0.578	0.577	0.945	1.938	2.173	1.055	0.402	0.295	0.284	0.240	0.291	0.271	0.432	0.302	0.187	0.216	0.258	0.605	1.384	3.400	20.40	90.57	105.7	13.95	0.141	0.064	0.046	0.027	0.030	0.039
570.0	3.099	3.527	5.218	5.035	4.761	5.402	7.784	23.25	28.29	9.963	8.042	23.17	154.7	238.7	38.38	3.100	2.152	2.062	1.860	1.851	1.758	1.803	1.886	1.779	1.803	1.643	1.909	1.708	1.903	1.773	1.797	1.635	1.568	1.442	1.385	1.392	1.237	1.152	1.200	1.202	1.084	0.946	0.825	0.767	0.606	0.586	0.530	0.460	0.447	0.539	0.917	1.637	1.418	0.703	0.314	0.237	0.179	0.224	0.191	0.243	0.333	0.251	0.176	0.174	0.219	0.400	0.882	4.664	23.44	66.55	77.24	16.92	1.163	0.052	0.021	0.025	0.034
575.0	4.953	3.657	4.392	3.606	4.075	3.918	4.167	11.15	27.91	18.84	7.256	10.48	45.27	190.1	182.9	3.698	1.710	1.697	1.503	1.376	1.422	1.431	1.360	1.412	1.378	1.293	1.405	1.383	1.336	1.369	1.505	1.113	1.223	1.061	1.088	0.990	1.014	0.909	0.886	0.869	0.881	0.752	0.548	0.523	0.574	0.498	0.434	0.404	0.333	0.374	0.405	0.753	1.311	1.140	0.557	0.182	0.160	0.156	0.126	0.140	0.210	0.306	0.191	0.124	0.114	0.158	0.285	1.147	5.305	15.10	34.66	77.29	23.00	0.761	0.059	0.037	0.035
580.0	4.053	4.590	4.611	3.359	3.757	3.629	3.773	6.211	21.64	25.95	7.780	7.072	15.43	101.6	265.9	27.40	1.597	1.459	1.290	1.243	1.210	1.108	1.079	0.960	1.061	1.054	1.147	1.038	1.003	1.088	1.072	1.021	1.029	0.904	0.832	0.767	0.860	0.720	0.723	0.632	0.674	0.630	0.505	0.472	0.441	0.387	0.326	0.284	0.285	0.285	0.251	0.332	0.855	1.165	0.769	0.282	0.152	0.157	0.100	0.109	0.152	0.227	0.241	0.139	0.094	0.079	0.115	0.328	1.293	3.440	8.461	41.95	70.83	15.71	0.230	0.027	0.020
585.0	2.459	3.685	4.022	3.625	3.003	3.760	2.894	4.925	14.63	28.87	10.41	6.304	7.803	39.51	223.1	87.11	1.481	1.292	1.106	1.100	1.029	0.889	0.884	0.945	0.920	0.874	0.884	0.903	0.998	0.872	0.916	0.770	0.855	0.766	0.717	0.711	0.725	0.664	0.602	0.492	0.544	0.467	0.444	0.396	0.400	0.261	0.313	0.244	0.220	0.244	0.229	0.221	0.445	0.978	0.948	0.417	0.187	0.141	0.125	0.103	0.150	0.127	0.219	0.205	0.092	0.074	0.095	0.119	0.365	0.816	2.004	10.88	48.93	55.17	7.827	0.073	0.024
590.0	3.635	3.986	3.253	2.631	3.776	3.024	2.739	4.161	7.967	23.47	20.10	6.640	5.990	12.28	99.54	181.4	31.30	1.257	0.955	0.878	0.822	0.809	0.715	0.740	0.732	0.760	0.685	0.747	0.784	0.687	0.836	0.587	0.697	0.531	0.579	0.577	0.588	0.479	0.479	0.440	0.408	0.368	0.341	0.304	0.291	0.249	0.237	0.194	0.179	0.197	0.160	0.132	0.219	0.482	0.809	0.712	0.377	0.124	0.081	0.114	0.082	0.086	0.128	0.227	0.229	0.138	0.104	0.084	0.144	0.241	0.490	2.488	12.62	33.68	36.88	13.87	0.801
595.0	2.779	3.043	3.020	3.357	2.324	2.713	2.860	3.794	4.797	13.57	24.59	10.59	4.892	6.076	27.37	125.9	132.2	2.446	0.772	0.702	0.670	0.642	0.541	0.657	0.522	0.587	0.596	0.609	0.626	0.535	0.588	0.454	0.451	0.395	0.444	0.416	0.429	0.362	0.400	0.375	0.330	0.285	0.290	0.257	0.235	0.201	0.179	0.185	0.143	0.127	0.129	0.147	0.128	0.186	0.383	0.701	0.517	0.242	0.091	0.089	0.074	0.059	0.080	0.123	0.181	0.182	0.100	0.068	0.074	0.106	0.155	0.586	2.845	7.634	17.86	44.19	17.62
600.0	2.083	3.661	2.479	2.337	1.981	2.731	2.441	3.526	3.715	8.698	22.58	15.47	5.010	4.316	8.343	60.50	178.3	24.05	0.780	0.646	0.458	0.598	0.535	0.534	0.491	0.490	0.505	0.551	0.516	0.450	0.473	0.415	0.353	0.344	0.367	0.373	0.376	0.335	0.315	0.319	0.289	0.248	0.279	0.205	0.153	0.235	0.152	0.139	0.117	0.114	0.096	0.106	0.072	0.118	0.209	0.469	0.563	0.350	0.115	0.046	0.084	0.052	0.063	0.089	0.164	0.190	0.143	0.108	0.049	0.059	0.080	0.163	0.675	1.787	4.339	23.05	40.18
605.0	1.481	3.500	3.366	1.959	2.463	2.597	2.722	3.153	3.458	6.169	17.39	20.35	5.419	3.676	3.944	21.12	141.3	70.87	1.055	0.575	0.437	0.540	0.480	0.446	0.482	0.457	0.384	0.429	0.426	0.413	0.413	0.417	0.317	0.292	0.349	0.337	0.254	0.306	0.297	0.264	0.227	0.245	0.216	0.152	0.171	0.179	0.142	0.117	0.120	0.121	0.113	0.089	0.064	0.090	0.100	0.291	0.535	0.375	0.184	0.083	0.038	0.056	0.044	0.049	0.072	0.141	0.188	0.118	0.056	0.059	0.049	0.063	0.165	0.437	1.010	6.028	26.73
610.0	1.948	2.485	2.838	2.336	2.328	2.601	2.122	2.835	3.401	4.495	9.844	20.51	10.77	3.733	2.654	6.361	58.80	135.0	27.44	0.516	0.451	0.458	0.424	0.390	0.330	0.331	0.323	0.346	0.325	0.269	0.351	0.329	0.276	0.298	0.271	0.271	0.232	0.248	0.199	0.183	0.188	0.162	0.162	0.114	0.106	0.135	0.115	0.123	0.090	0.089	0.082	0.084	0.061	0.057	0.062	0.129	0.282	0.423	0.298	0.147	0.051	0.067	0.065	0.037	0.044	0.082	0.114	0.175	0.089	0.063	0.054	0.054	0.066	0.111	0.243	1.385	6.848
615.0	1.217	2.393	3.143	2.408	2.080	2.772	2.110	2.224	3.225	3.626	6.066	14.28	16.73	4.793	2.611	2.545	15.33	84.03	106.2	2.348	0.550	0.379	0.287	0.338	0.240	0.306	0.294	0.313	0.278	0.259	0.322	0.333	0.227	0.197	0.196	0.179	0.154	0.216	0.172	0.169	0.151	0.149	0.146	0.094	0.128	0.130	0.091	0.086	0.087	0.073	0.066	0.069	0.062	0.086	0.044	0.061	0.124	0.285	0.266	0.218	0.087	0.092	0.073	0.030	0.039	0.060	0.102	0.108	0.128	0.084	0.040	0.033	0.033	0.044	0.085	0.330	1.530
620.0	1.474	2.390	2.916	2.309	1.529	2.024	2.120	2.661	3.107	3.815	4.487	8.912	17.79	7.099	2.750	2.100	4.495	37.09	134.6	24.26	0.397	0.324	0.295	0.271	0.222	0.247	0.301	0.229	0.311	0.190	0.216	0.252	0.219	0.188	0.200	0.180	0.161	0.159	0.122	0.149	0.129	0.105	0.138	0.070	0.114	0.084	0.084	0.073	0.077	0.058	0.050	0.054	0.065	0.058	0.058	0.025	0.088	0.127	0.269	0.291	0.116	0.087	0.051	0.039	0.035	0.039	0.054	0.064	0.127	0.139	0.053	0.063	0.052	0.038	0.061	0.115	0.376
625.0	2.887	3.387	2.977	2.260	1.473	2.059	2.082	2.532	3.018	3.743	4.253	5.996	15.12	10.75	2.577	1.920	2.030	12.20	99.69	62.38	0.699	0.419	0.287	0.294	0.185	0.213	0.291	0.184	0.188	0.228	0.163	0.153	0.183	0.214	0.164	0.126	0.105	0.104	0.146	0.105	0.140	0.112	0.115	0.085	0.112	0.085	0.106	0.062	0.078	0.061	0.064	0.061	0.063	0.058	0.053	0.027	0.078	0.062	0.147	0.285	0.177	0.084	0.082	0.070	0.019	0.041	0.047	0.050	0.082	0.133	0.071	0.063	0.023	0.023	0.047	0.037	0.091
630.0	1.404	2.923	2.829	2.046	1.534	1.671	2.327	2.398	2.891	3.762	3.742	4.572	10.02	13.94	4.116	1.764	1.530	3.644	38.43	106.9	23.77	0.411	0.227	0.274	0.192	0.189	0.196	0.170	0.190	0.160	0.180	0.140	0.145	0.148	0.144	0.133	0.097	0.084	0.096	0.121	0.114	0.110	0.096	0.064	0.086	0.081	0.057	0.059	0.069	0.050	0.064	0.069	0.037	0.037	0.049	0.043	0.061	0.031	0.065	0.152	0.195	0.104	0.095	0.055	0.036	0.039	0.049	0.039	0.043	0.090	0.099	0.089	0.031	0.009	0.020	0.016	0.029
635.0	1.839	2.150	2.253	3.383	2.523	2.355	2.175	1.855	2.870	3.804	3.767	4.362	6.114	12.88	8.454	2.097	1.295	1.757	9.929	59.89	89.49	2.479	0.225	0.283	0.213	0.201	0.162	0.192	0.186	0.146	0.128	0.131	0.123	0.120	0.157	0.105	0.110	0.091	0.084	0.081	0.063	0.085	0.093	0.046	0.025	0.079	0.032	0.066	0.052	0.043	0.064	0.061	0.035	0.040	0.035	0.059	0.031	0.057	0.062	0.055	0.114	0.201	0.126	0.058	0.018	0.041	0.052	0.030	0.040	0.043	0.056	0.101	0.079	0.019	0.022	0.001	0.022
640.0	2.944	3.585	1.505	2.242	2.386	1.849	2.325	2.091	2.735	3.560	3.606	4.421	4.739	8.983	10.89	2.827	1.324	1.409	3.069	23.20	108.1	24.07	0.228	0.228	0.211	0.207	0.113	0.186	0.157	0.170	0.100	0.090	0.080	0.093	0.160	0.131	0.077	0.080	0.075	0.042	0.101	0.069	0.076	0.082	0.053	0.050	0.047	0.040	0.045	0.054	0.041	0.047	0.026	0.037	0.012	0.038	0.025	0.052	0.035	0.013	0.108	0.163	0.148	0.102	0.031	0.026	0.040	0.034	0.020	0.020	0.032	0.069	0.081	0.047	0.028	0.003	0.034
645.0	2.167	3.742	3.348	1.402	2.244	1.680	2.172	2.504	2.644	3.176	3.900	4.048	4.326	6.146	11.33	4.195	1.461	1.208	1.439	7.099	76.40	56.41	0.568	0.183	0.212	0.154	0.127	0.096	0.103	0.165	0.093	0.114	0.087	0.132	0.112	0.100	0.072	0.090	0.053	0.071	0.075	0.065	0.042	0.074	0.068	0.048	0.068	0.049	0.049	0.058	0.032	0.027	0.039	0.021	0.046	0.045	0.032	0.016	0.052	0.018	0.042	0.130	0.138	0.087	0.035	0.027	0.041	0.029	0.024	0.051	0.022	0.026	0.096	0.050	0.011	0.030	0.004
650.0	1.427	2.974	2.670	1.546	2.113	1.319	2.014	2.190	2.560	3.454	3.396	4.089	4.593	4.614	8.784	6.942	1.578	1.251	1.060	2.180	34.59	105.8	7.463	0.219	0.232	0.178	0.142	0.065	0.149	0.148	0.101	0.093	0.080	0.109	0.127	0.076	0.099	0.050	0.057	0.069	0.083	0.051	0.073	0.059	0.092	0.052	0.051	0.058	0.078	0.043	0.019	0.014	0.026	0.065	0.041	0.062	0.026	0.023	0.040	0.010	0.029	0.061	0.117	0.082	0.049	0.027	0.036	0.011	0.026	0.021	0.020	0.028	0.058	0.067	0.034	0.018	-0.001
