Sample:	'1
File name:	Default_20250318_110330.FD3
Run date:	'10:57:09, 03/18/2025
Operator:	dsjg
Comment:	'

Instrument
Model:	F-2700 FL Spectrophotometer
Serial number:	2198-001
ROM Version:	4J14000 07

Instrument parameters
Measurement type:	3-D scan
Data mode:	Fluorescence
EX  Start WL:	220.0 nm
EX  End WL:	600.0 nm
EX Sampling interval:	5.0 nm
EM  Start WL:	230.0 nm
EM  End WL:	650.0 nm
EM Sampling interval:	5.0 nm
Scan speed:	12000 nm/min
EX Slit:	5.0 nm
EM Slit:	5.0 nm
PMT Voltage:	700 V
Response:	Auto 
Corrected spectra:	Off
Contour interval:	50.000

Peak integration
Integration method:	Rectangular
Sensitivity:	1
Threshold:	1.000

Peaks
No.	ApexEX/EM(nm)	Height(Data)
1	225.0/600.0	30.46
2	225.0/625.0	20.01
3	230.0/355.0	644.3
4	230.0/365.0	641.9
5	240.0/395.0	698.8
6	245.0/400.0	690.6
7	260.0/390.0	683.6
8	260.0/400.0	686.1
9	270.0/595.0	47.39
10	275.0/305.0	509.0
11	275.0/605.0	40.49
12	280.0/310.0	502.3
13	280.0/620.0	33.66
14	285.0/315.0	488.8
15	285.0/630.0	26.19
16	290.0/645.0	21.14
17	310.0/350.0	290.6
18	315.0/355.0	288.3
19	320.0/360.0	298.5
20	325.0/370.0	288.8
21	330.0/375.0	285.1
22	335.0/380.0	301.0
23	340.0/385.0	285.8
24	445.0/525.0	19.40
25	460.0/545.0	10.91
26	545.0/300.0	2.965
27	555.0/305.0	3.086

Data points
	220.0	225.0	230.0	235.0	240.0	245.0	250.0	255.0	260.0	265.0	270.0	275.0	280.0	285.0	290.0	295.0	300.0	305.0	310.0	315.0	320.0	325.0	330.0	335.0	340.0	345.0	350.0	355.0	360.0	365.0	370.0	375.0	380.0	385.0	390.0	395.0	400.0	405.0	410.0	415.0	420.0	425.0	430.0	435.0	440.0	445.0	450.0	455.0	460.0	465.0	470.0	475.0	480.0	485.0	490.0	495.0	500.0	505.0	510.0	515.0	520.0	525.0	530.0	535.0	540.0	545.0	550.0	555.0	560.0	565.0	570.0	575.0	580.0	585.0	590.0	595.0	600.0
230.0	82.86	 2025	 4688	 1296	39.38	5.652	3.581	3.096	2.857	2.456	2.159	1.920	1.672	1.536	1.332	1.083	0.973	0.785	0.931	0.931	0.770	0.750	0.716	0.745	0.690	0.636	0.615	0.581	0.507	0.531	0.507	0.500	0.409	0.410	0.354	0.398	0.370	0.353	0.331	0.299	0.272	0.355	0.354	0.282	0.252	0.218	0.532	3.881	11.13	12.25	5.820	1.181	0.244	0.152	0.141	0.100	0.127	0.118	0.098	0.111	0.089	0.086	0.077	0.075	0.081	0.066	0.073	0.077	0.077	0.059	0.083	0.072	0.062	0.045	0.061	0.043	0.062
235.0	72.96	544.2	 2813	 4303	 1861	49.61	5.382	4.636	4.049	3.053	2.447	2.325	1.613	1.497	1.425	1.153	0.949	0.866	0.949	0.853	0.766	0.823	0.793	0.692	0.709	0.723	0.744	0.580	0.515	0.512	0.515	0.411	0.423	0.446	0.373	0.337	0.388	0.441	0.365	0.310	0.263	0.274	0.322	0.398	0.399	0.288	0.326	1.024	3.341	7.010	11.12	14.63	9.117	2.142	0.265	0.113	0.146	0.126	0.106	0.113	0.086	0.090	0.093	0.060	0.081	0.061	0.076	0.079	0.088	0.067	0.091	0.071	0.054	0.062	0.069	0.046	0.064
240.0	109.9	167.2	847.5	 3580	 5572	403.0	19.08	6.496	4.651	3.636	2.789	2.383	2.074	1.662	1.500	1.229	1.211	1.100	0.958	0.852	0.808	0.838	0.769	0.616	0.776	0.796	0.663	0.582	0.575	0.583	0.512	0.505	0.423	0.438	0.361	0.350	0.337	0.411	0.368	0.297	0.261	0.264	0.304	0.292	0.442	0.527	0.430	0.454	0.951	1.882	4.435	11.97	19.40	16.63	7.100	1.008	0.168	0.121	0.156	0.140	0.063	0.088	0.131	0.054	0.096	0.082	0.052	0.071	0.074	0.071	0.082	0.072	0.060	0.061	0.079	0.048	0.054
245.0	86.41	129.9	227.8	 1265	 5450	 3236	288.9	10.83	6.090	4.163	3.305	2.884	2.389	1.742	1.651	1.448	1.266	1.187	0.974	0.954	0.862	0.828	0.798	0.750	0.780	0.810	0.641	0.549	0.632	0.561	0.485	0.387	0.499	0.376	0.368	0.333	0.342	0.379	0.380	0.322	0.260	0.293	0.278	0.249	0.303	0.385	0.542	0.614	0.468	0.603	1.142	3.563	9.788	19.49	23.48	14.87	4.411	0.409	0.153	0.135	0.083	0.111	0.134	0.126	0.104	0.085	0.077	0.056	0.086	0.075	0.085	0.075	0.053	0.047	0.082	0.045	0.060
250.0	37.37	104.1	158.9	331.8	 1795	 3767	 3947	 1148	67.50	7.450	4.692	3.707	2.789	2.141	1.861	1.521	1.344	1.251	1.184	1.034	1.024	0.875	0.862	0.803	0.728	0.811	0.736	0.693	0.716	0.536	0.558	0.465	0.471	0.418	0.370	0.388	0.335	0.347	0.313	0.372	0.301	0.305	0.279	0.225	0.232	0.306	0.333	0.491	0.602	0.654	0.591	1.011	2.450	5.864	11.36	17.40	22.50	19.80	12.07	4.233	0.508	0.126	0.115	0.130	0.116	0.111	0.089	0.089	0.089	0.090	0.086	0.089	0.063	0.053	0.057	0.084	0.073
255.0	21.60	39.00	109.1	201.6	446.2	980.4	 3329	 6354	 1705	88.60	7.450	5.191	3.380	2.527	2.254	1.700	1.568	1.463	1.431	1.067	1.040	1.056	0.830	0.965	0.768	0.824	0.755	0.733	0.711	0.660	0.550	0.541	0.541	0.396	0.403	0.397	0.377	0.338	0.282	0.290	0.325	0.316	0.271	0.269	0.228	0.292	0.252	0.281	0.309	0.483	0.831	1.075	0.991	1.535	2.698	4.173	7.449	16.24	30.45	28.68	18.85	4.935	0.311	0.117	0.120	0.137	0.091	0.087	0.120	0.097	0.060	0.092	0.078	0.056	0.090	0.068	0.075
260.0	18.50	19.91	44.75	150.9	214.3	246.1	 1043	 5143	 7200	 1425	37.53	6.677	4.138	3.569	2.649	2.073	1.672	1.656	1.372	1.266	1.123	1.008	0.844	0.986	0.865	0.772	0.774	0.782	0.774	0.734	0.669	0.617	0.549	0.472	0.410	0.363	0.319	0.344	0.308	0.284	0.263	0.336	0.278	0.335	0.245	0.259	0.283	0.304	0.226	0.282	0.453	0.925	1.123	0.938	0.849	1.150	1.877	4.291	12.08	25.83	39.27	28.07	13.92	2.198	0.175	0.164	0.110	0.092	0.117	0.130	0.091	0.131	0.084	0.076	0.083	0.067	0.063
265.0	16.94	16.78	19.89	77.53	188.2	139.4	255.3	 1750	 7064	 8122	202.1	15.66	6.110	4.097	3.205	2.630	2.113	1.813	1.649	1.285	1.264	1.095	1.063	0.919	0.960	0.838	0.690	0.775	0.764	0.614	0.724	0.581	0.558	0.489	0.412	0.389	0.331	0.339	0.331	0.289	0.251	0.366	0.249	0.356	0.301	0.253	0.259	0.279	0.208	0.215	0.275	0.439	0.810	1.106	1.002	0.640	0.651	1.169	2.944	7.643	19.26	37.02	44.27	25.21	8.766	0.696	0.187	0.098	0.117	0.143	0.122	0.101	0.128	0.098	0.105	0.064	0.075
270.0	30.70	31.86	27.72	32.56	89.83	161.4	157.7	425.9	 2191	 6209	 6690	 2853	62.28	6.952	4.455	3.460	2.921	2.041	1.823	1.628	1.467	1.352	1.250	1.195	1.010	0.926	0.869	0.754	0.797	0.684	0.778	0.649	0.598	0.580	0.464	0.462	0.394	0.394	0.356	0.309	0.269	0.302	0.289	0.333	0.310	0.345	0.334	0.282	0.268	0.212	0.255	0.274	0.327	0.558	0.875	0.984	1.049	0.813	0.899	1.938	4.605	10.52	19.26	29.09	30.34	33.70	16.37	7.705	0.928	0.167	0.142	0.122	0.127	0.107	0.112	0.086	0.081
275.0	72.58	77.53	53.43	30.73	36.17	76.10	187.8	217.8	522.6	 1514	 4047	 8649	 4073	78.83	7.616	5.019	3.875	2.668	2.408	1.829	1.734	1.426	1.267	1.247	1.289	1.045	0.911	1.015	0.765	0.868	0.784	0.672	0.618	0.569	0.661	0.655	0.577	0.465	0.424	0.408	0.397	0.369	0.334	0.428	0.361	0.445	0.397	0.397	0.350	0.296	0.274	0.267	0.207	0.325	0.414	0.447	0.995	1.419	1.241	0.955	1.320	2.576	4.548	6.874	9.263	20.93	40.11	52.89	25.11	8.515	0.522	0.198	0.217	0.132	0.114	0.124	0.127
280.0	111.9	125.8	82.39	42.24	27.21	36.25	120.7	224.6	216.3	381.5	 1161	 5264	 8473	993.7	47.05	6.972	4.477	3.717	2.805	2.080	1.838	1.785	1.461	1.335	1.353	1.146	1.012	1.028	0.861	0.885	0.732	0.610	0.725	0.529	0.814	0.735	0.703	0.585	0.523	0.449	0.414	0.463	0.418	0.461	0.471	0.534	0.481	0.504	0.437	0.433	0.324	0.293	0.204	0.254	0.264	0.273	0.492	0.875	1.289	1.466	1.136	0.946	1.268	1.853	2.349	5.470	13.96	32.80	52.18	32.17	19.76	3.363	0.247	0.228	0.114	0.117	0.184
285.0	159.4	162.7	114.5	56.04	29.82	29.54	61.91	177.4	242.0	174.3	323.9	 1621	 5828	 7795	770.1	23.39	5.911	4.236	3.549	2.518	2.205	1.850	1.570	1.630	1.414	1.222	1.332	1.026	1.065	0.865	0.693	0.732	0.712	0.779	0.844	0.855	0.827	0.737	0.645	0.568	0.474	0.500	0.511	0.493	0.521	0.670	0.575	0.742	0.632	0.491	0.416	0.366	0.247	0.278	0.310	0.243	0.382	0.438	0.755	1.296	1.708	1.577	0.877	0.796	0.903	1.606	3.619	8.835	21.27	39.41	59.76	29.56	12.59	0.838	0.186	0.142	0.205
290.0	201.3	208.7	148.4	82.44	46.55	38.09	52.17	102.1	214.5	266.1	214.8	476.2	 1716	 4682	 6224	 2949	42.89	7.175	4.832	3.605	2.899	2.174	1.992	1.695	1.636	1.354	1.411	1.256	1.184	1.019	0.815	0.847	0.754	0.834	0.912	1.067	0.970	0.895	0.762	0.693	0.515	0.602	0.574	0.578	0.583	0.698	0.796	0.801	0.793	0.665	0.506	0.429	0.341	0.325	0.397	0.320	0.359	0.452	0.548	0.740	1.052	1.460	1.760	1.562	1.209	1.004	1.420	2.598	5.484	10.75	22.11	32.22	45.28	40.10	18.20	8.554	0.883
295.0	237.7	245.6	194.2	101.0	66.14	56.44	65.93	88.96	149.3	278.4	381.4	315.1	523.0	 1194	 2849	 7624	 4369	54.50	7.299	4.782	3.853	2.980	2.636	2.118	1.940	1.593	1.420	1.542	1.063	1.061	1.015	0.860	0.900	0.876	1.074	1.134	1.131	0.929	0.774	0.793	0.696	0.719	0.655	0.628	0.759	0.797	0.895	0.856	0.904	0.741	0.642	0.514	0.480	0.411	0.412	0.504	0.515	0.474	0.622	0.586	0.716	1.029	1.185	1.858	2.435	2.209	1.443	1.485	2.072	3.218	5.534	7.749	12.45	21.69	45.30	67.81	28.55
300.0	264.4	272.5	219.2	125.0	79.21	76.10	82.02	105.2	145.3	240.9	413.9	420.9	309.3	397.0	818.4	 3846	 9158	 3304	37.49	6.930	5.058	3.613	3.126	2.589	2.387	1.813	1.481	1.536	1.348	1.290	1.268	1.041	0.964	1.022	1.067	1.191	1.279	0.996	0.951	0.805	0.842	0.739	0.696	0.669	0.764	0.922	0.977	0.964	1.002	0.785	0.646	0.630	0.566	0.574	0.556	0.533	0.571	0.528	0.519	0.680	0.754	0.930	1.120	1.378	2.151	2.965	2.563	1.872	1.596	1.792	2.026	2.446	3.425	5.860	15.02	37.81	64.78
305.0	266.3	298.4	241.5	150.0	97.48	88.14	102.4	129.5	166.5	235.7	355.5	509.0	377.3	258.0	286.8	 1119	 5036	 9675	531.7	24.60	6.256	4.712	3.801	2.817	2.471	2.149	1.774	1.727	1.520	1.230	1.141	1.103	0.925	1.152	1.117	1.285	1.253	1.083	1.000	0.843	0.798	0.707	0.720	0.775	0.759	0.953	0.981	1.050	0.980	0.848	0.642	0.662	0.604	0.615	0.592	0.677	0.708	0.644	0.701	0.815	0.898	0.927	1.099	1.374	1.743	2.142	2.758	3.086	2.367	1.729	1.382	1.452	1.512	1.897	3.847	10.15	24.41
310.0	268.0	311.3	261.1	169.6	121.8	109.7	122.7	151.6	196.9	252.0	331.2	446.1	502.3	346.6	202.1	325.4	 1355	 4703	 7328	 3985	34.93	7.592	5.405	3.872	3.197	2.450	2.126	1.910	1.668	1.451	1.297	1.167	1.115	1.273	1.220	1.254	1.172	1.141	0.997	0.904	0.885	0.770	0.851	0.854	0.836	0.972	1.038	1.105	1.153	0.913	0.771	0.799	0.689	0.733	0.684	0.718	0.799	0.733	0.894	0.992	1.073	1.125	1.310	1.551	1.814	1.809	2.188	2.612	2.938	2.944	2.059	1.597	1.237	1.177	1.435	2.776	5.974
315.0	298.2	336.4	283.0	198.9	137.0	125.8	149.9	174.5	219.3	282.5	351.2	409.0	461.6	488.8	281.5	175.3	362.7	 1110	 2657	 8338	 3500	45.88	7.535	5.446	4.235	3.190	2.743	2.152	1.940	1.780	1.506	1.257	1.160	1.255	1.172	1.368	1.238	1.153	0.989	1.018	0.879	0.826	0.817	0.892	0.927	0.985	1.085	1.272	1.127	1.072	0.795	0.939	0.789	0.808	0.742	0.810	0.843	0.924	0.964	1.100	1.230	1.203	1.355	1.569	1.986	1.941	1.952	1.981	2.412	2.499	2.952	2.850	1.959	1.169	1.045	1.333	1.792
320.0	322.6	378.4	334.1	215.4	153.6	145.7	164.6	194.9	242.8	309.7	372.8	421.2	436.9	472.1	410.4	191.6	157.1	297.0	682.4	 3571	 9542	 2785	33.86	7.164	5.116	3.749	2.956	2.564	2.190	1.842	1.643	1.383	1.226	1.259	1.221	1.470	1.277	1.104	1.001	0.934	0.933	0.838	0.848	0.835	0.974	1.023	1.211	1.333	1.186	1.189	0.958	0.867	0.847	0.822	0.781	0.839	0.937	1.002	1.099	1.208	1.262	1.360	1.437	1.864	1.867	2.122	2.302	2.031	2.214	2.205	2.434	3.092	2.939	1.882	1.237	0.975	0.891
325.0	353.7	444.9	406.0	270.5	179.9	157.7	181.2	218.6	268.7	330.2	400.2	448.5	454.8	434.3	442.1	300.0	138.7	129.6	196.8	936.5	 4939	 9917	424.1	23.48	6.359	4.860	3.485	3.021	2.301	2.027	1.669	1.540	1.305	1.321	1.461	1.436	1.295	1.147	1.035	0.932	1.045	0.862	0.793	0.898	1.059	1.101	1.282	1.440	1.509	1.346	1.103	1.158	1.005	1.033	0.847	1.034	1.179	1.121	1.061	1.371	1.442	1.540	1.484	1.931	1.968	2.130	2.315	2.377	2.091	2.248	2.359	2.384	2.663	2.987	2.200	1.305	0.935
330.0	395.5	497.9	487.0	339.5	227.7	190.3	202.9	234.2	293.4	359.4	433.0	479.0	486.5	443.3	389.1	364.7	249.2	128.0	107.5	255.2	 1249	 4681	 7799	 4156	31.26	7.437	5.097	3.586	2.852	2.520	2.071	1.695	1.493	1.467	1.557	1.406	1.376	1.183	1.091	0.995	0.969	0.910	0.937	0.974	1.110	1.272	1.397	1.685	1.747	1.579	1.393	1.353	1.307	1.141	1.041	1.006	1.289	1.216	1.310	1.471	1.590	1.626	1.695	2.014	2.188	2.269	2.367	2.584	2.444	2.477	2.438	2.325	2.240	2.215	2.201	2.333	1.916
335.0	428.5	560.7	560.4	402.4	278.4	232.2	225.4	260.0	320.6	394.3	461.8	507.8	520.1	482.0	392.5	324.4	333.7	230.2	115.7	122.3	325.2	 1089	 2681	 9153	 3036	41.74	7.384	5.252	4.132	3.197	2.496	1.947	1.737	1.576	1.736	1.543	1.419	1.201	1.186	1.066	0.932	0.893	1.017	1.019	1.123	1.387	1.391	1.814	2.027	1.777	1.587	1.478	1.457	1.386	1.259	1.176	1.363	1.419	1.519	1.505	1.668	1.810	1.959	2.203	2.385	2.439	2.647	2.675	2.598	2.678	2.536	2.341	2.211	2.149	1.924	1.999	2.325
340.0	450.7	573.7	590.3	455.6	328.3	269.7	259.3	285.2	352.8	416.9	481.0	530.2	542.5	503.6	418.0	324.4	302.4	318.2	172.3	107.8	129.3	288.7	663.3	 3810	9999.9	 2585	32.73	7.119	4.643	3.680	2.885	2.257	1.968	1.857	1.722	1.564	1.463	1.356	1.195	1.177	0.935	1.055	1.142	1.032	1.159	1.570	1.690	1.919	2.185	1.913	1.882	1.592	1.671	1.652	1.439	1.317	1.381	1.554	1.638	1.655	1.957	1.924	2.163	2.322	2.516	2.567	2.681	2.846	2.876	2.809	2.544	2.425	2.305	2.195	2.051	1.794	1.830
345.0	458.8	584.5	606.5	503.8	373.5	303.9	292.9	311.4	364.4	428.4	488.4	544.5	554.0	515.9	438.9	346.2	283.6	309.1	269.0	137.1	103.8	122.4	190.9	963.3	 5470	9999.9	 1950	22.40	5.911	4.557	3.414	2.551	2.127	1.961	1.745	1.661	1.507	1.358	1.289	1.117	1.016	0.979	1.098	1.060	1.208	1.459	1.586	2.044	2.318	1.938	1.831	1.731	1.885	1.669	1.531	1.504	1.568	1.652	1.826	1.774	1.924	2.115	2.178	2.358	2.610	2.646	2.721	2.856	2.776	2.772	2.740	2.845	2.590	2.471	2.162	1.853	1.799
350.0	446.7	585.4	630.3	542.7	431.3	363.4	350.6	358.4	400.5	456.6	505.0	555.7	566.6	534.7	465.3	375.5	303.8	275.7	290.6	242.5	138.1	107.7	103.7	262.1	 1358	 4865	 7966	 3815	29.51	7.035	4.546	3.382	2.485	2.289	1.938	1.749	1.541	1.367	1.300	1.066	1.074	1.022	1.069	1.155	1.116	1.454	1.597	2.064	2.186	2.111	1.947	2.089	2.144	1.877	1.938	1.787	1.975	1.819	2.019	2.075	2.147	2.206	2.384	2.466	2.633	2.679	2.661	2.799	2.913	2.847	2.835	2.801	2.590	2.510	2.405	2.132	2.138
355.0	449.0	577.4	644.3	572.1	495.4	440.6	419.6	429.1	466.9	505.6	544.5	582.2	585.8	552.6	496.8	409.7	345.1	290.5	264.5	288.3	242.6	140.1	110.7	126.2	353.1	 1126	 2664	 8401	 2862	40.79	6.907	4.572	3.301	2.759	1.940	1.758	1.562	1.592	1.511	1.226	1.074	1.009	1.225	1.046	1.178	1.511	1.574	1.919	2.313	2.222	2.004	2.373	2.394	2.103	2.220	2.040	2.169	2.181	2.294	2.479	2.447	2.624	2.632	2.654	2.896	2.706	3.034	2.915	3.174	2.849	2.948	2.922	2.832	2.669	2.643	2.495	2.353
360.0	451.8	562.2	637.1	620.5	543.7	498.6	473.4	477.7	511.9	546.5	572.9	597.0	599.3	570.6	518.0	433.9	367.0	316.3	273.5	268.1	298.5	204.3	132.3	111.7	142.4	295.5	647.1	 3488	 9438	 2509	31.15	5.887	4.040	3.099	2.482	2.027	1.710	1.587	1.370	1.306	1.077	1.094	1.209	1.099	1.256	1.499	1.640	1.935	2.176	2.207	2.238	2.326	2.542	2.462	2.441	2.292	2.597	2.471	2.604	2.627	2.686	2.901	2.753	2.917	2.744	3.122	3.141	3.064	3.147	3.010	2.958	3.008	2.765	2.729	2.719	2.607	2.503
365.0	439.7	555.0	641.9	638.5	575.2	539.9	518.3	525.6	555.5	589.4	601.7	617.6	610.8	579.0	527.8	454.5	391.6	344.4	293.6	265.7	284.8	284.8	175.4	127.1	110.1	122.8	185.2	867.4	 5112	 9588	 1870	20.68	5.147	3.689	2.854	2.058	1.905	1.608	1.406	1.358	1.193	1.143	1.182	1.138	1.348	1.476	1.597	1.946	1.951	2.309	2.190	2.576	2.565	2.529	2.451	2.511	2.823	2.655	2.790	2.893	2.888	3.025	2.929	3.084	2.840	3.249	3.058	3.193	3.210	3.124	2.989	2.931	2.943	3.108	2.825	2.748	2.616
370.0	441.4	550.6	636.4	650.2	625.2	590.5	575.7	579.1	605.4	621.4	632.2	632.5	624.3	593.1	542.1	476.2	420.8	374.9	326.2	290.3	271.9	288.8	264.2	176.3	129.0	105.6	98.77	233.2	 1258	 4704	 7510	 3417	26.01	5.668	3.745	2.783	2.315	1.936	1.592	1.356	1.243	1.183	1.216	1.236	1.256	1.426	1.634	1.943	2.125	2.098	2.198	2.549	2.718	2.816	2.782	2.835	3.064	3.178	3.128	3.304	3.070	3.281	3.305	3.412	3.343	3.281	3.137	3.119	3.184	3.225	3.234	3.043	3.178	3.075	3.085	2.803	2.766
375.0	423.3	529.3	619.8	662.2	674.2	639.1	622.9	629.3	643.2	656.0	653.9	652.2	638.9	602.7	549.3	497.2	449.0	400.8	357.2	322.8	294.7	275.6	285.1	269.1	172.5	126.1	98.52	107.8	320.0	 1081	 2557	 7706	 2520	34.83	5.599	3.707	2.977	2.178	1.786	1.561	1.350	1.228	1.309	1.397	1.362	1.494	1.682	1.762	2.169	2.187	2.123	2.546	2.874	3.015	3.183	3.104	3.281	3.251	3.363	3.259	3.338	3.485	3.459	3.532	3.404	3.098	3.149	3.102	3.251	3.141	3.209	3.046	3.024	2.928	3.092	2.748	2.902
380.0	431.0	527.5	632.8	661.8	674.7	659.5	647.7	647.6	660.0	670.2	663.0	661.3	646.6	603.7	555.9	504.8	460.6	420.5	377.6	341.5	316.1	283.5	272.7	301.0	235.3	151.9	113.1	92.89	122.3	275.5	612.0	 3263	 8162	 2122	26.07	4.722	3.352	2.562	1.952	1.741	1.622	1.377	1.442	1.393	1.430	1.587	1.664	1.871	2.153	2.068	2.052	2.602	2.792	3.189	3.124	3.079	3.542	3.417	3.314	3.561	3.460	3.428	3.632	3.475	3.391	3.495	3.405	3.179	3.298	3.256	3.155	3.127	3.247	3.135	3.079	2.933	2.803
385.0	442.4	527.5	619.9	674.4	677.6	671.4	674.1	651.2	683.6	681.7	670.0	664.5	644.2	605.2	554.8	506.8	466.6	428.6	391.0	360.5	327.8	300.5	276.3	283.6	285.8	190.9	132.7	103.4	88.46	104.7	167.6	804.1	 4502	 7741	 1494	16.59	4.257	3.052	2.404	1.865	1.689	1.397	1.514	1.407	1.543	1.674	1.563	1.995	2.172	2.154	2.146	2.455	2.920	3.126	3.152	3.154	3.700	3.563	3.425	3.699	3.562	3.488	3.514	3.591	3.716	3.445	3.445	3.072	3.250	3.279	2.979	3.141	3.261	3.165	3.268	2.871	2.872
390.0	434.9	519.7	611.6	671.5	688.5	681.7	675.3	662.7	683.6	681.9	670.4	660.4	639.8	597.0	553.2	508.0	470.7	440.1	402.6	375.0	347.5	319.9	293.2	276.1	278.4	256.1	179.7	125.7	98.67	81.63	79.63	208.7	 1103	 3832	 5882	 2649	21.35	4.584	2.924	2.241	1.812	1.642	1.617	1.405	1.453	1.574	1.585	1.915	2.126	2.135	2.186	2.679	2.866	3.161	3.266	3.193	3.488	3.572	3.539	3.490	3.502	3.615	3.544	3.570	3.560	3.398	3.322	3.236	3.203	3.234	3.156	3.174	3.153	3.282	2.986	2.866	2.955
395.0	426.8	501.7	601.2	660.5	698.8	685.3	685.9	672.7	681.1	680.2	663.5	653.5	626.0	590.6	550.0	505.2	472.6	441.3	410.4	384.9	360.5	336.2	313.1	286.2	267.1	261.3	248.3	168.3	120.3	93.59	73.74	85.76	273.9	876.9	 2019	 6103	 2068	29.61	4.357	2.993	2.175	1.854	1.663	1.544	1.465	1.607	1.619	1.871	2.142	2.161	2.027	2.684	3.008	3.075	3.269	3.392	3.509	3.494	3.559	3.388	3.612	3.687	3.583	3.590	3.388	3.368	3.206	3.324	2.970	3.363	3.207	2.845	3.127	3.070	2.991	2.960	3.159
400.0	426.5	499.6	594.9	642.9	675.8	690.6	677.4	665.3	686.1	672.1	654.6	642.1	614.9	582.2	542.9	498.6	467.9	442.6	412.1	384.4	366.3	345.4	321.8	299.2	274.7	251.4	259.0	217.9	142.4	107.8	82.56	67.90	95.00	219.7	479.6	 2613	 6345	 1740	21.84	3.870	2.413	2.009	1.824	1.669	1.619	1.633	1.634	1.978	2.184	2.071	2.077	2.708	2.933	3.131	3.214	3.353	3.586	3.425	3.415	3.631	3.612	3.535	3.497	3.541	3.398	3.183	3.052	3.186	3.045	3.100	3.116	2.835	3.030	3.150	3.119	3.076	3.005
405.0	435.0	483.0	583.7	629.2	673.4	680.1	660.6	668.8	680.4	663.5	638.0	629.3	607.1	566.9	531.9	491.8	462.7	436.9	410.9	387.2	367.3	349.0	329.1	307.1	279.3	253.6	245.9	245.1	177.5	123.7	95.62	71.22	61.58	78.11	127.6	638.7	 3433	 5799	261.5	14.82	3.167	2.294	1.997	1.751	1.718	1.854	1.818	1.906	2.174	2.172	2.091	2.624	2.836	3.131	3.224	3.488	3.536	3.455	3.553	3.603	3.523	3.334	3.498	3.478	3.253	3.284	3.017	2.975	3.339	3.144	3.031	2.986	3.006	2.950	3.013	2.853	2.982
410.0	416.0	482.8	565.3	617.2	651.6	669.9	659.3	657.8	661.6	652.4	624.7	614.9	586.2	551.9	514.0	475.1	449.7	426.1	403.9	382.3	364.2	347.6	329.7	313.1	288.5	258.8	237.5	232.3	220.3	162.7	113.6	84.60	64.43	54.54	55.20	161.6	831.3	 2853	 4325	 1127	18.69	3.536	2.360	1.901	1.863	1.911	1.863	1.904	2.040	2.036	2.084	2.606	2.843	2.874	3.107	3.252	3.405	3.556	3.455	3.611	3.483	3.457	3.370	3.186	3.300	3.194	3.041	2.969	3.103	3.076	2.906	3.050	2.987	2.881	2.940	2.896	2.907
415.0	394.3	465.8	548.1	591.1	623.8	645.3	642.6	642.2	643.7	630.4	614.4	591.5	565.8	535.0	494.6	456.3	430.5	412.0	390.0	374.3	356.0	342.4	327.8	311.2	292.1	263.4	240.0	221.6	213.9	206.0	143.8	99.76	75.42	58.37	46.94	60.84	202.9	650.9	 1547	 4379	 1788	26.20	3.472	2.347	2.163	2.103	1.836	2.006	2.066	2.002	2.007	2.532	2.784	2.730	2.985	3.039	3.205	3.571	3.405	3.594	3.319	3.258	3.217	3.184	3.203	3.035	2.941	2.919	3.120	3.026	2.783	2.755	2.823	2.778	2.744	2.735	2.960
420.0	366.1	466.0	527.0	569.9	616.6	615.9	632.9	638.8	639.3	624.1	604.5	577.4	546.2	511.6	477.2	444.7	417.4	398.4	378.6	362.2	346.1	337.9	321.1	309.2	290.4	267.2	243.4	220.5	203.2	207.2	177.5	116.1	84.18	63.35	48.87	42.28	65.64	159.6	364.9	 1915	 4690	 1480	19.32	3.061	2.381	2.373	1.870	2.156	1.971	2.033	2.065	2.449	2.810	2.854	3.005	3.035	3.341	3.370	3.407	3.403	3.377	3.270	3.243	3.104	3.172	3.190	2.653	2.839	2.820	2.732	2.501	2.612	2.772	2.717	2.738	2.685	2.845
425.0	366.4	440.9	523.7	565.6	593.9	604.4	624.7	629.0	625.1	609.6	596.1	568.7	534.8	491.6	458.1	426.9	404.4	387.9	368.0	352.8	338.1	332.0	315.6	305.9	288.2	268.5	245.4	223.7	202.3	193.5	192.8	142.5	94.54	69.68	53.94	41.39	38.52	52.53	94.07	465.3	 2606	 4420	248.6	10.96	2.681	2.464	2.116	1.996	1.923	1.861	2.006	2.373	2.652	2.795	2.913	3.139	3.234	3.375	3.302	3.291	3.308	3.218	3.259	3.199	2.941	3.013	2.649	2.795	2.597	2.717	2.683	2.716	2.592	2.616	2.882	2.666	2.696
430.0	397.7	423.5	492.6	540.2	556.3	584.8	595.3	610.0	614.0	601.6	575.5	552.4	514.2	480.0	443.5	407.9	388.1	369.0	353.8	338.3	327.2	319.1	309.2	298.5	284.7	266.4	246.3	226.7	205.5	189.2	180.0	167.3	121.6	81.46	62.21	48.17	38.20	34.01	36.59	115.7	638.8	 2248	 3210	 1022	16.02	3.194	2.369	2.130	2.112	1.992	1.905	2.361	2.598	2.779	2.741	3.063	3.074	3.283	3.332	3.202	3.201	3.131	3.278	3.125	2.943	2.963	2.776	2.681	2.616	2.582	2.600	2.516	2.530	2.418	2.626	2.591	2.584
435.0	799.6	407.2	473.6	516.0	542.8	557.9	585.6	596.0	600.9	590.9	570.1	532.3	499.9	457.7	425.9	390.0	368.7	353.3	339.9	323.7	312.3	305.7	298.1	286.4	278.0	263.7	244.8	228.4	210.5	194.0	171.3	159.5	149.4	102.3	72.29	55.92	43.48	33.41	28.09	40.29	152.7	511.1	 1192	 3594	 1554	22.05	3.000	2.485	2.236	1.968	2.036	2.471	2.477	2.671	2.739	2.854	3.104	3.233	3.391	3.127	3.183	3.141	3.194	3.049	2.862	2.781	2.632	2.830	2.607	2.538	2.604	2.447	2.441	2.416	2.436	2.310	2.289
440.0	 1592	433.3	458.2	503.8	530.5	548.7	570.6	582.0	592.7	584.4	561.1	526.8	487.9	448.6	413.0	373.6	353.4	339.7	323.7	309.8	302.6	296.1	288.8	281.0	270.8	257.5	242.9	225.6	213.1	193.1	171.6	151.2	148.6	124.4	82.39	61.13	47.19	35.99	28.39	25.62	46.62	123.2	282.3	 1747	 3985	 1114	13.17	2.891	2.362	2.134	1.953	2.314	2.592	2.720	2.748	2.731	3.097	2.943	3.237	3.296	3.232	3.283	3.130	3.149	2.719	2.666	2.658	2.603	2.432	2.330	2.410	2.502	2.423	2.615	2.384	2.229	2.147
445.0	 2524	623.8	433.4	483.2	516.1	536.3	558.2	570.5	578.1	568.8	540.4	515.4	472.8	436.3	399.4	362.9	339.1	325.5	312.6	300.0	293.1	284.1	277.4	272.8	264.6	253.4	239.6	222.6	211.3	195.0	173.6	150.1	136.8	134.4	98.49	67.14	52.36	39.12	30.34	24.11	24.25	38.22	71.95	440.1	 2517	 3614	191.5	6.922	2.806	2.245	2.170	2.268	2.431	2.589	2.698	2.513	3.058	3.003	3.022	2.954	3.171	3.209	3.196	3.059	2.875	2.785	2.695	2.618	2.510	2.403	2.456	2.444	2.332	2.361	2.300	2.103	2.364
450.0	 2438	 1605	477.9	456.0	487.3	497.9	525.4	545.7	555.7	543.7	520.4	496.9	451.5	411.9	376.8	339.3	320.0	307.4	292.1	282.0	276.4	266.7	262.2	257.7	250.9	239.7	228.6	216.5	205.3	191.5	171.8	150.3	129.9	121.0	112.0	82.38	58.77	43.90	34.25	27.03	21.97	21.37	26.08	106.3	627.9	 2085	 2266	787.3	13.01	2.674	2.315	2.420	2.526	2.441	2.522	2.569	2.814	2.829	2.930	2.921	2.882	3.036	2.974	2.900	2.757	2.899	2.515	2.668	2.511	2.308	2.174	2.344	2.189	2.074	2.180	2.183	2.104
455.0	 1129	 2568	911.5	429.2	460.1	459.1	491.3	516.2	528.8	516.3	491.8	460.6	427.2	386.2	352.1	312.5	299.0	280.4	269.5	258.3	252.7	248.2	244.9	237.8	231.3	224.5	215.2	205.5	196.0	183.7	167.3	147.5	126.2	109.3	102.1	96.51	70.56	49.18	38.12	30.66	24.10	20.23	17.71	32.95	147.2	474.0	 1021	 2967	 1222	15.63	2.808	2.593	2.519	2.431	2.457	2.370	2.636	2.800	2.765	2.993	2.870	2.816	2.865	2.855	2.678	2.583	2.329	2.517	2.359	2.080	2.078	2.069	2.181	1.961	2.117	2.030	2.124
460.0	496.5	 2203	 1805	467.3	428.7	437.8	465.3	495.0	502.3	496.8	472.5	446.5	404.8	364.7	330.7	295.4	281.6	262.0	250.3	242.2	237.9	232.2	227.1	224.5	220.7	212.4	203.2	195.5	189.0	177.7	162.8	144.7	124.6	107.1	93.83	92.40	82.23	54.62	40.88	32.48	25.89	20.70	16.99	17.47	40.89	112.4	244.0	 1491	 3108	793.7	10.28	2.999	2.615	2.295	2.545	2.215	2.519	2.657	2.698	2.980	2.757	2.755	2.699	2.885	2.526	2.570	2.316	2.237	2.018	1.919	2.053	2.051	1.933	1.897	1.898	1.872	1.983
465.0	306.6	 1283	 2495	705.3	398.6	420.2	441.9	468.3	482.1	475.7	452.6	428.0	385.9	349.4	311.3	280.9	262.3	247.0	235.1	227.2	223.4	215.1	212.7	209.7	207.6	200.7	191.9	187.5	180.4	170.3	157.6	140.7	122.3	103.9	90.81	83.14	83.24	62.87	43.37	34.46	28.28	21.30	17.33	15.29	17.96	32.65	60.57	374.5	 2053	 2601	150.5	5.656	2.879	2.408	2.447	2.188	2.374	2.507	2.597	2.740	2.576	2.681	2.530	2.510	2.463	2.458	2.335	2.130	2.005	2.078	1.948	2.050	1.842	1.836	1.790	1.773	1.952
470.0	258.5	546.9	 1997	 1859	463.4	378.3	409.4	436.6	446.0	443.8	417.1	393.4	357.3	319.0	287.8	258.5	240.4	223.9	215.8	207.6	201.9	196.4	192.2	190.2	189.5	182.5	175.8	171.2	166.7	160.2	148.2	133.2	116.5	99.77	87.25	76.41	72.81	68.44	51.63	37.16	29.38	23.54	19.21	15.89	14.33	15.61	20.26	89.19	519.5	 1554	 1594	667.1	12.77	2.839	2.410	2.198	2.447	2.413	2.566	2.588	2.476	2.445	2.457	2.272	2.317	2.146	2.239	1.994	1.975	1.896	1.784	1.849	1.721	1.728	1.646	1.641	1.616
475.0	228.5	320.4	831.8	 2642	 1242	346.6	367.3	397.2	411.9	401.5	386.6	366.2	324.3	292.4	260.7	232.2	217.4	202.6	195.3	187.4	182.1	179.0	175.0	172.7	170.2	166.9	161.2	156.4	152.2	147.0	136.5	125.4	108.7	95.03	82.79	71.93	64.83	61.40	58.41	43.87	31.44	25.01	20.94	17.21	14.48	12.73	11.97	26.27	120.7	352.7	682.8	 2058	910.4	15.90	2.867	2.276	2.368	2.308	2.286	2.276	2.255	2.256	2.053	2.122	2.146	2.010	2.044	1.701	1.778	1.693	1.661	1.621	1.555	1.659	1.444	1.507	1.589
480.0	214.0	248.2	391.6	 2094	 2265	393.5	346.8	371.5	391.5	380.8	366.6	347.7	305.5	275.6	243.4	216.7	199.8	190.9	181.1	170.8	166.6	163.2	162.2	159.9	156.6	156.0	150.8	145.5	143.1	137.0	131.0	119.3	102.9	91.28	80.03	70.68	61.72	54.71	55.68	49.61	34.97	26.73	22.25	18.36	15.47	12.97	10.93	12.88	32.44	83.18	163.2	975.4	 2084	201.6	10.74	2.493	2.337	2.307	2.318	2.240	2.134	2.165	2.002	1.995	2.019	1.910	1.804	1.658	1.690	1.608	1.516	1.527	1.420	1.565	1.462	1.474	1.411
485.0	200.0	239.9	277.5	 1109	 2873	697.1	329.0	350.4	371.2	361.7	342.2	330.2	286.6	260.4	225.1	206.6	187.2	178.0	168.2	161.1	156.3	152.7	151.8	148.7	147.6	143.4	140.0	137.5	134.1	130.1	123.1	114.1	99.11	87.94	78.51	68.29	59.66	51.94	50.11	51.37	40.09	28.39	23.04	19.46	16.28	13.65	11.44	10.50	13.01	23.53	40.87	241.0	 1326	 1630	172.6	4.964	2.369	2.251	2.226	2.002	1.929	1.947	1.900	1.953	1.850	1.929	1.688	1.641	1.532	1.514	1.424	1.476	1.438	1.386	1.415	1.377	1.275
490.0	179.5	240.2	239.6	468.5	 2031	 1671	371.0	318.8	344.2	332.5	317.8	299.9	267.5	236.6	209.2	190.3	170.9	162.0	154.0	148.0	142.1	138.6	137.3	134.7	133.3	129.6	127.6	124.5	122.8	119.9	113.8	105.1	93.89	83.18	74.34	64.83	57.75	50.32	45.34	44.37	43.87	33.45	24.71	20.05	17.02	14.44	12.43	10.46	9.452	10.58	13.51	57.72	329.2	 1001	 1508	621.4	12.87	2.585	2.115	1.978	1.980	1.941	1.803	1.865	1.733	1.697	1.593	1.548	1.491	1.482	1.361	1.384	1.320	1.281	1.314	1.229	1.316
495.0	150.6	215.5	221.5	275.5	793.6	 2186	 1084	291.7	301.3	305.0	290.2	272.5	247.3	211.5	189.3	169.3	156.3	145.7	138.4	133.4	127.1	124.5	124.3	119.9	119.5	115.6	114.2	112.6	112.3	108.2	104.5	94.51	86.91	76.48	69.30	61.67	53.96	48.12	42.22	39.23	38.40	37.67	29.08	21.23	17.66	15.00	12.85	11.01	9.210	8.221	7.739	16.86	76.79	228.1	648.3	 1770	854.3	16.39	2.488	1.929	1.931	1.921	1.804	1.751	1.602	1.506	1.498	1.399	1.557	1.382	1.225	1.231	1.129	1.164	1.112	1.088	1.035
500.0	141.0	190.5	219.3	220.6	360.1	 1614	 2053	329.9	280.7	280.4	267.9	247.3	222.9	197.0	173.6	155.7	143.5	134.3	125.6	118.9	117.4	112.9	111.9	110.0	108.3	107.2	104.8	102.4	100.9	99.31	95.84	87.56	80.37	71.74	65.20	57.46	51.76	45.37	40.56	35.96	33.90	35.69	32.03	22.80	18.26	15.09	13.16	11.30	9.404	7.943	6.784	8.004	20.63	54.30	153.7	843.6	 1861	216.1	10.96	2.185	1.909	1.810	1.705	1.587	1.512	1.457	1.248	1.336	1.326	1.255	1.169	1.093	0.967	1.102	1.006	1.026	1.004
505.0	130.0	154.6	212.5	201.0	232.5	826.5	 2632	727.6	256.6	256.1	248.9	229.7	207.9	182.5	162.1	143.4	130.3	122.8	116.0	110.3	105.5	104.1	102.0	102.1	98.38	98.69	94.06	92.49	93.64	90.91	87.70	81.90	75.53	66.70	61.14	54.20	48.61	42.91	39.13	34.59	31.86	31.30	32.01	25.26	18.53	15.64	13.20	11.57	9.457	8.087	6.785	5.898	8.179	15.39	37.59	207.7	 1138	 1590	179.3	4.739	1.851	1.763	1.635	1.669	1.427	1.330	1.253	1.250	1.186	1.174	0.984	0.988	0.993	1.098	0.882	1.076	0.909
510.0	107.8	131.0	185.5	194.5	189.2	347.0	 1769	 1910	390.0	225.5	223.6	206.0	184.0	162.9	144.7	127.2	115.4	108.4	103.0	97.16	93.69	91.01	89.63	88.33	86.70	85.46	83.22	81.61	81.83	79.95	77.89	72.36	66.24	60.13	54.26	49.01	44.42	39.36	36.10	31.49	29.05	27.03	27.32	27.07	20.99	15.73	13.10	11.34	9.432	8.049	7.099	5.880	5.620	6.732	11.40	49.09	279.9	873.3	 1224	510.3	12.85	1.904	1.594	1.536	1.416	1.227	1.109	1.158	1.096	1.039	1.035	0.979	0.913	0.826	0.807	0.837	0.833
515.0	91.31	122.3	137.4	182.6	167.3	199.1	640.4	 2272	 1210	204.7	196.8	178.7	163.3	142.8	127.3	111.4	101.2	95.59	89.15	84.54	81.48	79.29	77.58	75.77	74.98	72.71	73.27	71.28	71.81	70.80	67.94	63.67	57.79	52.90	48.43	44.30	39.37	36.06	32.57	29.32	26.83	24.28	22.51	22.80	23.02	18.11	12.85	11.05	9.502	8.170	6.957	6.059	5.112	5.101	5.332	13.71	64.68	197.6	454.2	 1287	676.3	16.75	1.898	1.291	1.303	1.163	1.054	1.108	0.940	0.932	0.846	0.819	0.879	0.788	0.742	0.763	0.799
520.0	87.83	104.1	118.0	171.8	165.9	153.7	271.7	 1541	 2115	252.0	170.0	164.8	147.0	128.8	114.6	101.6	93.63	85.58	80.43	76.02	74.03	71.29	69.76	69.03	67.60	66.60	65.50	64.47	64.41	64.54	61.77	56.92	52.77	47.99	43.77	39.97	36.13	32.72	30.69	27.34	25.30	22.46	20.34	19.80	21.29	19.01	13.73	10.93	9.546	7.736	6.780	5.973	5.230	4.452	4.231	5.767	16.92	46.43	106.8	585.9	 1321	211.0	9.181	1.506	1.381	1.083	1.077	0.955	0.853	0.736	0.771	0.713	0.766	0.734	0.698	0.653	0.781
525.0	71.90	93.40	107.1	134.6	162.4	134.9	170.4	703.8	 2410	845.9	160.6	149.9	136.7	117.4	103.6	92.22	86.20	78.15	73.73	69.89	67.02	64.32	62.23	62.81	60.91	60.65	58.82	58.47	58.33	57.75	55.98	52.21	47.40	43.62	40.05	37.08	34.40	30.66	28.13	25.36	23.42	21.13	19.19	17.52	18.36	19.40	15.49	11.11	9.121	7.829	6.728	5.747	5.063	4.567	3.942	3.812	6.109	12.56	26.20	142.4	743.1	 1136	167.2	3.578	1.322	1.076	1.019	0.932	0.733	0.790	0.675	0.754	0.634	0.609	0.617	0.630	0.683
530.0	67.49	81.25	88.10	108.4	143.4	131.4	132.4	271.9	 1448	 2137	305.1	133.4	120.7	104.7	92.39	81.26	74.32	69.03	63.52	60.99	58.43	56.12	55.16	55.34	53.41	52.49	50.95	51.26	50.48	50.25	48.90	46.12	41.93	39.05	35.90	33.06	30.69	27.65	25.01	23.39	21.26	19.03	17.66	15.86	15.11	16.11	15.93	12.39	8.961	7.313	6.363	5.519	4.761	4.352	3.931	3.503	3.770	4.970	7.881	33.64	180.0	599.5	834.4	350.9	11.57	1.249	1.019	0.917	0.746	0.737	0.685	0.633	0.584	0.555	0.590	0.592	0.608
535.0	61.47	72.87	78.77	87.99	112.6	128.3	116.1	145.3	494.8	 2128	 1082	128.6	105.2	93.40	81.77	73.63	63.74	58.35	56.60	52.75	50.08	48.63	47.60	46.98	46.73	45.33	43.84	43.97	43.82	43.25	42.05	40.19	36.57	33.34	31.35	28.97	26.84	24.49	23.05	20.89	18.90	17.15	15.77	14.37	13.43	12.78	13.78	13.55	9.756	7.175	6.072	5.201	4.411	4.076	3.966	3.411	3.067	3.224	3.644	9.377	41.68	135.6	287.1	825.4	231.8	15.29	1.126	0.963	0.720	0.586	0.649	0.596	0.554	0.542	0.471	0.494	0.555
540.0	55.46	60.75	72.93	81.46	93.91	124.3	108.9	113.8	202.1	 1215	 1747	187.3	92.90	81.10	73.45	63.25	58.13	52.87	51.05	46.96	45.79	43.58	42.01	42.19	41.63	39.96	39.62	39.07	38.65	38.02	37.24	35.62	33.04	30.20	27.85	26.63	23.70	22.10	20.61	18.58	17.12	15.78	14.50	12.83	12.14	11.46	11.62	12.65	10.35	7.379	6.014	5.009	4.198	3.775	3.574	3.370	3.095	2.818	2.601	3.718	10.82	31.72	66.78	354.6	823.9	203.4	7.667	1.036	0.859	0.591	0.671	0.560	0.601	0.484	0.500	0.446	0.479
545.0	57.89	62.78	66.56	71.40	78.41	105.2	110.7	99.07	123.6	523.2	 1866	705.1	88.39	74.24	65.65	57.67	51.84	48.72	46.37	42.77	40.43	39.83	37.84	37.81	36.88	35.24	35.53	35.38	34.79	34.33	33.39	31.87	29.35	27.50	25.48	23.93	21.78	19.98	18.57	17.17	15.72	14.22	13.37	12.31	11.17	10.34	9.789	10.50	10.91	8.160	5.977	4.756	4.098	3.708	3.357	3.216	3.168	2.780	2.310	2.541	3.924	8.479	16.23	85.14	457.1	746.2	152.2	2.767	0.860	0.673	0.633	0.544	0.519	0.473	0.467	0.447	0.474
550.0	46.91	57.28	61.96	62.70	67.42	81.31	106.2	91.97	94.90	192.3	 1015	 1457	260.0	65.65	57.91	50.07	44.81	41.88	38.77	37.22	35.52	34.75	33.04	32.50	31.88	30.39	30.35	29.89	30.47	29.94	28.81	27.34	25.43	23.70	22.11	20.45	19.20	17.62	16.29	15.14	13.96	12.85	11.94	11.10	9.658	9.235	8.661	8.299	8.992	8.612	6.466	4.592	3.822	3.608	3.039	3.008	2.794	2.601	2.201	2.025	2.265	3.142	4.874	20.05	109.9	362.5	550.2	252.2	11.06	0.815	0.566	0.506	0.476	0.455	0.446	0.454	0.413
555.0	44.95	49.28	51.47	55.09	56.18	61.64	81.30	90.19	76.00	104.5	326.0	 1217	989.8	66.65	49.40	42.34	38.57	34.64	32.36	30.63	29.71	28.65	27.78	27.01	25.92	25.80	25.63	25.01	24.93	24.88	24.04	22.38	21.08	19.92	17.91	17.25	16.15	15.22	14.04	12.92	11.97	11.22	10.12	9.282	8.674	8.071	7.277	6.881	6.500	7.226	6.844	5.090	3.403	3.072	2.749	2.628	2.408	2.375	2.182	2.063	1.770	1.696	2.271	5.384	25.47	81.87	177.6	534.7	226.6	13.62	0.661	0.533	0.451	0.349	0.365	0.312	0.385
560.0	40.39	48.85	49.32	47.71	45.50	52.18	67.15	87.84	69.91	75.24	123.9	674.0	 1461	129.6	41.85	37.71	33.29	29.90	27.63	27.16	25.26	24.94	24.01	23.11	23.20	22.69	22.24	21.69	21.28	21.67	20.97	19.84	19.05	17.24	16.03	14.94	13.93	12.64	12.31	11.24	10.50	9.788	8.978	8.176	7.492	7.031	6.509	5.731	5.330	5.828	6.459	5.262	3.329	2.920	2.637	2.487	2.248	2.061	1.967	1.840	1.714	1.440	1.581	2.169	6.608	19.10	41.10	216.3	539.6	179.9	5.621	0.624	0.401	0.459	0.382	0.310	0.331
565.0	42.07	42.11	42.80	44.09	40.59	44.51	52.12	77.25	69.91	63.14	75.34	279.1	 1294	650.3	38.24	33.33	29.94	26.61	24.14	23.45	21.97	21.32	20.48	20.60	19.45	19.11	18.58	18.02	18.46	18.69	18.01	17.02	16.02	15.45	13.53	12.87	11.91	11.35	10.52	9.542	9.006	8.649	8.146	7.048	6.638	6.012	5.726	5.217	4.609	4.437	5.097	5.318	3.558	2.674	2.416	2.118	2.074	1.880	1.878	1.696	1.543	1.325	1.266	1.347	2.338	5.052	10.07	51.16	274.4	479.3	31.67	1.812	0.456	0.438	0.319	0.329	0.261
570.0	42.37	45.29	40.19	35.39	35.86	35.36	41.88	58.29	65.91	53.72	54.75	100.5	613.9	 1135	225.0	26.65	23.67	21.36	20.01	18.92	17.94	17.44	16.44	16.34	15.56	15.28	14.94	14.65	14.72	14.83	14.08	13.28	12.56	11.96	10.85	10.13	9.756	9.038	8.308	7.761	7.165	6.852	6.483	5.714	5.480	4.996	4.597	4.208	3.898	3.482	3.654	4.242	3.744	2.728	2.171	1.782	1.768	1.673	1.600	1.501	1.472	1.295	1.160	1.046	1.289	1.892	2.979	12.15	65.16	216.8	307.8	127.0	9.017	0.429	0.326	0.303	0.251
575.0	35.63	37.59	35.80	31.30	28.57	29.25	30.15	40.65	54.37	54.81	43.38	53.26	183.2	806.8	826.2	34.20	19.26	16.37	16.03	14.56	14.09	13.40	13.20	12.19	11.88	12.07	11.31	11.69	11.55	11.74	10.84	10.61	9.623	9.088	8.774	8.363	7.416	6.922	6.656	6.032	5.668	5.253	4.811	4.627	4.125	4.005	3.550	3.341	3.171	2.864	2.642	2.812	2.935	2.798	2.058	1.575	1.552	1.446	1.287	1.191	1.098	1.272	1.118	0.962	0.966	1.092	1.289	3.377	15.11	49.01	96.79	284.3	178.5	9.430	0.440	0.329	0.252
580.0	34.93	29.13	33.87	23.68	24.66	24.56	26.41	32.04	44.09	53.12	39.39	39.62	65.93	401.6	 1153	95.88	16.35	14.12	12.91	11.92	11.68	10.93	10.52	10.25	9.878	9.865	9.558	9.243	9.693	9.706	9.142	8.820	7.827	7.706	6.929	6.699	6.360	5.889	5.569	4.917	4.981	4.410	3.912	3.777	3.474	3.378	3.013	2.785	2.635	2.356	2.230	2.144	2.200	2.613	2.101	1.507	1.385	1.318	1.187	0.931	1.081	1.062	1.049	0.937	0.903	0.898	0.946	1.349	3.927	11.49	22.44	112.5	291.4	109.7	2.883	0.338	0.281
585.0	33.67	27.23	30.63	23.79	23.60	20.10	22.73	26.84	34.74	53.97	42.11	33.46	37.28	152.0	902.1	580.5	16.71	11.79	11.40	10.56	9.815	9.435	8.852	9.046	8.366	8.326	7.984	8.056	7.927	7.846	7.569	7.273	6.690	6.159	6.119	5.622	5.551	4.751	4.654	4.409	4.412	3.761	3.485	3.547	3.036	2.865	2.658	2.557	2.179	2.033	1.809	1.711	1.661	2.264	2.220	1.645	1.103	1.140	1.023	0.895	1.033	0.954	0.916	0.932	0.846	0.741	0.751	0.778	1.394	3.097	5.551	26.70	141.9	250.5	28.92	0.997	0.235
590.0	30.55	28.57	26.97	21.71	19.56	18.28	19.57	23.36	27.32	42.14	47.23	30.75	29.74	52.38	380.8	928.6	190.8	10.02	9.794	8.651	8.006	7.698	7.494	7.170	6.796	6.439	6.323	6.340	6.243	6.234	6.105	5.654	5.453	4.855	4.806	4.506	4.272	3.789	3.688	3.397	3.397	2.971	2.705	2.671	2.499	2.357	2.125	2.032	1.874	1.620	1.473	1.415	1.267	1.546	1.826	1.654	1.191	0.998	0.951	0.833	0.811	0.838	0.753	0.837	0.838	0.708	0.678	0.615	0.861	1.219	1.748	6.365	33.65	109.1	161.0	82.50	6.815
595.0	27.28	26.92	25.71	18.40	16.35	15.31	16.58	18.91	23.78	30.35	47.39	33.27	26.00	27.16	104.1	555.6	659.0	21.18	7.598	6.874	6.404	6.165	5.768	6.027	5.265	5.490	5.079	4.962	4.787	5.105	4.755	4.569	4.290	3.929	3.752	3.618	3.465	3.183	3.061	2.655	2.694	2.274	2.137	2.028	1.969	2.028	1.609	1.617	1.368	1.264	1.227	0.999	1.013	1.067	1.230	1.520	1.331	0.989	0.791	0.718	0.798	0.691	0.612	0.637	0.839	0.657	0.675	0.619	0.654	0.730	0.930	1.809	7.835	24.61	50.17	149.0	101.1
600.0	29.16	30.46	23.74	15.51	15.60	13.52	14.99	17.44	21.55	25.62	41.90	37.27	24.79	21.75	34.46	248.7	897.7	75.03	7.032	6.136	5.631	4.956	4.861	4.670	4.460	4.582	4.491	4.243	4.001	4.322	4.115	3.868	3.565	3.348	3.330	3.046	2.967	2.626	2.526	2.227	2.247	1.821	1.993	1.677	1.804	1.602	1.487	1.449	1.228	1.101	0.987	0.915	0.821	0.900	1.028	1.169	1.255	0.974	0.757	0.688	0.706	0.587	0.636	0.604	0.639	0.640	0.721	0.571	0.586	0.564	0.650	0.783	2.044	5.782	11.64	57.88	159.0
605.0	20.44	26.18	23.61	15.03	12.04	12.42	14.27	15.81	17.77	22.77	34.10	40.49	24.39	19.81	18.30	83.71	654.6	480.9	8.402	5.270	4.940	4.715	4.546	4.162	4.027	3.929	3.975	3.712	3.591	3.879	3.485	3.565	3.046	2.920	2.818	2.562	2.457	2.212	2.119	2.163	1.973	1.654	1.737	1.610	1.495	1.503	1.346	1.308	1.114	0.963	0.879	0.841	0.690	0.856	0.721	0.974	1.170	1.102	0.851	0.644	0.630	0.539	0.673	0.523	0.549	0.600	0.714	0.687	0.652	0.565	0.652	0.529	0.768	1.698	2.903	13.76	76.44
610.0	20.47	27.28	19.79	14.55	11.93	11.81	14.06	14.71	15.91	20.82	27.45	38.67	29.15	18.92	14.21	26.37	252.1	741.6	168.7	5.216	4.232	3.965	3.688	3.389	3.420	3.188	3.214	3.050	2.915	3.010	2.840	2.724	2.506	2.516	2.456	2.159	2.083	1.984	1.702	1.720	1.613	1.291	1.308	1.325	1.292	1.169	1.061	1.038	0.875	0.856	0.693	0.717	0.623	0.631	0.600	0.709	0.780	0.921	0.875	0.664	0.560	0.499	0.570	0.560	0.598	0.550	0.684	0.675	0.651	0.538	0.601	0.531	0.519	0.746	0.920	3.315	18.13
615.0	19.31	23.12	15.54	12.83	9.465	9.999	11.28	12.27	15.94	18.78	24.51	31.79	32.65	17.95	12.66	12.10	65.15	409.0	555.2	17.85	3.755	3.299	3.043	2.757	3.013	2.530	2.590	2.506	2.267	2.524	2.185	2.287	2.035	2.140	1.932	1.844	1.752	1.594	1.394	1.283	1.320	1.102	1.125	1.046	0.952	0.925	0.933	0.810	0.720	0.754	0.631	0.625	0.554	0.548	0.531	0.566	0.541	0.750	0.877	0.720	0.526	0.518	0.479	0.533	0.466	0.479	0.538	0.607	0.555	0.596	0.568	0.455	0.484	0.457	0.459	0.973	4.263
620.0	20.05	17.99	14.36	12.73	7.783	8.613	12.23	11.95	14.46	17.34	22.84	26.40	33.66	20.23	12.42	9.516	20.15	161.2	733.8	64.95	3.743	2.739	2.966	2.633	2.560	2.330	1.937	2.054	2.034	1.999	1.847	1.755	1.871	1.662	1.589	1.488	1.439	1.293	1.112	1.095	1.120	1.066	0.980	0.956	0.829	0.787	0.780	0.779	0.615	0.599	0.613	0.588	0.465	0.482	0.445	0.434	0.472	0.549	0.717	0.669	0.505	0.427	0.387	0.447	0.446	0.462	0.469	0.582	0.584	0.564	0.575	0.427	0.339	0.356	0.298	0.428	1.149
625.0	17.44	20.01	13.39	13.29	8.227	8.309	10.31	11.47	14.21	15.60	21.21	23.07	30.44	23.75	11.44	8.419	9.220	50.00	501.8	431.1	5.847	2.667	2.484	2.345	2.290	2.019	1.813	2.004	1.671	1.672	1.774	1.649	1.631	1.337	1.299	1.239	1.168	1.104	0.935	1.164	0.967	0.926	0.835	0.777	0.707	0.670	0.667	0.653	0.534	0.560	0.551	0.490	0.416	0.405	0.356	0.404	0.411	0.480	0.539	0.582	0.574	0.449	0.367	0.417	0.561	0.375	0.420	0.486	0.542	0.666	0.558	0.421	0.383	0.291	0.290	0.296	0.387
630.0	15.50	19.65	13.59	12.10	8.801	8.610	8.215	10.42	12.90	15.08	19.19	20.76	23.90	26.19	12.67	7.573	6.328	14.87	178.8	603.6	149.1	2.802	2.093	2.088	1.831	1.798	1.599	1.655	1.462	1.500	1.381	1.339	1.355	1.270	1.032	1.158	0.982	0.949	0.829	0.893	0.819	0.740	0.643	0.641	0.624	0.618	0.587	0.543	0.504	0.493	0.478	0.394	0.340	0.384	0.311	0.356	0.336	0.349	0.370	0.479	0.484	0.456	0.384	0.342	0.437	0.306	0.391	0.381	0.428	0.504	0.493	0.395	0.313	0.265	0.240	0.228	0.227
635.0	17.25	18.41	14.65	11.10	8.729	7.542	8.073	10.29	12.83	15.09	18.24	20.19	20.40	23.11	17.44	7.473	5.394	6.676	44.49	295.9	487.1	14.00	2.056	1.703	1.762	1.564	1.466	1.316	1.349	1.259	1.382	1.175	1.134	1.140	1.002	0.881	1.005	0.816	0.637	0.757	0.645	0.622	0.545	0.602	0.477	0.494	0.488	0.369	0.413	0.391	0.337	0.286	0.249	0.313	0.268	0.281	0.347	0.264	0.304	0.332	0.390	0.421	0.394	0.360	0.344	0.277	0.368	0.258	0.311	0.326	0.401	0.339	0.301	0.237	0.164	0.190	0.172
640.0	14.46	19.61	12.89	9.188	8.314	8.032	8.880	10.11	12.12	15.30	18.01	18.68	18.89	21.56	20.26	8.238	5.306	4.661	12.62	106.1	610.0	57.50	2.111	1.469	1.596	1.381	1.170	1.228	1.290	1.117	1.213	0.978	1.022	0.900	0.848	0.865	0.845	0.623	0.611	0.638	0.508	0.503	0.499	0.482	0.408	0.401	0.401	0.402	0.321	0.308	0.365	0.283	0.234	0.263	0.286	0.204	0.268	0.258	0.222	0.251	0.351	0.345	0.386	0.323	0.267	0.304	0.310	0.223	0.234	0.248	0.331	0.311	0.340	0.210	0.233	0.152	0.162
645.0	15.18	22.17	15.62	11.32	8.776	7.656	9.018	10.53	12.37	15.02	18.20	18.22	18.26	19.17	21.14	10.28	5.493	4.222	5.290	31.14	396.2	376.5	4.611	1.622	1.346	1.171	1.186	1.110	1.045	1.007	1.002	0.831	0.884	0.742	0.821	0.758	0.728	0.693	0.596	0.534	0.480	0.469	0.448	0.523	0.401	0.437	0.333	0.338	0.292	0.333	0.282	0.296	0.305	0.215	0.294	0.192	0.237	0.186	0.190	0.274	0.234	0.355	0.357	0.359	0.269	0.298	0.269	0.259	0.213	0.272	0.262	0.214	0.283	0.234	0.183	0.155	0.160
650.0	17.19	22.77	17.96	12.16	9.554	7.317	7.628	9.727	11.85	14.31	18.02	18.00	17.61	16.97	19.08	12.77	5.975	4.069	3.952	9.688	159.6	577.8	38.52	1.832	1.224	1.208	1.104	1.049	0.995	0.929	0.962	0.794	0.887	0.700	0.676	0.651	0.575	0.685	0.610	0.451	0.413	0.404	0.430	0.486	0.362	0.391	0.269	0.301	0.310	0.271	0.262	0.247	0.211	0.195	0.188	0.177	0.232	0.188	0.197	0.229	0.233	0.316	0.274	0.319	0.255	0.229	0.260	0.229	0.247	0.255	0.273	0.155	0.240	0.267	0.202	0.156	0.203
