Sample:	'1
File name:	t2025040812’≈’‘«≈.FD3
Run date:	'11:27:23, 04/09/2025
Operator:	Administrator
Comment:	'

Instrument
Model:	F-2700 FL Spectrophotometer
Serial number:	23B8-004
ROM Version:	4J14000 07

Instrument parameters
Measurement type:	3-D scan
Data mode:	Fluorescence
EX  Start WL:	220.0 nm
EX  End WL:	600.0 nm
EX Sampling interval:	5.0 nm
EM  Start WL:	230.0 nm
EM  End WL:	650.0 nm
EM Sampling interval:	5.0 nm
Scan speed:	12000 nm/min
EX Slit:	5.0 nm
EM Slit:	5.0 nm
PMT Voltage:	700 V
Response:	Auto 
Corrected spectra:	Off
Contour interval:	50.000

Peak integration
Integration method:	Rectangular
Sensitivity:	1
Threshold:	1.000

Peaks
No.	ApexEX/EM(nm)	Height(Data)
1	225.0/560.0	61.54
2	225.0/580.0	62.53
3	225.0/595.0	61.83
4	225.0/615.0	76.00
5	230.0/340.0	2756
6	230.0/575.0	61.69
7	230.0/585.0	60.86
8	235.0/510.0	255.7
9	240.0/525.0	229.2
10	245.0/535.0	190.1
11	250.0/550.0	155.6
12	255.0/280.0	564.3
13	255.0/560.0	131.3
14	260.0/290.0	575.8
15	260.0/575.0	113.2
16	265.0/585.0	105.6
17	275.0/615.0	141.0
18	280.0/315.0	2312
19	280.0/625.0	128.5
20	320.0/365.0	440.5
21	330.0/375.0	392.2
22	335.0/380.0	387.8
23	345.0/395.0	335.2
24	350.0/400.0	351.7
25	455.0/540.0	11.65
26	475.0/340.0	8.451
27	510.0/280.0	3.604
28	515.0/285.0	4.083
29	570.0/315.0	12.38
30	575.0/320.0	12.19

Data points
	220.0	225.0	230.0	235.0	240.0	245.0	250.0	255.0	260.0	265.0	270.0	275.0	280.0	285.0	290.0	295.0	300.0	305.0	310.0	315.0	320.0	325.0	330.0	335.0	340.0	345.0	350.0	355.0	360.0	365.0	370.0	375.0	380.0	385.0	390.0	395.0	400.0	405.0	410.0	415.0	420.0	425.0	430.0	435.0	440.0	445.0	450.0	455.0	460.0	465.0	470.0	475.0	480.0	485.0	490.0	495.0	500.0	505.0	510.0	515.0	520.0	525.0	530.0	535.0	540.0	545.0	550.0	555.0	560.0	565.0	570.0	575.0	580.0	585.0	590.0	595.0	600.0
230.0	45.62	1136	3887	1612	74.97	9.473	8.670	6.823	6.056	5.775	5.432	5.393	4.718	4.794	4.249	3.159	3.071	2.956	2.504	2.383	2.036	1.809	1.852	1.533	1.475	1.453	1.280	1.212	1.193	1.214	1.213	0.972	1.051	0.949	0.919	0.840	0.715	0.709	0.679	0.614	0.577	0.625	0.626	0.628	0.556	0.539	1.327	6.305	13.32	11.68	4.769	1.076	0.450	0.395	0.423	0.392	0.397	0.358	0.348	0.408	0.357	0.350	0.363	0.334	0.335	0.305	0.316	0.319	0.288	0.329	0.304	0.294	0.298	0.277	0.257	0.282	0.277
235.0	88.39	316.8	2597	5329	2292	103.4	11.92	7.436	8.291	6.322	6.035	5.904	4.971	4.511	4.513	3.633	3.221	2.622	2.580	2.302	2.177	1.722	1.866	1.657	1.479	1.417	1.233	1.198	1.243	1.250	1.187	1.038	0.989	1.001	0.853	0.731	0.820	0.702	0.721	0.631	0.560	0.644	0.661	0.728	0.637	0.485	0.739	1.900	5.235	11.31	18.07	19.10	9.110	1.942	0.470	0.412	0.391	0.333	0.379	0.373	0.382	0.317	0.353	0.332	0.442	0.361	0.302	0.304	0.353	0.331	0.290	0.264	0.293	0.289	0.243	0.289	0.328
240.0	106.7	138.2	806.2	4719	7158	490.6	57.19	9.834	9.203	8.391	6.593	5.723	5.614	5.182	4.574	3.895	3.344	3.258	2.581	2.402	2.173	2.047	1.818	1.741	1.517	1.490	1.397	1.383	1.401	1.427	1.427	1.096	1.032	0.891	0.931	0.797	0.822	0.727	0.650	0.672	0.614	0.646	0.626	0.600	0.686	0.722	0.698	0.829	1.579	3.554	10.27	26.28	27.41	20.09	7.297	1.126	0.445	0.383	0.432	0.397	0.354	0.372	0.385	0.317	0.399	0.404	0.328	0.348	0.360	0.300	0.332	0.273	0.328	0.357	0.290	0.291	0.283
245.0	98.42	179.7	242.8	1632	7856	6721	387.7	23.06	12.55	10.15	7.521	6.972	6.158	5.814	4.634	4.204	3.141	3.291	2.994	2.416	2.062	2.513	1.999	1.762	1.615	1.513	1.543	1.598	1.348	1.446	1.380	1.070	1.014	1.022	0.928	0.875	0.790	0.655	0.740	0.727	0.616	0.596	0.579	0.604	0.678	0.865	0.959	0.800	0.903	1.190	2.749	9.230	22.71	41.54	27.51	18.12	4.414	0.676	0.434	0.364	0.400	0.361	0.436	0.362	0.303	0.323	0.346	0.374	0.377	0.365	0.302	0.298	0.334	0.316	0.330	0.316	0.336
250.0	62.89	146.7	250.8	453.7	2591	7174	9999.9	1374	88.61	14.42	11.00	9.015	8.032	6.567	5.499	4.573	3.794	3.875	3.127	2.525	2.394	2.381	2.162	1.909	1.949	1.670	1.583	1.651	1.461	1.485	1.404	1.214	1.044	1.045	0.997	0.864	0.927	0.712	0.738	0.717	0.684	0.637	0.622	0.621	0.598	0.659	0.736	0.928	1.145	1.114	1.145	2.551	5.783	14.05	23.81	43.32	41.51	43.22	13.73	5.491	0.738	0.443	0.433	0.410	0.404	0.391	0.389	0.402	0.331	0.416	0.362	0.312	0.358	0.316	0.341	0.350	0.330
255.0	45.77	66.80	192.8	351.6	663.5	1870	9325	9999.9	1931	98.51	16.47	13.07	10.73	8.333	6.798	5.100	4.526	4.301	3.099	2.811	2.829	2.095	2.109	2.057	1.965	1.728	1.706	1.778	1.489	1.583	1.329	1.258	1.094	1.034	1.204	0.908	0.859	0.810	0.869	0.779	0.787	0.767	0.684	0.645	0.652	0.625	0.646	0.671	0.762	1.122	1.519	1.679	1.879	3.594	5.781	10.84	18.93	52.47	83.34	80.26	22.20	4.837	0.593	0.484	0.425	0.448	0.414	0.402	0.395	0.395	0.391	0.321	0.338	0.359	0.435	0.394	0.373
260.0	43.31	46.36	91.87	303.6	379.3	478.1	2968	9999.9	9999.9	1478	47.41	19.05	13.13	10.63	8.143	5.938	4.965	4.411	3.799	3.480	2.933	2.526	2.337	2.359	1.915	1.930	1.703	1.542	1.714	1.795	1.576	1.329	1.130	1.211	1.095	0.886	0.944	0.849	0.874	0.828	0.844	0.768	0.701	0.685	0.615	0.617	0.562	0.615	0.566	0.725	1.227	2.027	2.005	1.655	1.755	2.873	4.792	14.98	41.04	90.01	128.2	29.73	17.25	2.646	0.557	0.498	0.466	0.515	0.373	0.378	0.420	0.379	0.416	0.354	0.390	0.363	0.371
265.0	44.80	44.66	46.52	155.0	400.3	281.6	725.7	4175	9999.9	9999.9	215.5	29.68	18.89	13.43	9.962	7.218	5.921	4.832	4.356	3.497	3.247	2.652	2.660	2.536	2.165	2.236	2.076	1.754	1.614	1.724	1.778	1.391	1.185	1.195	0.988	0.879	0.937	0.815	0.836	0.825	0.702	0.822	0.870	0.765	0.643	0.683	0.635	0.590	0.512	0.610	0.690	1.206	2.003	2.418	1.669	1.332	1.698	3.845	10.06	28.43	82.19	110.6	137.8	27.95	10.80	1.170	0.554	0.529	0.450	0.446	0.501	0.440	0.466	0.372	0.430	0.367	0.383
270.0	67.08	54.69	49.02	69.49	201.9	391.5	371.8	1013	4480	9999.9	9999.9	3780	66.02	20.22	14.13	9.743	7.782	6.277	5.201	4.131	3.569	3.172	3.175	2.775	2.356	2.374	2.135	1.848	1.772	1.880	1.835	1.470	1.422	1.343	1.224	1.035	1.027	0.926	0.963	0.891	0.778	0.855	0.896	0.795	0.762	0.764	0.664	0.667	0.602	0.557	0.555	0.772	1.041	1.578	2.129	2.282	2.029	1.790	2.820	6.945	19.89	34.41	77.48	101.2	122.4	99.02	17.73	8.700	1.207	0.559	0.550	0.490	0.470	0.425	0.465	0.457	0.409
275.0	113.0	112.6	101.9	70.03	89.60	205.4	508.7	442.3	1067	2832	9999.9	9999.9	1204	72.57	22.69	14.04	10.55	7.943	5.751	4.998	4.172	3.650	3.540	2.946	2.683	2.546	2.279	2.178	1.823	2.058	1.957	1.773	1.527	1.498	1.364	1.162	1.168	1.048	1.067	0.863	0.890	0.944	0.887	0.963	0.947	0.965	0.846	0.847	0.724	0.646	0.615	0.673	0.721	0.874	0.992	1.458	2.933	3.091	2.357	2.386	4.983	8.268	18.12	23.91	40.04	92.29	170.5	181.2	28.13	11.34	1.115	0.699	0.574	0.626	0.522	0.578	0.461
280.0	161.4	193.3	157.1	104.2	72.11	98.92	353.1	564.3	384.1	731.4	3511	9999.9	9999.9	903.0	44.35	18.81	13.50	10.72	7.192	6.338	5.102	4.280	3.642	3.294	3.047	2.834	2.553	2.466	2.123	2.192	2.258	2.000	1.738	1.634	1.494	1.346	1.352	1.099	1.159	0.961	1.014	0.963	1.055	1.141	1.009	1.098	0.974	0.992	0.928	0.873	0.830	0.758	0.761	0.767	0.704	0.934	1.583	2.576	3.604	3.168	2.394	2.539	4.825	6.130	9.955	23.63	65.65	150.3	203.6	173.9	23.69	5.357	0.832	0.685	0.640	0.603	0.500
285.0	221.9	268.6	237.2	152.6	88.30	79.98	174.6	539.4	354.8	305.3	936.4	5058	9999.9	9999.9	123.2	29.53	18.90	13.93	9.925	7.321	6.183	4.982	4.693	3.559	3.330	3.086	2.751	2.699	2.271	2.147	2.266	2.077	1.657	1.749	1.661	1.404	1.451	1.290	1.007	1.074	0.953	0.958	1.050	1.086	1.161	1.257	1.212	1.301	1.113	1.031	0.938	0.856	0.798	0.807	0.744	0.855	1.055	1.336	2.373	4.083	3.737	2.305	2.007	2.364	3.289	6.223	15.87	39.86	95.39	201.8	229.3	33.21	17.72	2.352	0.828	0.839	0.638
290.0	275.3	382.8	372.8	233.7	130.5	104.4	132.4	285.8	575.8	521.5	458.3	1373	5344	9999.9	9999.9	2527	46.30	20.86	14.04	9.610	7.818	6.026	5.147	4.244	3.841	3.428	3.072	2.782	2.576	2.412	2.334	2.134	2.061	1.919	1.823	1.560	1.567	1.395	1.146	1.181	1.172	1.119	1.006	1.128	1.219	1.406	1.472	1.663	1.490	1.400	1.100	1.127	0.997	0.955	0.866	0.915	1.021	1.062	1.410	2.082	3.039	3.862	3.932	3.101	2.342	2.777	4.999	10.32	23.10	52.96	97.62	124.4	179.5	133.7	98.96	13.07	2.987
295.0	347.4	507.6	517.2	349.4	208.9	160.2	180.3	239.8	394.5	810.8	778.4	673.7	1503	2967	9999.9	9999.9	692.8	52.53	21.12	13.92	10.51	8.017	6.827	5.331	4.564	4.139	3.718	3.076	2.867	3.067	2.565	2.400	2.136	2.197	1.999	1.758	1.804	1.564	1.415	1.284	1.314	1.394	1.258	1.281	1.477	1.655	1.727	1.852	1.878	1.687	1.537	1.442	1.363	1.264	1.165	1.196	1.277	1.206	1.376	1.592	1.904	2.301	3.664	5.270	5.362	3.853	3.354	4.352	6.942	13.72	23.48	29.50	47.57	85.83	202.3	249.3	35.01
300.0	440.9	639.5	654.5	475.6	305.4	250.8	288.1	330.4	467.3	757.7	1244	896.1	870.3	1073	3881	9999.9	9999.9	563.3	35.76	19.12	12.93	9.716	8.020	6.462	5.103	4.915	4.026	3.562	3.174	3.273	2.834	2.632	2.279	2.285	2.125	1.784	1.898	1.692	1.614	1.392	1.488	1.404	1.399	1.424	1.583	1.758	2.050	2.217	2.282	2.132	1.666	1.759	1.624	1.554	1.678	1.509	1.557	1.674	1.789	1.997	2.275	2.493	3.509	4.159	5.766	6.888	6.004	4.439	4.674	6.221	8.116	9.033	12.90	22.00	61.54	150.4	232.3
305.0	533.9	816.9	862.8	627.8	445.1	390.5	446.4	597.6	796.7	1053	1560	1575	1229	1022	1500	5569	9999.9	9999.9	80.73	27.90	17.15	12.96	9.287	8.047	6.353	5.498	4.395	3.911	3.536	3.448	3.251	2.688	2.383	2.403	2.245	2.030	1.988	1.802	1.790	1.587	1.508	1.483	1.631	1.701	1.862	2.213	2.399	2.753	2.864	2.700	2.383	2.294	2.000	2.064	2.025	2.118	2.310	2.716	3.321	3.433	3.533	4.069	5.108	5.527	6.605	8.091	9.065	8.940	7.395	6.744	6.592	6.324	6.622	8.732	16.92	38.70	86.12
310.0	656.2	1016	1129	860.0	629.4	568.1	702.7	863.3	1097	1387	1758	2084	2042	1448	1260	1837	5811	9999.9	9999.9	1876	37.89	18.89	13.38	10.06	7.860	6.729	5.561	4.669	4.085	3.976	3.540	2.824	2.579	2.432	2.479	2.277	2.238	1.980	2.034	1.786	1.735	1.694	1.675	1.817	2.065	2.348	2.795	3.601	3.855	3.295	2.988	2.915	2.749	2.551	2.619	2.763	3.267	3.834	4.496	4.557	4.853	5.578	6.887	7.234	7.708	8.457	9.382	10.71	11.25	10.62	9.342	7.845	7.412	7.652	8.395	12.58	22.84
315.0	787.6	1223	1400	1068	812.6	711.9	879.3	1025	1263	1551	1933	2142	2312	2049	1456	1090	1856	2978	9999.9	9999.9	508.3	41.83	19.73	13.53	10.05	8.210	6.584	5.412	4.824	4.414	3.970	3.201	2.879	2.608	2.592	2.455	2.366	2.086	2.106	1.912	1.822	1.938	1.908	2.054	2.294	2.813	3.476	4.032	4.656	4.012	3.666	3.720	3.462	3.240	3.283	3.516	3.881	4.573	4.996	5.211	5.586	6.281	7.827	8.238	8.468	9.413	9.583	10.31	10.99	12.07	12.38	10.98	9.557	8.245	7.284	7.456	9.074
320.0	869.3	1407	1610	1237	910.0	798.7	973.5	1118	1363	1672	2037	2248	2305	2295	1781	1020	1027	986.0	3433	9999.9	9999.9	446.7	33.36	18.34	12.14	9.664	7.609	6.327	5.292	4.722	4.309	3.572	3.260	2.961	2.692	2.521	2.430	2.224	2.082	2.057	1.842	1.834	2.013	2.113	2.601	3.318	3.983	4.788	5.038	4.670	3.972	4.219	3.834	3.425	3.533	3.920	4.274	5.134	5.354	5.847	6.249	6.703	8.435	8.591	8.712	9.752	10.26	10.63	11.72	11.90	11.88	12.19	12.01	9.933	8.202	6.534	6.262
325.0	951.0	1581	1871	1461	1014	837.0	1012	1145	1370	1668	2044	2258	2289	2189	1986	1114	847.4	559.5	914.7	4624	9999.9	9999.9	346.5	26.02	16.47	12.09	9.034	7.613	5.988	5.234	4.622	3.813	3.469	3.108	2.938	2.349	2.635	2.143	2.198	1.840	2.061	2.031	2.010	2.476	2.833	3.592	4.283	5.379	5.994	5.511	4.253	4.597	4.010	3.661	3.775	4.116	4.275	5.165	5.436	6.093	6.259	6.767	8.364	8.649	9.065	9.591	10.20	10.83	11.50	11.10	11.09	11.45	11.59	11.38	9.692	7.194	6.209
330.0	1051	1847	2308	1938	1302	947.4	1016	1139	1350	1618	1988	2181	2233	2076	1857	1314	901.9	492.1	384.2	1165	4706	9999.9	9999.9	1670	34.81	17.52	12.05	8.868	7.496	6.334	5.378	4.463	3.752	3.431	3.183	2.586	2.685	2.401	2.199	2.068	2.061	2.111	2.339	2.478	2.913	3.804	4.778	6.311	6.805	6.540	5.824	6.056	5.252	4.531	4.304	4.216	4.481	5.297	5.249	5.628	6.292	6.452	8.000	8.346	8.792	9.639	10.02	10.62	11.22	11.37	11.26	10.89	10.64	10.20	9.486	8.480	7.659
335.0	1108	2036	2655	2441	1768	1158	1067	1139	1321	1562	1919	2097	2182	2060	1753	1273	1099	597.3	331.5	430.6	1171	2651	9999.9	9999.9	2677	39.06	17.96	12.33	9.787	7.610	6.705	5.046	4.284	3.804	3.647	3.016	2.964	2.559	2.233	2.153	2.336	2.235	2.306	2.652	3.143	4.325	5.301	6.617	7.495	7.704	7.125	7.846	6.917	6.139	5.253	4.587	4.675	5.156	5.309	5.714	6.082	6.362	8.153	7.953	8.831	9.560	9.708	9.931	11.31	11.09	11.59	10.59	10.35	9.692	8.971	7.890	7.693
340.0	1136	2059	2756	2591	1916	1206	1054	1104	1273	1482	1819	2004	2079	1973	1681	1175	1052	741.6	368.4	290.9	400.3	703.0	3164	9999.9	9999.9	401.2	31.18	16.24	11.41	9.137	7.758	5.534	4.887	4.176	3.627	3.205	2.930	2.523	2.362	2.242	2.234	2.228	2.297	2.597	3.225	4.252	5.202	6.847	7.762	7.959	7.772	8.451	7.614	6.453	5.292	4.600	4.925	4.999	5.433	5.655	5.793	6.193	7.914	7.461	8.437	8.988	9.104	9.584	10.47	10.59	11.16	10.11	9.883	9.321	8.185	7.420	6.726
345.0	1089	1949	2660	2603	1872	1203	1016	1039	1187	1386	1682	1830	1909	1819	1568	1094	896.2	773.2	465.8	275.5	241.9	278.1	809.4	4081	9999.9	9999.9	341.1	23.06	14.30	11.22	8.824	6.227	5.267	4.558	3.848	3.249	3.096	2.587	2.386	2.181	2.149	2.160	2.279	2.740	3.093	3.918	4.887	6.634	7.846	7.770	7.299	8.352	7.294	6.649	5.532	4.376	4.765	4.844	4.927	5.308	5.319	5.625	7.303	7.191	7.478	7.986	8.513	9.094	9.743	9.814	10.23	9.560	9.242	8.730	7.898	7.390	6.476
350.0	1001	1761	2487	2493	1868	1215	970.3	972.7	1087	1251	1494	1624	1693	1626	1420	1018	812.3	653.9	555.7	386.4	244.6	206.6	296.4	1001	4148	9999.9	9999.9	1556	31.79	15.69	11.69	7.779	5.940	4.926	4.317	3.412	3.383	2.649	2.470	2.325	2.160	2.131	2.278	2.458	2.925	3.879	4.652	5.998	7.423	7.209	6.952	8.213	7.564	6.722	5.487	4.498	4.561	4.490	4.956	4.946	4.951	5.320	6.577	6.386	6.735	7.395	7.632	7.859	8.598	8.684	8.942	8.822	8.450	8.090	7.467	6.800	6.146
355.0	898.6	1577	2203	2247	1789	1199	951.8	926.2	1012	1131	1332	1419	1482	1440	1267	958.5	766.4	593.8	495.3	492.7	342.5	221.8	205.4	322.6	992.0	2467	9999.9	9999.9	2769	39.25	16.47	10.49	7.690	5.661	5.146	3.898	3.453	2.916	2.600	2.422	2.293	1.951	2.316	2.514	2.684	3.230	4.281	5.508	6.576	6.595	6.462	7.515	7.328	6.407	5.378	4.645	4.421	4.363	4.658	4.622	4.845	5.155	5.868	5.648	6.034	6.567	6.848	6.866	7.404	7.649	7.902	7.850	7.679	7.445	6.455	6.057	5.816
360.0	823.6	1419	1949	2040	1637	1143	899.4	878.5	957.3	1042	1208	1284	1330	1295	1155	891.6	726.3	570.8	461.8	454.4	437.5	272.6	201.0	185.1	300.8	612.0	2718	9999.9	9999.9	2353	33.97	13.51	9.705	6.930	5.336	4.274	3.851	2.890	2.857	2.552	2.199	2.034	2.277	2.253	2.473	3.200	3.736	4.907	6.142	5.983	5.995	6.967	6.781	6.008	5.013	4.400	4.145	4.139	4.432	4.104	4.475	4.843	5.431	5.456	5.628	5.774	5.960	6.402	6.709	6.909	7.431	7.101	6.976	6.546	6.139	5.689	5.589
365.0	725.1	1284	1734	1849	1532	1088	871.1	850.0	902.0	986.1	1114	1169	1224	1177	1061	837.5	699.4	564.7	461.5	414.7	440.5	368.6	228.5	170.1	161.0	207.2	664.6	3314	9999.9	9999.9	357.9	23.82	12.87	8.922	6.513	4.641	4.228	3.362	2.963	2.508	2.203	2.473	2.031	2.421	2.632	3.139	3.611	4.641	5.376	5.528	5.187	6.675	6.286	5.657	4.946	4.302	4.188	4.087	4.104	4.368	4.153	4.504	5.262	5.348	5.155	5.713	5.405	5.864	6.142	6.272	6.463	6.465	6.434	6.096	5.937	5.605	5.262
370.0	646.8	1121	1520	1653	1424	1051	851.8	823.4	850.3	926.2	1022	1061	1100	1060	961.6	784.1	672.5	565.7	476.8	417.0	392.4	405.1	332.4	213.5	157.8	141.9	224.1	804.4	3428	9999.9	9999.9	5861	30.88	13.41	8.861	5.999	5.109	3.874	3.288	2.851	2.542	2.343	2.247	2.328	2.401	2.939	3.362	4.252	4.758	4.881	4.986	5.890	6.097	5.398	4.838	4.298	4.032	3.983	4.131	4.138	4.283	4.309	4.873	4.790	4.887	5.147	5.360	5.413	5.499	5.900	6.043	5.812	5.828	5.808	5.400	5.048	4.874
375.0	584.3	958.1	1348	1481	1313	1016	825.1	804.4	815.5	885.8	959.5	986.6	1030	979.8	873.7	728.3	640.6	560.9	492.1	435.4	390.9	369.1	392.2	321.5	204.9	162.1	170.6	282.5	840.5	2401	9999.9	9999.9	2564	36.56	12.86	8.220	6.326	4.623	3.769	3.121	2.838	2.518	2.366	2.365	2.420	2.755	3.050	3.915	3.986	4.348	4.627	5.463	5.356	5.245	4.886	4.113	3.846	3.907	3.908	3.806	4.032	4.167	4.748	4.543	4.667	5.071	4.884	4.953	5.433	5.551	5.536	5.199	5.292	5.374	5.096	4.831	4.777
380.0	556.2	837.9	1218	1340	1247	985.1	819.8	785.8	797.3	852.8	915.5	941.3	991.4	926.0	809.3	687.4	620.9	556.4	497.9	446.9	401.3	367.8	370.6	387.8	274.2	195.9	185.9	195.0	286.2	623.1	2674	9999.9	9999.9	2152	28.25	10.99	7.714	5.483	4.298	3.623	2.985	2.511	2.628	2.390	2.464	2.738	2.886	3.467	3.860	4.116	4.228	4.904	5.076	4.955	4.583	4.106	3.975	4.020	3.911	3.627	4.025	3.840	4.436	4.395	4.397	4.880	4.681	4.801	5.142	5.093	5.378	5.060	5.290	4.771	4.496	4.293	4.682
385.0	474.7	783.2	1110	1238	1185	974.6	808.6	768.1	778.2	811.4	880.0	893.6	955.5	878.3	760.7	661.6	603.4	544.9	495.6	455.9	416.0	377.0	356.2	378.6	346.8	237.0	207.9	192.8	177.6	237.1	712.4	2960	9999.9	9999.9	303.9	19.47	9.796	6.437	4.978	3.990	3.069	2.806	2.689	2.769	2.640	2.705	2.901	3.296	3.634	3.868	3.920	4.567	4.936	4.876	4.322	3.904	3.895	3.909	3.804	3.678	3.894	3.781	3.989	4.131	4.596	4.629	4.397	4.558	4.904	4.988	5.295	4.650	4.886	4.797	4.520	4.199	4.497
390.0	453.0	718.2	1009	1133	1093	920.7	785.0	743.9	745.2	768.2	821.0	821.9	865.8	796.1	710.2	623.2	574.9	533.1	490.7	457.3	423.8	389.6	359.7	345.5	347.8	311.0	239.6	199.6	158.8	154.4	262.1	753.4	2988	9999.9	9999.9	4980	25.33	9.131	6.409	5.004	3.717	3.077	2.719	2.944	2.555	2.639	2.918	3.288	3.594	3.531	3.684	4.538	4.365	4.499	4.262	3.756	3.720	3.622	3.641	3.617	3.747	3.726	3.878	4.039	4.406	4.210	4.191	4.123	4.335	4.767	4.768	4.452	4.352	4.411	4.274	4.139	4.192
395.0	440.9	680.2	897.4	1028	1015	892.8	763.0	718.5	716.4	730.0	772.1	765.7	803.0	732.3	664.3	588.7	548.7	521.4	481.8	455.2	428.3	399.8	372.5	348.9	322.6	335.2	314.0	231.7	175.3	154.9	176.8	267.8	721.1	2316	7191	9999.9	2185	29.86	9.346	6.475	4.619	3.785	3.175	2.987	2.733	2.813	2.966	3.054	3.453	3.392	3.572	4.236	4.246	4.453	3.968	3.801	4.005	3.464	3.729	3.736	3.703	3.591	3.586	3.844	4.201	3.868	3.783	3.727	4.127	4.363	4.447	4.323	4.069	4.069	4.100	4.145	3.998
400.0	399.8	618.0	840.1	966.3	964.7	866.1	744.0	713.6	700.7	714.0	745.5	744.0	773.9	705.5	631.8	568.9	531.9	503.4	477.3	452.0	432.2	400.6	383.5	362.5	329.0	320.8	351.7	284.7	202.6	171.1	172.6	172.6	223.7	555.0	1807	8958	9999.9	1877	24.11	8.245	5.803	4.379	3.602	3.047	2.951	2.911	2.971	3.103	3.401	3.252	3.495	4.098	4.053	4.364	3.944	3.713	3.966	3.534	3.571	3.627	3.888	3.530	3.805	3.801	3.843	3.796	3.748	3.607	3.879	4.182	4.198	4.252	4.067	3.886	3.829	3.853	3.705
405.0	407.9	575.8	804.1	909.8	921.8	839.0	741.7	699.3	683.6	705.1	725.8	720.6	748.6	684.0	602.8	550.5	510.3	492.6	466.0	448.4	427.9	406.5	386.4	370.1	334.9	312.9	337.2	331.2	235.3	186.2	182.5	158.4	119.2	166.8	434.4	2423	9999.9	9999.9	1388	16.43	7.180	5.235	4.054	3.517	3.297	3.052	2.958	3.065	3.294	3.231	3.221	3.624	3.830	4.064	3.851	4.091	3.580	3.705	3.591	3.603	3.772	3.705	3.644	3.716	3.840	3.791	3.718	3.557	3.964	4.000	4.187	4.103	3.625	3.804	3.955	3.703	3.636
410.0	369.3	543.5	755.6	855.8	853.8	796.9	711.8	689.1	669.8	677.8	686.7	678.9	687.2	637.0	567.5	514.1	489.1	467.5	444.6	429.6	413.1	397.2	383.4	364.2	336.9	312.9	307.6	312.1	278.7	212.6	180.6	150.3	100.1	85.35	130.8	567.0	2745	8601	9999.9	4102	21.73	7.367	5.180	4.398	3.686	3.273	3.146	3.074	3.173	3.060	3.246	3.648	3.826	3.927	3.656	3.725	3.498	3.624	3.540	3.561	3.563	3.623	3.506	3.592	3.521	3.585	3.526	3.430	3.688	3.828	3.887	3.782	3.661	3.745	3.562	3.530	3.573
415.0	344.4	528.2	674.5	789.8	786.9	751.9	692.9	675.7	650.3	646.8	644.1	633.1	633.7	586.9	534.0	482.7	460.9	439.9	423.0	407.0	390.4	384.2	372.1	356.0	334.4	311.4	294.5	279.1	276.4	254.1	192.0	147.2	100.3	73.58	68.89	155.5	633.3	1967	5401	9999.9	1991	27.09	7.427	5.501	4.572	3.640	3.598	3.267	3.299	2.987	3.134	3.578	3.746	3.530	3.688	3.523	3.677	3.332	3.434	3.544	3.544	3.475	3.362	3.489	3.366	3.351	3.231	3.260	3.194	3.541	3.824	3.401	3.275	3.191	3.390	3.173	3.712
420.0	324.6	499.1	656.9	757.4	762.6	734.0	672.7	662.5	648.5	623.9	628.5	608.1	607.3	558.4	508.6	462.5	437.5	419.4	408.0	390.2	380.5	376.3	364.0	347.6	329.4	309.5	291.6	272.2	259.9	262.4	219.8	153.8	105.2	76.60	59.20	66.99	165.9	457.8	1326	7054	9999.9	1686	20.89	6.968	4.983	4.160	3.835	3.316	3.241	2.995	3.229	3.462	3.743	3.606	3.349	3.408	3.565	3.314	3.213	3.519	3.402	3.440	3.305	3.499	3.340	3.294	3.324	3.197	3.165	3.633	3.506	3.328	3.146	3.073	3.307	3.024	3.299
425.0	305.8	468.7	616.4	718.4	730.4	697.4	671.7	643.5	624.3	617.9	613.3	592.1	581.5	541.6	483.7	442.8	417.6	399.5	384.7	373.3	366.2	357.8	355.1	341.1	324.5	309.4	292.3	273.9	249.0	247.4	244.0	174.4	114.0	82.63	61.79	50.88	63.53	122.7	313.1	1858	8816	9999.9	258.2	14.51	6.156	4.699	4.087	3.615	3.362	3.256	3.094	3.354	3.441	3.546	3.502	3.540	3.469	3.140	3.426	3.436	3.238	3.263	3.169	3.369	3.184	3.145	3.137	3.188	3.173	3.266	3.147	3.033	3.154	3.417	3.137	2.920	2.981
430.0	322.6	441.0	587.4	697.1	706.8	678.3	652.7	638.4	616.1	613.0	592.7	576.5	551.1	509.3	457.7	418.0	395.0	377.4	364.4	355.9	347.3	341.1	340.0	328.2	314.7	300.9	286.0	269.6	245.0	229.2	228.3	202.7	135.6	91.79	68.58	52.57	46.10	51.03	87.96	430.0	2305	7086	9722	3538	19.48	6.740	5.055	4.103	3.752	3.323	3.193	3.527	3.380	3.555	3.530	3.356	3.543	3.368	3.375	3.444	3.332	3.345	3.211	3.358	3.223	3.149	2.996	3.153	3.001	3.057	3.043	3.011	2.886	3.274	2.857	2.852	3.039
435.0	461.1	425.4	562.1	650.9	678.7	659.4	635.9	619.8	606.9	593.5	579.0	544.9	529.9	482.5	434.1	396.2	369.5	355.3	342.4	335.3	328.6	319.9	320.2	311.4	302.0	292.4	279.1	264.1	244.1	224.1	207.3	196.6	165.4	108.3	76.52	59.25	46.41	38.71	41.34	112.7	526.9	1615	4964	9999.9	1846	24.83	7.080	4.944	4.251	3.546	3.066	3.569	3.341	3.434	3.469	3.430	3.380	3.387	3.498	3.415	3.263	3.479	3.284	3.312	3.148	3.103	3.083	2.934	2.884	2.858	2.923	2.896	2.699	2.687	2.702	2.627	2.843
440.0	626.9	476.5	536.9	612.5	654.6	633.2	623.3	620.0	598.2	585.3	568.4	536.7	503.5	460.8	412.4	379.4	352.2	339.8	328.1	321.4	311.2	308.2	302.7	300.5	291.1	284.8	271.7	259.6	241.5	222.9	201.8	178.8	171.5	129.8	86.66	63.54	49.36	39.16	32.79	43.88	132.1	373.1	1229	7069	9999.9	1535	18.05	6.152	4.700	4.037	3.637	3.426	3.771	3.527	3.547	3.541	3.480	3.643	3.443	3.259	3.300	3.343	3.152	3.396	3.024	3.086	2.908	2.759	2.762	2.894	2.844	2.844	2.746	2.652	2.607	2.494	2.825
445.0	757.3	675.8	518.1	586.2	613.3	606.0	609.5	612.0	584.9	576.4	557.8	524.3	481.6	439.6	394.8	362.2	337.4	323.3	312.1	304.7	296.6	294.2	288.7	287.9	280.9	276.0	262.0	250.7	236.3	219.7	199.0	170.8	158.3	144.2	99.94	68.76	52.75	42.41	32.46	30.01	45.74	96.53	287.9	1902	8851	9999.9	216.1	12.94	5.678	4.362	3.776	3.816	3.753	3.535	3.302	3.555	3.466	3.606	3.539	3.292	3.326	3.309	3.276	3.227	3.254	2.930	3.071	2.658	2.819	2.664	2.566	2.809	2.758	2.751	2.642	2.583	2.598
450.0	601.1	1345	664.4	552.3	589.2	585.1	590.6	579.0	566.2	548.4	521.5	496.7	453.5	407.7	369.6	335.0	312.2	298.6	289.4	279.3	274.0	271.3	267.3	267.3	261.8	256.1	248.4	238.5	227.8	211.0	193.2	166.5	143.5	132.8	116.9	82.67	58.19	45.30	35.68	29.50	28.40	36.50	76.81	436.3	2353	7270	9603	2941	16.57	5.970	4.566	4.304	4.114	3.579	3.433	3.585	3.455	3.415	3.423	3.460	3.267	3.247	3.004	3.147	2.876	2.914	2.998	2.769	2.714	2.735	2.682	2.657	2.586	2.523	2.548	2.476	2.518
455.0	338.9	1690	1211	535.7	550.9	550.4	548.1	545.9	535.8	518.3	499.9	471.3	421.2	381.6	341.9	303.8	286.8	271.9	259.9	255.1	248.9	242.9	243.4	242.2	239.3	235.9	228.8	221.2	212.6	198.6	182.3	161.9	137.2	118.4	111.2	98.26	67.05	49.09	38.92	31.19	26.94	24.32	30.44	108.8	534.2	1660	4753	9999.9	1524	18.94	5.986	4.978	4.537	3.620	3.440	3.540	3.563	3.436	3.350	3.250	3.203	3.053	2.914	2.938	2.833	2.955	2.891	2.666	2.670	2.516	2.667	2.396	2.196	2.279	2.315	2.364	2.385
460.0	245.7	1224	2480	736.5	495.2	510.2	521.4	516.9	505.6	489.5	465.7	442.8	392.2	357.5	316.7	282.8	264.1	252.9	243.2	234.6	229.0	225.7	225.7	224.3	220.2	220.6	213.2	206.8	200.9	191.1	174.1	155.1	131.8	111.0	99.99	99.79	78.28	52.59	40.57	32.43	26.22	22.28	20.68	36.10	129.3	379.9	1162	6120	9560	1178	15.30	6.239	4.877	3.943	3.769	3.390	3.586	3.398	3.285	2.972	3.169	2.991	3.073	2.923	2.751	2.655	2.607	2.502	2.427	2.396	2.431	2.433	2.269	2.267	2.285	2.226	2.271
465.0	219.1	663.7	3060	1667	470.6	483.0	491.2	490.3	478.2	461.8	443.1	414.0	370.1	330.1	294.7	264.7	244.9	234.2	228.4	216.9	212.2	209.6	208.2	207.9	204.0	201.5	198.4	195.5	189.5	180.0	166.1	148.2	125.5	106.5	93.36	88.67	85.09	59.07	41.55	33.07	27.45	23.14	19.61	20.16	39.66	94.57	269.6	1628	7697	8491	173.2	12.73	5.774	4.523	4.032	3.975	3.581	3.409	3.301	2.885	3.127	2.984	2.912	2.963	2.691	2.541	2.503	2.354	2.546	2.564	2.305	2.265	2.013	2.038	1.983	2.046	2.121
470.0	214.6	355.6	2010	3905	831.2	441.4	449.9	451.0	437.5	425.8	404.5	379.5	337.8	298.6	265.5	238.7	219.2	209.8	201.3	192.8	187.1	185.4	185.4	183.8	182.7	182.6	179.1	176.0	170.0	165.1	152.9	137.1	118.2	100.4	87.27	75.62	74.01	66.23	48.64	35.04	28.27	23.63	19.58	17.42	19.99	30.78	69.30	372.5	2038	5991	7149	2447	16.91	5.647	4.535	4.063	3.731	3.438	3.110	3.047	2.897	2.744	2.726	2.739	2.449	2.361	2.356	2.236	2.412	2.196	2.205	2.032	2.109	1.989	1.965	1.889	1.932
475.0	189.4	270.0	772.8	4475	2464	441.3	400.4	406.0	394.4	387.2	364.5	338.3	305.6	265.4	234.8	212.6	196.2	184.4	177.5	170.8	168.5	164.7	161.8	162.0	160.7	160.7	158.1	155.8	150.9	147.9	138.4	125.1	108.5	94.05	81.18	70.46	61.85	60.85	55.50	38.91	29.22	24.00	19.33	16.90	15.72	16.72	24.14	90.69	460.7	1361	3316	7571	1495	21.36	5.467	4.393	3.735	3.348	3.026	2.874	2.618	2.638	2.705	2.492	2.495	2.299	2.292	2.047	2.221	2.088	1.916	1.755	1.796	1.890	1.813	1.839	1.818
480.0	206.4	255.4	400.5	2957	4282	561.9	373.6	366.8	364.2	355.4	340.0	316.2	279.3	244.9	217.9	196.4	179.1	170.4	162.1	157.3	152.9	149.7	146.5	149.1	147.6	149.6	145.6	142.7	140.1	137.5	128.3	117.0	103.6	88.94	76.73	66.20	57.68	53.97	54.67	44.35	30.33	23.84	19.89	16.84	14.69	14.02	14.03	27.69	109.3	310.1	800.6	4140	7516	1297	16.17	5.269	4.238	3.396	3.132	2.952	2.688	2.663	2.531	2.481	2.307	2.319	2.106	1.990	1.975	1.913	1.888	1.768	1.622	1.725	1.612	1.587	1.809
485.0	194.5	257.5	294.2	1347	5074	1804	359.8	354.1	344.0	335.5	319.0	296.2	264.9	230.2	205.6	179.0	166.9	159.4	150.3	143.7	139.9	136.8	136.5	137.3	135.7	135.1	133.9	132.4	131.5	128.1	119.9	109.1	98.83	85.35	74.08	64.19	55.31	48.66	49.07	47.46	34.59	24.38	20.23	17.64	14.85	14.01	12.30	14.19	31.05	75.56	185.4	1080	5816	6477	204.1	11.65	4.807	3.734	3.525	2.768	2.759	2.562	2.565	2.273	2.265	2.138	2.066	2.019	1.876	1.718	1.666	1.782	1.691	1.675	1.633	1.511	1.662
490.0	151.8	252.8	267.7	529.8	3166	4275	740.4	325.1	318.3	308.8	292.0	271.9	242.1	210.2	186.6	166.6	153.7	143.3	137.2	129.3	125.8	125.4	122.9	122.9	123.1	120.3	120.3	120.1	118.9	116.6	109.2	100.7	90.55	79.77	69.93	59.90	52.33	45.12	42.02	43.18	39.28	28.49	21.23	17.63	15.10	13.60	12.08	11.16	13.47	22.91	47.05	246.8	1524	4146	5651	2387	17.92	4.998	3.946	3.399	2.889	2.529	2.429	2.356	2.274	2.097	2.096	1.927	1.853	1.706	1.713	1.593	1.558	1.587	1.540	1.498	1.462
495.0	124.8	229.7	280.3	306.6	1086	4817	2594	319.0	289.4	278.9	268.5	247.0	217.4	192.6	168.1	149.8	138.8	127.8	122.5	116.1	112.6	110.4	110.1	108.1	108.9	108.5	105.9	106.3	106.6	106.0	99.25	91.02	82.30	73.17	63.81	56.01	49.37	42.65	38.39	35.46	36.65	33.81	24.13	18.14	15.39	13.86	11.99	10.51	10.14	11.15	15.87	60.26	344.7	940.8	2830	7483	1687	23.18	5.117	3.932	3.010	2.610	2.523	2.328	2.273	1.864	1.967	1.805	1.699	1.451	1.699	1.561	1.490	1.499	1.561	1.404	1.231
500.0	101.8	196.3	284.7	249.3	438.7	3167	4932	542.7	267.9	256.8	245.3	227.7	200.5	175.8	153.6	135.9	125.7	116.3	111.5	104.0	103.0	99.62	100.1	99.32	97.59	98.78	96.58	96.14	96.78	95.07	91.83	83.68	76.05	67.49	59.47	52.66	46.74	40.46	36.88	31.57	31.04	33.65	27.39	19.06	15.76	14.03	11.92	10.27	9.214	8.431	8.873	18.28	81.75	214.6	686.0	4034	7083	1406	18.10	4.640	3.205	2.908	2.558	2.278	2.219	1.855	1.987	1.842	1.752	1.618	1.667	1.369	1.271	1.406	1.484	1.350	1.369
505.0	95.12	155.1	275.4	244.5	268.0	1416	6124	1524	253.1	238.5	227.8	206.7	184.9	162.2	139.1	124.4	116.2	108.3	101.3	97.15	93.56	90.59	91.74	89.00	89.58	89.03	87.87	87.93	87.78	85.81	83.07	77.43	70.21	62.89	54.75	48.57	44.39	38.62	34.10	29.53	27.47	29.32	28.76	21.42	16.28	13.98	11.71	10.26	9.179	7.958	7.382	9.009	22.79	52.35	158.5	1037	4931	6343	227.6	11.68	3.636	3.134	2.706	2.352	2.081	1.867	1.752	1.850	1.722	1.537	1.579	1.331	1.354	1.343	1.346	1.317	1.333
510.0	96.06	131.0	221.1	255.7	219.1	502.6	3941	4054	539.1	212.6	202.0	184.2	167.7	144.1	124.1	110.6	101.1	93.82	87.68	84.92	81.66	79.02	78.32	77.57	77.63	77.19	77.19	77.31	78.02	76.35	73.97	67.78	62.12	55.72	49.37	44.13	39.99	35.06	31.24	27.00	24.59	23.19	25.18	23.88	17.47	13.49	11.47	10.03	8.773	7.928	7.042	6.834	9.356	15.58	39.43	235.9	1257	3797	5122	2011	17.27	3.890	2.918	2.350	2.133	2.011	1.744	1.671	1.558	1.496	1.334	1.317	1.328	1.181	1.213	1.217	1.249
515.0	82.74	108.3	154.8	255.4	198.8	253.3	1254	5630	2034	200.6	179.8	162.3	145.6	125.3	111.7	95.39	86.59	79.52	76.62	74.10	69.37	68.90	67.39	66.24	67.34	67.02	65.94	67.53	66.32	66.23	63.48	59.43	54.33	48.75	43.41	39.41	35.83	31.69	27.75	25.20	22.35	19.76	19.41	22.42	20.21	14.49	10.96	9.594	8.472	7.224	6.681	6.247	6.349	7.164	12.27	56.42	283.9	856.9	2199	5747	1691	24.14	3.864	2.705	2.234	2.010	1.716	1.541	1.483	1.268	1.356	1.135	1.269	1.285	1.098	1.130	1.054
520.0	70.90	109.9	133.3	219.4	212.0	187.4	417.1	3896	5147	275.8	167.3	146.8	130.8	113.5	99.39	88.54	78.81	72.95	68.65	64.59	62.70	62.36	60.46	60.04	60.19	59.68	58.76	59.49	59.93	58.75	56.83	53.39	48.88	43.85	39.15	35.50	32.22	28.79	25.81	22.76	21.03	18.41	16.93	18.77	20.07	16.63	10.92	9.210	8.094	7.323	6.405	5.912	5.606	5.250	6.276	16.22	66.73	194.8	519.5	2834	5392	1419	18.98	3.300	2.475	2.081	1.677	1.569	1.419	1.250	1.239	1.171	1.162	1.165	1.050	1.041	1.011
525.0	68.48	95.55	111.3	175.0	229.2	163.3	212.4	1649	7142	1347	155.3	134.8	120.4	102.9	88.91	78.96	70.71	66.19	62.25	59.11	55.61	55.56	53.42	54.04	53.09	53.82	52.56	52.57	53.54	53.77	51.05	48.28	44.06	39.11	35.35	32.13	28.71	26.46	23.73	21.27	19.14	16.85	15.24	15.58	17.49	17.21	12.53	8.978	7.836	6.829	6.372	5.707	5.324	4.659	4.682	6.871	18.17	46.82	119.9	700.5	3295	4848	238.6	12.93	3.066	2.417	1.934	1.488	1.540	1.376	1.266	1.104	1.080	1.089	1.022	0.899	1.043
530.0	64.10	81.47	101.2	127.3	201.5	172.0	148.3	501.6	4724	4837	421.6	121.4	105.2	90.21	77.68	68.85	62.64	56.28	54.36	51.53	48.46	47.53	46.53	46.42	45.93	46.04	45.06	44.74	45.93	46.40	43.98	41.50	38.48	34.31	31.27	28.31	25.57	23.20	21.12	19.47	17.05	15.48	13.92	13.39	13.44	15.33	14.40	9.941	7.522	6.329	5.796	5.240	4.784	4.715	4.314	4.533	6.867	13.33	29.88	159.5	811.9	2505	3746	1051	18.74	3.525	2.167	1.639	1.563	1.365	1.238	1.193	1.095	1.033	0.963	1.035	0.934
535.0	53.22	68.54	87.26	103.6	147.1	190.1	125.5	199.5	1408	6456	1667	114.9	93.40	76.72	67.14	59.04	52.57	49.28	47.07	43.78	41.52	40.49	39.68	39.42	38.96	38.63	38.12	38.34	38.89	39.44	37.28	35.18	32.09	29.46	26.91	24.42	22.06	20.53	18.23	16.99	14.79	13.81	12.81	11.64	10.79	11.63	12.87	11.45	7.749	5.898	5.269	4.648	4.250	4.398	4.330	3.888	4.241	5.496	9.339	38.19	183.3	562.6	1346	3715	1737	27.14	2.857	1.905	1.759	1.397	1.328	1.096	1.076	1.026	0.893	0.825	0.849
540.0	50.95	64.56	78.71	83.79	105.2	183.1	129.7	124.4	406.9	4174	5300	189.5	83.71	68.10	59.42	52.26	45.90	43.00	41.21	38.24	36.25	35.51	34.50	34.57	34.73	34.37	34.54	33.53	33.79	34.04	32.63	31.47	28.19	26.24	23.76	21.35	19.57	17.95	16.28	15.02	13.73	12.50	11.25	10.23	9.880	9.421	10.52	11.65	8.630	5.888	4.728	4.513	3.975	3.852	3.989	3.826	3.398	3.487	4.499	10.87	43.21	127.8	310.3	1605	3799	1477	21.21	2.388	1.758	1.596	1.302	1.069	0.948	1.025	0.950	0.783	0.742
545.0	53.31	60.08	74.12	75.75	80.39	151.8	149.1	99.48	163.2	1593	7394	1010	76.21	62.31	53.11	47.25	42.14	38.07	36.67	33.99	32.55	31.84	30.68	31.11	30.20	30.52	30.20	30.21	29.90	29.59	29.26	27.48	24.90	23.24	21.02	19.17	17.61	16.09	14.65	13.68	12.58	11.30	10.24	9.521	8.741	8.005	8.371	10.00	8.930	6.575	4.617	4.281	3.717	3.499	3.363	3.775	3.368	3.178	3.106	4.507	11.71	30.64	71.97	379.9	1897	3703	1074	15.17	2.191	1.613	1.337	1.069	1.012	0.949	0.950	0.852	0.893
550.0	51.45	59.12	63.67	63.64	69.17	101.2	155.6	96.75	97.22	442.0	4442	4578	258.2	55.56	46.35	39.70	36.41	32.14	29.69	28.97	27.62	26.14	25.81	25.54	25.49	25.63	24.86	24.66	24.56	24.72	23.91	22.59	20.96	19.50	17.75	16.20	14.98	13.26	12.64	11.58	10.61	9.881	8.938	8.076	7.341	6.879	6.766	7.282	8.123	6.930	4.893	3.801	3.270	3.057	2.893	3.034	3.157	2.959	2.575	2.688	4.370	8.663	18.03	86.90	447.8	1589	2552	1058	100.4	2.910	1.485	1.198	1.044	0.967	0.861	0.843	0.766
555.0	45.55	58.29	56.73	55.06	57.96	68.73	125.3	115.3	73.35	152.8	1225	6259	1216	55.06	39.70	32.78	31.03	26.94	24.28	23.87	22.41	21.82	21.55	21.27	20.19	20.43	20.45	19.76	20.42	20.04	19.51	18.25	16.99	15.64	14.84	13.43	12.10	11.78	9.811	9.408	8.845	7.938	7.358	6.793	6.158	5.812	5.777	5.444	5.790	6.356	5.501	3.709	2.947	2.693	2.587	2.628	2.556	2.734	2.672	2.340	2.526	3.463	5.603	20.87	101.5	356.1	759.8	2122	1728	30.33	2.471	1.544	1.143	1.031	0.931	0.746	0.669
560.0	45.67	61.54	56.23	53.96	53.08	56.15	88.30	131.3	70.72	82.09	331.8	3917	4778	117.1	36.98	29.28	26.77	22.78	21.37	19.49	18.66	18.10	17.98	17.88	17.18	17.07	17.39	16.83	17.26	16.21	16.39	15.16	14.18	13.19	12.15	11.51	10.22	9.609	8.638	8.112	7.553	6.697	6.490	5.637	5.129	5.018	4.865	4.405	4.394	5.312	5.193	3.956	2.788	2.439	2.230	2.454	2.231	2.187	2.439	2.398	2.071	2.131	2.705	6.202	24.18	81.16	172.9	774.4	2436	1358	24.59	1.903	1.174	0.971	0.882	0.772	0.749
565.0	48.86	58.64	56.14	51.21	48.30	48.07	61.20	126.1	78.67	62.67	119.1	1417	6893	714.2	33.64	27.07	23.40	20.17	18.90	17.42	16.62	15.90	15.36	15.38	15.17	15.14	14.62	14.73	14.48	14.41	14.26	13.04	12.28	11.14	10.62	9.584	8.725	8.492	7.590	7.063	6.356	5.869	5.654	5.238	4.712	4.714	4.180	3.868	3.596	4.065	4.706	4.224	2.885	2.450	2.109	2.138	1.868	2.081	2.295	2.350	2.078	1.676	1.985	2.724	6.801	19.62	40.45	179.2	1003	2307	905.0	17.18	1.606	1.089	0.878	0.833	0.711
570.0	52.79	59.53	57.35	46.35	40.71	39.79	45.14	91.83	101.4	55.81	65.47	375.8	4173	3837	85.26	23.30	20.45	17.47	16.04	14.34	13.85	13.11	13.07	12.30	12.01	12.02	11.90	11.97	11.66	12.19	11.47	10.55	9.935	9.167	8.578	7.878	7.337	6.968	6.562	5.907	5.244	4.988	4.789	4.532	4.021	3.780	3.518	3.217	3.054	2.947	3.249	3.619	3.206	2.397	1.817	1.899	1.688	1.699	1.871	1.973	2.174	1.850	1.640	1.888	2.749	5.723	10.38	41.42	230.8	840.9	1541	848.1	102.2	2.733	1.066	0.866	0.745
575.0	48.11	54.57	61.69	45.64	34.70	35.56	37.38	54.71	113.2	65.91	53.32	119.4	1137	5297	860.4	23.91	16.75	15.13	13.66	12.27	11.47	10.80	11.04	9.797	9.927	9.861	9.311	9.804	9.494	9.631	8.845	8.617	7.908	7.478	6.907	6.277	5.738	5.513	5.294	4.569	4.346	4.018	3.904	3.635	3.393	3.062	2.999	2.885	2.416	2.457	2.324	2.692	3.140	2.597	1.655	1.685	1.578	1.437	1.600	1.585	1.795	2.002	1.580	1.559	1.703	2.395	3.464	10.45	52.82	188.9	408.2	1114	1253	31.48	2.009	0.939	0.765
580.0	47.57	62.53	59.32	45.70	34.14	30.99	33.76	40.07	96.31	87.84	50.11	65.43	296.8	3340	3685	66.61	15.89	13.44	11.45	10.76	10.12	9.362	8.976	9.025	8.634	8.443	8.001	8.502	8.116	8.017	7.774	7.431	6.644	6.622	5.936	5.425	5.137	4.895	4.595	3.897	3.627	3.392	3.202	3.177	2.918	2.764	2.528	2.621	2.099	2.217	1.974	2.065	2.607	2.840	1.970	1.595	1.376	1.319	1.425	1.394	1.444	1.842	1.749	1.459	1.457	1.692	1.935	3.427	12.99	43.34	92.90	356.7	1366	924.3	25.75	1.358	0.849
585.0	53.50	59.93	60.86	47.12	34.89	28.66	30.54	33.47	70.58	105.6	53.93	50.17	98.39	1203	5406	441.9	15.65	12.75	10.61	9.419	9.208	8.309	7.502	7.352	7.436	7.482	7.313	7.456	6.939	6.879	6.781	6.292	5.876	5.704	5.219	5.060	4.392	4.264	4.252	3.502	3.377	3.120	2.790	2.892	2.760	2.362	2.440	2.382	2.078	1.958	1.689	1.868	2.010	2.425	2.117	1.653	1.357	1.429	1.368	1.263	1.374	1.419	1.739	1.572	1.429	1.376	1.381	1.777	4.190	10.74	22.06	82.07	500.7	1312	662.1	18.17	1.187
590.0	50.46	58.39	55.44	43.16	31.71	27.12	29.97	31.93	47.22	102.3	72.14	48.36	56.62	314.1	3372	2653	51.90	12.07	9.651	8.404	7.857	7.289	6.987	6.528	6.389	6.585	5.934	5.879	5.940	5.910	5.657	5.113	5.012	4.741	4.495	4.119	3.611	3.476	3.233	3.130	2.822	2.545	2.363	2.414	2.425	2.192	2.069	2.045	1.824	1.605	1.464	1.514	1.543	1.841	2.076	1.884	1.347	1.233	1.247	1.080	1.189	1.140	1.452	1.509	1.472	1.264	1.191	1.260	1.990	3.351	5.900	19.31	114.5	443.8	937.1	608.0	95.74
595.0	50.58	61.83	57.91	44.93	31.54	25.24	28.23	32.07	38.50	72.86	97.13	53.64	49.49	96.32	921.3	3940	588.3	12.84	9.128	7.521	7.164	6.362	5.510	5.809	5.320	5.530	4.877	4.849	4.749	4.885	4.587	4.304	4.312	3.908	3.675	3.233	3.206	2.800	2.933	2.698	2.342	2.256	2.093	1.886	1.973	1.873	1.809	1.758	1.518	1.382	1.247	1.304	1.315	1.187	1.695	1.702	1.473	1.131	1.220	1.054	1.076	1.146	1.129	1.195	1.430	1.404	1.192	1.304	1.350	1.655	2.215	5.184	26.26	99.73	239.2	690.1	827.4
600.0	51.58	57.08	56.01	45.47	31.35	27.85	28.38	34.31	39.57	58.49	107.0	66.92	50.27	53.13	237.4	2670	2381	34.87	8.555	7.021	6.414	6.064	4.949	5.123	4.784	4.887	4.366	4.162	4.020	4.169	3.883	3.770	3.522	3.230	3.142	2.768	3.006	2.496	2.313	2.301	2.082	1.951	1.817	1.776	1.617	1.595	1.654	1.582	1.308	1.301	1.168	1.181	1.039	1.064	1.250	1.591	1.582	1.239	1.013	1.107	1.000	1.054	1.116	1.002	1.188	1.519	1.224	1.073	1.128	1.224	1.373	2.009	6.520	23.17	54.32	211.5	831.6
605.0	48.82	57.59	63.55	48.54	31.97	31.85	33.40	39.30	46.76	60.62	110.1	90.56	59.33	49.91	82.95	1028	3734	87.12	8.724	6.636	6.018	5.675	4.541	4.637	4.487	4.293	3.949	3.353	3.841	3.591	3.636	3.548	3.196	2.750	2.707	2.582	2.504	2.325	2.080	1.974	1.965	1.737	1.540	1.569	1.465	1.486	1.393	1.314	1.234	1.123	1.026	0.994	1.037	0.933	0.997	1.331	1.622	1.317	1.115	0.974	0.941	1.032	1.033	1.073	1.003	1.357	1.526	1.200	1.125	1.190	1.214	1.205	2.278	5.980	12.91	48.58	289.8
610.0	53.16	64.05	64.27	52.11	37.04	35.02	37.33	47.67	61.06	76.34	112.5	131.3	89.54	67.34	63.41	280.7	2574	1468	31.97	6.271	5.599	5.209	4.104	3.726	3.631	3.874	3.575	3.275	3.199	3.217	2.970	3.024	2.833	2.528	2.495	2.198	2.143	2.054	1.839	1.719	1.641	1.541	1.513	1.359	1.330	1.371	1.371	1.081	1.134	1.092	0.995	0.915	0.940	0.819	0.925	0.992	1.249	1.349	1.147	1.055	0.937	1.022	1.059	1.061	1.113	1.173	1.356	1.493	1.392	1.287	1.223	1.049	1.412	2.170	3.702	11.62	66.15
615.0	51.67	76.00	68.07	55.69	40.46	32.47	43.90	51.60	68.45	84.20	112.3	141.0	111.5	77.74	63.72	96.69	753.5	2858	399.7	6.889	5.034	4.782	3.898	3.341	3.366	3.248	3.203	2.784	2.863	2.946	2.633	2.780	2.241	2.266	1.996	1.879	1.886	1.753	1.560	1.593	1.359	1.344	1.265	1.215	1.169	1.213	1.361	1.061	1.068	0.980	0.943	0.842	0.857	0.768	0.857	0.845	1.006	1.208	1.300	1.106	1.025	1.081	0.978	1.152	1.029	1.182	1.304	1.388	1.520	1.461	1.173	1.051	1.131	1.355	1.563	3.254	15.47
620.0	49.00	70.96	66.00	55.15	41.05	37.36	45.26	54.89	67.30	82.60	105.8	126.0	125.2	79.53	64.19	55.07	208.0	2160	1529	15.78	5.190	4.875	3.730	3.286	3.156	2.880	2.775	2.442	2.383	2.518	2.194	2.277	2.260	1.938	1.918	1.800	1.843	1.512	1.484	1.419	1.313	1.156	1.125	1.105	1.092	1.132	1.107	1.019	0.947	0.907	0.809	0.871	0.789	0.766	0.781	0.813	0.788	1.018	1.112	1.202	1.051	0.963	1.031	1.156	0.992	1.244	1.337	1.159	1.510	1.397	1.128	1.058	1.036	1.082	0.989	1.390	4.105
625.0	47.73	73.01	66.06	56.59	40.32	38.64	47.00	53.43	67.92	80.90	99.24	114.9	128.5	84.18	65.55	45.05	76.34	914.2	2646	64.47	5.852	4.758	3.538	3.188	2.998	2.827	2.404	2.291	2.545	2.491	1.922	2.104	2.006	1.952	1.913	1.672	1.606	1.505	1.250	1.301	1.203	1.029	1.076	1.014	0.980	1.007	1.001	0.908	0.974	0.882	0.758	0.838	0.799	0.744	0.772	0.750	0.722	0.897	1.019	1.168	1.016	0.940	1.024	0.918	1.067	1.140	1.239	1.166	1.236	1.452	1.290	1.111	1.075	0.983	0.802	0.952	1.497
630.0	52.15	65.42	66.70	57.76	40.52	38.65	46.40	53.38	65.92	82.20	99.80	105.7	121.4	96.82	66.49	43.27	44.38	240.8	2051	1048	19.41	5.104	3.439	2.925	2.591	2.578	2.316	2.003	2.195	2.040	1.937	1.870	1.735	1.785	1.571	1.536	1.428	1.327	1.194	1.094	1.096	1.072	0.899	0.953	0.937	0.934	0.858	0.927	0.880	0.841	0.721	0.762	0.693	0.673	0.737	0.668	0.672	0.780	0.883	1.062	1.047	1.002	0.944	0.896	1.003	1.035	1.123	1.112	1.091	1.225	1.260	1.071	0.981	0.928	0.876	0.824	0.905
635.0	53.16	61.34	68.90	62.09	42.42	40.65	45.44	53.11	62.09	79.77	100.1	101.3	112.3	106.0	69.14	44.83	38.06	69.68	630.8	2159	261.4	6.096	3.318	2.786	2.726	2.341	1.989	1.984	1.914	1.833	1.866	1.721	1.570	1.512	1.417	1.343	1.353	1.217	1.031	0.949	0.946	0.953	0.827	0.886	0.897	0.748	0.839	0.872	0.812	0.765	0.677	0.717	0.596	0.647	0.603	0.627	0.631	0.715	0.798	0.903	0.920	0.932	0.901	0.829	0.797	1.001	0.981	0.999	1.034	1.040	1.122	1.154	1.037	0.787	0.756	0.698	0.726
640.0	64.09	70.72	72.67	55.40	39.54	41.10	46.15	53.47	59.41	77.25	100.6	100.1	107.0	106.1	72.75	43.76	36.24	31.59	160.2	1785	1065	11.42	3.603	2.683	2.516	2.291	1.820	1.737	1.769	1.678	1.577	1.644	1.523	1.518	1.452	1.529	1.351	1.266	1.009	0.941	0.886	0.842	0.813	0.833	0.789	0.813	0.850	0.780	0.762	0.741	0.677	0.724	0.612	0.566	0.524	0.619	0.636	0.742	0.768	0.831	0.789	0.935	0.936	0.890	0.840	0.958	0.978	0.884	1.112	1.079	1.051	1.049	1.058	0.797	0.760	0.699	0.679
645.0	56.44	69.26	77.25	55.80	40.90	39.12	42.74	52.09	60.59	74.93	99.91	98.15	101.8	98.31	79.31	44.07	35.35	22.09	43.77	830.7	2070	51.72	3.897	3.111	2.732	2.207	1.987	1.756	1.638	1.693	1.760	1.614	1.420	1.491	1.557	1.543	1.297	1.184	1.142	0.889	0.847	0.824	0.813	0.774	0.736	0.783	0.785	0.768	0.717	0.694	0.681	0.629	0.657	0.625	0.591	0.632	0.646	0.749	0.688	0.727	0.686	0.876	0.954	0.837	0.856	0.959	0.899	0.899	0.851	0.913	0.899	0.841	0.998	0.851	0.700	0.664	0.593
650.0	53.95	64.21	68.58	58.64	39.09	37.89	40.55	49.44	57.22	69.54	94.00	94.17	94.77	87.53	82.88	44.62	35.25	19.48	17.20	243.3	2246	424.5	4.709	2.879	2.653	2.189	1.885	1.881	1.613	1.720	1.724	1.647	1.619	1.563	1.638	1.699	1.533	1.226	1.059	0.972	0.859	0.812	0.800	0.860	0.721	0.767	0.695	0.695	0.721	0.642	0.682	0.618	0.637	0.639	0.579	0.667	0.681	0.788	0.578	0.730	0.658	0.829	0.876	0.919	0.841	0.828	0.895	0.923	0.858	0.794	0.838	0.795	0.846	0.946	0.786	0.635	0.730
