Sample:	'1
File name:	y2025051415 –§’Ú«≈.FD3
Run date:	'14:25:02, 05/15/2025
Operator:	Administrator
Comment:	'

Instrument
Model:	F-2700 FL Spectrophotometer
Serial number:	23B8-004
ROM Version:	4J14000 07

Instrument parameters
Measurement type:	3-D scan
Data mode:	Fluorescence
EX  Start WL:	220.0 nm
EX  End WL:	600.0 nm
EX Sampling interval:	5.0 nm
EM  Start WL:	230.0 nm
EM  End WL:	650.0 nm
EM Sampling interval:	5.0 nm
Scan speed:	12000 nm/min
EX Slit:	5.0 nm
EM Slit:	5.0 nm
PMT Voltage:	700 V
Response:	Auto 
Corrected spectra:	Off
Contour interval:	50.000

Peak integration
Integration method:	Rectangular
Sensitivity:	1
Threshold:	1.000

Peaks
No.	ApexEX/EM(nm)	Height(Data)
1	230.0/345.0	5945
2	230.0/600.0	68.35
3	230.0/625.0	57.33
4	240.0/265.0	252.9
5	245.0/270.0	254.6
6	250.0/275.0	342.5
7	255.0/285.0	426.9
8	260.0/290.0	513.5
9	265.0/585.0	138.9
10	270.0/600.0	119.9
11	275.0/420.0	5677
12	275.0/430.0	5681
13	275.0/615.0	125.0
14	280.0/345.0	3172
15	280.0/625.0	104.9
16	285.0/645.0	89.46
17	335.0/415.0	3426
18	465.0/345.0	15.16
19	475.0/350.0	15.45
20	505.0/275.0	2.371
21	505.0/440.0	16.43
22	510.0/280.0	2.470
23	510.0/445.0	16.70
24	565.0/345.0	14.62
25	570.0/340.0	14.62
26	570.0/425.0	17.37
27	575.0/415.0	17.31

Data points
	220.0	225.0	230.0	235.0	240.0	245.0	250.0	255.0	260.0	265.0	270.0	275.0	280.0	285.0	290.0	295.0	300.0	305.0	310.0	315.0	320.0	325.0	330.0	335.0	340.0	345.0	350.0	355.0	360.0	365.0	370.0	375.0	380.0	385.0	390.0	395.0	400.0	405.0	410.0	415.0	420.0	425.0	430.0	435.0	440.0	445.0	450.0	455.0	460.0	465.0	470.0	475.0	480.0	485.0	490.0	495.0	500.0	505.0	510.0	515.0	520.0	525.0	530.0	535.0	540.0	545.0	550.0	555.0	560.0	565.0	570.0	575.0	580.0	585.0	590.0	595.0	600.0
230.0	28.97	384.5	1321	577.8	35.64	7.608	6.282	5.537	4.961	4.853	4.679	4.324	4.079	3.512	3.203	2.468	2.068	2.104	1.750	1.747	1.577	1.576	1.568	1.513	1.380	1.210	1.231	1.107	1.065	0.917	0.862	0.762	0.693	0.672	0.556	0.520	0.466	0.453	0.420	0.427	0.408	0.351	0.351	0.340	0.321	0.329	0.496	1.915	3.923	3.510	1.669	0.487	0.273	0.260	0.237	0.255	0.268	0.247	0.246	0.263	0.257	0.229	0.234	0.240	0.248	0.239	0.225	0.230	0.241	0.239	0.261	0.241	0.235	0.237	0.239	0.261	0.249
235.0	45.82	118.1	874.2	1816	565.3	53.78	7.195	6.151	5.255	4.815	4.676	4.749	4.052	3.364	3.231	2.448	2.135	1.766	1.778	1.636	1.688	1.522	1.633	1.499	1.402	1.329	1.206	1.196	1.084	1.048	0.831	0.795	0.642	0.656	0.623	0.497	0.523	0.455	0.444	0.422	0.376	0.395	0.386	0.396	0.418	0.351	0.394	0.681	1.546	3.128	5.436	6.165	2.991	0.971	0.264	0.240	0.240	0.246	0.283	0.255	0.239	0.261	0.238	0.244	0.230	0.229	0.217	0.267	0.216	0.221	0.217	0.211	0.267	0.255	0.251	0.275	0.265
240.0	72.34	79.00	261.6	1497	2201	455.6	24.39	7.253	5.503	5.496	5.566	4.530	4.459	3.366	3.548	2.473	2.244	1.965	1.964	2.030	1.728	1.511	1.479	1.377	1.532	1.301	1.247	1.232	1.124	0.923	0.817	0.738	0.722	0.768	0.612	0.665	0.525	0.474	0.513	0.467	0.343	0.367	0.375	0.360	0.421	0.489	0.430	0.382	0.609	1.031	2.851	7.364	9.626	7.469	2.840	0.539	0.238	0.273	0.291	0.228	0.291	0.253	0.294	0.285	0.252	0.260	0.229	0.251	0.221	0.235	0.235	0.240	0.246	0.269	0.261	0.277	0.239
245.0	58.14	104.9	102.1	504.5	2294	2332	321.0	12.86	6.579	6.827	5.863	4.892	4.624	3.828	3.428	2.922	2.533	2.020	1.816	1.863	1.527	1.647	1.566	1.481	1.464	1.183	1.196	1.211	1.134	1.103	0.917	0.801	0.740	0.653	0.529	0.572	0.488	0.435	0.472	0.428	0.465	0.366	0.428	0.294	0.376	0.459	0.539	0.441	0.425	0.412	0.901	2.604	6.735	11.80	12.23	6.584	1.945	0.355	0.258	0.239	0.273	0.258	0.235	0.244	0.230	0.246	0.278	0.230	0.259	0.220	0.236	0.215	0.267	0.271	0.256	0.244	0.293
250.0	33.48	84.64	143.2	176.0	728.5	2221	2848	1000	55.77	7.910	6.568	5.456	5.188	4.640	3.717	2.985	2.644	2.196	1.921	1.990	1.747	1.848	1.673	1.557	1.433	1.312	1.388	1.234	1.088	1.103	0.932	0.870	0.796	0.640	0.551	0.579	0.481	0.499	0.434	0.477	0.457	0.381	0.384	0.304	0.383	0.359	0.390	0.522	0.608	0.622	0.568	0.822	1.826	3.898	7.445	11.19	13.55	12.19	6.589	1.929	0.391	0.264	0.293	0.263	0.275	0.293	0.283	0.272	0.262	0.240	0.230	0.252	0.285	0.266	0.250	0.281	0.272
255.0	27.65	37.91	107.4	205.2	224.2	562.0	2229	4263	1310	46.58	7.950	7.194	5.518	5.124	4.154	2.978	2.841	2.225	1.962	2.000	1.862	1.863	1.641	1.734	1.522	1.379	1.383	1.260	1.145	1.068	1.050	0.959	0.877	0.669	0.586	0.567	0.561	0.471	0.469	0.374	0.484	0.404	0.411	0.343	0.381	0.419	0.367	0.316	0.416	0.618	0.902	0.984	0.823	1.175	1.897	2.912	5.230	12.46	22.02	21.24	9.465	1.939	0.380	0.254	0.266	0.260	0.249	0.282	0.291	0.226	0.280	0.233	0.253	0.264	0.336	0.242	0.276
260.0	34.74	26.29	50.55	187.0	215.4	165.0	672.5	3619	4554	263.0	23.60	7.866	6.305	5.278	4.823	3.262	2.750	2.398	2.063	1.948	1.897	2.006	2.005	1.789	1.395	1.573	1.447	1.393	1.302	1.078	1.012	0.942	0.823	0.635	0.589	0.525	0.545	0.492	0.469	0.375	0.409	0.438	0.446	0.386	0.399	0.389	0.330	0.316	0.338	0.421	0.676	1.182	1.260	0.826	0.767	0.904	1.442	3.551	9.901	21.18	27.88	20.31	6.909	0.937	0.289	0.253	0.294	0.272	0.285	0.243	0.272	0.263	0.255	0.317	0.281	0.259	0.278
265.0	32.98	25.43	27.23	90.78	252.9	166.7	177.1	1245	5097	4164	200.0	11.30	7.222	6.327	5.814	3.726	3.044	2.498	2.315	2.109	2.214	1.774	2.166	1.522	1.503	1.528	1.409	1.395	1.147	1.143	1.022	0.922	0.848	0.639	0.673	0.666	0.577	0.461	0.428	0.404	0.491	0.460	0.412	0.379	0.401	0.355	0.344	0.329	0.301	0.344	0.336	0.680	1.204	1.346	0.990	0.591	0.626	1.080	2.612	6.428	15.96	29.52	29.59	16.33	3.866	0.433	0.361	0.288	0.338	0.270	0.275	0.373	0.279	0.287	0.305	0.291	0.257
270.0	43.91	34.92	29.05	39.88	126.1	254.6	184.7	315.0	1688	4723	4379	740.5	36.95	7.609	6.318	4.255	3.372	2.721	2.535	2.344	2.405	1.931	1.983	1.604	1.599	1.550	1.352	1.423	1.133	1.195	0.986	0.954	0.937	0.713	0.677	0.636	0.569	0.565	0.424	0.438	0.475	0.417	0.428	0.400	0.427	0.375	0.345	0.385	0.338	0.321	0.284	0.408	0.556	0.873	1.182	1.406	1.198	0.811	0.926	1.733	4.070	8.850	16.38	24.84	28.54	21.44	12.35	3.547	0.610	0.313	0.316	0.377	0.288	0.287	0.284	0.279	0.293
275.0	72.21	59.88	62.45	44.38	54.74	136.0	342.5	226.0	424.0	1239	4436	7279	947.7	27.03	9.708	5.986	4.123	3.477	2.917	2.467	2.391	1.991	2.311	1.773	1.680	1.761	1.421	1.364	1.497	1.162	1.035	0.876	0.930	0.821	0.762	0.668	0.622	0.593	0.586	0.393	0.442	0.455	0.479	0.430	0.517	0.457	0.449	0.519	0.463	0.359	0.381	0.459	0.334	0.469	0.595	0.933	1.761	2.371	1.470	0.919	1.281	2.379	4.163	6.177	9.619	20.81	40.01	31.70	18.48	3.094	0.409	0.418	0.336	0.329	0.300	0.366	0.291
280.0	121.9	108.8	111.1	78.03	61.61	84.51	265.0	386.1	220.0	375.0	1446	6969	6363	142.7	15.28	7.170	4.880	3.970	3.223	2.536	2.302	2.107	2.102	2.086	1.674	1.724	1.586	1.501	1.311	1.375	1.185	0.937	0.967	0.803	0.789	0.858	0.649	0.634	0.661	0.515	0.468	0.433	0.508	0.442	0.609	0.640	0.587	0.610	0.601	0.417	0.453	0.505	0.509	0.500	0.555	0.692	1.050	1.925	2.470	2.047	1.163	0.979	1.549	2.014	2.793	5.816	15.76	32.61	47.32	28.83	12.32	1.480	0.395	0.389	0.295	0.331	0.382
285.0	173.1	190.7	182.1	121.8	91.85	88.35	163.3	426.9	330.0	245.5	494.2	2465	8229	4717	102.2	9.450	6.020	4.088	3.615	3.258	2.744	2.369	2.305	2.059	1.661	1.809	1.726	1.419	1.428	1.483	1.075	1.087	0.965	0.933	0.904	0.902	0.807	0.630	0.685	0.582	0.630	0.549	0.577	0.631	0.678	0.758	0.676	0.764	0.738	0.643	0.708	0.602	0.535	0.592	0.670	0.672	0.821	1.044	1.676	2.592	2.638	1.485	1.235	1.384	1.730	2.319	4.464	9.557	22.19	40.49	49.39	24.67	6.848	0.786	0.417	0.378	0.371
290.0	224.2	301.3	296.4	208.6	153.7	145.2	163.5	280.5	513.5	487.5	414.7	835.0	2811	6113	6542	402.9	20.32	5.900	4.493	3.664	3.034	2.589	2.465	2.200	1.994	1.822	1.821	1.555	1.491	1.455	1.224	1.113	1.055	0.995	1.092	1.008	0.891	0.873	0.753	0.659	0.636	0.622	0.636	0.618	0.752	0.805	0.821	0.966	1.106	0.943	0.834	0.855	0.808	0.768	0.827	0.808	0.940	0.934	1.173	1.562	2.139	2.844	3.022	2.358	1.936	2.125	2.489	3.575	6.253	11.86	21.58	30.79	31.81	33.58	16.58	6.257	0.946
295.0	279.2	421.3	410.7	307.4	220.5	209.0	234.9	281.0	414.2	767.5	759.0	632.7	961.2	1693	6011	6107	531.0	15.48	6.155	4.460	3.910	3.032	2.972	2.510	2.272	1.904	1.990	1.591	1.653	1.537	1.217	1.264	1.032	1.017	1.157	0.957	1.017	0.909	0.882	0.701	0.677	0.667	0.824	0.635	0.908	0.961	1.004	1.246	1.476	1.127	1.065	1.161	0.991	1.084	1.026	1.163	1.171	1.236	1.238	1.536	1.840	2.085	2.783	3.975	4.589	3.576	2.710	2.841	3.427	4.420	6.418	8.064	9.552	20.12	39.69	50.34	25.98
300.0	321.2	458.2	466.6	380.9	288.7	277.3	306.3	371.5	464.1	748.4	1139	850.9	711.1	698.5	1905	6322	4924	81.93	10.79	6.024	4.490	3.849	3.157	2.504	2.600	2.222	2.186	1.798	1.551	1.557	1.302	1.153	1.074	0.977	1.021	1.023	1.074	1.005	0.774	0.677	0.722	0.709	0.879	0.707	0.913	1.067	1.157	1.438	1.594	1.283	1.331	1.451	1.356	1.267	1.309	1.327	1.520	1.555	1.780	2.038	2.105	2.125	2.643	3.325	5.020	5.621	4.974	3.670	3.781	3.491	3.643	3.644	3.661	6.234	13.20	31.60	50.36
305.0	367.3	531.4	575.7	481.1	372.2	382.5	441.8	540.6	666.0	902.6	1333	1445	981.5	716.1	809.9	2353	7053	3649	62.64	8.128	5.543	4.427	3.573	2.947	2.961	2.307	2.408	1.939	1.609	1.664	1.382	1.271	1.158	1.101	1.064	1.003	1.141	1.018	0.881	0.789	0.743	0.766	0.818	0.956	0.909	1.186	1.358	1.590	1.788	1.598	1.521	1.594	1.543	1.678	1.623	1.625	1.891	2.296	2.468	2.761	2.893	3.194	3.811	4.157	4.807	6.219	7.209	6.646	5.710	5.134	4.323	3.921	3.363	3.895	4.805	9.259	19.85
310.0	412.8	625.7	695.7	572.6	468.1	485.6	574.0	705.5	873.7	1111	1409	1709	1546	1014	761.9	907.8	2569	5071	4150	282.2	15.33	5.855	4.206	3.613	2.973	2.723	2.386	2.206	1.936	1.709	1.504	1.510	1.297	1.171	1.101	1.048	1.077	0.937	0.935	0.815	0.825	0.795	0.765	0.938	1.014	1.359	1.487	1.960	2.003	1.810	1.769	2.015	1.824	1.933	2.017	2.081	2.473	2.949	3.065	3.403	3.629	4.010	4.768	5.156	5.672	6.442	7.061	7.902	8.529	7.736	6.126	5.148	4.306	4.330	3.981	4.483	6.565
315.0	497.2	748.4	853.8	698.0	586.5	574.4	688.2	842.2	1013	1261	1517	1715	1790	1498	964.5	713.0	975.2	1449	4008	4413	395.1	12.73	6.185	4.407	3.420	2.916	2.685	2.606	2.081	1.947	1.589	1.514	1.320	1.256	1.057	1.033	1.043	0.982	0.848	0.905	0.755	0.839	0.839	1.117	1.157	1.414	1.984	2.386	2.448	2.175	2.049	2.318	2.174	2.197	2.414	2.491	2.799	3.560	3.627	4.016	4.079	4.672	5.349	6.007	6.335	6.921	7.379	7.610	8.091	8.494	9.130	7.935	6.683	5.332	4.862	3.890	4.282
320.0	678.3	1160	1232	918.3	710.9	679.0	800.1	972.5	1165	1437	1729	1930	1935	1856	1337	850.1	740.8	618.3	1279	4881	3741	62.36	10.37	5.767	4.154	3.535	2.830	2.677	2.254	2.148	1.789	1.536	1.285	1.232	1.074	0.995	1.034	0.980	0.955	0.876	0.845	0.993	1.067	1.110	1.500	2.057	2.543	3.372	3.454	3.096	2.706	2.901	2.644	2.735	2.914	3.000	3.128	3.820	4.017	4.523	5.010	5.259	6.046	6.747	7.244	7.669	8.486	8.354	9.206	8.846	9.439	9.305	9.211	7.499	6.140	5.023	4.470
325.0	1016	1886	2344	1654	1005	841.9	934.4	1131	1349	1672	2017	2259	2221	2070	1808	1139	817.5	522.5	489.1	1770	5383	2930	50.37	9.371	5.408	3.874	3.389	2.908	2.518	2.185	1.766	1.562	1.494	1.439	1.063	1.061	1.012	0.956	1.009	1.091	1.000	1.007	1.332	1.351	1.989	3.099	3.953	5.583	6.250	5.679	4.642	4.390	3.678	3.463	3.309	3.497	3.775	4.221	4.780	5.360	5.990	5.845	7.029	7.700	8.432	8.793	9.451	9.956	10.36	9.908	10.06	10.19	10.16	10.40	8.892	6.897	5.714
330.0	1514	2935	4031	3134	1817	1209	1156	1354	1607	1974	2368	2641	2644	2410	2084	1640	1115	675.5	474.0	664.0	1933	4054	3536	236.9	18.43	6.015	4.342	3.317	2.780	2.551	2.170	1.868	1.643	1.559	1.331	1.223	1.147	1.092	1.055	1.063	1.181	1.175	1.366	1.990	2.925	4.426	5.909	8.872	10.18	9.884	8.697	8.581	6.400	5.404	4.702	4.462	4.797	5.193	5.596	6.022	6.584	7.356	8.255	9.288	9.744	10.19	11.05	11.83	12.13	12.34	11.90	12.06	11.58	11.58	10.91	9.912	8.465
335.0	1827	3696	5089	4399	2780	1747	1414	1535	1820	2201	2645	2937	2985	2748	2334	1908	1561	1002	684.2	636.2	833.3	1311	3510	3603	360.6	17.95	6.591	4.643	3.483	2.908	2.784	1.960	1.900	1.583	1.527	1.276	1.214	1.118	1.181	1.122	1.195	1.310	1.597	2.355	3.432	5.352	7.522	11.06	13.06	13.14	12.03	12.51	9.862	8.471	6.548	5.796	5.738	6.155	6.174	6.855	7.180	8.303	9.398	10.36	10.89	11.21	12.63	13.07	13.30	13.93	13.67	13.89	13.29	13.15	11.90	11.15	10.76
340.0	1951	4044	5812	5081	3303	2060	1574	1678	1958	2345	2782	3088	3141	2912	2514	2029	1715	1296	881.5	751.3	694.0	716.7	1360	4244	3245	57.28	12.00	5.726	4.195	3.154	2.923	2.018	2.000	1.688	1.598	1.264	1.301	1.070	1.110	1.114	1.314	1.478	1.827	2.396	3.627	5.592	8.069	11.93	15.14	14.51	13.56	14.62	11.93	10.01	7.902	6.796	7.121	6.865	6.892	7.495	7.606	8.629	9.582	11.03	11.55	12.11	13.36	13.97	14.11	14.28	14.62	14.39	14.31	13.69	12.55	12.21	11.29
345.0	2034	4127	5945	5398	3557	2180	1697	1758	2030	2390	2797	3096	3172	2961	2592	2103	1719	1468	1090	872.0	754.8	672.8	729.0	1687	4664	2669	49.27	8.906	5.214	3.924	3.038	2.184	2.084	1.664	1.616	1.542	1.238	1.195	1.204	1.049	1.285	1.508	1.844	2.469	3.644	5.275	8.130	12.07	15.16	15.16	14.56	15.09	12.76	10.32	8.441	7.051	6.893	6.934	7.207	7.653	7.835	8.686	9.691	10.96	11.54	12.00	13.37	13.83	14.12	14.62	14.39	14.30	14.24	14.17	13.22	12.33	11.73
350.0	1889	3852	5601	5243	3644	2325	1829	1831	2034	2341	2710	2956	3045	2886	2575	2155	1772	1507	1328	1112	913.9	794.1	702.7	762.8	1712	3348	2989	216.5	16.17	5.373	3.584	2.708	2.250	1.976	1.528	1.509	1.361	1.279	1.147	1.137	1.259	1.479	1.806	2.408	3.370	5.448	7.682	11.49	14.01	14.34	14.11	15.45	13.03	10.98	9.053	7.527	7.252	7.471	7.499	7.901	8.427	8.560	9.752	10.47	11.21	12.05	12.68	13.18	13.70	14.03	14.09	14.32	14.22	14.19	13.18	12.46	11.73
355.0	1715	3432	5114	4917	3602	2439	1940	1915	2065	2306	2603	2817	2896	2768	2520	2181	1859	1601	1442	1386	1160	975.4	823.4	668.7	713.1	997.3	2572	3232	342.5	16.91	5.567	3.460	2.640	2.048	1.600	1.510	1.464	1.309	1.138	1.234	1.309	1.415	1.722	2.207	3.190	4.874	6.892	10.11	12.85	13.14	13.02	14.85	12.84	11.23	9.229	8.360	8.090	7.904	7.451	8.136	8.881	8.708	9.858	10.35	10.78	11.94	12.04	12.47	12.94	13.41	13.90	13.33	13.41	13.44	13.01	12.91	11.52
360.0	1555	3147	4675	4612	3544	2457	1982	1987	2105	2332	2550	2713	2782	2689	2475	2187	1925	1709	1550	1504	1402	1156	963.1	748.1	577.3	494.6	852.6	3214	3028	280.3	11.24	5.013	3.339	2.439	1.938	1.649	1.676	1.515	1.303	1.350	1.332	1.372	1.821	2.139	2.928	4.358	6.272	9.422	11.30	11.85	12.09	13.91	12.42	10.87	9.011	8.117	8.128	8.077	8.178	8.400	9.036	9.242	9.786	10.34	10.84	11.13	11.69	11.90	12.22	12.36	13.50	12.91	13.60	13.13	12.79	12.73	12.24
365.0	1441	2873	4259	4299	3421	2484	2098	2078	2194	2371	2498	2623	2675	2621	2440	2204	2003	1818	1691	1614	1571	1398	1136	889.0	679.3	481.9	414.7	1139	3756	2657	47.61	9.104	4.633	2.912	2.220	1.780	1.492	1.545	1.359	1.243	1.209	1.415	1.708	1.939	2.634	4.053	5.843	8.622	10.07	10.87	11.54	13.23	11.99	10.64	9.302	8.197	8.830	8.461	8.697	8.603	9.432	9.543	9.926	10.69	10.79	10.62	11.33	11.29	11.80	12.33	13.02	12.80	12.89	12.75	12.03	12.48	12.44
370.0	1342	2547	3762	3954	3337	2601	2240	2209	2314	2446	2500	2536	2561	2515	2401	2220	2096	1972	1885	1817	1750	1674	1445	1139	889.8	647.5	448.3	505.5	1283	2877	2838	701.6	18.00	5.572	3.190	2.199	1.711	1.553	1.487	1.328	1.245	1.391	1.550	1.937	2.542	3.762	5.153	7.552	9.126	10.02	10.49	12.62	11.36	10.56	9.691	8.893	9.080	9.095	8.961	9.199	9.620	9.921	10.17	10.62	11.04	10.65	11.06	11.09	11.30	11.90	12.11	12.29	12.68	12.62	12.74	12.43	12.64
375.0	1190	2274	3394	3702	3234	2667	2361	2327	2385	2479	2486	2473	2491	2430	2345	2210	2154	2097	2054	2004	1939	1841	1713	1443	1130	869.7	629.9	494.2	560.3	856.0	2150	3060	324.8	20.44	6.031	3.576	2.223	1.769	1.584	1.510	1.307	1.444	1.404	1.787	2.401	3.559	4.659	6.754	8.256	8.730	9.631	11.76	11.12	10.75	9.871	9.290	9.423	9.449	9.631	9.763	9.926	10.27	10.40	11.01	10.94	10.63	10.44	10.97	11.11	11.45	11.57	11.81	12.19	12.67	12.33	12.31	13.01
380.0	1078	2099	3136	3433	3136	2684	2431	2407	2430	2504	2488	2433	2431	2390	2317	2211	2180	2145	2131	2113	2075	1973	1836	1669	1347	1055	802.8	620.6	495.3	450.5	731.3	2632	2692	263.0	13.22	5.516	3.387	2.143	1.722	1.465	1.514	1.474	1.588	1.899	2.174	3.461	4.443	6.295	7.706	7.943	9.080	11.16	10.62	10.49	9.733	9.282	9.914	9.637	9.837	9.635	9.853	10.61	10.75	10.60	10.64	10.67	10.68	10.69	10.67	11.35	11.29	11.42	11.44	12.12	12.16	12.29	13.13
385.0	1072	1983	2944	3274	3102	2742	2505	2454	2492	2567	2499	2429	2432	2392	2321	2220	2183	2182	2196	2198	2177	2095	1957	1812	1577	1256	985.1	778.1	607.4	456.2	402.9	913.2	2840	2298	41.32	10.15	5.257	2.908	2.094	1.695	1.504	1.508	1.610	1.932	2.167	3.121	4.380	5.954	7.166	7.743	8.745	10.83	10.65	10.62	9.885	9.842	10.08	10.03	10.17	10.37	10.31	10.86	11.23	10.60	10.93	10.65	10.33	10.74	10.81	11.25	10.91	11.42	11.41	11.97	11.93	12.69	12.71
390.0	1038	1893	2786	3198	3129	2854	2692	2663	2690	2757	2676	2597	2573	2534	2419	2306	2257	2248	2293	2328	2333	2297	2190	2037	1856	1608	1293	1053	850.6	648.2	477.6	460.4	945.2	2071	2135	612.0	19.80	6.807	3.667	2.326	1.714	1.670	1.791	1.888	2.188	3.006	4.038	5.688	6.774	7.431	8.258	10.53	10.54	10.60	10.19	10.12	10.64	10.38	11.08	10.60	11.03	11.05	11.50	11.16	11.49	10.83	10.46	10.67	10.89	11.52	11.43	11.75	12.04	12.59	11.99	12.57	12.87
395.0	1038	1852	2687	3167	3219	3062	2977	2967	3057	3179	3137	3110	3048	2965	2757	2539	2410	2379	2426	2492	2548	2559	2490	2364	2190	1988	1719	1434	1184	943.7	704.9	520.9	483.1	649.1	1398	2423	284.2	25.41	8.193	3.648	2.434	1.903	1.836	2.090	2.333	3.022	4.065	5.653	6.617	7.170	7.949	10.16	10.20	10.91	10.75	10.61	11.81	11.64	11.69	11.36	11.68	12.04	11.99	12.03	12.39	11.99	11.33	11.32	11.60	12.65	12.68	12.65	13.10	13.38	13.18	12.94	13.30
400.0	992.2	1843	2681	3200	3354	3265	3260	3324	3483	3682	3769	3746	3705	3517	3195	2825	2567	2509	2567	2650	2742	2805	2782	2690	2523	2319	2106	1810	1511	1228	953.8	691.8	497.6	404.4	526.8	1739	2227	246.7	19.37	6.186	3.279	2.413	2.371	2.127	2.788	3.104	4.306	5.442	6.610	7.063	8.167	10.40	10.97	11.16	11.37	11.46	12.50	12.32	12.66	12.05	12.54	12.75	12.78	13.37	13.82	13.08	12.77	12.66	13.31	13.41	14.04	13.74	14.11	13.82	13.88	13.63	13.91
405.0	987.4	1752	2664	3228	3463	3521	3562	3687	3939	4285	4480	4538	4456	4179	3699	3177	2779	2645	2718	2825	2941	3053	3085	3018	2878	2664	2438	2184	1853	1528	1211	897.3	633.3	456.6	375.3	640.1	1919	1913	189.4	11.37	4.623	3.104	2.560	2.312	2.909	3.098	4.277	5.632	6.514	7.200	8.129	10.58	11.07	11.65	11.78	12.14	12.64	12.86	12.58	13.40	13.29	13.44	13.80	14.71	14.63	14.31	14.10	14.30	14.70	14.85	15.37	15.16	15.34	15.02	14.95	14.42	14.53
410.0	1019	1714	2583	3286	3630	3779	3882	4079	4409	4890	5231	5351	5198	4854	4224	3515	2982	2783	2831	2977	3127	3271	3348	3335	3212	3005	2756	2512	2219	1855	1489	1129	823.8	592.2	439.7	399.0	668.3	1445	1650	525.5	16.24	4.749	3.088	2.718	2.866	3.329	4.133	5.584	6.748	7.014	8.038	10.86	11.27	11.74	12.22	12.77	13.68	13.41	13.74	13.89	13.97	14.56	15.13	15.52	16.07	15.79	15.68	16.23	16.15	15.99	16.76	16.73	16.80	16.88	16.02	15.27	14.89
415.0	946.2	1689	2498	3223	3639	3888	4016	4252	4588	5120	5509	5644	5498	5127	4416	3619	3012	2779	2833	2971	3145	3306	3404	3426	3313	3136	2894	2637	2369	2059	1661	1276	950.2	695.6	514.1	390.6	347.8	440.6	892.2	1828	260.3	18.62	4.606	3.412	3.064	3.529	4.280	5.692	6.702	6.913	7.993	10.92	11.39	12.07	12.23	13.19	13.77	13.88	14.25	14.06	14.86	14.99	15.74	16.14	16.82	16.53	16.16	16.90	16.46	17.03	17.22	17.31	16.66	17.00	16.19	15.35	15.20
420.0	936.5	1671	2501	3145	3628	3886	4073	4303	4649	5136	5482	5677	5513	5116	4406	3593	2959	2733	2757	2905	3061	3241	3350	3389	3301	3134	2895	2655	2383	2111	1741	1341	1010	753.3	561.8	412.5	295.8	226.4	286.2	1100	1649	227.5	11.75	4.573	3.536	3.853	4.109	5.276	6.212	6.686	8.051	10.49	11.02	11.97	12.64	13.37	14.21	14.42	14.46	14.20	14.31	14.67	15.57	15.59	16.13	16.28	16.37	16.38	16.43	16.80	17.09	16.97	16.37	16.42	15.90	14.64	14.43
425.0	924.1	1616	2416	3099	3593	3917	4131	4355	4652	5074	5464	5646	5485	5064	4380	3540	2909	2680	2703	2827	2977	3159	3278	3322	3256	3102	2885	2644	2388	2115	1800	1400	1057	797.8	603.8	444.8	308.2	198.7	149.3	333.6	1234	1444	174.4	6.950	4.627	3.869	4.192	5.414	6.347	6.627	7.720	10.49	11.05	12.09	12.42	13.42	14.12	14.62	14.49	14.48	15.13	15.07	15.23	15.52	15.84	15.68	15.51	15.71	16.62	16.67	17.37	16.79	16.15	15.94	15.25	14.78	14.32
430.0	894.2	1564	2356	3066	3630	4024	4287	4510	4738	5159	5496	5681	5503	5095	4379	3543	2906	2639	2645	2755	2898	3063	3195	3252	3197	3069	2863	2645	2406	2137	1840	1489	1142	868.6	671.3	505.0	355.7	227.9	146.0	144.4	359.2	963.9	1249	446.5	15.44	5.245	4.626	5.542	6.378	6.458	7.612	10.34	11.21	12.16	12.89	13.46	14.49	15.11	15.21	15.24	14.86	14.81	15.39	15.75	16.07	15.81	15.86	16.16	16.43	16.52	16.60	16.67	16.43	16.11	15.01	14.38	14.50
435.0	967.7	1532	2340	3054	3680	4152	4494	4658	4794	5136	5463	5619	5463	5049	4336	3513	2869	2604	2587	2674	2792	2937	3071	3139	3106	2994	2805	2609	2392	2141	1853	1529	1220	942.3	733.3	563.1	406.4	270.6	174.0	125.1	141.9	257.8	619.5	1477	245.8	18.51	5.652	6.195	6.355	6.737	7.578	10.32	11.10	11.99	13.40	13.93	15.19	16.16	16.14	15.44	15.21	15.19	15.17	15.31	15.45	15.53	15.53	15.55	16.24	16.71	16.20	16.14	16.41	15.95	14.89	14.49	14.18
440.0	1028	1548	2270	2988	3660	4218	4610	4726	4795	5021	5283	5425	5284	4870	4212	3415	2795	2524	2514	2579	2666	2796	2930	2998	2973	2871	2701	2534	2331	2099	1819	1524	1239	976.4	763.3	591.7	436.9	299.2	199.7	135.9	106.5	107.7	183.0	871.9	1431	214.3	12.63	6.576	6.714	6.710	7.632	10.40	11.39	12.43	13.29	14.30	15.92	16.43	16.31	15.89	15.83	15.61	15.11	15.61	14.64	15.46	15.60	15.30	15.46	16.31	15.97	15.70	16.01	16.01	14.84	14.10	13.83
445.0	1030	1551	2224	2925	3656	4186	4606	4715	4691	4805	4965	5137	4986	4595	3986	3253	2677	2434	2403	2446	2509	2627	2741	2802	2799	2709	2554	2410	2223	2012	1760	1476	1206	983.8	782.2	608.1	455.3	318.4	220.3	154.6	111.9	86.36	84.16	255.1	1071	1293	152.3	9.366	7.185	6.973	7.748	9.955	11.27	12.73	13.25	14.44	16.25	16.41	16.70	15.85	15.44	15.00	14.97	14.49	14.40	14.50	14.58	14.38	14.97	15.44	14.91	15.28	15.05	14.82	14.29	13.79	13.25
450.0	931.6	1769	2149	2778	3519	4072	4517	4559	4413	4397	4512	4605	4472	4134	3618	2962	2470	2251	2221	2232	2263	2354	2449	2511	2513	2433	2312	2181	2032	1861	1642	1390	1145	949.7	782.7	615.2	464.9	336.8	245.2	177.6	130.5	96.13	74.05	95.67	300.9	852.6	1121	394.1	15.17	7.600	7.633	9.997	11.12	12.39	13.01	14.26	15.68	16.24	16.55	15.91	15.07	14.53	14.28	13.42	13.04	13.32	13.27	13.40	13.40	13.66	14.06	13.93	13.72	13.45	13.25	12.81	12.40
455.0	740.0	1776	2325	2620	3322	3855	4316	4328	4078	3959	4022	4078	3959	3660	3214	2659	2238	2044	2007	2012	2002	2069	2144	2203	2201	2145	2052	1941	1832	1689	1506	1287	1074	893.2	746.5	618.4	476.8	352.9	263.9	198.9	150.7	113.1	85.25	70.73	101.6	218.3	515.4	1221	204.6	16.47	8.189	9.520	10.65	11.46	12.80	13.88	15.25	16.11	15.81	15.07	14.18	14.29	13.39	12.35	11.97	11.79	12.32	12.10	12.24	11.95	12.71	12.34	12.76	12.14	11.98	11.65	11.49
460.0	687.7	1488	2635	2577	3095	3693	4091	4089	3820	3658	3674	3694	3613	3322	2910	2438	2061	1884	1845	1826	1815	1857	1928	1982	1981	1940	1856	1769	1680	1559	1400	1211	1019	851.1	713.7	605.2	483.2	357.8	273.0	209.7	163.4	125.7	94.73	71.33	63.75	78.41	144.8	684.8	1120	164.6	13.21	9.932	10.20	11.41	12.31	13.19	14.93	15.40	15.47	14.29	13.84	13.17	12.25	11.43	10.98	10.88	11.20	11.00	11.44	11.10	11.90	11.22	11.40	11.02	11.14	10.75	10.41
465.0	598.0	1198	2640	2728	2910	3489	3844	3844	3561	3383	3353	3368	3293	3039	2681	2227	1903	1728	1697	1680	1650	1681	1745	1793	1801	1759	1694	1617	1538	1436	1303	1134	955.4	804.7	680.9	575.4	478.1	365.8	276.8	217.8	171.2	132.7	102.4	78.09	60.42	52.45	58.51	194.7	836.9	962.4	135.3	11.76	9.850	11.42	11.82	12.49	14.05	14.25	14.79	13.85	12.68	11.98	11.30	10.79	10.11	9.752	9.941	10.35	10.32	10.29	10.51	10.30	10.33	10.85	9.966	10.07	10.11
470.0	556.2	1018	2053	3172	2790	3127	3474	3442	3163	2939	2921	2930	2862	2633	2332	1955	1676	1529	1496	1467	1429	1445	1504	1546	1549	1514	1468	1411	1343	1264	1155	1013	867.1	737.8	627.2	530.5	445.0	359.4	279.7	219.4	176.5	138.5	110.4	85.75	66.36	52.05	44.09	67.55	232.6	622.8	782.7	305.8	16.87	11.08	10.85	11.58	12.96	13.02	13.34	12.57	11.71	10.91	10.12	9.688	9.024	8.691	9.037	9.144	9.327	9.192	9.306	9.215	9.603	9.331	8.810	8.949	8.808
475.0	508.9	880.8	1473	2952	3099	2800	3075	3039	2760	2535	2490	2482	2414	2237	1979	1673	1443	1330	1289	1259	1214	1223	1268	1300	1303	1281	1249	1204	1154	1090	1004	888.9	768.1	662.5	568.0	483.0	405.4	337.4	279.5	218.1	176.5	142.3	114.8	91.18	72.91	56.94	45.76	42.80	73.57	156.5	343.2	826.6	201.7	20.01	10.34	10.88	11.64	11.77	11.75	11.09	10.13	9.271	9.364	8.301	7.924	7.807	7.804	7.796	8.199	7.734	7.859	8.133	8.023	8.068	7.865	7.862	7.890
480.0	466.2	803.2	1242	2269	3474	2647	2790	2763	2488	2268	2202	2203	2136	1977	1755	1499	1295	1197	1157	1119	1072	1077	1118	1143	1148	1138	1102	1062	1025	975.3	901.0	805.4	705.5	607.7	526.1	449.1	379.7	317.1	271.3	221.0	177.4	142.7	116.4	94.49	76.96	61.79	49.75	40.61	41.09	54.07	96.22	444.2	810.6	180.5	14.20	10.59	11.19	11.09	10.35	10.26	9.747	8.547	8.326	7.425	7.597	7.227	7.061	6.902	7.553	7.115	7.239	7.305	7.375	7.059	6.802	6.793	7.028
485.0	431.7	750.5	1113	1732	3438	2837	2549	2550	2274	2056	1986	1995	1922	1775	1571	1346	1175	1084	1055	1014	966.2	965.2	999.3	1024	1029	1020	987.2	951.3	925.2	883.9	822.6	734.6	652.5	562.5	489.7	423.5	359.9	301.0	256.9	222.8	179.1	146.5	119.5	99.10	80.94	66.14	53.49	43.76	36.96	33.87	38.99	128.1	585.5	759.2	129.0	11.84	10.78	10.65	9.847	9.074	9.104	7.927	7.842	6.916	6.891	6.398	6.380	6.715	6.531	6.866	6.639	6.745	6.890	6.535	6.548	6.436	6.305
490.0	379.1	677.2	1027	1406	2553	3352	2422	2244	2016	1822	1755	1744	1674	1555	1371	1178	1029	952.5	927.9	885.3	843.8	843.6	868.5	891.6	892.8	889.5	857.9	832.4	813.1	782.9	727.3	654.3	583.9	511.3	448.3	389.3	334.9	282.2	242.2	213.1	182.2	149.6	122.8	103.2	85.86	72.32	60.17	49.81	40.79	33.78	30.98	47.47	165.3	468.8	669.3	277.2	18.09	10.27	9.596	8.880	8.065	7.468	6.976	6.213	6.104	5.931	5.911	5.964	5.871	5.979	5.771	6.119	6.078	5.883	5.883	5.679	5.644
495.0	337.4	608.5	898.2	1211	1725	3155	2691	1961	1754	1593	1523	1507	1449	1334	1178	1015	890.6	823.3	795.9	766.3	725.4	722.7	743.3	763.1	766.4	757.5	735.5	712.6	699.4	677.2	634.1	576.9	513.2	456.8	406.8	353.2	307.1	263.2	226.9	197.8	176.6	153.0	126.7	105.4	90.07	76.10	65.78	55.78	46.48	38.16	33.18	33.26	55.80	121.8	321.4	785.6	222.9	20.39	9.222	7.918	7.470	6.482	6.192	5.636	5.296	5.220	5.370	4.898	5.506	5.044	5.271	5.058	5.281	5.108	5.102	4.729	5.096
500.0	303.8	543.4	853.0	1073	1391	2420	3124	1837	1567	1415	1349	1344	1278	1188	1048	910.1	791.6	732.8	708.5	676.8	638.9	639.9	654.9	675.5	682.8	677.6	658.6	633.7	624.1	600.4	568.0	519.3	465.5	417.9	369.5	327.9	286.9	245.9	213.0	186.9	165.9	148.6	128.2	105.7	91.37	77.75	69.59	59.59	49.89	41.75	35.99	32.46	33.66	45.18	91.64	417.1	780.7	190.3	13.76	7.953	6.451	6.173	5.764	5.319	4.903	4.776	4.742	4.807	4.754	4.452	4.591	4.724	4.860	4.573	4.264	4.309	4.418
505.0	269.8	468.4	760.1	976.4	1220	1731	3163	1955	1406	1268	1215	1199	1132	1065	932.5	811.4	711.6	659.1	632.7	602.0	569.0	565.8	581.7	597.9	607.8	598.8	579.6	563.7	551.6	536.5	508.1	466.3	419.6	376.8	336.5	299.5	263.9	229.7	199.6	174.4	154.5	140.7	126.2	106.6	90.84	78.74	70.35	60.87	52.40	44.82	38.82	33.80	30.14	29.79	36.97	119.9	530.1	706.7	136.6	9.121	6.500	5.737	5.183	4.799	5.071	4.519	4.409	4.312	4.362	4.060	4.316	4.412	4.170	4.236	4.213	4.240	3.851
510.0	227.8	414.9	644.2	870.8	1033	1279	2287	2518	1279	1085	1038	1025	971.8	899.9	790.1	689.0	603.2	558.5	537.4	513.2	484.2	480.5	490.4	506.4	512.1	506.4	489.2	478.3	467.1	456.3	434.0	403.3	362.7	327.8	295.6	262.7	234.2	206.1	180.8	160.1	142.2	127.9	117.9	106.3	90.96	79.04	70.51	61.13	53.53	46.58	40.96	35.64	30.84	27.88	26.51	42.41	146.8	414.5	561.1	133.4	14.52	5.743	4.721	4.541	4.353	4.025	4.019	3.865	3.834	3.689	3.941	3.779	3.599	3.764	3.615	3.476	3.309
515.0	211.9	360.4	538.1	745.5	871.7	1022	1383	2596	1560	920.7	877.0	871.0	823.1	745.6	659.4	571.6	504.7	470.6	448.0	425.9	404.1	400.3	406.5	420.1	422.6	424.9	411.5	398.6	389.9	381.8	365.8	338.9	308.5	279.9	252.8	227.1	205.1	181.7	162.8	143.2	128.3	116.5	105.6	99.70	89.71	78.25	67.49	60.23	53.13	47.69	41.77	36.76	32.19	28.24	24.98	25.33	46.54	104.0	239.7	574.1	216.0	15.48	4.399	3.844	3.774	3.685	3.298	3.416	3.152	3.226	3.240	3.212	3.061	3.021	3.147	3.037	3.088
520.0	184.8	309.9	466.8	660.2	788.5	879.9	1032	1942	2122	870.0	783.3	756.7	709.7	652.2	570.3	502.1	444.0	406.6	388.7	368.8	352.0	346.8	354.8	366.6	365.4	369.3	355.9	346.3	337.1	332.1	317.3	298.1	272.4	246.3	224.8	203.7	183.8	164.0	147.2	132.9	118.9	108.4	97.95	91.19	87.52	76.17	67.10	59.36	52.04	47.08	41.31	36.37	31.90	28.31	24.50	21.96	24.05	34.11	64.79	298.5	576.1	173.1	8.396	3.744	3.655	3.360	3.134	3.016	3.066	3.099	2.985	2.935	2.924	2.731	2.712	2.897	2.655
525.0	152.3	270.3	417.3	584.6	712.7	770.9	859.0	1244	2442	1016	693.3	670.4	629.6	576.7	505.6	441.2	390.6	356.2	341.1	325.1	309.1	304.3	311.1	318.0	324.1	324.1	313.5	300.8	298.6	293.6	282.0	263.3	240.9	219.3	202.7	183.2	167.5	148.8	134.5	121.4	109.3	99.21	91.42	84.00	81.59	74.25	65.51	57.59	50.91	45.73	40.80	35.07	32.22	28.01	24.02	21.26	18.99	18.87	23.56	81.49	358.4	515.1	32.28	5.001	3.306	3.046	3.043	2.852	2.839	2.705	2.718	2.731	2.782	2.372	2.604	2.448	2.336
530.0	140.9	241.0	355.9	479.2	613.2	672.4	704.0	803.1	1783	1737	652.5	572.0	538.1	489.8	425.5	370.4	330.2	303.8	289.0	273.6	258.2	256.6	263.7	266.2	270.4	270.7	263.0	254.5	250.9	247.3	238.1	222.1	205.3	190.1	172.0	157.6	145.5	130.4	118.3	107.8	98.09	89.94	81.68	75.48	72.17	69.93	63.82	55.31	47.82	42.65	38.72	34.60	30.32	26.91	23.39	20.22	17.43	14.88	14.01	25.11	94.31	279.1	377.3	131.1	12.21	2.941	2.752	2.511	2.471	2.398	2.313	2.311	2.235	2.202	2.126	2.088	2.254
535.0	112.7	208.9	299.1	380.6	488.8	582.3	584.3	597.1	877.7	2086	958.1	478.6	446.3	402.9	356.7	308.9	276.8	250.6	238.6	227.4	215.4	214.7	219.1	221.3	222.4	224.5	216.6	208.7	208.3	204.9	199.9	184.9	173.3	158.8	145.3	134.4	123.5	111.9	103.6	93.77	86.20	79.67	73.66	67.70	63.82	60.49	58.30	52.59	45.63	39.21	36.13	32.10	28.36	25.07	22.22	19.75	16.65	13.45	11.31	12.09	26.50	67.42	148.0	396.3	201.7	13.36	2.521	2.331	2.159	2.214	2.030	1.925	2.041	1.873	1.791	1.791	1.943
540.0	110.5	177.4	249.7	338.7	406.1	518.3	507.8	499.1	541.6	1545	1568	442.8	384.6	341.5	305.0	263.2	235.6	216.0	207.7	194.9	184.6	183.8	188.0	189.9	193.8	193.5	184.2	180.2	178.7	177.1	170.9	160.0	147.6	138.6	126.2	117.9	108.6	98.95	91.46	82.75	77.42	71.80	65.34	61.57	57.60	54.25	51.89	48.57	43.14	37.39	33.43	29.34	26.80	23.69	21.04	18.80	15.47	12.74	11.03	9.301	11.18	19.51	38.00	185.8	408.3	152.9	6.732	2.228	2.103	1.994	1.911	1.794	1.641	1.785	1.649	1.583	1.710
545.0	103.2	154.7	216.9	291.5	342.6	436.8	460.5	434.8	422.5	831.9	2011	550.0	338.8	299.5	267.3	228.8	203.5	188.5	179.4	168.9	160.8	154.6	160.0	165.5	165.9	165.5	159.1	156.2	154.8	152.6	149.9	140.7	129.4	120.9	110.7	102.1	96.05	86.55	80.31	74.69	68.56	64.00	59.04	55.50	52.64	48.61	45.98	43.98	40.59	36.28	30.25	28.22	24.17	22.34	19.44	17.38	15.19	12.72	10.56	8.508	7.723	8.796	12.29	48.10	228.1	368.1	32.52	3.576	1.863	1.767	1.760	1.507	1.564	1.551	1.470	1.335	1.444
550.0	79.99	126.2	186.5	241.2	286.9	346.7	398.0	360.1	335.7	430.2	1426	1232	309.1	248.1	217.0	187.2	165.0	153.4	144.7	137.2	131.1	127.0	130.5	133.4	134.8	134.8	129.7	126.6	124.6	125.7	121.4	114.3	106.3	99.18	91.00	84.53	78.70	72.53	67.44	62.93	57.61	53.91	50.29	46.81	45.17	41.86	39.61	36.68	35.54	32.01	27.69	24.86	21.51	19.47	17.25	15.44	13.72	11.72	9.634	7.731	6.688	6.125	6.287	13.76	57.49	178.0	231.0	121.8	11.42	1.733	1.543	1.426	1.441	1.375	1.321	1.303	1.244
555.0	74.64	110.3	153.7	189.2	229.3	258.4	313.4	311.4	257.8	280.1	577.0	1676	501.5	197.0	171.6	148.8	134.1	120.9	115.7	107.9	102.9	102.1	102.3	106.0	105.9	106.6	102.8	98.95	98.42	98.76	95.72	92.06	85.06	79.85	73.52	68.37	63.01	57.87	54.02	52.27	47.49	44.63	41.07	39.31	36.70	34.82	32.43	30.20	28.97	27.71	24.71	20.96	18.55	17.02	15.01	12.84	12.02	10.01	8.384	6.921	5.756	4.979	4.597	5.865	15.26	41.92	83.76	248.5	165.1	12.66	1.402	1.328	1.128	1.176	1.183	1.080	1.114
560.0	67.16	102.3	132.4	164.8	192.5	208.6	253.4	276.3	225.2	217.3	294.3	1247	1023	179.9	142.9	124.5	109.3	100.5	96.34	89.73	85.58	82.24	82.90	86.92	87.70	87.13	84.69	82.16	81.50	81.16	78.99	74.41	69.54	65.57	60.68	56.96	53.14	48.48	45.93	43.78	40.33	38.32	36.08	33.83	31.60	30.06	28.68	25.36	24.33	23.69	22.58	19.04	16.50	14.94	12.98	11.33	10.19	8.734	7.556	6.192	4.918	4.360	3.846	4.002	5.644	11.49	20.92	102.9	255.1	114.8	5.998	1.353	1.076	1.039	0.916	0.940	0.933
565.0	64.78	93.76	123.7	138.2	154.9	183.1	199.1	252.8	201.2	187.0	205.4	598.0	1487	261.5	120.9	104.0	92.25	85.73	80.43	74.48	71.44	68.96	69.94	71.55	72.92	72.15	69.63	68.09	68.10	68.11	65.64	62.33	59.07	55.34	51.09	47.78	44.84	41.41	39.75	36.70	34.30	33.08	30.94	29.20	27.43	25.35	24.57	23.00	21.11	19.73	19.47	17.25	14.44	13.06	11.53	10.09	9.150	7.970	6.880	5.661	4.624	4.196	3.529	3.265	3.221	4.248	6.210	25.57	122.1	229.2	33.10	2.963	1.078	1.007	0.903	0.832	0.876
570.0	62.11	80.80	99.50	117.3	131.9	146.6	157.3	197.4	189.1	155.4	158.3	253.9	1084	821.3	113.6	82.26	74.08	67.35	64.26	58.76	56.59	54.95	56.06	56.93	57.52	57.52	55.53	53.57	53.72	53.37	51.97	49.93	46.46	43.96	40.78	38.04	35.59	33.36	32.23	29.59	28.10	26.68	25.13	23.40	22.39	20.90	19.79	18.80	17.51	16.19	15.36	14.34	12.41	11.19	9.680	8.618	7.717	6.827	5.929	5.257	4.572	3.828	3.179	2.903	2.564	2.554	2.929	7.165	29.96	96.28	147.0	86.29	10.58	0.920	0.865	0.727	0.783
575.0	49.03	75.07	85.06	97.53	108.8	114.3	125.2	141.6	174.2	136.8	131.6	149.3	387.7	1232	294.0	64.65	57.82	51.21	49.92	45.40	45.24	43.79	43.28	44.89	45.41	44.98	41.76	42.01	41.82	41.54	41.27	39.89	36.50	34.58	31.69	29.69	27.99	26.22	24.93	23.43	21.90	20.32	19.95	19.19	17.74	17.03	15.96	15.37	13.85	12.92	11.87	11.65	10.37	9.754	8.141	7.632	6.369	5.943	4.670	4.193	3.836	3.644	2.906	2.550	2.303	2.063	2.219	2.935	8.054	22.82	45.17	135.8	112.5	11.81	0.849	0.660	0.679
580.0	51.37	73.75	80.70	83.86	92.09	98.22	103.6	114.9	149.5	136.5	116.6	122.0	163.3	898.9	773.2	63.26	47.74	42.54	41.84	36.93	37.09	36.17	36.20	37.29	36.18	37.31	34.45	35.30	34.86	34.62	33.40	32.95	30.14	28.30	26.29	25.14	22.83	21.74	20.77	19.32	18.34	17.78	16.65	15.51	15.12	14.01	13.35	13.01	11.45	10.92	10.20	9.513	9.059	8.698	7.291	6.556	5.720	5.054	4.104	3.663	3.277	3.288	2.645	2.445	2.069	1.982	1.922	2.013	2.955	6.261	11.35	49.82	145.7	83.95	5.602	0.672	0.557
585.0	48.77	66.36	77.56	76.47	82.80	88.69	90.81	95.22	120.8	138.9	107.8	104.2	105.7	395.3	1212	99.76	40.39	35.93	34.77	32.04	31.07	30.04	29.89	31.59	30.95	30.88	30.28	29.38	28.35	29.47	27.72	27.18	25.78	23.83	22.00	21.00	19.21	18.43	17.23	16.22	15.49	14.35	14.19	13.35	12.78	12.40	11.61	10.79	10.05	9.533	8.625	7.868	7.634	7.626	6.713	5.654	5.075	4.594	3.841	3.132	2.891	2.871	2.657	2.493	2.044	1.928	1.904	1.518	1.722	2.431	3.431	12.23	60.74	137.1	33.20	2.605	0.612
590.0	48.52	57.07	71.56	73.10	71.99	75.70	76.44	80.76	93.39	134.8	111.5	95.61	86.36	143.1	859.9	464.5	42.12	29.34	27.72	25.46	24.82	23.63	23.67	25.02	24.60	24.85	24.54	22.83	23.09	23.35	22.57	22.12	20.69	19.04	17.60	16.44	15.66	14.90	13.84	13.41	12.80	11.95	11.40	10.85	10.72	10.18	9.724	8.739	8.260	7.607	7.152	6.587	6.118	6.060	5.922	5.027	4.448	3.867	3.362	2.829	2.488	2.449	2.408	2.316	2.013	1.696	1.533	1.500	1.370	1.556	1.577	3.516	14.61	51.64	88.55	61.10	10.06
595.0	47.70	56.74	63.61	64.28	65.30	63.30	63.58	70.07	78.62	106.9	119.0	88.88	75.11	73.78	272.6	753.8	94.63	24.45	21.32	20.85	19.09	19.02	18.69	19.51	18.94	19.48	19.00	18.47	18.65	17.59	17.90	16.62	16.24	14.83	13.88	13.23	12.52	11.87	11.32	10.52	10.18	9.323	9.466	8.818	8.197	8.196	7.591	7.059	6.648	6.113	5.655	5.363	4.986	4.640	4.918	4.281	3.909	3.209	2.790	2.415	2.310	2.011	1.940	1.714	1.867	1.563	1.270	1.290	1.285	1.214	1.129	1.533	3.802	12.08	24.55	75.70	78.51
600.0	46.50	47.56	68.35	59.56	55.83	57.16	59.08	63.67	70.43	85.99	119.9	90.65	71.21	58.44	93.96	561.0	362.9	24.48	18.58	16.88	15.74	16.36	15.84	16.45	15.67	15.74	15.57	15.20	15.26	14.93	14.67	14.07	13.37	11.93	11.37	11.15	10.41	9.821	9.417	8.768	8.431	7.734	8.043	7.273	6.930	7.051	6.332	5.927	5.288	5.138	4.666	4.466	4.233	3.640	3.681	3.643	3.484	2.905	2.576	2.061	2.056	1.634	1.592	1.530	1.541	1.509	1.353	1.244	1.156	1.062	1.033	1.046	1.519	3.351	6.015	25.03	85.52
605.0	44.36	52.58	63.18	58.07	48.11	55.68	56.01	60.31	67.60	76.65	112.7	98.02	72.18	55.22	52.45	245.7	603.6	53.91	15.62	14.43	13.67	14.19	13.80	13.86	13.49	13.19	13.19	12.73	13.11	12.71	12.69	11.78	11.68	10.03	10.07	9.398	8.771	8.227	8.149	7.376	6.872	6.814	6.372	6.165	5.935	5.771	5.288	5.082	4.734	4.341	3.991	3.697	3.603	3.317	2.911	3.187	3.092	2.633	2.265	1.834	1.803	1.669	1.348	1.539	1.361	1.461	1.456	1.228	1.165	0.955	0.888	1.003	0.963	1.312	1.850	6.130	31.76
610.0	46.67	50.92	56.45	55.05	49.62	50.54	54.67	61.72	69.36	82.01	108.4	120.8	85.77	62.71	49.66	85.90	452.9	293.6	18.33	11.99	11.18	11.07	10.75	11.04	10.82	10.70	10.25	10.28	10.13	10.21	9.880	9.454	9.074	8.002	7.867	7.182	6.791	6.636	6.367	5.872	5.635	5.369	5.009	5.202	4.776	4.445	4.364	4.091	3.884	3.546	3.150	3.228	2.921	2.798	2.507	2.590	2.513	2.492	2.101	1.732	1.534	1.440	1.301	1.381	1.271	1.272	1.357	1.297	1.089	0.953	0.838	0.880	0.766	0.841	0.921	1.873	7.673
615.0	41.32	43.76	50.85	49.03	41.83	45.81	54.42	59.64	67.96	82.36	98.46	125.0	95.99	64.23	49.54	46.37	155.3	493.9	64.32	9.543	8.927	8.861	8.529	8.091	8.790	8.438	8.045	8.208	8.015	8.205	7.529	7.290	7.043	6.456	6.255	5.878	5.443	5.159	4.994	4.763	4.495	4.267	3.998	3.912	3.811	3.571	3.367	3.372	3.001	2.710	2.632	2.613	2.210	2.180	1.916	1.841	1.874	1.983	1.933	1.509	1.413	1.320	1.225	1.081	1.109	1.023	1.193	1.228	1.311	1.010	0.896	0.770	0.776	0.841	0.632	0.926	2.103
620.0	40.97	48.00	46.79	45.74	42.49	45.23	50.45	55.87	61.82	78.62	89.72	110.3	101.0	63.55	47.90	34.96	58.84	380.9	238.1	9.783	7.836	7.251	7.476	6.942	7.046	7.222	7.025	6.586	6.462	7.099	6.149	6.049	5.781	5.251	4.856	4.556	4.351	4.082	4.147	3.874	3.860	3.657	3.339	3.222	3.081	2.895	2.850	2.816	2.509	2.407	2.244	2.133	2.095	1.753	1.647	1.519	1.597	1.581	1.740	1.422	1.197	1.134	1.059	1.029	0.987	0.938	0.998	1.068	1.124	1.048	0.828	0.654	0.772	0.669	0.564	0.728	0.867
625.0	39.69	50.33	57.33	46.96	40.06	43.32	44.84	51.79	58.99	71.56	83.40	98.46	104.9	69.41	49.19	33.09	34.60	174.2	407.7	26.75	7.033	6.613	5.953	6.081	6.065	5.966	6.307	5.717	5.539	5.587	5.134	5.139	4.892	4.590	3.955	3.677	3.702	3.597	3.362	3.218	3.123	2.998	2.678	2.946	2.695	2.488	2.437	2.397	2.341	2.075	1.838	1.935	1.699	1.486	1.566	1.477	1.322	1.370	1.330	1.393	1.234	1.058	1.063	1.096	0.930	0.905	0.933	0.835	1.000	1.037	0.829	0.615	0.689	0.694	0.582	0.612	0.540
630.0	37.91	45.71	50.56	45.82	38.15	40.27	43.87	50.58	56.91	70.17	80.74	87.09	100.4	76.32	49.53	33.69	29.40	56.05	328.2	164.5	8.282	5.460	5.034	4.913	5.048	4.867	4.715	4.602	4.414	4.487	4.513	4.205	3.877	3.751	3.161	3.195	3.025	2.849	2.738	2.555	2.460	2.252	2.107	2.334	2.144	1.991	2.024	1.883	1.776	1.649	1.551	1.479	1.431	1.232	1.322	1.239	1.163	1.098	1.138	1.157	1.084	1.047	0.994	0.937	0.810	0.777	0.845	0.857	0.821	0.932	0.878	0.788	0.667	0.655	0.611	0.502	0.451
635.0	42.21	48.97	53.67	46.32	36.42	37.70	40.90	49.98	56.32	67.94	78.33	85.45	89.29	85.65	52.36	33.93	28.89	25.73	109.8	346.8	41.60	4.602	4.123	4.154	4.219	3.990	3.815	3.746	3.570	3.506	3.404	3.365	2.905	2.818	2.354	2.480	2.394	2.084	2.204	2.015	1.999	1.820	1.776	1.871	1.640	1.656	1.577	1.580	1.473	1.395	1.182	1.212	1.008	1.107	1.027	0.990	0.926	0.966	0.866	0.983	0.945	0.962	0.955	0.789	0.771	0.722	0.813	0.759	0.859	0.826	0.869	0.842	0.718	0.680	0.542	0.499	0.398
640.0	41.77	49.77	57.55	44.12	36.69	39.79	41.77	48.42	58.80	67.26	79.25	86.64	86.99	89.34	59.23	37.63	30.49	19.98	34.73	296.5	152.7	5.305	3.588	3.804	3.698	3.394	3.150	3.048	3.119	3.012	2.981	2.580	2.430	2.243	2.288	1.960	1.872	1.724	1.850	1.757	1.627	1.623	1.442	1.484	1.314	1.332	1.331	1.279	1.176	1.059	1.086	1.065	0.890	0.887	0.904	0.841	0.962	0.909	0.702	0.771	0.851	0.892	0.847	0.608	0.746	0.745	0.752	0.760	0.831	0.745	0.814	0.817	0.792	0.596	0.573	0.540	0.496
645.0	44.65	63.03	68.42	48.13	39.12	38.67	43.27	49.37	55.30	64.36	79.95	87.10	88.15	89.46	67.38	42.02	31.86	18.91	16.02	145.7	286.7	14.38	3.357	3.285	3.009	3.070	2.762	2.768	2.604	2.772	2.216	2.381	2.120	1.939	2.032	1.826	1.846	1.669	1.494	1.507	1.419	1.327	1.167	1.238	1.104	1.161	1.103	1.209	1.020	1.027	0.920	0.859	0.843	0.787	0.782	0.809	0.841	0.799	0.689	0.784	0.729	0.851	0.775	0.726	0.650	0.656	0.706	0.822	0.681	0.703	0.785	0.764	0.790	0.656	0.619	0.535	0.577
650.0	57.56	81.14	95.28	59.24	43.05	37.08	41.79	48.05	56.07	68.21	81.33	89.07	88.47	85.33	76.11	45.36	33.15	20.26	13.46	49.55	305.7	56.70	3.554	3.065	2.833	2.687	2.418	2.286	2.330	2.461	2.136	1.965	1.895	1.787	1.565	1.653	1.365	1.330	1.344	1.281	1.255	1.132	1.022	1.234	0.932	1.020	0.983	1.047	1.052	0.915	0.795	0.720	0.690	0.715	0.760	0.729	0.759	0.737	0.613	0.639	0.688	0.685	0.807	0.775	0.737	0.701	0.736	0.747	0.774	0.744	0.698	0.700	0.873	0.691	0.719	0.522	0.518
