Sample:	'1
File name:	Default_20230428_130608.FD3
Run date:	'12:59:47, 04/28/2023
Operator:	user
Comment:	'

Instrument
Model:	F-2700 FL Spectrophotometer
Serial number:	2190-003
ROM Version:	4J14000 07

Instrument parameters
Measurement type:	3-D scan
Data mode:	Fluorescence
EX  Start WL:	220.0 nm
EX  End WL:	600.0 nm
EX Sampling interval:	5.0 nm
EM  Start WL:	230.0 nm
EM  End WL:	650.0 nm
EM Sampling interval:	5.0 nm
Scan speed:	12000 nm/min
EX Slit:	5.0 nm
EM Slit:	5.0 nm
PMT Voltage:	700 V
Response:	Auto 
Corrected spectra:	Off
Contour interval:	50.000

Peak integration
Integration method:	Rectangular
Sensitivity:	1
Threshold:	1.000

Peaks
No.	ApexEX/EM(nm)	Height(Data)
1	225.0/570.0	55.62
2	225.0/580.0	57.72
3	225.0/615.0	49.52
4	230.0/330.0	236.1
5	230.0/345.0	231.2
6	230.0/540.0	54.87
7	230.0/635.0	50.30
8	235.0/275.0	43.05
9	235.0/355.0	228.8
10	235.0/370.0	227.3
11	235.0/400.0	254.8
12	235.0/505.0	129.2
13	235.0/575.0	44.03
14	235.0/585.0	48.45
15	240.0/375.0	227.9
16	240.0/520.0	125.3
17	245.0/265.0	216.1
18	245.0/465.0	227.5
19	245.0/530.0	118.5
20	245.0/580.0	32.16
21	245.0/590.0	26.97
22	245.0/625.0	28.52
23	250.0/545.0	114.6
24	250.0/605.0	28.53
25	250.0/630.0	26.99
26	255.0/280.0	344.1
27	255.0/555.0	102.5
28	255.0/595.0	27.94
29	260.0/285.0	452.9
30	260.0/565.0	100.0
31	260.0/610.0	27.96
32	260.0/640.0	22.83
33	265.0/290.0	482.2
34	265.0/435.0	349.0
35	265.0/445.0	336.3
36	265.0/575.0	91.80
37	270.0/235.0	15.73
38	270.0/295.0	661.7
39	270.0/410.0	355.0
40	270.0/425.0	346.5
41	270.0/590.0	84.47
42	270.0/625.0	35.43
43	275.0/240.0	12.73
44	275.0/305.0	795.3
45	275.0/420.0	354.5
46	275.0/435.0	353.3
47	275.0/605.0	86.67
48	280.0/310.0	826.7
49	280.0/335.0	529.6
50	280.0/400.0	377.8
51	280.0/615.0	72.57
52	285.0/315.0	823.7
53	285.0/390.0	382.4
54	285.0/630.0	58.65
55	290.0/320.0	778.0
56	290.0/385.0	383.8
57	290.0/640.0	52.76
58	300.0/335.0	445.7
59	305.0/340.0	463.1
60	310.0/345.0	417.9
61	310.0/410.0	308.0
62	315.0/350.0	339.3
63	320.0/360.0	351.5
64	325.0/365.0	353.3
65	330.0/370.0	307.9
66	335.0/380.0	316.6
67	340.0/385.0	325.9
68	345.0/390.0	280.1
69	350.0/395.0	279.0
70	355.0/405.0	268.1
71	360.0/410.0	246.1
72	365.0/415.0	236.7
73	370.0/425.0	221.8
74	380.0/435.0	171.0
75	385.0/445.0	157.9
76	400.0/465.0	101.9
77	405.0/470.0	83.96
78	415.0/485.0	59.52
79	420.0/490.0	52.01
80	425.0/495.0	44.58
81	430.0/505.0	40.61
82	435.0/510.0	32.28
83	440.0/515.0	27.47
84	445.0/525.0	23.97
85	475.0/565.0	6.743
86	520.0/285.0	3.431
87	525.0/290.0	3.056
88	535.0/295.0	3.695
89	535.0/360.0	3.085
90	535.0/425.0	2.983
91	545.0/300.0	3.970
92	550.0/305.0	4.182
93	560.0/310.0	3.660
94	565.0/315.0	4.294
95	575.0/320.0	3.887
96	580.0/325.0	3.502

Data points
	220.0	225.0	230.0	235.0	240.0	245.0	250.0	255.0	260.0	265.0	270.0	275.0	280.0	285.0	290.0	295.0	300.0	305.0	310.0	315.0	320.0	325.0	330.0	335.0	340.0	345.0	350.0	355.0	360.0	365.0	370.0	375.0	380.0	385.0	390.0	395.0	400.0	405.0	410.0	415.0	420.0	425.0	430.0	435.0	440.0	445.0	450.0	455.0	460.0	465.0	470.0	475.0	480.0	485.0	490.0	495.0	500.0	505.0	510.0	515.0	520.0	525.0	530.0	535.0	540.0	545.0	550.0	555.0	560.0	565.0	570.0	575.0	580.0	585.0	590.0	595.0	600.0
230.0	44.08	175.3	 1538	 1258	116.5	22.51	18.53	15.78	14.44	13.10	13.53	10.95	9.444	9.094	6.641	7.006	5.062	5.362	3.968	3.847	3.854	3.223	3.145	2.859	2.948	2.608	2.354	2.343	2.478	2.340	2.194	2.105	2.057	1.850	1.824	1.969	1.919	1.777	1.757	1.708	1.820	1.557	1.526	1.532	1.494	1.236	1.504	3.026	6.097	5.539	2.753	1.221	1.074	1.229	1.033	1.307	1.058	1.165	1.320	0.886	1.046	1.036	1.035	0.976	1.047	0.982	0.989	0.915	1.035	1.033	1.023	1.001	0.914	0.911	0.974	1.011	1.007
235.0	50.47	68.68	573.7	 1809	 1475	154.8	17.37	13.17	15.48	12.96	15.73	10.85	10.49	7.695	6.841	5.415	5.640	4.616	4.143	4.254	3.525	2.981	3.598	2.499	2.720	2.488	2.347	2.536	2.422	2.445	2.699	2.198	1.986	2.471	2.195	1.665	2.244	1.620	1.622	1.681	2.100	1.573	1.434	1.439	1.810	1.521	1.383	1.645	2.769	4.230	6.566	7.468	4.255	1.475	1.079	0.997	1.140	1.135	1.089	0.749	1.275	0.992	0.880	1.079	1.161	1.010	1.041	1.012	0.811	1.049	0.937	0.940	1.019	0.976	1.043	0.742	1.039
240.0	51.93	72.56	154.9	870.6	 2675	 1309	99.60	22.39	14.73	11.79	10.86	12.73	9.583	6.823	7.007	6.793	6.169	4.128	4.790	4.297	3.375	4.032	3.970	2.557	2.996	2.380	2.935	2.520	2.573	2.501	2.347	2.183	2.403	2.209	1.934	1.921	2.116	2.351	1.893	1.683	1.577	1.739	1.407	1.569	1.995	1.313	1.261	1.748	1.580	1.899	3.740	8.547	10.81	8.208	2.889	1.219	0.994	1.032	1.009	0.855	0.829	0.947	1.085	0.912	1.014	1.237	0.865	0.904	0.942	0.935	1.150	0.892	1.121	1.084	0.928	0.946	1.065
245.0	50.25	87.92	83.44	242.9	 1594	 3287	 1149	52.04	18.21	13.19	12.50	11.26	9.724	6.970	7.066	7.778	5.706	4.460	4.851	4.648	3.815	3.605	3.838	2.902	2.370	2.765	2.951	1.841	2.280	2.049	1.996	1.714	1.931	2.394	1.547	1.770	1.726	1.994	2.023	1.815	1.662	1.504	1.497	1.928	1.750	1.183	1.389	1.756	1.237	1.240	1.836	3.243	7.369	13.38	12.89	12.77	2.229	0.844	1.283	1.035	0.877	1.025	0.977	0.762	0.901	0.924	1.009	1.096	1.128	1.297	0.958	0.885	0.939	0.863	0.699	0.798	0.831
250.0	42.37	56.99	92.24	130.7	424.7	 1734	 3547	 2585	363.0	17.43	14.37	13.37	10.47	9.124	7.074	6.697	6.597	5.187	3.900	4.810	3.558	3.878	3.226	2.810	2.830	2.940	2.824	2.509	2.537	2.671	2.313	2.112	2.011	2.553	1.884	1.688	1.828	1.864	1.794	1.740	1.613	1.538	1.326	1.617	1.510	1.464	1.410	1.648	1.618	1.255	1.539	1.568	2.822	4.964	8.267	23.72	15.83	13.47	6.802	2.112	1.315	1.133	0.911	1.022	0.849	1.051	1.024	0.887	0.863	1.006	1.066	0.996	1.158	0.961	0.999	0.929	1.009
255.0	45.98	42.79	61.93	144.4	194.2	412.5	 1305	 5082	 4632	473.3	20.24	17.60	12.12	9.997	8.152	6.769	6.452	5.094	4.286	4.363	3.646	3.160	3.165	3.172	2.322	2.779	2.814	2.973	2.681	2.151	2.604	2.235	2.115	2.216	1.411	1.542	1.838	1.512	1.379	1.833	1.445	1.895	1.822	1.565	1.557	1.476	1.405	1.522	1.401	1.007	1.487	1.724	1.471	2.046	2.792	6.609	6.831	13.85	25.63	22.82	10.01	2.094	1.102	1.222	0.883	0.868	1.097	0.793	0.829	0.848	0.994	0.767	1.232	1.376	1.226	1.009	0.907
260.0	44.15	47.27	40.39	96.08	209.1	168.6	325.9	 2278	 7089	 4490	277.5	22.12	16.15	10.60	9.591	7.070	6.371	5.816	3.951	4.318	3.881	3.350	3.122	3.409	2.997	2.568	2.518	2.433	2.610	2.170	2.380	2.156	2.219	1.958	1.870	1.720	1.834	1.445	1.814	1.849	1.561	1.533	1.655	1.106	1.516	1.244	1.705	1.344	1.464	1.167	1.305	1.804	1.925	1.878	1.528	2.602	2.336	4.625	12.59	26.14	35.21	23.10	6.066	1.315	0.716	1.150	0.855	0.911	0.827	0.928	0.906	0.853	0.994	0.821	0.901	1.068	1.042
265.0	45.61	40.49	49.35	47.62	149.2	216.1	121.0	582.3	 3600	 9192	 3800	118.5	17.89	15.46	10.62	8.355	8.771	6.703	4.394	5.713	4.786	4.408	3.688	3.114	3.220	2.955	2.816	3.054	2.893	2.608	2.554	2.112	2.273	1.853	1.462	1.414	1.472	1.421	1.668	1.557	1.488	1.692	1.516	1.325	2.026	1.236	1.655	1.245	1.250	1.111	1.097	1.588	1.557	2.544	2.049	1.853	1.603	1.977	3.858	8.634	21.37	36.95	36.10	16.90	2.461	0.941	0.881	0.911	1.121	1.015	0.934	0.789	0.742	0.913	0.829	1.135	0.966
270.0	44.86	41.89	36.53	36.31	65.22	169.7	233.5	208.0	891.0	 4033	 7921	 4174	374.2	19.34	12.41	10.84	7.463	7.102	5.500	4.972	4.687	3.776	3.737	3.192	3.252	2.985	2.881	2.678	3.091	2.613	2.339	2.043	2.518	1.670	2.198	1.727	1.728	1.599	1.473	1.527	1.445	1.497	1.607	1.523	1.954	1.327	1.465	1.608	1.209	1.143	1.207	1.343	1.291	1.522	1.895	2.121	2.115	1.473	1.872	2.620	5.937	11.59	21.08	31.53	34.43	26.52	12.31	2.215	1.125	0.977	1.036	1.054	0.786	1.070	0.823	1.080	0.958
275.0	45.41	49.80	38.97	43.05	38.26	63.45	197.5	337.4	272.7	936.5	 2560	 9857	 6486	471.3	15.21	12.88	9.584	7.629	6.428	5.734	4.342	4.556	4.347	3.599	2.909	3.355	2.652	2.722	3.239	2.782	2.398	2.527	2.183	1.934	2.084	1.700	1.707	1.429	1.691	1.535	1.220	1.516	1.821	1.792	1.623	1.587	1.546	1.485	1.197	1.155	1.109	1.312	1.142	1.426	1.558	1.315	2.411	2.623	2.347	2.037	2.382	3.515	5.952	7.912	13.52	30.57	51.27	40.22	12.23	1.547	1.316	0.827	1.026	1.051	0.964	1.123	1.134
280.0	56.61	50.98	66.11	36.03	35.06	36.22	87.01	344.1	325.1	264.5	630.2	 3752	9999.9	 5332	285.3	17.67	11.26	9.425	7.480	6.773	4.065	4.981	4.062	3.299	2.852	3.840	2.922	2.424	3.289	2.798	2.668	2.543	2.388	2.554	1.958	1.827	1.539	1.520	1.849	1.661	1.439	1.223	1.623	1.392	1.576	1.882	1.449	1.184	1.328	1.260	1.307	1.298	1.045	1.297	1.217	1.267	1.584	1.747	2.714	2.199	1.889	1.755	2.355	2.709	3.939	8.904	23.89	48.46	57.85	29.46	6.276	1.283	1.114	1.179	1.041	1.044	1.078
285.0	62.27	65.99	71.16	44.05	38.91	32.37	50.23	170.7	452.9	251.2	203.4	945.3	 5170	9999.9	 3954	121.8	15.60	10.06	9.182	6.732	5.038	4.744	3.794	3.686	3.079	4.439	3.198	2.993	2.756	2.846	2.168	2.950	2.932	2.183	1.808	1.753	2.242	1.391	1.855	1.860	1.595	1.012	1.289	1.620	1.526	1.620	1.725	1.256	1.199	1.356	1.236	1.150	1.368	1.035	1.102	1.078	1.380	1.369	2.004	2.709	3.431	2.201	1.646	1.375	1.907	2.913	6.431	15.84	38.44	58.16	47.75	17.41	2.691	1.093	1.013	1.014	1.208
290.0	72.04	80.63	80.61	62.53	47.39	38.17	48.73	81.84	235.9	482.2	317.7	326.7	 1339	 4880	9999.9	 7752	241.1	15.47	10.43	8.051	5.721	5.569	5.018	4.137	4.026	4.116	3.032	3.043	2.492	2.828	2.461	2.898	2.567	2.519	2.386	1.912	1.915	1.795	1.624	1.719	1.677	1.498	1.427	1.582	1.673	1.540	1.603	1.608	1.283	1.429	1.278	1.423	1.237	1.313	1.112	1.300	1.501	1.346	1.577	1.772	2.450	3.056	2.783	2.360	1.662	1.802	2.527	4.726	10.28	18.94	32.23	42.94	42.80	30.44	11.71	2.610	1.004
295.0	87.75	101.1	93.60	82.31	59.90	53.87	57.76	71.30	117.9	275.7	661.7	414.0	487.7	 1234	 3016	9999.9	9999.9	305.4	15.35	10.58	8.213	6.435	5.165	4.670	3.951	3.451	3.269	2.946	3.137	3.037	2.880	3.046	2.015	2.313	2.295	2.463	1.951	1.811	2.002	1.652	1.539	1.653	1.238	1.672	1.163	1.614	1.415	1.609	1.564	1.711	1.331	1.278	1.176	1.613	1.501	1.328	1.257	1.170	1.556	1.649	1.695	1.891	2.049	3.695	2.970	2.518	2.103	2.397	3.641	5.549	8.230	11.05	17.91	40.08	60.51	44.85	13.71
300.0	84.42	107.7	129.9	106.4	75.54	57.62	70.98	77.98	112.7	182.9	534.4	743.8	419.3	451.9	812.5	 3867	9999.9	 3273	199.7	12.90	9.933	6.637	5.316	5.119	4.354	4.701	3.757	3.329	3.021	2.076	2.778	2.274	2.609	2.336	2.060	2.387	1.741	2.039	1.890	1.876	1.638	1.483	1.611	1.886	1.209	1.660	1.450	1.513	1.526	1.575	1.305	1.526	0.882	1.408	1.512	1.212	1.428	1.361	1.471	1.866	1.578	1.715	1.568	2.531	3.152	3.970	2.824	2.009	2.102	2.716	3.064	3.478	5.240	12.11	31.03	61.93	66.23
305.0	83.80	133.1	126.1	116.8	85.61	69.38	69.53	94.43	123.1	173.9	351.3	795.3	702.9	347.8	335.9	982.3	 5259	9999.9	 2709	107.0	11.74	9.087	6.008	6.065	5.085	5.261	4.063	3.559	3.646	2.861	3.083	2.398	2.320	2.420	2.758	2.175	2.247	2.188	1.750	1.840	1.412	1.594	1.531	1.386	1.355	1.259	1.523	1.497	1.430	1.243	1.289	1.607	1.335	1.352	1.729	1.530	1.167	1.347	1.620	1.644	1.784	1.709	1.775	1.854	2.228	3.659	4.182	3.213	2.249	2.095	2.091	2.068	2.222	3.715	8.266	21.57	46.48
310.0	95.59	131.9	141.9	132.7	91.66	82.36	81.33	109.8	135.2	202.3	323.8	513.5	826.7	639.4	305.4	340.7	 1290	 5071	9999.9	 6890	171.8	14.48	8.695	6.497	5.870	4.743	4.365	4.532	3.494	3.313	2.694	2.598	2.621	3.005	2.588	2.194	2.296	2.011	2.004	2.020	1.616	1.625	1.695	1.536	1.749	1.655	1.492	1.609	1.519	1.354	1.300	1.656	1.451	1.497	1.318	1.412	1.327	1.581	1.647	1.792	1.815	1.638	2.126	1.805	1.813	2.585	3.249	3.489	3.660	3.281	2.365	1.915	1.725	1.837	2.817	5.776	11.98
315.0	112.1	142.2	190.4	140.8	107.4	101.6	95.50	125.5	165.6	224.3	343.8	426.6	584.5	823.7	571.6	240.2	367.0	 1181	 3021	9999.9	 9515	232.0	12.61	8.919	6.946	5.377	4.763	4.503	3.864	4.079	3.171	3.286	2.971	3.085	2.549	1.970	2.301	2.077	2.059	2.041	1.664	1.722	2.308	1.680	2.040	1.891	1.631	1.771	2.206	1.299	1.536	1.596	1.552	1.574	1.252	1.726	1.683	1.296	1.927	1.688	2.009	1.764	2.090	2.125	2.164	2.221	2.239	2.329	3.043	4.294	4.133	3.012	1.787	1.404	1.818	2.123	3.738
320.0	102.8	147.4	215.0	156.8	123.0	106.3	110.3	131.4	186.3	235.0	378.3	411.4	513.8	642.3	778.0	359.0	180.4	324.8	722.9	 3959	9999.9	 6868	161.5	11.27	9.094	6.507	5.068	3.927	3.657	4.338	3.315	2.841	3.157	3.239	2.572	1.827	2.627	2.158	2.208	1.547	1.790	1.489	2.270	1.627	1.821	1.610	1.853	1.819	1.793	1.133	1.490	1.861	1.607	1.742	1.485	1.367	1.547	1.598	1.727	1.973	1.817	1.869	2.373	2.117	2.420	2.244	2.453	2.569	2.460	3.152	3.200	3.887	3.063	1.819	1.686	1.548	1.969
325.0	98.78	154.1	215.7	176.1	124.2	118.5	131.4	146.8	190.1	251.2	398.2	435.7	500.8	522.1	662.6	588.3	199.5	140.4	210.6	954.5	 5339	9999.9	 2047	89.52	11.05	7.535	5.415	4.840	4.511	4.056	3.358	3.298	2.809	3.404	2.639	2.259	2.056	2.366	2.106	1.756	1.910	1.424	2.515	1.581	1.316	1.996	1.390	1.932	2.033	1.456	1.540	1.855	1.501	1.890	1.429	1.475	1.727	1.721	2.139	1.758	1.726	2.220	2.190	2.246	2.374	2.399	2.055	2.527	2.626	2.517	2.577	3.209	3.502	3.145	2.473	2.025	1.566
330.0	114.8	165.1	236.1	206.2	142.7	126.2	124.1	160.9	198.6	270.5	395.3	455.7	521.1	494.7	474.9	544.1	434.4	170.9	107.6	258.1	 1284	 4914	9999.9	 5973	136.4	13.53	7.441	6.588	4.717	4.953	4.025	3.486	3.081	3.234	2.727	2.615	1.968	2.533	1.758	2.086	1.538	1.870	2.163	1.467	1.966	2.046	1.540	1.905	1.924	1.561	1.601	1.775	1.698	1.662	1.739	1.843	1.789	1.749	2.210	1.983	1.714	2.049	2.167	2.531	2.437	2.373	2.290	2.484	2.705	2.388	2.494	2.203	2.539	2.731	2.829	2.589	2.223
335.0	117.2	201.8	223.4	220.3	152.4	134.3	137.5	167.5	208.9	269.1	404.9	469.6	529.6	491.0	439.3	372.6	445.7	404.1	141.7	113.6	331.9	 1131	 3076	9999.9	 8514	189.2	11.96	7.572	7.035	5.442	4.097	3.454	3.591	3.765	3.066	2.890	2.690	2.212	2.074	1.967	1.769	2.233	2.099	1.630	2.073	2.027	1.924	1.865	2.116	1.456	1.509	1.451	1.222	1.852	1.843	1.959	1.803	1.845	1.889	2.064	1.880	2.005	2.123	2.497	2.022	2.695	2.689	2.650	2.180	2.714	2.725	2.096	2.376	2.283	2.024	2.791	3.280
340.0	116.9	193.8	215.8	219.7	156.1	159.2	149.5	173.1	227.3	289.4	395.2	457.8	506.7	495.8	430.5	337.8	307.3	463.1	273.9	107.2	129.2	295.1	728.9	 4065	9999.9	 6460	134.0	9.377	8.268	5.891	4.282	3.968	3.452	4.067	2.899	2.916	2.768	2.648	2.339	2.520	1.749	1.990	2.037	1.910	1.735	1.853	1.874	1.962	2.130	1.619	1.684	2.221	1.204	1.842	1.622	1.951	1.836	2.031	1.876	2.242	2.074	2.151	2.338	2.627	2.692	2.862	2.336	2.678	2.661	2.621	2.375	2.427	2.082	1.964	1.949	1.708	2.567
345.0	123.1	159.3	231.2	206.8	173.6	152.6	167.2	165.2	212.8	295.8	388.0	446.8	487.3	484.2	415.1	329.5	248.6	340.5	417.9	180.8	99.08	115.9	203.7	978.0	 5526	9999.9	 1671	77.04	9.253	6.894	6.156	4.140	3.841	4.558	2.919	3.182	2.419	2.647	2.130	2.285	2.070	2.181	2.288	1.763	1.868	1.761	1.786	1.948	1.842	1.651	1.601	1.877	1.413	1.783	1.665	1.617	1.638	1.953	1.694	2.208	1.994	2.375	2.363	2.524	2.683	2.471	2.301	2.443	2.247	2.726	2.793	2.371	2.364	1.892	2.163	1.746	2.152
350.0	114.1	157.3	226.8	215.3	196.4	166.9	179.2	194.3	232.7	281.3	384.1	440.9	482.4	461.8	409.1	328.0	248.2	236.8	325.8	339.3	169.4	98.08	99.58	262.1	 1348	 5283	 9466	 5353	116.9	11.34	7.062	5.409	4.370	4.318	2.928	3.134	2.503	2.678	1.893	2.158	2.040	2.164	1.917	1.983	1.964	1.956	1.895	2.045	1.653	1.735	1.513	1.596	1.639	1.588	1.536	1.516	1.606	2.045	2.029	2.219	1.995	2.202	2.639	2.534	2.522	2.322	2.345	2.405	2.458	2.910	2.651	2.297	2.290	1.906	1.933	2.048	2.003
355.0	117.9	174.5	205.6	228.8	186.1	180.3	191.7	213.7	238.4	283.0	367.7	427.2	461.9	432.9	400.6	323.7	256.8	217.7	226.2	293.1	335.2	151.9	95.22	118.8	344.8	 1215	 3156	9999.9	 7536	159.9	10.39	6.962	5.457	4.847	3.387	2.986	2.669	2.440	2.239	1.957	2.021	1.876	2.348	2.218	1.826	1.859	2.195	2.179	1.466	1.701	1.575	2.167	1.824	1.883	1.717	1.668	1.914	1.610	1.736	2.093	1.900	2.097	2.599	2.782	2.664	2.192	2.448	2.815	2.509	2.548	2.716	2.439	2.304	2.037	1.867	2.031	1.779
360.0	90.69	157.8	206.2	215.2	206.1	203.7	199.9	220.3	241.4	287.9	335.6	403.6	438.1	425.5	393.6	332.7	272.3	229.0	215.6	227.9	351.5	271.6	117.6	97.63	131.0	317.4	749.5	 4310	9999.9	 5288	108.5	8.909	6.584	5.420	3.762	3.320	2.971	2.765	2.467	1.839	2.187	2.062	2.019	2.055	2.017	1.722	2.132	1.905	1.870	1.929	1.504	1.903	1.961	2.116	1.750	1.943	1.913	2.011	1.886	1.928	2.007	2.221	2.699	3.085	2.708	2.253	2.265	2.125	2.451	2.301	2.157	1.852	2.023	2.262	2.180	2.068	2.166
365.0	86.46	157.2	190.4	221.7	193.1	204.8	222.7	228.7	238.8	287.0	345.1	389.3	424.0	413.5	381.7	336.8	290.0	250.5	221.5	208.2	275.9	353.3	196.1	107.5	98.45	121.7	207.8	 1049	 5719	9999.9	 1480	55.70	7.879	6.850	4.483	4.049	3.247	3.025	2.767	2.323	2.308	1.960	2.267	2.189	1.957	1.761	2.124	1.843	1.798	1.548	1.502	1.853	2.110	2.180	1.820	1.901	2.179	1.833	1.947	2.106	2.542	1.824	2.788	2.741	2.245	2.132	1.994	2.074	2.510	2.376	2.192	2.223	2.003	2.075	2.201	2.040	2.382
370.0	94.64	155.8	180.0	227.3	215.0	221.5	229.0	240.7	254.2	290.9	358.2	377.7	405.6	399.8	377.7	332.5	299.0	268.4	251.9	228.8	232.9	287.0	307.9	189.9	112.9	97.67	100.0	276.8	 1397	 5389	 9413	 4876	92.29	9.122	5.642	4.550	4.085	2.875	3.311	2.704	2.315	2.514	2.123	1.945	1.904	1.686	1.902	1.766	1.974	1.718	1.665	2.009	2.300	1.723	1.853	2.015	2.060	2.054	1.978	2.303	2.415	2.196	2.546	2.582	2.549	2.383	2.204	2.075	2.387	2.608	2.380	2.114	2.204	2.002	1.954	1.933	2.387
375.0	104.7	125.0	176.6	221.9	227.9	214.6	238.3	262.4	267.3	299.1	353.5	359.6	398.4	382.3	375.9	342.9	311.1	294.7	273.8	255.1	244.1	243.0	276.5	315.1	177.0	114.0	94.38	113.6	351.4	 1234	 3399	9999.9	 6384	121.9	7.841	5.612	4.364	3.464	3.523	2.693	2.530	2.374	2.292	1.697	2.009	1.946	1.742	2.418	1.798	1.639	1.452	2.139	2.236	1.883	2.083	1.999	1.829	2.252	2.035	2.367	2.066	2.418	2.480	2.948	2.572	2.316	2.084	2.049	1.912	2.661	2.122	2.394	2.239	1.959	2.044	2.270	2.333
380.0	111.5	146.2	172.1	231.5	222.6	241.5	257.0	267.7	272.7	303.8	341.4	358.0	388.5	378.8	374.5	352.0	317.6	307.7	294.6	278.5	257.6	236.5	237.6	316.6	265.3	142.6	100.9	86.23	127.5	310.3	805.8	 4841	9999.9	 4810	73.38	7.263	5.336	4.273	3.442	3.203	2.384	2.273	2.286	1.945	2.515	2.004	1.930	2.107	1.875	1.676	1.656	2.041	2.294	2.383	2.084	2.205	2.144	2.233	2.227	2.335	2.048	2.464	2.469	2.050	2.410	2.431	2.492	2.138	1.978	2.748	2.250	2.330	2.354	2.057	2.410	2.247	2.380
385.0	111.4	147.9	187.3	215.7	222.1	247.4	267.4	270.1	283.6	294.7	346.9	349.2	375.5	378.9	383.8	349.8	314.5	315.7	302.6	286.5	275.1	242.6	226.3	256.9	325.9	208.6	115.2	92.04	84.42	112.7	212.3	 1197	 6378	9999.9	 1118	28.49	5.930	5.051	3.813	3.384	2.191	2.519	2.207	2.037	2.159	1.961	2.004	2.213	1.883	1.550	1.597	1.807	2.079	1.966	1.859	2.187	2.185	2.147	2.135	2.462	1.947	2.791	2.369	1.936	2.336	2.461	2.227	2.429	2.483	2.532	2.565	1.999	2.072	2.476	2.313	2.167	2.215
390.0	102.6	142.1	192.5	228.3	248.0	254.6	266.5	282.5	295.0	314.1	346.0	354.8	376.5	382.4	363.5	351.1	321.5	316.4	310.4	291.7	278.1	262.2	240.9	237.1	265.4	280.1	185.3	114.4	90.09	82.54	90.63	299.1	 1594	 6139	 8106	 3317	67.08	6.643	5.232	4.542	3.081	2.537	2.435	2.033	2.305	2.048	1.962	1.819	1.762	1.676	1.682	1.852	2.057	2.044	1.842	2.179	2.493	2.188	2.292	2.327	2.162	2.661	2.097	2.124	2.167	2.238	2.611	2.139	2.167	1.891	2.545	2.176	2.020	2.556	2.076	2.050	2.345
395.0	93.80	132.5	194.2	241.2	232.2	280.5	272.4	292.1	313.8	319.6	358.6	351.9	375.8	376.3	357.7	344.4	328.0	321.1	308.6	291.8	288.0	268.7	252.9	238.9	234.6	250.3	279.0	172.0	115.8	87.00	75.05	108.8	385.8	 1399	 3373	 9346	 4592	84.90	6.642	5.875	3.331	3.378	3.115	2.147	2.168	1.962	2.173	2.161	1.783	2.267	1.880	2.140	1.929	1.999	2.139	2.318	2.245	2.522	2.193	2.457	2.198	2.662	2.237	2.092	2.299	2.251	2.746	2.548	2.439	1.991	2.374	2.018	2.027	2.434	2.173	1.996	2.530
400.0	107.1	154.3	191.4	254.8	227.1	268.4	284.3	298.2	312.5	332.3	347.0	361.4	377.8	367.3	358.7	341.2	322.0	313.0	305.1	296.2	293.4	285.9	260.7	246.5	231.8	217.9	268.4	239.0	148.7	101.2	79.24	73.51	120.4	339.0	804.7	 4853	 9379	 1069	52.14	6.043	4.284	3.991	3.225	2.174	2.009	1.924	2.371	2.379	1.814	2.063	2.219	2.020	1.807	2.282	2.458	2.449	2.393	2.343	2.259	2.250	2.085	2.566	2.528	2.106	2.523	2.197	2.596	2.523	2.291	2.243	2.293	1.989	2.026	2.240	1.979	2.122	2.118
405.0	97.67	139.5	170.8	234.9	249.1	256.1	299.1	305.6	322.0	334.7	346.1	330.8	355.7	359.5	353.8	332.3	321.1	312.8	306.3	303.8	294.6	284.4	265.0	251.7	230.3	212.8	229.2	268.1	197.3	120.3	90.87	71.58	70.27	104.4	203.4	 1231	 5941	 8064	889.6	18.77	4.892	3.816	3.148	2.238	2.471	1.958	2.042	2.150	1.781	1.947	1.929	1.847	1.777	2.063	2.499	2.032	2.182	2.425	2.172	2.493	2.013	2.006	2.197	1.932	2.459	2.082	2.317	2.136	2.420	2.116	2.274	2.269	1.798	2.303	1.984	2.214	1.955
410.0	111.1	134.1	160.3	213.0	241.8	264.7	288.6	295.3	323.3	333.6	355.0	344.9	357.2	349.8	341.5	330.7	316.7	305.1	308.0	303.6	298.0	285.4	268.2	252.8	240.6	220.8	211.3	230.2	246.1	175.3	109.4	83.09	65.68	62.59	73.32	294.8	 1508	 4838	 6543	 2510	54.95	5.186	4.139	3.033	2.875	2.459	2.164	2.063	1.920	1.842	2.131	1.926	2.036	2.113	2.208	2.275	2.479	2.304	2.321	2.424	2.103	2.105	2.225	2.257	2.290	2.141	2.243	1.964	2.007	2.182	2.499	2.386	2.016	2.364	2.178	2.394	2.070
415.0	95.95	128.1	172.2	203.2	236.1	239.6	271.6	310.1	305.0	327.5	345.3	343.9	353.7	340.7	336.5	322.2	306.1	303.6	297.9	289.4	286.1	275.6	268.1	257.1	246.2	225.3	214.0	204.2	214.5	236.7	153.7	98.98	73.21	57.97	51.42	89.38	354.6	 1101	 2887	 7281	 3417	72.20	5.357	3.777	3.421	2.738	2.397	2.142	1.933	1.870	2.074	2.029	2.258	2.170	2.237	2.320	2.410	2.219	2.682	2.315	1.998	2.583	1.865	2.099	2.301	2.048	2.272	1.989	1.911	2.386	2.512	2.229	2.182	1.739	2.253	2.423	2.222
420.0	112.9	140.2	182.0	212.4	254.0	255.9	271.3	312.6	299.4	332.4	344.3	354.5	339.8	338.2	335.0	311.2	302.3	292.2	293.9	283.7	281.6	274.9	266.4	254.8	249.1	231.1	219.0	202.7	186.2	226.6	206.3	116.1	82.51	63.85	50.50	49.56	99.54	261.1	695.6	 3999	 7363	949.9	35.98	4.199	3.493	3.358	2.551	2.236	2.231	2.096	1.992	1.916	2.179	2.290	2.248	2.404	2.496	2.121	2.603	2.199	1.949	2.415	2.236	2.366	2.250	2.539	2.246	1.997	1.854	2.346	2.242	1.975	2.205	2.318	2.068	2.104	1.724
425.0	106.1	117.7	169.4	212.9	244.4	276.6	271.2	302.4	306.1	338.3	346.5	343.6	324.2	327.2	320.3	301.7	277.0	285.3	284.8	285.3	273.5	265.2	260.4	252.3	238.6	227.0	216.8	198.3	183.4	190.9	221.8	155.5	96.92	70.15	52.34	42.81	46.17	76.21	169.5	 1031	 4842	 6182	731.4	11.24	4.113	3.498	2.824	2.477	2.239	2.093	1.888	2.282	2.062	2.129	2.084	2.516	2.392	2.642	2.312	2.207	2.197	2.209	1.821	2.983	2.393	1.964	2.444	2.257	2.422	2.000	2.313	1.775	2.115	2.200	2.154	2.549	2.091
430.0	140.1	116.5	166.6	200.0	238.4	261.6	273.5	290.7	317.4	328.5	337.0	343.5	328.1	326.5	310.9	294.8	273.2	280.4	271.1	266.9	265.3	257.0	250.4	245.9	237.3	224.8	214.9	197.5	186.3	177.5	187.8	183.4	132.2	84.14	60.79	48.82	41.65	39.93	55.63	244.8	 1242	 3750	 5158	 1943	46.83	4.445	3.344	2.964	2.857	1.948	1.874	2.199	2.009	2.500	2.209	2.685	2.164	2.504	2.133	2.245	2.457	2.067	2.552	2.321	2.022	2.064	2.285	2.078	2.307	1.868	2.074	1.953	1.882	2.135	2.101	2.276	2.224
435.0	243.7	130.1	152.1	211.7	227.9	251.1	275.1	303.1	313.4	349.0	332.1	353.3	326.0	317.3	299.6	286.5	265.8	271.9	260.2	254.9	253.7	245.8	243.5	237.5	229.9	226.4	217.4	203.4	189.7	176.7	165.1	164.9	171.0	110.8	70.91	55.53	46.43	35.99	35.14	72.73	290.1	854.2	 2466	 6091	 2789	58.81	4.380	3.765	2.954	2.238	2.093	1.883	1.838	2.503	2.199	2.429	2.331	2.720	2.178	2.407	2.269	2.590	2.348	1.950	2.285	2.327	2.481	2.266	1.969	2.177	1.870	2.256	2.122	1.930	1.777	2.103	1.987
440.0	306.7	215.8	146.3	182.8	213.7	235.4	288.0	289.1	319.9	332.4	334.9	344.6	313.6	296.9	293.3	276.9	257.5	261.5	250.3	256.5	246.2	244.5	238.6	232.5	227.0	221.7	213.0	201.0	191.4	177.2	159.8	149.8	166.5	142.6	87.16	61.34	50.31	39.04	33.50	37.28	80.33	202.6	600.7	 3509	 6426	827.1	30.09	4.609	3.179	2.476	2.320	2.285	2.509	2.509	2.167	2.273	2.248	2.571	2.669	2.519	2.468	2.800	2.350	2.202	2.395	2.308	2.201	2.339	2.118	2.065	2.404	2.010	2.094	2.030	1.984	1.997	1.901
445.0	299.8	386.9	152.5	207.4	215.3	239.2	281.0	297.7	321.9	336.3	333.1	331.7	324.1	303.9	284.7	268.9	261.0	250.1	249.8	240.4	236.4	234.2	227.3	224.4	222.0	217.8	206.8	198.4	192.0	177.5	160.7	142.4	144.4	157.9	111.5	67.96	55.84	44.03	35.86	31.45	36.44	59.19	145.7	919.2	 4458	 5600	606.2	11.57	3.748	2.903	2.527	2.397	2.215	2.502	2.244	2.626	2.445	2.526	2.197	2.077	2.372	2.528	2.176	2.435	2.477	2.141	2.081	2.340	2.028	2.126	2.211	2.120	2.137	1.812	2.049	1.891	2.101
450.0	170.4	561.4	333.8	189.9	217.9	239.9	252.1	284.7	302.3	329.4	326.6	325.0	318.3	293.5	270.7	257.0	243.8	234.6	230.2	228.2	224.9	220.7	214.3	209.7	213.8	206.1	198.1	195.9	189.3	174.2	161.9	143.4	131.0	134.0	132.2	94.42	63.00	47.15	40.07	32.09	29.00	29.14	45.58	215.9	 1159	 3653	 4971	 1836	38.20	3.733	3.225	2.851	2.548	2.582	2.061	2.422	2.789	2.570	2.300	2.282	2.277	2.486	2.220	2.354	2.261	2.228	2.019	2.254	2.254	1.733	2.103	2.061	2.384	1.846	1.868	1.819	1.804
455.0	97.20	425.8	764.1	223.0	185.6	223.7	242.7	274.0	284.3	302.7	319.0	330.2	287.5	281.0	253.9	235.4	224.1	216.2	212.8	207.8	208.4	206.1	199.5	201.2	194.5	190.2	188.0	184.0	183.8	171.6	159.6	142.1	128.5	117.0	117.1	117.2	80.28	55.35	44.32	34.59	28.72	24.55	25.22	59.94	268.0	833.2	 2333	 5754	 2386	42.80	4.075	3.185	2.961	2.732	2.225	2.625	2.959	2.455	2.691	2.256	2.431	2.291	2.501	2.504	2.524	2.445	1.749	2.330	2.292	2.051	1.993	1.952	2.263	2.234	1.930	1.821	1.525
460.0	85.40	207.0	980.8	501.5	184.2	227.2	239.3	254.4	274.2	292.4	320.0	299.7	290.9	266.2	242.9	217.6	217.2	207.5	204.7	199.9	193.5	190.1	186.6	189.3	180.2	185.8	181.3	179.6	173.6	165.7	156.8	141.4	124.9	108.5	104.5	109.9	97.79	62.96	47.70	36.90	30.15	24.52	21.63	26.98	70.48	195.9	566.5	 3334	 5636	603.7	23.94	4.079	2.914	2.690	2.644	2.619	2.932	2.570	2.514	2.534	2.551	2.368	2.395	2.509	2.341	2.629	2.117	2.016	2.098	1.793	1.985	1.918	1.956	2.027	1.824	1.814	1.726
465.0	93.76	126.3	756.2	928.7	200.3	227.5	213.9	238.5	254.0	279.9	289.5	289.4	275.9	262.5	238.6	216.6	204.9	200.3	190.2	186.5	185.4	174.7	174.9	175.2	168.8	176.0	168.0	167.6	165.9	157.6	149.1	140.2	122.2	106.4	93.51	93.85	101.9	75.08	50.43	39.89	31.26	26.40	22.18	19.60	26.90	53.54	135.0	871.5	 4009	 4505	492.7	8.653	3.649	3.102	3.030	2.805	2.861	2.562	2.300	2.490	2.244	2.180	2.067	2.136	2.166	2.142	2.038	2.062	1.875	1.916	1.887	1.860	2.067	1.968	1.866	1.659	1.670
470.0	99.00	111.3	345.3	 1216	577.5	195.6	201.3	229.6	237.4	265.0	274.6	269.2	259.4	244.5	220.7	199.6	183.0	179.8	174.2	169.7	164.4	161.4	157.6	159.1	155.2	158.6	153.8	153.1	149.9	145.9	139.5	127.3	115.5	103.2	89.37	80.85	83.93	83.96	61.20	42.29	32.89	26.64	22.98	18.81	18.30	22.83	39.36	202.4	 1040	 3067	 3684	 1337	34.54	3.733	3.085	2.921	2.759	2.523	2.363	2.062	2.252	2.238	1.921	1.892	2.035	1.902	1.879	1.928	1.973	1.925	1.877	1.642	1.885	1.846	1.936	1.918	1.894
475.0	84.09	89.14	168.4	744.7	 1284	265.0	195.3	216.8	217.3	231.4	259.4	243.0	231.2	215.5	196.9	181.0	164.4	162.7	156.7	156.8	144.8	143.8	143.0	139.9	140.8	138.9	140.3	136.8	140.1	132.9	129.0	121.1	108.7	94.98	81.72	79.89	69.49	72.31	70.55	47.47	34.93	27.51	22.82	19.88	17.57	16.39	17.91	54.15	237.8	698.9	 1774	 3974	708.5	43.79	3.845	3.094	3.014	2.560	2.449	2.340	2.146	2.341	1.893	2.293	2.130	1.986	1.979	1.968	1.877	2.002	1.958	1.424	1.762	1.736	1.582	1.717	1.859
480.0	77.97	108.1	119.2	322.1	 1507	617.4	175.5	193.5	207.0	213.1	232.4	236.0	226.6	197.4	191.0	173.2	154.4	152.3	149.7	140.2	138.2	133.5	129.0	129.7	128.0	127.6	132.3	128.3	127.6	129.4	119.9	111.2	102.1	92.94	80.77	73.93	64.09	63.47	66.92	57.83	37.85	28.50	24.22	19.97	16.81	14.98	13.97	20.44	60.69	162.1	432.0	 2278	 3743	642.6	18.41	3.378	3.285	2.911	2.665	2.449	1.920	1.929	2.040	1.949	2.219	1.813	1.911	1.909	1.542	1.716	1.704	1.755	1.538	1.924	1.592	1.818	1.617
485.0	71.68	121.4	113.0	162.4	 1081	 1238	192.6	189.0	211.1	214.3	223.8	223.9	207.8	195.7	176.4	162.2	149.4	144.3	133.8	129.8	128.1	122.8	120.3	122.9	119.1	120.5	120.7	120.1	117.7	117.7	112.0	106.8	98.10	89.57	80.05	70.27	61.94	57.04	57.27	59.52	46.11	31.99	24.65	20.65	17.37	15.21	13.92	13.39	21.31	42.54	102.6	596.5	 2745	 3442	97.72	7.198	3.439	2.983	2.425	2.509	1.850	1.869	2.293	2.115	2.051	2.150	1.764	1.800	1.951	1.867	1.733	1.665	1.842	1.909	1.624	2.340	1.442
490.0	67.91	95.53	121.9	133.8	424.5	 1569	737.8	168.6	190.2	204.9	206.9	208.3	202.1	187.1	169.7	150.6	135.7	135.7	123.4	123.4	118.5	113.4	110.4	113.4	108.6	112.6	107.3	110.4	110.0	108.5	104.9	100.5	91.73	84.03	74.50	68.36	60.34	53.10	48.75	51.57	52.01	37.96	26.66	20.93	18.41	15.75	14.40	12.81	12.71	16.26	28.78	138.5	711.7	 2167	 2954	 1185	35.33	3.502	2.924	2.461	2.131	1.974	1.819	1.711	2.108	2.063	1.862	1.653	1.936	1.828	1.668	1.846	1.800	1.735	1.484	1.864	1.717
495.0	69.32	65.12	116.5	107.3	180.4	864.0	 1681	303.3	179.9	182.8	205.8	188.2	190.7	163.5	153.9	142.7	125.9	118.3	112.5	109.1	107.6	102.7	102.3	99.38	96.97	96.68	98.11	99.00	99.31	97.03	96.14	89.71	84.49	76.19	68.43	64.90	56.66	48.91	45.54	42.42	43.01	44.58	32.67	20.63	19.30	17.08	14.12	13.16	11.63	10.52	12.61	35.99	163.7	492.8	 1412	 3626	762.3	44.04	3.756	2.394	2.411	2.337	1.855	1.624	1.847	1.878	2.202	1.373	2.101	1.978	1.580	1.284	1.742	1.706	1.583	1.450	1.580
500.0	67.12	70.61	109.3	112.8	120.4	349.8	 1836	863.0	163.9	166.3	181.9	179.6	180.5	153.9	147.3	129.9	116.1	109.1	103.0	101.8	102.1	94.19	91.99	90.98	89.80	86.65	89.59	91.31	93.73	91.82	89.16	86.48	79.01	71.49	63.63	59.22	52.30	46.63	41.35	38.68	35.52	41.98	39.27	24.26	19.86	15.92	14.54	13.07	11.39	9.072	8.299	12.73	41.17	114.4	339.8	 2019	 3626	654.2	19.66	3.013	2.448	2.254	2.436	1.850	1.809	1.763	1.944	1.534	1.796	1.472	1.478	1.306	1.544	1.510	1.535	1.650	1.628
505.0	57.91	61.41	106.7	129.2	105.9	184.6	 1231	 1607	205.9	165.8	174.1	172.8	170.0	143.9	137.5	120.4	107.3	103.5	97.69	89.72	92.50	86.80	89.88	84.25	82.19	83.10	82.28	86.50	83.20	84.90	82.34	78.61	73.12	66.90	60.27	56.36	50.06	45.73	40.96	37.21	32.30	35.29	40.61	29.08	20.49	17.01	14.34	13.19	11.43	9.724	8.177	8.658	13.85	30.49	80.51	519.1	 2586	 3335	102.9	6.112	2.931	2.016	2.282	2.055	1.975	2.022	1.961	1.546	2.012	1.526	1.615	1.490	1.417	1.539	1.834	1.890	1.710
510.0	56.82	69.69	89.43	128.9	106.2	123.9	449.7	 2013	919.2	160.1	151.5	153.4	148.5	127.8	122.3	107.5	94.78	92.52	85.65	80.61	78.75	78.62	76.39	72.73	72.15	73.37	73.37	74.85	73.64	75.79	73.08	69.78	64.51	59.24	54.80	51.37	45.70	41.87	36.80	32.84	29.59	28.12	31.60	32.28	23.71	16.46	13.61	12.59	11.41	9.320	8.466	7.626	7.921	11.11	22.21	119.9	663.3	 2054	 2668	998.1	33.88	2.825	2.562	1.875	1.777	1.899	1.629	1.691	1.744	1.509	1.604	1.554	1.517	1.481	1.461	1.605	1.497
515.0	54.70	63.60	77.15	111.3	122.7	102.7	173.7	972.8	 2241	345.7	135.9	134.2	133.8	120.2	106.2	97.17	85.92	79.81	75.27	71.77	70.87	67.43	68.62	63.51	66.20	64.34	63.96	66.36	66.08	65.89	64.60	61.56	56.70	51.31	50.01	45.36	41.68	37.60	34.23	29.45	27.95	25.48	25.23	26.93	27.47	20.09	14.38	12.28	10.97	9.907	7.823	7.111	6.445	7.114	9.003	30.81	151.3	465.5	 1206	 3021	731.7	35.94	2.706	1.977	1.658	1.628	1.619	1.379	1.463	1.695	1.151	1.537	1.239	1.289	1.332	1.674	1.467
520.0	48.58	62.27	70.32	89.28	125.3	91.90	116.8	347.0	 2251	 1023	122.5	131.3	126.4	113.3	100.9	84.55	82.46	72.98	67.12	66.00	63.54	59.94	60.40	56.90	59.16	58.65	57.72	58.70	59.50	59.16	58.13	56.41	51.87	47.80	44.81	41.22	37.87	33.77	32.08	27.68	25.23	22.01	22.17	21.62	26.17	22.44	15.72	11.85	10.64	9.373	7.858	7.084	6.189	6.039	6.025	10.62	37.14	107.5	289.6	 1640	 2794	588.2	14.08	2.297	1.917	1.723	1.898	1.502	1.472	1.900	1.191	1.317	1.135	1.351	1.418	1.424	1.377
525.0	59.68	64.93	64.34	68.75	123.6	110.3	93.56	153.6	 1314	 2260	209.8	123.3	111.7	104.0	96.27	77.85	76.43	66.68	63.25	60.24	59.07	55.85	52.00	52.38	53.40	53.22	53.40	53.95	52.78	52.36	53.44	50.78	48.95	42.29	39.93	37.16	34.17	31.08	28.18	26.22	24.04	20.09	19.96	19.07	21.87	23.97	18.57	12.96	10.45	8.991	7.395	7.245	6.697	5.811	5.579	5.754	11.82	27.71	68.49	418.0	 1901	 2446	99.16	4.322	1.969	1.859	1.960	1.728	1.291	1.673	1.182	1.390	1.127	1.381	1.115	1.202	1.468
530.0	50.75	63.67	59.07	65.74	89.40	118.5	86.85	102.3	422.6	 2225	 1312	119.1	100.7	91.11	82.49	70.04	70.59	59.52	55.91	53.35	52.40	49.53	47.27	47.12	46.76	48.09	45.65	45.52	45.46	47.08	46.88	44.45	41.48	37.75	36.52	32.66	30.57	26.28	25.23	23.81	21.82	19.07	18.37	16.78	16.57	20.17	20.01	14.44	10.36	8.535	7.193	6.650	6.149	6.165	5.038	5.081	6.101	9.160	18.11	96.28	481.7	 1459	 1877	424.0	28.61	2.248	1.937	1.644	1.383	1.205	1.348	1.237	1.201	1.452	1.015	1.104	1.327
535.0	51.64	47.38	47.04	48.54	74.45	103.4	93.87	85.25	154.0	890.8	 2777	432.5	88.26	76.92	74.03	59.68	61.19	52.43	47.90	45.82	43.51	42.21	40.36	40.14	41.36	40.46	40.20	40.72	40.54	40.90	39.91	39.11	36.96	33.56	31.18	28.58	27.19	23.92	22.40	20.73	18.69	16.66	15.69	14.55	14.55	15.41	16.47	16.09	11.78	7.789	6.592	6.858	5.645	5.284	5.142	4.653	4.543	5.502	6.585	24.51	110.1	330.3	814.0	 2036	665.3	24.47	2.000	1.798	1.301	1.400	1.511	1.126	1.212	1.521	1.308	1.278	1.206
540.0	46.38	42.42	54.87	43.86	71.80	79.33	112.5	77.08	91.33	289.3	 2497	 1022	85.21	76.01	62.22	58.34	53.72	49.69	43.01	39.73	40.54	38.99	37.18	37.42	36.82	36.25	36.39	37.51	34.97	36.65	34.66	35.54	32.38	30.60	28.14	25.47	23.74	21.58	19.30	19.49	16.16	14.61	14.35	13.77	12.42	12.59	13.36	15.79	13.94	8.949	6.238	7.103	5.591	5.332	4.768	5.124	4.552	4.507	4.574	8.087	27.18	76.26	194.4	 1100	 1989	480.0	8.013	1.984	1.733	1.426	1.402	1.351	1.298	1.349	1.244	1.271	1.338
545.0	53.98	38.33	53.83	37.89	56.24	66.54	114.6	80.55	77.95	120.0	 1271	 2528	188.6	65.96	61.04	53.04	46.58	43.64	40.47	36.23	35.58	36.24	36.14	31.00	33.64	32.99	31.99	31.68	31.26	32.18	29.91	30.18	28.82	28.01	24.94	23.25	21.84	20.70	18.53	16.80	14.55	14.27	12.87	12.52	11.53	11.73	10.44	13.59	13.50	10.67	6.575	5.878	5.339	4.870	4.441	4.925	4.767	4.064	3.819	4.340	8.604	19.40	45.89	279.1	 1354	 1683	91.72	3.009	1.898	1.431	1.237	1.415	1.347	1.213	1.298	1.256	1.129
550.0	45.49	48.18	52.76	45.50	47.29	51.53	81.78	94.68	66.32	80.69	388.5	 2316	 1280	73.67	54.32	47.03	38.66	36.87	35.18	33.16	31.40	30.29	29.89	27.55	28.07	27.04	27.43	27.03	26.21	26.99	26.07	25.53	24.78	24.68	22.62	19.65	18.26	17.98	16.21	14.57	13.22	12.47	11.66	11.30	10.14	10.38	8.606	9.883	11.17	11.14	7.895	5.132	4.492	4.567	4.178	4.156	4.315	3.942	3.546	3.357	4.039	6.141	12.31	64.61	344.5	 1035	 1048	372.4	19.82	1.683	1.521	1.481	1.465	1.252	1.281	1.095	1.227
555.0	47.43	41.89	53.65	36.54	44.22	38.94	54.97	102.5	70.90	58.53	129.9	797.1	 2586	398.2	43.04	40.03	32.03	30.85	29.70	25.88	26.69	27.39	24.75	23.57	21.32	20.76	22.20	21.26	21.38	20.88	22.39	19.89	21.37	20.22	17.59	16.92	16.12	13.96	14.44	12.37	10.97	11.69	9.795	9.548	8.593	7.891	7.694	7.521	8.331	9.377	8.555	5.541	4.179	4.353	3.853	3.451	3.549	3.254	3.193	3.091	3.301	3.300	4.499	16.43	78.54	234.6	535.4	 1349	495.2	12.85	1.924	1.592	1.330	1.161	1.440	1.292	1.134
560.0	47.49	49.43	49.28	32.68	39.89	42.07	44.81	89.04	89.60	54.25	69.88	234.7	 2172	 1325	39.43	33.56	30.05	29.08	26.80	23.01	21.44	22.21	21.10	21.02	18.97	19.53	18.23	19.78	18.50	18.40	18.51	17.25	17.72	16.44	14.69	14.37	13.08	12.17	11.58	11.07	10.42	10.37	8.275	7.956	7.901	7.038	7.537	6.229	6.424	7.139	8.253	6.547	4.610	3.747	3.423	3.176	3.191	3.327	3.022	3.123	2.581	2.141	2.729	5.415	19.53	54.22	131.4	774.8	 1236	99.40	4.000	1.752	1.650	1.518	1.226	1.345	1.184
565.0	43.07	53.07	42.35	35.06	35.16	36.38	40.60	60.03	100.0	52.33	57.27	90.46	 1040	 2370	146.7	29.00	26.93	23.18	23.34	22.23	20.48	19.16	19.28	17.70	17.18	18.58	15.98	17.04	16.27	16.14	17.25	16.65	14.58	14.53	12.45	13.61	11.63	10.14	10.04	9.847	8.748	9.597	7.609	6.850	6.661	6.494	6.387	4.889	5.519	5.503	6.504	6.743	5.203	2.993	3.064	3.007	2.828	2.943	2.847	2.988	2.482	2.773	2.334	3.003	6.100	14.06	31.17	203.7	898.5	794.9	74.65	2.053	1.453	1.714	1.240	1.302	1.109
570.0	39.69	55.62	40.34	41.01	37.23	31.74	36.35	43.08	86.30	65.97	45.65	57.80	294.4	 1979	 1183	36.62	24.36	20.75	19.33	18.17	16.83	16.09	15.80	14.87	13.69	14.38	13.64	13.71	14.24	13.60	14.03	13.35	11.69	11.02	10.62	10.98	9.936	9.029	8.913	8.181	7.558	7.152	6.628	6.213	5.870	5.310	5.486	4.601	4.369	4.117	4.812	5.969	4.965	3.637	2.763	2.809	2.686	2.632	2.311	2.481	2.635	2.251	2.185	2.134	3.159	4.688	8.747	47.41	235.3	598.7	720.4	236.4	9.916	1.363	1.129	1.130	0.935
575.0	37.01	43.20	32.57	44.03	28.01	31.08	29.49	35.68	54.28	91.80	44.16	44.10	96.00	638.9	 2474	288.0	20.07	16.84	16.95	14.01	13.64	14.20	13.20	11.90	12.23	11.39	11.56	10.77	11.31	12.09	11.20	11.46	10.05	9.216	8.839	8.849	8.477	8.323	6.524	6.222	6.401	6.013	5.095	5.470	4.755	4.470	4.642	4.217	3.704	3.147	3.014	4.270	4.886	4.192	2.937	2.517	2.379	2.277	2.251	2.353	2.226	2.133	1.829	1.876	2.460	2.321	3.484	12.19	53.56	136.4	367.2	794.5	101.5	5.971	1.211	1.092	1.120
580.0	41.24	57.72	41.26	36.49	28.30	32.16	26.89	28.39	37.42	85.60	53.57	38.34	51.22	173.7	 2076	 1077	21.13	16.72	16.02	14.60	13.09	12.77	11.65	11.65	11.04	10.10	9.057	9.678	11.03	10.48	9.556	9.836	8.950	8.539	7.980	7.741	7.601	6.745	6.234	5.717	5.684	5.051	4.722	4.184	4.321	4.222	3.279	3.340	3.684	2.629	2.663	3.285	3.866	3.906	3.162	2.708	2.281	2.036	2.293	1.976	2.160	2.123	2.116	1.710	1.926	1.840	1.990	4.329	13.30	31.96	91.39	480.8	673.1	83.84	2.719	1.438	1.306
585.0	39.17	45.44	40.37	48.45	20.76	25.37	25.08	25.35	30.46	79.29	71.31	34.48	38.64	67.16	955.7	 1922	93.53	14.76	13.67	12.17	10.85	10.57	10.36	12.04	8.901	9.477	8.163	9.331	8.606	8.709	9.039	8.550	7.721	7.466	7.175	6.405	6.166	5.454	5.653	4.773	4.692	5.049	4.894	3.450	4.035	3.764	3.545	2.982	3.100	2.640	2.443	2.551	2.917	3.222	3.164	2.863	2.460	2.134	2.002	1.913	1.858	1.826	1.896	1.883	1.902	2.085	1.771	2.205	4.116	8.239	21.77	129.9	540.0	548.9	57.78	1.461	1.332
590.0	51.84	50.31	42.20	38.50	23.55	26.97	26.44	24.99	27.14	49.40	84.47	44.79	35.99	39.89	255.7	 1561	791.9	19.82	12.45	11.13	9.546	8.971	8.599	8.558	8.683	8.299	7.402	7.626	6.902	7.404	7.428	7.380	6.165	6.435	6.092	5.700	5.401	5.118	4.966	4.213	4.181	4.428	3.879	3.510	3.586	3.029	2.761	2.621	2.578	2.560	2.297	2.057	2.331	2.416	3.318	3.090	2.442	2.039	1.893	1.690	1.655	1.871	1.596	2.112	2.098	1.795	1.616	1.838	2.067	3.016	5.908	30.28	145.9	396.8	445.9	66.01	5.475
595.0	43.74	41.35	34.76	32.99	24.65	23.88	27.83	27.94	26.25	34.23	72.45	67.94	32.45	34.40	75.86	509.8	 1616	182.0	11.30	9.901	8.157	7.376	7.498	7.323	8.311	6.764	6.404	6.536	5.782	7.013	5.944	7.245	5.708	5.840	5.416	4.780	4.396	4.082	4.512	3.898	3.665	3.847	3.499	3.064	2.790	2.689	2.812	2.733	2.266	2.188	2.206	2.076	2.195	1.946	2.700	3.091	2.636	2.189	1.763	1.269	1.534	1.772	1.354	1.873	1.841	1.830	1.548	1.601	1.776	1.945	2.156	7.764	33.77	91.81	239.7	476.7	92.07
600.0	43.96	34.32	43.28	36.35	29.41	27.92	25.86	22.04	26.83	28.30	51.90	81.82	36.06	31.63	36.02	136.4	 1329	450.5	11.63	8.437	8.568	6.872	6.607	7.152	7.027	5.333	5.985	6.248	5.658	6.778	5.692	5.408	6.007	5.458	4.801	4.077	4.279	4.078	3.836	3.361	3.465	3.292	3.035	2.631	2.639	2.741	2.213	2.389	2.237	2.054	1.974	1.742	1.914	1.998	1.998	2.742	2.613	2.034	1.859	1.878	1.737	1.728	1.758	1.747	1.462	1.943	1.601	1.275	1.226	1.624	1.473	2.611	8.733	21.92	61.03	314.5	414.0
605.0	35.38	35.12	41.53	33.98	27.98	27.34	28.53	23.85	27.10	24.43	39.62	86.67	44.48	29.04	25.56	47.11	621.5	 1255	57.14	7.731	8.462	5.856	5.882	6.178	6.217	5.713	6.514	5.680	5.273	5.306	4.894	4.733	4.495	5.226	4.335	3.856	3.610	3.527	3.669	2.930	3.013	3.057	2.704	2.609	2.651	2.467	2.065	2.271	2.090	1.662	1.870	1.813	1.530	1.892	1.973	1.947	2.242	2.229	1.955	1.725	1.878	1.587	1.527	1.543	1.372	1.695	1.770	0.998	1.337	1.282	1.541	1.542	3.062	5.915	14.42	87.03	346.6
610.0	42.39	48.60	39.53	38.13	30.04	26.17	22.27	19.94	27.96	22.84	35.56	66.24	66.34	29.82	23.13	22.21	167.5	 1114	571.4	12.11	7.646	6.536	6.021	5.682	5.050	4.564	5.485	4.864	4.516	5.523	4.734	5.252	4.424	4.273	3.922	3.509	3.266	3.430	3.354	2.614	2.715	2.647	2.277	2.384	2.393	2.177	1.942	2.238	1.770	1.726	1.714	1.662	1.594	1.662	1.685	1.623	2.063	2.263	1.982	1.557	1.549	1.414	1.457	1.243	1.428	1.554	1.897	1.420	1.317	1.304	1.589	1.335	1.571	2.391	4.277	20.45	94.82
615.0	32.82	49.52	35.64	36.19	25.87	24.67	21.24	22.63	19.41	23.80	33.05	43.83	72.57	41.05	24.80	17.83	46.38	372.7	 1193	121.5	7.720	6.277	5.631	5.449	5.011	4.276	4.548	4.273	3.605	4.374	4.973	4.511	3.416	3.645	3.304	3.143	2.990	3.292	2.386	2.419	3.130	2.061	2.127	2.106	2.402	1.861	1.687	1.756	2.188	1.800	1.441	1.305	1.567	1.281	1.385	1.569	1.677	1.815	2.252	1.754	1.755	1.355	1.257	1.262	1.293	1.260	1.587	1.523	1.327	1.239	1.484	1.527	1.198	1.395	2.114	5.436	22.10
620.0	44.06	43.74	40.94	31.29	23.78	22.88	19.77	22.25	22.06	22.98	33.27	33.59	63.77	53.62	23.23	16.13	19.50	97.06	 1034	354.6	7.184	6.034	6.086	5.726	4.121	4.215	4.320	3.785	3.524	3.928	3.797	4.094	3.599	3.361	3.065	3.135	3.183	3.080	2.581	2.541	2.724	2.063	2.164	1.988	1.987	2.184	1.903	1.454	1.318	1.403	1.439	1.074	1.384	1.578	1.375	1.574	1.554	1.531	1.681	1.733	1.295	1.216	1.332	1.459	1.484	1.040	1.564	1.297	1.493	1.348	1.516	1.476	1.148	1.179	1.541	2.147	6.023
625.0	39.75	37.97	37.95	33.80	26.75	28.52	25.42	26.22	20.54	25.76	35.43	28.45	45.92	57.13	25.09	18.26	12.68	30.35	502.7	968.5	38.27	5.890	5.366	5.158	3.890	3.493	3.997	3.537	4.005	4.157	3.010	3.852	3.234	3.914	3.138	3.376	3.372	3.023	2.272	2.281	2.387	2.106	2.183	1.563	1.623	1.687	1.212	1.352	1.227	1.554	1.322	1.252	1.444	1.182	1.092	1.576	1.540	1.733	1.455	1.648	1.214	1.156	1.367	1.336	1.132	1.074	0.951	1.152	1.290	1.377	1.284	1.406	0.936	1.377	1.277	1.715	2.240
630.0	39.08	38.10	38.97	32.52	26.43	20.77	26.99	23.13	20.94	24.87	29.49	31.34	34.83	58.65	36.17	16.13	10.95	13.13	134.6	897.1	432.8	8.513	5.380	3.903	4.009	3.826	3.754	3.771	3.522	3.561	3.462	3.351	2.817	3.205	3.270	3.005	3.219	2.995	2.223	2.284	2.283	1.549	1.783	1.581	1.487	1.700	1.360	1.515	1.409	1.251	1.095	1.208	1.529	1.257	1.086	1.255	1.391	1.383	1.369	1.420	1.741	1.307	1.358	1.330	1.148	1.137	1.204	1.344	1.374	1.241	1.304	1.426	1.215	1.167	1.306	1.233	1.357
635.0	39.74	47.45	50.30	27.22	27.73	23.26	24.33	23.36	21.83	21.67	30.32	28.38	31.33	40.55	52.06	17.53	10.92	9.547	36.23	313.3	952.6	88.43	4.555	3.494	4.133	3.444	3.179	3.179	3.436	3.100	3.307	2.780	3.334	2.901	3.335	3.000	3.174	3.026	2.134	2.173	1.992	1.795	1.794	1.507	1.681	1.371	1.456	1.458	1.316	1.262	1.056	1.157	1.411	1.238	1.077	1.355	1.604	1.343	1.192	1.339	1.304	1.333	1.355	1.128	0.728	1.111	1.381	1.217	1.258	1.121	1.035	1.165	1.246	1.260	0.980	0.959	1.302
640.0	39.34	44.19	43.33	26.19	26.95	19.60	20.24	22.66	22.83	20.55	25.55	30.30	30.30	33.28	52.76	20.67	9.301	9.616	14.42	80.49	849.1	292.3	4.578	3.802	3.569	3.061	3.957	3.522	2.475	3.346	2.982	3.471	3.661	2.840	3.389	3.304	3.040	2.844	2.143	2.295	2.265	2.129	1.834	1.768	1.334	1.562	1.369	1.252	1.419	1.207	1.101	1.018	1.011	1.256	1.122	1.158	1.251	0.932	1.538	1.162	1.399	1.403	1.575	1.128	1.057	1.465	1.379	1.189	0.926	0.935	1.198	1.196	1.649	1.313	0.834	1.126	1.212
645.0	43.67	41.96	40.52	32.45	25.33	20.79	21.12	21.02	21.22	21.63	28.63	27.15	26.51	30.30	43.49	29.90	11.68	10.13	9.530	23.14	434.4	736.1	24.63	3.803	3.002	3.146	3.705	3.503	2.667	2.840	3.166	3.544	3.543	2.919	3.415	4.127	3.941	3.054	1.866	2.147	2.682	2.337	1.735	2.083	1.509	1.569	1.275	1.207	1.174	1.050	1.275	0.982	1.220	1.183	1.398	1.318	1.276	1.355	1.382	1.131	1.028	1.404	1.347	1.241	1.275	1.242	0.972	1.233	1.166	0.882	1.120	0.960	1.211	1.058	1.224	0.816	1.113
650.0	37.24	41.94	44.76	29.43	24.84	22.93	23.57	21.25	20.87	22.44	30.34	26.27	30.11	27.00	34.20	37.16	12.20	9.129	7.169	11.09	132.2	867.5	167.1	4.827	3.495	3.761	3.767	3.510	3.635	3.262	3.314	3.550	3.719	3.706	3.691	4.814	4.792	3.832	2.336	2.529	1.912	2.137	1.796	1.410	1.575	1.777	0.989	1.322	1.259	1.120	1.137	0.976	1.112	1.488	1.345	1.315	1.199	1.251	1.299	1.158	1.078	1.143	1.492	1.243	1.162	0.895	0.959	1.060	1.057	0.973	1.166	1.240	1.056	1.256	1.114	1.227	1.051
