Sample:	'1
File name:	G2025090903月河六路西034雨水井.FD3
Run date:	'14:11:32, 09/10/2025
Operator:	Administrator
Comment:	'

Instrument
Model:	F-2700 FL Spectrophotometer
Serial number:	24D1-003
ROM Version:	4J14000 07

Instrument parameters
Measurement type:	3-D scan
Data mode:	Fluorescence
EX  Start WL:	220.0 nm
EX  End WL:	600.0 nm
EX Sampling interval:	5.0 nm
EM  Start WL:	230.0 nm
EM  End WL:	650.0 nm
EM Sampling interval:	5.0 nm
Scan speed:	12000 nm/min
EX Slit:	5.0 nm
EM Slit:	5.0 nm
PMT Voltage:	700 V
Response:	Auto 
Corrected spectra:	Off
Contour interval:	50.000

Peak integration
Integration method:	Rectangular
Sensitivity:	1
Threshold:	1.000

Peaks
No.	ApexEX/EM(nm)	Height(Data)
1	225.0/595.0	35.33
2	225.0/605.0	34.03
3	230.0/340.0	1027
4	230.0/575.0	34.12
5	235.0/350.0	974.8
6	235.0/515.0	198.9
7	240.0/265.0	376.8
8	240.0/525.0	202.9
9	245.0/270.0	380.7
10	245.0/400.0	592.3
11	245.0/540.0	179.2
12	250.0/275.0	473.3
13	250.0/415.0	558.7
14	250.0/445.0	590.5
15	250.0/550.0	156.9
16	255.0/280.0	616.9
17	255.0/440.0	579.4
18	255.0/560.0	140.3
19	260.0/285.0	633.9
20	260.0/575.0	116.9
21	265.0/585.0	118.2
22	270.0/300.0	1243
23	270.0/600.0	113.1
24	275.0/305.0	1557
25	275.0/610.0	114.2
26	280.0/310.0	1411
27	280.0/620.0	96.37
28	285.0/315.0	1233
29	285.0/635.0	69.67
30	290.0/325.0	1088
31	295.0/330.0	895.3
32	300.0/335.0	802.9
33	305.0/340.0	724.2
34	315.0/355.0	466.8
35	320.0/360.0	483.4
36	325.0/365.0	452.1
37	335.0/380.0	428.6
38	340.0/385.0	399.3
39	350.0/400.0	336.0
40	355.0/405.0	325.2
41	365.0/420.0	262.7
42	370.0/425.0	242.1
43	415.0/485.0	52.59
44	430.0/505.0	30.97
45	445.0/525.0	18.14
46	455.0/540.0	12.04
47	465.0/555.0	7.431
48	470.0/560.0	6.561
49	475.0/340.0	3.583
50	480.0/350.0	3.568
51	485.0/265.0	2.315
52	500.0/270.0	2.222
53	505.0/275.0	2.919
54	505.0/445.0	2.778
55	510.0/280.0	3.476
56	520.0/285.0	3.883
57	530.0/290.0	3.920
58	540.0/295.0	5.564
59	545.0/300.0	6.033
60	555.0/305.0	6.945
61	560.0/310.0	6.469
62	570.0/315.0	5.884
63	580.0/320.0	5.738
64	585.0/325.0	6.113

Data points
	220.0	225.0	230.0	235.0	240.0	245.0	250.0	255.0	260.0	265.0	270.0	275.0	280.0	285.0	290.0	295.0	300.0	305.0	310.0	315.0	320.0	325.0	330.0	335.0	340.0	345.0	350.0	355.0	360.0	365.0	370.0	375.0	380.0	385.0	390.0	395.0	400.0	405.0	410.0	415.0	420.0	425.0	430.0	435.0	440.0	445.0	450.0	455.0	460.0	465.0	470.0	475.0	480.0	485.0	490.0	495.0	500.0	505.0	510.0	515.0	520.0	525.0	530.0	535.0	540.0	545.0	550.0	555.0	560.0	565.0	570.0	575.0	580.0	585.0	590.0	595.0	600.0
230.0	29.86	320.1	986.2	272.8	14.83	7.834	6.029	5.466	5.020	4.388	3.962	3.979	2.875	2.756	2.236	2.094	1.850	1.543	1.299	1.355	1.158	1.219	1.118	1.001	1.012	0.927	0.899	0.812	0.838	0.816	0.772	0.704	0.614	0.619	0.588	0.522	0.552	0.583	0.556	0.453	0.498	0.508	0.471	0.503	0.473	0.464	0.571	1.322	2.847	2.790	1.249	0.517	0.387	0.367	0.452	0.437	0.448	0.389	0.433	0.401	0.457	0.427	0.401	0.433	0.425	0.469	0.424	0.422	0.453	0.500	0.456	0.434	0.492	0.484	0.452	0.455	0.498
235.0	38.56	102.4	802.4	1714	398.1	24.18	7.866	5.875	5.401	5.099	4.494	3.511	3.192	3.243	2.369	2.308	1.947	1.541	1.758	1.362	1.505	1.105	1.112	1.152	0.981	0.895	0.803	0.717	0.775	0.802	0.801	0.669	0.656	0.581	0.538	0.595	0.575	0.672	0.516	0.415	0.543	0.554	0.645	0.630	0.524	0.459	0.418	0.670	1.294	2.788	4.707	5.267	3.730	0.929	0.452	0.311	0.478	0.436	0.495	0.410	0.438	0.485	0.430	0.443	0.446	0.486	0.501	0.403	0.541	0.507	0.458	0.428	0.439	0.474	0.388	0.514	0.541
240.0	61.15	58.15	257.4	1665	2271	314.9	12.61	5.831	4.934	5.499	4.425	4.652	3.998	3.146	2.332	2.361	1.846	1.511	1.582	1.235	1.201	1.162	1.164	1.118	0.906	0.768	1.003	0.943	0.894	0.818	0.854	0.643	0.678	0.520	0.606	0.641	0.590	0.595	0.528	0.444	0.558	0.509	0.554	0.595	0.548	0.540	0.519	0.502	0.652	1.107	2.738	6.835	9.531	7.023	2.569	0.523	0.424	0.335	0.475	0.392	0.397	0.461	0.466	0.454	0.367	0.445	0.420	0.411	0.448	0.476	0.399	0.382	0.478	0.554	0.501	0.482	0.442
245.0	66.26	101.5	96.58	578.2	2509	2399	240.1	7.564	6.507	5.359	4.622	4.859	3.667	2.638	2.630	2.235	1.645	1.576	1.481	1.327	1.132	0.990	1.015	1.113	1.025	0.887	0.821	0.890	0.792	0.804	0.916	0.636	0.709	0.621	0.614	0.572	0.689	0.573	0.489	0.555	0.467	0.505	0.528	0.482	0.532	0.558	0.649	0.577	0.522	0.591	0.843	2.614	6.025	10.66	11.31	6.028	1.618	0.490	0.484	0.379	0.427	0.466	0.391	0.439	0.455	0.466	0.458	0.460	0.446	0.472	0.488	0.462	0.494	0.466	0.504	0.435	0.505
250.0	39.30	96.33	179.3	204.7	787.7	2284	2697	923.4	46.27	6.546	5.523	4.962	3.692	2.974	2.849	2.388	2.015	1.548	1.559	1.300	1.243	1.225	1.025	1.084	1.034	0.956	0.976	0.844	0.995	0.729	0.908	0.672	0.669	0.695	0.585	0.514	0.579	0.538	0.528	0.626	0.464	0.502	0.537	0.436	0.451	0.490	0.480	0.656	0.857	0.872	0.749	0.931	1.806	3.403	6.320	8.600	10.72	8.750	5.205	1.753	0.527	0.484	0.437	0.414	0.467	0.516	0.497	0.361	0.445	0.499	0.460	0.435	0.514	0.512	0.516	0.510	0.562
255.0	26.85	37.30	144.5	303.0	260.1	568.5	1865	3767	1219	39.89	6.018	5.121	4.401	3.622	2.666	2.251	2.216	1.914	1.512	1.353	1.419	1.244	1.176	1.056	1.063	1.047	0.968	0.989	0.980	0.876	0.764	0.763	0.587	0.693	0.632	0.588	0.533	0.483	0.581	0.629	0.554	0.577	0.533	0.490	0.496	0.473	0.474	0.527	0.498	0.828	1.264	1.619	1.162	1.198	1.813	2.316	3.788	7.488	13.81	14.25	7.520	1.872	0.517	0.451	0.470	0.547	0.504	0.355	0.538	0.479	0.439	0.468	0.464	0.573	0.539	0.437	0.631
260.0	30.02	22.33	60.74	287.4	306.8	178.3	544.0	2795	3739	248.2	17.84	6.483	4.927	3.093	2.736	2.266	2.319	1.912	1.585	1.496	1.315	1.337	1.231	1.088	1.210	1.057	0.912	0.953	0.819	0.955	0.885	0.703	0.796	0.768	0.646	0.499	0.635	0.505	0.557	0.609	0.549	0.587	0.498	0.441	0.466	0.401	0.455	0.568	0.440	0.460	0.831	1.808	1.767	1.325	0.806	0.810	1.257	2.354	5.828	12.32	17.25	13.51	5.138	0.949	0.516	0.471	0.456	0.330	0.408	0.448	0.464	0.461	0.321	0.459	0.547	0.504	0.647
265.0	29.68	20.02	28.08	131.1	376.8	245.2	154.7	862.2	3330	3513	198.1	9.503	5.347	4.037	3.377	2.914	2.154	2.015	1.511	1.329	1.273	1.403	1.289	1.196	1.237	1.018	0.911	1.110	0.789	0.766	0.832	0.801	0.845	0.695	0.672	0.575	0.613	0.540	0.570	0.506	0.523	0.520	0.520	0.470	0.526	0.411	0.425	0.383	0.420	0.301	0.529	0.916	1.639	2.315	1.880	0.872	0.705	0.954	1.876	3.740	8.703	15.96	20.14	11.68	2.915	0.644	0.451	0.355	0.385	0.488	0.461	0.463	0.372	0.453	0.515	0.460	0.591
270.0	30.04	23.62	23.54	41.46	167.4	380.7	271.0	239.2	968.8	2802	3007	824.7	55.47	5.145	4.457	3.213	2.498	2.144	1.682	1.607	1.456	1.387	1.124	1.114	1.029	1.090	1.061	0.960	0.996	0.860	0.925	0.823	0.786	0.677	0.653	0.543	0.696	0.520	0.538	0.449	0.534	0.548	0.542	0.495	0.564	0.494	0.452	0.431	0.461	0.351	0.389	0.528	0.736	1.173	1.839	2.119	2.222	1.357	0.987	1.317	2.403	4.754	8.953	13.68	16.01	14.74	8.681	2.807	0.571	0.517	0.519	0.462	0.435	0.540	0.499	0.497	0.540
275.0	31.76	41.90	33.56	27.34	50.35	156.0	473.3	321.0	266.2	698.0	1817	4971	1263	62.85	4.921	3.501	3.086	2.541	2.072	1.711	1.535	1.433	1.017	1.239	1.022	0.994	1.121	0.924	0.943	0.856	0.873	0.810	0.825	0.638	0.582	0.557	0.708	0.491	0.651	0.497	0.456	0.540	0.579	0.538	0.545	0.483	0.457	0.537	0.608	0.415	0.347	0.414	0.612	0.605	0.845	1.049	1.926	2.919	2.690	1.377	1.170	1.568	2.545	3.630	5.055	9.837	19.35	23.31	13.13	2.558	0.586	0.558	0.488	0.471	0.490	0.479	0.620
280.0	46.75	58.61	52.20	36.73	28.87	56.38	267.6	616.9	246.2	225.2	547.6	2965	5460	904.6	30.15	4.513	3.407	2.792	2.098	1.899	1.627	1.358	1.159	1.140	1.111	1.109	0.987	0.924	0.977	0.816	0.753	0.733	0.890	0.699	0.625	0.656	0.700	0.576	0.698	0.529	0.505	0.548	0.570	0.555	0.540	0.570	0.507	0.572	0.632	0.456	0.318	0.555	0.509	0.492	0.519	0.544	0.884	1.816	3.476	3.408	1.970	1.011	1.178	1.407	1.813	2.913	6.884	16.33	25.26	21.21	8.045	1.382	0.536	0.483	0.448	0.646	0.594
285.0	60.61	101.5	98.47	59.22	31.44	38.67	108.7	480.3	633.9	223.9	265.2	925.0	3585	4949	653.3	11.29	4.178	2.927	2.214	1.838	1.716	1.543	1.280	1.346	1.157	1.154	1.085	1.092	0.888	0.999	0.882	0.832	0.804	0.672	0.593	0.622	0.615	0.596	0.605	0.510	0.463	0.587	0.599	0.578	0.580	0.696	0.500	0.576	0.627	0.501	0.528	0.540	0.465	0.510	0.469	0.562	0.549	0.985	1.632	3.132	3.883	2.794	1.467	1.093	1.269	1.601	2.395	4.872	10.57	20.57	26.42	17.18	4.217	0.670	0.501	0.520	0.529
290.0	90.56	156.5	163.2	91.59	52.49	51.01	76.71	217.9	592.3	731.1	412.1	470.7	1100	2815	3965	1664	38.69	4.040	2.779	2.256	2.024	1.782	1.394	1.329	1.178	1.074	1.057	1.098	0.973	0.938	0.966	0.749	0.741	0.709	0.568	0.598	0.632	0.611	0.576	0.612	0.603	0.572	0.623	0.628	0.598	0.709	0.650	0.803	0.928	0.681	0.606	0.611	0.521	0.548	0.598	0.588	0.615	0.909	1.030	1.494	2.343	3.485	3.920	3.187	2.233	1.836	1.889	2.349	3.641	6.152	10.63	16.65	20.50	18.16	10.92	3.258	0.714
295.0	110.5	207.1	211.3	133.2	72.72	75.85	97.38	172.8	339.3	757.5	1036	552.4	556.8	802.4	1441	4372	776.4	46.21	4.159	2.920	2.098	2.096	1.538	1.383	1.410	1.032	1.108	0.956	1.041	1.150	0.922	0.841	0.713	0.785	0.644	0.601	0.606	0.641	0.504	0.589	0.642	0.618	0.500	0.637	0.639	0.760	0.833	1.079	1.192	0.933	0.755	0.740	0.671	0.636	0.729	0.653	0.786	0.906	0.959	1.219	1.568	2.049	2.704	4.122	5.564	3.993	2.738	2.292	2.266	2.982	3.432	4.625	5.892	10.77	22.24	27.36	15.18
300.0	133.3	233.2	251.5	157.5	101.7	106.8	133.7	202.6	328.1	595.6	1243	1024	569.2	434.3	475.6	1985	4444	630.9	27.39	3.795	2.587	2.122	1.866	1.405	1.456	0.989	1.284	1.232	1.051	0.860	0.909	0.914	0.771	0.729	0.673	0.593	0.555	0.590	0.556	0.570	0.549	0.708	0.513	0.592	0.664	0.728	1.017	1.095	1.219	1.021	0.888	0.941	0.772	0.855	0.886	0.679	0.794	1.011	1.071	1.290	1.546	2.032	2.354	3.154	4.652	6.033	5.327	3.500	2.558	2.446	2.274	2.244	2.187	3.431	7.575	17.92	29.73
305.0	135.2	253.3	268.0	184.4	136.3	140.7	197.3	291.3	433.6	654.9	1069	1557	970.1	510.6	382.8	674.3	2617	4272	480.8	12.10	3.128	2.169	1.714	1.500	1.423	1.321	0.982	1.250	1.080	0.949	1.036	0.851	0.758	0.749	0.756	0.597	0.507	0.620	0.564	0.639	0.488	0.684	0.548	0.501	0.645	0.841	0.989	1.054	1.363	1.161	0.906	0.946	0.910	0.849	0.823	0.891	1.144	1.375	1.399	1.658	2.007	2.533	2.751	3.098	3.801	5.064	6.684	6.945	4.536	3.479	2.658	2.213	2.044	2.419	3.003	5.550	11.88
310.0	130.8	254.4	285.0	207.9	163.8	183.7	254.5	362.1	502.4	703.2	934.6	1281	1411	833.8	453.0	410.1	846.1	2282	3233	1360	29.13	3.538	2.587	1.896	1.529	1.279	1.230	1.196	1.251	0.887	1.039	0.854	0.894	0.638	0.823	0.652	0.551	0.536	0.613	0.630	0.544	0.639	0.641	0.599	0.656	0.769	0.974	1.120	1.364	1.159	0.973	1.077	1.038	0.982	0.986	1.012	1.393	1.589	1.669	1.913	2.248	2.847	2.985	3.476	3.859	4.378	4.964	6.072	6.469	6.164	4.229	3.038	2.435	2.373	2.373	2.777	4.221
315.0	135.4	267.1	311.5	236.2	199.0	223.1	283.4	400.0	518.1	702.9	889.9	1043	1137	1233	716.1	402.0	447.7	716.2	1150	3432	1842	36.11	3.481	2.447	1.714	1.620	1.325	1.210	1.331	1.041	1.215	0.907	0.743	0.835	0.690	0.667	0.461	0.593	0.506	0.605	0.562	0.732	0.657	0.682	0.763	0.788	0.921	1.177	1.183	1.250	1.032	1.167	1.144	1.099	1.213	1.261	1.414	1.719	1.916	2.095	2.461	2.664	3.006	3.474	3.578	4.146	4.423	4.609	4.684	5.326	5.884	5.584	3.476	2.682	2.413	2.287	2.638
320.0	148.0	344.9	432.9	303.7	238.8	250.2	323.5	417.6	549.4	722.1	899.5	1020	1019	1117	1068	522.6	397.2	392.2	356.8	1507	3664	484.1	22.16	2.999	2.234	1.765	1.425	1.342	1.316	1.182	1.115	0.960	0.913	0.782	0.723	0.838	0.675	0.635	0.512	0.570	0.605	0.609	0.550	0.683	0.763	0.871	1.017	1.354	1.652	1.446	1.191	1.305	1.320	1.216	1.298	1.210	1.751	1.764	2.008	2.326	2.738	2.681	3.176	3.569	3.738	3.873	3.976	4.554	4.452	4.587	4.790	5.594	5.738	4.259	3.135	2.523	2.648
325.0	170.2	458.6	623.9	444.4	291.7	273.3	347.0	437.6	565.0	742.5	905.0	1012	998.6	929.8	1088	796.4	422.2	331.2	193.9	425.7	1988	3196	387.4	10.04	2.727	1.787	1.536	1.414	1.123	1.270	1.161	1.026	0.892	0.769	0.747	0.803	0.665	0.668	0.651	0.573	0.555	0.578	0.551	0.616	0.759	0.942	1.264	1.778	2.196	2.001	1.595	1.795	1.741	1.366	1.541	1.363	1.717	1.887	1.944	2.259	2.662	2.772	3.152	3.498	3.825	3.916	4.322	4.342	4.387	4.456	4.126	4.367	5.348	6.113	4.870	3.279	2.589
330.0	191.6	509.6	788.6	655.2	440.3	345.9	363.2	443.2	554.2	710.6	860.9	975.6	962.0	863.4	845.0	895.3	669.9	362.7	191.0	191.8	539.9	1665	2544	1103	24.81	2.959	1.956	1.593	1.276	1.310	1.002	0.952	0.920	0.775	0.722	0.746	0.668	0.669	0.627	0.571	0.592	0.665	0.631	0.662	0.787	1.023	1.393	1.970	2.562	2.568	2.253	2.405	2.178	1.844	1.761	1.629	1.823	1.969	2.095	2.308	2.595	2.745	3.014	3.379	3.498	3.823	4.063	4.122	4.139	4.291	4.033	3.768	4.223	4.678	4.840	4.964	4.067
335.0	206.6	597.1	965.8	867.8	632.9	443.6	394.4	458.8	555.1	693.0	835.4	953.0	949.8	863.3	774.7	713.2	802.9	580.0	250.7	178.3	222.4	444.7	924.9	2826	1530	32.41	2.864	2.310	1.425	1.206	1.018	1.012	1.074	0.940	0.742	0.776	0.592	0.638	0.573	0.549	0.715	0.604	0.599	0.665	0.831	1.009	1.377	2.288	2.929	3.197	3.065	3.088	2.858	2.665	2.184	1.770	1.947	1.823	2.047	2.126	2.474	2.760	2.965	3.182	3.502	3.799	3.887	3.920	4.099	4.194	3.775	3.855	4.213	3.839	3.692	4.013	4.649
340.0	215.8	600.6	1027	955.9	718.5	494.4	415.3	462.5	547.0	675.4	808.2	900.2	917.0	843.7	753.6	650.7	653.3	724.2	369.7	200.7	171.5	186.9	277.7	1294	3002	407.3	19.56	2.396	1.632	1.630	1.240	1.200	0.956	1.019	0.730	0.768	0.733	0.845	0.688	0.644	0.565	0.548	0.635	0.602	0.797	0.967	1.378	2.492	3.379	3.463	3.250	3.583	3.252	2.916	2.351	1.971	2.037	1.921	2.085	2.159	2.368	2.859	2.731	3.045	3.219	3.664	3.570	3.950	4.065	4.036	3.996	3.852	4.044	3.593	3.688	3.456	3.778
345.0	199.1	566.8	1009	972.2	732.9	514.0	414.8	448.9	528.0	641.4	754.3	834.8	860.3	798.5	721.1	612.0	541.3	629.5	543.7	253.5	173.4	145.0	139.0	365.3	1688	2537	332.6	8.447	2.248	1.724	1.270	1.180	0.854	1.052	0.813	0.681	0.742	0.808	0.775	0.620	0.636	0.535	0.612	0.680	0.781	0.986	1.462	2.275	3.168	3.316	3.034	3.513	3.412	2.866	2.586	2.179	1.878	2.019	2.171	2.253	2.220	2.664	2.589	3.125	3.231	3.495	3.500	3.722	3.793	3.813	3.796	3.775	3.891	3.410	3.072	3.044	3.157
350.0	184.3	521.6	930.0	974.8	769.6	541.8	434.8	450.3	506.9	605.1	691.0	763.5	782.3	741.8	679.2	587.8	503.7	479.8	517.9	440.9	239.2	163.8	134.4	155.9	453.4	1357	1987	851.3	21.81	2.382	1.614	1.426	1.043	0.988	0.806	0.768	0.680	0.782	0.675	0.670	0.577	0.593	0.619	0.689	0.712	0.910	1.277	2.128	2.765	3.003	3.001	3.506	3.568	2.965	2.570	2.168	2.066	2.041	2.163	2.222	2.402	2.553	2.692	2.784	2.920	3.025	3.102	3.208	3.380	3.616	3.581	3.593	3.333	3.461	3.176	3.079	3.085
355.0	170.9	474.4	837.8	928.2	781.5	576.8	463.4	456.4	507.7	581.0	657.9	705.6	723.7	692.4	644.5	562.6	493.1	438.5	399.6	466.8	415.7	222.4	161.4	136.1	169.7	349.3	734.4	2191	1222	24.53	2.369	1.712	1.207	1.044	1.018	0.833	0.921	0.764	0.691	0.777	0.592	0.565	0.688	0.693	0.683	1.045	1.154	1.799	2.542	2.710	2.862	3.416	3.271	3.186	2.628	2.203	2.350	2.158	2.153	2.386	2.314	2.480	2.638	2.691	2.765	2.789	2.922	3.007	3.029	3.283	3.069	3.410	3.169	3.034	3.328	3.252	3.043
360.0	146.6	428.7	771.9	870.4	749.2	584.9	470.6	461.1	497.7	557.3	617.1	667.2	678.5	652.6	612.3	546.7	483.8	434.3	380.2	387.8	483.4	329.4	192.6	150.7	124.0	138.4	210.2	1008	2429	354.1	13.71	2.047	1.334	1.235	0.907	0.759	0.854	0.759	0.659	0.590	0.609	0.668	0.600	0.711	0.713	0.990	1.156	1.688	2.151	2.647	2.698	3.032	3.375	3.079	2.709	2.456	2.460	2.011	2.196	2.288	2.251	2.441	2.584	2.710	2.865	2.755	2.852	2.828	3.141	3.035	3.113	3.378	3.296	3.030	3.106	3.455	3.117
365.0	136.4	373.1	675.2	777.5	740.6	586.9	484.0	478.2	491.5	546.7	593.5	627.8	633.3	617.4	583.5	530.8	483.3	428.3	383.9	353.7	416.7	452.1	263.5	178.2	135.7	108.7	100.8	278.1	1372	2159	279.1	4.161	1.864	1.506	1.022	0.742	0.855	0.761	0.650	0.692	0.692	0.614	0.676	0.680	0.594	0.809	1.027	1.612	2.049	2.376	2.511	2.946	3.203	3.144	2.556	2.486	2.243	2.192	2.322	2.312	2.350	2.434	2.478	2.874	2.764	2.722	2.792	2.833	2.790	2.860	2.781	2.961	3.065	3.137	3.246	3.165	3.076
370.0	125.2	330.8	606.4	740.0	712.9	602.2	508.2	487.5	499.7	534.4	571.6	594.0	593.3	581.9	558.3	513.0	473.2	435.0	394.2	362.1	360.6	419.5	405.0	256.0	168.0	128.5	97.92	113.7	367.9	1281	1723	574.9	14.73	1.924	1.217	1.011	0.869	0.700	0.714	0.696	0.881	0.640	0.696	0.622	0.722	0.886	1.023	1.462	1.787	2.095	2.229	2.682	3.070	2.798	2.804	2.415	2.403	2.340	2.274	2.436	2.322	2.353	2.381	2.558	2.555	2.632	2.614	2.684	2.659	2.841	2.740	2.786	2.927	2.883	2.939	3.141	3.104
375.0	114.6	296.4	540.4	678.2	675.9	591.6	522.9	505.1	504.1	527.1	554.4	566.4	562.3	552.6	526.7	496.3	462.4	441.6	404.0	381.2	363.2	360.3	404.7	398.4	235.6	162.1	123.6	100.6	130.2	320.7	700.9	1907	328.5	17.45	1.724	1.215	0.989	0.856	0.665	0.750	0.771	0.735	0.596	0.586	0.620	0.780	0.927	1.500	1.612	1.884	2.251	2.668	2.865	2.695	2.661	2.425	2.462	2.355	2.464	2.368	2.427	2.487	2.365	2.597	2.351	2.547	2.535	2.578	2.524	2.566	2.786	2.512	2.859	2.768	2.785	2.806	2.851
380.0	116.5	279.4	490.5	641.7	649.9	586.5	531.1	506.5	506.7	525.9	542.6	556.7	541.7	528.3	508.1	476.6	459.2	435.8	414.4	394.6	374.9	358.1	359.9	428.6	330.1	196.3	148.0	114.4	93.94	114.4	194.3	1067	1738	268.6	7.038	1.615	1.132	0.862	0.772	0.739	0.734	0.802	0.714	0.670	0.583	0.653	0.944	1.269	1.577	1.849	1.984	2.542	2.881	2.587	2.775	2.301	2.405	2.420	2.500	2.156	2.317	2.556	2.422	2.609	2.117	2.365	2.531	2.667	2.523	2.745	2.694	2.496	2.657	2.597	2.808	2.872	3.013
385.0	108.7	269.6	461.1	607.9	648.1	591.7	540.9	521.1	505.3	523.6	528.4	540.8	530.1	508.3	494.1	465.0	448.9	432.2	414.0	400.9	382.3	365.5	348.8	373.9	399.3	262.5	172.9	133.3	101.0	79.98	80.59	297.9	1237	1488	38.81	3.243	1.357	0.976	0.882	0.668	0.823	0.742	0.697	0.685	0.549	0.768	0.786	1.258	1.496	1.744	1.883	2.549	2.849	2.698	2.525	2.341	2.420	2.227	2.438	2.309	2.046	2.378	2.357	2.326	2.286	2.394	2.565	2.430	2.408	2.507	2.616	2.490	2.543	2.806	2.718	2.723	2.832
390.0	108.5	247.8	439.7	578.0	627.7	590.4	547.7	527.0	513.0	523.1	525.9	522.0	513.8	490.4	476.3	450.4	433.4	423.5	411.1	402.8	390.0	373.5	356.3	345.9	365.3	353.7	239.0	162.7	122.9	91.03	68.94	100.2	338.0	950.8	1156	417.2	12.53	1.561	1.132	0.868	0.749	0.658	0.635	0.714	0.643	0.717	0.843	1.133	1.522	1.685	1.767	2.334	2.652	2.572	2.466	2.352	2.516	2.495	2.466	2.407	2.268	2.316	2.333	2.403	2.333	2.342	2.405	2.373	2.341	2.496	2.549	2.389	2.544	2.603	2.726	2.701	2.622
395.0	101.0	231.1	402.1	543.9	597.7	591.1	556.0	535.4	520.5	515.3	524.3	513.3	493.1	475.8	457.3	427.9	418.8	415.7	413.0	400.7	392.4	382.4	362.3	344.9	326.6	337.9	331.3	216.9	148.6	109.9	82.99	68.44	105.5	235.2	533.6	1312	270.3	13.79	1.709	1.001	0.912	0.750	0.790	0.760	0.618	0.756	0.935	1.184	1.472	1.569	1.722	2.246	2.464	2.506	2.393	2.492	2.503	2.464	2.415	2.323	2.345	2.271	2.351	2.286	2.277	2.221	2.230	2.361	2.409	2.476	2.538	2.352	2.485	2.497	2.630	2.425	2.744
400.0	92.53	227.0	399.1	518.3	584.5	592.3	559.2	537.3	522.3	518.7	518.1	504.0	494.1	465.7	438.7	413.1	404.9	405.0	403.6	395.8	387.9	383.1	368.2	348.1	323.1	307.3	336.0	284.2	177.2	129.0	98.45	71.92	61.76	77.90	144.4	720.1	1235	218.4	6.416	1.330	1.164	0.864	0.728	0.738	0.756	0.755	0.834	1.216	1.489	1.651	1.621	2.278	2.289	2.509	2.398	2.390	2.657	2.549	2.472	2.553	2.434	2.341	2.413	2.197	2.203	2.202	2.200	2.370	2.311	2.461	2.305	2.306	2.143	2.587	2.415	2.255	2.667
405.0	91.67	220.0	371.4	502.6	575.3	583.3	562.5	546.6	517.1	517.6	519.5	494.1	480.5	448.4	431.6	407.8	399.1	389.7	388.2	386.7	383.2	378.8	371.6	351.5	325.8	296.5	295.2	325.2	228.5	149.2	113.1	81.81	60.55	49.67	55.78	198.6	847.6	1052	34.92	2.624	1.365	0.954	0.737	0.598	0.646	0.880	0.765	1.249	1.283	1.490	1.588	2.086	2.211	2.335	2.616	2.308	2.720	2.351	2.409	2.574	2.382	2.320	2.401	2.273	2.268	2.399	2.209	2.152	2.115	2.382	2.168	2.290	2.266	2.368	2.356	2.572	2.543
410.0	100.1	215.4	369.0	497.6	568.1	575.3	556.5	542.4	520.2	519.6	507.8	490.6	460.7	429.9	413.6	388.1	380.6	374.0	373.9	372.1	371.5	370.4	361.3	347.1	324.3	295.1	274.1	286.0	284.5	197.1	133.0	97.85	71.49	53.20	43.45	65.68	230.0	658.5	861.9	307.4	10.81	1.231	0.907	0.832	0.745	0.843	0.790	1.170	1.318	1.290	1.619	1.983	2.248	2.254	2.429	2.320	2.646	2.545	2.425	2.417	2.345	2.346	2.283	2.205	2.329	2.349	2.164	2.277	2.059	2.218	2.140	2.206	2.217	2.362	2.232	2.519	2.611
415.0	102.5	198.2	350.2	464.9	540.5	550.7	558.7	537.3	515.1	516.6	488.2	474.3	440.5	417.9	395.9	366.8	359.2	352.2	353.6	353.4	351.9	351.8	345.9	337.4	315.2	298.1	270.9	254.7	262.0	262.0	173.2	113.7	85.04	62.78	48.42	42.36	71.00	162.2	394.3	929.0	236.6	11.44	1.207	1.036	0.841	0.784	0.927	1.118	1.281	1.408	1.491	2.051	2.117	2.319	2.263	2.401	2.551	2.557	2.463	2.346	2.313	2.514	2.420	2.337	2.150	2.109	2.257	2.211	2.191	2.023	2.109	2.039	2.222	2.095	2.274	2.328	2.535
420.0	99.43	190.0	335.4	457.2	533.3	554.4	558.7	546.9	525.2	500.6	477.7	464.3	425.8	399.2	382.4	356.6	342.7	336.7	336.9	340.1	336.2	334.4	333.8	328.9	308.5	290.6	269.8	247.2	234.7	262.7	218.0	129.8	95.82	71.82	53.73	40.47	39.14	51.71	104.2	509.8	896.8	184.8	5.156	1.155	0.862	0.883	0.894	1.116	1.226	1.305	1.588	1.991	2.225	2.272	2.156	2.259	2.577	2.474	2.525	2.274	2.415	2.368	2.290	2.300	2.249	2.083	2.072	1.963	2.096	1.925	2.088	2.153	2.175	2.130	2.040	2.241	2.303
425.0	92.61	191.9	330.9	440.8	521.0	548.0	548.0	551.4	520.0	495.8	473.2	456.0	414.8	387.1	367.9	338.7	333.1	326.2	321.5	320.5	323.1	320.5	318.8	314.4	299.0	285.9	266.9	242.9	226.9	230.4	242.1	161.7	105.6	80.56	61.30	45.96	36.31	29.27	36.66	138.7	602.5	759.9	32.54	2.219	1.190	1.030	0.881	1.026	1.245	1.295	1.505	1.882	2.045	1.992	2.299	2.413	2.686	2.427	2.379	2.280	2.503	2.363	2.554	2.091	2.182	1.965	2.030	1.917	1.865	1.907	2.007	2.163	2.074	1.955	2.012	2.067	2.338
430.0	83.47	187.6	318.8	426.9	509.9	547.6	557.4	552.1	515.3	488.0	464.0	441.2	407.3	375.6	350.0	326.7	315.9	311.7	307.3	305.5	304.0	301.3	302.4	298.4	290.4	277.3	261.0	241.9	226.0	210.7	213.7	201.9	135.8	90.98	70.46	52.52	40.27	29.17	24.28	42.51	160.2	467.2	616.8	134.3	10.24	1.322	1.039	1.093	1.259	1.312	1.428	1.907	2.044	2.103	2.263	2.395	2.505	2.446	2.429	2.371	2.314	2.212	2.363	2.154	2.091	1.983	1.965	1.926	1.977	1.976	1.951	1.911	1.951	2.015	1.975	2.041	2.140
435.0	98.59	176.6	311.3	419.5	506.9	548.5	568.5	566.9	517.7	482.5	453.3	430.5	397.5	363.2	335.7	315.3	304.0	296.8	295.0	293.5	287.2	284.2	283.9	281.3	273.0	265.5	254.3	241.3	225.1	208.7	192.5	190.0	176.9	114.4	80.07	60.42	46.60	34.33	25.52	23.75	45.97	113.1	271.8	694.9	220.5	12.67	1.317	1.289	1.343	1.398	1.439	1.850	1.992	2.196	2.192	2.382	2.494	2.520	2.658	2.402	2.397	2.318	2.213	2.138	1.964	1.947	1.970	1.992	1.944	2.071	1.944	1.755	2.033	1.939	1.753	1.929	1.980
440.0	117.9	180.5	306.2	409.7	502.0	544.2	579.2	579.4	526.3	482.4	439.0	416.4	383.5	355.0	329.3	303.8	297.2	288.3	284.4	280.8	276.9	269.1	272.4	267.2	263.5	256.9	246.8	239.1	225.6	209.3	190.1	171.2	178.9	143.1	90.71	66.41	51.57	37.86	28.69	21.96	22.42	34.24	71.54	387.4	743.3	175.8	5.117	1.364	1.424	1.358	1.439	1.843	2.134	2.081	2.265	2.271	2.537	2.569	2.750	2.686	2.575	2.360	2.202	2.068	2.216	1.798	2.018	2.034	1.856	1.815	2.075	1.584	1.800	1.916	1.895	1.838	2.076
445.0	131.3	189.4	285.4	404.0	504.9	553.1	590.5	578.8	531.2	480.0	434.4	402.9	377.1	340.0	319.2	293.0	286.1	274.9	274.3	271.8	263.3	253.3	256.2	254.2	254.0	248.5	241.0	232.3	221.2	207.5	187.4	162.0	159.1	157.3	108.8	72.75	57.08	42.49	32.44	23.43	19.02	17.79	24.48	104.4	495.2	675.0	27.91	2.668	1.480	1.370	1.553	1.651	1.989	2.214	2.369	2.296	2.512	2.778	2.619	2.596	2.494	2.555	2.132	2.336	2.019	1.862	1.826	1.907	1.911	1.640	1.901	1.696	1.755	1.632	1.881	1.902	1.892
450.0	119.8	279.6	293.0	384.0	473.4	540.8	585.3	568.4	522.4	469.4	419.4	391.0	357.1	326.3	300.8	281.0	269.2	262.7	258.0	256.2	243.3	235.9	235.1	235.3	234.5	233.2	227.4	221.5	214.2	202.1	185.0	158.2	142.2	139.5	129.9	90.72	61.62	46.62	35.87	27.10	21.48	16.83	15.40	31.19	130.2	400.2	570.0	121.2	9.274	1.446	1.553	1.709	2.008	2.094	2.325	2.317	2.632	2.558	2.621	2.456	2.341	2.276	2.117	2.048	1.899	1.989	1.826	1.813	1.903	1.774	1.743	1.636	1.781	1.732	1.791	1.947	1.962
455.0	81.92	350.3	401.4	368.6	448.9	514.0	563.0	547.2	506.2	447.3	399.3	366.8	336.6	304.5	281.2	260.1	256.1	245.9	240.6	234.6	220.8	215.3	214.2	213.5	216.3	212.6	209.8	207.3	202.3	192.5	178.0	154.2	135.9	119.8	119.6	111.4	74.34	50.16	39.11	30.73	24.07	19.07	14.98	16.05	36.37	95.73	240.3	564.9	182.8	9.721	1.647	1.810	2.035	2.052	2.262	2.058	2.476	2.526	2.566	2.552	2.460	2.255	2.070	1.849	1.837	2.018	1.834	1.831	1.722	1.647	1.677	1.705	1.653	1.638	1.641	1.729	1.919
460.0	71.22	301.7	621.9	373.4	432.3	504.3	539.6	531.8	483.4	422.5	383.0	351.8	315.4	292.1	268.4	248.7	238.4	227.7	226.4	219.0	207.0	197.7	200.2	201.2	199.3	201.2	197.0	197.1	192.3	185.9	171.6	149.6	131.7	114.7	104.5	108.3	88.21	54.45	41.16	33.07	25.49	20.92	16.27	13.33	15.39	27.18	61.32	304.1	557.1	130.2	4.974	1.815	2.023	2.027	2.101	2.081	2.636	2.553	2.462	2.315	2.205	2.094	1.949	1.815	1.798	2.006	1.804	1.646	1.605	1.450	1.669	1.426	1.728	1.670	1.542	1.565	1.646
465.0	74.40	209.4	767.4	528.2	414.4	479.7	516.0	510.6	462.0	407.5	361.8	334.0	303.2	277.7	246.2	234.7	223.7	214.1	210.7	204.1	194.4	184.5	181.0	184.0	186.6	186.1	185.4	185.1	180.1	175.7	162.4	144.5	125.6	110.5	95.97	92.37	95.59	63.19	43.50	34.51	27.33	22.24	17.82	13.82	11.56	12.72	18.75	80.13	367.7	475.0	101.0	2.949	1.983	2.035	2.046	2.170	2.345	2.285	2.324	2.451	2.110	1.894	1.886	1.738	1.765	1.790	1.578	1.658	1.550	1.480	1.663	1.642	1.534	1.604	1.629	1.677	1.692
470.0	76.50	146.1	566.1	894.9	452.5	435.4	476.9	474.7	423.0	369.4	335.9	302.7	276.2	253.5	228.1	214.9	201.9	194.5	189.7	183.2	173.1	165.3	162.7	165.1	166.8	167.3	166.3	166.8	163.4	161.6	152.3	133.7	116.9	103.1	87.84	77.62	80.26	72.89	52.27	36.00	27.77	22.95	18.65	14.60	11.78	10.02	9.761	22.46	96.04	285.9	381.2	109.5	10.61	2.126	1.935	2.108	2.229	2.269	2.128	2.271	2.228	2.024	1.944	1.685	1.604	1.578	1.616	1.668	1.388	1.577	1.435	1.559	1.378	1.375	1.412	1.443	1.516
475.0	66.51	121.5	280.7	1037	827.5	386.3	421.3	421.4	389.4	338.1	301.9	279.4	247.0	228.0	210.4	189.7	179.3	173.2	168.2	163.8	153.2	144.7	143.3	141.9	145.2	148.2	144.5	145.8	147.5	143.1	136.2	119.9	108.7	95.04	81.29	70.34	64.14	65.11	62.05	41.33	28.34	23.75	19.58	15.24	12.57	9.861	8.419	9.649	25.22	67.67	152.1	372.9	183.6	12.77	1.896	1.951	1.991	2.127	2.012	1.880	1.922	1.912	1.662	1.674	1.683	1.518	1.455	1.498	1.351	1.308	1.318	1.318	1.362	1.274	1.428	1.244	1.350
480.0	69.15	120.4	204.8	721.0	1224	425.8	389.1	389.1	362.5	314.2	276.4	257.8	233.4	211.6	195.2	176.0	166.7	157.5	153.9	147.0	140.1	131.9	130.8	130.1	131.7	133.5	133.6	134.7	136.5	132.7	125.0	113.9	100.5	88.43	75.90	66.21	57.24	54.81	59.44	48.52	30.46	23.62	19.16	15.37	12.92	10.22	8.284	7.017	9.750	18.66	38.48	189.1	407.9	148.8	6.724	1.988	1.898	1.831	2.035	1.945	1.867	1.869	1.628	1.453	1.498	1.474	1.379	1.310	1.258	1.151	1.208	1.192	1.316	1.176	1.207	1.227	1.356
485.0	63.73	114.1	178.1	392.9	1334	671.5	359.0	365.0	331.1	289.9	262.3	241.1	217.6	198.0	179.1	161.5	154.6	143.9	141.6	135.8	126.6	121.6	120.0	118.5	120.9	122.4	124.0	122.9	125.6	121.0	116.8	106.2	95.20	82.89	72.04	62.70	54.63	47.82	50.39	52.59	35.01	23.74	19.86	15.96	13.46	10.60	8.295	7.138	6.811	8.039	11.56	50.04	238.8	391.2	28.58	3.359	1.908	1.759	1.929	1.768	1.698	1.736	1.618	1.435	1.427	1.336	1.294	1.173	1.160	1.138	1.134	1.161	1.208	1.327	1.249	1.115	1.260
490.0	63.23	128.6	155.9	247.9	839.4	1223	398.6	323.9	304.5	264.7	243.1	219.7	198.4	178.4	162.8	148.2	140.1	131.3	127.6	121.6	114.5	108.9	105.9	106.6	107.5	108.5	110.0	110.1	113.4	110.1	105.4	96.22	86.22	77.02	67.08	58.39	51.14	43.73	41.40	44.06	42.25	28.38	20.33	16.00	13.64	11.12	8.971	7.438	6.352	5.615	5.822	14.27	60.70	194.2	303.5	115.5	10.76	1.955	1.810	1.692	1.654	1.539	1.574	1.351	1.385	1.226	1.232	1.200	1.137	1.140	1.112	1.137	1.230	1.293	1.079	1.135	1.086
495.0	52.31	129.6	163.3	195.4	372.7	1219	839.7	284.3	267.9	237.3	219.4	195.7	176.9	162.3	145.4	134.0	125.2	118.3	113.1	107.4	100.7	95.91	93.97	94.52	96.23	94.86	97.47	96.83	99.08	98.49	94.89	86.65	76.99	70.80	62.43	53.25	47.53	40.40	36.36	34.24	37.31	35.44	24.09	15.92	13.63	11.24	9.457	7.849	7.060	5.508	4.901	6.056	16.54	46.45	115.5	328.8	189.1	11.45	1.880	1.742	1.545	1.351	1.420	1.335	1.257	1.222	1.182	1.114	1.182	1.043	1.202	1.103	1.357	1.196	0.978	1.174	1.267
500.0	49.20	108.3	176.4	180.3	239.0	788.2	1281	317.9	237.7	216.8	199.5	179.1	165.8	145.7	133.3	121.5	112.1	108.0	101.4	98.49	91.09	85.89	82.84	84.97	86.81	86.36	88.16	87.68	89.85	89.75	85.74	78.93	71.42	63.78	56.39	49.88	44.97	38.20	33.59	30.30	30.68	35.17	28.59	17.44	13.96	11.24	9.522	7.856	7.146	5.680	4.912	4.811	6.737	13.36	29.22	154.1	370.7	133.0	5.127	1.550	1.443	1.341	1.241	1.213	1.079	1.174	1.155	1.078	1.002	1.014	1.071	1.066	1.193	0.982	1.135	1.028	1.213
505.0	44.07	75.54	180.1	170.2	193.1	406.7	1381	561.0	220.9	196.8	183.7	166.4	150.1	135.0	120.2	109.1	103.3	97.56	92.25	88.78	82.10	77.90	74.11	76.65	77.71	78.58	80.01	79.95	81.66	80.41	78.57	72.33	65.14	57.34	52.71	46.68	41.54	35.66	31.14	27.48	25.55	29.50	30.97	20.96	14.20	11.39	9.594	8.128	6.822	6.103	4.868	4.529	4.596	5.825	9.146	39.72	210.0	334.8	29.20	2.380	1.509	1.171	1.213	1.153	1.091	1.126	1.045	1.055	0.882	1.070	1.041	1.013	0.975	0.886	1.051	0.951	1.012
510.0	44.61	62.11	148.0	188.2	173.3	234.4	807.1	1139	259.3	174.2	160.9	149.7	134.3	120.8	107.1	96.18	89.74	84.63	81.31	77.00	70.39	67.24	66.53	67.20	68.12	68.18	68.62	69.39	71.30	70.77	68.43	62.34	57.11	50.93	46.25	41.34	36.82	31.97	28.53	24.54	22.52	22.13	26.10	25.47	16.69	11.43	9.243	8.173	6.829	5.973	5.300	4.362	4.122	4.148	4.669	11.47	53.26	171.8	223.8	107.0	8.141	1.251	1.162	1.120	1.089	1.037	1.041	1.066	0.887	0.998	0.979	0.946	0.903	0.937	0.887	0.877	0.948
515.0	44.76	56.02	93.90	198.9	167.0	170.7	325.5	1135	672.3	153.0	137.6	128.0	116.1	102.6	93.59	83.05	77.51	71.87	69.55	64.67	62.31	57.87	57.52	56.90	57.39	56.68	58.30	59.47	60.27	60.08	59.71	52.87	49.16	45.28	39.63	36.49	31.64	28.59	24.83	21.40	19.89	17.53	18.35	22.49	21.12	13.12	9.077	7.607	6.549	5.620	5.332	4.822	4.183	3.749	3.598	4.819	13.84	40.48	88.28	252.8	140.3	7.167	1.192	1.048	1.138	0.895	1.036	0.981	0.790	0.884	0.786	0.856	0.852	0.854	0.829	0.775	0.978
520.0	36.32	52.82	80.86	166.6	187.3	139.0	189.7	699.4	1144	182.4	123.8	115.0	106.7	92.07	83.19	76.11	68.76	65.52	60.79	56.71	55.19	49.92	51.58	50.42	51.10	51.57	51.34	52.42	53.48	53.91	52.80	47.32	43.51	39.95	35.22	32.60	28.76	25.10	23.14	19.78	18.58	15.75	14.93	17.78	21.04	15.59	9.135	7.108	6.448	5.195	4.942	4.706	4.221	3.600	3.314	3.390	5.114	11.05	22.16	122.1	259.9	30.69	2.900	1.017	1.107	0.847	1.000	0.790	0.738	0.751	0.860	0.749	0.890	0.748	0.829	0.819	0.966
525.0	34.22	52.48	73.38	125.6	202.9	140.4	147.1	324.7	1289	285.3	111.2	107.0	93.72	86.19	76.98	66.56	60.29	58.32	54.01	51.69	47.85	45.70	44.86	44.45	46.24	45.83	45.71	46.21	48.14	47.81	46.35	42.85	38.96	35.51	32.14	29.74	25.82	23.44	20.52	18.24	16.86	14.62	13.38	13.62	17.53	18.14	11.06	7.371	6.196	5.131	4.581	4.312	4.073	3.808	3.096	3.007	3.347	4.298	6.690	31.80	153.1	216.3	25.98	1.451	1.066	0.850	0.839	0.756	0.755	0.835	0.798	0.777	0.767	0.675	0.811	0.792	0.834
530.0	36.41	47.87	65.04	91.07	179.5	156.2	122.4	164.3	729.5	1003	158.9	91.01	83.26	74.27	66.16	58.14	52.78	49.93	47.02	44.76	41.16	39.69	38.61	38.60	39.24	38.88	39.23	39.62	40.93	41.16	39.81	36.93	34.05	30.69	28.38	25.52	23.00	20.98	18.61	16.51	15.02	12.94	12.07	11.10	12.10	15.34	13.68	8.612	5.859	4.918	4.337	3.876	3.782	3.864	3.192	2.965	2.685	2.714	2.985	8.616	38.87	120.1	175.7	75.44	4.946	0.800	0.901	0.735	0.763	0.738	0.787	0.713	0.728	0.697	0.698	0.716	0.872
535.0	35.32	42.74	52.87	69.35	127.3	176.0	111.8	115.7	251.5	1079	589.8	80.41	72.92	61.62	54.86	48.02	44.31	41.55	39.03	38.34	35.45	33.75	31.98	33.23	33.06	33.09	33.05	32.74	34.46	35.40	33.93	31.64	29.24	27.12	24.42	21.22	19.67	17.93	16.18	14.13	13.05	11.83	10.63	9.906	9.066	10.23	12.95	11.51	6.578	4.644	4.003	3.716	3.401	3.270	3.386	2.886	2.350	2.184	1.948	3.139	9.940	28.04	71.12	191.0	31.56	3.425	0.950	0.758	0.677	0.729	0.742	0.729	0.788	0.695	0.663	0.735	0.802
540.0	33.30	35.79	46.70	59.96	84.95	179.2	121.7	94.92	120.8	614.0	1101	112.3	65.02	53.91	50.54	44.31	39.92	36.67	35.89	33.49	31.45	29.27	29.41	28.80	28.84	28.85	29.54	29.87	30.35	30.35	29.46	27.49	25.95	23.64	21.54	19.20	17.58	15.62	14.78	12.92	11.42	10.55	9.836	8.791	7.754	7.891	10.34	12.04	8.003	4.811	3.833	3.652	3.286	2.970	3.209	3.106	2.435	2.256	1.797	1.871	3.485	7.481	17.67	97.64	170.2	27.67	1.464	0.737	0.693	0.598	0.653	0.681	0.838	0.787	0.556	0.712	0.739
545.0	32.64	32.56	46.15	49.91	67.68	141.3	141.3	85.61	87.61	250.9	1235	219.2	59.95	49.25	43.71	39.36	35.62	33.57	31.85	31.02	28.14	26.70	26.47	25.73	26.11	25.79	26.32	26.35	27.39	26.38	25.91	24.47	23.02	21.74	19.54	17.06	16.03	14.37	12.78	11.59	10.82	9.887	8.886	7.862	7.116	6.663	7.359	10.28	9.397	5.617	3.829	3.300	3.074	2.876	2.947	2.993	2.732	2.260	1.753	1.613	1.949	2.912	4.917	25.45	114.6	151.7	20.81	0.879	0.702	0.720	0.621	0.800	0.653	0.635	0.483	0.764	0.598
550.0	31.91	32.64	43.83	49.82	56.42	91.50	156.9	88.09	70.79	109.6	646.4	896.1	109.4	44.23	37.27	34.00	30.96	28.73	27.01	26.02	23.79	22.76	22.12	21.86	21.95	22.33	22.40	22.84	23.10	23.09	22.77	21.50	19.77	18.17	16.64	14.94	13.84	12.54	11.47	10.14	9.601	8.516	7.660	7.065	6.491	6.146	5.596	6.794	8.619	7.122	4.550	3.121	2.882	2.698	2.625	2.380	2.484	2.336	1.780	1.461	1.542	1.735	2.108	6.605	29.41	91.44	120.2	48.73	2.960	0.722	0.618	0.713	0.716	0.713	0.650	0.684	0.667
555.0	33.30	31.25	39.91	42.23	47.56	57.89	124.9	115.4	59.99	69.35	203.0	937.3	536.9	40.73	31.76	29.73	25.35	23.69	23.20	20.81	19.91	19.32	18.78	18.55	18.01	18.18	18.71	19.01	18.99	19.83	18.66	18.13	16.88	14.89	13.76	12.41	11.74	10.66	9.891	8.587	7.867	7.248	7.017	6.029	6.019	5.092	4.523	4.777	6.284	7.431	6.045	3.598	2.637	2.271	2.450	2.117	2.096	2.212	2.183	1.504	1.363	1.288	1.422	2.367	7.399	21.39	52.27	131.9	30.04	2.140	0.612	0.651	0.594	0.648	0.688	0.615	0.683
560.0	32.76	34.97	35.11	38.18	43.94	47.12	88.44	140.3	58.67	55.29	85.97	507.7	974.4	70.41	29.04	25.89	22.31	21.52	19.60	18.37	17.58	17.12	17.24	16.12	16.63	15.95	16.02	16.59	16.55	16.96	16.21	16.03	14.77	13.45	12.32	10.92	10.37	9.128	8.660	7.792	6.760	6.329	6.168	5.399	5.067	4.735	4.260	3.954	4.255	6.041	6.561	4.534	2.553	2.297	2.110	1.896	1.811	1.662	2.084	1.738	1.336	1.282	1.137	1.408	2.375	5.501	13.28	71.54	118.0	23.02	1.060	0.586	0.585	0.678	0.578	0.661	0.627
565.0	32.10	32.64	30.84	37.02	40.03	40.53	57.95	138.6	71.97	49.40	57.30	193.7	1022	161.7	26.55	22.61	19.33	19.11	17.62	16.35	15.25	15.04	14.87	15.13	14.67	13.73	14.23	14.28	14.61	14.83	14.16	13.62	12.33	11.47	10.34	9.924	8.733	8.193	7.420	7.158	6.072	5.662	5.310	5.074	4.365	4.173	3.711	3.514	3.451	4.154	5.636	5.213	3.000	2.229	1.909	1.688	1.802	1.545	1.820	1.910	1.493	1.215	1.113	1.096	1.310	1.923	3.796	19.32	82.95	99.05	15.19	0.652	0.656	0.587	0.587	0.682	0.607
570.0	30.06	33.00	30.12	31.78	31.22	36.08	40.23	94.77	106.3	49.94	48.90	79.27	486.2	729.5	67.52	18.49	16.52	15.63	14.84	13.73	12.85	11.97	12.11	11.70	11.27	11.04	11.36	11.72	11.60	11.70	11.68	10.83	10.08	9.065	8.301	7.893	6.994	6.556	6.175	5.740	5.156	4.725	4.296	4.419	3.714	3.500	3.095	2.867	2.760	2.752	3.628	4.605	3.820	2.514	1.750	1.563	1.573	1.433	1.512	1.574	1.655	1.210	1.079	0.996	0.988	1.094	1.531	5.021	21.99	63.48	76.83	18.02	1.197	0.524	0.668	0.624	0.536
575.0	33.61	29.16	34.12	26.67	25.94	28.01	30.70	52.95	116.9	66.39	47.15	54.15	145.8	685.2	406.0	18.05	13.05	12.26	11.62	10.37	10.77	9.615	9.792	9.500	8.715	8.715	9.057	9.027	9.300	9.326	8.886	8.698	7.921	7.137	6.660	5.805	5.797	4.986	4.831	4.606	4.285	3.948	3.606	3.319	3.134	2.966	2.394	2.347	2.248	2.023	2.191	3.047	3.740	2.984	1.796	1.433	1.250	1.264	1.171	1.261	1.546	1.581	1.130	0.883	0.853	0.922	0.921	1.790	5.477	14.84	34.77	76.37	21.33	0.707	0.513	0.506	0.602
580.0	36.16	34.71	33.54	27.64	23.91	24.91	27.63	33.88	97.26	94.16	48.50	48.50	61.51	334.9	735.9	36.67	11.40	10.43	10.15	8.907	8.219	8.165	8.287	7.524	7.278	7.295	7.215	7.742	7.301	7.599	7.156	6.963	6.604	5.987	5.480	5.061	4.644	4.265	3.853	3.710	3.543	3.295	3.033	3.005	2.449	2.449	2.050	1.930	1.686	1.726	1.702	2.031	3.040	3.131	2.030	1.397	1.150	1.075	1.117	1.043	1.211	1.365	1.435	1.000	0.891	0.896	0.838	1.017	1.675	3.936	8.882	46.55	66.19	9.382	0.612	0.614	0.523
585.0	34.81	34.27	33.93	28.41	22.81	22.56	25.14	29.58	66.88	118.2	52.01	48.42	43.96	116.0	734.7	113.0	9.349	8.479	9.116	7.915	7.281	7.154	6.625	6.284	6.298	6.125	5.916	6.190	6.080	6.018	6.060	5.768	5.597	5.268	4.622	4.454	4.080	3.678	3.433	3.167	2.867	2.742	2.656	2.653	2.153	2.136	1.862	1.825	1.506	1.513	1.396	1.649	2.095	2.877	2.413	1.465	1.121	1.213	1.139	0.981	0.856	1.035	1.328	1.015	0.802	0.917	0.876	0.844	0.911	1.418	2.591	12.79	53.68	33.64	5.348	0.608	0.515
590.0	33.28	33.47	31.63	26.25	20.81	18.84	23.86	26.79	42.09	108.3	77.64	46.30	39.77	45.87	320.7	508.6	34.38	7.579	6.884	6.007	5.854	5.759	5.522	5.013	4.967	4.963	5.100	4.981	4.956	5.238	4.774	4.590	4.337	4.174	3.679	3.667	3.275	3.257	2.733	2.587	2.347	2.234	2.210	2.124	1.943	1.814	1.590	1.494	1.350	1.330	1.196	1.272	1.399	1.935	2.314	1.941	1.239	0.986	0.938	0.954	1.028	0.826	1.029	1.177	1.027	0.811	0.782	0.779	0.726	0.826	1.111	3.420	15.22	35.76	36.65	9.640	0.717
595.0	31.73	35.33	26.66	24.39	18.64	19.22	22.09	25.10	30.53	70.66	107.2	51.32	38.40	27.98	85.92	472.6	237.9	7.004	5.935	5.334	4.840	4.460	4.224	4.407	4.020	3.839	3.858	3.948	3.823	4.027	4.199	3.709	3.228	3.183	2.953	2.828	2.787	2.648	2.181	2.190	1.846	1.847	1.693	1.737	1.550	1.517	1.384	1.224	1.160	1.096	1.083	1.087	1.000	1.179	1.605	2.062	1.559	1.096	0.795	0.890	0.910	0.725	0.861	0.913	1.149	0.824	0.662	0.836	0.758	0.772	0.792	1.246	3.880	8.796	23.03	40.86	10.12
600.0	28.11	31.74	30.61	25.90	16.31	17.55	19.06	25.09	30.21	49.79	113.1	63.61	37.85	23.40	30.48	218.7	466.1	17.61	5.195	4.391	4.123	3.753	3.496	3.773	3.779	3.638	3.257	3.201	3.209	3.533	3.222	3.073	2.914	2.698	2.336	2.502	2.179	2.181	2.043	1.733	1.828	1.623	1.539	1.443	1.288	1.253	1.241	1.255	1.060	0.880	0.893	0.904	0.845	0.941	1.181	1.805	1.737	1.125	0.782	0.821	0.782	0.786	0.864	0.763	0.996	0.998	0.813	0.719	0.740	0.661	0.672	0.757	1.451	2.385	6.536	29.48	33.85
605.0	27.11	34.03	29.50	22.36	17.72	19.58	19.48	22.89	29.22	41.50	96.48	86.28	41.61	25.73	20.27	71.74	494.6	77.98	5.433	4.237	3.753	3.696	3.081	3.088	3.219	2.951	2.959	2.798	2.795	2.950	2.797	2.931	2.616	2.278	2.060	2.044	1.844	1.848	1.617	1.538	1.632	1.468	1.389	1.284	1.151	1.196	1.124	0.994	0.970	0.851	0.704	0.850	0.776	0.689	0.896	1.156	1.652	1.341	0.955	0.824	0.743	0.705	0.755	0.758	0.909	1.086	0.992	0.768	0.794	0.606	0.593	0.731	0.814	0.936	2.007	8.944	30.45
610.0	31.75	33.52	26.64	22.35	16.53	19.57	20.03	26.15	31.55	44.98	74.06	114.2	58.56	32.47	24.39	31.11	233.1	337.9	20.73	3.759	3.088	3.040	2.919	2.841	2.483	2.591	2.628	2.549	2.427	2.546	2.236	2.302	2.200	2.157	1.819	1.553	1.622	1.628	1.459	1.364	1.355	1.273	1.225	1.064	1.062	1.056	0.964	0.893	0.807	0.791	0.666	0.774	0.682	0.698	0.688	0.858	1.324	1.428	1.092	0.838	0.684	0.697	0.739	0.663	0.838	0.849	0.960	0.916	0.787	0.727	0.631	0.636	0.728	0.736	0.994	2.432	9.054
615.0	36.15	31.45	27.53	23.00	16.68	15.97	23.49	27.23	34.14	44.56	60.22	105.5	82.71	36.65	27.27	24.00	69.09	336.2	151.9	3.533	3.063	2.417	2.556	2.391	2.195	2.031	2.178	1.993	1.937	2.086	2.044	1.769	1.766	1.593	1.604	1.299	1.317	1.366	1.356	1.220	1.097	1.072	1.028	0.920	0.813	0.869	0.889	0.750	0.749	0.636	0.554	0.668	0.705	0.582	0.654	0.637	1.014	1.238	1.155	0.819	0.695	0.561	0.662	0.712	0.796	0.805	0.777	0.999	0.882	0.713	0.544	0.626	0.683	0.663	0.763	1.021	2.570
620.0	31.93	29.95	26.87	23.14	15.91	19.63	20.58	26.08	35.90	42.99	55.37	79.03	96.37	39.98	26.88	22.46	28.88	173.7	314.3	9.269	2.908	2.511	2.230	2.139	1.953	1.888	1.984	1.963	1.785	1.875	2.036	1.789	1.491	1.528	1.375	1.232	1.210	1.110	1.208	1.213	1.025	1.022	0.808	0.955	0.724	0.829	0.665	0.704	0.736	0.608	0.551	0.673	0.734	0.552	0.624	0.575	0.701	0.907	1.310	0.891	0.806	0.699	0.673	0.692	0.703	0.772	0.802	0.836	1.052	0.822	0.600	0.638	0.707	0.706	0.691	0.681	1.018
625.0	31.79	31.18	25.33	21.45	18.02	17.52	20.26	23.64	30.99	40.74	51.59	62.87	96.03	44.22	26.32	20.31	19.65	60.56	355.5	54.91	2.426	2.099	2.041	1.733	1.787	1.742	1.876	1.718	1.488	1.754	1.718	1.611	1.367	1.376	1.212	1.077	1.204	1.031	1.224	1.068	0.940	0.923	0.890	0.878	0.673	0.735	0.745	0.646	0.610	0.588	0.572	0.551	0.579	0.616	0.575	0.581	0.540	0.818	1.154	1.018	0.892	0.688	0.722	0.668	0.677	0.646	0.746	0.716	0.813	0.838	0.573	0.570	0.632	0.657	0.634	0.552	0.635
630.0	32.31	28.58	24.41	19.87	16.77	17.71	20.05	24.03	29.94	39.44	47.41	53.02	73.33	62.09	27.53	19.61	18.20	24.61	174.9	233.9	10.30	2.096	1.743	1.565	1.656	1.574	1.490	1.588	1.628	1.494	1.449	1.269	1.277	1.126	1.182	0.988	0.927	0.941	0.909	0.904	0.851	0.788	0.766	0.669	0.585	0.672	0.631	0.636	0.549	0.513	0.503	0.525	0.537	0.557	0.587	0.544	0.550	0.631	0.802	1.044	0.926	0.779	0.688	0.655	0.679	0.710	0.622	0.645	0.717	0.828	0.767	0.609	0.566	0.646	0.527	0.531	0.582
635.0	26.93	27.21	21.61	20.90	18.24	19.16	19.49	23.78	27.49	36.59	43.95	48.23	51.93	69.67	35.63	19.44	18.76	14.94	46.48	256.6	65.58	2.161	1.450	1.523	1.503	1.322	1.398	1.318	1.462	1.297	1.283	1.187	1.062	1.114	0.901	0.930	0.857	0.808	0.749	0.893	0.747	0.637	0.739	0.641	0.600	0.639	0.464	0.735	0.621	0.444	0.487	0.450	0.514	0.557	0.562	0.499	0.583	0.603	0.600	0.806	0.821	0.830	0.676	0.606	0.637	0.698	0.574	0.616	0.735	0.756	0.747	0.704	0.629	0.667	0.505	0.557	0.567
640.0	29.25	24.84	22.70	20.03	18.06	18.20	19.43	22.48	28.58	35.51	42.81	47.87	45.33	63.24	46.03	20.72	17.36	13.98	15.78	138.3	206.1	4.403	1.695	1.332	1.531	1.324	1.310	1.259	1.375	1.313	1.216	0.976	0.956	1.091	0.888	0.833	0.910	0.749	0.698	0.835	0.781	0.625	0.698	0.608	0.610	0.566	0.475	0.603	0.557	0.446	0.450	0.452	0.422	0.550	0.417	0.518	0.541	0.515	0.548	0.670	0.692	0.748	0.648	0.633	0.669	0.646	0.632	0.703	0.664	0.676	0.728	0.660	0.639	0.552	0.801	0.653	0.550
645.0	31.14	30.07	28.72	22.04	18.58	16.81	16.87	22.99	27.76	35.92	40.79	45.35	44.40	50.76	54.47	22.89	18.07	13.47	8.795	45.19	263.5	34.16	1.641	1.373	1.293	1.233	1.061	1.113	1.219	1.052	0.994	0.856	1.003	0.903	0.949	0.695	0.763	0.710	0.723	0.599	0.722	0.689	0.575	0.517	0.522	0.574	0.489	0.525	0.495	0.415	0.454	0.416	0.383	0.525	0.439	0.501	0.502	0.631	0.547	0.549	0.718	0.742	0.667	0.606	0.644	0.629	0.547	0.601	0.780	0.629	0.669	0.696	0.804	0.523	0.582	0.587	0.578
650.0	30.21	32.25	35.48	23.02	18.58	17.78	17.48	23.79	27.78	34.07	38.03	44.18	42.20	41.57	57.33	27.36	17.35	13.93	6.809	14.41	189.0	120.5	2.118	1.403	1.222	1.209	1.099	1.222	1.076	1.234	0.963	0.951	0.972	0.900	0.686	0.734	0.821	0.866	0.659	0.602	0.633	0.619	0.519	0.582	0.542	0.527	0.436	0.515	0.531	0.406	0.462	0.432	0.471	0.450	0.454	0.471	0.522	0.497	0.551	0.590	0.620	0.691	0.733	0.640	0.639	0.655	0.588	0.651	0.681	0.722	0.591	0.591	0.799	0.719	0.607	0.570	0.653
