Sample:	'1
File name:	G2025051316巴德士调节池 125倍.FD3
Run date:	'15:21:51, 05/20/2025
Operator:	Administrator
Comment:	'

Instrument
Model:	F-2700 FL Spectrophotometer
Serial number:	23B8-004
ROM Version:	4J14000 07

Instrument parameters
Measurement type:	3-D scan
Data mode:	Fluorescence
EX  Start WL:	220.0 nm
EX  End WL:	600.0 nm
EX Sampling interval:	5.0 nm
EM  Start WL:	230.0 nm
EM  End WL:	650.0 nm
EM Sampling interval:	5.0 nm
Scan speed:	12000 nm/min
EX Slit:	5.0 nm
EM Slit:	5.0 nm
PMT Voltage:	700 V
Response:	Auto 
Corrected spectra:	Off
Contour interval:	50.000

Peak integration
Integration method:	Rectangular
Sensitivity:	1
Threshold:	1.000

Peaks
No.	ApexEX/EM(nm)	Height(Data)
1	260.0/575.0	261.1
2	265.0/445.0	115.6
3	265.0/585.0	225.2
4	270.0/600.0	157.3
5	275.0/610.0	110.5
6	280.0/625.0	90.21
7	285.0/315.0	871.6
8	285.0/635.0	67.92
9	290.0/325.0	694.5
10	295.0/330.0	527.8
11	300.0/335.0	476.0
12	305.0/345.0	396.5
13	310.0/350.0	313.1
14	315.0/355.0	285.7
15	320.0/360.0	254.9
16	325.0/370.0	203.2
17	330.0/375.0	191.8
18	335.0/380.0	187.7
19	340.0/385.0	153.9
20	350.0/400.0	135.8
21	355.0/405.0	127.0
22	360.0/410.0	112.5
23	365.0/420.0	106.8
24	370.0/425.0	98.97
25	375.0/430.0	81.79
26	380.0/435.0	75.13
27	385.0/445.0	64.32
28	385.0/580.0	8.377
29	390.0/450.0	52.59
30	390.0/590.0	8.855
31	395.0/300.0	32.33
32	395.0/455.0	45.25
33	395.0/595.0	9.343
34	400.0/465.0	40.49
35	400.0/605.0	10.26
36	405.0/470.0	31.45
37	405.0/610.0	9.558
38	410.0/475.0	27.29
39	410.0/620.0	9.476
40	415.0/485.0	23.26
41	415.0/625.0	8.723
42	420.0/490.0	19.60
43	420.0/635.0	8.144
44	425.0/495.0	17.99
45	425.0/640.0	9.233
46	430.0/505.0	16.17
47	435.0/510.0	13.50
48	440.0/520.0	12.55
49	445.0/525.0	11.59
50	455.0/540.0	8.346
51	465.0/555.0	5.523
52	470.0/560.0	4.942
53	590.0/390.0	4.204

Data points
	220.0	225.0	230.0	235.0	240.0	245.0	250.0	255.0	260.0	265.0	270.0	275.0	280.0	285.0	290.0	295.0	300.0	305.0	310.0	315.0	320.0	325.0	330.0	335.0	340.0	345.0	350.0	355.0	360.0	365.0	370.0	375.0	380.0	385.0	390.0	395.0	400.0	405.0	410.0	415.0	420.0	425.0	430.0	435.0	440.0	445.0	450.0	455.0	460.0	465.0	470.0	475.0	480.0	485.0	490.0	495.0	500.0	505.0	510.0	515.0	520.0	525.0	530.0	535.0	540.0	545.0	550.0	555.0	560.0	565.0	570.0	575.0	580.0	585.0	590.0	595.0	600.0
230.0	1498	9999.9	9999.9	9999.9	1997	190.9	136.4	105.9	91.65	82.36	77.04	70.93	59.35	49.59	40.93	33.35	29.66	27.00	23.92	20.83	18.17	16.12	14.66	13.31	11.92	10.72	9.334	8.698	8.129	7.679	7.128	6.499	6.499	5.783	5.332	4.670	4.163	3.810	3.424	3.371	3.250	3.481	3.491	3.317	3.270	3.585	60.97	392.4	717.2	529.6	169.3	14.14	3.931	2.216	1.998	1.847	1.806	1.670	1.514	1.405	1.410	1.255	1.265	1.205	1.146	1.136	1.105	1.090	0.928	1.002	0.893	0.884	0.898	0.846	0.816	0.736	0.819
235.0	952.7	4499	9999.9	9999.9	9999.9	545.2	197.2	149.4	119.2	100.5	89.96	80.56	65.48	55.24	44.45	36.67	31.60	27.72	24.50	22.21	19.58	17.02	14.95	13.96	12.36	11.67	10.59	9.187	8.574	8.309	7.503	6.701	6.087	6.119	5.625	4.934	4.493	4.081	4.096	3.293	3.347	3.045	3.578	3.537	3.376	3.395	15.98	94.30	235.3	409.8	596.8	648.5	173.3	19.30	4.468	2.468	2.356	2.135	1.774	1.737	1.608	1.463	1.490	1.368	1.302	1.225	1.206	1.138	1.099	1.099	1.050	1.052	0.967	0.866	0.974	0.891	0.855
240.0	857.9	1606	7719	9999.9	9999.9	9999.9	421.2	211.0	155.2	128.6	108.0	91.39	73.65	61.94	50.84	40.29	34.35	29.25	26.83	23.53	20.55	17.43	16.13	15.20	13.09	11.91	11.32	9.850	9.166	8.121	7.637	7.133	6.519	6.224	5.936	5.243	4.607	3.906	4.047	3.477	3.319	3.391	2.986	3.678	3.883	3.749	6.135	23.68	55.59	108.3	280.1	716.3	880.0	641.3	27.80	14.95	3.548	2.669	2.215	2.095	1.912	1.723	1.719	1.562	1.413	1.367	1.363	1.284	1.251	1.232	1.145	1.231	1.136	0.999	1.061	1.037	0.927
245.0	714.7	1043	2293	9999.9	9999.9	9999.9	9999.9	355.7	213.2	166.1	131.9	108.4	83.96	70.25	55.10	45.69	37.95	32.41	28.16	24.33	21.03	18.49	17.49	15.82	15.21	13.46	11.87	10.43	9.284	8.669	8.214	7.530	6.785	6.656	5.942	5.774	5.017	4.543	4.205	3.837	3.664	3.339	3.342	3.520	3.403	3.697	4.367	8.358	15.05	26.54	66.47	216.9	555.7	1012	989.0	217.5	26.28	9.928	3.391	2.583	2.556	2.286	2.133	1.931	1.693	1.683	1.577	1.510	1.339	1.365	1.189	1.350	1.152	1.178	1.094	1.128	1.025
250.0	648.3	780.0	1163	2830	9999.9	9999.9	9999.9	9999.9	1246	257.8	198.8	149.3	111.2	87.55	66.54	53.18	44.57	38.33	31.95	28.07	23.57	20.16	18.44	17.35	16.13	14.67	13.32	11.81	11.00	10.06	8.918	8.376	7.275	7.161	6.399	5.905	5.633	5.246	4.725	4.317	4.046	3.955	3.688	3.574	3.549	3.460	3.873	4.901	6.433	8.877	17.43	51.39	131.4	302.6	564.0	813.7	1132	895.6	548.1	17.88	9.275	3.582	3.093	2.713	2.640	2.450	2.011	2.000	1.854	1.897	1.637	1.617	1.468	1.386	1.420	1.417	1.578
255.0	648.4	611.1	774.6	1302	2757	6467	9999.9	9999.9	9999.9	1545	331.5	217.3	158.9	118.1	86.97	65.63	54.07	45.12	38.68	32.96	28.44	23.98	20.55	19.31	18.03	16.57	15.26	13.23	12.58	11.56	10.35	8.941	8.030	7.853	6.845	6.451	6.249	5.927	5.700	5.054	4.617	4.324	4.048	4.088	3.938	3.672	3.668	3.942	4.139	4.855	7.245	15.10	32.51	70.57	129.3	192.4	393.4	932.1	1768	1685	234.7	26.39	10.69	4.738	3.964	3.296	3.083	2.645	2.480	2.176	2.235	2.178	1.903	1.871	1.803	1.746	1.633
260.0	684.2	584.1	589.4	874.9	1251	2042	9999.9	9999.9	9999.9	9999.9	1088	326.2	223.2	153.3	111.2	82.26	63.99	52.15	45.00	36.18	32.45	26.35	23.15	21.25	19.34	18.20	16.55	14.97	14.12	13.07	11.93	10.43	9.254	8.275	7.811	6.943	6.557	6.273	6.355	5.484	5.396	5.157	4.893	4.565	4.416	4.140	3.976	3.854	4.052	3.919	4.456	7.373	11.36	19.53	32.42	46.99	93.11	245.6	743.5	1635	2179	1571	207.1	21.75	6.962	4.856	4.301	3.557	3.098	3.061	2.777	2.689	2.550	2.238	2.280	2.110	2.035
265.0	875.1	641.6	549.3	641.9	1008	1152	3016	9999.9	9999.9	9999.9	9999.9	662.0	315.2	202.6	139.2	102.3	76.49	62.59	51.03	42.68	36.43	30.29	26.74	23.78	21.55	20.25	18.43	16.82	15.33	14.41	12.83	12.20	10.63	9.564	9.230	7.817	7.556	7.222	6.959	6.538	6.266	6.580	5.568	5.248	5.063	4.794	4.177	4.302	4.025	3.761	3.667	5.168	6.930	9.390	11.75	14.78	25.09	59.94	175.1	466.9	1187	2309	2015	1386	31.66	16.61	6.445	5.695	4.298	4.076	3.273	3.468	3.215	2.800	2.823	2.768	2.659
270.0	2111	1030	627.3	581.4	788.7	1171	1581	3487	9999.9	9999.9	9999.9	9999.9	878.0	339.4	216.1	143.8	107.4	81.88	65.18	52.95	44.26	36.38	32.51	29.16	25.08	23.44	21.08	19.86	17.53	16.58	15.66	14.57	13.98	13.50	13.35	12.74	12.09	11.05	10.74	10.15	10.10	10.22	10.06	9.226	8.311	7.159	5.723	5.259	4.635	4.178	3.970	4.979	5.325	6.664	8.037	9.536	12.02	19.27	45.03	110.4	280.1	659.0	1157	2026	2050	1809	884.9	106.4	13.87	6.993	5.714	5.056	4.293	4.127	4.026	3.632	3.634
275.0	4288	1673	792.1	625.5	733.6	1027	1612	1975	3436	9999.9	9999.9	9999.9	9999.9	947.3	351.5	219.7	156.1	112.1	85.80	67.42	56.32	45.41	39.63	34.46	29.96	27.88	25.04	23.14	20.65	19.33	18.02	17.57	18.46	20.09	20.43	19.86	18.08	17.46	16.80	16.23	16.31	16.46	16.35	15.28	13.95	10.61	7.531	6.555	5.403	4.806	4.575	5.278	5.466	6.155	6.720	7.739	10.08	12.98	18.55	31.93	69.66	154.5	266.7	469.1	643.1	1535	3137	3450	1453	31.77	15.43	8.266	6.835	6.044	5.618	5.344	5.263
280.0	5680	2182	875.0	687.1	737.0	953.7	1433	1959	2042	3588	9999.9	9999.9	9999.9	9029	684.7	309.8	205.3	145.8	106.6	81.61	67.39	53.15	43.86	39.29	34.47	30.72	26.57	24.86	23.41	21.62	19.00	19.69	21.77	23.86	25.53	24.05	23.25	21.24	20.39	20.46	20.60	20.76	20.49	18.78	16.81	12.56	9.013	7.131	6.215	5.057	5.239	5.759	5.836	6.554	6.986	7.325	8.753	10.85	13.75	16.67	24.00	42.51	67.59	113.1	153.4	381.2	1106	2569	3768	2008	244.0	27.41	11.51	8.259	7.274	6.514	6.409
285.0	6603	2485	965.7	720.8	742.0	925.1	1259	1880	2020	2018	3655	9999.9	9999.9	9999.9	6544	474.9	278.6	186.9	135.6	98.88	77.28	60.38	49.78	44.58	36.95	32.56	29.72	27.46	25.59	23.19	20.51	21.32	22.78	26.63	29.02	26.88	26.53	24.63	23.06	23.78	23.11	24.26	23.36	21.88	19.42	14.41	9.798	7.826	6.774	5.615	5.613	6.165	6.267	6.620	6.793	7.591	8.309	9.251	11.26	13.37	16.15	19.04	23.15	33.51	42.56	92.97	257.9	654.5	1550	2906	3734	1800	35.95	22.32	10.27	8.404	7.587
290.0	7210	2726	1120	775.2	745.5	894.8	1155	1523	1985	1912	1754	3660	9999.9	9999.9	9999.9	9999.9	552.8	284.7	189.5	132.7	99.56	77.86	62.15	52.38	44.18	38.05	34.24	31.03	28.55	25.14	23.26	23.14	24.55	28.58	31.10	30.28	28.67	27.27	25.35	25.51	24.91	25.43	24.98	23.62	20.63	15.69	10.83	8.572	7.481	6.207	6.071	6.685	6.594	6.621	6.999	7.622	8.365	9.154	10.17	11.00	12.93	14.60	15.83	17.01	17.84	27.87	64.73	153.1	357.5	742.7	1453	2158	2681	1917	1054	132.5	18.92
295.0	7257	2855	1210	819.7	733.7	862.2	1093	1335	1587	1885	1558	1490	2958	9999.9	9999.9	9999.9	9999.9	584.4	281.1	188.8	130.9	100.4	78.12	64.74	53.28	45.77	39.52	35.24	31.10	28.19	25.72	25.74	25.86	29.43	32.04	31.07	29.99	28.51	26.78	25.83	26.12	25.44	24.89	23.78	21.47	16.57	11.29	9.363	7.752	6.492	6.302	7.025	6.544	7.180	7.144	7.866	8.321	9.544	9.493	10.25	11.47	11.27	12.37	14.22	14.93	14.40	20.95	40.40	86.42	172.3	331.7	491.2	679.3	1131	2673	3655	1869
300.0	7343	2871	1237	857.8	712.9	809.7	1036	1246	1427	1507	1639	1098	1261	2975	9999.9	9999.9	9999.9	5189	455.7	253.6	168.6	122.0	93.66	74.95	60.81	51.88	44.92	39.42	34.50	30.93	27.33	27.09	27.16	29.96	32.24	32.33	30.61	28.58	26.98	26.44	26.32	25.39	24.76	23.16	21.28	16.63	11.75	9.508	8.254	6.732	6.314	7.247	6.882	7.299	7.049	8.027	8.426	9.640	9.230	10.15	10.47	10.96	10.51	11.67	13.07	13.34	12.78	15.74	25.41	44.63	80.77	116.9	159.8	269.5	779.2	2000	3479
305.0	7121	2862	1230	839.4	717.9	810.4	992.1	1194	1331	1293	1339	1268	865.1	1208	3092	9999.9	9999.9	9999.9	3852	355.1	219.3	152.0	111.9	86.21	70.29	59.48	49.66	43.28	38.10	33.14	29.93	28.59	29.58	30.18	32.66	31.15	30.12	28.53	27.15	27.24	26.47	25.28	25.34	22.96	20.62	16.25	11.20	9.567	8.340	6.845	6.459	6.884	6.756	7.440	7.336	7.859	8.568	9.141	9.717	9.976	10.08	10.49	10.02	9.940	10.33	10.50	11.65	12.04	12.60	16.47	24.14	32.87	42.63	67.83	182.7	480.9	1176
310.0	6688	2667	1140	790.4	676.5	750.3	942.6	1126	1238	1158	959.0	1032	1011	762.9	1113	3187	9999.9	9999.9	9999.9	9999.9	402.8	220.2	150.9	111.1	85.12	69.15	57.01	49.16	41.37	36.56	33.10	30.27	30.13	31.84	32.38	30.54	30.51	28.23	26.63	26.00	25.58	24.86	24.60	23.08	20.72	16.27	11.41	9.456	8.341	7.048	6.643	7.143	6.911	7.338	7.535	7.761	8.253	8.963	9.368	9.794	9.740	10.01	9.705	9.522	9.175	8.175	8.897	9.707	10.40	11.35	12.19	13.25	15.40	21.54	47.25	114.3	271.2
315.0	6027	2459	1030	718.9	609.2	668.1	856.2	1031	1128	1022	772.7	638.3	830.5	871.6	598.3	1042	2662	9409	9999.9	9999.9	9999.9	427.9	218.0	150.8	109.4	83.46	69.00	56.85	47.85	41.20	36.19	32.33	30.91	32.01	32.86	30.76	30.57	28.40	26.09	25.31	24.59	24.30	23.66	22.58	19.69	15.75	11.31	9.480	8.232	6.886	6.656	6.938	6.958	7.336	7.324	7.389	8.134	8.641	8.873	9.511	9.877	9.378	9.164	8.731	8.593	7.663	7.350	7.408	7.561	8.835	10.04	10.18	9.730	10.32	16.07	31.26	66.51
320.0	5712	2358	980.5	668.0	567.7	627.0	779.0	971.4	1056	962.2	685.1	503.0	550.0	816.9	607.1	505.4	903.2	2553	9999.9	9999.9	9999.9	3882	346.0	198.2	138.4	101.4	77.50	63.49	53.68	45.29	39.33	34.31	32.79	32.51	32.67	31.25	30.55	27.78	25.81	24.93	24.40	23.80	23.27	21.76	19.84	15.55	10.87	9.309	8.017	6.865	6.293	6.992	6.919	7.159	6.949	7.002	7.782	8.168	8.343	8.778	9.501	9.195	8.711	8.487	8.173	6.956	6.905	6.598	6.560	6.719	7.618	9.101	9.366	8.877	9.044	12.10	20.44
325.0	5589	2263	969.3	658.7	557.2	604.4	747.8	905.7	1001	893.8	634.2	440.1	416.0	555.8	694.5	422.7	448.5	863.2	2794	9999.9	9999.9	9999.9	3002	274.5	176.5	124.6	90.81	72.21	59.40	49.16	41.83	37.37	34.01	33.48	32.79	31.07	30.37	28.62	25.87	24.38	23.94	23.51	22.73	21.43	19.19	15.24	11.13	9.321	8.198	6.702	6.388	6.970	7.246	6.917	6.819	6.855	7.665	8.039	8.098	8.439	9.079	8.495	8.488	8.126	7.590	6.599	6.417	5.978	5.836	5.833	6.455	6.880	7.982	8.536	8.525	8.148	9.979
330.0	5230	2152	948.5	671.8	563.9	579.2	702.0	850.3	926.5	835.5	587.6	394.2	355.9	363.8	472.2	527.8	369.8	402.6	868.9	2856	9999.9	9999.9	9999.9	9999.9	323.7	176.2	123.3	90.85	70.97	58.85	48.26	40.98	37.31	36.03	34.02	31.77	29.64	28.19	25.50	24.17	23.69	23.89	22.37	20.92	18.78	15.13	10.94	9.233	8.025	6.846	6.133	7.143	6.865	6.779	6.684	6.881	7.770	7.852	7.749	7.904	8.527	8.438	8.072	7.754	7.375	6.444	5.866	5.918	5.806	5.572	5.930	5.805	6.205	6.711	7.308	7.798	8.245
335.0	4810	1973	910.2	651.9	559.4	546.4	633.9	768.5	832.7	745.9	524.0	354.6	314.3	286.5	289.7	371.8	476.0	306.7	368.5	840.9	2497	7972	9999.9	9999.9	9999.9	347.7	172.3	123.9	90.43	71.24	57.90	46.83	42.42	38.47	35.90	33.21	30.08	28.20	25.07	24.08	22.91	22.53	21.11	19.70	18.28	14.52	10.75	9.383	8.230	6.585	6.222	6.917	6.721	6.770	6.905	6.795	7.620	7.782	7.796	7.839	7.764	8.097	7.647	7.583	7.132	6.271	5.747	5.802	5.334	5.274	5.753	5.653	5.745	5.799	5.789	6.170	7.039
340.0	4224	1815	858.7	616.1	524.3	510.5	577.5	695.2	751.2	669.3	470.7	325.6	287.3	259.7	233.9	245.3	399.2	379.1	246.1	349.8	752.4	2067	9999.9	9999.9	9999.9	3321	274.0	156.4	110.8	82.54	65.76	52.84	45.44	41.21	36.55	33.18	30.42	27.72	25.18	23.00	22.33	21.62	20.30	19.28	17.17	14.53	10.63	9.319	7.717	6.557	6.058	6.731	6.562	6.587	6.569	6.550	6.999	7.198	7.321	7.466	7.849	7.748	7.334	7.414	6.843	5.971	5.890	5.335	5.186	5.299	5.405	5.127	5.180	5.267	5.249	5.661	5.523
345.0	3811	1664	769.7	602.3	492.9	470.3	521.3	621.1	666.4	607.6	422.0	295.9	263.2	239.2	206.0	192.8	255.0	396.5	274.7	216.2	323.2	651.2	2602	9999.9	9999.9	9999.9	2696	208.6	134.0	98.23	73.80	57.87	47.82	42.39	37.28	32.42	30.13	27.01	23.98	21.88	21.27	20.69	19.54	17.66	15.99	13.52	10.27	9.524	8.082	6.429	6.056	6.953	6.361	6.637	6.336	6.381	6.752	6.979	7.104	6.997	7.125	7.070	7.229	6.843	6.553	5.547	5.543	5.076	5.055	5.069	5.127	4.896	5.111	5.091	4.851	5.403	4.988
350.0	3195	1381	671.2	532.6	444.0	412.9	452.8	536.2	575.5	511.7	364.8	261.9	236.0	211.8	184.2	162.3	166.8	236.8	313.1	234.3	194.5	280.4	745.2	2659	9999.9	9999.9	9999.9	9999.9	266.0	132.6	93.14	68.51	53.88	44.69	38.27	32.91	29.56	25.93	23.38	21.34	19.65	18.87	17.91	16.24	15.10	12.52	9.679	8.738	7.525	6.323	5.852	6.356	6.043	6.110	6.061	5.960	6.191	6.134	6.383	6.384	6.611	6.291	6.268	5.948	5.858	5.179	4.922	4.792	4.532	4.591	4.516	4.484	4.618	4.495	4.491	4.493	4.425
355.0	2553	1150	589.5	458.3	381.7	359.7	402.1	457.5	485.0	430.1	315.7	231.7	206.5	188.0	162.7	143.4	133.2	142.8	192.8	285.7	197.6	166.4	281.4	734.2	2413	6133	9999.9	9999.9	9999.9	298.9	128.5	89.76	66.25	51.21	40.66	34.90	29.88	26.01	22.94	20.44	18.90	17.34	16.12	15.59	13.90	11.82	9.288	8.465	7.448	6.168	5.601	5.906	5.751	5.441	5.632	5.481	5.590	5.950	5.710	6.097	6.192	5.413	5.694	5.631	5.552	4.502	4.470	4.355	4.445	4.215	4.270	4.082	4.039	4.054	4.065	4.034	3.806
360.0	2200	997.0	528.0	408.5	345.8	321.1	352.2	406.0	434.6	393.0	281.1	211.2	190.5	168.2	149.6	133.3	118.9	112.4	126.7	212.8	254.9	151.2	159.3	276.0	676.3	1567	9999.9	9999.9	9999.9	3235	233.3	115.1	80.90	58.83	45.39	36.96	31.07	26.53	22.92	20.66	18.40	16.99	15.96	14.06	12.98	11.51	9.273	8.263	7.519	5.931	5.357	5.938	5.478	5.375	5.281	5.562	5.387	5.594	5.738	5.702	5.692	4.972	5.154	5.083	4.822	4.487	4.162	4.143	4.412	4.081	4.192	3.927	3.706	3.867	3.895	3.778	3.669
365.0	1847	887.5	457.1	377.9	311.4	282.6	317.0	354.4	386.7	346.5	256.6	194.5	177.9	160.1	143.1	123.6	110.5	101.6	102.3	133.9	235.6	201.7	127.0	154.2	261.9	483.5	2474	9999.9	9999.9	9999.9	2740	172.0	99.65	73.03	52.23	40.25	33.43	28.25	23.91	20.39	18.28	17.11	15.57	13.73	12.72	11.15	9.333	8.336	7.231	6.047	5.550	5.741	5.546	5.332	5.236	5.139	5.425	5.053	5.637	5.174	5.417	5.116	5.115	4.968	4.900	4.182	3.887	4.160	3.968	3.858	3.955	3.809	3.914	3.702	3.843	3.418	3.596
370.0	1503	746.5	422.3	328.7	283.7	258.7	272.7	304.4	326.7	299.9	230.8	176.6	162.1	146.4	128.3	112.0	100.9	94.10	89.39	96.04	137.7	203.2	172.6	118.9	139.0	203.9	670.2	2506	9999.9	9999.9	9999.9	9999.9	229.0	101.4	69.72	49.84	38.54	30.59	25.81	21.91	19.44	17.85	16.00	13.43	12.01	10.82	8.981	8.128	7.071	6.044	5.500	5.694	5.522	5.309	4.951	4.873	5.058	4.955	4.990	5.048	5.053	4.925	4.536	4.662	4.370	4.066	3.769	3.799	3.649	3.597	3.689	3.532	3.710	3.578	3.512	3.424	3.672
375.0	1264	637.0	359.7	286.8	249.7	242.9	231.6	258.1	273.3	258.2	205.6	163.7	152.0	133.4	117.1	103.9	93.12	87.84	82.72	81.82	90.52	119.5	191.8	155.3	102.1	115.2	231.8	660.8	2366	4697	9999.9	9999.9	9999.9	259.8	96.60	64.22	48.62	35.81	28.18	23.78	20.29	18.41	16.10	13.79	12.10	11.14	8.991	8.132	6.761	6.046	5.598	5.745	5.285	5.030	5.113	4.606	4.915	4.679	4.800	4.815	4.580	4.631	4.362	4.149	4.251	3.907	3.736	3.590	3.277	3.349	3.264	3.433	3.411	3.477	3.188	3.127	3.222
380.0	1140	584.5	356.7	268.9	236.3	225.9	219.0	239.1	242.6	227.1	189.6	154.6	142.6	124.3	109.3	97.08	88.59	81.95	77.86	75.90	75.85	83.62	132.8	187.7	113.0	87.22	119.5	230.0	630.3	1199	8063	9999.9	9999.9	9999.9	194.5	81.06	58.62	42.18	32.53	25.85	21.29	19.48	16.11	13.93	12.29	11.06	9.074	8.415	7.093	5.942	5.492	5.710	5.177	5.182	5.188	4.619	4.863	4.409	4.611	4.392	4.318	4.236	4.218	4.096	4.066	3.672	3.648	3.568	3.286	3.462	3.363	3.564	3.336	3.230	3.083	2.953	3.137
385.0	927.1	509.6	327.7	254.5	221.9	206.3	199.5	211.5	216.0	208.7	171.2	147.3	133.7	116.7	104.5	91.10	84.55	78.00	73.27	70.90	69.21	70.62	86.91	153.1	153.9	84.76	83.89	118.2	222.9	369.5	1969	9999.9	9999.9	9999.9	2389	128.0	70.53	51.32	37.63	28.28	23.47	19.52	16.61	14.61	12.83	11.01	9.366	8.168	6.998	5.947	5.444	5.741	5.267	5.365	5.162	4.619	4.747	4.239	4.411	4.468	4.223	4.165	4.144	4.204	3.595	3.502	3.333	3.425	3.321	3.161	3.175	3.867	3.788	3.591	3.154	3.103	2.963
390.0	819.9	463.2	304.5	243.5	205.7	190.2	180.1	188.4	189.9	187.2	154.3	133.9	123.1	112.7	97.63	85.34	78.73	73.53	68.90	65.79	63.37	63.46	67.03	88.73	136.7	127.7	79.79	78.44	109.7	155.5	526.4	2391	9341	9999.9	9999.9	9508	185.7	69.33	48.45	35.19	26.96	21.76	18.18	15.17	13.61	11.82	9.667	8.741	7.525	6.244	5.411	5.723	5.168	5.147	4.986	4.660	4.658	4.295	4.223	4.279	4.093	4.070	3.927	3.877	3.694	3.275	3.543	3.245	3.334	3.038	2.982	3.233	3.476	4.041	4.204	4.004	3.072
395.0	716.7	415.5	279.0	215.3	195.1	174.2	174.8	173.6	178.7	169.6	149.8	127.6	120.5	107.0	95.08	84.10	75.23	67.91	65.87	63.34	60.74	59.18	60.62	63.57	80.59	125.8	121.9	72.29	74.50	89.54	181.5	608.5	2171	3231	9999.9	9999.9	9999.9	228.0	66.76	45.96	33.48	25.02	20.54	16.74	14.42	12.58	10.47	9.371	7.960	6.337	5.676	5.754	5.267	5.132	5.036	4.453	4.463	4.323	4.352	4.155	3.994	3.850	3.717	3.851	3.490	3.397	3.483	3.139	3.143	3.160	3.033	2.965	3.010	3.153	3.893	5.999	6.280
400.0	672.6	390.1	261.4	201.6	181.7	167.4	160.7	168.8	169.0	159.1	144.3	126.1	119.6	107.4	96.87	83.19	74.35	67.67	64.06	62.56	60.31	59.21	58.39	57.76	60.80	86.08	135.8	97.14	66.68	71.17	97.75	199.5	555.1	814.1	4543	9999.9	9999.9	9999.9	175.4	56.45	39.54	29.63	22.23	18.24	15.28	13.25	11.06	9.680	8.077	6.595	5.740	5.852	5.352	5.069	4.827	4.436	4.517	4.543	4.430	4.127	3.964	3.590	3.686	3.472	3.372	3.138	3.132	3.158	3.149	2.980	2.749	2.917	2.965	2.612	2.983	4.104	6.728
405.0	620.8	353.7	248.8	185.9	167.2	155.9	155.7	163.7	155.9	154.0	144.3	126.7	119.2	106.4	96.54	84.69	73.75	67.57	64.04	61.72	58.65	58.96	57.60	57.21	56.35	65.51	106.5	127.0	77.99	64.70	72.64	99.20	184.3	249.1	1110	6833	9999.9	9999.9	2219	114.9	48.16	34.03	26.14	19.92	15.99	13.64	11.37	9.951	8.288	6.686	5.509	5.799	5.118	5.048	4.606	4.354	4.616	4.240	4.323	3.874	3.883	3.761	3.385	3.418	3.278	3.143	3.116	3.001	2.975	2.960	2.811	2.659	2.624	2.377	2.878	3.162	3.943
410.0	539.1	338.7	234.9	188.6	162.3	146.0	145.3	152.5	154.4	152.4	143.7	130.5	117.8	108.0	95.11	80.88	71.48	65.36	62.03	59.65	57.86	56.91	56.99	56.55	55.19	58.35	71.33	106.4	112.5	76.71	62.98	68.90	88.96	108.0	305.5	1607	6462	9999.9	9999.9	9702	164.7	46.15	32.41	24.50	18.55	15.10	11.98	10.28	8.588	6.940	5.793	5.979	5.099	5.001	4.669	4.322	4.325	4.234	4.136	3.885	3.830	3.666	3.460	3.146	3.238	3.006	3.070	2.934	2.861	2.826	2.732	2.601	2.554	2.620	2.660	2.752	2.883
415.0	507.1	334.2	232.8	167.4	152.3	137.3	132.9	137.7	143.2	141.6	135.7	124.3	114.7	99.64	89.61	76.38	68.16	61.14	58.56	54.64	53.93	54.19	52.90	53.57	50.91	53.50	56.52	68.19	99.45	106.5	65.96	55.32	59.62	63.61	111.8	405.4	1495	2658	9999.9	9999.9	9999.9	212.8	45.62	30.42	23.16	17.66	12.89	11.30	9.025	7.331	6.269	5.958	5.322	5.095	4.684	4.415	4.316	4.000	4.114	3.933	3.856	3.488	3.520	3.104	2.977	2.769	2.893	2.901	2.736	2.704	2.791	2.544	2.667	2.600	2.489	2.550	2.450
420.0	497.8	336.3	227.4	169.7	144.0	134.9	130.2	129.2	133.7	136.0	126.2	121.6	108.2	96.23	84.01	72.73	65.74	59.36	55.60	53.61	51.01	52.51	50.89	50.80	49.15	49.18	49.64	53.69	69.23	106.8	84.61	52.22	48.79	48.78	60.74	130.2	376.4	648.8	3217	9999.9	9999.9	9999.9	156.5	37.69	26.95	20.77	15.27	12.15	9.623	7.419	6.447	6.396	5.610	5.109	4.828	4.387	4.520	4.028	4.141	3.907	3.807	3.567	3.490	3.036	2.935	2.886	2.722	2.891	2.634	2.679	2.723	2.427	2.684	2.603	2.229	2.140	2.550
425.0	1145	316.3	216.7	174.6	148.5	132.8	126.7	124.6	131.4	128.5	128.4	118.1	103.6	92.54	80.64	69.82	62.31	55.96	52.45	51.66	49.85	49.27	48.50	47.57	48.03	47.65	47.22	47.48	52.73	79.79	98.97	57.34	43.28	41.45	44.77	61.63	120.5	186.5	774.2	4405	9999.9	9999.9	2120	98.39	33.62	24.48	18.07	13.75	10.47	8.090	6.849	6.538	5.693	5.544	5.008	4.551	4.426	4.220	4.281	3.698	3.762	3.479	3.355	3.264	3.092	2.899	2.748	2.774	2.462	2.425	2.419	2.296	2.386	2.219	2.450	2.226	2.208
430.0	9999.9	415.2	229.6	172.1	146.6	132.0	127.2	119.0	125.3	123.7	124.6	116.8	103.6	91.33	76.71	67.44	60.04	52.88	50.55	50.29	47.81	46.97	47.14	46.57	47.55	45.26	46.38	46.97	46.43	55.00	76.55	81.79	53.39	38.09	36.76	40.61	55.14	72.38	207.1	1031	4552	9999.9	9999.9	9107	149.8	36.13	23.48	17.54	12.97	9.595	7.868	7.281	6.439	5.815	5.427	4.969	4.751	4.300	4.287	3.827	3.725	3.468	3.324	3.257	3.043	2.976	2.664	2.652	2.562	2.562	2.294	2.401	2.343	2.279	2.205	2.205	2.108
435.0	9999.9	1702	266.3	178.2	143.9	137.1	124.5	119.8	122.4	123.4	122.4	114.2	105.9	92.32	75.32	65.26	58.27	51.19	47.23	47.06	45.53	44.50	45.63	45.10	46.40	44.54	45.40	44.44	44.67	46.86	50.73	70.38	75.13	44.19	33.08	32.62	34.87	40.18	71.74	258.4	1050	2445	9999.9	9999.9	9999.9	196.9	32.34	23.54	16.98	11.88	9.219	8.600	7.086	6.623	6.006	5.155	5.281	4.755	4.329	3.979	3.857	3.748	3.504	3.138	3.180	2.857	2.637	2.759	2.317	2.420	2.375	2.447	2.431	2.228	2.307	2.105	1.947
440.0	9999.9	9999.9	314.9	194.0	150.0	133.5	127.3	113.5	119.6	113.4	117.4	109.6	98.40	86.89	74.69	63.40	55.95	49.72	46.29	44.56	43.22	41.93	42.92	42.21	43.72	42.67	43.25	42.27	43.17	42.88	42.28	49.68	71.82	57.43	33.66	28.78	28.77	30.05	38.24	82.02	262.7	585.1	2843	9999.9	9999.9	9999.9	135.6	31.06	20.33	13.97	10.59	9.567	7.713	7.156	6.457	5.919	5.645	4.835	4.721	4.270	3.935	3.866	3.502	3.008	3.016	2.936	2.707	2.590	2.483	2.389	2.259	2.335	2.199	2.313	2.127	2.114	1.982
445.0	9999.9	9999.9	895.7	206.7	156.9	135.5	129.4	113.1	115.5	115.6	115.4	104.0	95.73	83.76	71.61	59.17	54.03	46.77	44.91	42.88	40.39	39.79	41.45	41.00	40.11	41.24	40.08	40.63	40.49	39.56	38.64	38.28	51.48	64.32	41.67	27.57	25.10	24.67	27.41	38.76	82.36	160.1	677.6	3928	9999.9	9999.9	1793	89.32	25.34	16.41	12.35	10.55	8.545	7.554	6.976	6.318	5.903	5.080	4.511	4.413	3.908	3.681	3.537	3.110	3.145	2.967	2.743	2.655	2.753	2.392	2.277	2.182	2.196	2.105	1.956	2.031	2.091
450.0	9999.9	9999.9	9999.9	297.2	176.9	142.3	126.5	115.6	116.2	111.2	107.9	99.04	87.99	79.30	65.68	55.77	49.79	44.32	41.21	40.21	37.84	37.41	36.99	38.33	36.33	37.17	36.58	36.56	36.61	35.01	34.74	33.11	35.23	47.16	52.59	34.01	23.46	21.86	22.18	25.93	37.14	58.17	178.1	916.5	4179	9999.9	9999.9	8002	122.9	23.77	16.17	13.58	10.44	8.849	7.337	6.859	6.312	5.652	4.946	4.652	4.092	4.011	3.720	3.515	3.312	3.031	2.865	2.824	2.796	2.573	2.397	2.334	2.183	2.270	2.132	2.154	2.112
455.0	5243	9999.9	9999.9	893.7	201.5	150.5	130.8	118.2	110.5	107.3	103.3	92.48	82.85	73.95	60.23	51.59	46.02	40.64	38.49	36.15	35.55	34.25	33.90	34.32	33.81	34.36	33.71	33.25	32.75	32.84	31.06	28.97	28.20	29.44	41.91	45.25	27.80	19.15	18.82	20.18	23.63	30.08	59.62	227.7	960.9	2416	9999.9	9999.9	9999.9	145.5	23.86	17.59	13.15	10.32	8.719	7.235	6.664	6.007	5.212	4.829	4.373	3.993	3.585	3.452	3.106	3.010	2.674	2.554	2.723	2.615	2.398	2.319	2.114	2.305	2.214	1.981	2.205
460.0	1737	9999.9	9999.9	9999.9	242.8	161.0	135.7	116.4	112.6	111.0	102.9	89.43	80.53	70.71	59.38	49.73	44.97	38.99	37.45	34.79	33.32	33.01	33.09	33.12	32.03	31.66	31.68	31.20	30.71	29.80	29.76	26.95	25.02	24.11	28.82	42.78	36.45	20.50	17.00	17.14	18.50	21.54	30.47	70.09	237.8	570.7	2641	9999.9	9999.9	9546	109.1	24.02	16.12	12.43	10.06	8.512	7.746	6.363	5.474	5.050	4.818	3.913	3.655	3.631	3.110	3.078	2.801	2.667	2.535	2.498	2.326	2.302	2.088	2.212	2.052	2.167	2.127
465.0	859.4	9999.9	9999.9	9999.9	539.8	187.2	143.4	122.6	113.7	107.6	101.6	86.91	77.95	67.73	57.49	48.81	42.34	38.05	36.39	33.49	31.35	31.06	30.46	30.29	29.65	29.05	29.10	29.51	28.88	28.19	27.38	26.53	23.48	21.99	22.67	31.04	40.49	25.95	16.60	15.63	16.15	17.93	21.29	32.21	73.50	151.7	622.3	3368	9999.9	9999.9	1447	32.19	21.05	15.10	11.75	9.834	8.355	6.764	6.141	5.124	5.093	4.418	4.070	3.886	3.466	3.313	3.034	2.751	2.544	2.536	2.403	2.462	2.169	2.398	1.926	2.155	2.097
470.0	644.7	2851	9999.9	9999.9	9999.9	246.0	156.4	128.9	115.0	107.3	99.61	85.68	75.68	64.77	54.36	45.77	39.55	35.61	33.55	31.25	29.42	29.05	27.83	28.07	26.91	26.87	26.63	25.83	26.01	25.97	24.36	23.24	21.34	19.58	18.97	20.74	28.96	31.45	20.70	14.68	14.36	14.78	16.53	20.67	31.83	51.78	159.4	781.1	3651	9999.9	9999.9	7531	116.2	22.25	14.52	12.00	9.493	7.986	6.624	5.809	5.215	4.720	4.097	3.999	3.548	3.398	3.154	2.779	2.581	2.645	2.509	2.437	2.260	2.146	2.098	2.021	1.977
475.0	560.5	976.9	5030	9999.9	9999.9	574.6	186.3	130.9	118.4	103.3	98.52	80.82	69.58	59.44	50.19	43.82	37.44	32.33	30.29	28.73	27.41	26.34	24.34	24.05	23.62	23.96	22.36	22.27	22.78	22.75	21.43	20.41	18.34	16.72	15.68	15.31	17.21	24.87	27.29	16.84	12.68	11.81	12.51	14.23	18.28	23.76	48.79	189.9	831.8	2328	8959	9999.9	9999.9	165.0	20.03	13.84	10.74	8.548	7.390	5.868	4.951	4.518	3.963	3.655	3.358	3.221	3.002	2.592	2.405	2.302	2.327	2.246	1.963	2.100	2.025	1.872	1.865
480.0	512.4	569.5	1503	9999.9	9999.9	9999.9	210.7	148.7	120.5	108.2	94.13	80.08	68.25	57.25	48.37	41.48	35.60	30.80	29.30	27.72	25.49	24.45	23.57	23.33	22.25	22.25	21.16	20.62	20.63	20.48	20.46	19.35	16.71	15.29	13.85	13.44	13.28	17.31	25.76	20.71	12.44	10.79	10.99	12.11	13.48	15.31	22.34	54.79	199.3	537.5	2241	9999.9	9999.9	9590	31.28	18.36	12.95	10.14	8.018	6.252	5.454	4.878	4.119	3.699	3.379	3.246	3.100	2.652	2.324	2.329	2.335	2.232	1.940	1.924	1.955	2.035	1.877
485.0	472.6	468.1	618.7	9999.9	9999.9	9999.9	381.0	162.8	132.2	105.5	95.61	82.78	69.69	58.06	46.54	39.58	34.68	30.60	28.39	26.17	24.31	23.70	22.53	22.20	20.89	20.31	19.91	19.45	19.24	18.72	18.81	17.75	16.38	14.73	13.39	12.16	11.75	12.87	18.80	23.26	15.45	10.39	10.16	10.60	11.55	12.37	14.85	22.71	56.07	133.4	519.2	2902	9999.9	9999.9	1660	29.19	16.92	12.47	9.096	7.362	6.353	5.266	4.586	3.996	3.512	3.460	3.182	2.829	2.605	2.332	2.185	2.508	2.079	1.971	2.147	2.008	1.835
490.0	384.6	450.0	405.0	2826	9999.9	9999.9	9999.9	203.4	143.9	116.9	97.64	84.02	69.52	58.02	46.40	38.60	34.24	29.26	27.28	25.19	23.51	22.30	20.87	20.23	19.84	18.93	18.49	18.12	18.00	17.30	16.92	16.02	14.87	13.49	12.17	11.44	10.71	10.50	12.09	17.95	19.60	12.88	9.414	9.500	9.599	10.56	11.15	13.77	21.75	39.48	127.7	665.7	3140	9999.9	9999.9	7660	124.9	18.90	11.71	8.834	7.065	5.883	5.243	4.417	3.904	3.545	3.290	2.883	2.748	2.518	2.428	2.321	2.134	1.951	2.054	2.031	1.866
495.0	306.1	392.5	361.7	851.6	6202	9999.9	9999.9	398.8	169.0	127.3	104.5	86.07	70.89	56.03	44.49	38.97	33.33	28.94	26.12	24.05	21.42	20.69	20.47	19.12	18.63	17.16	17.36	16.15	16.53	15.99	15.16	15.01	13.31	12.47	11.34	10.11	9.451	9.223	9.171	11.38	16.58	17.99	11.19	8.753	8.540	9.358	9.231	10.35	12.14	16.76	36.98	159.3	713.8	2305	9346	9999.9	9999.9	175.6	18.14	11.46	8.747	6.768	5.690	4.703	4.002	3.807	3.518	3.102	2.823	2.488	2.447	2.225	2.216	2.105	1.810	1.921	1.965
500.0	282.7	307.1	365.5	400.2	1755	9999.9	9999.9	2947	198.7	139.8	108.2	87.64	74.04	57.75	45.76	38.98	32.54	28.63	25.35	24.30	21.05	19.03	18.72	18.01	17.20	17.03	15.86	15.12	16.38	15.23	14.27	13.28	11.95	11.75	10.85	9.472	9.091	8.778	8.167	8.783	11.26	17.49	14.63	8.762	7.974	8.552	8.431	8.952	9.353	10.52	15.41	44.77	170.1	529.7	2319	9999.9	9999.9	9580	32.60	15.10	10.38	7.703	6.461	5.340	4.234	3.816	3.536	2.905	2.844	2.461	2.422	2.245	2.105	2.070	1.865	1.781	1.751
505.0	283.7	270.1	340.0	293.5	610.9	9999.9	9999.9	9999.9	285.0	157.4	117.9	91.70	73.96	59.27	46.06	38.09	31.78	27.93	24.23	22.51	19.97	18.83	18.08	17.43	16.54	15.97	15.56	15.14	14.81	13.93	13.47	12.46	10.72	10.58	9.955	9.398	9.014	8.361	7.982	7.944	8.581	13.56	16.17	10.61	7.719	7.779	7.670	8.123	8.151	8.378	9.540	17.75	47.02	129.7	535.1	2795	9999.9	9999.9	1808	28.14	13.23	8.912	7.112	6.045	4.667	3.822	3.745	3.002	2.769	2.463	2.589	2.258	2.118	2.021	1.803	1.795	1.729
510.0	266.7	232.9	275.4	293.7	321.1	3004	9999.9	9999.9	7394	194.1	137.4	101.7	75.39	59.58	48.13	38.16	32.43	26.56	24.63	22.04	19.98	18.21	17.56	16.65	15.72	14.84	14.23	13.98	13.47	13.09	12.26	11.55	10.57	9.769	9.240	8.726	8.145	7.818	7.003	7.341	7.251	8.927	13.24	13.50	9.208	7.506	6.919	6.934	6.881	7.111	7.568	10.09	17.68	37.54	130.1	639.0	2920	9999.9	9999.9	7623	121.8	13.53	8.892	6.531	5.323	4.409	3.958	3.290	2.976	2.601	2.422	2.182	2.132	2.061	1.834	1.862	1.808
515.0	267.6	213.3	213.4	282.4	255.1	855.9	7564	9999.9	9999.9	299.4	166.1	114.0	82.80	61.77	47.81	38.97	32.58	25.87	24.43	21.10	19.56	18.74	17.63	15.44	14.53	13.74	13.39	13.33	12.32	12.06	11.46	10.95	10.46	9.157	8.640	8.164	7.562	7.069	6.743	6.916	6.701	6.771	8.342	12.31	12.42	8.011	6.241	6.381	6.121	5.840	6.629	7.482	9.631	14.85	36.72	151.4	662.2	2278	6673	9999.9	9999.9	33.66	13.33	8.222	6.353	5.024	4.364	3.513	3.141	2.787	2.455	2.178	2.008	1.965	1.886	1.817	1.843
520.0	249.1	204.0	181.0	250.4	254.0	368.8	2129	9999.9	9999.9	2101	193.8	126.6	88.36	64.15	49.96	39.10	32.64	26.63	24.41	21.33	19.77	18.98	16.64	15.42	14.50	13.74	12.93	12.57	12.63	11.42	10.79	10.49	10.12	9.224	8.231	7.428	7.085	7.045	6.608	6.352	6.420	5.885	6.418	9.164	12.55	10.23	6.300	5.483	5.541	5.210	5.530	6.644	7.331	8.698	14.61	41.17	157.1	519.9	1618	8936	9999.9	7408	30.82	11.62	7.461	6.050	4.895	3.602	3.427	2.924	2.503	2.293	2.185	2.127	1.887	1.759	1.693
525.0	254.3	204.9	158.5	207.2	265.4	253.1	689.6	9999.9	9999.9	9999.9	246.0	142.3	95.68	70.02	51.75	41.92	34.27	27.22	24.13	21.69	20.34	18.36	16.13	15.10	14.28	13.38	12.46	11.74	12.11	11.61	10.63	10.31	9.412	8.474	7.694	6.991	6.936	6.689	6.091	6.296	5.980	5.893	5.750	6.711	10.56	11.59	7.372	5.455	5.237	4.678	4.974	5.721	6.620	6.972	8.693	15.35	42.53	125.4	373.8	2310	9999.9	9999.9	1803	25.79	9.922	6.938	5.575	4.212	3.630	2.949	2.819	2.371	2.316	2.031	1.945	1.717	1.769
530.0	259.7	202.9	160.0	165.0	240.1	241.7	329.2	3320	9999.9	9999.9	5621	176.1	113.0	77.87	56.52	42.86	34.62	28.10	23.11	21.55	19.88	17.80	16.35	15.07	14.02	13.15	12.09	11.37	10.97	11.15	10.40	9.689	8.896	7.913	7.291	6.792	6.346	5.913	5.853	5.641	5.514	5.584	5.266	5.577	7.212	9.879	9.372	6.107	4.673	4.448	4.550	4.880	5.451	6.137	6.776	8.680	15.55	34.60	91.68	525.9	2598	8483	9999.9	6761	121.4	10.88	6.673	5.028	3.922	3.283	3.042	2.538	2.329	2.020	1.995	1.880	1.851
535.0	310.3	199.3	157.9	140.2	188.1	263.0	234.3	943.6	9550	9999.9	9999.9	399.8	135.0	87.49	61.53	45.52	35.82	30.16	24.27	20.95	19.61	18.04	15.52	14.52	13.93	12.62	11.85	11.09	10.44	10.48	9.756	9.051	8.576	7.674	7.052	6.949	5.977	5.814	5.454	5.332	5.400	5.154	5.320	5.399	5.559	6.877	8.970	8.019	5.048	4.091	3.922	4.325	4.656	5.243	6.015	6.382	8.262	12.77	26.24	123.9	586.5	1914	4579	9999.9	8551	33.75	9.848	6.522	4.473	3.877	3.333	2.865	2.587	2.138	2.200	2.150	1.781
540.0	405.6	235.0	158.7	133.3	161.6	261.5	228.2	401.7	2780	9999.9	9999.9	1550	161.6	96.49	67.50	48.21	37.36	30.55	25.42	21.55	19.31	18.13	15.21	14.30	13.69	12.82	11.65	10.85	9.901	9.663	9.097	8.951	8.328	7.211	6.700	6.759	6.077	5.773	5.774	5.632	5.442	5.305	5.312	5.189	5.421	5.414	7.113	8.346	6.057	3.922	3.663	3.966	4.189	4.615	5.211	5.777	6.195	7.511	11.08	33.09	137.2	434.8	1079	5921	9999.9	2009	29.50	8.615	5.784	4.432	3.524	3.032	2.675	2.269	2.324	2.006	1.884
545.0	524.3	261.3	164.3	132.4	146.9	236.5	243.8	266.3	867.4	9999.9	9999.9	9999.9	191.8	111.2	74.45	51.99	38.45	30.51	25.89	22.40	18.68	17.41	15.99	14.43	13.48	12.43	11.61	10.99	9.860	9.435	8.935	8.390	8.038	7.391	7.058	6.882	6.343	6.144	5.553	5.567	5.533	5.349	5.546	5.095	5.055	4.776	5.340	7.665	7.007	4.535	3.371	3.764	3.616	4.404	4.583	5.697	5.666	5.801	7.370	12.09	36.10	103.3	249.7	1461	7423	9999.9	1768	24.40	7.617	5.176	4.082	3.398	2.905	2.363	2.302	1.893	1.945
550.0	671.5	287.7	152.3	122.0	136.9	183.9	269.5	243.4	403.6	3467	9999.9	9999.9	3288	132.4	84.56	57.76	41.16	32.52	27.31	23.25	18.87	17.75	15.62	13.96	12.90	11.90	10.97	10.82	9.790	9.230	8.355	8.078	7.507	7.693	7.359	6.889	6.579	6.330	5.523	5.516	5.429	5.416	5.363	5.205	5.203	4.714	4.257	5.553	6.308	5.510	4.011	3.404	3.550	3.820	4.024	4.485	5.015	5.119	5.482	6.610	12.47	27.82	61.74	333.1	1820	5831	9672	4306	124.4	8.647	4.953	3.717	3.295	2.620	2.168	1.984	2.013
555.0	708.5	307.4	149.1	118.8	126.7	157.6	242.3	261.5	280.5	997.0	8496	9999.9	9999.9	237.5	99.83	65.67	46.14	34.56	27.37	24.05	19.90	17.99	15.28	13.84	12.68	11.53	11.04	10.61	9.231	9.332	8.581	7.861	7.439	7.554	7.518	6.857	6.516	6.350	5.707	5.561	5.319	5.581	5.108	5.036	4.992	4.433	3.680	3.984	4.765	5.523	4.910	3.316	3.030	3.332	3.516	3.950	4.078	4.484	4.700	4.861	6.237	9.920	18.22	79.09	410.8	1310	3266	9307	5929	34.37	7.810	4.738	3.908	2.867	2.526	2.156	1.858
560.0	764.6	315.3	154.2	116.5	118.3	140.1	205.6	275.6	242.9	419.9	2477	9999.9	9999.9	1014	112.6	71.41	49.19	36.49	28.90	23.88	20.42	17.50	14.88	13.69	12.68	11.35	10.76	9.923	9.069	9.215	8.623	7.786	7.345	7.100	7.362	6.616	6.808	5.930	5.810	5.382	5.463	5.282	5.002	4.921	4.705	4.396	3.534	3.345	3.553	4.502	4.942	3.598	2.996	3.244	3.308	3.606	3.554	3.772	4.616	4.406	4.528	5.593	7.616	21.52	95.91	297.3	750.4	3744	9424	2038	30.62	6.269	4.318	3.025	2.728	2.295	2.060
565.0	799.1	302.2	150.2	115.2	113.1	130.2	172.3	270.3	237.8	272.1	762.8	9999.9	9999.9	8049	135.8	77.93	51.74	37.88	30.00	24.15	21.00	18.04	14.99	13.13	12.26	11.38	10.28	9.635	8.720	8.631	8.227	7.679	7.246	6.881	7.091	6.791	6.627	5.897	5.752	5.478	5.138	5.311	5.067	4.949	4.685	4.283	3.421	3.089	2.878	3.560	4.652	4.118	3.214	2.880	3.007	3.326	3.344	3.496	4.018	4.123	4.221	4.103	4.989	7.983	25.14	70.43	172.7	880.2	4358	7892	1762	23.62	5.475	3.673	3.034	2.361	2.112
570.0	788.2	309.5	144.6	112.6	105.9	121.6	156.4	233.5	258.2	224.5	328.7	3217	9999.9	9999.9	1867	93.92	58.72	41.74	30.96	25.10	21.20	18.87	15.32	13.35	11.93	10.93	10.42	9.574	9.066	8.293	7.620	7.549	7.787	7.065	7.229	6.662	6.639	5.854	5.626	5.399	5.131	5.169	4.922	4.747	4.479	4.103	3.279	3.037	2.883	2.820	3.417	4.015	3.682	3.009	2.787	2.970	3.029	3.135	3.355	3.690	3.941	3.644	3.800	4.563	8.600	18.93	41.87	200.4	1022	3312	5409	2720	128.6	7.072	3.610	2.809	2.235
575.0	754.9	305.9	142.9	109.3	98.21	109.6	142.6	190.3	261.1	210.1	202.8	862.6	7028	9999.9	9999.9	121.2	67.06	47.47	34.42	26.46	21.75	19.47	16.10	13.82	11.91	10.80	10.46	8.989	8.591	8.142	7.524	7.331	7.819	7.586	6.651	6.475	6.259	5.768	5.360	5.190	5.065	4.803	4.835	4.496	4.310	3.814	3.044	2.834	2.827	2.647	2.512	3.193	3.782	3.188	2.893	2.838	2.891	2.881	3.203	3.131	3.497	3.468	3.262	3.305	4.166	6.648	12.17	47.49	230.5	742.5	1577	4661	3934	35.33	5.919	3.370	2.503
580.0	723.7	293.5	142.9	108.6	87.66	102.6	129.4	160.5	236.6	207.6	161.2	313.3	2032	9999.9	9999.9	627.3	76.32	49.95	36.84	28.17	22.74	19.36	16.41	14.60	11.78	11.02	10.31	9.038	8.711	7.527	7.238	7.043	7.388	8.377	6.943	6.146	5.786	5.924	5.005	5.071	4.949	4.565	4.722	4.259	4.259	3.757	3.191	2.772	2.564	2.397	2.366	2.660	3.314	3.172	2.893	2.686	2.689	2.684	2.721	2.825	2.922	3.137	3.455	2.914	3.120	3.765	4.959	12.91	54.01	168.4	359.3	1648	5097	1988	31.42	4.690	2.947
585.0	701.5	291.2	139.8	95.90	87.23	98.11	120.2	146.6	200.2	225.2	144.3	173.6	592.3	9999.9	9999.9	5110	91.54	53.39	40.09	28.54	23.46	19.17	16.99	15.19	13.12	11.19	10.08	8.661	8.205	7.578	7.712	6.863	7.224	8.034	8.210	5.970	5.442	5.459	5.087	5.043	4.852	4.553	4.417	4.306	3.815	3.591	3.055	2.863	2.440	2.356	2.182	2.370	2.686	3.265	2.843	2.817	2.585	2.530	2.604	2.459	2.738	2.832	3.246	3.058	2.648	2.793	3.050	5.142	14.31	40.05	83.25	380.3	2028	4580	1654	25.04	4.288
590.0	629.7	279.2	128.8	90.03	80.72	92.98	108.6	134.3	161.6	204.6	148.2	122.9	231.4	2893	9999.9	9999.9	413.8	61.81	42.76	30.48	24.08	20.06	17.05	15.31	12.82	10.83	10.31	9.220	8.295	7.995	7.336	6.592	6.628	7.048	8.855	7.254	5.354	4.913	4.770	4.630	4.561	4.367	4.171	4.056	3.656	3.313	2.794	2.635	2.402	2.051	1.998	2.146	2.202	2.738	2.857	2.809	2.500	2.363	2.331	2.389	2.375	2.493	2.677	2.943	2.698	2.303	2.323	3.097	5.148	11.00	20.90	87.51	466.7	1678	3109	2187	134.7
595.0	562.9	242.5	123.2	85.82	76.92	84.61	95.93	118.4	134.4	164.6	154.1	104.2	131.8	738.9	5211	9999.9	5683	84.14	47.83	33.98	24.99	19.66	16.72	14.60	13.05	11.48	9.693	8.717	8.204	7.437	7.136	6.497	6.012	6.418	6.857	9.343	6.446	4.907	4.484	4.545	4.183	4.180	3.811	3.875	3.528	3.312	2.622	2.546	2.314	1.967	1.851	1.937	1.942	2.138	2.631	2.984	2.612	2.307	2.097	2.150	2.034	2.246	2.234	2.351	2.622	2.034	2.014	2.141	2.768	4.154	6.428	21.45	105.9	376.4	817.5	2467	2176
600.0	529.5	233.5	112.4	79.39	69.36	78.80	89.15	108.9	118.3	132.3	157.3	99.05	98.74	242.9	1451	9999.9	9999.9	388.4	51.84	36.48	26.60	21.14	16.92	14.84	13.07	11.38	9.890	9.001	8.046	7.704	6.966	6.411	5.932	5.994	5.698	8.416	9.462	4.882	4.333	4.480	4.120	4.002	3.640	3.463	3.478	3.000	2.743	2.304	2.214	1.917	1.694	2.000	1.792	1.920	2.186	2.588	2.640	2.211	2.036	2.008	1.942	1.916	2.000	2.022	2.191	2.158	1.931	1.939	2.078	2.293	2.871	6.372	25.33	85.91	185.7	775.3	2671
605.0	487.0	228.5	108.2	70.53	63.12	69.45	80.82	102.4	109.3	112.3	141.5	102.9	84.94	123.3	408.4	9179	9999.9	3256	61.32	38.24	28.93	21.61	18.00	15.02	13.13	11.18	9.671	9.198	8.424	7.623	6.728	6.314	5.639	5.521	5.465	6.557	10.26	6.066	4.271	4.150	3.953	3.716	3.510	3.283	3.245	2.968	2.589	2.265	2.025	1.859	1.806	1.947	1.635	1.777	2.005	2.270	2.558	2.249	2.058	2.027	1.840	1.883	1.824	1.767	1.923	1.994	2.053	1.806	1.689	1.871	1.918	2.780	6.992	20.74	43.48	177.8	958.2
610.0	453.4	204.4	95.43	67.52	61.13	65.88	75.64	92.98	101.8	98.89	106.5	110.5	75.78	83.93	153.1	2471	9999.9	9999.9	306.7	44.04	30.91	22.99	18.14	15.36	12.98	11.31	9.969	8.920	7.924	7.526	7.029	6.187	5.602	5.440	5.335	5.233	7.211	9.558	5.324	3.961	3.673	3.559	3.341	3.282	3.008	2.716	2.442	2.256	1.946	1.789	1.621	1.695	1.549	1.613	1.663	1.930	2.139	2.259	2.023	1.882	1.734	1.739	1.633	1.537	1.607	1.580	1.769	1.761	1.559	1.579	1.493	1.632	2.763	5.960	11.19	41.28	218.6
615.0	402.5	185.8	88.99	65.05	56.73	59.42	71.31	84.25	89.53	89.74	81.32	102.0	80.58	65.94	84.33	610.2	4383	9999.9	4289	58.55	33.51	25.52	19.40	15.96	12.61	11.33	10.37	9.033	8.118	7.643	6.977	6.110	5.746	5.443	5.181	4.981	5.156	7.646	8.788	4.286	3.538	3.317	3.016	3.035	2.979	2.744	2.180	2.145	2.045	1.721	1.535	1.675	1.542	1.499	1.491	1.701	1.693	2.012	2.004	1.680	1.814	1.628	1.548	1.500	1.470	1.393	1.414	1.696	1.637	1.368	1.440	1.381	1.799	2.384	3.601	10.53	50.17
620.0	378.0	173.2	81.35	62.85	50.33	57.13	70.69	78.75	82.00	80.90	72.83	84.53	88.31	58.06	62.94	186.3	1192	9999.9	9999.9	212.1	37.44	27.64	20.40	15.85	13.09	11.37	10.14	9.357	8.367	7.458	6.598	6.146	5.778	5.305	5.028	4.666	4.432	5.378	9.476	5.951	3.646	3.117	3.215	2.947	2.829	2.551	2.337	2.123	1.909	1.595	1.482	1.492	1.512	1.428	1.509	1.418	1.586	1.675	1.796	1.777	1.799	1.569	1.501	1.421	1.488	1.202	1.305	1.336	1.552	1.388	1.294	1.196	1.455	1.463	1.825	3.623	12.32
625.0	344.5	156.7	81.58	59.62	51.78	54.81	65.76	75.14	79.32	75.85	66.74	67.02	90.21	55.80	52.03	83.24	327.4	7694	9999.9	608.7	44.29	28.93	21.16	16.57	13.63	11.26	9.923	9.227	8.361	7.108	6.943	5.815	5.712	5.473	4.865	4.437	4.294	4.477	6.840	8.723	3.682	3.243	3.256	2.799	2.936	2.668	2.228	2.014	1.786	1.619	1.382	1.586	1.415	1.337	1.505	1.529	1.538	1.569	1.779	1.709	1.664	1.512	1.341	1.367	1.343	1.172	1.156	1.171	1.243	1.381	1.205	1.169	1.208	1.245	1.328	1.791	3.703
630.0	313.4	142.9	72.10	52.71	49.04	48.38	59.48	67.45	74.83	72.26	60.55	54.67	76.76	62.79	45.19	52.18	115.0	2061	9999.9	9999.9	208.4	32.66	22.86	17.49	13.92	11.45	9.923	9.141	8.337	7.560	6.727	6.182	5.657	5.219	4.836	4.518	4.012	3.893	4.397	7.525	7.100	3.518	2.934	2.696	2.810	2.602	2.189	2.026	1.846	1.598	1.540	1.509	1.376	1.367	1.539	1.419	1.416	1.387	1.537	1.641	1.574	1.496	1.316	1.248	1.297	1.157	1.140	1.143	1.150	1.172	1.293	1.243	1.052	1.061	1.099	1.300	1.705
635.0	298.0	133.0	68.33	51.01	44.31	46.76	54.00	63.65	67.54	65.94	54.29	48.73	56.04	67.92	42.62	40.04	58.09	503.3	4264	9999.9	3021	41.40	25.25	19.08	15.37	12.05	10.38	8.611	7.973	7.790	6.915	6.477	5.522	5.409	5.037	4.619	4.136	3.660	3.571	4.610	8.144	6.248	2.796	2.821	2.476	2.376	2.108	1.902	1.773	1.534	1.413	1.570	1.382	1.400	1.496	1.390	1.468	1.381	1.363	1.484	1.490	1.409	1.279	1.188	1.133	1.172	1.105	1.007	1.048	1.060	1.058	1.171	1.085	0.938	1.060	1.074	1.113
640.0	297.4	131.9	65.62	46.87	43.50	44.83	50.21	58.34	62.21	63.27	52.86	43.07	46.95	64.76	44.86	36.18	40.50	147.4	1141	9999.9	9999.9	67.45	27.91	20.82	16.03	12.79	10.48	9.047	8.066	7.904	6.886	6.267	5.423	5.208	4.686	4.431	4.312	3.720	3.552	3.381	5.878	9.233	3.556	2.838	2.477	2.357	2.120	1.809	1.734	1.444	1.468	1.479	1.341	1.342	1.346	1.473	1.551	1.273	1.289	1.370	1.388	1.360	1.246	1.247	1.165	1.042	1.098	0.939	0.999	1.046	0.975	1.100	1.049	0.885	0.946	0.879	0.979
645.0	340.2	128.3	61.83	44.21	41.50	43.23	47.22	57.85	61.44	58.39	49.83	41.38	40.48	55.26	48.44	31.78	34.71	63.55	301.7	7468	9999.9	463.0	31.24	22.31	16.45	13.66	11.14	9.234	8.218	7.561	6.742	5.956	5.748	5.200	4.793	4.187	4.143	3.640	3.293	3.201	3.878	8.591	6.564	2.714	2.419	2.338	1.986	1.864	1.804	1.446	1.417	1.410	1.334	1.390	1.348	1.415	1.323	1.351	1.199	1.275	1.313	1.167	1.183	1.239	1.137	1.054	0.985	0.922	0.977	0.962	0.911	0.889	0.996	0.953	0.794	0.835	0.984
650.0	496.4	124.4	59.52	43.31	38.31	39.05	46.63	54.49	59.89	56.49	48.88	39.93	36.39	43.44	52.79	31.18	30.75	41.06	101.5	2307	9999.9	3833	43.25	22.92	16.97	13.53	11.19	9.216	8.238	7.239	7.205	5.991	5.496	5.093	4.793	4.363	3.962	3.672	3.281	3.056	3.014	5.506	9.851	3.819	2.268	2.241	1.926	1.934	1.737	1.487	1.392	1.325	1.241	1.301	1.216	1.351	1.230	1.196	1.077	1.207	1.179	1.214	1.189	1.210	1.082	1.016	0.916	0.968	0.932	0.900	0.811	0.867	0.989	0.960	0.939	0.885	0.934
