Sample:	'1
File name:	t2025060606杏花河入小清河.FD3
Run date:	'14:57:42, 06/09/2025
Operator:	Administrator
Comment:	'

Instrument
Model:	F-2700 FL Spectrophotometer
Serial number:	23B8-004
ROM Version:	4J14000 07

Instrument parameters
Measurement type:	3-D scan
Data mode:	Fluorescence
EX  Start WL:	220.0 nm
EX  End WL:	600.0 nm
EX Sampling interval:	5.0 nm
EM  Start WL:	230.0 nm
EM  End WL:	650.0 nm
EM Sampling interval:	5.0 nm
Scan speed:	12000 nm/min
EX Slit:	5.0 nm
EM Slit:	5.0 nm
PMT Voltage:	700 V
Response:	Auto 
Corrected spectra:	Off
Contour interval:	50.000

Peak integration
Integration method:	Rectangular
Sensitivity:	1
Threshold:	1.000

Peaks
No.	ApexEX/EM(nm)	Height(Data)
1	225.0/555.0	59.28
2	225.0/570.0	57.54
3	225.0/590.0	47.58
4	225.0/630.0	36.26
5	230.0/345.0	1334
6	230.0/500.0	297.2
7	230.0/585.0	50.43
8	230.0/605.0	41.38
9	230.0/620.0	40.57
10	235.0/510.0	269.5
11	240.0/265.0	334.6
12	240.0/525.0	233.7
13	245.0/270.0	333.2
14	245.0/535.0	199.0
15	250.0/275.0	399.9
16	250.0/545.0	152.7
17	255.0/280.0	527.6
18	255.0/560.0	131.6
19	260.0/285.0	550.7
20	260.0/570.0	107.0
21	265.0/290.0	583.8
22	265.0/585.0	96.51
23	270.0/300.0	902.6
24	270.0/595.0	85.93
25	275.0/305.0	1192
26	275.0/610.0	86.35
27	280.0/310.0	1134
28	280.0/340.0	962.9
29	280.0/625.0	77.51
30	285.0/315.0	1081
31	285.0/635.0	60.45
32	290.0/325.0	1027
33	330.0/375.0	402.3
34	335.0/380.0	386.7
35	430.0/505.0	30.49
36	445.0/525.0	17.70
37	475.0/355.0	4.143
38	495.0/270.0	2.132
39	505.0/275.0	2.959
40	520.0/285.0	3.693
41	530.0/290.0	3.509
42	540.0/295.0	4.607
43	545.0/300.0	5.610
44	550.0/305.0	6.033
45	560.0/310.0	6.119
46	570.0/315.0	6.521
47	575.0/320.0	6.260
48	585.0/325.0	6.435

Data points
	220.0	225.0	230.0	235.0	240.0	245.0	250.0	255.0	260.0	265.0	270.0	275.0	280.0	285.0	290.0	295.0	300.0	305.0	310.0	315.0	320.0	325.0	330.0	335.0	340.0	345.0	350.0	355.0	360.0	365.0	370.0	375.0	380.0	385.0	390.0	395.0	400.0	405.0	410.0	415.0	420.0	425.0	430.0	435.0	440.0	445.0	450.0	455.0	460.0	465.0	470.0	475.0	480.0	485.0	490.0	495.0	500.0	505.0	510.0	515.0	520.0	525.0	530.0	535.0	540.0	545.0	550.0	555.0	560.0	565.0	570.0	575.0	580.0	585.0	590.0	595.0	600.0
230.0	38.43	454.2	1662	680.0	39.75	5.162	4.371	3.636	3.030	2.534	2.750	2.300	2.255	1.977	1.540	1.391	1.245	1.073	0.961	1.016	0.845	0.764	0.654	0.701	0.591	0.635	0.554	0.537	0.536	0.462	0.486	0.440	0.409	0.372	0.355	0.341	0.348	0.339	0.321	0.306	0.315	0.397	0.412	0.336	0.270	0.270	0.516	2.693	5.710	4.870	1.988	0.477	0.209	0.178	0.164	0.178	0.211	0.169	0.247	0.200	0.183	0.181	0.201	0.183	0.189	0.200	0.185	0.175	0.197	0.218	0.195	0.190	0.184	0.169	0.208	0.197	0.196
235.0	92.60	141.2	885.5	1962	571.3	68.17	6.016	3.852	4.122	3.234	2.991	2.683	2.418	2.086	1.484	1.306	1.339	1.117	0.876	0.799	0.895	0.638	0.689	0.790	0.682	0.687	0.575	0.698	0.518	0.449	0.488	0.464	0.363	0.343	0.344	0.320	0.317	0.397	0.290	0.316	0.299	0.262	0.320	0.419	0.493	0.305	0.297	0.788	1.984	3.960	6.409	7.388	4.145	0.908	0.237	0.186	0.209	0.227	0.215	0.166	0.215	0.180	0.224	0.197	0.245	0.165	0.192	0.192	0.233	0.224	0.158	0.243	0.203	0.203	0.202	0.196	0.164
240.0	132.0	122.4	253.7	1409	2313	456.4	35.39	5.555	3.779	3.895	3.024	2.473	2.598	1.855	1.819	1.329	1.492	1.099	0.926	0.932	0.751	0.643	0.675	0.729	0.745	0.662	0.634	0.673	0.514	0.473	0.545	0.389	0.385	0.350	0.347	0.323	0.399	0.375	0.280	0.357	0.294	0.307	0.295	0.355	0.545	0.537	0.462	0.439	0.650	1.193	3.058	7.986	11.30	8.442	3.611	0.601	0.227	0.169	0.264	0.197	0.181	0.214	0.196	0.206	0.210	0.228	0.228	0.225	0.187	0.231	0.166	0.221	0.177	0.177	0.175	0.211	0.181
245.0	91.70	184.3	129.8	443.5	2055	2600	352.6	18.09	4.649	4.645	3.152	2.810	2.693	2.172	2.130	1.569	1.237	1.272	0.938	0.976	0.889	0.818	0.606	0.749	0.730	0.577	0.575	0.619	0.449	0.598	0.410	0.534	0.411	0.381	0.321	0.287	0.434	0.254	0.265	0.365	0.347	0.343	0.401	0.263	0.369	0.495	0.765	0.719	0.518	0.481	0.884	2.495	6.561	12.93	14.43	8.797	2.607	0.410	0.286	0.227	0.188	0.184	0.175	0.176	0.214	0.210	0.211	0.222	0.201	0.215	0.164	0.233	0.180	0.182	0.197	0.256	0.224
250.0	39.88	120.4	218.1	207.9	616.1	1994	2950	1233	87.20	6.704	4.351	3.778	2.937	2.820	2.259	1.578	1.569	1.383	1.212	1.037	0.978	0.871	0.744	0.769	0.769	0.614	0.606	0.581	0.535	0.498	0.541	0.489	0.431	0.405	0.333	0.372	0.366	0.371	0.273	0.351	0.366	0.356	0.349	0.262	0.294	0.335	0.457	0.710	0.861	0.760	0.624	0.856	1.731	3.832	7.450	11.74	16.02	15.25	9.194	2.975	0.492	0.215	0.201	0.239	0.240	0.209	0.243	0.199	0.234	0.228	0.201	0.234	0.172	0.215	0.191	0.234	0.206
255.0	28.19	41.37	129.3	305.3	256.4	488.7	1754	4472	1792	105.0	6.299	5.975	3.964	3.157	2.396	2.069	1.648	1.350	1.203	1.133	0.831	0.809	0.887	0.756	0.645	0.679	0.676	0.597	0.539	0.436	0.546	0.512	0.383	0.394	0.451	0.290	0.364	0.335	0.329	0.309	0.335	0.409	0.342	0.297	0.348	0.296	0.286	0.384	0.438	0.699	1.155	1.444	1.026	1.049	1.920	2.942	5.286	12.29	23.62	26.91	15.38	3.545	0.342	0.228	0.221	0.225	0.234	0.222	0.189	0.209	0.273	0.203	0.185	0.194	0.221	0.264	0.221
260.0	26.12	28.02	49.42	230.3	325.7	180.0	493.7	2913	5386	1428	55.45	7.499	4.635	3.480	2.885	2.136	1.774	1.640	1.322	1.132	0.979	0.957	0.798	0.866	0.739	0.767	0.704	0.709	0.843	0.562	0.553	0.562	0.484	0.344	0.474	0.346	0.380	0.340	0.346	0.393	0.337	0.369	0.377	0.396	0.279	0.325	0.304	0.315	0.308	0.378	0.626	1.492	1.752	1.179	0.745	0.949	1.462	3.317	8.777	21.66	33.82	26.50	12.24	2.115	0.321	0.262	0.241	0.199	0.230	0.186	0.220	0.200	0.185	0.222	0.225	0.216	0.210
265.0	29.39	22.74	27.34	96.07	334.6	273.3	151.7	869.0	4358	6076	232.4	21.33	6.519	4.793	3.538	2.410	2.026	1.965	1.566	1.375	1.056	1.033	0.865	0.790	0.783	0.655	0.722	0.695	0.708	0.615	0.501	0.568	0.469	0.399	0.463	0.370	0.374	0.331	0.357	0.361	0.325	0.311	0.359	0.352	0.294	0.350	0.300	0.281	0.269	0.244	0.310	0.685	1.372	1.943	1.693	0.743	0.593	1.055	2.319	6.168	15.65	30.02	41.12	24.06	8.121	0.873	0.232	0.240	0.243	0.249	0.235	0.229	0.258	0.210	0.215	0.210	0.221
270.0	42.08	44.20	38.04	45.60	139.6	333.2	295.0	255.5	1244	4285	6224	2493	64.49	6.898	5.344	3.239	2.532	2.216	1.660	1.565	1.313	1.225	1.019	0.879	0.824	0.720	0.782	0.691	0.750	0.620	0.580	0.511	0.491	0.499	0.488	0.444	0.415	0.402	0.385	0.415	0.372	0.308	0.344	0.375	0.374	0.369	0.346	0.380	0.311	0.276	0.236	0.376	0.538	0.970	1.606	2.132	1.890	1.144	0.889	1.635	3.835	8.296	17.14	27.73	30.24	33.52	16.76	7.165	1.037	0.275	0.306	0.238	0.252	0.237	0.266	0.254	0.246
275.0	95.00	105.1	94.83	60.69	58.32	134.9	399.9	348.5	334.7	1034	3154	8882	1276	71.52	7.429	5.055	3.334	2.820	2.019	1.665	1.602	1.262	1.251	0.977	0.907	0.815	0.724	0.835	0.829	0.600	0.569	0.511	0.615	0.544	0.518	0.487	0.466	0.466	0.397	0.412	0.436	0.338	0.380	0.375	0.468	0.517	0.453	0.509	0.414	0.448	0.321	0.342	0.395	0.471	0.620	0.965	1.837	2.959	2.364	1.137	1.256	2.198	4.181	6.609	8.552	18.90	41.76	56.33	26.65	8.702	0.740	0.309	0.258	0.253	0.287	0.248	0.265
280.0	150.5	170.3	153.2	100.2	53.57	66.01	218.5	527.6	286.3	300.0	862.3	5069	9079	974.4	33.97	6.719	4.488	3.451	2.603	1.808	1.627	1.360	1.240	1.143	1.102	0.931	0.788	0.888	0.709	0.696	0.702	0.662	0.738	0.643	0.581	0.683	0.647	0.623	0.444	0.487	0.508	0.435	0.491	0.471	0.565	0.614	0.684	0.755	0.745	0.502	0.484	0.381	0.375	0.395	0.382	0.443	0.857	1.761	2.835	3.005	1.660	1.016	1.392	1.933	2.452	4.897	12.95	32.83	54.46	34.41	21.79	4.340	0.484	0.280	0.297	0.286	0.246
285.0	207.7	236.4	220.9	145.6	69.33	54.12	97.27	388.1	550.7	227.4	290.8	1443	6816	7977	641.1	14.22	5.811	4.280	3.261	2.535	1.796	1.391	1.721	1.235	1.127	1.170	0.958	0.836	0.789	0.709	0.679	0.634	0.714	0.770	0.684	0.787	0.678	0.710	0.537	0.548	0.458	0.462	0.566	0.598	0.582	0.755	0.829	0.891	0.874	0.707	0.578	0.548	0.438	0.467	0.407	0.431	0.512	0.767	1.456	3.033	3.693	2.497	1.231	1.006	1.301	1.811	3.512	8.510	19.49	38.46	61.05	31.94	15.51	1.890	0.373	0.366	0.333
290.0	272.1	336.8	322.2	204.0	107.5	73.25	90.47	188.8	468.2	583.8	318.7	480.5	1897	5470	6884	2089	35.41	6.008	3.882	3.157	2.368	1.659	1.786	1.423	1.196	1.197	0.931	0.937	0.793	0.836	0.777	0.708	0.724	0.794	0.709	0.742	0.726	0.763	0.666	0.591	0.564	0.564	0.619	0.710	0.769	0.829	0.908	1.071	1.043	1.006	0.691	0.706	0.574	0.498	0.465	0.545	0.569	0.636	0.889	1.374	2.099	3.103	3.509	2.844	1.912	1.353	1.623	2.706	5.277	10.03	20.66	30.51	43.52	40.13	32.28	11.21	2.300
295.0	319.9	412.7	393.2	259.6	148.1	118.9	130.1	169.9	272.7	566.8	763.2	413.5	636.3	1392	3333	8474	713.3	37.12	5.999	3.920	3.070	2.230	1.740	1.684	1.330	1.391	1.010	1.013	0.935	0.828	0.859	0.713	0.752	0.772	0.791	0.917	0.839	0.754	0.757	0.654	0.632	0.678	0.691	0.680	0.813	0.987	1.192	1.157	1.223	1.273	0.845	0.899	0.851	0.632	0.624	0.651	0.762	0.839	1.017	1.026	1.412	1.635	2.308	3.770	4.607	3.751	2.042	1.952	2.515	3.379	5.596	7.806	11.18	16.58	38.64	60.63	33.43
300.0	353.3	438.7	448.5	305.8	198.6	162.2	188.3	225.6	291.4	451.0	902.6	763.3	475.2	541.1	969.5	4929	5906	561.9	19.05	5.159	3.646	2.474	2.053	2.038	1.528	1.321	1.240	1.076	0.910	0.911	0.948	0.959	0.799	0.814	0.814	0.988	0.892	0.833	0.771	0.766	0.742	0.677	0.726	0.770	0.912	1.108	1.228	1.379	1.214	1.283	1.126	1.074	0.946	0.908	0.817	0.931	1.071	1.094	1.208	1.117	1.486	1.590	1.846	2.777	4.010	5.610	4.571	2.987	2.488	2.401	2.825	2.944	3.713	4.703	10.98	26.86	49.97
305.0	370.9	482.3	500.8	362.5	251.4	236.8	262.5	322.1	396.8	513.3	801.5	1192	725.6	492.5	480.2	1454	5839	5113	78.71	9.139	4.562	3.139	2.265	2.244	1.663	1.436	1.240	1.204	1.176	0.976	0.874	1.013	0.925	0.775	0.889	0.986	0.858	0.808	0.835	0.786	0.756	0.793	0.830	0.805	0.990	1.118	1.423	1.397	1.533	1.470	1.235	1.312	1.094	1.097	1.144	1.165	1.386	1.667	1.689	1.759	2.086	2.125	2.352	3.039	3.424	4.522	6.033	5.813	4.418	3.150	2.733	2.510	2.564	2.590	3.833	7.140	15.79
310.0	377.2	532.5	552.1	402.8	305.5	292.5	330.8	407.4	482.3	595.6	753.9	1050	1134	708.1	458.1	550.4	1724	4600	5230	1434	23.36	4.689	3.185	2.670	2.004	1.693	1.490	1.383	1.258	1.194	0.954	0.882	0.845	0.931	0.874	1.002	0.896	0.866	0.825	0.869	0.812	0.775	0.867	0.855	1.026	1.218	1.333	1.555	1.702	1.575	1.370	1.446	1.349	1.289	1.373	1.391	1.693	1.817	2.093	2.027	2.394	2.452	2.740	3.189	3.493	3.718	4.431	5.362	6.119	5.995	4.641	3.521	2.796	2.719	2.609	3.104	4.757
315.0	398.3	556.1	602.5	473.2	363.7	346.6	392.7	469.2	536.4	649.2	775.9	908.1	1039	1081	610.1	406.9	603.0	1191	3046	6798	507.5	21.94	4.567	3.437	2.469	2.192	1.735	1.392	1.212	1.307	0.993	0.935	0.925	0.872	0.836	0.850	0.869	0.848	0.838	0.763	0.783	0.851	0.954	0.906	1.123	1.225	1.282	1.911	1.751	1.728	1.367	1.642	1.485	1.401	1.682	1.586	1.859	1.940	2.249	2.370	2.721	2.749	2.948	3.333	3.485	3.760	4.237	4.316	4.947	5.304	6.521	6.108	4.359	3.286	2.593	2.403	2.748
320.0	427.8	629.9	679.4	544.3	422.1	390.4	429.9	506.4	577.9	688.0	810.3	920.9	953.8	1078	896.0	462.3	405.5	440.4	849.3	4485	4255	399.5	9.890	4.184	3.093	2.534	1.957	1.539	1.322	1.436	1.082	1.057	1.104	0.977	0.876	0.856	1.130	0.912	0.882	0.897	0.874	0.886	0.954	0.985	1.142	1.497	1.362	1.933	2.089	1.807	1.589	1.903	1.702	1.606	1.776	1.835	1.995	2.139	2.297	2.726	2.656	2.857	3.040	3.671	3.859	4.187	4.496	4.369	4.775	4.733	5.088	6.260	6.229	5.282	3.365	2.690	2.597
325.0	477.4	731.5	841.3	660.1	493.9	433.1	459.9	524.5	598.9	710.4	830.0	932.4	948.0	934.0	1027	631.2	400.1	305.1	300.4	1301	4959	3756	57.75	6.538	4.061	3.019	2.306	1.816	1.517	1.317	1.280	1.148	1.001	0.973	0.907	0.846	0.947	0.923	0.767	0.930	0.873	0.966	0.834	1.090	1.177	1.566	1.839	2.184	2.297	2.259	2.001	2.198	1.953	1.823	1.850	1.974	2.209	2.337	2.468	2.744	3.040	3.230	3.334	3.741	3.856	4.028	4.367	4.725	4.574	4.545	4.750	4.939	5.606	6.435	5.136	3.840	2.788
330.0	557.2	858.3	1056	912.7	643.8	513.2	490.5	540.5	609.9	713.4	830.6	942.4	948.9	890.9	884.9	811.3	552.7	320.8	213.5	391.8	1449	3815	4154	1072	17.49	3.839	2.830	2.370	1.728	1.614	1.326	1.124	1.199	0.929	0.957	0.964	0.989	0.939	0.920	0.895	0.897	0.900	0.995	1.101	1.386	1.792	2.171	2.818	2.897	3.026	2.655	2.698	2.610	2.312	2.189	2.069	2.442	2.435	2.529	2.692	2.874	3.047	3.302	3.562	3.929	4.064	4.302	4.664	4.607	4.515	4.621	4.857	4.842	4.976	5.136	5.210	4.517
335.0	596.4	981.6	1241	1116	833.3	612.8	538.1	563.6	613.7	712.4	831.1	945.5	962.3	911.8	830.8	739.0	764.7	468.1	252.3	232.5	409.7	934.4	2835	5580	412.0	17.14	3.686	2.850	2.125	1.740	1.494	1.142	1.385	1.086	0.972	0.973	1.105	0.901	0.977	0.951	0.788	0.864	1.157	1.193	1.501	2.081	2.488	3.062	3.390	3.441	3.340	3.339	3.198	2.842	2.499	2.400	2.579	2.609	2.461	2.772	2.712	3.213	3.298	3.618	3.861	4.011	4.398	4.394	4.751	4.690	4.851	4.693	4.770	4.594	4.361	4.427	4.723
340.0	615.1	1014	1302	1221	906.2	678.4	569.9	576.6	625.5	709.7	824.3	925.0	962.9	909.5	824.4	696.0	716.6	637.2	318.0	220.8	199.0	276.0	776.4	4032	3481	333.3	8.063	3.290	2.721	2.124	1.576	1.431	1.331	1.065	1.098	1.026	0.904	1.081	0.810	0.926	0.867	0.964	0.872	1.111	1.475	1.992	2.472	2.993	3.802	3.777	3.512	3.706	3.423	3.165	2.860	2.544	2.618	2.560	2.669	2.954	2.815	3.201	3.372	3.546	3.989	4.024	4.301	4.405	4.599	4.992	4.824	4.439	4.854	4.520	4.374	4.280	4.174
345.0	608.8	1014	1334	1269	966.3	708.3	587.8	582.3	622.8	704.0	805.8	896.2	933.1	897.7	810.2	680.6	619.3	647.4	443.5	244.1	171.4	147.2	232.0	1196	4427	3113	49.81	5.464	3.325	2.414	1.930	1.579	1.322	1.132	1.152	0.990	0.978	0.996	0.860	0.870	0.886	0.847	1.025	1.126	1.527	1.942	2.438	3.115	3.908	3.683	3.701	4.029	3.737	3.364	2.877	2.727	2.755	2.661	2.715	2.872	2.925	2.784	3.089	3.490	3.707	3.880	3.924	4.342	4.438	4.660	4.678	4.374	4.893	4.575	4.249	4.418	4.002
350.0	589.5	972.3	1291	1281	1007	754.7	611.6	591.5	625.7	692.9	778.0	851.2	888.2	867.5	795.3	680.1	594.9	547.0	522.5	377.5	209.3	151.2	136.2	324.5	1321	3301	3444	887.3	15.26	3.415	2.294	1.879	1.509	1.223	1.201	1.071	1.034	0.901	0.886	0.850	0.798	0.932	1.012	1.207	1.361	1.966	2.298	3.087	3.579	3.600	3.520	4.068	3.901	3.539	3.175	2.842	2.890	2.785	2.767	2.883	2.955	2.956	3.128	3.413	3.665	3.956	3.851	4.179	4.133	4.354	4.514	4.353	4.625	4.486	4.264	4.250	3.710
355.0	569.6	885.0	1203	1208	1014	800.8	664.7	631.8	654.5	690.4	760.3	833.9	850.4	839.3	787.0	687.5	605.6	524.9	465.8	490.0	328.8	191.2	147.1	154.9	349.5	802.2	2399	4516	374.7	15.78	3.346	2.384	1.740	1.326	1.309	1.070	1.061	0.985	0.905	0.911	0.933	0.923	0.955	1.152	1.317	1.723	2.111	2.926	3.187	3.425	3.372	4.143	3.969	3.498	3.405	3.003	3.136	2.862	2.933	3.037	3.231	3.171	3.203	3.499	3.680	3.884	3.887	4.290	3.986	4.227	4.359	4.384	4.236	4.255	4.216	4.356	3.923
360.0	516.5	833.4	1130	1196	1005	828.8	702.0	664.4	666.0	713.8	762.3	816.1	829.3	814.9	769.1	685.3	614.2	531.6	455.8	457.3	434.0	263.3	176.1	139.5	149.9	226.8	655.7	3334	3182	313.0	7.446	2.868	2.136	1.542	1.256	1.360	1.019	0.928	0.961	0.949	0.855	0.965	1.013	1.072	1.362	1.864	1.932	2.737	3.102	3.286	3.328	4.112	3.921	3.504	3.541	2.908	3.147	3.125	3.012	3.016	3.330	3.204	3.206	3.401	3.674	3.714	3.806	4.192	3.974	4.317	4.565	4.366	4.165	4.273	4.173	4.249	4.088
365.0	497.3	815.0	1095	1172	1007	845.6	738.3	685.4	681.4	726.5	775.4	789.9	818.0	800.0	751.9	681.4	621.0	546.3	466.5	423.2	443.8	371.9	218.1	159.2	124.4	114.8	190.6	998.0	3837	2915	47.01	4.845	2.800	1.963	1.562	1.354	1.083	0.921	0.979	0.964	0.822	0.833	0.933	1.106	1.303	1.771	1.730	2.607	3.004	3.266	3.280	3.953	3.871	3.523	3.442	3.031	3.074	3.065	3.126	2.848	3.514	3.255	3.341	3.484	3.618	3.735	3.743	4.097	3.783	4.116	4.054	4.282	4.279	4.235	4.363	4.254	3.981
370.0	498.2	770.8	1019	1087	999.2	864.4	759.8	706.6	707.9	743.5	770.9	777.7	792.3	773.0	737.9	679.2	625.3	563.8	499.5	438.4	406.9	416.3	335.6	213.8	151.6	116.0	108.5	269.8	1145	3017	3198	837.9	14.13	2.839	1.950	1.418	1.299	1.108	1.048	0.949	0.922	0.936	1.054	1.086	1.271	1.551	1.863	2.461	2.815	2.949	2.993	3.778	3.813	3.742	3.384	3.213	3.397	3.122	3.232	3.043	3.269	3.537	3.556	3.591	3.658	3.622	3.739	3.650	3.814	3.971	3.993	4.121	4.092	4.090	4.238	4.198	4.211
375.0	463.7	718.6	943.8	1004	973.9	861.0	777.4	721.0	720.6	745.7	759.6	769.4	761.6	756.8	711.0	666.1	626.1	577.4	519.3	466.7	413.2	385.3	402.3	317.8	198.9	146.6	115.7	126.4	299.8	734.5	2224	4069	329.8	14.57	2.730	1.879	1.577	1.368	1.118	0.931	0.955	0.973	1.045	1.189	1.232	1.592	1.877	2.326	2.672	2.764	2.701	3.575	3.670	3.632	3.561	3.225	3.323	3.431	3.147	3.357	3.306	3.536	3.482	3.453	3.676	3.704	3.893	3.785	3.785	3.873	4.130	3.856	4.035	3.924	4.022	4.313	4.132
380.0	443.9	696.2	897.8	983.0	970.3	863.0	793.2	733.7	732.3	748.6	756.9	750.6	762.6	741.1	699.3	655.9	621.7	578.0	531.6	486.5	431.9	382.3	384.1	386.7	260.7	174.5	137.1	112.3	126.7	206.4	610.5	2991	2763	266.5	6.672	2.382	1.781	1.515	1.146	1.167	0.986	0.965	1.069	1.066	1.174	1.497	1.598	2.230	2.639	2.575	2.541	3.323	3.594	3.502	3.360	3.216	3.385	3.529	3.319	3.360	3.404	3.441	3.339	3.574	3.498	3.745	3.762	3.568	3.933	3.848	4.012	3.881	3.800	3.920	4.215	4.331	3.973
385.0	443.4	671.2	867.1	952.4	965.4	862.3	806.1	752.4	757.1	752.2	752.7	750.5	744.4	726.8	685.5	647.5	611.9	576.4	534.1	490.0	445.4	396.3	365.6	381.4	339.1	215.2	160.4	125.2	102.3	100.9	176.2	884.1	3140	2443	38.95	3.703	2.324	1.687	1.175	1.177	1.085	1.066	0.980	1.065	1.319	1.458	1.602	2.123	2.513	2.499	2.616	3.312	3.595	3.337	3.441	3.164	3.350	3.552	3.344	3.221	3.425	3.576	3.521	3.455	3.690	3.683	3.913	3.460	3.585	3.914	3.911	3.782	3.659	3.762	4.029	3.903	3.819
390.0	423.7	632.6	834.1	913.5	922.1	863.7	800.3	754.6	749.3	739.5	740.8	727.5	719.3	696.4	664.4	626.6	599.0	565.2	534.5	497.5	453.0	413.8	376.5	356.5	357.1	302.8	206.9	154.8	120.7	95.95	93.59	236.3	907.4	2275	2446	703.7	12.83	2.417	1.611	1.370	1.174	1.024	1.147	1.180	1.251	1.510	1.648	2.170	2.273	2.403	2.558	3.109	3.470	3.350	3.408	3.323	3.341	3.496	3.480	3.515	3.397	3.517	3.508	3.447	3.623	3.514	3.609	3.486	3.535	3.545	3.777	3.776	3.884	3.656	3.797	3.861	3.812
395.0	427.6	616.3	798.8	868.0	905.2	866.7	806.2	752.1	742.2	721.8	722.4	718.0	698.2	675.4	640.7	609.4	584.1	557.4	530.0	498.1	465.8	427.4	393.0	357.8	336.1	336.3	290.8	199.6	151.1	119.7	95.52	105.4	236.8	547.1	1543	3030	279.7	15.22	2.370	1.780	1.374	1.211	1.187	1.200	1.287	1.518	1.631	2.054	2.432	2.310	2.498	3.181	3.416	3.347	3.225	3.104	3.454	3.482	3.471	3.393	3.385	3.345	3.438	3.281	3.436	3.520	3.496	3.609	3.565	3.239	3.692	3.834	3.757	3.663	3.491	3.702	3.794
400.0	412.4	603.9	819.0	873.0	871.9	842.4	800.1	758.0	733.0	722.2	714.8	702.4	696.0	659.1	625.7	591.4	560.9	545.3	516.3	493.2	464.6	433.0	400.4	371.4	340.2	323.2	331.9	253.6	176.6	141.2	110.5	88.64	94.48	152.0	409.2	2010	2304	243.4	7.897	2.124	1.492	1.392	1.294	1.129	1.205	1.535	1.731	1.921	2.114	2.247	2.495	3.122	3.367	3.416	3.350	3.295	3.344	3.387	3.611	3.378	3.215	3.539	3.502	3.318	3.437	3.365	3.285	3.329	3.448	3.313	3.446	3.739	3.389	3.693	3.553	3.818	3.697
405.0	390.9	576.6	782.0	847.1	869.2	830.3	794.4	756.7	737.7	717.1	706.0	699.0	677.1	651.3	609.3	575.4	546.1	527.4	508.1	484.0	460.3	433.2	410.7	384.1	347.8	319.7	319.5	305.8	214.5	161.5	127.3	97.72	73.91	70.14	116.5	559.3	2151	2096	36.16	4.186	2.002	1.517	1.319	1.173	1.278	1.548	1.522	1.828	2.212	2.215	2.313	2.928	3.217	3.303	3.399	3.293	3.415	3.311	3.496	3.259	3.217	3.494	3.458	3.382	3.347	3.477	3.285	3.181	3.199	3.293	3.432	3.445	3.472	3.574	3.487	3.636	3.443
410.0	400.4	571.5	737.1	810.8	824.6	810.2	770.0	752.8	720.8	709.2	697.7	682.3	659.9	627.4	587.1	551.7	523.8	505.7	485.7	469.1	450.2	430.3	410.0	389.0	357.6	327.0	305.7	305.4	278.0	202.3	149.5	115.2	82.82	62.78	58.77	148.2	589.2	1613	1928	649.9	13.12	1.982	1.440	1.303	1.355	1.452	1.561	1.879	2.178	2.089	2.245	2.906	3.149	3.209	3.530	3.183	3.307	3.246	3.295	3.421	3.299	3.388	3.565	3.324	3.341	3.306	3.111	3.206	3.152	3.172	3.312	3.324	3.264	3.442	3.423	3.574	3.294
415.0	392.3	549.8	694.7	760.2	775.4	784.3	751.8	739.8	699.1	689.9	685.0	651.5	634.1	601.8	562.0	521.4	495.8	477.2	459.7	444.6	428.1	419.1	404.3	381.3	358.4	333.4	307.4	282.0	287.5	256.2	178.2	128.5	94.61	70.46	51.55	61.20	151.2	379.1	1014	2259	262.7	16.72	2.047	1.589	1.375	1.412	1.678	1.843	2.005	2.108	2.284	2.874	3.009	3.118	3.316	3.215	3.382	3.421	3.235	3.325	3.110	3.214	3.503	3.328	3.119	2.965	3.099	3.155	3.004	2.881	3.134	3.007	3.225	3.297	3.435	3.449	3.197
420.0	371.5	537.0	657.7	737.9	756.7	770.4	734.4	711.5	703.0	678.8	662.9	637.9	612.7	579.1	534.5	493.0	469.5	452.5	438.7	425.0	408.4	400.8	394.3	373.9	355.1	332.3	305.4	282.0	269.4	269.4	215.3	145.2	104.4	78.01	56.62	46.90	56.72	100.4	256.6	1306	2046	243.1	9.762	1.902	1.654	1.569	1.562	1.909	1.979	2.005	2.268	2.671	2.752	2.935	3.085	3.133	3.198	3.519	3.484	3.277	3.416	3.334	3.184	3.090	2.870	2.951	2.892	2.887	2.706	2.979	2.971	3.179	3.005	3.195	3.056	3.103	3.124
425.0	344.9	502.3	644.1	704.6	748.9	752.9	729.0	701.8	683.5	667.2	649.9	622.6	587.2	563.1	513.6	468.4	449.9	430.2	418.2	406.0	392.2	385.7	377.3	365.9	348.8	331.9	308.1	279.0	260.2	257.2	239.9	166.2	115.4	86.80	62.59	48.22	39.37	41.13	69.74	343.7	1486	1839	192.0	4.621	1.787	1.815	1.564	1.743	2.068	2.147	2.206	2.588	2.751	2.820	3.115	2.850	3.181	3.429	3.421	3.284	3.151	3.418	2.909	3.209	2.908	3.175	3.020	2.764	2.649	3.042	2.773	3.027	3.029	2.676	2.973	2.944	2.934
430.0	404.2	489.5	604.7	671.6	719.7	710.9	702.5	692.9	670.2	656.3	632.9	604.2	564.3	528.6	487.1	446.1	424.4	406.0	395.8	383.2	374.9	366.9	364.1	353.6	339.6	324.0	304.1	281.1	258.7	240.1	229.5	201.4	139.5	98.42	74.22	55.39	41.43	32.26	32.09	88.44	383.4	1137	1551	609.7	13.96	2.429	1.815	1.918	2.174	2.081	2.039	2.448	2.751	2.717	2.983	2.822	3.012	3.229	3.256	3.195	3.037	3.100	3.234	3.036	3.047	3.049	2.859	2.854	2.843	2.843	2.787	2.931	2.775	2.691	2.687	2.839	2.892
435.0	597.5	482.6	595.7	642.1	693.4	688.8	686.3	678.2	661.2	639.7	616.4	587.4	546.5	507.0	465.6	418.5	402.4	381.8	372.0	360.2	352.3	349.3	344.2	338.6	325.3	316.9	298.4	278.4	259.6	237.7	214.5	198.1	173.6	118.6	83.82	63.14	48.76	36.25	28.83	34.85	96.94	263.8	660.8	1810	926.8	19.72	2.342	2.166	2.267	2.007	2.014	2.421	2.679	2.682	2.699	2.711	3.035	3.324	2.983	3.093	3.133	3.240	3.141	3.098	3.102	2.999	2.792	2.772	2.695	2.900	2.540	2.694	2.754	2.683	2.604	2.705	2.684
440.0	715.3	548.8	567.3	631.5	673.5	668.6	673.8	661.1	641.8	627.0	605.8	571.3	531.5	483.0	441.4	403.8	382.7	361.4	350.0	344.8	335.0	335.7	329.0	323.7	316.4	306.0	288.9	276.1	256.5	236.5	208.0	185.5	177.2	141.1	93.86	69.93	53.11	40.43	30.64	26.28	35.28	68.72	161.9	914.2	1944	240.7	12.73	2.411	2.187	1.898	1.991	2.478	2.510	2.578	2.606	2.658	2.986	3.238	2.959	3.145	2.985	2.989	3.102	3.040	2.992	2.800	2.563	2.826	2.680	2.589	2.671	2.668	2.702	2.499	2.518	2.507	2.760
445.0	681.9	704.5	534.6	601.8	648.5	630.4	645.7	637.6	620.2	607.3	591.1	553.4	512.6	466.0	422.0	384.8	361.2	348.7	337.5	327.1	321.8	314.8	311.8	310.3	303.2	291.7	281.3	269.7	250.9	232.3	208.1	178.4	163.5	152.9	108.3	75.13	58.17	43.29	34.79	26.51	23.74	27.18	45.20	230.6	1166	1714	187.2	7.621	2.473	2.112	2.027	2.449	2.574	2.491	2.537	2.440	2.798	2.967	3.040	3.153	2.978	2.671	3.012	3.032	2.933	2.866	2.744	2.577	2.424	2.472	2.690	2.677	2.629	2.505	2.527	2.425	2.681
450.0	479.1	964.3	661.1	557.4	596.3	599.1	620.2	605.9	593.9	577.7	558.0	523.1	483.7	432.4	393.2	357.3	333.5	317.5	309.3	301.8	294.8	290.4	289.6	288.8	281.7	272.6	264.2	253.4	241.8	224.1	202.5	171.5	150.0	140.2	124.7	90.33	63.84	48.90	38.99	30.18	23.72	20.03	20.98	59.73	289.7	913.8	1377	660.0	13.67	2.546	2.134	2.330	2.468	2.427	2.450	2.616	2.844	2.844	2.865	2.848	2.854	2.732	2.833	2.766	2.663	2.652	2.695	2.429	2.450	2.362	2.427	2.562	2.359	2.320	2.359	2.404	2.410
455.0	288.9	911.6	1099	558.3	541.7	557.0	558.1	572.4	555.4	535.3	521.8	487.2	449.1	405.0	362.8	324.8	305.5	289.6	279.3	272.2	266.0	260.2	260.7	259.5	256.4	249.2	242.7	234.1	226.4	211.5	192.3	166.1	142.8	125.2	115.2	105.9	75.65	54.08	42.98	33.93	26.49	21.70	16.96	23.24	72.32	210.7	487.2	1425	823.8	17.63	2.459	2.422	2.400	2.468	2.336	2.605	2.686	2.656	2.545	2.597	2.753	2.555	2.534	2.642	2.558	2.417	2.403	2.210	2.351	2.270	2.200	2.349	2.107	2.118	2.189	2.158	2.260
460.0	246.9	631.8	1456	715.1	521.3	525.6	524.6	532.8	528.9	502.3	491.4	458.1	418.3	374.8	335.8	301.7	281.9	270.0	258.2	250.3	245.5	240.5	240.4	239.3	238.6	232.1	224.7	219.8	212.9	200.3	182.9	160.9	137.8	117.9	104.2	104.5	86.89	58.77	44.93	36.32	28.40	22.99	18.31	16.14	24.73	53.63	116.6	625.9	1491	185.7	12.40	2.661	2.524	2.362	2.371	2.404	2.417	2.561	2.389	2.673	2.631	2.454	2.441	2.604	2.478	2.264	2.164	2.311	2.117	1.952	2.151	2.077	2.132	1.938	2.004	2.181	2.197
465.0	224.1	402.3	1430	957.4	494.7	486.9	498.2	506.6	499.0	478.7	463.9	430.7	390.7	349.9	313.5	279.8	263.8	245.9	239.8	229.8	227.7	223.0	223.2	222.0	219.8	215.1	210.3	205.7	200.3	189.1	173.4	153.4	132.1	114.6	97.17	92.20	90.04	66.74	46.35	37.48	30.74	24.64	19.09	15.76	14.63	19.22	32.09	153.2	821.5	1255	162.3	9.182	2.541	2.396	2.242	2.354	2.446	2.496	2.327	2.388	2.355	2.265	2.357	2.433	2.324	2.184	2.074	2.251	2.075	2.133	2.059	1.974	2.009	1.783	1.899	1.883	1.921
470.0	226.3	312.1	857.7	1636	645.3	434.8	454.2	459.9	455.6	441.1	423.8	393.6	353.6	316.4	285.2	255.5	236.6	219.4	216.4	207.1	202.4	198.9	198.4	198.3	196.9	192.4	187.0	185.2	179.9	172.4	159.9	142.6	122.3	107.2	91.75	81.06	78.67	71.15	53.84	39.39	31.17	25.81	20.60	16.46	13.35	12.56	13.76	39.70	201.0	629.4	941.2	515.0	14.29	2.527	2.244	2.135	2.273	2.181	2.180	2.206	2.275	2.157	2.288	2.267	2.171	2.076	2.028	1.960	1.921	1.875	1.649	1.823	1.780	1.772	1.715	1.643	1.798
475.0	221.6	267.3	438.1	1421	1388	435.0	416.4	418.9	411.5	396.0	378.9	355.8	318.7	283.8	255.1	227.2	210.1	197.6	189.0	182.7	177.8	175.5	173.3	175.2	172.2	170.2	167.1	164.5	160.1	154.9	144.5	130.4	113.8	99.51	84.67	74.75	66.32	64.14	60.83	43.88	31.83	26.34	21.34	17.06	14.22	12.06	10.24	14.93	49.60	144.5	309.2	911.8	588.4	19.45	2.517	2.307	2.169	2.066	1.949	2.001	2.100	1.956	1.970	2.109	1.877	2.021	1.755	1.694	1.877	1.837	1.680	1.758	1.658	1.495	1.563	1.543	1.526
480.0	220.1	272.2	332.0	857.7	1846	565.2	372.9	377.0	374.5	367.6	358.4	330.7	299.4	266.0	235.4	210.7	194.5	180.9	173.5	167.5	164.7	160.8	160.2	158.8	155.9	153.3	154.1	150.4	147.7	145.7	134.1	121.6	106.6	95.01	80.54	72.21	61.56	56.23	57.85	49.51	34.91	25.95	21.95	17.70	14.63	12.51	10.31	9.847	16.45	36.74	73.62	364.9	1024	210.1	13.51	2.227	2.155	2.198	1.797	1.824	1.849	1.893	1.882	1.931	1.734	1.789	1.824	1.810	1.747	1.562	1.746	1.423	1.565	1.361	1.440	1.551	1.349
485.0	191.3	285.4	286.7	467.7	1747	1119	356.4	355.6	354.1	346.5	335.6	310.0	279.1	248.6	219.2	196.8	180.1	166.9	158.9	154.5	151.6	147.2	146.7	146.9	144.5	142.3	141.8	137.9	137.0	134.4	125.9	114.8	101.1	89.86	78.26	69.01	59.58	52.82	52.01	51.55	39.47	26.85	21.73	18.56	15.31	12.83	10.63	8.988	9.140	12.72	20.18	88.88	539.4	945.8	181.6	7.490	2.342	2.037	1.925	1.736	1.818	1.705	1.854	1.856	1.737	1.610	1.690	1.479	1.776	1.503	1.549	1.547	1.388	1.304	1.257	1.378	1.320
490.0	151.0	273.5	277.4	319.3	971.8	1765	587.7	324.4	327.8	319.2	309.7	288.0	256.9	225.8	200.0	177.5	163.6	153.4	145.7	140.9	136.8	135.0	132.2	131.2	129.9	128.7	126.0	124.6	123.5	121.9	114.7	105.6	94.53	82.93	73.50	64.57	56.13	49.75	44.51	44.52	42.64	32.29	23.13	18.86	15.64	13.31	11.09	9.405	7.878	7.710	8.535	23.30	130.9	438.6	781.4	466.4	15.31	2.258	1.863	1.748	1.757	1.797	1.809	1.692	1.710	1.563	1.557	1.553	1.481	1.471	1.341	1.278	1.307	1.196	1.172	1.294	1.220
495.0	129.9	230.2	281.0	257.0	436.2	1523	1347	326.4	289.6	283.4	275.9	260.5	231.3	205.2	177.0	158.9	145.1	136.8	129.4	122.8	120.8	119.7	119.0	118.4	116.2	115.0	113.4	110.5	111.5	109.1	103.1	96.79	85.31	75.75	68.53	59.83	53.04	46.71	41.35	37.38	38.07	36.12	26.65	19.40	15.66	13.31	11.42	9.867	8.463	6.990	6.109	8.865	32.32	100.9	268.0	839.6	605.9	21.28	2.116	1.855	1.605	1.743	1.677	1.644	1.483	1.389	1.545	1.485	1.328	1.273	1.290	1.237	1.347	1.206	1.303	1.088	1.305
500.0	112.8	190.0	297.2	254.1	292.0	890.3	1909	411.7	266.9	258.9	257.4	235.7	210.4	187.1	164.8	147.4	133.8	124.2	117.5	114.0	107.7	107.3	106.4	106.1	104.7	102.4	102.6	100.5	101.3	98.17	94.38	87.04	77.88	70.94	62.85	55.81	49.49	43.73	38.54	33.70	32.45	34.11	29.88	20.60	15.75	13.63	11.73	10.09	8.465	7.306	5.879	5.479	10.35	25.27	63.61	335.5	958.8	229.6	14.31	1.830	1.616	1.623	1.650	1.445	1.328	1.306	1.409	1.334	1.178	1.174	1.071	1.111	1.056	0.983	1.241	1.055	1.073
505.0	107.5	151.4	266.1	261.8	233.1	450.0	1866	972.3	252.5	237.1	232.3	219.8	194.2	170.9	148.6	132.9	122.4	114.2	107.7	103.1	99.61	98.32	95.37	95.49	96.64	93.11	92.61	91.99	91.52	89.86	86.44	78.75	72.23	66.24	57.54	51.91	46.24	40.92	36.19	31.86	28.71	28.84	30.49	22.60	16.58	13.17	11.82	9.988	8.220	7.573	5.761	4.911	5.605	8.531	17.01	81.04	473.6	872.3	193.2	6.947	1.732	1.492	1.424	1.257	1.300	1.298	1.059	1.135	1.219	1.164	1.195	1.092	1.063	0.985	1.111	1.197	1.069
510.0	95.37	129.7	210.2	269.5	208.7	255.2	1012	1786	439.0	217.0	208.5	191.2	171.7	152.7	133.9	118.6	107.6	100.2	94.11	89.20	87.84	84.51	84.02	83.85	83.30	80.75	80.29	80.18	80.42	78.64	76.27	69.43	62.73	57.87	51.70	46.21	41.65	37.07	32.95	29.62	26.00	24.66	25.91	24.97	18.46	13.79	11.32	9.699	8.004	7.138	6.015	5.227	4.448	4.802	6.363	20.36	113.8	389.0	650.1	319.3	14.66	1.682	1.408	1.346	1.257	1.188	1.074	1.115	1.049	1.050	0.970	0.949	0.975	0.981	0.962	0.914	0.939
515.0	89.10	112.0	155.5	245.0	216.8	197.9	385.9	1631	1230	215.0	183.1	166.9	151.2	132.7	114.9	101.9	92.57	87.05	80.89	76.46	73.65	74.53	72.53	72.71	71.06	70.31	68.76	68.46	69.49	68.88	65.91	60.91	55.50	49.96	44.96	41.96	36.73	33.00	29.74	26.70	23.63	21.65	19.91	21.48	20.94	15.17	10.94	9.526	7.696	6.560	5.984	5.513	4.675	3.730	4.118	6.857	27.53	88.73	209.1	628.6	241.7	19.68	1.477	1.319	1.129	1.083	1.064	1.064	0.895	0.897	0.908	0.832	0.868	0.846	0.835	0.765	0.755
520.0	82.31	94.16	126.4	201.6	227.7	167.4	212.0	944.6	1952	287.3	165.7	153.0	141.6	118.2	102.5	90.50	83.45	78.90	72.69	67.75	64.85	65.47	63.72	63.33	62.40	61.84	60.77	61.18	62.53	60.96	58.21	54.96	48.51	45.66	40.64	37.32	33.53	30.97	27.11	24.93	21.94	19.52	18.05	17.79	19.96	16.78	11.17	9.095	7.565	6.679	5.786	5.297	4.521	3.733	3.660	3.607	8.332	21.73	49.16	253.3	658.8	219.4	11.69	1.302	1.155	1.043	0.970	0.919	0.877	0.847	0.769	0.715	0.753	0.676	0.780	0.740	0.740
525.0	62.83	83.54	108.9	158.8	233.7	162.4	164.0	410.2	2065	828.0	155.9	138.9	123.6	108.7	94.37	84.17	73.81	71.94	66.29	61.75	58.84	59.01	57.63	56.52	56.40	55.95	54.83	55.13	55.63	53.97	52.10	49.30	45.21	41.68	37.13	33.32	31.33	28.59	24.79	22.55	19.96	17.69	16.07	14.95	16.90	17.70	12.69	8.861	7.323	6.554	5.585	4.952	4.663	4.292	3.270	2.821	3.909	6.770	12.58	60.85	331.1	625.7	172.9	4.839	1.189	1.109	0.992	0.947	0.858	0.781	0.729	0.828	0.686	0.695	0.663	0.676	0.808
530.0	63.25	77.15	100.8	121.0	189.7	182.6	134.8	197.8	1109	1824	322.9	123.8	109.0	94.51	82.82	74.55	65.39	60.57	57.40	53.77	51.93	50.84	49.98	49.19	48.79	48.35	47.48	47.41	46.91	47.48	45.17	42.94	39.20	36.02	32.74	29.18	27.16	24.62	22.36	19.94	18.18	16.33	14.17	13.23	13.09	14.87	14.30	10.04	7.364	6.012	5.244	4.494	4.218	4.231	3.577	2.754	2.831	3.312	4.515	15.12	79.83	280.4	463.3	226.8	13.12	1.141	0.984	0.911	0.791	0.788	0.753	0.689	0.701	0.657	0.629	0.648	0.618
535.0	57.72	70.68	86.13	97.51	132.9	199.0	128.9	128.2	366.7	1772	1099	118.3	95.23	81.46	70.94	62.52	55.46	54.79	48.67	46.13	44.05	43.14	42.23	41.76	41.04	41.74	40.22	39.38	41.02	39.68	38.77	35.91	33.49	30.43	27.96	25.38	23.66	21.15	19.31	16.99	15.78	14.25	12.70	11.61	10.78	11.41	12.90	11.34	8.011	5.643	4.879	4.078	3.887	3.546	3.419	2.952	2.574	2.513	2.491	4.840	19.13	63.80	147.5	442.5	234.0	17.24	1.155	0.917	0.749	0.698	0.704	0.573	0.651	0.581	0.580	0.516	0.530
540.0	45.98	57.13	74.42	87.53	100.0	171.8	137.1	109.9	159.9	974.1	1919	187.4	85.24	73.14	63.63	53.45	50.60	46.83	43.12	41.47	38.40	38.14	35.90	37.11	35.86	35.66	35.01	34.78	35.56	34.88	34.05	31.19	28.81	26.89	24.46	22.14	21.02	19.27	16.59	15.95	14.24	12.96	11.54	10.57	9.713	9.140	10.27	11.33	8.986	5.682	4.581	3.803	3.521	3.258	3.188	3.242	2.511	2.345	2.092	2.467	5.566	15.56	34.70	176.3	467.7	196.2	9.452	0.996	0.762	0.691	0.742	0.627	0.698	0.507	0.520	0.535	0.544
545.0	48.83	57.16	73.86	76.77	85.48	140.7	152.7	98.68	105.9	379.2	2063	619.3	75.77	64.58	57.54	48.62	43.79	40.70	38.04	36.35	34.42	33.32	31.88	32.23	31.89	31.81	29.43	30.82	31.45	30.10	30.19	27.69	25.59	23.30	21.56	19.57	18.84	16.86	14.93	14.47	12.57	11.72	10.56	9.928	8.854	8.287	8.216	9.469	9.277	6.245	4.350	3.768	3.031	3.018	2.851	2.955	2.843	2.352	1.965	1.945	2.364	4.623	8.926	42.33	226.4	442.9	138.4	3.477	0.853	0.666	0.588	0.536	0.655	0.501	0.512	0.506	0.489
550.0	53.00	59.09	65.47	63.73	70.30	95.27	151.1	104.3	82.12	148.2	1038	1608	131.7	53.86	47.30	40.52	36.52	34.89	31.26	30.95	28.75	27.38	26.95	26.68	26.25	25.99	25.69	25.25	25.97	25.51	24.76	23.57	21.74	19.55	17.92	16.88	15.61	14.29	12.66	11.99	10.95	9.655	8.933	8.472	7.663	6.798	6.480	6.954	7.772	7.005	4.913	3.681	2.922	2.753	2.537	2.491	2.525	2.368	1.766	1.662	1.714	2.155	3.070	10.37	54.18	188.6	309.3	135.4	12.29	0.785	0.625	0.483	0.526	0.469	0.465	0.522	0.392
555.0	45.18	59.28	58.72	53.38	56.52	65.21	115.6	124.1	68.02	82.91	305.5	1629	767.5	50.43	39.23	33.49	30.86	28.69	26.23	24.67	23.03	22.30	22.54	21.63	21.33	21.49	20.59	20.83	20.84	20.81	19.97	18.87	17.67	16.27	14.77	13.85	12.73	11.39	10.80	9.702	9.176	7.968	7.615	6.873	6.355	5.746	5.557	4.914	5.465	6.086	5.662	3.832	2.372	2.479	2.237	1.987	1.967	2.236	2.064	1.474	1.515	1.396	1.572	3.122	12.91	42.90	95.05	272.5	203.6	15.25	0.721	0.593	0.448	0.496	0.526	0.428	0.406
560.0	44.83	54.92	55.55	48.71	49.09	49.99	80.01	131.6	68.76	65.23	114.7	867.4	1439	96.50	34.00	27.76	27.02	24.71	22.41	19.36	19.68	19.32	18.79	18.34	17.71	18.01	16.77	17.67	17.71	17.12	16.62	15.80	15.03	14.05	13.02	11.52	10.49	9.666	8.978	8.311	7.956	7.073	6.631	6.129	5.602	4.907	4.582	4.229	4.131	4.907	5.348	4.015	2.409	2.300	1.984	1.879	1.692	1.917	2.036	1.577	1.401	1.272	1.393	1.538	3.714	10.37	22.21	103.2	294.2	148.3	7.201	0.632	0.450	0.442	0.541	0.377	0.397
565.0	41.52	54.40	52.71	48.98	47.99	41.93	55.94	120.1	81.81	54.15	67.95	312.5	1735	375.5	30.20	25.51	23.12	21.28	19.31	17.47	17.10	16.12	15.98	15.82	15.24	14.82	15.08	14.35	15.10	14.73	14.09	13.34	12.78	11.53	11.10	9.674	9.343	8.473	7.946	7.023	6.878	6.106	5.621	5.000	4.913	4.114	3.775	3.745	3.389	3.515	4.579	4.477	2.748	2.124	1.754	1.714	1.612	1.537	1.742	1.908	1.370	1.133	1.125	1.158	1.687	3.118	5.640	24.73	130.0	269.8	34.08	2.753	0.558	0.428	0.423	0.398	0.416
570.0	43.27	57.54	54.08	45.51	37.58	35.95	43.60	80.74	107.0	51.35	50.91	108.0	897.4	1182	71.96	20.62	18.79	16.91	15.90	14.06	13.77	13.07	13.20	12.65	12.37	11.81	11.94	11.64	11.96	11.78	10.98	10.65	10.24	9.303	8.836	7.647	7.520	6.786	6.670	5.944	5.446	4.966	4.546	4.234	4.033	3.546	3.415	3.040	2.895	2.598	3.087	3.607	2.957	2.066	1.660	1.490	1.392	1.312	1.294	1.512	1.530	1.160	1.048	0.975	1.091	1.390	1.903	6.236	30.78	107.3	168.6	101.5	10.96	0.522	0.505	0.368	0.446
575.0	44.06	51.65	52.86	39.60	33.85	31.89	34.59	48.77	105.7	68.94	43.25	55.47	255.1	1288	487.3	18.75	15.01	14.31	12.85	11.29	11.42	10.43	10.61	10.03	9.748	9.462	9.137	9.827	9.390	9.317	9.061	8.844	7.990	7.521	6.990	6.199	5.905	5.469	5.171	4.996	4.273	4.241	3.738	3.494	3.202	2.863	2.915	2.697	2.243	2.157	2.158	2.540	2.933	2.340	1.606	1.237	1.165	1.098	1.133	1.180	1.287	1.404	1.160	0.929	0.905	0.956	1.035	2.041	7.515	24.55	49.16	152.8	135.4	13.10	0.511	0.436	0.422
580.0	40.22	51.50	45.87	38.10	31.11	30.77	29.66	34.76	78.13	87.78	43.50	43.57	85.41	700.7	1012	40.46	13.64	11.45	10.79	10.01	9.544	8.719	8.756	8.233	7.907	8.060	7.715	8.144	8.182	7.850	7.316	7.529	6.948	6.146	5.784	5.541	5.138	4.658	4.471	4.170	3.622	3.609	3.081	3.064	2.808	2.878	2.420	2.333	1.876	1.928	1.654	1.938	2.302	2.315	1.752	1.190	1.082	1.018	0.990	1.015	0.983	1.318	1.382	0.854	0.826	0.808	0.853	1.099	2.221	6.082	11.57	53.62	171.7	99.77	5.990	0.451	0.383
585.0	47.69	46.15	50.43	39.66	28.48	26.43	26.71	30.08	57.52	96.51	47.85	39.85	43.92	241.2	1273	109.7	12.20	10.34	9.580	8.943	7.962	7.928	7.406	7.519	7.128	6.677	6.424	6.769	7.128	6.749	6.336	6.274	6.007	5.269	5.158	4.533	4.495	3.961	3.608	3.274	3.123	3.260	2.687	2.474	2.620	2.568	2.185	2.052	1.819	1.615	1.548	1.566	1.792	2.122	1.998	1.321	1.076	1.028	0.951	0.904	0.938	0.929	1.265	1.128	0.908	0.691	0.781	0.940	0.967	1.889	3.186	12.61	68.74	159.5	33.82	2.518	0.448
590.0	41.97	47.58	45.36	34.31	26.76	23.76	25.69	26.70	37.82	82.96	67.56	36.83	34.45	76.27	661.2	725.8	34.59	8.851	7.797	7.292	6.706	6.563	6.173	6.168	5.882	5.570	5.389	5.533	5.626	5.726	5.310	5.147	4.881	4.374	4.244	3.795	3.633	3.434	3.079	2.768	2.551	2.689	2.312	2.257	2.103	1.939	1.817	1.746	1.565	1.391	1.246	1.239	1.175	1.484	1.786	1.485	1.067	0.866	0.797	0.754	0.761	0.800	0.968	1.117	1.037	0.719	0.661	0.777	0.685	0.900	1.205	3.245	16.11	58.38	99.91	69.00	10.41
595.0	49.07	45.86	43.56	33.02	23.08	22.88	24.00	25.91	31.90	54.22	85.93	40.89	31.32	35.86	179.0	861.1	255.7	8.122	6.850	6.159	5.464	5.267	4.946	4.965	4.857	4.556	4.315	4.560	4.434	4.358	4.372	3.921	3.824	3.525	3.384	3.105	2.957	2.760	2.499	2.313	2.202	1.951	1.731	1.626	1.840	1.709	1.480	1.424	1.432	1.093	1.023	1.030	1.067	0.972	1.319	1.620	1.224	0.928	0.706	0.666	0.629	0.603	0.704	0.834	1.061	0.797	0.624	0.612	0.675	0.644	0.660	1.125	3.968	13.38	27.37	84.30	88.94
600.0	37.85	42.51	37.80	34.51	24.66	21.24	21.97	24.03	29.19	38.32	84.01	51.49	32.10	26.44	56.06	493.4	628.8	18.94	6.142	5.545	4.928	4.233	4.293	4.230	3.794	4.033	3.536	3.862	3.954	3.699	3.570	3.417	3.274	2.873	3.126	2.637	2.733	2.464	2.252	1.980	1.928	1.896	1.762	1.536	1.482	1.457	1.366	1.265	1.097	0.955	0.842	0.809	0.867	0.830	1.096	1.270	1.271	0.913	0.769	0.606	0.555	0.644	0.509	0.616	0.757	0.908	0.659	0.614	0.599	0.568	0.490	0.649	1.205	3.254	6.457	26.92	95.00
605.0	32.05	41.28	41.38	32.90	26.77	21.20	23.78	24.41	29.31	35.09	72.05	70.09	36.52	26.36	28.21	172.2	810.0	74.90	5.369	4.603	4.387	3.507	3.680	3.901	3.436	3.595	3.325	2.956	3.059	3.202	2.977	2.915	2.646	2.580	2.430	2.384	2.255	2.043	1.796	1.663	1.623	1.525	1.493	1.317	1.215	1.074	1.033	1.038	0.994	0.769	0.813	0.802	0.797	0.617	0.761	0.953	1.156	1.094	0.689	0.688	0.507	0.542	0.537	0.573	0.593	0.739	0.864	0.639	0.544	0.586	0.467	0.442	0.581	0.966	1.680	6.323	34.09
610.0	34.71	39.29	41.02	30.87	23.79	21.65	24.89	27.90	33.15	37.99	59.28	86.35	47.85	31.66	26.29	54.56	463.0	460.9	17.44	4.160	3.815	3.222	2.871	3.207	2.881	2.786	2.648	2.714	2.536	2.771	2.531	2.434	2.236	2.023	1.949	1.906	1.912	1.770	1.652	1.400	1.310	1.347	1.252	1.098	1.116	0.994	0.988	0.939	0.861	0.765	0.722	0.639	0.697	0.626	0.607	0.684	0.913	1.065	0.911	0.671	0.561	0.495	0.510	0.535	0.519	0.645	0.807	0.788	0.682	0.567	0.478	0.449	0.435	0.546	0.666	1.709	7.979
615.0	33.54	36.03	38.84	32.99	23.79	23.00	24.90	30.33	33.44	41.98	48.05	77.63	66.54	34.84	25.83	25.47	130.4	587.7	78.12	3.722	3.013	2.705	2.269	2.501	2.476	2.287	2.138	2.136	2.365	2.012	2.187	1.892	1.806	1.610	1.689	1.637	1.538	1.585	1.371	1.129	1.120	1.031	0.953	1.055	0.813	0.852	0.829	0.854	0.717	0.648	0.675	0.530	0.575	0.601	0.535	0.556	0.648	0.743	0.825	0.692	0.608	0.533	0.590	0.479	0.502	0.571	0.603	0.741	0.750	0.680	0.480	0.455	0.372	0.432	0.346	0.633	1.996
620.0	35.59	36.98	40.57	30.65	23.89	22.83	25.00	26.75	30.68	39.23	45.01	61.78	76.27	37.44	25.34	18.88	41.71	364.3	387.8	8.110	2.946	2.607	2.279	2.127	1.899	2.021	1.821	1.825	1.976	1.692	1.781	1.820	1.453	1.326	1.557	1.348	1.257	1.286	1.217	1.096	0.927	0.865	0.861	0.866	0.667	0.840	0.688	0.701	0.633	0.491	0.518	0.497	0.525	0.502	0.429	0.493	0.492	0.616	0.687	0.763	0.546	0.511	0.501	0.453	0.509	0.580	0.534	0.666	0.758	0.623	0.525	0.468	0.395	0.381	0.352	0.365	0.687
625.0	38.43	34.63	36.08	30.36	22.11	22.44	23.13	26.56	31.01	37.60	40.85	49.89	77.51	42.51	25.59	17.74	20.25	134.0	562.2	48.33	3.035	2.451	2.059	1.940	1.736	1.808	1.550	1.608	1.532	1.783	1.619	1.472	1.386	1.252	1.338	1.190	1.177	1.173	1.034	0.954	0.842	0.774	0.721	0.800	0.590	0.603	0.718	0.625	0.527	0.492	0.524	0.450	0.437	0.447	0.426	0.453	0.540	0.561	0.719	0.778	0.601	0.468	0.486	0.378	0.442	0.615	0.543	0.496	0.743	0.822	0.539	0.426	0.467	0.368	0.431	0.358	0.409
630.0	31.52	36.26	34.46	28.24	19.83	20.98	23.20	25.57	30.19	35.94	39.86	44.77	61.98	53.92	26.70	17.99	14.98	39.69	349.4	305.5	8.452	2.115	1.859	1.775	1.442	1.417	1.402	1.459	1.307	1.241	1.416	1.158	1.256	1.058	1.120	1.077	1.016	1.020	0.858	0.815	0.733	0.671	0.671	0.695	0.569	0.531	0.517	0.540	0.505	0.468	0.445	0.440	0.416	0.376	0.390	0.433	0.456	0.445	0.528	0.624	0.581	0.526	0.473	0.425	0.392	0.489	0.458	0.492	0.545	0.605	0.613	0.428	0.462	0.367	0.336	0.383	0.322
635.0	31.15	33.03	31.72	27.36	21.93	19.61	23.07	24.09	28.67	32.62	41.08	43.42	47.27	60.45	31.64	19.14	15.74	16.43	97.17	448.8	60.02	2.033	1.796	1.360	1.321	1.172	1.273	1.223	1.101	1.137	1.027	1.083	1.020	0.951	1.013	0.868	0.704	0.854	0.958	0.670	0.652	0.561	0.568	0.464	0.549	0.500	0.408	0.448	0.406	0.413	0.370	0.400	0.339	0.403	0.337	0.308	0.359	0.306	0.397	0.531	0.552	0.541	0.445	0.364	0.522	0.364	0.568	0.457	0.492	0.511	0.555	0.499	0.426	0.331	0.325	0.321	0.283
640.0	35.31	31.58	34.30	24.53	22.95	20.38	22.32	23.31	28.56	30.84	39.26	39.96	43.17	55.79	37.54	19.70	15.11	11.72	27.10	301.3	258.6	4.314	1.463	1.218	1.146	1.031	1.094	1.079	1.051	0.997	1.075	0.906	0.878	0.820	0.836	0.863	0.614	0.753	0.802	0.676	0.569	0.533	0.491	0.473	0.477	0.482	0.400	0.389	0.460	0.377	0.329	0.357	0.293	0.351	0.386	0.284	0.354	0.303	0.351	0.452	0.416	0.585	0.507	0.507	0.355	0.381	0.456	0.421	0.384	0.500	0.550	0.563	0.480	0.359	0.310	0.327	0.305
645.0	35.03	34.72	38.12	28.09	19.82	21.88	22.38	24.04	26.86	30.44	37.39	39.43	39.33	46.36	45.31	21.23	16.78	11.20	11.18	114.6	406.0	30.78	1.365	1.273	1.120	1.072	1.070	1.090	0.919	0.895	0.858	0.938	0.983	0.776	0.793	0.781	0.728	0.750	0.676	0.558	0.518	0.537	0.505	0.449	0.370	0.411	0.375	0.376	0.402	0.367	0.282	0.351	0.294	0.364	0.352	0.298	0.361	0.332	0.279	0.398	0.298	0.523	0.461	0.419	0.366	0.372	0.442	0.433	0.362	0.397	0.468	0.405	0.561	0.484	0.384	0.422	0.320
650.0	34.75	33.34	36.34	30.78	22.22	21.09	23.06	24.55	26.66	28.48	36.10	37.18	36.57	39.41	48.00	24.24	16.68	11.57	7.408	33.02	351.8	141.2	1.774	1.193	1.028	1.100	1.035	0.972	0.783	0.877	0.774	0.918	0.823	0.772	0.749	0.644	0.814	0.688	0.665	0.523	0.526	0.523	0.448	0.471	0.388	0.434	0.359	0.293	0.347	0.392	0.266	0.305	0.341	0.396	0.322	0.314	0.355	0.338	0.277	0.361	0.294	0.467	0.460	0.415	0.443	0.379	0.380	0.423	0.367	0.414	0.354	0.390	0.464	0.459	0.401	0.370	0.356
