Sample:	'1
File name:	Default_20231010_191841.FD3
Run date:	'19:12:20, 10/10/2023
Operator:	dsjg
Comment:	'

Instrument
Model:	F-2700 FL Spectrophotometer
Serial number:	2198-001
ROM Version:	4J14000 07

Instrument parameters
Measurement type:	3-D scan
Data mode:	Fluorescence
EX  Start WL:	220.0 nm
EX  End WL:	600.0 nm
EX Sampling interval:	5.0 nm
EM  Start WL:	230.0 nm
EM  End WL:	650.0 nm
EM Sampling interval:	5.0 nm
Scan speed:	12000 nm/min
EX Slit:	5.0 nm
EM Slit:	5.0 nm
PMT Voltage:	700 V
Response:	Auto 
Corrected spectra:	Off
Contour interval:	50.000

Peak integration
Integration method:	Rectangular
Sensitivity:	1
Threshold:	1.000

Peaks
No.	ApexEX/EM(nm)	Height(Data)
1	235.0/355.0	751.3
2	240.0/265.0	92.30
3	245.0/270.0	90.17
4	250.0/275.0	119.6
5	255.0/285.0	131.2
6	260.0/290.0	148.1
7	265.0/295.0	200.9
8	270.0/300.0	273.7
9	275.0/305.0	320.0
10	275.0/435.0	 3420
11	280.0/310.0	325.9
12	285.0/320.0	338.0
13	320.0/360.0	601.2
14	335.0/435.0	 2078
15	565.0/435.0	12.49

Data points
	220.0	225.0	230.0	235.0	240.0	245.0	250.0	255.0	260.0	265.0	270.0	275.0	280.0	285.0	290.0	295.0	300.0	305.0	310.0	315.0	320.0	325.0	330.0	335.0	340.0	345.0	350.0	355.0	360.0	365.0	370.0	375.0	380.0	385.0	390.0	395.0	400.0	405.0	410.0	415.0	420.0	425.0	430.0	435.0	440.0	445.0	450.0	455.0	460.0	465.0	470.0	475.0	480.0	485.0	490.0	495.0	500.0	505.0	510.0	515.0	520.0	525.0	530.0	535.0	540.0	545.0	550.0	555.0	560.0	565.0	570.0	575.0	580.0	585.0	590.0	595.0	600.0
230.0	-7.733	196.1	468.4	78.20	-2.033	-2.102	-1.670	-1.251	-0.768	-0.606	-0.495	-0.118	0.397	0.255	0.182	0.169	0.117	0.091	0.073	0.238	0.187	0.314	0.323	0.353	0.308	0.320	0.190	0.212	0.126	0.137	0.061	0.101	0.059	-0.016	0.026	0.035	0.057	0.001	-0.012	-0.063	-0.067	-0.071	-0.109	-0.079	-0.097	-0.101	-0.068	0.190	0.900	1.262	0.550	-0.050	-0.159	-0.153	-0.170	-0.183	-0.206	-0.238	-0.218	-0.251	-0.221	-0.274	-0.237	-0.227	-0.248	-0.265	-0.278	-0.286	-0.256	-0.270	-0.290	-0.318	-0.306	-0.302	-0.322	-0.344	-0.354
235.0	-10.87	57.85	486.9	534.5	134.7	0.408	-2.242	-0.780	-1.645	-0.927	-0.512	-0.320	0.193	0.176	0.392	0.311	0.098	0.085	0.197	0.094	0.203	0.434	0.191	0.382	0.380	0.394	0.204	0.236	0.148	0.168	0.102	0.077	0.082	-0.001	0.013	-0.010	0.012	-0.032	0.030	-0.051	-0.031	-0.026	-0.120	-0.043	-0.123	-0.111	-0.074	-0.021	0.266	0.881	1.844	2.409	1.279	0.091	-0.189	-0.200	-0.184	-0.228	-0.249	-0.252	-0.232	-0.332	-0.213	-0.265	-0.329	-0.289	-0.216	-0.293	-0.243	-0.285	-0.337	-0.318	-0.265	-0.338	-0.347	-0.378	-0.360
240.0	-7.164	8.931	193.8	693.6	483.3	97.62	-0.199	-1.027	-0.270	-0.265	0.079	-0.068	0.357	0.334	0.193	0.257	0.139	0.032	0.149	0.386	0.322	0.390	0.427	0.330	0.438	0.234	0.134	0.183	0.097	0.185	-0.005	0.158	0.088	-0.001	-0.036	0.069	-0.060	-0.037	-0.011	-0.097	-0.012	-0.050	-0.150	-0.100	-0.111	-0.086	-0.020	-0.068	-0.029	0.167	0.855	2.633	3.822	2.900	0.935	-0.101	-0.181	-0.241	-0.188	-0.234	-0.229	-0.230	-0.195	-0.255	-0.313	-0.225	-0.236	-0.232	-0.259	-0.289	-0.322	-0.300	-0.311	-0.248	-0.327	-0.361	-0.311
245.0	0.014	10.05	45.44	330.3	936.8	401.0	57.45	0.723	0.339	0.112	0.474	0.370	0.487	0.155	0.072	0.257	0.173	0.159	0.204	0.392	0.184	0.259	0.444	0.403	0.374	0.298	0.306	0.172	0.215	0.144	0.135	0.122	0.120	0.061	-0.014	0.049	-0.046	-0.028	-0.008	-0.025	-0.009	0.012	-0.027	-0.062	-0.045	-0.051	0.046	-0.006	-0.057	-0.023	0.125	0.774	2.417	4.870	4.972	2.606	0.344	-0.194	-0.152	-0.220	-0.271	-0.257	-0.272	-0.206	-0.306	-0.252	-0.267	-0.254	-0.240	-0.309	-0.288	-0.345	-0.304	-0.287	-0.316	-0.335	-0.258
250.0	-11.85	20.76	45.48	88.20	400.5	885.0	754.2	135.1	6.094	0.599	0.118	0.212	0.544	0.465	0.719	0.251	0.165	0.360	0.191	0.431	0.422	0.420	0.496	0.427	0.414	0.333	0.344	0.187	0.149	0.137	0.107	0.121	0.103	0.038	0.028	0.036	-0.044	-0.107	-0.078	0.004	0.006	-0.003	-0.029	-0.055	-0.059	-0.063	-0.029	0.016	0.022	0.034	0.071	0.097	0.463	1.510	2.932	4.528	5.813	4.763	2.346	0.449	-0.152	-0.234	-0.250	-0.198	-0.275	-0.274	-0.276	-0.272	-0.287	-0.308	-0.308	-0.316	-0.324	-0.292	-0.331	-0.350	-0.285
255.0	-13.67	2.933	52.41	72.96	99.92	279.6	985.5	 1264	190.4	5.987	0.677	1.272	0.553	0.517	0.499	0.329	0.273	0.493	0.225	0.384	0.391	0.509	0.475	0.394	0.389	0.494	0.252	0.231	0.312	0.239	0.121	0.033	0.056	-0.065	0.074	-0.028	0.022	-0.095	-0.147	-0.086	0.004	0.014	-0.006	-0.099	-0.029	-0.100	-0.091	-0.052	-0.072	0.041	0.269	0.203	0.085	0.257	0.535	1.017	2.259	5.177	8.485	8.119	3.912	0.438	-0.158	-0.225	-0.279	-0.206	-0.301	-0.293	-0.266	-0.307	-0.193	-0.356	-0.247	-0.349	-0.292	-0.365	-0.333
260.0	-11.75	-6.959	23.93	80.33	64.06	69.49	386.1	 1394	 1276	143.3	2.879	1.478	0.807	1.129	0.937	0.737	0.323	0.432	0.354	0.235	0.517	0.489	0.499	0.539	0.391	0.368	0.390	0.207	0.223	0.132	0.053	0.172	0.030	0.002	-0.025	-0.019	-0.045	-0.132	-0.110	-0.102	-0.077	-0.045	-0.066	-0.025	-0.056	-0.106	-0.076	-0.074	-0.054	0.002	0.100	0.278	0.205	0.159	0.076	0.138	0.465	1.380	3.999	8.195	11.10	7.609	2.404	0.075	-0.246	-0.261	-0.202	-0.173	-0.231	-0.301	-0.216	-0.263	-0.291	-0.307	-0.268	-0.366	-0.319
265.0	-10.24	-10.50	4.527	49.39	92.30	45.77	96.34	606.0	 1696	 1166	103.8	2.433	1.402	1.223	0.736	1.003	0.346	0.682	0.483	0.306	0.621	0.525	0.630	0.476	0.531	0.459	0.435	0.200	0.070	0.223	0.222	0.126	0.093	0.124	0.061	-0.043	-0.040	-0.073	-0.078	-0.108	-0.046	-0.041	-0.109	0.031	-0.009	-0.054	-0.038	-0.036	-0.038	-0.071	-0.025	0.062	0.268	0.355	0.209	0.067	-0.021	0.182	0.801	2.450	6.308	11.33	11.79	6.058	1.247	-0.222	-0.244	-0.225	-0.267	-0.330	-0.272	-0.248	-0.301	-0.299	-0.343	-0.399	-0.330
270.0	-10.41	-6.667	0.306	13.08	58.90	90.17	64.79	151.5	646.2	 1475	 1449	443.6	20.76	1.713	1.368	0.887	0.620	0.652	0.421	0.366	0.547	0.612	0.514	0.588	0.588	0.379	0.337	0.245	0.208	0.151	0.156	0.142	0.150	0.114	0.108	-0.018	-0.025	-0.061	-0.130	-0.108	-0.164	-0.132	-0.080	-0.013	-0.057	-0.022	0.010	-0.036	-0.088	-0.052	-0.084	-0.084	-0.045	0.089	0.348	0.480	0.277	0.079	0.070	0.460	1.369	3.467	6.251	8.969	10.58	8.731	4.779	1.030	-0.163	-0.247	-0.256	-0.250	-0.330	-0.280	-0.294	-0.327	-0.331
275.0	-4.571	6.069	7.031	6.500	16.61	58.61	119.6	84.15	158.3	425.7	 1333	 2011	628.9	16.71	1.682	1.512	0.969	0.672	0.511	0.460	0.737	0.706	0.506	0.545	0.680	0.436	0.331	0.231	0.182	0.259	0.255	0.185	0.125	0.081	0.073	-0.044	-0.009	-0.032	-0.075	-0.108	-0.143	-0.122	-0.034	-0.040	-0.051	-0.063	0.112	-0.017	-0.026	0.065	-0.057	-0.100	-0.065	-0.007	0.018	0.147	0.377	0.579	0.412	0.152	0.209	0.720	1.299	1.944	3.608	7.790	13.27	12.77	6.280	0.889	-0.231	-0.240	-0.264	-0.259	-0.300	-0.333	-0.305
280.0	-4.610	11.80	19.72	10.94	9.506	24.22	97.91	121.6	75.85	117.7	464.2	 1737	 1951	116.2	7.353	1.796	1.352	0.958	0.754	0.697	0.715	0.564	0.592	0.701	0.644	0.508	0.369	0.298	0.195	0.312	0.196	0.260	0.117	0.076	0.055	0.002	-0.025	-0.076	-0.069	-0.173	-0.140	-0.104	-0.128	-0.119	-0.081	-0.022	0.043	0.024	0.052	0.130	0.026	-0.095	-0.072	-0.050	-0.084	-0.067	0.063	0.356	0.574	0.622	0.295	0.205	0.116	0.360	0.801	2.098	5.596	11.33	15.16	11.40	3.746	0.048	-0.190	-0.261	-0.269	-0.373	-0.318
285.0	-2.966	23.00	30.56	15.55	12.69	14.75	50.66	131.2	120.0	65.86	143.4	669.4	 1921	 1680	88.84	3.958	1.671	1.319	1.036	1.013	0.613	0.767	0.846	0.703	0.501	0.614	0.500	0.448	0.451	0.250	0.186	0.208	0.249	0.076	0.065	0.093	-0.015	-0.090	-0.146	-0.121	-0.173	-0.095	-0.115	-0.073	-0.076	-0.039	0.079	0.036	0.030	0.149	0.065	0.013	-0.050	-0.067	-0.114	-0.059	-0.023	0.068	0.249	0.615	0.757	0.436	0.082	0.030	0.182	0.526	1.311	3.297	7.900	13.89	14.90	8.598	1.633	-0.227	-0.276	-0.322	-0.293
290.0	9.674	40.42	49.68	32.65	21.75	20.46	33.82	76.17	148.1	148.1	110.8	216.3	679.0	 1475	 1617	364.9	21.12	1.928	1.410	1.312	1.104	1.070	0.840	0.814	0.611	0.570	0.609	0.444	0.511	0.203	0.246	0.198	0.163	0.126	0.118	0.079	-0.009	0.009	-0.041	-0.130	-0.126	-0.157	-0.142	-0.134	-0.150	-0.013	0.081	0.142	0.131	0.139	0.084	0.044	0.050	-0.046	-0.038	-0.002	-0.004	-0.013	0.022	0.212	0.435	0.610	0.734	0.587	0.361	0.203	0.401	0.861	1.943	4.155	7.069	10.77	12.23	10.35	5.773	1.066	-0.197
295.0	25.36	63.88	67.84	46.85	38.43	33.71	43.21	59.89	106.5	200.9	199.0	164.6	236.1	433.0	 1077	 1981	555.5	20.95	2.090	1.626	1.149	1.154	1.024	0.801	0.773	0.632	0.766	0.526	0.485	0.387	0.387	0.189	0.230	0.074	0.117	0.082	0.003	-0.010	-0.028	-0.085	-0.046	-0.111	-0.152	-0.165	-0.118	-0.063	0.041	0.096	0.199	0.217	0.223	0.136	0.125	-0.010	0.021	0.028	0.074	0.014	0.024	0.061	0.229	0.324	0.522	0.833	1.198	0.756	0.407	0.514	0.640	1.104	1.600	2.637	4.044	8.114	14.97	16.65	7.404
300.0	30.34	68.64	82.18	62.00	50.62	48.51	53.87	70.60	96.51	174.3	273.7	228.5	167.8	181.5	369.8	 1371	 2128	420.3	8.286	2.254	1.427	1.299	1.287	1.277	0.792	0.654	0.576	0.513	0.428	0.374	0.343	0.327	0.221	0.169	0.108	0.131	0.064	-0.077	0.004	-0.150	-0.089	-0.167	-0.091	-0.062	-0.065	-0.064	0.003	0.015	0.178	0.250	0.254	0.147	0.180	0.093	0.040	0.082	0.143	0.106	-0.004	0.108	0.297	0.274	0.347	0.681	1.029	1.558	1.105	0.690	0.650	0.522	0.696	0.838	1.055	2.161	6.028	13.64	18.81
305.0	30.67	76.01	92.09	75.55	60.32	65.31	66.88	83.95	110.5	158.9	264.7	320.0	213.9	147.5	154.2	480.0	 1640	 2049	62.95	4.222	2.233	1.490	1.400	1.405	0.930	0.832	0.733	0.626	0.544	0.480	0.487	0.311	0.217	0.203	0.185	0.223	0.036	-0.089	0.007	-0.101	-0.099	-0.068	-0.064	-0.190	-0.091	-0.069	-0.015	0.038	0.153	0.297	0.300	0.218	0.171	0.132	0.127	0.199	0.208	0.180	0.158	0.181	0.303	0.392	0.486	0.556	0.684	1.237	1.524	1.728	1.016	0.698	0.666	0.659	0.423	0.572	1.446	4.021	9.099
310.0	33.05	78.64	105.6	89.74	76.74	73.85	82.67	105.8	131.8	171.9	234.7	309.2	325.9	212.8	133.2	166.5	515.2	 1362	 1746	750.9	18.70	2.211	1.841	1.558	1.223	0.847	0.821	0.589	0.707	0.514	0.440	0.363	0.217	0.290	0.163	0.173	0.082	-0.030	-0.074	-0.106	-0.112	-0.116	-0.129	-0.200	-0.073	-0.106	0.044	0.044	0.163	0.177	0.302	0.296	0.254	0.211	0.191	0.208	0.255	0.244	0.218	0.330	0.446	0.510	0.626	0.679	0.740	0.913	1.043	1.439	1.700	1.623	1.173	0.718	0.520	0.469	0.453	0.912	2.167
315.0	34.44	86.36	119.0	96.51	86.77	88.36	99.85	124.2	155.4	196.3	241.9	278.8	324.3	324.9	187.7	116.0	165.9	355.4	879.2	 2121	438.0	20.99	2.832	2.007	1.576	1.065	1.046	0.918	0.785	0.515	0.699	0.602	0.333	0.291	0.337	0.235	0.082	0.114	-0.011	-0.019	-0.127	-0.145	-0.123	-0.124	-0.080	-0.094	0.015	0.027	0.183	0.188	0.252	0.299	0.254	0.296	0.220	0.255	0.287	0.272	0.332	0.487	0.651	0.662	0.652	0.819	0.801	0.920	1.012	1.113	1.282	1.566	1.713	1.610	0.901	0.496	0.392	0.380	0.482
320.0	46.29	97.75	130.0	113.3	100.1	99.53	116.4	141.6	171.0	216.6	257.4	288.0	307.0	338.0	276.3	137.7	104.6	124.1	265.8	 1174	 2174	362.1	11.67	3.085	1.959	1.327	1.146	0.934	0.779	0.666	0.667	0.452	0.370	0.160	0.320	0.119	0.112	0.111	-0.002	-0.018	-0.097	-0.016	-0.129	-0.116	-0.026	-0.074	0.041	0.143	0.190	0.302	0.342	0.294	0.274	0.355	0.269	0.264	0.414	0.356	0.338	0.626	0.621	0.704	0.743	1.063	1.085	1.040	1.126	1.085	1.115	1.390	1.474	1.636	1.473	1.140	0.637	0.391	0.330
325.0	53.19	120.6	157.0	140.3	120.7	120.3	135.4	160.5	193.2	239.5	285.6	309.6	315.5	319.9	323.0	211.8	113.5	88.98	103.1	366.4	 1476	 2135	51.85	8.973	3.259	1.958	1.394	0.898	0.793	0.814	0.712	0.493	0.435	0.404	0.230	0.175	0.187	0.121	0.113	-0.066	-0.070	-0.099	-0.114	-0.037	-0.092	-0.041	0.053	0.191	0.314	0.337	0.373	0.453	0.466	0.405	0.383	0.466	0.463	0.461	0.423	0.630	0.789	0.805	0.868	1.052	1.099	1.171	1.178	1.350	1.174	1.381	1.339	1.378	1.812	1.770	1.222	0.662	0.397
330.0	75.06	186.6	264.1	264.7	216.3	180.9	176.2	194.6	241.2	284.3	338.5	369.6	375.3	355.6	333.8	310.7	227.8	154.0	130.5	195.7	516.3	 1369	 1907	869.2	25.75	5.396	2.175	1.328	1.137	0.974	0.828	0.566	0.431	0.439	0.294	0.192	0.219	0.096	0.059	0.019	-0.080	-0.077	-0.110	-0.045	-0.025	0.064	0.095	0.269	0.492	0.663	0.705	0.942	0.954	0.709	0.818	0.735	0.754	0.671	0.726	0.834	0.967	0.947	1.127	1.286	1.385	1.441	1.637	1.701	1.659	1.732	1.668	1.601	1.681	1.773	1.641	1.625	1.285
335.0	112.1	287.1	458.9	509.1	409.9	304.4	240.5	255.9	298.5	358.0	420.1	465.4	476.3	455.4	413.2	368.7	383.5	321.2	269.6	320.1	409.5	594.5	 1147	 2542	 1221	31.28	5.136	2.220	1.419	1.235	1.095	0.869	0.686	0.522	0.427	0.166	0.282	0.212	0.115	0.112	0.090	0.011	-0.002	0.027	0.120	0.179	0.364	0.613	0.876	1.065	1.470	1.807	1.844	1.599	1.447	1.144	1.165	0.949	0.976	1.040	1.235	1.196	1.447	1.560	1.764	1.751	2.219	2.176	2.183	2.273	2.320	2.348	2.214	2.187	2.069	1.935	2.330
340.0	142.4	342.6	567.8	632.9	546.7	397.8	292.3	292.8	335.8	402.3	467.1	514.6	536.8	517.2	475.2	410.1	416.2	438.9	362.5	386.4	432.5	465.5	659.5	 1574	 2667	338.3	17.98	3.482	2.047	1.569	1.326	0.954	0.757	0.547	0.533	0.342	0.222	0.271	0.109	0.084	0.097	0.065	0.031	0.028	0.076	0.224	0.446	0.730	1.130	1.444	1.746	2.268	2.490	2.160	1.885	1.536	1.278	1.258	1.312	1.260	1.602	1.435	1.670	1.797	1.908	2.052	2.454	2.379	2.437	2.551	2.671	2.428	2.437	2.563	2.379	2.248	2.368
345.0	143.5	364.6	588.9	691.8	613.9	449.0	332.6	321.1	359.8	427.7	493.8	544.9	570.5	556.0	510.6	445.4	421.2	465.3	443.8	422.2	448.5	450.9	526.9	775.0	 1816	 2267	261.5	7.424	2.557	1.789	1.313	1.025	0.861	0.736	0.435	0.441	0.270	0.187	0.100	0.052	0.056	0.074	0.061	0.009	0.068	0.155	0.521	0.869	1.190	1.559	2.084	2.548	2.701	2.379	2.209	1.660	1.580	1.322	1.621	1.447	1.537	1.728	1.672	1.891	2.034	2.077	2.585	2.661	2.534	2.775	3.116	2.586	2.581	2.776	2.546	2.482	2.091
350.0	150.3	368.5	606.4	728.5	664.1	501.4	377.5	355.2	399.4	462.2	529.0	576.9	598.7	586.4	553.0	492.5	457.9	464.9	499.9	522.2	494.6	474.9	521.0	551.3	677.3	 1403	 1885	782.2	17.71	2.788	1.821	1.362	1.015	0.785	0.585	0.492	0.373	0.221	0.132	0.090	0.056	0.045	0.032	0.091	0.146	0.271	0.456	0.841	1.294	1.602	2.075	2.641	2.849	2.670	2.310	1.944	1.755	1.529	1.636	1.565	1.684	1.774	1.996	2.071	2.361	2.314	2.530	2.683	2.813	2.757	3.029	2.923	2.935	2.980	2.864	2.609	2.765
355.0	153.7	363.6	614.8	751.3	692.2	555.2	426.3	407.8	438.5	500.4	551.1	606.6	627.2	614.6	586.7	534.5	500.0	490.4	495.1	567.7	570.7	498.5	514.4	499.7	378.9	416.1	816.3	 2206	 1118	21.95	2.739	1.845	1.209	0.905	0.702	0.613	0.493	0.311	0.177	0.154	-0.031	0.076	-0.033	0.109	0.152	0.362	0.410	0.803	1.391	1.614	1.945	2.766	2.883	2.886	2.628	2.307	2.070	1.882	1.678	1.858	1.807	1.929	2.350	2.359	2.465	2.369	2.558	2.658	2.967	3.106	2.781	3.044	3.116	3.090	3.220	2.839	2.907
360.0	147.6	354.5	594.7	729.5	695.7	577.8	466.0	449.5	464.1	524.9	571.9	621.6	633.1	630.9	604.2	555.1	529.5	512.7	505.7	547.0	601.2	524.0	498.3	471.7	324.2	205.3	254.1	 1136	 2478	318.3	12.27	2.575	1.451	1.100	0.546	0.590	0.469	0.351	0.199	0.172	0.095	0.070	-0.033	0.063	0.104	0.259	0.429	0.837	1.258	1.508	1.932	2.580	2.896	2.805	2.774	2.434	2.283	2.048	1.871	1.950	1.940	2.165	2.601	2.291	2.394	2.625	2.698	2.874	3.149	3.271	3.065	3.243	3.283	3.213	3.301	3.021	3.048
365.0	139.9	352.6	571.9	714.5	693.4	599.8	505.9	478.2	500.9	547.7	596.7	631.1	648.5	640.8	611.9	582.0	555.8	541.8	526.8	543.1	583.3	564.6	496.2	452.7	318.3	176.5	131.0	339.0	 1620	 2194	247.8	5.360	2.117	1.447	0.993	0.743	0.476	0.348	0.297	0.233	0.091	0.042	0.117	0.101	0.031	0.255	0.428	0.803	1.306	1.519	2.006	2.588	2.738	2.855	2.640	2.468	2.274	2.205	2.130	2.087	2.221	2.369	2.523	2.616	2.559	2.784	2.760	2.967	2.996	3.297	3.406	3.425	3.387	3.592	3.350	3.260	3.148
370.0	144.4	346.3	570.6	690.7	708.1	633.8	565.6	536.3	550.9	584.0	631.1	655.9	671.4	666.1	640.3	612.3	596.7	582.9	570.8	573.8	575.3	579.3	552.5	468.7	333.2	203.3	135.4	145.1	461.5	 1380	 1930	728.6	15.60	2.777	1.610	1.031	0.670	0.479	0.311	0.275	0.131	0.138	0.054	0.129	0.131	0.271	0.435	0.795	1.240	1.524	1.838	2.542	2.754	2.797	2.721	2.470	2.716	2.422	2.553	2.386	2.542	2.574	2.748	2.819	2.755	2.881	2.886	3.086	3.187	3.410	3.335	3.444	3.678	3.643	3.402	3.563	3.559
375.0	145.9	349.1	556.3	703.9	755.5	702.8	639.5	608.0	609.9	638.5	676.8	702.5	713.0	701.8	678.6	654.3	642.0	639.1	627.1	621.3	607.8	582.8	583.6	537.0	382.4	257.4	184.3	144.5	177.3	363.6	882.6	 2244	306.0	20.00	3.490	2.035	1.116	0.808	0.431	0.285	0.196	0.119	0.121	0.152	0.166	0.294	0.502	0.746	1.130	1.532	1.876	2.688	2.787	3.068	2.991	2.824	2.942	2.804	2.658	2.750	2.839	2.921	2.973	2.917	3.031	3.161	3.118	3.546	3.415	3.403	3.757	3.380	3.721	3.524	3.672	3.794	3.926
380.0	152.4	368.6	589.9	733.4	778.9	762.4	695.9	658.8	655.2	684.0	715.4	741.9	757.4	740.2	713.2	691.7	688.5	680.7	669.7	661.2	645.8	614.7	594.5	583.6	444.4	314.1	237.5	180.0	143.7	154.6	269.3	 1228	 2167	271.1	11.64	4.004	2.222	1.364	0.729	0.347	0.180	0.217	0.140	0.207	0.171	0.309	0.489	0.808	1.219	1.610	1.869	2.710	2.953	3.178	3.123	3.116	3.315	2.935	3.046	2.906	3.136	3.107	3.221	3.173	3.294	3.296	3.354	3.543	3.716	3.556	3.989	3.877	4.082	3.888	3.974	4.039	4.145
385.0	162.3	383.0	618.2	753.2	827.7	819.4	756.5	721.5	711.6	737.6	764.3	796.3	807.8	792.7	760.5	738.7	733.3	728.5	719.0	713.9	695.9	664.0	630.1	605.9	532.0	388.6	295.7	231.1	172.9	137.2	141.9	385.9	 1588	 1936	196.3	9.857	5.394	2.595	1.118	0.630	0.364	0.238	0.132	0.184	0.166	0.358	0.654	0.843	1.164	1.676	1.931	2.691	3.170	3.475	3.391	3.457	3.733	3.496	3.360	3.357	3.490	3.304	3.453	3.347	3.351	3.668	3.809	3.735	3.746	3.909	4.079	4.271	4.230	4.201	4.373	4.374	4.424
390.0	189.9	422.5	653.9	832.2	922.5	929.4	892.4	856.0	850.6	884.4	928.3	958.3	974.4	944.6	887.2	853.4	831.7	828.3	825.2	822.0	812.5	787.8	753.1	710.1	650.4	556.9	440.2	342.8	276.2	220.5	184.7	211.2	506.3	 1319	 1588	562.6	21.52	10.15	3.815	1.481	0.670	0.333	0.223	0.253	0.261	0.487	0.671	0.915	1.477	1.861	2.183	3.017	3.517	3.703	3.752	3.959	4.037	3.969	3.993	3.811	3.876	3.837	3.883	3.911	3.938	4.009	4.301	4.399	4.271	4.535	4.769	4.690	4.859	4.830	4.645	4.656	4.800
395.0	210.5	471.4	748.1	938.5	 1067	 1081	 1094	 1072	 1110	 1198	 1302	 1342	 1275	 1290	 1191	 1094	 1014	987.5	995.5	 1003	 1017	 1012	993.7	951.4	880.4	798.0	713.8	586.8	483.8	378.6	341.2	313.3	329.3	471.6	867.0	 1898	257.9	30.69	12.10	4.225	1.584	0.610	0.478	0.465	0.401	0.556	0.696	1.209	1.846	2.250	2.580	3.429	4.056	4.444	4.304	4.789	4.724	4.921	4.916	4.613	4.799	4.804	4.727	5.041	5.435	5.168	5.311	5.423	5.680	6.059	6.142	5.665	5.878	5.880	5.835	5.724	5.987
400.0	242.8	507.7	835.3	 1060	 1194	 1269	 1267	 1298	 1412	 1591	 1699	 1825	 1807	 1731	 1550	 1371	 1219	 1158	 1164	 1193	 1231	 1254	 1259	 1226	 1160	 1067	994.1	874.0	730.7	629.5	562.8	502.5	440.9	383.5	443.8	 1219	 1801	239.0	26.69	7.976	2.662	1.372	0.726	0.706	0.538	0.651	0.908	1.579	2.139	2.414	2.841	3.932	4.631	4.740	4.989	5.088	5.599	5.600	5.445	5.522	5.655	5.779	5.864	6.161	6.528	6.814	7.055	6.909	7.523	7.447	7.571	7.528	7.229	6.963	6.988	6.869	7.037
405.0	279.6	563.2	906.4	 1176	 1325	 1441	 1472	 1549	 1749	 1961	 2263	 2386	 2356	 2205	 1966	 1678	 1439	 1340	 1348	 1394	 1461	 1516	 1538	 1531	 1476	 1375	 1282	 1188	 1029	898.5	816.0	738.7	642.7	537.3	469.2	596.5	 1457	 1574	180.9	14.58	4.302	2.019	1.094	0.782	0.663	0.839	1.133	1.836	2.385	2.806	3.482	4.594	5.381	5.492	5.760	6.003	6.329	6.351	6.429	6.273	6.800	6.793	7.238	7.648	8.205	8.602	8.722	8.650	8.927	9.240	9.364	9.058	8.935	8.471	8.295	8.186	7.624
410.0	295.2	616.1	984.8	 1276	 1477	 1602	 1683	 1808	 2087	 2462	 2806	 2960	 2907	 2706	 2372	 1988	 1665	 1524	 1531	 1594	 1691	 1781	 1832	 1844	 1802	 1698	 1581	 1476	 1342	 1193	 1086	993.4	873.1	733.3	606.7	525.9	654.9	 1187	 1291	418.1	14.02	3.190	1.783	1.099	0.956	1.104	1.285	1.887	2.717	3.166	3.788	5.073	5.712	6.114	6.335	6.573	7.074	7.157	7.118	7.062	7.550	7.855	8.652	9.178	9.716	10.12	10.45	10.59	10.81	11.03	10.93	10.67	10.16	9.781	9.407	9.017	8.715
415.0	316.8	656.1	 1007	 1350	 1540	 1676	 1785	 1946	 2236	 2667	 3038	 3181	 3124	 2889	 2540	 2107	 1754	 1593	 1611	 1686	 1793	 1895	 1960	 1986	 1939	 1843	 1710	 1575	 1453	 1330	 1205	 1104	968.9	815.2	669.5	534.1	446.5	434.3	708.7	 1441	226.4	13.05	2.610	1.448	1.176	1.209	1.424	2.101	2.921	3.328	4.024	5.386	5.858	6.344	6.889	6.940	7.421	7.466	7.747	7.636	7.830	8.493	9.034	9.985	10.08	11.01	11.10	11.36	11.60	11.51	11.58	11.12	11.11	10.15	9.659	9.237	8.823
420.0	304.3	678.2	 1001	 1344	 1544	 1699	 1802	 1960	 2246	 2698	 3057	 3219	 3141	 2913	 2547	 2110	 1757	 1609	 1614	 1697	 1803	 1913	 1984	 2003	 1954	 1862	 1724	 1596	 1456	 1349	 1236	 1114	981.7	825.0	676.5	526.4	391.4	262.5	246.1	874.7	 1314	187.1	5.955	2.050	1.434	1.262	1.505	2.260	2.830	3.471	4.105	5.407	5.747	6.524	6.770	6.991	7.388	7.524	7.582	7.841	8.080	8.542	9.046	10.06	10.21	11.18	10.99	11.39	11.69	11.41	11.15	11.04	11.12	10.22	9.660	9.258	9.007
425.0	289.1	658.1	 1020	 1336	 1545	 1695	 1810	 1975	 2277	 2715	 3080	 3237	 3158	 2934	 2551	 2113	 1757	 1602	 1614	 1710	 1824	 1920	 2000	 2021	 1976	 1877	 1736	 1611	 1461	 1350	 1268	 1137	993.3	839.2	692.8	532.7	386.3	227.9	134.1	271.2	 1054	 1099	29.78	3.519	2.035	1.494	1.639	2.280	2.998	3.449	3.963	5.404	5.862	6.448	6.524	6.996	7.599	7.837	7.665	7.695	8.154	8.611	9.325	9.655	10.09	10.99	10.76	11.27	11.81	11.61	11.41	10.96	10.83	10.51	9.616	9.298	9.211
430.0	304.3	646.2	 1009	 1343	 1543	 1708	 1827	 2019	 2350	 2816	 3177	 3343	 3274	 3019	 2618	 2155	 1774	 1615	 1626	 1723	 1844	 1955	 2040	 2072	 2033	 1927	 1803	 1672	 1523	 1397	 1312	 1214	 1067	895.3	737.5	579.3	419.3	246.0	126.7	106.8	309.8	824.3	966.6	125.6	9.246	2.211	1.987	2.490	3.034	3.434	4.077	5.343	6.071	6.414	6.825	6.958	7.659	7.685	7.691	7.855	8.237	8.735	9.616	10.28	10.43	11.39	11.34	11.75	11.90	12.16	11.75	11.56	11.01	10.55	9.852	9.321	8.925
435.0	304.2	635.6	996.2	 1333	 1533	 1720	 1837	 2058	 2385	 2869	 3245	 3420	 3332	 3063	 2643	 2165	 1767	 1607	 1617	 1710	 1835	 1958	 2045	 2078	 2054	 1957	 1835	 1707	 1566	 1436	 1345	 1260	 1137	953.2	784.6	623.5	455.2	272.1	139.8	81.47	102.7	209.2	549.1	 1142	203.4	9.085	2.856	2.939	3.136	3.571	4.022	5.109	5.780	6.496	6.867	6.815	7.385	7.678	7.547	7.793	8.165	9.051	9.668	10.26	11.01	11.44	11.84	11.96	12.04	12.49	12.24	11.54	10.98	10.21	9.881	9.115	9.100
440.0	312.7	602.8	962.1	 1303	 1503	 1671	 1801	 2012	 2336	 2819	 3175	 3320	 3235	 2985	 2559	 2098	 1713	 1558	 1563	 1656	 1782	 1904	 1987	 2019	 2001	 1910	 1793	 1669	 1538	 1412	 1326	 1233	 1125	959.6	782.5	622.7	460.0	280.6	148.7	81.09	61.78	71.94	155.7	785.8	 1107	151.4	4.360	3.150	3.361	3.677	3.783	5.268	5.751	5.962	6.518	6.746	7.451	7.313	7.588	7.560	7.941	8.450	9.307	9.882	10.62	11.45	11.78	11.68	11.64	11.85	11.62	11.31	10.73	10.02	9.507	9.156	8.659
445.0	306.1	599.6	928.7	 1239	 1428	 1597	 1716	 1936	 2232	 2658	 3001	 3142	 3049	 2812	 2414	 1977	 1622	 1472	 1486	 1563	 1687	 1801	 1881	 1909	 1892	 1810	 1695	 1576	 1451	 1346	 1258	 1167	 1059	919.8	759.4	597.6	444.6	275.9	152.5	87.51	57.83	46.73	56.47	241.3	996.4	916.5	23.19	4.005	3.269	3.439	3.946	5.098	5.575	5.678	6.395	6.303	7.162	7.028	7.488	7.427	7.627	8.218	8.931	9.696	9.986	10.37	11.01	11.33	10.88	11.10	10.97	10.92	10.17	9.609	9.156	8.699	7.757
450.0	302.4	574.7	853.5	 1144	 1315	 1480	 1587	 1771	 2024	 2401	 2687	 2790	 2719	 2498	 2152	 1774	 1466	 1332	 1345	 1417	 1522	 1617	 1684	 1709	 1694	 1612	 1521	 1411	 1304	 1210	 1130	 1047	943.0	823.9	697.6	551.1	408.4	260.5	152.1	94.03	65.33	48.24	40.37	73.85	291.0	791.1	845.9	109.9	8.393	3.698	3.896	4.772	5.111	5.561	5.609	5.895	6.533	6.497	6.705	6.696	6.897	7.569	8.040	8.874	8.942	9.299	9.861	10.12	9.781	9.836	9.929	9.406	9.159	8.721	8.092	7.742	7.347
455.0	282.2	601.2	779.9	 1022	 1200	 1334	 1446	 1580	 1808	 2114	 2381	 2448	 2390	 2187	 1899	 1559	 1301	 1186	 1196	 1263	 1342	 1425	 1488	 1514	 1492	 1420	 1340	 1246	 1150	 1075	 1007	931.3	844.3	732.4	623.0	510.0	382.0	246.3	152.0	101.6	73.84	56.01	43.05	42.24	84.21	196.8	494.8	970.3	167.9	8.542	3.960	4.621	4.910	5.067	5.174	5.619	5.823	5.847	6.120	6.252	6.378	6.769	7.250	7.939	8.054	8.459	8.815	8.875	8.819	8.758	8.552	8.257	8.045	7.547	6.923	6.796	6.216
460.0	213.3	589.0	792.3	964.8	 1103	 1244	 1335	 1470	 1675	 1961	 2175	 2241	 2172	 1992	 1732	 1427	 1187	 1088	 1092	 1150	 1226	 1297	 1352	 1380	 1357	 1298	 1223	 1144	 1063	990.6	928.8	864.4	779.6	676.0	573.9	479.7	369.4	241.4	153.9	106.3	79.80	61.54	48.29	38.41	40.26	59.95	135.7	659.1	893.9	118.7	5.260	4.595	4.657	4.728	4.934	5.171	5.498	5.570	5.730	5.549	5.927	6.324	6.840	7.328	7.431	7.495	7.999	8.053	8.359	8.219	7.754	7.532	7.539	6.918	6.582	6.339	5.903
465.0	194.3	532.7	835.7	904.0	 1022	 1153	 1239	 1361	 1560	 1810	 2001	 2069	 2001	 1823	 1588	 1301	 1092	996.4	 1004	 1056	 1125	 1187	 1234	 1259	 1240	 1190	 1123	 1057	984.5	916.5	859.6	800.3	724.1	626.9	535.3	446.6	356.0	238.6	154.2	109.5	82.40	64.76	51.65	40.30	33.20	31.57	43.39	196.0	805.5	701.4	20.29	4.819	4.590	4.709	4.651	4.608	5.111	5.073	5.233	5.365	5.690	5.708	6.384	6.944	6.979	7.045	7.492	7.275	7.584	7.250	7.230	7.184	6.793	6.281	6.401	5.694	5.676
470.0	170.6	406.8	835.6	929.3	919.8	 1023	 1094	 1211	 1376	 1592	 1762	 1802	 1731	 1592	 1373	 1140	952.0	865.3	872.0	917.5	975.1	 1033	 1066	 1091	 1077	 1033	974.5	918.0	860.9	806.5	757.9	707.1	641.5	560.7	477.7	396.7	321.0	230.1	153.6	109.7	85.50	68.66	55.55	44.31	34.78	27.56	25.23	55.44	232.1	587.1	631.3	103.1	8.897	4.651	4.340	4.251	4.569	4.500	4.645	4.680	5.009	5.193	5.410	6.192	6.127	6.265	6.502	6.458	6.462	6.301	6.119	6.054	6.006	5.574	5.261	5.147	4.790
475.0	142.7	324.9	657.3	 1035	866.0	889.7	965.5	 1048	 1182	 1356	 1483	 1525	 1466	 1340	 1165	966.9	813.2	742.5	743.7	776.4	822.6	869.9	901.9	917.4	902.1	868.4	822.9	777.3	728.9	686.5	647.0	607.0	550.2	481.5	413.0	347.4	279.6	207.8	152.1	111.8	86.96	69.87	57.89	46.92	38.01	28.95	23.09	25.79	61.75	142.2	339.4	708.4	153.9	8.264	4.195	3.849	4.215	3.945	4.249	4.280	4.043	4.597	4.878	5.243	5.229	5.190	5.569	5.321	5.309	5.397	5.299	5.091	5.139	4.452	4.424	4.365	4.257
480.0	131.6	273.6	502.3	974.3	934.9	811.1	863.9	939.4	 1065	 1194	 1302	 1344	 1288	 1174	 1024	849.7	720.9	659.0	658.6	685.4	724.7	764.1	790.8	802.3	791.6	759.1	718.9	682.5	640.1	603.7	572.6	535.5	487.1	429.4	367.8	311.4	250.8	188.0	148.3	115.1	87.67	70.94	59.06	48.57	39.30	30.36	24.68	20.27	25.11	40.23	90.81	438.7	655.2	26.43	5.341	3.856	4.064	3.668	3.618	3.945	3.798	4.252	4.396	4.521	4.676	4.588	4.890	4.854	4.811	4.748	4.722	4.570	4.480	4.105	4.037	3.815	3.658
485.0	121.3	252.3	430.1	780.2	 1049	759.6	785.8	858.3	954.3	 1070	 1161	 1195	 1140	 1038	904.6	752.0	643.5	587.1	589.4	617.0	648.1	678.1	699.8	711.0	697.7	673.1	636.9	604.3	570.1	537.9	510.2	477.6	435.4	387.4	334.8	282.5	230.2	174.1	138.1	115.7	90.28	71.26	60.39	49.50	40.82	32.33	25.80	20.58	17.95	18.59	27.77	124.5	555.9	566.4	23.64	4.266	3.870	3.626	3.370	3.465	3.633	3.755	3.864	4.250	4.233	4.153	4.319	4.394	4.120	4.294	4.145	4.145	4.151	3.691	3.492	3.541	3.229
490.0	103.4	227.4	369.7	574.8	978.0	879.0	695.8	753.3	827.2	933.7	 1004	 1012	973.8	886.0	769.9	645.7	553.5	509.0	508.6	529.6	556.2	580.7	599.1	605.5	595.6	573.8	546.9	517.2	492.3	463.1	443.0	414.5	381.9	337.4	294.1	250.6	206.1	158.5	125.7	106.7	91.47	73.58	60.78	49.95	42.17	34.41	27.53	22.10	17.61	14.79	15.13	34.74	154.7	426.5	523.0	107.7	8.785	3.598	3.220	3.259	3.072	3.401	3.362	3.458	3.697	3.700	3.760	3.819	3.748	3.769	3.391	3.571	3.459	3.073	3.062	2.884	2.783
495.0	92.05	212.6	314.4	461.2	676.5	993.4	684.5	646.2	718.4	791.3	845.5	855.6	822.1	746.5	649.2	549.3	469.4	435.3	428.2	450.0	466.7	488.0	500.8	509.3	500.0	480.0	459.5	437.8	416.9	397.1	377.7	355.6	325.2	291.1	254.0	218.6	183.5	143.6	113.9	95.92	87.21	75.90	61.28	49.54	42.14	34.34	28.80	23.03	18.83	15.79	13.26	15.99	40.94	103.3	298.4	631.4	170.2	7.902	3.286	2.950	2.707	2.904	2.949	3.054	3.248	3.032	3.314	3.382	3.183	3.219	3.023	3.244	2.954	2.666	2.481	2.435	2.405
500.0	86.68	195.5	281.9	388.3	503.4	912.3	795.1	570.6	633.6	692.9	747.0	751.9	712.6	650.5	565.8	483.5	411.0	381.5	379.1	388.4	408.0	422.0	434.6	440.6	434.7	419.9	400.0	381.8	365.7	345.0	332.1	314.1	288.5	256.8	227.4	197.4	166.7	132.4	106.1	90.08	79.49	73.82	63.24	49.09	41.88	34.77	29.35	23.77	19.16	16.11	13.39	12.23	16.43	29.29	79.08	381.0	622.7	28.58	4.560	2.756	2.633	2.536	2.503	2.826	2.687	2.746	3.054	2.985	2.941	2.654	2.641	2.589	2.325	2.496	2.323	2.183	2.048
505.0	65.68	159.7	265.9	337.1	404.1	691.1	925.2	560.2	560.1	622.2	655.3	657.2	628.3	566.3	501.3	423.2	365.8	339.1	333.5	340.2	358.1	370.2	379.0	384.2	382.0	367.9	349.0	334.2	320.7	306.5	295.0	276.8	257.5	229.6	203.0	176.2	151.7	120.9	99.01	84.04	73.37	67.17	62.54	50.30	40.83	34.51	28.98	24.54	19.85	16.59	13.76	11.94	11.51	13.16	23.25	106.5	484.3	510.5	25.57	3.166	2.435	2.201	2.315	2.368	2.271	2.416	2.537	2.529	2.510	2.526	2.381	2.237	2.050	2.116	1.935	1.924	1.887
510.0	50.54	129.4	235.7	294.5	338.3	452.8	808.5	704.3	482.4	525.9	553.1	549.1	523.2	475.3	415.6	354.0	306.1	283.7	279.9	284.9	296.2	306.7	313.5	316.7	313.6	302.5	289.9	277.2	267.1	256.7	246.1	232.8	216.9	194.0	173.2	151.0	130.4	106.8	88.54	75.49	65.96	59.77	55.40	49.59	40.68	33.38	27.89	23.92	19.55	16.93	14.20	12.05	10.61	10.13	11.56	29.21	131.7	352.6	429.7	112.7	8.196	2.128	2.053	2.064	2.132	2.023	2.083	2.067	2.000	2.087	1.981	1.881	1.921	1.706	1.538	1.510	1.481
515.0	46.17	109.9	194.1	257.9	284.7	328.2	502.8	826.0	514.1	432.4	455.2	446.7	420.9	386.8	338.3	289.4	250.6	236.2	232.0	234.2	241.9	251.5	253.4	255.3	252.2	245.2	234.8	227.3	219.6	211.3	201.9	192.2	179.2	162.0	144.1	127.6	109.8	92.38	77.71	67.04	59.43	53.60	48.00	45.67	41.56	33.46	26.64	22.68	19.15	16.57	14.65	12.76	10.36	9.471	8.779	12.31	33.84	84.14	203.9	480.9	169.4	6.610	1.970	1.928	1.675	1.812	1.744	1.724	1.509	1.501	1.645	1.594	1.490	1.340	1.264	1.261	1.216
520.0	39.35	92.83	162.4	232.0	256.0	278.1	339.5	708.6	643.1	379.8	390.4	383.9	361.3	330.3	291.0	245.9	216.1	205.2	200.2	202.3	206.4	212.2	216.1	218.5	213.6	208.4	200.2	192.9	187.7	182.2	174.5	165.0	154.9	139.8	126.3	111.5	96.12	82.37	70.25	61.07	55.21	49.02	43.53	40.27	38.92	33.52	25.91	21.86	18.83	15.73	14.10	12.28	10.55	9.087	8.113	8.485	12.18	22.86	52.52	271.6	473.2	28.99	2.999	1.807	1.416	1.407	1.369	1.421	1.351	1.337	1.196	1.172	1.147	1.001	1.114	1.082	0.928
525.0	23.03	79.80	139.0	205.9	233.4	243.7	276.2	488.9	770.2	391.2	342.7	340.3	313.7	286.6	253.0	214.2	190.9	177.1	176.0	176.1	180.3	182.5	187.1	187.5	184.6	180.1	174.2	167.6	163.3	158.3	153.1	145.6	136.8	121.9	110.2	98.29	86.49	74.32	64.48	55.61	51.26	44.93	40.24	36.35	35.53	32.74	26.36	20.92	18.37	15.31	13.80	12.05	10.40	9.120	7.933	7.573	7.444	9.080	15.10	72.88	330.0	377.5	24.97	1.976	1.357	1.361	1.220	1.220	1.138	1.115	1.096	1.082	1.035	1.036	0.905	0.896	0.842
530.0	17.89	67.63	118.3	168.1	204.8	211.2	226.8	296.3	629.0	575.2	303.8	281.6	263.6	241.6	209.5	182.0	160.1	150.2	146.3	146.8	149.1	151.9	157.1	156.2	153.2	148.2	145.4	139.4	135.8	131.7	127.6	122.0	114.3	104.0	93.79	83.55	74.74	64.64	56.40	49.77	45.40	39.83	36.11	31.93	30.27	29.11	26.17	20.94	17.27	14.43	12.94	11.24	9.900	8.696	7.730	7.109	6.204	5.896	6.455	18.95	86.70	245.4	267.0	103.6	6.603	1.203	1.119	1.091	0.906	0.994	0.897	0.848	0.855	0.776	0.726	0.670	0.726
535.0	16.46	50.03	98.33	135.2	169.5	183.8	192.2	214.7	347.5	662.4	388.8	231.0	217.4	199.7	172.2	149.7	131.5	123.4	121.6	121.9	121.1	125.9	126.7	127.7	125.5	120.8	117.6	114.0	111.1	108.8	106.0	100.2	93.52	86.23	79.29	70.52	64.28	54.53	49.12	42.76	39.42	35.02	31.80	27.93	25.94	24.19	23.86	21.10	16.38	13.89	11.96	10.76	8.970	8.031	7.358	6.528	5.752	4.936	4.616	6.701	21.63	57.24	125.1	334.3	148.4	5.268	0.980	0.783	0.761	0.783	0.723	0.632	0.591	0.508	0.556	0.583	0.470
540.0	14.90	50.65	84.00	113.7	142.3	168.1	168.7	176.4	221.0	524.2	543.4	211.9	186.9	171.9	148.8	130.1	115.5	106.9	105.7	105.0	104.2	107.4	107.4	108.4	107.6	103.6	101.0	99.41	96.20	94.96	92.26	87.07	81.48	75.08	69.06	61.83	55.59	48.48	43.48	38.88	35.85	31.97	29.08	25.44	23.73	21.49	20.44	20.05	16.23	13.26	11.52	9.917	8.231	7.671	7.043	6.394	5.515	4.817	4.205	4.156	6.950	14.53	31.46	176.4	341.3	29.42	2.218	0.732	0.689	0.696	0.605	0.538	0.470	0.438	0.448	0.456	0.430
545.0	10.18	37.96	73.89	104.5	124.2	150.4	151.0	152.6	172.2	335.7	616.0	260.6	167.1	149.6	129.2	113.4	100.4	94.34	92.93	92.91	92.44	93.38	93.15	93.84	93.87	90.14	87.41	85.52	84.49	82.81	79.96	75.93	71.87	65.98	61.58	54.37	49.37	43.87	38.99	35.16	32.64	28.76	26.43	23.76	21.32	19.38	17.92	17.67	16.36	13.07	10.69	9.445	7.997	7.297	6.579	6.132	5.257	4.339	3.921	3.553	3.667	4.924	8.636	46.33	225.2	233.8	24.53	0.893	0.666	0.506	0.543	0.422	0.410	0.477	0.324	0.385	0.316
550.0	3.138	33.93	57.92	84.77	99.85	121.1	131.4	130.5	142.1	192.7	442.7	436.5	156.7	124.4	108.8	94.20	85.25	78.67	76.98	75.98	76.90	77.00	76.68	77.10	76.74	74.66	72.38	70.25	70.12	68.18	66.76	63.60	60.08	55.47	51.49	46.49	42.06	37.46	33.68	30.58	27.91	24.97	23.11	20.89	18.88	17.42	15.68	14.48	14.35	12.73	10.62	8.533	7.301	6.654	5.980	5.612	4.873	4.270	3.606	3.080	2.853	2.729	3.366	11.79	57.95	159.9	213.2	89.67	5.447	0.567	0.525	0.402	0.377	0.281	0.175	0.314	0.234
555.0	1.591	27.62	53.72	68.37	80.91	92.44	110.2	111.7	115.1	132.5	217.2	460.8	269.1	101.5	86.56	76.57	70.42	63.11	63.16	61.34	61.33	62.34	62.62	61.47	61.75	60.98	57.83	57.30	55.76	54.73	53.92	51.09	48.88	44.66	41.47	37.88	34.68	30.35	28.37	25.50	23.07	21.06	19.76	17.80	16.38	14.86	13.50	11.93	11.33	11.50	10.32	8.079	6.538	6.044	5.309	5.021	4.253	3.978	3.385	2.721	2.506	2.114	2.164	3.848	13.69	36.77	88.88	238.6	111.9	3.661	0.464	0.334	0.286	0.287	0.264	0.244	0.117
560.0	2.996	23.51	41.77	56.79	68.63	77.04	94.68	102.4	97.33	102.8	125.4	327.4	397.9	101.5	75.40	64.00	57.89	53.82	52.24	51.90	51.16	51.50	51.64	51.93	50.88	49.45	48.02	48.17	46.54	46.83	45.10	43.39	40.02	37.88	34.70	32.30	29.24	26.98	24.15	21.70	20.33	18.43	17.02	15.57	14.24	13.07	11.89	10.54	9.642	9.526	9.719	8.036	6.180	5.562	4.734	4.399	3.813	3.424	3.064	2.544	2.340	1.790	1.586	1.841	3.901	9.021	21.63	119.0	234.2	28.82	1.299	0.213	0.184	0.138	0.197	0.150	-0.009
565.0	-0.264	15.97	35.78	49.35	56.66	65.19	75.23	87.97	83.74	86.20	93.52	188.2	417.9	135.2	63.55	53.93	49.05	46.10	44.57	44.45	42.80	44.08	43.21	44.22	42.64	41.24	39.42	40.06	39.08	38.48	37.47	35.49	34.25	32.31	29.73	27.12	24.94	22.42	20.26	18.55	16.85	15.83	14.70	13.49	12.63	11.44	10.37	8.998	8.371	7.850	8.237	7.458	6.016	4.957	4.254	3.852	3.524	3.247	2.628	2.474	2.149	1.668	1.460	1.409	1.899	2.603	5.525	30.26	145.5	186.8	22.29	0.412	0.144	0.056	0.053	0.109	-0.002
570.0	-3.642	12.95	24.57	37.75	41.90	49.83	57.24	69.59	75.55	70.39	73.51	94.29	261.2	292.7	74.87	43.35	38.08	36.02	35.25	34.29	32.95	34.23	34.04	34.29	32.96	32.13	31.23	31.27	29.96	30.26	29.79	28.25	26.71	25.57	23.44	21.38	19.56	17.83	16.17	14.87	13.80	12.85	11.80	10.74	10.00	9.160	8.312	7.417	6.713	6.189	6.232	6.254	5.347	4.512	3.617	3.280	3.025	2.682	2.251	2.069	1.831	1.536	1.337	1.163	1.252	1.201	1.913	7.236	36.88	108.7	134.4	53.42	2.687	0.086	-0.049	-0.039	0.015
575.0	-8.512	7.343	18.76	25.59	31.08	35.62	42.64	48.50	61.88	58.82	55.37	59.75	108.5	277.9	189.0	33.29	29.93	27.18	25.95	25.68	25.31	25.53	24.83	25.40	24.09	23.87	23.16	23.20	22.74	22.55	22.38	22.07	19.65	19.08	16.97	16.14	14.98	13.95	12.50	11.87	10.62	9.787	9.015	8.436	7.590	6.931	6.449	5.779	5.230	4.772	4.515	4.442	4.339	3.941	3.134	2.775	2.332	2.104	1.892	1.660	1.516	1.392	1.133	0.993	0.911	0.856	0.975	2.000	8.522	24.61	53.72	133.5	30.38	1.802	-0.067	-0.146	-0.124
580.0	-9.618	4.518	14.75	22.94	28.55	29.34	33.30	36.99	53.12	51.91	46.51	45.76	54.83	177.4	278.2	46.26	23.19	21.78	20.92	21.01	20.89	20.56	19.97	20.22	19.76	19.10	18.88	18.33	18.18	18.31	18.13	17.21	16.10	15.54	13.76	13.12	12.29	11.29	10.08	9.539	8.475	8.196	7.390	6.657	6.304	5.622	5.453	4.843	4.193	4.106	3.496	3.475	3.541	3.439	2.847	2.298	1.916	1.806	1.536	1.384	1.236	1.123	1.036	0.792	0.754	0.621	0.645	0.769	2.252	5.733	12.77	66.43	117.5	24.28	0.386	-0.146	-0.138
585.0	-8.506	5.548	11.36	18.78	24.73	24.09	28.57	30.08	42.84	49.23	40.68	38.58	39.47	91.45	270.9	92.42	20.67	17.65	17.56	17.62	16.87	17.12	16.42	16.33	16.18	16.01	15.57	15.10	14.68	15.45	14.95	14.22	13.23	12.55	11.63	10.94	10.15	9.455	8.109	7.926	7.370	6.326	5.793	5.701	5.118	4.722	4.315	3.999	3.542	3.307	2.996	2.858	2.707	2.954	2.557	2.060	1.750	1.442	1.328	1.201	1.071	0.840	0.853	0.737	0.531	0.528	0.428	0.416	0.764	1.537	2.871	16.79	76.55	97.37	15.50	-0.102	-0.190
590.0	-11.63	0.680	9.135	13.80	17.16	20.51	21.64	24.65	31.28	41.58	39.30	33.05	30.63	40.62	147.8	216.4	40.87	14.20	13.58	13.51	13.16	13.17	12.43	12.83	12.49	12.02	12.14	11.93	11.71	11.86	11.39	10.98	10.48	9.713	9.061	8.388	7.639	7.401	6.421	6.058	5.646	5.080	4.631	4.387	4.202	3.672	3.487	3.360	2.797	2.694	2.362	2.172	1.997	2.120	2.307	1.987	1.495	1.218	1.125	0.852	0.871	0.654	0.676	0.655	0.542	0.397	0.325	0.350	0.406	0.448	0.744	3.840	19.28	55.53	72.23	19.27	1.367
595.0	-15.42	-2.942	6.539	10.92	11.77	15.82	17.32	19.50	23.67	31.19	39.52	29.64	26.27	24.51	53.18	177.8	144.0	12.13	10.56	10.20	9.715	9.893	9.736	9.752	9.544	9.286	9.003	8.861	8.696	9.025	8.350	8.451	7.815	7.307	6.824	6.420	5.876	5.691	4.873	4.469	4.278	3.902	3.734	3.522	3.358	2.838	2.548	2.581	2.309	2.086	1.821	1.621	1.480	1.356	1.518	1.703	1.410	1.085	0.865	0.682	0.617	0.561	0.346	0.343	0.433	0.354	0.255	0.319	0.251	0.178	0.181	0.890	4.262	12.35	29.06	70.50	27.58
600.0	-15.23	-2.308	5.540	7.582	11.91	13.99	14.31	15.04	20.21	24.90	36.48	27.20	22.06	19.78	22.75	100.6	213.1	28.34	8.356	8.772	8.336	8.062	7.964	7.735	7.759	7.451	7.686	7.216	7.009	7.461	7.029	6.880	6.207	6.210	5.479	5.325	4.954	4.480	4.264	3.636	3.668	3.379	3.248	2.794	2.695	2.460	2.197	1.997	1.862	1.643	1.482	1.182	1.167	1.087	1.265	1.382	1.283	1.073	0.713	0.562	0.435	0.447	0.372	0.296	0.254	0.441	0.297	0.205	0.208	0.088	0.015	0.190	0.956	2.624	6.641	35.88	68.95
605.0	-11.63	-5.193	5.116	7.277	8.207	11.34	11.27	14.70	16.80	20.96	29.80	28.32	21.07	17.57	15.29	44.47	191.9	71.49	7.328	7.068	7.302	6.820	6.703	6.598	6.398	6.274	6.169	6.035	5.856	5.826	6.226	5.672	5.186	4.920	4.297	4.510	4.046	3.712	3.413	3.074	2.954	2.714	2.545	2.446	2.297	1.938	1.864	1.649	1.492	1.468	1.242	1.093	0.994	0.847	0.986	1.010	1.143	1.159	0.555	0.471	0.340	0.382	0.295	0.214	0.255	0.279	0.206	0.154	0.137	-0.003	-0.001	0.102	0.066	0.483	1.415	9.110	44.22
610.0	-15.96	-5.203	2.833	4.965	6.347	8.529	9.975	12.05	13.87	18.14	23.70	28.24	21.12	16.44	13.05	16.86	93.31	163.9	29.69	5.508	5.383	5.165	5.359	5.500	5.018	4.974	4.757	4.759	4.630	4.762	4.481	4.408	4.072	4.000	3.582	3.427	3.087	2.792	2.734	2.482	2.269	2.112	1.858	1.829	1.602	1.565	1.408	1.272	1.238	1.137	1.083	0.947	0.827	0.674	0.728	0.613	0.770	0.861	0.695	0.420	0.260	0.266	0.221	0.164	0.153	0.115	0.154	0.196	0.028	-0.013	0.006	-0.004	-0.036	-0.011	0.202	1.897	11.10
615.0	-18.11	-3.876	2.317	2.964	6.459	5.923	7.909	10.21	12.69	15.05	19.57	24.24	22.59	14.47	11.31	9.631	28.81	122.1	122.1	5.561	4.031	3.828	3.954	3.907	3.955	3.695	3.587	3.352	3.731	3.364	3.396	3.330	3.036	2.828	2.788	2.627	2.352	2.080	2.111	1.725	1.689	1.618	1.310	1.340	1.209	1.167	1.098	0.922	0.881	0.865	0.732	0.728	0.595	0.542	0.507	0.445	0.403	0.585	0.665	0.354	0.217	0.205	0.067	0.073	0.135	0.154	0.094	0.079	0.082	0.004	-0.049	-0.074	-0.094	-0.205	-0.110	0.205	2.272
620.0	-13.12	-5.858	-0.479	2.074	4.481	4.893	7.187	9.308	10.98	12.53	15.94	20.91	22.44	14.30	10.61	7.410	10.76	62.25	171.0	24.10	3.418	3.591	3.270	3.116	3.371	3.269	2.953	2.836	2.922	2.606	2.669	2.605	2.514	2.197	2.352	1.968	1.838	1.740	1.571	1.359	1.344	1.172	1.218	0.989	0.940	0.861	0.806	0.725	0.645	0.633	0.608	0.438	0.447	0.424	0.361	0.331	0.229	0.372	0.417	0.368	0.199	0.218	0.055	0.118	0.135	0.117	0.004	0.018	0.019	0.063	-0.105	-0.064	-0.155	-0.239	-0.124	-0.098	0.313
625.0	-13.97	-6.330	0.903	1.304	3.944	3.246	6.142	7.612	9.553	11.10	14.77	17.10	21.80	15.45	10.10	6.871	6.724	24.48	142.0	61.86	3.313	2.771	2.766	2.665	2.826	2.703	2.446	2.575	2.356	2.251	2.208	2.135	2.067	1.993	1.761	1.497	1.522	1.544	1.153	1.283	1.050	1.018	1.059	0.721	0.822	0.684	0.666	0.657	0.567	0.578	0.436	0.329	0.335	0.246	0.276	0.228	0.154	0.256	0.303	0.315	0.197	0.113	0.029	0.047	0.061	0.034	-0.046	-0.043	-0.019	-0.002	-0.020	-0.147	-0.132	-0.223	-0.197	-0.185	-0.121
630.0	-12.73	-6.338	0.149	0.815	4.010	4.470	4.450	6.949	8.409	11.68	13.56	14.42	18.48	18.06	10.01	6.265	4.730	8.442	61.75	133.8	25.11	2.471	2.202	2.130	2.099	2.100	1.856	2.018	1.865	1.828	1.819	1.598	1.587	1.459	1.459	1.270	1.298	1.126	0.893	0.864	0.754	0.707	0.690	0.547	0.603	0.473	0.542	0.462	0.365	0.378	0.304	0.247	0.222	0.123	0.158	0.118	0.052	0.098	0.147	0.198	0.209	0.054	-0.006	0.008	-0.071	-0.008	-0.080	-0.031	-0.077	-0.091	-0.073	-0.170	-0.186	-0.192	-0.265	-0.185	-0.268
635.0	-16.45	-8.877	-2.062	-0.696	1.469	3.377	4.395	5.683	7.463	10.19	11.55	13.42	15.99	16.87	11.29	5.945	4.871	4.679	17.59	88.14	103.8	2.992	1.961	1.741	1.663	1.645	1.343	1.541	1.454	1.403	1.245	1.309	1.244	0.976	1.091	0.987	0.819	0.777	0.746	0.716	0.555	0.454	0.450	0.388	0.345	0.343	0.383	0.236	0.245	0.270	0.243	0.113	0.153	0.089	0.103	0.072	-0.007	0.057	0.023	0.105	0.074	0.021	-0.081	-0.022	-0.161	-0.128	-0.088	-0.110	-0.117	-0.138	-0.086	-0.141	-0.167	-0.165	-0.244	-0.285	-0.256
640.0	-18.49	-6.630	-1.538	-1.190	2.016	3.497	3.633	6.124	7.562	9.870	11.38	11.84	12.96	16.06	12.79	6.769	4.795	3.723	5.730	40.49	139.5	20.58	1.563	1.470	1.348	1.197	1.262	1.114	1.160	1.061	1.056	1.003	0.955	0.803	0.862	0.842	0.643	0.598	0.480	0.580	0.377	0.342	0.381	0.282	0.178	0.182	0.221	0.207	0.218	0.196	0.170	0.048	0.094	0.040	0.038	0.035	-0.049	-0.040	-0.084	-0.019	0.011	0.100	-0.040	-0.052	-0.139	-0.117	-0.150	-0.111	-0.172	-0.215	-0.134	-0.134	-0.157	-0.157	-0.281	-0.257	-0.257
645.0	-17.69	-5.435	-1.296	0.300	2.462	2.207	3.381	5.672	7.662	8.767	10.30	12.41	11.75	13.76	13.24	7.274	4.522	3.485	3.268	14.63	109.1	55.50	1.709	1.412	1.028	1.110	1.092	0.935	0.962	0.940	0.987	0.870	0.749	0.693	0.676	0.564	0.547	0.453	0.283	0.300	0.327	0.220	0.264	0.229	0.264	0.137	0.148	0.165	0.173	0.142	0.143	0.087	0.058	0.059	0.051	0.046	-0.104	-0.113	-0.037	-0.124	0.021	0.018	-0.032	-0.040	-0.048	-0.157	-0.082	-0.132	-0.172	-0.207	-0.163	-0.129	-0.123	-0.166	-0.231	-0.244	-0.270
650.0	-13.54	-7.330	-1.872	-1.136	1.490	2.052	3.566	4.878	6.706	9.271	10.74	11.06	11.50	11.81	13.66	8.365	4.578	3.418	2.926	5.660	55.86	116.0	7.532	1.333	0.977	1.005	0.902	0.786	0.744	0.746	0.668	0.634	0.683	0.536	0.469	0.364	0.402	0.344	0.284	0.286	0.296	0.215	0.131	0.143	0.018	0.079	0.079	0.125	0.155	0.146	0.070	0.040	-0.040	0.052	-0.022	-0.100	-0.070	-0.091	-0.134	-0.112	-0.075	0.023	-0.119	-0.048	-0.032	-0.134	-0.126	-0.086	-0.109	-0.232	-0.240	-0.216	-0.160	-0.150	-0.176	-0.261	-0.308
