Sample:	'1
File name:	2ºÅ2±¶.FD3
Run date:	'15:06:09, 05/15/2024
Operator:	horiz
Comment:	'

Instrument
Model:	F-2700 FL Spectrophotometer
Serial number:	23B8-004
ROM Version:	4J14000 07

Instrument parameters
Measurement type:	3-D scan
Data mode:	Fluorescence
EX  Start WL:	220.0 nm
EX  End WL:	600.0 nm
EX Sampling interval:	5.0 nm
EM  Start WL:	230.0 nm
EM  End WL:	650.0 nm
EM Sampling interval:	5.0 nm
Scan speed:	12000 nm/min
EX Slit:	5.0 nm
EM Slit:	5.0 nm
PMT Voltage:	700 V
Response:	Auto 
Corrected spectra:	Off
Contour interval:	50.000

Peak integration
Integration method:	Rectangular
Sensitivity:	1
Threshold:	1.000

Peaks
No.	ApexEX/EM(nm)	Height(Data)
1	225.0/340.0	5597
2	230.0/350.0	5385
3	240.0/265.0	193.9
4	240.0/520.0	113.1
5	245.0/270.0	250.2
6	245.0/535.0	81.14
7	250.0/545.0	68.08
8	255.0/280.0	861.1
9	255.0/560.0	83.39
10	260.0/285.0	1227
11	260.0/575.0	92.63
12	265.0/290.0	1612
13	265.0/585.0	119.3
14	270.0/300.0	2159
15	270.0/595.0	113.3
16	275.0/305.0	2163
17	275.0/610.0	72.47
18	280.0/345.0	2771
19	280.0/625.0	45.01
20	285.0/640.0	29.30
21	400.0/295.0	-6.173
22	415.0/485.0	55.93
23	430.0/505.0	28.98
24	435.0/510.0	23.43
25	445.0/525.0	14.44
26	450.0/530.0	10.47
27	455.0/340.0	8.080
28	460.0/545.0	3.451
29	475.0/365.0	11.03
30	480.0/375.0	11.28
31	485.0/265.0	-6.539
32	495.0/270.0	-6.780
33	505.0/275.0	-5.817
34	520.0/285.0	-3.138
35	530.0/290.0	-1.964
36	540.0/295.0	0.384
37	545.0/300.0	1.399
38	550.0/305.0	-0.243
39	555.0/340.0	2.426
40	560.0/345.0	2.386

Wavelength data
No.	EX/EM(nm)	Height(Data)	

Data points
	220.0	225.0	230.0	235.0	240.0	245.0	250.0	255.0	260.0	265.0	270.0	275.0	280.0	285.0	290.0	295.0	300.0	305.0	310.0	315.0	320.0	325.0	330.0	335.0	340.0	345.0	350.0	355.0	360.0	365.0	370.0	375.0	380.0	385.0	390.0	395.0	400.0	405.0	410.0	415.0	420.0	425.0	430.0	435.0	440.0	445.0	450.0	455.0	460.0	465.0	470.0	475.0	480.0	485.0	490.0	495.0	500.0	505.0	510.0	515.0	520.0	525.0	530.0	535.0	540.0	545.0	550.0	555.0	560.0	565.0	570.0	575.0	580.0	585.0	590.0	595.0	600.0
230.0	-757.4	167.7	2094	595.3	-166.2	-159.9	-134.4	-113.4	-97.09	-85.78	-76.31	-67.08	-57.53	-49.31	-41.89	-35.84	-31.59	-28.22	-25.67	-23.68	-21.91	-20.64	-19.50	-18.44	-17.71	-17.18	-16.69	-16.48	-16.29	-16.07	-15.56	-14.89	-14.19	-13.59	-12.83	-11.98	-11.89	-11.81	-11.50	-11.34	-10.97	-10.83	-10.67	-10.55	-10.35	-10.28	-8.569	-5.087	-0.436	-1.388	-5.081	-8.369	-8.948	-9.089	-9.192	-9.191	-9.866	-9.910	-10.04	-10.05	-10.11	-10.20	-10.28	-10.33	-10.43	-10.44	-10.52	-10.61	-10.68	-10.78	-10.80	-10.92	-10.97	-11.02	-11.11	-11.32	-11.58
235.0	-667.5	-369.1	805.3	2042	410.7	-100.1	-132.9	-112.7	-97.57	-85.85	-76.14	-66.38	-57.62	-48.99	-41.65	-35.97	-31.48	-28.27	-25.38	-23.72	-21.90	-20.51	-19.52	-18.49	-17.63	-17.14	-16.59	-16.41	-16.27	-15.97	-15.62	-14.91	-14.21	-13.56	-12.77	-12.06	-11.93	-11.80	-11.51	-11.36	-11.04	-11.15	-10.83	-10.31	-10.01	-10.03	-9.085	-8.433	-6.134	-2.922	-0.104	-0.252	-4.789	-8.269	-9.206	-9.158	-9.884	-9.908	-10.04	-10.04	-10.13	-10.21	-10.29	-10.31	-10.40	-10.41	-10.51	-10.57	-10.71	-10.78	-10.85	-10.91	-10.97	-11.04	-11.16	-11.28	-11.56
240.0	-603.6	-401.1	-59.20	1262	2238	320.2	-103.8	-111.5	-96.99	-85.05	-75.56	-66.19	-57.28	-49.24	-41.55	-36.10	-31.69	-28.15	-25.53	-23.73	-21.86	-20.45	-19.49	-18.33	-17.57	-16.99	-16.52	-16.48	-16.43	-16.03	-15.63	-14.92	-14.23	-13.61	-12.77	-12.10	-11.94	-11.84	-11.55	-11.31	-11.04	-11.17	-10.97	-10.56	-9.840	-9.677	-8.935	-9.149	-8.172	-6.518	-3.834	-0.159	2.917	-0.280	-5.968	-8.754	-9.851	-9.926	-10.04	-10.05	-10.10	-10.18	-10.24	-10.26	-10.39	-10.45	-10.52	-10.54	-10.70	-10.73	-10.82	-10.91	-10.99	-11.04	-11.14	-11.30	-11.53
245.0	-698.8	-318.5	-219.0	188.1	1853	2413	234.0	-102.0	-94.68	-84.38	-75.88	-66.33	-56.92	-48.83	-41.44	-35.66	-31.21	-28.18	-25.73	-23.61	-21.84	-20.50	-19.47	-18.41	-17.49	-17.06	-16.83	-16.50	-16.28	-16.02	-15.62	-14.89	-14.17	-13.65	-12.80	-12.09	-11.96	-11.91	-11.48	-11.30	-11.05	-11.18	-11.04	-10.67	-10.21	-9.769	-8.591	-8.795	-8.355	-7.469	-6.561	-6.160	-1.875	4.037	4.668	-0.596	-7.530	-9.828	-9.984	-10.10	-10.14	-10.13	-10.28	-10.32	-10.42	-10.47	-10.55	-10.53	-10.72	-10.69	-10.71	-10.89	-10.99	-11.01	-11.10	-11.31	-11.55
250.0	-774.9	-423.7	-103.7	-37.54	381.8	1699	2984	1167	-11.26	-82.92	-74.41	-65.68	-56.60	-48.78	-41.34	-35.81	-31.19	-28.07	-25.63	-23.55	-21.91	-20.52	-19.46	-18.41	-17.53	-16.95	-16.70	-16.49	-16.22	-16.07	-15.60	-14.90	-14.18	-13.61	-12.81	-12.05	-11.91	-11.78	-11.50	-11.31	-11.06	-11.17	-11.06	-10.68	-10.36	-10.12	-8.955	-8.839	-7.795	-7.072	-6.836	-8.038	-7.268	-5.207	-1.877	2.257	5.081	3.812	-1.847	-7.757	-9.924	-10.13	-10.24	-10.32	-10.38	-10.45	-10.55	-10.56	-10.72	-10.74	-10.80	-10.89	-10.97	-11.04	-11.09	-11.27	-11.54
255.0	-785.7	-535.4	-224.5	104.7	59.13	292.4	1620	4050	1705	7.479	-72.73	-64.55	-55.65	-47.85	-41.21	-35.44	-30.93	-27.85	-25.38	-23.60	-21.69	-20.52	-19.46	-18.39	-17.54	-17.00	-16.68	-16.44	-16.23	-15.93	-15.53	-14.91	-14.08	-13.58	-12.79	-12.04	-11.90	-11.83	-11.57	-11.29	-11.01	-11.07	-11.02	-10.68	-10.35	-10.23	-9.137	-9.270	-8.374	-7.189	-6.142	-7.397	-8.137	-8.104	-7.572	-6.495	-5.174	1.146	12.26	13.48	2.131	-7.533	-10.17	-10.29	-10.39	-10.45	-10.48	-10.60	-10.70	-10.70	-10.79	-10.89	-10.95	-11.08	-11.12	-11.32	-11.52
260.0	-789.6	-559.2	-331.9	-0.229	180.5	20.43	339.9	2436	4801	1327	-33.82	-62.72	-54.97	-47.69	-40.68	-34.88	-30.63	-27.64	-25.37	-23.56	-21.82	-20.42	-19.41	-18.28	-17.60	-16.99	-16.52	-16.34	-16.24	-15.92	-15.58	-14.88	-14.13	-13.52	-12.81	-11.92	-11.96	-11.88	-11.52	-11.26	-11.06	-11.14	-11.05	-10.70	-10.34	-10.24	-9.178	-9.374	-8.666	-7.605	-6.797	-7.095	-6.984	-7.860	-8.605	-8.506	-8.669	-7.140	-1.775	8.330	18.32	14.61	-0.395	-9.130	-10.31	-10.41	-10.52	-10.53	-10.66	-10.72	-10.76	-10.85	-10.90	-11.02	-11.10	-11.32	-11.55
265.0	-784.0	-556.3	-363.6	-166.9	193.9	159.2	20.44	612.0	3730	5127	179.5	-51.85	-53.50	-46.83	-40.14	-34.78	-30.90	-27.64	-25.11	-23.46	-21.79	-20.50	-19.26	-18.37	-17.49	-16.91	-16.60	-16.35	-16.14	-15.96	-15.49	-14.80	-14.19	-13.54	-12.75	-11.95	-11.91	-11.85	-11.45	-11.35	-11.04	-11.17	-11.01	-10.69	-10.33	-10.26	-9.194	-9.388	-8.721	-7.748	-7.285	-8.006	-7.170	-6.539	-7.558	-8.568	-9.453	-9.221	-7.992	-5.065	3.136	16.58	23.14	10.54	-4.783	-9.999	-10.43	-10.51	-10.63	-10.77	-10.78	-10.86	-10.89	-11.00	-11.15	-11.28	-11.56
270.0	-607.8	-462.4	-343.5	-224.7	-39.86	250.2	218.2	166.0	1035	3642	5371	902.5	5.638	-44.53	-39.07	-34.18	-30.38	-27.27	-24.95	-23.00	-21.58	-20.30	-19.07	-18.16	-17.44	-16.90	-16.58	-16.32	-16.13	-15.92	-15.52	-14.81	-14.09	-13.44	-12.41	-11.62	-11.51	-11.44	-11.15	-10.96	-10.58	-10.79	-10.51	-10.17	-9.968	-9.870	-8.989	-9.235	-8.669	-7.725	-7.360	-8.563	-8.441	-7.951	-7.317	-6.780	-7.587	-8.700	-9.090	-8.559	-6.579	-2.609	4.701	12.59	17.39	17.18	4.628	-5.697	-10.21	-10.72	-10.75	-10.89	-10.91	-11.00	-11.14	-11.25	-11.52
275.0	-27.62	-122.4	-230.1	-205.0	-126.1	35.66	457.6	494.7	451.4	1127	2956	7827	1347	17.50	-36.30	-33.23	-29.64	-26.67	-24.44	-22.89	-21.39	-20.21	-19.06	-18.21	-17.46	-16.73	-16.48	-16.22	-16.15	-15.81	-15.44	-14.76	-13.91	-12.69	-11.51	-10.43	-10.27	-10.24	-10.12	-9.833	-9.467	-9.455	-9.165	-8.941	-8.651	-8.887	-8.204	-8.543	-8.317	-7.562	-7.253	-8.536	-8.765	-8.562	-8.494	-7.970	-7.231	-5.817	-6.712	-8.104	-8.111	-6.987	-5.005	-3.329	-1.307	6.630	23.31	24.36	12.46	-4.737	-10.48	-10.81	-10.87	-10.95	-11.06	-11.19	-11.47
280.0	589.0	242.6	-52.78	-156.7	-115.7	-15.73	277.6	861.1	700.9	776.2	1260	4797	7821	967.5	-11.38	-31.05	-28.74	-26.31	-24.00	-22.55	-21.08	-19.94	-19.17	-18.02	-17.38	-16.69	-16.29	-16.10	-16.25	-15.73	-15.36	-14.75	-13.67	-12.42	-10.48	-8.832	-8.730	-8.679	-9.110	-8.685	-8.245	-8.170	-7.962	-7.645	-7.046	-7.742	-7.598	-7.834	-7.901	-7.296	-7.067	-8.437	-8.684	-8.625	-8.669	-8.351	-8.316	-7.008	-5.166	-5.060	-6.422	-7.006	-6.419	-5.591	-5.623	-3.446	1.774	13.48	31.87	23.56	7.666	-7.613	-10.69	-10.97	-10.95	-11.08	-11.40
285.0	1047	619.6	106.7	-78.31	-88.49	3.901	194.1	737.8	1227	965.0	1037	1762	6017	6809	102.7	-23.13	-26.94	-25.46	-23.58	-22.16	-20.87	-19.62	-18.93	-18.09	-17.48	-16.64	-16.44	-16.18	-15.95	-15.79	-15.28	-14.66	-13.70	-12.22	-9.757	-7.582	-7.449	-7.921	-8.174	-7.903	-7.628	-7.198	-6.941	-6.297	-6.253	-6.914	-6.722	-7.306	-7.547	-7.007	-6.878	-8.162	-8.573	-8.495	-8.455	-8.373	-8.387	-7.948	-6.805	-4.406	-3.138	-4.200	-5.301	-5.467	-5.524	-4.797	-4.506	-2.257	5.416	19.93	35.60	20.29	2.323	-9.478	-10.83	-11.12	-11.24
290.0	1379	944.1	324.4	39.55	-15.67	64.62	241.7	564.2	1197	1612	1341	1211	1968	4761	5790	1806	6.067	-23.77	-22.96	-21.87	-20.43	-19.33	-18.41	-17.73	-17.17	-16.55	-16.27	-16.17	-15.86	-15.72	-15.35	-14.61	-13.67	-11.94	-9.151	-6.862	-6.663	-7.203	-7.509	-7.157	-7.207	-6.690	-6.216	-5.793	-5.764	-5.564	-5.786	-6.494	-6.715	-6.373	-6.499	-7.854	-8.181	-8.249	-8.149	-7.996	-8.167	-7.868	-7.387	-6.121	-4.674	-2.856	-1.964	-2.322	-3.540	-3.759	-4.801	-4.695	-4.057	-1.541	5.398	14.93	22.56	20.83	10.26	-0.701	-9.341
295.0	1427	1078	485.3	156.6	95.24	171.0	345.7	607.2	976.6	1603	2047	1342	1087	1364	2729	7565	776.0	10.67	-21.01	-20.16	-20.01	-19.00	-18.17	-17.53	-16.93	-16.72	-16.14	-16.15	-15.91	-15.76	-15.29	-14.52	-13.63	-11.63	-9.092	-7.009	-6.173	-6.804	-7.279	-7.164	-7.149	-6.672	-6.223	-5.709	-5.516	-5.545	-5.157	-5.816	-6.266	-6.080	-6.134	-7.514	-7.831	-7.745	-7.788	-7.502	-7.504	-7.357	-6.833	-6.194	-5.550	-4.363	-2.984	-1.164	0.384	-0.772	-3.262	-4.307	-5.257	-5.878	-4.934	-3.733	-2.138	0.792	15.71	34.00	21.99
300.0	1331	1060	552.4	236.6	177.0	260.7	451.1	694.9	989.4	1394	2159	1802	1015	691.6	808.5	4270	6471	587.3	-8.648	-19.69	-19.22	-18.73	-18.05	-17.46	-16.68	-16.55	-15.88	-15.89	-15.81	-15.72	-15.14	-14.50	-13.61	-12.15	-9.812	-7.514	-6.766	-7.045	-7.478	-7.298	-7.271	-6.903	-6.525	-5.982	-5.751	-5.698	-5.249	-5.794	-6.034	-5.654	-5.775	-7.118	-7.549	-7.416	-7.414	-6.930	-7.044	-6.702	-6.356	-5.926	-5.425	-4.529	-3.705	-2.681	-0.928	1.399	-0.482	-2.833	-4.784	-6.435	-6.910	-7.324	-7.612	-7.288	-3.658	7.579	25.50
305.0	1097	955.1	560.5	292.3	238.5	345.1	549.8	770.2	1022	1308	1752	2163	1231	617.7	397.9	1166	5103	5345	61.45	-15.33	-18.34	-17.83	-17.55	-17.04	-16.58	-16.24	-15.86	-15.92	-15.81	-15.62	-15.13	-14.51	-13.83	-12.40	-10.01	-7.926	-7.374	-7.471	-7.625	-7.735	-7.595	-7.457	-7.081	-6.657	-6.262	-5.904	-5.444	-5.876	-5.945	-5.627	-5.703	-6.849	-7.325	-7.145	-7.147	-6.500	-6.814	-6.599	-6.035	-5.498	-5.096	-4.285	-3.741	-3.155	-2.623	-1.294	-0.243	-0.273	-2.711	-5.692	-6.941	-7.738	-8.498	-8.838	-8.444	-5.974	-0.969
310.0	972.0	897.7	593.3	331.9	296.9	405.2	618.6	829.7	1028	1255	1464	1739	1669	882.0	400.9	417.1	1392	3845	4534	1343	4.509	-16.34	-16.58	-16.77	-16.24	-15.98	-15.66	-15.66	-15.62	-15.49	-15.04	-14.34	-13.62	-12.42	-10.55	-8.710	-8.074	-8.211	-8.142	-8.287	-8.123	-8.038	-7.524	-6.797	-6.188	-5.980	-5.452	-5.906	-5.801	-5.507	-5.636	-6.628	-6.962	-6.744	-6.646	-6.268	-6.257	-5.925	-5.654	-5.278	-4.621	-4.261	-3.824	-3.507	-3.326	-2.784	-2.675	-1.917	-1.919	-2.768	-4.675	-6.784	-8.069	-8.766	-9.087	-8.916	-8.033
315.0	1617	1505	907.5	458.5	358.7	477.0	697.6	917.8	1121	1321	1490	1599	1609	1442	728.4	382.0	478.2	960.9	2286	5656	543.1	7.279	-14.78	-15.80	-15.64	-15.88	-15.46	-15.34	-15.57	-15.41	-14.86	-14.38	-13.63	-12.40	-11.01	-9.499	-8.685	-8.741	-8.442	-8.345	-8.203	-7.900	-7.184	-6.044	-4.900	-4.208	-3.794	-4.155	-4.990	-5.021	-5.179	-6.495	-6.584	-6.328	-6.387	-5.677	-5.925	-5.681	-5.292	-4.735	-4.732	-4.029	-3.626	-3.001	-3.179	-2.521	-3.047	-2.546	-2.912	-2.966	-2.632	-2.776	-5.164	-7.420	-8.360	-8.666	-9.140
320.0	2555	2900	1701	701.3	461.5	529.0	777.0	1019	1261	1499	1692	1815	1749	1694	1197	566.5	368.2	373.2	636.2	3328	4616	433.8	-6.201	-14.61	-15.26	-15.60	-15.28	-15.25	-15.38	-15.39	-14.96	-14.15	-13.61	-12.61	-11.24	-9.814	-8.799	-8.956	-8.787	-8.449	-7.674	-7.342	-6.028	-4.592	-2.504	-1.268	-0.423	-0.977	-2.602	-3.737	-4.343	-6.116	-6.062	-6.184	-6.120	-5.478	-5.750	-5.308	-4.811	-4.299	-4.108	-3.431	-2.880	-2.027	-2.007	-1.431	-1.614	-1.695	-2.105	-2.305	-2.502	-2.519	-2.117	-3.861	-6.312	-7.996	-8.809
325.0	3224	3890	2566	1151	586.1	589.3	820.1	1063	1345	1599	1853	2005	1973	1722	1583	912.4	445.3	303.6	279.6	954.2	4057	3914	45.99	-10.15	-13.98	-14.66	-14.84	-15.21	-15.32	-15.23	-14.71	-14.13	-13.56	-12.72	-11.40	-10.03	-9.398	-9.062	-8.873	-8.449	-7.569	-6.849	-5.745	-3.677	-1.554	1.362	2.193	1.939	-0.026	-1.485	-2.919	-4.752	-5.347	-5.600	-5.744	-5.385	-5.442	-5.061	-4.626	-4.063	-3.590	-2.937	-2.509	-1.530	-1.412	-0.940	-0.845	-0.697	-0.967	-1.277	-2.019	-2.361	-2.480	-1.980	-3.513	-5.749	-7.743
330.0	3697	4707	3456	1875	1072	816.5	903.8	1113	1407	1701	2010	2219	2214	1884	1567	1252	724.9	382.6	271.4	366.7	1185	3074	3650	1035	4.466	-12.78	-14.20	-14.60	-15.03	-15.06	-14.60	-14.01	-13.54	-12.64	-11.68	-10.25	-9.666	-9.377	-8.693	-8.120	-7.302	-6.564	-5.354	-2.764	-0.330	2.987	4.340	4.285	3.169	1.175	-0.540	-2.377	-3.486	-4.227	-4.620	-4.749	-5.048	-4.629	-4.373	-3.917	-2.987	-2.783	-2.090	-1.235	-0.669	0.088	0.012	-0.054	0.086	-0.222	-1.168	-1.568	-2.274	-2.660	-3.195	-3.765	-5.127
335.0	4195	5391	4433	2927	1896	1278	1099	1234	1514	1884	2250	2496	2564	2201	1740	1286	1070	631.2	369.0	334.7	471.6	860.2	2150	4481	435.3	9.189	-11.75	-13.53	-14.54	-14.66	-14.27	-13.94	-13.26	-12.62	-11.72	-10.39	-9.595	-9.224	-8.687	-7.813	-7.198	-6.491	-4.382	-1.857	0.627	3.763	6.075	7.262	6.466	4.141	2.649	1.662	0.195	-0.916	-2.267	-3.568	-4.281	-4.140	-3.961	-3.211	-2.346	-2.305	-1.446	-0.190	0.823	1.470	1.718	1.539	1.206	1.930	0.288	-0.159	-1.101	-1.740	-3.094	-3.760	-4.878
340.0	4264	5597	5032	3689	2593	1704	1288	1310	1580	1949	2363	2633	2744	2372	1888	1362	1072	908.4	516.6	403.0	393.7	432.2	720.7	2964	3644	359.8	-2.611	-12.29	-13.86	-14.38	-14.18	-13.89	-13.25	-12.61	-11.58	-10.50	-9.733	-9.279	-8.686	-7.729	-7.174	-6.378	-4.345	-2.280	0.653	3.980	6.429	8.080	7.623	6.000	4.832	4.054	3.158	1.533	-0.427	-1.892	-3.086	-3.606	-3.248	-3.103	-2.160	-1.930	-1.110	0.311	0.480	1.441	2.035	2.426	2.119	2.143	1.113	0.304	-0.735	-0.745	-2.266	-3.473	-5.149
345.0	3992	5564	5346	4206	3134	2109	1452	1369	1592	1942	2364	2644	2771	2430	1955	1426	1027	965.7	730.5	507.2	453.5	423.3	425.8	987.3	3412	3178	40.16	-8.777	-12.81	-13.54	-14.08	-13.72	-13.13	-12.61	-11.48	-10.56	-9.855	-9.454	-8.788	-7.875	-7.357	-6.525	-4.553	-2.402	0.428	3.385	6.098	8.034	8.526	6.935	6.313	6.468	5.239	3.658	0.969	-0.795	-2.710	-3.108	-3.244	-2.784	-2.339	-1.807	-0.708	0.520	0.705	1.823	1.932	2.032	2.386	1.952	1.617	0.729	-0.305	-0.508	-1.904	-3.051	-4.755
350.0	3581	5175	5385	4648	3690	2485	1664	1459	1643	1952	2350	2638	2749	2440	1993	1497	1070	873.5	880.6	748.1	580.8	524.1	464.3	494.3	1107	2607	2811	813.9	3.359	-11.87	-13.26	-13.15	-12.97	-12.50	-11.39	-10.53	-9.903	-9.489	-8.898	-8.151	-7.269	-6.564	-5.055	-3.046	-0.399	2.342	4.842	7.841	8.551	7.682	7.945	8.831	7.623	5.632	3.149	0.315	-1.797	-2.557	-2.609	-2.498	-2.242	-1.857	-0.812	0.192	0.773	1.334	1.575	1.940	2.144	2.135	1.415	1.078	0.087	-0.210	-1.398	-2.969	-4.186
355.0	3248	4801	5357	5017	4140	2827	1826	1554	1683	1953	2326	2590	2700	2408	2008	1552	1132	897.1	849.5	948.7	816.5	668.3	577.4	478.4	493.8	739.9	1759	3494	390.0	4.751	-11.24	-12.31	-12.59	-12.30	-11.37	-10.64	-10.12	-9.384	-8.889	-8.219	-7.367	-6.621	-5.097	-3.862	-1.159	1.462	4.232	7.192	8.048	8.612	8.601	10.46	9.409	7.626	4.895	1.434	-0.703	-2.193	-2.703	-1.992	-1.984	-1.780	-0.807	-0.231	0.673	1.303	1.813	1.752	1.919	1.702	1.592	0.849	-0.242	-0.349	-1.174	-2.357	-3.238
360.0	2905	4603	5282	5038	4347	3030	1957	1603	1680	1916	2251	2504	2611	2346	1967	1576	1181	945.6	871.6	952.6	1011	823.9	690.2	549.1	423.8	358.3	554.8	2446	3176	321.7	-3.179	-11.11	-11.90	-11.99	-11.29	-10.46	-9.883	-9.340	-8.854	-8.109	-7.486	-7.003	-5.518	-4.042	-1.722	0.793	3.339	6.184	7.793	8.547	9.006	10.99	10.29	8.482	5.664	2.356	0.048	-1.999	-2.170	-2.247	-1.900	-1.909	-0.723	-0.418	0.414	1.150	1.427	1.308	1.121	1.011	1.030	0.725	0.103	-0.589	-1.311	-1.863	-2.888
365.0	2671	4329	5076	5053	4550	3208	2057	1636	1698	1893	2171	2417	2493	2279	1944	1575	1232	1006	927.2	951.2	1065	1019	810.7	643.6	480.3	334.5	281.0	776.6	2955	2783	37.93	-7.513	-11.04	-11.53	-11.21	-10.39	-9.854	-9.255	-8.899	-8.214	-7.470	-6.897	-6.060	-4.502	-2.158	-0.107	2.694	5.377	7.404	8.467	8.979	11.03	10.78	8.977	5.782	2.525	0.336	-1.597	-2.049	-2.359	-2.349	-1.543	-1.329	-0.396	0.164	1.130	1.063	1.148	0.731	0.710	0.439	0.506	-0.310	-0.513	-1.253	-2.277	-3.006
370.0	2462	3964	4820	5018	4559	3356	2178	1690	1693	1849	2102	2309	2390	2187	1889	1582	1287	1091	1015	1026	1063	1134	1030	789.7	598.1	432.5	309.4	333.4	921.9	2345	2783	726.5	2.604	-10.17	-10.60	-9.949	-9.532	-9.164	-8.665	-8.144	-7.575	-6.955	-6.068	-4.763	-2.659	-0.599	1.776	4.513	6.566	7.842	8.567	10.92	10.84	9.544	6.714	3.629	0.913	-0.927	-1.520	-2.258	-1.996	-1.559	-1.118	-0.570	-0.390	0.239	0.745	0.617	0.339	0.013	0.036	-0.210	-0.636	-0.864	-1.475	-2.265	-2.981
375.0	2318	3682	4572	4877	4545	3424	2319	1753	1687	1805	2018	2219	2268	2091	1839	1601	1351	1179	1106	1112	1128	1145	1182	1008	741.8	558.2	408.4	311.9	363.6	638.9	1741	3147	333.2	2.942	-9.482	-9.511	-9.142	-8.626	-8.482	-7.771	-7.429	-7.114	-6.404	-5.382	-3.404	-1.469	1.008	3.726	5.823	6.930	8.361	10.31	11.28	9.686	7.399	4.150	1.525	-0.316	-1.650	-1.646	-2.016	-1.586	-1.102	-0.750	-0.300	-0.360	-0.227	-0.384	-0.552	-0.464	-0.266	-0.754	-1.079	-1.154	-1.286	-2.338	-2.636
380.0	2179	3401	4448	4698	4462	3497	2415	1797	1691	1763	1971	2136	2183	2023	1807	1602	1398	1233	1165	1173	1176	1174	1191	1147	880.7	654.0	492.5	364.8	286.3	273.9	514.7	2268	2590	259.4	-4.417	-8.338	-8.579	-8.398	-8.149	-7.786	-7.218	-6.976	-6.330	-5.328	-3.874	-1.459	0.724	2.896	5.208	6.438	7.522	9.883	10.79	10.03	7.696	4.592	1.560	-0.188	-1.263	-1.621	-1.962	-1.799	-1.217	-1.038	-0.819	-0.486	-0.478	-0.912	-0.321	-0.554	-0.841	-0.937	-1.269	-1.216	-1.286	-1.598	-2.494
385.0	2088	3274	4152	4574	4378	3514	2486	1833	1685	1733	1924	2065	2102	1972	1790	1619	1435	1282	1221	1217	1217	1209	1189	1168	1016	757.2	575.9	430.9	319.0	229.7	215.5	694.9	2376	2098	29.42	-6.023	-7.978	-8.120	-7.775	-7.584	-6.998	-6.838	-6.582	-5.210	-4.020	-2.159	-0.241	2.512	4.452	5.872	7.452	9.210	10.59	9.659	8.084	5.053	2.783	0.078	-1.136	-1.799	-1.935	-2.023	-1.642	-1.322	-1.047	-0.867	-0.884	-0.752	-0.734	-0.777	-1.408	-1.113	-1.210	-1.463	-1.416	-1.676	-2.115
390.0	1928	3059	3878	4308	4257	3539	2585	1881	1674	1702	1833	1950	2019	1907	1762	1623	1474	1341	1266	1251	1244	1237	1212	1147	1078	913.0	684.7	520.3	392.6	276.4	189.6	233.2	704.1	1746	1834	501.8	3.191	-6.682	-6.988	-7.199	-6.958	-6.842	-6.461	-5.302	-4.178	-2.543	-0.644	1.716	3.827	5.451	6.536	8.793	9.774	9.397	7.872	5.540	2.811	0.788	-0.753	-1.474	-1.836	-1.982	-1.609	-1.472	-1.192	-0.999	-1.210	-1.198	-1.182	-1.252	-1.642	-1.552	-1.270	-1.770	-1.408	-1.579	-1.703
395.0	1833	2757	3579	4019	4029	3515	2659	1925	1683	1658	1762	1865	1930	1838	1711	1620	1505	1377	1298	1262	1246	1243	1220	1147	1065	987.6	828.1	618.0	467.2	340.2	231.0	165.7	220.2	440.3	1188	2167	274.2	5.687	-5.102	-6.405	-6.661	-6.843	-6.378	-5.534	-4.353	-2.817	-0.870	1.148	2.781	4.508	5.764	7.706	8.428	8.906	7.065	5.798	2.925	1.163	-0.482	-1.471	-1.756	-1.826	-1.767	-1.611	-1.701	-1.662	-1.645	-1.930	-1.539	-1.851	-2.139	-2.031	-1.880	-1.062	-1.558	-1.902	-1.921
400.0	1724	2588	3388	3822	3902	3477	2653	1955	1689	1635	1704	1790	1868	1781	1689	1606	1513	1387	1300	1258	1236	1231	1213	1142	1055	977.2	900.6	704.6	531.7	389.8	274.1	182.9	138.0	155.5	343.0	1491	1855	221.9	0.577	-5.133	-6.099	-6.729	-6.521	-5.740	-4.617	-3.346	-1.456	0.640	2.591	3.489	4.961	7.149	8.101	7.510	7.060	5.587	3.179	1.544	-0.557	-1.481	-1.869	-1.978	-2.102	-1.976	-1.798	-2.023	-2.013	-2.135	-1.865	-1.948	-2.383	-2.004	-2.155	-1.980	-1.567	-1.754	-2.151
405.0	1586	2432	3144	3576	3721	3389	2634	1972	1688	1604	1662	1716	1793	1721	1655	1577	1494	1375	1289	1250	1210	1202	1186	1128	1053	962.3	894.1	791.5	592.5	437.9	318.6	220.8	150.6	117.3	136.4	457.8	1636	1548	28.03	-2.468	-5.519	-6.046	-6.542	-5.888	-4.765	-3.544	-1.876	-0.036	2.040	2.989	4.173	6.663	7.363	7.284	6.435	5.329	3.500	1.144	0.043	-1.221	-1.931	-2.198	-2.340	-2.351	-2.165	-2.136	-1.622	-2.155	-2.203	-2.337	-2.946	-2.361	-2.347	-2.541	-1.969	-2.195	-2.623
410.0	1475	2212	2859	3254	3427	3201	2584	1986	1668	1543	1585	1632	1671	1636	1574	1521	1451	1340	1251	1194	1156	1150	1131	1088	1027	944.1	854.0	797.5	683.8	508.1	372.5	267.6	187.7	139.6	116.9	169.8	495.0	1203	1370	418.3	5.031	-5.319	-6.106	-5.853	-5.228	-3.896	-2.323	-0.619	1.120	2.219	3.482	5.005	6.068	6.303	6.096	4.697	3.060	1.126	0.088	-1.318	-1.961	-2.172	-2.438	-2.595	-2.419	-2.498	-2.516	-2.768	-2.822	-2.874	-3.152	-2.892	-2.604	-2.515	-2.577	-2.510	-3.020
415.0	1264	1918	2586	2922	3119	2994	2507	1939	1602	1465	1483	1511	1548	1520	1465	1430	1374	1276	1187	1126	1078	1072	1064	1023	974.5	906.2	825.2	747.8	695.7	584.2	414.1	298.5	215.2	163.5	126.3	116.8	172.9	322.1	789.2	1540	254.6	6.062	-5.443	-5.653	-5.109	-4.448	-2.937	-1.501	0.440	1.353	2.244	4.063	4.579	5.348	5.176	3.953	2.340	0.822	-0.417	-1.346	-1.925	-2.577	-2.848	-3.033	-2.960	-3.043	-3.185	-3.045	-3.310	-3.872	-3.615	-3.382	-3.557	-2.969	-2.977	-3.021	-3.092
420.0	1110	1762	2323	2672	2899	2815	2411	1888	1554	1384	1404	1414	1445	1420	1388	1347	1309	1203	1124	1059	1020	1005	1003	966.6	927.9	865.7	795.4	713.8	653.7	604.0	453.8	320.8	229.3	175.9	136.7	111.6	106.8	121.7	227.0	956.6	1371	208.3	-1.366	-5.316	-5.305	-4.475	-3.308	-1.755	-0.616	0.251	1.492	2.688	3.866	4.010	4.293	2.949	1.964	0.486	-0.586	-1.347	-2.230	-2.611	-3.111	-3.270	-3.585	-3.450	-3.581	-3.607	-3.851	-4.390	-3.453	-4.023	-3.750	-3.354	-3.449	-3.467	-3.302
425.0	972.7	1545	2065	2459	2677	2646	2281	1815	1504	1328	1319	1316	1343	1326	1304	1277	1232	1136	1060	1004	956.1	949.4	934.2	910.8	879.6	828.4	764.2	688.5	618.2	568.1	488.3	344.6	238.4	184.7	143.8	114.8	96.31	82.10	88.38	272.2	1063	1175	26.44	-3.839	-5.002	-4.780	-3.620	-2.524	-1.057	0.049	0.691	1.965	2.851	2.921	3.576	2.626	1.348	-0.062	-0.762	-1.639	-2.617	-3.225	-3.226	-3.766	-3.674	-3.963	-3.813	-3.950	-4.073	-4.456	-4.115	-4.307	-4.122	-3.881	-3.785	-4.070	-3.878
430.0	1053	1390	1898	2180	2387	2405	2137	1737	1427	1238	1213	1210	1238	1213	1169	1168	1126	1047	976.9	919.6	876.4	859.8	855.4	836.4	811.9	774.2	718.1	655.2	591.5	522.0	465.7	381.0	261.6	195.5	153.6	122.8	99.99	79.13	62.00	86.67	292.3	795.7	987.3	361.6	4.828	-4.702	-3.819	-3.358	-1.864	-0.675	-0.063	1.075	1.942	2.025	2.127	1.617	0.599	-0.610	-1.265	-2.172	-2.930	-3.419	-3.746	-4.049	-4.053	-4.317	-4.620	-4.619	-4.788	-4.906	-4.642	-4.780	-4.762	-4.613	-4.496	-4.470	-4.533
435.0	1610	1217	1598	1894	2114	2159	1974	1648	1325	1153	1108	1104	1125	1098	1056	1046	1017	952.3	884.7	837.2	794.5	782.7	772.0	763.0	738.5	716.0	664.5	615.2	562.7	492.2	421.8	368.7	298.0	212.8	160.4	130.3	105.4	82.54	60.66	49.77	83.60	190.7	498.2	1219	246.1	8.197	-3.628	-3.496	-2.497	-1.609	-0.992	0.157	0.549	0.827	0.961	0.455	0.053	-1.102	-2.004	-2.662	-3.433	-3.803	-4.249	-4.601	-4.492	-4.916	-5.027	-5.082	-5.404	-5.571	-5.296	-5.277	-5.413	-5.349	-5.414	-5.317	-5.200
440.0	1963	1261	1430	1724	1881	1982	1862	1551	1257	1091	1027	1011	1033	1012	974.6	960.3	934.6	875.1	813.6	771.6	733.6	721.9	712.8	700.4	686.0	663.6	623.3	584.4	533.3	468.6	399.3	339.0	300.4	234.0	165.5	131.9	107.4	85.22	62.56	43.92	40.37	55.03	126.6	702.7	1188	212.3	1.318	-3.779	-2.990	-2.187	-1.343	-0.495	-0.279	0.313	0.250	0.213	-0.685	-1.110	-2.059	-2.816	-3.544	-4.128	-4.799	-5.160	-5.228	-5.274	-5.538	-5.492	-5.886	-5.887	-5.788	-5.554	-5.848	-5.723	-5.734	-5.677	-5.356
445.0	1740	1588	1264	1530	1755	1813	1730	1449	1190	1027	952.9	939.9	954.9	928.9	893.3	876.9	855.5	801.9	747.0	700.0	672.0	670.6	659.0	645.7	633.4	614.3	581.8	546.7	503.8	445.2	376.1	313.8	272.1	246.2	177.7	131.6	106.1	85.80	64.71	46.56	32.85	27.04	37.33	184.6	849.8	1147	143.2	-1.901	-3.153	-2.475	-1.802	-1.221	-1.051	-0.560	-0.507	-0.298	-0.908	-2.043	-2.528	-3.549	-3.900	-4.565	-4.665	-5.329	-5.558	-5.429	-5.659	-5.737	-5.771	-6.316	-6.109	-6.137	-6.107	-6.133	-5.994	-5.952	-6.354
450.0	850.0	2043	1295	1304	1497	1599	1524	1319	1084	906.8	847.3	832.6	845.3	823.3	782.2	768.5	755.1	705.7	656.2	622.0	586.6	579.9	576.5	567.7	556.3	546.7	517.4	487.6	452.6	404.0	348.8	289.3	236.8	215.8	189.5	137.1	102.9	83.34	65.17	46.87	32.70	22.14	18.34	47.54	218.9	701.8	940.7	339.2	5.304	-2.742	-2.277	-2.120	-1.854	-1.124	-1.456	-1.540	-2.116	-2.785	-3.288	-3.849	-4.378	-4.853	-5.410	-5.768	-6.015	-5.930	-6.105	-6.716	-6.564	-6.718	-6.742	-6.702	-6.672	-6.732	-6.702	-6.672	-6.956
455.0	296.1	1556	1916	1112	1255	1360	1317	1159	956.3	800.3	735.7	717.9	726.1	704.6	673.5	662.6	639.0	606.5	562.7	531.5	504.4	497.2	494.5	485.0	479.8	469.1	447.5	423.4	397.3	361.1	313.3	262.0	209.3	181.8	170.0	149.3	105.5	78.72	62.13	46.53	32.95	22.65	16.01	17.70	53.46	160.6	393.0	966.1	212.7	7.969	-2.625	-2.684	-2.505	-2.488	-2.348	-2.497	-3.167	-3.677	-3.719	-4.510	-5.242	-5.367	-6.004	-6.475	-6.401	-6.552	-6.752	-7.217	-7.063	-7.055	-7.208	-7.357	-7.291	-7.249	-7.257	-7.440	-7.346
460.0	109.8	885.5	2241	1160	1065	1180	1189	1053	864.2	720.8	653.3	632.5	637.9	625.8	600.0	581.4	566.9	532.4	492.4	468.9	446.6	439.0	437.7	430.4	424.2	415.0	401.5	379.5	357.7	328.3	287.4	242.6	191.2	161.4	145.3	141.8	113.0	79.74	58.72	46.57	33.07	23.98	16.17	12.34	17.09	38.48	92.97	483.5	885.5	169.6	3.256	-3.133	-3.389	-3.021	-2.845	-3.029	-3.548	-4.091	-4.518	-5.070	-5.541	-5.822	-6.152	-6.702	-6.837	-6.874	-7.089	-7.555	-7.431	-7.547	-7.567	-7.633	-7.752	-7.674	-7.671	-7.733	-8.095
465.0	11.97	424.7	1937	1560	942.9	1053	1052	942.2	780.1	650.2	586.1	563.0	568.0	556.2	531.7	512.3	497.5	470.3	439.4	412.2	393.4	390.6	386.2	378.6	376.4	370.2	357.9	342.8	322.0	295.6	259.9	222.1	176.7	148.1	125.7	120.6	115.9	83.72	59.01	43.92	33.26	24.33	17.54	11.59	9.548	12.32	23.04	119.2	577.6	762.9	133.9	-0.876	-3.653	-3.305	-3.637	-3.774	-4.225	-4.832	-5.209	-5.536	-5.844	-5.968	-6.659	-6.970	-7.234	-7.349	-7.677	-7.776	-7.662	-8.083	-7.870	-8.092	-8.205	-7.967	-8.183	-8.071	-8.475
470.0	-79.80	217.8	998.3	2018	1040	867.4	873.8	807.0	674.5	569.6	505.6	483.9	477.0	466.7	440.4	430.4	417.5	394.6	368.1	348.6	331.6	328.7	325.3	321.8	317.8	314.4	304.6	290.7	277.4	255.3	226.1	192.8	154.0	131.9	110.3	97.23	95.60	87.74	63.30	43.25	32.75	24.39	18.37	13.54	10.13	7.770	8.452	28.34	143.4	419.8	578.6	263.1	5.925	-3.880	-4.407	-4.571	-4.753	-5.423	-5.698	-5.968	-6.390	-6.534	-7.113	-7.322	-7.596	-7.712	-7.954	-8.091	-8.129	-8.256	-8.328	-8.567	-8.422	-8.493	-8.524	-8.653	-8.878
475.0	-163.5	85.82	430.6	1437	1679	739.8	725.9	678.5	574.0	484.3	430.2	407.3	401.6	380.5	365.7	353.2	344.6	324.2	302.9	287.6	272.5	270.7	267.4	263.1	264.4	261.9	253.5	243.9	233.0	215.2	192.9	165.3	133.9	114.1	96.84	83.79	73.32	74.42	70.14	46.61	32.95	24.83	19.66	14.85	11.90	8.205	6.673	9.418	33.82	94.85	199.4	565.8	215.2	9.668	-4.565	-5.055	-5.505	-5.981	-6.425	-6.456	-6.876	-7.070	-7.715	-7.944	-7.924	-8.173	-8.324	-8.278	-8.435	-8.424	-8.884	-8.792	-8.802	-9.063	-8.846	-8.929	-9.381
480.0	-225.3	35.37	282.0	789.3	2018	859.5	615.9	594.1	513.9	432.2	384.9	355.2	350.1	331.5	321.9	302.4	297.5	282.1	262.3	248.2	236.7	232.9	230.6	232.8	230.7	226.9	223.7	214.5	205.7	190.4	172.0	147.0	119.1	103.4	87.87	75.70	64.60	61.81	65.29	53.77	34.09	25.56	19.98	15.81	12.17	9.664	7.729	5.300	9.866	22.35	45.98	236.1	614.1	195.3	3.538	-5.062	-5.920	-6.340	-6.703	-6.794	-7.027	-7.377	-7.713	-8.017	-8.179	-8.290	-8.510	-8.635	-8.682	-8.740	-9.094	-9.047	-9.077	-9.095	-9.085	-9.458	-9.496
485.0	-313.7	-5.982	173.7	447.8	1686	1306	566.8	530.8	464.1	392.1	347.2	318.8	314.3	292.6	281.2	265.9	266.1	246.0	231.6	220.6	207.3	209.0	206.0	204.2	203.5	201.6	196.4	189.7	183.6	172.5	154.6	133.0	109.4	94.03	80.86	68.63	59.79	53.15	55.38	55.93	39.67	25.83	20.10	16.81	13.99	10.38	8.791	5.174	4.945	6.613	10.86	54.95	335.6	610.4	153.7	-1.568	-6.237	-6.483	-6.995	-7.093	-7.322	-7.457	-8.021	-8.127	-8.215	-8.431	-8.685	-8.911	-8.932	-9.120	-9.176	-9.211	-9.121	-9.261	-9.314	-9.432	-9.831
490.0	-405.1	-45.72	122.8	269.2	860.0	1764	788.1	458.3	403.1	340.7	309.0	279.0	267.6	250.2	236.5	224.1	222.7	208.9	194.7	186.0	178.6	174.7	174.9	172.8	173.6	172.5	169.3	162.2	158.7	149.4	135.1	115.0	96.74	83.15	71.04	61.75	53.59	46.94	43.90	45.96	43.94	30.96	21.01	17.05	14.43	11.25	9.218	6.308	4.399	3.741	3.460	11.35	77.71	277.4	502.6	275.4	6.532	-6.527	-6.968	-7.334	-7.470	-7.813	-8.146	-8.282	-8.513	-8.660	-8.779	-8.911	-9.029	-9.265	-9.374	-9.324	-9.377	-9.500	-9.506	-9.752	-9.948
495.0	-478.6	-135.5	123.5	174.7	387.2	1295	1567	416.2	333.7	287.8	265.9	233.5	225.1	208.2	195.5	189.6	181.1	175.1	160.9	152.1	147.0	142.3	143.1	143.2	144.0	144.6	139.3	137.0	133.3	125.0	114.2	97.08	82.15	70.84	61.36	54.02	47.27	40.92	37.79	34.79	36.65	35.89	24.87	17.18	13.88	11.30	9.050	6.665	4.538	3.375	2.228	1.810	15.44	59.37	158.8	527.0	243.1	11.64	-7.148	-7.438	-7.769	-7.989	-8.322	-8.640	-8.564	-8.941	-9.043	-9.170	-9.468	-9.682	-9.562	-9.564	-9.539	-9.638	-9.803	-10.01	-10.35
500.0	-516.3	-228.4	76.86	143.1	226.7	683.6	1984	574.7	287.3	253.3	236.1	199.1	187.6	178.8	164.9	157.3	155.0	149.4	136.9	132.0	123.4	120.8	121.1	121.4	123.3	121.6	123.1	117.7	115.5	110.0	100.7	85.66	70.86	64.28	54.55	47.37	42.10	36.45	33.68	30.51	29.07	33.49	28.88	17.83	13.03	10.84	8.980	6.039	4.882	3.731	1.889	-0.419	1.728	10.36	33.13	203.3	569.1	219.4	3.821	-7.422	-7.842	-8.343	-8.457	-8.796	-8.731	-9.033	-9.267	-9.349	-9.557	-9.714	-9.716	-9.676	-9.909	-9.984	-10.01	-10.17	-10.43
505.0	-556.1	-287.3	32.26	139.4	159.6	334.6	1681	1024	267.8	226.4	208.5	175.7	163.0	152.6	142.2	132.5	131.2	126.0	117.3	112.5	105.2	104.5	105.2	105.8	106.5	106.5	106.2	102.8	101.3	94.30	87.65	74.38	63.20	57.00	48.63	41.75	37.83	32.09	30.38	26.33	24.42	26.40	28.98	20.90	13.15	9.845	8.503	5.732	4.690	3.616	1.848	-0.497	-1.533	0.024	4.295	43.81	272.4	557.5	167.6	-3.728	-8.023	-8.475	-8.495	-9.079	-9.016	-9.093	-9.234	-9.447	-9.523	-9.807	-9.618	-9.795	-9.924	-10.04	-10.12	-10.33	-10.67
510.0	-576.1	-334.7	-77.70	111.9	105.0	189.8	786.4	1598	439.9	184.2	173.6	146.9	137.7	124.6	112.7	107.4	104.3	99.89	93.29	89.21	84.05	87.11	85.47	85.57	86.93	86.05	86.56	83.24	82.39	79.31	72.72	62.52	52.78	46.82	40.82	35.30	32.38	27.76	26.54	22.58	20.31	19.12	22.45	23.43	16.44	9.762	7.677	5.468	3.769	2.981	2.084	-0.804	-2.266	-2.644	-2.428	5.998	59.02	231.2	406.1	200.1	4.738	-8.469	-8.536	-8.987	-9.117	-9.183	-9.333	-9.610	-9.707	-9.817	-9.976	-10.01	-10.07	-10.21	-10.31	-10.48	-10.74
515.0	-627.9	-391.9	-160.4	57.37	96.71	114.4	288.8	1245	1149	175.8	142.4	119.2	105.7	97.03	88.09	84.98	81.73	79.33	74.69	68.27	67.00	67.98	67.42	67.25	68.37	69.51	68.86	67.72	66.44	63.57	58.17	50.68	41.57	37.84	33.21	29.26	26.20	22.88	20.94	18.48	16.38	14.54	14.59	19.13	18.82	11.63	6.514	4.210	3.069	2.412	1.443	-0.663	-2.424	-3.287	-3.902	-2.622	8.050	46.59	117.5	367.7	230.2	9.424	-8.661	-9.006	-9.158	-9.229	-9.406	-9.691	-9.976	-10.08	-10.12	-10.11	-10.23	-10.29	-10.47	-10.66	-10.90
520.0	-653.8	-409.4	-194.4	-8.120	113.1	79.75	142.7	597.4	1699	248.9	117.8	101.7	82.89	78.58	71.42	69.18	68.03	64.40	60.43	57.34	55.70	54.54	56.51	54.47	56.50	56.67	56.13	55.72	54.22	54.09	49.98	43.24	35.12	31.94	28.22	25.50	22.56	19.14	18.09	16.49	14.15	12.42	10.55	12.92	16.56	14.38	6.870	3.469	2.372	1.541	0.762	-1.047	-2.146	-3.519	-4.615	-4.808	-3.378	5.150	20.94	133.7	398.1	194.5	1.252	-9.147	-9.308	-9.328	-9.650	-9.839	-9.985	-10.09	-10.25	-10.29	-10.18	-10.39	-10.52	-10.68	-10.98
525.0	-661.5	-441.5	-219.9	-62.31	99.57	69.22	89.92	245.2	1624	774.9	101.1	80.77	71.74	65.21	59.21	55.15	55.46	52.78	48.99	47.69	45.39	45.38	47.13	45.84	47.16	48.87	47.06	47.19	45.70	45.70	42.57	37.30	29.94	27.44	23.60	22.20	19.60	17.35	15.58	13.67	11.82	10.52	8.949	9.143	12.05	14.44	8.880	3.695	2.211	1.298	0.311	-1.900	-2.427	-3.502	-4.791	-5.427	-5.899	-4.333	-1.196	25.14	177.7	396.2	128.6	-6.178	-9.405	-9.451	-9.658	-9.878	-9.961	-10.23	-10.24	-10.22	-10.53	-10.52	-10.58	-10.65	-11.09
530.0	-687.1	-454.2	-249.4	-113.3	34.84	75.31	54.13	102.2	739.5	1527	273.3	59.97	52.02	47.06	42.33	42.21	42.25	40.25	36.41	35.91	34.84	35.22	35.18	35.77	37.20	38.24	36.69	37.80	36.95	36.46	34.09	29.44	23.32	20.98	19.20	17.30	15.41	13.57	12.17	10.56	9.238	7.939	7.008	6.581	6.956	10.23	10.47	5.049	1.660	0.499	-0.241	-2.570	-3.281	-3.783	-4.811	-5.529	-6.750	-6.720	-6.191	-0.529	35.38	158.3	276.4	129.3	2.642	-9.424	-9.749	-9.963	-10.09	-10.23	-10.30	-10.40	-10.56	-10.60	-10.67	-10.82	-11.07
535.0	-714.0	-464.5	-282.7	-151.6	-42.04	81.14	41.99	48.19	211.9	1278	967.1	54.38	34.21	29.74	26.84	27.32	28.79	26.73	25.35	24.38	23.14	25.17	25.45	25.40	27.57	28.25	28.23	27.57	28.71	27.76	25.63	20.89	17.15	15.18	13.95	12.45	10.51	10.08	8.627	7.620	6.564	5.048	3.900	3.970	3.301	4.474	7.574	6.345	1.481	-0.400	-1.182	-3.075	-4.095	-4.462	-4.922	-5.477	-7.021	-7.424	-7.517	-6.546	1.393	28.68	75.58	241.0	195.7	6.454	-9.692	-10.02	-10.23	-10.25	-10.45	-10.53	-10.49	-10.63	-10.80	-10.84	-11.20
540.0	-705.1	-486.7	-289.3	-161.7	-85.22	41.95	44.15	23.92	74.01	595.0	1598	141.0	24.75	19.20	16.43	17.46	20.02	19.14	17.68	17.14	16.66	18.50	18.40	19.75	20.35	21.77	21.45	21.29	21.96	20.53	20.25	16.11	12.43	11.70	9.965	8.817	7.996	6.830	6.631	5.213	4.217	3.211	2.069	2.449	2.030	2.014	3.978	5.657	2.680	-0.216	-1.597	-3.398	-4.733	-5.091	-5.414	-5.440	-6.668	-7.611	-7.955	-7.924	-6.256	-0.388	10.16	82.57	273.7	142.4	-2.224	-10.11	-10.19	-10.36	-10.46	-10.61	-10.58	-10.72	-10.81	-10.93	-11.19
545.0	-696.2	-469.9	-298.7	-172.3	-110.6	-6.257	68.08	16.43	41.32	201.3	1606	513.6	14.91	9.188	9.526	10.59	14.50	11.12	11.58	11.93	11.83	13.33	12.36	13.07	14.95	16.33	15.55	16.14	15.52	15.26	14.62	12.56	9.774	8.170	7.330	6.950	5.267	4.104	4.464	3.668	2.347	1.568	0.640	0.893	0.973	0.224	1.127	2.995	3.451	0.075	-1.923	-3.944	-4.936	-5.487	-6.055	-5.824	-6.611	-7.709	-8.274	-8.269	-8.025	-7.114	-4.817	12.09	114.3	257.1	25.32	-7.463	-10.23	-10.39	-10.51	-10.59	-10.54	-10.63	-10.75	-10.95	-11.32
550.0	-675.4	-470.0	-299.7	-187.7	-124.1	-56.12	58.94	34.52	30.64	77.39	732.7	1299	82.45	-1.860	0.162	2.199	4.419	4.482	4.682	5.504	5.059	5.952	6.718	6.592	8.537	9.374	9.982	9.861	10.40	9.847	8.955	7.029	5.283	4.637	3.966	3.326	2.764	1.870	1.693	1.313	0.446	-0.323	-0.729	-0.843	-1.214	-1.612	-1.111	-0.722	1.373	1.081	-1.712	-4.516	-5.621	-5.976	-6.601	-6.508	-7.199	-7.428	-8.261	-8.469	-8.664	-8.593	-8.155	-4.418	19.46	95.21	160.0	92.37	1.228	-10.28	-10.52	-10.64	-10.65	-10.77	-10.78	-11.03	-11.35
555.0	-637.3	-446.8	-303.8	-199.5	-139.7	-86.46	5.713	70.76	28.01	51.57	215.2	1234	618.9	-3.856	-8.215	-6.526	-4.310	-3.185	-2.348	-1.482	-0.894	-1.334	0.778	1.704	2.426	2.898	4.005	3.479	4.710	4.889	4.264	2.425	1.385	0.923	0.093	0.525	-0.346	-0.553	-1.192	-0.929	-1.576	-2.277	-2.531	-2.816	-2.713	-3.074	-2.771	-3.281	-2.112	-0.156	-0.727	-4.464	-6.061	-6.499	-7.150	-6.899	-7.878	-7.774	-8.139	-8.619	-8.870	-8.876	-8.878	-8.196	-2.889	13.92	39.23	143.7	129.1	3.368	-10.46	-10.64	-10.70	-10.81	-10.84	-11.10	-11.37
560.0	-628.1	-435.2	-307.9	-207.6	-147.1	-98.75	-31.45	83.39	35.13	50.37	94.20	611.3	1243	43.99	-13.90	-12.15	-8.003	-8.408	-5.462	-6.047	-4.507	-4.094	-2.937	-1.702	-0.864	-1.148	-0.104	-0.326	0.881	1.066	0.871	-0.623	-1.610	-1.876	-2.125	-1.419	-1.965	-2.296	-2.520	-2.763	-2.811	-3.755	-3.348	-3.625	-4.108	-4.228	-3.474	-4.356	-3.922	-2.097	-1.103	-4.048	-6.217	-6.783	-7.207	-7.254	-8.214	-8.245	-7.966	-8.395	-8.910	-9.145	-9.113	-8.965	-7.952	-4.132	1.507	43.75	162.9	92.80	-4.348	-10.56	-10.73	-10.78	-10.92	-11.13	-11.40
565.0	-603.1	-425.8	-313.5	-214.8	-150.3	-105.4	-57.20	65.35	60.54	51.04	66.60	204.3	1411	134.1	-17.66	-15.45	-12.60	-10.86	-9.187	-8.527	-7.774	-6.503	-6.528	-4.746	-3.634	-3.529	-2.875	-2.952	-1.915	-1.585	-1.491	-2.717	-3.542	-3.770	-3.470	-3.136	-3.528	-3.506	-3.798	-4.224	-4.237	-4.654	-4.593	-4.687	-4.754	-4.817	-4.108	-5.094	-4.854	-3.696	-2.322	-3.992	-5.933	-6.960	-7.568	-7.707	-8.419	-8.507	-8.484	-8.012	-8.800	-9.227	-9.253	-9.324	-9.050	-8.094	-7.178	2.387	60.04	156.2	24.51	-8.337	-10.74	-10.89	-10.95	-11.10	-11.34
570.0	-585.5	-418.5	-308.2	-219.9	-155.4	-109.8	-69.89	13.98	92.52	56.40	60.91	78.61	701.4	885.0	26.33	-19.75	-16.68	-14.84	-12.84	-12.03	-10.84	-9.837	-8.934	-7.750	-7.291	-6.033	-6.003	-5.923	-5.350	-4.654	-4.564	-5.123	-5.811	-5.683	-5.270	-4.703	-4.961	-4.969	-5.117	-5.479	-5.439	-5.613	-5.885	-5.690	-5.678	-5.764	-5.218	-5.736	-5.619	-4.828	-4.155	-4.667	-5.456	-6.807	-7.692	-7.860	-8.628	-8.688	-8.863	-8.610	-8.565	-8.923	-9.235	-9.300	-9.312	-9.121	-9.162	-7.092	6.103	52.22	91.24	58.35	-1.145	-10.70	-10.87	-11.12	-11.39
575.0	-591.0	-413.5	-299.1	-218.9	-162.7	-116.2	-81.79	-26.48	92.63	81.42	65.15	53.34	176.3	1024	370.2	-20.24	-19.99	-17.97	-15.78	-14.46	-13.29	-11.91	-11.42	-10.23	-9.641	-8.616	-8.840	-8.131	-7.483	-7.029	-6.725	-6.705	-7.203	-7.122	-6.244	-6.142	-5.855	-6.114	-6.029	-6.412	-6.458	-6.767	-7.020	-6.489	-6.501	-6.269	-6.032	-6.294	-6.298	-5.526	-5.217	-6.063	-5.601	-6.359	-7.799	-8.042	-8.847	-8.967	-9.017	-9.010	-8.819	-8.643	-9.140	-9.356	-9.444	-9.487	-9.503	-9.199	-6.482	3.684	18.05	82.60	77.41	-1.029	-10.88	-11.13	-11.37
580.0	-575.6	-413.9	-301.3	-220.6	-164.8	-120.2	-82.62	-37.42	62.43	102.5	63.61	49.19	46.39	543.0	871.8	-2.768	-21.69	-19.06	-17.62	-16.40	-14.70	-13.75	-13.35	-11.97	-10.89	-10.55	-10.15	-9.396	-9.337	-8.430	-8.424	-8.561	-8.604	-8.228	-7.635	-6.779	-6.689	-7.045	-6.893	-7.151	-7.234	-7.546	-7.822	-7.101	-7.227	-7.060	-6.564	-6.933	-6.663	-5.905	-5.733	-6.941	-6.405	-6.378	-7.594	-8.069	-9.030	-9.122	-9.100	-9.208	-9.139	-8.904	-8.789	-9.256	-9.426	-9.463	-9.714	-9.622	-9.350	-7.149	-3.990	20.90	93.88	26.49	-6.891	-11.14	-11.46
585.0	-595.8	-421.0	-303.9	-223.4	-164.8	-123.6	-86.93	-40.18	21.80	119.3	71.77	46.09	19.37	157.8	1095	76.55	-22.71	-20.97	-19.25	-17.57	-16.34	-14.85	-14.13	-13.07	-12.14	-11.20	-11.50	-10.49	-10.60	-9.867	-9.658	-9.342	-9.395	-9.164	-8.487	-7.581	-7.532	-7.700	-7.512	-7.789	-7.884	-7.992	-7.986	-7.726	-7.649	-7.575	-6.890	-7.162	-7.144	-6.120	-5.975	-7.320	-7.149	-6.525	-7.102	-7.956	-9.013	-9.150	-9.197	-9.255	-9.382	-9.216	-8.853	-9.038	-9.404	-9.470	-9.681	-9.901	-9.959	-9.540	-8.968	-3.399	30.63	80.32	20.97	-9.608	-11.45
590.0	-597.0	-438.2	-309.9	-224.8	-167.9	-126.6	-88.97	-49.75	-3.315	91.32	90.28	41.73	14.16	26.01	569.6	556.7	-5.390	-22.35	-20.23	-18.82	-17.29	-16.23	-14.84	-13.99	-13.30	-12.34	-12.32	-11.95	-11.82	-11.16	-10.83	-10.60	-10.45	-10.22	-9.257	-8.468	-8.339	-8.593	-8.538	-8.492	-8.545	-8.630	-8.523	-8.235	-8.127	-7.983	-7.236	-7.531	-7.368	-6.500	-6.283	-7.581	-7.765	-7.415	-7.243	-7.659	-8.939	-9.251	-9.330	-9.330	-9.478	-9.431	-9.274	-9.029	-9.361	-9.590	-9.723	-9.959	-10.10	-10.23	-10.18	-8.941	-1.173	22.32	52.28	34.18	-4.837
595.0	-622.8	-450.2	-311.1	-221.6	-169.9	-126.8	-90.10	-52.36	-15.91	47.65	113.3	41.52	12.33	-3.856	124.1	736.7	76.91	-22.57	-21.66	-19.58	-18.39	-17.22	-15.87	-15.12	-14.31	-13.49	-13.52	-13.10	-12.94	-12.50	-12.24	-11.77	-11.14	-11.03	-10.19	-9.013	-9.343	-9.305	-9.238	-9.367	-9.061	-9.207	-9.064	-8.717	-8.546	-8.697	-7.675	-7.941	-7.457	-6.709	-6.588	-7.807	-8.097	-8.085	-7.685	-7.568	-8.615	-9.236	-9.322	-9.403	-9.463	-9.428	-9.535	-9.389	-9.335	-9.394	-9.795	-10.01	-10.18	-10.31	-10.46	-10.25	-8.583	-3.490	5.851	41.67	26.70
600.0	-648.1	-460.8	-314.9	-223.6	-168.7	-127.8	-91.24	-53.56	-21.22	17.17	99.57	51.37	12.64	-10.36	10.34	432.3	439.8	-16.86	-22.07	-20.13	-19.18	-17.73	-16.77	-15.79	-14.95	-13.94	-13.97	-13.65	-13.64	-12.98	-12.56	-12.12	-11.91	-11.42	-10.70	-9.679	-9.706	-9.738	-9.643	-9.560	-9.467	-9.563	-9.319	-9.037	-8.703	-8.852	-7.751	-8.219	-7.725	-6.924	-6.664	-8.028	-8.272	-8.365	-8.195	-7.837	-8.515	-9.018	-9.524	-9.505	-9.541	-9.516	-9.616	-9.608	-9.515	-9.245	-9.766	-10.02	-10.14	-10.36	-10.55	-10.51	-10.20	-9.192	-7.152	6.283	42.22
605.0	-668.6	-472.7	-315.2	-223.5	-170.8	-126.7	-91.00	-56.51	-25.98	6.294	69.13	65.56	13.67	-11.49	-15.12	128.4	653.6	32.19	-22.54	-20.44	-19.56	-18.13	-17.06	-16.42	-15.40	-14.64	-14.27	-13.93	-13.92	-13.33	-13.33	-12.84	-12.19	-11.74	-11.02	-10.21	-10.14	-10.02	-9.777	-9.928	-9.623	-9.677	-9.579	-9.564	-9.019	-9.025	-8.047	-8.498	-7.857	-6.984	-6.758	-8.057	-8.403	-8.455	-8.600	-8.231	-8.612	-8.945	-9.309	-9.517	-9.582	-9.730	-9.594	-9.841	-9.763	-9.465	-9.538	-10.08	-10.23	-10.41	-10.52	-10.55	-10.65	-10.58	-10.06	-7.173	9.711
610.0	-676.2	-476.9	-323.2	-225.6	-170.3	-128.1	-91.32	-60.47	-29.83	-5.620	34.59	72.47	16.27	-9.888	-19.77	11.04	400.3	309.9	-15.78	-20.95	-20.07	-18.64	-17.64	-16.55	-15.92	-15.19	-14.84	-14.50	-14.33	-13.94	-13.92	-13.24	-12.55	-12.08	-11.41	-10.56	-10.45	-10.33	-10.12	-10.16	-9.994	-10.07	-10.02	-9.695	-9.326	-9.300	-8.346	-8.561	-8.110	-7.153	-6.895	-8.243	-8.544	-8.574	-8.747	-8.574	-9.038	-8.847	-9.234	-9.480	-9.702	-9.721	-9.700	-9.882	-9.878	-9.710	-9.679	-9.851	-10.15	-10.48	-10.61	-10.68	-10.73	-10.79	-10.79	-10.32	-6.612
615.0	-707.3	-491.1	-325.0	-228.2	-172.9	-130.5	-92.11	-62.52	-34.46	-10.89	11.76	53.45	30.99	-10.04	-20.72	-16.52	89.79	488.8	45.89	-21.46	-20.24	-19.07	-18.05	-16.87	-16.35	-15.54	-15.41	-14.85	-14.76	-14.53	-14.35	-13.63	-12.98	-12.50	-11.52	-11.01	-10.74	-10.81	-10.41	-10.28	-10.22	-10.30	-10.26	-9.859	-9.553	-9.540	-8.535	-8.822	-8.250	-7.383	-7.000	-8.370	-8.605	-8.690	-8.829	-8.768	-9.319	-9.017	-9.195	-9.389	-9.594	-9.799	-9.799	-9.979	-9.891	-9.876	-9.923	-9.809	-10.10	-10.40	-10.57	-10.63	-10.79	-10.83	-10.92	-11.02	-10.33
620.0	-731.9	-500.9	-333.1	-233.1	-175.1	-129.9	-93.40	-64.24	-36.60	-15.66	-0.176	27.19	43.22	-10.94	-21.05	-22.55	2.301	331.5	248.6	-19.59	-20.67	-19.58	-18.40	-17.34	-16.53	-15.92	-15.56	-15.41	-15.15	-14.76	-14.60	-13.99	-13.18	-12.58	-11.80	-11.07	-10.83	-10.91	-10.55	-10.53	-10.24	-10.47	-10.43	-10.06	-9.806	-9.575	-8.664	-8.877	-8.328	-7.523	-7.082	-8.377	-8.654	-8.811	-8.859	-8.878	-9.437	-9.345	-9.233	-9.333	-9.504	-9.832	-9.825	-9.982	-9.955	-10.02	-10.02	-9.953	-10.07	-10.34	-10.56	-10.63	-10.79	-10.89	-10.96	-11.13	-11.16
625.0	-728.6	-496.0	-338.9	-235.3	-173.3	-132.3	-94.98	-65.68	-40.81	-19.81	-5.845	8.498	45.01	-4.938	-20.16	-23.96	-18.17	111.9	427.7	3.480	-20.91	-19.67	-18.76	-17.74	-16.61	-16.08	-15.82	-15.43	-15.44	-14.93	-14.55	-14.16	-13.37	-12.62	-11.98	-11.20	-10.93	-10.95	-10.84	-10.64	-10.49	-10.55	-10.35	-10.28	-9.887	-9.735	-8.758	-8.934	-8.363	-7.505	-7.160	-8.451	-8.609	-8.803	-8.871	-8.916	-9.565	-9.443	-9.349	-9.297	-9.437	-9.848	-9.863	-9.953	-10.06	-10.01	-10.01	-10.09	-10.19	-10.23	-10.49	-10.68	-10.79	-10.93	-10.97	-11.18	-11.35
630.0	-713.6	-494.2	-336.9	-234.1	-175.2	-132.2	-98.33	-68.01	-44.47	-27.57	-9.785	1.001	29.67	11.74	-17.94	-23.49	-21.54	9.687	300.7	164.2	-17.83	-19.79	-18.73	-17.80	-16.89	-16.40	-15.96	-15.77	-15.72	-15.30	-14.86	-14.31	-13.55	-12.97	-12.17	-11.37	-11.25	-11.19	-11.02	-10.83	-10.52	-10.72	-10.63	-10.31	-9.933	-9.813	-8.792	-9.032	-8.490	-7.569	-7.239	-8.502	-8.750	-8.873	-8.992	-8.999	-9.634	-9.601	-9.617	-9.442	-9.440	-9.777	-9.798	-9.991	-10.07	-10.04	-10.08	-10.16	-10.27	-10.32	-10.37	-10.61	-10.81	-10.92	-10.97	-11.20	-11.41
635.0	-718.7	-478.5	-332.1	-235.4	-172.3	-134.4	-98.71	-69.18	-43.48	-27.85	-9.746	0.699	14.38	27.88	-9.816	-19.58	-21.28	-14.84	70.37	354.8	23.96	-19.60	-18.86	-18.05	-17.00	-16.60	-16.32	-15.85	-15.82	-15.51	-15.05	-14.35	-13.79	-13.17	-12.33	-11.62	-11.48	-11.27	-11.06	-11.01	-10.61	-10.81	-10.64	-10.34	-9.991	-9.859	-8.910	-9.065	-8.440	-7.626	-7.299	-8.524	-8.758	-8.827	-9.033	-8.980	-9.668	-9.725	-9.763	-9.672	-9.606	-9.576	-9.793	-9.977	-10.10	-10.06	-10.15	-10.19	-10.35	-10.52	-10.39	-10.37	-10.77	-10.90	-11.03	-11.14	-11.46
640.0	-687.2	-456.8	-318.2	-232.4	-171.8	-133.2	-98.21	-67.26	-41.57	-22.26	-4.224	3.880	14.15	29.30	2.623	-17.46	-19.86	-19.19	0.749	270.3	150.9	-18.62	-18.83	-18.13	-17.40	-16.73	-16.33	-16.15	-16.02	-15.67	-15.28	-14.55	-13.78	-13.30	-12.44	-11.66	-11.47	-11.45	-11.12	-11.03	-10.63	-10.70	-10.70	-10.29	-9.986	-9.803	-8.811	-9.041	-8.426	-7.614	-7.299	-8.530	-8.797	-8.904	-9.037	-9.000	-9.677	-9.746	-9.701	-9.748	-9.633	-9.683	-9.809	-9.945	-10.12	-9.948	-10.20	-10.30	-10.37	-10.48	-10.48	-10.48	-10.61	-10.83	-10.94	-11.19	-11.48
645.0	-665.8	-413.9	-301.7	-225.7	-169.6	-131.2	-98.36	-69.57	-42.41	-20.72	-4.129	5.502	13.23	25.90	16.21	-13.00	-17.80	-19.35	-14.88	101.8	293.0	-6.353	-18.81	-17.89	-17.41	-16.77	-16.36	-16.09	-16.02	-15.74	-15.36	-14.65	-13.74	-13.26	-12.43	-11.80	-11.53	-11.57	-11.21	-11.11	-10.81	-10.77	-10.79	-10.30	-10.07	-9.837	-8.829	-9.017	-8.550	-7.594	-7.224	-8.588	-8.821	-8.874	-9.029	-8.973	-9.636	-9.670	-9.765	-9.743	-9.732	-9.809	-9.855	-10.02	-10.03	-9.950	-10.15	-10.19	-10.30	-10.46	-10.55	-10.65	-10.60	-10.66	-10.87	-11.19	-11.43
650.0	-644.0	-409.4	-288.7	-220.8	-169.8	-133.4	-97.91	-70.53	-45.02	-24.06	-4.838	9.188	15.54	17.47	26.09	-7.717	-15.88	-19.24	-18.31	13.37	299.4	42.46	-18.59	-18.02	-17.64	-16.74	-16.34	-16.04	-16.08	-15.80	-15.40	-14.64	-13.95	-13.38	-12.58	-11.87	-11.65	-11.51	-11.33	-11.09	-10.81	-10.90	-10.70	-10.36	-10.01	-9.710	-8.868	-9.001	-8.516	-7.575	-7.233	-8.581	-8.850	-8.888	-9.142	-9.032	-9.667	-9.704	-9.757	-9.782	-9.839	-9.882	-9.852	-9.969	-10.05	-10.11	-10.18	-10.17	-10.30	-10.50	-10.55	-10.58	-10.66	-10.67	-10.89	-11.12	-11.40
