Sample:	'1
File name:	Default_20240106_133701.FD3
Run date:	'13:30:40, 01/06/2024
Operator:	dsjg
Comment:	'

Instrument
Model:	F-2700 FL Spectrophotometer
Serial number:	2198-001
ROM Version:	4J14000 07

Instrument parameters
Measurement type:	3-D scan
Data mode:	Fluorescence
EX  Start WL:	220.0 nm
EX  End WL:	600.0 nm
EX Sampling interval:	5.0 nm
EM  Start WL:	230.0 nm
EM  End WL:	650.0 nm
EM Sampling interval:	5.0 nm
Scan speed:	12000 nm/min
EX Slit:	5.0 nm
EM Slit:	5.0 nm
PMT Voltage:	700 V
Response:	Auto 
Corrected spectra:	Off
Contour interval:	50.000

Peak integration
Integration method:	Rectangular
Sensitivity:	1
Threshold:	1.000

Peaks
No.	ApexEX/EM(nm)	Height(Data)
1	240.0/380.0	797.6
2	245.0/395.0	823.1
3	255.0/280.0	186.8
4	265.0/585.0	39.97
5	265.0/635.0	20.98
6	270.0/600.0	33.24
7	275.0/310.0	470.2
8	275.0/610.0	33.95
9	280.0/315.0	462.7
10	280.0/620.0	27.75
11	285.0/320.0	475.3
12	320.0/365.0	316.6
13	325.0/370.0	318.5
14	430.0/505.0	21.51
15	445.0/525.0	11.90
16	455.0/540.0	7.811
17	460.0/545.0	6.355
18	500.0/395.0	3.558
19	505.0/400.0	3.422
20	520.0/440.0	3.049

Data points
	220.0	225.0	230.0	235.0	240.0	245.0	250.0	255.0	260.0	265.0	270.0	275.0	280.0	285.0	290.0	295.0	300.0	305.0	310.0	315.0	320.0	325.0	330.0	335.0	340.0	345.0	350.0	355.0	360.0	365.0	370.0	375.0	380.0	385.0	390.0	395.0	400.0	405.0	410.0	415.0	420.0	425.0	430.0	435.0	440.0	445.0	450.0	455.0	460.0	465.0	470.0	475.0	480.0	485.0	490.0	495.0	500.0	505.0	510.0	515.0	520.0	525.0	530.0	535.0	540.0	545.0	550.0	555.0	560.0	565.0	570.0	575.0	580.0	585.0	590.0	595.0	600.0
230.0	10.54	334.7	655.5	201.4	7.148	1.925	1.771	1.739	1.156	1.095	1.111	0.854	0.904	0.750	0.717	0.616	0.467	0.533	0.398	0.467	0.354	0.332	0.359	0.299	0.291	0.354	0.257	0.353	0.320	0.223	0.261	0.228	0.251	0.213	0.220	0.286	0.304	0.319	0.261	0.255	0.233	0.171	0.185	0.154	0.136	0.117	0.131	0.254	0.797	1.432	1.063	0.280	0.109	0.065	0.063	0.050	0.028	0.023	0.034	0.002	0.019	0.012	0.000	0.019	-0.024	0.005	-0.011	-0.022	0.003	-0.031	-0.039	-0.021	-0.011	-0.005	-0.009	-0.028	-0.027
235.0	11.27	113.7	723.3	 1340	347.0	11.57	2.889	2.313	0.966	1.425	1.508	1.109	1.002	0.460	0.589	0.880	0.511	0.573	0.431	0.456	0.452	0.395	0.443	0.388	0.298	0.365	0.363	0.205	0.317	0.259	0.249	0.179	0.217	0.265	0.200	0.208	0.358	0.281	0.257	0.229	0.235	0.195	0.203	0.170	0.172	0.097	0.128	0.165	0.346	1.058	2.360	4.206	2.914	0.679	0.076	0.120	0.067	0.064	-0.027	0.073	0.023	-0.003	0.001	0.052	-0.027	-0.002	0.025	-0.017	-0.026	0.027	-0.026	-0.001	-0.042	-0.001	0.006	0.019	-0.032
240.0	14.81	34.39	298.3	 1581	 1724	282.5	7.919	2.675	1.361	2.030	1.292	1.578	1.003	0.870	0.673	0.589	0.728	0.564	0.365	0.456	0.387	0.326	0.454	0.379	0.358	0.317	0.302	0.289	0.295	0.222	0.210	0.200	0.125	0.277	0.194	0.195	0.249	0.255	0.266	0.294	0.223	0.246	0.238	0.230	0.199	0.137	0.158	0.150	0.192	0.355	1.015	3.904	6.831	6.215	2.404	0.454	0.109	0.027	0.019	0.061	0.037	0.010	0.026	0.049	-0.037	0.003	0.043	-0.012	-0.040	-0.003	-0.071	0.033	-0.005	-0.024	0.026	0.003	-0.040
245.0	14.61	27.91	79.66	714.0	 2263	 1835	194.1	3.397	2.445	1.659	1.232	1.296	1.127	0.818	0.610	0.982	0.694	0.672	0.379	0.474	0.392	0.390	0.445	0.340	0.353	0.343	0.324	0.274	0.245	0.202	0.218	0.189	0.193	0.292	0.193	0.185	0.197	0.169	0.283	0.302	0.231	0.271	0.205	0.223	0.236	0.192	0.165	0.244	0.204	0.198	0.330	1.227	3.806	7.991	9.218	5.946	1.877	0.098	0.038	-0.014	0.067	0.000	0.028	0.082	0.032	0.007	0.025	-0.023	0.040	0.001	-0.006	-0.035	-0.025	-0.028	-0.003	-0.014	-0.066
250.0	15.19	32.89	68.06	190.7	870.0	 2286	 2307	689.2	25.44	3.074	2.250	1.954	1.385	1.079	0.949	0.880	0.615	1.041	0.600	0.467	0.459	0.358	0.425	0.392	0.406	0.438	0.427	0.338	0.330	0.228	0.222	0.298	0.261	0.253	0.195	0.200	0.135	0.121	0.208	0.277	0.268	0.292	0.242	0.224	0.182	0.186	0.182	0.186	0.256	0.304	0.261	0.392	0.990	2.478	4.673	7.434	9.993	8.994	5.290	1.616	0.221	0.056	0.015	0.020	0.007	0.002	0.041	0.019	0.025	0.026	-0.021	-0.011	0.000	-0.044	-0.038	-0.006	-0.030
255.0	14.70	17.68	70.49	131.3	219.0	639.2	 2152	 3143	264.4	22.47	3.855	2.380	1.712	1.473	1.251	0.774	0.781	1.088	0.583	0.657	0.533	0.374	0.535	0.421	0.410	0.348	0.471	0.279	0.404	0.307	0.301	0.329	0.196	0.204	0.243	0.127	0.123	0.194	0.179	0.161	0.259	0.312	0.233	0.171	0.266	0.221	0.185	0.228	0.171	0.276	0.399	0.456	0.500	0.673	1.207	1.849	3.380	7.449	13.54	14.19	7.552	1.794	0.077	0.027	0.021	0.006	0.020	0.022	0.039	0.014	0.006	-0.028	-0.021	0.004	-0.009	0.003	-0.037
260.0	11.79	13.80	37.23	121.3	130.4	158.8	728.9	 2775	 2091	215.9	12.11	3.293	2.611	1.822	1.411	0.979	0.988	1.120	0.710	0.522	0.571	0.511	0.576	0.443	0.516	0.361	0.295	0.391	0.411	0.300	0.332	0.247	0.263	0.169	0.248	0.179	0.132	0.219	0.182	0.159	0.134	0.299	0.245	0.249	0.239	0.228	0.189	0.216	0.165	0.193	0.280	0.534	0.679	0.619	0.402	0.525	0.853	2.005	5.526	12.05	16.81	13.85	5.619	0.860	0.025	0.035	0.054	0.009	0.045	-0.029	0.029	-0.029	-0.051	0.057	-0.001	-0.017	0.011
265.0	15.81	9.211	13.54	70.99	147.5	90.04	178.8	 1044	 2750	 1821	166.6	5.705	3.545	2.653	1.986	1.162	1.198	1.190	0.931	0.672	0.582	0.538	0.542	0.460	0.529	0.472	0.444	0.336	0.424	0.357	0.318	0.388	0.317	0.240	0.218	0.151	0.125	0.206	0.162	0.104	0.082	0.178	0.247	0.237	0.238	0.241	0.239	0.213	0.135	0.169	0.156	0.239	0.567	0.860	0.714	0.391	0.306	0.517	1.345	3.662	8.725	16.27	18.47	11.45	3.127	0.275	0.037	0.040	0.042	0.015	0.036	0.013	-0.009	0.021	-0.003	-0.017	-0.025
270.0	15.78	13.07	9.493	23.45	83.82	137.5	112.5	259.3	960.7	 2360	 2409	691.2	41.30	3.244	2.308	1.949	1.236	1.346	0.991	0.715	0.738	0.699	0.548	0.399	0.589	0.468	0.443	0.386	0.400	0.339	0.344	0.330	0.254	0.328	0.231	0.190	0.150	0.158	0.119	0.130	0.129	0.103	0.161	0.262	0.225	0.217	0.297	0.199	0.176	0.147	0.179	0.129	0.278	0.453	0.607	0.772	0.588	0.448	0.419	0.972	2.117	4.687	8.719	13.11	15.72	14.00	8.387	2.711	0.265	0.035	0.022	-0.007	-0.011	0.007	-0.028	-0.005	-0.014
275.0	20.78	17.35	13.17	12.76	25.94	78.54	167.7	145.2	242.9	641.7	 2004	 3332	 1018	43.49	3.422	2.309	1.708	1.600	1.094	1.037	0.822	0.934	0.624	0.561	0.513	0.490	0.469	0.530	0.464	0.371	0.428	0.276	0.287	0.357	0.324	0.270	0.221	0.144	0.183	0.094	0.130	0.157	0.117	0.141	0.170	0.261	0.301	0.210	0.152	0.168	0.181	0.117	0.188	0.209	0.312	0.355	0.645	0.998	0.841	0.598	0.619	1.216	2.141	3.108	4.755	9.816	17.98	19.94	11.68	2.520	0.093	0.012	0.032	0.022	-0.002	-0.026	-0.011
280.0	26.65	25.17	22.30	12.22	15.31	34.66	128.3	186.8	126.6	186.6	660.4	 2582	 3293	758.7	16.78	3.020	2.057	2.116	1.153	0.975	0.924	0.796	0.595	0.603	0.565	0.582	0.567	0.453	0.358	0.418	0.447	0.322	0.344	0.325	0.301	0.192	0.249	0.144	0.170	0.058	0.149	0.154	0.112	0.121	0.133	0.224	0.335	0.262	0.224	0.211	0.261	0.108	0.187	0.131	0.171	0.279	0.292	0.654	1.063	1.117	0.728	0.495	0.721	0.939	1.257	2.739	6.863	14.39	21.96	18.43	7.342	0.721	0.110	0.054	-0.007	0.001	0.039
285.0	29.30	38.17	31.40	18.09	16.04	22.25	66.12	173.9	184.9	116.6	207.1	950.2	 2897	 3091	111.5	7.386	2.773	2.505	1.350	1.178	1.288	0.800	0.762	0.640	0.622	0.593	0.575	0.517	0.328	0.468	0.461	0.480	0.295	0.322	0.258	0.167	0.245	0.297	0.221	0.124	0.173	0.216	0.118	0.108	0.086	0.254	0.283	0.394	0.303	0.244	0.233	0.197	0.230	0.179	0.201	0.229	0.204	0.370	0.563	0.977	1.195	0.900	0.626	0.458	0.643	0.919	1.813	4.240	10.03	18.24	22.27	14.03	3.559	0.110	-0.002	-0.011	0.007
290.0	41.55	45.17	46.74	33.19	28.15	34.96	52.18	104.8	199.6	212.9	156.4	294.1	971.3	 2256	 2518	 1130	29.02	3.653	1.925	1.585	1.513	0.956	0.986	0.819	0.693	0.587	0.642	0.588	0.443	0.502	0.451	0.495	0.408	0.460	0.334	0.264	0.269	0.242	0.184	0.175	0.114	0.206	0.131	0.146	0.083	0.156	0.237	0.359	0.332	0.331	0.291	0.243	0.282	0.212	0.237	0.285	0.237	0.319	0.337	0.528	0.763	1.140	1.319	1.125	0.730	0.671	0.806	1.333	2.583	5.275	9.561	14.32	17.08	15.41	9.455	2.265	0.107
295.0	58.44	51.22	61.26	51.06	49.58	62.23	74.54	108.1	153.4	264.0	289.2	202.1	306.0	618.5	 1489	 3184	661.1	40.97	3.095	2.089	2.181	1.291	0.994	0.888	0.929	0.739	0.753	0.615	0.445	0.545	0.493	0.396	0.416	0.395	0.357	0.219	0.285	0.361	0.189	0.271	0.206	0.161	0.132	0.177	0.147	0.106	0.166	0.248	0.406	0.415	0.328	0.367	0.253	0.321	0.344	0.372	0.342	0.369	0.460	0.506	0.610	0.698	1.082	1.366	1.849	1.286	0.869	0.792	1.024	1.586	2.432	3.591	5.243	10.27	20.89	22.19	11.46
300.0	49.42	60.43	73.23	71.81	79.38	94.95	115.1	152.1	185.7	266.6	382.0	313.8	202.3	236.8	501.6	 1995	 3187	585.4	15.00	2.851	3.256	1.510	1.367	0.928	1.020	0.681	0.855	0.576	0.572	0.588	0.526	0.411	0.472	0.353	0.359	0.241	0.280	0.240	0.215	0.311	0.144	0.125	0.165	0.116	0.115	0.137	0.134	0.268	0.288	0.414	0.331	0.429	0.387	0.441	0.460	0.501	0.504	0.646	0.643	0.671	0.838	0.834	1.075	1.215	1.599	2.007	1.816	1.049	0.878	0.991	1.026	1.271	1.632	2.921	8.135	16.51	24.39
305.0	54.15	69.75	90.52	96.14	106.1	130.9	177.2	217.6	254.0	316.2	412.4	465.8	307.5	211.7	230.8	704.5	 2306	 4754	71.44	6.289	4.592	1.986	1.592	1.148	1.092	0.882	0.757	0.703	0.665	0.574	0.604	0.438	0.460	0.411	0.375	0.297	0.350	0.313	0.236	0.242	0.187	0.127	0.151	0.178	0.062	0.158	0.132	0.308	0.348	0.364	0.419	0.445	0.519	0.613	0.575	0.704	0.509	0.845	0.915	0.843	1.250	1.222	1.323	1.416	1.658	1.894	2.431	2.364	1.667	1.314	1.105	1.107	0.956	1.200	2.374	5.254	11.62
310.0	58.69	85.84	112.0	116.5	131.4	175.5	229.6	281.5	327.3	376.6	412.8	470.2	460.2	300.3	210.9	272.9	753.6	 2841	 2646	 1151	27.75	2.778	2.133	1.577	1.313	1.103	0.887	0.830	0.685	0.613	0.643	0.525	0.541	0.516	0.351	0.319	0.342	0.323	0.209	0.222	0.245	0.148	0.180	0.171	0.138	0.144	0.189	0.283	0.323	0.382	0.485	0.512	0.587	0.676	0.728	0.818	0.827	1.097	1.188	1.193	1.434	1.518	1.721	1.717	1.909	1.782	2.144	2.269	2.439	2.154	1.713	1.324	1.173	1.068	1.256	1.764	3.244
315.0	52.41	108.6	132.4	143.7	159.0	209.0	261.9	327.3	375.1	426.8	447.2	453.4	462.7	446.9	285.4	205.5	286.8	741.4	 1242	 3195	 3241	25.06	3.171	2.182	1.614	1.325	1.027	1.045	0.770	0.653	0.571	0.593	0.625	0.581	0.399	0.332	0.399	0.304	0.222	0.253	0.244	0.172	0.222	0.180	0.173	0.105	0.201	0.218	0.344	0.371	0.469	0.521	0.667	0.711	0.787	0.827	1.059	1.184	1.554	1.327	1.518	1.680	1.931	1.983	2.111	2.014	1.968	1.993	2.095	2.404	2.419	2.336	1.578	1.204	1.118	1.143	1.402
320.0	66.08	134.5	173.8	176.5	178.0	229.2	281.4	352.9	405.0	457.6	483.2	478.1	456.7	475.3	406.9	231.5	201.4	258.6	372.3	 1691	 8522	410.0	12.32	2.768	2.213	1.424	1.284	1.202	0.989	0.911	0.792	0.632	0.640	0.608	0.501	0.440	0.433	0.332	0.258	0.230	0.212	0.167	0.181	0.226	0.198	0.157	0.216	0.355	0.469	0.459	0.564	0.699	0.721	0.776	0.909	0.947	1.138	1.178	1.623	1.507	1.744	1.791	2.138	2.078	2.139	2.206	2.082	2.051	2.032	2.243	2.423	2.649	2.612	1.661	1.293	1.127	1.021
325.0	82.29	172.7	264.2	242.7	214.1	232.6	287.5	362.3	416.6	478.7	512.3	510.9	477.6	455.9	469.3	320.9	204.8	166.1	142.5	507.2	 4663	 3217	316.8	5.439	2.766	1.916	1.400	1.390	0.921	1.079	0.716	0.703	0.551	0.656	0.425	0.411	0.375	0.315	0.319	0.305	0.278	0.216	0.172	0.225	0.184	0.199	0.258	0.447	0.617	0.699	0.827	0.851	0.900	0.880	0.895	0.997	1.277	1.395	1.686	1.593	1.914	2.101	2.101	2.109	2.354	2.262	2.442	2.404	2.334	2.206	2.303	2.277	2.606	2.443	1.974	1.474	1.074
330.0	101.6	226.2	379.8	360.1	277.4	259.7	301.3	364.3	423.5	485.9	523.3	542.2	514.6	470.4	439.9	404.4	292.3	175.2	114.8	165.6	 1218	 1927	 2752	 1143	19.30	2.904	1.864	1.526	1.254	1.127	0.898	0.719	0.679	0.760	0.473	0.433	0.425	0.393	0.333	0.287	0.306	0.241	0.143	0.194	0.228	0.268	0.334	0.560	0.843	0.994	1.145	1.321	1.132	1.076	1.073	1.182	1.307	1.387	1.572	1.736	1.936	1.989	2.234	2.311	2.425	2.384	2.411	2.467	2.500	2.352	2.287	2.304	2.222	2.206	2.373	2.313	1.670
335.0	102.6	253.5	448.0	456.5	345.1	301.1	312.3	366.0	427.8	491.9	542.5	564.9	543.3	491.6	436.1	378.3	376.1	249.2	133.9	110.3	325.7	481.7	 1189	 3363	 1595	23.22	3.062	2.058	1.567	1.392	0.971	0.828	0.811	0.769	0.663	0.497	0.492	0.304	0.355	0.306	0.331	0.209	0.173	0.173	0.169	0.283	0.378	0.609	0.966	1.264	1.384	1.614	1.508	1.280	1.220	1.337	1.356	1.522	1.654	1.798	1.852	2.063	2.251	2.318	2.422	2.522	2.559	2.640	2.415	2.504	2.458	2.429	2.145	2.149	2.097	2.125	2.266
340.0	113.1	276.9	500.7	525.7	405.2	342.4	338.3	380.4	436.4	497.2	548.5	576.4	564.7	514.2	450.9	373.0	356.6	334.6	176.8	116.1	141.4	158.8	330.6	 1723	 3690	360.3	12.67	2.740	2.044	1.636	0.991	0.924	0.862	0.877	0.609	0.569	0.519	0.341	0.406	0.255	0.271	0.304	0.183	0.201	0.210	0.270	0.443	0.590	1.120	1.233	1.609	1.895	1.802	1.605	1.511	1.370	1.484	1.672	1.601	1.892	1.781	2.061	2.302	2.370	2.306	2.321	2.478	2.898	2.470	2.506	2.522	2.404	2.439	2.131	2.199	1.966	2.059
345.0	108.7	293.5	539.2	591.0	459.0	388.6	374.9	404.7	447.8	503.8	555.3	581.3	568.1	526.5	465.3	385.7	336.3	342.7	263.0	146.2	118.3	103.6	123.2	487.9	 2377	 2978	283.3	5.476	2.647	1.783	1.213	1.103	0.954	0.849	0.776	0.536	0.553	0.466	0.426	0.281	0.349	0.280	0.205	0.218	0.257	0.336	0.372	0.609	1.076	1.429	1.650	2.157	2.017	1.830	1.595	1.455	1.569	1.658	1.762	1.819	1.866	2.111	2.207	2.397	2.464	2.482	2.434	2.732	2.637	2.439	2.507	2.284	2.464	2.284	2.431	2.075	1.860
350.0	103.8	283.4	543.7	643.4	564.3	480.1	445.3	455.1	481.6	522.6	565.8	587.3	577.7	538.9	484.6	413.1	352.0	316.5	307.9	241.6	155.1	120.5	102.8	163.2	644.0	 1902	 2633	 1060	18.65	2.851	1.935	1.406	1.072	1.101	0.781	0.683	0.578	0.477	0.436	0.346	0.302	0.298	0.262	0.304	0.231	0.316	0.364	0.645	1.041	1.423	1.659	2.258	2.230	2.145	2.013	1.868	1.942	2.011	1.942	2.129	2.020	2.305	2.347	2.398	2.614	2.685	2.539	2.685	2.773	2.624	2.569	2.522	2.632	2.400	2.384	2.108	1.899
355.0	91.47	276.1	529.1	671.3	642.4	573.2	521.6	518.6	527.9	560.5	589.0	592.8	593.0	558.7	508.3	441.7	384.1	331.5	297.5	303.3	248.0	162.1	128.6	119.1	204.4	472.2	 1123	 3182	 1498	23.16	2.889	1.880	1.359	1.192	0.895	0.789	0.615	0.430	0.503	0.403	0.320	0.360	0.218	0.203	0.260	0.273	0.368	0.621	1.169	1.439	1.804	2.393	2.435	2.493	2.441	2.085	2.332	2.304	2.179	2.351	2.317	2.437	2.591	2.663	2.633	2.675	2.746	2.726	2.798	2.722	2.577	2.747	2.577	2.598	2.317	2.464	2.261
360.0	92.99	262.8	524.0	676.5	685.4	639.7	580.6	552.4	560.7	586.3	603.5	613.1	608.8	575.7	519.8	460.5	407.2	354.7	310.1	298.5	312.9	222.0	159.4	129.6	124.9	161.5	308.7	 1621	 3488	347.1	12.50	2.551	1.652	1.399	1.106	0.873	0.687	0.483	0.569	0.351	0.357	0.324	0.300	0.269	0.304	0.305	0.347	0.576	0.999	1.487	1.799	2.366	2.548	2.652	2.644	2.496	2.590	2.334	2.431	2.479	2.562	2.791	2.752	2.904	2.567	2.738	2.798	2.918	2.801	2.778	2.741	2.954	2.787	2.685	2.653	2.293	2.450
365.0	87.80	251.6	512.3	683.3	734.8	694.7	619.5	584.8	595.6	602.5	623.3	623.7	615.6	584.3	531.4	474.3	423.2	375.9	333.6	303.7	316.6	294.9	201.0	154.7	126.5	107.9	120.7	447.4	 2259	 2836	276.2	5.307	2.230	1.784	1.169	0.932	0.720	0.570	0.519	0.502	0.323	0.326	0.299	0.290	0.221	0.293	0.406	0.633	1.015	1.471	1.553	2.433	2.788	2.655	2.838	2.764	2.815	2.671	2.722	2.677	2.602	2.754	2.906	2.852	2.814	2.688	2.921	2.983	2.902	2.847	2.813	2.973	2.670	2.759	2.509	2.667	2.677
370.0	84.64	238.2	498.3	698.9	769.9	733.7	671.4	623.4	617.8	622.7	627.3	626.0	613.4	588.1	537.3	488.4	443.5	403.0	362.8	327.4	308.4	318.5	284.5	202.6	153.3	119.6	97.44	147.5	598.0	 1828	 2570	979.5	15.93	2.737	1.464	1.112	0.958	0.656	0.529	0.459	0.392	0.360	0.309	0.301	0.251	0.327	0.476	0.631	1.003	1.313	1.625	2.442	2.771	2.987	3.046	2.937	2.991	3.047	2.814	2.870	2.919	2.801	2.930	2.973	2.891	2.750	2.831	2.926	2.890	2.955	2.857	2.920	2.682	2.741	2.602	2.667	2.607
375.0	90.85	236.4	483.3	688.5	786.1	779.0	725.4	652.4	628.2	630.5	639.0	631.1	610.1	585.6	542.4	495.6	456.4	424.0	389.2	352.5	327.5	310.3	315.5	283.0	194.3	146.4	113.2	97.60	173.5	437.1	 1099	 3025	 1351	21.42	2.278	1.559	1.153	0.882	0.647	0.539	0.409	0.394	0.349	0.316	0.287	0.363	0.483	0.622	0.903	1.241	1.664	2.375	2.715	3.136	3.150	3.150	3.199	3.178	3.005	2.971	2.778	2.974	2.988	2.907	3.058	2.842	2.956	2.942	2.973	2.847	2.684	2.749	2.738	2.687	2.825	2.878	2.551
380.0	86.62	222.4	468.9	692.6	797.6	795.8	737.3	678.1	644.3	642.3	643.4	635.8	611.8	577.6	540.1	497.1	460.9	431.5	399.3	370.6	341.6	318.8	307.0	317.7	249.4	172.4	134.1	99.56	90.41	129.4	281.8	 1536	 3120	306.1	10.41	1.921	1.206	0.857	0.728	0.625	0.474	0.442	0.392	0.352	0.387	0.377	0.464	0.616	0.844	1.247	1.581	2.447	2.836	3.122	3.101	3.163	3.428	3.328	2.974	2.947	2.696	3.095	3.039	2.861	3.038	2.880	2.901	2.919	2.967	2.835	2.743	2.850	2.801	2.625	2.655	2.710	2.653
385.0	82.45	203.3	448.2	692.9	795.8	806.7	743.1	679.9	642.7	641.7	624.9	632.1	610.7	573.0	532.9	494.0	460.1	436.0	404.1	380.7	353.3	329.6	308.0	307.8	296.6	205.6	153.0	115.2	83.68	70.69	90.81	405.2	 2026	 3631	223.8	3.990	1.657	1.154	0.857	0.664	0.579	0.536	0.387	0.390	0.347	0.396	0.433	0.639	0.940	1.218	1.557	2.307	2.835	3.080	3.130	3.250	3.449	3.135	3.088	3.109	2.940	2.997	2.893	2.821	3.030	2.898	2.624	2.836	2.920	2.932	2.791	2.809	2.869	2.810	2.593	2.802	2.733
390.0	86.86	206.3	430.8	659.9	788.6	815.6	755.5	684.3	646.0	632.4	618.3	611.1	595.3	562.0	518.9	482.6	454.7	431.7	403.5	381.5	359.2	339.0	315.3	295.8	292.9	263.1	192.7	136.3	100.5	74.33	59.62	116.4	526.5	 2292	 2034	762.9	13.57	1.640	1.091	0.833	0.698	0.570	0.429	0.376	0.310	0.410	0.428	0.631	0.901	1.297	1.495	2.287	2.773	3.018	3.287	3.284	3.441	3.247	3.235	3.029	3.012	2.927	2.833	2.694	2.936	2.930	2.759	2.736	2.913	2.845	2.735	2.755	2.787	2.783	2.682	2.691	2.664
395.0	88.91	207.9	406.0	637.9	774.2	823.1	770.1	680.5	643.7	614.8	609.1	596.8	580.2	546.1	508.3	467.2	442.3	424.0	398.8	383.2	360.8	347.7	323.7	302.0	279.4	271.4	248.4	172.2	123.0	92.84	68.85	62.85	141.4	531.1	869.0	 2358	 1075	16.42	1.605	1.130	0.781	0.654	0.625	0.389	0.383	0.435	0.504	0.552	0.807	1.126	1.555	2.250	2.740	2.927	3.174	3.270	3.558	3.336	3.079	3.020	2.936	2.917	2.754	2.818	2.763	2.707	2.728	2.754	2.871	2.726	2.518	2.476	2.871	2.567	2.622	2.521	2.665
400.0	82.45	202.0	399.9	615.2	763.5	822.5	769.3	691.2	637.5	599.9	594.0	581.6	562.8	529.7	492.1	455.2	434.3	416.5	394.2	376.0	359.3	346.1	327.6	307.6	283.9	261.4	262.8	214.1	144.5	109.1	81.55	60.02	61.01	137.6	217.5	 1209	 2332	251.3	7.831	1.404	1.039	0.672	0.667	0.428	0.388	0.419	0.499	0.586	0.919	1.072	1.475	2.256	2.584	2.985	2.935	3.263	3.229	3.422	3.156	3.012	3.030	2.876	2.683	2.629	2.811	2.655	2.714	2.751	2.816	2.689	2.537	2.394	2.512	2.441	2.506	2.423	2.472
405.0	87.07	179.3	386.9	599.6	743.2	815.2	768.5	694.2	632.0	599.4	578.3	567.0	545.9	519.9	480.1	441.7	420.4	403.2	386.0	367.3	355.9	344.2	325.6	308.8	286.2	261.0	249.4	244.0	174.5	124.4	93.17	66.21	50.12	54.60	63.94	313.1	 1516	 1968	191.6	3.134	1.310	0.976	0.731	0.593	0.578	0.345	0.528	0.631	0.884	1.137	1.391	2.084	2.447	2.917	3.001	3.274	3.275	3.209	3.143	3.089	3.013	3.053	3.051	2.702	2.529	2.506	2.803	2.602	2.463	2.705	2.572	2.439	2.340	2.485	2.543	2.433	2.371
410.0	75.94	177.8	363.7	578.7	709.6	780.1	756.5	684.9	620.3	578.0	558.2	546.9	527.4	496.7	461.5	422.0	405.1	383.2	367.9	353.0	343.5	335.2	321.4	306.8	285.7	263.4	241.3	232.1	213.8	156.6	110.2	79.83	56.85	43.39	35.05	83.71	387.2	 1206	 1619	589.0	11.54	1.330	0.840	0.644	0.549	0.405	0.517	0.622	0.805	1.002	1.286	1.932	2.318	2.790	2.940	2.977	3.392	3.222	3.188	3.050	2.949	2.764	2.623	2.633	2.466	2.471	2.527	2.473	2.371	2.544	2.486	2.521	2.478	2.406	2.335	2.278	2.316
415.0	76.79	166.9	340.9	537.2	673.4	747.5	754.8	676.6	612.7	561.2	534.7	521.9	503.1	472.4	439.0	403.4	380.1	363.6	347.2	338.1	327.2	320.6	308.5	301.7	286.3	265.0	242.3	220.0	209.6	196.1	137.4	93.75	65.53	47.02	34.33	36.51	98.23	279.9	699.4	 1788	245.8	14.03	1.206	0.914	0.615	0.463	0.560	0.685	0.823	1.004	1.353	1.850	2.288	2.444	2.715	2.999	3.151	2.996	3.181	3.104	2.932	2.672	2.618	2.515	2.373	2.464	2.346	2.379	2.201	2.425	2.328	2.407	2.338	2.256	2.309	2.331	2.086
420.0	71.95	167.0	327.7	503.9	646.6	729.6	727.6	673.0	603.3	544.6	520.4	502.5	482.5	456.9	419.3	387.5	364.1	348.6	334.9	322.9	313.7	309.2	300.7	289.8	280.7	262.4	242.3	220.3	199.5	200.4	166.2	106.9	73.10	53.11	37.36	28.71	36.26	72.19	171.1	913.2	 1688	227.1	6.698	0.917	0.652	0.562	0.538	0.595	0.756	0.946	1.211	1.971	2.070	2.490	2.719	2.911	3.194	2.962	3.093	2.980	2.588	2.698	2.642	2.535	2.386	2.164	2.276	2.152	2.257	2.208	2.355	2.371	2.219	2.227	2.190	2.130	1.969
425.0	67.82	153.8	315.6	483.3	616.9	705.1	716.9	658.9	591.1	541.2	510.5	481.0	462.5	435.5	403.6	373.1	349.8	335.3	322.0	307.7	299.2	298.3	290.2	284.1	274.1	259.2	241.4	220.6	198.8	188.1	179.7	125.8	81.21	58.74	40.94	30.03	24.57	27.37	46.09	234.9	 1158	 1538	171.7	2.308	0.927	0.735	0.649	0.658	0.779	0.960	1.303	1.715	2.129	2.366	2.579	2.818	2.893	3.194	3.106	2.879	2.547	2.761	2.550	2.494	2.401	2.163	2.241	2.199	2.283	2.182	2.175	2.228	2.110	2.125	2.167	1.916	1.987
430.0	66.22	148.7	297.2	461.7	587.3	674.4	692.5	651.4	591.7	533.5	497.9	468.2	441.1	415.8	384.9	352.8	331.1	316.6	303.8	291.1	284.2	281.6	275.2	272.2	263.1	252.5	236.8	219.6	200.0	180.7	169.6	148.8	101.6	66.24	47.39	34.57	25.93	20.29	20.13	59.35	298.6	959.0	 1254	455.8	9.922	1.090	0.774	0.806	0.789	0.980	1.172	1.688	1.987	2.287	2.604	2.752	2.917	3.008	3.136	2.981	2.783	2.741	2.418	2.339	2.241	2.169	2.082	2.137	2.103	2.141	2.087	2.087	2.070	1.877	1.928	1.968	2.024
435.0	71.08	133.9	276.7	440.6	567.3	637.9	673.5	640.5	579.2	522.5	488.0	448.1	417.6	394.2	367.3	334.6	311.4	295.3	287.8	274.3	269.0	266.7	258.8	257.7	250.8	243.1	230.6	218.8	199.7	180.7	159.6	142.1	126.1	82.78	55.23	40.61	30.27	22.29	17.39	22.13	72.84	220.5	549.7	 1477	229.9	12.01	1.059	0.871	0.801	0.996	1.123	1.624	2.004	2.244	2.254	2.548	2.858	2.856	3.004	2.835	3.031	2.514	2.414	2.328	2.356	2.270	1.892	2.011	1.911	2.036	2.012	1.983	2.036	1.839	1.972	1.706	1.771
440.0	68.88	131.5	274.4	424.2	545.8	620.9	651.7	635.5	581.4	517.3	472.4	437.9	404.7	381.8	351.0	324.4	299.7	283.6	270.9	261.2	257.2	254.6	248.4	248.1	244.2	237.7	225.5	216.5	199.2	181.3	157.8	135.7	127.6	99.67	63.62	45.62	33.26	24.72	18.12	15.45	24.07	54.54	134.9	824.4	 1478	193.8	4.033	1.050	0.978	0.979	1.258	1.642	1.885	2.072	2.164	2.387	2.740	2.957	2.793	2.720	3.049	2.704	2.335	2.278	2.202	2.139	2.116	1.811	1.754	1.872	1.812	1.747	1.993	1.767	1.816	1.784	1.816
445.0	73.49	133.6	257.4	406.6	525.0	598.0	641.9	628.6	575.1	511.4	463.4	427.9	393.0	363.3	336.2	308.4	287.3	273.9	262.9	249.7	244.0	241.4	237.5	236.5	234.4	228.9	218.6	210.4	196.9	179.5	158.5	132.5	118.4	108.8	74.97	48.58	36.04	27.39	20.12	15.50	13.99	18.84	35.29	218.4	 1102	 1285	26.32	2.005	1.111	1.028	1.210	1.600	1.836	2.123	2.384	2.439	2.626	3.015	2.777	2.761	2.890	2.672	2.378	2.053	2.217	2.101	1.995	1.966	1.772	1.790	1.801	1.705	1.970	1.799	1.786	1.614	1.698
450.0	88.54	150.6	237.3	377.0	491.2	571.9	614.3	604.9	555.9	495.5	440.9	405.0	369.8	341.9	312.8	288.0	267.5	253.5	242.4	232.1	225.4	224.1	218.3	218.4	218.6	215.1	207.9	200.6	189.9	175.5	155.6	131.1	109.9	98.72	87.82	61.16	41.31	30.95	24.12	18.04	14.45	12.53	14.23	53.68	287.6	888.4	 1116	383.6	8.330	1.229	1.233	1.663	1.788	1.997	2.079	2.435	2.605	2.820	2.702	2.635	2.743	2.529	2.331	2.145	2.126	1.929	1.863	1.816	1.727	1.676	1.675	1.738	1.716	1.595	1.673	1.646	1.515
455.0	88.21	215.6	243.6	359.8	447.9	533.5	579.9	569.0	528.8	468.2	417.2	378.8	345.8	315.0	286.3	265.0	244.2	233.2	221.5	212.5	206.4	201.6	199.7	199.1	199.4	197.5	193.7	188.8	178.0	168.7	150.2	129.6	106.0	91.00	81.34	74.28	50.93	35.09	26.50	20.97	16.56	13.24	10.82	17.82	68.32	204.4	514.4	 1271	189.9	9.093	1.381	1.345	1.599	1.905	2.111	2.144	2.551	2.713	2.490	2.660	2.519	2.513	2.125	2.192	2.038	1.833	1.810	1.691	1.743	1.567	1.504	1.584	1.623	1.526	1.490	1.431	1.448
460.0	62.99	299.5	302.9	329.7	425.9	506.8	548.2	540.3	501.0	453.4	401.5	355.4	325.7	298.0	271.4	246.9	229.3	218.6	206.6	199.2	189.6	187.0	184.8	184.7	184.6	183.1	181.7	176.4	168.9	161.1	145.1	124.4	103.3	87.15	74.70	72.14	60.36	39.18	28.29	22.63	18.49	14.39	11.06	10.56	20.30	49.15	124.7	718.0	 1185	146.3	3.985	1.541	1.649	1.733	2.041	2.092	2.257	2.536	2.471	2.252	2.295	2.395	2.139	2.022	1.913	1.871	1.724	1.654	1.583	1.583	1.627	1.386	1.475	1.409	1.346	1.433	1.353
465.0	50.97	294.6	456.0	346.4	385.8	470.7	518.8	510.2	482.3	427.4	379.9	336.8	307.1	281.6	253.3	230.6	217.0	204.0	192.3	183.4	176.9	172.0	172.4	171.0	172.7	169.7	170.1	166.2	159.9	152.7	141.0	120.7	101.7	85.30	71.18	64.46	64.35	45.45	30.30	24.18	19.35	15.47	11.52	9.669	10.22	15.05	31.09	190.2	920.8	972.3	21.19	2.165	1.843	1.865	1.984	2.024	2.118	2.328	2.257	2.369	2.323	2.320	2.023	2.037	1.795	1.816	1.602	1.614	1.527	1.435	1.286	1.458	1.418	1.324	1.298	1.178	1.281
470.0	50.44	165.3	575.3	600.7	372.9	428.7	469.9	472.8	443.5	397.7	352.2	313.3	281.7	253.4	231.8	209.3	194.1	183.8	175.2	168.2	157.1	155.8	155.1	153.8	155.2	153.4	153.4	150.1	146.6	141.4	130.0	113.4	96.50	80.15	67.66	57.80	55.64	50.79	36.73	25.80	20.41	16.64	12.74	10.37	8.369	8.054	10.48	45.39	243.4	692.4	815.6	301.0	8.190	1.889	1.994	1.851	2.058	2.084	2.147	2.152	2.245	2.013	1.873	1.848	1.702	1.544	1.490	1.445	1.411	1.325	1.321	1.289	1.273	1.259	1.179	1.094	1.086
475.0	41.13	97.63	380.4	 1204	499.7	388.0	424.9	430.6	404.5	370.0	322.2	289.3	257.9	232.3	206.0	186.9	172.1	164.3	156.4	148.1	139.4	138.8	136.5	136.4	138.4	136.6	136.9	134.3	131.8	127.3	117.9	105.0	89.52	75.61	63.69	53.26	47.32	45.57	42.65	30.15	21.22	16.85	13.53	10.89	8.577	6.912	6.175	13.45	56.85	158.6	370.3	914.7	181.1	8.709	1.937	1.751	1.862	1.813	1.945	1.992	2.001	1.784	1.735	1.789	1.451	1.351	1.460	1.291	1.188	1.200	1.164	1.157	1.143	1.113	1.056	1.066	0.948
480.0	47.12	80.44	222.8	 1289	857.2	366.1	395.6	389.5	380.7	343.8	305.4	268.5	237.1	212.5	189.6	171.8	159.0	151.4	144.0	137.5	128.0	127.2	122.2	126.3	126.0	128.1	125.4	123.6	122.1	119.9	110.3	97.77	84.58	72.44	60.51	51.77	44.22	40.02	41.85	35.34	22.91	17.60	14.15	11.31	8.874	7.221	5.714	6.441	15.39	37.82	90.36	494.2	903.5	149.0	3.733	1.677	1.801	1.881	1.907	1.753	1.889	1.730	1.627	1.706	1.337	1.253	1.270	1.218	1.217	1.067	1.143	1.117	0.968	1.060	0.809	0.836	0.925
485.0	44.73	74.07	151.1	890.4	 1288	432.7	361.0	373.4	360.1	325.9	284.8	251.6	221.4	197.9	177.3	160.1	147.2	139.4	131.8	125.2	119.2	116.9	115.3	116.2	115.6	117.1	115.6	114.0	113.3	111.0	104.6	93.57	81.24	68.88	58.53	49.66	42.52	36.94	36.21	36.87	26.80	18.25	14.49	11.43	9.276	7.342	5.943	5.398	6.398	11.02	22.45	128.9	695.7	771.3	24.93	2.187	2.017	1.849	1.969	1.790	1.709	1.497	1.517	1.502	1.394	1.123	1.154	1.147	1.052	0.982	0.957	0.974	0.959	0.891	0.852	0.755	0.837
490.0	39.30	71.94	122.0	398.2	 1235	925.3	343.2	338.7	327.5	296.4	261.8	232.0	201.4	179.2	158.2	142.8	132.9	125.0	119.0	112.3	106.8	104.9	102.4	102.9	103.6	103.7	104.4	102.3	102.5	100.4	94.99	86.02	73.84	63.94	54.55	46.52	40.33	34.83	30.97	31.78	30.68	21.72	15.01	11.95	9.520	7.676	6.192	5.250	4.724	5.144	7.196	30.90	181.1	514.7	665.2	112.0	8.111	1.882	1.784	1.640	1.571	1.474	1.448	1.499	1.344	1.207	0.991	1.045	0.964	0.940	0.904	0.878	0.866	0.777	0.732	0.872	0.865
495.0	33.72	71.51	108.4	215.1	651.5	 1472	434.6	300.1	290.6	265.0	233.2	208.8	181.2	161.1	141.0	127.0	118.6	109.5	106.1	99.69	93.72	92.44	90.38	90.55	90.48	91.21	92.49	91.49	91.70	88.62	85.45	76.21	67.69	58.45	49.77	43.29	37.77	32.36	28.28	26.38	27.05	25.89	17.45	12.29	9.846	7.826	6.461	5.399	4.413	4.027	3.939	9.094	42.29	118.5	343.9	795.3	188.3	8.262	1.627	1.513	1.366	1.470	1.369	1.259	1.282	1.058	0.932	0.955	0.877	0.920	0.886	0.836	0.794	0.757	0.748	0.728	0.708
500.0	33.82	64.10	109.6	160.2	317.8	 1357	807.5	286.6	263.4	244.3	216.7	189.8	165.1	142.2	128.0	114.2	106.0	99.57	94.02	89.22	84.71	82.84	80.95	81.10	80.83	81.34	82.24	83.57	81.88	80.87	77.15	70.17	61.77	53.96	45.85	40.19	35.34	30.48	26.79	23.38	22.62	24.41	19.99	13.01	9.911	8.057	6.620	5.555	4.785	4.006	3.212	4.165	11.16	28.12	84.28	453.6	794.9	150.3	3.405	1.616	1.337	1.439	1.234	1.099	1.176	0.983	0.879	0.834	0.869	0.799	0.765	0.741	0.618	0.699	0.734	0.648	0.754
505.0	23.59	56.06	106.1	133.8	211.0	835.4	 1138	341.5	240.6	220.6	196.5	176.2	148.8	133.5	117.8	105.4	94.75	88.65	84.27	80.87	76.66	76.01	73.15	72.59	74.34	72.86	74.72	74.91	74.18	73.81	69.77	64.14	56.84	49.82	42.96	37.65	32.93	28.21	25.21	21.37	19.48	20.65	21.51	14.86	9.815	8.101	6.631	5.443	4.700	3.854	3.285	3.115	4.506	7.946	20.47	118.8	589.4	685.4	26.32	1.925	1.337	1.181	1.132	1.068	1.015	0.872	0.821	0.724	0.831	0.692	0.669	0.675	0.601	0.627	0.624	0.733	0.555
510.0	23.97	45.24	100.2	128.4	161.4	364.3	960.0	750.2	235.6	195.0	174.9	154.7	131.3	115.6	102.2	90.26	83.38	77.51	73.34	69.97	65.70	65.08	62.41	63.02	63.23	63.42	63.55	64.47	64.67	64.10	61.33	55.48	49.45	44.14	38.17	33.87	29.06	25.54	22.86	19.92	17.59	16.81	17.72	16.97	11.70	7.980	6.575	5.529	4.619	3.856	3.541	2.941	2.894	3.509	6.119	28.07	153.1	444.2	541.5	116.9	7.531	1.171	0.989	0.989	0.873	0.814	0.663	0.676	0.626	0.649	0.606	0.552	0.566	0.473	0.513	0.605	0.482
515.0	19.62	33.16	79.31	128.2	136.7	200.2	458.6	 1039	407.3	166.3	151.3	133.5	113.3	99.46	87.34	78.23	69.51	65.61	62.64	60.15	55.45	54.76	54.21	52.89	52.92	54.14	54.38	54.40	55.70	53.78	51.43	47.90	42.36	37.77	33.66	29.69	25.89	23.04	20.42	17.66	15.66	14.53	13.61	14.66	14.13	9.216	6.587	5.438	4.551	3.981	3.402	3.081	2.491	2.448	2.904	7.600	35.52	101.5	246.3	597.6	182.3	6.232	1.074	0.850	0.819	0.653	0.681	0.557	0.542	0.625	0.502	0.586	0.504	0.416	0.425	0.506	0.507
520.0	19.52	32.71	61.76	120.4	131.4	147.4	231.8	865.5	739.7	164.7	132.9	117.5	104.0	89.22	78.08	68.49	62.44	58.22	55.65	53.11	49.85	48.89	47.74	46.85	46.77	48.80	48.54	48.75	48.53	48.25	46.62	42.33	38.73	34.36	29.70	26.28	23.50	20.75	18.77	16.60	14.36	12.97	11.43	11.59	13.45	11.14	6.946	5.461	4.858	3.705	3.422	3.026	2.566	2.255	2.118	3.078	9.239	23.94	59.76	330.3	588.0	29.07	2.221	0.844	0.719	0.644	0.573	0.581	0.517	0.420	0.554	0.487	0.440	0.383	0.373	0.403	0.387
525.0	15.51	28.02	53.97	100.4	122.1	121.6	153.7	507.1	992.7	243.6	123.2	105.8	94.73	77.92	68.81	60.33	55.51	53.30	49.25	47.22	45.57	43.78	43.07	42.93	42.41	43.30	43.85	43.12	43.11	43.30	41.53	38.13	34.85	30.68	27.15	23.95	21.52	18.80	17.21	15.11	13.46	11.55	10.46	10.03	11.20	11.90	7.906	5.192	4.322	3.590	3.138	2.812	2.602	2.263	2.026	2.037	3.307	6.553	14.62	85.36	410.7	470.1	25.10	1.276	0.678	0.582	0.633	0.562	0.446	0.392	0.523	0.359	0.314	0.364	0.364	0.385	0.371
530.0	14.85	26.95	44.45	77.10	113.4	111.2	120.2	224.9	756.2	641.6	142.2	93.50	81.99	67.80	59.65	54.16	48.68	46.31	42.70	40.20	39.20	37.69	36.36	36.73	36.43	35.94	36.84	37.27	37.58	36.95	35.48	32.91	30.12	26.54	23.68	20.66	18.78	16.44	15.16	13.58	11.85	10.51	9.278	8.406	8.591	9.760	9.099	6.266	4.312	3.454	2.994	2.796	2.402	2.175	1.986	1.885	2.026	2.578	4.476	20.13	105.0	305.1	309.6	109.9	6.353	0.579	0.569	0.419	0.451	0.410	0.426	0.368	0.323	0.272	0.333	0.361	0.344
535.0	12.23	25.01	38.68	59.31	93.34	110.2	100.8	127.4	325.4	829.7	389.3	78.09	67.63	58.65	51.59	46.62	41.72	38.68	36.09	34.61	33.13	32.16	30.72	31.44	30.53	30.96	30.99	31.16	31.40	30.81	29.53	27.44	25.45	22.97	20.71	17.76	16.08	14.51	12.98	12.01	10.52	9.495	8.367	7.493	6.744	6.708	8.287	7.590	5.037	3.362	2.815	2.401	2.173	1.929	1.981	1.874	1.694	1.612	2.054	5.500	24.45	69.34	149.2	426.9	163.9	4.916	0.512	0.430	0.409	0.313	0.368	0.286	0.293	0.282	0.317	0.278	0.289
540.0	12.68	19.76	30.68	47.23	72.69	104.2	91.59	97.44	150.0	624.0	730.3	95.20	60.33	52.26	45.86	40.18	37.62	34.13	31.75	30.89	29.30	28.38	26.59	27.07	26.94	26.34	26.97	27.65	27.75	27.30	26.26	24.26	22.52	19.97	18.31	15.81	14.46	13.10	11.89	10.71	9.353	8.679	7.457	6.828	6.265	5.648	6.310	7.811	5.865	3.502	2.662	2.435	2.201	1.781	1.958	1.795	1.523	1.342	1.544	2.101	6.343	16.24	36.12	223.4	422.5	29.39	1.736	0.490	0.367	0.386	0.338	0.313	0.237	0.228	0.204	0.296	0.266
545.0	10.94	16.31	27.00	47.72	61.65	94.36	88.63	83.28	97.05	329.9	874.2	184.3	55.32	47.84	40.92	36.66	33.62	30.38	28.55	26.70	26.36	24.68	24.22	23.67	23.72	23.62	23.99	24.44	24.94	24.62	23.39	22.13	19.93	18.17	15.95	14.58	13.35	11.64	10.74	9.416	8.632	8.002	7.031	6.343	5.682	4.876	4.913	6.272	6.355	4.231	2.777	2.296	2.004	1.779	1.851	1.704	1.603	1.358	1.314	1.375	2.226	4.371	8.805	56.68	279.0	344.5	24.55	0.845	0.340	0.337	0.273	0.346	0.223	0.175	0.233	0.187	0.240
550.0	10.98	15.48	25.85	38.27	49.00	71.37	82.86	73.36	76.81	137.5	564.4	557.0	86.72	41.08	35.61	30.41	28.15	25.39	23.93	22.76	22.27	21.46	20.36	20.19	19.97	19.70	20.29	20.93	20.24	20.71	20.32	18.74	17.26	15.50	13.65	12.52	11.47	9.975	9.105	8.311	7.609	6.762	6.099	5.460	4.896	4.405	4.092	4.357	5.434	4.777	3.288	2.269	1.856	1.625	1.622	1.472	1.434	1.428	1.172	1.180	1.250	1.613	2.698	13.34	70.21	209.4	245.4	101.4	5.368	0.393	0.341	0.251	0.165	0.169	0.245	0.138	0.141
555.0	7.774	11.02	21.89	28.52	39.14	50.45	72.35	71.85	63.16	76.36	209.3	596.5	316.9	34.90	30.04	25.08	23.36	21.08	19.61	19.02	18.40	18.39	17.14	16.98	16.54	16.63	16.90	17.07	16.64	17.26	16.07	15.33	14.40	13.00	11.72	10.32	9.254	8.532	7.723	6.964	6.564	5.642	5.027	4.743	4.327	3.888	3.514	3.174	3.670	4.495	4.235	2.510	1.712	1.583	1.338	1.291	1.259	1.163	1.144	1.054	0.888	1.113	1.233	3.567	16.24	47.50	103.0	295.7	134.9	3.972	0.399	0.310	0.106	0.236	0.207	0.165	0.171
560.0	7.084	13.56	18.08	26.31	31.57	40.80	58.14	66.93	53.98	57.11	85.20	396.8	538.3	62.21	25.67	21.95	19.79	18.17	16.47	15.99	15.34	15.34	14.79	14.02	13.69	13.52	14.03	14.53	14.06	13.73	13.83	13.08	11.89	11.05	9.947	8.866	8.257	7.376	6.945	5.937	5.437	5.116	4.352	4.222	3.732	3.377	2.946	2.691	2.754	3.376	4.163	2.859	1.731	1.284	1.264	1.250	1.209	1.127	1.160	1.178	0.917	0.911	0.891	1.398	4.225	11.33	24.48	143.2	290.8	29.27	1.455	0.288	0.133	0.207	0.172	0.173	0.150
565.0	7.937	9.718	15.71	24.14	28.51	32.68	45.67	61.78	51.21	46.19	50.24	192.5	563.9	138.7	22.03	18.60	16.99	15.27	14.63	13.02	13.32	12.47	12.48	11.99	11.73	12.08	11.92	12.29	12.02	11.88	11.81	11.73	10.49	9.288	8.661	7.718	6.851	6.355	5.711	5.303	4.513	4.338	3.741	3.633	3.174	2.791	2.604	2.330	2.311	2.553	3.258	2.937	1.906	1.291	1.127	1.076	1.062	0.918	1.105	1.267	0.993	0.849	0.884	0.956	1.698	3.204	6.130	35.68	175.3	226.9	23.02	0.569	0.257	0.134	0.172	0.109	0.140
570.0	8.789	6.919	13.04	18.64	22.06	25.63	33.47	49.06	51.82	38.92	38.17	71.40	321.0	424.7	61.12	15.20	13.89	12.25	11.83	10.69	10.28	10.10	9.337	9.667	9.869	9.600	9.353	9.622	9.577	9.388	9.400	8.797	8.479	7.635	6.794	6.086	5.542	5.122	4.527	4.105	3.827	3.416	3.075	2.903	2.596	2.415	2.219	1.933	1.787	1.806	2.066	2.434	2.219	1.415	1.025	1.010	0.992	0.926	0.880	0.986	1.066	0.890	0.790	0.834	1.031	1.387	2.043	8.624	43.26	127.7	167.3	68.01	3.433	0.195	0.116	0.125	0.073
575.0	1.937	5.808	11.74	14.22	18.21	20.97	24.87	34.79	45.79	36.42	29.75	35.37	106.9	370.1	267.8	13.78	10.47	9.076	8.606	8.466	8.037	7.612	7.362	7.630	7.683	7.328	6.931	7.096	7.724	7.209	6.937	6.657	6.070	5.881	4.994	4.526	4.226	3.982	3.435	3.102	2.873	2.652	2.381	2.209	2.090	1.755	1.722	1.606	1.399	1.285	1.290	1.552	1.920	1.723	1.091	0.977	0.848	0.793	0.712	0.799	0.854	0.848	0.802	0.843	0.823	0.823	0.978	2.444	10.25	29.14	61.45	165.4	30.76	2.489	0.119	0.056	0.086
580.0	4.300	6.372	10.21	12.84	15.07	17.55	18.85	24.22	37.51	36.31	27.47	24.90	39.07	217.8	410.5	48.30	8.567	8.039	7.250	7.099	6.465	6.249	6.375	6.085	5.784	5.936	5.943	5.832	6.173	5.835	5.596	5.512	5.120	4.850	4.096	3.772	3.254	3.245	2.863	2.532	2.450	2.298	2.040	2.016	1.619	1.535	1.402	1.325	1.177	1.005	1.014	1.012	1.370	1.615	1.221	0.810	0.705	0.662	0.611	0.599	0.719	0.790	0.846	0.737	0.676	0.631	0.701	1.085	2.740	7.015	14.38	75.87	149.6	26.35	0.780	0.111	0.028
585.0	3.942	8.766	9.108	10.77	13.11	15.77	17.74	19.36	30.64	39.97	25.55	22.10	22.79	94.76	364.7	176.0	7.839	7.179	6.227	5.869	5.408	5.419	5.132	5.292	4.856	4.920	5.044	4.999	4.781	5.065	4.866	4.690	4.070	3.881	3.399	3.106	2.770	2.602	2.341	2.086	1.991	1.868	1.577	1.547	1.439	1.201	1.141	1.130	1.018	0.850	0.847	0.775	0.945	1.405	1.216	0.854	0.575	0.656	0.510	0.476	0.583	0.572	0.630	0.659	0.507	0.496	0.495	0.599	0.917	1.873	3.486	18.43	90.32	124.6	19.01	0.287	0.065
590.0	5.724	7.347	6.788	10.22	11.77	14.56	14.83	18.01	23.32	33.01	29.24	19.99	16.88	32.15	177.0	321.3	45.99	5.881	4.862	4.657	4.465	4.190	4.047	3.669	4.001	3.937	3.760	3.866	3.995	3.911	3.714	3.557	3.344	2.960	2.712	2.490	2.159	2.024	1.954	1.653	1.557	1.444	1.340	1.203	1.141	0.991	0.919	0.849	0.834	0.726	0.665	0.592	0.642	0.881	1.158	1.058	0.640	0.504	0.426	0.449	0.477	0.401	0.426	0.514	0.445	0.437	0.451	0.449	0.479	0.705	0.984	4.315	22.02	65.99	92.47	39.29	2.069
595.0	3.818	4.453	7.773	8.053	10.30	12.52	14.47	17.04	18.55	26.89	32.58	21.34	14.76	16.20	54.03	231.2	225.0	7.874	3.727	3.640	3.353	3.024	3.263	3.140	2.966	2.985	3.126	3.030	3.076	2.933	2.880	2.894	2.528	2.253	2.175	2.000	1.918	1.584	1.541	1.466	1.392	1.252	1.044	0.888	0.826	0.837	0.808	0.692	0.744	0.568	0.546	0.479	0.421	0.531	0.701	0.974	0.861	0.532	0.347	0.341	0.388	0.377	0.325	0.399	0.399	0.369	0.362	0.338	0.373	0.300	0.403	1.070	5.028	14.81	33.25	90.07	29.77
600.0	1.691	5.551	7.173	8.218	9.013	11.76	14.44	16.66	18.17	23.86	33.24	25.52	15.17	12.94	19.67	116.7	311.8	49.50	3.194	3.153	3.002	2.786	2.915	2.693	2.497	2.526	2.615	2.608	2.590	2.616	2.512	2.360	2.199	1.889	1.799	1.617	1.515	1.391	1.270	1.229	1.171	0.996	0.913	0.783	0.732	0.726	0.652	0.589	0.538	0.479	0.388	0.406	0.397	0.353	0.523	0.724	0.850	0.616	0.334	0.319	0.283	0.302	0.325	0.227	0.351	0.343	0.306	0.255	0.222	0.152	0.287	0.360	1.202	3.377	7.755	40.05	84.78
605.0	1.610	2.599	8.435	7.631	9.760	12.35	13.69	17.04	19.24	22.39	30.22	29.58	17.26	14.20	12.85	46.39	253.9	184.7	3.557	2.695	2.468	2.184	2.253	2.407	2.237	2.345	2.026	2.007	2.106	2.248	2.039	1.933	1.787	1.808	1.474	1.358	1.295	1.164	1.029	0.911	0.936	0.967	0.704	0.684	0.627	0.551	0.505	0.452	0.439	0.392	0.333	0.315	0.348	0.309	0.400	0.472	0.819	0.586	0.386	0.316	0.239	0.305	0.201	0.208	0.270	0.248	0.453	0.306	0.267	0.169	0.122	0.162	0.305	0.838	1.809	9.738	48.15
610.0	4.239	5.279	6.663	8.228	8.243	12.03	14.14	17.05	20.43	22.00	28.48	33.95	22.42	14.83	11.91	17.86	112.2	306.1	40.56	2.352	2.134	2.001	1.883	1.930	1.848	1.751	1.774	1.778	1.683	1.822	1.777	1.756	1.651	1.599	1.330	1.214	1.145	0.927	0.864	0.801	0.755	0.710	0.558	0.577	0.570	0.489	0.443	0.422	0.375	0.351	0.292	0.273	0.254	0.253	0.260	0.320	0.490	0.640	0.494	0.347	0.230	0.240	0.219	0.205	0.251	0.270	0.364	0.298	0.246	0.223	0.136	0.181	0.138	0.244	0.506	2.260	11.66
615.0	-1.517	4.532	5.089	7.772	8.165	11.09	13.41	16.25	19.77	21.66	25.07	29.03	26.43	15.00	11.36	10.51	33.71	193.8	193.1	5.641	1.738	1.444	1.599	1.518	1.491	1.470	1.461	1.273	1.250	1.429	1.365	1.319	1.326	1.280	0.937	1.020	0.873	0.754	0.643	0.605	0.530	0.555	0.420	0.433	0.455	0.373	0.396	0.333	0.236	0.293	0.259	0.210	0.134	0.259	0.168	0.239	0.330	0.407	0.493	0.367	0.311	0.204	0.227	0.172	0.249	0.159	0.231	0.337	0.263	0.235	0.188	0.128	0.104	0.130	0.205	0.557	2.640
620.0	-0.419	4.513	7.224	7.063	8.766	11.02	13.42	17.06	19.18	21.79	22.56	25.45	27.75	16.72	11.08	8.690	13.42	86.75	250.9	42.41	1.631	1.402	1.307	1.306	1.219	1.180	1.307	1.144	1.222	1.172	1.076	1.032	0.965	0.955	0.775	0.824	0.855	0.677	0.595	0.508	0.435	0.413	0.456	0.364	0.321	0.271	0.317	0.218	0.274	0.237	0.175	0.191	0.171	0.199	0.142	0.166	0.188	0.261	0.421	0.381	0.373	0.289	0.164	0.178	0.172	0.178	0.201	0.196	0.212	0.275	0.129	0.091	0.110	0.122	0.111	0.137	0.637
625.0	2.256	4.711	5.479	5.946	8.741	9.946	12.66	15.34	17.24	19.34	20.38	22.72	26.96	18.75	11.34	8.653	8.642	31.31	182.5	142.9	2.073	1.399	1.132	1.135	1.107	0.931	1.020	1.018	1.035	1.056	0.967	0.764	0.829	0.758	0.795	0.665	0.728	0.514	0.422	0.447	0.414	0.335	0.366	0.234	0.380	0.224	0.313	0.262	0.199	0.197	0.153	0.199	0.138	0.169	0.209	0.174	0.145	0.129	0.376	0.354	0.350	0.235	0.227	0.146	0.169	0.145	0.189	0.205	0.171	0.252	0.121	0.127	0.053	0.078	0.087	0.108	0.184
630.0	1.527	3.602	4.930	6.944	8.862	10.92	11.81	13.92	17.65	19.56	20.56	20.52	22.61	21.69	12.33	8.833	7.592	11.62	71.68	206.0	35.72	1.105	0.926	0.865	0.907	0.876	0.782	0.814	0.873	0.883	0.780	0.685	0.771	0.652	0.646	0.570	0.440	0.483	0.394	0.398	0.396	0.297	0.310	0.242	0.281	0.221	0.192	0.226	0.155	0.170	0.166	0.117	0.128	0.139	0.114	0.131	0.174	0.135	0.264	0.300	0.354	0.296	0.205	0.167	0.124	0.117	0.216	0.171	0.134	0.172	0.144	0.153	0.086	0.054	0.045	0.076	0.154
635.0	-1.030	1.360	5.705	7.625	8.356	10.22	13.14	13.66	17.14	20.98	20.38	19.86	19.34	21.19	15.48	8.947	7.525	6.648	19.62	113.2	169.0	4.262	0.927	0.798	0.772	0.816	0.717	0.798	0.720	0.685	0.631	0.626	0.621	0.624	0.407	0.418	0.380	0.373	0.420	0.292	0.234	0.244	0.231	0.196	0.202	0.179	0.152	0.189	0.168	0.152	0.108	0.127	0.086	0.109	0.056	0.122	0.135	0.145	0.136	0.255	0.271	0.252	0.221	0.169	0.160	0.069	0.220	0.121	0.086	0.108	0.093	0.159	0.101	0.092	0.041	0.077	0.089
640.0	1.984	2.128	7.167	7.159	7.436	8.790	11.19	14.38	16.97	18.03	19.90	19.23	17.47	19.44	18.52	10.08	8.248	5.558	6.870	45.15	206.9	37.14	0.910	0.757	0.660	0.771	0.668	0.602	0.699	0.615	0.518	0.578	0.425	0.508	0.373	0.375	0.319	0.257	0.276	0.213	0.152	0.197	0.227	0.135	0.186	0.109	0.138	0.150	0.137	0.057	0.102	0.119	0.087	0.090	0.059	0.095	0.164	0.148	0.139	0.125	0.160	0.285	0.223	0.228	0.146	0.123	0.107	0.099	0.080	0.137	0.063	0.211	0.129	0.126	0.038	0.058	0.078
645.0	4.616	5.787	7.261	8.850	7.248	9.870	10.33	13.65	15.35	17.46	17.88	19.72	18.32	16.92	18.87	11.13	7.645	5.464	3.895	14.55	141.8	125.2	1.639	0.696	0.733	0.547	0.705	0.457	0.642	0.495	0.449	0.554	0.390	0.487	0.429	0.244	0.332	0.258	0.288	0.204	0.229	0.220	0.224	0.208	0.117	0.068	0.097	0.192	0.139	0.087	0.123	0.174	0.096	0.093	0.068	0.090	0.119	0.130	0.092	0.081	0.130	0.231	0.157	0.163	0.122	0.142	0.067	0.026	0.073	0.106	0.076	0.107	0.094	0.129	0.051	0.076	0.072
650.0	3.526	5.376	9.104	10.32	7.951	9.640	10.41	11.23	15.53	16.48	18.31	18.99	17.75	16.31	18.19	13.08	7.641	5.071	3.391	5.421	63.64	189.9	15.53	0.784	0.622	0.482	0.532	0.421	0.515	0.566	0.478	0.384	0.476	0.475	0.265	0.214	0.288	0.219	0.261	0.189	0.179	0.210	0.231	0.163	0.097	0.092	0.113	0.201	0.101	0.133	0.137	0.145	0.095	0.091	0.032	0.050	0.086	0.073	0.060	0.075	0.121	0.181	0.218	0.169	0.106	0.153	0.123	0.132	0.092	0.034	0.053	0.060	0.093	0.132	0.109	0.031	0.028
