Sample:	'1
File name:	t2025022501金星科技1号车间未知出水  15倍.FD3
Run date:	'10:09:09, 02/26/2025
Operator:	Administrator
Comment:	'

Instrument
Model:	F-2700 FL Spectrophotometer
Serial number:	23B8-004
ROM Version:	4J14000 07

Instrument parameters
Measurement type:	3-D scan
Data mode:	Fluorescence
EX  Start WL:	220.0 nm
EX  End WL:	600.0 nm
EX Sampling interval:	5.0 nm
EM  Start WL:	230.0 nm
EM  End WL:	650.0 nm
EM Sampling interval:	5.0 nm
Scan speed:	12000 nm/min
EX Slit:	5.0 nm
EM Slit:	5.0 nm
PMT Voltage:	700 V
Response:	Auto 
Corrected spectra:	Off
Contour interval:	50.000

Peak integration
Integration method:	Rectangular
Sensitivity:	1
Threshold:	1.000

Peaks
No.	ApexEX/EM(nm)	Height(Data)
1	230.0/585.0	33.13
2	240.0/265.0	111.3
3	245.0/270.0	121.9
4	250.0/275.0	185.6
5	250.0/545.0	81.71
6	255.0/285.0	290.6
7	255.0/560.0	72.68
8	260.0/575.0	71.25
9	265.0/295.0	570.2
10	265.0/585.0	73.32
11	270.0/300.0	748.4
12	270.0/360.0	4344
13	270.0/600.0	72.36
14	275.0/610.0	55.57
15	415.0/485.0	34.28
16	425.0/500.0	23.23
17	430.0/505.0	20.75
18	440.0/520.0	14.73
19	445.0/340.0	6.429
20	445.0/525.0	12.18
21	455.0/540.0	8.535
22	470.0/560.0	4.191
23	550.0/350.0	18.64

Data points
	220.0	225.0	230.0	235.0	240.0	245.0	250.0	255.0	260.0	265.0	270.0	275.0	280.0	285.0	290.0	295.0	300.0	305.0	310.0	315.0	320.0	325.0	330.0	335.0	340.0	345.0	350.0	355.0	360.0	365.0	370.0	375.0	380.0	385.0	390.0	395.0	400.0	405.0	410.0	415.0	420.0	425.0	430.0	435.0	440.0	445.0	450.0	455.0	460.0	465.0	470.0	475.0	480.0	485.0	490.0	495.0	500.0	505.0	510.0	515.0	520.0	525.0	530.0	535.0	540.0	545.0	550.0	555.0	560.0	565.0	570.0	575.0	580.0	585.0	590.0	595.0	600.0
230.0	13.43	230.9	563.8	166.5	7.263	2.222	2.516	2.217	2.084	2.150	2.397	2.206	2.049	1.857	1.693	1.542	1.294	1.196	1.137	1.120	0.871	0.755	0.818	0.640	0.545	0.467	0.466	0.389	0.378	0.373	0.257	0.227	0.205	0.195	0.170	0.182	0.186	0.166	0.150	0.117	0.132	0.156	0.142	0.135	0.122	0.120	0.323	1.136	1.786	1.115	0.410	0.136	0.095	0.077	0.096	0.080	0.096	0.086	0.082	0.091	0.102	0.092	0.093	0.087	0.080	0.087	0.072	0.085	0.087	0.090	0.091	0.091	0.084	0.080	0.096	0.079	0.100
235.0	30.29	68.97	372.3	646.9	195.9	7.493	2.833	2.299	2.380	2.074	2.194	2.043	1.845	1.999	1.707	1.544	1.432	1.421	1.407	1.079	0.991	0.821	0.829	0.675	0.565	0.395	0.391	0.448	0.325	0.483	0.294	0.202	0.215	0.194	0.193	0.154	0.216	0.213	0.118	0.158	0.129	0.153	0.168	0.154	0.136	0.139	0.139	0.443	0.726	1.257	1.831	1.886	0.663	0.215	0.121	0.063	0.106	0.086	0.095	0.081	0.124	0.085	0.086	0.075	0.087	0.088	0.097	0.090	0.116	0.086	0.077	0.084	0.122	0.100	0.103	0.100	0.104
240.0	43.25	36.64	120.5	628.3	604.9	127.2	4.737	2.803	1.868	2.557	2.395	2.472	1.928	1.731	1.831	1.654	1.351	1.274	1.297	1.081	0.992	0.724	0.848	0.596	0.544	0.526	0.452	0.486	0.380	0.398	0.273	0.205	0.183	0.255	0.167	0.139	0.190	0.203	0.137	0.174	0.129	0.163	0.136	0.160	0.199	0.158	0.147	0.231	0.246	0.446	1.145	2.637	2.782	1.766	0.616	0.108	0.121	0.075	0.105	0.088	0.123	0.086	0.110	0.093	0.100	0.100	0.094	0.111	0.101	0.093	0.095	0.081	0.096	0.073	0.091	0.094	0.116
245.0	36.59	56.68	44.76	230.1	957.9	481.0	79.79	3.767	2.903	3.014	2.539	2.800	2.110	1.977	1.493	1.717	1.467	1.559	1.153	1.171	0.975	0.868	0.856	0.645	0.532	0.511	0.570	0.464	0.369	0.417	0.286	0.185	0.173	0.195	0.173	0.171	0.203	0.206	0.171	0.172	0.162	0.193	0.110	0.117	0.162	0.160	0.157	0.239	0.121	0.163	0.364	0.999	2.338	4.227	3.053	1.427	0.293	0.084	0.126	0.093	0.120	0.100	0.069	0.080	0.078	0.070	0.086	0.095	0.105	0.097	0.106	0.088	0.116	0.072	0.093	0.110	0.093
250.0	18.00	43.25	58.49	79.52	333.7	751.4	751.7	170.5	11.89	3.207	3.429	2.738	2.324	2.217	1.782	1.638	1.508	1.420	1.212	1.174	1.157	0.950	0.850	0.691	0.678	0.526	0.558	0.507	0.393	0.399	0.240	0.219	0.166	0.197	0.171	0.148	0.181	0.181	0.142	0.119	0.158	0.181	0.136	0.148	0.126	0.128	0.128	0.239	0.220	0.240	0.221	0.326	0.649	1.543	2.383	3.382	3.896	3.167	1.472	0.402	0.158	0.091	0.098	0.119	0.094	0.097	0.087	0.079	0.097	0.100	0.090	0.082	0.116	0.089	0.101	0.089	0.103
255.0	16.62	17.29	43.97	89.96	100.1	206.1	789.3	1399	213.0	9.587	3.948	2.842	2.913	2.213	1.888	1.958	1.505	1.571	1.234	1.137	1.227	0.943	0.799	0.666	0.745	0.565	0.565	0.542	0.408	0.423	0.240	0.187	0.241	0.201	0.222	0.134	0.170	0.166	0.114	0.165	0.187	0.184	0.148	0.148	0.156	0.125	0.127	0.187	0.189	0.331	0.364	0.405	0.300	0.431	0.641	0.911	1.820	4.299	7.111	6.791	6.757	0.468	0.135	0.123	0.094	0.096	0.087	0.092	0.088	0.107	0.124	0.091	0.105	0.084	0.093	0.085	0.086
260.0	17.23	11.57	21.87	81.98	91.02	60.61	262.4	1398	1281	152.6	6.132	3.501	3.327	2.236	2.260	2.154	1.619	1.527	1.524	1.409	1.190	0.939	1.074	0.870	0.704	0.571	0.493	0.492	0.335	0.441	0.248	0.191	0.251	0.188	0.210	0.117	0.183	0.176	0.149	0.132	0.127	0.163	0.199	0.140	0.142	0.146	0.135	0.171	0.139	0.139	0.306	0.552	0.515	0.309	0.258	0.264	0.527	1.319	3.746	8.393	24.48	5.542	1.940	0.278	0.088	0.151	0.126	0.101	0.089	0.118	0.086	0.096	0.097	0.105	0.113	0.095	0.110
265.0	18.23	10.83	12.63	42.50	111.3	66.11	73.77	523.5	1643	1185	96.03	4.752	3.233	2.689	2.404	2.186	1.578	1.443	1.384	1.246	1.093	0.973	0.772	0.916	0.651	0.712	0.616	0.567	0.327	0.417	0.346	0.274	0.212	0.150	0.180	0.144	0.212	0.199	0.149	0.133	0.109	0.163	0.213	0.157	0.152	0.135	0.131	0.164	0.147	0.106	0.193	0.333	0.577	0.528	0.439	0.183	0.255	0.426	0.994	2.758	15.33	9.707	10.38	4.666	0.856	0.136	0.118	0.121	0.116	0.114	0.113	0.113	0.080	0.109	0.091	0.097	0.108
270.0	43.85	21.53	13.93	18.72	61.01	121.9	91.72	148.5	591.5	1476	1555	113.7	9.182	3.495	3.101	2.590	1.934	1.696	1.507	1.448	1.258	0.997	0.852	0.844	0.704	0.753	0.552	0.556	0.417	0.465	0.344	0.288	0.248	0.240	0.219	0.199	0.224	0.216	0.184	0.175	0.187	0.250	0.227	0.229	0.211	0.175	0.139	0.178	0.168	0.135	0.127	0.195	0.259	0.375	0.556	0.647	0.528	0.352	0.393	0.803	3.870	3.194	6.074	7.783	8.690	7.132	3.469	0.991	0.177	0.113	0.137	0.121	0.091	0.108	0.092	0.083	0.105
275.0	108.8	49.32	24.00	18.48	29.31	74.06	185.6	146.5	199.8	440.2	1435	1996	141.3	8.506	3.237	3.065	2.280	1.768	1.768	1.432	1.290	1.156	1.115	0.930	0.821	0.643	0.647	0.532	0.508	0.363	0.320	0.360	0.375	0.290	0.224	0.282	0.297	0.291	0.196	0.246	0.344	0.396	0.299	0.371	0.363	0.220	0.213	0.232	0.182	0.126	0.168	0.160	0.180	0.242	0.281	0.440	0.921	1.096	0.713	0.606	1.265	1.034	1.676	2.117	3.136	6.273	11.40	11.23	4.930	0.817	0.114	0.138	0.119	0.127	0.120	0.108	0.155
280.0	157.5	89.70	44.69	29.22	30.44	52.77	156.3	263.5	172.3	205.3	517.9	1862	1217	104.2	5.020	3.366	2.634	1.882	1.943	1.640	1.355	1.246	1.150	0.850	0.914	0.711	0.642	0.599	0.475	0.429	0.356	0.321	0.349	0.268	0.345	0.355	0.348	0.369	0.319	0.408	0.425	0.564	0.453	0.473	0.507	0.370	0.263	0.247	0.195	0.170	0.172	0.200	0.198	0.234	0.269	0.331	0.545	0.944	1.374	1.236	0.965	0.770	0.888	1.004	1.163	2.048	4.794	10.26	13.00	9.767	3.800	0.413	0.110	0.119	0.132	0.117	0.112
285.0	233.6	121.9	76.67	52.15	45.91	58.68	111.4	290.6	286.5	208.8	257.2	718.5	2011	1012	59.15	4.792	3.146	2.271	2.026	1.716	1.506	1.401	1.283	0.954	0.940	0.846	0.732	0.667	0.506	0.485	0.449	0.338	0.365	0.306	0.400	0.368	0.347	0.305	0.413	0.471	0.574	0.633	0.600	0.685	0.622	0.481	0.370	0.381	0.311	0.236	0.197	0.230	0.249	0.297	0.290	0.423	0.413	0.656	1.094	1.588	1.800	1.233	0.881	0.937	0.974	1.105	1.630	3.142	6.644	11.49	14.53	7.556	2.231	0.219	0.109	0.125	0.121
290.0	308.8	191.3	145.6	103.9	77.60	82.06	119.5	223.4	394.9	396.5	301.6	341.2	744.0	1804	1405	280.5	8.022	2.945	2.644	2.158	1.722	1.399	1.286	1.131	0.960	0.845	0.843	0.713	0.480	0.532	0.373	0.371	0.359	0.396	0.484	0.404	0.411	0.449	0.381	0.538	0.601	0.673	0.713	0.757	0.752	0.643	0.518	0.551	0.477	0.411	0.359	0.435	0.321	0.358	0.366	0.415	0.535	0.594	0.845	1.141	1.609	2.071	2.155	1.875	1.441	1.268	1.217	1.552	2.176	3.544	6.428	9.306	12.77	9.991	7.156	2.216	0.302
295.0	373.8	276.7	231.5	179.1	122.5	111.1	144.5	214.6	336.6	570.2	559.4	361.7	345.3	539.9	1377	2708	84.60	6.013	3.349	2.457	2.301	1.784	1.391	1.204	0.909	0.867	0.823	0.704	0.556	0.564	0.425	0.364	0.395	0.494	0.449	0.365	0.547	0.605	0.539	0.590	0.712	0.833	0.871	0.868	0.847	0.803	0.684	0.762	0.651	0.677	0.588	0.653	0.441	0.478	0.479	0.558	0.626	0.752	0.901	1.173	1.269	1.751	2.151	2.720	2.950	2.487	1.559	1.618	1.510	1.679	2.170	2.706	3.906	6.217	13.55	17.56	10.23
300.0	405.5	342.7	304.9	238.2	160.6	137.9	164.6	223.2	333.2	505.5	748.4	504.0	319.9	252.4	475.5	2573	2058	63.03	4.725	3.341	2.519	1.998	1.457	1.173	1.127	0.975	0.931	0.744	0.639	0.510	0.493	0.393	0.488	0.586	0.476	0.448	0.468	0.583	0.474	0.613	0.673	0.777	0.794	0.793	0.866	0.850	0.812	0.871	0.822	0.818	0.707	0.767	0.628	0.572	0.599	0.553	0.801	0.843	0.991	1.029	1.311	1.621	1.881	2.309	3.236	3.640	2.810	2.068	1.831	1.609	1.697	1.404	1.577	1.913	4.502	10.49	17.91
305.0	408.3	375.5	335.8	278.7	192.0	162.3	182.2	235.3	340.3	469.2	692.7	736.7	394.9	241.6	213.7	903.2	2542	628.5	49.87	4.566	2.856	2.384	1.767	1.480	1.273	1.080	0.949	0.749	0.652	0.574	0.454	0.411	0.437	0.416	0.652	0.475	0.437	0.587	0.552	0.641	0.645	0.672	0.793	0.788	0.960	0.863	0.879	1.105	0.925	0.913	0.756	0.969	0.846	0.684	0.715	0.745	0.864	0.942	0.998	1.086	1.271	1.633	1.982	2.199	2.579	3.192	3.358	3.415	2.552	1.824	1.568	1.364	1.296	1.276	1.540	3.097	6.750
310.0	479.4	480.3	405.6	336.7	255.4	212.3	222.7	265.4	356.2	480.8	610.1	743.0	671.1	381.0	240.1	324.2	852.5	1617	1707	255.4	10.16	3.151	2.198	1.712	1.349	1.112	0.922	0.871	0.737	0.697	0.467	0.468	0.406	0.495	0.525	0.481	0.463	0.607	0.549	0.634	0.627	0.736	0.826	0.856	0.991	1.169	1.114	1.215	1.135	1.050	0.983	1.158	1.050	0.959	0.866	0.907	1.058	1.090	1.131	1.268	1.515	1.689	1.927	2.211	2.427	2.730	2.910	3.461	3.648	3.493	2.666	2.033	1.663	1.421	1.297	1.547	2.198
315.0	957.2	852.4	561.7	455.8	357.5	337.2	348.5	371.5	505.5	668.1	805.9	874.8	926.5	821.9	503.1	345.0	354.1	497.4	1613	3232	338.1	8.913	3.160	2.196	1.847	1.563	1.092	1.028	0.963	0.813	0.555	0.497	0.454	0.588	0.486	0.530	0.419	0.585	0.766	0.664	0.806	1.043	1.339	1.426	2.107	2.386	1.826	1.792	1.473	1.321	1.311	1.433	1.455	1.340	1.273	1.209	1.482	1.526	1.558	1.704	2.072	2.300	2.688	3.092	3.599	3.616	3.605	3.864	4.218	4.334	4.741	4.627	3.436	2.981	2.467	2.070	1.887
320.0	1559	1367	748.3	563.5	496.5	498.6	532.4	605.8	762.8	966.3	1132	1206	1201	1177	903.7	547.2	376.2	311.0	576.4	2720	2587	57.55	5.700	3.056	2.118	1.815	1.306	1.428	1.040	0.964	0.680	0.511	0.521	0.457	0.631	0.616	0.547	0.550	0.840	0.799	1.010	1.360	1.668	2.087	2.884	3.751	2.958	2.612	1.961	1.517	1.490	1.807	1.791	1.831	1.829	1.865	2.173	2.381	2.561	2.703	3.245	3.373	4.172	4.310	4.831	5.168	5.138	5.268	5.735	5.759	5.663	6.338	6.130	5.460	4.309	3.568	2.921
325.0	2022	1729	945.1	693.7	651.3	702.5	776.2	895.8	1081	1311	1527	1596	1568	1426	1349	841.4	570.8	414.5	371.7	957.6	2994	2046	44.47	4.598	2.772	2.154	1.522	1.584	1.180	0.967	0.842	0.532	0.575	0.532	0.570	0.603	0.668	0.775	0.775	0.980	1.177	1.526	2.135	2.901	3.851	4.892	3.797	3.134	2.553	1.970	1.919	2.188	2.374	2.448	2.501	2.773	3.099	3.370	3.581	3.757	4.482	4.687	5.292	6.122	6.739	6.651	7.024	7.205	7.340	7.300	6.991	7.247	7.126	7.824	6.768	5.357	4.517
330.0	2267	2034	1188	1007	1027	1118	1218	1386	1635	1907	2171	2246	2175	1928	1810	1502	1044	770.7	547.7	497.3	1025	2326	1863	210.6	11.20	3.351	2.228	2.061	1.415	1.217	1.038	0.778	0.719	0.637	0.644	0.698	0.768	0.961	0.976	1.140	1.400	1.755	2.454	3.261	4.427	5.745	4.641	3.966	3.031	2.505	2.664	3.205	3.612	3.711	3.891	4.116	4.651	5.277	5.401	6.060	6.615	7.462	7.893	8.664	9.413	9.473	9.625	10.06	10.42	10.20	9.694	9.560	9.539	10.00	9.479	9.193	8.113
335.0	2456	2339	1526	1413	1511	1628	1791	2010	2348	2697	3024	3069	2943	2642	2420	2095	1797	1310	903.7	585.1	466.0	664.5	1934	2648	311.2	11.33	3.414	2.830	1.900	1.551	1.298	0.959	0.871	0.820	0.818	0.927	0.921	1.066	1.120	1.292	1.617	2.031	2.899	3.610	4.825	6.357	5.059	4.659	3.827	3.306	3.756	4.451	5.234	5.566	5.909	6.207	6.699	7.567	7.691	8.931	9.456	10.70	11.76	12.37	13.38	12.94	13.47	13.49	13.83	13.51	13.27	13.12	12.91	13.10	12.81	11.90	11.96
340.0	2417	2391	1785	1722	1869	2018	2226	2466	2835	3249	3627	3631	3452	3123	2864	2484	2195	1777	1208	747.7	431.1	315.2	609.9	2285	2278	52.52	6.877	3.691	2.391	2.027	1.505	0.995	0.925	0.901	0.823	0.809	1.013	1.150	1.195	1.334	1.639	2.038	2.882	3.575	4.766	6.429	5.438	5.090	4.412	3.925	4.454	5.578	6.063	7.054	7.103	7.530	8.212	9.500	9.531	10.46	11.61	12.72	13.83	14.38	15.48	15.38	15.83	15.90	16.04	16.14	15.01	15.40	15.34	15.03	15.44	14.31	14.21
345.0	2251	2335	1890	1930	2129	2318	2513	2805	3164	3630	3991	3950	3739	3429	3169	2794	2429	2105	1525	934.8	524.9	305.8	269.5	770.1	2477	2569	45.02	6.164	3.054	2.459	1.526	1.100	1.025	0.859	1.017	0.907	1.204	1.226	1.210	1.368	1.764	2.102	2.740	3.690	4.460	5.622	5.177	4.918	4.582	4.273	4.823	6.079	6.889	7.521	7.778	8.599	9.702	10.82	11.07	12.39	12.83	13.97	14.87	16.35	17.32	17.52	17.18	17.13	17.36	16.81	16.34	16.86	16.79	17.03	16.58	15.93	15.94
350.0	2062	2190	1990	2086	2310	2496	2728	3057	3439	3898	4227	4163	3916	3608	3379	3050	2699	2307	1856	1258	729.3	438.3	291.2	311.1	808.0	2593	2179	827.0	15.93	4.283	2.255	1.380	1.160	1.023	1.109	1.000	1.092	1.345	1.314	1.365	1.587	2.072	2.482	3.249	4.138	5.031	4.831	4.938	4.603	4.723	4.973	6.734	7.613	8.039	8.632	9.221	10.60	11.14	12.20	13.08	13.89	15.07	16.30	17.12	17.67	18.25	18.64	18.27	18.39	17.91	17.42	17.83	17.79	17.76	18.00	17.90	17.63
355.0	1816	2050	2018	2127	2378	2543	2810	3173	3584	4020	4321	4215	3956	3676	3474	3215	2905	2523	2057	1601	1053	665.8	449.3	327.1	340.4	707.6	1571	4136	334.7	18.56	4.289	1.820	1.372	1.195	1.103	1.014	1.105	1.372	1.272	1.519	1.610	2.012	2.276	2.874	3.724	4.647	4.670	4.854	4.845	4.821	4.851	6.997	7.758	8.231	8.793	9.616	10.61	11.68	12.36	13.30	14.70	15.15	16.33	17.35	18.36	18.67	18.38	18.37	18.45	18.19	17.63	17.62	18.25	18.39	18.44	18.41	18.24
360.0	1631	1901	1966	2112	2344	2545	2838	3197	3620	4060	4344	4202	3944	3683	3507	3295	3044	2694	2239	1783	1356	917.0	641.4	457.3	343.1	352.4	555.9	3047	2714	288.0	9.287	2.830	1.611	1.285	1.176	0.988	1.137	1.573	1.280	1.567	1.508	1.900	2.158	2.685	3.267	4.089	4.160	4.577	4.783	4.809	5.138	6.551	7.545	8.364	8.897	9.679	10.61	11.20	12.29	13.46	14.26	15.49	16.68	17.70	18.47	18.81	18.49	18.58	18.23	18.03	18.36	18.14	18.17	18.68	18.52	18.94	19.51
365.0	1551	1825	1915	2077	2283	2498	2810	3188	3619	4044	4317	4203	3937	3682	3518	3363	3152	2849	2412	1952	1577	1211	864.6	638.0	464.2	380.3	364.0	1036	2722	2637	45.47	4.959	2.269	1.785	1.403	1.229	1.312	1.558	1.236	1.366	1.608	1.854	2.129	2.627	3.194	3.758	3.994	4.452	4.977	4.763	4.946	6.580	7.347	8.180	8.660	9.272	10.41	11.27	12.35	13.42	14.20	15.29	16.71	17.41	17.96	18.45	18.46	18.52	17.65	18.18	17.99	17.54	17.87	18.58	18.70	18.59	19.46
370.0	1459	1682	1799	2004	2180	2409	2696	3092	3540	3979	4220	4099	3844	3594	3459	3334	3184	2938	2566	2137	1739	1453	1161	852.2	642.0	499.2	413.3	478.0	897.5	2370	2145	182.6	12.48	2.545	1.628	1.302	1.390	1.498	1.233	1.327	1.655	1.882	2.083	2.489	2.995	3.356	3.667	4.407	4.371	4.495	4.870	6.499	6.994	7.740	8.196	8.711	9.984	11.13	11.55	13.07	13.76	15.06	16.18	17.30	17.84	18.06	18.28	18.12	17.47	17.62	17.71	17.26	17.36	18.04	18.33	18.76	18.97
375.0	1274	1528	1696	1845	2036	2236	2539	2928	3379	3817	4048	3940	3684	3446	3317	3224	3117	2919	2628	2254	1872	1559	1347	1071	776.0	599.3	475.1	394.1	371.0	622.4	1357	1537	277.1	11.89	2.218	1.645	1.514	1.580	1.360	1.334	1.538	1.801	1.823	2.161	2.666	3.197	3.410	4.216	4.223	4.270	4.566	6.062	6.428	7.158	7.657	7.977	9.487	10.25	11.30	12.50	13.05	14.88	15.29	16.00	17.43	17.49	17.31	17.27	16.94	17.29	16.94	16.87	17.13	17.20	17.92	17.82	18.35
380.0	1193	1483	1631	1751	1926	2144	2436	2825	3272	3711	3926	3811	3566	3360	3216	3115	3056	2883	2636	2312	1944	1640	1418	1210	907.9	676.2	534.5	405.2	279.0	239.9	387.4	1046	1359	205.5	5.148	2.015	1.732	1.625	1.352	1.472	1.584	1.710	1.855	2.198	2.623	3.134	3.094	3.864	3.786	4.115	4.303	5.662	6.199	6.766	7.218	7.562	8.815	9.666	10.93	11.66	12.87	14.18	14.79	16.05	16.88	17.36	16.95	16.73	16.67	16.74	16.42	16.01	16.61	17.33	17.32	17.62	18.09
385.0	1113	1381	1555	1665	1835	2034	2325	2719	3172	3585	3817	3717	3479	3267	3119	3040	2982	2843	2628	2340	2019	1730	1476	1271	1050	773.9	597.5	448.6	292.9	176.5	152.6	317.4	1111	1226	36.00	3.359	2.138	1.987	1.336	1.405	1.544	1.749	1.893	2.134	2.573	2.735	2.861	3.747	3.725	3.923	4.050	5.352	5.960	6.429	6.661	7.230	8.532	9.312	9.851	11.25	12.56	13.02	14.49	15.85	16.27	16.94	17.21	16.78	16.91	16.69	16.80	16.76	16.37	16.73	16.89	16.70	17.56
390.0	1064	1323	1456	1581	1719	1891	2207	2588	3048	3452	3684	3615	3409	3186	3028	2940	2883	2768	2599	2365	2077	1822	1570	1332	1137	918.2	694.1	517.6	344.3	207.1	130.9	125.3	323.7	950.4	933.6	148.0	12.80	2.697	1.551	1.354	1.486	1.808	1.776	2.107	2.368	2.835	2.947	3.634	3.508	3.706	3.938	5.412	5.502	6.084	6.408	6.897	8.067	8.664	9.560	10.69	12.03	12.92	14.41	15.59	16.18	16.33	16.80	16.24	16.36	16.59	16.47	16.44	16.33	16.11	16.50	16.54	17.00
395.0	985.6	1257	1375	1488	1602	1768	2051	2434	2894	3319	3561	3508	3312	3108	2945	2849	2773	2681	2556	2359	2117	1879	1649	1404	1176	999.3	818.6	594.2	406.5	256.7	159.4	107.5	117.2	242.4	506.3	1060	268.2	16.28	2.032	1.683	1.612	1.647	1.740	1.977	2.172	2.767	2.945	3.315	3.420	3.508	3.781	4.783	5.084	5.795	5.952	6.527	7.452	8.115	9.371	10.19	11.81	12.84	13.84	14.70	15.73	16.29	16.09	16.56	16.29	16.63	16.21	15.73	15.88	16.06	15.99	16.02	16.97
400.0	977.0	1217	1323	1406	1496	1683	1954	2326	2789	3225	3464	3428	3230	3048	2881	2772	2700	2628	2511	2348	2132	1911	1695	1451	1213	1015	882.9	668.0	451.3	296.4	189.7	121.0	85.07	88.80	144.1	666.6	1753	236.0	5.517	1.857	1.571	1.649	1.797	2.023	2.065	2.596	2.811	3.134	3.218	3.468	3.473	4.650	4.866	5.406	5.573	6.022	7.103	7.543	8.589	9.795	10.99	12.34	13.26	14.57	15.31	16.16	15.89	16.08	15.95	16.09	15.76	15.77	15.54	15.65	15.95	15.78	16.48
405.0	915.8	1180	1314	1362	1451	1589	1842	2238	2702	3113	3372	3370	3179	2991	2805	2702	2626	2562	2464	2309	2130	1921	1714	1480	1247	1032	880.9	734.4	502.0	333.2	220.6	141.3	90.18	63.44	57.79	190.6	1205	1742	32.77	2.601	1.946	1.816	1.796	1.798	2.022	2.518	2.620	3.042	2.960	3.126	3.427	4.591	4.644	4.963	5.326	5.654	6.785	7.515	8.398	9.016	10.90	12.31	13.12	14.07	14.88	15.45	15.68	16.13	16.02	16.43	15.82	16.07	15.56	15.38	15.79	15.35	16.22
410.0	866.6	1096	1209	1280	1374	1481	1737	2116	2546	2952	3252	3255	3087	2906	2719	2598	2513	2462	2384	2253	2090	1902	1708	1492	1266	1050	875.3	740.8	582.4	391.7	261.6	173.3	112.6	71.50	46.79	62.56	315.6	1219	671.4	138.6	11.48	2.063	1.830	1.935	2.080	2.369	2.350	3.014	2.927	2.996	3.075	4.119	4.295	4.507	4.916	5.293	6.377	7.031	8.013	8.775	10.19	11.22	12.20	13.52	14.53	15.14	15.53	15.51	15.60	15.60	15.74	15.20	14.90	15.32	15.08	15.32	15.51
415.0	805.7	1011	1121	1195	1263	1366	1617	1970	2394	2774	3076	3088	2951	2795	2591	2459	2388	2331	2272	2153	2017	1849	1667	1472	1258	1054	879.1	722.1	594.0	467.5	307.8	202.7	134.2	85.04	53.22	39.20	85.91	287.1	330.8	775.6	235.6	10.39	1.976	1.950	1.979	2.193	2.322	2.731	2.836	2.754	2.935	3.716	4.066	4.380	4.624	4.936	5.677	6.579	7.429	8.381	9.324	10.46	12.04	13.17	13.69	14.06	14.99	15.03	14.66	15.03	15.07	15.04	14.69	14.59	14.54	14.33	14.88
420.0	746.1	948.3	1057	1140	1187	1296	1505	1846	2249	2637	2931	2962	2838	2669	2482	2351	2278	2220	2172	2072	1941	1790	1616	1438	1233	1039	865.6	711.7	578.2	485.7	348.6	222.8	147.2	95.66	60.52	38.25	37.28	75.89	87.78	458.9	1196	167.8	3.915	2.137	1.923	2.111	2.062	2.608	2.700	2.647	2.725	3.664	3.757	4.006	4.306	4.680	5.474	5.867	7.121	7.606	8.809	9.922	11.24	12.16	12.98	13.52	14.10	14.33	14.31	14.92	14.66	14.27	13.73	13.71	13.87	13.44	13.72
425.0	724.2	899.7	1009	1070	1119	1229	1410	1742	2116	2489	2783	2821	2710	2562	2373	2237	2154	2105	2071	1984	1865	1728	1563	1397	1199	1013	842.3	698.6	564.8	467.7	378.5	248.1	160.2	103.7	65.41	41.69	29.48	30.23	29.09	125.7	868.1	796.6	29.89	2.780	1.951	2.004	1.974	2.533	2.600	2.583	2.582	3.475	3.541	3.851	4.068	4.225	5.127	5.682	6.338	7.602	8.614	9.714	10.74	11.47	12.48	12.69	13.05	13.83	14.16	14.20	14.21	13.64	13.29	13.31	12.91	13.12	13.27
430.0	713.9	825.1	932.2	980.4	1026	1115	1289	1607	1957	2323	2594	2654	2550	2402	2227	2090	2005	1964	1926	1863	1753	1625	1482	1312	1138	966.0	813.4	673.0	550.3	440.7	360.8	281.9	182.2	115.1	73.24	47.31	31.77	23.79	17.93	36.66	229.3	589.8	479.0	130.8	9.339	2.188	2.094	2.590	2.484	2.407	2.439	3.207	3.401	3.532	3.687	3.850	4.670	5.322	5.821	7.034	7.750	8.883	9.926	10.76	11.76	12.48	12.48	13.05	13.14	13.39	13.16	13.12	12.68	12.64	12.29	11.95	12.53
435.0	768.5	766.4	853.4	899.4	944.8	1016	1180	1462	1793	2128	2413	2469	2379	2234	2061	1926	1845	1809	1777	1717	1627	1518	1375	1230	1069	913.3	769.7	642.5	529.8	423.4	336.0	273.7	211.2	130.8	79.47	51.49	34.54	24.30	18.13	18.70	59.12	140.9	246.7	761.9	188.2	8.423	2.081	2.401	2.372	2.289	2.359	3.045	2.986	3.064	3.581	3.757	4.362	4.879	5.649	6.541	7.123	8.235	9.145	10.11	11.22	11.40	12.29	12.23	12.18	12.32	12.26	12.31	11.66	12.05	11.43	11.57	11.09
440.0	813.8	735.2	802.8	859.6	887.1	952.9	1092	1362	1679	1999	2269	2313	2232	2105	1935	1813	1728	1684	1663	1610	1526	1426	1297	1161	1011	867.6	728.8	612.1	512.0	410.7	326.8	254.2	211.9	148.4	85.95	54.79	37.57	26.41	20.18	15.94	22.41	38.74	65.80	456.7	643.7	134.2	3.511	2.536	2.381	2.126	2.173	2.959	2.935	3.097	3.369	3.446	3.956	4.594	5.161	6.013	6.794	7.666	8.659	9.561	10.39	10.86	11.11	11.38	11.77	11.47	11.76	11.29	11.06	11.13	10.44	10.83	10.38
445.0	803.9	781.3	734.9	799.4	821.5	861.1	1021	1269	1555	1860	2116	2167	2101	1965	1818	1689	1612	1572	1547	1505	1428	1329	1220	1081	951.2	811.5	686.9	580.3	484.3	395.0	311.6	239.9	195.0	160.3	98.36	58.08	39.45	28.70	20.43	16.02	14.52	16.31	19.93	124.6	515.2	544.0	24.29	3.508	2.204	2.118	2.175	2.640	2.776	2.812	3.078	3.216	3.700	4.350	4.792	5.640	6.403	7.139	7.817	8.857	9.362	9.854	10.61	10.32	10.52	10.75	10.84	10.70	10.43	10.34	9.796	9.739	10.00
450.0	601.7	872.1	710.7	698.8	729.6	781.3	905.0	1123	1391	1673	1890	1949	1891	1776	1629	1514	1439	1407	1379	1346	1279	1194	1094	979.5	856.2	735.3	624.4	527.7	444.6	367.8	291.6	223.9	172.8	142.1	111.4	68.55	41.69	30.05	22.43	17.82	14.12	11.99	10.44	32.72	141.1	385.1	452.8	444.8	6.751	2.025	1.866	2.383	2.470	2.646	2.616	2.906	3.465	3.741	4.192	4.970	5.558	6.374	6.891	8.033	8.198	9.244	9.301	9.480	9.528	9.481	9.635	9.812	9.303	9.241	8.739	8.661	8.881
455.0	423.5	772.2	810.9	617.8	660.2	688.1	794.5	983.2	1220	1468	1657	1720	1665	1563	1434	1322	1263	1224	1213	1173	1116	1054	956.1	859.3	750.0	647.2	551.6	468.9	400.5	331.9	264.4	206.9	155.1	117.5	100.3	81.62	49.35	31.88	24.15	19.42	15.29	11.86	9.266	12.87	35.74	91.14	226.4	1519	139.7	6.452	1.981	2.204	2.312	2.283	2.318	2.475	2.857	3.355	3.925	4.262	4.932	5.552	6.127	6.966	7.584	8.063	8.381	8.281	8.526	8.819	8.802	8.807	8.254	8.024	8.005	7.440	7.969
460.0	373.7	610.3	885.0	603.7	594.4	611.6	707.4	880.1	1096	1327	1485	1546	1494	1399	1281	1180	1128	1094	1080	1042	1001	940.0	859.6	769.5	671.7	581.2	495.6	421.9	360.5	302.2	244.3	192.2	144.5	107.9	84.66	79.43	59.46	33.87	24.96	19.52	15.73	12.26	9.480	8.847	12.73	24.44	58.07	898.6	419.8	109.8	3.579	2.167	2.131	2.130	2.264	2.340	2.545	2.806	3.689	3.688	4.455	4.948	5.647	6.154	6.762	6.981	7.430	7.511	7.819	7.732	7.515	7.683	7.296	7.287	6.864	6.831	7.280
465.0	334.3	465.7	853.5	665.2	527.2	557.4	634.1	797.7	985.7	1188	1341	1396	1351	1255	1159	1061	1005	979.1	958.8	937.4	899.7	833.4	768.8	694.0	605.7	522.1	442.0	380.6	325.5	275.0	223.9	176.7	134.1	100.2	75.42	67.74	64.59	40.00	25.55	19.37	16.42	12.93	10.08	7.947	8.077	9.379	16.64	238.5	325.9	456.1	20.58	3.574	2.000	1.976	1.974	1.918	2.384	2.405	3.167	3.513	4.290	4.332	5.146	5.512	5.951	6.285	6.522	6.714	7.002	6.924	6.899	7.027	6.567	6.436	6.189	6.200	6.467
470.0	287.1	371.5	624.4	839.5	482.8	476.5	545.6	685.7	841.6	1020	1160	1196	1155	1078	989.9	909.0	855.9	832.4	817.1	799.3	767.5	715.5	656.4	589.3	520.0	445.7	380.6	328.6	281.6	241.8	195.9	156.3	120.5	90.93	67.46	55.55	53.03	48.14	31.10	20.55	16.58	13.05	10.31	8.286	7.355	6.764	7.612	56.95	88.29	320.2	494.4	260.9	7.717	1.931	1.815	1.803	2.016	2.233	2.690	3.092	3.706	3.786	4.464	4.796	5.311	5.278	5.851	5.736	5.816	6.076	6.014	5.890	5.824	5.506	5.453	5.260	5.349
475.0	253.3	304.1	406.7	787.4	581.5	396.6	464.8	576.6	716.3	864.5	975.1	1009	974.8	906.7	831.1	762.0	715.7	697.7	682.1	665.2	639.2	601.9	545.5	501.6	433.7	373.1	320.0	279.5	240.6	204.8	169.3	136.2	105.3	81.71	60.63	47.59	41.66	41.90	39.40	24.63	16.82	12.94	11.02	8.375	7.566	6.678	5.910	16.50	22.66	74.88	238.0	720.2	146.9	5.837	1.853	1.708	1.791	1.842	2.199	2.504	3.184	3.243	3.768	3.929	4.542	4.614	4.833	4.891	4.950	5.032	5.180	5.025	4.897	4.649	4.679	4.134	4.451
480.0	238.0	270.2	319.2	568.1	707.5	387.5	411.7	507.2	625.9	754.3	860.5	897.9	865.6	802.6	729.0	671.7	625.5	613.2	603.3	583.8	559.5	527.4	480.3	434.8	380.8	327.1	283.9	246.5	211.5	180.7	151.7	123.2	95.03	74.11	57.43	43.78	36.60	34.52	38.03	30.88	18.17	12.89	11.03	8.782	7.898	7.156	5.840	7.621	8.197	19.45	59.95	371.3	409.4	26.84	2.594	1.696	1.665	1.802	1.924	2.346	2.649	3.004	3.256	3.605	3.995	4.103	4.484	4.410	4.394	4.558	4.410	4.363	4.612	3.973	3.959	4.068	3.960
485.0	211.6	246.4	275.7	385.9	780.1	452.9	362.2	442.0	566.0	671.6	775.7	807.8	774.2	718.7	653.0	595.1	559.5	545.2	540.7	519.3	499.8	470.0	432.0	386.8	340.0	294.3	252.0	220.9	192.0	161.9	136.8	112.2	87.81	68.92	53.60	41.87	33.85	29.39	31.19	34.28	21.82	13.72	11.23	9.549	7.968	7.024	6.173	5.881	5.201	7.240	15.95	96.39	302.8	414.2	21.60	2.005	1.699	1.608	1.873	2.203	2.488	2.585	2.953	3.181	3.459	3.512	3.976	4.179	3.819	3.974	4.169	4.168	3.977	3.817	3.480	3.624	3.761
490.0	180.5	235.9	244.8	272.0	569.5	615.7	353.8	386.8	495.8	585.6	664.4	690.5	671.7	622.8	564.6	515.9	480.3	467.6	463.5	445.7	430.3	402.5	372.0	332.2	293.5	252.8	217.7	189.3	166.1	143.0	121.0	99.71	78.41	62.34	48.71	38.41	31.67	25.98	24.10	28.49	27.01	17.77	11.94	9.844	8.454	7.347	6.465	5.610	4.610	4.579	6.296	24.00	79.91	296.3	233.1	101.7	6.813	1.589	1.657	1.964	2.121	2.318	2.537	2.822	3.227	3.159	3.390	3.504	3.491	3.484	3.595	3.466	3.402	3.325	3.212	3.086	3.122
495.0	139.8	195.6	221.9	223.1	310.5	625.6	454.3	342.0	419.6	499.8	561.0	589.5	570.2	524.4	482.4	437.0	406.5	395.2	389.5	376.8	361.5	338.4	311.5	281.5	246.2	215.2	184.0	161.5	142.8	123.0	105.0	85.67	69.08	54.94	45.07	35.55	29.55	23.84	21.66	20.75	24.16	22.57	14.50	10.11	8.752	7.972	6.429	5.678	5.012	4.255	4.230	7.747	20.11	69.11	124.8	343.6	133.5	5.519	1.696	1.874	1.995	1.938	2.400	2.382	2.572	2.623	2.867	3.037	3.084	2.958	2.905	2.962	2.840	2.633	2.582	2.460	2.619
500.0	117.8	173.6	205.7	199.8	216.3	460.0	640.8	320.7	371.1	444.1	489.4	513.5	501.0	464.8	415.5	382.3	350.8	342.9	337.4	329.8	311.6	294.8	271.9	243.5	215.9	188.1	160.8	139.4	123.6	106.8	92.30	76.70	61.80	49.90	40.21	32.93	27.46	22.74	19.64	18.06	19.05	23.23	18.16	11.41	8.445	7.662	6.563	5.871	5.196	4.261	3.961	4.244	6.815	17.36	32.14	184.9	314.9	28.81	3.014	1.928	1.968	1.732	2.177	2.029	2.293	2.351	2.530	2.566	2.674	2.621	2.756	2.496	2.580	2.329	2.378	2.260	2.322
505.0	112.9	138.0	185.9	172.4	181.4	292.4	699.7	367.5	326.4	389.0	432.8	454.5	439.5	401.6	360.9	330.6	307.4	298.4	297.7	288.0	276.0	257.1	239.1	212.0	188.3	164.5	140.7	123.1	108.8	94.83	83.42	68.16	54.86	45.45	37.20	30.44	25.50	21.50	18.53	16.81	15.55	18.58	20.75	13.99	8.971	7.462	6.334	5.821	4.906	4.340	3.765	3.521	3.797	6.011	9.039	48.51	212.8	224.7	25.66	4.252	1.867	1.533	1.710	1.834	2.050	2.037	2.266	2.221	2.312	2.369	2.234	2.064	2.198	2.232	2.063	1.959	1.938
510.0	99.18	125.9	155.1	163.9	153.9	178.9	488.5	589.0	301.2	322.4	361.9	380.2	364.1	339.3	302.2	275.0	255.3	248.8	246.1	238.6	228.8	213.8	198.2	178.5	156.4	138.5	119.7	105.1	91.70	80.39	69.82	58.36	48.11	39.23	32.68	26.49	22.68	19.27	16.57	14.74	13.47	13.38	16.64	16.47	11.00	7.488	6.399	5.620	4.835	4.140	3.799	3.418	3.052	3.272	3.835	12.45	55.63	150.1	218.2	264.2	11.53	1.480	1.499	1.560	1.702	1.769	1.861	1.978	1.831	1.959	1.940	1.818	1.877	1.743	1.589	1.616	1.644
515.0	75.57	99.48	120.3	151.4	134.2	142.2	235.4	670.6	392.7	268.9	294.6	312.7	304.5	280.5	248.7	225.4	211.9	203.8	199.5	195.7	189.1	173.3	162.1	146.0	127.8	113.6	97.80	86.40	76.68	67.15	58.18	49.02	40.83	33.78	28.16	23.85	20.19	17.79	14.74	13.15	12.27	10.99	11.43	14.51	14.39	8.970	6.174	5.354	4.740	4.035	3.526	3.303	2.904	2.522	2.396	4.400	13.81	35.10	90.68	494.8	224.8	8.921	1.284	1.563	1.494	1.419	1.492	1.687	1.534	1.700	1.765	1.438	1.570	1.435	1.428	1.361	1.434
520.0	64.44	82.38	97.66	125.1	132.3	120.2	147.2	483.6	567.0	244.3	256.1	266.0	255.9	238.5	215.1	194.6	179.9	174.4	169.9	167.6	161.3	150.0	138.8	125.3	109.3	95.91	84.51	74.85	65.98	57.57	50.77	43.61	35.95	29.37	24.88	20.97	18.32	16.21	13.66	11.90	11.08	9.670	9.073	11.19	14.73	10.85	6.400	5.267	4.421	3.805	3.415	3.478	2.826	2.559	1.987	2.504	4.358	9.098	22.37	197.8	953.4	127.8	3.974	1.440	1.220	1.353	1.184	1.282	1.342	1.359	1.494	1.248	1.279	1.351	1.180	1.131	1.357
525.0	63.00	78.56	84.55	97.06	123.0	105.2	116.7	266.5	663.3	277.7	228.1	227.4	224.5	208.2	189.2	168.9	157.7	150.4	145.9	143.2	137.4	128.8	118.3	108.7	94.63	82.99	72.55	64.54	56.73	50.58	44.81	38.87	31.98	26.27	22.26	18.79	16.07	14.54	12.67	11.02	10.08	9.112	8.740	8.561	11.84	12.18	7.730	5.215	4.052	3.825	3.491	3.035	2.786	2.516	1.949	2.003	2.295	3.292	6.191	48.48	579.9	327.3	28.75	2.002	1.135	1.196	1.082	1.232	1.257	1.246	1.498	1.114	1.241	1.129	0.949	1.049	1.106
530.0	49.42	66.39	70.65	79.72	104.5	103.6	97.02	146.8	453.7	488.7	209.4	191.9	184.7	170.2	154.4	139.4	130.8	123.4	120.2	117.2	113.6	106.3	97.63	88.66	78.00	69.11	60.28	53.43	48.03	43.14	37.69	32.46	26.75	22.99	19.23	16.56	14.13	12.87	11.25	9.747	9.087	7.932	7.430	6.977	7.882	10.33	9.907	6.426	4.229	3.652	3.102	3.002	2.642	2.334	2.135	1.806	1.793	1.923	2.371	11.99	143.3	158.9	239.8	71.26	6.799	1.135	1.024	1.103	1.036	0.983	1.126	1.032	0.914	0.990	0.820	0.840	0.933
535.0	42.56	56.20	59.16	65.53	76.38	101.0	84.41	104.0	204.1	542.9	298.5	154.4	152.1	139.2	124.7	113.3	105.4	100.8	97.11	95.82	91.22	86.35	79.46	71.95	63.47	55.68	49.37	43.57	39.51	35.75	31.68	26.72	23.24	19.45	16.52	14.32	12.30	10.89	9.717	8.427	7.913	6.821	6.372	6.166	5.725	7.028	9.286	8.206	4.775	3.217	2.853	2.552	2.385	2.140	2.154	1.917	1.566	1.556	1.452	3.851	33.09	36.47	94.85	148.5	88.61	6.413	0.904	0.837	0.926	0.895	0.900	0.908	0.834	0.766	0.728	0.663	0.720
540.0	36.83	45.72	52.12	55.56	62.83	88.41	77.78	87.25	118.4	376.8	474.3	142.1	126.9	115.5	106.2	94.88	86.69	85.88	81.42	80.00	77.13	73.74	66.31	59.69	53.76	46.92	40.82	37.16	33.54	30.15	26.96	23.86	19.63	16.59	14.53	12.76	10.67	9.548	8.445	7.750	7.088	6.293	5.598	5.178	4.859	5.375	6.902	8.535	5.990	3.393	2.702	2.379	2.113	2.000	2.012	1.853	1.507	1.418	1.362	1.926	8.566	8.982	22.65	63.73	146.9	30.44	3.841	0.866	0.840	0.747	0.732	0.636	0.718	0.734	0.715	0.593	0.637
545.0	40.98	42.56	43.19	46.13	50.62	71.25	81.71	73.78	93.55	203.6	543.2	176.3	106.6	98.36	88.89	81.64	76.39	71.61	68.34	68.24	66.48	61.84	55.36	50.84	46.20	39.69	35.47	32.60	29.07	26.44	22.82	20.60	17.43	14.31	12.85	11.07	9.526	8.524	7.466	6.875	6.314	5.606	5.064	4.712	4.426	4.286	5.035	7.275	6.880	4.188	2.648	2.188	2.061	2.147	1.813	1.649	1.588	1.309	1.201	1.418	2.893	2.930	5.978	15.94	72.79	123.1	28.45	1.681	0.680	0.653	0.694	0.598	0.652	0.636	0.652	0.574	0.561
550.0	40.24	36.63	35.76	39.21	40.04	51.83	77.98	70.34	78.77	111.1	343.6	339.7	97.35	81.41	70.96	65.73	59.66	57.09	55.46	54.78	52.44	49.11	44.87	40.99	37.04	32.13	28.90	25.40	24.09	21.34	19.10	16.76	13.91	12.06	10.53	9.114	7.855	7.243	6.362	5.931	5.291	4.802	4.452	4.044	3.832	3.673	3.610	4.599	5.706	5.084	3.242	2.074	1.827	1.769	1.598	1.530	1.481	1.425	1.116	1.205	1.602	1.397	2.144	4.342	17.85	54.69	119.8	78.59	8.185	0.687	0.757	0.472	0.515	0.484	0.547	0.478	0.422
555.0	40.13	33.21	30.57	33.59	35.99	37.11	66.74	71.44	64.49	79.07	144.3	388.8	153.3	62.12	55.60	52.21	46.87	44.05	43.38	41.31	40.40	38.46	35.39	32.10	28.47	24.97	22.84	19.83	18.95	16.95	15.11	12.85	10.91	9.744	8.535	7.479	6.482	5.984	5.428	5.028	4.399	3.860	3.704	3.391	3.260	3.030	2.850	2.800	3.665	4.690	4.175	2.354	1.715	1.405	1.461	1.294	1.240	1.271	1.123	0.998	1.087	0.972	1.230	1.536	4.570	12.76	36.75	130.7	74.44	7.642	0.838	0.421	0.465	0.421	0.375	0.379	0.412
560.0	35.24	31.60	25.02	29.85	25.95	31.48	49.40	72.68	60.44	66.03	83.59	256.4	276.4	56.41	46.92	41.42	39.20	37.17	35.28	34.08	32.96	30.95	28.73	27.10	22.86	20.25	18.75	16.02	15.00	14.22	12.36	10.60	9.311	7.902	7.428	6.290	5.856	4.953	4.680	4.185	3.769	3.397	3.160	3.035	2.995	2.695	2.466	2.293	2.372	3.536	4.191	2.813	1.642	1.220	1.154	1.081	1.258	1.078	1.104	1.080	1.028	0.870	0.885	0.929	1.564	3.300	8.808	48.84	90.82	32.51	12.95	0.394	0.538	0.400	0.313	0.310	0.342
565.0	44.34	33.09	23.61	28.23	23.13	26.63	38.41	72.40	59.55	60.51	66.15	126.6	341.6	88.22	39.13	34.70	32.32	30.02	29.26	28.28	27.69	24.96	23.67	21.84	19.40	16.80	15.20	13.79	12.93	11.40	11.08	9.145	8.045	6.845	6.233	5.138	4.840	4.343	3.789	3.692	3.326	2.932	2.625	2.662	2.498	2.341	2.009	1.914	1.933	2.339	3.420	3.209	1.842	1.267	1.160	1.110	1.049	0.931	0.834	1.215	0.939	0.805	0.863	0.697	0.945	1.201	2.520	11.71	37.09	92.69	188.4	1.762	0.450	0.333	0.295	0.222	0.306
570.0	42.85	30.31	25.02	23.73	21.64	22.05	30.98	57.00	69.98	56.28	57.61	66.59	217.2	233.9	36.01	27.76	25.33	23.84	23.52	21.96	21.88	20.05	18.22	16.67	15.10	13.33	12.06	11.11	10.19	9.167	8.476	7.420	6.489	5.522	4.925	4.306	4.016	3.632	3.050	3.037	2.726	2.399	2.329	2.136	2.013	1.850	1.762	1.662	1.504	1.573	2.168	2.911	2.276	1.550	1.038	0.870	0.930	0.857	0.673	0.924	0.987	0.859	0.779	0.588	0.683	0.638	0.968	2.982	8.887	35.54	293.0	51.74	10.88	0.364	0.264	0.217	0.266
575.0	40.82	30.17	23.69	21.32	19.59	21.93	24.23	39.64	71.25	59.56	50.31	47.76	84.15	317.8	81.42	22.41	19.11	18.11	17.79	16.74	16.24	16.28	14.45	13.00	11.93	10.24	9.219	8.773	7.841	7.374	6.567	5.859	4.821	4.376	3.619	3.408	3.261	2.930	2.496	2.387	2.122	1.808	1.815	1.619	1.650	1.535	1.439	1.268	1.261	1.214	1.401	1.869	2.333	1.918	1.030	0.783	0.724	0.738	0.654	0.800	0.865	0.889	0.683	0.610	0.579	0.571	0.515	1.014	2.406	8.269	70.67	61.10	108.6	7.664	0.311	0.221	0.230
580.0	35.28	32.64	23.35	19.91	20.80	20.47	22.78	34.86	59.88	65.40	50.92	44.41	44.17	204.0	178.3	20.77	16.90	15.41	14.74	14.08	13.01	13.25	11.95	11.02	9.278	8.689	7.665	7.054	6.075	5.723	5.476	4.601	4.077	3.593	3.269	2.897	2.733	2.340	2.110	2.131	1.943	1.452	1.629	1.407	1.352	1.224	1.352	1.087	0.998	1.029	0.973	1.174	1.854	1.960	1.192	0.781	0.738	0.637	0.629	0.770	0.663	0.788	0.714	0.569	0.514	0.554	0.579	0.497	0.786	2.143	16.11	19.82	117.5	32.41	4.765	0.220	0.228
585.0	33.11	25.89	33.13	21.09	19.52	18.66	22.22	30.05	50.98	73.32	50.52	40.97	34.88	87.39	243.2	37.51	14.74	13.27	12.79	11.62	10.93	10.46	9.365	9.055	7.868	7.518	6.655	5.987	5.346	4.748	4.556	3.828	3.675	3.037	2.797	2.537	2.361	2.163	1.841	1.687	1.548	1.422	1.291	1.207	1.098	1.142	1.208	0.957	0.922	0.867	0.827	0.885	1.293	1.758	1.423	0.840	0.683	0.508	0.585	0.600	0.573	0.606	0.734	0.539	0.566	0.507	0.522	0.389	0.470	0.766	3.891	4.785	42.91	55.62	28.82	1.486	0.218
590.0	36.18	31.07	24.67	18.28	17.73	17.55	21.45	28.05	40.97	70.30	57.78	40.48	31.93	37.11	157.7	138.1	14.47	11.00	9.938	9.455	9.234	8.531	7.884	7.210	6.385	5.803	5.190	4.487	4.252	3.920	3.573	3.327	2.903	2.659	2.392	2.085	1.826	1.667	1.541	1.393	1.268	1.160	1.049	1.035	1.030	0.906	0.912	0.896	0.746	0.711	0.659	0.786	0.746	1.151	1.470	1.179	0.781	0.532	0.531	0.542	0.527	0.532	0.581	0.662	0.644	0.493	0.443	0.390	0.359	0.444	1.106	1.303	9.979	18.90	42.49	29.49	5.123
595.0	39.38	27.32	30.16	21.28	17.96	16.27	21.32	25.57	33.49	53.26	67.51	40.81	30.07	23.84	55.56	212.3	45.52	9.013	8.377	7.541	7.394	6.549	6.106	5.400	5.082	4.401	4.168	3.672	3.268	2.936	3.104	2.733	2.361	2.226	1.854	1.561	1.461	1.385	1.266	1.154	0.933	1.051	0.912	0.889	0.732	0.802	0.856	0.777	0.638	0.615	0.614	0.599	0.593	0.693	1.142	1.244	0.963	0.613	0.515	0.539	0.471	0.492	0.581	0.548	0.605	0.517	0.418	0.351	0.359	0.341	0.487	0.516	2.494	4.405	10.99	29.55	31.82
600.0	39.96	28.15	29.54	21.17	15.53	13.96	18.86	22.36	33.80	43.60	72.36	43.73	30.43	20.70	24.13	147.4	95.09	8.787	6.967	6.041	6.062	5.710	5.362	4.431	4.130	3.633	3.630	3.244	2.914	2.587	2.621	2.285	1.900	1.625	1.426	1.535	1.386	1.183	1.034	0.970	0.825	0.830	0.715	0.794	0.792	0.740	0.697	0.601	0.611	0.492	0.515	0.485	0.459	0.502	0.782	0.984	1.010	0.687	0.429	0.482	0.512	0.495	0.473	0.452	0.476	0.504	0.339	0.324	0.433	0.326	0.385	0.351	0.802	1.141	2.604	9.364	32.49
605.0	36.45	29.62	28.70	24.05	17.40	14.43	16.30	19.77	30.62	40.10	63.91	52.45	30.75	21.10	15.88	61.96	169.0	19.93	5.954	5.443	5.115	4.884	4.423	3.819	3.532	3.239	2.964	2.733	2.586	2.210	2.208	1.956	1.644	1.346	1.223	1.305	1.232	0.925	0.927	0.894	0.776	0.657	0.661	0.717	0.774	0.618	0.587	0.579	0.541	0.468	0.407	0.485	0.432	0.385	0.516	0.712	0.997	0.691	0.502	0.390	0.411	0.379	0.371	0.404	0.406	0.509	0.525	0.350	0.381	0.274	0.368	0.231	0.400	0.416	0.784	2.295	11.74
610.0	31.46	26.26	25.69	22.28	16.00	14.36	15.00	20.87	25.78	34.37	47.38	55.57	30.87	20.86	13.49	22.07	119.2	97.27	7.591	4.499	4.085	3.882	3.434	3.263	2.700	2.552	2.446	2.268	2.000	1.879	1.649	1.598	1.402	1.232	1.084	0.973	0.939	0.879	0.762	0.642	0.685	0.582	0.555	0.642	0.535	0.450	0.491	0.501	0.439	0.402	0.374	0.363	0.363	0.373	0.394	0.438	0.659	0.807	0.613	0.475	0.359	0.367	0.327	0.338	0.350	0.362	0.442	0.405	0.353	0.255	0.323	0.219	0.277	0.309	0.336	0.639	2.801
615.0	28.44	24.25	25.44	21.21	15.40	13.05	15.22	18.61	24.11	29.61	38.65	52.91	35.70	20.89	13.82	12.75	39.95	157.7	42.81	3.917	3.479	3.132	2.659	2.477	2.277	2.085	1.971	1.765	1.532	1.529	1.398	1.134	1.156	0.938	0.788	0.809	0.786	0.700	0.681	0.546	0.594	0.548	0.427	0.492	0.481	0.398	0.475	0.428	0.361	0.373	0.342	0.302	0.274	0.290	0.271	0.302	0.442	0.687	0.615	0.505	0.335	0.324	0.272	0.287	0.340	0.360	0.382	0.375	0.435	0.340	0.253	0.196	0.214	0.264	0.204	0.313	0.741
620.0	22.53	28.02	26.56	21.80	15.64	14.22	15.22	17.68	22.58	28.40	33.58	43.66	43.47	21.66	15.51	10.62	14.58	120.5	119.4	4.602	3.068	2.778	2.455	2.102	1.872	1.840	1.386	1.484	1.367	1.305	1.090	1.094	0.892	0.929	0.788	0.692	0.671	0.540	0.548	0.418	0.409	0.410	0.325	0.423	0.363	0.354	0.380	0.403	0.316	0.294	0.323	0.265	0.262	0.238	0.285	0.259	0.299	0.493	0.613	0.574	0.371	0.291	0.260	0.253	0.300	0.238	0.315	0.291	0.337	0.392	0.294	0.194	0.201	0.291	0.174	0.200	0.272
625.0	32.75	29.78	26.05	21.32	15.62	13.86	15.12	18.25	21.92	28.22	31.86	37.62	46.61	24.79	16.60	11.76	9.182	54.89	180.1	14.20	2.613	2.383	2.049	1.786	1.962	1.561	1.270	1.350	1.139	1.041	0.922	0.893	0.907	0.728	0.707	0.585	0.632	0.482	0.440	0.441	0.375	0.425	0.329	0.390	0.375	0.396	0.326	0.377	0.264	0.225	0.272	0.312	0.236	0.230	0.268	0.264	0.216	0.341	0.467	0.509	0.440	0.328	0.251	0.226	0.278	0.229	0.334	0.265	0.349	0.381	0.284	0.243	0.244	0.189	0.128	0.177	0.191
630.0	37.72	32.82	24.45	23.13	15.81	17.22	16.63	19.25	25.16	31.05	33.80	35.83	46.17	34.53	20.38	13.80	9.474	19.04	131.5	93.79	3.775	2.321	1.705	1.609	1.615	1.266	1.033	1.220	0.994	0.865	0.800	0.793	0.641	0.636	0.625	0.503	0.443	0.428	0.372	0.361	0.382	0.323	0.337	0.325	0.321	0.340	0.327	0.269	0.228	0.230	0.238	0.247	0.216	0.202	0.204	0.220	0.248	0.264	0.340	0.427	0.417	0.339	0.293	0.222	0.250	0.286	0.308	0.286	0.297	0.329	0.358	0.324	0.276	0.189	0.219	0.182	0.189
635.0	53.02	55.43	28.53	24.84	19.89	20.15	21.53	24.67	28.89	37.29	42.98	45.33	48.51	47.25	30.31	18.35	12.84	10.92	43.56	171.1	24.14	2.088	1.484	1.539	1.160	1.106	0.942	1.053	0.835	0.655	0.633	0.673	0.520	0.516	0.382	0.343	0.385	0.338	0.350	0.303	0.321	0.258	0.297	0.283	0.312	0.332	0.335	0.284	0.201	0.245	0.194	0.221	0.223	0.207	0.211	0.189	0.207	0.227	0.312	0.360	0.459	0.482	0.408	0.236	0.222	0.289	0.274	0.310	0.405	0.289	0.338	0.423	0.360	0.240	0.238	0.239	0.221
640.0	72.08	57.43	32.54	22.65	23.59	21.78	24.57	26.28	33.16	40.96	49.89	52.70	51.51	54.51	39.20	22.89	15.36	10.87	16.21	143.5	66.23	2.394	1.455	1.146	0.939	0.889	0.921	0.907	0.706	0.609	0.611	0.572	0.553	0.483	0.389	0.365	0.369	0.356	0.277	0.247	0.208	0.285	0.251	0.273	0.306	0.315	0.309	0.284	0.199	0.221	0.174	0.202	0.169	0.216	0.197	0.202	0.189	0.217	0.233	0.308	0.303	0.413	0.390	0.340	0.271	0.333	0.308	0.275	0.358	0.276	0.287	0.465	0.387	0.260	0.227	0.279	0.174
645.0	72.52	70.37	34.50	25.04	22.83	23.54	26.07	28.01	36.22	45.63	51.78	55.18	54.62	54.53	46.48	25.85	18.29	12.94	11.17	69.02	150.8	7.574	1.361	1.157	0.898	0.795	0.824	0.796	0.676	0.537	0.581	0.483	0.456	0.420	0.342	0.284	0.357	0.306	0.265	0.317	0.225	0.270	0.179	0.289	0.319	0.333	0.274	0.293	0.232	0.174	0.169	0.211	0.197	0.183	0.200	0.227	0.197	0.244	0.206	0.268	0.314	0.400	0.404	0.337	0.274	0.313	0.359	0.295	0.334	0.339	0.344	0.389	0.378	0.379	0.258	0.248	0.195
650.0	79.73	64.07	40.27	24.88	24.97	27.17	30.48	33.64	40.76	49.70	56.29	62.00	59.12	54.28	54.83	31.18	21.64	15.56	10.42	24.54	165.5	36.84	1.385	1.075	0.876	0.706	0.710	0.662	0.587	0.449	0.474	0.459	0.426	0.393	0.297	0.246	0.237	0.274	0.249	0.299	0.253	0.205	0.226	0.314	0.310	0.398	0.329	0.262	0.233	0.128	0.182	0.213	0.218	0.190	0.180	0.218	0.286	0.242	0.230	0.243	0.305	0.346	0.359	0.411	0.431	0.370	0.355	0.359	0.375	0.350	0.324	0.333	0.343	0.429	0.333	0.294	0.259
