Sample:	'1
File name:	亿斯特处理前.FD3
Run date:	'10:21:31, 04/03/2025
Operator:	Administrator
Comment:	'

Instrument
Model:	F-2700 FL Spectrophotometer
Serial number:	23B8-004
ROM Version:	4J14000 07

Instrument parameters
Measurement type:	3-D scan
Data mode:	Fluorescence
EX  Start WL:	220.0 nm
EX  End WL:	600.0 nm
EX Sampling interval:	5.0 nm
EM  Start WL:	230.0 nm
EM  End WL:	650.0 nm
EM Sampling interval:	5.0 nm
Scan speed:	12000 nm/min
EX Slit:	5.0 nm
EM Slit:	5.0 nm
PMT Voltage:	700 V
Response:	Auto 
Corrected spectra:	Off
Contour interval:	50.000

Peak integration
Integration method:	Rectangular
Sensitivity:	1
Threshold:	1.000

Peaks
No.	ApexEX/EM(nm)	Height(Data)
1	235.0/255.0	252.5
2	235.0/615.0	20.45
3	240.0/265.0	350.7
4	240.0/520.0	250.2
5	240.0/640.0	15.13
6	245.0/270.0	345.7
7	245.0/400.0	1233
8	245.0/535.0	219.4
9	250.0/275.0	460.2
10	250.0/405.0	1238
11	250.0/550.0	173.6
12	255.0/280.0	540.2
13	255.0/560.0	147.1
14	260.0/290.0	544.5
15	260.0/575.0	120.0
16	265.0/295.0	719.4
17	265.0/585.0	104.8
18	270.0/300.0	963.4
19	270.0/600.0	90.55
20	275.0/305.0	927.9
21	275.0/610.0	72.52
22	280.0/625.0	57.53
23	285.0/320.0	718.7
24	285.0/635.0	41.41
25	290.0/325.0	642.2
26	295.0/330.0	496.7
27	300.0/335.0	485.4
28	305.0/345.0	458.7
29	310.0/350.0	404.6
30	315.0/355.0	408.9
31	320.0/365.0	399.8
32	325.0/370.0	375.7
33	330.0/375.0	367.9
34	335.0/380.0	366.2
35	410.0/480.0	50.82
36	425.0/500.0	30.06
37	440.0/520.0	17.32
38	455.0/540.0	9.091
39	470.0/560.0	4.399
40	485.0/265.0	1.777
41	495.0/270.0	1.702
42	500.0/420.0	4.924
43	505.0/275.0	2.619
44	510.0/280.0	2.882
45	510.0/410.0	5.044
46	520.0/285.0	3.261
47	525.0/290.0	3.174
48	540.0/295.0	4.271
49	545.0/300.0	4.700
50	550.0/305.0	5.022
51	560.0/310.0	4.071
52	570.0/315.0	4.012
53	580.0/320.0	3.873
54	585.0/325.0	3.850

Data points
	220.0	225.0	230.0	235.0	240.0	245.0	250.0	255.0	260.0	265.0	270.0	275.0	280.0	285.0	290.0	295.0	300.0	305.0	310.0	315.0	320.0	325.0	330.0	335.0	340.0	345.0	350.0	355.0	360.0	365.0	370.0	375.0	380.0	385.0	390.0	395.0	400.0	405.0	410.0	415.0	420.0	425.0	430.0	435.0	440.0	445.0	450.0	455.0	460.0	465.0	470.0	475.0	480.0	485.0	490.0	495.0	500.0	505.0	510.0	515.0	520.0	525.0	530.0	535.0	540.0	545.0	550.0	555.0	560.0	565.0	570.0	575.0	580.0	585.0	590.0	595.0	600.0
230.0	15.22	281.4	804.6	283.9	14.30	2.854	2.216	2.133	1.843	1.759	1.379	1.333	1.213	0.935	0.946	0.677	0.621	0.566	0.503	0.476	0.451	0.431	0.384	0.353	0.280	0.235	0.245	0.242	0.201	0.187	0.195	0.197	0.176	0.165	0.161	0.168	0.159	0.152	0.130	0.127	0.137	0.124	0.204	0.138	0.118	0.097	0.305	1.148	2.202	1.878	0.678	0.166	0.103	0.086	0.081	0.085	0.063	0.087	0.106	0.071	0.078	0.081	0.073	0.071	0.079	0.088	0.079	0.071	0.092	0.075	0.077	0.051	0.077	0.077	0.071	0.089	0.093
235.0	35.18	82.15	560.6	873.6	396.9	17.63	2.406	2.243	2.137	1.907	1.456	1.554	1.086	0.999	0.935	0.952	0.740	0.658	0.654	0.639	0.452	0.345	0.320	0.442	0.312	0.207	0.254	0.184	0.300	0.162	0.187	0.266	0.166	0.182	0.138	0.142	0.168	0.145	0.128	0.128	0.098	0.112	0.196	0.167	0.170	0.153	0.161	0.357	0.990	1.972	3.231	3.026	1.296	0.357	0.082	0.093	0.070	0.081	0.083	0.073	0.087	0.097	0.063	0.083	0.073	0.088	0.132	0.098	0.079	0.086	0.074	0.058	0.084	0.078	0.073	0.084	0.083
240.0	53.39	53.25	178.4	927.7	1405	283.5	10.02	3.044	2.533	1.925	1.453	1.586	1.120	0.871	0.888	0.768	0.815	0.561	0.574	0.439	0.368	0.398	0.329	0.514	0.323	0.354	0.255	0.226	0.284	0.196	0.166	0.219	0.205	0.214	0.115	0.127	0.151	0.150	0.175	0.131	0.171	0.145	0.104	0.148	0.209	0.192	0.198	0.210	0.354	0.621	1.798	4.402	5.146	3.429	0.883	0.181	0.098	0.089	0.067	0.111	0.114	0.094	0.072	0.076	0.097	0.066	0.096	0.072	0.079	0.085	0.056	0.054	0.069	0.079	0.086	0.083	0.103
245.0	40.52	97.36	81.89	331.8	1533	1323	190.2	5.214	3.259	2.094	1.603	1.923	1.291	0.927	0.878	0.873	0.747	0.700	0.522	0.438	0.391	0.408	0.321	0.391	0.233	0.317	0.283	0.267	0.257	0.211	0.182	0.163	0.196	0.215	0.159	0.135	0.134	0.113	0.121	0.156	0.189	0.154	0.124	0.149	0.140	0.212	0.307	0.326	0.195	0.244	0.482	1.611	4.518	6.920	6.306	2.905	0.627	0.106	0.080	0.112	0.080	0.096	0.075	0.078	0.130	0.069	0.088	0.084	0.086	0.082	0.071	0.066	0.094	0.085	0.082	0.085	0.134
250.0	22.43	84.00	172.2	143.4	508.4	1396	1568	227.2	22.88	3.346	2.274	2.216	1.474	1.384	1.131	1.033	0.744	0.772	0.630	0.666	0.497	0.432	0.409	0.405	0.329	0.312	0.311	0.318	0.250	0.210	0.201	0.240	0.209	0.177	0.171	0.126	0.137	0.116	0.146	0.162	0.160	0.163	0.189	0.149	0.133	0.137	0.249	0.334	0.484	0.464	0.356	0.510	1.207	2.392	4.354	6.657	7.532	6.271	2.865	0.727	0.127	0.106	0.090	0.089	0.111	0.080	0.100	0.107	0.099	0.069	0.088	0.095	0.094	0.096	0.090	0.089	0.127
255.0	18.73	29.35	134.9	252.5	187.3	370.7	1370	2406	278.7	17.35	3.750	2.862	1.626	1.476	1.170	1.116	0.903	0.805	0.663	0.654	0.480	0.462	0.487	0.420	0.293	0.370	0.300	0.296	0.265	0.225	0.219	0.208	0.256	0.224	0.195	0.146	0.178	0.129	0.161	0.133	0.180	0.160	0.161	0.122	0.174	0.178	0.155	0.155	0.327	0.542	0.936	0.980	0.540	0.664	1.060	1.708	3.300	8.004	12.20	10.41	4.267	0.639	0.129	0.104	0.089	0.073	0.082	0.078	0.116	0.077	0.103	0.071	0.088	0.080	0.075	0.086	0.094
260.0	17.26	16.07	50.38	243.1	269.6	124.3	440.1	2199	2165	210.5	8.321	3.218	1.879	1.765	1.240	1.042	0.991	1.007	0.662	0.554	0.584	0.611	0.534	0.412	0.389	0.320	0.286	0.324	0.269	0.230	0.170	0.284	0.225	0.178	0.173	0.116	0.139	0.193	0.181	0.127	0.155	0.174	0.153	0.098	0.187	0.179	0.110	0.144	0.151	0.276	0.610	1.342	1.130	0.725	0.399	0.551	0.873	2.428	6.217	12.14	15.28	9.466	2.753	0.369	0.132	0.129	0.121	0.084	0.107	0.093	0.097	0.055	0.093	0.080	0.116	0.097	0.094
265.0	18.90	15.24	18.66	112.5	350.7	188.9	125.5	817.2	2803	1816	139.3	4.985	3.153	2.298	1.613	1.153	1.214	1.018	0.706	0.680	0.609	0.554	0.542	0.461	0.388	0.317	0.388	0.295	0.301	0.246	0.233	0.251	0.200	0.224	0.171	0.181	0.166	0.153	0.177	0.135	0.116	0.180	0.146	0.106	0.172	0.179	0.129	0.128	0.126	0.150	0.242	0.689	1.394	1.777	0.936	0.422	0.357	0.670	1.564	4.014	9.572	16.07	15.73	7.554	1.603	0.225	0.119	0.110	0.109	0.080	0.100	0.067	0.120	0.099	0.125	0.099	0.125
270.0	22.36	20.31	19.79	39.06	165.7	345.7	230.3	224.0	971.2	2455	2567	542.2	15.40	3.200	2.066	1.543	1.298	1.161	0.809	0.747	0.561	0.622	0.531	0.501	0.366	0.361	0.417	0.362	0.412	0.331	0.285	0.243	0.238	0.242	0.194	0.168	0.161	0.145	0.183	0.152	0.138	0.192	0.175	0.148	0.153	0.178	0.133	0.173	0.138	0.123	0.118	0.266	0.520	0.993	1.545	1.702	1.373	0.688	0.511	1.075	2.438	5.115	9.065	13.29	15.44	12.61	6.156	1.535	0.214	0.130	0.152	0.096	0.129	0.105	0.100	0.118	0.118
275.0	38.81	46.97	49.05	32.70	53.14	170.0	460.2	271.0	258.1	675.9	2465	3740	162.0	11.04	3.316	2.352	1.919	1.283	0.987	0.891	0.706	0.595	0.512	0.542	0.467	0.428	0.508	0.392	0.337	0.356	0.308	0.253	0.259	0.269	0.222	0.235	0.289	0.188	0.215	0.136	0.177	0.139	0.169	0.187	0.200	0.219	0.219	0.210	0.188	0.209	0.121	0.220	0.218	0.367	0.541	0.822	2.152	2.619	1.446	0.600	0.798	1.458	2.293	3.323	5.440	11.28	19.73	19.34	8.953	1.424	0.159	0.142	0.130	0.101	0.101	0.146	0.108
280.0	66.03	87.98	90.42	55.71	35.06	65.76	309.7	540.2	193.4	215.4	834.6	3398	3129	120.2	6.090	2.982	2.015	1.526	1.005	1.076	0.925	0.733	0.622	0.603	0.484	0.435	0.421	0.337	0.410	0.260	0.321	0.304	0.248	0.282	0.278	0.264	0.201	0.235	0.203	0.146	0.241	0.220	0.220	0.184	0.236	0.227	0.312	0.293	0.287	0.334	0.188	0.207	0.247	0.195	0.230	0.337	0.989	2.030	2.882	2.384	1.110	0.690	0.815	1.125	1.559	3.310	8.020	16.90	22.81	16.90	5.723	0.567	0.191	0.118	0.154	0.123	0.141
285.0	86.70	120.9	128.8	77.77	43.45	45.68	133.2	513.0	336.1	162.0	281.5	1238	3886	1137	75.72	4.255	2.344	1.771	1.388	1.390	0.994	0.687	0.812	0.613	0.541	0.457	0.405	0.397	0.413	0.247	0.312	0.295	0.275	0.347	0.308	0.301	0.250	0.218	0.192	0.159	0.194	0.186	0.257	0.249	0.228	0.385	0.369	0.466	0.433	0.335	0.345	0.249	0.314	0.240	0.185	0.222	0.460	0.783	1.633	3.148	3.261	1.651	0.743	0.713	0.752	1.169	2.327	5.107	11.32	19.72	23.08	13.32	3.314	0.331	0.216	0.148	0.182
290.0	107.1	169.0	180.8	114.5	74.45	67.05	96.09	246.9	544.5	498.9	236.0	417.0	1327	2553	2119	339.5	9.005	2.494	1.754	1.537	1.146	0.883	0.810	0.656	0.608	0.499	0.452	0.474	0.413	0.300	0.330	0.352	0.310	0.331	0.298	0.328	0.267	0.315	0.234	0.181	0.239	0.204	0.233	0.241	0.276	0.430	0.397	0.576	0.648	0.453	0.369	0.462	0.354	0.328	0.290	0.333	0.449	0.534	0.833	1.375	2.267	3.174	3.126	2.351	1.216	0.966	1.215	1.787	3.159	5.838	10.24	15.00	17.70	15.84	9.170	2.681	0.425
295.0	125.2	217.9	224.0	164.4	115.3	116.3	131.7	192.4	325.4	719.4	672.2	316.5	436.5	721.2	2066	3223	91.99	6.664	2.491	2.193	1.362	0.994	0.893	0.653	0.744	0.596	0.453	0.378	0.463	0.312	0.343	0.365	0.282	0.315	0.308	0.359	0.312	0.322	0.307	0.224	0.255	0.263	0.240	0.270	0.324	0.461	0.548	0.674	0.757	0.671	0.510	0.553	0.499	0.555	0.487	0.506	0.570	0.690	0.771	1.000	1.225	1.629	2.295	4.023	4.271	2.545	1.498	1.362	1.551	2.064	2.874	3.879	5.144	9.628	18.85	22.69	12.93
300.0	128.4	211.8	259.5	189.1	146.4	151.5	169.9	202.9	284.2	499.1	963.4	515.7	281.6	266.1	665.0	2919	2420	70.77	3.969	2.460	1.609	1.436	1.192	0.758	0.783	0.640	0.517	0.514	0.540	0.400	0.391	0.323	0.328	0.324	0.300	0.346	0.364	0.309	0.312	0.220	0.263	0.298	0.220	0.293	0.349	0.516	0.548	0.639	0.732	0.660	0.552	0.683	0.502	0.598	0.599	0.724	0.586	0.919	0.865	1.007	1.156	1.324	1.453	2.474	3.829	4.700	3.773	1.860	1.386	1.252	1.385	1.437	1.682	2.585	6.248	14.11	22.97
305.0	137.3	216.6	271.8	205.7	182.7	184.1	208.9	240.6	316.8	402.7	771.0	927.9	360.7	196.6	236.3	1008	3033	1775	47.79	3.342	1.942	1.544	1.365	0.967	0.729	0.687	0.640	0.514	0.508	0.455	0.490	0.371	0.361	0.352	0.323	0.363	0.314	0.328	0.297	0.284	0.246	0.284	0.299	0.268	0.385	0.415	0.508	0.719	0.679	0.758	0.676	0.703	0.652	0.751	0.752	0.822	0.845	0.970	1.055	1.123	1.162	1.429	1.451	1.889	2.406	3.597	5.022	4.514	2.501	1.641	1.263	1.110	1.046	1.032	1.890	3.915	8.902
310.0	139.4	220.4	269.3	238.0	209.6	215.6	247.0	285.2	361.6	383.5	520.6	793.5	754.5	313.3	170.7	304.2	1017	2150	1557	248.3	7.303	2.087	1.718	1.195	0.909	0.709	0.687	0.705	0.572	0.497	0.536	0.398	0.396	0.370	0.349	0.346	0.348	0.340	0.357	0.285	0.254	0.299	0.279	0.276	0.347	0.434	0.529	0.671	0.806	0.827	0.631	0.808	0.787	0.853	0.900	0.957	1.030	1.067	1.117	1.289	1.280	1.572	1.590	1.753	2.099	2.368	2.950	3.702	4.071	3.728	2.544	1.445	1.033	0.885	0.986	1.360	2.465
315.0	130.7	225.4	274.5	242.4	218.7	225.8	259.1	293.0	384.7	384.5	437.7	511.1	693.2	672.5	236.1	161.5	296.3	569.8	1551	2724	67.18	5.251	2.429	1.656	0.942	0.782	0.659	0.652	0.521	0.441	0.482	0.434	0.452	0.409	0.394	0.332	0.368	0.306	0.340	0.311	0.280	0.279	0.328	0.274	0.369	0.440	0.531	0.628	0.708	0.776	0.722	0.760	0.862	0.767	0.862	1.033	1.107	1.105	1.202	1.352	1.454	1.570	1.621	1.826	1.922	2.075	2.181	2.512	2.452	3.220	4.012	3.640	2.170	1.174	0.970	0.904	1.072
320.0	145.0	244.8	271.0	258.3	235.0	244.6	274.4	311.8	397.5	384.1	425.7	449.0	492.7	718.7	463.9	163.4	151.8	181.9	475.6	2370	1949	56.81	4.197	1.948	1.346	1.053	0.832	0.683	0.537	0.566	0.533	0.518	0.535	0.389	0.438	0.334	0.362	0.344	0.352	0.293	0.346	0.305	0.313	0.304	0.392	0.452	0.531	0.723	0.784	0.825	0.729	0.853	0.871	0.954	0.998	1.015	1.267	1.290	1.303	1.453	1.503	1.560	1.653	1.787	1.857	1.827	1.999	2.073	1.939	2.200	2.768	3.749	3.873	2.698	1.512	0.781	0.865
325.0	150.1	253.5	315.9	290.6	248.4	256.6	279.4	318.4	400.6	383.9	426.3	437.0	424.0	511.1	642.2	279.3	139.7	107.0	150.0	779.8	2387	1496	44.30	2.651	1.623	1.237	0.980	0.829	0.738	0.696	0.538	0.477	0.538	0.480	0.417	0.307	0.313	0.353	0.429	0.323	0.266	0.268	0.290	0.316	0.298	0.493	0.646	0.848	0.846	0.889	0.779	0.871	1.027	1.044	0.919	1.143	1.300	1.282	1.406	1.452	1.362	1.731	1.778	1.973	1.726	1.880	2.048	1.831	1.897	1.956	1.969	2.548	3.362	3.850	3.094	1.663	1.114
330.0	167.9	273.1	371.6	360.8	301.2	287.4	303.0	329.1	409.5	390.7	433.6	442.9	423.5	404.9	473.9	496.7	263.0	118.5	95.84	222.3	770.3	1721	1529	200.2	7.438	1.714	1.262	1.036	0.859	0.584	0.580	0.504	0.530	0.484	0.381	0.379	0.359	0.363	0.352	0.310	0.300	0.359	0.295	0.327	0.411	0.512	0.649	0.939	1.034	1.048	0.986	1.088	1.269	1.024	1.076	1.167	1.213	1.276	1.420	1.533	1.424	1.565	1.753	1.786	1.728	1.902	1.912	2.012	1.856	1.912	2.052	2.005	2.151	2.502	2.904	3.080	2.724
335.0	199.8	303.7	438.4	433.2	383.2	348.1	355.5	369.4	444.8	431.1	458.3	478.5	451.1	410.6	375.1	405.8	485.4	223.7	113.6	115.7	222.4	448.2	1442	1808	277.7	6.039	1.823	1.171	0.978	0.861	0.736	0.606	0.529	0.460	0.452	0.381	0.311	0.317	0.350	0.287	0.292	0.342	0.430	0.345	0.439	0.608	0.751	0.993	1.240	1.192	1.180	1.279	1.300	1.262	1.235	1.395	1.451	1.587	1.635	1.563	1.597	1.551	1.793	1.881	1.957	2.063	1.873	2.132	2.066	1.965	2.033	2.027	2.059	1.867	1.870	1.948	2.555
340.0	206.7	329.1	482.1	506.4	464.5	416.3	404.9	413.5	483.3	470.5	498.9	510.5	487.8	442.2	380.0	338.1	452.7	399.3	164.7	112.8	113.8	148.0	429.6	1521	1518	51.46	3.408	1.610	1.186	0.970	0.786	0.550	0.650	0.484	0.463	0.388	0.410	0.328	0.429	0.349	0.360	0.354	0.354	0.392	0.425	0.622	0.743	1.075	1.272	1.407	1.297	1.574	1.563	1.622	1.559	1.536	1.633	1.811	1.775	1.928	1.817	1.872	2.119	2.114	2.171	2.359	1.874	2.253	2.203	2.350	2.181	2.104	2.002	1.873	1.893	1.780	1.924
345.0	195.5	347.3	514.2	569.8	542.8	487.1	467.3	477.2	526.0	519.2	532.4	540.5	524.6	477.4	405.3	344.1	350.0	458.7	293.5	139.8	108.5	94.05	140.4	493.4	1635	1185	40.62	2.462	1.441	0.938	0.808	0.685	0.695	0.610	0.490	0.447	0.295	0.454	0.451	0.358	0.371	0.458	0.340	0.276	0.439	0.696	0.766	1.077	1.228	1.410	1.492	1.809	1.889	1.838	1.815	1.776	1.853	1.890	1.927	2.035	2.141	1.996	2.204	2.176	2.280	2.312	2.326	2.381	2.368	2.470	2.324	2.205	2.228	2.140	1.969	1.755	1.841
350.0	205.4	359.3	549.4	640.4	646.7	608.9	575.5	565.0	598.0	583.1	598.2	589.7	568.9	523.5	453.9	388.4	343.5	363.1	404.6	278.2	151.0	111.2	97.11	156.1	516.9	1170	954.3	191.0	9.548	1.401	0.961	0.775	0.739	0.517	0.477	0.448	0.368	0.417	0.426	0.327	0.321	0.336	0.352	0.307	0.438	0.572	0.728	1.171	1.409	1.560	1.726	2.214	2.296	2.209	2.240	2.035	2.351	2.359	2.363	2.480	2.297	2.356	2.570	2.519	2.437	2.500	2.662	2.467	2.521	2.541	2.465	2.622	2.362	2.292	2.239	2.154	2.072
355.0	219.7	376.7	578.1	714.5	762.6	758.4	708.9	671.6	683.6	657.4	666.3	660.8	624.0	581.5	514.6	447.5	386.5	344.8	349.5	408.9	272.9	153.1	116.2	104.2	164.0	307.3	786.1	1492	293.6	7.840	1.494	0.874	0.898	0.589	0.611	0.470	0.346	0.412	0.425	0.397	0.329	0.381	0.335	0.316	0.458	0.569	0.785	1.328	1.401	1.590	1.813	2.466	2.566	2.567	2.607	2.709	2.659	2.666	2.660	2.606	2.913	2.650	2.993	2.808	2.769	2.899	2.822	2.854	2.534	2.834	2.792	2.886	2.712	2.597	2.517	2.406	2.343
360.0	209.2	395.4	610.4	760.3	842.2	850.8	799.3	760.2	749.5	707.1	721.8	706.6	668.3	624.9	556.8	493.5	427.5	371.6	340.2	375.9	389.6	219.0	143.6	111.1	99.96	112.1	235.5	1097	1470	51.02	3.431	1.327	1.041	0.739	0.517	0.502	0.360	0.434	0.453	0.397	0.356	0.394	0.406	0.415	0.444	0.617	0.789	1.313	1.480	1.784	1.964	2.546	2.467	2.862	3.131	3.049	3.120	2.912	3.027	3.112	3.220	3.300	3.240	3.099	2.950	3.227	2.994	2.957	2.796	2.866	3.142	3.091	2.986	2.969	2.826	2.669	2.541
365.0	225.2	389.5	633.8	801.7	906.5	920.8	877.3	830.2	822.2	781.2	775.3	745.6	712.1	668.3	599.0	539.3	472.6	411.5	360.8	341.0	399.8	330.3	183.0	130.5	103.2	82.08	92.25	335.8	1347	1117	41.86	2.296	1.278	0.860	0.603	0.508	0.438	0.502	0.442	0.390	0.393	0.430	0.376	0.369	0.466	0.649	0.848	1.283	1.520	1.794	1.968	2.742	3.009	2.931	3.175	3.289	3.486	3.276	3.331	3.311	3.321	3.528	3.401	3.326	3.339	3.456	3.141	3.137	3.105	3.133	3.270	3.270	3.113	3.056	3.022	3.018	2.592
370.0	230.5	412.8	658.1	865.9	970.5	998.3	959.9	904.9	884.9	836.2	821.1	792.6	757.0	710.5	655.4	592.8	535.2	470.7	411.5	364.7	352.4	375.7	304.4	182.7	130.8	98.93	76.33	113.4	398.1	951.6	798.3	183.0	11.01	1.310	0.932	0.666	0.540	0.470	0.430	0.377	0.354	0.421	0.401	0.414	0.443	0.734	0.830	1.242	1.694	1.857	2.132	2.973	3.137	3.379	3.561	3.625	3.697	3.674	3.685	3.530	3.549	3.687	3.628	3.701	3.643	3.488	3.488	3.421	3.318	3.341	3.372	3.454	3.527	3.406	3.297	3.262	3.041
375.0	242.2	445.2	690.5	908.0	1040	1072	1030	968.7	939.6	890.4	874.4	840.2	804.9	760.6	710.4	655.2	598.6	533.6	466.8	411.4	362.4	338.4	367.9	295.7	175.4	127.6	94.96	80.36	124.6	243.8	571.4	1136	289.2	9.269	1.360	0.812	0.606	0.700	0.475	0.370	0.348	0.412	0.502	0.439	0.535	0.672	0.890	1.384	1.773	1.959	2.304	2.992	3.289	3.447	3.664	3.908	3.961	3.808	4.124	4.015	3.964	3.622	3.683	3.884	3.830	3.560	3.621	3.498	3.773	3.476	3.702	3.584	3.798	3.446	3.782	3.733	3.550
380.0	262.3	447.2	736.4	944.2	1086	1121	1081	1016	975.3	930.6	904.2	875.7	837.2	795.8	745.5	704.7	638.7	575.3	511.2	446.4	390.7	345.5	341.0	366.2	241.8	156.6	115.4	86.06	74.81	85.67	166.0	763.8	1311	44.20	3.778	1.066	0.827	0.646	0.557	0.325	0.401	0.444	0.523	0.469	0.517	0.822	1.021	1.398	1.848	1.863	2.393	3.332	3.321	3.495	3.831	4.114	4.110	4.081	4.058	4.153	3.891	3.817	3.683	3.810	3.899	3.843	3.831	3.535	3.843	3.749	3.770	3.833	4.173	3.670	4.024	3.841	4.072
385.0	272.8	474.7	757.9	982.4	1110	1132	1126	1058	1001	962.8	925.7	906.0	868.1	837.4	783.9	737.6	684.5	618.8	548.5	479.3	419.0	370.3	331.5	356.5	325.2	199.0	138.9	104.0	76.93	59.41	63.15	224.8	1068	885.7	36.43	2.067	1.107	0.687	0.629	0.475	0.432	0.432	0.446	0.442	0.485	0.793	1.088	1.370	1.786	2.102	2.505	3.366	3.523	3.790	4.061	4.313	4.355	4.363	4.422	4.121	3.951	3.774	3.820	4.024	4.035	3.952	3.644	3.684	3.988	3.851	3.785	4.028	4.183	4.004	3.968	3.825	4.245
390.0	262.4	496.0	777.0	1011	1132	1200	1157	1090	1023	979.0	939.4	916.5	899.6	868.6	829.7	783.4	740.1	668.4	599.5	523.0	456.8	399.8	353.1	328.8	335.2	290.5	187.0	130.3	97.04	68.56	52.42	74.56	299.6	650.7	711.9	149.9	9.312	1.025	0.831	0.554	0.514	0.401	0.478	0.509	0.587	0.856	1.068	1.398	1.933	2.128	2.584	3.434	3.865	3.899	4.112	4.223	4.619	4.532	4.448	4.353	4.206	4.167	3.946	4.185	4.055	4.007	3.873	3.758	4.255	3.964	3.960	4.184	4.184	4.219	4.289	4.269	4.229
395.0	271.0	513.4	836.3	1067	1168	1213	1208	1130	1053	987.1	948.4	929.8	917.4	897.2	862.5	830.8	782.3	713.2	644.0	565.2	491.4	427.3	382.0	340.2	311.3	313.9	269.1	169.0	119.4	89.00	63.73	51.03	88.57	162.8	387.6	812.8	226.3	8.245	1.115	0.761	0.519	0.463	0.524	0.577	0.664	0.812	1.197	1.384	2.076	2.297	2.665	3.573	3.829	4.120	4.028	4.320	4.653	4.507	4.599	4.507	4.273	4.429	4.193	4.333	3.793	4.005	3.914	4.160	4.116	3.937	4.048	4.025	4.419	3.933	4.423	4.620	4.534
400.0	280.4	536.3	820.7	1068	1189	1233	1229	1144	1056	993.6	953.4	931.4	924.6	906.3	884.5	839.8	806.9	741.4	666.9	587.3	512.4	452.1	403.9	356.9	309.9	295.8	303.6	222.5	142.2	107.4	75.37	53.33	47.58	55.09	107.9	505.7	771.5	38.09	3.782	0.956	0.629	0.481	0.546	0.649	0.611	0.843	1.280	1.553	2.231	2.418	2.774	3.460	3.819	4.185	4.162	4.299	4.644	4.373	4.753	4.411	4.385	4.296	4.233	4.231	3.989	3.957	3.740	4.131	4.012	4.024	4.128	4.340	4.324	4.066	4.479	4.346	4.498
405.0	283.8	557.4	864.8	1068	1197	1232	1238	1168	1077	993.8	958.5	937.3	911.6	900.5	877.6	847.3	817.0	760.0	680.1	601.9	530.0	467.5	415.7	369.3	322.4	288.2	283.8	270.6	177.0	122.2	88.34	62.11	44.82	35.11	39.23	143.4	587.0	627.6	33.46	1.960	0.720	0.643	0.616	0.599	0.764	0.886	1.176	1.704	1.951	2.374	2.584	3.524	3.819	4.263	4.341	4.486	4.578	4.647	4.893	4.639	4.491	4.409	4.157	4.176	3.940	3.944	3.917	4.144	3.872	3.982	4.081	4.028	4.364	4.391	4.715	4.497	4.912
410.0	279.2	553.3	861.6	1066	1187	1222	1221	1171	1070	989.5	942.5	920.3	896.7	883.0	864.2	844.5	816.2	765.6	693.0	613.9	538.1	479.0	428.0	379.4	333.5	293.7	265.0	265.2	237.1	159.2	106.4	75.30	53.51	36.90	28.91	45.78	162.1	446.5	741.1	135.6	7.850	0.843	0.754	0.628	0.750	0.926	1.247	1.685	2.018	2.316	2.595	3.501	4.006	4.468	4.355	4.474	4.625	4.664	5.044	4.783	4.343	4.207	4.304	4.040	4.010	3.947	3.865	3.801	3.865	3.963	3.917	4.215	4.350	4.449	4.512	4.468	4.851
415.0	272.8	542.9	837.3	1054	1149	1213	1206	1161	1048	971.0	926.1	895.2	869.7	847.8	841.1	816.9	794.1	751.0	683.9	611.1	535.8	482.6	433.4	384.5	341.1	299.5	264.8	241.6	241.6	213.1	135.0	90.00	64.89	45.39	32.70	27.13	48.54	109.6	388.6	596.4	192.4	6.682	1.138	0.706	0.753	0.948	1.160	1.588	2.069	2.430	2.568	3.524	3.964	4.167	4.361	4.459	4.721	4.710	4.836	4.527	4.489	4.092	4.228	4.123	4.004	3.688	3.724	3.824	3.710	3.922	3.920	4.084	4.260	4.387	4.385	4.463	4.745
420.0	268.0	545.3	832.2	1051	1132	1171	1187	1142	1036	955.4	897.9	864.0	829.6	824.4	807.8	793.9	774.3	730.7	674.8	597.8	530.4	471.2	425.9	387.6	339.2	301.2	268.4	235.3	220.9	226.4	171.3	103.2	72.07	52.67	36.26	26.82	25.13	34.17	101.5	355.0	568.6	34.93	3.345	0.942	0.766	0.910	1.231	1.737	2.095	2.274	2.529	3.270	3.643	3.954	4.011	4.163	4.924	4.861	4.789	4.437	4.379	4.011	4.074	3.929	3.843	3.532	3.622	3.740	3.451	3.669	3.890	3.934	4.208	4.068	4.224	4.212	4.693
425.0	264.0	510.4	786.8	1010	1095	1157	1163	1121	1018	934.8	879.8	835.6	795.3	791.2	781.4	765.7	746.0	706.6	653.8	583.9	523.4	466.1	421.8	379.9	337.7	301.7	271.4	235.8	212.6	208.6	199.4	127.9	82.41	58.59	42.10	30.70	22.45	19.45	31.24	97.81	418.0	460.3	30.84	1.606	0.869	0.845	1.348	1.617	2.022	2.203	2.449	3.434	3.654	3.950	4.000	4.096	4.504	4.553	4.498	4.297	4.348	3.972	4.068	3.974	3.739	3.498	3.566	3.392	3.532	3.503	3.548	3.926	3.866	4.020	3.873	4.201	4.260
430.0	248.1	467.1	771.4	969.5	1067	1107	1119	1077	1010	923.4	851.3	807.4	762.9	746.4	731.8	724.2	704.3	673.2	620.9	560.7	503.9	450.7	409.4	368.5	334.7	299.0	269.1	240.6	215.8	193.9	187.9	164.3	107.3	68.80	49.69	36.57	26.74	19.74	17.63	29.47	113.6	321.5	561.1	119.1	7.253	1.116	1.322	1.544	2.006	1.952	2.388	3.348	3.382	3.694	3.638	4.014	4.331	4.168	4.241	4.149	4.059	3.982	3.804	3.895	3.830	3.474	3.376	3.397	3.517	3.362	3.399	3.467	3.625	3.704	3.676	4.016	4.093
435.0	281.1	439.8	737.2	929.7	1015	1063	1050	1038	972.0	901.0	826.5	765.1	727.7	708.2	692.2	670.3	663.8	631.9	589.7	530.4	478.2	433.6	396.9	358.3	326.9	294.1	267.4	241.3	218.9	193.7	169.0	162.7	143.0	87.91	58.72	42.80	32.64	23.23	18.13	16.14	32.25	78.34	301.2	487.2	167.3	5.786	1.423	1.693	1.892	1.794	2.189	3.093	3.386	3.511	3.746	3.971	4.082	4.110	4.096	4.358	3.986	3.822	3.919	3.752	3.502	3.197	3.231	3.409	3.279	3.180	3.441	3.106	3.377	3.392	3.400	3.740	4.028
440.0	325.2	443.4	705.4	863.0	962.4	1026	1032	1003	949.1	884.2	799.9	745.7	690.8	677.3	652.8	637.0	623.1	598.8	559.1	509.9	459.2	417.1	380.9	350.5	317.3	289.7	265.1	241.7	218.1	195.7	167.9	147.7	150.8	112.1	68.02	49.23	36.07	27.02	19.71	14.24	14.87	22.96	78.41	306.1	481.9	31.24	2.956	1.665	1.905	1.979	2.151	2.856	3.013	3.311	3.659	3.785	4.068	3.800	4.058	4.182	4.035	3.756	3.894	3.308	3.533	3.282	3.104	3.043	3.030	3.219	3.243	3.262	3.195	3.041	3.209	3.619	3.745
445.0	326.5	474.8	652.0	828.0	913.0	976.5	992.0	966.1	922.1	848.5	779.7	723.9	668.2	634.7	612.8	601.7	582.4	562.4	528.1	485.4	439.4	399.1	363.6	338.6	307.6	283.0	261.2	238.8	218.1	194.2	167.0	142.3	136.3	128.8	84.73	54.42	40.46	30.48	22.18	16.31	12.73	11.57	22.55	85.15	376.4	391.5	24.73	2.039	1.834	1.852	2.133	2.605	2.858	3.071	3.310	3.448	3.895	3.848	3.953	3.874	3.961	3.628	3.527	3.304	3.215	3.469	3.170	2.956	2.721	3.046	3.043	3.191	3.090	3.003	3.177	3.390	3.216
450.0	267.1	589.9	632.0	766.4	847.8	892.6	911.2	918.8	871.2	811.5	742.9	669.6	626.8	584.1	561.3	549.4	530.6	512.8	480.6	443.5	402.6	369.1	337.3	314.6	291.1	269.2	249.1	232.8	213.2	192.0	168.6	142.4	123.7	118.1	104.9	68.58	45.71	33.86	25.87	18.86	14.15	10.34	10.91	23.57	103.0	285.4	318.2	103.3	6.032	1.904	2.029	2.558	2.935	3.024	3.078	3.167	3.716	3.594	3.522	3.487	3.653	3.374	3.397	3.125	3.280	3.146	2.953	2.833	2.769	2.675	2.782	2.835	2.952	2.723	2.913	2.861	3.016
455.0	185.9	601.9	794.6	690.5	783.1	796.1	846.1	845.8	800.1	748.5	686.6	625.9	570.9	538.4	508.4	482.1	475.9	459.1	426.5	399.4	366.8	334.3	306.6	289.9	268.8	250.9	232.3	220.2	202.9	187.0	165.1	139.7	118.4	103.2	99.23	88.24	56.56	37.93	28.81	21.39	16.16	12.21	9.769	10.74	27.05	68.41	180.3	408.9	129.4	5.261	1.940	2.588	2.548	2.872	2.928	3.008	3.380	3.301	3.272	3.242	3.261	3.203	3.181	2.894	3.043	2.933	2.667	2.692	2.519	2.630	2.640	2.541	2.605	2.616	2.887	2.754	2.808
460.0	158.9	473.6	951.2	697.1	718.5	746.0	790.1	782.8	759.9	701.4	641.3	584.0	538.5	499.6	463.3	441.8	435.0	415.9	387.6	361.4	331.2	309.0	286.3	266.4	250.9	235.1	220.5	209.5	195.1	180.5	160.6	137.9	116.6	97.40	87.46	89.65	69.73	42.72	31.15	23.64	17.87	13.58	10.34	8.353	10.61	19.07	47.44	250.9	368.4	23.73	2.919	2.415	2.459	2.668	2.603	2.668	2.859	3.079	2.873	3.180	3.151	3.136	3.050	2.940	2.773	2.609	2.771	2.310	2.419	2.475	2.418	2.267	2.400	2.486	2.537	2.487	2.598
465.0	140.3	353.1	999.2	819.5	672.7	680.7	726.4	745.3	712.9	662.4	598.4	550.7	503.7	462.8	426.6	405.4	395.9	380.1	360.9	330.1	304.0	282.5	265.8	246.3	235.4	222.2	206.7	196.7	185.9	172.5	156.1	136.2	114.4	94.51	79.62	79.56	76.77	50.46	33.05	25.05	18.98	14.44	10.97	8.423	7.400	8.174	13.97	69.49	294.4	288.0	19.82	2.709	2.392	2.321	2.308	2.846	2.929	2.753	2.914	3.112	2.857	2.727	2.807	2.638	2.582	2.528	2.509	2.269	2.528	2.281	2.176	2.276	2.044	2.200	2.423	2.260	2.353
470.0	122.3	264.3	706.2	1118	685.2	627.8	644.9	666.9	643.7	604.6	546.4	502.1	451.6	407.9	383.6	360.8	346.7	334.8	313.5	290.0	268.7	250.9	232.9	223.7	209.9	199.1	187.7	180.8	170.7	160.8	146.4	127.5	109.6	91.80	76.28	67.89	66.80	59.58	40.43	27.17	20.13	15.85	12.05	9.504	7.491	6.177	6.592	18.68	80.41	210.0	214.5	88.21	5.606	2.284	2.287	2.461	2.695	2.559	2.592	2.670	2.723	2.598	2.504	2.524	2.327	2.417	2.339	2.065	2.140	2.006	2.012	2.064	1.973	2.078	2.033	2.056	2.100
475.0	124.5	220.2	427.5	1091	967.0	563.3	575.5	589.1	575.9	543.5	499.1	450.2	403.3	356.5	338.9	311.2	298.5	289.7	269.5	251.4	234.0	218.9	204.7	196.4	184.0	177.2	167.2	161.7	155.3	147.6	134.8	118.6	102.1	86.87	72.55	61.91	55.03	54.20	50.16	31.80	21.22	16.77	12.97	10.56	8.558	6.339	5.143	7.450	20.56	49.97	111.2	271.3	99.02	5.104	2.243	2.127	2.265	2.393	2.429	2.442	2.386	2.421	2.271	2.215	2.255	2.174	2.047	1.988	1.855	1.909	1.859	1.795	1.768	1.798	1.649	1.714	1.838
480.0	121.4	201.3	327.4	786.1	1247	583.5	525.8	541.8	531.9	503.7	462.9	414.5	368.8	327.6	302.4	284.7	270.2	257.7	243.8	228.5	208.6	199.4	186.3	178.7	168.4	163.4	157.0	150.7	143.9	139.2	129.0	110.8	98.09	83.34	70.55	59.78	50.62	46.19	50.82	39.82	23.67	17.38	13.92	10.96	8.831	7.011	5.305	4.907	7.562	13.74	29.06	153.5	230.2	27.13	2.804	2.022	2.052	2.197	2.205	2.271	2.061	2.165	2.084	2.024	2.110	1.936	1.774	1.818	1.745	1.766	1.610	1.619	1.627	1.537	1.537	1.548	1.506
485.0	116.1	205.4	301.2	517.4	1262	768.3	495.2	507.0	490.7	465.3	435.1	386.9	346.3	310.6	280.4	255.7	245.8	233.1	223.1	208.2	192.6	181.3	172.1	163.6	155.2	151.6	146.7	141.0	136.8	132.3	118.1	105.4	93.51	80.41	68.48	57.82	49.56	42.68	44.51	43.53	29.36	18.98	14.06	11.68	9.136	7.424	5.651	4.669	4.567	5.813	8.829	42.64	196.7	209.5	21.96	2.210	2.018	2.109	2.037	1.996	2.142	1.999	2.021	1.920	1.938	1.874	1.602	1.671	1.607	1.685	1.468	1.662	1.500	1.461	1.465	1.603	1.376
490.0	99.83	197.1	284.6	366.9	850.3	1199	506.1	457.7	450.8	427.9	394.3	358.1	315.1	281.4	249.4	230.5	219.3	207.0	196.9	185.1	170.9	162.3	155.1	146.9	142.7	137.2	133.4	129.1	125.3	120.1	110.1	98.78	87.04	75.70	65.04	55.84	48.68	40.73	37.07	38.32	34.93	23.74	15.61	12.07	9.683	7.584	6.369	5.127	4.084	3.929	4.344	11.74	53.58	147.5	203.7	89.42	6.175	1.943	1.911	1.854	1.896	1.867	1.946	1.875	1.782	1.656	1.495	1.656	1.508	1.484	1.401	1.415	1.266	1.441	1.362	1.344	1.325
495.0	75.33	175.6	271.2	307.6	479.7	1259	795.3	408.3	399.4	384.6	360.1	323.0	286.5	246.3	221.9	204.3	190.1	182.2	170.7	161.1	149.1	140.9	136.3	130.3	127.9	123.0	119.0	116.8	113.6	108.6	102.1	91.18	79.95	70.70	61.18	53.11	45.71	39.14	34.03	30.86	33.31	29.72	18.76	13.17	10.17	8.598	6.653	5.508	4.491	3.662	3.231	4.698	14.23	35.45	104.7	263.7	107.4	5.078	1.822	1.761	1.789	1.643	1.742	1.734	1.566	1.438	1.494	1.380	1.277	1.271	1.306	1.195	1.062	1.253	1.227	1.271	1.202
500.0	67.34	150.5	276.0	287.3	335.5	912.8	1119	416.4	361.9	353.0	328.6	296.3	258.1	221.7	200.2	185.4	173.9	163.0	151.8	144.0	133.9	129.3	122.9	118.5	114.8	111.7	109.2	107.1	104.3	101.4	94.76	85.12	74.46	65.19	58.44	50.08	42.99	38.05	31.71	27.41	27.08	30.06	23.00	14.21	10.22	8.358	6.873	5.667	4.788	3.833	2.876	3.121	5.097	9.751	27.10	144.0	251.9	29.50	2.881	1.417	1.792	1.609	1.517	1.566	1.488	1.417	1.281	1.347	1.246	1.126	1.231	1.194	1.168	1.224	1.084	1.105	1.189
505.0	65.53	123.7	256.3	272.7	284.6	522.1	1212	572.1	339.9	320.0	301.6	270.5	237.8	203.1	186.2	165.9	156.2	145.5	137.3	129.0	121.2	116.6	111.0	107.0	102.1	103.2	98.75	96.78	95.53	91.47	85.93	79.40	70.22	61.65	54.91	47.41	41.62	34.93	30.31	25.54	23.09	25.99	25.79	16.90	10.44	8.394	6.830	5.914	4.850	4.061	3.179	2.990	2.972	4.104	7.830	38.73	179.0	216.0	23.88	1.837	1.632	1.458	1.464	1.569	1.369	1.305	1.292	1.274	1.052	1.022	0.963	0.993	1.154	1.123	1.070	0.976	0.938
510.0	51.64	95.95	205.3	285.3	252.8	320.6	791.6	1005	341.2	282.7	267.3	237.7	205.9	180.3	158.2	142.9	134.8	125.6	118.4	110.6	106.7	100.1	95.46	91.72	90.37	87.52	85.97	83.63	83.82	80.41	75.11	70.59	62.66	55.68	49.18	42.63	38.02	32.59	28.01	23.78	20.73	19.67	21.82	20.24	12.70	8.650	6.860	5.696	4.528	3.992	3.659	3.015	2.560	2.618	3.397	10.21	47.45	134.0	179.0	71.73	5.588	1.327	1.269	1.360	1.257	1.229	1.096	1.089	1.009	0.907	0.954	0.872	0.918	0.901	0.889	0.874	0.783
515.0	43.67	85.58	156.3	268.7	233.1	242.1	388.8	1100	585.9	245.5	233.6	210.8	177.4	159.3	137.0	120.0	115.2	106.8	102.0	94.03	88.79	84.03	81.32	78.82	76.62	75.90	73.80	72.52	70.91	71.09	65.43	60.96	55.70	49.77	43.36	37.88	33.96	29.74	25.31	21.76	19.15	16.51	16.05	18.72	16.75	10.24	6.957	5.301	4.442	3.782	3.377	3.396	2.646	2.361	2.226	3.778	11.95	31.35	79.83	190.3	88.42	4.966	1.219	1.122	1.145	0.971	0.921	0.901	0.856	0.859	0.764	0.765	0.753	0.833	0.893	0.708	0.758
520.0	40.71	81.39	119.3	224.0	250.2	209.0	251.6	770.5	921.6	252.2	209.1	184.0	158.7	141.3	121.3	108.7	100.5	93.21	90.40	85.16	79.95	75.39	72.22	70.08	67.30	67.53	66.53	64.17	64.04	63.01	59.44	55.21	49.36	44.89	39.79	35.26	31.08	27.27	23.85	19.84	17.93	15.34	13.58	15.03	17.32	12.40	7.349	5.073	4.374	3.623	3.131	3.371	2.811	2.332	1.988	2.302	4.033	8.349	20.25	95.96	187.5	29.93	2.643	1.147	0.986	1.038	0.889	0.816	0.849	0.812	0.862	0.838	0.635	0.723	0.831	0.719	0.747
525.0	34.35	70.84	108.5	175.4	246.2	191.2	205.3	418.8	1083	386.6	189.3	166.5	144.6	126.0	109.7	99.77	88.70	85.53	79.85	75.53	72.17	65.17	65.25	63.29	60.46	59.81	59.10	57.98	56.66	56.19	55.17	49.31	44.64	40.07	36.52	31.77	29.13	24.31	21.94	19.12	16.41	14.25	12.64	11.38	14.48	14.33	8.884	5.264	4.246	3.938	3.021	3.008	2.890	2.277	1.878	1.979	2.277	3.230	5.619	25.06	113.8	163.6	24.93	1.531	1.027	0.911	0.888	0.706	0.774	0.722	0.635	0.555	0.547	0.668	0.705	0.663	0.591
530.0	27.08	55.35	92.43	133.1	221.7	201.5	166.2	227.7	720.3	801.7	200.7	145.3	125.5	108.5	94.05	85.95	78.03	71.90	68.72	63.70	60.90	56.05	55.23	54.11	53.16	51.18	50.54	49.25	50.18	48.46	46.83	43.22	38.47	35.28	31.18	27.96	25.28	21.80	19.58	17.10	14.69	12.79	11.20	9.581	10.40	12.33	10.82	6.833	4.336	3.443	2.931	2.678	2.593	2.503	2.059	1.772	1.677	1.928	2.371	6.535	29.04	88.40	123.1	60.53	6.174	0.848	0.740	0.719	0.704	0.630	0.567	0.591	0.525	0.577	0.580	0.543	0.580
535.0	23.56	45.81	83.68	105.3	165.6	219.4	150.5	161.4	303.4	920.9	442.4	124.8	106.1	92.32	81.93	71.77	63.81	59.63	57.48	53.25	49.79	47.77	46.82	45.62	43.75	43.37	42.94	41.43	42.63	40.69	39.06	37.07	33.04	30.48	27.28	23.85	21.66	19.30	17.09	14.76	12.88	11.34	9.691	8.452	8.075	8.284	10.06	8.829	5.083	3.384	2.776	2.472	2.388	1.994	2.386	1.969	1.605	1.499	1.534	2.509	7.362	20.65	45.46	128.0	79.07	5.266	0.732	0.673	0.661	0.617	0.594	0.481	0.478	0.525	0.526	0.487	0.473
540.0	29.70	37.76	75.70	93.10	115.6	199.0	155.2	133.1	169.1	616.5	814.1	127.9	93.13	79.97	70.55	64.34	56.58	52.98	51.35	45.55	43.50	41.28	40.20	39.58	38.14	37.91	37.17	35.98	36.35	35.75	34.13	32.98	29.23	26.31	23.97	21.26	19.30	17.34	15.43	13.70	11.70	9.997	8.618	7.941	7.136	6.383	7.697	9.091	6.564	3.410	2.599	2.392	1.958	1.806	2.141	2.385	1.531	1.319	1.328	1.464	2.533	5.405	11.35	56.12	137.3	31.09	2.735	0.600	0.606	0.521	0.568	0.441	0.473	0.540	0.448	0.429	0.461
545.0	26.76	38.99	66.12	77.69	95.32	159.6	170.0	119.5	124.5	299.8	1018	199.8	82.16	71.25	62.06	54.51	47.95	46.11	44.19	39.82	37.15	35.87	35.28	33.99	33.90	33.25	32.15	32.09	31.62	31.94	30.32	29.21	25.43	23.62	20.79	19.17	17.25	15.18	13.40	12.42	10.49	9.494	7.715	6.952	6.230	5.374	5.599	7.529	7.335	3.997	2.500	2.240	1.616	1.794	1.799	1.986	1.919	1.249	1.112	1.159	1.419	1.947	3.260	14.01	70.06	115.5	25.27	1.292	0.524	0.466	0.447	0.361	0.489	0.433	0.345	0.374	0.356
550.0	21.26	37.26	54.16	63.19	75.40	105.4	173.6	107.5	100.6	144.2	625.2	580.3	92.49	59.01	52.31	45.07	40.26	38.60	36.17	32.54	31.16	29.70	29.02	28.40	27.58	25.92	25.98	26.41	26.41	26.20	25.28	23.66	21.14	19.60	17.70	16.18	14.42	12.67	11.46	10.23	9.221	7.792	6.701	5.983	5.370	4.532	4.249	5.229	6.334	5.136	3.058	2.123	1.594	1.649	1.484	1.520	1.683	1.471	1.005	0.923	1.060	1.081	1.422	3.751	17.12	52.01	83.40	47.73	6.079	0.435	0.413	0.400	0.361	0.358	0.343	0.296	0.350
555.0	17.84	31.28	49.05	51.28	60.96	70.65	129.8	129.8	82.78	90.81	222.8	719.6	182.1	49.93	40.88	36.03	33.10	30.36	28.18	26.14	25.07	22.90	23.12	23.13	22.04	20.93	21.98	21.54	21.32	21.50	20.15	19.23	17.31	15.97	14.24	13.29	11.59	10.57	9.343	8.401	7.186	6.632	5.802	5.025	4.463	4.130	3.601	3.475	3.969	4.949	3.919	2.525	1.471	1.455	1.194	1.157	1.246	1.337	1.334	0.940	0.863	0.828	0.846	1.416	4.442	12.00	25.88	75.99	60.77	5.808	0.386	0.352	0.295	0.239	0.292	0.287	0.280
560.0	26.07	31.83	40.05	48.18	52.85	54.14	94.74	147.1	79.89	71.15	99.43	464.2	506.9	53.48	34.76	31.29	26.78	25.46	22.90	22.49	20.67	19.76	18.98	18.50	18.64	17.62	18.02	17.49	18.31	18.30	16.03	15.31	13.91	12.90	12.42	11.21	10.00	8.937	7.824	7.172	5.979	5.526	4.811	4.330	3.852	3.578	2.949	2.722	2.731	4.052	4.399	3.025	1.423	1.173	1.138	1.144	1.112	1.098	1.330	1.008	0.723	0.659	0.623	0.741	1.412	3.144	6.300	28.20	82.66	31.17	2.550	0.326	0.320	0.278	0.288	0.220	0.296
565.0	23.85	34.95	39.02	42.62	43.22	48.20	66.59	137.4	83.24	63.48	65.23	206.1	667.4	110.6	29.72	26.29	23.21	21.56	20.14	18.67	17.78	17.00	16.48	15.84	15.36	14.74	15.02	14.94	15.12	15.23	13.75	13.38	11.61	11.07	10.38	9.151	8.378	7.549	6.734	6.149	5.588	4.650	4.162	3.735	3.256	3.109	2.681	2.325	2.146	2.646	3.613	3.385	1.892	1.166	0.973	0.952	0.905	0.933	1.129	1.237	0.807	0.600	0.552	0.556	0.648	1.094	1.760	6.872	35.05	71.71	24.18	1.060	0.289	0.256	0.229	0.231	0.242
570.0	23.34	28.66	38.54	38.57	36.04	36.67	46.58	93.44	110.5	57.19	53.39	84.10	407.8	394.7	37.45	20.37	19.31	17.72	15.85	14.75	13.66	13.64	13.08	12.53	12.41	11.78	11.76	11.94	11.86	11.66	11.32	10.64	9.550	8.739	8.177	7.379	6.858	5.866	5.512	5.034	4.478	3.848	3.569	3.205	2.583	2.363	2.086	2.003	1.733	1.659	2.243	2.769	2.345	1.300	0.891	0.814	0.715	0.737	0.797	0.907	0.946	0.744	0.530	0.469	0.457	0.566	0.739	1.800	8.388	27.35	47.70	33.06	5.460	0.292	0.210	0.223	0.194
575.0	24.73	26.39	35.08	32.26	32.03	33.02	35.89	56.10	120.0	69.44	47.84	50.37	132.6	505.8	116.6	17.27	15.17	13.31	12.00	11.53	10.54	10.16	10.42	10.88	9.956	9.593	8.915	9.858	9.296	9.062	9.065	8.458	7.747	6.872	6.228	5.660	5.507	4.993	4.401	3.846	3.596	3.228	2.829	2.561	2.330	1.851	1.641	1.519	1.370	1.229	1.297	1.764	2.068	1.708	1.079	0.729	0.594	0.640	0.611	0.612	0.792	1.060	0.721	0.433	0.463	0.472	0.440	0.681	2.180	6.371	13.16	39.68	32.50	5.211	0.262	0.232	0.188
580.0	21.77	26.54	32.46	28.42	26.06	30.77	30.59	40.71	94.92	91.23	45.76	39.45	54.15	323.3	336.2	18.62	12.91	12.04	10.22	9.307	8.884	8.736	8.183	8.864	8.266	8.022	7.660	8.349	7.701	7.729	7.161	6.743	6.204	5.622	5.206	5.130	4.576	4.287	3.595	3.213	2.848	2.679	2.386	2.305	2.003	1.691	1.446	1.302	1.169	1.080	0.982	1.125	1.841	1.864	1.264	0.651	0.577	0.607	0.483	0.563	0.587	0.762	0.919	0.483	0.383	0.426	0.322	0.384	0.736	1.633	3.232	13.23	43.83	28.83	2.525	0.185	0.154
585.0	16.28	23.97	30.00	27.86	26.26	26.26	27.08	36.26	65.77	104.8	46.91	36.83	34.21	130.5	455.1	51.06	11.23	9.635	8.835	8.370	7.549	7.763	7.327	7.337	6.877	6.940	6.416	6.550	6.512	6.600	6.187	5.990	5.245	4.929	4.691	4.317	4.026	3.627	3.247	2.863	2.458	2.444	2.139	1.781	1.665	1.311	1.333	1.215	1.044	0.974	0.910	0.879	1.098	1.709	1.496	0.797	0.518	0.522	0.503	0.565	0.415	0.562	0.888	0.724	0.384	0.346	0.314	0.303	0.354	0.617	0.903	3.225	17.19	44.05	20.79	1.062	0.203
590.0	18.10	23.75	29.13	24.54	25.00	25.75	27.59	31.64	44.86	97.04	65.24	35.55	29.93	46.99	277.8	196.4	13.85	7.966	7.166	6.792	6.333	5.974	6.088	5.871	5.738	5.570	5.103	5.388	5.201	5.152	4.727	4.865	4.324	3.812	3.768	3.494	3.142	2.877	2.594	2.376	1.960	1.820	1.666	1.489	1.406	1.136	1.161	1.005	0.859	0.816	0.747	0.622	0.714	1.153	1.424	1.171	0.711	0.450	0.415	0.470	0.384	0.364	0.608	0.786	0.658	0.351	0.351	0.264	0.289	0.339	0.384	0.901	4.088	15.71	30.17	21.76	3.859
595.0	18.19	22.72	23.68	25.59	21.08	22.38	25.22	27.72	33.85	62.75	89.06	37.32	26.85	24.98	85.07	305.4	64.24	6.489	6.061	5.515	5.028	4.734	4.525	4.431	4.432	4.144	3.973	4.277	4.155	3.977	3.516	3.744	3.462	2.822	2.902	2.515	2.386	2.206	2.082	1.873	1.585	1.678	1.305	1.269	1.054	0.952	0.816	0.812	0.755	0.639	0.615	0.587	0.578	0.645	1.068	1.378	1.048	0.465	0.404	0.357	0.367	0.318	0.385	0.480	0.777	0.628	0.343	0.292	0.222	0.260	0.223	0.357	1.058	3.633	8.111	23.68	26.08
600.0	18.51	18.40	22.89	22.15	20.56	20.73	22.89	25.60	28.59	42.88	90.55	43.53	24.14	18.61	28.76	203.2	182.4	7.997	5.231	4.554	4.295	4.054	3.953	3.697	3.701	3.463	3.514	3.637	3.430	3.523	2.989	3.399	2.885	2.399	2.359	2.374	2.015	1.858	1.727	1.748	1.316	1.184	1.118	1.086	0.918	0.835	0.726	0.671	0.697	0.478	0.502	0.517	0.448	0.543	0.712	1.020	1.068	0.594	0.404	0.321	0.335	0.281	0.338	0.328	0.470	0.782	0.396	0.258	0.291	0.224	0.195	0.189	0.363	0.994	1.942	7.668	26.41
605.0	18.48	20.54	22.18	20.73	19.44	18.94	22.08	22.62	28.36	34.62	75.21	56.15	23.37	17.01	15.74	82.67	264.6	23.91	4.244	3.986	3.383	3.382	3.374	3.069	3.338	2.963	2.928	2.977	2.931	2.890	2.553	2.679	2.624	2.118	2.050	1.845	1.775	1.560	1.336	1.337	1.071	1.013	0.932	0.926	0.862	0.645	0.748	0.563	0.625	0.479	0.487	0.399	0.453	0.433	0.505	0.663	1.063	0.829	0.429	0.275	0.323	0.319	0.312	0.303	0.370	0.553	0.575	0.410	0.310	0.229	0.197	0.174	0.224	0.364	0.595	1.904	9.659
610.0	17.66	16.35	20.77	18.94	17.42	17.04	20.51	23.16	25.70	29.53	52.17	72.52	27.79	16.58	12.91	26.56	177.5	124.3	5.504	3.151	2.861	2.960	2.692	2.551	2.546	2.368	2.405	2.195	2.278	2.257	2.184	2.235	2.085	1.661	1.634	1.482	1.375	1.259	1.161	1.117	0.895	0.834	0.791	0.789	0.692	0.573	0.585	0.554	0.471	0.418	0.407	0.395	0.361	0.350	0.367	0.462	0.785	0.834	0.549	0.386	0.270	0.278	0.293	0.255	0.301	0.345	0.516	0.441	0.319	0.226	0.187	0.171	0.145	0.206	0.259	0.550	2.315
615.0	11.81	14.03	17.80	20.45	15.31	16.59	18.85	21.13	22.78	26.63	35.93	67.17	43.05	15.39	11.28	12.00	56.70	199.8	35.31	2.912	2.164	2.230	2.196	1.903	2.102	1.968	1.856	1.555	1.865	2.011	1.887	1.610	1.568	1.355	1.246	1.181	1.064	1.093	0.887	0.938	0.782	0.745	0.606	0.582	0.580	0.539	0.523	0.388	0.326	0.316	0.361	0.325	0.321	0.320	0.225	0.299	0.490	0.759	0.616	0.435	0.269	0.268	0.287	0.233	0.255	0.253	0.336	0.459	0.408	0.288	0.209	0.166	0.156	0.215	0.186	0.219	0.685
620.0	12.15	14.39	18.38	19.64	15.10	15.68	18.03	20.55	22.00	24.93	28.77	51.74	53.19	16.21	11.57	8.636	18.53	145.2	82.74	3.369	1.980	1.979	2.048	1.555	1.675	1.571	1.531	1.464	1.584	1.518	1.642	1.205	1.202	1.167	1.026	0.911	0.913	0.835	0.909	0.705	0.639	0.630	0.517	0.533	0.404	0.440	0.412	0.344	0.282	0.334	0.255	0.275	0.330	0.232	0.249	0.257	0.349	0.463	0.631	0.514	0.337	0.211	0.241	0.216	0.244	0.264	0.248	0.369	0.424	0.426	0.211	0.162	0.142	0.160	0.152	0.156	0.283
625.0	11.28	12.43	16.41	14.74	13.50	14.31	17.15	17.94	21.62	21.96	25.29	36.74	57.53	19.84	10.46	7.668	8.813	63.28	171.4	12.53	1.874	1.831	1.666	1.518	1.478	1.368	1.299	1.268	1.355	1.275	1.297	1.134	1.035	0.944	0.876	0.716	0.873	0.756	0.640	0.558	0.534	0.560	0.396	0.440	0.298	0.382	0.373	0.321	0.242	0.296	0.256	0.245	0.233	0.239	0.145	0.214	0.244	0.261	0.522	0.501	0.330	0.235	0.254	0.238	0.217	0.198	0.191	0.218	0.336	0.468	0.250	0.215	0.117	0.152	0.125	0.149	0.174
630.0	9.899	13.07	14.98	14.29	13.29	14.00	15.61	16.32	20.09	20.17	23.05	27.58	47.24	30.95	10.31	7.362	6.345	19.10	129.9	94.21	2.700	1.464	1.412	1.047	1.173	1.019	1.026	0.996	1.102	1.037	0.963	0.994	0.857	0.712	0.757	0.643	0.676	0.624	0.591	0.466	0.420	0.434	0.369	0.360	0.311	0.303	0.284	0.280	0.216	0.214	0.213	0.180	0.214	0.211	0.139	0.223	0.192	0.188	0.281	0.414	0.416	0.321	0.247	0.207	0.167	0.207	0.198	0.169	0.194	0.366	0.378	0.239	0.121	0.177	0.123	0.141	0.162
635.0	8.057	12.48	15.17	12.81	13.08	12.33	14.55	14.42	18.69	20.80	22.12	21.63	29.30	41.41	13.47	7.068	5.890	7.336	42.10	172.7	20.62	1.149	1.206	0.847	0.939	0.834	0.847	0.671	0.897	0.838	0.763	0.700	0.679	0.576	0.583	0.511	0.511	0.380	0.366	0.398	0.385	0.380	0.300	0.229	0.309	0.256	0.224	0.218	0.250	0.162	0.157	0.179	0.208	0.187	0.127	0.194	0.162	0.189	0.242	0.266	0.347	0.315	0.282	0.282	0.155	0.236	0.171	0.159	0.165	0.253	0.306	0.392	0.168	0.175	0.151	0.121	0.118
640.0	8.276	11.28	14.12	13.73	15.13	12.91	15.64	15.04	17.77	18.65	21.34	21.10	22.44	38.91	19.56	8.160	5.635	4.929	12.24	136.5	63.98	1.415	1.177	0.700	0.941	0.806	0.818	0.599	0.735	0.598	0.671	0.609	0.541	0.505	0.486	0.361	0.465	0.351	0.345	0.320	0.273	0.297	0.232	0.242	0.227	0.201	0.181	0.211	0.204	0.181	0.143	0.148	0.179	0.182	0.143	0.167	0.159	0.156	0.189	0.226	0.277	0.303	0.279	0.257	0.185	0.196	0.130	0.126	0.198	0.239	0.197	0.283	0.197	0.141	0.115	0.120	0.139
645.0	11.27	10.52	17.94	12.95	12.07	13.72	14.01	14.85	18.11	19.00	19.22	19.36	18.93	32.19	26.65	8.111	6.017	4.109	4.722	64.27	126.4	6.462	0.907	0.820	0.825	0.833	0.696	0.580	0.556	0.600	0.509	0.530	0.446	0.503	0.389	0.407	0.349	0.310	0.274	0.306	0.250	0.332	0.216	0.262	0.306	0.227	0.125	0.212	0.252	0.165	0.149	0.143	0.142	0.162	0.184	0.126	0.142	0.143	0.173	0.190	0.205	0.314	0.349	0.258	0.229	0.184	0.145	0.146	0.220	0.186	0.140	0.222	0.258	0.251	0.119	0.095	0.142
650.0	13.26	14.12	14.26	14.42	11.66	11.30	13.86	12.47	15.92	17.85	17.60	18.15	17.61	23.50	29.75	10.07	5.802	4.101	3.400	20.35	130.5	33.10	0.892	0.727	0.608	0.574	0.624	0.558	0.416	0.604	0.536	0.418	0.460	0.385	0.376	0.393	0.305	0.252	0.313	0.266	0.283	0.277	0.216	0.206	0.185	0.229	0.124	0.218	0.195	0.158	0.150	0.154	0.127	0.136	0.154	0.176	0.200	0.181	0.163	0.150	0.155	0.216	0.248	0.221	0.207	0.201	0.129	0.152	0.168	0.091	0.112	0.144	0.254	0.289	0.198	0.104	0.138
