Sample:	'1
File name:	Default_20231105_110820.FD3
Run date:	'11:01:59, 11/05/2023
Operator:	dsjg
Comment:	'

Instrument
Model:	F-2700 FL Spectrophotometer
Serial number:	2198-001
ROM Version:	4J14000 07

Instrument parameters
Measurement type:	3-D scan
Data mode:	Fluorescence
EX  Start WL:	220.0 nm
EX  End WL:	600.0 nm
EX Sampling interval:	5.0 nm
EM  Start WL:	230.0 nm
EM  End WL:	650.0 nm
EM Sampling interval:	5.0 nm
Scan speed:	12000 nm/min
EX Slit:	5.0 nm
EM Slit:	5.0 nm
PMT Voltage:	700 V
Response:	Auto 
Corrected spectra:	Off
Contour interval:	50.000

Peak integration
Integration method:	Rectangular
Sensitivity:	1
Threshold:	1.000

Peaks
No.	ApexEX/EM(nm)	Height(Data)
1	230.0/345.0	 1449
2	240.0/265.0	151.9
3	245.0/270.0	139.0
4	260.0/570.0	55.65
5	265.0/580.0	47.16
6	270.0/300.0	510.8
7	270.0/595.0	43.98
8	275.0/305.0	578.4
9	275.0/610.0	39.56
10	280.0/620.0	32.21
11	285.0/635.0	22.83
12	320.0/360.0	345.8
13	325.0/370.0	334.1
14	330.0/375.0	327.2
15	335.0/380.0	339.5
16	365.0/420.0	182.0
17	370.0/425.0	169.5
18	475.0/360.0	4.275
19	480.0/365.0	4.201
20	485.0/370.0	4.078
21	500.0/380.0	3.982

Data points
	220.0	225.0	230.0	235.0	240.0	245.0	250.0	255.0	260.0	265.0	270.0	275.0	280.0	285.0	290.0	295.0	300.0	305.0	310.0	315.0	320.0	325.0	330.0	335.0	340.0	345.0	350.0	355.0	360.0	365.0	370.0	375.0	380.0	385.0	390.0	395.0	400.0	405.0	410.0	415.0	420.0	425.0	430.0	435.0	440.0	445.0	450.0	455.0	460.0	465.0	470.0	475.0	480.0	485.0	490.0	495.0	500.0	505.0	510.0	515.0	520.0	525.0	530.0	535.0	540.0	545.0	550.0	555.0	560.0	565.0	570.0	575.0	580.0	585.0	590.0	595.0	600.0
230.0	61.79	958.1	 1447	266.5	6.021	2.587	2.236	2.015	1.629	1.427	1.414	1.337	1.144	1.094	0.808	0.776	0.681	0.628	0.615	0.505	0.466	0.473	0.465	0.479	0.408	0.371	0.386	0.356	0.369	0.346	0.315	0.315	0.329	0.290	0.315	0.385	0.394	0.377	0.307	0.327	0.383	0.414	0.452	0.341	0.285	0.263	0.573	2.427	4.655	3.897	1.606	0.395	0.164	0.149	0.148	0.159	0.129	0.135	0.130	0.111	0.104	0.109	0.098	0.098	0.087	0.093	0.100	0.089	0.096	0.091	0.083	0.069	0.060	0.061	0.058	0.071	0.062
235.0	56.69	292.2	 1132	 1339	286.3	5.657	2.374	2.343	1.996	1.732	1.618	1.263	1.010	1.206	0.864	0.710	0.611	0.632	0.674	0.581	0.573	0.447	0.390	0.434	0.435	0.476	0.476	0.311	0.371	0.347	0.355	0.407	0.336	0.300	0.305	0.332	0.406	0.380	0.355	0.354	0.368	0.343	0.397	0.471	0.414	0.288	0.308	0.738	1.678	2.901	4.066	4.923	2.054	0.463	0.183	0.157	0.142	0.141	0.148	0.098	0.141	0.113	0.077	0.091	0.099	0.071	0.088	0.088	0.091	0.077	0.055	0.065	0.073	0.056	0.069	0.077	0.051
240.0	80.90	95.69	407.8	 1407	 1195	177.6	4.591	2.225	1.567	1.879	1.504	1.780	1.114	1.006	0.881	0.866	0.730	0.566	0.448	0.523	0.580	0.519	0.533	0.383	0.420	0.467	0.406	0.335	0.415	0.414	0.442	0.342	0.298	0.363	0.287	0.265	0.347	0.442	0.381	0.397	0.348	0.359	0.344	0.353	0.419	0.452	0.356	0.327	0.572	0.905	2.101	5.214	6.304	4.546	1.574	0.290	0.141	0.150	0.155	0.127	0.135	0.098	0.073	0.090	0.101	0.083	0.116	0.078	0.088	0.082	0.073	0.061	0.094	0.063	0.056	0.057	0.074
245.0	76.13	96.53	111.0	608.0	 1624	 1054	97.64	3.794	2.166	2.110	1.904	1.542	1.478	0.870	0.926	1.138	0.921	0.531	0.653	0.689	0.639	0.546	0.498	0.406	0.475	0.358	0.400	0.400	0.419	0.403	0.319	0.395	0.331	0.312	0.302	0.279	0.272	0.294	0.380	0.393	0.383	0.367	0.320	0.291	0.358	0.532	0.553	0.444	0.379	0.350	0.663	1.837	3.959	6.806	6.727	3.559	0.809	0.175	0.173	0.129	0.113	0.112	0.101	0.091	0.109	0.120	0.112	0.078	0.054	0.061	0.092	0.049	0.102	0.055	0.068	0.052	0.051
250.0	32.43	95.49	109.4	169.1	640.8	 1397	 1082	192.1	12.41	2.685	2.401	1.896	1.632	1.320	1.181	1.096	0.845	0.687	0.629	0.588	0.565	0.481	0.457	0.459	0.417	0.473	0.406	0.360	0.445	0.368	0.401	0.357	0.334	0.323	0.290	0.243	0.261	0.288	0.321	0.401	0.417	0.369	0.344	0.291	0.297	0.370	0.427	0.458	0.542	0.445	0.418	0.589	1.104	2.249	3.949	5.701	6.787	5.624	3.173	0.819	0.167	0.130	0.116	0.106	0.105	0.089	0.092	0.108	0.069	0.079	0.102	0.054	0.090	0.053	0.062	0.062	0.064
255.0	16.66	34.61	110.0	144.7	166.2	418.9	 1306	 1780	271.0	11.89	3.218	2.672	2.053	1.716	1.180	0.955	0.993	0.824	0.851	0.542	0.685	0.571	0.436	0.495	0.396	0.486	0.402	0.414	0.435	0.349	0.342	0.432	0.341	0.343	0.306	0.238	0.240	0.305	0.207	0.283	0.393	0.446	0.429	0.355	0.271	0.295	0.301	0.296	0.317	0.441	0.618	0.721	0.549	0.651	1.032	1.501	2.801	5.975	9.706	9.283	4.307	0.919	0.128	0.103	0.126	0.044	0.122	0.093	0.092	0.080	0.085	0.095	0.078	0.057	0.082	0.078	0.064
260.0	9.080	14.17	51.97	146.4	111.6	107.8	483.4	 1842	 1782	206.7	6.239	3.148	2.516	1.730	1.547	1.366	0.965	0.859	0.751	0.676	0.612	0.654	0.483	0.583	0.405	0.530	0.534	0.430	0.471	0.325	0.462	0.432	0.357	0.297	0.279	0.315	0.266	0.215	0.167	0.306	0.334	0.396	0.358	0.305	0.308	0.300	0.262	0.254	0.206	0.282	0.415	0.694	0.730	0.525	0.465	0.521	0.765	1.737	4.591	9.106	11.56	8.541	2.716	0.443	0.137	0.091	0.094	0.105	0.100	0.054	0.073	0.101	0.064	0.056	0.089	0.070	0.089
265.0	8.902	5.912	18.03	83.39	151.9	75.53	123.9	760.7	 2217	 1632	151.4	4.967	2.882	1.884	1.472	1.526	1.055	0.835	0.804	0.806	0.723	0.629	0.445	0.486	0.483	0.377	0.531	0.456	0.474	0.404	0.437	0.461	0.353	0.323	0.306	0.262	0.217	0.224	0.211	0.256	0.285	0.264	0.365	0.321	0.327	0.343	0.295	0.279	0.242	0.192	0.247	0.393	0.705	0.941	0.615	0.378	0.325	0.538	1.245	2.963	7.167	11.54	12.22	6.887	1.551	0.208	0.078	0.105	0.114	0.098	0.092	0.100	0.070	0.072	0.071	0.062	0.074
270.0	18.66	11.75	9.847	27.74	90.57	139.0	96.61	198.1	815.7	 1882	 1951	637.6	31.93	2.774	1.903	1.593	1.309	1.015	0.868	0.833	0.716	0.751	0.604	0.496	0.472	0.458	0.486	0.473	0.510	0.462	0.404	0.376	0.356	0.364	0.289	0.290	0.267	0.260	0.283	0.301	0.262	0.250	0.356	0.373	0.405	0.368	0.376	0.304	0.275	0.235	0.227	0.272	0.344	0.518	0.692	0.787	0.629	0.466	0.486	0.816	1.884	3.696	6.429	9.759	11.02	9.042	4.956	1.480	0.206	0.114	0.108	0.072	0.069	0.088	0.075	0.077	0.082
275.0	57.30	32.71	16.42	13.96	29.01	87.28	169.5	137.3	221.5	548.3	 1635	 2669	906.1	24.76	3.109	1.865	1.455	1.040	1.134	0.849	0.829	0.761	0.672	0.530	0.430	0.556	0.472	0.560	0.504	0.510	0.374	0.424	0.361	0.376	0.334	0.348	0.403	0.362	0.356	0.432	0.337	0.371	0.397	0.438	0.468	0.507	0.448	0.439	0.283	0.247	0.236	0.227	0.284	0.267	0.320	0.448	0.714	1.009	0.891	0.709	0.691	1.070	1.642	2.524	4.028	8.027	13.19	13.44	6.911	1.293	0.135	0.109	0.072	0.068	0.071	0.089	0.122
280.0	102.5	71.63	31.69	15.43	16.38	41.93	139.2	205.2	141.2	194.5	591.8	 2133	 2622	162.4	10.61	2.951	1.851	1.343	1.296	1.045	0.924	0.934	0.777	0.556	0.573	0.593	0.527	0.470	0.529	0.424	0.411	0.419	0.503	0.321	0.431	0.478	0.528	0.663	0.601	0.497	0.440	0.456	0.493	0.518	0.513	0.603	0.542	0.447	0.379	0.339	0.312	0.229	0.253	0.256	0.232	0.278	0.395	0.719	1.233	1.275	0.803	0.596	0.739	0.968	1.347	2.477	5.716	11.51	15.52	11.79	4.190	0.506	0.090	0.079	0.072	0.066	0.097
285.0	166.9	112.4	56.29	24.56	21.19	29.27	80.88	207.4	224.9	159.2	246.4	826.9	 2383	 2250	121.7	5.451	2.649	1.854	1.330	1.057	0.958	0.909	0.936	0.777	0.687	0.630	0.540	0.494	0.598	0.414	0.411	0.474	0.447	0.419	0.504	0.635	0.722	0.740	0.750	0.650	0.553	0.628	0.671	0.581	0.559	0.619	0.807	0.623	0.552	0.377	0.383	0.314	0.251	0.298	0.297	0.283	0.317	0.473	0.716	1.187	1.254	1.071	0.819	0.758	0.835	1.007	1.812	3.678	7.815	13.85	15.64	9.001	1.986	0.134	0.106	0.104	0.130
290.0	226.7	174.3	94.95	46.61	34.09	38.40	64.68	143.5	264.0	299.3	247.2	345.4	852.6	 1825	 2081	489.4	27.99	2.755	1.906	1.364	1.255	1.081	0.880	0.902	0.759	0.702	0.567	0.554	0.562	0.533	0.425	0.470	0.419	0.433	0.496	0.773	0.811	0.958	0.901	0.822	0.643	0.714	0.725	0.707	0.753	0.754	0.886	0.757	0.587	0.504	0.375	0.341	0.336	0.336	0.304	0.366	0.359	0.436	0.501	0.696	0.997	1.393	1.611	1.471	1.168	1.042	1.129	1.465	2.459	4.313	7.263	10.41	12.06	10.42	5.794	1.375	0.157
295.0	281.0	225.1	134.8	70.17	53.47	58.67	79.60	129.4	216.1	369.4	420.8	318.4	350.2	538.6	 1280	 2509	729.7	29.11	2.959	2.282	1.592	1.242	1.058	0.898	0.853	0.799	0.678	0.590	0.534	0.501	0.404	0.454	0.501	0.452	0.569	0.823	0.928	1.062	1.138	0.951	0.773	0.753	0.798	0.828	0.833	0.793	0.827	0.887	0.749	0.689	0.481	0.470	0.381	0.351	0.369	0.439	0.441	0.453	0.530	0.613	0.688	1.082	1.311	1.796	1.956	1.828	1.418	1.321	1.356	1.541	2.052	2.709	4.095	7.855	14.74	15.68	7.624
300.0	295.3	257.1	164.3	93.68	70.38	78.84	104.0	148.8	218.4	353.9	510.8	439.2	289.9	240.3	436.8	 1669	 2686	554.5	11.26	2.632	1.983	1.408	1.217	1.106	1.045	0.765	0.645	0.649	0.635	0.610	0.496	0.449	0.562	0.496	0.619	0.905	1.137	1.106	1.119	0.963	0.864	0.787	0.892	0.788	0.837	0.927	0.786	0.835	0.818	0.709	0.580	0.494	0.443	0.476	0.434	0.451	0.545	0.582	0.725	0.717	0.812	1.022	1.281	1.532	1.932	2.619	2.079	1.621	1.396	1.195	1.143	1.062	1.401	2.460	5.915	12.97	18.25
305.0	302.8	271.9	181.4	116.4	94.68	106.0	130.5	183.7	254.2	353.8	502.3	578.4	368.1	205.6	191.2	586.2	 2038	 2704	82.40	5.041	2.497	1.697	1.377	1.324	1.052	1.020	0.915	0.746	0.754	0.663	0.549	0.499	0.520	0.495	0.627	0.838	1.069	1.194	1.054	0.985	0.844	0.825	0.899	0.779	0.875	0.893	0.870	0.888	0.869	0.761	0.625	0.602	0.546	0.568	0.554	0.554	0.684	0.744	0.867	0.843	1.020	1.184	1.444	1.529	1.758	2.234	2.689	2.686	1.954	1.248	1.028	0.964	0.891	0.879	1.723	4.114	9.064
310.0	321.3	309.4	216.9	145.1	119.6	132.6	170.2	226.4	300.7	386.8	482.9	556.9	523.4	315.2	180.5	218.7	657.7	 1799	 2311	897.2	22.53	2.620	1.937	1.566	1.189	0.982	0.954	0.874	0.781	0.724	0.690	0.624	0.541	0.497	0.623	0.773	1.042	1.118	1.001	1.032	0.855	0.877	0.813	0.850	0.887	0.931	0.852	0.969	0.903	0.723	0.702	0.734	0.680	0.597	0.634	0.654	0.772	0.844	1.003	1.061	1.220	1.331	1.579	1.799	1.832	2.114	2.109	2.646	2.364	2.170	1.698	1.198	0.961	0.769	0.924	1.326	2.549
315.0	363.3	358.9	263.9	181.1	142.8	157.8	200.4	254.8	323.6	403.1	483.7	511.4	514.9	463.0	256.8	161.2	231.6	488.5	 1186	 2650	541.3	25.04	2.845	2.014	1.532	1.222	1.097	1.088	0.957	0.814	0.787	0.757	0.552	0.442	0.557	0.757	0.967	0.996	0.945	0.911	0.843	0.814	0.830	0.958	0.790	0.950	0.982	1.070	0.929	0.708	0.714	0.766	0.794	0.778	0.757	0.787	0.921	0.954	1.138	1.230	1.463	1.462	1.629	1.897	1.922	2.086	2.243	2.226	2.237	2.051	2.301	2.274	1.424	0.875	0.728	0.890	1.119
320.0	440.5	489.4	379.5	253.1	175.0	177.0	216.0	273.8	346.9	435.8	507.4	528.4	511.2	495.1	389.8	199.6	162.1	188.1	372.4	 1536	 2662	431.5	11.64	2.599	1.785	1.365	1.191	1.162	0.905	0.883	0.769	0.724	0.532	0.599	0.548	0.764	0.959	0.936	0.884	0.873	0.886	0.904	0.854	1.016	1.140	1.080	1.328	1.447	1.247	0.948	0.961	0.953	0.810	0.836	0.834	0.803	1.041	1.109	1.104	1.337	1.471	1.667	1.657	1.899	2.033	2.160	2.153	2.128	1.999	2.043	2.151	2.583	2.368	1.684	1.031	0.906	0.931
325.0	608.0	720.4	627.9	407.4	244.7	205.7	236.7	297.2	371.0	459.7	546.5	583.0	548.8	499.7	489.2	318.7	191.5	152.3	156.5	492.1	 1902	 2535	63.72	5.387	2.373	1.742	1.460	1.128	0.952	1.009	0.862	0.706	0.607	0.568	0.562	0.766	0.923	0.930	0.953	0.866	0.801	1.061	0.968	1.185	1.381	1.486	1.642	1.973	1.932	1.743	1.466	1.386	1.099	0.991	0.934	0.955	1.085	1.210	1.345	1.373	1.461	1.752	1.871	1.931	2.336	2.272	2.300	2.393	2.329	2.307	2.166	2.189	2.417	2.453	1.858	1.384	1.167
330.0	735.4	988.4	991.2	665.8	375.2	257.6	267.1	321.8	390.9	481.4	577.3	630.2	607.6	545.6	485.3	440.0	311.0	189.0	142.8	184.8	578.4	 1651	 2179	879.4	20.59	2.649	1.779	1.531	1.203	1.106	1.017	0.787	0.701	0.637	0.656	0.704	0.847	0.919	0.953	0.897	0.898	1.029	1.108	1.306	1.442	1.910	2.100	2.548	2.695	2.634	2.241	2.359	1.860	1.392	1.202	1.220	1.246	1.355	1.334	1.526	1.623	1.754	1.955	2.120	2.357	2.449	2.461	2.608	2.607	2.705	2.482	2.375	2.271	2.429	2.238	2.202	1.790
335.0	794.5	 1127	 1158	853.8	498.7	340.1	303.4	348.5	409.2	503.0	603.8	655.5	647.5	589.5	507.4	433.7	412.5	283.1	169.6	142.5	205.0	443.4	 1083	 2691	441.9	24.21	2.902	1.849	1.346	1.266	1.077	0.750	0.757	0.803	0.627	0.735	0.766	0.900	0.965	0.901	0.926	1.078	1.189	1.355	1.657	2.038	2.263	2.967	3.200	2.997	2.756	3.002	2.317	1.836	1.443	1.288	1.432	1.482	1.502	1.559	1.855	1.896	2.161	2.360	2.455	2.592	2.649	2.640	2.752	2.861	2.578	2.700	2.481	2.455	2.078	2.193	2.174
340.0	887.2	 1244	 1294	 1011	618.6	421.5	360.6	387.7	455.3	531.6	622.5	680.2	678.6	632.3	545.9	445.7	410.1	375.3	222.0	159.0	145.4	178.3	338.0	 1528	 2720	377.2	12.13	2.426	1.859	1.428	1.178	1.027	0.958	0.812	0.622	0.691	0.813	0.961	0.916	0.943	0.861	1.079	1.248	1.501	1.633	2.129	2.481	3.318	3.442	3.323	3.276	3.348	2.785	2.313	1.865	1.622	1.702	1.671	1.713	1.870	1.872	2.068	2.142	2.307	2.460	2.714	2.777	2.654	2.759	2.955	2.785	2.931	2.550	2.401	2.109	2.190	1.932
345.0	898.7	 1307	 1449	 1142	747.0	513.6	442.9	444.7	510.8	569.9	641.0	694.5	707.0	669.5	583.6	477.9	399.9	394.1	314.4	191.1	153.7	143.3	153.6	486.5	 1991	 2481	54.00	5.293	2.246	1.818	1.400	1.095	0.928	0.874	0.759	0.715	0.876	0.928	0.836	0.890	1.054	1.146	1.256	1.454	1.705	2.246	2.623	3.322	3.826	3.451	3.452	3.901	3.123	2.526	2.199	2.094	1.913	1.927	1.894	2.012	2.012	2.236	2.331	2.637	2.494	2.723	2.756	2.730	2.799	3.110	3.090	2.964	2.950	2.457	2.426	2.328	2.116
350.0	851.6	 1287	 1429	 1230	894.2	653.8	566.7	558.0	589.5	640.5	683.9	714.3	721.1	686.0	610.6	511.5	418.7	365.2	351.7	282.2	195.1	160.8	142.4	191.7	593.3	 1644	 2103	833.5	18.89	2.555	1.748	1.372	1.084	0.916	0.811	0.891	0.870	0.969	0.895	0.837	1.047	1.020	1.227	1.410	1.630	2.108	2.594	3.194	3.708	3.657	3.609	4.151	3.445	3.154	2.784	2.501	2.367	2.303	2.375	2.529	2.437	2.609	2.666	2.659	2.928	2.822	2.901	2.929	2.946	3.025	2.953	3.081	3.020	2.826	2.595	2.451	2.256
355.0	824.1	 1187	 1387	 1253	 1005	810.7	712.3	687.2	706.5	724.6	740.2	744.4	735.6	709.5	636.9	542.7	452.3	379.4	327.6	338.8	283.3	199.1	165.3	153.1	214.1	431.7	 1019	 2556	398.1	23.92	2.616	1.728	1.316	0.956	0.921	0.828	0.960	1.038	0.811	0.895	0.866	1.148	1.212	1.261	1.515	2.000	2.469	3.071	3.516	3.518	3.614	4.120	3.708	3.504	3.273	3.009	2.932	2.830	2.941	2.890	3.277	3.188	2.845	3.182	3.224	3.073	3.071	3.154	3.017	3.238	3.251	3.257	3.022	2.972	2.787	2.543	2.539
360.0	790.4	 1147	 1355	 1266	 1068	894.3	774.2	759.6	760.9	775.5	764.8	754.4	736.1	712.3	647.9	565.5	473.3	397.2	331.7	324.3	345.8	253.3	191.7	163.9	146.8	161.5	296.9	 1434	 2632	356.2	11.83	2.265	1.533	1.195	0.958	0.904	0.892	0.909	0.878	0.883	0.914	1.035	1.163	1.335	1.548	2.040	2.236	2.931	3.478	3.356	3.513	4.275	4.000	3.841	3.626	3.487	3.391	3.235	3.094	3.291	3.358	3.304	3.263	3.411	3.296	3.068	3.214	3.229	3.158	3.331	3.110	3.066	3.035	3.024	2.876	2.500	2.501
365.0	748.2	 1086	 1278	 1248	 1099	932.9	828.1	800.2	799.4	789.6	782.5	767.6	737.5	705.9	651.4	565.7	483.9	408.0	350.3	314.4	341.0	321.7	223.9	183.1	144.9	114.6	116.6	424.5	 1960	 2437	267.6	4.793	2.107	1.546	1.149	1.025	1.027	0.958	0.809	0.841	0.928	1.095	1.096	1.312	1.624	1.973	2.165	2.712	3.117	3.270	3.275	4.152	4.201	3.964	3.680	3.666	3.623	3.280	3.297	3.416	3.352	3.478	3.438	3.339	3.384	3.243	3.291	3.138	3.072	3.239	3.117	3.035	2.958	3.064	2.962	2.712	2.667
370.0	698.5	983.4	 1193	 1208	 1086	972.2	863.3	823.1	808.0	804.2	785.9	752.6	720.6	691.0	635.9	560.3	486.6	418.0	364.4	325.2	317.8	334.1	297.3	220.2	167.0	121.8	93.62	137.7	553.7	 1665	 2198	808.7	15.98	2.172	1.491	1.186	1.087	1.025	0.954	0.910	0.897	1.050	1.091	1.245	1.466	1.752	2.097	2.622	2.999	3.060	3.293	3.998	3.995	4.078	3.770	3.590	3.672	3.387	3.405	3.456	3.497	3.569	3.530	3.551	3.403	3.250	3.182	3.214	2.998	3.078	3.125	3.064	2.965	2.927	2.803	2.684	2.649
375.0	621.5	881.1	 1083	 1142	 1093	996.6	895.6	835.6	836.9	816.0	790.0	753.1	717.0	667.7	620.0	549.8	487.1	428.7	378.7	344.0	324.8	317.6	327.2	299.9	207.2	151.8	108.9	90.22	162.4	405.9	 1086	 2694	341.0	19.34	2.097	1.587	1.345	1.137	0.988	0.972	1.037	0.978	1.157	1.221	1.373	1.688	1.988	2.353	2.805	2.839	3.063	3.928	3.838	4.022	3.829	3.904	3.794	3.535	3.650	3.610	3.485	3.573	3.566	3.453	3.325	3.364	3.220	3.081	3.203	2.985	3.006	2.903	2.940	2.919	2.743	2.624	2.540
380.0	565.8	828.7	 1036	 1075	 1068	 1008	897.6	839.1	821.0	815.6	786.5	754.5	716.8	656.3	595.6	537.7	481.4	430.9	385.8	357.1	338.1	316.1	318.0	339.5	260.0	176.6	129.9	93.49	84.89	122.3	291.9	 1570	 2429	294.5	8.499	1.935	1.554	1.320	1.101	1.033	1.001	0.977	1.059	1.274	1.360	1.759	1.820	2.132	2.542	2.560	2.966	3.798	3.684	3.852	3.822	3.704	3.982	3.402	3.591	3.506	3.525	3.455	3.412	3.549	3.467	3.525	3.308	3.224	3.136	2.891	3.049	2.789	2.744	2.930	2.579	2.639	2.581
385.0	536.0	792.2	961.6	 1040	 1043	976.6	879.8	817.7	808.3	802.9	765.9	742.3	700.8	633.9	576.5	520.9	466.5	423.8	386.3	363.1	343.5	324.2	311.8	324.7	307.6	206.1	146.4	106.0	80.50	69.20	92.59	451.8	 1905	 2093	40.27	3.545	1.729	1.510	1.202	1.138	1.010	0.975	1.084	1.203	1.339	1.585	1.823	2.053	2.394	2.473	2.684	3.505	3.527	3.848	3.675	3.458	3.615	3.546	3.506	3.331	3.298	3.230	3.430	3.557	3.381	3.458	3.058	2.984	3.069	3.006	2.899	2.680	2.509	2.854	2.592	2.666	2.641
390.0	511.7	716.2	879.1	945.7	974.5	922.6	827.8	772.1	760.6	744.7	730.4	697.6	653.2	596.2	538.5	488.1	447.2	410.5	379.1	358.2	342.1	326.3	308.9	299.0	297.3	256.3	175.7	123.1	91.86	69.39	58.11	128.0	534.7	 1484	 1748	594.7	12.98	2.121	1.523	1.307	1.006	1.045	1.113	1.215	1.224	1.363	1.689	2.005	2.156	2.240	2.470	3.243	3.365	3.632	3.491	3.607	3.501	3.395	3.259	3.327	3.111	3.223	3.167	3.192	3.165	3.116	2.965	2.938	2.887	2.745	2.615	2.627	2.550	2.668	2.435	2.430	2.406
395.0	481.6	649.6	791.6	877.3	886.4	872.3	766.6	727.6	707.7	700.7	683.9	659.2	609.2	558.0	508.0	460.8	418.2	392.2	367.7	347.0	335.0	325.8	307.3	293.6	274.6	260.3	225.2	150.3	107.1	80.85	63.59	65.45	145.9	359.3	927.4	 2124	278.8	15.13	2.171	1.561	1.252	1.099	1.209	1.215	1.180	1.359	1.579	1.899	2.081	2.030	2.323	2.964	3.227	3.388	3.444	3.178	3.253	3.182	3.196	2.964	3.010	3.029	3.100	3.063	2.947	2.873	2.968	2.734	2.805	2.555	2.583	2.259	2.593	2.600	2.275	2.204	2.284
400.0	437.3	582.9	727.0	795.5	854.0	815.5	738.0	691.4	669.4	667.4	654.6	630.7	585.0	529.4	483.9	440.3	402.6	379.9	358.5	339.4	330.0	322.2	307.4	290.5	269.5	244.6	241.8	188.3	123.1	94.10	73.96	60.10	66.47	105.3	248.9	 1290	 1950	240.2	6.375	2.088	1.288	1.287	1.241	1.174	1.266	1.375	1.493	1.750	1.896	1.992	2.253	2.714	2.885	3.221	3.178	2.994	3.116	3.121	3.154	3.065	3.091	2.860	2.831	2.728	2.706	2.674	2.812	2.489	2.625	2.673	2.477	2.139	2.298	2.410	2.280	2.229	2.124
405.0	411.7	565.7	672.6	744.4	789.0	779.4	718.5	669.7	647.4	644.4	622.9	601.4	557.0	509.6	454.9	417.4	389.4	365.2	345.6	331.3	321.3	317.3	303.0	287.3	267.7	235.2	225.4	216.0	151.0	108.1	85.35	67.78	56.82	55.01	78.11	372.8	 1532	 1653	35.08	3.527	1.672	1.334	1.160	1.137	1.218	1.309	1.389	1.603	1.931	1.760	2.141	2.676	2.781	2.831	2.914	2.790	2.893	2.908	2.796	2.813	2.849	2.657	2.678	2.629	2.564	2.623	2.548	2.574	2.514	2.488	2.393	2.139	2.154	2.149	2.194	2.312	1.952
410.0	385.7	518.9	620.4	681.2	717.4	707.8	672.9	631.4	613.9	599.9	579.1	557.3	520.1	469.7	428.7	390.6	364.0	344.4	325.3	313.3	305.8	299.6	290.9	277.0	261.1	231.2	210.0	203.3	189.2	136.7	100.6	80.14	65.42	53.19	48.08	107.1	431.4	 1225	 1428	453.7	10.73	1.740	1.333	1.244	1.273	1.357	1.321	1.575	1.674	1.734	1.946	2.462	2.511	2.768	2.757	2.699	2.939	2.923	2.775	2.708	2.663	2.551	2.441	2.335	2.406	2.412	2.189	2.339	2.311	2.282	2.283	2.033	1.977	2.019	2.004	1.963	1.948
415.0	362.4	485.8	548.9	624.1	656.9	663.8	628.9	608.9	575.0	559.6	541.4	511.0	475.0	435.1	395.0	359.6	332.4	317.8	303.9	292.4	286.9	282.2	277.8	265.3	252.0	226.1	203.0	187.6	184.3	175.3	124.1	93.97	75.39	60.25	47.36	52.40	117.7	297.9	802.8	 1674	243.4	11.92	1.819	1.426	1.291	1.374	1.263	1.497	1.622	1.632	1.679	2.238	2.169	2.585	2.585	2.521	2.639	2.659	2.454	2.608	2.416	2.379	2.445	2.358	2.366	2.213	2.092	2.175	2.107	2.026	2.005	1.880	1.931	1.890	1.711	1.830	1.853
420.0	345.4	436.9	508.7	576.9	613.9	615.3	597.4	574.4	551.3	525.9	511.1	486.9	448.2	407.8	372.4	338.3	314.6	302.0	286.6	277.3	274.0	269.4	263.8	255.1	243.4	222.7	202.9	183.0	171.6	182.0	151.1	104.8	81.17	65.39	50.94	42.57	50.33	84.00	215.1	 1055	 1535	205.6	4.767	1.686	1.383	1.405	1.278	1.458	1.345	1.572	1.597	2.073	2.198	2.477	2.433	2.419	2.360	2.578	2.446	2.411	2.439	2.322	2.271	2.356	2.221	2.036	2.123	1.957	2.039	1.917	1.797	1.895	1.795	1.798	1.730	1.655	1.700
425.0	326.0	418.8	486.9	540.1	575.6	589.8	568.9	541.2	535.2	509.7	492.9	458.7	430.7	385.0	350.0	315.1	298.6	285.7	272.2	263.7	259.8	258.6	250.9	247.5	235.7	219.8	200.2	183.8	166.7	169.2	169.5	121.7	87.01	70.34	54.12	43.94	37.15	38.06	62.07	306.0	 1279	 1300	32.35	2.632	1.554	1.496	1.322	1.392	1.372	1.356	1.524	1.833	2.048	2.209	2.284	2.275	2.537	2.463	2.281	2.373	2.287	2.295	2.189	2.218	2.128	1.996	1.989	1.904	2.027	1.857	1.713	1.879	1.841	1.724	1.628	1.769	1.548
430.0	314.2	383.1	450.5	502.1	527.8	549.3	544.6	534.1	516.8	495.4	466.9	439.0	406.1	367.7	332.4	300.5	279.3	266.5	255.7	246.9	245.9	241.4	238.6	234.8	226.8	212.9	199.1	183.8	169.0	160.2	158.5	146.5	106.3	77.44	60.63	48.25	38.31	30.70	29.99	79.72	363.7	 1017	 1126	135.5	9.051	1.730	1.414	1.485	1.397	1.407	1.424	1.811	1.991	2.066	2.103	2.127	2.412	2.228	2.355	2.312	2.267	2.187	2.074	2.075	2.054	1.872	1.876	1.789	1.866	1.733	1.673	1.753	1.741	1.610	1.599	1.509	1.535
435.0	390.3	349.5	433.6	468.5	494.7	517.8	523.4	521.5	501.6	476.1	443.6	419.6	382.6	347.5	309.2	282.5	260.9	250.3	239.9	233.8	230.1	225.5	226.1	223.5	215.2	206.0	193.6	183.9	173.1	160.3	147.3	142.5	131.6	93.52	66.88	53.17	43.21	33.35	26.28	31.74	91.17	242.2	667.6	 1366	221.3	8.866	1.913	1.589	1.500	1.410	1.369	1.684	1.875	1.935	1.980	1.865	2.077	2.274	2.287	2.248	2.135	2.026	2.143	1.948	1.953	1.900	1.927	1.726	1.739	1.687	1.602	1.633	1.708	1.580	1.444	1.495	1.453
440.0	591.0	338.8	392.7	452.0	476.2	490.1	516.8	516.9	489.7	461.2	436.9	398.1	364.7	331.4	295.9	268.5	248.5	237.0	227.7	220.0	218.5	218.2	215.0	211.7	206.5	200.7	189.6	182.9	171.9	160.9	146.4	134.4	134.2	109.1	73.20	56.92	45.50	35.60	27.53	23.09	31.87	63.09	180.2	979.3	 1326	164.9	3.356	1.766	1.558	1.426	1.407	1.676	1.687	1.867	2.003	1.962	2.066	2.221	2.215	2.085	2.035	2.108	2.166	1.901	1.851	1.733	1.824	1.716	1.707	1.678	1.531	1.616	1.587	1.485	1.485	1.463	1.395
445.0	830.7	376.7	370.1	424.0	456.1	468.0	498.1	500.5	487.1	452.1	426.2	390.5	354.3	319.2	285.5	254.1	238.6	227.3	215.5	210.9	210.1	208.2	203.8	202.4	199.6	192.9	186.8	180.6	172.1	161.7	145.7	131.4	124.1	118.2	83.36	59.66	49.12	38.48	29.50	23.77	21.06	24.65	48.77	301.0	 1238	 1048	24.79	2.396	1.654	1.322	1.385	1.679	1.767	1.632	1.764	1.941	2.057	2.084	2.167	2.085	2.011	2.078	2.030	1.903	1.734	1.668	1.868	1.573	1.610	1.531	1.476	1.448	1.383	1.293	1.234	1.376	1.263
450.0	800.1	653.2	357.5	384.7	417.7	447.8	469.6	474.4	467.6	439.2	403.9	369.8	335.8	299.9	267.8	239.9	219.7	210.4	200.7	194.9	193.6	192.4	189.6	188.7	186.5	182.6	178.1	173.4	167.8	158.6	145.7	130.5	114.4	109.5	98.75	71.33	53.20	42.90	34.86	28.19	22.80	19.31	21.76	75.92	360.3	946.8	 1015	117.6	7.062	1.528	1.493	1.597	1.645	1.596	1.798	1.912	1.956	2.002	2.067	2.077	2.065	2.100	1.979	1.794	1.709	1.744	1.580	1.534	1.547	1.447	1.383	1.343	1.319	1.260	1.324	1.322	1.346
455.0	488.8	969.0	462.6	354.1	391.4	420.7	447.4	450.1	441.0	420.3	383.0	345.4	316.2	281.4	249.5	221.1	200.7	192.7	184.5	178.2	177.4	175.4	173.2	173.4	172.1	169.9	166.8	163.8	161.2	152.8	142.1	128.1	111.2	98.72	94.33	87.37	63.04	47.45	39.47	33.11	27.53	21.98	18.32	27.17	88.15	228.3	622.0	 1161	179.5	6.507	1.712	1.625	1.696	1.641	1.691	1.701	1.808	2.030	2.025	1.907	2.075	1.976	1.927	1.880	1.629	1.620	1.418	1.389	1.518	1.315	1.351	1.370	1.226	1.220	1.211	1.170	1.186
460.0	282.1	961.2	719.0	338.3	365.5	392.9	419.4	432.6	422.0	396.4	361.1	331.9	299.8	262.7	236.8	208.5	189.5	179.9	171.7	167.2	161.7	161.7	159.8	161.9	160.3	159.9	158.4	154.1	152.2	148.2	137.3	124.2	109.2	96.15	84.98	87.41	73.12	52.02	42.34	35.14	30.71	24.69	19.55	17.64	28.68	57.36	165.4	827.6	 1053	124.8	3.118	1.881	1.617	1.677	1.631	1.584	1.825	1.796	1.685	1.864	1.849	1.932	1.799	1.668	1.744	1.487	1.352	1.348	1.311	1.169	1.246	1.244	1.216	1.232	1.046	1.057	1.209
465.0	205.7	684.0	 1013	379.6	340.6	372.3	394.0	409.9	414.4	375.8	345.2	313.1	280.3	246.9	224.0	195.5	180.5	169.8	161.6	156.8	151.8	149.5	149.6	149.7	151.6	151.4	150.0	147.5	144.4	142.6	132.7	120.8	106.8	92.16	81.42	79.67	78.61	58.92	44.01	37.53	32.76	26.47	21.13	17.17	16.00	19.72	42.52	248.9	997.6	806.8	20.79	2.289	1.756	1.725	1.502	1.505	1.753	1.584	1.783	1.898	1.757	1.787	1.736	1.586	1.554	1.486	1.411	1.273	1.376	1.092	1.258	1.210	1.051	1.184	1.059	1.110	1.114
470.0	184.3	360.2	971.3	691.2	329.2	340.3	358.6	376.8	380.2	353.3	319.1	288.2	259.3	228.2	204.8	178.7	165.4	152.3	147.1	140.7	137.8	134.9	136.2	136.0	137.5	138.0	136.2	135.7	133.7	131.8	124.1	114.3	101.6	89.97	78.45	71.24	70.80	65.72	51.11	40.67	33.61	28.34	22.89	18.18	14.43	12.55	15.46	60.51	290.3	711.2	765.3	110.5	6.934	1.768	1.513	1.595	1.680	1.657	1.661	1.747	1.591	1.719	1.634	1.597	1.397	1.325	1.325	1.167	1.160	1.132	1.138	1.107	1.074	1.095	0.990	0.958	0.981
475.0	184.0	226.3	525.3	 1040	441.2	308.4	333.3	347.3	341.5	326.9	291.1	263.9	239.4	206.0	183.2	162.4	150.4	137.5	133.1	125.2	122.7	120.9	121.5	121.5	120.3	121.3	121.1	121.6	122.8	121.4	115.7	107.5	95.61	85.65	74.51	66.89	60.87	60.12	58.57	44.27	34.99	29.53	24.25	18.99	15.04	11.78	9.842	18.51	68.31	168.0	420.1	894.6	169.2	6.401	1.615	1.651	1.642	1.633	1.627	1.684	1.578	1.620	1.484	1.549	1.291	1.167	1.329	1.083	1.054	1.103	1.011	0.922	0.967	1.009	0.938	0.914	0.802
480.0	176.6	188.1	290.9	943.1	655.7	298.4	304.4	324.2	319.2	303.6	275.1	247.5	219.1	195.5	171.3	146.7	136.6	129.8	121.1	118.8	114.5	113.4	109.8	110.4	111.0	112.2	112.5	114.5	113.7	114.2	108.6	101.6	90.16	81.98	71.14	65.11	58.11	55.05	57.75	50.07	36.86	29.30	24.56	19.54	15.12	11.91	9.416	9.523	19.64	40.96	109.8	567.2	802.5	27.78	3.254	1.596	1.669	1.483	1.395	1.503	1.509	1.528	1.440	1.326	1.297	1.141	1.206	1.000	1.018	0.964	0.934	0.871	0.900	0.850	0.791	0.843	0.820
485.0	181.5	185.6	204.7	614.8	940.4	342.6	287.3	302.2	302.0	282.7	261.8	232.2	204.8	184.4	159.6	139.9	127.2	118.8	113.9	109.4	106.7	103.9	102.1	102.1	103.3	103.9	105.6	106.9	107.1	107.1	103.1	95.44	86.74	78.20	69.11	61.84	55.48	50.73	52.14	51.99	40.93	30.44	24.71	20.02	16.08	12.71	9.909	8.193	8.940	12.99	27.85	159.9	706.3	693.4	24.54	2.094	1.734	1.554	1.259	1.459	1.465	1.351	1.345	1.271	1.267	1.104	1.050	1.059	0.978	0.950	0.973	0.913	0.891	0.846	0.755	0.771	0.726
490.0	152.3	182.9	176.2	313.5	847.3	630.0	278.1	277.2	281.5	265.3	241.1	213.6	191.1	166.3	145.0	128.3	115.1	108.1	103.0	99.45	95.55	93.36	92.53	91.45	93.72	94.76	95.27	96.29	97.00	97.50	95.05	88.81	80.30	72.08	65.21	58.69	53.05	47.73	45.96	47.02	44.24	33.40	25.48	20.41	16.45	13.41	10.70	8.676	7.539	7.304	9.859	39.09	196.6	538.2	650.9	114.5	7.642	1.605	1.411	1.367	1.354	1.269	1.264	1.184	1.125	1.076	0.947	0.901	0.892	0.903	0.845	0.794	0.757	0.759	0.640	0.670	0.665
495.0	120.3	172.1	166.0	204.5	451.3	902.6	397.4	252.9	259.6	236.3	218.0	189.0	170.7	149.8	132.2	115.7	105.1	98.26	92.31	86.98	84.95	82.79	82.91	81.77	82.19	82.87	85.07	84.72	87.52	86.96	85.78	80.00	72.69	67.11	60.94	54.42	49.18	45.25	42.21	39.95	40.22	37.28	27.96	21.05	17.09	14.06	11.46	9.503	7.725	6.382	6.112	12.55	46.95	127.2	388.9	802.4	185.4	6.710	1.517	1.286	1.363	1.114	1.165	0.938	1.048	0.910	0.913	0.819	0.834	0.825	0.765	0.668	0.751	0.699	0.685	0.623	0.709
500.0	104.8	157.8	173.0	173.9	250.1	803.0	622.6	239.6	236.9	219.3	201.8	175.2	156.2	138.3	120.3	104.8	95.69	89.18	84.65	79.98	76.80	76.36	75.52	73.80	73.90	75.37	76.20	77.90	79.11	79.42	78.22	73.35	66.66	61.54	55.80	50.92	46.34	42.39	39.76	36.23	35.42	36.48	30.32	21.77	16.80	14.06	11.72	9.535	8.283	6.542	5.641	6.583	13.69	31.39	100.6	503.9	771.2	30.03	3.189	1.375	1.254	1.218	0.983	0.979	0.981	0.839	0.902	0.726	0.804	0.790	0.692	0.661	0.551	0.636	0.619	0.628	0.654
505.0	98.89	131.5	169.6	153.6	174.9	509.7	846.2	294.3	215.7	206.3	186.1	162.9	144.3	126.0	108.0	95.49	87.51	80.56	77.31	74.54	70.21	68.29	67.72	66.64	67.93	68.77	69.14	70.59	72.44	73.22	70.90	67.38	61.94	56.49	51.58	47.95	43.06	40.22	36.72	33.57	31.51	32.15	31.96	23.57	17.27	13.77	11.56	9.822	8.045	6.704	5.656	5.334	6.399	10.19	25.23	141.1	625.7	619.5	26.89	1.979	1.413	1.108	1.067	1.034	0.884	0.768	0.813	0.696	0.704	0.661	0.703	0.605	0.567	0.671	0.639	0.608	0.555
510.0	83.81	106.3	149.9	147.2	144.9	255.5	711.3	554.3	207.8	178.8	161.3	146.7	126.8	111.4	96.77	83.24	75.75	68.55	68.21	64.14	61.54	59.24	58.92	57.87	58.53	59.56	59.55	61.84	63.71	64.00	61.93	59.77	54.73	50.54	45.35	42.51	39.49	36.17	33.93	30.82	28.13	26.89	27.25	25.10	18.54	13.70	11.41	9.522	8.003	6.802	6.120	5.305	4.934	5.525	8.594	34.26	170.3	447.1	533.2	119.7	7.957	1.247	1.090	0.920	0.841	0.767	0.734	0.695	0.612	0.571	0.641	0.548	0.540	0.501	0.577	0.559	0.617
515.0	74.06	87.11	119.2	145.6	126.1	158.6	349.4	783.8	329.0	157.1	141.6	127.2	113.0	99.33	84.64	73.99	66.04	59.56	56.81	55.76	52.17	52.20	50.96	49.96	50.82	50.91	51.63	51.59	53.50	55.46	54.23	51.70	47.59	44.75	40.36	37.01	34.91	32.70	30.02	27.76	25.50	23.49	21.49	21.54	20.29	14.84	11.26	9.537	7.939	6.661	5.913	5.502	4.772	4.645	4.849	10.48	40.32	104.2	265.3	590.1	187.4	6.578	1.228	0.980	0.798	0.780	0.655	0.649	0.567	0.501	0.585	0.615	0.479	0.426	0.447	0.497	0.493
520.0	63.89	75.01	100.3	138.6	125.6	125.0	183.8	649.2	584.3	156.0	128.5	115.7	100.9	88.73	74.97	65.23	57.90	55.59	52.02	49.54	46.35	46.36	44.76	45.05	44.91	45.63	45.24	46.75	48.13	49.37	47.09	45.96	42.34	39.72	35.76	33.99	31.86	29.43	27.48	25.41	23.45	20.89	18.94	18.48	19.49	16.34	11.41	9.572	7.633	6.699	5.853	5.430	4.878	4.660	3.955	5.267	11.50	25.77	67.55	348.3	589.6	30.52	2.645	0.950	0.843	0.768	0.583	0.604	0.520	0.627	0.487	0.538	0.423	0.439	0.475	0.431	0.405
525.0	59.58	70.95	86.95	121.0	124.0	115.9	134.5	387.0	764.3	231.3	117.5	102.7	90.84	77.77	67.71	61.40	53.61	49.53	46.28	44.15	42.49	41.63	40.29	40.69	39.83	40.69	40.03	41.04	43.12	44.39	43.04	41.45	38.71	36.13	32.96	31.62	29.05	26.53	25.45	22.96	21.36	19.90	17.52	15.80	17.08	16.54	12.45	9.129	7.345	6.568	5.851	5.446	4.851	4.586	3.991	4.186	5.136	8.107	17.22	94.84	426.4	453.3	26.37	1.365	0.815	0.795	0.645	0.518	0.510	0.522	0.500	0.456	0.424	0.442	0.424	0.385	0.327
530.0	50.19	58.07	70.04	91.24	116.3	107.5	107.2	183.9	571.9	531.8	132.8	91.68	77.70	67.71	58.51	52.50	45.51	42.68	39.48	37.91	37.05	36.38	35.87	34.88	34.52	34.59	35.98	36.10	36.91	38.12	37.77	36.37	33.71	31.30	29.31	27.29	25.26	23.80	22.05	20.77	19.07	17.30	15.77	13.83	13.28	14.44	13.70	10.08	7.382	6.238	5.717	5.029	4.605	4.456	3.939	3.629	3.752	4.113	6.032	23.21	112.9	309.4	308.9	112.4	6.650	0.800	0.571	0.528	0.472	0.481	0.401	0.436	0.375	0.406	0.358	0.310	0.301
535.0	50.54	51.90	58.27	68.52	94.41	108.0	91.84	112.8	251.9	659.1	267.2	81.39	67.84	58.19	50.90	45.21	38.92	36.47	34.22	32.60	32.51	31.45	30.40	29.96	29.66	29.75	30.61	30.21	31.60	32.91	32.50	31.32	29.36	27.01	25.05	23.03	22.23	20.88	19.56	18.41	17.12	15.34	13.99	12.54	11.35	11.71	12.29	10.95	7.906	5.966	5.313	4.947	4.311	4.173	3.706	3.480	3.148	3.117	3.359	7.081	26.71	71.64	158.7	413.0	162.0	5.538	0.707	0.578	0.442	0.422	0.420	0.298	0.299	0.333	0.253	0.274	0.264
540.0	42.90	47.37	53.21	59.09	78.93	99.00	88.06	87.80	126.5	476.6	545.0	95.38	61.59	51.97	45.72	39.74	35.39	31.56	30.65	28.86	28.62	27.49	26.00	26.66	25.79	26.54	27.06	27.81	27.74	29.12	28.51	27.79	26.04	23.75	22.43	20.77	20.24	18.69	17.78	16.39	15.47	14.15	12.52	11.20	10.53	9.698	10.07	10.71	8.503	6.102	4.867	4.615	4.207	3.590	3.359	3.380	3.135	2.843	2.636	3.298	7.585	17.41	40.05	227.3	405.3	30.90	2.001	0.602	0.517	0.394	0.336	0.301	0.288	0.239	0.279	0.268	0.265
545.0	43.34	41.43	48.20	54.16	60.87	89.52	89.01	81.99	90.26	258.8	635.4	191.8	56.15	47.62	41.38	35.21	32.33	27.95	27.28	25.66	25.42	25.25	23.14	24.02	23.08	23.66	24.20	24.50	25.02	25.78	25.57	25.02	23.21	21.37	20.39	18.84	18.25	16.77	15.34	14.46	13.69	12.60	11.94	10.07	9.317	8.441	8.208	9.456	8.973	6.606	4.776	4.295	3.873	3.457	3.303	3.163	3.048	2.769	2.388	2.512	3.302	5.136	10.10	60.81	281.5	243.0	25.80	0.984	0.499	0.478	0.373	0.333	0.328	0.284	0.293	0.291	0.285
550.0	37.03	39.34	41.20	46.66	49.62	69.43	84.57	71.59	73.74	117.9	407.8	455.3	83.61	41.69	35.59	30.82	28.16	24.15	23.51	22.37	21.61	21.00	20.54	19.99	19.82	20.57	20.37	20.45	21.93	21.58	21.77	21.15	19.80	17.96	17.19	15.96	15.14	14.53	13.54	12.94	12.09	10.96	10.07	9.015	8.203	7.359	6.858	6.987	7.803	7.208	5.182	4.162	3.542	3.366	3.139	2.913	2.648	2.563	2.285	2.127	2.170	2.371	3.434	14.62	73.75	192.5	244.8	98.77	5.616	0.472	0.357	0.271	0.235	0.257	0.272	0.280	0.234
555.0	33.11	37.24	39.81	39.26	41.94	51.62	68.61	73.45	61.85	71.88	162.5	469.5	202.0	35.76	29.84	26.08	22.39	20.99	19.86	18.67	18.38	17.08	16.81	16.72	17.01	16.07	16.36	16.66	17.53	18.20	17.93	17.13	16.02	15.00	14.55	13.60	12.26	12.18	11.50	10.54	10.43	9.440	8.879	7.832	7.000	6.349	5.787	5.401	5.520	6.644	5.657	4.182	3.287	2.950	2.658	2.599	2.358	2.505	2.291	1.800	1.741	1.655	1.802	4.046	17.29	44.47	110.5	284.6	124.4	4.010	0.380	0.288	0.197	0.255	0.240	0.230	0.229
560.0	33.56	31.02	35.04	33.17	35.05	44.03	55.98	71.59	54.26	57.98	76.72	303.0	421.2	55.28	26.44	21.99	19.24	17.68	17.63	16.69	15.94	14.43	14.17	14.18	13.93	14.16	14.28	14.78	15.26	15.22	15.58	14.32	14.05	12.97	12.56	11.94	10.98	10.50	9.972	9.452	8.730	8.198	7.431	6.841	6.021	5.819	5.279	4.684	4.377	5.230	5.327	4.382	3.067	2.622	2.627	2.344	2.115	2.039	2.166	1.932	1.642	1.366	1.329	1.717	4.611	10.74	27.26	150.5	265.7	29.85	1.330	0.288	0.267	0.232	0.206	0.221	0.237
565.0	30.84	30.60	30.75	30.69	31.48	37.17	45.50	65.37	53.14	49.18	52.44	151.8	456.4	148.7	22.01	19.72	17.46	14.96	14.50	14.57	13.37	12.44	12.27	11.91	11.83	12.45	12.27	12.57	13.64	13.41	13.04	12.17	12.24	11.13	10.76	10.17	9.357	8.940	8.475	8.047	7.720	7.259	6.282	6.001	5.268	4.920	4.550	4.257	3.673	3.923	4.546	4.527	3.095	2.425	2.202	2.137	1.982	1.737	1.782	1.834	1.410	1.386	1.164	1.033	1.694	3.127	6.738	39.65	180.2	208.5	22.83	0.529	0.272	0.241	0.230	0.157	0.189
570.0	32.37	28.58	26.69	23.95	27.55	30.08	34.81	51.99	55.65	44.10	43.79	66.46	260.2	343.8	56.41	15.73	13.55	12.10	11.71	11.28	10.55	10.24	10.01	9.744	9.613	9.705	9.839	9.751	10.35	10.50	10.11	9.812	9.663	8.763	8.414	8.003	7.627	7.316	6.569	6.329	5.912	5.639	5.224	4.660	4.305	3.952	3.634	3.458	3.023	2.888	3.192	3.711	3.157	2.479	1.955	1.732	1.669	1.560	1.539	1.437	1.361	1.188	1.033	0.904	0.992	1.278	2.051	9.308	46.54	127.9	156.8	59.20	2.995	0.284	0.164	0.147	0.176
575.0	28.04	25.64	22.67	19.47	19.77	25.61	27.44	36.34	52.13	43.76	37.41	40.37	92.13	304.0	218.6	13.67	10.21	9.554	8.914	8.411	7.838	8.229	7.797	8.003	7.697	7.357	7.502	7.602	7.840	7.890	8.025	7.314	7.137	6.749	6.446	5.993	6.139	5.767	5.194	5.062	4.644	4.302	4.146	3.772	3.447	2.954	2.897	2.689	2.637	2.224	2.262	2.549	2.800	2.643	1.943	1.409	1.426	1.213	1.163	1.089	1.094	1.014	1.009	0.711	0.793	0.794	0.860	2.541	10.83	29.34	67.65	156.0	31.20	2.092	0.183	0.152	0.193
580.0	32.94	25.53	21.81	17.85	17.41	19.07	21.42	30.10	45.71	47.16	37.25	34.44	40.28	182.0	333.1	36.88	8.768	7.661	7.277	7.245	6.571	6.424	6.118	6.036	6.156	6.084	6.216	6.186	6.628	6.677	6.624	6.225	5.676	5.414	5.264	5.237	4.949	4.834	4.533	4.136	3.684	3.545	3.417	3.020	2.834	2.462	2.496	2.234	2.078	1.663	1.779	1.810	2.204	2.439	1.924	1.366	1.289	1.208	1.048	1.029	0.921	0.883	0.866	0.744	0.659	0.611	0.574	1.052	2.871	6.917	16.62	82.25	136.2	24.84	0.727	0.202	0.132
585.0	28.43	25.65	19.72	15.04	15.26	16.97	19.59	25.53	36.34	47.12	38.78	31.12	27.45	79.90	314.0	114.6	8.084	7.191	6.575	5.998	5.838	5.444	4.931	5.453	5.216	5.123	5.431	5.281	5.290	5.289	5.380	5.131	4.637	4.853	4.258	4.399	4.229	3.736	3.834	3.395	3.005	2.865	2.973	2.554	2.292	2.216	2.025	1.873	1.740	1.515	1.618	1.432	1.622	2.031	1.956	1.357	1.156	1.046	0.888	0.870	0.799	0.783	0.758	0.780	0.614	0.591	0.549	0.604	0.996	1.854	4.039	21.86	94.78	109.2	16.76	0.301	0.166
590.0	28.71	24.54	21.13	14.83	12.31	14.90	16.28	21.52	28.52	43.80	41.29	29.85	24.47	31.54	160.0	259.6	41.83	5.793	4.982	4.854	4.483	4.320	4.225	4.211	4.039	3.892	4.085	4.231	4.155	4.420	4.252	4.282	3.718	3.735	3.564	3.490	3.278	3.018	2.878	2.708	2.526	2.485	2.428	2.026	1.973	1.907	1.675	1.584	1.399	1.343	1.241	1.118	1.128	1.443	1.725	1.383	1.108	0.814	0.763	0.724	0.691	0.697	0.657	0.661	0.621	0.494	0.465	0.484	0.511	0.719	1.184	5.109	24.72	67.25	82.95	20.05	1.671
595.0	28.73	23.65	17.59	13.09	11.62	12.35	16.45	19.72	24.38	34.76	43.98	31.01	22.26	18.01	50.73	208.3	177.2	6.112	4.154	3.894	3.639	3.401	3.360	3.348	3.390	3.319	3.315	3.178	3.281	3.369	3.441	3.388	2.913	2.914	2.883	2.599	2.524	2.300	2.246	2.216	2.055	1.964	1.843	1.712	1.766	1.583	1.375	1.280	1.092	1.049	0.919	0.871	0.856	0.959	1.144	1.341	1.233	0.794	0.677	0.623	0.588	0.731	0.629	0.585	0.514	0.589	0.445	0.498	0.331	0.416	0.562	1.338	5.758	15.51	36.55	81.58	27.79
600.0	30.19	22.08	18.22	10.92	9.507	11.64	14.31	18.00	21.69	29.26	42.16	35.22	22.48	14.82	18.77	112.6	257.0	28.05	3.617	3.466	3.066	2.842	2.929	2.722	2.819	2.724	2.572	2.829	2.835	2.873	2.736	2.623	2.514	2.574	2.281	2.153	2.183	2.114	1.932	1.829	1.766	1.664	1.508	1.431	1.309	1.286	1.190	1.155	0.964	0.890	0.843	0.791	0.757	0.779	0.827	1.139	1.229	0.843	0.661	0.556	0.511	0.521	0.482	0.469	0.519	0.567	0.510	0.382	0.318	0.327	0.364	0.535	1.479	3.631	9.194	45.65	75.16
605.0	27.75	20.98	16.94	10.41	10.83	11.15	12.00	16.68	20.30	25.43	37.68	38.53	22.59	15.07	12.31	45.92	228.4	90.76	3.751	3.221	2.615	2.596	2.454	2.239	2.354	2.488	2.493	2.431	2.265	2.556	2.384	2.383	2.270	2.202	1.943	2.068	1.857	1.856	1.682	1.509	1.483	1.379	1.319	1.259	1.111	1.103	1.009	0.979	0.835	0.766	0.757	0.778	0.615	0.624	0.639	0.876	1.166	0.931	0.605	0.554	0.504	0.425	0.486	0.490	0.444	0.457	0.477	0.377	0.323	0.354	0.300	0.315	0.492	0.973	2.212	12.33	53.06
610.0	24.90	19.52	17.56	9.086	9.963	9.538	12.62	16.84	18.63	23.08	31.92	39.56	25.43	15.27	10.33	16.38	108.9	199.1	34.86	2.683	2.163	2.079	2.148	1.990	1.858	2.007	2.005	1.981	1.961	1.989	2.067	1.977	1.838	1.882	1.683	1.652	1.475	1.540	1.421	1.232	1.266	1.233	1.100	1.016	0.925	0.875	0.824	0.817	0.724	0.654	0.588	0.605	0.488	0.542	0.475	0.581	0.792	0.822	0.670	0.567	0.416	0.424	0.397	0.402	0.391	0.373	0.442	0.426	0.352	0.275	0.267	0.266	0.284	0.395	0.640	2.906	13.90
615.0	21.32	15.52	14.39	8.440	8.880	9.726	12.33	16.97	18.87	22.21	27.73	33.15	31.55	15.66	10.15	9.072	32.86	152.7	147.0	3.918	1.883	1.780	1.789	1.780	1.545	1.490	1.716	1.467	1.527	1.485	1.573	1.516	1.441	1.473	1.430	1.327	1.160	1.184	1.038	1.060	1.069	0.978	0.875	0.906	0.800	0.663	0.671	0.664	0.533	0.513	0.461	0.459	0.406	0.512	0.425	0.399	0.495	0.594	0.699	0.540	0.438	0.389	0.366	0.402	0.334	0.370	0.361	0.374	0.398	0.308	0.227	0.238	0.251	0.233	0.324	0.763	3.237
620.0	20.73	16.24	16.25	10.93	9.243	10.40	11.28	13.50	18.66	21.53	25.43	29.94	32.21	17.41	9.860	7.994	11.72	77.68	206.9	28.12	1.867	1.602	1.465	1.427	1.431	1.416	1.546	1.321	1.399	1.374	1.354	1.344	1.113	1.254	1.112	1.133	0.932	1.015	0.959	0.960	0.820	0.760	0.677	0.681	0.632	0.571	0.637	0.561	0.500	0.453	0.454	0.382	0.334	0.511	0.356	0.358	0.355	0.445	0.618	0.566	0.475	0.333	0.389	0.358	0.302	0.301	0.304	0.367	0.320	0.266	0.247	0.208	0.246	0.183	0.200	0.301	0.879
625.0	17.99	15.97	15.42	10.79	8.092	10.15	11.45	13.68	17.18	19.84	25.08	26.88	31.24	18.72	9.745	7.827	7.047	30.56	172.7	79.06	1.947	1.392	1.327	1.533	1.282	1.206	1.286	1.106	1.234	1.200	1.155	1.084	0.954	1.061	1.004	1.016	0.882	0.845	0.855	0.759	0.711	0.629	0.630	0.523	0.610	0.567	0.577	0.462	0.458	0.414	0.410	0.321	0.294	0.415	0.340	0.342	0.273	0.331	0.453	0.539	0.473	0.338	0.360	0.339	0.266	0.314	0.286	0.257	0.314	0.324	0.315	0.270	0.221	0.175	0.163	0.190	0.344
630.0	18.92	16.96	14.74	9.878	8.092	9.988	11.08	12.13	16.41	19.90	22.50	24.16	25.20	22.70	11.11	7.652	5.897	10.69	76.52	163.8	29.71	1.240	1.169	1.197	1.051	1.102	1.075	0.971	1.052	1.071	0.941	0.907	0.847	0.848	0.814	0.774	0.746	0.747	0.607	0.590	0.611	0.563	0.572	0.506	0.431	0.453	0.472	0.461	0.403	0.335	0.333	0.334	0.269	0.313	0.296	0.323	0.264	0.267	0.400	0.439	0.481	0.368	0.333	0.303	0.247	0.278	0.263	0.216	0.240	0.241	0.282	0.263	0.194	0.157	0.174	0.157	0.184
635.0	17.93	18.77	15.07	9.995	8.525	8.467	9.775	12.93	14.61	20.27	21.60	21.61	20.75	22.83	14.83	7.561	5.959	5.903	21.49	111.4	123.9	2.834	1.143	1.141	0.906	0.966	0.811	0.836	0.931	0.780	0.894	0.815	0.793	0.668	0.708	0.642	0.613	0.552	0.647	0.519	0.472	0.511	0.464	0.389	0.360	0.389	0.367	0.369	0.364	0.276	0.246	0.269	0.218	0.267	0.269	0.231	0.252	0.246	0.268	0.237	0.390	0.408	0.371	0.256	0.197	0.209	0.216	0.246	0.274	0.237	0.240	0.269	0.204	0.152	0.153	0.149	0.180
640.0	20.37	21.80	16.41	11.58	8.656	8.090	10.68	11.28	13.09	18.70	21.75	21.49	20.78	21.45	17.48	8.606	6.234	4.769	7.655	52.50	168.7	23.75	1.175	0.812	0.787	0.880	0.721	0.652	0.800	0.801	0.725	0.710	0.723	0.507	0.618	0.651	0.458	0.478	0.516	0.540	0.376	0.534	0.460	0.344	0.354	0.343	0.362	0.335	0.304	0.299	0.272	0.238	0.240	0.256	0.210	0.209	0.212	0.249	0.195	0.248	0.319	0.312	0.335	0.318	0.225	0.225	0.206	0.259	0.224	0.244	0.156	0.233	0.173	0.169	0.184	0.139	0.146
645.0	24.38	25.09	23.37	13.84	9.473	8.702	10.01	12.16	14.16	18.52	19.08	21.68	20.29	18.55	19.26	10.10	6.386	4.891	4.581	19.04	134.5	67.77	1.381	0.819	0.787	0.763	0.756	0.655	0.642	0.799	0.696	0.732	0.562	0.465	0.555	0.572	0.414	0.381	0.508	0.432	0.403	0.479	0.371	0.305	0.324	0.374	0.260	0.338	0.310	0.314	0.260	0.222	0.223	0.239	0.189	0.203	0.242	0.221	0.194	0.187	0.253	0.211	0.265	0.268	0.217	0.195	0.180	0.221	0.242	0.257	0.183	0.203	0.237	0.191	0.201	0.102	0.187
650.0	22.76	28.57	25.88	16.16	9.132	9.906	9.989	10.56	15.34	17.06	20.04	21.26	20.32	17.93	18.91	12.27	6.999	5.402	4.048	6.888	70.76	137.6	8.575	0.768	0.797	0.659	0.651	0.632	0.553	0.623	0.563	0.620	0.559	0.420	0.497	0.504	0.385	0.405	0.513	0.404	0.355	0.382	0.409	0.294	0.312	0.329	0.255	0.325	0.356	0.266	0.217	0.224	0.212	0.224	0.176	0.198	0.198	0.180	0.183	0.178	0.209	0.190	0.293	0.234	0.202	0.214	0.201	0.162	0.204	0.207	0.142	0.224	0.165	0.201	0.174	0.119	0.173
