Sample:	'1
File name:	F2025070421兴忠循环回用水.FD3
Run date:	'11:17:52, 07/11/2025
Operator:	Administrator
Comment:	'

Instrument
Model:	F-2700 FL Spectrophotometer
Serial number:	23B8-004
ROM Version:	4J14000 07

Instrument parameters
Measurement type:	3-D scan
Data mode:	Fluorescence
EX  Start WL:	220.0 nm
EX  End WL:	600.0 nm
EX Sampling interval:	5.0 nm
EM  Start WL:	230.0 nm
EM  End WL:	650.0 nm
EM Sampling interval:	5.0 nm
Scan speed:	12000 nm/min
EX Slit:	5.0 nm
EM Slit:	5.0 nm
PMT Voltage:	700 V
Response:	Auto 
Corrected spectra:	Off
Contour interval:	50.000

Peak integration
Integration method:	Rectangular
Sensitivity:	1
Threshold:	1.000

Peaks
No.	ApexEX/EM(nm)	Height(Data)
1	225.0/565.0	31.83
2	225.0/600.0	31.24
3	225.0/625.0	31.65
4	230.0/560.0	32.02
5	230.0/575.0	32.21
6	230.0/615.0	31.07
7	230.0/640.0	35.05
8	235.0/515.0	189.3
9	240.0/265.0	423.0
10	240.0/355.0	2044
11	240.0/525.0	198.8
12	245.0/270.0	438.5
13	245.0/535.0	179.1
14	250.0/275.0	576.8
15	250.0/550.0	152.1
16	255.0/280.0	649.2
17	255.0/560.0	135.3
18	260.0/290.0	671.7
19	260.0/575.0	119.3
20	265.0/295.0	847.1
21	265.0/365.0	1744
22	265.0/585.0	116.1
23	270.0/600.0	105.2
24	275.0/325.0	1772
25	275.0/615.0	114.4
26	280.0/315.0	1816
27	280.0/625.0	113.2
28	285.0/320.0	1819
29	285.0/635.0	90.07
30	330.0/375.0	481.4
31	335.0/380.0	479.7
32	345.0/395.0	334.0
33	350.0/400.0	328.9
34	365.0/420.0	210.4
35	380.0/440.0	133.7
36	395.0/460.0	77.19
37	400.0/465.0	66.34
38	410.0/480.0	42.44
39	415.0/485.0	36.66
40	425.0/500.0	26.25
41	430.0/505.0	22.17
42	440.0/520.0	15.34
43	455.0/540.0	9.202
44	470.0/560.0	4.423
45	480.0/355.0	8.166
46	485.0/265.0	2.566
47	485.0/360.0	8.148
48	485.0/580.0	2.256
49	495.0/270.0	2.439
50	505.0/275.0	3.691
51	510.0/280.0	4.142
52	520.0/285.0	4.324
53	530.0/290.0	3.845
54	540.0/295.0	5.191
55	560.0/310.0	8.073
56	570.0/315.0	9.003
57	580.0/320.0	8.338
58	585.0/325.0	8.286

Data points
	220.0	225.0	230.0	235.0	240.0	245.0	250.0	255.0	260.0	265.0	270.0	275.0	280.0	285.0	290.0	295.0	300.0	305.0	310.0	315.0	320.0	325.0	330.0	335.0	340.0	345.0	350.0	355.0	360.0	365.0	370.0	375.0	380.0	385.0	390.0	395.0	400.0	405.0	410.0	415.0	420.0	425.0	430.0	435.0	440.0	445.0	450.0	455.0	460.0	465.0	470.0	475.0	480.0	485.0	490.0	495.0	500.0	505.0	510.0	515.0	520.0	525.0	530.0	535.0	540.0	545.0	550.0	555.0	560.0	565.0	570.0	575.0	580.0	585.0	590.0	595.0	600.0
230.0	32.48	739.8	1740	521.2	22.99	5.253	5.116	4.549	3.803	3.404	3.423	3.011	2.473	2.242	1.855	1.633	1.450	1.192	1.189	0.888	0.882	0.779	0.698	0.683	0.629	0.591	0.533	0.511	0.425	0.453	0.455	0.366	0.382	0.345	0.331	0.344	0.325	0.322	0.300	0.316	0.304	0.283	0.320	0.255	0.239	0.252	0.949	3.674	5.730	4.151	1.632	0.400	0.203	0.234	0.216	0.205	0.187	0.241	0.234	0.223	0.198	0.220	0.196	0.224	0.207	0.236	0.185	0.215	0.202	0.200	0.230	0.215	0.234	0.213	0.217	0.228	0.223
235.0	37.04	224.0	1295	3061	497.6	32.23	6.598	4.900	4.844	4.224	3.915	3.805	2.338	2.151	1.825	1.590	1.427	1.293	1.025	0.961	0.833	0.842	0.727	0.783	0.635	0.617	0.635	0.535	0.484	0.515	0.431	0.352	0.378	0.401	0.364	0.361	0.298	0.327	0.333	0.315	0.306	0.284	0.276	0.326	0.305	0.292	0.442	1.141	2.597	5.284	7.888	7.975	3.344	0.696	0.217	0.195	0.208	0.231	0.215	0.210	0.177	0.262	0.235	0.220	0.215	0.246	0.216	0.191	0.214	0.207	0.201	0.209	0.247	0.229	0.217	0.237	0.246
240.0	61.91	91.82	418.9	3306	2663	390.0	20.10	6.394	5.358	4.192	3.768	3.433	2.675	2.551	1.825	1.990	1.647	1.296	1.145	0.850	0.921	0.765	0.683	0.681	0.679	0.638	0.570	0.498	0.486	0.441	0.469	0.372	0.422	0.317	0.391	0.381	0.258	0.327	0.440	0.294	0.283	0.221	0.273	0.276	0.383	0.412	0.343	0.477	0.808	1.801	5.103	12.14	12.92	8.295	2.803	0.527	0.214	0.237	0.249	0.219	0.189	0.261	0.222	0.227	0.210	0.245	0.199	0.168	0.246	0.236	0.221	0.201	0.219	0.183	0.236	0.254	0.227
245.0	63.36	100.7	147.3	1224	3246	2732	278.8	8.882	6.043	4.836	4.500	4.681	3.106	2.376	2.049	1.987	1.607	1.274	1.415	1.000	0.932	0.699	0.739	0.652	0.639	0.570	0.573	0.508	0.620	0.555	0.500	0.391	0.435	0.385	0.383	0.346	0.318	0.345	0.331	0.335	0.244	0.302	0.350	0.260	0.310	0.396	0.524	0.501	0.372	0.624	1.420	4.527	10.85	17.39	15.84	7.420	1.794	0.311	0.248	0.300	0.224	0.224	0.199	0.204	0.230	0.202	0.263	0.205	0.213	0.229	0.262	0.178	0.232	0.217	0.246	0.231	0.200
250.0	34.55	93.08	193.7	362.5	1110	3091	3513	1013	49.84	6.736	5.249	4.799	4.043	2.789	2.196	1.984	1.759	1.537	1.172	1.215	0.894	0.885	0.730	0.670	0.688	0.626	0.572	0.559	0.536	0.499	0.458	0.388	0.394	0.386	0.413	0.356	0.315	0.305	0.302	0.305	0.278	0.281	0.335	0.278	0.274	0.285	0.394	0.638	0.856	0.810	0.775	1.316	2.879	6.155	11.14	16.05	19.32	15.92	7.699	1.878	0.325	0.243	0.236	0.203	0.237	0.220	0.246	0.262	0.225	0.222	0.272	0.234	0.223	0.236	0.243	0.245	0.209
255.0	26.81	39.64	159.5	355.2	334.9	820.3	3170	5327	1323	40.57	7.432	5.916	4.317	3.435	2.992	2.284	1.750	1.640	1.179	1.126	1.039	0.864	0.819	0.809	0.630	0.768	0.580	0.601	0.604	0.502	0.517	0.427	0.429	0.491	0.388	0.333	0.354	0.287	0.257	0.290	0.292	0.343	0.318	0.318	0.316	0.304	0.289	0.339	0.497	0.964	1.477	1.482	1.134	1.716	2.745	4.249	8.738	19.74	30.23	24.93	11.16	1.892	0.329	0.273	0.325	0.242	0.232	0.223	0.231	0.228	0.245	0.274	0.228	0.208	0.257	0.249	0.286
260.0	23.08	20.90	64.75	319.1	330.9	240.4	1005	4857	5385	264.4	20.04	6.580	5.259	4.325	3.272	2.572	2.206	1.958	1.305	1.415	0.940	0.983	0.921	0.853	0.671	0.780	0.632	0.517	0.598	0.499	0.519	0.499	0.452	0.445	0.391	0.359	0.328	0.327	0.298	0.300	0.364	0.359	0.279	0.326	0.259	0.280	0.241	0.276	0.315	0.480	1.010	2.008	2.062	1.236	0.950	1.300	2.280	5.814	15.14	29.27	33.40	22.36	7.367	0.977	0.351	0.297	0.279	0.253	0.230	0.248	0.243	0.236	0.253	0.220	0.245	0.207	0.265
265.0	27.95	20.35	27.18	149.1	423.0	252.9	266.3	1731	6403	4749	199.5	10.47	5.837	4.959	3.326	2.725	2.420	2.100	1.640	1.319	1.161	0.934	0.947	0.914	0.725	0.759	0.665	0.575	0.606	0.454	0.608	0.554	0.458	0.453	0.416	0.389	0.328	0.405	0.332	0.297	0.301	0.331	0.330	0.327	0.327	0.295	0.235	0.257	0.230	0.340	0.450	1.122	2.189	2.566	1.479	0.769	0.883	1.673	3.837	9.270	21.85	38.38	31.78	18.10	3.641	0.466	0.282	0.340	0.276	0.283	0.230	0.277	0.225	0.279	0.254	0.240	0.304
270.0	29.86	28.88	22.61	53.80	212.2	438.5	299.1	443.2	2139	5613	4923	797.6	37.48	6.658	4.384	3.642	2.702	2.239	1.813	1.443	1.281	1.182	0.963	0.937	0.886	0.786	0.621	0.708	0.673	0.539	0.555	0.612	0.489	0.468	0.457	0.411	0.379	0.416	0.302	0.377	0.308	0.342	0.382	0.279	0.318	0.284	0.284	0.310	0.291	0.274	0.295	0.444	0.843	1.458	2.280	2.439	2.166	1.319	1.230	2.409	5.436	11.92	19.64	30.48	32.02	28.17	12.81	3.218	0.473	0.281	0.279	0.269	0.262	0.275	0.295	0.212	0.284
275.0	44.76	39.78	35.99	36.81	70.97	218.6	576.8	353.8	531.9	1461	4964	8101	1057	28.84	6.682	4.476	3.369	2.615	2.153	1.623	1.394	1.273	1.013	1.170	0.879	0.758	0.817	0.736	0.688	0.578	0.587	0.577	0.476	0.446	0.416	0.551	0.405	0.384	0.303	0.398	0.416	0.384	0.382	0.339	0.380	0.417	0.341	0.399	0.318	0.305	0.283	0.362	0.387	0.682	0.852	1.400	2.973	3.691	2.338	1.170	1.561	3.028	4.794	7.413	11.04	25.07	44.30	32.10	18.60	3.182	0.470	0.310	0.281	0.292	0.265	0.268	0.275
280.0	68.93	75.93	64.79	45.72	46.61	91.43	391.9	649.2	277.6	398.6	1548	7405	7075	156.0	14.00	5.646	4.203	3.418	2.534	1.834	1.538	1.460	1.136	1.179	0.941	1.003	0.848	0.776	0.671	0.656	0.497	0.546	0.512	0.463	0.508	0.606	0.529	0.410	0.379	0.447	0.435	0.303	0.392	0.361	0.421	0.463	0.440	0.469	0.407	0.379	0.263	0.350	0.371	0.429	0.458	0.646	1.327	2.750	4.142	3.176	1.597	1.156	1.610	2.200	3.066	6.819	17.66	35.49	50.49	29.28	11.40	1.405	0.331	0.332	0.317	0.276	0.288
285.0	87.37	112.5	106.6	76.93	49.78	58.36	171.8	622.4	555.0	224.0	469.0	2563	8694	5151	113.9	8.674	4.999	3.983	2.763	2.208	1.749	1.436	1.262	1.153	0.931	0.992	0.815	0.688	0.658	0.693	0.659	0.607	0.563	0.563	0.665	0.564	0.555	0.481	0.354	0.463	0.389	0.341	0.398	0.375	0.409	0.539	0.573	0.592	0.617	0.513	0.484	0.459	0.440	0.431	0.396	0.491	0.698	1.109	2.320	4.010	4.324	2.193	1.199	1.086	1.420	2.143	4.636	10.19	24.18	43.11	35.97	23.30	5.938	0.597	0.336	0.352	0.318
290.0	111.8	167.6	186.9	136.3	83.09	72.34	105.1	286.5	671.7	570.2	347.9	760.8	2862	6361	5510	447.2	21.71	5.488	3.417	2.709	2.017	1.579	1.352	1.136	1.066	0.993	0.871	0.896	0.687	0.770	0.724	0.677	0.591	0.570	0.644	0.551	0.525	0.447	0.391	0.458	0.357	0.410	0.403	0.425	0.459	0.651	0.690	0.792	0.746	0.696	0.645	0.565	0.551	0.533	0.520	0.557	0.612	0.739	1.117	1.766	3.062	3.640	3.845	2.920	1.700	1.549	1.996	3.264	6.332	12.38	19.37	31.31	32.28	31.28	15.16	4.715	0.569
295.0	163.0	223.9	271.4	195.3	123.1	103.1	122.5	190.0	349.5	847.1	785.2	465.8	842.5	1677	4923	6489	592.4	17.39	5.163	3.466	2.448	1.815	1.674	1.533	1.141	1.106	0.909	0.890	0.738	0.784	0.757	0.704	0.681	0.661	0.613	0.529	0.548	0.462	0.482	0.433	0.410	0.404	0.402	0.432	0.492	0.637	0.740	0.960	1.005	0.866	0.781	0.738	0.723	0.699	0.604	0.708	0.691	0.855	0.905	1.057	1.384	1.793	2.923	4.656	5.191	3.368	2.014	1.935	2.540	3.871	5.207	7.645	9.760	21.50	39.33	35.29	22.25
300.0	146.1	253.9	310.9	237.8	156.7	137.1	152.7	202.4	297.3	605.5	1174	699.2	485.2	556.7	1520	6286	5253	90.04	10.81	4.245	3.272	2.317	2.052	1.736	1.389	1.177	1.029	0.918	0.705	0.896	0.763	0.813	0.602	0.621	0.607	0.505	0.559	0.525	0.487	0.464	0.457	0.381	0.436	0.468	0.533	0.685	0.776	1.047	1.082	0.964	0.980	1.011	0.870	0.762	0.739	0.799	0.971	1.004	0.981	1.267	1.232	1.553	2.074	2.993	5.140	6.089	4.570	2.526	2.297	2.287	2.375	2.741	3.097	5.898	13.56	29.12	47.87
305.0	167.9	280.5	350.9	277.0	202.9	183.4	232.8	315.0	361.3	640.6	1160	1362	738.2	503.5	621.4	2255	7053	3919	70.39	7.736	4.064	2.960	2.346	2.048	1.473	1.466	0.927	1.136	0.778	0.937	0.683	0.867	0.662	0.697	0.614	0.600	0.535	0.592	0.575	0.415	0.512	0.450	0.532	0.515	0.578	0.639	0.937	1.081	1.261	1.077	1.190	1.235	1.084	0.936	0.985	0.967	1.120	1.269	1.441	1.791	1.931	1.984	2.654	3.022	3.917	5.314	7.113	6.217	4.274	3.152	2.820	2.364	2.285	2.820	4.436	8.717	20.12
310.0	199.1	326.8	436.1	385.8	307.4	297.5	370.8	507.9	687.9	948.6	1260	1679	1593	942.0	713.9	943.3	2539	5133	4284	305.0	16.79	4.145	2.885	2.223	1.706	1.465	1.200	1.201	1.076	1.035	0.872	0.944	0.746	0.837	0.665	0.650	0.498	0.576	0.569	0.526	0.531	0.498	0.538	0.544	0.689	0.768	0.998	1.283	1.477	1.367	1.461	1.490	1.408	1.307	1.264	1.406	1.697	2.033	2.144	2.748	3.047	3.496	3.931	4.408	4.884	5.380	6.459	7.528	8.073	7.353	5.632	4.068	3.655	3.392	3.665	4.387	6.682
315.0	224.3	377.7	523.8	486.3	411.6	386.2	473.0	642.4	878.7	1159	1412	1626	1816	1604	969.3	791.3	1037	1590	3802	4628	425.4	12.26	3.965	3.007	2.139	2.029	1.718	1.465	1.140	0.987	0.963	1.096	0.906	0.737	0.711	0.675	0.633	0.637	0.589	0.630	0.539	0.500	0.557	0.644	0.709	0.945	1.045	1.599	1.575	1.731	1.759	2.162	1.895	1.782	1.817	1.789	2.199	2.346	2.794	3.459	3.716	4.424	4.627	5.414	5.498	6.062	6.487	6.907	7.150	7.991	9.003	7.887	5.672	4.468	4.392	4.088	4.285
320.0	242.7	434.4	627.3	582.8	505.3	457.5	536.1	733.1	987.0	1287	1525	1703	1751	1819	1240	861.4	776.9	766.7	1229	4518	3885	65.93	7.951	3.884	2.640	2.237	1.712	1.500	1.291	1.182	1.074	1.174	0.953	0.861	0.650	0.639	0.587	0.680	0.628	0.604	0.563	0.629	0.533	0.635	0.738	0.935	1.123	1.557	1.833	1.959	2.113	2.400	2.266	2.121	2.131	2.269	2.428	2.591	3.032	3.729	4.090	4.790	5.470	5.894	6.156	6.554	6.888	7.108	7.577	7.694	7.915	8.274	8.338	6.830	5.455	4.484	3.995
325.0	278.1	512.3	763.2	767.7	595.9	533.2	593.9	788.2	1039	1350	1565	1772	1754	1665	1611	1036	760.8	623.0	505.7	1505	4931	2979	52.81	5.793	3.489	2.726	1.784	1.434	1.359	1.224	1.094	1.192	1.038	0.850	0.732	0.705	0.661	0.693	0.596	0.588	0.590	0.663	0.667	0.714	0.699	1.073	1.356	1.869	2.449	2.366	2.560	2.989	2.581	2.411	2.365	2.405	2.789	2.987	3.405	3.604	4.557	4.872	5.730	5.926	6.379	6.732	7.121	7.416	7.495	7.705	7.553	7.547	7.956	8.286	7.321	5.533	4.581
330.0	328.6	642.6	1031	1139	864.8	672.7	665.5	828.4	1052	1326	1552	1735	1735	1565	1472	1324	918.1	628.8	396.1	483.8	1569	3487	3197	242.5	14.42	3.632	2.532	1.953	1.572	1.462	1.216	1.147	0.971	0.922	0.800	0.671	0.698	0.780	0.608	0.619	0.555	0.613	0.680	0.765	0.838	1.189	1.663	2.393	3.203	3.349	3.669	4.101	3.811	3.302	2.933	2.730	3.009	3.141	3.389	4.113	4.424	4.791	5.473	6.199	6.433	6.690	7.145	7.550	7.519	7.703	7.341	7.157	6.852	7.081	7.418	7.261	6.125
335.0	366.0	738.6	1273	1518	1310	929.3	772.3	854.5	1058	1297	1502	1651	1673	1518	1330	1212	1163	739.5	413.3	303.7	475.1	908.8	2631	3648	365.2	12.55	3.389	2.429	1.846	1.752	1.547	1.103	1.107	1.039	0.899	0.797	0.725	0.737	0.589	0.687	0.626	0.681	0.773	0.781	0.878	1.362	1.691	2.607	3.867	4.466	4.889	5.800	5.690	4.887	4.237	3.517	3.358	3.448	3.668	4.350	4.411	4.859	5.407	5.915	6.234	6.276	6.597	6.909	7.223	7.294	7.024	6.877	6.780	6.438	6.121	6.069	6.486
340.0	360.4	779.5	1378	1754	1617	1146	871.3	902.2	1078	1294	1444	1587	1603	1479	1288	1105	1098	921.1	471.3	292.6	263.2	315.6	786.4	3305	3182	57.12	7.084	2.967	2.152	1.984	1.559	1.199	1.277	1.015	0.870	0.805	0.583	0.704	0.642	0.691	0.593	0.728	0.702	0.840	0.993	1.272	1.983	2.873	4.138	4.747	5.384	6.764	6.801	6.056	5.025	4.109	4.119	3.946	3.847	4.371	4.625	5.120	5.236	5.830	6.039	6.108	6.377	6.853	7.023	7.159	6.863	6.676	6.454	6.461	5.850	5.732	5.355
345.0	363.2	804.0	1453	1875	1820	1303	974.8	957.3	1098	1279	1396	1511	1523	1429	1254	1055	948.0	958.2	623.8	327.9	245.5	212.3	275.5	1065	3628	2518	47.72	4.516	2.581	2.314	1.870	1.449	1.291	1.067	0.819	0.886	0.764	0.716	0.677	0.579	0.579	0.604	0.781	0.823	0.961	1.228	1.901	2.943	4.148	4.941	5.600	7.340	7.162	6.768	5.813	4.794	4.365	4.171	4.257	4.302	4.655	4.912	5.424	5.750	6.000	5.729	5.605	6.233	6.360	6.630	6.675	6.221	6.317	5.931	5.783	5.258	4.914
350.0	353.8	775.0	1440	1927	1944	1504	1137	1072	1180	1324	1415	1445	1429	1346	1198	1025	872.8	811.6	740.4	499.9	306.5	234.0	204.8	339.9	1125	2553	2435	217.8	14.10	2.874	2.056	1.637	1.253	1.130	0.939	0.922	0.787	0.748	0.666	0.646	0.600	0.588	0.712	0.742	0.932	1.235	1.868	2.867	4.263	4.740	5.938	7.419	7.817	7.484	6.537	5.771	4.828	4.880	4.622	4.848	4.951	5.157	5.405	6.122	6.068	6.121	5.846	5.876	6.237	6.220	6.146	6.136	6.077	5.694	5.626	5.214	4.929
355.0	336.7	724.9	1394	1932	2044	1695	1370	1315	1404	1488	1480	1445	1386	1298	1170	1017	885.9	760.9	661.9	650.8	458.3	288.1	227.2	211.9	341.1	650.5	1737	2971	348.5	13.88	2.656	1.914	1.541	1.232	0.953	1.079	0.748	0.808	0.642	0.643	0.715	0.631	0.673	0.702	0.851	1.291	1.626	2.814	3.666	4.568	5.970	7.249	8.166	7.998	7.454	6.616	6.001	6.055	5.719	5.793	6.150	5.993	6.527	6.838	6.499	6.343	6.023	6.105	6.116	5.958	5.959	6.174	5.801	5.716	5.365	5.113	5.188
360.0	331.9	704.8	1332	1872	2026	1809	1530	1501	1603	1661	1584	1472	1380	1280	1163	1012	892.4	765.4	645.3	613.2	597.9	367.6	255.5	203.5	185.7	215.9	491.8	2248	2690	277.9	6.519	2.564	1.947	1.446	1.075	1.020	0.805	0.878	0.642	0.687	0.713	0.638	0.743	0.775	0.859	1.270	1.657	2.516	3.597	4.499	5.784	7.419	7.965	8.148	7.285	7.176	7.101	6.563	6.714	6.736	6.884	6.760	7.277	7.372	6.914	6.476	6.463	6.194	6.067	5.913	6.060	6.004	5.562	5.756	5.611	5.106	5.347
365.0	318.1	661.4	1259	1804	2000	1816	1608	1599	1699	1744	1637	1476	1358	1239	1127	988.2	885.4	775.5	652.1	566.2	592.8	494.7	296.4	218.1	167.1	134.3	167.1	669.5	2591	2260	47.48	4.249	2.503	1.749	1.243	1.074	0.863	0.879	0.676	0.669	0.673	0.779	0.683	0.725	0.908	1.277	1.548	2.526	3.406	4.359	5.239	7.047	7.949	8.146	7.491	7.122	7.121	7.023	6.865	7.128	7.360	7.449	7.806	7.644	7.184	6.788	6.311	6.052	6.086	5.550	5.908	6.020	5.175	5.530	5.239	5.163	5.069
370.0	303.0	624.5	1138	1636	1880	1796	1613	1591	1685	1708	1594	1423	1287	1163	1060	944.7	853.1	760.1	653.4	555.6	508.9	519.8	422.1	268.1	186.8	138.5	112.7	203.2	753.9	1948	2068	202.0	13.98	2.430	1.615	1.216	0.919	0.955	0.720	0.712	0.672	0.681	0.690	0.758	0.980	1.238	1.498	2.259	3.194	3.867	4.989	6.758	7.288	7.570	7.447	7.021	7.033	6.806	6.988	7.052	7.161	7.473	7.520	7.437	6.861	6.720	6.113	5.806	5.686	5.450	5.539	5.271	5.070	5.429	4.779	4.853	4.884
375.0	291.4	550.0	1034	1518	1768	1729	1591	1571	1651	1668	1540	1376	1225	1093	989.9	887.6	808.9	740.3	648.2	552.7	487.2	451.6	481.4	394.4	241.6	178.7	141.5	129.1	218.4	482.0	1288	2400	318.2	13.89	2.483	1.361	1.093	0.993	0.831	0.743	0.874	0.672	0.658	0.781	0.849	1.110	1.289	2.162	2.881	3.485	4.566	6.143	6.958	7.019	6.905	6.797	7.306	6.944	6.592	6.876	6.980	7.083	7.388	7.368	7.014	6.141	6.065	5.687	5.485	5.043	5.028	4.817	4.912	4.995	4.743	4.580	4.711
380.0	270.7	519.1	959.5	1387	1661	1675	1547	1553	1628	1638	1512	1351	1200	1041	927.5	844.8	770.2	713.7	642.0	555.6	487.2	439.5	445.1	479.7	329.5	226.8	187.5	143.8	134.1	156.3	356.9	1684	2179	245.2	6.170	1.823	1.491	1.116	0.830	0.732	0.694	0.747	0.688	0.764	0.798	1.006	1.225	2.089	2.734	3.343	4.176	5.592	6.218	6.651	6.558	6.449	6.694	6.436	6.445	6.947	7.011	6.857	7.018	7.172	6.812	5.947	5.769	5.671	5.282	5.098	4.891	4.882	4.791	4.482	4.770	4.268	4.533
385.0	225.8	481.9	893.1	1263	1533	1575	1469	1468	1549	1536	1424	1269	1142	987.0	870.6	793.1	731.2	682.2	614.5	542.7	478.1	432.4	404.7	438.1	410.8	264.4	205.6	157.9	126.2	99.91	121.1	488.3	1917	1780	39.33	3.266	1.723	1.379	0.880	0.728	0.706	0.735	0.725	0.816	0.801	1.082	1.223	1.836	2.559	3.165	3.830	5.084	6.014	6.339	6.426	6.281	6.706	6.491	6.396	6.633	6.554	6.220	6.323	6.428	6.424	5.794	5.483	5.436	5.058	4.908	4.793	4.737	4.583	4.180	4.153	4.044	4.179
390.0	210.9	430.8	778.1	1125	1366	1411	1340	1324	1364	1364	1251	1122	1015	888.5	785.4	715.8	662.3	620.9	567.6	510.3	456.3	409.5	374.6	361.4	378.3	332.3	223.9	161.9	126.8	95.00	73.96	141.2	540.8	1404	1534	163.9	11.39	1.725	1.177	0.959	0.783	0.756	0.700	0.717	0.718	0.941	1.173	1.703	2.253	2.820	3.306	4.761	5.373	5.786	5.729	5.669	6.098	5.625	5.771	5.776	5.939	6.080	6.088	6.024	5.506	5.400	4.781	4.654	4.608	4.496	3.966	3.979	4.081	3.999	3.758	3.679	3.776
395.0	193.3	380.0	673.3	981.0	1199	1273	1218	1202	1203	1193	1098	994.8	901.4	790.9	707.9	640.2	604.0	569.9	526.3	473.7	430.0	394.3	363.3	331.8	314.1	334.0	297.0	186.2	132.8	99.80	69.65	68.19	146.6	339.4	897.6	1738	263.4	10.86	1.676	1.219	0.909	0.720	0.768	0.742	0.689	0.878	1.099	1.587	1.979	2.509	2.925	4.100	4.924	5.127	5.279	5.053	5.375	5.148	5.022	5.217	5.318	5.211	5.499	5.241	5.132	4.610	4.379	4.007	4.089	4.236	3.515	3.588	3.560	3.495	3.442	3.023	3.431
400.0	187.9	341.9	607.5	900.8	1118	1158	1111	1097	1107	1085	1015	912.1	829.9	718.3	649.9	591.1	557.7	526.3	492.6	448.2	410.5	385.0	357.4	324.8	297.4	290.4	328.9	234.5	147.7	107.6	75.94	60.03	64.57	95.22	236.9	1176	1562	202.6	4.592	1.480	0.966	0.825	0.728	0.703	0.784	0.860	1.051	1.573	1.821	2.332	2.605	3.768	4.105	4.781	4.759	4.754	4.902	4.760	4.744	4.795	5.162	4.774	4.933	4.561	4.603	4.179	3.813	3.779	3.788	3.732	3.607	3.407	3.219	3.127	3.096	2.985	3.147
405.0	165.4	336.2	583.1	824.2	1014	1072	1041	1019	1021	988.9	928.2	838.0	766.5	674.3	599.9	548.0	514.4	488.7	460.5	421.4	390.5	367.4	346.3	317.6	285.8	268.0	289.4	282.0	177.8	118.4	84.49	61.57	49.33	44.00	67.65	329.1	1342	1268	34.86	2.474	1.318	1.013	0.802	0.746	0.707	0.985	0.917	1.469	1.820	2.084	2.672	3.451	3.923	4.371	4.439	4.538	4.454	4.279	4.622	4.621	4.447	4.619	4.241	4.331	4.329	3.732	3.684	3.537	3.559	3.607	3.363	3.151	3.199	2.927	2.846	2.778	3.050
410.0	150.9	286.2	509.7	739.9	888.0	954.9	940.8	922.3	913.0	881.7	816.7	743.3	679.2	601.5	537.6	493.4	465.4	442.6	420.1	386.6	363.1	343.3	320.6	299.7	272.2	249.9	237.7	253.7	231.0	147.7	95.60	67.97	50.68	37.20	33.07	85.88	369.0	987.5	1103	150.5	9.660	1.321	1.082	0.840	0.734	0.842	0.901	1.400	1.622	1.906	2.351	3.093	3.589	3.766	4.053	3.899	4.135	4.135	4.003	3.997	4.039	4.054	3.901	3.880	3.660	3.443	3.329	2.993	3.058	3.107	2.882	2.770	2.774	2.632	2.675	2.659	2.689
415.0	137.4	254.1	452.5	648.0	775.7	849.9	834.3	838.5	814.6	777.6	717.2	645.2	595.6	536.3	479.0	443.7	421.1	403.4	379.0	354.1	332.5	316.7	300.2	280.2	257.2	237.0	217.4	206.3	220.5	201.2	117.4	75.88	54.59	40.24	29.99	34.20	92.83	234.3	636.2	1262	232.3	8.191	1.266	0.927	0.790	0.912	0.852	1.329	1.472	1.838	2.027	2.839	3.287	3.430	3.543	3.670	3.745	3.720	3.745	3.697	3.542	3.352	3.612	3.495	3.372	3.086	2.913	2.699	2.840	2.829	2.620	2.624	2.462	2.627	2.238	2.395	2.378
420.0	132.9	227.6	406.5	586.3	702.2	769.8	774.5	759.1	756.5	721.4	659.5	594.3	539.9	486.1	441.0	410.6	386.9	370.9	353.8	330.2	313.2	299.0	283.6	266.5	247.5	229.6	210.9	190.5	186.7	210.4	152.6	86.23	60.77	43.43	32.13	25.13	32.75	61.65	165.6	848.6	1151	173.7	3.497	1.293	0.850	0.927	0.858	1.162	1.483	1.733	1.959	2.514	3.029	3.147	3.291	3.462	3.713	3.580	3.441	3.312	3.246	3.286	3.237	3.026	2.886	2.773	2.699	2.562	2.630	2.574	2.398	2.267	2.275	2.316	2.216	2.368	2.235
425.0	134.1	205.1	380.1	558.0	652.3	718.3	740.0	735.4	712.4	676.0	613.3	549.0	508.7	456.7	408.6	379.2	362.1	346.4	324.3	308.6	294.0	281.9	271.6	258.4	238.3	221.5	204.6	183.7	169.6	184.0	182.5	109.7	65.45	47.32	34.99	25.50	21.29	24.24	44.71	235.9	973.9	964.2	31.87	1.939	1.216	1.052	0.921	1.177	1.398	1.588	1.753	2.384	2.503	3.088	2.998	3.086	3.352	3.344	3.180	3.339	3.117	3.034	3.027	3.047	2.752	2.532	2.563	2.300	2.434	2.404	2.247	2.265	2.293	2.004	2.211	2.116	2.047
430.0	167.2	194.1	353.3	506.0	607.1	668.3	684.1	689.7	669.8	633.9	570.8	513.4	465.9	420.9	377.1	348.6	331.0	314.7	299.3	287.0	274.7	263.8	254.0	243.1	228.2	213.3	199.1	181.8	164.4	154.7	164.1	147.0	88.09	54.41	40.10	29.68	22.17	17.87	19.04	59.79	268.6	753.1	848.0	137.1	8.165	1.297	0.972	1.081	1.359	1.415	1.638	2.233	2.390	2.885	2.734	2.894	3.131	3.086	3.091	3.099	3.131	2.824	2.822	2.649	2.640	2.419	2.354	2.240	2.023	2.297	2.066	1.972	2.053	2.055	1.930	1.944	2.011
435.0	381.1	168.3	327.7	455.8	550.1	617.7	637.4	646.3	630.8	592.4	533.8	481.2	427.3	382.8	349.7	320.9	300.7	289.9	279.0	267.0	257.5	243.2	236.7	227.3	215.6	204.8	191.7	177.3	163.0	147.4	134.2	141.5	127.4	70.81	45.55	34.35	25.67	19.52	15.85	21.56	66.38	177.5	515.1	1040	210.5	7.082	1.286	1.187	1.383	1.425	1.593	2.212	2.198	2.511	2.630	2.526	2.689	2.955	2.778	2.900	2.822	2.868	2.769	2.577	2.427	2.547	2.124	2.212	2.141	2.011	1.888	1.753	1.872	1.849	1.707	1.607	1.742
440.0	564.7	213.1	304.6	434.1	512.6	571.7	607.7	622.8	601.2	573.3	513.1	452.6	404.2	364.4	326.2	297.1	283.6	269.4	258.6	248.4	240.4	229.3	225.1	218.4	206.3	197.5	185.8	174.7	162.2	146.4	126.0	122.0	133.7	95.13	52.46	37.95	28.47	21.28	16.65	14.52	22.03	45.76	136.8	740.4	989.0	33.26	3.151	1.279	1.316	1.371	1.511	2.000	2.078	2.446	2.523	2.441	2.630	2.507	2.668	2.715	2.657	2.633	2.681	2.463	2.395	2.339	1.983	2.088	2.023	2.077	1.776	1.897	1.887	1.676	1.550	1.620	1.658
445.0	626.6	382.6	281.4	403.7	481.7	531.8	576.5	604.8	584.2	546.7	488.5	428.3	381.7	341.8	307.0	281.1	268.5	256.3	244.1	233.4	224.9	217.5	212.9	207.2	195.7	189.4	180.1	169.5	159.2	144.6	126.3	109.9	115.7	115.5	67.28	41.74	31.40	23.78	18.10	14.34	12.78	16.19	35.66	212.6	882.2	810.7	27.00	1.894	1.383	1.337	1.611	1.807	2.064	2.226	2.379	2.236	2.565	2.478	2.697	2.776	2.798	2.575	2.437	2.432	2.330	2.284	1.944	2.064	1.893	1.936	1.819	1.596	1.721	1.428	1.565	1.540	1.587
450.0	383.8	783.4	345.4	360.7	441.1	492.7	538.9	560.8	547.4	508.9	457.2	401.4	355.9	314.3	284.0	256.2	243.4	233.6	222.2	213.3	206.4	201.8	196.7	191.4	182.9	177.0	168.4	161.2	151.4	141.0	123.7	105.7	95.22	100.9	90.42	54.26	34.26	25.66	20.28	15.79	12.20	10.78	13.57	52.16	246.5	672.8	788.7	121.9	6.898	1.488	1.506	1.750	2.019	2.123	2.155	2.270	2.394	2.436	2.663	2.539	2.601	2.385	2.375	2.336	2.173	2.156	1.847	1.770	1.626	1.787	1.570	1.557	1.493	1.553	1.514	1.395	1.462
455.0	151.5	841.4	748.2	345.1	396.3	455.8	484.7	510.1	503.1	466.3	423.3	368.2	324.1	284.6	256.5	236.0	218.2	207.1	201.6	191.7	186.2	180.5	176.2	171.5	168.8	163.1	156.5	148.9	142.1	133.6	118.1	101.7	85.94	78.37	85.05	75.89	43.17	27.66	22.67	16.65	13.34	10.27	9.122	16.76	58.54	157.9	451.2	890.2	173.2	6.185	1.630	1.809	1.956	1.808	1.954	2.014	2.222	2.347	2.355	2.448	2.359	2.160	2.421	2.189	2.112	1.854	1.770	1.699	1.476	1.511	1.592	1.486	1.442	1.500	1.167	1.432	1.344
460.0	90.34	558.4	1222	423.2	372.4	421.1	451.7	474.1	475.0	443.4	395.2	342.7	292.9	269.4	239.6	216.2	200.2	189.9	182.5	177.5	174.3	167.2	163.7	160.1	154.0	150.4	146.0	141.5	134.4	126.3	114.7	97.96	82.90	71.12	68.89	77.19	57.12	31.66	23.46	17.89	13.90	10.96	8.535	8.471	16.84	38.53	116.0	599.5	781.9	25.53	3.139	1.783	1.832	1.738	1.723	1.734	2.102	2.195	2.179	2.160	2.445	2.109	2.243	1.984	2.029	1.811	1.618	1.662	1.393	1.430	1.400	1.443	1.421	1.397	1.215	1.332	1.276
465.0	72.93	274.0	1409	789.9	351.9	385.3	427.6	446.4	440.7	412.9	370.6	320.1	275.2	249.5	217.6	198.8	185.1	173.5	168.2	162.0	158.7	154.5	150.7	148.5	143.4	139.6	135.7	131.8	127.1	119.2	109.6	93.32	79.69	66.61	60.14	64.61	66.34	39.20	24.30	18.63	14.99	11.29	8.786	7.054	7.946	11.89	29.12	167.8	687.9	614.3	22.63	2.492	1.920	1.716	1.856	1.744	2.021	1.977	2.024	1.999	2.273	1.726	2.033	1.976	1.741	1.768	1.504	1.576	1.423	1.361	1.335	1.357	1.278	1.284	1.144	1.185	1.237
470.0	75.68	147.0	889.0	2059	457.5	336.2	380.8	402.1	403.6	370.7	336.9	292.2	250.0	221.8	192.8	176.9	164.0	154.0	147.8	143.6	139.8	137.3	134.0	131.3	128.4	124.6	120.5	118.8	116.4	108.7	101.1	87.02	74.38	62.41	53.83	49.73	56.13	50.85	30.59	19.61	14.70	11.76	9.262	7.271	6.328	6.395	9.628	40.32	189.9	484.4	530.5	115.3	7.133	1.839	1.686	1.716	1.839	1.870	1.916	1.895	1.990	1.764	1.859	1.711	1.569	1.554	1.375	1.331	1.297	1.257	1.230	1.123	1.164	1.091	1.153	1.111	1.082
475.0	77.06	105.7	353.2	2072	1125	311.0	327.6	361.8	362.8	341.6	301.4	257.5	221.0	197.3	172.4	155.6	142.7	135.5	129.3	128.7	122.6	119.4	117.0	116.0	112.0	111.9	107.6	106.3	104.3	98.24	89.79	79.76	68.03	58.16	50.17	42.57	40.85	45.63	41.28	24.11	15.45	12.25	9.372	7.388	6.286	4.974	5.312	11.77	44.81	112.8	275.7	601.0	162.4	7.280	1.758	1.697	1.640	1.673	1.807	1.851	1.766	1.706	1.685	1.651	1.421	1.386	1.150	1.247	1.257	1.042	1.236	0.992	1.052	1.091	0.931	1.118	1.029
480.0	70.05	103.3	188.2	1215	1907	417.0	304.6	327.1	333.6	314.1	279.1	235.4	209.0	178.4	161.3	139.4	130.1	124.1	116.8	115.4	112.2	108.3	105.8	104.6	102.4	102.3	99.16	97.68	95.52	92.04	84.38	74.95	64.85	55.11	46.96	39.68	34.59	36.68	42.44	31.08	16.95	12.25	9.531	8.034	6.546	5.500	4.660	5.553	12.64	27.36	69.78	357.8	571.0	132.1	3.315	1.698	1.579	1.501	1.783	1.623	1.667	1.606	1.533	1.583	1.393	1.339	1.197	1.233	1.232	1.115	1.036	1.081	0.984	0.873	0.987	0.902	0.913
485.0	73.07	113.0	145.2	564.3	2105	848.4	287.3	307.1	306.0	289.0	262.0	220.0	190.9	166.0	148.6	129.0	122.6	113.4	107.9	103.8	103.9	100.7	98.22	97.80	94.37	93.01	91.78	90.20	89.01	86.11	78.78	69.77	61.09	53.87	45.07	38.21	32.83	30.33	35.85	36.66	21.84	13.07	10.05	8.046	6.627	6.186	4.815	4.606	5.502	8.478	17.91	97.75	452.4	518.3	26.23	2.413	1.663	1.524	1.690	1.595	1.694	1.490	1.368	1.386	1.421	1.281	1.245	1.153	1.074	1.103	1.041	0.936	0.977	0.867	0.988	0.926	0.915
490.0	64.32	128.6	133.6	260.0	1220	1832	376.8	276.1	276.2	266.7	237.4	204.7	173.9	152.3	135.6	118.2	109.4	103.1	98.64	94.83	90.93	90.43	89.34	87.37	84.99	84.37	82.79	81.45	80.10	78.53	72.22	65.09	57.62	49.63	41.61	36.28	30.70	26.95	26.43	31.25	28.96	17.39	11.07	8.430	7.288	6.167	5.125	4.630	4.253	4.459	6.203	24.04	121.1	348.1	367.4	118.7	8.832	1.667	1.555	1.441	1.536	1.380	1.421	1.407	1.277	1.178	1.144	1.101	1.035	0.957	1.037	0.864	0.925	0.831	0.913	0.790	0.861
495.0	44.48	112.7	156.3	162.8	459.1	1908	1094	255.2	249.7	241.7	216.6	184.6	154.8	135.7	117.6	104.2	95.66	90.73	88.02	84.77	80.74	79.72	79.24	77.58	76.73	75.17	73.33	72.07	70.99	70.11	65.01	58.54	51.59	44.16	37.97	33.32	29.33	24.44	22.39	22.37	26.74	24.76	14.26	8.644	7.173	6.635	5.360	4.803	4.130	3.604	3.517	7.400	28.76	80.93	214.1	546.1	191.1	8.820	1.685	1.447	1.323	1.371	1.205	1.291	0.973	1.085	1.108	0.885	0.876	0.871	0.935	0.822	0.819	0.767	0.854	0.693	0.759
500.0	47.96	89.44	178.6	148.4	238.2	1173	1907	318.9	230.7	216.3	194.1	164.4	140.4	125.0	108.3	95.32	88.96	82.92	77.47	77.33	72.99	70.95	69.69	69.35	69.41	66.87	65.32	66.20	64.61	62.97	60.14	54.35	47.19	40.88	35.68	31.00	27.44	23.24	20.23	18.42	21.12	26.25	18.62	9.981	7.153	6.615	5.523	4.638	4.298	3.614	3.065	3.787	8.300	19.82	54.64	308.5	557.6	144.7	4.062	1.482	1.365	1.415	1.180	1.111	0.990	1.037	0.935	0.931	0.851	0.843	0.813	0.857	0.737	0.690	0.701	0.653	0.745
505.0	47.78	71.20	171.9	149.0	168.1	538.5	2133	682.3	207.2	201.0	178.5	151.6	130.5	114.6	99.41	86.96	79.92	74.23	70.82	68.03	65.97	64.67	62.92	61.26	61.29	61.04	60.63	60.45	58.17	56.75	54.57	49.27	43.86	37.86	33.06	29.00	25.09	21.96	19.38	16.15	16.39	21.95	22.17	12.64	7.675	6.260	5.455	4.818	4.262	3.662	3.020	2.911	3.440	6.240	14.00	81.53	390.5	495.7	29.62	2.111	1.323	1.244	1.209	1.123	1.112	0.976	0.815	0.915	0.720	0.724	0.776	0.829	0.743	0.613	0.712	0.721	0.756
510.0	41.29	51.94	131.5	177.7	140.4	238.3	1261	1642	268.1	174.0	155.2	134.1	114.6	100.6	87.74	76.67	69.53	65.04	61.73	59.38	57.50	55.32	55.87	53.53	53.72	52.85	52.76	51.03	51.47	50.06	48.04	43.66	38.62	34.52	29.65	25.69	23.03	19.85	17.17	14.75	13.60	14.97	18.91	17.44	10.36	6.388	5.306	4.527	3.974	3.641	3.290	2.886	2.532	3.056	4.764	19.76	101.2	297.0	313.3	122.8	9.445	1.175	1.103	1.001	0.907	0.905	0.802	0.828	0.767	0.709	0.683	0.678	0.693	0.594	0.608	0.618	0.619
515.0	30.61	41.64	85.39	189.3	145.9	149.7	440.7	1853	871.3	154.2	137.2	121.0	98.90	86.27	74.91	64.86	60.25	54.56	53.97	51.55	47.94	46.25	47.22	46.12	45.38	45.23	43.98	44.05	44.15	43.28	41.41	38.19	34.05	30.19	26.19	22.63	20.28	17.83	15.17	13.44	11.94	11.01	12.86	16.58	13.88	8.247	5.488	4.325	4.003	3.324	3.366	3.360	2.532	2.235	2.650	5.756	24.05	68.22	148.0	412.1	201.5	10.64	1.145	1.000	0.882	0.802	0.774	0.687	0.632	0.664	0.597	0.611	0.579	0.569	0.593	0.567	0.543
520.0	30.49	39.94	65.03	162.7	173.6	121.5	197.9	1168	1676	212.2	125.6	106.3	87.85	78.61	66.35	58.07	54.21	49.15	48.14	46.92	42.70	42.38	42.13	41.09	39.72	40.18	39.20	39.40	39.19	38.11	36.49	33.40	30.58	27.16	23.55	20.67	17.70	15.97	13.79	12.43	10.96	10.19	9.541	12.81	15.34	11.06	5.810	4.295	3.853	3.143	3.201	3.200	2.824	2.110	2.009	2.611	6.666	16.78	36.56	204.2	505.1	150.8	5.001	0.921	0.866	0.864	0.692	0.675	0.631	0.615	0.589	0.589	0.523	0.508	0.544	0.561	0.491
525.0	29.54	35.91	55.37	118.7	198.8	118.7	132.1	509.7	2026	528.4	113.3	95.68	81.44	68.54	60.66	53.47	48.98	45.08	42.53	40.27	38.58	38.30	37.50	36.04	35.80	35.17	34.87	35.53	35.02	34.06	32.87	30.22	26.51	24.68	21.48	19.68	16.52	14.73	12.77	11.28	10.36	8.696	8.141	9.156	13.64	13.59	7.255	4.579	3.697	3.161	2.960	2.730	3.084	2.596	1.771	2.053	2.785	5.094	9.325	51.77	308.6	421.7	31.55	2.141	0.879	0.792	0.700	0.561	0.683	0.628	0.646	0.621	0.513	0.565	0.537	0.461	0.488
530.0	32.05	30.38	49.85	76.13	169.7	145.7	105.6	204.4	1222	1456	175.2	84.30	68.67	59.46	51.95	45.39	41.50	39.02	36.18	35.24	33.49	32.92	31.84	31.40	30.54	30.20	30.74	30.27	30.24	29.90	28.96	25.48	23.41	21.29	18.89	16.81	14.65	13.01	11.49	10.29	9.262	7.746	7.359	6.934	8.942	11.67	10.39	5.881	3.625	2.875	2.559	2.501	2.471	2.707	2.033	1.747	1.822	2.389	3.174	12.64	77.33	214.9	252.5	122.4	9.871	0.886	0.673	0.556	0.636	0.532	0.587	0.556	0.470	0.509	0.495	0.428	0.461
535.0	28.27	29.99	45.39	56.83	111.6	179.1	97.62	114.8	401.3	1712	709.8	75.56	62.20	51.00	44.08	38.41	35.63	32.93	30.24	29.47	28.46	27.59	27.00	26.03	25.51	25.98	25.72	25.99	25.24	24.40	24.13	21.66	19.70	18.15	16.32	14.10	13.04	11.60	10.21	8.753	7.884	6.938	6.393	5.973	5.893	7.639	10.09	8.639	4.350	2.906	2.380	2.126	2.212	2.129	2.199	1.849	1.424	1.482	1.670	3.849	18.17	49.07	95.06	288.0	177.2	11.64	0.747	0.536	0.552	0.452	0.532	0.449	0.477	0.419	0.492	0.437	0.384
540.0	27.41	28.18	38.98	51.03	75.24	173.0	110.3	90.17	156.0	1052	1448	115.5	53.44	46.20	40.64	35.24	30.79	29.73	26.64	27.33	24.19	24.10	23.64	22.23	21.34	22.55	22.80	22.19	22.43	21.51	20.79	18.91	17.26	15.82	14.63	12.11	11.22	9.854	9.316	8.090	7.305	6.192	5.667	5.182	5.019	5.414	7.465	9.202	5.617	3.339	2.257	2.076	1.959	1.666	1.896	2.391	1.862	1.274	1.283	1.811	4.880	11.83	22.66	123.0	301.4	124.3	5.578	0.641	0.493	0.505	0.497	0.405	0.448	0.421	0.447	0.411	0.409
545.0	23.95	24.66	33.73	44.80	57.07	131.0	132.6	76.65	91.88	418.1	1775	229.6	48.31	39.82	35.19	31.02	28.00	25.66	23.36	23.12	21.61	21.03	20.45	19.69	19.65	19.83	19.33	19.26	19.78	19.51	18.21	16.75	15.17	14.02	12.73	10.96	9.620	8.801	8.120	6.914	6.525	5.766	5.264	4.789	4.333	4.225	4.911	7.970	7.119	3.969	2.172	1.894	1.778	1.676	1.722	2.302	2.051	1.405	1.194	1.256	1.797	3.556	5.838	29.96	149.5	269.1	32.54	2.492	0.527	0.406	0.500	0.412	0.376	0.415	0.428	0.369	0.378
550.0	27.22	27.00	29.81	37.31	43.90	77.04	152.1	82.10	68.89	145.3	1014	1107	95.37	33.92	28.72	25.68	22.86	22.01	19.81	18.94	17.63	17.53	16.67	16.50	16.28	15.89	16.33	15.91	16.38	15.71	14.98	13.57	12.86	11.45	10.33	9.375	8.445	7.520	6.815	5.796	5.464	4.940	4.688	4.201	3.648	3.475	3.420	4.938	6.263	5.434	2.940	1.894	1.618	1.403	1.458	1.509	1.826	1.664	1.256	0.951	1.123	1.487	1.961	7.481	36.12	115.4	174.6	98.19	10.65	0.647	0.437	0.437	0.410	0.388	0.381	0.375	0.374
555.0	23.93	21.25	28.98	32.78	39.23	50.56	120.2	114.6	56.86	72.63	301.4	1380	456.2	30.96	24.27	21.93	18.96	17.20	15.08	15.70	14.29	14.09	14.07	13.70	13.59	12.93	12.44	13.26	13.01	12.60	12.46	11.67	10.29	8.604	8.442	7.604	6.965	5.998	5.732	5.121	4.602	3.960	3.710	3.266	3.274	2.871	2.660	2.890	3.848	4.998	4.058	2.368	1.334	1.166	1.262	1.100	1.229	1.573	1.463	0.951	0.859	1.022	1.065	2.275	8.608	26.46	54.41	162.6	131.1	12.20	0.483	0.495	0.438	0.325	0.333	0.326	0.310
560.0	22.46	25.28	32.02	27.79	30.19	38.88	77.97	135.3	55.26	54.45	105.1	847.0	1010	58.03	21.44	18.22	15.51	13.93	13.44	13.17	12.54	11.76	11.71	11.44	11.41	10.86	11.00	10.92	10.57	10.96	10.36	9.427	8.633	7.261	7.213	6.449	5.872	5.197	4.950	4.381	3.968	3.404	3.321	3.004	2.938	2.349	2.240	2.204	2.518	3.936	4.423	2.974	1.423	1.102	1.128	1.029	1.105	1.240	1.517	1.315	0.880	0.869	0.811	1.116	2.416	6.495	12.78	60.62	172.7	93.82	5.494	0.499	0.393	0.347	0.352	0.287	0.306
565.0	22.63	31.83	28.90	25.60	28.23	32.28	49.33	132.9	72.27	46.81	56.71	316.7	1307	154.8	17.91	16.09	13.76	12.01	11.25	11.02	9.768	10.24	10.02	9.600	10.07	9.146	9.208	9.272	8.816	8.913	8.871	8.041	7.492	6.351	6.286	5.316	4.879	4.294	4.169	3.563	3.632	3.201	2.709	2.650	2.470	2.157	2.020	1.889	1.875	2.499	3.764	3.514	1.674	1.047	1.043	0.904	0.960	0.906	1.255	1.463	0.950	0.771	0.710	0.657	1.104	1.899	3.326	14.55	73.00	159.6	32.90	2.402	0.466	0.374	0.329	0.376	0.346
570.0	25.67	25.50	30.53	25.92	25.51	26.97	34.44	91.74	109.6	46.42	44.63	104.6	769.7	772.7	49.81	13.11	11.44	10.25	9.326	9.183	8.349	8.319	8.314	7.563	7.722	7.630	7.406	7.460	7.045	7.302	7.102	6.455	6.023	5.386	4.954	4.363	4.050	3.711	3.452	3.053	2.843	2.597	2.325	2.149	2.065	1.875	1.684	1.578	1.421	1.589	2.313	3.107	2.537	1.338	0.999	0.821	0.826	0.767	0.870	1.087	1.230	0.991	0.711	0.536	0.743	0.878	1.180	3.715	17.35	60.59	102.0	66.78	9.818	0.487	0.341	0.329	0.313
575.0	25.46	28.29	32.21	26.66	23.93	22.91	26.25	48.16	119.3	63.84	40.11	52.55	222.8	982.5	282.6	12.77	9.644	8.062	7.568	6.787	7.181	6.883	6.418	5.874	5.960	5.852	5.628	5.764	5.853	5.496	5.544	5.045	4.780	4.128	3.990	3.404	3.401	2.860	2.614	2.586	2.394	2.227	2.112	1.775	1.565	1.616	1.327	1.182	1.159	1.051	1.259	1.982	2.303	1.987	0.949	0.714	0.728	0.702	0.611	0.764	0.900	1.265	0.783	0.508	0.574	0.550	0.709	1.297	4.311	13.94	29.36	90.57	84.51	9.567	0.345	0.314	0.308
580.0	25.26	27.70	31.18	26.44	22.80	20.62	23.15	31.15	101.0	93.52	38.42	39.80	73.01	607.4	664.6	26.11	8.686	7.588	5.983	6.108	5.805	6.145	5.552	4.853	4.937	4.840	5.088	4.725	5.050	4.542	4.329	4.253	4.112	3.485	3.474	2.865	2.773	2.489	2.454	2.219	2.029	1.838	1.711	1.606	1.418	1.237	1.101	1.152	1.016	0.944	1.035	1.295	2.005	2.256	1.301	0.803	0.735	0.636	0.581	0.610	0.658	1.099	1.017	0.629	0.535	0.590	0.596	0.668	1.302	3.546	6.904	31.21	100.5	35.80	5.038	0.336	0.305
585.0	25.34	27.72	29.49	26.99	21.80	18.38	23.56	27.74	64.23	116.1	44.26	35.51	38.80	227.0	867.4	93.73	7.318	6.489	5.598	5.221	5.280	4.882	4.770	4.709	4.650	4.532	4.329	4.089	4.059	4.201	3.964	3.561	3.533	2.935	2.991	2.509	2.283	2.180	2.101	1.999	1.891	1.665	1.392	1.347	1.268	1.236	0.946	1.052	0.885	0.846	0.895	0.838	1.194	2.152	1.629	1.060	0.739	0.537	0.545	0.533	0.520	0.749	0.978	0.897	0.479	0.520	0.486	0.529	0.667	1.229	1.854	7.554	39.60	96.32	31.41	2.219	0.280
590.0	24.55	28.64	30.23	27.05	20.92	17.88	21.29	23.90	39.94	105.6	67.10	36.37	30.62	68.99	513.2	433.5	20.93	5.703	4.942	4.421	4.269	4.045	3.906	3.694	3.621	3.604	3.600	3.452	3.302	3.395	3.305	3.172	2.936	2.622	2.361	2.044	1.917	1.770	1.834	1.611	1.471	1.332	1.183	1.141	1.053	1.054	0.990	0.880	0.870	0.737	0.677	0.615	0.800	1.278	1.749	1.276	0.801	0.580	0.500	0.506	0.479	0.551	0.683	0.907	0.720	0.534	0.441	0.428	0.492	0.623	0.648	1.979	9.418	36.37	67.62	46.93	7.759
595.0	22.35	28.00	26.86	26.44	21.92	17.81	18.24	22.04	27.30	69.30	95.78	39.96	28.36	29.60	144.5	589.9	96.99	5.604	3.928	3.811	3.588	3.274	3.314	3.213	2.870	2.759	2.849	2.969	2.633	2.742	2.537	2.614	2.320	2.199	1.809	1.641	1.599	1.418	1.514	1.265	1.183	1.160	0.991	0.962	0.915	0.944	0.803	0.824	0.747	0.708	0.633	0.558	0.578	0.810	1.266	1.500	1.134	0.590	0.451	0.405	0.490	0.422	0.513	0.625	0.783	0.763	0.460	0.417	0.441	0.445	0.409	0.701	2.448	8.448	18.70	54.80	54.63
600.0	29.91	31.24	30.74	24.86	20.46	17.28	18.54	21.15	26.71	47.19	105.2	49.51	28.76	22.16	43.76	384.8	343.5	11.77	3.844	3.911	3.029	3.105	2.600	2.727	2.385	2.501	2.625	2.448	2.287	2.437	2.226	2.040	1.949	1.931	1.570	1.506	1.524	1.225	1.168	1.237	0.956	0.955	0.818	0.924	0.811	0.871	0.628	0.723	0.645	0.540	0.577	0.489	0.570	0.566	0.856	1.281	1.178	0.655	0.429	0.467	0.437	0.351	0.423	0.499	0.577	0.859	0.628	0.413	0.356	0.415	0.299	0.409	0.824	2.153	4.453	18.59	61.02
605.0	25.13	27.01	30.61	22.23	22.30	16.68	18.87	22.19	29.60	36.80	92.99	72.91	34.37	22.74	22.32	149.4	504.8	51.83	3.805	3.015	2.699	2.697	2.177	2.442	2.334	2.066	2.168	2.175	1.903	2.040	2.074	1.831	1.679	1.503	1.355	1.355	1.272	1.183	1.053	1.090	0.955	0.826	0.821	0.820	0.688	0.782	0.542	0.578	0.474	0.505	0.492	0.433	0.485	0.539	0.570	0.913	1.073	0.910	0.538	0.425	0.424	0.497	0.386	0.448	0.508	0.764	0.969	0.407	0.349	0.368	0.358	0.350	0.475	0.748	1.331	4.639	23.64
610.0	25.12	26.81	28.61	23.27	19.24	19.97	22.16	27.26	33.40	44.90	73.79	103.0	52.63	34.17	26.67	52.06	338.2	256.8	10.52	2.678	2.262	2.249	2.035	2.069	1.977	1.835	1.854	1.891	1.639	1.771	1.762	1.619	1.434	1.268	1.166	1.117	1.015	1.042	0.863	0.785	0.813	0.714	0.656	0.650	0.655	0.640	0.467	0.542	0.504	0.462	0.479	0.456	0.427	0.433	0.444	0.529	0.863	0.986	0.708	0.484	0.446	0.453	0.489	0.424	0.489	0.629	0.801	0.703	0.542	0.487	0.389	0.378	0.430	0.443	0.604	1.326	5.745
615.0	24.75	27.12	31.07	25.70	19.52	20.45	24.09	32.23	40.74	55.83	69.34	114.4	84.00	46.23	36.41	32.47	113.8	392.6	65.27	2.825	1.916	2.017	1.849	1.581	1.615	1.563	1.573	1.431	1.533	1.432	1.609	1.262	1.202	0.999	0.969	0.917	0.859	0.810	0.752	0.640	0.754	0.528	0.612	0.568	0.573	0.556	0.473	0.450	0.402	0.408	0.434	0.472	0.393	0.375	0.339	0.395	0.577	0.849	0.822	0.674	0.490	0.462	0.511	0.497	0.535	0.699	0.662	0.724	0.871	0.585	0.523	0.469	0.535	0.445	0.498	0.604	1.567
620.0	22.90	29.42	28.62	27.79	20.93	22.49	26.47	32.94	43.07	56.71	73.30	103.7	106.9	53.33	38.94	31.66	47.52	288.3	207.0	5.629	1.838	1.731	1.474	1.436	1.320	1.409	1.369	1.292	1.398	1.443	1.271	1.067	1.050	0.910	0.897	0.808	0.709	0.757	0.714	0.679	0.530	0.632	0.571	0.420	0.458	0.407	0.368	0.423	0.495	0.383	0.429	0.366	0.354	0.341	0.325	0.421	0.462	0.621	0.777	0.734	0.569	0.442	0.561	0.571	0.527	0.578	0.605	0.703	0.891	0.794	0.610	0.513	0.518	0.396	0.452	0.419	0.733
625.0	22.48	31.65	30.81	27.73	23.55	20.99	23.63	35.74	45.66	59.57	73.29	88.57	113.2	59.48	40.80	34.90	33.19	131.5	336.7	24.36	2.252	1.464	1.289	1.270	1.408	1.232	1.216	1.168	1.208	1.014	1.061	0.909	0.930	0.900	0.905	0.742	0.629	0.583	0.554	0.599	0.521	0.580	0.469	0.494	0.482	0.386	0.370	0.394	0.417	0.410	0.431	0.328	0.312	0.330	0.242	0.542	0.355	0.430	0.827	0.829	0.663	0.470	0.586	0.569	0.532	0.587	0.528	0.640	0.816	0.900	0.695	0.510	0.491	0.413	0.472	0.358	0.523
630.0	24.85	27.74	30.10	27.05	23.59	23.72	26.59	35.05	45.94	56.51	69.84	80.37	102.2	75.37	44.96	34.27	29.90	49.10	253.2	143.0	4.678	1.363	1.397	1.172	1.140	1.012	1.094	0.879	1.066	0.892	0.822	0.855	0.779	0.707	0.634	0.606	0.579	0.581	0.497	0.546	0.482	0.470	0.437	0.399	0.392	0.364	0.346	0.397	0.413	0.423	0.348	0.368	0.317	0.322	0.288	0.384	0.356	0.378	0.520	0.680	0.649	0.532	0.498	0.544	0.503	0.528	0.534	0.491	0.683	0.691	0.672	0.550	0.488	0.434	0.415	0.400	0.409
635.0	25.48	25.31	31.92	27.43	23.90	22.57	26.36	35.13	47.16	56.43	69.91	76.33	83.90	90.07	49.45	34.26	28.79	28.63	85.54	271.8	36.46	1.431	1.268	1.221	1.096	0.914	0.893	0.820	0.877	0.706	0.765	0.765	0.744	0.547	0.569	0.546	0.506	0.508	0.475	0.455	0.389	0.429	0.402	0.424	0.341	0.325	0.311	0.344	0.325	0.332	0.306	0.331	0.387	0.378	0.261	0.307	0.332	0.338	0.420	0.485	0.617	0.572	0.536	0.491	0.501	0.495	0.469	0.501	0.541	0.546	0.598	0.664	0.609	0.500	0.455	0.388	0.438
640.0	23.43	27.62	35.05	29.37	26.27	24.00	24.60	34.65	45.45	56.57	68.17	75.58	77.08	88.16	56.81	35.56	30.61	24.66	29.95	223.1	122.5	2.429	1.241	1.163	0.990	0.899	0.902	0.808	0.718	0.666	0.633	0.635	0.645	0.554	0.516	0.551	0.464	0.503	0.463	0.438	0.427	0.390	0.350	0.363	0.342	0.328	0.347	0.443	0.302	0.323	0.341	0.305	0.300	0.298	0.301	0.344	0.391	0.342	0.415	0.392	0.563	0.617	0.540	0.519	0.575	0.453	0.437	0.431	0.496	0.517	0.449	0.603	0.688	0.572	0.430	0.377	0.387
645.0	19.36	26.44	30.78	29.58	26.17	20.43	25.66	35.64	44.98	55.64	66.66	73.84	72.78	79.06	63.21	38.26	31.32	23.68	16.49	104.4	222.1	12.28	1.060	0.961	0.894	0.797	0.789	0.761	0.651	0.828	0.647	0.507	0.652	0.518	0.492	0.450	0.438	0.474	0.384	0.367	0.370	0.399	0.306	0.319	0.335	0.363	0.342	0.344	0.263	0.302	0.268	0.332	0.315	0.365	0.316	0.304	0.358	0.341	0.351	0.321	0.461	0.569	0.554	0.488	0.545	0.454	0.466	0.456	0.514	0.612	0.470	0.503	0.582	0.568	0.468	0.366	0.417
650.0	20.94	29.19	30.28	31.09	27.24	23.54	24.66	33.56	43.78	53.91	67.36	74.03	70.69	68.45	71.89	39.80	30.52	23.41	13.30	33.85	232.9	52.63	1.301	0.857	0.875	0.856	0.682	0.766	0.532	0.634	0.550	0.566	0.522	0.461	0.532	0.387	0.384	0.414	0.379	0.363	0.289	0.392	0.309	0.257	0.259	0.287	0.312	0.300	0.234	0.315	0.254	0.375	0.314	0.330	0.295	0.334	0.394	0.341	0.374	0.342	0.421	0.448	0.581	0.488	0.575	0.503	0.420	0.405	0.551	0.449	0.486	0.482	0.517	0.546	0.490	0.399	0.375
