Sample:	'1
File name:	S2025080908Ãñ·áÂ·ÇÅ.FD3
Run date:	'13:52:34, 08/10/2025
Operator:	Administrator
Comment:	'

Instrument
Model:	F-2700 FL Spectrophotometer
Serial number:	3064-004
ROM Version:	4J14000 07

Instrument parameters
Measurement type:	3-D scan
Data mode:	Fluorescence
EX  Start WL:	220.0 nm
EX  End WL:	600.0 nm
EX Sampling interval:	5.0 nm
EM  Start WL:	230.0 nm
EM  End WL:	650.0 nm
EM Sampling interval:	5.0 nm
Scan speed:	12000 nm/min
EX Slit:	5.0 nm
EM Slit:	5.0 nm
PMT Voltage:	700 V
Response:	Auto 
Corrected spectra:	Off
Contour interval:	50.000

Peak integration
Integration method:	Rectangular
Sensitivity:	1
Threshold:	1.000

Peaks
No.	ApexEX/EM(nm)	Height(Data)
1	225.0/545.0	95.80
2	225.0/635.0	52.13
3	230.0/340.0	 1554
4	230.0/560.0	91.05
5	235.0/355.0	 1531
6	240.0/365.0	 1623
7	245.0/380.0	 1718
8	245.0/530.0	249.6
9	250.0/385.0	 1696
10	250.0/545.0	247.4
11	255.0/280.0	778.4
12	255.0/555.0	214.2
13	260.0/285.0	 1083
14	260.0/570.0	206.0
15	265.0/290.0	 1327
16	265.0/580.0	211.5
17	270.0/295.0	 1926
18	270.0/595.0	194.5
19	275.0/305.0	 2389
20	275.0/375.0	 2000
21	275.0/605.0	198.2
22	280.0/310.0	 2221
23	280.0/345.0	 2027
24	280.0/365.0	 2038
25	280.0/615.0	155.3
26	285.0/315.0	 2021
27	285.0/630.0	122.3
28	290.0/645.0	92.50
29	320.0/360.0	 1136
30	335.0/380.0	 1120
31	430.0/505.0	89.27
32	445.0/525.0	53.34
33	460.0/340.0	6.068
34	505.0/275.0	3.258
35	520.0/285.0	5.416
36	530.0/290.0	5.621
37	540.0/295.0	8.967
38	545.0/300.0	10.01
39	550.0/305.0	10.36
40	560.0/310.0	9.348
41	560.0/340.0	8.696
42	560.0/615.0	2.691
43	570.0/315.0	9.044
44	570.0/365.0	8.669
45	575.0/320.0	9.206
46	575.0/360.0	8.954
47	580.0/325.0	8.975

Data points
	220.0	225.0	230.0	235.0	240.0	245.0	250.0	255.0	260.0	265.0	270.0	275.0	280.0	285.0	290.0	295.0	300.0	305.0	310.0	315.0	320.0	325.0	330.0	335.0	340.0	345.0	350.0	355.0	360.0	365.0	370.0	375.0	380.0	385.0	390.0	395.0	400.0	405.0	410.0	415.0	420.0	425.0	430.0	435.0	440.0	445.0	450.0	455.0	460.0	465.0	470.0	475.0	480.0	485.0	490.0	495.0	500.0	505.0	510.0	515.0	520.0	525.0	530.0	535.0	540.0	545.0	550.0	555.0	560.0	565.0	570.0	575.0	580.0	585.0	590.0	595.0	600.0
230.0	33.99	 2385	9999.9	 4946	213.7	10.66	5.904	6.084	4.435	4.326	3.633	3.665	4.401	3.686	3.378	2.893	2.687	2.642	2.126	2.151	2.196	2.067	1.993	1.669	1.613	1.674	1.700	1.217	1.324	1.293	1.229	1.173	1.192	1.039	1.050	1.087	1.062	0.846	0.906	0.835	0.732	0.852	0.812	0.779	0.655	0.680	1.380	5.280	9.991	8.261	3.578	0.885	0.552	0.480	0.399	0.358	0.432	0.405	0.339	0.390	0.254	0.321	0.272	0.292	0.291	0.237	0.199	0.162	0.143	0.203	0.179	0.146	0.100	0.129	0.138	0.139	0.180
235.0	55.73	592.1	 4436	9999.9	 3767	357.4	8.387	8.572	4.928	5.784	4.865	5.102	5.328	3.691	3.821	3.296	2.358	2.852	2.539	2.231	2.221	2.178	2.040	2.247	1.965	1.511	1.540	1.373	1.764	1.443	1.122	1.102	1.060	1.022	0.798	0.897	0.990	1.045	0.900	0.953	0.799	0.880	0.832	0.766	0.944	0.744	0.938	1.751	3.939	6.327	9.680	10.03	4.669	1.461	0.428	0.419	0.463	0.371	0.303	0.389	0.229	0.287	0.336	0.363	0.343	0.221	0.249	0.126	0.222	0.187	0.240	0.117	0.129	0.165	0.171	0.088	0.188
240.0	64.10	215.7	 1105	 5982	 7755	 3435	104.9	9.236	5.695	6.749	5.610	5.320	5.260	4.461	3.777	3.457	2.440	2.428	2.522	2.661	1.892	2.296	2.092	2.080	1.797	1.810	1.510	1.131	1.636	1.208	1.232	1.160	0.984	0.988	1.231	0.903	1.183	0.888	0.846	0.879	0.766	0.739	0.689	0.744	0.989	0.914	1.008	1.004	1.338	2.088	5.059	11.44	13.65	9.692	3.417	1.099	0.527	0.585	0.328	0.369	0.339	0.212	0.315	0.258	0.282	0.212	0.351	0.117	0.222	0.188	0.139	0.192	0.076	0.085	0.154	0.048	0.153
245.0	55.00	173.8	334.4	 1602	 5001	 8347	836.8	63.61	8.395	6.875	5.325	5.104	6.943	4.623	4.085	3.506	2.389	2.881	2.566	2.572	2.669	2.243	2.085	2.359	1.694	1.784	1.289	1.527	1.766	1.121	1.348	1.303	1.150	1.135	1.059	1.247	0.843	0.749	0.875	1.007	1.013	0.972	0.607	0.835	0.676	1.059	1.129	1.096	1.000	1.066	1.697	3.898	8.626	15.60	15.36	8.771	2.692	0.614	0.351	0.313	0.303	0.298	0.331	0.372	0.187	0.179	0.302	0.241	0.229	0.196	0.232	0.198	0.236	0.212	0.119	0.179	0.144
250.0	47.54	101.8	204.9	476.5	 1300	 5103	 6240	 3147	224.1	10.58	8.770	6.832	7.082	4.791	4.596	4.550	2.871	3.283	2.781	2.682	2.180	2.255	2.275	2.327	2.079	1.920	1.885	1.751	1.793	1.727	1.272	1.420	1.306	1.212	1.091	1.158	1.012	0.888	0.981	0.822	0.921	0.869	0.834	0.835	0.708	0.801	0.982	1.045	1.305	1.317	0.986	1.425	2.468	5.029	8.937	14.06	16.83	14.80	8.235	2.696	0.476	0.362	0.345	0.360	0.286	0.163	0.297	0.292	0.216	0.182	0.242	0.264	0.187	0.146	0.171	0.150	0.132
255.0	52.29	69.99	103.4	304.4	441.3	 1185	 2572	9999.9	 4132	344.3	13.41	9.762	9.751	6.999	6.201	4.585	3.090	3.934	3.300	3.184	2.713	2.288	2.189	1.996	2.360	1.933	1.887	1.648	1.774	1.456	1.319	1.316	1.308	1.136	0.971	0.964	1.190	1.046	0.914	0.736	0.998	0.755	0.756	0.834	0.834	0.688	0.700	0.657	0.888	1.339	1.316	1.482	1.150	1.622	2.334	3.660	6.516	14.32	25.64	25.91	13.16	3.221	0.379	0.408	0.308	0.182	0.276	0.277	0.245	0.199	0.204	0.174	0.167	0.172	0.123	0.060	0.141
260.0	55.46	75.82	57.31	181.1	370.4	356.1	640.7	 4931	 8322	 3769	184.4	14.01	8.848	7.411	6.375	5.343	3.822	3.626	2.672	3.411	3.102	2.278	2.205	2.109	2.032	2.204	2.356	1.627	1.700	1.582	1.825	1.798	1.342	1.356	1.134	0.986	0.896	0.793	0.966	0.767	0.828	0.715	0.704	0.868	0.690	0.655	0.645	0.896	0.770	0.995	0.907	1.553	1.615	1.371	1.029	1.313	1.929	4.098	10.76	22.84	34.32	28.20	10.27	1.324	0.310	0.219	0.232	0.189	0.240	0.273	0.358	0.188	0.211	0.270	0.167	0.246	0.273
265.0	80.14	84.53	52.77	78.28	272.1	366.4	201.3	 1271	 4686	9999.9	 2756	77.05	14.18	8.922	7.608	5.889	4.343	3.482	3.638	3.280	2.953	2.210	2.081	2.223	1.827	2.112	2.130	2.273	2.079	1.870	1.630	1.450	1.227	1.449	0.889	1.164	1.098	0.870	0.959	0.778	0.762	0.650	0.977	0.983	0.620	0.820	0.723	0.911	0.738	0.747	0.741	0.769	1.708	2.129	1.609	0.890	0.880	1.331	2.873	6.898	18.07	35.62	42.59	25.83	6.169	0.556	0.226	0.319	0.147	0.280	0.212	0.236	0.349	0.305	0.152	0.134	0.325
270.0	149.2	140.2	80.35	65.84	113.1	326.9	401.8	419.4	 1243	 4935	 9483	 5593	185.8	16.79	10.05	7.311	5.697	4.765	4.221	3.820	3.123	3.152	2.548	2.243	2.138	2.311	1.799	2.274	1.990	1.695	1.553	1.548	1.268	1.318	1.153	1.262	1.295	1.078	1.098	0.880	0.929	1.050	1.080	1.107	1.080	0.992	0.987	0.912	0.665	0.826	0.716	0.726	0.885	1.553	1.715	2.139	1.818	1.424	1.286	2.141	4.885	10.55	20.48	32.45	39.99	37.41	20.62	5.758	0.677	0.313	0.270	0.208	0.269	0.373	0.114	0.373	0.297
275.0	256.3	251.9	155.4	100.9	75.64	142.2	418.8	663.7	514.1	 1345	 3423	9999.9	 9315	226.5	15.72	11.73	7.061	5.850	5.259	3.934	3.642	3.517	2.832	2.673	2.239	2.340	2.339	1.891	1.970	2.120	1.614	1.614	1.502	1.401	1.233	1.423	1.291	1.228	1.298	1.136	1.330	1.273	1.171	1.620	1.574	1.350	1.377	1.105	0.999	0.983	0.840	0.761	0.746	0.866	0.941	1.143	2.354	3.258	2.593	1.657	2.212	3.587	5.805	8.307	13.16	28.76	57.97	51.50	28.97	5.052	0.335	0.337	0.406	0.430	0.181	0.250	0.147
280.0	355.1	405.2	272.5	184.0	102.2	121.9	254.7	778.4	671.6	648.9	 1143	 4389	9999.9	 2558	143.6	14.36	10.31	5.390	5.518	4.393	4.200	4.127	3.284	2.933	2.638	2.677	2.246	2.378	2.221	2.238	1.974	1.935	1.728	1.390	1.605	1.716	1.279	1.815	1.626	1.734	1.413	1.671	1.713	2.220	1.867	2.050	1.766	1.550	1.475	1.337	1.248	0.945	0.743	0.927	0.657	1.167	1.607	2.490	3.602	3.981	2.955	2.437	3.101	3.362	4.365	8.453	21.92	48.34	77.95	47.99	18.98	1.590	0.277	0.350	0.331	0.340	0.356
285.0	447.0	515.9	415.8	279.2	164.9	144.3	213.0	538.7	 1083	677.0	732.6	 1457	 5924	9999.9	 1975	77.32	13.61	8.674	6.923	5.609	5.383	3.438	3.574	3.418	3.718	2.852	2.738	2.538	2.294	2.630	2.088	2.044	1.677	1.809	2.050	1.604	1.636	1.697	1.808	1.947	1.707	2.191	1.978	2.459	2.147	2.743	2.136	2.208	1.834	1.882	1.449	1.331	1.035	1.169	0.825	1.175	1.262	1.660	2.498	4.211	5.416	3.696	2.721	2.660	3.073	3.606	6.585	14.27	34.73	68.23	85.96	39.19	8.147	0.689	0.331	0.314	0.324
290.0	526.8	673.1	608.7	467.6	272.8	202.1	241.5	427.7	869.5	 1327	 1140	 1048	 1966	 5501	9999.9	 7223	114.1	14.41	9.938	6.953	6.068	4.296	4.154	3.619	3.445	2.900	3.035	2.482	2.506	2.674	2.202	1.842	1.725	1.958	1.689	1.811	1.924	1.881	2.141	2.080	2.107	2.031	2.184	2.600	2.595	2.977	2.800	2.873	2.647	2.315	1.709	1.637	1.426	1.249	1.295	1.263	1.436	1.882	2.164	2.699	4.160	5.127	5.621	5.113	4.206	3.945	4.433	5.743	10.34	19.39	36.60	53.78	55.78	60.30	25.37	7.669	0.722
295.0	607.4	788.3	760.5	642.9	404.8	277.8	318.6	477.7	728.1	 1206	 1926	 1421	 1295	 1772	 3261	9999.9	9999.9	150.7	16.32	9.538	7.894	6.354	5.013	4.386	4.154	3.280	3.556	2.584	2.706	2.616	2.294	1.781	1.962	2.183	1.844	1.810	2.207	1.966	2.296	2.130	2.223	1.881	2.522	3.037	2.988	3.360	3.086	3.287	3.460	2.624	2.279	2.080	1.758	1.755	1.907	1.435	1.625	2.086	2.001	2.618	3.044	4.142	4.950	7.489	8.967	6.423	5.312	5.134	5.942	6.922	10.52	14.00	16.85	41.72	89.04	100.8	39.20
300.0	628.0	829.9	843.8	719.7	497.4	341.7	392.7	513.5	784.5	 1124	 1885	 2135	 1378	 1099	 1112	 3970	9999.9	 7588	105.7	13.20	10.06	7.244	5.855	4.981	4.893	3.482	3.745	3.077	2.558	2.676	2.284	2.021	1.861	2.214	1.781	2.403	2.081	2.288	2.273	2.352	2.397	2.128	2.568	2.812	3.341	3.146	3.383	3.422	3.336	2.844	2.568	2.475	1.928	1.614	1.890	1.777	1.878	2.079	2.471	2.845	3.438	4.416	4.353	6.156	8.058	10.01	8.138	6.024	5.749	4.984	5.124	5.579	5.584	11.02	30.14	76.60	116.7
305.0	624.4	808.1	873.7	746.6	558.1	410.9	442.6	584.9	818.2	 1160	 1607	 2389	 1878	 1115	735.4	 1161	 5586	9999.9	 1281	64.21	12.43	9.171	7.575	5.910	4.691	3.784	3.468	2.978	2.884	2.501	2.852	2.044	1.717	2.069	1.782	2.204	2.072	2.513	2.297	2.374	2.099	2.196	2.521	2.968	3.239	3.482	3.308	3.625	3.274	3.018	2.451	2.428	2.353	2.063	1.961	2.022	1.934	2.254	2.543	3.022	3.310	4.439	4.206	5.697	6.684	8.268	10.36	9.258	6.795	5.741	4.448	4.183	3.278	4.070	8.196	20.14	50.60
310.0	595.2	777.7	885.1	754.5	577.0	458.4	493.0	633.3	853.4	 1160	 1520	 1950	 2221	 1612	813.3	614.1	 1519	 5385	9999.9	 5101	84.13	15.34	9.192	7.019	6.035	4.488	4.343	3.779	3.205	3.057	2.745	2.406	2.255	2.232	1.946	2.178	2.063	2.333	2.421	2.230	2.092	2.370	2.377	2.524	2.670	3.317	3.341	3.588	3.289	2.807	2.608	2.667	2.402	2.229	2.335	2.237	2.430	2.391	2.915	3.375	3.638	4.370	4.754	5.557	6.055	6.921	7.960	8.867	9.348	8.293	6.000	4.526	3.228	2.999	3.559	6.146	12.72
315.0	570.4	815.5	886.5	760.0	583.5	494.6	543.2	685.4	885.5	 1164	 1502	 1764	 1890	 2021	 1264	637.9	662.4	 1416	 3133	9999.9	 7880	112.6	14.96	9.411	7.375	5.824	5.016	4.323	3.733	3.772	3.035	2.209	2.973	2.577	2.180	2.439	2.216	2.206	2.428	2.163	2.055	2.150	2.184	2.663	2.821	3.000	3.360	3.417	3.072	3.079	2.763	2.823	2.409	2.477	2.543	2.151	2.565	2.921	3.210	3.485	4.366	4.359	5.075	5.317	5.858	6.418	6.852	7.590	7.769	8.275	9.044	7.605	4.925	3.713	3.050	3.028	4.932
320.0	616.8	963.8	 1071	856.0	644.7	542.6	587.5	723.4	928.3	 1200	 1543	 1791	 1845	 1869	 1779	900.5	570.7	605.4	901.6	 4149	9999.9	 6403	82.06	14.46	9.983	7.079	5.597	5.630	4.707	4.194	3.993	2.939	2.803	2.583	2.187	2.032	2.352	2.085	2.049	1.907	2.079	2.366	2.459	2.668	2.966	3.791	3.637	3.878	3.539	3.736	2.838	2.828	2.635	2.864	2.555	2.439	2.598	2.971	3.406	3.626	3.655	4.355	5.119	5.541	6.659	6.640	6.725	7.090	7.514	7.260	8.041	9.206	8.098	5.586	3.755	2.981	3.079
325.0	683.3	 1128	 1275	 1038	723.9	568.1	613.6	768.6	952.1	 1229	 1577	 1800	 1892	 1795	 1796	 1372	687.0	510.5	457.1	 1125	 6187	9999.9	 4596	52.99	12.78	8.819	7.001	5.398	5.644	4.471	3.457	2.751	3.141	2.862	2.050	2.069	2.094	2.440	2.268	1.900	1.962	2.144	2.731	3.188	3.234	3.679	4.441	4.777	4.927	4.061	3.311	3.075	3.029	2.643	2.414	2.822	2.659	3.048	3.482	3.621	3.953	4.330	5.663	5.627	6.507	7.337	7.271	7.358	7.966	7.093	7.508	7.861	8.975	8.641	6.091	4.276	3.546
330.0	722.6	 1160	 1408	 1245	880.8	643.6	668.6	779.3	994.6	 1242	 1573	 1835	 1937	 1821	 1638	 1515	 1137	646.8	456.2	501.2	 1613	 5775	9999.9	 7888	68.02	14.59	9.653	6.906	6.153	5.121	4.230	3.514	3.366	2.918	2.540	2.138	2.393	2.272	2.231	2.148	2.370	2.380	2.524	2.957	3.549	3.836	4.301	5.069	5.361	4.625	3.682	3.518	3.423	3.045	2.740	2.932	3.082	3.055	3.461	3.677	4.150	4.788	5.318	5.660	6.621	6.924	7.055	7.662	8.244	7.466	7.817	7.552	6.974	7.535	7.044	6.964	5.922
335.0	721.1	 1186	 1503	 1393	 1053	796.8	763.9	893.3	 1018	 1285	 1580	 1851	 1980	 1893	 1667	 1390	 1339	 1057	585.6	461.4	612.7	 1472	 3437	9999.9	 6439	91.57	15.62	9.802	7.929	6.050	5.150	4.146	3.728	3.068	2.657	2.489	2.701	2.545	2.502	2.501	2.453	2.180	2.554	3.245	3.199	4.055	4.247	5.595	5.562	5.274	4.364	4.083	3.865	3.820	3.318	3.355	3.409	3.153	3.749	3.997	4.145	4.928	5.329	5.501	6.528	7.257	7.647	7.260	8.376	8.008	7.927	7.868	7.483	6.262	7.073	6.729	7.722
340.0	734.9	 1177	 1554	 1452	 1168	915.3	854.5	941.8	 1090	 1327	 1604	 1849	 2000	 1953	 1720	 1405	 1218	 1281	831.8	526.6	466.9	574.4	953.6	 4856	9999.9	 5387	69.18	13.54	10.30	7.581	5.285	4.353	4.158	3.492	2.736	3.112	2.843	2.489	2.559	2.616	2.159	2.537	2.954	3.021	3.331	4.482	4.700	5.902	6.068	5.313	4.689	4.813	4.347	4.265	3.571	3.635	3.516	3.477	3.937	4.179	4.654	5.296	5.249	5.845	5.819	7.322	6.958	7.667	8.696	8.182	8.033	7.823	7.418	6.618	6.848	6.156	7.001
345.0	757.5	 1138	 1503	 1506	 1283	 1043	955.5	996.2	 1150	 1362	 1637	 1851	 2027	 1970	 1771	 1458	 1196	 1199	 1115	668.6	494.6	436.2	438.2	 1293	 7308	9999.9	 4073	49.55	14.33	8.741	6.588	4.943	4.115	3.142	3.114	3.125	2.568	2.314	2.158	2.447	2.305	2.693	3.124	2.880	3.300	4.135	4.406	5.076	5.716	5.429	4.713	5.145	4.885	4.355	3.916	3.848	4.540	4.332	4.382	4.647	4.746	5.196	5.499	6.251	7.136	7.534	7.060	7.776	8.113	8.382	8.601	7.711	8.194	7.204	6.967	6.257	6.554
350.0	716.9	 1076	 1460	 1530	 1387	 1224	 1146	 1156	 1277	 1464	 1667	 1875	 1983	 1987	 1814	 1524	 1258	 1124	 1133	 1009	668.9	507.1	417.6	528.8	 1893	 6769	9999.9	 7732	60.62	14.44	9.956	7.061	5.405	4.236	3.575	3.089	2.921	2.458	2.602	2.652	2.448	2.640	2.940	2.704	3.462	3.793	4.328	5.355	5.788	5.223	4.963	5.709	5.060	4.988	4.605	4.617	4.864	4.687	4.397	5.466	5.309	5.766	5.873	6.597	7.273	7.669	7.596	7.822	8.374	8.460	8.619	8.038	8.082	7.928	7.374	7.095	6.588
355.0	654.2	 1022	 1382	 1531	 1478	 1398	 1342	 1366	 1456	 1614	 1749	 1943	 2019	 2013	 1854	 1611	 1348	 1190	 1092	 1099	 1005	673.1	512.6	455.1	661.5	 1677	 3950	9999.9	 5719	80.37	14.63	9.812	6.721	5.142	4.446	3.429	3.288	2.686	2.786	2.710	2.479	2.593	2.825	2.898	3.910	3.763	4.150	4.628	5.502	5.355	4.988	5.487	5.805	5.597	5.409	5.007	5.084	5.013	5.110	5.909	5.894	6.053	6.551	7.191	7.023	8.021	7.847	7.885	8.266	8.151	7.946	8.228	8.291	8.242	7.754	7.414	7.310
360.0	621.8	 1005	 1346	 1522	 1552	 1497	 1454	 1472	 1602	 1703	 1842	 1967	 2022	 2015	 1859	 1650	 1412	 1238	 1141	 1054	 1136	886.3	608.2	496.5	452.0	578.1	 1044	 5822	9999.9	 4870	60.83	13.01	8.961	6.352	4.906	3.815	3.512	3.258	2.772	2.669	2.687	2.652	2.750	3.058	3.420	3.931	4.224	4.672	5.219	4.845	4.642	5.856	6.016	6.102	6.183	5.366	5.524	5.799	6.225	6.339	5.805	5.839	6.983	7.764	7.003	7.940	7.972	7.786	8.542	7.844	8.133	8.954	8.923	8.071	7.600	7.761	7.459
365.0	620.6	941.5	 1291	 1499	 1623	 1549	 1497	 1560	 1646	 1766	 1899	 1940	 2038	 2005	 1866	 1679	 1461	 1302	 1184	 1085	 1083	 1089	757.7	569.0	452.4	388.5	411.0	 1511	 8905	9999.9	 3593	40.03	12.25	7.720	5.936	4.331	3.468	3.506	3.297	2.509	2.857	2.754	2.517	2.894	3.123	3.805	4.076	4.800	4.920	5.047	4.811	5.663	5.856	6.484	6.182	5.810	6.146	6.209	6.432	6.720	6.388	6.502	7.328	7.464	7.122	7.652	7.793	7.902	8.131	7.901	8.669	8.630	8.416	7.627	7.953	7.887	7.781
370.0	602.4	879.2	 1222	 1473	 1590	 1638	 1629	 1610	 1714	 1804	 1914	 1971	 2000	 1964	 1861	 1668	 1503	 1365	 1262	 1160	 1081	 1093	 1028	746.8	558.5	432.6	343.2	512.5	 2273	 8078	9999.9	 7507	51.10	12.31	7.893	5.699	4.574	4.024	4.025	2.962	3.171	3.076	2.594	2.910	3.024	3.686	3.942	4.462	4.885	4.799	4.993	6.043	5.850	6.222	6.007	5.967	6.390	6.369	6.074	6.682	7.055	6.649	7.257	6.955	7.226	7.722	7.837	8.276	8.176	8.064	8.466	8.388	8.663	8.033	8.161	8.054	8.157
375.0	608.1	844.3	 1141	 1413	 1615	 1664	 1669	 1672	 1761	 1842	 1913	 2000	 1984	 1944	 1834	 1654	 1537	 1414	 1330	 1246	 1161	 1090	 1090	 1034	733.3	551.5	421.0	361.9	680.2	 1921	 4713	9999.9	 4822	63.57	11.61	7.496	5.660	4.630	4.153	3.551	3.510	3.001	3.127	3.208	3.043	3.316	4.018	4.114	4.832	4.651	4.894	5.957	6.129	6.297	6.154	6.105	6.913	6.989	6.593	6.782	6.777	7.278	7.572	7.244	7.634	7.663	7.839	8.197	8.066	7.858	8.235	8.599	8.425	8.879	7.916	7.993	8.800
380.0	579.9	824.2	 1091	 1346	 1622	 1718	 1674	 1693	 1748	 1830	 1911	 1979	 1979	 1917	 1799	 1645	 1548	 1453	 1368	 1283	 1231	 1133	 1077	 1120	929.1	663.4	504.4	391.4	365.1	572.9	 1197	 6994	9999.9	 3899	45.42	10.53	7.760	5.364	4.659	3.818	3.530	2.940	3.307	3.146	3.075	3.665	3.620	4.439	4.674	4.605	4.277	5.636	6.056	6.559	6.686	6.412	6.767	6.546	6.446	6.578	6.626	7.469	7.052	7.011	7.719	8.063	8.189	8.172	8.687	7.897	8.140	7.556	8.119	8.314	8.782	7.572	9.071
385.0	560.0	741.9	 1025	 1337	 1587	 1694	 1696	 1681	 1744	 1803	 1877	 1950	 1948	 1860	 1763	 1625	 1526	 1453	 1407	 1323	 1274	 1175	 1090	 1071	 1063	801.2	573.4	447.0	341.8	313.0	393.4	 1806	 9931	9999.9	558.3	29.00	9.451	5.855	4.973	4.461	3.427	3.218	3.123	3.051	3.117	3.510	3.451	4.258	4.290	4.148	4.297	5.391	5.913	6.315	6.238	6.776	6.843	6.411	6.844	6.733	6.427	6.889	7.094	7.034	7.472	8.428	8.333	7.556	8.596	7.937	8.317	8.242	7.961	8.376	7.936	7.682	8.552
390.0	566.9	759.8	 1042	 1265	 1522	 1663	 1676	 1665	 1698	 1759	 1807	 1852	 1839	 1788	 1700	 1583	 1510	 1450	 1388	 1336	 1286	 1212	 1127	 1058	 1039	961.8	718.7	527.2	404.1	311.2	261.0	520.0	 2548	 8354	9999.9	 5931	38.93	10.62	6.727	5.607	4.444	3.853	3.647	3.141	3.481	3.785	3.707	4.264	4.247	4.192	4.311	5.593	5.515	6.146	6.437	6.489	6.404	6.258	6.521	6.346	6.466	6.682	7.240	6.669	7.075	7.384	7.769	7.612	7.791	7.671	7.711	7.926	7.861	7.850	7.925	7.472	8.665
395.0	556.8	717.9	968.7	 1212	 1427	 1597	 1644	 1626	 1655	 1702	 1724	 1765	 1772	 1703	 1630	 1531	 1463	 1410	 1387	 1339	 1297	 1234	 1161	 1090	 1009	975.2	898.5	648.6	479.3	370.4	283.6	272.9	675.7	 1950	 4793	9999.9	 3878	51.41	10.70	7.304	5.221	4.705	3.979	3.931	3.436	3.857	3.345	4.317	4.195	4.186	4.106	5.526	5.935	5.772	6.200	6.048	6.081	6.527	6.267	6.320	6.697	6.757	6.600	6.581	6.883	6.342	7.481	7.444	7.566	7.574	7.365	7.748	7.809	7.623	7.732	7.811	8.437
400.0	522.9	680.9	958.7	 1201	 1391	 1515	 1601	 1594	 1596	 1638	 1694	 1714	 1705	 1624	 1576	 1468	 1428	 1387	 1359	 1327	 1279	 1240	 1168	 1093	 1026	950.3	937.3	782.1	547.1	420.1	323.0	252.8	285.1	526.8	 1191	 6793	9999.9	 3152	36.91	9.193	6.284	5.555	4.103	4.037	3.373	3.744	3.542	4.203	4.019	4.110	4.090	5.611	5.886	5.786	5.596	6.053	6.074	6.257	6.621	6.759	6.817	6.262	6.255	6.728	6.770	6.351	6.942	7.100	7.154	7.337	7.725	7.637	7.168	7.137	7.557	7.419	7.786
405.0	499.3	674.4	915.1	 1120	 1357	 1478	 1547	 1539	 1586	 1597	 1646	 1666	 1638	 1592	 1499	 1426	 1383	 1353	 1336	 1295	 1265	 1221	 1161	 1104	 1024	936.9	897.6	866.5	653.4	474.3	361.6	278.2	226.6	228.7	344.2	 1761	 9155	9999.9	477.4	21.96	8.191	6.097	4.335	4.167	4.180	3.764	3.620	3.884	4.020	3.862	3.931	4.936	5.878	5.532	5.525	5.767	5.984	5.914	5.846	6.075	6.452	6.308	6.070	6.454	7.180	6.323	6.620	6.266	7.004	6.475	6.983	6.929	6.831	7.063	7.231	7.746	8.264
410.0	508.9	637.0	871.9	 1053	 1290	 1417	 1470	 1481	 1512	 1545	 1555	 1572	 1543	 1520	 1440	 1357	 1314	 1284	 1278	 1254	 1222	 1184	 1138	 1083	 1015	938.9	863.2	821.6	757.4	581.6	418.8	321.9	244.4	192.5	179.0	463.9	 2348	 7543	9999.9	 4558	33.53	8.957	5.873	5.214	4.312	3.843	3.686	4.054	4.300	3.941	4.186	4.693	5.143	5.422	5.408	5.676	6.293	6.044	5.885	6.181	6.086	5.948	6.395	5.953	6.689	6.122	6.310	6.320	6.751	6.846	6.414	6.828	6.241	6.382	7.165	6.912	7.256
415.0	487.5	580.0	813.9	980.2	 1189	 1336	 1402	 1484	 1429	 1480	 1502	 1478	 1477	 1396	 1353	 1283	 1247	 1220	 1212	 1182	 1172	 1145	 1097	 1047	994.2	930.6	858.9	777.4	735.1	697.4	506.3	374.3	276.3	211.1	161.3	191.1	584.9	 1737	 4501	9999.9	 3373	45.18	8.295	6.158	4.786	4.408	3.866	4.146	3.969	4.068	3.994	4.428	4.322	5.553	5.244	5.341	5.471	6.109	5.419	5.974	5.967	5.922	6.012	5.731	6.120	5.739	5.762	6.572	5.895	6.460	6.058	6.641	6.352	6.236	6.692	6.585	6.992
420.0	473.5	571.8	782.4	952.0	 1156	 1271	 1351	 1414	 1406	 1443	 1430	 1414	 1393	 1339	 1283	 1212	 1188	 1171	 1149	 1127	 1119	 1088	 1063	 1023	974.9	907.9	845.9	771.4	705.2	695.2	591.7	412.6	308.7	231.4	172.6	141.3	203.5	438.8	 1094	 6070	9999.9	 2750	30.47	8.057	5.849	4.821	4.201	4.115	4.030	3.841	4.011	4.184	4.876	4.951	5.177	5.172	5.775	5.854	6.077	6.034	5.786	6.008	6.046	5.806	5.491	5.983	6.345	5.744	5.775	5.689	5.670	6.145	5.848	5.742	5.869	6.216	6.588
425.0	479.3	548.5	709.9	917.7	 1071	 1213	 1272	 1350	 1401	 1384	 1394	 1374	 1332	 1290	 1226	 1173	 1121	 1110	 1097	 1081	 1069	 1044	 1018	992.2	949.8	899.6	833.3	773.6	701.2	655.7	632.7	475.3	332.8	252.5	187.9	145.9	129.3	157.5	287.8	 1564	 7841	9999.9	438.5	18.42	6.743	5.373	4.641	4.534	3.854	3.645	3.905	4.266	4.810	4.717	4.958	5.054	5.446	5.473	5.931	5.476	5.672	5.970	6.191	5.944	5.333	5.824	5.954	5.344	5.640	5.389	5.932	5.795	5.656	5.863	5.777	5.889	6.297
430.0	 1001	504.5	679.0	848.6	986.0	 1145	 1214	 1284	 1345	 1342	 1337	 1324	 1268	 1218	 1150	 1097	 1047	 1036	 1032	 1016	 1000	983.9	972.5	943.3	912.2	865.3	817.8	764.3	697.5	629.1	594.0	536.0	399.2	280.4	211.8	163.7	128.0	108.2	119.7	390.0	 1993	 6395	 9275	 1914	30.56	7.682	5.579	5.132	4.205	3.961	3.825	4.263	4.566	4.733	4.810	4.855	5.576	5.125	5.273	5.318	5.590	5.470	5.492	5.540	5.501	5.413	5.764	5.319	5.361	5.467	5.135	5.432	5.657	5.453	5.503	5.571	5.847
435.0	 2720	589.9	640.5	786.1	941.5	 1058	 1173	 1247	 1290	 1279	 1279	 1258	 1202	 1140	 1078	 1021	978.7	974.0	960.1	939.9	940.0	925.7	911.4	883.1	869.1	831.2	794.8	743.6	688.2	618.9	561.5	511.4	466.9	331.8	235.7	183.1	141.5	113.4	92.06	135.7	483.4	 1462	 3857	9999.9	 3121	41.15	7.588	6.335	4.839	4.398	3.956	4.134	4.373	4.725	4.922	4.449	4.944	5.180	5.140	5.118	5.628	5.410	5.560	5.322	5.489	5.253	5.021	4.879	5.011	5.093	5.183	4.838	5.274	5.026	4.964	5.812	5.396
440.0	 3903	 1266	601.4	748.0	901.7	 1038	 1115	 1214	 1258	 1259	 1246	 1191	 1142	 1083	 1020	966.0	926.4	918.0	910.9	900.2	885.9	875.2	870.7	847.3	830.3	800.0	775.5	724.0	673.8	616.5	550.4	486.2	458.1	385.5	260.9	194.6	156.6	119.5	94.99	87.35	152.8	359.1	926.9	 5287	9999.9	 2545	28.60	7.502	5.708	4.476	4.256	3.951	4.401	4.523	4.546	4.350	4.829	5.218	5.114	4.962	5.337	4.723	5.167	4.619	4.801	4.813	5.594	4.728	4.646	4.785	5.319	4.386	5.175	5.016	4.762	5.001	4.893
445.0	 3651	 3251	600.3	715.6	863.4	965.3	 1069	 1149	 1214	 1216	 1204	 1161	 1090	 1038	971.5	937.0	884.5	873.1	861.5	835.3	840.3	824.5	818.4	811.0	789.9	766.8	739.9	699.6	662.4	612.8	540.1	471.3	426.5	405.9	297.4	212.4	165.3	128.5	102.3	83.87	83.70	119.0	238.4	 1328	 6846	9999.9	377.9	20.19	7.054	5.055	4.494	4.327	4.192	4.444	4.276	4.484	4.446	4.769	4.923	4.948	5.058	4.773	5.113	4.526	4.500	4.755	5.194	4.852	4.742	4.584	4.371	4.632	4.785	5.241	4.726	4.899	4.184
450.0	 1684	 5514	 1330	636.8	801.7	886.8	994.0	 1094	 1144	 1144	 1126	 1092	 1018	976.8	899.4	855.1	816.5	794.3	789.0	775.3	770.5	766.0	756.9	748.2	737.1	717.4	693.7	658.8	631.0	584.8	530.2	458.8	398.9	363.4	327.6	245.5	182.0	143.5	113.3	91.45	77.15	72.55	87.67	324.4	 1718	 5883	 8686	 3630	27.38	6.689	5.161	5.228	4.479	4.604	4.328	4.436	4.724	4.794	4.970	4.930	4.528	4.896	4.619	4.655	4.450	4.426	4.873	4.519	4.769	4.373	4.360	4.643	4.159	4.333	4.722	4.830	4.331
455.0	621.0	 3861	 4679	732.8	716.1	818.8	910.9	976.8	 1076	 1061	 1058	 1000	933.5	884.7	818.3	778.3	744.5	722.9	710.1	705.0	705.3	687.2	685.5	680.2	677.9	663.0	638.6	609.1	589.3	547.9	505.2	444.2	381.9	332.3	301.7	280.1	209.0	153.0	122.5	100.6	83.38	69.01	61.49	105.2	408.1	 1339	 3289	 9774	 2709	34.36	6.792	5.651	4.996	4.497	4.506	4.253	4.611	4.721	4.642	5.024	4.326	4.932	5.058	4.240	4.293	4.223	4.411	4.278	4.475	4.017	4.279	4.151	4.025	3.919	4.014	4.254	4.079
460.0	380.6	 1628	 6694	 1360	675.2	780.5	847.1	979.0	 1022	998.2	 1001	951.5	882.3	826.7	764.3	718.5	676.6	662.0	662.2	651.1	652.0	636.3	635.5	622.0	630.5	617.7	599.1	577.3	556.9	521.4	484.4	426.2	368.9	316.9	278.5	273.9	235.6	166.0	128.1	105.4	89.48	71.68	58.93	59.61	119.3	320.9	775.7	 4521	 9849	 2154	25.50	6.697	5.820	4.956	4.643	4.511	4.364	4.004	4.591	4.620	4.172	4.707	4.540	3.636	3.928	3.583	4.129	3.962	3.809	3.935	3.904	3.970	3.880	3.877	3.898	4.127	4.191
465.0	327.2	691.4	 5657	 3927	646.0	721.4	793.2	900.9	943.4	949.1	929.4	885.0	821.8	763.9	717.7	666.9	630.7	623.5	611.5	602.9	599.5	587.2	584.1	576.2	583.3	573.0	553.3	545.1	522.7	504.0	462.6	412.0	354.8	309.8	264.4	245.0	242.9	189.8	134.2	113.1	91.93	75.06	61.11	52.21	56.94	95.81	194.8	 1104	 5750	 9003	 1651	19.68	6.312	5.185	4.563	4.309	4.209	4.055	4.214	4.390	4.124	4.108	4.152	3.890	3.936	3.939	4.108	3.788	3.806	4.067	3.664	3.718	4.070	3.285	3.572	4.004	3.566
470.0	296.2	432.3	 2317	 5568	 1401	646.8	744.8	816.3	851.0	859.7	855.7	804.9	749.5	695.7	651.8	608.2	568.5	559.7	548.0	538.5	532.9	531.2	518.1	520.3	518.5	508.3	498.7	492.0	479.9	457.9	425.3	379.3	332.3	291.7	249.8	220.0	211.6	200.8	153.3	117.7	95.94	78.89	64.47	54.30	46.81	48.23	65.31	264.6	 1403	 4645	 6684	 2982	27.98	6.621	5.178	4.422	4.588	4.284	3.898	4.072	3.968	3.899	3.875	3.919	3.701	3.515	3.652	3.688	3.335	3.758	3.332	3.543	3.406	2.968	3.154	3.371	3.233
475.0	273.0	327.4	791.7	 3187	 3054	730.2	653.1	720.4	762.5	774.9	767.9	740.3	684.1	624.6	580.6	537.6	516.2	499.1	482.2	470.7	474.4	467.0	462.1	457.5	456.8	454.1	444.8	444.7	426.6	414.1	386.8	346.3	311.1	270.4	235.0	205.9	183.0	180.2	167.4	129.9	96.99	81.38	66.93	55.86	47.11	40.92	38.69	78.61	328.6	 1051	 2293	 6512	 2609	39.92	6.293	4.647	4.179	4.447	4.018	3.791	3.758	3.713	3.620	3.559	3.480	3.031	3.226	3.245	2.981	3.079	2.816	2.816	3.018	3.042	2.972	3.367	2.861
480.0	238.0	300.4	420.5	 1311	 3525	 1533	589.2	659.4	703.0	731.4	715.3	675.6	624.8	569.2	543.3	500.3	467.6	452.3	436.5	422.7	426.8	419.1	417.4	425.3	419.6	412.3	412.4	409.3	393.5	380.6	356.5	329.0	290.0	256.5	224.3	196.4	169.4	158.5	160.3	144.1	101.7	82.51	68.17	59.21	48.24	40.72	34.91	38.61	89.84	248.3	534.3	 2748	 6878	 2279	28.63	5.583	4.803	4.602	3.944	3.902	3.985	3.810	3.360	3.375	3.414	2.825	3.069	3.163	2.941	2.771	2.540	2.915	2.781	2.859	2.816	2.758	2.499
485.0	200.4	294.9	336.2	597.7	 2541	 2696	572.7	613.8	664.5	672.7	677.4	635.8	583.0	539.8	497.6	460.3	425.0	419.2	403.5	396.8	396.6	384.9	386.6	388.8	383.5	376.4	376.3	377.8	366.9	357.1	333.7	306.7	273.7	242.5	216.0	188.2	163.5	149.2	143.3	146.3	113.5	83.28	71.52	59.29	49.40	41.52	35.36	31.51	39.04	71.02	132.0	660.2	 3694	 6564	375.2	19.10	5.733	4.454	3.994	3.639	3.681	3.147	3.109	3.185	2.746	3.012	3.010	2.730	2.708	2.666	2.398	2.923	2.607	2.796	2.476	2.474	2.583
490.0	200.0	273.0	303.3	381.9	 1089	 3531	 1216	551.6	601.5	613.6	609.7	572.4	529.7	479.9	446.9	412.8	381.1	372.8	360.2	353.8	351.7	347.5	346.4	343.6	342.6	339.9	338.5	334.7	332.1	322.7	308.2	277.1	249.9	223.5	198.5	177.5	155.9	138.9	127.3	128.6	122.2	96.28	70.31	59.46	50.62	42.48	36.13	31.73	28.67	32.20	42.59	159.1	889.2	 3067	 4948	 1659	29.71	5.650	4.578	3.825	3.523	3.430	3.159	2.930	2.767	2.728	2.969	2.745	2.515	2.508	2.444	2.316	2.371	2.199	2.403	2.415	2.458
495.0	168.4	225.0	300.3	302.2	487.5	 2257	 2625	605.7	539.5	556.9	550.1	512.7	470.5	424.1	395.8	364.2	330.4	327.8	320.1	314.0	309.6	309.3	307.0	303.7	306.0	298.7	297.0	292.5	292.0	287.6	273.3	254.1	227.8	206.6	182.3	162.3	145.3	130.4	116.8	108.4	106.9	104.3	77.82	61.53	50.96	44.31	38.29	31.69	27.85	25.12	23.74	48.56	207.8	694.0	 1708	 5354	 2790	41.22	5.559	4.433	3.693	3.735	2.790	2.853	2.589	2.622	2.684	2.429	2.251	2.317	2.281	2.186	2.181	1.970	2.063	2.510	2.216
500.0	161.4	192.2	291.8	292.7	350.2	960.8	 3052	 1126	497.2	507.6	490.2	468.5	431.6	390.6	368.1	329.6	306.0	292.2	289.8	286.0	277.9	276.4	275.9	273.5	269.6	270.2	266.8	264.1	266.3	261.7	250.6	230.1	207.2	190.6	168.7	153.6	138.9	123.8	109.6	102.6	95.65	98.11	87.30	65.04	51.42	43.58	38.65	31.74	28.03	24.20	20.39	23.77	57.28	166.0	397.9	 2271	 6291	 2268	29.82	5.463	3.850	3.388	2.835	2.837	2.560	3.059	2.388	2.315	2.475	2.048	2.070	2.128	2.132	1.944	1.898	2.369	2.047
505.0	144.5	177.1	250.7	306.9	294.8	450.1	 2194	 2197	482.0	458.0	455.5	437.7	378.9	358.3	333.6	302.0	278.5	267.0	257.9	262.9	251.4	250.2	252.1	247.5	245.6	246.6	244.1	241.7	240.0	238.7	230.7	215.8	193.7	176.1	156.1	142.4	130.4	115.9	106.4	96.00	87.60	85.09	89.27	69.61	51.81	43.04	38.58	33.30	28.94	24.73	20.17	18.49	23.36	46.78	98.49	542.6	 3294	 6179	401.1	17.88	4.276	3.520	3.173	2.517	2.270	2.713	2.084	1.967	2.004	2.111	1.737	1.882	2.006	1.860	1.745	2.143	1.962
510.0	140.3	154.3	191.0	287.7	279.0	308.8	939.9	 2785	 1089	414.0	401.2	382.4	339.3	318.2	296.9	262.7	248.2	237.6	230.5	230.6	221.9	218.7	218.3	216.4	215.4	216.1	214.4	212.3	212.8	210.2	203.5	191.9	173.4	156.0	140.1	128.1	117.6	105.6	95.87	88.53	79.28	73.02	75.80	73.68	55.72	43.27	37.78	33.74	28.81	24.19	20.31	17.80	16.37	21.28	31.32	129.5	792.4	 2878	 4416	 1676	27.97	4.820	3.302	2.621	2.529	2.457	2.051	1.929	2.007	1.756	1.915	1.658	1.867	1.658	1.491	1.622	1.488
515.0	135.3	139.4	172.6	241.6	270.0	251.5	429.7	 1634	 2588	482.9	346.5	349.5	314.1	272.6	251.0	237.8	218.7	208.3	202.6	194.5	192.0	190.7	183.9	187.9	189.8	184.1	186.8	183.6	186.9	184.9	177.2	167.1	151.8	138.1	126.7	115.6	105.2	95.05	88.07	80.10	72.49	65.01	61.72	63.93	61.88	47.83	36.43	32.26	27.96	23.94	20.68	17.79	15.27	14.72	15.93	37.29	183.7	650.2	 1542	 4636	 2536	36.84	4.341	3.052	2.636	2.321	2.284	1.757	2.036	1.476	1.658	1.530	1.772	1.318	1.667	1.255	1.480
520.0	123.4	127.7	154.9	189.1	273.3	231.9	293.0	719.0	 3082	 1040	319.9	306.7	284.8	252.3	220.3	212.9	195.7	186.8	174.2	173.7	173.6	171.1	167.5	167.7	163.9	161.4	167.8	171.7	169.5	165.0	161.7	149.3	135.6	124.4	116.6	105.9	95.78	89.87	80.57	76.41	67.92	60.71	55.35	55.53	58.43	51.86	38.53	30.48	26.68	23.54	19.82	17.52	14.70	13.19	12.46	16.16	49.05	152.2	358.7	 2019	 5013	 1729	23.65	3.456	2.454	2.341	2.027	1.769	1.828	1.395	1.341	1.505	1.529	1.257	1.309	1.397	1.291
525.0	115.1	129.2	144.8	164.4	262.3	247.6	244.9	355.1	 2261	 2242	316.9	274.1	257.4	231.5	202.7	189.1	171.7	167.0	160.9	158.0	158.2	153.4	148.7	150.8	146.7	148.6	153.4	149.8	151.0	145.2	144.0	136.0	122.6	115.8	104.9	97.30	87.23	81.18	75.27	69.79	63.13	57.11	52.78	47.78	50.98	53.34	41.41	30.45	25.66	22.39	19.59	17.42	14.98	12.92	12.12	11.51	18.12	40.69	86.23	483.3	 2646	 4492	380.3	10.52	2.657	2.464	2.079	1.655	1.663	1.444	1.378	1.293	1.463	1.342	1.431	1.130	1.193
530.0	101.4	111.4	116.7	138.4	191.1	249.6	213.6	243.5	901.3	 2964	987.3	250.1	225.6	201.8	182.1	165.3	151.2	145.9	143.7	135.4	134.8	132.1	130.0	131.2	128.2	130.7	130.2	130.3	131.6	127.9	125.4	117.9	108.0	100.4	92.85	86.49	78.68	73.37	68.05	62.59	55.98	50.59	47.29	42.53	40.77	44.96	43.92	33.03	25.25	21.57	18.79	16.53	14.83	13.19	11.96	10.50	10.66	15.41	24.53	113.3	636.0	 2163	 2967	 1325	24.28	3.193	2.118	1.591	1.775	1.562	1.344	1.106	1.312	1.256	1.125	1.189	1.165
535.0	86.08	94.03	95.48	116.8	139.5	217.9	211.9	204.0	372.1	 1633	 2685	303.9	194.6	172.6	161.8	144.1	133.9	124.9	118.1	116.4	113.5	117.9	113.3	111.1	110.4	111.6	112.3	111.4	113.1	108.1	109.1	102.4	94.32	86.99	80.11	74.94	67.94	63.04	59.71	54.01	49.56	45.15	40.59	37.58	35.54	34.85	38.65	36.40	27.20	20.27	17.45	15.81	13.49	11.40	11.97	10.27	8.617	9.308	10.76	30.06	146.4	487.6	 1097	 3357	 1788	31.73	2.113	2.036	1.784	1.271	1.171	1.057	0.968	0.990	0.988	1.044	0.960
540.0	88.91	80.22	97.12	101.8	114.7	185.5	239.6	182.3	236.3	656.6	 3248	872.0	173.4	158.1	146.4	126.9	118.7	110.2	103.0	104.0	96.92	101.1	101.9	98.47	97.52	98.35	98.52	98.41	100.4	98.18	98.87	89.94	82.91	75.86	71.68	66.48	60.84	57.82	52.53	49.10	43.23	40.92	37.22	35.12	30.89	29.13	31.84	34.36	29.74	20.16	16.44	14.75	12.73	10.27	10.25	10.38	8.266	7.691	7.542	11.71	36.71	112.5	256.3	 1523	 3517	410.9	16.51	2.007	1.899	1.292	0.945	1.011	0.938	0.919	0.998	1.128	0.842
545.0	95.54	95.80	91.33	102.3	107.1	156.8	247.4	167.8	201.0	294.2	 2280	 2164	176.4	140.3	126.7	115.2	106.7	95.40	95.03	90.71	88.32	87.74	89.99	87.46	86.50	88.29	86.36	89.20	87.51	87.87	86.59	79.65	74.92	68.35	63.98	63.05	54.46	52.06	47.65	43.92	38.62	37.79	34.58	31.79	27.28	27.21	26.68	29.36	29.53	21.39	15.81	13.56	12.05	10.43	9.277	9.265	8.518	7.038	6.835	6.917	12.01	28.56	60.53	368.5	 1986	 2940	330.9	5.273	1.929	1.444	1.184	1.135	0.902	0.937	0.798	0.723	0.841
550.0	100.9	88.39	84.11	84.14	96.60	115.6	200.9	182.7	165.1	201.5	838.3	 2916	786.4	119.3	106.8	101.0	88.42	81.92	80.30	76.98	75.40	73.92	73.26	73.47	73.22	73.69	74.78	72.73	74.60	72.08	73.10	68.26	62.83	58.05	55.52	51.06	46.85	42.68	40.61	37.70	33.98	31.50	29.91	27.34	24.70	23.53	22.06	22.12	24.68	23.10	16.48	12.51	10.77	9.556	8.459	7.979	7.715	6.868	6.006	5.430	5.987	9.581	16.47	85.61	484.8	 1566	 2211	838.3	20.04	1.605	1.336	1.106	1.062	0.794	0.792	0.640	0.706
555.0	101.6	81.62	87.16	79.43	81.16	94.11	143.5	214.2	160.5	169.0	309.9	 1483	 2531	161.4	90.50	79.65	72.82	70.88	64.79	63.54	62.57	59.23	60.35	60.39	58.02	58.93	58.57	60.48	59.70	57.39	60.20	56.07	52.23	48.36	45.91	42.16	38.73	35.85	33.37	31.09	29.04	27.15	24.79	22.63	21.02	19.64	18.43	17.05	18.08	19.82	17.46	12.22	9.953	8.557	7.841	6.624	6.351	6.510	5.844	4.688	4.273	5.301	6.369	21.62	110.7	353.0	860.9	 2271	421.2	22.56	1.470	1.298	0.988	1.222	0.791	0.671	0.583
560.0	90.36	90.32	91.05	78.17	69.16	79.73	98.71	201.2	166.4	152.8	184.4	525.9	 3072	347.8	77.10	66.44	60.13	62.59	55.97	54.39	51.45	50.42	50.81	51.22	49.65	49.93	50.34	52.48	50.29	49.50	49.25	46.93	43.23	41.99	37.23	35.30	31.96	31.06	28.54	25.58	23.88	23.32	21.46	19.38	19.25	16.82	15.59	14.57	14.59	16.03	16.85	13.19	8.974	7.171	7.021	6.310	6.068	5.538	5.432	3.988	4.048	4.070	4.081	7.048	27.19	81.03	202.4	 1097	 2056	355.2	7.615	1.384	1.079	1.399	0.670	0.575	0.653
565.0	94.88	91.48	82.89	74.88	60.23	66.32	82.59	167.2	198.9	135.8	149.0	216.0	 2067	 1738	74.68	60.75	51.77	51.03	47.62	44.42	47.47	43.26	42.60	42.54	42.75	42.63	41.99	42.42	41.98	43.52	41.57	39.46	37.13	35.66	32.24	29.92	28.22	25.80	24.54	21.69	21.57	19.28	18.43	17.18	16.62	14.69	13.00	13.11	12.10	11.97	13.97	13.41	8.521	7.382	6.062	5.891	5.407	4.763	4.687	4.211	3.905	3.435	3.597	4.064	8.285	20.66	47.50	270.6	 1329	 1640	55.11	2.603	1.319	1.074	0.603	0.726	0.481
570.0	94.56	86.17	90.09	67.56	56.33	59.78	72.42	110.1	206.0	149.9	134.9	143.3	697.8	 2547	592.2	52.33	43.91	38.71	37.34	36.85	37.57	34.79	33.32	33.08	33.46	32.71	32.82	33.66	33.46	35.17	33.87	31.00	29.70	27.99	25.38	23.54	23.04	21.44	20.69	17.20	17.60	15.77	14.73	13.91	13.67	12.35	11.06	10.56	9.689	9.132	9.504	10.34	8.774	6.956	5.216	4.896	4.975	4.225	4.126	3.793	3.938	3.509	3.391	2.939	3.762	6.827	13.01	62.55	332.1	922.1	 1142	236.0	13.92	1.139	0.693	0.633	0.510
575.0	85.29	84.38	89.75	66.68	51.50	52.58	63.53	90.61	158.1	181.1	123.5	132.0	227.4	 1245	 2106	84.27	33.37	30.88	29.01	30.09	28.66	28.17	27.20	25.93	25.66	25.99	25.75	25.47	27.49	26.33	27.62	24.72	23.23	21.56	20.34	18.55	18.22	17.30	15.21	15.37	13.95	12.91	11.69	11.46	10.22	10.45	9.258	8.999	7.557	7.524	7.096	7.583	7.854	7.032	5.102	3.847	4.118	3.619	3.143	3.039	3.260	3.291	3.085	2.626	2.699	3.638	4.874	16.00	75.61	208.3	481.5	 1167	353.8	10.94	0.987	0.555	0.500
580.0	84.05	82.35	83.77	69.15	53.43	50.16	58.11	67.64	123.8	211.5	128.7	126.6	130.7	415.2	 2603	237.9	29.46	26.37	27.10	24.71	24.11	23.21	22.27	22.31	21.09	22.39	21.92	21.93	22.36	21.88	21.74	20.22	19.64	17.55	16.52	15.29	14.80	14.36	13.03	12.49	11.95	10.99	10.13	9.746	8.634	9.178	8.016	7.645	6.939	5.821	5.787	5.397	6.135	6.855	5.286	3.640	3.675	3.257	2.780	3.046	3.051	3.122	2.981	2.440	2.605	2.783	2.991	5.627	18.41	48.09	114.4	609.9	 1104	58.25	2.930	0.762	0.572
585.0	77.98	81.46	83.11	69.36	54.70	50.85	48.99	61.06	97.19	200.2	161.7	126.6	106.4	153.3	 1699	 1422	31.95	22.94	21.60	20.25	21.06	20.31	19.68	19.66	18.50	19.84	18.73	18.56	19.35	18.85	18.91	17.69	16.22	15.55	14.34	13.47	12.19	12.10	11.05	10.53	10.17	8.936	8.253	8.054	7.975	7.249	7.084	6.573	6.059	5.526	4.595	4.383	4.946	6.193	5.290	3.530	3.360	2.594	2.178	2.559	2.392	2.735	2.864	2.476	2.483	2.354	2.104	2.931	5.486	12.10	26.99	152.6	742.7	850.5	48.53	1.391	0.639
590.0	71.57	81.13	80.58	62.77	46.06	44.58	46.53	54.75	81.19	150.3	192.5	127.4	105.5	89.69	535.3	 2056	422.6	20.41	18.44	17.18	16.61	16.35	15.11	15.15	15.11	15.12	15.82	15.13	15.25	15.19	15.18	14.51	12.96	12.36	11.39	10.32	10.17	9.717	8.320	8.529	8.267	7.441	6.905	6.638	6.874	6.071	5.676	5.247	5.385	4.478	3.975	3.838	3.824	4.051	4.816	4.140	3.070	2.411	2.280	2.277	2.167	2.193	2.250	2.544	2.597	2.048	1.914	2.035	2.722	4.007	7.271	35.16	188.0	537.9	562.2	197.3	8.865
595.0	63.63	78.04	74.23	65.54	46.10	40.15	41.63	52.52	71.43	115.0	194.5	149.5	108.9	76.82	156.4	954.4	 1574	44.87	16.61	14.15	13.18	13.13	13.06	13.33	11.86	12.41	12.18	12.27	12.11	12.21	11.42	11.36	10.22	9.990	9.076	8.703	7.673	8.151	6.800	6.731	6.556	5.905	5.243	5.027	5.134	4.799	4.183	4.133	3.959	3.520	3.270	2.841	3.089	2.383	3.677	4.324	3.454	2.404	1.773	1.828	2.165	1.768	1.944	1.976	2.395	2.146	1.721	1.763	1.821	2.050	2.330	8.931	42.61	121.9	283.2	696.6	236.4
600.0	57.03	78.06	76.60	59.50	48.07	41.86	42.26	56.17	71.81	95.85	165.8	173.0	105.6	78.42	70.46	296.6	 1988	173.4	13.70	11.62	11.22	10.57	10.91	11.14	10.41	9.432	9.844	9.584	10.70	10.19	9.028	9.369	8.854	8.088	7.859	7.622	6.513	6.430	6.265	5.387	5.491	4.891	4.191	4.747	4.455	4.155	3.548	3.658	3.085	3.165	3.013	2.666	2.475	1.944	2.643	3.429	3.306	2.638	1.686	1.687	2.171	1.728	1.695	1.654	1.957	2.164	1.885	1.667	1.389	1.493	1.452	2.684	10.15	27.95	68.80	392.2	626.7
605.0	59.99	72.34	67.35	54.70	51.93	41.96	37.04	51.63	68.42	91.07	137.4	198.2	112.6	81.01	50.43	93.08	 1277	 1053	17.31	10.55	10.40	9.186	8.979	9.494	8.874	8.078	8.616	8.171	8.142	9.016	7.965	7.435	7.146	7.002	6.700	5.901	6.407	5.832	5.241	4.545	4.618	4.029	3.847	4.091	3.782	3.859	3.691	3.377	2.842	2.600	2.581	2.169	2.141	1.961	1.918	2.413	3.302	2.695	1.777	1.806	1.811	1.682	1.542	1.281	1.772	2.012	1.876	1.708	1.276	1.278	1.076	1.368	3.067	6.840	16.00	100.9	442.6
610.0	50.94	57.39	65.06	58.22	46.44	38.54	39.64	45.73	63.92	82.51	113.8	176.8	135.4	81.80	51.31	42.48	392.0	 1589	327.3	9.700	8.117	7.730	7.575	7.459	6.721	7.059	6.823	6.739	6.536	7.262	7.150	6.309	6.282	5.930	5.531	4.841	4.759	4.688	4.102	3.967	3.857	3.369	3.353	3.165	3.204	2.992	2.869	2.571	2.417	2.145	2.022	1.790	1.962	1.538	1.652	1.738	2.357	2.361	2.146	1.563	1.475	1.305	1.311	1.066	1.380	1.497	1.621	1.730	1.636	0.996	0.900	0.871	1.224	2.211	4.065	22.91	113.8
615.0	37.73	53.96	61.74	48.65	36.72	33.27	37.72	44.45	58.15	81.97	101.8	135.1	155.3	81.93	51.44	32.22	105.3	747.5	 1255	30.25	7.076	6.647	5.817	5.120	4.841	5.534	5.720	4.938	5.421	5.181	5.586	5.061	4.409	4.430	4.232	4.111	3.959	3.563	3.307	2.821	3.232	2.850	2.650	2.626	2.655	2.469	2.215	1.980	2.078	1.683	1.840	1.487	1.664	1.208	1.226	1.348	1.637	1.991	2.251	1.564	1.364	1.064	1.257	1.069	1.170	1.083	1.085	1.227	2.691	0.924	0.852	0.773	0.860	0.929	1.293	5.481	25.74
620.0	40.95	49.67	53.54	43.23	35.39	35.39	38.67	41.54	54.61	66.73	92.86	108.9	149.3	95.01	48.72	30.36	39.79	226.4	 1614	139.3	6.692	5.728	5.461	4.395	5.005	4.463	5.129	4.775	4.457	4.336	4.153	4.112	4.211	3.812	3.600	3.202	3.212	3.123	2.798	2.837	2.689	2.425	2.343	2.267	2.229	1.879	2.068	2.100	1.880	1.576	1.539	1.225	1.263	1.211	1.118	1.020	1.188	1.482	1.830	1.981	1.197	0.991	1.050	1.031	1.112	0.825	0.920	1.330	2.038	1.123	0.664	0.847	0.604	0.508	0.828	1.535	6.239
625.0	40.95	45.45	56.52	51.75	30.21	30.35	32.50	44.36	50.09	63.29	85.54	105.0	131.7	111.8	53.94	32.16	24.78	66.48	 1031	867.6	10.21	5.556	5.248	4.233	4.161	4.209	4.359	4.164	4.349	3.839	4.005	3.391	3.442	3.486	3.164	2.705	2.444	2.791	2.416	2.367	2.031	2.382	2.053	1.896	1.860	1.702	1.643	1.846	1.624	1.474	1.257	1.195	1.093	1.168	1.091	0.918	1.108	1.135	1.475	1.861	1.453	1.011	1.029	0.710	0.935	0.895	0.794	0.815	1.555	1.037	0.771	0.628	0.533	0.492	0.705	0.541	1.649
630.0	42.39	48.09	50.52	40.36	38.35	28.97	33.56	39.95	49.44	61.23	81.77	89.85	102.2	122.3	58.44	30.51	23.35	27.39	309.7	 1307	262.9	5.384	4.254	3.687	3.408	3.793	3.584	3.400	3.328	3.414	3.412	3.178	2.843	2.886	2.550	2.156	2.211	2.170	1.981	1.921	1.867	1.865	1.612	1.748	1.411	1.406	1.486	1.356	1.484	1.199	1.175	1.035	0.939	0.938	0.908	0.915	0.891	0.808	0.915	1.311	1.315	1.187	0.814	0.868	0.785	0.882	0.877	0.832	1.011	0.975	1.015	0.727	0.528	0.402	0.493	0.405	0.714
635.0	34.67	52.13	50.78	35.67	30.64	25.02	32.25	41.51	44.78	53.82	75.72	85.84	86.86	106.1	77.54	35.61	22.55	20.50	79.26	610.2	 1035	25.01	4.353	2.954	2.950	2.602	2.766	3.042	2.801	3.124	2.605	2.803	2.176	2.568	2.146	1.894	1.764	2.010	1.538	1.215	1.498	1.507	1.521	1.359	1.114	1.140	1.000	1.096	1.229	1.106	0.835	0.840	0.871	0.772	0.694	0.599	0.740	0.586	0.872	0.711	0.994	1.320	0.957	1.069	0.699	0.662	0.653	0.600	0.830	0.694	0.816	0.859	0.401	0.384	0.516	0.456	0.346
640.0	34.80	49.11	49.58	40.62	31.98	22.92	30.38	38.42	46.17	55.87	72.81	81.12	82.00	89.91	90.08	38.90	24.28	19.61	29.50	178.9	 1324	118.6	4.228	2.565	2.694	2.434	2.453	3.125	2.569	2.484	2.356	2.757	1.892	2.129	1.695	1.725	1.524	1.508	1.070	1.156	1.049	1.203	1.637	1.039	1.057	0.950	0.874	1.110	1.136	0.795	0.921	0.876	0.670	0.612	0.618	0.612	0.718	0.617	0.854	0.597	0.815	1.327	0.892	0.852	0.477	0.793	0.603	0.848	0.619	0.745	0.654	0.820	0.618	0.528	0.246	0.416	0.205
645.0	40.17	41.49	52.07	51.06	29.02	22.94	30.06	36.90	39.64	56.41	71.54	80.95	78.09	79.99	92.50	50.54	26.22	20.67	17.58	48.58	876.5	721.8	7.121	2.785	2.705	2.346	2.013	2.315	2.099	2.265	2.251	2.177	2.051	1.635	1.567	1.414	1.361	1.351	1.103	1.085	0.888	1.061	1.018	1.097	0.869	0.811	0.920	0.984	0.916	0.859	0.758	0.848	0.660	0.475	0.630	0.578	0.606	0.522	0.694	0.455	0.847	1.002	0.858	0.720	0.582	0.635	0.558	0.835	0.831	0.560	0.418	0.557	0.700	0.557	0.289	0.468	0.578
650.0	53.76	35.41	52.59	43.66	30.81	24.26	26.06	33.45	37.54	54.10	65.23	76.98	85.31	78.20	80.83	58.76	27.61	20.48	15.82	19.78	322.0	 1194	64.08	2.758	2.385	2.239	1.809	2.094	2.022	1.966	1.627	2.147	1.578	1.446	1.128	1.349	1.330	1.449	1.027	0.929	0.860	0.991	0.728	1.068	0.851	1.086	0.894	0.888	0.925	0.700	0.655	0.657	0.799	0.621	0.611	0.531	0.629	0.506	0.663	0.660	0.542	0.798	0.683	0.735	0.693	0.789	0.452	0.592	0.585	0.637	0.541	0.376	0.491	0.611	0.410	0.430	0.439
