Sample:	'1
File name:	S2025080911Ðã·áÂ·ÇÅ.FD3
Run date:	'15:34:52, 08/10/2025
Operator:	Administrator
Comment:	'

Instrument
Model:	F-2700 FL Spectrophotometer
Serial number:	3064-004
ROM Version:	4J14000 07

Instrument parameters
Measurement type:	3-D scan
Data mode:	Fluorescence
EX  Start WL:	220.0 nm
EX  End WL:	600.0 nm
EX Sampling interval:	5.0 nm
EM  Start WL:	230.0 nm
EM  End WL:	650.0 nm
EM Sampling interval:	5.0 nm
Scan speed:	12000 nm/min
EX Slit:	5.0 nm
EM Slit:	5.0 nm
PMT Voltage:	700 V
Response:	Auto 
Corrected spectra:	Off
Contour interval:	50.000

Peak integration
Integration method:	Rectangular
Sensitivity:	1
Threshold:	1.000

Peaks
No.	ApexEX/EM(nm)	Height(Data)
1	225.0/585.0	84.37
2	225.0/610.0	72.09
3	230.0/340.0	 1688
4	230.0/565.0	84.57
5	230.0/600.0	80.93
6	230.0/635.0	70.18
7	235.0/345.0	 1719
8	235.0/355.0	 1702
9	235.0/580.0	88.91
10	245.0/530.0	302.8
11	250.0/545.0	262.3
12	255.0/555.0	258.5
13	260.0/285.0	 1015
14	260.0/570.0	216.9
15	265.0/290.0	 1299
16	265.0/580.0	225.0
17	270.0/595.0	212.8
18	275.0/305.0	 2501
19	275.0/375.0	 2390
20	275.0/605.0	203.1
21	280.0/310.0	 2489
22	280.0/345.0	 2404
23	280.0/360.0	 2407
24	280.0/615.0	175.7
25	285.0/315.0	 2282
26	285.0/630.0	136.8
27	455.0/335.0	6.994
28	460.0/340.0	7.035
29	460.0/545.0	43.61
30	465.0/330.0	6.295
31	505.0/275.0	3.341
32	505.0/385.0	8.578
33	520.0/285.0	4.679
34	540.0/295.0	8.468
35	545.0/300.0	10.21
36	550.0/305.0	10.93
37	555.0/380.0	10.36
38	560.0/310.0	11.04
39	560.0/355.0	11.16
40	565.0/370.0	10.75
41	570.0/315.0	10.60
42	570.0/365.0	10.78
43	575.0/320.0	10.57
44	585.0/380.0	11.02

Data points
	220.0	225.0	230.0	235.0	240.0	245.0	250.0	255.0	260.0	265.0	270.0	275.0	280.0	285.0	290.0	295.0	300.0	305.0	310.0	315.0	320.0	325.0	330.0	335.0	340.0	345.0	350.0	355.0	360.0	365.0	370.0	375.0	380.0	385.0	390.0	395.0	400.0	405.0	410.0	415.0	420.0	425.0	430.0	435.0	440.0	445.0	450.0	455.0	460.0	465.0	470.0	475.0	480.0	485.0	490.0	495.0	500.0	505.0	510.0	515.0	520.0	525.0	530.0	535.0	540.0	545.0	550.0	555.0	560.0	565.0	570.0	575.0	580.0	585.0	590.0	595.0	600.0
230.0	28.84	553.8	 3646	 2100	143.3	15.38	12.04	10.83	10.36	9.850	8.338	8.866	8.382	6.886	6.069	4.865	4.390	4.403	3.953	3.596	3.324	2.961	3.020	2.653	2.695	2.254	2.024	2.059	1.887	1.891	1.872	1.583	1.587	1.529	1.521	1.433	1.273	1.137	1.032	1.027	1.068	1.220	1.082	0.975	0.956	0.938	1.911	6.883	12.20	9.952	4.659	1.228	0.738	0.715	0.666	0.691	0.734	0.619	0.617	0.595	0.506	0.590	0.527	0.547	0.543	0.523	0.540	0.522	0.518	0.565	0.474	0.502	0.515	0.464	0.495	0.539	0.456
235.0	52.15	148.3	 1522	 3944	 2717	241.4	14.15	10.83	10.72	10.25	7.887	9.048	9.352	6.241	6.522	5.182	5.284	4.273	3.492	4.250	3.563	2.692	2.942	2.517	2.591	2.681	2.201	2.085	2.025	2.015	2.005	1.521	1.471	1.785	1.390	1.246	1.148	1.060	1.298	0.996	1.210	1.059	1.010	1.201	0.999	0.997	1.142	2.495	4.618	8.697	12.81	12.63	5.999	1.477	0.776	0.517	0.596	0.664	0.619	0.679	0.481	0.602	0.505	0.559	0.550	0.507	0.462	0.558	0.546	0.706	0.470	0.503	0.465	0.555	0.400	0.557	0.379
240.0	59.12	79.48	389.2	 2196	 5774	 2524	104.4	12.28	12.99	11.86	10.05	9.208	7.533	7.363	5.671	5.944	4.985	4.343	3.763	4.332	3.919	3.175	3.509	2.548	2.309	2.569	2.143	2.000	2.142	2.284	1.993	1.672	1.283	1.514	1.410	0.956	1.180	1.139	1.193	1.116	1.003	0.922	0.849	1.013	1.004	1.081	1.031	1.338	1.601	3.021	6.424	14.76	18.28	13.35	4.759	0.936	0.850	0.691	0.645	0.512	0.597	0.538	0.553	0.471	0.528	0.422	0.486	0.465	0.682	0.583	0.512	0.892	0.535	0.478	0.454	0.583	0.409
245.0	39.15	82.97	158.8	592.7	 3784	 6761	816.3	59.06	16.28	11.04	13.71	10.97	9.972	6.996	6.762	6.083	4.588	4.352	3.846	4.450	4.192	3.632	3.654	2.660	2.824	2.260	2.273	1.932	2.053	2.061	1.699	1.787	1.410	1.397	1.237	1.191	1.232	1.211	1.168	1.305	1.091	1.080	1.195	0.909	0.879	1.175	1.112	1.144	1.094	1.134	2.014	5.016	11.45	20.81	20.87	11.99	3.650	0.796	0.647	0.693	0.577	0.517	0.597	0.493	0.530	0.516	0.400	0.608	0.626	0.452	0.333	0.615	0.386	0.458	0.554	0.511	0.423
250.0	32.89	63.14	146.7	231.1	991.1	 3865	 5829	 2965	257.7	17.71	15.09	11.54	10.06	9.635	7.495	7.561	5.566	4.321	4.435	4.329	3.995	3.853	3.259	3.303	2.730	2.644	2.253	2.270	2.333	2.153	1.864	1.706	1.595	1.286	1.503	1.175	1.542	1.041	1.169	1.225	0.990	1.156	1.135	0.943	0.992	1.097	1.045	1.220	1.254	1.161	1.259	1.751	3.279	6.769	11.87	19.05	23.39	21.20	12.74	3.918	0.851	0.610	0.623	0.635	0.646	0.475	0.429	0.476	0.437	0.507	0.444	0.534	0.557	0.439	0.452	0.625	0.498
255.0	33.53	31.93	69.83	218.8	344.5	902.6	 2510	 8909	 4744	357.0	22.45	15.03	12.22	11.81	8.991	6.351	5.174	5.201	4.401	4.050	3.956	4.050	3.205	3.291	3.018	2.607	2.249	2.242	1.965	2.388	1.865	1.838	1.592	1.611	1.370	1.386	1.237	1.136	1.093	1.191	1.086	1.108	1.007	1.046	0.919	1.174	0.829	0.965	0.890	1.226	1.540	1.556	1.519	2.174	3.217	5.025	9.033	21.32	37.94	39.40	20.37	4.947	0.696	0.604	0.684	0.603	0.671	0.638	0.638	0.595	0.473	0.566	0.376	0.624	0.639	0.548	0.413
260.0	32.98	21.50	36.46	139.0	312.7	288.9	625.0	 4478	9999.9	 4097	234.4	19.83	16.32	12.14	10.28	6.117	6.354	5.867	4.554	4.591	4.340	4.775	3.326	2.976	3.021	2.874	2.451	2.769	1.975	2.609	2.040	1.882	1.569	1.658	1.428	1.402	1.244	1.199	1.182	1.121	1.241	0.995	1.168	0.943	0.942	0.965	0.803	0.893	0.787	0.896	1.177	1.636	1.941	1.475	1.500	1.920	2.570	6.183	15.50	37.23	51.96	41.47	16.26	2.490	0.814	0.735	0.663	0.600	0.484	0.667	0.508	0.451	0.499	0.612	0.579	0.452	0.514
265.0	36.79	25.12	35.58	61.40	237.5	289.0	193.7	 1177	 6960	9999.9	 3384	112.1	22.07	12.56	12.14	9.490	7.132	6.830	5.846	4.532	4.542	4.250	3.713	3.524	2.624	3.235	2.741	2.773	2.278	2.297	2.189	2.046	1.858	1.656	1.656	1.407	1.197	1.073	1.229	1.127	1.099	1.098	1.327	0.981	1.082	1.015	0.925	0.904	0.967	0.670	0.773	1.068	1.633	2.286	1.544	1.495	1.308	2.178	4.290	11.55	26.99	53.02	54.25	37.34	10.20	1.052	0.625	0.582	0.626	0.786	0.624	0.545	0.604	0.582	0.580	0.615	0.552
270.0	100.2	72.13	53.94	40.76	100.2	284.2	362.1	394.9	 1843	 6551	9999.9	 9310	200.9	23.32	13.97	11.68	8.554	7.317	6.014	5.284	4.739	4.260	3.613	3.282	3.429	3.394	2.747	2.918	2.509	2.221	2.283	2.229	1.872	1.631	1.607	1.430	1.540	1.286	1.258	1.343	1.332	1.335	1.355	1.300	1.321	1.161	1.081	1.145	1.058	0.964	0.802	0.885	1.099	1.369	1.558	2.395	2.172	1.954	1.844	3.516	7.171	15.48	28.71	50.37	55.00	58.94	25.02	9.556	1.319	0.822	0.606	0.675	0.574	0.537	0.630	0.514	0.616
275.0	222.6	166.0	111.9	78.04	68.38	135.3	391.2	578.9	636.5	 1698	 4497	9999.9	9999.9	256.5	22.84	15.31	10.78	9.829	7.746	5.840	5.994	4.259	3.821	3.850	4.134	3.064	3.005	3.024	2.915	2.605	2.289	2.550	1.886	1.579	1.704	1.563	2.126	1.499	1.861	1.899	1.621	1.584	1.908	1.869	1.787	1.635	1.505	1.466	1.387	1.155	1.061	1.023	1.107	1.022	1.168	1.539	2.536	3.341	2.796	2.268	3.005	5.069	7.738	12.75	18.59	44.52	92.02	102.0	37.15	9.291	0.998	0.704	0.730	0.697	0.809	0.674	0.480
280.0	313.0	274.1	196.1	139.4	102.1	106.9	240.4	712.8	670.4	725.9	 1418	 5529	9999.9	9999.9	162.5	21.14	14.50	10.43	8.271	7.309	6.400	5.266	4.539	4.323	4.082	3.345	3.197	3.435	2.636	2.618	2.571	2.581	2.066	1.731	1.967	2.160	2.092	1.935	1.872	2.095	1.880	2.064	2.141	2.418	2.322	2.258	1.795	1.764	1.793	1.343	1.129	1.076	1.155	0.976	1.038	1.144	1.806	2.756	3.491	3.847	2.646	2.886	3.476	4.517	6.045	12.74	33.89	79.61	120.7	54.83	26.33	2.858	0.801	0.824	0.901	0.683	0.907
285.0	422.9	374.5	330.7	250.0	144.2	125.1	208.9	515.7	 1015	683.9	842.5	 1778	 7930	9999.9	 2093	94.60	18.71	11.74	9.940	8.034	5.824	6.051	5.107	4.381	4.142	3.640	3.442	3.265	3.283	3.160	2.700	2.346	2.220	1.845	1.842	2.162	2.405	2.437	2.288	2.395	2.128	2.420	2.545	2.788	2.377	2.693	2.278	2.597	2.318	1.810	1.500	1.285	1.224	1.115	1.239	1.325	1.435	2.134	2.612	4.418	4.679	4.194	3.167	3.474	3.629	5.230	9.860	22.43	54.75	104.3	131.5	46.07	13.03	1.314	0.898	0.687	0.727
290.0	510.0	574.7	555.7	412.5	252.1	207.8	254.8	419.4	849.9	 1299	 1169	 1181	 2511	 7231	9999.9	 7902	124.9	20.94	14.09	9.761	7.725	7.043	5.629	5.183	4.491	3.803	3.414	3.717	3.293	2.887	2.437	2.639	2.307	1.948	1.945	2.215	2.456	2.945	2.870	3.055	2.588	3.029	3.164	3.219	3.204	3.237	2.995	2.828	2.780	2.187	1.997	1.781	1.654	1.619	1.302	1.466	1.808	1.867	2.364	3.023	3.940	5.339	5.791	5.719	4.714	4.417	5.326	8.535	15.27	29.41	57.71	85.50	106.3	91.05	28.53	11.38	1.185
295.0	534.4	698.7	754.7	579.0	390.0	287.3	320.3	474.0	769.8	 1224	 1949	 1531	 1503	 2221	 3704	9999.9	9999.9	158.1	21.41	14.22	10.33	7.736	6.890	5.714	4.603	4.428	4.243	4.060	3.303	3.189	3.353	3.084	2.414	1.951	2.183	2.426	2.891	3.038	3.258	3.121	2.993	3.023	3.194	3.606	3.609	3.616	3.579	3.747	3.293	2.824	2.649	2.353	2.326	1.786	1.546	1.776	2.005	1.847	2.607	2.985	3.611	4.576	5.023	7.638	8.468	6.653	5.542	6.493	7.444	10.13	15.27	21.57	30.55	65.61	131.9	152.5	42.93
300.0	614.0	759.9	829.7	676.3	464.0	393.0	392.2	552.2	820.2	 1191	 1953	 2198	 1562	 1305	 1288	 4762	9999.9	 8682	112.8	19.21	11.68	9.910	8.194	6.529	5.683	4.718	4.579	4.512	3.391	3.736	2.782	3.037	2.652	2.056	2.165	2.533	3.063	3.138	3.028	3.206	3.230	3.187	3.365	3.813	3.531	4.260	3.901	3.928	3.580	3.097	2.799	2.587	2.399	2.136	1.879	2.292	2.251	2.435	2.919	3.533	3.660	4.547	4.954	6.999	8.376	10.21	9.059	7.172	6.690	6.979	6.924	7.612	9.169	17.64	45.19	113.1	168.1
305.0	615.3	808.0	865.6	743.7	505.1	416.1	468.0	638.1	894.9	 1260	 1779	 2501	 2083	 1299	878.3	 1415	 7045	9999.9	 1294	75.24	16.18	12.17	8.678	7.599	6.381	5.276	4.187	4.424	4.040	4.504	3.035	2.985	2.367	2.400	2.096	2.733	3.020	3.230	3.052	3.331	2.915	2.953	3.295	3.582	4.154	4.099	4.103	4.222	3.623	3.401	2.703	2.943	2.751	2.225	2.400	2.043	2.539	2.611	2.980	3.562	3.960	4.699	5.714	6.391	7.281	9.273	10.93	10.50	7.990	7.005	5.906	5.481	4.832	6.041	12.34	30.19	72.26
310.0	567.6	827.4	904.2	750.8	552.9	473.5	539.7	710.3	974.4	 1300	 1743	 2202	 2489	 1823	999.6	761.0	 1906	 6627	9999.9	9999.9	87.58	19.67	12.42	9.154	7.834	6.450	5.104	4.784	4.412	3.903	3.655	3.082	2.630	2.578	2.132	2.625	3.039	3.343	3.306	3.344	3.016	3.215	3.055	3.609	3.914	3.796	4.365	4.434	4.244	3.489	2.792	3.154	2.739	2.360	2.414	2.459	2.671	3.090	3.373	3.716	4.273	4.978	6.064	6.852	6.901	8.541	9.368	10.73	11.04	10.18	7.772	6.235	4.921	4.263	5.121	8.893	18.34
315.0	576.1	831.8	983.8	822.3	592.9	536.0	585.5	772.7	 1037	 1364	 1746	 2091	 2238	 2282	 1472	777.2	794.1	 1719	 3407	9999.9	 8233	116.8	20.25	13.16	9.068	7.517	6.445	5.197	4.662	4.463	4.021	3.075	2.737	2.756	2.351	2.629	2.791	3.013	3.231	3.217	3.025	3.308	2.992	3.497	3.655	3.942	4.123	4.200	4.116	3.845	2.888	3.175	2.904	2.699	2.852	2.790	3.228	3.194	3.502	4.174	4.657	5.184	5.747	6.555	7.282	8.034	8.820	9.092	10.13	9.823	10.60	8.910	6.193	4.893	4.424	4.904	6.234
320.0	625.0	954.3	 1087	902.3	655.5	572.8	617.3	814.2	 1076	 1416	 1817	 2135	 2209	 2196	 1989	 1038	644.3	704.8	968.6	 4700	9999.9	 6871	85.55	16.38	11.35	8.601	6.901	5.868	5.038	4.783	4.054	3.279	2.687	2.948	2.507	2.849	2.827	3.014	3.179	2.860	3.003	2.924	3.421	3.428	3.974	4.587	4.615	4.873	4.482	4.571	3.037	3.208	2.812	2.754	2.603	2.367	3.346	3.294	3.481	4.118	5.179	5.640	6.038	7.297	7.796	8.291	9.200	9.069	9.663	9.861	9.902	10.57	9.783	7.314	4.666	3.882	4.366
325.0	656.0	 1071	 1287	 1081	734.0	622.9	672.2	866.4	 1123	 1443	 1868	 2182	 2299	 2143	 2058	 1489	755.2	554.9	475.4	 1264	 7387	9999.9	 4897	56.59	15.83	11.80	8.289	6.908	5.532	4.981	4.618	3.754	3.422	2.587	2.363	2.692	2.841	3.077	3.155	3.110	2.866	2.930	3.193	3.895	4.342	4.771	5.184	5.903	5.626	5.505	3.848	3.507	3.048	3.198	3.130	2.718	3.497	3.230	3.897	4.441	4.937	5.652	6.019	7.629	7.589	8.123	8.877	9.845	10.09	9.359	9.828	9.437	9.976	9.160	6.693	4.878	4.459
330.0	679.5	 1096	 1483	 1342	918.4	718.7	726.9	912.0	 1153	 1473	 1900	 2203	 2345	 2183	 1923	 1644	 1188	682.9	477.4	544.0	 1911	 6769	9999.9	 9043	343.0	16.94	10.94	8.544	7.117	5.946	5.106	4.362	3.384	2.923	2.687	2.712	2.617	3.353	2.810	3.147	3.289	3.187	3.642	3.480	4.415	4.990	5.390	6.184	5.647	6.295	4.362	4.498	3.861	3.567	3.321	3.163	4.073	3.600	4.200	4.503	5.184	5.617	6.254	7.794	8.165	8.313	9.572	9.665	9.882	9.490	9.445	8.962	8.918	8.851	8.278	8.122	6.676
335.0	703.1	 1191	 1612	 1482	 1107	851.8	843.5	984.1	 1211	 1527	 1907	 2248	 2378	 2260	 1973	 1564	 1385	 1069	613.7	478.7	700.6	 1715	 3652	9999.9	 6589	92.44	17.16	12.36	8.862	7.143	5.588	5.094	3.261	3.678	3.034	3.148	2.687	3.091	2.918	3.370	2.942	3.138	3.863	3.862	4.354	4.847	5.592	6.994	6.438	6.267	4.956	5.186	4.381	3.860	3.622	4.165	3.874	3.844	4.568	4.752	5.383	5.408	6.328	7.586	7.816	8.231	9.362	9.412	10.52	10.28	10.47	9.340	8.663	8.174	7.846	7.836	8.291
340.0	713.8	 1248	 1688	 1646	 1291	 1002	953.7	 1060	 1299	 1592	 1947	 2244	 2388	 2324	 2054	 1600	 1323	 1306	856.7	559.0	510.8	656.9	 1025	 5296	9999.9	 5473	71.45	16.44	10.05	8.445	6.737	4.953	4.354	3.836	2.891	2.931	2.741	3.461	2.800	2.845	3.044	3.052	3.816	3.805	4.522	4.970	6.018	6.726	7.035	6.228	5.629	5.384	5.354	4.803	4.162	4.611	4.219	4.496	4.691	5.159	5.812	5.872	6.731	7.355	8.004	8.420	8.762	9.786	9.489	10.53	10.11	9.887	9.171	8.438	8.031	7.687	7.448
345.0	680.9	 1203	 1670	 1719	 1409	 1161	 1115	 1167	 1384	 1650	 1964	 2213	 2404	 2344	 2112	 1663	 1322	 1245	 1150	711.3	554.8	495.4	499.3	 1432	 8236	9999.9	 4122	50.68	14.80	9.939	7.717	5.576	4.339	4.440	2.994	3.194	2.996	3.038	3.051	3.128	3.181	3.381	3.674	3.927	4.060	5.224	5.800	6.362	6.859	5.975	5.334	5.750	5.598	5.094	4.622	4.970	4.431	4.867	5.036	5.772	5.748	6.325	7.140	7.636	8.191	8.637	9.070	9.926	9.997	9.760	10.49	10.40	10.24	9.185	8.193	8.031	7.713
350.0	652.8	 1109	 1579	 1688	 1568	 1359	 1312	 1332	 1515	 1746	 2000	 2234	 2400	 2353	 2150	 1764	 1402	 1217	 1203	 1069	751.1	582.9	496.0	613.5	 2149	 7270	9999.9	 7978	61.10	15.01	10.20	7.078	5.578	4.825	3.694	3.354	3.263	3.133	3.113	3.157	3.460	3.130	3.496	3.893	4.179	4.856	5.589	6.331	6.294	5.830	5.796	6.319	5.835	5.476	5.453	5.707	5.482	5.580	6.112	6.434	6.628	6.521	7.403	7.938	7.941	9.147	9.225	9.577	10.58	10.47	10.22	10.43	10.16	9.190	8.880	8.492	8.339
355.0	607.8	 1072	 1494	 1702	 1690	 1598	 1541	 1554	 1723	 1922	 2126	 2282	 2402	 2379	 2216	 1858	 1545	 1319	 1204	 1210	 1115	774.1	619.6	543.4	767.4	 1823	 4063	9999.9	 5668	79.99	16.02	10.28	6.756	5.908	4.009	3.320	3.549	3.354	3.481	3.384	3.813	3.026	3.410	3.509	4.496	5.203	5.378	5.747	5.929	5.745	5.610	6.156	6.317	6.939	5.946	6.391	6.451	5.953	6.783	6.797	7.098	7.675	8.290	8.279	8.135	9.187	9.328	9.369	11.16	9.878	9.930	10.30	10.80	9.560	9.792	8.501	8.183
360.0	607.3	990.5	 1445	 1697	 1764	 1723	 1651	 1730	 1850	 2029	 2183	 2296	 2407	 2383	 2231	 1923	 1603	 1413	 1265	 1206	 1277	 1011	739.5	592.2	537.9	656.8	 1098	 5985	9999.9	 4756	60.44	13.66	8.540	7.531	4.499	4.458	3.985	3.980	3.514	3.858	3.515	3.631	3.057	3.503	4.086	4.814	4.895	5.844	5.483	5.661	5.650	6.762	6.807	6.877	6.261	6.589	6.689	6.884	7.023	7.278	7.596	8.502	9.050	8.910	9.321	9.155	9.564	9.325	10.99	10.11	10.44	10.40	10.56	9.906	9.775	9.200	8.972
365.0	629.5	938.9	 1358	 1668	 1748	 1798	 1762	 1816	 1937	 2122	 2247	 2333	 2400	 2389	 2244	 1951	 1683	 1508	 1337	 1246	 1247	 1243	902.4	683.0	554.5	459.1	461.3	 1567	 8973	9999.9	702.2	39.37	11.12	8.909	6.093	4.690	4.058	4.074	3.733	3.718	3.279	3.527	3.512	3.811	3.778	4.805	4.944	5.295	5.417	5.440	5.832	6.778	6.707	6.994	6.559	7.185	7.467	7.266	7.499	7.746	8.227	8.961	8.552	8.858	9.430	9.246	9.580	9.981	10.18	10.42	10.78	10.05	10.31	10.04	10.10	8.500	8.859
370.0	610.7	891.6	 1302	 1639	 1783	 1865	 1860	 1927	 2029	 2206	 2277	 2373	 2391	 2367	 2215	 1979	 1741	 1587	 1447	 1349	 1286	 1283	 1176	890.3	673.0	519.5	404.9	555.8	 2302	 7838	9999.9	 6861	49.82	12.75	7.838	5.891	4.700	4.365	4.109	3.591	3.854	3.260	3.708	3.583	3.845	4.658	4.730	5.241	5.676	5.503	5.675	6.335	6.870	7.266	6.698	7.225	7.699	7.511	7.658	7.810	7.944	8.795	8.956	9.265	8.949	8.978	9.644	10.13	9.475	10.75	10.67	10.11	10.50	10.12	9.674	9.910	9.577
375.0	565.8	870.7	 1242	 1576	 1803	 1893	 1961	 1986	 2085	 2222	 2297	 2390	 2380	 2302	 2170	 1981	 1779	 1661	 1562	 1455	 1392	 1303	 1263	 1183	868.1	666.7	509.9	420.2	713.2	 1887	 4558	9999.9	 4729	61.84	12.75	8.089	5.734	4.954	4.568	4.058	3.701	3.527	3.693	4.202	3.851	4.483	4.553	5.581	5.245	5.007	5.196	6.634	6.781	7.048	7.182	7.199	7.967	8.243	7.849	8.146	9.050	8.734	8.714	9.772	9.330	9.443	10.30	10.09	9.372	10.32	10.60	9.763	10.43	10.34	10.07	10.03	9.905
380.0	539.2	826.0	 1245	 1528	 1807	 1944	 1945	 2001	 2083	 2197	 2305	 2363	 2360	 2252	 2151	 1970	 1795	 1697	 1607	 1527	 1458	 1364	 1274	 1293	 1085	791.0	611.0	460.1	417.2	595.2	 1175	 6579	9999.9	 3738	44.12	10.71	7.826	6.147	5.063	4.382	3.849	4.190	3.807	3.883	4.184	4.261	4.275	5.243	5.214	5.103	5.256	6.643	6.667	7.509	7.624	7.602	7.800	7.926	7.698	8.021	8.791	8.666	8.674	9.496	9.051	9.082	9.530	10.36	9.269	10.31	10.33	9.977	10.43	11.02	10.14	10.07	9.906
385.0	516.6	824.3	 1149	 1486	 1744	 1946	 1933	 1952	 2062	 2182	 2279	 2332	 2317	 2208	 2101	 1951	 1790	 1698	 1645	 1563	 1503	 1416	 1304	 1266	 1226	930.0	695.8	527.9	406.2	356.4	414.2	 1715	 9182	9999.9	555.1	27.63	10.78	6.770	5.624	4.664	4.176	3.973	3.889	3.862	3.891	3.927	4.116	4.863	4.997	4.837	4.885	6.971	7.546	7.608	7.922	7.637	7.057	8.578	7.385	8.181	8.009	8.012	9.042	8.700	9.142	9.137	9.367	9.875	10.42	9.954	10.44	9.919	10.35	9.908	10.07	10.32	10.41
390.0	488.5	762.4	 1116	 1434	 1661	 1888	 1925	 1950	 2016	 2148	 2209	 2247	 2204	 2152	 2036	 1888	 1782	 1708	 1654	 1589	 1529	 1448	 1355	 1260	 1210	 1108	845.3	622.3	479.1	371.6	297.8	526.6	 2368	 7709	9999.9	 5046	39.05	10.73	7.227	5.757	4.887	4.122	3.858	4.262	4.063	4.021	4.270	4.743	4.783	4.927	4.998	6.568	6.793	6.840	7.538	7.574	7.261	7.896	7.572	7.684	8.221	7.973	8.372	8.540	9.068	8.839	8.818	9.674	9.739	9.530	9.724	8.982	10.28	9.296	10.11	10.02	10.31
395.0	465.0	687.6	 1011	 1393	 1618	 1798	 1869	 1948	 1962	 2055	 2134	 2146	 2144	 2053	 1970	 1831	 1744	 1677	 1645	 1591	 1552	 1484	 1398	 1290	 1211	 1130	 1028	761.4	565.3	443.0	337.5	312.1	660.9	 1818	 4459	9999.9	 3742	49.74	10.41	7.213	5.481	4.893	4.313	4.137	4.032	4.261	3.906	4.769	4.795	4.554	4.782	6.142	6.231	6.815	6.873	7.078	7.020	7.361	7.385	7.771	7.911	7.863	8.334	8.514	8.050	9.010	9.325	8.646	9.479	8.951	8.951	8.979	9.618	9.547	9.681	9.377	9.854
400.0	473.0	665.0	991.9	 1324	 1564	 1712	 1819	 1899	 1922	 1983	 2066	 2088	 2061	 1994	 1909	 1785	 1706	 1659	 1620	 1584	 1544	 1468	 1404	 1317	 1207	 1112	 1071	909.1	646.6	504.7	388.7	299.6	308.2	519.3	 1119	 6149	9999.9	 2934	34.76	9.794	6.616	5.639	4.826	4.109	4.198	4.145	4.171	4.629	4.438	4.585	4.956	6.166	5.825	6.834	6.317	7.033	6.496	7.469	7.663	7.529	7.886	7.592	7.934	8.593	8.230	8.558	9.065	8.256	9.525	9.665	9.065	9.013	9.131	9.728	9.248	9.709	9.531
405.0	486.5	653.3	956.2	 1252	 1474	 1710	 1767	 1842	 1864	 1961	 1989	 1990	 1984	 1920	 1849	 1733	 1656	 1611	 1585	 1558	 1519	 1469	 1387	 1316	 1215	 1109	 1041	984.5	753.0	570.9	442.0	333.2	260.7	256.6	347.0	 1598	 8238	9999.9	468.4	20.48	7.835	6.870	4.923	4.576	4.064	4.725	4.301	4.648	4.880	4.841	4.926	5.799	6.231	6.880	6.720	6.738	6.605	7.397	7.391	7.546	8.162	7.500	7.728	7.655	8.203	8.831	8.201	8.735	9.677	8.823	8.945	9.135	8.803	8.666	9.166	9.250	8.871
410.0	420.5	643.2	916.1	 1209	 1414	 1602	 1708	 1761	 1834	 1883	 1923	 1892	 1880	 1812	 1735	 1643	 1584	 1549	 1533	 1520	 1473	 1426	 1358	 1296	 1223	 1128	 1025	953.5	884.8	681.9	511.2	393.2	300.7	235.8	204.9	447.3	 2116	 6665	 9974	 2035	32.70	8.714	6.029	5.315	4.589	4.550	4.403	4.463	4.312	4.474	4.237	5.292	5.963	6.366	6.326	6.489	7.134	7.155	6.829	7.665	7.281	7.287	7.538	7.604	7.647	8.215	7.576	7.809	8.315	7.888	8.642	8.186	8.447	8.354	8.749	9.193	8.539
415.0	401.8	608.4	888.6	 1145	 1360	 1526	 1593	 1692	 1755	 1816	 1818	 1795	 1773	 1714	 1643	 1557	 1495	 1487	 1458	 1443	 1415	 1377	 1315	 1262	 1206	 1125	 1024	926.7	869.4	815.5	604.3	452.7	347.3	265.4	205.6	211.4	551.8	 1550	 4173	9999.9	 3214	42.96	9.310	6.525	5.775	4.547	4.534	4.533	4.775	4.444	4.164	5.435	5.597	6.008	5.929	6.751	6.598	6.837	6.794	7.550	7.367	7.364	7.291	7.250	6.927	7.233	7.453	7.287	7.728	7.952	7.921	8.168	8.027	7.973	8.068	8.450	8.290
420.0	373.9	578.2	825.9	 1099	 1327	 1466	 1565	 1640	 1717	 1750	 1767	 1730	 1702	 1632	 1560	 1481	 1432	 1407	 1401	 1382	 1342	 1329	 1282	 1223	 1180	 1101	 1017	923.9	843.5	831.0	701.7	504.0	382.7	290.3	223.9	177.2	217.1	412.9	 1021	 5418	9999.9	 2493	29.61	7.623	6.161	5.598	4.548	4.424	4.461	4.409	4.056	4.845	5.642	5.507	5.824	6.124	6.413	6.145	6.765	6.809	7.315	6.746	7.511	7.464	7.044	6.731	7.451	7.069	7.742	7.710	7.239	7.577	7.247	7.892	7.813	8.593	8.567
425.0	371.3	538.8	781.0	 1067	 1240	 1401	 1516	 1609	 1668	 1703	 1696	 1675	 1623	 1560	 1492	 1408	 1370	 1356	 1337	 1325	 1297	 1269	 1239	 1185	 1146	 1085	 1008	919.4	843.0	789.5	747.0	571.4	420.3	324.0	245.3	187.0	158.3	170.5	287.4	 1394	 6873	 9638	421.9	16.23	7.949	6.268	5.062	5.012	4.553	4.361	4.224	4.695	5.474	5.540	5.416	5.760	6.262	6.077	6.811	6.933	6.770	6.792	6.908	7.148	6.656	7.099	6.842	7.254	7.423	7.486	7.326	7.284	6.916	7.026	7.600	7.218	7.690
430.0	605.4	523.6	758.6	985.2	 1196	 1318	 1435	 1528	 1606	 1635	 1633	 1602	 1543	 1472	 1404	 1344	 1290	 1274	 1259	 1247	 1231	 1200	 1172	 1134	 1099	 1046	992.9	919.5	844.4	771.0	718.8	638.9	491.6	358.5	280.2	216.6	169.7	137.9	138.6	365.5	 1748	 5613	 7645	 1845	29.68	7.948	5.944	5.356	4.974	4.050	4.321	4.817	5.262	5.652	5.450	5.751	6.627	6.062	6.955	6.732	6.544	6.827	6.867	6.984	6.524	6.867	6.544	6.618	6.863	6.959	6.682	7.000	6.622	7.124	7.537	7.304	7.581
435.0	 1161	539.1	693.3	912.3	 1156	 1250	 1365	 1479	 1543	 1567	 1568	 1519	 1446	 1397	 1309	 1244	 1220	 1193	 1176	 1178	 1157	 1127	 1102	 1078	 1047	 1009	959.9	889.8	839.1	773.5	699.6	634.8	566.9	424.9	316.7	249.8	193.8	153.6	121.6	150.7	440.3	 1298	 3198	 8740	 2964	39.16	8.289	6.186	5.418	4.572	4.414	4.997	5.171	5.303	5.334	5.296	6.462	6.408	6.898	6.403	6.195	6.464	6.541	6.739	6.310	6.644	6.170	6.573	6.868	6.951	6.267	6.295	6.213	6.237	6.942	7.415	6.761
440.0	 1451	788.9	671.4	882.1	 1065	 1187	 1349	 1432	 1479	 1540	 1514	 1478	 1406	 1319	 1253	 1202	 1152	 1126	 1117	 1118	 1093	 1077	 1050	 1029	 1005	988.7	931.0	878.3	823.9	777.0	695.9	610.1	568.9	484.9	351.7	270.2	214.9	170.3	132.8	113.2	159.9	336.9	779.1	 4434	 9720	 2309	27.32	7.633	6.000	4.869	4.437	5.182	4.950	5.050	5.456	5.258	6.069	6.089	6.099	6.444	5.876	6.490	6.566	6.590	6.145	6.100	6.180	6.675	6.151	6.188	6.073	6.203	6.288	6.466	6.726	6.651	6.300
445.0	 1247	 1384	665.8	864.1	 1021	 1127	 1286	 1385	 1459	 1491	 1452	 1414	 1329	 1268	 1200	 1146	 1085	 1071	 1066	 1058	 1046	 1028	 1003	986.3	962.4	951.0	903.1	866.1	813.0	770.4	693.3	608.3	543.2	509.1	396.3	290.9	230.8	186.5	146.3	117.8	109.8	130.0	215.4	 1121	 6120	 8779	366.1	18.76	6.971	5.679	4.765	5.406	4.995	5.257	5.224	4.955	5.816	5.998	5.904	6.075	6.008	6.147	6.486	6.684	6.361	6.234	5.627	6.531	5.769	6.463	5.982	6.458	5.798	6.022	6.368	6.355	6.406
450.0	643.7	 1908	 1092	783.4	936.8	 1059	 1204	 1315	 1365	 1405	 1386	 1350	 1253	 1193	 1135	 1065	 1007	986.6	981.3	977.4	959.2	941.3	924.2	909.1	903.0	885.6	855.7	818.1	785.3	742.6	678.3	602.5	525.7	477.6	429.1	333.9	252.9	205.4	168.1	134.7	113.3	96.70	99.72	289.0	 1534	 4979	 7187	 1650	26.79	6.924	5.545	5.313	4.991	5.177	4.980	5.004	5.631	5.423	5.824	5.825	6.385	6.241	5.642	6.289	5.762	6.018	5.691	5.989	5.485	5.677	5.766	5.943	5.839	5.795	5.751	6.175	6.006
455.0	357.3	 1352	 2287	825.9	862.2	936.4	 1128	 1223	 1269	 1327	 1305	 1249	 1201	 1102	 1043	976.7	913.3	904.8	890.4	881.3	867.1	868.7	841.4	846.9	824.7	803.7	795.3	764.7	741.7	702.1	648.3	584.2	510.8	449.5	406.7	374.0	287.0	223.3	183.8	152.1	124.9	103.5	84.13	112.3	378.3	 1142	 2743	 7744	 2558	32.58	7.270	5.712	5.234	4.898	5.235	5.092	5.027	5.243	5.761	5.759	6.185	5.637	4.975	5.670	5.205	5.836	5.328	5.697	5.439	5.249	5.382	5.290	5.648	5.523	4.994	5.905	5.814
460.0	264.2	738.5	 2780	 1277	797.8	900.0	 1032	 1146	 1189	 1251	 1235	 1190	 1113	 1045	985.9	915.2	851.4	833.0	824.1	823.6	804.1	792.2	779.6	788.3	771.1	753.1	743.9	725.7	710.2	674.9	631.4	566.3	501.6	436.7	385.2	367.7	315.3	241.2	195.3	162.5	136.0	110.3	87.81	78.83	126.6	287.2	656.2	 3665	 7930	 1969	24.38	7.004	5.563	5.347	4.997	5.186	4.690	5.326	5.128	5.092	5.813	5.708	5.378	5.342	5.129	5.256	4.888	5.240	5.446	4.617	4.959	4.609	5.074	5.214	5.074	5.398	5.008
465.0	226.8	437.2	 2261	 2497	750.7	837.4	988.5	 1048	 1140	 1179	 1194	 1137	 1048	972.5	920.6	864.9	790.6	784.1	762.0	759.1	747.0	740.2	728.9	722.7	724.1	705.5	697.6	683.3	670.8	644.7	601.2	545.3	484.7	426.1	373.5	341.8	326.0	261.4	203.7	168.4	143.4	116.7	93.63	76.10	73.26	99.48	175.0	903.5	 4627	 7313	311.8	19.16	6.756	5.735	5.177	5.449	4.488	5.331	4.926	4.895	4.927	5.328	5.211	5.037	5.038	4.726	5.041	5.099	4.959	5.190	4.637	5.102	5.324	4.962	4.875	4.759	4.960
470.0	227.4	328.5	 1080	 3478	 1485	787.9	895.7	964.0	 1048	 1092	 1078	 1023	961.9	891.8	835.9	775.4	729.0	711.1	685.5	679.0	674.3	669.6	656.1	647.5	650.6	643.1	634.3	621.4	609.3	591.8	554.5	510.8	456.9	404.3	355.8	315.6	296.3	271.8	222.4	176.3	148.3	122.6	101.7	81.14	66.63	62.89	71.55	227.4	 1134	 3759	 5324	 1563	27.32	6.928	5.674	5.278	4.858	4.934	4.851	4.770	4.446	4.860	5.169	4.833	4.809	4.713	4.669	4.544	4.386	4.684	4.178	4.278	4.123	4.328	4.628	4.488	4.594
475.0	221.9	290.2	530.9	 2376	 3114	841.2	799.3	880.0	945.3	987.6	 1001	952.4	868.1	814.9	749.8	690.0	642.1	617.3	614.2	607.0	592.4	592.8	583.7	574.4	578.4	574.7	571.0	559.7	549.1	540.3	514.6	474.5	421.0	378.5	330.9	297.7	267.4	251.9	236.4	190.7	152.4	126.6	106.2	86.26	69.51	59.10	52.15	78.80	276.4	857.3	 1851	 4991	 2383	38.15	6.642	5.690	5.027	4.782	4.564	4.453	4.303	4.295	4.412	4.904	4.607	4.589	4.033	4.310	4.004	3.971	4.009	4.201	3.891	3.933	4.047	3.672	4.153
480.0	200.6	275.6	395.2	 1164	 3668	 1553	751.1	821.2	880.0	907.2	912.7	865.5	811.1	762.8	682.5	635.4	607.5	576.4	568.5	550.7	544.3	538.0	531.2	523.7	527.1	530.5	522.6	520.8	513.6	502.1	481.1	443.5	399.7	354.5	317.6	282.6	253.8	232.5	225.5	203.4	155.5	126.7	108.6	89.08	73.90	62.59	49.85	49.35	86.60	211.4	437.3	 2144	 5560	 1982	26.81	6.365	5.097	5.045	4.580	4.239	4.547	4.153	4.476	4.165	4.346	4.242	4.078	3.933	3.838	3.406	4.091	3.781	3.512	3.567	3.853	3.763	3.796
485.0	172.1	252.5	337.6	602.7	 2830	 2945	709.0	751.9	807.1	848.3	848.5	817.1	752.2	701.0	650.7	595.3	557.3	524.1	523.3	515.7	507.8	490.4	491.9	492.7	489.8	491.1	484.0	477.0	477.5	472.8	446.2	412.0	372.7	336.7	304.2	270.9	241.5	222.8	208.7	201.6	166.4	128.1	109.7	89.30	77.65	63.81	52.80	44.44	46.35	68.62	115.8	521.7	 2974	 5247	364.1	17.72	6.172	5.325	4.942	4.185	4.204	4.555	4.509	4.040	3.967	3.678	4.231	3.930	3.411	3.529	3.616	3.865	3.586	3.417	3.707	3.430	3.517
490.0	155.1	237.2	321.2	434.2	 1291	 3768	 1496	689.0	740.7	777.1	790.3	750.2	693.5	640.6	593.8	536.5	505.8	477.3	469.7	461.6	452.3	442.0	438.0	442.0	433.7	443.6	435.3	430.2	432.2	425.4	403.5	380.8	349.6	315.2	284.3	256.3	232.1	209.5	191.6	182.8	171.6	138.5	111.2	92.89	79.09	66.65	56.47	46.95	40.64	39.64	46.28	132.9	720.0	 2451	 3976	 1601	29.57	6.730	5.043	4.722	4.393	4.351	3.815	3.905	3.888	3.646	3.635	3.677	3.407	3.378	3.486	3.479	3.279	3.451	3.453	3.224	3.344
495.0	147.8	207.5	330.1	363.4	598.0	 2346	 3339	754.3	676.8	697.1	706.8	676.4	611.6	589.1	525.0	486.1	460.5	422.8	417.7	415.6	398.6	398.3	390.1	389.3	387.8	392.8	383.8	382.8	389.8	380.1	365.7	345.6	316.3	287.1	264.6	240.7	216.9	194.9	179.0	165.5	159.0	147.0	117.3	92.76	80.75	67.84	59.56	49.19	43.48	35.81	33.37	50.02	177.3	561.5	 1368	 4530	 2518	40.24	6.487	5.247	4.448	4.030	3.764	3.739	3.546	3.490	3.512	3.583	3.261	3.159	3.291	3.273	2.981	2.903	2.972	2.934	3.264
500.0	127.7	190.3	294.3	339.1	422.7	 1102	 3925	 1496	629.0	638.3	631.4	620.8	573.6	540.5	480.8	440.6	411.5	390.4	379.9	380.0	363.1	358.0	352.7	357.9	349.0	354.8	349.5	350.0	352.4	347.9	333.8	316.9	294.0	265.9	244.0	227.3	202.2	182.1	168.8	153.4	140.8	142.5	125.9	95.56	79.84	69.07	59.96	51.70	44.26	36.76	32.38	31.76	56.73	141.0	324.5	 1907	 5037	 1979	29.18	6.250	4.946	4.183	3.609	3.759	3.003	3.370	3.125	2.966	2.896	3.078	2.742	2.452	2.766	2.682	3.101	2.759	2.862
505.0	124.5	172.7	280.4	344.0	372.6	579.8	 2960	 3066	606.6	605.6	601.1	566.2	541.1	496.7	443.1	400.7	389.0	360.7	349.2	340.4	331.4	325.9	327.2	323.1	319.7	323.8	321.1	321.6	323.4	324.0	305.8	293.9	275.7	246.1	229.5	210.8	191.0	172.3	160.6	146.4	132.5	126.9	124.7	99.77	79.34	68.60	60.18	52.55	44.88	37.95	32.04	29.06	31.57	49.04	87.55	459.8	 2615	 5081	390.8	16.59	5.366	4.214	4.172	3.244	3.382	3.064	2.949	2.920	2.580	2.820	2.835	2.290	2.574	2.560	2.579	2.649	2.633
510.0	108.4	143.8	218.1	325.2	345.7	403.7	 1273	 3991	 1513	541.7	541.1	511.5	471.6	436.6	398.7	360.7	335.9	312.8	309.5	297.3	290.2	285.0	285.2	279.0	278.2	284.5	280.4	282.6	285.7	285.3	274.4	262.0	245.0	223.0	205.5	188.9	172.2	156.6	146.1	135.1	122.1	109.9	109.7	103.2	83.62	68.65	59.13	52.39	46.05	39.66	33.94	29.95	27.65	28.71	36.17	117.5	633.3	 2385	 3121	 1548	26.96	5.026	4.125	3.474	3.129	3.034	2.866	2.779	2.431	2.664	2.438	2.392	2.247	2.126	2.434	2.325	2.787
515.0	98.29	137.9	178.4	271.6	321.1	335.9	548.1	 2417	 4186	615.1	477.6	462.4	416.8	380.4	350.5	320.7	291.3	275.8	268.9	258.5	252.4	244.6	240.8	241.9	242.2	246.7	246.2	246.2	249.4	246.5	238.6	229.2	213.3	195.9	182.0	168.4	153.8	144.2	130.3	122.8	111.5	100.5	93.43	92.79	87.32	72.09	58.70	51.98	43.88	39.41	35.00	31.50	26.50	24.88	24.07	40.63	154.1	543.8	 1152	 3702	 2123	35.31	4.897	3.440	3.302	3.103	2.725	2.713	2.377	2.676	2.084	2.417	2.117	1.911	2.352	2.387	2.273
520.0	90.68	113.0	165.1	235.3	332.1	302.7	357.3	 1066	 5145	 1536	427.1	411.2	384.0	346.4	319.8	288.4	265.0	248.8	239.7	232.2	227.3	222.6	218.8	220.4	219.5	218.4	222.5	223.6	226.7	222.1	212.5	208.6	194.3	180.2	166.1	156.5	142.7	133.6	123.6	113.2	103.2	92.06	86.55	82.19	84.85	75.65	58.93	49.24	43.74	39.65	33.98	31.23	26.65	24.11	22.13	23.83	47.52	132.5	272.3	 1603	 3933	 1348	23.28	4.136	3.621	2.920	2.853	2.721	2.457	2.192	2.229	2.208	1.985	1.949	2.182	2.117	2.345
525.0	77.57	102.5	155.4	195.8	303.4	293.8	314.7	504.4	 3880	 3693	433.0	375.3	349.7	327.2	294.1	257.9	246.4	230.1	217.6	214.3	208.4	203.2	200.8	197.4	194.9	196.4	198.0	199.9	202.9	201.6	199.1	189.8	175.4	163.5	152.5	140.1	132.3	120.6	114.1	104.5	96.15	85.68	79.82	73.35	74.60	73.78	60.55	49.77	43.26	38.26	33.30	30.40	26.43	23.03	21.17	20.41	23.77	40.93	69.66	385.9	 2073	 3406	365.1	9.714	3.499	2.953	2.711	2.657	2.139	2.012	2.178	1.957	1.800	1.844	1.774	1.620	1.719
530.0	72.94	94.00	130.7	162.4	242.0	302.8	266.0	339.8	 1501	 5219	 1698	333.6	310.5	279.9	259.3	227.9	213.3	200.5	193.3	189.5	183.7	177.2	172.9	173.0	172.5	170.9	174.4	172.3	177.1	175.5	173.4	164.8	156.3	144.5	133.5	125.0	114.7	109.1	101.0	93.02	86.15	78.34	71.86	65.95	62.99	65.52	61.55	49.87	41.40	36.37	32.23	29.35	25.29	23.01	20.75	19.21	17.76	19.63	24.77	94.03	499.6	 1661	 2559	 1087	24.16	3.394	2.533	2.712	2.099	2.105	2.055	1.827	1.915	1.979	1.908	1.765	1.847
535.0	72.01	87.90	133.8	144.4	193.6	285.1	249.8	265.4	555.8	 2925	 5157	411.5	269.9	245.0	227.0	201.6	180.8	172.2	166.7	161.1	158.7	149.8	150.0	148.1	147.4	145.3	147.4	148.4	149.4	151.2	149.7	142.2	139.6	125.1	116.0	109.4	100.6	93.99	89.24	81.05	78.48	68.31	65.31	58.51	55.18	52.72	55.24	52.83	41.21	34.62	30.02	25.86	23.33	21.31	20.61	18.02	15.66	14.87	14.21	28.77	117.7	376.3	920.4	 2688	 1425	30.49	2.952	2.858	2.040	1.935	2.009	1.561	1.849	1.887	1.805	1.634	1.648
540.0	62.84	77.09	111.8	131.1	152.5	232.8	260.9	231.8	326.1	 1104	 6692	 1240	244.2	215.3	201.3	179.0	161.6	154.1	144.5	140.4	139.5	138.1	135.0	131.0	131.3	133.0	132.7	133.1	131.9	134.3	133.5	126.9	121.1	110.7	102.7	97.58	91.64	84.51	81.72	73.60	71.30	63.83	57.97	53.79	50.66	46.52	47.30	49.95	42.81	34.09	28.54	24.72	21.90	20.04	19.30	16.95	15.20	12.56	12.09	14.33	32.64	89.42	216.4	 1208	 2828	397.8	16.82	3.217	2.149	1.860	2.079	1.589	1.441	1.547	1.699	1.341	1.821
545.0	68.23	82.63	101.5	111.3	133.5	189.3	262.3	225.7	263.4	459.9	 5012	 3190	251.6	200.1	186.5	161.2	148.4	141.2	132.4	126.9	126.7	121.2	119.0	119.7	114.0	115.6	117.8	119.7	120.4	120.0	120.5	113.1	107.9	98.11	92.89	88.47	82.14	77.60	71.52	65.94	61.76	57.97	52.05	49.22	45.12	42.92	40.61	42.86	43.61	33.22	26.82	23.27	20.50	18.80	17.60	16.06	15.49	12.58	11.05	10.15	13.89	25.02	53.71	292.3	 1591	 2428	315.5	5.707	2.360	2.215	1.881	1.585	1.356	1.528	1.540	1.266	1.595
550.0	70.39	79.26	93.31	105.3	120.3	152.9	229.9	234.1	215.6	281.8	 1803	 4614	 1150	173.9	156.8	141.3	126.9	117.7	110.6	110.4	106.5	101.4	100.2	101.6	97.09	99.75	98.99	101.3	101.3	101.5	101.6	95.89	91.61	84.94	78.44	74.22	69.33	65.55	60.77	57.16	53.53	50.45	46.00	42.09	40.13	37.19	35.04	34.46	36.31	33.21	26.29	21.06	18.63	16.93	15.80	14.83	13.60	11.74	10.50	8.764	8.601	10.74	16.76	69.52	388.9	 1280	 1930	691.4	19.77	2.365	1.988	1.727	1.514	1.360	1.366	1.464	1.464
555.0	70.38	76.56	86.28	91.24	110.2	126.8	165.0	258.5	189.2	217.1	563.0	 2420	 4077	241.7	132.7	112.9	103.1	97.80	90.89	89.60	87.94	81.95	80.59	84.96	78.88	80.57	82.00	81.38	81.93	84.48	82.38	77.93	73.29	69.73	66.93	61.63	57.24	53.90	50.76	48.91	45.78	42.15	39.67	36.43	33.43	31.62	29.27	28.26	27.61	29.42	26.20	19.93	16.32	15.50	13.65	12.74	12.32	10.63	10.16	8.707	7.327	6.998	8.152	19.96	90.27	289.8	751.4	 1872	412.7	22.51	2.123	1.817	1.326	1.464	1.374	1.347	1.227
560.0	61.69	80.26	81.95	84.98	92.33	107.1	135.1	223.3	192.1	191.2	266.1	841.9	 5056	912.7	115.1	99.34	84.84	81.89	77.70	77.64	73.17	71.18	70.53	70.68	67.70	68.35	69.61	70.20	70.65	71.05	69.69	66.56	61.44	58.81	55.24	53.13	49.19	47.71	43.78	40.17	38.83	35.29	32.71	30.60	29.00	28.56	24.35	23.76	23.19	23.21	24.47	20.75	15.14	13.24	12.38	11.60	10.58	9.488	9.214	8.474	7.062	6.082	6.228	8.365	23.86	68.27	176.8	895.5	 1755	334.9	7.561	1.991	1.391	1.401	1.343	1.074	1.143
565.0	76.14	80.19	84.57	79.80	92.18	94.80	104.6	185.3	207.3	176.7	195.9	315.7	 3508	 2487	113.3	87.64	74.62	71.55	68.86	64.53	64.91	61.26	60.72	61.87	58.67	57.09	58.92	57.79	58.90	61.22	60.88	56.84	52.11	49.63	49.60	45.34	42.58	39.44	38.34	34.45	33.33	30.65	29.14	26.36	24.69	23.35	22.27	20.82	19.37	19.68	20.09	18.79	14.70	12.34	10.61	10.32	9.912	8.854	8.290	7.847	6.979	5.603	5.442	5.251	8.710	18.82	42.96	221.8	 1114	 1461	53.73	3.129	1.507	1.413	1.306	1.159	0.963
570.0	74.27	78.73	82.37	82.19	74.39	78.17	87.86	136.2	216.9	173.9	172.1	186.0	 1166	 3990	841.6	72.57	62.04	60.13	55.62	52.81	51.41	51.35	47.44	47.52	48.61	47.51	48.21	47.65	46.70	48.90	47.35	45.33	43.24	41.03	38.42	35.42	33.52	32.49	31.13	28.42	26.91	25.23	23.66	21.91	21.20	19.76	18.55	17.03	16.23	15.06	15.57	15.44	13.98	11.26	9.649	8.891	8.698	7.860	7.101	6.944	6.455	5.410	5.211	4.806	5.313	7.613	13.05	52.80	277.2	840.6	977.2	228.0	13.37	1.405	1.312	1.126	1.044
575.0	84.65	83.70	72.93	82.28	63.72	66.25	77.13	107.5	179.1	199.2	172.7	161.1	362.6	 1988	 3242	121.7	50.18	47.08	44.99	41.14	43.51	38.70	38.38	37.28	37.59	36.14	37.48	38.19	37.17	37.63	38.08	36.16	35.00	32.24	30.93	28.39	27.95	25.54	24.61	22.93	20.09	20.03	19.22	17.58	16.17	16.06	14.74	13.79	13.57	12.18	11.47	11.83	12.10	10.88	8.612	7.248	7.462	6.621	6.085	5.563	5.495	5.456	5.469	4.535	4.943	4.962	6.019	14.75	64.45	191.6	416.6	 1042	325.9	9.766	1.297	1.099	0.932
580.0	85.57	74.42	80.44	88.91	61.30	57.38	67.70	93.02	141.6	225.0	167.2	140.2	177.1	649.8	 4032	644.0	45.22	40.69	36.81	37.34	33.61	34.28	32.37	31.65	30.83	31.26	31.11	32.74	33.14	31.87	32.11	28.77	29.58	27.14	25.48	24.61	22.29	21.63	20.65	19.12	17.58	17.14	16.36	14.57	13.67	13.00	12.94	11.71	11.37	10.18	9.499	9.125	9.709	10.28	8.299	7.037	5.913	6.312	5.882	5.306	5.204	5.325	4.961	4.524	4.333	4.134	4.580	6.369	17.12	45.66	99.86	550.0	942.4	57.71	3.253	1.214	1.170
585.0	70.02	84.37	73.92	83.98	59.73	49.98	63.61	78.72	119.8	212.8	176.6	142.5	140.4	227.8	 2650	 1837	50.22	35.88	32.11	33.08	29.24	28.69	28.43	27.11	26.63	26.86	26.34	26.04	27.47	27.41	26.85	24.46	24.85	22.52	21.22	20.22	18.50	18.07	17.88	16.70	15.19	14.49	14.39	12.82	12.05	11.21	11.07	10.62	9.275	8.639	8.196	7.519	7.701	9.073	8.449	6.523	5.459	5.701	5.514	5.064	4.741	5.177	5.216	4.774	3.888	4.156	4.228	4.235	6.506	13.09	24.82	139.7	637.1	741.8	47.03	1.857	1.016
590.0	60.91	81.65	80.20	73.33	58.89	47.91	56.89	78.49	95.53	165.6	205.3	152.2	131.0	118.7	828.7	 3011	589.6	30.33	26.58	26.30	24.38	22.22	22.45	23.05	22.08	22.54	21.71	21.34	21.92	22.30	21.06	21.27	19.89	18.13	17.68	16.33	15.33	14.92	13.80	13.33	12.44	12.74	11.43	10.30	10.27	9.531	9.146	8.550	7.714	7.144	6.629	6.227	6.282	6.959	7.144	6.640	5.258	4.710	4.567	4.519	4.583	4.005	4.279	4.242	3.975	3.574	3.753	3.277	4.125	5.288	7.433	32.97	161.9	474.2	510.1	182.3	8.180
595.0	58.32	73.55	71.16	75.21	61.20	53.47	59.73	76.34	92.83	134.2	212.8	163.5	135.1	97.69	233.1	 1427	 2380	61.37	21.33	21.85	20.08	19.31	18.63	18.99	17.88	17.22	17.55	17.82	18.37	17.03	17.67	16.14	16.22	14.32	14.59	13.26	13.34	11.91	10.87	10.93	10.20	9.432	8.686	9.045	7.618	8.186	8.008	6.699	5.974	6.226	5.738	5.183	4.745	4.807	5.457	6.328	5.183	4.484	3.667	3.989	3.534	3.619	3.150	3.461	3.738	3.961	3.518	3.010	3.516	3.268	3.633	9.244	37.82	107.8	252.4	625.1	210.2
600.0	66.91	66.32	80.93	68.86	51.65	49.80	52.73	70.75	83.40	122.1	188.1	190.1	135.0	95.33	98.27	440.3	 2948	187.2	19.59	19.77	16.49	16.52	16.14	15.53	14.37	14.59	15.22	15.50	14.79	14.58	14.39	13.32	13.73	12.38	12.47	11.51	11.12	10.89	9.079	8.922	8.173	8.204	7.299	7.120	6.854	6.714	6.377	6.066	5.478	5.175	4.612	4.737	4.125	3.681	4.510	5.248	5.049	4.011	3.082	3.333	3.315	3.115	2.939	3.177	3.407	3.883	3.167	2.818	2.820	2.780	2.702	3.691	9.800	25.20	61.65	351.7	513.0
605.0	56.36	71.51	76.06	64.60	51.21	52.38	48.78	58.17	78.07	107.1	161.9	203.1	133.9	93.56	73.07	134.6	 1909	 1304	24.39	17.30	15.73	14.18	14.06	13.19	12.92	12.99	13.14	12.83	12.59	13.55	12.35	12.38	12.35	12.11	11.33	9.778	9.988	9.231	8.376	7.928	7.196	6.802	6.356	6.279	5.743	5.778	5.367	5.920	4.685	4.545	4.112	4.020	3.494	3.203	3.496	3.874	4.414	4.169	3.149	2.907	2.939	3.139	2.737	2.683	2.994	3.198	2.922	2.661	2.428	2.372	2.145	2.165	3.419	7.285	14.77	91.13	399.9
610.0	47.51	72.09	68.15	59.18	50.64	44.72	48.40	58.61	78.42	98.84	131.4	189.0	150.7	98.41	62.72	59.35	578.5	 2180	426.8	15.53	13.12	12.05	12.04	10.56	10.36	11.03	10.81	10.68	10.63	11.01	10.37	10.54	10.57	10.36	9.775	8.857	8.713	7.371	6.913	6.403	5.811	5.638	5.627	5.054	5.171	4.816	4.469	4.676	4.042	3.823	3.479	3.165	2.995	2.878	2.886	3.134	3.472	3.901	3.531	2.514	2.524	2.514	2.516	2.430	2.377	2.567	2.770	2.553	2.296	2.161	1.902	1.737	1.943	2.648	4.112	21.25	103.6
615.0	56.34	58.42	65.50	59.37	48.21	48.68	45.42	57.07	71.07	90.79	120.4	159.9	175.7	104.5	66.04	46.95	152.2	 1041	 1749	40.44	11.89	10.34	9.231	8.668	9.383	8.391	7.484	8.151	9.498	9.139	8.296	8.353	8.705	8.645	8.233	7.566	6.500	6.519	5.487	5.376	5.021	4.922	4.762	4.754	4.146	4.053	3.706	3.687	3.214	3.265	2.703	2.890	2.512	2.524	2.457	2.361	2.606	3.092	2.995	2.409	2.208	2.449	2.323	2.048	2.155	2.476	2.326	2.761	2.463	1.833	1.680	1.419	1.576	1.463	1.870	5.761	23.61
620.0	46.22	57.22	64.75	54.77	42.45	45.32	43.46	54.04	71.67	84.15	107.2	134.6	174.5	110.2	65.21	43.11	55.81	311.3	 2188	149.0	10.54	10.06	8.113	8.188	7.621	7.212	6.937	7.244	7.332	7.023	7.208	6.986	7.035	6.620	6.499	6.310	5.674	5.367	4.553	4.888	4.344	4.455	4.097	3.470	3.578	3.259	3.192	3.042	2.866	2.809	2.611	2.400	2.252	2.028	1.832	1.934	2.328	2.501	2.594	2.364	2.146	2.055	1.943	1.564	1.865	1.830	1.779	2.195	1.961	1.988	1.505	1.273	1.436	1.033	1.239	2.006	6.117
625.0	46.13	58.65	63.62	53.19	44.73	36.88	39.63	48.70	62.60	87.10	106.2	123.1	160.5	121.8	64.36	41.20	34.94	88.03	 1434	 1050	14.33	8.317	7.784	8.006	6.368	5.915	6.184	5.546	6.013	6.141	6.097	5.816	5.660	6.027	5.620	4.963	4.644	4.682	3.920	3.794	3.438	3.764	3.102	2.711	2.941	2.429	2.891	2.448	2.538	2.352	2.197	2.092	2.086	2.135	1.705	1.880	1.783	1.846	2.262	2.342	2.147	1.682	1.766	1.668	1.464	1.533	1.789	1.883	1.629	1.883	1.254	1.376	1.461	1.030	1.108	1.224	2.237
630.0	43.11	51.42	58.31	49.82	39.18	34.90	40.33	46.92	61.73	81.54	98.93	113.5	131.0	136.8	74.11	43.02	29.35	36.06	430.2	 1728	330.1	8.385	7.481	6.260	5.897	4.969	5.195	5.125	5.219	5.379	4.836	4.837	4.691	4.748	4.263	4.197	4.127	3.466	3.417	3.382	3.184	2.827	2.700	2.295	2.616	2.309	2.420	2.211	2.054	1.989	1.756	1.751	1.481	1.758	1.398	1.545	1.529	1.545	1.771	1.883	2.144	1.744	1.493	1.577	1.417	1.378	1.392	1.522	1.326	1.614	1.597	1.223	1.200	1.090	0.889	1.009	1.418
635.0	48.34	63.49	70.18	42.57	36.77	36.53	38.60	48.31	57.88	72.75	92.35	101.0	113.5	119.3	89.67	44.48	28.74	24.86	107.3	820.3	 1388	28.92	6.263	5.637	4.888	5.042	4.954	4.645	4.461	4.627	4.895	4.044	3.765	4.002	3.436	3.924	3.212	2.990	2.971	2.531	2.314	2.385	2.188	2.062	1.842	1.861	1.956	1.992	1.657	1.728	1.509	1.252	1.432	1.416	1.285	1.203	1.341	1.503	1.574	1.603	1.751	1.659	1.516	1.472	1.411	1.633	1.343	1.459	1.356	1.156	1.441	1.343	1.053	0.952	1.036	0.921	1.195
640.0	48.64	54.94	66.68	42.33	35.47	30.77	39.43	46.11	56.27	75.50	92.99	99.69	105.8	109.8	96.31	47.66	29.34	23.41	36.20	242.7	 1754	125.0	5.341	5.517	4.032	4.259	4.416	4.078	4.067	3.675	3.970	3.217	3.222	3.359	2.898	3.417	3.125	2.478	2.424	2.379	2.003	2.220	2.076	2.101	2.172	1.711	1.516	1.725	1.574	1.414	1.316	1.106	1.242	1.176	1.097	1.438	1.236	1.048	1.297	1.295	1.418	1.545	1.487	1.219	1.233	1.301	1.342	1.380	1.344	1.050	1.166	1.391	1.107	0.853	0.735	0.960	0.887
645.0	54.71	58.10	66.89	53.09	37.74	33.43	31.08	46.01	52.50	70.90	92.38	101.2	102.5	97.45	103.9	53.94	32.03	23.88	21.23	67.33	 1165	857.6	9.411	4.706	4.652	3.471	4.063	3.719	2.871	3.271	4.029	2.923	3.493	2.956	2.865	3.115	2.510	2.171	1.997	1.992	1.912	1.954	2.173	1.885	1.731	1.506	1.428	1.447	1.479	1.344	1.046	1.092	1.196	1.134	1.138	1.155	1.058	1.019	0.968	1.133	1.243	1.463	1.434	1.235	1.204	1.261	1.056	1.304	1.151	1.057	1.118	1.131	1.316	0.708	0.716	0.886	0.919
650.0	52.02	60.41	73.61	55.25	34.04	32.91	34.51	43.81	55.20	69.35	90.54	104.0	100.9	98.35	99.13	65.38	34.69	25.19	18.77	25.25	426.6	 1480	67.32	5.025	4.077	4.274	3.399	2.673	2.728	3.576	3.121	2.730	2.611	2.217	2.500	2.633	2.008	2.172	1.946	1.896	1.817	1.820	1.629	1.751	1.619	1.415	1.515	1.413	1.206	1.278	1.115	0.932	1.161	0.883	0.913	0.956	1.206	1.140	1.087	1.050	1.093	1.107	1.335	1.344	1.193	1.160	0.927	1.174	1.028	1.076	1.037	0.862	1.083	0.899	0.862	0.890	0.821
