Sample:	'1
File name:	T2025040701¶«Íõ¹«Ä¹ Ï¡ÊÍ5±¶.FD3
Run date:	'10:30:05, 04/08/2025
Operator:	Administrator
Comment:	'

Instrument
Model:	F-2700 FL Spectrophotometer
Serial number:	23B8-004
ROM Version:	4J14000 07

Instrument parameters
Measurement type:	3-D scan
Data mode:	Fluorescence
EX  Start WL:	220.0 nm
EX  End WL:	600.0 nm
EX Sampling interval:	5.0 nm
EM  Start WL:	230.0 nm
EM  End WL:	650.0 nm
EM Sampling interval:	5.0 nm
Scan speed:	12000 nm/min
EX Slit:	5.0 nm
EM Slit:	5.0 nm
PMT Voltage:	700 V
Response:	Auto 
Corrected spectra:	Off
Contour interval:	50.000

Peak integration
Integration method:	Rectangular
Sensitivity:	1
Threshold:	1.000

Peaks
No.	ApexEX/EM(nm)	Height(Data)
1	225.0/570.0	55.47
2	230.0/345.0	2118
3	230.0/400.0	1458
4	235.0/395.0	1455
5	235.0/410.0	1477
6	240.0/265.0	435.0
7	245.0/270.0	421.7
8	250.0/275.0	542.6
9	250.0/545.0	212.6
10	255.0/285.0	594.6
11	255.0/560.0	166.4
12	260.0/290.0	587.9
13	260.0/575.0	131.9
14	265.0/295.0	765.6
15	265.0/585.0	105.7
16	270.0/300.0	1029
17	270.0/370.0	862.8
18	270.0/600.0	95.01
19	275.0/305.0	1041
20	275.0/345.0	963.3
21	275.0/430.0	2070
22	275.0/610.0	80.00
23	280.0/625.0	65.24
24	285.0/320.0	922.7
25	285.0/635.0	47.85
26	290.0/325.0	831.3
27	305.0/345.0	610.2
28	310.0/350.0	541.8
29	315.0/355.0	557.1
30	330.0/415.0	1130
31	440.0/520.0	29.63
32	460.0/345.0	5.762
33	495.0/270.0	2.090
34	505.0/275.0	3.091
35	510.0/280.0	3.660
36	510.0/435.0	6.739
37	515.0/285.0	3.749
38	515.0/440.0	6.875
39	530.0/290.0	3.924
40	540.0/295.0	5.053
41	545.0/300.0	5.588
42	550.0/305.0	5.709
43	560.0/310.0	5.164
44	560.0/425.0	6.416
45	565.0/430.0	6.519
46	570.0/315.0	5.463
47	575.0/420.0	6.679
48	585.0/325.0	5.640

Data points
	220.0	225.0	230.0	235.0	240.0	245.0	250.0	255.0	260.0	265.0	270.0	275.0	280.0	285.0	290.0	295.0	300.0	305.0	310.0	315.0	320.0	325.0	330.0	335.0	340.0	345.0	350.0	355.0	360.0	365.0	370.0	375.0	380.0	385.0	390.0	395.0	400.0	405.0	410.0	415.0	420.0	425.0	430.0	435.0	440.0	445.0	450.0	455.0	460.0	465.0	470.0	475.0	480.0	485.0	490.0	495.0	500.0	505.0	510.0	515.0	520.0	525.0	530.0	535.0	540.0	545.0	550.0	555.0	560.0	565.0	570.0	575.0	580.0	585.0	590.0	595.0	600.0
230.0	46.84	949.0	2568	753.6	29.14	3.721	3.017	2.927	2.616	2.422	2.761	2.139	2.142	1.909	1.672	1.342	1.338	1.196	1.113	0.993	0.876	0.939	0.838	0.805	0.769	0.689	0.614	0.573	0.507	0.474	0.461	0.386	0.376	0.322	0.275	0.279	0.288	0.269	0.182	0.231	0.296	0.430	0.454	0.251	0.170	0.159	0.977	4.921	8.430	6.013	2.126	0.328	0.135	0.115	0.102	0.087	0.093	0.094	0.082	0.073	0.096	0.063	0.096	0.066	0.094	0.090	0.055	0.040	0.064	0.061	0.075	0.050	0.055	0.045	0.033	0.034	0.039
235.0	142.5	270.6	1600	2648	541.1	45.47	4.144	2.838	2.918	2.426	3.045	2.379	1.995	2.465	1.792	1.411	1.278	1.227	1.196	1.045	0.920	1.011	0.941	0.780	0.794	0.627	0.645	0.686	0.500	0.518	0.477	0.468	0.400	0.372	0.305	0.370	0.307	0.204	0.197	0.191	0.280	0.302	0.421	0.534	0.445	0.174	0.317	1.387	3.211	6.351	8.896	8.668	3.783	0.544	0.111	0.097	0.125	0.108	0.079	0.099	0.078	0.042	0.111	0.049	0.080	0.088	0.061	0.053	0.070	0.080	0.104	0.071	0.039	0.037	0.012	0.086	0.041
240.0	233.6	170.2	487.6	2345	2908	409.4	17.59	4.038	4.146	3.614	2.608	2.639	2.506	2.317	2.344	1.442	1.555	1.332	1.179	1.050	1.095	0.947	1.048	0.776	0.824	0.599	0.682	0.716	0.590	0.482	0.484	0.379	0.334	0.336	0.323	0.268	0.223	0.242	0.233	0.199	0.260	0.219	0.207	0.363	0.664	0.677	0.529	0.457	0.818	1.961	5.171	12.33	14.86	8.920	2.719	0.285	0.094	0.113	0.074	0.133	0.130	0.046	0.097	0.063	0.060	0.075	0.061	0.071	0.053	0.073	0.062	0.039	0.058	0.052	0.018	0.074	0.049
245.0	150.9	266.4	186.7	812.2	3310	2909	282.0	8.533	4.657	4.026	3.889	3.212	3.031	2.411	2.196	1.448	1.482	1.488	1.221	1.141	1.132	0.837	1.046	0.911	0.795	0.746	0.741	0.569	0.649	0.447	0.489	0.299	0.443	0.373	0.304	0.263	0.271	0.258	0.248	0.228	0.240	0.253	0.217	0.219	0.424	0.711	0.950	0.634	0.390	0.566	1.347	4.266	11.29	18.13	16.34	7.662	1.400	0.204	0.130	0.146	0.091	0.069	0.131	0.058	0.108	0.072	0.063	0.108	0.066	0.076	0.044	0.065	0.063	0.065	0.044	0.054	0.054
250.0	52.96	188.3	289.2	283.8	1101	3181	3700	1034	50.55	5.569	5.085	3.856	3.951	2.729	2.404	1.786	1.505	1.459	1.299	1.256	1.148	0.985	1.025	0.893	0.804	0.803	0.823	0.693	0.640	0.574	0.537	0.488	0.412	0.343	0.312	0.286	0.268	0.258	0.238	0.326	0.248	0.255	0.198	0.165	0.231	0.308	0.517	0.839	0.919	0.829	0.667	1.124	2.794	6.175	11.06	16.90	20.68	16.19	8.512	1.991	0.179	0.118	0.151	0.100	0.093	0.105	0.082	0.109	0.073	0.090	0.066	0.073	0.087	0.062	0.090	0.076	0.071
255.0	25.65	64.52	219.4	361.8	339.4	833.8	3374	5948	1384	41.68	7.337	5.898	4.752	3.906	2.701	2.370	1.977	1.821	1.762	1.416	1.293	1.310	1.159	1.023	0.821	0.756	0.788	0.661	0.610	0.541	0.604	0.464	0.388	0.432	0.350	0.358	0.259	0.254	0.249	0.286	0.224	0.224	0.224	0.191	0.222	0.173	0.221	0.337	0.522	0.951	1.438	1.365	1.032	1.564	2.681	4.268	8.950	21.36	34.83	25.75	12.57	1.916	0.190	0.141	0.170	0.118	0.112	0.110	0.068	0.106	0.140	0.054	0.090	0.048	0.100	0.083	0.084
260.0	24.78	27.09	80.43	333.9	341.3	234.6	1082	5584	6406	241.2	18.35	8.273	5.115	3.987	3.483	2.529	1.961	1.581	1.715	1.721	1.333	1.377	1.027	0.966	0.977	0.843	0.836	0.932	0.722	0.570	0.525	0.442	0.483	0.432	0.373	0.350	0.316	0.285	0.322	0.278	0.264	0.248	0.268	0.221	0.176	0.150	0.185	0.220	0.243	0.446	1.063	1.920	1.749	1.029	0.811	1.114	2.232	6.083	17.36	34.98	44.93	23.98	9.990	1.061	0.166	0.125	0.164	0.146	0.085	0.103	0.139	0.099	0.093	0.069	0.106	0.091	0.118
265.0	24.36	19.23	32.34	164.7	435.0	232.6	278.8	2022	7970	6095	184.7	11.97	7.810	4.922	4.135	3.045	2.547	1.929	1.852	1.743	1.280	1.344	1.143	0.954	1.164	0.866	0.871	0.905	0.608	0.554	0.712	0.530	0.454	0.465	0.473	0.332	0.353	0.238	0.347	0.276	0.267	0.294	0.283	0.272	0.183	0.189	0.175	0.193	0.251	0.223	0.445	1.065	1.824	1.894	1.229	0.617	0.709	1.550	4.279	11.31	28.50	48.57	53.34	20.48	5.053	0.414	0.220	0.142	0.127	0.141	0.144	0.124	0.129	0.103	0.171	0.108	0.082
270.0	32.63	28.77	27.00	55.15	217.2	421.7	275.6	504.6	2671	7577	8501	756.5	39.32	8.615	5.478	4.280	3.276	2.516	2.433	1.991	1.791	1.360	1.436	1.304	1.144	0.972	0.976	0.936	0.673	0.668	0.681	0.632	0.552	0.547	0.538	0.455	0.330	0.273	0.324	0.302	0.249	0.269	0.297	0.301	0.280	0.296	0.218	0.299	0.283	0.207	0.238	0.405	0.754	1.258	1.845	2.090	1.650	0.914	1.162	2.871	6.950	14.94	29.90	44.17	42.24	45.22	14.37	5.160	0.473	0.201	0.169	0.122	0.115	0.134	0.152	0.119	0.133
275.0	69.52	68.27	53.39	34.83	70.56	212.2	542.6	329.4	641.2	1935	7549	9999.9	1034	32.41	8.361	6.561	4.109	3.483	2.652	2.325	2.289	1.582	1.507	1.329	1.230	1.157	1.094	1.032	0.942	0.837	0.969	0.677	0.655	0.633	0.648	0.501	0.474	0.328	0.415	0.340	0.388	0.277	0.378	0.293	0.267	0.353	0.337	0.300	0.264	0.245	0.251	0.318	0.343	0.518	0.665	1.147	2.500	3.091	1.928	1.164	1.901	3.592	7.016	10.57	14.91	40.46	74.73	76.59	23.22	5.565	0.414	0.206	0.219	0.168	0.161	0.168	0.126
280.0	128.7	124.3	94.11	52.84	47.42	89.17	372.2	586.4	278.8	506.1	2246	9999.9	9285	140.1	16.27	8.304	5.959	4.477	3.025	2.515	2.192	1.914	1.557	1.480	1.462	1.231	1.219	1.061	0.947	0.795	0.883	0.750	0.727	0.754	0.661	0.612	0.653	0.482	0.455	0.422	0.424	0.414	0.384	0.329	0.389	0.452	0.446	0.563	0.423	0.337	0.343	0.355	0.318	0.315	0.419	0.523	1.121	2.724	3.660	2.696	1.268	1.183	1.991	2.780	3.842	10.39	28.02	64.40	89.58	32.21	18.15	2.275	0.299	0.275	0.227	0.149	0.167
285.0	184.6	180.9	146.6	85.83	62.92	68.45	173.0	594.6	334.6	235.1	612.7	3424	9999.9	7095	102.4	12.10	7.960	5.314	4.022	3.191	2.772	2.020	1.929	1.491	1.560	1.414	1.224	0.927	1.028	0.817	0.827	0.822	0.720	0.774	0.671	0.851	0.810	0.643	0.547	0.520	0.467	0.527	0.489	0.565	0.447	0.548	0.623	0.643	0.512	0.519	0.451	0.390	0.400	0.332	0.410	0.454	0.619	1.089	2.333	3.749	3.478	1.890	1.198	1.222	1.597	3.104	6.960	17.21	40.58	74.06	96.34	29.30	11.91	0.932	0.281	0.210	0.242
290.0	261.8	284.7	230.8	134.8	92.18	85.72	114.9	281.3	587.9	515.1	351.5	947.1	3446	9986	9376	424.9	26.39	8.457	5.494	4.160	3.247	2.689	2.327	1.991	1.696	1.494	1.436	1.317	1.174	0.946	0.820	0.897	0.787	0.833	0.973	0.909	0.878	0.784	0.673	0.669	0.569	0.636	0.584	0.645	0.683	0.901	0.790	0.924	0.812	0.695	0.567	0.489	0.541	0.430	0.432	0.454	0.553	0.729	1.073	1.594	2.622	3.683	3.924	2.907	1.677	1.705	2.561	4.760	10.16	19.77	40.37	56.23	75.44	62.35	19.67	9.735	1.384
295.0	329.4	382.9	305.8	187.4	122.3	113.3	131.5	181.8	311.8	765.6	698.4	470.4	959.7	2507	8074	9999.9	616.3	23.01	8.536	5.622	4.192	3.469	2.925	2.290	1.735	1.578	1.591	1.322	1.197	1.157	0.933	0.909	0.892	1.064	1.091	1.132	0.960	0.908	0.757	0.695	0.662	0.664	0.761	0.733	0.898	1.173	1.130	1.193	1.016	0.899	0.714	0.619	0.684	0.601	0.646	0.611	0.624	0.687	0.826	1.042	1.348	1.787	2.637	4.727	5.053	3.126	2.001	2.355	3.456	5.619	9.927	13.42	19.72	36.62	79.98	104.6	31.86
300.0	382.1	446.9	364.7	223.8	149.5	139.4	148.4	178.2	250.7	524.8	1029	606.4	457.7	717.1	2316	9999.9	9999.9	84.53	14.32	8.185	5.807	4.402	3.450	2.539	2.207	1.963	2.086	1.382	1.151	1.340	1.129	1.041	1.216	1.089	1.147	1.203	1.108	1.004	0.837	0.847	0.670	0.822	0.925	0.853	1.115	1.216	1.229	1.297	1.152	1.051	0.826	0.852	0.696	0.725	0.644	0.699	0.730	0.716	0.929	0.861	1.152	1.296	1.833	2.961	4.931	5.588	4.316	2.529	2.259	2.380	3.333	3.870	5.194	9.271	25.00	60.46	97.24
305.0	436.0	482.0	414.8	260.6	175.8	169.8	191.4	222.1	286.9	431.2	860.2	1041	481.6	377.8	663.0	3360	9999.9	4773	68.44	11.64	7.310	5.277	3.986	3.167	2.576	2.115	1.965	1.606	1.447	1.294	1.078	0.905	1.078	1.042	1.148	1.174	1.149	1.052	1.026	0.847	0.845	0.767	1.014	0.892	1.121	1.172	1.236	1.427	1.290	1.087	1.056	0.914	0.857	0.797	0.742	0.854	0.872	1.071	1.069	1.136	1.292	1.435	1.756	2.275	3.164	4.306	5.709	5.435	3.335	2.496	2.139	1.936	2.328	3.091	6.476	15.09	35.31
310.0	456.0	508.4	458.0	290.9	201.1	195.5	224.9	267.2	333.9	441.3	637.8	959.0	888.0	446.2	339.7	878.1	3446	9420	8168	1382	21.29	7.839	5.219	3.985	3.227	2.713	2.252	1.874	1.681	1.545	1.221	1.052	1.167	1.180	1.249	1.280	1.175	1.106	0.986	0.995	0.930	0.915	0.888	0.974	1.105	1.332	1.364	1.511	1.417	1.150	1.085	1.023	1.103	0.943	0.910	0.958	1.028	1.169	1.406	1.479	1.466	1.841	2.047	2.147	2.637	3.106	4.050	4.695	5.164	4.860	3.576	2.570	2.041	1.968	2.506	4.339	8.790
315.0	505.4	569.5	489.1	315.4	231.0	221.4	258.9	309.4	375.8	476.2	605.7	716.4	871.8	819.0	359.8	355.0	884.3	2339	7615	9999.9	469.9	20.26	8.486	5.523	4.148	3.082	2.746	2.098	1.877	1.619	1.465	1.278	1.196	1.351	1.263	1.407	1.260	1.236	1.032	1.092	0.904	1.003	1.065	1.256	1.190	1.456	1.593	1.622	1.523	1.241	1.105	1.245	1.108	0.955	0.904	1.170	1.157	1.466	1.531	1.633	1.613	2.059	2.234	2.269	2.610	2.765	3.248	3.481	3.774	4.481	5.463	5.064	3.278	2.157	1.858	1.962	3.134
320.0	618.0	767.0	631.2	387.1	267.6	239.9	285.9	336.5	414.6	524.3	640.1	710.3	735.1	922.7	605.4	297.7	349.3	616.9	2161	9821	9455	372.7	14.16	7.397	4.929	3.771	2.770	2.533	2.005	1.757	1.670	1.281	1.294	1.116	1.298	1.321	1.263	1.244	1.071	1.113	0.966	1.013	1.186	1.203	1.419	1.779	1.991	2.162	1.930	1.417	1.235	1.287	1.212	1.195	1.069	1.216	1.374	1.445	1.505	1.611	1.845	2.230	2.290	2.695	3.114	2.996	3.134	3.378	3.629	3.715	4.422	5.266	5.299	3.777	2.590	1.931	1.847
325.0	790.9	1064	939.7	571.6	355.7	295.3	313.0	371.1	459.0	572.7	696.7	757.8	730.4	777.8	831.3	418.3	262.3	255.3	556.8	3166	9999.9	3818	57.29	10.45	6.595	4.714	3.393	3.117	2.391	1.912	1.615	1.603	1.245	1.169	1.430	1.265	1.361	1.214	1.102	1.079	1.035	1.106	1.238	1.437	1.799	2.303	2.531	2.861	2.601	2.082	1.952	1.879	1.569	1.277	1.377	1.376	1.506	1.710	1.704	2.066	2.165	2.343	2.470	2.956	3.163	3.065	3.603	3.709	3.560	3.921	3.897	4.205	5.098	5.640	4.879	2.710	2.273
330.0	1069	1468	1401	984.2	587.7	421.3	382.7	435.9	526.1	648.6	781.8	842.2	809.8	752.2	751.0	682.8	398.2	229.3	237.8	799.7	3219	7721	7186	1308	21.25	7.171	4.801	3.836	2.886	2.435	1.899	1.865	1.570	1.467	1.474	1.324	1.361	1.324	1.218	1.286	1.182	1.369	1.594	1.816	2.311	3.002	3.460	4.087	3.766	3.437	3.065	3.187	2.363	2.093	1.836	1.762	1.844	2.088	2.117	2.181	2.564	2.813	3.076	3.214	3.549	3.686	3.929	3.938	4.217	4.224	4.143	4.244	4.342	4.477	4.910	4.662	4.141
335.0	1237	1758	1777	1413	905.2	578.1	483.5	514.7	587.6	715.1	845.6	924.2	900.3	823.7	711.2	657.4	651.3	353.3	228.3	321.9	831.8	1942	6438	9999.9	413.3	22.95	7.257	5.045	3.584	3.175	2.323	2.334	1.814	1.794	1.594	1.449	1.692	1.407	1.290	1.253	1.314	1.553	1.716	2.196	2.642	3.689	4.161	4.840	4.962	4.663	4.240	4.435	3.538	3.032	2.449	2.247	2.358	2.226	2.380	2.503	2.879	2.981	3.529	3.405	3.779	4.052	4.378	4.471	4.566	4.560	4.494	4.480	4.488	4.494	4.484	4.135	4.289
340.0	1402	1904	2006	1595	1057	676.7	543.0	553.9	627.3	747.1	881.6	957.2	944.5	861.8	738.5	613.8	645.0	535.6	283.4	249.7	333.2	555.6	1858	8651	9035	361.2	13.77	6.806	4.567	3.819	2.844	2.413	2.081	1.803	1.758	1.512	1.502	1.485	1.371	1.248	1.536	1.724	1.880	2.269	2.926	3.738	4.298	5.222	5.487	5.248	4.750	5.048	4.185	3.632	2.843	2.520	2.604	2.519	2.724	2.697	2.931	2.993	3.642	3.937	4.051	4.373	4.421	4.490	4.853	4.906	4.909	4.863	4.818	4.581	4.161	3.916	3.924
345.0	1412	1927	2118	1710	1157	748.8	595.0	589.3	657.3	754.3	886.9	963.3	948.9	870.7	755.7	616.9	551.9	610.2	416.5	266.9	249.5	273.2	540.3	2728	9900	7248	51.91	10.44	5.527	4.352	3.229	2.746	2.238	1.916	1.753	1.574	1.619	1.511	1.463	1.376	1.357	1.677	1.824	2.267	2.821	3.897	4.497	5.456	5.762	5.327	5.167	5.255	4.441	3.965	3.447	2.782	2.803	2.661	3.012	3.021	3.027	3.231	3.466	3.731	3.842	4.136	4.591	4.702	4.855	4.897	4.925	4.792	4.975	4.615	4.117	3.834	3.716
350.0	1341	1868	2073	1763	1246	845.2	685.2	673.3	715.0	778.6	876.8	956.2	940.4	871.9	764.0	638.1	540.8	527.2	541.8	410.6	292.8	260.9	283.9	733.2	3002	7160	6089	1274	20.90	6.484	4.805	3.224	2.573	2.051	1.771	1.695	1.618	1.470	1.428	1.457	1.391	1.668	1.849	2.293	2.865	3.627	4.314	5.151	5.760	5.366	5.237	5.569	4.731	4.232	3.560	3.156	3.036	3.045	3.190	3.096	3.323	3.542	3.556	3.753	4.158	4.239	4.574	4.592	4.826	4.822	4.928	4.814	4.715	4.773	4.274	4.119	3.770
355.0	1255	1764	1950	1729	1267	910.1	754.4	743.6	759.6	781.4	865.1	924.7	916.9	860.9	774.9	663.1	571.9	513.1	502.2	557.1	425.1	315.3	276.8	325.3	784.8	1753	4882	9340	1933	25.66	7.182	4.289	3.302	2.527	2.182	1.901	1.758	1.686	1.495	1.458	1.467	1.654	1.721	2.244	2.746	3.367	4.103	5.060	5.340	5.332	4.789	5.526	5.016	4.449	3.749	3.234	3.332	3.506	3.674	3.407	3.809	3.818	3.839	3.982	4.344	4.151	4.568	4.628	4.465	4.618	4.758	4.911	4.660	4.584	4.519	4.245	4.258
360.0	1261	1666	1814	1657	1265	922.5	791.0	786.7	784.4	789.8	853.0	893.9	897.4	842.2	773.4	670.2	599.1	534.9	504.2	554.0	566.8	410.6	320.9	278.7	332.3	500.8	1352	6993	8895	365.5	17.73	6.254	3.855	3.032	2.471	2.120	1.754	1.646	1.614	1.457	1.469	1.672	1.741	2.093	2.460	3.386	3.806	4.580	4.926	5.027	4.665	5.485	5.148	4.784	3.822	3.589	3.435	3.734	3.738	3.575	3.747	3.989	3.875	4.227	3.940	4.178	4.165	4.472	4.489	4.659	4.756	4.867	4.451	4.550	4.308	4.319	4.314
365.0	1175	1625	1792	1634	1265	962.8	842.7	826.6	808.5	803.3	851.9	865.0	877.8	830.2	761.8	683.3	626.9	579.1	549.2	549.0	613.8	544.8	398.4	319.9	280.5	265.1	405.9	2071	8424	7610	299.8	10.55	5.247	3.636	2.548	2.386	1.798	1.627	1.475	1.553	1.530	1.760	1.872	2.079	2.545	3.411	3.646	4.552	5.021	4.922	4.781	5.659	5.081	4.537	4.048	3.768	3.867	3.907	3.786	3.864	4.200	4.097	4.036	4.196	3.962	4.004	4.152	4.331	4.327	4.674	4.759	4.411	4.430	4.520	4.339	4.370	4.476
370.0	1147	1539	1747	1593	1310	1026	915.0	884.6	872.8	848.4	862.8	846.1	851.7	817.2	763.2	699.8	661.9	631.9	618.3	608.1	623.9	654.9	575.2	433.5	350.1	285.4	256.6	581.4	2445	6495	5838	1298	20.89	5.822	3.474	2.847	2.147	2.032	1.819	1.559	1.656	1.727	1.832	2.144	2.527	3.207	3.513	4.372	4.689	4.666	4.674	5.417	5.031	4.554	4.036	3.839	4.042	4.130	4.097	4.175	4.357	4.302	3.979	4.299	4.255	4.240	4.133	3.990	4.256	4.468	4.480	4.506	4.549	4.583	4.283	4.465	4.613
375.0	1088	1445	1657	1564	1288	1046	949.7	928.0	913.7	861.0	852.3	835.7	828.7	797.9	751.0	709.0	685.1	674.3	671.4	667.7	665.1	668.7	688.0	592.8	444.9	354.1	282.3	298.4	662.6	1570	4151	8864	1998	25.87	5.574	3.732	2.952	2.224	2.016	1.946	1.748	1.842	2.082	2.106	2.480	3.136	3.283	4.193	4.580	4.297	4.476	5.049	4.819	4.703	4.333	3.879	4.169	4.215	4.406	4.217	4.398	4.477	4.211	4.113	4.181	4.104	3.991	3.962	4.252	4.308	4.445	4.536	4.514	4.731	4.474	4.309	4.509
380.0	1058	1372	1591	1493	1258	1055	956.6	933.5	905.3	860.7	837.9	809.1	814.2	781.1	743.9	703.9	691.7	683.2	694.3	697.9	695.5	688.0	691.4	684.1	536.9	411.9	324.4	272.8	295.3	448.9	1121	6005	8068	320.5	16.08	5.220	3.701	2.723	2.245	2.048	1.823	1.919	1.815	2.379	2.437	2.874	3.169	4.013	4.358	4.251	4.302	4.968	4.825	4.711	4.359	4.062	4.017	4.478	4.248	4.421	4.427	4.322	4.179	4.209	4.137	4.022	4.158	3.795	4.338	4.032	4.321	4.398	4.373	4.363	4.303	4.564	4.622
385.0	1013	1347	1515	1437	1233	1052	974.3	945.0	918.1	869.9	847.8	816.3	808.6	787.5	749.1	711.7	692.9	692.0	712.0	718.6	724.8	714.7	694.8	703.8	645.4	476.8	374.4	303.1	249.7	227.8	334.3	1711	6764	6293	260.8	9.474	4.742	3.109	2.468	2.122	2.084	2.149	1.985	2.202	2.246	2.520	3.442	3.879	4.207	4.107	4.170	4.803	4.722	4.382	4.250	4.231	4.286	4.202	4.467	4.679	4.246	4.403	4.334	4.149	4.143	3.834	3.945	3.916	3.983	4.186	4.383	4.353	4.392	4.447	4.476	4.445	4.657
390.0	1005	1292	1456	1433	1266	1105	1035	1008	981.7	949.8	923.2	888.6	872.6	845.1	793.5	745.5	717.4	720.7	741.9	763.0	774.8	778.2	755.8	728.7	712.9	625.4	482.2	380.5	302.6	231.3	198.9	463.7	1865	4822	4294	1051	18.65	5.036	3.532	2.609	2.214	2.126	2.241	2.225	2.369	3.001	3.149	3.701	4.102	3.989	4.055	4.784	4.705	4.484	4.379	4.128	4.604	4.480	4.666	4.619	4.709	4.475	4.598	4.295	4.389	4.163	3.965	3.890	4.100	4.320	4.389	4.261	4.366	4.499	4.590	4.538	4.629
395.0	1008	1269	1454	1455	1291	1167	1149	1121	1112	1123	1104	1080	1056	998.8	916.7	827.2	771.8	772.4	790.6	820.5	848.4	861.5	847.6	817.3	770.7	737.4	642.4	494.0	392.0	297.4	223.2	225.6	494.3	1148	2770	6339	1697	23.61	5.455	3.276	2.792	2.317	2.260	2.354	2.545	2.869	3.393	3.480	3.998	4.046	4.101	4.960	4.643	4.767	4.829	4.436	4.848	5.116	5.143	4.581	4.935	4.819	4.804	4.842	4.482	4.624	4.437	4.358	4.476	4.540	4.978	4.508	4.609	4.789	4.697	4.730	4.880
400.0	994.4	1265	1458	1442	1354	1260	1239	1251	1281	1300	1333	1330	1287	1215	1067	933.6	838.3	821.4	847.5	879.7	915.0	940.0	942.5	910.8	857.1	800.5	749.5	611.3	474.3	366.9	273.6	206.3	213.8	323.1	734.9	3968	5950	278.7	15.97	4.265	3.265	2.806	2.572	2.410	2.793	3.149	3.567	3.785	4.106	4.207	4.154	4.929	4.844	4.984	5.055	4.792	4.973	5.371	4.977	5.301	4.943	5.202	5.099	5.183	5.165	4.893	4.931	4.712	4.987	4.846	5.130	4.964	5.256	5.164	4.921	4.931	5.251
405.0	956.2	1257	1439	1449	1395	1343	1345	1379	1450	1523	1590	1603	1540	1434	1248	1054	916.0	878.7	897.6	938.9	985.0	1017	1029	1001	948.8	868.2	805.5	724.9	566.8	431.9	327.6	237.1	178.7	157.6	221.5	1092	4582	4835	240.8	8.816	3.948	2.968	2.779	2.535	2.988	3.129	3.468	3.682	4.134	4.092	4.264	4.936	4.860	5.128	4.938	5.008	5.562	5.285	5.099	5.471	5.497	5.425	5.533	5.487	5.519	5.489	5.475	5.465	5.603	5.777	5.629	5.782	5.739	5.726	5.197	5.221	5.465
410.0	979.5	1232	1411	1477	1451	1446	1453	1524	1628	1757	1865	1892	1804	1665	1433	1175	995.8	935.0	947.0	989.9	1049	1088	1105	1089	1033	946.5	851.6	780.2	679.6	517.9	388.5	282.6	202.0	145.7	126.7	297.3	1235	3445	3314	957.1	16.48	4.073	3.200	3.038	3.201	3.190	3.337	3.856	4.131	4.051	4.040	5.283	5.198	5.449	5.071	5.247	5.677	5.711	5.544	5.701	5.899	5.709	5.832	6.007	6.086	6.237	5.873	6.101	6.173	6.049	6.332	6.390	6.191	6.155	5.841	5.660	5.593
415.0	963.2	1186	1359	1438	1474	1478	1522	1586	1713	1883	1984	2028	1928	1769	1521	1220	1016	941.6	947.9	999.2	1061	1100	1130	1116	1061	975.0	874.4	782.5	709.4	594.8	436.9	316.9	226.5	161.5	119.1	130.3	317.7	810.3	1968	4599	1442	20.60	4.231	3.388	3.316	3.494	3.442	3.762	4.170	4.004	4.140	5.165	5.263	5.364	4.998	5.413	5.765	5.741	5.808	5.747	5.873	5.793	6.134	6.225	6.254	6.278	6.235	6.136	6.285	6.377	6.461	6.573	6.345	6.414	5.904	5.707	5.396
420.0	941.3	1178	1327	1384	1461	1487	1536	1612	1727	1898	2030	2048	1950	1786	1524	1219	1005	933.4	932.4	981.6	1040	1082	1105	1102	1054	971.7	868.9	777.3	691.2	615.2	478.7	339.2	241.1	173.3	125.4	99.03	118.2	210.7	504.6	2791	4384	254.8	13.56	4.144	3.794	3.415	3.340	3.849	4.013	4.016	3.925	5.059	4.919	5.076	5.308	5.294	5.829	5.970	5.646	5.938	6.055	5.846	6.076	6.166	6.416	6.210	6.274	6.014	6.349	6.190	6.499	6.679	6.141	6.025	5.698	5.396	5.528
425.0	920.0	1117	1266	1363	1410	1485	1554	1642	1730	1887	2022	2057	1953	1781	1530	1209	995.5	912.3	911.8	951.3	1010	1053	1083	1079	1034	958.2	862.4	766.6	673.1	597.6	507.2	366.6	253.5	186.3	136.1	100.2	79.35	81.34	135.5	751.1	3252	3576	218.7	7.433	4.062	3.644	3.268	3.772	3.947	3.742	3.948	4.766	5.284	4.869	5.186	5.556	5.688	6.016	5.860	5.825	6.204	5.873	6.184	6.405	6.019	6.237	6.099	6.266	6.416	6.280	6.329	6.363	6.254	6.146	5.874	5.530	5.092
430.0	987.0	1074	1220	1344	1435	1528	1596	1676	1762	1904	2024	2070	1964	1786	1522	1207	983.7	901.1	896.1	927.7	977.2	1018	1049	1046	1002	936.3	848.8	756.3	667.3	575.1	497.9	405.5	284.0	203.7	150.6	111.4	80.98	60.99	58.53	186.9	861.7	2518	2727	850.8	15.17	4.714	3.762	3.813	3.950	3.749	3.890	4.774	5.205	5.210	5.295	5.542	5.947	6.225	6.179	6.037	6.181	5.944	6.160	6.417	6.042	6.161	6.082	6.267	6.180	6.519	6.290	6.503	6.146	6.065	5.750	5.367	5.209
435.0	1300	1079	1183	1316	1439	1563	1659	1738	1799	1907	2013	2026	1940	1765	1503	1199	968.9	879.2	879.2	900.6	935.6	977.3	1006	1006	972.5	903.4	820.8	737.8	649.4	565.5	477.0	401.9	322.0	225.5	163.7	124.9	91.05	63.83	48.65	65.14	209.0	585.1	1585	3910	1291	19.30	4.497	4.362	4.284	3.699	3.883	4.895	5.125	4.982	5.619	5.792	6.061	6.404	6.739	6.264	6.209	5.988	6.010	6.067	5.915	6.069	5.944	6.190	5.942	6.107	6.333	6.592	5.975	6.142	5.425	5.126	4.914
440.0	1657	1136	1179	1290	1416	1556	1684	1747	1793	1855	1949	1972	1883	1705	1452	1157	943.1	853.9	845.3	870.7	894.8	930.7	960.6	962.1	927.2	863.4	786.9	711.3	632.8	551.5	462.7	383.9	328.1	249.1	176.4	131.8	97.72	69.34	50.02	42.92	65.98	144.9	407.5	2498	3855	232.1	11.71	4.719	4.368	3.798	3.891	4.893	4.877	5.292	5.687	5.945	6.589	6.649	6.553	6.875	6.059	6.050	5.967	5.788	5.830	5.744	6.146	5.985	5.414	5.807	6.119	5.914	5.723	5.909	5.476	4.979	4.961
445.0	1712	1441	1115	1260	1392	1547	1669	1738	1739	1773	1846	1871	1777	1622	1377	1102	904.6	820.5	814.4	826.7	842.9	872.8	893.9	903.0	869.8	815.9	742.9	673.1	605.1	529.3	447.8	369.3	312.4	262.7	191.2	138.1	104.2	74.93	55.18	40.43	37.31	48.78	104.1	685.8	3045	3182	177.6	7.636	4.464	4.118	3.974	4.840	5.002	5.293	5.800	5.936	6.567	6.565	6.532	6.652	6.013	6.227	5.689	5.807	6.037	5.847	5.751	5.550	5.317	5.691	5.853	5.871	5.535	5.372	4.975	4.646	4.791
450.0	1304	2031	1214	1180	1323	1508	1626	1652	1640	1633	1673	1687	1598	1457	1249	1011	831.0	757.3	744.6	749.6	759.5	781.6	797.0	804.2	780.6	732.9	673.1	612.6	555.0	492.6	419.0	347.9	284.8	244.7	204.2	150.7	109.2	79.62	60.01	44.34	34.83	30.18	38.16	164.7	818.8	2332	2410	739.8	13.40	4.520	4.194	4.912	4.854	5.330	5.603	5.860	6.389	6.140	6.476	6.133	6.020	5.811	5.360	5.323	5.517	5.284	5.174	5.283	4.947	5.358	5.150	5.151	5.243	5.035	4.617	4.681	4.444
455.0	824.1	2092	1875	1109	1266	1401	1542	1568	1512	1473	1491	1497	1409	1283	1107	900.2	750.6	681.0	669.7	668.6	665.8	680.1	697.6	705.7	685.1	645.8	599.0	544.1	495.9	445.8	388.7	323.2	264.3	221.6	194.0	164.6	118.3	83.98	63.94	48.12	37.53	29.62	25.72	50.09	192.8	541.4	1359	3207	1005	14.90	4.430	4.917	5.058	5.052	5.421	5.203	6.063	6.074	5.853	5.959	5.385	5.297	5.086	4.789	4.735	4.631	4.722	4.584	4.741	4.719	4.655	4.912	4.955	4.544	4.278	3.939	4.085
460.0	651.4	1558	2565	1192	1184	1335	1475	1476	1411	1353	1359	1350	1287	1164	1008	829.1	687.9	624.3	616.1	602.9	599.8	615.2	626.0	629.7	615.0	579.9	543.7	497.8	456.8	412.1	358.0	302.1	250.2	208.0	177.8	161.5	127.3	87.98	66.92	50.21	40.14	30.73	24.96	26.29	54.41	130.3	342.6	1966	2970	173.7	10.57	5.148	5.112	5.223	5.087	5.162	5.548	5.961	6.120	5.961	5.461	5.099	4.741	4.672	4.501	4.287	4.346	4.209	4.342	4.210	4.324	4.296	4.309	4.505	3.922	3.903	3.954
465.0	611.7	1046	2626	1600	1088	1254	1385	1373	1298	1233	1232	1222	1164	1065	914.6	753.1	629.4	575.8	559.9	551.9	542.1	555.4	567.1	566.5	556.0	526.2	488.0	451.3	417.9	379.9	330.7	283.7	236.0	197.2	164.6	149.6	131.9	94.04	67.52	51.85	41.53	31.81	25.82	21.74	25.28	39.56	85.74	531.4	2370	2306	148.4	7.585	5.111	5.082	4.974	4.962	5.640	5.962	5.598	5.330	5.061	4.943	4.737	4.230	4.076	4.102	3.966	3.984	3.980	4.085	3.935	3.986	3.774	3.903	3.818	3.693	3.586
470.0	583.8	734.5	1756	2454	1171	1136	1237	1235	1151	1079	1060	1063	1007	920.6	792.9	656.7	550.8	505.0	490.3	480.4	467.1	474.1	484.6	486.0	476.9	450.8	419.2	392.5	363.4	332.7	294.6	254.1	212.9	180.9	151.7	131.3	116.4	99.96	72.31	52.74	42.13	33.48	27.10	22.64	19.87	20.61	29.13	127.1	635.8	1664	1684	642.0	13.67	5.286	4.828	4.771	5.179	5.544	5.050	4.952	4.708	4.280	3.908	3.772	3.509	3.534	3.450	3.453	3.412	3.681	3.405	3.482	3.427	3.271	3.252	3.154	3.203
475.0	552.3	620.4	924.6	2449	1868	1012	1091	1085	995.7	921.4	898.6	909.3	850.5	777.8	669.5	553.3	473.2	431.5	421.5	406.8	394.3	394.7	404.0	405.3	395.5	379.5	353.3	331.9	310.1	288.0	256.0	223.3	189.7	162.3	137.4	116.8	100.3	90.34	79.02	56.98	43.15	34.14	28.54	23.74	20.03	17.39	16.66	37.40	149.0	383.3	863.2	2136	792.6	16.68	4.961	4.423	4.940	4.983	4.789	4.736	4.168	3.937	3.409	3.310	3.211	2.924	2.976	2.918	3.123	3.080	3.040	3.088	2.988	2.997	2.859	2.768	2.707
480.0	552.6	596.2	666.6	1701	2601	1054	985.9	981.2	899.5	815.7	801.6	792.2	752.1	688.2	584.2	492.4	421.2	386.8	373.9	360.8	348.3	344.6	349.2	353.3	345.3	332.6	312.4	291.9	274.5	257.1	232.0	202.0	172.8	147.3	126.6	107.8	93.21	79.33	76.83	62.02	44.58	34.81	29.09	24.48	20.40	17.37	14.56	17.68	41.36	92.35	214.4	1186	2136	202.1	11.36	4.654	4.931	4.592	4.210	4.214	3.740	3.366	3.128	2.871	2.894	2.643	2.715	2.694	2.626	2.777	2.595	2.628	2.636	2.745	2.301	2.626	2.512
485.0	461.2	580.6	560.3	996.0	2804	1464	906.8	888.0	814.1	738.1	717.6	702.9	664.6	608.8	524.2	437.0	378.5	344.9	334.4	322.0	311.6	306.2	313.5	316.0	308.4	293.0	278.6	263.0	249.1	230.0	212.2	184.8	159.0	138.3	118.0	101.7	87.21	74.23	69.91	65.31	47.83	35.09	29.72	25.03	21.34	18.28	15.56	14.16	17.88	27.82	54.44	315.8	1599	1645	165.2	7.030	5.036	4.379	4.309	4.035	3.549	3.292	2.934	2.765	2.686	2.459	2.350	2.443	2.379	2.493	2.538	2.423	2.557	2.258	2.298	2.268	2.320
490.0	368.6	549.6	512.6	645.0	1840	2460	975.4	790.3	703.9	640.5	622.4	608.6	575.3	525.7	456.3	380.6	328.8	303.7	290.7	280.8	267.5	266.1	269.7	272.6	266.2	253.9	242.8	227.5	216.0	202.7	185.8	165.1	144.6	125.3	108.1	93.71	80.94	67.98	60.56	59.17	53.34	39.97	30.40	25.90	22.43	19.55	17.33	14.87	13.66	14.44	19.52	77.29	420.8	1153	1597	637.1	15.25	4.590	4.140	3.686	3.351	2.909	2.723	2.611	2.460	2.099	2.170	2.159	2.280	2.292	2.181	2.175	2.186	2.140	1.874	1.960	2.085
495.0	293.5	456.3	506.5	508.9	886.5	2571	1666	688.7	608.9	553.9	535.3	519.4	491.2	445.2	392.0	326.7	280.4	260.0	250.2	240.3	229.6	224.9	228.9	231.8	227.5	218.5	208.2	194.9	188.4	176.6	161.6	144.8	127.2	111.9	98.12	85.62	74.88	62.10	55.40	50.13	50.19	44.67	33.98	26.09	23.31	20.86	18.66	16.55	14.24	12.86	12.65	24.82	100.4	266.4	797.0	2011	896.1	18.92	4.562	3.563	3.206	2.817	2.433	2.221	2.092	1.994	1.926	1.851	1.896	1.955	1.875	1.959	2.028	1.687	1.680	1.866	1.775
500.0	286.0	379.5	498.1	435.4	569.2	1777	2546	724.4	549.2	486.6	462.0	459.7	441.2	392.4	336.8	290.2	249.2	232.1	220.7	211.8	201.1	196.0	198.2	200.5	201.7	193.9	181.3	172.9	164.6	156.1	143.9	130.1	115.4	101.4	89.79	78.82	67.94	58.68	52.01	46.97	43.05	44.89	38.19	27.29	24.10	21.68	20.01	17.49	15.27	13.10	12.10	13.71	29.97	66.21	197.9	1077	1979	221.9	12.87	3.841	3.131	2.664	2.292	2.156	1.936	1.850	1.685	1.642	1.709	1.821	1.743	1.663	1.688	1.630	1.618	1.576	1.776
505.0	270.3	332.9	456.9	409.8	455.4	972.3	2894	1099	497.8	440.6	425.0	408.4	384.2	350.6	299.9	256.5	224.3	204.9	193.7	187.4	175.4	172.7	173.6	175.8	177.7	169.2	160.9	152.2	144.7	139.6	128.0	116.3	103.4	91.51	81.28	71.60	63.34	55.07	48.69	42.77	39.07	39.78	39.67	29.90	24.15	21.56	19.72	17.34	15.87	14.31	12.88	11.61	14.84	22.05	50.68	280.6	1364	1727	187.2	6.978	3.303	2.706	2.132	2.062	1.810	1.669	1.569	1.563	1.622	1.614	1.545	1.477	1.508	1.420	1.616	1.415	1.393
510.0	223.9	269.0	366.1	420.0	390.7	536.3	1906	2272	556.4	373.6	358.1	351.1	328.0	296.7	251.2	216.2	191.1	173.7	164.5	157.5	148.2	145.4	145.8	147.8	149.2	143.4	135.6	128.5	123.2	118.1	110.7	100.7	90.63	80.69	71.95	63.37	56.28	49.17	43.84	39.27	34.96	33.21	35.35	33.37	26.37	21.66	19.65	17.59	16.07	14.69	13.65	12.04	11.87	12.64	18.50	69.20	352.4	1042	1395	541.8	14.51	2.991	2.202	1.891	1.681	1.531	1.377	1.435	1.472	1.285	1.363	1.377	1.289	1.305	1.307	1.304	1.246
515.0	182.9	231.2	272.8	377.3	353.1	385.6	793.5	2700	1251	327.1	300.3	292.7	278.8	247.0	212.6	179.4	156.3	145.1	136.2	131.2	122.3	120.1	122.2	121.5	122.2	117.5	112.8	107.0	103.8	98.50	94.32	85.41	76.19	68.66	61.43	55.18	49.20	43.73	39.38	35.42	31.38	29.50	28.70	31.12	29.37	22.90	19.83	17.41	16.67	15.43	13.91	13.41	11.60	11.03	11.56	22.52	85.47	240.1	593.8	1532	732.6	18.55	2.636	1.948	1.575	1.483	1.350	1.358	1.177	1.214	1.165	1.167	1.123	1.275	1.194	1.098	1.113
520.0	164.0	189.9	226.7	327.4	353.0	313.1	430.4	1866	2280	377.4	262.5	255.5	243.0	211.3	181.9	158.3	135.5	124.2	118.4	111.5	106.1	104.5	104.4	105.9	106.5	101.6	97.22	92.16	91.23	86.24	80.72	75.33	66.91	61.08	54.05	48.92	43.99	38.99	36.22	32.81	29.15	27.21	24.66	26.71	29.63	24.48	20.43	17.78	16.15	15.08	13.61	13.27	12.05	10.69	10.64	12.43	25.88	59.91	144.6	763.1	1508	227.3	13.68	2.098	1.614	1.420	1.385	1.387	1.214	1.131	1.127	1.101	0.972	1.072	1.092	0.827	1.041
525.0	139.5	167.6	205.8	258.2	352.1	281.6	310.4	885.2	2994	764.8	236.0	223.3	209.3	186.5	164.6	136.8	118.6	108.7	103.6	97.27	93.03	90.32	91.22	91.53	93.61	88.08	85.30	82.98	78.42	77.10	71.65	65.80	60.12	54.61	48.84	43.85	39.99	36.23	33.56	30.69	26.36	24.95	23.79	22.79	26.03	25.58	20.93	17.39	15.52	14.90	13.38	13.06	12.19	10.72	9.795	10.13	12.29	19.51	37.42	192.9	897.1	1286	197.7	6.389	1.845	1.477	1.246	1.105	1.151	1.000	1.089	0.998	0.987	0.974	0.839	0.893	0.826
530.0	126.8	144.1	173.1	194.8	306.6	284.9	250.8	388.8	1974	2208	323.2	192.7	176.9	157.0	136.6	115.6	100.8	90.33	87.39	81.83	76.19	74.97	75.91	78.21	77.58	75.11	71.48	68.85	67.11	65.57	60.48	56.97	51.18	45.73	41.82	38.63	34.24	31.99	28.89	26.69	23.78	22.42	20.85	19.70	20.97	22.76	22.03	17.51	14.90	13.97	12.71	12.03	11.15	10.78	9.849	9.156	9.206	10.29	13.39	47.35	224.5	681.1	1014	446.9	14.46	1.639	1.337	1.172	1.010	0.971	0.808	0.838	0.843	0.811	0.781	0.747	0.721
535.0	108.9	117.9	136.0	151.5	217.3	281.2	210.9	235.4	681.2	2864	1085	167.1	147.8	130.8	113.6	94.61	82.38	75.57	71.77	66.46	61.74	60.12	62.11	64.17	63.05	61.76	58.64	55.92	54.65	53.65	50.29	46.43	42.67	38.52	34.91	32.47	30.21	27.62	24.85	23.30	21.22	20.10	18.82	17.45	17.65	18.24	19.94	18.46	14.81	13.03	11.75	11.05	10.53	9.624	9.862	8.715	7.854	7.830	7.652	14.39	53.57	155.7	364.0	1046	650.7	19.58	1.496	1.091	1.006	0.874	0.894	0.742	0.784	0.666	0.719	0.719	0.593
540.0	98.03	104.6	118.9	132.1	158.6	258.1	201.3	182.5	282.7	1853	2374	195.6	130.9	115.0	97.54	82.15	70.87	64.70	61.16	57.45	52.69	52.93	51.62	54.03	53.03	52.83	50.14	47.62	46.54	44.84	43.17	40.72	37.07	34.44	30.12	28.82	26.44	24.06	21.90	20.58	19.20	18.01	16.84	15.79	15.54	15.66	16.38	18.19	14.99	12.35	11.18	10.42	9.957	8.978	8.982	8.332	7.903	7.005	6.245	7.032	15.17	37.62	85.84	451.7	1116	235.4	13.17	1.500	0.896	0.833	0.771	0.709	0.730	0.660	0.603	0.632	0.546
545.0	84.78	91.13	102.8	111.6	127.4	208.2	212.6	153.3	170.0	748.1	3176	531.1	112.0	98.31	83.67	70.69	61.46	56.10	52.04	50.24	46.13	44.85	45.58	45.77	46.10	45.64	43.38	41.10	39.68	38.96	37.07	34.20	31.59	30.51	26.39	25.16	23.20	21.14	19.47	18.38	16.68	15.82	15.65	14.62	13.88	13.89	13.78	15.89	14.97	12.22	10.70	9.643	8.728	8.292	8.207	7.822	7.733	6.405	5.413	5.020	6.480	10.68	21.31	109.1	563.4	971.6	197.4	6.416	0.946	0.811	0.806	0.685	0.600	0.610	0.594	0.448	0.556
550.0	68.63	84.72	87.80	90.94	101.9	143.0	207.1	139.5	122.7	258.0	1923	1920	140.9	80.68	67.71	57.09	50.41	45.34	42.08	40.60	37.81	36.42	37.36	37.82	36.75	37.12	34.64	33.47	32.35	31.91	30.31	28.17	25.72	24.54	21.95	20.84	19.29	17.42	16.31	15.36	14.17	13.52	13.09	12.40	11.95	11.61	11.43	11.99	13.14	12.08	9.922	8.446	7.615	7.211	7.149	6.893	6.743	5.985	5.029	4.229	4.154	4.637	6.714	25.99	134.7	442.3	657.1	323.0	15.32	1.162	0.767	0.667	0.530	0.571	0.527	0.448	0.412
555.0	65.12	68.90	74.23	70.77	83.59	94.40	167.7	151.2	97.35	125.9	562.5	2665	721.5	67.81	53.23	45.06	39.96	35.53	33.70	30.47	29.29	28.60	28.99	29.97	29.03	29.35	26.20	26.50	25.23	24.77	23.80	22.39	20.77	19.62	17.66	16.82	15.15	14.42	13.38	12.69	11.73	11.02	10.62	10.22	10.38	9.411	9.280	9.276	10.05	10.83	9.605	7.764	6.482	6.328	5.947	5.458	5.416	5.813	4.728	3.739	3.154	3.040	3.286	7.235	31.25	99.84	204.5	595.2	474.5	21.54	1.021	0.603	0.640	0.491	0.377	0.383	0.302
560.0	46.45	56.54	59.99	62.46	68.52	73.94	115.6	166.4	84.23	86.77	187.7	1710	1822	89.33	43.99	37.49	33.94	29.00	27.20	25.67	23.72	23.71	23.63	23.80	24.34	23.98	21.77	21.52	20.68	20.10	19.83	18.98	16.84	16.12	14.80	13.82	12.94	11.99	11.51	10.55	10.04	9.293	8.744	8.578	8.881	8.480	7.983	7.606	7.926	8.831	9.073	7.676	5.786	5.119	5.327	4.672	4.627	4.632	4.289	3.392	2.784	2.404	2.326	2.870	8.105	23.36	47.05	221.9	649.7	235.3	14.93	0.803	0.563	0.510	0.352	0.316	0.349
565.0	49.91	53.97	56.01	56.17	55.79	60.35	81.87	157.4	88.94	68.45	94.83	642.7	2541	154.1	39.78	31.33	28.97	24.62	23.59	22.08	20.68	19.75	20.27	20.10	20.20	19.68	18.64	18.43	17.30	17.43	16.67	15.01	14.45	13.34	12.86	11.36	11.01	9.751	9.525	9.097	8.590	8.055	7.518	7.452	7.580	7.207	7.069	6.541	6.372	6.836	7.682	7.366	5.514	4.868	4.587	4.261	3.979	3.989	3.811	3.541	2.718	2.202	1.764	1.876	2.859	6.231	11.44	52.12	279.3	567.5	189.0	6.950	0.681	0.438	0.342	0.351	0.308
570.0	47.69	55.47	51.99	46.17	46.32	50.60	59.14	112.1	116.6	60.91	65.73	196.6	1583	1369	67.86	25.33	22.88	19.82	19.20	17.11	16.32	16.01	15.89	16.01	15.98	15.41	14.68	14.41	13.85	13.77	12.87	12.13	11.31	10.47	9.827	9.348	8.714	8.399	7.832	7.459	6.758	6.558	6.286	6.180	6.007	5.663	5.689	5.477	5.201	5.228	5.495	6.162	5.193	4.260	3.679	3.779	3.266	3.223	3.090	2.957	2.634	1.995	1.618	1.405	1.600	2.354	3.447	12.39	65.21	220.8	383.7	210.9	15.49	0.682	0.373	0.327	0.296
575.0	48.13	55.34	49.33	41.77	37.03	43.45	46.21	65.99	131.9	68.39	52.65	82.77	449.9	2027	470.3	21.36	18.16	16.07	15.23	13.35	12.54	12.23	12.26	12.56	11.83	12.04	11.14	11.25	10.97	10.32	10.42	9.649	8.938	8.467	8.043	7.080	6.610	6.657	5.924	5.712	5.681	5.137	5.192	5.098	4.741	4.553	4.853	4.220	4.271	4.020	3.995	4.304	4.786	4.114	3.193	3.248	2.833	2.478	2.498	2.317	2.204	2.057	1.738	1.184	1.203	1.307	1.559	3.431	15.12	49.78	106.5	316.5	245.9	21.72	0.488	0.290	0.282
580.0	48.80	54.17	42.34	41.00	34.15	33.42	38.49	45.70	110.7	88.66	48.75	54.92	135.3	1320	999.4	35.86	15.28	13.73	12.36	11.24	10.79	10.28	9.997	10.20	10.25	10.10	9.336	9.135	8.771	9.010	8.518	7.917	7.440	6.968	6.627	6.074	5.644	5.499	5.070	4.818	4.587	4.498	4.432	4.087	4.037	4.053	4.227	3.552	3.633	3.305	3.256	3.258	3.968	4.008	3.352	2.727	2.478	2.166	2.133	1.899	1.846	1.881	1.794	1.188	1.056	1.082	0.956	1.301	4.007	11.68	24.47	107.4	347.4	211.7	14.05	0.443	0.267
585.0	46.68	44.75	37.95	33.35	30.02	31.43	33.66	34.95	73.00	105.7	48.19	46.20	58.70	494.4	1845	100.6	13.31	11.50	10.47	9.545	9.348	8.937	7.966	8.694	8.444	8.517	8.091	7.411	7.552	7.632	7.315	7.023	6.092	5.852	5.380	5.244	4.815	4.511	4.157	3.974	3.778	3.928	3.739	3.443	3.535	3.476	3.531	3.114	2.938	3.023	2.741	2.722	2.989	3.386	2.953	2.669	2.119	1.954	1.807	1.757	1.530	1.560	1.554	1.348	0.929	0.936	0.865	0.865	1.447	3.142	5.827	24.82	134.9	336.8	156.0	6.227	0.358
590.0	44.97	43.92	38.13	30.45	27.88	26.36	29.71	29.94	44.93	103.4	67.48	41.11	39.05	137.6	1198	928.3	31.28	9.443	8.739	7.826	7.559	7.310	6.862	6.994	6.774	6.947	6.256	6.091	6.021	6.151	5.894	5.655	5.015	4.628	4.659	4.002	3.815	3.617	3.500	3.322	2.986	3.089	2.972	2.942	2.852	2.828	2.722	2.666	2.421	2.410	2.300	2.089	2.079	2.489	2.664	2.686	1.910	1.623	1.408	1.317	1.256	1.281	1.105	1.296	1.051	0.869	0.744	0.662	0.773	1.183	1.698	5.849	31.01	118.3	234.5	135.6	15.12
595.0	44.69	39.62	37.64	28.69	24.22	22.66	25.88	26.50	33.44	69.84	90.96	42.35	33.82	49.64	333.6	1427	265.3	8.355	7.211	6.252	6.087	5.871	5.929	5.356	5.399	5.427	5.002	4.695	4.921	4.918	4.761	4.335	4.079	3.513	3.690	3.406	2.940	2.992	2.862	2.714	2.508	2.528	2.492	2.353	2.324	2.248	2.081	1.973	2.032	1.935	1.836	1.564	1.691	1.707	2.054	2.446	1.810	1.583	1.218	1.012	1.101	0.925	0.859	0.966	1.218	0.902	0.646	0.608	0.610	0.644	0.667	1.579	7.195	26.61	61.07	172.7	189.6
600.0	38.76	38.44	38.20	24.35	21.10	19.79	22.85	22.83	27.23	47.57	95.01	48.62	30.84	28.72	90.90	1002	712.4	15.47	6.562	5.023	5.625	4.941	4.955	4.745	4.435	4.471	4.356	3.981	4.092	3.781	3.921	3.644	3.411	2.733	3.073	2.956	2.518	2.498	2.415	2.398	2.067	2.003	1.929	1.838	1.969	1.805	1.746	1.724	1.749	1.490	1.490	1.420	1.453	1.348	1.512	2.013	1.944	1.407	1.064	0.934	0.972	0.844	0.742	0.641	1.034	0.941	0.746	0.547	0.532	0.465	0.512	0.630	1.937	6.182	13.95	54.92	199.4
605.0	34.64	37.82	33.98	25.07	19.56	20.70	21.17	23.41	26.43	36.00	85.14	64.36	30.64	23.41	32.14	391.7	1265	66.04	5.996	4.882	4.941	4.267	4.346	4.340	3.905	3.850	3.795	3.564	3.228	3.409	3.268	3.017	3.180	2.474	2.379	2.422	2.226	2.333	2.049	1.811	1.724	1.644	1.716	1.727	1.711	1.644	1.566	1.546	1.476	1.332	1.288	1.293	1.096	1.097	1.236	1.551	1.633	1.372	1.037	0.859	0.809	0.737	0.717	0.590	0.763	0.849	0.932	0.564	0.567	0.396	0.432	0.434	0.661	1.610	3.340	12.70	72.02
610.0	30.13	38.47	27.71	21.99	19.29	18.67	19.60	22.26	26.77	34.06	60.42	80.00	33.89	23.84	20.11	105.8	907.9	635.0	14.15	4.315	4.009	3.343	3.625	3.281	3.417	3.055	2.928	2.823	2.805	2.567	2.547	2.386	2.301	2.111	1.992	1.968	1.721	1.811	1.663	1.445	1.464	1.291	1.401	1.348	1.371	1.351	1.272	1.201	1.178	1.099	1.043	1.011	0.969	0.901	0.928	1.015	1.196	1.311	1.088	0.816	0.635	0.586	0.616	0.490	0.621	0.604	0.734	0.658	0.450	0.353	0.408	0.303	0.358	0.582	0.927	2.991	16.54
615.0	29.67	35.02	29.54	21.18	18.43	16.60	18.94	20.85	25.24	29.48	42.14	76.38	48.22	23.55	17.15	33.87	269.2	1090	73.56	3.897	3.421	3.022	3.024	2.626	2.785	2.587	2.377	2.579	2.146	2.135	2.158	1.845	1.785	1.696	1.571	1.437	1.457	1.447	1.369	1.249	1.148	0.970	0.981	1.059	1.062	1.012	0.991	0.889	0.970	0.839	0.869	0.789	0.826	0.684	0.708	0.785	0.844	0.989	0.875	0.782	0.476	0.471	0.489	0.433	0.508	0.500	0.537	0.563	0.672	0.452	0.295	0.242	0.222	0.316	0.366	0.825	3.850
620.0	27.00	32.90	30.50	19.73	15.64	16.52	16.56	19.89	22.60	27.18	35.99	61.30	60.62	23.58	16.28	16.57	71.44	830.1	493.6	6.828	3.208	2.729	2.629	2.164	2.334	2.079	2.042	2.037	1.800	1.700	1.781	1.564	1.672	1.490	1.348	1.299	1.215	1.076	1.216	1.042	0.947	0.976	0.882	0.864	1.003	0.873	0.910	0.830	0.789	0.762	0.696	0.637	0.618	0.700	0.595	0.532	0.611	0.781	0.786	0.672	0.522	0.434	0.429	0.355	0.442	0.440	0.390	0.444	0.597	0.463	0.288	0.275	0.219	0.264	0.225	0.300	0.997
625.0	22.98	33.07	28.29	20.85	13.47	14.30	15.57	18.34	22.26	25.65	32.79	43.51	65.24	26.74	16.33	12.97	23.50	357.3	920.6	39.33	2.941	2.449	2.443	2.029	2.141	1.753	1.765	1.697	1.674	1.545	1.438	1.395	1.407	1.171	1.072	1.186	1.011	0.915	0.984	0.867	0.837	0.674	0.746	0.683	0.946	0.643	0.714	0.744	0.708	0.712	0.606	0.638	0.581	0.540	0.564	0.542	0.508	0.569	0.752	0.781	0.562	0.409	0.438	0.332	0.383	0.360	0.337	0.352	0.544	0.508	0.320	0.259	0.241	0.261	0.200	0.191	0.359
630.0	21.54	28.62	26.11	18.85	13.46	12.33	14.36	17.27	20.77	25.63	30.83	34.29	56.27	38.27	16.57	11.51	11.76	93.65	736.6	383.3	7.164	2.332	2.183	1.716	1.695	1.451	1.439	1.395	1.337	1.310	1.342	1.193	1.101	1.041	0.891	0.866	0.918	0.742	0.760	0.725	0.673	0.648	0.587	0.603	0.745	0.558	0.588	0.642	0.536	0.510	0.545	0.509	0.488	0.471	0.416	0.411	0.432	0.460	0.451	0.652	0.519	0.451	0.334	0.289	0.290	0.309	0.310	0.322	0.362	0.460	0.504	0.314	0.246	0.247	0.196	0.171	0.163
635.0	25.60	30.05	25.12	17.12	14.80	14.16	14.51	17.70	19.81	23.84	28.17	33.00	37.12	47.85	18.66	10.68	9.096	25.97	232.2	809.5	55.80	2.358	1.889	1.596	1.422	1.396	1.278	1.069	1.165	0.997	0.967	0.997	0.808	0.878	0.738	0.778	0.713	0.645	0.626	0.591	0.541	0.492	0.477	0.463	0.533	0.572	0.520	0.510	0.491	0.504	0.434	0.416	0.366	0.359	0.333	0.306	0.360	0.410	0.398	0.419	0.538	0.489	0.354	0.226	0.311	0.244	0.266	0.232	0.370	0.298	0.398	0.396	0.264	0.211	0.164	0.130	0.128
640.0	29.11	32.58	29.28	17.26	13.56	14.28	13.52	16.38	20.03	23.29	30.99	30.21	32.35	47.54	25.10	11.16	9.538	10.74	59.39	685.3	345.1	3.928	2.133	1.517	1.319	1.223	1.037	0.908	0.952	0.917	0.919	0.883	0.790	0.720	0.681	0.650	0.581	0.670	0.494	0.479	0.447	0.541	0.518	0.430	0.520	0.462	0.387	0.456	0.447	0.371	0.322	0.360	0.325	0.361	0.337	0.250	0.299	0.391	0.289	0.322	0.372	0.514	0.332	0.259	0.308	0.275	0.220	0.244	0.239	0.326	0.254	0.361	0.334	0.249	0.219	0.184	0.103
645.0	28.16	33.71	30.06	16.64	13.14	13.15	14.67	17.44	20.58	24.72	30.78	30.89	29.57	40.34	33.51	12.65	10.30	7.093	16.90	328.0	682.2	25.30	1.868	1.223	1.186	1.181	0.881	1.109	0.912	1.100	0.938	0.768	0.635	0.649	0.603	0.585	0.501	0.536	0.453	0.385	0.374	0.368	0.446	0.403	0.417	0.433	0.401	0.408	0.354	0.296	0.346	0.260	0.311	0.281	0.319	0.203	0.315	0.319	0.249	0.269	0.323	0.477	0.322	0.295	0.273	0.233	0.271	0.234	0.227	0.244	0.227	0.279	0.396	0.262	0.171	0.210	0.121
650.0	33.10	39.21	29.79	18.81	12.29	12.40	15.17	17.00	18.30	23.80	28.65	31.57	29.40	32.25	38.82	14.66	10.08	6.818	7.284	97.27	751.6	156.1	2.082	1.440	1.130	1.251	0.924	0.957	0.737	0.767	0.803	0.666	0.548	0.541	0.485	0.591	0.564	0.465	0.412	0.293	0.426	0.333	0.432	0.415	0.390	0.365	0.374	0.387	0.347	0.265	0.259	0.286	0.254	0.262	0.278	0.227	0.213	0.229	0.223	0.208	0.256	0.320	0.330	0.281	0.287	0.189	0.310	0.223	0.196	0.196	0.237	0.242	0.377	0.330	0.188	0.191	0.098
