Sample:	'1
File name:	H2025090816ÂþË®ÇÅ¶«°¶.FD3
Run date:	'16:24:46, 09/10/2025
Operator:	Administrator
Comment:	'

Instrument
Model:	F-2700 FL Spectrophotometer
Serial number:	23C7-003
ROM Version:	4J14000 07

Instrument parameters
Measurement type:	3-D scan
Data mode:	Fluorescence
EX  Start WL:	220.0 nm
EX  End WL:	600.0 nm
EX Sampling interval:	5.0 nm
EM  Start WL:	230.0 nm
EM  End WL:	650.0 nm
EM Sampling interval:	5.0 nm
Scan speed:	12000 nm/min
EX Slit:	5.0 nm
EM Slit:	5.0 nm
PMT Voltage:	700 V
Response:	Auto 
Corrected spectra:	Off
Contour interval:	50.000

Peak integration
Integration method:	Rectangular
Sensitivity:	1
Threshold:	1.000

Peaks
No.	ApexEX/EM(nm)	Height(Data)
1	225.0/590.0	38.69
2	225.0/605.0	39.82
3	225.0/630.0	31.38
4	230.0/345.0	486.0
5	230.0/360.0	485.5
6	230.0/585.0	40.39
7	240.0/520.0	183.4
8	245.0/270.0	209.2
9	245.0/535.0	147.4
10	250.0/410.0	595.7
11	250.0/545.0	128.4
12	255.0/280.0	348.2
13	255.0/415.0	585.9
14	255.0/560.0	108.7
15	260.0/425.0	574.4
16	260.0/570.0	90.24
17	265.0/585.0	90.45
18	270.0/300.0	996.5
19	270.0/400.0	588.9
20	270.0/600.0	90.89
21	275.0/305.0	1197
22	275.0/380.0	593.2
23	275.0/610.0	84.67
24	280.0/310.0	1083
25	280.0/620.0	69.23
26	285.0/635.0	47.61
27	300.0/335.0	443.6
28	305.0/345.0	414.6
29	310.0/350.0	382.2
30	315.0/355.0	392.9
31	320.0/360.0	406.2
32	325.0/370.0	396.4
33	505.0/275.0	2.013
34	510.0/280.0	2.128
35	515.0/285.0	2.422
36	545.0/300.0	5.375
37	550.0/305.0	6.446
38	560.0/310.0	5.839
39	570.0/315.0	5.358
40	575.0/290.0	44.20
41	575.0/320.0	4.909
42	580.0/325.0	4.092

Data points
	220.0	225.0	230.0	235.0	240.0	245.0	250.0	255.0	260.0	265.0	270.0	275.0	280.0	285.0	290.0	295.0	300.0	305.0	310.0	315.0	320.0	325.0	330.0	335.0	340.0	345.0	350.0	355.0	360.0	365.0	370.0	375.0	380.0	385.0	390.0	395.0	400.0	405.0	410.0	415.0	420.0	425.0	430.0	435.0	440.0	445.0	450.0	455.0	460.0	465.0	470.0	475.0	480.0	485.0	490.0	495.0	500.0	505.0	510.0	515.0	520.0	525.0	530.0	535.0	540.0	545.0	550.0	555.0	560.0	565.0	570.0	575.0	580.0	585.0	590.0	595.0	600.0
230.0	27.17	427.2	1638	657.1	37.89	5.926	4.746	3.970	3.677	3.458	3.072	3.073	2.628	2.065	1.881	1.730	1.493	1.351	1.262	1.204	1.027	0.961	0.922	0.862	0.788	0.792	0.708	0.655	0.664	0.637	0.615	0.540	0.520	0.531	0.416	0.421	0.442	0.363	0.351	0.358	0.354	0.395	0.415	0.395	0.327	0.365	0.698	3.219	6.682	6.546	2.806	0.658	0.291	0.254	0.225	0.240	0.263	0.274	0.261	0.267	0.243	0.227	0.252	0.279	0.257	0.239	0.265	0.255	0.254	0.251	0.250	0.283	0.254	0.238	0.275	0.245	0.264
235.0	57.98	123.7	818.6	1917	456.9	68.38	6.490	4.956	4.269	3.676	3.491	3.138	2.257	2.112	1.948	1.755	1.533	1.199	1.453	1.111	0.977	0.870	0.891	0.799	0.752	0.755	0.671	0.617	0.681	0.579	0.566	0.636	0.534	0.464	0.436	0.470	0.402	0.362	0.367	0.356	0.317	0.349	0.369	0.383	0.410	0.393	0.452	0.948	2.320	4.878	7.540	8.509	4.660	1.214	0.269	0.253	0.282	0.248	0.259	0.208	0.279	0.217	0.310	0.246	0.311	0.290	0.289	0.242	0.285	0.305	0.270	0.300	0.255	0.229	0.231	0.261	0.287
240.0	75.71	86.55	220.7	1280	2326	383.6	32.84	6.528	4.036	4.195	3.284	3.286	2.572	2.328	1.997	2.022	1.756	1.278	1.392	0.928	1.005	0.942	1.002	0.861	0.682	0.689	0.763	0.669	0.675	0.622	0.671	0.515	0.614	0.551	0.494	0.404	0.429	0.417	0.476	0.369	0.342	0.353	0.356	0.386	0.517	0.587	0.549	0.470	0.727	1.454	3.696	9.161	13.06	9.923	3.729	0.619	0.298	0.263	0.287	0.245	0.291	0.271	0.290	0.315	0.292	0.289	0.296	0.205	0.212	0.289	0.281	0.247	0.262	0.208	0.244	0.306	0.331
245.0	54.98	116.2	94.74	374.2	1876	2621	301.9	13.70	5.460	4.405	3.772	3.364	3.122	2.497	2.304	1.817	1.816	1.314	1.377	1.005	1.051	1.122	0.980	0.976	0.829	0.838	0.757	0.664	0.706	0.610	0.637	0.517	0.514	0.474	0.437	0.462	0.443	0.427	0.378	0.412	0.377	0.318	0.385	0.336	0.462	0.539	0.632	0.622	0.460	0.550	1.035	3.090	8.313	14.04	14.92	8.845	2.578	0.418	0.276	0.289	0.312	0.244	0.265	0.316	0.317	0.309	0.222	0.280	0.225	0.260	0.313	0.239	0.286	0.248	0.265	0.299	0.287
250.0	25.27	70.10	133.3	152.1	530.7	1856	2724	1078	80.13	5.935	5.086	4.071	3.238	2.770	2.413	1.872	1.728	1.711	1.463	1.301	1.113	1.037	1.065	1.017	0.855	0.924	0.745	0.644	0.686	0.722	0.641	0.549	0.474	0.544	0.524	0.416	0.456	0.482	0.388	0.354	0.405	0.334	0.355	0.318	0.399	0.355	0.419	0.561	0.771	0.713	0.647	0.990	2.242	4.593	8.607	13.32	16.56	13.93	7.800	2.479	0.466	0.262	0.304	0.311	0.275	0.307	0.337	0.269	0.290	0.239	0.277	0.286	0.275	0.263	0.263	0.304	0.274
255.0	18.37	28.39	84.70	188.6	197.4	441.0	1543	3909	1562	91.95	7.043	5.192	3.650	3.378	2.461	1.997	2.115	1.689	1.306	1.399	1.120	1.240	1.157	1.074	0.877	0.849	0.856	0.741	0.714	0.678	0.621	0.535	0.559	0.579	0.488	0.331	0.359	0.406	0.437	0.324	0.364	0.345	0.291	0.305	0.376	0.350	0.342	0.366	0.414	0.694	0.966	1.060	0.992	1.302	2.180	3.386	6.252	14.06	23.70	22.35	11.92	2.373	0.411	0.240	0.338	0.282	0.326	0.300	0.303	0.290	0.338	0.313	0.273	0.206	0.252	0.246	0.270
260.0	20.19	18.43	32.31	130.2	210.6	143.7	402.3	2452	4631	1227	51.06	6.878	4.835	3.821	2.797	2.429	2.220	1.975	1.714	1.377	1.280	1.410	1.321	1.196	0.935	0.940	0.903	0.873	0.670	0.721	0.646	0.516	0.547	0.562	0.444	0.375	0.396	0.373	0.468	0.470	0.343	0.447	0.341	0.381	0.315	0.361	0.379	0.312	0.333	0.354	0.622	1.093	1.363	0.854	0.855	1.053	1.716	3.852	11.19	23.85	32.07	20.94	8.171	1.095	0.360	0.259	0.303	0.303	0.301	0.326	0.292	0.286	0.232	0.252	0.319	0.353	0.253
265.0	21.76	17.00	16.75	54.19	196.1	180.5	118.2	695.1	3558	4992	890.2	19.46	6.323	4.315	3.664	2.631	2.184	1.905	1.692	1.442	1.327	1.324	1.191	1.051	0.987	0.917	0.916	0.794	0.755	0.749	0.629	0.561	0.533	0.548	0.529	0.452	0.498	0.425	0.460	0.419	0.358	0.408	0.339	0.384	0.399	0.321	0.364	0.329	0.252	0.269	0.375	0.573	1.127	1.371	1.062	0.692	0.703	1.149	2.933	7.285	18.65	33.24	27.76	17.52	4.055	0.473	0.333	0.295	0.298	0.334	0.267	0.354	0.301	0.268	0.287	0.303	0.226
270.0	25.54	20.54	15.72	21.92	80.00	209.2	186.7	194.1	986.6	3601	5428	2009	57.21	6.943	4.246	3.144	2.608	2.140	1.910	1.644	1.537	1.289	1.285	1.086	1.083	1.001	0.902	0.848	0.770	0.742	0.776	0.695	0.560	0.566	0.499	0.436	0.428	0.397	0.422	0.467	0.394	0.380	0.384	0.411	0.410	0.392	0.339	0.363	0.306	0.267	0.294	0.348	0.498	0.820	1.182	1.366	1.240	0.860	1.008	1.966	4.653	10.12	17.85	29.68	29.75	27.25	11.22	3.426	0.508	0.336	0.321	0.334	0.348	0.342	0.268	0.338	0.311
275.0	40.84	31.84	22.83	20.77	30.39	81.36	259.5	230.4	263.9	872.4	2991	7483	1072	64.93	6.089	4.092	3.391	2.609	1.973	1.730	1.646	1.366	1.445	1.138	1.127	0.904	0.799	0.813	0.734	0.779	0.732	0.816	0.617	0.651	0.467	0.483	0.462	0.414	0.523	0.575	0.423	0.404	0.445	0.384	0.387	0.408	0.381	0.362	0.320	0.299	0.256	0.346	0.322	0.441	0.508	0.862	1.527	2.013	1.362	0.967	1.358	2.662	4.418	7.302	11.03	27.35	47.94	27.65	16.23	3.070	0.573	0.343	0.346	0.332	0.287	0.309	0.320
280.0	52.77	50.98	41.97	28.43	24.43	36.94	148.3	348.2	194.3	252.9	823.4	4856	7649	810.6	31.40	6.033	3.802	2.936	2.474	1.943	1.883	1.692	1.538	1.296	1.093	0.931	0.940	0.918	0.803	0.781	0.814	0.841	0.689	0.685	0.534	0.531	0.526	0.494	0.499	0.487	0.449	0.425	0.413	0.390	0.509	0.457	0.444	0.463	0.360	0.359	0.265	0.317	0.360	0.383	0.367	0.538	0.834	1.500	2.128	1.812	1.126	1.045	1.408	2.089	3.034	7.537	20.63	41.70	58.35	25.51	10.69	1.184	0.391	0.354	0.315	0.335	0.325
285.0	82.26	86.84	74.06	50.56	35.57	35.37	72.55	278.1	367.5	183.7	298.7	1445	6500	6498	529.1	13.20	4.831	3.570	3.022	2.157	1.924	1.646	1.398	1.352	1.299	1.157	0.985	0.821	0.868	0.826	0.688	0.903	0.685	0.629	0.568	0.523	0.666	0.515	0.481	0.471	0.523	0.461	0.446	0.468	0.530	0.545	0.460	0.555	0.497	0.425	0.374	0.395	0.418	0.313	0.395	0.367	0.525	0.688	1.330	2.422	2.413	1.369	1.049	1.216	1.280	2.490	5.369	12.75	32.11	57.02	59.91	20.77	4.727	0.561	0.387	0.431	0.351
290.0	139.2	171.3	154.9	97.21	63.80	54.66	72.16	155.8	377.0	473.1	349.7	596.7	1959	5383	6252	1702	32.16	5.231	3.773	2.795	2.267	1.932	1.578	1.589	1.364	1.336	1.080	0.943	1.034	0.936	0.840	0.902	0.777	0.688	0.642	0.607	0.751	0.608	0.576	0.595	0.590	0.551	0.451	0.567	0.637	0.700	0.732	0.869	0.743	0.623	0.505	0.517	0.443	0.428	0.437	0.461	0.574	0.666	0.885	1.402	2.044	2.680	2.763	2.271	1.706	1.928	2.563	4.378	8.692	17.39	32.18	44.20	39.65	40.17	13.08	4.325	0.616
295.0	207.1	276.8	250.4	156.4	98.92	83.15	101.2	155.2	275.8	591.0	778.1	622.5	833.2	1459	3591	8134	596.5	38.44	5.510	3.886	2.841	2.179	1.893	1.761	1.421	1.457	1.223	1.180	1.065	0.941	0.891	0.938	0.794	0.703	0.715	0.695	0.701	0.674	0.633	0.624	0.562	0.603	0.577	0.615	0.773	0.942	0.997	1.096	1.009	0.849	0.707	0.677	0.517	0.587	0.504	0.687	0.678	0.778	0.914	1.305	1.364	1.921	2.961	4.007	4.049	3.298	2.893	3.069	4.121	5.825	8.766	11.39	13.88	36.75	67.04	30.42	19.66
300.0	240.5	335.4	322.1	202.3	121.8	103.7	127.6	181.5	286.0	514.9	996.5	885.8	695.1	615.9	993.9	5210	7581	478.8	19.90	4.995	3.942	2.595	2.034	1.848	1.582	1.443	1.496	1.224	1.153	1.069	0.994	1.006	0.788	0.731	0.707	0.633	0.764	0.722	0.724	0.559	0.576	0.675	0.623	0.658	0.841	1.088	1.084	1.263	1.225	1.039	0.826	0.859	0.654	0.651	0.560	0.766	0.758	0.889	0.954	1.178	1.472	1.777	2.409	3.235	5.008	5.375	4.499	3.748	3.643	3.736	3.668	3.840	4.186	9.651	25.29	50.71	79.67
305.0	269.9	384.2	352.0	233.1	140.1	124.7	146.9	209.9	314.3	506.0	884.4	1197	806.0	481.1	366.2	1429	6488	4319	330.9	9.334	4.795	3.299	2.405	2.118	1.710	1.498	1.381	1.237	1.197	1.080	1.112	1.031	0.889	0.822	0.687	0.767	0.751	0.726	0.686	0.666	0.635	0.631	0.746	0.727	0.997	1.143	1.172	1.427	1.329	1.200	0.907	0.929	0.791	0.679	0.691	0.854	0.865	1.056	1.138	1.217	1.548	1.963	2.393	3.002	4.089	5.193	6.446	5.273	4.103	3.456	2.940	2.509	2.238	3.036	6.492	14.06	38.93
310.0	279.2	391.7	382.1	249.1	151.6	138.2	171.3	234.1	339.6	517.9	770.6	1068	1083	575.2	265.8	408.4	1731	4500	5184	1351	23.64	4.444	3.227	2.556	1.999	1.770	1.513	1.315	1.275	1.139	1.167	0.887	0.850	0.810	0.744	0.896	0.827	0.753	0.681	0.726	0.681	0.752	0.812	0.806	1.036	1.134	1.216	1.525	1.427	1.213	0.978	0.920	0.845	0.761	0.790	0.904	0.965	1.132	1.190	1.382	1.780	2.073	2.563	2.970	3.558	4.215	4.970	5.656	5.839	4.854	3.493	2.365	1.941	1.622	2.285	3.831	9.576
315.0	274.6	396.5	376.0	249.1	160.8	149.1	174.1	240.5	341.4	511.5	710.3	871.8	954.6	818.6	326.2	207.8	456.9	1068	3017	7035	431.9	26.45	4.474	3.335	2.580	2.069	1.703	1.367	1.396	1.203	1.091	1.070	0.962	0.841	0.908	0.904	0.752	0.747	0.691	0.703	0.669	0.714	0.835	0.865	1.020	1.171	1.269	1.477	1.413	1.199	0.959	0.943	0.848	0.865	0.893	0.834	0.942	1.234	1.332	1.387	1.829	2.030	2.520	2.822	3.303	3.832	4.271	4.291	4.632	5.075	5.358	3.865	2.257	1.646	1.534	1.626	2.897
320.0	277.5	398.3	388.3	257.3	173.0	152.8	185.3	245.3	346.4	490.2	673.0	788.5	799.6	801.3	512.3	202.4	192.2	295.8	770.6	4388	6482	358.9	14.81	4.350	3.163	2.277	1.886	1.709	1.340	1.527	1.048	1.155	1.091	0.822	0.784	0.836	0.756	0.736	0.662	0.693	0.759	0.758	0.917	0.750	0.944	1.115	1.227	1.434	1.494	1.270	0.904	1.018	0.868	0.852	0.963	0.968	1.047	1.242	1.411	1.426	1.756	2.090	2.457	2.813	2.997	3.489	3.735	3.754	4.091	3.819	4.445	4.909	3.758	2.396	1.609	1.277	1.550
325.0	278.5	406.1	419.5	286.0	182.4	163.1	193.2	250.7	341.9	474.8	636.3	742.5	732.6	644.5	634.6	310.7	157.6	139.0	217.7	1167	5447	3291	267.2	7.800	4.120	2.937	2.109	1.793	1.601	1.521	1.271	1.129	0.981	0.967	0.843	0.835	0.787	0.825	0.758	0.643	0.697	0.695	0.811	0.725	1.053	1.184	1.289	1.612	1.601	1.326	1.080	0.994	0.917	0.900	0.949	1.011	1.027	1.160	1.270	1.470	1.744	2.024	2.443	2.681	2.969	3.338	3.738	3.762	3.823	3.595	3.410	3.599	4.092	3.957	2.448	1.563	1.309
330.0	280.5	404.4	442.0	323.4	222.6	184.6	207.9	252.6	338.4	460.3	603.0	698.7	691.1	565.4	496.4	469.1	277.1	137.2	116.7	308.2	1439	3636	4355	1189	20.31	4.242	2.770	2.243	1.763	1.561	1.248	1.202	1.064	0.905	0.907	0.841	0.842	0.751	0.758	0.710	0.717	0.682	0.782	0.800	1.082	1.221	1.310	1.724	1.682	1.458	1.184	1.159	1.069	1.035	1.025	1.065	1.144	1.200	1.414	1.461	1.702	1.976	2.302	2.712	2.736	3.205	3.379	3.445	3.651	3.392	3.214	2.895	2.999	3.080	3.265	3.066	2.499
335.0	273.3	421.4	467.7	374.1	267.4	218.1	232.6	270.7	336.5	446.5	572.3	662.1	661.2	553.5	438.0	389.5	443.6	247.5	127.1	145.3	376.8	868.2	2496	6209	1782	25.73	4.492	3.045	2.320	1.704	1.618	1.434	1.156	0.964	1.007	0.844	0.869	0.703	0.746	0.683	0.711	0.744	0.831	0.845	1.035	1.310	1.282	1.653	1.660	1.582	1.467	1.385	1.216	1.161	1.248	1.147	1.177	1.356	1.423	1.583	1.676	2.045	2.256	2.426	2.681	2.896	3.020	3.351	3.377	3.164	3.213	2.859	2.897	2.526	2.463	2.800	3.641
340.0	287.4	431.3	476.1	406.2	302.0	246.9	249.4	287.2	336.1	446.7	551.7	639.4	641.1	553.4	437.6	361.7	400.9	391.0	184.8	132.1	161.0	250.7	646.5	3744	6005	329.6	15.83	3.900	2.668	1.913	1.885	1.528	1.126	1.000	1.012	0.868	0.818	0.689	0.801	0.720	0.691	0.773	0.733	0.919	1.036	1.253	1.382	1.736	1.808	1.760	1.343	1.544	1.412	1.345	1.328	1.219	1.381	1.388	1.579	1.644	1.656	2.192	2.119	2.523	2.590	2.869	2.880	3.177	3.358	3.226	3.238	2.980	2.865	2.744	2.531	2.379	2.608
345.0	273.4	419.0	486.0	419.4	327.8	273.8	268.5	299.9	346.6	439.0	538.1	613.3	616.1	550.2	455.3	368.9	340.0	414.6	305.6	164.8	136.8	133.6	201.5	999.1	4510	4870	266.4	7.777	3.678	2.610	2.014	1.515	1.270	1.081	1.073	0.864	0.820	0.865	0.668	0.754	0.731	0.760	0.877	0.964	1.044	1.191	1.450	1.728	1.830	1.820	1.499	1.544	1.502	1.434	1.282	1.360	1.454	1.476	1.697	1.580	1.883	1.941	2.357	2.399	2.553	2.910	3.022	3.139	3.214	3.205	3.250	3.013	2.829	2.883	2.470	2.347	2.435
350.0	266.6	409.1	480.5	446.6	373.0	317.7	307.3	321.4	359.2	433.8	517.1	586.3	595.7	552.8	474.3	395.1	347.0	348.5	382.2	298.5	185.5	143.7	133.9	284.6	1183	3365	3634	1132	19.66	3.692	2.575	1.920	1.446	1.276	1.148	0.931	0.892	0.947	0.718	0.784	0.800	0.686	0.836	0.949	0.931	1.239	1.355	1.685	1.879	1.744	1.594	1.728	1.599	1.532	1.555	1.468	1.579	1.604	1.613	1.774	1.813	1.973	2.311	2.394	2.568	2.795	2.860	3.033	3.042	3.134	3.013	3.038	2.925	2.819	2.649	2.634	2.740
355.0	259.0	398.4	458.1	463.8	411.2	366.9	359.9	362.3	382.3	448.2	513.7	570.9	589.1	557.3	499.7	436.5	386.2	356.7	345.2	392.9	315.3	194.3	153.5	155.4	326.8	799.2	1852	5061	1808	25.18	3.885	2.688	1.874	1.407	1.111	1.161	0.926	0.821	0.772	0.809	0.827	0.759	0.794	0.839	0.931	1.058	1.437	1.606	1.852	1.751	1.582	1.752	1.870	1.866	1.805	1.653	1.784	1.846	1.709	1.795	1.905	2.178	2.354	2.418	2.486	2.635	2.640	2.777	3.059	2.973	3.023	3.141	3.018	3.097	2.881	3.116	2.861
360.0	257.7	390.6	485.5	478.6	443.0	413.5	393.7	401.1	416.3	463.2	526.6	569.2	583.5	557.3	511.0	458.2	417.0	382.4	355.2	371.9	406.2	271.7	185.9	149.6	154.4	233.2	475.2	2771	5303	325.5	16.82	3.625	2.287	1.648	1.362	1.141	1.006	0.860	0.927	0.840	0.762	0.801	0.851	0.766	1.032	1.071	1.402	1.590	1.845	1.762	1.724	1.941	2.087	1.823	1.872	1.568	1.897	1.901	1.952	2.085	2.030	2.222	2.376	2.672	2.406	2.552	2.789	2.815	3.020	2.981	3.057	3.023	3.084	3.176	2.894	3.087	3.044
365.0	257.1	408.9	482.4	489.0	469.0	443.0	429.3	431.9	444.8	478.5	531.6	573.3	582.2	560.3	523.6	480.2	441.9	412.5	379.5	367.6	402.6	370.3	232.8	171.7	134.8	122.3	154.1	723.5	3582	4631	277.1	8.705	2.829	2.013	1.624	1.246	1.174	1.094	0.947	0.751	0.844	0.878	0.825	0.806	1.084	1.119	1.423	1.611	1.704	1.760	1.729	1.999	2.068	1.951	1.978	1.802	2.030	1.961	2.171	2.243	2.222	2.298	2.328	2.447	2.749	2.604	2.703	2.645	2.811	2.832	3.113	3.140	3.134	3.165	3.125	3.306	3.162
370.0	271.4	383.8	483.0	507.1	491.7	475.5	467.1	468.6	474.8	515.1	549.8	578.6	581.0	567.2	537.0	501.1	471.8	449.3	420.6	396.4	382.2	396.4	347.0	230.3	165.1	125.6	104.2	210.8	919.7	2876	3312	1133	18.91	3.078	2.167	1.466	1.291	1.099	0.918	0.886	0.819	0.839	0.863	0.923	1.091	1.219	1.381	1.614	1.759	1.779	1.805	2.071	2.270	2.131	2.183	2.040	2.195	2.230	2.288	2.376	2.475	2.433	2.643	2.721	2.780	2.644	2.801	2.915	2.931	3.050	3.104	3.131	3.249	3.296	3.310	3.216	3.333
375.0	264.0	392.3	496.5	517.9	515.4	511.1	502.1	499.7	502.8	537.8	565.1	586.6	587.4	572.3	547.8	520.4	496.4	476.0	458.4	428.2	403.0	379.1	388.3	336.3	214.1	156.5	120.6	118.4	255.3	678.6	1479	4566	1821	24.89	3.186	2.137	1.663	1.304	1.067	0.919	0.823	1.028	0.991	1.048	1.092	1.198	1.419	1.704	1.902	1.883	1.780	2.119	2.325	2.270	2.276	2.254	2.539	2.271	2.519	2.458	2.513	2.453	2.611	2.696	2.798	2.713	2.855	2.957	3.008	3.144	3.079	3.250	3.112	3.370	3.408	3.309	3.546
380.0	273.1	389.9	502.9	531.3	537.2	540.4	528.9	523.9	523.5	555.4	573.5	593.2	592.0	583.6	550.7	525.7	507.4	494.1	478.7	449.0	425.2	391.0	371.6	385.1	283.9	187.5	143.4	115.7	121.5	195.7	375.7	2214	4607	1292	16.68	2.919	2.011	1.492	1.234	1.090	0.869	1.009	1.057	0.948	1.068	1.223	1.384	1.715	1.849	1.830	1.872	2.301	2.381	2.328	2.433	2.342	2.526	2.577	2.477	2.526	2.461	2.732	2.736	2.805	2.926	2.633	2.873	3.008	2.984	3.276	3.152	3.387	3.335	3.482	3.046	3.491	3.764
385.0	270.4	392.2	506.4	538.7	557.7	550.4	552.1	542.6	539.8	559.7	581.9	590.2	588.3	575.3	550.8	532.0	518.2	500.3	489.0	466.4	441.8	404.5	371.1	368.9	346.2	235.9	169.2	132.3	107.5	102.3	124.9	563.6	2694	4087	248.2	9.795	2.649	1.863	1.430	1.089	1.006	0.985	1.035	0.961	1.047	1.358	1.425	1.666	1.964	1.868	1.913	2.263	2.390	2.576	2.544	2.423	2.462	2.755	2.630	2.618	2.591	2.627	2.689	2.864	2.910	2.844	2.851	3.045	3.106	3.214	3.104	3.227	3.455	3.458	3.169	3.529	3.480
390.0	263.7	402.7	496.5	549.8	562.7	571.8	572.7	559.9	557.8	567.1	586.3	584.8	585.5	572.3	546.4	526.3	514.2	505.6	492.9	475.0	453.0	422.8	387.1	359.0	345.4	312.7	223.8	165.7	130.6	104.2	85.91	166.1	671.6	2128	2462	1039	17.25	2.872	1.816	1.446	1.147	1.070	1.159	1.034	1.130	1.392	1.392	1.674	1.907	1.830	1.925	2.179	2.466	2.568	2.448	2.532	2.563	2.728	2.717	2.700	2.519	2.885	2.754	2.806	2.829	2.795	2.849	2.811	3.095	3.093	3.101	3.184	3.337	3.292	3.241	3.462	3.579
395.0	267.5	397.9	497.2	549.8	577.8	583.0	585.5	561.3	569.3	573.7	588.7	584.7	583.2	566.6	542.0	520.6	510.2	504.9	492.2	477.5	457.3	433.9	404.3	370.3	338.1	321.9	299.9	214.5	163.5	127.9	98.71	92.99	187.8	501.4	940.4	3229	1609	23.87	2.886	1.872	1.455	1.202	1.112	1.265	1.217	1.366	1.468	1.591	1.997	1.834	1.800	2.269	2.497	2.406	2.505	2.667	2.542	2.689	2.780	2.845	2.698	2.837	2.662	2.939	2.821	2.610	2.790	2.773	2.942	3.011	3.001	3.029	3.344	3.412	3.146	3.542	3.581
400.0	277.1	398.1	496.4	549.7	584.3	583.1	594.6	572.5	579.0	576.1	588.9	585.3	573.2	564.2	532.5	516.5	503.7	496.7	489.7	478.0	461.7	439.2	413.2	382.5	342.6	313.8	316.9	270.5	194.0	150.0	116.2	89.32	90.05	143.6	236.9	1368	3467	1226	17.01	2.668	1.782	1.343	1.189	1.255	1.273	1.410	1.544	1.658	1.865	1.878	1.826	2.295	2.503	2.395	2.478	2.615	2.656	2.882	2.657	2.723	2.750	2.792	2.815	2.986	2.771	2.794	2.861	2.809	2.843	2.954	3.085	3.113	3.291	3.103	3.018	3.432	3.761
405.0	270.8	393.3	501.4	563.9	572.1	583.5	594.8	576.9	576.3	581.1	586.3	580.7	569.2	556.6	531.0	504.4	494.1	487.7	482.8	473.8	457.3	439.7	415.9	388.7	354.9	321.0	304.6	302.7	234.2	172.9	132.9	100.7	76.65	70.69	79.13	338.0	1746	3283	231.6	11.24	2.247	1.629	1.396	1.323	1.300	1.448	1.642	1.766	1.881	1.766	1.957	2.304	2.482	2.485	2.532	2.676	2.827	2.739	2.674	2.757	2.791	2.707	2.972	2.927	2.872	2.802	2.769	2.838	2.890	2.961	3.223	3.052	3.083	3.210	3.149	3.438	3.610
410.0	269.7	386.5	483.3	543.3	566.1	593.8	595.7	585.0	580.8	573.8	579.2	575.1	558.0	545.1	518.4	492.9	480.8	471.8	464.8	461.8	444.3	431.3	414.5	391.3	363.4	329.8	304.3	293.3	280.1	216.8	158.0	118.9	87.42	65.62	52.47	99.52	424.9	1503	2359	981.0	16.85	2.753	1.746	1.498	1.438	1.533	1.636	1.768	1.927	1.826	1.849	2.184	2.552	2.507	2.701	2.507	2.718	2.739	2.709	2.669	2.765	2.914	2.887	2.938	2.829	2.685	2.797	2.875	2.829	2.978	3.025	3.066	3.102	2.993	3.139	3.144	3.454
415.0	252.2	382.2	478.5	546.1	558.9	582.2	584.2	585.9	579.0	571.3	570.6	560.2	542.9	522.8	502.0	474.0	455.2	456.9	445.7	439.6	428.0	419.3	405.1	387.7	363.5	334.5	306.5	282.0	272.7	263.0	192.0	137.2	102.3	76.24	56.32	53.05	115.7	350.1	750.3	2391	1507	23.79	2.626	2.066	1.571	1.611	1.507	1.831	1.836	1.846	1.737	2.285	2.386	2.564	2.593	2.542	2.743	2.743	2.921	2.790	2.643	3.060	2.793	2.873	2.736	2.617	2.800	2.804	2.803	2.866	3.115	2.957	2.990	3.016	3.209	2.981	3.422
420.0	259.4	380.4	464.3	525.0	547.5	564.0	582.1	577.0	569.0	571.7	564.6	553.0	530.5	508.9	485.5	457.1	439.9	435.3	427.7	422.7	414.4	406.7	392.0	378.0	356.7	331.9	307.0	282.3	262.2	261.0	225.3	154.7	113.1	84.17	62.56	47.89	51.63	95.66	182.2	910.4	2693	1179	17.53	2.520	1.898	1.818	1.718	1.876	1.994	1.820	1.805	2.219	2.473	2.410	2.490	2.453	2.690	2.614	2.773	2.825	2.790	2.835	2.697	2.714	2.569	2.692	2.680	2.529	2.721	2.716	2.840	2.986	2.891	2.862	3.081	3.063	3.296
425.0	252.4	368.2	452.3	513.3	548.2	556.0	577.5	565.3	574.4	555.6	554.4	537.6	514.5	488.8	466.5	437.1	423.4	416.8	409.7	407.5	396.0	390.2	379.4	369.2	350.4	330.4	308.4	283.2	260.4	246.4	238.2	182.3	124.3	92.57	68.60	52.28	40.29	42.14	55.83	220.6	1204	2672	226.1	11.74	2.409	2.037	1.801	1.916	1.896	1.743	1.749	2.160	2.419	2.282	2.431	2.514	2.673	2.734	2.654	2.716	2.578	2.686	2.594	2.625	2.648	2.659	2.749	2.539	2.556	2.769	2.605	2.796	2.972	2.909	3.037	3.049	2.876
430.0	284.5	344.5	440.6	501.0	528.7	539.8	566.5	559.5	566.0	549.6	543.3	524.5	500.4	473.1	444.5	420.8	404.9	398.7	389.3	384.1	375.4	371.2	364.9	352.6	340.3	323.0	305.1	281.9	262.1	241.6	221.5	202.9	152.7	105.7	79.60	60.41	46.01	36.14	32.63	63.24	287.6	1113	1890	922.2	16.19	3.045	2.005	1.925	1.931	1.789	1.752	2.255	2.317	2.318	2.437	2.417	2.681	2.617	2.697	2.649	2.744	2.671	2.696	2.611	2.636	2.650	2.670	2.585	2.529	2.740	2.765	2.633	2.706	2.699	2.734	2.964	2.979
435.0	421.6	344.9	414.1	481.6	520.2	544.0	550.3	556.9	554.6	546.0	529.2	516.2	486.0	459.9	427.3	404.0	378.9	378.1	372.0	362.9	357.0	353.9	346.3	340.8	327.4	316.3	298.3	278.6	262.1	240.5	214.2	192.4	176.1	130.4	90.83	69.18	53.73	41.47	32.32	32.16	78.12	258.7	566.0	2007	1440	23.05	3.024	2.303	2.099	1.779	1.742	2.127	2.402	2.265	2.341	2.483	2.654	2.457	2.512	2.635	2.641	2.581	2.688	2.516	2.677	2.392	2.580	2.613	2.502	2.561	2.583	2.535	2.443	2.561	2.771	2.723	2.891
440.0	566.3	402.3	420.3	467.1	495.3	517.6	545.4	554.6	551.9	542.7	531.0	508.8	477.1	446.5	410.7	382.6	367.2	362.0	355.1	346.3	342.0	338.4	333.4	327.1	314.2	305.2	288.8	276.1	260.0	240.7	214.5	187.9	171.7	148.9	104.2	76.40	59.51	46.01	35.41	28.12	33.71	70.18	137.2	744.3	2407	1115	15.57	2.842	2.219	2.013	1.766	2.095	2.284	2.134	2.381	2.526	2.428	2.461	2.581	2.416	2.449	2.701	2.650	2.522	2.612	2.314	2.500	2.366	2.334	2.434	2.587	2.478	2.498	2.595	2.582	2.620	2.728
445.0	548.9	578.9	416.7	455.5	486.6	506.4	523.0	547.1	536.4	527.2	517.7	496.9	466.4	433.1	397.9	373.6	353.4	347.2	338.5	330.5	325.6	322.2	316.2	312.6	304.2	292.5	280.9	271.4	255.4	238.1	212.4	185.6	161.6	153.2	121.7	83.99	64.84	51.34	39.65	30.65	27.11	29.76	41.69	179.5	1051	2418	193.0	11.01	2.571	2.114	1.859	1.996	2.217	2.218	2.369	2.270	2.361	2.483	2.618	2.333	2.472	2.776	2.586	2.661	2.540	2.292	2.499	2.380	2.439	2.353	2.570	2.423	2.464	2.550	2.358	2.655	2.682
450.0	349.4	898.8	545.9	429.0	456.8	486.4	507.2	522.3	515.3	508.2	499.5	474.2	442.1	411.2	373.7	349.8	331.3	322.6	314.2	307.2	301.8	296.1	293.8	292.8	284.1	276.2	264.9	256.0	245.0	230.6	207.7	180.0	157.5	138.9	129.8	100.4	71.80	56.50	44.73	35.25	28.47	24.38	22.81	51.13	250.1	992.3	1635	800.6	13.78	2.713	1.979	2.104	2.249	2.082	2.191	2.127	2.240	2.501	2.460	2.499	2.537	2.587	2.436	2.517	2.454	2.203	2.290	2.339	2.280	2.252	2.469	2.329	2.409	2.252	2.351	2.388	2.587
455.0	228.7	759.4	1032	434.5	423.5	451.4	478.2	487.6	484.1	472.3	473.9	444.0	411.9	381.1	351.5	325.0	305.8	297.1	287.4	280.1	275.2	270.3	268.3	266.6	261.4	254.9	245.4	241.0	230.1	220.3	197.7	175.2	151.6	130.8	117.6	110.5	84.88	61.98	48.85	40.27	32.02	26.05	21.58	24.27	65.53	229.1	489.2	1616	1092	16.63	2.448	2.358	2.219	2.176	2.020	2.058	2.404	2.272	2.187	2.439	2.424	2.436	2.386	2.200	2.270	2.182	2.273	2.204	2.116	2.153	2.336	2.334	2.318	2.031	2.168	2.363	2.300
460.0	198.7	479.3	1366	597.5	397.5	428.3	450.3	460.9	460.0	455.9	448.2	424.2	388.8	362.1	334.0	302.5	286.8	276.7	267.6	260.7	254.3	251.4	250.0	249.5	244.5	236.7	229.2	226.1	217.1	206.3	190.7	169.4	147.6	127.6	110.3	105.0	94.15	67.58	52.15	42.13	34.76	27.99	22.44	19.37	25.94	59.61	117.1	605.2	1767	718.7	11.53	2.664	2.246	2.174	2.174	2.163	2.162	2.173	2.072	2.172	2.288	2.191	2.404	2.142	2.215	2.197	1.984	2.040	2.124	2.116	2.109	2.031	2.069	2.096	2.119	2.037	2.033
465.0	175.4	309.5	1230	1053	395.3	398.7	428.1	432.8	436.6	431.1	426.9	403.6	365.0	340.0	311.0	285.2	268.3	257.3	250.2	241.0	236.8	232.3	231.5	230.5	225.8	219.6	215.2	211.1	204.8	196.0	180.8	162.9	144.7	123.1	105.5	96.82	93.98	75.91	54.31	43.92	36.02	29.82	24.57	19.79	18.06	22.42	33.76	144.9	814.5	1636	149.4	7.739	2.570	2.189	2.148	1.998	2.003	2.129	2.116	2.077	2.147	2.125	2.280	2.134	2.040	2.128	2.000	2.011	2.114	1.810	2.091	1.875	2.029	2.012	1.878	1.834	1.805
470.0	175.1	242.4	649.4	1508	666.2	370.0	388.3	405.5	403.6	404.9	390.3	373.0	340.9	314.6	284.7	258.0	244.8	233.0	225.3	216.4	212.3	210.4	207.8	207.6	202.5	198.8	195.0	191.7	188.2	180.5	167.8	153.0	135.4	116.6	101.1	88.80	82.71	77.84	63.06	46.43	38.08	31.48	26.48	21.63	17.91	15.89	16.04	39.62	194.0	721.8	1024	593.9	12.41	2.612	2.195	1.928	2.080	2.118	1.963	2.113	2.052	2.017	2.100	2.040	1.979	1.996	1.796	1.869	1.933	1.719	1.967	1.810	1.803	1.801	1.680	1.829	1.910
475.0	170.8	219.9	348.9	1106	1392	390.4	348.0	367.1	364.3	368.8	361.1	344.8	313.9	285.9	259.5	234.7	219.2	210.3	200.2	194.9	188.8	186.4	184.5	186.3	180.4	176.0	175.0	170.6	168.1	164.8	153.5	139.9	123.7	109.8	95.84	83.49	74.43	69.27	67.23	53.08	39.77	32.92	27.59	22.88	18.97	15.62	13.03	16.49	49.22	166.0	326.2	1098	714.8	16.01	2.469	1.963	2.103	1.794	1.810	1.945	1.897	1.780	1.958	1.875	1.933	1.809	1.792	1.725	1.613	1.606	1.691	1.781	1.638	1.830	1.534	1.623	1.722
480.0	159.1	209.5	262.0	594.5	1750	601.5	332.2	339.5	343.2	339.8	339.9	320.3	295.2	267.5	243.3	222.8	202.7	193.6	183.6	180.0	174.1	168.8	170.3	167.5	165.7	163.0	160.3	158.1	157.2	153.2	145.4	132.1	118.4	105.0	91.30	79.37	71.31	63.32	62.86	56.92	42.34	33.31	28.40	23.35	19.47	16.59	13.11	11.79	17.68	42.23	78.02	428.1	1290	186.0	10.44	2.377	1.971	2.176	1.883	1.928	1.815	1.835	1.888	1.770	1.791	1.690	1.663	1.681	1.540	1.512	1.570	1.582	1.522	1.691	1.485	1.502	1.673
485.0	142.3	221.7	240.8	344.6	1462	1113	322.1	325.3	325.2	327.2	321.8	303.3	276.9	252.0	231.4	209.0	188.0	184.9	172.2	166.7	161.9	158.4	157.6	158.3	153.1	152.6	148.1	148.1	146.5	144.8	136.8	125.3	113.3	100.4	89.61	76.87	69.19	60.44	56.73	56.72	46.64	34.93	28.89	24.49	20.53	17.17	14.19	11.47	11.08	15.14	21.94	103.1	670.6	1198	156.9	4.576	2.225	2.129	1.890	1.739	1.623	1.860	1.669	1.861	1.676	1.695	1.527	1.490	1.527	1.578	1.569	1.541	1.450	1.543	1.376	1.622	1.587
490.0	119.4	204.5	227.1	256.0	711.6	1630	577.9	301.2	300.8	305.4	306.2	283.9	259.3	232.4	212.3	191.0	176.1	167.0	158.3	153.2	149.5	145.3	144.2	142.3	140.7	138.5	136.2	135.5	134.7	133.0	125.8	116.3	105.7	94.26	83.59	73.60	66.32	58.35	52.05	51.07	48.74	39.71	30.51	24.98	21.23	18.15	14.81	12.24	10.21	9.844	10.00	27.55	161.7	584.6	1012	458.1	11.85	2.194	1.918	1.750	1.693	1.776	1.533	1.780	1.568	1.464	1.501	1.407	1.500	1.425	1.451	1.421	1.418	1.399	1.395	1.413	1.477
495.0	109.4	177.8	231.6	220.6	333.6	1196	1381	302.4	275.6	281.7	274.0	264.2	236.0	216.6	190.5	173.9	160.8	150.9	143.3	137.2	133.0	130.8	128.1	127.3	125.3	125.6	122.8	122.8	119.9	120.2	115.5	105.2	96.28	87.21	78.53	69.08	61.94	55.81	48.93	45.25	43.20	42.47	34.03	25.90	22.07	18.77	15.45	13.26	10.81	8.709	7.672	10.62	40.14	134.3	374.2	1133	620.1	14.45	2.074	1.784	1.736	1.595	1.697	1.581	1.327	1.459	1.288	1.359	1.364	1.367	1.410	1.380	1.311	1.340	1.235	1.304	1.438
500.0	101.9	153.1	227.2	207.9	230.4	615.2	1856	474.5	258.5	253.2	255.1	242.6	220.5	196.7	175.0	160.4	145.2	138.7	132.6	126.1	120.8	119.0	116.3	116.0	114.4	112.4	109.8	111.4	111.3	111.5	104.6	97.45	89.32	81.36	72.11	65.27	58.32	52.33	46.22	42.07	39.06	39.64	36.12	27.11	21.97	18.82	15.70	13.15	11.01	9.300	7.513	7.081	12.96	33.49	88.81	506.3	1219	186.7	7.146	1.946	1.608	1.658	1.532	1.463	1.277	1.275	1.169	1.358	1.312	1.280	1.337	1.274	1.145	1.288	1.183	1.257	1.313
505.0	97.76	135.8	210.6	204.8	193.7	315.0	1656	937.8	241.1	241.2	240.6	221.4	203.7	181.0	163.2	147.5	133.2	126.8	121.5	113.9	109.5	108.0	107.2	106.3	103.6	100.5	99.47	99.23	100.5	99.83	96.11	89.30	83.38	75.10	68.76	60.35	54.56	49.77	44.07	39.82	35.47	35.14	35.55	29.02	22.14	18.43	15.89	13.44	11.25	9.432	7.634	6.481	7.193	11.43	23.34	123.6	695.8	1017	135.5	3.035	1.672	1.597	1.405	1.363	1.341	1.389	1.210	1.229	1.237	1.245	1.243	1.180	1.166	1.156	1.117	1.209	1.153
510.0	83.19	113.7	165.6	203.7	177.7	211.8	798.5	1555	426.9	214.6	209.4	198.5	181.7	161.3	145.0	129.3	118.4	111.8	107.4	100.1	96.52	95.38	93.23	91.25	91.27	88.75	87.93	88.19	88.79	87.83	84.78	79.04	73.70	66.06	61.05	54.15	50.05	44.62	40.80	36.79	32.74	30.39	30.47	29.67	24.02	18.74	15.26	13.17	10.89	9.530	7.986	6.538	5.914	6.396	8.561	30.71	170.6	560.9	769.1	276.9	9.294	1.611	1.378	1.316	1.237	1.175	1.185	1.131	1.107	1.057	1.150	1.056	1.096	1.010	1.132	1.104	1.053
515.0	68.91	97.23	124.2	184.6	181.0	165.6	318.6	1274	1128	208.5	186.1	173.8	160.2	142.1	126.1	113.5	105.8	98.91	93.44	87.60	83.11	82.13	81.20	78.32	77.47	76.45	75.37	74.57	76.46	76.35	73.57	68.73	63.19	57.43	52.03	48.45	44.36	40.03	36.11	32.73	29.83	26.63	25.66	26.22	25.81	19.67	14.85	12.69	10.81	9.098	7.774	7.068	5.803	5.506	5.524	9.978	40.62	128.1	312.9	811.4	191.9	9.182	1.422	1.292	1.242	1.053	1.073	1.156	1.022	1.060	0.960	0.865	1.013	0.886	0.957	1.064	0.965
520.0	66.19	83.13	113.3	147.7	183.4	148.2	188.7	663.9	1693	338.7	162.2	157.1	141.5	130.1	115.5	103.4	93.74	88.07	81.49	78.36	75.53	72.99	71.29	70.52	69.42	68.06	67.81	66.87	68.20	66.00	65.13	62.15	56.60	51.74	47.67	43.90	39.59	35.78	33.02	30.01	27.19	25.04	22.72	22.55	24.09	21.11	15.19	12.35	10.44	8.886	7.663	6.955	5.988	5.466	4.761	5.280	11.71	30.83	74.58	410.8	759.2	148.5	3.500	1.239	1.308	1.027	0.970	0.992	0.938	0.949	0.919	0.944	0.830	0.768	0.885	0.831	0.834
525.0	61.11	85.52	104.8	124.2	179.9	138.7	144.0	289.9	1628	764.9	155.3	138.7	132.6	119.2	103.9	92.58	85.16	77.60	74.06	69.06	67.19	65.48	64.18	63.06	62.25	60.58	61.06	59.84	60.54	60.09	59.20	55.91	51.08	47.09	42.31	39.20	35.91	32.84	30.45	27.62	25.07	22.76	21.28	19.88	21.02	20.91	16.53	12.19	9.866	8.691	7.482	6.744	6.100	5.303	4.478	4.111	5.037	9.081	18.90	103.1	501.9	643.0	25.45	1.672	1.184	0.985	0.909	1.054	0.873	0.959	0.969	0.851	0.834	0.940	0.716	0.761	0.940
530.0	53.86	76.62	87.38	101.6	145.5	141.8	126.2	161.2	804.6	1515	306.5	124.4	114.5	102.6	90.10	81.30	72.87	67.74	64.18	59.66	58.36	56.87	54.91	54.31	53.70	52.14	52.07	51.71	51.84	52.62	51.05	49.21	44.94	41.11	37.18	34.44	31.85	29.54	27.02	24.63	22.71	20.31	18.86	17.36	17.11	17.66	16.76	12.86	9.561	8.241	7.067	6.249	5.643	5.177	4.488	3.859	3.695	4.171	6.267	24.75	126.0	391.7	486.9	108.9	6.813	1.004	0.932	0.950	0.839	0.810	0.883	0.767	0.742	0.803	0.650	0.724	0.771
535.0	46.80	66.15	74.47	87.11	110.8	147.4	117.3	118.5	273.8	1380	983.0	122.0	99.73	87.32	78.62	70.26	63.16	58.94	55.02	51.17	50.41	47.60	46.13	46.33	46.82	45.53	44.46	44.73	44.80	45.13	44.46	41.05	38.36	35.76	32.16	30.27	27.63	25.47	23.93	21.89	20.01	18.19	16.68	15.28	14.38	14.12	14.72	13.67	9.645	7.611	6.624	5.815	5.283	4.818	4.647	3.935	3.290	3.234	3.301	7.463	29.66	89.58	220.9	535.1	162.6	4.994	0.954	0.845	0.824	0.753	0.734	0.695	0.645	0.710	0.709	0.696	0.769
540.0	44.07	63.73	68.36	76.25	91.08	130.9	120.7	97.92	140.2	732.9	1588	175.1	88.06	77.59	71.34	64.59	56.45	52.64	49.14	46.25	44.95	42.73	43.65	40.44	40.92	40.05	39.28	38.91	39.95	39.21	38.88	36.72	34.53	31.79	29.27	26.74	24.81	22.77	21.75	19.70	18.10	16.77	15.11	14.18	13.17	11.90	12.28	13.31	10.23	7.416	6.174	5.651	4.965	4.501	4.105	4.009	3.491	2.716	2.719	3.465	8.199	21.35	53.13	296.2	510.2	27.79	2.090	0.805	0.800	0.682	0.721	0.708	0.673	0.616	0.649	0.629	0.662
545.0	42.09	55.59	61.63	66.30	75.59	105.2	128.4	92.40	102.5	283.9	1697	552.7	81.94	72.15	64.66	57.87	51.09	46.67	43.34	42.43	39.76	38.99	38.50	36.25	37.11	36.53	34.96	34.90	35.92	36.29	35.16	33.15	30.71	28.21	26.14	24.27	22.69	20.59	19.63	18.24	16.70	15.28	14.02	13.34	12.45	10.91	10.63	11.29	10.86	7.671	6.201	5.308	4.758	4.264	3.989	3.812	3.363	2.696	2.490	2.564	3.311	6.221	13.06	75.87	360.2	398.7	22.64	1.176	0.814	0.678	0.661	0.711	0.598	0.573	0.653	0.581	0.693
550.0	39.01	48.28	55.65	58.56	61.83	77.57	124.1	92.26	85.84	128.4	859.1	1361	187.4	64.18	55.38	50.06	45.23	41.23	38.66	36.10	35.09	33.13	32.53	31.53	31.20	30.69	30.13	30.23	30.25	30.88	30.24	28.95	26.12	24.53	22.73	21.27	19.68	17.98	17.19	15.89	14.35	13.15	12.60	11.63	10.76	9.976	9.205	8.770	9.395	8.222	6.268	5.066	4.464	4.031	3.835	3.420	3.334	2.869	2.407	2.129	2.180	2.584	4.109	18.06	91.85	267.6	282.5	96.72	4.969	0.757	0.717	0.711	0.635	0.497	0.673	0.513	0.606
555.0	36.28	44.69	52.82	54.08	55.65	63.77	96.69	101.7	75.76	83.77	260.8	1393	726.0	61.21	47.33	42.30	37.64	36.05	32.74	31.37	30.39	28.51	28.43	27.31	26.35	25.71	24.86	25.66	26.63	25.38	25.82	24.08	22.90	21.16	19.06	18.13	17.09	15.58	14.74	13.56	12.66	11.69	10.88	10.05	9.631	8.529	7.750	7.361	7.432	7.698	6.747	5.108	4.069	3.678	3.576	3.009	2.918	2.787	2.398	1.980	1.768	1.796	2.091	5.010	21.42	61.22	146.2	371.0	131.0	3.412	0.785	0.671	0.560	0.487	0.561	0.577	0.591
560.0	39.24	40.61	44.54	47.98	48.64	52.47	71.96	108.7	71.93	68.27	110.3	759.5	1224	105.2	42.55	36.96	34.15	31.18	29.32	27.49	26.53	25.80	24.57	23.85	23.79	22.37	22.14	22.22	22.90	23.12	22.33	20.68	19.87	18.30	16.99	16.00	15.12	14.09	13.13	12.19	11.15	10.51	9.946	9.281	8.450	7.798	7.211	6.329	6.129	6.346	6.503	5.131	3.908	3.367	3.310	2.869	2.778	2.479	2.380	2.091	1.697	1.517	1.484	1.952	5.648	14.56	35.82	211.7	351.9	26.33	1.368	0.679	0.549	0.593	0.522	0.497	0.471
565.0	32.92	40.95	41.59	44.31	43.82	44.78	53.97	98.02	78.49	62.03	73.03	270.3	1528	394.4	39.93	33.53	30.54	27.65	25.78	24.53	22.85	22.73	21.53	21.13	20.70	19.72	19.49	20.06	19.98	20.39	19.91	18.52	17.46	16.25	15.37	13.76	13.06	12.19	11.71	10.64	9.707	9.483	8.598	8.310	7.738	6.841	6.310	5.654	5.347	5.085	5.738	5.400	3.835	3.409	2.847	2.631	2.544	2.294	2.145	2.098	1.739	1.422	1.320	1.414	2.116	4.028	8.742	54.27	249.4	221.4	19.94	0.913	0.633	0.562	0.532	0.462	0.460
570.0	30.71	35.18	37.69	39.66	38.53	40.02	44.19	72.33	90.24	59.13	60.87	104.7	794.7	1181	74.19	28.11	25.36	22.60	21.23	19.40	18.71	18.54	17.57	17.54	16.96	16.44	15.93	16.16	16.06	16.73	16.43	15.29	14.31	13.47	12.86	11.39	10.87	10.18	9.711	8.917	8.171	7.893	7.307	6.989	6.529	5.878	5.376	4.961	4.525	4.266	4.105	4.808	4.067	3.202	2.630	2.408	2.167	2.039	1.934	1.916	1.773	1.434	1.216	1.186	1.379	1.733	2.592	12.84	63.69	166.9	206.7	68.37	2.929	0.535	0.499	0.456	0.473
575.0	33.21	36.81	36.83	34.93	32.32	33.21	36.10	48.32	86.65	70.12	56.57	66.15	226.9	1335	463.7	25.73	20.54	18.49	16.49	15.49	14.99	14.91	14.06	13.44	13.60	13.23	12.42	12.86	13.04	12.88	12.70	12.21	11.19	10.37	9.901	9.259	8.485	8.064	7.457	7.208	6.499	6.389	5.959	5.650	5.252	4.937	4.416	4.235	3.582	3.461	3.069	3.300	3.894	3.036	2.290	1.949	1.841	1.695	1.682	1.450	1.625	1.455	1.169	0.992	1.069	1.134	1.273	3.500	14.80	38.23	97.14	223.0	28.36	1.870	0.518	0.416	0.412
580.0	33.82	36.01	38.06	32.45	31.18	32.26	32.31	36.95	72.27	79.65	56.33	59.45	89.75	707.1	874.5	53.72	17.65	16.85	13.98	12.89	12.85	12.28	11.63	11.19	10.93	10.69	10.25	10.17	10.49	10.93	10.40	9.883	9.436	8.973	8.182	7.688	7.121	6.502	6.147	5.854	5.335	5.279	5.117	4.778	4.359	4.185	3.704	3.476	3.057	2.766	2.450	2.605	3.129	2.990	2.096	1.770	1.830	1.403	1.353	1.306	1.287	1.445	1.320	0.915	0.979	0.855	0.902	1.360	3.872	9.147	23.68	122.0	183.5	23.28	0.859	0.440	0.406
585.0	33.04	36.12	40.39	28.05	26.76	25.16	30.01	30.52	52.64	90.45	59.23	58.49	59.63	236.4	1212	206.6	15.04	13.36	11.82	11.12	10.55	10.67	9.369	9.433	9.488	8.836	8.548	8.421	8.937	8.766	8.330	7.915	7.546	7.042	6.601	6.202	5.756	5.494	5.126	5.182	4.517	4.211	4.344	3.900	3.622	3.435	3.265	2.832	2.426	2.377	2.085	2.056	2.334	2.707	2.282	1.742	1.447	1.416	1.269	1.178	1.028	1.149	1.385	1.100	0.905	0.752	0.816	0.803	1.369	2.565	5.861	31.41	130.7	146.3	15.63	0.533	0.361
590.0	33.46	38.69	36.60	26.90	23.86	21.50	23.89	28.33	38.41	78.87	73.14	58.62	53.17	81.37	638.2	749.4	41.44	10.36	9.453	8.898	8.541	7.838	7.499	7.260	7.089	6.769	6.819	6.486	6.602	6.713	6.471	6.240	5.989	5.568	5.288	4.804	4.485	4.226	3.927	3.933	3.621	3.443	3.185	3.243	2.856	2.822	2.515	2.210	2.007	1.966	1.777	1.645	1.681	2.063	2.040	1.712	1.346	1.134	1.060	1.036	0.923	0.937	1.054	1.107	0.981	0.756	0.751	0.782	0.876	1.053	1.801	7.436	33.35	93.40	104.4	18.22	1.717
595.0	35.38	37.02	36.80	25.57	24.25	18.90	20.53	27.07	33.12	56.68	89.55	63.67	52.62	44.33	166.8	854.3	302.2	9.933	7.262	7.047	6.394	6.093	6.096	5.579	5.516	5.649	5.409	4.894	5.401	5.341	5.159	4.926	4.862	4.126	3.782	3.699	3.409	3.228	3.088	2.919	2.822	2.843	2.380	2.502	2.359	2.166	1.959	1.708	1.698	1.512	1.389	1.211	1.214	1.424	1.466	1.656	1.314	0.990	0.949	0.754	0.722	0.809	0.901	0.949	0.998	0.937	0.661	0.659	0.722	0.719	0.740	2.095	7.796	21.34	45.92	103.1	26.13
600.0	35.08	34.34	33.72	23.91	19.30	17.54	18.46	22.21	30.64	45.30	90.89	69.22	53.11	36.52	51.31	453.1	639.9	25.69	6.091	5.676	5.340	4.947	5.028	4.828	4.640	4.494	4.244	4.104	4.388	4.290	4.012	3.863	3.861	3.539	3.178	3.090	2.950	2.719	2.753	2.287	2.264	2.186	2.160	1.996	1.997	1.682	1.647	1.497	1.436	1.344	1.159	1.087	1.070	1.159	1.082	1.350	1.408	0.908	0.836	0.802	0.756	0.781	0.738	0.642	0.937	0.883	0.707	0.721	0.653	0.596	0.618	0.819	2.111	5.091	11.21	55.35	94.26
605.0	31.93	39.82	31.47	24.39	18.46	17.26	17.28	21.76	30.15	40.56	78.13	79.59	53.64	33.21	24.88	142.9	823.9	70.50	5.974	5.167	4.731	4.169	4.309	3.909	3.830	3.702	3.609	3.589	3.615	3.637	3.548	3.408	3.044	2.970	2.675	2.714	2.594	2.392	2.263	2.058	1.936	1.935	1.888	1.793	1.660	1.584	1.557	1.346	1.248	1.162	1.045	0.967	0.906	0.889	0.881	1.235	1.273	0.992	0.940	0.679	0.641	0.727	0.676	0.611	0.715	0.904	0.847	0.645	0.600	0.615	0.639	0.611	0.856	1.499	2.869	14.38	64.48
610.0	30.22	36.38	33.40	24.50	15.36	17.05	16.38	21.28	28.30	38.97	59.96	84.67	57.43	33.64	19.11	40.43	420.2	501.4	24.10	4.470	4.107	3.666	3.760	3.311	3.178	3.046	2.929	2.898	3.013	3.000	2.906	2.863	2.568	2.480	2.396	2.192	2.185	1.936	1.983	1.756	1.584	1.620	1.527	1.409	1.396	1.308	1.237	1.128	1.059	0.881	0.860	0.771	0.759	0.751	0.769	0.871	0.983	0.942	0.867	0.625	0.641	0.669	0.619	0.596	0.620	0.722	0.812	0.757	0.675	0.589	0.566	0.505	0.533	0.650	0.934	3.534	16.45
615.0	28.98	32.44	32.63	22.72	16.01	15.21	18.23	18.89	26.86	34.33	50.53	74.07	63.13	32.43	16.95	16.63	105.1	587.5	196.4	4.869	3.513	2.908	2.912	2.880	2.864	2.350	2.539	2.391	2.273	2.376	2.309	2.382	2.174	2.208	2.157	1.879	1.887	1.638	1.516	1.385	1.387	1.336	1.128	1.190	1.131	1.081	1.044	0.933	0.811	0.722	0.661	0.629	0.625	0.582	0.564	0.661	0.790	0.864	0.888	0.670	0.587	0.543	0.570	0.546	0.585	0.602	0.581	0.805	0.714	0.570	0.490	0.476	0.460	0.397	0.525	1.073	3.935
620.0	33.46	30.79	29.86	20.57	13.56	13.60	18.47	19.41	24.03	33.49	46.86	63.39	69.23	31.76	16.33	10.97	28.95	315.4	475.0	14.38	3.144	2.809	2.449	2.503	2.324	2.316	1.914	2.012	1.978	1.942	1.924	2.016	1.801	1.797	1.698	1.528	1.625	1.474	1.339	1.228	1.112	1.015	1.085	0.913	1.029	0.876	0.820	0.733	0.787	0.659	0.615	0.645	0.607	0.604	0.578	0.586	0.656	0.627	0.745	0.655	0.606	0.509	0.541	0.482	0.514	0.601	0.549	0.665	0.740	0.562	0.430	0.457	0.384	0.439	0.396	0.517	1.183
625.0	33.49	28.42	28.03	18.39	12.49	14.34	16.55	19.82	22.64	32.19	41.69	53.31	68.63	36.06	16.64	9.476	11.37	98.24	598.8	55.03	3.150	2.478	2.259	2.076	2.054	1.984	1.630	1.772	1.942	1.874	1.838	1.812	1.549	1.528	1.508	1.379	1.413	1.290	1.203	1.075	1.038	0.939	0.877	0.933	0.841	0.858	0.766	0.649	0.636	0.584	0.527	0.611	0.515	0.544	0.498	0.600	0.637	0.519	0.693	0.645	0.576	0.487	0.495	0.491	0.490	0.592	0.472	0.485	0.661	0.641	0.510	0.445	0.394	0.477	0.327	0.346	0.582
630.0	25.65	31.38	25.82	19.14	13.40	13.03	13.88	17.40	20.86	29.20	38.74	45.04	55.73	42.56	16.33	9.299	7.372	26.65	320.1	367.6	17.47	2.338	2.088	1.950	1.723	1.792	1.567	1.488	1.603	1.479	1.532	1.481	1.282	1.296	1.283	1.160	1.128	1.128	1.025	0.898	0.873	0.768	0.749	0.799	0.724	0.676	0.693	0.629	0.579	0.568	0.487	0.458	0.408	0.460	0.439	0.487	0.518	0.443	0.512	0.570	0.586	0.475	0.468	0.477	0.456	0.512	0.494	0.480	0.514	0.651	0.613	0.451	0.413	0.443	0.349	0.330	0.486
635.0	24.65	25.64	25.16	17.69	13.32	11.89	13.48	14.96	21.29	26.64	34.78	39.95	42.45	47.61	18.74	9.338	6.761	9.426	79.27	449.5	148.6	2.614	1.842	1.578	1.543	1.384	1.259	1.291	1.340	1.267	1.186	1.300	1.134	1.084	0.997	0.916	0.971	0.952	0.868	0.848	0.691	0.706	0.676	0.661	0.564	0.610	0.626	0.543	0.590	0.464	0.421	0.485	0.442	0.474	0.375	0.462	0.452	0.413	0.399	0.454	0.536	0.412	0.454	0.423	0.417	0.546	0.456	0.454	0.451	0.564	0.655	0.450	0.398	0.391	0.440	0.263	0.382
640.0	26.37	25.53	23.45	18.71	12.82	12.76	11.42	14.59	18.65	26.02	33.04	36.83	35.47	43.30	24.15	9.850	7.152	6.084	21.06	254.2	360.7	8.582	1.833	1.613	1.426	1.154	1.257	1.135	1.173	1.072	1.107	1.117	1.027	0.955	0.844	0.844	0.820	0.787	0.846	0.814	0.640	0.703	0.587	0.692	0.584	0.541	0.532	0.427	0.442	0.446	0.357	0.414	0.399	0.360	0.414	0.406	0.436	0.407	0.371	0.398	0.429	0.390	0.435	0.444	0.449	0.437	0.454	0.449	0.452	0.484	0.500	0.561	0.408	0.399	0.409	0.322	0.355
645.0	23.84	23.51	25.63	17.92	12.80	10.29	13.03	14.81	18.78	24.32	30.91	33.91	33.01	33.75	29.75	10.33	6.897	5.337	8.110	82.13	459.1	43.04	1.820	1.327	1.359	1.154	0.982	1.159	1.098	1.067	1.050	0.898	0.937	0.808	0.836	0.745	0.704	0.724	0.694	0.695	0.639	0.642	0.542	0.573	0.520	0.540	0.482	0.421	0.441	0.403	0.383	0.307	0.397	0.322	0.364	0.402	0.368	0.401	0.423	0.364	0.397	0.402	0.431	0.420	0.478	0.424	0.426	0.442	0.412	0.440	0.548	0.528	0.396	0.381	0.354	0.323	0.325
650.0	29.62	26.41	26.30	16.61	12.52	10.68	11.68	13.25	16.49	23.90	29.17	30.93	30.77	28.87	30.47	12.80	6.935	5.104	4.797	21.89	336.0	198.4	2.958	1.500	1.141	1.084	0.851	1.018	1.008	1.015	1.035	0.879	0.853	0.692	0.761	0.731	0.643	0.675	0.668	0.566	0.611	0.575	0.680	0.591	0.537	0.463	0.419	0.414	0.373	0.370	0.403	0.296	0.382	0.295	0.355	0.333	0.365	0.385	0.349	0.319	0.421	0.378	0.442	0.384	0.378	0.341	0.427	0.405	0.429	0.453	0.499	0.475	0.406	0.469	0.367	0.291	0.359
