Sample:	'1
File name:	t2025040805»ôÆÂÇÅ.FD3
Run date:	'10:56:00, 04/09/2025
Operator:	Administrator
Comment:	'

Instrument
Model:	F-2700 FL Spectrophotometer
Serial number:	23B8-004
ROM Version:	4J14000 07

Instrument parameters
Measurement type:	3-D scan
Data mode:	Fluorescence
EX  Start WL:	220.0 nm
EX  End WL:	600.0 nm
EX Sampling interval:	5.0 nm
EM  Start WL:	230.0 nm
EM  End WL:	650.0 nm
EM Sampling interval:	5.0 nm
Scan speed:	12000 nm/min
EX Slit:	5.0 nm
EM Slit:	5.0 nm
PMT Voltage:	700 V
Response:	Auto 
Corrected spectra:	Off
Contour interval:	50.000

Peak integration
Integration method:	Rectangular
Sensitivity:	1
Threshold:	1.000

Peaks
No.	ApexEX/EM(nm)	Height(Data)
1	225.0/565.0	56.36
2	225.0/590.0	53.04
3	225.0/615.0	55.14
4	225.0/625.0	51.55
5	225.0/635.0	51.48
6	230.0/340.0	1496
7	235.0/510.0	272.2
8	240.0/525.0	233.3
9	245.0/535.0	200.1
10	250.0/550.0	158.3
11	255.0/280.0	541.8
12	255.0/565.0	134.0
13	260.0/290.0	522.5
14	260.0/575.0	109.4
15	265.0/295.0	710.2
16	265.0/585.0	101.5
17	270.0/600.0	95.86
18	275.0/310.0	1338
19	275.0/615.0	97.21
20	280.0/315.0	1392
21	280.0/625.0	87.24
22	285.0/320.0	1374
23	285.0/640.0	70.93
24	315.0/355.0	388.1
25	320.0/365.0	377.1
26	325.0/370.0	357.4
27	330.0/375.0	351.6
28	335.0/380.0	345.5
29	340.0/390.0	315.1
30	350.0/400.0	295.1
31	365.0/420.0	247.3
32	440.0/520.0	22.29
33	455.0/335.0	4.512
34	460.0/340.0	4.522
35	505.0/275.0	3.176
36	510.0/280.0	3.535
37	515.0/285.0	3.581
38	530.0/290.0	3.693
39	545.0/300.0	5.766
40	550.0/305.0	7.110
41	560.0/310.0	7.585
42	570.0/315.0	7.756
43	575.0/320.0	7.545
44	585.0/325.0	7.304

Data points
	220.0	225.0	230.0	235.0	240.0	245.0	250.0	255.0	260.0	265.0	270.0	275.0	280.0	285.0	290.0	295.0	300.0	305.0	310.0	315.0	320.0	325.0	330.0	335.0	340.0	345.0	350.0	355.0	360.0	365.0	370.0	375.0	380.0	385.0	390.0	395.0	400.0	405.0	410.0	415.0	420.0	425.0	430.0	435.0	440.0	445.0	450.0	455.0	460.0	465.0	470.0	475.0	480.0	485.0	490.0	495.0	500.0	505.0	510.0	515.0	520.0	525.0	530.0	535.0	540.0	545.0	550.0	555.0	560.0	565.0	570.0	575.0	580.0	585.0	590.0	595.0	600.0
230.0	52.63	1279	3823	1430	57.25	7.764	6.469	5.182	4.611	4.560	4.539	4.237	4.558	3.219	2.713	2.554	2.131	2.106	1.818	1.706	1.351	1.306	1.319	1.214	1.090	1.160	1.032	0.848	0.871	0.857	0.840	0.825	0.789	0.737	0.666	0.676	0.671	0.610	0.513	0.491	0.516	0.572	0.523	0.491	0.502	0.434	1.252	6.295	12.56	9.659	4.351	0.910	0.341	0.337	0.316	0.291	0.270	0.285	0.308	0.325	0.270	0.256	0.272	0.261	0.288	0.250	0.260	0.288	0.251	0.249	0.247	0.240	0.219	0.243	0.223	0.251	0.239
235.0	107.4	354.8	2434	4603	585.9	69.96	8.072	6.440	4.921	5.070	4.658	3.670	4.244	3.085	3.330	2.675	2.453	2.108	1.984	1.801	1.421	1.470	1.386	1.119	1.106	1.111	1.122	0.953	0.906	0.887	0.772	0.788	0.801	0.694	0.706	0.607	0.595	0.605	0.606	0.548	0.436	0.523	0.491	0.599	0.601	0.566	0.581	1.883	4.958	9.622	16.59	17.24	7.357	1.375	0.342	0.298	0.345	0.301	0.268	0.354	0.297	0.272	0.239	0.291	0.232	0.307	0.305	0.268	0.284	0.237	0.242	0.274	0.249	0.237	0.216	0.232	0.235
240.0	144.5	168.8	735.6	3946	4463	465.0	37.61	8.214	6.941	6.723	5.056	3.951	4.680	3.410	3.289	2.619	2.496	1.916	1.945	1.688	1.499	1.542	1.425	1.269	1.102	1.226	1.169	0.967	0.934	0.839	0.839	0.868	0.697	0.682	0.703	0.563	0.618	0.596	0.516	0.580	0.499	0.520	0.427	0.517	0.838	0.892	0.537	0.802	1.413	2.958	9.262	22.44	25.62	15.43	5.019	0.814	0.332	0.332	0.336	0.349	0.304	0.267	0.257	0.266	0.273	0.281	0.281	0.305	0.309	0.246	0.229	0.276	0.298	0.207	0.254	0.266	0.220
245.0	110.3	213.8	236.2	1363	5712	3757	349.7	14.70	8.383	7.437	6.354	4.754	5.188	3.704	3.764	2.968	2.596	2.210	2.364	1.894	1.464	1.579	1.388	1.365	1.062	1.237	1.147	1.123	1.008	0.992	0.859	0.917	0.691	0.806	0.659	0.661	0.649	0.622	0.537	0.615	0.448	0.469	0.430	0.494	0.638	0.862	0.784	0.880	0.682	0.959	2.458	7.665	19.37	28.96	25.17	13.91	2.978	0.495	0.353	0.332	0.351	0.261	0.278	0.240	0.282	0.337	0.319	0.257	0.276	0.266	0.275	0.280	0.310	0.237	0.261	0.241	0.230
250.0	55.32	158.0	260.6	396.0	1888	5340	5544	1273	76.31	10.00	9.117	6.577	6.626	4.672	3.782	3.302	2.932	2.537	2.268	2.202	1.605	1.642	1.566	1.432	1.253	1.330	1.310	1.189	1.088	0.940	0.914	0.846	0.732	0.734	0.688	0.709	0.735	0.640	0.618	0.599	0.468	0.578	0.475	0.538	0.538	0.582	0.653	0.908	1.002	0.918	1.035	2.083	4.920	9.832	17.76	27.95	30.79	28.59	11.65	3.719	0.586	0.327	0.306	0.355	0.346	0.325	0.325	0.278	0.261	0.311	0.262	0.279	0.346	0.240	0.296	0.293	0.268
255.0	43.57	64.27	194.1	354.6	506.9	1394	5315	9529	1757	77.51	14.22	8.664	9.178	5.662	4.948	3.972	3.028	2.829	2.564	2.296	1.837	1.523	1.608	1.427	1.401	1.419	1.206	1.220	1.126	0.926	1.004	0.913	0.841	0.809	0.767	0.742	0.841	0.755	0.554	0.483	0.546	0.552	0.448	0.487	0.603	0.535	0.504	0.625	0.690	0.967	1.454	1.559	1.658	2.485	4.321	7.065	13.72	34.40	56.83	29.37	19.60	3.932	0.444	0.353	0.383	0.354	0.342	0.304	0.279	0.337	0.291	0.301	0.310	0.267	0.229	0.277	0.266
260.0	41.03	45.01	82.96	295.3	347.3	366.4	1706	8845	9999.9	1281	40.71	13.09	11.24	7.374	5.872	4.798	3.330	3.336	2.573	2.485	2.194	1.778	1.629	1.478	1.419	1.637	1.240	1.232	1.155	1.051	1.050	0.996	0.876	0.876	0.820	0.786	0.765	0.670	0.628	0.487	0.554	0.632	0.459	0.533	0.620	0.590	0.473	0.473	0.474	0.556	1.085	1.936	1.713	1.328	1.354	1.975	3.517	9.893	27.85	54.72	88.02	28.32	14.80	1.820	0.480	0.404	0.416	0.383	0.279	0.357	0.319	0.338	0.291	0.335	0.320	0.268	0.334
265.0	43.84	36.28	47.47	154.9	379.3	253.7	424.8	3178	9999.9	9999.9	208.0	20.36	13.72	9.323	7.629	5.214	4.102	3.712	2.955	2.740	2.135	1.876	1.951	1.632	1.452	1.581	1.441	1.566	1.218	1.085	1.243	0.950	0.956	1.092	0.812	0.813	0.884	0.652	0.709	0.595	0.607	0.571	0.546	0.595	0.548	0.503	0.512	0.491	0.496	0.388	0.542	1.085	1.884	2.154	1.350	0.916	1.206	2.579	6.975	17.99	54.57	79.80	88.20	25.56	10.26	0.843	0.491	0.418	0.377	0.411	0.375	0.294	0.337	0.331	0.299	0.293	0.290
270.0	59.10	46.89	41.08	62.78	195.5	377.2	300.3	773.6	3661	9999.9	9999.9	3094	60.49	14.57	9.940	6.946	5.402	4.681	3.447	3.225	2.422	2.101	1.902	1.801	1.668	1.832	1.689	1.500	1.238	1.266	1.231	1.113	1.019	1.007	0.956	0.908	0.895	0.781	0.698	0.669	0.651	0.643	0.571	0.619	0.617	0.578	0.529	0.481	0.495	0.404	0.461	0.684	0.855	1.418	1.802	2.091	1.796	1.379	2.085	4.429	13.34	24.30	48.54	68.80	108.2	70.81	17.82	8.019	1.112	0.478	0.445	0.415	0.376	0.372	0.332	0.361	0.343
275.0	89.23	75.97	64.72	50.12	73.99	195.7	486.9	383.7	871.9	2644	9999.9	9999.9	1181	54.16	15.12	10.17	7.357	6.128	4.771	3.876	3.127	2.405	2.355	2.130	1.875	1.946	1.846	1.697	1.390	1.393	1.457	1.288	1.131	1.205	1.124	0.979	0.952	0.802	0.820	0.788	0.687	0.691	0.687	0.694	0.675	0.687	0.647	0.625	0.562	0.515	0.468	0.582	0.571	0.687	0.851	1.357	2.453	3.176	2.298	1.682	3.474	5.919	11.41	16.34	34.16	62.46	163.2	125.6	27.17	9.717	0.717	0.620	0.390	0.461	0.423	0.437	0.382
280.0	122.7	115.7	99.59	70.56	54.37	86.87	337.7	541.8	322.7	661.5	3184	9999.9	9999.9	846.4	31.34	14.32	9.878	7.568	5.919	4.464	3.311	3.046	2.670	2.360	2.086	2.201	1.920	1.970	1.575	1.534	1.410	1.414	1.250	1.267	1.264	1.079	1.013	0.889	0.748	0.803	0.713	0.762	0.706	0.814	0.806	0.710	0.713	0.712	0.690	0.615	0.548	0.659	0.517	0.581	0.615	0.778	1.352	2.534	3.535	3.009	1.862	1.971	3.106	4.162	8.324	16.02	60.73	100.4	138.5	116.3	22.11	4.191	0.621	0.514	0.405	0.458	0.478
285.0	159.6	180.9	152.3	100.8	63.74	61.36	151.5	511.7	339.3	253.3	820.5	4095	9999.9	8468	116.6	21.33	13.10	9.858	7.404	5.406	4.040	3.419	2.919	2.254	2.324	2.325	2.056	1.995	1.648	1.601	1.403	1.458	1.410	1.262	1.410	1.152	1.135	1.038	0.795	0.917	0.851	0.763	0.735	0.898	0.887	0.746	0.771	0.899	0.928	0.749	0.639	0.764	0.585	0.628	0.601	0.618	0.732	1.168	2.184	3.581	3.418	2.136	1.508	1.482	2.651	4.376	14.54	26.40	62.01	129.4	154.9	32.17	16.46	1.763	0.610	0.540	0.606
290.0	226.2	271.7	232.2	156.2	91.95	75.27	97.80	239.8	522.5	476.9	350.5	1083	4500	9999.9	9999.9	2280	37.31	14.94	10.32	7.200	5.152	4.387	3.541	2.934	2.682	2.678	2.250	2.214	1.907	1.740	1.599	1.661	1.450	1.440	1.493	1.324	1.305	1.207	1.033	1.045	0.896	0.890	0.936	0.977	1.020	1.064	1.029	1.141	1.152	0.928	0.877	0.845	0.722	0.734	0.644	0.701	0.666	0.875	1.112	1.772	2.595	3.568	3.693	2.788	2.028	1.935	4.375	6.985	14.96	33.97	62.57	82.66	120.3	95.00	67.05	11.83	2.338
295.0	311.6	378.8	349.2	219.9	138.3	118.9	120.4	172.9	306.0	710.2	659.7	506.6	1229	2727	9999.9	9999.9	669.7	38.02	15.24	10.42	6.409	5.626	4.405	3.709	3.195	3.317	2.808	2.332	2.022	2.075	1.721	1.840	1.720	1.628	1.615	1.380	1.451	1.301	1.093	1.075	1.058	0.910	1.073	1.039	1.189	1.406	1.205	1.416	1.485	1.188	1.068	1.053	0.849	0.763	0.868	0.827	0.876	0.970	1.008	1.310	1.590	1.938	2.879	4.493	5.066	3.041	2.635	3.126	4.675	8.918	15.19	19.71	31.46	57.62	128.5	165.7	33.97
300.0	366.3	467.0	442.4	298.8	191.8	163.1	177.1	222.7	302.6	577.0	1026	667.4	619.2	865.3	3271	9999.9	9999.9	506.1	25.45	13.74	8.483	6.962	5.036	4.064	3.579	3.657	3.008	2.669	2.159	2.314	2.127	1.931	1.662	1.670	1.664	1.673	1.565	1.598	1.253	1.209	1.198	1.028	1.068	1.227	1.309	1.536	1.599	1.686	1.722	1.381	1.235	1.322	1.150	1.018	0.998	1.093	1.115	1.289	1.229	1.410	1.570	1.863	2.425	3.187	5.083	5.766	4.644	3.335	3.126	3.928	5.370	5.990	8.564	14.67	38.71	95.97	159.3
305.0	481.4	597.6	540.3	379.9	257.0	240.7	280.9	338.8	456.5	662.2	1050	1232	767.4	626.1	1070	4315	9999.9	9999.9	75.42	20.01	11.42	8.352	5.963	5.044	4.054	4.204	3.604	2.858	2.471	2.429	2.220	2.077	1.699	1.779	1.648	1.642	1.652	1.728	1.428	1.474	1.285	1.229	1.166	1.471	1.575	1.608	1.738	2.072	1.856	1.663	1.461	1.602	1.451	1.270	1.348	1.297	1.559	1.790	1.819	2.028	2.347	2.561	2.901	3.441	4.454	5.738	7.110	6.496	4.844	3.934	3.805	3.837	4.267	5.401	10.46	24.42	58.06
310.0	583.0	723.2	685.1	472.1	342.9	328.2	379.5	478.0	616.6	824.6	1020	1338	1294	823.3	704.5	1296	4329	9999.9	9999.9	1730	28.02	12.04	8.683	6.597	5.069	4.866	4.163	3.417	2.861	2.734	2.314	2.298	1.967	1.910	1.758	1.848	1.918	1.708	1.534	1.598	1.348	1.284	1.274	1.655	1.716	2.041	2.078	2.476	2.291	1.931	1.934	1.863	1.740	1.552	1.549	1.671	2.002	2.126	2.521	2.738	2.970	3.236	3.634	4.217	4.821	5.103	6.018	6.725	7.585	6.842	5.798	4.498	4.071	4.047	4.800	7.567	14.85
315.0	651.0	851.9	821.1	573.1	411.8	396.4	457.8	563.7	702.6	943.8	1088	1226	1392	1215	756.0	674.6	1233	2665	9999.9	9999.9	492.5	29.59	13.09	8.884	6.658	6.060	4.607	3.870	3.469	3.047	2.665	2.602	2.255	2.092	1.918	2.039	2.101	1.768	1.402	1.686	1.419	1.482	1.475	1.869	2.171	2.470	2.431	2.937	2.958	2.291	2.200	2.071	1.901	1.916	1.921	1.987	2.312	2.638	2.922	2.903	3.297	3.667	3.864	4.883	5.451	5.191	6.196	6.054	6.553	6.712	7.756	7.008	5.421	4.813	4.023	4.225	5.265
320.0	751.2	971.1	960.6	653.6	456.7	430.6	507.5	616.7	765.7	1017	1152	1258	1313	1374	995.8	598.3	573.9	761.0	3011	9999.9	9999.9	410.5	21.53	12.04	8.485	7.569	5.562	4.530	3.981	3.114	3.038	2.682	2.363	2.308	1.969	1.876	2.120	2.005	1.726	1.571	1.524	1.596	1.578	2.011	2.038	2.510	2.759	3.270	3.176	2.556	2.486	2.334	2.238	1.949	2.065	2.204	2.587	2.759	2.757	3.237	3.533	3.987	4.139	5.293	5.641	5.644	6.325	6.332	6.091	6.549	6.934	7.545	7.246	6.522	4.220	3.609	3.593
325.0	820.0	1142	1113	750.5	511.2	477.4	532.5	640.4	801.6	1046	1187	1267	1279	1236	1186	690.8	435.2	341.8	758.9	3969	9999.9	9999.9	60.68	16.53	11.41	8.883	6.272	5.142	4.267	3.651	3.559	2.971	2.636	2.447	2.011	2.015	2.136	1.861	1.813	1.785	1.546	1.564	1.706	2.124	2.273	2.743	3.098	3.675	3.639	3.041	2.686	2.585	2.478	2.262	2.083	2.358	2.625	2.770	2.962	3.185	3.690	4.313	4.529	5.094	5.943	5.681	6.425	6.251	6.312	6.625	6.572	6.195	6.932	7.304	6.049	4.000	3.401
330.0	876.2	1271	1306	929.3	617.1	519.9	546.8	648.2	798.2	1029	1171	1255	1258	1134	1042	873.9	505.1	268.6	271.3	967.8	3636	9999.9	9999.9	1519	26.94	12.98	8.703	6.351	5.222	4.130	3.817	3.275	2.868	2.403	2.319	2.141	2.208	1.881	1.860	1.726	1.523	1.747	1.698	1.942	2.493	2.865	3.282	4.105	4.062	3.537	3.170	3.129	2.717	2.456	2.398	2.342	2.556	2.879	3.146	3.440	3.637	4.086	4.639	5.173	5.680	5.557	6.212	6.283	6.312	6.440	6.252	5.828	5.771	6.237	5.767	5.382	4.691
335.0	922.7	1371	1449	1096	778.2	601.3	575.7	658.0	788.5	999.3	1141	1227	1231	1112	926.5	793.4	687.6	345.3	195.2	309.3	877.3	2489	9999.9	9999.9	2286	34.26	12.93	8.700	6.516	4.925	4.640	3.962	3.198	2.754	2.560	2.363	2.303	2.123	2.105	1.863	1.859	1.566	1.825	2.180	2.638	3.089	3.611	4.512	4.435	3.878	3.641	3.675	3.389	2.885	2.589	2.531	2.670	2.858	3.483	3.500	3.688	3.866	4.446	4.881	5.673	5.670	5.855	6.051	6.128	6.130	6.348	5.648	5.360	5.531	4.900	4.416	4.656
340.0	925.6	1374	1496	1158	824.0	621.2	585.9	654.9	780.5	976.7	1105	1182	1188	1072	878.0	704.3	642.3	485.8	215.0	179.2	275.2	619.7	2794	9999.9	9999.9	396.6	22.88	11.41	8.031	5.851	5.102	4.387	3.214	2.956	2.757	2.421	2.209	2.100	1.943	1.794	1.880	1.807	1.940	2.136	2.626	3.195	3.620	4.458	4.522	4.209	3.793	4.071	3.437	3.147	2.740	2.432	2.782	3.051	3.485	3.516	3.898	3.761	4.307	4.630	5.505	5.422	5.819	5.906	5.990	5.925	5.860	5.632	5.456	5.431	4.623	4.167	3.671
345.0	869.6	1271	1475	1169	841.1	640.8	585.4	637.4	755.4	920.7	1043	1110	1122	1025	839.7	671.2	524.7	523.5	321.9	171.5	153.4	213.1	685.8	3393	9999.9	9999.9	315.0	16.89	9.446	7.017	5.666	4.680	3.612	3.259	2.886	2.422	2.382	2.097	1.825	1.872	1.667	1.726	1.801	2.213	2.506	3.090	3.257	4.314	4.495	4.005	3.965	3.832	3.575	3.193	2.778	2.610	2.787	3.007	3.349	3.577	3.430	3.763	4.112	4.698	4.976	5.385	5.609	5.307	5.644	5.634	5.536	5.145	5.250	5.148	4.644	4.064	3.472
350.0	816.8	1183	1354	1158	863.3	658.2	594.7	632.8	712.0	860.0	965.3	1018	1023	940.2	788.4	646.8	476.8	420.3	410.3	283.4	165.6	145.3	230.5	819.1	3434	9999.9	9999.9	1511	26.60	10.04	7.513	5.806	4.235	3.614	3.132	2.530	2.496	2.256	2.044	1.842	1.794	1.666	1.708	1.966	2.387	2.983	3.224	3.938	4.137	3.903	3.702	3.904	3.597	3.297	2.989	2.669	2.763	2.875	3.120	3.244	3.290	3.576	3.847	4.318	4.743	4.845	5.074	4.892	5.218	5.166	5.174	5.037	4.973	4.965	4.102	3.884	3.423
355.0	757.0	1085	1243	1095	858.8	679.5	595.8	634.0	691.8	816.6	885.5	935.2	943.9	871.2	753.1	621.7	471.6	388.0	353.4	388.1	266.8	164.5	152.7	258.6	819.7	2411	8786	9999.9	2531	31.92	11.03	7.793	5.759	4.351	3.631	2.923	2.914	2.333	1.897	1.937	1.793	1.604	1.824	1.836	2.175	2.993	3.021	3.572	3.957	3.711	3.502	3.953	3.735	3.391	2.982	2.783	2.832	3.097	2.997	3.076	3.145	3.268	3.877	3.878	4.171	4.499	4.580	4.667	4.940	4.459	4.843	4.525	4.749	4.764	4.131	4.008	3.493
360.0	713.3	1017	1154	1043	845.8	681.9	608.9	631.3	680.3	773.9	833.8	872.6	875.7	821.4	714.4	606.0	467.7	391.0	333.2	357.2	370.4	218.9	156.1	151.9	249.8	589.7	2309	9999.9	9999.9	1990	24.38	10.06	7.052	5.081	4.199	3.116	3.026	2.505	2.058	2.061	1.864	1.538	1.779	1.824	2.047	2.730	2.887	3.313	3.815	3.408	3.383	3.807	3.696	3.476	3.002	2.920	2.985	3.092	2.957	3.099	3.189	3.169	3.638	3.601	4.087	4.206	4.224	4.354	4.293	4.413	4.631	4.350	4.581	4.559	3.901	3.997	3.319
365.0	642.6	887.8	1061	986.5	833.1	690.9	630.7	622.6	671.8	750.1	795.9	814.6	822.6	773.2	682.2	586.8	479.3	401.9	348.3	326.5	377.1	321.0	188.4	144.7	138.4	194.4	564.8	3012	9999.9	9999.9	345.5	17.50	9.271	6.058	4.607	3.575	3.284	2.768	2.188	2.156	1.696	1.710	1.774	1.888	2.047	2.464	2.733	3.181	3.483	3.135	3.145	3.554	3.674	3.316	3.162	3.069	2.874	3.222	3.056	3.154	3.207	3.237	3.598	3.642	3.974	3.840	4.374	4.215	4.244	4.250	4.392	3.867	4.269	4.386	3.738	3.819	3.397
370.0	614.5	841.1	982.0	937.4	814.1	713.3	644.7	637.1	661.1	723.0	756.3	765.3	770.6	727.6	649.3	578.9	483.7	424.5	375.2	339.1	335.6	357.4	297.6	186.7	140.2	127.6	189.0	720.8	3000	9999.9	9999.9	1423	26.66	9.028	6.168	4.633	4.173	3.142	2.443	2.223	1.910	1.823	1.804	1.942	2.077	2.419	2.493	2.934	3.224	2.965	3.002	3.425	3.468	3.278	2.997	2.934	3.023	3.115	3.062	3.258	3.130	3.273	3.271	3.567	3.739	3.633	4.016	3.834	3.944	3.873	3.881	3.747	3.963	3.874	3.606	3.671	3.532
375.0	581.3	776.2	896.5	886.1	800.3	713.7	653.1	643.0	655.8	698.5	725.6	721.8	720.0	680.6	623.0	567.1	487.4	443.3	399.1	365.4	337.6	325.4	351.6	285.6	177.1	135.1	125.0	222.1	713.6	2326	6977	9999.9	2489	31.64	9.340	6.488	5.221	3.670	2.857	2.426	2.009	1.927	1.854	2.008	2.144	2.324	2.465	2.695	2.825	2.850	2.834	3.248	3.413	3.288	3.222	2.874	3.154	3.059	2.982	2.989	3.085	3.385	3.325	3.357	3.591	3.621	3.615	3.517	3.806	3.707	3.924	3.789	3.701	3.751	3.489	3.308	3.333
380.0	535.2	727.8	848.3	846.5	786.5	713.3	661.3	652.6	650.5	682.4	707.2	701.9	691.4	659.0	598.3	550.2	488.8	452.6	415.2	382.3	351.2	323.4	327.0	345.5	235.8	158.7	126.0	126.0	214.7	561.6	1778	9322	9999.9	1956	23.69	8.339	6.085	4.495	3.081	2.801	2.281	2.130	1.888	1.880	2.156	2.318	2.285	2.786	2.718	2.752	2.758	3.253	3.221	3.321	3.158	3.151	3.022	3.203	3.177	3.092	3.188	3.219	3.179	3.390	3.396	3.590	3.346	3.453	3.431	3.737	3.613	3.720	3.559	3.752	3.671	3.426	3.158
385.0	533.7	700.7	815.7	834.3	771.6	721.9	667.8	650.5	657.2	666.4	677.6	675.1	667.1	637.8	585.8	546.3	489.0	453.0	427.2	396.3	365.9	334.7	313.5	329.8	308.0	194.2	144.0	115.9	114.8	175.3	437.9	2563	9999.9	9999.9	296.2	15.74	7.884	5.318	3.774	3.121	2.474	2.101	1.955	2.070	2.238	2.209	2.339	2.618	2.549	2.625	2.742	3.273	3.068	3.119	3.122	3.154	3.133	3.105	3.232	3.111	3.120	3.188	3.525	3.427	3.427	3.211	3.487	3.370	3.394	3.471	3.572	3.341	3.345	3.697	3.269	3.576	3.304
390.0	488.3	672.0	786.0	800.3	765.1	715.1	670.1	641.5	646.9	652.3	654.8	642.6	637.1	608.0	560.6	528.5	482.3	455.9	432.5	405.6	380.0	347.4	321.3	305.4	315.1	274.9	186.5	137.2	113.2	106.0	148.6	610.3	2751	8541	9999.9	3718	23.28	7.485	4.853	3.879	2.892	2.346	2.046	2.176	2.160	2.333	2.311	2.562	2.823	2.649	2.649	3.101	3.111	3.115	3.096	3.031	3.203	3.140	3.005	3.152	3.099	3.144	3.229	3.245	3.331	3.212	3.342	3.336	3.411	3.228	3.292	3.253	3.503	3.575	3.350	3.495	3.230
395.0	462.8	636.4	741.0	780.1	764.3	714.4	674.5	647.6	649.1	635.7	641.0	628.2	614.9	583.0	543.4	508.8	471.6	451.9	431.1	412.2	390.1	364.0	337.8	312.4	290.2	299.1	260.7	176.8	135.5	108.5	98.94	184.3	647.1	1963	5612	9999.9	2126	28.31	6.788	5.060	3.476	2.955	2.397	2.347	2.459	2.422	2.468	2.683	2.645	2.513	2.681	3.063	3.210	3.181	3.236	2.961	3.077	3.227	3.174	3.265	3.271	3.245	3.349	3.104	3.074	3.025	3.344	3.034	3.161	3.207	3.318	3.180	3.361	3.575	3.095	3.325	3.387
400.0	464.6	629.4	722.2	750.1	745.3	723.9	686.2	652.5	643.7	633.2	622.0	616.9	596.6	567.0	530.3	499.6	465.3	449.7	429.6	412.4	392.2	371.0	346.3	320.6	292.3	277.6	295.1	226.7	156.5	124.1	101.3	98.98	185.5	468.1	1389	7142	9999.9	1766	20.84	6.740	4.371	3.278	2.751	2.577	2.551	2.479	2.293	2.619	2.545	2.631	2.500	3.048	3.041	3.169	3.074	3.135	3.282	3.238	3.321	3.248	3.210	3.190	3.227	3.265	3.373	3.001	3.083	3.112	3.191	3.353	3.368	3.269	3.072	3.467	3.059	3.023	3.523
405.0	461.8	630.5	724.0	742.8	741.8	702.4	681.4	652.9	648.4	631.4	617.7	600.4	589.7	556.9	520.5	488.5	460.7	441.8	426.2	407.4	391.9	373.5	351.2	330.6	300.0	275.8	279.3	273.1	189.3	140.6	110.8	87.51	90.12	139.2	336.5	1898	9127	9999.9	266.5	14.06	5.408	4.028	3.071	2.850	2.769	2.576	2.398	2.637	2.788	2.616	2.470	3.060	3.039	3.003	3.159	3.287	3.208	3.154	3.192	3.097	3.017	3.158	2.997	3.170	3.144	2.786	3.095	3.079	3.177	2.989	3.123	3.158	3.037	3.316	3.035	3.098	3.235
410.0	448.4	608.1	686.6	717.3	728.4	708.5	676.0	653.9	644.0	630.0	612.3	587.2	573.9	544.1	499.8	465.7	443.0	428.5	413.5	397.9	385.1	370.9	353.5	335.9	309.5	281.7	265.7	268.1	247.5	178.0	129.4	99.19	79.89	74.30	106.5	447.4	2396	7059	8327	3108	19.49	5.332	3.796	3.442	2.908	2.700	2.487	2.822	2.792	2.545	2.493	3.043	3.081	2.987	3.171	3.128	3.174	3.213	3.403	3.274	3.227	3.121	3.120	3.246	3.116	2.949	2.930	3.101	3.098	3.008	2.999	3.032	3.109	3.151	2.998	2.879	2.955
415.0	428.8	562.8	634.3	695.9	724.9	690.5	669.1	653.8	636.3	614.7	604.9	578.0	549.8	516.0	482.2	445.7	420.7	411.2	393.9	385.0	370.4	362.1	350.5	334.7	311.6	288.0	266.7	247.4	253.8	233.6	157.1	114.4	87.59	67.70	62.59	127.3	554.2	1614	4078	9999.9	1869	25.13	5.418	4.040	3.481	3.065	2.498	2.768	2.881	2.709	2.697	2.967	3.123	2.994	3.038	3.001	3.240	3.217	3.414	3.396	3.249	3.162	3.170	3.042	2.879	3.147	3.131	2.997	2.945	3.053	2.898	2.858	3.165	2.763	2.797	2.827	2.878
420.0	417.5	557.3	637.4	679.4	691.2	660.0	662.3	645.4	623.6	615.5	592.8	568.5	539.6	501.3	466.9	431.1	407.0	394.2	380.3	374.5	359.3	353.8	342.1	332.7	312.4	289.7	269.9	245.7	239.2	247.3	194.0	128.3	95.95	73.01	57.74	60.27	147.4	378.1	996.1	5687	8809	1509	18.02	5.534	4.213	3.395	2.826	2.840	2.787	2.742	2.494	2.936	3.021	3.030	3.004	2.917	3.316	3.145	3.361	3.296	3.280	3.263	3.303	2.961	2.990	2.947	2.918	2.876	2.768	2.972	2.721	3.006	2.959	2.664	2.788	2.842	2.792
425.0	405.2	532.0	605.6	655.7	690.9	663.2	653.1	651.3	627.8	606.1	588.1	561.7	531.9	492.9	450.1	417.2	393.0	380.2	367.0	360.7	349.1	340.5	333.7	321.2	309.4	291.2	269.5	247.9	229.5	228.5	220.6	152.2	107.6	80.35	61.04	49.93	60.14	103.7	238.2	1469	6387	7626	247.2	11.92	4.934	4.056	3.125	3.090	3.001	2.696	2.577	2.988	3.059	3.041	2.845	3.040	3.427	2.988	2.996	3.158	3.288	3.316	3.211	3.019	2.926	3.099	2.972	2.916	2.827	3.011	2.813	2.766	2.809	2.630	3.019	2.685	2.938
430.0	459.8	499.5	588.0	638.8	654.0	653.3	649.1	643.6	625.2	612.1	587.3	552.5	515.4	473.1	434.0	396.9	375.0	363.9	351.5	343.6	334.5	325.9	323.2	313.6	303.7	288.1	270.4	252.4	232.4	218.2	211.7	188.3	131.8	92.39	68.94	53.87	46.10	47.53	71.34	342.5	1656	5075	6327	1081	18.58	5.486	3.752	3.286	2.987	2.771	2.595	3.057	2.880	3.047	2.877	2.981	3.241	3.021	3.232	3.113	3.204	3.190	3.253	3.219	2.962	2.944	2.811	2.910	2.912	2.912	2.687	2.720	2.895	2.638	2.806	2.658	2.881
435.0	752.4	497.9	568.8	613.4	624.9	632.9	641.5	632.7	626.7	616.1	581.9	542.6	498.2	455.8	415.3	379.0	356.8	344.7	331.7	326.4	317.9	314.9	311.1	303.7	294.4	282.0	267.6	253.8	235.7	217.3	195.9	187.3	163.7	109.5	79.05	60.48	48.69	39.54	37.59	92.80	382.4	1160	3209	8370	1773	23.33	5.177	4.088	3.762	3.102	2.815	3.100	3.116	3.006	2.918	2.883	3.448	3.050	3.410	3.339	2.961	3.201	3.204	3.040	2.996	3.060	2.875	2.962	2.888	2.854	2.595	2.538	2.695	2.808	2.639	2.588	2.712
440.0	1090	578.1	542.2	592.7	619.7	624.9	630.8	623.0	618.4	599.8	578.6	542.6	488.9	442.8	402.7	367.1	337.3	331.1	320.6	310.9	303.8	303.3	301.6	295.3	286.0	277.6	263.9	250.4	237.3	217.9	192.8	174.7	171.2	131.3	88.79	67.21	52.86	40.97	32.49	39.64	99.54	270.5	796.7	5208	8852	1385	15.90	5.084	4.038	3.492	2.912	3.309	2.880	3.150	3.120	3.024	3.255	3.125	3.372	3.373	3.126	3.154	3.054	3.110	2.934	2.934	2.844	2.621	2.779	2.780	2.623	2.509	2.720	2.624	2.588	2.411	2.633
445.0	1222	905.5	547.3	572.9	607.0	600.3	616.4	615.2	609.6	593.5	567.7	532.0	474.7	429.3	388.0	353.3	328.0	315.4	303.1	298.7	292.1	290.1	286.7	283.4	277.8	268.6	257.9	244.8	235.5	215.2	193.1	169.8	159.3	147.1	102.9	71.74	56.03	44.96	34.04	29.52	38.75	73.19	189.7	1384	6885	7723	207.0	10.75	4.770	3.817	3.259	3.309	3.022	3.137	2.946	3.042	3.143	3.324	3.340	3.090	3.308	3.210	3.136	3.089	3.011	3.001	2.748	2.490	2.817	2.537	2.550	2.517	2.540	2.555	2.450	2.426	2.378
450.0	875.1	1743	736.2	553.5	560.5	575.1	585.0	591.1	587.8	574.3	544.9	509.1	454.5	412.1	367.3	329.4	310.6	293.4	283.7	276.5	272.4	269.1	266.0	265.4	260.4	254.0	246.5	236.2	225.2	212.0	190.4	166.9	146.4	136.3	119.2	85.13	61.07	48.19	37.72	30.48	27.66	31.20	54.40	320.1	1817	5473	6169	946.9	15.53	4.972	3.651	3.629	3.395	3.250	2.826	3.020	3.166	3.309	3.284	3.123	3.094	3.090	2.944	3.029	2.939	2.836	2.687	2.517	2.703	2.361	2.347	2.426	2.389	2.496	2.225	2.273	2.427
455.0	464.0	2073	1671	530.7	524.9	538.6	543.6	564.7	558.5	539.4	514.5	478.7	427.8	380.3	340.4	303.9	284.3	273.0	259.6	253.1	246.2	246.3	244.4	242.9	241.4	233.7	230.3	222.4	212.2	203.8	185.3	162.3	139.0	121.5	116.1	102.7	71.33	51.28	41.87	32.89	26.53	23.39	25.83	82.44	413.9	1252	3034	7041	1455	17.88	4.874	4.116	3.457	3.226	2.999	3.145	2.957	3.078	2.899	2.943	2.854	2.804	2.796	3.049	2.850	2.645	2.599	2.523	2.484	2.413	2.295	2.351	2.317	2.207	2.162	2.111	2.295
460.0	322.4	1491	2733	709.3	486.6	513.3	531.6	531.5	530.7	517.8	490.8	456.6	403.6	365.2	323.3	284.2	264.2	253.2	244.7	233.7	225.7	227.1	227.7	227.7	223.6	219.3	213.0	211.1	203.8	194.3	177.6	155.6	135.6	114.5	103.8	103.3	82.47	55.71	43.14	34.97	27.36	23.04	19.99	30.52	102.5	289.0	742.3	4264	7236	1092	13.48	4.833	3.680	3.221	3.061	3.015	3.151	2.925	2.982	3.010	2.928	2.756	2.701	2.858	2.615	2.613	2.412	2.422	2.519	2.327	2.236	2.211	2.108	2.027	2.018	2.287	1.932
465.0	292.3	797.1	3104	1458	471.6	473.4	495.6	509.3	498.5	487.0	470.9	433.4	383.6	347.5	302.8	264.8	246.3	233.8	224.4	217.0	211.9	210.3	210.4	212.2	207.5	204.5	199.0	197.2	192.7	185.5	168.6	149.8	131.4	112.1	96.99	92.38	88.70	62.86	45.02	36.38	29.51	24.30	19.39	19.71	34.09	74.51	174.9	1131	5727	6367	167.6	10.38	4.511	3.710	3.321	2.994	3.020	2.983	2.985	2.975	2.838	2.716	2.668	2.699	2.663	2.413	2.488	2.395	2.385	2.285	2.105	2.136	2.083	1.996	1.979	1.905	1.860
470.0	294.8	423.3	1975	3055	738.0	438.5	446.4	456.2	457.5	451.3	434.1	398.1	351.7	309.2	275.3	240.0	224.5	211.5	200.6	194.9	189.6	189.2	188.8	189.0	187.7	185.6	180.7	181.3	174.7	168.0	158.1	140.6	124.1	105.3	90.88	80.14	79.31	70.73	51.18	38.01	30.40	25.30	20.81	18.26	19.16	26.34	47.60	260.7	1511	4561	4920	879.2	15.08	4.465	3.702	3.269	3.140	2.952	2.821	2.763	2.726	2.758	2.675	2.640	2.558	2.393	2.320	2.313	2.233	2.130	2.065	1.986	1.975	1.844	1.773	1.731	1.727
475.0	288.7	312.0	761.0	3218	2023	425.6	408.2	411.1	416.4	406.6	397.2	359.9	316.2	279.7	247.1	216.7	198.1	188.0	180.4	172.0	169.0	167.8	168.0	166.9	167.4	163.7	163.4	159.8	156.4	153.0	143.3	129.8	114.0	98.35	85.56	73.87	66.74	64.37	58.41	41.90	31.23	25.76	21.45	18.15	17.11	16.14	18.84	65.62	343.0	1038	2281	5047	1352	19.32	4.348	3.522	2.994	3.013	2.760	2.633	2.839	2.594	2.450	2.398	2.379	2.174	2.028	2.115	2.104	1.907	1.964	1.831	1.684	1.868	1.665	1.627	1.619
480.0	293.1	297.1	419.5	2075	3328	547.1	379.1	392.4	392.7	381.8	365.2	334.5	297.1	260.7	230.2	198.1	182.0	174.2	164.8	158.6	155.3	154.2	153.1	153.4	152.1	150.3	149.0	147.0	145.9	141.4	135.0	122.1	107.2	93.07	81.22	71.12	62.15	56.80	59.29	47.32	33.58	26.16	22.59	18.33	16.39	13.82	13.15	22.47	83.10	237.4	550.9	2860	5156	1124	13.83	4.176	3.270	2.665	2.643	2.675	2.655	2.481	2.411	2.266	2.392	2.045	2.006	2.045	1.873	1.844	1.799	1.743	1.560	1.684	1.536	1.586	1.622
485.0	236.0	311.8	321.2	991.7	3738	1340	367.5	363.6	364.1	356.7	341.5	314.9	280.9	250.4	217.5	186.2	168.8	161.9	153.7	147.1	143.9	142.4	142.4	142.1	141.7	138.6	138.9	138.4	136.5	132.7	126.6	115.0	100.3	90.95	78.20	68.56	59.63	52.56	52.06	51.47	37.34	26.74	22.47	19.27	16.38	14.06	12.47	12.65	25.26	59.28	129.0	753.0	3913	4590	195.6	8.728	3.745	3.189	2.715	2.697	2.541	2.411	2.384	2.213	2.117	1.960	1.909	2.018	1.919	1.858	1.818	1.650	1.671	1.468	1.643	1.508	1.427
490.0	194.7	294.5	291.9	453.4	2317	3057	618.5	340.6	336.4	331.2	316.8	294.0	260.5	228.3	197.6	170.2	157.7	147.5	140.0	134.9	129.4	129.9	128.0	127.8	128.3	126.9	126.1	124.4	124.0	122.7	116.0	106.2	95.85	84.52	73.87	65.38	56.58	49.80	45.60	46.09	42.61	30.70	23.46	19.68	16.91	14.73	12.87	11.38	12.84	19.34	34.25	173.4	1018	2927	3896	911.0	16.19	4.108	3.076	2.781	2.556	2.407	2.279	2.144	2.097	1.947	1.911	1.901	1.819	1.675	1.613	1.449	1.456	1.460	1.421	1.346	1.438
495.0	169.1	256.5	301.2	303.1	833.2	3452	1846	322.3	315.2	302.9	287.0	262.8	235.1	206.3	179.2	154.9	142.1	134.2	125.7	121.3	116.4	116.2	114.9	116.1	115.0	114.5	113.0	112.2	111.9	111.1	104.8	97.12	86.94	78.42	69.01	61.25	53.94	46.70	41.77	38.69	39.54	36.51	26.15	19.99	17.59	15.04	13.28	11.04	10.66	10.74	13.00	43.50	231.4	665.0	1954	4759	1526	21.82	3.887	3.093	2.675	2.523	2.331	2.165	1.978	1.857	1.644	1.699	1.732	1.683	1.549	1.405	1.348	1.475	1.328	1.221	1.329
500.0	153.1	232.1	297.5	263.5	385.8	2352	3300	385.1	286.3	281.0	265.9	247.6	218.4	191.0	167.0	143.1	131.9	123.5	116.1	109.6	109.2	104.6	103.6	105.6	104.5	103.9	103.5	103.0	102.1	100.1	96.59	88.93	79.67	72.09	64.14	57.05	50.67	44.80	39.55	35.26	34.45	35.94	30.45	21.17	16.92	15.12	13.14	11.38	10.05	8.856	8.580	14.21	56.09	152.8	474.7	2630	4830	1234	16.16	3.612	2.960	2.479	2.339	1.921	2.029	1.965	1.707	1.560	1.483	1.632	1.383	1.342	1.280	1.317	1.217	1.123	1.291
505.0	136.9	193.8	299.0	263.0	263.2	1096	4076	1110	267.4	263.8	247.4	228.0	201.5	176.3	154.2	130.5	119.6	112.5	106.6	101.3	97.86	96.33	92.77	93.85	94.73	93.74	93.78	95.30	93.28	90.88	88.93	82.75	73.56	67.00	59.08	53.24	47.86	42.53	37.63	33.06	30.09	31.56	31.29	22.84	18.12	14.88	13.40	11.23	10.04	8.969	7.580	8.046	16.84	38.16	110.3	679.0	3306	4572	221.8	10.18	3.114	2.641	2.297	2.058	1.990	1.700	1.725	1.586	1.538	1.531	1.409	1.340	1.281	1.410	1.106	1.071	1.092
510.0	120.3	154.3	240.6	272.2	218.1	426.2	2631	3000	452.1	234.1	221.0	203.9	176.9	155.0	134.8	117.1	105.7	98.49	92.57	88.77	84.30	84.48	82.67	82.80	82.85	83.52	82.33	83.25	82.54	81.72	78.47	72.75	66.30	59.86	53.60	48.60	42.87	38.44	34.91	30.76	28.00	26.08	27.98	25.86	19.56	14.96	12.86	11.10	9.849	8.468	7.533	6.932	8.100	12.57	28.49	155.3	842.2	2707	3450	976.9	16.29	3.256	2.250	2.098	1.903	1.755	1.543	1.523	1.411	1.340	1.345	1.217	1.207	1.270	1.014	1.106	1.153
515.0	110.0	143.7	177.3	254.8	210.3	239.9	888.1	3838	1633	215.1	193.2	178.8	158.7	136.4	118.1	102.9	91.54	86.45	81.64	77.16	74.88	72.69	71.72	71.93	70.69	70.93	71.32	71.81	71.77	70.48	68.23	62.63	59.21	52.53	48.36	42.90	38.84	34.75	31.24	27.61	25.11	22.44	22.00	23.81	22.09	16.39	12.42	10.75	9.221	7.976	7.691	6.746	6.185	6.734	9.871	38.06	190.8	611.0	1479	3826	1513	22.90	3.121	2.456	2.041	1.708	1.753	1.479	1.444	1.259	1.181	1.128	1.125	1.130	1.001	0.966	1.091
520.0	97.22	124.4	147.4	222.7	221.9	182.8	342.2	2615	3503	275.4	179.2	167.0	145.1	125.9	107.6	94.35	82.66	76.99	74.05	68.93	66.20	64.19	64.56	64.33	63.31	63.25	63.91	63.67	64.42	64.01	61.33	55.96	53.05	47.32	43.05	38.76	35.24	31.29	28.59	25.89	23.02	20.22	19.16	20.42	22.29	17.93	12.49	10.59	9.063	7.985	7.424	6.665	5.978	5.232	5.449	11.58	45.78	139.6	349.9	1896	3836	1192	17.14	2.688	2.191	1.780	1.587	1.483	1.318	1.322	1.216	1.051	1.148	1.042	1.014	0.951	1.116
525.0	86.02	113.7	133.9	181.0	233.3	171.1	197.7	1133	4685	1060	165.6	151.8	132.9	111.5	98.28	84.67	75.51	69.21	66.46	63.39	61.71	58.43	58.78	57.42	58.13	57.32	57.51	56.76	57.28	56.88	55.33	51.55	46.95	43.98	39.29	35.38	31.80	29.21	26.98	24.01	21.45	18.56	17.38	17.44	19.29	18.85	13.64	10.40	8.652	7.471	6.843	6.176	6.048	4.771	4.453	5.633	13.37	34.19	81.15	468.5	2299	3426	230.7	13.62	2.542	1.939	1.409	1.350	1.319	1.322	1.093	1.038	1.037	1.004	1.009	0.925	1.000
530.0	80.18	97.34	113.8	135.8	209.3	180.5	152.5	383.3	3023	3228	355.5	132.9	116.1	99.20	85.74	74.36	66.77	60.42	57.65	54.67	53.69	51.53	51.28	50.09	50.22	48.68	49.46	49.39	49.13	49.64	47.83	44.84	41.19	38.04	34.12	31.47	28.42	25.79	24.04	21.28	19.60	17.33	15.66	14.86	15.34	16.81	15.33	11.25	8.492	7.244	6.409	5.771	5.235	5.082	4.450	4.174	5.622	10.19	20.87	107.1	565.4	1749	2574	998.5	17.33	2.680	1.594	1.370	1.418	1.260	1.015	0.973	1.013	0.880	0.821	0.898	0.876
535.0	68.07	88.37	94.62	107.8	150.4	200.1	132.9	178.8	933.0	4657	1484	125.5	101.7	86.11	77.11	63.62	57.07	53.01	48.54	47.04	45.43	44.32	43.53	42.74	42.09	42.76	42.00	42.09	41.87	42.48	41.01	38.28	35.53	31.72	29.41	27.83	24.98	22.44	20.74	19.19	16.78	15.40	14.19	12.78	12.52	12.54	14.17	12.57	8.706	7.012	5.814	5.440	4.684	4.470	4.453	3.900	3.953	4.624	6.931	26.16	128.3	393.4	925.0	2554	1513	24.94	2.346	1.686	1.332	1.187	1.018	0.989	0.882	0.844	0.871	0.875	0.775
540.0	63.11	80.79	86.21	95.73	110.0	189.1	133.8	125.5	309.7	3001	3811	187.1	89.98	78.79	68.69	57.21	50.55	47.05	44.01	42.40	40.05	39.02	37.91	37.55	36.37	37.45	37.07	37.45	36.72	37.20	36.48	33.18	31.66	28.87	25.98	24.45	22.20	20.53	19.20	17.40	14.96	14.17	13.23	11.92	11.28	10.44	11.31	12.45	9.454	6.991	5.280	4.745	4.418	4.153	3.928	4.017	3.406	3.403	3.741	7.987	30.69	89.66	213.6	1088	2779	1167	19.39	1.869	1.490	1.252	1.041	0.879	0.826	0.846	0.801	0.770	0.648
545.0	64.45	73.37	80.34	80.11	89.40	153.7	149.4	103.5	149.1	1152	5089	822.6	82.31	69.99	60.78	52.12	45.08	41.12	40.59	36.53	35.55	33.95	33.01	33.09	32.90	33.74	32.01	32.26	31.72	32.49	31.28	30.05	27.59	26.39	23.17	21.65	19.80	18.23	16.68	15.14	13.72	12.50	11.72	10.70	10.52	9.334	9.479	11.00	10.11	7.262	5.201	4.329	4.173	4.060	3.530	3.771	3.554	2.933	2.922	3.621	8.638	21.98	49.91	258.0	1375	2580	242.6	12.99	1.743	1.242	1.098	0.823	0.833	0.914	0.669	0.687	0.663
550.0	57.19	61.26	67.71	68.48	72.15	102.7	158.3	100.9	99.70	343.2	3000	3188	136.3	59.65	52.07	43.79	37.94	35.51	33.43	30.59	29.38	28.39	28.02	28.29	27.67	27.74	27.21	26.57	26.64	27.14	26.46	25.26	22.94	21.59	19.38	18.22	16.63	15.32	14.05	13.08	12.00	10.69	10.31	9.519	8.828	7.996	7.665	8.104	8.996	7.782	5.316	4.324	3.812	3.347	3.179	3.180	3.333	3.063	2.526	2.633	3.627	6.620	12.75	59.25	324.8	1104	1604	938.0	19.04	2.125	1.201	0.883	0.898	0.788	0.814	0.651	0.675
555.0	54.80	56.94	57.30	58.08	57.96	71.14	127.2	115.0	75.89	132.5	841.4	4136	1099	53.90	42.38	36.36	31.89	28.49	27.28	25.25	23.91	23.74	22.91	22.03	22.21	21.71	22.22	21.87	21.94	21.67	21.15	20.46	18.86	17.50	16.26	15.00	14.09	12.82	11.48	11.01	10.08	9.071	8.463	7.879	7.327	6.883	6.195	6.342	6.347	7.091	6.120	4.217	3.292	2.969	2.736	2.875	2.577	2.682	2.633	2.198	2.229	2.773	4.237	14.36	73.87	247.9	496.7	1560	1258	27.83	1.759	1.058	0.908	0.750	0.767	0.698	0.653
560.0	50.89	52.50	56.46	53.95	50.75	53.68	88.26	130.8	72.31	78.77	243.2	2531	3508	108.3	36.91	31.86	27.09	24.78	23.17	22.22	20.58	20.01	18.69	18.56	18.48	17.86	18.62	18.36	18.88	18.11	18.31	16.98	15.97	14.91	13.64	12.22	11.78	10.95	10.30	9.407	8.438	7.943	7.274	6.785	6.367	5.753	5.533	5.056	4.995	5.537	6.030	4.239	3.161	2.545	2.508	2.505	2.249	2.155	2.289	2.160	1.937	1.887	2.163	4.431	17.79	56.74	113.6	562.3	1663	908.8	22.12	1.406	0.993	0.744	0.627	0.641	0.622
565.0	47.78	56.36	53.47	48.22	47.26	46.76	64.75	134.0	76.91	63.14	101.1	924.0	4881	553.3	35.16	28.87	24.21	21.42	19.69	18.66	17.58	16.71	16.57	15.94	16.09	15.59	16.29	15.75	16.16	15.63	15.65	14.42	13.51	12.20	11.52	10.52	10.08	9.422	8.868	8.329	7.467	7.005	6.325	6.044	5.599	5.001	4.984	4.309	4.001	4.348	5.049	4.678	3.174	2.497	2.271	2.316	2.081	1.964	2.114	2.220	1.895	1.715	1.574	2.181	5.098	13.81	26.69	130.3	686.4	1572	251.1	14.79	1.173	0.934	0.723	0.629	0.688
570.0	46.74	53.94	48.03	43.87	40.27	38.04	44.43	92.76	102.8	54.87	61.32	258.2	2896	2667	82.73	24.18	20.84	18.15	16.60	15.25	14.60	14.56	13.40	13.52	13.09	12.70	13.01	12.69	12.83	12.71	12.53	11.87	10.93	9.740	9.460	8.868	8.209	7.954	7.146	6.881	6.206	5.758	5.126	4.954	4.616	4.404	3.949	3.659	3.343	3.175	3.544	4.031	3.411	2.538	2.032	1.930	1.741	1.754	1.584	1.912	1.935	1.663	1.337	1.464	2.103	4.124	6.931	30.14	158.3	579.3	926.9	617.4	86.12	2.204	0.781	0.668	0.562
575.0	45.51	50.94	45.09	39.68	32.67	32.31	37.22	54.56	109.4	63.21	47.72	90.79	789.7	3564	819.0	22.73	18.48	16.02	13.68	12.82	11.97	11.91	11.24	10.71	10.55	10.96	10.13	10.23	10.23	10.31	9.906	9.581	8.787	8.361	7.803	6.932	6.758	6.368	5.566	5.616	5.091	4.561	4.296	4.146	3.880	3.699	3.157	2.937	2.737	2.625	2.676	2.865	3.163	2.801	1.942	1.652	1.590	1.478	1.523	1.466	1.516	1.759	1.299	1.208	1.325	1.912	2.382	7.593	36.17	130.0	248.1	776.4	837.4	30.90	1.446	0.760	0.575
580.0	50.04	47.21	47.95	38.18	31.30	31.46	30.39	40.09	91.72	82.70	46.05	53.93	213.2	2193	3058	57.89	16.53	13.58	13.00	11.62	10.13	9.769	9.669	9.153	9.339	8.684	8.756	8.344	8.880	8.810	8.385	8.208	7.835	7.145	6.586	6.272	5.776	5.293	4.828	4.614	4.388	4.015	3.829	3.436	3.255	3.246	2.772	2.537	2.446	2.291	2.121	2.222	2.557	2.789	2.042	1.673	1.474	1.356	1.246	1.162	1.291	1.428	1.517	1.200	1.053	1.373	1.250	2.554	8.848	29.81	56.61	247.8	907.2	716.6	23.28	0.972	0.634
585.0	44.08	51.47	49.91	36.06	32.39	28.27	27.24	33.05	66.19	101.5	47.59	44.01	77.62	787.8	4425	336.7	15.58	11.83	11.19	10.12	9.011	8.994	9.048	8.532	7.784	7.470	7.556	7.278	7.380	7.517	7.179	6.932	6.553	6.165	5.714	5.430	4.834	4.828	4.245	3.928	3.933	3.297	3.337	2.996	2.950	2.898	2.638	2.271	2.267	2.105	1.822	1.801	1.970	2.476	2.260	1.431	1.325	1.162	1.133	1.110	1.066	1.173	1.484	1.320	1.035	1.058	0.994	1.246	2.677	7.399	13.55	56.87	333.5	999.3	255.0	15.10	0.884
590.0	43.67	53.04	49.27	35.65	27.18	25.65	25.21	28.92	42.97	93.85	64.19	40.27	44.85	212.7	2670	1599	47.70	11.49	9.527	8.866	7.470	7.577	7.210	7.034	6.227	6.411	6.500	6.004	6.101	6.070	6.209	5.739	5.572	4.950	4.740	4.516	3.977	3.865	3.556	3.197	3.041	2.876	2.930	2.691	2.476	2.452	2.213	2.095	1.960	1.702	1.502	1.503	1.540	1.891	2.150	1.718	1.412	1.162	1.046	1.085	0.954	0.998	1.174	1.255	1.204	0.940	0.914	0.897	1.308	2.271	3.723	13.38	76.29	335.7	571.2	450.0	20.41
595.0	41.44	52.88	48.31	33.86	27.61	21.67	23.80	27.66	35.06	66.21	87.78	43.99	39.71	71.26	710.8	2631	541.4	11.47	8.316	7.644	6.055	6.579	5.814	5.751	5.464	5.448	5.572	5.107	5.211	4.900	5.000	4.532	4.745	3.943	4.000	3.631	3.178	3.123	3.096	2.567	2.570	2.477	2.249	2.142	2.080	1.958	1.664	1.773	1.613	1.423	1.296	1.233	1.227	1.356	1.567	1.605	1.474	0.996	1.030	0.969	0.786	0.842	0.854	0.992	1.233	1.164	0.761	0.734	0.900	1.105	1.485	3.550	17.56	75.37	146.6	486.8	579.2
600.0	45.28	51.89	44.04	33.11	26.14	21.02	23.06	24.60	30.90	48.93	95.86	52.77	38.54	38.59	181.9	1801	1926	28.61	7.629	7.003	5.175	5.737	4.916	4.747	5.005	4.469	4.571	4.559	4.622	4.445	4.066	4.007	3.722	3.269	3.425	3.058	2.752	2.716	2.608	2.358	2.275	2.150	2.111	2.027	1.867	1.809	1.581	1.506	1.368	1.256	1.110	1.166	1.169	1.038	1.262	1.396	1.462	1.154	0.965	0.841	0.746	0.816	0.921	0.865	0.984	1.311	0.859	0.733	0.822	0.840	0.924	1.347	4.435	17.33	33.45	149.8	597.8
605.0	42.64	46.12	44.67	33.64	23.33	23.65	25.15	28.95	32.20	40.97	85.07	70.90	42.53	36.19	61.09	691.8	2941	84.12	7.635	6.515	4.686	5.037	4.532	4.294	4.407	4.236	3.888	3.812	4.037	3.925	3.741	3.445	3.398	3.227	2.934	2.668	2.664	2.418	2.196	2.072	2.008	1.785	1.810	1.806	1.631	1.496	1.462	1.434	1.361	1.185	0.998	1.062	0.954	0.915	0.917	1.092	1.428	1.283	0.900	0.796	0.734	0.756	0.784	0.730	0.892	1.175	1.046	0.849	0.790	0.828	0.761	0.773	1.442	4.352	7.944	34.39	209.3
610.0	45.30	47.82	44.39	37.59	24.13	25.29	27.30	31.59	38.32	46.44	73.64	96.85	55.72	41.98	39.27	185.7	1946	1345	25.08	5.833	4.288	4.271	4.011	3.922	3.900	3.558	3.220	3.266	3.399	3.306	3.249	2.863	2.947	2.730	2.524	2.315	2.235	2.046	1.972	1.853	1.636	1.487	1.591	1.438	1.410	1.328	1.300	1.205	1.163	1.035	0.949	0.893	0.841	0.848	0.815	0.860	1.149	1.142	1.067	0.779	0.774	0.715	0.735	0.785	0.748	0.856	1.007	0.916	0.766	0.748	0.804	0.690	0.790	1.475	2.304	8.161	47.82
615.0	42.95	55.14	46.98	35.03	27.03	24.90	29.85	32.40	40.73	49.36	63.60	97.21	70.94	45.10	35.34	60.29	552.2	2484	298.7	5.835	3.991	3.992	3.277	3.491	3.240	2.868	2.919	2.856	2.922	2.748	2.698	2.348	2.438	2.402	2.100	2.017	1.879	1.718	1.726	1.629	1.414	1.287	1.220	1.244	1.140	1.200	1.076	1.143	0.995	0.972	0.822	0.762	0.720	0.652	0.724	0.719	0.912	1.027	1.143	0.938	0.781	0.651	0.711	0.717	0.696	0.695	0.883	0.826	0.998	0.815	0.713	0.651	0.708	0.809	0.948	2.323	11.13
620.0	38.36	49.05	42.74	32.56	27.79	23.89	28.54	33.05	38.92	48.40	58.88	82.13	85.42	46.31	34.57	33.20	145.4	1800	1008	13.04	4.090	3.885	2.897	2.843	2.694	2.559	2.514	2.447	2.633	2.460	2.280	2.266	2.130	2.138	2.070	1.969	1.752	1.513	1.565	1.517	1.103	1.176	1.088	0.943	1.088	1.009	0.978	0.966	0.887	0.819	0.756	0.725	0.641	0.691	0.653	0.699	0.819	0.886	1.007	0.976	0.800	0.606	0.662	0.642	0.686	0.751	0.814	0.828	0.910	0.852	0.702	0.654	0.553	0.585	0.632	0.947	2.864
625.0	39.79	51.55	43.84	33.08	28.75	22.83	28.19	31.94	38.65	46.46	55.33	68.87	87.24	50.61	33.61	25.35	48.03	732.0	1682	61.28	3.970	3.455	2.771	2.888	2.505	2.363	2.257	2.079	2.100	2.297	1.981	1.965	2.007	1.903	1.614	1.632	1.591	1.307	1.303	1.397	1.021	0.981	1.049	0.880	0.838	0.879	0.929	0.892	0.804	0.746	0.703	0.614	0.613	0.642	0.608	0.645	0.689	0.774	0.911	0.941	0.740	0.623	0.674	0.607	0.749	0.811	0.638	0.747	0.707	0.912	0.815	0.612	0.565	0.581	0.536	0.629	1.070
630.0	44.34	49.34	43.64	31.55	28.36	23.58	27.27	31.08	36.66	45.31	54.40	63.32	80.40	61.78	34.73	24.11	25.49	192.3	1266	854.7	12.56	3.205	2.833	2.447	2.233	2.207	1.986	1.822	2.000	1.766	1.727	1.746	1.736	1.640	1.500	1.364	1.400	1.135	1.197	1.167	1.054	0.831	0.982	0.891	0.848	0.797	0.788	0.827	0.765	0.710	0.626	0.643	0.567	0.591	0.574	0.583	0.610	0.589	0.691	0.827	0.785	0.680	0.676	0.635	0.719	0.709	0.685	0.672	0.657	0.718	0.828	0.651	0.627	0.535	0.521	0.568	0.609
635.0	43.79	51.48	45.09	34.57	26.39	23.80	27.29	30.70	36.17	44.91	54.95	58.76	66.79	70.57	37.67	24.18	20.79	52.49	383.4	1660	64.45	3.622	2.627	2.238	2.055	1.936	1.623	1.644	1.774	1.546	1.435	1.584	1.538	1.386	1.318	1.227	1.269	1.049	0.960	0.950	0.944	0.803	0.867	0.827	0.767	0.742	0.745	0.751	0.598	0.598	0.608	0.631	0.526	0.556	0.538	0.562	0.539	0.513	0.585	0.629	0.749	0.703	0.647	0.590	0.643	0.718	0.612	0.714	0.712	0.610	0.744	0.672	0.662	0.504	0.524	0.575	0.481
640.0	46.36	44.32	44.81	32.34	25.90	23.00	28.05	31.35	36.78	43.85	51.93	55.57	58.59	70.93	43.01	24.59	19.42	21.44	97.93	1352	477.3	6.783	2.703	2.147	2.214	1.952	1.739	1.584	1.657	1.439	1.411	1.552	1.507	1.248	1.233	1.139	1.162	0.994	0.853	0.894	0.883	0.724	0.760	0.820	0.711	0.729	0.701	0.678	0.589	0.559	0.558	0.548	0.549	0.467	0.457	0.474	0.614	0.498	0.523	0.508	0.686	0.658	0.666	0.560	0.575	0.685	0.617	0.646	0.630	0.513	0.633	0.726	0.739	0.530	0.505	0.439	0.424
645.0	46.49	47.26	46.25	35.68	23.64	23.99	26.36	30.91	35.88	45.26	51.59	54.80	53.19	62.31	48.60	24.98	18.73	13.97	27.16	624.1	1107	40.80	3.031	2.070	2.127	1.859	1.623	1.521	1.629	1.338	1.466	1.428	1.298	1.181	1.184	1.187	1.292	1.041	0.931	0.888	0.734	0.760	0.713	0.722	0.616	0.699	0.643	0.675	0.651	0.542	0.542	0.461	0.538	0.411	0.485	0.445	0.496	0.491	0.539	0.473	0.662	0.685	0.666	0.577	0.544	0.600	0.574	0.647	0.569	0.577	0.613	0.638	0.739	0.543	0.430	0.425	0.434
650.0	44.63	49.59	51.02	34.89	22.80	23.92	24.67	28.81	33.54	40.65	50.13	52.45	50.47	52.68	51.72	25.72	17.55	11.96	10.90	187.1	1191	317.0	3.544	2.260	2.057	1.709	1.669	1.469	1.622	1.363	1.362	1.288	1.360	1.156	1.375	1.156	1.114	1.012	0.955	0.881	0.723	0.695	0.819	0.645	0.711	0.571	0.554	0.607	0.599	0.490	0.528	0.487	0.441	0.452	0.513	0.504	0.520	0.520	0.461	0.440	0.512	0.567	0.666	0.647	0.587	0.567	0.655	0.648	0.615	0.678	0.626	0.522	0.633	0.642	0.425	0.453	0.460
