Sample:	'1
File name:	支脉河北支新河汇入后9.FD3
Run date:	'17:58:08, 06/11/2025
Operator:	Administrator
Comment:	'

Instrument
Model:	F-2700 FL Spectrophotometer
Serial number:	23B8-004
ROM Version:	4J14000 07

Instrument parameters
Measurement type:	3-D scan
Data mode:	Fluorescence
EX  Start WL:	220.0 nm
EX  End WL:	600.0 nm
EX Sampling interval:	5.0 nm
EM  Start WL:	230.0 nm
EM  End WL:	650.0 nm
EM Sampling interval:	5.0 nm
Scan speed:	12000 nm/min
EX Slit:	5.0 nm
EM Slit:	5.0 nm
PMT Voltage:	700 V
Response:	Auto 
Corrected spectra:	Off
Contour interval:	50.000

Peak integration
Integration method:	Rectangular
Sensitivity:	1
Threshold:	1.000

Peaks
No.	ApexEX/EM(nm)	Height(Data)
1	225.0/335.0	1280
2	225.0/565.0	70.47
3	230.0/340.0	1301
4	230.0/500.0	337.9
5	240.0/265.0	331.2
6	240.0/525.0	226.5
7	245.0/270.0	336.7
8	245.0/535.0	187.3
9	250.0/275.0	413.3
10	250.0/545.0	148.5
11	255.0/280.0	549.5
12	255.0/560.0	131.5
13	260.0/285.0	545.3
14	260.0/575.0	103.8
15	265.0/585.0	98.98
16	270.0/300.0	920.0
17	270.0/600.0	87.92
18	275.0/305.0	1205
19	275.0/610.0	87.97
20	280.0/310.0	1145
21	280.0/620.0	76.03
22	285.0/315.0	1092
23	285.0/635.0	59.74
24	290.0/325.0	970.0
25	305.0/345.0	490.2
26	315.0/355.0	365.3
27	320.0/365.0	349.1
28	325.0/370.0	333.3
29	330.0/375.0	322.9
30	335.0/380.0	320.3
31	340.0/390.0	291.7
32	345.0/395.0	281.4
33	350.0/400.0	291.6
34	355.0/410.0	289.2
35	365.0/420.0	259.1
36	430.0/505.0	28.86
37	435.0/510.0	24.49
38	440.0/515.0	21.28
39	445.0/525.0	18.04
40	460.0/345.0	3.661
41	460.0/545.0	9.653
42	505.0/275.0	2.714
43	515.0/280.0	3.288
44	520.0/285.0	3.656
45	530.0/290.0	3.405
46	540.0/295.0	4.805
47	545.0/300.0	5.106
48	555.0/305.0	6.030
49	560.0/310.0	6.045
50	575.0/315.0	6.045
51	580.0/320.0	6.193
52	585.0/325.0	5.847

Data points
	220.0	225.0	230.0	235.0	240.0	245.0	250.0	255.0	260.0	265.0	270.0	275.0	280.0	285.0	290.0	295.0	300.0	305.0	310.0	315.0	320.0	325.0	330.0	335.0	340.0	345.0	350.0	355.0	360.0	365.0	370.0	375.0	380.0	385.0	390.0	395.0	400.0	405.0	410.0	415.0	420.0	425.0	430.0	435.0	440.0	445.0	450.0	455.0	460.0	465.0	470.0	475.0	480.0	485.0	490.0	495.0	500.0	505.0	510.0	515.0	520.0	525.0	530.0	535.0	540.0	545.0	550.0	555.0	560.0	565.0	570.0	575.0	580.0	585.0	590.0	595.0	600.0
230.0	73.71	842.6	3136	1416	81.51	6.051	5.396	4.003	3.768	3.001	3.144	2.719	2.436	1.984	1.753	1.448	1.309	1.161	0.961	0.993	0.945	0.703	0.615	0.691	0.702	0.629	0.497	0.504	0.543	0.463	0.478	0.445	0.402	0.398	0.348	0.342	0.367	0.306	0.325	0.282	0.380	0.602	0.704	0.439	0.309	0.277	0.685	4.632	9.999	8.760	3.928	0.928	0.236	0.200	0.210	0.188	0.189	0.171	0.186	0.187	0.183	0.176	0.156	0.169	0.173	0.183	0.198	0.171	0.165	0.174	0.183	0.182	0.165	0.171	0.167	0.176	0.169
235.0	196.3	253.7	1418	2941	646.1	120.1	6.851	5.240	4.012	3.629	3.149	2.397	2.542	2.052	1.846	1.561	1.298	1.026	1.218	0.946	0.805	0.706	0.785	0.852	0.698	0.570	0.549	0.483	0.433	0.403	0.467	0.375	0.401	0.388	0.379	0.315	0.401	0.357	0.422	0.294	0.334	0.353	0.525	0.697	0.701	0.453	0.409	1.298	3.119	5.445	9.306	10.71	6.287	1.782	0.279	0.216	0.233	0.167	0.201	0.243	0.178	0.181	0.222	0.264	0.174	0.176	0.192	0.171	0.171	0.191	0.154	0.203	0.165	0.175	0.191	0.170	0.210
240.0	243.4	200.4	393.4	1865	3111	529.3	69.15	5.124	4.681	4.315	3.347	3.224	2.879	2.115	1.869	1.722	1.379	0.919	1.147	1.149	0.882	0.822	0.722	0.914	0.674	0.544	0.580	0.491	0.472	0.531	0.444	0.407	0.381	0.381	0.349	0.356	0.343	0.414	0.352	0.308	0.340	0.277	0.313	0.497	0.713	0.802	0.637	0.636	0.876	1.474	3.936	9.821	14.94	11.99	5.452	1.220	0.270	0.201	0.212	0.190	0.193	0.183	0.221	0.203	0.213	0.168	0.206	0.214	0.167	0.190	0.209	0.209	0.229	0.149	0.171	0.169	0.200
245.0	123.4	273.3	190.9	538.2	2578	3412	407.9	26.85	5.247	4.795	4.202	3.252	2.923	2.676	2.130	2.044	1.390	1.007	1.081	1.036	0.814	0.835	0.671	0.869	0.675	0.629	0.660	0.561	0.510	0.504	0.466	0.418	0.368	0.352	0.383	0.365	0.380	0.343	0.317	0.338	0.273	0.308	0.301	0.317	0.436	0.658	0.899	0.909	0.622	0.503	1.088	2.817	7.481	15.26	18.70	12.37	3.971	0.554	0.206	0.194	0.191	0.205	0.234	0.186	0.210	0.165	0.180	0.224	0.235	0.208	0.164	0.201	0.194	0.187	0.176	0.173	0.155
250.0	53.49	155.6	258.7	244.6	731.0	2470	3633	1425	108.3	6.897	5.880	4.353	3.446	2.834	2.721	1.938	1.634	1.387	1.123	1.112	0.862	0.921	0.808	0.947	0.699	0.642	0.565	0.598	0.563	0.460	0.528	0.418	0.489	0.406	0.399	0.360	0.309	0.306	0.271	0.341	0.280	0.377	0.314	0.320	0.329	0.397	0.470	0.748	0.869	0.888	0.728	0.957	1.912	4.342	8.769	14.14	19.29	19.27	12.13	4.134	0.611	0.249	0.224	0.194	0.212	0.169	0.207	0.213	0.172	0.200	0.173	0.207	0.188	0.180	0.186	0.211	0.179
255.0	36.44	51.17	139.3	323.5	288.3	598.1	2066	5659	2043	135.2	8.860	5.298	4.469	3.171	2.557	2.059	2.123	1.633	1.433	1.166	1.018	0.762	0.759	0.759	0.829	0.682	0.630	0.689	0.614	0.546	0.460	0.540	0.454	0.380	0.371	0.344	0.357	0.323	0.336	0.396	0.344	0.435	0.320	0.324	0.338	0.349	0.301	0.384	0.417	0.792	1.179	1.380	1.055	1.240	2.163	3.398	5.702	13.14	27.48	30.12	19.44	5.201	0.549	0.278	0.278	0.205	0.221	0.247	0.212	0.164	0.275	0.177	0.227	0.219	0.205	0.162	0.171
260.0	26.22	28.94	56.65	224.7	329.3	209.7	559.5	3525	6942	1635	81.25	8.596	6.085	3.992	3.226	2.956	2.247	1.956	1.618	1.372	1.115	0.966	0.911	0.800	0.778	0.722	0.734	0.678	0.709	0.606	0.518	0.510	0.416	0.552	0.413	0.487	0.349	0.358	0.343	0.318	0.350	0.376	0.336	0.381	0.297	0.302	0.267	0.361	0.253	0.367	0.633	1.484	1.837	1.246	0.889	0.971	1.563	3.411	9.540	23.30	39.18	29.42	16.85	2.902	0.389	0.250	0.231	0.229	0.248	0.208	0.242	0.208	0.251	0.218	0.263	0.208	0.175
265.0	31.94	23.71	28.04	92.41	331.2	281.4	174.1	1010	5452	7638	1209	30.99	8.222	5.098	4.034	2.862	2.561	1.574	1.634	1.280	1.162	1.102	0.853	0.931	0.924	0.710	0.818	0.620	0.662	0.640	0.619	0.546	0.548	0.562	0.424	0.424	0.384	0.370	0.349	0.343	0.382	0.285	0.334	0.357	0.388	0.323	0.250	0.290	0.275	0.232	0.336	0.693	1.432	1.984	1.522	0.733	0.641	1.034	2.423	6.506	16.41	33.41	50.34	27.68	11.52	1.421	0.303	0.277	0.266	0.243	0.229	0.233	0.245	0.303	0.221	0.186	0.199
270.0	51.85	40.04	30.11	39.86	136.8	336.7	307.5	290.6	1521	5302	8221	3132	73.18	8.715	5.799	3.756	3.230	2.282	2.070	1.695	1.282	1.238	1.011	0.971	0.974	0.902	0.742	0.673	0.809	0.834	0.621	0.519	0.535	0.545	0.481	0.478	0.409	0.417	0.394	0.421	0.406	0.347	0.359	0.387	0.349	0.369	0.314	0.302	0.315	0.269	0.294	0.336	0.609	0.910	1.542	1.783	1.854	1.130	0.944	1.783	4.053	8.824	19.70	31.22	43.57	40.85	18.55	8.695	1.486	0.331	0.275	0.354	0.223	0.330	0.212	0.251	0.219
275.0	92.49	89.47	55.43	45.45	55.48	133.9	413.3	359.3	393.7	1256	3992	9999.9	1322	82.97	9.342	5.389	3.922	2.730	2.510	1.924	1.558	1.430	1.063	1.079	0.982	1.094	0.738	0.772	0.722	0.832	0.799	0.668	0.762	0.561	0.541	0.535	0.583	0.559	0.446	0.547	0.464	0.423	0.449	0.487	0.464	0.529	0.508	0.438	0.464	0.297	0.336	0.295	0.413	0.459	0.674	0.889	1.780	2.714	2.493	1.311	1.248	2.312	4.718	7.471	11.36	20.68	46.97	67.76	29.32	12.09	1.148	0.359	0.291	0.307	0.227	0.294	0.335
280.0	160.3	146.8	99.80	64.53	46.11	66.90	222.7	549.5	288.2	344.2	1047	6084	9999.9	1029	44.13	8.525	5.214	3.677	2.992	2.370	1.838	1.415	1.263	1.327	1.130	1.119	0.929	0.881	0.779	0.648	0.695	0.818	0.755	0.701	0.773	0.636	0.737	0.673	0.592	0.586	0.567	0.484	0.550	0.499	0.611	0.717	0.674	0.606	0.449	0.436	0.419	0.362	0.374	0.322	0.513	0.469	0.828	1.656	2.836	3.288	1.750	1.040	1.559	2.120	3.047	5.216	14.14	35.12	63.54	70.16	25.68	6.203	0.548	0.352	0.318	0.308	0.276
285.0	228.2	230.8	158.6	90.74	54.85	53.25	104.4	404.4	545.3	218.2	329.5	1686	8253	8684	706.4	18.36	7.314	5.263	3.437	2.471	2.088	1.907	1.758	1.284	1.144	1.255	0.934	0.806	0.813	0.860	0.682	0.685	0.762	0.765	0.786	0.791	0.949	0.961	0.711	0.760	0.688	0.556	0.677	0.666	0.735	0.747	0.830	0.736	0.584	0.575	0.444	0.477	0.419	0.397	0.450	0.326	0.588	0.766	1.471	2.916	3.656	2.494	1.212	1.120	1.235	1.754	3.801	8.922	21.51	48.99	71.68	34.04	19.77	2.988	0.477	0.382	0.317
290.0	374.3	337.6	251.5	156.8	87.78	78.00	93.46	192.0	474.9	570.0	257.1	534.4	2252	6546	8238	2421	40.99	7.294	4.677	3.219	2.841	2.158	1.889	1.535	1.341	1.261	1.059	0.964	0.963	0.917	0.866	0.791	0.841	0.840	0.931	0.934	1.035	1.078	0.947	0.958	0.911	0.777	0.929	0.795	0.867	0.957	0.994	1.083	0.870	0.745	0.618	0.595	0.552	0.517	0.508	0.508	0.616	0.610	0.845	1.357	1.962	3.057	3.405	3.076	1.830	1.297	1.792	2.910	5.609	12.28	23.01	33.23	52.71	46.08	41.47	13.38	3.526
295.0	465.2	446.1	352.4	231.3	138.5	123.6	126.5	165.3	260.9	581.7	744.7	425.2	718.5	1630	3986	9999.9	730.7	45.55	6.706	4.993	3.387	2.746	1.910	1.926	1.599	1.313	1.178	1.281	1.020	1.147	0.856	0.746	0.885	0.939	1.063	1.192	1.296	1.323	1.233	1.066	1.060	1.129	1.293	1.025	1.103	1.304	1.215	1.172	1.142	1.023	0.858	0.869	0.884	0.769	0.644	0.627	0.809	0.773	0.914	1.084	1.426	1.498	2.004	3.620	4.805	3.477	2.308	1.954	2.581	4.033	6.170	8.337	12.96	17.12	43.76	72.76	36.04
300.0	562.7	546.8	438.8	293.5	194.6	168.6	183.8	216.5	279.7	448.4	920.0	750.7	500.6	597.9	1116	5858	9590	610.0	23.25	6.532	4.539	3.009	2.268	2.134	1.755	1.748	1.267	1.209	1.129	1.128	0.889	0.779	0.755	0.868	0.960	1.252	1.334	1.374	1.402	1.160	1.150	1.522	1.228	1.188	1.313	1.366	1.403	1.422	1.412	1.349	1.034	1.067	0.981	0.889	0.852	0.887	1.041	1.125	1.249	1.227	1.401	1.567	1.823	2.440	3.906	5.106	4.927	3.238	2.534	2.575	2.787	3.144	4.169	4.933	11.83	29.43	56.27
305.0	644.7	655.8	547.3	357.1	249.6	224.7	269.9	314.2	352.2	511.1	815.1	1205	726.6	496.8	512.1	1675	7529	5399	435.4	11.44	5.654	3.788	2.805	2.218	1.819	2.082	1.682	1.384	1.207	1.156	0.947	0.873	0.770	0.984	1.057	1.353	1.530	1.502	1.507	1.504	1.384	1.552	1.384	1.278	1.364	1.682	1.514	1.734	1.692	1.328	1.198	1.252	1.189	1.073	1.256	1.309	1.335	1.339	1.567	1.763	1.847	2.003	2.239	2.749	3.190	4.273	5.957	6.030	4.843	3.392	2.932	2.696	2.756	2.836	4.103	7.971	16.66
310.0	722.5	745.8	650.2	436.7	312.4	284.1	325.0	386.9	458.2	578.5	757.0	1057	1145	711.0	469.0	598.6	2126	5303	6168	1676	26.58	5.403	3.941	2.938	2.359	1.975	1.681	1.335	1.352	1.142	1.101	0.968	0.941	0.952	1.133	1.243	1.594	1.757	1.634	1.532	1.587	1.470	1.427	1.558	1.558	1.923	1.887	2.010	1.902	1.584	1.366	1.470	1.426	1.258	1.376	1.326	1.571	1.675	1.842	1.946	2.163	2.305	2.762	3.041	3.332	3.630	4.394	5.411	6.045	5.913	4.713	3.619	3.071	2.813	2.717	3.178	4.982
315.0	814.3	852.9	734.0	509.2	362.3	326.8	383.9	441.1	503.8	625.0	776.6	916.9	1057	1092	602.3	406.4	678.3	1323	3530	8187	530.2	27.79	5.956	3.824	2.635	2.112	1.745	1.507	1.460	1.132	1.166	0.946	0.970	0.953	1.121	1.285	1.610	1.763	1.752	1.753	1.651	1.630	1.489	1.536	1.637	2.026	2.047	2.222	2.011	1.813	1.477	1.570	1.597	1.497	1.456	1.540	1.818	1.941	2.141	2.172	2.276	2.870	3.075	3.263	3.464	3.508	4.119	4.442	4.810	5.298	5.981	6.045	4.655	3.419	2.833	2.463	2.814
320.0	896.8	957.4	857.9	551.8	398.0	363.4	411.8	468.5	544.3	650.5	793.1	907.5	947.9	1063	860.4	430.9	384.2	430.4	929.0	5184	7117	438.2	13.28	4.724	3.782	2.489	2.058	1.799	1.584	1.437	1.129	0.954	0.924	0.995	1.134	1.217	1.520	1.812	1.816	1.803	1.607	1.761	1.647	1.809	1.833	2.094	2.350	2.500	2.463	2.032	1.687	1.642	1.651	1.635	1.735	1.616	1.916	2.183	2.257	2.262	2.488	2.822	3.112	3.431	3.475	3.561	4.057	4.378	4.393	4.917	4.940	5.552	6.193	4.952	3.507	2.611	2.394
325.0	996.1	1080	968.4	643.6	442.8	387.5	426.6	485.5	541.3	652.3	802.0	886.7	911.5	902.5	970.0	573.2	334.9	245.0	276.4	1434	6227	3984	62.03	8.128	4.732	3.151	2.469	2.068	1.676	1.448	1.270	1.133	1.153	1.082	1.196	1.405	1.505	1.952	1.767	1.680	1.704	1.706	1.755	1.882	2.013	2.371	2.451	3.034	2.751	2.309	1.828	1.962	1.857	1.817	1.799	1.786	1.972	2.067	2.208	2.289	2.475	2.920	3.209	3.598	3.522	3.863	4.122	4.115	4.472	4.354	4.479	4.537	5.365	5.847	4.943	3.380	2.485
330.0	1032	1215	1146	817.7	543.9	438.9	442.2	495.2	557.4	654.7	787.5	875.2	887.2	823.3	782.5	713.0	451.7	229.3	153.7	379.1	1726	4341	4823	1276	20.46	4.459	3.294	2.508	2.013	1.810	1.516	1.256	1.244	1.115	1.284	1.286	1.416	1.746	1.633	1.678	1.637	1.687	1.905	2.005	2.135	2.653	2.840	3.224	3.188	2.806	2.440	2.505	2.186	1.998	1.884	1.798	2.136	2.166	2.409	2.461	2.514	2.776	2.967	3.281	3.485	3.768	3.890	4.089	4.249	4.412	4.319	4.342	4.245	4.415	4.548	4.639	3.954
335.0	1115	1280	1235	956.3	653.5	514.8	469.8	504.3	562.8	650.7	766.4	853.9	870.3	797.7	689.3	596.2	615.6	337.4	158.2	165.6	439.5	1035	3174	6665	434.8	22.64	4.548	3.275	2.378	2.332	1.851	1.434	1.508	1.279	1.190	1.248	1.574	1.383	1.560	1.591	1.646	1.859	2.070	2.109	2.364	2.813	3.042	3.627	3.652	3.143	2.804	2.850	2.513	2.337	2.173	2.147	2.041	2.267	2.433	2.590	2.622	2.707	2.991	3.189	3.710	3.678	4.072	3.904	4.348	4.396	4.478	4.433	4.013	4.017	3.580	3.671	3.903
340.0	1127	1274	1301	998.1	722.9	542.7	498.0	521.9	556.6	642.7	744.4	823.3	835.7	774.9	659.5	526.3	543.2	480.9	208.0	134.8	165.6	279.6	837.5	4576	6019	370.7	10.17	4.159	2.860	2.437	2.031	1.435	1.423	1.209	1.251	1.201	1.369	1.357	1.758	1.677	1.627	1.735	1.768	2.109	2.424	2.671	3.243	3.611	3.653	3.219	2.858	3.008	2.831	2.438	2.173	2.191	2.171	2.302	2.479	2.588	2.403	2.721	2.922	3.089	3.445	3.598	3.911	3.966	4.054	4.372	4.289	4.062	3.953	3.989	3.513	3.207	3.223
345.0	1108	1269	1279	1028	748.1	569.2	516.0	521.2	553.0	627.3	710.8	784.4	800.9	747.5	639.3	509.1	449.2	490.2	329.3	153.0	119.2	122.5	229.2	1300	5660	3353	53.23	6.333	3.921	2.714	2.172	1.707	1.529	1.304	1.305	1.225	1.396	1.404	1.574	1.573	1.572	1.839	1.798	2.205	2.417	2.748	2.800	3.544	3.661	3.218	2.899	2.993	2.926	2.508	2.375	2.125	2.370	2.334	2.275	2.632	2.463	2.710	2.817	3.314	3.359	3.572	3.619	3.663	4.014	3.939	4.091	3.791	3.560	3.924	3.539	3.075	3.005
350.0	1069	1189	1222	1036	798.4	616.3	543.7	531.5	556.5	606.4	681.2	734.6	751.0	703.3	618.9	500.9	417.1	384.4	395.3	276.2	144.8	110.2	112.4	333.4	1605	3655	3974	1092	17.95	3.952	2.576	2.104	1.747	1.342	1.319	1.275	1.407	1.374	1.428	1.508	1.496	1.783	1.898	1.950	2.188	2.764	2.796	3.276	3.390	3.167	2.880	3.116	3.055	2.721	2.536	2.302	2.435	2.397	2.393	2.557	2.583	2.796	2.942	3.068	3.238	3.406	3.433	3.478	3.638	3.764	3.789	3.643	3.445	3.573	3.304	3.165	2.932
355.0	996.1	1120	1138	1004	799.3	667.6	574.5	553.6	567.1	603.7	647.5	693.0	705.2	663.1	601.5	496.8	420.3	355.8	327.3	365.3	255.7	139.5	109.4	136.2	399.8	870.7	2602	5357	397.8	20.78	3.642	2.786	2.190	1.588	1.429	1.448	1.527	1.482	1.347	1.521	1.418	1.594	1.748	1.922	2.141	2.484	2.710	3.125	3.229	2.982	2.738	3.019	2.964	2.968	2.725	2.420	2.698	2.599	2.516	2.615	2.486	2.876	3.007	2.919	3.003	3.314	3.159	3.418	3.443	3.702	3.677	3.617	3.335	3.574	3.016	3.229	2.897
360.0	924.8	1068	1103	980.2	792.9	681.5	599.8	579.4	575.2	602.7	636.8	672.9	671.5	643.8	580.5	497.7	428.8	366.2	312.5	326.9	348.7	202.6	127.7	109.2	141.7	233.3	687.1	3698	4874	350.5	9.888	3.414	2.458	1.828	1.588	1.528	1.389	1.466	1.462	1.572	1.493	1.554	1.694	1.860	2.017	2.377	2.551	2.920	3.108	2.779	2.749	3.041	2.894	3.086	2.777	2.529	2.653	2.615	2.622	2.445	2.583	2.648	2.838	2.909	2.949	3.051	3.107	3.219	3.354	3.462	3.535	3.644	3.297	3.521	3.122	3.092	3.016
365.0	913.4	1035	1062	948.0	806.3	694.1	618.1	594.0	585.5	606.1	632.9	659.2	658.2	629.0	574.5	501.1	437.5	383.0	322.0	302.8	349.1	300.8	164.5	117.8	102.7	101.9	191.4	1054	4514	3150	50.44	5.974	3.108	2.236	1.913	1.619	1.589	1.528	1.523	1.499	1.309	1.647	1.655	1.887	1.953	2.266	2.585	2.810	2.910	2.631	2.592	2.827	2.832	2.973	2.902	2.775	2.831	2.925	2.668	2.607	2.549	2.621	2.832	3.065	2.883	2.959	2.997	3.238	3.426	3.548	3.488	3.331	3.474	3.441	3.266	3.285	2.885
370.0	861.2	972.2	989.2	909.4	828.2	719.1	653.2	615.1	601.4	619.3	626.3	643.7	634.0	612.8	568.1	502.0	447.9	403.6	349.8	312.9	304.0	333.3	271.5	162.2	119.0	94.32	96.80	273.9	1270	3266	3640	1039	17.02	3.082	2.445	1.832	1.728	1.673	1.557	1.561	1.483	1.722	1.619	1.788	1.924	2.249	2.309	2.589	2.721	2.748	2.424	2.818	3.016	2.990	2.963	2.710	2.869	2.951	2.842	2.711	2.596	2.736	2.819	2.936	2.996	3.040	3.031	3.027	3.075	3.206	3.161	3.255	3.340	3.369	3.250	3.199	3.203
375.0	865.4	897.2	936.0	901.0	829.6	731.4	668.5	645.3	619.6	626.2	626.0	623.3	621.1	593.3	557.8	501.5	459.1	420.1	371.5	335.8	303.0	293.7	322.9	262.0	157.0	117.9	95.97	118.0	322.2	780.2	2303	4739	347.5	18.83	3.236	2.329	2.035	1.807	1.539	1.663	1.589	1.633	1.672	1.799	1.899	2.092	2.153	2.370	2.677	2.534	2.547	3.027	3.028	3.005	3.031	2.693	3.025	2.935	2.868	2.765	2.714	2.780	2.961	2.816	2.762	2.992	3.000	2.940	3.124	3.263	3.074	3.300	3.060	3.218	3.130	3.182	3.181
380.0	806.3	869.0	906.0	874.0	813.5	742.5	688.6	645.9	630.9	626.4	622.3	613.5	617.1	587.2	548.4	502.9	462.2	428.3	387.9	355.5	316.8	292.1	296.8	320.3	214.4	141.5	111.3	97.50	122.9	212.9	610.7	3175	4197	299.2	9.384	2.748	2.434	2.069	1.706	1.782	1.659	1.616	1.757	1.756	1.859	2.043	2.238	2.400	2.632	2.448	2.519	2.831	3.051	3.199	3.044	2.672	2.984	2.815	2.999	2.845	2.884	2.872	2.897	2.892	2.900	2.856	3.068	2.838	3.140	2.963	3.140	3.254	3.027	3.114	3.133	2.961	3.256
385.0	787.7	877.4	876.1	850.9	798.0	739.1	688.1	651.4	632.4	628.9	624.7	620.0	609.7	585.5	543.0	495.1	459.3	430.3	398.5	364.4	332.5	302.5	282.0	306.7	282.0	177.1	131.4	106.4	91.32	94.88	173.8	892.9	3666	2642	223.3	5.105	2.685	2.240	1.868	1.894	1.723	1.627	1.691	1.649	1.788	2.044	2.152	2.377	2.509	2.284	2.400	2.800	3.103	2.894	2.884	2.761	3.148	2.697	2.988	2.832	3.174	2.850	2.741	3.127	2.805	2.988	2.953	2.752	2.980	3.233	3.125	3.172	3.009	3.102	3.184	2.944	3.131
390.0	792.0	845.7	859.5	831.0	792.7	731.8	693.8	663.6	633.5	626.3	625.8	610.4	592.1	571.3	532.2	487.4	459.8	434.3	404.9	375.2	345.2	322.6	291.4	277.7	291.7	255.3	172.0	129.3	102.2	84.65	87.36	235.3	1006	2399	2800	867.3	15.41	3.172	2.289	2.085	1.861	1.787	1.914	1.906	1.875	2.089	2.182	2.476	2.490	2.174	2.286	2.731	2.970	2.943	2.888	2.802	3.107	2.858	2.984	2.930	3.075	2.945	2.781	2.967	2.841	2.923	2.837	2.741	2.869	3.000	3.107	3.007	2.963	3.043	3.231	3.004	3.143
395.0	754.1	813.7	838.6	813.7	782.2	738.3	694.6	667.9	642.9	632.0	621.4	615.4	595.1	564.8	527.9	486.1	457.0	434.9	411.4	385.0	361.4	337.1	310.1	285.3	267.8	281.4	249.5	169.6	131.1	104.9	88.77	104.0	258.4	569.4	1583	3472	1230	20.11	3.457	2.359	1.899	2.066	1.906	2.145	2.009	2.081	2.056	2.392	2.399	2.257	2.131	2.810	2.813	3.042	2.978	2.834	2.937	3.042	3.139	2.862	2.972	2.928	2.782	2.964	2.827	2.968	2.801	2.715	2.711	2.730	2.797	2.936	2.999	2.909	3.201	3.308	2.866
400.0	752.0	799.2	820.8	800.3	760.8	727.1	703.1	677.1	658.7	652.2	637.7	624.0	606.0	574.9	525.7	491.2	455.1	432.5	410.6	393.1	366.3	349.7	326.1	299.3	278.0	273.5	291.6	228.2	160.7	129.9	108.5	90.89	104.5	159.6	412.1	2079	3299	270.8	12.64	2.921	2.352	1.962	2.063	2.018	2.043	2.229	2.104	2.405	2.328	2.279	2.154	2.624	2.573	2.731	2.874	2.877	3.133	3.155	3.054	2.892	3.042	3.024	3.044	2.951	2.837	3.037	3.150	2.720	2.841	2.855	2.944	2.860	2.910	2.873	3.093	3.012	2.949
405.0	778.8	777.3	815.7	772.9	764.7	731.3	711.1	687.9	668.8	668.4	652.6	642.6	619.1	587.8	535.0	486.9	452.2	433.0	416.7	392.8	370.8	352.6	337.1	317.7	293.6	276.7	289.0	288.7	205.5	158.8	133.2	104.5	83.35	76.13	123.8	560.2	2394	2277	219.8	6.069	2.709	2.198	2.041	2.137	2.037	2.225	2.080	2.338	2.309	2.155	2.319	2.683	2.772	2.656	2.714	2.868	2.999	3.064	3.040	3.013	3.166	3.155	2.928	3.008	2.902	2.889	2.900	2.819	2.921	2.754	3.063	2.883	3.010	2.917	2.922	2.791	3.196
410.0	740.3	768.1	780.6	749.1	742.7	720.7	703.2	691.1	678.4	669.6	661.7	652.5	618.7	581.0	530.1	479.8	445.8	422.8	402.9	386.2	371.7	356.1	344.4	327.1	310.7	288.2	279.2	289.2	267.6	203.5	156.8	124.7	94.07	71.16	68.26	155.3	632.4	1699	2174	810.2	15.66	2.985	2.436	2.292	1.997	2.111	2.091	2.195	2.359	2.186	2.182	2.592	2.710	2.733	2.823	2.729	3.100	2.946	3.033	3.167	2.936	3.006	3.043	2.919	3.053	2.880	2.967	2.766	2.736	2.948	2.981	3.051	3.068	2.775	2.991	2.914	2.992
415.0	705.5	754.2	749.4	727.6	713.6	693.6	698.4	687.6	674.3	665.7	653.7	635.9	605.0	554.7	509.2	461.4	429.7	405.8	390.2	374.3	359.9	349.6	336.4	325.6	310.4	293.0	275.5	263.5	267.0	251.3	180.8	137.0	103.2	76.71	61.53	69.06	165.3	399.2	1011	2526	1122	20.95	3.164	2.382	2.107	2.178	2.110	2.136	2.280	1.991	2.104	2.420	2.770	2.603	2.860	2.627	3.054	2.971	2.803	3.008	2.724	3.159	2.956	2.908	2.771	2.998	3.061	2.846	2.810	2.718	2.741	2.897	2.761	2.764	2.943	2.774	2.864
420.0	681.0	730.1	708.5	710.8	690.2	684.4	674.4	664.8	664.8	658.8	644.3	628.2	582.7	538.9	489.3	444.5	409.1	392.0	374.1	361.3	348.2	342.1	332.4	321.7	308.9	289.1	274.5	255.2	246.7	259.1	211.9	147.7	108.6	81.33	62.54	52.22	62.95	106.3	250.7	1318	2504	263.4	14.15	2.865	2.205	2.224	2.074	2.095	2.179	2.027	2.129	2.371	2.774	2.697	2.686	2.602	3.002	2.839	3.026	2.911	2.965	2.932	2.776	2.657	2.816	3.095	2.744	2.796	2.808	2.716	2.672	2.723	2.677	2.955	2.717	2.704	2.793
425.0	672.8	696.2	686.8	683.0	677.4	646.6	650.2	653.3	652.4	645.6	643.1	612.5	565.2	526.2	467.9	428.1	389.2	374.1	362.3	347.4	335.4	326.6	323.9	311.4	304.0	286.0	272.2	255.1	240.4	239.4	234.0	167.5	116.3	86.79	67.26	51.45	42.36	42.48	69.62	334.8	1542	2079	226.2	7.611	2.748	2.412	2.181	2.123	2.127	2.089	1.809	2.295	2.548	2.646	2.646	2.614	2.745	2.848	2.883	2.844	2.864	2.955	2.962	2.912	2.810	2.818	2.609	2.685	2.553	2.770	2.529	2.659	2.572	2.504	2.452	2.806	2.568
430.0	1083	656.2	664.2	657.1	641.7	631.3	643.4	648.1	633.6	636.8	632.4	600.5	557.4	509.7	452.7	410.9	376.6	359.2	344.0	331.9	321.3	317.7	311.1	306.7	299.2	289.7	273.1	260.0	244.2	227.7	223.6	200.2	141.0	98.28	76.24	59.49	44.40	33.56	31.88	86.54	386.2	1177	1776	770.8	16.48	3.032	2.332	2.191	2.191	1.991	1.902	2.487	2.409	2.555	2.771	2.747	2.820	2.837	2.926	2.847	2.784	2.888	3.066	2.772	2.854	2.626	2.734	2.692	2.554	2.577	2.491	2.540	2.534	2.503	2.523	2.360	2.567
435.0	2018	733.4	644.0	628.0	633.0	616.1	619.0	625.5	626.5	638.1	624.6	593.5	543.1	492.2	437.9	394.3	356.2	339.5	322.7	315.4	305.5	306.1	301.7	298.6	289.5	284.4	270.6	260.4	245.2	230.0	208.5	195.7	170.2	118.6	83.81	66.83	49.62	37.59	28.20	33.98	97.31	272.1	685.3	2019	1192	23.29	2.899	2.466	2.250	2.022	1.913	2.400	2.424	2.458	2.427	2.460	2.698	2.750	2.806	2.771	2.798	2.734	3.046	2.913	2.936	2.797	2.621	2.748	2.581	2.829	2.547	2.396	2.350	2.248	2.459	2.117	2.219
440.0	2513	1054	607.9	603.3	604.8	602.5	600.8	611.0	619.0	621.7	612.0	579.3	531.6	481.1	424.0	378.8	339.2	324.7	310.0	301.9	291.9	290.7	290.2	288.0	279.3	274.9	263.9	257.6	240.1	222.4	203.4	179.7	172.3	138.7	94.55	70.75	53.61	39.83	29.52	25.28	34.64	70.94	166.1	929.6	2210	887.1	16.15	3.070	2.439	2.008	1.960	2.174	2.454	2.422	2.474	2.324	2.597	2.634	2.607	2.765	2.894	2.863	3.091	2.711	2.735	2.749	2.597	2.655	2.588	2.627	2.233	2.522	2.302	2.347	2.204	2.229	2.255
445.0	2230	1783	612.2	575.7	580.8	581.0	594.5	603.0	604.3	604.2	594.5	566.9	512.3	455.0	407.6	360.7	321.9	310.1	298.4	285.5	278.6	273.7	273.6	273.8	268.5	262.9	253.9	248.0	233.4	219.4	198.4	172.1	156.5	146.2	107.6	75.07	56.10	42.03	32.65	24.87	22.38	27.03	45.88	229.0	1203	2091	208.8	11.42	2.611	2.123	1.912	2.190	2.415	2.247	2.286	2.224	2.595	2.589	2.625	2.719	2.712	2.885	2.766	2.816	2.681	2.665	2.526	2.562	2.491	2.236	2.257	2.358	2.313	2.083	2.021	2.309	2.175
450.0	1252	2444	980.6	544.1	539.4	547.1	554.4	569.4	570.8	567.6	562.0	531.6	477.1	423.4	374.0	331.7	298.1	284.4	272.0	262.8	256.4	255.8	254.2	252.3	248.6	243.9	237.7	231.5	218.9	204.7	186.5	162.6	140.1	130.2	119.7	87.18	60.15	45.09	35.31	27.73	22.64	19.39	20.73	59.37	293.8	1007	1516	813.8	15.17	2.719	2.107	2.326	2.255	2.165	2.144	2.161	2.312	2.511	2.542	2.620	2.602	2.592	2.595	2.632	2.721	2.585	2.385	2.457	2.378	2.169	2.130	2.255	2.022	2.117	2.102	2.105	1.965
455.0	648.9	1917	2038	587.2	499.2	500.7	519.8	518.5	539.0	531.8	521.0	493.1	440.0	387.3	341.3	299.5	274.8	258.8	247.5	236.6	232.7	232.2	229.4	229.2	225.5	224.6	217.2	212.1	203.0	192.8	176.7	155.0	132.0	114.0	107.3	100.4	70.08	48.49	37.27	30.14	24.40	20.18	16.48	22.72	72.88	231.1	501.4	1596	1075	20.13	2.497	2.256	2.175	2.075	2.071	2.016	2.379	2.417	2.369	2.591	2.434	2.518	2.417	2.509	2.385	2.542	2.253	2.473	2.043	2.250	2.023	2.143	1.959	1.909	1.781	1.991	1.979
460.0	498.0	1089	2605	866.1	460.8	474.9	487.3	491.1	502.4	499.6	489.0	466.5	415.0	360.1	319.5	277.5	257.1	237.6	227.5	219.8	216.1	213.5	212.4	211.5	207.3	205.5	202.8	197.0	190.7	182.1	168.1	146.8	127.1	107.5	94.40	95.78	80.03	53.74	39.41	31.76	25.97	21.06	16.89	15.47	24.79	58.21	119.1	646.7	1758	787.4	14.76	2.838	2.304	2.080	2.135	2.037	2.176	2.166	2.266	2.290	2.384	2.546	2.372	2.334	2.306	2.289	2.249	2.118	2.081	2.163	1.914	1.874	1.999	1.847	1.625	1.744	1.616
465.0	456.6	594.4	2309	1637	460.5	440.8	457.7	461.5	473.0	476.5	460.4	432.9	394.3	341.8	300.7	260.4	239.6	219.8	210.6	204.1	199.8	199.2	195.5	197.0	192.5	191.1	188.4	184.8	180.0	172.0	157.7	140.0	120.4	102.8	89.40	84.41	81.91	62.05	41.58	33.26	27.01	21.63	18.25	14.78	14.78	20.34	32.89	156.1	881.6	1599	175.3	11.95	2.588	2.115	2.104	1.926	2.213	2.149	2.202	2.138	2.340	2.272	2.273	2.292	2.128	2.053	2.139	2.079	2.087	2.003	1.896	1.831	1.761	1.758	1.648	1.566	1.841
470.0	449.4	422.8	1197	2342	816.0	395.0	409.5	419.1	431.8	434.0	424.7	392.9	356.6	312.2	270.0	236.0	211.0	196.7	189.3	182.9	177.4	176.3	173.7	174.8	172.7	171.3	168.5	165.4	162.0	157.0	144.6	128.9	112.9	96.61	83.37	73.68	70.89	66.58	49.40	35.14	27.99	22.62	19.15	15.93	13.56	12.81	14.22	40.64	212.0	717.5	1090	645.9	15.99	2.578	2.190	1.976	2.116	2.001	2.181	2.125	2.063	2.080	2.021	2.069	1.971	1.911	1.805	1.886	1.852	1.700	1.716	1.602	1.701	1.625	1.517	1.524	1.540
475.0	445.6	369.3	548.3	1792	1812	425.0	365.3	381.3	392.3	397.8	388.0	355.7	321.6	278.6	240.9	208.7	186.7	176.3	166.3	160.6	155.8	153.1	153.1	153.5	151.7	148.8	147.9	146.2	142.1	139.4	128.4	115.0	102.3	88.15	76.45	66.91	59.39	57.57	55.26	39.69	28.36	23.41	19.94	16.69	14.91	11.86	10.51	15.22	52.35	164.1	334.2	1031	796.4	22.48	2.255	1.799	2.048	2.039	1.940	1.884	1.782	2.032	1.804	1.891	1.860	1.852	1.876	1.585	1.575	1.624	1.468	1.436	1.583	1.472	1.426	1.405	1.541
480.0	402.0	380.5	366.1	989.7	2375	591.2	342.7	353.2	365.0	363.7	355.9	331.4	297.3	256.5	225.0	192.2	173.5	162.9	153.9	146.6	142.2	138.1	140.1	139.3	138.6	136.5	134.2	134.3	131.9	128.0	121.1	108.7	95.29	85.22	72.33	63.97	55.73	50.42	53.31	44.70	30.84	24.27	20.37	17.24	14.66	12.42	10.10	10.23	17.14	40.86	79.14	385.2	1234	651.0	16.81	2.256	2.018	1.952	2.022	1.793	1.815	1.983	1.748	1.739	1.736	1.746	1.841	1.493	1.597	1.670	1.389	1.320	1.399	1.392	1.415	1.371	1.281
485.0	335.0	388.7	319.7	505.2	2168	1351	343.9	333.4	345.8	341.6	335.4	308.5	277.7	242.8	211.3	181.3	161.9	150.5	143.7	137.1	130.6	127.8	129.5	127.0	128.2	125.8	125.1	123.7	121.0	118.1	112.1	101.9	89.08	80.10	68.51	61.23	53.02	46.29	46.07	46.77	36.11	25.16	21.58	17.85	15.00	12.76	10.76	9.892	9.588	13.61	21.75	92.82	592.3	1241	206.7	10.77	2.273	2.003	1.839	1.677	1.843	1.731	1.695	1.558	1.688	1.696	1.709	1.621	1.467	1.538	1.407	1.408	1.444	1.196	1.219	1.234	1.207
490.0	280.7	366.6	318.4	330.3	1128	2171	658.9	307.3	310.8	313.1	308.6	283.5	254.7	222.4	190.1	165.1	147.6	137.2	129.2	124.1	118.9	117.0	117.1	115.0	115.1	112.4	111.7	111.2	110.8	108.4	102.4	93.91	82.92	73.81	64.37	57.18	49.97	44.20	39.89	40.44	39.58	29.95	22.13	17.98	15.64	13.16	11.43	10.11	8.286	7.886	9.070	24.52	141.5	517.6	945.3	609.5	17.34	2.495	1.801	1.821	1.791	1.722	1.656	1.656	1.527	1.567	1.531	1.487	1.422	1.366	1.285	1.235	1.332	1.225	1.183	1.195	1.191
495.0	247.4	308.1	321.2	275.2	466.9	1791	1617	321.7	277.9	280.1	285.8	259.3	227.9	202.2	170.4	148.6	134.0	122.9	114.9	109.5	106.6	104.0	104.5	102.2	101.1	101.0	99.84	99.55	97.86	97.16	91.68	85.03	76.49	67.43	58.56	53.67	47.50	41.48	35.80	33.93	34.85	34.39	25.52	18.56	16.48	13.81	11.69	10.05	8.614	7.339	6.340	9.219	34.71	118.5	299.5	992.9	832.8	24.87	1.963	1.914	1.632	1.698	1.579	1.586	1.449	1.535	1.472	1.400	1.317	1.258	1.256	1.154	1.163	1.205	1.172	1.058	1.135
500.0	238.9	248.0	337.9	264.2	280.6	997.6	2341	550.8	258.5	262.7	260.4	239.9	208.6	185.9	156.6	138.0	123.4	112.1	105.7	97.90	96.97	94.42	94.55	91.97	91.45	91.18	91.89	90.39	89.59	87.71	84.70	79.42	69.88	61.86	54.75	49.89	44.26	38.88	33.76	31.52	30.12	32.60	28.59	19.60	15.72	13.58	11.79	10.35	8.754	7.666	5.963	5.974	10.89	29.33	70.47	369.0	1180	630.8	18.29	1.992	1.623	1.596	1.547	1.464	1.422	1.311	1.379	1.377	1.161	1.179	1.119	1.113	1.093	1.094	1.208	0.978	1.024
505.0	211.3	211.2	310.1	274.1	225.0	465.9	2281	1165	251.8	238.1	236.0	219.2	189.9	170.4	144.9	125.2	113.4	103.0	97.52	90.12	87.94	87.49	84.67	85.26	83.45	82.53	81.66	81.69	83.63	80.98	77.34	73.01	64.39	57.98	51.67	46.32	41.03	36.00	33.31	29.27	26.75	27.11	28.86	22.48	16.16	13.77	11.79	10.11	8.505	7.811	6.008	5.179	5.801	9.550	18.44	87.69	532.5	1164	222.6	10.76	1.861	1.667	1.360	1.284	1.384	1.218	1.224	1.150	1.190	1.137	1.009	1.026	0.941	0.910	1.013	0.928	0.946
510.0	173.9	180.7	227.2	265.7	203.4	244.2	1192	2175	496.7	214.4	211.9	197.4	170.7	151.8	127.4	111.9	99.69	90.74	85.31	80.86	78.16	76.62	73.90	74.55	72.60	72.36	72.09	72.06	71.71	69.05	66.79	63.52	57.17	51.39	45.80	41.51	37.28	32.77	29.78	26.64	24.04	22.65	24.25	24.49	18.34	13.81	11.55	9.771	8.392	7.398	6.364	5.298	4.782	5.255	6.677	21.92	126.0	470.6	805.4	496.8	16.88	1.941	1.413	1.324	1.321	1.071	1.066	1.138	1.112	0.967	0.914	0.888	0.898	0.908	0.849	0.804	0.809
515.0	159.8	166.7	176.8	238.4	210.6	177.6	423.0	2010	1474	209.8	186.8	171.6	152.5	132.0	114.1	97.54	87.35	79.61	74.37	68.44	66.28	66.48	64.43	63.28	62.76	61.57	61.15	61.76	62.02	60.43	58.20	55.28	50.30	44.85	40.27	36.57	33.53	29.02	26.62	24.34	22.37	20.00	19.76	20.99	21.28	15.12	11.32	9.401	7.891	7.018	6.173	5.616	4.634	4.120	4.125	7.363	30.19	106.9	240.8	774.8	632.6	24.02	1.677	1.244	1.151	1.149	1.034	1.075	1.033	0.979	0.959	0.794	0.844	0.866	0.825	0.834	0.877
520.0	141.2	143.9	148.4	199.1	224.1	158.6	208.9	1122	2408	294.0	167.8	157.5	137.5	118.6	102.7	86.15	77.16	70.89	67.28	61.80	59.58	59.95	57.91	57.22	55.73	55.85	54.18	53.28	56.18	54.50	52.56	50.04	44.56	39.27	36.08	33.34	30.32	26.88	24.64	22.00	20.61	18.34	16.99	17.27	20.12	16.78	11.80	9.348	7.681	6.785	6.309	5.412	4.739	3.901	3.306	3.925	8.880	26.11	56.44	288.5	875.3	241.8	16.22	1.412	1.123	1.053	0.934	0.958	0.990	0.881	0.793	0.832	0.879	0.754	0.715	0.810	0.765
525.0	129.5	124.6	132.4	158.6	226.5	158.4	159.3	458.6	2568	972.4	156.5	143.0	125.4	105.9	94.13	78.62	69.16	64.60	60.16	56.16	53.92	53.51	52.27	51.33	49.50	50.36	49.15	50.06	49.10	49.17	46.26	44.49	40.76	35.81	33.29	30.36	26.86	24.20	22.76	20.96	18.91	16.71	15.26	14.95	16.14	18.04	13.23	9.478	7.897	6.768	6.082	5.137	4.718	4.053	3.292	3.097	4.117	8.095	14.23	68.19	388.6	806.5	213.5	8.172	1.217	1.048	0.986	0.950	0.885	0.801	0.941	0.676	0.780	0.714	0.638	0.793	0.739
530.0	108.1	121.0	111.9	123.8	187.1	170.0	130.9	203.8	1366	2218	357.1	124.8	111.1	93.40	81.99	69.27	62.30	57.41	53.39	49.61	47.61	46.20	44.49	43.99	43.69	43.02	42.22	42.42	42.25	42.52	40.83	38.41	35.93	31.86	28.76	26.80	24.09	21.67	20.26	18.88	16.98	15.01	14.01	12.97	12.90	14.80	14.29	10.26	7.611	6.340	5.575	4.927	4.468	4.077	3.621	2.987	2.907	3.774	4.867	16.91	92.27	336.7	593.4	367.7	15.48	1.420	0.983	0.972	0.819	0.776	0.837	0.634	0.687	0.609	0.639	0.641	0.602
535.0	96.66	95.78	98.18	104.8	126.1	187.3	120.3	129.9	424.8	2217	1312	123.3	96.51	78.72	70.78	59.92	54.40	48.76	44.79	42.19	41.14	40.37	39.03	37.34	37.64	37.60	36.36	35.62	35.80	36.67	34.85	33.00	30.24	27.33	24.89	22.90	20.72	19.37	17.51	16.44	14.99	13.59	12.45	11.54	10.74	10.80	12.43	11.76	7.740	5.997	5.148	4.528	3.841	3.468	3.558	3.054	2.579	2.757	2.592	5.264	21.94	76.59	176.5	560.7	454.6	21.83	1.222	1.151	0.772	0.718	0.724	0.583	0.616	0.560	0.550	0.607	0.574
540.0	82.22	86.29	82.09	85.57	99.08	173.0	131.6	106.6	175.0	1215	2357	196.7	85.52	71.85	60.94	53.54	47.04	42.81	38.48	37.05	36.03	34.80	33.83	33.18	33.18	32.19	32.73	30.79	31.73	32.49	31.29	28.96	26.93	24.59	21.83	20.28	18.77	17.27	15.84	14.76	13.39	12.41	11.15	10.15	9.476	9.117	9.822	11.12	9.153	6.121	4.790	4.150	3.705	3.185	3.256	3.269	2.760	2.297	2.174	2.688	6.284	18.43	40.99	205.8	627.7	234.7	14.12	1.076	0.820	0.777	0.635	0.624	0.506	0.577	0.618	0.481	0.510
545.0	90.11	77.32	74.66	83.73	78.66	137.1	148.5	92.67	110.6	447.2	2623	689.6	78.95	66.41	56.77	47.55	42.85	38.56	35.27	32.99	32.25	30.59	30.29	28.54	28.80	28.54	28.33	27.24	28.52	28.56	28.08	24.91	23.59	21.74	19.52	18.05	16.41	15.55	13.69	13.33	12.24	10.87	9.870	9.483	8.518	7.615	8.064	9.214	9.653	6.636	4.593	3.824	3.508	3.081	2.961	3.094	2.928	2.287	2.018	1.880	2.840	5.249	10.35	48.47	274.0	581.6	188.1	6.128	0.856	0.677	0.635	0.562	0.522	0.628	0.436	0.452	0.481
550.0	77.54	74.13	69.24	66.51	62.20	89.68	146.9	97.56	83.50	163.9	1337	1910	140.2	56.44	47.63	40.36	36.54	32.83	29.49	27.52	26.50	25.57	25.11	24.02	24.02	23.44	23.10	23.00	23.69	23.40	22.71	21.53	19.36	17.93	16.47	15.13	14.23	12.89	11.69	11.01	10.34	9.711	8.545	8.136	7.265	6.677	6.439	6.701	7.998	7.091	5.003	3.557	3.142	2.703	2.554	2.532	2.555	2.492	1.975	1.630	1.844	2.195	3.372	11.81	64.40	231.9	406.4	216.8	15.89	0.936	0.668	0.571	0.542	0.513	0.417	0.456	0.435
555.0	67.16	67.84	59.49	52.68	55.92	65.02	110.8	122.5	69.22	85.02	381.3	2093	874.4	52.09	39.48	33.26	29.41	26.88	24.92	22.24	21.21	20.86	20.05	19.72	19.40	19.29	19.21	18.43	18.84	18.74	18.39	17.22	15.61	14.63	13.21	12.26	11.57	10.97	9.118	9.083	8.370	8.013	7.022	6.576	6.181	5.473	5.329	5.020	5.574	6.224	5.464	3.680	2.906	2.384	2.272	2.262	2.048	2.332	2.193	1.577	1.457	1.445	1.710	3.502	15.33	52.59	116.9	347.4	250.0	21.47	0.750	0.578	0.499	0.510	0.472	0.391	0.414
560.0	71.37	63.13	51.50	47.06	49.82	49.71	75.06	131.5	68.56	64.33	131.7	1124	1879	104.4	34.81	28.50	25.38	23.52	20.75	18.70	18.17	17.95	17.16	16.82	16.28	16.01	15.78	15.63	16.05	16.08	14.93	14.16	13.20	12.28	11.39	10.49	9.822	8.968	8.285	7.900	7.103	6.629	6.240	5.697	5.457	5.035	4.684	4.393	3.949	4.718	5.338	3.842	2.813	2.179	2.044	1.989	1.798	1.898	2.106	1.747	1.354	1.173	1.211	1.538	4.375	12.57	27.05	122.7	389.1	225.9	12.39	0.539	0.475	0.425	0.417	0.427	0.389
565.0	65.53	70.47	51.89	45.96	42.41	42.12	55.39	121.3	78.08	54.23	71.59	387.6	2243	417.5	29.94	24.75	20.93	20.02	18.47	16.74	15.71	15.09	13.82	13.95	13.60	13.64	13.48	13.53	13.71	13.56	13.13	12.43	11.14	10.55	9.494	8.924	8.177	8.107	6.972	6.653	5.904	5.870	5.535	5.160	4.939	4.437	4.116	3.732	3.182	3.721	4.343	3.961	2.883	1.978	1.956	1.675	1.724	1.599	1.690	1.879	1.461	1.144	1.055	1.060	1.765	3.563	6.701	28.80	159.0	428.3	145.4	4.868	0.577	0.444	0.422	0.366	0.377
570.0	67.53	64.09	51.23	39.28	35.48	35.47	39.85	79.60	102.8	51.52	52.72	126.2	1173	1412	75.05	20.78	17.96	16.38	15.34	13.61	12.83	12.24	11.82	11.38	11.14	11.09	10.73	10.82	10.90	11.13	10.57	9.898	9.548	8.400	7.950	7.518	6.893	6.394	5.764	5.467	4.887	4.846	4.642	4.264	4.019	3.782	3.509	3.001	2.773	2.653	3.006	3.392	3.105	2.032	1.685	1.442	1.479	1.406	1.273	1.466	1.531	1.286	0.971	0.853	1.025	1.408	2.138	7.030	37.00	157.2	249.8	139.4	14.11	0.688	0.420	0.381	0.351
575.0	60.30	64.09	47.96	37.76	31.25	33.25	36.30	46.12	103.8	63.18	45.11	58.04	318.6	1633	576.8	19.89	15.44	13.18	12.07	11.01	10.26	10.18	9.761	9.541	9.113	8.952	8.819	8.735	8.475	9.080	8.649	7.645	7.328	6.811	6.374	6.139	5.352	5.357	4.738	4.266	3.839	4.257	3.551	3.503	3.289	3.020	2.914	2.701	2.322	2.178	2.128	2.373	2.927	2.458	1.789	1.452	1.285	1.122	1.147	1.088	1.181	1.492	0.938	0.839	0.706	0.948	1.128	2.165	8.743	35.59	68.38	192.8	196.2	19.42	0.521	0.435	0.299
580.0	64.03	64.69	47.72	35.69	27.17	28.03	29.20	35.70	82.52	84.85	44.53	44.15	98.88	897.8	1321	45.78	13.62	11.33	10.44	9.319	8.899	8.536	8.189	8.202	7.656	7.396	7.873	7.424	7.128	7.790	7.067	6.931	6.241	5.656	5.380	5.062	4.626	4.520	3.975	3.570	3.474	3.453	3.292	2.767	2.741	2.479	2.473	2.242	1.986	1.748	1.733	1.794	2.295	2.370	1.676	1.187	1.207	1.089	0.985	0.881	0.864	1.163	1.296	0.840	0.704	0.763	0.830	0.983	2.482	8.390	15.93	63.85	222.7	151.5	11.10	0.521	0.362
585.0	63.04	61.79	46.35	34.29	28.57	25.84	26.51	30.56	55.13	98.98	46.50	38.28	47.50	304.4	1623	113.1	11.67	10.45	8.827	8.249	7.721	7.087	6.888	6.657	6.699	6.257	6.719	6.768	6.333	6.392	6.115	5.914	5.385	5.168	4.758	4.359	3.877	3.831	3.706	3.361	2.955	2.939	3.035	2.625	2.384	2.144	2.202	1.938	1.694	1.452	1.557	1.407	1.749	2.285	1.957	1.274	1.060	1.040	0.896	0.832	0.837	0.974	1.217	0.894	0.673	0.697	0.610	0.721	1.041	2.343	4.045	14.90	83.93	217.1	101.7	4.914	0.377
590.0	56.63	57.22	44.41	32.32	25.78	22.51	24.27	26.81	36.32	85.93	65.02	38.36	36.06	91.75	857.7	880.2	38.76	8.816	7.639	7.137	6.717	5.929	5.531	5.794	5.585	5.294	5.394	5.269	5.268	5.340	4.852	4.781	4.298	4.152	3.987	3.514	3.319	3.137	2.807	2.520	2.552	2.496	2.406	2.058	1.930	1.906	1.713	1.802	1.433	1.307	1.322	1.148	1.229	1.479	1.810	1.492	1.021	0.904	0.787	0.761	0.771	0.807	0.932	1.012	0.922	0.733	0.587	0.608	0.659	0.963	1.385	3.699	19.43	73.77	143.9	94.79	14.09
595.0	59.02	52.10	45.46	37.02	23.49	23.68	23.54	22.61	28.51	56.83	84.49	41.00	33.25	39.99	228.2	1090	338.9	8.816	6.798	5.466	5.291	5.024	4.771	4.797	4.477	4.384	4.065	4.304	4.152	4.024	3.906	3.686	3.372	3.302	3.188	2.875	2.746	2.538	2.305	2.352	2.091	2.010	1.995	1.712	1.440	1.593	1.555	1.396	1.204	1.118	1.096	0.955	0.957	1.048	1.380	1.456	1.233	0.837	0.724	0.681	0.624	0.669	0.688	0.755	0.974	0.942	0.582	0.530	0.542	0.633	0.697	1.264	4.631	16.73	36.91	105.5	130.0
600.0	54.94	49.28	46.66	31.74	22.51	21.88	22.53	24.04	27.02	41.04	87.92	51.00	32.15	28.28	65.34	631.3	769.0	20.11	6.199	5.279	4.610	4.319	4.212	4.030	3.763	3.436	3.486	3.611	3.821	3.451	3.287	3.236	3.107	2.724	2.698	2.345	2.364	2.282	1.963	1.953	1.681	1.814	1.624	1.515	1.391	1.407	1.303	1.210	1.133	1.003	0.982	0.854	0.796	0.818	1.034	1.333	1.324	0.902	0.677	0.560	0.549	0.683	0.585	0.536	0.790	0.963	0.630	0.510	0.514	0.577	0.471	0.632	1.360	4.027	8.594	31.91	124.2
605.0	53.83	48.51	42.27	31.49	22.72	20.91	21.64	24.95	28.05	34.88	75.71	70.62	36.04	28.64	30.71	217.4	1080	78.15	5.419	4.586	4.245	3.981	3.785	3.214	3.144	3.081	3.148	3.378	3.130	2.961	2.755	2.741	2.568	2.260	2.272	2.103	2.134	2.173	1.685	1.633	1.406	1.395	1.263	1.288	1.235	1.286	1.113	1.001	0.961	0.863	0.776	0.798	0.750	0.814	0.720	1.058	1.079	1.116	0.757	0.609	0.606	0.526	0.570	0.516	0.607	0.734	0.845	0.535	0.510	0.413	0.423	0.485	0.538	1.217	2.236	7.481	42.18
610.0	56.14	52.59	39.79	31.08	20.95	19.96	22.62	24.99	30.16	37.31	58.70	87.97	46.82	32.71	27.26	64.48	622.6	541.0	19.43	4.204	3.701	3.129	3.002	2.745	2.758	2.654	2.520	2.631	2.312	2.450	2.324	2.188	2.170	2.025	1.886	1.859	1.724	1.681	1.413	1.346	1.261	1.095	1.083	1.174	1.080	1.011	0.903	0.916	0.853	0.760	0.676	0.650	0.626	0.668	0.609	0.749	0.927	1.002	0.807	0.633	0.477	0.508	0.552	0.582	0.576	0.649	0.814	0.810	0.529	0.453	0.465	0.526	0.381	0.525	0.787	2.002	9.775
615.0	61.69	43.57	38.78	31.73	21.59	21.11	23.81	25.19	30.32	37.90	48.88	79.50	64.02	34.05	27.26	28.76	172.1	736.4	80.39	3.929	2.968	2.652	2.691	2.330	2.403	2.207	2.026	2.420	2.054	2.056	2.103	1.944	1.618	1.710	1.812	1.496	1.340	1.368	1.276	1.160	1.155	0.935	1.011	0.886	0.836	0.813	0.868	0.775	0.780	0.672	0.556	0.597	0.519	0.521	0.579	0.495	0.659	0.878	0.788	0.681	0.485	0.430	0.513	0.593	0.551	0.539	0.629	0.594	0.661	0.552	0.518	0.501	0.405	0.491	0.493	0.748	2.414
620.0	53.18	46.28	37.99	31.33	20.70	21.10	22.58	25.16	28.16	33.13	44.90	63.59	76.03	36.48	27.63	19.90	51.54	459.9	464.6	9.021	2.871	2.290	2.536	2.069	2.124	1.753	1.859	1.899	1.681	1.549	1.755	1.657	1.461	1.381	1.490	1.346	1.221	1.215	1.031	1.073	0.926	0.823	0.863	0.774	0.795	0.677	0.753	0.740	0.572	0.650	0.476	0.567	0.586	0.457	0.519	0.407	0.535	0.693	0.773	0.673	0.572	0.402	0.435	0.462	0.547	0.493	0.456	0.498	0.666	0.641	0.434	0.449	0.376	0.429	0.377	0.486	0.785
625.0	49.60	44.90	42.07	32.62	20.60	20.28	22.90	24.26	25.84	33.18	42.33	51.43	75.44	41.44	25.06	17.63	22.36	165.7	685.9	51.22	2.704	2.399	2.018	1.981	1.710	1.589	1.781	1.320	1.584	1.485	1.408	1.530	1.328	1.113	1.180	1.202	1.265	1.020	0.922	1.150	0.832	0.794	0.746	0.662	0.649	0.665	0.589	0.607	0.574	0.533	0.374	0.448	0.463	0.453	0.443	0.394	0.489	0.587	0.637	0.743	0.683	0.430	0.417	0.443	0.519	0.489	0.446	0.478	0.571	0.743	0.543	0.444	0.369	0.347	0.308	0.313	0.421
630.0	49.21	45.40	42.94	28.81	22.31	20.42	23.13	23.95	26.26	32.92	39.42	45.82	62.70	52.84	26.62	17.41	15.54	46.18	431.0	362.5	9.468	2.066	1.956	1.624	1.618	1.490	1.405	1.205	1.335	1.288	1.170	1.087	1.093	1.068	0.962	0.935	1.004	0.879	0.816	0.838	0.841	0.605	0.656	0.632	0.610	0.632	0.507	0.543	0.513	0.492	0.350	0.421	0.426	0.409	0.375	0.375	0.434	0.497	0.498	0.612	0.647	0.511	0.411	0.464	0.456	0.411	0.435	0.425	0.474	0.591	0.537	0.474	0.400	0.341	0.359	0.275	0.373
635.0	53.28	45.59	38.76	26.19	21.41	19.96	21.40	25.21	27.31	30.65	36.66	42.56	49.00	59.74	31.56	17.21	14.60	16.77	116.8	539.3	63.73	2.008	1.573	1.600	1.264	1.205	1.147	1.204	1.133	1.111	1.143	0.933	0.945	0.788	0.828	0.726	0.905	0.747	0.663	0.746	0.744	0.595	0.563	0.542	0.461	0.555	0.429	0.495	0.441	0.430	0.310	0.410	0.405	0.440	0.371	0.323	0.331	0.399	0.429	0.516	0.527	0.454	0.488	0.332	0.393	0.391	0.416	0.429	0.387	0.435	0.549	0.559	0.553	0.362	0.327	0.324	0.349
640.0	47.96	49.60	41.84	26.20	19.84	17.82	19.84	23.91	26.27	30.69	37.21	41.07	42.80	56.26	37.07	17.72	14.37	10.34	30.44	367.8	308.9	4.479	1.664	1.355	1.059	1.071	0.902	0.997	0.980	0.924	0.876	0.782	0.827	0.765	0.830	0.696	0.819	0.654	0.631	0.636	0.566	0.701	0.601	0.440	0.511	0.462	0.385	0.426	0.374	0.418	0.343	0.369	0.410	0.366	0.295	0.281	0.368	0.335	0.295	0.390	0.488	0.411	0.409	0.364	0.371	0.423	0.399	0.402	0.378	0.400	0.472	0.426	0.534	0.414	0.338	0.309	0.305
645.0	55.75	47.72	43.47	30.63	21.61	18.01	21.70	22.96	25.40	29.39	35.86	39.81	40.06	47.00	42.00	19.34	14.07	9.006	10.23	140.5	492.2	34.11	1.424	1.307	1.021	1.022	0.856	0.869	0.929	0.893	0.826	0.827	0.669	0.695	0.789	0.628	0.634	0.679	0.568	0.565	0.524	0.578	0.520	0.442	0.513	0.407	0.412	0.417	0.500	0.350	0.296	0.300	0.336	0.244	0.305	0.342	0.363	0.305	0.353	0.353	0.338	0.375	0.460	0.443	0.416	0.405	0.469	0.362	0.421	0.389	0.399	0.493	0.497	0.453	0.307	0.258	0.302
650.0	56.50	50.33	43.11	32.76	21.32	16.94	18.91	20.36	23.39	28.67	32.27	36.88	38.15	37.72	44.67	21.02	13.57	8.185	5.734	38.23	431.8	163.8	1.969	1.200	1.107	0.848	0.853	0.953	0.788	0.809	0.736	0.786	0.694	0.610	0.708	0.616	0.500	0.582	0.506	0.499	0.511	0.434	0.516	0.464	0.375	0.417	0.389	0.343	0.329	0.303	0.285	0.281	0.303	0.281	0.342	0.301	0.307	0.303	0.330	0.361	0.295	0.378	0.541	0.384	0.355	0.337	0.400	0.398	0.370	0.391	0.409	0.415	0.411	0.426	0.327	0.308	0.318
