Sample:	'1
File name:	t2025022701¶þ²ã³Ø  2Íò±¶.FD3
Run date:	'09:55:43, 02/28/2025
Operator:	Administrator
Comment:	'

Instrument
Model:	F-2700 FL Spectrophotometer
Serial number:	23B8-004
ROM Version:	4J14000 07

Instrument parameters
Measurement type:	3-D scan
Data mode:	Fluorescence
EX  Start WL:	220.0 nm
EX  End WL:	600.0 nm
EX Sampling interval:	5.0 nm
EM  Start WL:	230.0 nm
EM  End WL:	650.0 nm
EM Sampling interval:	5.0 nm
Scan speed:	12000 nm/min
EX Slit:	5.0 nm
EM Slit:	5.0 nm
PMT Voltage:	700 V
Response:	Auto 
Corrected spectra:	Off
Contour interval:	50.000

Peak integration
Integration method:	Rectangular
Sensitivity:	1
Threshold:	1.000

Peaks
No.	ApexEX/EM(nm)	Height(Data)
1	225.0/490.0	180.8
2	225.0/535.0	11.09
3	230.0/500.0	163.8
4	235.0/515.0	142.2
5	240.0/265.0	475.1
6	240.0/525.0	121.8
7	245.0/270.0	453.2
8	245.0/540.0	119.3
9	250.0/275.0	595.4
10	250.0/550.0	106.6
11	255.0/465.0	11.08
12	255.0/565.0	151.6
13	265.0/585.0	340.0
14	270.0/300.0	4453
15	270.0/595.0	337.7
16	295.0/330.0	326.7
17	300.0/335.0	306.9
18	305.0/345.0	259.9
19	310.0/350.0	201.2
20	315.0/355.0	187.0
21	320.0/360.0	169.7
22	325.0/370.0	131.7
23	330.0/375.0	121.6
24	335.0/380.0	133.3
25	340.0/385.0	109.2
26	350.0/400.0	90.61
27	355.0/405.0	82.48
28	360.0/410.0	60.61
29	365.0/420.0	65.41
30	370.0/425.0	60.54
31	375.0/430.0	45.76
32	380.0/440.0	42.92
33	385.0/300.0	10.55
34	385.0/445.0	39.85
35	390.0/450.0	30.15
36	395.0/455.0	26.97
37	400.0/465.0	25.47
38	405.0/470.0	18.91
39	410.0/480.0	16.85
40	415.0/485.0	15.24
41	420.0/490.0	11.95
42	425.0/500.0	11.66
43	430.0/300.0	6.723
44	430.0/505.0	10.64
45	435.0/510.0	7.836
46	440.0/305.0	6.462
47	440.0/520.0	7.975
48	445.0/525.0	6.627
49	455.0/540.0	4.839
50	460.0/545.0	4.185
51	465.0/555.0	2.889
52	470.0/560.0	2.478
53	480.0/575.0	1.498
54	485.0/265.0	2.155
55	485.0/580.0	1.380
56	495.0/270.0	2.068
57	540.0/295.0	20.67
58	545.0/300.0	21.14
59	550.0/305.0	18.70
60	585.0/325.0	3.471

Data points
	220.0	225.0	230.0	235.0	240.0	245.0	250.0	255.0	260.0	265.0	270.0	275.0	280.0	285.0	290.0	295.0	300.0	305.0	310.0	315.0	320.0	325.0	330.0	335.0	340.0	345.0	350.0	355.0	360.0	365.0	370.0	375.0	380.0	385.0	390.0	395.0	400.0	405.0	410.0	415.0	420.0	425.0	430.0	435.0	440.0	445.0	450.0	455.0	460.0	465.0	470.0	475.0	480.0	485.0	490.0	495.0	500.0	505.0	510.0	515.0	520.0	525.0	530.0	535.0	540.0	545.0	550.0	555.0	560.0	565.0	570.0	575.0	580.0	585.0	590.0	595.0	600.0
230.0	83.39	1382	3267	800.7	27.90	3.658	2.737	2.588	2.027	2.329	2.388	2.087	1.252	0.992	0.892	0.629	0.595	0.474	0.432	0.357	0.394	0.291	0.320	0.291	0.214	0.198	0.184	0.168	0.154	0.151	0.176	0.145	0.159	0.121	0.128	0.112	0.130	0.119	0.123	0.119	0.307	0.673	0.684	0.315	0.127	0.137	1.343	6.392	9.654	5.868	1.626	0.244	0.072	0.053	0.067	0.038	0.057	0.055	0.045	0.045	0.061	0.058	0.049	0.039	0.035	0.041	0.035	0.057	0.055	0.049	0.034	0.036	0.034	0.039	0.039	0.045	0.042
235.0	247.5	386.3	1950	2911	534.5	35.55	4.089	3.626	3.162	2.343	2.317	2.097	1.319	1.295	0.908	0.739	0.444	0.463	0.363	0.448	0.387	0.325	0.288	0.259	0.250	0.178	0.161	0.207	0.169	0.124	0.283	0.122	0.183	0.130	0.134	0.134	0.126	0.133	0.115	0.107	0.127	0.266	0.520	0.806	0.520	0.270	0.396	1.647	3.652	6.188	8.661	7.688	2.811	0.564	0.073	0.046	0.051	0.056	0.072	0.040	0.056	0.066	0.055	0.070	0.039	0.027	0.058	0.082	0.068	0.053	0.052	0.036	0.038	0.036	0.021	0.031	0.049
240.0	316.4	244.2	581.8	2518	2839	385.0	15.65	4.079	3.733	3.182	3.106	2.659	1.747	1.247	0.792	0.713	0.674	0.472	0.509	0.461	0.343	0.350	0.262	0.284	0.218	0.188	0.115	0.194	0.195	0.173	0.221	0.271	0.191	0.183	0.117	0.142	0.095	0.103	0.098	0.082	0.085	0.165	0.201	0.423	0.812	0.878	0.458	0.500	0.925	1.864	5.227	11.85	12.61	7.659	2.038	0.187	0.080	0.086	0.058	0.034	0.069	0.082	0.066	0.061	0.064	0.047	0.063	0.067	0.051	0.066	0.052	0.040	0.051	0.019	0.036	0.035	0.040
245.0	214.2	384.1	226.8	859.8	3276	2714	266.2	6.895	4.440	3.293	3.473	2.516	2.011	1.254	0.927	0.844	0.743	0.493	0.506	0.476	0.366	0.353	0.279	0.286	0.189	0.206	0.161	0.207	0.196	0.134	0.223	0.172	0.156	0.133	0.127	0.126	0.092	0.079	0.160	0.072	0.109	0.134	0.114	0.182	0.488	0.812	0.994	0.715	0.395	0.505	1.337	4.186	10.34	16.33	14.71	5.845	1.030	0.135	0.053	0.100	0.083	0.088	0.076	0.049	0.057	0.067	0.078	0.057	0.068	0.071	0.046	0.053	0.042	0.016	0.051	0.046	0.030
250.0	76.44	252.8	345.3	312.9	1082	3033	3421	956.1	41.50	6.021	4.712	3.301	2.478	1.549	1.167	0.967	0.777	0.553	0.458	0.492	0.395	0.386	0.380	0.317	0.196	0.274	0.216	0.208	0.192	0.180	0.199	0.192	0.149	0.148	0.180	0.137	0.102	0.118	0.135	0.120	0.146	0.150	0.137	0.148	0.219	0.285	0.517	0.970	1.007	0.808	0.625	1.091	2.599	5.727	10.42	14.30	16.28	12.79	5.942	1.265	0.136	0.082	0.083	0.071	0.079	0.082	0.061	0.074	0.087	0.072	0.057	0.061	0.068	0.021	0.048	0.054	0.052
255.0	29.67	75.48	234.8	422.3	342.7	790.3	3095	5178	1224	34.34	6.461	4.038	2.845	2.024	1.222	1.139	1.138	0.800	0.581	0.505	0.469	0.401	0.389	0.353	0.211	0.304	0.198	0.246	0.221	0.232	0.222	0.211	0.243	0.165	0.156	0.105	0.065	0.126	0.133	0.118	0.154	0.159	0.131	0.109	0.128	0.129	0.189	0.322	0.467	0.971	1.558	1.304	0.892	1.398	2.536	3.577	7.252	16.60	26.19	21.76	8.561	1.335	0.125	0.113	0.093	0.099	0.090	0.074	0.070	0.064	0.070	0.086	0.049	0.048	0.049	0.059	0.029
260.0	24.47	29.32	85.71	355.0	375.0	233.7	964.0	4758	5182	238.6	15.97	5.570	3.611	2.513	1.557	1.719	1.153	0.888	0.707	0.593	0.490	0.479	0.433	0.472	0.269	0.261	0.254	0.292	0.193	0.226	0.207	0.215	0.156	0.206	0.201	0.182	0.112	0.159	0.140	0.093	0.168	0.194	0.122	0.174	0.142	0.115	0.109	0.145	0.192	0.418	0.906	1.967	1.692	0.967	0.763	0.941	1.798	4.745	13.73	27.49	29.98	19.25	6.020	0.519	0.140	0.098	0.096	0.100	0.088	0.079	0.056	0.072	0.066	0.061	0.060	0.054	0.042
265.0	24.65	20.21	28.32	161.2	475.1	266.0	249.1	1706	6274	4469	173.2	9.398	5.036	3.090	2.382	1.726	1.362	1.043	0.829	0.756	0.746	0.570	0.290	0.463	0.275	0.262	0.285	0.307	0.237	0.287	0.254	0.250	0.192	0.257	0.181	0.183	0.138	0.180	0.198	0.096	0.156	0.129	0.167	0.116	0.140	0.126	0.124	0.112	0.085	0.153	0.312	0.987	1.888	2.155	1.093	0.515	0.542	1.239	3.424	8.863	20.46	35.10	29.04	15.83	3.023	0.200	0.157	0.105	0.102	0.088	0.050	0.096	0.087	0.070	0.070	0.055	0.063
270.0	41.30	26.64	17.26	50.56	220.9	453.2	287.3	436.1	2115	5384	4737	699.0	30.56	5.397	3.247	2.268	1.767	1.184	0.965	0.725	0.799	0.669	0.475	0.425	0.406	0.345	0.405	0.296	0.272	0.285	0.225	0.268	0.225	0.295	0.259	0.254	0.192	0.200	0.241	0.146	0.188	0.178	0.167	0.165	0.159	0.175	0.131	0.133	0.098	0.093	0.166	0.311	0.674	1.217	1.839	2.068	1.698	0.848	0.994	2.197	4.969	11.00	18.88	29.55	29.61	26.29	11.47	2.814	0.304	0.139	0.126	0.105	0.084	0.076	0.080	0.061	0.075
275.0	206.0	116.8	48.51	37.95	76.86	224.8	595.4	367.2	624.0	1558	4969	7701	924.4	25.18	5.022	3.539	2.117	1.412	1.248	0.959	0.862	0.751	0.725	0.511	0.528	0.397	0.470	0.340	0.387	0.329	0.282	0.356	0.628	0.871	0.644	0.643	0.454	0.392	0.562	0.416	0.481	0.395	0.507	0.524	0.452	0.445	0.308	0.260	0.212	0.177	0.164	0.229	0.288	0.420	0.645	1.119	2.548	3.054	2.097	1.271	1.757	3.251	5.144	7.888	11.17	24.71	41.63	29.87	17.11	3.309	0.308	0.149	0.169	0.090	0.139	0.096	0.116
280.0	724.0	394.0	184.0	106.8	95.57	154.1	498.8	895.0	712.0	1019	2193	7490	6652	135.6	10.90	5.064	2.643	1.844	1.589	1.211	1.125	0.802	0.708	0.529	0.609	0.453	0.474	0.444	0.440	0.357	0.396	1.008	1.728	2.259	2.001	1.472	1.245	1.151	1.161	1.232	1.281	1.519	1.514	1.395	1.469	1.194	0.900	0.621	0.448	0.420	0.413	0.398	0.361	0.407	0.572	0.703	1.418	2.918	4.567	3.973	2.820	3.054	4.006	4.877	6.007	9.461	19.09	33.95	46.91	28.58	12.14	1.373	0.269	0.199	0.208	0.122	0.190
285.0	1481	844.0	412.8	254.5	174.0	203.6	441.1	1171	1510	1593	1944	3605	8243	4883	92.09	7.441	3.878	2.363	2.410	1.488	1.217	0.864	0.861	0.630	0.700	0.591	0.518	0.527	0.428	0.431	0.605	1.560	3.380	4.409	4.070	3.000	2.557	2.386	2.024	2.261	2.573	2.665	2.895	2.778	2.720	2.448	1.934	1.439	1.021	0.871	0.715	0.815	0.654	0.621	0.682	0.876	1.355	2.083	4.041	6.423	6.922	6.279	6.621	7.589	8.667	8.573	10.26	14.65	25.00	41.00	47.95	22.78	6.011	0.609	0.297	0.241	0.262
290.0	2645	1517	773.7	479.2	328.9	333.1	572.0	1216	2284	2822	2904	2769	3321	5855	4744	391.9	16.88	4.146	2.868	2.083	1.642	1.245	1.090	0.890	0.729	0.582	0.546	0.576	0.502	0.491	0.829	2.532	5.522	7.817	6.894	5.228	4.215	3.908	4.062	4.121	4.408	4.633	4.845	4.868	4.632	4.425	3.169	2.711	1.870	1.513	1.361	1.338	1.183	1.137	1.112	1.405	1.971	2.717	4.258	6.078	8.478	11.47	12.80	13.74	13.99	12.93	12.49	12.62	11.89	13.89	21.63	27.57	28.94	29.06	15.56	5.470	0.872
295.0	3354	2017	1041	676.6	440.2	422.3	709.3	1364	2382	3743	4038	3039	1731	1661	4144	5695	525.6	11.23	3.957	2.817	2.051	1.595	1.393	1.129	0.974	0.647	0.715	0.617	0.568	0.666	0.975	3.153	7.081	9.656	9.251	6.939	5.452	5.402	5.185	5.116	5.537	6.122	6.084	6.208	5.964	5.873	4.144	3.307	2.610	2.005	1.928	1.958	1.579	1.543	1.536	1.679	2.521	3.444	4.918	6.522	9.009	11.53	14.52	18.97	20.67	17.80	15.25	14.18	10.68	7.405	7.038	7.538	8.960	17.44	35.24	34.20	23.43
300.0	3536	2166	1127	735.8	470.1	454.9	731.2	1377	2348	3566	4453	3324	1427	636.0	1279	5257	4622	76.72	6.345	3.665	2.688	1.778	1.600	1.162	1.141	0.806	0.682	0.689	0.592	0.633	1.057	3.319	7.160	10.55	9.680	7.376	6.303	5.788	5.461	5.758	5.792	6.464	6.723	6.401	6.143	6.026	4.174	3.448	2.973	2.488	1.938	2.073	1.789	1.656	1.663	2.130	2.569	3.584	5.045	6.536	8.801	11.34	13.63	16.67	19.92	21.14	17.71	14.96	10.97	6.177	3.990	3.076	3.144	4.760	11.24	24.72	41.73
305.0	3323	2066	1156	724.6	465.6	436.3	697.0	1295	2212	3223	4002	3589	1397	426.3	376.1	1794	5857	3318	55.91	4.440	3.003	1.979	1.831	1.452	1.141	1.022	0.891	0.655	0.742	0.745	1.153	3.143	7.303	10.34	9.648	7.255	5.985	5.580	5.195	5.249	5.592	5.788	6.363	6.390	6.462	5.861	4.240	3.618	3.027	2.460	2.018	2.189	1.789	1.509	1.624	1.960	2.560	3.132	4.912	6.213	8.136	10.57	12.73	14.64	17.12	18.26	18.70	16.78	11.36	5.916	3.582	2.269	1.863	1.939	3.148	6.548	15.92
310.0	2800	1777	1004	635.8	423.9	370.0	583.4	1064	1834	2643	3124	2952	1616	462.9	178.4	445.6	1880	4000	3363	265.4	11.36	3.076	2.496	1.659	1.222	1.133	0.922	0.722	0.741	0.751	1.030	2.708	6.153	8.441	8.299	6.626	5.223	4.869	4.519	4.465	4.764	5.134	5.250	5.505	5.338	4.811	3.807	3.306	2.620	2.069	1.831	1.915	1.497	1.330	1.405	1.611	2.208	2.915	3.931	5.238	6.772	8.730	10.54	12.58	13.84	13.71	13.75	13.96	11.08	7.391	4.498	2.357	1.464	1.236	1.286	1.971	3.988
315.0	2217	1382	820.5	510.7	339.2	288.6	445.0	816.6	1377	2003	2314	2067	1302	765.7	186.4	140.2	443.8	990.0	3057	4016	379.4	7.316	3.305	2.165	1.417	1.265	1.053	0.760	0.683	0.676	0.868	2.153	4.728	6.975	6.571	5.458	4.362	3.960	3.630	3.619	3.703	4.126	4.069	4.288	4.183	3.771	3.160	2.682	2.167	1.716	1.492	1.511	1.251	1.127	1.100	1.238	1.751	2.162	2.939	4.037	5.272	6.477	8.068	9.575	10.51	9.912	9.894	9.554	7.358	5.789	5.396	4.450	2.379	1.277	0.847	0.868	1.293
320.0	1730	1161	666.1	421.3	283.4	234.7	352.5	635.7	1083	1552	1807	1587	902.6	731.9	374.5	81.99	122.9	237.7	882.8	3680	3482	57.88	5.222	2.598	1.835	1.385	1.007	0.962	0.795	0.694	0.866	1.824	4.081	5.627	5.531	4.450	3.630	3.246	3.259	2.970	2.943	3.181	3.373	3.305	3.499	3.211	2.435	2.045	1.751	1.352	1.258	1.200	1.029	0.917	0.938	1.049	1.446	1.631	2.142	3.362	3.902	4.921	6.118	7.453	8.375	7.748	7.519	7.225	5.907	4.076	3.537	3.972	3.999	2.645	1.067	0.791	0.658
325.0	1350	981.0	560.4	358.2	226.8	189.9	280.7	498.9	839.3	1213	1401	1236	678.0	453.3	521.3	115.2	51.57	68.58	213.2	1198	4231	2672	45.20	3.709	2.153	1.651	0.990	0.978	0.763	0.852	0.834	1.739	3.304	4.593	4.838	3.867	2.924	2.615	2.607	2.573	2.380	2.599	2.608	2.673	2.807	2.501	1.946	1.644	1.433	1.120	0.983	1.075	0.894	0.785	0.849	0.884	1.216	1.459	1.871	2.419	3.219	3.818	4.728	5.638	6.268	6.117	5.855	5.922	4.812	3.411	2.382	2.274	2.964	3.471	2.807	1.523	0.557
330.0	1014	730.3	428.6	279.6	182.1	146.2	203.6	361.1	595.1	872.8	1010	898.5	504.6	267.4	295.4	326.7	133.5	33.90	59.56	281.2	1310	3015	3062	222.3	9.652	2.259	1.572	1.177	0.882	0.957	0.756	1.464	2.470	3.412	3.478	2.996	2.481	2.133	2.080	1.894	1.963	1.992	2.001	2.074	1.996	1.976	1.579	1.389	1.185	0.885	0.839	0.918	0.773	0.690	0.638	0.679	0.873	1.044	1.423	1.742	2.374	2.839	3.402	4.085	4.607	4.408	4.438	4.400	3.344	2.378	1.720	1.345	1.400	1.705	2.277	2.442	2.041
335.0	782.3	530.4	323.1	215.0	142.4	110.7	145.3	250.7	412.9	594.5	692.7	630.1	373.0	184.5	131.8	192.2	306.9	77.51	25.46	72.87	302.1	728.0	2440	3300	323.7	7.390	2.110	1.395	1.233	1.122	0.791	1.167	1.715	2.628	2.601	2.232	1.857	1.514	1.579	1.498	1.483	1.472	1.518	1.523	1.555	1.620	1.228	1.032	0.958	0.806	0.720	0.674	0.748	0.508	0.477	0.512	0.710	0.806	0.983	1.183	1.680	2.100	2.526	2.723	3.163	3.219	3.066	2.987	2.304	1.623	1.370	1.013	0.886	0.854	0.896	1.070	1.747
340.0	608.7	412.2	270.4	180.5	116.2	93.31	118.4	189.1	306.6	442.7	514.0	472.4	288.2	149.7	84.48	83.89	237.5	237.8	42.82	25.86	76.72	172.4	670.4	2804	2551	50.81	3.675	1.663	1.349	1.126	0.887	1.166	1.505	2.143	2.039	1.837	1.451	1.229	1.226	1.189	1.166	1.157	1.119	1.137	1.225	1.207	1.054	0.996	0.783	0.646	0.615	0.536	0.484	0.434	0.436	0.422	0.562	0.677	0.841	0.899	1.374	1.563	1.791	2.146	2.422	2.430	2.226	2.263	1.892	1.279	1.139	0.944	0.650	0.595	0.508	0.532	0.808
345.0	459.8	333.7	232.8	154.5	96.33	82.17	94.58	151.6	233.7	333.8	392.2	368.1	227.0	125.4	67.46	49.42	104.0	259.9	141.8	21.19	25.40	47.66	160.3	862.9	2776	2037	41.27	2.546	1.654	1.270	1.115	1.096	1.529	1.793	1.817	1.396	1.295	1.212	1.037	0.956	0.933	0.977	0.925	0.921	0.950	0.878	0.860	0.863	0.709	0.566	0.522	0.484	0.505	0.364	0.357	0.416	0.448	0.502	0.696	0.688	1.035	1.225	1.440	1.646	1.854	1.904	1.780	1.613	1.391	1.117	0.891	0.719	0.580	0.590	0.455	0.456	0.431
350.0	347.3	269.0	193.3	122.2	82.75	63.79	73.44	108.7	168.6	237.5	282.5	267.8	176.0	101.7	57.33	36.31	43.76	113.9	201.2	107.6	23.34	19.17	44.08	201.7	827.9	2000	1882	197.3	9.476	1.826	1.258	1.065	1.116	1.426	1.433	1.151	1.108	1.028	0.854	0.802	0.742	0.752	0.719	0.731	0.751	0.752	0.674	0.655	0.607	0.466	0.435	0.417	0.403	0.356	0.316	0.352	0.346	0.423	0.495	0.549	0.761	0.934	1.102	1.242	1.322	1.354	1.287	1.227	1.068	0.910	0.755	0.606	0.521	0.480	0.434	0.320	0.325
355.0	277.6	216.8	150.3	95.08	66.24	49.32	54.81	81.66	121.9	169.7	197.2	190.9	133.6	81.07	47.80	31.26	26.68	41.45	87.93	187.0	67.24	17.15	17.48	52.24	191.2	473.8	1329	2215	309.1	9.655	1.753	1.200	1.213	1.289	1.093	1.101	0.942	0.852	0.769	0.717	0.614	0.583	0.587	0.550	0.643	0.587	0.564	0.544	0.493	0.384	0.326	0.364	0.340	0.289	0.336	0.285	0.308	0.340	0.379	0.382	0.615	0.647	0.836	0.849	0.896	0.904	0.881	0.893	0.890	0.639	0.592	0.482	0.392	0.428	0.341	0.386	0.271
360.0	230.7	183.9	131.3	85.50	61.85	43.50	49.20	66.06	96.15	125.3	149.7	151.1	107.1	70.57	42.51	29.91	23.25	23.06	36.50	115.2	169.7	48.35	13.21	18.58	49.39	112.0	352.3	1653	2059	49.75	4.031	1.439	1.270	1.304	1.054	1.008	0.896	0.734	0.628	0.601	0.488	0.554	0.527	0.530	0.554	0.459	0.483	0.467	0.399	0.434	0.304	0.332	0.324	0.301	0.240	0.220	0.265	0.412	0.294	0.330	0.556	0.559	0.660	0.651	0.730	0.815	0.751	0.814	0.670	0.618	0.488	0.411	0.376	0.426	0.286	0.275	0.268
365.0	201.9	157.8	112.2	84.79	55.13	39.43	44.20	59.08	74.87	101.3	120.8	122.2	91.63	60.44	40.18	28.69	21.95	20.05	21.78	47.96	151.9	130.1	25.19	11.50	17.17	30.69	84.77	475.4	1950	2121	42.99	2.343	1.550	1.182	1.079	0.983	0.865	0.625	0.608	0.491	0.455	0.466	0.573	0.499	0.398	0.402	0.485	0.435	0.368	0.361	0.288	0.345	0.287	0.306	0.258	0.214	0.204	0.297	0.286	0.361	0.461	0.456	0.498	0.540	0.573	0.621	0.616	0.777	0.598	0.596	0.402	0.407	0.275	0.327	0.306	0.245	0.247
370.0	152.5	138.5	102.3	71.47	49.01	39.17	39.68	46.89	58.70	78.41	94.09	95.21	74.81	52.52	36.86	27.89	22.42	19.73	19.07	24.44	62.05	131.7	95.97	25.33	10.04	12.26	23.95	111.3	549.5	1822	1799	186.7	11.57	1.384	1.140	0.973	0.852	0.606	0.597	0.486	0.354	0.443	0.498	0.395	0.388	0.417	0.393	0.432	0.324	0.328	0.251	0.312	0.225	0.233	0.257	0.189	0.217	0.256	0.260	0.330	0.344	0.306	0.425	0.448	0.461	0.501	0.504	0.560	0.448	0.455	0.362	0.363	0.345	0.310	0.282	0.227	0.263
375.0	137.3	117.5	92.67	65.06	45.65	36.21	35.20	38.56	47.91	61.24	70.94	72.48	59.81	44.51	33.35	27.76	23.69	21.71	19.17	19.50	26.45	53.75	121.6	96.29	17.61	7.672	9.648	29.05	126.5	422.6	1092	1747	294.8	9.616	1.246	1.070	0.757	0.720	0.653	0.500	0.375	0.454	0.378	0.361	0.343	0.429	0.379	0.344	0.295	0.308	0.293	0.291	0.222	0.206	0.284	0.216	0.222	0.230	0.224	0.287	0.333	0.290	0.343	0.335	0.388	0.403	0.384	0.489	0.403	0.291	0.298	0.289	0.300	0.266	0.310	0.216	0.260
380.0	120.1	104.0	86.93	60.42	43.05	30.73	32.74	34.08	39.68	50.85	60.03	61.20	51.65	40.36	31.25	25.85	24.01	22.35	19.67	19.25	18.04	25.47	67.67	133.3	49.67	9.495	6.732	10.40	31.89	98.63	279.4	1181	1704	212.6	3.483	1.118	0.984	0.727	0.580	0.545	0.385	0.425	0.454	0.302	0.307	0.370	0.361	0.246	0.354	0.278	0.266	0.264	0.270	0.207	0.224	0.187	0.213	0.179	0.267	0.204	0.227	0.213	0.269	0.268	0.356	0.374	0.436	0.373	0.350	0.361	0.346	0.383	0.323	0.209	0.236	0.260	0.234
385.0	114.3	93.75	83.47	52.36	43.01	34.76	31.80	30.99	36.53	44.44	51.57	55.19	46.91	36.82	30.68	25.94	24.33	24.51	21.11	19.64	17.10	18.16	29.50	95.30	109.2	27.47	5.970	5.987	10.65	25.51	66.75	326.3	1412	1232	35.79	1.749	0.968	0.752	0.660	0.512	0.432	0.445	0.415	0.419	0.314	0.300	0.328	0.289	0.312	0.216	0.273	0.264	0.301	0.250	0.207	0.200	0.226	0.180	0.240	0.205	0.215	0.229	0.233	0.274	0.301	0.290	0.355	0.301	0.327	0.318	0.316	0.352	0.362	0.269	0.239	0.300	0.284
390.0	104.9	87.44	73.53	50.25	41.38	33.74	30.46	29.19	31.65	36.45	42.69	45.25	39.69	32.19	28.60	25.41	22.88	23.44	21.98	19.47	17.26	16.12	17.42	37.09	87.11	76.33	24.56	5.217	5.435	8.954	18.05	76.07	378.4	896.0	1030	149.0	9.762	1.050	0.745	0.575	0.468	0.397	0.377	0.350	0.305	0.353	0.328	0.332	0.310	0.227	0.225	0.260	0.207	0.228	0.190	0.194	0.211	0.215	0.192	0.207	0.219	0.219	0.189	0.215	0.253	0.254	0.308	0.261	0.246	0.279	0.297	0.317	0.268	0.306	0.279	0.307	0.259
395.0	90.27	77.81	64.00	54.37	39.75	34.39	26.89	26.36	28.03	32.84	36.09	37.89	34.00	29.08	25.72	24.23	22.89	22.73	21.38	19.49	17.91	15.84	14.02	17.20	31.90	75.57	77.78	16.77	4.173	4.677	6.736	19.57	86.74	207.1	567.4	1130	236.6	10.55	0.902	0.555	0.542	0.376	0.435	0.354	0.310	0.267	0.312	0.296	0.247	0.224	0.257	0.207	0.214	0.205	0.181	0.184	0.218	0.198	0.171	0.237	0.187	0.186	0.147	0.202	0.250	0.250	0.256	0.241	0.296	0.312	0.224	0.260	0.225	0.277	0.175	0.334	0.371
400.0	89.41	73.64	70.93	49.10	39.72	31.24	26.30	23.93	24.92	28.90	33.79	33.57	29.57	26.90	25.64	23.86	22.09	22.25	21.38	19.43	18.05	15.56	13.13	11.96	14.67	38.44	90.61	46.87	7.672	3.348	4.064	7.052	21.67	48.61	142.5	698.9	1022	188.5	5.364	0.810	0.621	0.377	0.448	0.280	0.302	0.282	0.295	0.309	0.307	0.187	0.271	0.250	0.226	0.221	0.180	0.151	0.182	0.178	0.153	0.170	0.173	0.146	0.144	0.221	0.239	0.217	0.241	0.290	0.251	0.256	0.188	0.238	0.261	0.197	0.225	0.305	0.355
405.0	91.68	75.78	65.66	49.00	37.63	27.89	26.41	20.44	21.97	26.83	29.96	30.01	27.43	25.15	22.63	23.36	21.49	20.81	20.96	18.69	16.70	15.03	12.72	10.38	9.591	16.75	56.53	82.48	25.37	3.648	3.087	3.766	7.322	13.03	34.33	187.0	786.4	867.4	33.88	1.463	0.623	0.486	0.427	0.346	0.277	0.333	0.239	0.276	0.270	0.191	0.180	0.264	0.201	0.198	0.178	0.164	0.153	0.167	0.150	0.171	0.205	0.159	0.179	0.210	0.190	0.269	0.241	0.198	0.199	0.274	0.201	0.207	0.258	0.246	0.240	0.248	0.267
410.0	75.94	70.22	54.05	44.29	33.11	26.09	24.61	19.63	20.39	23.06	25.89	26.44	24.36	23.10	21.28	21.01	20.75	20.60	19.74	18.07	16.21	14.02	12.46	9.947	7.941	9.164	20.69	55.60	60.61	22.80	3.875	2.532	3.671	5.023	9.675	43.97	207.7	580.8	832.0	137.1	8.106	0.561	0.434	0.385	0.327	0.306	0.284	0.262	0.247	0.208	0.179	0.208	0.204	0.187	0.201	0.185	0.160	0.178	0.156	0.150	0.160	0.159	0.167	0.174	0.186	0.147	0.209	0.173	0.163	0.180	0.187	0.181	0.242	0.189	0.197	0.229	0.235
415.0	73.21	68.68	59.76	42.92	29.70	24.24	20.72	19.05	18.77	21.06	22.17	22.44	21.97	21.62	20.51	19.80	19.50	18.49	18.15	17.53	15.15	13.49	10.82	9.340	7.674	6.558	8.715	18.95	51.71	61.77	15.44	2.334	2.459	2.934	4.184	11.46	47.97	133.6	411.5	715.2	201.0	6.768	0.565	0.491	0.301	0.331	0.293	0.298	0.218	0.209	0.186	0.204	0.179	0.162	0.146	0.169	0.132	0.155	0.163	0.168	0.161	0.197	0.153	0.120	0.145	0.142	0.181	0.227	0.114	0.117	0.208	0.208	0.148	0.210	0.192	0.210	0.234
420.0	63.96	55.25	56.15	40.79	29.92	21.11	19.39	17.94	17.39	18.54	20.35	20.70	21.00	20.22	18.59	18.16	18.08	16.83	17.69	15.91	15.02	12.70	10.78	8.675	7.035	6.063	5.548	7.689	23.83	65.41	41.08	6.256	1.896	2.136	2.884	4.274	12.06	31.36	101.2	424.8	681.1	33.68	2.205	0.600	0.374	0.332	0.310	0.238	0.248	0.230	0.199	0.201	0.172	0.127	0.155	0.168	0.138	0.137	0.129	0.176	0.144	0.148	0.144	0.143	0.139	0.154	0.160	0.219	0.104	0.124	0.174	0.148	0.162	0.160	0.186	0.192	0.209
425.0	91.08	51.13	52.78	36.84	28.77	18.83	17.81	16.05	16.37	17.53	18.94	18.38	18.98	18.26	18.40	17.07	17.04	16.49	16.13	15.90	13.55	12.41	10.27	8.020	6.604	5.382	4.538	4.678	9.145	37.54	60.54	21.67	2.767	1.725	1.843	2.762	4.145	8.157	24.24	113.0	499.5	529.4	28.54	1.436	0.481	0.311	0.351	0.288	0.260	0.213	0.175	0.213	0.172	0.138	0.170	0.143	0.150	0.148	0.136	0.134	0.127	0.201	0.145	0.102	0.146	0.156	0.176	0.179	0.147	0.116	0.147	0.196	0.146	0.184	0.200	0.212	0.196
430.0	518.4	52.53	45.08	34.73	25.66	18.02	16.24	14.59	14.06	13.90	16.75	16.61	17.04	16.07	16.48	16.06	15.59	15.74	15.05	14.19	12.53	11.14	9.581	7.795	6.078	5.176	4.435	3.637	4.387	13.02	38.55	45.76	17.41	2.677	1.377	1.978	2.594	3.215	6.639	26.50	131.0	363.8	369.3	125.1	6.810	0.459	0.417	0.287	0.283	0.204	0.189	0.223	0.200	0.161	0.158	0.162	0.136	0.159	0.146	0.137	0.122	0.130	0.180	0.119	0.120	0.134	0.147	0.123	0.102	0.122	0.128	0.164	0.142	0.181	0.156	0.204	0.135
435.0	1652	104.8	42.12	31.24	24.95	16.64	15.59	14.59	14.56	12.97	14.43	15.84	14.72	14.48	15.32	14.82	14.46	14.73	14.17	13.24	11.25	10.30	8.976	7.082	5.678	4.860	4.283	2.919	2.870	4.931	12.80	34.82	41.87	12.38	1.901	1.419	1.676	2.124	2.840	6.729	30.29	83.77	214.0	545.6	174.7	5.681	0.537	0.378	0.294	0.243	0.191	0.174	0.210	0.133	0.180	0.154	0.139	0.110	0.115	0.100	0.110	0.119	0.180	0.129	0.162	0.138	0.124	0.137	0.131	0.090	0.145	0.167	0.129	0.146	0.156	0.179	0.169
440.0	2420	423.3	41.63	33.80	23.72	17.56	15.43	11.93	12.33	12.74	13.54	15.01	14.13	13.19	13.99	13.61	13.42	13.92	13.17	12.35	11.05	9.888	7.771	6.915	5.315	4.499	3.857	2.930	2.557	2.618	4.855	15.63	42.92	28.85	5.225	1.339	1.347	1.434	1.992	2.318	7.602	19.79	54.52	333.2	556.8	30.45	2.396	0.422	0.340	0.237	0.181	0.183	0.202	0.132	0.175	0.135	0.122	0.108	0.135	0.123	0.157	0.093	0.150	0.159	0.111	0.117	0.116	0.130	0.117	0.076	0.185	0.139	0.116	0.106	0.212	0.181	0.189
445.0	2273	1109	45.80	30.92	21.51	16.36	12.86	11.30	11.41	11.27	13.86	13.47	13.90	13.12	12.94	12.99	12.78	12.46	11.67	11.36	10.96	8.910	7.632	6.543	5.201	4.546	3.906	3.012	2.336	1.954	2.627	6.020	25.29	39.85	15.61	2.030	1.115	1.116	1.609	1.780	2.460	5.121	13.32	89.84	435.3	453.1	24.80	0.938	0.405	0.248	0.208	0.170	0.195	0.155	0.189	0.172	0.102	0.162	0.130	0.134	0.121	0.084	0.114	0.119	0.101	0.115	0.108	0.156	0.160	0.063	0.107	0.109	0.146	0.149	0.126	0.172	0.185
450.0	1149	2055	381.0	28.07	21.97	14.35	12.68	10.89	11.27	11.31	12.48	12.76	11.65	11.19	11.82	11.92	11.36	11.56	11.10	10.82	9.167	8.156	7.122	5.573	4.935	4.189	3.392	2.792	2.220	1.909	1.853	2.804	8.975	25.20	30.15	12.03	2.025	0.979	1.173	1.530	1.589	1.885	3.792	21.08	116.0	320.6	589.3	106.1	5.645	0.371	0.270	0.213	0.187	0.206	0.150	0.168	0.131	0.137	0.134	0.112	0.115	0.106	0.120	0.116	0.144	0.103	0.123	0.129	0.147	0.065	0.081	0.122	0.133	0.155	0.103	0.134	0.151
455.0	327.5	1803	1204	57.39	19.96	13.27	12.76	10.20	10.26	8.839	10.99	10.38	9.969	10.10	11.15	9.395	10.40	10.29	9.204	8.815	8.460	7.443	6.414	5.347	4.209	3.525	3.284	2.805	2.142	1.739	1.692	1.825	3.367	8.274	22.07	26.97	8.848	1.316	1.047	1.002	1.213	1.600	1.614	5.408	26.70	73.87	290.7	461.6	148.7	4.129	0.285	0.208	0.213	0.253	0.173	0.100	0.136	0.120	0.118	0.121	0.095	0.121	0.121	0.115	0.179	0.090	0.147	0.148	0.083	0.155	0.156	0.098	0.161	0.155	0.107	0.143	0.141
460.0	116.9	982.8	2150	254.7	18.62	12.76	10.73	8.809	9.855	9.459	9.581	10.39	9.217	9.892	9.626	9.660	9.733	9.466	8.590	7.961	7.854	6.590	6.089	4.753	4.213	3.572	2.847	2.605	1.930	1.649	1.731	1.594	1.828	3.165	10.02	26.75	20.23	4.076	0.944	0.773	0.998	1.349	1.276	1.773	6.662	17.20	71.49	275.2	465.6	22.89	1.456	0.304	0.235	0.228	0.197	0.141	0.158	0.155	0.096	0.110	0.116	0.108	0.138	0.109	0.123	0.140	0.186	0.123	0.109	0.111	0.106	0.111	0.137	0.099	0.087	0.147	0.127
465.0	92.57	356.8	2201	760.7	24.05	11.63	9.153	11.08	8.626	8.824	8.597	10.45	9.003	8.691	8.486	9.314	8.522	8.093	8.454	7.533	7.377	5.995	5.720	5.042	3.861	3.559	2.992	2.443	1.942	1.669	1.607	1.342	1.371	1.864	3.901	15.89	25.47	10.56	1.571	0.725	0.740	0.971	1.340	1.092	2.032	4.486	16.96	74.03	360.2	349.9	19.22	0.718	0.253	0.326	0.188	0.141	0.204	0.142	0.123	0.103	0.125	0.105	0.135	0.145	0.088	0.103	0.152	0.079	0.121	0.081	0.093	0.147	0.127	0.118	0.064	0.147	0.087
470.0	137.6	113.9	1138	1810	242.5	12.75	9.479	9.718	7.638	8.327	8.106	8.675	8.279	7.581	7.539	8.029	7.389	7.358	7.486	6.950	6.324	5.481	4.896	4.196	3.639	3.073	2.747	2.233	1.846	1.770	1.561	1.206	1.316	1.265	1.928	5.717	15.54	18.91	7.577	1.448	0.602	0.687	0.867	1.111	1.135	1.491	4.472	17.32	95.34	248.5	295.9	90.63	4.882	0.338	0.239	0.174	0.172	0.137	0.118	0.088	0.123	0.128	0.133	0.109	0.090	0.093	0.126	0.106	0.095	0.076	0.067	0.137	0.092	0.107	0.097	0.114	0.107
475.0	203.1	83.06	310.1	1733	1104	28.43	10.08	8.809	8.612	7.365	8.003	7.762	7.324	6.261	6.958	6.610	6.395	5.941	6.264	5.850	5.634	5.019	4.505	3.521	2.888	2.631	2.386	1.912	1.522	1.354	1.320	1.127	1.167	1.057	1.250	2.025	5.465	14.01	16.53	5.306	0.983	0.602	0.524	0.774	1.166	0.953	1.400	4.338	21.85	56.92	137.8	280.9	124.2	4.488	0.364	0.205	0.186	0.108	0.114	0.083	0.140	0.106	0.117	0.136	0.081	0.111	0.080	0.089	0.097	0.106	0.070	0.110	0.104	0.091	0.102	0.098	0.103
480.0	194.4	97.76	92.36	981.9	1864	175.4	9.768	7.600	8.556	7.334	7.466	6.980	6.288	5.784	5.673	5.832	5.613	5.343	5.729	4.952	5.305	4.764	3.777	3.463	2.815	2.272	2.045	1.693	1.519	1.312	1.159	1.079	1.087	0.967	1.019	1.151	2.059	6.688	16.85	11.70	2.522	0.585	0.544	0.576	0.897	1.193	0.843	1.334	5.342	13.22	33.82	150.8	319.6	26.54	2.314	0.255	0.191	0.199	0.137	0.112	0.137	0.143	0.108	0.129	0.083	0.091	0.086	0.118	0.120	0.107	0.086	0.073	0.106	0.068	0.127	0.106	0.099
485.0	152.5	148.4	48.61	372.9	1982	510.6	12.00	7.021	7.494	6.696	7.221	7.242	6.684	5.789	5.434	5.647	5.261	5.500	5.668	4.968	4.552	3.979	3.416	3.470	2.438	2.378	2.368	1.724	1.404	1.372	1.355	1.244	1.148	1.066	0.931	0.876	1.148	2.643	10.47	15.24	6.956	1.069	0.510	0.496	0.564	1.003	0.910	0.650	1.567	3.391	8.115	39.52	227.9	286.8	24.21	0.612	0.175	0.168	0.127	0.110	0.152	0.125	0.083	0.157	0.090	0.086	0.109	0.131	0.087	0.109	0.094	0.057	0.084	0.072	0.106	0.099	0.093
490.0	82.22	180.8	69.77	105.5	1099	1653	171.8	7.958	7.134	6.151	6.403	6.164	5.749	4.855	5.267	4.792	4.937	4.938	4.648	4.340	3.991	3.483	3.076	2.810	2.419	2.121	1.928	1.571	1.441	1.389	1.328	1.084	1.124	0.897	0.830	0.695	0.869	1.231	3.823	10.60	11.95	5.241	0.972	0.373	0.433	0.604	0.910	0.851	0.739	1.079	2.209	9.286	59.15	177.8	248.2	94.22	5.725	0.266	0.174	0.157	0.126	0.105	0.112	0.160	0.093	0.110	0.100	0.109	0.077	0.100	0.055	0.077	0.092	0.089	0.087	0.083	0.091
495.0	33.21	142.0	127.1	42.12	310.0	1741	945.5	16.96	6.772	6.022	5.535	6.136	5.038	4.107	4.922	4.312	4.150	4.569	4.007	3.621	3.417	3.122	2.743	2.620	2.149	1.925	1.867	1.542	1.438	1.189	1.116	1.078	1.082	0.801	0.802	0.716	0.666	0.874	1.608	3.814	9.854	10.90	3.869	0.572	0.399	0.448	0.551	0.987	0.819	0.578	0.762	2.347	13.51	40.71	121.6	298.9	137.3	4.981	0.274	0.180	0.144	0.123	0.157	0.109	0.112	0.117	0.115	0.093	0.095	0.080	0.075	0.046	0.121	0.069	0.098	0.089	0.081
500.0	23.46	84.55	163.8	41.85	83.45	1050	1739	111.4	7.186	6.209	5.677	5.327	5.694	4.582	3.942	3.633	3.926	4.009	3.474	3.133	3.055	2.670	2.591	2.338	1.869	1.966	1.617	1.264	1.318	1.002	1.057	0.980	0.922	0.753	0.849	0.793	0.583	0.713	0.821	1.460	4.887	11.66	7.761	1.793	0.432	0.328	0.416	0.679	0.924	0.589	0.460	0.886	3.344	9.473	29.81	158.1	313.0	29.13	1.904	0.243	0.149	0.145	0.117	0.121	0.069	0.126	0.105	0.099	0.077	0.053	0.089	0.067	0.079	0.157	0.107	0.072	0.086
505.0	18.49	37.90	154.5	67.70	31.86	408.1	2004	346.0	6.660	7.184	6.043	5.497	4.839	4.111	3.856	3.483	3.454	3.693	2.948	2.989	2.645	2.687	2.398	2.207	1.629	1.729	1.596	1.294	1.112	0.952	1.059	0.989	0.876	0.721	0.710	0.633	0.664	0.575	0.623	0.666	2.155	7.649	10.64	4.525	0.883	0.298	0.355	0.396	0.708	0.845	0.433	0.423	1.044	2.474	7.135	40.88	202.9	226.7	24.31	0.832	0.155	0.132	0.118	0.110	0.078	0.122	0.104	0.101	0.085	0.075	0.071	0.034	0.049	0.101	0.086	0.098	0.076
510.0	14.95	18.20	92.24	122.1	26.94	108.4	1175	1484	109.8	6.478	6.240	4.859	4.223	3.698	3.306	3.397	3.159	3.047	2.786	2.570	2.438	2.333	2.142	1.747	1.477	1.457	1.389	1.221	1.033	1.016	0.922	0.969	0.816	0.776	0.693	0.589	0.568	0.541	0.519	0.553	0.887	2.846	7.641	7.836	3.381	0.626	0.327	0.314	0.415	0.675	0.734	0.518	0.454	0.826	1.944	9.496	51.64	144.8	192.8	80.31	5.532	0.193	0.139	0.110	0.119	0.106	0.089	0.080	0.090	0.092	0.075	0.070	0.055	0.105	0.064	0.090	0.085
515.0	15.23	10.50	38.94	142.2	61.50	33.61	331.0	1761	734.8	12.08	6.306	5.074	3.955	3.458	3.260	2.554	2.705	2.592	2.640	2.171	2.094	1.986	1.903	1.718	1.484	1.214	1.097	1.014	0.943	0.923	0.820	0.969	0.676	0.639	0.719	0.629	0.590	0.479	0.479	0.452	0.509	0.975	2.947	7.124	7.050	2.508	0.437	0.229	0.273	0.392	0.707	0.892	0.397	0.337	0.654	2.347	11.81	32.94	79.74	209.1	108.1	5.086	0.234	0.197	0.118	0.105	0.091	0.120	0.093	0.074	0.091	0.043	0.068	0.085	0.054	0.078	0.070
520.0	15.41	9.963	18.32	111.8	96.85	19.84	85.58	1107	1538	78.28	6.235	4.252	3.726	3.106	2.812	2.638	2.306	2.112	2.299	2.157	1.852	1.833	1.596	1.324	1.334	1.220	0.975	1.021	0.909	0.929	0.780	0.755	0.749	0.552	0.655	0.569	0.543	0.435	0.403	0.369	0.373	0.501	1.087	3.944	7.975	4.896	1.193	0.236	0.276	0.255	0.376	0.818	0.770	0.294	0.370	0.769	2.924	7.646	19.10	102.7	218.2	29.51	1.818	0.192	0.164	0.149	0.078	0.108	0.081	0.098	0.065	0.064	0.066	0.076	0.089	0.077	0.062
525.0	14.77	11.63	13.32	59.55	121.8	28.67	27.40	441.3	1944	251.8	7.074	4.507	4.033	2.921	2.614	2.789	2.341	2.020	1.995	2.055	1.773	1.645	1.432	1.317	1.125	1.126	0.854	0.922	0.800	0.970	0.766	0.726	0.680	0.479	0.587	0.469	0.452	0.351	0.423	0.410	0.291	0.378	0.495	1.676	5.666	6.627	2.684	0.499	0.233	0.185	0.268	0.546	1.003	0.553	0.295	0.363	0.849	1.957	4.640	25.78	128.4	187.4	25.03	0.773	0.152	0.120	0.103	0.084	0.093	0.089	0.078	0.063	0.056	0.038	0.065	0.044	0.061
530.0	14.88	8.335	9.814	24.04	108.2	68.82	14.10	114.4	1182	1346	86.94	4.567	3.671	2.907	2.232	2.084	2.249	1.758	1.792	1.578	1.585	1.405	1.450	1.171	1.004	0.925	0.847	0.789	0.608	0.738	0.666	0.599	0.647	0.534	0.528	0.457	0.398	0.360	0.373	0.363	0.312	0.299	0.341	0.645	2.222	5.566	5.303	2.131	0.372	0.172	0.159	0.303	0.523	0.694	0.568	0.291	0.346	0.603	1.275	6.027	31.78	97.54	132.2	73.81	6.225	0.186	0.124	0.099	0.087	0.092	0.091	0.055	0.056	0.046	0.073	0.043	0.060
535.0	11.01	11.09	9.427	11.48	56.77	108.5	21.27	34.48	335.0	1661	637.8	7.455	3.506	2.677	2.217	1.898	1.800	1.652	1.679	1.293	1.350	1.037	1.216	1.001	0.899	0.880	0.747	0.720	0.654	0.621	0.515	0.665	0.545	0.445	0.439	0.422	0.345	0.376	0.316	0.254	0.278	0.247	0.236	0.354	0.746	2.397	4.997	4.309	1.476	0.263	0.125	0.188	0.259	0.488	0.820	0.635	0.240	0.318	0.460	1.552	7.351	22.19	47.46	158.2	93.26	5.792	0.186	0.137	0.142	0.124	0.069	0.078	0.070	0.096	0.089	0.071	0.091
540.0	11.70	8.031	6.943	7.497	25.68	119.3	48.12	14.01	85.84	1021	1449	41.37	3.479	2.597	2.369	1.975	1.532	1.393	1.441	1.213	1.422	0.877	1.121	0.889	0.841	0.758	0.671	0.644	0.607	0.565	0.548	0.560	0.482	0.461	0.422	0.403	0.291	0.320	0.249	0.231	0.268	0.187	0.167	0.241	0.385	0.937	2.929	4.839	2.879	0.624	0.153	0.181	0.166	0.265	0.550	0.878	0.371	0.220	0.298	0.525	1.878	5.188	11.15	67.62	153.4	30.57	3.033	0.179	0.168	0.074	0.157	0.074	0.060	0.088	0.055	0.068	0.147
545.0	15.36	9.227	6.877	4.811	11.64	87.95	82.11	11.70	27.67	381.8	1878	177.8	4.426	2.532	1.999	1.888	1.458	1.371	1.241	1.369	1.174	1.126	1.014	0.829	0.554	0.698	0.574	0.592	0.520	0.469	0.631	0.503	0.428	0.367	0.311	0.309	0.278	0.314	0.196	0.279	0.233	0.182	0.150	0.189	0.229	0.435	1.275	3.802	4.185	1.566	0.341	0.153	0.133	0.160	0.307	0.717	0.695	0.251	0.195	0.297	0.564	1.402	2.685	16.25	75.79	126.6	28.21	1.226	0.176	0.085	0.113	0.082	0.062	0.102	0.049	0.072	0.112
550.0	21.14	14.90	7.696	5.423	6.349	40.03	106.6	32.40	19.89	110.0	1146	969.1	47.00	3.154	2.058	1.650	1.140	1.326	1.041	1.066	0.938	0.936	0.860	0.729	0.594	0.563	0.567	0.450	0.424	0.359	0.526	0.438	0.403	0.380	0.322	0.276	0.265	0.243	0.231	0.210	0.208	0.151	0.181	0.152	0.179	0.275	0.469	1.677	3.275	2.798	1.187	0.216	0.122	0.116	0.168	0.349	0.710	0.694	0.291	0.216	0.295	0.520	0.823	3.864	18.14	56.88	121.4	58.00	6.877	0.201	0.138	0.080	0.065	0.080	0.039	0.059	0.074
555.0	49.92	36.50	14.82	9.881	7.447	18.32	86.60	85.76	38.60	70.04	348.9	1261	358.1	5.460	2.083	1.414	1.351	1.020	0.985	0.865	0.969	0.876	0.806	0.554	0.506	0.511	0.543	0.389	0.319	0.349	0.479	0.311	0.349	0.391	0.449	0.277	0.366	0.293	0.254	0.240	0.279	0.215	0.245	0.161	0.218	0.196	0.254	0.575	1.606	2.889	2.214	0.671	0.195	0.127	0.130	0.189	0.335	0.613	0.769	0.315	0.269	0.323	0.429	1.209	4.334	13.11	36.93	88.18	70.69	8.392	0.179	0.083	0.078	0.081	0.073	0.064	0.050
560.0	91.38	54.23	23.53	15.70	10.29	13.29	63.19	131.2	75.24	94.34	171.4	822.1	867.5	25.05	2.460	1.583	1.258	1.018	0.938	0.760	0.806	0.729	0.808	0.534	0.404	0.369	0.439	0.393	0.253	0.358	0.407	0.342	0.483	0.503	0.504	0.418	0.415	0.369	0.275	0.262	0.389	0.278	0.291	0.288	0.263	0.235	0.243	0.274	0.677	2.072	2.478	1.356	0.385	0.170	0.132	0.141	0.225	0.410	0.924	0.666	0.397	0.386	0.459	0.762	1.440	3.408	8.768	31.79	93.12	33.06	3.528	0.144	0.096	0.127	0.060	0.055	0.074
565.0	129.9	76.24	36.00	21.36	16.32	20.58	46.69	151.6	129.3	137.8	165.2	392.4	1165	118.5	2.804	1.343	1.252	1.018	0.739	0.747	0.603	0.649	0.709	0.477	0.325	0.424	0.347	0.344	0.291	0.427	0.326	0.375	0.413	0.655	0.586	0.452	0.345	0.379	0.310	0.381	0.397	0.331	0.372	0.382	0.397	0.271	0.264	0.257	0.356	0.964	2.119	1.798	0.747	0.220	0.170	0.146	0.204	0.314	0.673	1.092	0.600	0.603	0.662	0.774	0.965	1.370	2.644	7.847	39.36	101.6	28.61	1.213	0.147	0.133	0.062	0.061	0.063
570.0	184.2	112.5	55.94	33.57	24.35	26.91	46.97	138.0	204.8	190.8	208.9	229.2	732.2	638.3	27.16	1.642	1.195	0.947	0.723	0.698	0.587	0.530	0.534	0.426	0.385	0.416	0.263	0.296	0.253	0.319	0.327	0.412	0.665	0.805	0.739	0.600	0.442	0.447	0.376	0.392	0.458	0.413	0.489	0.440	0.482	0.386	0.332	0.269	0.283	0.422	1.094	1.678	1.351	0.592	0.197	0.215	0.218	0.302	0.459	0.834	1.079	1.047	0.889	0.943	1.116	1.196	1.437	2.557	9.609	39.63	75.33	39.08	7.269	0.203	0.092	0.065	0.055
575.0	232.7	123.2	64.00	46.69	32.15	31.63	49.96	114.7	245.8	251.2	258.7	215.2	262.5	820.7	228.9	2.357	1.306	0.785	0.637	0.679	0.745	0.507	0.495	0.350	0.332	0.416	0.358	0.267	0.262	0.270	0.423	0.428	0.687	0.943	0.699	0.667	0.386	0.439	0.467	0.466	0.490	0.519	0.553	0.562	0.527	0.388	0.370	0.273	0.228	0.225	0.400	0.985	1.498	1.101	0.463	0.190	0.225	0.284	0.480	0.652	1.095	1.515	1.285	1.149	1.342	1.271	1.144	1.511	2.697	9.202	20.52	48.63	57.78	7.362	0.134	0.126	0.060
580.0	271.4	135.1	72.31	48.15	33.12	34.76	55.98	115.2	244.7	307.9	289.1	230.8	130.5	524.7	579.1	10.97	1.326	1.015	0.752	0.621	0.645	0.491	0.467	0.284	0.400	0.397	0.381	0.205	0.261	0.278	0.278	0.377	0.682	1.123	0.840	0.671	0.483	0.461	0.437	0.452	0.631	0.566	0.540	0.621	0.672	0.486	0.414	0.363	0.223	0.228	0.215	0.497	1.172	1.380	0.749	0.269	0.318	0.347	0.390	0.580	0.923	1.392	1.640	1.375	1.455	1.276	1.317	1.252	1.258	2.414	4.780	15.87	64.66	32.45	2.880	0.121	0.062
585.0	267.4	163.4	82.01	56.42	34.84	34.47	59.33	112.6	220.0	340.0	302.4	240.2	104.9	209.2	777.7	65.66	1.217	1.023	0.790	0.647	0.561	0.501	0.437	0.431	0.349	0.305	0.285	0.297	0.272	0.242	0.312	0.427	0.771	1.247	1.043	0.753	0.497	0.489	0.485	0.448	0.642	0.522	0.652	0.591	0.591	0.562	0.461	0.345	0.248	0.234	0.223	0.312	0.714	1.259	1.029	0.454	0.344	0.326	0.467	0.644	0.781	1.161	1.674	1.832	1.339	1.344	1.357	1.195	1.003	0.938	1.315	3.868	24.04	61.53	24.33	1.622	0.116
590.0	266.2	161.9	83.21	56.42	34.60	33.01	57.69	108.4	198.1	333.2	327.5	236.2	98.91	68.84	466.5	332.4	9.975	0.924	0.669	0.632	0.539	0.476	0.482	0.348	0.358	0.296	0.284	0.261	0.206	0.189	0.295	0.420	0.714	1.137	1.098	0.779	0.524	0.499	0.441	0.488	0.616	0.479	0.568	0.499	0.583	0.496	0.389	0.360	0.244	0.228	0.212	0.241	0.347	0.734	1.052	0.806	0.468	0.373	0.453	0.549	0.692	0.996	1.435	1.749	1.732	1.330	1.346	1.220	0.819	0.598	0.543	1.056	5.596	21.70	37.20	29.93	4.394
595.0	233.7	154.3	78.52	53.53	34.25	32.13	56.30	103.3	177.9	282.8	337.7	230.5	98.09	34.52	136.0	458.7	79.09	1.193	0.587	0.738	0.524	0.471	0.460	0.316	0.232	0.269	0.264	0.205	0.174	0.216	0.232	0.430	0.661	0.761	0.958	0.917	0.661	0.557	0.418	0.459	0.494	0.510	0.526	0.505	0.522	0.481	0.380	0.359	0.232	0.212	0.197	0.226	0.245	0.329	0.772	0.995	0.721	0.406	0.473	0.523	0.736	0.854	1.104	1.386	1.848	1.437	1.291	1.235	0.802	0.466	0.395	0.365	1.346	4.971	9.900	30.94	31.39
600.0	217.5	149.3	77.62	50.46	34.27	31.04	50.24	94.38	163.4	245.7	319.2	224.4	91.26	26.43	37.66	305.7	271.3	3.595	0.750	0.582	0.441	0.459	0.612	0.359	0.241	0.254	0.278	0.210	0.185	0.241	0.252	0.353	0.668	0.793	0.851	0.743	0.664	0.521	0.393	0.459	0.393	0.449	0.444	0.498	0.528	0.431	0.376	0.241	0.261	0.190	0.178	0.202	0.196	0.189	0.421	0.859	0.852	0.585	0.456	0.582	0.697	0.816	1.020	1.304	1.484	1.556	1.248	1.112	0.824	0.472	0.335	0.209	0.429	1.196	2.323	9.532	34.52
605.0	209.5	144.3	79.00	48.03	33.86	30.58	46.49	88.13	151.3	215.4	284.9	228.2	87.58	24.60	13.51	122.5	406.0	29.72	0.783	0.686	0.495	0.362	0.447	0.286	0.301	0.251	0.190	0.233	0.181	0.188	0.242	0.270	0.513	0.739	0.654	0.549	0.782	0.488	0.434	0.365	0.421	0.444	0.383	0.495	0.457	0.497	0.345	0.208	0.235	0.164	0.154	0.207	0.168	0.175	0.235	0.587	0.874	0.618	0.465	0.480	0.605	0.785	0.909	1.139	1.140	1.342	1.339	1.022	0.739	0.431	0.239	0.145	0.184	0.355	0.625	2.250	12.75
610.0	198.9	119.2	70.81	45.08	28.60	25.19	39.82	74.35	129.1	183.9	229.9	221.9	83.09	21.85	9.240	33.22	272.6	157.9	4.323	0.681	0.487	0.431	0.419	0.326	0.292	0.215	0.217	0.187	0.176	0.209	0.220	0.331	0.459	0.769	0.571	0.479	0.530	0.538	0.451	0.303	0.416	0.377	0.377	0.466	0.424	0.426	0.340	0.252	0.196	0.143	0.157	0.171	0.148	0.133	0.166	0.278	0.586	0.695	0.581	0.507	0.532	0.710	0.800	0.984	1.085	1.005	1.232	1.070	0.746	0.388	0.231	0.160	0.142	0.154	0.252	0.597	2.982
615.0	184.4	109.3	59.74	39.08	25.60	21.40	35.64	63.67	108.4	152.6	180.8	191.3	89.17	21.28	8.272	10.02	80.02	267.2	44.75	0.556	0.615	0.357	0.424	0.354	0.197	0.225	0.172	0.192	0.139	0.178	0.161	0.306	0.479	0.687	0.570	0.444	0.356	0.456	0.455	0.301	0.336	0.293	0.370	0.371	0.364	0.371	0.248	0.245	0.183	0.161	0.124	0.141	0.146	0.154	0.124	0.172	0.366	0.554	0.638	0.500	0.471	0.583	0.663	0.744	0.908	0.815	0.870	0.881	0.958	0.359	0.277	0.157	0.107	0.108	0.126	0.207	0.783
620.0	154.7	92.70	51.22	34.87	24.02	18.45	32.55	56.64	95.62	137.7	157.3	159.6	96.34	20.31	7.045	5.083	20.87	196.0	139.6	1.871	0.618	0.428	0.503	0.221	0.234	0.199	0.240	0.177	0.175	0.169	0.236	0.278	0.323	0.578	0.548	0.353	0.288	0.336	0.521	0.306	0.282	0.301	0.430	0.323	0.296	0.345	0.238	0.215	0.175	0.121	0.126	0.129	0.087	0.088	0.108	0.101	0.220	0.379	0.504	0.574	0.492	0.492	0.542	0.612	0.880	0.789	0.709	0.699	0.847	0.560	0.243	0.174	0.173	0.082	0.102	0.108	0.248
625.0	131.0	84.78	49.26	29.47	20.77	17.51	27.49	47.14	81.98	121.2	138.2	126.1	93.81	22.60	6.185	3.601	6.204	84.53	225.4	13.33	0.557	0.418	0.429	0.295	0.281	0.141	0.212	0.206	0.161	0.164	0.238	0.225	0.334	0.574	0.478	0.366	0.298	0.297	0.414	0.394	0.322	0.244	0.310	0.330	0.263	0.319	0.214	0.176	0.213	0.109	0.146	0.104	0.083	0.080	0.103	0.134	0.161	0.263	0.439	0.566	0.464	0.414	0.475	0.616	0.620	0.616	0.697	0.567	0.629	0.574	0.273	0.159	0.109	0.088	0.083	0.116	0.122
630.0	109.1	70.09	42.00	22.79	16.37	14.44	23.46	39.89	69.26	99.09	112.8	99.19	75.86	33.22	6.494	2.725	2.885	22.66	169.5	96.89	2.213	0.351	0.382	0.280	0.205	0.193	0.185	0.155	0.156	0.151	0.159	0.191	0.335	0.505	0.372	0.317	0.290	0.251	0.255	0.343	0.348	0.241	0.301	0.249	0.203	0.212	0.177	0.177	0.159	0.101	0.116	0.103	0.079	0.107	0.095	0.108	0.112	0.200	0.275	0.463	0.493	0.413	0.492	0.461	0.566	0.572	0.493	0.482	0.456	0.388	0.371	0.209	0.146	0.092	0.070	0.095	0.108
635.0	86.11	59.39	33.75	22.21	15.55	13.58	18.93	33.96	53.21	80.26	91.96	77.86	51.11	43.48	9.377	2.343	1.897	6.216	53.69	176.3	28.01	0.577	0.462	0.272	0.261	0.215	0.160	0.155	0.192	0.194	0.127	0.166	0.314	0.375	0.356	0.261	0.286	0.209	0.215	0.222	0.327	0.285	0.224	0.282	0.187	0.185	0.170	0.179	0.157	0.099	0.105	0.123	0.060	0.114	0.101	0.070	0.085	0.149	0.157	0.324	0.393	0.410	0.403	0.428	0.455	0.463	0.441	0.358	0.334	0.252	0.253	0.315	0.216	0.066	0.080	0.056	0.097
640.0	79.38	48.68	29.74	20.32	12.85	9.671	14.46	25.13	46.16	66.81	73.97	67.69	39.00	40.03	14.79	2.619	1.665	2.322	14.11	142.4	68.83	1.114	0.407	0.360	0.230	0.228	0.137	0.249	0.189	0.172	0.192	0.203	0.311	0.348	0.282	0.277	0.277	0.191	0.168	0.172	0.306	0.349	0.179	0.172	0.154	0.133	0.187	0.136	0.120	0.094	0.081	0.074	0.086	0.073	0.105	0.074	0.108	0.148	0.133	0.185	0.273	0.383	0.395	0.374	0.435	0.367	0.372	0.303	0.275	0.176	0.194	0.297	0.279	0.152	0.054	0.059	0.077
645.0	75.28	45.61	28.46	16.31	10.94	8.744	12.63	22.52	39.15	58.95	63.97	58.78	31.20	30.96	21.76	3.248	1.641	1.487	4.218	67.19	171.4	7.857	0.467	0.354	0.149	0.198	0.250	0.222	0.152	0.208	0.139	0.158	0.291	0.274	0.235	0.286	0.232	0.196	0.111	0.173	0.206	0.305	0.253	0.177	0.172	0.098	0.156	0.121	0.104	0.097	0.094	0.081	0.086	0.061	0.080	0.078	0.083	0.101	0.102	0.162	0.185	0.350	0.476	0.362	0.296	0.387	0.334	0.330	0.216	0.149	0.170	0.165	0.317	0.208	0.085	0.044	0.076
650.0	64.16	36.56	18.58	14.99	9.193	7.883	11.33	19.33	31.74	50.43	55.30	48.49	26.68	20.50	26.43	4.569	1.654	1.122	1.754	20.39	186.2	39.82	0.686	0.284	0.165	0.244	0.218	0.177	0.118	0.198	0.107	0.147	0.193	0.314	0.235	0.229	0.192	0.144	0.135	0.160	0.169	0.183	0.292	0.168	0.132	0.131	0.110	0.092	0.104	0.075	0.061	0.078	0.072	0.062	0.092	0.091	0.077	0.109	0.110	0.124	0.203	0.307	0.379	0.308	0.250	0.323	0.270	0.281	0.253	0.201	0.117	0.116	0.190	0.216	0.138	0.040	0.049
