Sample:	'1
File name:	t2025042316孙镇北干渠入反帝沟闸.FD3
Run date:	'12:50:09, 04/24/2025
Operator:	Administrator
Comment:	'

Instrument
Model:	F-2700 FL Spectrophotometer
Serial number:	23B8-004
ROM Version:	4J14000 07

Instrument parameters
Measurement type:	3-D scan
Data mode:	Fluorescence
EX  Start WL:	220.0 nm
EX  End WL:	600.0 nm
EX Sampling interval:	5.0 nm
EM  Start WL:	230.0 nm
EM  End WL:	650.0 nm
EM Sampling interval:	5.0 nm
Scan speed:	12000 nm/min
EX Slit:	5.0 nm
EM Slit:	5.0 nm
PMT Voltage:	700 V
Response:	Auto 
Corrected spectra:	Off
Contour interval:	50.000

Peak integration
Integration method:	Rectangular
Sensitivity:	1
Threshold:	1.000

Peaks
No.	ApexEX/EM(nm)	Height(Data)
1	225.0/565.0	57.08
2	225.0/590.0	53.73
3	225.0/635.0	39.44
4	230.0/345.0	1117
5	230.0/575.0	56.98
6	230.0/605.0	45.47
7	230.0/620.0	41.86
8	235.0/510.0	255.4
9	240.0/265.0	330.9
10	240.0/385.0	833.4
11	240.0/520.0	231.4
12	245.0/270.0	339.2
13	245.0/425.0	712.6
14	245.0/535.0	193.0
15	250.0/275.0	429.3
16	250.0/545.0	151.7
17	255.0/280.0	533.6
18	255.0/560.0	132.1
19	260.0/285.0	518.3
20	260.0/575.0	106.0
21	265.0/585.0	104.5
22	270.0/300.0	940.9
23	270.0/595.0	92.45
24	275.0/305.0	1099
25	275.0/610.0	82.99
26	280.0/310.0	1027
27	280.0/340.0	940.6
28	280.0/625.0	71.15
29	285.0/315.0	970.8
30	285.0/635.0	57.30
31	290.0/325.0	890.7
32	315.0/355.0	433.7
33	320.0/360.0	409.0
34	325.0/370.0	382.7
35	330.0/375.0	371.9
36	335.0/380.0	364.9
37	460.0/340.0	3.784
38	460.0/545.0	9.382
39	505.0/275.0	3.235
40	510.0/280.0	3.313
41	520.0/285.0	3.540
42	530.0/290.0	3.707
43	540.0/295.0	5.050
44	545.0/300.0	5.421
45	550.0/305.0	6.111
46	560.0/310.0	5.874
47	575.0/315.0	6.004
48	580.0/320.0	6.249
49	585.0/325.0	5.559

Data points
	220.0	225.0	230.0	235.0	240.0	245.0	250.0	255.0	260.0	265.0	270.0	275.0	280.0	285.0	290.0	295.0	300.0	305.0	310.0	315.0	320.0	325.0	330.0	335.0	340.0	345.0	350.0	355.0	360.0	365.0	370.0	375.0	380.0	385.0	390.0	395.0	400.0	405.0	410.0	415.0	420.0	425.0	430.0	435.0	440.0	445.0	450.0	455.0	460.0	465.0	470.0	475.0	480.0	485.0	490.0	495.0	500.0	505.0	510.0	515.0	520.0	525.0	530.0	535.0	540.0	545.0	550.0	555.0	560.0	565.0	570.0	575.0	580.0	585.0	590.0	595.0	600.0
230.0	40.58	605.3	1830	614.4	32.81	8.264	6.502	5.644	5.070	4.153	4.167	3.858	3.373	2.830	2.448	1.912	1.867	1.710	1.529	1.395	1.177	1.233	1.117	0.993	0.983	0.925	0.907	0.853	0.807	0.748	0.752	0.684	0.680	0.623	0.560	0.558	0.562	0.530	0.490	0.468	0.528	0.496	0.542	0.491	0.426	0.439	0.992	3.891	6.979	5.203	1.921	0.571	0.362	0.368	0.343	0.347	0.361	0.379	0.376	0.381	0.374	0.383	0.353	0.372	0.359	0.386	0.366	0.384	0.360	0.389	0.357	0.367	0.383	0.370	0.373	0.367	0.398
235.0	63.55	180.3	1193	2391	522.6	58.81	8.155	6.004	6.264	4.987	3.972	3.972	3.249	3.081	2.576	1.989	2.273	1.754	1.785	1.330	1.237	1.404	1.288	1.003	0.979	0.985	0.808	0.776	0.738	0.754	0.728	0.702	0.597	0.593	0.563	0.490	0.552	0.550	0.508	0.524	0.502	0.447	0.605	0.601	0.611	0.481	0.562	1.278	2.980	5.733	8.853	8.872	4.093	1.030	0.404	0.328	0.381	0.365	0.400	0.391	0.406	0.406	0.404	0.353	0.376	0.418	0.337	0.388	0.379	0.355	0.385	0.490	0.403	0.365	0.453	0.378	0.428
240.0	105.2	101.5	376.4	2042	2862	415.3	28.05	7.340	6.588	5.055	4.422	4.219	3.642	3.274	2.709	2.244	1.844	1.954	1.559	1.329	1.231	1.307	1.149	1.152	1.018	0.969	0.821	0.817	0.813	0.701	0.781	0.676	0.616	0.578	0.598	0.485	0.546	0.549	0.516	0.477	0.508	0.439	0.485	0.507	0.649	0.695	0.618	0.639	0.996	1.902	5.342	12.96	15.33	9.893	2.938	0.550	0.413	0.374	0.376	0.406	0.376	0.366	0.378	0.394	0.423	0.387	0.341	0.375	0.330	0.367	0.391	0.359	0.402	0.408	0.422	0.352	0.394
245.0	85.71	147.2	141.4	700.7	3117	2940	314.0	14.63	6.614	6.454	5.143	4.708	3.940	3.476	3.176	2.327	2.121	1.804	1.752	1.414	1.301	1.252	1.185	1.062	1.108	1.011	0.861	0.841	0.861	0.792	0.773	0.701	0.661	0.619	0.665	0.603	0.587	0.512	0.552	0.561	0.575	0.540	0.543	0.577	0.503	0.630	0.821	0.713	0.599	0.720	1.563	4.657	11.91	18.98	17.69	8.179	2.050	0.428	0.383	0.479	0.387	0.391	0.378	0.351	0.412	0.378	0.337	0.401	0.414	0.406	0.532	0.388	0.386	0.398	0.365	0.525	0.462
250.0	48.63	114.9	195.7	240.2	994.2	2895	3615	1143	70.77	8.145	6.770	5.687	4.530	3.854	3.207	2.756	2.204	1.871	1.692	1.596	1.350	1.244	1.208	1.061	1.052	1.010	0.865	0.825	0.921	0.827	0.779	0.683	0.694	0.714	0.645	0.591	0.544	0.548	0.527	0.568	0.523	0.511	0.567	0.483	0.483	0.528	0.610	0.811	0.921	0.855	0.829	1.473	3.213	6.554	12.01	17.43	21.67	17.26	9.023	2.291	0.525	0.468	0.433	0.364	0.412	0.385	0.440	0.392	0.388	0.361	0.433	0.388	0.405	0.414	0.357	0.429	0.432
255.0	37.72	51.31	142.2	294.8	312.4	741.4	2892	5786	1596	76.07	8.921	6.543	6.046	4.362	3.514	2.822	2.311	2.188	1.943	1.833	1.588	1.487	1.226	1.191	1.322	0.939	0.975	0.975	0.847	0.857	0.734	0.703	0.813	0.653	0.608	0.599	0.583	0.624	0.570	0.527	0.581	0.563	0.610	0.494	0.497	0.520	0.445	0.600	0.665	1.034	1.308	1.494	1.264	1.855	3.038	4.513	9.440	21.15	36.22	26.47	13.63	2.214	0.527	0.410	0.436	0.390	0.367	0.453	0.426	0.422	0.435	0.449	0.500	0.463	0.364	0.415	0.492
260.0	38.39	35.28	61.21	250.2	296.9	218.1	875.6	4725	6576	1212	36.18	8.689	6.076	5.332	4.484	3.387	2.466	2.304	2.148	1.806	1.824	1.379	1.182	1.244	1.394	1.131	0.955	1.021	0.897	0.912	0.804	0.760	0.808	0.639	0.642	0.547	0.547	0.602	0.554	0.498	0.590	0.559	0.530	0.495	0.497	0.496	0.458	0.467	0.451	0.578	0.990	1.852	1.790	1.192	1.117	1.340	2.575	6.205	17.39	34.55	44.71	24.46	9.652	1.145	0.464	0.378	0.402	0.440	0.450	0.389	0.439	0.400	0.463	0.382	0.434	0.365	0.497
265.0	37.64	31.38	34.31	115.4	330.9	224.4	231.1	1571	6730	6694	209.5	16.76	8.443	5.917	4.571	3.925	2.865	2.552	2.014	1.935	1.915	1.424	1.389	1.316	1.255	1.164	1.052	0.964	0.867	0.866	0.962	0.865	0.828	0.714	0.673	0.662	0.661	0.620	0.534	0.495	0.526	0.568	0.554	0.602	0.554	0.503	0.407	0.451	0.479	0.434	0.562	1.008	1.795	2.155	1.312	0.843	1.035	1.826	4.555	11.34	27.91	47.60	50.52	21.12	5.314	0.672	0.475	0.435	0.475	0.493	0.447	0.502	0.511	0.397	0.386	0.388	0.478
270.0	49.43	45.51	39.92	49.08	158.4	339.2	267.5	404.9	2075	6213	7925	2414	53.53	8.818	6.143	4.587	3.632	2.954	2.406	1.956	1.902	1.536	1.536	1.509	1.364	1.223	1.081	1.012	1.014	1.015	0.958	0.896	0.871	0.696	0.669	0.666	0.650	0.598	0.595	0.555	0.561	0.596	0.490	0.611	0.591	0.530	0.523	0.499	0.553	0.444	0.450	0.546	0.892	1.355	1.745	2.084	1.777	1.309	1.468	2.955	6.957	14.71	27.43	40.00	39.07	40.42	15.04	5.509	0.768	0.521	0.478	0.530	0.480	0.470	0.466	0.407	0.478
275.0	79.74	93.95	84.79	56.25	63.49	152.2	429.3	332.5	514.1	1528	5197	9999.9	1186	53.90	9.704	6.326	4.655	3.540	3.097	2.410	2.211	1.819	1.702	1.482	1.335	1.290	1.187	1.182	1.219	1.066	0.995	0.881	0.979	0.777	0.727	0.810	0.633	0.649	0.695	0.573	0.551	0.648	0.606	0.669	0.661	0.708	0.664	0.656	0.644	0.513	0.469	0.563	0.607	0.702	0.909	1.263	2.532	3.235	2.343	1.372	2.046	3.850	6.684	9.785	13.50	33.14	63.12	67.83	23.39	5.737	0.695	0.580	0.572	0.521	0.454	0.519	0.461
280.0	135.5	155.7	148.1	90.37	54.08	67.23	266.3	533.6	284.5	408.5	1454	7739	9865	868.9	25.11	8.185	5.692	3.787	3.470	2.690	2.474	1.969	1.749	1.790	1.525	1.318	1.193	1.163	1.192	1.096	1.015	0.964	0.924	0.852	0.790	0.792	0.678	0.752	0.637	0.656	0.633	0.614	0.582	0.725	0.706	0.825	0.832	0.840	0.802	0.751	0.563	0.637	0.673	0.590	0.643	0.755	1.224	2.419	3.313	2.972	1.574	1.451	2.110	2.936	3.679	8.665	23.00	52.12	75.40	32.81	18.64	2.907	0.633	0.535	0.544	0.507	0.521
285.0	163.5	213.4	210.8	132.6	71.84	55.09	118.6	434.9	518.3	222.0	427.4	2329	9999.9	8020	120.2	13.32	7.249	5.492	3.925	3.111	2.805	2.246	1.905	1.799	1.521	1.365	1.469	1.305	1.143	1.090	1.053	0.949	0.920	0.936	0.878	1.002	0.694	0.813	0.699	0.812	0.665	0.606	0.665	0.761	0.832	0.819	0.856	1.072	1.091	0.899	0.659	0.754	0.653	0.683	0.668	0.616	0.738	1.281	1.978	3.381	3.540	2.322	1.392	1.336	1.731	2.694	5.963	13.92	33.09	58.68	78.25	30.35	12.88	1.495	0.575	0.633	0.608
290.0	222.2	296.4	296.2	196.8	104.8	72.97	94.75	211.5	503.2	494.0	334.8	697.9	2888	7566	8385	2069	32.36	8.047	4.995	3.821	3.218	2.487	2.309	1.900	1.663	1.579	1.568	1.483	1.263	1.194	1.182	1.026	1.060	1.021	1.008	1.020	0.957	0.889	0.753	0.824	0.775	0.693	0.749	0.827	0.891	0.993	1.045	1.269	1.277	1.151	0.888	0.914	0.747	0.807	0.715	0.664	0.727	0.898	1.105	1.677	2.500	3.469	3.707	2.917	1.936	1.879	2.429	4.295	8.600	15.93	30.44	42.17	58.32	49.82	20.66	10.39	2.041
295.0	273.8	369.1	387.5	259.7	154.4	113.3	126.0	172.9	291.2	603.5	767.7	466.1	877.9	1898	4942	9999.9	690.6	32.53	7.491	5.657	4.193	2.984	2.559	2.250	2.071	1.919	1.619	1.467	1.357	1.203	1.353	1.138	1.229	1.047	1.017	0.946	0.976	0.957	0.928	0.850	0.895	0.823	0.850	0.881	1.016	1.200	1.387	1.492	1.642	1.369	1.082	1.126	0.962	0.850	0.799	0.904	0.942	1.059	1.065	1.249	1.613	2.030	2.851	4.161	5.050	3.666	2.374	2.582	3.455	5.046	8.011	10.59	15.39	24.75	53.10	77.69	32.74
300.0	293.4	414.3	433.9	301.0	191.2	155.7	172.7	211.4	278.8	457.1	940.9	725.6	523.7	641.7	1375	6889	9712	535.5	16.52	7.162	5.058	3.551	3.348	2.820	2.125	1.827	1.705	1.521	1.297	1.256	1.280	1.176	1.243	1.129	1.071	1.008	1.019	1.018	0.978	0.855	0.868	0.888	0.949	0.896	1.033	1.307	1.440	1.641	1.764	1.556	1.201	1.135	1.257	1.052	1.015	0.889	1.091	1.173	1.230	1.454	1.581	1.809	2.173	2.949	4.310	5.421	4.689	2.975	2.772	2.765	3.365	3.865	4.634	6.771	15.67	38.82	66.44
305.0	324.3	434.8	484.9	351.2	225.6	197.8	223.2	271.4	328.2	456.6	762.1	1099	643.3	442.8	493.2	1970	8574	5128	75.27	10.39	6.217	4.455	3.444	2.842	2.322	2.116	1.735	1.637	1.484	1.272	1.291	1.207	1.269	1.170	1.174	1.116	1.071	1.066	1.021	0.907	0.891	0.896	0.916	0.910	1.096	1.369	1.396	1.751	1.756	1.572	1.288	1.295	1.316	1.158	1.148	1.159	1.319	1.388	1.474	1.752	2.035	1.947	2.311	2.621	3.170	4.390	6.111	5.965	4.458	3.005	2.885	2.608	2.728	2.863	4.718	9.946	21.64
310.0	325.5	474.1	514.5	389.4	263.0	240.3	272.8	327.4	395.4	512.0	670.4	938.5	1027	602.2	369.7	583.8	2373	5736	6330	1575	24.20	6.210	4.534	3.583	2.896	2.352	2.112	1.763	1.660	1.509	1.388	1.268	1.215	1.126	1.228	1.118	1.144	1.080	1.010	0.908	0.848	0.960	0.933	1.058	1.131	1.279	1.605	1.860	1.905	1.658	1.417	1.508	1.368	1.275	1.324	1.374	1.584	1.718	1.858	1.964	2.147	2.318	2.576	2.896	3.186	3.730	4.388	5.241	5.874	5.574	4.086	3.149	2.599	2.472	2.506	3.307	5.811
315.0	340.9	495.7	550.5	426.0	291.2	278.5	320.1	378.9	462.0	572.1	705.2	804.0	925.7	970.8	494.9	327.2	651.6	1383	3783	8756	508.5	26.28	6.348	4.595	3.529	2.914	2.466	2.052	1.848	1.615	1.503	1.154	1.190	1.285	1.246	1.111	1.060	1.053	1.073	1.003	0.837	0.981	1.080	1.000	1.115	1.399	1.623	2.077	1.961	1.866	1.564	1.618	1.645	1.437	1.437	1.507	1.666	1.917	2.094	2.193	2.490	2.638	2.942	3.097	3.543	3.868	3.696	4.488	4.453	4.961	5.534	6.004	4.302	2.967	2.446	2.205	2.569
320.0	362.8	564.4	644.9	484.6	338.0	316.1	356.1	405.4	502.3	626.5	749.9	816.9	842.3	960.1	771.0	351.5	309.2	417.8	999.5	5498	7614	432.3	14.05	5.838	4.133	3.257	2.843	2.426	1.949	1.680	1.629	1.243	1.382	1.227	1.241	1.197	1.069	1.128	0.928	0.930	0.970	1.091	0.941	1.056	1.258	1.465	1.784	2.199	2.181	2.053	1.677	1.868	1.706	1.573	1.663	1.748	1.901	2.069	2.134	2.539	2.613	2.975	3.216	3.263	3.657	3.824	3.974	4.472	4.343	4.392	4.630	5.718	6.249	4.720	3.156	2.471	2.097
325.0	408.3	670.0	772.8	597.9	407.6	354.4	385.6	439.7	533.3	654.7	779.0	866.1	866.8	840.2	890.7	527.5	280.9	231.5	311.6	1507	6476	3919	60.48	9.040	4.936	3.675	2.951	2.648	2.176	1.936	1.677	1.553	1.332	1.296	1.237	1.177	1.102	1.077	1.071	0.975	0.983	1.040	1.000	1.133	1.352	1.581	1.965	2.470	2.596	2.419	2.000	2.029	2.011	1.821	1.805	1.877	1.854	2.090	2.329	2.551	2.645	3.112	3.272	3.474	3.841	4.088	4.208	4.403	4.504	4.192	4.471	4.441	5.207	5.559	5.025	3.533	2.545
330.0	463.5	753.6	945.2	776.4	515.8	409.4	421.5	473.8	559.8	691.4	820.9	913.8	903.5	824.5	762.6	693.9	447.4	241.5	190.7	422.7	1777	4386	5049	1357	21.79	5.333	3.848	3.047	2.409	2.195	1.794	1.677	1.287	1.337	1.315	1.285	1.164	1.130	1.096	1.041	1.025	1.090	1.082	1.208	1.451	1.754	2.107	2.777	3.086	2.933	2.543	2.663	2.227	2.114	1.884	2.017	2.146	2.226	2.381	2.623	2.924	3.151	3.365	3.725	4.203	4.117	4.501	4.452	4.554	4.702	4.771	4.294	4.439	4.581	4.751	4.578	4.363
335.0	500.2	821.8	1052	910.4	613.4	482.9	459.5	507.2	589.2	707.5	841.9	930.5	937.9	858.6	722.7	617.0	628.7	386.4	208.8	213.3	471.8	1046	3075	7239	1930	25.98	5.597	4.094	2.910	2.297	2.180	1.774	1.503	1.490	1.419	1.340	1.287	1.123	1.169	1.145	1.117	1.037	1.055	1.243	1.553	1.899	2.370	3.071	3.400	3.295	2.931	3.058	2.669	2.430	2.180	2.228	2.391	2.447	2.510	2.858	3.122	3.305	3.557	4.068	4.431	4.347	4.483	4.706	4.604	4.899	5.092	4.546	4.338	4.332	4.066	4.086	4.256
340.0	508.1	824.1	1116	986.9	688.0	527.4	490.6	527.8	604.8	720.7	837.1	936.2	940.6	870.6	737.6	594.2	575.7	544.3	279.0	189.9	199.9	292.2	797.3	4565	6784	386.1	14.69	5.054	3.532	2.783	2.318	1.929	1.659	1.476	1.305	1.285	1.308	1.088	1.183	1.058	1.067	1.115	1.082	1.311	1.475	1.821	2.481	3.065	3.784	3.424	2.913	3.257	2.931	2.563	2.345	2.241	2.594	2.649	2.631	2.846	3.005	3.279	3.586	3.990	4.142	4.256	4.699	4.557	4.690	5.058	4.852	4.620	4.470	4.446	4.190	3.774	3.715
345.0	491.1	812.7	1117	1011	727.5	565.4	508.0	530.7	605.9	713.6	830.5	918.9	927.4	862.6	735.3	589.4	509.3	542.5	411.0	216.4	158.5	143.2	232.6	1240	5524	5488	305.4	7.775	4.292	3.298	2.495	2.224	1.732	1.590	1.358	1.293	1.138	1.246	1.184	1.010	1.141	1.102	1.154	1.304	1.551	1.817	2.375	3.094	3.603	3.522	3.088	3.485	3.042	2.707	2.487	2.486	2.541	2.443	2.572	2.775	2.921	3.218	3.325	3.768	3.811	4.245	4.398	4.652	4.804	4.833	4.506	4.480	4.793	4.570	3.972	3.812	3.858
350.0	475.3	793.2	1055	1013	776.3	613.8	548.6	542.4	608.6	696.3	797.4	879.7	888.9	835.2	728.9	598.8	497.4	457.0	463.1	348.7	196.5	139.3	129.9	330.7	1505	4103	4226	1210	20.11	4.383	3.054	2.480	1.999	1.718	1.451	1.296	1.249	1.174	1.108	1.156	1.079	1.046	1.167	1.274	1.540	1.801	2.307	2.845	3.418	3.323	3.096	3.364	3.156	2.900	2.874	2.492	2.713	2.602	2.626	2.900	2.976	3.207	3.473	3.764	3.917	4.166	4.343	4.435	4.614	4.452	4.560	4.552	4.361	4.630	4.160	3.773	3.723
355.0	425.8	742.1	995.8	989.3	811.2	664.8	591.8	584.0	630.6	699.3	782.8	842.8	848.4	807.7	724.2	609.5	521.1	450.5	406.9	433.7	317.9	179.4	136.0	152.9	385.5	966.9	2524	5835	1688	24.76	4.355	3.117	2.359	2.126	1.745	1.413	1.289	1.180	1.139	1.175	1.029	1.017	1.168	1.187	1.471	1.799	2.102	2.647	3.157	3.086	3.077	3.451	3.167	3.046	2.810	3.043	2.955	2.784	2.807	3.090	3.045	3.392	3.525	3.672	3.877	3.949	4.164	4.325	4.382	4.430	4.353	4.552	4.330	4.368	4.021	4.230	3.767
360.0	403.5	693.6	931.6	968.1	812.5	691.3	631.2	616.4	645.9	707.4	769.0	807.2	817.7	790.2	715.1	620.3	541.5	461.5	400.8	398.1	409.0	252.0	161.5	132.4	157.5	262.6	649.8	3703	5348	366.6	14.33	3.769	2.841	2.219	1.969	1.598	1.413	1.225	1.281	1.185	1.060	1.097	1.211	1.122	1.297	1.694	2.031	2.528	2.816	2.944	3.031	3.288	3.332	3.196	2.957	2.965	3.155	2.952	2.936	3.515	3.137	3.358	3.695	3.727	3.934	3.836	4.013	3.924	4.450	4.253	4.695	4.435	4.183	4.218	4.117	4.036	3.978
365.0	402.0	651.4	872.4	940.6	835.5	709.4	663.7	641.6	662.5	719.9	759.1	791.9	786.4	764.1	702.6	617.9	547.9	480.1	418.7	381.1	401.6	356.1	207.3	150.0	124.0	121.1	186.9	1015	4234	3106	290.1	7.181	3.508	2.617	2.025	1.701	1.396	1.216	1.165	1.199	1.022	1.166	1.185	1.261	1.271	1.649	1.921	2.558	2.937	2.883	2.907	3.192	3.423	3.223	3.188	2.792	3.111	3.199	3.105	3.365	3.295	3.269	3.658	3.783	3.943	3.982	3.960	4.034	4.196	4.169	4.429	4.416	4.389	4.225	3.919	4.048	3.894
370.0	375.2	609.5	839.6	906.6	830.7	740.2	682.0	660.2	676.3	717.2	749.8	774.1	771.9	740.4	688.5	617.9	557.4	500.9	444.8	396.0	365.9	382.7	320.5	202.5	144.9	113.0	103.0	269.1	1149	3007	3701	1123	18.45	3.690	2.655	2.083	1.516	1.430	1.305	1.217	1.040	1.073	1.174	1.218	1.309	1.621	1.901	2.397	2.850	2.801	2.827	3.184	3.371	3.213	3.237	2.928	3.094	3.178	3.117	3.495	3.363	3.315	3.508	3.782	3.913	3.967	3.720	3.788	4.223	4.196	4.362	4.231	4.282	4.187	3.954	3.868	4.330
375.0	374.9	575.6	799.8	871.6	838.0	772.2	707.0	672.3	695.8	716.2	743.7	755.7	744.4	712.7	668.7	610.1	564.4	514.7	470.1	425.7	375.6	353.2	371.9	307.7	188.7	138.7	109.9	121.8	299.0	714.1	2100	4881	1577	22.42	3.521	2.450	1.750	1.720	1.357	1.308	1.148	1.208	1.136	1.163	1.356	1.647	1.773	2.124	2.452	2.607	2.661	3.149	3.280	3.346	3.324	3.151	3.341	3.219	3.349	3.395	3.375	3.686	3.430	3.859	3.869	3.969	3.916	3.806	3.848	4.211	4.126	4.180	3.843	4.143	4.130	4.147	3.984
380.0	334.2	539.3	748.9	843.7	823.3	783.7	715.6	690.9	695.9	717.2	738.6	740.9	727.0	700.5	651.6	611.2	561.0	522.8	479.8	437.6	390.5	352.5	343.4	364.9	252.4	165.9	126.0	104.3	121.9	198.6	542.3	2989	4654	309.8	12.48	3.159	2.125	1.860	1.533	1.290	1.286	1.236	1.183	1.156	1.397	1.637	1.725	2.148	2.409	2.532	2.631	3.234	3.323	3.122	3.082	3.273	3.434	3.445	3.444	3.470	3.463	3.546	3.692	3.391	3.832	3.894	3.765	3.575	3.685	3.921	4.165	3.720	3.889	4.170	3.949	3.957	3.824
385.0	326.3	545.7	727.0	822.2	833.4	779.9	720.9	704.4	693.9	699.6	726.3	723.2	716.3	686.3	648.5	599.2	556.5	527.2	487.3	450.7	408.6	365.6	337.0	351.0	324.9	208.1	148.8	115.3	96.02	93.11	157.6	811.1	3550	2614	243.6	5.761	2.673	2.237	1.827	1.398	1.379	1.289	1.140	1.250	1.436	1.500	1.785	2.147	2.394	2.497	2.507	3.077	3.321	3.189	3.179	3.168	3.646	3.548	3.416	3.594	3.621	3.496	3.789	3.502	3.686	3.576	3.541	3.828	3.679	3.682	3.711	3.714	3.771	4.045	4.209	3.869	3.804
390.0	315.3	509.3	692.8	802.4	808.8	772.5	728.2	697.5	696.0	696.1	705.5	692.6	690.5	662.0	629.4	579.8	548.2	521.2	490.5	459.9	421.3	381.7	350.3	326.4	331.1	290.2	195.6	144.4	113.0	88.98	84.19	214.7	956.0	2415	2871	900.5	15.30	2.962	2.120	1.683	1.447	1.328	1.250	1.177	1.322	1.563	1.693	2.136	2.368	2.378	2.455	2.964	3.170	3.265	3.391	3.207	3.483	3.536	3.462	3.488	3.601	3.490	3.651	3.559	3.667	3.728	3.436	3.736	3.595	3.655	3.822	3.741	3.925	3.818	3.771	3.722	3.856
395.0	306.2	488.8	689.9	791.7	801.8	763.5	733.0	699.7	687.4	675.9	687.4	679.1	660.2	644.8	601.9	564.3	535.3	512.9	488.5	458.6	426.6	394.3	365.2	335.9	310.3	318.4	276.7	186.3	140.5	108.6	86.16	96.30	245.0	570.4	1611	3715	1272	18.82	3.353	2.186	1.690	1.267	1.372	1.179	1.313	1.538	1.712	1.934	2.316	2.314	2.489	3.193	3.012	3.385	3.346	3.200	3.318	3.466	3.246	3.559	3.771	3.570	3.614	3.631	3.492	3.541	3.465	3.583	3.460	3.585	3.715	3.524	3.834	3.837	3.722	3.753	3.703
400.0	317.1	474.1	679.6	766.9	780.9	753.2	724.1	699.7	683.5	680.3	675.0	663.9	647.9	621.7	588.4	549.0	523.5	504.1	480.5	454.8	430.6	401.6	375.6	345.3	314.4	302.7	313.0	239.6	166.3	129.1	100.8	81.10	94.21	155.2	414.9	2267	3526	266.4	11.17	2.483	1.846	1.597	1.415	1.385	1.327	1.604	1.739	2.020	2.345	2.401	2.330	3.193	3.011	3.220	3.648	3.168	3.286	3.398	3.494	3.447	3.592	3.269	3.500	3.523	3.605	3.311	3.465	3.386	3.354	3.446	3.592	3.528	3.765	3.586	3.605	3.500	3.864
405.0	284.0	457.6	643.5	744.4	777.8	762.6	718.7	707.4	682.8	677.1	665.7	655.0	636.2	616.6	571.1	539.2	508.1	495.0	471.5	449.1	426.3	405.5	383.8	353.3	327.5	300.1	305.5	291.0	203.2	151.7	118.9	88.69	70.51	69.40	116.8	608.9	2642	2233	211.6	4.914	2.272	1.760	1.441	1.493	1.352	1.618	1.692	1.965	2.068	2.297	2.314	2.892	3.113	3.231	3.462	3.101	3.407	3.411	3.395	3.543	3.660	3.401	3.415	3.406	3.420	3.258	3.388	3.388	3.361	3.388	3.465	3.408	3.447	3.495	3.396	3.785	3.606
410.0	284.6	440.7	620.2	724.8	745.2	737.7	721.8	697.4	670.6	671.6	663.6	641.3	623.6	595.9	557.9	515.9	492.2	473.0	453.2	435.3	419.0	402.3	382.5	361.8	336.6	307.0	290.2	290.3	262.0	190.6	141.0	106.2	78.59	60.60	57.03	158.0	705.1	1852	2283	778.8	13.79	2.175	1.776	1.499	1.514	1.522	1.658	1.992	2.233	2.230	2.399	2.740	3.261	3.075	3.192	3.111	3.473	3.606	3.301	3.317	3.377	3.417	3.341	3.486	3.399	3.382	3.376	3.214	3.409	3.100	3.377	3.473	3.398	3.364	3.308	3.483	3.427
415.0	280.5	429.3	588.8	698.7	733.7	707.2	706.4	684.7	672.3	653.3	639.6	620.1	602.7	575.6	527.4	491.6	465.1	445.7	433.5	419.2	401.8	392.0	378.2	361.8	337.1	317.6	290.6	270.8	271.2	246.1	170.1	123.7	91.50	67.62	51.96	62.99	176.6	434.5	1205	2752	1025	17.34	2.486	1.743	1.551	1.672	1.671	1.974	2.275	2.208	2.208	2.808	3.107	3.221	3.195	2.971	3.340	3.271	3.454	3.442	3.206	3.403	3.354	3.406	3.273	3.132	3.098	3.176	3.236	3.294	3.082	3.240	3.230	3.106	3.131	3.518	3.189
420.0	266.0	415.3	578.1	669.3	714.2	706.8	695.5	685.6	653.8	646.2	626.4	611.9	583.7	554.5	513.9	475.4	445.0	426.4	416.1	400.6	387.8	378.8	363.0	353.1	335.8	318.0	290.6	266.2	255.0	262.0	204.4	136.6	100.1	75.52	55.32	47.18	62.06	112.4	303.1	1608	2662	244.1	9.864	2.117	1.689	1.764	1.719	1.939	2.123	2.219	2.135	2.539	3.049	3.040	3.110	2.908	3.325	3.462	3.060	3.486	3.175	3.279	3.239	3.386	3.230	3.197	3.084	3.051	3.220	3.208	3.086	3.095	3.239	2.993	3.140	3.201	3.210
425.0	260.5	389.8	561.9	643.0	680.8	712.6	683.7	675.0	642.7	631.5	617.7	596.4	563.1	533.1	493.8	449.9	427.7	406.6	398.4	383.2	372.0	365.0	355.4	347.6	332.5	315.5	291.9	271.4	250.1	249.2	229.6	160.0	112.6	82.76	62.71	48.07	40.25	43.03	80.12	424.9	1898	2011	195.1	4.252	2.137	1.858	1.692	2.007	2.246	1.992	2.145	2.631	2.962	2.934	2.956	2.838	3.408	3.385	3.322	3.350	3.168	3.469	3.142	3.205	3.334	3.197	2.978	3.095	2.963	2.936	2.853	2.980	3.089	2.882	3.144	3.195	3.086
430.0	276.0	388.7	531.1	627.1	658.2	682.9	675.6	668.9	645.4	619.4	612.2	584.2	548.5	511.5	469.5	428.6	405.5	388.2	377.0	364.4	356.3	348.8	343.3	336.4	324.4	311.6	292.3	271.7	252.5	235.0	226.0	195.7	136.3	96.00	72.24	55.00	41.08	32.63	34.09	106.7	493.7	1394	1843	665.9	13.17	2.370	1.937	2.051	2.167	2.082	2.082	2.672	2.800	2.780	3.045	2.950	3.313	3.192	3.348	3.204	3.166	3.359	3.235	3.185	3.201	3.046	3.133	3.052	3.009	2.846	2.988	2.905	3.084	2.934	3.198	2.928	2.997
435.0	393.1	375.8	509.3	601.6	638.7	662.9	660.7	664.0	640.5	616.7	594.0	576.1	529.2	488.9	448.8	408.0	382.0	363.3	355.3	345.4	337.8	332.0	325.8	326.5	314.8	303.2	287.9	272.1	252.2	235.3	211.2	197.9	170.7	115.5	83.48	64.19	47.73	35.68	27.97	39.09	121.1	322.9	891.8	2226	935.8	17.13	2.448	2.183	2.221	1.902	2.073	2.563	2.807	2.879	2.915	2.966	3.305	3.234	3.298	3.285	2.935	3.197	3.246	3.204	3.021	2.913	2.925	2.742	3.058	2.789	2.795	2.900	2.785	3.037	2.791	2.728	2.962
440.0	488.1	401.1	483.3	569.8	629.1	644.8	641.2	653.6	632.7	608.7	594.8	566.9	519.6	472.1	432.4	391.8	364.6	348.4	337.4	329.7	323.9	315.9	315.2	315.7	306.0	298.6	283.1	269.0	254.0	236.2	208.4	185.8	179.0	137.0	92.12	69.82	53.59	39.55	29.81	26.22	39.35	81.87	221.8	1277	2110	229.8	9.549	2.574	2.484	2.027	2.206	2.471	2.821	2.827	2.839	3.148	3.172	3.104	3.363	2.926	3.028	3.193	3.249	3.235	3.051	3.027	2.888	2.872	2.757	2.697	2.595	2.985	2.742	2.616	2.702	2.692	2.810
445.0	514.5	531.1	465.3	548.3	602.9	628.4	620.5	635.7	616.9	608.2	585.4	548.9	500.1	460.1	412.1	376.8	348.6	330.0	320.2	315.2	304.8	302.7	298.2	301.0	292.3	288.2	276.6	265.5	252.7	231.6	208.1	181.1	167.5	153.1	108.2	75.69	58.47	43.89	33.26	26.37	23.06	29.12	58.40	336.0	1559	1845	170.3	5.171	2.494	2.204	2.147	2.432	2.688	2.706	2.998	2.905	3.104	3.191	3.262	3.045	3.037	3.221	2.991	3.051	3.207	2.986	2.998	2.745	2.704	2.766	2.704	2.749	2.680	2.571	2.550	2.749	2.652
450.0	384.3	881.9	566.2	519.2	579.1	592.4	594.6	602.0	591.6	584.6	560.6	525.4	477.6	428.7	385.0	351.4	325.4	309.9	300.3	290.6	282.8	279.4	277.0	278.1	273.8	269.8	262.3	251.4	242.6	224.5	204.2	177.5	154.5	142.3	125.1	87.49	63.08	48.21	37.18	29.08	23.06	19.73	23.25	83.02	405.8	1227	1621	589.0	11.61	2.476	2.269	2.394	2.611	2.592	2.939	2.781	2.952	2.975	3.105	2.933	2.984	3.064	3.035	2.908	2.903	3.019	2.780	2.710	2.593	2.657	2.587	2.638	2.543	2.432	2.472	2.547	2.324
455.0	241.7	928.1	1036	506.8	525.3	550.1	566.1	569.7	559.4	547.7	532.2	491.6	443.0	402.5	361.2	322.2	299.9	283.9	277.1	264.8	257.2	253.6	252.3	254.4	253.3	246.4	241.6	236.2	227.1	213.0	198.4	170.3	147.2	128.0	119.9	105.0	72.89	53.32	40.61	31.98	25.07	20.51	17.57	27.60	97.79	282.8	746.0	1837	726.2	13.52	2.614	2.559	2.352	2.400	2.689	2.621	2.936	2.804	2.827	2.874	2.863	2.788	2.953	2.982	2.674	2.822	2.472	2.514	2.441	2.471	2.419	2.409	2.372	2.338	2.342	2.242	2.044
460.0	199.1	675.7	1563	651.2	497.5	514.6	535.6	534.3	530.3	527.7	504.7	466.5	417.9	377.6	336.3	300.3	281.3	262.4	256.0	243.8	239.4	234.9	235.6	234.4	233.5	230.7	228.4	222.7	214.9	204.9	188.5	164.5	142.1	121.0	108.2	106.6	83.73	57.09	42.75	34.13	27.01	21.54	17.51	16.12	29.91	69.80	181.8	996.3	1736	175.6	8.436	2.927	2.483	2.336	2.654	2.505	2.657	2.864	2.816	2.648	2.830	2.652	2.748	2.722	2.584	2.845	2.640	2.396	2.391	2.373	2.326	2.183	2.200	2.143	2.207	2.116	2.096
465.0	197.3	407.6	1665	872.6	473.1	482.9	500.7	504.1	506.5	502.6	478.9	440.8	398.8	353.4	314.9	280.4	258.2	245.3	236.7	223.5	222.6	219.7	219.1	218.5	218.9	215.9	212.1	206.7	203.1	192.8	179.0	157.2	138.0	116.0	100.7	96.22	89.93	63.99	45.53	36.01	28.28	22.92	18.20	14.72	15.82	22.97	46.57	255.5	1224	1399	140.7	5.441	2.787	2.479	2.466	2.566	2.691	2.707	2.633	2.675	2.840	2.698	2.815	2.659	2.441	2.718	2.550	2.225	2.247	2.478	2.251	2.134	2.271	1.969	2.137	1.952	1.947
470.0	174.6	272.7	1045	1874	708.8	434.8	455.8	460.4	463.3	454.4	439.1	404.0	365.3	322.8	285.1	254.1	233.7	221.0	209.7	200.9	199.0	195.3	193.9	193.8	196.8	192.8	189.1	187.5	184.0	176.9	164.3	146.2	128.7	110.4	94.18	83.22	80.34	70.82	51.11	37.86	29.70	24.48	19.32	15.66	13.87	13.04	16.85	62.63	314.5	882.2	1163	477.6	12.33	2.818	2.523	2.457	2.662	2.519	2.494	2.507	2.542	2.460	2.510	2.573	2.254	2.434	2.251	2.196	2.138	2.246	2.094	1.934	2.007	1.922	1.902	1.897	1.878
475.0	177.9	222.4	469.1	1780	1605	427.3	413.7	412.0	424.3	410.1	396.7	364.3	324.1	287.6	259.3	228.5	208.8	191.6	184.7	175.8	172.3	168.4	169.9	170.4	170.8	169.1	166.4	166.3	165.1	159.6	148.6	134.4	118.8	102.7	88.86	76.14	67.21	65.22	59.60	41.14	30.27	25.53	20.89	16.74	14.09	11.78	11.01	20.02	75.02	202.0	461.8	1228	579.8	15.74	2.836	2.427	2.396	2.423	2.496	2.263	2.470	2.231	2.286	2.200	2.366	2.175	2.119	2.084	1.884	1.998	1.903	2.043	1.921	1.876	1.918	1.729	1.767
480.0	164.8	214.4	310.4	1108	2335	543.9	382.3	384.5	395.4	386.8	372.6	341.6	302.7	265.5	240.5	209.5	191.5	176.8	169.4	161.5	157.4	156.5	155.1	158.7	154.6	154.0	153.3	150.4	151.1	146.6	138.2	126.3	112.9	96.23	83.37	72.99	63.03	56.14	58.15	47.93	33.03	25.62	20.58	17.80	14.91	11.88	10.15	10.97	21.76	49.57	110.6	573.7	1281	200.7	10.14	2.350	2.181	2.382	2.330	2.089	2.204	2.187	2.119	2.198	2.141	1.966	2.070	1.880	1.875	1.804	1.757	1.698	1.799	1.754	1.832	1.599	1.775
485.0	142.5	222.9	257.7	564.4	2317	1239	368.1	361.5	363.1	361.1	340.7	319.7	288.9	250.9	222.7	194.8	177.3	165.0	158.9	150.8	145.4	144.4	143.6	144.2	143.5	141.5	142.6	140.2	138.2	136.3	128.1	116.8	106.8	91.91	79.67	69.39	60.24	52.29	51.81	50.76	37.35	26.86	21.24	18.32	15.43	12.75	10.53	9.182	10.31	15.85	28.55	143.0	797.0	1162	168.1	5.052	2.470	2.390	2.200	2.166	2.232	1.905	2.115	2.091	2.055	1.817	2.016	1.851	1.913	1.671	1.581	1.739	1.588	1.549	1.763	1.563	1.673
490.0	123.5	219.3	250.4	333.6	1312	2195	623.4	337.7	333.2	331.7	318.0	297.2	260.2	230.0	202.0	177.2	159.3	150.4	144.0	135.0	132.0	130.2	128.7	127.8	130.2	127.2	128.2	127.4	126.7	123.5	118.9	108.1	97.69	85.99	74.64	65.77	57.47	49.33	44.87	45.09	42.27	30.77	22.40	18.71	16.06	13.25	11.43	9.674	8.506	8.449	10.56	35.65	198.2	613.9	989.1	466.1	13.90	2.523	2.271	2.160	2.124	1.909	2.027	1.904	1.890	1.862	1.801	1.634	1.617	1.607	1.393	1.580	1.527	1.532	1.643	1.467	1.555
495.0	109.8	206.8	256.9	261.6	527.3	1988	1620	339.9	305.9	299.5	285.1	268.9	234.5	207.7	184.7	159.2	145.1	134.4	125.9	120.8	119.0	114.2	113.1	114.7	115.2	112.7	113.3	113.6	112.7	110.9	106.9	97.84	88.20	77.96	69.20	61.39	53.57	46.05	40.38	37.50	37.98	35.41	26.09	19.01	16.04	14.30	11.81	10.09	8.339	7.256	6.745	11.82	47.39	140.2	376.3	1101	688.2	19.87	2.528	2.014	2.072	1.809	1.964	1.665	1.637	1.710	1.573	1.718	1.377	1.415	1.443	1.487	1.508	1.313	1.469	1.247	1.352
500.0	101.0	162.7	261.7	248.9	308.8	1177	2449	523.8	278.7	273.6	262.5	246.5	220.4	192.0	166.1	144.7	132.6	122.5	115.5	111.7	107.3	104.7	104.7	103.8	103.0	103.4	100.4	102.7	102.6	99.11	97.06	90.38	82.17	72.94	64.15	57.00	49.92	43.46	39.53	34.98	32.44	34.36	29.36	20.32	16.39	13.78	11.61	9.896	8.523	7.296	5.859	6.375	13.87	34.23	89.21	471.6	1234	227.1	13.73	2.128	2.120	1.881	1.809	1.716	1.599	1.664	1.505	1.620	1.367	1.430	1.447	1.283	1.404	1.325	1.469	1.372	1.397
505.0	86.46	132.9	248.5	251.3	235.2	548.4	2436	1168	262.8	252.7	243.6	229.5	204.1	172.1	152.4	133.4	121.6	112.6	104.5	101.3	98.58	94.48	93.43	92.48	95.01	93.09	91.40	94.25	93.01	91.10	88.07	83.07	75.16	67.37	61.15	52.50	46.39	40.65	36.72	32.30	29.33	29.92	29.84	23.16	16.62	13.69	12.11	10.05	8.687	7.365	5.879	5.457	6.592	10.65	22.74	113.9	637.4	1100	196.7	7.169	2.062	1.710	1.804	1.624	1.618	1.579	1.537	1.512	1.411	1.270	1.321	1.228	1.264	1.332	1.346	1.263	1.265
510.0	79.10	118.4	196.4	255.4	211.2	287.4	1303	2288	506.0	225.8	214.9	201.2	177.5	152.5	134.7	116.6	105.7	98.39	92.57	88.85	84.46	82.56	81.46	81.02	81.32	80.49	80.35	81.40	80.19	79.56	76.37	71.93	65.66	58.77	53.03	47.13	41.93	37.55	33.21	29.62	26.00	24.58	25.21	24.85	18.43	13.75	11.66	9.858	8.384	7.270	6.326	5.376	4.777	5.554	7.869	28.01	153.5	509.1	824.0	406.1	15.09	1.956	1.702	1.509	1.525	1.544	1.426	1.287	1.238	1.155	1.214	1.173	1.102	1.248	1.118	1.150	1.109
515.0	73.00	104.3	148.6	242.5	218.8	198.8	460.9	2128	1579	226.0	191.4	175.1	153.8	132.7	117.5	101.2	92.34	85.91	82.07	75.42	72.35	70.60	70.58	69.47	70.47	68.34	69.93	67.94	68.64	69.48	67.02	62.31	57.62	51.21	47.19	42.29	38.23	33.03	29.78	26.55	23.85	20.91	20.51	21.65	20.98	15.41	11.17	9.709	8.197	7.072	5.883	5.627	4.659	4.150	4.277	8.791	36.63	116.0	261.8	803.5	590.1	21.53	1.864	1.568	1.479	1.449	1.380	1.188	1.122	1.231	1.062	1.050	1.042	1.155	1.061	1.032	1.047
520.0	66.78	92.32	117.9	185.3	231.4	173.6	232.5	1181	2457	423.3	172.8	154.8	141.2	118.4	106.0	90.74	84.01	76.69	73.36	68.22	64.04	63.91	63.35	61.36	62.40	62.32	62.04	60.96	60.88	60.99	59.15	56.01	51.33	46.07	42.60	38.07	33.92	30.29	26.97	24.29	21.95	19.60	17.48	18.05	20.33	17.66	11.57	9.616	7.967	6.871	5.782	5.421	4.966	4.052	3.796	4.540	10.43	28.03	61.33	311.9	885.3	234.8	14.87	1.613	1.444	1.499	1.248	1.087	1.057	1.116	1.130	0.978	0.932	1.028	0.933	0.982	1.040
525.0	62.15	89.26	103.6	154.1	215.3	170.2	166.6	483.1	2640	1137	162.9	143.7	126.7	109.4	94.73	81.54	75.37	68.34	65.24	61.83	58.24	57.91	56.71	56.26	55.41	55.74	53.95	54.26	55.48	54.39	52.47	50.22	46.24	41.20	38.87	34.51	31.60	28.57	24.52	22.61	20.05	17.99	16.08	15.55	17.18	17.46	13.06	9.509	7.419	6.569	5.515	5.030	4.749	4.174	3.515	3.384	4.608	8.259	15.75	74.13	407.4	800.4	200.7	7.946	1.470	1.402	1.117	0.962	1.007	1.039	1.056	1.003	0.884	0.886	1.011	0.917	0.914
530.0	53.97	71.30	93.56	116.4	184.6	182.3	136.9	214.1	1328	2350	426.4	123.8	109.2	95.67	82.05	72.57	65.61	59.41	55.70	53.06	50.79	48.66	48.93	48.59	47.66	47.05	46.65	46.99	47.15	46.59	46.18	43.19	39.84	35.59	33.39	29.53	27.56	25.25	22.30	19.70	18.01	16.09	14.39	13.40	13.27	14.54	14.30	10.46	7.562	6.166	5.328	4.802	4.277	4.256	3.583	3.173	3.248	3.920	5.418	18.44	96.38	328.9	578.0	375.6	15.96	1.605	1.077	0.993	0.974	0.978	0.971	0.840	0.923	0.831	0.905	0.911	0.908
535.0	49.31	64.99	85.69	97.30	130.8	193.0	136.2	137.9	409.8	2177	1527	127.0	94.40	85.16	69.91	63.58	54.76	49.74	47.39	45.42	44.35	41.63	40.31	40.76	40.18	40.47	40.00	39.50	39.48	40.22	39.33	36.46	33.73	31.53	28.55	26.29	23.54	21.54	19.82	17.68	15.51	14.59	12.90	11.78	10.76	11.19	12.89	11.97	8.061	6.023	5.247	4.527	3.658	3.603	3.745	3.394	2.901	2.764	3.130	5.693	23.08	74.78	167.6	540.2	465.9	23.14	1.452	0.955	1.048	0.858	0.943	0.819	0.830	0.842	0.878	0.739	0.799
540.0	51.81	59.09	76.29	82.54	101.9	169.2	139.7	110.0	174.4	1080	2695	204.7	85.12	74.34	61.86	55.86	49.22	44.78	42.88	40.24	38.92	37.76	35.92	35.18	35.96	34.04	34.42	35.26	34.52	35.34	33.85	32.03	29.06	27.62	24.50	23.41	20.75	19.76	17.27	15.50	14.10	12.89	11.76	10.78	9.965	8.990	10.05	11.18	8.795	5.900	4.776	4.329	3.860	3.516	3.374	3.404	3.099	2.448	2.528	2.867	6.676	18.10	39.18	190.1	607.6	237.0	15.57	1.126	1.062	0.936	0.878	0.761	0.744	0.743	0.848	0.672	0.801
545.0	45.29	62.48	69.69	77.44	83.52	138.2	151.7	99.04	113.8	391.1	2698	899.1	77.29	64.19	57.07	48.99	44.46	39.81	38.11	35.12	33.94	32.51	31.49	31.41	30.81	30.14	30.51	30.73	30.31	30.30	29.77	28.14	25.65	24.16	22.27	20.89	18.50	16.83	15.60	13.71	12.90	11.69	10.83	10.05	9.043	7.880	7.750	9.144	9.382	6.447	4.714	4.077	3.397	3.199	3.199	3.011	3.129	2.542	2.214	2.317	2.997	5.475	10.18	44.70	254.7	565.4	194.1	7.689	1.118	0.965	0.962	0.793	0.673	0.779	0.724	0.591	0.713
550.0	44.96	54.15	68.04	67.94	70.28	89.88	151.0	102.8	88.09	152.1	1236	2239	243.5	55.68	48.69	41.39	37.49	33.36	32.08	29.25	28.46	27.00	25.87	26.38	25.08	25.76	25.02	25.39	25.26	25.19	25.12	23.51	21.62	19.84	18.23	17.21	15.49	14.12	12.97	12.10	11.05	9.842	9.290	8.642	7.930	7.040	6.280	6.718	7.830	7.206	5.095	3.857	3.028	2.954	2.742	2.592	2.790	2.560	2.314	1.987	2.192	2.747	3.594	11.29	59.78	216.5	399.7	217.5	15.84	1.346	1.012	0.844	0.718	0.817	0.688	0.647	0.674
555.0	41.73	51.02	56.58	58.53	55.47	64.81	107.6	126.5	73.11	84.61	348.3	2052	1086	55.71	40.35	34.03	30.84	27.25	25.99	24.25	22.69	21.53	22.10	21.39	20.59	20.97	19.99	20.61	20.35	20.90	20.92	19.37	17.26	16.44	15.01	13.80	12.66	11.88	10.18	10.07	9.184	8.285	7.678	6.777	6.510	5.891	5.510	5.025	5.548	6.471	5.431	3.958	2.972	2.706	2.445	2.183	2.356	2.733	2.507	1.966	1.822	2.058	2.163	3.839	14.51	49.58	112.2	330.1	245.0	21.72	1.242	0.865	0.777	0.778	0.624	0.636	0.609
560.0	48.58	51.70	58.38	54.32	52.50	52.77	81.02	132.1	75.19	66.90	126.2	1000	2152	119.7	35.44	28.89	25.94	23.89	21.68	20.67	19.70	18.23	18.25	18.19	17.83	17.84	17.48	17.65	17.62	17.67	17.30	15.83	14.67	13.72	12.63	11.73	11.07	10.33	8.961	8.499	8.254	7.321	6.390	6.010	5.590	5.271	4.731	4.267	4.202	4.877	5.276	4.196	2.794	2.414	2.119	2.112	2.197	2.269	2.286	2.142	1.759	1.682	1.850	2.062	4.406	12.35	26.57	113.4	358.0	212.9	14.34	1.007	0.665	0.643	0.585	0.570	0.630
565.0	50.75	57.08	55.72	50.74	47.05	45.85	54.25	119.3	89.47	59.52	72.42	340.2	2308	566.7	31.53	25.75	22.10	20.62	18.70	18.28	16.99	15.42	15.99	16.44	15.25	14.72	14.58	15.19	14.93	14.50	14.51	13.36	12.43	12.10	11.13	10.21	9.239	8.590	8.192	7.314	6.847	6.343	5.948	5.283	4.712	4.531	4.354	3.612	3.610	3.692	4.306	4.314	2.952	2.333	2.004	2.093	2.014	2.003	2.037	2.438	1.961	1.703	1.800	1.817	2.271	3.956	7.169	27.17	143.9	353.8	155.1	5.954	0.884	0.757	0.701	0.590	0.578
570.0	54.62	54.28	55.27	46.11	40.65	39.35	43.08	79.15	105.2	57.47	55.49	116.2	1090	1521	83.70	21.96	18.13	17.07	15.34	14.69	14.14	13.16	12.74	12.81	12.35	12.12	11.94	12.10	11.93	11.74	11.79	10.99	10.25	9.988	8.985	8.095	7.902	7.087	6.648	5.979	5.735	4.920	4.638	4.441	4.088	3.973	3.544	3.213	2.965	2.880	3.083	3.703	3.155	2.407	1.922	1.920	1.874	1.702	1.727	2.076	2.228	1.982	1.678	1.845	1.916	2.177	3.024	7.352	34.07	127.6	239.8	137.3	15.11	1.059	0.690	0.645	0.582
575.0	52.69	52.82	56.98	46.02	35.70	31.62	36.79	49.08	106.0	70.13	46.62	62.08	294.4	1599	714.1	21.21	14.89	14.17	12.43	11.75	11.02	10.42	10.50	9.947	10.14	10.21	9.828	9.524	10.02	9.151	9.670	8.715	8.534	7.643	7.215	6.706	6.242	5.842	5.381	5.045	4.975	4.243	3.799	3.841	3.420	3.207	3.188	2.837	2.471	2.437	2.296	2.685	2.955	2.691	2.071	1.849	1.677	1.634	1.728	1.773	1.966	2.226	2.012	1.886	1.781	1.908	1.938	2.974	8.936	29.68	63.93	183.5	197.6	20.26	0.904	0.666	0.637
580.0	54.69	49.64	53.19	48.48	35.60	29.76	32.40	37.19	83.73	92.96	46.11	46.53	94.14	808.1	1503	60.22	13.06	12.66	10.56	10.34	9.167	9.111	8.950	8.790	8.868	7.969	8.321	7.946	8.562	7.942	8.409	7.621	7.147	6.688	5.981	5.927	5.349	4.840	4.405	4.513	3.759	3.718	3.343	3.163	2.983	2.890	2.576	2.484	2.205	2.225	1.875	1.905	2.586	2.874	2.171	1.669	1.724	1.475	1.511	1.604	1.665	2.062	2.108	1.849	1.678	1.733	1.643	1.833	3.188	7.799	15.44	60.17	214.9	152.1	12.26	0.661	0.589
585.0	45.09	52.52	54.99	42.04	33.36	29.64	29.24	32.32	56.35	104.5	51.01	43.57	49.67	269.5	1681	290.8	12.92	11.18	9.938	9.103	8.424	7.933	7.911	7.498	7.765	6.953	7.276	7.296	7.483	7.062	7.156	6.743	6.111	5.736	5.266	4.884	4.533	4.265	3.789	3.712	3.418	3.241	2.925	2.846	2.864	2.546	2.322	2.084	1.915	1.876	1.572	1.494	1.958	2.715	2.374	1.655	1.655	1.444	1.405	1.461	1.545	1.602	2.011	1.780	1.810	1.658	1.579	1.550	1.868	2.885	4.508	14.63	79.82	210.8	105.0	5.277	0.620
590.0	45.99	53.73	48.74	40.73	33.91	27.28	28.37	29.65	40.10	88.55	73.64	42.18	38.99	84.31	814.3	993.6	43.94	9.531	8.219	7.559	7.013	6.991	6.511	6.452	6.057	5.825	5.928	5.716	5.844	5.775	5.982	5.620	5.002	4.722	4.351	4.066	3.867	3.466	3.272	3.041	3.016	2.589	2.527	2.536	2.345	2.113	1.989	1.871	1.641	1.627	1.461	1.334	1.432	1.926	2.097	1.867	1.461	1.284	1.268	1.247	1.230	1.413	1.604	1.804	1.878	1.502	1.395	1.397	1.468	1.640	1.971	4.156	18.91	70.89	142.4	93.76	14.00
595.0	41.19	47.78	46.69	38.04	27.57	24.93	24.47	28.15	32.14	57.57	92.45	47.83	36.24	41.57	215.0	1107	367.8	9.218	7.162	6.221	6.056	5.457	5.303	5.246	4.833	4.905	4.849	5.211	4.949	4.666	4.881	4.517	3.894	3.714	3.470	3.290	3.302	2.943	2.764	2.538	2.489	2.356	2.228	2.071	2.083	1.953	1.825	1.483	1.481	1.288	1.145	1.199	1.180	1.248	1.624	1.883	1.603	1.308	1.239	1.003	1.179	1.148	1.352	1.344	1.720	1.609	1.407	1.207	1.197	1.280	1.342	1.830	4.995	16.49	36.56	105.9	123.4
600.0	35.91	49.99	43.20	38.95	25.62	24.68	23.71	25.73	30.58	43.48	87.72	56.95	36.56	29.67	63.38	602.5	771.1	22.22	6.676	5.729	5.547	4.543	4.802	4.463	4.251	4.200	4.044	4.150	4.352	4.142	3.919	3.400	3.356	3.280	3.160	3.009	2.541	2.569	2.438	2.101	2.078	1.857	1.952	1.658	1.627	1.640	1.561	1.374	1.282	1.212	1.082	1.058	1.016	1.022	1.243	1.543	1.595	1.295	1.106	0.967	1.014	1.113	1.111	1.181	1.383	1.541	1.385	1.233	1.123	1.178	1.152	1.105	1.867	4.436	8.736	32.82	123.5
605.0	41.69	43.21	45.47	35.37	26.14	24.58	26.34	27.03	29.70	36.13	74.84	73.37	38.74	29.20	29.11	202.4	1029	80.89	5.929	5.017	4.611	4.199	3.769	3.987	3.911	3.612	3.578	3.566	3.817	3.387	3.614	3.021	3.032	2.949	2.647	2.627	2.347	2.154	2.225	1.850	1.882	1.790	1.522	1.447	1.375	1.483	1.284	1.208	1.202	1.128	0.990	0.922	0.939	0.900	0.964	1.155	1.592	1.357	1.078	0.993	0.916	1.038	1.049	1.053	1.258	1.352	1.503	1.336	1.053	1.119	1.186	1.095	1.128	1.615	2.561	7.948	43.02
610.0	42.02	44.69	44.01	33.30	25.64	24.54	23.79	27.68	29.69	35.52	54.38	82.99	47.38	30.97	22.21	57.98	584.6	587.9	20.88	4.472	4.004	3.918	3.572	3.410	3.139	3.115	2.810	3.009	3.135	3.001	2.908	2.721	2.649	2.451	2.267	2.113	1.962	1.909	1.761	1.579	1.511	1.458	1.426	1.228	1.197	1.257	1.148	1.061	1.026	0.994	0.906	0.825	0.837	0.797	0.828	0.930	1.290	1.295	1.135	0.964	0.979	0.974	0.963	0.955	1.133	1.235	1.360	1.392	1.157	1.106	1.117	1.023	0.919	0.982	1.166	2.290	10.31
615.0	37.01	41.25	40.54	33.28	26.29	22.43	22.32	26.32	30.62	34.88	44.07	73.76	60.48	32.27	20.91	23.45	156.6	766.0	185.3	4.192	3.717	3.348	3.180	2.737	2.728	2.512	2.466	2.440	2.640	2.508	2.416	2.365	2.297	2.258	1.968	1.838	1.726	1.729	1.584	1.487	1.372	1.248	1.161	1.108	1.037	1.107	0.986	0.971	0.990	0.784	0.772	0.748	0.681	0.745	0.752	0.795	0.952	1.118	1.104	0.991	0.982	0.790	0.979	0.899	1.103	1.007	1.061	1.230	1.304	1.027	0.951	1.072	0.845	0.835	0.821	1.022	2.787
620.0	37.87	41.66	41.86	31.88	24.70	21.50	23.07	24.27	29.69	35.38	40.73	59.08	70.77	33.77	21.32	15.12	44.40	476.7	504.2	8.517	3.345	3.070	2.733	2.848	2.532	2.321	2.178	2.267	2.234	2.132	2.229	2.010	1.827	1.984	1.732	1.602	1.496	1.474	1.371	1.281	1.187	1.165	0.918	0.869	0.889	0.912	0.887	0.922	0.861	0.747	0.728	0.649	0.650	0.683	0.681	0.695	0.743	0.959	1.096	0.991	0.952	0.815	0.957	0.939	1.011	1.012	0.987	1.044	1.331	1.206	0.994	1.016	0.825	0.742	0.725	0.742	1.081
625.0	37.56	36.02	39.69	29.89	21.36	19.94	21.87	23.32	28.87	33.70	38.12	50.38	71.15	38.30	21.69	13.64	17.91	175.3	720.9	49.94	3.431	2.662	2.216	2.340	2.318	2.030	2.051	1.902	2.266	1.998	2.146	1.775	1.584	1.691	1.745	1.398	1.381	1.413	1.139	1.077	1.030	0.978	0.991	0.864	0.902	0.859	0.895	0.878	0.786	0.658	0.637	0.592	0.671	0.570	0.656	0.620	0.649	0.741	0.946	0.900	1.096	0.834	0.803	0.885	0.868	0.855	0.995	0.977	1.092	1.297	0.944	0.901	0.726	0.800	0.688	0.777	0.672
630.0	39.88	36.64	36.78	28.63	20.65	18.74	21.91	22.99	28.21	32.77	37.88	41.74	58.75	49.58	22.57	13.14	11.31	47.46	463.6	361.5	8.872	2.484	2.380	2.019	2.048	1.844	1.886	1.808	1.789	1.680	1.726	1.561	1.383	1.383	1.418	1.358	1.339	1.192	1.112	1.007	0.974	0.895	0.920	0.747	0.773	0.847	0.751	0.755	0.731	0.620	0.604	0.636	0.607	0.540	0.558	0.589	0.617	0.614	0.749	0.851	0.928	0.834	0.822	0.773	0.761	0.815	0.810	0.876	0.919	1.080	1.090	0.873	0.723	0.715	0.600	0.554	0.530
635.0	36.91	39.44	31.78	28.51	19.71	18.37	21.57	23.26	26.30	29.29	35.16	39.68	44.18	57.30	26.77	13.88	10.62	16.15	130.2	562.1	59.24	2.319	2.110	2.051	1.837	1.735	1.671	1.505	1.625	1.372	1.400	1.302	1.213	1.364	1.213	1.052	1.088	1.062	0.935	0.980	0.958	0.766	0.753	0.700	0.723	0.680	0.647	0.684	0.632	0.566	0.514	0.574	0.558	0.537	0.565	0.508	0.597	0.565	0.608	0.747	0.839	0.858	0.785	0.651	0.644	0.713	0.694	0.751	0.808	0.962	0.878	0.830	0.782	0.677	0.551	0.589	0.580
640.0	37.91	36.40	35.49	27.30	20.98	19.86	19.34	22.15	25.56	29.15	34.57	37.95	39.58	50.40	33.65	14.37	10.74	9.449	35.00	403.3	292.1	4.451	2.096	1.797	1.788	1.486	1.401	1.468	1.628	1.460	1.265	1.361	1.302	1.274	1.347	1.015	1.203	1.014	0.836	0.963	0.816	0.719	0.640	0.663	0.593	0.652	0.611	0.617	0.552	0.542	0.443	0.547	0.533	0.508	0.533	0.540	0.545	0.523	0.602	0.665	0.680	0.882	0.809	0.632	0.665	0.700	0.666	0.660	0.729	0.719	0.683	0.835	0.787	0.648	0.541	0.617	0.520
645.0	33.49	37.45	33.57	27.47	21.83	18.63	18.99	23.16	25.69	29.10	34.67	36.56	38.01	43.75	39.14	15.61	11.29	8.087	12.27	165.6	490.8	27.79	2.065	1.722	1.449	1.498	1.322	1.289	1.462	1.363	1.264	1.223	1.195	1.144	1.260	1.135	1.107	1.016	0.963	0.803	0.685	0.671	0.642	0.621	0.619	0.612	0.593	0.610	0.541	0.501	0.425	0.506	0.470	0.512	0.573	0.543	0.554	0.562	0.616	0.589	0.539	0.716	0.772	0.695	0.606	0.671	0.683	0.631	0.638	0.724	0.538	0.777	0.725	0.689	0.566	0.546	0.557
650.0	39.03	39.17	38.91	29.43	21.47	20.79	20.72	22.94	25.83	30.68	34.10	36.12	36.25	36.95	43.28	19.23	11.94	8.100	7.158	47.52	463.4	142.5	2.329	1.722	1.365	1.343	1.379	1.353	1.435	1.375	1.220	1.136	1.103	1.178	1.194	1.031	1.034	1.231	0.921	0.781	0.700	0.637	0.606	0.543	0.655	0.638	0.527	0.589	0.626	0.552	0.451	0.452	0.454	0.481	0.478	0.495	0.562	0.538	0.525	0.571	0.514	0.702	0.740	0.678	0.617	0.661	0.677	0.687	0.637	0.633	0.587	0.643	0.705	0.659	0.598	0.593	0.537
