Sample:	'1
File name:	Default_20230210_105809.FD3
Run date:	'10:51:48, 02/10/2023
Operator:	dsjg
Comment:	'

Instrument
Model:	F-2700 FL Spectrophotometer
Serial number:	2198-001
ROM Version:	4J14000 07

Instrument parameters
Measurement type:	3-D scan
Data mode:	Fluorescence
EX  Start WL:	220.0 nm
EX  End WL:	600.0 nm
EX Sampling interval:	5.0 nm
EM  Start WL:	230.0 nm
EM  End WL:	650.0 nm
EM Sampling interval:	5.0 nm
Scan speed:	12000 nm/min
EX Slit:	5.0 nm
EM Slit:	5.0 nm
PMT Voltage:	700 V
Response:	Auto 
Corrected spectra:	Off
Contour interval:	50.000

Peak integration
Integration method:	Rectangular
Sensitivity:	1
Threshold:	1.000

Peaks
No.	ApexEX/EM(nm)	Height(Data)
1	250.0/445.0	 1753
2	255.0/280.0	176.2
3	270.0/300.0	424.4
4	275.0/305.0	513.8
5	275.0/355.0	753.0
6	275.0/380.0	831.6
7	275.0/605.0	40.99
8	280.0/385.0	823.1
9	280.0/620.0	34.93
10	510.0/445.0	8.296

Data points
	220.0	225.0	230.0	235.0	240.0	245.0	250.0	255.0	260.0	265.0	270.0	275.0	280.0	285.0	290.0	295.0	300.0	305.0	310.0	315.0	320.0	325.0	330.0	335.0	340.0	345.0	350.0	355.0	360.0	365.0	370.0	375.0	380.0	385.0	390.0	395.0	400.0	405.0	410.0	415.0	420.0	425.0	430.0	435.0	440.0	445.0	450.0	455.0	460.0	465.0	470.0	475.0	480.0	485.0	490.0	495.0	500.0	505.0	510.0	515.0	520.0	525.0	530.0	535.0	540.0	545.0	550.0	555.0	560.0	565.0	570.0	575.0	580.0	585.0	590.0	595.0	600.0
230.0	26.39	450.4	 1018	255.4	7.355	3.245	2.933	2.154	1.703	1.427	1.372	1.211	1.216	0.979	0.920	0.833	0.759	0.669	0.688	0.555	0.546	0.532	0.493	0.477	0.452	0.452	0.422	0.419	0.437	0.403	0.381	0.339	0.278	0.264	0.273	0.339	0.331	0.314	0.296	0.258	0.232	0.247	0.243	0.197	0.189	0.157	0.253	1.157	3.295	3.634	1.605	0.346	0.128	0.108	0.103	0.110	0.096	0.082	0.083	0.079	0.073	0.067	0.066	0.066	0.064	0.066	0.054	0.053	0.057	0.057	0.059	0.051	0.048	0.054	0.039	0.055	0.051
235.0	15.79	137.6	853.6	 1454	303.0	12.17	3.119	2.420	1.954	1.338	1.497	1.383	1.303	1.036	0.947	0.675	0.861	0.618	0.727	0.590	0.511	0.586	0.513	0.476	0.461	0.503	0.524	0.449	0.421	0.449	0.311	0.310	0.259	0.294	0.289	0.296	0.367	0.316	0.333	0.242	0.267	0.255	0.249	0.218	0.202	0.162	0.159	0.398	1.143	2.619	4.522	5.839	3.098	0.572	0.112	0.093	0.096	0.089	0.083	0.100	0.088	0.079	0.071	0.071	0.082	0.052	0.068	0.063	0.076	0.064	0.039	0.078	0.048	0.061	0.054	0.062	0.040
240.0	19.40	44.15	308.4	 1489	 1508	276.0	6.639	3.165	2.383	1.774	1.608	1.378	1.512	1.258	0.812	0.869	0.760	0.594	0.666	0.654	0.597	0.540	0.531	0.584	0.495	0.503	0.456	0.364	0.419	0.367	0.343	0.321	0.264	0.270	0.264	0.217	0.266	0.297	0.259	0.295	0.276	0.242	0.240	0.194	0.234	0.276	0.231	0.240	0.380	0.808	2.140	6.156	8.938	6.347	2.170	0.297	0.125	0.098	0.082	0.099	0.091	0.072	0.044	0.050	0.072	0.057	0.069	0.058	0.075	0.039	0.050	0.080	0.054	0.063	0.039	0.061	0.044
245.0	26.56	44.80	88.12	621.8	 1921	 2179	165.8	4.798	3.003	2.083	1.852	2.076	1.701	1.534	1.185	0.819	0.948	0.771	0.630	0.757	0.662	0.551	0.623	0.556	0.418	0.477	0.415	0.394	0.488	0.423	0.379	0.306	0.334	0.214	0.273	0.184	0.226	0.264	0.312	0.303	0.302	0.229	0.215	0.220	0.221	0.232	0.306	0.259	0.240	0.269	0.594	2.008	5.489	9.796	10.07	5.279	1.485	0.137	0.084	0.085	0.113	0.071	0.064	0.052	0.070	0.087	0.074	0.050	0.070	0.064	0.054	0.059	0.069	0.053	0.051	0.052	0.041
250.0	15.32	48.88	84.26	171.1	729.4	 2580	 2253	569.3	21.79	2.912	2.562	2.073	1.806	1.595	1.267	1.081	0.985	0.866	0.745	0.766	0.664	0.615	0.639	0.551	0.491	0.559	0.460	0.423	0.476	0.439	0.479	0.345	0.299	0.215	0.234	0.176	0.213	0.210	0.241	0.294	0.320	0.230	0.254	0.223	0.220	0.174	0.247	0.289	0.370	0.404	0.360	0.620	1.446	3.238	5.858	8.381	10.56	9.263	4.748	1.406	0.178	0.088	0.085	0.080	0.090	0.109	0.077	0.060	0.062	0.047	0.073	0.074	0.059	0.063	0.051	0.050	0.041
255.0	7.667	19.48	71.84	128.9	185.0	718.1	 2158	 2302	238.1	21.01	3.831	2.619	2.376	1.623	1.401	1.133	1.029	0.944	0.770	0.806	0.616	0.593	0.596	0.621	0.492	0.525	0.481	0.493	0.537	0.420	0.453	0.450	0.214	0.263	0.270	0.199	0.240	0.209	0.190	0.190	0.254	0.254	0.259	0.243	0.182	0.220	0.208	0.191	0.194	0.358	0.527	0.703	0.631	0.826	1.443	2.105	3.973	9.234	14.78	15.52	7.433	1.513	0.147	0.091	0.119	0.094	0.068	0.093	0.059	0.059	0.069	0.063	0.066	0.061	0.038	0.053	0.075
260.0	9.698	9.090	34.29	116.3	122.0	179.2	753.6	 2467	 1899	194.0	10.05	3.602	2.816	1.970	1.853	1.201	1.170	0.870	0.801	0.940	0.767	0.574	0.682	0.547	0.526	0.566	0.490	0.542	0.497	0.450	0.386	0.406	0.350	0.326	0.250	0.299	0.235	0.218	0.227	0.185	0.233	0.293	0.283	0.314	0.222	0.188	0.194	0.193	0.185	0.192	0.404	0.715	0.807	0.600	0.490	0.624	1.017	2.677	6.821	15.18	19.23	14.78	5.115	0.654	0.150	0.109	0.096	0.112	0.053	0.068	0.060	0.064	0.070	0.041	0.037	0.051	0.068
265.0	6.951	6.826	13.59	64.90	139.9	98.33	187.4	952.5	 2911	 1655	152.5	5.840	3.801	2.495	1.865	1.632	1.304	1.071	0.961	0.947	0.850	0.626	0.715	0.710	0.625	0.573	0.454	0.531	0.471	0.449	0.396	0.419	0.352	0.305	0.232	0.259	0.207	0.216	0.275	0.219	0.188	0.227	0.308	0.277	0.242	0.260	0.177	0.191	0.205	0.154	0.285	0.355	0.658	0.819	0.685	0.346	0.353	0.721	1.749	4.705	10.86	19.65	21.18	12.40	2.933	0.233	0.107	0.106	0.105	0.079	0.072	0.076	0.089	0.048	0.049	0.054	0.048
270.0	9.714	10.89	11.09	22.85	73.37	132.8	113.8	238.4	 1023	 2444	 2465	660.2	38.64	3.836	2.514	1.970	1.725	1.477	1.110	1.046	0.840	0.816	0.658	0.635	0.649	0.576	0.554	0.515	0.563	0.509	0.443	0.398	0.349	0.366	0.244	0.260	0.244	0.249	0.223	0.226	0.214	0.193	0.241	0.244	0.270	0.240	0.236	0.207	0.226	0.177	0.183	0.181	0.271	0.430	0.675	0.688	0.734	0.529	0.570	1.189	2.689	6.018	10.62	15.65	18.46	16.28	9.393	2.975	0.284	0.093	0.077	0.098	0.103	0.060	0.054	0.070	0.063
275.0	18.54	22.01	22.33	16.99	25.98	74.41	154.4	137.7	250.1	661.7	 2086	 3825	981.3	42.52	3.567	2.518	1.873	1.571	1.273	1.140	0.924	0.968	0.843	0.628	0.701	0.651	0.522	0.459	0.560	0.503	0.473	0.397	0.379	0.356	0.272	0.305	0.235	0.322	0.212	0.232	0.208	0.200	0.195	0.197	0.264	0.334	0.227	0.251	0.228	0.230	0.210	0.203	0.169	0.248	0.271	0.360	0.730	1.086	0.963	0.635	0.746	1.492	2.602	3.773	6.082	12.49	22.30	24.48	13.48	2.531	0.150	0.120	0.081	0.071	0.108	0.071	0.069
280.0	28.59	36.33	39.96	23.98	19.77	33.23	114.7	176.2	124.2	183.1	677.6	 2839	 3916	746.4	16.62	3.665	2.195	1.895	1.486	1.388	1.148	0.930	0.812	0.742	0.739	0.681	0.614	0.533	0.554	0.587	0.474	0.506	0.407	0.304	0.283	0.333	0.293	0.250	0.250	0.206	0.192	0.199	0.198	0.206	0.262	0.310	0.280	0.392	0.349	0.324	0.279	0.214	0.208	0.187	0.221	0.229	0.363	0.662	1.030	1.186	0.728	0.576	0.826	1.128	1.653	3.409	8.810	17.99	26.10	22.12	8.962	0.955	0.111	0.101	0.109	0.065	0.089
285.0	41.50	60.19	62.07	38.15	22.36	25.49	57.86	160.5	178.2	116.1	216.4	 1002	 3251	 3667	101.4	7.500	3.240	2.318	1.659	1.425	1.247	1.127	0.931	0.810	0.753	0.687	0.692	0.611	0.624	0.590	0.519	0.440	0.366	0.359	0.335	0.309	0.340	0.246	0.259	0.161	0.223	0.199	0.209	0.198	0.232	0.319	0.413	0.427	0.422	0.341	0.322	0.256	0.269	0.266	0.203	0.231	0.246	0.382	0.663	0.992	1.170	0.905	0.613	0.563	0.781	1.148	2.408	5.336	12.05	22.58	27.49	18.11	4.138	0.280	0.103	0.059	0.068
290.0	57.82	99.28	103.2	61.87	39.14	36.82	49.84	101.5	197.3	230.6	182.7	344.0	 1073	 2575	 3064	 1317	27.05	3.212	2.493	1.832	1.474	1.277	1.053	1.043	0.942	0.724	0.813	0.676	0.702	0.627	0.549	0.422	0.417	0.381	0.320	0.369	0.306	0.289	0.236	0.240	0.224	0.190	0.209	0.209	0.219	0.295	0.419	0.497	0.551	0.454	0.420	0.344	0.355	0.292	0.269	0.270	0.300	0.348	0.470	0.603	0.816	1.182	1.330	1.241	1.014	0.839	1.109	1.769	3.347	6.698	11.70	17.97	20.35	18.19	11.10	3.090	0.240
295.0	69.94	136.7	143.1	90.74	57.48	54.42	64.01	96.84	157.3	282.6	350.1	281.1	389.8	716.0	 1674	 3677	 1923	30.57	3.549	2.895	2.087	1.542	1.379	1.150	1.101	0.808	0.830	0.730	0.732	0.654	0.582	0.516	0.475	0.408	0.372	0.395	0.308	0.274	0.249	0.318	0.280	0.213	0.242	0.232	0.246	0.351	0.438	0.552	0.738	0.625	0.556	0.468	0.461	0.354	0.343	0.329	0.380	0.466	0.456	0.577	0.624	0.755	1.166	1.519	1.915	1.733	1.344	1.225	1.611	2.248	3.208	4.593	6.368	11.58	23.71	27.14	14.29
300.0	84.96	159.9	169.0	114.4	79.27	73.78	86.70	112.3	165.9	264.5	424.4	394.6	290.8	290.3	541.6	 2159	 4089	499.6	16.26	3.479	2.322	1.878	1.506	1.279	1.233	0.905	0.794	0.729	0.818	0.691	0.639	0.608	0.562	0.475	0.438	0.376	0.442	0.317	0.287	0.322	0.244	0.191	0.229	0.256	0.292	0.414	0.474	0.576	0.717	0.734	0.641	0.567	0.504	0.415	0.442	0.394	0.500	0.524	0.496	0.665	0.680	0.918	1.061	1.240	1.904	2.299	2.170	1.693	1.423	1.423	1.443	1.600	2.012	3.302	8.609	18.33	29.37
305.0	96.34	167.6	194.4	137.7	99.11	97.09	113.5	136.7	193.9	272.0	409.4	513.8	371.4	239.6	227.1	710.5	 2687	 3781	381.9	6.420	2.844	2.316	1.786	1.526	1.333	0.998	0.882	0.799	0.885	0.738	0.600	0.676	0.485	0.529	0.488	0.377	0.339	0.384	0.286	0.299	0.272	0.255	0.258	0.245	0.275	0.501	0.491	0.585	0.709	0.765	0.649	0.673	0.563	0.539	0.513	0.527	0.580	0.638	0.690	0.743	0.857	0.976	1.151	1.300	1.623	2.210	2.382	2.676	2.009	1.486	1.297	1.173	1.064	1.246	2.421	5.305	12.88
310.0	110.3	183.1	212.1	154.8	114.1	116.6	137.6	169.9	230.0	299.9	395.2	498.5	505.7	329.5	198.2	247.7	805.8	 2303	 3230	 1349	21.01	3.320	2.429	1.830	1.410	1.264	1.100	0.995	0.980	0.813	0.686	0.661	0.543	0.458	0.481	0.407	0.326	0.388	0.296	0.280	0.294	0.296	0.271	0.292	0.373	0.425	0.522	0.684	0.777	0.758	0.686	0.733	0.674	0.602	0.621	0.679	0.702	0.749	0.833	0.882	1.040	1.238	1.206	1.552	1.742	1.962	2.142	2.515	2.569	2.502	1.920	1.377	1.074	0.958	1.145	1.665	3.368
315.0	139.0	230.6	248.4	181.2	135.9	141.3	164.6	202.3	262.1	339.8	430.7	491.1	518.6	493.9	287.5	184.6	261.2	588.7	 1439	 3761	 1883	25.89	3.211	2.542	1.759	1.524	1.182	1.137	1.225	0.792	0.718	0.666	0.550	0.539	0.511	0.400	0.410	0.345	0.321	0.297	0.263	0.337	0.344	0.297	0.473	0.389	0.655	0.898	0.956	0.801	0.787	0.714	0.696	0.686	0.735	0.708	0.799	0.874	1.004	1.076	1.097	1.451	1.472	1.750	1.949	2.195	2.067	2.473	2.338	2.609	2.649	2.577	1.668	1.269	1.036	1.135	1.363
320.0	170.3	310.3	318.0	217.0	159.1	164.5	194.2	235.2	308.5	390.3	484.0	536.6	540.0	534.5	430.3	228.9	172.1	204.6	418.8	 1932	 4130	392.7	15.06	3.255	2.247	1.789	1.450	1.272	1.423	0.903	0.841	0.753	0.605	0.608	0.548	0.414	0.472	0.340	0.361	0.297	0.318	0.326	0.333	0.363	0.491	0.501	0.848	1.121	1.182	1.032	0.883	0.927	0.802	0.743	0.839	0.710	0.828	0.940	1.104	1.220	1.321	1.677	1.690	2.010	2.084	2.427	2.456	2.554	2.453	2.663	2.600	2.817	2.667	2.056	1.193	1.076	1.041
325.0	223.2	398.9	426.6	267.8	190.7	185.7	216.2	260.8	341.7	435.8	535.4	581.3	586.7	540.0	509.3	339.8	188.4	144.5	153.1	568.3	 2574	 3263	311.8	6.334	3.048	2.236	1.547	1.434	1.490	1.032	0.950	0.796	0.609	0.659	0.558	0.472	0.437	0.397	0.388	0.395	0.327	0.351	0.386	0.292	0.483	0.602	0.983	1.515	1.581	1.359	1.119	1.060	0.977	0.830	0.904	0.928	1.067	1.179	1.196	1.390	1.695	1.569	2.031	2.120	2.400	2.585	2.762	2.676	2.799	2.880	2.644	2.660	2.845	2.882	1.998	1.415	1.219
330.0	245.0	478.2	528.1	373.6	247.0	222.2	241.8	287.4	375.6	473.3	575.0	639.1	631.2	568.5	502.7	433.7	294.7	168.8	126.0	189.9	718.5	 2159	 2950	 1208	19.67	3.136	2.117	1.684	1.763	1.212	0.999	0.908	0.706	0.660	0.601	0.545	0.502	0.512	0.365	0.391	0.344	0.346	0.329	0.338	0.559	0.810	1.123	1.792	1.951	1.785	1.427	1.453	1.195	1.076	1.000	0.974	1.130	1.236	1.327	1.484	1.786	1.793	2.115	2.322	2.403	2.792	2.970	2.932	3.061	3.030	2.874	2.755	2.638	2.704	2.450	2.287	1.949
335.0	282.0	529.4	615.8	476.1	328.7	275.1	279.7	333.7	417.8	514.5	613.8	683.3	682.0	627.4	525.8	429.2	399.9	265.5	156.8	135.8	227.5	542.8	 1316	 3775	 1785	24.38	3.347	2.331	2.260	1.555	1.065	0.997	0.927	0.742	0.698	0.631	0.563	0.446	0.440	0.428	0.312	0.379	0.418	0.465	0.589	0.940	1.311	1.868	2.185	2.038	1.793	1.729	1.652	1.371	1.244	1.263	1.352	1.474	1.559	1.758	1.704	2.001	2.183	2.539	2.738	2.959	3.138	3.083	3.233	3.167	3.096	2.864	2.773	2.794	2.425	2.221	2.626
340.0	285.6	569.4	677.4	556.4	395.8	330.5	318.8	368.1	445.9	538.0	641.0	713.4	715.7	661.4	560.2	442.9	400.6	364.0	210.1	146.3	141.5	187.5	374.5	 1943	 4173	338.7	14.70	3.179	3.034	1.728	1.123	1.102	0.933	0.801	0.734	0.594	0.558	0.568	0.432	0.460	0.356	0.401	0.389	0.418	0.561	0.957	1.289	1.970	2.308	2.306	1.976	2.124	1.832	1.600	1.534	1.348	1.425	1.624	1.668	1.792	1.894	2.115	2.412	2.792	2.888	2.948	3.130	3.341	3.279	3.482	3.470	3.116	3.079	3.056	2.593	2.379	2.465
345.0	276.5	577.1	712.2	633.6	474.7	382.4	362.3	393.3	468.7	554.9	646.2	722.7	733.3	678.0	582.5	469.3	391.6	383.7	297.5	179.7	145.0	129.1	149.2	559.1	 2731	 2774	274.8	6.350	3.487	2.193	1.352	1.117	0.986	0.843	0.763	0.603	0.538	0.519	0.477	0.436	0.376	0.390	0.373	0.457	0.673	0.907	1.281	1.974	2.270	2.454	2.219	2.364	2.295	1.867	1.721	1.512	1.630	1.652	1.752	1.848	2.089	2.222	2.486	2.787	2.934	3.107	3.224	3.386	3.354	3.368	3.533	3.368	3.086	3.007	2.662	2.301	2.288
350.0	267.7	564.1	729.7	698.5	582.5	496.5	481.9	509.6	547.2	614.9	684.0	740.7	750.4	703.1	619.3	515.3	432.8	375.1	355.8	286.7	194.0	151.9	132.3	199.5	753.7	 2046	 2774	 1067	19.41	3.069	1.937	1.416	1.151	0.978	0.775	0.658	0.592	0.575	0.511	0.433	0.419	0.418	0.468	0.523	0.692	0.944	1.321	1.854	2.268	2.445	2.405	2.726	2.624	2.273	2.219	2.012	2.186	2.093	2.285	2.477	2.540	2.565	2.885	3.007	3.153	3.184	3.343	3.363	3.500	3.481	3.592	3.547	3.316	3.064	2.860	2.737	2.567
355.0	260.5	533.6	742.1	747.9	671.3	590.7	567.7	586.2	593.9	652.3	710.0	753.0	752.1	714.1	645.1	552.1	481.8	404.1	357.8	363.5	298.1	205.4	166.9	153.0	245.0	515.1	 1283	 3483	 1925	24.12	2.968	2.087	1.433	1.145	0.838	0.736	0.628	0.571	0.518	0.513	0.427	0.397	0.433	0.444	0.618	1.006	1.254	1.919	2.112	2.608	2.436	2.891	2.775	2.777	2.653	2.418	2.598	2.489	2.589	2.734	2.777	2.912	3.030	3.104	3.268	3.276	3.292	3.532	3.812	3.566	3.672	3.510	3.471	3.185	3.180	2.984	3.020
360.0	236.8	500.7	734.4	768.5	705.5	622.7	590.2	600.4	601.1	658.5	704.5	740.3	739.0	717.9	649.1	566.3	500.3	431.6	372.9	364.9	370.3	270.2	204.5	167.4	150.8	180.1	355.0	 1845	 5344	322.6	14.15	2.617	1.848	1.325	1.014	0.878	0.774	0.567	0.519	0.541	0.452	0.430	0.478	0.441	0.639	0.979	1.158	1.854	2.161	2.376	2.424	2.930	2.847	2.950	2.691	2.479	2.618	2.493	2.686	2.704	2.836	2.886	3.130	3.063	3.246	3.436	3.428	3.282	3.629	3.588	3.459	3.639	3.380	3.340	3.121	2.999	3.089
365.0	231.5	484.0	712.2	775.7	720.7	666.7	611.1	615.5	611.0	656.2	704.6	735.3	736.6	712.4	656.1	583.8	522.7	459.1	402.6	375.8	388.0	352.5	251.2	196.4	152.4	125.8	136.5	517.9	 3759	 2639	259.3	6.323	2.800	1.752	1.147	0.985	0.898	0.630	0.661	0.543	0.484	0.510	0.491	0.465	0.577	0.835	1.136	1.796	2.074	2.292	2.576	3.004	2.909	2.946	2.835	2.694	2.657	2.681	2.804	2.787	2.751	2.946	3.031	3.132	3.357	3.346	3.247	3.386	3.537	3.399	3.532	3.649	3.432	3.249	3.218	3.077	3.095
370.0	215.0	473.1	705.8	801.3	796.0	734.3	686.3	684.9	664.4	701.6	728.3	758.5	747.9	712.9	671.4	610.3	563.8	501.7	451.8	421.2	402.2	404.0	361.3	269.7	204.2	159.3	127.2	181.5	 1021	 2038	 2654	955.2	16.55	2.845	1.613	1.123	1.026	0.776	0.674	0.607	0.577	0.529	0.487	0.497	0.628	0.857	1.162	1.701	2.111	2.179	2.420	3.154	3.235	3.272	3.188	3.061	3.113	3.104	3.050	3.179	2.997	3.108	3.268	3.384	3.423	3.243	3.383	3.488	3.598	3.546	3.630	3.507	3.615	3.396	3.407	3.255	3.294
375.0	221.6	453.0	709.8	834.6	863.0	783.9	735.0	715.3	708.1	734.9	774.4	804.0	780.5	726.9	682.1	630.4	596.4	544.3	505.0	481.4	450.8	438.6	449.1	397.0	299.0	240.8	192.8	163.5	313.2	521.7	 1288	 3252	 1387	21.19	2.845	1.589	1.238	1.011	0.800	0.607	0.531	0.510	0.586	0.541	0.667	0.895	1.229	1.619	2.043	2.238	2.584	3.231	3.394	3.679	3.428	3.257	3.322	3.276	3.177	3.160	3.235	3.082	3.371	3.677	3.536	3.578	3.636	3.695	3.685	3.508	3.655	3.551	3.639	3.612	3.448	3.434	3.530
380.0	214.5	435.9	701.3	861.5	906.1	825.4	750.0	732.9	719.5	755.6	794.8	831.6	813.5	735.5	684.7	634.8	607.4	565.9	541.9	517.7	494.6	474.3	470.3	474.1	387.7	308.6	258.5	205.1	200.2	213.2	381.8	 1785	 3337	273.6	12.34	2.088	1.346	1.101	0.855	0.704	0.654	0.576	0.628	0.565	0.709	0.865	1.087	1.636	2.025	2.252	2.417	3.259	3.591	3.778	3.692	3.410	3.335	3.407	3.323	3.203	3.338	3.201	3.446	3.531	3.532	3.711	3.692	3.978	4.197	3.864	3.722	3.555	3.820	3.534	3.554	3.538	3.585
385.0	216.7	435.3	685.8	846.7	909.4	847.4	765.0	734.2	713.5	750.6	785.7	821.1	823.1	731.3	683.5	637.2	616.8	583.5	559.0	540.5	522.7	498.6	479.9	481.7	451.4	355.9	295.0	236.3	196.4	170.7	175.9	519.4	 2334	 2226	213.9	4.438	1.969	1.365	1.021	0.807	0.661	0.579	0.648	0.625	0.623	0.945	1.123	1.646	2.005	2.216	2.513	3.341	3.538	3.842	3.596	3.229	3.378	3.456	3.367	3.431	3.199	3.227	3.312	3.567	3.494	3.602	3.680	3.824	4.043	3.979	3.514	3.729	3.730	3.582	3.430	3.586	3.699
390.0	215.9	424.7	677.4	833.9	908.2	867.3	810.6	780.9	730.3	737.3	765.6	785.8	792.0	726.4	681.5	647.0	629.5	603.8	578.6	564.9	546.9	526.2	501.0	482.0	463.1	418.4	330.8	263.7	212.9	169.0	135.6	179.6	644.8	 1684	 2122	745.6	13.09	2.199	1.361	1.029	0.827	0.700	0.628	0.656	0.693	0.840	1.076	1.598	1.944	2.272	2.444	3.162	3.571	3.863	3.607	3.583	3.649	3.663	3.610	3.536	3.384	3.391	3.399	3.487	3.540	3.518	3.611	3.750	3.796	3.741	3.637	3.652	3.711	3.582	3.591	3.480	3.678
395.0	212.3	412.8	661.5	843.0	926.8	914.3	892.4	848.6	765.9	747.1	757.9	784.8	775.4	723.1	687.1	651.9	643.5	622.5	606.2	594.0	571.6	556.6	538.7	514.0	479.7	460.6	416.8	323.0	258.2	200.3	154.9	125.0	199.3	416.0	 1031	 2554	 1084	16.85	2.241	1.353	1.031	0.901	0.674	0.666	0.692	0.873	1.090	1.642	1.951	2.172	2.538	3.226	3.694	3.757	3.839	3.873	3.905	4.242	4.034	3.809	3.618	3.616	3.320	3.476	3.487	3.434	3.553	3.706	3.935	3.822	3.529	3.810	3.730	3.673	3.746	3.691	4.010
400.0	207.8	415.1	660.9	851.4	957.9	952.4	958.7	906.9	782.6	757.4	761.9	782.7	778.6	718.4	690.1	659.4	645.3	630.5	615.1	605.9	590.5	576.5	563.0	538.9	503.7	477.7	464.2	385.8	307.2	242.4	185.4	134.1	115.4	137.5	278.4	 1417	 2613	232.3	9.541	2.026	1.306	0.981	0.817	0.751	0.771	0.961	1.173	1.576	1.997	2.318	2.649	3.404	3.942	4.011	4.092	4.020	4.203	4.265	4.446	4.116	3.788	3.706	3.499	3.518	3.535	3.473	3.590	3.764	3.824	3.858	3.646	3.706	3.732	3.636	3.745	3.657	3.831
405.0	210.6	420.3	660.1	852.1	977.9	997.2	 1027	961.3	815.5	757.1	756.4	775.6	775.1	715.4	687.0	662.8	647.4	635.6	625.4	613.4	596.9	582.1	573.2	555.5	518.8	486.6	466.4	433.7	358.8	278.1	216.6	156.1	112.9	88.27	100.5	394.1	 1789	 1876	178.2	4.286	1.883	1.213	0.894	0.754	0.832	0.927	1.151	1.629	1.996	2.205	2.538	3.403	3.699	3.996	4.014	4.097	4.471	4.531	4.755	4.421	4.044	3.781	3.581	3.592	3.576	3.428	3.561	3.553	3.847	3.734	3.728	3.548	3.746	3.716	3.905	3.731	3.873
410.0	211.8	417.5	660.7	842.6	 1001	 1071	 1126	 1068	872.8	763.7	744.1	755.4	755.4	713.3	691.0	664.9	651.6	639.9	633.9	614.3	596.9	581.7	576.3	563.3	534.5	503.1	468.8	441.7	419.6	323.1	248.2	185.4	134.0	96.42	76.54	126.5	484.3	 1353	 1692	612.7	11.46	2.236	1.421	1.055	0.916	1.025	1.233	1.637	2.078	2.193	2.546	3.445	3.800	4.216	4.323	4.402	4.872	5.035	5.169	4.825	4.519	3.811	3.622	3.484	3.454	3.360	3.437	3.310	3.517	3.675	3.684	3.636	3.515	3.698	3.784	3.806	3.951
415.0	229.1	412.8	662.7	856.3	 1044	 1156	 1276	 1204	930.0	786.2	748.9	742.3	739.5	705.1	690.0	670.8	658.2	643.5	633.4	615.6	598.5	584.1	574.5	569.1	546.0	518.4	484.5	447.5	442.1	381.0	288.8	217.5	161.1	119.3	89.24	80.93	146.0	333.1	814.2	 1964	221.3	15.45	3.204	1.802	1.312	1.221	1.388	1.568	1.978	2.197	2.679	3.490	4.067	4.391	4.628	4.857	5.334	5.621	5.669	5.372	4.805	4.145	3.801	3.416	3.478	3.498	3.211	3.353	3.399	3.729	3.721	3.664	3.525	3.813	3.664	3.871	3.867
420.0	217.8	423.3	677.6	890.1	 1086	 1227	 1370	 1293	972.2	801.4	756.1	737.0	734.0	709.2	687.2	666.7	658.0	647.9	634.2	611.8	589.3	572.3	574.0	567.0	550.6	529.2	496.5	458.7	446.0	404.2	334.6	244.9	182.9	137.1	105.2	81.41	81.48	109.7	221.6	 1073	 1769	208.0	12.11	3.389	1.993	1.330	1.384	1.664	2.089	2.309	2.605	3.484	4.119	4.441	4.957	5.093	5.726	6.010	6.245	5.851	4.969	4.285	3.865	3.558	3.522	3.466	3.207	3.438	3.393	3.518	3.499	3.478	3.700	3.635	3.731	3.826	3.777
425.0	230.8	433.4	686.5	913.0	 1132	 1282	 1458	 1386	 1020	815.6	763.6	741.0	732.5	702.4	686.1	665.2	654.7	645.9	638.5	613.6	580.8	567.7	567.2	563.4	553.9	535.1	508.1	474.4	459.9	406.2	366.5	277.1	205.0	156.8	123.4	97.18	81.08	75.45	90.24	311.5	 1350	 1624	164.7	8.031	3.376	1.839	1.613	1.771	2.061	2.511	2.568	3.576	4.143	4.801	5.044	5.326	6.132	6.647	6.791	6.270	5.328	4.628	4.013	3.787	3.509	3.197	3.396	3.277	3.659	3.376	3.439	3.682	3.756	3.494	3.871	3.756	3.875
430.0	234.5	435.8	686.7	933.5	 1158	 1372	 1568	 1499	 1081	845.7	773.9	746.1	730.2	707.9	686.3	670.4	655.9	648.9	642.9	609.0	573.8	558.3	560.8	560.2	553.1	536.4	515.7	485.6	472.8	416.1	375.7	321.0	246.4	187.2	154.3	127.9	111.6	97.76	92.50	136.9	410.3	 1114	 1388	490.1	13.61	3.353	2.075	2.080	2.281	2.418	2.599	3.827	4.343	5.011	5.241	5.758	6.535	7.157	7.322	6.768	5.599	4.884	4.104	3.774	3.650	3.444	3.418	3.319	3.539	3.483	3.385	3.527	3.712	3.537	3.762	3.864	4.008
435.0	254.5	446.1	708.6	970.0	 1201	 1430	 1690	 1604	 1139	872.8	791.9	752.1	715.8	703.9	688.2	671.0	654.7	651.7	638.3	600.1	560.8	542.7	542.6	549.2	547.1	535.3	520.5	493.2	484.0	428.9	381.7	335.0	289.0	223.2	180.5	156.5	141.0	125.5	118.4	122.2	175.0	327.2	705.6	 1669	209.1	14.30	3.135	2.416	2.447	2.521	2.830	3.826	4.467	4.998	5.349	5.946	7.145	7.780	7.838	7.384	5.944	4.906	4.166	3.880	3.532	3.582	3.334	3.447	3.526	3.578	3.337	3.575	3.609	3.692	3.895	3.883	4.148
440.0	267.5	438.2	701.1	977.9	 1204	 1466	 1738	 1670	 1180	884.2	794.6	750.8	713.8	700.3	681.4	664.7	650.5	645.7	631.6	596.5	547.7	526.7	532.2	538.4	540.9	528.0	513.6	497.1	490.3	438.4	387.4	337.6	300.5	249.1	200.5	172.5	158.2	142.2	133.2	127.2	129.5	155.0	231.6	 1011	 1600	184.2	6.212	2.890	2.744	2.539	2.903	3.943	4.387	4.843	5.675	6.202	7.133	7.635	7.977	7.515	6.141	4.998	4.294	3.875	3.672	3.606	3.471	3.305	3.528	3.452	3.512	3.421	3.462	3.718	3.718	3.802	4.073
445.0	320.2	452.0	705.0	967.5	 1223	 1481	 1753	 1692	 1183	885.0	782.2	738.5	702.8	688.9	668.2	654.7	641.8	634.3	625.6	584.1	533.6	512.2	515.8	525.0	527.6	521.1	508.3	494.1	486.9	437.6	389.3	336.1	294.2	262.3	217.0	181.2	164.9	148.8	137.3	130.6	121.9	117.8	114.4	311.9	 1303	 1367	24.69	3.637	2.821	2.873	2.923	4.132	4.344	4.927	5.844	6.264	7.296	7.884	8.296	7.566	6.243	5.104	4.180	3.948	3.659	3.309	3.352	3.315	3.498	3.376	3.349	3.521	3.409	3.634	3.671	3.793	4.190
450.0	341.9	535.1	689.5	946.0	 1218	 1463	 1748	 1692	 1174	866.8	764.7	713.3	679.2	658.4	638.5	627.7	615.6	606.9	599.6	553.3	505.4	484.4	490.1	497.1	500.9	496.3	488.4	476.9	475.0	431.0	387.9	334.7	287.2	255.1	229.0	191.9	167.3	149.8	138.9	128.7	118.2	106.7	87.56	110.0	369.0	 1013	 1186	401.2	9.185	3.163	3.041	4.066	4.569	5.051	5.702	6.064	7.079	7.903	8.195	7.595	6.124	4.942	4.279	3.891	3.493	3.342	3.378	3.240	3.261	3.242	3.095	3.250	3.420	3.496	3.387	3.703	3.832
455.0	275.4	710.0	736.3	922.8	 1169	 1409	 1684	 1626	 1127	838.0	732.7	672.7	647.2	615.4	603.0	592.0	578.3	570.0	561.2	519.3	471.0	452.1	455.4	461.3	469.7	464.2	460.4	453.3	451.0	416.0	374.3	326.0	279.4	242.8	220.4	200.9	171.9	148.8	136.3	124.7	111.9	99.68	77.92	63.44	103.7	241.4	605.0	 1413	174.5	9.819	3.257	4.131	4.420	5.012	5.408	6.134	6.753	7.637	7.822	7.168	5.960	4.820	4.121	3.638	3.710	3.440	3.063	2.995	3.047	3.135	2.912	3.002	3.305	3.169	3.422	3.408	3.600
460.0	233.0	766.2	869.6	894.0	 1119	 1347	 1630	 1572	 1098	800.2	699.2	647.8	610.0	587.2	570.3	560.6	553.2	538.8	532.6	492.1	442.0	421.7	426.9	432.3	440.9	438.4	432.9	432.0	428.0	394.8	362.4	318.3	274.2	234.4	209.2	198.1	176.3	148.0	130.9	120.1	107.7	94.36	74.02	52.42	45.45	67.05	155.5	840.2	 1261	133.7	5.603	4.205	4.411	4.725	5.117	5.733	6.584	7.311	7.515	6.994	5.774	4.533	4.227	3.472	3.327	3.120	3.103	3.094	2.938	2.925	2.906	2.948	3.038	2.929	3.273	3.368	3.330
465.0	204.4	635.8	 1096	900.4	 1058	 1295	 1549	 1505	 1050	768.0	670.2	619.0	577.6	557.0	537.7	531.0	524.4	512.5	502.2	463.1	417.5	398.3	398.9	405.7	413.5	412.2	407.5	406.6	405.7	379.8	345.9	307.4	265.4	227.8	200.2	184.2	175.5	150.1	127.9	117.1	104.4	90.10	71.63	49.93	32.97	29.20	45.04	233.5	 1057	 1018	19.41	4.946	4.447	4.699	4.759	5.417	6.328	6.673	7.385	6.933	5.509	4.311	3.891	3.297	3.218	2.875	2.814	2.860	2.899	2.825	2.767	2.787	2.863	2.783	2.904	3.270	3.470
470.0	180.5	417.6	 1082	 1216	 1005	 1193	 1418	 1378	976.1	711.9	626.4	567.9	531.7	508.5	492.7	486.2	478.5	467.7	458.7	419.4	376.5	359.1	361.5	369.2	375.2	375.4	373.3	371.2	373.1	350.0	322.7	284.4	247.9	215.5	190.1	170.2	158.5	147.2	126.4	109.3	96.42	84.11	67.34	47.89	31.58	23.08	21.74	61.47	293.2	771.5	873.6	313.3	9.934	4.584	4.838	5.213	5.875	6.479	6.872	6.378	5.098	4.216	3.664	3.241	2.946	2.785	2.665	2.700	2.561	2.583	2.530	2.580	2.752	2.681	2.699	2.910	2.980
475.0	172.3	333.2	724.3	 1554	 1102	 1069	 1280	 1254	889.9	657.8	573.8	523.8	481.7	456.1	446.8	437.7	428.2	418.3	411.0	377.8	337.9	322.3	323.9	329.3	331.6	336.6	337.1	334.8	338.0	318.1	294.5	261.6	230.7	202.0	176.6	157.9	142.4	132.9	125.4	105.5	89.36	77.75	62.23	47.39	31.74	23.20	18.57	24.19	74.04	181.9	423.3	 1023	165.6	10.65	4.585	4.831	5.365	5.933	6.290	5.889	4.724	3.879	3.351	3.080	2.642	2.582	2.614	2.386	2.465	2.321	2.315	2.271	2.552	2.389	2.590	2.610	2.637
480.0	167.9	280.4	526.1	 1448	 1387	 1008	 1189	 1156	820.0	613.3	542.6	485.0	451.5	426.5	410.7	407.6	395.9	388.8	378.3	347.7	310.9	294.6	296.0	303.0	306.8	310.8	310.0	309.5	311.8	294.6	273.3	244.9	215.6	189.8	168.2	149.1	134.0	120.9	116.9	105.1	86.70	73.48	60.27	46.44	32.53	24.04	18.71	17.26	25.88	48.32	108.8	571.1	927.8	139.2	6.420	4.854	5.133	5.516	5.924	5.148	4.230	3.677	3.057	2.843	2.545	2.331	2.482	2.252	2.131	2.292	2.238	2.156	2.264	2.280	2.422	2.449	2.324
485.0	160.0	271.6	437.1	 1045	 1682	 1075	 1097	 1076	776.2	578.7	508.3	454.2	419.7	400.6	386.4	379.7	369.9	359.8	351.7	322.3	289.8	272.1	273.4	281.8	283.8	289.1	287.8	286.1	290.7	276.0	254.5	231.3	203.6	179.6	158.6	142.0	126.9	113.8	107.4	102.2	86.16	71.49	58.13	44.68	33.26	25.27	19.75	16.39	15.81	19.00	31.23	154.1	748.5	820.2	23.92	5.304	4.802	5.451	5.589	4.909	3.951	3.524	2.922	2.715	2.435	2.401	2.298	2.217	2.079	2.110	2.109	2.076	2.037	2.191	2.098	2.184	2.327
490.0	142.1	250.1	391.2	666.0	 1449	 1650	 1009	968.8	706.7	527.4	463.2	423.5	385.0	362.9	349.0	345.1	331.8	324.4	316.9	291.1	259.9	245.7	246.3	251.5	254.9	259.5	258.6	257.3	261.4	252.1	234.3	211.7	188.2	166.6	147.3	132.2	117.9	106.5	97.00	91.89	84.70	70.29	55.52	43.71	34.33	26.81	21.74	18.04	15.14	13.60	14.80	41.03	201.3	564.0	728.5	277.9	10.60	5.144	5.185	4.554	3.740	3.131	2.538	2.548	2.284	2.062	2.102	2.015	1.876	1.942	1.961	1.874	1.868	2.025	1.889	2.052	2.169
495.0	127.0	236.7	362.4	519.6	890.9	 2195	 1133	859.9	631.9	476.7	420.5	383.9	348.9	326.7	312.6	305.2	292.5	287.5	280.8	257.4	228.4	217.2	219.0	221.4	223.4	227.4	228.4	227.6	230.5	224.3	209.6	191.5	170.5	151.9	135.1	122.1	109.7	98.48	88.43	81.66	75.03	70.00	56.08	42.95	34.23	27.63	22.70	19.09	16.05	13.52	12.24	16.87	51.61	134.2	399.7	928.4	178.3	11.22	4.918	4.158	3.444	2.827	2.577	2.300	2.087	1.945	1.851	1.751	1.778	1.702	1.744	1.694	1.824	1.644	1.774	1.774	1.929
500.0	107.9	224.2	334.3	448.8	639.4	 1878	 1464	789.1	569.7	436.8	390.9	357.6	320.0	299.1	284.8	274.6	264.2	258.2	250.9	230.7	207.6	195.4	198.3	198.7	200.7	204.1	204.7	206.4	208.8	202.8	192.6	174.8	156.9	140.2	124.9	113.2	102.0	91.85	82.46	74.95	67.84	65.59	56.46	42.95	34.29	27.93	23.51	19.76	16.94	14.04	12.30	12.21	18.87	36.37	103.2	522.4	887.2	146.1	6.573	3.927	3.447	2.600	2.422	2.204	1.909	1.726	1.720	1.573	1.602	1.486	1.579	1.638	1.546	1.497	1.636	1.554	1.699
505.0	93.97	196.9	307.5	399.8	520.0	 1187	 1704	844.6	517.0	397.5	356.4	323.6	295.8	274.8	259.1	251.1	240.8	235.6	226.7	208.9	187.4	176.0	178.3	180.7	185.2	184.6	186.2	186.0	190.7	182.1	174.7	158.7	142.8	129.4	114.9	104.3	95.58	85.11	76.95	69.29	63.07	58.69	54.95	44.26	34.10	28.00	23.66	20.37	17.62	14.85	12.95	11.30	11.58	14.73	28.92	141.9	685.3	737.9	25.42	4.088	3.067	2.477	2.082	2.064	1.721	1.522	1.632	1.491	1.407	1.366	1.292	1.362	1.464	1.461	1.586	1.530	1.628
510.0	83.79	165.2	269.0	358.6	432.0	665.8	 1360	 1250	486.6	351.4	314.8	285.8	259.7	239.8	228.3	218.9	208.4	202.6	196.1	180.7	162.3	152.5	154.1	156.3	160.1	159.7	161.2	162.2	163.1	159.9	152.7	138.9	125.4	113.7	102.9	92.70	84.35	76.11	69.58	62.80	56.68	51.40	47.87	43.81	35.15	27.94	23.91	20.62	17.76	15.32	13.52	11.74	10.46	10.46	12.86	37.20	183.7	493.5	578.9	108.0	8.977	2.385	1.996	1.833	1.631	1.572	1.452	1.340	1.304	1.278	1.254	1.305	1.330	1.312	1.305	1.343	1.429
515.0	71.95	130.9	228.1	323.9	364.7	465.4	769.0	 1452	679.7	309.5	275.2	250.4	224.7	207.3	195.2	186.4	178.5	172.5	165.7	153.4	138.5	131.4	132.0	133.7	136.8	137.2	137.2	139.0	138.4	137.0	130.9	120.0	109.4	99.31	89.33	81.31	74.47	67.60	61.96	56.46	50.30	45.52	40.92	39.42	35.71	28.60	23.45	20.26	17.34	15.64	13.85	12.22	10.51	9.687	9.338	14.16	46.09	116.2	277.4	630.1	173.3	8.055	1.854	1.637	1.548	1.436	1.350	1.103	1.187	1.140	1.017	1.157	1.084	1.154	1.124	1.201	1.171
520.0	67.57	114.6	193.3	288.8	330.2	384.8	508.0	 1145	 1026	299.5	252.2	228.0	206.4	186.5	173.0	165.4	159.1	154.1	146.4	136.6	123.3	117.9	118.0	117.8	120.6	121.0	121.8	122.2	124.6	121.7	116.2	107.1	96.67	87.92	81.08	74.01	66.94	61.73	55.90	50.95	46.47	41.54	37.20	35.04	34.03	29.58	22.85	20.22	17.49	15.23	13.68	12.22	10.75	9.469	8.703	9.055	15.91	30.57	71.06	357.9	623.6	128.2	3.353	1.709	1.514	1.328	1.198	1.001	1.015	1.100	1.005	1.052	1.031	0.960	0.990	1.125	1.035
525.0	62.50	105.9	164.0	250.0	313.3	343.4	402.8	723.4	 1244	431.1	228.9	206.1	186.0	169.7	158.2	151.4	142.9	136.8	132.5	121.7	112.0	104.7	103.7	106.1	107.4	107.9	108.4	109.9	110.8	109.2	104.0	96.88	87.67	79.79	74.10	66.75	61.07	56.26	50.89	47.38	41.95	38.87	34.50	30.88	30.70	29.23	24.06	19.70	16.70	14.98	13.34	12.16	10.62	9.487	8.723	8.114	9.107	11.83	20.13	96.68	448.9	530.7	23.47	2.116	1.578	1.158	1.131	1.147	0.988	1.026	0.948	0.958	0.972	0.905	0.947	1.039	0.919
530.0	49.33	95.00	143.2	207.4	271.2	303.0	329.5	423.0	913.1	873.6	251.4	178.9	162.3	151.2	137.6	131.6	123.5	118.2	113.4	105.9	95.54	90.47	90.44	90.88	91.57	92.93	92.72	94.31	95.23	93.81	89.39	84.68	76.24	69.85	64.36	58.67	54.05	49.49	45.82	41.94	37.61	34.32	30.95	28.15	26.16	26.15	24.11	19.61	16.24	14.10	12.88	11.50	10.42	9.585	8.686	7.792	7.451	7.656	8.806	25.33	118.3	343.0	406.0	103.2	6.830	1.279	1.122	1.025	0.948	0.901	0.833	0.812	0.839	0.814	0.791	0.847	0.772
535.0	46.13	81.48	126.3	164.3	222.2	267.9	277.6	301.7	433.7	992.1	543.3	155.4	142.8	131.4	120.0	111.7	105.3	100.9	97.27	88.51	80.28	76.61	77.06	76.34	76.51	77.84	78.86	80.43	80.32	79.24	76.23	71.86	65.20	59.87	55.04	50.70	46.64	42.19	40.12	36.46	32.83	30.64	27.95	25.29	23.21	21.90	21.61	20.31	16.39	13.60	12.24	10.95	10.06	8.971	8.526	7.714	7.213	6.905	6.606	9.533	29.66	79.91	183.7	439.0	157.7	6.065	1.249	0.995	0.830	0.842	0.773	0.758	0.744	0.752	0.679	0.719	0.731
540.0	39.27	73.36	107.6	148.5	185.7	237.0	250.7	246.6	251.3	721.5	893.6	173.2	128.6	114.4	106.2	98.80	92.14	89.41	86.13	77.27	71.81	67.63	68.32	68.04	67.95	68.93	70.30	69.87	71.44	70.39	67.35	62.89	58.00	53.01	49.61	44.50	42.15	38.40	36.08	32.54	30.02	28.40	25.17	22.73	21.60	19.55	18.95	19.26	16.52	13.32	11.66	10.62	9.361	8.838	8.334	7.895	7.192	6.456	5.788	6.104	10.03	20.65	46.00	237.6	439.1	26.99	2.563	1.100	0.851	0.841	0.722	0.689	0.696	0.738	0.651	0.683	0.642
545.0	33.41	61.85	93.65	132.1	163.2	203.0	224.0	213.4	193.5	396.9	 1002	348.7	115.6	106.4	96.07	89.07	85.29	79.32	75.59	69.57	63.01	60.90	61.02	60.86	60.59	60.66	61.63	63.38	63.75	62.02	60.13	56.16	52.75	47.40	44.37	40.16	37.52	34.89	32.61	29.76	27.67	25.51	23.37	21.28	19.54	18.00	16.61	17.37	16.62	13.61	11.32	10.03	9.002	8.306	8.039	7.762	7.397	6.757	5.817	5.224	5.845	7.569	12.72	62.59	304.5	351.6	23.23	1.409	1.022	0.789	0.678	0.699	0.646	0.679	0.571	0.610	0.555
550.0	31.62	55.65	85.24	111.3	133.4	164.1	198.8	184.9	156.3	195.2	637.8	724.0	134.1	90.71	83.95	76.87	71.78	67.83	64.24	59.40	54.29	52.26	51.57	51.85	52.30	51.71	53.04	53.42	53.75	52.79	51.68	48.78	44.52	40.67	37.73	34.83	32.50	30.10	28.31	26.19	24.07	22.26	20.68	18.37	17.23	15.92	14.65	14.31	14.48	13.45	11.06	9.681	8.335	7.963	7.477	7.312	6.993	6.450	5.974	4.999	4.892	4.850	5.590	16.31	79.57	224.3	245.7	96.31	6.076	0.932	0.724	0.619	0.589	0.578	0.486	0.503	0.495
555.0	28.39	47.26	67.25	92.94	108.1	127.0	161.0	161.8	129.2	127.0	259.7	699.2	438.2	78.95	70.92	64.65	58.88	56.23	53.48	49.50	46.27	43.02	43.17	42.34	42.86	43.48	43.57	43.42	44.65	44.13	41.70	39.58	36.92	34.34	31.26	28.81	27.36	25.22	23.55	21.89	20.49	18.58	17.58	16.16	15.12	14.35	12.99	11.88	11.50	11.79	11.16	8.965	7.707	7.372	6.900	6.758	6.594	6.059	5.736	5.132	4.731	4.303	4.114	6.123	19.95	52.56	115.0	307.5	133.9	4.887	0.937	0.658	0.613	0.473	0.458	0.456	0.402
560.0	22.41	39.13	59.14	77.47	92.02	108.0	132.4	145.1	114.9	101.1	129.0	445.4	691.5	104.2	61.37	57.13	51.10	47.90	44.26	42.01	38.48	36.90	36.90	36.33	36.49	37.24	37.43	37.20	37.44	38.00	35.93	34.26	32.02	29.28	27.02	25.01	23.74	22.10	20.17	18.99	17.67	16.22	15.19	13.76	13.31	12.28	11.55	10.63	9.981	9.958	10.22	9.070	7.292	6.815	6.502	6.370	6.056	5.782	5.421	5.074	4.554	4.022	3.822	3.935	7.036	13.90	29.16	158.6	300.8	27.18	1.910	0.712	0.569	0.448	0.409	0.380	0.341
565.0	18.68	34.61	55.52	67.62	81.97	95.24	109.2	127.0	103.1	86.92	88.72	224.8	698.6	278.9	53.31	49.50	44.17	40.64	38.64	36.03	32.29	31.79	31.46	31.01	30.96	31.79	31.37	31.68	32.61	31.91	30.68	29.45	27.14	25.50	23.14	21.73	20.26	18.46	17.39	16.37	15.67	14.11	13.12	11.86	11.28	10.72	9.860	9.273	8.312	8.238	8.882	8.449	6.994	6.255	5.833	5.683	5.506	5.357	4.947	5.054	4.184	3.762	3.757	3.571	3.949	5.451	8.648	41.66	193.3	209.2	21.38	0.998	0.583	0.436	0.373	0.340	0.336
570.0	18.76	32.76	47.73	55.70	64.08	72.49	84.85	97.22	91.69	70.31	69.29	98.95	388.9	546.4	79.96	39.33	35.81	32.17	30.21	28.57	25.46	24.61	24.71	24.73	25.04	24.70	24.77	25.11	25.35	24.75	24.27	23.26	21.33	19.54	18.55	16.98	16.27	14.92	14.05	13.25	12.22	11.44	10.53	9.712	9.257	8.811	8.228	7.488	6.962	6.467	6.788	6.838	6.285	5.688	5.116	5.110	4.727	4.557	4.415	4.169	3.884	3.539	3.420	3.136	3.219	3.416	3.881	11.20	49.77	133.9	171.3	73.66	3.469	0.368	0.348	0.320	0.292
575.0	18.70	28.58	37.25	44.37	49.27	54.19	62.15	72.01	75.88	63.68	53.75	58.46	140.3	453.6	341.8	32.57	27.43	25.03	22.88	22.41	19.69	18.58	19.08	19.16	19.40	18.76	18.66	19.19	19.07	18.91	18.30	17.27	16.21	15.37	13.72	12.85	12.30	11.58	10.79	10.08	9.648	8.940	8.145	7.708	7.129	6.950	6.206	5.703	5.621	5.166	5.094	4.937	5.176	5.133	4.272	4.085	3.876	3.714	3.541	3.470	3.158	3.200	2.936	2.705	2.631	2.741	2.866	4.327	12.67	31.41	70.07	180.1	27.67	2.676	0.372	0.284	0.260
580.0	14.14	23.39	36.51	35.82	39.04	43.81	52.73	55.88	63.67	61.38	48.41	44.82	62.02	260.9	515.2	64.84	23.39	19.84	19.40	18.00	16.15	15.16	15.79	15.03	16.09	14.99	15.46	14.95	15.34	15.71	15.31	13.82	13.32	12.20	11.07	10.29	9.836	9.281	8.771	8.005	7.669	7.302	6.700	6.324	5.848	5.728	5.036	4.973	4.535	4.394	4.011	4.054	4.241	4.510	3.837	3.539	3.322	3.153	3.169	3.018	2.758	2.705	2.509	2.379	2.293	2.358	2.387	2.424	4.037	7.971	17.31	87.71	156.5	24.08	0.907	0.250	0.223
585.0	13.73	22.21	31.18	34.39	34.60	38.72	44.76	45.65	50.20	59.57	47.00	40.88	39.64	119.4	463.8	224.1	19.71	16.53	15.71	14.67	13.96	12.72	12.89	13.07	12.73	12.46	12.65	12.73	12.93	12.61	12.27	11.67	10.67	10.09	9.496	8.794	8.176	8.026	7.341	6.890	6.433	6.152	5.536	5.246	5.084	4.637	4.520	4.099	3.729	3.505	3.588	3.306	3.348	3.844	3.598	3.156	2.842	2.717	2.723	2.705	2.356	2.231	2.169	2.256	2.025	2.108	1.959	1.909	2.079	2.791	4.608	22.32	102.8	121.4	17.08	0.379	0.203
590.0	13.74	20.41	27.56	28.58	28.18	31.60	34.10	38.09	39.10	49.16	47.07	36.89	32.53	48.48	227.9	399.9	50.70	13.31	12.49	11.54	10.76	10.17	9.901	10.28	10.29	9.980	9.747	9.852	10.25	9.885	9.762	9.179	8.670	7.971	7.547	6.855	6.511	6.244	5.766	5.513	5.082	4.743	4.397	4.102	4.051	3.671	3.597	3.284	3.051	2.849	2.794	2.645	2.540	2.849	3.074	2.975	2.434	2.337	2.147	2.076	1.912	1.886	1.674	1.798	1.651	1.678	1.527	1.442	1.415	1.376	1.626	5.435	26.14	69.02	90.65	37.85	2.071
595.0	13.47	18.37	22.31	21.23	22.62	25.76	27.26	30.12	30.35	39.77	47.38	38.11	30.26	28.66	72.93	291.2	264.0	12.74	9.998	8.467	8.367	7.682	7.959	8.063	8.000	7.696	7.563	7.759	7.897	7.832	7.238	6.838	6.646	5.843	5.649	5.566	5.031	4.652	4.568	4.299	3.914	3.657	3.454	3.442	3.019	3.034	2.646	2.506	2.464	2.334	2.111	2.103	1.951	2.068	2.096	2.546	2.170	1.904	1.797	1.666	1.632	1.433	1.339	1.360	1.391	1.261	1.204	1.165	1.058	0.811	0.836	1.581	6.088	15.74	35.76	92.95	26.77
600.0	11.48	16.78	19.72	19.17	19.70	22.38	23.79	25.85	27.25	30.98	43.95	38.60	28.07	23.06	29.18	146.4	381.5	44.45	8.634	7.835	7.137	6.760	6.655	6.528	6.687	6.289	6.342	6.538	6.446	6.437	6.158	5.737	5.468	5.094	4.840	4.217	4.135	3.969	3.765	3.570	3.419	3.193	2.800	2.757	2.571	2.451	2.316	2.188	2.002	1.867	1.786	1.686	1.662	1.686	1.711	1.938	1.981	1.806	1.528	1.345	1.291	1.312	1.234	1.135	1.147	1.098	1.090	0.978	0.779	0.664	0.585	0.662	1.657	3.678	8.603	44.26	82.65
605.0	9.904	16.29	18.84	18.09	18.34	19.00	22.23	23.08	24.56	27.98	38.24	40.99	27.02	20.53	18.71	58.53	321.3	173.2	7.704	6.290	6.318	6.076	5.809	5.570	5.498	5.260	5.499	5.146	5.482	5.780	5.186	4.725	4.453	4.223	4.093	3.809	3.526	3.245	3.083	3.086	2.837	2.540	2.533	2.396	2.300	2.250	1.925	1.895	1.804	1.734	1.495	1.491	1.347	1.359	1.405	1.589	1.821	1.707	1.306	1.178	1.004	1.053	1.003	1.037	0.909	0.932	0.976	0.813	0.610	0.567	0.511	0.446	0.625	1.057	2.089	11.26	51.76
610.0	8.244	14.37	18.76	15.64	14.57	16.18	18.98	20.14	21.57	24.72	32.57	39.63	29.67	20.23	15.58	22.13	142.6	306.0	38.53	5.299	4.956	4.834	4.547	4.550	4.418	4.157	4.236	4.379	4.301	4.352	4.214	3.844	3.699	3.459	3.557	2.963	2.812	2.646	2.456	2.326	2.210	2.112	2.063	1.917	1.822	1.710	1.567	1.535	1.482	1.307	1.175	1.186	1.151	1.120	1.097	1.122	1.424	1.440	1.291	1.055	0.894	0.947	0.759	0.876	0.795	0.779	0.734	0.746	0.602	0.488	0.456	0.359	0.350	0.430	0.615	2.646	13.07
615.0	6.783	13.57	14.81	15.27	13.85	16.30	16.44	18.78	19.07	22.72	26.55	33.53	33.28	18.86	14.39	12.78	41.94	203.1	218.7	6.817	3.972	3.899	3.945	3.576	3.455	3.347	3.492	3.324	3.381	3.046	3.505	3.045	2.863	2.718	2.577	2.237	2.137	2.131	1.970	1.837	1.698	1.570	1.644	1.527	1.499	1.393	1.210	1.253	1.149	1.038	0.966	0.971	0.889	0.840	0.836	0.847	0.907	1.018	1.143	0.983	0.830	0.704	0.778	0.617	0.656	0.625	0.597	0.571	0.564	0.464	0.327	0.292	0.278	0.245	0.263	0.745	3.041
620.0	7.878	13.39	13.96	13.93	12.17	14.08	15.14	16.49	17.45	20.49	24.73	29.14	34.93	20.93	13.55	10.18	15.03	92.86	303.0	39.01	3.305	3.179	2.932	3.094	2.814	2.862	2.677	2.586	2.799	2.713	2.800	2.456	2.394	2.150	2.064	1.875	1.903	1.771	1.607	1.496	1.489	1.295	1.306	1.234	1.212	1.174	1.037	1.170	1.053	0.925	0.845	0.828	0.758	0.686	0.690	0.743	0.721	0.746	0.817	0.847	0.736	0.606	0.620	0.576	0.558	0.579	0.530	0.467	0.555	0.438	0.334	0.294	0.261	0.209	0.240	0.269	0.824
625.0	8.143	12.76	13.76	11.25	10.33	12.34	13.28	16.07	17.62	20.90	24.69	26.10	33.06	22.53	12.99	9.307	8.809	34.03	236.7	156.3	3.311	2.829	2.618	2.552	2.468	2.491	2.329	2.377	2.370	2.299	2.107	1.981	1.843	1.986	1.686	1.739	1.545	1.455	1.388	1.436	1.187	1.135	1.086	1.079	1.016	0.949	0.858	0.909	0.731	0.805	0.765	0.696	0.654	0.641	0.564	0.628	0.598	0.644	0.723	0.792	0.664	0.503	0.533	0.497	0.481	0.495	0.414	0.467	0.458	0.428	0.282	0.321	0.201	0.247	0.192	0.152	0.312
630.0	7.296	11.58	13.34	11.80	10.15	10.28	12.66	14.30	17.17	18.99	21.86	23.66	27.09	25.38	14.56	9.078	6.943	11.86	95.00	247.2	32.93	2.307	2.211	2.159	1.976	1.981	1.983	1.876	1.944	1.854	1.653	1.661	1.590	1.569	1.397	1.350	1.224	1.170	1.122	1.082	0.988	0.935	0.886	0.905	0.852	0.737	0.681	0.726	0.634	0.613	0.583	0.543	0.544	0.489	0.524	0.500	0.479	0.504	0.556	0.595	0.622	0.547	0.492	0.417	0.391	0.467	0.359	0.395	0.397	0.334	0.282	0.295	0.189	0.196	0.163	0.143	0.174
635.0	9.298	13.91	14.52	10.75	9.755	10.69	11.44	13.17	14.32	19.32	21.64	23.07	23.85	24.90	17.45	9.769	7.252	6.693	25.83	145.7	188.8	4.338	1.829	1.809	1.475	1.664	1.563	1.501	1.532	1.615	1.307	1.354	1.192	1.238	1.020	1.018	0.990	0.988	0.935	0.857	0.801	0.764	0.705	0.701	0.693	0.591	0.531	0.525	0.476	0.520	0.475	0.435	0.435	0.367	0.393	0.375	0.420	0.370	0.387	0.470	0.503	0.457	0.483	0.322	0.274	0.396	0.334	0.354	0.360	0.233	0.270	0.259	0.203	0.191	0.133	0.154	0.123
640.0	12.83	15.24	14.10	11.28	9.806	9.838	10.73	12.32	13.58	18.52	21.64	23.54	22.82	22.73	20.37	10.60	7.300	6.001	8.729	60.34	245.5	33.23	1.687	1.541	1.384	1.315	1.344	1.287	1.289	1.363	1.114	1.201	1.035	1.103	0.957	0.940	0.977	0.794	0.833	0.729	0.694	0.649	0.577	0.566	0.519	0.509	0.450	0.486	0.456	0.428	0.414	0.371	0.406	0.326	0.302	0.309	0.305	0.345	0.330	0.371	0.406	0.455	0.446	0.320	0.312	0.321	0.294	0.263	0.243	0.269	0.253	0.285	0.211	0.222	0.155	0.122	0.122
645.0	8.919	16.43	15.02	10.84	8.908	9.308	10.97	12.73	14.69	17.81	21.55	23.54	23.63	20.80	22.24	12.17	7.722	5.839	5.015	20.34	180.8	132.3	2.125	1.400	1.150	1.130	1.071	1.173	1.105	1.102	1.069	0.952	0.966	0.928	0.911	0.835	0.807	0.744	0.639	0.567	0.551	0.546	0.488	0.455	0.473	0.473	0.377	0.420	0.448	0.396	0.326	0.328	0.306	0.226	0.269	0.261	0.298	0.352	0.292	0.268	0.312	0.399	0.402	0.338	0.306	0.273	0.304	0.289	0.253	0.246	0.190	0.221	0.230	0.191	0.164	0.108	0.127
650.0	11.12	17.23	16.95	11.73	9.291	9.214	10.93	12.65	14.19	18.42	20.49	22.69	21.71	19.82	21.41	14.05	8.107	5.699	4.001	7.050	83.95	215.0	13.14	1.258	1.232	0.946	0.987	1.182	1.056	0.950	0.960	0.851	0.878	0.860	0.881	0.771	0.746	0.684	0.578	0.545	0.469	0.470	0.439	0.438	0.441	0.375	0.312	0.375	0.403	0.330	0.278	0.290	0.235	0.222	0.213	0.229	0.267	0.305	0.240	0.267	0.260	0.307	0.374	0.321	0.309	0.247	0.268	0.257	0.231	0.215	0.189	0.191	0.243	0.203	0.188	0.113	0.133
