Sample:	'1
File name:	S2025080904ÀûºÓÂ·ÇÅ.FD3
Run date:	'14:23:26, 08/10/2025
Operator:	Administrator
Comment:	'

Instrument
Model:	F-2700 FL Spectrophotometer
Serial number:	3064-004
ROM Version:	4J14000 07

Instrument parameters
Measurement type:	3-D scan
Data mode:	Fluorescence
EX  Start WL:	220.0 nm
EX  End WL:	600.0 nm
EX Sampling interval:	5.0 nm
EM  Start WL:	230.0 nm
EM  End WL:	650.0 nm
EM Sampling interval:	5.0 nm
Scan speed:	12000 nm/min
EX Slit:	5.0 nm
EM Slit:	5.0 nm
PMT Voltage:	700 V
Response:	Auto 
Corrected spectra:	Off
Contour interval:	50.000

Peak integration
Integration method:	Rectangular
Sensitivity:	1
Threshold:	1.000

Peaks
No.	ApexEX/EM(nm)	Height(Data)
1	230.0/575.0	71.03
2	230.0/585.0	63.00
3	230.0/595.0	57.80
4	230.0/635.0	40.18
5	235.0/630.0	43.90
6	240.0/570.0	68.11
7	245.0/530.0	262.6
8	245.0/615.0	42.85
9	250.0/545.0	244.7
10	255.0/280.0	658.8
11	255.0/555.0	217.9
12	260.0/285.0	880.9
13	260.0/570.0	181.8
14	265.0/290.0	994.1
15	265.0/580.0	180.6
16	270.0/295.0	 1419
17	270.0/385.0	 1686
18	270.0/595.0	161.0
19	275.0/305.0	 1738
20	275.0/605.0	152.1
21	280.0/310.0	 1681
22	280.0/380.0	 1690
23	280.0/615.0	128.7
24	285.0/315.0	 1629
25	285.0/630.0	104.3
26	290.0/325.0	 1472
27	290.0/640.0	80.44
28	305.0/340.0	 1077
29	315.0/355.0	950.5
30	320.0/360.0	 1020
31	475.0/360.0	6.155
32	505.0/275.0	3.329
33	510.0/280.0	3.558
34	520.0/285.0	4.227
35	530.0/290.0	4.915
36	535.0/435.0	6.643
37	540.0/295.0	6.772
38	545.0/300.0	8.091
39	550.0/305.0	8.045
40	560.0/310.0	7.890
41	570.0/315.0	7.770
42	575.0/320.0	7.628
43	580.0/360.0	8.060
44	585.0/325.0	7.310

Data points
	220.0	225.0	230.0	235.0	240.0	245.0	250.0	255.0	260.0	265.0	270.0	275.0	280.0	285.0	290.0	295.0	300.0	305.0	310.0	315.0	320.0	325.0	330.0	335.0	340.0	345.0	350.0	355.0	360.0	365.0	370.0	375.0	380.0	385.0	390.0	395.0	400.0	405.0	410.0	415.0	420.0	425.0	430.0	435.0	440.0	445.0	450.0	455.0	460.0	465.0	470.0	475.0	480.0	485.0	490.0	495.0	500.0	505.0	510.0	515.0	520.0	525.0	530.0	535.0	540.0	545.0	550.0	555.0	560.0	565.0	570.0	575.0	580.0	585.0	590.0	595.0	600.0
230.0	30.78	 1675	9999.9	 4171	175.6	13.00	9.476	8.204	6.658	7.868	6.814	7.149	6.844	6.654	5.939	5.518	4.832	4.655	4.895	4.348	4.133	4.041	4.033	4.008	3.727	3.341	3.291	3.084	2.938	2.744	2.695	2.804	2.591	2.362	2.136	2.090	1.881	1.842	1.699	1.426	1.477	1.407	1.262	1.157	1.126	1.133	1.979	6.757	12.69	10.52	4.611	1.324	0.776	0.698	0.627	0.693	0.618	0.600	0.528	0.484	0.518	0.488	0.477	0.451	0.373	0.486	0.365	0.364	0.381	0.354	0.286	0.312	0.272	0.357	0.323	0.311	0.370
235.0	57.50	424.4	 4495	 8487	 3402	234.5	12.57	12.01	8.819	9.782	9.593	9.208	6.522	6.090	6.891	5.561	5.090	4.384	4.886	3.924	4.046	3.446	4.112	4.034	3.447	3.710	3.704	3.624	2.675	2.639	2.574	2.744	2.490	2.473	2.060	2.097	1.912	1.949	1.476	1.589	1.307	1.259	1.351	1.239	1.232	1.252	1.341	2.313	4.827	8.389	12.60	14.03	6.886	1.822	0.598	0.686	0.592	0.716	0.645	0.668	0.583	0.512	0.350	0.486	0.576	0.477	0.532	0.488	0.344	0.356	0.256	0.229	0.310	0.385	0.336	0.222	0.305
240.0	70.73	166.6	 1097	 4918	 7490	 1014	127.8	13.59	13.14	10.25	8.555	8.897	7.731	6.732	8.337	5.386	5.243	5.314	5.329	5.824	4.059	4.290	3.876	4.691	3.575	3.575	3.399	3.440	2.833	3.008	3.049	3.028	2.339	2.228	2.309	2.334	1.987	1.797	1.985	1.617	1.374	1.413	1.446	1.026	0.982	1.620	1.305	1.265	1.863	2.923	6.756	16.18	20.70	16.36	5.781	1.445	0.634	0.764	0.703	0.726	0.495	0.416	0.437	0.362	0.504	0.369	0.293	0.405	0.252	0.366	0.405	0.310	0.447	0.295	0.226	0.356	0.384
245.0	46.77	135.4	328.2	 1301	 5199	 7219	845.7	65.38	16.11	12.54	11.23	11.11	8.814	9.785	8.759	4.888	5.979	5.639	5.528	4.725	4.260	4.633	3.716	4.251	3.945	3.424	3.419	3.290	2.834	3.027	2.648	2.559	2.363	2.506	2.295	1.964	1.924	1.878	1.816	1.880	1.415	1.298	1.453	0.858	1.116	1.258	1.469	1.222	1.291	1.444	2.154	5.864	13.02	24.66	25.57	14.75	4.500	1.014	0.639	0.650	0.416	0.505	0.384	0.480	0.541	0.346	0.402	0.407	0.376	0.342	0.382	0.340	0.459	0.253	0.220	0.347	0.397
250.0	37.61	80.34	198.4	405.5	 1373	 4298	 6794	 3138	262.6	19.16	14.95	11.64	11.36	10.67	8.241	7.062	6.267	5.281	5.265	5.273	5.017	5.082	4.599	4.290	4.409	3.986	3.665	3.472	3.248	2.948	3.118	2.644	2.754	2.428	2.239	1.976	1.870	1.662	1.684	1.571	1.542	1.375	1.436	1.150	1.184	1.026	1.223	1.368	1.601	1.537	1.412	1.885	3.708	7.775	14.44	22.52	30.39	26.80	15.89	5.079	0.886	0.589	0.666	0.480	0.598	0.449	0.427	0.414	0.397	0.403	0.324	0.328	0.396	0.306	0.275	0.359	0.310
255.0	40.30	55.33	98.49	274.9	436.2	999.6	 2941	9999.9	 4872	370.1	23.24	15.87	13.49	10.24	11.16	8.100	7.724	6.086	5.737	5.709	5.188	4.788	4.917	4.421	4.923	4.097	3.697	3.889	3.351	3.551	3.306	2.955	2.886	2.530	2.370	1.864	1.889	1.582	1.710	1.690	1.573	1.360	1.583	1.179	1.334	1.158	1.171	1.208	1.346	1.300	1.628	1.792	1.673	2.352	3.928	5.865	10.75	24.83	48.30	46.24	27.01	6.130	0.807	0.599	0.565	0.458	0.560	0.643	0.511	0.389	0.353	0.475	0.350	0.466	0.367	0.451	0.305
260.0	47.62	58.15	68.29	156.2	357.2	320.3	723.4	 5137	9999.9	 4258	251.2	20.52	15.30	12.83	13.24	10.03	8.919	7.480	7.131	6.089	5.171	5.048	5.251	4.674	4.546	4.763	3.887	3.889	3.426	3.373	3.325	3.051	2.899	2.675	2.271	2.397	1.895	1.715	1.716	1.365	1.536	1.536	1.369	1.328	1.220	1.187	1.215	0.988	1.119	1.035	1.394	1.695	2.108	1.639	1.543	2.186	3.225	7.010	20.10	46.82	68.83	45.80	21.59	3.270	0.616	0.530	0.523	0.553	0.477	0.597	0.394	0.514	0.450	0.309	0.283	0.350	0.287
265.0	54.34	57.92	52.10	77.69	279.2	349.0	223.9	 1331	 7563	9999.9	 3542	141.4	22.49	15.81	12.88	11.44	9.093	9.578	7.408	6.297	5.454	5.809	5.774	5.323	5.198	4.417	4.223	3.778	3.064	4.188	3.734	3.193	3.001	3.031	2.540	2.241	1.973	1.807	1.851	1.506	1.492	1.650	1.536	1.548	1.285	1.388	1.126	1.299	1.139	0.933	1.163	1.359	1.812	2.528	1.818	1.301	1.500	2.345	5.319	13.61	36.59	71.78	91.06	42.16	13.72	1.294	0.706	0.683	0.575	0.549	0.398	0.462	0.432	0.327	0.338	0.412	0.368
270.0	75.68	81.54	67.42	62.24	109.4	298.1	378.3	401.8	 1956	 7428	9999.9	9999.9	215.3	28.67	19.28	13.40	11.98	10.69	8.520	7.460	7.177	6.435	5.837	5.634	5.130	5.130	4.480	4.314	4.186	4.268	4.105	3.327	3.065	3.053	2.358	2.309	2.237	1.917	1.923	1.528	1.645	1.799	1.608	1.394	1.561	1.484	1.210	1.272	1.282	1.075	0.981	1.214	1.088	1.538	1.893	2.356	2.092	1.743	2.110	3.757	8.995	21.06	43.10	67.82	67.75	80.87	27.36	12.42	1.283	0.702	0.507	0.553	0.462	0.451	0.416	0.391	0.433
275.0	111.5	139.6	119.3	74.68	66.39	116.7	362.0	549.4	569.5	 1799	 4685	9999.9	9999.9	271.1	30.87	21.29	15.15	12.23	10.58	9.040	7.857	6.922	6.513	6.004	5.272	5.034	4.953	4.809	4.230	4.532	3.873	4.255	3.332	3.083	2.937	2.434	2.394	2.188	1.993	1.675	2.109	1.888	1.719	1.595	1.663	1.624	1.323	1.452	1.379	1.338	1.260	1.153	1.130	1.072	1.231	1.459	2.616	3.329	3.023	2.166	3.010	5.469	10.55	16.31	23.40	61.96	129.7	151.8	42.18	12.65	0.970	0.845	0.784	0.729	0.777	0.457	0.361
280.0	146.3	205.6	155.4	107.6	80.16	86.40	195.5	658.8	545.3	586.3	 1304	 6672	9999.9	9999.9	187.4	28.97	21.44	15.06	12.25	11.11	9.309	7.686	7.188	6.631	6.594	5.574	5.105	4.949	4.233	4.354	4.380	4.340	3.391	3.661	3.203	2.850	2.441	2.397	2.188	2.065	2.188	1.963	1.990	1.591	1.880	2.042	1.580	1.741	1.484	1.097	1.066	1.323	1.162	1.074	1.021	1.210	1.592	2.657	3.558	3.493	2.665	2.454	3.518	4.930	6.509	16.39	46.71	118.6	178.6	56.69	31.27	4.672	0.940	0.672	0.555	0.708	0.531
285.0	200.9	284.4	221.2	176.5	109.8	114.3	135.7	398.8	880.9	510.8	586.6	 1888	9999.9	9999.9	 2188	114.2	29.19	19.56	15.27	11.93	10.99	8.399	8.094	7.149	7.108	5.934	5.541	4.883	5.105	4.683	4.772	4.414	3.786	3.612	3.308	2.748	2.630	2.544	2.510	2.449	2.486	2.176	1.922	1.981	2.078	1.752	1.740	1.953	1.947	1.426	1.369	1.435	1.466	1.185	1.123	1.150	1.582	1.826	2.320	3.735	4.227	3.197	2.409	2.653	2.747	5.235	12.44	32.06	81.27	150.9	203.6	50.78	18.49	1.219	0.786	0.634	0.634
290.0	282.6	362.7	351.1	288.3	202.3	172.3	189.8	275.6	647.0	994.1	767.9	876.3	 2789	 9584	9999.9	9999.9	641.2	34.54	21.03	15.67	12.59	10.00	9.304	8.160	7.590	6.463	6.823	5.564	5.355	4.805	4.708	4.362	3.915	3.745	3.354	2.782	2.986	2.975	2.573	2.392	2.412	2.314	2.176	2.113	2.511	2.487	2.307	2.349	2.243	1.961	1.761	1.686	1.563	1.424	1.368	1.363	1.578	1.611	1.862	2.425	3.198	4.567	4.915	4.602	3.229	3.382	4.964	9.305	20.42	41.15	87.12	125.4	171.5	138.2	31.53	14.40	1.575
295.0	297.1	449.2	471.6	392.8	303.4	251.7	254.0	300.8	485.4	811.0	 1419	995.8	 1159	 2515	 4296	9999.9	9999.9	175.3	33.79	24.12	18.00	14.04	11.86	9.297	8.582	7.440	6.751	5.630	6.109	5.578	4.673	4.850	4.194	3.830	3.474	3.398	3.405	3.284	2.893	2.887	2.721	2.368	2.256	2.680	2.583	2.821	2.859	2.694	2.538	2.335	2.071	2.317	1.931	1.822	1.397	1.720	1.844	1.823	2.108	2.134	2.487	2.898	3.946	6.215	6.772	5.526	4.419	4.815	7.226	11.66	21.46	29.68	47.28	98.43	214.8	253.7	49.08
300.0	323.9	504.0	539.9	477.7	371.6	330.6	308.8	358.9	476.2	698.3	 1315	 1549	978.2	 1054	 1287	 6356	9999.9	9999.9	136.3	30.83	22.19	15.79	12.70	11.63	9.830	7.917	7.466	6.737	6.305	5.941	5.813	5.332	4.837	4.666	3.466	3.379	3.630	2.913	2.933	2.994	2.685	2.681	2.541	2.640	2.705	2.833	3.145	2.806	2.913	2.778	2.556	2.482	2.040	2.157	1.865	1.957	2.002	2.263	2.414	2.317	2.916	2.771	3.181	4.607	6.322	8.091	6.589	5.134	4.853	5.282	7.430	8.587	12.14	25.10	71.65	192.5	284.6
305.0	349.5	499.7	591.8	548.4	411.2	363.4	365.1	417.2	510.8	699.2	 1065	 1738	 1334	830.1	658.0	 1720	9999.9	9999.9	 7896	96.44	28.84	20.80	16.32	12.77	9.567	9.063	8.397	7.904	7.366	5.913	5.716	5.652	4.890	4.594	3.538	3.478	3.776	3.240	2.944	3.211	3.064	2.714	2.544	2.653	2.930	2.643	3.225	3.044	3.093	2.810	2.420	2.853	2.486	2.315	2.137	2.047	2.461	2.440	2.323	2.329	3.073	3.035	3.791	4.095	5.112	6.265	8.045	7.793	5.778	4.516	4.300	4.580	4.983	7.282	17.64	49.26	124.2
310.0	352.4	526.7	628.3	580.0	463.6	404.4	413.3	489.4	587.0	742.7	 1001	 1369	 1681	 1219	650.6	687.2	 2557	9999.9	9999.9	9999.9	487.2	34.49	21.73	17.05	13.82	10.64	9.950	8.517	7.184	7.228	6.801	5.653	5.069	4.407	4.147	3.753	3.994	3.725	3.494	3.350	2.897	2.788	2.857	3.046	2.887	3.046	3.162	3.290	3.297	2.909	2.522	3.079	2.634	2.503	2.282	2.251	2.770	2.765	2.632	2.627	2.724	3.396	3.730	3.621	4.791	5.022	5.767	7.494	7.890	6.908	5.398	4.031	3.724	3.523	5.716	12.60	29.79
315.0	371.6	595.6	682.6	603.5	525.0	421.3	454.7	531.5	650.5	793.6	 1020	 1215	 1371	 1629	 1042	565.8	835.7	 2424	 4376	9999.9	9999.9	129.0	35.79	22.20	18.30	12.93	10.80	9.721	9.617	8.298	7.870	6.855	5.531	5.064	4.675	3.794	4.139	3.723	3.572	3.490	2.992	3.178	2.838	3.144	2.987	3.362	3.150	3.057	3.031	3.048	2.720	2.831	3.041	2.820	2.325	2.430	3.115	2.702	2.746	2.784	3.296	3.417	4.174	4.008	4.819	4.910	5.217	5.919	6.636	7.080	7.770	6.789	4.623	3.321	3.765	4.938	8.600
320.0	404.6	610.5	753.5	680.9	576.5	494.6	495.2	580.2	687.5	839.3	 1084	 1237	 1338	 1455	 1472	742.8	527.7	771.1	 1161	 7194	9999.9	 7788	106.0	32.19	22.87	16.57	13.28	10.86	10.01	9.721	8.776	6.712	5.830	5.165	4.739	4.394	4.351	4.070	3.948	3.215	3.118	2.993	2.967	3.192	3.237	3.386	3.457	3.444	3.689	3.250	3.005	2.982	2.974	2.859	2.887	2.609	2.866	2.913	2.904	3.124	3.841	3.775	4.353	4.381	4.907	5.688	5.249	5.815	5.907	6.126	6.868	7.628	7.203	4.781	3.632	3.673	4.046
325.0	426.6	655.9	855.9	793.8	645.9	531.2	530.8	608.8	736.7	912.9	 1150	 1315	 1404	 1372	 1472	 1132	551.6	459.7	465.5	 1841	9999.9	9999.9	 6422	78.84	28.64	19.99	16.49	12.59	10.58	9.076	8.355	6.835	6.609	5.595	4.845	4.525	4.667	4.130	3.759	3.278	3.158	3.120	3.528	2.997	3.572	3.795	3.876	3.904	4.421	3.501	3.118	3.180	2.819	3.044	2.926	2.877	3.135	3.304	3.011	3.341	3.991	4.108	4.836	5.034	4.955	5.197	5.874	5.469	5.921	6.710	6.387	6.380	7.008	7.310	5.441	3.931	3.183
330.0	458.0	743.6	982.2	973.0	768.6	597.8	574.6	656.3	783.7	967.1	 1194	 1373	 1475	 1399	 1294	 1249	943.5	526.3	380.6	613.1	 2542	9999.9	9999.9	9999.9	400.8	32.69	22.62	17.00	13.61	10.49	9.226	8.541	7.568	5.928	5.388	4.847	4.635	3.975	4.205	3.691	3.628	3.047	3.718	3.626	3.705	3.882	4.280	4.074	4.464	4.180	3.918	3.880	3.359	3.453	3.284	3.094	3.408	3.349	3.445	3.547	3.941	4.588	4.592	5.205	4.868	5.534	6.256	6.366	6.911	7.002	6.496	6.417	6.662	6.767	6.303	6.713	6.215
335.0	456.7	761.2	 1073	 1084	894.3	692.8	654.4	731.3	809.5	 1011	 1235	 1409	 1514	 1478	 1296	 1123	 1097	876.9	466.5	405.4	774.7	 2393	 5258	9999.9	9999.9	104.5	33.71	23.69	17.67	14.93	10.86	11.03	8.265	7.351	5.939	5.462	5.020	4.754	4.110	3.786	3.718	3.412	3.855	3.660	3.943	4.110	4.602	4.439	4.908	4.455	4.358	3.988	3.937	3.864	3.489	3.616	3.494	3.636	3.668	3.777	4.106	4.347	5.227	5.371	5.190	6.212	6.292	6.411	6.815	6.491	6.901	6.118	6.526	6.372	5.386	6.179	7.028
340.0	469.6	783.7	 1123	 1135	956.0	805.5	722.0	779.2	888.0	 1058	 1277	 1447	 1535	 1532	 1338	 1109	992.2	 1077	675.3	429.3	425.8	737.8	 1360	 9329	9999.9	 6269	88.20	31.43	23.00	18.29	13.50	11.08	9.420	7.384	6.400	6.274	5.650	4.818	4.058	4.166	3.602	3.529	3.675	3.530	4.009	4.237	4.550	4.714	5.363	4.933	4.365	4.757	4.375	4.039	3.736	3.663	3.779	3.831	3.903	4.008	4.386	3.961	5.070	5.665	5.530	6.575	6.640	6.290	7.186	7.028	6.960	6.735	6.793	6.101	5.609	5.804	5.673
345.0	485.2	762.9	 1104	 1161	 1047	880.6	831.6	826.8	940.7	 1101	 1310	 1456	 1533	 1537	 1402	 1167	955.4	995.3	946.1	542.1	407.7	422.7	503.9	 2369	9999.9	9999.9	 5451	73.16	30.58	21.46	15.92	12.95	9.767	8.040	7.091	6.382	5.260	4.967	4.381	4.416	3.933	3.468	3.878	3.929	4.082	4.165	4.866	5.040	4.914	5.228	4.433	4.762	4.350	4.362	4.217	3.872	3.725	4.050	4.062	4.106	4.825	4.810	5.024	5.626	5.359	6.169	6.281	6.314	6.928	7.131	6.717	7.089	7.563	6.362	5.835	6.163	5.435
350.0	467.1	738.8	 1053	 1176	 1134	 1005	963.9	914.4	 1027	 1168	 1335	 1487	 1559	 1542	 1425	 1221	 1021	926.7	953.8	863.7	563.5	441.2	390.5	748.2	 2661	9999.9	9999.9	9999.9	350.1	33.30	22.23	15.73	12.19	9.583	8.259	7.005	6.193	5.391	4.764	4.717	4.105	4.005	4.167	3.709	3.955	4.558	4.462	4.844	5.079	4.639	4.336	5.026	5.016	4.478	4.450	4.634	4.267	4.685	4.638	4.722	4.931	5.388	5.193	5.590	5.656	6.437	6.580	6.476	7.289	7.191	7.322	7.024	6.949	6.596	6.419	6.268	6.080
355.0	456.8	700.1	 1032	 1177	 1160	 1132	 1118	 1089	 1174	 1241	 1427	 1532	 1585	 1566	 1468	 1282	 1102	981.9	900.9	950.5	883.6	584.6	469.1	466.8	825.3	 2414	 6803	9999.9	9999.9	94.76	32.69	22.03	16.32	12.23	9.759	7.453	6.368	5.482	5.169	5.095	4.220	4.149	4.247	3.592	4.080	4.326	4.352	4.777	5.080	4.894	4.406	5.463	5.238	5.155	4.927	5.256	5.012	5.386	4.695	5.405	5.632	5.333	6.168	5.345	6.343	6.773	7.021	6.798	7.910	7.354	7.559	7.416	7.758	6.366	6.634	7.327	6.869
360.0	455.7	685.2	 1043	 1179	 1228	 1220	 1222	 1242	 1266	 1355	 1486	 1567	 1592	 1576	 1507	 1321	 1202	 1066	967.5	930.0	 1020	808.5	562.1	470.8	469.5	752.1	 1743	9999.9	9999.9	 5724	78.46	30.47	20.70	14.83	11.07	8.613	7.658	6.412	5.953	4.873	4.810	4.291	4.223	4.000	4.142	4.218	4.452	4.994	4.580	4.582	4.622	6.155	5.577	5.577	5.098	5.092	6.063	5.762	5.255	5.564	5.817	5.829	6.689	6.933	6.154	6.685	6.734	6.977	7.231	7.360	7.903	7.213	8.060	7.302	6.643	7.436	7.004
365.0	467.0	640.8	994.1	 1167	 1251	 1254	 1270	 1310	 1349	 1452	 1516	 1588	 1613	 1585	 1525	 1378	 1250	 1137	 1046	963.6	990.6	 1004	697.8	550.7	452.4	436.7	583.1	 2628	9999.9	9999.9	 4827	62.24	27.25	19.68	13.71	9.497	8.165	7.066	6.234	5.000	4.832	4.257	4.426	4.288	4.317	4.349	4.530	5.028	4.960	4.842	4.793	5.973	5.941	5.759	5.500	5.718	5.837	5.448	5.961	5.916	6.542	5.889	6.762	6.979	6.261	6.942	6.747	7.139	7.951	7.395	7.325	7.828	7.681	6.979	7.048	7.370	7.923
370.0	440.0	634.7	983.0	 1178	 1293	 1360	 1371	 1407	 1435	 1505	 1598	 1633	 1645	 1612	 1550	 1418	 1311	 1222	 1144	 1055	 1014	 1035	971.2	719.5	550.5	445.9	397.9	782.4	 2838	9999.9	9999.9	9999.9	283.0	27.79	18.58	13.18	10.12	8.705	6.915	5.935	5.234	4.794	4.438	4.447	4.389	4.464	4.694	4.872	4.810	4.950	4.740	5.870	6.241	6.177	5.896	5.783	6.024	6.428	6.339	6.448	6.466	6.543	6.743	6.889	6.731	7.049	6.919	7.595	7.415	7.546	7.552	7.333	7.597	7.337	7.447	7.283	7.950
375.0	419.8	658.5	937.7	 1188	 1348	 1416	 1434	 1460	 1490	 1567	 1656	 1665	 1669	 1644	 1554	 1452	 1391	 1306	 1233	 1170	 1106	 1053	 1040	998.2	720.9	551.5	449.6	439.8	826.0	 2398	 8799	9999.9	9999.9	74.93	28.07	17.65	13.24	9.535	8.508	6.501	6.183	5.284	4.878	4.997	4.541	4.530	4.749	5.167	4.853	5.108	4.713	6.061	5.966	5.894	6.382	6.020	6.237	6.370	6.566	6.283	6.934	6.913	6.587	6.964	7.412	7.504	6.634	7.825	7.769	8.204	8.088	7.587	7.615	7.440	7.440	7.891	8.104
380.0	406.6	636.1	932.3	 1203	 1386	 1461	 1471	 1479	 1488	 1573	 1655	 1659	 1690	 1641	 1557	 1457	 1404	 1347	 1295	 1235	 1170	 1106	 1052	 1084	908.9	664.0	514.4	416.8	422.0	709.7	 2210	9999.9	9999.9	 4608	59.57	23.66	17.58	12.13	10.03	7.637	6.691	5.265	5.850	4.647	4.469	4.480	5.029	5.519	4.960	5.001	5.012	5.598	5.793	6.053	6.245	6.373	6.719	5.991	6.128	6.473	6.585	7.156	6.641	6.805	6.965	7.013	7.189	7.692	7.794	7.725	7.247	7.065	7.837	7.521	7.733	7.813	8.506
385.0	421.5	641.4	894.6	 1153	 1345	 1461	 1476	 1509	 1527	 1595	 1686	 1653	 1671	 1595	 1543	 1466	 1424	 1368	 1337	 1280	 1216	 1152	 1072	 1061	 1051	796.1	585.9	463.3	381.9	368.4	645.3	 2764	9999.9	9999.9	 3677	45.75	21.35	14.78	11.89	8.315	7.415	6.500	5.751	5.521	5.242	4.802	5.241	5.070	5.124	5.030	4.895	5.859	5.643	6.341	6.352	6.588	6.455	5.941	6.380	6.569	6.952	6.766	6.765	7.134	7.386	7.130	7.094	7.321	7.834	7.740	7.050	7.419	7.734	8.122	7.338	8.081	8.803
390.0	423.0	634.1	898.7	 1135	 1307	 1467	 1480	 1513	 1541	 1578	 1648	 1632	 1639	 1582	 1528	 1474	 1410	 1381	 1358	 1326	 1262	 1204	 1126	 1053	 1031	976.1	742.3	551.7	439.0	352.4	342.6	761.7	 3001	9999.9	9999.9	9999.9	217.0	22.07	15.57	10.65	8.854	7.098	6.477	5.670	5.645	5.300	4.934	5.466	5.420	4.725	4.958	5.804	6.077	6.285	6.405	6.944	6.674	6.793	6.427	6.862	6.837	6.406	7.207	6.669	7.098	7.196	7.405	7.387	7.668	7.088	7.951	7.420	7.664	8.293	8.054	8.284	8.208
395.0	409.2	580.4	870.3	 1088	 1285	 1440	 1467	 1513	 1527	 1569	 1597	 1614	 1591	 1561	 1496	 1437	 1405	 1377	 1377	 1336	 1282	 1237	 1172	 1097	 1021	989.4	933.5	687.3	518.8	410.1	329.0	355.4	801.7	 2363	 8785	9999.9	9999.9	61.21	21.17	14.93	11.25	8.366	7.888	6.090	5.852	5.712	5.333	5.578	5.229	4.887	4.880	5.883	5.971	6.134	6.363	6.965	6.749	6.547	6.393	6.307	6.435	6.745	6.717	6.479	6.852	7.379	7.547	7.396	7.326	6.876	7.237	7.276	7.287	7.741	7.927	8.212	7.893
400.0	397.9	579.1	831.6	 1082	 1280	 1392	 1467	 1518	 1509	 1568	 1558	 1591	 1550	 1524	 1484	 1425	 1400	 1367	 1362	 1330	 1306	 1239	 1195	 1119	 1042	979.1	975.9	825.4	595.8	467.8	365.8	298.3	340.6	644.6	 2189	9999.9	9999.9	 3797	49.19	18.26	14.19	10.21	8.685	6.417	6.415	5.776	5.410	5.348	5.442	4.926	4.912	5.665	5.792	6.309	6.151	6.431	6.590	6.597	6.778	6.962	6.195	6.622	6.158	6.341	6.572	7.015	7.531	7.198	7.599	7.345	7.292	7.193	7.617	7.434	7.803	7.968	8.450
405.0	394.9	566.8	842.8	 1050	 1247	 1356	 1440	 1472	 1475	 1544	 1552	 1535	 1513	 1502	 1443	 1402	 1352	 1346	 1331	 1311	 1292	 1245	 1191	 1134	 1064	975.2	934.1	910.7	700.7	520.0	410.0	316.1	261.8	278.0	592.0	 2779	9999.9	9999.9	 2991	36.94	16.39	12.09	8.882	7.769	6.241	5.768	5.618	5.328	5.219	4.863	5.183	5.488	5.910	6.109	6.091	6.391	6.388	6.554	6.760	6.504	6.275	6.658	6.012	6.292	6.638	6.997	7.182	6.966	7.168	6.826	7.272	6.537	7.169	7.576	7.604	7.447	8.010
410.0	382.6	553.1	796.4	 1020	 1189	 1309	 1398	 1427	 1472	 1494	 1515	 1481	 1465	 1438	 1393	 1336	 1312	 1309	 1294	 1281	 1260	 1222	 1179	 1134	 1076	993.8	918.9	875.1	822.3	638.3	473.2	366.3	278.4	229.2	252.2	709.5	 2937	9999.9	9999.9	9999.9	42.88	17.42	12.27	9.407	7.394	6.419	5.805	5.183	5.511	5.148	4.758	5.499	5.759	5.926	5.966	6.158	5.944	6.441	6.758	6.507	6.561	6.724	6.143	6.026	6.880	6.511	6.994	6.956	6.790	6.804	6.967	6.350	6.917	6.538	7.424	7.181	7.563
415.0	382.8	545.6	766.2	954.5	 1129	 1306	 1366	 1399	 1470	 1462	 1468	 1444	 1418	 1362	 1322	 1271	 1249	 1243	 1236	 1236	 1216	 1192	 1156	 1115	 1057	 1003	916.4	847.2	804.5	761.8	566.5	419.1	321.7	247.4	201.6	268.6	734.9	 2324	 7736	9999.9	9999.9	53.73	16.15	11.93	9.430	7.766	6.293	5.999	5.668	4.901	4.875	5.547	5.838	5.749	5.844	5.917	6.434	5.949	6.526	6.441	6.337	6.135	5.803	5.687	6.388	6.373	6.665	6.783	6.737	6.727	6.536	5.936	6.827	6.348	6.809	6.890	7.664
420.0	371.6	515.4	745.8	925.6	 1099	 1234	 1313	 1360	 1422	 1411	 1438	 1405	 1378	 1309	 1281	 1233	 1190	 1192	 1186	 1176	 1176	 1151	 1124	 1090	 1043	984.1	929.4	846.2	774.1	772.1	659.3	467.6	349.8	271.2	208.0	182.0	255.9	588.1	 1903	9999.9	9999.9	 3390	41.39	14.20	11.42	8.918	6.290	6.221	5.316	5.224	5.075	5.120	5.685	5.469	5.793	5.593	6.212	6.326	5.905	6.865	6.217	6.205	6.183	5.812	6.172	5.823	6.517	6.611	6.759	6.439	6.136	5.922	6.787	6.552	6.606	6.659	7.856
425.0	350.8	511.9	685.6	901.4	 1081	 1177	 1276	 1337	 1379	 1382	 1403	 1351	 1325	 1275	 1232	 1184	 1147	 1152	 1158	 1144	 1130	 1119	 1080	 1065	 1025	976.4	917.4	851.8	775.0	728.5	699.6	531.9	382.1	294.7	228.5	176.0	158.3	208.9	486.5	 2704	9999.9	9999.9	 2590	29.75	13.41	9.579	7.682	6.720	5.920	5.021	4.750	5.365	5.726	5.193	5.347	5.825	5.922	6.705	6.069	6.475	6.605	6.706	6.643	5.579	5.987	5.592	6.527	6.241	6.074	6.216	6.001	6.137	6.765	5.869	6.091	6.460	7.189
430.0	695.7	482.0	652.0	850.7	995.0	 1130	 1213	 1300	 1372	 1350	 1361	 1326	 1268	 1221	 1178	 1132	 1093	 1073	 1089	 1083	 1072	 1058	 1031	 1018	991.4	944.4	902.5	845.2	777.2	716.7	665.4	603.4	451.2	325.7	251.7	198.3	155.6	140.0	177.7	659.0	 2781	9999.9	9999.9	 8234	37.79	13.82	9.506	8.324	6.439	5.554	5.050	5.577	5.724	5.490	5.575	5.894	5.799	6.105	6.334	6.133	6.035	6.649	6.204	6.201	5.945	5.830	6.045	5.812	5.787	5.893	5.953	5.838	6.162	5.872	6.105	6.538	6.738
435.0	 1888	528.7	642.8	816.5	966.6	 1085	 1142	 1252	 1309	 1316	 1297	 1247	 1205	 1148	 1104	 1062	 1025	 1022	 1021	 1019	 1005	993.3	983.6	969.3	949.3	912.6	883.9	830.6	777.7	711.8	631.7	583.4	527.5	383.9	281.7	222.6	177.0	141.4	122.8	210.9	669.6	 2292	 6322	9999.9	9999.9	47.83	13.83	10.30	8.381	6.343	5.034	5.962	5.511	5.919	5.635	5.912	5.500	5.741	6.114	5.507	6.281	6.110	6.609	6.643	5.583	6.077	6.025	5.755	5.369	5.383	5.486	5.701	5.780	5.551	6.138	5.995	6.297
440.0	 2912	985.0	578.8	752.7	914.1	 1043	 1124	 1222	 1288	 1290	 1271	 1238	 1169	 1130	 1071	 1005	969.6	979.7	974.8	965.5	953.7	945.4	943.2	927.1	914.0	883.5	845.4	817.1	766.3	709.0	627.8	565.4	524.5	442.6	309.6	240.2	191.7	152.1	119.5	121.7	206.0	556.1	 1535	 9191	9999.9	 3086	36.40	13.01	9.670	7.022	5.794	6.172	5.974	5.285	5.737	5.541	5.626	6.059	6.062	5.994	6.369	6.195	6.486	5.949	5.579	6.037	5.487	5.860	4.941	5.500	4.982	5.823	5.226	5.441	5.558	5.597	5.762
445.0	 2617	 1851	603.6	723.9	868.5	 1006	 1083	 1189	 1235	 1263	 1235	 1207	 1116	 1075	 1011	973.1	926.5	932.5	929.2	910.3	904.6	901.1	902.1	882.9	878.7	856.7	825.0	791.6	747.6	699.9	626.3	550.8	495.0	460.0	349.6	254.6	205.9	162.5	128.4	107.8	109.3	175.1	384.7	 2368	9999.9	9999.9	 2315	27.76	11.73	8.573	6.815	6.404	5.979	5.560	5.600	5.600	5.264	6.162	5.873	5.857	6.055	5.962	6.377	6.003	5.820	5.616	5.745	5.205	5.416	5.513	5.214	5.315	5.128	5.234	5.455	4.903	5.774
450.0	 1210	 3521	 1780	682.7	792.9	933.1	 1017	 1124	 1189	 1198	 1172	 1148	 1065	 1010	954.6	910.4	868.7	860.9	852.1	842.2	841.7	841.1	839.8	824.1	821.1	805.0	779.0	756.0	716.6	682.5	615.9	542.0	469.2	429.8	386.6	296.1	223.9	175.2	144.9	117.6	98.05	98.61	132.1	568.0	 2638	9999.9	9999.9	 7712	32.20	11.83	8.366	7.382	6.501	6.191	5.534	5.623	5.923	5.900	5.811	5.616	5.762	5.758	5.782	5.728	5.735	5.728	5.555	5.201	5.278	5.275	5.424	4.935	5.339	4.799	4.992	5.290	5.465
455.0	485.9	 2577	 5050	784.8	721.4	878.4	943.8	 1052	 1126	 1139	 1109	 1063	991.9	935.4	877.0	839.1	797.6	789.9	783.5	773.7	766.9	762.6	769.9	758.7	745.1	737.7	725.9	707.6	679.8	644.9	591.7	527.7	452.8	399.0	359.7	331.3	252.0	189.9	157.3	127.7	106.4	88.17	82.31	170.0	624.2	 2275	 5191	9999.9	9999.9	38.11	11.50	9.327	7.296	6.702	6.115	5.327	5.959	5.352	5.408	5.675	6.060	5.367	5.521	5.632	5.568	5.416	5.269	5.121	4.593	4.544	4.972	4.991	4.528	4.687	4.763	4.690	5.446
460.0	298.7	 1171	 6698	 1411	670.4	819.5	884.1	990.3	 1057	 1080	 1059	 1010	931.6	885.5	825.0	774.4	756.5	723.1	724.0	717.9	708.6	710.1	714.9	705.5	694.2	682.9	677.2	665.5	646.2	618.4	572.7	507.2	439.7	387.1	336.9	325.4	279.9	206.6	164.3	136.3	111.0	90.98	76.15	85.68	175.7	540.3	 1239	 7329	9999.9	 2462	30.97	11.35	8.999	7.725	6.488	5.795	5.691	5.168	5.045	5.297	5.397	6.019	5.446	5.366	5.438	5.342	4.510	4.879	4.711	4.440	4.894	4.806	4.771	4.554	4.265	4.940	5.074
465.0	272.6	533.8	 5375	 3567	664.7	769.3	843.3	934.8	 1003	 1034	 1011	942.4	885.9	834.9	778.8	728.9	703.5	682.6	684.4	669.0	659.9	662.5	662.0	663.4	656.3	648.7	635.6	616.8	621.4	586.5	545.2	485.2	431.2	376.1	323.9	299.4	286.3	230.4	174.2	139.5	114.8	97.22	77.83	70.86	79.63	154.2	308.6	 1830	 9906	9999.9	 2074	27.38	10.74	7.822	6.682	6.436	5.967	5.540	5.566	5.417	5.436	5.436	5.316	5.143	4.896	4.986	4.524	4.718	4.394	4.350	4.191	4.471	4.302	4.401	4.137	4.576	4.318
470.0	252.0	361.4	 2195	 5723	 1557	691.7	755.3	865.1	902.1	925.0	931.9	878.2	817.9	761.2	715.5	656.3	633.1	615.7	615.9	605.8	588.8	597.1	598.2	593.5	589.1	588.8	575.5	567.7	558.7	541.1	507.4	455.7	406.2	354.7	311.7	276.1	258.4	241.1	192.7	146.5	121.3	102.3	84.56	72.38	64.09	72.33	100.5	436.4	 2456	 7873	9999.9	 5987	146.9	10.95	7.976	6.819	6.374	5.588	5.220	5.136	5.106	5.095	4.604	4.845	4.589	4.498	4.376	4.233	4.481	4.415	3.896	4.226	4.336	4.271	3.761	4.161	4.342
475.0	232.3	286.1	793.9	 3960	 3622	749.8	672.3	759.3	829.5	852.6	854.5	799.1	737.4	690.5	642.5	596.6	567.5	546.4	545.7	536.8	523.8	530.4	524.6	534.9	528.6	521.5	513.1	508.6	497.3	493.2	467.3	427.7	381.7	333.9	293.4	259.1	229.6	220.1	207.5	158.3	124.4	105.5	88.26	73.82	62.74	56.58	55.79	126.2	569.9	 1781	 3880	9999.9	 7607	43.79	10.13	7.974	6.709	6.191	5.086	5.259	4.985	4.854	4.338	4.523	4.435	3.630	3.958	4.290	4.039	3.952	3.689	3.356	3.460	3.953	3.643	3.777	3.696
480.0	229.9	277.4	422.5	 1742	 4295	 1513	623.0	708.5	764.0	783.3	786.7	750.9	697.0	649.8	591.7	544.6	516.6	501.1	498.8	493.9	483.6	484.9	478.2	490.4	481.3	473.8	471.4	474.0	462.5	452.4	431.1	396.5	358.6	318.9	280.2	251.8	216.2	199.2	200.5	173.6	130.1	108.9	90.71	76.30	63.93	55.61	49.03	57.94	150.6	418.3	904.7	 4888	9999.9	 2776	33.19	8.659	7.075	6.303	5.423	5.351	4.572	4.838	4.329	4.139	4.543	3.555	3.302	4.048	3.593	3.724	3.543	3.243	3.253	3.546	3.408	3.598	3.970
485.0	188.3	268.0	361.9	721.3	 3214	 3070	651.1	649.9	716.1	738.8	731.3	693.2	642.2	600.4	546.9	505.9	483.5	468.0	461.9	456.0	444.8	440.6	436.1	445.1	440.0	442.9	437.3	437.7	429.0	419.0	403.0	374.1	337.7	301.8	264.2	238.6	211.7	189.0	179.8	176.4	143.2	110.0	89.63	77.07	65.95	56.60	47.43	43.55	58.59	114.7	220.5	 1179	 6650	9999.9	 2163	24.77	8.167	7.106	5.365	5.378	4.466	4.430	4.321	4.165	3.957	3.732	3.518	3.621	3.628	3.631	3.438	3.381	3.207	3.092	3.373	3.317	3.581
490.0	171.2	253.3	328.8	444.2	 1361	 4167	 1583	598.0	662.5	679.1	659.1	632.7	595.0	544.9	503.8	465.6	441.1	425.1	406.7	409.7	401.9	394.6	396.6	397.3	396.8	395.3	391.9	396.1	388.4	378.5	367.1	343.4	313.2	282.1	248.1	223.6	201.1	178.6	162.9	158.1	149.5	119.7	91.27	78.36	67.47	58.60	48.69	42.02	39.87	48.12	68.28	280.0	 1606	 5486	9999.9	 4952	33.10	8.985	6.846	5.907	4.968	4.646	4.081	4.099	3.691	3.433	3.186	3.018	3.548	3.253	3.176	2.911	3.209	2.779	3.343	3.304	3.131
495.0	166.3	194.5	316.5	338.4	601.5	 2513	 3915	684.2	604.4	604.6	596.4	582.9	547.3	493.6	445.8	416.4	390.2	376.7	363.1	360.1	353.1	354.5	348.7	353.3	349.5	350.2	345.4	348.5	349.6	344.5	329.5	309.6	283.6	252.3	233.0	205.8	187.1	171.0	152.7	139.8	136.9	127.9	100.8	78.29	68.88	57.62	50.34	42.57	36.97	35.05	34.25	78.71	372.4	 1240	 3407	9999.9	 3144	44.91	8.949	6.334	5.147	5.523	4.046	3.485	3.734	3.304	3.121	2.941	3.503	3.187	2.759	2.838	2.907	2.663	2.668	2.884	3.021
500.0	150.1	178.8	303.9	312.9	397.2	 1084	 4738	 1574	536.9	568.0	559.5	530.1	494.1	454.7	413.0	375.7	358.1	347.4	329.3	325.1	318.0	323.1	315.9	318.9	317.6	322.4	320.3	318.4	317.5	319.4	305.9	283.7	262.8	239.4	215.1	197.1	174.8	162.1	144.4	129.3	120.9	123.4	106.6	81.70	68.20	60.36	51.55	43.17	37.24	32.74	27.64	34.25	96.99	289.8	787.4	 4362	9999.9	 2854	34.85	7.903	5.967	5.123	4.118	3.706	3.655	3.182	2.901	2.809	3.487	2.804	2.684	2.901	2.707	2.552	2.358	2.300	2.847
505.0	135.0	159.7	277.0	315.7	323.9	518.3	 3530	 3446	518.9	531.3	517.9	500.4	457.7	419.1	386.5	353.3	329.6	316.3	305.1	298.0	292.2	293.4	289.6	291.8	290.8	289.0	292.3	289.2	292.0	285.4	278.6	259.8	243.3	221.7	204.1	183.0	165.3	151.7	138.5	120.2	112.6	108.3	107.1	87.93	68.36	59.31	51.43	44.44	37.58	32.01	26.49	25.63	36.81	78.93	189.5	 1037	 5955	9999.9	 2181	23.09	6.444	5.356	4.426	3.934	3.720	3.060	2.913	3.117	2.605	2.549	2.510	2.419	2.270	2.770	2.455	2.282	2.527
510.0	119.7	143.9	227.1	318.8	296.5	356.0	 1426	 4700	 1593	470.0	463.5	438.8	407.0	377.3	345.4	314.4	291.3	275.5	268.3	264.8	255.8	253.1	257.1	253.7	253.2	256.6	256.8	259.0	257.4	252.8	246.3	235.0	217.4	198.8	181.9	166.5	151.7	138.7	126.1	112.9	102.8	95.49	93.84	89.35	73.10	57.82	49.90	44.32	37.10	31.55	27.92	23.18	23.67	31.17	54.34	243.2	 1432	 5168	 8803	 3932	31.67	6.319	4.920	4.285	3.547	3.176	2.822	3.111	2.539	2.629	2.526	2.055	2.189	2.461	2.166	2.154	2.316
515.0	106.4	128.3	193.2	251.6	293.5	279.6	561.5	 2824	 4595	563.3	407.7	390.3	351.6	333.1	304.5	270.3	254.5	246.4	230.5	229.1	225.9	224.2	221.1	216.0	220.8	223.1	224.8	226.2	226.6	220.7	216.0	205.0	191.5	175.0	163.4	148.3	135.4	124.4	114.4	103.6	93.83	87.08	78.70	80.68	77.66	61.36	49.50	42.34	37.41	31.52	27.38	23.36	21.84	20.47	24.62	65.87	329.3	 1163	 3009	 9006	 3038	42.37	6.097	4.307	3.906	3.601	2.903	2.621	2.456	2.158	2.369	2.131	1.939	2.110	2.134	1.783	2.056
520.0	98.31	126.2	166.0	213.3	286.7	270.0	349.6	 1153	 5743	 1661	370.1	355.0	318.4	297.8	272.5	248.6	231.7	215.7	212.9	206.9	203.1	197.5	194.7	197.7	193.8	199.8	201.0	205.1	198.5	197.9	195.8	186.0	173.1	162.6	149.7	133.7	122.4	113.9	106.1	95.33	88.41	78.38	72.27	68.47	74.07	65.22	48.80	39.95	35.66	30.72	26.67	24.14	20.67	18.57	17.45	26.26	83.92	269.1	695.5	 3852	 9021	 2497	29.95	5.524	3.799	3.460	2.934	2.687	2.550	2.249	2.218	1.828	2.113	1.686	1.942	1.728	1.934
525.0	80.65	125.9	163.5	176.9	265.4	237.7	268.6	485.9	 4250	 4058	369.7	308.9	298.7	270.3	248.4	224.6	211.4	199.1	192.3	185.5	182.3	178.9	177.0	181.2	177.5	175.3	184.9	183.8	179.0	184.9	174.7	170.1	159.2	144.1	136.1	121.8	113.4	104.1	97.14	89.21	81.32	74.20	66.64	63.01	63.84	64.11	51.28	39.27	33.70	29.75	25.56	22.17	19.55	17.91	16.08	17.08	28.98	69.73	164.1	915.6	 4850	 8352	412.9	17.35	4.948	3.774	3.339	2.660	2.397	2.459	1.983	1.721	1.798	1.679	1.859	1.595	1.656
530.0	82.09	103.1	143.4	154.2	212.2	262.6	227.6	299.4	 1585	 5824	 1657	278.9	268.1	243.4	216.2	200.1	183.5	178.5	167.1	161.3	161.1	159.2	154.4	153.0	154.2	155.2	159.9	156.8	156.9	160.9	153.8	147.3	136.8	127.7	119.7	110.3	100.5	92.07	86.01	79.49	75.07	66.26	61.05	56.12	53.37	55.92	53.81	42.18	33.66	28.44	24.49	21.67	18.80	17.45	15.59	14.35	16.04	24.29	44.62	211.8	 1161	 4029	 5890	 1765	27.49	4.534	3.251	2.728	2.363	2.251	2.090	1.559	1.703	1.655	1.563	1.550	1.508
535.0	81.97	90.48	123.5	141.3	174.6	258.9	237.4	236.6	543.3	 3262	 5595	396.5	237.9	218.4	188.5	173.6	158.2	154.7	145.0	146.2	135.6	137.4	132.2	130.8	134.0	134.6	136.4	137.5	137.2	135.0	133.1	126.0	118.9	108.6	103.4	95.53	88.07	83.56	75.72	70.21	65.61	58.82	54.69	51.10	46.20	43.84	47.19	45.07	34.51	26.87	23.65	20.21	17.99	16.15	14.51	13.65	12.84	13.22	17.08	53.53	264.5	905.6	 2108	 6118	 2669	35.80	3.947	2.973	2.445	2.114	2.161	1.632	1.624	1.610	1.598	1.491	1.496
540.0	88.64	83.94	117.3	134.9	138.5	205.1	241.6	202.3	289.6	 1180	 6985	 1617	213.9	192.8	168.9	153.8	142.7	135.7	128.1	128.4	121.2	124.6	122.2	116.0	116.5	118.6	118.9	119.5	121.1	121.6	120.2	114.5	108.5	99.05	92.48	86.72	79.20	74.71	69.27	64.09	58.09	54.19	49.17	47.61	41.24	39.05	40.09	43.23	36.60	25.95	21.90	19.35	17.08	15.02	14.49	12.73	11.64	10.72	11.41	18.07	65.57	207.7	488.5	 2765	 6424	 1885	21.99	3.449	2.535	2.199	1.930	1.583	1.528	1.452	1.617	1.332	1.163
545.0	84.16	81.40	112.6	114.2	133.9	167.0	244.7	194.6	219.8	443.9	 4968	 3678	221.3	174.8	156.0	141.5	126.1	120.7	110.9	114.6	109.6	110.5	106.2	104.7	101.9	105.7	104.8	105.1	108.8	108.9	106.2	102.0	95.82	88.61	81.04	77.58	70.71	67.46	62.90	57.81	52.83	51.43	44.72	42.74	38.92	34.05	33.54	37.95	36.03	27.50	21.90	17.80	16.03	14.30	13.16	12.10	10.87	9.699	8.870	9.912	20.42	51.67	114.3	662.8	 3642	 5609	379.9	8.285	2.772	2.692	1.896	1.578	1.439	1.491	1.351	1.285	1.095
550.0	66.88	71.42	91.88	92.02	110.9	125.8	208.0	202.5	181.8	248.6	 1691	 6228	 1406	153.0	131.0	120.5	105.8	101.5	95.28	97.22	92.08	89.89	91.97	90.49	88.15	88.03	89.04	90.23	91.88	91.63	90.39	85.41	79.91	75.46	70.46	65.16	60.41	57.48	53.74	48.87	46.39	42.96	38.84	36.32	33.95	31.30	28.31	29.54	30.32	28.18	21.25	16.31	14.49	12.99	12.01	10.99	10.23	8.866	8.028	7.967	9.665	16.17	30.35	152.5	882.8	 2899	 3499	 1373	22.78	3.405	2.077	1.954	1.417	1.355	1.155	1.041	1.115
555.0	60.49	77.02	85.29	83.22	88.68	93.20	140.2	217.9	159.3	169.1	500.5	 3237	 5665	242.9	109.6	102.3	90.32	83.73	79.42	80.08	75.71	74.72	73.49	72.87	72.89	72.17	75.82	73.47	73.96	71.52	75.56	71.52	66.61	62.91	61.01	53.96	50.23	48.15	44.65	41.60	39.29	35.85	33.18	29.98	28.92	26.14	23.49	22.89	22.06	25.32	21.85	15.21	12.78	11.84	10.52	9.899	8.936	8.300	8.269	6.905	6.999	8.264	10.94	38.50	201.0	652.2	 1426	 4062	 1739	28.16	2.750	1.717	1.482	1.242	1.094	1.192	0.896
560.0	56.18	59.39	75.60	77.43	72.89	82.85	108.9	202.9	161.9	139.0	216.6	 1070	 7071	 1282	98.16	85.39	77.06	71.35	70.13	69.19	66.30	64.53	62.77	62.44	60.86	62.27	64.73	62.77	62.20	62.63	64.74	58.42	56.84	54.41	51.04	46.43	43.71	40.80	37.96	35.08	32.52	31.13	29.33	26.43	25.05	22.52	21.03	19.50	18.28	20.25	20.44	15.96	12.22	10.32	9.435	9.564	8.162	7.485	7.338	6.573	6.028	5.938	6.720	12.69	48.86	149.2	334.2	 1940	 3892	406.2	11.88	2.244	1.835	1.070	1.452	1.346	0.977
565.0	64.10	62.42	68.29	74.36	66.70	73.84	91.79	162.1	177.4	130.4	151.2	360.3	 4788	 4094	108.7	79.88	66.48	65.25	58.32	57.58	55.74	54.63	51.96	52.33	51.87	51.96	52.81	52.61	54.17	54.86	53.75	51.71	49.44	45.07	42.80	38.29	37.42	34.95	33.63	29.40	27.93	26.39	24.70	23.07	22.07	19.93	17.97	16.49	15.48	16.19	16.95	15.77	11.75	9.555	8.383	8.101	7.496	6.791	6.609	6.211	5.515	5.298	5.352	6.611	14.22	37.07	78.65	474.9	 2385	 2998	298.6	4.070	1.962	1.462	1.372	1.443	0.926
570.0	54.18	67.77	70.48	61.79	68.11	61.49	79.00	113.8	181.8	133.7	125.1	171.0	 1527	 6117	 1058	68.11	56.15	52.67	48.24	46.81	45.74	43.86	43.72	42.37	41.40	42.27	43.81	42.89	43.47	44.33	43.21	40.77	39.66	36.18	34.58	32.62	29.74	28.42	27.39	24.63	23.27	21.49	20.42	19.19	18.07	16.51	14.49	13.96	13.28	12.48	12.52	13.52	11.39	8.740	7.606	6.872	6.735	6.510	6.144	5.751	5.512	5.015	5.249	5.190	6.888	11.73	21.25	109.8	590.4	 1718	 2178	728.3	17.21	1.690	1.443	1.156	1.073
575.0	49.45	59.29	71.03	55.23	66.45	50.83	64.89	80.90	145.0	158.0	114.9	120.7	419.0	 2990	 5074	145.8	47.48	42.35	39.03	37.29	36.99	36.55	34.12	34.30	33.98	33.73	34.68	32.78	33.00	33.52	33.50	30.45	29.68	29.34	27.98	25.98	23.64	23.26	21.44	19.70	18.82	17.38	15.89	15.26	14.06	13.11	12.49	10.89	10.69	9.770	9.086	9.685	10.20	9.013	7.048	6.107	5.765	5.480	5.464	5.346	4.958	4.887	4.831	4.886	4.893	5.926	8.379	27.87	135.0	388.4	913.7	 2254	411.5	17.02	1.485	1.191	0.812
580.0	50.98	59.62	59.22	58.68	55.33	51.14	56.02	72.74	104.6	180.6	110.6	107.4	168.2	921.4	 6444	 1031	41.28	37.22	33.99	33.75	29.85	31.03	29.09	28.61	27.72	28.99	27.72	26.81	29.81	27.19	27.47	26.56	26.18	24.51	22.60	20.15	20.34	19.04	17.85	16.45	16.31	15.08	13.53	11.83	12.22	11.55	10.85	9.861	9.544	8.710	7.769	7.565	8.036	9.282	6.566	6.040	4.778	4.810	4.860	4.538	4.692	4.673	4.442	4.592	4.008	4.651	5.229	9.094	32.75	89.54	216.1	 1165	 1965	316.9	4.880	1.222	0.815
585.0	51.91	55.68	63.00	57.78	52.96	49.68	55.69	66.49	78.97	175.4	120.2	100.4	110.6	269.5	 4217	 3512	50.01	33.83	30.49	28.46	25.91	25.09	25.74	24.16	24.39	23.86	24.58	23.74	24.01	24.18	24.11	23.26	23.61	20.45	19.02	17.29	17.07	15.80	15.68	14.16	14.83	13.30	11.45	10.55	10.69	9.785	9.100	8.748	8.122	7.334	6.540	6.597	6.354	7.898	7.060	6.176	4.551	4.449	4.089	3.727	4.028	4.257	4.544	4.382	3.917	4.041	3.836	4.744	9.887	22.98	51.11	290.3	 1358	 1577	52.82	2.063	0.938
590.0	52.82	50.54	56.11	50.70	45.21	46.70	50.59	56.56	66.71	123.6	160.2	97.39	90.57	113.1	 1282	 5176	785.6	30.89	24.82	24.03	23.25	21.69	21.40	19.59	19.89	19.49	19.63	19.92	19.79	20.46	20.19	19.05	18.24	16.69	16.19	14.43	14.44	12.69	13.03	12.04	11.68	10.57	9.487	8.958	8.993	8.257	7.529	7.521	6.915	6.735	5.531	5.319	5.153	5.677	6.281	6.116	4.437	3.782	3.440	3.482	3.574	3.335	3.753	3.807	3.653	3.288	3.161	3.305	4.498	7.194	13.36	66.77	343.2	988.6	 1162	233.9	12.43
595.0	42.19	47.55	57.80	52.92	42.68	38.35	46.99	54.31	56.74	83.80	161.0	111.6	84.18	75.36	321.9	 2405	 4077	89.61	21.02	20.18	17.75	17.63	17.24	16.05	16.34	15.53	16.10	15.97	16.17	16.31	16.25	15.62	14.30	14.06	12.81	11.83	12.13	10.70	10.58	10.06	9.390	8.215	7.875	7.629	6.897	6.566	6.460	5.855	5.369	5.613	4.860	4.460	4.232	3.676	4.920	5.753	4.318	3.377	3.254	2.758	2.862	2.458	2.834	3.026	3.211	3.170	2.832	2.783	2.880	3.523	4.557	16.21	77.67	223.6	537.1	 1234	338.4
600.0	38.33	49.92	55.11	53.06	42.48	35.61	40.09	44.07	52.35	75.70	134.2	142.0	83.56	65.77	105.9	706.4	 5128	733.2	20.93	18.18	16.00	15.21	15.64	14.23	13.82	13.29	13.64	13.61	14.61	14.34	14.64	13.45	11.41	11.76	11.54	10.45	10.63	9.150	9.209	8.417	7.353	7.534	6.622	6.777	6.268	5.875	5.191	5.194	4.610	4.393	4.210	3.779	3.419	3.394	3.538	4.563	4.470	3.399	2.612	2.682	2.655	2.175	2.513	2.429	2.753	2.796	2.240	2.322	2.300	2.502	2.229	5.088	18.55	50.84	129.0	704.6	 1097
605.0	36.09	43.81	55.69	53.71	40.36	38.72	39.57	42.61	54.05	64.85	103.6	152.1	88.64	64.39	60.14	189.5	 3329	 2729	31.38	16.29	15.51	13.26	13.48	13.42	12.47	12.78	12.51	11.41	11.71	11.85	11.82	11.51	10.52	9.648	9.175	8.825	8.715	8.342	10.21	7.102	5.795	6.919	5.693	5.476	5.192	4.815	4.583	4.611	3.937	4.020	3.369	3.251	3.117	2.958	3.181	3.160	4.589	3.317	2.571	2.417	2.284	2.230	2.166	2.230	1.957	2.454	2.505	2.281	2.302	2.198	2.083	2.442	5.254	12.30	29.91	181.6	795.6
610.0	35.06	44.37	53.72	49.59	41.36	36.16	38.76	42.82	50.81	65.29	80.19	136.6	107.1	63.23	47.57	67.51	997.3	 4120	624.2	15.34	13.60	11.66	10.82	10.43	9.918	10.21	9.707	9.782	9.528	9.840	9.487	9.124	8.780	8.185	7.811	7.426	7.278	6.516	8.155	5.657	5.241	5.460	4.595	4.740	4.127	4.086	3.955	3.931	3.363	3.165	2.850	2.944	2.606	2.425	2.519	2.336	3.139	3.665	2.691	2.041	2.077	2.141	2.107	1.889	1.858	2.029	2.264	2.328	1.918	1.840	1.915	1.662	2.157	3.595	7.701	41.51	204.1
615.0	35.15	42.15	49.45	51.60	35.48	42.85	35.36	45.22	48.64	57.28	68.56	102.9	128.7	66.61	45.44	39.35	241.3	 1948	 3359	63.85	11.40	10.14	9.449	8.670	8.117	9.690	8.395	8.242	8.260	7.869	8.215	7.571	7.170	6.394	6.059	6.056	5.982	5.278	5.520	4.727	4.646	4.343	3.514	3.820	3.464	3.629	3.554	3.154	2.656	2.782	2.448	2.364	2.059	2.011	2.235	2.013	2.065	2.632	2.640	2.069	1.955	1.794	1.785	1.575	1.525	1.622	1.802	1.869	1.825	1.777	1.582	1.476	1.283	1.548	2.550	9.747	46.16
620.0	28.06	45.33	47.78	43.47	31.07	36.26	36.28	40.79	45.17	52.93	65.76	78.35	122.8	74.70	44.51	34.34	71.99	565.3	 4285	617.5	12.36	9.327	8.079	7.719	8.043	7.492	7.457	7.424	6.626	6.505	6.377	6.078	6.011	5.389	5.852	5.531	4.959	5.038	4.124	3.889	4.019	3.575	3.124	3.419	3.097	2.967	3.286	2.967	2.590	2.115	1.964	2.371	2.000	1.708	1.724	1.572	1.618	2.246	2.199	1.937	1.615	1.525	1.366	1.462	1.530	1.490	1.817	1.586	1.910	1.880	1.528	1.123	0.842	1.151	1.370	2.754	10.99
625.0	24.79	33.44	45.26	42.83	34.94	32.25	28.72	36.08	44.18	53.16	63.45	69.57	103.9	95.45	46.25	30.59	32.19	145.6	 2800	 2326	20.18	9.809	7.876	7.105	6.481	6.590	6.429	6.748	6.292	6.191	6.232	5.696	5.566	5.229	4.990	5.159	4.206	4.390	3.978	3.251	3.445	3.597	3.202	2.794	2.963	2.594	2.218	2.518	2.154	1.935	1.815	1.794	1.924	1.597	1.510	1.461	1.242	1.726	2.098	1.996	1.645	1.371	1.249	1.247	1.281	1.343	1.397	1.278	1.605	1.527	1.135	1.037	0.737	1.135	0.879	1.201	3.101
630.0	27.15	33.83	37.55	43.90	31.92	28.38	25.68	34.50	40.30	49.27	62.58	65.39	82.02	104.3	52.72	30.41	25.18	47.11	831.5	 3517	518.8	9.338	7.357	6.814	6.338	5.544	5.737	5.314	5.191	5.106	4.900	5.096	4.713	4.532	4.177	4.250	3.519	3.661	3.236	2.917	2.797	3.023	2.613	2.244	2.377	2.285	1.939	2.093	1.805	1.720	1.545	1.552	1.384	1.588	1.140	1.352	1.246	1.314	1.650	1.585	1.680	1.439	1.327	1.241	1.144	1.301	0.976	1.261	1.158	1.177	1.195	1.104	0.852	0.802	0.664	0.780	1.249
635.0	29.12	30.51	40.18	37.73	29.90	25.35	22.34	33.21	41.58	46.61	56.94	62.56	69.94	87.67	67.46	29.79	24.53	24.25	197.2	 1647	 2804	51.46	8.365	6.483	5.651	5.426	4.941	4.204	4.684	4.690	4.093	4.437	3.818	4.101	3.434	3.521	2.806	3.147	3.032	2.939	2.530	2.754	2.063	2.063	1.871	1.835	1.798	1.531	1.551	1.323	1.253	1.186	1.312	1.487	1.232	0.986	0.954	0.978	1.179	1.425	1.261	1.294	1.243	0.899	1.082	1.039	0.840	1.206	0.988	1.022	1.094	0.959	0.881	0.755	0.522	0.637	0.731
640.0	24.82	35.81	38.14	34.81	33.14	29.23	29.67	29.28	35.60	47.46	55.40	59.48	65.02	75.71	80.44	35.33	24.30	18.71	54.38	472.7	 3572	522.2	7.762	5.735	5.331	5.993	4.585	3.750	3.942	4.158	3.850	3.738	2.968	3.445	3.165	2.971	2.726	2.831	2.480	2.651	2.278	2.188	1.965	1.731	1.888	1.549	1.629	1.373	1.549	1.337	1.230	1.069	0.868	1.102	1.087	1.008	1.068	0.869	1.039	1.054	1.143	1.235	1.266	0.939	1.122	1.161	0.964	1.044	1.023	0.812	0.970	0.880	0.952	0.903	0.613	0.551	0.627
645.0	26.57	31.60	39.15	33.65	33.88	25.61	25.95	28.87	33.87	48.56	55.57	57.27	59.84	64.32	76.50	44.14	23.07	16.88	22.81	120.2	 2350	 1933	14.93	6.410	5.567	4.968	4.304	3.570	3.568	3.809	3.239	3.110	3.431	3.020	2.643	2.773	2.615	2.274	2.304	1.817	1.892	1.832	1.739	1.573	1.630	1.318	1.623	1.412	1.426	1.117	1.094	1.201	0.905	1.012	0.871	0.890	1.004	0.861	0.845	0.938	1.024	1.233	1.252	0.842	0.921	0.919	0.805	0.795	0.918	0.904	0.807	0.767	1.076	0.853	0.703	0.516	0.643
650.0	36.30	31.79	41.38	35.63	32.98	23.64	28.70	29.02	30.13	41.20	52.47	57.35	60.40	56.36	67.75	54.62	23.87	19.12	17.36	36.23	849.3	 3202	93.69	6.240	4.938	4.593	4.574	3.396	3.914	3.763	2.832	3.401	2.849	2.590	2.337	2.468	2.521	2.179	1.830	1.852	1.722	1.668	1.695	1.837	1.387	1.247	1.398	1.168	1.321	1.089	1.133	1.119	0.803	0.875	0.861	0.897	0.734	0.860	0.875	0.833	0.836	0.976	1.072	1.013	0.910	0.842	0.855	0.687	0.769	0.930	0.665	0.881	0.853	0.691	0.563	0.682	0.727
