Sample:	'1
File name:	Default_20230725_152801.FD3
Run date:	'15:21:40, 07/25/2023
Operator:	dsjg
Comment:	'

Instrument
Model:	F-2700 FL Spectrophotometer
Serial number:	2198-001
ROM Version:	4J14000 07

Instrument parameters
Measurement type:	3-D scan
Data mode:	Fluorescence
EX  Start WL:	220.0 nm
EX  End WL:	600.0 nm
EX Sampling interval:	5.0 nm
EM  Start WL:	230.0 nm
EM  End WL:	650.0 nm
EM Sampling interval:	5.0 nm
Scan speed:	12000 nm/min
EX Slit:	5.0 nm
EM Slit:	5.0 nm
PMT Voltage:	700 V
Response:	Auto 
Corrected spectra:	Off
Contour interval:	50.000

Peak integration
Integration method:	Rectangular
Sensitivity:	1
Threshold:	1.000

Peaks
No.	ApexEX/EM(nm)	Height(Data)
1	225.0/340.0	994.5
2	225.0/605.0	34.85
3	225.0/620.0	27.88
4	230.0/365.0	952.8
5	245.0/390.0	 1093
6	250.0/400.0	 1082
7	260.0/385.0	 1069
8	265.0/390.0	 1072
9	270.0/590.0	56.04
10	275.0/305.0	656.9
11	275.0/605.0	48.73
12	505.0/400.0	5.299
13	510.0/405.0	5.167
14	530.0/385.0	5.234

Data points
	220.0	225.0	230.0	235.0	240.0	245.0	250.0	255.0	260.0	265.0	270.0	275.0	280.0	285.0	290.0	295.0	300.0	305.0	310.0	315.0	320.0	325.0	330.0	335.0	340.0	345.0	350.0	355.0	360.0	365.0	370.0	375.0	380.0	385.0	390.0	395.0	400.0	405.0	410.0	415.0	420.0	425.0	430.0	435.0	440.0	445.0	450.0	455.0	460.0	465.0	470.0	475.0	480.0	485.0	490.0	495.0	500.0	505.0	510.0	515.0	520.0	525.0	530.0	535.0	540.0	545.0	550.0	555.0	560.0	565.0	570.0	575.0	580.0	585.0	590.0	595.0	600.0
230.0	192.5	 2925	 4899	 1085	27.33	7.389	5.239	4.678	4.591	3.721	3.886	3.445	3.148	2.853	2.475	2.358	2.235	2.185	2.049	2.021	1.875	1.823	1.716	1.675	1.742	1.687	1.525	1.512	1.483	1.462	1.482	1.452	1.489	1.341	1.263	1.306	1.323	1.258	1.179	1.115	1.078	1.136	1.136	1.004	0.928	0.840	1.837	8.592	19.06	17.28	7.686	1.798	0.652	0.562	0.512	0.484	0.480	0.463	0.468	0.390	0.377	0.351	0.333	0.282	0.336	0.322	0.325	0.285	0.226	0.226	0.175	0.178	0.155	0.145	0.148	0.132	0.119
235.0	88.12	869.6	 3635	 4825	559.4	42.25	6.140	6.670	5.230	4.719	3.996	4.363	3.992	3.172	2.439	2.875	2.361	2.359	1.796	1.991	1.856	1.759	1.655	1.793	1.632	1.742	1.606	1.594	1.578	1.593	1.332	1.269	1.342	1.333	1.284	1.132	1.277	1.398	1.235	1.105	1.091	0.960	0.940	1.122	1.121	0.927	1.035	2.541	6.212	10.86	16.54	20.79	11.35	2.846	0.629	0.486	0.499	0.452	0.405	0.384	0.366	0.318	0.325	0.343	0.327	0.292	0.262	0.288	0.251	0.192	0.200	0.167	0.188	0.124	0.221	0.178	0.157
240.0	90.53	226.2	 1283	 4811	 4504	461.6	20.13	9.385	7.836	5.502	5.475	4.816	4.290	3.417	2.984	3.112	2.375	2.256	2.228	2.171	1.874	2.034	1.693	1.776	1.799	1.637	1.710	1.497	1.492	1.572	1.413	1.319	1.245	1.241	1.248	1.169	1.164	1.224	1.218	1.164	1.069	0.943	0.964	1.062	1.150	1.106	0.906	1.225	1.940	3.318	7.206	19.10	26.53	20.78	8.322	1.518	0.513	0.495	0.410	0.403	0.270	0.361	0.343	0.318	0.330	0.334	0.283	0.254	0.256	0.214	0.192	0.221	0.136	0.160	0.146	0.097	0.141
245.0	78.14	115.0	320.8	 2003	 6342	 3917	331.0	13.08	8.412	6.163	7.165	6.173	4.268	3.817	3.505	3.568	2.488	2.250	2.469	2.301	2.062	2.077	1.974	1.930	1.958	1.759	1.777	1.629	1.564	1.598	1.421	1.443	1.399	1.339	1.131	1.291	1.174	1.170	1.213	1.080	1.055	1.107	0.974	1.042	0.909	1.134	1.291	1.068	1.169	1.292	2.202	6.272	15.71	29.13	27.03	18.21	5.340	0.789	0.527	0.500	0.373	0.398	0.409	0.315	0.313	0.321	0.287	0.311	0.260	0.249	0.208	0.177	0.124	0.160	0.171	0.140	0.090
250.0	33.90	87.87	146.9	501.1	 2432	 5970	 6002	 1445	80.79	9.568	8.040	7.548	5.709	4.914	3.865	3.616	3.179	2.677	2.535	2.455	2.338	2.027	2.019	1.996	1.997	1.895	1.802	1.757	1.769	1.789	1.504	1.498	1.338	1.361	1.179	1.252	1.175	1.088	1.159	1.129	1.143	1.207	1.020	1.035	0.958	0.994	0.972	0.922	1.160	1.061	1.145	1.978	4.240	9.360	16.41	27.04	30.97	30.83	13.42	5.322	0.751	0.468	0.458	0.410	0.346	0.326	0.331	0.279	0.301	0.237	0.217	0.202	0.181	0.188	0.208	0.181	0.112
255.0	20.06	33.79	103.3	201.6	575.3	 1719	 6390	9999.9	 2172	106.0	12.36	11.04	7.680	6.753	5.031	4.173	3.560	3.056	3.318	2.968	2.908	2.481	2.069	2.168	2.072	1.859	2.100	1.940	1.957	1.718	1.777	1.453	1.465	1.363	1.164	1.202	1.070	1.009	1.106	1.077	1.115	1.253	1.046	1.028	0.992	1.062	1.001	0.889	0.977	0.909	1.059	1.336	1.556	2.531	4.209	6.844	12.11	29.67	50.54	54.16	21.18	6.030	0.702	0.491	0.393	0.333	0.387	0.270	0.278	0.270	0.212	0.227	0.200	0.244	0.178	0.183	0.124
260.0	17.57	20.45	49.86	134.1	208.5	412.2	 2255	 9589	9999.9	 1747	59.13	14.91	9.558	8.187	6.392	4.999	4.341	3.356	3.442	3.188	3.146	2.585	2.291	2.236	2.142	2.183	2.213	1.978	1.904	1.884	1.944	1.598	1.449	1.338	1.328	1.313	1.122	1.136	1.099	1.074	1.081	1.077	1.041	1.115	0.995	0.847	0.881	0.952	0.907	0.787	0.919	1.223	1.341	1.217	1.460	2.034	3.280	8.469	23.17	50.47	68.13	29.26	16.71	2.448	0.451	0.458	0.346	0.333	0.279	0.270	0.284	0.265	0.262	0.220	0.125	0.225	0.140
265.0	17.28	17.72	21.23	73.16	153.1	151.5	543.6	 3721	9999.9	9999.9	 1380	29.82	13.39	10.22	7.847	5.884	5.066	4.213	3.876	3.629	3.154	2.826	2.957	2.518	2.451	2.290	2.158	2.298	2.013	2.084	1.982	1.751	1.528	1.414	1.460	1.381	1.212	1.089	1.089	1.025	1.102	1.009	1.057	1.167	1.040	0.969	0.917	0.857	0.848	0.774	0.858	0.832	1.213	1.213	1.154	1.031	1.230	2.433	5.909	16.31	39.46	66.73	78.95	26.53	10.78	0.858	0.442	0.467	0.391	0.324	0.257	0.248	0.218	0.209	0.182	0.241	0.186
270.0	24.22	23.04	20.30	31.76	83.25	138.0	193.5	890.9	 3777	9999.9	9999.9	 5358	88.76	15.53	10.44	7.606	6.356	5.383	4.626	3.830	3.443	3.303	3.197	2.732	2.612	2.537	2.340	2.404	2.017	2.059	1.934	1.787	1.662	1.604	1.505	1.326	1.199	1.249	1.164	1.156	1.049	1.047	1.122	1.147	1.073	1.041	0.995	0.939	0.885	0.791	0.760	0.730	0.798	0.920	1.075	1.103	1.165	1.245	1.809	4.145	9.806	20.84	40.86	58.53	73.76	60.04	17.16	8.380	0.951	0.349	0.329	0.298	0.267	0.255	0.236	0.215	0.200
275.0	51.53	43.41	29.78	23.63	36.83	80.13	170.5	287.5	884.3	 2668	 9078	9999.9	 8554	109.5	17.68	11.06	8.742	6.862	6.009	4.813	4.158	3.743	3.396	3.243	2.850	2.565	2.499	2.498	2.074	2.128	2.102	1.825	1.699	1.659	1.724	1.646	1.531	1.434	1.338	1.210	1.223	1.117	1.204	1.182	1.278	1.195	1.330	1.045	1.049	0.817	0.887	0.714	0.739	0.801	0.744	0.812	1.195	1.424	1.294	1.650	2.716	5.266	9.638	14.26	25.00	52.12	90.64	104.1	26.28	9.076	0.633	0.396	0.327	0.281	0.251	0.240	0.240
280.0	94.81	75.41	47.05	28.88	27.77	43.86	121.6	210.8	283.0	661.6	 2895	9999.9	9999.9	 6462	75.42	16.03	11.56	8.966	6.691	5.669	4.850	4.091	3.896	3.403	2.862	2.598	2.676	2.605	2.296	2.047	2.240	2.109	1.759	1.864	1.831	1.923	1.791	1.541	1.433	1.446	1.322	1.282	1.317	1.195	1.261	1.410	1.385	1.103	1.056	0.951	0.843	0.789	0.792	0.805	0.722	0.726	0.877	1.117	1.408	1.488	1.379	1.839	2.714	3.870	6.343	14.23	37.35	81.95	110.1	93.82	19.91	3.227	0.478	0.422	0.303	0.248	0.310
285.0	152.8	120.8	70.82	41.68	33.16	39.48	74.15	178.5	226.0	253.1	763.0	 3746	9999.9	9999.9	 1042	45.82	15.56	11.26	8.656	7.234	5.949	4.308	4.425	3.609	3.424	3.083	2.772	2.754	2.450	2.391	2.139	2.195	2.090	2.088	2.053	2.082	2.034	1.969	1.715	1.702	1.552	1.434	1.416	1.444	1.381	1.594	1.510	1.293	1.171	1.038	0.940	0.877	0.756	0.781	0.824	0.807	0.891	0.823	1.013	1.382	1.671	1.552	1.429	1.693	2.231	3.869	9.437	23.77	54.38	104.1	119.8	29.89	12.70	0.861	0.349	0.302	0.323
290.0	236.8	209.7	129.2	79.89	55.72	54.28	73.87	134.1	238.8	307.4	368.4	 1054	 3645	9999.9	9999.9	 9006	62.26	17.87	12.91	9.520	7.426	5.644	5.350	4.557	3.626	3.556	3.218	3.081	2.810	2.663	2.314	2.255	2.182	2.298	2.466	2.565	2.490	2.429	2.159	1.992	1.829	1.749	1.750	1.670	1.692	1.677	1.737	1.702	1.546	1.232	1.099	0.886	0.854	0.891	0.912	0.826	0.960	0.892	0.980	1.103	1.373	1.654	1.818	1.823	1.768	2.037	3.232	6.452	13.71	30.19	53.45	72.01	97.01	75.72	17.74	8.717	0.825
295.0	330.8	296.4	210.5	121.6	83.80	81.28	97.47	133.6	216.7	359.9	477.8	556.8	 1061	 2621	 7246	9999.9	 6268	77.52	19.84	13.74	9.968	7.765	6.552	5.524	4.803	4.262	3.808	3.544	3.152	3.063	2.502	2.463	2.384	2.291	2.836	2.852	3.059	2.807	2.585	2.328	2.068	1.805	2.091	1.862	1.896	1.909	1.835	1.874	1.692	1.505	1.186	1.105	1.114	1.053	0.972	0.975	1.000	1.025	1.095	1.080	1.249	1.386	1.745	2.286	2.565	2.371	2.268	2.934	4.303	7.992	12.99	17.47	29.75	55.89	112.4	137.6	28.10
300.0	376.1	359.4	249.1	157.5	111.2	102.1	120.4	154.8	227.6	358.5	543.9	578.2	542.8	780.5	 2183	 9574	9999.9	 5013	57.61	17.50	12.85	9.730	7.512	6.507	5.387	5.097	4.583	4.013	3.591	3.051	2.609	2.425	2.676	2.556	2.796	2.986	3.384	3.005	2.640	2.489	2.229	1.918	2.085	1.874	1.904	2.161	2.034	1.963	1.875	1.622	1.397	1.358	1.218	1.151	1.175	1.130	1.077	1.182	1.238	1.218	1.344	1.455	1.794	2.105	2.648	3.126	2.953	2.686	2.503	3.202	4.181	4.955	7.365	14.89	41.15	98.10	147.5
305.0	413.2	388.0	280.7	181.3	135.6	127.0	147.6	182.0	251.4	361.9	526.5	656.9	514.9	401.8	612.5	 3088	9999.9	9999.9	660.4	41.58	16.79	12.54	8.975	8.289	6.033	5.564	4.822	4.208	4.042	3.434	3.169	2.674	2.737	2.699	3.001	3.210	3.373	3.286	2.837	2.486	2.515	2.180	2.204	2.123	2.085	2.166	2.077	1.980	1.877	1.676	1.462	1.511	1.322	1.183	1.268	1.213	1.191	1.337	1.369	1.345	1.477	1.590	1.822	2.235	2.448	2.878	3.368	3.129	2.591	2.382	2.333	2.229	2.528	4.093	10.11	27.65	65.94
310.0	433.7	426.1	310.7	211.4	154.7	149.0	166.0	206.8	279.1	373.3	501.2	612.0	610.9	406.7	289.1	783.9	 3137	9999.9	9999.9	9999.9	48.91	19.17	13.32	10.14	8.085	6.735	5.463	5.017	4.523	3.759	3.433	3.139	2.756	3.029	3.031	3.262	3.468	3.271	2.852	2.551	2.488	2.209	2.297	2.105	2.199	2.371	2.099	2.316	1.893	1.673	1.580	1.546	1.438	1.324	1.454	1.335	1.294	1.320	1.450	1.526	1.619	1.683	2.045	2.092	2.316	2.800	2.914	3.190	3.090	2.867	2.294	1.760	1.489	1.808	2.987	6.818	15.89
315.0	442.0	462.1	335.4	227.1	178.5	167.2	188.5	235.7	300.5	392.9	499.7	567.5	585.6	510.7	289.7	282.5	774.6	 2433	 6624	9999.9	9999.9	61.45	19.56	13.95	10.64	8.500	7.170	5.688	5.217	4.688	4.014	3.238	3.204	3.130	3.313	3.287	3.457	3.131	2.820	2.624	2.384	2.234	2.498	2.283	2.345	2.528	2.207	2.389	2.145	1.702	1.530	1.539	1.542	1.423	1.506	1.455	1.435	1.443	1.456	1.744	1.806	1.797	2.180	2.196	2.473	2.723	2.728	2.736	2.721	2.968	2.764	2.480	1.712	1.355	1.423	2.312	4.143
320.0	533.8	564.4	425.2	261.1	193.8	180.4	209.2	257.8	320.8	415.4	517.7	583.1	563.5	520.6	391.8	216.3	264.1	613.8	 1860	 9643	9999.9	 3806	47.79	18.40	13.73	10.16	8.227	6.928	5.836	5.190	4.548	3.771	3.528	3.345	3.349	3.433	3.476	3.361	3.086	2.691	2.529	2.410	2.347	2.304	2.345	2.740	2.781	2.636	2.505	1.966	1.777	1.628	1.724	1.688	1.543	1.675	1.569	1.571	1.752	1.697	1.869	1.964	2.229	2.347	2.548	2.736	2.835	2.808	2.723	2.594	2.609	2.762	2.484	1.860	1.241	1.341	1.727
325.0	636.9	703.9	560.5	332.7	227.8	206.5	229.3	278.3	345.9	440.4	550.9	604.0	578.1	504.8	446.9	291.8	180.3	221.5	485.8	 2835	9999.9	9999.9	 2917	36.50	17.15	12.58	9.739	7.760	6.657	5.903	5.181	4.395	3.865	3.498	3.394	3.707	3.413	3.415	2.759	2.899	2.558	2.521	2.539	2.601	2.750	3.195	2.978	3.178	2.832	2.481	1.934	1.828	1.777	1.625	1.754	1.706	1.759	1.678	1.868	1.913	2.048	2.057	2.320	2.400	2.590	3.033	3.081	2.879	2.906	2.817	2.594	2.501	2.615	2.326	1.762	1.305	1.254
330.0	724.0	840.9	707.6	442.5	290.5	242.8	258.2	301.2	369.2	466.2	564.8	629.8	616.2	517.7	432.1	372.0	257.0	166.8	194.4	705.0	 2963	9999.9	9999.9	9999.9	43.09	18.58	13.80	10.33	7.798	6.893	5.671	4.870	4.224	3.675	3.666	3.903	3.601	3.353	3.009	2.987	2.793	2.736	2.811	2.729	2.988	3.417	3.292	3.700	3.421	2.853	2.397	2.243	1.962	1.787	1.824	1.876	1.888	1.846	1.957	2.001	2.247	2.115	2.457	2.617	2.834	3.043	2.940	3.024	3.040	3.057	2.901	2.511	2.373	2.246	2.061	2.053	1.793
335.0	802.0	931.1	811.8	529.9	364.7	283.7	291.2	334.1	397.5	493.3	597.8	661.1	648.0	554.0	444.4	362.7	338.9	234.4	154.3	243.2	730.4	 2390	 7099	9999.9	9999.9	51.99	19.38	14.43	10.20	8.475	6.893	5.897	4.936	4.451	3.989	3.987	3.742	3.422	3.322	2.984	2.849	2.899	2.844	3.059	3.199	3.495	3.528	3.871	3.860	3.126	2.757	2.591	2.366	2.074	1.784	2.014	2.030	2.089	2.043	2.181	2.298	2.287	2.587	3.049	2.895	3.030	3.203	3.078	3.285	3.401	2.970	2.635	2.524	2.228	2.098	2.026	2.309
340.0	816.5	994.5	896.1	618.0	437.0	345.8	334.9	357.1	432.2	523.4	619.7	667.2	667.9	591.0	478.3	370.2	332.4	312.4	187.4	157.5	246.5	604.1	 1894	9999.9	9999.9	 3225	43.47	18.76	13.53	10.33	7.733	6.363	5.347	4.789	4.394	4.144	3.845	3.695	3.308	3.169	2.964	3.056	2.727	3.206	3.408	3.695	3.684	4.070	3.945	3.465	2.961	2.833	2.480	2.285	2.020	1.972	2.044	2.252	2.257	2.174	2.457	2.552	2.660	2.905	3.006	3.335	3.240	3.170	3.300	3.199	3.004	2.961	2.602	2.320	2.102	1.933	2.023
345.0	796.9	989.0	937.6	685.0	491.9	403.0	372.0	400.8	455.4	535.8	632.6	676.1	679.1	614.3	511.7	398.1	327.2	327.9	264.6	166.9	155.9	216.7	493.2	 2914	9999.9	9999.9	 2492	34.45	16.97	12.43	9.437	7.678	5.883	5.209	4.556	3.955	3.841	4.041	3.302	3.232	3.064	3.080	3.073	2.970	3.409	3.722	3.510	4.256	3.974	3.572	2.983	3.069	2.972	2.597	2.455	2.279	2.420	2.430	2.563	2.492	2.601	2.499	2.740	2.951	2.977	3.227	3.379	3.322	3.284	3.232	3.176	2.980	2.605	2.494	2.328	2.006	2.081
350.0	793.3	935.6	932.8	760.2	606.9	512.3	476.4	483.7	526.0	589.3	667.2	701.3	696.1	644.9	547.2	440.0	356.9	320.6	313.5	252.9	174.7	159.1	200.8	728.6	 3046	9999.9	9999.9	 9399	39.13	17.31	12.87	9.408	7.119	5.905	5.082	4.345	4.399	4.076	3.475	3.302	3.137	3.071	3.114	2.968	3.215	3.646	3.590	4.053	4.006	3.483	3.265	3.383	3.233	2.864	2.765	2.629	2.688	2.810	2.887	2.747	2.852	3.061	3.134	3.264	3.310	3.443	3.423	3.447	3.369	3.330	3.257	3.220	2.967	2.809	2.541	2.299	2.262
355.0	757.5	940.6	940.6	834.1	714.5	655.6	626.1	622.3	658.1	690.3	733.8	752.7	737.9	684.3	595.5	500.8	411.4	354.6	317.7	322.1	262.1	182.6	166.1	259.3	756.2	 2378	 7631	9999.9	9999.9	48.21	17.26	12.66	9.371	7.076	5.797	5.264	4.519	4.330	3.706	3.639	3.227	3.044	3.378	3.230	3.246	3.354	3.683	3.934	3.912	3.501	3.294	3.750	3.502	3.176	3.203	3.172	3.102	3.257	3.200	3.422	3.248	3.531	3.539	3.609	3.653	3.618	3.506	3.642	3.350	3.397	3.559	3.241	3.189	2.997	2.761	2.542	2.616
360.0	729.7	903.3	947.8	875.3	784.0	761.4	728.8	731.5	766.0	773.8	798.1	798.6	772.1	719.2	638.5	540.2	459.1	390.5	341.6	324.3	325.7	235.3	179.5	174.0	260.6	603.6	 1991	9999.9	9999.9	 2986	39.35	16.00	11.71	8.163	6.546	5.585	5.155	4.451	3.818	3.654	3.482	3.351	3.388	3.452	3.232	3.316	3.769	4.044	3.966	3.698	3.356	3.579	3.868	3.662	3.372	3.476	3.564	3.656	3.582	3.659	3.760	3.912	3.989	4.033	3.885	3.842	3.836	3.851	3.528	3.739	3.365	3.477	3.206	3.251	2.967	2.897	2.535
365.0	727.6	872.4	952.8	895.0	843.4	822.6	798.3	812.4	828.4	850.8	856.7	838.4	799.3	748.5	667.7	574.4	495.5	429.9	372.1	334.3	342.3	307.5	215.5	177.1	168.2	220.3	513.9	 2905	9999.9	9999.9	 2291	30.24	14.36	10.22	7.689	5.925	5.175	4.792	4.214	3.958	3.465	3.399	3.464	3.406	3.385	3.560	3.636	4.039	3.864	3.595	3.486	3.825	3.947	3.941	3.705	3.800	3.767	3.773	4.011	3.868	4.117	4.011	4.189	4.464	4.229	4.083	4.000	3.867	4.057	3.679	3.485	3.604	3.517	3.269	3.186	3.028	2.754
370.0	713.3	882.9	948.3	922.1	922.9	914.4	903.1	897.0	918.0	927.4	922.7	886.1	842.8	777.9	705.8	615.6	544.7	478.2	423.0	377.3	352.1	347.8	302.8	224.7	181.8	162.1	200.8	717.2	 3124	9999.9	9999.9	 8270	33.50	14.52	10.32	7.738	6.218	5.490	4.713	4.365	3.747	3.537	3.668	3.529	3.544	3.707	3.622	3.960	3.836	3.537	3.481	4.003	4.165	4.253	4.111	4.070	4.276	4.222	4.301	4.093	4.351	4.374	4.547	4.607	4.480	4.283	4.136	4.095	4.053	3.862	3.779	3.752	3.638	3.495	3.336	3.240	3.197
375.0	727.0	867.6	945.3	949.8	995.7	988.2	983.1	984.3	988.9	 1006	991.4	946.2	889.5	813.5	733.6	654.8	593.0	532.5	475.5	430.4	393.8	370.4	366.0	319.9	237.7	191.9	163.3	248.9	760.4	 2374	 8320	9999.9	9999.9	40.11	14.24	10.22	8.200	6.196	5.392	4.624	4.188	3.908	3.857	3.508	3.599	3.702	3.905	4.065	3.922	3.686	3.451	4.191	4.318	4.454	4.538	4.478	4.525	4.721	4.664	4.556	4.908	4.867	4.913	5.024	4.940	4.529	4.438	4.517	4.490	4.126	3.893	3.624	3.928	3.634	3.494	3.567	3.428
380.0	734.6	855.4	944.2	982.7	 1034	 1050	 1031	 1033	 1034	 1060	 1029	989.2	933.8	839.9	754.0	680.4	619.7	571.0	514.4	469.1	429.9	403.5	383.7	381.8	310.5	236.8	186.6	167.0	251.0	589.3	 2152	9999.9	9999.9	 2490	32.13	12.76	10.05	7.412	6.091	5.131	4.628	4.225	4.131	3.858	3.719	3.934	3.948	4.147	3.958	3.676	3.622	4.329	4.570	4.676	4.454	4.573	4.926	5.044	4.810	4.735	4.749	5.095	5.175	5.132	4.772	4.838	4.761	4.649	4.481	4.317	4.106	3.765	3.984	3.743	3.463	3.540	3.600
385.0	740.5	845.1	949.8	994.0	 1058	 1082	 1052	 1044	 1069	 1067	 1049	 1026	951.0	851.4	771.4	701.9	639.4	591.1	542.5	496.4	459.5	433.5	401.2	396.7	376.0	284.1	217.4	168.5	153.5	203.2	535.0	 2943	9999.9	9999.9	 1809	23.17	11.47	8.643	6.810	5.635	4.961	4.507	4.138	3.930	3.679	3.859	3.785	4.222	4.026	3.829	3.791	4.504	4.581	4.775	4.665	4.689	5.002	5.047	4.719	4.967	4.903	5.078	5.234	5.057	4.826	4.799	4.901	4.548	4.861	3.976	3.963	3.858	4.148	3.884	3.943	3.947	3.746
390.0	731.0	833.7	910.5	991.5	 1061	 1093	 1074	 1060	 1068	 1072	 1057	 1015	953.0	862.5	784.2	711.0	656.8	612.0	565.6	527.5	493.9	464.8	432.7	407.5	396.6	351.8	265.5	196.9	156.4	136.1	186.1	709.4	 3075	9999.9	9999.9	 6221	27.00	11.90	8.827	7.000	5.533	4.817	4.474	4.299	4.088	4.075	3.875	4.035	4.085	3.738	3.745	4.307	4.619	4.617	5.046	4.764	5.055	5.010	4.878	4.961	4.926	5.119	5.117	5.017	4.732	4.729	4.874	4.557	4.679	4.208	4.058	4.239	4.128	4.027	3.832	3.671	3.832
395.0	731.6	825.2	914.3	971.7	 1044	 1074	 1079	 1071	 1061	 1071	 1044	 1009	946.3	862.8	786.3	723.4	674.5	628.2	587.1	551.0	519.5	492.5	460.7	430.7	404.3	378.7	329.9	238.8	180.0	143.9	126.0	221.1	730.7	 2341	 7122	9999.9	 8418	33.78	11.86	8.812	6.882	5.858	5.161	4.691	4.372	4.214	3.927	4.142	4.302	3.792	3.570	4.236	4.532	4.736	4.950	5.023	5.212	5.196	4.957	4.803	5.044	5.203	4.747	4.882	4.784	4.707	4.627	4.664	4.642	4.290	4.266	4.090	4.293	4.084	3.877	3.833	4.095
400.0	731.6	832.6	898.5	949.4	 1034	 1075	 1082	 1054	 1058	 1044	 1025	 1005	929.9	857.8	779.2	721.4	678.6	632.4	601.9	563.4	535.8	511.0	480.2	447.8	419.1	382.1	360.9	283.3	207.1	160.5	127.8	121.7	217.0	563.5	 1826	 9523	9999.9	 2054	26.95	10.63	8.044	6.872	5.657	5.031	4.625	4.352	4.178	4.353	4.166	3.910	3.758	4.340	4.489	4.727	4.681	4.987	5.212	5.299	5.123	4.952	4.814	5.054	4.854	4.825	4.759	4.497	4.516	4.826	4.637	4.384	4.211	4.120	3.885	3.805	4.129	4.040	4.153
405.0	700.3	808.8	883.9	933.2	 1008	 1058	 1066	 1048	 1025	 1020	 1008	972.7	910.6	840.0	773.0	718.3	672.3	633.8	607.6	568.3	539.7	516.5	489.9	459.8	432.4	390.1	361.2	320.8	239.8	178.6	140.2	111.2	110.8	172.0	445.8	 2656	9999.9	9999.9	 1536	20.71	9.155	7.651	6.124	5.338	4.609	4.585	4.402	4.256	4.193	3.864	3.508	4.365	4.346	4.537	4.605	4.645	4.824	5.097	5.167	4.917	4.885	4.852	4.761	4.837	4.653	4.388	4.341	4.464	4.357	4.425	4.194	4.181	3.965	3.878	3.753	3.735	4.093
410.0	694.8	805.8	844.6	893.1	972.8	 1017	 1040	 1023	999.4	993.2	975.5	928.4	894.1	816.9	755.6	700.2	659.1	626.7	598.2	566.3	539.4	517.0	496.5	468.4	438.3	397.8	358.3	326.1	286.0	215.6	162.5	126.2	101.2	96.12	143.2	628.5	 2803	 9659	9999.9	 4623	23.49	9.458	7.213	6.188	5.073	4.868	4.270	4.308	4.206	3.738	3.582	4.179	4.264	4.483	4.601	4.538	4.903	4.925	5.120	4.827	4.688	4.709	4.718	4.697	4.600	4.227	4.326	4.279	4.187	4.182	4.079	4.091	3.833	3.848	3.668	3.788	3.781
415.0	655.5	754.4	809.3	863.7	928.1	967.1	 1014	991.8	970.5	959.5	933.4	898.0	837.9	783.5	728.5	676.1	639.8	613.4	584.4	559.5	531.6	511.1	489.4	469.8	440.5	400.8	360.3	323.6	300.6	263.4	191.4	147.2	113.9	91.84	84.86	180.3	655.5	 2235	 5803	9999.9	 2044	29.70	9.253	7.253	6.004	5.128	4.314	4.290	4.075	3.748	3.716	4.137	4.483	4.404	4.475	4.405	4.810	4.715	4.744	4.681	4.568	4.687	4.578	4.514	4.362	4.163	4.018	4.131	4.147	3.929	3.843	3.819	3.885	3.727	3.585	3.616	3.573
420.0	644.6	721.6	781.1	824.0	891.6	945.8	977.0	974.4	952.6	932.4	905.7	862.0	813.4	754.8	700.6	654.3	617.3	596.3	568.8	545.2	522.6	505.7	482.9	465.8	433.8	402.4	363.6	326.2	295.6	281.3	225.3	164.6	125.4	98.31	78.82	86.46	180.7	525.6	 1458	 7199	9999.9	 1839	23.49	8.605	6.879	6.013	4.917	4.608	4.063	3.704	3.618	4.164	4.366	4.335	4.406	4.297	4.641	4.638	4.597	4.530	4.516	4.564	4.649	4.225	4.186	4.141	3.824	4.063	3.915	3.838	3.547	3.636	3.795	3.569	3.306	3.374	3.642
425.0	626.3	703.2	758.5	797.5	871.4	916.6	946.6	954.1	929.4	903.9	888.1	837.5	786.6	735.9	677.8	634.6	603.1	581.4	555.4	533.1	514.9	493.4	471.7	456.6	431.9	402.4	365.3	331.3	297.0	278.7	251.1	188.9	136.4	108.3	83.88	70.66	80.31	147.0	350.6	 1975	 9315	9999.9	260.5	16.99	7.992	6.581	5.214	4.921	4.224	3.725	3.674	3.981	4.156	4.156	4.306	4.320	4.623	4.512	4.667	4.472	4.355	4.614	4.555	4.266	4.124	4.019	4.137	3.856	3.580	3.555	3.700	3.714	3.612	3.575	3.292	3.311	3.455
430.0	644.8	695.2	727.2	766.9	827.0	883.1	914.2	916.7	909.4	875.0	850.0	807.4	756.6	698.0	650.9	606.5	575.1	558.3	535.1	514.6	498.1	479.2	463.3	445.8	426.0	400.9	370.0	337.5	303.7	277.5	254.7	220.8	162.6	122.8	96.23	77.03	65.80	68.87	106.2	464.4	 2517	 7510	 9620	 3445	20.66	8.040	6.022	5.430	4.691	3.848	3.547	3.861	4.027	4.164	4.270	4.336	4.575	4.473	4.586	4.387	4.395	4.469	4.224	4.160	4.101	3.860	3.791	3.703	3.444	3.495	3.439	3.523	3.432	3.316	3.176	3.264	3.426
435.0	992.0	654.8	697.8	734.2	788.7	836.9	878.9	892.7	880.0	852.7	817.9	778.8	730.1	668.5	616.1	574.3	549.2	533.8	514.0	497.2	480.4	461.5	449.9	432.8	417.0	396.3	368.6	340.1	314.1	286.4	255.1	230.0	196.7	144.6	111.3	88.84	71.15	58.98	57.73	129.4	581.1	 1728	 4724	9999.9	 1876	26.46	7.863	6.496	5.227	4.022	3.558	4.096	4.150	4.023	4.163	4.237	4.655	4.160	4.552	4.526	4.443	4.316	4.232	4.010	4.003	3.856	3.598	3.564	3.419	3.357	3.213	3.054	3.341	3.107	2.913	3.151	3.308
440.0	 1653	659.2	657.9	705.6	747.8	813.5	857.8	873.7	860.1	829.3	792.0	743.1	696.1	647.0	593.2	552.8	532.0	511.7	495.2	478.7	459.8	449.0	439.0	423.9	409.2	387.4	364.2	340.3	319.0	290.0	259.1	230.3	207.9	166.7	123.6	94.92	77.37	60.98	51.17	57.99	152.6	403.9	 1182	 6471	9999.9	 1567	18.89	7.410	5.849	4.472	3.796	4.247	4.029	4.018	4.102	4.019	4.633	4.239	4.539	4.533	4.386	4.246	4.198	4.008	4.040	3.736	3.486	3.559	3.473	3.234	3.057	3.131	3.224	2.898	2.910	3.136	3.196
445.0	 2401	839.1	651.8	672.0	740.1	781.6	846.7	856.9	839.7	817.1	774.6	721.7	669.4	622.7	574.0	535.6	512.3	494.4	476.2	461.3	444.8	433.4	418.8	410.9	396.8	381.1	359.1	336.8	319.9	293.8	263.0	229.4	206.5	181.0	138.4	103.4	83.90	67.16	53.08	46.09	59.89	110.9	282.9	 1804	 8522	 9630	214.1	13.66	6.430	4.965	4.503	4.231	4.075	3.997	4.096	4.128	4.346	4.313	4.513	4.326	4.069	4.061	4.111	4.121	3.867	3.722	3.450	3.400	3.240	3.469	3.160	2.990	3.089	2.909	2.862	3.100	3.053
450.0	 2375	 1801	673.6	637.7	696.2	742.2	790.9	812.6	811.1	782.1	747.2	685.9	633.0	582.0	537.4	499.9	474.6	460.9	442.3	430.6	417.3	409.6	398.2	389.4	376.9	364.1	346.9	327.6	309.8	292.5	264.0	232.4	200.2	178.6	156.3	118.3	91.67	73.58	59.12	48.35	44.09	49.76	83.65	420.6	 2288	 6804	 8256	 2866	16.88	6.136	4.850	4.868	4.231	4.123	3.950	4.155	4.270	4.299	4.266	4.169	4.119	4.086	3.926	3.848	3.573	3.527	3.353	3.331	3.028	3.027	2.979	2.946	2.898	2.743	2.670	2.733	2.871
455.0	 1337	 2930	 1031	585.3	657.7	687.8	734.7	758.1	761.4	736.0	699.1	645.0	586.6	545.2	492.2	463.6	441.0	424.2	406.0	395.7	385.9	378.8	369.8	360.1	351.8	341.6	327.4	315.2	299.4	283.2	259.4	228.6	198.8	170.5	154.7	134.9	102.3	80.98	66.43	53.83	45.08	39.58	41.85	113.0	524.8	 1567	 4042	 9353	 1541	19.12	6.070	5.338	4.472	4.193	4.070	3.943	4.040	4.155	4.072	3.865	4.072	3.932	3.920	3.525	3.500	3.394	3.211	3.094	2.965	2.812	2.693	2.786	2.629	2.480	2.545	2.662	2.565
460.0	708.5	 2765	 2120	606.3	611.3	633.3	693.7	718.0	730.5	699.7	660.7	608.2	556.9	512.0	460.9	428.6	409.9	393.9	381.9	370.0	358.4	352.8	345.2	340.2	333.8	323.7	311.3	299.8	289.5	271.8	253.3	224.7	194.6	169.1	147.2	137.4	114.2	86.64	69.43	57.90	47.50	39.90	34.90	45.49	134.5	363.7	995.1	 5289	 8623	 1153	14.85	6.217	5.167	4.479	4.210	3.970	3.963	4.044	3.833	3.664	3.950	3.888	3.586	3.431	3.237	3.123	3.029	3.010	2.740	2.704	2.661	2.532	2.551	2.424	2.542	2.607	2.296
465.0	477.0	 1839	 3095	806.9	565.5	597.3	648.5	687.5	689.4	667.0	626.1	578.9	527.3	480.9	440.2	401.7	386.6	366.3	358.5	348.6	337.2	330.7	325.3	319.3	312.5	305.2	296.2	284.3	277.8	262.8	244.9	217.1	190.5	164.6	143.0	130.9	119.2	93.59	73.89	60.72	50.42	41.92	34.74	32.54	48.15	96.51	235.9	 1422	 6740	 7085	164.7	11.97	5.443	4.686	4.480	4.235	3.846	4.065	3.593	3.825	3.690	3.733	3.476	3.380	3.198	3.089	3.053	2.868	2.584	2.555	2.538	2.323	2.350	2.384	2.319	2.344	2.185
470.0	395.5	844.3	 2852	 2137	597.3	557.2	593.3	628.5	637.5	612.7	580.1	537.1	487.1	438.7	403.1	368.4	346.7	333.7	324.2	314.2	303.8	299.2	293.7	289.5	283.4	277.1	269.5	262.2	253.7	247.2	229.6	206.3	181.6	158.2	137.6	122.1	110.6	99.45	79.65	63.68	52.95	44.45	36.68	31.71	31.06	38.21	66.70	330.2	 1805	 4942	 5847	 2215	15.93	5.795	4.682	4.396	4.179	3.942	3.686	3.655	3.531	3.465	3.476	3.190	3.037	2.844	2.840	2.717	2.467	2.504	2.362	2.233	2.276	2.174	2.234	2.152	2.106
475.0	363.8	463.0	 1398	 3320	 1238	507.6	544.0	571.1	586.7	559.5	535.1	489.4	441.2	395.4	365.3	333.8	312.9	302.1	290.4	280.1	271.0	265.3	261.4	260.3	254.8	250.2	242.8	237.8	232.5	224.7	211.7	192.8	170.2	151.2	132.2	115.2	101.2	95.02	85.55	68.30	54.20	45.88	38.90	32.32	28.18	26.21	29.90	86.04	412.7	 1131	 2597	 6480	 1448	19.96	5.602	4.660	4.288	3.931	3.734	3.388	3.440	3.244	3.248	2.849	2.693	2.730	2.589	2.387	2.415	2.228	2.142	2.039	1.966	2.058	1.975	1.954	2.054
480.0	350.6	373.1	650.1	 2903	 2396	534.7	509.1	526.2	550.8	525.0	497.4	452.0	409.7	369.9	338.4	308.9	287.1	278.1	268.0	256.2	248.1	245.5	239.8	237.1	237.1	228.7	225.9	221.5	217.0	212.3	199.5	182.6	162.7	145.2	126.7	112.0	96.59	88.41	84.62	73.14	56.27	47.76	40.34	33.33	28.83	24.99	22.26	32.42	103.5	261.6	634.8	 3372	 6014	 1194	15.24	5.154	4.639	4.087	3.856	3.253	3.200	2.978	2.840	2.797	2.628	2.710	2.412	2.348	2.271	1.973	2.174	1.903	1.856	2.000	1.941	1.765	1.813
485.0	322.7	345.1	414.5	 1778	 3430	920.1	467.4	498.0	502.9	499.3	465.4	423.7	386.0	346.7	313.3	287.8	270.5	259.7	247.0	239.4	231.3	228.9	222.8	220.1	216.8	211.6	208.4	206.6	205.0	200.5	189.7	172.7	155.2	138.8	120.8	106.9	93.93	85.24	79.75	74.73	59.84	48.35	40.91	34.41	30.43	25.68	21.72	21.75	35.39	68.59	151.4	875.2	 4481	 5614	202.0	10.42	5.289	4.590	3.852	3.436	3.103	2.977	2.827	2.790	2.526	2.436	2.339	2.242	2.060	1.977	2.113	1.810	1.758	1.874	1.731	1.693	1.830
490.0	283.8	312.7	333.8	747.8	 2952	 2471	558.2	464.8	462.1	457.5	423.9	393.2	351.4	318.7	288.3	263.6	242.4	231.6	221.3	215.3	208.5	204.2	201.8	198.8	196.5	193.1	190.8	187.6	186.6	181.7	174.4	159.9	144.5	129.1	114.2	100.9	90.29	80.81	73.43	69.36	62.88	52.08	42.00	35.60	31.43	27.05	22.67	20.30	21.29	26.71	43.84	204.8	 1167	 3510	 4670	902.2	16.70	5.418	4.269	3.667	3.369	3.054	2.683	2.574	2.475	2.375	2.312	2.093	1.824	1.837	1.907	1.741	1.675	1.657	1.578	1.580	1.681
495.0	237.5	275.7	295.6	394.4	 1333	 3647	 1405	411.3	418.9	416.7	393.1	357.6	323.5	287.1	258.2	234.9	217.0	206.7	198.0	190.9	185.0	181.1	177.4	176.0	173.6	172.2	169.0	168.7	166.9	163.8	156.8	144.3	132.6	119.0	105.1	95.03	84.55	76.20	68.67	62.58	60.13	54.90	44.87	36.18	31.81	27.98	23.83	20.95	19.14	18.72	21.08	55.89	268.6	806.6	 2336	 5492	 1516	21.01	5.075	4.196	3.469	3.204	2.911	2.573	2.639	2.173	2.185	2.040	1.756	1.724	1.730	1.587	1.563	1.439	1.281	1.518	1.474
500.0	213.7	267.4	283.9	301.0	575.8	 3034	 2811	445.5	390.5	377.0	360.8	328.5	296.6	264.4	236.6	212.8	198.4	188.5	181.4	174.3	169.4	165.0	161.6	159.5	159.5	156.9	154.5	153.8	151.8	150.6	143.9	133.8	121.5	109.6	98.36	88.09	81.53	72.46	65.19	60.19	54.98	54.30	47.15	37.19	31.86	28.33	25.05	22.33	19.62	17.40	16.81	24.01	69.94	190.1	576.8	 2983	 5590	 1202	15.60	4.665	3.566	3.163	2.892	2.406	2.408	2.198	2.102	1.936	1.819	1.702	1.563	1.523	1.376	1.357	1.334	1.268	1.299
505.0	182.7	233.9	270.6	264.5	336.0	 1706	 3871	 1029	359.4	346.3	333.0	308.9	271.7	240.3	219.2	196.1	184.2	173.2	165.4	159.2	154.5	150.8	149.0	147.0	143.6	143.0	140.7	139.5	138.8	137.5	134.0	122.8	112.0	102.5	92.11	83.69	77.05	68.77	62.43	56.97	50.84	50.09	47.96	39.73	32.21	28.64	25.43	22.94	20.22	18.05	16.45	17.23	26.83	53.42	139.7	780.6	 3983	 4904	210.5	8.862	3.812	3.172	2.828	2.503	2.277	2.072	1.961	1.839	1.621	1.447	1.405	1.349	1.404	1.305	1.285	1.222	1.265
510.0	164.7	195.4	231.0	239.1	256.7	657.0	 2983	 2915	522.6	311.1	294.8	269.8	241.2	215.9	194.3	173.5	161.9	151.9	144.2	140.9	134.8	132.0	130.4	128.1	125.2	125.5	123.9	123.4	122.2	121.1	117.1	109.5	99.55	91.01	82.96	75.22	69.25	62.76	57.18	52.39	47.21	44.10	42.94	40.47	33.60	28.40	25.50	22.97	20.70	18.53	17.04	16.47	17.64	23.66	42.58	185.4	 1035	 3035	 3757	865.5	15.18	3.794	3.042	2.628	2.288	2.080	1.768	1.668	1.508	1.399	1.316	1.332	1.222	1.213	1.117	1.109	1.117
515.0	147.3	165.9	189.1	221.6	221.7	319.1	 1194	 3819	 1755	285.2	255.6	239.3	212.4	192.6	170.5	151.0	141.4	133.0	125.9	120.8	117.6	113.6	111.5	109.8	108.2	108.3	105.4	106.2	106.5	105.4	101.6	95.30	87.59	80.47	74.58	66.79	62.41	56.44	52.06	47.64	43.78	39.54	37.48	37.37	34.51	28.81	24.77	22.24	20.49	18.53	17.47	15.92	15.63	17.32	20.99	52.29	239.6	693.3	 1688	 4108	 1389	19.30	3.370	2.578	2.280	2.105	1.790	1.575	1.543	1.346	1.383	1.143	1.029	1.094	0.934	1.040	0.974
520.0	134.7	146.6	164.0	204.3	203.9	227.5	467.1	 2839	 3376	331.4	237.4	218.6	194.0	171.2	152.1	139.6	125.2	119.4	112.7	109.7	105.3	102.3	99.87	100.1	96.37	96.26	94.24	95.43	96.73	94.60	91.88	85.65	79.28	72.01	66.80	61.34	56.03	51.61	47.38	44.79	39.99	37.42	33.80	32.76	34.01	29.43	24.95	21.61	19.47	18.11	16.94	15.63	15.04	15.22	15.61	22.11	62.53	162.1	413.0	 2249	 4028	227.2	11.85	2.970	2.335	2.099	1.651	1.554	1.335	1.184	1.340	1.206	1.059	1.064	1.017	0.887	0.931
525.0	123.8	137.6	146.5	175.1	193.7	191.4	262.7	 1444	 4233	 1235	219.2	200.3	178.1	153.8	140.7	125.3	113.2	104.8	102.1	98.28	93.87	91.26	90.59	89.55	88.30	85.93	86.44	84.36	85.73	83.72	83.22	78.36	71.84	65.39	60.28	57.12	52.50	48.01	44.77	41.45	37.32	34.76	31.67	29.51	30.45	29.57	24.98	21.14	18.64	17.13	16.16	15.09	14.33	14.05	13.88	14.36	22.33	42.98	98.16	587.4	 2790	 3221	197.4	5.358	2.511	2.166	1.801	1.524	1.371	1.317	1.189	1.222	1.025	0.887	0.929	0.856	0.819
530.0	103.4	124.9	127.4	145.7	174.6	173.5	190.8	516.4	 2833	 3116	522.9	176.3	156.9	137.7	123.0	110.2	99.03	93.12	88.78	86.65	82.36	80.67	78.34	76.83	76.22	74.93	75.23	74.19	74.74	73.91	72.38	68.56	63.67	57.64	53.50	49.93	46.47	43.17	38.95	36.47	33.88	31.06	28.71	26.76	25.54	26.28	24.91	20.83	17.51	15.90	14.98	13.85	12.97	12.94	12.56	12.07	12.63	15.98	27.18	135.7	720.0	 2087	 2261	769.1	13.17	2.452	1.864	1.514	1.456	1.246	1.056	1.053	0.964	0.818	0.795	0.830	0.850
535.0	91.10	106.6	115.5	119.6	141.5	158.1	157.5	238.6	 1008	 3641	 1928	171.1	136.9	120.6	106.0	95.63	86.57	80.45	76.71	73.23	70.28	69.86	67.99	66.10	65.02	63.92	64.78	63.91	64.42	64.81	62.90	58.96	54.48	49.86	46.55	42.80	40.49	37.36	34.06	32.20	29.56	27.86	25.72	23.91	22.56	21.88	22.28	20.98	17.43	14.96	13.82	12.62	11.70	11.69	11.32	10.71	9.626	9.201	10.66	34.48	163.9	475.6	 1102	 2889	 1153	17.19	2.162	1.692	1.536	1.207	1.114	0.934	0.862	0.734	0.876	0.715	0.663
540.0	87.55	89.00	102.9	106.1	117.5	145.9	144.0	163.2	359.1	 2401	 3777	246.2	126.2	108.5	95.78	85.25	77.55	72.17	69.46	65.73	63.19	60.55	60.02	59.17	58.09	57.12	57.68	56.95	57.06	56.85	55.63	51.90	49.10	44.44	41.51	38.37	36.52	34.26	31.34	28.91	26.92	25.11	23.74	22.10	20.40	19.49	19.27	19.84	17.29	13.99	13.09	12.01	10.91	10.84	10.31	9.739	8.557	7.502	7.002	11.58	39.83	109.4	270.8	 1571	 2858	226.6	10.03	1.897	1.383	1.205	1.128	0.939	0.844	0.829	0.783	0.740	0.643
545.0	78.80	86.51	95.36	94.84	105.6	131.5	133.9	142.2	185.0	 1113	 4074	 1439	113.9	101.5	88.55	76.39	70.99	65.95	60.65	59.77	56.36	53.93	54.03	52.71	53.38	52.75	51.70	50.96	50.86	51.35	50.19	46.48	43.57	41.08	38.01	35.13	34.11	29.80	28.68	26.09	24.56	23.43	21.44	20.13	18.67	18.19	17.20	17.70	16.90	13.97	12.35	11.01	10.41	10.52	9.658	9.134	8.056	6.779	6.007	6.282	12.29	27.59	63.69	413.4	 1989	 1855	183.8	4.141	1.592	1.207	1.145	0.947	0.824	0.888	0.688	0.728	0.658
550.0	68.33	74.85	79.97	80.18	89.07	106.8	125.5	120.3	132.8	371.4	 2304	 3367	529.3	87.91	76.51	66.95	60.79	56.57	54.20	50.43	48.99	47.25	46.09	45.74	45.41	44.72	44.01	43.89	44.10	44.28	43.41	40.44	38.05	34.75	32.81	30.78	28.85	26.37	24.82	22.91	21.84	20.46	19.25	17.91	16.62	16.15	14.88	14.53	14.89	13.82	11.88	10.33	9.388	9.431	8.635	8.045	7.353	6.336	5.162	4.827	5.811	9.011	16.86	94.89	517.3	 1387	 1770	640.2	11.91	1.554	1.207	0.941	0.821	0.788	0.644	0.660	0.545
555.0	60.75	56.07	69.33	68.71	72.92	81.53	102.0	107.0	107.3	160.9	730.6	 2971	 2360	99.06	65.46	56.57	52.60	47.34	44.92	41.65	40.92	40.11	39.46	38.05	37.75	36.45	36.77	36.41	37.27	36.37	35.84	34.56	32.19	29.52	27.95	25.82	24.03	22.68	21.21	19.67	18.58	17.64	16.58	15.08	14.64	13.44	12.77	12.25	11.89	12.11	11.18	9.609	8.538	7.958	7.634	7.134	6.361	5.930	4.966	4.265	4.196	4.431	6.250	23.46	117.4	316.8	813.7	 2007	809.3	14.87	1.449	1.012	0.845	0.774	0.646	0.580	0.590
560.0	54.39	54.25	58.38	60.70	64.71	69.18	82.85	99.82	96.10	103.7	239.6	 1699	 3599	176.8	56.92	50.47	46.46	41.43	40.25	37.33	35.69	35.10	33.56	32.75	32.50	31.42	31.72	31.54	32.32	31.48	31.13	29.65	28.17	25.40	24.12	22.34	20.85	19.80	18.35	17.19	16.57	15.40	14.49	13.66	13.05	12.19	11.51	10.68	10.24	10.28	10.13	9.360	7.652	7.237	6.732	6.448	5.771	5.028	4.456	4.123	3.705	3.170	3.722	7.419	28.19	72.66	199.7	 1076	 1890	215.7	6.854	1.065	0.943	0.711	0.745	0.510	0.488
565.0	44.55	55.17	50.34	54.06	56.21	59.40	71.15	90.07	84.28	82.31	112.6	705.4	 3307	 1222	56.67	44.56	39.58	35.92	33.97	32.55	30.13	29.94	29.27	28.88	28.09	27.27	26.82	27.16	27.14	27.03	27.30	25.33	23.97	21.25	20.64	19.75	18.19	17.14	16.16	15.39	14.13	13.37	12.46	11.78	11.27	10.95	9.885	9.325	8.823	8.425	8.963	8.981	7.093	6.514	6.020	5.838	5.328	4.620	4.184	3.938	3.227	2.980	2.996	3.604	8.106	18.00	46.47	281.1	 1277	 1449	31.22	2.420	1.021	0.743	0.710	0.566	0.462
570.0	45.06	48.18	46.05	45.05	46.36	47.96	54.09	71.94	76.47	71.86	76.89	220.7	 1643	 2907	478.5	38.21	31.85	28.99	27.66	25.86	25.05	24.50	23.79	23.20	22.27	22.17	21.66	21.42	21.52	21.72	22.01	20.44	19.08	17.67	16.71	15.64	14.69	13.75	13.44	12.18	11.70	10.79	10.23	9.592	9.607	8.841	8.102	7.726	7.165	6.738	6.769	7.299	6.576	5.814	5.204	4.823	4.396	4.011	3.502	3.291	2.839	2.640	2.411	2.578	3.476	5.575	11.94	64.45	330.1	909.2	 1051	359.3	10.09	0.863	0.683	0.551	0.468
575.0	41.41	42.02	39.94	36.01	34.37	41.61	41.36	52.33	66.23	66.16	59.34	95.98	482.2	 2168	 2218	61.68	25.64	23.45	21.57	20.18	19.07	19.37	18.69	17.90	17.53	16.87	17.12	16.86	17.23	16.47	16.45	15.73	15.17	13.54	13.41	12.49	11.88	11.29	10.62	9.359	9.305	8.467	8.149	7.532	7.603	7.264	6.720	6.070	5.644	5.441	5.113	5.509	5.427	5.195	4.273	4.015	3.544	3.249	2.841	2.735	2.527	2.455	2.127	2.080	2.226	2.767	4.100	15.71	74.93	207.8	473.6	 1073	228.3	11.21	0.668	0.548	0.561
580.0	43.64	41.03	35.45	33.57	31.73	31.85	36.00	42.47	58.11	63.55	54.74	62.08	146.9	 1129	 3071	438.7	22.77	19.32	18.95	17.08	16.52	15.77	15.49	14.71	15.20	15.07	14.14	13.87	14.48	14.10	14.09	13.03	12.59	11.66	10.54	10.16	9.749	9.515	8.543	8.258	7.453	7.180	6.798	6.554	6.077	6.008	5.498	5.219	4.817	4.471	4.210	4.298	4.387	4.833	3.939	3.447	3.113	2.907	2.676	2.456	2.203	2.126	1.973	1.796	1.882	2.091	2.297	4.839	18.07	47.62	116.7	575.4	942.5	180.6	3.528	0.708	0.493
585.0	47.12	34.80	34.08	29.04	29.01	29.05	33.44	35.21	50.69	61.01	54.37	52.83	65.27	442.5	 2489	 1548	23.96	17.38	15.86	14.87	14.22	13.27	13.12	12.30	12.60	12.43	11.81	11.99	12.33	11.91	11.48	11.33	10.43	10.17	9.225	8.871	8.238	7.555	7.419	7.059	6.430	6.259	5.801	5.517	5.247	5.036	4.742	4.502	4.064	3.803	3.692	3.576	3.400	3.923	3.753	3.254	2.803	2.567	2.375	2.221	2.006	1.828	1.840	1.807	1.765	1.549	1.785	2.364	5.258	11.82	27.23	152.1	663.0	761.4	30.12	1.262	0.551
590.0	37.69	34.66	32.67	25.47	22.74	24.18	27.91	31.07	39.40	53.20	56.04	48.14	46.39	132.0	 1096	 2492	384.2	15.40	13.09	12.48	11.92	11.28	10.55	10.37	9.982	9.840	9.898	9.766	9.724	9.989	9.203	9.236	8.404	7.741	7.481	7.051	6.733	6.328	5.981	5.878	5.302	5.221	4.666	4.628	4.406	4.164	3.852	3.756	3.352	3.222	3.053	2.879	2.748	2.968	3.212	3.007	2.544	2.169	1.996	1.921	1.721	1.515	1.576	1.547	1.565	1.381	1.415	1.598	2.251	3.665	7.028	34.91	172.6	469.9	555.8	133.1	8.466
595.0	39.23	36.06	27.56	21.82	20.19	21.19	22.10	24.76	32.43	41.49	55.25	46.26	39.52	51.03	298.1	 1583	 1884	40.02	10.56	10.15	9.627	9.587	8.361	8.228	8.140	7.949	7.978	7.748	7.826	7.626	7.355	7.491	6.458	6.310	5.976	5.707	5.619	5.024	5.137	4.859	4.160	4.326	4.061	3.670	3.558	3.347	3.120	3.056	2.757	2.571	2.601	2.281	2.148	2.195	2.394	2.622	2.284	1.853	1.769	1.671	1.465	1.399	1.348	1.372	1.311	1.317	1.254	1.218	1.352	1.618	2.289	8.435	39.01	107.2	248.7	562.0	203.3
600.0	40.12	29.79	27.68	22.79	19.08	19.26	20.42	22.59	30.80	36.23	53.29	47.71	36.10	32.46	81.47	731.8	 2506	369.3	10.55	9.485	8.677	8.200	7.451	7.009	6.971	6.979	6.505	6.535	6.645	6.577	6.470	6.243	5.326	4.981	4.938	4.956	4.771	4.409	4.330	3.984	3.675	3.645	3.406	3.156	3.192	2.788	2.716	2.671	2.359	2.197	2.053	2.002	1.933	1.892	1.885	2.119	2.207	1.845	1.517	1.494	1.331	1.240	1.271	1.126	1.116	1.203	1.050	1.034	1.213	0.980	1.130	2.430	9.266	24.46	61.38	299.8	531.3
605.0	34.00	34.85	22.96	20.85	16.97	16.01	19.93	21.56	26.24	34.32	48.57	48.73	34.65	27.40	31.64	259.0	 1935	 1324	13.75	8.492	8.076	7.103	6.487	6.417	6.254	5.908	5.870	5.512	5.882	5.877	5.746	5.193	4.823	4.478	4.598	4.334	4.372	3.967	3.747	3.608	3.192	3.262	3.078	2.765	2.774	2.589	2.436	2.350	2.106	1.965	1.825	1.741	1.598	1.559	1.651	1.871	1.992	1.756	1.357	1.300	1.134	1.184	1.107	1.087	0.913	0.927	1.067	0.943	0.986	0.824	0.848	1.139	2.551	5.886	14.23	79.81	357.8
610.0	30.07	28.71	24.16	17.50	15.86	14.15	18.03	20.49	24.76	29.39	39.81	47.16	37.69	24.86	20.32	71.25	786.9	 2081	322.8	8.403	7.020	6.153	5.753	5.755	5.212	5.080	5.045	4.430	4.818	4.859	4.854	4.604	4.311	4.006	3.958	3.799	3.734	3.379	3.313	3.046	2.779	2.791	2.544	2.445	2.404	2.136	2.092	2.064	1.854	1.759	1.543	1.420	1.363	1.366	1.355	1.391	1.555	1.623	1.370	1.112	1.034	1.013	0.961	0.933	0.865	0.862	0.867	0.840	0.860	0.700	0.697	0.704	0.972	1.669	3.546	18.23	93.41
615.0	29.87	26.07	22.17	15.59	13.80	13.62	15.91	18.38	20.98	26.83	33.48	42.03	40.09	23.91	16.38	24.36	204.7	 1251	 1652	33.95	6.479	5.231	4.991	4.777	4.480	4.443	4.276	3.680	4.212	3.750	3.873	3.879	3.508	3.512	3.308	3.222	3.185	2.698	2.705	2.539	2.267	2.225	2.096	2.000	1.909	1.778	1.709	1.699	1.604	1.445	1.404	1.260	1.183	1.076	1.111	1.097	1.244	1.295	1.276	1.116	0.998	0.802	0.822	0.784	0.769	0.833	0.712	0.730	0.731	0.650	0.540	0.511	0.596	0.648	1.120	4.344	21.06
620.0	24.34	27.88	19.18	14.43	12.72	13.58	15.60	17.33	18.95	25.38	31.41	36.02	39.35	24.34	14.84	13.80	53.00	530.6	 2132	344.8	6.030	4.838	4.640	4.213	3.901	4.027	3.605	3.547	3.446	3.421	3.263	3.371	2.882	2.785	2.886	2.676	2.671	2.273	2.312	2.304	2.053	1.810	2.067	1.921	1.752	1.710	1.649	1.625	1.467	1.275	1.222	1.062	0.978	1.051	1.083	1.122	0.976	1.062	1.141	1.099	0.886	0.811	0.769	0.683	0.802	0.724	0.621	0.683	0.777	0.657	0.498	0.432	0.537	0.399	0.546	1.274	4.969
625.0	27.78	22.47	20.25	14.78	11.06	12.93	14.47	15.52	19.02	23.49	30.42	30.66	35.13	25.88	14.76	10.26	18.25	175.6	 1584	 1221	9.576	4.654	4.271	4.027	3.873	3.659	3.332	3.028	2.919	3.071	3.061	3.307	2.796	2.749	2.574	2.623	2.239	2.320	2.048	2.154	2.072	1.835	1.559	1.584	1.565	1.468	1.462	1.454	1.215	1.165	1.106	1.057	1.013	0.960	0.898	1.034	0.889	0.889	0.924	0.995	0.881	0.628	0.609	0.657	0.659	0.591	0.643	0.614	0.668	0.631	0.511	0.385	0.338	0.342	0.361	0.549	1.370
630.0	23.34	20.52	16.16	14.17	11.48	12.44	14.17	13.94	17.99	21.95	25.71	27.89	29.81	27.81	15.28	9.495	9.826	46.60	597.8	 1808	276.4	5.059	4.170	3.651	3.371	3.014	3.040	2.859	2.757	2.725	2.727	2.485	2.352	2.360	2.325	2.221	2.108	1.977	1.855	1.766	1.792	1.482	1.432	1.358	1.346	1.333	1.270	1.238	1.133	1.023	0.995	1.000	0.800	0.871	0.741	0.803	0.756	0.750	0.816	0.812	0.824	0.766	0.647	0.557	0.588	0.541	0.498	0.570	0.529	0.547	0.484	0.451	0.304	0.325	0.295	0.315	0.511
635.0	23.00	22.80	15.06	13.99	10.07	10.82	11.49	12.23	17.07	19.02	23.91	25.56	26.79	26.23	18.53	10.04	7.647	15.64	148.2	996.9	 1429	26.60	4.068	3.317	2.782	2.917	2.561	2.306	2.168	2.319	2.319	2.052	2.134	2.056	1.975	1.895	2.016	1.919	1.787	1.535	1.536	1.475	1.190	1.270	1.210	1.159	1.064	1.169	1.026	0.920	0.900	0.756	0.780	0.782	0.692	0.746	0.721	0.702	0.597	0.645	0.726	0.685	0.702	0.490	0.507	0.538	0.485	0.515	0.523	0.451	0.411	0.448	0.356	0.305	0.244	0.322	0.350
640.0	24.54	26.22	15.85	12.67	10.94	10.75	11.03	12.99	16.23	19.85	23.92	25.24	24.90	22.91	19.77	9.760	7.774	8.054	37.71	386.8	 1845	283.5	4.332	3.408	2.696	2.822	2.414	2.081	2.282	2.285	2.070	1.960	1.751	1.835	1.768	1.701	1.702	1.665	1.680	1.383	1.257	1.386	1.243	1.127	1.130	1.194	1.102	1.066	0.994	0.822	0.809	0.823	0.745	0.727	0.705	0.615	0.683	0.571	0.438	0.520	0.637	0.619	0.630	0.559	0.523	0.493	0.453	0.504	0.484	0.521	0.447	0.420	0.399	0.228	0.204	0.278	0.278
645.0	29.16	27.73	19.50	13.72	11.48	11.02	11.29	12.50	16.69	20.02	22.97	25.07	23.35	20.95	19.89	10.86	7.431	6.201	12.69	119.2	 1334	 1017	7.801	3.484	2.680	2.592	2.032	2.194	2.117	2.080	1.776	1.922	1.812	1.895	1.552	1.482	1.707	1.529	1.482	1.397	1.267	1.161	1.296	1.193	0.958	1.110	1.025	0.976	0.927	0.826	0.768	0.780	0.638	0.678	0.655	0.574	0.625	0.587	0.542	0.449	0.546	0.610	0.566	0.556	0.508	0.536	0.378	0.437	0.467	0.364	0.370	0.363	0.284	0.363	0.189	0.254	0.217
650.0	32.12	31.28	21.84	15.44	10.92	9.889	9.477	12.74	14.79	18.89	22.08	23.14	22.23	20.75	19.07	12.86	7.902	6.264	7.096	32.77	602.9	 1629	50.72	3.592	2.741	2.724	2.119	2.098	2.196	1.838	1.602	1.952	1.766	1.626	1.615	1.505	1.516	1.462	1.386	1.326	1.210	1.183	1.270	1.096	0.954	0.941	0.861	0.892	0.916	0.772	0.779	0.714	0.640	0.677	0.522	0.575	0.487	0.578	0.506	0.493	0.475	0.615	0.494	0.487	0.391	0.486	0.366	0.416	0.339	0.383	0.328	0.288	0.279	0.306	0.192	0.224	0.220
