Sample:	'1
File name:	L2025090914»ª·áÂ·ÇÅ.FD3
Run date:	'17:08:52, 09/09/2025
Operator:	Administrator
Comment:	'

Instrument
Model:	F-2700 FL Spectrophotometer
Serial number:	3064-004
ROM Version:	4J14000 07

Instrument parameters
Measurement type:	3-D scan
Data mode:	Fluorescence
EX  Start WL:	220.0 nm
EX  End WL:	600.0 nm
EX Sampling interval:	5.0 nm
EM  Start WL:	230.0 nm
EM  End WL:	650.0 nm
EM Sampling interval:	5.0 nm
Scan speed:	12000 nm/min
EX Slit:	5.0 nm
EM Slit:	5.0 nm
PMT Voltage:	700 V
Response:	Auto 
Corrected spectra:	Off
Contour interval:	50.000

Peak integration
Integration method:	Rectangular
Sensitivity:	1
Threshold:	1.000

Peaks
No.	ApexEX/EM(nm)	Height(Data)
1	225.0/580.0	34.50
2	230.0/610.0	28.33
3	230.0/635.0	25.53
4	235.0/345.0	764.2
5	235.0/565.0	45.34
6	235.0/640.0	26.76
7	240.0/520.0	243.4
8	240.0/595.0	28.47
9	240.0/615.0	23.68
10	245.0/530.0	225.4
11	245.0/620.0	21.05
12	250.0/545.0	196.9
13	255.0/280.0	681.2
14	255.0/555.0	188.1
15	260.0/285.0	818.9
16	260.0/565.0	165.8
17	265.0/290.0	861.7
18	265.0/580.0	166.2
19	270.0/295.0	 1206
20	270.0/590.0	143.3
21	275.0/305.0	 1495
22	275.0/380.0	 1046
23	275.0/605.0	143.9
24	280.0/310.0	 1491
25	280.0/340.0	 1116
26	280.0/615.0	115.5
27	285.0/315.0	 1466
28	285.0/630.0	93.74
29	290.0/240.0	12.40
30	290.0/320.0	 1391
31	290.0/640.0	75.97
32	295.0/330.0	 1084
33	300.0/335.0	919.2
34	305.0/340.0	916.9
35	310.0/345.0	789.9
36	315.0/355.0	693.6
37	320.0/360.0	756.0
38	325.0/365.0	745.8
39	330.0/375.0	684.9
40	335.0/380.0	711.4
41	340.0/385.0	695.8
42	350.0/400.0	607.1
43	355.0/405.0	579.7
44	365.0/420.0	493.4
45	370.0/425.0	458.2
46	415.0/485.0	122.3
47	430.0/505.0	74.48
48	440.0/515.0	51.26
49	445.0/525.0	44.75
50	450.0/530.0	36.07
51	460.0/345.0	3.269
52	460.0/545.0	26.01
53	505.0/275.0	2.801
54	510.0/280.0	3.521
55	520.0/285.0	4.043
56	520.0/400.0	4.082
57	530.0/290.0	3.997
58	540.0/295.0	5.438
59	540.0/340.0	4.860
60	545.0/300.0	6.674
61	550.0/305.0	7.075
62	560.0/310.0	6.581
63	570.0/315.0	6.471
64	575.0/290.0	77.17
65	575.0/320.0	7.099
66	580.0/325.0	6.401
67	590.0/330.0	5.906

Data points
	220.0	225.0	230.0	235.0	240.0	245.0	250.0	255.0	260.0	265.0	270.0	275.0	280.0	285.0	290.0	295.0	300.0	305.0	310.0	315.0	320.0	325.0	330.0	335.0	340.0	345.0	350.0	355.0	360.0	365.0	370.0	375.0	380.0	385.0	390.0	395.0	400.0	405.0	410.0	415.0	420.0	425.0	430.0	435.0	440.0	445.0	450.0	455.0	460.0	465.0	470.0	475.0	480.0	485.0	490.0	495.0	500.0	505.0	510.0	515.0	520.0	525.0	530.0	535.0	540.0	545.0	550.0	555.0	560.0	565.0	570.0	575.0	580.0	585.0	590.0	595.0	600.0
230.0	20.28	534.0	 3477	 1995	131.7	13.22	7.118	8.135	5.590	3.772	3.694	5.438	4.210	4.152	5.846	2.824	2.356	2.272	2.221	1.943	1.957	1.598	1.612	1.516	1.329	1.154	0.959	1.046	0.738	0.868	0.624	0.839	0.697	0.697	0.777	0.627	0.703	0.583	0.604	0.542	0.714	0.603	0.699	0.567	0.351	0.449	1.840	6.670	10.79	7.999	2.863	0.622	0.165	0.332	0.183	0.248	0.141	0.147	0.169	0.288	0.241	0.215	0.156	0.204	0.169	0.145	0.167	0.156	0.106	0.151	0.180	0.170	0.072	0.017	0.064	0.080	0.148
235.0	51.80	148.1	 1545	 3995	 3010	422.6	8.905	10.57	9.382	5.871	4.053	5.643	5.575	3.291	9.843	3.348	1.968	2.435	2.142	2.540	1.304	2.123	1.469	1.597	1.458	1.280	0.873	0.926	0.654	0.888	0.631	0.724	0.898	0.628	0.806	0.629	0.709	0.911	0.619	0.539	0.726	0.439	0.637	0.686	0.707	0.716	0.720	2.068	4.747	8.131	10.24	10.30	4.229	1.150	0.215	0.214	0.165	0.203	0.316	0.305	0.158	0.084	0.059	0.253	0.371	0.062	0.120	0.110	0.075	0.137	0.116	-0.026	0.108	0.077	0.168	0.189	0.110
240.0	51.42	95.42	392.0	 2383	 7081	 5064	85.62	13.75	8.884	6.325	5.881	6.243	5.085	3.158	12.40	3.441	1.952	2.962	1.880	2.065	2.061	2.134	1.544	1.511	1.228	1.072	0.893	0.985	0.752	0.849	0.971	0.848	0.931	0.746	0.473	0.722	0.639	0.730	0.577	0.449	0.506	0.490	0.634	0.504	0.782	0.811	0.761	0.935	1.481	2.628	5.786	14.01	15.83	10.36	3.096	0.444	0.243	0.281	0.283	0.306	0.255	0.177	0.040	0.275	0.198	0.150	0.160	0.182	0.095	0.054	0.188	-0.029	0.016	0.148	0.171	-0.005	0.203
245.0	34.67	103.5	140.7	639.6	 5319	9999.9	776.3	120.3	10.11	4.991	6.109	7.684	5.813	3.417	12.34	3.272	1.787	2.718	2.290	1.828	2.657	1.621	1.414	1.891	1.355	1.066	1.207	1.368	0.739	1.095	1.038	0.867	0.669	0.654	0.587	0.836	0.610	0.721	0.322	0.814	0.337	0.339	0.438	0.494	0.529	0.922	0.849	0.692	0.780	1.099	1.640	4.849	12.24	20.15	19.24	8.405	2.438	0.349	0.419	0.279	0.268	0.156	0.123	0.238	0.270	0.192	0.099	0.327	0.260	0.170	0.151	-0.007	-0.001	0.025	0.113	0.146	0.139
250.0	17.90	51.07	150.8	244.8	 1437	 6735	 5774	 7115	220.5	12.69	9.721	8.863	6.648	5.416	10.18	4.121	3.127	2.586	2.533	2.296	1.835	1.519	1.503	1.801	1.493	1.210	1.578	1.122	0.923	0.980	0.906	1.098	0.730	0.568	0.645	0.657	0.716	0.652	0.551	0.569	0.546	0.495	0.396	0.619	0.404	0.607	0.640	0.898	1.190	0.967	0.896	1.441	3.243	6.955	12.52	17.01	21.50	17.43	9.166	2.322	0.325	0.231	0.225	0.248	0.227	0.081	0.092	0.164	0.155	0.208	0.128	0.061	0.173	0.136	0.080	0.109	0.101
255.0	14.95	21.31	78.60	279.3	468.0	 1566	 2660	9999.9	 4585	296.3	14.67	10.02	8.011	7.035	10.43	4.092	3.694	3.222	3.110	2.260	2.121	1.442	1.876	1.440	1.719	1.036	1.440	1.182	1.099	0.925	1.006	1.056	0.604	0.934	0.582	0.711	0.747	0.816	0.509	0.512	0.646	0.649	0.702	0.666	0.392	0.571	0.468	0.548	0.764	1.037	1.339	1.209	1.341	2.010	3.207	4.578	9.719	22.50	36.79	32.16	13.21	2.280	0.201	0.285	0.335	0.186	0.276	0.141	0.112	0.208	0.165	0.303	0.080	0.247	0.094	0.077	0.028
260.0	13.29	11.83	38.78	174.1	382.4	458.5	678.0	 7332	9999.9	 3846	149.1	13.55	9.740	7.341	9.059	4.797	3.963	3.205	3.316	1.975	2.399	2.005	2.057	1.396	1.654	1.364	1.464	1.282	1.008	0.936	0.918	1.215	0.733	0.785	0.653	0.661	0.565	0.717	0.360	0.547	0.686	0.613	0.412	0.488	0.535	0.440	0.497	0.587	0.568	0.571	1.007	1.507	1.611	1.302	1.053	1.356	2.544	6.518	18.57	37.97	46.92	32.32	8.904	0.831	0.410	0.255	0.307	0.234	0.140	0.071	0.126	0.283	0.163	0.196	0.271	0.252	0.038
265.0	16.50	15.13	21.01	69.75	310.4	399.6	212.1	 2049	9999.9	9999.9	 2714	59.30	13.14	10.02	9.352	5.374	4.597	3.839	3.062	2.452	2.000	2.373	2.339	1.418	1.775	1.860	1.397	1.461	1.654	1.108	1.233	0.961	0.930	0.855	0.504	0.873	0.606	0.675	0.579	0.496	0.551	0.705	0.608	0.722	0.687	0.613	0.599	0.473	0.623	0.527	0.604	0.914	1.949	1.834	1.340	0.815	0.967	1.709	4.797	12.65	31.32	54.44	48.32	25.23	4.191	0.292	0.307	0.146	0.243	0.079	0.199	0.258	0.089	0.210	0.124	0.276	0.371
270.0	29.18	18.50	24.67	29.26	117.7	366.0	370.7	563.5	 2810	 6385	9999.9	 6354	173.9	15.24	15.30	7.070	5.617	4.482	3.193	3.020	2.401	2.252	1.979	1.949	1.790	1.560	1.579	1.734	1.394	1.325	1.073	1.004	1.150	1.091	0.745	0.862	0.746	0.716	0.671	0.513	0.519	0.680	0.604	0.625	0.639	0.698	0.625	0.684	0.582	0.616	0.420	0.589	0.854	1.091	1.555	2.223	1.787	1.251	1.543	3.292	7.916	17.17	32.22	48.60	52.38	46.22	18.38	4.092	0.394	0.204	0.214	0.181	0.271	0.240	0.280	0.294	0.274
275.0	46.82	49.05	48.41	31.56	47.61	137.2	384.8	613.6	721.2	 1513	 4140	9999.9	9999.9	205.7	22.05	10.88	8.210	5.410	5.029	3.769	2.726	2.432	2.872	1.912	2.031	1.777	1.360	1.835	1.369	1.684	1.311	1.190	1.219	1.283	0.710	0.775	0.701	0.881	0.974	0.599	0.851	0.629	0.538	0.692	0.601	0.911	0.762	0.572	0.731	0.582	0.433	0.488	0.532	0.545	0.735	1.417	2.357	2.801	2.342	1.388	2.318	4.379	7.519	11.95	21.17	51.38	87.17	50.48	25.48	2.895	0.340	0.384	0.295	0.289	0.137	0.414	0.236
280.0	72.16	71.25	67.78	52.93	52.20	70.56	186.9	681.2	531.3	444.5	 1082	 5414	9999.9	 2569	134.7	16.33	10.13	6.962	5.120	4.664	3.392	3.220	3.089	2.045	2.072	1.833	1.882	1.858	1.281	1.303	1.449	1.126	1.381	1.205	0.864	0.790	0.894	1.007	0.834	0.719	0.782	0.849	0.624	1.223	0.694	1.030	0.821	0.564	0.805	0.707	0.589	0.433	0.497	0.370	0.492	0.760	1.155	2.404	3.521	3.019	1.581	1.517	2.397	3.456	5.660	14.17	39.71	75.51	102.6	44.29	13.20	0.809	0.216	0.210	0.163	0.449	0.223
285.0	108.1	118.3	114.8	79.56	71.39	61.79	96.55	393.4	818.9	380.4	392.0	 1506	 7647	9999.9	 2074	61.68	14.35	9.206	6.756	5.455	4.339	3.060	2.841	2.894	2.757	2.439	2.391	1.940	1.597	1.458	1.404	1.471	1.209	1.230	0.914	0.963	0.978	0.772	0.845	0.828	1.183	0.869	1.245	1.206	0.942	1.218	0.902	0.919	0.889	0.981	0.655	0.539	0.540	0.795	0.511	0.557	1.033	1.174	2.001	3.595	4.043	2.354	1.602	1.441	2.217	3.985	10.15	23.93	59.26	100.3	56.89	33.07	4.536	0.521	0.419	0.204	0.334
290.0	152.7	177.5	189.1	147.0	92.16	93.01	95.40	212.0	538.7	861.7	452.1	609.8	 2103	 6815	9999.9	 7223	109.4	14.34	9.528	6.585	4.807	4.305	3.929	3.077	2.760	2.503	2.406	1.794	1.584	1.570	1.523	1.383	1.257	1.353	1.104	1.252	0.997	1.024	0.849	1.231	1.117	0.995	1.150	1.064	1.083	1.248	1.097	1.223	1.030	1.050	0.800	0.744	0.665	0.651	0.587	0.670	0.919	0.823	1.070	1.807	2.787	3.498	3.997	2.579	2.001	2.028	3.607	6.662	14.75	29.38	44.53	77.17	69.17	67.83	22.05	5.578	0.477
295.0	190.1	233.3	259.8	193.5	137.1	141.3	135.5	189.1	325.9	631.6	 1206	562.8	828.7	 1799	 3986	9999.9	9999.9	135.0	15.81	9.180	6.925	5.001	4.012	3.355	3.282	2.548	2.455	2.274	2.312	1.638	1.760	1.507	1.553	1.046	1.194	1.000	0.978	1.129	1.263	1.359	1.308	1.313	1.034	1.203	1.324	1.270	1.527	1.292	1.193	1.004	0.907	1.107	0.947	0.916	0.858	0.913	1.050	1.090	1.081	1.457	1.594	1.975	3.233	4.767	5.438	3.429	2.595	3.183	4.769	8.027	11.05	18.76	24.55	63.92	116.7	57.62	32.21
300.0	200.9	264.0	288.3	242.2	175.5	166.2	181.1	211.5	307.3	454.4	 1066	 1254	708.1	746.7	 1139	 4544	9999.9	 7154	90.02	12.75	8.141	6.281	4.339	3.880	3.549	2.929	2.827	2.596	2.637	1.748	1.746	1.717	1.560	1.021	1.234	1.521	1.195	1.463	1.214	1.314	1.341	1.433	1.115	1.071	1.286	1.443	1.448	1.409	1.465	1.276	1.112	0.949	1.003	1.056	1.039	1.104	1.294	1.228	1.134	1.306	1.407	1.717	2.155	3.424	5.301	6.674	4.537	3.165	2.862	3.616	4.182	5.368	6.492	16.44	45.15	92.34	133.7
305.0	214.7	272.8	305.5	275.1	212.7	192.3	214.4	271.6	353.0	451.3	769.2	 1495	 1139	618.8	550.4	 1239	 9059	9999.9	 1241	52.56	10.34	7.912	5.635	4.250	4.901	3.514	2.799	2.209	2.733	2.333	1.978	1.558	1.613	1.102	1.489	1.566	1.012	1.455	1.474	1.372	1.237	1.202	1.404	1.140	1.265	1.388	1.523	1.573	1.873	1.344	1.479	1.224	1.106	0.889	0.896	1.144	1.111	0.966	1.370	1.615	1.757	1.876	2.001	3.046	3.581	5.353	7.075	5.971	3.784	2.940	2.604	3.059	2.844	4.748	11.26	26.05	66.35
310.0	220.1	281.3	350.6	305.0	242.6	230.9	250.7	319.8	403.6	517.1	706.5	 1068	 1491	 1078	544.2	519.4	 2274	 5827	9999.9	 5039	76.08	12.86	7.627	6.552	5.303	4.237	3.094	2.653	2.682	2.064	1.865	1.783	1.718	1.147	1.102	1.503	1.501	1.566	1.277	1.468	1.506	1.486	1.397	1.238	1.836	1.481	1.584	1.772	1.854	1.290	1.325	1.492	1.137	1.156	1.237	1.314	1.296	1.469	1.633	1.856	1.870	1.871	2.245	2.832	3.102	3.661	4.855	5.849	6.581	5.769	3.944	2.761	2.332	2.541	3.496	7.186	16.34
315.0	236.8	303.0	382.3	333.1	264.5	264.8	293.6	361.6	450.1	563.5	737.4	913.6	 1105	 1466	949.1	451.4	717.7	 1433	 3194	9999.9	 7461	99.60	13.13	8.162	5.645	4.708	3.881	3.344	2.721	2.684	2.196	1.720	1.480	1.308	1.415	1.488	1.399	1.486	1.606	1.114	1.732	1.312	1.562	1.183	1.742	1.386	1.539	1.777	2.189	1.368	1.393	1.437	1.532	1.475	1.281	1.470	1.708	1.717	1.730	2.161	1.998	2.366	2.682	2.847	3.087	3.787	4.020	4.227	5.121	5.694	6.471	5.312	3.338	2.471	1.947	2.607	4.536
320.0	260.7	386.8	485.2	389.2	302.3	297.1	314.9	396.8	494.6	603.0	779.0	918.4	 1025	 1217	 1391	631.3	426.7	483.8	831.3	 4137	9999.9	 5831	69.43	11.37	7.782	5.855	4.435	3.631	3.164	2.929	2.222	1.957	1.638	1.762	1.268	1.310	1.246	1.500	1.263	1.217	1.505	1.412	1.478	1.269	1.867	1.329	1.767	2.264	1.968	1.623	1.303	1.370	1.459	1.460	1.531	1.571	2.020	1.709	1.826	2.209	2.211	2.658	2.785	2.715	2.983	3.288	3.889	4.032	4.208	4.809	5.303	7.099	6.088	3.665	2.404	2.521	2.284
325.0	276.4	444.2	599.4	507.3	360.9	321.8	339.5	433.2	535.9	669.0	826.5	985.5	 1055	 1068	 1308	 1041	444.2	316.2	321.9	 1049	 5966	9999.9	930.6	43.10	9.048	7.428	5.245	4.212	3.134	3.480	2.190	2.109	1.911	1.758	1.391	1.183	1.440	1.628	1.478	1.414	1.462	1.389	1.513	1.589	1.620	1.746	2.300	2.294	2.606	1.903	1.401	1.521	1.667	1.571	1.780	1.158	1.829	1.749	1.723	2.381	2.230	2.656	3.083	3.161	3.389	3.601	3.666	4.284	4.520	5.220	4.178	5.128	6.401	6.217	4.224	3.036	2.165
330.0	292.2	449.8	657.1	627.9	453.1	359.9	368.4	458.0	571.1	684.3	856.3	 1007	 1091	 1065	 1033	 1084	834.3	390.0	260.1	363.0	 1480	 5380	9999.9	 3875	60.01	10.60	6.566	5.228	4.186	3.166	3.194	2.090	2.303	1.821	1.955	1.621	1.597	1.578	1.670	1.471	1.584	1.640	1.751	1.816	1.752	1.905	2.371	3.043	2.873	2.568	1.990	1.966	1.690	1.526	1.703	1.681	1.864	2.027	1.672	2.300	2.463	2.457	2.741	3.081	3.601	3.963	3.858	4.404	4.472	4.821	4.484	4.474	5.071	5.255	5.906	5.476	3.615
335.0	298.7	521.2	714.6	699.1	528.5	419.4	392.7	506.4	583.1	713.2	888.3	 1021	 1115	 1073	979.4	859.1	919.2	754.8	333.5	258.9	454.3	 1293	 3216	9999.9	 6099	82.50	10.59	6.775	5.179	4.086	3.298	2.412	2.676	1.977	1.711	1.986	1.878	1.483	1.829	1.515	1.869	1.645	1.606	2.181	1.692	2.113	2.546	2.797	2.982	2.789	2.216	2.360	2.010	1.828	2.036	1.850	2.089	2.145	1.819	2.505	2.526	2.704	2.462	3.014	4.155	3.940	4.316	4.403	4.271	4.549	4.388	4.722	4.033	4.340	4.194	4.751	5.501
340.0	300.9	499.5	741.3	741.4	565.2	467.9	461.2	524.7	597.8	745.0	884.8	 1037	 1116	 1101	994.1	817.5	768.6	916.9	532.1	277.8	261.4	407.1	818.5	 4368	9999.9	 4831	57.64	9.899	7.081	4.443	4.219	3.524	3.051	1.997	2.030	1.568	1.959	1.463	1.486	1.556	1.759	1.849	1.712	2.186	1.814	2.134	2.714	3.095	3.219	2.886	2.023	2.437	2.049	2.197	2.007	1.926	2.082	2.091	2.350	2.691	2.541	2.613	3.065	3.313	4.860	3.763	4.070	4.241	4.758	4.601	4.666	4.471	4.165	4.420	3.949	4.126	4.079
345.0	308.1	502.8	706.3	764.2	629.9	533.1	479.6	542.3	634.3	756.4	882.8	 1005	 1095	 1090	 1001	830.3	704.9	774.4	789.9	388.3	254.7	244.5	294.3	 1093	 6202	9999.9	767.6	37.91	7.890	6.301	4.701	3.857	3.047	1.927	2.468	1.468	1.936	1.676	1.592	1.639	1.493	1.921	1.932	1.725	1.935	2.369	2.180	3.103	3.269	2.881	1.999	2.490	2.666	2.290	2.274	2.089	2.196	2.423	2.514	2.399	2.556	2.996	3.334	3.446	4.728	3.806	4.041	4.202	4.688	4.696	4.671	4.600	4.330	3.718	3.912	3.941	3.945
350.0	297.1	463.5	679.3	755.4	659.4	608.3	577.5	620.3	692.0	782.0	892.8	 1005	 1075	 1093	 1015	856.9	720.9	655.4	737.4	671.8	384.5	265.0	231.7	361.3	 1544	 5650	9999.9	 3287	52.97	10.13	6.283	4.471	3.429	2.618	2.432	1.776	2.190	1.668	1.708	1.553	1.623	1.809	1.761	1.779	1.759	2.254	2.427	2.674	3.062	2.672	2.515	2.707	2.801	2.201	2.561	2.431	2.452	2.710	2.600	2.512	2.553	3.016	3.314	3.469	4.385	3.806	3.913	4.391	4.220	4.421	4.475	4.237	4.186	3.880	4.378	4.021	3.885
355.0	262.1	421.1	664.7	744.6	694.7	693.8	678.4	718.7	748.3	843.4	929.9	 1013	 1057	 1080	 1017	901.2	770.7	676.4	625.6	693.6	676.4	375.2	271.4	255.0	469.8	 1351	 3451	9999.9	 5239	72.89	10.29	6.212	4.157	3.368	3.176	2.131	2.273	1.798	1.537	1.382	1.645	1.643	1.781	1.903	1.802	2.474	2.429	2.700	2.806	2.539	2.262	2.743	2.652	2.648	2.689	3.026	2.745	3.302	2.655	3.218	2.887	3.575	3.697	3.586	4.159	3.732	3.894	4.571	4.375	4.381	4.756	4.129	4.282	4.206	4.586	4.398	4.223
360.0	238.8	403.9	624.5	728.4	738.4	732.9	714.2	749.4	812.3	873.0	964.7	 1026	 1059	 1073	 1019	913.0	803.7	720.1	635.7	616.9	756.0	570.2	333.9	260.9	267.3	417.8	869.7	 4662	9999.9	 4185	49.82	8.254	5.022	4.598	3.300	2.135	2.203	2.198	2.144	1.683	1.569	1.655	1.768	1.499	1.558	2.231	2.380	2.576	2.646	2.516	2.297	2.761	2.969	2.712	2.712	3.234	3.186	3.157	2.587	3.289	3.215	3.368	3.747	3.591	3.861	4.077	4.202	4.649	4.352	4.523	4.909	4.063	4.646	4.566	4.400	4.347	4.426
365.0	254.2	410.7	582.1	722.1	774.1	779.8	780.6	799.9	842.3	904.4	979.8	 1044	 1062	 1068	 1029	940.2	831.0	753.8	675.1	615.4	668.6	745.8	449.6	302.1	254.0	238.2	296.0	 1169	 6581	9999.9	687.0	28.31	6.744	5.178	3.487	2.822	2.294	2.264	1.889	1.554	1.784	1.437	1.767	1.686	1.621	2.367	2.107	2.548	2.765	2.360	2.581	2.817	2.613	2.739	2.431	3.563	3.165	3.465	3.191	3.300	3.580	3.511	4.068	4.010	3.599	3.911	4.063	4.922	4.283	4.668	4.974	4.327	4.922	4.831	4.435	4.460	4.557
370.0	248.1	397.7	572.9	731.4	793.7	806.6	831.3	844.7	896.0	932.6	981.5	 1039	 1052	 1053	 1016	940.0	857.2	795.5	726.8	655.1	628.9	692.6	672.1	448.4	308.7	246.7	209.9	361.9	 1642	 5865	9999.9	 2885	43.34	7.717	5.002	3.531	2.844	2.189	2.115	2.046	1.964	1.556	1.774	1.792	1.653	2.021	2.202	2.518	2.703	2.339	2.345	2.944	2.862	2.656	2.898	3.372	3.069	3.495	3.072	3.276	3.791	3.711	3.902	3.932	3.789	4.213	4.229	4.344	4.522	4.346	5.054	4.566	4.924	4.597	4.876	4.534	4.781
375.0	237.3	378.3	549.3	717.3	815.8	857.7	830.3	868.2	925.5	977.3	 1016	 1040	 1051	 1039	 1008	950.9	872.5	812.5	772.5	705.1	660.3	638.1	684.9	673.5	422.9	302.0	235.0	219.3	463.0	 1380	 3693	9999.9	 4346	57.12	6.952	4.874	3.468	2.786	2.259	2.349	1.809	1.817	1.759	1.970	1.853	1.655	2.140	2.444	2.781	2.377	2.633	2.813	3.094	3.303	2.911	3.081	3.161	3.562	3.189	3.343	3.609	3.587	4.054	3.708	4.059	4.180	4.294	4.260	4.434	4.496	4.559	4.253	4.812	4.929	4.433	4.717	4.595
380.0	238.5	378.5	522.8	689.1	800.9	860.4	865.4	911.5	954.3	992.2	 1021	 1046	 1031	 1030	997.2	924.6	877.5	834.5	786.8	744.0	684.9	648.4	638.9	711.4	573.7	364.5	277.6	219.6	228.4	391.4	908.2	 4939	9999.9	 3231	36.58	6.366	4.133	3.394	2.661	2.205	2.007	1.877	1.540	2.138	2.080	1.842	2.206	2.173	2.551	2.209	2.690	2.727	2.714	3.437	3.402	3.750	3.322	3.461	3.218	3.570	3.687	3.760	3.905	4.222	3.642	4.026	4.248	4.639	4.052	4.567	4.036	4.407	5.115	4.648	4.768	4.539	4.686
385.0	236.4	339.6	507.9	667.0	800.1	883.5	889.0	913.1	941.7	982.7	996.1	 1019	 1022	 1006	970.5	914.1	867.0	841.7	803.7	757.9	714.4	673.4	632.7	646.8	695.8	467.0	321.0	250.4	198.1	195.0	278.4	 1237	 6557	9999.9	536.7	20.08	5.667	4.318	3.022	2.360	2.091	1.932	2.020	2.004	2.150	2.154	1.876	2.033	2.571	2.252	2.524	2.877	2.969	3.373	3.295	3.360	3.366	3.437	3.423	3.743	3.864	3.963	3.748	3.734	3.827	3.595	4.424	4.000	4.564	4.215	3.959	4.306	4.526	4.480	4.388	4.799	4.687
390.0	228.1	346.9	489.6	652.9	772.5	877.6	921.8	934.4	941.9	968.2	987.4	989.1	993.3	979.0	940.5	901.6	862.8	836.0	803.8	772.4	731.6	694.4	643.3	612.4	634.6	614.3	428.3	300.4	232.5	184.8	166.4	348.8	 1646	 5653	 8108	 2208	33.87	6.310	4.435	3.004	2.444	2.273	2.132	1.842	2.097	2.104	1.982	2.308	2.301	2.267	2.521	2.817	2.902	3.174	3.227	3.392	3.447	3.420	3.219	3.664	3.847	3.727	3.961	3.812	3.823	4.134	4.205	3.808	3.976	4.326	4.136	4.307	4.324	4.693	4.753	4.648	4.522
395.0	228.9	337.1	476.0	652.7	763.7	866.9	897.7	925.1	929.8	954.1	959.7	963.0	955.5	937.6	923.4	882.6	849.9	825.9	813.2	778.4	737.4	719.5	666.3	625.0	589.6	591.3	587.3	395.2	283.6	220.7	171.9	176.7	434.8	 1312	 3192	 9042	 3399	45.44	5.984	4.050	3.356	2.672	2.292	2.041	2.181	2.386	2.031	2.232	2.079	2.502	2.345	2.677	2.915	3.126	2.834	3.206	3.661	3.688	3.555	3.739	3.650	3.401	3.657	3.826	3.767	4.238	3.613	3.782	3.726	3.965	4.216	4.024	4.134	4.320	4.207	4.620	4.490
400.0	237.0	334.3	474.8	609.0	773.5	838.8	883.8	912.2	930.6	951.9	955.7	945.3	937.2	925.2	900.6	857.7	818.9	806.3	799.0	777.2	737.4	724.4	676.7	632.7	587.1	556.7	607.1	511.0	331.4	253.9	196.1	155.9	178.2	350.4	779.3	 4455	 9318	 2487	28.76	5.275	3.924	3.564	2.873	2.081	2.189	2.444	1.964	2.232	2.370	2.417	2.071	2.716	3.005	3.007	2.713	3.374	3.562	3.868	3.992	3.393	4.082	3.072	3.813	4.164	3.989	4.116	3.441	4.063	3.454	3.880	4.340	3.812	4.026	3.885	4.475	4.202	4.803
405.0	212.4	324.9	468.9	598.9	754.1	817.0	859.3	909.4	928.2	948.6	938.9	929.1	920.3	898.6	868.1	828.4	805.7	795.7	778.8	764.6	733.2	713.6	682.1	635.8	593.3	556.6	553.9	579.7	415.5	288.9	220.9	167.6	135.8	144.7	221.9	 1118	 5760	 8323	446.4	13.97	4.743	4.084	2.840	2.550	2.466	2.513	2.501	2.627	2.334	2.141	2.293	2.639	3.025	2.810	2.763	3.279	3.409	3.706	3.481	3.392	4.026	3.591	3.417	3.897	4.078	3.767	3.776	3.799	3.728	3.850	4.094	3.991	4.069	3.998	4.606	4.291	4.563
410.0	213.9	309.3	454.8	609.1	719.2	788.3	843.7	893.5	918.8	929.9	914.4	924.6	887.4	864.8	839.2	798.5	773.1	767.0	752.3	738.9	716.9	701.1	677.1	634.8	605.0	565.3	526.4	531.6	517.6	375.6	263.6	198.6	148.9	118.7	109.4	293.1	 1438	 4615	 6332	 1788	28.75	5.473	3.475	3.021	2.517	2.337	2.513	2.375	2.268	2.309	2.232	2.794	2.673	2.771	3.078	3.166	3.266	3.546	3.604	3.544	3.772	3.638	3.405	3.699	3.825	3.748	3.752	3.852	3.719	3.549	3.995	3.723	3.910	3.848	4.197	4.151	4.594
415.0	206.5	289.3	442.4	587.7	677.6	750.5	822.9	858.1	901.9	903.1	890.6	882.3	858.9	828.0	801.7	756.5	732.7	724.8	717.8	695.4	690.2	673.8	650.5	630.3	601.8	567.9	525.3	494.9	495.2	487.0	336.8	235.5	175.8	130.5	101.1	120.1	358.7	 1061	 2550	 6948	 2813	40.00	5.487	3.706	2.947	2.372	2.525	2.279	2.192	2.357	2.118	2.858	2.918	2.764	3.558	3.410	3.367	3.142	3.128	3.305	3.830	3.750	3.773	3.480	3.309	3.241	3.638	3.587	3.639	3.389	3.385	3.437	3.604	3.591	3.731	3.791	3.999
420.0	191.2	287.1	413.4	556.0	665.6	747.3	804.7	865.6	868.8	877.5	868.7	855.2	857.3	802.2	771.6	726.5	714.2	700.4	687.2	677.0	665.3	650.5	646.4	626.1	598.8	567.5	527.3	488.7	458.0	493.4	412.4	270.0	196.6	147.8	108.9	89.59	123.8	269.9	615.4	 3452	 7122	 2032	25.29	4.517	3.422	2.713	2.465	2.243	2.256	2.132	2.201	2.678	2.588	2.923	3.084	2.896	3.126	3.210	3.786	3.660	3.846	3.538	3.788	3.321	3.629	3.574	3.811	3.507	3.623	3.070	3.152	3.507	3.717	3.536	3.922	3.786	3.728
425.0	202.7	268.4	413.4	540.1	639.2	713.2	775.2	853.6	853.6	873.8	854.2	841.3	819.6	777.0	756.6	702.1	686.4	669.2	657.2	659.0	640.5	637.3	620.8	612.2	582.2	563.1	528.2	492.2	450.2	448.5	458.2	331.5	214.1	161.5	121.0	92.34	82.04	100.0	165.5	869.4	 4442	 6320	407.4	11.14	4.258	2.888	2.539	2.288	2.358	2.285	2.098	2.437	2.727	2.864	3.028	2.612	3.195	3.101	3.438	3.231	3.409	3.675	3.446	3.312	3.371	3.094	3.337	3.067	3.465	3.253	3.419	3.491	3.761	3.241	3.860	4.035	3.608
430.0	429.5	273.8	383.1	505.7	601.5	680.2	761.0	833.4	851.6	854.2	845.1	826.1	797.2	746.6	718.4	673.6	650.4	634.0	621.1	625.0	609.4	603.6	600.5	586.4	568.8	546.9	522.2	492.1	453.2	426.0	418.4	393.3	274.1	185.8	138.7	106.5	83.72	69.20	73.17	221.4	 1109	 3481	 4208	 1585	26.29	4.695	3.225	2.747	2.434	2.174	2.071	2.389	2.781	2.841	2.852	2.438	3.064	3.443	3.201	3.129	3.432	3.477	3.664	3.287	3.278	3.174	3.369	2.996	3.289	3.059	2.980	3.451	3.571	3.019	3.300	3.541	3.478
435.0	 1052	331.9	380.8	506.3	577.4	659.6	726.1	799.5	846.2	832.4	845.0	803.3	764.8	724.2	689.0	637.7	618.1	596.3	596.2	587.8	579.4	571.8	566.5	569.3	553.9	535.3	514.2	489.4	451.6	421.5	383.0	368.9	350.5	238.2	162.1	123.1	95.04	76.86	61.25	82.38	272.2	799.2	 1812	 5663	 2472	35.40	4.732	3.600	2.989	2.347	2.483	2.639	2.318	2.594	2.989	2.458	3.324	2.932	3.093	2.900	3.616	3.521	3.254	2.950	3.311	2.876	3.398	3.030	3.286	3.243	3.113	3.254	3.092	3.104	3.275	3.116	3.348
440.0	 1356	617.5	369.3	485.4	563.7	652.1	705.8	775.5	808.2	831.6	813.2	780.1	740.7	708.4	657.4	610.3	585.0	567.1	565.1	550.5	554.7	542.6	547.7	541.1	533.9	522.9	503.6	482.9	454.9	420.2	381.4	339.8	351.0	288.9	187.1	137.8	107.8	83.73	65.31	58.20	90.00	202.1	441.1	 2814	 6065	 1793	20.58	4.367	3.360	2.773	2.832	2.605	2.307	2.538	2.735	2.492	3.293	2.971	3.362	3.279	3.372	3.199	3.203	3.327	3.311	3.233	3.422	2.607	3.316	3.096	3.092	3.117	2.694	2.812	3.145	2.550	3.021
445.0	 1111	 1094	377.3	465.7	542.5	619.9	666.1	757.0	778.9	797.8	820.4	773.3	711.0	684.6	635.1	582.6	561.8	547.8	528.7	529.0	531.7	524.6	522.6	520.5	516.1	501.2	490.5	460.9	448.1	418.4	378.1	329.4	315.3	310.6	223.8	150.0	114.7	93.42	72.97	58.82	54.37	69.85	118.7	704.8	 3779	 5636	339.8	11.36	4.114	3.458	2.928	2.694	2.683	2.830	2.179	2.489	2.907	2.791	3.070	3.313	3.236	3.154	3.150	3.371	3.805	3.024	3.280	3.138	3.017	2.770	3.439	2.683	2.867	2.550	3.113	2.664	2.996
450.0	517.7	 1600	939.0	421.4	500.4	582.8	643.0	702.9	750.8	773.9	767.5	739.4	690.9	648.6	596.9	556.6	525.0	502.1	499.3	492.4	485.8	482.8	481.2	483.5	486.1	476.1	469.2	454.2	433.7	409.3	372.6	327.6	290.4	277.0	258.4	187.2	128.2	101.4	82.40	65.72	52.41	47.57	51.58	177.1	944.5	 3126	 3723	 1396	22.34	4.205	3.260	3.024	2.584	2.754	2.480	2.583	3.072	2.961	2.844	3.179	3.135	3.041	2.981	3.177	3.359	2.958	3.131	2.821	2.839	2.755	2.860	2.936	2.897	2.654	2.700	2.909	3.059
455.0	224.4	 1071	 2393	515.2	482.4	549.1	601.4	676.7	720.2	716.7	739.3	704.3	643.4	608.3	557.5	517.1	486.4	460.3	464.6	445.3	443.1	439.7	444.2	445.5	449.5	444.8	437.5	427.5	409.9	391.9	363.8	323.7	285.9	245.6	238.4	225.1	155.7	114.3	89.86	73.44	58.40	48.06	40.17	61.95	228.7	715.1	 1580	 5027	 2131	27.93	4.210	3.552	3.078	2.792	2.603	2.645	2.846	2.583	3.088	2.821	3.064	2.777	2.573	3.270	3.002	2.843	3.152	3.205	3.034	2.736	2.788	2.559	2.981	2.713	2.897	2.668	2.407
460.0	158.5	533.9	 3188	 1088	442.2	519.4	562.2	630.2	680.9	684.0	701.3	680.6	624.7	581.0	528.7	482.1	453.8	434.4	429.5	414.4	412.7	411.1	415.4	410.7	419.7	419.1	412.4	406.0	392.3	374.4	348.0	311.3	273.8	238.6	211.0	220.5	186.3	123.0	93.34	78.43	62.12	51.51	40.98	38.42	70.60	176.5	379.7	 2454	 5288	 1445	15.84	4.318	3.233	2.771	2.854	2.581	2.810	2.798	2.748	2.826	2.874	3.037	2.827	3.199	3.007	2.857	2.786	2.733	3.125	2.919	2.560	2.829	2.590	2.336	2.471	2.605	2.309
465.0	142.5	272.6	 2491	 2327	459.8	487.1	538.3	610.0	643.7	669.6	674.6	650.1	605.0	553.1	496.2	455.7	424.4	404.2	407.2	395.8	386.2	387.4	383.3	386.3	388.9	390.5	381.9	382.2	374.9	358.0	332.0	308.3	265.7	230.0	200.5	198.1	199.7	146.4	102.2	81.36	66.09	54.91	43.58	36.51	38.47	57.28	100.0	611.2	 3275	 4639	276.7	9.634	3.749	3.163	2.744	2.519	2.733	2.797	2.710	2.929	2.694	2.497	3.071	3.261	2.657	2.544	2.468	2.938	2.629	2.389	2.068	2.344	2.206	2.414	2.339	2.167	2.456
470.0	142.6	197.3	 1047	 3240	 1456	446.7	509.0	570.4	604.0	615.4	620.0	591.9	548.7	506.9	468.4	412.9	392.7	367.4	364.0	355.0	351.0	344.9	344.9	347.8	351.7	351.7	352.0	347.6	342.2	335.0	311.5	288.7	252.0	219.6	190.9	174.9	169.8	161.6	120.6	88.23	69.81	59.68	48.45	39.09	33.97	33.23	39.06	150.4	811.5	 2557	 2821	 1232	21.17	4.137	3.162	2.787	2.794	2.745	2.549	2.722	2.446	2.772	3.058	2.685	2.700	2.584	2.397	2.499	2.387	2.389	2.307	2.100	1.967	2.088	2.230	2.273	2.032
475.0	152.6	174.0	401.6	 1953	 3438	541.3	438.2	512.7	557.0	555.4	564.2	543.1	505.2	459.0	420.5	370.6	346.7	328.2	317.9	315.6	311.3	310.0	310.5	309.9	317.9	313.9	315.0	315.1	306.2	301.8	287.9	264.4	233.9	208.1	181.7	163.9	145.4	144.8	141.7	102.4	73.61	61.87	50.28	41.72	33.84	31.06	27.39	49.03	192.9	582.1	 1162	 3509	 1660	28.19	3.897	3.099	2.606	2.432	2.505	2.474	2.543	2.338	2.442	2.454	2.475	2.556	2.082	2.271	1.983	2.115	1.919	1.691	1.871	1.616	1.819	1.789	1.910
480.0	139.1	163.6	224.1	831.6	 3948	 1063	403.0	483.5	500.9	527.7	518.6	497.9	463.3	430.9	386.0	344.0	329.3	304.9	295.5	291.0	281.0	286.2	287.5	282.3	290.6	287.3	292.0	292.1	286.8	281.7	271.5	248.6	223.8	197.3	173.9	153.2	135.5	124.1	134.5	118.1	78.09	62.84	52.61	43.14	35.91	31.33	27.29	27.62	55.73	141.1	276.9	 1583	 3697	371.5	17.08	3.603	3.136	2.678	2.469	2.522	2.589	2.385	2.032	2.182	2.077	2.441	2.149	2.198	2.074	1.971	2.214	2.027	1.829	1.917	1.624	2.189	1.743
485.0	115.1	162.3	205.3	408.0	 2776	 3199	412.4	440.1	477.5	501.3	492.2	478.8	440.3	404.2	358.7	322.1	303.7	280.9	273.2	275.8	259.3	263.2	267.9	262.5	265.5	271.3	269.7	266.2	271.4	264.2	260.5	231.6	211.6	185.5	166.8	147.5	130.1	115.9	115.8	122.3	91.47	65.35	53.99	44.13	37.18	32.98	27.28	23.24	26.91	43.19	72.23	387.3	 2168	 2969	308.8	8.322	2.878	2.950	2.648	2.366	2.607	2.240	2.366	1.996	2.119	2.092	2.112	2.058	2.089	1.681	1.951	1.892	1.714	1.691	1.664	1.894	1.827
490.0	93.64	148.6	198.4	268.0	 1105	 4715	 1208	401.8	437.2	447.6	444.7	433.7	401.3	370.4	329.5	296.9	278.7	258.3	247.4	239.3	235.7	235.1	237.3	233.2	238.0	241.0	241.4	243.3	245.5	237.8	232.2	215.8	194.8	175.7	156.0	138.9	122.0	110.0	99.60	105.7	101.9	76.64	55.89	44.98	39.16	34.17	28.47	23.90	21.93	22.54	26.64	95.44	530.5	 1633	 2568	 1138	21.88	3.448	2.983	2.561	2.378	2.169	2.239	2.003	2.030	2.210	2.046	1.838	1.861	1.715	1.569	1.771	1.950	1.550	1.688	1.791	1.732
495.0	84.90	124.5	201.2	205.5	440.4	 2837	 2915	568.5	384.0	410.5	403.7	391.3	361.7	331.2	299.1	263.5	243.3	231.9	221.5	217.0	210.9	213.8	212.2	208.9	212.2	212.9	213.6	213.9	217.8	214.2	210.9	195.4	180.8	162.1	142.9	128.3	116.4	102.2	93.01	85.33	88.41	85.74	63.20	46.31	39.00	34.08	30.27	25.51	22.41	18.37	17.46	30.49	126.2	372.3	978.9	 2989	 1617	28.41	3.419	3.005	2.605	1.631	2.333	1.935	1.798	1.659	1.836	1.662	1.877	1.843	1.533	1.669	1.322	1.393	1.560	1.716	1.767
500.0	71.47	102.9	198.6	199.0	270.6	 1125	 3312	 1691	368.7	375.1	395.0	365.1	333.8	307.5	275.8	245.9	223.4	211.1	202.2	197.2	194.4	196.2	185.1	189.9	191.2	195.5	196.0	195.2	200.9	193.7	189.4	178.1	166.6	148.1	132.2	121.3	107.2	96.09	86.28	79.10	75.61	81.27	71.76	48.88	39.28	34.80	29.52	26.00	21.62	18.70	14.54	15.89	35.90	90.13	230.1	 1326	 3341	389.4	16.89	3.044	2.429	2.024	2.009	1.908	1.883	1.453	1.763	1.389	1.661	1.270	1.384	1.665	1.273	1.434	1.649	1.478	1.709
505.0	70.73	94.69	177.0	216.8	209.8	454.9	 2353	 3958	382.2	341.6	352.8	338.3	305.6	290.0	246.9	228.0	210.9	193.6	182.1	179.2	177.5	176.8	167.8	172.2	173.9	176.8	177.9	180.4	179.7	178.3	173.5	163.7	153.3	136.0	126.2	112.1	101.3	91.30	83.55	73.46	66.04	68.84	74.48	57.09	39.47	33.48	28.79	25.05	21.27	18.38	14.79	13.22	15.71	27.08	57.24	319.3	 1870	 2986	327.3	6.334	2.676	2.336	2.049	1.753	2.075	1.622	1.664	1.399	1.697	1.302	1.238	1.423	0.927	1.334	1.446	1.393	1.455
510.0	57.49	74.17	145.6	222.7	197.4	260.7	913.5	 4689	 1346	305.0	316.9	297.6	276.2	249.8	220.2	200.4	185.7	170.8	161.4	156.2	155.5	153.6	148.1	150.2	152.8	154.9	153.7	156.2	157.6	157.5	153.0	146.1	134.2	123.0	111.2	101.6	90.82	82.90	74.31	67.32	61.65	57.09	61.37	59.83	45.35	33.93	27.73	24.82	21.03	18.10	15.16	12.53	11.26	12.94	18.33	76.45	452.8	 1542	 2332	971.1	20.60	2.685	2.067	1.929	1.659	1.570	1.414	1.481	1.539	1.359	1.299	1.153	0.924	1.086	1.295	1.140	1.102
515.0	69.32	76.32	98.52	176.4	221.7	192.8	362.5	 2256	 3741	444.9	275.8	262.3	252.4	214.3	195.2	176.4	159.5	151.8	139.6	135.4	130.5	135.0	131.2	131.4	132.4	132.0	134.7	133.1	137.3	135.7	133.1	129.1	117.5	107.1	100.0	90.42	82.04	74.36	68.57	62.96	56.76	50.84	48.47	51.19	51.26	39.15	28.19	24.02	21.03	17.80	14.50	12.52	10.44	9.603	9.841	22.31	105.8	348.6	848.7	 2521	 1296	26.72	2.594	2.032	2.020	1.745	1.557	1.279	1.270	1.376	1.239	1.042	0.979	0.932	1.263	0.963	1.152
520.0	59.06	68.24	97.07	141.7	243.4	170.2	215.3	839.0	 4792	 1294	253.2	242.6	222.5	196.9	178.4	155.8	144.5	136.1	126.3	123.0	118.2	118.2	114.7	114.8	119.9	120.1	118.2	117.6	122.2	124.0	122.2	115.5	106.3	97.50	90.14	82.49	73.66	67.17	63.61	57.36	51.06	46.73	43.47	43.09	49.06	43.72	29.85	23.02	20.67	17.31	14.69	12.48	10.81	8.925	7.959	10.36	28.60	82.07	197.7	 1125	 2631	378.0	12.84	2.010	1.793	1.495	1.572	1.356	1.169	1.222	1.226	0.926	0.817	0.985	1.285	0.833	1.198
525.0	38.40	57.28	79.94	108.9	222.3	191.8	171.1	343.0	 3765	 2931	311.1	226.2	203.2	184.4	155.2	140.5	134.8	121.1	116.4	114.8	104.5	104.3	104.3	103.1	107.2	105.7	107.1	109.1	110.4	112.0	110.2	104.6	97.07	88.84	82.18	73.98	68.05	62.61	57.96	52.06	47.63	42.58	39.22	36.01	40.09	44.75	32.85	22.84	19.74	16.97	14.60	11.68	11.29	9.221	8.125	7.786	11.03	22.28	48.46	270.8	 1461	 2247	294.1	4.405	1.976	1.497	1.541	1.131	1.261	1.045	1.232	1.037	0.831	1.049	0.761	0.885	0.998
530.0	37.43	50.10	72.67	89.97	156.6	225.4	163.4	203.2	 1355	 3562	 1864	206.0	176.8	157.6	146.8	127.9	118.6	106.9	102.3	99.37	94.13	92.52	92.63	91.02	92.80	92.58	93.15	94.82	94.20	96.96	92.63	90.76	84.51	78.49	71.48	66.17	60.28	55.61	50.83	47.23	42.94	38.05	35.48	32.30	31.46	35.97	36.07	26.63	19.43	16.56	14.14	11.48	10.03	9.197	7.888	7.233	6.899	8.801	14.62	64.10	353.1	 1162	 1710	697.6	18.76	1.782	1.628	1.155	1.081	1.087	0.924	0.923	0.787	0.880	0.771	0.816	0.727
535.0	36.72	44.73	65.31	80.99	105.8	190.8	174.4	152.7	433.2	 1729	 4141	347.2	161.3	142.4	126.8	107.1	106.5	93.05	87.84	83.89	81.22	78.77	79.64	81.71	76.09	79.08	81.60	82.04	79.98	82.46	79.01	77.70	70.73	68.31	62.93	58.62	52.64	49.62	46.42	41.90	37.71	34.62	31.80	28.97	27.65	26.69	30.41	30.06	21.88	15.00	12.95	11.09	9.528	8.979	8.031	6.812	6.617	6.285	6.856	18.01	81.50	262.6	631.6	 1824	404.1	22.04	1.913	1.273	1.049	1.121	0.988	0.748	0.691	0.749	0.665	0.840	0.775
540.0	32.04	41.99	53.08	67.88	84.18	155.7	194.9	141.4	200.2	610.7	 4261	 1249	148.3	124.1	114.3	96.77	92.89	83.14	79.29	75.00	73.13	69.25	70.76	71.57	71.37	70.89	73.55	72.73	71.43	72.52	68.30	70.06	63.51	58.78	55.85	51.73	48.57	44.20	41.55	37.30	35.00	31.62	27.88	26.15	24.24	23.14	24.46	28.84	24.73	16.07	12.78	10.08	8.807	7.748	7.265	6.372	6.311	5.281	5.367	6.842	21.16	61.08	147.3	828.1	 1774	346.0	8.231	1.559	1.206	1.112	0.721	0.729	0.643	0.633	0.741	0.807	0.766
545.0	26.60	44.07	43.04	65.31	75.71	114.6	196.9	128.6	146.7	246.9	 2614	 3083	165.7	111.8	100.0	83.73	79.62	75.69	69.98	69.39	65.50	63.35	63.42	61.78	63.19	62.86	64.94	63.42	65.05	65.81	62.75	61.71	56.57	53.17	49.96	46.45	43.17	40.13	37.74	32.99	31.10	28.46	26.50	24.67	22.37	20.68	19.62	23.46	26.01	17.82	12.23	9.479	8.756	7.878	6.861	6.062	6.160	5.110	4.657	4.583	7.750	15.98	35.79	200.0	 1068	 1597	53.30	2.805	1.411	0.737	0.886	0.552	0.609	0.474	0.647	0.631	0.578
550.0	28.91	35.58	46.52	58.33	64.58	85.31	162.1	160.3	118.3	144.8	852.4	 3553	 1121	101.2	85.16	75.91	70.56	63.15	59.29	58.10	55.88	55.52	53.75	52.68	52.82	52.62	54.91	52.30	53.64	55.25	53.01	50.93	47.42	46.22	42.06	39.11	37.02	33.35	31.70	29.46	27.22	25.32	21.76	21.38	19.82	17.67	16.34	17.38	20.45	19.47	13.12	9.560	7.687	6.719	6.223	5.392	5.566	4.972	4.513	4.282	4.286	6.147	10.49	47.17	261.4	851.2	 1155	230.4	14.74	1.270	0.897	0.670	0.776	0.511	0.652	0.576	0.533
555.0	27.82	33.61	41.87	45.58	53.46	70.84	103.1	188.1	106.7	105.3	272.3	 1556	 3222	204.5	73.38	63.06	56.93	50.40	49.11	46.18	46.13	45.49	41.00	43.29	44.52	41.29	43.67	43.65	43.71	43.69	44.28	41.92	38.65	36.75	34.61	32.00	31.16	29.05	26.20	23.82	22.36	20.87	18.10	17.73	16.62	15.78	13.57	13.65	14.12	16.12	14.49	10.69	6.179	5.905	5.293	4.785	5.292	4.686	4.879	3.766	3.515	3.793	4.573	13.26	59.96	192.4	456.5	 1188	361.0	14.09	1.293	0.619	0.585	0.638	0.700	0.534	0.450
560.0	33.13	24.18	35.15	41.54	46.37	53.23	70.11	165.2	137.1	91.92	130.7	505.6	 3678	984.4	62.45	55.61	50.67	43.40	39.80	40.09	38.67	37.84	37.11	36.78	34.93	35.76	37.13	34.58	36.66	36.25	36.45	34.35	33.95	32.18	28.18	27.35	26.85	24.18	23.08	21.76	19.16	17.18	15.87	14.10	14.10	13.15	11.88	11.34	10.71	12.43	13.97	11.55	6.695	5.189	5.243	4.299	4.103	3.928	4.821	4.061	3.353	3.042	3.312	4.814	15.15	44.75	107.4	585.0	 1150	266.1	3.668	0.633	0.848	0.749	0.604	0.658	0.627
565.0	26.16	28.57	28.06	45.34	41.45	45.92	58.65	116.3	165.8	84.72	94.81	186.3	 2186	 2516	76.32	48.46	41.73	37.38	35.91	34.27	33.44	32.73	31.69	29.85	31.49	31.32	30.01	29.61	31.90	32.61	31.78	28.81	29.89	26.11	25.46	22.79	22.40	20.29	18.47	17.71	17.26	14.97	14.24	12.41	11.90	11.56	10.17	9.680	9.363	8.944	11.69	10.76	7.348	4.912	4.562	4.140	3.952	3.908	3.639	3.758	3.262	2.937	2.862	2.917	5.380	11.49	25.42	144.4	735.7	955.8	48.19	1.367	0.822	0.634	0.455	0.515	0.644
570.0	22.77	27.50	34.09	41.50	38.43	39.90	45.56	75.56	157.7	99.53	80.63	102.1	677.5	 3104	852.3	41.46	34.51	31.74	29.44	29.26	27.14	26.09	26.17	25.31	25.09	23.42	24.73	25.39	25.57	24.93	24.99	23.66	22.33	20.75	20.73	18.77	17.62	16.47	15.49	14.09	13.17	12.62	11.21	10.28	10.01	9.340	8.343	7.998	6.943	6.554	7.521	8.832	7.715	5.363	4.562	3.617	3.587	3.270	3.318	3.290	3.092	2.813	2.570	2.336	2.942	3.999	7.205	33.88	183.0	539.7	554.4	202.2	9.214	0.750	0.532	0.357	0.496
575.0	19.85	31.68	30.89	30.48	36.23	36.04	37.69	46.64	114.8	142.4	73.34	75.28	201.4	 1302	 2801	116.1	27.66	25.95	23.36	22.38	21.26	20.18	20.07	20.76	19.02	18.32	20.48	20.08	20.05	19.77	19.98	18.26	18.35	16.12	15.48	15.51	13.53	12.92	12.41	11.83	9.777	9.857	9.486	8.985	8.888	7.306	7.119	6.297	6.144	5.320	5.111	5.554	6.848	5.929	4.359	2.863	3.191	2.757	2.451	2.647	2.446	3.016	2.318	2.200	2.464	2.095	3.044	9.087	42.19	122.4	259.3	713.9	251.3	5.892	0.568	0.415	0.402
580.0	19.56	34.50	28.78	32.76	26.44	32.65	34.65	41.86	72.55	166.2	78.63	66.78	95.79	398.9	 3100	675.9	26.98	22.61	21.58	18.41	17.45	18.46	15.60	17.39	16.37	16.73	15.70	16.35	16.66	15.83	17.58	15.96	15.87	13.96	13.07	12.43	11.63	10.99	11.10	10.38	8.293	8.658	8.359	7.700	7.116	6.649	6.296	5.513	5.499	4.634	4.588	4.447	5.576	5.513	4.426	2.956	2.834	2.585	2.477	2.363	2.540	2.899	2.490	2.207	2.103	1.713	2.232	3.324	10.65	28.62	62.40	371.5	659.6	52.31	1.644	0.545	0.322
585.0	22.13	31.89	27.45	27.72	29.49	28.94	30.89	41.94	52.12	143.7	109.4	71.58	64.63	127.8	 1792	 1844	33.69	19.30	19.37	14.75	15.35	15.49	13.49	14.67	13.70	14.59	14.01	13.56	13.48	13.61	14.87	13.91	12.33	11.88	11.36	10.53	10.14	9.065	8.958	9.424	7.018	6.934	6.934	6.265	5.519	5.644	5.031	5.130	4.547	3.999	3.677	3.534	4.068	4.925	4.546	3.577	2.404	2.457	2.214	2.149	2.355	2.432	2.509	2.213	1.817	1.804	2.064	1.944	3.503	7.335	14.98	92.86	448.2	440.4	39.47	0.797	0.381
590.0	21.51	30.00	29.02	27.29	26.28	29.44	29.90	33.86	42.81	92.45	143.3	72.95	59.86	65.20	533.1	 2356	558.2	17.81	16.04	13.82	12.62	11.99	11.46	12.19	11.87	12.10	10.88	11.19	10.70	11.40	11.66	10.98	10.29	9.314	8.968	9.031	8.393	7.509	7.598	6.975	6.058	5.464	5.251	5.110	4.715	4.622	4.071	3.886	3.634	3.393	3.065	2.902	2.865	3.294	4.261	3.873	2.625	1.834	1.935	1.744	1.689	1.781	1.906	1.927	1.838	1.749	1.541	1.284	1.695	2.507	4.023	21.42	113.4	306.8	385.1	129.1	4.526
595.0	17.73	26.06	28.95	26.43	28.47	22.74	27.20	28.97	43.85	58.02	135.4	96.08	55.42	48.58	149.1	970.0	 1974	57.92	13.17	10.79	11.82	9.835	9.832	10.35	9.348	8.935	8.531	8.579	8.803	8.978	9.604	8.474	8.246	7.590	7.128	7.570	6.450	5.947	5.744	5.339	4.911	4.442	4.396	4.253	3.779	3.793	3.465	3.019	3.428	2.685	2.585	2.127	2.379	2.048	3.463	3.603	2.891	1.981	1.478	1.254	1.276	1.385	1.347	1.604	1.976	1.543	1.347	1.180	1.405	1.283	1.687	5.333	25.82	69.55	177.2	421.6	57.18
600.0	16.56	17.73	25.96	26.58	22.68	20.10	24.48	29.17	39.13	49.93	103.3	125.6	56.81	44.22	60.31	280.8	 2226	188.1	11.53	9.383	9.225	9.300	8.075	8.376	7.359	8.125	7.288	7.362	6.761	7.727	8.097	6.855	6.875	6.814	5.987	6.414	5.799	5.387	4.913	4.991	4.511	3.980	3.773	3.429	3.179	3.194	2.821	3.123	2.906	2.185	2.261	1.866	1.817	1.767	2.113	3.054	2.977	2.073	1.297	1.175	1.196	1.546	1.476	1.361	1.618	1.881	1.077	1.130	1.144	0.813	0.798	1.663	6.385	15.94	42.78	234.9	361.9
605.0	10.94	17.21	27.30	22.72	24.90	23.69	23.85	30.79	35.68	42.95	68.80	143.9	62.30	45.29	37.58	83.59	 1304	 1237	17.57	8.013	7.910	9.063	7.429	6.828	7.092	6.902	6.676	6.467	6.196	6.914	6.675	5.563	5.778	5.577	5.437	5.461	4.879	4.234	3.682	3.801	3.988	2.882	3.083	3.005	2.931	2.765	2.512	2.354	1.915	2.002	1.634	1.474	1.516	1.640	1.725	2.240	2.812	2.447	1.300	1.205	1.201	1.204	1.250	1.163	1.318	1.679	1.262	1.033	0.985	0.690	0.686	0.763	1.893	4.053	10.03	60.21	261.8
610.0	17.06	12.31	28.33	25.83	19.25	23.31	20.72	28.36	32.27	39.35	55.35	115.9	88.60	47.89	35.48	35.81	380.0	 1671	383.6	8.790	7.299	6.843	6.177	5.771	5.664	5.443	5.326	5.067	5.482	5.632	5.517	4.774	4.608	4.347	4.126	4.443	3.764	3.575	3.456	3.156	3.022	2.556	2.292	2.364	2.576	2.184	2.091	2.010	1.915	1.673	1.346	1.487	1.430	1.181	1.323	1.431	2.192	2.300	1.719	1.215	1.059	0.900	1.018	0.961	1.033	1.110	1.120	1.117	0.977	0.652	0.710	0.757	1.079	1.304	2.630	13.84	67.52
615.0	19.56	15.71	22.00	20.92	23.68	17.62	17.59	25.73	28.95	38.90	50.50	69.74	115.5	52.00	35.49	23.09	97.55	713.4	 1328	33.94	6.138	4.767	5.424	5.019	4.417	4.312	4.490	4.213	4.061	4.656	3.827	3.950	4.056	3.553	2.788	3.120	3.465	3.057	3.025	2.377	2.350	2.317	1.994	1.963	2.027	1.982	1.752	1.593	1.710	1.327	1.360	1.252	1.116	1.040	0.850	0.963	1.123	1.739	1.691	1.346	0.949	0.896	0.922	0.928	0.607	0.839	0.837	1.166	0.991	0.775	0.562	0.668	0.757	0.694	0.880	3.338	15.26
620.0	8.899	21.43	22.37	18.57	16.09	21.05	18.65	22.78	27.46	36.25	44.39	58.94	107.8	66.87	33.84	24.84	34.81	204.9	 1622	146.4	6.424	4.781	4.831	4.302	3.715	4.107	3.966	3.790	3.591	3.583	3.612	3.102	3.833	3.186	2.789	3.388	2.815	2.505	2.317	2.212	2.127	1.887	1.617	1.617	1.457	1.672	1.387	1.251	1.340	1.117	1.034	0.991	0.905	0.874	1.054	0.830	0.809	1.401	1.739	1.166	1.151	0.980	0.741	0.436	0.611	0.685	0.788	0.727	1.059	0.895	0.588	0.618	0.636	0.452	0.624	0.886	3.679
625.0	16.23	17.57	24.48	14.84	16.14	18.29	18.15	24.95	28.44	32.98	43.16	49.65	83.61	85.28	33.51	24.59	19.52	57.09	996.8	930.6	9.553	4.494	3.798	3.716	3.296	3.482	3.421	3.667	3.094	3.378	3.114	3.208	3.017	2.277	2.855	2.499	2.504	2.122	1.985	2.201	1.753	1.710	1.366	1.587	1.189	1.406	1.406	1.180	1.248	0.894	1.108	0.771	0.813	0.826	0.769	0.541	0.837	1.102	1.293	1.122	1.000	0.707	0.778	0.567	0.682	0.609	0.595	0.567	0.774	0.799	0.599	0.417	0.705	0.388	0.376	0.390	1.195
630.0	17.24	15.33	24.16	20.28	17.56	18.81	19.62	23.01	27.20	31.59	42.80	46.39	60.39	93.74	44.56	23.46	17.48	21.86	293.1	 1300	262.9	4.378	3.626	2.951	2.941	2.824	2.984	2.966	2.468	3.095	2.492	2.084	2.494	1.990	2.278	2.062	1.946	1.496	1.517	1.725	1.442	1.449	1.209	1.340	0.889	1.162	1.118	0.974	0.957	0.873	0.911	0.825	0.885	0.742	0.560	0.666	0.568	0.836	0.701	1.166	1.191	1.017	0.800	0.632	0.668	0.547	0.514	0.455	0.654	0.795	0.795	0.618	0.529	0.362	0.323	0.493	0.546
635.0	10.56	18.07	25.53	20.30	17.63	15.87	15.52	22.41	25.53	31.17	43.14	51.17	49.16	79.24	59.22	24.90	14.82	14.94	73.49	570.8	 1020	21.24	3.400	2.643	2.874	2.177	2.115	2.596	2.168	2.338	2.310	1.750	1.805	1.396	1.663	1.651	1.207	1.815	1.356	1.174	1.029	1.148	1.166	0.760	0.764	0.907	0.896	0.774	0.920	0.590	0.792	0.507	0.543	0.641	0.449	0.493	0.566	0.534	0.633	0.697	1.073	1.097	0.668	0.495	0.556	0.352	0.443	0.728	0.613	0.461	0.654	0.810	0.422	0.319	0.376	0.180	0.144
640.0	13.52	16.03	24.21	26.76	16.32	15.29	14.48	22.84	24.34	32.03	41.93	43.91	47.08	60.12	75.97	27.89	16.23	12.62	24.67	163.6	 1272	114.5	3.202	2.789	2.656	2.328	2.167	1.824	1.888	1.758	1.898	1.585	1.464	1.147	1.531	1.393	1.299	1.467	1.392	1.181	1.014	0.899	1.088	0.975	0.759	0.748	0.941	0.857	0.728	0.476	0.564	0.594	0.466	0.558	0.538	0.461	0.355	0.661	0.497	0.614	0.864	0.771	0.644	0.501	0.586	0.304	0.436	0.650	0.554	0.529	0.462	0.800	0.394	0.437	0.428	0.458	0.324
645.0	14.73	18.54	19.06	23.07	17.43	13.56	13.12	19.70	24.38	32.21	39.21	44.99	45.02	50.71	68.08	36.64	17.48	10.98	13.53	43.19	818.6	661.9	6.486	2.546	2.634	1.757	2.018	1.789	1.601	1.977	2.078	1.286	1.355	1.188	1.645	1.040	1.195	1.227	1.330	0.991	0.810	0.891	0.971	1.079	0.575	0.504	0.795	0.809	0.607	0.499	0.599	0.676	0.554	0.551	0.488	0.384	0.465	0.437	0.544	0.462	0.492	0.776	0.641	0.459	0.337	0.259	0.571	0.645	0.524	0.352	0.273	0.690	0.536	0.511	0.257	0.374	0.403
650.0	25.45	16.97	26.60	25.14	14.08	13.55	17.14	20.22	20.27	29.79	38.08	43.91	45.88	46.95	61.65	49.11	18.46	11.86	9.482	15.90	293.8	 1105	49.40	2.642	2.406	1.474	1.535	1.371	1.356	2.048	1.888	1.458	1.206	1.127	1.118	1.024	1.124	1.148	1.079	1.202	0.686	0.699	0.974	0.876	0.794	0.525	0.747	0.541	0.594	0.493	0.492	0.742	0.280	0.410	0.421	0.313	0.591	0.392	0.373	0.321	0.405	0.605	0.675	0.658	0.480	0.445	0.527	0.484	0.514	0.433	0.374	0.352	0.585	0.584	0.304	0.337	0.367
