Sample:	'1
File name:	W102408顶峰热电废水收集出水.FD3
Run date:	'09:21:43, 10/25/2024
Operator:	horiz
Comment:	'

Instrument
Model:	F-2700 FL Spectrophotometer
Serial number:	23B8-004
ROM Version:	4J14000 07

Instrument parameters
Measurement type:	3-D scan
Data mode:	Fluorescence
EX  Start WL:	220.0 nm
EX  End WL:	600.0 nm
EX Sampling interval:	5.0 nm
EM  Start WL:	230.0 nm
EM  End WL:	650.0 nm
EM Sampling interval:	5.0 nm
Scan speed:	12000 nm/min
EX Slit:	5.0 nm
EM Slit:	5.0 nm
PMT Voltage:	700 V
Response:	Auto 
Corrected spectra:	Off
Contour interval:	50.000

Peak integration
Integration method:	Rectangular
Sensitivity:	1
Threshold:	1.000

Peaks
No.	ApexEX/EM(nm)	Height(Data)
1	225.0/575.0	64.66
2	225.0/590.0	71.86
3	230.0/565.0	60.29
4	230.0/605.0	79.20
5	230.0/640.0	67.39
6	235.0/345.0	2331
7	235.0/510.0	266.1
8	240.0/265.0	356.1
9	240.0/525.0	251.9
10	245.0/270.0	359.5
11	245.0/535.0	215.3
12	250.0/275.0	489.4
13	250.0/545.0	172.3
14	255.0/560.0	147.6
15	260.0/575.0	145.9
16	265.0/585.0	168.4
17	270.0/385.0	1254
18	270.0/600.0	196.4
19	275.0/310.0	3443
20	275.0/615.0	218.1
21	280.0/380.0	1323
22	280.0/625.0	180.6
23	350.0/400.0	532.8
24	370.0/425.0	340.2
25	440.0/520.0	26.84
26	470.0/560.0	6.525
27	475.0/350.0	7.169
28	505.0/275.0	2.496
29	510.0/280.0	2.761
30	550.0/305.0	12.93
31	560.0/310.0	12.91

Wavelength data
No.	EX/EM(nm)	Height(Data)	

Data points
	220.0	225.0	230.0	235.0	240.0	245.0	250.0	255.0	260.0	265.0	270.0	275.0	280.0	285.0	290.0	295.0	300.0	305.0	310.0	315.0	320.0	325.0	330.0	335.0	340.0	345.0	350.0	355.0	360.0	365.0	370.0	375.0	380.0	385.0	390.0	395.0	400.0	405.0	410.0	415.0	420.0	425.0	430.0	435.0	440.0	445.0	450.0	455.0	460.0	465.0	470.0	475.0	480.0	485.0	490.0	495.0	500.0	505.0	510.0	515.0	520.0	525.0	530.0	535.0	540.0	545.0	550.0	555.0	560.0	565.0	570.0	575.0	580.0	585.0	590.0	595.0	600.0
230.0	18.56	536.2	1720	593.2	22.59	2.941	2.926	2.286	2.390	2.422	2.021	2.395	1.953	1.648	1.467	1.118	0.889	0.953	0.745	0.689	0.616	0.506	0.480	0.426	0.392	0.411	0.365	0.380	0.312	0.316	0.299	0.284	0.239	0.190	0.173	0.200	0.210	0.157	0.167	0.166	0.140	0.150	0.191	0.147	0.119	0.139	0.601	2.909	5.206	3.678	1.243	0.247	0.101	0.092	0.086	0.077	0.100	0.071	0.076	0.065	0.052	0.046	0.052	0.057	0.056	0.049	0.046	0.050	0.043	0.039	0.049	0.039	0.031	0.044	0.036	0.042	0.033
235.0	51.88	149.6	1065	2099	589.9	38.43	3.897	3.140	2.428	2.389	2.165	2.497	2.279	1.846	1.426	1.158	0.970	0.938	0.845	0.552	0.689	0.514	0.525	0.455	0.519	0.334	0.406	0.330	0.299	0.316	0.288	0.288	0.186	0.183	0.190	0.212	0.175	0.182	0.138	0.171	0.156	0.104	0.150	0.243	0.214	0.150	0.271	0.838	2.176	4.278	6.239	5.859	2.369	0.390	0.097	0.085	0.077	0.072	0.081	0.049	0.054	0.058	0.056	0.074	0.054	0.039	0.045	0.061	0.034	0.054	0.039	0.041	0.031	0.031	0.042	0.037	0.039
240.0	90.59	94.00	321.6	1818	2416	453.4	17.94	4.823	3.008	3.127	2.578	2.217	2.650	2.510	1.741	1.240	1.235	0.843	0.755	0.615	0.615	0.548	0.424	0.511	0.458	0.378	0.357	0.382	0.274	0.367	0.299	0.282	0.151	0.177	0.222	0.231	0.206	0.246	0.130	0.213	0.165	0.126	0.195	0.196	0.298	0.353	0.264	0.326	0.601	1.375	3.640	8.710	9.595	6.083	1.618	0.216	0.078	0.100	0.069	0.052	0.056	0.077	0.078	0.053	0.061	0.043	0.048	0.077	0.040	0.064	0.056	0.033	0.049	0.038	0.040	0.040	0.033
245.0	62.70	142.1	124.4	619.7	2690	2505	314.1	8.135	4.073	3.908	3.294	2.340	3.014	2.166	1.859	1.337	1.281	0.963	0.928	0.739	0.625	0.501	0.574	0.590	0.457	0.363	0.347	0.292	0.351	0.287	0.268	0.253	0.208	0.178	0.234	0.209	0.169	0.201	0.109	0.173	0.130	0.189	0.164	0.176	0.201	0.316	0.513	0.415	0.285	0.413	0.939	3.096	7.802	13.40	11.34	4.630	0.973	0.140	0.072	0.081	0.087	0.065	0.061	0.062	0.057	0.046	0.039	0.056	0.035	0.086	0.058	0.046	0.074	0.077	0.036	0.051	0.063
250.0	27.35	102.9	192.0	218.8	868.3	2599	3128	973.3	39.29	5.812	4.220	3.220	2.639	2.216	1.873	1.458	1.263	1.159	0.861	0.803	0.788	0.612	0.703	0.636	0.487	0.457	0.477	0.338	0.359	0.330	0.348	0.290	0.261	0.232	0.190	0.170	0.186	0.146	0.159	0.219	0.135	0.191	0.156	0.157	0.161	0.169	0.291	0.468	0.629	0.600	0.486	0.850	2.001	4.559	8.272	11.73	14.26	11.20	5.078	1.147	0.120	0.118	0.067	0.069	0.081	0.066	0.059	0.069	0.055	0.065	0.058	0.038	0.050	0.053	0.054	0.047	0.043
255.0	17.40	33.00	134.5	292.2	276.6	662.9	2587	4767	369.8	32.66	6.289	4.682	4.072	2.791	2.539	2.131	1.158	1.308	0.910	0.931	0.819	0.729	0.664	0.529	0.563	0.536	0.550	0.434	0.421	0.377	0.337	0.323	0.318	0.190	0.151	0.196	0.213	0.173	0.130	0.150	0.189	0.175	0.160	0.141	0.144	0.138	0.153	0.224	0.310	0.662	0.997	0.958	0.735	1.139	1.969	2.991	6.132	15.16	22.94	18.88	7.603	1.135	0.103	0.118	0.085	0.090	0.070	0.072	0.085	0.071	0.060	0.072	0.062	0.096	0.045	0.062	0.065
260.0	11.77	17.24	50.46	249.8	299.9	196.2	789.2	4139	4744	292.5	17.24	6.206	5.218	2.943	2.289	2.014	1.497	1.237	1.080	0.882	0.988	0.717	0.612	0.533	0.523	0.603	0.549	0.455	0.457	0.366	0.391	0.356	0.325	0.257	0.198	0.196	0.170	0.178	0.135	0.200	0.180	0.215	0.103	0.094	0.153	0.150	0.133	0.168	0.157	0.319	0.674	1.276	1.195	0.657	0.649	0.820	1.535	4.270	11.10	23.14	27.97	17.33	4.806	0.461	0.104	0.100	0.075	0.097	0.094	0.064	0.086	0.058	0.048	0.075	0.022	0.047	0.090
265.0	14.29	14.79	22.86	110.9	356.1	213.8	210.9	1406	5664	2548	205.2	9.834	5.906	4.348	2.914	2.263	1.902	1.456	1.334	0.962	1.013	0.821	0.576	0.449	0.629	0.620	0.435	0.504	0.452	0.386	0.449	0.330	0.299	0.263	0.166	0.249	0.217	0.199	0.160	0.167	0.215	0.205	0.158	0.146	0.163	0.143	0.138	0.119	0.153	0.167	0.288	0.644	1.374	1.550	0.963	0.459	0.495	1.169	2.767	7.338	17.56	30.48	28.46	13.72	2.377	0.149	0.061	0.071	0.113	0.087	0.104	0.068	0.051	0.052	0.035	0.053	0.064
270.0	28.89	26.79	31.11	43.93	169.6	359.5	260.1	365.2	1841	4689	4818	833.2	31.75	6.305	3.713	2.734	2.251	1.883	1.473	1.140	0.922	0.990	0.675	0.674	0.677	0.640	0.494	0.484	0.478	0.425	0.377	0.341	0.315	0.308	0.254	0.247	0.264	0.200	0.173	0.166	0.216	0.198	0.230	0.180	0.203	0.207	0.177	0.142	0.186	0.151	0.190	0.292	0.533	0.942	1.355	1.575	1.184	0.740	0.795	1.792	4.326	9.285	16.12	24.52	27.35	20.37	11.02	2.430	0.218	0.108	0.106	0.110	0.091	0.080	0.067	0.074	0.094
275.0	84.84	92.18	92.43	56.19	71.00	171.9	489.4	325.9	485.0	1249	4602	7828	1034	23.69	5.811	3.970	3.163	2.504	1.677	1.511	1.109	0.932	0.801	0.731	0.632	0.584	0.569	0.454	0.478	0.438	0.414	0.432	0.446	0.453	0.322	0.280	0.315	0.277	0.191	0.241	0.252	0.215	0.289	0.301	0.262	0.370	0.337	0.382	0.319	0.228	0.210	0.270	0.248	0.399	0.526	0.892	1.905	2.496	1.543	0.882	1.268	2.385	3.933	6.003	9.325	19.63	37.25	30.84	15.65	2.372	0.229	0.143	0.113	0.134	0.099	0.061	0.100
280.0	148.8	188.7	182.6	108.2	70.77	90.43	341.6	505.5	329.6	443.9	1499	7145	6828	168.5	12.83	5.936	3.922	2.796	1.885	1.685	1.441	1.187	1.071	0.714	0.926	0.644	0.686	0.565	0.689	0.482	0.468	0.491	0.373	0.438	0.352	0.440	0.413	0.433	0.257	0.336	0.323	0.289	0.350	0.350	0.395	0.516	0.624	0.615	0.582	0.466	0.371	0.428	0.256	0.300	0.346	0.501	0.935	1.800	2.761	2.355	1.222	1.196	1.467	1.976	2.834	5.551	14.86	29.75	42.55	27.86	10.14	1.016	0.163	0.118	0.127	0.108	0.092
285.0	253.7	329.9	307.2	182.4	106.7	97.59	193.7	590.2	652.6	391.9	694.7	2588	8468	4986	115.1	9.103	4.904	3.532	2.339	1.862	1.493	1.347	0.959	0.992	0.994	0.698	0.667	0.556	0.671	0.491	0.494	0.415	0.410	0.446	0.533	0.464	0.400	0.417	0.327	0.404	0.344	0.421	0.379	0.478	0.670	0.884	0.862	0.962	0.884	0.765	0.616	0.586	0.456	0.439	0.395	0.416	0.685	0.922	1.938	3.041	3.394	2.121	1.585	1.614	1.986	2.583	4.795	8.913	20.57	37.33	35.39	22.54	5.979	0.460	0.195	0.149	0.106
290.0	402.6	544.0	549.0	318.6	188.1	165.5	219.0	440.5	923.0	1072	974.7	1326	3088	6286	4453	477.4	22.00	5.678	3.186	2.522	2.084	1.615	1.136	1.190	0.963	0.874	0.807	0.675	0.617	0.646	0.501	0.540	0.464	0.471	0.637	0.581	0.524	0.658	0.539	0.485	0.476	0.537	0.586	0.695	0.936	1.184	1.380	1.655	1.406	1.160	0.990	0.784	0.622	0.653	0.625	0.685	0.792	0.934	1.401	2.182	3.015	4.062	4.533	4.153	3.525	3.700	3.813	4.737	7.317	11.65	17.51	26.81	29.73	29.80	15.62	5.426	0.575
295.0	536.3	786.8	786.6	485.1	281.3	254.1	329.7	504.8	873.0	1587	1820	1537	1573	1921	4647	6972	622.4	19.06	5.700	3.304	2.569	2.033	1.597	1.378	1.234	1.160	0.914	0.939	0.714	0.747	0.540	0.602	0.520	0.593	0.752	0.800	0.707	0.694	0.612	0.546	0.644	0.647	0.823	0.958	1.377	1.565	2.029	1.985	2.053	1.672	1.355	1.210	0.940	0.886	0.974	1.075	1.142	1.414	1.696	2.183	2.862	3.915	4.890	7.072	7.807	6.498	5.617	5.769	5.930	6.102	6.342	7.667	8.730	17.20	35.29	35.91	24.53
300.0	627.3	952.7	937.7	626.1	373.3	369.0	448.5	656.2	1030	1676	2520	2086	1587	1060	1583	6588	5711	99.18	12.15	4.606	3.405	2.530	1.855	1.704	1.344	1.178	1.076	0.974	0.735	0.880	0.560	0.640	0.580	0.690	0.862	0.926	0.981	0.884	0.671	0.638	0.682	0.741	0.966	1.052	1.476	1.805	2.241	2.518	2.636	2.069	1.671	1.506	1.382	1.102	1.263	1.386	1.605	1.774	2.346	2.979	3.382	4.494	5.316	7.054	8.863	10.16	9.057	7.812	6.886	6.030	5.065	4.291	3.608	5.331	11.72	25.19	45.07
305.0	698.6	1073	1145	768.3	512.4	512.4	611.3	925.2	1365	2024	2869	3162	2164	1268	946.6	2458	7652	4340	75.88	8.183	4.645	3.148	2.353	1.843	1.620	1.373	1.388	1.118	0.869	1.020	0.751	0.590	0.722	0.782	0.919	0.964	0.932	0.898	0.787	0.750	0.729	0.715	1.014	1.196	1.519	2.051	2.476	3.066	2.944	2.503	1.864	1.960	1.723	1.516	1.590	2.075	2.483	2.785	3.390	3.896	4.462	5.653	6.965	7.812	9.394	11.11	12.93	12.06	9.857	8.364	6.416	5.280	4.067	4.087	4.964	7.984	17.49
310.0	740.7	1178	1293	915.8	659.7	675.5	839.6	1152	1599	2231	2928	3443	3009	1736	1103	1146	2873	5495	4708	334.3	17.30	4.638	3.315	2.410	1.983	1.643	1.476	1.337	1.045	1.160	0.898	0.676	0.737	0.702	0.836	1.003	0.933	0.980	0.857	0.843	0.795	0.984	1.038	1.331	1.602	2.099	2.729	3.279	3.272	2.800	2.394	2.486	2.103	2.211	2.122	2.439	2.867	3.638	4.091	4.654	5.545	6.799	8.032	9.162	10.13	11.29	12.20	12.87	12.91	12.08	9.428	6.957	5.415	4.883	4.434	4.613	6.427
315.0	741.5	1260	1408	1061	800.1	788.2	972.9	1253	1630	2215	2818	3172	3055	2303	1334	975.3	1266	1639	4065	5085	475.3	13.31	4.964	3.383	2.416	1.932	1.736	1.509	1.279	1.233	0.926	0.835	0.767	0.814	0.835	0.895	0.999	0.930	0.858	0.840	0.827	1.005	1.008	1.292	1.480	2.184	2.825	3.803	3.468	3.079	2.762	2.936	2.721	2.642	2.556	3.013	3.353	4.003	4.420	4.812	5.592	6.673	7.589	8.887	9.546	10.78	11.51	11.49	11.83	12.06	11.53	9.637	7.287	6.082	5.035	4.460	4.646
320.0	771.6	1288	1514	1148	879.1	847.4	1023	1294	1623	2167	2718	3030	2860	2461	1701	1034	969.9	735.2	1239	4936	4343	71.98	8.719	4.517	3.150	2.095	1.923	1.748	1.234	1.274	0.999	0.828	0.760	0.909	0.964	1.159	0.933	0.959	0.799	0.780	0.808	0.922	1.109	1.377	1.532	2.374	2.910	3.733	4.002	3.388	3.091	3.099	2.864	2.986	2.845	3.072	3.536	4.096	4.466	4.851	5.471	6.316	7.424	8.389	9.325	10.51	11.14	11.19	11.47	10.70	10.14	9.975	9.154	7.766	5.842	5.053	4.774
325.0	811.0	1410	1651	1346	980.2	898.3	1049	1278	1544	2028	2528	2836	2672	2228	1939	1180	919.9	568.3	430.9	1627	5474	3426	58.53	6.757	3.680	2.567	1.941	1.927	1.507	1.175	1.201	0.851	0.947	0.848	0.830	0.970	1.002	0.883	0.756	0.769	0.802	0.853	1.033	1.242	1.711	2.453	3.174	4.166	4.237	3.943	3.445	3.631	3.113	2.865	3.064	3.143	3.630	4.070	4.597	5.086	5.450	5.878	7.022	8.109	8.645	9.688	10.41	10.52	10.73	10.36	9.725	8.713	8.476	8.702	7.434	5.643	4.783
330.0	832.4	1537	2001	1802	1298	1019	1049	1231	1428	1814	2258	2538	2429	2022	1730	1431	1031	572.5	315.2	497.3	1746	3970	3790	268.5	16.63	3.910	2.856	2.257	1.707	1.356	1.279	1.003	0.941	0.884	0.858	0.953	0.938	0.887	0.767	0.845	0.734	0.872	1.105	1.315	1.817	2.652	3.362	4.456	5.031	4.764	4.671	5.067	4.102	3.704	3.419	3.249	3.666	4.098	4.491	4.677	4.870	5.602	6.319	7.282	7.951	8.724	9.100	9.539	9.512	9.487	8.871	8.198	7.555	7.294	7.198	7.112	6.263
335.0	832.9	1595	2155	2184	1641	1199	1055	1184	1328	1623	2009	2251	2210	1884	1539	1321	1237	703.0	359.1	305.1	522.8	1042	3070	4030	416.8	15.77	3.926	2.669	1.878	1.656	1.589	1.091	1.058	0.878	0.910	0.895	0.957	0.842	0.733	0.810	0.782	0.841	0.986	1.194	1.723	2.647	3.442	4.838	5.452	5.565	5.360	6.239	5.219	4.532	4.019	3.675	3.724	3.896	4.223	4.530	4.677	4.968	5.908	6.482	7.161	7.871	8.126	8.590	8.298	8.698	8.339	7.693	6.705	6.936	6.456	6.188	6.180
340.0	838.9	1528	2200	2278	1744	1258	1081	1148	1257	1500	1817	2033	2005	1768	1462	1197	1172	884.5	439.1	297.8	281.1	350.7	916.5	3858	3631	331.2	8.664	3.400	2.649	1.943	1.634	1.360	1.179	1.128	0.859	0.883	0.922	0.833	0.769	0.676	0.841	0.811	0.907	1.217	1.897	2.636	3.494	4.880	5.495	5.574	5.502	6.613	5.696	4.897	4.316	3.809	3.908	3.764	4.189	3.999	4.669	4.868	5.463	5.818	6.275	6.789	7.274	7.613	7.382	7.517	7.148	7.338	6.443	6.600	6.040	5.482	5.352
345.0	750.0	1510	2225	2331	1827	1319	1090	1111	1205	1392	1638	1824	1822	1643	1376	1125	1009	942.3	595.1	339.7	261.0	223.9	305.3	1252	4370	3080	53.69	5.870	2.944	2.266	1.837	1.444	1.103	1.072	0.905	0.903	0.868	0.795	0.625	0.762	0.764	0.927	0.894	1.247	1.874	2.528	3.606	4.659	5.741	5.353	6.128	7.008	5.857	5.230	4.463	4.007	3.881	3.949	4.058	4.252	4.490	4.551	4.919	5.425	5.612	5.952	6.463	6.735	6.739	7.122	6.861	6.855	6.506	6.356	5.721	5.025	4.965
350.0	707.7	1379	2090	2296	1925	1404	1150	1128	1165	1298	1470	1620	1619	1494	1293	1087	945.3	819.4	736.5	517.8	325.3	248.4	211.3	373.6	1359	3176	3128	240.9	16.65	3.364	2.338	1.627	1.348	1.194	0.954	0.910	0.895	0.821	0.629	0.678	0.822	0.773	0.942	1.163	1.641	2.312	2.934	4.215	5.218	5.287	5.690	7.169	6.136	5.609	4.652	4.258	4.062	4.012	4.054	4.150	4.278	4.334	4.751	4.731	5.204	5.345	5.710	5.913	6.072	6.272	6.347	6.185	6.168	5.711	5.492	5.037	4.788
355.0	629.4	1269	1857	2126	1893	1486	1223	1167	1146	1237	1347	1452	1446	1367	1213	1071	929.2	777.6	682.3	688.8	482.1	312.3	240.0	215.4	391.0	803.8	2290	3521	399.5	17.90	3.612	2.320	1.749	1.377	1.059	0.846	0.884	0.706	0.621	0.634	0.767	0.820	0.783	1.115	1.548	2.171	2.697	3.747	4.807	4.931	5.371	6.488	5.982	5.924	4.784	4.169	4.194	4.323	4.175	4.155	4.339	4.421	4.374	4.653	4.826	4.920	5.222	5.245	5.283	5.684	5.645	5.613	5.578	5.098	4.883	4.795	5.074
360.0	598.4	1153	1706	2007	1822	1505	1251	1202	1185	1202	1286	1365	1346	1292	1168	1055	933.4	792.2	673.1	672.4	639.8	412.8	285.5	214.0	203.7	258.1	656.8	2941	3317	330.0	9.605	3.031	2.267	1.418	1.109	0.989	0.853	0.846	0.637	0.603	0.705	0.840	0.813	1.035	1.481	1.925	2.547	3.454	4.518	4.814	5.060	6.014	6.007	5.687	4.722	4.386	4.475	4.372	4.364	4.222	4.477	4.638	4.592	4.807	4.588	4.822	5.015	4.966	5.169	5.285	5.115	4.995	5.384	5.121	4.949	4.759	4.846
365.0	577.6	1081	1591	1897	1816	1539	1314	1241	1195	1208	1256	1300	1292	1246	1148	1046	953.2	827.7	712.4	644.6	676.5	557.5	352.0	250.2	190.6	161.0	218.3	914.6	3526	2914	51.82	6.576	3.079	1.946	1.471	1.161	1.003	0.823	0.772	0.741	0.637	0.719	0.891	0.940	1.357	1.820	2.293	3.216	4.087	4.419	4.689	5.780	5.823	5.333	4.914	4.648	4.774	4.737	4.399	4.291	4.233	4.746	4.668	4.767	4.774	4.777	4.923	4.525	5.467	5.272	4.803	5.018	4.967	5.355	5.031	4.627	4.948
370.0	532.3	982.6	1472	1786	1773	1552	1352	1259	1216	1208	1233	1271	1263	1212	1124	1038	974.4	869.5	767.0	688.6	642.5	636.8	516.4	337.4	243.2	188.1	168.3	294.3	1072	2696	2858	799.0	20.11	4.449	2.247	1.345	1.072	0.906	0.825	0.790	0.793	0.768	0.791	0.958	1.235	1.727	2.255	3.033	3.729	3.981	4.487	5.504	5.533	5.469	5.067	4.837	4.846	4.848	4.556	4.422	4.497	4.677	4.460	4.623	4.658	4.598	4.680	4.406	4.778	4.719	4.786	4.755	5.011	5.031	4.988	4.732	4.929
375.0	483.8	902.4	1360	1656	1746	1593	1391	1277	1217	1227	1244	1240	1287	1216	1109	1038	981.5	900.6	815.6	738.5	665.7	615.4	627.2	510.0	335.1	262.3	243.5	240.8	357.7	725.6	1973	3547	357.4	24.28	4.032	1.941	1.413	0.973	1.004	0.851	0.752	0.789	0.811	0.884	1.197	1.538	1.952	2.821	3.323	3.620	4.243	5.177	5.292	5.518	5.223	4.992	4.904	5.054	4.540	4.638	4.727	4.691	4.426	4.543	4.658	4.648	4.479	4.475	4.785	4.763	5.085	4.809	4.855	4.803	4.672	4.685	4.793
380.0	513.6	841.2	1289	1592	1672	1600	1393	1278	1242	1235	1250	1246	1323	1218	1081	1022	979.8	916.4	837.5	767.9	696.6	628.7	614.7	619.0	440.0	324.3	311.4	282.6	242.1	298.8	677.4	2602	2844	292.2	10.49	2.821	1.805	1.400	1.087	0.943	0.795	0.838	0.861	1.038	1.185	1.556	2.040	2.587	3.378	3.549	3.806	5.043	5.370	5.388	5.252	5.035	5.153	4.634	4.665	4.489	4.539	4.426	4.691	4.533	4.641	4.579	4.427	4.398	4.814	5.041	4.979	4.811	4.860	4.444	4.651	4.809	4.757
385.0	468.6	794.0	1202	1541	1622	1582	1390	1283	1236	1222	1254	1228	1306	1198	1063	998.0	964.0	917.9	852.7	788.0	718.4	649.0	602.4	622.2	547.6	382.9	360.1	327.6	245.5	227.7	343.5	913.0	2729	2376	43.22	5.196	2.182	1.794	1.158	0.996	0.857	0.916	0.952	0.932	1.147	1.672	2.002	2.370	3.213	3.400	3.748	4.803	5.315	5.552	5.066	4.784	5.111	4.975	4.682	4.739	4.408	4.522	4.499	4.619	4.706	4.640	4.652	4.624	4.792	5.167	5.519	4.763	4.802	4.766	4.520	4.687	5.107
390.0	422.4	740.6	1083	1399	1520	1489	1356	1248	1179	1166	1178	1162	1205	1129	1015	966.5	933.6	895.8	842.6	787.2	722.0	657.5	602.0	566.3	548.0	480.2	388.1	328.4	245.7	211.0	246.5	355.9	824.1	1975	2117	600.8	13.74	2.404	1.595	1.259	1.006	0.928	0.949	0.911	1.170	1.421	1.774	2.281	2.834	3.154	3.439	4.768	4.816	4.894	5.017	4.646	4.823	4.758	4.533	4.397	4.503	4.405	4.340	4.237	4.370	4.480	4.451	4.311	4.491	4.622	4.895	4.533	4.451	4.217	4.228	4.351	4.506
395.0	405.1	697.0	1014	1280	1429	1401	1297	1218	1135	1123	1118	1102	1147	1075	962.4	920.2	899.7	866.6	833.3	778.7	716.7	663.8	603.8	551.0	502.0	507.7	475.7	365.2	270.6	230.2	242.1	243.5	262.6	495.1	1335	2467	290.8	15.17	2.137	1.535	1.198	1.078	1.006	0.905	1.105	1.450	1.680	2.250	2.530	2.791	3.179	4.129	4.298	4.735	4.684	4.451	4.932	4.588	4.438	4.247	4.662	4.150	4.015	4.251	4.146	4.108	3.869	4.018	4.274	4.619	4.598	4.323	4.231	4.136	4.331	4.693	4.439
400.0	367.7	658.8	960.3	1200	1344	1331	1258	1200	1128	1092	1104	1079	1126	1038	923.4	882.9	866.4	841.3	802.5	758.5	709.2	660.0	612.9	563.9	501.7	482.9	532.8	438.9	306.9	256.0	271.2	243.8	155.2	158.6	364.7	1663	2177	245.1	7.485	2.011	1.319	1.091	1.147	1.017	1.088	1.519	1.598	2.222	2.423	2.581	2.956	3.895	4.458	4.691	4.717	4.451	4.608	4.418	4.299	4.146	3.987	3.879	4.330	4.283	3.966	3.879	3.885	3.908	4.161	4.345	4.466	4.156	4.019	3.997	4.156	4.288	4.311
405.0	368.7	628.1	906.4	1166	1289	1301	1224	1168	1094	1055	1068	1044	1090	1004	879.7	851.2	824.8	801.9	775.6	738.4	695.9	651.5	605.3	563.2	502.0	466.2	508.8	501.6	349.0	282.5	292.1	254.7	140.3	90.42	113.3	477.1	1848	1816	38.11	3.833	1.801	1.247	1.216	1.063	1.039	1.525	1.526	2.042	2.489	2.695	2.798	3.881	4.069	4.326	4.373	4.305	4.472	4.388	4.431	4.290	3.983	3.706	4.338	4.047	3.677	4.040	3.815	3.928	3.903	4.232	4.430	4.133	3.919	3.789	3.870	4.142	4.120
410.0	335.8	584.0	847.8	1074	1215	1212	1174	1117	1051	1012	1010	985.8	1005	926.1	832.1	798.3	778.6	762.5	731.0	698.2	663.7	624.7	583.0	543.4	491.7	447.6	449.9	460.6	398.5	304.8	275.9	235.2	138.3	84.32	65.89	133.2	514.1	1373	1556	490.3	12.75	1.786	1.397	1.201	1.163	1.480	1.451	1.994	2.385	2.495	2.698	3.618	3.685	3.939	4.004	4.041	4.156	4.241	4.075	3.853	3.770	4.058	4.082	3.792	3.586	3.788	3.520	3.503	3.726	3.789	3.983	3.870	3.499	3.354	3.600	3.829	3.713
415.0	308.6	539.8	762.9	977.5	1086	1143	1094	1056	1010	961.8	949.9	911.6	907.2	850.4	774.7	735.4	720.3	701.4	682.6	648.2	623.6	589.8	555.5	519.0	473.2	431.0	417.0	399.4	386.8	350.7	278.8	221.3	138.3	91.30	64.49	62.68	137.2	330.0	877.3	1805	264.0	13.39	1.875	1.473	1.307	1.338	1.481	1.935	2.097	2.214	2.390	3.419	3.409	3.526	3.670	3.654	3.800	3.871	3.774	3.582	3.790	3.715	3.646	3.709	3.520	3.267	3.524	3.382	3.253	3.539	3.760	3.270	3.258	3.476	3.409	3.361	3.477
420.0	288.3	506.3	735.8	922.6	1025	1091	1054	1020	982.8	933.6	906.5	871.5	855.8	807.7	731.1	692.5	677.6	659.6	645.4	617.7	589.9	561.8	529.4	499.8	463.7	425.4	408.8	377.4	352.2	361.5	310.3	225.4	144.5	98.72	68.94	52.93	55.99	91.81	232.4	1154	1608	218.0	6.304	1.725	1.600	1.390	1.400	1.905	2.024	2.126	2.479	3.206	3.181	3.536	3.687	3.598	3.752	3.806	3.530	3.567	3.854	3.483	3.357	3.393	3.357	3.163	3.394	3.171	3.307	3.500	3.096	3.150	2.950	3.118	3.183	3.194	3.223
425.0	264.5	477.7	694.5	899.0	992.6	1016	1011	981.2	945.1	906.7	879.3	853.4	817.0	761.2	692.1	653.8	644.3	626.3	609.5	585.5	560.8	535.2	513.4	484.9	450.8	422.4	400.3	375.0	334.2	336.4	340.2	249.1	154.1	107.5	76.66	54.88	44.07	42.21	67.22	324.0	1308	1365	35.09	3.107	1.701	1.516	1.451	1.741	2.024	2.087	2.246	2.929	3.081	3.464	3.600	3.406	3.544	3.712	3.402	3.445	3.498	3.419	3.557	3.226	3.183	3.118	2.955	2.879	3.017	3.586	3.177	3.104	2.820	2.805	3.170	2.910	3.382
430.0	303.5	431.0	661.4	814.2	909.3	949.8	967.8	959.0	912.0	871.8	838.9	796.4	767.5	715.3	643.2	616.3	597.6	584.1	566.7	544.5	528.3	505.0	485.8	461.1	434.4	405.8	387.9	366.9	327.9	308.0	314.9	280.3	179.1	119.9	86.60	63.05	47.61	36.67	33.85	86.88	361.3	1017	1195	382.1	10.94	1.981	1.556	1.849	1.908	1.976	2.167	2.711	2.883	3.260	3.157	3.232	3.385	3.525	3.535	3.491	3.365	3.412	3.278	3.363	3.087	3.030	2.963	2.851	2.865	2.920	3.085	3.004	2.868	2.668	2.905	2.755	3.172
435.0	460.5	416.4	616.4	752.2	867.6	901.1	913.1	908.1	878.6	847.0	812.2	755.7	718.0	667.0	605.6	571.4	557.2	542.1	520.7	506.6	490.0	475.7	460.4	439.1	414.9	388.7	371.8	349.5	323.5	293.8	276.9	267.5	216.8	139.4	96.26	73.88	54.58	41.01	32.19	37.69	93.53	242.7	690.0	1490	241.3	11.89	1.948	1.891	1.889	1.916	1.992	2.485	2.716	3.007	3.022	3.078	3.263	3.547	3.459	3.477	3.187	3.472	3.438	3.260	3.142	3.045	2.722	2.771	2.681	2.691	2.837	2.584	2.573	2.453	2.757	2.671	2.585
440.0	625.6	448.9	570.8	721.7	815.5	867.0	875.3	876.1	851.0	821.4	793.6	725.6	686.6	626.5	572.7	545.1	521.5	512.1	493.4	480.4	467.7	452.2	440.3	421.2	397.5	378.0	361.4	343.1	316.0	289.2	264.7	241.3	222.6	168.8	106.6	80.76	61.16	45.66	35.27	29.05	35.72	65.66	184.3	992.5	1389	194.3	5.302	2.175	1.782	2.200	2.116	2.492	2.615	2.832	2.673	3.021	3.222	3.289	3.284	3.242	3.146	3.272	3.127	3.024	2.890	3.194	2.982	2.796	2.648	2.556	2.627	2.739	2.481	2.697	2.530	2.335	2.313
445.0	646.8	617.9	582.5	687.5	766.7	825.4	832.7	842.9	817.4	794.8	751.3	704.0	653.5	597.1	546.6	512.1	495.7	488.4	466.7	450.7	444.8	424.7	417.7	402.1	384.2	366.0	350.6	332.5	307.8	285.4	258.4	224.0	205.5	186.9	123.6	85.77	66.80	50.77	39.55	30.07	25.03	27.38	50.87	282.6	1189	1200	29.22	3.545	2.150	1.998	2.131	2.467	2.432	2.791	2.689	2.852	2.944	3.144	2.965	3.104	3.109	3.117	2.987	3.036	2.795	2.992	2.712	2.364	2.524	2.617	2.566	2.379	2.473	2.504	2.424	2.380	2.308
450.0	427.4	938.4	632.2	634.4	709.3	757.9	790.9	800.0	772.2	747.9	709.0	661.5	604.1	550.8	505.2	476.7	452.6	443.8	429.1	416.1	406.2	396.0	386.8	374.2	361.2	344.1	332.0	313.9	294.2	274.4	250.4	215.5	183.1	172.2	149.1	104.4	72.76	56.42	44.61	33.76	25.94	21.61	23.27	72.09	330.2	918.4	1067	324.4	9.437	2.302	2.018	2.341	2.597	2.560	2.599	2.661	2.855	2.895	2.986	3.088	2.881	2.958	2.846	2.725	2.599	2.629	2.383	2.378	2.292	2.400	2.408	2.280	2.193	2.219	2.284	2.191	2.313
455.0	252.4	919.2	1035	593.8	655.2	691.6	728.2	751.4	730.5	688.0	659.5	617.2	565.2	502.8	462.2	429.6	413.6	401.2	389.3	380.2	363.1	359.9	352.8	341.8	332.5	318.8	305.6	293.1	277.3	257.5	236.7	206.4	172.2	148.7	142.4	124.7	84.49	61.64	47.52	37.76	29.35	23.29	19.34	26.99	81.73	218.2	588.1	1223	196.4	9.589	2.498	2.365	2.372	2.313	2.408	2.382	2.687	2.587	2.837	2.824	2.798	2.787	2.725	2.703	2.510	2.468	2.049	2.318	2.277	2.018	2.240	2.100	1.941	1.961	1.958	1.902	2.129
460.0	196.0	648.9	1484	689.4	606.1	641.1	660.4	716.1	684.7	645.5	610.2	569.6	519.4	467.8	428.7	392.5	384.7	368.4	355.5	346.6	337.9	331.3	328.9	323.3	311.7	298.0	287.3	276.2	260.6	244.3	223.0	197.1	164.3	141.0	125.8	126.3	98.90	66.31	49.26	40.34	32.17	25.23	19.88	18.22	27.65	56.40	153.2	785.1	1077	148.5	5.417	2.574	2.214	2.230	2.347	2.413	2.517	2.406	2.711	2.608	2.504	2.592	2.536	2.477	2.472	2.248	2.139	2.126	2.259	2.034	1.938	1.847	1.897	1.758	1.852	1.740	1.929
465.0	177.0	401.9	1572	1021	557.2	602.0	618.0	653.5	645.7	600.9	581.6	537.7	487.3	433.2	401.2	368.9	352.5	340.6	328.2	320.9	309.8	308.2	303.3	295.1	290.8	277.8	267.4	258.6	246.0	230.1	213.1	185.0	160.0	134.7	116.5	112.6	107.6	75.67	52.80	42.53	33.48	26.87	21.51	16.73	16.72	20.91	41.48	220.5	924.0	883.3	23.87	3.761	2.377	2.303	2.210	2.398	2.593	2.390	2.549	2.389	2.459	2.386	2.448	2.335	2.009	2.073	2.164	1.979	2.122	1.953	1.733	1.862	1.720	1.822	1.726	1.702	1.757
470.0	173.0	270.4	970.3	1714	673.2	540.4	568.4	589.3	585.4	553.0	535.0	480.6	436.9	394.7	361.5	332.6	313.2	302.3	293.9	286.2	281.3	275.0	269.3	265.0	259.4	250.6	241.1	232.3	223.7	213.3	195.9	171.9	149.1	127.7	108.8	96.90	95.27	85.93	60.56	44.03	35.84	27.90	23.18	18.69	15.77	14.29	16.92	55.66	255.2	663.1	737.4	255.4	9.285	2.432	2.185	2.065	2.189	2.190	2.263	2.296	2.320	2.193	2.153	2.103	2.105	1.961	2.054	1.866	1.835	1.686	1.603	1.727	1.545	1.734	1.589	1.488	1.700
475.0	164.2	238.8	475.1	1614	1341	490.9	510.6	533.1	517.1	498.0	478.6	432.1	381.8	349.9	315.3	296.6	280.7	264.2	260.7	251.0	245.2	241.6	237.3	234.9	228.6	222.3	215.0	207.5	201.7	191.1	178.6	156.6	136.0	118.8	102.2	88.08	79.68	79.99	71.93	49.94	36.49	29.41	24.72	20.12	16.84	13.99	12.44	19.64	62.82	155.7	376.9	828.4	185.9	10.15	2.162	2.004	2.135	2.051	2.031	2.062	2.124	1.894	1.964	1.997	1.906	1.799	1.684	1.798	1.417	1.558	1.553	1.517	1.569	1.589	1.384	1.405	1.561
480.0	148.4	228.6	328.7	1059	1958	608.0	468.6	489.8	476.1	466.5	435.1	407.5	359.5	320.8	286.1	269.3	253.9	241.4	237.5	229.8	224.6	219.6	218.2	215.7	209.4	202.5	198.1	191.4	187.1	178.3	166.8	149.4	129.2	113.1	97.42	85.02	74.23	69.58	72.34	57.43	39.05	30.24	25.61	20.62	17.92	14.35	11.78	11.76	20.10	39.37	96.65	483.4	778.6	158.2	4.943	2.217	2.205	1.795	2.008	1.944	1.999	1.734	1.820	1.933	1.798	1.750	1.428	1.554	1.449	1.366	1.416	1.375	1.389	1.430	1.289	1.306	1.281
485.0	144.6	229.5	289.3	581.5	2013	1019	432.5	454.0	435.5	427.9	409.8	376.2	336.3	306.2	269.7	252.3	235.5	221.3	215.2	212.7	205.2	203.6	201.6	200.5	192.2	187.9	185.0	178.8	174.6	168.2	155.7	139.8	124.1	106.0	94.18	80.90	70.85	63.05	64.17	62.75	44.87	31.71	26.40	21.80	18.33	15.05	12.49	10.69	10.61	13.62	25.59	133.4	630.3	713.8	27.76	3.124	1.939	1.803	1.873	1.890	1.932	1.741	1.652	1.912	1.677	1.651	1.494	1.431	1.422	1.357	1.374	1.213	1.285	1.169	1.354	1.222	1.146
490.0	116.5	232.8	265.8	360.1	1188	1846	525.9	418.0	403.1	395.0	372.9	346.5	310.0	278.6	247.3	226.3	213.7	204.7	196.5	190.8	185.7	184.3	181.7	180.3	175.5	171.1	164.9	161.5	159.5	152.4	142.7	128.7	115.2	100.7	88.73	76.30	67.50	59.72	54.67	56.77	52.14	37.30	27.35	22.84	19.16	15.90	13.29	11.05	9.042	8.614	10.25	33.67	170.5	485.2	631.1	123.7	10.05	1.986	1.939	1.782	1.713	1.754	1.679	1.726	1.518	1.579	1.431	1.343	1.217	1.255	1.242	1.119	1.136	1.087	1.154	1.107	1.028
495.0	94.78	206.0	289.0	275.2	535.8	1792	1208	375.1	362.7	362.5	344.8	311.9	281.0	247.2	225.1	205.6	191.6	181.5	174.9	171.5	163.0	161.1	163.5	160.1	156.7	153.6	147.0	144.8	143.3	135.9	129.3	118.5	105.6	92.02	82.30	70.69	63.39	55.63	49.74	46.06	48.56	44.78	30.00	23.14	19.66	16.34	13.64	11.76	9.295	7.699	6.843	11.16	41.24	113.2	334.6	756.5	211.7	11.60	1.883	1.659	1.564	1.666	1.530	1.449	1.612	1.567	1.290	1.202	1.144	1.044	1.155	1.046	1.077	1.025	1.027	1.035	0.924
500.0	77.36	160.0	293.2	263.2	337.9	1116	1882	445.1	334.6	330.5	313.4	288.8	260.8	226.8	204.9	186.4	174.4	165.6	159.5	154.2	150.8	147.4	147.8	145.8	141.7	140.1	134.0	130.6	129.2	124.1	117.7	108.3	96.77	87.66	75.20	66.87	60.10	52.27	45.48	41.63	40.80	44.01	35.64	24.26	20.14	16.46	13.88	11.75	9.880	7.742	6.263	6.460	12.65	27.94	84.68	435.0	761.5	174.3	5.704	1.793	1.633	1.536	1.307	1.447	1.407	1.116	1.191	0.996	1.149	1.061	1.004	0.948	1.049	0.911	0.894	1.070	1.046
505.0	69.17	139.9	276.5	260.1	273.7	564.9	2060	797.0	308.9	301.8	284.9	267.3	234.8	205.0	186.2	170.0	156.4	149.9	144.5	138.5	136.2	133.3	132.3	131.0	128.9	126.8	120.8	119.2	118.3	113.3	106.8	99.20	88.98	80.51	70.45	62.32	55.63	49.12	43.44	38.95	35.41	38.80	38.44	27.05	19.54	16.74	13.74	11.64	9.938	8.075	6.330	5.277	6.338	9.230	21.77	116.5	545.2	674.0	31.16	2.904	1.706	1.328	1.239	1.412	1.095	1.130	1.112	1.003	0.929	1.101	0.912	0.992	0.912	0.807	0.889	0.915	0.902
510.0	68.70	110.0	208.1	266.1	230.6	311.6	1223	1661	357.0	268.9	251.4	235.5	207.6	181.0	162.8	148.4	137.4	130.0	126.8	119.7	118.7	117.5	115.3	114.6	113.9	109.6	106.7	103.5	103.7	101.7	95.05	87.59	78.48	70.47	63.49	56.33	50.92	45.25	39.73	35.79	31.88	30.82	33.91	31.83	22.32	16.50	13.88	11.30	9.497	8.099	6.857	5.390	4.797	5.244	7.488	28.37	143.0	410.0	521.2	131.8	10.24	1.462	1.226	1.211	1.119	1.039	0.983	0.924	0.832	0.868	0.730	0.818	0.851	0.725	0.718	0.765	0.779
515.0	60.65	97.76	148.5	251.7	233.8	228.9	474.3	1774	953.5	234.1	219.0	205.4	179.2	159.6	142.0	128.4	119.7	112.6	106.7	106.0	101.7	101.3	98.51	98.72	97.05	93.97	90.32	90.62	89.84	87.50	82.35	76.80	68.31	62.95	56.88	48.88	44.51	41.19	36.01	31.80	28.03	25.88	25.97	28.44	26.24	17.89	13.60	10.90	8.875	7.671	6.705	5.908	4.711	4.009	4.117	8.570	34.08	94.45	232.5	563.8	211.1	12.03	1.430	1.179	1.093	0.922	0.848	0.838	0.742	0.851	0.621	0.727	0.622	0.617	0.569	0.731	0.716
520.0	49.29	83.21	123.5	211.4	242.5	193.4	258.8	1117	1688	288.5	198.5	184.7	166.5	140.9	125.4	116.1	106.5	100.5	96.45	93.97	91.98	90.25	88.79	87.21	86.30	82.91	81.61	81.18	80.17	78.97	74.56	68.12	61.67	57.49	50.23	45.12	41.27	37.43	33.28	29.21	26.53	23.87	22.36	24.00	26.84	20.21	14.12	10.71	8.968	7.742	6.453	5.766	5.134	3.831	3.596	4.328	9.767	22.94	57.07	290.9	562.1	169.3	6.131	1.117	1.033	0.943	0.806	0.800	0.767	0.840	0.699	0.683	0.549	0.680	0.645	0.658	0.580
525.0	39.00	76.87	111.5	169.3	251.9	188.5	191.0	508.1	2014	597.7	182.8	158.3	144.0	129.1	112.9	104.5	97.35	91.02	87.37	84.51	83.34	80.76	80.95	77.12	76.47	74.31	74.04	72.80	70.11	72.14	68.40	61.77	56.32	51.53	46.61	41.19	38.02	34.71	30.76	28.17	24.80	22.05	20.41	19.93	23.16	22.14	15.71	10.78	8.815	7.278	6.442	5.208	5.133	4.188	3.497	3.218	4.372	7.097	14.57	74.48	347.9	502.1	32.29	2.734	1.040	0.986	0.738	0.726	0.680	0.681	0.649	0.639	0.577	0.695	0.521	0.526	0.549
530.0	36.98	64.99	95.94	128.5	208.8	195.4	158.3	242.1	1207	1499	233.8	143.4	127.0	113.1	100.0	89.71	83.45	78.94	75.75	73.32	69.47	69.83	69.95	66.33	66.30	64.07	63.29	62.08	61.02	61.13	58.10	53.33	49.21	44.45	40.85	36.24	32.73	30.85	27.67	24.88	21.75	20.23	18.09	17.21	17.38	19.50	17.78	12.25	8.330	6.742	5.940	5.065	4.777	4.233	3.642	3.036	2.968	3.495	4.859	18.19	88.04	268.0	368.3	132.4	10.78	0.995	0.770	0.630	0.614	0.650	0.542	0.543	0.530	0.578	0.473	0.527	0.542
535.0	36.01	54.76	84.55	108.6	140.8	215.3	150.9	155.8	418.0	1720	746.0	126.8	111.1	98.12	86.26	75.65	72.79	68.02	64.66	61.06	58.68	58.30	56.92	58.02	56.11	54.04	53.45	51.41	53.21	51.22	48.37	45.26	41.40	38.35	34.83	32.12	28.32	25.99	24.22	21.62	19.60	18.02	16.05	15.03	13.36	13.85	16.21	14.58	8.910	6.514	5.611	4.632	4.309	3.917	3.513	3.192	2.607	2.488	2.650	5.513	20.98	61.29	139.7	381.0	202.1	12.71	0.891	0.760	0.565	0.518	0.455	0.526	0.424	0.403	0.465	0.448	0.432
540.0	33.73	47.42	64.75	91.97	105.8	194.0	156.5	126.9	188.3	1047	1487	156.0	96.45	84.05	75.74	67.25	63.59	58.22	56.51	52.15	51.58	52.20	51.52	49.58	48.12	46.34	46.14	45.41	45.40	45.54	42.04	40.30	35.96	34.15	30.20	27.07	25.50	23.19	20.96	19.04	17.65	15.81	14.64	13.35	11.90	11.24	12.62	14.41	10.39	6.717	5.108	4.293	3.934	3.577	3.242	3.229	2.757	2.190	2.114	2.679	6.016	14.79	33.63	172.8	393.0	158.2	6.302	0.700	0.518	0.491	0.419	0.372	0.388	0.407	0.401	0.428	0.367
545.0	41.66	46.81	63.54	69.27	85.88	156.2	172.3	114.2	125.2	424.5	1848	270.0	82.33	73.79	66.15	60.50	53.25	50.00	49.42	46.16	45.32	44.60	44.66	43.70	42.87	40.92	40.36	40.37	39.46	38.63	37.17	35.11	32.15	29.25	26.88	24.61	22.76	20.53	18.57	17.50	15.94	14.55	12.88	11.92	10.48	9.779	10.02	12.17	11.36	7.054	5.178	4.070	3.573	3.047	3.030	3.106	2.836	2.002	2.045	1.834	2.526	4.506	8.593	42.44	210.1	361.1	33.27	2.718	0.630	0.444	0.428	0.405	0.404	0.388	0.289	0.407	0.383
550.0	37.30	43.47	63.61	66.22	76.04	101.9	167.5	111.7	101.7	172.7	1058	1144	116.3	63.52	54.96	49.03	44.64	42.51	41.13	38.52	37.22	36.74	36.18	36.81	35.38	34.21	32.69	32.60	32.29	32.44	30.53	29.45	26.48	24.00	22.43	19.98	19.00	17.05	16.04	14.61	13.80	12.29	11.24	10.28	9.006	8.126	7.737	8.449	9.704	8.129	5.546	4.008	3.189	2.786	2.728	2.709	2.579	2.136	1.911	1.681	1.525	2.074	2.750	10.34	51.13	165.3	224.6	124.2	11.00	0.598	0.413	0.349	0.352	0.323	0.309	0.357	0.327
555.0	39.02	47.87	61.57	52.14	61.38	69.58	131.9	133.4	85.55	104.0	334.2	1462	453.5	52.98	45.63	40.29	37.63	34.39	31.43	30.74	31.29	30.41	28.71	28.52	28.03	27.57	26.54	25.33	26.49	25.38	24.23	22.87	21.31	19.59	18.37	16.41	15.57	14.20	12.82	11.66	11.02	10.00	9.258	8.364	7.590	6.733	5.968	5.942	6.646	7.602	6.290	3.889	2.953	2.453	2.306	2.127	2.025	2.103	2.068	1.563	1.175	1.293	1.453	3.065	12.06	37.59	76.23	230.0	166.2	13.57	0.630	0.313	0.272	0.230	0.262	0.342	0.292
560.0	35.24	49.02	59.25	56.14	55.47	56.71	86.89	147.6	83.72	83.82	139.9	912.0	1038	67.97	38.91	34.76	31.30	29.00	28.17	26.72	25.93	24.58	24.43	24.71	23.63	23.08	22.52	21.48	21.82	21.28	20.34	19.46	17.73	16.45	15.31	13.82	12.74	11.69	11.19	9.857	9.221	8.361	7.789	7.392	6.628	6.095	5.371	4.707	4.770	6.178	6.525	4.584	2.821	2.171	1.897	1.768	1.751	1.764	1.900	1.706	1.101	1.077	0.981	1.375	3.379	9.022	17.92	90.85	240.0	120.5	6.485	0.362	0.289	0.320	0.306	0.245	0.274
565.0	32.78	54.72	60.29	54.15	52.02	52.56	62.28	140.6	101.8	78.69	95.67	365.5	1403	163.1	34.42	29.59	27.93	24.63	24.49	22.16	21.99	20.52	20.82	20.17	19.19	19.20	18.46	18.42	18.06	18.62	16.89	16.81	14.64	13.37	13.06	11.60	10.75	9.820	9.508	8.761	8.097	7.350	6.575	6.180	5.634	5.233	4.852	4.002	4.037	4.242	5.260	5.091	2.823	1.877	1.649	1.664	1.424	1.450	1.578	1.793	1.171	0.955	0.861	0.932	1.355	2.609	4.626	21.66	109.8	221.3	33.88	2.378	0.305	0.265	0.238	0.251	0.203
570.0	39.06	57.28	59.18	51.95	45.75	43.73	52.29	102.1	129.2	83.51	91.43	148.8	873.5	783.5	52.97	24.97	22.10	20.51	19.41	18.10	17.25	16.49	16.42	16.00	15.82	15.55	15.67	15.20	14.33	14.66	13.66	13.06	11.98	11.25	10.29	9.576	8.659	8.279	7.683	6.887	6.558	5.927	5.383	5.023	4.604	4.156	4.069	3.641	3.382	3.134	3.589	4.110	3.437	2.117	1.540	1.375	1.256	1.241	1.179	1.312	1.344	1.041	0.909	0.750	0.926	1.127	1.554	5.234	26.13	89.22	140.4	84.73	10.53	0.437	0.235	0.197	0.206
575.0	46.98	64.66	59.63	50.61	38.35	41.40	48.62	71.67	145.9	110.1	101.7	110.9	283.8	1079	155.9	21.75	17.80	16.76	15.04	14.01	12.92	13.39	12.40	12.87	12.45	12.11	12.21	11.62	11.74	11.61	11.05	10.27	9.341	8.732	8.066	7.605	6.960	6.420	6.264	5.691	5.348	4.710	4.438	4.006	3.491	3.502	3.288	2.914	2.775	2.262	2.296	2.737	3.323	2.608	1.652	1.222	1.041	1.115	0.943	1.101	1.045	1.134	1.030	0.708	0.678	0.750	0.794	1.656	6.197	20.31	42.45	126.8	109.3	11.65	0.338	0.195	0.182
580.0	46.51	64.16	64.16	50.57	36.83	36.25	44.13	59.78	128.2	137.6	111.3	109.0	125.7	720.0	649.4	27.71	15.09	13.17	12.87	12.01	11.08	11.38	10.73	10.87	10.39	9.641	9.914	9.972	9.738	10.17	9.379	8.565	8.096	7.339	6.996	6.271	5.817	5.455	5.316	4.932	4.268	3.846	3.747	3.438	3.060	3.191	2.802	2.483	2.288	1.856	1.803	1.906	2.658	2.867	1.830	1.180	1.038	1.051	0.902	0.842	0.838	1.125	1.114	0.759	0.692	0.653	0.694	0.931	1.806	4.979	10.04	46.12	139.3	78.18	5.037	0.276	0.184
585.0	45.94	62.30	64.54	53.51	36.97	38.73	39.26	59.49	101.9	168.4	125.0	121.3	95.15	293.7	972.2	88.33	12.74	11.66	10.16	9.971	9.904	10.16	9.379	8.665	8.620	8.621	8.556	8.322	8.724	8.487	8.005	7.283	6.809	6.472	5.588	5.380	5.052	4.575	4.292	3.984	3.813	3.327	3.434	2.726	2.724	2.648	2.546	2.114	2.029	1.538	1.550	1.514	2.097	2.587	2.179	1.298	0.819	0.868	0.762	0.745	0.769	0.963	1.268	0.978	0.741	0.761	0.705	0.722	0.818	1.431	2.616	11.07	58.57	128.2	32.91	1.925	0.171
590.0	40.86	71.86	68.68	53.58	37.89	35.86	39.68	56.96	84.63	167.8	155.6	126.6	96.94	108.2	637.5	464.8	22.01	9.675	9.107	8.410	7.806	8.053	7.475	7.016	7.052	6.892	6.624	6.725	7.047	6.572	6.232	5.944	5.349	5.230	5.016	4.263	3.988	3.782	3.455	3.255	2.987	2.745	2.777	2.444	2.334	2.099	2.047	1.868	1.750	1.437	1.371	1.180	1.299	1.773	2.018	1.638	0.988	0.732	0.724	0.663	0.657	0.735	0.874	1.063	1.015	0.794	0.742	0.674	0.627	0.782	0.935	2.739	13.77	49.12	85.28	56.01	8.326
595.0	51.91	68.01	72.10	50.82	33.61	33.29	40.96	54.52	79.31	139.0	187.1	140.8	102.2	65.61	192.1	722.6	99.26	8.916	7.667	7.111	5.979	6.263	6.107	5.353	5.222	5.650	5.155	5.302	5.123	4.946	4.844	4.809	4.419	3.944	3.933	3.511	3.080	2.899	2.831	2.534	2.592	2.201	2.243	2.091	1.889	1.744	1.725	1.517	1.388	1.252	1.067	1.007	0.994	1.076	1.600	1.940	1.301	0.621	0.702	0.637	0.615	0.731	0.660	0.811	1.076	0.900	0.834	0.721	0.593	0.616	0.606	0.838	3.272	11.22	23.94	72.36	67.89
600.0	48.71	75.31	76.49	50.50	34.97	32.39	39.63	55.18	81.79	118.8	196.4	149.5	105.0	59.14	65.01	516.2	379.0	12.76	6.840	6.023	4.969	5.509	4.989	4.751	4.528	4.422	4.430	4.627	4.231	4.479	4.023	3.800	3.586	3.230	3.170	2.718	2.623	2.603	2.191	2.263	2.009	1.859	1.867	1.570	1.589	1.436	1.433	1.221	1.242	1.101	0.930	0.775	0.823	0.740	1.099	1.500	1.449	0.734	0.584	0.542	0.555	0.608	0.685	0.642	0.816	1.019	0.872	0.612	0.634	0.523	0.478	0.467	0.965	2.774	5.671	24.58	79.21
605.0	39.80	77.18	79.20	43.85	34.50	37.41	45.28	55.34	82.97	120.9	185.7	176.2	114.6	64.05	41.04	216.2	613.1	49.32	6.013	4.980	4.504	4.409	4.442	4.087	4.139	3.672	3.800	3.807	3.626	3.834	3.235	3.529	2.901	2.846	2.448	2.357	2.049	2.262	1.884	1.840	1.827	1.542	1.522	1.413	1.361	1.313	1.248	0.994	1.012	0.895	0.773	0.731	0.769	0.573	0.740	1.127	1.358	0.989	0.739	0.454	0.515	0.605	0.699	0.666	0.732	0.889	1.048	0.738	0.681	0.559	0.467	0.400	0.477	0.876	1.473	5.803	30.96
610.0	46.81	67.25	78.43	50.10	39.40	37.16	48.65	64.28	95.84	132.2	184.4	217.3	143.4	81.96	51.47	79.96	462.7	301.9	10.94	3.926	3.731	3.838	3.378	3.248	3.259	2.963	3.014	3.041	2.821	3.002	2.678	2.579	2.458	2.175	1.948	1.994	1.760	1.653	1.588	1.469	1.467	1.313	1.210	1.217	1.141	1.018	1.063	0.922	0.953	0.715	0.700	0.686	0.626	0.511	0.528	0.755	1.022	1.093	0.892	0.619	0.557	0.642	0.645	0.743	0.752	0.829	0.982	1.017	0.685	0.633	0.525	0.439	0.397	0.478	0.545	1.498	7.325
615.0	51.97	60.69	70.95	47.40	40.43	39.73	49.93	65.08	96.64	133.7	170.5	218.1	166.1	92.19	59.58	50.49	165.8	512.1	67.72	3.248	3.111	2.897	2.791	2.544	2.678	2.418	2.358	2.490	2.456	2.438	2.114	2.063	2.054	1.817	1.693	1.473	1.540	1.415	1.324	1.149	1.157	0.985	0.963	0.947	0.985	0.798	0.855	0.737	0.828	0.583	0.558	0.655	0.438	0.518	0.437	0.530	0.620	0.917	1.058	0.795	0.606	0.609	0.680	0.616	0.798	0.825	0.802	0.934	0.868	0.596	0.647	0.483	0.424	0.343	0.398	0.530	1.858
620.0	39.18	61.90	73.91	50.60	41.49	40.18	47.87	62.79	89.79	123.6	160.8	191.3	179.5	94.33	58.31	42.88	68.15	400.5	243.1	5.165	3.020	2.514	2.316	2.217	2.063	1.941	1.832	1.795	1.970	1.999	1.804	1.827	1.744	1.346	1.410	1.101	1.247	1.062	0.943	1.070	0.815	0.918	0.824	0.755	0.761	0.657	0.719	0.668	0.644	0.529	0.554	0.461	0.445	0.455	0.405	0.480	0.485	0.659	0.793	0.760	0.550	0.546	0.589	0.589	0.712	0.784	0.772	0.764	0.890	0.736	0.662	0.535	0.401	0.373	0.352	0.325	0.635
625.0	43.29	53.03	67.35	47.02	40.52	37.20	46.04	62.94	85.87	119.1	144.7	170.0	180.6	97.95	59.15	43.05	43.72	185.9	424.0	22.73	2.584	2.380	2.141	2.154	2.006	1.660	1.594	1.701	1.522	1.541	1.506	1.508	1.609	1.209	1.204	1.031	0.964	0.863	0.924	0.929	0.747	0.773	0.747	0.703	0.534	0.554	0.636	0.608	0.545	0.485	0.465	0.386	0.422	0.383	0.366	0.408	0.404	0.564	0.707	0.846	0.525	0.580	0.592	0.506	0.603	0.682	0.741	0.635	0.858	0.853	0.728	0.469	0.395	0.365	0.303	0.334	0.327
630.0	37.51	59.40	61.09	49.08	41.08	40.54	46.24	64.01	78.73	109.2	138.2	149.7	160.4	105.9	61.21	40.60	38.65	62.60	348.4	170.6	4.766	2.107	1.683	1.745	1.637	1.329	1.401	1.438	1.352	1.375	1.197	1.175	1.033	0.927	0.980	0.830	0.740	0.787	0.753	0.719	0.609	0.580	0.544	0.582	0.520	0.469	0.513	0.546	0.425	0.401	0.409	0.365	0.369	0.353	0.319	0.346	0.370	0.381	0.513	0.666	0.696	0.549	0.503	0.526	0.599	0.601	0.618	0.624	0.718	0.728	0.630	0.503	0.420	0.319	0.296	0.243	0.252
635.0	38.17	54.46	64.66	47.05	43.11	38.48	46.08	60.41	80.12	99.25	127.5	143.7	135.4	117.4	64.39	42.46	38.13	29.95	116.0	361.0	38.55	2.097	1.610	1.228	1.375	1.210	1.192	1.025	1.092	1.042	1.000	0.832	0.679	0.681	0.857	0.686	0.580	0.611	0.576	0.486	0.430	0.389	0.430	0.477	0.406	0.380	0.386	0.450	0.346	0.397	0.376	0.316	0.314	0.298	0.272	0.281	0.317	0.356	0.367	0.488	0.646	0.592	0.559	0.435	0.565	0.568	0.500	0.566	0.564	0.584	0.583	0.548	0.372	0.335	0.291	0.279	0.215
640.0	39.58	54.98	67.39	48.90	40.78	36.26	45.88	63.89	71.77	93.75	123.4	136.4	123.7	114.7	69.90	43.62	39.48	23.16	34.60	309.2	148.7	2.729	1.455	1.200	1.149	1.040	0.881	0.951	1.164	0.907	0.870	0.679	0.595	0.686	0.620	0.474	0.552	0.515	0.506	0.401	0.400	0.347	0.356	0.363	0.499	0.335	0.306	0.443	0.325	0.363	0.305	0.349	0.353	0.275	0.219	0.279	0.258	0.267	0.303	0.398	0.545	0.570	0.499	0.472	0.510	0.506	0.524	0.511	0.493	0.509	0.491	0.478	0.495	0.341	0.319	0.244	0.277
645.0	40.21	53.86	66.25	48.71	38.19	36.98	41.30	58.22	66.21	86.36	108.3	122.3	114.8	103.2	77.58	43.61	38.87	21.14	13.92	153.0	283.5	12.09	1.229	1.095	0.951	0.860	0.812	0.764	0.898	0.811	0.698	0.632	0.565	0.610	0.552	0.351	0.409	0.522	0.377	0.252	0.353	0.343	0.288	0.291	0.307	0.367	0.363	0.351	0.333	0.308	0.289	0.306	0.244	0.253	0.234	0.263	0.233	0.290	0.283	0.314	0.325	0.479	0.566	0.528	0.415	0.504	0.514	0.442	0.524	0.494	0.466	0.378	0.553	0.440	0.264	0.225	0.224
650.0	31.61	55.09	62.98	52.26	34.79	35.85	41.25	51.94	62.84	82.61	101.6	113.9	106.4	89.10	81.38	44.87	36.50	20.79	9.306	48.72	324.9	57.39	1.251	1.013	0.975	0.822	0.859	0.663	0.680	0.649	0.603	0.629	0.517	0.511	0.420	0.351	0.337	0.438	0.309	0.276	0.316	0.319	0.298	0.225	0.227	0.380	0.277	0.350	0.296	0.243	0.233	0.271	0.223	0.215	0.186	0.254	0.252	0.220	0.252	0.296	0.268	0.419	0.439	0.609	0.483	0.470	0.437	0.479	0.479	0.449	0.481	0.407	0.424	0.459	0.341	0.275	0.216
