Sample:	'1
File name:	G2025090911月河六路东032雨水井.FD3
Run date:	'15:28:32, 09/10/2025
Operator:	Administrator
Comment:	'

Instrument
Model:	F-2700 FL Spectrophotometer
Serial number:	24D1-003
ROM Version:	4J14000 07

Instrument parameters
Measurement type:	3-D scan
Data mode:	Fluorescence
EX  Start WL:	220.0 nm
EX  End WL:	600.0 nm
EX Sampling interval:	5.0 nm
EM  Start WL:	230.0 nm
EM  End WL:	650.0 nm
EM Sampling interval:	5.0 nm
Scan speed:	12000 nm/min
EX Slit:	5.0 nm
EM Slit:	5.0 nm
PMT Voltage:	700 V
Response:	Auto 
Corrected spectra:	Off
Contour interval:	50.000

Peak integration
Integration method:	Rectangular
Sensitivity:	1
Threshold:	1.000

Peaks
No.	ApexEX/EM(nm)	Height(Data)
1	230.0/340.0	4045
2	230.0/570.0	29.96
3	230.0/585.0	28.29
4	235.0/515.0	151.8
5	240.0/265.0	373.2
6	240.0/525.0	163.9
7	245.0/535.0	153.8
8	245.0/600.0	19.84
9	250.0/275.0	493.0
10	250.0/550.0	137.0
11	255.0/280.0	609.7
12	255.0/560.0	128.2
13	260.0/285.0	626.3
14	260.0/575.0	116.6
15	265.0/290.0	667.5
16	265.0/585.0	113.6
17	270.0/300.0	989.4
18	270.0/595.0	97.32
19	275.0/305.0	1146
20	275.0/610.0	87.89
21	280.0/340.0	2990
22	280.0/625.0	76.51
23	285.0/635.0	64.80
24	320.0/360.0	554.5
25	325.0/365.0	494.7
26	335.0/380.0	361.6
27	340.0/385.0	339.3
28	350.0/400.0	280.7
29	355.0/405.0	277.2
30	360.0/410.0	247.0
31	365.0/420.0	237.5
32	370.0/425.0	226.2
33	380.0/440.0	179.1
34	385.0/445.0	162.5
35	400.0/465.0	106.7
36	415.0/485.0	59.99
37	425.0/500.0	41.08
38	440.0/520.0	23.85
39	445.0/525.0	20.99
40	455.0/540.0	13.98
41	465.0/340.0	12.94
42	470.0/560.0	7.601
43	505.0/275.0	2.996
44	510.0/280.0	3.361
45	520.0/285.0	3.895
46	530.0/290.0	3.494
47	540.0/295.0	5.046
48	545.0/300.0	4.965
49	555.0/305.0	5.252
50	565.0/340.0	12.41

Data points
	220.0	225.0	230.0	235.0	240.0	245.0	250.0	255.0	260.0	265.0	270.0	275.0	280.0	285.0	290.0	295.0	300.0	305.0	310.0	315.0	320.0	325.0	330.0	335.0	340.0	345.0	350.0	355.0	360.0	365.0	370.0	375.0	380.0	385.0	390.0	395.0	400.0	405.0	410.0	415.0	420.0	425.0	430.0	435.0	440.0	445.0	450.0	455.0	460.0	465.0	470.0	475.0	480.0	485.0	490.0	495.0	500.0	505.0	510.0	515.0	520.0	525.0	530.0	535.0	540.0	545.0	550.0	555.0	560.0	565.0	570.0	575.0	580.0	585.0	590.0	595.0	600.0
230.0	26.19	238.7	880.4	295.7	20.76	9.208	7.793	6.813	5.786	5.488	5.155	4.719	4.410	3.679	3.206	2.609	2.356	1.978	1.986	1.588	1.668	1.493	1.398	1.188	1.251	1.211	1.101	1.094	0.995	1.054	0.940	0.918	0.923	0.778	0.826	0.710	0.667	0.584	0.596	0.613	0.623	0.626	0.527	0.558	0.573	0.531	0.609	1.132	2.701	3.138	1.684	0.614	0.454	0.421	0.461	0.453	0.467	0.449	0.442	0.473	0.439	0.401	0.429	0.481	0.472	0.460	0.505	0.478	0.464	0.469	0.531	0.481	0.485	0.417	0.497	0.490	0.546
235.0	35.88	83.98	776.9	2327	451.5	39.08	9.577	7.547	7.143	6.280	5.186	4.586	4.097	4.167	2.996	2.979	2.247	2.089	1.880	1.460	1.368	1.619	1.395	1.536	1.250	0.975	1.194	0.993	1.028	0.976	0.957	0.839	0.832	0.662	0.831	0.594	0.701	0.666	0.613	0.668	0.609	0.532	0.481	0.529	0.546	0.675	0.538	0.703	1.358	3.285	6.655	8.868	6.125	1.519	0.453	0.496	0.464	0.487	0.422	0.516	0.416	0.581	0.497	0.516	0.458	0.584	0.463	0.460	0.409	0.437	0.423	0.446	0.436	0.530	0.533	0.458	0.440
240.0	42.06	45.06	258.8	2344	3625	387.3	23.60	8.697	8.022	6.189	6.012	5.015	4.938	4.067	3.152	3.049	2.503	2.269	1.886	1.801	1.850	1.472	1.696	1.414	1.261	1.167	1.199	1.100	1.032	1.209	1.056	0.968	0.837	0.763	0.696	0.688	0.809	0.663	0.550	0.744	0.608	0.536	0.574	0.515	0.587	0.528	0.504	0.543	0.709	1.224	3.609	10.95	17.34	13.80	5.205	0.932	0.452	0.482	0.436	0.409	0.437	0.514	0.489	0.408	0.458	0.512	0.556	0.475	0.471	0.473	0.494	0.635	0.460	0.520	0.553	0.449	0.574
245.0	40.54	59.59	89.56	814.4	4207	3388	311.8	12.49	8.217	6.410	7.072	5.661	4.788	4.916	3.619	3.244	2.462	2.625	2.077	2.008	1.940	1.390	1.625	1.495	1.216	1.082	1.180	1.100	1.012	0.963	1.054	1.010	0.914	0.872	0.737	0.758	0.753	0.664	0.628	0.678	0.571	0.603	0.624	0.514	0.636	0.613	0.624	0.650	0.650	0.577	1.196	3.705	9.960	20.15	23.00	12.95	3.914	0.738	0.533	0.494	0.350	0.501	0.374	0.471	0.498	0.418	0.484	0.468	0.478	0.523	0.502	0.542	0.474	0.551	0.518	0.465	0.516
250.0	33.86	66.43	134.7	249.6	1314	4084	4777	1274	79.94	9.344	8.207	6.365	6.108	4.483	3.732	3.318	2.502	2.531	2.188	1.942	1.738	1.663	1.691	1.531	1.305	1.011	1.263	1.114	1.097	0.904	1.018	0.935	0.943	0.867	0.851	0.783	0.732	0.669	0.655	0.690	0.685	0.611	0.566	0.568	0.533	0.481	0.573	0.640	0.784	0.757	0.829	1.281	2.765	6.006	11.83	17.86	23.38	19.73	11.86	4.343	0.713	0.525	0.449	0.513	0.492	0.452	0.523	0.510	0.541	0.483	0.487	0.524	0.522	0.488	0.516	0.489	0.529
255.0	32.14	37.00	114.2	275.4	369.5	1013	3557	7929	1871	88.30	10.74	8.760	7.121	4.962	4.663	3.618	3.324	2.171	2.251	1.704	1.960	1.725	1.396	1.430	1.295	1.203	1.354	1.124	0.962	1.056	1.025	0.977	1.003	0.898	0.805	0.640	0.702	0.819	0.573	0.637	0.674	0.699	0.649	0.620	0.601	0.529	0.572	0.591	0.666	0.798	1.344	1.426	1.427	1.756	3.030	4.510	7.741	16.52	32.97	29.49	18.29	4.473	0.716	0.552	0.497	0.539	0.591	0.475	0.576	0.517	0.570	0.465	0.494	0.440	0.444	0.445	0.468
260.0	33.30	26.39	53.83	252.5	324.7	277.1	1014	5868	8753	1426	40.97	9.944	8.446	5.711	4.795	3.733	3.373	2.589	2.450	1.782	1.807	1.842	1.849	1.529	1.371	1.266	1.484	1.139	1.351	1.216	0.992	1.121	0.955	0.874	0.816	0.753	0.682	0.612	0.672	0.635	0.598	0.701	0.796	0.659	0.502	0.594	0.517	0.508	0.440	0.533	0.789	1.556	2.162	1.505	1.254	1.469	2.179	4.608	12.94	28.57	44.47	27.98	13.05	1.986	0.548	0.545	0.429	0.419	0.595	0.477	0.528	0.535	0.400	0.501	0.500	0.492	0.535
265.0	31.88	26.54	27.48	120.1	373.2	254.3	260.0	1775	7773	9139	231.3	20.12	10.59	6.908	5.608	4.147	3.729	3.068	2.732	2.066	1.872	1.732	1.706	1.671	1.367	1.460	1.479	1.149	1.206	1.178	1.061	0.904	0.897	0.779	0.865	0.757	0.672	0.595	0.614	0.607	0.667	0.614	0.670	0.663	0.648	0.641	0.526	0.606	0.513	0.470	0.481	0.859	1.665	2.137	1.987	1.072	0.925	1.461	3.383	8.188	21.06	38.58	50.77	24.40	7.663	0.801	0.511	0.496	0.542	0.538	0.595	0.542	0.480	0.440	0.557	0.489	0.581
270.0	36.60	31.31	27.14	47.42	167.7	373.0	296.9	450.0	2213	7078	9784	3840	78.58	9.504	6.917	4.943	3.998	3.295	3.056	2.400	1.964	1.960	1.824	1.788	1.567	1.403	1.476	1.275	1.171	1.140	1.264	0.878	0.913	0.843	0.809	0.718	0.703	0.592	0.596	0.642	0.619	0.623	0.692	0.614	0.668	0.656	0.526	0.543	0.546	0.466	0.374	0.624	0.847	1.091	1.766	2.102	2.099	1.453	1.305	2.284	5.378	10.75	21.80	33.82	33.34	38.77	16.11	7.031	0.827	0.535	0.659	0.540	0.594	0.505	0.612	0.571	0.547
275.0	39.43	50.33	46.47	38.80	55.47	153.7	493.0	367.4	547.0	1689	5008	9999.9	6376	96.77	10.97	7.038	5.361	3.520	3.076	2.428	2.569	2.181	1.916	1.752	1.636	1.450	1.450	1.178	1.161	1.216	1.312	1.078	0.956	0.851	0.796	0.755	0.807	0.658	0.804	0.688	0.705	0.641	0.570	0.567	0.602	0.639	0.605	0.639	0.651	0.465	0.456	0.565	0.572	0.670	0.812	1.057	2.206	2.996	2.689	1.784	1.749	2.906	5.427	8.322	10.27	25.08	51.29	66.31	24.75	7.003	0.795	0.588	0.634	0.539	0.606	0.563	0.564
280.0	48.44	63.22	71.23	44.47	35.92	60.51	279.7	609.7	313.7	444.9	1332	7084	9999.9	1175	62.19	9.059	6.286	4.694	3.477	2.830	2.735	2.387	2.179	1.615	1.609	1.584	1.599	1.378	1.168	1.060	1.152	1.131	1.185	1.044	0.945	0.717	0.908	0.650	0.755	0.573	0.730	0.609	0.522	0.564	0.711	0.681	0.512	0.685	0.667	0.589	0.466	0.533	0.514	0.412	0.676	0.630	1.062	1.931	3.361	3.329	2.007	1.472	1.831	2.592	2.972	6.674	17.24	43.63	68.32	33.27	18.37	2.589	0.658	0.663	0.668	0.485	0.574
285.0	47.20	79.63	88.90	62.24	38.26	38.53	109.2	455.9	626.3	249.3	398.6	1984	8196	9999.9	915.5	31.89	8.293	5.543	3.860	3.075	2.848	2.452	2.300	1.997	1.755	1.793	1.682	1.538	1.276	1.222	1.163	1.046	1.208	0.954	1.104	0.717	0.809	0.638	0.674	0.529	0.627	0.684	0.551	0.569	0.697	0.689	0.663	0.703	0.747	0.609	0.674	0.525	0.551	0.448	0.586	0.583	0.783	0.982	1.734	2.982	3.895	2.821	1.391	1.382	1.423	2.337	4.660	11.57	26.89	51.05	74.65	29.56	11.13	1.092	0.622	0.638	0.650
290.0	57.67	87.74	118.9	86.66	49.83	45.23	70.49	192.7	543.0	667.5	354.1	607.0	2185	6825	9328	3668	52.65	8.689	6.005	4.029	3.291	2.661	2.467	2.076	1.887	1.771	1.809	1.464	1.429	1.473	1.192	1.119	1.082	0.951	0.965	0.842	0.750	0.782	0.725	0.623	0.643	0.630	0.682	0.748	0.647	0.744	0.614	0.782	0.835	0.697	0.654	0.687	0.697	0.567	0.643	0.681	0.678	0.784	0.952	1.361	2.189	3.298	3.494	3.281	2.112	1.567	2.038	3.491	7.079	13.71	27.70	41.32	57.65	49.95	18.28	8.072	1.040
295.0	60.45	95.17	133.1	115.7	72.58	66.61	80.57	132.8	268.2	629.3	883.2	452.9	701.3	1682	3545	9999.9	5219	66.45	8.730	5.734	4.614	3.054	2.617	2.342	2.088	1.848	1.807	1.513	1.591	1.444	1.209	1.341	1.165	1.098	0.947	0.817	0.903	0.798	0.764	0.578	0.703	0.621	0.804	0.712	0.784	0.725	0.652	0.741	0.902	0.786	0.638	0.795	0.732	0.633	0.698	0.666	0.746	0.833	0.902	1.177	1.218	1.849	2.144	3.775	5.046	3.515	2.154	1.984	2.841	4.177	7.198	10.15	15.52	28.85	60.94	83.72	28.83
300.0	59.04	106.9	148.7	123.6	89.82	81.28	104.2	142.8	211.9	405.4	989.4	801.0	445.4	562.5	934.3	4975	9999.9	3741	44.35	7.851	5.246	3.627	3.091	2.479	2.334	1.984	1.806	1.735	1.846	1.519	1.460	1.251	1.219	1.006	0.929	0.920	0.881	0.793	0.933	0.728	0.668	0.679	0.760	0.672	0.707	0.611	0.612	0.867	0.915	0.791	0.726	0.864	0.813	0.740	0.828	0.713	0.914	1.003	0.949	1.062	1.192	1.224	1.640	2.419	4.015	4.965	4.261	2.756	2.100	2.282	2.912	3.309	4.258	7.671	19.29	52.10	83.87
305.0	60.09	108.9	163.5	135.2	107.0	101.2	130.9	164.1	233.3	342.8	679.9	1146	654.9	359.0	350.0	1283	6603	9999.9	614.1	26.66	6.976	4.947	3.568	2.935	2.618	2.229	1.696	1.869	1.669	1.578	1.309	1.366	1.314	1.088	1.018	0.883	0.750	0.774	0.811	0.729	0.759	0.617	0.782	0.639	0.624	0.669	0.664	0.830	0.872	0.844	0.850	0.834	0.934	0.856	0.844	0.843	1.024	0.974	1.044	1.244	1.299	1.324	1.611	2.017	2.558	3.514	4.921	5.252	3.272	2.267	2.227	1.982	2.001	2.692	5.129	13.39	31.40
310.0	58.51	123.0	180.0	160.8	130.2	127.1	156.5	201.3	274.9	373.9	530.0	854.4	1040	608.1	293.6	406.3	1652	5776	9999.9	2559	39.09	7.739	5.161	3.674	2.967	2.575	2.139	1.765	1.683	1.604	1.428	1.367	1.269	1.025	1.082	0.982	0.887	0.763	0.815	0.749	0.779	0.724	0.705	0.715	0.646	0.752	0.710	0.864	0.872	0.917	0.914	0.952	0.954	0.859	0.988	1.036	1.051	1.146	1.191	1.405	1.466	1.644	1.767	2.127	2.277	2.688	3.201	4.239	4.551	4.741	3.537	2.315	1.779	1.961	2.069	3.845	7.937
315.0	89.89	226.1	348.8	261.9	171.9	169.0	222.8	287.4	391.7	510.2	652.6	798.1	937.8	1139	623.6	325.9	512.3	1387	3363	9999.9	4003	52.27	8.272	5.266	3.569	2.812	2.513	1.928	1.918	1.749	1.564	1.320	1.360	1.091	1.034	1.035	0.949	0.785	0.818	0.681	0.659	0.863	0.688	0.778	0.816	0.821	0.960	1.281	1.513	1.334	1.147	1.153	1.161	1.094	1.248	1.113	1.257	1.508	1.637	1.596	2.016	2.142	2.409	2.648	2.943	3.042	3.461	3.656	3.729	4.402	5.451	5.187	3.531	2.426	2.041	2.222	2.927
320.0	176.6	630.4	870.3	591.9	330.9	300.3	365.0	511.7	691.1	908.4	1130	1287	1306	1398	1134	630.1	402.8	488.2	895.2	4485	9999.9	3045	38.56	7.429	4.303	3.381	2.706	1.987	1.934	1.790	1.654	1.600	1.353	1.120	1.046	0.906	0.936	0.925	0.858	0.877	0.723	0.744	0.710	0.796	0.811	1.136	1.552	2.609	3.621	3.392	2.609	2.244	1.733	1.776	1.572	1.838	1.855	2.142	2.559	2.692	3.024	3.259	3.529	4.433	4.627	4.820	4.969	5.356	5.400	5.775	6.052	6.928	6.878	4.668	3.644	2.789	2.690
325.0	297.5	1253	2312	1614	579.5	488.4	614.1	831.5	1114	1476	1830	2061	2059	1914	1830	1291	630.5	427.9	434.2	1241	6047	9999.9	487.2	26.00	5.911	4.132	3.321	2.602	2.168	2.119	1.839	1.587	1.449	1.457	1.078	0.946	0.950	0.982	0.909	0.816	0.736	0.924	0.777	0.829	1.023	1.447	2.465	4.519	7.110	7.466	5.657	4.670	3.462	2.846	2.466	2.466	2.609	3.040	3.455	3.998	4.435	4.881	5.815	6.394	7.084	7.778	8.107	8.250	8.694	8.775	8.498	8.555	8.919	8.836	6.924	5.014	3.768
330.0	367.3	1613	3290	2574	1214	780.8	819.0	1057	1410	1859	2299	2585	2593	2373	2053	1720	1063	579.4	435.5	531.8	1646	5390	8540	3964	33.03	6.312	4.379	3.457	2.533	2.250	2.009	1.827	1.578	1.449	1.288	1.043	1.064	0.909	0.941	0.858	0.865	0.896	0.767	0.855	1.157	1.706	2.854	5.899	9.752	10.41	8.902	7.597	6.038	4.077	3.747	3.195	3.543	3.785	4.294	4.814	5.729	6.406	7.197	7.669	9.017	9.370	10.15	10.34	10.69	10.58	10.97	10.19	9.794	9.310	8.979	8.302	6.835
335.0	407.7	1854	3798	3032	1523	962.5	954.4	1196	1584	2079	2555	2885	2881	2627	2209	1711	1320	813.5	504.6	415.7	614.8	1415	2997	9688	3286	43.97	5.993	4.531	3.699	2.697	2.257	1.884	1.594	1.372	1.202	1.110	1.062	1.005	0.994	0.998	0.923	0.887	0.986	0.932	1.166	1.906	3.087	6.596	11.14	12.12	10.10	9.385	7.481	4.945	4.375	3.719	4.070	4.308	4.733	5.416	6.292	6.931	7.955	8.949	9.790	10.83	11.30	11.81	11.26	12.00	11.48	11.29	10.51	9.939	8.589	7.933	7.994
340.0	423.8	1954	4045	3379	1700	1036	1016	1257	1662	2168	2665	2962	2990	2753	2295	1723	1238	1029	631.4	419.2	406.4	548.0	797.5	4256	9999.9	2620	31.71	5.735	4.164	3.303	2.607	2.163	1.550	1.555	1.302	1.132	0.982	0.957	1.060	0.903	0.859	0.881	0.851	0.931	1.198	1.812	3.246	6.923	11.48	12.94	11.52	10.15	8.122	5.709	4.650	4.084	4.331	4.330	5.092	5.693	6.179	7.250	8.211	9.187	9.967	10.82	11.82	12.31	12.19	12.41	11.78	11.21	10.58	9.704	8.748	7.909	7.144
345.0	394.7	1824	3895	3353	1737	1060	987.3	1210	1590	2047	2499	2792	2815	2601	2197	1654	1126	933.2	796.6	459.7	360.8	365.1	300.1	1069	5640	9291	411.0	20.00	5.277	3.696	2.806	2.188	1.667	1.646	1.420	1.233	0.975	1.135	0.909	0.784	0.798	0.887	0.840	0.993	1.201	1.971	3.414	6.712	10.47	12.86	11.26	10.13	8.329	5.708	4.794	4.048	4.184	4.516	4.821	5.377	5.987	6.864	7.863	8.563	9.429	10.11	11.02	11.38	11.13	11.95	11.89	10.73	10.40	9.473	8.403	7.282	6.425
350.0	329.3	1521	3264	2936	1597	984.3	919.5	1065	1383	1762	2139	2391	2422	2240	1912	1459	999.7	742.0	723.4	602.5	380.7	316.1	199.1	305.5	1393	4716	6931	3190	28.93	5.338	3.861	2.637	2.060	1.911	1.544	1.288	1.076	1.047	0.843	0.931	0.838	0.898	0.883	0.885	1.108	1.652	2.870	5.649	8.891	10.54	9.556	8.977	7.184	5.271	4.438	3.711	3.845	4.213	4.540	4.797	5.589	6.034	7.028	7.713	8.196	8.752	9.611	9.428	9.898	9.998	10.06	9.355	9.067	8.654	7.481	6.712	5.857
355.0	290.4	1246	2695	2485	1430	897.4	831.7	956.6	1198	1517	1821	2022	2043	1903	1623	1261	880.0	639.4	553.9	582.8	516.4	324.5	187.5	154.5	366.2	1095	2472	7885	2916	35.80	5.328	3.414	2.308	1.969	1.675	1.417	1.229	1.076	1.003	0.939	0.879	0.861	0.796	0.814	0.975	1.463	2.396	4.503	7.452	8.636	8.126	7.606	6.483	4.821	4.155	3.432	3.718	3.811	4.117	4.454	4.800	5.357	5.959	6.361	7.032	7.548	8.049	7.829	7.991	8.434	8.481	7.930	7.666	7.081	6.461	5.772	5.246
360.0	242.9	1051	2254	2173	1277	835.9	769.8	864.4	1059	1313	1563	1723	1758	1627	1412	1112	808.1	591.7	490.2	468.8	554.5	403.9	204.2	132.8	151.4	292.5	601.9	3518	8468	2113	25.91	4.654	2.974	2.385	1.737	1.605	1.266	1.071	1.142	0.952	0.851	0.984	0.820	0.770	0.867	1.412	2.072	4.002	6.457	7.618	6.842	7.059	6.004	4.558	3.822	3.160	3.594	3.622	3.826	3.708	4.247	4.609	5.156	5.652	5.912	6.237	6.775	6.967	7.221	7.348	7.196	7.189	6.626	6.346	5.885	5.316	4.879
365.0	197.6	853.0	1859	1832	1133	786.1	701.7	774.8	931.8	1145	1335	1482	1495	1389	1215	983.1	729.1	551.0	463.6	409.3	454.9	494.7	262.7	144.0	117.7	125.9	177.3	873.3	4786	7943	367.4	10.32	3.906	2.966	2.027	1.769	1.393	1.212	1.190	0.984	0.934	0.867	0.925	0.772	0.846	1.347	1.687	3.379	4.944	6.341	5.899	6.132	5.249	3.866	3.610	3.245	3.183	3.423	3.656	3.533	3.666	4.248	4.554	4.890	5.223	5.495	5.803	6.025	6.119	6.178	6.409	6.205	6.004	5.831	5.155	4.708	4.767
370.0	158.5	646.7	1423	1455	974.7	709.8	634.6	680.2	796.2	955.4	1108	1207	1224	1146	1016	828.4	634.9	504.4	437.7	387.1	367.9	428.7	380.5	211.3	134.3	107.0	96.69	234.4	1182	4568	6264	1372	21.34	3.992	2.619	2.012	1.532	1.367	1.180	1.095	0.968	0.891	0.928	0.825	0.914	1.066	1.471	2.598	4.030	5.100	4.723	5.113	4.492	3.646	3.380	2.831	2.922	2.881	2.962	3.212	3.289	3.541	4.011	4.167	4.687	4.514	4.745	4.841	5.338	5.307	5.345	5.131	5.205	4.896	4.393	4.129	4.027
375.0	132.2	486.5	1097	1168	844.9	630.7	583.3	590.5	674.6	797.5	930.0	999.3	1004	939.0	837.2	703.5	558.7	466.3	411.0	375.5	340.5	347.0	359.7	342.8	185.0	125.2	96.42	106.6	301.7	1053	2462	7121	2189	26.80	3.741	2.368	2.023	1.715	1.259	1.089	1.017	0.894	0.913	0.997	0.885	0.914	1.365	2.117	3.233	3.817	3.914	4.126	4.001	3.072	2.989	2.521	2.736	2.486	2.781	2.653	3.060	3.409	3.472	3.900	3.842	3.788	4.153	3.903	4.310	4.500	4.425	4.408	4.668	4.215	3.675	3.808	3.572
380.0	116.6	401.7	881.7	982.7	758.3	602.2	541.4	556.4	614.8	711.9	800.3	859.9	857.9	819.0	734.6	618.7	512.1	434.0	397.9	366.6	337.9	325.1	304.8	361.6	272.4	151.3	112.3	89.81	114.2	267.8	598.8	3940	6882	1549	17.02	3.309	2.226	1.918	1.289	1.131	1.069	0.843	1.024	0.946	0.878	0.974	1.221	1.764	2.586	3.008	3.255	3.597	3.190	2.943	2.778	2.273	2.426	2.579	2.581	2.685	2.794	2.867	2.874	3.334	3.303	3.574	3.450	3.633	3.707	3.689	4.048	3.848	4.007	3.681	3.392	3.390	3.486
385.0	104.1	327.4	723.2	842.2	694.1	564.3	512.2	519.5	562.0	640.5	707.1	765.0	753.1	727.1	649.6	558.5	473.6	415.1	381.5	357.2	334.3	318.5	286.7	304.8	339.3	208.9	130.3	98.01	84.36	101.7	165.8	1029	4711	5825	285.7	8.355	2.778	2.173	1.499	1.375	1.141	0.935	0.961	0.902	0.814	0.972	1.150	1.474	2.301	2.566	2.894	3.252	3.021	2.606	2.701	2.389	2.469	2.614	2.475	2.555	2.629	2.831	2.816	3.290	2.983	3.151	3.098	3.331	3.421	3.318	3.536	3.489	3.386	3.385	3.212	3.166	3.070
390.0	86.44	262.8	571.7	706.1	607.9	526.7	478.6	476.2	520.5	569.3	625.1	660.6	657.2	626.6	565.5	494.7	436.6	389.2	365.8	347.1	332.0	317.2	286.2	268.3	296.0	293.9	192.7	122.1	94.82	80.75	80.29	261.3	1216	3579	4515	1078	17.37	2.934	2.000	1.563	1.260	1.069	1.012	0.923	0.906	0.830	0.995	1.456	1.998	2.249	2.320	2.845	2.844	2.502	2.462	2.355	2.403	2.368	2.274	2.318	2.287	2.381	2.358	2.847	2.646	2.817	2.740	2.993	2.956	3.020	3.112	3.044	3.084	2.850	3.044	2.772	2.958
395.0	78.25	219.8	463.5	591.4	545.7	490.6	457.8	449.1	478.1	514.3	555.2	577.6	582.1	548.6	500.9	451.3	399.7	366.0	352.3	336.6	325.1	315.3	292.7	265.9	254.8	271.0	278.7	174.5	117.3	92.20	75.28	100.3	301.1	827.6	2001	4983	1770	22.68	3.212	2.020	1.596	1.360	1.189	0.925	0.901	0.963	0.979	1.242	1.697	1.980	2.104	2.479	2.462	2.389	2.336	2.204	2.258	2.045	2.306	1.997	2.219	2.294	2.451	2.450	2.522	2.648	2.633	2.386	2.765	2.724	2.749	2.825	2.895	2.948	2.635	2.740	2.694
400.0	72.52	199.1	418.5	536.5	512.3	468.7	450.6	431.4	451.5	480.7	526.9	531.6	531.6	505.1	466.1	419.2	380.1	350.7	339.8	330.7	319.1	312.6	294.3	271.3	248.8	240.2	280.7	240.2	143.6	105.5	84.85	71.74	103.7	211.0	492.1	2684	4939	1198	14.71	2.622	1.880	1.335	1.169	0.983	0.967	1.005	1.019	1.209	1.529	1.843	1.948	2.199	2.339	2.097	2.287	2.155	2.159	2.146	2.106	2.030	2.166	2.142	2.385	2.367	2.260	2.500	2.328	2.342	2.499	2.665	2.411	2.522	2.705	2.660	2.535	2.706	2.630
405.0	67.37	170.4	375.7	482.0	480.5	453.0	430.3	428.0	428.5	458.9	497.0	499.0	492.1	466.4	435.1	393.5	356.1	338.5	325.3	321.4	314.5	308.5	297.1	274.0	251.0	232.6	244.2	277.2	190.5	122.4	96.27	73.49	65.28	78.50	133.1	692.8	3230	4236	250.4	6.775	2.310	1.702	1.416	1.080	0.861	1.085	0.881	1.153	1.664	1.490	1.718	2.127	2.132	2.172	2.290	2.082	2.010	2.197	2.001	2.023	2.029	2.082	2.244	2.329	2.402	2.298	2.421	2.149	2.255	2.398	2.319	2.333	2.305	2.564	2.347	2.434	2.556
410.0	62.61	150.4	317.0	445.7	456.6	435.5	419.4	408.2	420.2	433.7	457.8	467.1	454.8	433.8	403.2	365.6	336.5	316.8	310.5	303.4	300.1	299.7	288.0	272.7	254.0	235.7	223.3	239.9	247.0	172.4	117.8	87.58	69.08	58.60	59.49	176.1	827.4	2549	2717	950.2	15.58	2.524	1.746	1.280	1.005	1.077	0.922	1.059	1.401	1.394	1.694	1.906	2.147	1.961	2.021	1.954	2.058	2.009	2.060	1.968	1.968	2.100	2.120	2.158	2.220	2.209	2.171	2.128	2.175	2.202	2.312	2.253	2.225	2.193	2.337	2.340	2.359
415.0	56.01	139.5	290.2	405.1	424.1	422.7	397.7	401.6	409.6	417.9	433.1	434.2	423.3	402.7	370.7	343.5	312.9	297.2	290.7	286.7	284.9	283.0	278.9	266.5	252.7	240.0	222.9	213.4	225.4	236.2	155.7	104.8	81.67	64.12	51.70	66.79	204.5	588.6	1305	3571	1452	19.64	2.506	1.636	1.345	1.195	0.935	1.064	1.386	1.442	1.541	1.980	1.848	1.946	1.887	1.775	2.135	1.838	1.906	1.831	1.942	2.008	1.996	2.106	2.200	2.012	1.966	2.103	2.062	2.156	2.047	2.048	2.153	1.985	2.206	2.348	2.184
420.0	56.95	124.9	254.8	383.5	404.5	408.8	394.5	397.2	389.5	409.5	417.7	419.1	393.4	373.3	353.1	320.0	297.6	280.2	275.8	273.6	271.3	272.7	267.5	260.7	250.5	237.9	224.6	210.6	204.1	237.5	203.1	123.2	92.15	70.79	55.05	48.13	69.25	149.3	322.0	1912	3585	262.4	12.64	2.249	1.670	1.234	1.069	1.085	1.232	1.303	1.515	1.751	2.052	2.007	1.906	1.790	1.973	1.941	1.900	2.094	1.898	2.011	2.042	2.166	2.024	1.834	1.947	1.924	2.005	2.034	1.924	2.006	2.015	2.113	2.068	2.001	2.148
425.0	51.13	119.4	241.0	370.6	398.3	403.9	389.7	387.6	385.3	398.7	401.8	400.8	380.3	355.3	335.3	301.1	279.5	268.3	268.1	261.4	258.1	260.4	258.6	252.3	243.1	234.8	224.3	211.1	197.1	209.6	226.2	152.7	102.0	79.41	62.55	48.69	44.03	54.31	87.46	492.8	2295	2956	232.4	5.829	2.003	1.523	1.141	1.131	1.246	1.286	1.518	1.823	1.862	1.876	2.010	1.741	1.862	1.838	1.815	1.993	2.160	2.058	1.875	2.034	1.917	1.898	2.111	2.017	1.888	1.943	1.827	1.943	1.854	1.928	1.875	2.132	1.924
430.0	53.96	110.2	223.1	343.4	382.0	379.1	375.6	377.9	380.8	390.5	395.4	385.5	363.4	341.5	312.7	285.0	262.2	250.8	249.1	244.5	244.7	246.0	247.4	246.3	236.7	231.2	221.6	210.8	198.4	191.9	199.4	193.0	134.4	92.09	72.24	55.96	45.20	38.39	38.71	123.8	583.5	1810	2229	838.3	14.46	1.957	1.379	1.344	1.288	1.320	1.463	1.775	1.854	1.924	1.984	1.892	1.980	1.950	1.933	2.022	2.055	1.954	1.714	1.961	1.821	1.848	2.055	1.950	1.969	1.795	1.905	1.847	1.797	1.864	1.968	1.853	1.938
435.0	68.98	103.9	213.1	327.8	364.5	371.3	366.1	373.1	378.6	387.7	391.1	365.6	348.4	329.3	297.8	268.1	245.4	235.3	232.3	228.3	226.8	231.2	233.2	233.6	227.6	224.0	218.0	210.3	201.2	191.4	181.2	184.3	174.9	118.8	83.94	66.25	52.26	40.97	33.03	44.98	142.8	417.6	997.3	2855	1344	19.92	2.058	1.569	1.529	1.320	1.391	1.809	1.695	1.995	1.901	1.798	1.939	1.784	2.062	1.825	2.189	1.974	1.930	1.803	2.079	2.080	1.854	1.785	2.101	1.745	1.778	1.818	1.852	1.763	1.753	1.690	1.793
440.0	84.89	97.30	201.9	306.4	355.8	357.2	368.7	376.5	378.6	383.4	384.6	362.3	344.1	311.1	285.9	256.6	234.9	224.0	219.5	218.2	216.4	218.1	223.2	225.4	221.6	217.9	213.8	207.3	202.0	191.8	176.4	166.6	179.1	147.3	95.17	73.68	57.42	45.65	34.83	30.72	47.31	104.7	244.2	1547	3083	876.4	11.51	2.005	1.728	1.358	1.445	1.830	1.769	1.803	1.900	1.812	2.158	1.926	2.080	1.811	2.029	1.889	1.641	1.982	1.991	1.794	1.914	1.830	1.668	1.728	1.939	1.717	1.802	1.564	1.584	1.624	1.785
445.0	88.66	116.1	195.9	293.0	344.6	353.7	358.9	365.6	369.1	375.3	369.6	356.6	332.8	297.7	272.3	244.9	226.5	214.1	208.6	205.5	206.9	210.9	212.4	215.0	213.0	210.1	206.8	203.1	201.1	190.7	177.6	157.5	160.3	162.5	115.1	79.46	63.44	50.28	37.98	31.21	28.62	37.07	65.27	398.7	1968	2736	196.7	6.446	1.944	1.548	1.604	1.811	1.815	1.723	1.870	1.765	1.929	2.020	1.961	1.816	1.886	1.660	1.663	1.935	1.921	1.638	1.855	1.672	1.826	1.682	1.820	1.763	1.616	1.651	1.606	1.664	1.664
450.0	70.33	167.8	190.3	283.2	324.9	337.2	350.3	354.6	356.8	358.9	355.2	341.3	315.1	281.3	257.0	226.4	209.9	197.9	192.9	189.4	190.0	193.6	197.6	201.3	201.6	199.1	197.5	197.6	192.9	186.0	177.0	156.1	143.9	145.5	137.1	100.3	70.65	56.63	43.93	34.91	28.24	25.23	27.28	98.48	498.4	1587	1887	817.7	12.71	1.992	1.748	1.788	1.928	1.876	1.901	1.718	1.797	1.893	1.892	1.805	1.727	1.766	1.686	1.782	1.784	1.851	1.689	1.657	1.732	1.782	1.676	1.683	1.645	1.725	1.559	1.637	1.569
455.0	53.13	228.1	283.1	267.7	308.7	318.4	330.6	336.8	345.9	343.5	337.1	322.6	294.2	261.8	240.3	213.5	193.2	180.1	177.8	174.1	173.5	177.9	181.2	181.9	184.5	185.3	184.3	184.1	182.7	178.7	170.4	152.0	137.1	126.7	126.5	119.9	84.88	60.33	48.16	39.33	32.28	24.64	21.12	33.14	119.7	364.0	831.4	2299	1077	14.95	2.240	1.923	1.866	1.844	1.768	1.696	1.859	1.603	1.766	1.761	1.772	1.780	1.622	1.606	1.578	1.644	1.762	1.556	1.644	1.679	1.541	1.465	1.591	1.634	1.590	1.576	1.417
460.0	48.06	209.7	501.0	274.9	293.5	307.1	324.7	318.1	328.4	330.0	321.1	302.6	274.9	251.5	225.3	195.3	177.2	167.1	164.5	161.8	161.1	163.8	168.5	170.1	170.7	174.1	173.0	173.2	173.4	169.6	163.0	149.8	132.8	119.1	112.1	117.4	99.58	66.49	51.94	42.23	34.04	26.93	21.54	19.87	35.89	88.66	201.2	1208	2364	185.2	10.13	2.313	1.826	1.804	1.775	1.697	1.878	1.692	1.795	1.625	1.737	1.710	1.857	1.569	1.531	1.677	1.716	1.392	1.762	1.679	1.501	1.421	1.431	1.747	1.465	1.530	1.321
465.0	40.27	134.2	727.3	474.2	273.9	293.0	309.6	310.3	310.1	314.9	299.2	287.9	266.5	238.8	211.4	179.9	166.6	157.6	150.8	146.6	149.1	149.9	155.2	159.7	158.7	161.5	162.3	162.5	162.5	160.5	155.0	141.8	126.4	114.1	102.3	102.1	106.7	75.83	54.42	43.84	36.02	28.24	21.76	18.07	17.90	27.45	51.04	306.5	1528	1484	162.1	5.944	2.111	1.885	2.023	1.681	1.736	1.659	1.746	1.692	1.629	1.628	1.836	1.519	1.472	1.529	1.529	1.529	1.522	1.528	1.409	1.569	1.420	1.426	1.317	1.436	1.518
470.0	43.46	83.94	573.0	1204	375.2	268.4	278.5	286.4	286.1	285.3	277.5	263.9	242.8	217.0	190.4	166.3	150.9	140.4	135.0	132.4	132.7	134.0	137.1	140.3	142.9	144.1	145.0	146.4	148.3	147.1	141.3	130.2	118.4	106.6	95.66	88.51	89.50	84.85	62.40	44.62	36.14	29.17	22.74	18.17	14.51	14.17	17.67	73.40	386.0	1048	1347	663.7	14.18	2.316	1.921	1.773	1.742	1.581	1.625	1.587	1.595	1.556	1.619	1.452	1.478	1.345	1.399	1.555	1.442	1.403	1.289	1.330	1.409	1.306	1.277	1.273	1.335
475.0	45.76	64.33	246.7	1526	1111	250.0	244.0	252.6	250.9	257.2	252.0	244.4	218.9	196.2	173.6	148.7	131.2	124.9	118.2	116.1	116.0	118.9	120.0	123.3	125.8	125.7	127.8	128.0	129.5	133.2	128.3	118.0	108.5	97.02	87.63	79.18	73.07	74.76	71.70	49.46	35.95	29.67	23.43	18.78	14.33	11.89	10.41	21.47	90.37	239.5	552.0	1529	886.0	19.12	2.222	1.819	1.833	1.687	1.567	1.473	1.470	1.444	1.663	1.440	1.348	1.355	1.369	1.440	1.312	1.415	1.280	1.219	1.201	1.171	1.228	1.218	1.225
480.0	42.55	62.04	146.0	1049	2002	348.4	226.5	233.5	237.3	239.8	237.1	224.7	201.8	175.8	158.7	136.2	120.2	114.8	109.2	107.2	107.5	108.5	109.5	113.1	113.8	114.7	114.8	119.0	118.2	120.7	117.6	110.5	100.9	89.99	82.45	73.49	66.19	63.99	69.65	57.00	38.01	29.40	23.58	18.51	14.62	12.22	9.221	10.39	24.73	57.46	132.1	745.7	1617	643.2	13.79	1.939	1.875	1.708	1.503	1.553	1.428	1.444	1.497	1.528	1.257	1.298	1.352	1.361	1.394	1.210	1.247	1.077	1.197	1.146	1.233	1.097	1.298
485.0	46.39	67.13	116.8	470.6	2368	923.6	214.8	219.2	219.0	221.2	223.7	204.0	192.7	163.6	149.0	125.4	111.7	105.9	100.9	97.97	98.55	99.38	102.0	102.9	104.6	105.4	107.7	110.0	111.1	112.0	110.3	103.7	94.36	86.52	77.76	69.95	62.50	57.33	58.52	59.99	42.65	29.86	23.91	19.46	14.88	11.83	9.309	8.541	10.34	16.81	33.41	187.9	910.4	1561	200.3	7.922	1.877	1.798	1.588	1.614	1.415	1.344	1.416	1.390	1.230	1.407	1.275	1.268	1.266	1.145	1.100	1.161	1.113	1.115	1.057	1.132	1.191
490.0	38.66	71.15	106.0	219.7	1405	2219	332.1	201.7	201.7	205.6	206.3	187.7	173.9	152.9	133.3	114.6	101.2	93.80	89.35	86.86	87.01	88.90	90.15	89.96	93.20	94.67	95.65	96.75	100.2	100.5	99.86	93.78	86.45	78.52	71.83	64.34	57.60	51.82	48.30	51.58	48.85	34.24	24.07	19.44	15.85	12.76	10.23	8.820	7.809	8.246	11.45	45.70	222.2	758.4	1233	676.5	14.62	2.114	1.614	1.446	1.385	1.249	1.320	1.281	1.203	1.209	1.262	1.224	1.145	1.153	1.020	1.168	1.136	1.064	1.036	1.097	1.040
495.0	44.57	66.13	111.2	144.9	472.0	2335	1463	188.9	184.6	178.9	182.8	168.7	156.9	134.8	118.0	102.3	88.86	83.25	78.56	76.45	78.04	78.75	78.27	79.02	82.82	83.91	82.60	86.76	87.92	90.32	88.22	83.60	78.13	71.02	65.18	59.07	53.70	47.80	42.64	41.14	44.57	40.68	27.79	19.29	15.91	13.30	10.85	9.296	7.987	6.878	6.886	14.10	52.99	173.4	456.4	1380	870.2	19.58	1.978	1.620	1.307	1.375	1.020	1.351	1.159	1.099	1.179	1.035	1.232	1.098	1.089	0.837	1.129	0.874	0.951	0.948	0.961
500.0	37.03	62.13	115.0	127.3	213.1	1404	2574	289.6	168.4	170.7	171.0	153.6	140.4	124.9	108.7	92.59	81.35	77.81	71.93	70.05	69.86	71.59	71.22	72.74	74.29	74.21	76.09	77.74	80.56	81.94	80.00	76.10	71.14	64.85	60.63	55.26	49.63	45.48	39.47	36.79	36.99	41.08	32.00	20.56	16.22	13.79	11.59	9.622	8.395	6.963	6.139	7.235	15.65	42.36	108.7	615.9	1524	229.2	12.72	1.688	1.428	1.162	1.151	1.216	1.125	1.108	1.117	0.923	1.147	1.011	1.032	0.914	1.139	0.866	0.973	1.060	0.992
505.0	38.92	56.87	116.9	125.5	143.9	566.4	2896	916.0	157.4	158.9	153.2	142.5	132.4	116.2	100.7	84.34	73.91	69.76	64.82	63.07	64.10	64.76	64.67	65.94	68.08	68.11	68.68	71.28	73.71	75.09	73.02	69.73	65.56	59.83	56.40	51.23	46.45	41.97	37.22	33.55	31.27	35.38	34.76	23.84	16.41	14.01	11.93	9.776	8.731	7.520	6.547	6.086	7.658	13.25	27.84	151.0	843.4	1285	195.1	5.061	1.581	1.427	1.293	1.210	1.095	1.160	1.064	1.088	1.114	1.047	1.017	1.026	1.005	0.891	0.971	0.909	1.002
510.0	31.80	44.74	99.38	147.1	121.2	227.8	1570	2414	245.6	145.0	138.4	127.7	116.3	101.2	88.51	73.75	65.71	60.91	57.64	55.88	55.80	55.82	57.15	57.16	58.86	59.51	59.43	62.53	64.05	64.89	64.65	60.34	57.46	52.84	49.46	45.01	40.57	36.98	34.08	30.26	27.24	27.31	30.08	28.08	19.49	14.03	11.87	9.977	8.739	7.640	7.279	6.205	5.971	7.072	9.692	37.10	206.3	662.9	980.4	418.8	13.08	1.631	1.219	1.189	1.150	1.045	1.002	0.975	0.929	1.049	0.925	0.881	0.889	0.858	0.913	0.903	0.952
515.0	35.41	40.10	73.18	151.8	127.5	136.0	475.5	2519	1416	135.7	120.5	118.0	102.6	89.73	76.37	62.86	57.92	52.79	49.41	49.10	48.75	47.13	48.07	48.52	50.55	49.94	50.92	53.99	55.02	56.07	56.15	52.26	49.27	46.68	42.68	39.51	36.12	32.58	29.66	26.77	24.50	22.80	22.89	25.77	23.16	15.81	11.54	9.682	8.490	7.754	7.249	6.566	5.631	5.541	5.647	11.29	48.79	150.8	361.0	1003	239.0	16.76	1.430	1.202	0.909	1.079	0.919	0.848	0.906	0.835	0.868	0.906	0.918	0.746	0.755	0.863	0.817
520.0	28.97	36.01	53.77	136.5	141.5	101.4	187.8	1460	2498	219.9	112.9	103.3	92.00	80.38	67.56	58.67	51.12	48.03	44.55	42.75	43.40	42.51	43.28	43.58	44.00	44.93	45.80	47.19	47.97	49.12	48.84	46.20	43.72	41.29	38.54	34.62	31.97	30.42	26.77	24.66	22.39	20.22	19.22	20.61	23.85	19.31	12.10	9.362	8.632	7.687	6.923	6.570	6.159	5.021	4.731	5.426	13.74	36.19	85.63	475.1	969.1	209.7	8.456	1.292	1.022	1.056	0.860	0.811	0.884	0.826	0.844	0.882	0.817	0.717	0.740	0.843	0.863
525.0	30.67	29.09	49.97	106.1	163.9	97.81	117.1	546.7	3067	881.0	103.6	90.67	82.95	72.71	62.85	51.07	45.01	42.60	40.24	38.58	37.95	37.75	38.75	39.36	39.38	40.08	40.49	41.69	42.09	44.93	44.77	40.86	39.41	36.08	34.36	31.69	29.43	27.28	24.59	22.49	20.55	18.78	17.05	16.66	20.83	20.99	13.83	9.586	8.419	7.226	6.572	6.199	5.940	5.138	4.393	4.297	5.748	10.31	21.27	117.8	582.5	875.9	159.8	2.824	1.188	1.044	0.828	0.835	0.858	0.763	0.858	0.693	0.819	0.818	0.778	0.768	0.695
530.0	26.08	30.92	43.87	70.39	144.6	120.1	89.37	192.7	1649	2497	182.4	83.51	74.27	62.00	54.12	44.61	39.58	36.26	35.39	34.44	32.88	33.20	33.60	34.08	34.23	34.57	35.68	36.17	37.10	38.76	38.18	36.01	33.73	32.53	29.84	28.04	25.46	23.70	22.24	19.83	18.11	16.63	15.22	14.35	15.23	17.99	16.82	11.12	8.336	7.003	6.353	5.859	5.631	5.218	4.668	3.953	3.869	4.385	6.662	28.01	144.1	470.8	680.0	268.8	10.28	1.128	0.935	0.830	0.832	0.778	0.784	0.721	0.739	0.739	0.830	0.845	0.734
535.0	37.96	33.90	35.45	54.21	101.0	153.8	83.21	101.9	469.3	2729	1413	76.50	62.48	53.84	46.48	38.54	33.04	30.71	32.06	29.10	27.13	28.18	28.65	28.56	29.19	30.04	29.56	30.58	32.34	32.89	32.33	30.64	28.78	27.60	25.20	24.15	21.76	20.22	18.94	17.46	16.27	15.10	13.31	12.66	11.93	13.15	15.45	13.52	8.932	6.551	5.851	5.258	5.108	4.792	4.675	3.780	3.436	3.047	3.302	7.929	33.47	107.1	264.3	705.4	224.8	10.86	1.045	0.804	0.909	0.795	0.798	0.693	0.679	0.791	0.701	0.966	0.668
540.0	37.38	33.40	37.39	53.69	66.11	151.7	96.43	76.33	164.6	1509	2859	158.2	57.64	50.05	40.79	35.46	29.54	27.83	27.94	25.30	24.07	24.80	25.63	24.59	25.88	26.54	26.63	26.59	28.42	29.12	28.50	28.00	25.71	24.22	22.38	20.79	19.87	18.12	16.74	16.00	14.88	13.75	12.30	11.30	10.75	10.69	12.35	13.98	10.29	7.037	5.577	5.179	4.750	4.368	4.160	3.961	3.317	2.571	2.502	3.411	8.864	25.30	62.87	353.1	683.2	171.7	4.179	0.945	0.793	0.810	0.751	0.681	0.616	0.801	0.615	0.721	0.608
545.0	31.51	32.84	36.61	44.69	53.83	116.8	120.8	68.27	89.24	534.1	3257	798.7	56.21	45.47	38.29	31.31	27.53	25.31	24.98	22.45	22.74	21.99	22.23	22.16	22.78	23.59	24.31	24.52	25.50	26.36	24.80	24.65	22.87	21.44	20.11	18.83	17.77	16.69	15.11	14.27	13.44	12.06	10.93	10.19	9.679	8.972	9.723	12.15	11.56	7.573	5.214	4.801	4.422	4.101	3.590	3.790	3.549	2.734	2.284	2.188	3.545	6.986	15.37	89.10	438.0	602.0	30.44	1.733	0.939	0.799	0.777	0.728	0.640	0.743	0.603	0.663	0.713
550.0	28.86	27.90	32.84	38.34	41.86	75.86	137.0	75.00	63.32	170.5	1646	2284	136.7	39.49	32.56	27.56	24.80	21.78	21.20	20.26	19.60	19.68	19.89	19.68	19.94	20.31	20.24	21.19	21.40	22.00	21.37	21.23	20.21	18.75	17.32	16.20	15.13	14.40	13.36	12.37	11.68	10.81	9.747	9.156	8.648	8.105	7.572	8.714	10.71	8.861	6.102	4.629	4.041	3.772	3.466	3.227	3.066	2.850	2.234	1.985	2.095	2.891	4.557	21.15	110.3	350.1	457.6	129.1	8.262	0.932	0.755	0.720	0.518	0.687	0.671	0.673	0.646
555.0	31.66	26.62	29.31	34.56	37.01	48.98	110.1	103.3	53.77	77.88	444.2	2497	1273	42.18	28.70	22.95	21.49	19.24	17.90	17.36	16.80	16.82	17.00	16.24	16.95	17.02	17.50	17.61	17.55	18.25	18.29	18.13	17.51	15.79	14.57	13.73	12.73	12.01	11.13	10.47	10.15	9.109	8.708	8.018	7.563	7.039	6.555	6.584	7.602	8.857	7.367	5.324	3.735	3.462	3.307	2.945	2.529	2.808	2.484	1.903	1.723	1.777	2.181	5.740	25.76	79.81	193.8	490.9	193.3	6.166	0.805	0.723	0.719	0.704	0.776	0.646	0.667
560.0	27.82	28.60	28.55	31.48	32.18	37.32	74.77	128.2	52.92	53.56	137.1	1323	2629	117.8	24.79	20.53	19.18	17.46	15.62	14.65	15.27	14.23	14.67	14.66	15.19	14.50	14.90	15.01	15.85	16.27	16.46	15.35	15.00	13.43	12.65	12.02	10.75	10.49	9.678	9.058	8.981	8.139	7.803	7.024	6.528	6.370	6.007	5.498	5.673	7.226	7.601	5.301	3.769	3.233	3.073	2.660	2.378	2.304	2.371	2.055	1.615	1.450	1.489	2.198	6.880	18.80	46.95	265.8	478.4	32.70	1.998	0.803	0.611	0.596	0.732	0.672	0.619
565.0	25.82	23.68	29.88	30.80	29.39	32.27	51.08	124.3	67.32	46.87	68.21	444.7	2761	746.0	24.16	18.54	17.25	16.27	13.59	13.98	12.65	12.67	12.44	13.40	13.26	12.58	12.96	13.48	13.74	13.92	14.27	13.53	12.81	12.19	10.93	10.81	9.765	9.016	8.421	7.983	7.749	7.067	6.736	6.256	5.699	5.685	5.138	4.976	4.571	5.483	6.760	5.859	3.955	3.115	2.680	2.318	2.183	2.116	2.004	2.063	1.723	1.492	1.244	1.445	2.523	5.177	11.70	68.72	314.4	372.2	26.87	0.968	0.638	0.549	0.537	0.577	0.559
570.0	28.98	28.07	29.96	27.75	25.85	29.11	32.52	83.47	103.3	44.66	47.36	131.8	1249	2144	92.93	16.23	14.28	13.10	11.35	11.62	11.08	10.57	9.953	10.77	10.75	10.50	10.68	11.11	10.99	11.60	11.17	11.09	10.55	9.895	9.097	8.801	8.105	7.629	6.764	6.813	6.279	5.914	5.523	5.396	4.859	4.677	4.305	4.115	3.776	3.828	4.558	5.368	4.588	3.219	2.400	2.098	1.898	1.900	1.650	1.782	1.943	1.517	1.230	1.234	1.439	2.083	3.589	16.31	80.73	236.8	267.0	92.55	3.131	0.747	0.631	0.615	0.641
575.0	29.15	26.29	27.23	24.15	22.14	26.22	24.36	46.74	116.6	61.77	38.37	56.90	317.6	1946	983.1	20.03	12.08	11.13	9.736	9.078	8.908	8.792	8.569	8.633	8.720	8.302	8.625	9.207	8.416	8.839	8.862	8.475	8.067	7.733	7.201	6.535	6.071	6.353	5.646	5.522	5.174	4.709	4.652	4.479	4.092	3.765	3.589	3.207	3.134	2.943	2.978	3.855	4.501	3.696	2.350	1.956	1.639	1.622	1.505	1.648	1.588	1.773	1.462	1.202	1.118	1.224	1.769	4.418	18.84	54.29	123.6	298.2	32.30	1.695	0.672	0.572	0.621
580.0	31.58	28.08	22.76	23.97	20.62	23.77	22.08	33.17	92.92	87.69	38.88	40.19	97.22	895.1	2119	77.97	10.93	9.472	8.639	7.488	7.256	7.508	7.081	7.433	6.604	7.371	7.047	7.427	7.111	7.284	7.145	7.176	6.601	6.525	6.392	5.638	5.385	5.471	4.907	4.486	4.221	4.187	3.788	3.615	3.456	3.310	3.073	2.768	2.686	2.548	2.302	2.628	3.610	3.591	2.486	1.804	1.564	1.504	1.214	1.397	1.270	1.677	1.500	1.277	1.050	0.979	1.124	1.728	4.981	12.87	30.47	172.8	236.9	24.11	0.977	0.670	0.541
585.0	24.95	25.85	28.29	27.29	19.54	21.09	23.79	26.44	63.50	113.6	41.50	35.13	47.43	275.7	2127	561.6	9.888	7.982	7.346	6.684	6.205	6.357	5.973	6.353	5.534	6.204	6.114	6.214	6.243	6.178	6.179	5.826	5.830	5.470	5.450	4.925	4.602	4.466	4.076	3.650	3.812	3.459	3.318	3.127	2.813	2.726	2.483	2.434	2.293	2.001	1.881	2.137	2.622	3.296	2.657	1.776	1.435	1.343	1.072	1.110	1.192	1.280	1.420	1.402	0.886	0.937	1.051	1.092	1.753	3.681	7.527	46.82	196.4	168.3	15.97	0.728	0.548
590.0	29.59	23.28	26.90	23.65	18.81	19.59	20.95	22.32	37.43	96.77	65.57	35.64	33.95	80.44	899.4	1582	57.15	7.360	6.520	5.883	5.397	5.451	5.081	4.964	4.997	5.178	4.886	5.092	5.079	5.131	5.115	4.875	4.751	4.540	4.198	3.876	3.754	3.617	3.472	3.044	3.070	2.738	2.582	2.504	2.455	2.352	2.121	1.956	2.030	1.687	1.500	1.564	1.787	2.224	2.516	2.065	1.595	1.146	1.085	1.055	0.955	1.009	1.086	1.459	1.087	0.885	1.000	0.896	0.996	1.440	2.260	11.03	54.17	140.0	143.1	19.11	1.343
595.0	30.56	26.87	27.04	23.28	17.53	18.42	18.15	19.98	26.15	60.16	97.32	38.14	32.02	35.05	223.3	1400	676.1	8.068	5.466	4.855	4.581	4.380	4.457	3.956	4.086	4.033	3.860	3.920	4.336	4.071	4.192	4.084	3.851	3.649	3.332	3.176	3.000	2.848	2.829	2.445	2.487	2.183	2.087	2.255	2.080	1.867	1.739	1.602	1.622	1.357	1.395	1.329	1.445	1.549	2.055	2.166	1.666	1.149	0.948	0.960	0.880	0.882	0.896	1.081	1.301	1.145	0.899	0.873	0.897	0.893	1.091	3.000	12.55	32.99	83.95	150.7	26.80
600.0	25.19	23.46	23.84	20.85	15.65	19.84	17.25	19.44	24.84	41.70	95.92	50.54	31.10	24.96	61.39	626.5	1433	42.05	5.157	4.517	4.114	4.042	3.856	3.828	3.564	3.561	3.550	3.367	3.465	3.685	3.700	3.383	3.214	3.107	2.770	2.548	2.347	2.520	2.159	2.158	2.212	1.827	1.892	1.790	1.628	1.580	1.459	1.369	1.406	1.273	1.120	1.224	1.189	1.228	1.592	1.852	1.627	1.310	1.021	1.002	0.801	0.830	0.904	0.883	1.087	1.197	0.910	0.756	0.807	0.822	0.823	1.275	3.367	7.959	22.23	106.9	124.6
605.0	25.96	20.26	24.87	19.52	14.14	18.10	16.24	18.70	23.56	31.62	79.79	71.78	29.99	22.99	25.08	184.9	1498	327.7	4.964	3.898	3.879	3.884	3.351	3.399	3.230	3.160	3.221	2.852	3.058	3.344	3.314	2.694	2.756	2.619	2.311	2.396	2.193	2.208	2.033	2.010	1.944	1.643	1.667	1.559	1.357	1.546	1.342	1.225	1.271	1.040	1.052	1.196	1.117	1.049	1.261	1.540	1.614	1.478	1.063	0.927	0.775	0.780	0.744	0.911	0.896	1.038	1.126	0.808	0.733	0.723	0.786	0.770	1.292	2.323	5.404	31.39	111.9
610.0	26.25	23.60	23.03	18.36	15.31	16.38	16.28	18.56	21.75	26.47	50.37	87.89	39.86	22.81	17.41	50.07	661.1	975.8	37.78	3.993	3.485	3.216	3.003	2.857	2.817	2.768	2.679	2.694	2.693	2.660	2.650	2.544	2.352	2.231	2.220	2.029	1.931	1.838	1.738	1.642	1.615	1.566	1.449	1.472	1.305	1.359	1.166	1.083	1.109	0.957	0.875	0.974	0.934	0.927	0.926	1.031	1.403	1.391	1.132	0.888	0.763	0.736	0.796	0.843	0.790	0.820	1.139	1.023	0.794	0.738	0.777	0.702	0.878	1.085	1.643	7.453	31.60
615.0	22.13	21.61	18.33	18.77	14.60	14.08	16.13	18.62	21.59	25.41	36.56	74.75	62.36	22.57	16.17	19.28	161.2	998.7	479.5	4.815	3.408	2.722	2.831	2.497	2.367	2.390	2.410	2.341	2.456	2.225	2.382	2.102	1.999	2.164	2.063	1.900	1.555	1.535	1.408	1.289	1.354	1.175	1.321	1.181	1.253	1.123	1.040	1.018	0.857	0.937	0.802	0.873	0.764	0.837	0.775	0.824	1.094	1.250	1.294	1.034	0.784	0.795	0.733	0.795	0.712	0.763	0.839	1.069	0.846	0.665	0.786	0.792	0.682	0.752	0.777	2.136	7.480
620.0	25.27	19.49	19.33	18.87	14.89	14.20	16.56	18.55	20.33	26.13	31.66	56.02	75.86	26.42	15.51	12.56	42.45	488.1	1004	23.84	3.149	2.789	2.691	2.231	2.277	2.477	2.100	2.047	2.184	2.111	2.007	2.021	1.913	1.798	1.749	1.641	1.460	1.527	1.512	1.071	1.169	1.120	1.250	1.077	1.028	1.154	0.946	0.908	0.725	0.862	0.730	0.703	0.644	0.790	0.794	0.805	0.796	1.003	1.244	1.030	0.800	0.783	0.672	0.663	0.743	0.774	0.774	0.735	0.907	0.784	0.644	0.619	0.644	0.602	0.673	0.972	2.187
625.0	25.89	21.58	23.44	19.52	15.52	14.30	14.83	17.63	21.28	25.95	30.13	41.09	76.51	35.99	16.90	11.66	16.37	144.8	1119	78.26	3.249	2.735	2.559	2.385	2.064	2.021	2.018	1.960	1.996	1.849	1.908	1.716	1.697	1.674	1.549	1.570	1.443	1.386	1.271	1.174	1.047	1.129	0.988	1.027	0.890	0.950	0.832	0.801	0.798	0.785	0.685	0.704	0.681	0.741	0.621	0.702	0.682	0.767	1.222	1.006	0.711	0.700	0.651	0.753	0.695	0.748	0.672	0.721	0.872	0.938	0.695	0.731	0.649	0.666	0.528	0.718	0.962
630.0	27.02	26.53	25.94	19.97	14.96	15.51	15.83	16.74	21.72	26.74	32.06	34.16	58.12	53.67	19.49	12.31	10.39	38.55	537.3	707.8	25.99	2.632	2.331	2.247	1.978	1.807	1.744	1.658	1.782	1.772	1.847	1.767	1.649	1.522	1.362	1.386	1.270	1.212	1.203	1.020	1.083	0.935	0.860	0.921	0.845	0.807	0.834	0.782	0.676	0.694	0.670	0.648	0.695	0.663	0.620	0.644	0.681	0.686	0.816	0.935	0.842	0.805	0.623	0.670	0.718	0.647	0.658	0.679	0.737	0.789	0.885	0.683	0.640	0.602	0.516	0.624	0.676
635.0	28.85	31.22	29.33	22.99	16.76	14.70	16.48	18.91	23.50	28.41	34.09	37.37	45.75	64.80	31.51	15.10	10.15	14.75	130.7	811.2	306.2	3.223	2.115	2.150	1.886	1.775	1.707	1.608	1.801	1.657	1.529	1.584	1.443	1.342	1.306	1.167	1.201	1.012	1.017	0.951	0.876	0.861	0.843	0.709	0.702	0.608	0.717	0.783	0.737	0.636	0.611	0.656	0.593	0.604	0.559	0.548	0.632	0.791	0.691	0.805	0.913	0.835	0.650	0.605	0.614	0.672	0.811	0.606	0.750	0.647	0.851	0.852	0.561	0.609	0.536	0.489	0.568
640.0	26.59	33.76	33.44	22.39	15.91	15.32	16.88	19.88	25.46	31.71	38.20	40.60	42.84	61.80	47.54	18.68	12.17	9.359	34.67	431.8	605.9	12.18	2.392	1.838	1.674	1.729	1.556	1.197	1.568	1.398	1.637	1.450	1.397	1.255	1.175	1.098	1.164	0.895	0.850	0.942	0.787	0.771	0.761	0.719	0.667	0.554	0.715	0.707	0.678	0.604	0.506	0.545	0.617	0.583	0.597	0.625	0.641	0.662	0.583	0.668	0.822	0.867	0.712	0.660	0.653	0.634	0.737	0.582	0.702	0.703	0.922	0.879	0.702	0.670	0.468	0.501	0.545
645.0	31.47	42.69	51.67	31.12	19.49	20.50	19.66	25.82	34.00	42.76	50.31	54.43	51.01	62.99	64.44	25.94	15.18	10.93	14.45	133.2	853.0	62.10	2.525	1.890	1.620	1.788	1.570	1.209	1.628	1.430	1.478	1.269	1.234	1.192	1.263	1.030	1.056	0.827	0.908	0.826	0.713	0.709	0.807	0.719	0.690	0.706	0.691	0.761	0.635	0.641	0.494	0.506	0.545	0.527	0.545	0.597	0.682	0.737	0.687	0.662	0.736	0.837	0.799	0.799	0.813	0.639	0.765	0.687	0.636	0.798	0.809	0.803	0.926	0.719	0.678	0.584	0.545
650.0	36.47	57.34	83.59	50.55	25.05	23.75	27.06	36.09	42.16	53.98	64.97	69.55	69.63	68.53	77.11	38.56	20.20	12.80	11.04	38.09	609.9	396.5	3.696	2.001	1.670	1.602	1.500	1.381	1.489	1.352	1.314	1.328	1.174	1.198	1.164	0.886	0.843	0.819	0.894	0.742	0.728	0.737	0.776	0.655	0.711	0.772	0.692	0.737	0.713	0.702	0.547	0.719	0.647	0.559	0.636	0.525	0.609	0.593	0.691	0.569	0.705	0.680	0.887	1.038	0.796	0.654	0.685	0.757	0.812	0.851	0.824	0.714	0.898	0.732	0.786	0.588	0.535
