Sample:	'1
File name:	T2025041713 —¶πŸ¥Â«≈.FD3
Run date:	'11:21:30, 04/21/2025
Operator:	Administrator
Comment:	'

Instrument
Model:	F-2700 FL Spectrophotometer
Serial number:	23B8-004
ROM Version:	4J14000 07

Instrument parameters
Measurement type:	3-D scan
Data mode:	Fluorescence
EX  Start WL:	220.0 nm
EX  End WL:	600.0 nm
EX Sampling interval:	5.0 nm
EM  Start WL:	230.0 nm
EM  End WL:	650.0 nm
EM Sampling interval:	5.0 nm
Scan speed:	12000 nm/min
EX Slit:	5.0 nm
EM Slit:	5.0 nm
PMT Voltage:	700 V
Response:	Auto 
Corrected spectra:	Off
Contour interval:	50.000

Peak integration
Integration method:	Rectangular
Sensitivity:	1
Threshold:	1.000

Peaks
No.	ApexEX/EM(nm)	Height(Data)
1	225.0/570.0	54.00
2	225.0/585.0	51.33
3	225.0/645.0	37.84
4	230.0/340.0	816.0
5	230.0/500.0	278.3
6	235.0/375.0	616.5
7	235.0/400.0	603.7
8	235.0/510.0	256.2
9	240.0/405.0	596.3
10	240.0/520.0	219.4
11	245.0/270.0	361.2
12	245.0/535.0	188.5
13	250.0/275.0	445.6
14	250.0/550.0	151.3
15	255.0/280.0	566.5
16	255.0/560.0	125.9
17	260.0/285.0	543.1
18	260.0/405.0	501.5
19	260.0/425.0	504.1
20	260.0/575.0	105.8
21	265.0/290.0	589.3
22	265.0/415.0	501.9
23	265.0/585.0	103.3
24	270.0/300.0	867.3
25	270.0/595.0	85.89
26	275.0/305.0	999.7
27	275.0/335.0	577.5
28	275.0/610.0	75.37
29	280.0/310.0	879.6
30	280.0/340.0	577.9
31	280.0/620.0	62.69
32	285.0/315.0	809.6
33	285.0/635.0	48.59
34	290.0/325.0	710.3
35	295.0/330.0	550.2
36	300.0/335.0	505.8
37	305.0/345.0	431.8
38	310.0/350.0	358.7
39	315.0/355.0	343.4
40	320.0/360.0	331.6
41	325.0/370.0	304.7
42	330.0/375.0	298.3
43	335.0/380.0	297.6
44	340.0/390.0	266.2
45	345.0/395.0	254.4
46	350.0/400.0	254.1
47	360.0/415.0	216.8
48	365.0/420.0	210.0
49	415.0/485.0	44.62
50	430.0/505.0	27.76
51	440.0/520.0	19.67
52	445.0/525.0	16.90
53	460.0/340.0	2.588
54	505.0/275.0	3.117
55	515.0/280.0	3.530
56	520.0/285.0	3.537
57	530.0/290.0	3.559
58	540.0/295.0	4.863
59	545.0/300.0	5.175
60	550.0/305.0	4.916
61	565.0/310.0	4.685
62	570.0/315.0	4.864
63	580.0/320.0	4.323
64	585.0/325.0	4.468

Data points
	220.0	225.0	230.0	235.0	240.0	245.0	250.0	255.0	260.0	265.0	270.0	275.0	280.0	285.0	290.0	295.0	300.0	305.0	310.0	315.0	320.0	325.0	330.0	335.0	340.0	345.0	350.0	355.0	360.0	365.0	370.0	375.0	380.0	385.0	390.0	395.0	400.0	405.0	410.0	415.0	420.0	425.0	430.0	435.0	440.0	445.0	450.0	455.0	460.0	465.0	470.0	475.0	480.0	485.0	490.0	495.0	500.0	505.0	510.0	515.0	520.0	525.0	530.0	535.0	540.0	545.0	550.0	555.0	560.0	565.0	570.0	575.0	580.0	585.0	590.0	595.0	600.0
230.0	55.56	1044	3597	2025	175.5	9.635	7.696	7.254	5.313	5.225	4.577	4.277	3.715	3.223	2.801	2.092	1.829	1.635	1.396	1.197	1.090	1.008	0.910	0.883	0.856	0.843	0.717	0.613	0.649	0.661	0.644	0.482	0.497	0.453	0.478	0.447	0.400	0.409	0.371	0.371	0.396	0.492	0.495	0.447	0.365	0.326	1.159	5.304	13.37	16.41	11.18	3.060	0.495	0.267	0.292	0.249	0.336	0.277	0.258	0.257	0.267	0.246	0.249	0.252	0.258	0.258	0.271	0.244	0.259	0.248	0.261	0.276	0.247	0.242	0.235	0.264	0.259
235.0	115.2	305.3	1901	4005	2900	288.5	11.51	7.065	5.699	5.733	5.343	5.060	3.870	3.623	2.796	2.369	1.958	1.624	1.633	1.438	1.045	0.963	0.948	0.842	0.855	0.861	0.709	0.639	0.710	0.710	0.648	0.522	0.570	0.491	0.477	0.424	0.442	0.390	0.445	0.370	0.382	0.370	0.462	0.507	0.555	0.395	0.537	1.620	4.431	9.940	17.83	25.17	19.99	7.139	0.669	0.277	0.309	0.317	0.293	0.249	0.234	0.276	0.253	0.293	0.287	0.232	0.204	0.258	0.238	0.269	0.246	0.257	0.329	0.263	0.263	0.241	0.235
240.0	166.2	183.6	542.7	2643	5368	3071	186.1	10.43	7.200	6.450	6.756	5.197	4.653	3.779	2.852	2.233	1.878	1.826	1.515	1.391	1.214	1.212	1.102	0.966	0.869	0.824	0.680	0.689	0.736	0.610	0.650	0.584	0.556	0.449	0.463	0.507	0.407	0.447	0.469	0.373	0.400	0.400	0.427	0.387	0.553	0.713	0.632	0.718	1.250	2.767	7.295	21.23	38.77	27.65	18.62	4.442	0.376	0.358	0.288	0.304	0.271	0.309	0.286	0.297	0.263	0.257	0.246	0.252	0.241	0.267	0.277	0.266	0.307	0.287	0.298	0.255	0.240
245.0	117.8	229.4	217.4	803.9	3953	6853	2457	92.15	9.651	8.939	7.341	6.733	4.558	4.020	3.513	2.193	2.199	1.934	1.477	1.412	1.192	1.437	1.092	0.822	0.944	0.869	0.779	0.802	0.693	0.670	0.641	0.569	0.467	0.545	0.480	0.471	0.473	0.448	0.423	0.389	0.476	0.395	0.404	0.389	0.437	0.626	0.933	0.788	0.639	0.888	1.911	6.232	18.39	36.39	56.72	26.89	15.08	2.053	0.336	0.388	0.318	0.322	0.330	0.325	0.288	0.236	0.258	0.251	0.282	0.256	0.265	0.257	0.277	0.238	0.242	0.223	0.250
250.0	59.12	151.8	270.2	300.9	1111	3976	7329	5044	153.6	14.74	10.17	7.724	5.851	4.884	3.854	2.627	2.333	1.831	1.499	1.470	1.433	1.216	1.061	0.925	0.923	0.862	0.870	0.756	0.711	0.736	0.646	0.659	0.628	0.594	0.506	0.473	0.470	0.499	0.435	0.461	0.458	0.425	0.391	0.378	0.421	0.414	0.591	0.746	1.009	0.950	0.964	1.769	4.512	10.08	23.49	35.53	56.75	50.82	39.91	10.59	1.869	0.388	0.317	0.336	0.288	0.278	0.298	0.296	0.295	0.288	0.282	0.286	0.251	0.308	0.268	0.256	0.326
255.0	36.87	60.14	161.3	350.1	375.3	949.8	3215	9900	7914	201.2	16.39	10.99	7.688	6.188	4.534	3.482	2.700	2.165	1.912	1.529	1.503	1.311	1.115	1.012	0.945	0.840	0.909	0.865	0.875	0.754	0.717	0.663	0.697	0.589	0.553	0.505	0.493	0.424	0.423	0.443	0.510	0.447	0.477	0.398	0.416	0.407	0.399	0.422	0.480	0.862	1.266	1.525	1.610	2.592	5.611	8.458	15.82	32.28	72.49	91.57	28.94	14.57	1.085	0.377	0.374	0.332	0.362	0.323	0.294	0.289	0.336	0.323	0.302	0.326	0.260	0.287	0.307
260.0	43.16	37.88	63.41	256.2	361.1	295.9	846.6	5090	9999.9	6719	133.3	14.77	10.39	7.319	5.566	3.777	3.341	2.405	1.992	1.854	1.766	1.419	1.137	1.205	1.050	1.021	1.016	1.029	0.964	0.892	0.949	0.784	0.631	0.558	0.595	0.454	0.437	0.446	0.467	0.460	0.487	0.468	0.461	0.347	0.426	0.421	0.389	0.401	0.435	0.463	0.723	1.571	1.958	1.640	1.671	2.264	3.930	8.038	24.11	59.12	93.74	96.41	24.80	7.807	0.627	0.435	0.377	0.400	0.293	0.328	0.289	0.299	0.313	0.265	0.318	0.300	0.288
265.0	40.87	34.88	37.25	110.9	371.2	294.4	238.6	1414	7379	9999.9	1702	69.91	13.88	9.155	6.390	4.809	3.521	2.917	2.276	2.081	2.087	1.520	1.333	1.265	1.126	1.135	0.975	0.939	0.902	0.825	0.978	0.865	0.798	0.543	0.630	0.510	0.542	0.576	0.547	0.441	0.390	0.529	0.445	0.382	0.497	0.401	0.356	0.374	0.362	0.332	0.382	0.852	1.576	2.169	1.682	1.167	1.281	2.197	5.822	15.14	38.97	88.58	114.7	86.83	18.65	2.390	0.429	0.479	0.386	0.373	0.338	0.300	0.381	0.341	0.316	0.326	0.307
270.0	56.39	46.39	41.58	47.88	159.4	361.2	320.2	384.2	1987	7262	9999.9	6045	94.08	15.59	9.339	6.053	4.349	3.638	2.881	2.216	1.981	1.815	1.520	1.458	1.221	1.189	1.050	1.039	0.910	0.863	0.904	0.830	0.804	0.665	0.702	0.573	0.589	0.595	0.530	0.513	0.452	0.497	0.509	0.457	0.520	0.431	0.397	0.406	0.390	0.364	0.381	0.450	0.684	1.126	1.552	2.101	2.141	1.528	1.807	3.781	9.352	22.90	44.94	76.59	96.48	76.12	57.41	11.68	2.365	0.520	0.362	0.366	0.434	0.372	0.366	0.330	0.370
275.0	94.25	90.88	73.61	54.68	63.70	148.4	445.6	374.1	504.3	1712	5046	9999.9	7905	113.1	14.39	8.419	5.967	4.520	3.335	2.940	2.442	2.152	1.839	1.417	1.217	1.358	1.110	1.236	1.032	0.993	1.161	0.856	0.770	0.909	0.778	0.740	0.586	0.599	0.581	0.628	0.535	0.452	0.524	0.565	0.487	0.629	0.638	0.514	0.495	0.450	0.358	0.448	0.493	0.526	0.723	0.998	1.954	3.117	2.618	1.854	2.532	5.573	10.51	17.75	25.27	47.13	108.5	129.2	31.24	15.55	1.248	0.477	0.511	0.422	0.408	0.439	0.324
280.0	136.1	147.8	117.5	80.36	52.66	69.84	248.1	566.5	300.0	450.8	1307	7803	9999.9	5186	71.13	12.03	8.039	5.710	4.140	3.193	2.915	2.171	1.980	1.569	1.512	1.391	1.248	1.159	1.086	0.995	1.016	0.891	0.919	0.802	0.903	0.816	0.771	0.683	0.632	0.623	0.591	0.536	0.623	0.625	0.623	0.677	0.650	0.825	0.578	0.542	0.529	0.469	0.502	0.482	0.495	0.534	0.906	1.846	3.174	3.530	2.084	1.757	2.899	4.543	6.354	11.52	33.81	81.19	123.5	120.0	26.63	7.714	0.797	0.612	0.423	0.493	0.410
285.0	197.2	209.4	174.7	107.5	64.02	56.96	109.0	421.0	543.1	243.6	386.1	2130	9999.9	9999.9	884.9	35.50	11.16	7.107	4.868	3.683	3.179	2.278	2.275	1.813	1.565	1.435	1.330	1.259	1.202	1.071	0.899	1.026	0.911	0.963	0.870	0.884	0.783	0.811	0.643	0.660	0.686	0.651	0.637	0.641	0.707	0.733	0.780	0.854	0.817	0.699	0.612	0.558	0.503	0.492	0.490	0.504	0.607	0.913	1.631	3.239	3.537	2.567	1.578	1.711	2.048	3.317	8.346	20.14	48.60	105.5	131.4	92.94	19.75	2.959	0.602	0.522	0.514
290.0	246.1	293.2	250.8	155.6	88.59	73.56	83.37	187.0	486.2	589.3	262.5	627.2	2766	9701	9999.9	3245	49.81	10.46	6.389	4.675	3.549	2.882	2.457	2.088	1.880	1.653	1.495	1.352	1.260	1.271	1.093	0.993	0.997	1.073	0.982	1.018	0.948	0.923	0.846	0.716	0.754	0.751	0.728	0.750	0.798	0.856	0.905	1.047	1.051	0.894	0.698	0.690	0.567	0.581	0.506	0.542	0.639	0.699	0.914	1.465	2.061	3.017	3.559	3.019	1.960	1.756	2.822	5.371	11.85	26.57	49.05	77.03	95.63	74.84	56.78	13.12	2.836
295.0	300.2	355.8	323.4	211.9	120.5	92.37	102.5	137.7	244.3	575.3	726.6	412.9	808.3	2324	5790	9999.9	4157	57.62	9.179	6.269	4.636	3.912	2.980	2.410	2.312	1.895	1.548	1.555	1.413	1.325	1.120	1.068	1.141	1.124	1.084	1.143	1.153	0.997	1.000	0.807	0.762	0.800	0.793	0.813	0.889	1.098	1.026	1.117	1.141	1.083	0.803	0.799	0.788	0.717	0.629	0.600	0.648	0.790	0.883	1.041	1.170	1.564	2.138	3.937	4.863	3.361	2.200	2.483	3.779	7.168	11.96	18.13	24.38	40.50	93.28	120.9	34.76
300.0	316.8	381.9	351.6	242.7	151.6	121.5	121.6	151.6	210.5	387.0	867.3	677.3	436.0	684.6	1510	7987	9999.9	646.2	32.52	8.404	5.927	4.464	3.417	2.910	2.257	1.930	1.635	1.794	1.289	1.310	1.125	1.173	1.042	1.187	1.169	1.101	1.130	1.168	0.971	0.917	0.814	0.884	0.947	0.815	0.895	1.162	1.005	1.201	1.221	0.985	0.981	0.941	0.895	0.885	0.724	0.740	0.781	0.839	0.906	1.186	1.171	1.193	1.617	2.261	3.713	5.175	4.425	2.731	2.427	2.903	3.862	5.134	6.392	10.12	27.58	66.90	107.1
305.0	334.8	399.8	388.5	265.0	179.8	148.4	161.0	191.4	249.8	352.4	644.9	999.7	546.6	377.3	482.9	2223	9999.9	9999.9	491.0	14.86	7.395	5.078	3.762	3.102	2.564	2.137	1.761	1.665	1.491	1.351	1.281	1.285	1.109	1.204	1.213	1.042	1.098	1.162	1.006	0.943	0.938	0.852	0.950	0.877	0.961	1.297	1.212	1.231	1.325	1.166	1.084	1.021	0.925	0.927	0.927	0.841	0.962	1.012	1.154	1.266	1.331	1.351	1.681	2.024	2.409	3.592	4.916	4.739	3.476	2.495	2.305	2.368	2.572	3.241	7.040	16.34	37.91
310.0	356.4	430.7	398.3	285.7	198.7	168.7	189.6	227.0	285.3	370.3	505.0	772.9	879.6	490.5	292.9	607.5	2776	7981	7515	1834	30.10	7.134	5.030	3.754	2.893	2.588	2.207	1.883	1.711	1.470	1.442	1.268	1.191	1.187	1.196	1.195	1.014	1.112	0.941	0.990	0.864	0.890	0.922	0.956	0.995	1.175	1.262	1.338	1.410	1.148	1.077	1.009	1.089	0.925	1.010	0.989	1.014	1.253	1.268	1.408	1.427	1.605	1.782	2.029	2.185	2.702	3.334	3.979	4.473	4.685	3.535	2.322	2.048	1.917	2.582	4.587	9.376
315.0	385.8	449.6	418.2	300.4	215.7	192.4	211.8	258.7	313.2	391.7	481.0	582.3	719.5	809.6	366.9	273.7	713.7	1879	4796	9999.9	2399	31.22	6.943	5.108	3.613	3.152	2.397	1.968	1.898	1.590	1.620	1.179	1.354	1.234	1.255	1.178	1.041	1.039	1.005	1.014	0.867	0.918	0.989	1.046	1.099	1.191	1.257	1.432	1.498	1.230	1.203	1.208	1.027	1.020	1.071	1.035	1.229	1.337	1.299	1.605	1.565	1.738	1.682	2.114	2.401	2.416	2.798	2.893	3.205	3.741	4.864	4.475	2.963	1.982	1.863	2.169	2.997
320.0	399.0	506.6	466.2	337.2	239.5	205.4	232.1	277.8	329.2	407.8	496.1	558.2	595.6	756.2	603.6	250.5	274.8	496.6	1265	6896	8896	447.9	16.23	6.884	4.770	3.648	2.770	2.177	1.968	1.743	1.597	1.421	1.388	1.262	1.088	1.160	1.203	1.273	0.981	0.959	0.964	0.884	0.896	0.949	1.074	1.293	1.411	1.675	1.525	1.333	1.195	1.074	1.167	1.046	1.176	1.031	1.260	1.477	1.468	1.588	1.677	1.922	1.810	2.148	2.360	2.290	2.417	2.797	2.726	2.842	3.359	4.203	4.323	3.444	2.085	1.713	1.721
325.0	421.3	589.5	566.8	400.2	265.3	224.2	241.3	288.6	339.2	428.9	508.4	564.9	563.6	584.1	710.3	396.1	203.6	204.4	341.6	1984	8113	3970	61.96	9.404	6.227	4.297	2.961	2.718	2.006	2.033	1.671	1.595	1.389	1.298	1.277	1.151	1.240	1.121	1.114	1.000	0.987	0.960	0.948	1.049	1.215	1.398	1.597	1.906	1.911	1.585	1.470	1.271	1.320	1.271	1.049	1.283	1.224	1.612	1.450	1.684	1.579	1.890	1.979	2.054	2.318	2.379	2.611	2.813	2.686	2.653	2.873	3.117	3.855	4.468	3.305	2.239	1.607
330.0	458.6	642.7	687.3	506.1	328.4	262.9	266.2	297.7	354.6	436.7	520.0	573.2	567.4	525.2	543.9	550.2	328.4	168.3	151.7	497.7	2328	5330	5424	1281	20.93	5.616	4.130	3.300	2.398	2.256	1.934	1.700	1.522	1.294	1.314	1.172	1.124	1.141	1.062	1.011	1.050	0.975	1.056	1.116	1.261	1.525	1.711	1.999	2.085	1.864	1.649	1.593	1.503	1.280	1.228	1.396	1.350	1.568	1.471	1.648	1.693	1.946	2.165	2.255	2.453	2.427	2.853	2.831	2.889	2.749	2.924	2.806	2.889	3.132	3.314	3.429	3.155
335.0	501.7	720.3	776.1	596.9	403.2	310.3	291.0	318.8	362.5	450.5	525.4	577.5	575.9	534.3	468.6	436.9	505.8	274.9	136.4	179.9	568.1	1278	4046	7557	422.0	20.40	5.779	3.965	2.891	2.687	1.999	1.861	1.673	1.457	1.394	1.289	1.101	0.988	1.068	1.035	0.934	0.919	1.108	1.098	1.183	1.779	1.816	2.124	2.355	2.179	1.874	1.804	1.739	1.436	1.307	1.376	1.470	1.589	1.547	1.712	1.680	1.998	2.086	2.223	2.391	2.428	2.792	2.850	3.045	2.693	2.800	2.766	2.740	2.713	2.675	2.537	3.299
340.0	531.5	725.1	816.0	647.7	440.1	336.3	312.5	318.5	370.2	450.6	525.7	572.7	577.9	541.4	457.5	384.2	432.4	422.8	184.6	127.0	186.0	328.0	1103	5722	6288	350.8	10.06	4.582	3.657	2.873	2.171	1.900	1.797	1.590	1.453	1.340	1.102	1.148	1.244	0.915	0.973	1.078	1.108	1.127	1.269	1.623	1.842	2.102	2.588	2.318	2.091	1.913	1.847	1.577	1.408	1.506	1.537	1.594	1.693	1.818	1.707	2.049	2.255	2.210	2.475	2.640	2.572	2.753	2.773	2.845	2.896	2.725	2.680	2.593	2.549	2.169	2.712
345.0	502.4	708.4	799.6	652.7	466.4	353.7	326.7	325.9	374.5	446.2	512.7	564.6	577.3	538.3	459.5	373.8	341.6	431.8	303.3	136.5	115.5	126.0	286.0	1731	6477	3268	50.53	6.528	4.155	3.578	2.575	1.990	1.942	1.575	1.433	1.336	1.093	1.217	1.216	1.058	0.920	1.011	1.013	1.256	1.324	1.571	1.685	2.181	2.287	2.185	2.014	2.161	1.787	1.686	1.412	1.380	1.542	1.485	1.757	1.694	1.896	2.105	2.136	2.341	2.420	2.615	2.600	2.934	2.843	2.800	2.720	2.827	2.784	2.560	2.375	2.446	2.397
350.0	493.3	680.7	767.3	665.1	495.1	372.8	341.9	344.8	378.7	437.4	498.6	543.9	551.8	524.5	457.4	379.1	321.4	323.5	358.7	255.5	130.8	100.5	116.2	427.2	1930	4269	4194	976.4	16.35	4.342	3.191	2.335	1.946	1.683	1.457	1.283	1.177	1.115	1.083	0.948	0.929	0.962	0.993	1.122	1.266	1.467	1.719	2.116	2.200	2.129	2.019	2.121	2.061	1.862	1.633	1.507	1.672	1.610	1.780	1.728	1.726	1.999	2.109	2.244	2.254	2.471	2.526	2.617	2.701	2.798	2.787	2.831	2.625	2.644	2.472	2.494	2.257
355.0	465.4	635.5	737.3	651.4	511.5	396.3	375.5	368.4	394.7	433.9	489.2	523.8	532.0	514.8	457.1	388.7	328.7	294.3	288.5	343.4	232.2	123.6	100.6	148.9	469.9	1033	3235	5593	375.5	16.04	4.040	2.924	2.426	1.619	1.502	1.370	1.243	1.037	1.071	0.926	0.975	0.867	1.028	1.033	1.126	1.451	1.648	2.042	2.124	1.989	1.968	2.117	1.969	1.907	1.675	1.683	1.742	1.679	1.818	1.849	1.892	1.948	2.144	2.230	2.024	2.420	2.492	2.429	2.614	2.478	2.904	2.749	2.570	2.618	2.525	2.494	2.357
360.0	431.2	602.9	715.1	648.3	531.2	440.3	394.6	374.5	403.4	443.6	489.9	513.2	516.5	497.3	454.0	392.9	345.1	305.1	269.2	299.1	331.6	181.3	114.3	102.1	154.6	266.4	895.6	4513	3222	300.5	7.158	3.526	2.516	2.088	1.616	1.409	1.323	1.104	0.980	0.989	0.977	0.883	0.978	0.947	1.076	1.291	1.505	1.921	2.129	1.905	1.936	2.158	2.043	2.010	1.926	1.760	1.790	1.839	1.775	1.860	2.007	1.870	2.003	2.092	2.272	2.312	2.445	2.541	2.480	2.729	2.916	2.691	2.393	2.741	2.452	2.500	2.342
365.0	417.4	584.5	688.6	624.8	542.4	453.6	414.4	387.2	403.6	444.5	478.5	504.3	503.0	492.0	453.2	400.8	357.4	316.9	275.2	263.8	324.1	275.9	145.6	108.9	95.70	105.4	233.4	1409	4957	2915	45.45	4.922	3.018	2.362	1.795	1.498	1.271	1.323	1.052	0.950	1.003	0.992	1.028	1.084	1.056	1.301	1.611	1.962	1.976	1.905	1.771	2.065	2.069	2.053	2.024	1.822	1.868	1.840	2.008	1.954	1.974	1.921	2.009	2.261	2.380	2.373	2.405	2.631	2.506	2.374	2.676	2.883	2.493	2.680	2.323	2.562	2.530
370.0	402.4	561.0	645.7	614.2	543.2	487.6	439.5	412.7	420.8	457.3	484.8	496.5	497.9	482.4	451.3	403.0	371.4	337.3	301.6	274.0	272.2	304.7	249.3	145.3	104.8	86.20	97.28	349.2	1539	3750	3615	806.6	13.24	3.151	2.371	1.722	1.537	1.408	1.097	1.037	1.030	1.039	0.956	1.131	1.118	1.285	1.464	1.731	1.857	1.886	1.752	2.059	2.036	2.120	2.084	1.998	1.921	2.017	2.167	2.003	2.137	2.115	2.199	2.260	2.230	2.380	2.378	2.456	2.497	2.404	2.523	2.684	2.510	2.538	2.488	2.488	2.531
375.0	403.3	530.3	616.0	616.5	550.4	519.8	463.3	429.8	437.0	461.5	485.4	496.0	498.3	472.4	446.4	412.2	384.1	353.6	322.4	292.7	269.7	266.8	298.3	240.9	136.5	101.4	84.38	124.3	374.1	914.4	2922	4633	316.2	12.57	3.093	2.159	1.769	1.612	1.275	1.159	1.013	1.093	0.935	1.015	1.168	1.258	1.327	1.769	1.749	1.863	1.840	2.071	2.069	2.157	2.175	1.882	2.014	2.082	2.184	2.135	2.247	1.992	2.267	2.265	2.164	2.488	2.321	2.314	2.381	2.383	2.530	2.440	2.659	2.527	2.367	2.661	2.694
380.0	401.0	514.7	612.4	612.5	562.5	525.0	485.5	443.5	451.6	473.3	485.7	490.7	487.1	467.8	445.5	413.9	388.7	362.9	335.1	308.1	278.7	257.7	269.7	297.6	189.9	121.5	93.22	85.64	124.4	233.6	817.4	3762	2745	246.9	6.567	2.790	2.088	1.711	1.342	1.195	1.225	1.150	1.007	0.940	1.195	1.277	1.302	1.821	1.701	1.718	1.792	1.953	2.187	2.029	2.194	1.907	2.081	2.095	2.094	2.128	2.236	2.051	2.269	2.231	2.195	2.244	2.325	2.216	2.436	2.410	2.406	2.409	2.331	2.509	2.334	2.537	2.507
385.0	363.7	517.1	598.0	600.5	577.9	531.3	501.0	457.9	466.8	477.6	486.1	486.4	478.6	463.1	443.8	410.6	392.6	368.2	346.7	320.5	293.4	266.8	253.8	283.6	256.9	152.9	110.1	88.31	79.95	88.86	209.4	1153	3765	2388	37.84	3.818	2.627	1.872	1.487	1.324	1.207	1.037	1.156	1.000	1.079	1.253	1.290	1.746	1.756	1.597	1.748	2.049	2.142	2.070	2.110	2.047	2.133	2.140	2.057	2.321	2.193	2.239	2.316	2.349	2.030	2.355	2.148	2.195	2.588	2.431	2.335	2.678	2.397	2.498	2.397	2.410	2.569
390.0	381.7	491.2	575.2	594.1	575.9	550.6	517.2	479.7	473.3	487.9	486.9	483.7	474.1	462.1	435.8	408.9	394.0	372.0	354.3	331.7	308.4	284.4	260.8	251.8	266.2	232.3	149.0	106.9	85.44	71.36	82.84	284.6	1126	2631	2591	631.0	11.75	2.456	1.831	1.530	1.288	1.089	1.120	1.118	1.218	1.292	1.329	1.677	1.662	1.664	1.742	2.136	2.273	1.984	2.227	2.158	2.258	2.249	2.218	2.277	2.172	2.220	2.157	2.401	2.264	2.351	2.251	2.355	2.459	2.415	2.240	2.582	2.323	2.552	2.511	2.502	2.468
395.0	372.0	492.3	584.0	595.4	588.9	563.5	525.6	490.5	481.4	494.3	488.0	481.5	476.6	456.6	432.4	407.5	388.9	369.0	354.5	335.6	320.6	295.9	271.5	250.0	241.1	254.4	221.8	139.4	105.4	84.50	70.06	99.14	274.1	632.6	1874	3161	268.0	12.87	2.405	1.845	1.375	1.314	1.207	1.126	1.257	1.377	1.427	1.638	1.790	1.759	1.636	1.965	2.189	2.119	2.179	2.194	2.199	2.410	2.433	2.414	2.246	2.335	2.408	2.319	2.187	2.226	2.274	2.192	2.392	2.526	2.263	2.279	2.433	2.481	2.504	2.509	2.366
400.0	362.4	491.1	566.4	603.7	591.7	555.2	543.5	490.7	494.9	497.2	488.1	478.9	469.0	447.3	427.0	398.2	385.7	364.9	352.3	340.2	319.3	303.3	282.0	259.0	235.9	235.2	254.1	186.9	125.3	98.44	75.60	65.12	90.27	161.6	504.9	2331	2249	224.7	6.047	2.024	1.606	1.374	1.313	1.205	1.219	1.424	1.420	1.741	1.663	1.646	1.650	2.046	2.097	2.173	2.314	2.239	2.177	2.336	2.301	2.316	2.230	2.384	2.273	2.288	2.356	2.065	2.314	2.305	2.289	2.315	2.196	2.378	2.325	2.421	2.687	2.366	2.546
405.0	376.9	493.0	563.1	590.1	596.3	562.0	542.6	494.9	501.5	500.0	495.9	481.8	459.6	443.6	419.7	393.3	377.2	365.5	352.6	338.6	323.6	304.1	288.6	266.1	242.8	226.9	239.9	237.5	154.4	113.1	86.57	66.99	56.76	61.17	130.6	674.0	2373	1990	34.86	3.325	1.876	1.417	1.415	1.237	1.234	1.460	1.408	1.643	1.584	1.609	1.718	1.961	2.141	2.101	2.351	2.239	2.388	2.201	2.137	2.314	2.052	2.483	2.360	2.309	2.317	2.114	2.333	2.290	2.128	2.254	2.432	2.307	2.209	2.204	2.493	2.385	2.405
410.0	382.6	469.2	546.9	580.9	582.0	566.1	550.9	501.1	497.9	498.4	488.7	479.4	458.8	436.8	410.9	381.9	369.2	354.0	346.0	333.9	319.3	303.3	289.7	271.3	251.1	230.6	218.8	231.9	209.0	146.5	103.0	78.31	58.00	46.95	52.35	167.2	671.1	1710	1857	542.1	11.83	1.936	1.557	1.297	1.265	1.459	1.381	1.651	1.611	1.637	1.717	2.118	2.030	2.244	2.318	2.287	2.360	2.255	2.297	2.263	2.424	2.445	2.443	2.310	2.340	2.189	2.252	2.109	2.140	2.279	2.364	2.375	2.293	2.254	2.363	2.349	2.434
415.0	355.1	479.0	557.0	579.7	569.7	546.8	545.5	491.7	501.6	501.9	483.9	465.9	443.8	421.8	395.8	370.7	352.3	339.6	332.8	321.4	309.1	299.2	284.7	274.3	257.0	237.1	219.2	207.9	216.8	198.3	127.7	91.51	68.55	50.86	41.24	58.20	164.9	404.1	1093	2116	254.5	13.97	1.891	1.442	1.439	1.518	1.448	1.536	1.604	1.731	1.768	2.050	2.160	2.048	2.308	2.287	2.303	2.294	2.331	2.362	2.218	2.455	2.310	2.258	2.402	2.314	2.127	2.197	2.162	2.189	2.105	2.337	2.157	2.256	2.356	2.310	2.296
420.0	344.9	447.1	532.0	572.5	557.6	540.8	540.6	493.3	500.6	494.8	475.6	460.9	432.9	410.2	383.4	359.2	339.8	325.1	319.4	313.1	303.1	290.0	279.7	267.9	255.8	238.0	220.1	201.1	196.8	210.0	161.5	104.0	76.23	56.96	42.74	37.97	54.42	102.7	280.9	1331	1880	219.7	7.106	1.981	1.615	1.583	1.354	1.676	1.698	1.609	1.746	1.941	2.147	2.130	2.279	2.081	2.345	2.307	2.310	2.282	2.420	2.201	2.466	2.179	2.269	2.167	2.166	2.219	2.117	2.376	2.226	2.125	2.218	2.168	2.098	2.329	2.287
425.0	358.4	425.6	506.7	543.7	557.1	540.5	539.6	491.0	504.1	492.9	479.7	457.6	426.5	400.3	373.3	346.5	327.7	317.8	309.1	300.4	293.9	281.6	274.6	263.6	252.9	237.3	220.1	201.3	188.4	192.4	189.3	124.2	84.41	62.80	47.30	35.94	32.06	38.00	73.41	361.7	1468	1598	34.41	3.788	1.932	1.721	1.585	1.726	1.725	1.621	1.570	2.005	2.149	2.068	2.183	2.156	2.363	2.259	2.312	2.485	2.392	2.373	2.583	2.422	2.195	2.161	2.265	2.071	1.994	2.088	2.077	2.055	2.161	1.972	2.096	2.032	2.270
430.0	407.2	424.7	492.5	522.9	541.1	533.1	524.7	486.7	496.0	494.2	474.2	454.2	419.7	385.0	358.7	330.8	315.3	302.4	293.6	284.5	277.1	270.0	264.9	257.4	246.6	233.2	219.9	203.0	188.2	177.7	176.8	155.9	105.5	72.26	54.69	41.92	32.16	26.63	29.60	90.75	387.1	1071	1351	513.5	13.16	2.000	1.677	1.688	1.691	1.525	1.544	1.918	2.014	1.977	2.239	2.035	2.305	2.290	2.387	2.446	2.246	2.360	2.382	2.426	2.223	2.186	2.297	2.071	1.931	1.971	1.966	2.035	2.075	2.054	2.003	2.106	2.181
435.0	798.8	432.9	468.4	507.3	520.1	513.0	513.5	468.4	490.8	489.0	477.1	447.9	413.1	374.1	348.9	314.3	297.4	286.5	279.7	272.7	263.7	255.1	252.8	249.9	239.1	230.8	218.4	203.2	189.5	174.4	158.3	154.2	138.3	89.06	62.41	48.98	37.52	29.11	23.63	32.69	95.48	248.8	626.7	1622	787.8	18.18	2.025	1.947	1.784	1.598	1.564	1.943	2.050	2.186	2.154	1.959	2.258	2.316	2.440	2.321	2.153	2.575	2.181	2.306	2.181	2.219	2.127	2.110	1.700	2.045	2.167	1.990	2.037	1.781	2.010	2.115	2.211
440.0	1317	509.4	445.8	498.3	503.1	507.6	500.7	476.1	474.3	489.0	461.2	445.5	400.6	363.4	336.0	303.1	282.2	274.6	268.8	260.1	252.7	246.0	245.2	240.3	231.9	224.6	213.8	201.3	189.1	174.3	156.1	141.9	144.1	111.4	70.92	53.96	41.48	32.07	24.42	21.80	32.18	63.73	155.6	861.7	1754	232.5	11.42	2.187	1.862	1.746	1.715	2.028	1.933	1.899	2.277	2.023	2.286	2.451	2.203	2.241	2.337	2.300	2.207	2.330	2.186	2.166	2.120	2.132	1.934	1.995	2.203	2.101	1.787	1.996	1.753	1.971	2.096
445.0	1614	944.8	454.3	479.1	480.3	476.0	494.1	454.3	468.3	479.4	458.2	432.6	390.4	355.6	323.3	289.1	270.7	264.0	251.5	248.9	243.5	238.9	233.4	232.4	226.3	218.3	208.9	199.0	188.7	172.4	155.4	135.7	130.5	124.1	86.74	58.03	44.56	34.53	27.22	21.79	19.47	23.55	42.43	220.5	1106	1560	179.3	6.857	2.204	1.751	1.659	2.000	2.137	1.937	2.057	1.976	2.024	2.364	2.122	2.145	2.206	2.060	2.129	2.352	2.223	2.125	2.100	2.129	1.988	1.923	1.968	2.003	1.667	2.011	1.818	1.922	1.872
450.0	1054	1995	725.8	435.3	447.3	460.0	472.8	430.2	454.5	461.8	440.8	412.0	369.1	333.5	301.0	273.0	252.6	242.5	236.9	230.5	224.5	223.2	219.0	214.6	211.6	205.8	196.2	188.6	180.0	169.0	152.0	132.9	117.7	113.1	101.3	71.73	49.83	38.64	30.65	23.60	19.31	17.05	18.35	56.33	278.0	868.2	1272	637.7	13.18	2.113	1.762	1.898	1.963	1.879	1.942	1.933	2.112	2.184	2.166	2.089	2.199	2.058	2.188	2.224	2.114	2.167	2.070	1.988	1.883	1.905	1.879	1.906	1.746	1.868	1.688	1.850	1.818
455.0	469.6	2077	1958	507.4	423.1	436.1	435.4	410.1	438.8	434.5	419.1	394.7	348.7	314.9	276.5	253.8	232.6	221.5	217.7	212.0	205.6	202.9	200.0	196.4	193.2	187.8	182.8	175.9	171.3	160.1	146.1	128.5	110.7	98.65	94.81	88.67	59.81	41.60	33.07	27.02	21.30	16.95	14.54	20.60	68.55	199.8	464.2	1397	774.0	17.56	2.271	2.139	1.910	1.939	1.884	1.823	1.994	1.906	1.986	2.099	2.059	1.989	2.236	2.034	2.100	2.095	1.926	1.848	1.821	1.594	1.892	1.670	1.725	1.888	1.646	1.802	1.718
460.0	295.4	1394	2963	870.8	401.0	411.0	417.6	389.2	414.7	419.5	405.7	370.1	334.6	292.4	260.5	236.0	216.3	203.7	199.0	193.4	188.6	185.9	186.0	184.4	178.0	176.1	170.7	166.4	161.4	154.1	140.3	123.1	107.2	92.13	83.99	87.00	70.49	46.89	35.57	28.88	22.78	18.13	14.68	13.48	22.65	50.43	111.3	618.5	1423	578.2	12.25	2.474	1.967	1.928	1.909	1.796	2.034	1.773	1.863	1.900	1.890	2.149	2.057	2.038	1.949	2.015	1.753	1.636	1.779	1.772	1.817	1.619	1.696	1.589	1.630	1.578	1.559
465.0	265.7	676.1	3071	2096	409.3	377.5	386.5	370.6	387.2	388.6	380.6	352.1	317.4	275.5	245.9	219.3	200.9	192.4	184.4	177.8	176.5	172.3	171.4	171.1	166.5	164.3	161.0	154.9	153.2	147.1	135.2	119.4	103.9	89.48	77.83	75.49	75.68	55.18	37.50	29.14	23.80	19.29	15.51	12.71	13.12	17.59	30.25	151.5	790.8	1323	162.3	9.294	2.064	2.116	1.806	1.795	1.918	1.794	1.997	1.891	1.968	1.969	1.964	1.931	1.973	1.880	1.648	1.650	1.674	1.619	1.668	1.439	1.676	1.637	1.671	1.502	1.446
470.0	256.1	357.4	1690	3289	1196	357.4	358.5	335.0	358.9	360.9	345.2	324.2	290.1	252.6	224.6	200.9	181.7	175.6	167.0	160.9	158.1	154.2	153.7	152.3	150.3	148.2	145.6	141.5	138.0	133.9	123.6	110.6	97.99	83.72	72.04	65.23	64.60	60.59	43.94	30.61	24.59	20.09	16.59	13.59	11.87	11.03	12.53	38.78	193.5	630.5	955.6	521.1	14.69	2.433	1.888	1.669	1.843	1.823	1.878	1.818	1.784	1.790	1.854	1.841	1.711	1.775	1.599	1.646	1.550	1.598	1.469	1.450	1.504	1.549	1.567	1.419	1.478
475.0	263.9	283.0	628.1	2691	3133	459.1	331.3	306.9	324.2	326.8	316.2	292.1	262.8	230.2	203.0	177.6	162.4	157.1	147.8	142.4	140.6	138.0	135.6	135.8	131.7	132.3	131.2	126.9	124.6	120.7	112.8	101.5	90.07	78.72	66.36	60.39	53.50	54.73	50.83	35.95	25.42	21.16	17.54	14.39	12.21	10.49	9.397	14.11	47.48	144.2	310.8	897.0	638.3	19.93	2.192	1.701	1.939	1.850	1.646	1.585	1.715	1.634	1.636	1.682	1.679	1.731	1.690	1.478	1.425	1.461	1.304	1.402	1.366	1.363	1.350	1.276	1.251
480.0	261.1	275.3	344.1	1445	3871	1408	310.6	286.9	306.7	308.6	299.0	278.0	246.8	218.3	187.9	166.6	151.9	144.3	137.4	130.8	126.3	125.0	123.4	124.5	122.3	121.5	120.2	115.9	115.6	112.4	106.4	96.22	86.72	74.02	64.98	56.85	49.81	46.29	49.12	41.36	28.33	21.41	17.78	15.21	12.89	11.19	9.200	9.056	15.37	35.93	74.06	350.8	1050	210.3	14.71	1.988	1.913	1.773	1.811	1.515	1.583	1.599	1.479	1.591	1.782	1.504	1.548	1.452	1.382	1.287	1.360	1.381	1.233	1.263	1.215	1.202	1.208
485.0	223.6	272.7	271.2	624.0	3242	2985	318.8	270.7	284.5	288.5	286.2	265.5	231.6	201.7	180.8	157.8	143.8	135.7	129.4	123.0	119.6	116.7	115.3	114.6	112.9	112.7	112.3	108.0	108.6	106.7	99.59	92.25	81.44	71.09	62.65	54.81	47.03	41.77	43.47	44.62	33.03	22.41	18.05	15.63	12.67	11.36	9.711	8.353	8.420	12.19	20.08	85.06	532.1	985.5	187.9	8.505	2.052	1.712	1.635	1.610	1.611	1.573	1.542	1.570	1.589	1.377	1.464	1.502	1.167	1.319	1.350	1.386	1.276	1.199	1.050	1.057	1.175
490.0	166.4	279.7	263.7	327.8	1590	3961	1267	251.7	261.2	271.0	259.6	245.7	215.0	188.4	165.3	145.0	132.4	122.6	118.2	112.9	107.8	105.7	105.7	105.2	103.0	102.0	102.0	98.11	99.86	97.77	91.42	85.00	75.56	66.80	59.37	51.93	45.02	39.92	36.84	38.14	36.97	27.20	18.92	15.92	13.39	11.66	10.15	8.581	7.551	7.188	8.208	22.23	128.2	441.9	811.9	507.1	15.99	2.240	1.744	1.633	1.640	1.563	1.488	1.355	1.474	1.352	1.354	1.394	1.254	1.195	1.191	1.199	1.226	1.057	0.927	1.028	1.156
495.0	136.3	232.2	278.2	252.0	558.2	2645	3464	320.4	241.4	245.4	238.7	222.1	198.0	171.8	153.0	132.9	121.0	113.4	104.3	101.7	98.04	93.78	94.42	91.49	91.28	91.50	92.07	87.88	88.01	87.00	83.38	77.96	69.73	61.79	54.91	47.96	42.36	37.06	33.96	31.28	33.31	32.11	22.44	16.80	13.99	12.04	10.28	8.836	7.810	6.437	5.863	8.363	31.72	101.3	270.2	883.2	678.1	22.55	1.883	1.751	1.532	1.612	1.437	1.263	1.286	1.313	1.297	1.382	1.258	1.208	1.130	1.066	1.050	0.989	1.007	1.041	1.090
500.0	123.2	176.7	278.3	234.1	281.2	1289	4360	1177	229.3	230.6	220.6	207.7	182.5	157.5	141.4	122.1	109.8	103.3	95.39	92.12	87.54	84.55	84.70	83.28	84.32	83.05	82.00	80.52	81.00	79.76	76.85	70.29	63.51	57.61	50.57	45.43	40.20	35.91	31.00	27.95	27.83	31.31	26.13	17.50	13.88	12.36	10.67	9.047	7.976	6.593	5.442	5.389	10.15	25.33	63.78	337.4	1020	233.0	16.30	1.953	1.528	1.442	1.353	1.325	1.218	1.179	1.117	1.278	1.108	0.992	1.136	1.014	0.996	1.060	1.060	0.988	1.048
505.0	108.2	153.1	271.7	239.7	206.2	534.3	3351	2748	228.7	212.3	203.2	190.2	168.9	145.1	129.1	110.9	101.6	94.96	87.01	85.65	79.42	79.21	76.59	76.69	76.81	74.53	75.04	73.13	74.27	73.22	71.74	65.27	58.55	53.36	46.92	42.34	38.51	33.66	29.36	26.60	24.15	25.65	27.76	20.02	14.82	12.39	10.65	8.909	8.051	6.932	5.618	4.876	5.208	8.412	16.75	80.75	479.6	979.3	205.6	8.303	1.788	1.347	1.414	1.254	1.172	1.182	1.049	1.017	0.983	0.925	1.098	0.993	0.947	1.038	0.915	0.837	0.998
510.0	102.8	132.7	202.3	256.2	187.9	258.6	1497	4019	1013	192.2	185.2	172.9	149.6	131.9	114.3	100.3	89.70	82.91	78.75	75.05	71.51	69.63	67.73	67.93	67.68	65.65	65.55	65.44	65.57	65.37	62.75	57.80	52.53	47.64	42.38	38.99	34.28	30.35	27.60	24.53	22.02	20.73	23.43	22.27	16.96	12.36	10.13	8.808	7.654	6.556	5.738	5.019	4.422	4.668	6.173	20.37	114.2	422.2	725.0	424.1	15.42	1.693	1.390	1.273	1.177	1.126	0.989	0.936	0.993	0.969	0.928	0.978	0.877	0.909	0.836	0.834	0.786
515.0	88.31	114.5	155.2	233.4	193.2	173.5	480.4	2539	3419	239.2	167.4	151.9	130.8	114.0	102.1	88.65	79.40	74.19	68.05	64.29	62.81	61.33	59.26	59.91	57.79	56.69	57.25	56.68	57.28	56.63	55.24	50.20	46.39	41.96	38.49	34.28	30.41	27.52	24.90	22.32	20.28	18.09	17.79	19.65	19.39	13.99	10.14	8.482	7.548	6.335	5.702	5.310	4.213	4.047	3.968	6.685	27.63	96.10	219.6	693.1	532.0	21.46	1.563	1.300	1.198	1.087	1.096	0.896	0.963	0.827	0.828	0.902	0.744	0.762	0.807	0.780	0.736
520.0	92.91	103.1	122.0	195.8	219.4	146.7	216.7	1186	4504	842.5	149.5	141.5	120.7	104.0	93.11	78.94	72.26	66.50	60.52	58.86	56.20	54.90	52.59	53.03	52.11	52.15	50.39	50.38	51.39	50.93	49.91	45.69	42.04	38.23	35.05	30.74	28.10	24.57	22.59	20.43	18.91	17.08	15.74	16.08	19.67	15.94	10.43	8.235	7.018	6.301	5.377	5.184	4.546	3.890	3.295	3.823	8.395	23.37	51.41	264.3	779.2	228.5	13.94	1.428	1.200	1.085	0.950	0.919	0.905	0.838	0.802	0.800	0.708	0.709	0.773	0.817	0.687
525.0	77.41	94.65	105.5	150.7	219.2	145.6	148.4	460.5	3652	2079	150.8	126.0	112.3	95.82	86.35	72.37	63.83	61.03	56.41	53.21	50.70	49.92	49.58	46.94	46.73	46.32	45.56	46.18	46.10	45.94	44.83	40.98	37.60	34.85	32.11	28.15	25.88	22.77	21.15	19.02	17.64	15.57	14.00	13.43	16.36	16.90	11.99	8.058	6.929	5.854	5.297	4.904	4.548	3.886	3.110	3.197	3.875	7.199	13.31	62.76	357.3	715.4	189.4	5.676	1.188	1.033	0.935	0.914	0.966	0.772	0.823	0.662	0.790	0.719	0.676	0.730	0.629
530.0	76.62	84.55	96.37	105.7	182.7	166.5	124.6	191.7	1600	3945	688.9	110.5	100.0	84.75	73.66	64.64	56.87	52.54	49.41	47.42	44.81	43.83	41.98	41.37	40.83	40.53	39.53	40.16	40.14	40.14	38.79	36.04	33.24	30.48	27.56	25.25	23.01	20.87	19.20	17.28	15.69	14.19	12.56	11.88	12.35	14.43	13.52	9.344	6.836	5.732	4.992	4.571	4.189	3.883	3.342	2.795	2.920	3.460	4.523	15.53	85.39	308.2	530.4	270.0	13.66	1.258	0.930	0.856	0.847	0.746	0.694	0.668	0.687	0.670	0.650	0.619	0.647
535.0	62.53	73.87	87.20	90.96	130.3	188.5	118.1	115.0	471.2	2849	2739	135.2	85.49	75.96	64.18	54.81	49.11	46.73	42.78	40.49	38.36	37.24	35.36	34.83	34.96	34.06	33.49	34.70	34.82	34.51	33.08	30.82	28.58	26.22	23.76	21.68	20.05	18.37	17.19	14.54	13.35	12.72	11.35	10.39	10.23	10.36	12.44	10.91	7.586	5.220	4.546	4.057	3.688	3.573	3.347	2.952	2.666	2.533	2.626	5.015	20.49	70.14	162.0	514.2	240.7	18.07	1.148	0.951	0.750	0.713	0.657	0.678	0.605	0.719	0.553	0.665	0.544
540.0	54.42	71.41	77.54	73.02	94.54	169.5	130.0	92.36	180.8	1277	4049	221.2	80.56	68.02	56.44	49.89	43.22	41.04	38.19	36.06	34.24	33.13	31.91	31.33	30.73	29.75	29.22	29.78	30.61	29.90	29.07	27.87	25.58	23.28	20.83	19.23	17.74	16.14	14.93	13.47	12.32	11.33	10.39	9.590	8.730	8.494	9.509	10.70	8.564	5.309	4.453	3.690	3.385	3.331	3.209	3.045	2.728	2.152	2.171	2.420	5.886	16.92	37.87	197.6	551.2	211.0	10.26	1.004	0.738	0.644	0.621	0.621	0.587	0.665	0.589	0.534	0.690
545.0	52.14	65.85	69.53	68.84	77.45	136.0	148.4	82.55	106.1	448.7	3667	1330	74.95	61.87	51.98	43.99	39.08	36.36	34.42	31.91	30.83	29.33	28.20	26.90	26.33	26.22	26.49	26.64	27.05	25.98	25.98	24.65	22.13	20.53	18.68	17.05	16.30	14.45	13.48	12.63	11.28	10.41	9.264	8.862	7.974	7.612	7.409	8.986	8.840	5.747	4.303	3.743	3.254	2.997	2.877	2.979	2.866	2.222	1.893	2.004	2.609	4.897	9.676	46.92	262.0	526.5	156.7	4.050	0.758	0.703	0.689	0.610	0.645	0.587	0.655	0.548	0.512
550.0	51.29	61.23	58.64	59.30	62.96	86.86	151.3	87.98	77.92	161.5	1565	3123	342.8	52.85	45.52	38.06	33.17	29.83	28.80	27.30	25.39	24.07	23.69	22.93	22.53	22.02	22.00	21.66	21.91	21.69	21.63	20.16	18.55	17.46	15.50	14.43	13.33	12.07	11.23	10.57	9.695	8.822	8.092	7.630	6.907	6.356	5.838	6.514	7.558	6.677	4.549	3.402	2.952	2.630	2.534	2.475	2.625	2.484	2.068	1.788	1.652	2.182	3.246	11.44	62.16	222.3	372.6	138.4	12.59	0.865	0.583	0.605	0.598	0.528	0.538	0.522	0.452
555.0	48.41	55.66	54.05	56.71	53.65	59.20	111.2	111.9	64.03	82.97	425.2	2665	1321	57.81	35.81	31.43	28.58	25.01	23.41	22.09	20.55	19.22	19.05	19.42	18.39	18.26	18.10	18.30	17.47	17.46	17.57	16.38	15.15	14.15	12.87	11.62	11.30	10.12	9.662	8.637	8.022	7.376	6.601	6.558	5.768	5.277	4.986	4.756	5.273	5.960	5.397	3.649	2.729	2.373	2.251	2.207	2.167	2.320	2.234	1.631	1.486	1.478	1.728	3.390	14.62	50.56	112.0	325.9	222.4	15.72	0.730	0.594	0.594	0.454	0.483	0.468	0.444
560.0	63.80	56.84	48.33	46.12	43.22	48.30	77.92	125.9	65.51	62.22	139.4	1213	2766	136.3	31.50	27.65	25.33	21.11	20.00	18.50	17.62	16.92	16.37	16.20	15.98	15.83	15.15	15.52	15.32	14.78	15.03	14.09	13.30	12.08	11.59	9.666	9.479	8.380	7.932	7.515	6.654	6.297	5.703	5.500	5.035	4.608	4.375	4.142	3.958	4.647	5.065	4.008	2.643	2.194	2.179	1.979	1.844	1.745	2.038	1.675	1.319	1.142	1.147	1.533	3.936	12.09	26.02	124.3	358.0	173.2	7.806	0.645	0.597	0.433	0.485	0.489	0.516
565.0	55.08	50.97	52.65	44.11	41.13	37.74	53.02	113.4	74.58	50.01	68.65	387.6	2901	739.9	31.08	23.51	21.41	19.46	16.99	16.08	14.62	13.99	13.67	13.85	13.43	13.32	12.77	13.61	13.07	12.90	12.60	11.76	11.51	9.975	9.548	8.632	8.324	7.296	7.158	6.427	5.940	5.493	5.106	4.803	4.470	4.090	3.586	3.714	3.148	3.518	4.154	4.212	2.731	1.818	1.819	1.684	1.692	1.652	1.604	1.863	1.478	1.209	1.042	1.009	1.457	3.466	6.656	29.42	160.2	327.8	34.13	3.121	0.513	0.440	0.437	0.432	0.451
570.0	46.44	54.00	46.43	41.98	36.43	34.11	37.86	75.48	101.7	48.77	48.86	125.2	1347	2014	92.74	20.46	17.35	16.44	14.37	13.23	12.57	11.78	11.64	11.12	11.02	10.38	10.58	10.76	10.83	10.55	10.04	9.682	8.922	8.057	7.872	7.173	6.849	5.997	5.870	5.392	4.870	4.597	4.087	4.020	3.795	3.308	3.177	2.998	2.760	2.491	2.859	3.556	2.951	2.138	1.762	1.524	1.526	1.345	1.315	1.509	1.626	1.207	0.913	0.967	0.969	1.438	2.112	7.233	37.79	130.6	203.8	121.5	11.55	0.652	0.472	0.380	0.412
575.0	44.56	51.07	49.11	37.70	30.73	28.03	32.02	46.04	105.8	63.04	40.41	59.27	350.4	1948	792.4	23.44	14.33	13.14	11.97	10.56	10.12	9.500	9.545	9.186	8.692	8.943	8.341	8.249	8.670	8.526	8.142	7.823	6.993	6.568	6.051	5.703	5.524	5.049	4.674	4.221	4.101	3.774	3.220	3.224	3.185	2.747	2.653	2.284	2.276	1.963	1.912	2.415	2.856	2.483	1.589	1.372	1.310	1.192	1.166	1.060	1.262	1.455	1.087	0.804	0.801	0.844	0.992	2.175	8.949	29.62	61.07	194.5	163.1	13.32	0.467	0.431	0.408
580.0	52.01	48.82	42.04	36.15	28.86	24.68	27.66	32.31	81.49	84.80	39.12	42.90	106.6	974.0	1673	70.59	12.93	10.70	10.42	9.782	8.535	8.481	7.861	8.025	7.614	7.448	7.240	7.221	6.852	7.024	7.157	6.469	6.359	5.702	5.268	5.071	4.449	4.233	4.141	3.466	3.498	3.243	2.968	2.852	2.541	2.314	2.279	2.069	2.004	1.801	1.634	1.729	2.235	2.355	1.668	1.327	1.191	1.011	1.008	1.034	0.882	1.309	1.248	0.830	0.713	0.727	0.768	0.979	2.534	7.148	14.30	70.30	217.5	115.5	6.099	0.514	0.415
585.0	48.57	51.33	40.63	36.42	23.66	22.86	24.82	26.42	56.09	103.3	44.77	37.16	50.63	302.8	1858	337.5	12.42	9.938	9.245	8.762	7.693	7.064	6.515	6.744	6.671	6.114	6.401	6.289	5.928	5.962	5.844	6.008	5.352	4.843	4.715	4.361	4.009	3.624	3.595	3.081	3.067	2.796	2.497	2.537	2.350	2.097	2.097	1.873	1.842	1.455	1.407	1.409	1.648	2.167	1.948	1.356	1.061	1.021	0.859	0.959	0.745	1.036	1.230	1.025	0.764	0.803	0.670	0.756	1.176	2.047	3.740	16.57	90.35	200.1	33.67	2.489	0.402
590.0	46.96	48.55	41.06	30.83	23.43	23.32	23.28	23.95	35.59	86.34	64.55	35.90	36.34	89.48	910.1	1029	50.00	8.649	7.609	7.421	6.532	6.141	5.424	5.673	5.712	5.266	5.387	5.322	4.948	5.055	5.063	4.884	4.350	4.063	3.857	3.578	3.335	2.931	2.976	2.523	2.453	2.284	2.219	2.006	1.979	1.831	1.784	1.655	1.437	1.400	1.193	1.209	1.199	1.571	1.806	1.574	1.170	0.870	0.832	0.800	0.782	0.727	0.974	1.178	0.940	0.727	0.670	0.661	0.735	0.904	1.280	4.145	21.17	75.85	127.1	81.67	10.38
595.0	46.06	46.17	42.63	29.77	23.06	20.91	18.13	20.68	28.23	56.39	85.89	39.70	30.91	37.36	230.5	1117	379.1	9.410	6.802	6.013	5.160	5.048	4.661	4.643	4.461	4.631	4.061	3.890	4.351	4.423	4.001	3.934	3.371	3.252	3.125	2.943	2.701	2.312	2.471	2.072	2.061	2.008	1.793	1.654	1.562	1.522	1.364	1.450	1.175	1.166	0.967	1.062	0.991	1.001	1.309	1.718	1.321	0.975	0.761	0.759	0.591	0.694	0.756	0.797	0.958	0.800	0.700	0.582	0.677	0.659	0.724	1.386	5.115	17.31	36.12	111.3	104.5
600.0	40.07	45.79	41.39	29.40	22.25	18.19	18.17	20.40	25.69	38.43	85.83	50.44	30.26	25.30	64.90	601.2	774.1	29.66	6.266	5.133	4.701	4.278	3.848	3.843	3.598	4.038	3.338	3.227	3.650	3.441	3.421	3.191	3.034	2.877	2.648	2.450	2.279	2.150	2.095	1.985	1.845	1.748	1.464	1.482	1.349	1.336	1.295	1.229	1.105	0.973	0.970	0.847	0.839	0.861	1.055	1.385	1.293	0.964	0.658	0.710	0.582	0.599	0.638	0.605	0.893	0.772	0.712	0.589	0.603	0.539	0.508	0.674	1.550	4.220	8.535	37.63	125.7
605.0	33.44	39.14	37.94	26.37	20.02	19.21	19.23	19.20	23.37	32.15	70.72	62.34	30.66	23.58	26.75	193.6	969.4	86.74	5.772	4.544	4.011	3.773	3.343	3.410	3.307	3.332	2.931	3.052	3.024	3.019	3.158	2.681	2.419	2.545	2.369	2.119	2.084	1.818	1.938	1.865	1.571	1.367	1.272	1.312	1.209	1.163	1.126	1.061	1.038	0.774	0.928	0.770	0.740	0.751	0.805	1.036	1.268	1.000	0.744	0.622	0.534	0.570	0.594	0.597	0.661	0.794	0.776	0.611	0.586	0.544	0.453	0.518	0.666	1.362	2.245	8.862	48.69
610.0	37.85	35.61	34.12	23.45	19.24	16.67	18.92	19.67	22.53	29.54	49.44	75.37	38.45	23.12	18.91	53.85	519.8	542.6	28.08	4.196	3.708	3.171	3.058	2.864	2.979	2.680	2.681	2.486	2.791	2.690	2.681	2.150	2.075	2.117	1.774	1.783	1.788	1.560	1.666	1.405	1.310	1.148	1.112	1.119	0.960	1.048	0.904	0.958	0.886	0.697	0.718	0.645	0.634	0.668	0.662	0.731	0.994	0.993	0.872	0.647	0.523	0.499	0.536	0.561	0.538	0.589	0.713	0.816	0.598	0.567	0.452	0.444	0.506	0.611	0.814	2.254	11.43
615.0	30.82	34.34	32.73	25.12	18.35	16.92	16.68	18.99	20.96	27.00	35.20	65.08	52.91	25.52	17.39	20.20	135.4	645.0	198.7	4.377	3.305	2.651	2.700	2.341	2.420	2.204	2.348	2.160	2.035	2.155	2.027	2.010	1.680	1.737	1.682	1.499	1.341	1.320	1.220	1.089	1.059	1.029	0.982	0.881	0.882	0.829	0.764	0.875	0.738	0.674	0.547	0.551	0.518	0.592	0.518	0.591	0.665	0.870	0.885	0.653	0.555	0.473	0.477	0.469	0.489	0.488	0.569	0.749	0.654	0.580	0.551	0.425	0.426	0.524	0.430	0.786	2.786
620.0	35.85	31.93	28.08	26.03	15.86	14.53	15.37	18.82	21.16	23.96	30.03	49.09	62.69	26.26	16.28	13.46	37.49	376.4	460.9	13.89	2.861	2.424	2.270	2.182	2.121	2.063	1.871	1.857	1.777	1.733	2.004	1.522	1.591	1.536	1.508	1.283	1.284	1.087	1.091	0.978	0.961	0.944	0.823	0.839	0.865	0.728	0.727	0.737	0.654	0.548	0.467	0.574	0.434	0.511	0.476	0.435	0.514	0.674	0.721	0.677	0.595	0.463	0.409	0.453	0.476	0.529	0.478	0.572	0.681	0.539	0.516	0.370	0.355	0.425	0.343	0.441	0.924
625.0	38.57	28.30	27.96	23.49	17.85	15.15	14.80	17.33	19.39	24.11	28.60	38.06	61.06	31.04	15.23	11.73	14.82	128.6	595.4	60.71	2.709	2.221	2.191	2.005	1.889	1.957	1.744	1.865	1.645	1.496	1.528	1.539	1.344	1.476	1.079	1.280	1.214	1.036	1.006	0.812	0.848	0.805	0.668	0.802	0.670	0.675	0.737	0.549	0.640	0.504	0.463	0.483	0.430	0.424	0.405	0.392	0.441	0.500	0.612	0.659	0.658	0.444	0.465	0.444	0.451	0.476	0.454	0.456	0.639	0.700	0.527	0.482	0.325	0.356	0.371	0.391	0.432
630.0	33.05	29.29	26.20	22.74	17.08	14.38	14.45	16.94	18.92	23.62	27.27	31.59	49.26	42.06	16.41	11.12	9.752	34.92	343.6	323.8	13.04	2.198	1.911	1.820	1.510	1.549	1.517	1.301	1.536	1.349	1.473	1.191	1.123	1.186	0.930	0.999	0.965	0.898	0.894	0.692	0.750	0.733	0.610	0.655	0.599	0.566	0.583	0.524	0.518	0.477	0.433	0.445	0.457	0.444	0.379	0.363	0.408	0.472	0.467	0.541	0.603	0.569	0.437	0.423	0.392	0.433	0.458	0.404	0.510	0.583	0.558	0.468	0.392	0.343	0.340	0.366	0.368
635.0	32.59	33.77	27.37	20.91	16.94	13.51	14.90	16.12	18.07	23.48	27.12	27.55	33.36	48.59	21.56	10.56	8.515	12.68	91.73	423.0	65.95	2.471	1.850	1.810	1.430	1.459	1.286	1.291	1.458	1.142	1.151	1.071	0.977	1.036	0.861	0.913	0.873	0.859	0.741	0.679	0.635	0.522	0.534	0.604	0.525	0.537	0.465	0.438	0.414	0.357	0.393	0.428	0.408	0.364	0.350	0.405	0.396	0.392	0.375	0.440	0.543	0.588	0.435	0.363	0.351	0.413	0.434	0.347	0.471	0.478	0.536	0.511	0.502	0.413	0.361	0.342	0.318
640.0	32.44	35.75	28.81	20.11	16.34	13.99	14.31	14.19	19.59	21.22	24.17	26.21	28.73	41.77	28.65	10.81	8.372	7.426	24.95	271.1	262.7	6.541	1.658	1.544	1.410	1.306	1.219	1.268	1.112	1.110	1.049	0.937	1.090	1.007	0.914	0.894	0.857	0.844	0.634	0.609	0.549	0.638	0.505	0.500	0.461	0.514	0.398	0.392	0.458	0.330	0.342	0.324	0.325	0.344	0.318	0.364	0.395	0.414	0.328	0.358	0.442	0.529	0.415	0.372	0.443	0.386	0.487	0.405	0.438	0.416	0.380	0.553	0.545	0.419	0.359	0.437	0.364
645.0	31.15	37.84	29.69	21.81	14.76	13.50	13.68	13.43	17.53	20.69	23.45	25.54	25.87	30.99	34.83	12.30	8.296	6.408	9.003	100.1	381.3	37.95	1.524	1.437	1.281	1.142	1.095	1.124	1.113	0.958	1.055	0.890	0.976	0.964	0.981	0.931	0.889	0.891	0.630	0.544	0.489	0.601	0.504	0.460	0.467	0.420	0.405	0.402	0.365	0.345	0.304	0.310	0.297	0.303	0.301	0.303	0.378	0.367	0.369	0.393	0.414	0.396	0.483	0.357	0.393	0.381	0.458	0.454	0.415	0.358	0.402	0.476	0.509	0.468	0.306	0.364	0.347
650.0	38.44	32.99	28.97	19.24	17.10	12.40	13.65	13.61	16.75	18.66	22.69	23.41	24.74	25.96	35.59	14.83	8.797	6.553	5.351	28.33	319.4	144.0	2.533	1.467	1.217	1.039	1.029	1.000	1.039	0.963	0.960	1.006	0.911	0.903	0.971	1.051	0.921	0.810	0.574	0.503	0.481	0.532	0.510	0.427	0.389	0.388	0.403	0.398	0.349	0.391	0.299	0.279	0.363	0.313	0.286	0.312	0.336	0.338	0.327	0.385	0.373	0.348	0.487	0.484	0.422	0.499	0.439	0.388	0.377	0.350	0.428	0.391	0.458	0.463	0.368	0.380	0.301
