Sample:	'1
File name:	Default_20250722_113147.FD3
Run date:	'11:25:26, 07/22/2025
Operator:	Administrator
Comment:	'

Instrument
Model:	F-2700 FL Spectrophotometer
Serial number:	3064-004
ROM Version:	4J14000 07

Instrument parameters
Measurement type:	3-D scan
Data mode:	Fluorescence
EX  Start WL:	220.0 nm
EX  End WL:	600.0 nm
EX Sampling interval:	5.0 nm
EM  Start WL:	230.0 nm
EM  End WL:	650.0 nm
EM Sampling interval:	5.0 nm
Scan speed:	12000 nm/min
EX Slit:	5.0 nm
EM Slit:	5.0 nm
PMT Voltage:	700 V
Response:	Auto 
Corrected spectra:	Off
Contour interval:	50.000

Peak integration
Integration method:	Rectangular
Sensitivity:	1
Threshold:	1.000

Peaks
No.	ApexEX/EM(nm)	Height(Data)
1	225.0/575.0	48.78
2	230.0/570.0	48.28
3	230.0/585.0	46.20
4	235.0/345.0	 1159
5	235.0/580.0	47.37
6	235.0/600.0	43.09
7	235.0/625.0	34.55
8	240.0/520.0	255.2
9	240.0/605.0	36.24
10	245.0/265.0	341.1
11	245.0/530.0	230.1
12	245.0/635.0	29.93
13	250.0/545.0	225.1
14	255.0/280.0	694.1
15	255.0/555.0	207.2
16	260.0/285.0	977.0
17	260.0/570.0	185.1
18	265.0/290.0	 1137
19	265.0/580.0	190.0
20	270.0/295.0	 1610
21	270.0/590.0	168.3
22	275.0/305.0	 1986
23	275.0/605.0	169.8
24	280.0/310.0	 2022
25	280.0/615.0	144.1
26	285.0/315.0	 2096
27	285.0/330.0	 1938
28	285.0/630.0	128.6
29	290.0/325.0	 2063
30	290.0/645.0	105.0
31	320.0/360.0	913.6
32	325.0/365.0	884.2
33	335.0/380.0	855.2
34	340.0/385.0	828.8
35	350.0/400.0	735.4
36	355.0/405.0	702.5
37	435.0/510.0	70.82
38	460.0/345.0	4.437
39	460.0/545.0	28.64
40	485.0/265.0	2.075
41	495.0/270.0	2.014
42	500.0/365.0	5.135
43	505.0/275.0	3.324
44	520.0/285.0	4.479
45	530.0/290.0	4.840
46	540.0/295.0	6.867
47	545.0/300.0	7.726
48	555.0/305.0	8.633
49	560.0/310.0	8.722
50	565.0/340.0	7.928
51	570.0/315.0	9.139
52	575.0/320.0	9.442
53	580.0/325.0	9.440
54	580.0/365.0	8.087

Data points
	220.0	225.0	230.0	235.0	240.0	245.0	250.0	255.0	260.0	265.0	270.0	275.0	280.0	285.0	290.0	295.0	300.0	305.0	310.0	315.0	320.0	325.0	330.0	335.0	340.0	345.0	350.0	355.0	360.0	365.0	370.0	375.0	380.0	385.0	390.0	395.0	400.0	405.0	410.0	415.0	420.0	425.0	430.0	435.0	440.0	445.0	450.0	455.0	460.0	465.0	470.0	475.0	480.0	485.0	490.0	495.0	500.0	505.0	510.0	515.0	520.0	525.0	530.0	535.0	540.0	545.0	550.0	555.0	560.0	565.0	570.0	575.0	580.0	585.0	590.0	595.0	600.0
230.0	12.66	450.7	 3371	 2598	131.8	5.497	2.730	3.463	2.847	3.013	2.946	2.758	3.161	2.515	2.970	2.084	1.621	1.421	1.344	1.135	1.143	0.867	1.001	0.814	0.934	0.598	0.714	0.589	0.413	0.453	0.562	0.418	0.414	0.320	0.506	0.510	0.474	0.503	0.363	0.337	0.374	0.377	0.433	0.450	0.276	0.296	1.271	5.547	10.80	8.957	3.376	0.670	0.177	0.207	0.119	0.081	0.164	0.092	0.108	0.023	0.007	0.053	0.022	-0.029	0.000	0.019	-0.030	0.012	-0.006	-0.039	-0.043	-0.109	-0.125	-0.077	-0.112	-0.030	-0.112
235.0	53.31	121.4	 1295	 4765	 1159	207.2	8.107	6.850	4.070	3.381	4.536	3.168	4.625	2.058	2.918	2.064	1.687	1.761	1.491	0.718	1.673	0.997	1.122	0.778	0.774	0.665	0.939	0.749	0.779	0.822	0.650	0.453	0.217	0.423	0.517	0.331	0.594	0.457	0.296	0.384	0.339	0.397	0.407	0.464	0.471	0.197	0.485	1.484	3.744	6.926	9.318	9.812	4.586	1.290	0.242	0.112	0.269	0.138	0.133	0.017	0.079	0.154	-0.062	0.058	-0.025	-0.104	0.038	-0.083	-0.067	-0.078	0.145	-0.212	-0.194	-0.091	-0.117	-0.096	-0.176
240.0	60.96	81.01	323.2	 2630	 5187	 1002	90.72	4.488	3.565	5.459	4.586	2.284	4.037	2.571	2.867	2.468	2.139	1.420	1.604	0.988	1.035	1.491	1.191	0.955	0.948	0.993	0.992	0.734	0.752	1.027	0.645	0.435	0.403	0.291	0.469	0.259	0.463	0.618	0.581	0.370	0.286	0.345	0.350	0.325	0.619	0.486	0.259	0.534	1.012	2.021	5.069	11.66	14.70	10.03	3.181	0.440	0.148	0.292	0.065	-0.007	0.009	0.063	0.030	-0.012	0.089	-0.012	0.036	-0.099	-0.108	-0.006	0.025	-0.160	-0.109	-0.153	-0.010	-0.041	-0.159
245.0	30.49	108.3	138.2	683.9	 3479	 5500	800.6	38.44	5.743	5.889	4.470	4.052	4.075	4.447	3.107	2.484	2.339	1.814	1.485	1.381	1.552	1.006	1.140	0.788	0.716	0.931	0.954	0.754	0.741	0.884	0.753	0.614	0.426	0.287	0.430	0.211	0.232	0.493	0.419	0.423	0.294	0.363	0.263	0.193	0.400	0.740	0.611	0.611	0.454	0.704	1.417	3.701	9.452	16.98	16.50	8.269	2.377	0.202	0.083	0.069	-0.043	0.082	-0.009	0.002	0.042	0.035	0.029	0.066	-0.102	0.039	-0.089	-0.131	-0.046	-0.077	-0.091	-0.117	-0.194
250.0	11.11	53.45	143.6	258.1	905.3	 3121	 4932	 2793	230.3	9.256	7.322	6.367	5.286	3.852	3.864	2.454	2.379	2.210	1.500	1.339	1.375	1.299	1.200	1.270	0.737	1.148	0.756	0.854	0.469	0.852	0.558	0.383	0.417	0.285	0.262	0.368	0.329	0.365	0.457	0.373	0.342	0.412	0.365	0.291	0.346	0.402	0.471	0.646	0.771	0.768	0.794	1.038	2.411	5.062	9.119	13.98	16.22	14.70	7.974	2.544	0.162	0.102	0.040	-0.004	0.088	0.002	-0.024	0.032	-0.066	-0.041	-0.093	-0.069	-0.058	-0.129	-0.082	-0.172	-0.109
255.0	7.834	17.90	68.35	263.4	342.3	725.2	 1967	 6739	 4361	312.5	12.45	7.817	5.700	4.479	4.855	3.372	2.035	2.702	1.779	1.606	1.534	1.328	1.443	1.133	1.002	1.106	0.901	0.904	1.060	0.863	0.580	0.645	0.442	0.436	0.305	0.320	0.493	0.398	0.420	0.461	0.504	0.376	0.382	0.240	0.226	0.326	0.405	0.475	0.519	0.766	1.163	1.269	0.954	1.352	2.234	3.404	5.662	13.42	24.88	25.06	14.25	2.741	0.194	0.142	0.083	0.067	-0.062	-0.010	-0.065	0.000	0.016	0.026	-0.070	-0.151	-0.122	-0.157	-0.146
260.0	10.46	6.978	23.61	146.4	342.2	256.6	485.1	 3198	 9226	 3684	193.9	11.91	7.413	7.270	5.067	3.379	2.923	2.387	2.266	1.702	1.952	1.369	1.070	1.280	1.592	1.072	0.993	0.905	0.870	1.068	0.808	0.618	0.502	0.444	0.526	0.423	0.519	0.477	0.493	0.213	0.482	0.490	0.321	0.379	0.490	0.419	0.351	0.271	0.244	0.433	0.694	1.376	1.562	1.022	0.823	0.905	1.375	3.528	10.35	24.08	34.10	27.75	10.36	1.246	0.096	0.254	-0.014	-0.107	-0.089	0.011	0.051	0.075	-0.135	-0.156	-0.164	-0.092	-0.084
265.0	11.40	6.429	16.21	55.83	268.4	341.1	168.7	816.9	 5059	9999.9	 2868	87.78	12.42	8.635	5.516	5.646	3.477	3.032	2.611	2.002	2.136	1.587	1.130	1.215	1.168	1.413	0.712	0.982	0.906	0.850	0.831	0.871	0.520	0.353	0.444	0.659	0.537	0.462	0.477	0.346	0.321	0.478	0.426	0.318	0.408	0.306	0.334	0.327	0.346	0.232	0.373	0.601	1.343	2.075	1.554	0.728	0.404	1.028	2.556	7.017	16.75	34.27	39.91	23.67	5.620	0.338	0.076	-0.128	-0.070	0.053	0.027	-0.010	-0.057	-0.075	-0.106	-0.106	-0.110
270.0	41.71	28.86	19.98	28.97	96.98	306.7	393.7	291.8	 1302	 4805	 9417	 5540	185.8	13.26	9.473	6.119	4.428	3.460	2.636	2.155	1.968	1.824	1.510	1.568	1.245	1.243	0.891	1.125	0.992	0.960	0.951	0.840	0.723	0.743	0.384	0.472	0.578	0.607	0.591	0.409	0.410	0.372	0.563	0.568	0.646	0.455	0.483	0.370	0.457	0.382	0.312	0.327	0.551	1.096	1.671	2.014	1.735	1.128	0.857	1.764	4.255	9.889	19.13	30.15	37.09	33.09	19.34	4.942	0.330	0.161	-0.003	0.011	-0.013	-0.065	-0.045	-0.060	-0.028
275.0	119.6	99.59	83.32	60.85	55.03	125.2	399.2	581.2	467.5	 1238	 3239	9999.9	 9033	229.5	14.38	9.246	6.150	3.389	2.384	3.145	2.674	1.961	1.777	1.369	1.486	1.451	1.137	1.059	1.121	0.943	1.124	0.928	0.906	0.881	0.614	0.540	0.864	0.824	0.738	0.546	0.675	0.690	0.661	0.822	0.865	0.936	0.645	0.568	0.484	0.490	0.412	0.434	0.460	0.540	0.790	1.114	1.852	3.324	2.259	1.645	1.811	3.133	4.748	7.568	11.20	24.80	50.26	50.99	28.00	4.546	0.195	0.072	0.049	0.038	0.072	0.004	0.064
280.0	191.3	170.1	139.7	109.8	87.36	88.05	220.4	694.1	608.2	504.6	998.1	 4163	9999.9	 2604	142.2	10.47	7.344	5.285	3.530	3.177	2.753	2.068	1.825	1.654	1.802	1.446	1.220	1.003	0.950	0.957	0.938	1.382	0.884	0.735	0.670	0.774	0.982	1.144	1.032	1.158	0.986	1.062	1.157	0.942	1.272	1.048	1.151	1.091	0.852	0.598	0.596	0.646	0.482	0.683	0.533	0.710	0.970	2.134	3.378	3.748	2.158	1.710	2.136	2.761	3.510	7.015	19.11	42.82	67.96	46.39	16.66	1.106	0.158	0.030	0.041	0.182	0.085
285.0	259.9	254.0	235.0	180.8	118.0	99.83	159.2	446.5	977.0	563.4	590.6	 1304	 5485	9999.9	 1973	74.58	9.617	8.512	4.998	3.283	3.495	2.654	2.641	1.899	1.291	1.677	1.631	0.973	0.924	1.002	0.992	0.972	0.742	0.864	0.816	0.689	0.840	1.557	1.609	1.529	1.196	1.271	1.724	1.113	1.410	1.525	1.388	1.391	1.335	1.094	0.957	0.719	0.714	0.646	0.554	0.488	0.811	1.228	2.099	3.755	4.479	3.104	1.905	1.775	2.216	2.892	5.581	12.31	30.19	58.85	58.45	35.70	6.860	0.292	0.129	0.123	0.138
290.0	318.0	355.7	360.5	293.7	198.3	165.4	201.7	315.3	697.4	 1137	876.4	801.1	 1710	 4977	9999.9	 6487	111.5	12.74	7.438	5.654	3.971	2.801	2.811	2.380	1.973	1.935	1.730	1.141	1.222	0.955	1.035	1.118	0.821	0.796	0.927	0.985	1.153	1.807	1.686	1.701	1.515	1.680	1.809	1.693	1.850	1.710	1.667	1.823	1.492	1.286	1.153	1.018	0.938	0.851	0.828	0.864	0.811	1.137	1.417	2.186	3.041	3.856	4.840	4.288	3.397	3.027	2.974	4.534	8.708	16.16	27.42	45.37	48.86	49.54	23.04	5.832	0.365
295.0	354.3	434.5	447.9	405.4	295.0	257.6	282.0	355.5	549.3	943.7	 1610	 1082	 1005	 1520	 3103	9999.9	 8947	145.6	12.25	8.165	5.755	4.134	3.227	2.802	2.195	2.085	2.204	1.300	1.135	1.213	1.296	1.162	1.111	1.004	0.858	1.083	1.585	1.850	1.995	1.950	1.766	1.651	1.991	1.996	2.133	1.445	1.697	2.303	2.313	1.394	1.682	1.499	1.414	1.100	1.352	1.144	1.233	1.532	1.306	1.601	2.322	2.859	3.759	5.876	6.867	5.245	3.873	3.793	4.324	5.689	7.355	11.56	14.62	32.12	67.39	58.11	33.70
300.0	402.2	455.1	500.6	458.3	343.0	343.1	338.5	435.4	565.2	847.5	 1515	 1750	 1067	888.5	 1041	 3602	9999.9	 6343	101.1	10.67	6.498	4.685	3.411	3.456	2.502	2.551	2.220	1.239	1.303	1.395	1.458	1.001	0.907	1.142	1.189	1.377	1.636	2.120	1.769	2.185	1.774	1.681	1.786	2.077	2.022	2.128	2.076	2.690	2.004	1.748	1.774	1.827	1.445	1.243	1.168	1.400	1.754	1.407	1.596	1.718	2.494	2.909	3.159	4.163	6.014	7.726	6.672	4.749	3.884	3.890	3.681	4.220	4.820	8.530	23.16	50.87	84.84
305.0	376.9	484.1	567.7	507.8	401.6	381.4	412.2	515.1	627.0	863.7	 1267	 1986	 1594	933.0	721.9	 1105	 4705	9999.9	 1251	61.43	9.077	6.341	4.538	3.236	2.684	2.667	2.405	1.697	1.701	1.478	1.644	1.087	1.355	1.063	0.933	1.358	1.780	2.098	1.993	1.922	1.663	1.850	1.966	2.095	2.186	2.363	2.028	2.471	1.927	1.930	1.650	1.910	1.780	1.584	1.408	1.732	1.860	1.970	1.826	2.172	2.686	3.176	3.520	4.074	5.208	6.673	8.580	8.633	6.015	4.268	4.069	3.396	2.777	3.426	6.252	13.95	36.89
310.0	365.5	477.1	572.1	545.7	447.0	440.2	478.2	583.7	714.9	921.4	 1227	 1613	 2022	 1585	932.4	730.8	 1400	 4509	 8349	 4832	79.22	11.31	6.485	4.048	3.643	2.877	2.437	1.916	1.776	1.887	1.643	1.511	1.420	1.140	1.196	1.255	1.563	2.108	1.982	1.723	1.730	1.887	1.832	2.013	2.068	2.485	2.197	2.331	2.372	2.238	1.875	2.333	2.365	2.036	1.906	1.906	1.974	2.530	2.430	2.786	2.681	3.186	3.842	4.289	5.163	5.825	6.953	8.314	8.722	8.150	6.140	4.837	3.633	3.004	3.482	4.865	9.904
315.0	357.9	496.5	572.5	593.8	496.3	483.3	533.3	634.2	761.6	958.4	 1251	 1538	 1768	 2096	 1535	849.3	776.4	 1282	 2538	 9234	 6959	107.3	10.70	5.670	5.148	3.478	2.891	2.399	2.281	2.009	1.548	1.571	1.236	1.080	1.310	1.078	1.314	1.997	1.710	2.026	1.920	1.821	1.949	1.824	1.939	2.142	2.392	2.775	2.486	2.427	2.093	2.380	2.165	2.054	2.178	2.165	2.511	2.825	2.949	3.040	3.423	3.819	4.001	4.589	5.363	6.135	6.284	6.936	7.484	8.204	9.139	8.328	5.311	4.188	3.158	3.527	4.156
320.0	385.4	547.4	703.4	639.9	528.1	516.6	570.1	690.2	806.3	 1011	 1279	 1560	 1762	 1963	 2062	 1138	738.5	635.7	770.4	 3324	9999.9	 5295	77.01	7.704	7.135	3.818	3.348	2.682	2.555	1.941	1.539	1.454	1.311	1.145	1.123	1.032	1.149	1.694	1.718	1.736	1.971	2.084	1.863	2.117	2.064	2.745	3.080	3.424	2.875	2.435	2.253	2.417	2.158	2.402	2.405	2.436	2.996	2.986	3.035	3.512	3.417	3.823	4.192	4.519	5.171	5.632	6.804	6.603	6.889	7.894	8.547	9.442	8.715	6.182	4.057	3.903	3.458
325.0	424.5	619.7	853.7	813.3	624.2	554.3	589.3	700.8	860.8	 1032	 1336	 1633	 1815	 1901	 2063	 1631	870.1	551.7	427.7	908.6	 4637	9999.9	936.4	46.73	8.188	4.907	3.323	2.761	2.943	2.202	1.760	1.733	1.483	1.347	0.919	0.903	1.150	1.348	1.912	1.638	1.743	1.959	2.164	2.331	2.363	2.844	3.169	3.487	3.858	2.999	2.715	2.654	2.651	2.416	2.600	2.817	3.033	3.357	3.370	3.266	3.687	4.071	4.314	4.638	5.670	5.696	6.643	6.900	7.150	6.891	7.982	8.578	9.440	8.832	6.309	4.908	4.133
330.0	424.1	695.9	971.9	948.2	738.4	613.7	620.8	713.1	869.0	 1070	 1350	 1628	 1839	 1938	 1859	 1701	 1284	673.9	423.9	405.2	 1200	 4319	 8062	 3776	62.42	8.788	5.039	3.720	3.187	2.592	2.045	1.734	1.654	1.559	1.238	1.136	1.222	1.575	1.875	1.414	1.532	1.859	2.373	2.357	2.568	3.007	3.379	3.656	4.285	3.432	3.365	3.412	2.973	2.776	2.731	3.077	3.122	3.304	3.298	3.404	3.587	3.748	4.295	4.916	5.280	6.030	7.209	7.269	7.253	7.524	8.138	8.318	7.869	7.897	7.994	7.335	6.108
335.0	398.2	731.2	 1042	 1061	837.3	673.0	661.1	751.2	882.4	 1075	 1344	 1601	 1827	 1919	 1786	 1478	 1379	 1037	521.9	353.0	448.6	 1093	 2488	 8626	 5630	86.06	8.928	5.589	4.492	3.110	2.369	2.242	2.303	1.553	1.282	1.210	1.466	1.684	1.642	1.444	1.628	1.547	2.308	2.500	2.624	3.058	3.276	4.164	4.277	3.743	3.643	3.748	3.321	3.271	3.179	2.871	2.938	3.217	3.293	3.033	3.445	3.696	4.308	5.231	5.257	5.866	7.179	6.988	7.304	7.692	8.011	7.509	7.587	7.409	6.510	6.926	7.258
340.0	402.8	746.2	 1097	 1126	933.3	755.6	737.9	782.8	886.6	 1094	 1322	 1577	 1831	 1908	 1763	 1438	 1218	 1202	733.8	396.3	328.4	414.6	681.0	 3362	9999.9	 4305	61.85	8.168	5.373	3.669	2.801	2.421	2.209	1.440	1.462	1.444	1.383	1.622	1.488	1.425	1.651	1.625	2.026	1.978	2.369	2.827	3.153	3.909	4.344	4.032	3.557	3.784	3.359	3.268	3.414	3.217	2.991	3.341	3.856	3.586	3.387	3.746	4.461	5.017	5.794	5.724	6.753	6.702	7.149	7.928	7.880	7.309	7.390	6.729	6.540	6.085	5.673
345.0	411.9	704.9	 1074	 1159	986.9	824.9	792.8	825.7	925.3	 1104	 1312	 1555	 1752	 1852	 1715	 1421	 1136	 1072	 1005	521.5	352.4	310.4	306.7	890.1	 4855	9999.9	765.7	38.17	7.583	4.803	3.548	2.809	2.134	1.620	1.728	1.618	1.497	1.578	1.163	1.653	1.779	1.872	2.099	2.016	2.641	2.871	3.079	3.824	4.437	4.074	3.733	4.142	3.690	3.475	3.748	2.946	3.553	3.402	3.585	3.617	3.223	4.270	5.093	5.027	4.973	5.751	6.611	6.885	6.956	7.834	6.824	8.053	6.718	6.844	6.589	6.480	5.571
350.0	385.3	628.9	 1000	 1119	 1026	932.0	890.7	910.9	986.7	 1152	 1342	 1527	 1680	 1759	 1677	 1412	 1156	962.2	968.2	831.3	502.3	360.6	291.2	366.0	 1252	 4523	 7473	 3150	54.25	8.194	4.672	3.860	2.379	2.012	1.602	1.566	1.365	1.464	1.608	1.684	1.627	1.820	1.986	2.237	2.612	2.824	3.010	3.750	4.103	3.992	3.735	4.376	3.726	3.753	3.770	3.297	3.706	3.630	3.919	4.113	4.274	4.554	4.525	4.896	5.324	6.034	6.274	6.749	7.419	7.687	7.097	7.495	6.701	6.755	6.272	6.257	5.622
355.0	360.1	580.4	939.9	 1102	 1108	 1033	 1036	 1050	 1101	 1254	 1373	 1519	 1648	 1711	 1629	 1409	 1203	994.4	878.3	882.1	811.6	496.4	363.6	314.8	450.5	 1132	 2532	 8127	 4800	73.06	7.845	5.452	3.203	2.446	1.551	2.199	1.846	1.584	1.817	1.651	1.528	1.629	1.704	2.086	2.288	2.784	2.997	3.352	3.608	4.038	3.925	3.856	3.979	3.973	3.760	3.718	4.141	4.213	4.114	4.302	4.230	4.773	4.749	5.167	5.450	5.717	6.158	6.369	7.059	7.076	6.657	7.554	7.147	6.634	6.576	6.317	5.834
360.0	333.0	572.1	883.1	 1112	 1156	 1104	 1085	 1119	 1174	 1296	 1406	 1518	 1627	 1666	 1585	 1409	 1225	 1041	891.3	828.2	913.6	702.2	453.8	351.8	314.3	406.3	687.8	 3494	 9568	 3591	48.89	7.149	4.146	2.890	2.122	1.920	1.707	1.576	2.055	1.686	1.635	1.628	1.668	2.139	2.079	2.791	2.617	3.129	3.522	4.068	3.613	4.445	4.515	4.299	4.207	4.266	4.483	4.604	3.820	3.911	4.575	4.953	4.651	5.141	5.750	5.472	6.124	6.503	7.026	6.624	6.984	6.941	7.830	6.815	6.254	6.279	5.776
365.0	336.5	565.6	855.0	 1062	 1156	 1147	 1176	 1163	 1217	 1332	 1418	 1498	 1602	 1642	 1576	 1387	 1230	 1071	936.2	836.5	854.6	884.2	581.9	410.3	336.1	285.3	292.8	916.7	 5103	 9347	678.5	28.96	5.949	3.633	2.849	2.203	2.387	1.852	1.694	2.124	1.785	1.634	1.838	2.115	2.285	2.650	2.428	3.206	3.357	3.543	3.536	4.355	4.240	4.434	4.460	4.146	5.135	4.790	4.123	3.902	5.032	5.326	5.306	5.820	5.156	5.400	6.045	6.592	6.613	6.483	7.176	7.333	8.087	6.832	6.622	6.439	6.321
370.0	339.9	514.6	814.1	 1028	 1161	 1219	 1222	 1214	 1263	 1348	 1434	 1507	 1566	 1568	 1526	 1375	 1237	 1110	993.4	897.4	829.9	851.0	814.1	572.4	411.6	323.2	259.5	338.8	 1305	 4614	 7178	 2727	43.42	6.755	3.871	3.067	2.476	2.087	1.720	1.994	1.849	1.927	1.907	2.183	2.134	2.559	2.665	3.196	3.301	3.624	3.532	4.093	4.178	4.566	4.658	4.660	4.926	5.093	4.595	4.584	4.822	4.889	5.093	5.553	5.637	6.013	6.188	6.501	6.619	6.540	6.768	6.785	7.307	6.820	6.728	6.164	6.623
375.0	350.6	500.5	791.4	 1029	 1196	 1216	 1237	 1235	 1292	 1354	 1438	 1485	 1544	 1503	 1467	 1344	 1227	 1131	 1035	950.8	876.2	826.9	830.2	817.7	553.9	406.4	320.0	271.6	425.8	 1121	 2665	 7957	 3887	55.34	6.994	4.114	3.271	2.313	2.421	2.072	1.878	2.154	2.041	2.112	2.113	2.565	2.646	3.010	3.350	3.542	3.589	4.075	4.782	4.884	4.746	4.568	4.874	4.825	5.013	4.864	4.861	5.061	5.237	5.491	5.926	6.257	5.639	6.784	6.152	6.614	6.819	6.785	6.419	7.244	6.853	6.361	6.867
380.0	327.3	496.7	733.2	992.4	 1146	 1233	 1254	 1262	 1280	 1354	 1428	 1449	 1474	 1470	 1422	 1321	 1206	 1149	 1057	986.3	919.7	847.3	802.3	855.2	720.4	488.2	379.3	296.9	264.3	366.4	695.5	 3701	 8463	 2720	35.61	5.408	3.918	2.855	2.236	1.965	1.998	1.985	2.031	1.960	2.293	2.583	2.654	2.581	3.465	3.417	3.285	4.104	4.684	4.637	4.665	4.263	5.037	4.708	5.132	4.832	4.846	5.541	5.013	5.803	5.671	5.873	5.683	5.859	6.217	7.016	6.922	6.285	5.957	6.942	6.377	6.558	6.875
385.0	291.9	488.7	721.9	952.7	 1132	 1189	 1253	 1235	 1253	 1327	 1399	 1430	 1446	 1441	 1376	 1300	 1198	 1142	 1076	 1002	940.8	866.8	812.0	801.0	828.8	604.1	433.8	338.3	261.6	225.8	254.4	961.9	 4895	 7695	518.1	17.97	4.495	3.669	2.802	2.211	2.005	1.740	2.027	2.228	2.131	2.445	2.283	2.690	3.308	2.973	2.881	3.963	4.412	4.369	4.345	4.608	4.956	5.319	4.628	4.795	5.177	5.345	5.141	5.698	5.033	5.457	5.353	5.217	5.966	6.363	6.259	6.108	5.402	6.333	6.416	6.142	6.137
390.0	285.0	456.1	671.7	901.8	 1107	 1197	 1214	 1237	 1241	 1308	 1343	 1364	 1374	 1372	 1326	 1241	 1185	 1125	 1068	 1009	959.5	899.0	835.6	781.4	785.8	751.1	557.0	403.5	307.6	241.3	193.6	308.8	 1251	 4076	 4918	 2052	32.90	5.296	3.838	2.923	2.330	1.923	2.190	1.878	2.218	2.199	2.270	2.749	2.968	2.699	3.078	3.747	4.021	3.978	4.108	4.465	4.844	5.006	4.813	4.837	4.920	4.984	4.956	4.843	5.106	5.353	5.313	5.561	5.702	5.763	6.168	5.983	5.834	6.244	6.663	5.795	6.225
395.0	290.0	418.6	663.4	858.9	 1049	 1153	 1187	 1209	 1236	 1278	 1263	 1311	 1302	 1300	 1258	 1201	 1154	 1093	 1056	 1017	965.2	920.0	852.8	795.6	758.6	735.6	719.5	517.7	370.5	291.0	218.7	195.3	362.8	969.8	 2069	 6417	 2976	43.28	5.395	3.913	3.058	2.409	2.389	1.952	2.192	2.056	2.501	2.752	2.712	2.446	2.870	3.436	3.713	3.946	3.882	4.465	4.537	4.564	4.629	4.939	4.305	5.176	4.751	4.628	4.636	5.333	5.749	5.288	5.374	5.334	5.895	5.574	5.454	5.990	5.726	5.619	6.228
400.0	277.7	412.1	607.7	806.2	 1006	 1116	 1155	 1171	 1214	 1240	 1249	 1251	 1258	 1242	 1219	 1161	 1132	 1062	 1043	999.2	952.6	912.5	857.1	805.8	759.5	704.4	735.4	637.4	434.2	329.4	252.0	193.4	183.7	285.5	531.0	 3129	 6632	 2020	27.46	5.236	3.690	3.063	2.275	2.016	2.203	2.449	2.712	2.520	2.641	2.559	2.584	3.419	3.610	3.688	4.118	4.289	4.275	4.897	4.544	4.589	5.003	4.971	4.682	4.904	4.771	5.270	5.305	4.847	5.254	5.110	5.366	5.458	5.308	5.524	5.748	5.442	6.148
405.0	263.6	383.4	606.3	806.5	957.6	 1071	 1142	 1161	 1185	 1190	 1215	 1210	 1240	 1209	 1170	 1140	 1097	 1046	 1021	982.9	959.4	897.7	865.4	815.5	760.0	698.5	687.3	702.5	527.7	375.4	284.6	216.5	162.2	145.6	175.9	808.7	 4030	 6019	433.4	12.94	4.389	3.526	2.802	2.660	2.120	2.380	2.357	2.546	2.774	2.465	2.404	3.497	3.317	4.088	4.054	4.519	4.347	4.611	4.354	4.630	4.245	4.779	4.489	4.595	4.877	4.796	5.377	4.709	4.628	5.332	5.105	5.798	5.137	5.494	5.719	5.688	5.770
410.0	468.0	363.9	567.3	765.3	910.8	 1040	 1123	 1121	 1151	 1145	 1178	 1162	 1171	 1160	 1121	 1072	 1027	 1009	986.3	948.7	926.8	887.0	846.9	811.4	764.1	706.5	661.7	650.7	625.8	466.8	330.7	250.3	185.2	138.0	112.0	231.8	 1026	 3323	 4103	 1605	28.48	4.668	3.268	2.464	2.565	2.605	2.165	2.550	2.514	2.493	2.732	3.505	3.584	3.715	3.620	4.047	4.138	4.470	4.503	4.246	4.250	4.572	4.491	4.433	4.746	4.569	4.560	4.664	4.661	5.104	4.895	5.070	5.541	5.151	5.134	5.553	5.959
415.0	623.8	355.4	540.4	723.3	863.9	 1004	 1074	 1099	 1102	 1127	 1127	 1102	 1108	 1085	 1067	 1009	970.2	958.6	934.4	911.2	884.9	857.7	830.9	795.4	763.5	702.2	657.7	613.9	597.9	573.4	404.5	290.1	218.1	159.2	119.6	119.0	275.3	778.7	 1747	 5086	 2407	37.52	4.585	3.402	3.311	2.446	2.389	2.456	2.343	2.352	2.733	3.317	3.521	3.369	3.663	3.853	4.260	4.179	4.323	4.206	4.180	4.054	4.164	4.024	4.407	4.049	4.482	4.816	4.735	4.614	5.004	4.474	4.826	5.358	4.959	5.568	5.145
420.0	311.4	356.5	516.4	700.8	811.3	933.3	997.7	 1062	 1077	 1090	 1093	 1050	 1061	 1031	 1011	962.1	921.2	919.0	899.4	873.5	852.2	831.5	804.9	773.3	746.6	702.9	650.9	612.0	561.7	570.6	491.9	327.3	241.8	181.6	131.3	102.6	117.6	212.1	438.2	 2532	 5255	463.3	23.30	4.189	3.663	2.679	2.417	2.509	2.519	2.156	2.438	2.533	3.281	3.415	3.829	3.829	4.203	4.344	4.278	4.343	4.272	4.214	4.207	3.993	3.842	4.044	4.526	4.576	4.285	4.687	4.626	4.803	4.502	5.060	4.769	5.296	5.195
425.0	263.4	351.1	483.0	680.9	799.2	891.1	972.0	 1040	 1056	 1084	 1072	 1036	 1012	989.0	971.3	914.1	877.1	876.0	864.0	833.4	820.2	796.1	781.7	749.2	728.7	692.7	654.5	611.3	553.1	525.6	529.7	388.5	265.6	198.6	147.5	111.0	90.94	91.53	131.4	655.1	 3202	 3697	387.3	10.16	4.115	3.159	2.674	2.391	2.012	2.189	2.392	2.707	3.237	3.351	3.593	3.642	3.667	3.748	3.921	3.866	3.895	4.118	3.944	4.138	3.927	3.645	4.506	3.980	4.370	4.465	3.928	4.728	4.676	4.448	4.423	5.010	4.682
430.0	465.6	326.7	455.6	638.2	756.6	830.2	932.2	998.0	 1035	 1055	 1023	988.6	972.1	927.4	910.7	866.3	839.2	829.7	814.3	791.9	773.6	755.3	746.8	719.4	706.9	675.9	639.2	594.4	553.4	509.1	483.3	450.7	330.4	225.6	170.7	130.3	99.45	79.78	72.58	177.9	812.7	 2330	 3398	 1395	26.78	4.529	3.074	2.836	2.458	2.251	2.169	2.776	3.018	3.222	3.497	3.381	3.518	3.908	3.920	3.888	4.060	3.885	3.928	3.895	4.200	3.980	3.835	3.743	4.041	4.073	3.950	4.137	4.074	4.223	4.341	4.584	4.439
435.0	 1005	346.8	452.7	593.9	702.3	772.6	880.6	973.3	 1011	 1020	 1005	963.3	935.4	889.8	861.4	816.0	787.8	777.5	757.4	747.3	734.7	709.8	706.5	687.8	682.4	658.2	623.7	587.3	558.5	509.2	457.4	420.0	395.8	278.5	197.3	149.3	116.8	89.73	69.76	79.42	210.7	545.0	 1391	 4159	 2119	34.97	4.212	3.607	2.837	2.610	2.070	2.710	2.865	3.327	3.389	3.770	3.649	3.915	3.913	3.717	3.914	3.984	3.836	3.812	3.866	3.753	3.781	3.858	3.823	3.547	4.193	4.312	4.046	3.855	4.254	4.115	4.828
440.0	 1251	639.1	430.0	560.6	655.6	765.0	850.5	967.9	988.1	979.5	972.9	921.5	898.3	871.1	830.7	778.7	755.7	737.8	722.5	709.8	699.5	678.4	673.8	652.3	652.7	642.3	609.8	581.2	548.3	501.3	450.6	400.7	389.7	328.5	223.6	164.7	131.1	101.4	77.31	63.95	83.00	147.5	344.3	 2007	 4501	423.6	22.00	4.567	2.947	3.106	2.590	2.697	2.598	3.058	3.123	3.258	3.521	3.720	3.746	3.791	3.785	3.907	3.900	4.139	4.192	3.516	3.839	4.158	3.579	3.734	3.820	4.201	3.710	4.015	4.252	4.186	4.433
445.0	970.0	 1227	432.1	542.6	621.1	723.1	844.5	922.9	955.9	959.3	955.8	885.7	862.0	830.5	788.4	736.5	723.7	701.7	687.0	681.1	654.7	642.9	638.9	625.4	627.6	609.8	585.7	570.4	537.5	496.7	450.3	393.3	357.8	352.3	265.6	182.2	144.1	110.9	85.92	68.99	60.91	63.41	102.1	508.8	 2659	 4017	341.3	12.55	3.758	3.177	2.736	3.037	2.500	3.204	2.801	2.706	3.685	3.698	3.277	3.646	3.589	3.791	3.716	3.599	3.977	3.463	3.537	3.673	3.697	3.439	3.644	3.598	3.617	3.720	4.052	3.852	4.031
450.0	455.3	 1629	903.0	495.8	594.2	709.7	775.5	880.1	916.2	918.1	904.7	867.7	823.2	781.1	741.3	699.8	673.7	652.4	634.7	626.6	604.5	595.4	586.5	583.2	580.3	571.7	552.8	537.5	517.0	488.2	440.5	385.5	341.0	318.3	296.4	220.7	157.4	123.9	97.89	79.46	63.93	51.08	51.95	136.3	668.4	 2221	 3029	 1430	23.70	4.387	3.093	3.204	2.668	2.743	2.623	2.798	3.408	3.347	3.519	3.469	3.646	3.523	3.649	3.851	3.637	3.240	3.333	3.567	3.308	3.124	3.442	3.215	3.393	3.592	3.566	3.599	3.444
455.0	220.1	 1020	 1993	531.1	538.4	633.8	731.8	819.2	859.7	871.4	858.8	823.2	774.5	730.7	688.3	644.4	621.4	601.0	584.4	565.4	548.7	543.6	535.1	540.4	530.4	528.6	515.8	506.9	487.9	463.0	427.7	376.5	328.3	290.8	270.5	255.5	189.7	134.2	110.9	87.14	71.47	57.76	46.67	57.86	169.9	514.7	 1166	 3701	 1995	30.04	4.042	3.363	2.569	2.936	2.845	3.133	3.094	3.411	2.914	3.049	3.903	3.490	3.396	3.386	3.151	3.114	2.989	3.192	3.163	2.775	3.090	3.204	3.180	3.007	2.908	3.642	3.010
460.0	168.9	461.5	 2350	 1111	501.9	603.2	679.0	758.9	810.7	836.1	827.7	780.3	740.8	688.0	646.2	609.7	590.3	559.2	548.7	534.9	510.8	507.0	498.9	494.9	495.5	493.2	488.4	478.0	461.8	445.8	411.4	371.5	318.1	278.1	247.3	248.7	220.6	149.5	115.1	94.42	77.73	62.78	50.11	44.13	60.82	134.2	284.4	 1660	 3956	 1384	21.05	4.040	2.940	2.951	2.697	2.586	3.144	3.135	2.673	2.935	3.268	3.202	3.343	3.503	3.113	3.046	3.103	2.712	3.252	3.178	2.810	2.961	3.136	2.946	3.171	3.264	2.928
465.0	153.6	254.5	 1762	 2229	500.5	568.5	628.8	703.4	754.9	785.8	782.8	734.0	704.6	644.8	610.6	580.7	544.4	533.4	509.0	493.3	478.7	469.5	466.6	458.0	461.0	461.0	457.5	452.2	436.6	422.4	395.7	353.0	307.7	272.8	237.9	219.9	227.8	177.9	123.8	99.73	81.95	65.99	53.18	43.30	39.12	52.25	81.91	412.7	 2174	 3609	300.1	13.48	4.054	3.383	3.037	2.762	2.811	2.979	2.976	2.968	3.242	3.236	3.350	3.384	2.871	2.708	2.956	2.536	3.155	2.923	3.071	2.805	2.959	2.811	2.855	3.065	3.347
470.0	144.2	186.4	768.1	 2876	 1218	501.3	579.0	653.1	719.8	730.4	732.2	679.3	635.6	590.5	573.7	529.9	498.0	480.2	463.5	442.0	426.3	421.3	418.1	413.0	413.1	411.9	413.0	411.3	403.2	388.3	362.8	329.2	296.0	258.3	224.0	203.4	194.7	187.5	144.6	106.5	86.37	71.96	58.03	47.13	39.37	37.14	37.97	108.5	534.9	 1754	 2278	 1297	24.20	4.218	3.324	3.005	2.827	2.792	3.259	2.690	3.007	2.835	3.064	3.095	2.803	2.742	2.841	2.431	2.748	2.704	2.659	2.602	2.404	2.610	2.787	2.514	2.836
475.0	144.6	172.1	358.1	 1729	 2875	577.4	532.2	589.8	651.6	654.8	661.5	629.4	580.1	542.3	522.3	485.1	453.4	424.8	417.7	398.8	381.3	371.0	367.1	365.7	367.5	374.3	369.9	365.5	359.0	353.8	329.5	305.4	273.6	243.2	211.3	190.1	170.1	165.2	162.5	121.6	90.80	75.69	63.02	50.55	41.62	35.34	30.40	43.39	134.1	403.8	795.9	 2519	 1594	35.65	4.182	3.851	2.765	2.824	2.607	2.626	2.587	2.663	2.803	2.711	2.542	2.643	2.362	2.358	2.154	2.224	2.342	2.283	1.945	2.396	1.950	2.380	2.282
480.0	131.9	190.1	247.9	770.1	 3476	 1034	488.1	544.6	603.2	614.1	618.8	594.2	538.1	512.6	483.3	448.3	419.5	396.3	385.7	361.6	346.8	342.5	334.5	336.0	335.3	342.4	343.8	340.2	333.4	328.1	309.4	287.4	259.5	231.1	203.4	186.1	161.6	147.9	152.9	139.3	98.05	76.09	63.82	53.18	43.34	36.91	31.65	29.84	45.07	103.5	191.6	 1037	 2815	 1173	23.00	3.715	3.034	2.688	2.614	2.748	2.689	2.820	2.754	2.449	2.652	2.058	2.242	2.253	2.251	2.316	2.037	2.275	2.055	2.174	2.058	2.601	2.533
485.0	114.7	191.8	221.6	395.7	 2511	 2309	501.3	521.8	562.3	586.7	584.1	553.1	505.7	475.3	445.4	412.8	390.3	366.9	359.3	330.3	324.1	315.8	313.2	312.6	310.8	310.8	314.3	310.3	313.8	305.4	291.3	267.6	247.4	217.6	196.8	179.2	157.0	139.9	134.9	138.9	111.2	78.10	64.97	54.08	45.89	39.63	32.01	27.46	27.21	36.43	53.77	254.2	 1427	 2658	341.2	12.40	3.692	2.851	2.924	2.824	2.709	2.756	2.689	2.385	2.504	2.178	1.981	2.108	2.276	1.935	2.167	1.993	2.134	2.088	2.063	2.069	2.109
490.0	95.13	168.4	224.3	276.2	997.3	 2856	 1205	490.3	507.4	539.9	540.4	495.2	468.7	434.4	405.3	382.6	352.8	330.0	313.7	300.5	292.6	282.9	278.7	276.7	281.0	282.2	281.8	281.0	285.9	279.3	268.3	249.0	228.5	205.3	184.4	166.2	148.1	130.6	119.9	119.8	118.0	92.14	69.45	55.66	47.63	40.41	34.00	29.35	25.01	22.58	24.45	66.74	346.4	 1195	 2017	 1138	25.84	3.467	2.917	2.556	2.445	2.397	2.232	2.155	2.257	2.066	2.255	1.979	2.128	2.215	2.070	1.729	1.769	1.990	1.646	1.797	1.818
495.0	78.52	128.3	221.2	245.8	433.2	 1630	 2615	543.4	445.3	476.8	481.3	439.5	425.4	394.2	364.5	346.9	318.1	299.5	288.5	271.4	257.7	248.8	243.5	246.8	243.2	249.1	246.1	254.2	254.9	247.6	241.5	223.4	209.0	186.3	170.8	151.6	136.1	124.3	111.8	104.0	102.2	101.2	76.95	57.85	49.08	42.45	35.50	30.22	25.25	21.00	18.46	26.21	85.38	274.4	674.7	 2180	 1552	35.88	3.789	2.739	2.874	2.715	2.220	2.178	2.080	2.300	1.846	1.955	1.671	1.815	1.933	1.746	1.812	1.845	1.528	2.048	1.646
500.0	69.92	103.6	213.7	234.2	297.1	721.5	 2917	 1177	413.9	436.2	445.3	417.4	384.9	360.0	334.9	314.8	295.9	274.8	262.3	247.4	235.4	225.6	216.9	222.6	223.8	221.1	223.5	226.9	229.4	223.5	220.6	207.2	188.9	169.3	154.9	143.2	128.5	116.2	105.5	94.08	90.75	94.70	86.49	60.92	47.35	43.36	36.05	31.32	25.27	20.42	16.83	15.80	28.23	68.58	160.4	888.5	 2594	 1110	23.95	3.262	2.626	2.686	2.177	2.046	1.921	1.824	1.828	1.833	1.609	1.751	1.729	1.704	1.312	1.597	1.656	2.149	1.422
505.0	61.26	86.74	188.7	246.0	237.4	342.7	 2070	 2307	426.5	415.9	393.3	385.1	356.5	330.1	307.3	288.4	262.9	246.0	239.4	221.4	213.5	205.7	199.2	202.2	205.2	205.3	203.0	205.4	212.2	210.1	204.0	188.6	174.9	161.1	144.6	133.5	123.0	111.1	99.81	89.12	81.67	82.03	86.36	65.98	49.55	42.11	35.71	30.75	26.37	21.18	17.88	14.85	15.15	23.31	42.51	214.5	 1289	 2522	362.6	10.79	3.194	2.525	2.289	2.076	2.011	1.866	1.682	1.645	1.547	1.472	1.291	1.267	1.541	1.322	1.383	1.678	1.496
510.0	56.39	81.71	136.9	233.5	227.4	263.0	847.8	 2843	 1134	362.8	351.5	336.7	319.4	297.5	270.1	251.4	236.6	222.1	212.4	195.8	188.8	181.1	178.5	178.6	178.1	180.5	178.5	184.2	184.1	184.8	179.5	170.7	155.1	146.0	131.5	122.1	109.8	100.7	91.02	82.64	73.88	69.25	70.82	70.82	54.55	41.67	34.39	30.52	26.33	21.57	18.15	15.06	12.68	13.34	16.18	54.14	311.7	 1134	 1815	861.5	24.89	3.110	2.305	1.858	1.823	1.612	1.430	1.524	1.488	1.193	1.373	1.306	1.270	1.421	1.165	1.288	1.253
515.0	44.51	71.01	109.2	183.3	233.6	210.9	369.4	 1574	 2683	474.8	311.4	291.9	270.6	264.5	245.2	224.9	212.3	192.3	183.2	168.9	166.2	158.8	153.7	157.1	154.4	154.2	155.5	156.9	161.2	161.7	157.7	147.8	137.5	127.6	116.9	109.0	98.92	88.14	82.27	74.68	68.30	60.39	58.48	60.97	59.47	45.83	32.43	29.24	25.40	21.44	18.50	16.67	12.59	11.18	10.36	18.31	75.47	259.0	611.2	 1851	 1218	33.49	3.056	1.976	1.597	1.593	1.045	1.393	1.333	1.144	1.021	1.185	1.154	1.151	1.131	1.303	0.911
520.0	48.00	67.64	103.9	145.9	255.2	193.9	244.7	660.3	 3153	 1109	280.9	268.1	261.0	239.9	230.0	202.0	186.9	179.3	164.6	152.4	146.0	143.2	140.2	138.2	136.8	137.9	139.3	142.2	146.9	145.4	141.6	133.7	124.2	112.6	108.8	100.6	92.92	82.35	76.80	70.22	63.61	57.14	52.69	52.08	56.46	50.21	36.64	28.08	25.31	20.06	17.28	15.69	13.54	11.21	9.849	10.39	22.70	63.27	144.7	787.0	 2046	399.4	19.47	2.545	1.725	1.453	1.352	1.273	1.239	0.965	0.921	1.089	1.097	0.972	1.217	0.990	0.739
525.0	41.25	68.53	96.30	115.8	244.2	199.0	193.3	327.6	 2221	 2476	288.8	244.2	234.7	212.6	203.6	181.6	171.6	158.8	147.3	139.1	133.4	130.4	126.7	124.3	126.3	122.8	126.4	127.4	130.8	130.4	127.7	119.2	113.3	104.8	98.66	93.15	83.30	75.58	68.98	65.36	58.33	52.47	49.25	45.88	47.03	49.67	39.73	28.61	23.56	20.86	17.76	15.69	13.36	11.89	9.648	9.502	11.50	20.21	37.75	190.8	 1044	 1822	320.5	7.074	1.938	1.702	1.226	1.326	1.004	1.047	0.856	0.666	1.113	0.958	0.877	0.691	0.811
530.0	34.88	47.76	80.35	103.1	175.4	230.1	176.6	221.0	853.6	 3141	 1003	217.2	200.5	190.1	178.7	160.4	148.2	137.7	130.7	123.6	117.6	113.5	109.4	104.8	109.5	108.2	108.3	110.8	112.6	114.2	110.1	104.3	100.9	91.76	86.11	80.04	73.59	68.47	62.32	57.97	52.33	47.05	44.23	39.81	39.34	42.39	41.92	31.92	23.59	20.02	17.02	14.60	12.70	11.57	9.905	8.777	8.504	10.20	13.61	47.60	253.2	867.3	 1342	613.8	21.77	1.951	1.317	1.251	0.912	0.967	0.805	0.587	0.786	0.808	0.765	0.679	0.896
535.0	24.40	40.51	63.64	82.66	125.6	217.8	191.2	183.7	342.5	 1631	 2782	292.0	175.0	168.4	151.2	137.2	126.5	115.3	108.7	105.8	100.3	97.32	94.18	93.91	93.10	92.71	91.60	94.14	95.10	97.67	95.20	88.36	87.06	78.24	73.89	68.47	64.68	59.64	54.11	50.81	46.76	42.08	38.41	35.62	33.57	32.58	37.11	35.40	26.56	18.91	16.07	13.68	11.94	11.37	10.13	8.820	7.918	7.429	7.800	15.35	60.64	197.7	467.6	 1376	413.3	26.10	1.469	1.299	1.155	1.240	0.891	0.610	0.696	0.613	0.724	0.680	0.615
540.0	29.90	42.61	53.72	72.96	106.1	171.9	205.4	159.4	207.6	620.9	 3208	887.7	159.2	145.1	136.3	120.9	112.1	105.6	99.41	94.79	88.19	84.33	80.07	83.37	83.19	83.43	85.54	85.29	85.10	91.81	84.59	78.77	77.68	69.33	65.42	60.17	56.25	53.58	48.94	46.22	42.75	38.85	35.22	32.25	30.02	28.23	30.31	32.77	27.37	18.79	15.34	13.59	11.64	10.54	9.503	8.422	7.550	6.739	6.886	8.180	17.41	48.02	110.3	598.9	 1380	359.3	11.47	1.365	1.191	1.051	0.804	0.667	0.761	0.866	0.447	0.505	0.574
545.0	30.58	42.58	52.01	62.84	90.35	132.5	225.1	151.3	168.3	267.5	 2134	 2155	163.4	133.4	121.7	108.2	100.7	88.45	86.21	83.57	78.54	76.07	72.29	73.50	75.12	73.51	74.11	75.29	74.18	78.46	75.86	70.42	67.76	62.85	58.63	53.57	49.99	46.88	43.23	40.78	38.37	34.61	32.09	30.28	27.45	25.35	24.44	28.22	28.64	20.60	14.69	12.47	10.31	10.08	9.216	8.812	7.980	6.005	6.298	6.180	7.468	14.66	28.17	145.6	775.1	 1283	252.0	3.538	1.376	1.230	0.832	0.940	0.769	0.672	0.647	0.622	0.479
550.0	32.22	34.48	49.79	61.57	67.72	91.24	185.1	174.2	136.1	174.3	748.8	 2777	791.9	116.3	107.5	92.93	83.51	77.36	75.02	70.59	66.88	62.81	61.68	62.10	61.09	60.92	61.52	62.77	62.26	64.36	63.32	59.39	55.93	51.97	48.50	47.09	43.37	39.55	37.67	34.53	33.01	29.71	27.89	25.43	23.67	22.03	20.51	21.05	23.61	21.75	15.51	11.71	9.883	8.519	8.209	7.704	7.552	6.525	5.656	5.251	5.220	6.756	9.523	35.41	189.8	641.6	952.0	234.8	17.23	1.118	0.995	0.798	0.725	0.598	0.494	0.454	0.358
555.0	40.37	37.35	48.20	51.55	57.00	77.31	124.7	207.2	134.0	141.9	272.8	 1336	 2433	159.9	89.26	77.58	70.72	60.13	60.59	58.16	55.53	50.43	51.08	48.56	50.66	48.74	49.84	52.10	50.06	52.14	51.11	49.02	47.16	42.63	40.95	38.31	35.61	32.87	31.47	28.31	28.08	25.35	22.61	20.98	19.69	18.24	17.54	16.35	16.53	18.42	17.01	12.17	8.958	7.468	6.799	6.704	6.238	5.706	6.247	5.042	4.258	4.741	4.771	10.47	44.82	145.9	353.8	909.8	366.7	17.46	1.300	0.861	0.503	0.558	0.475	0.282	0.392
560.0	37.51	42.54	53.47	53.82	54.21	66.65	85.21	183.8	151.2	126.8	156.6	466.2	 2831	352.6	74.75	68.31	64.29	54.54	49.36	49.12	46.86	44.51	43.90	42.10	42.03	40.97	42.42	43.68	42.16	44.90	42.27	41.11	40.96	35.31	35.38	30.85	31.01	28.54	26.26	24.20	22.94	21.59	18.80	18.88	16.88	16.11	14.72	13.82	12.93	14.83	16.13	12.96	8.374	6.589	6.089	6.501	5.421	5.174	5.485	4.758	4.325	4.046	3.498	4.984	12.31	34.84	84.14	434.5	925.6	266.0	5.583	1.116	0.558	0.383	0.364	0.443	0.221
565.0	32.70	43.41	44.12	45.83	55.96	60.46	64.12	142.9	179.6	111.9	131.3	192.0	 1816	 1664	80.15	59.25	51.82	46.42	43.46	40.95	39.42	38.87	37.78	34.60	35.67	34.70	34.62	36.07	36.88	35.65	36.39	35.40	34.07	30.90	30.08	27.27	25.80	23.56	23.69	20.97	20.60	17.84	17.06	15.68	14.22	14.38	12.67	11.39	10.98	11.39	13.64	12.64	9.307	5.914	5.623	5.482	5.188	5.377	5.578	5.036	4.435	3.764	3.564	3.449	5.112	10.23	20.96	108.1	553.1	784.7	51.86	2.082	0.654	0.454	0.270	0.363	0.218
570.0	37.75	34.51	48.28	39.85	46.16	50.90	54.88	91.94	185.1	125.7	110.7	122.9	602.2	 2270	554.2	47.22	41.76	38.18	34.56	33.49	30.82	30.66	28.24	27.00	28.36	27.84	28.49	28.81	29.68	29.30	28.83	27.35	27.51	24.58	23.99	21.92	20.48	19.45	18.00	16.88	16.31	13.99	13.99	12.70	11.68	11.10	10.39	9.521	9.160	8.595	9.371	10.07	9.395	6.535	4.931	4.682	4.722	4.634	4.171	4.459	4.127	3.782	3.517	3.362	3.469	4.629	7.066	26.06	138.3	420.2	472.4	196.3	11.01	0.556	0.341	0.315	0.218
575.0	32.37	48.78	47.01	43.23	39.86	44.76	48.21	71.32	135.5	162.3	101.8	101.3	198.3	 1046	 1911	80.47	32.52	30.19	28.08	26.47	24.78	24.60	22.09	21.00	20.65	22.33	21.96	21.92	22.23	21.29	21.97	21.74	19.52	18.44	18.33	16.81	16.88	14.77	13.81	12.97	12.24	11.84	10.49	10.58	9.717	8.271	8.112	7.246	7.130	6.545	5.955	6.727	8.176	6.734	4.700	3.741	4.035	3.917	3.807	3.769	3.746	3.883	3.276	3.308	2.787	3.100	3.652	7.779	32.73	95.63	201.3	548.4	236.4	7.203	0.509	0.363	0.285
580.0	28.89	45.42	44.46	47.37	35.43	40.99	47.34	58.08	104.1	190.0	113.2	94.35	108.6	343.0	 2248	241.3	29.36	24.57	23.29	23.02	20.54	20.44	20.22	18.56	17.58	18.29	18.89	17.43	18.97	17.74	18.18	17.91	17.07	15.86	15.30	14.96	13.64	12.05	12.11	11.66	10.63	9.971	8.746	8.746	7.752	7.721	7.343	6.424	6.044	5.418	5.112	4.694	6.264	6.898	5.328	3.550	3.660	3.118	3.223	3.319	3.018	3.209	3.139	3.228	2.317	2.664	2.740	3.457	9.142	22.65	48.43	274.0	530.7	55.10	2.380	0.393	0.272
585.0	35.70	37.31	46.20	42.19	35.96	38.66	37.10	49.89	76.29	170.5	136.7	94.48	85.07	126.5	 1387	 1223	33.71	21.88	20.05	18.45	17.29	16.96	16.54	15.36	15.75	14.83	16.80	15.52	16.09	16.61	16.62	16.13	14.09	12.96	13.24	11.71	10.78	10.43	10.06	9.788	8.973	7.898	7.636	7.592	7.204	6.415	5.820	5.393	5.444	4.948	4.482	3.906	4.588	5.995	5.276	4.263	2.874	2.668	2.929	2.654	2.745	3.094	2.981	2.808	2.168	2.399	2.308	2.513	3.546	6.258	11.86	69.11	339.3	416.3	42.47	0.741	0.295
590.0	34.62	34.84	44.85	40.51	37.74	36.24	37.07	45.83	62.69	121.7	168.3	98.83	82.65	74.16	435.2	 1667	372.9	19.18	16.14	16.02	14.44	14.11	12.95	12.55	12.14	12.12	13.84	13.19	13.33	12.63	13.50	12.50	11.39	10.56	10.74	9.877	9.332	8.639	7.727	8.233	7.072	6.652	6.255	6.039	5.718	5.201	4.943	4.604	4.317	4.105	3.761	3.027	3.164	4.132	4.668	4.222	3.158	2.685	2.501	2.273	2.318	2.204	2.428	2.715	2.527	1.964	1.765	1.956	1.879	2.648	3.457	16.44	85.55	247.9	313.5	117.1	5.438
595.0	29.52	36.65	40.16	42.15	31.72	36.35	37.48	45.00	58.06	88.55	166.7	115.9	85.91	62.04	128.6	743.1	 1325	38.90	13.90	13.55	11.19	10.81	10.40	10.58	9.343	10.32	10.27	10.64	10.02	10.28	10.00	9.717	8.349	8.379	8.131	7.900	6.964	7.285	6.631	6.760	5.540	5.377	5.265	4.900	4.795	3.927	3.656	4.180	3.460	3.128	2.985	2.511	2.458	2.756	3.329	4.243	3.113	2.493	1.964	1.837	1.885	1.504	1.962	1.897	2.149	1.892	1.226	1.517	1.050	1.672	1.260	4.492	19.55	56.41	137.3	332.7	59.20
600.0	25.65	30.64	38.52	43.09	32.99	36.32	30.97	42.36	55.51	71.81	129.5	149.6	85.55	61.35	60.81	225.4	 1537	166.2	11.75	10.83	9.584	9.212	8.537	9.329	8.314	8.443	8.756	8.990	9.270	8.281	8.216	7.509	7.136	6.963	6.325	6.682	5.871	6.148	5.528	5.194	5.142	4.333	4.678	4.345	3.921	3.690	2.861	3.327	2.851	2.539	2.331	2.012	2.159	2.267	2.253	3.529	3.573	2.210	1.473	1.521	1.516	1.395	1.544	1.341	2.004	1.814	1.259	1.328	0.950	1.315	0.843	1.618	4.995	12.94	32.71	178.5	293.3
605.0	23.51	29.14	35.73	36.02	36.24	27.09	38.04	41.78	53.81	63.25	103.0	169.8	90.70	57.42	47.59	76.02	937.9	818.6	13.95	9.046	8.595	7.574	7.143	7.712	6.826	7.473	7.467	7.136	7.224	6.789	7.319	6.759	5.644	5.918	5.154	5.248	4.755	5.162	4.479	4.192	4.100	3.869	3.448	3.886	3.226	3.057	2.583	2.700	2.524	2.026	2.112	1.739	1.990	1.660	1.838	2.351	3.315	2.517	1.830	1.499	1.255	1.385	1.228	1.121	1.370	1.599	1.506	1.231	0.998	0.957	0.703	0.837	1.426	3.337	7.648	45.57	207.0
610.0	22.29	29.97	35.29	37.44	31.22	27.16	34.78	40.95	48.87	60.17	84.19	144.9	118.3	65.54	44.79	41.60	287.8	 1146	252.6	8.526	6.750	6.671	5.861	5.945	6.037	5.929	5.895	5.420	6.097	5.921	5.474	5.396	4.797	4.459	4.385	4.350	3.746	3.965	3.934	3.513	3.274	2.995	2.670	3.172	2.321	2.422	2.048	2.234	1.874	1.785	1.872	1.518	1.503	1.314	1.341	1.606	2.295	2.298	2.056	1.443	1.154	1.104	1.207	1.041	1.001	1.104	1.281	1.232	0.864	0.890	0.653	0.605	0.651	0.934	1.976	10.47	53.20
615.0	23.30	24.13	33.84	31.49	26.46	27.27	36.34	38.52	49.93	56.15	79.12	114.0	144.1	79.56	51.15	37.77	83.68	528.0	940.1	27.67	5.998	5.403	4.455	4.669	3.956	5.005	4.061	4.681	4.890	4.765	4.515	4.477	3.986	3.522	3.520	3.363	2.981	3.171	2.878	2.426	2.709	2.190	2.148	2.394	1.897	1.586	1.857	1.371	1.471	1.433	1.413	1.205	0.953	0.937	0.902	1.075	1.226	1.884	2.038	1.517	1.118	0.711	0.979	0.806	0.814	0.643	0.926	1.334	1.009	1.041	0.465	0.388	0.458	0.447	0.641	2.665	12.03
620.0	20.31	26.90	29.48	33.89	29.09	26.14	36.85	41.00	47.67	59.49	78.68	98.32	142.0	93.36	56.68	40.25	39.09	161.9	 1113	131.6	5.815	4.771	3.771	3.897	3.613	3.989	3.534	3.974	4.225	3.663	3.166	3.071	3.202	3.195	2.871	2.980	2.520	2.750	2.344	2.148	2.253	1.743	1.695	2.027	1.743	1.455	1.496	1.224	1.203	1.224	1.241	1.296	0.806	0.988	0.877	1.096	1.048	1.317	1.718	1.683	1.047	0.732	0.883	0.706	0.812	0.699	0.725	0.973	1.352	1.055	0.447	0.343	0.344	0.203	0.297	0.700	2.753
625.0	16.81	21.81	29.88	34.55	30.10	25.42	30.85	37.98	46.47	58.15	74.37	86.68	124.0	115.2	58.96	38.34	31.29	50.97	704.0	623.9	8.197	4.504	3.595	3.281	3.284	3.218	3.313	2.905	2.942	3.588	2.791	3.132	2.884	2.713	2.774	2.347	2.243	2.046	2.090	2.053	1.806	1.511	1.606	1.457	1.424	1.217	1.436	1.398	1.171	1.121	0.874	1.029	0.784	0.819	0.671	0.945	0.689	0.853	1.146	1.486	0.931	0.954	0.727	0.655	0.685	0.545	0.643	0.817	1.147	0.870	0.748	0.376	0.330	0.347	0.136	0.187	0.738
630.0	14.82	22.24	27.55	27.33	21.11	25.55	32.61	34.00	43.38	56.10	69.89	77.22	99.65	128.6	68.98	43.78	30.71	26.24	211.9	874.5	189.6	3.545	3.282	2.943	2.528	2.398	2.393	2.102	2.528	2.553	2.257	2.197	2.372	2.243	1.958	1.787	1.807	1.632	1.531	1.483	1.431	1.385	1.290	1.227	1.165	1.022	1.039	1.022	1.099	0.836	0.825	0.827	0.758	0.579	0.515	0.687	0.566	0.722	1.021	1.036	1.150	0.808	0.653	0.512	0.667	0.571	0.578	0.690	0.645	0.789	0.685	0.454	0.328	0.262	0.270	0.126	0.235
635.0	16.65	15.10	26.62	25.29	29.26	29.93	24.76	29.90	38.58	54.14	60.38	68.34	84.07	115.8	92.42	44.41	29.47	20.37	57.66	392.1	699.5	17.72	3.340	2.221	2.237	1.977	1.999	1.848	2.169	1.722	1.698	2.057	1.859	1.866	1.303	1.488	1.145	1.440	1.009	1.373	0.983	1.050	1.216	0.895	1.002	0.804	0.790	0.765	0.754	0.709	0.753	0.623	0.629	0.461	0.500	0.531	0.442	0.379	0.474	0.574	0.986	0.696	0.679	0.565	0.498	0.459	0.453	0.644	0.321	0.619	0.491	0.619	0.427	0.353	0.248	0.058	0.144
640.0	19.73	13.70	27.17	28.99	27.47	26.81	25.56	32.95	37.51	48.70	63.40	70.52	76.87	96.93	102.7	47.94	31.59	22.96	22.91	114.2	837.4	107.0	3.025	2.143	2.016	1.743	1.270	1.613	1.922	1.632	1.597	1.031	1.325	1.373	1.135	1.184	1.295	1.323	1.071	0.886	0.929	0.862	0.905	0.628	0.596	0.600	0.683	0.680	0.795	0.626	0.468	0.481	0.399	0.428	0.301	0.593	0.302	0.418	0.396	0.499	0.721	0.766	0.511	0.413	0.504	0.424	0.450	0.392	0.381	0.319	0.327	0.433	0.484	0.358	0.170	0.069	0.163
645.0	17.59	24.19	33.96	27.89	24.09	24.68	27.40	32.16	38.11	46.75	57.95	70.76	79.91	80.36	105.0	58.40	32.65	22.92	15.25	32.68	536.0	456.2	5.757	2.073	2.084	1.718	1.624	1.710	1.443	1.352	1.555	1.280	1.165	0.928	1.038	0.939	1.225	1.008	0.812	0.864	0.758	0.793	0.800	0.748	0.495	0.528	0.476	0.547	0.523	0.473	0.490	0.342	0.485	0.361	0.236	0.353	0.346	0.423	0.500	0.252	0.534	0.572	0.612	0.687	0.388	0.326	0.398	0.256	0.368	0.409	0.294	0.467	0.488	0.270	0.157	0.206	0.030
650.0	28.45	35.44	39.19	36.56	23.72	22.36	22.31	28.91	40.40	50.01	58.09	71.80	79.87	76.92	96.85	73.18	35.62	22.74	14.62	14.15	191.1	729.1	45.69	1.627	1.711	1.621	1.335	1.364	1.493	1.090	1.170	0.775	0.760	1.026	0.879	1.177	0.838	0.953	0.883	0.531	0.846	0.699	0.907	0.820	0.395	0.501	0.445	0.577	0.700	0.427	0.403	0.379	0.384	0.399	0.169	0.451	0.265	0.291	0.590	0.286	0.398	0.371	0.576	0.659	0.410	0.375	0.285	0.305	0.350	0.485	0.327	0.291	0.256	0.740	0.130	0.228	0.037
