Sample:	'1
File name:	G2025080810»ôÆÂÇÅ.FD3
Run date:	'13:59:27, 08/11/2025
Operator:	Administrator
Comment:	'

Instrument
Model:	F-2700 FL Spectrophotometer
Serial number:	23B8-004
ROM Version:	4J14000 07

Instrument parameters
Measurement type:	3-D scan
Data mode:	Fluorescence
EX  Start WL:	220.0 nm
EX  End WL:	600.0 nm
EX Sampling interval:	5.0 nm
EM  Start WL:	230.0 nm
EM  End WL:	650.0 nm
EM Sampling interval:	5.0 nm
Scan speed:	12000 nm/min
EX Slit:	5.0 nm
EM Slit:	5.0 nm
PMT Voltage:	700 V
Response:	Auto 
Corrected spectra:	Off
Contour interval:	50.000

Peak integration
Integration method:	Rectangular
Sensitivity:	1
Threshold:	1.000

Peaks
No.	ApexEX/EM(nm)	Height(Data)
1	225.0/615.0	82.62
2	230.0/340.0	3371
3	230.0/640.0	98.00
4	240.0/525.0	316.5
5	245.0/535.0	268.3
6	250.0/550.0	207.0
7	255.0/280.0	642.2
8	255.0/560.0	174.3
9	260.0/285.0	615.4
10	260.0/575.0	138.3
11	265.0/585.0	126.3
12	275.0/615.0	213.3
13	280.0/320.0	3609
14	280.0/625.0	193.8
15	440.0/520.0	37.97
16	475.0/340.0	9.714
17	505.0/275.0	3.019
18	515.0/280.0	3.055
19	520.0/285.0	3.775
20	565.0/315.0	13.89
21	580.0/320.0	14.29
22	585.0/325.0	13.65

Data points
	220.0	225.0	230.0	235.0	240.0	245.0	250.0	255.0	260.0	265.0	270.0	275.0	280.0	285.0	290.0	295.0	300.0	305.0	310.0	315.0	320.0	325.0	330.0	335.0	340.0	345.0	350.0	355.0	360.0	365.0	370.0	375.0	380.0	385.0	390.0	395.0	400.0	405.0	410.0	415.0	420.0	425.0	430.0	435.0	440.0	445.0	450.0	455.0	460.0	465.0	470.0	475.0	480.0	485.0	490.0	495.0	500.0	505.0	510.0	515.0	520.0	525.0	530.0	535.0	540.0	545.0	550.0	555.0	560.0	565.0	570.0	575.0	580.0	585.0	590.0	595.0	600.0
230.0	63.86	1388	3980	1461	74.76	9.257	7.750	6.731	6.390	5.606	5.276	5.119	4.149	3.655	3.235	2.514	2.215	2.057	1.819	1.576	1.460	1.270	1.168	1.146	1.034	1.048	0.988	0.845	0.853	0.795	0.739	0.627	0.630	0.579	0.598	0.492	0.468	0.558	0.465	0.451	0.449	0.521	0.555	0.450	0.390	0.418	1.286	6.121	11.94	9.370	3.770	0.865	0.349	0.314	0.290	0.305	0.325	0.296	0.306	0.306	0.289	0.275	0.285	0.269	0.305	0.266	0.282	0.261	0.288	0.297	0.271	0.285	0.263	0.275	0.272	0.306	0.308
235.0	120.5	384.5	2137	4114	745.7	120.3	9.682	8.040	7.644	5.771	5.541	5.142	4.483	4.337	3.560	2.808	2.600	1.882	1.940	1.635	1.496	1.385	1.306	1.189	1.079	0.878	0.920	0.865	0.910	0.811	0.794	0.884	0.725	0.580	0.561	0.481	0.535	0.461	0.412	0.502	0.426	0.447	0.531	0.587	0.492	0.447	0.592	1.727	4.110	7.749	12.27	13.81	6.920	1.797	0.446	0.343	0.266	0.322	0.263	0.306	0.277	0.323	0.314	0.245	0.294	0.316	0.285	0.263	0.293	0.254	0.263	0.334	0.271	0.251	0.334	0.319	0.254
240.0	155.1	196.3	605.5	3055	4434	611.7	61.78	9.273	7.837	7.320	6.224	6.178	4.622	4.118	3.624	2.917	2.394	2.213	2.019	1.762	1.569	1.426	1.268	1.132	1.050	0.950	0.957	0.808	0.968	0.844	0.729	0.767	0.582	0.539	0.639	0.465	0.486	0.479	0.481	0.445	0.481	0.387	0.478	0.493	0.564	0.676	0.680	0.825	1.176	2.260	5.715	14.07	19.58	15.48	6.231	1.197	0.335	0.346	0.332	0.304	0.281	0.290	0.348	0.262	0.266	0.324	0.303	0.305	0.298	0.255	0.317	0.334	0.309	0.265	0.321	0.334	0.252
245.0	113.2	227.2	223.1	954.5	4232	4454	474.1	28.72	9.837	8.224	7.012	5.716	5.170	4.435	3.308	3.075	2.568	2.353	1.789	1.727	1.575	1.401	1.355	1.086	1.125	0.941	0.993	1.093	0.969	0.709	0.732	0.781	0.691	0.577	0.635	0.443	0.600	0.537	0.502	0.518	0.436	0.396	0.450	0.404	0.489	0.677	0.738	0.878	0.617	0.824	1.510	4.220	11.47	21.19	23.21	14.56	5.055	0.660	0.300	0.356	0.292	0.347	0.306	0.340	0.301	0.296	0.315	0.310	0.277	0.288	0.305	0.261	0.350	0.271	0.287	0.316	0.327
250.0	57.93	142.4	264.4	330.0	1264	3897	5138	1744	126.0	11.18	8.937	7.582	6.058	5.148	4.041	3.221	2.909	2.254	2.062	1.754	1.703	1.562	1.313	1.184	1.270	1.080	1.066	0.959	0.999	0.826	0.829	0.801	0.659	0.632	0.705	0.509	0.612	0.497	0.506	0.493	0.474	0.489	0.471	0.466	0.398	0.537	0.566	0.766	0.980	0.976	0.854	1.367	2.908	6.207	11.86	18.83	25.35	24.41	14.18	5.309	0.979	0.377	0.342	0.312	0.311	0.320	0.309	0.339	0.261	0.325	0.323	0.295	0.309	0.293	0.311	0.293	0.327
255.0	45.44	60.22	154.1	358.2	411.5	954.5	3399	8301	2575	159.3	12.53	9.179	7.940	5.928	4.619	3.664	2.815	2.707	2.236	1.895	1.755	1.513	1.399	1.246	1.374	1.075	1.078	1.137	0.966	0.864	0.899	0.636	0.787	0.620	0.720	0.585	0.601	0.575	0.440	0.491	0.492	0.531	0.476	0.417	0.467	0.398	0.443	0.461	0.527	0.761	1.176	1.614	1.307	1.678	2.934	4.618	7.965	17.32	35.50	32.81	23.25	6.888	0.726	0.400	0.410	0.307	0.330	0.344	0.318	0.265	0.351	0.287	0.345	0.332	0.291	0.319	0.301
260.0	38.70	37.87	67.14	260.3	378.5	290.0	956.7	5701	9823	2049	92.40	13.81	10.03	6.451	5.656	4.066	3.341	2.768	2.242	2.025	1.954	1.618	1.491	1.302	1.248	1.131	1.017	1.152	0.942	0.953	0.910	0.894	0.752	0.687	0.702	0.645	0.537	0.600	0.462	0.502	0.487	0.507	0.447	0.394	0.428	0.465	0.368	0.410	0.390	0.405	0.684	1.724	1.671	1.292	1.073	1.337	2.206	4.445	12.43	27.80	47.94	33.18	20.39	4.358	0.536	0.402	0.359	0.338	0.343	0.299	0.342	0.384	0.377	0.353	0.311	0.376	0.312
265.0	43.45	33.51	39.10	116.2	382.7	312.2	267.4	1728	8364	9999.9	1528	38.64	12.17	8.749	6.350	4.892	3.623	3.263	2.348	2.116	2.161	1.811	1.653	1.456	1.197	1.062	1.151	1.225	1.000	1.033	0.964	0.920	0.976	0.680	0.645	0.646	0.636	0.561	0.473	0.504	0.565	0.481	0.478	0.426	0.482	0.427	0.343	0.400	0.421	0.334	0.412	0.856	1.373	2.080	1.859	0.951	0.858	1.429	3.133	7.469	20.30	40.36	60.80	31.23	15.09	1.986	0.442	0.396	0.405	0.412	0.340	0.374	0.410	0.356	0.304	0.296	0.329
270.0	63.31	47.86	41.67	52.75	170.9	389.3	346.0	459.7	2428	7850	9999.9	3986	95.91	12.68	8.370	5.935	4.487	3.848	3.062	2.492	2.552	1.905	1.851	1.554	1.404	1.259	1.217	1.112	1.031	0.978	0.940	0.965	0.834	0.787	0.789	0.644	0.590	0.622	0.529	0.496	0.556	0.552	0.486	0.515	0.488	0.447	0.412	0.469	0.454	0.376	0.341	0.569	0.676	1.009	1.617	1.869	1.923	1.336	1.215	2.109	5.003	10.80	23.12	35.93	51.95	47.66	36.12	10.90	2.110	0.437	0.381	0.387	0.390	0.388	0.375	0.352	0.355
275.0	97.04	92.21	81.55	58.12	72.99	164.8	486.9	419.5	608.7	1890	5958	9999.9	1678	108.5	12.26	8.986	6.097	4.952	3.765	2.977	2.346	2.290	1.837	1.593	1.674	1.518	1.261	1.165	1.136	1.021	0.963	1.002	0.801	0.728	0.878	0.716	0.657	0.592	0.675	0.552	0.601	0.579	0.570	0.572	0.545	0.551	0.537	0.568	0.513	0.470	0.430	0.493	0.490	0.528	0.748	0.977	1.913	3.019	2.570	1.440	1.617	2.865	5.621	8.510	13.17	23.58	56.70	80.97	32.33	14.99	1.396	0.451	0.477	0.454	0.413	0.362	0.370
280.0	164.7	157.8	121.8	87.03	60.00	86.77	286.1	642.2	355.4	505.8	1628	8574	9999.9	1312	60.23	10.96	7.936	6.078	3.906	3.660	2.528	2.532	1.975	1.866	1.883	1.616	1.360	1.315	1.202	1.096	1.069	1.052	1.036	0.801	0.858	0.714	0.870	0.679	0.709	0.649	0.666	0.588	0.621	0.649	0.599	0.673	0.658	0.685	0.576	0.589	0.531	0.503	0.446	0.521	0.588	0.622	0.989	1.696	2.967	3.055	1.817	1.259	1.709	2.383	3.542	6.032	16.60	41.67	70.36	81.62	28.15	7.886	0.782	0.503	0.470	0.395	0.466
285.0	213.7	220.9	174.2	114.0	68.56	69.80	138.5	491.6	615.4	286.8	498.5	2578	9999.9	9999.9	903.4	25.46	11.47	7.518	5.355	4.224	3.192	2.509	2.330	2.064	1.935	1.693	1.352	1.357	1.282	1.392	1.027	1.067	1.114	1.036	1.041	0.897	0.936	0.857	0.689	0.714	0.673	0.691	0.730	0.757	0.769	0.846	0.801	0.878	0.715	0.644	0.551	0.596	0.612	0.513	0.543	0.559	0.735	1.028	1.451	2.913	3.775	2.413	1.348	1.221	1.474	2.132	4.361	10.51	24.65	54.73	82.67	36.29	21.25	3.296	0.494	0.450	0.426
290.0	282.9	329.5	276.2	176.0	109.4	99.57	126.1	254.3	597.3	603.2	427.1	812.9	2995	9426	9999.9	3042	53.90	11.72	7.654	5.026	4.123	3.247	2.678	2.435	2.026	1.857	1.433	1.480	1.622	1.434	1.081	1.076	1.125	1.026	1.146	1.062	1.105	0.951	0.875	0.859	0.752	0.738	0.854	0.810	0.894	0.958	1.081	1.061	1.027	0.847	0.757	0.739	0.650	0.709	0.668	0.639	0.741	0.906	1.081	1.475	2.275	3.034	3.449	3.106	2.134	1.668	2.065	3.573	6.674	13.88	26.60	37.82	59.55	52.88	47.25	14.29	3.710
295.0	361.5	437.9	421.5	279.6	190.0	177.6	217.0	274.4	425.7	814.3	1022	671.6	1039	2418	6031	9999.9	3974	66.46	12.05	6.380	4.605	3.879	3.205	2.782	2.336	1.796	1.767	1.612	1.627	1.370	1.318	0.998	1.271	1.157	1.164	1.168	1.069	0.938	1.023	0.930	0.910	0.803	1.045	0.965	1.131	1.340	1.219	1.383	1.417	1.081	1.015	1.032	0.886	0.970	0.946	0.991	1.047	1.126	1.324	1.424	1.771	2.047	2.507	3.982	5.405	4.033	2.739	2.735	3.186	4.956	7.430	9.665	15.00	21.27	52.02	84.14	37.47
300.0	500.9	641.1	620.5	446.3	347.3	340.6	434.6	460.2	721.7	1056	1703	1476	1144	1216	2024	8436	9999.9	765.8	45.29	10.13	6.576	4.597	3.675	3.345	2.428	2.244	2.046	1.981	1.560	1.431	1.355	1.190	1.319	1.293	1.229	1.258	1.157	1.138	1.188	1.106	0.993	1.073	1.175	1.139	1.304	1.671	1.758	1.870	1.883	1.683	1.380	1.594	1.512	1.413	1.389	1.606	1.821	1.940	2.317	2.487	2.812	3.120	3.477	4.535	5.664	7.466	6.617	5.639	5.191	4.588	5.069	4.898	6.223	7.347	15.57	36.99	67.92
305.0	723.7	954.2	913.8	688.8	572.9	607.6	820.8	1031	1403	1865	2457	2949	1886	1607	1564	3144	9999.9	9999.9	565.1	20.98	8.762	6.167	4.416	3.471	2.919	2.465	2.102	1.858	1.877	1.584	1.669	1.447	1.247	1.653	1.377	1.330	1.525	1.554	1.476	1.455	1.350	1.424	1.465	1.339	1.620	2.010	2.393	2.686	2.535	2.466	2.025	2.219	2.064	2.153	2.277	2.412	3.005	3.422	3.975	4.385	5.203	5.731	6.322	7.573	8.110	9.324	10.42	11.64	10.27	8.013	7.525	7.499	6.981	7.403	7.860	12.49	23.22
310.0	949.8	1295	1268	976.8	794.4	872.4	1130	1443	1790	2301	2835	3400	3220	2405	1930	1829	3821	9012	8617	2127	36.74	8.737	5.955	4.398	3.686	2.834	2.768	2.296	1.949	1.813	1.811	1.612	1.509	1.634	1.559	1.600	1.637	1.659	1.608	1.548	1.599	1.725	1.644	1.697	2.163	2.574	3.089	3.576	3.585	3.135	2.826	3.178	2.861	2.691	3.094	3.602	4.179	4.967	5.703	5.962	6.410	7.149	7.961	9.007	9.935	10.79	11.30	12.96	13.60	12.83	11.33	9.885	8.768	8.669	7.730	7.985	9.950
315.0	1157	1673	1605	1302	1089	1094	1370	1700	2006	2503	3047	3511	3590	3223	2373	1755	2054	2705	5487	9999.9	2705	39.54	8.937	5.974	4.804	3.710	2.863	2.704	2.333	1.988	1.887	1.821	1.659	1.608	1.548	1.726	1.718	1.910	1.695	1.646	1.697	1.631	1.764	2.043	2.526	3.234	3.744	4.276	4.533	4.082	3.655	4.146	3.713	3.582	3.827	4.417	5.268	5.741	6.294	6.985	7.155	8.026	8.740	10.11	10.60	11.66	12.02	13.30	13.58	13.89	13.74	13.59	11.79	10.27	9.076	8.205	7.807
320.0	1356	1892	1937	1486	1226	1231	1493	1799	2072	2573	3149	3588	3609	3457	2821	1889	1760	1325	1611	7574	9999.9	528.3	21.75	7.838	5.650	4.184	3.669	2.799	2.364	2.231	1.960	1.967	1.762	1.755	1.506	1.669	1.779	1.765	1.760	1.710	1.793	1.704	2.067	2.346	2.487	3.753	4.420	4.973	5.009	4.876	4.166	4.564	4.296	4.073	4.424	4.670	5.527	6.306	6.782	7.268	7.693	8.324	9.394	10.08	10.76	11.89	12.47	13.49	14.21	13.64	13.95	13.78	14.29	12.42	10.44	8.560	8.065
325.0	1428	2149	2252	1727	1328	1286	1507	1794	2003	2459	3021	3456	3504	3225	2979	2038	1665	1033	631.0	2249	9207	4740	73.68	13.38	7.101	4.988	4.019	2.970	2.661	2.502	2.184	1.978	1.610	1.880	1.518	1.736	1.783	1.784	1.904	1.868	1.852	1.854	2.154	2.697	2.827	3.881	4.706	5.572	5.580	5.350	4.609	4.935	4.486	4.347	4.446	4.987	5.668	6.111	6.749	7.404	7.562	7.893	8.868	9.562	10.37	11.43	11.89	12.79	13.56	12.98	13.59	12.79	13.25	13.65	11.91	9.622	8.392
330.0	1585	2349	2705	2355	1782	1453	1488	1709	1877	2261	2780	3200	3253	3000	2683	2181	1732	995.1	498.8	719.9	2660	6281	6656	1600	27.82	7.241	5.307	4.084	3.038	2.626	2.324	1.970	1.721	1.772	1.652	1.691	1.691	1.801	1.888	1.863	1.884	1.904	2.274	2.690	3.271	4.190	5.416	6.253	7.064	6.598	6.192	6.610	6.007	5.960	5.358	4.918	5.628	6.038	6.628	6.830	7.100	7.393	8.107	8.934	9.795	10.62	11.24	12.25	12.60	12.37	12.45	11.85	11.81	11.94	11.24	10.02	9.521
335.0	1693	2623	3281	3096	2542	1814	1506	1668	1767	2108	2585	2984	3090	2890	2541	2093	1952	1197	607.0	496.0	803.2	1594	4715	9576	496.1	30.63	7.065	5.546	3.670	3.169	2.622	2.096	1.949	1.780	1.660	1.618	1.667	1.719	1.819	1.776	1.938	1.941	2.274	2.900	3.356	4.412	5.607	7.023	8.164	8.181	8.334	9.213	8.560	8.145	6.618	5.329	5.660	5.791	6.086	6.401	6.765	6.883	7.603	8.211	9.340	9.922	10.42	11.30	11.79	12.23	11.62	11.42	11.57	11.49	10.64	9.371	9.388
340.0	1681	2676	3371	3243	2733	1903	1501	1577	1656	1952	2378	2746	2866	2706	2386	1938	1813	1364	697.8	475.3	420.7	516.5	1344	6873	8233	431.2	16.45	6.800	4.574	3.647	2.843	2.440	2.290	1.821	1.858	1.828	1.670	1.519	1.830	1.767	1.724	2.047	2.505	2.703	3.235	4.423	5.559	7.144	8.349	8.425	8.347	9.714	9.562	8.597	7.116	5.457	5.553	5.592	6.178	5.938	6.166	6.362	7.032	7.580	8.415	8.935	9.337	9.977	11.00	11.05	11.03	11.22	10.41	10.43	9.699	8.723	8.635
345.0	1631	2507	3210	3148	2643	1822	1430	1454	1537	1762	2133	2440	2575	2460	2176	1780	1575	1341	829.0	505.5	360.1	303.2	443.5	2049	7981	3862	61.48	9.908	5.659	4.069	3.202	2.567	2.171	1.904	1.692	1.706	1.629	1.722	1.795	1.840	1.695	2.075	2.338	2.645	3.288	4.443	5.239	6.778	7.910	8.026	8.429	9.487	9.078	8.508	6.663	5.471	5.649	5.242	6.035	5.597	5.550	5.849	6.536	6.971	7.743	8.097	8.761	9.062	10.03	9.932	10.27	9.881	9.663	9.972	8.979	8.457	7.874
350.0	1485	2261	2995	3088	2688	1847	1390	1358	1410	1601	1882	2154	2262	2192	1972	1642	1432	1168	945.0	679.9	422.8	312.8	293.8	590.2	2324	5179	5327	1305	23.09	5.602	4.076	3.014	2.505	2.096	1.907	1.769	1.773	1.724	1.616	1.703	1.726	1.923	1.981	2.441	3.162	4.037	4.841	6.354	7.473	7.553	8.197	9.452	9.262	8.717	6.730	5.284	5.317	5.199	5.144	5.376	5.250	5.570	5.804	6.081	6.638	7.146	7.521	8.064	8.403	8.753	8.847	9.197	8.951	9.038	8.345	7.769	7.343
355.0	1319	2051	2744	2930	2620	1825	1372	1333	1343	1490	1700	1903	2011	1958	1791	1526	1345	1087	881.0	844.0	590.8	384.9	315.9	309.7	621.2	1270	3870	7470	445.1	25.42	5.583	4.098	3.099	2.205	2.090	2.099	1.831	1.783	1.670	1.590	1.616	1.728	2.032	2.304	3.060	3.622	4.514	6.070	6.422	7.007	7.452	8.990	8.673	8.282	7.048	5.255	5.271	4.972	5.376	4.968	5.075	5.312	5.373	5.722	6.239	6.187	6.528	7.003	7.288	7.754	7.667	7.909	8.208	8.092	7.798	7.107	6.833
360.0	1260	1871	2459	2627	2426	1758	1333	1271	1291	1392	1577	1718	1808	1779	1637	1431	1270	1056	853.0	809.0	730.4	477.3	354.4	274.9	272.3	369.9	1065	5575	6603	384.5	13.13	5.194	3.659	2.737	2.076	2.245	1.857	1.771	1.553	1.500	1.778	1.639	1.852	2.158	2.753	3.359	4.071	5.231	5.963	6.213	6.636	8.141	7.891	7.761	6.680	5.473	5.214	4.933	5.173	4.861	4.988	4.991	5.098	5.368	5.892	5.775	6.071	6.359	7.168	6.953	7.098	7.273	7.533	7.262	6.906	6.870	6.565
365.0	1105	1695	2236	2418	2243	1693	1300	1254	1237	1353	1480	1603	1665	1624	1503	1343	1211	1027	852.2	758.5	752.0	607.8	414.6	300.3	224.9	194.1	311.3	1658	6670	3505	55.59	8.213	4.970	3.337	2.654	2.264	2.046	1.786	1.304	1.765	1.832	1.572	1.631	2.090	2.606	3.150	3.622	4.884	5.362	5.669	5.984	7.663	7.337	7.165	6.362	5.119	4.895	4.917	5.018	4.686	4.965	5.047	5.155	5.266	5.584	5.385	6.039	5.732	6.265	6.305	6.532	6.674	6.797	6.553	6.608	6.618	6.045
370.0	1004	1536	1999	2211	2104	1639	1297	1237	1232	1297	1394	1487	1512	1486	1407	1275	1159	1023	878.1	778.7	712.3	694.1	570.4	380.4	265.6	197.5	176.6	444.5	1951	4681	4810	1147	19.29	4.810	3.193	2.611	2.177	1.928	1.656	1.699	1.626	1.686	1.741	1.996	2.415	2.871	3.400	4.258	4.848	5.174	5.706	7.056	7.002	6.607	6.075	5.014	4.662	4.868	4.736	4.588	4.920	4.888	5.056	5.142	5.342	5.214	5.579	5.534	5.715	5.741	5.912	6.032	6.194	6.310	6.061	6.158	5.836
375.0	967.5	1362	1752	2006	1903	1601	1287	1219	1204	1252	1323	1376	1389	1383	1291	1189	1111	1007	892.9	807.9	721.2	665.1	671.3	522.3	338.0	247.0	187.5	205.1	506.7	1146	3554	6485	376.8	21.17	4.894	3.339	2.577	2.197	1.905	1.809	1.735	1.565	1.707	1.990	2.215	2.518	2.993	3.549	4.447	4.786	5.080	6.424	6.265	6.265	5.666	4.817	4.966	4.875	4.755	4.460	4.560	4.737	4.882	4.920	5.072	4.999	5.096	5.338	5.630	5.559	5.131	5.751	5.911	5.886	5.760	5.878	5.478
380.0	870.7	1273	1606	1808	1800	1526	1272	1192	1190	1223	1266	1308	1310	1283	1219	1131	1069	991.3	899.9	823.4	740.2	672.2	648.0	619.5	428.8	290.8	224.0	179.6	206.8	321.8	975.9	4845	5624	315.2	11.15	3.972	3.127	2.519	1.938	1.856	1.795	1.561	1.714	1.939	2.203	2.553	2.894	3.493	4.072	4.418	4.649	6.098	5.724	5.930	5.431	4.900	4.938	4.768	4.717	4.674	4.514	5.120	4.848	4.809	4.898	5.175	4.874	4.780	5.172	5.410	4.911	5.373	5.350	5.623	5.413	5.343	5.388
385.0	799.4	1224	1508	1669	1669	1462	1270	1188	1175	1198	1222	1250	1241	1219	1152	1083	1033	967.1	903.7	833.6	757.8	683.3	631.2	623.7	534.8	352.2	260.6	202.1	165.9	156.3	277.8	1428	5551	2885	44.71	6.954	4.395	3.133	2.287	2.097	1.873	1.680	1.781	1.992	2.140	2.367	2.645	3.298	3.727	4.015	4.590	5.350	5.202	5.762	5.281	4.642	4.835	4.542	4.753	4.574	4.427	4.900	4.717	4.698	4.715	4.859	4.633	4.582	4.709	4.969	5.004	5.226	4.896	5.170	5.001	5.136	5.040
390.0	781.5	1122	1386	1564	1569	1409	1240	1180	1149	1180	1173	1189	1178	1161	1093	1036	993.0	945.5	891.6	834.3	774.3	707.8	645.8	597.3	567.5	475.5	333.4	251.4	194.7	152.6	148.6	377.5	1589	3535	3623	926.1	16.90	4.192	3.059	2.404	2.013	1.819	1.737	1.861	2.268	2.353	2.582	3.123	3.757	3.668	4.197	4.853	5.142	5.331	4.974	4.607	4.663	4.634	4.567	4.545	4.568	4.426	4.516	4.487	4.708	4.726	4.367	4.538	4.623	4.794	4.780	4.880	4.786	4.885	4.861	5.010	5.022
395.0	749.5	1072	1312	1433	1479	1336	1217	1165	1137	1138	1144	1135	1126	1095	1036	982.7	948.6	918.3	879.3	830.2	774.1	724.8	673.9	609.7	554.7	534.6	455.5	321.2	246.8	192.1	151.2	167.3	407.9	858.5	2513	4858	313.2	18.94	4.123	3.002	2.382	2.201	1.943	1.982	2.201	2.337	2.639	2.975	3.653	3.466	3.887	4.700	4.882	5.140	4.822	4.712	4.596	4.503	4.545	4.282	4.479	4.364	4.365	4.381	4.479	4.467	4.215	4.244	4.498	4.518	4.436	4.452	4.402	4.873	4.730	4.858	4.662
400.0	721.2	996.2	1236	1352	1407	1304	1215	1162	1124	1124	1130	1110	1093	1054	1006	957.2	919.0	892.3	860.6	822.8	774.6	729.8	688.0	629.9	563.5	525.7	520.5	404.3	294.4	230.3	178.2	141.9	162.8	240.0	681.0	3388	4271	273.2	10.54	3.831	2.898	2.326	1.933	2.002	2.414	2.301	2.517	2.925	3.434	3.230	3.832	4.580	4.575	4.619	4.697	4.532	4.658	4.502	4.430	4.352	4.508	4.423	4.302	4.581	4.627	4.415	4.288	4.176	4.529	4.301	4.130	4.249	4.388	4.638	4.376	4.502	4.579
405.0	719.9	961.7	1204	1304	1340	1289	1202	1146	1130	1103	1121	1104	1070	1025	972.8	929.3	888.0	861.0	836.0	807.0	769.4	733.8	696.9	640.3	577.9	527.5	516.3	482.1	352.2	270.4	210.1	157.7	125.1	116.1	196.7	969.4	3919	2464	39.87	6.469	3.354	2.757	2.226	2.132	2.329	2.317	2.330	3.069	3.400	2.942	3.574	4.583	4.462	4.455	4.571	4.357	4.540	4.325	4.544	4.487	4.439	4.464	4.335	4.270	4.521	4.281	4.004	4.201	4.154	4.104	4.225	4.249	4.220	4.437	4.458	4.307	4.491
410.0	662.6	913.6	1127	1234	1289	1236	1175	1137	1118	1098	1092	1066	1025	983.7	931.6	883.7	847.0	827.7	803.3	780.1	755.9	723.0	691.7	652.1	599.4	548.7	508.1	494.6	443.5	333.3	251.3	191.4	142.4	108.6	101.7	256.9	1094	2581	2851	844.1	14.96	3.467	2.610	2.336	2.422	2.332	2.614	2.882	3.110	3.091	3.336	4.165	4.046	4.372	4.447	4.091	4.398	4.431	4.566	4.370	4.226	4.345	4.330	4.188	4.125	4.176	3.895	4.006	3.967	4.170	4.124	4.084	4.338	4.352	4.339	4.062	4.310
415.0	620.3	874.4	1047	1173	1234	1174	1146	1119	1095	1084	1060	1032	986.8	935.6	882.2	839.6	798.6	788.3	762.9	746.3	722.2	700.6	671.3	643.1	602.6	559.6	514.7	476.6	465.0	414.5	298.7	223.2	166.5	123.1	94.68	108.5	278.7	617.8	1728	3725	287.8	18.27	3.564	2.599	2.615	2.583	2.518	2.746	3.054	2.910	3.129	4.058	4.102	4.128	4.130	3.974	4.050	4.423	4.483	4.254	4.368	4.143	4.359	4.307	4.168	3.874	3.835	3.648	4.109	3.769	3.824	4.032	4.075	3.957	4.088	4.062	3.839
420.0	591.3	832.2	1019	1121	1157	1148	1114	1112	1081	1063	1021	996.4	958.1	905.7	846.1	798.2	761.2	747.9	727.3	714.3	690.8	677.1	656.1	634.5	598.5	556.0	516.7	474.6	447.1	438.7	348.8	247.1	184.0	138.4	103.9	82.72	103.8	166.2	451.3	2381	3215	260.4	10.90	3.425	2.934	2.734	2.495	2.652	2.832	2.823	3.007	3.852	3.967	4.269	3.881	4.124	4.199	4.203	4.386	4.240	4.323	4.162	4.388	4.121	4.088	4.128	3.955	3.653	3.814	3.812	4.026	3.758	3.870	3.650	3.798	3.886	3.785
425.0	569.0	793.8	991.0	1052	1100	1115	1088	1096	1062	1049	1002	968.8	924.8	870.1	807.9	757.8	729.0	711.9	701.8	680.8	666.3	649.0	639.1	622.0	591.6	554.6	516.8	479.5	437.5	427.7	390.6	283.8	201.5	154.1	115.9	85.70	71.47	70.98	124.0	653.0	2623	2261	205.1	5.881	3.288	2.848	2.685	2.815	3.016	2.943	2.779	3.655	3.919	4.195	4.110	4.121	4.143	4.159	4.086	4.309	4.346	4.240	4.047	3.840	3.780	4.043	3.896	3.425	3.928	3.663	3.943	3.778	3.560	3.643	3.588	3.739	3.695
430.0	711.4	762.2	940.1	1031	1063	1083	1086	1077	1043	1023	992.7	947.2	888.2	830.7	766.8	718.7	690.9	670.8	660.7	643.5	631.1	621.1	613.6	600.5	577.9	550.3	515.2	485.5	444.2	409.7	386.8	335.2	241.6	174.9	134.0	101.0	75.01	58.34	58.30	167.6	702.9	1874	2365	796.9	15.87	3.523	3.242	3.095	2.971	2.969	2.969	3.566	3.683	4.045	3.912	4.040	4.001	4.130	4.126	4.223	4.170	4.206	4.133	3.975	3.865	3.873	3.686	3.561	3.619	3.618	3.593	3.666	3.567	3.492	3.505	3.476	3.481
435.0	1257	772.3	877.7	970.0	1034	1048	1058	1046	1036	997.4	984.9	928.5	866.8	802.5	733.7	684.8	651.3	628.8	619.3	613.5	598.6	592.0	585.5	578.1	556.3	539.2	513.3	484.4	451.5	414.0	374.0	338.9	292.9	207.6	153.5	118.6	88.96	67.00	51.58	65.11	176.9	440.0	1223	3058	1209	20.62	3.990	3.341	3.041	2.876	2.909	3.659	3.668	3.715	3.869	3.949	3.942	4.158	3.852	4.250	4.004	3.962	4.116	3.673	3.573	3.775	3.787	3.286	3.459	3.388	3.162	3.576	3.603	3.262	3.240	3.585	3.128
440.0	1794	923.5	866.5	939.0	977.5	1011	1021	1026	1015	985.0	955.5	910.0	838.7	772.0	709.8	653.9	623.1	605.1	588.7	581.7	571.4	568.2	560.5	553.7	540.5	524.4	503.7	480.4	452.9	411.6	371.9	325.0	301.0	241.1	168.4	130.3	98.15	74.85	56.56	47.49	63.86	116.8	311.1	1757	3123	255.3	13.70	3.898	3.527	2.931	2.837	3.525	3.586	3.448	3.597	3.990	3.871	3.933	3.758	4.024	3.961	3.935	3.841	3.830	3.830	3.887	3.482	3.252	3.401	3.423	3.243	3.169	3.612	3.105	3.150	3.190	3.408
445.0	1919	1459	822.8	901.3	951.1	972.5	980.4	1001	982.3	962.0	932.9	888.9	809.3	743.5	677.8	625.4	595.7	574.1	563.2	548.1	541.0	537.7	534.2	527.8	519.9	506.8	486.6	468.3	440.2	410.1	368.5	320.9	286.7	259.0	190.2	137.8	106.5	80.50	62.39	47.99	42.28	47.45	86.06	465.0	2175	2103	200.5	8.334	3.871	3.076	3.004	3.597	3.313	3.598	3.638	3.625	3.740	3.977	3.816	3.919	3.748	3.744	3.949	3.596	3.872	3.468	3.470	3.560	3.479	3.422	3.236	3.321	3.145	3.120	3.075	3.114	3.209
450.0	1171	2334	1141	845.4	883.8	927.1	931.6	944.2	942.7	922.4	888.1	836.6	764.3	696.9	629.2	578.1	550.5	527.5	516.2	507.3	497.6	496.3	496.4	487.2	482.1	474.9	459.9	441.4	423.3	396.2	360.4	311.8	270.5	246.8	214.1	158.4	116.0	89.74	70.68	55.30	43.67	36.58	39.38	119.3	562.6	1552	2054	773.0	15.23	3.761	3.246	3.628	3.475	3.478	3.441	3.420	3.808	3.690	3.756	3.769	3.692	3.710	3.654	3.569	3.693	3.317	3.441	3.241	3.205	3.079	3.015	3.064	2.882	2.820	3.044	2.961	2.949
455.0	625.8	2172	2249	833.5	822.7	854.0	875.8	886.1	884.0	868.4	836.7	783.7	708.8	644.8	580.0	525.8	502.2	480.5	468.3	458.0	450.3	448.4	448.5	446.1	444.6	434.1	424.6	410.4	396.9	375.6	342.7	301.4	262.8	227.1	203.9	181.6	131.3	97.90	77.10	61.79	49.12	38.73	32.73	44.84	139.8	360.9	888.1	2430	1122	18.99	3.904	3.839	3.440	3.603	3.266	3.298	3.559	3.329	3.432	3.615	3.603	3.631	3.385	3.685	3.562	3.062	3.133	2.871	3.169	2.938	2.884	2.782	2.882	2.718	2.568	2.635	2.867
460.0	468.7	1369	3082	1062	776.6	801.1	833.2	829.5	834.9	815.3	783.6	740.6	678.0	609.6	542.9	489.8	462.2	449.3	438.8	421.2	416.6	411.7	414.7	411.6	410.8	402.2	399.3	386.7	377.9	357.9	327.5	291.5	252.5	216.1	188.9	180.7	147.2	106.9	82.40	65.97	52.89	42.88	33.60	29.86	46.93	93.88	219.2	1205	2472	753.7	14.46	4.770	3.473	3.509	3.135	3.292	3.406	3.331	3.355	3.579	3.349	3.463	3.167	3.425	3.254	2.924	3.021	2.875	2.928	2.898	2.679	2.655	2.827	2.656	2.476	2.674	2.658
465.0	380.6	771.1	2987	1899	731.0	754.2	757.2	790.3	789.6	780.0	752.1	701.6	630.8	563.6	509.0	460.5	434.9	417.2	405.8	386.5	386.7	381.7	382.9	382.3	380.8	374.7	371.7	362.1	357.6	339.6	314.6	278.2	243.5	208.3	179.8	165.4	153.3	115.2	86.01	68.90	55.79	45.43	35.00	28.96	28.06	34.81	60.90	306.4	1521	2129	183.1	11.84	3.879	3.526	3.103	3.267	3.386	3.333	3.227	3.344	3.227	3.429	3.172	3.151	2.940	3.158	2.910	2.651	2.877	2.753	2.500	2.384	2.591	2.427	2.523	2.476	2.393
470.0	354.5	521.0	1640	2974	1101	677.9	703.6	728.3	722.7	709.8	688.5	642.3	579.9	513.4	460.8	417.6	389.4	370.1	362.1	348.9	341.7	342.1	337.7	341.5	339.3	337.1	332.5	328.1	323.5	307.8	287.4	259.5	226.8	196.9	169.5	149.0	138.7	122.8	93.83	72.06	57.40	47.31	38.37	31.44	26.28	23.94	26.57	78.64	383.3	1151	1427	843.1	16.16	3.985	3.365	3.185	3.206	2.977	2.904	3.121	2.950	3.109	3.215	3.006	2.814	2.813	2.751	2.483	2.558	2.371	2.334	2.328	2.193	2.132	2.227	2.272	2.021
475.0	351.2	436.3	772.9	2565	2356	675.6	634.2	657.3	662.7	646.5	625.1	588.9	527.6	472.4	415.3	376.2	348.8	332.4	319.7	312.1	304.9	303.8	301.7	301.2	302.7	297.7	295.9	294.2	288.2	279.8	262.0	237.0	208.9	183.4	160.2	140.2	123.0	114.6	103.9	77.92	59.13	48.68	39.86	33.56	27.87	22.79	19.89	28.99	94.61	265.5	537.0	1929	900.9	22.50	3.582	3.255	3.081	3.149	2.840	2.839	2.596	2.515	2.853	2.830	2.685	2.463	2.502	2.445	2.171	2.394	2.057	2.147	1.989	2.078	1.906	2.007	2.142
480.0	342.5	414.0	525.0	1545	3255	969.2	591.5	606.2	622.9	601.0	586.4	555.1	489.0	441.9	386.1	340.7	323.6	306.0	295.7	286.7	279.2	275.1	275.1	277.7	278.7	276.3	272.3	271.2	266.9	260.2	245.0	221.5	198.5	174.0	152.1	132.7	117.0	104.9	102.4	84.92	62.20	50.19	41.16	34.86	28.39	24.07	19.69	19.10	30.82	66.95	130.5	872.2	1784	236.2	16.16	3.572	3.021	2.973	2.875	2.728	2.615	2.572	2.635	2.615	2.379	2.528	2.315	2.250	2.136	2.155	1.914	1.854	1.938	1.911	1.944	1.958	1.892
485.0	296.0	418.8	451.4	821.5	3133	1784	565.7	565.9	589.6	573.4	552.8	518.3	453.4	415.4	358.8	324.0	299.9	289.0	277.5	266.9	260.2	254.2	256.3	257.4	255.6	256.5	249.7	250.3	249.3	245.7	232.4	209.3	188.3	166.5	147.6	128.3	112.5	98.07	93.93	88.76	68.58	51.91	42.26	36.63	30.47	25.04	20.93	17.65	17.30	23.14	36.51	218.6	1008	1568	208.8	10.81	3.497	2.864	2.919	2.674	2.561	2.525	2.424	2.537	2.641	2.167	2.237	1.995	1.933	1.998	1.941	1.735	2.056	1.776	1.687	1.884	1.798
490.0	250.7	402.6	407.7	518.8	1756	3005	885.5	533.8	532.2	529.1	509.5	477.1	421.6	379.7	331.8	295.5	276.3	262.0	250.2	239.3	234.3	229.9	232.3	232.4	229.4	231.0	229.0	229.5	226.3	223.4	211.4	195.2	175.1	156.2	137.7	122.2	107.4	94.09	85.68	81.68	74.23	57.03	43.93	37.38	31.72	26.53	22.00	18.43	15.63	14.59	15.97	56.07	249.9	797.9	1321	717.8	17.81	3.557	2.785	2.683	2.619	2.422	2.388	2.293	2.408	2.180	2.114	2.086	1.915	1.841	1.892	1.851	1.872	1.646	1.627	1.714	1.700
495.0	200.0	358.6	406.9	404.4	752.6	2700	2148	516.0	482.8	481.1	466.8	435.5	390.6	341.7	302.3	266.6	249.0	230.7	223.3	216.4	207.8	206.0	206.3	208.0	204.4	206.8	202.2	203.8	205.0	200.0	192.6	177.2	161.8	143.5	126.8	113.8	100.7	89.62	79.75	71.75	69.70	64.33	46.83	37.63	32.62	27.82	22.75	19.61	16.37	13.50	11.87	20.30	61.51	183.9	482.4	1457	966.7	25.21	3.379	2.825	2.437	2.278	2.458	2.126	2.275	2.026	1.822	1.943	1.796	1.744	1.768	1.624	1.711	1.536	1.637	1.641	1.561
500.0	187.6	298.3	400.1	382.9	458.6	1598	3174	733.3	437.4	442.9	426.6	397.0	355.0	315.8	275.9	246.9	225.2	212.1	203.3	193.8	189.6	188.0	186.6	187.3	187.3	186.7	187.0	186.2	185.9	184.0	175.6	164.4	148.8	133.9	118.1	105.8	94.22	84.79	74.55	66.45	61.14	61.87	51.49	39.01	32.63	27.77	23.29	19.60	17.23	13.54	11.45	12.55	19.85	46.34	115.6	616.1	1625	254.7	18.99	2.864	2.281	2.365	2.050	2.150	1.944	1.845	1.892	1.794	1.600	1.597	1.632	1.527	1.626	1.612	1.362	1.527	1.333
505.0	169.9	249.2	386.4	371.9	364.8	775.5	3244	1480	409.5	402.8	391.8	368.8	329.2	286.2	251.8	225.3	209.7	192.6	187.9	177.0	175.4	169.9	170.1	170.8	170.1	169.1	168.8	170.5	170.1	169.3	162.3	151.4	136.4	123.1	109.9	99.75	88.49	79.09	70.10	62.54	56.31	55.97	53.82	42.16	31.67	28.01	23.08	20.04	17.27	14.59	11.81	10.64	10.65	16.01	30.80	150.9	832.6	1436	232.9	11.37	2.645	2.289	2.181	2.051	1.795	1.831	1.752	1.707	1.573	1.553	1.404	1.357	1.530	1.518	1.296	1.323	1.322
510.0	159.2	215.6	311.7	373.7	324.7	423.5	1824	2889	649.9	362.8	348.6	326.1	291.3	255.5	221.9	200.9	183.4	172.7	163.3	156.1	153.1	149.4	148.0	149.0	149.6	148.0	147.4	148.2	150.4	148.8	142.8	132.3	122.4	110.6	100.4	90.29	80.84	72.79	64.03	58.15	51.75	47.52	48.51	44.79	34.71	27.48	22.99	20.11	17.06	14.36	12.26	10.41	9.060	9.301	11.92	38.09	202.4	668.8	1089	604.0	18.43	2.921	2.105	1.963	1.755	1.752	1.672	1.490	1.549	1.477	1.370	1.365	1.343	1.284	1.167	1.155	1.232
515.0	150.7	186.2	236.7	342.9	301.3	303.2	685.1	2882	1791	338.6	309.8	286.5	259.3	221.9	199.9	174.5	158.5	151.4	140.8	134.3	132.5	128.1	129.6	127.1	126.8	127.4	127.5	128.9	130.1	128.4	124.5	117.7	107.4	98.69	89.31	80.22	73.43	65.70	59.59	52.63	47.24	42.72	40.07	40.95	37.65	28.61	23.14	19.87	16.70	13.93	12.17	10.76	9.023	8.008	7.890	13.34	49.05	153.2	359.0	1089	778.9	25.52	2.410	2.070	1.669	1.616	1.612	1.441	1.419	1.332	1.458	1.326	1.124	1.145	1.169	1.106	1.090
520.0	122.8	174.5	198.3	298.6	311.8	274.0	363.2	1749	3038	506.5	283.3	258.9	231.5	203.0	177.3	159.1	142.2	134.0	129.8	121.0	119.9	115.4	114.4	114.3	115.2	113.9	113.9	115.8	115.8	115.8	112.4	106.7	97.23	89.00	80.73	72.59	66.00	60.18	54.59	48.75	43.98	39.88	35.85	36.13	37.97	30.60	22.66	18.95	16.26	13.86	11.56	10.99	9.471	7.888	6.980	7.479	15.13	37.77	85.31	439.9	1190	259.0	17.61	2.174	1.909	1.545	1.355	1.433	1.268	1.167	1.159	1.271	0.990	0.951	1.168	1.089	1.010
525.0	118.8	162.3	173.8	249.4	316.5	249.1	261.9	778.7	3444	1170	258.2	236.4	212.0	186.8	165.0	144.4	130.5	121.8	117.6	110.6	106.9	105.7	101.9	104.0	103.6	103.4	103.5	103.6	104.7	104.7	101.0	95.60	88.23	79.86	72.70	67.41	60.31	56.35	49.59	44.44	40.69	37.40	32.98	31.13	34.00	32.05	23.98	18.60	15.69	13.62	11.81	10.73	9.232	7.875	6.530	6.251	7.345	12.17	22.41	106.4	567.3	1117	227.8	8.953	1.970	1.647	1.263	1.374	1.249	1.181	1.014	1.081	1.058	1.002	1.068	1.041	0.953
530.0	107.8	132.8	148.7	186.1	278.6	247.9	217.3	353.2	2006	2763	449.1	207.7	187.9	164.4	144.7	127.2	115.6	107.9	102.8	97.21	93.69	91.06	88.93	90.66	88.71	89.96	89.05	89.97	90.97	91.67	87.76	82.72	76.68	70.39	63.74	58.84	53.82	49.43	44.55	40.68	36.67	33.37	30.32	27.50	27.49	28.60	25.84	19.35	15.02	12.91	11.19	10.04	8.770	7.763	6.823	5.841	5.675	6.251	8.339	26.82	137.1	502.8	763.0	444.9	17.16	1.931	1.401	1.268	1.114	1.016	1.007	1.029	0.993	0.958	0.982	0.944	0.868
535.0	90.46	118.9	132.0	160.6	208.4	268.3	197.4	219.6	678.0	3005	1492	200.1	163.3	143.9	125.2	109.7	98.41	94.16	88.20	82.47	80.43	78.11	77.09	75.83	75.98	76.94	75.42	75.98	76.17	77.90	75.16	70.12	65.71	59.56	54.79	50.71	47.34	42.66	38.95	35.50	32.85	29.63	26.88	24.36	23.39	22.31	24.03	20.53	15.22	12.41	10.53	9.554	7.692	7.382	7.105	5.993	5.304	4.940	5.269	8.916	33.18	114.9	240.6	737.8	556.8	23.20	1.646	1.341	1.098	0.989	1.003	0.954	0.869	0.773	0.871	0.833	0.796
540.0	90.70	112.4	126.2	144.8	157.1	243.4	198.2	176.6	286.7	1836	2530	262.7	144.7	124.3	112.0	97.08	87.61	84.28	78.68	73.50	71.74	68.82	68.49	66.78	65.60	66.73	66.35	66.52	68.46	69.38	66.58	62.59	58.10	52.75	48.74	45.36	41.82	37.28	34.92	31.81	29.03	26.55	24.19	22.58	20.67	19.14	20.63	20.38	16.25	11.97	9.908	9.227	7.251	6.834	6.447	6.271	5.102	4.219	4.328	4.774	9.851	27.78	56.68	284.0	815.1	251.3	15.92	1.641	1.088	1.016	0.961	0.949	0.866	0.831	0.775	0.682	0.672
545.0	90.89	93.92	113.7	123.1	129.8	199.1	205.8	157.8	187.1	746.7	3279	762.0	130.2	114.6	99.85	85.38	77.94	76.05	68.72	63.64	62.32	60.40	59.63	56.92	58.66	57.30	57.99	59.09	59.28	61.02	58.64	55.30	51.95	47.11	43.70	40.77	37.62	33.74	30.63	28.67	26.30	24.25	21.90	20.59	18.36	17.12	16.80	18.44	16.45	12.33	9.195	8.490	6.809	6.697	6.089	5.696	5.119	4.102	3.746	3.698	4.596	8.469	14.77	68.16	374.1	723.5	207.4	7.076	1.245	0.959	0.974	0.768	0.789	0.908	0.681	0.585	0.711
550.0	74.67	80.79	93.27	99.07	110.8	146.0	207.0	151.5	139.9	277.3	1906	2269	187.1	98.50	81.70	72.61	64.26	62.20	58.67	53.44	52.22	51.45	50.09	49.03	49.05	48.31	48.88	49.98	49.85	50.93	48.20	46.20	43.31	39.43	36.99	33.58	31.35	28.64	26.55	24.57	22.58	20.60	19.38	17.82	16.07	14.54	13.68	14.11	14.50	12.68	9.181	7.606	6.568	5.758	5.493	5.179	4.715	4.535	3.557	3.171	3.153	4.105	5.106	16.96	89.28	301.3	514.2	293.5	16.33	1.424	0.947	0.791	0.812	0.716	0.665	0.637	0.653
555.0	76.93	77.23	76.29	85.65	89.06	102.9	162.9	160.5	117.1	146.2	586.5	2752	939.2	86.60	68.32	59.02	54.51	49.45	48.20	44.36	41.55	41.93	40.84	40.72	39.95	40.08	38.96	40.22	39.77	41.02	38.89	36.91	35.11	32.70	29.88	27.46	25.28	24.46	22.40	20.34	18.70	17.03	15.96	14.70	13.35	12.02	11.61	10.69	10.54	11.36	9.557	7.215	5.853	5.331	4.723	4.454	4.084	3.976	3.525	2.987	2.742	2.656	2.741	5.273	21.31	68.49	154.2	515.5	261.8	21.53	0.998	0.758	0.813	0.695	0.660	0.636	0.614
560.0	61.08	72.02	74.81	78.95	76.69	82.97	116.2	174.3	111.7	106.6	210.5	1706	1840	138.8	58.23	51.65	47.46	43.05	40.61	37.96	36.17	35.11	34.55	34.09	33.51	33.71	32.73	33.98	33.85	34.59	33.13	32.11	29.99	27.55	25.35	23.17	21.47	20.90	18.91	17.19	16.16	14.96	13.73	12.65	11.91	10.68	9.792	8.913	8.612	9.595	9.263	7.325	5.496	4.760	4.438	4.038	3.860	3.489	3.528	2.880	2.453	2.193	2.176	2.686	6.138	16.58	36.13	194.5	458.9	224.3	13.10	0.967	0.777	0.829	0.646	0.593	0.673
565.0	57.18	66.63	73.50	69.55	68.58	70.82	83.85	164.5	110.8	89.42	111.0	661.2	2699	444.2	53.76	43.93	40.27	37.29	35.30	33.67	30.90	30.64	29.31	29.61	29.10	28.19	28.62	29.44	29.15	29.18	28.74	27.08	25.80	22.94	21.21	19.67	19.19	17.92	15.88	14.83	13.67	12.52	11.99	10.95	10.39	9.365	8.176	7.958	7.256	7.297	7.990	7.598	5.336	4.168	3.975	3.567	3.532	3.171	3.027	2.885	2.342	2.055	1.876	1.941	2.600	4.844	9.404	46.58	200.2	441.3	164.0	4.996	0.799	0.758	0.542	0.474	0.554
570.0	62.77	60.96	69.91	59.05	58.01	60.84	64.75	118.8	131.9	82.72	82.93	215.6	1653	1623	99.26	37.32	33.69	30.76	28.67	26.58	25.48	24.89	24.65	24.01	23.06	23.37	23.13	23.71	24.39	23.27	23.19	21.73	20.87	18.88	17.60	16.58	15.78	14.37	13.12	12.61	11.30	10.74	10.00	9.154	8.616	7.843	7.051	6.907	5.909	5.591	5.764	6.653	5.316	4.064	3.472	3.168	2.900	2.750	2.558	2.614	2.519	2.198	1.814	1.805	1.809	2.246	3.136	11.62	47.45	172.2	312.6	148.7	14.17	0.934	0.673	0.610	0.543
575.0	67.12	63.54	70.39	49.24	49.75	52.98	54.32	76.34	138.3	91.02	70.34	97.43	486.5	2158	587.2	34.42	28.23	25.17	22.75	21.60	21.11	19.77	19.14	19.27	19.62	18.78	18.70	19.14	18.50	19.02	18.39	16.87	16.74	14.58	14.38	13.33	12.14	11.83	10.77	9.760	9.330	8.440	7.901	7.454	7.037	6.502	6.108	5.371	5.088	4.442	4.420	4.856	5.155	4.311	3.106	2.863	2.568	2.592	2.109	2.121	2.164	2.265	1.775	1.608	1.440	1.624	1.724	3.484	11.47	39.30	89.64	247.4	215.9	18.06	0.796	0.578	0.461
580.0	60.57	62.38	58.28	48.45	46.40	44.34	46.34	57.03	118.1	110.2	66.78	70.07	153.2	1376	1280	57.75	24.99	21.44	19.70	18.56	18.55	17.15	16.46	15.55	15.72	16.10	15.30	15.82	15.70	15.23	16.18	14.95	13.92	12.60	12.01	10.92	10.60	9.533	9.138	8.380	7.982	7.104	6.883	6.414	6.326	5.516	5.173	4.741	4.299	3.688	3.737	3.869	4.153	4.273	3.162	2.623	2.479	2.247	1.856	1.738	1.873	1.973	1.956	1.538	1.368	1.503	1.310	1.764	3.485	9.614	21.08	89.06	277.1	157.8	9.459	0.564	0.492
585.0	52.83	62.83	56.25	45.48	41.21	41.57	44.99	48.21	91.87	126.3	69.77	62.57	73.45	524.1	1911	136.8	22.29	18.60	17.41	16.01	15.30	14.75	14.28	13.73	13.92	13.58	13.18	13.55	14.13	13.14	13.12	12.10	11.95	10.84	10.58	9.588	8.920	8.485	8.046	7.010	7.319	6.494	6.304	5.537	5.357	4.934	4.621	4.296	3.870	3.299	3.276	3.030	3.480	3.871	3.402	2.610	2.287	2.043	1.861	1.814	1.529	1.603	1.828	1.691	1.297	1.278	1.119	1.308	1.757	2.886	5.651	21.13	115.0	260.2	37.35	3.832	0.535
590.0	52.85	62.43	54.17	43.46	38.95	37.78	41.53	41.81	62.48	117.5	87.26	62.98	57.17	157.9	1190	981.3	48.34	16.37	14.80	13.16	12.53	12.33	11.43	10.99	11.71	10.98	10.70	11.13	11.35	11.03	10.64	10.06	9.483	8.783	8.481	7.904	7.502	7.011	6.710	5.990	5.845	5.407	4.919	4.427	4.396	4.232	3.829	3.394	3.334	2.851	2.635	2.609	2.526	2.999	3.210	2.725	2.184	1.838	1.631	1.430	1.413	1.332	1.445	1.587	1.329	1.173	1.019	1.080	1.192	1.379	1.891	5.328	27.19	98.13	167.3	111.1	12.75
595.0	51.56	56.49	51.67	41.25	34.42	34.72	39.28	43.33	50.46	89.85	114.0	67.19	56.08	66.94	341.1	1398	305.5	15.17	12.06	11.49	9.947	10.62	9.367	9.570	9.119	8.636	8.864	8.511	9.020	8.593	8.548	8.183	7.561	6.938	6.706	6.308	6.200	5.867	5.275	4.791	4.360	4.115	4.066	3.684	3.654	3.402	3.159	2.752	2.720	2.274	2.129	2.053	2.046	2.126	2.606	2.548	2.242	1.705	1.416	1.313	1.263	1.129	1.148	1.382	1.380	1.412	1.067	0.998	0.999	0.979	1.014	1.774	6.645	22.39	47.28	149.4	136.1
600.0	52.00	59.67	63.30	45.93	37.81	37.61	39.17	49.42	49.49	73.58	123.0	80.97	61.46	52.35	107.8	931.2	818.0	29.00	10.34	9.768	8.731	8.826	8.563	8.008	7.431	7.517	7.434	7.444	7.387	7.665	7.000	6.917	6.425	6.340	5.754	5.220	5.162	4.938	4.688	4.218	3.779	3.634	3.363	3.178	3.113	2.887	2.877	2.262	2.332	2.049	1.794	1.814	1.715	1.703	1.788	2.091	2.233	1.764	1.352	1.153	1.086	1.277	1.019	1.183	1.260	1.446	1.144	0.943	0.884	0.795	0.927	0.910	1.961	5.538	11.20	50.65	158.3
605.0	62.20	72.36	61.27	46.00	41.69	40.28	49.34	56.72	62.48	81.58	136.7	120.9	84.13	65.10	66.67	370.6	1229	94.18	10.44	8.347	7.921	7.406	8.581	6.592	6.569	6.247	6.613	6.087	6.260	6.277	6.296	5.891	5.543	5.241	4.963	4.615	4.482	4.180	3.809	3.858	3.396	3.139	2.957	2.722	2.606	2.469	2.520	2.214	2.018	1.745	1.583	1.702	1.665	1.471	1.401	1.789	2.114	1.837	1.337	1.199	1.088	1.334	1.145	1.012	1.126	1.262	1.255	0.975	0.957	0.890	0.883	0.865	1.065	1.815	2.962	12.27	60.94
610.0	68.47	74.54	72.85	56.35	47.93	48.65	61.77	75.82	95.96	124.5	165.5	192.8	143.2	104.8	91.68	144.3	836.3	623.6	27.57	7.242	6.669	5.702	6.177	5.723	5.524	5.225	5.556	5.086	5.208	5.128	4.913	4.705	4.692	4.467	4.080	3.840	3.595	3.431	3.198	3.046	2.819	2.574	2.425	2.408	2.230	2.039	2.118	1.845	1.796	1.570	1.356	1.480	1.362	1.315	1.319	1.386	1.782	1.798	1.591	1.218	1.154	1.206	1.238	1.107	1.211	1.217	1.459	1.340	1.307	1.048	0.979	0.931	0.931	1.077	1.328	3.382	14.56
615.0	66.36	82.62	76.81	67.77	53.17	54.94	65.87	86.27	109.4	138.5	168.5	213.3	182.3	126.9	105.6	94.51	289.9	959.4	97.30	6.964	5.978	5.317	4.833	4.736	4.379	4.636	4.593	4.110	4.108	4.081	4.025	3.817	3.635	3.794	3.172	3.400	2.860	2.825	2.679	2.335	2.314	2.093	2.039	1.801	1.873	1.671	1.790	1.507	1.590	1.201	1.257	1.217	1.090	1.086	1.116	1.210	1.336	1.532	1.525	1.231	1.038	1.078	1.209	1.099	1.152	1.246	1.384	1.341	1.339	1.114	1.068	1.039	0.848	0.933	1.019	1.326	3.790
620.0	69.25	80.45	76.61	65.46	52.52	62.70	66.93	88.65	107.3	131.6	160.4	196.4	192.3	132.6	106.3	81.91	125.7	673.2	529.5	13.94	5.303	4.493	4.172	4.273	3.849	3.764	3.702	3.576	3.573	3.328	3.707	3.233	3.248	3.209	2.922	2.808	2.662	2.374	2.217	2.005	1.926	1.753	1.825	1.585	1.553	1.608	1.474	1.352	1.309	1.072	1.039	1.120	1.037	1.005	1.030	0.980	1.178	1.238	1.398	1.271	1.088	0.954	1.116	1.144	1.036	1.117	1.214	1.123	1.342	1.188	1.042	0.967	0.885	1.024	0.901	0.884	1.383
625.0	72.23	75.04	82.69	65.58	50.91	58.40	74.09	87.41	101.1	129.7	149.3	182.0	193.8	139.2	108.7	78.77	83.18	283.5	833.1	62.79	4.982	3.933	3.731	3.541	3.419	3.435	3.179	3.358	3.053	3.096	3.272	3.026	2.594	2.712	2.508	2.467	2.325	2.056	1.982	1.804	1.638	1.393	1.562	1.384	1.387	1.269	1.346	1.209	1.209	1.128	0.926	0.997	0.900	1.022	0.885	0.928	1.005	1.181	1.313	1.294	1.175	0.879	0.975	1.141	1.045	1.141	1.074	1.138	1.271	1.206	1.163	0.924	0.962	0.980	0.998	0.683	0.856
630.0	72.50	80.33	87.78	66.67	57.31	57.12	74.41	87.10	99.76	125.2	144.6	166.4	181.5	149.5	110.5	78.92	73.47	98.74	577.1	421.1	13.40	3.546	3.332	3.156	2.845	2.738	2.667	2.677	2.528	2.662	2.556	2.257	2.316	2.156	2.042	1.887	1.947	1.692	1.555	1.475	1.320	1.240	1.291	1.173	1.087	1.120	1.105	1.013	1.032	0.935	0.853	0.868	0.828	0.761	0.789	0.848	0.862	0.982	1.063	1.080	1.067	1.030	0.904	1.018	0.917	1.048	1.057	1.077	1.100	1.147	1.167	0.923	0.906	0.857	0.824	0.719	0.747
635.0	72.28	85.61	89.77	74.12	58.60	56.78	72.14	83.53	102.2	121.2	142.2	163.9	167.8	159.1	115.4	81.13	71.26	54.34	172.1	683.4	75.67	3.403	2.850	2.794	2.479	2.413	2.371	2.313	2.400	2.084	2.087	1.862	1.872	1.778	1.659	1.583	1.554	1.554	1.362	1.178	1.208	1.101	1.005	1.016	0.958	0.958	0.952	0.895	1.007	0.760	0.708	0.699	0.689	0.610	0.661	0.805	0.810	0.877	0.821	0.885	1.107	1.017	0.966	1.096	0.926	0.916	0.944	0.995	1.096	0.995	1.060	1.106	0.882	0.875	0.821	0.735	0.746
640.0	69.41	83.59	98.00	69.33	57.27	58.18	66.20	81.85	94.97	114.7	138.4	160.3	158.2	157.4	123.0	79.37	74.60	43.88	51.00	492.2	360.2	7.656	2.808	2.412	2.162	1.983	2.046	1.887	2.004	2.084	1.686	1.759	1.555	1.544	1.525	1.621	1.444	1.260	1.208	0.987	1.086	1.143	1.024	0.844	0.847	0.869	0.849	0.855	0.931	0.714	0.719	0.719	0.652	0.749	0.669	0.725	0.689	0.805	0.708	0.836	0.958	0.917	0.903	0.826	0.828	0.851	1.010	1.042	0.912	1.072	1.028	0.985	1.036	0.984	0.855	0.823	0.689
645.0	81.16	97.28	91.08	72.85	53.31	59.99	65.42	79.15	88.39	111.4	133.0	151.4	151.9	144.7	125.0	81.15	72.90	41.15	23.60	202.1	594.3	42.25	2.717	2.087	2.043	1.946	2.027	1.670	1.744	1.733	1.592	1.466	1.517	1.393	1.440	1.380	1.273	1.134	1.190	0.909	0.941	0.963	0.905	0.835	0.747	0.823	0.748	0.812	0.809	0.741	0.670	0.681	0.675	0.657	0.661	0.623	0.707	0.702	0.775	0.798	0.837	0.881	0.981	0.813	0.901	0.873	1.086	0.938	0.946	0.922	0.934	0.939	0.846	0.925	0.929	0.822	0.760
650.0	82.04	91.24	90.44	72.57	56.38	56.84	63.40	72.56	82.17	102.6	122.0	143.2	139.4	131.7	125.1	79.04	68.72	39.33	16.74	60.58	553.1	192.5	3.234	2.087	1.773	1.716	1.652	1.579	1.702	1.506	1.554	1.580	1.441	1.249	1.395	1.402	1.127	1.101	1.064	0.946	0.869	0.893	0.857	0.771	0.755	0.797	0.692	0.796	0.762	0.677	0.571	0.604	0.610	0.630	0.608	0.613	0.667	0.756	0.771	0.670	0.703	0.698	0.785	0.781	0.811	0.777	0.747	0.873	0.987	0.877	0.828	0.726	0.810	0.853	0.935	0.785	0.684
