Sample:	'1
File name:	Default_20230418_135617.FD3
Run date:	'13:49:56, 04/18/2023
Operator:	dsjg
Comment:	'

Instrument
Model:	F-2700 FL Spectrophotometer
Serial number:	2198-001
ROM Version:	4J14000 07

Instrument parameters
Measurement type:	3-D scan
Data mode:	Fluorescence
EX  Start WL:	220.0 nm
EX  End WL:	600.0 nm
EX Sampling interval:	5.0 nm
EM  Start WL:	230.0 nm
EM  End WL:	650.0 nm
EM Sampling interval:	5.0 nm
Scan speed:	12000 nm/min
EX Slit:	5.0 nm
EM Slit:	5.0 nm
PMT Voltage:	700 V
Response:	Auto 
Corrected spectra:	Off
Contour interval:	50.000

Peak integration
Integration method:	Rectangular
Sensitivity:	1
Threshold:	1.000

Peaks
No.	ApexEX/EM(nm)	Height(Data)
1	230.0/385.0	 2568
2	230.0/595.0	208.9
3	235.0/260.0	142.2
4	240.0/265.0	153.4
5	240.0/310.0	 3563
6	250.0/550.0	83.29
7	255.0/565.0	85.96
8	270.0/600.0	167.0
9	275.0/335.0	 4641
10	275.0/610.0	165.3
11	275.0/620.0	162.2
12	275.0/635.0	157.6
13	275.0/645.0	158.8
14	395.0/305.0	9.272
15	430.0/505.0	14.09
16	440.0/520.0	9.983
17	445.0/525.0	8.536
18	455.0/540.0	5.939
19	460.0/545.0	5.037
20	470.0/560.0	3.491
21	475.0/375.0	8.535
22	495.0/315.0	15.29
23	545.0/340.0	21.75

Data points
	220.0	225.0	230.0	235.0	240.0	245.0	250.0	255.0	260.0	265.0	270.0	275.0	280.0	285.0	290.0	295.0	300.0	305.0	310.0	315.0	320.0	325.0	330.0	335.0	340.0	345.0	350.0	355.0	360.0	365.0	370.0	375.0	380.0	385.0	390.0	395.0	400.0	405.0	410.0	415.0	420.0	425.0	430.0	435.0	440.0	445.0	450.0	455.0	460.0	465.0	470.0	475.0	480.0	485.0	490.0	495.0	500.0	505.0	510.0	515.0	520.0	525.0	530.0	535.0	540.0	545.0	550.0	555.0	560.0	565.0	570.0	575.0	580.0	585.0	590.0	595.0	600.0
230.0	126.7	610.0	802.4	138.3	4.300	2.571	2.120	2.100	1.875	1.821	2.226	2.387	1.938	1.744	1.529	1.241	1.124	1.050	0.888	0.757	0.643	0.503	0.467	0.353	0.349	0.255	0.268	0.230	0.188	0.166	0.161	0.155	0.154	0.124	0.176	0.264	0.233	0.280	0.233	0.194	0.275	0.444	0.433	0.332	0.199	0.169	0.398	1.865	3.583	2.805	1.095	0.241	0.108	0.082	0.088	0.082	0.075	0.063	0.059	0.043	0.054	0.044	0.038	0.041	0.031	0.028	0.026	0.025	0.033	0.030	0.024	0.031	0.022	0.022	0.015	0.019	0.016
235.0	63.11	185.4	643.6	621.0	152.7	5.645	2.093	2.446	1.759	2.004	2.159	2.354	2.080	1.711	1.334	1.164	1.186	1.176	0.898	0.925	0.700	0.510	0.484	0.347	0.310	0.263	0.224	0.263	0.190	0.198	0.184	0.150	0.142	0.125	0.164	0.230	0.232	0.294	0.230	0.205	0.215	0.271	0.298	0.449	0.438	0.269	0.190	0.537	1.265	1.976	2.678	3.225	1.355	0.354	0.102	0.084	0.074	0.066	0.081	0.033	0.054	0.024	0.043	0.038	0.042	0.028	0.034	0.025	0.031	0.020	0.018	0.034	0.009	0.013	0.014	0.018	0.013
240.0	88.23	69.45	232.5	727.5	517.4	97.91	3.728	2.659	2.101	2.447	2.250	2.515	2.377	1.807	1.671	1.318	1.315	1.032	0.866	0.873	0.885	0.553	0.391	0.296	0.354	0.288	0.200	0.265	0.209	0.198	0.190	0.147	0.216	0.133	0.155	0.138	0.175	0.287	0.343	0.195	0.265	0.214	0.205	0.283	0.490	0.481	0.328	0.255	0.398	0.596	1.187	3.077	3.877	2.941	0.961	0.170	0.081	0.074	0.057	0.071	0.082	0.016	0.051	0.049	0.044	0.043	0.021	0.024	0.030	0.041	0.019	0.027	0.027	0.041	0.017	0.017	0.021
245.0	84.16	84.05	73.14	325.7	872.4	422.7	55.76	3.245	2.738	3.013	2.202	2.851	2.614	1.941	1.824	1.530	1.412	0.924	0.861	0.917	0.746	0.703	0.492	0.481	0.307	0.340	0.253	0.258	0.204	0.204	0.223	0.153	0.171	0.170	0.105	0.139	0.123	0.295	0.275	0.235	0.248	0.231	0.133	0.182	0.265	0.402	0.522	0.460	0.279	0.282	0.360	1.073	2.388	4.107	4.175	2.354	0.465	0.100	0.064	0.091	0.056	0.039	0.047	0.044	0.043	0.064	0.029	0.062	0.022	0.034	0.022	0.028	0.026	0.024	0.023	0.022	0.023
250.0	37.25	95.71	99.08	101.8	361.7	755.2	651.1	144.0	8.902	3.315	2.761	2.979	2.795	2.125	1.845	1.574	1.438	1.106	0.977	0.817	0.696	0.657	0.485	0.399	0.392	0.356	0.232	0.282	0.242	0.185	0.216	0.198	0.152	0.145	0.144	0.143	0.107	0.183	0.220	0.221	0.240	0.222	0.167	0.171	0.188	0.235	0.321	0.458	0.523	0.461	0.311	0.399	0.673	1.314	2.449	3.492	4.113	3.517	1.893	0.575	0.083	0.044	0.055	0.047	0.030	0.058	0.044	0.045	0.038	0.032	0.047	0.026	0.031	0.011	0.017	0.050	0.025
255.0	13.43	34.24	106.4	125.0	102.8	235.4	769.8	 1078	199.1	8.822	4.040	3.013	3.105	2.578	2.120	1.509	1.460	1.082	0.963	0.860	0.634	0.657	0.524	0.386	0.365	0.321	0.310	0.295	0.240	0.165	0.149	0.168	0.131	0.162	0.139	0.165	0.123	0.110	0.114	0.234	0.216	0.227	0.202	0.189	0.194	0.180	0.221	0.229	0.306	0.464	0.670	0.685	0.400	0.411	0.662	0.922	1.696	3.610	5.965	5.826	2.761	0.549	0.080	0.045	0.073	0.076	0.046	0.036	0.037	0.022	0.037	0.038	0.009	0.021	0.009	0.033	0.013
260.0	6.857	13.42	54.21	142.2	100.2	67.96	296.1	 1104	 1057	149.4	6.392	4.341	3.467	2.629	2.006	1.767	1.462	1.168	1.097	0.989	0.613	0.595	0.524	0.418	0.376	0.293	0.299	0.283	0.237	0.210	0.164	0.213	0.122	0.216	0.110	0.158	0.167	0.127	0.117	0.115	0.181	0.205	0.282	0.231	0.223	0.169	0.159	0.166	0.193	0.217	0.444	0.746	0.779	0.522	0.268	0.316	0.493	1.107	2.824	5.722	7.374	5.461	1.894	0.236	0.099	0.062	0.046	0.038	0.039	0.030	0.026	0.031	0.017	0.017	0.023	0.034	0.012
265.0	6.568	9.152	19.83	91.48	153.4	69.77	80.18	471.1	 1310	979.6	107.1	5.201	3.993	3.030	2.197	1.929	1.633	1.206	1.215	0.933	0.838	0.576	0.516	0.393	0.344	0.317	0.293	0.292	0.227	0.222	0.131	0.217	0.129	0.272	0.106	0.174	0.198	0.149	0.133	0.132	0.143	0.194	0.288	0.242	0.225	0.214	0.168	0.165	0.185	0.142	0.210	0.380	0.720	0.847	0.604	0.315	0.206	0.324	0.768	1.950	4.455	7.859	8.019	4.152	0.924	0.105	0.074	0.054	0.054	0.031	0.043	0.038	0.029	0.026	0.020	0.027	0.025
270.0	37.16	26.54	25.60	40.47	103.5	150.7	96.89	142.7	511.3	 1149	 1181	404.5	22.93	4.018	2.854	2.084	1.936	1.440	1.261	1.031	0.991	0.616	0.498	0.420	0.351	0.361	0.348	0.296	0.243	0.218	0.210	0.235	0.324	0.386	0.434	0.383	0.433	0.373	0.387	0.387	0.381	0.369	0.439	0.416	0.339	0.307	0.265	0.237	0.229	0.214	0.187	0.266	0.314	0.484	0.689	0.817	0.735	0.469	0.366	0.614	1.245	2.647	4.509	6.347	7.256	5.781	2.958	0.782	0.124	0.037	0.050	0.064	0.030	0.043	0.033	0.045	0.047
275.0	259.1	260.1	217.9	131.8	129.3	163.1	247.0	203.3	248.1	473.4	 1134	 1695	577.7	18.52	3.999	2.711	1.886	1.557	1.537	1.076	0.975	0.642	0.743	0.474	0.436	0.347	0.329	0.345	0.323	0.200	0.259	0.330	0.657	1.036	1.360	1.318	1.230	1.103	1.141	1.013	1.041	1.024	0.990	0.969	0.969	1.033	0.898	0.946	0.815	0.674	0.644	0.602	0.497	0.611	0.545	0.705	1.095	1.285	1.152	0.854	0.880	1.291	1.792	2.350	3.441	6.002	9.346	8.862	4.058	0.693	0.106	0.079	0.064	0.079	0.087	0.048	0.083
280.0	662.5	758.2	632.0	400.4	322.2	244.5	328.7	348.7	306.8	474.4	754.8	 1631	 1712	127.3	9.866	3.644	2.596	1.907	1.665	1.423	1.078	0.717	0.800	0.581	0.440	0.448	0.303	0.439	0.252	0.257	0.309	0.450	1.080	2.096	2.818	2.805	2.623	2.272	2.312	1.939	1.973	1.978	2.136	1.966	2.012	2.158	2.140	2.306	2.135	1.989	1.518	1.473	1.495	1.363	1.123	1.061	1.049	1.599	2.117	2.077	1.957	1.838	2.141	2.322	2.746	3.569	5.638	9.554	11.12	7.146	2.157	0.212	0.139	0.124	0.094	0.145	0.140
285.0	 1061	 1186	 1046	646.2	527.2	363.5	378.7	547.3	645.7	695.0	812.9	 1114	 1777	 1033	91.95	6.054	2.981	1.933	1.696	1.416	1.143	0.937	0.668	0.625	0.488	0.392	0.355	0.441	0.327	0.308	0.348	0.606	1.654	3.177	4.119	4.434	4.066	3.463	3.250	3.046	2.775	2.866	3.067	3.094	3.046	3.122	3.192	3.639	3.458	2.949	2.363	2.469	2.308	2.019	1.759	1.601	1.567	1.705	2.177	2.843	3.456	3.235	3.205	3.587	3.746	4.004	4.339	5.665	7.814	10.27	9.721	5.054	0.927	0.202	0.180	0.162	0.191
290.0	 1584	 1901	 1708	 1233	 1095	860.5	685.2	792.2	 1047	 1242	 1291	 1280	 1187	 1305	 1184	367.9	21.32	3.411	2.369	1.661	1.425	1.100	0.851	0.795	0.562	0.527	0.453	0.441	0.362	0.356	0.382	0.773	2.207	4.317	5.972	6.349	5.710	5.159	4.577	4.434	4.176	4.060	4.225	4.460	4.607	4.940	4.899	5.311	5.250	4.712	4.050	4.434	4.256	4.084	3.794	3.727	3.147	2.997	3.097	3.870	4.407	5.404	5.971	6.196	6.400	6.228	5.927	6.252	5.523	5.290	6.453	8.189	8.593	6.649	3.229	0.863	0.277
295.0	 2023	 2619	 2556	 2164	 2108	 1788	 1159	 1150	 1380	 1761	 1864	 1837	 1350	905.2	 1104	 1751	510.1	17.01	3.635	2.315	1.739	1.334	0.999	0.915	0.721	0.684	0.565	0.496	0.375	0.467	0.456	0.878	2.500	5.336	7.319	8.137	7.463	6.651	5.635	5.456	5.044	5.050	5.362	5.345	5.907	6.392	6.074	7.262	7.130	7.058	6.379	7.755	7.760	7.741	7.763	8.190	5.846	4.935	4.977	5.408	6.146	6.769	7.695	8.947	10.19	9.670	8.811	9.051	7.425	5.452	4.646	4.363	5.151	7.674	11.31	9.938	4.102
300.0	 2302	 3045	 3079	 2773	 2823	 2474	 1523	 1458	 1662	 2032	 2385	 2341	 1707	 1033	805.4	 1360	 1714	78.10	8.373	3.148	2.063	1.535	1.237	1.031	0.902	0.663	0.642	0.518	0.516	0.404	0.457	1.031	2.891	5.814	8.271	9.041	8.419	7.492	6.586	6.076	5.743	5.759	5.716	6.022	6.148	7.022	7.092	8.183	8.177	8.443	8.298	10.07	10.05	10.51	10.44	11.30	7.738	6.070	6.505	7.001	7.316	8.228	8.901	10.50	12.06	12.13	11.60	10.69	9.109	6.939	5.629	4.679	4.124	4.367	6.384	10.83	12.62
305.0	 2381	 3173	 3358	 3173	 3302	 3002	 1836	 1753	 1966	 2307	 2677	 2844	 2129	 1345	879.6	763.8	 1479	 1494	61.87	5.381	2.653	1.859	1.361	1.101	1.123	0.833	0.736	0.655	0.618	0.402	0.458	1.028	2.712	5.759	7.874	9.272	8.700	7.900	6.641	6.059	6.031	5.794	5.896	6.009	6.546	7.106	7.193	8.343	8.688	8.654	9.103	11.46	11.46	11.78	12.28	13.60	9.367	7.709	7.594	8.277	8.901	9.765	10.69	11.62	12.87	13.38	13.79	13.05	11.06	8.843	7.337	5.914	4.916	4.261	3.716	4.882	8.050
310.0	 2268	 3056	 3364	 3328	 3563	 3323	 2110	 2110	 2357	 2696	 3034	 3245	 2772	 1873	 1226	735.3	688.3	 1219	 1358	263.9	16.37	3.042	1.897	1.497	1.125	0.836	0.777	0.786	0.695	0.593	0.561	0.986	2.441	5.176	7.298	8.655	8.170	7.304	6.191	5.887	5.622	5.551	5.623	5.764	6.074	6.838	6.877	7.988	8.527	8.789	9.397	11.86	12.28	12.52	13.99	15.03	10.48	8.895	9.173	9.746	10.51	11.61	12.69	13.84	14.45	14.98	15.33	15.28	14.36	11.94	10.26	8.295	7.043	5.655	4.300	3.638	3.645
315.0	 2181	 2804	 3100	 3164	 3513	 3352	 2325	 2417	 2749	 3116	 3433	 3646	 3239	 2505	 1704	 1000	593.1	520.1	870.2	 1639	394.2	14.36	2.717	1.862	1.332	1.025	0.950	0.844	0.785	0.722	0.757	0.931	2.247	4.407	6.576	7.273	7.426	6.554	5.892	5.572	5.597	5.374	5.482	5.620	5.916	6.323	6.418	7.210	7.794	8.061	8.807	11.16	12.05	12.13	13.93	15.29	11.36	9.869	10.41	11.69	12.21	13.88	15.02	15.60	16.45	17.28	16.89	17.02	16.22	14.78	13.68	11.60	9.870	7.801	5.893	4.526	3.550
320.0	 2170	 2665	 2887	 2985	 3334	 3288	 2448	 2617	 3013	 3436	 3772	 3991	 3590	 2911	 2163	 1288	727.4	458.0	427.7	 1125	 1617	57.60	7.184	2.595	1.744	1.375	0.873	0.940	0.898	0.773	0.763	0.862	2.087	3.925	5.798	6.629	6.746	6.316	5.802	5.518	5.108	5.226	5.581	5.739	6.307	6.477	6.561	6.970	7.253	7.392	7.774	10.22	11.12	11.72	13.13	14.82	11.56	10.21	11.38	12.44	13.74	14.91	16.32	17.49	18.55	18.77	18.50	18.63	17.59	16.58	15.41	13.71	12.62	10.10	7.416	5.825	4.513
325.0	 2130	 2539	 2697	 2761	 3087	 3118	 2512	 2764	 3197	 3660	 4037	 4263	 3872	 3146	 2487	 1610	929.0	560.4	369.0	486.4	 1329	 1374	49.12	4.773	2.300	1.666	1.162	0.981	0.932	0.776	0.692	1.021	1.841	3.601	4.927	5.796	6.004	6.102	5.545	5.070	4.816	5.187	5.542	5.703	6.118	6.675	6.319	7.099	6.773	6.617	7.471	9.346	10.24	11.11	12.78	13.99	11.28	10.85	11.68	13.27	14.67	16.13	17.52	18.59	19.28	19.95	20.28	19.95	19.27	17.67	16.36	14.87	13.97	11.91	9.581	7.017	5.591
330.0	 2057	 2363	 2430	 2459	 2778	 2872	 2499	 2862	 3332	 3808	 4226	 4505	 4149	 3402	 2705	 1969	 1256	762.9	493.2	361.9	515.0	 1090	 1264	211.9	14.75	2.482	1.684	1.291	1.077	0.899	0.820	0.933	1.766	3.039	4.370	4.953	5.395	5.418	4.951	4.944	4.796	4.922	5.236	5.558	5.956	6.208	5.999	6.573	6.427	6.270	6.661	8.359	9.165	10.19	11.22	12.70	10.90	10.87	12.19	13.42	15.02	16.72	18.27	19.31	20.69	21.04	21.09	20.76	20.49	19.23	17.76	16.21	14.86	13.29	11.33	9.401	7.629
335.0	 2013	 2256	 2273	 2198	 2505	 2621	 2434	 2861	 3370	 3886	 4319	 4641	 4360	 3643	 2933	 2192	 1603	 1066	689.5	458.9	347.5	395.4	765.1	 1575	331.3	14.27	2.572	1.681	1.328	1.124	0.916	1.019	1.639	2.425	3.800	4.386	4.623	4.758	4.640	4.618	4.565	4.803	4.996	5.599	5.594	6.094	5.986	6.350	6.105	5.943	5.931	7.775	8.296	9.044	10.17	11.16	10.50	10.91	12.31	13.31	15.26	16.87	18.24	19.59	21.10	21.21	21.57	20.98	21.39	19.98	19.30	17.49	16.08	14.40	12.75	10.88	9.942
340.0	 1976	 2221	 2168	 2070	 2303	 2427	 2355	 2780	 3297	 3827	 4276	 4615	 4398	 3743	 3068	 2330	 1754	 1312	875.1	578.0	393.6	285.0	322.6	 1056	 1551	249.6	7.064	2.268	1.621	1.130	0.824	1.156	1.602	2.319	3.472	3.987	4.154	4.684	4.550	4.378	4.356	4.816	4.788	5.141	5.521	5.998	5.717	6.190	6.074	5.402	5.630	7.530	7.709	8.287	9.213	10.41	10.30	10.66	11.70	13.61	14.79	16.67	17.86	19.45	20.88	21.75	21.57	21.21	21.07	19.91	19.51	18.53	17.07	15.12	12.89	11.63	10.53
345.0	 1956	 2194	 2108	 2018	 2164	 2267	 2235	 2656	 3174	 3692	 4134	 4488	 4313	 3740	 3123	 2426	 1843	 1476	 1104	735.1	496.0	333.4	243.5	411.6	 1310	 1319	41.91	4.216	1.880	1.344	1.099	1.155	1.519	2.247	2.916	3.618	3.995	4.540	4.371	4.093	4.183	4.679	4.786	4.800	5.345	5.797	5.760	6.200	5.912	5.390	5.459	7.348	7.170	7.966	8.450	9.275	9.700	10.32	11.11	13.10	14.18	15.71	17.47	19.09	19.94	20.38	21.05	20.94	21.02	20.26	19.45	18.85	17.21	15.50	13.92	12.37	11.25
350.0	 1859	 2156	 2113	 1957	 1979	 2016	 2046	 2432	 2903	 3376	 3838	 4211	 4095	 3641	 3117	 2519	 1994	 1614	 1335	 1018	674.8	459.9	317.2	258.8	459.9	 1034	 1168	185.7	12.23	2.098	1.471	1.199	1.438	2.191	2.742	3.212	3.771	4.021	4.081	4.071	4.059	4.310	4.455	4.687	5.208	5.520	5.388	6.024	5.606	5.452	5.616	7.191	7.049	7.079	7.576	8.542	8.830	9.262	10.21	11.78	13.22	14.46	16.02	17.65	18.68	19.30	19.90	19.69	19.86	19.59	18.68	18.27	17.02	15.53	14.18	13.17	11.87
355.0	 1778	 2140	 2167	 1962	 1843	 1778	 1840	 2182	 2592	 3039	 3482	 3860	 3845	 3500	 3089	 2604	 2161	 1797	 1516	 1282	929.1	613.8	425.7	291.7	241.3	319.1	677.3	 1410	297.2	11.72	2.048	1.342	1.554	1.971	2.557	2.877	3.466	3.768	3.846	3.897	3.984	3.903	4.309	4.359	4.776	5.225	5.440	6.192	5.785	5.656	5.895	7.161	6.725	6.399	6.937	7.520	7.776	8.049	9.500	10.49	12.12	13.42	15.11	15.71	16.74	17.55	17.60	18.24	18.25	18.00	18.14	17.39	16.82	15.55	14.50	13.81	13.11
360.0	 1793	 2157	 2240	 1980	 1771	 1623	 1689	 2002	 2384	 2791	 3207	 3622	 3634	 3381	 3047	 2642	 2267	 1947	 1661	 1418	 1112	750.4	512.0	345.1	227.0	170.6	230.1	932.3	 1405	227.2	5.172	1.812	1.733	1.839	2.482	2.756	3.233	3.675	3.721	3.814	3.560	3.708	4.179	4.315	4.624	5.244	5.336	6.035	6.116	5.958	6.131	7.191	6.687	6.441	6.403	6.631	7.240	7.693	8.370	9.861	10.83	12.33	13.24	14.55	15.48	16.00	17.00	17.20	17.09	17.67	17.37	17.18	16.57	15.35	14.74	14.06	13.82
365.0	 1748	 2167	 2328	 2040	 1706	 1507	 1568	 1848	 2204	 2572	 3000	 3404	 3436	 3248	 2993	 2664	 2364	 2075	 1804	 1534	 1213	897.8	599.6	402.7	259.2	162.4	124.8	308.9	 1198	 1224	38.50	3.191	1.911	1.899	2.433	2.684	3.042	3.688	3.958	3.867	3.556	3.724	4.062	4.049	4.622	5.260	5.152	5.880	6.418	6.078	6.258	7.789	6.563	6.143	6.062	6.022	6.658	7.011	7.640	8.817	10.09	11.32	12.45	13.85	14.44	14.91	16.04	15.78	16.18	16.32	16.45	16.44	16.26	15.29	15.16	14.72	14.26
370.0	 1731	 2206	 2423	 2129	 1645	 1377	 1426	 1660	 1948	 2321	 2712	 3100	 3201	 3088	 2910	 2672	 2449	 2204	 1975	 1696	 1312	 1015	751.9	494.3	319.8	201.7	135.6	135.0	376.5	978.2	 1121	166.7	10.67	2.467	2.591	2.776	3.146	3.624	3.778	3.783	3.644	3.578	3.775	4.131	4.382	5.111	5.095	6.142	6.476	6.346	6.685	8.244	6.575	5.882	5.595	5.767	6.041	6.360	7.008	7.964	9.017	10.05	10.94	12.20	12.93	13.51	14.59	14.52	15.28	15.25	15.35	15.46	15.72	15.26	15.12	14.64	14.58
375.0	 1691	 2252	 2506	 2221	 1593	 1261	 1271	 1469	 1719	 2057	 2427	 2798	 2940	 2898	 2805	 2646	 2485	 2298	 2104	 1833	 1408	 1072	843.7	613.0	386.1	253.9	169.2	122.9	145.3	268.0	667.4	 1314	253.9	10.05	2.940	2.949	3.155	3.651	3.803	3.654	3.657	3.556	3.510	3.888	4.207	4.968	5.139	6.105	6.518	6.710	7.341	8.535	6.806	5.555	5.029	5.179	5.237	5.792	6.307	6.971	7.742	8.884	9.549	10.94	11.41	11.97	12.63	13.24	13.78	14.24	14.08	14.59	15.37	14.92	14.36	14.65	15.18
380.0	 1678	 2237	 2567	 2261	 1570	 1182	 1183	 1335	 1573	 1876	 2229	 2598	 2753	 2748	 2696	 2597	 2473	 2331	 2152	 1892	 1461	 1103	851.0	669.7	447.2	287.7	196.6	137.0	106.7	108.4	202.5	882.5	 1217	189.8	4.574	3.188	3.341	3.581	3.687	3.560	3.360	3.381	3.564	3.819	4.078	4.868	5.270	6.293	6.797	6.831	7.298	8.470	6.867	5.558	4.911	4.705	4.999	5.305	5.829	6.327	7.331	7.988	8.720	9.976	10.44	11.44	11.71	12.48	13.03	13.34	14.03	14.19	14.38	14.57	14.20	14.45	14.56
385.0	 1635	 2246	 2568	 2270	 1534	 1138	 1096	 1231	 1449	 1731	 2056	 2406	 2585	 2603	 2590	 2528	 2441	 2318	 2164	 1910	 1483	 1125	856.0	669.0	507.3	324.8	219.4	155.0	109.1	82.00	82.29	277.5	 1056	991.9	31.00	3.828	3.434	3.613	3.634	3.513	3.394	3.268	3.408	3.804	3.983	4.739	4.955	6.151	6.882	6.728	7.400	8.350	6.817	5.367	4.847	4.573	4.820	4.904	5.495	5.814	6.683	7.562	8.245	9.177	9.386	10.15	10.89	11.67	12.09	12.18	13.11	13.48	13.91	13.42	13.68	14.26	14.40
390.0	 1581	 2178	 2549	 2256	 1497	 1077	 1015	 1116	 1289	 1541	 1841	 2158	 2346	 2395	 2405	 2371	 2344	 2239	 2115	 1893	 1474	 1123	865.0	660.3	518.8	389.1	259.8	180.5	129.5	92.58	67.99	92.08	316.4	800.0	850.2	131.1	10.01	3.730	3.748	3.619	3.410	3.209	3.304	3.605	3.882	4.619	4.778	6.163	6.569	6.890	7.331	8.523	6.888	5.249	4.584	4.208	4.471	4.647	4.863	5.212	5.900	6.571	7.427	7.960	8.674	9.100	10.07	10.53	11.12	11.13	12.08	12.37	12.49	12.74	13.24	13.50	13.83
395.0	 1488	 2101	 2516	 2205	 1464	 1053	966.8	 1008	 1135	 1366	 1622	 1919	 2085	 2157	 2193	 2187	 2187	 2117	 2007	 1820	 1423	 1097	856.0	656.6	504.5	406.1	320.3	212.9	154.3	112.6	78.74	62.06	96.04	202.6	522.6	 1021	209.1	9.330	3.913	3.708	3.277	3.195	3.235	3.340	3.706	4.560	4.454	5.715	6.362	6.668	7.072	8.275	6.556	5.135	4.371	4.226	4.336	4.396	4.457	4.843	5.113	5.822	6.200	6.831	7.703	8.047	8.428	9.169	9.660	10.21	11.03	11.48	11.76	11.61	12.34	12.84	13.30
400.0	 1426	 2000	 2396	 2154	 1434	 1032	921.9	942.7	 1046	 1239	 1469	 1744	 1907	 1994	 2031	 2043	 2054	 1994	 1908	 1737	 1368	 1063	835.4	647.7	494.5	391.2	342.4	253.3	170.6	126.6	91.57	63.95	52.83	66.27	150.1	700.8	958.3	153.9	5.404	3.888	3.219	3.078	3.116	3.033	3.581	4.257	4.525	5.527	6.216	6.445	6.829	8.105	6.385	5.206	4.289	4.113	4.275	4.359	4.135	4.287	4.957	5.299	5.746	6.328	6.823	7.338	7.988	8.425	8.660	9.592	10.09	10.05	10.70	11.23	11.34	11.71	12.47
405.0	 1374	 1926	 2287	 2066	 1396	 1016	891.6	892.4	970.7	 1144	 1341	 1595	 1753	 1821	 1884	 1898	 1918	 1861	 1798	 1632	 1295	 1015	803.8	634.5	491.5	384.5	328.4	286.2	196.8	138.1	103.0	71.50	50.46	41.85	51.03	215.4	822.7	772.9	27.53	4.187	3.389	3.253	3.069	2.954	3.384	3.936	4.415	5.268	5.912	6.185	6.651	7.973	6.204	4.833	4.220	4.026	4.228	4.112	3.897	4.113	4.549	5.062	5.363	5.644	6.133	6.679	7.267	7.813	7.757	8.635	8.945	9.393	9.609	10.10	10.90	11.19	11.66
410.0	 1287	 1793	 2133	 1918	 1351	987.7	861.0	841.6	892.9	 1018	 1179	 1407	 1544	 1619	 1664	 1693	 1720	 1672	 1625	 1480	 1182	940.4	752.5	601.0	474.9	374.5	310.3	276.7	234.4	165.7	118.6	85.22	61.23	45.45	36.22	65.76	243.8	632.5	670.9	119.3	8.601	3.103	2.944	2.918	3.090	3.761	3.984	4.823	5.528	5.668	6.233	7.408	5.982	4.637	4.158	3.938	4.202	3.991	3.846	3.944	4.110	4.523	4.772	5.101	5.612	5.809	6.368	6.786	7.077	7.687	7.855	8.383	8.707	8.901	9.571	9.870	10.40
415.0	 1137	 1614	 1945	 1761	 1284	955.5	837.7	785.8	814.5	894.0	 1031	 1213	 1334	 1394	 1449	 1481	 1505	 1472	 1424	 1307	 1053	839.9	688.0	559.1	451.0	361.7	299.3	255.6	233.9	203.4	141.3	99.05	74.09	54.13	40.19	37.50	71.94	161.3	418.3	757.2	175.6	7.556	2.928	2.666	2.939	3.495	3.624	4.427	5.117	5.161	5.788	6.777	5.476	4.495	4.058	3.898	4.022	3.746	3.602	3.795	3.981	4.150	4.416	4.673	4.885	5.103	5.419	6.050	5.985	6.731	6.872	7.474	7.607	7.287	8.328	8.841	9.207
420.0	 1060	 1484	 1776	 1657	 1207	933.0	808.8	736.2	747.5	804.1	919.8	 1088	 1181	 1243	 1287	 1328	 1345	 1326	 1277	 1181	955.4	770.1	637.7	521.8	426.8	348.0	292.1	248.6	219.3	211.4	165.3	109.1	81.27	60.77	44.40	34.25	35.66	51.36	119.0	519.3	711.3	30.09	3.882	2.685	2.847	3.156	3.460	4.194	4.560	4.911	5.277	6.116	5.018	4.232	3.649	3.622	3.971	3.738	3.514	3.446	3.588	3.831	4.055	4.348	4.541	4.867	4.858	5.034	5.232	5.812	6.288	6.305	6.693	7.108	7.157	7.857	8.137
425.0	 1019	 1367	 1649	 1544	 1153	900.3	785.1	696.3	692.2	742.9	832.1	968.4	 1059	 1111	 1165	 1200	 1214	 1198	 1156	 1069	870.0	706.4	590.4	492.2	405.0	337.1	285.3	245.0	209.0	195.7	181.6	125.2	87.69	65.13	47.63	35.95	29.16	28.12	38.39	159.6	622.8	556.2	25.60	2.775	2.667	2.958	3.024	3.911	4.481	4.409	5.067	5.870	4.814	4.100	3.614	3.636	3.776	3.638	3.270	3.369	3.299	3.466	3.599	3.861	4.010	4.311	4.427	4.605	4.877	5.244	5.430	5.800	5.895	6.260	6.478	6.822	7.383
430.0	918.0	 1229	 1494	 1397	 1070	848.2	748.6	650.9	631.4	661.5	733.0	847.3	925.0	970.1	 1011	 1041	 1055	 1037	998.9	932.0	764.6	626.4	531.7	448.0	372.3	316.0	270.9	238.7	204.1	180.4	168.8	147.2	102.0	70.82	51.87	39.14	31.18	24.47	21.53	44.71	183.6	467.9	413.3	107.8	7.353	2.915	2.926	3.578	4.022	4.020	4.366	5.418	4.550	3.907	3.329	3.386	3.680	3.403	3.246	3.116	3.140	3.080	3.178	3.330	3.372	3.666	3.750	4.079	4.460	4.826	4.740	4.979	5.239	5.363	5.657	6.165	6.470
435.0	887.5	 1107	 1311	 1238	987.1	789.4	713.1	611.5	579.5	582.1	633.6	731.8	792.1	835.3	858.9	892.8	904.5	884.5	856.0	797.5	662.4	549.7	471.3	401.2	340.4	293.8	257.0	226.7	197.7	173.3	153.4	142.2	123.8	82.01	57.08	43.00	34.23	26.68	20.03	19.68	47.65	114.2	296.4	644.9	158.9	5.881	2.807	3.201	3.705	3.643	3.811	4.663	4.040	3.688	3.211	3.173	3.437	3.110	2.967	2.921	2.739	2.913	2.861	2.918	3.016	3.013	3.288	3.327	3.716	4.054	4.156	4.407	4.486	4.679	4.872	5.173	5.756
440.0	939.9	 1012	 1182	 1135	930.3	759.7	689.2	585.4	546.8	537.3	577.3	649.3	703.2	740.7	756.8	787.9	799.2	783.0	759.7	709.3	591.6	497.6	429.9	371.3	316.0	276.3	245.2	219.2	191.8	168.7	147.2	129.6	128.3	96.33	62.23	45.58	36.02	28.44	20.88	15.44	17.75	30.71	83.42	471.3	610.9	27.14	3.342	3.148	3.297	3.305	3.546	4.345	3.779	3.333	3.059	3.104	3.235	2.898	2.851	2.693	2.569	2.754	2.651	2.623	2.793	2.547	3.040	3.038	3.265	3.473	3.672	3.717	4.190	4.209	4.379	4.586	5.081
445.0	 1062	960.6	 1092	 1028	859.1	724.4	652.4	556.6	507.6	495.5	525.7	588.8	628.1	661.6	681.0	700.7	715.9	695.0	676.2	631.4	531.2	450.5	393.1	342.5	293.1	260.4	234.0	208.8	184.9	162.1	143.2	121.8	116.2	105.8	69.16	46.98	37.49	29.00	21.55	15.22	11.71	12.33	23.11	147.8	574.1	466.7	20.09	3.064	3.104	3.080	3.251	3.868	3.700	3.014	2.973	2.914	3.015	2.798	2.628	2.517	2.363	2.573	2.456	2.439	2.676	2.495	2.655	2.622	2.952	3.146	3.325	3.490	3.719	3.845	4.031	4.206	4.573
450.0	995.3	 1016	971.7	907.2	782.2	657.6	598.7	509.5	455.6	440.8	457.2	510.2	541.6	565.1	579.7	598.2	608.7	590.0	574.8	538.8	455.6	391.1	343.7	302.7	261.9	235.7	212.8	194.3	173.0	154.9	135.0	115.9	100.3	95.01	80.74	54.39	38.43	29.44	22.42	15.70	11.48	8.789	10.01	37.26	169.3	432.5	373.5	93.58	6.307	2.930	2.922	3.506	3.179	2.738	2.601	2.672	2.840	2.616	2.553	2.358	2.329	2.187	2.231	2.147	2.269	2.250	2.321	2.297	2.635	2.797	2.792	3.006	3.134	3.080	3.336	3.534	3.764
455.0	714.3	 1115	890.3	788.6	678.6	593.6	535.5	457.9	401.0	384.7	395.8	431.1	457.9	467.4	480.8	496.0	507.6	486.6	477.4	449.9	382.1	332.1	295.6	263.3	231.9	209.1	189.6	176.4	157.8	143.4	125.6	107.9	90.84	78.41	73.93	64.82	42.20	29.49	22.22	16.25	11.45	8.694	7.320	12.50	41.47	105.7	272.0	545.8	131.0	4.942	2.731	3.063	2.889	2.455	2.362	2.465	2.552	2.326	2.395	2.267	2.120	1.866	1.925	1.894	1.929	1.964	1.931	2.051	2.091	2.322	2.370	2.521	2.632	2.568	2.954	2.861	3.084
460.0	531.7	 1047	956.2	708.8	621.5	547.5	495.6	417.3	363.3	346.6	349.7	379.0	400.3	406.4	418.8	429.8	435.3	421.9	410.9	389.4	334.3	294.0	262.6	235.9	209.0	190.4	174.1	161.5	146.7	133.7	118.0	102.3	85.58	72.15	63.39	64.15	49.94	31.22	22.04	16.58	11.89	9.032	7.293	6.977	12.88	26.86	75.09	390.7	492.7	20.44	3.101	2.813	2.453	2.207	2.230	2.272	2.487	2.202	2.091	1.975	2.001	1.735	1.797	1.792	1.714	1.725	1.684	1.752	1.725	1.954	2.147	2.069	2.119	2.381	2.459	2.546	2.820
465.0	442.7	837.6	 1028	662.2	554.6	503.6	462.2	384.3	342.3	314.8	315.9	338.7	356.1	361.1	368.5	376.2	381.4	372.7	360.3	341.6	297.4	259.9	233.7	212.1	189.6	173.0	161.8	148.6	135.3	123.5	110.9	97.85	82.35	68.57	57.12	55.20	54.15	35.14	22.50	16.15	12.20	9.448	7.790	6.029	6.776	9.492	19.88	120.1	471.2	369.1	16.69	2.852	2.295	2.156	2.135	2.037	2.165	2.102	1.956	1.855	1.875	1.691	1.694	1.579	1.580	1.531	1.546	1.482	1.591	1.644	1.822	2.006	1.977	2.232	2.148	2.197	2.393
470.0	356.5	557.3	932.2	728.7	493.9	447.4	409.4	349.8	300.1	276.7	273.9	289.9	299.7	305.4	310.0	316.1	317.3	309.6	299.5	285.9	248.8	220.4	200.1	183.6	164.4	151.7	140.9	132.9	121.8	111.0	100.9	88.35	74.91	63.72	52.65	45.93	45.97	40.92	26.87	17.11	12.56	9.459	7.400	6.436	5.633	5.617	7.488	29.71	141.0	340.5	277.8	86.27	5.435	2.058	1.911	1.893	2.059	1.890	1.783	1.640	1.612	1.520	1.489	1.381	1.415	1.377	1.320	1.367	1.371	1.533	1.501	1.570	1.671	1.790	1.698	1.834	1.989
475.0	317.0	405.5	642.3	832.8	496.3	396.4	361.9	310.1	267.5	241.7	230.2	242.1	249.9	253.8	254.5	261.0	260.7	249.9	244.4	232.0	206.3	184.8	168.3	156.6	142.1	132.7	122.5	117.8	107.8	98.50	89.97	79.69	68.79	57.44	48.46	40.70	36.49	37.52	33.02	20.13	12.61	9.396	7.761	6.346	5.754	4.845	4.773	9.391	33.88	81.63	189.2	431.6	109.9	3.812	1.782	1.714	1.832	1.549	1.535	1.574	1.491	1.416	1.247	1.266	1.198	1.184	1.175	1.217	1.129	1.161	1.268	1.380	1.466	1.420	1.414	1.533	1.552
480.0	295.6	340.8	462.0	756.7	586.3	358.0	325.2	283.9	241.9	216.8	208.2	211.5	222.0	222.0	222.5	224.2	226.4	215.9	212.5	200.0	179.7	161.9	148.2	137.3	127.6	116.8	110.4	106.1	97.37	90.10	82.26	73.35	63.75	53.34	44.98	37.45	31.76	30.73	32.74	23.33	13.67	9.492	8.036	6.500	5.400	4.815	4.241	4.714	9.938	20.43	51.51	286.7	373.0	22.91	2.345	1.665	1.766	1.444	1.578	1.396	1.321	1.346	1.157	1.102	1.151	0.971	1.075	1.084	1.111	1.077	1.098	1.094	1.237	1.267	1.302	1.227	1.449
485.0	265.0	308.8	366.0	573.8	701.1	366.1	298.3	256.5	219.8	198.8	190.2	193.7	195.3	195.4	193.3	197.3	198.5	190.7	183.8	177.0	158.6	143.0	133.1	122.5	115.5	105.4	101.2	96.04	88.54	83.33	75.33	67.60	59.69	50.14	42.52	35.49	29.96	25.79	27.53	26.46	16.40	10.16	7.715	6.629	5.764	4.996	4.448	3.918	4.677	6.632	13.61	83.11	341.9	317.6	18.71	1.718	1.553	1.352	1.329	1.270	1.275	1.077	1.078	0.983	0.928	0.959	0.994	0.953	0.939	0.974	0.964	0.981	1.147	1.098	1.052	1.206	1.363
490.0	233.0	287.2	314.6	379.1	641.7	462.5	273.3	231.0	198.5	175.8	164.6	169.9	166.8	166.1	164.2	166.0	167.0	160.1	156.1	149.7	134.8	122.6	114.3	106.5	99.52	92.10	88.82	84.95	78.98	74.52	67.60	60.71	53.75	45.64	38.70	32.58	27.78	23.41	20.97	22.20	20.48	12.85	8.106	6.534	5.729	4.797	4.540	4.013	3.694	3.818	5.216	20.81	98.65	262.1	265.8	83.18	4.519	1.438	1.286	1.174	1.147	0.994	0.864	0.884	0.892	0.858	0.848	0.758	0.897	0.820	0.838	0.846	0.968	0.964	0.875	0.986	1.039
495.0	193.8	258.8	264.9	272.0	409.4	613.3	307.2	202.8	171.3	153.2	141.1	143.1	142.0	141.7	138.4	136.2	136.6	132.5	127.8	124.4	111.3	103.1	96.66	91.77	85.11	79.10	77.39	73.73	68.63	64.97	59.11	53.34	47.75	41.31	35.44	29.73	25.60	20.56	17.94	16.34	18.71	16.67	10.08	6.644	5.644	4.782	4.536	4.265	3.578	3.371	3.390	6.995	24.23	63.43	189.4	374.0	113.9	3.410	1.293	1.099	1.006	0.902	0.868	0.810	0.764	0.701	0.701	0.605	0.697	0.703	0.807	0.751	0.830	0.742	0.815	0.872	0.734
500.0	163.6	228.2	248.1	224.5	278.3	568.4	416.3	188.6	154.7	138.1	126.1	125.8	123.5	120.4	120.9	118.7	116.5	113.4	110.7	107.7	96.69	90.06	83.34	79.42	74.74	70.06	68.01	65.52	61.48	58.25	52.81	47.41	42.67	37.22	31.38	26.75	23.26	19.36	16.19	14.01	14.13	16.51	12.97	7.145	5.646	4.997	4.374	3.971	3.867	3.441	3.372	3.914	7.833	16.58	51.99	247.6	376.0	24.14	2.000	1.161	0.956	0.911	0.849	0.728	0.708	0.663	0.605	0.519	0.600	0.653	0.594	0.597	0.699	0.685	0.745	0.628	0.726
505.0	138.5	196.4	231.2	206.4	211.8	401.8	546.2	209.1	142.5	124.6	112.7	111.3	109.3	107.4	102.0	103.6	101.2	96.88	94.43	91.25	83.92	77.54	73.05	69.73	65.35	61.82	59.73	58.64	55.51	51.49	47.91	43.07	39.74	33.93	29.00	24.65	21.04	17.98	14.84	12.71	11.10	13.74	14.09	9.128	5.585	4.752	4.181	4.144	3.899	3.648	3.453	3.458	4.203	6.368	14.22	73.24	333.2	202.7	19.29	1.382	0.871	0.838	0.736	0.642	0.593	0.622	0.538	0.483	0.480	0.640	0.531	0.434	0.580	0.607	0.648	0.671	0.644
510.0	116.2	146.3	198.0	185.4	174.4	232.9	477.9	363.3	134.5	106.5	98.40	95.23	91.48	88.41	86.55	85.64	84.05	79.70	78.03	74.56	69.42	65.24	60.68	58.96	55.33	52.23	50.40	49.96	47.15	44.34	41.68	37.02	34.25	29.10	25.39	21.93	18.89	16.11	13.64	11.27	9.600	9.537	11.66	11.51	7.376	4.886	4.154	4.037	3.678	3.571	3.584	3.519	3.646	4.129	5.927	19.16	95.88	206.9	232.9	78.70	3.837	0.841	0.715	0.590	0.558	0.525	0.482	0.485	0.410	0.494	0.445	0.410	0.485	0.484	0.555	0.492	0.545
515.0	100.0	112.4	156.2	168.4	157.2	157.3	268.3	493.0	202.3	94.69	83.74	81.39	76.86	72.95	70.92	69.30	67.99	65.72	63.87	59.76	56.80	53.78	50.07	49.12	45.49	42.97	42.14	40.98	39.39	37.86	34.16	31.25	28.47	24.55	21.61	18.84	16.32	13.78	11.86	9.806	8.179	7.276	7.595	10.23	9.753	5.946	4.070	3.845	3.620	3.282	3.512	3.482	3.436	3.554	4.023	7.006	23.89	50.05	137.3	288.1	26.52	2.400	0.685	0.590	0.562	0.517	0.419	0.394	0.395	0.435	0.360	0.407	0.405	0.395	0.422	0.455	0.408
520.0	85.68	103.3	119.9	144.8	141.1	130.5	161.7	423.2	338.5	90.53	74.86	69.83	66.84	63.04	62.13	59.34	58.24	55.29	55.11	52.04	49.37	45.78	43.59	41.39	39.93	37.89	37.20	36.55	34.82	33.76	31.10	27.57	25.05	22.36	19.40	16.38	14.81	12.25	10.55	8.920	7.621	6.600	5.968	7.594	9.983	7.582	4.504	3.641	3.216	3.189	3.049	3.341	3.255	3.222	3.386	4.135	7.733	13.21	36.72	183.4	208.7	23.44	1.210	0.608	0.447	0.516	0.354	0.376	0.339	0.338	0.383	0.368	0.346	0.340	0.395	0.404	0.347
525.0	73.56	87.11	105.1	128.3	138.7	114.1	116.5	264.0	450.4	130.0	65.32	62.41	59.88	57.77	53.29	51.39	50.68	47.69	47.04	44.73	42.88	39.92	37.96	36.71	35.05	33.16	32.74	32.82	30.31	29.12	27.39	24.81	22.20	19.72	17.37	15.14	13.51	11.42	9.567	8.412	6.793	6.125	5.167	5.454	7.871	8.536	5.460	3.449	2.936	2.921	2.878	3.027	3.123	2.973	3.137	3.179	3.915	4.770	9.653	52.61	203.3	191.6	17.89	0.696	0.488	0.482	0.444	0.337	0.342	0.306	0.347	0.308	0.331	0.325	0.295	0.332	0.361
530.0	59.14	74.61	87.35	100.1	123.5	100.6	94.55	132.5	354.3	294.3	72.15	54.48	51.18	46.46	44.49	42.93	41.95	39.92	38.35	38.29	35.72	34.11	32.18	31.47	29.24	28.18	28.61	27.46	25.92	24.79	23.14	21.13	18.86	16.69	14.82	12.80	11.30	9.867	8.318	7.098	6.033	5.427	4.457	4.492	5.057	7.106	7.018	4.439	2.945	2.608	2.478	2.571	2.644	2.775	2.681	2.693	2.660	2.693	3.434	12.76	56.81	153.3	181.3	60.00	2.651	0.336	0.340	0.297	0.288	0.317	0.270	0.248	0.289	0.278	0.268	0.222	0.287
535.0	50.32	60.30	72.13	75.76	100.5	101.5	80.01	83.56	164.6	381.4	172.4	46.47	42.73	39.37	37.09	36.54	32.79	32.70	30.70	30.31	28.69	27.71	26.79	25.49	24.24	23.87	23.32	22.10	21.74	20.59	19.47	17.71	16.16	14.41	12.31	11.24	9.851	8.326	7.387	6.193	5.109	4.783	3.961	3.810	3.477	4.495	6.136	5.832	3.488	2.346	2.142	2.125	2.250	2.399	2.262	2.417	2.167	1.976	1.889	3.709	13.36	35.82	95.89	206.5	26.68	1.953	0.367	0.282	0.225	0.263	0.201	0.244	0.197	0.257	0.253	0.221	0.239
540.0	48.13	55.83	59.15	66.21	78.90	98.13	75.26	67.61	83.93	287.0	309.2	50.89	37.34	34.31	31.95	30.45	29.03	28.67	27.11	26.04	24.86	23.54	23.37	22.04	21.34	20.07	19.80	19.49	18.85	17.88	16.85	15.60	13.98	12.45	10.80	9.757	8.677	7.644	6.413	5.446	4.653	4.310	3.745	3.270	3.094	3.256	4.516	5.939	4.457	2.471	2.106	2.046	1.972	1.967	1.980	2.100	1.915	1.596	1.409	1.767	3.650	8.538	24.59	126.9	191.6	22.80	0.791	0.295	0.236	0.202	0.219	0.216	0.161	0.207	0.226	0.234	0.181
545.0	47.43	51.52	51.21	62.69	65.79	88.65	77.45	61.06	59.17	163.4	375.9	114.0	32.44	29.64	28.54	26.22	26.14	24.57	23.73	23.14	21.87	20.52	20.33	19.39	18.78	17.54	18.24	17.42	16.88	15.99	14.89	13.88	11.98	11.11	9.764	8.350	7.593	6.644	5.778	4.849	4.300	3.816	3.195	2.919	2.736	2.645	2.990	4.747	5.037	3.041	2.061	1.701	1.711	1.768	1.897	1.854	1.761	1.385	1.138	1.155	1.435	2.433	6.011	35.64	156.9	155.5	16.68	0.353	0.255	0.197	0.238	0.206	0.168	0.250	0.201	0.203	0.179
550.0	47.03	52.94	52.82	54.83	56.40	71.49	83.29	59.13	54.23	79.81	254.3	250.8	48.51	25.94	23.78	21.92	21.23	20.32	19.44	19.20	17.64	17.21	16.91	16.02	15.81	15.10	14.74	14.49	13.66	13.52	12.42	11.70	10.39	9.519	8.089	7.245	6.574	5.782	4.946	4.230	3.688	3.315	2.933	2.501	2.302	2.230	2.143	2.741	4.222	3.933	2.553	1.627	1.431	1.538	1.575	1.525	1.502	1.358	1.119	0.897	0.814	1.047	1.794	8.384	42.78	113.5	133.2	46.19	1.994	0.214	0.216	0.151	0.173	0.200	0.194	0.127	0.147
555.0	78.59	85.30	76.45	64.95	62.57	61.65	79.29	70.48	59.33	67.49	123.6	294.1	147.1	23.05	19.73	18.36	17.06	16.01	15.99	15.96	14.07	13.40	13.89	13.06	12.77	11.82	12.02	12.07	11.53	10.98	9.902	9.433	8.459	7.886	6.723	6.092	5.623	4.942	4.437	3.641	3.205	2.884	2.456	2.074	2.139	1.903	1.908	1.904	2.634	3.608	3.343	2.019	1.346	1.419	1.372	1.300	1.300	1.234	1.189	0.795	0.710	0.745	0.827	2.293	9.948	26.50	67.59	148.3	26.03	1.332	0.164	0.115	0.154	0.138	0.112	0.178	0.144
560.0	104.3	118.4	103.8	76.31	74.69	62.22	73.41	81.24	70.41	72.66	89.82	217.6	269.5	33.80	17.12	15.31	14.44	13.79	13.50	12.68	11.90	11.46	11.56	11.28	10.91	10.44	9.932	10.59	9.453	9.170	8.503	8.238	7.194	6.774	6.249	5.428	4.779	4.319	3.623	3.227	2.750	2.553	2.089	1.934	1.886	1.681	1.759	1.619	1.808	2.801	3.491	2.533	1.404	1.228	1.245	1.144	1.134	1.018	1.062	0.864	0.761	0.601	0.634	0.989	2.776	6.387	17.22	88.77	128.9	20.37	0.450	0.171	0.118	0.136	0.105	0.156	0.127
565.0	121.7	126.0	118.9	86.24	77.76	59.86	65.52	85.96	78.30	78.31	84.86	138.1	300.1	93.68	14.46	13.74	12.61	11.60	11.00	10.71	10.55	9.565	9.878	9.518	9.078	8.668	8.614	8.533	7.964	7.768	7.280	6.722	6.155	5.346	5.228	4.755	4.007	3.654	3.346	2.913	2.516	2.189	2.085	1.786	1.624	1.565	1.676	1.438	1.385	1.787	2.762	2.730	1.658	1.094	1.176	0.998	1.042	0.987	0.921	0.849	0.761	0.643	0.594	0.700	1.122	1.901	4.336	24.62	99.76	102.1	13.34	0.259	0.131	0.180	0.157	0.095	0.135
570.0	128.7	143.1	126.4	90.14	79.56	59.27	59.30	77.04	92.37	89.17	94.98	101.8	190.8	212.1	34.04	10.64	9.871	9.396	8.422	8.572	8.068	7.532	7.661	7.445	7.096	6.985	6.622	6.331	6.413	6.220	5.770	5.116	4.937	4.386	4.265	3.784	3.273	3.044	2.774	2.432	2.031	1.854	1.691	1.494	1.439	1.300	1.337	1.271	1.171	1.283	1.691	2.220	2.001	1.329	0.955	0.822	0.765	0.810	0.735	0.670	0.783	0.698	0.614	0.643	0.774	0.961	1.469	6.022	27.06	70.69	80.19	16.53	1.083	0.144	0.123	0.110	0.112
575.0	151.1	161.2	145.7	97.62	89.88	67.87	60.27	73.09	102.5	106.8	108.1	101.9	98.94	199.0	113.2	9.944	7.884	6.931	6.811	6.401	6.225	5.755	5.671	5.525	5.129	5.089	5.177	4.739	4.820	4.598	4.084	3.877	3.711	3.627	3.258	2.893	2.614	2.410	2.096	1.986	1.783	1.441	1.438	1.327	1.182	1.182	1.086	1.042	1.012	1.011	1.109	1.472	1.880	1.567	1.052	0.754	0.676	0.667	0.607	0.605	0.697	0.747	0.752	0.611	0.723	0.887	0.903	1.841	6.467	16.52	39.95	80.70	22.18	0.781	0.102	0.108	0.067
580.0	160.0	181.3	162.3	115.9	106.7	84.08	68.99	78.80	106.5	121.2	123.7	111.8	81.84	131.0	199.6	23.76	7.156	5.457	5.542	5.147	4.961	4.537	4.484	4.429	4.155	3.951	4.155	4.091	3.726	3.840	3.252	3.066	3.076	3.066	2.741	2.559	2.211	2.152	1.831	1.727	1.526	1.310	1.270	1.161	1.087	1.125	0.900	1.006	0.987	0.939	0.928	1.012	1.458	1.906	1.184	0.870	0.707	0.636	0.612	0.605	0.643	0.743	0.781	0.728	0.793	0.763	0.728	0.917	1.904	4.063	10.23	48.75	72.19	14.76	0.331	0.098	0.068
585.0	159.6	187.6	176.7	139.1	132.2	100.0	79.93	82.68	103.7	132.5	134.3	121.4	83.60	78.53	198.8	79.97	6.616	4.420	4.168	4.373	4.054	3.859	3.895	3.557	3.636	3.391	3.393	3.260	3.190	3.066	2.770	2.559	2.465	2.530	2.520	2.292	1.996	1.810	1.591	1.494	1.284	1.172	1.050	1.095	0.942	0.996	0.881	0.956	0.874	0.940	0.857	0.854	1.077	1.598	1.401	1.098	0.685	0.577	0.614	0.625	0.503	0.629	0.838	0.793	0.811	0.756	0.746	0.746	0.906	1.264	2.563	13.71	54.89	55.12	7.764	0.116	0.080
590.0	173.6	192.2	194.1	161.0	161.3	129.1	92.00	87.67	102.9	135.2	147.3	135.2	93.20	59.63	116.5	169.1	25.45	4.232	3.624	3.617	3.298	3.187	3.214	2.885	2.763	2.715	2.689	2.635	2.524	2.320	2.230	2.032	2.046	2.030	1.984	1.940	1.770	1.483	1.350	1.162	1.033	1.031	0.902	0.973	0.918	0.869	0.880	0.940	0.882	0.853	0.767	0.872	0.927	1.160	1.422	1.343	0.782	0.581	0.590	0.572	0.557	0.652	0.750	0.875	0.908	0.783	0.780	0.751	0.675	0.680	0.877	3.292	14.92	38.54	37.90	13.40	0.692
595.0	171.2	195.3	208.9	181.3	180.0	156.5	98.52	93.50	106.2	131.2	162.8	144.3	103.0	60.43	57.67	144.3	87.82	4.723	3.205	2.953	2.536	2.347	2.521	2.427	2.232	2.334	2.014	1.988	2.013	1.650	1.804	1.560	1.500	1.785	1.641	1.631	1.465	1.435	1.179	1.094	0.972	0.788	0.849	0.864	0.740	0.776	0.819	0.872	0.763	0.773	0.768	0.927	0.831	0.955	1.249	1.503	0.991	0.638	0.614	0.525	0.650	0.633	0.676	0.757	0.928	0.852	0.675	0.798	0.700	0.584	0.474	0.990	3.576	8.982	20.77	45.77	16.56
600.0	168.9	181.1	207.8	179.5	188.6	158.9	102.6	97.09	105.9	129.3	167.0	156.4	111.5	67.62	44.24	85.00	157.3	16.83	2.828	2.492	2.505	2.091	1.934	1.976	1.769	1.903	1.617	1.598	1.691	1.519	1.380	1.397	1.308	1.509	1.353	1.447	1.427	1.218	1.017	0.916	0.907	0.832	0.801	0.757	0.742	0.702	0.760	0.743	0.742	0.784	0.713	0.814	0.810	0.848	1.118	1.351	1.084	0.797	0.657	0.542	0.688	0.621	0.645	0.736	0.862	0.908	0.758	0.799	0.714	0.553	0.442	0.450	1.003	2.212	5.315	26.72	41.02
605.0	159.0	183.3	206.0	182.8	193.5	164.1	106.9	99.27	113.4	128.6	161.8	163.1	117.6	73.22	45.09	46.87	149.8	64.13	2.811	2.342	2.107	1.955	1.632	1.702	1.771	1.625	1.327	1.389	1.341	1.239	1.088	1.144	1.042	1.260	1.278	1.309	1.190	1.071	0.968	0.878	0.705	0.705	0.653	0.636	0.629	0.700	0.660	0.705	0.674	0.754	0.710	0.832	0.822	0.840	0.911	1.081	1.061	0.906	0.679	0.555	0.622	0.545	0.697	0.738	0.810	0.900	0.781	0.813	0.674	0.536	0.469	0.335	0.457	0.661	1.322	7.667	31.23
610.0	145.0	174.6	187.1	179.8	191.5	168.4	111.2	102.0	115.6	131.4	155.7	165.3	124.1	81.23	52.10	32.34	76.65	127.5	21.21	2.243	1.733	1.626	1.421	1.459	1.370	1.354	1.054	1.158	1.080	0.991	0.977	0.968	0.924	1.103	1.119	1.087	0.989	0.953	0.807	0.685	0.634	0.559	0.575	0.519	0.546	0.597	0.604	0.614	0.556	0.692	0.627	0.798	0.776	0.783	0.840	0.969	0.907	0.844	0.773	0.633	0.583	0.594	0.694	0.763	0.787	0.813	0.857	0.849	0.742	0.570	0.519	0.412	0.384	0.384	0.462	1.809	8.513
615.0	135.2	153.8	170.9	169.5	191.7	163.6	108.8	103.3	118.4	134.4	152.2	160.4	134.7	86.96	58.55	32.25	30.10	98.30	88.54	2.720	1.734	1.380	1.253	1.231	1.002	1.042	0.870	0.909	0.887	0.694	0.725	0.782	0.676	0.873	0.928	0.956	0.824	0.822	0.597	0.622	0.529	0.495	0.469	0.500	0.501	0.539	0.546	0.581	0.549	0.586	0.606	0.745	0.697	0.812	0.890	0.924	0.738	0.819	0.771	0.707	0.585	0.645	0.650	0.626	0.810	0.890	0.798	0.795	0.764	0.638	0.473	0.390	0.407	0.354	0.282	0.554	1.986
620.0	119.0	141.0	165.2	161.8	185.0	157.3	109.3	101.5	117.1	130.2	148.3	162.2	141.6	94.97	63.65	36.11	20.23	53.49	125.6	15.29	1.591	1.137	1.061	1.061	1.012	0.779	0.762	0.745	0.808	0.645	0.697	0.538	0.659	0.731	0.786	0.791	0.740	0.737	0.603	0.538	0.482	0.408	0.411	0.545	0.416	0.462	0.521	0.551	0.552	0.473	0.559	0.648	0.635	0.753	0.876	0.867	0.671	0.639	0.725	0.775	0.786	0.664	0.617	0.722	0.753	0.841	0.778	0.797	0.712	0.668	0.520	0.381	0.361	0.343	0.252	0.216	0.528
625.0	106.3	124.9	153.0	154.2	170.3	148.2	103.1	101.4	118.5	130.5	150.7	159.2	142.7	102.1	64.35	39.57	19.42	24.23	109.9	55.77	1.709	0.981	0.955	0.918	0.901	0.702	0.640	0.624	0.675	0.625	0.573	0.506	0.518	0.626	0.757	0.776	0.768	0.620	0.606	0.559	0.507	0.457	0.344	0.425	0.381	0.436	0.430	0.441	0.506	0.440	0.526	0.599	0.594	0.689	0.713	0.799	0.626	0.538	0.621	0.802	0.786	0.709	0.753	0.663	0.716	0.740	0.754	0.743	0.751	0.732	0.589	0.509	0.380	0.354	0.226	0.202	0.224
630.0	99.83	118.5	136.3	136.6	159.4	141.2	103.6	104.7	117.5	132.5	150.7	153.9	141.0	112.2	72.23	44.01	22.48	15.40	51.78	101.0	17.25	0.994	0.822	0.763	0.713	0.610	0.519	0.564	0.542	0.506	0.443	0.402	0.417	0.524	0.583	0.601	0.566	0.549	0.467	0.440	0.419	0.383	0.319	0.354	0.346	0.405	0.394	0.436	0.409	0.416	0.458	0.564	0.567	0.607	0.598	0.706	0.571	0.498	0.494	0.705	0.790	0.730	0.756	0.704	0.685	0.740	0.798	0.720	0.671	0.703	0.611	0.552	0.428	0.342	0.285	0.244	0.217
635.0	95.04	106.1	122.1	128.2	139.3	134.1	101.5	103.2	115.0	136.8	153.4	157.6	142.1	117.0	82.98	48.61	27.08	16.68	19.81	72.78	61.29	1.901	0.808	0.702	0.694	0.443	0.403	0.497	0.384	0.418	0.332	0.361	0.375	0.338	0.503	0.510	0.440	0.495	0.392	0.373	0.427	0.345	0.350	0.315	0.319	0.363	0.387	0.347	0.349	0.368	0.413	0.512	0.480	0.549	0.579	0.644	0.486	0.471	0.463	0.590	0.685	0.759	0.659	0.735	0.717	0.767	0.818	0.731	0.729	0.630	0.600	0.563	0.455	0.327	0.319	0.258	0.151
640.0	95.22	103.0	109.7	115.4	130.5	126.6	100.3	100.7	115.4	134.0	151.4	156.5	141.9	114.5	89.07	52.61	30.36	18.37	12.64	36.56	100.2	12.51	0.731	0.624	0.555	0.536	0.419	0.439	0.400	0.294	0.310	0.361	0.359	0.399	0.460	0.388	0.439	0.392	0.361	0.359	0.347	0.320	0.379	0.276	0.332	0.350	0.370	0.310	0.316	0.334	0.383	0.464	0.498	0.441	0.469	0.593	0.469	0.365	0.482	0.558	0.639	0.793	0.733	0.694	0.763	0.718	0.761	0.743	0.715	0.602	0.647	0.605	0.464	0.404	0.407	0.234	0.202
645.0	89.25	97.33	100.2	103.2	117.4	117.1	100.7	98.06	114.9	132.2	147.1	158.8	139.9	115.7	93.18	57.39	32.79	20.36	12.31	16.71	85.99	46.13	0.918	0.540	0.427	0.411	0.441	0.372	0.374	0.343	0.334	0.273	0.286	0.392	0.445	0.396	0.399	0.387	0.312	0.311	0.294	0.345	0.395	0.231	0.339	0.315	0.311	0.294	0.313	0.310	0.330	0.367	0.447	0.396	0.540	0.523	0.481	0.439	0.488	0.456	0.625	0.729	0.733	0.836	0.708	0.677	0.693	0.821	0.806	0.611	0.669	0.562	0.580	0.404	0.399	0.312	0.212
650.0	87.83	89.01	91.93	90.06	111.0	103.4	91.55	98.66	113.1	129.1	144.9	152.7	138.9	113.7	92.03	60.42	34.56	21.65	13.08	10.00	47.07	82.32	3.931	0.521	0.430	0.329	0.338	0.275	0.359	0.353	0.249	0.288	0.281	0.343	0.380	0.350	0.392	0.349	0.283	0.293	0.317	0.339	0.423	0.285	0.254	0.311	0.256	0.347	0.320	0.291	0.296	0.353	0.433	0.439	0.485	0.472	0.441	0.418	0.408	0.477	0.574	0.656	0.688	0.731	0.612	0.658	0.735	0.768	0.654	0.663	0.587	0.498	0.532	0.481	0.368	0.314	0.234
