Sample:	'1
File name:	G2025070815—’«≈¥Â«≈.FD3
Run date:	'14:42:00, 07/09/2025
Operator:	Administrator
Comment:	'

Instrument
Model:	F-2700 FL Spectrophotometer
Serial number:	23B8-004
ROM Version:	4J14000 07

Instrument parameters
Measurement type:	3-D scan
Data mode:	Fluorescence
EX  Start WL:	220.0 nm
EX  End WL:	600.0 nm
EX Sampling interval:	5.0 nm
EM  Start WL:	230.0 nm
EM  End WL:	650.0 nm
EM Sampling interval:	5.0 nm
Scan speed:	12000 nm/min
EX Slit:	5.0 nm
EM Slit:	5.0 nm
PMT Voltage:	700 V
Response:	Auto 
Corrected spectra:	Off
Contour interval:	50.000

Peak integration
Integration method:	Rectangular
Sensitivity:	1
Threshold:	1.000

Peaks
No.	ApexEX/EM(nm)	Height(Data)
1	225.0/580.0	98.03
2	225.0/610.0	71.18
3	230.0/345.0	6112
4	240.0/265.0	306.4
5	245.0/270.0	305.7
6	250.0/275.0	407.3
7	250.0/440.0	5344
8	255.0/285.0	484.9
9	260.0/290.0	569.1
10	265.0/585.0	146.9
11	270.0/600.0	127.3
12	275.0/415.0	6214
13	275.0/435.0	6045
14	275.0/610.0	132.7
15	280.0/345.0	3100
16	285.0/640.0	96.35
17	340.0/415.0	3428
18	340.0/430.0	3309
19	345.0/435.0	3320
20	460.0/345.0	17.86
21	475.0/345.0	18.45
22	505.0/275.0	2.581
23	510.0/280.0	3.038
24	510.0/445.0	19.82
25	520.0/285.0	3.282
26	565.0/410.0	19.54
27	575.0/345.0	15.93
28	575.0/415.0	19.67
29	590.0/365.0	15.20

Data points
	220.0	225.0	230.0	235.0	240.0	245.0	250.0	255.0	260.0	265.0	270.0	275.0	280.0	285.0	290.0	295.0	300.0	305.0	310.0	315.0	320.0	325.0	330.0	335.0	340.0	345.0	350.0	355.0	360.0	365.0	370.0	375.0	380.0	385.0	390.0	395.0	400.0	405.0	410.0	415.0	420.0	425.0	430.0	435.0	440.0	445.0	450.0	455.0	460.0	465.0	470.0	475.0	480.0	485.0	490.0	495.0	500.0	505.0	510.0	515.0	520.0	525.0	530.0	535.0	540.0	545.0	550.0	555.0	560.0	565.0	570.0	575.0	580.0	585.0	590.0	595.0	600.0
230.0	39.98	624.6	1466	432.7	22.29	8.633	6.487	5.832	5.600	5.018	5.022	4.333	3.932	3.706	3.311	2.756	2.584	2.198	2.186	1.906	1.745	1.671	1.774	1.660	1.533	1.348	1.392	1.280	1.332	1.164	1.120	1.058	0.937	0.828	0.734	0.667	0.635	0.570	0.468	0.439	0.467	0.461	0.458	0.402	0.381	0.374	0.858	3.182	5.617	4.350	1.651	0.481	0.287	0.284	0.274	0.281	0.314	0.284	0.276	0.267	0.298	0.315	0.269	0.321	0.272	0.335	0.266	0.277	0.272	0.277	0.311	0.311	0.294	0.289	0.285	0.316	0.289
235.0	63.34	185.8	1068	1793	440.6	30.14	7.953	6.728	5.370	5.144	5.028	3.906	4.422	3.766	3.175	3.017	2.413	2.310	2.312	1.918	1.757	1.706	1.469	1.773	1.570	1.453	1.416	1.387	1.283	1.339	1.065	0.957	0.961	0.780	0.756	0.701	0.604	0.524	0.497	0.407	0.468	0.419	0.477	0.429	0.480	0.387	0.419	1.061	2.417	4.611	6.962	7.403	3.300	0.753	0.299	0.284	0.387	0.304	0.349	0.269	0.275	0.290	0.291	0.254	0.311	0.307	0.264	0.286	0.239	0.231	0.267	0.356	0.302	0.332	0.308	0.301	0.320
240.0	93.44	98.08	365.0	1774	2059	342.1	16.80	7.904	5.513	5.760	5.154	4.597	4.755	4.066	3.428	3.187	2.737	2.390	2.017	1.891	1.886	1.830	1.467	1.715	1.803	1.556	1.787	1.465	1.390	1.259	1.059	1.040	0.912	0.833	0.771	0.677	0.580	0.493	0.419	0.410	0.430	0.462	0.442	0.485	0.612	0.537	0.448	0.585	0.808	1.623	4.188	9.740	11.58	7.822	2.733	0.545	0.305	0.331	0.293	0.284	0.293	0.294	0.326	0.258	0.315	0.331	0.267	0.245	0.253	0.255	0.265	0.282	0.259	0.282	0.328	0.282	0.299
245.0	89.05	128.1	124.9	669.5	2565	2125	236.4	10.17	8.171	6.616	6.323	5.094	5.492	4.537	3.748	3.030	2.589	2.347	2.405	2.198	1.831	2.005	1.712	1.727	1.567	1.419	1.624	1.561	1.375	1.162	1.115	1.077	0.894	0.815	0.765	0.710	0.556	0.598	0.477	0.487	0.515	0.446	0.469	0.511	0.435	0.646	0.738	0.605	0.523	0.594	1.224	3.423	8.832	15.00	13.82	6.904	1.785	0.344	0.314	0.295	0.287	0.275	0.359	0.263	0.290	0.331	0.289	0.274	0.272	0.295	0.268	0.247	0.374	0.312	0.289	0.290	0.324
250.0	46.19	120.4	173.0	209.9	911.4	2596	2899	848.0	39.89	8.706	7.109	6.414	5.464	4.829	3.961	3.474	2.801	2.586	2.354	2.241	1.972	2.088	1.876	1.707	1.703	1.482	1.408	1.542	1.363	1.330	1.152	1.078	0.974	0.813	0.800	0.701	0.650	0.543	0.506	0.496	0.482	0.440	0.436	0.411	0.417	0.447	0.569	0.736	0.816	0.730	0.674	1.073	2.400	5.298	9.419	14.51	17.91	15.22	7.669	2.066	0.425	0.335	0.325	0.300	0.297	0.326	0.321	0.303	0.317	0.295	0.265	0.304	0.307	0.309	0.297	0.341	0.305
255.0	30.40	49.59	147.8	246.7	258.6	716.2	2901	4741	278.8	36.54	8.767	7.106	6.367	5.414	4.412	3.348	3.122	2.691	2.340	2.397	2.067	1.998	2.036	1.728	1.852	1.491	1.457	1.454	1.378	1.238	1.301	1.143	1.041	0.917	0.805	0.717	0.708	0.561	0.482	0.520	0.400	0.384	0.400	0.430	0.376	0.448	0.384	0.430	0.524	0.860	1.055	1.109	0.942	1.437	2.357	3.785	7.603	17.77	29.28	24.97	12.33	2.292	0.386	0.328	0.369	0.364	0.326	0.288	0.320	0.326	0.306	0.254	0.299	0.403	0.269	0.351	0.355
260.0	26.80	32.86	67.85	242.3	227.7	198.0	998.2	4750	4883	233.4	19.81	9.532	7.342	6.544	5.035	4.169	3.397	3.198	2.953	2.553	2.134	2.003	1.953	1.855	1.725	1.578	1.578	1.459	1.463	1.295	1.317	1.086	1.006	0.985	0.685	0.685	0.678	0.597	0.522	0.536	0.492	0.482	0.455	0.457	0.428	0.392	0.360	0.385	0.409	0.544	0.768	1.656	1.411	0.891	0.826	1.204	2.034	5.253	14.41	29.67	38.85	24.10	8.617	1.104	0.354	0.392	0.305	0.348	0.302	0.297	0.393	0.284	0.312	0.417	0.272	0.364	0.328
265.0	31.62	26.12	33.07	135.0	306.4	165.9	256.8	1827	6597	4739	174.2	12.68	9.139	7.251	5.333	4.360	3.399	3.180	2.742	2.430	2.091	1.903	1.958	2.060	1.844	1.779	1.532	1.643	1.585	1.382	1.226	1.261	1.025	0.946	0.862	0.701	0.689	0.634	0.540	0.519	0.488	0.494	0.446	0.520	0.459	0.361	0.393	0.413	0.351	0.351	0.462	1.077	1.640	1.810	1.054	0.739	0.755	1.539	3.733	9.426	23.76	41.74	32.33	20.08	4.860	0.579	0.407	0.382	0.380	0.348	0.345	0.393	0.337	0.351	0.399	0.315	0.292
270.0	46.88	43.08	38.90	53.64	171.6	305.7	205.2	459.0	2309	6189	5482	719.1	37.16	9.203	6.931	5.619	4.278	3.690	2.968	2.634	2.320	2.492	2.033	2.001	2.081	1.833	1.751	1.597	1.706	1.430	1.313	1.336	1.176	1.012	0.909	0.769	0.702	0.603	0.513	0.516	0.473	0.517	0.479	0.525	0.466	0.501	0.420	0.389	0.359	0.360	0.392	0.537	0.788	1.252	1.618	1.828	1.559	0.976	1.263	2.549	5.992	12.76	21.39	36.68	36.87	37.20	14.37	4.841	0.629	0.421	0.424	0.411	0.341	0.389	0.363	0.298	0.362
275.0	106.1	116.1	97.84	57.73	68.69	179.7	407.3	263.7	570.5	1637	5882	9999.9	971.6	31.12	9.420	7.016	5.470	4.681	3.596	3.163	2.738	2.394	2.066	2.282	2.079	2.047	1.932	1.772	1.473	1.576	1.475	1.202	1.341	1.201	0.868	0.887	0.943	0.663	0.592	0.574	0.572	0.594	0.550	0.580	0.577	0.699	0.626	0.527	0.629	0.534	0.364	0.466	0.538	0.633	0.800	1.161	2.083	2.581	1.992	1.244	1.846	3.327	5.358	8.880	12.80	31.77	59.66	63.12	22.61	4.631	0.519	0.408	0.380	0.447	0.414	0.375	0.343
280.0	189.3	203.8	163.9	91.58	60.50	96.36	315.5	375.2	257.9	464.1	1858	9423	8623	141.8	17.62	9.055	6.388	4.838	4.030	3.262	2.940	2.787	2.467	2.326	2.270	2.200	2.008	1.693	1.525	1.591	1.424	1.354	1.276	1.168	1.064	0.956	0.928	0.824	0.620	0.646	0.634	0.706	0.600	0.680	0.713	0.888	0.831	0.879	0.761	0.692	0.533	0.621	0.527	0.579	0.603	0.693	1.138	2.046	3.038	2.395	1.518	1.451	1.899	2.710	3.620	8.606	22.61	51.69	72.83	32.37	16.63	2.081	0.428	0.402	0.491	0.372	0.428
285.0	275.0	303.9	252.4	150.2	85.64	86.70	176.2	484.9	320.7	266.9	579.4	3226	9999.9	6527	104.8	12.93	8.452	5.855	4.621	3.538	3.286	2.957	2.631	2.235	2.282	2.233	1.903	1.938	1.654	1.414	1.536	1.448	1.292	1.272	1.054	1.109	0.976	0.945	0.726	0.901	0.775	0.759	0.697	0.740	0.964	1.123	1.059	1.087	1.062	0.919	0.766	0.765	0.645	0.632	0.638	0.611	0.904	1.117	2.119	3.268	3.282	2.076	1.391	1.445	1.841	2.866	6.218	14.43	33.89	61.23	78.18	28.55	10.31	1.002	0.595	0.528	0.464
290.0	377.3	441.9	387.8	251.1	153.9	141.2	172.6	312.7	569.1	512.4	454.5	1024	3441	8743	7954	426.2	26.17	8.273	6.045	4.861	4.005	3.417	2.903	2.668	2.411	2.251	1.938	1.918	1.877	1.665	1.725	1.618	1.274	1.289	1.196	1.149	1.071	0.991	0.903	0.936	0.850	0.823	0.932	0.954	1.132	1.316	1.466	1.676	1.486	1.249	1.107	1.089	0.927	0.879	0.830	0.818	0.997	1.109	1.393	1.962	2.775	3.430	3.646	2.887	2.327	2.373	3.055	4.981	9.252	17.40	33.19	46.82	60.99	52.04	18.83	8.446	1.059
295.0	454.1	573.8	550.5	366.1	239.8	221.7	237.6	305.4	457.3	845.1	835.4	725.0	1175	2374	6903	9999.9	603.2	22.51	8.794	6.022	4.718	3.822	3.431	2.998	2.658	2.552	2.450	2.183	2.139	1.923	1.690	1.456	1.340	1.289	1.305	1.274	1.274	1.077	1.061	0.958	0.941	0.935	1.042	1.252	1.361	1.540	1.870	2.017	2.082	1.619	1.333	1.486	1.314	1.260	1.143	1.186	1.430	1.450	1.524	1.734	2.095	2.428	3.134	5.238	5.424	4.364	3.455	3.706	4.898	6.128	9.497	12.17	17.22	31.60	64.52	83.64	29.97
300.0	517.7	653.5	666.5	456.9	326.8	309.6	340.6	376.7	519.1	816.5	1275	984.5	862.0	940.3	2147	9405	5748	87.03	16.55	7.750	6.073	4.879	4.593	3.289	2.775	2.796	2.461	2.120	2.099	2.068	1.807	1.726	1.553	1.249	1.355	1.460	1.305	1.216	1.219	1.079	0.990	1.043	1.093	1.171	1.467	1.737	2.140	2.111	2.347	1.908	1.797	1.873	1.591	1.571	1.635	1.606	1.708	1.973	2.134	2.110	2.401	2.719	3.472	4.488	5.998	6.906	6.035	4.673	4.466	4.538	5.149	5.103	5.784	9.159	21.02	51.49	83.13
305.0	580.4	812.6	760.9	563.3	428.5	428.0	453.1	574.8	728.8	975.3	1445	1581	1137	860.4	913.6	3188	9999.9	4723	71.62	11.71	7.386	5.622	5.192	4.210	3.440	2.824	2.692	2.187	2.129	2.111	1.820	1.732	1.501	1.248	1.520	1.401	1.455	1.182	1.055	1.382	1.100	1.175	1.189	1.460	1.673	2.000	2.205	2.560	2.807	2.149	1.967	2.102	2.072	1.856	2.013	2.141	2.367	2.485	2.953	3.012	3.280	3.647	4.530	5.243	5.785	7.303	8.879	8.588	6.939	5.998	5.111	4.950	4.474	4.723	7.038	14.24	32.13
310.0	657.6	894.4	889.9	685.4	548.6	553.2	638.2	776.4	933.5	1184	1503	1847	1725	1153	851.9	1123	3405	7633	6947	1305	22.51	8.044	5.833	4.658	4.003	3.212	3.095	2.461	2.452	2.261	2.004	1.812	1.693	1.603	1.659	1.400	1.383	1.278	1.216	1.223	1.117	1.215	1.221	1.523	1.799	2.136	2.548	2.894	3.014	2.549	2.248	2.570	2.414	2.339	2.370	2.649	2.988	3.239	3.616	3.992	4.351	4.604	5.552	6.255	6.592	7.234	8.397	9.183	9.999	9.282	7.933	6.241	5.606	5.160	4.897	6.075	9.800
315.0	780.6	1093	1048	815.7	667.7	662.2	773.8	927.6	1073	1342	1612	1835	1928	1677	1045	807.2	1182	2052	5930	9628	479.3	22.59	8.496	5.906	5.116	3.990	3.461	2.962	3.021	2.586	2.217	1.943	1.641	1.792	1.521	1.561	1.375	1.413	1.275	1.253	1.229	1.220	1.442	1.666	2.070	2.547	3.024	3.419	3.322	2.875	2.939	3.072	2.666	2.794	2.903	3.177	3.458	3.907	4.255	4.633	4.967	5.222	6.050	6.761	7.450	7.523	8.640	8.521	9.631	10.03	10.26	9.205	7.758	6.374	5.726	5.179	5.473
320.0	964.3	1462	1245	1055	806.5	767.5	876.1	1036	1214	1496	1771	1993	1997	1982	1447	902.1	811.1	782.5	1737	8048	7972	378.1	15.22	7.692	5.873	4.633	4.088	3.364	3.108	2.869	2.357	2.137	1.801	1.773	1.556	1.552	1.488	1.383	1.398	1.123	1.422	1.480	1.613	1.755	2.450	3.160	3.941	4.587	4.296	3.911	3.633	3.971	3.452	3.321	3.336	3.535	4.025	4.591	4.712	4.932	5.568	5.926	6.622	7.449	8.061	8.242	8.986	9.550	9.954	10.36	10.37	10.55	10.47	8.733	6.919	5.969	5.364
325.0	1419	2273	2331	1736	1132	933.3	1008	1166	1368	1669	1987	2244	2234	2112	1861	1203	860.5	599.2	621.1	2563	9052	3884	59.60	12.67	7.345	5.568	4.428	3.733	3.364	3.008	2.708	2.508	1.830	1.834	1.690	1.727	1.619	1.496	1.426	1.405	1.525	1.674	2.029	2.376	3.180	4.608	5.550	6.768	7.024	6.065	5.626	6.003	4.835	3.971	4.002	4.060	4.406	5.202	5.242	5.754	6.253	6.755	7.385	8.142	9.114	10.02	10.31	10.74	10.95	11.56	11.32	10.96	11.53	11.42	9.787	7.839	6.501
330.0	2080	3460	4052	3230	1947	1327	1249	1385	1609	1957	2324	2597	2626	2419	2123	1718	1191	752.0	545.3	859.8	2869	6232	6042	1249	24.73	8.773	5.916	4.517	4.002	3.439	2.958	2.416	2.386	1.927	1.761	1.830	1.649	1.568	1.633	1.537	1.746	1.861	2.484	3.172	4.456	6.304	8.223	11.06	11.87	11.08	10.28	10.29	8.064	6.612	5.603	5.332	5.304	5.854	6.266	6.444	7.253	7.862	8.733	9.243	10.52	11.49	11.81	12.24	12.91	12.89	13.08	13.12	12.49	12.44	11.53	11.04	9.616
335.0	2531	4323	5204	4519	2878	1819	1535	1599	1816	2181	2578	2865	2934	2738	2387	1974	1649	1089	745.8	693.0	1041	1785	5158	8885	424.6	28.35	9.446	6.317	4.965	3.637	3.443	3.101	2.598	2.042	2.094	1.814	1.683	1.655	1.728	1.960	1.884	2.217	2.743	3.923	5.550	7.950	10.07	12.99	14.65	14.46	14.34	14.74	11.73	9.837	7.755	7.227	6.967	6.823	7.077	7.165	8.046	9.360	9.447	10.40	11.22	12.58	12.94	13.64	14.37	14.55	14.67	14.78	14.29	14.03	12.88	12.29	12.28
340.0	2771	4710	5895	5170	3380	2140	1682	1739	1955	2305	2687	2971	3080	2903	2555	2094	1783	1389	930.7	767.5	730.2	806.4	1702	7130	7612	362.8	18.49	8.045	5.729	4.407	3.776	3.199	2.703	2.377	2.183	1.842	1.793	1.859	1.750	1.964	1.990	2.586	3.100	4.063	6.163	8.700	11.05	15.13	16.85	16.34	15.90	17.20	13.74	11.36	9.538	7.831	7.652	7.584	7.721	8.479	8.679	9.737	10.08	11.25	12.09	13.02	13.66	14.34	14.90	15.03	15.30	15.72	15.31	14.55	13.91	12.90	12.69
345.0	2803	4850	6112	5494	3630	2297	1791	1828	2034	2360	2715	3021	3100	2963	2640	2181	1806	1536	1153	882.4	750.0	661.3	781.0	2344	8005	3388	54.91	12.59	7.239	5.098	4.276	3.479	2.826	2.468	2.090	1.928	1.834	1.853	1.791	1.946	2.092	2.535	3.100	4.159	6.081	8.850	11.32	15.65	17.86	16.88	16.79	18.45	14.63	12.06	9.786	8.487	8.442	8.184	8.010	8.455	8.713	9.862	10.50	11.63	12.01	13.14	13.64	14.23	15.10	15.86	15.81	15.93	15.88	15.66	14.11	13.53	12.73
350.0	2694	4626	5881	5456	3792	2487	1984	1958	2118	2372	2685	2941	3029	2916	2641	2256	1875	1585	1386	1147	914.3	783.9	695.5	896.9	2516	5178	5209	1241	22.72	7.483	5.216	4.041	3.186	2.661	2.498	2.052	1.880	1.935	1.878	1.940	2.039	2.405	3.048	3.944	5.708	8.161	10.66	14.58	16.59	16.47	16.46	18.32	15.54	13.03	10.59	9.222	9.262	8.757	8.846	8.929	9.608	10.25	10.70	11.44	12.20	12.95	13.68	14.11	14.59	15.35	15.54	15.55	15.67	15.13	14.65	14.21	13.38
355.0	2459	4283	5465	5143	3802	2645	2146	2081	2186	2370	2629	2818	2907	2836	2615	2300	1989	1697	1510	1424	1191	969.3	809.4	691.0	882.2	1391	3780	7666	1837	27.32	7.916	5.090	3.707	3.086	2.516	2.223	2.076	1.929	1.978	1.873	2.032	2.226	2.943	3.809	5.063	7.517	10.22	13.80	15.20	15.40	15.31	17.31	15.20	13.22	11.08	10.09	9.549	9.092	9.330	9.323	10.02	10.67	11.06	11.20	11.65	12.28	13.17	13.93	13.93	14.19	15.05	15.00	15.32	15.23	14.33	14.07	13.66
360.0	2310	3950	5022	4912	3689	2701	2224	2153	2244	2379	2591	2750	2822	2745	2579	2320	2054	1806	1612	1531	1421	1153	945.6	734.3	601.6	567.5	1092	5416	7418	369.1	18.82	7.228	4.493	3.675	2.679	2.488	2.146	1.978	1.945	1.895	2.199	2.292	2.946	3.740	4.613	7.022	9.488	12.28	14.52	14.13	14.87	16.60	14.73	13.25	11.41	9.705	9.903	9.594	9.910	9.989	10.14	10.44	10.78	11.45	11.76	12.23	12.72	13.03	13.91	14.06	14.95	14.85	14.83	14.75	14.41	14.29	14.00
365.0	2175	3638	4675	4631	3612	2734	2304	2205	2279	2397	2546	2672	2732	2671	2540	2320	2101	1901	1742	1627	1564	1379	1088	837.4	628.7	456.8	433.5	1603	6625	6222	296.8	12.01	5.788	4.432	3.317	2.511	2.328	2.014	2.144	1.977	2.084	2.169	2.707	3.703	4.830	6.525	8.557	11.69	13.27	13.25	13.76	15.56	14.40	12.61	11.13	10.25	9.940	10.03	10.30	10.08	10.54	10.59	10.87	11.71	11.60	12.18	12.38	13.12	13.70	13.24	13.98	14.14	14.67	14.51	15.20	14.67	13.92
370.0	1980	3218	4263	4258	3482	2752	2392	2301	2321	2423	2536	2608	2636	2590	2474	2307	2152	2005	1888	1786	1680	1576	1350	1028	770.7	542.8	382.0	545.2	1929	5126	4896	1221	21.92	6.808	4.351	3.100	2.699	2.517	2.136	1.997	2.081	2.466	2.648	3.359	4.406	6.023	7.766	10.27	11.79	11.88	12.51	14.96	13.56	12.56	11.38	10.37	10.60	10.47	10.51	10.36	10.96	11.11	11.22	11.62	11.80	12.02	12.33	12.70	12.89	13.05	13.51	13.65	13.97	14.45	14.38	14.50	14.26
375.0	1873	2960	3840	3914	3351	2756	2474	2369	2350	2416	2516	2550	2546	2507	2390	2274	2180	2080	2006	1928	1819	1690	1553	1280	950.1	696.3	478.4	409.3	621.3	1297	3207	6896	1798	26.25	7.173	5.066	3.373	2.544	2.260	2.088	2.033	2.360	2.578	3.186	4.322	5.602	6.758	8.964	10.41	10.61	11.35	13.33	12.68	12.18	11.17	10.45	10.86	10.51	10.68	10.31	10.90	10.90	11.39	12.01	11.78	11.81	11.89	12.24	12.78	12.99	13.28	13.46	13.45	14.02	13.64	13.99	14.18
380.0	1719	2703	3547	3664	3259	2758	2484	2413	2358	2423	2482	2521	2502	2451	2356	2249	2173	2123	2062	2008	1900	1774	1623	1440	1114	818.8	601.3	457.8	400.2	466.5	918.0	4574	6295	319.1	19.20	8.067	5.025	3.356	2.736	2.367	2.082	2.393	2.609	3.133	4.154	5.475	6.472	8.662	10.06	10.11	10.71	12.81	12.23	12.01	11.17	10.39	11.05	10.52	10.83	10.70	11.07	11.32	11.38	11.48	11.33	11.39	11.69	11.84	12.27	12.90	13.09	13.07	13.17	13.62	13.08	13.51	14.03
385.0	1647	2567	3260	3502	3192	2783	2521	2423	2385	2458	2482	2508	2489	2435	2321	2236	2167	2127	2099	2056	1963	1845	1682	1518	1283	969.2	729.8	561.1	430.9	352.9	378.5	1333	5153	4985	254.3	17.73	9.245	5.327	3.182	2.470	2.187	2.416	2.673	3.096	3.877	5.022	6.073	8.188	9.066	9.359	9.998	12.45	11.95	11.76	11.43	10.94	11.10	10.82	11.21	11.42	11.02	11.14	11.48	11.38	11.75	11.48	11.29	11.82	11.99	12.73	12.34	12.87	12.80	13.40	13.49	13.60	13.85
390.0	1592	2461	3128	3365	3182	2895	2688	2588	2548	2615	2671	2686	2655	2568	2417	2288	2197	2156	2134	2121	2067	1981	1840	1675	1498	1265	999.1	805.6	652.0	523.4	400.0	545.2	1535	3847	3675	988.5	29.12	15.54	6.757	3.535	2.670	2.579	2.886	3.050	3.843	4.922	5.974	7.749	8.639	8.801	9.648	11.82	11.93	11.58	11.23	11.24	11.37	11.42	11.79	11.46	11.28	11.54	11.56	11.68	11.84	11.85	11.86	11.82	12.25	12.60	12.86	12.94	12.76	13.70	13.54	13.72	13.73
395.0	1580	2411	3083	3410	3349	3203	3040	2964	2987	3132	3254	3282	3217	3043	2800	2539	2338	2259	2250	2267	2264	2230	2151	2027	1865	1713	1520	1291	1114	958.5	795.1	675.2	677.6	1181	2464	5045	1501	38.12	18.01	6.539	3.815	2.980	3.102	3.337	4.136	4.677	5.859	7.303	8.367	8.387	9.501	11.87	12.00	11.86	11.71	11.67	12.44	12.93	12.28	12.42	12.16	12.38	12.76	13.27	13.12	13.10	13.08	13.17	13.72	13.48	14.01	13.54	14.09	14.06	13.99	14.42	13.97
400.0	1684	2428	3202	3544	3623	3566	3499	3445	3558	3806	4079	4137	4021	3738	3339	2917	2574	2422	2405	2446	2491	2524	2520	2457	2342	2207	2087	1884	1671	1500	1300	1066	855.9	802.7	1023	3433	4718	283.2	34.81	11.86	5.577	3.610	3.273	3.441	4.259	4.865	5.714	7.758	7.868	8.706	9.618	11.99	12.39	12.63	12.59	12.94	13.23	13.58	13.61	13.11	13.55	13.85	14.51	14.59	14.65	15.12	15.22	15.53	15.74	15.64	16.17	15.22	15.87	16.14	15.24	15.47	14.79
405.0	1757	2523	3363	3788	4008	4006	4018	4009	4238	4634	5057	5164	4995	4563	3982	3377	2851	2625	2589	2649	2758	2853	2913	2925	2868	2769	2662	2544	2315	2111	1881	1574	1235	986.5	866.2	1378	3928	3673	235.5	20.82	7.685	4.559	3.678	3.812	4.132	5.178	5.854	7.765	8.297	8.804	9.430	12.35	12.55	13.26	13.60	13.24	14.78	14.47	14.78	14.65	15.11	15.41	16.18	16.57	16.69	17.15	16.79	17.57	17.17	17.72	17.93	17.22	17.55	17.53	16.83	16.46	15.70
410.0	1781	2646	3437	4002	4276	4439	4519	4563	4854	5399	5933	6072	5845	5318	4570	3777	3105	2770	2722	2817	2955	3122	3253	3341	3343	3280	3201	3107	2936	2703	2434	2064	1628	1272	1031	945.9	1436	2873	2818	844.8	19.62	6.364	4.845	4.378	4.527	5.599	5.848	7.816	8.356	8.931	9.725	12.43	13.00	14.15	14.26	14.33	15.74	15.87	16.03	16.44	16.39	16.96	17.91	18.14	18.91	19.34	18.83	19.16	19.22	19.54	19.27	19.12	19.06	18.93	18.02	17.40	16.81
415.0	1758	2574	3425	3965	4345	4528	4667	4728	4988	5552	6080	6214	5953	5448	4653	3806	3095	2736	2681	2777	2926	3117	3283	3400	3428	3374	3300	3196	3062	2881	2584	2195	1729	1353	1075	856.1	738.5	866.0	1703	3506	1132	20.10	6.152	5.167	4.820	5.452	5.737	7.635	8.246	8.589	9.243	12.27	13.07	13.39	14.50	15.01	15.78	16.62	16.42	16.77	16.57	17.17	17.94	17.97	19.17	19.41	19.66	19.62	19.27	19.44	19.20	19.67	19.00	18.15	17.52	17.14	15.86
420.0	1733	2531	3307	3896	4257	4494	4646	4709	4925	5410	5931	6029	5778	5277	4524	3682	2986	2633	2589	2675	2822	3002	3175	3295	3327	3302	3226	3129	2989	2838	2565	2151	1701	1341	1056	806.2	567.8	401.0	507.0	2246	3275	244.5	12.20	5.641	5.426	5.204	5.876	7.575	7.787	8.228	9.039	12.07	12.66	13.03	13.76	14.58	15.90	16.29	16.86	17.25	16.98	17.02	17.68	17.65	18.17	18.40	18.42	18.58	18.87	18.29	18.84	18.23	18.08	17.79	16.64	16.98	15.98
425.0	1635	2458	3190	3795	4243	4501	4717	4738	4917	5351	5815	5924	5668	5152	4415	3604	2915	2564	2528	2609	2740	2914	3100	3220	3279	3248	3195	3104	2963	2807	2586	2164	1709	1344	1062	805.5	536.3	302.2	206.2	640.0	2595	2094	190.1	7.687	5.802	5.584	5.737	6.958	7.665	7.873	8.765	12.21	12.34	13.80	14.02	14.96	15.77	16.16	17.02	16.71	16.87	16.76	17.53	17.52	17.97	18.47	18.21	18.21	18.45	18.66	18.26	18.16	17.99	17.10	16.62	16.08	15.35
430.0	1687	2412	3214	3836	4356	4664	4951	4955	5062	5464	5901	6022	5739	5228	4477	3635	2918	2563	2505	2576	2696	2889	3075	3233	3309	3306	3273	3197	3065	2909	2696	2313	1836	1437	1145	870.3	577.0	314.9	159.6	197.2	718.9	1831	2184	673.0	15.34	6.523	6.327	7.144	7.762	7.815	9.002	11.98	12.70	13.72	14.64	15.74	17.61	17.73	17.75	17.53	17.75	17.59	17.80	18.06	18.24	18.16	18.35	18.17	18.18	18.44	18.57	18.31	18.07	17.46	16.60	16.36	15.46
435.0	1700	2350	3167	3872	4416	4906	5301	5244	5216	5524	5919	6045	5766	5230	4497	3623	2911	2541	2468	2527	2648	2811	3021	3194	3284	3320	3296	3242	3131	2984	2761	2400	1948	1520	1214	937.0	629.5	345.2	171.1	110.7	200.5	442.6	1293	2781	249.0	18.25	7.718	7.766	8.146	7.913	9.035	11.73	12.65	14.47	15.52	16.27	18.67	18.82	19.03	19.29	18.65	18.11	17.99	17.58	18.40	18.61	17.90	17.63	17.82	18.55	19.06	18.19	17.34	17.91	16.23	16.02	15.62
440.0	1840	2368	3095	3822	4428	4959	5344	5298	5198	5405	5686	5819	5546	5032	4336	3523	2845	2479	2408	2440	2535	2684	2890	3042	3148	3191	3187	3148	3038	2903	2688	2340	1921	1519	1204	932.7	634.7	353.7	179.8	99.09	91.18	128.8	348.2	1878	2011	216.5	12.58	8.480	8.285	7.839	9.156	12.02	12.78	14.89	15.86	16.93	18.76	19.52	19.37	19.16	18.79	18.39	17.83	17.29	17.48	17.65	17.24	17.52	17.50	17.51	17.99	17.78	16.88	17.24	15.71	15.31	14.83
445.0	1846	2392	2996	3711	4362	4917	5271	5209	4986	5065	5294	5397	5164	4702	4040	3309	2688	2367	2295	2306	2370	2497	2684	2827	2926	2964	2963	2926	2840	2714	2515	2182	1796	1448	1150	890.5	609.6	349.1	185.2	103.6	71.75	63.75	103.0	535.9	2108	1854	156.0	9.939	8.624	7.746	8.933	11.63	12.99	14.56	15.81	17.26	19.39	19.73	19.82	19.30	18.14	17.38	17.28	16.64	16.39	16.28	16.96	16.54	16.79	16.28	16.41	15.99	16.20	15.90	15.00	14.84	14.15
450.0	1628	2566	2838	3447	4124	4692	5070	4974	4641	4580	4689	4746	4522	4139	3591	2962	2437	2166	2106	2090	2115	2202	2361	2497	2571	2607	2611	2576	2506	2402	2222	1934	1592	1295	1046	808.5	555.5	331.0	187.3	111.5	77.25	57.54	54.43	142.8	595.4	1634	1887	576.5	15.62	8.126	8.742	11.10	12.55	14.39	15.46	16.61	18.63	19.06	19.39	18.65	17.88	16.71	15.82	15.11	14.77	14.74	15.01	15.04	14.96	14.87	14.82	14.63	14.46	14.55	13.83	13.67	13.38
455.0	1366	2555	2942	3181	3856	4443	4844	4703	4302	4074	4130	4155	3958	3624	3158	2636	2188	1964	1899	1872	1864	1929	2045	2166	2239	2274	2278	2258	2197	2115	1960	1706	1406	1145	936.5	744.2	518.7	316.2	187.8	121.3	85.07	62.56	49.59	59.95	154.4	391.4	1065	2260	204.6	16.36	9.139	11.09	12.34	13.36	14.76	15.77	17.59	18.44	18.59	17.18	16.57	15.47	15.04	13.68	13.36	13.42	12.90	13.27	13.38	13.22	13.55	12.83	13.27	13.06	12.44	12.08	12.19
460.0	1204	2245	3176	3064	3611	4235	4590	4465	4011	3732	3732	3781	3575	3280	2885	2402	2017	1816	1755	1721	1697	1738	1844	1952	2028	2056	2061	2047	1997	1935	1792	1572	1299	1055	868.9	698.3	503.1	310.5	190.7	126.1	90.82	69.25	53.08	44.82	59.51	107.4	281.0	1451	1644	166.5	13.27	11.03	11.84	13.08	14.00	15.11	16.96	17.35	17.91	17.04	15.82	14.36	14.35	13.09	12.10	12.50	11.92	12.12	12.43	12.30	12.14	11.93	12.02	12.00	11.92	11.83	11.17
465.0	1065	1905	3239	3144	3375	3993	4355	4191	3734	3457	3445	3449	3257	3018	2633	2222	1875	1684	1616	1579	1547	1578	1676	1776	1836	1882	1882	1874	1839	1774	1651	1444	1208	982.4	804.8	652.5	487.1	305.6	191.6	129.1	95.73	74.68	57.65	46.07	42.08	46.51	82.14	408.9	1611	1382	138.6	12.32	11.30	12.85	13.29	14.84	16.90	16.97	16.90	16.10	15.22	13.80	13.04	12.04	11.40	11.39	10.80	11.23	11.42	11.47	10.85	11.56	11.61	11.26	10.99	10.67	10.43
470.0	985.0	1520	2657	3501	3157	3568	3915	3752	3329	3029	2998	2978	2827	2606	2295	1941	1648	1484	1426	1387	1340	1361	1440	1525	1584	1614	1623	1615	1588	1540	1440	1267	1059	870.0	715.4	574.3	436.6	294.3	191.6	131.3	99.79	79.31	61.54	50.33	41.33	36.99	40.17	110.1	451.8	1159	1335	464.6	17.39	12.34	12.55	13.60	15.14	15.36	15.54	14.43	13.88	12.43	11.37	10.58	10.48	10.13	9.765	9.690	9.878	10.18	9.770	10.16	9.919	9.990	9.783	9.515	9.240
475.0	855.4	1312	1913	3383	3276	3157	3403	3275	2890	2560	2528	2488	2368	2177	1933	1651	1409	1276	1224	1182	1132	1137	1200	1266	1318	1345	1351	1345	1324	1291	1209	1068	897.0	742.9	610.7	493.3	375.3	267.9	191.8	131.5	101.9	81.80	65.77	53.78	44.85	36.96	33.18	45.10	117.1	276.2	669.6	1496	207.7	20.11	11.55	12.00	13.92	13.80	13.40	12.41	12.40	10.95	10.04	9.622	9.375	8.576	8.645	8.576	8.630	8.457	8.362	8.539	8.415	8.563	8.609	8.270	8.115
480.0	790.2	1184	1603	2813	3671	2900	3075	2955	2589	2267	2200	2169	2063	1899	1689	1448	1248	1140	1088	1043	996.3	987.5	1043	1101	1142	1163	1174	1164	1152	1121	1048	925.9	784.2	654.8	544.0	441.8	338.7	243.1	184.5	136.2	102.2	83.41	67.62	56.66	47.13	39.50	33.33	31.62	43.69	75.95	173.6	857.5	1373	193.8	15.49	11.51	12.46	13.09	12.46	11.39	11.10	10.16	9.426	8.791	7.917	7.683	7.710	7.572	7.600	7.626	7.622	7.808	7.254	7.783	7.579	7.291	7.047
485.0	735.5	1120	1421	2136	3758	2957	2811	2678	2340	2028	1953	1926	1822	1686	1495	1288	1120	1023	984.7	941.8	888.4	882.1	920.7	968.4	1001	1023	1032	1029	1016	987.9	926.7	821.3	703.0	583.5	490.2	398.8	308.7	223.3	173.2	138.3	106.2	83.22	70.08	59.09	49.52	41.69	35.18	29.86	28.80	32.73	51.74	237.3	1089	1268	148.7	12.67	11.92	12.07	11.27	10.70	10.01	9.537	8.864	7.969	7.263	7.100	6.847	6.795	6.912	6.650	7.399	6.784	6.682	6.662	6.775	6.583	6.764
490.0	618.0	987.4	1251	1655	2928	3489	2569	2348	2044	1775	1697	1649	1571	1452	1292	1118	977.7	896.0	862.6	820.2	771.0	756.4	790.0	830.4	859.1	875.3	879.7	879.9	870.7	848.4	803.0	712.6	613.0	513.9	431.6	354.2	277.5	204.7	157.5	131.5	110.2	87.32	71.12	60.57	51.86	44.47	37.71	32.30	27.26	23.92	25.68	65.46	295.1	837.8	1133	439.3	19.34	11.20	10.31	9.865	8.980	8.184	7.648	6.902	6.545	6.282	6.119	6.145	6.068	5.860	6.313	5.946	6.107	6.090	5.862	6.181	6.089
495.0	539.8	875.9	1113	1371	1972	3522	2742	2030	1767	1535	1449	1414	1343	1236	1096	954.0	845.1	771.8	746.4	704.0	657.3	647.6	672.3	701.4	729.6	736.0	745.0	744.8	741.5	726.8	682.6	611.9	526.9	445.7	378.4	312.7	248.2	185.9	145.4	120.7	106.2	92.99	73.27	62.22	52.87	46.19	39.45	33.97	28.33	23.36	20.91	27.92	77.60	200.2	568.2	1354	235.6	20.99	9.924	8.881	8.224	7.225	6.809	5.985	5.781	5.819	5.462	5.468	5.419	5.513	5.452	4.943	5.650	5.410	4.882	5.323	5.247
500.0	468.7	759.1	1007	1220	1548	2830	3237	1863	1557	1346	1279	1243	1179	1090	964.1	849.0	747.5	677.8	660.0	621.2	582.5	570.4	588.3	619.1	636.1	643.6	657.4	650.8	646.9	637.9	601.4	540.2	466.5	397.9	340.2	281.0	227.4	173.9	135.7	113.4	99.46	91.03	75.84	62.14	53.73	46.59	40.39	34.94	28.93	24.36	20.70	20.19	29.50	55.73	146.6	738.8	1310	214.3	15.08	8.097	7.477	6.718	6.346	5.594	5.083	5.312	5.029	4.902	5.028	4.825	4.796	4.721	5.009	4.993	4.376	4.577	4.416
505.0	403.0	648.5	921.1	1094	1322	2025	3498	1954	1376	1207	1128	1106	1048	964.6	853.9	753.8	660.6	602.5	584.0	547.5	513.5	503.0	519.9	541.3	560.9	566.2	570.5	570.9	567.1	555.6	529.5	477.3	415.4	353.0	302.3	255.6	207.2	161.5	126.6	107.3	92.30	85.55	76.91	62.55	52.21	46.38	40.85	34.85	29.73	25.32	21.42	19.18	19.10	23.95	42.88	198.9	921.8	1174	168.2	9.549	7.005	6.305	5.562	5.121	4.874	4.642	4.413	4.361	4.250	4.371	4.415	4.410	4.382	4.198	3.835	4.229	4.098
510.0	357.3	546.2	783.8	958.1	1113	1388	2670	2688	1252	1025	963.3	935.4	883.1	804.5	713.9	633.8	556.3	509.2	489.9	463.3	430.1	422.4	432.6	452.6	464.4	473.1	474.3	477.3	471.2	463.9	443.8	400.6	349.2	299.8	258.1	219.9	180.3	143.4	116.1	97.30	83.77	75.96	71.41	64.02	52.03	45.12	40.12	34.49	29.81	25.65	22.12	19.55	17.58	17.07	20.18	54.23	242.9	698.2	932.5	365.6	16.40	5.797	5.139	4.483	4.142	4.049	3.803	3.719	3.911	3.847	3.840	3.638	3.843	3.811	3.524	3.648	3.693
515.0	298.2	450.3	619.6	840.7	918.9	1073	1556	3029	1605	849.7	802.8	773.0	726.0	658.7	589.9	518.2	460.7	424.3	401.5	379.6	356.9	345.1	357.3	370.0	378.7	386.1	384.1	386.8	384.3	378.7	362.9	328.1	284.4	248.0	215.5	183.4	153.9	125.0	103.8	87.69	76.49	69.08	62.71	60.09	54.15	44.29	38.36	33.47	29.68	25.79	22.37	20.02	17.90	16.29	15.48	22.10	63.45	165.3	386.8	988.2	238.9	18.76	4.912	4.237	3.620	3.543	3.345	3.317	3.232	3.160	3.340	2.959	3.071	2.834	2.917	3.050	3.295
520.0	278.9	408.3	518.6	729.8	823.5	908.4	1103	2331	2342	804.5	690.4	667.6	625.2	568.8	511.9	447.7	398.7	371.9	349.4	327.2	307.4	299.6	301.2	317.3	324.4	330.3	327.5	327.6	328.0	325.6	309.3	280.0	244.9	214.8	188.4	162.5	135.8	111.2	93.83	81.95	71.24	63.25	57.01	54.42	51.99	45.15	37.73	32.20	28.66	24.83	21.79	20.33	17.79	15.63	14.28	15.11	23.59	45.27	97.56	476.7	932.4	215.6	12.62	4.108	3.556	3.155	3.041	3.024	3.024	2.896	3.044	2.884	2.898	2.691	2.604	2.847	2.721
525.0	238.9	366.0	470.3	632.9	757.3	788.9	877.1	1416	2959	1022	613.0	583.7	539.4	494.6	444.9	389.3	350.6	323.0	303.6	288.2	269.2	259.7	264.2	273.5	280.7	284.8	281.6	284.0	282.1	279.2	264.6	245.6	215.7	187.5	165.1	143.2	121.6	100.8	86.33	75.25	65.69	58.73	53.33	48.73	48.54	44.73	37.23	30.83	27.39	24.00	21.50	19.21	17.80	15.41	13.89	12.87	14.30	18.27	29.23	122.6	551.8	856.2	173.8	6.396	3.195	2.904	2.725	2.687	2.751	2.478	2.414	2.572	2.486	2.397	2.444	2.425	2.428
530.0	192.2	303.2	394.6	506.5	642.3	684.1	711.7	842.6	2138	2127	605.4	484.9	453.2	412.2	371.1	326.3	292.5	270.8	253.2	241.1	225.6	217.2	218.7	225.9	232.2	234.3	234.3	233.1	233.1	230.5	219.6	203.6	179.8	158.7	139.0	121.4	103.8	87.48	74.85	65.33	58.21	52.86	48.07	43.91	41.24	40.80	37.31	30.59	26.30	22.68	20.66	18.38	16.73	15.14	13.86	12.72	12.12	12.11	13.61	33.28	139.1	430.7	643.1	291.5	14.70	3.028	2.568	2.544	2.221	2.336	2.218	2.345	2.189	2.216	2.119	2.142	2.135
535.0	185.3	241.8	353.2	401.7	497.8	583.9	581.5	593.2	942.7	2687	1123	411.4	378.1	337.5	304.6	267.6	240.3	224.9	207.5	199.1	184.1	176.8	180.6	185.2	188.3	190.9	190.2	190.4	188.8	187.8	177.6	166.7	147.3	131.7	114.5	100.8	87.96	75.53	64.29	57.94	51.64	45.94	42.78	38.58	36.54	34.58	34.60	29.66	25.28	21.30	18.81	17.24	15.73	14.42	13.65	12.16	11.07	10.25	9.510	13.05	36.18	100.8	220.3	628.7	245.2	18.88	2.512	2.414	2.010	2.024	2.021	1.959	2.058	1.861	1.684	1.816	1.908
540.0	148.0	218.2	287.3	338.9	410.6	517.8	511.1	478.6	532.4	1848	1889	403.8	328.4	291.0	262.8	225.5	207.4	192.3	179.1	171.4	157.3	149.9	152.4	158.2	159.7	161.5	160.9	161.3	161.2	157.8	151.5	143.0	126.4	112.9	98.21	87.68	77.76	66.21	56.80	51.04	46.82	41.16	38.16	35.26	32.13	30.74	30.15	28.91	24.38	20.42	17.75	15.93	15.09	13.56	12.81	11.70	10.55	9.633	8.405	8.279	13.22	26.56	53.87	257.1	630.9	219.4	12.47	2.322	1.895	1.838	1.722	1.624	1.927	1.548	1.568	1.722	1.669
545.0	137.0	194.1	243.7	298.7	349.7	437.6	464.5	409.3	397.8	875.9	2739	645.2	288.2	254.4	225.4	196.1	178.1	163.9	152.8	146.0	134.2	130.5	130.5	136.1	136.3	137.4	137.8	136.2	138.7	135.4	130.3	121.7	108.7	96.53	86.15	77.46	67.64	58.60	51.19	45.51	41.50	37.49	34.60	31.89	29.55	27.19	26.21	26.64	24.16	19.36	16.78	14.11	13.62	12.67	11.49	11.15	10.01	8.860	7.811	7.180	7.677	9.941	15.48	62.73	309.2	593.2	173.2	5.878	1.932	1.794	1.554	1.388	1.511	1.393	1.509	1.527	1.565
550.0	122.0	164.6	202.6	243.0	273.8	339.6	401.3	345.4	310.5	405.1	1728	1811	297.1	205.3	182.7	159.4	145.8	132.7	124.0	117.8	109.0	105.2	105.4	107.8	109.8	109.9	110.2	109.1	110.0	108.2	104.5	98.16	88.24	77.51	70.23	62.58	55.43	49.08	42.38	38.34	35.25	31.77	29.26	27.23	25.19	23.11	21.69	21.09	20.46	18.25	15.27	12.84	12.32	11.19	10.14	9.774	9.033	8.172	7.332	6.494	5.705	5.820	6.571	16.77	74.91	250.3	417.6	213.5	15.01	1.859	1.489	1.388	1.348	1.296	1.249	1.227	1.303
555.0	101.4	140.6	170.1	193.5	216.0	249.3	322.3	296.6	248.6	250.4	602.8	2347	782.0	166.7	145.5	124.8	114.3	104.6	98.76	91.22	86.66	82.00	83.05	83.85	86.04	85.39	83.92	85.25	84.34	83.81	81.84	76.76	68.18	61.72	56.55	49.69	44.29	39.03	34.83	31.32	28.44	26.39	23.96	22.75	21.18	20.07	17.83	16.84	16.31	16.41	14.04	11.92	10.27	9.646	8.903	8.272	7.792	7.393	6.965	5.633	5.002	4.652	4.444	6.029	19.08	57.88	124.0	362.1	242.0	19.70	1.595	1.337	1.227	1.200	1.124	1.023	1.148
560.0	87.95	121.5	142.3	166.3	180.5	198.8	248.5	266.2	207.8	200.2	268.0	1488	1424	164.5	120.1	102.5	94.69	86.72	80.52	74.70	71.04	68.03	67.84	69.63	68.86	69.35	69.45	69.22	69.20	68.88	66.96	62.40	55.90	50.42	46.41	40.75	37.07	33.03	28.88	26.70	23.46	22.39	21.10	18.93	18.17	16.71	15.34	14.61	13.95	13.43	12.94	11.54	9.186	8.525	8.135	7.425	6.680	6.520	6.208	5.420	4.515	3.981	3.795	3.811	6.593	14.99	29.72	129.6	372.3	202.9	12.41	1.320	1.193	1.076	1.030	0.959	1.039
565.0	86.79	116.0	130.6	142.3	147.9	162.2	193.5	243.0	186.9	165.2	174.3	608.0	2259	381.2	101.0	87.01	78.16	72.01	68.32	63.02	59.68	55.52	55.13	57.12	56.56	57.94	57.30	58.11	56.82	56.86	54.76	51.85	46.58	42.06	38.60	34.95	30.94	27.47	25.25	22.46	20.69	18.97	18.09	16.38	15.39	14.67	13.59	12.50	11.76	10.96	11.09	10.79	8.466	7.611	6.940	6.914	5.901	5.762	5.480	5.067	4.174	3.688	3.427	2.957	3.438	5.347	8.538	31.21	151.0	354.1	144.6	5.636	1.131	0.955	0.947	0.842	0.879
570.0	81.70	106.1	123.4	119.3	121.0	134.9	147.0	184.0	183.7	139.6	137.4	238.7	1381	1381	113.3	69.59	61.91	57.51	54.24	50.75	46.22	44.35	44.35	45.29	45.03	45.74	44.52	45.60	44.92	44.79	43.01	40.03	36.56	33.39	30.43	27.60	25.23	21.87	20.02	18.32	17.14	15.95	14.86	13.88	12.62	12.05	11.51	10.37	9.514	8.958	8.610	8.856	7.863	6.901	6.044	5.689	5.212	4.996	4.502	4.214	4.039	3.503	3.026	2.704	2.541	2.838	3.569	8.487	36.20	129.9	239.7	136.9	14.29	1.107	0.838	0.795	0.780
575.0	75.94	92.27	102.3	100.4	98.58	105.3	117.3	131.9	173.8	130.8	114.2	132.7	431.9	1811	538.1	57.33	49.59	44.53	42.35	39.78	36.88	35.33	34.74	35.56	34.64	34.89	34.43	34.69	34.67	34.19	32.86	31.69	28.70	26.00	23.24	21.39	19.78	17.68	16.67	14.73	13.66	12.64	11.87	10.69	10.68	9.781	9.081	8.261	7.793	7.270	6.571	6.803	6.912	6.134	4.893	4.910	4.417	4.276	3.882	3.538	3.388	3.279	2.840	2.217	2.222	2.225	2.354	3.437	9.628	30.28	65.25	188.6	193.1	18.42	0.898	0.773	0.672
580.0	78.08	98.03	95.12	92.94	87.72	88.11	96.49	105.4	154.7	139.6	107.0	104.5	166.7	1136	1315	68.75	41.67	39.03	34.74	33.94	30.46	29.17	28.72	29.45	28.94	28.93	28.14	29.18	28.63	28.36	27.13	25.18	23.13	21.56	19.02	17.42	16.34	14.47	13.62	12.27	11.73	10.80	10.42	9.243	9.169	8.315	7.862	7.125	6.642	6.103	5.650	5.790	6.063	5.857	4.570	4.175	3.900	3.896	3.442	3.325	2.961	3.050	2.839	2.320	2.113	2.082	2.028	2.126	3.439	7.892	15.85	62.99	217.8	141.9	9.761	0.717	0.707
585.0	73.32	90.75	92.05	84.07	78.39	81.54	83.67	87.18	122.1	146.9	104.1	96.14	100.4	442.4	1743	116.1	36.98	32.36	29.24	28.19	25.60	24.88	25.17	24.33	24.02	24.25	24.41	24.10	23.72	23.63	22.40	21.10	19.50	18.22	16.50	15.12	13.98	12.79	11.66	10.69	10.18	9.608	8.894	8.235	7.753	7.308	6.581	6.246	5.944	5.368	5.038	4.744	4.908	5.168	4.814	3.979	3.453	3.416	3.138	2.873	2.585	2.669	2.762	2.260	1.972	1.957	1.875	1.733	2.061	2.959	4.570	15.26	82.81	212.1	95.08	3.778	0.651
590.0	74.73	82.16	85.21	74.49	67.86	68.52	72.74	77.54	92.71	136.5	111.0	91.38	83.35	152.6	1038	916.3	52.28	26.73	23.99	22.96	20.95	20.09	20.08	19.49	19.51	19.15	19.39	19.63	18.88	19.14	18.23	17.48	15.90	14.51	13.16	12.37	11.09	10.14	9.696	8.650	8.322	7.783	7.164	6.742	6.296	5.832	5.529	5.241	4.946	4.341	4.135	3.918	3.807	3.999	4.117	3.744	3.264	2.881	2.674	2.505	2.410	2.297	2.066	2.191	1.959	1.866	1.595	1.622	1.616	1.773	2.027	4.233	19.57	74.06	142.1	89.51	12.49
595.0	59.73	84.56	77.25	69.00	60.91	61.93	64.01	69.22	75.75	105.2	125.2	90.37	77.68	79.68	301.3	1280	291.6	22.16	19.12	18.47	16.46	15.98	15.86	15.34	15.42	15.72	14.80	15.20	14.79	15.42	14.48	13.67	12.54	11.02	10.37	9.961	8.789	8.156	7.909	6.944	6.358	6.160	5.566	5.467	4.985	4.961	4.280	4.458	4.100	3.597	3.311	3.276	2.966	3.021	3.336	3.232	3.030	2.451	2.313	1.995	2.101	1.856	1.943	1.825	1.935	1.788	1.529	1.375	1.298	1.286	1.397	1.765	5.027	17.08	37.65	110.2	117.2
600.0	61.19	73.85	74.60	64.34	54.53	57.99	58.14	66.44	69.25	86.57	127.3	96.52	75.48	62.97	100.3	836.6	737.7	28.50	16.89	15.88	14.28	13.33	13.69	13.39	12.89	13.67	12.19	12.90	12.15	12.15	12.42	11.38	10.38	9.993	8.895	8.168	7.417	7.029	6.457	5.751	5.403	5.141	4.878	4.538	4.291	4.250	3.633	3.648	3.545	3.088	3.018	2.841	2.508	2.467	2.699	2.839	2.705	2.350	2.064	1.811	1.846	1.648	1.522	1.429	1.706	1.672	1.563	1.364	1.181	1.197	1.035	1.039	1.693	4.389	9.044	35.60	129.1
605.0	56.10	69.54	64.17	60.39	52.36	55.05	56.86	59.49	67.62	80.24	122.6	108.7	78.36	62.35	55.68	326.2	1139	78.55	14.88	13.65	12.96	11.32	11.55	11.24	11.17	11.48	10.29	10.91	10.49	10.45	10.39	9.691	8.811	7.943	7.938	6.867	6.277	5.727	5.311	4.890	4.680	4.521	4.366	4.040	3.919	3.803	3.245	3.075	3.142	2.645	2.473	2.421	2.055	2.036	2.145	2.366	2.412	2.211	1.907	1.718	1.470	1.402	1.440	1.443	1.458	1.525	1.645	1.374	1.041	1.089	1.030	0.958	1.086	1.453	2.615	8.611	48.25
610.0	57.94	71.18	65.88	57.90	52.45	49.32	57.34	63.67	71.73	84.32	113.7	132.7	90.30	69.03	52.86	105.8	757.3	602.6	24.88	10.77	10.15	9.431	9.517	9.221	9.390	9.025	8.780	8.744	8.340	8.463	8.378	7.675	7.107	6.449	6.198	5.486	5.220	4.704	4.283	3.970	3.809	3.608	3.384	3.294	3.138	2.893	2.769	2.660	2.661	2.261	2.124	2.096	1.726	1.816	1.738	1.894	2.060	1.932	1.824	1.578	1.348	1.334	1.255	1.297	1.327	1.289	1.475	1.344	1.179	1.110	1.014	0.876	0.865	0.958	1.207	2.409	11.40
615.0	55.76	68.93	64.54	59.30	48.11	44.67	53.58	59.16	68.04	85.08	99.64	130.9	105.7	72.34	53.63	50.91	231.3	925.4	80.35	9.235	8.008	7.927	7.836	7.628	7.144	7.145	6.731	6.871	6.596	7.094	6.485	6.391	5.608	5.106	4.943	4.553	3.990	3.749	3.514	3.191	3.046	3.131	2.755	2.543	2.566	2.321	2.147	2.057	1.914	1.813	1.697	1.776	1.442	1.577	1.536	1.432	1.641	1.560	1.535	1.280	1.147	1.144	1.173	1.099	1.030	1.087	1.124	1.167	1.422	0.999	1.025	0.853	0.725	0.870	0.828	0.965	2.999
620.0	59.61	67.04	63.54	51.06	45.19	43.51	52.29	56.31	64.41	81.14	92.60	118.5	114.9	72.65	52.87	38.11	77.37	655.2	500.8	13.29	7.084	6.807	6.679	6.552	6.113	5.770	5.635	5.462	5.812	5.501	5.341	5.089	4.741	4.318	3.957	3.642	3.211	3.201	2.989	2.706	2.535	2.511	2.270	2.142	2.041	2.010	1.886	1.837	1.732	1.672	1.590	1.435	1.401	1.375	1.354	1.156	1.294	1.341	1.422	1.222	1.145	1.053	1.027	1.047	0.941	1.066	1.134	1.041	1.311	0.988	0.967	0.757	0.782	0.818	0.662	0.702	1.054
625.0	50.31	66.42	60.90	46.35	40.20	41.61	49.36	52.09	62.41	76.75	88.27	104.4	114.5	74.49	52.53	36.43	38.64	270.5	838.5	49.26	6.332	6.015	5.926	5.440	5.328	5.277	4.872	5.058	4.946	4.674	4.826	4.412	3.773	3.810	3.204	3.103	2.928	2.765	2.565	2.366	2.188	1.976	1.862	1.767	1.788	1.616	1.841	1.645	1.547	1.358	1.305	1.269	1.211	1.144	1.212	1.080	1.097	1.161	1.418	1.181	1.175	1.061	0.976	0.869	0.952	0.956	1.021	1.038	1.084	1.140	0.939	0.711	0.713	0.778	0.615	0.632	0.647
630.0	48.52	66.91	59.33	47.90	40.63	40.96	48.70	53.62	60.66	72.97	86.63	94.66	105.6	82.84	51.89	35.63	31.35	80.09	606.7	393.9	11.30	5.180	5.018	4.789	4.284	4.375	4.097	3.999	4.179	4.128	3.908	3.656	3.143	3.111	2.584	2.552	2.354	2.137	2.069	1.944	1.885	1.691	1.555	1.596	1.521	1.474	1.450	1.426	1.196	1.151	1.147	1.000	1.045	0.977	1.044	0.922	1.073	0.984	1.137	1.127	1.132	1.033	0.958	0.823	0.848	0.873	0.896	0.992	0.922	1.069	0.994	0.912	0.752	0.739	0.624	0.643	0.576
635.0	53.81	61.91	61.90	52.04	40.40	40.02	45.88	52.35	58.09	70.31	81.22	88.21	94.59	94.23	56.61	36.84	30.23	31.72	184.2	706.4	61.03	4.811	4.142	3.884	3.688	3.404	3.395	3.333	3.288	3.257	3.276	2.951	2.688	2.315	2.331	2.112	2.082	1.827	1.651	1.386	1.498	1.299	1.277	1.362	1.219	1.271	1.202	1.173	0.978	0.986	0.952	0.915	0.902	0.834	0.866	0.788	0.878	0.943	0.856	0.874	1.057	1.000	0.794	0.892	0.909	0.752	0.845	0.855	0.881	0.935	0.912	0.965	0.702	0.676	0.699	0.555	0.583
640.0	59.86	72.02	67.82	49.09	40.03	41.32	47.23	48.10	58.60	71.97	80.71	91.61	89.95	96.35	64.63	40.18	31.94	22.74	52.85	551.5	334.2	6.243	3.879	3.471	2.983	3.083	3.212	3.037	2.668	2.826	2.919	2.530	2.461	2.101	1.967	1.845	1.703	1.436	1.328	1.246	1.265	1.109	1.030	1.088	1.051	1.083	1.093	1.018	1.003	0.869	0.840	0.849	0.720	0.799	0.704	0.745	0.704	0.819	0.702	0.759	0.801	0.993	0.866	0.862	0.914	0.733	0.753	0.837	0.851	0.826	0.852	0.899	0.923	0.697	0.630	0.607	0.526
645.0	59.07	72.10	76.03	51.78	41.58	40.84	45.21	49.10	58.00	72.23	81.84	93.11	89.71	92.05	71.70	44.44	33.65	21.53	21.44	249.4	585.0	28.88	3.424	3.451	2.716	2.757	2.610	2.730	2.543	2.459	2.599	2.220	2.032	1.836	1.690	1.591	1.511	1.275	1.103	1.182	1.006	0.964	0.950	0.941	0.898	1.005	0.923	0.983	0.925	0.813	0.716	0.757	0.760	0.773	0.641	0.767	0.728	0.797	0.794	0.679	0.849	0.890	0.788	0.848	0.806	0.755	0.730	0.762	0.792	0.906	0.875	0.826	0.861	0.790	0.653	0.624	0.654
650.0	68.45	86.89	82.05	61.33	44.61	38.61	45.54	50.99	55.09	67.96	81.12	90.62	89.67	82.53	77.11	46.64	32.97	22.36	14.26	77.20	610.8	153.8	3.770	3.074	2.667	2.432	2.075	2.498	2.173	2.138	2.142	2.144	1.934	1.628	1.463	1.308	1.278	1.191	1.065	0.965	0.931	0.838	0.935	1.058	0.832	0.856	0.931	0.893	0.897	0.740	0.728	0.702	0.644	0.627	0.577	0.746	0.627	0.694	0.713	0.648	0.697	0.840	0.799	0.783	0.822	0.717	0.707	0.765	0.794	0.858	0.771	0.748	0.877	0.806	0.666	0.646	0.606
