Sample:	'1
File name:	G2025062506袁家屋子东南闸.FD3
Run date:	'09:58:55, 06/26/2025
Operator:	Administrator
Comment:	'

Instrument
Model:	F-2700 FL Spectrophotometer
Serial number:	23B8-004
ROM Version:	4J14000 07

Instrument parameters
Measurement type:	3-D scan
Data mode:	Fluorescence
EX  Start WL:	220.0 nm
EX  End WL:	600.0 nm
EX Sampling interval:	5.0 nm
EM  Start WL:	230.0 nm
EM  End WL:	650.0 nm
EM Sampling interval:	5.0 nm
Scan speed:	12000 nm/min
EX Slit:	5.0 nm
EM Slit:	5.0 nm
PMT Voltage:	700 V
Response:	Auto 
Corrected spectra:	Off
Contour interval:	50.000

Peak integration
Integration method:	Rectangular
Sensitivity:	1
Threshold:	1.000

Peaks
No.	ApexEX/EM(nm)	Height(Data)
1	225.0/340.0	1296
2	225.0/590.0	67.98
3	225.0/640.0	48.24
4	230.0/500.0	406.2
5	240.0/265.0	370.5
6	240.0/525.0	270.3
7	245.0/270.0	352.5
8	245.0/535.0	217.7
9	250.0/275.0	450.7
10	250.0/550.0	175.5
11	255.0/285.0	501.7
12	255.0/565.0	138.8
13	260.0/290.0	537.7
14	260.0/575.0	115.2
15	265.0/295.0	717.9
16	265.0/585.0	100.9
17	270.0/300.0	945.9
18	270.0/385.0	854.8
19	270.0/600.0	95.94
20	275.0/305.0	1020
21	275.0/370.0	859.5
22	275.0/615.0	79.65
23	280.0/315.0	949.6
24	280.0/345.0	919.2
25	280.0/625.0	68.72
26	285.0/320.0	977.6
27	285.0/640.0	51.60
28	290.0/325.0	875.3
29	305.0/345.0	604.4
30	320.0/365.0	483.6
31	460.0/340.0	3.659
32	485.0/265.0	2.023
33	505.0/275.0	2.821
34	510.0/280.0	3.121
35	515.0/285.0	3.162
36	530.0/290.0	3.177
37	535.0/295.0	4.155
38	545.0/300.0	5.599
39	550.0/305.0	5.815
40	560.0/310.0	5.307
41	570.0/315.0	5.764
42	575.0/290.0	48.02
43	580.0/320.0	5.428
44	585.0/325.0	5.435

Data points
	220.0	225.0	230.0	235.0	240.0	245.0	250.0	255.0	260.0	265.0	270.0	275.0	280.0	285.0	290.0	295.0	300.0	305.0	310.0	315.0	320.0	325.0	330.0	335.0	340.0	345.0	350.0	355.0	360.0	365.0	370.0	375.0	380.0	385.0	390.0	395.0	400.0	405.0	410.0	415.0	420.0	425.0	430.0	435.0	440.0	445.0	450.0	455.0	460.0	465.0	470.0	475.0	480.0	485.0	490.0	495.0	500.0	505.0	510.0	515.0	520.0	525.0	530.0	535.0	540.0	545.0	550.0	555.0	560.0	565.0	570.0	575.0	580.0	585.0	590.0	595.0	600.0
230.0	97.87	1585	2642	609.0	21.34	6.189	5.261	4.498	3.924	3.518	3.412	2.905	2.498	2.260	1.973	1.671	1.362	1.290	1.189	1.058	0.957	0.900	0.927	0.863	0.732	0.649	0.588	0.642	0.561	0.590	0.513	0.500	0.484	0.455	0.429	0.438	0.388	0.416	0.383	0.418	0.466	0.613	0.516	0.393	0.351	0.393	1.987	6.509	9.151	5.655	1.816	0.420	0.279	0.267	0.233	0.236	0.233	0.249	0.253	0.246	0.236	0.220	0.225	0.239	0.235	0.193	0.244	0.218	0.241	0.230	0.241	0.245	0.274	0.233	0.240	0.232	0.237
235.0	132.4	462.0	2030	2665	524.7	29.94	6.854	4.992	4.456	3.632	3.498	3.071	2.974	2.395	1.934	2.144	1.510	1.393	1.351	1.163	1.066	1.003	0.932	0.800	0.905	0.662	0.707	0.616	0.657	0.608	0.625	0.521	0.437	0.479	0.433	0.462	0.392	0.374	0.409	0.400	0.388	0.482	0.557	0.672	0.501	0.382	0.638	1.851	4.227	6.918	9.729	8.728	3.600	0.643	0.284	0.227	0.224	0.249	0.246	0.222	0.250	0.163	0.278	0.315	0.200	0.200	0.243	0.204	0.240	0.245	0.223	0.252	0.213	0.207	0.336	0.218	0.264
240.0	184.7	184.3	694.0	2753	2769	392.9	16.40	5.768	5.884	4.080	3.848	3.540	2.931	2.587	1.896	1.920	1.563	1.326	1.217	1.040	1.043	0.994	0.852	0.884	0.885	0.749	0.753	0.620	0.620	0.609	0.577	0.587	0.519	0.431	0.336	0.498	0.460	0.443	0.360	0.420	0.367	0.472	0.449	0.612	0.668	0.650	0.583	0.641	1.242	2.394	6.274	12.70	13.98	8.791	2.742	0.409	0.261	0.288	0.285	0.227	0.232	0.271	0.264	0.235	0.190	0.259	0.268	0.242	0.226	0.254	0.198	0.204	0.276	0.248	0.247	0.250	0.259
245.0	169.0	221.4	216.2	1106	3624	2623	263.0	9.327	6.189	4.623	4.306	3.914	3.565	2.416	2.175	1.818	1.688	1.278	1.235	1.301	1.143	0.996	0.852	0.927	0.815	0.752	0.681	0.540	0.636	0.540	0.572	0.493	0.493	0.426	0.364	0.470	0.386	0.433	0.430	0.363	0.377	0.345	0.415	0.357	0.485	0.772	0.888	0.715	0.574	0.730	1.684	5.086	11.79	17.57	15.68	7.182	1.554	0.351	0.266	0.289	0.244	0.269	0.254	0.260	0.218	0.253	0.297	0.233	0.246	0.255	0.250	0.216	0.308	0.211	0.259	0.248	0.275
250.0	71.12	185.3	247.4	320.1	1324	3348	3481	965.0	44.82	6.472	5.552	4.917	3.655	3.003	2.342	2.019	1.786	1.568	1.508	1.312	1.113	1.060	0.915	0.912	0.831	0.766	0.797	0.737	0.658	0.723	0.579	0.537	0.479	0.418	0.452	0.439	0.365	0.373	0.429	0.348	0.359	0.406	0.424	0.386	0.362	0.461	0.628	0.876	0.890	0.773	0.765	1.454	3.154	6.372	11.27	16.42	19.68	15.78	7.585	1.612	0.351	0.297	0.267	0.311	0.277	0.267	0.251	0.242	0.273	0.253	0.227	0.250	0.281	0.232	0.252	0.264	0.291
255.0	39.23	68.88	219.0	304.6	360.4	936.4	3671	5419	302.5	37.31	8.957	6.483	4.292	3.956	2.816	2.388	2.135	1.345	1.474	1.321	1.205	1.074	1.124	1.002	0.986	0.784	0.831	0.767	0.677	0.830	0.620	0.520	0.491	0.458	0.432	0.402	0.377	0.355	0.358	0.333	0.367	0.370	0.374	0.393	0.297	0.302	0.387	0.453	0.646	1.123	1.120	1.332	1.133	1.718	2.769	4.186	8.931	20.84	30.92	24.33	10.38	1.514	0.296	0.320	0.313	0.291	0.251	0.245	0.252	0.220	0.246	0.269	0.269	0.231	0.244	0.289	0.290
260.0	31.75	36.32	92.64	305.1	275.1	253.8	1263	5681	5360	251.9	20.00	7.747	6.017	4.897	3.579	2.696	2.408	1.782	1.576	1.213	1.106	1.073	1.159	1.031	0.890	0.790	0.787	0.777	0.663	0.648	0.691	0.591	0.565	0.542	0.496	0.416	0.434	0.453	0.365	0.354	0.334	0.340	0.383	0.433	0.407	0.328	0.366	0.342	0.407	0.513	1.042	1.705	1.429	0.984	0.915	1.279	2.333	6.142	16.31	33.06	32.58	21.92	6.816	0.743	0.370	0.290	0.302	0.314	0.248	0.220	0.231	0.265	0.252	0.290	0.215	0.258	0.284
265.0	31.71	28.16	39.93	174.4	370.5	195.0	320.9	2247	7545	5025	186.9	12.86	7.991	5.426	3.744	3.157	2.573	1.760	1.796	1.555	1.359	1.106	1.083	1.059	0.901	0.993	1.020	0.859	0.711	0.617	0.741	0.631	0.541	0.615	0.548	0.522	0.449	0.447	0.416	0.408	0.372	0.338	0.323	0.356	0.343	0.357	0.350	0.365	0.283	0.327	0.497	1.066	1.547	2.023	1.128	0.674	0.855	1.670	4.130	10.95	25.88	45.32	31.44	17.98	3.487	0.451	0.341	0.327	0.341	0.280	0.285	0.291	0.325	0.337	0.244	0.332	0.274
270.0	43.42	40.85	36.03	61.83	209.4	352.5	237.9	556.6	2726	7054	5917	761.6	39.09	8.226	5.074	4.121	3.134	2.430	2.019	1.839	1.485	1.321	1.170	1.028	1.031	0.935	1.002	0.848	0.832	0.715	0.725	0.723	0.610	0.605	0.561	0.538	0.501	0.447	0.440	0.450	0.410	0.411	0.397	0.435	0.403	0.370	0.378	0.372	0.304	0.281	0.356	0.491	0.676	1.216	1.772	1.792	1.619	1.085	1.239	2.778	6.454	14.45	24.37	39.94	39.30	35.57	12.64	3.301	0.497	0.339	0.384	0.364	0.396	0.310	0.294	0.307	0.292
275.0	101.0	94.71	72.55	48.98	76.16	205.2	450.7	288.5	652.1	1871	6948	9999.9	1010	32.39	7.990	5.571	3.929	2.988	2.554	2.042	1.386	1.544	1.291	1.133	1.173	1.146	0.929	0.859	0.789	0.630	0.753	0.768	0.741	0.819	0.731	0.672	0.619	0.536	0.498	0.486	0.482	0.561	0.500	0.567	0.550	0.550	0.457	0.614	0.419	0.408	0.349	0.475	0.413	0.571	0.790	1.223	2.471	2.821	1.721	1.081	1.837	3.595	5.905	9.799	14.94	37.74	64.91	32.31	19.03	2.793	0.512	0.387	0.462	0.341	0.360	0.323	0.331
280.0	176.6	166.5	124.7	72.31	51.29	90.06	363.0	404.5	253.8	480.2	2184	9999.9	8706	147.0	16.33	7.405	4.972	4.090	2.976	2.207	2.096	1.559	1.808	1.359	1.148	1.194	1.060	0.957	0.835	0.830	0.799	0.777	0.798	0.838	0.807	0.785	0.610	0.683	0.603	0.563	0.532	0.604	0.625	0.798	0.603	0.677	0.730	0.766	0.560	0.583	0.415	0.541	0.407	0.465	0.578	0.662	1.238	2.437	3.121	2.253	1.345	1.318	1.702	2.680	3.828	9.955	27.10	52.22	75.12	30.05	13.53	1.378	0.440	0.359	0.346	0.336	0.360
285.0	258.1	250.2	198.9	106.6	57.68	62.25	167.8	501.7	330.1	209.4	586.5	3505	9999.9	6505	109.4	11.35	6.490	4.560	3.302	2.672	2.407	1.854	1.890	1.449	1.257	1.290	1.137	1.022	0.870	0.918	0.770	0.846	0.879	0.826	0.867	0.888	0.740	0.813	0.807	0.701	0.660	0.718	0.746	0.768	0.795	0.893	0.895	0.966	0.765	0.625	0.509	0.608	0.498	0.477	0.485	0.574	0.685	1.020	1.950	3.162	3.000	1.728	1.044	1.074	1.433	2.821	6.760	15.18	38.69	65.81	74.70	25.88	7.526	0.706	0.384	0.382	0.410
290.0	372.8	377.3	292.2	161.0	89.60	73.51	105.4	255.9	537.7	450.8	302.7	946.8	3470	8834	7753	440.2	26.83	6.749	4.742	3.622	2.779	2.248	2.095	1.577	1.508	1.330	1.266	1.205	0.982	0.948	0.811	0.842	0.901	0.941	1.034	1.050	1.007	1.060	0.816	0.870	0.756	0.831	0.879	0.815	1.028	1.121	1.114	1.115	1.034	0.866	0.744	0.771	0.582	0.517	0.548	0.592	0.631	0.673	1.002	1.477	2.400	3.140	3.177	2.194	1.415	1.472	2.397	4.262	9.695	18.65	34.67	48.02	43.05	48.86	17.35	7.042	0.871
295.0	481.1	513.5	378.3	221.7	129.0	107.7	116.4	179.4	315.6	717.9	612.3	483.1	980.3	2259	6744	9920	626.2	23.78	7.542	4.731	3.369	2.957	2.264	2.094	1.597	1.594	1.375	1.341	1.077	0.946	0.909	0.903	1.083	1.054	1.147	1.236	1.275	1.244	1.054	1.054	0.940	0.883	0.960	1.075	1.144	1.471	1.472	1.414	1.326	1.069	0.889	0.992	0.666	0.659	0.768	0.784	0.868	0.759	0.919	1.130	1.217	1.729	2.485	4.155	4.144	2.889	2.066	2.366	3.492	5.442	8.887	11.77	12.82	33.08	65.98	77.30	28.09
300.0	537.7	570.4	447.1	271.6	167.7	148.4	160.8	202.2	281.9	543.0	945.9	606.6	511.4	706.3	1958	8815	5789	463.7	13.49	6.581	4.441	3.645	2.551	2.154	1.818	1.723	1.503	1.303	1.196	0.990	1.135	0.999	0.993	1.111	1.194	1.325	1.432	1.328	1.247	1.115	1.030	1.027	1.101	1.130	1.393	1.498	1.570	1.557	1.398	1.255	0.996	1.028	0.882	0.792	0.835	0.899	0.967	1.022	1.169	1.272	1.380	1.494	1.873	2.999	4.329	5.599	4.075	2.536	2.459	2.870	3.402	3.994	3.873	8.689	21.31	50.04	78.48
305.0	601.9	621.9	502.6	315.2	208.8	185.8	213.4	264.1	331.6	473.1	875.3	1020	551.6	428.8	609.8	2795	9230	4796	73.35	9.657	5.644	3.964	3.255	2.531	2.080	2.052	1.431	1.504	1.189	1.252	1.016	0.998	1.053	1.328	1.263	1.398	1.439	1.472	1.232	1.288	1.227	1.078	1.131	1.323	1.381	1.632	1.436	1.806	1.534	1.352	1.231	1.204	1.074	0.910	1.068	1.018	1.131	1.225	1.396	1.580	1.630	1.702	1.881	2.498	3.018	4.478	5.815	5.015	3.515	2.842	2.590	2.621	2.193	3.122	5.722	13.00	29.76
310.0	638.9	650.3	541.0	357.9	249.1	227.8	254.7	320.5	394.7	509.6	693.4	990.5	933.3	525.6	367.9	759.8	2842	6562	6166	1314	22.08	5.815	4.148	3.323	2.628	2.079	1.775	1.570	1.406	1.461	1.343	1.110	1.091	1.265	1.255	1.397	1.552	1.475	1.371	1.245	1.258	1.146	1.361	1.378	1.608	1.716	1.694	2.034	1.734	1.445	1.308	1.388	1.184	1.062	1.176	1.209	1.305	1.386	1.528	1.863	1.833	2.026	2.256	2.668	2.980	3.461	4.093	4.905	5.307	4.724	3.749	2.765	2.377	2.298	2.542	3.913	7.700
315.0	680.6	723.4	600.8	386.5	285.1	265.0	303.4	364.8	450.6	553.2	674.0	794.7	949.6	886.3	435.1	352.5	754.3	1608	4746	8400	497.3	22.24	6.006	4.200	3.197	2.409	2.172	1.910	1.742	1.619	1.208	1.174	1.220	1.076	1.210	1.429	1.477	1.374	1.342	1.301	1.297	1.408	1.309	1.512	1.577	1.779	1.870	2.004	1.860	1.537	1.378	1.523	1.273	1.205	1.290	1.267	1.573	1.648	1.749	1.935	2.121	2.198	2.455	2.707	2.967	3.096	3.541	3.645	4.378	4.349	5.764	5.412	3.735	2.497	2.038	2.211	2.821
320.0	781.6	803.3	668.9	451.0	327.5	304.1	343.5	396.7	485.0	595.3	704.3	777.9	836.4	977.6	684.7	336.1	335.3	469.9	1309	6421	6989	395.3	12.38	5.670	3.805	3.067	2.443	2.104	1.678	1.591	1.420	1.147	1.294	1.223	1.380	1.427	1.400	1.470	1.419	1.278	1.314	1.393	1.440	1.525	1.694	2.011	1.923	2.226	2.033	1.646	1.514	1.589	1.461	1.274	1.407	1.351	1.710	1.619	1.846	2.131	2.280	2.393	2.668	2.910	3.203	3.323	3.479	3.695	4.053	4.025	4.601	5.427	5.428	4.360	2.685	2.050	2.161
325.0	826.0	941.4	824.5	551.4	390.1	344.1	367.1	428.0	516.5	627.1	737.3	811.9	806.9	837.2	875.3	476.9	290.5	250.0	387.6	1912	7128	3899	59.65	7.924	4.730	3.470	2.589	2.203	1.945	1.635	1.573	1.283	1.261	1.192	1.463	1.355	1.513	1.377	1.411	1.563	1.304	1.452	1.615	1.813	1.893	2.385	2.180	2.666	2.584	1.987	1.740	1.965	1.675	1.601	1.558	1.562	1.836	1.802	1.982	2.105	2.409	2.358	2.801	3.277	3.326	3.616	3.818	3.590	4.058	4.124	4.213	4.458	4.904	5.435	4.773	3.120	2.321
330.0	925.7	1082	1034	732.8	476.6	404.8	407.8	468.6	555.0	661.8	780.7	861.8	846.5	790.2	773.4	698.0	435.2	251.8	215.2	520.5	2083	4902	5057	1224	19.49	4.995	3.678	2.838	2.417	1.771	1.770	1.492	1.423	1.426	1.334	1.457	1.465	1.512	1.333	1.393	1.436	1.476	1.700	1.861	2.067	2.506	2.488	2.898	3.135	2.683	2.267	2.366	1.992	1.919	1.724	1.760	1.865	2.041	2.170	2.349	2.513	2.617	2.872	3.210	3.583	3.634	3.795	3.850	3.942	4.291	4.208	4.151	4.236	4.528	4.636	4.697	4.128
335.0	980.2	1210	1155	863.9	597.3	486.2	464.1	506.1	584.4	698.4	821.5	897.9	890.6	822.9	720.2	652.6	664.3	389.0	228.4	246.7	544.2	1186	3622	7133	427.2	21.30	5.235	3.827	2.987	2.239	1.953	1.634	1.421	1.420	1.491	1.391	1.439	1.572	1.408	1.488	1.544	1.396	1.659	1.999	2.299	2.528	2.812	3.131	3.134	2.853	2.696	2.824	2.397	2.099	2.067	1.968	2.241	2.344	2.399	2.401	2.584	2.993	3.239	3.500	3.592	3.936	3.854	4.289	4.287	4.400	4.291	4.483	4.335	4.196	3.944	4.088	4.396
340.0	1045	1296	1260	938.3	660.1	545.3	502.3	530.4	598.8	724.2	829.1	902.9	913.0	854.2	731.6	617.6	641.5	560.9	290.8	211.6	220.6	331.2	979.0	5164	6154	360.5	11.46	4.676	3.449	2.777	2.142	1.876	1.516	1.688	1.438	1.308	1.490	1.519	1.378	1.286	1.521	1.465	1.702	1.908	2.221	2.705	3.035	3.619	3.659	3.148	2.955	3.119	2.821	2.200	2.226	2.337	2.426	2.377	2.463	2.592	2.535	2.994	3.359	3.507	3.630	3.835	4.061	4.192	4.534	4.711	4.279	4.679	4.491	4.152	3.782	3.653	3.766
345.0	1027	1285	1284	1019	731.7	585.7	529.1	543.8	610.1	714.3	823.4	887.9	919.2	849.7	749.4	618.0	560.8	604.4	422.6	240.4	171.6	159.4	277.3	1498	5945	3376	53.14	7.147	4.477	3.035	2.260	1.754	1.661	1.730	1.376	1.394	1.444	1.509	1.515	1.513	1.437	1.532	1.633	1.826	2.305	2.634	2.997	3.482	3.583	3.285	3.001	3.245	2.868	2.431	2.498	2.372	2.250	2.483	2.621	2.757	3.011	2.950	3.438	3.578	3.610	3.696	4.210	4.198	4.477	4.612	4.322	4.417	4.498	4.246	3.899	3.800	3.529
350.0	1026	1242	1253	1034	781.4	647.9	574.9	583.0	636.6	724.2	815.7	881.5	894.7	850.7	757.6	641.5	558.3	521.1	516.3	378.3	217.1	157.1	150.9	397.1	1714	4033	4263	1108	18.20	4.411	2.950	2.345	1.901	1.729	1.531	1.455	1.498	1.518	1.583	1.424	1.420	1.568	1.721	2.004	2.303	2.546	2.821	3.247	3.586	3.179	3.188	3.341	3.164	2.777	2.710	2.522	2.563	2.704	2.654	2.728	2.856	3.144	3.318	3.527	3.699	3.871	4.003	4.199	4.214	4.425	4.492	4.562	4.402	4.257	4.171	4.129	3.826
355.0	1003	1186	1203	1057	847.9	702.5	635.8	633.1	670.4	744.8	818.0	865.5	870.1	840.9	763.5	673.9	581.1	515.3	473.0	501.4	348.0	208.6	163.8	184.8	445.3	978.0	2956	5864	396.5	19.45	4.406	2.965	2.159	1.963	1.827	1.557	1.556	1.524	1.646	1.372	1.566	1.587	1.735	1.987	2.012	2.618	2.653	3.223	3.332	3.107	3.214	3.214	3.068	3.195	2.900	2.875	2.778	2.790	3.020	2.787	2.899	3.293	3.199	3.744	3.746	3.783	3.880	4.198	4.098	4.142	4.249	4.705	4.475	4.542	4.275	4.066	4.173
360.0	964.3	1123	1178	1051	871.6	759.8	682.2	671.5	704.0	769.6	817.2	865.7	861.4	838.8	774.5	688.2	615.5	538.1	475.8	479.0	465.3	287.5	198.4	162.7	187.9	276.2	797.9	4251	5283	340.7	10.27	3.504	2.623	2.171	1.827	1.669	1.505	1.549	1.508	1.433	1.510	1.595	1.757	1.862	2.115	2.384	2.664	3.264	3.248	3.124	3.047	3.396	3.275	3.224	3.050	3.028	3.097	2.881	2.941	3.026	3.002	3.325	3.333	3.718	3.792	4.006	3.891	4.038	4.016	4.411	4.530	4.613	4.274	4.232	4.081	4.114	4.049
365.0	936.1	1100	1130	1044	893.0	793.8	718.4	715.3	733.4	783.2	818.7	856.2	859.6	826.3	776.6	692.0	637.3	566.9	500.9	465.3	483.6	401.9	251.3	186.1	153.2	141.0	233.7	1248	5139	3150	49.36	6.131	3.680	2.658	2.203	1.648	1.661	1.644	1.843	1.601	1.506	1.602	1.786	2.003	2.233	2.351	2.614	3.043	3.225	3.098	2.904	3.543	3.429	3.190	3.089	3.102	3.443	3.128	3.179	3.224	3.326	3.349	3.614	3.829	3.990	4.025	3.858	3.759	3.896	4.284	4.159	4.543	4.386	4.229	4.139	4.142	4.264
370.0	924.0	1058	1114	1041	916.9	841.4	773.0	749.6	768.3	801.9	829.7	859.5	848.6	824.0	775.6	711.4	655.9	604.9	543.3	491.1	458.7	461.3	380.7	252.5	184.9	144.2	132.2	336.3	1490	3695	3926	992.9	15.96	3.989	2.597	2.076	2.055	1.652	1.605	1.660	1.599	1.751	1.693	1.880	2.177	2.380	2.554	2.993	3.145	2.941	2.924	3.602	3.419	3.383	3.189	3.166	3.339	3.192	3.310	3.352	3.352	3.473	3.665	3.799	3.988	3.980	3.918	3.808	3.959	4.195	4.379	4.395	4.453	4.504	4.324	4.300	4.374
375.0	877.6	1061	1092	1031	943.9	868.8	811.3	796.6	793.8	828.2	835.0	854.1	845.5	817.7	769.6	718.1	673.1	632.8	578.9	531.7	479.2	445.4	456.6	370.0	241.4	181.6	143.9	158.0	388.7	898.7	2800	5132	342.9	16.64	3.938	2.509	2.382	1.907	1.896	1.778	1.695	1.584	1.770	1.881	2.051	2.305	2.445	2.885	3.253	2.845	2.893	3.487	3.431	3.506	3.499	3.465	3.494	3.351	3.383	3.609	3.663	3.624	3.615	3.862	3.877	4.130	4.187	3.750	4.302	4.084	4.117	4.331	4.256	4.301	4.317	4.255	4.329
380.0	858.0	1050	1080	1015	955.1	891.2	825.1	814.1	818.6	832.9	846.6	855.4	834.0	809.8	765.4	718.5	679.3	640.7	600.1	558.3	503.0	456.7	447.0	450.1	313.0	217.3	166.7	137.6	158.8	251.4	766.7	3821	4323	277.1	8.015	3.318	2.719	2.150	1.917	1.784	1.671	1.706	1.765	2.044	2.140	2.302	2.511	2.931	3.075	2.865	2.889	3.488	3.784	3.628	3.434	3.428	3.438	3.423	3.762	3.626	3.582	3.735	3.877	3.821	3.965	4.024	3.790	4.146	4.048	4.058	4.295	4.264	4.412	4.351	4.274	4.220	4.498
385.0	884.1	996.5	1087	1011	966.5	911.5	847.8	835.9	834.4	834.9	854.8	844.5	828.6	802.6	752.9	713.4	686.3	655.0	607.3	579.7	525.1	477.5	437.7	445.7	395.7	267.1	195.5	153.8	125.5	121.2	217.1	1132	4210	2585	40.04	5.141	3.129	2.420	2.019	1.737	1.711	1.815	1.887	2.112	2.204	2.462	2.481	2.991	3.092	2.833	2.848	3.372	3.602	3.640	3.485	3.513	3.775	3.627	3.823	3.792	3.764	3.890	3.956	3.823	3.703	4.154	3.953	3.696	3.740	4.143	4.076	4.271	4.399	4.261	4.316	4.218	4.413
390.0	869.8	1000	1044	1022	964.6	916.9	876.1	851.5	834.7	841.1	853.1	836.3	812.5	788.3	750.9	708.1	682.2	655.7	623.5	590.3	549.3	503.1	463.8	429.5	421.3	363.3	254.1	193.3	151.5	119.4	113.9	298.3	1231	2917	2938	740.9	13.25	3.621	2.471	2.177	1.814	1.804	1.949	1.983	2.165	2.284	2.369	2.875	2.907	2.966	2.895	3.359	3.699	3.665	3.536	3.574	3.787	3.762	3.700	3.784	3.877	3.874	3.880	3.913	3.993	3.965	3.919	3.768	4.013	3.964	4.101	4.095	4.323	4.227	4.275	4.453	4.241
395.0	876.9	984.1	1026	1025	973.8	924.4	890.8	864.8	860.6	844.3	852.2	827.1	804.9	784.8	739.6	705.3	681.8	652.8	629.5	601.5	563.2	525.5	488.1	449.6	412.8	409.8	347.9	247.7	191.3	149.8	117.4	130.0	316.2	711.9	2174	3763	281.8	12.82	3.383	2.604	2.212	2.132	2.038	2.005	2.347	2.285	2.534	2.877	2.830	2.982	2.859	3.517	3.471	3.526	3.756	3.660	3.885	3.817	3.772	3.855	3.793	3.984	3.860	3.884	3.883	4.028	3.813	3.622	3.888	4.155	3.941	4.264	4.272	4.084	4.104	4.371	4.172
400.0	874.0	983.7	1013	1018	968.5	929.4	895.7	866.5	860.8	850.9	849.6	833.1	814.6	784.3	740.7	698.5	672.5	651.5	628.6	606.5	567.7	539.0	504.5	467.9	426.1	407.6	400.4	309.2	227.5	181.8	138.8	109.7	126.7	197.5	609.1	2905	2363	227.2	6.572	3.170	2.441	2.306	2.013	2.031	2.209	2.396	2.466	2.897	2.892	2.841	2.955	3.417	3.352	3.657	3.941	3.625	4.218	3.644	3.821	3.678	3.813	3.979	3.896	4.004	3.738	3.927	3.826	3.769	3.818	4.050	3.771	4.090	4.262	4.190	4.156	4.354	4.145
405.0	833.3	962.7	1007	991.1	970.3	939.6	884.6	885.7	864.2	857.0	854.2	847.5	814.9	784.1	733.6	694.1	659.9	642.4	625.2	605.8	574.2	545.2	519.3	483.9	446.2	410.2	404.8	370.4	271.7	211.5	164.3	123.4	98.78	92.24	170.1	875.2	2994	2132	34.68	4.297	2.841	2.448	2.285	2.261	2.283	2.396	2.432	2.745	2.844	2.786	2.841	3.353	3.437	3.661	3.770	3.776	3.978	3.817	3.813	3.997	4.072	3.901	3.946	3.816	3.809	3.854	4.044	3.633	3.641	4.010	3.930	4.279	4.076	3.994	4.108	4.195	4.158
410.0	804.5	934.1	988.9	972.3	947.4	935.7	907.1	888.9	866.8	869.0	859.8	844.2	809.3	776.7	727.2	677.1	645.1	626.9	612.1	588.1	568.7	546.6	526.5	497.3	460.9	423.1	394.6	388.5	342.8	259.6	197.3	148.2	110.1	84.01	84.13	228.3	899.3	2252	2255	577.5	11.42	3.145	2.644	2.434	2.343	2.292	2.460	2.785	2.873	2.666	2.758	3.416	3.507	3.790	3.725	3.852	3.844	4.180	3.893	3.950	4.125	3.874	3.841	3.914	3.938	3.802	3.882	3.813	3.818	3.789	3.807	3.882	3.911	4.003	4.094	3.979	3.999
415.0	768.2	915.5	945.5	937.1	919.0	927.8	902.7	879.7	866.5	861.6	854.1	822.6	795.5	752.5	699.9	654.1	618.1	600.1	590.2	568.8	556.1	538.9	518.3	500.0	468.4	433.8	398.8	370.1	363.4	318.6	228.5	170.1	128.4	93.86	73.76	91.27	227.4	548.9	1634	2768	249.3	11.43	3.410	2.618	2.452	2.464	2.448	2.770	2.763	2.499	2.892	3.476	3.328	3.709	3.684	3.728	3.697	4.057	3.734	3.806	3.875	3.699	3.799	3.804	3.995	3.893	4.024	3.754	3.620	3.793	3.703	4.015	3.685	3.942	3.928	3.820	4.019
420.0	752.8	889.0	925.3	918.4	918.9	904.5	902.0	864.4	863.0	849.5	832.4	804.1	770.7	727.2	678.7	634.1	596.4	579.0	568.6	549.6	533.3	522.1	510.0	493.2	465.1	434.9	402.6	367.7	348.5	343.9	264.1	188.0	140.2	104.1	79.47	65.87	82.27	143.8	450.3	2112	2089	203.4	5.631	2.997	2.475	2.608	2.316	2.833	2.651	2.582	2.722	3.294	3.192	3.496	3.396	3.607	3.745	3.878	3.611	3.886	4.029	3.946	3.882	3.668	3.871	3.822	3.772	3.723	3.705	3.924	3.667	3.736	3.632	3.603	3.746	3.622	4.052
425.0	720.8	853.1	898.1	903.3	907.7	880.4	874.5	847.2	851.4	831.4	806.8	791.6	744.7	703.2	657.3	612.9	575.8	558.2	545.6	528.6	515.2	505.2	497.9	482.9	458.6	433.2	402.6	371.1	341.9	334.5	300.6	209.1	150.9	114.7	86.52	65.55	54.07	56.69	118.2	636.2	2279	1811	32.76	4.045	3.209	2.698	2.533	2.818	2.552	2.625	2.595	3.308	3.408	3.578	3.428	3.536	3.521	3.856	3.638	3.779	3.875	3.707	3.774	3.770	3.660	3.786	3.555	3.700	3.557	3.647	3.626	3.725	3.525	3.663	3.615	3.500	3.826
430.0	849.7	840.1	860.3	872.0	883.6	859.5	860.0	846.6	837.5	824.9	804.3	778.8	723.4	678.6	633.4	581.2	549.2	531.9	516.7	503.6	496.3	487.3	479.6	468.4	447.3	428.6	402.7	373.6	345.0	318.0	300.9	249.5	175.7	129.6	99.92	76.26	57.13	45.00	48.54	158.4	667.6	1709	1806	479.5	10.99	3.416	2.820	2.787	2.700	2.657	2.568	3.217	3.301	3.409	3.483	3.557	3.438	3.963	3.985	3.757	3.642	3.695	3.788	3.668	3.725	3.629	3.571	3.709	3.315	3.546	3.485	3.413	3.336	3.517	3.567	3.485	3.628
435.0	1235	782.8	829.4	845.2	859.2	845.9	832.9	835.9	829.9	808.5	799.9	755.7	707.5	659.6	605.5	555.5	526.4	505.6	488.7	482.4	472.0	469.8	458.5	453.6	438.4	419.7	398.3	372.2	346.7	318.3	285.4	261.1	214.9	152.2	112.5	87.29	67.08	49.96	39.32	56.14	164.4	410.4	1261	2124	236.5	11.94	3.509	2.896	3.076	2.605	2.627	3.119	3.189	3.144	3.565	3.309	3.384	3.786	3.817	3.656	3.641	3.622	3.594	3.989	3.604	3.532	3.457	3.479	3.338	3.507	3.350	3.263	3.483	3.317	3.648	3.322	3.117
440.0	1746	867.9	815.9	837.1	826.9	827.7	835.6	819.4	813.0	798.9	780.8	740.7	697.7	642.6	580.4	532.0	504.7	480.8	468.6	460.7	451.4	449.6	441.1	436.4	423.9	410.3	390.9	370.9	347.4	317.2	279.0	247.7	230.5	174.0	124.1	96.56	73.31	55.92	41.85	36.56	54.50	105.6	347.5	1715	1926	194.2	6.419	3.285	2.896	2.686	2.563	3.007	2.996	3.262	3.420	3.511	3.632	3.576	3.854	3.816	3.578	3.806	3.529	3.807	3.690	3.338	3.390	3.353	3.223	3.448	3.366	3.055	3.525	3.257	3.543	3.025	3.310
445.0	2010	1196	784.9	808.9	794.5	813.1	815.4	803.9	791.0	789.0	758.2	717.1	673.3	618.1	561.9	509.1	480.2	459.7	449.5	442.1	433.5	429.8	423.7	413.8	408.1	393.1	377.5	362.3	340.3	312.9	280.6	239.4	221.9	191.5	137.5	101.2	78.70	62.21	46.48	36.18	33.31	39.24	90.64	518.4	1994	1696	28.46	4.502	3.235	2.680	2.642	2.980	3.043	3.258	3.316	3.293	3.663	3.547	3.717	3.791	3.552	3.474	3.445	3.418	3.596	3.381	3.127	3.170	3.140	3.206	3.294	3.101	3.279	3.247	3.073	3.160	3.393
450.0	1451	2014	902.9	745.8	747.3	777.3	768.9	774.0	761.0	755.3	732.7	680.3	631.0	579.3	526.4	476.1	449.6	428.4	418.2	408.6	402.2	397.2	391.3	386.2	380.7	368.9	356.1	343.0	324.9	303.8	272.9	234.0	204.2	186.6	158.3	115.8	86.63	67.89	52.42	41.01	33.25	28.23	35.34	127.9	575.8	1541	1648	459.1	9.871	3.199	2.770	3.086	3.060	3.089	3.062	3.086	3.567	3.443	3.584	3.654	3.493	3.320	3.438	3.474	3.448	3.278	3.204	3.238	2.941	3.199	3.036	3.148	2.986	2.965	3.029	3.054	3.094
455.0	805.7	2223	1543	699.6	699.5	711.9	717.6	739.5	720.6	713.8	676.3	642.7	588.7	540.8	482.2	440.5	412.3	395.4	382.6	371.5	365.7	362.7	355.8	352.9	346.0	338.8	334.6	319.8	306.8	289.3	261.7	225.5	195.4	169.9	158.2	133.9	96.73	73.39	58.20	45.32	36.78	29.27	25.71	42.57	139.2	366.9	1005	1871	199.4	10.68	3.050	3.125	3.086	2.897	2.936	2.911	3.350	3.261	3.239	3.287	3.462	3.317	3.431	3.279	3.178	3.173	2.982	2.849	2.823	2.776	2.905	2.922	2.613	2.970	2.788	2.761	2.769
460.0	589.1	1680	2327	789.5	651.1	677.0	678.4	689.2	682.1	677.2	647.9	613.0	554.9	502.5	453.1	412.3	389.1	364.7	355.3	344.8	339.9	335.0	326.1	327.5	324.2	316.7	309.0	301.1	290.3	275.4	249.3	221.5	188.8	162.2	147.2	138.1	106.7	77.21	61.42	48.57	39.52	31.51	25.31	25.17	43.48	91.95	263.8	1319	1586	156.2	6.040	3.339	3.142	3.040	2.950	2.798	3.119	3.144	2.916	3.209	3.284	3.321	3.288	3.318	3.009	2.866	2.996	2.693	2.682	2.825	2.621	2.642	2.742	2.706	2.707	2.655	2.643
465.0	520.1	1005	2671	964.3	625.1	628.6	636.2	652.7	640.3	629.2	622.3	573.5	526.8	473.6	424.5	383.5	360.9	338.2	329.5	319.2	317.0	310.4	306.6	306.8	301.5	292.5	287.5	281.9	275.1	258.9	237.1	211.9	181.9	158.0	137.3	129.0	115.7	83.46	64.25	52.19	42.34	34.35	26.65	22.64	23.38	31.41	68.06	376.9	1503	1300	23.69	4.887	3.215	3.072	2.745	2.599	2.847	3.095	2.695	3.124	3.000	3.152	2.955	3.079	2.812	3.060	3.086	2.807	2.763	2.780	2.367	2.525	2.543	2.332	2.402	2.456	2.598
470.0	465.7	617.4	1838	2173	682.9	561.7	580.8	593.7	588.3	583.3	576.0	531.2	480.0	432.1	384.2	346.7	324.1	303.4	294.3	286.7	281.6	274.7	274.7	273.0	269.7	263.4	259.1	254.1	247.5	236.2	219.0	198.6	172.5	149.2	129.6	113.9	107.6	92.69	69.45	53.65	44.37	36.25	28.85	23.54	20.50	19.24	24.89	92.38	418.8	1052	1180	414.5	11.03	3.233	2.772	2.738	2.746	2.940	2.828	2.861	2.833	2.977	2.789	2.874	2.710	2.744	2.624	2.558	2.553	2.477	2.558	2.244	2.460	2.242	2.310	2.179	2.362
475.0	474.2	495.0	855.1	2416	1417	522.3	534.7	539.4	539.1	522.3	514.6	491.5	433.6	390.4	346.3	310.8	291.5	269.8	261.0	253.5	248.8	241.7	242.9	240.3	237.3	233.2	229.9	224.9	220.9	213.5	198.5	180.4	158.9	137.4	119.9	105.4	93.83	89.38	78.76	57.60	44.95	38.58	30.22	25.17	21.21	18.30	16.55	29.61	100.1	244.6	588.2	1339	205.9	13.67	2.973	2.687	2.485	2.747	2.546	2.602	2.436	2.650	2.714	2.635	2.530	2.683	2.541	2.209	2.263	2.517	2.224	2.236	2.231	2.191	1.913	2.066	2.230
480.0	441.2	455.2	534.5	1697	2259	593.3	499.5	490.9	498.2	491.1	475.8	448.2	403.3	356.4	321.2	284.0	264.0	251.0	240.6	232.8	225.0	220.0	220.7	217.7	215.3	214.3	211.1	203.8	203.5	196.6	185.9	167.4	148.6	132.4	114.4	99.40	86.83	79.91	79.34	62.42	47.04	38.74	32.30	25.94	22.64	18.71	15.47	16.13	30.15	60.78	147.0	744.4	1230	193.2	7.416	2.909	2.613	2.629	2.463	2.545	2.333	2.419	2.474	2.444	2.395	2.383	2.247	2.174	2.290	2.157	2.101	1.998	1.987	2.045	1.883	1.796	2.229
485.0	403.8	454.1	446.5	933.4	2604	1013	457.7	462.7	472.0	458.4	452.1	416.9	375.5	339.4	302.1	267.6	242.4	232.5	222.0	214.7	207.8	205.1	205.7	200.4	198.7	197.3	196.1	191.3	190.9	185.3	173.1	159.5	142.4	125.9	109.6	96.11	84.48	74.86	73.70	67.29	51.91	39.27	33.15	27.52	23.44	19.70	16.44	13.97	15.04	20.35	38.43	198.4	937.4	1202	29.29	4.720	2.890	2.524	2.383	2.361	2.441	2.458	2.387	2.286	2.218	2.096	2.114	2.089	2.198	2.198	1.855	1.800	1.822	1.922	1.763	1.651	2.048
490.0	343.3	435.4	400.8	513.7	1732	2055	578.9	426.9	430.6	425.2	414.6	383.0	349.3	307.7	275.1	242.4	222.4	211.1	201.7	194.7	189.1	185.0	181.8	182.6	180.5	178.5	175.9	174.3	173.5	169.0	159.4	146.8	131.5	117.5	103.5	91.75	80.72	70.96	64.90	62.74	55.86	42.63	34.10	28.18	24.24	20.42	17.43	15.00	12.62	12.09	14.69	49.63	245.6	736.1	991.6	430.1	13.40	2.737	2.526	2.346	2.337	2.323	2.232	2.096	2.059	2.040	1.978	2.009	1.985	1.989	1.861	1.764	1.660	1.756	1.717	1.593	1.740
495.0	281.0	403.3	405.4	396.0	747.6	2355	1268	401.3	388.8	388.1	372.4	351.7	314.9	282.4	247.5	220.9	201.0	189.1	180.8	176.2	169.7	165.2	161.3	160.3	159.4	159.1	156.6	153.3	154.9	150.4	143.9	132.0	119.3	106.8	95.85	86.14	75.23	67.15	60.11	54.56	54.32	48.19	35.78	29.04	25.42	22.12	17.90	15.62	12.93	10.85	9.851	16.79	59.57	169.7	451.9	1192	621.3	17.86	2.757	2.390	2.130	1.998	2.225	1.997	1.881	1.942	1.854	1.867	1.820	1.730	1.729	1.602	1.588	1.511	1.585	1.538	1.658
500.0	245.3	338.5	406.2	346.1	414.2	1616	2127	434.5	359.3	355.8	346.3	327.8	290.5	260.8	227.3	203.3	181.9	171.9	163.6	158.6	154.5	149.9	147.3	146.2	145.0	141.9	141.1	141.2	139.7	139.8	132.4	122.4	112.3	98.49	88.43	80.16	71.92	62.85	56.06	49.82	48.13	47.84	39.73	29.81	25.18	21.49	18.40	16.16	12.98	10.75	9.088	9.528	18.20	42.32	109.9	575.5	1268	224.5	12.07	2.357	2.285	2.059	1.971	1.927	1.784	1.898	1.755	1.650	1.654	1.631	1.600	1.412	1.483	1.320	1.373	1.460	1.580
505.0	225.2	267.6	397.9	326.6	314.7	830.3	2534	858.9	334.2	328.0	318.5	299.3	265.4	237.4	208.6	183.8	167.4	158.2	150.1	144.0	140.2	135.2	135.2	132.0	130.3	128.8	128.3	130.4	127.5	127.7	120.9	111.7	103.6	91.50	82.32	74.01	66.85	60.14	52.84	46.46	43.17	43.74	41.36	31.78	24.75	21.15	18.45	16.03	13.43	11.47	9.245	8.335	8.998	14.21	28.69	143.9	730.7	1120	187.7	6.076	2.422	2.195	1.750	1.736	1.663	1.715	1.786	1.626	1.478	1.617	1.533	1.328	1.393	1.359	1.263	1.363	1.361
510.0	202.8	233.8	326.7	332.5	272.4	407.2	1681	1977	443.1	291.3	284.4	262.0	236.2	210.3	187.6	164.8	149.2	140.5	132.9	127.6	122.6	118.8	117.2	116.1	113.7	112.6	112.1	113.3	112.1	110.7	105.9	99.25	91.18	82.70	73.57	67.25	60.13	54.81	48.46	43.35	38.95	36.87	36.70	33.79	26.67	20.62	18.41	15.65	13.27	11.32	9.896	8.183	7.191	7.710	10.39	35.68	180.4	565.2	848.0	386.2	14.73	2.411	1.816	1.707	1.581	1.619	1.524	1.406	1.435	1.355	1.387	1.267	1.244	1.269	1.123	1.151	1.207
515.0	166.8	207.1	243.4	301.4	258.8	266.8	645.8	2406	1121	268.0	248.3	226.8	209.6	184.1	160.5	142.7	129.8	120.6	116.2	109.8	104.6	103.0	101.1	100.0	98.87	98.04	95.90	97.12	97.97	96.04	94.63	85.95	78.00	71.66	65.94	60.21	53.27	48.97	43.80	38.95	34.85	31.68	30.92	31.33	28.83	21.84	17.82	14.85	12.82	11.40	9.745	8.871	6.921	6.275	5.998	11.48	43.65	129.3	293.2	856.6	559.0	20.22	2.180	1.719	1.647	1.429	1.210	1.331	1.388	1.241	1.135	1.187	1.188	1.058	1.026	1.074	1.078
520.0	156.0	179.1	197.0	267.9	255.6	224.7	316.6	1681	2100	307.7	223.5	207.2	186.4	164.1	146.7	127.9	116.3	108.8	102.2	97.08	92.94	90.24	89.52	87.30	88.51	87.20	85.30	85.81	87.19	86.10	85.03	78.09	71.71	65.76	59.92	54.56	49.03	44.22	40.12	36.22	32.63	29.41	27.22	26.62	28.47	23.03	17.46	14.64	12.36	10.98	9.298	8.911	7.233	6.238	5.378	6.289	13.29	31.78	69.62	358.3	919.2	233.0	13.57	1.717	1.518	1.497	1.275	1.288	1.211	1.223	0.978	1.080	1.180	1.066	0.951	0.949	0.989
525.0	141.1	169.6	179.0	222.7	270.3	205.9	223.9	789.1	2694	716.2	205.0	188.2	170.7	151.3	129.2	117.2	107.4	99.89	93.03	88.74	83.54	82.33	80.81	78.47	79.18	78.46	77.34	77.88	78.36	76.57	76.11	70.39	65.00	59.63	54.13	50.24	45.23	40.30	37.40	33.55	30.34	27.56	25.00	23.46	25.49	24.28	18.54	14.19	11.78	10.75	9.207	8.192	7.348	6.475	5.289	5.149	6.419	10.17	18.53	86.72	454.4	817.1	194.8	6.431	1.593	1.389	1.177	1.165	1.105	1.061	1.026	0.967	1.044	1.032	1.043	0.817	0.968
530.0	122.5	139.6	152.7	172.2	238.9	207.3	184.0	323.0	1789	2000	316.5	165.2	149.0	131.1	113.5	100.9	92.43	86.21	81.11	77.44	72.71	71.39	69.81	68.39	68.21	66.95	66.15	67.29	66.53	65.00	65.01	60.31	55.53	51.37	46.49	43.42	39.21	36.15	33.23	29.97	27.43	25.17	22.33	20.99	20.59	21.59	19.45	14.99	11.47	10.09	8.712	7.607	6.846	6.475	5.553	4.804	4.594	5.178	6.790	21.72	109.1	360.6	596.9	304.5	15.34	1.614	1.250	1.124	1.116	1.064	0.955	0.959	0.916	0.914	0.849	0.850	0.909
535.0	117.7	125.6	142.9	142.5	179.0	217.7	156.9	184.1	613.6	2537	1024	153.8	131.7	117.3	99.78	87.42	79.16	72.62	69.47	65.38	63.07	60.80	58.43	58.41	56.58	57.16	56.16	56.85	56.38	55.64	55.23	51.30	47.41	44.07	40.70	37.75	34.14	31.87	29.24	26.39	24.10	22.22	19.61	18.43	17.71	17.06	17.86	16.02	11.46	9.408	8.134	7.311	6.364	5.992	5.475	4.963	4.254	4.029	3.996	7.209	26.41	82.32	183.1	565.0	251.6	21.03	1.321	1.125	1.051	0.969	0.908	0.897	0.790	0.828	0.796	0.759	0.846
540.0	99.30	111.3	120.9	115.7	140.0	214.9	159.8	139.9	248.8	1693	1947	201.1	116.0	101.1	88.69	77.13	68.12	65.19	59.97	57.74	54.72	52.81	52.17	50.95	49.82	49.87	48.70	48.98	49.18	48.92	48.47	44.91	42.09	38.54	36.00	33.17	30.32	27.84	26.24	23.52	21.44	19.17	17.91	17.05	15.68	14.27	15.16	15.43	12.11	9.017	7.680	7.000	6.055	5.473	5.216	4.926	4.057	3.703	3.419	3.682	8.095	20.30	43.01	214.4	597.4	230.4	13.00	1.096	0.951	0.954	0.878	0.844	0.779	0.748	0.703	0.642	0.782
545.0	93.02	104.9	106.6	97.18	110.2	184.1	165.2	125.6	150.0	710.9	2716	512.1	105.2	91.13	78.54	69.65	62.00	56.58	53.66	49.25	47.55	46.84	45.67	43.87	44.25	43.90	42.71	43.06	42.43	43.37	42.80	39.58	37.22	34.12	31.76	29.51	27.01	24.33	22.77	20.93	19.34	17.65	15.99	15.24	14.06	12.66	12.36	13.78	12.46	9.281	7.064	6.264	5.602	5.209	4.697	4.784	4.368	3.568	3.129	2.934	3.696	6.271	11.27	51.01	278.6	589.3	180.4	5.487	1.101	0.820	0.935	0.736	0.749	0.706	0.704	0.630	0.766
550.0	92.82	93.11	91.86	87.49	91.44	124.9	175.5	115.9	111.4	249.0	1726	1726	145.4	75.68	66.04	59.29	50.92	47.26	44.82	42.40	40.93	38.44	37.79	36.87	37.27	36.86	35.60	35.91	36.34	36.44	34.64	33.23	30.61	28.75	26.42	24.36	22.58	21.01	19.38	18.10	16.70	15.18	13.77	12.83	12.31	10.84	10.33	10.67	11.23	9.738	7.093	5.867	4.949	4.657	4.295	3.952	4.041	3.523	2.879	2.658	2.656	3.014	4.108	12.78	66.27	245.0	419.1	213.9	14.31	1.044	0.913	0.737	0.679	0.659	0.592	0.591	0.628
555.0	78.05	84.62	78.41	76.89	73.74	84.73	145.1	127.5	89.47	123.0	528.5	2357	654.3	66.37	54.51	48.44	42.17	38.71	37.04	33.13	33.46	31.97	30.65	31.35	30.23	29.48	29.01	28.85	29.01	29.51	28.49	26.91	25.10	23.06	21.93	19.76	18.61	17.65	15.86	14.56	13.76	12.61	11.78	11.12	10.23	9.328	8.619	8.005	8.341	8.981	7.571	5.517	4.349	3.973	3.793	3.539	3.361	3.202	2.947	2.457	2.366	2.175	2.369	4.091	16.07	55.77	126.4	377.3	240.0	18.57	0.982	0.748	0.650	0.548	0.622	0.635	0.561
560.0	71.03	79.71	73.68	66.04	67.00	70.76	109.5	138.0	83.89	85.90	181.9	1572	1412	95.14	47.07	40.62	35.91	33.46	31.33	28.70	29.37	27.08	26.20	25.98	25.61	25.65	24.49	24.76	24.15	24.37	24.46	22.64	20.97	19.48	18.37	17.25	15.68	14.81	14.08	12.55	11.98	10.83	9.950	9.669	8.729	8.249	7.304	6.819	6.477	7.176	6.940	5.531	4.002	3.711	3.364	3.072	2.846	2.851	2.869	2.628	2.171	1.815	1.907	2.085	4.814	13.61	29.53	141.5	403.6	196.5	10.09	0.852	0.701	0.431	0.539	0.577	0.458
565.0	69.69	69.59	67.28	59.07	57.67	56.63	78.29	138.8	84.49	71.52	94.17	617.6	2241	292.7	41.31	34.58	31.55	28.05	27.10	25.14	24.37	23.30	22.61	22.05	21.63	21.12	21.03	21.09	20.42	21.30	20.79	19.44	17.93	16.77	15.95	14.76	13.61	12.80	11.82	10.84	10.38	9.477	8.650	8.145	7.757	7.152	6.646	5.964	5.604	5.756	6.212	5.443	4.172	3.351	2.944	2.659	2.710	2.589	2.671	2.384	2.165	1.750	1.702	1.497	2.185	4.102	7.653	33.69	181.9	383.1	130.5	3.888	0.749	0.545	0.498	0.688	0.498
570.0	71.90	70.37	63.58	56.94	49.74	47.81	56.09	106.8	102.8	62.15	67.49	191.8	1488	1258	72.48	28.76	25.81	23.98	22.30	20.83	19.06	19.02	18.32	17.69	17.37	17.03	16.94	16.51	16.98	16.64	16.51	15.82	15.05	13.65	12.90	11.99	11.14	10.33	9.749	8.862	8.201	7.558	7.132	6.843	6.482	5.950	5.412	4.930	4.745	4.402	4.544	4.635	4.075	3.171	2.576	2.442	2.399	2.208	2.172	2.118	2.211	1.834	1.657	1.575	1.586	1.901	2.784	8.547	43.24	154.7	265.5	135.9	12.57	0.743	0.624	0.620	0.493
575.0	71.77	66.50	62.10	47.30	43.57	40.06	48.47	65.57	115.2	69.24	56.96	83.71	434.6	1828	409.7	24.71	20.74	20.54	17.28	16.94	15.31	14.96	14.52	14.49	14.06	14.21	13.53	13.31	13.33	13.43	13.06	12.79	12.08	11.06	10.20	9.689	9.121	8.013	7.623	7.518	7.056	6.106	6.008	5.422	5.233	4.911	4.564	4.157	3.911	3.344	3.325	3.487	3.948	3.251	2.449	2.137	2.054	1.956	1.834	1.772	1.872	2.001	1.609	1.407	1.415	1.421	1.648	2.891	10.55	35.53	78.47	236.9	191.4	15.20	0.673	0.672	0.493
580.0	59.33	65.14	60.67	43.33	35.62	36.93	38.08	47.46	104.8	82.34	51.14	56.46	133.9	1237	987.5	41.40	18.30	17.11	15.69	13.83	12.95	13.05	13.02	12.07	11.65	11.62	11.61	11.75	11.37	11.22	11.09	10.70	9.769	9.377	8.376	8.319	7.577	7.205	6.986	6.410	5.727	5.298	4.834	4.870	4.754	4.130	3.941	3.674	3.322	2.916	2.929	2.746	3.373	3.262	2.479	2.070	2.041	1.747	1.697	1.568	1.452	1.908	1.806	1.553	1.317	1.298	1.262	1.733	3.457	8.808	18.62	87.98	264.9	137.5	6.814	0.639	0.487
585.0	64.17	67.74	55.51	39.82	30.36	36.06	35.61	41.10	77.67	100.9	52.74	49.75	62.03	476.9	1600	104.5	16.35	14.21	13.48	12.35	11.28	11.22	11.05	10.12	9.905	9.867	9.531	9.820	9.733	9.713	9.751	9.033	8.434	8.093	7.212	6.764	6.814	6.170	6.124	5.225	5.009	4.746	4.524	4.294	3.899	3.594	3.377	3.180	2.943	2.613	2.516	2.222	2.494	3.023	2.562	1.970	1.796	1.543	1.638	1.546	1.289	1.713	1.832	1.647	1.321	1.245	1.332	1.428	1.895	2.804	5.131	21.04	115.6	254.4	35.10	2.569	0.535
590.0	59.27	67.98	52.24	40.10	30.33	32.17	29.05	32.69	51.63	99.20	65.46	46.45	42.83	137.6	1054	775.7	32.98	12.30	11.31	10.25	9.835	9.353	8.797	8.673	8.332	8.235	7.955	8.116	8.143	7.781	7.908	7.371	6.974	6.417	6.210	5.705	5.529	5.204	4.815	4.132	3.994	3.990	3.579	3.413	3.328	2.991	2.921	2.597	2.464	2.231	2.019	1.872	1.977	2.120	2.456	2.181	1.755	1.588	1.376	1.261	1.249	1.376	1.442	1.559	1.450	1.301	1.180	1.315	1.417	1.630	2.033	5.484	27.33	101.4	167.3	100.8	11.41
595.0	58.89	57.51	48.34	39.77	27.09	24.73	27.78	32.12	38.09	75.42	89.33	46.14	37.63	53.09	301.1	1190	216.0	11.31	9.561	8.354	7.828	7.726	7.217	7.078	6.660	6.629	6.581	6.712	6.381	6.221	6.385	5.846	5.698	5.153	5.203	4.770	4.299	4.099	3.919	3.537	3.443	3.133	2.835	2.975	2.746	2.550	2.455	2.047	2.075	1.747	1.754	1.591	1.542	1.514	1.892	1.940	1.746	1.360	1.207	1.107	1.179	1.137	1.327	1.217	1.683	1.189	1.215	1.245	1.054	1.235	1.313	2.060	6.812	23.29	50.16	158.4	132.1
600.0	61.22	57.31	42.91	36.93	26.84	23.67	28.98	28.87	31.69	52.52	95.94	52.52	38.35	35.31	86.35	833.9	636.0	17.38	7.831	7.574	7.032	6.097	6.169	6.030	5.970	5.881	5.707	5.525	5.490	5.603	5.641	5.241	4.701	4.491	4.236	3.999	3.398	3.411	3.385	3.016	2.853	2.779	2.444	2.403	2.298	2.287	2.190	1.941	1.885	1.638	1.271	1.323	1.300	1.342	1.505	1.695	1.787	1.352	1.158	1.228	1.005	0.988	1.308	1.218	1.247	1.502	1.279	1.156	1.134	1.213	1.165	1.308	2.280	5.882	11.80	58.82	177.8
605.0	62.30	56.02	46.26	33.33	25.83	22.68	28.03	28.56	30.92	43.75	86.97	64.05	39.24	31.65	35.75	333.0	995.1	64.70	7.148	6.457	6.224	5.515	5.375	5.278	4.939	5.218	4.835	4.792	4.619	4.747	4.884	4.809	4.181	3.924	3.791	3.468	3.473	3.233	2.989	2.693	2.480	2.366	2.329	2.012	2.022	2.044	1.902	1.713	1.646	1.414	1.310	1.156	1.106	1.181	1.092	1.393	1.584	1.401	1.159	1.051	1.071	0.962	1.234	1.083	1.112	1.296	1.372	1.252	1.098	1.307	1.119	1.120	1.136	2.010	3.145	14.11	77.66
610.0	54.31	55.13	43.75	34.38	25.60	22.17	25.76	28.20	30.53	40.58	65.89	78.80	42.58	29.87	24.36	92.08	709.3	455.3	14.55	5.426	4.856	4.700	4.527	4.641	4.053	4.062	3.940	3.771	3.939	4.142	4.023	3.811	3.470	3.210	3.224	2.724	2.786	2.658	2.413	2.199	2.139	2.004	1.871	1.807	1.634	1.573	1.574	1.463	1.289	1.199	1.111	1.013	1.087	0.936	0.999	1.047	1.350	1.459	1.268	0.929	0.965	0.954	1.035	1.054	0.971	1.055	1.256	1.191	1.072	1.115	1.077	0.977	0.938	1.067	1.293	3.673	18.47
615.0	49.02	54.08	39.86	35.99	21.52	19.98	24.80	26.16	28.22	36.99	47.50	79.65	52.34	29.72	21.86	31.94	214.3	783.6	71.92	4.838	4.248	3.838	3.694	3.689	3.517	3.438	3.281	3.162	3.267	3.177	3.151	2.966	2.951	2.716	2.612	2.340	2.299	2.214	1.874	1.932	1.728	1.537	1.585	1.511	1.231	1.329	1.264	1.196	1.174	1.007	0.964	1.012	0.873	0.807	0.876	0.913	1.025	1.100	1.221	1.033	0.824	0.835	0.850	1.022	0.895	0.907	0.996	1.248	1.203	1.040	1.023	1.029	0.955	0.865	0.749	1.341	4.542
620.0	46.85	49.79	40.61	32.02	20.95	21.61	22.76	25.08	29.24	32.76	40.43	66.37	62.57	32.28	21.24	17.10	59.17	607.3	365.9	7.725	3.681	3.395	3.401	2.835	3.124	2.879	2.848	2.607	2.835	2.561	2.671	2.399	2.338	2.244	2.402	2.085	1.910	1.811	1.678	1.552	1.532	1.392	1.355	1.279	1.132	1.275	1.072	1.050	1.033	0.876	0.780	0.821	0.866	0.728	0.711	0.814	0.848	0.818	1.132	1.052	0.770	0.833	0.822	0.864	0.894	0.965	0.973	1.140	1.208	0.978	0.925	0.807	0.784	0.715	0.632	0.801	1.422
625.0	48.38	45.09	40.74	29.56	20.87	20.79	22.34	22.82	27.58	33.37	37.22	53.96	68.72	34.22	20.21	13.72	19.77	266.0	660.5	33.16	3.552	3.315	2.933	2.187	2.587	2.455	2.322	2.492	2.456	2.381	2.226	2.150	2.261	1.936	2.167	1.770	1.719	1.652	1.559	1.454	1.352	1.382	1.144	1.083	1.041	1.049	1.045	0.904	0.864	0.783	0.706	0.706	0.701	0.628	0.612	0.736	0.642	0.684	0.893	0.958	0.879	0.840	0.772	0.709	0.787	0.830	0.782	0.891	0.978	1.114	0.862	0.775	0.774	0.698	0.658	0.582	0.754
630.0	52.59	47.18	38.52	24.78	20.69	19.13	20.54	22.01	27.08	31.74	35.48	42.67	61.15	41.52	20.29	13.19	11.97	71.25	529.5	288.6	6.546	2.840	2.628	2.131	2.096	2.156	2.142	1.972	2.011	2.208	1.891	1.921	1.818	1.500	1.606	1.633	1.349	1.506	1.382	1.189	1.130	1.078	1.005	0.973	0.910	0.927	0.871	0.825	0.744	0.692	0.590	0.675	0.609	0.661	0.559	0.599	0.595	0.588	0.697	0.837	0.887	0.758	0.671	0.600	0.678	0.648	0.752	0.883	0.798	0.930	0.800	0.718	0.604	0.616	0.609	0.497	0.585
635.0	52.37	48.03	34.44	22.99	21.75	18.80	20.15	21.40	25.53	30.50	33.92	38.90	47.77	50.77	23.20	13.28	10.80	21.27	170.0	565.6	49.59	2.695	2.185	1.954	1.682	1.717	1.682	1.472	1.635	1.718	1.644	1.650	1.493	1.373	1.393	1.232	1.089	1.201	1.177	0.907	0.965	0.910	0.823	0.846	0.698	0.787	0.696	0.598	0.656	0.590	0.481	0.508	0.439	0.484	0.509	0.465	0.512	0.543	0.575	0.667	0.758	0.685	0.715	0.569	0.620	0.575	0.661	0.646	0.731	0.663	0.742	0.834	0.608	0.493	0.515	0.443	0.428
640.0	46.14	48.24	33.26	22.18	19.12	19.23	19.17	20.27	25.66	29.44	34.28	36.04	38.34	51.60	28.71	13.75	11.15	10.95	46.28	479.4	230.1	4.106	2.184	1.828	1.603	1.591	1.445	1.454	1.410	1.279	1.533	1.371	1.188	1.095	1.209	1.062	1.036	1.040	1.008	0.788	0.874	0.886	0.780	0.873	0.670	0.737	0.558	0.622	0.594	0.561	0.509	0.546	0.426	0.530	0.476	0.405	0.431	0.535	0.494	0.558	0.690	0.665	0.616	0.619	0.563	0.561	0.659	0.564	0.522	0.621	0.654	0.742	0.602	0.504	0.477	0.516	0.414
645.0	38.97	44.48	32.52	23.64	15.81	20.15	18.08	20.54	24.28	27.49	32.71	34.75	34.55	45.62	34.07	16.01	11.14	8.826	15.34	232.8	450.9	16.41	2.111	1.708	1.615	1.450	1.352	1.361	1.421	1.390	1.166	1.071	1.232	1.043	0.970	1.029	1.016	0.914	0.927	0.800	0.788	0.788	0.691	0.664	0.599	0.678	0.558	0.531	0.578	0.529	0.441	0.465	0.356	0.481	0.431	0.454	0.383	0.545	0.471	0.481	0.542	0.540	0.653	0.565	0.450	0.636	0.660	0.545	0.528	0.519	0.529	0.503	0.575	0.502	0.480	0.496	0.444
650.0	36.42	43.99	37.20	25.27	17.09	19.24	20.10	18.10	23.17	27.45	32.23	36.01	33.83	37.32	40.12	17.04	11.91	8.190	8.028	71.23	494.6	63.15	2.159	1.478	1.541	1.404	1.185	1.366	1.342	1.226	1.239	0.997	0.928	0.968	0.917	0.844	0.819	0.825	0.867	0.751	0.744	0.674	0.633	0.621	0.563	0.478	0.547	0.479	0.495	0.461	0.375	0.398	0.360	0.456	0.391	0.370	0.365	0.389	0.420	0.386	0.491	0.448	0.603	0.550	0.459	0.504	0.493	0.510	0.555	0.526	0.524	0.482	0.511	0.604	0.520	0.439	0.430
