Sample:	'1
File name:	w092301–§’Ú«≈.FD3
Run date:	'11:16:10, 09/24/2024
Operator:	horiz
Comment:	'

Instrument
Model:	F-2700 FL Spectrophotometer
Serial number:	23B8-004
ROM Version:	4J14000 07

Instrument parameters
Measurement type:	3-D scan
Data mode:	Fluorescence
EX  Start WL:	220.0 nm
EX  End WL:	600.0 nm
EX Sampling interval:	5.0 nm
EM  Start WL:	230.0 nm
EM  End WL:	650.0 nm
EM Sampling interval:	5.0 nm
Scan speed:	12000 nm/min
EX Slit:	5.0 nm
EM Slit:	5.0 nm
PMT Voltage:	700 V
Response:	Auto 
Corrected spectra:	Off
Contour interval:	50.000

Peak integration
Integration method:	Rectangular
Sensitivity:	1
Threshold:	1.000

Peaks
No.	ApexEX/EM(nm)	Height(Data)
1	225.0/615.0	102.1
2	225.0/625.0	98.48
3	230.0/345.0	6056
4	230.0/605.0	105.5
5	240.0/265.0	266.8
6	245.0/270.0	264.0
7	250.0/275.0	361.4
8	255.0/280.0	476.1
9	265.0/585.0	199.9
10	275.0/330.0	4711
11	275.0/615.0	272.5
12	280.0/335.0	4786
13	280.0/415.0	9821
14	280.0/430.0	9242
15	280.0/625.0	236.9
16	345.0/415.0	7180
17	475.0/345.0	20.45
18	505.0/275.0	2.638
19	505.0/440.0	27.38
20	510.0/280.0	2.957
21	510.0/435.0	26.99
22	565.0/335.0	22.78
23	580.0/415.0	37.75

Wavelength data
No.	EX/EM(nm)	Height(Data)	

Data points
	220.0	225.0	230.0	235.0	240.0	245.0	250.0	255.0	260.0	265.0	270.0	275.0	280.0	285.0	290.0	295.0	300.0	305.0	310.0	315.0	320.0	325.0	330.0	335.0	340.0	345.0	350.0	355.0	360.0	365.0	370.0	375.0	380.0	385.0	390.0	395.0	400.0	405.0	410.0	415.0	420.0	425.0	430.0	435.0	440.0	445.0	450.0	455.0	460.0	465.0	470.0	475.0	480.0	485.0	490.0	495.0	500.0	505.0	510.0	515.0	520.0	525.0	530.0	535.0	540.0	545.0	550.0	555.0	560.0	565.0	570.0	575.0	580.0	585.0	590.0	595.0	600.0
230.0	37.15	615.8	1467	362.7	22.55	8.336	7.420	6.688	6.037	5.766	5.927	5.460	5.436	5.020	4.245	3.388	3.028	2.626	2.410	2.330	2.227	2.149	2.250	2.201	2.184	2.018	2.000	1.928	1.912	1.727	1.574	1.325	1.176	1.015	0.901	0.818	0.747	0.634	0.573	0.513	0.491	0.499	0.443	0.456	0.432	0.419	0.726	2.372	3.700	2.859	1.127	0.464	0.328	0.344	0.324	0.343	0.332	0.347	0.349	0.336	0.323	0.328	0.357	0.337	0.335	0.321	0.323	0.351	0.323	0.356	0.348	0.370	0.361	0.328	0.359	0.338	0.360
235.0	58.09	185.8	1239	1549	444.1	30.01	7.592	7.613	6.228	5.899	5.588	5.935	5.786	5.197	3.938	3.230	3.195	2.419	2.587	2.405	2.141	2.193	2.258	2.564	2.268	2.216	1.909	1.833	1.857	1.740	1.635	1.344	1.120	1.082	0.941	0.796	0.760	0.599	0.526	0.514	0.458	0.469	0.436	0.508	0.442	0.426	0.472	0.859	1.676	3.032	4.778	5.159	2.511	0.788	0.289	0.321	0.363	0.378	0.343	0.303	0.321	0.309	0.371	0.327	0.339	0.357	0.333	0.360	0.333	0.322	0.330	0.326	0.287	0.344	0.361	0.406	0.410
240.0	74.81	90.94	396.2	1525	2006	333.5	18.75	8.528	6.465	6.046	5.344	5.854	5.655	5.056	4.239	3.333	2.989	2.808	2.435	2.021	2.138	2.146	1.963	2.235	2.155	2.035	2.025	1.897	1.939	1.761	1.748	1.351	1.184	1.042	0.904	0.758	0.761	0.690	0.521	0.606	0.501	0.496	0.432	0.421	0.588	0.520	0.480	0.445	0.697	1.112	2.750	6.785	8.436	6.085	2.284	0.534	0.343	0.376	0.356	0.366	0.397	0.333	0.327	0.343	0.346	0.373	0.355	0.353	0.359	0.353	0.317	0.326	0.330	0.292	0.390	0.395	0.400
245.0	66.12	109.5	128.9	566.1	2428	1779	243.8	11.79	7.810	7.247	6.532	6.632	5.915	5.409	4.355	3.871	3.125	2.677	2.501	2.377	2.042	2.291	2.288	2.206	2.183	1.972	2.137	2.101	1.819	1.765	1.697	1.485	1.068	1.002	1.055	0.816	0.711	0.568	0.625	0.565	0.575	0.459	0.494	0.447	0.529	0.494	0.699	0.624	0.515	0.507	0.880	2.505	6.029	10.11	10.30	5.483	1.607	0.407	0.380	0.350	0.325	0.342	0.316	0.348	0.353	0.382	0.367	0.320	0.356	0.366	0.351	0.341	0.356	0.355	0.360	0.379	0.358
250.0	39.14	93.24	150.0	188.9	813.2	1910	2289	875.6	48.38	8.315	7.072	6.610	6.467	5.792	4.883	3.742	3.302	2.821	2.580	2.371	2.285	2.462	2.260	2.123	2.293	1.981	2.362	1.999	1.966	1.872	1.746	1.396	1.193	1.068	0.933	0.812	0.758	0.604	0.566	0.539	0.544	0.447	0.474	0.456	0.476	0.500	0.581	0.701	0.822	0.666	0.570	0.905	1.738	3.388	6.569	9.741	12.23	10.73	6.007	1.826	0.467	0.406	0.322	0.355	0.366	0.414	0.345	0.345	0.336	0.343	0.357	0.358	0.373	0.351	0.338	0.381	0.354
255.0	31.52	42.61	122.0	211.6	244.9	498.5	1897	4415	1140	41.05	9.184	7.957	6.591	6.255	4.721	3.878	3.412	2.888	2.677	2.808	2.367	2.464	2.401	2.431	2.340	2.228	2.267	2.330	2.102	1.848	1.729	1.479	1.195	1.162	1.058	0.810	0.760	0.598	0.527	0.505	0.499	0.607	0.436	0.454	0.482	0.478	0.504	0.485	0.591	0.723	1.006	1.110	0.887	1.078	1.794	2.552	4.677	11.05	18.73	18.83	9.152	2.001	0.419	0.403	0.395	0.361	0.364	0.394	0.343	0.360	0.388	0.385	0.369	0.339	0.374	0.357	0.324
260.0	31.20	30.91	57.12	194.6	222.2	149.8	585.7	3945	4340	237.6	23.75	9.544	7.371	7.315	5.044	4.817	3.393	3.226	2.866	2.494	2.355	2.403	2.537	2.399	2.483	2.478	2.387	2.214	1.955	1.965	1.674	1.542	1.315	1.196	0.965	0.929	0.770	0.628	0.518	0.515	0.469	0.564	0.539	0.531	0.468	0.469	0.416	0.417	0.457	0.511	0.783	1.472	1.491	0.827	0.729	0.856	1.511	3.175	8.272	18.52	25.80	19.37	7.337	1.138	0.437	0.365	0.395	0.403	0.366	0.373	0.385	0.446	0.392	0.391	0.382	0.384	0.424
265.0	33.89	29.81	35.95	97.45	266.8	165.9	160.4	1356	4888	3645	188.5	13.71	8.075	7.249	5.633	4.971	3.883	3.517	2.971	2.422	2.576	2.384	2.291	2.720	2.287	2.454	2.433	2.183	1.974	2.078	1.694	1.549	1.357	1.191	0.927	0.938	0.712	0.683	0.616	0.523	0.477	0.554	0.483	0.501	0.539	0.493	0.411	0.465	0.392	0.389	0.483	1.021	1.259	1.459	1.148	0.669	0.752	1.091	2.277	5.570	13.62	25.87	29.96	17.81	4.456	0.625	0.426	0.431	0.390	0.316	0.402	0.392	0.379	0.362	0.360	0.405	0.423
270.0	41.59	39.26	39.07	45.32	133.8	264.0	197.7	352.0	1568	3778	3986	730.5	45.14	8.866	7.177	5.150	4.658	3.692	3.113	2.820	2.572	2.663	2.604	2.628	2.520	2.488	2.477	2.051	2.160	2.071	1.820	1.657	1.366	1.256	1.043	0.971	0.735	0.696	0.641	0.607	0.514	0.540	0.532	0.528	0.499	0.517	0.452	0.477	0.400	0.371	0.372	0.517	0.616	0.910	1.435	1.647	1.515	0.928	0.971	1.641	3.561	7.539	14.65	22.97	27.00	26.12	13.56	4.223	0.715	0.438	0.436	0.392	0.419	0.433	0.426	0.363	0.452
275.0	89.34	93.01	94.32	59.41	62.22	138.7	361.4	280.8	422.3	983.2	3329	6481	1012	51.13	9.445	6.469	6.089	4.014	3.678	3.147	3.164	2.739	2.654	2.724	2.447	2.588	2.241	2.164	2.220	1.983	1.858	1.547	1.333	1.315	1.204	0.944	0.905	0.719	0.641	0.606	0.531	0.519	0.546	0.481	0.591	0.634	0.528	0.614	0.619	0.529	0.445	0.489	0.504	0.593	0.685	0.968	1.983	2.638	2.010	1.149	1.316	2.225	3.894	5.906	8.366	18.08	35.69	32.09	20.96	4.771	0.634	0.459	0.443	0.444	0.408	0.411	0.405
280.0	141.9	169.1	169.5	112.3	78.94	98.83	266.2	476.1	285.5	357.6	1058	4936	6380	750.9	24.85	7.890	6.791	4.416	3.884	3.508	3.131	2.731	2.814	2.787	2.849	2.614	2.442	2.328	2.204	2.060	2.167	1.437	1.468	1.380	1.272	1.087	0.871	0.842	0.676	0.711	0.600	0.585	0.592	0.676	0.654	0.689	0.618	0.835	0.794	0.732	0.605	0.636	0.569	0.576	0.602	0.742	1.054	1.864	2.957	2.858	1.673	1.274	1.732	2.434	2.880	5.176	12.51	26.75	45.70	30.93	15.83	2.447	0.572	0.461	0.428	0.464	0.437
285.0	211.6	289.0	303.0	194.2	130.2	117.8	182.0	469.4	532.8	307.1	515.3	1670	6282	5646	115.5	13.54	7.770	5.292	4.519	4.236	3.519	3.045	2.849	2.930	2.747	2.812	2.817	2.362	2.350	2.336	2.158	1.552	1.434	1.462	1.241	1.117	1.093	0.943	0.745	0.800	0.707	0.719	0.655	0.713	0.792	0.917	1.013	1.196	1.073	1.012	0.736	0.878	0.771	0.820	0.699	0.745	0.900	1.254	1.934	3.122	3.522	2.569	1.961	1.973	2.414	2.728	4.391	7.997	18.66	35.37	49.96	28.04	10.35	1.180	0.453	0.474	0.479
290.0	336.7	494.7	525.6	372.3	242.5	210.1	251.6	387.1	708.9	823.8	754.6	961.9	2189	4993	5233	435.8	34.29	8.040	5.223	4.336	3.751	3.330	3.151	3.257	2.885	2.876	2.702	2.513	2.245	2.216	2.190	1.795	1.588	1.474	1.329	1.261	1.086	0.953	0.780	0.847	0.729	0.748	0.843	0.912	1.017	1.126	1.372	1.750	1.785	1.566	1.349	1.334	1.234	1.119	1.154	1.147	1.245	1.502	1.834	2.236	3.073	3.923	4.400	4.233	3.760	3.539	4.007	4.411	6.937	11.06	19.74	28.57	37.42	34.46	18.45	8.192	1.450
295.0	473.4	759.3	786.9	569.7	392.6	346.3	394.8	517.7	739.5	1228	1489	1284	1350	1638	3140	6237	681.7	39.96	8.185	5.407	4.413	3.771	3.479	3.550	3.251	2.996	2.769	2.684	2.326	2.453	2.097	1.512	1.675	1.593	1.417	1.340	1.285	1.102	0.871	0.990	0.913	0.832	1.033	1.074	1.264	1.489	1.748	2.531	2.455	2.378	2.070	1.981	1.727	1.516	1.735	1.699	1.945	2.031	2.498	2.716	3.107	3.706	4.567	6.387	7.728	6.866	5.867	5.832	6.098	6.767	7.847	9.042	10.75	16.45	34.03	50.64	30.06
300.0	610.2	972.9	1027	781.4	551.7	512.1	625.9	816.3	1097	1577	2270	1719	1509	1258	1323	4424	5657	518.9	27.42	7.803	5.488	4.357	3.816	3.887	3.421	3.202	2.826	2.898	2.785	2.682	2.187	1.933	1.732	1.682	1.517	1.384	1.339	1.094	0.915	0.957	0.960	1.037	1.196	1.188	1.603	1.887	2.221	2.980	3.124	3.029	2.719	2.824	2.360	2.276	2.242	2.427	2.742	3.286	3.690	4.062	4.494	5.298	6.649	7.388	9.625	11.13	10.77	9.630	9.016	8.407	7.562	6.415	6.310	7.065	11.50	26.28	46.04
305.0	753.0	1197	1286	1011	770.7	793.7	1007	1330	1783	2202	3162	3505	2797	1974	1498	1958	6497	4641	79.28	14.22	7.449	5.216	4.764	4.211	3.773	3.831	3.182	3.160	3.135	2.658	2.208	1.950	1.820	1.569	1.404	1.471	1.419	1.226	1.099	1.041	1.054	1.190	1.310	1.523	1.705	2.333	2.918	3.809	3.917	3.687	3.320	3.448	3.329	3.157	3.287	3.584	4.173	5.030	5.701	6.247	7.553	8.622	10.18	11.44	13.26	14.33	15.89	16.61	15.54	13.52	11.54	10.22	8.394	8.590	8.193	11.14	18.37
310.0	895.2	1395	1565	1272	1013	1048	1333	1738	2216	2867	3625	4159	3913	2767	2007	1572	2734	4318	4331	1100	25.28	7.217	5.666	4.928	4.208	4.083	3.713	3.421	3.154	2.895	2.469	2.181	1.846	1.797	1.606	1.622	1.436	1.321	1.348	1.220	1.186	1.232	1.437	1.732	2.001	2.758	3.544	4.370	4.821	4.500	4.143	4.394	4.139	4.043	4.189	4.521	5.539	6.625	7.583	8.262	9.327	10.70	12.55	14.26	15.60	16.96	17.94	19.19	19.96	18.89	16.31	13.88	12.24	11.58	9.687	9.379	10.21
315.0	1053	1654	1896	1526	1257	1259	1582	1977	2452	3151	3911	4394	4263	3572	2525	1747	1812	1648	2573	5083	481.3	25.60	7.766	6.034	4.828	4.383	4.146	3.608	3.292	3.008	3.061	2.375	2.055	1.853	1.832	1.809	1.501	1.364	1.407	1.252	1.196	1.338	1.476	1.932	2.470	3.201	4.157	5.498	5.719	5.238	4.741	5.124	5.149	5.021	5.023	5.365	6.406	7.798	8.740	9.145	10.29	11.76	13.85	15.69	16.59	17.66	19.13	20.00	20.99	20.47	19.75	18.63	15.81	13.79	12.22	10.61	9.628
320.0	1241	2102	2378	1839	1434	1401	1694	2109	2607	3340	4084	4581	4457	3946	3099	2041	1766	1143	871.8	3331	3984	385.5	16.99	7.872	5.868	5.018	4.514	3.815	3.565	3.414	3.053	2.596	2.228	2.017	1.779	1.640	1.608	1.389	1.451	1.314	1.251	1.627	1.731	1.967	2.917	3.996	5.115	6.790	7.088	6.315	5.518	6.047	5.734	5.667	5.555	5.924	7.147	8.233	9.348	9.773	10.94	12.42	14.35	16.50	17.59	19.09	20.29	21.42	21.75	21.63	20.59	19.91	19.01	17.44	14.35	12.35	10.68
325.0	1517	2779	3217	2511	1742	1539	1783	2205	2660	3377	4140	4681	4585	4028	3445	2376	1838	1114	535.0	1072	3806	3426	59.89	14.09	7.991	6.007	4.999	4.322	3.726	3.521	2.987	2.693	2.166	2.090	1.847	1.786	1.579	1.433	1.489	1.467	1.353	1.503	1.919	2.353	3.442	4.929	6.740	8.367	9.418	8.755	7.953	8.136	6.995	6.364	6.231	6.426	7.774	8.774	9.563	10.19	10.83	12.50	14.34	16.78	17.77	19.07	20.62	21.24	21.80	22.09	21.66	20.10	19.32	19.51	16.90	13.88	11.51
330.0	1901	3551	4521	3936	2629	1932	1931	2288	2709	3407	4152	4711	4693	4174	3530	2761	2102	1285	679.3	621.7	1319	3125	3367	951.2	28.65	9.325	5.957	4.916	4.376	3.946	3.321	2.746	2.320	2.052	1.917	1.835	1.652	1.488	1.520	1.380	1.554	1.712	2.027	2.834	3.857	6.043	8.029	11.25	12.73	12.75	11.80	12.68	10.66	9.036	8.158	7.416	8.268	8.841	9.694	10.96	11.50	12.68	14.32	16.65	17.70	19.55	20.72	21.64	22.30	22.48	21.85	21.06	20.12	19.72	18.14	16.57	14.47
335.0	2107	4167	5584	5249	3899	2649	2203	2408	2774	3445	4180	4691	4786	4358	3724	2952	2510	1691	1044	869.9	918.1	1222	2484	4492	411.6	31.88	9.756	6.353	5.164	4.572	3.723	2.945	2.636	2.178	1.955	1.962	1.737	1.735	1.569	1.676	1.564	1.757	2.181	3.027	4.500	6.600	9.302	13.25	15.30	15.84	15.90	17.70	15.95	13.63	11.39	9.228	9.623	9.567	10.63	11.51	11.77	13.09	14.49	16.26	17.02	19.25	20.13	21.88	22.58	22.78	22.39	21.86	21.11	20.41	18.99	16.77	16.58
340.0	2298	4458	6049	5881	4411	2928	2334	2442	2785	3369	4092	4579	4730	4372	3782	3024	2582	1995	1304	1086	979.1	916.3	1220	3375	3316	332.6	21.34	8.364	5.643	4.784	3.951	3.390	2.882	2.513	2.056	1.882	1.875	1.680	1.710	1.713	1.638	1.944	2.390	3.001	4.587	6.929	9.480	13.78	16.75	16.98	17.58	19.88	18.26	15.42	12.43	10.47	9.941	9.669	10.85	11.18	11.56	12.86	14.69	16.10	17.06	18.70	19.88	20.85	21.70	22.04	22.28	22.20	22.14	20.98	19.07	17.88	16.79
345.0	2267	4364	6056	5933	4536	3005	2355	2430	2755	3292	3921	4430	4540	4272	3738	3033	2543	2113	1577	1258	1104	973.7	957.1	1431	3564	2855	55.22	14.15	7.325	5.451	3.978	3.446	2.983	2.493	2.094	1.839	1.865	1.722	1.515	1.569	1.757	1.939	2.314	3.161	4.639	6.639	9.345	13.74	16.86	17.30	18.25	20.45	18.51	15.96	13.42	10.42	10.11	9.750	10.34	10.99	11.50	12.85	14.07	15.54	16.64	18.01	19.19	20.43	21.07	21.44	21.97	21.17	21.26	20.28	18.89	17.56	16.69
350.0	2118	3993	5703	5830	4644	3153	2449	2449	2706	3178	3700	4129	4268	4063	3622	3040	2586	2166	1867	1608	1348	1174	1062	968.4	1402	2686	2790	220.0	21.30	7.955	4.918	3.830	3.211	2.591	2.244	2.077	1.788	1.740	1.538	1.546	1.717	1.916	2.287	3.046	4.454	6.437	8.993	12.93	15.81	16.55	17.43	20.24	18.52	16.31	13.45	10.83	10.85	10.37	11.02	10.91	11.73	12.51	13.61	14.97	15.79	16.81	17.83	19.13	19.74	20.44	20.63	20.18	20.31	19.77	18.64	17.45	17.02
355.0	1875	3640	5250	5557	4579	3273	2550	2525	2750	3107	3536	3884	4012	3864	3523	3059	2684	2318	2035	1956	1703	1424	1259	1015	838.5	930.1	1976	3134	354.8	22.47	8.224	4.939	3.588	2.849	2.359	2.059	1.978	1.648	1.670	1.491	1.597	1.827	2.180	2.839	4.085	6.037	8.461	11.83	14.48	15.43	15.99	19.32	18.06	16.22	13.71	11.51	11.28	10.71	11.33	11.10	12.09	12.22	13.30	14.52	15.42	16.13	17.01	18.05	18.65	18.78	19.40	19.34	19.41	19.54	18.06	17.53	17.84
360.0	1753	3299	4808	5154	4376	3249	2628	2608	2780	3081	3453	3732	3841	3728	3447	3049	2751	2449	2205	2111	2000	1672	1446	1157	857.2	606.0	735.0	2590	2864	282.7	16.25	7.228	4.260	3.588	2.559	2.018	1.967	1.680	1.677	1.489	1.574	1.799	2.103	2.681	3.905	5.759	7.744	10.91	13.59	13.93	14.93	17.70	17.15	15.71	13.48	11.42	11.29	10.92	11.55	11.26	12.24	12.74	13.41	14.42	15.26	15.65	16.70	17.01	18.26	17.96	18.85	18.79	17.91	19.35	18.00	18.04	17.26
365.0	1636	3097	4493	4855	4272	3278	2746	2736	2864	3162	3422	3623	3703	3614	3382	3059	2824	2587	2407	2287	2215	1998	1671	1351	1026	700.3	496.5	958.4	3114	2555	48.94	13.58	6.745	4.273	2.925	2.455	2.019	1.830	1.618	1.731	1.696	1.731	2.379	2.603	3.748	5.367	6.983	9.735	12.54	13.25	13.84	17.34	16.73	15.12	13.68	11.59	11.89	11.47	11.99	12.20	12.33	13.14	14.02	14.72	15.38	15.78	15.97	16.35	17.25	17.58	18.09	18.30	18.23	18.47	18.25	17.59	17.68
370.0	1563	2826	4132	4598	4223	3386	2949	2949	3080	3316	3444	3535	3578	3521	3349	3120	2963	2817	2686	2593	2488	2369	2096	1702	1343	977.5	664.5	594.6	1155	2662	2418	197.6	22.40	8.830	4.771	3.128	2.437	2.054	1.744	1.758	1.602	1.815	2.254	2.644	3.400	4.870	6.607	9.236	11.40	12.31	13.67	16.29	15.99	15.03	13.92	12.21	12.95	12.25	12.73	13.21	13.78	14.24	14.64	15.61	15.66	15.59	15.69	16.10	16.47	17.08	17.35	17.45	18.13	18.23	17.95	17.83	18.19
375.0	1461	2578	3724	4357	4089	3522	3092	3138	3215	3430	3475	3482	3520	3465	3326	3157	3053	2985	2934	2875	2790	2660	2489	2145	1737	1345	996.5	764.5	712.9	932.8	1944	2775	302.8	26.64	10.34	5.689	3.597	2.449	1.925	1.802	1.787	1.914	2.271	2.483	3.209	4.629	6.280	8.337	10.58	11.39	12.55	15.25	15.92	15.00	14.06	12.78	13.51	13.51	13.51	13.65	14.74	14.86	15.27	16.13	15.87	15.99	15.34	15.53	16.13	16.50	16.77	18.05	17.45	18.31	17.85	18.20	18.69
380.0	1413	2497	3641	4178	4009	3564	3217	3247	3332	3488	3496	3500	3514	3464	3336	3175	3118	3076	3071	3060	2997	2879	2723	2497	2100	1684	1327	1038	819.1	684.1	830.4	2462	2428	232.2	21.93	10.85	5.783	3.411	2.551	2.059	1.885	2.088	2.239	2.563	3.406	4.602	5.909	8.152	9.495	10.91	11.73	14.80	15.41	14.52	14.33	13.11	13.83	13.86	14.09	14.07	14.83	15.04	15.71	15.97	15.61	15.63	15.43	15.88	16.14	16.89	16.75	17.61	17.16	18.43	18.11	18.28	19.19
385.0	1376	2391	3511	4072	3977	3629	3355	3374	3448	3587	3580	3556	3603	3536	3413	3235	3174	3153	3192	3217	3200	3126	2982	2808	2518	2084	1713	1396	1110	849.7	679.9	1044	2756	1901	43.19	21.88	11.41	6.055	3.152	2.380	1.958	2.236	2.348	2.711	3.426	4.537	5.760	7.834	9.494	10.47	11.54	14.47	14.89	15.09	14.58	13.50	14.12	14.33	14.52	15.06	15.00	15.76	15.64	16.18	15.95	15.68	15.58	15.69	16.40	17.01	17.22	17.41	18.02	18.53	18.55	18.77	19.51
390.0	1427	2382	3467	4033	4108	3818	3625	3683	3758	3898	3895	3905	3987	3926	3752	3485	3319	3315	3381	3483	3528	3535	3470	3342	3152	2832	2423	2070	1729	1372	1036	829.6	1169	2014	1809	164.8	32.10	19.26	8.159	3.948	2.565	2.408	2.594	2.927	3.625	4.558	5.925	7.912	9.887	10.60	11.94	14.73	15.42	15.72	15.28	14.75	15.55	15.69	15.79	16.27	16.19	16.82	17.06	17.68	17.45	17.00	16.90	16.60	17.27	18.55	18.91	19.49	19.60	20.07	19.94	19.83	20.07
395.0	1435	2384	3425	4057	4232	4073	3964	4064	4243	4551	4707	4841	4934	4858	4545	4006	3629	3520	3622	3782	3941	4079	4162	4110	3967	3778	3480	3088	2681	2225	1736	1267	989.0	954.0	1648	2227	269.7	66.62	23.68	9.007	4.486	3.209	3.161	3.348	4.050	4.948	6.245	8.588	10.12	11.01	12.24	15.44	15.99	17.09	16.69	16.59	17.86	17.68	17.50	17.97	18.22	18.25	18.99	19.77	19.35	19.78	18.94	19.38	20.33	21.85	21.31	22.71	22.80	23.19	22.72	22.52	22.68
400.0	1470	2445	3422	4074	4318	4287	4275	4459	4788	5331	5765	6101	6259	6105	5536	4677	4015	3759	3839	4055	4326	4584	4815	4938	4923	4772	4546	4137	3578	3118	2510	1873	1344	1006	1001	2188	1924	240.9	52.26	17.37	7.380	4.424	3.854	3.847	4.583	5.489	6.787	8.965	10.61	11.14	12.79	16.49	17.16	18.23	18.49	18.39	19.58	19.66	19.59	19.63	20.26	20.40	21.44	22.43	21.89	22.10	22.10	22.88	23.77	25.33	25.73	26.77	26.94	27.29	26.17	25.36	25.48
405.0	1515	2483	3470	4164	4396	4517	4589	4878	5400	6236	7070	7690	7861	7585	6751	5515	4475	4020	4070	4341	4724	5125	5514	5787	5898	5836	5640	5270	4696	4091	3367	2596	1896	1397	1107	1283	2247	1517	173.9	30.91	11.81	6.016	4.746	4.372	5.033	6.203	7.098	9.639	11.26	12.08	13.67	17.56	18.91	19.78	20.60	20.07	21.25	21.45	21.86	21.96	21.75	22.39	22.63	23.79	24.66	24.56	25.67	26.42	27.57	29.62	30.56	31.07	32.05	31.87	30.23	28.72	28.33
410.0	1576	2539	3499	4195	4517	4697	4929	5362	6043	7164	8383	9239	9475	9078	7988	6347	4897	4256	4266	4589	5056	5585	6132	6594	6841	6861	6696	6370	5839	5137	4320	3415	2554	1917	1494	1236	1264	1668	1393	176.0	23.57	9.764	6.583	5.337	5.694	6.760	7.760	10.20	12.10	13.02	14.49	19.11	20.67	21.53	22.37	22.25	23.82	24.12	23.43	24.35	23.75	23.87	24.85	26.26	27.73	28.04	29.08	30.43	32.02	34.16	35.10	35.85	36.53	36.20	34.30	32.61	30.70
415.0	1628	2557	3421	4157	4530	4750	5102	5502	6193	7365	8626	9597	9821	9375	8263	6474	4912	4221	4228	4555	5038	5627	6240	6780	7099	7180	7051	6735	6280	5618	4741	3786	2887	2188	1702	1319	993.8	779.5	1128	1479	218.0	18.78	9.259	6.603	6.287	7.031	8.072	10.40	12.07	12.67	14.46	19.10	21.23	21.89	23.11	22.91	24.14	24.62	24.45	24.83	25.05	24.80	25.74	26.65	27.69	28.28	30.21	31.02	33.15	35.16	36.55	36.89	37.75	37.11	34.79	33.08	31.21
420.0	1609	2512	3369	4020	4446	4744	5078	5478	6065	7155	8368	9278	9480	9072	7977	6253	4757	4067	4058	4375	4863	5440	6045	6598	6948	7054	6951	6673	6230	5646	4829	3856	2954	2256	1760	1345	941.5	573.5	487.2	1218	1281	164.7	13.52	7.932	6.748	7.398	8.100	10.37	11.70	12.72	14.18	18.57	20.75	21.55	22.28	23.10	24.32	24.21	24.74	25.40	24.40	24.54	24.99	25.90	26.93	27.30	29.92	30.30	31.68	34.28	35.33	35.90	36.65	36.19	34.51	32.04	30.42
425.0	1536	2443	3335	3955	4418	4771	5099	5492	5972	6964	8102	8988	9198	8819	7755	6077	4610	3938	3922	4221	4679	5235	5837	6395	6763	6888	6814	6556	6157	5605	4855	3898	3002	2312	1811	1384	960.0	560.7	327.5	463.4	1301	1015	33.79	11.08	8.015	7.587	8.110	10.18	11.55	12.48	13.74	18.25	20.06	20.98	22.31	22.72	24.85	24.67	25.69	24.95	24.58	24.74	24.85	25.59	26.36	27.29	28.61	30.29	31.44	33.49	34.24	35.92	36.46	35.65	33.85	31.74	28.87
430.0	1507	2332	3195	3889	4437	4849	5250	5659	6076	7027	8156	9035	9242	8850	7750	6061	4569	3868	3819	4079	4517	5058	5667	6251	6644	6808	6768	6553	6162	5636	4934	4045	3153	2454	1954	1517	1068	638.1	350.5	251.4	450.9	950.8	988.8	136.7	16.46	9.478	8.751	10.38	11.81	12.16	13.62	18.39	20.30	21.94	22.72	23.60	25.43	25.75	25.97	25.13	25.02	24.69	24.90	25.28	26.01	26.70	28.31	29.86	31.41	33.56	34.36	35.45	35.52	35.06	33.27	31.20	28.96
435.0	1529	2257	3136	3844	4486	4975	5453	5845	6229	7052	8151	9019	9220	8792	7688	6043	4521	3796	3720	3934	4335	4835	5455	6044	6445	6627	6625	6447	6098	5606	4925	4111	3287	2588	2086	1651	1192	733.3	420.3	249.6	218.8	294.5	699.9	1211	212.5	18.19	10.44	11.36	11.68	12.14	13.79	18.57	20.26	22.04	23.59	24.19	26.64	26.50	26.99	26.45	24.77	24.84	25.30	25.42	25.99	26.75	28.01	29.37	31.76	32.59	33.94	35.01	35.54	34.60	32.79	29.94	28.77
440.0	1554	2228	3044	3785	4484	5106	5591	5903	6145	6838	7854	8634	8834	8423	7387	5827	4382	3675	3575	3762	4106	4573	5152	5706	6079	6281	6304	6148	5843	5409	4784	4018	3260	2602	2111	1688	1234	788.0	471.2	281.6	191.5	156.2	240.2	914.9	1158	174.2	14.47	12.31	12.15	12.29	13.73	18.25	20.61	22.15	23.96	25.01	27.08	27.38	26.68	26.31	24.98	24.99	24.33	24.53	25.01	25.50	27.03	28.13	29.79	31.22	32.78	33.56	34.53	32.61	31.06	29.23	27.65
445.0	1579	2204	2957	3742	4432	5080	5565	5840	5938	6409	7296	7973	8130	7801	6819	5438	4133	3492	3385	3531	3814	4225	4737	5242	5604	5798	5829	5706	5442	5066	4503	3802	3109	2530	2062	1653	1235	805.1	503.6	315.9	208.9	144.2	127.5	306.6	1064	1011	30.54	14.32	12.21	12.03	13.66	17.62	19.87	21.44	23.14	24.13	26.89	27.00	25.95	26.06	24.56	23.44	23.29	23.54	23.72	23.69	25.08	26.90	27.90	28.51	30.98	31.14	31.82	30.30	29.27	27.90	25.85
450.0	1445	2315	2849	3567	4320	4969	5450	5615	5518	5769	6392	6932	7065	6755	5959	4810	3717	3172	3086	3175	3358	3680	4121	4544	4873	5045	5081	5002	4789	4497	4026	3437	2825	2337	1940	1565	1187	809.1	532.1	354.9	242.1	168.3	122.8	133.7	333.6	816.1	916.1	300.4	18.91	12.97	13.40	16.88	18.59	20.37	21.73	23.01	25.19	26.06	25.74	24.57	23.72	22.56	21.95	21.76	21.51	21.38	22.42	23.88	25.01	25.96	27.33	27.68	28.23	27.44	26.18	25.56	23.26
455.0	1187	2307	2919	3355	4103	4738	5248	5327	5078	5129	5575	6004	6080	5811	5173	4207	3311	2850	2767	2812	2929	3169	3540	3898	4167	4336	4365	4311	4160	3937	3567	3069	2551	2130	1796	1484	1136	801.2	556.2	389.3	277.8	198.5	143.0	113.2	133.1	228.5	505.4	1067	192.9	20.04	13.90	16.88	17.54	18.98	20.42	21.75	23.66	24.54	24.44	23.44	22.48	20.81	19.89	19.66	19.19	19.31	20.23	20.90	21.38	22.48	23.80	24.39	24.88	23.63	23.38	22.94	20.78
460.0	1062	2056	3063	3192	3859	4536	5003	5051	4758	4720	5068	5442	5493	5220	4663	3810	3036	2627	2539	2555	2634	2837	3156	3464	3711	3851	3895	3859	3745	3551	3247	2815	2357	1988	1680	1419	1112	796.8	565.3	409.6	297.9	218.6	160.2	120.3	100.6	103.8	161.3	652.5	962.9	154.4	18.24	16.80	17.85	18.16	20.17	20.88	22.98	22.74	23.43	22.10	21.18	19.87	18.52	18.26	17.92	17.79	18.52	19.24	19.42	20.30	21.65	22.50	22.22	21.98	20.33	20.24	18.85
465.0	972.1	1706	3102	3334	3656	4270	4740	4793	4467	4330	4649	4955	5012	4752	4235	3478	2801	2433	2333	2325	2373	2543	2828	3105	3324	3454	3491	3477	3384	3218	2957	2584	2191	1851	1580	1339	1075	785.2	566.7	418.7	311.5	234.4	175.3	133.3	102.9	84.57	83.61	204.5	748.2	822.4	130.2	18.94	18.51	17.39	18.99	20.17	22.00	22.18	21.62	20.75	19.65	18.07	17.63	16.90	16.44	16.45	17.18	17.59	18.25	19.32	19.58	20.54	20.27	19.97	19.11	18.40	17.57
470.0	862.8	1461	2526	3834	3404	3874	4291	4291	3978	3803	4018	4281	4298	4070	3635	3012	2454	2137	2043	2027	2041	2172	2393	2635	2815	2921	2966	2953	2886	2758	2554	2248	1935	1647	1417	1208	987.1	754.1	557.6	417.4	321.3	246.6	191.7	146.7	114.8	91.69	75.65	90.83	225.5	536.4	674.5	295.6	23.41	17.11	17.61	17.92	20.27	20.36	19.45	18.87	17.49	16.61	15.72	14.86	14.62	14.63	15.08	15.48	15.68	16.39	17.33	17.63	17.58	17.35	16.53	15.91	15.55
475.0	770.2	1286	1912	3698	3491	3427	3812	3773	3463	3257	3388	3601	3558	3371	3028	2535	2090	1833	1758	1723	1716	1802	1967	2167	2309	2411	2440	2435	2385	2301	2145	1909	1652	1424	1238	1067	876.6	690.4	536.6	410.0	319.7	252.3	200.2	157.5	126.5	101.0	83.44	73.48	91.21	151.3	287.3	726.0	207.7	25.46	16.82	16.79	17.88	17.89	17.09	16.63	15.37	13.97	13.45	12.77	12.36	12.79	12.85	13.02	13.05	13.89	14.81	14.96	14.60	14.50	14.32	13.77	13.41
480.0	712.6	1153	1671	2990	3713	3227	3423	3420	3119	2903	2977	3115	3104	2937	2637	2227	1858	1641	1567	1520	1503	1571	1707	1873	1993	2069	2103	2095	2066	2002	1880	1683	1467	1278	1116	961.9	803.8	637.4	513.2	403.0	316.3	253.6	203.7	166.5	135.2	110.7	91.46	74.98	66.20	69.17	94.30	357.9	735.2	192.8	22.46	16.08	17.08	16.44	16.22	15.22	14.15	12.80	12.21	11.68	11.21	11.05	11.38	11.63	11.52	12.05	13.10	12.64	13.28	12.66	12.98	12.32	11.68
485.0	655.3	1070	1520	2269	3609	3352	3153	3125	2818	2634	2655	2764	2737	2611	2339	1988	1664	1482	1415	1367	1341	1389	1516	1646	1753	1815	1846	1845	1821	1772	1679	1502	1324	1158	1019	884.3	744.8	598.1	486.7	398.6	315.3	252.1	207.4	172.3	142.4	117.8	98.57	80.75	65.87	56.20	53.21	114.1	476.2	718.2	151.6	18.40	16.22	15.76	15.06	14.38	13.43	12.26	11.21	10.73	10.29	10.34	10.08	10.49	10.99	11.18	11.80	12.12	12.10	11.56	11.53	11.39	10.85
490.0	549.7	960.2	1345	1829	2784	3764	2957	2794	2507	2311	2314	2403	2370	2241	2006	1722	1447	1308	1240	1189	1165	1199	1297	1400	1492	1548	1575	1569	1559	1522	1441	1306	1157	1024	906.0	794.5	671.3	551.6	452.5	378.4	313.8	255.4	211.3	177.4	150.6	126.6	107.6	90.70	73.71	61.15	51.81	58.59	142.7	388.7	597.9	305.8	24.25	15.82	14.31	12.83	11.73	11.12	10.04	9.868	9.142	9.155	9.221	9.438	9.707	10.25	10.25	10.12	10.41	10.24	9.863	9.761	9.476
495.0	459.8	855.6	1234	1561	2055	3488	3087	2433	2176	2002	2009	2054	2031	1898	1710	1463	1247	1125	1070	1027	996.9	1013	1097	1183	1259	1295	1317	1322	1315	1289	1227	1120	1002	887.6	791.5	697.0	600.7	499.3	415.0	348.9	294.9	254.8	210.3	179.7	155.6	133.9	116.2	99.52	83.13	68.70	58.20	52.31	63.28	113.2	233.6	659.8	237.5	27.88	13.64	11.93	10.68	9.576	8.900	8.670	7.918	7.790	7.845	8.083	8.394	8.602	8.781	8.466	8.857	8.646	8.770	8.659	8.150
500.0	407.9	753.5	1107	1397	1719	2716	3388	2273	1961	1791	1803	1837	1802	1681	1508	1289	1112	997.6	948.3	908.3	879.9	884.5	961.8	1035	1099	1128	1145	1146	1140	1128	1075	984.9	884.2	788.2	705.9	631.3	544.4	460.8	384.1	325.6	279.6	245.3	210.0	178.1	155.7	136.5	118.8	102.5	88.24	74.65	62.82	53.71	48.52	54.31	77.22	291.9	700.1	221.8	22.31	11.32	9.921	8.861	8.021	7.425	7.303	7.278	7.145	7.139	7.432	7.731	7.779	7.745	8.000	7.716	7.481	7.529	7.651
505.0	378.3	678.7	1002	1265	1523	2022	3305	2348	1741	1609	1613	1623	1593	1483	1326	1148	992.7	889.9	842.2	808.2	777.9	785.9	849.3	913.6	960.2	988.4	1001	1005	1001	986.4	948.0	868.2	783.4	705.2	634.7	567.0	493.8	422.7	354.0	305.2	264.3	229.9	204.7	176.3	152.6	135.1	121.2	104.3	90.29	76.99	66.36	56.39	47.69	43.64	43.08	90.17	377.1	666.1	178.2	15.40	9.631	8.408	7.522	7.271	6.883	6.618	6.923	6.623	7.283	6.834	7.162	7.041	7.026	7.362	6.716	6.698	6.692
510.0	336.9	571.2	859.2	1115	1313	1570	2446	2835	1609	1384	1373	1385	1350	1256	1112	965.9	839.0	755.8	714.7	686.6	656.9	664.5	709.3	758.8	801.7	825.4	830.6	834.9	830.4	821.2	788.9	730.2	663.8	599.1	541.8	487.6	430.2	369.8	316.1	273.0	238.7	209.9	190.4	170.3	149.7	131.4	119.0	103.9	90.62	78.82	68.43	58.61	49.53	43.57	37.56	43.38	108.9	312.3	504.7	243.7	19.44	7.827	7.088	6.365	5.872	5.791	5.883	5.873	6.057	5.813	6.037	6.237	6.131	5.975	5.826	5.923	5.787
515.0	286.4	490.7	714.7	979.7	1115	1273	1596	2850	1894	1179	1152	1153	1124	1043	925.2	803.1	695.9	632.9	599.0	570.0	546.2	551.9	584.6	621.9	657.1	674.8	675.0	672.8	678.6	668.5	648.6	601.8	551.5	500.1	454.6	412.6	365.4	317.5	278.2	241.5	215.1	189.7	170.6	158.0	144.7	127.7	113.8	101.1	87.79	77.67	68.05	58.72	50.24	43.66	36.19	32.80	43.73	85.31	173.2	482.8	234.7	22.07	6.738	5.713	5.159	5.066	4.969	5.041	5.100	5.071	5.136	5.496	5.316	5.043	4.951	4.920	4.743
520.0	258.6	419.0	616.4	826.7	1002	1108	1251	2141	2371	1113	1003	1004	974.6	898.7	791.9	694.1	607.4	550.0	520.7	495.9	472.7	474.5	502.4	536.0	563.4	575.1	576.8	574.5	576.7	572.5	557.2	519.4	476.3	433.7	395.1	361.2	320.1	282.9	247.5	218.1	195.5	174.2	156.0	147.5	137.8	122.9	109.2	97.50	85.28	76.01	67.12	58.81	50.06	43.37	36.74	30.99	29.12	34.80	51.76	201.4	503.1	205.5	15.33	5.613	4.854	4.507	4.602	4.452	4.632	4.434	4.656	4.746	4.480	4.318	4.406	4.214	4.200
525.0	228.9	379.7	537.6	727.7	907.1	975.8	1066	1403	2524	1295	894.9	885.4	856.5	785.1	693.0	607.0	536.0	482.7	459.8	437.1	415.2	414.7	437.6	465.4	489.4	498.6	501.9	497.8	498.2	499.1	485.8	453.4	418.3	381.3	348.4	318.8	285.5	252.8	226.1	198.3	179.1	160.0	144.4	134.2	127.4	119.0	104.7	93.04	82.84	72.86	64.46	57.29	48.86	42.39	35.78	29.78	25.67	23.26	23.85	57.54	252.4	493.5	157.2	8.278	4.619	4.454	4.074	4.007	3.904	4.117	4.024	4.318	3.763	3.780	3.677	3.583	3.711
530.0	201.9	327.2	452.0	607.6	777.9	847.6	888.5	974.4	1720	1934	862.1	757.2	720.2	662.2	584.8	509.7	447.4	410.4	389.8	365.5	350.8	348.8	363.9	388.7	406.6	415.4	416.7	415.0	413.9	413.5	403.2	377.2	349.5	322.4	295.3	270.8	243.6	218.5	196.4	175.9	158.0	142.3	129.9	120.7	112.7	108.1	98.68	86.45	76.45	68.12	59.95	52.85	46.18	40.40	34.62	28.63	24.18	20.36	17.29	22.41	67.27	220.6	379.0	137.5	15.30	4.241	3.775	3.601	3.666	3.619	3.589	3.671	3.378	3.205	3.283	3.203	3.303
535.0	171.2	269.3	382.2	492.0	624.5	729.0	745.8	757.7	923.9	2026	1245	633.0	596.6	545.2	483.3	420.3	371.7	338.3	322.0	301.8	289.3	289.3	301.1	322.5	332.2	342.4	339.8	335.4	338.8	339.5	329.1	313.6	287.5	266.0	244.2	227.3	204.6	184.0	166.5	151.4	137.4	124.7	113.0	107.1	99.26	94.46	89.56	80.28	70.82	62.30	55.17	48.11	42.40	37.08	32.16	27.12	22.92	19.12	15.57	14.16	22.47	55.11	123.6	340.8	220.2	18.60	3.706	3.242	3.122	3.233	3.091	2.866	2.817	2.783	2.746	2.700	2.671
540.0	150.9	220.4	331.6	434.9	523.7	638.6	646.9	639.1	656.6	1393	1832	600.4	518.7	473.0	420.1	362.2	320.0	292.9	274.8	261.1	249.2	247.7	259.2	273.3	284.7	291.0	289.1	287.0	286.9	286.8	281.3	266.6	245.1	228.0	210.8	194.1	177.7	160.4	144.7	133.6	121.3	111.2	103.4	96.11	89.38	84.48	79.39	75.25	65.68	57.75	51.14	44.75	39.25	34.30	30.02	25.70	22.04	17.55	14.58	12.29	12.67	18.28	33.09	138.3	375.7	179.9	11.08	2.948	2.781	2.794	2.901	2.596	2.515	2.382	2.348	2.427	2.417
545.0	141.4	206.0	296.9	379.4	438.2	547.0	593.1	543.9	534.7	792.8	2097	759.8	449.7	406.2	359.4	311.5	278.6	253.3	238.6	226.2	215.5	214.7	222.4	236.8	244.6	246.5	247.8	243.9	245.8	247.9	243.3	228.2	210.3	195.7	182.1	168.6	154.8	140.7	126.9	116.3	107.4	99.29	91.13	86.62	81.19	75.17	70.77	68.29	60.63	52.73	46.52	40.68	36.41	31.90	28.12	24.07	20.58	16.99	13.63	11.25	9.862	9.665	12.27	36.67	181.0	367.9	119.1	5.083	2.793	2.551	2.426	2.326	2.150	2.265	2.068	2.112	2.242
550.0	124.9	181.7	239.6	305.5	357.8	429.9	500.6	456.1	425.9	480.1	1325	1403	423.6	332.7	293.7	254.3	227.3	205.6	192.9	185.2	176.1	174.4	180.3	189.4	196.0	201.2	201.4	195.9	197.7	198.6	194.5	182.6	169.6	158.4	146.2	137.8	126.6	116.1	105.1	98.07	89.55	83.64	77.15	73.58	69.26	64.60	60.16	56.86	52.42	47.42	41.68	35.91	31.58	27.85	24.24	21.21	18.82	15.31	12.25	10.31	8.626	7.647	7.365	11.88	45.75	157.4	238.3	126.3	12.95	2.381	2.160	2.101	1.893	1.964	1.695	1.818	1.900
555.0	99.68	148.7	197.1	246.3	290.7	329.0	391.9	387.0	341.3	343.9	559.6	1608	709.7	264.9	230.2	198.8	176.0	162.0	152.7	144.8	138.4	137.5	142.0	147.7	153.1	156.8	155.2	152.5	152.7	154.5	149.9	143.8	135.5	124.4	114.1	108.3	99.94	92.73	84.51	79.00	72.28	68.10	63.37	60.05	56.78	54.09	50.74	46.24	43.09	40.41	35.88	30.64	26.41	24.12	21.18	18.31	16.54	13.38	11.33	9.031	7.878	6.303	5.788	6.344	13.45	37.70	76.27	227.7	173.6	14.12	1.948	1.784	1.795	1.630	1.452	1.440	1.461
560.0	88.44	134.5	172.8	209.4	245.4	269.9	318.5	356.8	291.8	281.8	333.1	1058	1252	256.4	190.5	167.4	147.7	136.0	127.1	119.8	113.8	113.5	116.3	121.1	126.7	128.0	127.2	124.7	124.2	127.8	122.6	117.6	109.1	103.7	95.53	89.56	83.58	76.93	70.31	66.17	61.50	57.38	53.62	50.39	48.24	46.32	43.06	39.20	36.00	34.47	31.55	27.20	23.17	21.02	18.53	16.05	14.07	11.82	10.08	8.520	6.880	5.705	4.993	4.636	5.958	11.08	19.62	90.67	249.9	116.2	6.517	1.605	1.492	1.460	1.426	1.223	1.154
565.0	83.10	136.7	157.8	179.5	203.7	228.9	250.4	315.2	256.5	244.0	257.1	511.0	1574	372.0	159.3	138.4	122.7	113.6	106.6	102.1	95.48	93.53	98.77	102.1	104.1	107.3	105.7	103.4	104.6	104.8	102.8	98.21	91.02	86.26	80.04	74.80	69.92	64.79	59.50	55.59	52.30	48.38	46.10	43.46	41.44	39.20	37.18	34.12	30.98	29.43	26.91	24.52	20.97	18.30	16.05	14.33	12.55	10.57	9.335	8.160	6.703	5.438	4.606	4.080	4.056	4.922	6.436	23.09	115.2	223.8	33.10	2.862	1.381	1.288	1.311	1.131	1.129
570.0	76.97	111.9	135.5	158.4	172.7	181.6	205.0	242.8	244.4	210.3	211.3	268.4	1008	943.9	159.9	111.5	99.30	90.43	84.01	79.36	75.76	74.90	77.93	79.56	82.77	83.69	83.04	81.03	82.42	81.74	81.02	77.05	72.47	67.97	63.45	59.97	55.32	52.06	48.07	44.91	42.31	39.50	37.55	36.56	34.29	32.57	30.50	28.16	25.37	23.62	21.97	20.59	18.14	15.69	13.46	12.13	10.57	9.196	7.472	6.738	6.175	5.012	4.244	3.630	3.307	3.415	3.413	6.953	28.70	96.38	150.6	82.82	9.052	1.253	1.148	0.951	0.996
575.0	72.38	97.59	131.1	137.8	136.5	150.3	166.2	185.3	221.1	190.0	186.7	196.9	382.0	1216	370.8	88.95	76.69	68.94	66.25	60.58	59.00	60.08	60.83	62.09	63.52	65.24	65.23	63.87	64.61	64.74	62.85	60.06	56.78	52.86	49.31	46.97	42.81	40.24	37.87	36.11	33.60	31.76	30.14	27.99	27.14	25.62	25.17	22.87	20.80	18.73	17.21	16.11	15.00	13.86	11.15	10.03	8.911	7.815	6.548	5.614	5.411	4.630	4.077	3.358	2.852	2.755	2.468	3.304	8.050	22.94	48.29	144.5	102.9	8.344	1.077	0.985	0.894
580.0	69.28	99.71	123.0	125.2	121.4	131.0	140.1	153.7	199.3	190.7	177.6	174.1	202.0	800.2	807.7	89.92	62.78	59.72	55.87	51.38	49.87	49.88	50.85	50.88	53.54	53.12	53.42	52.32	52.31	53.17	51.47	48.90	45.94	42.65	40.85	38.47	35.45	33.38	32.08	30.39	27.91	26.98	25.51	23.96	22.61	21.83	21.16	19.08	17.54	15.91	14.59	13.73	12.67	12.12	9.965	8.707	7.612	6.726	5.856	4.810	4.496	4.176	3.743	3.248	2.682	2.756	2.179	2.500	3.357	6.645	12.00	57.50	152.8	34.61	3.916	0.854	0.816
585.0	74.18	98.10	120.3	116.9	107.0	115.9	120.9	132.0	168.0	199.9	173.1	168.4	154.5	345.9	1090	119.0	54.56	49.80	46.52	44.27	41.57	41.53	41.91	43.63	44.47	44.72	44.79	44.49	43.23	43.90	42.78	41.87	38.44	36.10	33.57	31.79	30.84	29.22	26.46	25.37	23.76	22.79	21.60	20.87	18.74	18.51	17.90	16.61	14.86	13.73	12.57	11.79	10.69	10.30	9.273	7.894	6.594	6.131	4.995	4.385	4.073	3.689	3.731	3.151	2.651	2.514	2.303	2.158	2.362	2.785	3.841	14.39	71.67	132.1	29.32	1.550	0.723
590.0	73.76	97.07	113.4	103.1	92.54	100.3	109.0	117.0	135.2	187.1	177.4	158.1	140.1	156.3	680.8	573.7	60.10	40.65	37.05	35.53	34.76	32.93	33.68	34.51	35.90	35.98	35.15	35.10	34.21	34.07	34.15	32.66	30.37	28.48	27.26	25.63	24.29	23.51	21.11	20.12	18.88	18.14	17.52	16.59	15.64	15.24	14.45	13.61	12.20	11.37	10.14	9.411	8.667	8.195	7.880	7.025	5.603	5.242	4.278	3.845	3.439	3.030	3.056	3.018	2.672	2.278	2.097	2.010	1.932	1.936	1.967	4.223	17.64	58.23	93.47	53.87	6.287
595.0	71.78	94.34	108.5	95.16	82.07	85.69	95.60	105.0	114.5	160.6	197.1	156.0	136.0	106.9	223.9	802.9	203.5	32.86	30.00	27.90	26.94	26.44	26.07	27.72	28.32	28.44	27.91	27.88	27.26	27.18	26.39	25.37	23.99	22.38	20.92	20.23	18.93	17.84	16.75	15.58	15.03	14.39	13.72	13.11	12.99	11.77	11.62	10.91	10.24	9.133	8.419	7.285	6.958	6.235	6.191	6.123	5.048	4.127	3.758	3.299	3.019	2.624	2.593	2.430	2.539	2.321	1.963	1.853	1.733	1.508	1.445	1.947	4.825	13.72	29.65	87.18	36.12
600.0	67.06	93.48	99.29	86.33	77.11	78.79	88.99	98.10	112.5	146.0	201.9	164.4	138.1	98.18	102.0	542.6	526.9	36.63	25.35	23.03	22.02	21.00	22.21	22.51	23.18	23.43	22.74	23.08	22.58	22.53	21.88	20.98	19.94	18.18	17.12	16.42	15.72	14.52	14.00	12.98	12.51	12.11	11.49	11.12	10.77	10.44	10.09	9.104	8.731	7.720	6.964	6.247	5.675	5.265	5.164	5.189	4.900	4.010	3.441	2.991	2.758	2.454	2.262	2.179	2.258	2.192	2.016	1.739	1.709	1.510	1.344	1.343	1.946	3.852	7.383	34.44	84.88
605.0	70.06	95.19	105.5	88.85	80.23	75.67	86.47	100.5	114.6	143.0	201.5	194.2	151.8	107.7	82.14	230.7	788.8	71.65	22.17	21.01	19.22	18.03	18.67	19.36	19.53	20.01	19.81	19.10	18.80	19.44	17.77	17.70	16.72	15.63	14.38	13.72	13.18	12.36	11.69	11.03	10.42	10.14	9.836	9.410	8.906	8.941	8.570	7.618	7.187	6.439	6.007	5.487	4.958	4.615	4.167	4.483	4.348	3.606	3.107	2.675	2.295	2.263	2.196	1.926	2.101	2.240	2.314	1.652	1.686	1.522	1.309	1.246	1.305	1.766	2.406	8.701	41.98
610.0	72.32	94.47	103.7	87.14	80.47	82.44	96.58	114.5	141.3	173.2	221.8	254.4	196.9	141.4	106.3	117.4	556.3	349.9	26.36	16.78	15.06	15.05	14.91	15.76	15.46	16.15	15.46	15.33	14.91	15.20	14.37	14.09	13.15	12.20	11.69	10.95	10.34	9.822	9.159	8.842	8.339	7.916	7.770	7.709	7.161	7.150	6.781	6.346	5.719	5.220	4.810	4.426	4.107	3.767	3.638	3.478	3.476	3.240	2.810	2.376	2.053	2.142	2.098	2.105	2.054	2.080	2.235	2.009	1.770	1.641	1.578	1.356	1.309	1.392	1.326	2.740	10.57
615.0	71.73	102.1	101.6	88.42	80.08	80.79	98.15	117.3	147.4	188.8	231.5	272.5	226.6	160.7	122.9	94.83	219.1	528.7	72.55	13.38	11.67	11.96	11.71	12.20	12.11	12.48	12.37	11.65	11.83	12.14	11.35	11.23	9.821	9.703	9.236	8.742	7.901	7.305	7.458	7.094	6.616	6.261	6.115	5.812	5.596	5.451	5.488	5.042	4.732	4.214	3.889	3.620	3.207	3.129	2.825	2.796	2.710	2.842	2.583	2.366	2.103	1.966	1.886	2.015	1.979	1.817	1.903	2.099	1.882	1.669	1.454	1.385	1.298	1.220	1.101	1.442	3.121
620.0	70.10	96.23	102.4	91.83	75.35	84.03	91.16	115.6	141.2	180.7	216.8	249.6	233.9	161.3	121.1	87.93	113.2	388.2	279.1	14.23	10.97	10.20	10.21	10.61	10.28	10.37	9.901	9.621	10.38	9.969	9.248	9.191	8.277	7.867	7.653	7.125	6.279	6.372	5.968	5.618	5.372	5.334	5.005	4.964	4.754	4.602	4.504	4.448	3.981	3.507	3.178	3.062	2.815	2.673	2.501	2.310	2.121	2.276	2.343	2.334	2.086	1.685	1.821	1.738	1.834	1.709	1.737	1.879	1.761	1.800	1.518	1.357	1.133	1.161	1.083	1.135	1.390
625.0	62.51	98.48	94.84	86.70	70.56	79.17	92.35	114.4	133.5	173.9	201.7	232.5	236.9	163.4	121.1	84.94	82.65	178.3	451.2	33.77	9.171	9.189	8.865	8.756	9.199	8.897	8.547	8.866	8.693	8.339	8.281	7.505	7.276	7.064	6.411	6.009	5.843	5.128	5.167	4.839	4.308	4.509	4.271	4.146	4.154	3.863	3.598	3.511	3.336	3.109	2.728	2.740	2.424	2.260	2.210	1.993	1.824	1.873	2.080	2.006	1.891	1.602	1.753	1.691	1.630	1.597	1.762	1.789	1.950	1.852	1.524	1.372	1.230	1.115	1.035	0.982	0.980
630.0	66.53	96.42	98.12	81.42	72.33	73.65	88.72	108.2	128.3	164.5	191.5	215.3	223.5	170.6	121.2	83.92	76.73	77.01	326.4	176.4	11.16	7.664	7.395	6.966	7.194	7.479	7.180	6.869	6.713	6.717	6.456	6.318	5.645	5.642	5.238	4.799	4.500	4.151	4.194	3.791	3.544	3.536	3.270	3.162	3.152	3.082	3.008	2.773	2.657	2.458	2.269	2.235	2.034	1.885	1.741	1.702	1.645	1.700	1.660	1.699	1.641	1.520	1.594	1.536	1.575	1.553	1.590	1.545	1.604	1.589	1.492	1.343	1.255	1.165	1.099	1.020	0.910
635.0	65.69	92.37	105.6	81.88	68.35	72.79	85.88	99.30	122.6	158.3	185.4	209.4	204.9	177.3	126.8	84.70	76.71	50.86	104.6	353.3	46.75	6.494	5.807	6.046	5.755	6.000	5.724	5.604	5.336	5.539	5.131	5.114	4.686	4.135	3.945	3.697	3.590	3.293	3.110	2.814	2.722	2.475	2.565	2.506	2.612	2.512	2.331	2.238	2.178	1.940	1.726	1.801	1.614	1.514	1.437	1.483	1.371	1.325	1.353	1.382	1.395	1.381	1.496	1.462	1.447	1.442	1.541	1.343	1.471	1.461	1.381	1.377	1.151	1.064	1.088	0.937	0.851
640.0	72.71	100.1	109.3	88.57	69.20	75.14	81.81	99.13	119.9	153.6	188.1	204.3	198.3	179.2	135.1	88.70	78.76	47.76	38.19	274.2	171.2	7.057	4.988	5.276	5.145	4.673	5.018	4.980	4.738	4.417	4.490	4.223	3.909	3.520	3.272	3.111	2.915	2.655	2.445	2.576	2.283	2.279	2.037	2.269	2.114	2.068	1.967	1.846	1.818	1.546	1.489	1.554	1.333	1.278	1.287	1.238	1.221	1.216	1.175	1.276	1.355	1.440	1.415	1.404	1.323	1.367	1.409	1.361	1.514	1.360	1.431	1.382	1.449	1.100	1.083	0.846	0.831
645.0	68.87	102.1	114.5	88.99	71.21	70.05	82.44	95.29	119.1	140.0	178.5	199.9	192.3	170.1	141.4	90.41	76.05	45.89	22.10	121.5	300.6	19.15	4.558	4.544	4.426	4.534	4.200	4.323	4.226	3.651	3.845	3.798	3.052	3.061	2.982	2.610	2.391	2.206	2.080	2.061	1.982	2.029	1.801	1.995	1.720	1.939	1.674	1.621	1.499	1.380	1.259	1.330	1.247	1.196	1.156	1.105	1.075	1.130	1.050	1.135	1.145	1.202	1.346	1.313	1.264	1.396	1.248	1.416	1.392	1.454	1.224	1.247	1.375	1.252	0.945	0.838	0.809
650.0	72.42	116.2	118.4	85.49	67.34	66.25	78.55	92.04	111.0	137.5	167.4	189.3	185.8	160.3	140.5	93.25	72.12	44.73	19.22	40.94	298.1	60.97	4.640	4.144	4.179	4.093	4.022	3.775	3.522	3.516	3.482	3.155	2.607	2.771	2.615	2.246	2.061	1.972	1.745	1.767	1.666	1.658	1.488	1.663	1.457	1.521	1.473	1.321	1.327	1.227	1.120	1.211	1.079	0.974	1.021	0.990	0.991	1.082	0.922	0.941	1.154	1.169	1.311	1.237	1.237	1.351	1.190	1.389	1.303	1.336	1.356	1.226	1.393	1.155	0.907	0.879	0.873
