Sample:	'1
File name:	L2025090909Ãñ·çÂ·ÇÅ.FD3
Run date:	'15:21:51, 09/09/2025
Operator:	Administrator
Comment:	'

Instrument
Model:	F-2700 FL Spectrophotometer
Serial number:	3064-004
ROM Version:	4J14000 07

Instrument parameters
Measurement type:	3-D scan
Data mode:	Fluorescence
EX  Start WL:	220.0 nm
EX  End WL:	600.0 nm
EX Sampling interval:	5.0 nm
EM  Start WL:	230.0 nm
EM  End WL:	650.0 nm
EM Sampling interval:	5.0 nm
Scan speed:	12000 nm/min
EX Slit:	5.0 nm
EM Slit:	5.0 nm
PMT Voltage:	700 V
Response:	Auto 
Corrected spectra:	Off
Contour interval:	50.000

Peak integration
Integration method:	Rectangular
Sensitivity:	1
Threshold:	1.000

Peaks
No.	ApexEX/EM(nm)	Height(Data)
1	230.0/580.0	39.82
2	230.0/600.0	33.60
3	235.0/345.0	973.1
4	245.0/265.0	336.0
5	245.0/530.0	230.0
6	250.0/540.0	223.3
7	250.0/615.0	26.87
8	255.0/280.0	651.3
9	255.0/555.0	202.4
10	260.0/285.0	897.9
11	260.0/565.0	175.0
12	265.0/290.0	946.5
13	265.0/580.0	174.6
14	270.0/295.0	 1326
15	270.0/380.0	 1268
16	270.0/590.0	150.8
17	275.0/305.0	 1610
18	275.0/605.0	150.5
19	280.0/310.0	 1561
20	280.0/340.0	 1288
21	280.0/355.0	 1283
22	280.0/615.0	126.7
23	285.0/315.0	 1576
24	285.0/345.0	 1286
25	285.0/365.0	 1284
26	285.0/630.0	97.59
27	290.0/320.0	 1506
28	290.0/640.0	83.58
29	305.0/340.0	 1044
30	310.0/345.0	901.7
31	315.0/355.0	799.5
32	320.0/360.0	879.1
33	325.0/365.0	853.4
34	330.0/375.0	791.8
35	335.0/380.0	829.6
36	340.0/385.0	787.0
37	350.0/400.0	702.1
38	355.0/405.0	668.7
39	445.0/525.0	47.61
40	455.0/535.0	33.74
41	460.0/335.0	3.908
42	460.0/545.0	27.27
43	490.0/585.0	5.542
44	495.0/270.0	2.176
45	500.0/445.0	5.496
46	505.0/275.0	3.219
47	515.0/285.0	4.138
48	525.0/290.0	3.985
49	535.0/295.0	5.651
50	545.0/300.0	6.591
51	550.0/305.0	7.640
52	560.0/310.0	6.599
53	570.0/315.0	7.624
54	575.0/290.0	55.51
55	575.0/320.0	7.799
56	585.0/325.0	7.140
57	590.0/330.0	6.125

Data points
	220.0	225.0	230.0	235.0	240.0	245.0	250.0	255.0	260.0	265.0	270.0	275.0	280.0	285.0	290.0	295.0	300.0	305.0	310.0	315.0	320.0	325.0	330.0	335.0	340.0	345.0	350.0	355.0	360.0	365.0	370.0	375.0	380.0	385.0	390.0	395.0	400.0	405.0	410.0	415.0	420.0	425.0	430.0	435.0	440.0	445.0	450.0	455.0	460.0	465.0	470.0	475.0	480.0	485.0	490.0	495.0	500.0	505.0	510.0	515.0	520.0	525.0	530.0	535.0	540.0	545.0	550.0	555.0	560.0	565.0	570.0	575.0	580.0	585.0	590.0	595.0	600.0
230.0	17.47	910.8	 4636	 2171	96.53	5.975	6.083	7.062	3.398	3.250	3.374	3.571	3.313	2.992	2.614	2.674	2.057	1.899	1.435	1.499	1.206	1.336	1.098	1.113	1.018	0.823	0.818	0.779	0.678	0.535	0.634	0.509	0.475	0.485	0.535	0.688	0.480	0.498	0.460	0.412	0.456	0.594	0.660	0.399	0.351	0.376	1.624	5.950	8.727	6.578	2.331	0.515	0.230	0.321	0.214	0.208	0.237	0.175	0.198	0.063	0.143	0.138	0.138	0.142	0.077	0.107	0.057	0.032	0.046	0.124	0.053	0.020	0.067	0.029	0.077	0.032	0.017
235.0	44.55	234.4	 1975	 4424	 1092	175.1	7.130	13.30	3.626	3.510	6.283	3.772	3.239	4.529	2.611	2.493	2.101	1.778	1.727	1.684	1.271	1.483	1.049	1.216	1.062	0.907	0.702	0.564	0.776	0.729	0.847	0.413	0.444	0.488	0.471	0.540	0.626	0.473	0.479	0.573	0.448	0.467	0.731	0.381	0.566	0.450	0.650	1.704	3.815	5.922	8.631	7.516	3.166	0.879	0.209	0.207	0.250	0.162	0.237	0.180	0.260	0.207	0.125	0.181	0.188	0.257	0.052	0.046	0.106	-0.008	0.070	0.141	0.061	-0.038	0.036	0.007	0.028
240.0	62.94	115.9	498.3	 2470	 4409	957.1	99.85	19.63	3.956	4.116	5.668	5.346	3.819	3.460	2.643	1.707	2.272	1.589	1.699	1.893	1.710	1.053	1.431	0.919	1.428	1.116	0.855	0.549	0.526	0.705	0.852	0.510	0.393	0.548	0.415	0.526	0.700	0.523	0.360	0.561	0.448	0.325	0.490	0.566	0.658	0.826	0.641	0.644	1.038	1.914	5.022	10.69	13.34	7.883	2.278	0.419	0.184	0.144	0.201	0.157	0.116	0.106	0.180	0.243	0.150	0.244	0.066	0.048	0.080	0.049	0.132	0.051	-0.016	0.007	0.075	0.051	-0.015
245.0	42.65	114.3	178.4	664.5	 3168	 5868	819.8	85.04	11.28	5.122	6.111	4.315	4.417	3.982	3.055	2.439	2.340	1.493	1.574	1.450	1.143	1.554	1.373	1.152	1.323	0.979	0.876	0.794	0.601	0.646	0.794	0.617	0.554	0.540	0.281	0.245	0.570	0.433	0.471	0.499	0.380	0.374	0.399	0.406	0.453	0.600	0.874	0.695	0.496	0.664	1.323	3.839	9.779	14.88	14.51	7.084	1.171	0.255	0.200	0.152	0.116	0.049	0.153	0.193	0.095	0.356	0.077	0.132	0.036	0.035	0.067	0.069	-0.003	0.094	0.041	0.035	0.017
250.0	28.59	59.68	165.8	257.6	844.5	 3754	 6737	 9863	200.4	9.228	7.211	5.946	5.629	4.965	3.590	3.168	2.041	2.021	2.022	1.574	1.665	1.458	1.569	1.230	1.310	1.032	1.055	0.729	0.544	0.577	1.006	0.649	0.683	0.600	0.501	0.256	0.396	0.266	0.443	0.507	0.407	0.369	0.393	0.385	0.499	0.424	0.510	0.703	0.945	0.738	0.764	1.096	2.555	5.190	9.613	14.20	16.88	13.45	7.132	1.579	0.249	0.084	0.083	0.126	0.220	0.219	0.071	0.220	0.101	0.060	0.062	0.099	0.052	0.121	0.017	0.102	0.082
255.0	22.53	28.45	69.37	264.9	327.3	888.7	 3069	9999.9	 4067	248.5	10.63	6.881	6.946	4.968	4.563	4.082	2.061	2.585	2.172	2.156	1.983	1.487	1.782	1.177	0.859	1.321	0.767	1.197	0.672	0.615	0.866	0.764	0.727	0.404	0.873	0.475	0.333	0.177	0.368	0.578	0.589	0.472	0.402	0.414	0.470	0.376	0.538	0.395	0.561	0.678	1.273	1.273	0.992	1.224	2.396	3.762	7.377	17.49	26.62	24.55	9.141	1.536	0.126	0.225	0.155	0.066	0.135	0.152	0.240	0.242	0.124	0.099	0.077	0.076	0.205	0.093	0.159
260.0	29.41	25.93	31.98	163.8	352.2	291.7	768.9	 6607	9999.9	 3226	126.4	11.80	7.510	7.188	6.293	4.490	3.316	2.326	2.645	2.578	1.788	1.896	1.359	1.262	1.531	1.581	1.314	1.046	0.908	0.821	0.759	0.795	0.598	0.505	0.872	0.492	0.448	0.358	0.442	0.564	0.508	0.481	0.473	0.620	0.515	0.384	0.521	0.292	0.376	0.466	0.801	1.357	1.720	0.904	0.838	1.250	1.790	5.334	13.71	29.15	35.69	23.21	6.496	0.728	0.230	0.151	0.214	0.114	0.171	0.339	0.136	0.325	0.026	0.139	0.085	0.143	0.159
265.0	26.98	23.70	21.09	65.45	272.1	336.0	230.3	 1718	 9654	 9571	 2439	56.70	10.07	8.968	6.502	4.995	3.363	2.932	2.691	2.172	1.866	1.611	1.285	1.484	1.121	0.918	1.335	0.858	0.727	0.859	0.751	0.700	0.730	0.546	0.609	0.567	0.508	0.471	0.614	0.475	0.369	0.394	0.552	0.666	0.341	0.500	0.585	0.390	0.381	0.415	0.367	0.659	1.387	1.818	1.179	0.827	0.542	1.469	3.475	9.729	24.41	41.52	40.41	19.07	2.890	0.255	0.190	0.225	0.118	0.199	0.050	0.188	0.102	0.188	0.059	0.043	0.115
270.0	37.71	37.34	24.37	33.67	95.63	315.7	391.9	487.9	 2526	 5048	 9494	 5209	160.0	14.73	8.924	6.890	4.319	2.984	3.168	2.782	2.304	1.713	1.839	1.436	1.397	1.133	1.204	1.043	1.025	0.803	0.931	0.780	0.707	0.604	0.546	0.635	0.645	0.435	0.617	0.585	0.506	0.403	0.579	0.595	0.468	0.572	0.472	0.425	0.347	0.437	0.322	0.406	0.715	1.108	1.648	2.176	1.575	1.093	1.103	2.532	6.215	13.20	24.54	35.71	42.08	30.88	15.72	3.078	0.396	0.163	0.100	0.136	0.063	0.275	0.170	0.046	0.136
275.0	69.12	64.58	52.53	42.82	47.53	111.6	394.9	584.4	667.6	 1219	 3615	9999.9	 8290	192.2	11.78	7.438	6.858	3.849	3.407	3.279	3.288	2.192	1.916	1.897	1.290	1.606	1.551	1.243	0.835	0.965	1.163	0.523	0.968	0.660	0.597	0.568	0.464	0.500	0.766	0.651	0.680	0.420	0.380	0.572	0.620	0.699	0.515	0.673	0.504	0.447	0.300	0.271	0.388	0.468	0.609	1.176	2.082	3.219	2.054	1.323	1.649	3.376	5.928	8.820	16.69	37.06	63.46	46.05	19.06	1.944	0.162	0.185	0.166	0.204	0.183	0.044	0.157
280.0	106.7	98.04	93.76	70.18	42.19	70.86	188.5	651.3	556.4	399.1	980.8	 4760	9999.9	 2495	108.4	10.76	8.417	6.490	3.522	3.555	3.264	1.970	2.277	1.780	1.705	1.819	1.677	1.432	1.018	0.659	0.958	0.651	0.790	0.718	0.852	0.950	0.854	0.814	0.903	0.632	0.709	0.692	0.726	0.637	0.972	0.859	0.569	0.892	0.840	0.562	0.528	0.353	0.383	0.274	0.390	0.461	0.975	2.308	3.476	3.532	1.770	1.407	1.738	2.829	4.336	10.52	28.22	57.32	76.58	39.55	9.315	0.626	0.203	0.190	0.274	0.115	0.151
285.0	149.1	147.1	139.9	103.9	59.56	78.68	105.3	370.9	897.9	414.5	410.7	 1369	 6474	9999.9	 1812	48.10	11.20	8.120	5.074	4.480	3.478	3.014	2.318	2.099	1.750	1.392	1.335	1.636	1.125	1.085	1.071	0.773	0.909	0.831	1.018	0.872	1.059	0.889	0.874	0.819	0.623	0.869	0.961	0.898	0.993	1.210	0.779	1.079	0.809	0.596	0.575	0.470	0.384	0.382	0.394	0.350	0.749	1.203	1.988	4.138	4.100	2.473	1.245	1.357	2.194	3.222	7.553	17.94	43.23	73.40	54.61	28.78	3.663	0.207	0.484	0.198	0.205
290.0	195.0	225.1	214.1	157.3	102.8	102.5	109.9	214.6	590.2	946.5	624.5	641.7	 1847	 5800	9999.9	 6043	96.72	12.36	6.689	6.095	3.753	3.799	2.694	2.509	1.934	1.676	1.621	1.530	1.298	1.156	1.147	0.955	0.984	0.956	0.862	0.947	1.132	1.062	1.016	1.034	1.029	1.052	1.043	1.088	1.115	1.469	1.194	1.123	1.071	0.971	0.805	0.655	0.549	0.559	0.493	0.580	0.688	0.821	1.236	1.881	2.940	3.985	3.621	3.292	2.407	2.165	3.090	5.512	11.32	21.68	34.92	55.51	55.29	48.57	19.84	3.918	0.439
295.0	231.0	256.1	295.9	223.0	151.9	146.5	168.0	213.4	351.5	672.8	 1326	817.5	838.5	 1589	 3343	9999.9	 8583	125.8	11.04	7.276	4.639	4.045	3.645	3.200	2.150	2.153	1.898	1.463	1.348	1.291	0.918	1.206	0.784	0.756	0.991	1.291	1.079	1.203	1.310	1.227	1.137	1.327	0.975	1.118	1.497	1.477	1.610	1.385	1.396	0.990	1.092	0.849	0.821	0.734	0.518	0.731	0.701	0.921	1.113	1.365	1.805	2.223	2.937	5.651	5.134	3.675	2.578	3.012	4.013	6.083	9.155	13.80	19.47	44.10	80.62	54.23	27.30
300.0	226.7	293.1	318.4	258.4	208.4	184.7	203.3	245.8	338.7	517.0	 1169	 1420	761.0	736.1	998.7	 4016	9999.9	 5961	80.92	8.318	5.870	4.408	4.060	3.114	2.133	2.442	1.830	1.601	1.561	1.487	1.189	1.204	0.855	0.877	0.846	1.191	0.906	1.574	1.416	1.677	1.486	1.243	1.074	1.229	1.442	1.392	1.534	1.573	1.479	1.113	1.097	1.360	1.039	0.780	1.093	0.944	1.035	1.095	1.189	1.257	1.854	1.962	2.197	3.517	5.640	6.591	5.190	2.832	3.044	3.053	3.570	4.452	5.174	11.68	31.41	65.39	94.03
305.0	227.9	305.6	342.6	302.6	236.2	233.3	248.4	293.3	386.5	520.2	868.7	 1610	 1202	663.3	552.2	 1126	 5282	9999.9	 1193	41.57	8.744	6.168	4.693	3.540	2.643	2.505	2.123	1.940	1.928	1.505	1.564	1.325	0.858	1.094	0.892	1.225	1.269	1.533	1.282	1.545	1.551	1.186	1.407	1.400	1.739	1.609	1.631	1.545	1.352	1.247	1.058	1.324	1.263	0.931	1.193	1.092	1.244	1.121	1.459	1.436	1.993	1.887	2.241	3.013	3.734	5.598	7.640	6.553	4.026	2.692	2.790	2.389	2.828	3.561	7.930	18.01	47.21
310.0	243.0	306.6	372.0	341.2	267.9	281.2	298.6	364.2	458.9	576.6	801.6	 1157	 1561	 1163	583.8	520.5	 1403	 4866	 8891	 4729	71.16	9.752	5.472	4.248	3.161	3.053	2.329	2.102	2.015	1.473	1.571	1.440	1.138	1.195	1.118	1.192	1.455	1.361	1.399	1.460	1.415	1.400	1.258	1.319	1.527	1.583	1.678	1.745	1.627	1.402	1.307	1.317	1.265	1.095	1.251	1.426	1.414	1.318	1.631	1.839	2.028	2.220	2.616	3.010	3.330	4.181	5.119	6.409	6.599	5.700	4.198	2.669	2.348	2.239	3.027	5.380	11.85
315.0	256.8	335.3	408.4	376.6	309.4	295.2	334.1	414.3	510.4	643.1	827.4	 1024	 1214	 1576	 1027	488.8	552.3	 1241	 2703	9999.9	 6686	95.91	9.842	6.822	4.101	3.740	3.057	2.423	2.060	2.093	1.547	1.585	1.008	1.213	1.019	1.238	1.288	1.225	1.181	1.303	1.485	1.418	1.397	1.518	1.523	1.491	1.591	1.983	2.003	1.644	1.251	1.420	1.355	1.183	1.110	1.459	1.770	1.502	2.052	1.989	2.258	2.451	2.918	3.434	3.751	3.694	4.079	4.232	4.943	6.392	7.624	5.821	3.692	2.689	2.223	2.595	3.928
320.0	293.4	429.3	533.4	467.9	349.3	338.1	384.8	462.7	540.5	722.1	887.7	 1068	 1143	 1346	 1506	714.6	431.9	487.4	742.6	 3614	9999.9	 4960	62.52	8.017	5.154	4.296	3.358	2.529	2.262	2.165	1.324	1.533	1.262	1.220	1.202	1.182	1.187	1.310	1.346	1.189	1.136	1.826	1.312	1.395	1.722	1.574	1.785	2.348	2.246	1.971	1.586	1.632	1.414	1.409	1.420	1.729	1.643	1.527	2.176	2.324	2.660	2.919	3.007	3.470	3.607	4.039	3.707	4.876	4.606	4.983	6.423	7.799	6.274	4.285	2.935	2.242	2.884
325.0	342.2	520.5	716.7	633.6	410.7	373.1	402.0	487.1	608.9	768.9	963.6	 1126	 1212	 1218	 1433	 1174	519.7	375.6	336.9	942.4	 4913	9999.9	901.7	33.61	6.721	5.515	3.967	2.765	2.324	2.298	1.555	1.780	1.504	1.765	0.996	1.199	1.339	1.457	1.355	1.423	1.331	1.702	1.639	1.884	2.181	1.995	2.446	3.071	3.019	2.800	2.243	1.975	1.490	1.935	1.744	1.716	1.913	1.854	2.130	2.652	2.650	3.004	3.033	3.626	3.544	4.280	3.945	4.862	5.244	4.958	5.404	6.065	6.871	7.140	4.290	3.061	2.661
330.0	366.3	558.3	839.9	809.9	521.5	437.0	438.6	537.1	644.9	800.3	 1003	 1166	 1241	 1226	 1187	 1221	949.8	473.9	307.2	374.1	 1250	 4490	 8304	 3673	57.20	8.107	5.090	3.945	3.046	2.486	1.877	1.895	1.552	1.355	1.224	1.397	1.206	1.524	1.458	1.573	1.457	1.594	1.717	1.832	2.036	2.589	2.781	3.320	3.313	3.267	2.545	2.314	1.976	2.070	1.774	1.971	1.933	2.185	2.292	2.795	2.700	3.192	3.419	3.553	4.065	4.630	4.630	5.002	5.241	5.322	5.374	4.708	5.474	5.936	6.125	6.003	4.311
335.0	388.0	584.6	920.5	914.5	599.2	516.8	501.3	587.2	691.9	848.9	 1039	 1201	 1288	 1259	 1149	 1007	 1063	857.5	400.6	310.4	441.8	 1119	 2575	 8793	 5427	77.20	7.473	5.425	4.175	2.864	2.246	2.149	1.715	1.596	1.550	1.515	1.313	1.551	1.333	1.307	1.327	1.659	1.870	2.426	1.890	2.602	2.973	3.584	3.908	3.567	2.735	2.688	2.337	2.394	1.969	2.287	2.240	2.349	2.398	2.840	2.466	3.408	3.599	3.671	4.399	4.759	4.545	5.292	5.097	4.987	5.650	4.928	5.613	4.728	4.826	5.140	5.956
340.0	395.4	602.0	942.6	960.3	687.0	579.2	564.2	631.6	724.3	860.4	 1065	 1200	 1288	 1277	 1179	985.4	889.0	 1044	629.1	347.9	299.4	399.8	688.2	 3421	9999.9	 4069	52.03	7.396	5.214	3.299	2.714	2.657	1.834	1.762	1.151	1.338	1.488	1.399	1.202	1.306	1.309	1.840	1.980	1.877	1.910	2.765	3.011	3.775	3.893	3.610	3.210	3.044	2.596	2.057	2.297	2.425	2.129	2.508	2.732	3.218	2.999	3.356	3.649	3.807	3.819	4.910	4.311	5.363	5.373	5.023	5.622	5.110	5.277	4.852	4.680	4.385	4.875
345.0	387.4	573.1	935.3	973.1	748.3	637.1	635.1	643.5	745.1	882.3	 1074	 1198	 1279	 1286	 1193	 1005	827.9	891.3	901.7	469.8	318.1	281.6	290.2	890.5	 4942	9999.9	743.3	29.53	6.635	4.876	3.491	2.479	2.050	1.923	1.464	1.445	1.061	1.347	1.435	1.534	1.362	1.481	1.976	1.900	2.035	2.586	2.999	3.614	3.898	3.518	2.778	3.010	3.058	2.260	2.758	2.221	2.658	2.946	2.938	2.766	3.490	3.248	4.038	4.122	4.396	4.939	4.714	5.278	5.457	5.575	5.234	5.390	5.435	4.629	4.643	4.636	4.544
350.0	370.9	547.2	853.5	972.6	830.4	760.8	728.8	751.2	816.6	942.2	 1080	 1180	 1265	 1274	 1178	 1041	865.8	784.6	847.5	783.5	466.9	328.2	265.0	350.3	 1260	 4553	 7427	 3090	50.30	7.762	4.516	2.927	2.493	2.503	1.614	1.518	1.353	1.394	1.542	1.486	1.434	1.705	1.826	1.678	2.059	2.287	2.853	3.480	3.605	3.330	2.964	3.148	3.296	2.715	2.779	2.853	2.915	3.180	3.097	2.952	2.980	3.595	3.924	4.432	4.581	5.008	4.627	4.949	5.562	5.311	4.916	5.441	5.594	4.929	4.942	4.504	4.232
355.0	348.4	543.0	787.9	962.2	900.9	894.4	862.7	885.3	941.9	 1047	 1138	 1202	 1283	 1269	 1215	 1091	942.7	823.6	759.1	799.5	783.7	463.4	331.8	290.2	438.0	 1128	 2500	 8034	 4618	68.48	6.954	4.771	2.949	2.738	1.918	1.657	1.506	1.434	1.595	1.599	1.305	1.396	1.824	1.686	1.922	2.094	2.612	3.032	3.696	3.485	2.838	3.110	3.238	3.385	3.364	3.096	3.319	3.165	3.436	3.446	4.156	4.117	4.027	4.520	4.157	4.427	4.437	4.766	5.384	5.098	5.305	5.387	5.258	5.251	4.816	4.745	5.012
360.0	306.9	501.9	758.8	935.4	944.9	949.1	934.1	946.9	 1004	 1105	 1178	 1212	 1272	 1268	 1222	 1127	987.5	871.4	777.9	741.4	879.1	682.2	406.6	328.6	295.5	394.6	666.1	 3405	 9405	 3360	45.82	5.772	4.060	2.790	2.136	1.797	1.663	1.517	1.476	1.658	1.348	1.568	1.862	1.552	2.300	2.129	2.510	2.977	3.254	3.751	2.761	3.313	3.257	3.401	3.394	3.436	3.631	3.318	3.621	3.649	4.162	4.441	4.491	4.222	4.736	4.784	4.638	4.775	5.467	5.075	5.719	5.398	5.339	5.070	5.145	5.512	5.221
365.0	294.1	494.6	725.9	923.9	983.8	965.8	 1020	 1021	 1068	 1150	 1205	 1246	 1279	 1284	 1242	 1140	 1025	913.5	812.6	758.7	796.9	853.4	549.5	381.9	305.0	263.8	272.4	884.5	 5057	 8934	657.8	24.76	4.747	3.436	2.196	2.157	1.931	1.951	1.545	1.524	1.497	1.570	1.765	1.536	1.959	1.986	2.343	2.405	3.291	3.032	2.912	3.449	3.469	3.674	3.936	3.975	3.679	3.319	3.784	3.513	4.343	4.064	4.631	4.697	4.507	4.504	5.032	4.509	5.391	5.253	5.341	5.573	5.028	5.220	5.166	5.489	5.249
370.0	307.4	458.0	675.8	897.0	966.2	 1010	 1070	 1080	 1135	 1211	 1232	 1274	 1275	 1263	 1222	 1143	 1048	956.9	878.5	811.3	765.4	811.5	782.3	538.8	378.2	297.7	234.4	320.9	 1280	 4356	 5847	 2650	40.19	5.526	3.578	2.732	2.048	1.951	1.732	1.627	1.439	1.673	1.666	1.745	1.786	2.009	2.307	2.561	2.833	2.886	2.989	3.385	3.484	3.807	4.003	4.102	3.999	3.879	4.222	4.121	4.462	4.390	4.919	4.760	4.650	4.770	5.354	4.975	5.417	5.379	5.293	5.352	4.998	5.280	5.434	6.023	5.693
375.0	296.5	445.5	642.9	878.6	950.4	 1058	 1110	 1145	 1163	 1219	 1251	 1266	 1275	 1247	 1221	 1151	 1065	 1003	931.4	853.4	805.4	764.2	791.8	783.2	510.0	375.0	286.3	245.8	402.1	 1050	 2275	 7460	 3688	53.67	6.190	4.282	2.668	2.118	2.270	1.738	1.242	1.630	1.577	1.861	1.855	2.157	2.355	2.800	2.713	2.758	3.047	3.505	3.683	3.907	3.789	4.209	4.087	4.001	4.566	4.019	4.139	4.711	4.933	4.794	4.696	4.779	4.812	5.463	5.114	5.208	5.425	5.351	5.115	5.596	5.234	5.624	5.850
380.0	268.5	449.3	653.2	846.2	951.5	 1083	 1098	 1166	 1180	 1219	 1268	 1262	 1256	 1245	 1212	 1125	 1089	 1026	962.4	885.6	846.4	781.7	744.5	829.6	674.0	446.6	334.6	266.3	238.8	337.1	595.1	 3412	 7855	 2537	33.38	5.576	2.968	2.834	2.315	1.937	1.573	1.534	1.400	1.934	1.972	2.184	2.063	2.435	2.766	2.737	3.000	3.487	3.536	3.737	4.243	4.376	4.059	4.180	4.369	4.320	4.624	4.940	4.945	5.149	4.720	5.061	5.349	5.108	5.062	4.861	5.552	5.240	5.302	5.179	5.646	6.176	6.126
385.0	274.2	423.5	638.1	837.1	980.7	 1057	 1124	 1180	 1209	 1221	 1262	 1237	 1245	 1229	 1183	 1115	 1070	 1024	968.9	913.9	866.8	804.1	747.1	759.0	787.0	560.3	383.5	305.9	237.1	204.7	223.3	876.0	 4518	 7170	508.7	16.58	4.079	3.170	2.555	2.066	2.037	1.738	1.500	1.790	1.871	2.561	2.001	2.304	2.668	2.755	2.825	2.859	3.584	3.555	3.998	3.958	4.023	4.342	4.568	4.736	4.408	4.566	4.673	4.748	4.482	4.965	4.894	5.240	4.992	5.049	5.309	5.266	5.119	5.359	5.123	5.504	5.804
390.0	272.4	406.1	589.7	803.0	941.6	 1051	 1131	 1160	 1195	 1209	 1228	 1200	 1206	 1190	 1158	 1099	 1044	 1013	967.8	936.8	885.6	836.3	774.1	731.0	746.0	713.8	513.5	366.6	280.5	221.1	173.4	280.5	 1150	 3780	 4656	 2038	31.90	4.782	3.072	2.719	2.133	1.709	1.818	1.787	2.070	2.037	2.253	2.145	2.453	2.797	2.604	3.056	3.384	3.732	4.107	4.248	4.241	4.433	4.175	4.496	4.684	4.894	4.335	4.533	4.379	4.747	4.513	5.075	5.014	4.847	5.297	5.275	5.256	5.198	5.235	5.509	5.638
395.0	263.2	385.3	585.1	783.0	908.5	 1056	 1104	 1132	 1170	 1202	 1196	 1180	 1177	 1160	 1115	 1070	 1016	 1002	957.3	939.0	893.2	852.7	799.3	741.4	696.4	700.9	674.1	474.3	340.2	271.3	197.0	181.0	334.2	898.4	 1908	 6217	 2863	42.34	4.739	3.433	2.489	2.226	1.991	2.003	2.072	2.067	1.770	2.397	2.690	2.744	2.751	3.057	3.538	3.317	3.825	3.922	4.470	4.404	4.452	4.153	4.763	4.632	4.958	4.638	4.536	4.541	4.277	4.657	4.824	5.117	5.019	4.844	5.362	5.270	5.110	5.140	5.343
400.0	259.0	390.2	561.7	760.1	901.9	 1017	 1093	 1135	 1138	 1170	 1170	 1148	 1155	 1133	 1084	 1042	 1005	975.0	940.7	920.5	893.7	849.3	804.7	759.1	702.2	661.7	702.1	599.0	395.5	305.8	231.8	178.4	168.0	266.0	486.9	 3020	 6203	502.6	25.11	4.253	2.786	2.878	2.028	2.239	2.010	1.935	1.955	2.698	2.560	2.415	2.542	3.073	3.502	3.472	4.119	4.167	4.232	4.215	4.585	4.315	4.191	4.503	4.519	4.656	4.651	4.914	4.112	4.761	4.884	4.667	4.590	4.615	5.007	4.997	5.318	4.939	5.352
405.0	251.6	364.9	529.2	746.2	880.7	993.9	 1116	 1116	 1129	 1102	 1150	 1131	 1122	 1094	 1057	 1025	963.9	959.0	931.0	924.9	879.5	840.9	814.6	763.6	711.0	653.0	651.3	668.7	485.6	345.8	262.7	201.9	153.1	139.0	163.3	773.0	 3716	 4995	414.6	11.58	3.285	3.097	2.208	2.193	2.210	1.865	2.108	2.504	2.319	2.645	2.347	2.808	3.379	3.318	3.874	3.763	3.920	4.547	4.146	4.142	3.975	4.499	4.397	4.511	4.533	4.750	4.393	4.766	4.572	4.255	4.710	4.693	4.571	4.982	5.139	5.024	4.945
410.0	253.3	355.6	519.2	695.9	832.5	949.8	 1033	 1084	 1111	 1103	 1091	 1107	 1074	 1061	 1011	984.6	934.9	917.4	899.4	887.0	865.3	829.7	803.3	761.8	711.7	663.5	621.0	620.0	591.7	441.5	309.3	237.2	174.5	132.2	108.4	221.3	938.9	 2802	 3724	 1516	27.21	4.211	2.831	2.452	2.406	2.058	2.161	2.244	2.299	2.480	2.380	2.935	3.124	3.421	3.758	3.524	3.929	4.081	4.098	4.146	4.185	4.548	4.279	4.348	4.502	4.174	4.113	4.572	4.411	4.588	4.746	4.510	4.562	4.643	4.402	4.834	4.798
415.0	246.7	356.4	501.1	683.9	785.9	914.5	 1005	 1063	 1091	 1080	 1061	 1054	 1037	 1014	969.0	944.7	881.4	863.9	865.9	850.2	831.4	814.1	778.8	744.3	710.6	667.3	619.1	581.4	574.5	557.9	389.1	272.5	203.4	153.4	114.5	111.5	251.1	656.9	 1524	 4404	 2126	36.94	4.059	2.658	2.809	2.261	2.611	2.334	2.294	2.313	2.460	2.830	3.012	3.706	3.543	3.530	3.838	3.877	4.060	4.051	3.956	4.806	4.166	4.395	4.086	4.350	4.046	4.223	4.398	4.557	4.576	4.085	4.334	4.271	4.300	4.363	4.602
420.0	244.4	323.6	466.6	660.5	756.6	888.4	979.7	 1053	 1050	 1067	 1039	 1026	 1012	959.6	941.9	889.2	866.0	836.4	827.7	815.3	806.3	783.9	754.9	731.4	705.1	670.8	618.9	574.6	538.6	553.8	477.3	314.4	227.5	173.3	124.8	96.58	106.8	182.1	378.9	 2142	 4513	454.4	21.64	3.434	3.118	2.755	2.338	2.438	2.142	2.200	2.561	2.651	2.814	3.419	3.536	3.417	3.727	3.719	3.905	4.190	3.994	4.004	4.064	3.929	3.841	3.835	4.082	4.292	4.179	4.034	4.449	3.994	4.063	4.480	4.228	4.060	4.776
425.0	224.3	335.2	456.5	623.5	716.3	864.7	944.2	 1016	 1060	 1045	 1038	 1000	976.7	940.8	891.2	860.4	831.3	803.6	798.5	777.3	771.0	760.9	737.7	722.1	690.8	664.2	615.4	578.1	533.4	509.7	518.7	375.4	253.8	191.2	140.3	107.5	84.24	83.39	115.0	544.5	 2727	 3586	370.9	8.968	3.887	2.793	2.434	2.243	2.203	2.169	2.339	2.795	3.002	2.911	3.395	3.159	3.709	3.681	4.076	4.005	3.992	3.889	4.025	4.119	3.518	3.516	3.915	4.018	3.940	3.931	4.174	3.801	4.008	3.936	4.162	4.463	4.771
430.0	503.0	311.4	433.7	588.1	701.8	819.9	899.9	976.2	 1018	 1014	 1017	971.6	946.3	894.4	861.7	815.3	782.4	761.1	760.8	743.7	733.2	720.0	696.0	693.0	669.1	646.5	614.5	576.2	531.6	489.4	476.5	442.8	317.8	217.4	163.3	124.6	93.97	74.25	65.04	151.0	688.3	 2040	 3012	 1250	24.37	3.799	2.635	2.361	2.253	2.203	2.377	2.594	2.779	2.831	3.059	3.277	3.644	3.686	3.806	3.877	4.062	4.004	3.925	3.815	3.595	3.670	3.703	3.691	3.865	3.824	3.725	3.494	3.874	3.786	4.113	4.449	4.460
435.0	 1181	362.6	399.1	554.6	655.5	770.6	872.7	945.3	978.4	 1007	977.6	941.0	907.7	859.7	819.6	778.3	735.9	711.8	712.4	710.1	688.3	681.7	662.2	657.5	644.5	628.8	600.1	571.2	533.7	493.0	446.4	420.1	392.4	269.9	185.9	143.3	111.2	84.38	66.22	70.80	180.9	477.9	 1193	 3534	 1849	32.37	3.652	3.279	2.738	2.399	2.301	2.299	2.856	2.757	2.947	3.290	4.610	3.664	3.577	3.603	3.527	3.821	3.914	3.816	3.620	3.772	3.409	3.341	3.760	3.681	3.794	3.625	3.702	3.465	3.609	4.029	3.954
440.0	 1547	674.6	407.2	516.3	632.8	770.9	834.8	901.2	958.9	971.1	972.1	927.4	873.3	829.5	778.2	748.2	708.0	686.7	680.3	676.7	665.8	652.8	633.4	636.9	619.5	612.1	588.0	559.4	524.2	488.0	442.8	391.0	390.0	320.7	210.7	156.8	121.4	94.81	73.30	58.89	72.07	130.5	295.2	 1726	 3978	412.0	18.07	3.903	2.792	2.355	2.202	2.379	2.812	2.903	2.714	3.247	5.046	3.568	3.638	3.522	3.694	3.752	3.690	3.515	3.638	3.576	3.575	3.122	4.027	3.431	3.461	3.206	3.475	3.437	3.874	3.803	4.022
445.0	 1317	 1429	397.0	515.3	617.6	729.8	808.0	885.8	940.0	945.3	946.9	893.0	837.9	805.1	754.6	709.1	661.9	659.0	648.9	629.5	626.4	614.2	612.6	612.6	602.6	589.6	565.8	544.2	515.8	487.0	438.5	384.8	356.3	345.6	248.7	171.3	135.8	105.6	81.37	63.74	52.63	57.35	88.63	437.0	 2416	 3226	312.1	9.575	3.116	2.870	2.450	2.815	2.751	2.850	2.925	3.376	5.496	3.388	3.583	3.127	3.997	4.013	3.289	3.771	3.401	3.403	3.256	3.426	3.979	3.193	3.289	3.328	3.295	3.635	3.679	3.592	4.011
450.0	577.7	 2089	911.6	475.9	576.7	664.4	766.5	852.4	896.5	903.9	900.4	859.0	807.6	765.3	708.3	664.3	626.7	609.2	596.9	591.6	577.4	574.7	567.5	567.2	562.2	553.0	540.7	524.3	503.5	470.4	433.0	379.8	332.0	312.5	286.9	210.9	149.1	115.4	92.13	71.04	56.42	47.90	52.32	118.5	607.9	 1823	 2675	 1113	20.79	3.621	2.663	2.604	2.692	2.898	2.910	2.966	4.812	3.253	3.621	3.323	3.630	3.560	3.498	3.889	3.250	3.344	3.206	3.334	3.693	3.373	3.140	3.324	3.052	3.294	3.380	3.187	3.745
455.0	263.8	 1410	 2281	576.0	536.8	619.4	687.5	775.2	836.9	864.9	831.5	846.5	752.7	701.6	683.8	620.6	579.5	566.7	537.0	535.4	535.6	529.1	525.5	525.1	518.8	516.1	504.3	494.3	477.4	452.3	418.4	372.0	315.9	278.4	264.9	250.4	181.1	125.6	99.25	80.56	63.83	52.01	50.76	50.27	155.0	423.0	 1039	 3089	 1522	25.05	3.382	3.090	2.965	2.741	2.806	2.874	4.061	2.855	3.248	3.231	3.424	3.610	3.550	3.606	3.329	3.265	3.090	3.198	3.142	2.914	2.938	2.887	3.088	3.094	3.075	2.904	3.420
460.0	184.7	622.7	 2957	 1267	504.2	580.9	647.6	732.0	793.8	811.3	800.6	787.3	714.4	677.7	632.6	579.0	537.1	516.2	515.2	500.6	499.4	497.9	487.8	489.6	484.9	485.3	473.1	470.3	457.7	434.6	402.6	362.8	310.2	270.4	239.1	242.3	210.8	138.9	108.8	86.07	71.52	56.67	53.25	38.29	56.43	111.7	253.3	 1470	 3281	319.5	13.92	3.478	2.885	2.886	2.873	2.799	3.352	2.859	3.240	3.187	3.325	3.255	3.457	3.565	3.109	3.582	3.260	2.937	2.867	2.562	2.827	3.154	3.125	2.907	2.723	2.827	3.131
465.0	165.2	297.0	 2453	 3469	511.9	544.9	635.9	699.3	766.1	784.8	770.5	741.6	680.0	651.7	602.2	548.2	511.5	489.0	475.3	472.4	462.4	459.5	456.2	455.5	452.4	454.0	455.7	441.0	432.4	412.1	387.7	351.9	304.7	265.6	227.7	213.6	216.5	161.4	113.7	91.43	74.38	60.18	55.46	38.97	36.81	43.05	72.28	371.0	 1983	 2531	255.4	7.619	3.217	3.152	2.666	3.133	2.716	2.842	2.856	2.817	3.106	3.241	3.318	2.891	2.742	3.234	3.037	2.674	2.584	2.871	2.961	2.910	2.729	2.354	2.848	2.656	2.698
470.0	163.8	206.6	 1039	 4781	 1356	494.7	593.1	654.5	693.6	729.9	714.9	679.7	628.2	588.1	548.4	499.5	468.5	446.0	433.9	425.7	418.7	415.5	412.8	408.5	408.5	410.7	413.9	400.7	400.0	383.7	360.4	326.7	288.2	255.0	218.1	195.8	187.3	178.0	133.8	96.87	78.95	65.27	58.96	43.34	35.47	30.92	33.97	96.75	495.8	 1468	 2046	890.0	19.55	3.646	3.091	2.738	2.569	2.511	2.485	2.643	3.023	3.186	3.117	2.909	2.856	3.016	2.768	2.476	2.810	2.561	2.806	2.435	2.554	2.335	2.314	2.499	2.600
475.0	163.9	177.8	414.1	 2566	 3017	656.8	532.8	585.4	632.2	646.4	665.7	610.8	585.3	544.4	491.9	461.0	415.8	401.7	389.4	374.3	377.8	366.5	363.0	365.2	366.5	366.8	366.0	361.1	361.1	346.2	335.5	307.3	266.1	238.0	206.3	184.1	161.3	161.7	156.4	113.6	82.24	68.80	56.86	47.48	38.77	31.36	27.77	37.76	122.9	339.0	765.7	 2216	 1091	24.42	3.521	2.864	2.744	2.539	2.054	2.599	2.657	2.826	2.798	2.654	3.008	2.876	2.826	2.275	2.170	2.385	2.671	2.317	1.981	2.110	2.246	2.395	2.333
480.0	149.6	196.8	273.2	 1010	 3365	 1083	490.9	549.9	586.9	607.2	614.2	582.8	541.3	502.6	459.8	419.4	384.2	367.5	358.1	341.6	347.3	341.0	328.6	337.5	338.3	336.9	339.1	341.6	331.7	325.9	310.2	284.1	251.7	226.1	200.8	177.7	153.6	142.1	143.7	129.4	89.29	69.45	57.65	48.39	40.55	34.51	28.17	26.17	41.33	86.74	184.4	984.4	 2429	346.9	13.54	3.309	2.857	2.435	2.343	2.590	2.353	2.388	2.600	2.713	2.267	2.271	2.656	2.327	2.063	2.227	2.183	2.220	2.116	1.980	2.691	1.863	2.129
485.0	126.2	167.5	221.9	450.9	 2317	 2932	502.8	497.5	551.7	573.4	575.4	555.3	508.6	477.3	426.2	391.8	365.2	335.8	325.9	319.7	316.7	308.9	307.6	309.4	309.8	315.6	312.6	313.5	312.5	301.8	289.6	265.0	241.1	218.4	187.3	168.0	145.7	134.6	125.9	130.7	102.8	73.69	58.91	48.97	41.44	34.41	29.56	24.95	24.76	32.08	51.15	243.4	 1431	 1875	264.9	5.378	2.839	2.720	2.359	2.381	2.249	2.701	2.491	2.487	2.283	2.049	1.860	2.069	2.357	1.911	2.118	2.101	2.039	2.020	2.211	2.223	1.680
490.0	109.7	161.6	211.3	289.3	967.9	 3597	 1904	460.3	502.0	518.7	535.1	501.1	466.9	424.2	392.9	354.0	328.4	306.0	297.8	287.1	286.7	280.7	274.2	277.3	277.9	281.8	279.0	280.4	276.9	275.2	265.6	248.5	221.9	198.6	179.2	156.9	138.8	123.9	111.6	113.4	112.3	86.27	61.58	50.16	42.34	35.88	30.97	25.94	21.93	20.65	22.21	63.58	353.5	978.8	 1522	663.0	19.75	3.042	2.556	2.438	2.203	2.264	2.317	2.509	2.231	2.191	1.846	1.887	1.939	1.839	1.946	1.880	1.821	1.918	1.896	1.970	1.758
495.0	103.9	128.3	218.9	235.8	434.0	 1933	 4423	537.2	442.7	460.5	484.0	433.0	424.9	387.9	356.7	324.6	291.0	275.0	266.6	261.8	250.5	251.4	245.2	245.0	246.0	242.4	252.0	247.9	249.5	247.6	235.0	223.0	197.8	182.2	163.2	145.4	132.5	115.9	104.5	96.07	97.94	96.79	70.29	51.75	44.20	37.38	32.46	27.46	21.79	18.99	16.86	23.80	87.21	225.1	569.3	 1685	393.5	25.05	2.950	2.604	1.977	2.255	1.915	2.052	2.109	2.004	1.840	1.834	1.666	1.691	1.876	1.589	1.587	1.948	1.483	1.571	1.488
500.0	84.29	100.3	205.3	239.9	292.5	805.7	 5883	830.5	406.7	424.9	442.0	408.8	387.0	355.6	324.9	292.7	270.2	251.0	242.8	236.3	227.3	226.7	219.8	224.8	224.0	220.4	224.4	222.1	223.6	226.8	213.2	202.9	182.7	170.9	154.8	138.1	122.9	109.3	97.22	89.17	82.88	89.43	80.74	55.18	44.01	37.54	32.81	28.07	23.19	19.54	15.91	15.07	27.79	56.54	135.7	743.9	 1786	358.1	12.75	2.746	2.188	2.152	2.226	1.974	1.887	1.979	1.791	1.868	1.482	1.565	1.562	1.661	1.438	1.793	1.475	1.522	1.649
505.0	81.94	87.25	187.8	249.6	238.5	389.9	 4761	 2232	402.6	395.7	411.4	384.2	356.7	323.4	306.9	265.0	244.0	228.4	221.2	212.7	208.8	205.9	200.1	200.2	201.3	203.2	205.8	201.7	200.4	207.0	199.8	186.0	172.6	159.2	141.8	125.7	115.0	101.8	93.17	82.85	74.36	75.50	80.14	63.11	43.57	38.19	32.88	28.06	23.42	20.15	14.86	13.47	14.24	19.11	36.42	181.7	 1028	 1722	273.2	4.516	2.256	2.217	2.068	1.815	2.004	1.788	1.754	1.667	1.313	1.778	1.500	1.275	1.504	1.566	1.584	1.640	1.342
510.0	70.33	88.49	142.1	239.9	224.8	255.2	 1703	 2730	 1081	362.3	364.2	341.0	316.5	291.5	262.6	240.7	215.2	204.5	194.9	188.9	183.2	181.3	174.4	177.2	175.4	180.7	181.6	180.3	179.2	181.2	174.1	167.6	154.1	143.3	128.3	114.1	104.8	94.13	85.06	76.80	67.39	62.86	66.93	66.81	51.53	37.90	31.31	27.29	22.55	19.24	16.49	13.28	11.82	11.86	14.04	45.98	251.1	870.1	 1322	560.0	18.47	2.469	1.956	1.679	1.834	1.610	1.499	1.444	1.282	1.476	1.269	1.206	1.239	1.477	1.238	1.221	1.191
515.0	58.90	75.14	107.1	188.0	244.4	207.5	570.2	 1780	 2645	460.8	317.4	303.4	272.8	251.1	228.4	202.2	190.8	176.5	170.3	164.3	157.5	153.5	152.9	152.3	155.4	154.8	157.8	152.8	156.6	150.0	154.3	147.1	134.4	126.2	112.7	103.2	92.72	84.69	77.44	69.09	60.46	56.40	55.01	57.39	55.88	42.39	30.93	26.31	21.67	18.77	16.47	13.71	10.61	10.16	9.087	15.91	61.16	198.4	476.0	 1389	389.6	22.57	2.186	1.740	1.712	1.596	1.525	1.422	1.101	1.137	1.179	1.418	1.009	1.495	1.016	1.055	1.015
520.0	62.86	72.50	107.1	143.9	236.2	199.4	291.2	796.5	 3098	 1143	287.8	271.8	251.4	227.4	208.8	185.0	174.6	161.8	151.6	147.3	140.6	138.3	133.5	137.0	139.4	135.9	141.2	139.2	142.8	138.6	137.9	132.5	120.7	112.7	102.2	92.46	85.56	76.83	72.13	64.03	58.11	52.07	48.40	48.33	51.61	46.51	33.72	25.32	22.22	18.97	15.49	13.47	12.10	9.453	8.510	8.637	18.79	48.68	113.0	616.6	 1429	343.3	8.428	2.040	1.586	1.624	1.364	1.254	1.527	1.019	0.874	1.149	0.904	1.172	0.969	1.001	1.026
525.0	53.96	63.25	98.40	125.0	217.3	215.7	209.6	349.7	 2308	 2362	299.9	243.6	229.8	213.6	191.6	170.4	155.0	141.3	136.1	134.0	132.5	125.1	124.1	124.4	125.3	121.7	128.3	127.3	129.5	127.4	125.4	117.8	108.7	103.1	91.80	84.13	79.80	69.87	66.55	58.96	53.03	49.67	43.95	41.06	43.96	47.61	36.94	26.23	21.97	17.95	14.79	13.44	12.03	10.35	7.900	7.243	9.030	14.72	29.62	150.2	825.0	 1481	51.92	3.612	1.588	1.341	1.226	1.059	1.451	1.019	0.997	1.202	0.721	0.931	1.080	0.994	1.026
530.0	42.15	57.93	80.09	96.34	159.6	230.0	187.9	227.2	911.2	 2822	 1087	227.3	201.8	182.9	165.1	151.2	134.5	125.7	120.0	116.2	114.3	110.3	108.0	105.8	106.0	106.0	107.7	108.2	111.7	112.0	108.3	102.2	94.53	89.56	82.95	74.69	69.64	63.94	59.11	52.48	48.51	43.27	39.68	35.33	35.65	39.65	38.57	29.60	21.00	17.60	14.83	12.37	11.28	9.989	8.206	7.098	6.738	7.507	10.74	37.31	201.9	742.1	927.7	422.7	15.35	1.661	1.206	1.138	1.043	1.158	0.975	0.872	0.876	0.935	0.826	0.729	0.947
535.0	38.30	50.03	71.80	84.64	119.9	200.2	197.8	171.5	338.8	 1354	 2894	326.1	170.8	160.3	143.5	130.8	114.6	106.9	105.8	100.4	99.91	93.23	92.52	92.99	92.30	91.55	90.96	92.94	94.46	95.57	90.78	89.13	79.76	78.51	72.06	65.71	60.86	55.45	51.87	47.85	42.76	38.70	34.99	31.49	30.26	29.47	32.90	33.74	23.23	16.23	13.67	11.58	9.931	9.377	8.645	7.634	6.355	5.978	6.119	11.86	48.38	169.1	345.5	 1055	358.1	16.79	1.370	1.219	1.007	1.012	0.876	0.697	0.853	1.129	0.814	0.756	0.791
540.0	38.51	39.64	63.35	75.21	90.49	168.2	223.3	152.9	205.4	514.9	 3149	 1066	156.0	145.5	127.4	118.1	104.6	97.59	92.91	88.96	85.91	82.39	81.51	84.54	80.02	80.39	82.10	82.85	81.07	83.47	80.64	78.42	71.88	67.14	62.32	57.36	54.33	49.61	46.20	43.24	38.52	35.44	32.38	29.86	27.83	25.79	26.64	30.69	26.00	17.43	12.82	10.51	10.14	8.917	7.459	7.600	6.190	5.534	5.019	6.458	13.92	40.50	81.66	477.2	 1072	268.8	4.631	1.355	1.083	0.941	0.850	0.818	0.721	0.788	0.646	0.552	0.748
545.0	32.52	39.02	55.15	72.68	84.63	119.8	215.1	147.6	154.5	245.4	 1962	 2490	177.6	129.4	115.6	106.2	89.31	89.05	83.02	80.26	74.29	74.05	71.32	71.69	73.04	71.08	71.58	71.56	73.05	72.76	74.27	70.60	62.99	60.29	55.69	51.35	47.89	46.13	40.87	38.91	35.08	32.05	28.47	28.24	24.43	22.55	21.26	25.29	27.27	19.44	12.93	10.38	10.12	8.044	7.012	7.756	6.169	5.344	4.623	5.514	6.304	11.81	20.78	116.4	636.0	894.9	49.47	2.355	1.246	0.978	0.772	0.646	0.738	0.675	0.571	0.454	0.681
550.0	33.01	26.28	51.85	64.96	72.18	83.28	174.0	177.4	126.0	160.4	679.7	 2829	959.5	113.4	95.30	89.93	82.07	73.64	71.71	67.73	63.68	64.61	60.91	59.94	61.65	61.15	60.31	61.15	60.56	61.85	62.22	58.79	54.61	51.48	46.52	44.83	41.10	39.17	34.46	33.09	29.55	26.96	25.37	22.98	20.82	19.80	17.62	18.75	21.55	20.83	14.30	10.66	8.668	7.703	6.362	6.459	5.780	5.749	4.881	5.426	4.053	5.324	7.169	28.61	156.2	469.0	636.9	206.4	11.73	1.160	0.913	0.875	0.607	0.553	0.669	0.500	0.549
555.0	37.57	34.45	45.05	57.93	57.07	69.65	114.6	202.4	125.8	118.9	240.0	 1232	 2765	200.1	80.75	75.54	69.01	57.91	57.43	54.81	51.38	51.18	48.88	48.98	49.99	50.55	49.19	49.87	50.83	49.85	50.42	46.85	45.07	41.37	39.36	35.02	33.86	31.22	29.26	27.03	24.86	22.44	20.66	18.92	17.11	16.47	15.10	14.70	15.32	17.24	16.00	10.75	7.279	6.851	6.086	5.789	5.160	5.096	4.641	4.839	4.015	3.791	3.852	8.707	36.90	107.2	252.2	666.0	281.0	9.280	1.300	0.740	0.606	0.407	0.468	0.422	0.385
560.0	32.96	33.23	44.05	45.24	59.37	62.96	79.72	183.4	148.7	106.9	139.2	417.4	 2924	839.6	70.62	63.91	56.11	50.20	47.70	47.87	44.54	44.74	43.22	43.10	41.51	42.18	42.32	42.56	42.44	42.87	42.44	40.70	38.80	34.95	32.35	30.44	28.08	27.97	25.23	22.82	20.53	19.83	17.69	17.09	15.03	13.91	13.16	13.03	11.58	12.85	14.55	11.42	6.628	6.046	5.255	5.154	4.824	4.479	4.811	4.841	3.463	3.353	3.046	4.200	10.41	26.28	60.45	321.4	640.8	54.41	2.996	1.088	0.704	0.522	0.425	0.472	0.301
565.0	30.66	25.52	43.03	46.13	54.79	57.61	65.71	133.6	175.0	95.07	106.6	171.4	 1717	 2146	80.55	51.72	47.65	46.38	42.03	40.33	36.63	36.88	37.13	35.47	36.95	34.90	34.71	34.91	36.83	34.54	35.31	34.27	32.35	30.25	27.44	26.34	23.90	23.14	21.89	19.39	17.81	16.29	15.09	14.52	12.65	11.92	11.49	10.29	9.276	9.623	12.07	11.72	7.372	5.301	4.717	4.365	4.410	4.246	4.032	4.787	4.099	3.679	3.261	3.870	4.442	8.493	16.20	80.37	401.2	436.1	42.56	1.501	0.682	0.564	0.414	0.330	0.453
570.0	27.40	27.83	38.73	41.22	43.28	46.31	54.52	81.41	167.1	111.7	93.43	108.0	542.7	 2517	707.6	44.17	39.44	36.08	34.20	33.05	30.60	30.05	29.02	28.46	28.33	28.26	28.57	27.72	30.27	28.77	27.71	28.25	26.72	23.67	22.64	21.05	19.83	19.00	17.46	15.88	15.01	13.78	12.52	11.59	10.43	9.900	9.179	8.100	7.823	7.481	8.148	9.525	8.638	6.110	4.430	4.136	4.009	3.985	3.806	4.220	4.009	3.678	3.209	3.631	3.234	4.398	6.021	20.21	101.7	281.3	364.4	137.0	5.974	0.659	0.563	0.321	0.375
575.0	24.85	36.98	39.42	37.33	35.33	36.55	46.55	58.24	117.1	151.6	80.51	83.42	182.1	 1034	 2209	103.0	30.40	28.40	25.96	26.06	23.83	24.67	24.04	22.70	22.36	22.88	23.06	21.91	22.93	22.10	22.05	21.68	20.80	17.95	18.32	16.39	16.15	15.45	14.55	13.04	11.42	10.51	10.27	9.947	8.722	7.584	7.323	6.706	6.600	5.573	6.315	6.314	7.668	6.236	4.250	3.432	3.445	3.336	3.656	3.394	3.735	3.698	3.437	3.287	3.525	3.663	3.599	7.120	24.86	65.17	158.5	391.6	55.06	3.733	0.586	0.282	0.299
580.0	30.10	26.78	39.82	37.82	28.69	31.04	43.67	46.17	78.70	174.6	88.84	79.92	97.76	324.1	 2396	566.6	26.94	22.99	21.34	20.75	20.81	19.71	20.90	17.32	18.42	18.05	19.40	17.78	18.20	18.75	18.56	17.98	16.57	14.65	15.38	13.85	13.14	12.53	11.58	11.14	9.703	8.718	8.351	8.597	7.364	5.923	6.804	5.645	5.755	4.905	5.112	4.515	5.971	6.249	5.222	3.480	3.451	2.746	3.012	3.253	3.273	3.984	3.445	3.040	2.942	3.292	3.351	3.916	7.635	16.41	38.65	200.1	338.3	46.41	1.242	0.454	0.307
585.0	24.91	25.68	38.54	33.58	33.47	29.23	37.54	46.28	60.45	153.0	114.4	76.77	76.14	112.7	 1367	 1595	34.03	21.05	18.78	17.29	16.28	17.27	18.29	14.90	14.82	16.85	15.92	16.20	15.98	16.56	15.78	15.49	14.84	13.26	12.94	12.09	10.71	10.12	9.514	9.061	8.300	7.426	7.482	6.973	6.594	5.586	5.912	5.174	4.976	4.332	4.377	3.582	4.408	5.223	5.542	3.781	2.879	2.922	2.647	2.713	2.591	3.053	3.276	3.161	2.690	2.693	2.860	2.971	3.391	5.386	10.03	50.77	233.7	290.4	32.00	0.601	0.307
590.0	24.59	29.22	34.77	30.09	25.91	27.05	35.84	39.31	49.73	96.95	150.8	82.55	70.03	65.18	407.1	 1898	454.0	19.60	16.77	15.67	14.00	14.00	13.48	12.52	12.09	13.49	11.75	12.58	13.08	13.01	11.88	11.99	11.75	10.80	10.39	9.320	8.926	8.422	7.904	7.509	6.862	6.243	6.127	5.797	5.198	4.919	4.579	4.364	4.008	3.692	3.633	2.958	3.141	4.025	4.613	3.892	2.744	2.382	2.358	2.594	1.928	2.394	2.702	2.965	2.575	2.287	2.227	2.460	2.443	2.455	3.427	12.21	59.73	180.0	216.9	35.99	2.954
595.0	21.44	30.60	32.32	30.72	28.41	24.52	28.22	35.81	43.14	68.37	139.8	108.6	66.95	52.12	117.7	764.2	 1532	50.09	13.53	12.74	11.45	10.65	10.38	10.68	10.30	10.45	9.262	9.220	9.067	10.14	10.25	9.641	9.455	8.910	7.487	8.063	6.852	6.239	6.404	6.425	5.768	4.942	4.852	4.328	4.214	4.138	3.735	3.886	3.554	2.932	2.883	2.401	2.481	2.472	3.084	3.750	3.028	2.480	1.962	1.709	1.825	1.739	2.153	2.084	2.328	2.173	1.845	1.913	1.465	1.595	2.052	3.356	13.87	41.04	99.07	227.9	50.36
600.0	21.66	26.92	33.60	27.73	27.42	22.61	30.99	29.70	39.46	53.26	110.0	131.6	65.16	48.30	50.87	222.5	 1671	182.6	12.47	10.59	9.430	9.649	8.493	8.835	8.208	8.398	7.740	7.885	7.757	8.962	8.517	7.156	8.611	7.700	6.120	6.326	6.254	5.665	5.401	5.409	4.528	4.443	3.915	4.075	3.865	3.516	3.428	2.935	2.741	2.416	2.326	2.099	1.890	1.814	2.226	3.321	3.398	2.299	1.516	1.280	1.679	1.505	1.793	1.577	1.790	2.089	1.625	1.557	1.227	1.470	1.317	1.341	3.794	9.504	24.00	129.6	197.8
605.0	20.18	26.41	27.68	26.50	25.79	22.33	22.41	28.43	37.52	46.30	76.73	150.5	72.99	44.75	39.98	71.31	959.7	972.8	15.85	10.15	7.516	8.175	7.883	7.629	7.098	7.680	7.311	7.119	6.889	7.645	6.503	6.109	6.176	5.946	5.821	5.242	5.015	4.671	4.340	4.498	3.668	4.027	3.439	3.236	3.061	3.111	2.738	2.383	2.275	2.107	1.829	1.695	1.363	1.739	1.640	2.224	3.041	2.786	1.642	1.418	1.307	1.472	1.327	1.715	1.343	1.691	1.784	1.346	1.208	1.052	0.796	0.945	1.445	2.533	5.709	33.44	144.2
610.0	16.95	24.34	27.87	26.77	22.40	21.80	23.26	29.66	34.98	45.36	64.16	118.5	102.3	49.45	33.76	35.38	279.7	 1270	304.8	9.089	6.812	6.522	6.736	6.010	5.985	5.904	5.714	5.473	5.721	6.039	5.149	5.505	5.149	5.468	4.262	4.143	4.122	3.808	3.610	3.493	3.224	2.736	2.770	2.618	2.420	2.229	2.358	1.962	2.016	1.803	1.539	1.180	1.119	1.287	1.139	1.602	2.109	2.441	1.924	1.376	1.060	1.252	1.049	1.276	1.049	1.278	1.587	1.327	1.177	1.027	0.872	0.815	1.101	0.971	1.547	7.703	37.12
615.0	19.72	25.38	25.92	26.84	18.50	25.25	26.87	25.84	29.72	44.21	56.18	83.64	126.7	55.97	35.88	28.67	76.39	527.0	 1057	27.12	5.362	5.946	5.441	4.972	5.147	4.427	4.468	4.218	4.365	4.788	4.306	4.669	3.995	3.882	3.525	3.525	3.183	2.454	2.846	3.200	2.441	2.290	2.265	2.003	1.883	1.747	1.800	1.611	1.665	1.362	1.379	1.120	1.032	0.896	0.928	1.488	1.228	1.634	2.046	1.502	0.963	0.982	0.916	1.016	0.898	1.193	1.168	1.087	1.178	1.137	0.764	0.691	1.158	0.384	0.718	2.060	8.413
620.0	14.71	21.76	24.89	22.61	21.61	21.17	20.30	31.35	35.06	40.97	56.94	63.42	117.9	77.55	35.32	25.69	30.65	150.8	 1201	138.4	5.559	5.113	4.360	4.327	3.510	3.565	4.196	3.315	3.333	3.320	3.770	3.775	3.583	3.020	3.518	3.040	2.635	2.295	2.722	2.495	2.088	2.021	1.725	1.743	1.718	1.667	1.542	1.413	1.494	1.134	1.156	1.003	1.055	0.776	0.861	0.943	1.055	1.248	1.870	1.545	0.898	0.732	0.816	0.939	0.788	0.899	1.018	1.030	1.140	1.116	0.489	0.620	0.894	0.458	0.686	0.885	1.915
625.0	16.30	22.10	19.80	22.16	17.96	18.11	20.18	24.05	33.09	39.28	52.95	59.58	95.41	94.25	37.55	23.06	20.85	46.07	719.5	690.5	9.256	4.219	3.992	4.009	3.046	3.124	3.426	2.781	2.844	2.745	3.115	3.160	3.035	2.870	2.767	2.213	2.041	2.348	2.194	2.043	1.722	1.692	1.617	1.354	1.375	1.379	1.292	1.093	1.126	1.091	0.936	0.976	0.824	0.751	0.763	0.627	0.811	0.921	1.378	1.475	1.165	0.591	0.629	0.702	0.686	0.999	0.698	0.668	0.891	0.847	0.770	0.571	1.062	0.263	0.690	0.373	0.686
630.0	14.83	20.47	22.86	18.66	16.43	18.10	22.28	24.62	30.95	37.82	46.29	54.58	67.95	97.59	49.80	24.56	18.77	20.97	209.3	939.7	200.6	4.705	3.389	3.704	2.317	2.483	2.623	2.411	2.646	2.316	2.796	2.448	2.338	2.108	2.101	1.829	1.787	1.737	1.702	1.715	1.462	1.290	1.178	1.170	1.189	1.151	0.972	0.971	0.765	0.856	0.791	0.745	0.691	0.583	0.551	0.554	0.808	0.740	1.024	1.181	1.043	0.761	0.695	0.624	0.684	0.669	0.617	0.573	0.629	0.913	0.768	0.594	0.760	0.321	0.591	0.318	0.383
635.0	14.03	20.05	29.07	21.49	23.05	17.45	19.25	20.81	32.85	39.47	43.90	53.24	58.75	77.44	70.69	28.03	16.16	15.19	55.03	411.6	765.9	15.63	2.465	2.672	1.927	2.297	2.004	2.122	2.068	2.297	1.979	1.762	2.086	1.844	1.443	1.579	1.590	1.333	1.268	1.304	1.287	1.263	1.004	1.019	0.768	0.868	0.894	0.762	0.712	0.618	0.660	0.573	0.466	0.457	0.489	0.666	0.487	0.647	0.586	0.691	1.181	1.071	0.665	0.587	0.621	0.679	0.577	0.375	0.489	0.669	0.711	0.776	0.410	0.238	0.355	0.272	0.461
640.0	16.71	20.55	32.24	22.89	17.81	13.46	16.79	21.09	29.84	35.87	43.96	51.29	54.19	61.66	83.58	29.78	16.91	13.56	20.36	120.4	923.3	102.7	2.923	2.206	1.840	2.426	1.762	2.018	1.996	1.635	1.379	1.672	1.794	1.842	1.270	1.240	1.542	1.158	1.212	0.899	0.964	1.015	1.085	0.655	0.811	0.800	0.721	0.676	0.699	0.652	0.399	0.529	0.417	0.414	0.415	0.593	0.525	0.542	0.433	0.431	0.816	0.891	0.525	0.576	0.580	0.527	0.350	0.392	0.434	0.584	0.506	0.522	0.406	0.487	0.352	0.225	0.490
645.0	20.82	21.97	33.09	23.45	20.95	18.01	17.52	20.55	33.18	37.39	44.83	49.11	51.66	53.02	78.58	40.61	21.56	15.27	12.71	33.96	590.4	487.6	4.190	2.161	1.449	1.878	1.793	1.855	1.539	1.178	1.415	1.321	1.460	1.771	1.347	1.089	1.171	1.001	1.174	0.876	0.968	0.901	0.911	0.621	0.541	0.619	0.757	0.581	0.547	0.504	0.405	0.485	0.512	0.403	0.462	0.332	0.332	0.381	0.396	0.499	0.459	0.709	0.655	0.549	0.355	0.462	0.468	0.631	0.409	0.424	0.524	0.448	0.659	0.281	0.292	0.228	0.342
650.0	24.54	22.66	34.37	29.34	19.59	15.44	17.65	24.39	30.16	37.37	41.37	47.38	52.43	48.06	69.65	54.17	21.81	14.42	10.43	14.34	210.9	789.3	36.15	2.492	1.760	1.458	1.332	1.512	1.522	1.362	1.067	1.147	1.282	1.338	1.327	1.082	1.073	1.141	1.143	0.729	0.733	0.835	0.746	0.738	0.671	0.593	0.619	0.541	0.381	0.430	0.453	0.312	0.394	0.437	0.398	0.405	0.411	0.359	0.374	0.355	0.333	0.520	0.767	0.494	0.418	0.307	0.497	0.409	0.478	0.391	0.325	0.306	0.471	0.482	0.305	0.207	0.305
