Sample:	'1
File name:	G2025051324明泉新材料循环水.FD3
Run date:	'16:38:15, 05/20/2025
Operator:	Administrator
Comment:	'

Instrument
Model:	F-2700 FL Spectrophotometer
Serial number:	23B8-004
ROM Version:	4J14000 07

Instrument parameters
Measurement type:	3-D scan
Data mode:	Fluorescence
EX  Start WL:	220.0 nm
EX  End WL:	600.0 nm
EX Sampling interval:	5.0 nm
EM  Start WL:	230.0 nm
EM  End WL:	650.0 nm
EM Sampling interval:	5.0 nm
Scan speed:	12000 nm/min
EX Slit:	5.0 nm
EM Slit:	5.0 nm
PMT Voltage:	700 V
Response:	Auto 
Corrected spectra:	Off
Contour interval:	50.000

Peak integration
Integration method:	Rectangular
Sensitivity:	1
Threshold:	1.000

Peaks
No.	ApexEX/EM(nm)	Height(Data)
1	235.0/640.0	11.97
2	240.0/265.0	307.9
3	240.0/525.0	123.2
4	245.0/385.0	2638
5	245.0/400.0	2060
6	245.0/540.0	141.9
7	250.0/275.0	574.0
8	250.0/550.0	130.4
9	255.0/280.0	604.9
10	255.0/565.0	111.5
11	260.0/290.0	482.1
12	260.0/575.0	91.85
13	265.0/295.0	570.7
14	265.0/585.0	76.35
15	270.0/300.0	761.1
16	270.0/600.0	71.50
17	275.0/305.0	744.9
18	275.0/345.0	386.5
19	275.0/610.0	57.90
20	280.0/385.0	5251
21	280.0/400.0	4007
22	280.0/625.0	46.88
23	285.0/320.0	637.0
24	285.0/640.0	35.83
25	290.0/325.0	557.8
26	295.0/330.0	420.2
27	300.0/335.0	393.2
28	305.0/345.0	373.2
29	310.0/350.0	317.0
30	315.0/355.0	323.1
31	355.0/385.0	2880
32	355.0/405.0	2348
33	370.0/400.0	2667
34	415.0/485.0	33.70
35	425.0/500.0	22.29
36	430.0/505.0	18.85
37	440.0/520.0	13.29
38	445.0/525.0	11.40
39	450.0/535.0	8.513
40	455.0/540.0	7.169
41	470.0/560.0	3.469
42	490.0/385.0	11.39
43	505.0/275.0	3.435
44	510.0/280.0	3.508
45	520.0/285.0	3.399
46	530.0/290.0	3.043
47	540.0/295.0	3.882
48	545.0/300.0	4.486
49	545.0/385.0	15.54
50	550.0/305.0	4.286
51	560.0/310.0	3.641
52	570.0/315.0	3.901
53	570.0/385.0	26.82
54	570.0/400.0	21.06
55	580.0/320.0	3.770
56	585.0/325.0	3.618

Data points
	220.0	225.0	230.0	235.0	240.0	245.0	250.0	255.0	260.0	265.0	270.0	275.0	280.0	285.0	290.0	295.0	300.0	305.0	310.0	315.0	320.0	325.0	330.0	335.0	340.0	345.0	350.0	355.0	360.0	365.0	370.0	375.0	380.0	385.0	390.0	395.0	400.0	405.0	410.0	415.0	420.0	425.0	430.0	435.0	440.0	445.0	450.0	455.0	460.0	465.0	470.0	475.0	480.0	485.0	490.0	495.0	500.0	505.0	510.0	515.0	520.0	525.0	530.0	535.0	540.0	545.0	550.0	555.0	560.0	565.0	570.0	575.0	580.0	585.0	590.0	595.0	600.0
230.0	18.67	61.97	156.0	70.18	9.643	5.405	4.668	4.334	3.749	3.587	3.423	2.948	2.998	2.334	1.666	1.382	1.216	1.078	0.892	0.852	0.832	0.736	0.782	0.777	0.674	0.711	0.844	0.826	0.610	0.738	0.802	0.771	0.529	0.433	0.371	0.355	0.351	0.401	0.373	0.308	0.313	0.321	0.308	0.274	0.280	0.274	0.276	0.449	0.670	0.533	0.355	0.274	0.212	0.266	0.235	0.244	0.240	0.233	0.224	0.215	0.234	0.252	0.252	0.207	0.227	0.237	0.248	0.225	0.240	0.255	0.252	0.239	0.233	0.296	0.277	0.241	0.249
235.0	17.14	28.48	117.8	368.3	231.4	23.06	5.842	4.590	3.711	3.576	3.436	3.298	3.287	2.404	1.780	1.203	1.359	1.246	0.950	0.710	0.764	0.669	0.779	0.801	0.757	0.784	0.853	0.915	0.686	0.665	0.790	0.753	0.608	0.468	0.352	0.302	0.383	0.397	0.329	0.347	0.300	0.328	0.324	0.288	0.249	0.270	0.297	0.300	0.407	0.565	1.244	1.772	1.167	0.533	0.238	0.232	0.284	0.297	0.261	0.236	0.273	0.243	0.235	0.276	0.246	0.254	0.254	0.234	0.221	0.256	0.221	0.262	0.219	0.232	0.252	0.258	0.242
240.0	22.61	21.10	42.37	461.4	678.3	307.6	16.45	5.789	4.201	4.412	3.863	3.377	3.584	2.151	2.041	1.219	1.378	1.123	0.968	0.935	0.808	0.752	0.851	0.713	0.800	0.719	0.880	0.829	0.701	0.807	0.761	0.763	0.578	0.493	0.310	0.397	0.364	0.341	0.355	0.350	0.354	0.356	0.306	0.259	0.278	0.248	0.313	0.246	0.264	0.316	0.795	2.428	4.337	4.603	1.971	0.407	0.303	0.384	0.243	0.251	0.253	0.256	0.232	0.270	0.263	0.282	0.257	0.182	0.260	0.268	0.234	0.259	0.220	0.230	0.312	0.276	0.230
245.0	24.67	22.94	24.92	202.4	1569	1715	255.9	10.29	5.126	5.250	4.442	3.794	3.566	2.219	1.871	1.616	1.492	1.444	1.116	0.935	0.872	0.754	0.844	0.764	0.802	0.668	0.802	0.960	0.734	0.770	0.870	0.781	0.628	0.433	0.385	0.390	0.305	0.346	0.354	0.347	0.298	0.403	0.313	0.294	0.293	0.302	0.285	0.272	0.282	0.255	0.369	1.059	3.294	8.779	11.85	6.500	1.769	0.327	0.238	0.274	0.234	0.259	0.294	0.256	0.305	0.255	0.313	0.226	0.274	0.329	0.267	0.260	0.238	0.193	0.296	0.271	0.283
250.0	23.75	26.64	46.95	80.94	612.9	2456	3043	878.5	50.84	6.633	5.602	4.537	3.944	2.933	2.021	1.808	1.472	1.287	1.156	0.948	1.011	0.750	0.850	0.900	0.769	0.706	0.924	0.931	0.743	0.867	0.870	0.862	0.601	0.474	0.347	0.372	0.379	0.320	0.342	0.383	0.393	0.400	0.381	0.286	0.329	0.292	0.333	0.317	0.312	0.326	0.360	0.492	1.008	3.204	8.200	15.07	21.82	17.61	9.669	2.236	0.409	0.294	0.284	0.294	0.273	0.261	0.305	0.263	0.252	0.280	0.259	0.246	0.237	0.237	0.322	0.269	0.298
255.0	28.97	24.19	48.56	130.5	198.5	704.9	3376	5048	1184	41.26	7.121	5.755	4.605	3.525	2.555	1.957	1.494	1.274	1.339	1.033	1.051	0.813	0.900	1.002	0.810	0.793	0.844	0.806	0.791	0.756	0.883	0.907	0.621	0.594	0.388	0.374	0.430	0.396	0.340	0.418	0.398	0.392	0.404	0.255	0.284	0.308	0.316	0.307	0.327	0.380	0.577	0.804	0.687	1.007	2.109	4.048	9.776	25.02	43.16	28.51	15.29	2.201	0.430	0.313	0.345	0.286	0.262	0.316	0.292	0.287	0.237	0.281	0.249	0.275	0.285	0.296	0.353
260.0	30.01	23.60	30.67	144.1	240.8	228.7	1221	5508	5335	257.8	21.12	6.893	5.333	4.710	3.079	2.182	1.748	1.470	1.556	1.100	1.049	0.901	1.036	1.025	0.921	0.902	0.916	0.907	0.813	0.803	1.082	1.032	0.626	0.604	0.390	0.421	0.374	0.399	0.348	0.380	0.366	0.348	0.347	0.238	0.288	0.313	0.331	0.300	0.302	0.260	0.481	0.996	1.131	0.937	0.900	1.279	2.647	7.944	23.28	45.59	60.67	26.09	11.36	1.229	0.397	0.317	0.353	0.415	0.299	0.321	0.279	0.254	0.320	0.275	0.309	0.252	0.325
265.0	30.38	21.04	21.97	87.16	307.9	262.4	346.7	2288	7576	4739	190.2	10.89	6.337	5.165	3.032	2.311	2.177	1.478	1.439	1.194	1.064	1.046	0.913	1.015	0.779	0.930	1.026	0.981	0.951	0.730	1.084	0.889	0.661	0.614	0.393	0.380	0.388	0.421	0.326	0.372	0.347	0.407	0.334	0.332	0.400	0.313	0.313	0.271	0.276	0.258	0.338	0.656	1.214	1.825	1.371	0.957	1.091	2.249	5.940	17.02	42.09	68.46	71.64	23.21	6.014	0.568	0.429	0.444	0.341	0.323	0.289	0.296	0.329	0.301	0.333	0.257	0.321
270.0	34.35	20.97	21.95	50.42	194.1	418.3	348.7	609.1	2921	7022	5571	736.3	35.02	7.278	4.035	2.911	2.593	1.908	1.657	1.445	1.301	0.995	1.080	1.065	0.965	0.927	1.106	1.118	0.889	0.832	0.977	0.965	0.720	0.621	0.527	0.443	0.441	0.451	0.421	0.383	0.407	0.390	0.351	0.365	0.391	0.367	0.322	0.327	0.320	0.278	0.361	0.500	0.687	1.232	1.825	2.176	1.912	1.487	1.958	4.310	10.78	23.69	45.23	62.39	54.77	54.61	15.70	6.253	0.715	0.401	0.376	0.335	0.353	0.310	0.309	0.310	0.373
275.0	35.68	22.49	26.01	44.94	115.4	270.9	574.0	417.1	709.9	1958	6792	9189	933.6	24.41	6.172	4.257	3.157	2.398	2.013	1.763	1.343	1.168	1.017	1.093	1.084	0.927	1.128	1.229	1.032	0.916	0.993	1.060	0.698	0.606	0.575	0.484	0.454	0.467	0.428	0.383	0.450	0.368	0.378	0.423	0.364	0.428	0.344	0.337	0.384	0.285	0.358	0.472	0.631	0.798	1.037	1.483	2.517	3.435	2.526	1.837	2.962	5.732	10.57	15.44	24.97	59.33	94.98	91.41	25.27	6.038	0.525	0.486	0.387	0.335	0.361	0.408	0.359
280.0	40.99	24.94	27.58	50.32	95.69	181.8	412.4	604.9	303.4	487.8	2295	9208	7650	140.4	12.39	5.679	3.922	3.058	2.184	1.785	1.550	1.327	1.233	1.224	1.091	0.938	1.243	1.291	0.987	0.922	1.060	1.216	0.745	0.613	0.702	0.544	0.487	0.464	0.425	0.460	0.405	0.394	0.442	0.388	0.326	0.459	0.352	0.326	0.297	0.305	0.354	0.518	0.542	0.699	0.822	0.972	1.440	2.621	3.508	2.997	1.804	1.850	2.889	3.898	6.143	16.73	42.92	87.14	106.5	33.98	19.73	2.858	0.516	0.429	0.486	0.425	0.352
285.0	49.63	27.92	32.31	52.57	91.39	141.9	227.3	538.9	364.9	191.4	581.2	3331	9818	5692	97.85	8.619	5.138	3.664	2.609	2.310	1.687	1.501	1.343	1.264	1.242	1.148	1.264	1.263	0.948	0.930	1.130	1.184	0.855	0.648	0.654	0.512	0.553	0.475	0.441	0.427	0.456	0.431	0.428	0.349	0.329	0.385	0.374	0.365	0.341	0.324	0.330	0.495	0.547	0.627	0.705	0.728	1.014	1.404	2.023	3.293	3.399	2.170	1.318	1.398	1.841	4.266	10.45	25.84	55.81	88.59	105.8	31.48	14.09	1.098	0.546	0.419	0.457
290.0	47.13	29.20	38.87	53.64	81.76	118.5	142.5	244.9	482.1	440.1	255.6	841.9	3228	6822	5642	420.6	17.87	4.916	3.609	2.954	2.126	1.722	1.652	1.346	1.383	1.274	1.297	1.254	1.093	1.116	1.285	1.205	0.871	0.653	0.673	0.591	0.569	0.455	0.456	0.403	0.465	0.445	0.369	0.354	0.330	0.357	0.366	0.415	0.386	0.336	0.358	0.491	0.539	0.604	0.703	0.707	0.823	0.965	1.090	1.480	2.235	3.017	3.043	2.406	1.450	1.595	3.049	6.388	13.50	25.58	48.59	62.88	82.31	64.07	20.76	10.66	1.625
295.0	45.58	28.24	41.17	56.04	84.97	111.0	118.8	136.8	227.5	570.7	534.2	322.7	816.3	1753	4730	6456	572.9	12.37	4.870	3.371	2.642	2.047	1.978	1.584	1.412	1.295	1.455	1.323	1.175	1.110	1.250	1.216	0.839	0.654	0.628	0.599	0.492	0.520	0.518	0.514	0.457	0.431	0.358	0.358	0.435	0.386	0.333	0.416	0.379	0.379	0.384	0.571	0.525	0.647	0.620	0.707	0.713	0.751	0.816	0.940	1.180	1.366	1.888	3.567	3.882	2.794	1.724	2.149	3.727	6.538	11.50	14.81	23.20	42.77	80.99	105.5	33.68
300.0	48.92	32.27	42.10	59.73	85.00	103.7	121.8	130.2	167.2	352.0	761.1	409.9	315.7	484.3	1425	5792	5278	80.13	7.218	4.587	3.292	2.678	1.951	1.644	1.513	1.409	1.378	1.417	1.234	1.151	1.413	1.286	0.848	0.670	0.630	0.566	0.524	0.525	0.504	0.441	0.519	0.388	0.380	0.451	0.440	0.348	0.324	0.437	0.402	0.394	0.396	0.581	0.552	0.652	0.690	0.651	0.808	0.814	0.898	0.798	0.899	0.952	1.106	2.013	3.431	4.486	3.208	1.665	1.762	2.515	3.345	3.942	5.870	10.71	26.78	65.20	98.17
305.0	48.74	33.60	41.84	61.99	92.31	113.5	141.1	148.4	180.0	256.6	582.7	744.9	298.1	232.9	404.8	1938	6251	3814	57.47	6.004	4.015	2.966	2.170	2.142	1.712	1.560	1.545	1.547	1.274	1.273	1.374	1.335	0.887	0.703	0.634	0.630	0.561	0.483	0.562	0.487	0.458	0.494	0.404	0.427	0.438	0.331	0.315	0.442	0.410	0.361	0.419	0.502	0.554	0.613	0.672	0.750	0.832	0.894	0.952	0.956	1.005	1.035	1.086	1.468	1.952	3.220	4.286	3.567	2.376	1.634	1.721	1.742	2.044	3.104	6.679	16.65	38.06
310.0	46.65	33.22	47.30	68.70	94.59	128.1	150.4	172.6	199.1	247.1	369.1	632.8	626.7	279.2	198.2	508.3	1974	4246	3743	282.8	12.08	3.899	2.968	2.471	1.950	1.720	1.678	1.563	1.321	1.275	1.448	1.341	1.039	0.739	0.776	0.640	0.546	0.560	0.494	0.530	0.465	0.484	0.500	0.420	0.422	0.386	0.320	0.406	0.358	0.367	0.449	0.624	0.636	0.668	0.710	0.742	0.899	0.948	0.970	1.039	1.099	1.134	1.293	1.337	1.501	1.919	2.422	3.102	3.641	3.434	2.416	1.673	1.377	1.468	2.171	4.507	9.194
315.0	45.87	34.11	46.78	77.64	104.6	140.9	158.0	184.8	215.1	258.7	316.2	403.7	583.1	585.1	216.3	197.1	500.9	1067	3093	4289	397.4	8.901	4.380	3.004	2.068	1.924	1.827	1.673	1.497	1.332	1.502	1.441	1.062	0.838	0.735	0.560	0.508	0.614	0.501	0.577	0.470	0.556	0.476	0.399	0.411	0.394	0.388	0.406	0.349	0.405	0.519	0.655	0.610	0.701	0.776	0.801	0.960	0.961	0.933	1.157	1.132	1.266	1.289	1.362	1.496	1.608	1.888	2.161	2.087	2.777	3.901	3.446	2.270	1.378	1.340	1.710	2.757
320.0	46.83	37.51	46.21	85.88	113.4	141.6	162.5	193.7	222.7	273.3	314.7	355.3	413.4	637.0	403.0	146.3	181.3	282.1	902.4	3860	3548	60.28	6.264	3.584	2.664	2.294	2.147	1.932	1.611	1.501	1.577	1.572	1.189	0.848	0.782	0.583	0.646	0.610	0.522	0.528	0.567	0.467	0.437	0.384	0.438	0.378	0.381	0.407	0.337	0.369	0.462	0.601	0.673	0.667	0.745	0.784	1.064	1.010	1.116	1.138	1.284	1.287	1.407	1.539	1.393	1.500	1.673	1.991	1.884	1.904	2.697	3.482	3.770	2.554	1.510	1.171	1.495
325.0	55.38	40.75	60.39	93.98	126.2	146.4	180.0	207.1	239.0	283.1	321.2	360.3	361.6	459.4	557.8	234.8	120.5	115.0	237.6	1278	4199	2615	46.31	4.755	3.382	2.651	2.152	2.170	1.759	1.685	1.779	1.640	1.053	0.926	0.758	0.607	0.621	0.632	0.480	0.580	0.577	0.398	0.393	0.400	0.429	0.418	0.297	0.404	0.443	0.427	0.458	0.593	0.636	0.748	0.800	0.849	1.053	1.049	1.136	1.051	1.196	1.380	1.523	1.603	1.542	1.699	1.679	1.915	1.759	1.883	2.017	2.344	3.191	3.618	2.801	1.571	1.295
330.0	52.49	41.98	69.38	107.2	146.2	163.9	190.5	216.1	248.1	298.1	332.8	364.1	355.8	347.7	415.9	420.2	206.9	95.19	98.60	322.3	1331	3060	2732	226.7	10.65	3.362	2.711	2.417	1.825	1.622	1.879	1.683	1.054	0.945	0.822	0.659	0.633	0.636	0.517	0.528	0.497	0.461	0.417	0.418	0.381	0.407	0.293	0.395	0.431	0.404	0.522	0.696	0.745	0.861	0.912	0.910	1.052	1.081	1.087	1.096	1.278	1.375	1.432	1.616	1.520	1.740	1.733	1.740	1.816	1.920	1.921	1.860	2.085	2.377	2.657	2.903	2.439
335.0	56.79	44.53	77.65	133.4	176.3	198.6	210.3	232.1	262.4	307.8	348.9	374.8	366.9	331.3	304.0	337.5	393.2	168.1	84.51	119.7	332.0	767.1	2387	3399	330.6	7.935	3.825	2.961	2.230	1.896	1.995	1.808	1.352	0.969	0.868	0.787	0.622	0.623	0.545	0.481	0.519	0.392	0.408	0.415	0.383	0.408	0.349	0.387	0.451	0.439	0.559	0.766	0.795	0.948	0.921	1.018	1.115	1.078	1.160	1.201	1.376	1.428	1.586	1.577	1.544	1.850	1.635	1.803	1.805	1.823	1.898	1.859	1.817	1.884	1.932	2.010	2.405
340.0	56.21	41.58	86.21	140.1	195.6	213.9	226.6	249.3	281.7	314.5	359.0	382.7	374.5	334.0	285.9	261.1	365.7	314.1	117.0	85.89	119.5	204.5	694.5	3068	2890	52.31	5.699	3.458	2.651	2.360	2.064	2.031	1.254	0.977	0.860	0.675	0.776	0.669	0.622	0.504	0.443	0.482	0.423	0.429	0.403	0.437	0.326	0.370	0.435	0.488	0.571	0.822	0.875	0.953	0.957	1.067	1.224	1.213	1.305	1.358	1.475	1.394	1.585	1.779	1.937	1.857	1.854	1.729	2.013	1.797	1.907	1.919	1.872	1.623	1.819	1.648	1.734
345.0	57.86	49.14	86.39	152.7	212.1	234.0	249.5	276.2	295.0	321.1	360.2	386.5	374.6	341.3	295.7	244.9	266.2	373.2	217.4	99.29	84.92	88.71	187.5	993.2	3374	2177	41.57	4.409	2.905	2.479	2.376	2.044	1.340	1.077	0.877	0.723	0.708	0.620	0.611	0.521	0.531	0.476	0.480	0.416	0.362	0.400	0.369	0.420	0.416	0.486	0.621	0.742	0.937	1.014	1.081	1.115	1.161	1.260	1.364	1.501	1.536	1.599	1.508	1.776	1.840	1.733	1.842	1.877	1.993	1.724	1.910	2.127	1.851	1.781	1.858	1.618	1.583
350.0	49.28	52.61	84.03	162.2	244.3	273.5	276.4	296.7	310.5	337.1	367.7	385.1	378.2	354.2	305.4	261.7	235.7	274.7	317.0	204.3	108.0	83.21	87.94	256.7	1050	2340	2181	206.8	11.07	3.179	2.991	2.527	1.625	1.180	0.902	0.749	0.704	0.675	0.594	0.530	0.497	0.486	0.487	0.489	0.409	0.401	0.381	0.415	0.387	0.479	0.589	0.821	0.952	1.140	1.186	1.243	1.438	1.363	1.459	1.523	1.585	1.536	1.650	1.748	1.857	1.781	1.686	1.897	1.926	1.757	1.976	2.001	1.928	1.834	1.831	1.700	1.724
355.0	48.59	42.19	86.84	168.0	264.0	314.0	313.3	322.6	336.7	351.3	373.5	383.2	384.7	361.6	313.7	280.3	249.9	237.1	262.3	323.1	200.2	110.2	88.28	107.2	269.9	580.6	1693	2693	321.2	10.65	4.838	4.106	2.300	1.451	0.971	0.827	0.798	0.731	0.558	0.544	0.535	0.524	0.404	0.407	0.382	0.391	0.418	0.435	0.446	0.456	0.626	0.888	1.101	1.283	1.374	1.302	1.533	1.546	1.674	1.634	1.590	1.727	1.795	1.965	1.756	1.945	1.865	1.876	2.014	1.841	1.909	2.134	2.022	1.875	2.023	1.796	1.740
360.0	50.33	47.37	87.03	173.7	281.0	337.6	345.4	342.6	357.7	369.8	393.1	391.9	395.6	372.9	333.0	294.1	268.5	245.9	238.1	296.1	306.2	165.9	107.2	92.25	108.8	166.1	482.4	2186	2426	52.30	10.93	8.265	3.848	1.698	0.943	0.814	0.800	0.620	0.745	0.564	0.577	0.498	0.411	0.417	0.427	0.416	0.368	0.459	0.427	0.500	0.620	0.880	1.140	1.357	1.531	1.488	1.622	1.577	1.730	1.698	1.803	1.904	1.914	1.952	1.790	1.866	1.968	1.891	2.066	2.009	1.963	2.042	1.868	1.893	1.983	1.906	1.741
365.0	48.80	40.61	93.90	194.0	310.5	380.8	376.1	370.1	379.7	399.1	419.7	422.1	431.7	391.5	344.1	314.2	287.9	268.6	249.7	257.6	327.9	266.7	148.1	111.9	98.88	88.62	154.9	693.6	2533	1960	46.82	25.17	10.22	3.073	1.204	0.948	0.870	0.655	0.694	0.577	0.532	0.527	0.423	0.525	0.400	0.456	0.401	0.461	0.445	0.463	0.620	0.921	1.178	1.335	1.584	1.605	1.684	1.937	1.924	1.782	1.908	1.954	1.899	1.994	2.023	2.065	1.962	2.040	2.125	2.043	2.076	2.064	1.936	2.053	2.019	2.082	2.024
370.0	51.77	51.29	114.8	289.8	516.8	537.0	468.5	460.7	500.2	562.6	703.6	698.4	900.0	653.3	395.5	342.9	321.4	308.3	293.0	292.4	320.3	366.4	333.1	274.6	242.5	239.1	288.6	409.8	942.6	2076	2247	855.9	130.7	24.31	5.416	2.034	1.143	0.923	0.836	0.636	0.613	0.545	0.522	0.539	0.480	0.450	0.448	0.450	0.494	0.541	0.878	1.284	1.980	2.394	2.650	2.116	2.119	2.290	2.170	2.063	2.296	2.526	2.313	2.697	3.148	3.533	3.292	3.080	3.382	4.780	4.685	3.381	2.491	2.357	2.270	2.215	2.117
375.0	73.28	77.86	209.8	651.0	1385	1493	857.2	728.7	882.2	1138	1729	1606	2844	1644	556.6	417.9	394.1	393.1	388.2	428.8	486.8	521.1	714.7	857.6	762.2	839.7	1317	1485	1178	1502	2987	3965	1159	143.3	20.89	6.016	2.968	1.624	1.189	0.947	0.910	0.800	0.777	0.652	0.660	0.539	0.536	0.641	0.738	1.044	1.698	2.856	4.442	5.977	6.367	4.871	3.738	3.384	3.227	3.084	3.774	4.338	3.990	4.710	7.141	8.829	7.704	6.395	8.640	14.17	15.25	7.717	4.016	3.196	2.763	2.763	2.550
380.0	78.14	95.95	310.2	930.0	2111	2251	1176	940.2	1218	1678	2654	2578	4487	2477	686.7	479.8	449.4	461.1	472.5	543.0	643.5	701.0	977.2	1347	1252	1388	2185	2423	1758	1919	3170	4425	2869	340.5	36.49	9.003	3.993	2.126	1.485	1.220	1.155	1.042	1.036	0.855	0.823	0.664	0.616	0.732	0.969	1.386	2.196	4.391	6.405	9.124	9.881	7.180	5.188	4.285	3.843	4.312	4.957	5.724	5.928	7.121	10.33	13.06	11.12	9.596	12.95	21.86	23.64	11.48	5.170	3.648	3.268	3.172	3.041
385.0	85.58	96.89	352.3	1090	2446	2638	1318	1064	1376	1909	3097	3040	5251	2869	756.0	508.2	480.4	493.0	512.5	599.6	721.3	787.8	1084	1533	1525	1670	2598	2880	2070	2210	3450	3797	2917	1771	177.4	11.22	4.704	2.415	1.775	1.369	1.175	1.087	1.006	0.945	0.774	0.871	0.726	0.726	1.062	1.487	2.622	4.872	7.059	10.73	11.39	8.070	5.816	4.853	4.550	4.487	5.525	6.358	6.787	8.425	11.66	15.54	12.95	11.49	15.40	25.91	26.82	13.05	5.935	4.078	3.279	3.085	3.225
390.0	77.32	86.00	286.0	903.4	1970	2132	1148	912.3	1163	1560	2492	2434	4148	2334	661.8	464.5	438.7	452.1	467.2	535.7	627.2	677.6	894.0	1211	1245	1397	2090	2293	1642	1737	2695	2762	1427	1429	1371	161.1	12.93	2.467	1.936	1.355	1.087	1.054	0.915	0.849	0.744	0.769	0.657	0.709	0.945	1.284	2.237	3.951	5.792	8.797	9.236	6.632	5.070	4.142	3.911	3.857	4.742	5.562	5.693	6.749	9.694	12.46	10.27	9.270	11.98	20.72	21.52	10.80	5.238	3.519	3.013	2.882	2.865
395.0	77.77	80.99	258.8	822.2	1789	1963	1078	862.4	1086	1439	2288	2215	3746	2119	617.3	442.1	418.8	428.4	442.6	512.9	594.5	639.4	829.7	1110	1110	1301	1972	2112	1505	1587	2448	2458	974.6	485.5	797.4	1523	264.5	11.81	2.202	1.405	1.210	0.873	0.919	0.772	0.731	0.733	0.669	0.763	0.907	1.188	2.034	3.590	5.444	8.274	8.407	6.271	4.685	3.877	3.686	3.939	4.455	5.013	5.204	6.382	8.974	11.44	9.257	8.511	11.06	18.72	19.69	9.713	4.725	3.329	2.746	2.791	2.633
400.0	68.91	89.09	274.4	858.7	1925	2060	1128	904.7	1148	1530	2444	2383	4007	2230	630.6	442.5	413.2	429.8	448.8	527.6	623.1	672.4	888.5	1195	1185	1373	2161	2313	1651	1729	2667	2642	968.1	291.1	232.8	984.4	1395	210.7	5.552	1.716	1.310	1.067	1.027	0.845	0.839	0.739	0.635	0.718	0.912	1.279	2.186	3.873	6.036	8.462	8.932	6.375	4.919	4.006	3.545	3.900	4.720	5.066	5.697	6.520	9.498	11.67	9.892	8.808	11.98	20.30	21.06	10.19	4.902	3.317	2.843	2.949	2.588
405.0	69.08	82.65	280.4	864.5	1913	2039	1120	916.9	1131	1516	2424	2350	3990	2226	621.7	424.1	405.3	420.9	438.1	516.8	610.0	665.8	883.9	1186	1175	1346	2130	2348	1672	1729	2663	2644	959.7	246.2	89.03	273.4	1086	1208	35.44	2.997	1.343	1.396	1.006	0.919	0.819	0.776	0.719	0.757	0.847	1.147	2.157	3.746	5.565	8.079	8.910	6.407	4.796	4.191	3.675	3.663	4.424	5.446	5.706	6.492	9.459	11.89	9.582	8.565	11.57	19.55	20.80	10.00	5.092	3.242	2.692	2.884	2.529
410.0	56.45	69.14	206.6	655.0	1422	1563	917.9	774.0	924.0	1189	1809	1764	2903	1668	521.8	375.1	355.6	366.6	382.7	433.3	502.3	539.2	694.8	903.9	894.4	1006	1543	1725	1272	1282	1925	1911	701.4	183.9	52.02	76.93	292.0	830.0	1004	347.6	10.85	1.488	1.082	0.976	0.746	0.702	0.612	0.625	0.750	0.994	1.757	2.928	4.288	6.170	6.745	5.145	3.806	3.428	3.145	3.404	3.694	4.482	4.588	5.347	6.948	8.948	7.444	6.819	8.667	14.70	15.39	7.712	3.926	2.829	2.500	2.501	2.407
415.0	45.97	48.65	159.5	481.6	1009	1140	728.0	645.0	737.1	914.5	1308	1259	1978	1178	429.6	324.0	308.7	318.0	328.5	359.5	406.1	429.1	528.4	665.1	660.0	722.2	1058	1163	887.2	921.4	1307	1274	478.5	138.5	43.61	34.57	76.93	195.9	490.9	1130	248.9	11.54	1.201	0.917	0.682	0.692	0.585	0.511	0.640	0.853	1.280	2.219	3.217	4.351	4.849	3.792	3.083	2.972	2.686	2.818	3.193	3.385	3.730	3.875	5.186	6.183	5.691	5.138	6.027	10.08	10.57	5.530	3.213	2.435	2.275	2.164	2.151
420.0	44.45	46.35	140.8	411.8	872.7	999.4	676.0	594.3	679.4	821.2	1145	1108	1685	1010	389.8	301.0	287.2	291.8	299.5	329.6	363.3	389.5	469.3	582.2	572.9	633.4	901.7	983.4	742.6	798.6	1126	1071	410.8	126.3	43.59	27.98	30.51	52.66	124.3	633.7	1086	203.8	5.002	1.086	0.775	0.628	0.594	0.519	0.547	0.791	1.190	1.920	2.810	3.814	4.177	3.442	2.810	2.553	2.492	2.992	2.881	3.095	3.510	3.640	4.993	5.280	4.754	4.338	5.285	8.671	8.663	4.949	2.948	2.255	1.994	1.883	1.859
425.0	44.44	42.80	127.2	386.9	819.9	926.8	633.9	578.1	660.2	776.2	1065	1023	1552	930.9	368.3	288.8	273.4	277.1	281.2	308.6	344.9	366.5	441.8	538.6	535.0	588.4	835.8	904.7	679.9	723.9	1060	1001	388.0	122.9	45.92	28.93	22.20	22.57	34.89	166.7	747.9	954.8	33.97	2.126	0.946	0.700	0.676	0.551	0.535	0.720	1.070	1.871	2.683	3.927	3.972	3.245	2.762	2.450	2.479	2.712	2.695	3.270	3.193	3.090	4.773	5.131	4.580	3.963	5.103	7.782	8.128	4.614	2.727	2.023	1.835	1.845	1.872
430.0	59.21	39.87	112.9	328.6	698.6	796.8	578.4	531.1	600.8	687.0	906.1	864.5	1268	783.0	331.8	264.8	250.6	251.0	255.2	278.3	306.2	321.6	381.1	458.4	455.0	496.0	688.6	738.5	557.3	578.7	843.6	829.3	335.5	113.8	49.68	32.10	23.78	18.14	16.93	43.77	193.9	589.1	781.5	304.0	10.20	0.968	0.717	0.637	0.592	0.695	0.904	1.652	2.239	2.951	3.490	2.834	2.522	2.299	2.354	2.363	2.637	2.945	2.887	2.941	3.897	4.418	3.963	3.330	4.313	6.268	6.554	3.886	2.417	1.905	1.904	1.799	1.735
435.0	79.07	34.07	90.18	255.8	522.1	616.6	509.1	484.2	531.6	580.7	715.8	672.7	914.6	591.8	292.1	239.8	227.4	225.2	225.7	240.4	261.7	273.2	306.5	361.1	356.2	376.4	502.4	529.4	417.5	422.5	576.9	576.1	275.1	108.6	52.81	36.57	26.46	20.10	15.21	17.65	49.09	137.3	360.0	943.7	234.1	11.95	1.036	0.738	0.687	0.568	0.844	1.417	1.929	2.313	2.662	2.442	2.280	2.198	2.277	2.201	2.464	2.461	2.568	2.588	2.989	3.557	3.137	2.768	3.512	4.517	4.959	2.905	2.013	1.855	1.624	1.573	1.570
440.0	108.6	42.70	74.13	215.5	445.9	536.0	470.8	455.0	494.4	519.5	612.8	569.3	727.1	488.6	269.3	221.8	212.6	205.9	209.0	217.4	234.2	242.6	267.1	303.0	302.6	314.4	402.3	417.9	334.1	339.9	442.2	427.9	231.3	118.1	57.94	40.09	29.10	22.03	16.26	13.13	17.50	35.59	89.86	521.3	945.4	194.7	4.789	0.836	0.725	0.648	0.731	1.285	1.611	2.012	2.278	2.052	2.068	1.950	2.112	2.100	2.267	2.385	2.394	2.425	2.573	2.953	2.841	2.545	2.807	3.625	3.750	2.456	1.876	1.728	1.460	1.429	1.536
445.0	98.18	56.86	74.52	194.6	383.1	476.6	426.6	435.1	466.7	487.5	543.7	514.9	621.3	423.2	253.8	215.8	196.4	194.8	196.2	198.7	212.5	217.9	244.0	270.2	267.3	277.7	343.1	356.9	291.8	292.6	367.9	350.5	192.1	124.1	70.47	43.67	32.48	24.78	17.92	13.29	11.94	13.69	24.35	136.4	663.3	874.0	28.82	2.062	0.772	0.702	0.717	1.108	1.400	1.812	1.829	1.882	1.943	1.796	1.869	2.052	2.071	2.182	2.241	2.292	2.444	2.433	2.470	2.430	2.391	3.143	3.212	2.208	1.707	1.611	1.438	1.370	1.716
450.0	61.22	91.17	72.72	174.1	340.0	424.5	404.7	409.1	428.9	449.1	498.0	460.6	530.8	371.8	231.3	198.1	179.2	176.5	175.4	179.8	190.2	195.3	215.3	235.9	236.3	244.9	293.6	304.6	254.0	252.7	309.3	291.3	159.3	107.5	86.08	55.88	35.84	26.81	19.95	15.26	11.50	9.840	10.40	34.40	171.0	537.1	720.2	278.2	8.539	0.810	0.830	1.063	1.384	1.633	1.876	1.822	1.852	1.763	1.741	1.746	2.005	1.988	2.051	2.113	2.223	2.230	2.313	2.105	2.141	2.652	2.772	2.004	1.532	1.595	1.326	1.298	1.414
455.0	39.06	81.62	98.42	149.4	284.5	375.8	370.6	375.7	395.1	405.0	434.3	401.4	447.0	322.1	209.2	176.6	161.9	158.2	158.6	160.4	168.3	174.2	184.4	201.5	199.2	206.3	241.0	252.7	214.9	213.1	252.8	237.5	133.5	88.51	79.27	71.19	43.02	29.47	22.60	17.26	12.98	9.750	7.812	11.91	41.46	123.7	311.4	860.4	195.0	10.02	1.001	1.101	1.372	1.442	1.582	1.605	1.727	1.701	1.730	1.726	1.774	1.792	1.957	1.820	2.149	2.155	1.863	1.891	1.896	2.287	2.345	1.772	1.340	1.407	1.239	1.245	1.283
460.0	31.67	56.71	134.4	138.2	265.5	321.7	342.5	347.8	373.3	375.7	398.3	359.9	379.9	278.0	195.5	163.3	149.7	145.2	145.1	145.1	151.8	156.2	164.2	175.3	174.8	180.5	205.2	211.4	185.0	183.2	208.9	196.6	117.9	79.61	66.93	69.97	54.91	32.15	23.57	18.50	14.35	10.54	7.876	7.335	12.94	30.58	76.01	471.9	769.4	149.6	4.647	1.219	1.143	1.394	1.516	1.543	1.603	1.564	1.622	1.752	1.528	1.727	1.932	1.600	1.834	1.876	1.804	1.702	1.670	2.030	1.925	1.571	1.225	1.331	1.309	1.123	1.099
465.0	30.05	40.34	135.9	165.5	242.1	291.7	319.3	324.4	336.3	343.3	351.3	324.7	329.9	247.2	180.2	153.9	140.2	133.1	131.1	132.5	136.5	138.3	146.3	156.2	155.0	156.3	176.0	180.4	162.7	159.0	175.6	165.5	106.2	73.42	60.14	58.97	60.08	39.91	24.57	18.35	14.53	11.17	8.606	6.795	6.838	9.895	19.52	123.1	537.8	668.2	116.0	2.291	1.174	1.396	1.421	1.417	1.677	1.506	1.544	1.718	1.583	1.619	1.748	1.710	1.663	1.692	1.732	1.469	1.469	1.734	1.798	1.566	1.358	1.285	1.128	1.068	1.199
470.0	26.64	29.47	100.1	257.5	237.0	260.6	285.1	297.1	300.4	310.6	307.8	284.8	275.8	214.4	160.1	137.0	126.1	118.6	115.4	116.4	118.7	120.0	126.5	132.1	132.2	134.3	145.7	148.8	136.7	133.3	143.6	132.7	91.44	67.94	55.18	48.42	50.01	47.41	30.73	20.01	15.36	12.01	9.240	6.950	5.670	5.626	7.155	29.87	138.0	405.3	549.2	221.1	8.606	1.519	1.278	1.292	1.386	1.439	1.382	1.553	1.477	1.603	1.630	1.624	1.570	1.505	1.486	1.353	1.365	1.541	1.566	1.303	1.137	1.155	1.018	0.946	1.017
475.0	25.67	24.07	55.85	323.6	381.9	231.8	250.5	268.1	277.8	276.7	280.0	248.8	236.5	184.6	144.1	120.7	109.5	103.6	100.6	102.0	102.7	104.4	109.5	112.6	111.3	113.7	120.6	124.8	115.7	112.9	118.9	110.9	80.53	62.84	51.26	43.28	38.98	40.81	39.12	24.06	15.96	12.04	9.719	7.656	5.876	4.834	4.526	9.098	32.79	92.65	221.4	567.8	185.0	10.17	1.447	1.346	1.223	1.400	1.365	1.444	1.414	1.352	1.450	1.455	1.529	1.416	1.285	1.214	1.319	1.250	1.300	1.005	0.999	1.063	0.995	0.868	0.889
480.0	25.63	23.52	41.71	284.1	616.1	258.3	226.2	240.8	251.8	253.6	256.6	230.8	213.9	171.1	132.4	112.5	100.3	94.23	92.80	92.10	92.41	94.03	97.90	100.3	98.74	102.6	106.0	109.2	105.2	100.4	105.1	96.77	74.22	57.87	48.78	41.63	36.22	34.19	38.27	29.82	17.06	12.11	10.13	7.643	6.057	4.976	4.117	4.511	9.367	22.50	53.70	287.5	572.4	158.8	4.271	1.464	1.267	1.280	1.196	1.379	1.291	1.282	1.197	1.257	1.252	1.302	1.179	1.141	1.109	1.141	1.149	1.016	0.882	1.033	0.928	0.826	0.909
485.0	31.04	22.97	30.30	197.6	811.3	435.6	215.8	226.4	229.7	234.5	233.9	215.2	193.3	154.6	122.0	103.7	92.04	88.84	84.60	85.07	83.76	86.41	88.44	92.10	89.78	92.09	97.41	98.31	93.06	92.45	94.59	86.72	68.75	54.90	46.34	39.87	34.02	29.50	32.00	33.70	21.44	12.82	9.984	8.115	6.254	5.357	4.345	3.814	4.284	6.900	13.59	73.79	386.5	552.3	27.49	2.309	1.300	1.237	1.302	1.291	1.211	1.177	1.127	1.096	1.334	1.182	1.134	1.177	1.033	1.096	1.181	0.892	0.892	0.979	0.865	0.779	0.804
490.0	29.23	25.76	29.74	100.6	738.6	953.0	289.0	211.3	211.0	212.2	212.8	193.3	171.6	140.4	110.7	94.58	84.11	79.85	75.92	75.91	75.00	76.65	78.69	79.81	80.56	81.37	84.94	85.99	81.32	82.16	82.34	75.40	61.12	50.23	43.17	37.13	31.43	26.99	25.60	28.25	26.73	16.66	10.75	8.193	6.711	5.580	4.580	3.901	3.380	3.504	4.705	17.96	99.36	317.5	447.0	121.5	9.797	1.346	1.275	1.196	1.154	1.170	1.135	1.064	1.200	1.061	1.015	1.051	1.008	0.998	1.049	0.926	0.907	0.820	0.888	0.784	0.748
495.0	27.63	24.87	30.94	68.17	350.2	1317	674.7	188.3	197.2	190.1	188.9	167.8	149.7	122.5	98.34	86.27	73.50	71.31	66.62	66.72	66.49	66.53	68.36	69.26	69.51	70.26	72.64	73.32	70.12	69.97	70.93	64.55	53.95	45.78	39.30	34.25	29.76	24.99	22.48	20.55	23.87	22.09	13.29	8.392	7.241	5.986	4.717	4.160	3.441	2.875	2.759	5.693	23.61	72.88	202.8	526.4	206.3	11.20	1.333	1.166	1.152	1.069	1.071	1.019	1.086	1.040	0.914	0.982	0.927	0.976	0.903	0.794	0.843	0.820	0.771	0.692	0.801
500.0	25.83	23.28	34.67	58.46	159.5	1156	1180	234.5	177.3	173.8	171.3	150.3	139.0	114.7	89.51	77.17	67.99	66.32	60.65	60.29	59.39	58.57	60.70	61.92	61.80	60.92	64.17	64.31	63.03	62.55	61.87	56.96	48.34	42.65	36.13	31.56	27.15	23.89	20.70	18.11	18.77	22.29	17.05	9.473	7.143	6.138	4.914	4.289	3.421	2.894	2.350	2.685	6.573	17.59	49.87	272.1	564.6	166.3	5.019	1.217	1.057	1.053	1.081	1.099	1.055	1.054	0.911	0.957	0.958	0.861	0.781	0.804	0.754	0.700	0.728	0.638	0.723
505.0	25.56	20.11	42.61	60.52	106.7	689.7	1603	390.0	163.9	158.8	155.5	136.7	125.6	99.27	81.04	70.99	61.99	57.89	54.33	53.28	54.47	53.12	55.53	55.53	54.48	55.50	56.81	58.27	57.07	56.59	55.69	51.37	44.84	38.54	33.32	29.63	25.05	21.95	19.22	15.91	15.14	18.23	18.85	11.93	7.009	5.770	4.841	4.369	3.219	3.020	2.363	2.164	2.990	5.392	12.53	70.24	362.4	518.5	30.45	2.195	1.091	1.084	1.004	0.980	0.998	0.964	0.930	0.873	0.908	0.869	0.719	0.824	0.768	0.756	0.715	0.632	0.598
510.0	25.51	16.96	37.93	72.71	91.28	255.8	1383	1137	211.9	138.9	135.6	123.1	109.9	88.81	71.50	62.29	54.68	49.74	47.30	46.25	47.15	46.10	47.54	47.75	47.22	48.41	49.65	50.21	48.74	48.99	48.34	44.56	38.54	33.72	30.10	26.30	22.59	19.88	17.31	15.03	13.44	13.25	15.91	15.11	9.456	5.969	4.888	4.176	3.434	2.914	2.452	2.223	2.074	2.521	4.113	16.97	92.87	290.1	389.7	127.1	9.591	1.171	1.003	0.889	0.972	0.865	0.803	0.795	0.840	0.713	0.673	0.648	0.713	0.670	0.625	0.640	0.630
515.0	25.11	18.60	26.96	79.38	95.23	129.6	566.4	1774	593.4	123.6	117.8	110.8	93.13	77.89	60.87	53.70	47.30	43.31	40.23	39.58	40.81	39.10	39.55	41.33	40.70	40.25	41.44	41.81	41.47	40.59	41.50	37.72	33.67	29.33	25.39	22.99	19.75	17.74	15.82	13.05	11.97	10.22	11.05	13.50	12.92	7.542	4.930	3.991	3.446	2.925	2.389	2.328	1.857	1.783	2.175	4.930	21.80	66.41	162.6	419.2	197.3	10.79	1.062	0.853	0.927	0.716	0.764	0.774	0.800	0.622	0.694	0.570	0.668	0.649	0.565	0.603	0.509
520.0	26.21	17.49	19.48	77.40	105.1	100.5	213.8	1596	1208	155.8	103.4	96.23	82.12	67.29	55.93	48.90	41.64	38.56	35.50	35.12	36.05	35.55	34.69	35.89	37.02	34.84	35.87	37.20	36.43	35.75	36.23	33.13	29.73	26.25	23.00	20.32	18.51	16.26	14.44	12.65	10.46	9.489	8.290	10.19	13.29	9.742	5.112	3.690	3.161	2.732	2.231	2.152	2.052	1.662	1.783	2.068	5.865	15.81	39.65	210.8	436.7	152.9	4.837	1.008	0.814	0.684	0.724	0.687	0.690	0.631	0.607	0.674	0.608	0.627	0.563	0.582	0.545
525.0	23.37	16.72	16.81	58.27	123.2	92.17	123.5	895.2	1834	281.4	96.19	84.77	74.11	60.25	50.69	43.23	37.31	34.84	32.58	31.43	31.09	31.97	30.47	31.58	32.08	31.43	31.87	32.84	31.80	31.46	30.95	29.68	26.59	23.24	20.90	18.01	16.86	14.70	13.05	11.45	9.627	8.523	7.505	7.833	10.76	11.40	6.463	3.778	3.030	2.635	2.245	2.043	2.169	1.846	1.568	1.413	2.253	4.637	9.802	54.11	261.2	403.1	31.26	2.031	0.808	0.752	0.684	0.650	0.638	0.643	0.623	0.578	0.567	0.569	0.561	0.530	0.454
530.0	24.16	17.27	17.62	38.79	113.9	113.8	92.07	296.2	1640	1109	138.1	75.50	65.37	51.99	43.59	37.64	32.47	30.32	28.37	26.87	26.55	26.80	26.57	26.90	26.52	27.34	27.24	27.51	27.32	26.81	26.39	25.48	22.21	20.28	18.33	15.53	14.63	12.81	11.32	9.704	8.624	7.330	6.536	6.358	7.021	9.478	8.361	4.806	3.210	2.492	2.074	1.795	1.848	1.947	1.582	1.310	1.464	2.005	3.151	12.97	66.10	213.9	253.1	123.8	9.979	0.782	0.668	0.630	0.565	0.592	0.556	0.568	0.464	0.467	0.492	0.516	0.461
535.0	27.83	17.17	16.95	27.03	78.61	140.2	84.97	125.6	635.7	1868	471.6	66.62	55.78	45.97	37.02	31.22	27.17	24.69	23.78	22.91	23.04	22.49	22.71	22.67	22.53	22.93	22.31	23.35	23.33	23.18	22.23	21.09	19.55	17.10	15.19	13.37	12.05	10.83	9.649	8.539	7.661	6.622	5.598	5.507	4.999	5.987	8.513	6.827	3.711	2.295	1.904	1.632	1.644	1.639	1.818	1.490	1.331	1.239	1.508	3.731	15.49	48.91	103.1	305.2	180.8	11.58	0.685	0.640	0.514	0.578	0.481	0.491	0.453	0.496	0.416	0.452	0.433
540.0	24.28	16.52	16.52	27.15	53.16	141.9	94.87	76.59	205.3	1610	1109	86.14	48.80	39.69	32.45	27.53	23.80	22.66	21.10	19.83	20.08	19.30	20.09	20.06	19.55	19.85	20.11	20.51	19.42	19.98	19.31	18.42	16.46	14.48	13.26	12.01	10.47	9.851	8.714	8.003	6.728	5.910	5.183	4.718	4.431	4.360	6.162	7.169	4.474	2.449	1.836	1.610	1.515	1.392	1.605	1.804	1.159	1.099	1.191	1.558	4.063	11.53	25.07	141.6	321.8	131.5	5.153	0.702	0.568	0.494	0.566	0.466	0.374	0.429	0.394	0.446	0.483
545.0	23.47	16.53	14.58	22.04	39.40	116.1	117.2	63.66	91.86	823.6	1754	191.0	45.42	35.87	28.40	24.98	21.81	20.42	17.72	17.60	17.98	17.52	17.23	17.48	16.78	17.05	17.35	17.70	17.02	17.37	16.99	16.22	14.70	12.96	11.26	10.64	9.597	8.366	7.403	6.801	6.015	5.332	4.605	4.392	3.671	3.439	3.902	6.278	5.602	3.203	1.782	1.408	1.351	1.256	1.412	1.604	1.413	1.018	1.005	1.002	1.633	3.210	6.202	35.54	176.3	277.5	32.04	2.259	0.594	0.488	0.490	0.542	0.423	0.439	0.328	0.396	0.436
550.0	22.00	15.04	12.80	19.71	32.70	71.55	130.4	67.45	59.35	250.2	1411	906.3	64.01	29.64	23.99	20.43	18.67	16.58	15.45	14.94	14.57	14.23	14.24	14.26	13.88	13.98	14.31	14.60	14.33	13.94	14.26	13.49	11.80	10.73	9.517	8.651	7.975	7.096	6.147	5.508	5.021	4.469	3.971	3.649	3.325	2.950	2.795	3.846	5.171	4.152	2.216	1.394	1.233	1.159	1.192	1.213	1.420	1.258	1.005	0.819	0.987	1.277	1.904	8.545	43.46	134.4	202.5	105.7	10.39	0.590	0.458	0.454	0.469	0.422	0.385	0.414	0.405
555.0	20.28	14.52	11.23	17.48	28.61	44.84	107.5	90.33	43.48	85.82	477.4	1554	178.5	26.91	20.32	17.08	14.79	13.22	12.76	11.83	12.06	11.60	11.58	11.35	11.11	11.40	11.67	11.71	11.51	11.66	11.32	10.51	9.522	8.743	7.645	7.026	6.272	5.585	5.100	4.561	4.165	3.649	3.316	3.074	2.789	2.300	2.283	2.459	2.856	3.885	3.150	1.672	1.062	0.969	0.966	0.985	0.998	1.336	1.253	0.721	0.730	0.744	0.952	2.486	10.17	30.54	70.38	198.0	139.4	11.93	0.599	0.463	0.435	0.365	0.386	0.368	0.388
560.0	19.74	14.80	11.96	16.14	23.43	34.68	76.40	103.7	41.69	48.11	144.0	1204	772.0	36.45	18.50	14.65	12.74	11.08	10.76	9.581	9.887	9.908	9.510	9.309	9.466	9.435	9.590	10.00	9.402	9.296	9.428	8.785	7.878	7.291	6.569	6.179	5.309	4.720	4.359	3.903	3.648	3.190	2.803	2.482	2.272	2.183	1.964	1.871	1.857	3.116	3.469	2.198	1.188	0.949	0.811	0.833	0.805	0.954	1.306	0.921	0.681	0.595	0.629	1.062	2.758	7.284	16.57	81.53	205.1	102.4	5.806	0.507	0.375	0.351	0.411	0.370	0.345
565.0	23.46	13.85	12.31	14.54	21.27	29.32	44.84	111.5	55.22	34.32	58.25	519.7	1304	110.1	15.83	11.79	10.69	9.619	8.719	8.946	8.558	8.206	7.801	7.512	8.003	7.714	8.372	8.390	8.114	7.675	7.822	7.743	6.987	6.116	5.529	5.417	4.133	4.130	3.740	3.173	3.203	2.678	2.414	2.252	1.880	1.906	1.715	1.489	1.443	2.021	2.928	2.522	1.508	0.821	0.841	0.719	0.796	0.713	1.001	1.065	0.885	0.656	0.552	0.677	1.081	2.068	4.229	19.60	95.09	189.9	33.31	2.405	0.475	0.313	0.401	0.329	0.320
570.0	20.81	14.36	12.78	13.29	18.93	23.54	28.87	77.24	80.72	32.89	34.56	150.7	935.6	641.5	28.33	9.729	9.026	8.037	7.309	7.224	6.955	6.762	6.522	6.230	6.722	6.505	6.335	6.756	6.546	6.683	6.409	6.317	5.748	5.086	4.656	4.153	3.603	3.408	3.036	2.697	2.429	2.211	2.101	1.781	1.751	1.461	1.393	1.251	1.107	1.231	1.810	2.265	1.896	1.076	0.695	0.647	0.688	0.615	0.705	0.901	1.040	0.773	0.520	0.548	0.632	0.820	1.321	4.769	22.73	77.50	124.2	77.58	10.63	0.498	0.375	0.366	0.290
575.0	19.65	12.63	11.79	12.28	15.99	19.35	21.31	39.73	91.85	43.69	26.35	51.88	290.4	1016	118.7	9.169	7.104	6.502	6.112	5.678	5.672	5.513	5.369	5.180	4.940	5.198	5.146	5.287	5.000	5.363	5.201	4.940	4.478	4.102	3.556	3.282	2.900	2.872	2.549	2.248	2.027	1.817	1.686	1.456	1.415	1.130	1.198	1.026	1.000	0.867	1.041	1.439	1.987	1.386	0.852	0.570	0.605	0.566	0.587	0.582	0.793	0.946	0.691	0.488	0.624	0.538	0.646	1.487	5.414	17.65	36.86	111.6	103.1	12.07	0.512	0.361	0.301
580.0	17.69	12.52	11.60	12.04	14.49	17.66	19.75	26.86	77.56	64.15	23.23	27.50	84.67	690.9	525.0	14.40	6.008	5.613	5.102	4.858	4.852	4.592	4.490	4.420	4.365	4.452	4.307	4.455	4.485	4.537	4.632	4.455	3.711	3.059	2.883	2.704	2.540	2.215	2.083	1.778	1.721	1.569	1.499	1.245	1.163	1.158	0.984	0.852	0.815	0.723	0.716	0.975	1.657	1.625	1.040	0.617	0.576	0.536	0.490	0.506	0.620	0.837	1.018	0.552	0.552	0.445	0.469	0.699	1.551	4.284	8.569	39.16	124.1	77.30	6.234	0.423	0.322
585.0	19.76	11.17	11.79	12.52	13.56	15.93	17.96	20.33	53.22	76.35	25.98	23.58	32.28	274.4	829.4	61.44	5.596	5.215	4.683	4.326	4.060	3.824	3.879	4.059	3.738	3.629	3.421	3.786	3.656	3.784	3.880	3.838	3.340	2.909	2.523	2.190	2.245	1.776	1.839	1.650	1.549	1.460	1.229	1.220	0.994	0.985	0.986	0.799	0.767	0.672	0.634	0.657	1.052	1.518	1.238	0.794	0.539	0.481	0.459	0.418	0.534	0.592	0.961	0.769	0.440	0.383	0.433	0.422	0.636	1.277	2.253	9.293	49.32	114.4	33.85	2.836	0.312
590.0	17.99	12.97	9.605	11.22	12.58	15.36	14.97	16.25	29.97	75.48	42.67	20.41	20.61	79.62	525.1	369.4	12.63	4.609	4.069	3.747	3.428	3.237	3.353	3.265	2.961	3.020	3.083	3.168	3.135	3.278	3.306	3.091	2.553	2.427	2.203	1.804	1.753	1.560	1.481	1.398	1.294	1.198	1.087	0.974	0.950	0.855	0.756	0.706	0.628	0.601	0.538	0.543	0.658	1.052	1.291	1.070	0.565	0.425	0.514	0.403	0.411	0.426	0.665	0.804	0.674	0.417	0.419	0.357	0.446	0.561	0.815	2.376	11.56	40.75	74.47	56.85	10.57
595.0	17.12	13.06	8.038	9.894	12.09	13.14	14.63	13.59	20.67	49.56	66.20	20.78	16.95	28.35	154.4	547.3	77.64	3.903	3.337	2.855	2.867	2.685	2.550	2.657	2.544	2.598	2.630	2.549	2.690	2.478	2.656	2.596	2.026	1.922	1.808	1.496	1.397	1.290	1.284	1.223	1.050	1.031	0.911	0.756	0.810	0.735	0.690	0.665	0.505	0.541	0.443	0.496	0.564	0.550	0.922	1.111	0.868	0.499	0.406	0.398	0.417	0.430	0.507	0.593	0.646	0.543	0.362	0.379	0.378	0.460	0.527	0.833	2.795	9.394	19.94	60.94	71.64
600.0	16.91	13.38	9.881	10.39	10.74	13.04	12.93	14.88	17.54	29.65	71.50	28.42	17.29	15.69	43.62	362.7	293.8	6.098	2.964	2.667	2.774	2.291	2.061	2.306	2.143	2.071	2.211	2.196	2.138	2.204	2.136	2.037	1.900	1.670	1.521	1.391	1.200	1.094	1.064	1.099	0.980	0.800	0.794	0.785	0.701	0.673	0.561	0.530	0.480	0.468	0.414	0.428	0.439	0.450	0.615	0.965	0.952	0.620	0.423	0.403	0.430	0.355	0.396	0.445	0.509	0.741	0.449	0.420	0.389	0.374	0.354	0.507	0.873	2.340	4.765	19.04	70.69
605.0	16.93	12.36	11.62	10.61	9.194	12.48	13.11	14.00	16.88	22.78	60.26	43.34	16.75	13.20	17.28	146.2	441.5	32.51	2.669	2.468	2.195	1.961	1.787	2.067	1.999	1.914	1.893	2.076	1.762	1.935	1.970	1.776	1.655	1.508	1.327	1.161	1.028	1.031	0.948	0.907	0.812	0.704	0.694	0.653	0.685	0.585	0.493	0.409	0.474	0.349	0.371	0.340	0.400	0.392	0.415	0.740	1.050	0.741	0.424	0.340	0.335	0.375	0.415	0.391	0.389	0.702	0.634	0.380	0.338	0.355	0.341	0.459	0.419	0.768	1.404	4.524	24.73
610.0	18.27	13.58	10.40	10.18	11.61	12.26	13.55	14.50	15.57	19.68	38.67	57.90	22.06	12.63	11.32	41.57	287.3	184.5	6.516	2.071	1.943	1.616	1.716	1.745	1.778	1.639	1.908	1.727	1.754	1.580	1.675	1.593	1.325	1.184	1.047	0.973	1.012	0.967	0.844	0.777	0.726	0.653	0.664	0.565	0.511	0.533	0.478	0.409	0.376	0.330	0.341	0.351	0.361	0.374	0.363	0.508	0.752	0.790	0.534	0.436	0.336	0.337	0.359	0.311	0.349	0.445	0.600	0.520	0.427	0.373	0.367	0.345	0.360	0.425	0.580	1.261	5.863
615.0	16.81	11.82	8.931	9.548	10.31	12.35	12.69	13.60	14.17	17.55	24.12	52.99	33.45	12.94	9.241	14.56	85.49	312.1	52.74	1.908	1.889	1.827	1.568	1.492	1.569	1.368	1.699	1.498	1.319	1.307	1.480	1.474	1.275	0.941	0.798	0.884	0.832	0.773	0.718	0.599	0.573	0.568	0.541	0.535	0.427	0.477	0.418	0.298	0.381	0.307	0.318	0.281	0.314	0.364	0.305	0.373	0.432	0.673	0.675	0.561	0.328	0.323	0.335	0.314	0.333	0.363	0.424	0.516	0.559	0.365	0.362	0.456	0.346	0.289	0.410	0.536	1.528
620.0	17.75	11.85	9.860	8.846	8.524	10.68	11.41	12.40	13.81	16.65	21.11	40.62	44.45	13.60	9.168	8.127	24.64	223.2	172.3	3.331	1.592	1.558	1.486	1.272	1.316	1.343	1.308	1.331	1.248	1.129	1.191	1.311	0.950	0.829	0.788	0.717	0.648	0.624	0.712	0.599	0.529	0.551	0.439	0.450	0.459	0.361	0.393	0.306	0.329	0.323	0.323	0.285	0.265	0.313	0.319	0.348	0.323	0.521	0.651	0.576	0.360	0.316	0.347	0.351	0.312	0.370	0.368	0.482	0.499	0.513	0.353	0.339	0.290	0.356	0.361	0.344	0.723
625.0	17.00	11.88	11.20	8.197	10.32	11.94	12.08	13.12	14.94	16.21	17.76	28.18	46.88	17.40	8.833	6.555	9.753	94.02	273.7	16.97	1.763	1.542	1.299	1.297	1.199	1.111	1.268	1.219	1.076	1.132	1.125	1.153	0.975	0.767	0.694	0.696	0.613	0.541	0.528	0.557	0.480	0.462	0.407	0.355	0.423	0.332	0.346	0.362	0.290	0.336	0.249	0.276	0.279	0.288	0.270	0.315	0.303	0.429	0.595	0.582	0.417	0.319	0.397	0.286	0.276	0.340	0.317	0.329	0.372	0.596	0.450	0.363	0.311	0.378	0.306	0.273	0.412
630.0	19.63	13.60	9.405	9.749	11.17	11.26	12.15	12.50	14.49	15.58	16.96	20.79	40.61	27.70	9.916	6.165	5.961	26.56	198.1	122.7	3.269	1.336	1.407	1.346	1.151	1.087	1.042	1.087	0.950	1.016	1.080	1.147	0.764	0.746	0.640	0.562	0.533	0.549	0.515	0.446	0.450	0.427	0.433	0.343	0.384	0.313	0.301	0.354	0.273	0.279	0.272	0.270	0.275	0.288	0.267	0.278	0.278	0.330	0.435	0.480	0.525	0.465	0.375	0.319	0.314	0.368	0.305	0.317	0.331	0.422	0.499	0.429	0.326	0.289	0.290	0.299	0.303
635.0	22.30	12.61	10.42	9.902	10.77	11.09	10.88	11.44	14.13	14.58	17.60	18.18	26.24	34.65	13.11	6.355	5.038	8.359	61.56	225.3	31.34	1.211	1.146	1.082	1.044	1.032	0.923	0.999	0.894	0.927	1.053	0.923	0.711	0.689	0.519	0.487	0.526	0.473	0.424	0.440	0.344	0.391	0.395	0.351	0.341	0.287	0.321	0.316	0.263	0.280	0.246	0.247	0.265	0.319	0.339	0.221	0.277	0.302	0.288	0.361	0.408	0.419	0.390	0.314	0.301	0.327	0.302	0.306	0.305	0.402	0.412	0.460	0.349	0.332	0.324	0.275	0.302
640.0	19.78	14.13	9.599	11.97	11.64	9.717	9.972	11.66	13.16	15.76	15.95	17.97	20.77	35.83	17.31	6.746	5.219	4.318	16.99	179.8	72.81	2.005	1.146	1.019	0.924	1.050	0.780	0.962	0.859	0.848	0.976	1.022	0.635	0.573	0.512	0.476	0.452	0.395	0.423	0.398	0.344	0.421	0.393	0.356	0.365	0.288	0.251	0.324	0.242	0.235	0.200	0.226	0.246	0.254	0.274	0.269	0.277	0.294	0.297	0.294	0.381	0.421	0.446	0.284	0.261	0.356	0.279	0.305	0.292	0.367	0.386	0.482	0.511	0.307	0.285	0.271	0.266
645.0	17.30	12.57	10.22	10.15	8.321	9.759	11.07	10.41	11.32	14.34	14.58	18.90	17.26	28.20	23.11	6.962	4.991	3.627	5.839	82.11	184.6	10.02	1.121	1.019	1.021	0.844	0.812	0.885	0.906	0.833	0.915	0.867	0.651	0.505	0.529	0.455	0.471	0.428	0.331	0.345	0.334	0.380	0.357	0.353	0.299	0.257	0.308	0.312	0.224	0.201	0.254	0.198	0.220	0.246	0.290	0.289	0.262	0.292	0.275	0.286	0.343	0.392	0.442	0.345	0.275	0.358	0.286	0.270	0.289	0.330	0.318	0.405	0.444	0.383	0.274	0.285	0.300
650.0	16.31	13.62	9.278	9.999	9.406	10.26	10.50	11.48	12.17	13.35	14.60	17.18	15.92	21.19	26.84	8.840	5.444	3.676	3.516	25.46	192.9	48.50	1.146	1.008	0.969	0.832	0.914	0.754	0.876	0.898	0.879	0.912	0.628	0.462	0.531	0.396	0.430	0.454	0.335	0.306	0.340	0.285	0.319	0.332	0.280	0.260	0.291	0.229	0.228	0.198	0.206	0.262	0.216	0.279	0.239	0.283	0.288	0.266	0.242	0.254	0.288	0.358	0.379	0.396	0.367	0.335	0.316	0.303	0.304	0.305	0.270	0.328	0.373	0.429	0.317	0.289	0.303
