Sample:	'1
File name:	2025.8.10 固始 益源塑胶科技 2倍.FD3
Run date:	'13:02:39, 08/12/2025
Operator:	Administrator
Comment:	'

Instrument
Model:	F-2700 FL Spectrophotometer
Serial number:	23B8-004
ROM Version:	4J14000 07

Instrument parameters
Measurement type:	3-D scan
Data mode:	Fluorescence
EX  Start WL:	220.0 nm
EX  End WL:	600.0 nm
EX Sampling interval:	5.0 nm
EM  Start WL:	230.0 nm
EM  End WL:	650.0 nm
EM Sampling interval:	5.0 nm
Scan speed:	12000 nm/min
EX Slit:	5.0 nm
EM Slit:	5.0 nm
PMT Voltage:	700 V
Response:	Auto 
Corrected spectra:	Off
Contour interval:	50.000

Peak integration
Integration method:	Rectangular
Sensitivity:	1
Threshold:	1.000

Peaks
No.	ApexEX/EM(nm)	Height(Data)
1	225.0/595.0	266.9
2	225.0/625.0	200.1
3	230.0/340.0	5662
4	265.0/585.0	338.7
5	270.0/595.0	350.9
6	275.0/310.0	4587
7	275.0/340.0	4981
8	275.0/610.0	315.1
9	280.0/410.0	5633
10	350.0/415.0	4319
11	350.0/435.0	4306
12	460.0/340.0	15.17
13	550.0/305.0	18.16
14	555.0/335.0	18.99
15	560.0/340.0	19.23
16	585.0/410.0	19.48

Data points
	220.0	225.0	230.0	235.0	240.0	245.0	250.0	255.0	260.0	265.0	270.0	275.0	280.0	285.0	290.0	295.0	300.0	305.0	310.0	315.0	320.0	325.0	330.0	335.0	340.0	345.0	350.0	355.0	360.0	365.0	370.0	375.0	380.0	385.0	390.0	395.0	400.0	405.0	410.0	415.0	420.0	425.0	430.0	435.0	440.0	445.0	450.0	455.0	460.0	465.0	470.0	475.0	480.0	485.0	490.0	495.0	500.0	505.0	510.0	515.0	520.0	525.0	530.0	535.0	540.0	545.0	550.0	555.0	560.0	565.0	570.0	575.0	580.0	585.0	590.0	595.0	600.0
230.0	84.73	2459	8104	3304	152.5	14.99	12.56	12.38	10.70	10.39	11.13	10.55	9.624	8.873	7.428	6.448	5.922	5.037	5.063	4.799	4.217	4.065	3.806	3.581	3.537	3.337	3.294	3.102	3.025	3.040	2.805	2.681	2.634	2.137	1.914	1.713	1.543	1.376	1.248	1.184	1.180	1.199	1.156	1.034	0.996	0.964	2.419	12.14	24.05	20.33	9.618	2.220	0.768	0.676	0.626	0.574	0.627	0.558	0.530	0.546	0.474	0.456	0.524	0.433	0.445	0.452	0.438	0.385	0.360	0.387	0.346	0.374	0.347	0.331	0.315	0.318	0.365
235.0	109.2	631.9	4240	8349	4013	261.4	16.01	15.61	14.92	10.96	12.78	11.62	10.92	9.304	7.498	6.975	5.502	5.097	5.133	4.883	4.695	3.722	4.393	4.024	3.579	3.713	3.181	3.195	3.004	3.074	2.928	2.770	2.628	2.374	2.086	1.738	1.710	1.443	1.409	1.094	1.318	1.204	1.108	1.080	0.981	0.936	1.314	3.438	8.130	15.23	25.19	26.82	17.03	4.658	0.819	0.617	0.662	0.521	0.544	0.595	0.472	0.432	0.427	0.495	0.397	0.444	0.424	0.420	0.431	0.397	0.316	0.315	0.382	0.278	0.335	0.408	0.397
240.0	102.8	214.7	1172	6400	9999.9	3412	150.8	19.99	15.79	14.00	15.11	13.16	11.63	9.993	8.867	7.167	6.468	5.964	5.045	5.196	4.775	3.926	3.880	4.288	3.640	3.594	3.605	3.455	3.055	3.138	2.726	2.829	2.351	2.184	1.982	1.857	1.743	1.474	1.379	1.298	1.239	1.160	1.054	1.031	1.275	1.213	1.057	1.451	2.490	4.462	11.34	30.65	45.11	28.08	16.29	3.291	0.732	0.568	0.630	0.604	0.512	0.484	0.454	0.491	0.530	0.394	0.470	0.396	0.439	0.418	0.351	0.328	0.378	0.322	0.365	0.409	0.311
245.0	97.15	164.5	322.6	1968	9999.9	9999.9	2553	69.10	19.94	17.29	17.41	12.97	12.33	11.50	7.862	8.145	6.742	6.260	5.898	5.108	5.120	4.242	3.984	4.574	3.465	3.996	3.457	3.387	3.209	3.087	3.193	2.800	2.399	2.389	1.951	2.008	1.816	1.665	1.462	1.200	1.184	1.105	1.145	0.984	1.050	1.211	1.201	1.177	1.233	1.656	3.229	9.389	25.22	48.89	61.04	27.36	13.67	1.909	0.756	0.628	0.539	0.501	0.485	0.546	0.585	0.515	0.514	0.436	0.414	0.520	0.420	0.391	0.379	0.368	0.317	0.399	0.383
250.0	76.62	110.2	196.8	525.7	2957	9909	9999.9	6606	181.6	28.13	21.46	18.48	14.93	12.00	9.653	8.741	8.185	6.846	6.095	5.431	5.134	4.565	4.333	4.339	4.179	3.934	3.882	3.750	3.536	3.246	3.195	3.009	2.613	2.426	1.953	1.917	1.813	1.599	1.601	1.388	1.249	1.283	1.180	1.055	1.081	1.120	1.039	1.081	1.218	1.225	1.494	2.767	6.358	14.66	29.96	46.82	69.01	62.87	45.02	11.29	2.317	0.671	0.636	0.611	0.583	0.480	0.525	0.557	0.546	0.422	0.412	0.412	0.387	0.436	0.401	0.461	0.386
255.0	67.94	68.85	132.7	279.5	754.6	2385	8758	9999.9	9999.9	240.0	36.08	27.47	19.42	15.74	12.44	9.813	8.494	8.129	6.882	5.847	5.198	4.695	4.740	4.484	4.456	4.049	4.174	4.323	3.955	3.565	3.335	3.147	2.919	2.435	2.050	1.788	1.732	1.661	1.575	1.495	1.272	1.288	1.192	1.068	1.152	1.196	0.964	1.015	1.018	0.989	1.417	1.651	2.294	3.929	7.378	11.30	20.59	47.37	104.9	127.4	31.82	16.33	2.114	0.721	0.627	0.693	0.621	0.587	0.532	0.400	0.449	0.381	0.390	0.473	0.477	0.420	0.371
260.0	75.21	68.53	75.13	189.4	343.2	608.1	2462	9999.9	9999.9	2582	174.6	37.04	26.40	19.84	15.38	11.64	9.541	8.466	7.457	6.490	5.901	5.418	5.067	4.659	4.612	4.427	4.217	4.168	3.796	3.826	3.568	3.328	2.920	2.431	2.229	2.047	1.829	1.644	1.549	1.519	1.486	1.257	1.322	1.294	1.258	1.155	0.923	1.036	0.949	0.855	1.080	1.645	1.711	1.822	2.536	3.125	5.356	12.21	37.02	91.44	136.2	139.7	29.23	11.64	1.233	0.765	0.661	0.671	0.549	0.544	0.523	0.531	0.390	0.460	0.417	0.418	0.403
265.0	98.33	75.56	64.90	107.7	264.1	302.7	626.1	3611	9999.9	9999.9	2097	103.7	35.32	24.86	18.25	13.46	11.42	9.416	8.305	7.058	6.456	5.923	5.659	4.960	5.040	4.701	4.407	4.124	4.399	3.960	3.888	3.464	3.201	2.586	2.351	2.327	1.843	1.829	1.709	1.471	1.677	1.350	1.308	1.415	1.241	1.190	0.987	1.045	0.901	0.856	0.823	1.097	1.476	1.887	1.779	1.598	1.910	3.497	9.050	23.99	59.33	134.9	184.3	139.9	24.09	5.168	0.904	0.670	0.623	0.644	0.523	0.529	0.531	0.520	0.482	0.479	0.456
270.0	224.8	169.3	116.8	93.86	149.9	296.7	360.2	930.4	4135	9999.9	9999.9	8067	136.3	40.54	25.21	18.83	14.84	11.61	9.849	8.242	7.733	6.671	5.810	5.462	5.552	5.096	4.938	4.210	4.568	4.242	3.972	3.863	3.658	2.930	2.737	2.491	2.088	2.057	1.761	1.814	1.845	1.793	1.678	1.608	1.614	1.500	1.205	1.242	1.012	0.990	0.902	1.051	1.066	1.322	1.660	1.943	2.053	1.955	2.973	6.234	14.28	35.25	72.82	124.8	162.9	131.3	109.4	15.78	5.541	0.908	0.726	0.677	0.654	0.569	0.603	0.558	0.508
275.0	558.8	458.9	296.0	155.0	135.8	205.1	450.6	548.0	1168	2794	9999.9	9999.9	9999.9	162.8	41.11	27.73	21.12	15.66	11.91	10.80	8.919	7.787	7.065	6.944	6.043	5.680	5.383	4.773	4.865	4.415	4.021	4.166	3.764	3.424	3.542	2.849	2.636	2.527	2.288	2.251	2.230	2.541	2.280	2.223	2.259	2.206	1.976	1.809	1.554	1.291	1.149	1.133	1.232	1.075	1.433	1.540	2.116	2.707	2.866	3.007	4.540	9.237	17.79	29.55	42.27	77.29	188.8	261.2	179.5	23.26	3.942	1.018	0.872	0.719	0.676	0.701	0.711
280.0	944.1	824.4	515.7	266.4	196.1	229.2	407.2	725.2	625.4	1182	3597	9999.9	9999.9	7784	118.2	37.96	25.38	19.75	14.08	12.38	10.03	8.980	7.826	7.461	6.421	6.102	5.897	5.175	5.039	4.673	4.601	4.367	4.108	3.836	3.873	3.452	3.444	3.342	2.794	2.793	2.827	3.029	3.013	3.096	3.082	2.942	2.707	2.579	2.289	1.691	1.535	1.469	1.233	1.381	1.502	1.614	1.799	2.329	3.394	3.660	3.530	4.182	6.316	9.287	12.46	20.64	56.21	150.3	268.8	254.8	34.81	16.94	1.818	1.072	0.887	0.798	0.848
285.0	1413	1225	837.5	430.8	278.4	298.3	428.4	807.7	1104	1225	1848	5391	9999.9	9999.9	1190	81.27	34.86	25.24	18.32	15.13	11.88	9.660	9.054	7.738	7.304	6.519	6.119	5.737	5.144	4.865	4.774	4.653	4.559	4.348	4.721	4.534	4.212	3.857	3.552	3.307	3.460	3.404	3.898	3.736	3.857	3.988	3.700	3.584	3.335	2.410	1.900	1.850	1.600	1.697	1.620	1.916	1.830	2.256	3.006	4.250	5.166	5.221	5.404	6.148	7.273	8.775	16.81	39.44	91.20	197.8	285.5	231.4	29.70	10.42	1.339	1.072	1.180
290.0	2142	1974	1368	768.8	458.3	454.4	596.2	942.7	1596	2155	2320	2940	5852	9999.9	9999.9	4562	89.64	39.18	26.35	19.24	15.35	12.28	10.79	9.140	8.494	7.621	6.930	6.075	5.579	5.582	4.932	5.069	4.906	5.197	5.514	5.210	5.239	4.896	4.652	4.253	4.457	4.292	4.629	4.983	5.235	5.539	5.091	5.057	4.389	3.627	2.916	2.766	2.241	2.190	2.277	2.403	2.660	3.011	3.578	4.298	5.563	7.059	8.049	8.877	9.089	9.536	11.08	15.83	26.34	51.42	96.03	167.9	201.2	242.9	144.0	19.60	8.600
295.0	2823	2662	1945	1095	679.0	628.2	812.0	1192	1905	2904	3485	3273	3091	3440	9999.9	9999.9	6671	101.9	40.53	28.27	20.18	16.39	13.09	10.83	9.897	8.891	7.450	7.038	6.199	6.198	6.144	5.606	5.147	5.765	6.477	6.070	6.421	5.460	5.437	5.405	5.206	5.157	5.487	6.232	6.450	6.715	6.606	6.497	5.684	4.523	3.787	3.696	3.188	2.879	2.748	3.052	3.449	3.986	4.466	5.733	6.626	8.215	9.401	11.70	13.46	13.27	13.42	13.35	14.75	18.70	27.32	41.68	50.24	90.84	211.0	342.2	248.2
300.0	3136	3028	2306	1339	826.1	730.3	961.2	1391	2150	3149	4146	3941	2891	1940	3525	9999.9	9999.9	4999	82.16	39.34	26.52	19.48	15.79	13.16	11.46	10.18	8.902	7.722	7.293	6.661	6.471	6.062	5.947	6.168	6.998	6.563	6.573	6.150	5.801	5.607	5.916	5.724	6.071	6.135	6.936	7.282	7.271	7.490	6.637	5.349	4.384	4.199	3.621	3.388	3.420	3.449	4.109	4.324	5.303	6.231	7.172	9.009	10.39	12.65	14.59	16.53	16.30	15.28	13.64	12.82	12.93	14.59	15.07	23.61	56.52	151.5	310.9
305.0	3334	3180	2483	1477	933.1	849.5	1059	1523	2330	3325	4295	4542	3227	1831	1442	4804	9999.9	9999.9	733.4	66.64	36.57	24.60	18.34	14.78	12.50	10.91	9.811	8.498	8.152	7.742	6.615	6.248	6.107	6.459	6.764	7.026	6.816	6.369	5.927	6.148	5.614	5.812	6.031	6.489	7.088	7.754	7.511	8.018	7.298	5.732	4.786	4.546	3.891	3.723	3.588	3.755	4.390	4.926	5.896	6.896	8.120	9.625	11.36	13.14	14.82	16.65	18.16	17.55	14.98	12.62	10.96	9.709	8.055	8.655	15.23	36.93	91.60
310.0	3157	3206	2561	1609	1030	955.3	1185	1655	2401	3363	4250	4587	3769	2207	1220	1531	5520	9999.9	9999.9	9999.9	69.47	37.78	25.95	19.54	16.08	13.86	11.22	10.08	9.027	8.458	7.437	7.083	6.717	6.790	6.926	6.908	6.719	6.425	5.934	6.164	5.927	5.957	6.202	6.553	7.373	7.907	7.854	8.492	7.517	6.228	5.166	4.874	4.491	4.140	3.963	4.192	4.905	5.284	6.186	7.206	8.565	10.20	11.73	13.66	15.44	15.78	17.22	17.70	17.09	14.87	12.76	10.08	7.758	6.358	6.903	11.12	22.77
315.0	3106	3254	2654	1693	1135	1086	1283	1747	2478	3357	4176	4461	3904	2801	1448	985.3	1623	2788	9999.9	9999.9	4759	77.32	38.87	26.46	21.02	16.79	14.01	11.31	10.61	9.915	8.502	7.731	7.508	7.163	6.726	7.217	6.734	6.471	6.067	5.834	5.788	6.247	6.363	6.685	7.494	8.179	8.176	8.844	7.875	6.616	5.604	5.637	4.725	4.475	4.424	4.776	5.279	5.849	6.711	7.856	8.818	10.43	12.16	14.55	15.71	16.27	16.12	17.11	16.58	15.64	14.26	12.20	9.241	7.111	6.217	6.322	8.369
320.0	3225	3585	3106	2010	1299	1176	1395	1867	2559	3418	4210	4533	4025	3172	2007	1100	911.9	984.3	3455	9999.9	9999.9	3695	67.59	37.11	26.73	21.71	16.70	13.40	11.47	10.43	9.419	8.593	7.758	7.699	6.858	6.951	6.840	6.504	6.171	6.243	6.014	6.259	6.455	7.078	7.602	8.461	8.899	10.04	8.839	7.074	6.196	6.122	5.139	4.940	4.933	5.424	5.844	6.306	7.177	7.564	9.186	10.82	12.09	14.49	15.23	16.23	17.14	17.26	17.01	16.03	14.30	12.92	12.10	9.743	7.988	6.112	5.898
325.0	3508	4210	3867	2517	1574	1307	1525	1978	2694	3517	4342	4673	4280	3394	2511	1464	946.4	699.9	1110	5238	9999.9	9999.9	549.4	57.02	35.54	26.86	18.69	16.11	13.04	10.96	9.920	9.500	8.630	8.133	7.381	7.074	6.821	6.423	6.559	6.285	6.513	6.270	6.949	7.208	8.561	9.338	9.882	11.56	10.74	8.929	7.448	7.686	6.219	5.338	5.450	5.567	6.295	6.823	7.834	8.410	9.832	10.99	12.47	14.57	15.36	16.18	17.24	17.54	17.49	16.76	15.10	13.97	12.64	11.91	10.16	7.507	6.838
330.0	3866	4718	4655	3380	2100	1578	1686	2128	2810	3627	4441	4830	4553	3746	2849	2011	1280	847.8	732.1	1534	5703	9999.9	9999.9	9999.9	60.47	39.28	26.34	20.12	16.49	13.46	12.24	10.75	9.226	8.338	7.759	7.384	6.832	6.661	6.444	6.335	6.597	6.650	7.253	7.688	8.997	10.39	11.21	12.83	12.85	10.93	9.840	9.507	7.892	6.726	6.492	6.418	6.941	7.353	8.332	9.241	10.44	11.68	13.11	15.07	15.84	16.76	17.54	18.07	18.07	17.97	16.68	15.54	14.14	12.89	11.46	10.28	9.047
335.0	4058	5160	5461	4130	2688	1948	1901	2290	2923	3731	4533	4961	4835	4112	3229	2344	1808	1202	844.4	840.1	1636	2860	9999.9	9999.9	3873	66.95	38.66	27.93	21.47	16.77	14.99	12.44	10.61	8.854	8.304	7.598	7.078	6.875	6.545	6.771	6.640	7.362	7.804	8.347	10.03	11.09	12.17	14.13	14.86	12.97	12.16	12.24	9.782	8.829	7.435	7.268	8.145	7.984	8.767	9.840	11.12	12.48	13.45	15.11	16.36	17.91	17.65	18.99	18.96	18.38	17.80	16.82	15.91	14.03	12.49	11.58	10.76
340.0	4208	5457	5662	4479	2969	2149	1985	2375	2958	3738	4540	4981	4909	4290	3436	2507	1978	1525	1015	782.0	799.9	944.6	3613	9999.9	9999.9	3207	60.66	35.73	27.09	20.49	18.03	13.94	11.48	9.497	8.442	7.524	7.509	6.937	7.050	6.772	7.195	7.672	7.631	8.670	10.03	11.54	12.36	14.71	15.17	13.32	12.76	13.29	11.03	9.661	8.167	7.783	8.358	8.601	9.109	9.941	11.29	12.30	13.60	15.21	16.07	17.75	18.14	18.63	19.23	18.57	18.49	16.95	16.31	15.35	13.58	12.69	11.63
345.0	4009	5175	5560	4583	3149	2271	2055	2360	2942	3680	4418	4871	4837	4314	3516	2608	2033	1691	1239	863.6	687.3	579.6	1081	5348	9999.9	9999.9	465.2	52.27	32.96	24.64	19.07	15.62	12.53	10.54	8.853	7.884	7.408	7.498	7.069	6.643	6.653	7.541	7.680	8.548	9.297	10.82	12.05	14.87	14.93	13.56	12.99	13.94	11.77	9.992	8.697	8.094	8.501	8.709	9.134	10.24	10.63	12.02	13.01	14.98	16.08	16.82	17.21	18.35	18.68	18.11	18.43	17.22	16.67	15.61	14.10	12.72	11.83
350.0	3763	4896	5301	4464	3254	2409	2148	2372	2882	3558	4203	4607	4650	4232	3539	2734	2152	1765	1483	1128	815.0	625.0	606.2	1459	5842	9999.9	9999.9	9774	54.60	34.97	25.76	19.35	14.56	11.40	9.604	8.454	8.035	7.655	7.126	6.872	6.721	6.995	7.581	8.268	9.088	10.59	11.54	13.87	14.18	12.94	12.74	13.66	11.88	10.50	9.062	8.740	8.712	8.892	9.162	10.04	10.71	11.69	12.60	14.23	15.22	16.12	16.12	17.66	18.15	17.77	17.92	16.99	16.49	16.12	14.43	13.14	12.20
355.0	3450	4478	4809	4254	3278	2525	2251	2400	2875	3425	4021	4375	4407	4079	3504	2797	2289	1895	1600	1411	1074	788.3	633.4	679.8	1549	2809	9999.9	9999.9	3516	60.50	36.16	26.66	18.86	13.30	10.87	9.374	8.510	7.706	7.306	7.005	7.317	7.016	7.383	7.834	8.590	10.07	11.08	13.19	13.33	12.17	12.04	13.17	11.46	10.97	9.572	8.828	9.177	8.970	9.781	9.994	10.80	11.91	12.75	13.61	14.90	15.18	15.57	16.27	16.91	17.22	17.12	16.51	16.48	15.96	14.56	13.46	12.49
360.0	3232	4171	4370	4024	3233	2594	2282	2421	2806	3309	3824	4168	4206	3939	3442	2817	2357	2004	1707	1506	1296	959.6	731.4	588.9	658.5	860.9	3494	9999.9	9999.9	2980	56.39	34.00	24.44	16.38	12.47	10.25	9.406	8.282	7.890	7.189	7.270	7.202	7.429	7.759	8.579	9.727	10.54	12.36	12.69	11.07	11.46	12.56	11.15	10.98	9.656	8.934	9.231	9.002	9.679	9.976	10.68	11.41	12.11	13.02	14.31	14.82	15.39	15.81	16.42	16.51	16.00	15.87	15.77	15.43	13.92	13.80	12.81
365.0	3069	3953	4144	3777	3162	2590	2320	2420	2772	3223	3661	3984	4021	3831	3370	2837	2413	2101	1817	1587	1431	1177	872.2	641.6	537.7	477.2	998.0	5284	9999.9	9999.9	430.5	50.67	30.45	20.23	14.86	11.71	9.649	8.950	8.460	7.310	7.345	7.304	7.596	7.193	8.548	9.440	9.817	11.01	11.57	10.74	10.85	12.00	11.21	10.84	10.01	8.827	9.260	9.360	9.503	10.10	11.08	11.13	12.20	12.53	13.73	13.76	14.60	14.74	15.81	15.24	15.04	15.54	15.37	14.78	13.67	13.31	12.98
370.0	2847	3553	3733	3545	3075	2598	2364	2444	2738	3108	3505	3780	3810	3661	3308	2859	2514	2244	1989	1759	1554	1399	1154	853.3	650.3	506.2	513.2	1406	5849	9999.9	9999.9	9741	143.7	30.31	19.90	15.05	11.53	9.930	9.295	8.452	7.594	7.481	7.676	7.276	8.380	8.985	9.304	10.41	10.74	9.799	10.24	11.78	11.19	10.45	9.835	9.258	9.500	9.411	9.710	9.731	10.67	11.14	11.68	12.74	13.14	13.39	13.75	14.33	14.89	14.39	14.77	15.10	15.02	14.76	14.04	13.55	13.07
375.0	2698	3312	3486	3323	3027	2641	2415	2483	2699	2996	3336	3575	3647	3531	3272	2902	2617	2391	2158	1950	1725	1542	1404	1131	850.2	656.0	522.0	604.0	1519	2880	9999.9	9999.9	3044	51.03	31.09	21.37	15.54	11.87	10.32	9.252	8.326	8.510	7.951	7.434	8.201	8.776	8.959	9.508	10.01	9.230	9.532	11.59	11.15	10.52	10.10	9.214	10.02	9.299	9.422	9.837	10.51	10.85	11.39	12.09	12.84	12.85	13.19	13.66	14.03	14.17	14.29	14.61	14.51	14.45	14.25	13.71	13.70
380.0	2631	3122	3301	3180	2960	2618	2442	2494	2664	2928	3226	3452	3531	3443	3247	2940	2680	2486	2285	2079	1876	1674	1512	1341	1044	809.0	627.8	519.2	621.1	865.4	3774	9999.9	9999.9	2449	46.78	29.50	20.42	15.23	11.87	9.917	9.248	8.456	7.905	8.034	8.317	8.645	8.836	9.686	9.683	8.952	9.449	11.50	10.65	10.80	10.28	9.485	10.35	9.713	9.660	9.957	10.40	10.42	10.81	11.57	12.36	12.34	12.55	12.73	13.34	13.50	13.76	14.44	14.18	14.13	13.81	14.03	13.42
385.0	2586	3057	3230	3103	2973	2702	2532	2507	2655	2862	3149	3363	3448	3398	3231	2975	2767	2588	2398	2196	2001	1814	1633	1488	1276	996.9	783.4	611.4	524.4	490.0	1087	5515	9999.9	9999.9	347.5	43.43	28.26	19.72	14.24	11.58	10.12	9.209	8.230	7.885	8.337	8.647	8.983	9.845	9.520	8.765	9.137	11.13	10.43	10.89	10.09	9.807	10.32	10.25	9.885	9.700	10.34	10.46	11.00	11.29	12.03	11.89	12.11	13.09	13.38	13.41	13.91	13.65	14.29	14.35	13.88	13.75	14.02
390.0	2562	2993	3162	3052	2963	2773	2622	2628	2734	2925	3171	3389	3497	3478	3333	3089	2889	2731	2556	2378	2213	2071	1908	1746	1605	1409	1146	937.3	782.9	646.7	668.2	1557	5502	9999.9	9999.9	7524	131.0	34.82	21.77	15.05	11.69	10.23	9.291	8.712	8.548	9.034	8.964	9.861	9.538	8.931	9.055	11.24	10.45	11.01	10.26	10.29	10.55	10.63	10.54	10.39	10.92	10.93	11.36	11.44	11.86	11.87	12.34	12.71	13.12	13.50	13.86	13.96	14.84	14.58	14.27	14.30	14.75
395.0	2592	3053	3084	3041	3026	2934	2837	2829	2954	3207	3488	3733	3833	3805	3644	3348	3111	2918	2778	2633	2528	2437	2361	2252	2134	2032	1846	1583	1383	1187	1008	1005	1717	2922	9999.9	9999.9	2527	162.0	38.35	22.71	15.86	12.68	10.81	9.424	9.761	10.00	9.718	10.18	10.14	9.365	9.407	11.33	11.21	11.37	11.17	11.34	11.65	11.60	11.60	11.75	11.98	11.82	12.29	12.31	12.38	12.74	13.37	13.49	13.93	14.65	14.28	14.58	15.78	15.57	15.05	15.46	15.50
400.0	2753	2992	3166	3092	3161	3118	3048	3118	3334	3659	3989	4283	4358	4301	4068	3673	3368	3126	2984	2874	2836	2848	2838	2827	2772	2711	2627	2393	2128	1882	1605	1313	1202	1275	3507	9999.9	9999.9	2207	101.3	32.87	20.07	14.51	12.08	10.49	10.36	10.94	10.12	10.76	10.49	9.473	9.754	11.46	12.10	12.21	12.10	11.97	13.01	12.73	12.93	12.94	12.95	13.06	13.57	13.99	14.44	14.49	14.49	15.16	15.32	15.60	16.05	16.31	16.55	16.75	16.41	16.19	16.36
405.0	2785	3011	3209	3217	3293	3309	3336	3477	3719	4218	4681	4996	5065	4917	4572	4077	3632	3351	3188	3142	3180	3243	3355	3448	3497	3479	3439	3301	3003	2686	2339	1882	1479	1205	1520	4475	9999.9	9999.9	1689	43.63	25.33	18.51	14.16	11.70	11.21	11.15	10.34	11.27	10.63	9.770	10.43	12.16	12.41	13.03	12.68	12.95	13.54	13.49	14.04	14.55	14.30	14.66	14.49	15.15	15.97	16.06	16.20	16.59	17.24	17.21	17.23	17.70	18.23	18.49	17.18	17.28	17.41
410.0	2760	3082	3171	3248	3364	3456	3541	3750	4123	4668	5263	5612	5633	5438	4975	4378	3821	3477	3340	3333	3428	3580	3799	3989	4117	4179	4182	4092	3838	3479	3038	2479	1909	1481	1299	1754	4427	9999.9	9999.9	7137	117.9	24.70	17.74	14.16	12.56	12.14	11.09	11.85	11.48	10.38	10.97	12.95	13.37	13.78	13.45	14.14	14.72	14.73	15.10	15.71	15.15	15.97	16.18	16.86	17.44	17.44	17.73	17.94	18.48	19.26	19.19	18.63	19.26	19.48	18.61	18.34	18.35
415.0	2689	2980	3113	3179	3252	3395	3574	3756	4116	4638	5205	5532	5565	5322	4869	4282	3728	3403	3273	3292	3410	3592	3834	4056	4210	4297	4319	4214	4001	3697	3229	2630	2038	1567	1272	1159	1511	2709	9999.9	9999.9	2323	40.61	23.82	17.50	14.49	13.48	11.45	11.99	11.21	10.58	10.72	13.11	13.35	13.62	13.22	14.11	15.25	15.17	14.92	15.27	15.57	16.30	16.49	17.06	17.70	16.96	17.61	17.90	18.05	18.02	18.78	18.36	18.96	18.56	18.21	18.01	17.31
420.0	2695	2869	2974	3039	3168	3289	3472	3631	3977	4460	4960	5260	5276	5060	4614	4091	3553	3268	3135	3172	3280	3466	3705	3924	4085	4190	4208	4100	3899	3631	3192	2595	2011	1554	1246	1002	846.9	897.0	2824	9999.9	9999.9	2075	37.35	22.26	17.00	14.60	12.23	12.05	11.64	10.11	10.62	13.25	12.90	13.54	13.11	13.32	14.83	15.00	14.83	15.12	15.37	15.74	16.31	16.39	16.98	17.01	16.22	16.81	17.65	17.23	17.72	17.54	17.50	17.65	17.52	17.01	16.61
425.0	2435	2743	2856	2969	3084	3199	3408	3591	3893	4335	4803	5094	5082	4891	4462	3916	3417	3131	3035	3060	3176	3373	3615	3849	4035	4132	4170	4072	3877	3612	3230	2643	2033	1587	1272	990.9	719.6	506.7	799.4	3315	9999.9	9999.9	1642	32.77	20.94	15.94	13.47	12.28	11.53	10.30	10.62	12.96	12.86	12.99	13.05	13.56	14.51	14.79	14.58	15.19	15.18	15.44	15.58	15.78	16.01	16.10	16.20	16.63	17.20	16.55	17.19	17.08	16.77	16.66	16.75	16.11	16.39
430.0	2852	2585	2753	2841	3018	3158	3342	3571	3900	4375	4864	5112	5077	4841	4395	3834	3308	3005	2932	2966	3109	3333	3608	3868	4091	4226	4289	4228	4042	3777	3403	2855	2224	1740	1398	1097	778.7	480.6	381.8	866.3	3323	9999.9	9999.9	6712	119.4	22.39	16.68	14.18	12.31	10.50	10.71	12.56	12.89	12.83	13.24	13.50	14.27	14.57	14.43	14.41	15.18	15.02	15.77	16.07	16.41	16.59	15.98	16.18	16.78	16.90	16.80	17.05	16.60	16.58	16.24	15.95	15.71
435.0	4302	2559	2594	2719	2891	3051	3270	3527	3876	4365	4853	5084	4990	4734	4269	3701	3169	2880	2790	2847	2997	3232	3516	3820	4051	4222	4306	4273	4115	3853	3496	2967	2374	1866	1510	1198	862.4	534.1	335.8	348.2	854.4	2392	8498	9999.9	9999.9	37.82	23.12	17.46	14.34	11.91	11.22	12.83	12.74	12.88	13.77	13.26	14.30	14.27	15.23	14.67	15.19	15.13	15.74	15.69	16.31	16.77	15.84	15.99	16.89	16.92	16.52	16.37	16.05	15.74	15.67	15.13	15.17
440.0	5630	2843	2439	2587	2782	2978	3170	3407	3744	4171	4619	4828	4726	4479	4044	3490	2988	2707	2627	2682	2826	3065	3333	3614	3848	4016	4105	4085	3953	3730	3378	2875	2342	1875	1517	1217	886.5	565.3	352.0	261.4	324.9	637.2	2211	9999.9	9999.9	2043	33.95	22.33	16.74	13.15	12.03	13.03	12.91	12.82	13.23	13.20	13.93	14.13	14.89	14.37	14.33	14.85	15.31	15.76	15.71	15.91	15.72	15.23	16.01	15.87	15.63	15.13	15.68	15.09	14.77	13.88	14.12
445.0	5517	4175	2279	2477	2627	2816	2989	3215	3537	3916	4282	4436	4361	4113	3701	3199	2757	2514	2437	2488	2622	2831	3065	3323	3530	3683	3775	3769	3636	3451	3135	2684	2203	1803	1472	1183	877.8	582.5	376.4	268.2	228.3	264.5	593.5	2885	9999.9	9999.9	1620	32.76	20.14	14.79	12.50	12.78	12.90	12.60	12.65	12.67	13.16	13.21	13.61	13.61	13.77	14.24	14.33	14.72	15.09	14.97	14.46	14.59	14.77	14.91	15.02	13.63	14.59	13.95	13.49	13.80	13.36
450.0	3557	5982	2927	2242	2403	2562	2747	2943	3194	3500	3781	3919	3810	3600	3247	2823	2447	2234	2165	2217	2313	2479	2690	2902	3075	3221	3291	3289	3196	3046	2784	2390	1975	1642	1382	1125	852.1	596.5	413.8	308.1	246.7	213.2	253.8	740.4	2951	9999.9	9999.9	6684	110.8	19.22	14.52	14.47	12.87	12.41	12.25	12.01	12.69	12.59	12.89	12.88	13.17	12.98	12.98	13.48	13.37	13.72	13.24	13.34	13.18	13.06	13.28	12.68	13.07	12.87	12.36	12.09	11.90
455.0	2045	5241	5282	2137	2168	2341	2520	2689	2881	3140	3353	3468	3365	3155	2842	2477	2142	1961	1903	1943	2033	2173	2340	2529	2685	2811	2873	2883	2818	2703	2483	2154	1800	1503	1283	1091	839.7	610.2	451.2	352.0	286.0	232.0	203.5	277.2	743.6	2340	6344	9999.9	9868	141.7	19.90	16.67	13.69	13.06	12.46	11.62	11.88	12.23	11.98	12.05	12.02	12.06	12.62	12.23	12.40	12.47	11.76	11.75	11.95	11.17	11.83	11.91	11.39	11.27	11.01	10.50	10.28
460.0	1600	3416	7238	2642	2002	2191	2348	2522	2669	2919	3076	3163	3070	2860	2589	2244	1955	1779	1740	1768	1840	1966	2131	2294	2437	2542	2627	2631	2583	2476	2288	2010	1688	1421	1218	1053	840.2	623.9	467.3	378.5	312.4	253.0	205.4	185.8	262.2	596.3	1585	8831	9999.9	6851	28.55	20.79	15.52	13.79	12.88	11.92	11.82	11.73	11.30	11.92	10.91	11.10	11.65	11.83	11.42	11.29	11.38	11.15	11.07	10.83	10.78	10.96	10.34	10.97	10.46	9.768	9.865
465.0	1427	2093	6860	4420	1891	2057	2159	2330	2512	2710	2889	2928	2825	2639	2373	2061	1791	1630	1591	1607	1666	1788	1935	2087	2217	2324	2387	2404	2365	2287	2128	1878	1582	1341	1163	1002	828.9	629.0	483.5	394.9	331.1	271.3	217.6	176.9	162.5	213.6	418.1	2324	9999.9	9999.9	1484	31.46	19.47	15.64	13.87	11.65	11.81	11.79	11.03	11.34	10.77	10.66	11.24	10.83	10.87	10.60	10.91	10.59	10.38	10.24	9.691	10.13	9.977	9.851	9.331	9.196	9.165
470.0	1206	1501	3930	7099	2686	1851	1962	2108	2242	2423	2555	2581	2478	2303	2067	1793	1566	1433	1383	1403	1453	1550	1670	1798	1905	1995	2058	2077	2060	1996	1871	1662	1416	1211	1057	918.6	772.0	619.1	485.7	403.0	340.0	282.9	229.9	183.3	149.2	136.3	163.3	575.8	2652	8030	9999.9	6653	117.5	20.98	15.50	13.10	12.35	11.32	10.25	10.19	10.18	9.953	10.16	9.972	10.01	9.894	9.964	9.860	9.312	9.315	8.900	8.844	8.932	8.809	8.565	8.339	8.058
475.0	1094	1197	1875	6368	5696	1750	1730	1838	1980	2102	2202	2222	2126	1973	1763	1529	1346	1239	1194	1197	1238	1312	1407	1510	1591	1676	1724	1739	1735	1694	1592	1433	1236	1072	940.2	824.2	703.4	583.8	484.9	402.1	341.8	289.2	239.2	195.0	156.5	127.7	114.1	189.9	640.3	1849	4432	9999.9	8195	172.8	20.51	15.54	13.26	11.24	10.60	9.698	9.413	8.870	8.794	9.204	8.842	8.571	8.465	8.805	8.040	8.400	8.298	7.894	7.789	7.718	7.539	7.089	6.927
480.0	976.5	1068	1305	3867	8365	2424	1588	1668	1793	1913	1987	1974	1888	1756	1562	1367	1202	1111	1071	1071	1105	1157	1239	1327	1395	1463	1503	1528	1524	1495	1409	1283	1117	977.1	867.6	765.9	655.7	550.2	473.5	408.5	344.6	291.5	243.2	200.4	164.1	135.1	111.7	112.3	199.3	461.6	1076	5664	9999.9	1900	33.32	20.77	15.52	12.79	10.85	9.981	8.955	8.684	8.839	8.417	8.048	8.149	7.612	7.513	7.577	7.536	7.326	7.188	6.686	6.809	6.842	6.890	6.498
485.0	892.2	971.8	1119	2050	8449	4535	1515	1568	1668	1755	1816	1803	1719	1593	1429	1250	1102	1010	976.9	980.2	1002	1045	1117	1190	1247	1302	1340	1368	1367	1342	1278	1161	1022	900.8	806.2	717.3	620.9	528.3	456.6	408.0	349.8	298.1	251.8	211.0	174.0	144.3	120.0	105.0	111.3	159.5	291.9	1453	8069	9999.9	1678	32.03	19.57	14.37	11.76	10.14	8.984	8.260	8.371	8.302	7.886	8.044	7.453	6.955	7.093	7.482	6.972	6.769	6.138	6.338	6.333	6.287	6.247
490.0	777.6	933.6	1001	1260	4773	8442	2382	1436	1527	1595	1642	1623	1536	1418	1272	1112	986.5	906.9	875.2	874.7	893.1	927.2	975.5	1039	1086	1137	1172	1193	1195	1185	1136	1034	918.3	820.4	742.8	664.6	582.5	500.6	438.1	394.6	354.4	304.4	260.0	222.0	190.1	161.4	139.4	120.8	109.7	110.8	132.2	384.9	2045	6615	9999.9	6579	134.9	21.65	14.85	11.28	9.636	8.556	8.220	8.062	7.594	7.330	6.861	6.815	6.588	6.490	6.271	6.169	5.643	5.924	5.703	5.689	5.651
495.0	702.5	810.9	919.3	965.9	1958	8086	5969	1406	1379	1433	1475	1440	1374	1261	1115	986.8	877.8	805.0	775.4	772.2	783.3	808.0	852.6	902.3	942.5	981.7	1013	1038	1042	1034	996.8	914.9	820.5	739.3	675.7	606.5	541.3	469.3	413.3	377.3	347.2	307.9	268.9	230.3	203.1	178.5	160.9	143.3	126.7	118.2	115.0	164.5	527.3	1545	4113	9999.9	8826	201.9	20.23	13.32	10.54	9.166	8.265	7.530	7.192	6.942	6.405	6.371	6.302	5.874	5.673	5.550	5.064	5.308	5.095	4.962	5.085
500.0	627.3	711.6	834.3	891.7	1170	4833	9460	2007	1253	1334	1360	1313	1239	1144	1016	887.5	795.3	733.5	701.3	698.1	704.5	725.7	762.1	805.5	837.8	873.6	901.0	920.9	930.0	925.5	896.4	827.2	751.1	676.4	620.0	558.8	506.5	445.4	397.6	363.0	329.5	304.9	270.6	236.5	211.1	189.5	172.7	156.2	143.8	130.9	123.7	127.4	198.3	416.6	1012	5061	9999.9	6496	35.99	16.41	11.71	9.405	8.113	7.650	6.591	6.472	5.906	6.070	5.759	5.703	5.460	5.117	5.105	5.142	4.591	4.774	4.526
505.0	582.0	622.3	776.2	812.3	933.2	2273	9999.9	3664	1187	1214	1243	1210	1124	1050	928.1	812.9	723.7	663.4	639.2	630.0	639.1	655.9	685.2	714.6	746.5	780.3	798.4	822.6	832.9	828.2	806.0	749.3	682.7	623.1	567.7	520.8	472.5	419.7	376.2	344.7	315.8	293.1	269.9	238.1	212.8	195.2	179.6	165.2	153.1	142.8	134.6	128.9	133.8	173.1	293.6	1280	6733	9999.9	1878	31.01	13.45	9.997	8.815	7.650	7.050	5.985	5.654	5.639	5.444	5.155	4.981	4.839	4.555	4.520	4.368	4.831	4.293
510.0	514.2	573.9	666.3	742.5	794.4	1152	5813	9015	1919	1087	1101	1074	996.3	912.0	803.7	711.7	628.0	586.8	560.3	547.4	555.1	566.0	588.6	613.2	641.9	666.4	684.7	703.8	711.9	711.6	694.2	648.6	594.7	545.3	503.5	465.0	421.9	381.5	347.0	317.6	294.5	272.3	255.0	234.7	212.7	194.9	182.3	169.7	158.8	149.1	140.4	132.0	124.2	124.1	138.4	344.8	1674	5596	9999.9	5483	134.1	14.49	9.530	7.720	6.831	6.177	5.450	5.311	5.180	4.581	4.464	4.358	4.238	4.309	4.049	4.088	3.730
515.0	451.6	492.3	555.9	652.4	690.2	807.2	2079	9741	5696	1033	965.6	930.0	863.4	788.2	692.5	613.0	548.4	505.0	489.5	474.8	475.7	481.0	495.4	519.7	536.6	553.3	574.4	586.3	598.7	600.0	590.3	550.3	510.3	468.5	436.7	407.9	371.7	340.2	313.8	289.5	269.3	252.3	232.5	221.2	206.7	191.2	178.5	167.0	155.5	148.8	139.8	131.5	120.6	111.9	103.8	136.3	418.1	1285	3361	9999.9	6938	198.7	13.06	8.906	7.108	6.020	5.401	5.070	4.537	4.231	4.085	3.940	3.772	3.733	3.589	3.469	3.348
520.0	430.7	471.5	498.9	592.4	641.4	674.5	1030	6058	9999.9	1557	857.8	835.9	773.6	704.5	621.3	549.2	490.9	452.6	434.0	422.9	421.3	428.4	439.6	455.5	472.7	484.7	501.8	512.4	526.7	526.2	520.0	486.7	452.8	416.3	393.0	365.7	340.1	308.4	286.3	268.3	247.7	233.2	214.5	206.1	197.0	183.8	171.0	159.7	151.6	144.3	135.3	127.9	117.6	105.6	93.74	89.00	138.6	320.8	794.9	4156	9999.9	2098	33.45	11.02	7.799	6.249	5.672	4.968	4.304	3.862	3.688	3.783	3.609	3.702	3.182	2.973	3.110
525.0	374.6	426.6	468.5	521.3	590.7	605.4	727.0	2586	9999.9	2832	796.1	755.9	699.6	636.3	553.3	495.0	441.7	409.7	392.8	384.0	377.7	380.7	393.5	405.0	419.3	429.7	444.7	453.2	462.9	467.1	462.9	435.4	402.7	376.9	354.5	330.7	308.2	282.6	263.6	246.4	229.7	216.4	200.5	189.9	184.5	175.2	163.6	151.0	144.6	137.1	129.4	122.1	112.3	100.9	88.17	75.82	74.79	106.1	204.7	1002	5096	9639	1867	27.13	9.030	6.587	5.779	4.578	4.505	3.771	3.648	3.418	3.430	3.299	3.172	2.902	2.908
530.0	339.6	368.7	390.7	442.6	511.8	553.4	596.6	1072	6913	9581	1410	668.6	613.7	551.9	485.7	431.7	384.5	355.4	341.0	332.5	330.9	327.9	337.8	348.6	356.6	366.9	375.6	386.5	395.5	400.6	394.5	374.4	349.3	327.3	308.2	286.5	269.3	251.8	232.4	219.4	205.9	193.3	181.8	171.6	164.8	160.9	152.7	142.1	132.6	125.6	118.3	112.5	102.9	94.01	82.13	68.84	58.76	57.12	72.17	245.5	1233	4354	7232	4130	130.0	9.885	6.309	5.107	4.389	3.638	3.583	3.344	2.998	2.953	2.821	2.729	2.756
535.0	295.4	329.7	345.5	367.4	419.7	500.4	500.7	635.0	2274	9999.9	5095	615.6	523.7	464.5	417.1	362.8	332.5	306.7	294.9	282.6	277.2	279.6	285.5	293.8	299.2	306.5	315.3	326.6	333.0	334.9	334.3	316.7	297.0	276.8	263.7	245.9	231.8	218.7	200.8	192.4	182.0	170.9	161.3	153.4	147.5	140.1	137.9	130.2	119.6	111.8	106.2	101.8	93.50	85.74	74.32	63.33	51.36	44.62	42.36	77.39	293.6	989.2	2311	7140	5179	35.47	8.766	6.005	4.484	3.772	3.437	3.095	2.728	2.721	2.372	2.554	2.484
540.0	274.1	305.4	311.3	314.7	371.1	465.4	463.6	497.8	903.4	6938	9999.9	937.2	471.4	416.2	361.7	320.3	294.7	272.1	258.1	248.6	244.8	246.3	251.6	256.8	260.0	268.4	274.8	282.0	290.6	291.8	291.2	278.7	258.7	243.6	229.6	219.1	205.5	192.9	180.0	170.8	163.1	153.5	144.2	137.4	133.1	126.0	123.8	118.7	111.2	102.5	97.18	92.72	84.82	78.30	68.55	58.98	49.45	40.57	33.97	39.27	84.31	237.1	540.6	2782	7698	2041	31.53	7.756	5.240	4.035	3.666	3.133	2.829	2.510	2.241	2.274	2.156
545.0	278.7	270.3	279.7	286.1	332.3	401.0	435.4	433.9	542.3	2833	9999.9	2064	421.7	372.0	326.9	284.5	258.7	242.6	225.3	220.7	216.1	217.5	221.8	224.3	228.0	233.6	238.9	246.3	254.7	256.5	254.0	244.8	228.2	215.0	202.4	192.6	181.6	170.8	162.2	152.2	145.1	135.5	129.7	123.3	118.3	113.7	109.4	106.9	104.0	94.51	88.12	82.68	76.75	71.46	63.54	53.57	45.61	37.10	31.12	29.49	37.31	69.19	135.5	662.6	3553	6799	1734	25.16	6.076	4.323	3.654	2.935	2.895	2.421	2.229	2.243	1.989
550.0	255.8	260.2	259.0	254.7	276.4	320.4	387.1	376.0	402.8	983.6	7152	8372	772.7	314.0	276.0	243.8	217.7	203.4	188.4	185.1	181.4	180.7	182.4	185.9	189.4	194.2	197.3	202.3	208.2	210.7	209.3	201.8	188.6	178.6	170.3	159.8	152.2	144.1	136.1	129.2	122.3	115.0	109.9	104.6	101.1	96.60	94.15	89.41	88.28	82.06	76.29	71.27	66.50	60.82	54.69	47.17	40.66	33.45	27.92	25.21	24.95	30.23	43.60	159.9	844.2	2884	5055	2499	126.6	7.405	4.388	3.367	2.875	2.512	1.995	2.004	1.871
555.0	228.6	235.5	229.4	211.4	225.5	260.1	326.8	337.5	332.8	495.0	2188	9999.9	3366	279.2	226.6	199.6	178.2	166.3	154.9	151.0	146.9	147.4	149.2	150.8	153.3	155.6	158.9	162.5	167.4	169.6	166.6	161.9	153.2	144.1	136.8	131.3	123.4	118.6	110.5	105.1	100.0	93.77	90.02	87.38	83.31	80.97	76.95	73.59	70.52	68.69	64.68	59.47	54.50	50.43	45.38	39.89	33.48	29.70	25.02	22.14	20.04	20.08	21.71	46.69	197.8	653.1	1538	4457	2162	35.70	6.388	3.944	3.048	2.722	2.102	1.982	1.768
560.0	227.5	234.1	214.1	182.2	198.7	222.5	268.9	323.5	313.8	356.3	755.1	7127	8001	473.9	197.2	169.6	154.1	139.8	132.5	129.5	125.5	124.5	124.5	126.9	128.1	129.4	132.9	135.6	140.9	142.5	141.2	135.9	126.8	121.2	116.4	110.8	104.6	100.1	93.49	89.43	85.11	80.08	76.97	74.67	71.87	68.80	65.54	63.46	59.85	57.72	56.13	51.68	46.95	43.32	40.19	34.85	30.26	26.15	22.79	19.89	18.45	17.25	16.11	20.98	53.39	154.8	357.4	1662	4466	1868	30.22	5.219	3.626	2.745	2.112	1.931	1.865
565.0	250.1	222.6	200.8	167.7	172.9	197.3	232.3	304.3	299.8	312.5	409.7	2827	9999.9	1335	171.8	147.7	132.6	121.2	112.7	112.4	106.6	104.8	106.5	108.2	108.3	109.4	111.2	116.1	118.5	121.3	119.9	115.0	108.6	102.5	97.28	93.01	89.59	84.83	80.96	77.07	72.93	69.69	65.54	62.96	61.56	59.02	56.22	54.20	51.05	49.20	48.28	45.64	41.21	37.29	34.77	30.63	26.68	23.37	20.52	18.42	16.99	15.19	14.28	14.52	21.37	43.56	88.72	393.4	2002	4099	1399	22.37	4.367	3.072	2.194	2.043	1.693
570.0	261.9	232.9	194.6	157.7	154.2	164.9	194.2	253.5	298.0	296.6	330.5	898.7	7055	7037	401.5	122.4	110.8	100.5	93.16	89.97	88.19	86.94	86.84	86.80	87.38	88.07	90.46	92.30	95.21	96.64	96.26	91.85	86.92	83.63	79.04	75.49	73.57	69.42	66.09	62.59	59.52	56.46	53.85	51.79	50.18	48.43	46.43	44.88	42.09	39.80	38.58	37.43	34.97	31.35	28.87	25.32	22.90	20.00	18.18	16.62	15.37	13.84	12.60	12.71	13.65	18.56	28.56	96.88	473.1	1625	2847	1224	117.3	4.937	2.745	2.185	1.730
575.0	259.7	243.0	192.8	157.0	132.9	149.3	167.3	209.3	293.2	306.7	313.8	430.5	2093	9999.9	1291	111.2	90.71	82.99	76.08	73.44	71.49	71.46	69.43	69.73	69.55	70.58	71.47	73.65	75.02	76.93	75.43	74.00	69.41	65.78	62.75	60.83	59.34	55.50	52.67	50.41	47.84	45.17	43.05	41.81	41.04	39.47	38.12	35.25	34.28	31.87	30.52	29.69	28.61	25.87	24.10	21.14	19.27	17.72	16.07	14.48	13.56	12.65	11.91	11.50	11.30	12.71	15.03	30.25	114.0	370.8	821.1	2331	1920	34.57	4.084	2.371	1.792
580.0	261.3	253.7	203.5	151.7	120.0	135.3	154.0	193.1	282.0	319.8	325.8	336.4	669.1	6998	6143	150.4	80.01	70.86	66.14	63.66	60.44	59.85	58.77	58.88	58.99	60.62	60.40	61.83	63.26	64.11	63.22	61.18	57.17	55.55	53.36	52.48	49.98	47.52	44.82	43.35	40.56	37.74	35.55	36.12	34.64	33.48	32.00	31.02	28.28	27.42	25.60	24.52	24.06	22.81	20.83	18.59	16.63	15.46	14.19	13.48	12.65	11.98	11.23	10.61	10.63	10.66	11.74	14.84	33.91	90.47	192.8	844.6	2618	1480	28.34	2.972	2.000
585.0	286.4	259.1	204.7	131.8	124.8	119.0	140.2	176.6	255.7	338.7	333.0	318.7	329.5	2706	9332	810.3	70.92	62.28	58.35	55.48	51.60	50.84	51.16	50.42	50.13	51.27	52.46	53.04	53.89	55.45	53.48	52.25	49.23	48.47	44.81	44.94	43.43	40.99	39.09	36.78	35.16	32.92	32.01	31.01	29.46	28.89	27.76	26.29	24.99	23.51	21.98	21.02	20.16	20.18	18.46	16.61	15.03	13.76	12.56	12.14	11.34	10.71	10.38	9.616	9.642	9.669	10.24	10.98	15.32	27.59	49.95	200.0	1086	2583	963.7	19.24	2.291
590.0	267.9	265.5	197.8	136.6	109.7	111.0	128.7	165.3	230.6	325.4	343.8	317.9	252.8	766.1	6103	4696	195.0	52.93	49.83	46.05	42.78	42.37	42.00	41.83	40.35	41.63	42.58	42.32	44.12	44.77	43.49	42.19	39.81	38.76	36.96	36.20	35.03	33.23	31.62	29.32	28.41	27.11	25.61	25.06	24.20	23.24	22.64	21.93	20.42	19.38	17.99	17.03	16.14	16.60	15.61	14.22	12.70	11.22	10.69	10.09	9.465	9.071	8.844	8.550	8.351	8.527	8.778	8.975	9.907	12.37	16.91	49.77	254.0	976.5	1712	970.3	106.1
595.0	249.1	266.9	193.0	135.7	106.2	102.3	117.6	150.5	205.3	297.4	350.9	312.7	236.8	282.4	1715	7250	902.5	50.51	41.24	37.76	34.41	34.78	33.73	34.16	32.49	32.71	34.44	33.39	34.93	35.62	35.03	33.93	31.71	31.57	29.60	28.64	27.85	26.36	24.83	23.53	23.10	21.41	20.69	20.02	19.65	19.09	18.18	17.63	16.04	15.70	14.61	13.49	13.07	12.86	12.63	11.94	10.96	9.702	8.714	8.335	7.907	7.650	7.111	7.015	7.116	7.168	6.962	7.039	7.475	7.636	8.253	14.78	59.40	220.1	471.8	1374	1294
600.0	252.1	253.2	187.2	126.9	97.01	96.21	113.8	144.2	194.1	267.0	347.5	307.0	231.4	172.4	464.3	5060	4057	90.85	35.61	33.50	30.77	29.28	29.42	27.66	28.46	28.16	28.44	27.66	29.95	29.06	29.29	28.53	27.39	26.65	25.61	24.13	23.49	21.81	20.96	19.81	19.11	18.40	18.13	17.14	16.12	16.48	15.23	14.87	13.79	13.13	12.30	11.70	10.85	10.59	10.35	10.17	9.431	8.314	7.469	6.763	7.046	6.973	6.505	6.005	6.306	6.451	6.436	5.953	6.206	5.784	5.646	6.528	15.93	51.38	108.3	467.6	1546
605.0	244.2	232.8	181.8	122.2	88.37	92.99	104.5	136.0	188.5	261.6	335.3	315.0	228.4	150.0	166.1	1950	6466	518.2	33.33	29.45	26.49	25.73	25.39	24.90	24.26	23.58	24.34	24.59	25.60	25.28	24.76	23.88	23.79	22.40	22.27	21.46	20.61	19.02	17.98	16.99	16.13	15.40	14.97	14.24	13.75	13.69	13.25	12.93	12.01	10.91	10.26	9.701	9.460	8.994	8.834	8.485	8.090	7.530	6.928	6.115	6.048	5.879	5.898	5.076	5.267	5.374	5.454	5.216	5.370	4.918	4.403	4.022	5.891	13.31	25.89	108.4	602.6
610.0	228.6	226.9	171.8	112.4	82.86	80.99	98.53	125.4	175.6	234.2	301.9	315.1	227.1	141.8	96.98	510.0	4484	3248	70.21	25.99	23.39	21.65	20.83	20.67	20.25	20.03	19.80	20.37	20.70	21.32	21.03	20.65	20.17	18.88	18.50	17.76	17.27	15.65	14.65	13.61	12.99	12.36	11.98	11.78	11.08	11.08	10.78	10.17	9.912	8.926	8.407	8.075	7.643	7.101	7.007	6.854	6.607	6.453	5.750	5.300	4.875	4.790	4.555	4.495	4.653	4.321	4.502	4.650	4.248	3.767	3.591	3.176	3.018	4.540	7.150	25.58	139.0
615.0	200.0	197.3	159.0	112.5	76.57	75.65	89.78	117.9	158.0	213.7	267.8	291.0	227.0	134.3	79.28	150.2	1275	5280	664.6	25.18	19.78	17.39	17.90	16.64	16.24	15.83	15.94	16.35	16.39	17.17	17.78	16.95	15.83	15.47	15.19	14.26	13.65	12.86	11.64	11.18	10.47	9.974	9.655	9.244	9.263	8.748	8.545	8.334	7.526	7.183	6.542	6.596	6.047	5.762	5.654	5.442	5.334	5.286	4.690	4.466	4.011	4.063	3.839	3.842	3.674	3.867	3.746	3.978	3.698	3.376	3.130	2.444	2.264	2.318	2.784	6.749	32.04
620.0	194.2	194.9	145.9	100.5	74.87	71.39	81.09	113.2	150.9	203.0	243.8	269.8	227.3	133.3	75.10	69.17	326.3	3813	2893	56.99	17.74	15.88	15.95	14.38	14.16	13.99	13.97	13.96	14.53	14.32	14.76	14.19	13.74	12.94	12.79	11.91	11.87	10.39	10.22	9.268	8.556	8.640	8.247	7.766	7.804	7.295	7.191	7.006	6.523	6.125	5.510	5.451	5.034	5.089	4.719	4.593	4.603	4.502	4.078	4.077	3.709	3.527	3.542	3.217	3.228	3.415	3.299	3.329	3.254	2.941	2.513	2.166	2.117	1.674	1.559	2.369	8.212
625.0	194.3	200.1	144.8	102.8	70.65	65.44	80.80	101.0	139.1	191.5	232.6	249.2	225.0	134.8	75.15	51.47	99.79	1517	4836	346.6	17.26	14.65	13.96	12.55	12.82	12.17	12.22	11.77	12.12	12.36	12.12	12.42	11.51	11.06	10.85	10.09	10.19	8.946	8.574	8.245	7.369	7.087	6.968	6.942	6.560	6.384	6.089	6.194	5.722	5.331	4.660	4.524	4.334	4.087	4.254	4.195	3.689	3.494	3.475	3.777	3.282	3.113	2.947	2.922	2.885	3.019	3.019	2.970	3.044	2.688	2.271	2.081	1.769	1.508	1.273	1.407	2.679
630.0	174.3	166.2	139.5	94.09	66.74	64.34	75.90	96.43	132.0	176.0	217.8	226.0	208.1	139.8	79.14	47.50	47.07	388.4	3530	2466	46.63	14.05	12.22	10.70	10.87	10.37	9.941	9.980	10.15	10.05	10.61	10.16	9.143	8.701	8.645	8.112	7.937	7.213	6.597	6.424	6.173	5.579	5.505	5.414	5.315	5.167	4.881	4.811	4.621	4.184	3.968	3.564	3.580	3.415	3.410	3.318	3.088	2.980	2.995	3.017	2.859	2.765	2.484	2.647	2.594	2.627	2.429	2.604	2.564	2.247	2.225	1.925	1.629	1.298	1.157	1.170	1.367
635.0	163.7	161.0	126.0	94.08	65.49	60.24	74.49	97.12	122.4	160.3	203.4	210.1	190.3	147.8	83.94	48.95	35.86	106.1	1021	4324	507.7	14.07	11.08	9.242	9.661	8.653	8.451	8.177	8.509	8.091	8.416	7.846	7.678	7.029	6.782	6.643	6.485	6.032	5.236	5.313	5.017	4.482	4.606	4.027	4.287	4.300	3.584	3.801	3.688	3.404	2.988	3.047	2.922	2.743	2.772	2.470	2.515	2.544	2.431	2.708	2.331	2.465	2.218	2.429	2.086	2.207	2.359	2.214	2.133	2.089	1.972	1.754	1.320	1.258	1.026	1.086	0.992
640.0	145.6	157.2	131.4	87.89	62.79	59.37	72.90	84.11	119.6	154.1	191.1	200.0	180.4	145.9	89.23	50.72	35.31	43.64	257.6	3291	2124	33.81	10.74	8.674	8.555	7.622	7.519	7.035	7.244	7.243	7.255	7.044	6.671	6.053	5.642	5.736	5.434	5.089	4.543	4.555	4.052	3.979	3.990	3.636	3.789	3.594	3.323	3.259	3.046	2.872	2.550	2.432	2.493	2.442	2.422	2.108	2.175	2.216	2.145	2.083	2.060	2.087	2.077	1.989	1.956	2.054	2.052	2.019	1.809	1.685	1.707	1.615	1.291	1.211	1.055	0.917	0.877
645.0	155.5	161.7	134.7	93.42	62.14	61.76	68.45	82.87	113.3	148.9	189.6	194.6	173.4	143.1	97.32	55.60	36.04	31.09	75.29	1374	3712	81.40	10.88	8.642	7.671	6.933	6.686	6.245	6.305	6.548	6.220	6.223	5.686	5.318	5.171	5.124	4.939	4.554	4.038	3.924	3.706	3.565	3.489	3.418	3.331	3.092	3.077	2.759	2.870	2.355	2.336	2.310	2.338	2.111	1.968	1.919	1.920	2.008	1.945	1.732	1.824	1.788	1.929	1.790	1.809	1.870	1.827	1.683	1.632	1.566	1.621	1.454	1.199	1.045	1.007	0.740	0.841
650.0	165.4	170.7	154.6	105.8	65.34	62.41	66.84	82.99	105.8	138.8	179.2	190.2	171.3	138.6	106.1	58.39	37.88	28.99	34.11	378.7	3633	597.9	13.94	8.169	6.642	6.227	5.938	6.111	5.588	5.927	5.898	5.580	5.068	4.797	4.651	4.530	4.280	3.917	3.629	3.241	3.172	3.100	3.046	2.957	2.638	2.827	2.723	2.485	2.368	2.168	2.172	1.974	1.872	1.934	1.772	1.597	1.553	1.651	1.613	1.643	1.520	1.564	1.615	1.746	1.701	1.709	1.557	1.705	1.517	1.500	1.481	1.304	1.234	1.003	1.067	0.721	0.743
