Sample:	'1
File name:	y2025061802¸Õ¸«Õ¯.FD3
Run date:	'09:39:06, 06/23/2025
Operator:	Administrator
Comment:	'

Instrument
Model:	F-2700 FL Spectrophotometer
Serial number:	23B8-004
ROM Version:	4J14000 07

Instrument parameters
Measurement type:	3-D scan
Data mode:	Fluorescence
EX  Start WL:	220.0 nm
EX  End WL:	600.0 nm
EX Sampling interval:	5.0 nm
EM  Start WL:	230.0 nm
EM  End WL:	650.0 nm
EM Sampling interval:	5.0 nm
Scan speed:	12000 nm/min
EX Slit:	5.0 nm
EM Slit:	5.0 nm
PMT Voltage:	700 V
Response:	Auto 
Corrected spectra:	Off
Contour interval:	50.000

Peak integration
Integration method:	Rectangular
Sensitivity:	1
Threshold:	1.000

Peaks
No.	ApexEX/EM(nm)	Height(Data)
1	225.0/570.0	59.18
2	225.0/595.0	45.69
3	225.0/640.0	36.59
4	230.0/345.0	1195
5	230.0/500.0	303.4
6	230.0/610.0	37.20
7	235.0/260.0	293.5
8	235.0/510.0	268.7
9	240.0/265.0	403.9
10	240.0/525.0	241.8
11	245.0/270.0	462.8
12	245.0/535.0	203.3
13	250.0/275.0	604.0
14	250.0/550.0	170.9
15	255.0/285.0	613.5
16	255.0/565.0	132.5
17	260.0/290.0	558.7
18	260.0/575.0	111.0
19	265.0/295.0	725.3
20	265.0/585.0	96.22
21	270.0/300.0	945.5
22	270.0/400.0	761.5
23	270.0/600.0	87.62
24	275.0/305.0	968.1
25	275.0/615.0	74.61
26	280.0/345.0	847.1
27	280.0/625.0	64.71
28	285.0/320.0	919.5
29	285.0/635.0	48.48
30	290.0/325.0	864.1
31	305.0/345.0	639.4
32	425.0/500.0	39.76
33	505.0/275.0	3.076
34	510.0/280.0	3.686
35	515.0/285.0	3.579
36	530.0/290.0	3.307
37	540.0/295.0	4.177
38	545.0/300.0	5.448
39	550.0/305.0	5.054
40	560.0/310.0	5.167
41	570.0/315.0	5.264
42	580.0/320.0	5.166
43	585.0/325.0	5.390

Data points
	220.0	225.0	230.0	235.0	240.0	245.0	250.0	255.0	260.0	265.0	270.0	275.0	280.0	285.0	290.0	295.0	300.0	305.0	310.0	315.0	320.0	325.0	330.0	335.0	340.0	345.0	350.0	355.0	360.0	365.0	370.0	375.0	380.0	385.0	390.0	395.0	400.0	405.0	410.0	415.0	420.0	425.0	430.0	435.0	440.0	445.0	450.0	455.0	460.0	465.0	470.0	475.0	480.0	485.0	490.0	495.0	500.0	505.0	510.0	515.0	520.0	525.0	530.0	535.0	540.0	545.0	550.0	555.0	560.0	565.0	570.0	575.0	580.0	585.0	590.0	595.0	600.0
230.0	54.80	945.5	1694	419.7	14.80	4.268	3.481	3.328	2.799	2.643	2.491	2.331	1.907	1.529	1.469	1.142	1.042	0.998	0.856	0.719	0.729	0.602	0.595	0.527	0.543	0.542	0.506	0.462	0.397	0.374	0.381	0.338	0.350	0.317	0.322	0.330	0.320	0.266	0.275	0.294	0.270	0.354	0.324	0.255	0.232	0.285	1.197	3.940	5.493	3.566	1.172	0.306	0.187	0.154	0.162	0.141	0.155	0.186	0.149	0.172	0.162	0.161	0.139	0.153	0.164	0.168	0.164	0.156	0.183	0.157	0.163	0.166	0.157	0.155	0.175	0.142	0.174
235.0	81.59	287.3	1413	1997	463.5	25.17	5.192	3.863	3.898	2.729	2.701	2.514	1.895	1.343	1.523	1.045	1.181	1.106	0.949	0.868	0.748	0.680	0.710	0.565	0.515	0.474	0.492	0.452	0.422	0.372	0.379	0.468	0.340	0.327	0.334	0.313	0.371	0.263	0.282	0.269	0.328	0.270	0.325	0.435	0.360	0.308	0.530	1.188	2.859	4.803	6.533	6.297	2.595	0.483	0.202	0.180	0.188	0.205	0.171	0.172	0.154	0.136	0.176	0.175	0.178	0.152	0.192	0.165	0.161	0.177	0.172	0.148	0.168	0.212	0.186	0.173	0.164
240.0	142.4	126.1	495.9	2128	2163	346.8	14.40	5.131	4.043	3.192	2.925	2.591	2.013	1.418	1.463	1.332	1.054	0.883	0.954	0.744	0.729	0.640	0.715	0.597	0.659	0.585	0.521	0.438	0.412	0.419	0.432	0.366	0.330	0.317	0.343	0.323	0.357	0.235	0.268	0.342	0.297	0.325	0.269	0.364	0.458	0.521	0.453	0.443	0.822	1.704	4.637	9.579	10.33	5.999	1.875	0.294	0.178	0.206	0.173	0.158	0.189	0.143	0.177	0.170	0.182	0.186	0.169	0.198	0.149	0.161	0.172	0.169	0.136	0.146	0.178	0.172	0.149
245.0	120.1	162.8	159.4	866.1	2820	2085	230.5	8.051	5.009	3.712	2.767	2.255	2.413	1.667	1.566	1.461	1.009	1.045	0.926	0.807	0.723	0.590	0.762	0.699	0.573	0.543	0.536	0.541	0.295	0.489	0.456	0.387	0.361	0.388	0.318	0.265	0.235	0.278	0.292	0.266	0.270	0.278	0.263	0.283	0.360	0.570	0.705	0.450	0.418	0.522	1.261	3.997	8.848	13.45	11.63	5.389	1.139	0.246	0.184	0.251	0.167	0.148	0.185	0.176	0.186	0.144	0.204	0.161	0.172	0.156	0.222	0.180	0.142	0.205	0.170	0.144	0.137
250.0	50.92	153.4	213.5	263.9	1042	2638	2580	742.1	32.34	4.810	4.044	3.265	2.679	2.200	1.766	1.570	1.338	1.146	0.962	0.898	0.795	0.654	0.639	0.694	0.655	0.569	0.520	0.427	0.420	0.448	0.464	0.369	0.347	0.350	0.384	0.286	0.287	0.300	0.290	0.296	0.233	0.290	0.283	0.261	0.253	0.367	0.490	0.701	0.867	0.657	0.591	1.115	2.425	5.054	8.649	12.54	14.28	11.57	5.505	1.266	0.225	0.184	0.175	0.172	0.184	0.153	0.233	0.159	0.172	0.183	0.185	0.174	0.139	0.184	0.155	0.139	0.153
255.0	28.74	56.76	204.8	280.7	302.3	753.4	2782	4089	295.9	27.71	6.080	3.928	3.289	2.748	2.197	1.845	1.528	1.437	1.066	0.985	0.719	0.811	0.752	0.607	0.737	0.545	0.590	0.467	0.468	0.474	0.490	0.453	0.270	0.363	0.334	0.357	0.285	0.287	0.291	0.283	0.276	0.322	0.247	0.245	0.278	0.280	0.252	0.320	0.507	0.915	1.222	1.118	0.928	1.352	2.180	3.359	7.076	16.49	25.24	19.28	7.181	1.153	0.226	0.209	0.231	0.212	0.211	0.166	0.162	0.189	0.157	0.195	0.169	0.173	0.170	0.188	0.146
260.0	25.42	26.23	88.12	293.5	279.1	230.9	977.2	4272	2382	233.8	15.04	5.170	4.200	3.448	2.503	2.050	1.794	1.586	1.161	1.055	0.890	0.896	0.838	0.754	0.618	0.666	0.586	0.451	0.459	0.469	0.441	0.444	0.322	0.413	0.392	0.328	0.369	0.311	0.325	0.306	0.275	0.311	0.241	0.321	0.307	0.245	0.201	0.274	0.266	0.478	0.885	1.617	1.444	0.897	0.877	1.135	1.963	5.126	13.24	25.11	28.50	17.75	4.823	0.634	0.227	0.182	0.201	0.187	0.183	0.172	0.132	0.245	0.164	0.191	0.229	0.204	0.185
265.0	26.70	22.44	37.41	175.1	403.9	240.2	292.5	1709	5236	2024	171.0	9.536	5.212	4.486	3.131	2.306	1.768	1.513	1.304	1.220	1.000	0.924	0.843	0.694	0.625	0.681	0.576	0.515	0.592	0.413	0.550	0.509	0.396	0.377	0.427	0.362	0.301	0.385	0.321	0.298	0.305	0.283	0.262	0.338	0.306	0.276	0.241	0.273	0.240	0.259	0.392	1.050	1.815	1.838	1.234	0.795	0.870	1.575	3.445	8.535	20.25	34.85	28.40	13.86	2.449	0.264	0.253	0.209	0.219	0.205	0.182	0.195	0.183	0.255	0.206	0.183	0.158
270.0	40.87	32.24	37.70	83.46	276.5	462.8	313.0	472.2	1956	4709	4424	695.4	31.49	6.266	4.128	2.807	2.251	1.828	1.419	1.436	1.128	1.022	0.972	0.968	0.729	0.684	0.626	0.672	0.530	0.513	0.471	0.488	0.462	0.408	0.420	0.372	0.387	0.303	0.356	0.312	0.321	0.266	0.290	0.311	0.318	0.330	0.321	0.298	0.240	0.221	0.349	0.536	0.940	1.428	2.005	2.176	1.714	1.266	1.249	2.358	5.180	11.08	19.11	28.24	30.19	19.64	10.88	2.271	0.357	0.221	0.261	0.268	0.212	0.228	0.246	0.160	0.229
275.0	81.37	88.58	76.06	83.64	158.4	344.3	604.0	338.6	500.8	1290	4979	7319	890.6	25.00	5.675	3.810	2.825	2.320	1.845	1.614	1.371	1.064	1.046	0.894	0.780	0.736	0.603	0.684	0.549	0.662	0.588	0.521	0.501	0.600	0.484	0.447	0.598	0.493	0.483	0.322	0.344	0.331	0.295	0.387	0.517	0.467	0.411	0.408	0.471	0.305	0.381	0.405	0.554	0.828	1.100	1.785	2.681	3.076	2.026	1.248	1.614	2.900	4.630	7.066	11.21	25.07	47.61	30.36	15.39	2.144	0.275	0.280	0.267	0.213	0.235	0.204	0.240
280.0	139.5	162.0	141.4	103.8	135.2	236.2	503.8	575.9	243.7	356.9	1591	7308	6391	140.4	12.62	5.619	3.632	2.775	2.220	2.016	1.395	1.316	1.128	0.850	0.962	0.756	0.939	0.679	0.733	0.631	0.529	0.596	0.560	0.663	0.517	0.528	0.614	0.504	0.536	0.399	0.372	0.382	0.451	0.390	0.612	0.531	0.519	0.607	0.625	0.553	0.457	0.439	0.535	0.763	0.918	1.133	1.513	2.846	3.686	2.714	1.309	1.284	1.435	2.080	3.029	6.786	20.21	37.53	51.95	27.35	10.44	1.004	0.313	0.237	0.308	0.238	0.208
285.0	219.1	237.0	210.6	135.3	138.9	189.7	295.4	613.5	335.5	185.6	455.5	2575	8444	4774	102.4	8.527	4.794	3.222	3.028	2.132	1.855	1.369	1.253	1.040	0.959	0.875	0.852	0.724	0.709	0.596	0.571	0.581	0.534	0.649	0.541	0.636	0.666	0.645	0.475	0.514	0.447	0.495	0.526	0.511	0.651	0.631	0.720	0.794	0.768	0.678	0.609	0.548	0.584	0.764	0.786	0.846	0.980	1.461	2.357	3.579	3.074	1.738	1.083	0.973	1.313	2.095	5.092	10.93	27.46	47.41	50.79	22.01	5.015	0.503	0.373	0.326	0.250
290.0	290.1	324.0	281.5	177.1	143.5	167.9	197.4	325.2	558.7	457.7	275.9	733.9	2792	6137	5302	415.8	21.54	4.560	3.488	2.561	2.160	1.702	1.295	1.355	1.097	1.036	0.783	0.777	0.755	0.741	0.629	0.579	0.708	0.633	0.717	0.729	0.722	0.649	0.609	0.585	0.490	0.524	0.536	0.576	0.681	0.899	0.904	0.989	1.004	0.846	0.647	0.717	0.667	0.730	0.714	0.883	0.869	1.000	1.222	1.702	2.460	3.214	3.307	2.333	1.503	1.350	2.035	3.370	7.215	13.55	24.53	34.19	33.87	34.39	15.49	5.046	0.642
295.0	338.9	417.1	367.6	234.7	171.2	160.3	177.9	212.6	331.3	725.3	614.1	416.7	816.7	1614	4707	6224	576.2	17.98	4.801	3.246	2.459	1.831	1.688	1.323	1.115	1.177	0.942	0.758	0.839	0.903	0.679	0.614	0.612	0.783	0.758	0.816	0.758	0.655	0.621	0.617	0.584	0.616	0.720	0.654	0.822	0.998	1.073	1.233	1.236	0.971	0.780	0.879	0.767	0.687	0.768	0.838	0.855	0.844	0.995	1.009	1.267	1.645	2.474	4.099	4.177	2.810	1.842	1.795	2.886	3.959	6.384	8.549	10.33	23.63	45.54	51.06	24.05
300.0	357.3	441.9	413.2	269.2	185.9	172.3	198.0	225.0	276.1	522.0	945.5	565.9	445.1	539.2	1416	5916	5177	85.84	10.27	4.070	3.437	2.237	1.909	1.501	1.219	1.155	1.080	0.920	0.988	0.897	0.692	0.699	0.621	0.741	0.698	0.829	0.787	0.708	0.736	0.650	0.693	0.657	0.814	0.783	0.927	1.062	1.131	1.326	1.269	1.160	0.894	0.919	0.925	0.749	0.842	0.873	0.923	0.897	1.153	1.087	1.239	1.389	1.664	2.697	4.075	5.448	3.756	2.416	2.320	2.277	2.718	2.930	3.236	6.325	15.26	34.57	53.63
305.0	394.6	459.9	431.9	289.6	222.3	210.5	231.1	259.1	307.8	435.4	834.2	968.1	491.7	361.7	468.1	1955	6545	3971	66.58	6.519	4.114	2.841	2.211	1.810	1.558	1.245	1.189	1.032	0.924	0.731	0.856	0.745	0.763	0.683	0.824	0.884	0.868	0.673	0.765	0.724	0.618	0.763	0.784	0.765	0.987	1.108	1.203	1.424	1.261	1.136	0.986	1.149	0.979	0.832	1.011	1.017	1.129	1.200	1.338	1.346	1.395	1.554	1.774	2.066	2.733	4.288	5.054	4.664	3.088	2.178	2.128	1.927	1.933	2.425	4.258	9.311	21.42
310.0	397.4	478.2	441.9	324.8	253.9	240.1	270.9	306.5	359.2	452.3	624.2	917.0	883.7	470.2	311.1	556.6	2054	4608	4264	298.9	18.39	4.212	3.002	2.177	1.798	1.603	1.356	1.188	1.001	0.945	0.883	0.733	0.756	0.727	0.835	0.872	0.879	0.778	0.749	0.753	0.746	0.757	0.774	0.835	0.976	1.132	1.172	1.431	1.328	1.224	1.079	1.143	1.052	1.016	1.111	1.129	1.381	1.311	1.465	1.571	1.557	1.827	2.076	2.157	2.534	2.915	3.661	4.462	5.167	4.370	3.473	2.382	2.089	1.926	2.162	3.039	5.614
315.0	385.3	496.2	476.8	364.2	292.9	289.7	314.8	351.5	402.3	489.2	598.0	704.5	868.5	836.2	396.7	300.3	580.7	1161	3272	4498	456.4	16.71	4.237	2.854	2.127	1.649	1.432	1.182	1.050	1.061	0.893	0.836	0.839	0.892	0.829	0.816	0.751	0.826	0.701	0.815	0.707	0.692	0.867	0.919	1.003	1.143	1.255	1.518	1.409	1.225	1.103	1.255	1.217	1.156	1.251	1.364	1.452	1.498	1.515	1.700	1.811	2.106	2.132	2.462	2.622	2.846	3.190	3.372	3.868	4.092	5.264	4.637	3.319	2.323	1.859	1.953	2.236
320.0	453.0	541.3	540.6	416.0	337.3	331.1	361.9	383.8	452.1	528.7	629.9	693.0	739.5	919.5	660.5	321.2	309.2	384.3	948.2	4039	4001	351.5	8.904	3.897	2.708	1.971	1.712	1.516	1.287	1.140	1.020	0.831	0.861	0.775	0.790	0.835	0.791	0.818	0.730	0.737	0.748	0.718	0.953	0.835	0.962	1.270	1.394	1.695	1.692	1.408	1.288	1.359	1.445	1.399	1.471	1.595	1.483	1.750	1.713	1.958	2.004	2.355	2.327	2.597	2.840	3.057	3.169	3.333	3.524	3.689	4.111	4.997	5.166	3.951	2.716	1.921	1.899
325.0	542.7	668.8	723.9	547.0	418.4	369.2	398.2	416.0	486.4	572.0	660.3	739.7	727.0	785.0	864.1	482.7	302.1	246.9	319.2	1273	4557	3366	56.48	5.962	3.433	2.352	1.954	1.533	1.304	1.161	0.970	0.939	0.835	0.850	0.839	0.848	0.827	0.881	0.887	0.727	0.894	0.802	0.852	0.972	1.095	1.285	1.544	2.057	2.112	1.693	1.726	1.809	1.651	1.548	1.593	1.690	1.797	1.793	2.054	2.072	2.316	2.315	2.512	2.672	3.044	3.193	3.208	3.500	3.607	3.600	3.867	3.829	4.716	5.390	4.662	2.860	2.428
330.0	594.5	830.2	938.1	737.3	519.6	442.3	430.4	455.3	519.2	609.4	702.2	780.6	769.8	738.4	758.1	715.3	460.0	273.2	219.6	390.7	1382	3388	3477	864.7	16.58	3.569	2.409	1.880	1.540	1.342	1.180	1.054	0.917	0.968	0.921	0.910	0.895	0.860	0.879	0.843	0.910	0.829	0.948	1.105	1.134	1.603	1.970	2.342	2.659	2.312	2.243	2.430	1.995	1.908	1.845	1.773	1.952	1.877	1.998	2.123	2.363	2.459	2.669	2.898	3.105	3.384	3.502	3.648	3.868	3.795	4.005	3.743	3.896	4.301	4.644	4.506	4.095
335.0	655.2	957.2	1072	876.8	638.9	527.8	496.6	497.3	557.4	649.0	741.3	815.4	821.7	784.4	717.6	677.8	700.1	423.9	253.5	236.8	394.2	837.6	2434	4507	401.3	16.77	3.551	2.421	2.062	1.399	1.358	1.248	0.944	1.112	0.926	0.995	0.979	0.955	0.827	0.811	0.934	0.849	0.988	1.143	1.278	1.761	2.227	2.867	2.815	2.758	2.675	2.983	2.496	2.215	2.086	2.127	2.144	2.160	2.222	2.298	2.494	2.418	2.900	3.275	3.465	3.219	3.699	3.522	4.081	4.181	4.110	4.115	4.092	4.081	3.628	3.871	4.432
340.0	673.3	1009	1153	973.5	708.4	579.1	526.0	518.7	571.1	665.7	762.4	827.3	839.0	808.7	732.4	641.3	675.7	606.8	323.0	228.3	195.5	247.7	676.9	3318	3404	319.9	7.630	3.295	2.319	1.797	1.426	1.339	1.293	1.154	1.009	0.967	0.976	0.896	0.893	0.832	0.826	0.795	1.006	1.192	1.286	2.000	2.230	2.757	2.986	2.934	2.799	3.227	2.693	2.542	2.245	2.151	2.216	2.328	2.313	2.559	2.480	2.810	3.101	3.306	3.590	3.396	3.737	3.828	3.990	4.398	4.143	4.227	4.290	4.232	3.931	3.845	3.659
345.0	679.4	1014	1195	1028	759.4	620.0	541.5	547.1	594.0	662.6	756.8	830.6	847.1	818.1	739.5	635.9	597.0	639.4	450.7	256.2	172.0	141.3	206.4	991.9	3694	2939	50.63	5.054	2.841	2.119	1.614	1.463	1.060	1.082	1.068	0.961	0.795	0.945	0.868	0.879	0.837	0.862	1.040	1.210	1.445	1.899	2.274	2.912	3.057	3.216	2.856	3.312	2.868	2.673	2.389	2.485	2.535	2.438	2.391	2.403	2.347	2.881	3.117	3.003	3.174	3.529	3.550	3.789	3.915	4.187	3.997	4.245	4.391	4.160	4.057	3.898	3.961
350.0	660.1	971.7	1164	1047	807.7	654.5	572.3	569.5	601.1	673.2	752.8	812.9	832.3	808.0	749.8	658.6	585.1	551.1	537.5	393.2	222.6	153.2	132.7	282.0	1095	2758	2917	744.0	15.14	2.860	2.198	1.685	1.359	1.077	1.144	0.981	0.938	0.851	0.811	0.777	0.780	0.855	0.991	1.150	1.417	1.672	2.198	2.749	3.005	3.001	3.059	3.397	3.052	2.764	2.522	2.693	2.551	2.448	2.421	2.534	2.551	2.823	3.060	3.168	3.347	3.499	3.486	3.667	3.869	4.059	4.026	4.132	4.274	4.385	4.181	4.032	3.996
355.0	644.5	926.3	1092	1032	857.0	715.1	622.4	602.1	630.3	695.8	753.3	807.4	819.3	806.3	756.5	677.8	609.3	541.5	488.3	504.0	348.9	204.6	153.8	153.7	304.5	678.4	1959	3365	367.8	15.28	3.205	2.038	1.455	1.142	1.218	1.076	0.991	0.954	0.760	0.840	0.819	0.942	0.878	1.066	1.308	1.567	1.998	2.504	2.809	2.895	3.085	3.399	3.238	3.021	2.902	2.761	2.634	2.725	2.812	2.729	2.709	2.890	3.229	3.237	3.259	3.504	3.655	3.609	3.642	3.980	3.995	4.159	4.342	4.450	4.317	3.938	4.131
360.0	615.5	864.3	1067	1016	870.5	732.1	660.0	630.5	671.5	717.4	761.4	813.0	818.6	803.0	756.6	687.2	627.2	553.5	481.1	482.1	461.0	281.4	188.8	148.7	147.6	202.2	540.5	2601	3057	299.4	6.986	2.628	1.740	1.489	1.266	0.999	0.932	0.963	0.801	0.824	0.831	0.980	0.920	1.086	1.289	1.649	2.017	2.602	2.876	2.734	2.781	3.287	3.197	3.131	3.029	2.975	2.975	2.830	2.782	2.903	2.938	3.069	3.195	3.288	3.370	3.468	3.306	3.608	3.659	4.000	4.124	4.085	4.449	4.235	4.610	3.908	4.367
365.0	600.0	828.9	1037	1004	882.8	771.4	691.8	670.5	693.3	730.1	773.4	803.2	814.3	793.6	756.8	697.2	637.5	578.5	499.7	461.4	476.1	393.3	240.7	175.4	137.8	117.2	168.7	786.4	3135	2648	46.78	4.529	2.259	1.654	1.504	1.093	1.020	0.953	0.956	0.916	0.844	0.870	0.945	1.086	1.433	1.522	1.883	2.427	2.641	2.664	2.852	3.286	3.055	3.292	2.994	3.015	2.921	2.704	2.835	2.795	2.860	3.102	3.151	3.185	3.645	3.852	3.544	3.610	3.895	3.817	3.974	4.289	4.329	3.993	4.294	3.983	4.235
370.0	581.5	798.6	989.2	974.5	889.1	802.4	728.9	702.2	718.7	745.2	767.1	796.1	796.4	782.7	748.1	695.1	654.7	599.5	535.6	481.8	444.3	448.1	368.2	237.3	171.9	127.8	111.6	226.3	927.4	2450	2590	657.4	13.32	2.567	1.762	1.356	1.186	1.117	1.044	0.895	0.862	0.971	0.929	1.154	1.271	1.541	1.728	2.237	2.625	2.669	2.682	3.322	3.329	3.316	3.031	2.996	3.065	2.981	3.033	3.051	3.017	3.187	3.223	3.413	3.610	3.713	3.697	3.743	3.756	3.959	3.804	4.231	4.155	4.166	4.155	3.930	4.236
375.0	553.1	762.6	912.3	952.8	900.4	811.0	752.4	735.9	744.2	762.9	771.4	781.8	786.2	771.5	727.6	697.9	660.6	616.0	563.2	510.1	457.3	423.9	440.5	346.4	224.1	164.0	126.9	122.5	255.3	603.8	1765	2990	317.6	12.82	2.447	1.824	1.330	1.207	1.099	0.937	0.914	0.975	0.910	1.204	1.131	1.474	1.713	2.235	2.344	2.460	2.789	3.360	3.448	3.289	2.952	3.070	3.178	3.243	3.143	3.308	2.973	3.487	3.477	3.459	3.738	3.638	3.622	3.525	3.443	3.780	3.824	4.087	4.141	3.970	4.154	3.900	4.360
380.0	557.1	734.1	887.4	959.1	902.0	817.9	764.7	747.1	752.3	766.5	776.6	787.5	775.9	754.0	724.4	693.6	655.1	621.5	576.9	528.6	474.5	429.7	419.4	420.7	289.2	197.3	151.0	119.1	122.1	179.9	489.5	2317	2580	243.1	5.231	2.286	1.619	1.289	1.246	0.856	0.904	0.944	0.910	1.060	1.295	1.481	1.680	2.154	2.323	2.322	2.643	3.229	3.177	3.312	3.094	2.758	3.083	3.377	3.166	3.234	3.260	3.386	3.664	3.544	3.462	3.674	3.432	3.494	3.459	3.882	3.907	3.915	4.024	3.953	4.122	3.978	4.218
385.0	555.2	733.8	870.8	924.7	889.1	824.3	773.9	748.7	759.5	763.4	773.4	773.3	756.3	742.2	712.9	681.8	656.2	619.2	579.4	541.2	488.9	444.3	407.9	416.8	367.9	237.1	177.7	137.5	107.8	97.17	150.0	700.0	2577	2090	37.81	3.548	2.012	1.485	1.185	1.014	0.902	0.954	1.068	1.120	1.375	1.472	1.620	2.204	2.511	2.355	2.528	3.188	3.234	3.042	3.307	3.073	3.212	3.409	3.220	3.318	3.222	3.279	3.448	3.512	3.444	3.385	3.430	3.521	3.500	3.607	3.779	3.882	3.808	4.190	3.907	4.000	4.377
390.0	529.8	717.2	847.3	913.0	890.8	836.0	794.0	765.5	753.8	759.6	764.0	758.6	745.4	724.4	694.0	663.1	635.5	612.3	577.8	547.5	507.5	463.6	421.3	396.6	393.3	331.6	228.9	169.9	132.3	102.6	90.41	194.4	757.9	1884	1892	158.3	10.99	2.132	1.647	1.134	1.118	1.062	0.950	1.097	1.258	1.494	1.743	2.074	2.347	2.210	2.475	3.016	3.218	3.204	3.171	3.077	3.420	3.297	3.276	3.273	3.387	3.305	3.321	3.560	3.355	3.353	3.387	3.504	3.454	3.501	3.702	3.583	3.788	3.778	3.857	3.965	4.241
395.0	502.6	686.7	836.2	894.5	892.7	836.0	801.8	771.3	756.6	749.4	756.2	750.6	730.9	710.2	679.9	646.9	622.4	597.8	572.5	548.3	515.7	480.9	441.4	405.5	374.6	371.2	316.8	219.6	167.5	130.0	99.57	97.10	205.4	463.3	1339	2229	259.2	9.187	2.157	1.526	1.128	1.119	0.992	1.168	1.326	1.483	1.705	2.075	2.224	2.388	2.482	2.855	3.250	3.272	3.295	3.155	3.209	3.384	3.224	3.349	3.498	3.501	3.390	3.459	3.547	3.389	3.297	3.707	3.303	3.581	3.581	3.709	3.668	3.813	3.667	3.928	3.876
400.0	477.0	699.1	837.5	873.2	883.7	833.8	793.5	770.2	760.8	757.8	761.5	734.5	728.2	701.7	670.9	634.7	607.5	594.2	567.8	544.0	515.2	487.5	453.7	419.6	380.7	361.5	363.6	276.1	199.4	154.7	117.6	88.48	91.95	134.3	378.4	1759	1930	190.7	4.534	1.872	1.443	1.100	1.054	1.126	1.344	1.441	1.664	2.123	2.103	2.102	2.476	2.916	3.228	3.134	3.248	3.187	3.349	3.476	3.268	3.443	3.372	3.435	3.342	3.583	3.440	3.500	3.256	3.360	3.520	3.445	3.561	3.691	3.488	3.724	3.641	3.799	3.876
405.0	478.4	683.0	816.9	873.9	869.1	833.0	800.4	778.7	757.7	754.5	751.8	737.4	725.9	689.9	660.9	623.2	598.0	579.3	555.4	537.0	509.1	488.2	461.3	431.2	391.9	356.8	358.8	332.8	233.1	178.4	135.2	100.7	76.40	67.79	111.6	532.8	1926	1538	32.52	2.737	1.539	1.232	1.137	1.158	1.222	1.471	1.650	2.047	2.098	2.117	2.421	2.887	3.199	3.094	3.179	3.133	3.335	3.510	3.503	3.263	3.297	3.585	3.192	3.352	3.433	3.370	3.198	3.231	3.402	3.360	3.495	3.488	3.474	3.518	3.494	3.482	3.891
410.0	466.1	660.7	781.7	852.4	847.9	825.1	800.4	765.0	761.6	755.1	747.2	727.3	708.7	674.0	637.1	597.9	577.8	555.0	534.1	515.6	498.8	480.0	461.9	436.5	404.6	367.9	345.5	339.4	300.5	218.7	158.6	119.4	86.84	65.26	59.52	143.9	572.0	1433	1422	144.2	8.743	1.789	1.410	1.360	1.288	1.432	1.662	1.994	2.104	2.108	2.358	2.808	3.033	3.126	3.044	3.160	3.180	3.274	3.335	3.480	3.324	3.289	3.313	3.374	3.289	3.168	3.291	3.130	3.223	3.293	3.411	3.344	3.497	3.621	3.513	3.368	3.716
415.0	456.2	630.5	750.3	807.5	837.5	801.1	794.3	760.8	750.4	736.4	736.8	708.4	676.4	647.7	604.1	571.8	541.5	523.9	507.6	493.4	479.8	469.3	451.7	431.8	409.1	375.8	343.2	320.8	319.2	270.4	189.9	139.1	101.7	75.64	56.59	61.89	147.7	349.5	1013	1641	222.9	7.392	1.795	1.682	1.317	1.439	1.625	1.810	2.030	2.053	2.299	2.711	2.866	2.969	2.859	3.176	3.199	3.380	3.403	3.529	3.461	3.311	3.187	3.302	3.371	3.140	3.309	3.139	3.269	3.336	3.072	3.266	3.402	3.202	3.371	3.289	3.704
420.0	442.9	609.4	713.2	804.4	807.1	784.7	778.8	754.5	741.8	720.3	707.4	697.3	653.4	627.0	579.8	540.7	517.5	501.3	485.9	470.4	465.7	454.1	443.2	423.8	401.9	375.0	346.4	316.7	302.4	295.4	222.9	151.6	112.3	83.06	60.63	48.33	56.83	93.75	280.5	1280	1450	35.37	3.278	1.806	1.492	1.479	1.678	1.999	2.074	1.957	2.279	2.550	2.964	2.985	2.874	2.876	3.093	3.183	3.261	3.467	3.299	3.299	3.280	3.088	3.201	3.209	3.238	3.283	3.204	3.314	3.065	3.048	3.433	3.343	3.164	3.206	3.476
425.0	415.3	589.4	712.7	770.7	775.4	771.7	757.9	736.7	735.9	712.5	690.4	676.4	634.5	597.6	565.2	521.3	494.6	479.5	464.3	454.0	446.7	435.9	427.8	416.5	396.3	372.5	346.2	318.2	291.1	286.3	256.2	172.3	122.2	92.72	68.43	50.74	41.08	40.09	76.07	389.0	1424	1143	29.83	2.427	1.835	1.779	1.650	2.033	2.003	2.035	2.013	2.752	2.936	2.912	2.829	2.976	3.031	3.151	3.113	3.240	3.288	3.106	3.180	3.242	2.987	3.001	3.146	2.954	3.001	3.357	3.080	3.060	3.170	2.949	3.086	3.384	3.219
430.0	454.2	575.3	673.7	743.8	745.6	753.2	744.0	734.6	717.5	700.4	677.2	655.8	617.4	573.4	534.5	497.2	468.5	451.8	440.0	428.5	420.1	415.5	410.1	401.7	386.0	367.2	340.8	316.7	288.1	266.3	252.6	207.6	143.5	103.5	78.71	58.55	43.88	33.47	34.73	99.54	416.3	1056	1109	134.5	8.411	2.010	1.872	1.960	1.917	1.878	2.023	2.501	2.649	2.814	2.906	2.938	2.961	3.263	3.002	3.140	3.090	3.239	3.161	3.136	3.141	2.939	3.222	2.914	2.855	2.928	2.930	2.933	2.926	2.915	3.109	3.029	2.976
435.0	618.6	532.0	634.8	683.7	727.3	724.4	719.1	727.2	706.6	674.5	654.5	636.1	599.2	556.1	504.2	467.4	438.4	425.3	413.2	404.6	400.4	397.1	390.5	383.7	371.5	356.7	334.8	315.6	287.7	261.2	234.2	217.6	177.3	119.9	88.85	68.19	50.20	38.42	30.33	38.10	104.5	255.8	773.4	1386	211.3	8.064	2.320	2.172	1.933	1.996	2.004	2.484	2.558	2.728	2.802	2.866	2.909	3.147	3.147	3.075	3.007	3.224	3.248	3.041	3.252	3.047	2.961	2.883	2.774	2.941	2.935	2.643	2.833	2.720	2.726	2.785	2.719
440.0	851.2	553.6	612.5	666.5	695.9	720.7	717.5	699.9	680.6	659.6	648.1	618.2	573.4	535.4	487.8	444.2	419.6	403.7	393.0	384.7	381.5	376.8	373.9	370.9	360.4	342.4	326.5	309.2	284.6	261.0	226.5	205.5	192.8	140.9	97.64	75.04	56.99	42.36	32.97	27.08	37.18	67.59	215.0	1072	1281	162.9	4.168	2.456	2.024	2.009	1.966	2.533	2.337	2.686	2.718	2.931	2.976	3.092	3.232	3.104	3.134	3.098	3.205	2.928	3.092	2.963	2.752	2.920	2.875	2.763	2.760	2.601	2.660	2.720	2.614	2.756	2.808
445.0	964.7	720.6	594.3	655.2	668.5	685.5	689.2	678.5	659.4	643.0	644.9	605.6	555.6	511.9	466.7	421.9	399.2	384.9	377.9	364.2	361.0	358.6	355.8	354.7	345.0	333.0	315.9	303.5	280.9	257.1	225.0	194.4	180.4	159.0	110.1	80.22	63.11	47.74	35.62	27.83	24.91	26.91	57.81	324.5	1236	1079	26.40	3.094	2.221	2.101	1.990	2.464	2.451	2.663	2.539	2.753	2.874	2.913	2.873	3.005	2.973	2.961	2.825	2.864	2.996	3.019	2.713	2.922	2.728	2.738	2.662	2.475	2.718	2.615	2.691	2.659	2.568
450.0	748.2	1171	650.3	608.5	638.2	644.2	649.2	651.6	627.6	611.4	603.2	565.9	518.6	480.5	434.9	394.1	367.0	358.5	347.5	338.9	334.0	331.5	329.4	329.4	321.7	309.9	298.4	285.4	268.5	247.6	220.2	188.2	163.5	154.3	130.7	91.57	68.39	53.51	41.62	32.01	25.53	20.85	24.47	81.81	359.0	946.8	1033	121.3	7.909	2.217	2.074	2.476	2.530	2.537	2.456	2.567	2.767	2.946	2.692	2.785	2.809	2.849	2.763	2.713	2.916	2.702	2.645	2.495	2.450	2.499	2.530	2.336	2.446	2.525	2.444	2.338	2.373
455.0	444.8	1298	1063	573.4	583.3	603.8	602.4	616.0	587.0	576.1	559.8	530.2	477.0	438.9	395.1	361.2	336.2	326.5	316.3	308.7	302.6	300.5	300.5	298.7	291.5	285.2	274.7	265.1	248.4	235.1	209.8	181.9	156.2	136.5	130.6	109.3	76.46	58.42	46.06	36.60	28.89	23.53	19.55	28.96	88.53	226.8	633.5	1140	176.8	7.807	2.270	2.684	2.457	2.304	2.362	2.462	2.545	2.707	2.606	2.700	2.768	2.456	2.552	2.594	2.435	2.631	2.201	2.568	2.480	2.308	2.457	2.265	2.223	2.333	2.248	2.342	2.408
460.0	310.3	1034	1586	611.8	553.5	570.5	571.1	568.5	554.2	550.2	526.8	499.0	451.3	410.8	367.6	332.1	313.6	299.9	291.2	287.2	279.6	274.5	277.0	275.7	272.6	265.3	257.9	247.0	237.3	222.7	201.3	174.9	149.8	128.8	118.6	113.7	85.68	61.93	49.34	38.90	31.58	25.43	20.14	19.04	29.42	58.37	167.3	801.0	1004	133.8	4.396	2.581	2.419	2.524	2.357	2.299	2.416	2.464	2.387	2.305	2.458	2.239	2.634	2.320	2.213	2.345	2.398	2.339	2.255	2.363	2.216	2.165	2.000	2.167	1.966	2.021	2.193
465.0	276.5	622.8	1838	864.3	522.3	515.0	536.9	537.9	531.4	515.9	508.9	466.6	426.5	385.5	336.1	313.4	293.4	280.5	269.6	265.9	258.4	254.9	253.9	252.9	250.6	244.2	239.2	231.3	221.2	209.1	193.2	168.4	144.6	124.3	108.2	105.3	95.08	67.13	50.87	41.21	33.50	26.71	21.93	17.73	16.85	21.38	44.05	232.0	912.2	819.3	22.31	3.358	2.308	2.293	2.075	2.210	2.169	2.255	2.292	2.489	2.373	2.353	2.606	2.377	2.329	2.034	2.173	2.117	2.088	2.200	2.065	2.214	2.046	1.945	1.836	2.048	1.839
470.0	257.5	388.7	1255	1695	597.3	482.2	492.4	494.1	477.5	470.2	459.6	429.2	391.0	347.5	309.3	282.5	261.2	247.6	240.5	234.2	227.2	224.7	228.9	225.9	222.2	219.9	213.7	209.0	199.5	190.4	176.8	156.7	136.6	117.0	101.3	90.37	88.05	75.44	56.25	42.83	34.79	28.11	23.36	18.57	15.66	13.99	17.26	57.94	254.5	638.3	705.7	116.3	9.227	2.468	2.157	2.106	2.115	2.110	2.205	2.180	2.318	2.230	2.323	2.208	2.077	2.123	2.032	1.907	1.934	1.885	1.930	2.136	1.864	1.894	1.758	1.924	1.765
475.0	241.4	311.4	601.0	1827	1147	437.8	438.9	439.7	434.9	422.4	418.8	381.9	341.6	315.1	274.3	249.8	233.7	218.8	211.2	206.3	201.1	197.5	201.7	198.7	196.1	194.2	189.4	184.5	177.5	173.1	160.0	141.3	126.4	108.6	94.54	83.16	75.34	73.10	63.52	46.30	36.26	29.38	24.56	20.20	16.96	13.33	12.01	19.65	62.17	149.6	350.9	763.0	183.3	10.40	2.378	2.089	2.060	1.903	1.952	2.089	2.022	2.220	1.903	1.931	1.970	1.997	1.926	1.896	1.832	1.730	1.674	1.930	1.711	1.821	1.602	1.722	1.517
480.0	236.1	281.8	377.3	1250	1790	515.5	406.6	405.5	406.6	397.2	383.1	353.5	319.8	290.9	256.2	232.4	213.3	203.5	193.7	189.3	181.8	180.6	181.7	180.0	179.0	175.6	171.6	167.8	162.4	158.4	149.7	132.0	117.6	102.2	89.20	78.11	70.02	64.51	65.32	50.86	37.37	30.09	25.31	20.79	17.36	14.16	11.63	11.44	20.14	38.27	88.86	434.7	748.9	162.8	5.013	2.122	1.936	1.855	1.946	2.172	2.185	1.952	1.750	1.828	1.850	1.818	1.731	1.681	1.721	1.528	1.673	1.647	1.581	1.633	1.428	1.594	1.441
485.0	233.3	282.1	314.4	685.4	2040	836.2	374.1	382.8	380.0	367.3	353.0	332.0	303.2	267.9	237.9	215.9	200.7	188.9	179.6	172.6	171.7	167.6	166.5	168.2	164.7	162.7	160.4	155.0	152.2	146.4	139.0	125.1	111.3	97.33	86.45	75.76	66.63	59.12	60.12	55.99	40.13	30.25	25.97	21.18	18.41	15.24	12.29	10.41	10.89	13.73	23.92	116.8	560.1	693.6	27.44	3.328	1.969	1.915	1.916	1.909	1.868	1.798	1.689	1.755	1.668	1.750	1.642	1.656	1.724	1.555	1.478	1.487	1.367	1.523	1.429	1.371	1.452
490.0	193.3	291.5	295.6	402.0	1350	1631	440.1	352.9	348.2	338.5	325.1	307.7	277.6	247.5	218.1	196.2	181.5	172.1	162.6	158.1	154.2	150.3	149.4	151.2	150.1	146.3	143.2	139.7	137.4	133.1	127.6	114.8	103.0	91.13	81.72	71.86	63.21	55.74	52.10	52.03	45.57	34.00	26.62	22.08	18.92	15.71	13.39	11.18	9.270	8.922	10.08	29.99	147.3	424.2	586.1	259.7	11.65	2.096	1.837	1.757	1.720	1.621	1.627	1.604	1.631	1.615	1.590	1.598	1.545	1.513	1.408	1.314	1.222	1.346	1.378	1.278	1.366
495.0	149.5	279.3	299.0	303.3	584.6	1797	991.0	320.3	316.6	307.4	294.6	276.5	252.2	223.4	198.6	176.6	163.6	151.3	145.1	139.7	136.2	133.1	132.3	132.8	132.0	130.6	126.3	124.0	123.9	119.6	114.4	104.8	94.60	84.52	75.45	67.40	59.43	51.51	46.28	43.85	44.49	39.52	28.54	22.43	19.40	16.13	14.11	11.92	9.518	8.155	7.242	10.85	36.31	98.54	264.7	704.5	221.5	14.45	1.967	1.851	1.644	1.657	1.583	1.551	1.626	1.527	1.470	1.488	1.516	1.389	1.318	1.222	1.423	1.249	1.172	1.164	1.146
500.0	140.7	233.2	303.4	267.1	332.3	1212	1638	367.6	281.5	280.2	266.4	248.1	231.4	203.5	182.1	159.8	148.9	136.9	131.1	126.8	123.5	121.9	119.6	119.8	117.7	117.5	114.9	112.7	112.5	110.5	103.4	94.86	87.37	77.49	69.95	63.37	55.29	49.64	43.50	39.72	38.22	39.76	31.51	22.99	19.30	16.47	14.03	12.20	9.875	8.375	6.792	6.998	12.05	25.08	65.09	339.1	713.2	193.9	8.210	1.822	1.541	1.614	1.569	1.389	1.485	1.423	1.268	1.282	1.383	1.263	1.290	1.271	1.330	1.284	1.066	1.030	1.181
505.0	126.6	183.2	291.5	257.5	261.9	629.5	1924	652.6	266.5	258.5	248.8	229.8	207.4	185.4	164.3	147.3	134.7	124.2	118.2	116.2	111.8	109.7	108.3	108.5	107.3	106.5	104.7	102.9	101.1	100.6	95.27	86.14	80.16	71.20	64.73	57.85	52.72	45.80	40.64	36.47	34.55	35.46	34.11	24.90	19.31	16.25	14.44	11.85	10.22	8.626	6.996	6.269	6.348	8.793	17.43	85.53	423.3	665.0	148.3	3.902	1.555	1.502	1.518	1.248	1.417	1.314	1.363	1.276	1.240	1.219	1.126	1.201	1.103	1.027	0.990	1.033	1.115
510.0	110.9	154.2	244.7	268.7	218.9	316.4	1235	1479	309.0	230.5	221.5	206.9	184.3	164.8	146.4	131.3	119.2	111.9	104.9	102.4	97.21	95.31	95.61	95.09	92.94	92.27	91.57	88.75	88.08	88.08	83.47	77.45	70.07	63.54	57.14	52.21	46.98	42.03	37.29	33.39	30.89	28.43	29.98	27.49	21.25	15.83	13.83	11.48	10.16	8.766	7.314	6.235	5.396	5.365	6.994	21.78	105.4	335.2	502.3	231.1	12.58	1.602	1.343	1.286	1.208	1.220	1.175	1.041	1.102	1.073	1.013	0.958	0.982	0.914	1.009	0.907	0.948
515.0	103.3	137.4	186.2	260.4	216.7	212.8	482.3	1739	840.9	211.0	198.1	184.6	162.5	141.5	126.1	113.6	103.5	98.16	91.41	88.18	83.69	83.06	81.48	80.63	79.78	79.17	78.42	77.46	76.59	75.99	72.55	67.67	61.54	55.66	50.07	46.53	41.86	37.01	34.05	30.37	27.04	24.49	24.02	25.55	23.41	16.75	13.06	11.16	9.328	8.403	7.326	6.362	5.321	4.853	4.520	7.533	25.88	77.20	173.0	502.2	227.8	16.19	1.476	1.267	1.017	1.091	1.117	1.037	0.998	0.886	0.944	0.877	0.866	0.815	0.907	0.771	0.806
520.0	82.55	118.9	149.6	236.8	230.1	183.3	247.4	1197	1527	255.0	178.1	161.6	146.3	129.4	114.7	100.9	94.11	87.34	81.78	78.05	73.85	73.31	73.03	71.46	69.15	70.00	69.17	68.73	68.25	67.12	65.04	59.29	55.09	50.14	45.55	41.69	38.47	34.12	31.60	27.92	25.58	22.65	21.10	21.94	23.20	18.05	13.30	11.30	9.234	8.312	7.233	6.524	5.782	4.724	4.070	4.632	8.321	19.55	41.44	210.9	509.8	193.9	9.485	1.346	1.058	0.941	0.892	0.923	0.846	0.827	0.871	0.876	0.883	0.789	0.893	0.712	0.863
525.0	72.52	110.6	123.0	190.0	241.8	171.6	182.6	559.2	1905	542.6	159.5	143.7	134.2	119.5	104.6	91.47	82.44	79.69	74.73	70.45	66.68	67.02	65.62	64.27	62.36	61.78	61.98	61.26	60.92	60.65	58.01	53.81	50.27	46.14	41.07	37.66	34.43	31.37	28.51	25.82	23.61	20.37	19.06	18.41	20.22	19.67	14.56	10.90	8.933	7.980	6.958	6.166	5.623	4.802	3.822	3.848	4.266	6.590	11.31	51.85	261.6	483.8	143.0	3.790	1.179	1.048	0.760	0.741	0.852	0.768	0.775	0.849	0.769	0.628	0.717	0.684	0.819
530.0	67.15	92.80	109.3	148.9	222.7	190.8	156.6	242.5	1251	1425	210.3	126.6	116.7	100.7	90.38	79.42	71.17	67.35	65.00	61.04	58.06	57.10	56.23	55.02	54.85	53.02	53.63	52.18	52.08	51.86	49.78	46.25	42.88	39.46	35.74	32.75	30.20	27.75	25.54	23.15	20.91	18.87	16.87	15.89	16.03	17.64	15.72	11.59	8.691	7.417	6.609	5.739	5.189	4.746	4.237	3.612	3.531	3.722	4.403	13.33	63.40	212.9	353.4	136.3	12.73	1.109	0.885	0.830	0.764	0.762	0.694	0.670	0.664	0.628	0.672	0.608	0.654
535.0	64.84	83.60	96.15	117.6	171.3	203.3	141.1	150.4	440.1	1747	725.9	114.8	102.0	86.24	76.87	68.35	61.79	56.41	55.46	52.95	49.24	48.20	47.86	45.78	46.14	46.52	45.54	43.59	45.32	43.61	41.95	39.19	36.38	33.54	30.99	28.76	26.48	23.82	22.28	19.86	18.48	16.48	15.65	13.55	13.44	13.51	14.93	12.93	9.075	7.100	6.039	5.574	4.829	4.307	4.187	3.453	3.125	2.934	2.613	4.609	15.62	48.96	109.0	320.3	219.6	16.52	0.946	0.818	0.698	0.636	0.679	0.581	0.591	0.724	0.552	0.636	0.572
540.0	52.49	66.22	84.01	97.73	130.5	201.5	138.0	121.5	188.2	1158	1477	157.6	88.71	77.27	68.86	61.20	53.37	50.81	49.90	45.56	43.14	42.94	42.29	40.45	39.03	39.65	39.07	38.40	39.56	38.27	36.38	34.27	32.31	29.35	27.78	26.18	22.90	21.57	20.20	18.07	16.85	14.98	13.85	12.26	11.49	10.80	12.22	12.68	9.865	6.902	5.726	5.250	4.462	3.964	3.788	3.649	3.165	2.563	2.335	2.665	4.901	12.20	25.83	123.6	358.0	177.2	9.154	0.853	0.715	0.661	0.684	0.640	0.582	0.614	0.542	0.478	0.609
545.0	48.01	64.35	78.11	90.07	100.9	166.8	152.4	104.1	120.3	494.2	1899	373.5	78.24	68.84	59.73	52.88	47.24	45.66	43.27	41.51	37.84	38.19	37.45	35.12	34.60	34.44	33.98	33.78	33.91	33.47	32.86	30.57	29.12	27.25	24.22	22.75	20.52	18.71	17.80	16.16	14.77	13.77	12.44	11.62	10.33	9.580	9.766	11.03	10.37	7.197	5.441	4.751	4.110	3.541	3.306	3.716	3.445	2.760	2.196	2.030	2.507	4.011	7.028	29.59	165.9	347.0	119.3	3.142	0.808	0.672	0.591	0.607	0.597	0.485	0.474	0.460	0.531
550.0	44.53	60.97	71.03	72.55	81.39	114.9	170.9	103.2	91.06	183.9	1176	1178	117.6	58.81	50.77	44.55	40.65	38.28	35.19	33.62	32.44	31.31	30.84	29.69	29.32	28.63	27.95	27.43	27.99	28.17	27.09	25.33	23.72	22.03	20.57	18.74	17.32	15.99	15.07	13.76	13.00	11.47	10.53	9.864	8.999	8.129	7.820	8.259	9.059	7.646	5.690	4.310	3.598	3.398	3.063	3.101	3.164	3.033	2.150	1.735	1.914	1.997	2.648	7.638	39.65	142.7	232.9	124.2	11.49	0.832	0.603	0.521	0.557	0.516	0.445	0.442	0.447
555.0	50.29	60.70	63.37	61.25	69.99	82.15	144.9	115.4	75.34	95.49	365.1	1556	455.9	50.48	40.68	37.29	34.17	30.78	29.05	27.38	26.09	25.17	24.47	23.40	23.57	22.30	22.73	22.88	22.77	23.28	22.14	20.47	19.26	17.43	16.70	15.18	14.26	13.08	12.58	11.42	10.70	9.684	8.892	8.258	7.184	6.791	6.413	6.316	6.647	7.103	6.128	4.241	3.403	3.081	2.753	2.650	2.388	2.643	2.380	1.713	1.479	1.400	1.633	2.633	9.576	32.69	72.11	211.0	164.0	13.31	0.662	0.516	0.501	0.441	0.463	0.415	0.440
560.0	49.40	57.43	54.26	55.55	55.15	63.97	105.2	130.3	68.71	70.30	130.5	1024	1062	71.39	36.01	31.38	29.03	24.97	24.18	23.68	21.89	20.95	20.33	20.52	19.19	19.43	19.02	19.19	18.49	19.40	18.37	17.24	16.39	14.56	14.21	13.28	12.44	11.07	10.13	9.623	9.051	8.034	7.632	7.174	6.638	5.987	5.606	5.234	5.097	5.751	5.966	4.762	3.087	2.712	2.686	2.446	2.122	2.189	2.362	1.785	1.456	1.249	1.433	1.500	2.926	8.117	17.13	79.75	228.3	112.7	5.781	0.539	0.498	0.452	0.411	0.369	0.378
565.0	43.57	52.21	53.26	48.63	48.80	53.40	73.57	132.5	73.98	58.40	73.65	411.3	1491	149.1	31.73	27.49	24.38	21.96	20.55	19.62	19.28	18.01	18.48	16.82	16.81	16.49	15.74	16.26	16.56	16.89	15.41	14.46	14.62	12.47	12.35	10.99	10.12	9.619	8.963	8.316	7.735	7.153	6.856	6.221	5.772	5.405	4.939	4.190	4.223	4.376	5.112	4.841	3.215	2.614	2.191	2.009	1.970	1.883	1.914	1.936	1.544	1.189	1.161	1.116	1.482	2.567	4.569	19.09	100.8	208.6	33.04	2.085	0.574	0.496	0.450	0.398	0.328
570.0	44.28	59.18	53.66	45.07	43.40	45.26	51.23	101.9	96.93	52.03	54.80	132.9	965.5	825.9	55.82	22.71	20.54	18.01	17.32	15.93	15.52	15.01	14.59	13.41	13.99	13.49	13.14	13.45	13.35	13.23	12.58	11.59	11.31	10.12	9.717	8.917	8.087	7.750	7.384	6.861	6.240	5.961	5.560	5.201	4.862	4.364	4.220	3.643	3.373	3.238	3.607	4.056	3.274	2.606	1.942	1.742	1.623	1.546	1.567	1.632	1.719	1.339	1.060	0.981	1.047	1.183	1.694	4.969	24.09	83.92	133.5	79.71	9.471	0.518	0.340	0.338	0.375
575.0	46.57	55.51	51.09	40.23	38.33	35.74	39.47	60.56	111.0	59.67	45.33	62.14	287.3	1159	278.7	19.94	16.09	14.98	13.06	12.91	12.59	11.46	11.43	11.12	10.64	11.05	10.41	10.91	10.79	10.65	9.686	9.629	9.311	8.515	7.465	7.377	6.604	6.305	5.954	5.668	5.112	5.010	4.654	4.036	4.013	3.514	3.377	3.003	2.790	2.680	2.519	2.905	3.216	2.772	1.821	1.510	1.577	1.359	1.254	1.365	1.464	1.631	1.105	0.926	0.943	0.874	1.046	1.718	6.003	19.37	40.17	125.3	99.85	8.723	0.361	0.349	0.337
580.0	46.36	53.42	50.04	39.20	32.90	32.61	32.62	43.69	99.26	78.25	43.72	44.53	94.03	777.3	726.9	31.38	13.55	13.02	11.68	11.22	10.73	10.25	9.671	9.206	8.975	9.254	9.069	8.787	8.968	8.846	8.320	8.186	7.609	7.294	6.457	6.133	5.618	5.633	5.189	4.725	4.724	4.061	3.741	3.557	3.356	3.193	2.943	2.606	2.400	2.321	2.102	2.150	2.845	2.790	2.021	1.491	1.297	1.232	1.153	1.179	1.088	1.361	1.310	0.940	0.853	0.662	0.808	1.019	1.987	5.000	9.601	46.78	134.9	35.17	3.545	0.336	0.274
585.0	45.30	47.13	42.75	37.26	30.60	29.74	30.92	37.69	70.78	96.22	45.12	41.63	48.13	304.3	1044	90.46	12.58	11.11	10.36	9.413	8.693	8.156	8.278	7.750	8.071	7.391	7.392	7.617	7.747	7.694	7.269	6.659	6.514	5.926	5.774	5.100	4.902	4.598	4.270	4.075	3.907	3.812	3.323	2.932	2.825	2.809	2.698	2.266	2.127	1.913	1.754	1.636	2.072	2.403	2.037	1.622	1.244	1.197	1.098	0.957	1.037	1.184	1.192	1.121	0.847	0.819	0.733	0.855	1.060	1.631	2.601	11.28	58.58	119.2	29.63	1.471	0.343
590.0	46.09	43.33	44.42	34.00	26.66	27.03	27.48	30.24	46.28	92.99	59.28	39.59	36.39	92.22	669.5	502.2	23.16	9.351	8.569	8.149	7.227	6.962	6.964	6.543	6.660	6.203	5.981	6.172	6.112	6.098	5.964	5.413	5.287	5.034	4.688	4.308	4.064	3.740	3.644	3.564	3.248	2.991	2.920	2.507	2.377	2.345	2.228	1.900	1.777	1.670	1.536	1.434	1.495	1.744	1.911	1.731	1.184	1.002	1.011	0.804	0.814	0.853	0.893	1.076	1.024	0.709	0.713	0.754	0.815	0.835	1.030	2.952	14.01	49.07	83.63	53.20	6.520
595.0	42.85	45.69	40.82	31.30	23.43	24.38	25.29	27.92	33.74	68.59	81.84	39.56	33.52	38.54	194.3	741.8	92.70	8.867	7.355	6.795	6.068	6.161	5.400	5.254	5.359	4.784	5.211	4.945	4.658	5.077	4.752	4.378	4.105	4.131	3.601	3.452	3.309	3.010	2.934	2.852	2.558	2.320	2.421	2.188	1.964	1.970	1.776	1.675	1.641	1.393	1.314	1.222	1.129	1.154	1.447	1.679	1.389	0.905	0.867	0.695	0.641	0.749	0.729	0.858	1.133	0.850	0.705	0.652	0.559	0.576	0.578	1.093	3.453	11.27	24.81	76.90	37.07
600.0	37.71	45.31	34.32	27.30	23.42	23.74	21.71	24.99	28.30	47.27	87.62	46.66	31.80	28.01	58.38	515.0	399.6	12.83	6.410	5.591	5.141	5.208	4.879	4.524	4.339	4.266	4.404	4.055	3.987	4.358	4.101	3.910	3.519	3.556	3.168	2.672	2.718	2.756	2.378	2.426	2.094	2.063	2.046	1.679	1.710	1.620	1.608	1.494	1.273	1.271	1.128	1.094	1.012	1.107	1.120	1.523	1.596	0.978	0.758	0.663	0.687	0.645	0.639	0.703	0.871	0.835	0.756	0.625	0.505	0.465	0.569	0.615	1.142	2.911	5.918	27.57	78.01
605.0	40.19	45.22	37.03	24.97	22.57	20.99	21.01	24.68	27.95	36.95	81.92	56.84	31.83	24.87	26.42	207.5	620.8	50.19	5.585	4.451	4.677	4.233	4.068	3.947	3.890	3.760	3.622	3.327	3.426	3.606	3.601	3.336	3.030	2.800	2.630	2.207	2.623	2.096	2.161	2.128	1.923	1.687	1.612	1.637	1.409	1.519	1.344	1.324	1.317	0.895	0.879	0.907	0.818	0.882	0.891	1.081	1.470	1.033	0.837	0.619	0.633	0.552	0.618	0.587	0.636	0.891	0.892	0.615	0.450	0.481	0.451	0.487	0.624	0.991	1.526	6.657	34.25
610.0	36.78	37.11	37.20	25.65	22.16	19.15	22.11	24.46	27.76	32.98	59.08	73.47	37.23	24.28	19.23	60.07	435.7	295.6	10.48	4.160	4.013	3.520	3.567	3.276	3.030	3.149	3.056	2.796	2.943	2.890	2.832	2.769	2.541	2.418	2.401	1.942	1.969	1.969	1.744	1.656	1.642	1.475	1.388	1.350	1.317	1.192	1.002	1.029	1.038	0.794	0.757	0.755	0.728	0.794	0.718	0.798	1.093	0.974	0.827	0.677	0.522	0.465	0.502	0.525	0.558	0.722	0.763	0.735	0.531	0.448	0.447	0.420	0.409	0.487	0.602	1.739	8.184
615.0	32.80	36.41	35.00	29.71	18.01	19.71	20.96	23.00	26.71	32.90	40.61	74.61	45.25	25.00	17.58	22.33	134.1	488.2	61.72	4.024	3.150	3.001	2.780	2.642	2.618	2.311	2.446	2.249	2.426	2.449	2.124	2.255	2.171	1.970	1.781	1.646	1.512	1.575	1.499	1.389	1.193	1.230	1.138	1.152	1.051	1.019	0.799	0.922	0.863	0.625	0.598	0.651	0.699	0.559	0.631	0.613	0.767	0.933	0.809	0.706	0.493	0.466	0.443	0.468	0.481	0.508	0.584	0.666	0.683	0.471	0.362	0.381	0.434	0.387	0.334	0.620	2.039
620.0	35.36	33.54	30.75	25.21	17.22	18.79	20.16	20.60	25.03	29.32	34.63	62.14	57.58	25.00	17.62	13.24	38.81	375.0	234.9	5.597	2.621	2.335	2.283	2.237	2.400	1.945	2.060	2.083	2.118	2.113	1.827	1.853	1.790	1.676	1.500	1.453	1.355	1.341	1.236	1.070	1.043	1.015	1.037	0.959	0.858	0.988	0.903	0.795	0.783	0.649	0.577	0.694	0.572	0.520	0.536	0.558	0.619	0.661	0.689	0.696	0.589	0.503	0.396	0.433	0.411	0.426	0.426	0.574	0.578	0.515	0.401	0.390	0.351	0.403	0.298	0.332	0.685
625.0	29.35	32.18	27.20	25.47	18.05	20.66	20.57	20.68	26.12	26.65	32.82	48.26	64.71	29.05	17.34	11.96	14.81	166.3	409.2	22.51	2.540	2.389	2.370	2.070	1.972	1.817	1.859	1.966	1.800	1.745	1.709	1.570	1.567	1.285	1.300	1.190	1.161	1.138	1.180	1.058	0.876	0.923	0.925	0.830	0.732	0.883	0.658	0.715	0.710	0.537	0.544	0.589	0.463	0.412	0.520	0.365	0.474	0.478	0.581	0.744	0.531	0.460	0.400	0.448	0.413	0.405	0.433	0.492	0.515	0.666	0.462	0.398	0.332	0.361	0.251	0.234	0.407
630.0	26.90	29.23	26.88	23.79	17.30	18.42	19.89	20.40	24.50	25.07	29.06	36.24	56.83	38.79	17.14	10.99	9.654	46.26	323.1	161.4	4.680	2.117	1.987	1.639	1.621	1.593	1.602	1.639	1.495	1.390	1.325	1.147	1.293	1.372	1.122	1.083	1.058	1.038	0.914	0.902	0.850	0.799	0.694	0.679	0.635	0.716	0.516	0.622	0.523	0.473	0.424	0.511	0.421	0.453	0.411	0.394	0.371	0.442	0.458	0.632	0.584	0.514	0.426	0.353	0.435	0.395	0.388	0.429	0.463	0.576	0.478	0.415	0.321	0.304	0.272	0.247	0.355
635.0	23.13	30.65	28.99	22.55	17.39	15.43	18.82	22.03	22.68	25.97	29.64	31.88	42.12	48.48	20.30	12.42	9.028	15.01	106.5	342.9	37.43	2.072	1.669	1.461	1.304	1.554	1.177	1.236	1.138	1.045	1.138	1.031	1.100	1.061	0.948	0.867	0.765	0.853	0.793	0.774	0.660	0.702	0.586	0.568	0.484	0.473	0.492	0.482	0.496	0.380	0.346	0.389	0.364	0.331	0.401	0.315	0.365	0.322	0.380	0.474	0.530	0.433	0.484	0.364	0.366	0.379	0.392	0.315	0.409	0.399	0.456	0.453	0.362	0.278	0.285	0.239	0.292
640.0	29.91	36.59	28.69	20.52	18.09	15.48	18.31	21.35	22.14	25.96	27.82	29.69	33.72	48.30	26.25	14.19	9.103	9.336	30.04	288.8	146.2	2.632	1.387	1.260	1.245	1.302	1.021	1.247	0.943	1.003	0.941	0.886	0.924	0.912	0.784	0.737	0.820	0.796	0.656	0.696	0.558	0.601	0.417	0.512	0.496	0.475	0.426	0.423	0.424	0.345	0.345	0.327	0.362	0.278	0.358	0.299	0.317	0.340	0.341	0.500	0.394	0.505	0.407	0.385	0.407	0.365	0.330	0.298	0.324	0.368	0.329	0.516	0.425	0.369	0.215	0.278	0.225
645.0	33.25	27.55	26.19	20.53	18.52	17.98	18.17	21.20	22.17	25.28	28.55	31.46	32.43	43.65	31.79	14.81	10.62	9.052	11.75	141.0	276.1	11.65	1.376	1.354	1.128	1.029	0.935	1.043	1.019	1.063	0.779	0.907	0.732	0.762	0.725	0.649	0.652	0.679	0.672	0.655	0.528	0.506	0.454	0.498	0.456	0.560	0.393	0.422	0.370	0.318	0.278	0.338	0.319	0.324	0.289	0.310	0.251	0.337	0.346	0.331	0.396	0.461	0.356	0.384	0.357	0.379	0.410	0.292	0.263	0.323	0.288	0.442	0.522	0.393	0.251	0.267	0.337
650.0	27.60	28.51	29.91	20.62	19.44	17.99	19.17	18.43	20.36	24.18	28.50	31.38	29.98	36.22	37.64	16.18	10.87	8.915	7.158	44.69	306.0	54.20	1.453	1.243	1.155	0.783	0.949	0.978	0.919	0.988	0.885	0.730	0.637	0.700	0.605	0.682	0.560	0.691	0.689	0.468	0.403	0.456	0.445	0.474	0.418	0.485	0.409	0.363	0.322	0.343	0.277	0.325	0.304	0.329	0.278	0.279	0.268	0.255	0.321	0.337	0.296	0.430	0.354	0.422	0.324	0.399	0.306	0.317	0.318	0.294	0.333	0.329	0.437	0.443	0.287	0.268	0.317
