Sample:	'1
File name:	f2025050903Ïà¹«×¯´åÇÅ.FD3
Run date:	'19:34:12, 05/09/2025
Operator:	Administrator
Comment:	'

Instrument
Model:	F-2700 FL Spectrophotometer
Serial number:	23B8-004
ROM Version:	4J14000 07

Instrument parameters
Measurement type:	3-D scan
Data mode:	Fluorescence
EX  Start WL:	220.0 nm
EX  End WL:	600.0 nm
EX Sampling interval:	5.0 nm
EM  Start WL:	230.0 nm
EM  End WL:	650.0 nm
EM Sampling interval:	5.0 nm
Scan speed:	12000 nm/min
EX Slit:	5.0 nm
EM Slit:	5.0 nm
PMT Voltage:	700 V
Response:	Auto 
Corrected spectra:	Off
Contour interval:	50.000

Peak integration
Integration method:	Rectangular
Sensitivity:	1
Threshold:	1.000

Peaks
No.	ApexEX/EM(nm)	Height(Data)
1	225.0/580.0	64.48
2	225.0/590.0	66.83
3	225.0/615.0	66.25
4	225.0/635.0	69.04
5	230.0/340.0	2148
6	245.0/535.0	200.1
7	250.0/550.0	158.3
8	255.0/560.0	129.3
9	260.0/290.0	551.2
10	260.0/575.0	111.3
11	265.0/585.0	100.2
12	270.0/600.0	106.2
13	275.0/335.0	1998
14	275.0/615.0	101.8
15	280.0/625.0	98.92
16	455.0/540.0	14.08
17	460.0/335.0	7.242
18	520.0/285.0	3.855
19	530.0/290.0	4.098
20	565.0/335.0	10.09
21	570.0/330.0	9.844

Data points
	220.0	225.0	230.0	235.0	240.0	245.0	250.0	255.0	260.0	265.0	270.0	275.0	280.0	285.0	290.0	295.0	300.0	305.0	310.0	315.0	320.0	325.0	330.0	335.0	340.0	345.0	350.0	355.0	360.0	365.0	370.0	375.0	380.0	385.0	390.0	395.0	400.0	405.0	410.0	415.0	420.0	425.0	430.0	435.0	440.0	445.0	450.0	455.0	460.0	465.0	470.0	475.0	480.0	485.0	490.0	495.0	500.0	505.0	510.0	515.0	520.0	525.0	530.0	535.0	540.0	545.0	550.0	555.0	560.0	565.0	570.0	575.0	580.0	585.0	590.0	595.0	600.0
230.0	46.86	2117	7510	3110	128.1	12.24	9.372	8.278	7.374	7.328	7.457	7.268	6.661	5.667	4.917	4.520	3.986	4.050	3.499	3.206	3.016	2.846	2.593	2.397	2.237	2.059	1.893	1.748	1.771	1.683	1.600	1.709	1.436	1.399	1.285	1.152	1.132	1.037	0.983	0.838	0.834	0.896	0.838	0.799	0.777	0.732	2.011	10.46	23.66	20.75	9.535	1.996	0.663	0.519	0.510	0.490	0.517	0.449	0.436	0.381	0.376	0.349	0.319	0.322	0.284	0.306	0.300	0.288	0.244	0.247	0.219	0.220	0.220	0.175	0.179	0.152	0.188
235.0	99.99	567.2	4495	9579	3656	215.5	15.67	12.37	10.05	8.346	8.374	7.928	7.229	6.271	5.789	4.916	4.432	4.205	3.686	3.719	3.225	3.240	2.384	2.607	2.353	2.252	2.016	1.935	1.763	1.737	1.755	1.660	1.288	1.481	1.360	1.209	1.196	1.120	0.967	0.880	0.815	0.919	0.931	1.115	0.845	0.854	0.983	3.128	8.563	17.74	30.37	26.03	16.90	4.307	0.683	0.552	0.505	0.462	0.454	0.367	0.424	0.364	0.385	0.380	0.351	0.245	0.290	0.307	0.263	0.281	0.229	0.238	0.209	0.241	0.198	0.174	0.161
240.0	137.2	222.7	1285	7680	9999.9	2935	116.5	17.89	12.36	10.84	10.31	9.164	7.921	6.187	6.082	5.442	4.495	4.586	3.515	3.450	3.445	3.241	2.952	2.646	2.533	2.395	2.309	1.931	1.806	1.812	1.880	1.742	1.612	1.484	1.385	1.279	1.233	1.054	0.983	0.915	0.853	0.950	0.909	0.969	0.957	1.124	1.000	1.421	2.449	5.182	15.46	40.39	57.66	26.56	14.21	2.495	0.599	0.548	0.508	0.453	0.464	0.344	0.354	0.381	0.354	0.316	0.319	0.329	0.336	0.268	0.233	0.248	0.217	0.223	0.179	0.188	0.239
245.0	119.3	215.5	368.7	2513	9999.9	9999.9	2068	49.21	16.58	13.63	12.72	9.511	9.557	7.308	6.855	6.110	4.884	5.135	3.715	3.669	3.299	3.295	3.179	2.676	2.773	2.482	2.261	2.081	2.094	1.871	1.945	1.701	1.765	1.598	1.245	1.361	1.240	1.191	1.180	0.960	0.964	0.920	0.807	0.908	0.859	1.183	1.228	1.249	1.210	1.673	4.031	13.21	37.42	68.11	73.61	24.55	10.58	1.292	0.587	0.445	0.473	0.435	0.393	0.363	0.451	0.354	0.378	0.333	0.332	0.272	0.223	0.236	0.214	0.230	0.197	0.220	0.276
250.0	66.80	151.4	269.7	663.4	3317	9999.9	9999.9	5671	132.0	23.43	17.78	13.29	11.88	9.260	7.749	6.693	6.007	5.715	4.670	3.880	3.597	3.556	3.159	3.003	2.887	2.709	2.694	2.197	2.197	2.036	1.800	1.757	1.633	1.575	1.389	1.311	1.229	1.169	1.182	1.071	0.930	1.020	0.840	0.874	0.873	0.972	0.999	1.147	1.376	1.282	1.580	3.567	9.266	21.29	42.80	63.49	87.31	73.65	18.04	8.987	1.432	0.575	0.446	0.482	0.480	0.422	0.358	0.418	0.296	0.335	0.297	0.307	0.242	0.297	0.266	0.233	0.225
255.0	60.41	74.01	172.8	391.2	844.3	2533	9999.9	9999.9	2325	158.4	28.17	19.82	15.77	11.42	10.21	7.741	6.781	6.613	5.375	4.477	3.740	3.668	3.168	3.126	3.127	2.739	2.735	2.478	2.589	2.312	2.028	1.807	1.681	1.504	1.463	1.317	1.280	1.236	1.229	1.196	1.140	1.089	0.867	1.055	0.850	0.911	0.864	0.965	1.063	1.131	1.574	2.067	2.864	5.367	10.16	15.33	31.15	75.76	134.8	138.6	27.62	11.46	1.080	0.569	0.559	0.511	0.502	0.523	0.311	0.424	0.421	0.319	0.323	0.311	0.299	0.228	0.232
260.0	62.88	55.11	89.20	281.7	421.0	640.1	3204	9999.9	9999.9	1905	100.5	27.99	21.02	16.71	11.89	8.892	7.779	7.347	6.121	4.950	4.458	4.300	3.503	3.304	3.199	2.946	2.959	2.736	2.619	2.291	2.299	2.057	1.660	1.543	1.515	1.528	1.289	1.197	1.289	1.265	1.063	1.160	1.044	1.158	0.944	0.912	0.863	0.790	0.908	0.872	1.246	1.983	2.288	2.092	2.871	4.052	7.940	20.29	59.56	133.6	178.9	144.2	23.45	5.935	0.806	0.674	0.672	0.537	0.470	0.396	0.393	0.334	0.383	0.296	0.384	0.305	0.279
265.0	68.83	63.62	62.85	146.4	371.1	326.7	788.7	4697	9999.9	9999.9	1435	53.76	28.79	21.73	15.63	11.54	9.533	7.906	6.543	5.443	4.744	4.482	3.856	3.636	3.464	3.052	3.126	2.911	3.053	2.771	2.341	2.262	1.974	1.767	1.597	1.760	1.317	1.260	1.151	1.378	1.141	1.173	1.178	1.114	0.999	1.010	0.936	0.877	0.878	0.782	0.888	1.403	1.991	2.299	1.927	1.754	2.619	5.197	14.34	38.58	99.28	199.0	219.2	32.50	17.59	2.303	0.796	0.627	0.621	0.498	0.527	0.466	0.429	0.422	0.407	0.365	0.306
270.0	97.30	84.33	72.54	80.35	190.6	369.2	389.6	1153	5436	9999.9	9999.9	5324	93.38	34.51	22.29	16.28	12.07	10.86	7.968	6.664	5.636	5.221	4.470	3.916	3.819	3.512	3.296	2.947	3.087	2.977	2.683	2.382	2.133	1.954	1.909	1.764	1.596	1.509	1.386	1.297	1.307	1.292	1.234	1.218	1.091	1.066	1.080	1.012	1.011	0.875	0.783	0.924	1.188	1.553	2.076	2.286	2.403	2.240	4.099	9.393	23.70	57.73	110.9	152.8	205.4	138.7	97.31	12.20	2.469	0.835	0.740	0.619	0.517	0.593	0.447	0.456	0.462
275.0	154.3	156.1	131.6	90.63	100.1	194.4	483.5	484.3	1302	3074	9999.9	9999.9	7318	103.0	37.38	23.30	17.28	14.53	10.78	8.498	7.205	6.602	5.612	4.933	4.490	3.927	3.615	3.473	3.270	3.269	3.004	2.806	2.426	2.388	2.142	1.898	1.829	1.473	1.572	1.389	1.382	1.402	1.422	1.300	1.396	1.320	1.265	1.359	1.344	0.995	0.825	1.024	1.077	1.199	1.297	1.530	2.717	3.448	2.941	3.184	6.152	13.71	25.67	35.76	63.74	135.1	293.5	247.6	32.14	16.72	1.829	0.987	0.658	0.702	0.751	0.650	0.588
280.0	200.8	233.4	207.5	129.8	86.92	110.1	330.2	551.7	451.9	813.2	4429	9999.9	9999.9	1069	71.66	36.14	23.63	17.18	12.27	10.20	8.158	7.419	6.675	5.679	4.818	4.307	4.015	3.860	3.514	3.396	3.186	3.169	2.462	2.711	2.430	2.112	2.079	1.782	1.830	1.574	1.436	1.566	1.531	1.540	1.596	1.643	1.471	1.365	1.491	1.231	0.984	1.072	0.911	1.127	1.136	1.189	1.601	2.770	3.608	3.174	2.625	4.147	6.713	8.918	15.48	34.47	106.6	229.5	333.3	230.8	28.82	10.93	1.074	0.781	0.923	0.670	0.807
285.0	279.5	331.9	292.3	179.5	106.0	88.62	170.3	507.2	386.0	341.7	1184	7155	9999.9	9999.9	760.7	55.13	32.09	23.19	16.20	12.41	10.17	8.772	7.119	6.232	4.955	5.034	4.454	4.344	4.078	3.411	3.359	2.982	2.770	2.694	2.660	2.335	2.199	2.004	1.805	1.513	1.582	1.503	1.726	1.652	1.737	1.839	1.765	1.664	1.577	1.472	1.252	1.267	1.146	1.021	1.139	1.049	1.174	1.699	2.366	3.624	3.855	2.954	2.736	3.188	4.732	8.844	25.45	60.34	149.1	299.0	388.7	207.3	23.10	4.607	1.210	0.946	0.892
290.0	392.4	484.1	428.6	266.7	148.0	109.9	138.7	281.3	551.2	527.6	547.8	1913	7622	9999.9	9999.9	3110	65.38	36.98	22.94	16.44	13.10	11.11	8.587	7.291	6.394	5.662	5.480	4.865	4.340	3.975	3.969	3.534	3.146	3.119	2.897	2.686	2.504	2.207	1.978	1.808	1.803	1.774	1.771	1.825	1.942	2.010	2.061	2.116	2.041	1.756	1.561	1.531	1.391	1.285	1.228	1.186	1.343	1.519	1.691	2.274	3.059	3.974	4.098	3.309	2.934	3.789	7.428	15.28	35.51	77.67	158.1	241.3	244.5	223.4	134.4	16.28	5.861
295.0	517.3	639.5	567.8	380.0	218.5	153.9	184.6	242.4	398.8	793.5	821.4	867.5	2091	3406	9999.9	9999.9	4455	75.62	36.08	24.93	17.99	14.10	10.70	9.506	7.826	6.614	6.718	5.531	5.128	4.449	4.538	4.116	3.481	3.357	3.088	2.981	2.765	2.783	2.242	2.001	1.986	1.979	1.824	1.923	2.238	2.251	2.246	2.709	2.583	2.121	1.803	1.732	1.535	1.454	1.442	1.415	1.504	1.841	1.791	2.119	2.266	2.615	3.434	5.009	5.785	4.391	4.223	5.769	10.46	19.58	37.33	56.09	65.90	137.0	351.8	448.9	234.6
300.0	617.7	799.5	699.9	467.1	288.9	204.0	242.5	292.7	400.9	696.0	1176	914.7	1010	1164	4706	9999.9	9999.9	638.3	58.95	34.53	23.19	17.55	12.85	10.82	9.383	8.131	7.075	6.328	5.942	4.849	4.866	4.288	3.697	3.726	3.292	3.112	3.066	2.961	2.502	2.177	2.028	2.360	2.102	2.010	2.304	2.321	2.660	3.198	2.877	2.501	2.101	2.205	1.921	1.700	1.705	1.696	1.845	2.177	1.981	2.286	2.433	2.582	2.938	4.111	6.022	6.480	5.507	4.504	5.412	7.390	11.32	15.18	16.91	33.80	105.1	258.4	476.0
305.0	721.5	954.1	865.8	579.3	359.6	272.7	314.2	386.0	510.8	717.6	1187	1370	990.3	796.3	1455	7820	9999.9	9999.9	479.3	48.59	31.58	22.54	16.46	12.54	11.01	8.802	7.226	7.149	6.235	5.611	5.489	4.704	4.253	3.997	3.635	3.196	3.149	3.263	2.762	2.460	2.430	2.505	2.180	2.446	2.384	2.834	2.952	3.424	3.496	2.964	2.431	2.474	2.197	2.040	1.976	2.035	2.279	2.248	2.554	2.722	3.083	3.032	3.526	4.055	5.145	6.208	7.727	6.954	6.059	5.528	5.936	6.773	6.860	10.27	25.94	62.99	165.9
310.0	838.2	1166	1053	722.2	455.6	361.2	408.0	518.7	671.8	894.0	1211	1541	1497	1001	860.8	2074	8054	9999.9	9999.9	2176	55.52	33.29	22.73	16.84	13.80	11.06	8.690	8.239	7.168	6.214	5.828	5.147	4.474	4.308	3.813	3.468	3.211	3.266	2.977	2.832	2.574	2.718	2.470	2.762	2.843	3.142	3.284	3.851	3.955	3.546	2.799	2.987	2.426	2.289	2.307	2.255	2.547	2.756	2.971	3.281	3.738	3.814	4.424	4.993	5.655	6.281	6.811	7.632	8.206	8.066	6.922	6.225	5.579	5.813	8.830	16.42	39.45
315.0	913.9	1350	1264	864.9	542.0	448.8	496.8	645.5	839.2	1106	1405	1576	1726	1499	947.0	824.4	2009	3321	9999.9	9999.9	3387	60.15	34.90	23.76	17.55	13.57	11.45	9.954	8.202	7.174	6.728	5.690	4.859	4.608	4.088	3.901	3.576	3.471	3.312	2.916	2.985	2.842	2.779	2.811	2.893	3.491	3.617	4.528	4.460	3.782	3.373	3.459	2.904	2.693	2.836	2.791	3.067	3.157	3.682	3.906	4.410	4.754	5.011	5.681	6.637	7.143	7.550	7.402	8.147	8.348	9.336	9.013	7.111	5.504	5.701	6.600	11.41
320.0	1047	1551	1455	1008	632.8	533.1	573.5	729.1	959.8	1243	1588	1729	1762	1737	1249	642.6	714.4	952.1	4611	9999.9	9999.9	487.4	53.23	31.24	22.67	16.29	13.03	11.13	9.259	8.272	7.141	6.299	5.285	4.927	4.518	4.074	3.679	3.369	3.635	2.968	3.171	3.298	2.977	2.934	3.266	3.906	4.227	5.007	4.923	4.232	3.681	3.894	3.311	3.139	2.967	3.150	3.163	3.496	4.209	4.126	5.009	5.193	5.803	6.231	7.093	7.963	7.925	8.372	8.637	8.366	9.711	9.375	9.465	7.458	5.842	4.822	5.435
325.0	1140	1688	1673	1159	712.5	591.3	647.8	787.4	1050	1352	1719	1863	1858	1734	1536	748.4	482.0	443.2	1213	7504	9999.9	9999.9	393.4	44.79	29.32	20.74	15.76	12.66	10.88	9.131	7.868	7.186	5.532	5.502	4.825	4.386	4.124	3.722	3.551	3.564	2.943	3.340	3.095	3.329	3.661	3.976	4.614	5.475	5.777	4.742	4.328	4.092	3.660	3.659	3.283	3.339	3.695	4.043	4.239	4.498	5.371	5.521	6.599	6.843	7.382	8.441	8.707	8.531	9.114	8.982	9.411	8.885	9.395	9.251	7.490	5.217	4.489
330.0	1236	1880	1958	1403	858.2	663.1	695.4	855.8	1119	1440	1827	1968	1950	1747	1520	984.5	565.6	376.4	451.5	1861	7573	9999.9	9999.9	1804	48.91	30.02	21.42	16.45	13.54	10.91	9.551	7.850	6.476	5.979	5.380	4.892	4.297	3.994	3.641	3.377	3.145	3.352	3.404	3.422	3.802	4.480	5.081	6.268	6.579	5.488	4.943	4.999	4.252	3.855	3.650	3.532	3.802	4.273	4.511	4.927	5.540	5.860	6.688	7.272	8.104	8.646	9.027	9.011	9.283	9.718	9.844	8.974	9.284	8.519	7.853	6.824	6.018
335.0	1307	1960	2115	1585	985.8	746.0	739.0	909.9	1161	1481	1870	1998	1997	1791	1487	1002	793.8	474.9	324.7	587.6	1808	3216	9999.9	9999.9	3010	52.39	30.81	22.65	17.71	13.66	11.30	9.690	7.821	6.615	5.941	5.087	4.336	4.073	3.932	3.883	3.665	3.492	3.603	3.718	4.060	4.603	5.450	6.852	7.242	5.882	5.522	5.654	4.671	4.431	4.056	3.829	4.362	4.326	4.630	5.186	5.732	6.188	6.654	7.732	8.182	9.179	9.320	9.463	9.482	10.09	9.838	9.472	9.157	8.131	7.472	6.305	6.572
340.0	1355	1956	2148	1647	1085	791.9	779.1	926.9	1175	1468	1860	1978	1983	1789	1491	955.5	815.7	630.1	345.5	323.9	538.7	830.0	4567	9999.9	9999.9	425.4	47.07	28.64	21.70	15.78	12.64	11.17	8.783	6.776	6.667	5.366	4.775	4.434	4.034	3.951	3.655	3.895	3.730	3.769	4.149	4.440	5.755	6.954	6.965	6.139	5.697	5.962	4.995	4.476	4.405	4.171	4.318	4.550	4.872	5.106	5.494	6.014	6.704	7.309	8.469	8.891	9.313	9.605	9.311	9.829	9.842	9.131	9.478	8.524	7.558	6.252	6.023
345.0	1311	1892	2131	1681	1094	826.3	800.2	919.6	1158	1443	1800	1916	1927	1738	1466	944.3	732.5	703.1	441.3	289.8	274.7	300.1	1136	7152	9999.9	9999.9	362.2	39.65	26.48	19.93	15.25	11.82	9.556	7.482	6.964	5.371	5.008	4.530	4.226	4.112	3.554	3.890	3.319	3.793	4.104	4.784	5.728	6.856	6.863	6.344	5.585	5.933	5.017	4.383	4.315	4.434	4.412	4.405	4.673	5.079	5.644	6.185	6.691	7.193	8.299	8.707	8.863	8.852	9.113	9.657	9.198	9.025	9.120	8.171	7.824	6.245	6.196
350.0	1192	1769	2013	1627	1121	855.7	822.3	919.0	1127	1356	1665	1768	1792	1630	1391	932.2	700.3	626.8	549.7	386.7	251.6	207.6	365.6	1723	7278	9999.9	9999.9	7443	44.13	27.20	19.83	14.07	11.08	8.799	7.256	6.155	5.306	4.813	4.312	4.254	3.684	3.639	3.420	3.577	3.798	4.611	5.254	6.338	6.593	5.963	5.522	5.853	4.971	4.650	4.393	4.361	4.405	4.534	4.774	4.968	5.560	5.936	6.565	6.651	7.606	7.946	8.210	8.357	8.558	8.723	9.105	8.431	8.744	7.811	7.053	6.012	5.902
355.0	1092	1570	1804	1557	1127	904.4	857.3	927.8	1101	1285	1513	1616	1637	1511	1303	924.4	712.8	600.1	519.4	512.3	340.6	225.4	220.2	496.3	1710	2947	9999.9	9999.9	2940	49.71	28.45	19.71	13.92	10.38	8.343	6.794	5.656	5.359	4.336	4.196	3.828	3.705	3.366	3.483	3.634	4.280	4.645	5.906	5.958	5.578	5.261	5.362	5.054	4.703	4.458	4.568	4.723	4.774	4.867	5.262	5.791	5.815	6.131	6.259	6.592	7.118	7.463	7.227	7.738	7.911	8.577	8.084	7.952	7.355	6.726	5.847	5.727
360.0	1003	1444	1684	1493	1139	939.3	883.0	939.1	1082	1248	1443	1493	1503	1413	1232	910.4	724.0	612.7	506.3	499.0	452.7	280.2	214.0	242.8	484.3	746.3	3865	9999.9	9999.9	2462	45.22	25.12	17.49	12.49	9.966	7.676	6.520	5.711	4.989	4.356	4.265	4.120	3.842	3.499	3.836	4.476	4.324	5.620	5.804	5.246	4.903	5.456	4.968	4.616	4.444	4.593	4.686	4.986	4.792	5.140	5.608	5.639	5.786	6.060	6.395	6.927	6.999	6.888	7.171	7.696	8.169	7.540	7.745	6.884	6.595	5.970	5.835
365.0	932.9	1315	1564	1412	1123	942.9	901.7	927.6	1057	1200	1370	1411	1403	1319	1165	904.5	729.5	627.4	525.4	471.2	489.3	384.6	250.4	207.4	230.8	260.3	955.6	5880	9999.9	9999.9	366.0	38.50	22.23	16.22	11.34	8.895	7.281	6.219	5.199	4.423	4.360	4.362	3.634	3.733	3.791	4.270	4.559	5.246	5.727	5.090	4.780	5.330	4.921	4.993	4.583	4.545	4.717	4.813	5.080	5.177	5.476	5.561	6.117	5.937	6.380	6.859	6.436	6.572	6.976	7.252	6.942	7.052	7.173	6.796	6.572	5.929	5.757
370.0	837.6	1194	1423	1318	1098	963.2	914.0	931.6	1029	1137	1272	1297	1291	1219	1088	870.5	734.7	645.9	552.7	490.3	456.0	449.6	359.7	249.8	203.7	176.6	306.7	1412	6018	9999.9	9999.9	8183	39.19	23.21	15.60	11.28	8.641	7.062	6.149	5.223	4.566	4.501	3.856	3.714	3.641	4.221	4.344	5.052	5.176	4.733	4.748	5.200	4.928	4.912	4.544	4.496	4.747	4.803	5.009	4.988	5.199	5.397	5.791	5.725	5.976	6.097	6.317	5.874	6.469	6.719	6.745	6.594	6.779	6.486	6.090	5.710	5.582
375.0	759.2	1066	1302	1233	1069	979.6	924.0	935.1	1007	1075	1183	1194	1183	1114	1005	835.7	727.9	661.1	581.6	517.3	465.0	433.4	441.3	351.2	240.2	186.4	185.4	407.8	1419	2759	9999.9	9999.9	2685	42.41	23.47	15.15	11.08	8.454	7.345	5.924	5.076	5.055	4.420	3.906	3.839	4.203	4.352	4.996	4.591	4.657	4.690	5.042	4.995	5.094	4.608	4.602	4.883	4.916	4.845	5.030	5.083	5.254	5.349	5.430	5.664	5.969	5.720	5.705	6.159	6.049	6.428	6.117	6.058	5.958	5.567	5.422	5.563
380.0	709.5	971.1	1210	1183	1074	966.0	928.6	923.2	979.2	1021	1115	1122	1112	1040	959.6	803.3	718.4	662.9	594.1	542.9	485.7	442.0	430.1	424.3	298.3	212.5	177.8	198.9	403.8	692.7	3500	9999.9	9999.9	2294	37.43	19.65	13.83	10.81	8.355	6.573	5.717	5.545	4.514	4.166	4.093	4.226	4.375	5.003	4.484	4.444	4.398	5.040	5.105	5.137	4.635	4.754	4.980	4.974	5.061	4.689	5.023	5.155	5.110	5.286	5.388	5.602	5.658	5.805	5.783	5.534	6.457	5.657	6.037	5.967	5.363	5.283	5.347
385.0	681.2	924.6	1129	1125	1048	963.0	913.3	904.7	948.6	985.3	1052	1061	1050	992.9	901.8	787.4	709.3	661.0	597.5	553.5	503.6	455.7	422.9	428.4	374.5	253.4	196.5	170.4	188.3	235.5	863.4	4783	9999.9	9999.9	316.2	29.05	17.76	12.80	9.355	7.594	6.248	5.657	4.828	4.341	4.255	4.190	4.457	4.718	4.423	4.378	4.424	4.917	4.769	4.730	4.539	4.630	4.802	4.684	4.936	4.759	4.835	5.048	4.944	5.244	5.540	5.007	5.169	5.525	5.225	5.650	5.613	5.502	5.581	5.493	5.430	5.114	5.311
390.0	632.1	874.3	1056	1056	1015	941.9	903.4	880.3	909.3	936.2	988.6	991.8	968.4	924.0	848.8	750.9	687.6	643.0	597.1	561.9	519.5	479.7	438.9	414.5	404.9	340.4	245.3	192.0	164.1	150.9	270.8	1144	4578	9999.9	9999.9	7323	32.08	18.02	13.00	9.372	7.327	6.343	5.249	4.710	4.377	4.332	4.346	4.554	4.374	4.095	4.157	4.713	4.726	4.769	4.572	4.558	4.949	4.765	4.632	4.651	4.646	4.937	4.808	4.900	5.093	4.886	4.735	4.967	5.080	5.177	5.198	5.196	5.304	5.080	5.052	4.977	5.000
395.0	623.5	808.8	991.7	1016	998.0	926.6	897.8	864.4	876.3	892.8	917.1	923.1	904.5	863.1	788.1	717.8	658.5	626.2	593.2	562.4	527.5	494.0	461.2	425.0	388.4	381.2	331.0	238.4	189.2	154.0	156.3	329.4	1077	2484	9999.9	9999.9	9999.9	36.86	18.78	12.72	9.758	7.681	6.188	5.110	5.047	4.698	4.537	4.677	4.757	4.142	4.255	4.721	5.071	4.529	4.438	4.638	5.063	4.883	4.704	4.891	4.635	4.845	4.620	4.920	4.779	4.484	4.657	4.940	4.639	5.142	4.926	4.923	4.949	4.710	4.819	5.028	4.917
400.0	562.4	762.5	920.6	972.8	979.4	907.6	880.7	858.7	853.8	862.7	883.5	882.3	862.9	818.9	751.9	681.2	646.7	614.9	582.1	556.7	528.0	500.5	472.0	439.2	395.8	376.1	374.8	291.2	215.7	172.6	144.6	159.0	304.1	608.0	2807	9999.9	9999.9	2127	33.20	16.24	11.88	9.048	7.034	5.836	5.210	5.045	4.613	4.860	4.884	4.009	4.176	4.624	4.670	4.942	4.597	4.534	4.797	4.752	4.591	4.828	4.666	4.721	4.381	4.657	4.688	4.561	4.510	4.625	4.686	4.605	5.017	4.637	4.654	4.724	4.582	4.784	4.681
405.0	545.2	719.6	894.1	931.9	941.1	916.4	868.0	838.8	834.1	839.0	847.0	835.2	822.5	782.5	725.5	660.0	623.0	595.5	564.9	543.1	524.1	500.0	478.4	445.6	407.4	372.8	368.4	345.2	253.2	195.7	159.3	131.0	139.1	191.1	675.8	3384	9999.9	9999.9	1750	27.47	14.76	10.67	8.171	6.423	5.575	5.323	4.689	4.884	4.716	4.241	3.873	4.534	4.453	4.786	4.552	4.594	4.777	4.694	4.710	4.522	4.580	4.439	4.283	4.572	4.452	4.358	4.283	4.566	4.499	4.357	4.703	4.324	4.379	4.821	4.426	4.555	4.281
410.0	512.9	684.5	846.3	900.4	902.4	884.3	848.2	821.6	808.9	805.0	815.9	796.0	773.0	733.7	684.2	625.2	588.9	566.8	544.6	521.2	506.7	489.9	472.3	449.8	416.9	383.2	354.8	348.0	311.9	236.0	180.3	138.7	113.2	105.7	200.0	799.8	3420	9999.9	9999.9	7189	110.9	15.69	10.50	8.100	6.566	5.890	4.985	4.992	4.794	4.247	3.995	4.650	4.666	4.695	4.457	4.452	4.750	4.528	4.665	4.449	4.410	4.158	4.341	4.323	4.300	4.307	4.209	4.282	4.176	4.266	4.342	4.166	3.963	4.356	4.226	4.113	4.194
415.0	461.7	649.6	795.8	853.5	873.0	846.6	820.3	800.9	785.6	779.1	771.2	752.3	726.5	686.5	638.5	585.9	548.2	534.5	512.4	500.1	486.4	471.7	461.2	444.2	417.4	389.7	357.6	334.6	324.3	291.7	210.5	154.7	119.8	94.72	99.60	222.7	796.9	2358	9875	9999.9	9999.9	34.74	14.85	10.67	8.022	6.667	5.370	5.113	5.047	4.578	4.297	4.854	4.698	4.531	4.246	4.446	4.786	4.702	4.777	4.303	4.300	4.180	4.513	4.342	4.158	4.179	3.985	4.185	3.945	3.976	3.967	3.809	3.966	4.110	3.864	4.022	3.868
420.0	475.2	614.6	767.2	816.8	852.3	818.7	788.8	794.5	761.9	751.1	745.5	722.2	694.5	658.7	607.3	558.6	522.9	502.1	488.6	476.9	466.2	452.9	445.8	435.5	416.0	390.9	361.6	332.3	312.1	309.3	245.2	170.6	129.6	99.88	81.30	98.08	214.7	559.1	2486	9999.9	9999.9	2050	30.17	14.09	9.421	7.875	6.147	5.618	5.013	4.546	4.432	4.760	4.685	4.588	4.491	4.500	4.690	4.436	4.520	4.379	4.283	4.452	4.356	4.060	3.820	3.951	3.705	4.069	3.905	3.755	4.062	3.849	3.809	4.164	3.924	3.943	3.893
425.0	449.6	606.5	753.8	788.4	822.5	799.3	786.1	773.7	749.1	738.1	727.8	696.4	671.6	626.1	580.6	532.7	501.0	482.5	468.1	453.5	447.6	441.9	432.7	426.3	407.0	385.9	361.9	333.4	310.8	297.7	273.7	196.1	141.6	107.9	83.74	72.79	87.68	156.9	584.8	2857	9999.9	9999.9	1722	25.65	12.18	9.198	6.988	6.428	5.396	4.672	4.242	4.873	4.529	4.745	4.332	4.347	4.681	4.280	4.499	4.297	4.322	4.392	4.250	4.028	3.977	3.971	3.799	3.911	3.600	3.726	3.880	3.858	3.850	3.948	3.796	3.628	3.528
430.0	507.1	582.0	702.8	760.6	779.1	778.9	772.9	754.4	736.2	723.9	706.0	680.7	638.2	594.6	546.7	503.4	472.6	454.3	438.0	430.3	425.8	417.7	416.1	411.9	398.0	380.4	356.4	332.4	309.0	287.5	266.7	231.7	166.5	120.6	93.98	74.22	64.90	70.88	159.2	664.5	2932	9999.9	9999.9	6819	109.0	13.51	9.408	7.491	6.067	5.111	4.636	4.923	4.674	4.673	4.538	4.383	4.615	4.477	4.446	4.522	4.259	4.312	4.283	4.042	3.914	3.918	3.616	3.536	3.680	3.580	3.582	3.733	3.525	3.758	3.566	3.528	3.557
435.0	869.9	556.8	660.6	736.3	744.2	760.5	749.1	739.4	721.4	706.0	687.3	649.8	615.2	561.1	512.5	477.8	442.7	429.9	414.5	408.6	401.6	395.6	394.5	391.6	383.3	367.3	354.3	330.9	310.8	286.6	255.8	234.6	200.0	142.2	105.3	82.23	66.14	55.61	67.68	174.4	677.0	2311	7915	9999.9	9999.9	32.35	14.09	9.888	7.798	6.387	5.317	5.262	5.219	4.832	4.660	4.456	4.801	4.790	4.659	4.261	4.467	4.435	4.074	4.295	4.033	3.799	3.575	3.521	3.789	3.445	3.316	3.541	3.539	3.386	3.807	3.348	3.395
440.0	1375	717.7	634.1	709.2	727.9	729.4	733.7	737.0	707.9	685.9	676.8	636.4	599.6	546.8	495.7	451.4	424.2	404.3	392.2	385.2	379.1	378.8	376.1	377.7	370.1	360.1	345.1	328.8	307.9	282.6	254.7	224.0	206.2	166.5	114.1	88.58	70.34	54.89	49.28	66.63	174.7	538.3	1975	9999.9	9999.9	1909	27.31	13.83	9.147	6.850	5.996	5.680	5.383	5.163	4.739	5.011	4.837	5.010	4.817	4.543	4.325	4.133	4.256	4.059	4.075	3.903	3.655	3.700	3.761	3.438	3.237	3.276	3.317	3.300	3.349	3.208	3.305
445.0	1603	1212	613.8	691.1	714.4	714.8	727.3	722.4	682.2	670.4	657.0	626.4	567.0	523.5	471.4	429.0	400.8	390.1	374.9	364.9	363.8	359.5	360.8	361.4	357.6	347.7	334.5	321.4	304.8	280.1	252.9	215.7	195.2	180.2	129.2	93.33	74.02	58.72	48.62	44.70	63.61	142.9	464.1	2811	9999.9	9999.9	1514	24.28	11.34	8.114	6.553	6.453	5.382	5.234	5.135	4.633	4.943	4.881	4.737	4.452	4.091	4.183	4.238	3.824	3.984	3.900	3.723	3.608	3.599	3.221	3.204	3.064	3.301	3.273	3.267	2.960	3.239
450.0	1118	2532	956.7	647.7	677.1	676.4	689.1	685.0	666.8	643.0	625.9	586.6	543.6	487.1	439.9	397.7	371.1	357.7	348.0	337.5	336.7	332.7	334.7	333.5	330.6	325.2	317.2	305.0	294.4	272.8	246.1	213.3	184.2	169.3	147.2	109.6	80.78	62.54	51.59	42.96	40.60	55.44	124.1	648.9	2899	9999.9	9999.9	6321	92.40	11.71	8.259	7.435	6.481	5.648	5.428	4.966	5.099	4.717	4.776	4.369	4.148	4.366	4.126	3.927	3.897	3.546	3.544	3.402	3.516	3.271	3.162	3.118	3.223	3.064	3.137	2.971	3.055
455.0	511.9	3039	2824	661.8	624.4	624.9	639.8	641.1	636.7	598.2	580.0	544.5	500.7	453.5	407.8	368.0	340.6	325.0	312.9	305.9	306.2	305.2	303.4	302.6	302.9	299.1	294.5	282.8	276.5	260.7	235.3	205.7	178.5	153.9	139.9	125.4	90.61	67.17	53.88	44.30	37.45	36.45	48.39	163.3	663.4	2299	7214	9999.9	8813	24.46	11.90	9.125	7.076	6.506	5.535	5.192	4.980	4.906	4.746	4.358	4.292	4.165	4.043	3.990	3.756	3.588	3.528	3.287	3.318	3.119	2.906	2.982	3.000	2.973	3.005	2.750	2.745
460.0	332.1	2100	4947	912.1	591.7	596.2	604.7	606.5	602.0	573.9	555.9	515.1	470.9	423.1	378.1	341.5	315.0	302.4	289.6	283.0	279.5	279.7	277.3	283.1	281.7	278.6	273.3	266.0	261.7	246.3	225.2	197.2	169.2	148.3	130.2	122.8	102.1	71.28	56.78	46.09	38.77	33.54	32.21	54.58	165.2	531.2	1768	9999.9	9999.9	1436	22.46	12.10	8.454	7.349	6.256	5.636	5.043	4.926	4.499	4.339	4.486	4.246	3.987	3.910	3.755	3.397	3.223	3.395	3.133	3.172	2.796	2.977	2.719	2.671	2.807	2.872	2.598
465.0	288.5	1016	5613	2705	555.3	568.2	566.2	570.5	559.8	542.2	531.7	492.9	443.5	399.1	352.7	315.9	292.7	282.3	268.9	264.3	259.0	255.9	255.3	261.6	260.5	257.4	253.7	249.4	244.7	233.5	215.2	190.5	167.5	143.5	122.5	113.0	106.8	79.61	59.25	46.63	39.38	33.24	29.25	30.91	53.98	135.4	414.1	2685	9999.9	9999.9	1286	22.84	10.98	8.559	6.911	6.210	5.538	5.110	4.584	4.454	4.424	4.192	3.858	3.742	3.707	3.613	3.382	3.301	3.190	3.064	2.921	3.038	2.547	2.917	2.614	2.671	2.787
470.0	271.1	486.1	3357	6150	1337	519.6	515.7	527.0	514.9	496.8	484.4	453.1	406.7	361.8	318.1	286.5	262.5	251.5	241.0	235.1	228.7	227.8	230.1	231.8	231.4	230.0	226.8	225.7	220.5	212.2	196.7	178.9	155.2	136.0	115.8	101.7	95.59	86.07	65.31	48.42	40.21	33.94	28.29	25.71	29.21	45.97	107.5	615.8	2801	8662	9999.9	5667	94.55	11.75	8.309	7.083	6.252	5.582	4.871	4.308	4.502	4.011	3.917	3.661	3.450	3.321	3.189	3.165	3.010	2.771	2.779	2.706	2.479	2.643	2.424	2.319	2.555
475.0	261.3	349.8	1147	6449	4533	533.2	472.9	480.8	471.8	452.3	435.5	401.2	363.5	325.2	284.9	257.7	235.2	222.4	213.7	206.0	201.6	200.0	201.9	203.0	204.8	203.7	202.0	197.6	198.7	191.5	179.3	162.2	142.6	124.8	107.3	94.75	82.87	78.79	70.15	52.53	40.39	34.15	28.87	25.13	22.84	24.78	37.22	149.8	636.0	1973	5524	9999.9	7330	28.61	11.02	8.132	6.822	5.901	5.011	4.457	3.978	3.682	3.717	3.484	3.457	3.144	2.862	2.766	2.671	2.545	2.552	2.419	2.424	2.390	2.137	2.251	2.157
480.0	250.5	302.5	529.1	3993	8310	1118	438.3	437.6	434.3	421.2	411.2	373.3	338.6	298.0	264.2	236.8	217.1	204.5	196.9	189.1	185.4	182.6	185.2	185.5	185.6	185.7	185.3	181.5	182.7	178.7	166.3	151.7	135.6	117.0	102.9	89.73	77.65	70.96	69.99	57.27	41.49	34.03	28.77	24.63	22.00	20.43	21.97	45.53	153.0	451.2	1340	7443	9999.9	1681	24.34	9.901	7.745	6.159	5.321	4.686	4.001	3.711	3.695	3.349	3.039	3.043	2.890	2.697	2.600	2.488	2.415	2.373	2.220	2.105	2.014	2.074	1.868
485.0	223.3	314.5	382.7	1715	9466	3115	435.1	414.1	405.2	395.5	379.6	349.8	319.7	281.4	246.7	218.6	203.6	191.4	184.5	174.5	173.2	169.3	172.1	172.9	170.5	172.0	170.2	168.9	168.4	166.4	156.1	141.1	126.8	111.8	98.96	86.15	75.25	65.45	63.54	59.48	45.59	34.83	29.06	24.91	21.53	19.31	17.95	22.10	44.83	110.6	311.4	1955	9999.9	9999.9	1400	20.81	9.813	7.189	5.938	5.259	4.207	3.959	3.760	3.537	3.035	2.933	3.007	2.639	2.523	2.385	2.466	2.287	2.228	2.030	1.977	2.118	1.883
490.0	198.7	299.1	334.3	664.8	5528	7481	1086	377.3	372.1	362.7	351.5	321.5	289.3	255.5	226.6	202.8	185.1	173.7	165.5	158.8	154.3	153.6	155.3	154.0	153.3	152.9	154.0	153.6	152.2	151.0	144.1	129.4	117.5	104.2	92.65	80.93	71.31	61.63	56.49	54.52	49.70	38.27	29.71	25.39	22.44	19.47	16.97	16.78	20.40	33.94	78.73	446.9	2648	8493	9999.9	5488	102.6	10.56	7.031	5.701	4.786	4.371	3.822	3.569	3.360	3.084	2.802	2.670	2.525	2.327	2.223	2.223	2.054	1.967	1.934	1.787	1.810
495.0	160.1	264.5	323.8	376.5	1733	8184	3467	393.4	335.1	327.4	321.3	296.6	264.8	235.4	201.0	180.4	164.3	157.2	149.5	143.4	137.9	136.5	136.1	135.2	135.9	134.6	135.9	137.4	135.4	133.0	128.5	117.2	107.4	95.73	85.27	75.11	66.54	58.37	52.55	46.90	46.51	42.34	32.29	25.66	22.04	19.54	16.85	15.79	14.84	16.35	26.18	108.4	598.7	1928	5788	9999.9	8003	30.58	10.46	6.922	5.424	4.822	3.993	3.492	3.359	2.874	2.637	2.492	2.439	2.291	2.177	2.124	1.843	1.932	1.830	1.724	1.803
500.0	156.3	214.5	327.4	303.1	614.5	5259	8101	826.6	311.9	308.2	298.1	268.8	242.5	211.9	187.8	165.1	149.1	143.6	135.6	130.2	125.1	125.5	123.0	122.2	125.2	124.6	123.7	123.4	123.6	122.7	116.4	108.6	99.13	89.38	79.53	70.00	62.38	55.57	48.51	44.00	41.44	42.34	34.81	25.73	21.44	19.19	16.97	15.33	13.62	12.65	13.75	32.24	141.6	439.3	1404	7267	9999.9	1829	26.27	8.609	6.412	4.834	4.199	3.629	3.260	2.917	2.793	2.470	2.157	2.237	2.002	1.941	1.813	1.890	1.761	1.616	1.685
505.0	148.5	195.2	305.0	274.6	336.3	2232	9999.9	2431	302.1	287.2	273.2	243.1	224.9	196.8	170.5	151.8	137.1	129.1	121.7	119.1	116.3	113.5	111.8	112.3	111.6	112.0	112.8	112.7	112.2	111.2	106.9	99.13	89.17	82.06	73.23	64.93	58.70	52.58	45.61	40.46	37.29	38.25	36.00	27.48	21.21	18.82	16.96	14.86	12.97	11.82	10.89	14.94	38.64	106.2	323.7	1893	9999.9	9999.9	1548	20.27	7.896	5.424	4.445	3.913	3.423	3.008	2.768	2.405	2.194	2.154	1.986	1.839	1.899	1.784	1.669	1.699	1.552
510.0	122.3	167.0	244.8	283.7	267.2	723.9	6261	7740	790.5	262.4	244.3	219.2	199.0	175.0	151.9	135.4	120.1	115.5	107.4	103.8	100.2	99.21	97.71	97.26	97.30	97.73	98.22	97.95	98.67	97.78	93.82	87.67	80.37	72.66	65.14	59.32	52.74	47.30	41.76	37.62	33.93	31.56	32.23	29.47	22.65	18.53	16.28	14.04	12.37	11.16	9.906	10.28	15.09	30.71	79.51	431.2	2580	8049	9999.9	4815	101.6	8.225	5.405	4.234	3.596	3.079	2.596	2.536	2.231	1.985	1.840	1.793	1.836	1.651	1.557	1.538	1.374
515.0	102.5	144.5	181.4	258.5	245.4	329.9	1938	9848	3977	259.7	218.9	196.3	174.8	152.8	133.8	116.5	106.3	101.0	93.95	89.49	87.53	83.98	83.45	83.54	85.84	83.41	83.48	84.57	85.93	85.92	80.67	75.94	69.20	64.21	56.81	52.24	46.87	41.92	38.05	34.61	30.77	27.89	26.45	27.94	25.43	18.78	15.46	14.05	11.77	10.30	9.094	9.243	9.554	12.86	24.05	102.6	581.6	1818	4673	9999.9	6531	30.73	8.078	4.928	4.009	3.341	2.731	2.467	2.277	1.965	1.815	1.595	1.689	1.564	1.458	1.438	1.184
520.0	93.04	127.1	149.3	238.0	237.3	220.6	603.5	6719	8711	599.4	200.3	177.0	159.1	139.7	121.1	105.5	96.59	90.68	84.02	80.93	78.10	77.00	72.89	75.69	74.65	74.53	73.50	76.11	75.56	76.98	73.36	68.93	62.78	56.58	52.52	46.96	42.49	38.32	34.83	31.33	27.99	25.45	22.99	24.24	25.30	19.78	15.38	13.24	11.26	10.01	8.762	8.489	7.843	8.449	11.25	28.96	136.1	413.1	1112	5996	9999.9	1867	26.04	6.810	4.480	3.700	2.835	2.636	2.298	2.007	1.763	1.604	1.537	1.439	1.408	1.311	1.148
525.0	86.98	119.9	138.2	181.0	240.9	193.4	271.1	2853	9999.9	1855	186.2	162.5	145.2	127.5	110.6	93.86	86.30	80.00	76.80	71.99	68.83	68.06	66.74	67.25	66.70	66.94	67.93	68.79	67.44	69.17	65.65	61.59	56.69	50.59	47.55	42.69	39.17	36.16	31.92	28.79	26.24	23.51	21.19	20.49	21.98	21.19	15.76	12.34	10.88	9.380	8.258	7.893	7.666	7.436	7.603	11.67	35.93	98.62	256.0	1513	7494	9999.9	1580	19.68	5.779	4.198	3.239	2.663	2.372	1.962	1.726	1.699	1.432	1.337	1.212	1.348	1.258
530.0	79.23	106.9	121.4	143.4	216.3	192.9	182.5	826.2	7499	8080	604.0	147.5	128.5	112.1	98.22	84.31	75.71	70.52	66.28	63.74	59.41	58.73	58.08	58.76	57.79	57.86	58.66	58.38	58.02	58.81	57.00	52.84	49.01	44.46	41.77	37.57	34.92	31.68	28.26	25.73	23.56	20.88	19.17	18.06	17.62	18.70	16.89	13.02	10.12	8.697	7.749	7.183	6.815	6.920	6.485	7.223	12.91	27.11	62.60	343.9	1878	5996	9066	3788	106.3	6.350	3.798	3.005	2.573	2.229	1.901	1.667	1.474	1.389	1.265	1.351	1.205
535.0	75.79	96.32	108.5	123.3	159.7	200.1	150.0	287.1	2329	9999.9	3632	146.9	112.5	99.45	86.00	72.13	66.86	60.42	56.77	55.12	52.01	49.75	49.30	49.46	49.52	48.46	49.11	48.93	49.26	49.33	48.57	45.33	42.12	38.27	35.69	32.97	29.94	27.70	24.84	22.32	19.93	18.88	17.13	15.55	14.91	14.58	15.93	13.81	9.676	8.611	7.200	7.021	6.268	6.006	6.036	6.006	7.077	10.28	18.52	81.50	423.4	1348	3377	9493	5408	31.16	5.643	3.648	2.924	2.200	1.927	1.708	1.556	1.521	1.332	1.097	1.101
540.0	68.11	81.22	93.27	104.5	120.1	191.1	143.4	159.4	646.0	7554	8890	217.6	103.4	87.99	75.54	66.44	59.91	54.08	50.69	48.41	46.56	44.10	43.90	44.16	43.49	42.76	42.55	42.42	43.13	43.09	43.61	41.08	37.30	33.41	31.92	28.86	26.98	24.30	22.05	19.73	17.78	16.78	15.38	14.33	13.13	12.73	13.38	14.08	10.62	7.891	6.753	6.429	5.667	5.416	5.500	5.738	5.494	5.993	8.171	22.19	98.55	305.4	783.0	4241	9999.9	1894	26.02	5.107	3.165	2.516	1.948	1.769	1.308	1.407	1.295	1.083	1.012
545.0	63.72	84.88	88.12	89.95	102.6	157.3	153.3	121.7	237.3	3112	9999.9	1308	95.83	80.80	68.81	59.13	52.42	47.30	44.91	42.56	41.65	39.80	39.40	38.17	37.24	37.02	37.42	38.47	38.46	37.91	37.56	35.05	33.00	29.65	28.24	25.95	23.69	21.80	20.00	18.27	16.53	15.21	13.70	13.06	12.19	11.72	11.02	12.16	11.16	8.317	6.415	5.804	5.336	5.208	4.977	5.290	4.806	4.704	5.103	8.482	25.63	72.44	179.8	1020	5354	8502	1582	19.46	4.260	2.852	2.111	1.833	1.499	1.486	1.310	1.184	1.053
550.0	59.54	71.14	81.57	79.56	84.86	111.0	158.3	112.4	129.7	841.6	7762	7651	342.4	70.79	59.56	50.36	43.88	40.88	38.27	35.87	33.47	33.93	32.49	31.81	31.64	31.12	31.12	31.35	32.19	31.88	30.96	29.33	27.68	26.17	23.03	21.48	19.74	18.25	17.38	15.42	14.26	13.27	11.91	10.95	10.36	9.584	8.867	9.026	9.996	8.511	6.352	5.228	4.701	4.579	4.418	4.397	4.472	4.371	4.067	4.769	8.854	19.40	43.65	231.6	1286	4050	6200	2857	115.0	5.137	2.723	2.223	1.704	1.498	1.287	1.087	1.053
555.0	48.04	64.81	78.00	66.95	67.12	77.93	130.6	120.5	93.77	255.6	2267	9999.9	1348	69.82	51.24	43.24	37.39	34.15	31.85	30.35	27.39	27.92	25.91	25.69	25.60	25.07	25.27	25.91	26.68	26.47	25.00	24.50	22.29	20.34	18.37	18.07	15.84	14.99	14.05	12.81	11.92	10.87	9.851	9.422	8.693	8.345	7.229	7.109	7.586	7.891	6.453	5.168	4.208	4.011	3.763	3.774	3.900	3.999	3.926	3.527	4.488	6.869	12.33	54.39	289.7	907.8	2056	5888	2073	32.53	4.291	2.731	1.928	1.644	1.473	1.139	1.011
560.0	50.67	64.90	67.26	64.78	57.47	63.80	94.12	129.3	80.17	114.4	592.3	7647	7049	134.9	47.23	38.48	31.98	29.96	27.73	25.23	24.27	24.31	22.25	21.51	22.67	21.41	21.25	22.30	21.74	21.81	21.14	20.03	18.40	17.27	16.26	15.45	13.87	12.78	12.00	10.99	10.28	9.865	8.627	7.906	7.749	7.396	6.520	6.033	5.780	6.539	6.464	5.379	3.909	3.703	3.424	3.172	3.582	3.382	3.705	3.334	3.242	3.879	4.977	14.56	67.31	205.5	470.1	2335	5745	1898	26.77	3.634	2.023	1.844	1.594	1.186	1.155
565.0	54.95	64.92	64.56	60.76	51.77	51.95	71.10	125.8	80.38	80.64	189.5	3033	9999.9	881.3	42.91	35.44	29.62	26.59	23.08	21.82	21.05	19.85	19.79	19.62	19.51	19.08	18.38	18.63	18.32	18.76	17.77	17.44	15.73	14.96	13.45	13.28	11.88	10.43	10.25	9.657	9.073	8.300	7.487	6.876	6.713	6.471	5.711	5.244	4.976	4.865	5.386	5.321	4.005	3.350	3.216	3.019	2.988	3.101	3.258	3.305	2.946	2.870	3.270	5.444	17.39	48.36	108.2	546.0	2734	5404	1516	20.18	2.958	2.088	1.533	1.231	1.160
570.0	50.80	63.43	59.90	55.80	43.49	43.34	51.13	95.33	99.66	65.21	91.51	791.3	7365	6212	97.52	30.95	25.76	22.89	19.83	18.37	17.83	16.76	16.34	16.22	15.23	15.00	15.16	15.03	15.09	15.05	14.66	13.98	13.38	12.19	10.81	10.74	9.582	8.691	8.581	8.023	7.311	6.853	6.230	5.971	5.803	5.230	4.768	4.569	4.171	4.076	4.269	4.577	4.099	3.288	2.820	2.547	2.669	2.657	2.651	2.790	2.736	2.595	2.598	3.101	5.918	12.99	26.59	124.6	640.4	2224	3672	1933	118.0	4.237	1.839	1.409	1.109
575.0	62.30	61.92	59.70	49.55	36.68	37.81	40.74	63.44	111.3	68.09	66.05	220.4	2115	9826	937.1	31.55	22.79	20.01	16.71	15.23	14.57	13.64	14.08	13.04	12.08	12.38	12.80	11.82	11.90	12.27	11.69	10.84	10.50	10.03	8.968	8.868	8.182	7.049	7.221	6.086	6.201	5.480	5.270	5.114	4.656	4.621	4.007	3.961	3.457	3.178	3.280	3.457	3.780	3.418	2.612	2.474	2.367	2.387	2.305	2.407	2.424	2.671	2.270	2.279	3.244	4.865	7.921	29.94	145.1	498.1	1063	3224	2073	33.72	3.294	1.863	1.192
580.0	59.74	64.48	58.00	45.82	37.09	33.58	35.94	44.61	96.00	85.00	58.30	93.89	540.1	6819	5614	80.87	20.80	18.83	15.12	13.99	12.95	12.50	12.14	11.00	10.16	10.73	10.73	10.20	10.13	10.53	10.14	9.556	9.216	8.798	7.685	7.549	7.078	6.229	5.946	5.499	5.288	4.886	4.331	4.223	4.070	4.031	3.578	3.483	3.100	2.777	2.633	2.783	3.199	3.290	2.686	2.350	2.199	2.016	2.204	2.052	2.305	2.556	2.277	2.039	2.316	2.817	3.542	8.749	34.49	113.3	241.5	1143	3396	1782	28.17	2.532	1.507
585.0	58.33	62.88	53.79	44.27	39.96	30.53	31.67	38.32	75.93	100.2	59.03	66.99	161.7	2609	9014	575.1	21.03	17.46	14.53	12.37	11.64	11.13	10.62	9.706	9.131	9.139	9.515	9.325	9.172	8.969	8.675	8.647	7.900	7.434	6.867	6.237	5.821	5.470	5.175	4.851	4.812	4.366	4.208	3.664	3.693	3.512	3.265	3.107	2.653	2.453	2.344	2.338	2.537	2.984	2.783	2.355	2.163	1.904	2.033	2.024	1.998	2.216	2.070	2.094	2.089	2.245	2.404	3.955	9.775	27.56	56.43	263.6	1386	3333	1345	21.56	1.852
590.0	58.18	66.83	63.94	43.94	33.05	28.64	29.51	34.86	53.51	98.46	72.43	59.63	76.87	668.7	6079	4351	61.04	15.88	13.19	11.32	9.985	9.359	8.819	8.308	7.777	7.949	7.703	7.555	7.486	7.751	7.130	7.279	6.482	6.092	5.768	5.316	4.970	4.666	4.579	4.079	3.925	3.755	3.482	3.087	3.226	3.014	2.917	2.773	2.482	2.052	2.089	1.952	1.907	2.452	2.698	2.418	1.911	1.860	1.886	1.832	1.881	1.925	1.942	2.220	2.282	2.132	2.068	2.443	3.970	8.157	14.58	61.11	318.8	1218	2266	1216	122.4
595.0	50.06	65.83	62.08	43.24	30.74	26.21	29.13	32.07	43.76	77.43	95.62	60.21	57.16	179.7	1709	7032	678.7	17.67	12.20	10.38	8.621	8.146	7.720	7.237	6.806	6.855	6.725	6.340	6.336	6.177	6.266	5.578	5.410	4.843	4.865	4.363	4.316	3.928	3.652	3.592	3.298	3.297	3.002	2.834	2.861	2.547	2.452	2.412	2.198	1.882	1.860	1.716	1.639	1.875	2.322	2.315	1.985	1.871	1.803	1.646	1.764	1.719	1.731	1.890	2.343	2.316	1.985	2.033	2.588	3.744	5.064	15.60	72.74	273.1	598.1	1762	1857
600.0	57.21	66.54	59.57	45.29	31.53	25.69	28.96	31.63	41.98	61.99	106.2	70.10	54.90	72.24	427.6	5015	3667	50.27	12.12	9.429	8.015	8.211	6.964	6.622	6.154	6.280	5.642	5.367	5.506	5.383	5.409	4.964	4.675	4.270	4.099	3.812	3.826	3.360	3.339	3.045	2.829	2.903	2.622	2.481	2.542	2.284	2.178	1.975	1.896	1.858	1.539	1.604	1.535	1.510	1.883	2.053	2.166	1.862	1.715	1.689	1.729	1.662	1.628	1.789	2.021	2.310	1.891	2.139	2.235	2.834	2.842	5.544	17.74	62.57	135.5	567.4	2032
605.0	51.69	56.74	61.30	40.29	32.44	25.33	28.50	33.87	43.66	54.93	100.9	82.56	56.16	49.30	123.0	1989	6084	383.5	11.78	9.727	8.011	7.403	6.192	5.519	5.567	5.185	5.401	4.941	4.973	4.819	4.797	4.376	4.225	3.917	3.730	3.461	3.415	3.081	3.246	2.595	2.485	2.659	2.231	2.014	2.276	1.945	2.052	1.931	1.724	1.538	1.586	1.456	1.339	1.334	1.747	1.884	2.044	1.848	1.616	1.630	1.614	1.754	1.760	1.611	1.792	2.291	2.176	2.054	2.384	2.484	2.387	3.190	5.561	15.49	31.85	129.9	739.7
610.0	52.09	54.09	60.92	43.61	31.02	25.51	29.00	34.91	44.64	52.75	79.40	100.4	64.69	49.87	56.28	504.2	4308	3126	41.99	9.663	7.463	7.045	5.608	5.143	4.920	4.950	4.933	4.233	4.309	4.221	4.335	3.969	3.554	3.427	3.053	3.085	2.853	2.658	2.667	2.336	2.181	2.118	1.905	1.705	1.893	1.822	1.698	1.479	1.526	1.472	1.374	1.333	1.132	1.290	1.414	1.420	1.865	1.764	1.789	1.582	1.555	1.547	1.565	1.607	1.792	2.196	2.155	2.192	2.376	2.509	2.122	2.601	2.685	4.850	8.504	30.31	168.9
615.0	54.26	66.25	61.14	47.73	30.50	24.45	28.76	33.99	44.18	53.17	69.88	101.8	78.75	50.99	43.08	131.3	1248	5306	518.1	11.11	7.283	6.667	5.602	4.764	4.547	4.367	4.391	3.770	3.883	3.879	4.100	3.198	3.294	3.083	2.778	2.704	2.507	2.485	2.218	1.979	1.996	1.825	1.716	1.587	1.540	1.728	1.490	1.538	1.296	1.267	1.210	1.252	1.053	1.093	1.235	1.265	1.466	1.722	1.855	1.508	1.487	1.544	1.466	1.570	2.035	2.046	2.030	2.336	2.251	2.471	2.340	2.437	2.063	2.537	3.048	7.887	38.97
620.0	59.86	59.80	65.82	45.06	32.55	25.07	28.40	32.84	44.76	52.44	69.04	93.69	89.84	53.29	39.83	47.59	311.4	3951	2593	28.94	7.317	6.380	5.082	4.685	4.140	3.818	3.889	3.415	3.787	3.346	3.459	3.154	2.914	2.650	2.562	2.471	2.208	2.170	1.981	1.796	1.660	1.642	1.471	1.553	1.360	1.522	1.312	1.387	1.127	1.172	1.058	1.139	1.049	1.158	1.055	1.209	1.348	1.579	1.740	1.618	1.564	1.427	1.601	1.563	1.684	2.039	1.857	2.097	2.099	2.558	2.317	2.284	1.776	1.739	1.798	3.004	9.947
625.0	57.38	60.17	67.17	43.47	29.92	25.02	28.32	33.02	46.84	51.82	65.84	83.03	98.92	58.59	41.36	29.62	83.45	1653	4511	76.30	7.841	6.248	4.945	4.563	4.036	3.363	3.463	3.306	3.318	3.225	3.167	2.991	2.797	2.782	2.291	2.306	1.965	1.968	1.844	1.590	1.592	1.500	1.382	1.485	1.291	1.463	1.335	1.290	1.031	1.151	1.058	0.970	1.008	1.044	1.032	0.981	1.133	1.338	1.587	1.614	1.573	1.351	1.416	1.473	1.725	1.844	1.580	1.703	2.080	2.319	2.069	2.352	1.546	1.592	1.504	1.636	3.408
630.0	53.75	62.97	65.02	44.11	32.68	26.04	29.97	33.95	48.23	56.48	67.74	78.39	95.32	69.60	43.71	26.57	31.13	418.8	3489	2106	28.37	6.340	5.091	4.347	3.810	3.198	2.969	3.022	2.884	2.816	2.718	2.563	2.347	2.408	2.046	2.107	1.913	1.671	1.715	1.601	1.428	1.383	1.260	1.333	1.342	1.231	1.192	1.206	1.022	1.014	0.946	0.891	0.983	0.858	0.984	0.965	1.062	1.189	1.173	1.488	1.357	1.418	1.263	1.269	1.494	1.642	1.391	1.522	1.676	2.025	1.882	2.014	1.397	1.425	1.231	1.194	1.511
635.0	51.41	69.04	65.50	48.71	34.20	24.81	30.85	32.78	47.70	58.72	70.97	77.91	84.34	82.33	49.04	26.77	19.72	103.9	1072	4034	381.3	7.403	5.508	4.403	3.444	3.005	2.974	2.652	2.702	2.535	2.461	2.343	2.187	2.004	2.004	1.938	1.799	1.630	1.524	1.299	1.291	1.212	1.052	1.234	1.249	1.138	1.102	1.055	0.968	0.846	0.863	0.895	0.892	0.865	0.883	0.990	0.922	1.020	1.061	1.266	1.192	1.177	1.081	1.039	1.373	1.293	1.250	1.517	1.317	1.664	1.505	1.692	1.194	1.286	0.921	0.824	0.931
640.0	49.57	59.61	61.20	44.48	35.70	25.59	29.94	33.23	47.77	57.08	67.21	79.40	77.32	82.13	54.18	28.08	17.82	34.36	267.4	3304	1820	16.12	5.723	4.200	3.385	2.864	2.703	2.385	2.737	2.474	2.261	2.027	2.019	1.949	2.017	1.777	1.599	1.606	1.506	1.234	1.309	1.237	0.982	1.196	1.131	1.125	1.064	1.052	0.901	0.855	0.930	0.849	0.800	0.826	0.787	0.869	0.814	0.907	0.920	0.998	1.067	1.103	0.953	0.956	1.154	1.225	1.076	1.257	1.270	1.442	1.306	1.393	1.007	0.956	0.860	0.801	0.811
645.0	46.33	66.90	54.71	47.46	33.38	28.01	30.40	33.29	44.19	57.12	68.62	77.40	74.97	76.27	61.35	28.90	19.36	18.74	69.53	1531	3496	61.05	5.932	4.316	3.382	3.086	2.583	2.524	2.569	2.622	2.276	2.205	1.823	1.798	1.954	1.767	1.510	1.641	1.647	1.143	1.191	1.203	1.092	0.975	1.041	1.103	0.978	1.015	0.944	0.842	0.867	0.791	0.775	0.803	0.788	0.751	0.875	0.896	0.908	1.005	0.898	1.000	0.990	0.932	1.082	1.028	1.026	1.003	1.083	1.258	1.162	1.255	1.139	0.966	0.869	0.756	0.734
650.0	45.74	63.39	67.21	46.34	32.83	26.70	31.36	31.67	44.23	57.01	68.74	76.27	75.27	68.55	65.36	29.88	18.71	15.26	24.87	444.7	3751	488.2	7.411	4.372	3.676	3.311	2.738	2.433	2.564	2.450	2.116	2.015	1.903	1.901	1.876	1.709	1.514	1.614	1.450	1.137	1.245	1.268	1.130	1.072	1.064	1.181	1.096	0.991	1.021	0.859	0.867	0.816	0.758	0.729	0.871	0.748	0.848	0.871	0.788	0.827	0.851	0.959	0.941	0.885	0.956	1.168	0.981	0.929	1.043	1.083	0.993	1.040	0.933	1.077	0.886	0.660	0.618
