Sample:	'1
File name:	潍坊中远重工科技有限公司 5倍.FD3
Run date:	'10:44:00, 04/01/2025
Operator:	Administrator
Comment:	'

Instrument
Model:	F-2700 FL Spectrophotometer
Serial number:	23B8-004
ROM Version:	4J14000 07

Instrument parameters
Measurement type:	3-D scan
Data mode:	Fluorescence
EX  Start WL:	220.0 nm
EX  End WL:	600.0 nm
EX Sampling interval:	5.0 nm
EM  Start WL:	230.0 nm
EM  End WL:	650.0 nm
EM Sampling interval:	5.0 nm
Scan speed:	12000 nm/min
EX Slit:	5.0 nm
EM Slit:	5.0 nm
PMT Voltage:	700 V
Response:	Auto 
Corrected spectra:	Off
Contour interval:	50.000

Peak integration
Integration method:	Rectangular
Sensitivity:	1
Threshold:	1.000

Peaks
No.	ApexEX/EM(nm)	Height(Data)
1	225.0/600.0	522.3
2	230.0/305.0	7951
3	230.0/500.0	211.3
4	230.0/545.0	27.19
5	235.0/255.0	400.5
6	235.0/405.0	221.0
7	235.0/515.0	173.8
8	240.0/265.0	472.0
9	240.0/525.0	158.6
10	245.0/270.0	462.7
11	245.0/540.0	143.6
12	250.0/275.0	590.1
13	250.0/425.0	164.8
14	250.0/550.0	130.2
15	255.0/565.0	127.1
16	270.0/300.0	3974
17	270.0/600.0	290.7
18	275.0/305.0	4242
19	275.0/610.0	259.1
20	300.0/335.0	390.0
21	305.0/345.0	324.3
22	310.0/350.0	261.6
23	315.0/355.0	242.7
24	320.0/360.0	238.4
25	325.0/370.0	193.9
26	330.0/375.0	183.8
27	335.0/380.0	191.1
28	345.0/395.0	140.2
29	350.0/400.0	147.5
30	355.0/405.0	134.1
31	365.0/420.0	117.0
32	370.0/425.0	100.6
33	380.0/440.0	72.90
34	385.0/445.0	63.71
35	395.0/460.0	45.10
36	400.0/305.0	10.38
37	400.0/465.0	40.21
38	410.0/480.0	26.45
39	415.0/485.0	25.38
40	420.0/490.0	19.74
41	430.0/505.0	15.15
42	435.0/510.0	11.99
43	440.0/520.0	10.25
44	445.0/525.0	9.427
45	455.0/305.0	20.56
46	455.0/540.0	6.683
47	470.0/560.0	3.167
48	485.0/265.0	2.102
49	495.0/270.0	1.991
50	505.0/275.0	3.330
51	510.0/280.0	3.809
52	545.0/300.0	18.80
53	550.0/305.0	19.98

Data points
	220.0	225.0	230.0	235.0	240.0	245.0	250.0	255.0	260.0	265.0	270.0	275.0	280.0	285.0	290.0	295.0	300.0	305.0	310.0	315.0	320.0	325.0	330.0	335.0	340.0	345.0	350.0	355.0	360.0	365.0	370.0	375.0	380.0	385.0	390.0	395.0	400.0	405.0	410.0	415.0	420.0	425.0	430.0	435.0	440.0	445.0	450.0	455.0	460.0	465.0	470.0	475.0	480.0	485.0	490.0	495.0	500.0	505.0	510.0	515.0	520.0	525.0	530.0	535.0	540.0	545.0	550.0	555.0	560.0	565.0	570.0	575.0	580.0	585.0	590.0	595.0	600.0
230.0	70.34	907.3	2229	496.5	17.26	2.264	1.585	1.672	1.689	1.665	2.083	1.498	1.497	0.867	0.695	0.622	0.410	0.404	0.391	0.233	0.257	0.268	0.220	0.207	0.188	0.167	0.148	0.145	0.131	0.128	0.116	0.104	0.113	0.104	0.133	0.134	0.135	0.120	0.090	0.079	0.234	0.427	0.445	0.218	0.106	0.102	0.899	3.815	5.694	3.609	1.072	0.199	0.064	0.060	0.038	0.032	0.035	0.036	0.037	0.027	0.052	0.026	0.027	0.028	0.021	0.029	0.015	0.039	0.032	0.023	0.037	0.015	0.022	0.010	0.014	0.025	0.016
235.0	166.8	273.6	1462	1858	515.5	19.88	2.719	2.047	1.966	1.496	2.271	1.682	1.642	1.321	0.786	0.515	0.445	0.321	0.387	0.378	0.214	0.273	0.211	0.202	0.207	0.178	0.124	0.189	0.110	0.115	0.132	0.071	0.121	0.094	0.101	0.103	0.142	0.119	0.081	0.090	0.130	0.196	0.319	0.584	0.416	0.233	0.261	1.016	2.336	3.830	5.536	5.222	2.235	0.329	0.062	0.071	0.070	0.045	0.050	0.025	0.043	0.026	0.040	0.015	0.034	0.015	0.028	0.042	0.017	0.015	0.023	0.030	0.013	0.012	0.014	0.017	0.005
240.0	268.6	182.5	455.2	1693	2191	350.4	9.781	2.111	2.358	2.196	3.127	2.305	1.532	1.205	0.705	0.679	0.496	0.325	0.313	0.292	0.301	0.299	0.206	0.247	0.199	0.121	0.155	0.180	0.173	0.138	0.166	0.074	0.148	0.124	0.089	0.098	0.078	0.065	0.093	0.091	0.143	0.139	0.191	0.410	0.645	0.675	0.388	0.359	0.608	1.166	3.383	7.445	8.383	5.247	1.475	0.159	0.040	0.065	0.018	0.019	0.046	0.044	0.023	0.018	0.037	0.053	0.050	0.030	0.009	0.027	0.028	0.013	0.019	0.018	0.011	0.015	0.015
245.0	186.4	323.4	185.6	605.9	2397	1934	237.6	5.498	2.469	2.228	3.254	2.124	1.757	1.167	0.711	0.651	0.523	0.436	0.424	0.430	0.354	0.219	0.248	0.271	0.172	0.196	0.213	0.208	0.146	0.173	0.171	0.096	0.128	0.102	0.102	0.148	0.111	0.038	0.107	0.095	0.135	0.068	0.099	0.187	0.316	0.675	0.777	0.723	0.343	0.357	0.900	2.626	6.655	9.791	9.159	4.370	0.996	0.093	0.034	0.026	0.031	0.037	0.046	0.034	0.045	0.031	0.069	0.029	0.017	0.029	0.048	0.012	0.019	0.023	0.019	0.020	0.007
250.0	62.43	228.2	318.2	242.6	796.6	2118	2409	786.2	32.78	3.841	4.309	2.941	2.104	1.405	0.949	0.666	0.543	0.436	0.459	0.454	0.329	0.307	0.281	0.239	0.215	0.204	0.226	0.197	0.194	0.183	0.140	0.117	0.135	0.127	0.128	0.128	0.124	0.062	0.085	0.118	0.125	0.100	0.112	0.101	0.134	0.276	0.425	0.991	0.975	0.886	0.544	0.738	1.666	3.351	6.126	9.165	11.53	9.547	4.610	0.985	0.104	0.053	0.060	0.078	0.036	0.049	0.032	0.031	0.038	0.038	0.059	0.016	0.033	0.030	0.022	0.023	0.030
255.0	26.59	68.46	227.0	400.5	275.7	557.8	2045	3099	312.3	28.80	5.701	3.611	2.782	1.974	1.559	0.781	0.527	0.697	0.596	0.595	0.382	0.339	0.319	0.252	0.285	0.271	0.269	0.174	0.214	0.170	0.130	0.132	0.112	0.131	0.149	0.164	0.129	0.112	0.120	0.123	0.107	0.112	0.142	0.118	0.092	0.147	0.199	0.344	0.458	0.918	1.281	1.182	0.756	0.874	1.479	2.264	4.346	10.25	17.83	16.14	6.408	1.055	0.136	0.108	0.021	0.044	0.051	0.057	0.030	0.037	0.035	0.035	0.034	0.031	0.050	0.015	0.048
260.0	23.37	24.52	82.41	381.6	371.9	178.4	626.3	3028	2504	257.5	20.74	5.599	3.384	2.516	1.667	1.026	0.727	0.775	0.621	0.407	0.451	0.351	0.299	0.267	0.234	0.239	0.189	0.195	0.311	0.207	0.164	0.178	0.156	0.252	0.156	0.134	0.129	0.136	0.155	0.084	0.115	0.147	0.138	0.112	0.087	0.103	0.123	0.196	0.173	0.343	0.860	1.621	1.948	0.922	0.513	0.586	1.100	2.831	7.974	16.93	22.30	15.22	4.616	0.570	0.088	0.067	0.054	0.056	0.063	0.053	0.053	0.031	0.025	0.037	0.057	0.003	0.071
265.0	25.52	16.49	33.16	173.1	472.0	262.7	174.8	1041	3837	2181	206.9	8.675	4.704	2.831	2.131	1.504	1.009	0.813	0.760	0.620	0.414	0.423	0.351	0.349	0.331	0.315	0.196	0.194	0.345	0.207	0.116	0.160	0.179	0.206	0.199	0.146	0.214	0.122	0.129	0.110	0.092	0.101	0.138	0.139	0.101	0.080	0.099	0.099	0.122	0.171	0.298	0.818	2.017	2.102	1.451	0.433	0.384	0.762	2.009	5.082	12.49	23.34	24.31	13.73	2.799	0.201	0.090	0.067	0.070	0.046	0.043	0.036	0.044	0.044	0.037	0.016	0.064
270.0	30.83	25.17	27.86	55.49	223.6	462.7	292.9	280.9	1257	3390	5380	773.5	33.50	4.803	2.952	2.073	1.151	1.086	0.873	0.694	0.582	0.558	0.545	0.309	0.328	0.298	0.273	0.246	0.320	0.234	0.148	0.132	0.198	0.211	0.186	0.197	0.184	0.165	0.151	0.167	0.114	0.145	0.197	0.143	0.157	0.135	0.125	0.123	0.163	0.143	0.148	0.265	0.656	1.149	1.944	1.991	1.681	0.865	0.667	1.318	3.098	6.755	12.50	20.45	23.13	18.89	9.974	2.404	0.261	0.068	0.081	0.062	0.058	0.054	0.051	0.036	0.055
275.0	86.95	78.62	64.02	41.55	69.65	212.4	590.1	326.5	329.5	873.2	4426	7116	995.4	28.89	4.846	2.970	1.748	1.589	1.142	0.926	0.700	0.681	0.569	0.346	0.349	0.345	0.381	0.369	0.324	0.196	0.251	0.154	0.257	0.263	0.372	0.334	0.319	0.229	0.260	0.168	0.176	0.235	0.208	0.261	0.268	0.257	0.277	0.214	0.273	0.180	0.178	0.154	0.246	0.390	0.592	0.921	2.256	3.330	2.060	0.783	0.918	1.767	3.036	4.875	7.204	14.99	29.62	29.50	14.46	2.297	0.229	0.075	0.159	0.044	0.052	0.046	0.090
280.0	348.4	351.5	311.8	165.6	81.23	95.67	393.7	680.6	278.5	336.9	1350	5762	5548	153.2	16.02	4.307	2.497	1.868	1.410	0.933	0.846	0.671	0.505	0.489	0.501	0.336	0.501	0.357	0.425	0.346	0.296	0.225	0.377	0.518	0.614	0.827	0.623	0.610	0.485	0.395	0.435	0.517	0.476	0.578	0.706	0.862	0.762	0.964	0.838	0.632	0.599	0.388	0.307	0.314	0.320	0.446	0.914	2.363	3.809	2.995	1.358	0.965	1.225	1.677	2.394	4.448	10.91	23.53	33.76	26.38	9.644	1.181	0.155	0.111	0.056	0.097	0.088
285.0	1146	1367	1089	674.5	302.2	147.3	229.9	732.0	810.9	347.1	879.2	2252	6076	4410	117.3	8.500	3.726	2.401	1.830	1.412	1.002	0.901	0.600	0.540	0.637	0.415	0.583	0.419	0.469	0.308	0.384	0.452	0.725	1.174	1.616	2.012	1.815	1.653	1.369	1.342	1.250	1.281	1.488	1.898	2.132	2.533	3.123	3.450	3.376	2.745	2.290	1.795	1.090	0.776	0.578	0.582	0.698	1.172	2.273	4.092	4.738	3.289	2.249	2.555	2.959	3.585	5.149	8.620	16.50	30.64	34.44	22.03	5.673	0.527	0.250	0.173	0.108
290.0	3085	3755	3648	2226	897.0	394.4	358.6	680.4	1365	1683	1719	2081	2965	4615	4867	445.5	22.25	3.634	2.844	1.861	1.485	1.257	0.803	0.790	0.727	0.546	0.539	0.576	0.479	0.468	0.503	0.712	1.428	2.798	4.335	4.809	4.912	4.210	3.417	3.251	3.260	3.426	3.976	4.759	5.703	7.264	8.344	9.901	9.910	8.535	6.601	5.422	3.569	2.288	1.744	1.365	1.396	1.685	2.276	3.316	4.815	6.703	7.974	7.599	7.504	7.780	8.170	8.817	10.23	13.50	18.90	24.37	26.89	25.38	14.47	4.745	0.789
295.0	4829	6269	6089	3784	1574	659.8	567.4	847.8	1475	2594	3226	2937	2625	2018	3338	5003	612.9	17.71	4.544	2.670	2.042	1.759	1.107	1.022	1.018	0.747	0.727	0.705	0.699	0.525	0.565	0.750	1.917	4.510	7.006	7.739	8.205	7.168	5.726	4.955	5.115	5.466	6.479	7.776	9.300	11.86	13.76	15.89	16.42	14.07	10.87	9.713	6.166	4.133	2.706	2.210	2.217	2.632	2.898	4.042	5.166	7.078	9.052	12.83	15.19	14.33	12.90	12.55	12.01	12.28	12.15	9.791	8.813	13.96	27.56	33.41	23.22
300.0	5731	7379	7360	4616	1929	829.3	691.6	987.0	1642	2679	3974	3672	2824	1537	1062	3672	4209	90.69	8.237	3.202	2.413	2.067	1.567	1.339	1.144	0.918	0.680	0.729	0.767	0.603	0.602	0.967	2.626	5.337	8.286	9.209	9.373	8.414	7.217	6.067	6.137	6.281	7.640	8.969	11.47	14.69	16.24	19.37	19.73	16.77	13.45	11.76	7.612	4.790	3.304	2.667	2.870	3.232	3.410	4.460	5.736	7.508	9.226	12.08	15.68	18.80	18.26	15.18	13.79	12.87	11.37	7.439	4.118	4.205	8.803	19.60	39.97
305.0	5913	7766	7951	4919	2065	906.3	740.6	1045	1716	2656	3817	4242	3033	1475	476.2	1120	4014	3253	70.34	4.764	3.438	2.443	1.584	1.508	1.270	1.040	0.747	0.718	0.893	0.659	0.634	1.007	3.008	5.719	8.271	10.00	10.38	9.086	7.565	6.671	6.644	6.957	8.055	9.527	12.18	15.15	17.11	20.56	20.53	18.03	14.44	11.89	8.104	5.173	3.689	2.951	2.993	3.174	3.842	4.733	6.285	7.888	9.507	11.97	14.59	17.37	19.98	19.27	15.84	13.42	11.28	6.790	3.213	2.110	2.865	5.367	14.55
310.0	5568	7232	7314	4622	1984	887.4	715.0	998.1	1599	2429	3298	3754	3231	1503	341.1	315.7	1156	2901	3404	307.8	15.56	3.262	2.147	1.646	1.191	1.121	0.910	0.814	0.843	0.719	0.757	0.949	2.524	5.032	8.021	9.389	9.420	8.320	6.984	6.166	6.094	6.422	7.546	9.029	11.08	13.84	15.65	19.63	19.48	16.63	13.66	11.43	7.588	4.990	3.718	2.942	2.830	3.037	3.658	4.688	5.861	7.221	9.170	10.88	12.77	15.09	16.41	16.69	16.08	15.23	11.99	6.326	2.962	1.598	1.453	1.884	3.936
315.0	4686	6136	6107	3869	1694	773.1	638.1	855.8	1343	2024	2688	2895	2635	1680	378.4	139.4	299.2	698.1	2129	3479	458.9	13.28	2.852	2.008	1.392	1.185	0.925	0.882	0.781	0.729	0.776	0.864	2.170	4.407	6.502	7.819	7.855	7.290	6.293	5.193	5.034	5.619	6.481	7.598	9.397	11.85	12.93	16.35	16.40	13.90	11.51	9.345	6.759	4.310	3.417	2.594	2.566	2.735	3.187	3.964	4.989	6.402	7.758	9.371	10.65	11.87	13.02	12.92	11.82	12.38	11.56	7.948	3.868	1.749	1.024	1.126	1.514
320.0	3923	4961	5013	3234	1419	680.0	557.8	733.8	1142	1681	2224	2344	2049	1446	603.9	122.1	110.7	185.5	560.4	2478	3123	68.72	5.706	2.481	1.904	1.326	1.023	0.990	0.875	0.705	0.717	0.873	1.938	3.971	5.506	6.706	6.533	5.859	4.996	4.634	4.144	4.577	5.298	5.988	7.506	9.553	11.17	13.36	14.00	12.03	9.693	8.024	5.604	3.717	2.996	2.352	2.370	2.428	2.844	3.341	4.269	5.241	6.516	7.945	8.922	10.04	10.34	9.936	9.623	9.196	8.578	6.948	5.318	2.969	1.400	0.885	0.838
325.0	3206	4147	4136	2665	1188	564.0	480.4	624.2	941.6	1389	1831	1920	1628	1032	699.5	255.6	74.12	72.65	148.2	719.3	2926	2948	55.09	3.761	2.083	1.592	1.169	1.001	0.969	0.740	0.729	0.906	1.703	3.460	4.363	5.616	5.448	5.002	4.002	3.766	3.522	3.726	4.244	4.954	6.324	7.668	8.957	10.75	11.70	10.05	7.644	6.490	4.566	3.022	2.339	1.962	1.988	1.993	2.490	2.870	3.486	4.220	5.254	6.464	7.507	8.526	8.321	8.104	7.853	7.482	6.534	4.569	4.033	4.039	2.869	1.686	0.810
330.0	2384	3172	3144	2025	922.9	462.5	387.5	496.3	734.0	1062	1387	1449	1234	719.6	424.4	425.3	195.5	62.04	58.32	181.9	834.1	2682	2311	250.5	12.29	2.054	1.611	1.245	1.026	0.716	0.752	0.808	1.411	2.604	3.497	4.157	4.271	3.700	3.141	2.926	2.820	3.047	3.366	4.000	4.760	5.893	6.865	8.236	8.654	7.310	5.842	5.165	3.567	2.464	1.982	1.566	1.627	1.760	1.943	2.327	2.891	3.250	4.009	4.841	5.672	6.418	6.179	6.330	6.057	5.631	4.674	3.194	2.220	2.187	2.496	2.800	2.277
335.0	1770	2301	2269	1497	717.3	378.3	322.2	380.7	557.6	788.4	1011	1070	903.7	536.0	256.2	258.1	390.0	169.5	46.57	65.21	206.7	640.5	1553	2791	371.6	8.880	1.896	1.435	1.275	1.070	0.778	0.746	1.274	1.803	2.724	2.952	3.041	2.783	2.364	2.272	2.070	2.270	2.373	3.122	3.669	4.321	5.001	6.006	5.928	5.337	4.355	3.853	2.968	1.926	1.609	1.309	1.322	1.520	1.565	1.672	2.358	2.508	3.163	3.787	4.367	4.616	4.268	4.720	4.533	4.239	3.417	2.572	1.702	1.232	1.238	1.437	2.089
340.0	1365	1788	1772	1164	584.5	322.8	274.8	320.3	450.9	620.5	796.9	829.5	718.0	435.9	209.5	157.7	297.9	324.0	79.71	40.72	69.21	162.2	419.6	2070	2343	56.19	3.871	1.933	1.533	1.007	0.875	0.871	1.153	1.585	2.300	2.296	2.418	2.275	1.790	1.669	1.668	1.819	1.864	2.400	2.763	3.630	3.995	4.638	4.744	4.158	3.355	3.116	2.452	1.670	1.525	1.133	1.181	1.321	1.418	1.564	1.753	2.169	2.431	2.750	3.361	3.652	3.320	3.562	3.542	3.271	2.816	2.102	1.337	1.112	1.006	0.952	1.191
345.0	1089	1374	1397	939.1	492.4	283.8	240.1	271.8	370.4	508.4	639.2	667.1	580.5	370.7	189.4	130.9	163.2	324.3	208.3	50.42	41.04	58.37	111.7	612.9	2321	1718	46.11	2.929	1.675	1.142	1.076	0.841	1.113	1.206	1.786	2.002	1.979	2.191	1.343	1.321	1.456	1.350	1.674	1.786	2.222	2.759	3.189	3.593	3.511	3.279	2.732	2.459	2.044	1.522	1.242	1.034	1.023	0.990	1.051	1.306	1.535	1.995	1.945	2.520	2.718	2.687	2.853	2.847	2.946	2.334	2.264	1.674	1.137	0.994	0.904	0.873	0.849
350.0	802.2	1017	1044	725.4	405.2	250.8	204.3	234.3	298.0	393.5	481.1	507.9	451.1	304.5	174.1	123.4	111.4	168.8	261.6	152.3	52.70	40.06	45.90	153.3	682.1	1609	1682	217.1	10.85	1.641	1.237	0.879	0.997	1.185	1.380	1.567	1.693	1.578	1.173	1.081	1.115	1.101	1.350	1.342	1.634	1.951	2.270	2.683	2.623	2.444	2.057	1.987	1.626	1.323	1.059	0.937	0.996	0.943	0.950	1.173	1.268	1.446	1.543	1.917	2.080	2.119	2.146	2.285	2.081	1.953	1.836	1.522	1.125	0.964	0.881	0.770	0.704
355.0	614.9	757.6	755.9	550.1	337.6	226.2	189.0	206.3	245.2	309.7	373.8	380.9	348.2	251.2	160.1	121.8	102.4	103.4	143.5	242.7	149.7	48.32	35.83	53.99	166.8	388.2	1194	2280	339.5	6.824	1.616	1.340	0.976	1.241	1.326	1.254	1.281	1.086	0.995	0.841	0.855	0.868	1.029	1.131	1.314	1.445	1.648	1.981	2.053	1.933	1.658	1.546	1.268	1.111	0.945	0.834	0.850	0.799	0.775	1.065	1.032	1.113	1.269	1.441	1.542	1.621	1.574	1.675	1.746	1.625	1.501	1.163	1.033	0.846	0.821	0.660	0.708
360.0	497.4	594.7	614.1	455.2	308.3	209.7	183.8	184.9	217.1	261.3	305.8	319.6	295.0	225.4	152.3	121.3	102.0	93.76	95.83	171.1	238.4	75.21	39.68	34.77	55.41	100.1	329.8	1802	2398	51.98	3.570	1.491	1.179	1.069	1.293	1.168	1.118	0.943	0.827	0.783	0.694	0.749	0.859	0.980	1.156	1.273	1.429	1.511	1.565	1.527	1.332	1.357	1.150	0.927	0.865	0.734	0.857	0.744	0.872	0.867	0.854	0.937	1.052	1.300	1.421	1.336	1.303	1.429	1.455	1.471	1.230	1.222	0.978	0.794	0.732	0.666	0.649
365.0	424.1	495.4	497.2	395.8	285.6	201.3	175.1	173.7	198.5	232.3	267.1	276.0	260.9	203.8	151.0	121.8	103.5	93.30	85.59	107.2	214.2	182.8	59.00	34.12	33.42	37.60	86.59	551.3	2474	1555	40.60	2.223	1.324	1.327	1.227	1.112	0.985	0.862	0.841	0.687	0.605	0.667	0.729	0.936	0.941	1.112	1.253	1.273	1.284	1.291	1.082	1.217	0.991	0.876	0.836	0.708	0.781	0.722	0.784	0.811	0.768	0.998	0.879	0.983	1.174	1.192	1.325	1.180	1.141	1.186	1.192	0.925	0.882	0.777	0.623	0.632	0.632
370.0	339.0	408.9	418.5	339.1	257.5	194.7	171.1	166.1	183.5	203.7	227.3	236.9	223.0	185.1	143.8	121.7	108.0	98.18	88.73	87.75	123.9	193.9	151.9	52.99	34.02	28.12	34.44	135.6	737.1	1572	1562	186.2	8.056	1.616	1.294	1.144	0.978	0.835	0.745	0.619	0.573	0.631	0.663	0.718	0.779	0.797	0.924	1.113	1.127	1.032	0.970	1.050	0.983	0.827	0.809	0.739	0.808	0.671	0.736	0.794	0.852	0.869	0.814	0.963	1.007	1.079	1.044	1.040	1.020	0.956	0.997	0.832	0.770	0.735	0.684	0.732	0.827
375.0	293.1	357.0	348.0	300.4	238.2	186.4	166.5	164.6	168.3	184.0	203.0	207.3	197.3	168.4	136.2	118.1	111.2	102.8	94.99	89.25	90.28	113.9	183.8	138.4	47.43	31.57	26.60	44.87	175.9	382.9	1192	1797	260.8	6.521	1.529	1.272	0.948	0.853	0.701	0.641	0.573	0.637	0.565	0.645	0.702	0.740	0.825	0.936	0.996	0.877	0.960	0.933	0.889	0.791	0.800	0.750	0.728	0.657	0.777	0.690	0.884	0.801	0.837	0.842	0.793	1.029	0.987	1.079	0.942	0.947	0.905	0.797	0.866	0.848	0.770	0.833	0.745
380.0	249.8	308.3	316.6	264.3	225.1	185.9	164.9	152.9	162.6	171.3	189.2	189.2	180.5	159.3	135.3	119.4	111.5	106.4	98.56	92.54	86.40	87.49	129.3	191.1	90.97	36.55	28.06	27.74	52.29	95.83	335.2	1485	1550	43.33	2.841	1.599	1.072	0.857	0.598	0.607	0.557	0.606	0.645	0.661	0.679	0.656	0.760	0.803	0.808	0.839	0.820	0.836	0.855	0.650	0.833	0.710	0.751	0.701	0.713	0.630	0.803	0.775	0.820	0.830	0.773	0.856	0.872	0.930	0.810	0.964	0.763	0.772	0.846	0.826	0.738	0.914	0.690
385.0	247.1	294.9	291.0	254.3	212.2	179.5	172.2	150.4	156.8	167.0	177.6	180.6	164.5	151.6	134.2	120.5	113.1	108.7	100.8	95.88	87.38	84.36	91.64	158.1	156.3	55.93	32.15	26.15	28.22	33.61	85.27	465.8	1656	1297	33.36	2.187	1.330	0.922	0.656	0.527	0.600	0.595	0.589	0.624	0.581	0.659	0.788	0.831	0.779	0.839	0.766	0.810	0.802	0.651	0.705	0.726	0.791	0.720	0.837	0.741	0.817	0.694	0.784	0.759	0.843	0.780	0.774	0.872	0.808	0.776	0.800	0.815	0.773	0.745	0.684	0.760	0.710
390.0	216.1	250.8	271.4	242.5	201.3	181.1	163.9	157.7	155.5	161.1	167.4	168.2	157.7	147.4	130.1	119.8	114.1	108.6	104.9	98.87	90.73	83.84	80.17	98.53	147.0	129.2	50.48	32.71	26.96	23.53	30.79	113.6	500.8	1357	1198	155.3	6.807	1.148	0.834	0.671	0.588	0.560	0.549	0.592	0.658	0.669	0.595	0.650	0.685	0.725	0.692	0.831	0.818	0.685	0.728	0.691	0.750	0.732	0.641	0.701	0.697	0.682	0.745	0.694	0.837	0.761	0.742	0.764	0.743	0.812	0.756	0.758	0.705	0.791	0.712	0.777	0.710
395.0	206.8	229.7	249.8	223.3	195.1	179.0	158.3	156.2	154.3	160.0	164.2	156.5	150.3	141.0	129.2	119.3	116.4	109.7	106.0	102.3	94.23	86.05	81.29	80.15	91.96	140.2	121.3	49.81	33.18	26.08	22.21	36.27	119.9	330.2	930.8	1700	213.7	4.293	0.943	0.837	0.724	0.626	0.537	0.583	0.568	0.651	0.605	0.575	0.646	0.647	0.586	0.822	0.721	0.770	0.768	0.699	0.792	0.720	0.674	0.685	0.749	0.703	0.688	0.751	0.872	0.693	0.696	0.743	0.683	0.678	0.659	0.779	0.643	0.738	0.685	0.843	0.725
400.0	181.6	221.9	227.2	213.4	199.6	180.3	168.0	157.1	158.4	154.7	160.3	154.2	145.9	139.5	127.1	119.6	113.4	110.2	106.1	100.0	94.24	90.35	81.96	77.95	77.60	100.0	147.5	89.35	40.22	29.88	23.96	21.63	35.66	81.10	260.6	1354	1185	36.01	1.978	0.795	0.723	0.652	0.526	0.567	0.547	0.596	0.699	0.635	0.644	0.593	0.617	0.718	0.774	0.748	0.666	0.720	0.771	0.774	0.692	0.671	0.724	0.680	0.710	0.841	0.743	0.718	0.822	0.637	0.810	0.613	0.787	0.677	0.750	0.745	0.625	0.738	0.786
405.0	188.2	210.5	220.2	221.0	192.9	182.8	170.0	163.0	159.9	159.3	160.6	150.3	141.8	138.0	124.5	118.1	112.2	107.6	107.9	100.6	95.24	92.49	84.94	80.37	74.01	78.93	120.1	134.1	57.76	34.57	26.64	20.21	18.71	25.78	64.46	414.2	1230	909.9	27.19	1.299	0.836	0.735	0.649	0.564	0.505	0.651	0.574	0.626	0.655	0.611	0.594	0.738	0.726	0.726	0.787	0.780	0.662	0.748	0.790	0.769	0.732	0.634	0.689	0.813	0.704	0.749	0.703	0.648	0.633	0.681	0.677	0.680	0.790	0.797	0.580	0.650	0.741
410.0	186.1	203.4	211.0	212.7	188.3	178.5	168.1	161.9	158.7	156.0	155.5	151.3	139.5	134.3	124.1	113.1	109.3	105.8	102.6	98.12	94.72	91.79	85.88	81.40	75.35	72.69	82.36	117.9	111.5	56.98	32.15	22.59	16.88	15.21	21.02	98.56	366.2	905.1	636.8	128.7	5.787	0.928	0.616	0.531	0.552	0.628	0.598	0.618	0.618	0.596	0.631	0.638	0.769	0.782	0.758	0.733	0.732	0.781	0.827	0.760	0.772	0.665	0.719	0.758	0.655	0.716	0.743	0.693	0.657	0.635	0.763	0.760	0.694	0.781	0.684	0.722	0.696
415.0	175.8	202.1	204.2	196.9	185.1	181.5	159.7	162.2	159.0	156.8	154.7	144.8	137.9	130.8	122.7	112.8	105.6	103.8	99.86	95.14	92.88	90.09	83.20	81.65	77.27	73.54	71.55	78.71	111.3	103.8	46.25	26.17	18.36	15.00	12.78	28.30	87.00	218.7	538.1	895.0	186.7	3.606	0.981	0.678	0.627	0.572	0.539	0.661	0.611	0.626	0.593	0.674	0.756	0.793	0.647	0.656	0.734	0.754	0.747	0.628	0.759	0.600	0.769	0.726	0.598	0.775	0.657	0.598	0.664	0.626	0.674	0.612	0.723	0.720	0.678	0.683	0.652
420.0	162.7	197.1	193.3	196.3	180.1	170.4	162.3	166.0	156.0	151.3	150.0	142.5	133.1	125.7	117.9	107.8	101.3	98.97	95.23	90.84	90.38	87.73	83.85	81.30	76.73	74.68	67.51	65.80	80.58	117.0	75.13	31.45	20.76	15.55	12.05	13.06	24.46	53.31	150.7	694.0	844.4	32.70	1.908	0.827	0.639	0.605	0.664	0.653	0.603	0.618	0.577	0.706	0.681	0.697	0.698	0.713	0.689	0.742	0.731	0.632	0.659	0.772	0.797	0.732	0.641	0.737	0.713	0.651	0.636	0.603	0.645	0.694	0.641	0.653	0.631	0.580	0.620
425.0	160.6	185.6	194.8	184.1	173.4	159.8	164.8	160.5	157.9	158.0	149.7	137.5	132.2	122.9	114.3	105.0	97.20	94.19	91.50	88.32	86.41	85.09	81.52	80.13	77.40	72.96	68.10	63.81	63.60	91.76	100.6	46.73	23.61	16.63	12.98	10.83	11.58	16.43	37.53	208.8	809.5	646.5	26.56	1.201	0.739	0.700	0.647	0.633	0.636	0.636	0.566	0.637	0.688	0.807	0.649	0.684	0.843	0.676	0.754	0.710	0.658	0.806	0.709	0.729	0.619	0.692	0.634	0.687	0.718	0.654	0.662	0.532	0.728	0.598	0.736	0.635	0.697
430.0	262.5	167.3	186.0	178.1	166.6	166.1	160.9	157.3	157.2	154.4	146.4	136.6	127.0	116.3	108.4	99.17	91.95	89.63	85.51	84.70	82.74	79.98	79.58	77.42	74.50	70.88	67.67	62.59	59.96	63.73	83.75	77.79	37.93	19.17	14.37	10.98	9.644	8.906	12.34	50.07	232.5	603.3	531.4	120.8	5.587	0.804	0.707	0.653	0.667	0.565	0.534	0.638	0.629	0.720	0.661	0.625	0.725	0.681	0.720	0.637	0.711	0.674	0.644	0.712	0.631	0.632	0.612	0.637	0.671	0.597	0.634	0.634	0.607	0.605	0.626	0.656	0.610
435.0	689.4	173.9	174.7	164.9	162.6	155.4	154.5	154.5	152.9	151.4	144.0	133.8	122.0	112.0	100.1	93.77	84.98	83.04	80.09	79.44	77.46	76.07	74.58	73.94	71.55	68.15	66.56	61.77	57.92	54.97	56.85	73.42	68.31	30.22	16.67	12.03	10.16	8.356	7.168	14.77	54.62	143.8	414.9	756.2	175.3	4.648	0.851	0.700	0.692	0.612	0.533	0.674	0.670	0.630	0.620	0.609	0.677	0.626	0.729	0.712	0.651	0.599	0.754	0.714	0.648	0.617	0.585	0.647	0.549	0.488	0.551	0.630	0.529	0.577	0.549	0.590	0.604
440.0	1122	263.9	164.5	165.1	155.0	153.8	150.6	150.0	150.2	148.8	140.9	132.8	119.8	109.1	98.18	90.70	83.00	80.00	77.35	74.92	73.70	72.44	71.00	71.05	69.96	67.31	64.70	59.77	57.90	51.68	46.87	53.90	72.90	46.88	20.14	14.01	11.17	8.720	7.128	7.235	15.19	34.74	113.1	555.0	695.8	31.23	1.868	0.742	0.704	0.603	0.572	0.659	0.580	0.628	0.647	0.575	0.619	0.715	0.701	0.696	0.654	0.569	0.723	0.685	0.645	0.631	0.586	0.598	0.522	0.503	0.614	0.519	0.593	0.505	0.544	0.520	0.502
445.0	1326	564.3	169.6	155.3	151.8	152.4	147.5	151.6	147.1	142.6	139.6	132.5	116.1	105.0	95.69	85.77	78.26	75.26	73.84	70.63	69.93	70.21	67.19	68.09	67.18	64.76	61.47	60.42	55.97	51.65	44.62	41.41	56.05	63.71	32.13	15.83	11.51	9.307	7.199	5.903	6.491	10.41	28.02	160.7	627.4	595.2	24.10	1.228	0.738	0.630	0.567	0.701	0.582	0.569	0.699	0.609	0.662	0.626	0.674	0.573	0.715	0.711	0.749	0.571	0.668	0.642	0.619	0.607	0.524	0.470	0.579	0.525	0.629	0.507	0.431	0.600	0.470
450.0	818.5	1194	308.9	142.8	144.2	139.8	141.1	146.9	140.6	138.1	131.9	121.1	107.5	96.56	88.11	78.99	72.87	70.63	68.33	65.59	63.03	63.96	62.85	62.94	62.11	61.29	59.11	55.99	53.07	49.32	43.74	37.41	37.57	51.48	49.70	26.47	13.43	10.35	8.072	6.213	5.346	5.239	8.618	38.33	175.0	478.7	428.7	116.7	6.177	0.693	0.538	0.651	0.641	0.564	0.604	0.661	0.674	0.702	0.667	0.707	0.688	0.679	0.703	0.649	0.666	0.585	0.653	0.580	0.543	0.511	0.469	0.480	0.543	0.475	0.462	0.514	0.497
455.0	299.2	1201	961.5	147.8	133.8	132.0	134.6	139.4	135.0	132.0	125.3	114.8	103.9	90.16	81.47	71.78	68.24	64.51	61.78	59.58	59.06	56.17	58.31	59.29	57.16	54.79	54.15	53.03	49.36	48.20	42.28	35.75	30.36	33.13	43.39	42.92	20.92	11.38	8.684	6.838	5.748	4.840	4.588	10.54	41.07	111.7	267.2	609.6	166.0	6.502	0.729	0.581	0.676	0.627	0.564	0.625	0.586	0.673	0.622	0.744	0.631	0.639	0.690	0.611	0.586	0.586	0.541	0.546	0.452	0.441	0.480	0.470	0.375	0.415	0.399	0.429	0.409
460.0	151.5	736.4	1635	240.7	122.5	126.8	124.3	127.3	128.6	126.9	117.3	107.8	93.94	85.28	74.56	65.53	62.30	59.89	57.10	55.51	54.68	51.70	53.28	54.68	51.98	52.06	50.87	51.01	47.55	44.70	40.25	34.93	29.66	26.69	31.20	45.10	32.66	13.89	9.268	7.342	5.622	5.349	4.073	4.690	10.96	26.94	68.46	372.8	578.6	124.6	3.062	0.729	0.768	0.509	0.603	0.643	0.692	0.640	0.547	0.688	0.546	0.671	0.686	0.593	0.527	0.648	0.491	0.468	0.501	0.467	0.408	0.436	0.453	0.420	0.419	0.401	0.458
465.0	133.4	326.1	1817	585.8	122.1	121.0	122.2	122.0	122.7	120.9	111.3	99.92	88.20	77.39	69.99	61.04	56.96	53.06	52.80	50.66	50.86	49.51	48.75	50.46	48.80	47.34	48.52	46.81	45.05	42.10	38.38	32.41	28.32	24.93	23.64	34.12	40.21	21.34	10.53	7.479	5.975	5.064	4.289	3.607	4.554	7.850	17.18	100.4	451.0	511.6	22.41	1.622	0.763	0.557	0.672	0.551	0.604	0.606	0.574	0.638	0.580	0.594	0.650	0.579	0.581	0.508	0.538	0.370	0.447	0.452	0.376	0.392	0.414	0.408	0.396	0.413	0.410
470.0	162.8	156.9	999.3	1230	274.7	107.1	109.4	112.5	111.0	110.5	100.8	92.78	82.07	71.43	63.56	55.60	52.01	48.47	46.68	44.87	43.09	43.12	43.60	44.55	43.61	43.56	43.90	41.94	41.57	38.55	35.45	31.42	26.61	23.36	20.89	22.52	31.45	31.01	17.74	8.645	6.359	5.314	4.346	3.787	3.424	3.580	5.522	24.03	119.1	330.6	405.3	114.3	8.113	0.767	0.706	0.624	0.567	0.577	0.637	0.582	0.603	0.544	0.570	0.533	0.476	0.535	0.451	0.369	0.470	0.372	0.372	0.394	0.441	0.442	0.360	0.334	0.352
475.0	205.8	129.3	330.1	1241	712.0	109.2	95.42	98.55	99.93	98.85	95.60	83.73	74.39	62.58	56.78	50.19	45.67	43.48	41.77	38.54	37.78	38.84	38.06	38.53	38.50	38.67	37.98	38.18	37.59	35.54	33.11	28.88	25.48	22.33	19.89	17.56	18.54	26.34	26.23	12.91	6.679	5.258	4.238	4.073	3.462	2.980	2.920	6.843	27.76	75.70	168.9	440.6	177.3	10.05	0.739	0.618	0.639	0.455	0.539	0.506	0.541	0.554	0.585	0.458	0.433	0.426	0.319	0.449	0.382	0.288	0.420	0.364	0.362	0.387	0.382	0.282	0.351
480.0	193.9	154.4	144.9	731.2	1497	207.6	96.46	89.92	95.96	92.85	90.78	79.24	69.25	59.06	50.10	45.81	41.39	38.47	37.54	35.65	34.19	35.13	35.32	35.61	35.07	35.08	34.89	34.47	34.08	32.35	31.64	27.15	24.47	20.63	18.10	16.56	14.84	18.25	26.45	20.65	8.625	5.430	4.137	3.530	3.475	3.165	2.359	2.962	7.305	18.05	40.83	211.2	481.5	155.6	4.665	0.763	0.690	0.552	0.491	0.466	0.504	0.497	0.494	0.387	0.468	0.423	0.404	0.415	0.431	0.326	0.384	0.313	0.351	0.343	0.416	0.258	0.280
485.0	163.3	159.3	103.9	312.3	1654	499.5	88.84	86.82	88.58	85.86	85.44	73.98	64.77	55.14	46.33	42.17	38.24	36.14	34.81	33.39	31.84	32.33	32.42	32.68	32.38	33.32	32.87	32.30	31.65	30.14	29.20	25.84	23.32	20.07	17.70	15.45	13.72	13.32	19.97	25.38	13.44	6.306	4.332	3.771	3.215	3.061	2.404	2.078	2.759	5.085	10.28	53.42	309.5	482.0	28.16	2.507	0.765	0.597	0.536	0.542	0.486	0.404	0.412	0.410	0.417	0.373	0.371	0.373	0.360	0.304	0.292	0.309	0.336	0.329	0.323	0.289	0.269
490.0	107.0	204.9	113.5	134.7	931.2	1208	209.7	81.89	81.03	79.29	78.26	68.22	59.27	51.04	42.98	39.02	35.26	32.90	30.88	30.18	28.75	29.28	28.79	29.25	29.75	30.03	30.12	29.40	28.87	27.93	27.12	24.14	21.81	18.84	16.67	14.93	12.78	11.81	12.90	19.27	19.74	10.70	5.121	3.829	3.178	2.812	2.421	2.198	1.930	2.264	3.283	12.93	77.72	252.3	388.6	219.1	11.77	0.837	0.610	0.488	0.487	0.388	0.431	0.389	0.411	0.354	0.335	0.323	0.329	0.316	0.291	0.267	0.313	0.337	0.266	0.272	0.250
495.0	81.57	162.1	165.7	84.57	292.1	1283	752.3	83.92	72.37	74.91	70.58	62.14	52.39	47.26	38.55	34.66	31.91	29.75	27.93	26.97	26.98	26.29	25.23	26.01	26.03	26.78	26.77	26.56	26.43	25.35	24.11	22.60	19.69	17.64	15.53	13.99	12.40	10.63	10.31	11.42	16.61	16.58	8.166	3.934	3.145	2.927	2.389	2.378	2.126	1.605	1.609	3.728	18.10	57.41	152.0	505.9	225.3	14.40	0.741	0.635	0.453	0.439	0.495	0.376	0.373	0.408	0.332	0.298	0.339	0.270	0.266	0.283	0.304	0.261	0.241	0.259	0.308
500.0	61.31	109.4	211.3	85.64	119.3	782.4	1322	164.6	67.96	67.62	65.22	57.70	49.31	41.09	35.99	32.86	28.36	26.64	24.96	24.28	23.59	23.85	23.23	23.84	22.75	23.96	23.91	24.85	24.11	22.85	21.54	20.49	18.02	16.94	14.83	13.11	11.60	9.793	9.039	8.170	10.97	16.54	12.85	5.452	3.364	2.710	2.288	2.335	2.167	1.545	1.164	1.667	4.818	13.71	36.10	223.0	557.7	183.5	8.524	0.649	0.444	0.456	0.419	0.391	0.350	0.349	0.321	0.236	0.275	0.320	0.263	0.291	0.245	0.222	0.207	0.273	0.266
505.0	51.59	80.57	189.3	114.4	79.58	314.3	1470	379.8	63.39	59.22	58.79	52.27	44.69	37.07	33.61	28.86	24.96	24.58	22.92	21.97	21.20	21.31	21.52	21.23	21.25	21.24	21.53	22.13	21.82	21.88	20.09	18.95	16.98	15.26	13.73	12.68	10.93	9.453	8.321	7.281	7.786	12.56	15.15	8.597	3.673	2.745	2.325	1.874	1.998	1.908	1.202	1.156	1.829	3.886	8.874	54.45	294.6	461.2	143.4	2.709	0.608	0.408	0.388	0.298	0.313	0.360	0.268	0.237	0.180	0.246	0.234	0.154	0.179	0.176	0.166	0.230	0.208
510.0	38.76	55.30	129.6	160.1	70.31	116.5	842.9	1151	150.2	53.90	51.82	48.45	38.63	33.42	29.58	25.05	22.16	21.68	20.46	19.36	19.23	18.44	18.69	17.89	18.61	18.22	19.03	19.19	19.50	19.01	18.16	16.50	15.26	13.64	12.05	11.05	9.735	8.689	7.401	6.497	6.215	7.362	11.55	11.99	6.382	2.950	2.233	1.907	1.558	1.681	1.623	1.273	1.115	1.596	2.701	12.89	71.00	212.6	383.9	132.1	11.62	0.505	0.384	0.371	0.331	0.320	0.234	0.285	0.218	0.212	0.217	0.190	0.196	0.186	0.214	0.231	0.183
515.0	28.87	46.03	66.85	173.8	95.40	59.28	253.7	1267	616.5	54.27	45.11	43.19	34.66	28.71	25.43	21.33	18.96	18.14	17.80	16.52	16.24	15.98	16.08	15.72	15.60	15.78	16.57	16.44	16.20	16.83	15.46	14.21	13.95	12.10	11.15	9.529	8.576	7.889	6.705	6.190	5.522	5.026	6.310	10.25	10.23	5.038	2.216	1.727	1.515	1.391	1.458	1.727	1.183	0.950	1.256	3.582	16.61	48.22	123.6	344.8	224.6	13.06	0.580	0.343	0.259	0.281	0.259	0.226	0.245	0.215	0.172	0.218	0.175	0.213	0.204	0.209	0.175
520.0	31.14	31.81	45.75	139.0	132.8	52.74	94.95	770.6	1183	114.3	40.43	36.49	31.28	25.95	22.89	18.96	17.29	16.27	14.94	15.66	13.44	14.70	14.15	14.24	13.89	14.22	14.22	14.72	15.12	14.11	13.57	12.87	12.52	10.86	9.953	8.869	8.277	7.040	6.188	5.493	4.309	4.059	4.170	7.145	10.25	8.005	3.071	1.663	1.408	1.263	1.232	1.509	1.563	0.971	0.896	1.449	4.409	11.38	28.77	142.1	442.5	163.5	7.307	0.384	0.383	0.327	0.274	0.235	0.212	0.176	0.195	0.169	0.180	0.164	0.128	0.152	0.144
525.0	29.58	31.50	38.72	84.88	158.6	63.80	55.47	310.4	1405	280.0	38.40	33.27	28.11	24.39	19.85	18.20	15.39	14.14	14.18	13.22	12.00	12.09	12.62	12.69	12.57	12.98	12.78	13.21	13.69	13.09	12.64	11.80	10.71	9.776	9.068	7.883	7.200	6.468	5.869	4.962	4.148	3.682	3.276	4.385	8.112	9.427	5.029	1.841	1.325	1.208	1.034	1.216	1.513	1.205	0.810	0.847	1.567	3.082	7.100	34.24	219.3	365.7	32.68	2.351	0.374	0.277	0.237	0.183	0.218	0.170	0.155	0.180	0.191	0.121	0.116	0.145	0.137
530.0	26.56	27.97	30.51	47.44	141.4	95.88	42.85	103.7	832.2	1024	107.9	30.36	24.50	21.39	18.01	15.57	13.59	12.36	12.08	11.20	11.41	10.56	10.66	11.08	10.65	10.94	10.65	11.28	11.46	11.33	11.05	10.22	9.419	8.697	7.839	6.967	6.383	5.844	5.275	4.384	3.918	3.290	3.032	3.044	4.478	7.572	7.256	3.495	1.523	1.063	0.972	1.025	1.112	1.276	1.094	0.678	0.865	1.190	2.138	8.175	52.32	164.5	283.2	127.0	10.38	0.368	0.261	0.199	0.159	0.162	0.160	0.149	0.148	0.126	0.081	0.134	0.111
535.0	24.08	28.07	26.91	33.54	81.76	140.3	48.07	49.96	247.6	1221	508.0	29.16	22.13	18.16	14.67	13.90	11.73	10.22	10.52	9.608	9.390	8.906	8.754	9.267	9.112	9.669	9.345	9.668	9.964	9.948	9.058	8.717	8.086	7.327	6.542	5.973	5.256	5.143	4.332	3.770	3.363	3.044	2.671	2.549	2.671	4.037	6.942	5.773	2.406	1.028	0.855	0.870	0.797	0.962	1.307	0.962	0.650	0.641	0.892	2.240	12.02	37.24	90.77	265.0	195.4	11.92	0.344	0.198	0.212	0.121	0.181	0.156	0.121	0.137	0.071	0.124	0.071
540.0	18.43	23.34	22.22	29.83	45.74	143.6	69.97	32.81	80.48	742.1	1059	67.34	19.96	16.01	13.79	12.29	10.48	8.986	9.269	8.238	8.094	8.199	7.523	8.058	8.599	8.149	8.407	8.630	8.168	8.300	8.449	7.786	7.389	6.660	5.763	5.579	4.643	4.698	4.025	3.517	3.111	2.780	2.250	2.099	1.960	2.394	4.387	6.683	3.867	1.569	0.769	0.719	0.658	0.672	1.010	1.234	0.810	0.537	0.559	0.884	3.027	8.702	20.97	104.9	313.0	136.1	4.349	0.212	0.179	0.121	0.189	0.107	0.110	0.105	0.090	0.121	0.122
545.0	20.49	20.16	27.19	21.41	27.76	106.5	104.0	27.78	39.99	282.2	1309	206.3	18.82	14.82	12.69	11.21	9.315	8.212	7.648	7.375	7.197	7.101	6.593	6.988	7.342	6.947	7.340	7.334	7.264	7.626	7.180	6.826	6.380	6.004	5.134	4.760	4.534	3.907	3.466	3.125	2.770	2.614	2.110	1.914	1.814	1.739	2.540	5.308	5.069	2.598	0.937	0.686	0.517	0.629	0.691	1.091	1.019	0.549	0.401	0.534	0.988	2.311	5.051	24.97	147.9	283.5	31.07	1.510	0.251	0.088	0.143	0.093	0.122	0.071	0.102	0.128	0.099
550.0	22.37	23.55	23.56	19.13	19.05	55.82	130.2	42.90	27.46	86.63	757.0	1005	56.25	12.90	10.65	8.912	7.796	6.969	6.452	6.281	6.166	6.207	5.897	5.982	6.130	5.899	6.146	5.784	6.391	6.188	6.111	5.218	5.024	4.708	4.436	3.972	3.801	3.343	2.782	2.624	2.331	2.131	1.725	1.745	1.483	1.371	1.400	2.727	4.330	3.716	1.781	0.738	0.521	0.513	0.540	0.641	0.949	0.913	0.558	0.396	0.520	0.810	1.457	5.926	35.04	123.5	164.9	88.02	8.005	0.204	0.175	0.136	0.108	0.086	0.102	0.085	0.101
555.0	22.15	27.63	24.06	19.71	17.05	23.82	100.7	83.52	25.85	38.20	215.2	1313	321.8	14.14	9.267	7.156	6.514	5.935	5.198	4.945	4.953	5.300	5.132	4.611	4.726	4.657	4.848	4.683	5.118	4.997	4.924	4.463	4.236	3.920	3.506	3.366	3.018	2.667	2.418	2.099	1.917	1.731	1.485	1.365	1.340	1.105	0.964	1.279	2.221	3.557	2.913	1.161	0.514	0.449	0.369	0.479	0.580	0.882	0.887	0.436	0.408	0.451	0.569	1.662	8.124	27.87	52.77	159.3	106.9	7.293	0.290	0.144	0.102	0.050	0.083	0.079	0.103
560.0	30.81	45.49	32.73	23.40	16.86	16.73	58.55	114.6	31.70	30.65	73.87	816.1	784.9	31.89	8.380	5.960	5.745	4.716	4.177	4.335	4.093	4.333	4.117	4.296	4.070	4.106	3.840	4.069	3.958	4.337	3.859	3.779	3.584	3.393	3.127	2.753	2.418	2.344	2.281	1.756	1.585	1.479	1.306	1.132	1.052	0.977	0.905	0.941	1.220	2.404	3.167	1.930	0.607	0.391	0.351	0.334	0.404	0.479	1.013	0.699	0.323	0.272	0.351	0.579	2.052	6.451	12.38	61.92	157.2	33.89	2.809	0.202	0.135	0.096	0.076	0.073	0.100
565.0	54.28	75.23	65.96	35.34	20.36	14.85	33.43	127.1	55.72	39.48	48.72	313.2	1054	125.9	7.931	5.457	4.604	4.262	3.494	3.524	3.342	3.522	3.157	3.470	3.521	3.436	3.305	3.418	3.473	3.457	3.658	3.195	3.014	2.783	2.684	2.326	2.142	1.997	1.852	1.710	1.397	1.290	1.239	1.148	0.873	1.000	0.812	0.897	0.970	1.550	2.544	2.342	1.109	0.424	0.328	0.340	0.397	0.326	0.667	0.906	0.594	0.244	0.303	0.378	0.672	1.709	3.094	14.72	71.01	133.9	29.09	1.039	0.191	0.137	0.083	0.059	0.050
570.0	134.4	174.1	145.6	94.37	38.45	23.23	28.58	94.41	117.2	68.99	81.42	144.1	678.2	595.2	33.01	5.411	4.011	3.480	3.265	2.998	2.703	2.831	2.753	2.739	2.592	2.720	2.559	2.774	2.775	2.662	2.831	2.888	2.407	2.370	2.181	2.031	1.836	1.899	1.644	1.466	1.202	1.218	1.033	1.104	0.914	0.993	0.874	0.956	0.930	1.049	1.574	2.304	1.808	0.798	0.429	0.302	0.376	0.359	0.354	0.701	0.994	0.646	0.447	0.437	0.537	0.915	1.178	3.743	16.94	58.18	94.44	54.72	5.460	0.196	0.126	0.078	0.053
575.0	238.9	296.7	265.3	167.7	71.68	32.96	31.23	67.99	158.0	127.0	136.2	148.9	268.0	810.8	131.0	5.259	3.547	2.947	2.853	2.488	2.336	2.358	2.102	2.193	2.197	2.135	2.157	2.311	2.417	2.230	1.996	2.211	1.967	1.898	1.864	1.815	1.700	1.617	1.324	1.254	1.095	1.179	1.076	1.002	1.012	1.109	1.148	1.182	1.243	1.009	1.041	1.528	1.883	1.532	0.593	0.302	0.345	0.367	0.393	0.445	0.790	1.114	0.809	0.468	0.706	0.717	0.814	1.445	4.229	13.51	29.85	89.70	34.39	4.489	0.190	0.094	0.079
580.0	299.6	394.8	355.8	218.0	86.07	44.06	37.86	62.44	160.4	177.6	169.0	174.0	174.0	543.8	587.0	14.53	3.304	3.046	2.256	2.512	1.763	1.776	1.755	1.741	1.677	1.854	1.692	1.855	2.052	1.981	1.742	1.782	1.846	1.621	1.785	1.658	1.513	1.387	1.255	1.211	0.982	1.141	0.939	1.045	1.049	1.181	1.235	1.378	1.316	1.048	0.950	1.231	1.627	1.538	0.976	0.434	0.376	0.363	0.404	0.498	0.552	0.927	1.207	0.794	0.727	0.959	0.880	1.007	1.575	3.625	7.271	34.40	89.51	31.12	1.735	0.145	0.108
585.0	324.1	452.1	424.6	265.1	105.7	45.44	41.83	62.28	134.1	219.1	196.0	197.8	166.1	248.0	863.4	72.09	2.623	2.373	2.002	2.066	1.819	1.480	1.358	1.685	1.607	1.579	1.541	1.556	1.705	1.749	1.560	1.706	1.584	1.483	1.767	1.622	1.386	1.291	1.178	1.222	0.917	1.138	1.002	1.052	1.174	1.345	1.375	1.468	1.495	1.182	1.138	0.990	1.214	1.463	1.255	0.598	0.404	0.319	0.284	0.459	0.501	0.733	1.365	1.210	0.861	0.933	1.071	1.161	1.149	1.515	2.253	8.370	42.66	86.13	24.47	0.728	0.090
590.0	395.5	486.8	471.1	290.9	120.5	53.84	44.30	68.10	122.8	235.7	243.7	222.2	181.6	129.1	533.4	371.7	11.09	1.971	1.818	1.549	1.368	1.385	1.197	1.289	1.419	1.378	1.376	1.315	1.317	1.251	1.270	1.310	1.324	1.345	1.505	1.387	1.279	1.260	1.030	1.007	0.910	1.015	0.924	1.000	1.220	1.373	1.400	1.451	1.552	1.293	1.076	0.923	0.895	1.018	1.285	1.051	0.566	0.397	0.317	0.377	0.561	0.617	0.905	1.326	1.185	1.048	1.138	1.101	1.104	1.092	1.083	2.241	10.17	36.33	61.63	38.91	4.191
595.0	399.9	511.6	505.0	319.7	133.5	57.44	49.90	71.18	117.3	206.1	283.9	235.3	186.9	101.8	153.8	527.1	78.16	2.108	1.288	1.401	1.360	1.060	1.123	1.110	1.032	1.097	1.178	1.006	1.150	1.076	0.922	1.103	1.148	1.240	1.140	1.431	1.203	1.088	1.147	0.895	0.737	0.866	0.877	1.038	1.217	1.443	1.281	1.541	1.605	1.353	0.961	0.824	0.800	0.585	0.925	1.129	0.838	0.475	0.342	0.369	0.491	0.542	0.735	1.029	1.416	1.306	1.075	1.088	1.135	0.998	0.866	0.867	2.441	8.206	18.69	60.68	33.95
600.0	410.1	522.3	497.7	328.5	130.2	57.83	49.58	73.30	114.5	182.0	290.7	244.3	192.6	94.74	51.04	346.1	258.4	5.141	1.360	1.399	1.053	0.961	1.097	0.944	1.001	0.969	0.954	0.867	1.010	0.809	0.708	0.771	0.974	1.041	1.131	1.336	1.276	0.913	1.100	0.885	0.828	0.741	0.773	0.932	1.104	1.360	1.297	1.507	1.747	1.356	1.063	0.926	0.771	0.533	0.610	0.942	0.982	0.686	0.396	0.341	0.478	0.625	0.665	0.912	1.108	1.588	1.184	0.996	1.024	1.008	0.773	0.571	0.684	2.010	4.347	22.10	61.13
605.0	374.1	496.6	496.8	310.8	135.4	60.54	49.90	68.80	110.8	170.3	275.8	258.9	190.3	92.72	26.85	130.7	377.5	30.81	1.396	1.108	0.906	0.872	0.888	0.771	0.775	0.840	0.837	0.773	0.787	0.607	0.577	0.696	0.800	0.922	1.072	1.233	0.998	0.940	0.930	0.687	0.691	0.695	0.792	0.867	0.936	1.283	1.230	1.498	1.523	1.305	1.044	0.927	0.673	0.405	0.455	0.632	1.018	0.742	0.439	0.424	0.520	0.450	0.703	0.942	0.948	1.467	1.361	1.004	0.980	0.972	0.801	0.483	0.376	0.595	1.087	5.206	27.48
610.0	359.5	468.3	462.7	289.7	126.4	54.91	45.31	63.81	101.8	158.0	232.6	259.1	181.3	89.30	20.77	35.62	246.7	168.6	5.713	0.859	0.796	0.797	0.682	0.714	0.593	0.652	0.648	0.601	0.660	0.546	0.567	0.532	0.687	0.739	1.002	0.980	0.933	0.856	0.835	0.653	0.654	0.631	0.715	0.736	0.772	1.127	1.182	1.449	1.450	1.204	0.987	0.818	0.551	0.416	0.331	0.395	0.731	0.735	0.548	0.426	0.473	0.538	0.637	0.826	0.834	1.084	1.276	1.323	0.928	0.837	0.782	0.437	0.285	0.265	0.345	1.275	6.505
615.0	321.6	429.3	415.6	267.5	112.5	52.80	41.75	59.58	91.63	142.6	194.2	239.9	181.4	78.54	18.76	12.23	70.41	277.9	55.12	1.209	0.799	0.680	0.611	0.593	0.451	0.536	0.501	0.467	0.445	0.626	0.394	0.524	0.519	0.660	0.727	0.783	0.850	0.693	0.668	0.590	0.667	0.504	0.683	0.702	0.786	1.117	1.074	1.282	1.271	1.135	0.920	0.775	0.510	0.390	0.306	0.286	0.390	0.593	0.719	0.489	0.480	0.416	0.586	0.734	0.829	0.952	0.892	1.217	1.013	0.882	0.683	0.335	0.213	0.128	0.186	0.346	1.508
620.0	291.1	405.1	373.2	250.4	107.2	46.02	42.53	54.73	87.09	129.5	172.2	205.0	182.0	73.52	17.05	6.601	19.23	198.9	180.9	2.114	0.782	0.496	0.550	0.470	0.333	0.495	0.466	0.405	0.419	0.505	0.500	0.312	0.444	0.566	0.612	0.638	0.729	0.707	0.613	0.459	0.483	0.450	0.583	0.659	0.712	0.937	1.005	1.255	1.170	0.936	0.903	0.732	0.460	0.400	0.301	0.239	0.266	0.455	0.552	0.435	0.437	0.458	0.474	0.627	0.661	0.752	0.819	0.987	1.015	0.901	0.611	0.284	0.165	0.139	0.144	0.156	0.411
625.0	266.8	343.9	350.8	220.5	99.54	43.77	35.89	50.34	78.29	118.5	155.2	171.3	172.4	73.52	16.73	5.759	6.406	81.99	291.4	16.01	0.865	0.610	0.589	0.431	0.395	0.406	0.348	0.405	0.331	0.377	0.364	0.363	0.399	0.561	0.573	0.610	0.633	0.511	0.546	0.415	0.442	0.472	0.461	0.448	0.754	0.744	0.811	1.114	1.102	0.852	0.800	0.597	0.399	0.337	0.237	0.197	0.229	0.296	0.404	0.578	0.519	0.490	0.423	0.620	0.584	0.727	0.734	0.722	0.946	0.988	0.622	0.343	0.148	0.141	0.142	0.105	0.168
630.0	224.6	301.2	305.9	187.0	81.64	39.60	32.37	42.15	66.44	102.9	130.0	142.6	145.2	79.34	14.96	4.803	3.660	21.81	208.0	113.9	2.546	0.623	0.544	0.386	0.323	0.302	0.442	0.343	0.263	0.336	0.404	0.314	0.327	0.477	0.520	0.564	0.534	0.489	0.424	0.382	0.392	0.376	0.405	0.385	0.540	0.638	0.732	0.877	0.891	0.792	0.714	0.588	0.342	0.248	0.216	0.142	0.213	0.242	0.360	0.548	0.514	0.465	0.475	0.535	0.507	0.611	0.638	0.599	0.722	0.758	0.691	0.397	0.165	0.107	0.080	0.065	0.085
635.0	197.6	249.1	261.6	158.7	71.47	33.96	27.97	36.18	55.02	87.52	114.7	117.0	108.8	81.71	16.61	4.908	3.004	6.472	61.16	204.9	29.85	0.692	0.408	0.341	0.319	0.324	0.378	0.293	0.261	0.362	0.345	0.278	0.292	0.415	0.380	0.485	0.495	0.375	0.437	0.245	0.345	0.310	0.433	0.349	0.469	0.451	0.522	0.783	0.742	0.654	0.520	0.457	0.372	0.220	0.206	0.098	0.182	0.184	0.246	0.379	0.370	0.458	0.448	0.491	0.530	0.523	0.511	0.523	0.484	0.687	0.619	0.376	0.218	0.074	0.094	0.055	0.043
640.0	170.5	220.9	219.3	133.9	62.81	31.58	24.66	32.28	50.40	74.79	101.4	100.7	89.47	70.95	21.59	4.511	2.702	2.811	15.65	155.1	75.07	1.181	0.478	0.335	0.332	0.300	0.252	0.251	0.228	0.231	0.263	0.203	0.280	0.368	0.331	0.394	0.443	0.436	0.350	0.285	0.321	0.243	0.379	0.390	0.419	0.427	0.520	0.686	0.679	0.602	0.498	0.351	0.308	0.189	0.200	0.149	0.227	0.143	0.201	0.255	0.302	0.426	0.524	0.426	0.519	0.515	0.498	0.418	0.456	0.482	0.387	0.433	0.288	0.137	0.056	0.065	0.045
645.0	160.3	191.3	180.6	119.4	52.40	24.69	24.84	28.79	44.48	65.17	84.07	89.86	79.17	57.49	30.05	5.028	2.486	2.022	4.724	66.65	171.2	9.763	0.515	0.326	0.244	0.224	0.322	0.285	0.213	0.182	0.203	0.187	0.189	0.269	0.339	0.316	0.433	0.330	0.298	0.264	0.309	0.264	0.306	0.313	0.333	0.434	0.519	0.510	0.589	0.432	0.413	0.287	0.260	0.170	0.149	0.100	0.169	0.100	0.133	0.197	0.194	0.390	0.447	0.373	0.400	0.424	0.435	0.402	0.328	0.429	0.333	0.340	0.340	0.236	0.058	0.060	0.031
650.0	129.7	168.7	151.9	100.4	48.38	21.37	19.17	25.59	39.33	57.05	73.55	76.93	65.53	42.69	32.77	6.796	2.319	2.023	1.917	18.90	171.3	49.35	0.486	0.257	0.270	0.259	0.245	0.235	0.192	0.189	0.167	0.131	0.138	0.220	0.367	0.295	0.310	0.246	0.279	0.173	0.180	0.233	0.233	0.314	0.341	0.384	0.389	0.423	0.485	0.376	0.297	0.266	0.222	0.129	0.114	0.127	0.139	0.088	0.109	0.148	0.160	0.343	0.354	0.489	0.265	0.401	0.411	0.361	0.281	0.346	0.259	0.164	0.247	0.267	0.112	0.048	0.021
