Sample:	'1
File name:	w102903»ôÆÂÇÅ.FD3
Run date:	'10:12:07, 10/31/2024
Operator:	horiz
Comment:	'

Instrument
Model:	F-2700 FL Spectrophotometer
Serial number:	23B8-004
ROM Version:	4J14000 07

Instrument parameters
Measurement type:	3-D scan
Data mode:	Fluorescence
EX  Start WL:	220.0 nm
EX  End WL:	600.0 nm
EX Sampling interval:	5.0 nm
EM  Start WL:	230.0 nm
EM  End WL:	650.0 nm
EM Sampling interval:	5.0 nm
Scan speed:	12000 nm/min
EX Slit:	5.0 nm
EM Slit:	5.0 nm
PMT Voltage:	700 V
Response:	Auto 
Corrected spectra:	Off
Contour interval:	50.000

Peak integration
Integration method:	Rectangular
Sensitivity:	1
Threshold:	1.000

Peaks
No.	ApexEX/EM(nm)	Height(Data)
1	225.0/570.0	62.57
2	225.0/590.0	62.04
3	230.0/340.0	2749
4	230.0/630.0	69.07
5	240.0/525.0	283.3
6	250.0/545.0	177.8
7	255.0/280.0	542.6
8	255.0/560.0	144.1
9	260.0/290.0	574.3
10	260.0/575.0	120.4
11	265.0/585.0	110.8
12	270.0/600.0	114.4
13	275.0/330.0	2588
14	275.0/615.0	145.7
15	280.0/625.0	128.7
16	460.0/345.0	7.724
17	520.0/285.0	3.644
18	560.0/330.0	12.18
19	580.0/320.0	12.27

Wavelength data
No.	EX/EM(nm)	Height(Data)	

Data points
	220.0	225.0	230.0	235.0	240.0	245.0	250.0	255.0	260.0	265.0	270.0	275.0	280.0	285.0	290.0	295.0	300.0	305.0	310.0	315.0	320.0	325.0	330.0	335.0	340.0	345.0	350.0	355.0	360.0	365.0	370.0	375.0	380.0	385.0	390.0	395.0	400.0	405.0	410.0	415.0	420.0	425.0	430.0	435.0	440.0	445.0	450.0	455.0	460.0	465.0	470.0	475.0	480.0	485.0	490.0	495.0	500.0	505.0	510.0	515.0	520.0	525.0	530.0	535.0	540.0	545.0	550.0	555.0	560.0	565.0	570.0	575.0	580.0	585.0	590.0	595.0	600.0
230.0	44.58	1383	4520	1631	70.27	7.337	6.291	5.566	4.575	5.020	5.014	4.578	4.158	4.100	3.409	2.776	2.943	2.446	2.307	2.296	1.839	1.779	1.570	1.635	1.476	1.456	1.292	1.139	1.149	1.076	0.981	0.973	0.907	0.924	0.814	0.788	0.705	0.620	0.617	0.548	0.564	0.561	0.608	0.525	0.445	0.460	1.410	6.547	13.51	10.78	4.387	0.916	0.384	0.309	0.341	0.332	0.327	0.325	0.271	0.238	0.271	0.261	0.270	0.228	0.231	0.221	0.194	0.222	0.200	0.189	0.165	0.152	0.157	0.175	0.138	0.134	0.147
235.0	92.74	381.6	2862	5508	2128	117.3	8.653	7.290	6.932	4.871	4.811	5.578	4.442	4.489	3.967	3.062	2.938	2.540	2.714	2.467	1.774	1.766	1.722	1.788	1.527	1.394	1.329	1.326	1.137	1.078	1.137	0.930	0.906	0.974	0.739	0.775	0.732	0.612	0.597	0.632	0.558	0.573	0.588	0.702	0.552	0.492	0.697	1.919	5.267	10.56	17.49	18.60	8.621	1.729	0.385	0.361	0.372	0.324	0.325	0.259	0.269	0.319	0.270	0.302	0.215	0.222	0.185	0.214	0.196	0.203	0.199	0.195	0.169	0.135	0.200	0.203	0.181
240.0	133.7	176.1	875.1	4870	5175	510.2	50.44	10.30	7.653	6.985	6.324	5.413	5.014	4.862	3.839	3.186	3.471	2.641	2.517	2.333	2.286	1.749	1.740	1.821	1.750	1.427	1.306	1.447	1.193	1.117	1.181	0.993	0.873	0.847	0.772	0.868	0.722	0.666	0.654	0.702	0.617	0.591	0.523	0.648	0.706	0.778	0.628	0.832	1.583	3.282	9.788	24.91	26.15	18.74	6.533	0.893	0.354	0.316	0.308	0.327	0.285	0.284	0.275	0.245	0.252	0.324	0.217	0.226	0.208	0.198	0.207	0.171	0.134	0.180	0.225	0.149	0.157
245.0	110.0	201.4	261.7	1652	7008	7256	389.8	22.33	10.71	8.769	7.707	5.582	5.581	5.513	4.496	3.771	3.380	2.520	2.454	2.384	2.169	1.830	1.996	1.812	1.673	1.522	1.577	1.463	1.194	1.155	1.157	1.033	0.965	0.966	0.810	0.884	0.739	0.717	0.615	0.654	0.682	0.466	0.608	0.571	0.525	0.633	0.882	0.799	0.776	1.060	2.651	8.838	22.27	38.69	26.33	16.55	4.239	0.561	0.311	0.350	0.286	0.247	0.265	0.216	0.224	0.300	0.209	0.203	0.191	0.221	0.205	0.176	0.226	0.160	0.213	0.193	0.180
250.0	58.72	146.9	253.2	460.9	2335	7696	9115	1411	91.66	13.71	10.94	7.687	7.187	6.392	5.315	3.940	4.003	2.979	2.734	2.608	2.247	1.955	2.048	1.928	1.709	1.654	1.495	1.493	1.313	1.390	1.146	1.155	1.121	0.954	0.857	0.826	0.789	0.740	0.668	0.698	0.612	0.634	0.580	0.554	0.548	0.597	0.635	0.908	1.069	0.946	1.103	2.334	5.628	13.00	21.70	37.22	39.99	40.29	13.15	4.579	0.640	0.331	0.371	0.308	0.275	0.297	0.241	0.224	0.210	0.213	0.229	0.198	0.201	0.153	0.166	0.176	0.190
255.0	49.12	59.40	176.2	356.5	607.3	1987	7991	9999.9	1948	97.91	16.08	10.95	9.545	8.000	5.795	5.027	4.481	3.355	3.105	2.892	2.245	2.385	2.256	1.974	2.067	1.805	1.786	1.579	1.450	1.391	1.221	1.170	1.036	0.997	0.904	0.780	0.837	0.728	0.731	0.632	0.673	0.606	0.671	0.553	0.561	0.644	0.600	0.604	0.687	1.007	1.443	1.526	1.762	3.326	5.252	9.253	18.50	49.07	80.50	69.37	20.01	4.370	0.526	0.338	0.386	0.377	0.333	0.321	0.194	0.266	0.209	0.274	0.233	0.213	0.188	0.220	0.207
260.0	46.73	36.52	82.87	285.3	366.3	505.6	2509	9999.9	9999.9	1479	47.25	15.72	11.44	10.14	7.376	5.566	5.263	3.819	3.282	2.874	2.804	2.514	2.172	2.136	1.965	1.920	1.834	1.582	1.450	1.521	1.368	1.314	1.192	1.128	0.929	0.844	0.928	0.768	0.766	0.638	0.706	0.643	0.558	0.572	0.584	0.597	0.592	0.635	0.532	0.708	1.007	1.665	1.912	1.471	1.575	2.447	4.628	13.65	39.68	79.38	100.1	28.74	15.62	2.153	0.545	0.365	0.348	0.352	0.255	0.287	0.277	0.286	0.256	0.225	0.190	0.186	0.261
265.0	48.73	39.13	42.67	139.2	378.0	287.0	615.8	3922	9999.9	9999.9	217.5	27.94	15.87	12.74	8.644	7.038	6.164	4.738	3.854	3.311	3.192	2.629	2.432	2.422	2.125	1.969	1.917	1.646	1.748	1.586	1.541	1.334	1.330	1.204	1.105	0.907	0.930	0.841	0.788	0.858	0.806	0.636	0.700	0.626	0.625	0.578	0.647	0.606	0.531	0.510	0.648	1.064	1.911	2.035	1.362	1.115	1.396	3.550	9.657	24.66	63.07	104.9	113.5	26.35	9.712	0.847	0.394	0.390	0.402	0.315	0.281	0.284	0.257	0.275	0.236	0.213	0.277
270.0	70.74	56.40	45.11	59.18	189.2	378.1	335.9	947.9	4284	9999.9	9999.9	3581	64.32	20.83	12.83	9.246	7.985	5.485	4.802	3.948	3.360	3.048	2.726	2.701	2.474	2.121	2.122	1.820	1.924	1.582	1.560	1.494	1.461	1.323	1.154	1.031	0.962	0.929	0.811	0.769	0.785	0.637	0.734	0.745	0.668	0.659	0.710	0.644	0.526	0.558	0.491	0.636	0.895	1.399	1.741	2.018	1.626	1.588	2.624	6.041	15.29	32.69	64.10	93.27	115.0	93.99	16.93	8.366	1.078	0.449	0.411	0.313	0.366	0.295	0.324	0.257	0.291
275.0	113.9	103.8	79.01	60.77	73.64	194.6	490.4	422.1	1020	2845	9999.9	9999.9	1170	72.70	20.72	13.48	10.55	7.700	6.119	5.136	4.148	3.556	3.488	3.136	2.580	2.456	2.372	2.262	2.097	1.870	1.708	1.575	1.503	1.504	1.216	1.352	0.968	1.045	0.946	0.898	0.822	0.750	0.922	0.780	0.759	0.792	0.777	0.755	0.710	0.654	0.541	0.574	0.594	0.734	0.860	1.238	2.446	2.817	2.280	2.033	3.934	7.813	14.94	22.23	37.97	88.88	162.4	171.1	27.00	10.48	0.863	0.578	0.420	0.441	0.420	0.332	0.374
280.0	163.6	170.4	132.3	91.24	62.12	92.44	332.1	542.6	371.5	733.6	3721	9999.9	9999.9	873.2	42.90	20.01	14.27	9.659	7.732	6.257	5.198	4.267	3.729	3.682	3.058	2.708	2.521	2.205	2.082	1.909	1.846	1.808	1.667	1.676	1.506	1.363	1.136	1.066	1.020	0.991	0.879	0.816	0.978	0.927	0.932	0.911	0.897	0.917	0.892	0.763	0.629	0.654	0.629	0.601	0.659	0.779	1.378	2.536	3.275	2.643	1.914	2.374	3.968	5.695	9.320	22.63	62.05	147.1	191.8	159.3	22.77	5.275	0.804	0.635	0.602	0.454	0.424
285.0	223.7	241.1	222.0	129.7	74.03	73.35	167.1	535.1	360.0	307.1	991.4	5309	9999.9	9999.9	118.6	29.81	19.74	12.18	9.471	7.269	5.628	4.731	4.322	3.777	3.721	2.995	2.970	2.587	2.555	2.077	2.108	1.895	1.861	1.644	1.640	1.460	1.317	1.328	1.097	1.089	1.055	0.970	0.999	1.061	1.004	1.046	1.082	1.152	1.057	0.935	0.755	0.892	0.792	0.745	0.754	0.689	0.935	1.265	2.177	3.117	3.644	2.202	1.823	2.190	3.106	6.043	14.96	39.37	89.62	186.9	210.4	32.40	17.60	2.109	0.736	0.578	0.501
290.0	313.3	383.2	362.1	215.5	121.0	106.2	135.1	287.2	574.3	528.3	499.0	1460	5383	9999.9	9999.9	2440	49.13	19.90	13.71	10.01	7.549	5.836	5.212	4.565	4.030	3.470	3.004	2.819	2.912	2.298	2.268	1.976	1.929	1.737	1.844	1.652	1.520	1.527	1.261	1.273	1.116	1.108	1.209	1.181	1.266	1.405	1.362	1.555	1.367	1.207	1.022	1.034	0.948	0.957	0.884	0.909	0.986	1.082	1.281	1.834	2.626	3.517	3.830	2.965	2.266	2.701	4.702	10.18	21.83	49.22	88.92	118.2	182.1	132.9	102.0	12.79	2.971
295.0	411.7	524.8	508.2	320.1	192.1	166.5	191.5	253.9	416.5	836.2	836.7	759.3	1548	3068	9999.9	9999.9	662.8	51.54	21.67	15.16	10.86	8.272	7.008	5.940	4.899	4.070	3.719	3.107	3.123	2.826	2.542	2.367	2.012	2.019	1.891	1.958	1.861	1.701	1.439	1.442	1.410	1.204	1.275	1.270	1.356	1.512	1.746	1.912	1.836	1.769	1.363	1.363	1.238	1.129	1.073	1.179	1.341	1.511	1.411	1.591	1.903	2.342	3.567	4.932	5.037	3.972	3.327	4.463	7.163	13.02	21.69	28.26	48.69	88.18	204.6	247.9	34.22
300.0	503.8	668.3	652.9	430.9	271.0	246.5	292.6	349.7	491.3	826.2	1317	986.4	919.1	1124	4046	9999.9	9999.9	532.1	40.10	20.98	14.73	10.00	8.600	6.922	5.990	4.860	3.988	3.387	3.771	3.509	2.916	2.521	2.250	2.109	2.097	2.112	2.092	2.022	1.641	1.484	1.436	1.390	1.404	1.370	1.508	1.812	2.120	2.180	2.150	2.079	1.633	1.711	1.600	1.440	1.526	1.695	1.670	1.859	2.106	2.172	2.245	2.756	3.333	4.119	5.680	6.675	6.171	4.707	5.013	6.045	7.644	8.950	13.32	22.76	61.80	155.0	246.2
305.0	613.7	848.2	838.0	562.9	374.8	354.7	447.2	595.1	784.2	1101	1619	1601	1240	1021	1523	5862	9999.9	9999.9	391.3	31.95	19.47	13.44	10.19	8.419	6.427	5.587	4.775	4.166	4.208	3.474	3.119	2.941	2.747	2.428	2.263	2.247	2.221	1.879	1.737	1.757	1.573	1.674	1.716	1.661	1.758	2.033	2.294	2.670	2.647	2.348	2.083	2.104	1.965	1.760	1.758	2.032	2.257	2.744	2.857	3.390	3.734	4.020	4.713	5.148	5.997	7.421	8.813	9.081	7.226	6.682	6.718	6.125	7.016	8.785	17.07	39.72	91.78
310.0	752.9	1030	1058	723.7	511.0	504.8	645.6	842.0	1083	1442	1811	2142	2021	1423	1240	1858	6282	9999.9	9999.9	1870	39.89	20.40	14.90	10.92	8.327	6.586	5.617	4.776	4.801	4.152	3.543	3.156	2.983	2.749	2.476	2.392	2.347	2.125	2.006	1.861	1.800	1.817	2.054	2.036	2.052	2.436	2.729	3.173	3.308	2.905	2.569	2.794	2.448	2.244	2.428	2.559	2.949	3.495	4.078	4.198	4.957	5.332	6.150	6.831	7.370	8.434	9.213	10.46	10.68	10.55	9.440	7.414	7.244	7.303	7.949	12.51	23.54
315.0	891.8	1265	1307	876.8	633.7	621.5	792.0	1003	1285	1702	2049	2266	2341	2025	1449	1052	1902	2937	9999.9	9999.9	2753	43.78	21.75	16.31	11.38	8.255	6.805	5.626	5.582	4.472	3.862	3.497	3.112	2.931	2.614	2.509	2.455	2.440	2.137	1.975	2.105	1.937	2.119	2.303	2.513	2.951	3.379	3.774	4.019	3.347	3.085	3.179	2.873	2.599	2.854	3.384	3.442	4.326	4.346	4.737	5.846	6.427	7.129	7.855	8.325	9.909	10.21	10.60	10.96	11.19	12.03	10.81	9.380	8.029	6.856	7.066	9.064
320.0	1040	1499	1574	1053	717.5	707.3	891.1	1120	1415	1875	2227	2435	2387	2311	1803	975.2	976.5	930.4	3573	9999.9	9999.9	430.2	36.77	21.82	14.53	10.38	8.252	6.763	6.009	5.492	4.311	3.879	3.513	2.866	2.964	2.662	2.718	2.746	2.272	2.114	2.081	2.173	2.355	2.555	3.000	3.514	4.080	4.428	4.573	3.993	3.521	3.755	3.308	2.839	3.065	3.428	3.918	4.381	4.935	5.333	6.125	6.971	7.707	8.669	8.968	10.38	10.94	11.42	11.65	11.31	11.92	11.53	12.27	10.17	7.819	6.604	6.068
325.0	1152	1877	1932	1274	837.9	772.7	946.4	1202	1509	1951	2338	2554	2455	2268	2088	1108	795.8	497.4	942.3	5116	9999.9	9999.9	340.4	31.35	18.33	12.91	9.920	7.605	6.991	6.200	5.055	4.252	4.060	3.467	3.176	2.816	2.691	2.737	2.376	2.276	2.239	2.249	2.598	2.655	3.020	3.880	4.583	5.275	5.391	4.977	4.081	4.157	3.704	3.341	3.271	3.633	4.081	4.742	5.350	5.920	6.231	7.255	8.075	8.867	9.627	10.91	11.44	11.91	11.91	11.71	11.63	11.27	12.19	11.89	9.660	7.321	5.553
330.0	1335	2077	2345	1673	1053	869.1	993.0	1238	1528	1992	2364	2588	2502	2227	2011	1341	865.9	436.1	380.6	1277	5096	9999.9	9999.9	1613	37.05	19.19	14.22	9.795	8.983	7.054	6.110	4.955	4.254	3.703	3.432	3.108	3.063	2.731	2.547	2.462	2.341	2.401	2.575	2.777	3.416	4.072	4.931	6.097	6.379	5.848	4.913	5.166	4.402	3.903	3.773	3.773	4.198	4.736	5.456	5.942	6.479	7.253	8.263	8.809	9.485	10.60	11.84	11.78	12.18	12.10	11.64	11.34	11.22	11.22	9.546	8.948	7.128
335.0	1453	2297	2629	2035	1333	1003	1037	1259	1558	1984	2355	2566	2509	2254	1926	1305	1069	538.1	311.6	440.4	1254	2699	9999.9	9999.9	2660	41.01	20.82	13.52	11.01	8.813	7.191	5.807	5.086	4.454	4.024	3.314	3.165	2.818	2.832	2.598	2.579	2.475	2.743	3.061	3.633	4.593	5.596	6.921	7.433	6.899	5.878	6.389	5.465	4.955	4.389	4.169	4.307	4.928	5.597	6.056	6.576	7.036	8.139	8.890	9.739	10.54	11.48	11.76	12.15	11.75	12.08	11.46	11.13	10.39	8.943	8.264	7.373
340.0	1497	2359	2749	2174	1464	1081	1076	1245	1530	1943	2279	2498	2447	2218	1886	1230	1039	696.4	350.4	282.0	418.0	712.9	3341	9999.9	9999.9	385.3	34.39	17.76	13.83	10.93	8.173	6.566	5.671	4.846	4.084	3.572	3.579	3.358	2.730	2.754	2.545	2.650	2.693	3.011	3.713	4.911	5.608	7.141	7.629	7.121	6.227	6.738	6.080	5.424	4.744	4.488	4.627	4.940	5.457	5.968	6.703	7.129	8.261	8.905	9.623	10.38	11.04	11.57	11.62	11.85	11.82	11.31	11.08	10.53	9.216	7.799	6.588
345.0	1431	2271	2702	2175	1497	1109	1065	1223	1474	1843	2161	2364	2318	2124	1804	1187	916.8	756.6	469.0	281.4	253.9	286.5	856.4	4591	9999.9	9999.9	334.0	26.59	17.25	12.65	9.157	8.011	6.225	5.451	4.216	3.538	3.605	3.422	2.747	2.577	2.418	2.660	2.888	3.093	3.522	4.825	5.391	6.852	7.724	7.009	6.232	6.568	5.966	5.113	4.559	4.404	4.546	4.750	4.962	5.976	6.635	6.940	7.667	8.550	9.028	9.812	10.61	11.18	11.08	11.49	10.87	10.93	10.36	9.936	8.962	7.656	6.271
350.0	1304	2087	2500	2099	1531	1169	1096	1201	1396	1726	1998	2166	2126	1973	1687	1151	865.1	668.5	584.6	416.1	273.3	229.8	322.7	1136	4586	9999.9	9999.9	1493	34.65	17.71	12.50	9.212	7.141	5.952	4.655	3.871	3.727	3.389	2.785	2.805	2.559	2.650	2.727	2.886	3.573	4.249	5.220	6.244	7.138	6.486	6.245	6.990	6.084	5.460	4.850	4.577	4.676	4.848	5.079	5.772	6.035	6.532	7.246	8.195	8.359	8.914	9.705	10.18	10.03	10.37	10.43	10.13	9.730	9.581	8.349	7.228	6.369
355.0	1189	1889	2313	1979	1536	1215	1110	1186	1339	1605	1819	1957	1929	1809	1571	1117	857.2	651.9	554.4	553.7	399.4	267.6	242.7	384.4	1113	2518	9999.9	9999.9	2731	41.42	18.14	12.67	8.870	6.864	5.701	4.629	3.951	3.361	2.911	2.803	2.526	2.509	2.644	2.719	3.376	4.140	4.786	5.925	6.474	6.015	5.961	6.572	6.071	5.630	4.997	4.700	4.867	4.917	5.164	5.668	5.913	6.191	6.906	7.545	7.543	8.218	8.838	9.157	8.674	9.496	9.389	9.183	9.391	8.781	7.872	7.344	6.448
360.0	1170	1735	2091	1897	1516	1195	1099	1171	1301	1528	1704	1815	1790	1693	1476	1092	852.9	667.1	560.0	540.5	522.6	344.5	258.6	241.5	362.1	646.6	2846	9999.9	9999.9	2328	35.75	16.03	11.43	8.441	6.727	5.152	4.501	3.884	3.148	3.166	2.817	2.672	2.628	2.723	3.385	3.806	4.518	5.289	5.913	5.618	5.497	6.163	5.907	5.500	5.102	4.660	5.124	4.997	5.308	5.370	5.778	6.136	6.747	7.248	7.370	8.012	8.171	8.286	8.405	8.696	8.702	8.679	8.447	8.284	7.381	6.963	6.400
365.0	1052	1602	1918	1769	1476	1199	1115	1159	1263	1461	1602	1696	1661	1590	1387	1064	861.0	696.8	588.7	525.2	550.7	463.2	307.0	239.8	219.2	245.6	714.8	3552	9999.9	9999.9	343.9	27.77	14.27	10.78	8.003	5.776	5.159	4.294	3.556	3.050	2.933	2.759	2.826	2.606	3.188	3.441	4.204	5.032	5.534	5.201	5.011	6.073	5.614	5.439	4.955	4.691	4.967	5.014	5.056	5.221	5.740	6.221	6.350	6.856	7.003	7.197	7.737	7.626	7.965	8.548	8.215	8.308	7.871	7.660	7.165	6.801	5.862
370.0	949.7	1407	1744	1652	1448	1213	1109	1149	1230	1377	1498	1565	1537	1458	1301	1033	859.8	728.0	632.7	560.6	526.8	526.2	436.3	298.2	227.0	188.7	258.4	874.0	3811	9999.9	9999.9	6774	31.82	15.88	10.45	7.376	5.974	4.852	3.994	3.537	2.994	2.802	2.887	2.910	3.017	3.414	3.964	4.667	5.281	4.935	4.876	5.727	5.607	5.315	5.062	4.631	4.978	5.189	5.074	5.361	5.492	6.016	6.196	6.401	6.607	6.762	7.035	7.236	7.418	7.562	7.760	7.646	7.368	7.390	6.761	6.384	6.235
375.0	846.8	1289	1573	1535	1388	1208	1111	1130	1174	1298	1403	1444	1415	1338	1214	995.1	860.0	751.9	674.1	604.7	546.9	512.7	516.2	419.4	282.1	215.3	191.1	296.2	923.6	2439	9999.9	9999.9	2488	37.14	15.69	10.45	7.627	5.804	4.366	3.806	3.323	3.089	2.975	3.129	2.864	3.371	3.794	4.451	4.878	4.576	4.533	5.322	5.354	5.012	5.152	4.769	5.025	4.953	5.100	5.147	5.327	5.411	6.007	6.381	6.065	6.447	6.663	6.412	6.780	6.989	6.894	7.159	7.163	6.879	6.309	5.951	5.691
380.0	777.6	1180	1440	1431	1345	1210	1107	1106	1149	1242	1324	1369	1331	1271	1147	967.8	852.4	757.7	691.6	626.5	572.3	523.2	506.5	495.3	355.1	249.7	202.3	190.1	295.7	615.6	2704	9999.9	9999.9	2148	31.29	12.82	9.536	6.900	5.169	4.324	3.662	3.262	2.932	3.087	2.963	3.427	3.634	4.279	4.576	4.321	4.340	5.310	5.059	5.050	5.122	4.967	4.929	4.972	4.673	5.239	5.240	5.533	5.809	5.962	5.989	5.904	6.410	6.547	6.456	6.519	6.379	6.706	6.481	6.544	6.132	6.011	5.882
385.0	763.4	1118	1360	1379	1299	1187	1113	1082	1123	1193	1264	1280	1265	1204	1095	937.3	840.2	759.8	700.9	644.3	595.0	544.1	504.2	497.1	439.7	297.5	232.0	187.3	176.2	220.8	676.0	3236	9999.9	9999.9	1619	22.96	11.86	8.510	6.374	4.853	3.884	3.215	3.150	3.033	3.044	3.362	3.755	4.158	4.332	4.250	4.349	5.145	5.107	5.220	4.568	4.803	4.791	4.737	4.683	5.147	5.196	5.362	5.707	5.562	5.692	5.551	6.021	5.851	6.128	6.412	6.103	6.645	6.556	6.354	5.870	5.520	5.677
390.0	740.4	1026	1252	1288	1238	1156	1067	1054	1078	1135	1182	1202	1182	1135	1030	896.0	818.9	754.0	705.7	659.5	614.1	568.9	522.8	483.1	465.1	399.9	291.2	220.0	180.1	157.5	235.5	789.6	3254	9999.9	9999.9	5944	26.88	12.37	8.232	5.845	4.595	3.807	3.604	3.168	3.263	3.475	3.610	4.010	4.248	3.977	4.038	4.706	4.758	4.921	4.712	4.710	4.760	4.783	4.849	4.904	5.039	5.009	5.272	5.355	5.525	5.422	5.672	5.569	5.663	5.901	5.915	6.019	6.051	5.903	5.768	5.476	5.345
395.0	686.7	960.2	1147	1207	1179	1124	1062	1033	1049	1089	1121	1123	1111	1060	969.0	864.1	788.1	741.5	704.4	667.2	624.7	587.4	547.0	498.4	455.0	442.4	385.0	275.6	217.4	174.0	163.3	257.4	780.8	2352	8312	9999.9	8281	32.50	11.97	8.027	6.331	4.897	4.003	3.510	3.455	3.421	3.614	3.907	4.084	4.119	3.909	4.682	4.671	4.789	4.710	4.621	4.887	4.707	4.737	4.688	4.776	4.984	4.769	4.995	5.130	5.168	5.452	5.254	5.375	5.518	5.605	5.394	5.773	5.580	5.571	5.343	5.390
400.0	633.3	917.2	1093	1176	1144	1100	1054	1021	1028	1043	1080	1090	1065	1022	930.5	838.1	768.8	728.2	690.8	662.6	629.3	600.6	561.4	520.0	465.8	437.5	433.5	341.0	249.6	199.2	165.2	154.4	240.4	574.0	2127	9999.9	9999.9	1913	26.63	10.40	7.409	5.384	4.458	4.133	3.617	3.528	3.685	3.916	4.010	3.933	3.869	4.355	4.685	4.785	4.422	4.660	4.692	4.985	4.796	4.615	4.898	4.999	4.861	5.115	5.093	5.012	5.187	5.128	5.150	5.211	5.440	5.109	5.387	5.594	5.303	5.158	5.281
405.0	599.5	901.6	1049	1128	1125	1080	1032	1014	1012	1023	1054	1056	1031	986.7	901.7	811.3	755.0	711.9	683.5	656.5	628.9	598.6	570.3	531.2	484.6	442.4	430.4	400.0	295.1	228.8	184.1	146.2	132.4	183.7	517.8	2832	9999.9	9999.9	1491	20.97	8.978	6.296	5.247	4.328	3.648	3.827	3.507	3.979	4.060	3.845	3.922	4.545	4.752	4.797	4.484	4.527	4.539	4.860	4.667	4.598	4.827	4.816	4.581	4.808	5.226	4.598	4.944	5.049	4.997	5.096	4.966	5.359	5.579	5.241	5.290	4.968	5.012
410.0	618.1	841.6	1022	1083	1079	1053	1019	1003	998.7	991.4	1018	1008	985.5	940.3	858.9	776.6	718.4	689.3	656.9	639.0	618.5	595.8	568.8	539.8	498.8	455.8	420.9	407.5	363.8	276.1	209.5	162.9	123.2	110.4	165.6	671.0	2871	9999.9	9999.9	5122	23.26	9.219	6.443	5.062	4.283	3.932	3.580	3.838	3.779	3.718	3.681	4.358	4.540	4.623	4.408	4.322	4.579	4.669	4.618	4.664	4.763	4.652	4.658	4.698	4.736	4.679	4.615	4.614	4.825	4.908	5.012	5.031	4.868	5.025	4.963	4.663	4.870
415.0	569.1	791.7	955.6	1053	1046	1030	994.2	983.4	961.9	959.4	980.3	960.1	939.7	896.9	817.6	731.5	678.9	650.5	624.9	608.2	595.6	579.7	561.3	534.5	502.9	463.2	427.1	394.2	379.5	337.6	242.6	182.1	137.9	105.8	97.36	192.8	672.1	2306	6360	9999.9	1948	28.20	9.212	6.357	4.860	4.443	3.704	3.888	3.887	3.668	3.762	4.479	4.414	4.401	4.313	4.398	4.703	4.731	4.576	4.353	4.739	4.527	4.686	4.595	4.640	4.388	4.384	4.389	4.536	4.503	4.641	4.732	4.701	4.645	4.849	4.455	4.592
420.0	523.7	743.1	928.7	1008	1022	1009	978.5	961.5	943.6	937.5	941.3	929.1	899.8	852.1	785.4	693.5	650.7	625.0	601.3	585.1	574.1	562.7	549.5	528.1	498.0	464.8	430.7	392.1	365.7	358.4	283.5	200.0	150.0	112.7	87.66	90.73	185.3	542.0	1596	8522	9999.9	1707	22.35	7.954	5.773	4.852	4.131	4.261	4.027	3.778	3.677	4.186	4.400	4.420	4.275	4.133	4.510	4.646	4.392	4.412	4.690	4.500	4.518	4.529	4.419	4.378	4.232	4.339	4.358	4.265	4.481	4.292	4.729	4.469	4.514	4.330	4.118
425.0	512.6	712.3	880.9	965.3	987.8	969.1	979.4	953.5	928.5	928.4	923.9	899.7	866.6	820.5	742.6	667.3	622.6	599.7	573.1	558.4	548.8	544.2	539.3	517.6	491.2	460.7	428.1	394.7	363.0	345.7	314.3	227.3	163.7	121.2	91.58	74.12	81.23	151.7	381.3	2303	9999.9	9999.9	1327	16.27	7.350	5.842	4.876	4.469	4.067	3.863	3.379	4.201	4.506	4.519	4.298	4.239	4.582	4.678	4.425	4.564	4.584	4.465	4.371	4.547	4.286	4.352	4.087	4.393	4.173	4.422	4.316	4.414	4.404	4.292	4.403	4.331	4.169
430.0	565.9	695.2	839.0	931.8	953.6	952.5	948.0	934.5	908.2	898.4	892.6	864.8	829.3	783.6	710.4	633.3	584.1	567.0	542.7	528.9	521.4	517.7	514.1	502.4	477.9	453.1	426.5	397.3	360.8	330.3	309.4	263.7	190.8	136.3	102.4	78.59	65.03	69.67	111.2	535.4	2693	8419	9999.9	3985	20.56	8.212	5.692	5.148	4.358	3.875	3.584	4.211	4.354	4.513	4.249	4.259	4.415	4.579	4.688	4.550	4.341	4.506	4.323	4.346	4.191	4.374	4.127	4.062	4.109	4.175	4.148	4.215	4.222	4.030	4.078	4.024	3.893
435.0	779.8	679.9	807.1	881.0	917.0	925.1	926.6	910.6	888.1	879.5	866.6	834.7	791.4	759.5	675.7	598.0	555.1	533.0	511.1	500.8	493.8	488.9	487.2	478.7	461.3	441.5	417.5	394.3	362.8	329.4	294.7	266.5	227.7	158.9	115.0	88.67	68.99	56.77	55.66	143.0	618.3	1930	5770	9999.9	1816	25.92	8.536	6.572	5.288	4.453	3.853	4.323	4.652	4.279	4.183	4.241	4.526	4.702	4.378	4.572	4.495	4.410	4.438	4.466	3.993	3.973	4.149	4.095	4.135	3.947	3.911	3.866	3.668	3.720	3.919	3.685	3.797
440.0	1075	739.8	788.4	842.9	894.0	892.1	910.4	902.5	891.0	861.9	845.1	810.6	771.1	723.4	648.0	569.7	532.9	509.0	491.2	482.8	469.3	467.5	467.0	460.1	448.9	428.2	408.2	387.7	361.5	328.1	291.5	255.1	236.9	183.7	127.5	95.58	73.43	58.38	46.72	58.99	158.4	447.8	1455	8142	9999.9	1548	19.86	8.126	5.829	4.913	4.201	4.364	4.479	4.395	4.422	4.357	4.401	4.644	4.208	4.473	4.276	4.371	4.402	4.322	4.179	4.208	4.093	3.877	4.066	3.763	3.864	3.898	3.672	3.715	3.703	3.642	3.968
445.0	1309	1042	753.7	824.9	860.7	869.3	893.7	890.5	856.9	842.9	807.7	784.1	740.7	696.3	613.4	546.5	503.7	483.7	466.7	455.5	445.7	443.0	442.9	440.9	431.5	411.4	394.4	377.0	353.7	328.2	289.6	248.7	223.5	200.2	144.7	101.2	79.47	62.36	47.55	41.83	58.31	118.4	342.6	2244	9999.9	9999.9	1101	16.30	7.086	5.211	4.426	4.899	4.338	4.399	4.415	4.298	4.321	4.558	4.442	4.359	4.324	4.379	4.476	4.157	4.050	3.941	3.758	3.998	3.985	3.663	3.724	3.677	3.513	3.526	3.663	3.337	3.585
450.0	951.1	1852	948.4	767.5	813.5	835.1	836.2	839.1	821.5	790.7	775.2	741.2	699.2	649.9	574.8	504.0	469.2	448.7	427.7	417.8	411.1	411.3	410.3	408.6	401.0	385.7	373.1	360.4	339.7	315.0	281.9	243.7	209.1	189.3	162.3	117.9	86.75	68.12	52.54	41.98	39.39	47.05	94.10	517.2	2718	8520	9999.9	3808	18.40	7.253	5.293	5.414	4.569	4.563	4.480	4.169	4.377	4.504	4.302	4.279	4.345	4.186	4.050	4.006	3.954	3.989	3.672	3.712	3.466	3.448	3.571	3.377	3.426	3.389	3.210	3.220	3.352
455.0	528.3	2117	1975	752.7	756.9	782.2	790.9	788.5	770.2	746.0	728.8	689.0	642.7	592.2	527.4	458.6	427.3	407.6	387.6	381.1	372.0	370.4	371.3	369.3	363.8	355.6	349.3	335.4	317.2	299.0	268.8	233.2	199.5	172.0	157.4	136.6	97.88	72.46	57.47	45.66	37.06	34.06	39.68	131.3	618.7	1957	5495	9999.9	1508	19.95	7.153	6.138	5.135	4.918	4.581	4.536	4.320	4.350	4.181	4.160	4.064	4.111	3.717	3.897	3.632	3.493	3.504	3.586	3.464	3.450	3.441	3.205	3.151	3.044	2.866	3.055	3.070
460.0	385.5	1558	3204	899.3	705.5	706.6	743.7	735.4	730.6	695.2	691.9	650.9	604.5	555.4	484.0	423.3	393.1	377.6	359.7	350.2	342.1	340.6	345.7	342.4	337.9	330.7	323.9	311.5	300.6	286.8	259.3	226.6	193.9	164.8	146.0	137.7	109.6	76.81	60.07	47.53	38.54	32.79	29.36	46.12	152.7	449.9	1362	7438	9999.9	1207	16.82	7.396	5.841	5.256	4.561	4.349	4.479	4.153	4.263	4.124	4.030	3.956	3.722	3.487	3.606	3.374	3.255	3.304	3.071	3.030	3.037	3.160	2.811	3.024	2.949	2.816	2.730
465.0	341.1	869.5	3639	1836	664.9	675.9	688.7	695.7	687.4	659.4	639.2	602.5	570.9	513.0	455.2	396.9	364.5	349.0	336.4	322.3	316.8	313.4	318.0	316.8	311.9	311.2	300.5	293.3	283.5	270.6	246.7	219.4	186.7	160.6	136.6	127.0	114.9	83.84	63.51	49.80	40.41	33.05	27.83	27.38	49.18	113.5	317.9	2020	9417	9879	966.9	15.16	6.650	5.828	5.016	4.614	4.361	4.159	4.126	3.885	4.023	3.774	3.727	3.447	3.101	3.367	3.377	3.051	2.885	3.020	2.963	2.754	2.761	2.755	2.575	2.789	2.663
470.0	319.1	503.4	2338	3711	1013	605.2	635.1	638.0	624.2	611.5	585.1	552.0	517.1	463.5	411.3	357.6	332.9	312.2	297.0	288.9	283.1	282.6	283.1	281.4	281.3	278.1	271.0	264.2	257.8	244.6	227.1	203.7	174.6	152.9	128.7	112.3	105.5	91.82	69.05	50.94	41.91	34.33	28.35	24.79	26.85	38.57	82.70	463.4	2523	7169	8478	2967	17.97	7.202	5.665	4.966	4.651	4.199	4.258	3.862	3.883	3.582	3.595	3.436	3.156	3.226	3.081	2.949	3.015	2.919	2.872	2.573	2.863	2.554	2.418	2.486	2.402
475.0	300.8	394.9	943.5	3913	2737	587.4	565.7	571.3	562.5	550.8	531.6	500.9	455.2	417.5	360.7	317.3	291.4	273.1	261.9	255.8	250.2	246.8	247.2	248.5	247.0	242.5	240.7	235.5	229.8	220.6	205.1	185.7	163.0	142.5	120.5	103.8	92.29	86.19	76.28	55.36	42.76	34.45	29.44	24.56	22.03	22.06	30.12	113.6	571.1	1633	3932	9409	1508	22.79	6.749	5.432	4.519	4.410	3.979	3.709	3.596	3.324	3.452	3.160	3.036	3.059	2.911	2.626	2.865	2.569	2.632	2.527	2.533	2.440	2.186	2.098	2.254
480.0	302.3	375.0	531.0	2575	4587	885.4	528.6	528.5	522.3	517.1	494.3	466.2	423.6	381.0	336.6	292.1	268.6	251.8	239.8	231.9	226.2	223.8	225.6	225.6	224.4	223.5	219.8	215.8	213.1	205.2	191.0	174.2	153.4	135.7	114.6	99.85	85.92	77.09	75.43	61.18	45.53	35.14	28.88	24.74	21.25	18.84	18.98	35.46	136.2	372.1	954.3	5187	8996	1357	18.12	6.803	5.211	4.398	4.302	3.886	3.617	3.203	3.227	3.174	2.906	2.982	2.743	2.570	2.744	2.411	2.363	2.257	2.418	2.281	2.203	2.042	2.198
485.0	290.0	358.6	426.3	1234	5227	2020	501.9	496.0	485.5	476.4	459.0	438.0	398.0	360.0	311.1	271.8	250.9	235.4	220.2	213.8	209.3	208.7	206.9	207.9	207.7	206.5	203.8	201.4	200.3	193.5	179.1	165.4	145.1	128.6	110.8	96.07	82.97	72.63	69.84	65.05	48.48	36.02	30.36	25.28	21.40	18.37	16.62	18.60	39.21	90.86	221.2	1364	6917	8235	203.9	13.71	6.306	4.959	4.334	3.982	3.681	3.337	2.892	3.156	2.649	2.875	2.604	2.433	2.493	2.232	2.128	2.179	2.376	2.035	1.923	2.008	2.107
490.0	237.0	344.4	378.8	589.7	3198	4472	890.1	454.4	446.4	436.3	418.7	394.8	364.2	325.6	281.5	248.3	228.1	213.6	200.5	194.0	189.2	187.3	187.2	186.5	187.1	185.5	182.8	182.7	180.2	176.4	165.0	150.7	134.5	119.1	103.9	90.37	78.84	69.40	62.08	59.22	53.64	40.44	31.00	25.83	22.34	19.00	16.48	15.24	17.93	28.13	56.61	312.0	1806	5308	7626	3048	19.13	6.644	4.915	4.121	3.996	3.391	3.113	3.004	2.732	2.751	2.404	2.362	2.277	2.283	2.117	2.104	2.024	1.958	1.930	1.814	1.914
495.0	187.7	322.2	376.1	402.5	1125	4938	2688	437.4	406.5	395.6	385.5	353.4	327.5	293.5	250.0	222.7	203.6	190.4	178.5	173.1	167.1	166.3	166.1	167.8	165.3	165.5	164.0	160.4	161.6	158.6	148.2	136.8	122.7	108.6	96.30	85.42	74.75	65.11	57.01	51.02	50.18	44.99	33.42	27.07	22.35	19.71	16.44	14.87	13.12	14.46	19.60	76.27	408.4	1206	3831	9586	1714	25.20	6.531	4.556	4.161	3.528	3.131	2.831	2.667	2.478	2.348	2.111	2.057	2.134	1.934	1.873	1.950	1.929	1.938	1.710	1.599
500.0	165.2	258.9	370.3	345.5	519.9	3225	4854	658.8	371.3	366.6	348.1	329.3	298.5	267.2	228.8	198.6	183.5	171.6	162.3	157.8	151.7	150.0	149.5	150.0	149.6	149.6	148.4	149.1	146.6	142.7	136.8	125.9	113.9	99.74	90.27	79.36	70.41	61.17	53.94	46.82	45.04	45.17	37.24	27.44	22.24	19.44	16.76	14.46	12.28	10.76	11.29	23.74	97.39	275.4	933.0	5154	9374	1518	20.98	5.828	4.353	3.798	3.096	3.028	2.445	2.454	2.330	2.079	1.950	2.148	1.958	1.845	1.690	1.707	1.680	1.401	1.473
505.0	155.9	226.5	354.6	325.1	361.5	1457	5832	1631	346.3	335.3	326.7	303.8	274.2	243.4	211.3	183.9	169.7	160.1	150.3	143.3	139.6	135.4	137.4	135.2	133.7	135.1	135.4	135.3	134.8	130.3	126.4	117.6	106.5	93.80	83.63	74.60	65.54	57.86	51.27	45.02	39.79	39.87	38.53	29.27	22.39	19.09	16.47	13.85	12.19	10.29	9.521	11.73	27.42	67.16	215.5	1331	6585	8492	1189	14.96	5.329	3.820	3.581	2.977	2.654	2.414	2.274	2.023	1.976	1.952	1.911	1.732	1.700	1.805	1.605	1.353	1.439
510.0	136.4	187.8	287.4	326.9	294.2	559.0	3677	4052	627.2	299.4	283.8	271.7	240.9	213.0	186.3	161.7	148.9	139.0	132.3	125.0	121.3	120.0	119.5	118.2	117.2	118.7	117.5	117.5	118.2	114.8	110.9	104.2	93.03	83.85	75.17	66.82	59.56	52.81	47.06	41.66	36.18	33.35	34.22	32.05	24.30	18.83	16.03	13.82	11.70	10.47	9.110	8.780	11.53	20.53	53.60	303.2	1689	5096	6943	2710	19.37	5.252	3.928	3.255	2.595	2.387	2.073	1.958	1.777	1.768	1.636	1.612	1.607	1.615	1.519	1.259	1.348
515.0	110.3	157.7	223.6	303.2	265.4	308.7	1209	5390	2075	285.1	248.7	232.2	212.7	186.5	162.2	139.6	128.9	120.4	114.8	106.9	104.9	103.2	103.4	101.5	100.8	100.8	101.1	100.6	100.8	99.63	96.21	90.18	81.96	73.88	67.48	59.52	53.75	47.01	42.53	37.38	33.51	29.89	28.05	29.40	26.87	19.47	15.57	13.59	11.31	9.748	8.728	8.096	7.692	9.698	16.87	72.24	381.2	1151	2903	7711	1760	26.46	5.450	3.764	2.877	2.404	2.388	1.771	1.792	1.654	1.542	1.373	1.436	1.518	1.345	1.178	1.145
520.0	106.3	153.0	190.6	264.9	279.9	235.5	457.5	3680	4780	460.8	227.3	209.6	190.4	165.7	145.9	125.6	113.4	107.4	101.2	95.26	93.35	92.94	90.41	91.70	90.17	89.93	89.97	89.67	90.08	88.60	85.10	80.34	73.91	66.46	60.37	53.01	49.04	43.61	38.12	34.59	30.72	27.55	24.71	25.23	25.86	21.25	15.48	13.31	11.13	9.408	8.056	7.639	6.956	7.071	8.298	20.54	89.57	261.5	686.4	3793	7667	1580	21.81	4.431	3.128	2.585	2.334	1.846	1.630	1.556	1.548	1.421	1.312	1.219	1.254	1.208	1.041
525.0	95.43	144.2	167.0	217.1	283.3	214.5	263.9	1589	6446	1394	208.7	191.7	173.3	150.0	134.3	112.8	102.4	96.11	91.10	87.48	84.49	83.04	82.03	81.13	80.50	79.70	80.62	80.28	80.24	80.40	76.82	72.80	66.08	59.40	53.65	48.94	44.60	40.68	35.60	32.32	28.01	25.14	22.83	21.86	22.52	22.19	16.26	13.12	10.84	9.156	7.753	7.124	6.817	6.248	6.298	8.910	23.99	62.78	158.5	939.7	4690	6896	1286	15.72	3.861	2.809	2.299	1.920	1.734	1.644	1.464	1.430	1.334	1.302	1.183	1.184	1.031
530.0	81.31	118.9	141.0	164.7	242.2	219.1	193.4	523.9	4255	4630	461.0	167.8	150.5	132.7	116.9	98.00	91.53	82.79	79.38	75.28	72.62	71.30	70.43	70.07	69.55	68.69	68.56	68.12	69.23	69.67	67.62	63.21	57.58	52.75	47.75	42.89	39.53	35.98	31.70	28.85	25.01	22.42	20.87	18.94	18.38	19.69	17.90	13.36	10.62	8.747	7.555	6.834	5.968	5.852	5.647	5.809	9.071	17.76	39.35	214.0	1157	3595	5399	2360	93.83	4.332	2.724	2.110	1.725	1.580	1.432	1.350	1.235	1.194	1.032	1.104	0.981
535.0	73.63	103.2	122.6	138.0	179.0	216.9	161.9	234.4	1330	6153	1667	158.4	128.5	112.5	98.29	86.40	76.90	71.18	66.97	64.91	61.50	60.73	60.69	59.89	58.55	58.28	58.08	58.15	58.45	58.70	56.37	53.81	47.99	45.85	41.56	37.89	32.89	30.99	27.43	25.78	22.56	19.89	18.51	16.75	15.32	15.20	16.41	14.71	10.58	7.969	6.860	6.368	5.620	5.291	5.406	4.884	5.619	7.206	12.20	51.04	260.9	808.1	1907	5432	1837	28.34	3.635	2.568	1.980	1.620	1.416	1.259	1.196	1.024	1.094	0.903	0.926
540.0	64.57	91.09	104.1	114.8	135.1	207.1	165.6	158.1	421.3	4095	5105	208.7	116.0	101.3	86.76	75.32	67.48	61.67	59.51	55.80	53.62	52.60	52.71	52.71	51.02	51.16	51.15	51.26	51.64	51.87	49.43	47.40	42.87	40.74	36.24	33.24	29.29	27.91	24.90	22.61	20.76	18.00	16.54	14.72	13.90	12.64	13.81	14.22	10.79	7.834	6.864	5.828	5.372	4.907	4.981	4.994	4.432	4.588	5.520	14.47	61.00	183.6	439.8	2303	5214	1640	23.06	3.201	2.292	1.728	1.496	1.235	1.148	1.249	1.056	0.859	0.974
545.0	58.45	76.69	95.71	97.00	108.1	172.4	177.8	131.3	194.8	1650	7215	1013	106.7	91.58	77.92	67.26	60.33	56.04	52.52	49.70	48.04	46.02	45.84	45.23	45.81	45.86	44.96	45.39	44.96	44.80	43.89	40.32	37.32	34.46	32.21	29.53	26.47	24.74	22.45	19.92	18.14	16.13	15.06	13.29	12.74	11.06	10.88	12.61	11.44	8.244	6.290	5.252	4.891	4.475	4.221	4.566	4.452	3.770	3.853	5.748	16.14	43.84	101.7	546.7	2651	5115	1317	16.78	2.863	1.910	1.537	1.274	1.141	1.090	1.100	0.808	0.881
550.0	57.20	69.74	87.00	87.85	91.76	119.3	173.1	121.6	123.8	479.4	4601	4458	268.4	80.21	65.83	56.19	51.15	45.98	44.17	41.96	39.70	38.25	38.24	37.71	37.70	36.99	37.87	37.31	37.55	37.42	35.89	34.33	31.39	29.16	26.99	24.80	22.32	20.78	18.94	17.13	15.29	14.25	13.00	11.86	10.75	9.796	9.408	9.500	10.11	8.493	6.327	4.805	4.347	3.984	3.745	3.754	3.972	3.639	3.255	3.506	5.881	12.06	25.14	124.8	629.1	2233	3572	1703	104.6	4.057	1.870	1.439	1.128	1.040	0.940	0.799	0.750
555.0	61.19	69.78	74.39	77.90	77.37	85.80	143.6	137.7	94.68	176.8	1323	6333	1172	72.83	55.62	48.17	42.83	37.54	34.85	34.47	32.88	31.70	30.94	30.36	30.40	30.33	30.01	30.14	29.85	30.06	29.84	26.97	25.52	23.03	21.75	19.75	18.41	17.19	15.67	14.36	13.04	11.83	11.25	10.04	9.064	8.375	7.683	7.364	7.537	7.689	6.523	4.835	3.846	3.514	3.290	3.230	3.362	3.432	3.241	2.778	3.193	4.698	7.750	29.81	142.4	500.5	1081	3018	1868	30.62	3.251	1.777	1.278	1.089	0.870	0.850	0.757
560.0	54.48	59.57	65.29	67.86	67.48	69.15	102.8	144.1	86.31	100.0	367.3	4221	4247	124.2	48.56	40.74	37.14	31.76	30.19	28.17	27.59	25.71	26.06	25.95	26.12	25.00	24.73	25.32	24.91	25.78	24.48	22.99	21.45	19.74	18.59	16.96	15.60	14.46	13.43	11.79	10.94	9.991	9.478	8.624	8.168	7.579	6.435	6.110	5.961	6.174	6.479	5.000	3.571	3.426	2.833	2.956	2.964	2.867	3.078	2.668	2.536	2.941	3.641	8.502	33.64	113.8	246.7	1113	3287	1612	25.50	2.426	1.442	1.115	0.897	0.791	0.788
565.0	50.30	57.55	59.81	58.49	57.96	57.67	75.57	140.4	92.06	77.22	138.9	1626	6323	661.2	43.85	35.42	32.60	28.78	25.89	24.15	23.78	22.54	22.16	22.01	21.77	20.87	21.12	21.69	21.77	21.59	21.27	19.44	18.35	16.46	15.96	14.40	13.76	12.24	11.42	10.19	9.847	8.847	7.952	7.573	7.339	6.600	5.829	5.552	4.723	4.730	5.538	5.237	3.679	3.006	2.727	2.581	2.636	2.388	2.686	2.865	2.528	2.269	2.454	3.677	9.311	27.15	57.32	258.2	1411	3111	1188	18.52	1.989	1.162	0.894	0.738	0.747
570.0	52.24	62.57	62.17	52.01	47.56	49.59	54.17	102.8	113.5	68.49	80.26	442.9	4125	3584	86.69	30.80	26.44	23.33	21.49	19.88	19.57	18.31	18.30	17.90	17.55	17.37	17.12	17.16	17.76	17.46	16.98	15.94	14.55	13.66	12.65	11.64	10.98	9.704	9.311	8.672	7.853	7.313	6.821	6.478	6.049	5.239	4.940	4.525	4.043	3.866	3.917	4.570	3.813	2.844	2.533	2.368	2.335	2.094	2.313	2.486	2.613	2.302	2.144	2.202	3.769	7.647	14.61	59.43	327.3	1181	2163	1076	105.6	3.108	1.099	0.890	0.774
575.0	44.36	55.02	59.31	51.33	43.36	44.67	47.56	62.04	120.4	74.88	65.87	144.5	1168	5358	796.3	29.87	22.44	19.63	17.83	16.53	16.07	15.02	14.62	14.51	14.06	14.45	13.89	13.67	14.46	13.54	13.25	12.85	11.70	11.01	10.22	9.300	8.852	8.052	7.882	7.152	6.433	5.841	5.734	5.118	4.918	4.362	4.105	3.702	3.372	3.166	3.020	3.331	3.629	3.127	2.461	2.007	2.074	1.955	1.965	1.899	2.242	2.432	2.108	1.804	2.339	3.249	4.800	14.93	74.86	264.9	594.7	1647	1618	31.15	2.438	1.114	0.847
580.0	49.72	53.23	59.29	45.40	40.42	38.25	41.12	47.01	102.4	93.64	59.18	76.19	313.9	3565	3412	68.70	20.06	17.54	15.75	14.10	13.62	13.11	12.19	12.03	12.25	11.74	11.92	11.34	12.19	11.50	11.07	10.72	9.809	9.396	8.509	8.190	7.424	6.829	6.359	6.092	5.514	5.001	4.817	4.198	4.257	3.769	3.689	3.219	2.659	2.691	2.648	2.707	3.026	3.015	2.382	2.039	1.830	1.788	1.916	1.695	1.931	2.119	2.399	1.924	1.967	2.057	2.518	4.683	18.35	60.57	135.0	539.8	1831	1266	26.86	1.541	0.997
585.0	50.42	61.63	59.63	48.00	36.42	34.01	36.76	41.63	74.55	110.8	63.20	61.89	108.8	1338	5213	415.3	18.81	15.76	13.97	12.64	11.76	11.59	10.74	10.63	10.48	9.881	10.00	9.850	10.42	10.22	9.650	8.779	9.003	8.266	7.347	6.996	6.490	5.817	5.475	5.229	4.464	4.431	3.971	3.716	3.639	3.525	3.238	2.933	2.704	2.369	2.190	2.115	2.350	2.741	2.503	1.880	1.716	1.678	1.760	1.532	1.773	1.756	2.243	1.951	1.765	1.758	1.783	2.236	5.631	14.80	31.62	123.8	682.9	1861	894.4	19.27	1.430
590.0	48.20	62.04	53.38	43.75	32.25	31.13	33.45	37.84	53.06	106.8	80.96	60.77	63.71	355.7	3421	2561	52.62	14.52	11.65	11.03	9.979	9.614	9.085	8.778	8.741	8.431	8.347	8.655	8.335	8.529	7.842	7.513	7.376	6.630	6.547	5.753	5.404	4.854	4.649	4.491	3.959	3.620	3.352	3.241	3.003	2.857	2.774	2.497	2.180	2.099	1.827	1.754	1.773	2.141	2.351	2.016	1.712	1.414	1.471	1.366	1.481	1.450	1.765	1.829	1.838	1.618	1.733	1.602	2.549	4.574	8.303	28.97	156.4	637.4	1283	791.5	107.8
595.0	43.69	56.01	55.12	41.23	32.24	28.40	32.92	37.43	45.77	83.93	105.2	64.24	57.86	111.6	965.6	4016	556.5	14.96	10.71	9.320	9.106	7.973	7.508	7.548	7.092	7.077	6.742	6.855	6.894	7.203	6.300	6.089	5.632	5.401	5.263	4.762	4.368	4.023	3.719	3.322	3.386	3.108	2.875	2.723	2.567	2.501	2.090	2.191	1.871	1.690	1.631	1.522	1.356	1.471	1.935	2.086	1.587	1.319	1.278	1.244	1.325	1.292	1.416	1.378	1.641	1.614	1.395	1.388	1.770	2.096	3.073	7.443	35.81	142.9	330.1	945.6	1114
600.0	45.68	53.49	51.37	42.56	31.34	29.31	34.50	37.19	44.07	65.19	114.4	73.24	60.38	60.59	253.7	2841	2331	36.09	10.40	8.482	7.853	7.076	6.933	6.486	6.390	6.167	5.696	5.979	5.821	6.131	5.668	5.223	4.951	4.496	4.183	4.064	3.722	3.339	3.131	2.965	2.852	2.605	2.470	2.587	2.238	2.029	1.914	1.926	1.592	1.533	1.377	1.378	1.142	1.399	1.446	1.944	1.656	1.458	1.268	1.136	1.320	1.043	1.278	1.402	1.626	1.606	1.442	1.407	1.532	1.463	1.763	2.633	8.773	32.86	74.97	294.9	1140
605.0	46.52	54.49	53.98	43.48	31.12	31.17	35.17	40.22	49.06	65.79	113.3	94.55	69.87	57.31	87.60	1130	3801	230.6	10.53	8.215	6.593	6.399	6.232	5.799	5.309	5.280	5.053	4.964	5.027	5.149	5.019	4.290	4.248	4.040	3.597	3.475	3.002	3.182	2.677	2.578	2.525	2.350	2.109	2.063	1.991	1.767	1.708	1.717	1.554	1.341	1.395	1.222	1.018	1.212	1.112	1.490	1.710	1.409	1.250	1.075	1.253	1.075	1.228	1.253	1.271	1.526	1.622	1.348	1.533	1.219	1.382	1.440	2.826	8.034	17.75	67.45	403.4
610.0	46.14	59.71	56.76	44.64	33.41	34.06	40.72	46.77	62.95	78.93	113.5	136.2	92.26	69.45	63.06	307.0	2744	1506	31.60	7.695	6.337	5.457	5.303	4.752	4.625	4.405	4.508	4.270	4.125	4.228	3.988	3.624	3.593	3.218	3.148	2.896	2.736	2.622	2.493	2.315	2.107	1.881	1.793	1.601	1.687	1.646	1.501	1.467	1.435	1.140	1.116	1.066	1.037	0.966	0.991	1.117	1.452	1.442	1.215	1.056	1.174	1.118	1.246	1.166	1.295	1.312	1.601	1.488	1.572	1.418	1.363	1.329	1.526	2.594	4.768	15.91	92.23
615.0	47.77	62.07	59.03	50.06	31.60	32.63	44.04	53.43	65.97	83.02	107.1	145.7	112.0	76.97	61.62	100.3	825.5	2954	378.4	7.981	6.070	4.971	4.569	4.027	3.981	3.929	3.809	3.725	3.607	3.790	3.498	3.010	3.100	2.735	2.623	2.654	2.443	2.120	2.128	2.023	1.676	1.536	1.695	1.336	1.441	1.308	1.228	1.238	1.102	1.106	0.929	0.997	0.804	0.842	0.806	0.915	1.098	1.340	1.363	1.170	1.150	1.111	1.242	1.109	1.236	1.303	1.374	1.622	1.725	1.450	1.199	1.275	1.140	1.275	1.728	4.227	21.25
620.0	45.70	63.90	65.10	45.59	34.91	32.96	42.12	52.90	65.20	81.15	102.8	135.4	123.7	81.81	60.12	53.66	223.1	2288	1497	18.44	5.711	4.934	4.360	4.168	3.691	3.447	3.559	3.093	3.083	3.196	3.096	2.731	2.617	2.369	2.229	2.050	1.982	1.826	1.914	1.684	1.586	1.327	1.509	1.327	1.257	1.166	1.049	1.139	1.069	0.954	0.815	0.852	0.724	0.778	0.720	0.837	0.927	1.098	1.204	1.147	1.123	1.034	1.144	1.071	1.186	1.221	1.206	1.407	1.641	1.580	1.200	1.131	1.129	1.105	0.934	1.559	5.315
625.0	55.65	58.94	67.36	44.24	33.95	34.24	42.34	52.05	64.45	81.79	100.1	119.3	128.7	86.35	60.51	41.67	75.20	994.8	2641	64.56	5.672	4.479	4.113	3.949	3.276	2.981	3.005	2.723	2.766	2.834	2.741	2.501	2.284	2.305	2.108	1.815	1.784	1.641	1.567	1.358	1.436	1.132	1.252	1.201	1.001	1.112	1.035	1.033	1.029	0.957	0.824	0.801	0.767	0.751	0.692	0.738	0.828	0.965	1.131	1.081	1.116	0.899	1.020	1.133	1.124	1.063	1.084	1.342	1.474	1.482	1.253	1.065	0.961	0.922	0.889	0.945	1.852
630.0	48.93	61.26	69.07	47.97	34.36	34.97	44.36	49.40	64.15	81.84	98.56	111.3	127.4	95.03	62.46	39.92	42.06	262.5	2094	1120	19.77	4.472	3.908	3.456	2.978	2.568	2.602	2.509	2.391	2.433	2.364	2.167	2.058	1.948	1.790	1.625	1.506	1.469	1.382	1.277	1.217	1.010	1.058	1.053	0.980	0.998	0.932	0.912	0.874	0.827	0.763	0.708	0.718	0.687	0.674	0.734	0.744	0.850	0.903	1.054	1.114	0.937	0.951	1.015	1.023	1.046	1.038	1.087	1.315	1.220	1.326	1.079	0.958	0.910	0.808	0.759	0.885
635.0	52.89	63.11	66.75	48.28	34.15	33.30	42.22	53.19	64.14	82.68	98.15	111.5	116.4	107.5	68.79	41.86	34.76	72.40	667.1	2434	254.9	5.122	3.918	3.416	3.032	2.612	2.275	2.196	1.979	2.194	1.945	1.819	1.845	1.565	1.658	1.434	1.336	1.258	1.209	1.035	1.105	1.052	0.903	0.919	0.901	0.920	0.911	0.975	0.855	0.753	0.659	0.689	0.603	0.713	0.695	0.658	0.556	0.757	0.697	0.835	1.003	0.936	0.900	0.892	0.943	0.966	1.036	1.044	1.100	1.057	1.173	0.969	0.877	0.834	0.789	0.634	0.631
640.0	50.21	68.74	66.10	47.00	37.08	32.61	44.01	55.42	62.05	82.43	98.74	111.6	110.3	110.5	74.41	41.06	32.54	29.29	171.1	2066	1047	9.878	3.917	2.890	2.887	2.381	1.990	1.785	1.850	1.906	1.867	1.591	1.597	1.389	1.366	1.446	1.285	1.208	1.120	0.935	0.991	1.018	0.897	0.874	0.868	1.016	0.872	0.916	0.808	0.713	0.622	0.686	0.591	0.653	0.720	0.675	0.600	0.781	0.715	0.788	0.798	0.773	0.855	0.822	0.975	0.924	1.014	0.958	1.060	0.952	1.076	1.067	0.920	0.737	0.689	0.556	0.584
645.0	51.38	75.91	71.39	48.84	36.86	33.51	43.20	52.30	64.18	82.85	94.96	109.6	106.9	104.0	79.84	41.86	31.53	20.27	45.78	986.1	2031	46.63	4.489	2.909	2.604	2.427	1.969	1.888	1.762	1.754	1.813	1.553	1.447	1.438	1.441	1.459	1.143	1.221	1.085	0.987	0.962	0.809	0.832	0.858	0.845	0.866	0.803	0.851	0.754	0.719	0.593	0.617	0.561	0.676	0.610	0.674	0.652	0.613	0.652	0.666	0.730	0.795	0.957	0.926	0.829	0.906	0.943	0.909	0.944	0.832	0.814	1.023	0.934	0.728	0.613	0.614	0.549
650.0	61.45	77.82	84.61	52.49	31.56	35.56	38.40	46.67	61.48	78.89	93.80	106.4	101.7	96.10	83.16	42.07	30.77	17.06	17.11	293.5	2228	369.5	5.364	3.382	2.658	2.241	2.095	1.725	1.731	1.710	1.746	1.602	1.330	1.502	1.428	1.408	1.233	1.153	1.054	0.883	0.883	0.796	0.961	0.831	0.814	0.829	0.841	0.802	0.793	0.728	0.607	0.636	0.534	0.699	0.580	0.682	0.646	0.559	0.713	0.721	0.663	0.687	0.796	0.826	0.810	0.908	0.812	0.904	0.968	0.912	0.930	0.886	0.903	0.734	0.686	0.635	0.544
