Sample:	'1
File name:	H2025082704养鸡场旁上游.FD3
Run date:	'20:19:58, 08/27/2025
Operator:	Administrator
Comment:	'

Instrument
Model:	F-2700 FL Spectrophotometer
Serial number:	23C7-003
ROM Version:	4J14000 07

Instrument parameters
Measurement type:	3-D scan
Data mode:	Fluorescence
EX  Start WL:	220.0 nm
EX  End WL:	600.0 nm
EX Sampling interval:	5.0 nm
EM  Start WL:	230.0 nm
EM  End WL:	650.0 nm
EM Sampling interval:	5.0 nm
Scan speed:	12000 nm/min
EX Slit:	5.0 nm
EM Slit:	5.0 nm
PMT Voltage:	700 V
Response:	Auto 
Corrected spectra:	Off
Contour interval:	50.000

Peak integration
Integration method:	Rectangular
Sensitivity:	1
Threshold:	1.000

Peaks
No.	ApexEX/EM(nm)	Height(Data)
1	225.0/640.0	18.60
2	245.0/405.0	1460
3	250.0/410.0	1467
4	255.0/285.0	203.3
5	260.0/290.0	226.2
6	270.0/300.0	588.0
7	275.0/310.0	747.0
8	275.0/610.0	70.59
9	280.0/315.0	765.8
10	280.0/625.0	58.67
11	285.0/320.0	737.9
12	285.0/640.0	41.65
13	320.0/405.0	1401

Data points
	220.0	225.0	230.0	235.0	240.0	245.0	250.0	255.0	260.0	265.0	270.0	275.0	280.0	285.0	290.0	295.0	300.0	305.0	310.0	315.0	320.0	325.0	330.0	335.0	340.0	345.0	350.0	355.0	360.0	365.0	370.0	375.0	380.0	385.0	390.0	395.0	400.0	405.0	410.0	415.0	420.0	425.0	430.0	435.0	440.0	445.0	450.0	455.0	460.0	465.0	470.0	475.0	480.0	485.0	490.0	495.0	500.0	505.0	510.0	515.0	520.0	525.0	530.0	535.0	540.0	545.0	550.0	555.0	560.0	565.0	570.0	575.0	580.0	585.0	590.0	595.0	600.0
230.0	19.30	555.0	1094	256.2	7.918	3.248	2.996	2.428	2.485	2.338	2.325	2.467	2.215	2.463	2.131	1.948	1.838	1.787	1.680	1.506	1.542	1.488	1.373	1.318	1.211	1.062	0.919	0.930	0.846	0.838	0.717	0.726	0.605	0.562	0.498	0.366	0.386	0.334	0.312	0.268	0.262	0.255	0.241	0.216	0.207	0.249	0.830	2.748	4.395	3.099	0.808	0.192	0.106	0.092	0.116	0.128	0.102	0.096	0.066	0.092	0.069	0.091	0.062	0.071	0.071	0.076	0.062	0.088	0.064	0.063	0.028	0.057	0.060	0.056	0.078	0.044	0.043
235.0	15.75	163.0	993.4	1555	343.9	10.17	2.748	2.668	3.094	2.797	2.848	2.759	2.162	2.515	2.036	1.932	2.015	1.984	1.773	1.462	1.624	1.368	1.596	1.253	1.211	1.187	1.077	0.923	0.839	0.833	0.857	0.819	0.570	0.559	0.469	0.451	0.396	0.386	0.313	0.331	0.280	0.178	0.263	0.270	0.246	0.206	0.357	0.876	2.285	4.633	5.992	5.154	1.839	0.234	0.098	0.140	0.055	0.093	0.088	0.101	0.083	0.081	0.096	0.130	0.080	0.116	0.071	0.035	0.032	0.090	0.108	0.050	0.085	0.042	0.050	0.070	0.032
240.0	26.82	51.03	358.3	1739	1956	259.2	5.885	3.294	3.193	3.283	3.052	3.180	2.965	2.347	2.857	2.058	2.220	1.845	1.687	1.830	1.565	1.581	1.515	1.274	1.155	1.325	0.959	0.891	0.773	0.812	0.797	0.757	0.657	0.588	0.479	0.463	0.416	0.346	0.251	0.292	0.321	0.241	0.234	0.234	0.234	0.225	0.310	0.343	0.703	1.796	4.371	9.352	10.04	5.514	1.229	0.126	0.084	0.120	0.094	0.070	0.080	0.124	0.110	0.063	0.087	0.072	0.109	0.063	0.046	0.055	0.088	0.090	0.032	0.029	0.094	0.073	0.023
245.0	33.76	47.09	94.33	742.2	2661	2089	176.7	6.508	3.701	3.744	3.459	3.309	3.082	2.702	2.514	2.126	2.316	1.859	1.784	1.883	1.653	1.608	1.414	1.591	1.366	1.097	1.130	0.946	0.803	0.798	0.710	0.682	0.651	0.615	0.502	0.466	0.366	0.304	0.333	0.247	0.276	0.215	0.238	0.241	0.189	0.236	0.360	0.323	0.305	0.535	1.298	4.422	10.38	13.92	10.89	4.280	0.644	0.126	0.088	0.080	0.106	0.120	0.093	0.069	0.068	0.105	0.060	0.063	0.062	0.059	0.058	0.076	0.047	0.039	0.064	0.091	0.041
250.0	14.63	43.09	73.54	191.8	997.3	2800	2964	765.5	30.99	6.079	4.647	4.083	3.381	3.074	2.601	2.612	2.360	2.220	1.960	1.840	1.746	1.657	1.451	1.503	1.399	1.257	1.093	0.979	1.043	0.955	0.673	0.671	0.656	0.521	0.486	0.406	0.446	0.377	0.303	0.269	0.262	0.233	0.263	0.234	0.213	0.219	0.277	0.333	0.348	0.340	0.430	1.113	2.942	6.240	10.90	14.48	15.31	10.71	4.148	0.746	0.163	0.095	0.125	0.118	0.096	0.088	0.079	0.054	0.094	0.091	0.081	0.073	0.068	0.143	0.063	0.041	0.053
255.0	10.69	14.37	63.86	112.2	244.6	767.1	3271	4875	1108	23.54	7.128	5.537	4.376	3.297	3.168	2.716	2.314	2.605	1.890	1.751	1.893	1.673	1.609	1.398	1.265	1.391	1.168	1.127	1.131	1.019	0.909	0.743	0.700	0.470	0.529	0.446	0.396	0.338	0.361	0.295	0.281	0.324	0.318	0.284	0.209	0.205	0.235	0.248	0.296	0.454	0.465	0.625	0.820	1.512	2.585	4.334	10.40	22.03	25.47	17.53	4.850	0.507	0.090	0.143	0.080	0.099	0.053	0.094	0.079	0.049	0.090	0.064	0.130	0.133	0.060	0.040	0.061
260.0	9.914	8.563	27.94	99.11	116.5	188.0	1109	5121	5192	205.0	13.67	6.530	5.325	4.406	3.430	2.473	2.629	2.604	2.171	2.086	2.018	1.850	1.632	1.591	1.479	1.301	1.165	1.329	1.039	0.977	0.956	0.730	0.714	0.617	0.487	0.484	0.379	0.357	0.422	0.308	0.351	0.348	0.298	0.242	0.181	0.235	0.201	0.185	0.179	0.258	0.423	0.669	0.613	0.580	0.742	1.123	2.687	7.692	19.76	32.48	25.25	14.47	2.528	0.251	0.102	0.139	0.135	0.112	0.122	0.097	0.101	-0.001	0.084	0.071	0.087	0.069	0.099
265.0	11.51	11.21	12.18	54.37	122.2	84.66	267.7	2035	6860	4757	155.7	10.26	6.574	5.349	4.151	3.399	2.738	2.590	2.368	2.328	2.020	1.669	1.770	1.450	1.497	1.389	1.216	1.183	1.094	1.072	1.022	0.787	0.760	0.654	0.500	0.507	0.472	0.356	0.455	0.393	0.410	0.277	0.355	0.268	0.253	0.161	0.166	0.189	0.169	0.142	0.242	0.472	0.705	0.736	0.472	0.414	0.758	1.848	5.294	14.41	29.78	41.13	22.99	9.594	1.069	0.106	0.096	0.150	0.112	0.086	0.166	0.077	0.076	0.046	0.119	0.036	0.100
270.0	13.43	10.06	9.719	20.69	68.77	122.3	119.0	485.8	2469	6680	5594	675.2	37.34	7.508	5.340	4.314	3.389	3.043	2.590	2.412	2.300	1.894	1.833	1.654	1.521	1.477	1.310	1.273	1.105	1.153	1.035	0.856	0.789	0.752	0.522	0.485	0.511	0.378	0.438	0.314	0.386	0.327	0.302	0.275	0.282	0.245	0.188	0.224	0.186	0.171	0.175	0.295	0.370	0.499	0.695	0.692	0.566	0.670	1.385	3.412	8.066	17.72	28.51	39.39	36.57	15.09	6.741	0.959	0.155	0.128	0.096	0.109	0.092	0.102	0.080	0.076	0.096
275.0	19.52	12.38	10.17	10.13	23.31	74.64	172.3	169.3	568.7	1791	7176	9713	962.4	32.58	9.048	5.967	4.487	3.674	2.971	2.806	2.548	2.165	1.883	1.828	1.817	1.779	1.436	1.283	1.193	1.108	0.979	0.898	0.947	0.742	0.673	0.558	0.477	0.430	0.429	0.336	0.310	0.265	0.334	0.290	0.241	0.258	0.216	0.187	0.229	0.196	0.142	0.191	0.246	0.252	0.326	0.533	0.917	0.964	0.692	0.923	1.916	4.094	6.642	10.88	24.00	50.96	62.42	23.15	7.268	0.656	0.140	0.160	0.115	0.156	0.108	0.088	0.122
280.0	19.98	19.51	16.09	12.55	12.10	30.23	133.7	193.8	166.8	427.2	2311	9999.9	8341	664.7	16.49	7.608	5.786	4.172	3.444	3.218	2.883	2.378	2.006	2.170	1.942	1.710	1.358	1.527	1.468	1.063	0.989	0.920	0.835	0.899	0.619	0.656	0.455	0.464	0.424	0.352	0.376	0.323	0.340	0.312	0.269	0.216	0.305	0.254	0.267	0.183	0.176	0.165	0.197	0.226	0.167	0.325	0.568	0.984	1.165	0.726	0.703	1.056	1.754	2.664	5.868	16.95	44.73	70.31	28.96	18.35	2.925	0.250	0.184	0.152	0.114	0.114	0.196
285.0	30.53	30.66	26.17	17.17	12.80	17.62	60.53	203.3	161.4	136.5	574.2	3825	9999.9	6410	99.72	11.90	7.139	5.226	4.004	3.343	3.033	2.604	2.562	2.299	1.885	1.792	1.598	1.591	1.456	1.174	1.195	0.915	0.925	0.902	0.664	0.693	0.506	0.530	0.436	0.372	0.406	0.283	0.339	0.373	0.278	0.292	0.370	0.248	0.259	0.235	0.214	0.165	0.284	0.224	0.227	0.217	0.281	0.467	0.972	1.320	0.950	0.652	0.631	0.807	1.589	4.135	11.69	29.56	57.45	83.15	26.48	11.89	1.165	0.282	0.219	0.198	0.179
290.0	53.77	67.85	60.92	41.34	26.79	25.10	38.67	107.4	226.2	192.6	248.0	989.2	3843	9999.9	9478	1564	30.49	8.432	5.951	4.328	3.488	3.016	2.774	2.512	2.122	1.927	1.736	1.761	1.632	1.357	1.193	1.126	1.073	0.916	0.743	0.734	0.654	0.614	0.491	0.456	0.423	0.382	0.375	0.382	0.363	0.387	0.429	0.405	0.442	0.339	0.242	0.289	0.292	0.257	0.282	0.265	0.263	0.314	0.495	0.763	1.123	1.407	1.188	0.924	0.937	1.562	3.345	7.443	15.48	34.21	49.71	71.10	59.20	17.23	8.349	1.292	0.240
295.0	99.03	116.7	109.7	77.87	49.05	44.24	55.82	86.45	164.1	362.1	381.3	467.0	1085	2647	9964	9999.9	590.2	33.21	8.689	6.304	4.542	3.910	3.442	2.979	2.479	2.280	2.281	1.817	1.770	1.631	1.304	1.098	1.045	0.862	0.948	0.770	0.696	0.721	0.643	0.481	0.508	0.423	0.454	0.452	0.480	0.545	0.493	0.601	0.660	0.524	0.363	0.451	0.330	0.288	0.341	0.375	0.359	0.388	0.457	0.656	0.681	1.047	1.681	2.188	1.857	1.477	1.796	2.833	4.525	8.676	11.99	19.08	37.40	84.99	107.6	26.47	10.89
300.0	123.4	166.9	149.3	105.3	64.52	63.94	73.82	105.3	165.2	330.0	588.0	488.6	547.2	797.8	2876	9999.9	9999.9	465.1	19.68	8.813	6.592	4.848	3.883	3.336	2.697	2.315	2.262	1.908	1.944	1.663	1.462	1.183	1.052	1.004	1.013	0.782	0.791	0.841	0.725	0.562	0.573	0.471	0.506	0.471	0.602	0.655	0.713	0.733	0.799	0.654	0.451	0.506	0.427	0.377	0.417	0.384	0.447	0.463	0.513	0.673	0.729	1.011	1.469	1.934	2.791	2.628	2.264	2.230	2.626	3.394	3.948	5.352	9.422	25.87	68.33	114.3	112.6
305.0	137.9	198.0	184.9	127.1	87.13	81.75	93.45	131.5	187.0	313.2	579.9	702.4	519.8	441.2	783.8	3505	9999.9	4441	66.39	14.17	8.359	6.119	4.414	3.528	3.209	2.749	2.288	2.077	1.977	1.668	1.533	1.254	1.427	1.145	0.938	0.740	0.866	0.763	0.713	0.653	0.619	0.484	0.557	0.558	0.652	0.746	0.842	0.773	0.947	0.681	0.558	0.487	0.544	0.473	0.544	0.550	0.632	0.566	0.663	0.835	0.907	1.131	1.421	1.850	2.290	3.224	3.515	2.996	2.691	2.626	2.394	2.568	3.168	6.540	16.93	41.76	101.3
310.0	160.6	224.9	223.5	160.1	109.3	97.83	121.3	161.6	227.2	346.8	525.9	747.0	743.2	461.4	365.8	889.8	3441	9999.9	9999.9	1474	27.06	9.315	6.231	4.811	3.794	3.116	2.638	2.362	2.081	1.952	1.726	1.453	1.475	1.160	0.962	0.871	0.850	0.836	0.724	0.702	0.670	0.623	0.604	0.616	0.732	0.845	0.912	0.952	0.921	0.781	0.668	0.722	0.680	0.570	0.625	0.625	0.707	0.774	0.845	0.993	1.163	1.341	1.578	1.811	2.291	2.832	3.330	3.768	3.798	3.247	2.554	2.081	1.979	2.406	4.505	9.990	25.08
315.0	183.5	258.1	246.9	182.4	133.6	124.0	141.9	190.3	262.8	378.7	525.3	655.7	765.8	665.6	350.0	338.3	848.4	2394	8511	9999.9	432.9	31.88	9.282	6.699	5.053	3.973	3.086	2.921	2.265	2.061	1.802	1.634	1.441	1.259	1.173	1.005	0.891	0.840	0.857	0.811	0.651	0.622	0.636	0.615	0.741	0.886	0.969	1.034	1.008	0.862	0.769	0.807	0.703	0.658	0.639	0.700	0.792	0.951	0.931	1.147	1.258	1.484	1.840	1.911	2.311	2.690	2.945	3.148	3.583	4.315	3.820	2.693	2.041	1.831	1.884	2.989	6.335
320.0	202.4	265.4	269.1	194.8	148.0	141.3	166.9	217.2	291.7	406.2	547.7	660.2	693.4	737.9	478.7	257.0	297.0	603.0	2214	9999.9	9999.9	383.2	22.52	9.008	6.630	4.753	3.624	3.378	2.693	2.335	2.274	1.804	1.518	1.319	1.188	1.087	0.949	0.818	0.828	0.745	0.600	0.676	0.723	0.693	0.725	0.827	1.012	1.134	1.229	0.944	0.872	0.873	0.939	0.699	0.770	0.715	0.779	1.026	1.045	1.169	1.398	1.610	1.799	2.241	2.593	2.742	2.868	3.177	3.321	3.703	3.992	3.989	3.062	2.132	1.585	1.717	2.330
325.0	205.3	286.6	305.5	230.2	178.3	173.9	199.2	245.9	317.9	432.0	563.6	670.5	689.1	660.2	618.2	334.3	210.9	226.6	557.0	2887	9999.9	9999.9	312.1	15.35	8.367	5.490	4.643	3.608	3.096	2.667	2.252	2.043	1.676	1.264	1.222	1.184	1.020	0.948	0.834	0.802	0.689	0.717	0.754	0.710	0.803	0.934	1.078	1.228	1.155	1.066	0.963	0.958	1.008	0.848	0.887	0.878	0.999	1.109	1.085	1.231	1.482	1.641	1.991	2.424	2.733	2.972	3.111	3.177	3.208	3.442	3.563	3.481	4.059	3.148	2.311	1.616	1.766
330.0	226.3	336.5	376.6	305.5	254.9	249.0	273.8	303.6	373.3	479.0	599.4	697.4	713.0	649.4	588.1	507.7	317.0	198.9	226.8	718.8	2899	9999.9	9999.9	1443	26.43	9.121	6.150	4.479	3.594	2.974	2.545	2.132	1.749	1.499	1.206	1.142	1.097	0.959	0.885	0.786	0.784	0.692	0.741	0.801	0.885	1.088	1.104	1.310	1.429	1.297	1.124	1.247	1.253	1.217	1.197	1.262	1.377	1.448	1.395	1.691	1.844	1.889	2.235	2.487	2.837	3.043	3.113	3.356	3.571	3.499	3.429	3.398	3.579	3.381	3.200	2.906	2.366
335.0	266.1	399.1	438.2	404.5	374.4	382.3	379.6	413.3	456.6	547.1	645.8	734.2	755.6	703.1	597.5	515.9	499.7	314.3	214.8	279.6	735.3	2341	6363	9999.9	2419	33.07	9.592	6.408	4.937	3.663	2.919	2.267	2.010	1.849	1.431	1.308	0.980	1.028	1.118	0.861	0.891	0.793	0.767	0.922	0.981	1.192	1.277	1.548	1.795	1.688	1.438	1.660	1.662	1.558	1.757	1.677	1.796	1.937	1.900	2.065	2.193	2.338	2.608	2.866	2.931	3.326	3.253	3.462	3.777	3.819	3.635	3.696	3.668	3.441	2.950	3.175	3.551
340.0	289.1	454.9	514.6	497.1	479.7	495.7	500.4	497.2	530.3	607.1	690.0	768.6	794.8	742.6	642.4	535.7	518.8	466.5	285.0	230.6	295.0	620.5	1615	8421	9999.9	1911	25.74	9.007	6.364	4.546	3.542	2.815	2.214	1.874	1.690	1.348	1.074	1.078	1.021	0.973	0.885	0.852	0.977	0.838	1.061	1.375	1.535	1.741	1.963	1.900	1.723	1.929	2.107	2.079	2.125	2.027	2.327	2.292	2.298	2.486	2.435	2.717	3.040	2.928	3.121	3.383	3.516	3.555	3.825	4.189	3.909	3.811	3.801	3.651	3.267	3.335	3.458
345.0	314.7	500.8	581.1	593.9	596.0	602.1	598.1	595.9	599.3	658.2	722.6	787.8	817.9	786.0	694.8	593.9	519.1	543.9	425.0	282.4	246.0	280.3	466.9	2263	9999.9	9999.9	318.8	18.50	8.078	5.813	4.067	3.020	2.504	2.054	1.825	1.516	1.239	1.170	1.150	0.974	0.892	0.871	1.025	1.075	1.062	1.367	1.579	1.863	1.948	2.098	1.964	2.238	2.566	2.437	2.690	2.350	2.566	2.542	2.709	2.749	2.795	3.009	3.186	3.321	3.100	3.501	3.554	3.669	4.004	4.170	3.997	4.138	3.928	3.656	3.682	3.493	3.597
350.0	351.8	542.1	669.0	705.0	737.1	756.5	737.7	715.3	695.5	728.8	773.9	818.2	853.3	837.1	764.0	678.2	598.4	566.5	561.6	453.1	342.3	291.3	283.5	639.0	2663	8378	9999.9	4027	26.52	9.197	5.898	4.052	2.999	2.389	1.997	1.748	1.335	1.226	1.233	1.151	0.990	0.948	0.993	1.143	1.284	1.472	1.802	2.102	2.285	2.317	2.391	2.768	2.870	2.972	3.268	3.074	3.202	3.180	3.169	3.099	3.281	3.177	3.321	3.462	3.555	3.611	3.808	3.825	4.137	4.301	4.547	4.398	4.318	4.163	4.087	4.175	4.206
355.0	396.3	593.1	756.3	802.1	868.1	898.6	900.3	826.5	793.9	809.2	824.3	863.3	896.6	887.1	840.9	772.2	705.4	656.6	627.9	632.3	539.8	409.2	340.8	362.4	750.5	1995	4962	9999.9	2429	33.90	9.477	6.406	4.349	2.904	2.428	1.937	1.580	1.304	1.215	1.285	1.156	1.010	1.114	1.118	1.310	1.640	2.063	2.313	2.436	2.657	2.490	3.125	3.299	3.581	3.814	3.642	3.853	3.658	3.668	3.825	3.634	3.782	3.700	3.669	3.636	3.882	4.063	3.795	4.450	4.292	4.582	4.517	4.798	4.540	4.594	4.384	4.952
360.0	418.3	633.0	783.6	896.9	972.8	995.6	990.7	924.0	872.4	881.1	885.4	900.1	936.6	939.1	899.9	844.6	783.3	749.3	710.4	697.6	693.9	553.6	435.5	371.6	386.3	598.4	1274	6638	9999.9	2015	27.21	8.545	5.300	3.675	2.742	2.188	1.845	1.597	1.440	1.268	1.178	1.008	1.129	1.251	1.349	1.758	2.118	2.499	2.743	2.707	2.875	3.480	3.981	4.048	4.173	3.995	4.240	4.044	4.095	4.070	4.053	4.256	3.875	3.948	3.931	3.963	4.150	3.975	4.290	4.474	4.949	4.762	5.258	4.954	5.225	5.105	5.356
365.0	426.9	676.2	836.0	953.8	1039	1083	1065	995.9	939.4	931.5	931.1	942.6	973.4	979.4	955.2	910.3	872.2	835.0	808.9	773.3	774.2	722.4	558.8	454.6	375.9	344.7	430.1	1754	8845	9999.9	317.1	19.48	7.156	4.493	3.428	2.427	1.888	1.639	1.541	1.248	1.267	1.165	1.102	1.214	1.501	1.826	2.133	2.478	2.793	2.866	3.118	3.900	4.218	4.177	4.415	4.325	4.699	4.543	4.286	4.385	4.258	4.301	4.121	4.238	4.162	4.073	4.388	4.220	4.541	4.601	5.091	4.886	5.382	5.217	5.253	5.721	5.864
370.0	444.6	695.7	892.2	1023	1125	1178	1161	1081	1028	1004	1001	1006	1034	1044	1032	999.8	977.0	965.3	944.0	908.1	876.6	863.0	777.1	616.1	490.3	390.4	322.3	548.0	2304	7463	9999.9	4011	24.56	7.704	4.452	3.147	2.298	2.037	1.642	1.522	1.454	1.315	1.264	1.402	1.601	1.937	2.181	2.581	3.071	3.080	3.270	4.062	4.286	4.625	4.662	4.707	5.171	4.811	4.707	4.598	4.809	4.599	4.507	4.420	4.449	4.390	4.621	4.635	4.761	4.844	5.272	5.415	5.916	5.725	5.675	6.328	6.508
375.0	471.1	725.8	959.5	1105	1203	1272	1243	1168	1103	1085	1065	1073	1088	1112	1098	1089	1077	1085	1075	1054	1015	974.0	935.4	839.6	647.5	506.3	390.7	355.5	673.8	1781	4459	9999.9	2250	30.04	7.540	4.622	3.231	2.405	2.043	1.686	1.406	1.512	1.415	1.414	1.678	2.085	2.215	2.962	3.328	3.253	3.378	4.197	4.773	4.961	5.043	5.192	5.358	5.182	5.157	5.139	5.115	5.054	4.928	4.589	4.586	4.740	4.697	4.911	5.212	5.306	5.368	5.940	6.063	6.274	6.297	6.656	6.828
380.0	492.7	735.3	987.8	1139	1254	1316	1292	1223	1161	1133	1114	1125	1135	1144	1152	1144	1153	1159	1157	1146	1112	1064	1012	962.3	795.2	610.2	475.5	372.6	360.1	540.5	1133	5917	9999.9	1794	22.61	6.607	4.121	2.847	2.331	1.812	1.568	1.467	1.508	1.540	1.717	2.015	2.329	3.008	3.351	3.242	3.675	4.530	5.057	5.087	5.316	5.258	5.406	5.282	5.049	5.545	5.363	5.233	5.334	4.843	4.922	4.781	4.811	5.115	5.209	5.489	5.830	6.220	6.258	6.436	6.791	7.211	7.443
385.0	494.7	769.2	1014	1161	1296	1340	1343	1268	1204	1173	1162	1167	1172	1177	1194	1184	1205	1225	1232	1228	1196	1151	1084	1024	929.5	722.9	564.2	439.5	345.2	307.7	379.3	1548	7532	9999.9	265.4	15.24	5.735	3.696	2.697	2.161	1.874	1.547	1.703	1.637	1.935	2.241	2.482	3.036	3.317	3.441	3.631	4.567	4.910	5.215	5.153	5.390	5.685	5.801	5.324	5.483	5.402	5.157	5.396	5.321	4.938	5.011	5.049	5.265	5.277	5.610	6.062	6.254	6.114	6.643	6.998	7.276	7.741
390.0	520.7	787.9	1045	1221	1325	1393	1386	1318	1262	1229	1220	1213	1215	1223	1234	1233	1259	1281	1300	1308	1280	1248	1190	1105	1017	890.9	707.1	553.8	431.3	336.5	275.7	473.2	1939	6203	8170	2890	19.96	6.268	3.719	2.745	2.240	1.943	1.774	1.777	2.132	2.227	2.432	3.230	3.544	3.615	3.728	4.718	4.980	5.564	5.517	5.536	5.694	5.818	5.471	5.656	5.470	5.557	5.604	5.471	5.340	5.337	5.311	5.496	5.684	5.761	5.983	6.267	6.789	6.887	7.276	7.730	8.158
395.0	535.3	827.6	1079	1241	1362	1430	1414	1376	1314	1281	1270	1256	1265	1260	1282	1274	1297	1326	1352	1360	1352	1328	1276	1197	1099	991.9	870.7	691.8	548.9	431.5	328.7	291.7	557.9	1473	3475	9396	1813	23.98	6.146	3.849	3.062	2.267	2.020	2.047	2.273	2.437	2.529	3.301	3.772	3.653	3.755	4.652	5.266	5.515	5.586	5.708	6.109	6.093	5.844	5.690	5.925	5.570	5.846	5.897	5.583	5.501	5.467	5.635	5.769	5.728	6.195	6.369	7.075	7.230	7.257	7.835	8.356
400.0	546.9	830.3	1075	1250	1372	1447	1441	1412	1356	1323	1307	1294	1291	1295	1299	1293	1313	1352	1364	1382	1384	1367	1324	1253	1158	1044	951.5	808.3	640.4	510.5	396.3	296.7	284.2	433.9	882.0	4843	8727	1420	17.59	5.529	3.732	2.815	2.222	2.318	2.206	2.420	2.713	3.413	3.747	3.735	4.046	4.690	5.172	5.656	5.777	5.765	6.105	6.288	6.168	6.036	6.204	5.907	5.979	5.841	5.789	5.733	5.531	5.586	5.630	6.126	6.037	6.522	6.947	7.427	7.385	7.633	8.246
405.0	551.3	850.4	1083	1274	1374	1460	1448	1406	1381	1347	1333	1322	1309	1306	1304	1301	1318	1361	1383	1399	1401	1391	1356	1292	1200	1089	989.2	894.5	734.1	587.0	459.4	343.7	260.9	230.9	287.5	1257	5865	7406	221.4	10.87	5.142	3.297	2.545	2.478	2.426	2.748	2.809	3.373	3.901	3.925	4.045	4.935	5.389	5.488	5.844	5.608	5.883	6.302	6.198	6.362	5.810	6.029	6.183	5.897	5.720	5.540	5.662	5.781	5.896	6.231	6.129	6.634	6.985	7.358	7.610	8.106	8.298
410.0	563.4	859.2	1107	1285	1383	1439	1467	1438	1412	1386	1366	1352	1323	1320	1303	1296	1314	1346	1375	1390	1394	1387	1368	1317	1241	1139	1036	942.4	843.6	695.8	549.7	417.7	310.0	231.5	188.7	363.6	1507	4689	5872	928.4	17.21	5.313	3.479	3.020	2.690	2.774	2.957	3.381	3.738	3.792	4.022	4.886	5.537	5.453	5.839	5.798	6.088	6.075	6.150	6.040	6.284	6.130	6.031	5.928	5.818	5.610	5.950	5.770	5.882	6.211	6.301	6.622	7.159	7.352	7.421	7.886	8.273
415.0	571.5	846.3	1092	1269	1385	1446	1463	1444	1430	1405	1382	1356	1330	1310	1284	1278	1286	1320	1336	1363	1369	1371	1353	1322	1252	1171	1078	975.2	896.4	808.4	642.4	495.8	375.2	276.7	205.3	193.9	413.0	1106	2740	6570	1550	20.18	5.535	3.790	3.327	3.098	2.907	3.537	3.779	3.872	4.022	4.690	5.495	5.487	6.043	5.657	5.884	6.289	6.095	6.116	6.372	6.076	6.206	6.148	5.803	5.850	5.743	5.826	6.036	6.047	6.294	6.618	6.866	7.305	7.352	7.854	8.412
420.0	564.6	824.2	1064	1262	1380	1421	1454	1435	1438	1407	1393	1364	1328	1303	1270	1255	1255	1281	1304	1324	1334	1343	1332	1301	1250	1176	1091	1003	916.6	846.9	711.2	548.5	420.9	316.3	235.0	179.7	187.1	311.6	694.1	3694	6691	228.9	13.91	5.061	3.767	3.469	3.161	3.451	3.839	3.753	4.084	4.591	5.446	5.278	5.593	5.695	5.954	6.190	6.085	6.235	6.149	6.223	5.981	6.187	6.098	6.181	5.744	5.914	6.153	6.213	6.415	6.649	6.780	7.291	7.013	7.849	8.487
425.0	519.9	809.4	1053	1240	1340	1403	1436	1424	1436	1401	1388	1346	1305	1284	1248	1228	1228	1245	1263	1283	1298	1305	1305	1282	1233	1168	1098	1015	932.9	859.7	759.4	599.5	466.6	353.4	266.0	196.6	155.2	148.5	210.2	979.9	4881	5018	192.8	8.452	4.960	3.920	3.517	3.597	3.830	3.872	3.972	4.828	5.347	5.571	5.484	5.630	5.935	6.135	6.113	5.936	6.269	6.324	5.833	5.941	5.864	6.166	5.748	5.908	6.039	6.240	6.158	6.452	6.648	6.900	6.735	7.627	7.996
430.0	512.0	798.6	1029	1205	1308	1388	1411	1416	1420	1397	1395	1352	1293	1259	1218	1188	1180	1199	1213	1231	1242	1252	1253	1240	1201	1152	1091	1022	954.8	870.8	780.4	662.1	523.8	399.0	308.1	233.7	178.2	137.5	121.8	271.9	1277	3595	4468	817.9	14.93	5.714	4.242	3.949	3.956	3.963	3.904	4.794	5.219	5.314	5.384	5.512	5.842	5.948	6.141	6.049	6.264	6.357	6.130	5.993	5.864	5.968	5.609	5.854	5.979	6.054	6.268	6.313	6.530	6.732	6.755	7.299	7.485
435.0	571.7	767.2	976.4	1161	1283	1370	1395	1414	1410	1401	1389	1340	1288	1234	1185	1150	1141	1146	1159	1175	1187	1191	1200	1193	1170	1125	1081	1022	964.7	888.2	793.9	691.8	583.2	451.7	353.6	273.5	212.6	161.3	125.0	133.1	336.9	849.5	2354	5541	1302	17.97	5.975	5.017	4.244	4.267	3.742	4.748	4.996	5.213	5.355	5.388	5.538	5.917	6.043	6.093	6.257	6.107	6.288	6.060	5.879	5.847	5.748	5.781	5.696	5.854	6.253	6.039	6.316	6.422	6.526	7.018	6.976
440.0	673.1	745.1	965.9	1119	1258	1349	1376	1401	1412	1400	1388	1326	1268	1209	1163	1121	1101	1110	1120	1126	1139	1147	1161	1156	1136	1106	1060	1012	960.6	893.1	805.3	702.3	606.6	495.4	386.0	304.5	238.8	183.1	143.7	116.5	139.5	236.2	605.1	3469	5442	209.1	11.48	6.291	5.115	4.378	3.900	4.729	4.947	5.033	5.251	5.152	5.812	5.633	5.940	6.184	6.354	6.222	5.942	6.119	5.684	5.718	5.857	5.511	5.818	5.714	6.088	6.015	6.129	6.280	6.413	6.607	6.819
445.0	740.9	792.8	949.8	1102	1232	1306	1343	1371	1386	1381	1382	1316	1252	1184	1139	1086	1065	1067	1074	1086	1094	1100	1113	1117	1096	1069	1039	993.2	954.8	897.0	813.5	711.0	611.0	522.1	415.7	326.7	262.3	204.8	159.8	125.3	107.3	109.8	177.7	956.9	4371	4317	152.0	8.958	5.914	4.699	4.192	4.741	5.005	5.005	5.430	5.165	5.749	5.755	5.853	6.130	5.993	6.123	6.152	5.756	5.555	5.705	5.735	5.456	5.718	5.596	5.894	5.917	5.908	5.914	6.265	6.274	6.731
450.0	636.3	1040	946.4	1042	1181	1242	1293	1311	1331	1334	1336	1276	1212	1148	1082	1031	1008	1002	1011	1009	1015	1032	1042	1049	1035	1011	986.0	953.1	922.9	874.7	800.7	708.6	609.5	525.1	446.7	357.1	287.4	231.0	184.1	146.0	116.8	97.32	95.17	255.6	1179	3345	3037	699.0	13.22	5.711	4.703	4.947	5.119	4.866	5.162	4.951	5.298	5.604	5.477	5.701	5.836	5.680	6.003	5.609	5.553	5.525	5.448	5.485	5.392	5.457	5.823	5.636	5.653	5.745	6.035	6.021	6.337
455.0	480.2	1146	1155	995.7	1096	1170	1219	1253	1265	1278	1265	1223	1153	1079	1017	967.2	934.6	929.3	928.5	922.5	931.0	946.0	954.0	960.9	954.2	936.4	918.1	893.1	868.5	833.0	774.8	689.7	600.1	517.2	448.6	383.8	312.5	250.2	204.3	166.6	134.5	108.1	88.58	109.6	302.2	786.8	1936	4376	1003	13.07	5.613	5.287	4.904	4.958	5.085	4.748	5.131	5.317	5.254	5.404	5.502	5.400	5.596	5.479	5.481	5.249	5.364	5.258	5.332	5.176	5.321	5.014	5.267	5.442	5.446	5.710	5.907
460.0	390.8	958.1	1520	998.3	1034	1102	1159	1193	1217	1230	1215	1165	1100	1032	958.7	911.6	882.1	867.8	869.9	862.7	868.9	878.5	885.9	897.9	886.6	874.4	861.4	843.3	822.5	798.9	742.2	670.5	588.3	507.6	442.6	385.4	326.2	263.9	215.6	177.4	146.7	117.7	94.70	82.95	111.9	208.4	499.1	2764	3927	157.9	9.091	5.702	5.073	4.971	4.901	4.792	4.891	5.005	5.196	5.149	5.277	5.423	5.400	5.211	5.488	5.036	5.227	5.056	5.042	4.873	5.177	5.019	5.084	5.332	5.362	5.482	5.484
465.0	376.3	710.7	1728	1199	991.6	1040	1092	1142	1160	1164	1163	1120	1044	980.2	911.2	858.9	826.6	816.3	812.2	805.2	807.9	817.9	829.2	829.5	828.4	814.9	808.9	793.9	777.9	759.8	711.3	643.8	570.1	495.2	432.6	376.8	334.1	274.7	224.2	186.5	155.6	126.5	102.7	82.82	74.68	83.96	139.1	757.0	3227	2912	120.4	7.531	5.528	4.968	4.684	4.718	4.803	4.743	4.915	4.963	5.155	5.067	4.935	5.078	5.238	5.046	4.997	4.927	4.603	4.716	4.548	4.930	5.126	4.834	5.060	5.191	5.475
470.0	344.9	555.9	1255	1810	1016	955.2	1006	1049	1078	1087	1084	1045	972.6	906.6	839.1	790.7	756.6	740.3	733.5	727.0	727.7	734.1	743.8	745.6	745.3	739.5	730.5	723.1	712.7	698.4	661.3	604.6	535.7	471.1	414.5	361.1	319.6	279.9	231.0	191.9	160.9	134.1	109.9	88.95	72.85	61.67	63.26	193.3	874.2	2333	2064	577.7	12.08	5.533	4.949	4.578	4.665	4.560	4.551	4.656	4.807	4.709	4.609	4.656	4.965	4.524	4.483	4.466	4.398	4.284	4.462	4.645	4.486	4.592	4.414	4.570	4.902
475.0	301.1	483.6	751.1	1928	1530	876.2	927.7	959.0	974.2	1003	999.2	959.5	893.7	826.8	758.7	713.8	678.2	664.8	653.2	648.1	646.3	645.1	658.3	661.1	661.3	658.4	653.9	648.0	645.2	632.1	602.4	553.1	497.4	441.9	389.4	342.3	299.9	266.3	235.9	195.8	165.2	138.2	114.3	93.79	76.16	61.04	49.46	70.41	215.3	545.5	1253	2934	784.4	12.80	5.669	4.892	4.548	4.179	4.483	4.458	4.437	4.243	4.308	4.187	4.508	3.971	4.082	3.892	4.032	4.163	4.098	4.278	4.165	4.189	4.204	4.256	4.438
480.0	283.8	437.7	605.5	1391	2173	920.1	861.7	903.6	918.5	932.3	946.4	899.4	837.1	775.8	712.2	663.6	630.8	614.6	600.7	592.8	592.2	596.4	602.0	604.2	603.4	602.7	599.2	594.1	593.9	589.8	564.2	517.0	470.0	416.4	370.7	327.7	288.9	254.9	232.8	198.3	166.5	140.2	117.5	96.93	79.43	63.12	49.32	45.44	70.62	138.6	320.3	1754	2756	168.8	8.143	4.931	4.527	4.174	4.224	3.990	4.221	4.008	4.256	3.963	4.147	3.822	3.920	3.750	3.881	4.009	3.824	3.866	3.786	3.776	3.781	3.874	4.206
485.0	284.9	419.7	556.4	875.8	2336	1284	813.8	851.4	863.5	891.8	883.7	849.6	792.3	729.8	674.7	622.9	595.2	571.8	561.9	554.3	548.4	550.4	552.7	562.0	560.8	557.3	555.3	553.9	554.2	550.6	531.7	491.5	445.5	398.3	356.9	314.1	278.7	247.8	222.9	200.4	167.3	139.9	118.0	100.4	82.98	66.46	52.48	42.36	41.12	49.73	86.54	475.0	2320	1487	25.12	6.394	4.825	4.371	4.298	4.045	4.024	3.886	3.993	4.033	3.824	3.883	3.807	3.733	3.589	3.660	3.635	3.680	3.679	3.435	3.587	3.574	3.938
490.0	246.8	382.3	500.8	633.7	1529	2179	902.6	790.3	806.4	825.6	826.0	795.5	743.3	678.1	627.7	577.7	545.9	528.0	514.1	505.0	500.2	500.3	502.0	509.9	508.4	506.3	506.2	504.8	507.7	507.7	487.4	455.8	413.9	373.2	336.2	299.7	267.5	238.4	210.6	192.5	169.2	142.0	120.3	101.7	85.68	69.95	56.37	45.52	37.15	33.20	36.64	120.3	625.9	1578	1960	577.0	11.90	4.824	4.329	3.936	3.898	3.855	3.658	3.922	3.637	3.659	3.376	3.537	3.470	3.432	3.219	3.313	3.333	3.369	3.332	3.392	3.605
495.0	231.9	350.4	459.0	547.0	809.4	2248	1568	731.5	735.0	755.8	762.7	738.9	686.3	622.8	575.1	525.6	499.4	477.0	464.1	455.7	451.2	449.2	449.6	456.7	454.3	453.8	452.0	452.5	456.9	459.5	442.3	415.5	379.1	344.7	310.6	281.6	251.6	226.0	199.5	179.6	162.5	144.9	122.4	102.8	87.28	72.72	59.57	48.33	39.13	31.44	27.60	42.79	152.5	369.5	1205	2762	200.5	13.18	4.763	3.927	3.609	3.793	3.343	3.506	3.325	3.301	3.224	3.276	3.064	3.173	3.001	3.219	3.297	3.079	3.148	3.118	3.142
500.0	205.7	307.2	434.9	490.7	599.1	1493	2374	785.4	689.0	704.9	705.5	682.1	638.9	575.2	528.7	485.4	462.0	438.4	426.2	415.3	410.6	407.4	411.0	414.8	412.9	411.3	410.4	413.3	415.5	417.7	403.8	383.4	351.0	320.8	293.1	261.3	237.6	213.6	190.1	170.7	153.2	141.6	123.4	103.1	86.74	73.35	60.34	49.69	40.66	32.31	26.89	26.80	47.59	94.87	302.5	1636	2481	182.6	7.307	4.178	3.850	3.484	3.286	3.319	3.138	3.223	3.099	2.939	2.973	2.876	2.859	2.806	2.785	2.874	2.928	2.845	2.826
505.0	195.6	280.3	395.0	461.2	516.6	846.5	2603	1186	641.3	649.7	654.9	628.9	590.3	541.2	494.4	449.0	420.7	402.5	390.5	377.5	374.1	371.7	371.5	374.0	376.9	374.6	374.0	377.3	378.2	380.9	371.0	351.6	322.4	294.8	268.2	241.8	222.2	200.5	179.4	161.5	144.4	131.6	119.5	101.4	84.57	71.78	59.88	50.07	41.07	33.35	27.68	23.95	25.42	33.83	78.66	434.1	1954	1592	27.02	5.034	3.828	3.567	3.242	2.951	3.047	2.971	2.891	2.789	2.726	2.615	2.615	2.646	2.740	2.586	2.612	2.562	2.812
510.0	168.7	235.3	344.4	414.0	452.9	550.9	1611	2216	747.8	581.8	579.7	559.1	526.2	478.9	437.7	394.0	370.2	354.8	341.8	332.7	328.5	326.7	325.9	326.4	327.5	324.4	325.9	328.6	331.9	332.8	324.7	308.0	284.5	260.5	237.7	217.4	198.1	180.2	163.0	146.8	131.6	118.6	110.0	98.41	83.39	69.09	58.36	49.23	40.70	34.13	28.25	23.66	21.24	20.81	29.18	106.5	512.1	1331	1568	487.0	10.93	3.692	3.204	2.838	2.659	2.666	2.551	2.453	2.429	2.475	2.419	2.300	2.417	2.425	2.310	2.450	2.399
515.0	149.3	210.4	300.5	363.1	393.1	435.5	727.8	2331	1531	514.1	503.0	488.7	454.1	419.9	384.3	343.0	320.5	309.6	296.7	285.3	284.6	279.0	277.7	280.2	278.9	280.1	277.4	280.4	282.0	285.0	281.3	265.5	245.4	225.7	207.4	190.4	173.8	160.1	144.8	130.3	117.9	106.4	97.31	90.75	81.05	67.39	55.77	46.86	39.68	33.31	28.28	24.01	20.67	18.02	17.89	33.70	122.6	307.4	804.4	1845	204.2	10.89	3.211	2.636	2.534	2.313	2.251	2.377	2.276	2.153	2.148	2.246	2.026	2.015	2.151	1.945	2.018
520.0	119.4	185.5	267.7	323.0	357.6	376.2	469.6	1489	2458	603.5	455.6	439.1	411.1	379.8	341.8	312.2	286.3	274.9	262.5	256.3	250.1	246.6	245.7	247.6	247.6	246.7	245.2	249.6	250.2	252.3	249.1	236.7	220.6	203.4	186.3	170.3	157.2	144.6	132.0	117.9	108.2	97.59	87.75	82.56	76.58	65.45	53.33	45.68	38.66	32.69	27.71	24.26	20.65	17.70	16.16	17.11	35.84	75.38	197.2	1047	1600	173.1	5.292	2.815	2.374	2.385	2.060	2.003	2.145	1.950	1.988	1.903	1.819	1.836	1.878	1.752	1.842
525.0	111.6	177.0	232.9	284.3	331.2	336.2	371.4	722.2	2725	1086	417.2	401.0	368.9	342.3	308.4	283.6	260.5	246.9	236.2	228.5	222.9	221.4	219.4	218.8	219.6	218.9	217.4	221.4	225.0	225.9	223.6	212.0	198.2	182.6	167.3	154.5	143.6	131.6	120.7	109.0	100.2	90.35	81.29	75.69	70.51	63.39	52.79	43.50	37.09	31.88	26.66	23.54	19.95	17.65	15.21	13.95	16.72	23.67	50.05	270.4	1188	1317	26.54	3.448	2.412	2.293	1.974	1.881	1.900	1.749	1.691	1.715	1.807	1.641	1.672	1.673	1.747
530.0	99.12	155.7	200.9	243.5	289.8	307.8	314.0	412.5	1588	2230	561.4	350.7	322.6	296.4	268.6	246.4	228.1	215.7	204.2	197.8	192.7	191.2	188.4	187.9	189.5	188.2	187.2	189.8	192.1	193.5	191.4	184.4	170.6	157.8	145.6	135.1	124.6	115.8	105.8	96.92	89.17	80.21	72.71	66.67	61.61	57.60	50.94	41.64	34.90	30.00	25.69	22.68	19.58	17.50	15.41	13.21	12.35	12.64	17.13	65.47	305.0	885.9	1045	334.3	9.101	2.178	1.848	1.675	1.719	1.630	1.558	1.584	1.695	1.421	1.423	1.408	1.552
535.0	84.50	129.4	175.5	202.7	234.8	271.5	275.1	307.8	598.7	2434	1395	321.1	284.0	257.7	233.3	210.7	197.3	188.2	177.9	168.9	164.9	163.7	159.9	160.6	161.2	159.8	160.4	163.1	164.1	165.4	164.6	157.0	145.3	134.7	126.3	116.6	107.4	99.46	91.83	84.83	78.55	70.40	64.67	58.84	54.07	50.04	46.63	39.80	33.07	27.82	24.34	21.39	18.94	16.72	14.89	12.49	11.04	9.822	9.836	19.72	72.15	203.0	504.8	1219	196.5	8.739	1.997	1.666	1.732	1.427	1.432	1.409	1.272	1.235	1.249	1.308	1.380
540.0	81.75	116.7	148.6	177.9	210.0	247.7	252.3	258.0	333.0	1463	2537	425.4	250.6	230.4	211.6	191.2	174.7	165.3	157.6	150.5	145.9	144.3	143.2	143.5	141.4	140.3	139.2	143.6	144.6	145.9	142.8	138.2	128.7	121.0	112.8	104.2	96.73	88.86	82.24	75.92	70.34	63.54	58.50	53.86	49.82	46.07	40.90	37.94	32.03	26.19	22.75	19.87	17.74	15.99	14.19	12.44	10.86	9.471	8.098	9.624	20.32	48.76	122.0	680.1	1102	155.3	3.508	1.692	1.457	1.309	1.377	1.277	1.139	1.263	1.213	1.192	1.179
545.0	75.23	101.8	132.7	152.2	178.4	215.9	230.5	228.4	251.1	619.9	2897	920.5	229.6	208.5	191.1	172.6	158.1	149.1	142.4	135.2	131.2	129.8	127.8	128.8	125.5	125.7	125.4	125.3	129.5	128.5	128.6	122.7	115.4	107.8	99.83	93.76	86.84	80.34	74.63	69.43	64.01	58.63	53.96	50.18	45.57	41.45	37.37	35.53	31.35	25.43	21.80	18.84	16.86	15.58	13.65	12.04	10.22	9.130	7.686	7.161	8.774	14.34	30.28	173.5	802.3	914.4	25.45	2.103	1.538	1.420	1.215	1.171	1.120	1.115	1.114	1.063	1.110
550.0	61.42	88.22	115.6	138.4	157.7	180.9	210.4	203.8	207.2	301.0	1606	2249	372.8	181.4	163.3	148.6	138.3	128.6	122.7	117.5	114.0	111.6	110.3	110.7	108.6	106.8	107.4	107.9	109.2	111.4	109.5	104.2	98.53	93.05	86.10	80.89	75.24	70.19	64.88	59.96	55.29	52.40	47.74	44.37	40.38	37.12	32.84	30.67	28.42	24.79	20.70	17.46	15.63	14.40	12.84	11.49	9.896	8.589	7.323	6.352	6.061	6.832	9.667	41.34	203.8	607.6	715.3	116.0	7.434	1.362	1.148	1.083	1.113	0.972	0.977	0.929	0.959
555.0	55.21	71.80	103.2	118.0	135.7	149.4	176.3	183.1	175.8	202.6	523.1	2453	1097	165.1	138.9	127.1	117.4	111.2	105.5	100.1	97.96	95.39	94.00	92.68	91.96	91.01	90.28	91.30	93.09	93.94	92.95	88.74	83.07	79.62	72.99	68.22	63.08	59.93	55.27	51.46	47.36	44.17	41.70	38.32	35.26	32.10	28.97	26.26	23.83	22.37	19.90	16.02	14.52	13.19	11.92	10.65	9.365	8.307	7.078	5.741	5.232	4.577	4.721	11.79	47.46	138.8	339.6	801.9	184.0	5.230	1.220	1.012	0.956	0.862	0.904	0.851	0.774
560.0	44.46	63.79	92.37	108.9	118.7	124.0	147.3	174.5	153.6	166.7	241.4	1419	2296	245.1	122.8	112.0	103.7	97.19	93.58	87.05	86.07	82.83	81.96	82.68	81.00	78.92	78.78	79.57	81.00	82.48	81.63	76.64	72.87	68.49	63.90	59.59	56.09	52.66	48.20	45.60	42.80	39.16	36.68	34.17	31.46	28.86	26.70	23.35	21.10	20.22	18.84	15.59	13.71	12.15	11.15	10.05	8.748	7.598	6.922	5.703	4.974	4.265	3.764	5.084	12.59	32.86	82.16	461.0	747.5	28.73	2.269	1.013	0.934	0.768	0.667	0.587	0.754
565.0	42.46	58.07	74.77	91.05	101.9	110.4	123.8	155.5	146.3	147.8	167.1	535.1	2751	649.1	112.0	98.13	93.53	84.93	82.53	77.17	75.29	74.15	71.51	70.75	69.69	69.23	69.06	69.62	71.23	73.49	70.13	67.49	64.19	60.18	56.25	52.79	49.32	46.23	42.81	39.38	37.66	33.90	32.05	30.75	28.69	26.14	23.77	21.39	18.47	17.77	16.48	14.76	12.51	11.17	10.25	9.305	8.402	7.073	6.309	5.652	4.511	4.191	3.534	3.313	4.882	9.160	20.00	118.1	548.9	572.5	23.25	1.207	0.902	0.784	0.702	0.681	0.712
570.0	35.37	52.11	67.59	77.35	84.21	92.51	98.62	124.0	134.4	121.3	130.1	212.5	1490	1941	207.9	82.74	75.38	70.37	67.37	64.34	61.94	60.67	59.17	57.99	57.64	56.80	56.83	56.48	57.74	59.25	57.68	55.69	51.96	49.40	45.90	43.00	40.68	38.24	35.31	32.89	30.82	28.30	26.60	25.44	24.07	22.27	19.79	17.94	15.67	14.53	13.56	12.90	11.56	10.00	9.030	8.195	7.203	6.276	5.494	4.848	4.234	3.681	3.013	2.686	2.806	3.650	5.850	27.75	140.1	401.5	364.0	101.9	4.112	0.852	0.715	0.593	0.610
575.0	28.79	47.46	56.03	59.40	65.61	71.99	77.68	88.82	114.1	104.3	102.1	122.3	427.5	2251	770.5	72.30	60.17	56.63	53.52	50.35	48.68	47.47	46.56	45.30	44.49	43.97	43.55	44.69	45.71	44.96	44.18	42.51	40.49	37.28	35.39	34.05	31.62	30.52	28.12	25.38	24.10	23.00	21.13	20.10	19.19	17.74	15.97	14.43	12.98	11.56	10.48	10.19	9.893	8.669	7.619	6.886	5.965	5.413	4.597	3.981	3.692	2.997	2.755	2.327	2.144	2.204	2.600	7.177	32.27	91.51	207.9	484.6	129.3	2.365	0.625	0.571	0.537
580.0	24.60	36.20	49.11	52.96	54.48	58.29	65.82	69.62	93.71	104.2	90.88	91.92	159.7	1279	1869	97.12	48.84	45.74	44.09	40.71	39.05	38.59	38.15	36.49	36.51	35.29	35.73	36.86	37.40	37.01	36.06	35.03	31.87	30.76	28.73	27.09	25.69	24.09	22.69	21.25	19.84	18.60	17.51	16.58	15.39	14.88	13.16	11.79	11.10	9.882	8.478	8.259	8.192	7.390	6.463	5.872	5.342	4.731	3.880	3.396	3.221	2.775	2.520	2.206	1.941	1.763	1.633	2.569	8.153	21.34	51.17	291.6	404.7	24.81	0.922	0.561	0.485
585.0	21.17	32.12	41.96	42.89	44.81	50.59	53.52	58.25	74.15	96.24	83.19	78.82	91.24	436.0	2390	411.1	41.53	38.25	36.85	33.46	31.86	31.80	31.55	30.37	30.23	29.16	29.90	29.92	29.71	30.54	29.23	28.83	26.66	24.90	23.55	22.46	20.67	19.78	18.35	17.26	16.19	15.04	14.08	13.94	12.86	12.14	10.86	9.921	9.093	8.137	7.260	6.686	6.664	6.487	5.914	5.125	4.649	3.812	3.300	3.053	2.592	2.453	2.435	1.975	1.693	1.525	1.407	1.541	2.831	5.643	12.34	76.53	320.9	222.4	16.75	0.619	0.561
590.0	20.94	28.98	32.48	37.23	36.85	40.23	43.37	47.83	55.67	84.16	79.84	68.00	70.00	140.7	1313	1475	68.01	29.99	28.60	26.57	24.77	24.22	23.74	23.28	22.82	22.76	22.60	22.53	22.82	23.41	22.36	21.97	21.02	19.34	18.00	17.04	15.91	15.32	14.13	13.54	12.42	11.94	11.06	10.70	9.871	9.471	8.518	7.608	7.053	6.222	5.790	5.525	5.042	4.985	5.034	4.392	3.818	3.266	2.886	2.501	2.238	2.128	1.911	1.767	1.442	1.347	1.202	1.136	1.535	1.996	3.535	17.81	83.99	201.2	212.4	18.23	1.336
595.0	25.03	31.73	27.78	29.03	29.54	30.57	35.36	39.30	43.50	62.92	78.41	63.43	59.72	66.19	342.7	1800	525.4	27.85	22.02	20.51	19.48	18.98	18.10	17.69	17.13	17.30	16.81	17.26	16.64	17.50	16.97	16.60	15.53	14.36	13.34	12.90	12.34	11.62	10.58	10.30	9.343	9.081	8.323	8.138	7.745	7.332	6.679	5.928	5.372	4.982	4.470	4.227	3.762	3.673	3.830	3.688	3.285	2.677	2.438	2.089	1.982	1.823	1.504	1.451	1.274	1.115	1.116	1.083	1.069	1.042	1.325	4.607	19.11	46.37	123.7	222.5	25.86
600.0	23.81	29.37	26.04	25.08	23.76	24.91	29.10	33.43	37.43	49.69	74.68	61.00	54.09	48.05	101.7	1033	1370	55.12	18.63	16.91	16.35	15.21	14.51	14.63	14.86	13.98	13.75	13.80	14.07	13.94	13.84	13.07	12.52	11.74	11.06	10.30	9.722	9.582	8.295	8.131	7.797	7.445	6.906	6.374	6.218	5.761	5.397	4.840	4.423	4.073	3.599	3.445	3.042	3.066	3.100	3.252	2.936	2.317	2.052	1.863	1.730	1.598	1.292	1.305	1.215	1.194	0.934	1.071	0.913	0.946	0.830	1.492	4.647	10.91	31.04	156.2	179.6
605.0	18.75	22.97	24.95	21.73	20.35	22.37	25.56	29.26	34.23	44.33	66.09	64.76	51.39	41.28	45.52	339.3	1776	252.9	16.05	14.32	13.65	12.43	12.51	12.35	12.63	11.73	11.26	11.63	12.02	11.44	11.04	11.08	10.35	9.737	9.138	8.563	8.181	7.648	7.160	6.979	6.660	6.221	5.598	5.354	5.291	4.763	4.458	4.045	3.723	3.385	3.113	2.794	2.640	2.595	2.507	2.744	2.530	2.005	1.765	1.470	1.452	1.230	1.255	1.171	1.008	1.069	0.946	0.941	0.747	0.795	0.639	0.838	1.457	2.836	7.242	44.42	171.5
610.0	18.58	21.67	21.87	21.05	19.36	20.43	22.76	25.92	31.10	38.17	53.04	70.59	50.24	37.18	30.31	92.82	990.9	972.1	39.31	12.08	11.12	10.42	10.33	9.849	9.946	9.491	8.970	9.444	9.255	9.103	8.982	8.964	8.403	7.687	7.446	6.738	6.402	6.261	5.671	5.463	5.167	4.789	4.380	4.497	4.123	3.793	3.569	3.223	2.965	2.658	2.504	2.384	2.291	2.113	1.999	2.050	2.002	1.887	1.620	1.439	1.250	1.050	1.011	0.885	0.924	0.864	0.925	0.846	0.691	0.651	0.576	0.614	0.697	1.001	1.938	10.23	47.93
615.0	16.31	18.26	22.58	20.07	15.63	17.95	21.00	21.38	27.33	33.65	46.13	63.09	52.86	36.15	25.61	33.57	250.2	1371	365.0	11.28	9.370	8.719	8.145	8.113	7.640	7.674	7.213	7.456	7.093	7.278	7.019	6.942	6.351	5.835	5.675	5.350	4.992	4.703	4.499	4.025	4.226	3.774	3.488	3.593	3.021	2.994	2.824	2.533	2.318	2.181	1.821	1.868	1.815	1.661	1.634	1.506	1.445	1.494	1.371	1.100	0.887	0.890	0.947	0.915	0.892	0.734	0.834	0.780	0.600	0.637	0.523	0.503	0.478	0.511	0.749	2.532	10.93
620.0	13.67	14.85	20.30	15.80	14.20	16.10	17.41	20.27	22.86	29.65	41.00	54.51	57.40	34.31	22.98	18.88	66.11	819.4	1007	27.46	7.981	7.137	6.559	6.509	6.305	5.953	6.109	6.329	5.972	5.697	5.589	5.408	5.458	5.030	4.740	4.129	4.019	3.841	3.737	3.242	3.384	3.113	2.991	2.563	2.482	2.510	2.305	2.095	2.017	1.826	1.640	1.484	1.441	1.352	1.344	1.171	1.310	1.164	1.181	1.044	0.891	0.671	0.860	0.716	0.674	0.655	0.715	0.631	0.709	0.568	0.471	0.438	0.442	0.380	0.478	0.722	2.745
625.0	11.50	17.55	19.77	15.30	14.77	14.33	16.51	17.45	22.03	29.23	36.74	44.94	58.67	35.00	21.27	15.43	23.28	271.9	1408	149.4	6.895	6.384	5.792	5.539	5.721	5.214	5.338	5.231	5.418	4.807	4.937	4.804	4.441	3.957	3.879	3.659	3.389	3.196	3.113	2.716	2.671	2.549	2.431	2.442	2.084	2.024	2.025	1.845	1.759	1.524	1.311	1.211	1.226	1.155	1.235	1.109	1.143	1.017	0.925	0.968	0.769	0.659	0.740	0.580	0.629	0.584	0.625	0.572	0.677	0.503	0.484	0.396	0.393	0.295	0.383	0.390	0.846
630.0	10.67	13.91	16.13	14.43	10.73	12.60	14.33	16.32	21.62	25.80	35.09	40.22	51.40	39.45	20.82	14.33	13.31	69.22	859.8	743.9	25.53	5.357	4.754	4.823	4.639	4.346	4.372	4.083	4.272	3.870	3.991	3.743	3.575	3.148	3.249	2.925	2.885	2.698	2.460	2.317	2.054	1.922	1.942	1.963	1.698	1.632	1.569	1.428	1.333	1.217	1.099	1.018	0.895	1.037	0.884	0.903	0.861	0.792	0.795	0.787	0.668	0.604	0.558	0.555	0.506	0.567	0.477	0.470	0.470	0.559	0.510	0.427	0.334	0.306	0.288	0.292	0.385
635.0	8.998	16.36	15.63	13.25	10.79	12.46	11.41	16.18	19.42	24.38	31.14	35.80	39.98	41.30	21.54	13.68	10.90	21.25	221.0	1148	264.8	5.191	4.133	4.130	3.757	3.413	3.466	3.138	3.142	3.246	3.390	3.082	2.663	2.528	2.415	2.232	2.242	2.033	1.923	1.914	1.659	1.460	1.583	1.439	1.451	1.363	1.181	1.183	1.096	0.950	0.836	0.786	0.805	0.836	0.745	0.706	0.692	0.627	0.690	0.579	0.706	0.550	0.452	0.462	0.478	0.467	0.396	0.452	0.468	0.491	0.391	0.383	0.282	0.269	0.213	0.228	0.220
640.0	11.48	18.60	15.33	12.66	10.74	10.57	11.72	14.49	19.25	22.59	29.74	34.92	37.02	41.65	24.58	14.07	9.494	10.32	54.95	755.2	763.2	14.56	3.774	3.630	3.214	2.908	3.066	2.745	2.807	2.863	2.715	2.511	2.078	2.036	1.929	1.756	1.750	1.594	1.723	1.524	1.367	1.469	1.131	1.213	1.199	1.118	1.049	0.938	0.818	0.721	0.757	0.626	0.614	0.649	0.641	0.610	0.562	0.578	0.495	0.505	0.487	0.421	0.441	0.429	0.384	0.419	0.367	0.384	0.382	0.313	0.370	0.359	0.306	0.251	0.222	0.244	0.164
645.0	14.64	15.42	14.70	12.01	10.02	9.932	10.53	13.76	18.38	22.29	28.60	32.35	33.20	35.04	27.76	14.00	9.580	7.785	16.89	274.6	1129	49.91	3.843	3.309	2.776	2.845	2.477	2.415	2.447	2.359	2.541	2.279	1.745	1.744	1.602	1.634	1.567	1.520	1.418	1.188	1.228	1.209	1.134	0.974	1.034	0.846	0.902	0.783	0.771	0.643	0.643	0.486	0.508	0.519	0.561	0.527	0.492	0.452	0.422	0.466	0.431	0.488	0.429	0.388	0.379	0.337	0.411	0.372	0.323	0.301	0.291	0.378	0.433	0.228	0.203	0.220	0.189
650.0	9.612	13.27	15.08	12.60	11.07	9.234	10.61	12.21	16.05	20.86	26.65	30.14	30.66	31.08	31.10	15.12	9.353	7.898	7.925	70.89	952.7	347.6	4.973	3.204	2.593	2.492	2.085	2.178	2.107	2.102	2.248	1.842	1.427	1.460	1.493	1.567	1.308	1.237	1.167	0.990	1.069	0.962	0.850	0.866	0.762	0.825	0.764	0.625	0.648	0.578	0.529	0.421	0.433	0.482	0.459	0.473	0.455	0.382	0.363	0.459	0.378	0.448	0.397	0.411	0.293	0.249	0.304	0.303	0.294	0.295	0.387	0.293	0.324	0.273	0.182	0.162	0.201
