Sample:	'1
File name:	G2025061803¸ðÖÞ°ÓË®Îñ.FD3
Run date:	'13:14:49, 06/23/2025
Operator:	Administrator
Comment:	'

Instrument
Model:	F-2700 FL Spectrophotometer
Serial number:	23B8-004
ROM Version:	4J14000 07

Instrument parameters
Measurement type:	3-D scan
Data mode:	Fluorescence
EX  Start WL:	220.0 nm
EX  End WL:	600.0 nm
EX Sampling interval:	5.0 nm
EM  Start WL:	230.0 nm
EM  End WL:	650.0 nm
EM Sampling interval:	5.0 nm
Scan speed:	12000 nm/min
EX Slit:	5.0 nm
EM Slit:	5.0 nm
PMT Voltage:	700 V
Response:	Auto 
Corrected spectra:	Off
Contour interval:	50.000

Peak integration
Integration method:	Rectangular
Sensitivity:	1
Threshold:	1.000

Peaks
No.	ApexEX/EM(nm)	Height(Data)
1	225.0/595.0	69.97
2	225.0/610.0	62.82
3	230.0/345.0	3322
4	230.0/630.0	56.87
5	235.0/260.0	291.5
6	235.0/350.0	3355
7	240.0/265.0	371.5
8	245.0/270.0	430.6
9	250.0/275.0	574.0
10	250.0/425.0	1680
11	250.0/435.0	1672
12	255.0/285.0	580.5
13	255.0/560.0	196.2
14	260.0/290.0	560.3
15	260.0/575.0	142.3
16	265.0/585.0	124.8
17	275.0/320.0	2201
18	275.0/615.0	153.5
19	280.0/315.0	2177
20	280.0/340.0	2212
21	280.0/625.0	129.9
22	285.0/640.0	100.3
23	475.0/350.0	10.97
24	485.0/265.0	1.986
25	505.0/275.0	3.190
26	510.0/280.0	3.417
27	510.0/420.0	7.260
28	515.0/285.0	3.402
29	515.0/435.0	7.266
30	560.0/310.0	10.59
31	565.0/335.0	10.29
32	570.0/315.0	10.59
33	575.0/320.0	10.48
34	575.0/340.0	10.73
35	580.0/345.0	10.88
36	585.0/325.0	10.88

Data points
	220.0	225.0	230.0	235.0	240.0	245.0	250.0	255.0	260.0	265.0	270.0	275.0	280.0	285.0	290.0	295.0	300.0	305.0	310.0	315.0	320.0	325.0	330.0	335.0	340.0	345.0	350.0	355.0	360.0	365.0	370.0	375.0	380.0	385.0	390.0	395.0	400.0	405.0	410.0	415.0	420.0	425.0	430.0	435.0	440.0	445.0	450.0	455.0	460.0	465.0	470.0	475.0	480.0	485.0	490.0	495.0	500.0	505.0	510.0	515.0	520.0	525.0	530.0	535.0	540.0	545.0	550.0	555.0	560.0	565.0	570.0	575.0	580.0	585.0	590.0	595.0	600.0
230.0	64.17	765.0	1266	311.4	15.15	7.375	6.348	5.072	4.650	4.215	3.817	3.931	3.077	2.574	2.350	2.027	1.752	1.565	1.370	1.326	1.226	1.062	0.980	0.968	0.867	0.904	0.762	0.742	0.708	0.668	0.656	0.641	0.623	0.544	0.490	0.498	0.458	0.491	0.415	0.409	0.414	0.434	0.440	0.380	0.378	0.401	0.971	3.293	4.518	2.716	0.928	0.359	0.268	0.280	0.256	0.307	0.287	0.301	0.320	0.304	0.266	0.295	0.305	0.282	0.283	0.314	0.295	0.271	0.276	0.285	0.290	0.310	0.316	0.324	0.316	0.322	0.319
235.0	76.91	244.9	1123	1516	396.7	23.79	5.939	5.273	5.140	4.928	4.386	4.216	3.495	2.380	2.851	1.932	1.580	1.428	1.298	1.223	1.064	1.063	0.960	0.956	0.768	0.867	0.855	0.761	0.668	0.705	0.681	0.687	0.571	0.470	0.503	0.443	0.482	0.451	0.407	0.462	0.385	0.359	0.503	0.431	0.404	0.409	0.455	1.111	2.444	4.005	5.343	5.135	2.163	0.452	0.313	0.320	0.289	0.277	0.271	0.288	0.279	0.267	0.298	0.377	0.296	0.293	0.310	0.255	0.266	0.254	0.398	0.302	0.345	0.262	0.281	0.320	0.342
240.0	127.0	109.2	398.0	1669	1644	305.0	12.00	7.216	4.744	5.050	4.565	4.131	3.937	2.715	2.460	2.280	1.703	1.432	1.302	1.163	1.138	1.074	0.999	0.989	0.820	0.753	0.734	0.777	0.836	0.720	0.650	0.601	0.547	0.513	0.527	0.398	0.449	0.403	0.415	0.451	0.367	0.444	0.405	0.413	0.527	0.519	0.423	0.543	0.844	1.538	3.719	7.683	8.450	5.117	1.652	0.459	0.299	0.306	0.288	0.361	0.286	0.267	0.302	0.355	0.266	0.291	0.362	0.256	0.293	0.292	0.351	0.273	0.312	0.253	0.296	0.355	0.360
245.0	116.2	162.4	135.7	696.8	2216	1644	198.8	9.184	5.982	5.479	5.502	4.691	3.270	3.102	2.857	2.454	1.986	1.653	1.316	1.242	1.274	1.166	0.993	1.027	0.925	0.799	0.775	0.738	0.696	0.719	0.602	0.686	0.631	0.542	0.564	0.412	0.517	0.387	0.497	0.506	0.424	0.364	0.371	0.403	0.503	0.662	0.658	0.564	0.469	0.523	1.075	3.099	7.271	11.06	9.637	4.805	1.115	0.284	0.325	0.290	0.273	0.322	0.302	0.288	0.324	0.311	0.357	0.336	0.280	0.360	0.352	0.298	0.257	0.272	0.348	0.354	0.356
250.0	57.66	144.1	200.6	222.3	825.7	2138	2258	635.3	31.64	6.539	5.010	4.830	3.812	3.494	2.999	2.368	1.847	1.975	1.640	1.336	1.224	1.171	1.014	1.056	0.975	0.877	0.780	0.766	0.783	0.776	0.733	0.617	0.596	0.560	0.609	0.492	0.446	0.441	0.429	0.426	0.431	0.358	0.407	0.411	0.399	0.451	0.514	0.767	0.844	0.685	0.599	0.967	2.000	4.145	6.915	10.04	12.02	10.01	4.983	1.289	0.328	0.339	0.312	0.283	0.331	0.307	0.302	0.301	0.288	0.309	0.304	0.303	0.319	0.288	0.312	0.308	0.325
255.0	36.31	62.21	180.6	272.5	253.4	618.6	2328	2852	289.9	27.38	6.640	5.589	4.812	3.802	2.995	2.033	2.234	2.174	1.682	1.516	1.176	1.291	1.095	0.999	0.898	0.778	0.810	0.809	0.734	0.774	0.728	0.675	0.570	0.591	0.643	0.471	0.390	0.413	0.391	0.459	0.406	0.420	0.377	0.420	0.465	0.380	0.299	0.469	0.602	0.831	1.201	0.988	0.817	1.247	1.891	2.750	5.478	12.57	20.33	17.55	7.222	1.269	0.320	0.301	0.384	0.315	0.289	0.304	0.339	0.333	0.308	0.306	0.301	0.337	0.349	0.316	0.289
260.0	35.41	31.46	81.91	291.5	261.9	200.0	838.1	3441	2339	233.9	13.94	7.027	5.538	4.437	3.497	2.704	2.418	1.946	1.713	1.249	1.356	1.299	1.021	1.210	1.018	0.897	0.827	0.919	0.692	0.771	0.880	0.721	0.649	0.544	0.548	0.518	0.448	0.436	0.458	0.447	0.382	0.426	0.447	0.408	0.408	0.348	0.349	0.376	0.393	0.484	0.868	1.597	1.558	0.934	0.889	0.975	1.602	3.782	10.41	20.04	24.95	16.49	4.929	0.646	0.414	0.282	0.321	0.348	0.357	0.354	0.315	0.317	0.276	0.344	0.347	0.331	0.302
265.0	35.34	26.45	38.80	166.0	371.5	219.2	254.8	1429	4450	2022	171.7	10.10	6.817	4.520	4.202	2.718	2.545	2.009	1.750	1.621	1.354	1.314	1.152	1.285	0.964	1.040	0.821	0.880	0.774	0.861	0.792	0.684	0.645	0.667	0.611	0.543	0.459	0.425	0.477	0.444	0.408	0.390	0.404	0.393	0.414	0.391	0.331	0.368	0.326	0.315	0.425	0.987	1.634	1.986	1.359	0.807	0.793	1.338	2.829	6.602	16.24	27.88	26.95	13.34	2.733	0.434	0.367	0.328	0.355	0.325	0.269	0.349	0.292	0.390	0.363	0.346	0.277
270.0	51.10	46.52	42.92	81.32	253.2	430.6	294.2	402.7	1661	4041	3953	695.5	31.54	6.415	4.754	3.536	2.917	2.275	1.874	1.889	1.521	1.402	1.240	1.256	1.163	1.048	0.817	0.865	0.932	0.794	0.870	0.763	0.673	0.752	0.587	0.576	0.484	0.484	0.449	0.428	0.446	0.425	0.469	0.421	0.460	0.438	0.368	0.416	0.397	0.365	0.377	0.519	0.857	1.375	1.964	2.112	1.896	1.171	1.219	1.963	4.268	8.710	15.60	23.31	26.00	20.05	10.80	2.620	0.454	0.396	0.271	0.345	0.310	0.363	0.418	0.337	0.298
275.0	91.05	112.7	98.49	85.32	146.6	320.3	574.0	328.9	432.4	1116	4024	6709	907.0	25.30	6.174	4.140	3.218	3.040	2.210	2.246	1.737	1.531	1.346	1.373	1.092	1.074	1.012	1.007	0.990	0.760	0.902	0.779	0.745	0.683	0.740	0.558	0.572	0.561	0.501	0.490	0.447	0.467	0.522	0.542	0.636	0.538	0.497	0.518	0.494	0.447	0.443	0.506	0.634	0.795	1.035	1.581	2.709	3.190	2.194	1.228	1.472	2.457	4.028	5.796	9.275	19.44	36.43	30.44	15.87	2.486	0.509	0.341	0.416	0.429	0.409	0.415	0.352
280.0	167.7	173.5	178.9	123.0	135.9	209.4	457.1	570.0	245.3	330.9	1289	6058	6010	142.3	12.14	5.896	3.949	3.319	2.467	2.442	1.855	1.631	1.511	1.378	1.374	1.157	1.086	0.955	1.054	0.919	0.959	0.808	0.746	0.805	0.756	0.667	0.626	0.614	0.508	0.482	0.425	0.506	0.555	0.640	0.696	0.806	0.800	0.882	0.768	0.592	0.552	0.625	0.700	0.782	0.802	1.079	1.584	2.664	3.417	2.732	1.324	1.089	1.515	1.806	2.709	5.517	14.56	29.54	42.74	27.60	10.69	1.115	0.438	0.417	0.426	0.348	0.373
285.0	230.9	293.6	262.8	172.1	142.4	168.5	271.1	580.5	340.2	205.3	406.4	2071	6959	4682	100.4	8.373	4.970	3.666	2.797	2.507	1.999	1.591	1.595	1.475	1.351	1.190	1.174	1.060	1.149	0.991	0.915	0.891	0.762	0.813	0.827	0.775	0.705	0.662	0.626	0.533	0.617	0.541	0.542	0.742	0.775	0.825	0.956	1.105	1.073	0.820	0.671	0.724	0.680	0.845	0.779	0.925	1.069	1.508	2.096	3.402	3.362	2.047	1.102	1.053	1.275	2.000	4.112	8.626	19.86	36.90	35.14	22.75	5.857	0.675	0.399	0.393	0.363
290.0	306.8	387.2	364.1	231.6	157.4	166.6	197.0	321.6	560.3	493.9	323.2	658.5	2227	5123	4692	417.5	22.55	5.561	3.811	2.939	2.217	2.076	1.710	1.509	1.478	1.329	1.193	1.288	1.015	1.045	0.913	0.820	0.779	0.771	0.807	0.722	0.764	0.760	0.743	0.631	0.658	0.660	0.648	0.821	0.891	1.026	1.100	1.241	1.302	1.055	0.827	0.948	0.857	0.832	0.833	1.009	0.982	1.109	1.257	1.756	2.508	3.366	3.580	2.605	1.685	1.585	1.908	3.056	5.514	10.38	16.99	27.16	29.73	29.73	15.47	5.607	0.834
295.0	365.8	452.0	433.6	288.3	193.9	191.2	213.8	267.1	385.5	766.8	747.0	484.1	747.1	1382	3503	5786	586.4	21.86	5.495	3.713	2.849	2.276	1.893	1.799	1.599	1.412	1.184	1.241	1.050	1.061	0.920	0.840	0.722	0.800	0.789	0.899	0.754	0.803	0.726	0.612	0.706	0.779	0.633	0.831	0.991	1.049	1.333	1.392	1.454	1.135	1.046	1.076	1.008	0.935	0.921	1.031	1.157	1.192	1.187	1.481	1.702	2.021	2.801	4.304	5.133	3.188	2.437	2.280	2.864	3.695	4.929	7.232	8.800	17.86	35.31	35.56	23.79
300.0	420.4	553.4	531.6	361.3	269.1	265.4	312.9	370.3	492.0	770.0	1242	884.1	665.2	661.3	1183	4650	5003	87.42	13.43	4.828	3.382	2.641	2.262	1.721	1.642	1.378	1.274	1.185	1.232	1.039	1.043	0.944	0.875	0.911	0.961	0.850	0.860	0.854	0.862	0.730	0.772	0.791	0.782	0.894	0.977	1.104	1.413	1.592	1.624	1.485	1.367	1.274	1.147	1.123	1.196	1.370	1.524	1.622	1.780	2.232	2.134	2.513	2.794	3.913	5.844	6.627	5.457	4.047	3.443	3.337	3.379	3.568	3.738	5.781	11.92	24.55	42.68
305.0	496.9	658.9	660.7	485.3	388.7	414.2	481.0	695.5	910.6	1190	1661	1680	1241	921.0	868.1	1773	5487	3859	70.58	8.613	4.416	3.415	2.562	1.832	1.890	1.559	1.443	1.347	1.311	1.091	0.987	0.966	0.949	0.956	0.999	0.981	1.020	0.935	0.895	0.883	0.865	0.995	0.790	1.047	1.197	1.368	1.746	2.110	1.954	1.818	1.680	1.669	1.535	1.623	1.674	1.856	2.270	2.754	3.051	3.380	3.680	4.174	5.210	5.369	6.582	7.760	9.209	8.930	7.312	6.086	5.461	4.815	4.357	4.950	5.574	8.515	17.08
310.0	580.8	775.2	786.8	628.2	511.9	556.3	726.2	954.6	1203	1524	1835	2146	2028	1371	1061	1003	2104	3913	3611	299.7	18.63	4.624	3.130	2.512	2.171	1.898	1.650	1.549	1.469	1.199	1.100	1.060	0.976	1.061	0.918	0.939	1.054	0.899	0.942	0.970	1.029	1.047	1.092	1.153	1.382	1.681	1.963	2.367	2.297	2.206	2.094	2.251	2.085	2.116	2.285	2.516	2.991	3.735	3.994	4.378	4.869	5.604	6.545	6.952	7.715	8.315	9.247	10.18	10.59	9.923	8.199	6.869	6.190	5.740	5.382	5.440	6.857
315.0	625.5	935.4	962.7	764.5	655.0	701.6	862.3	1082	1330	1660	1948	2135	2177	1912	1317	950.2	1121	1264	2449	4407	452.1	16.32	5.023	3.088	2.512	2.021	1.956	1.518	1.560	1.299	1.438	1.063	1.137	1.002	0.931	1.038	1.019	0.986	0.985	1.024	0.970	0.986	1.057	1.140	1.476	1.844	2.166	2.892	2.885	2.532	2.500	2.650	2.456	2.658	2.748	2.976	3.475	4.246	4.518	4.840	5.519	6.043	6.588	7.716	8.384	8.934	9.405	9.517	10.31	10.20	10.59	9.921	7.669	7.034	6.040	5.379	5.232
320.0	718.6	1099	1164	912.5	747.5	791.3	957.9	1167	1400	1745	2029	2201	2149	2063	1669	1059	988.9	709.3	769.9	3312	3784	66.22	9.554	3.994	3.004	2.338	2.214	1.813	1.703	1.543	1.551	1.295	1.007	0.998	1.110	1.043	0.932	1.012	0.981	0.931	1.045	0.999	1.202	1.248	1.702	2.060	2.606	3.097	3.267	2.924	2.821	3.109	2.894	2.994	3.073	3.472	3.779	4.369	4.991	5.631	5.780	6.581	6.997	7.988	8.784	9.202	9.476	10.17	10.21	10.13	9.858	10.48	10.24	9.587	7.461	5.972	5.288
325.0	827.7	1307	1521	1211	902.6	839.3	991.3	1181	1389	1699	1986	2171	2116	1935	1856	1225	975.4	623.5	369.5	1034	3607	3008	56.43	6.817	3.589	2.684	2.253	2.096	1.692	1.666	1.391	1.327	1.260	1.096	1.073	0.996	0.946	1.082	1.021	1.000	0.913	1.087	1.223	1.356	1.859	2.426	2.890	3.913	4.269	3.767	3.441	3.774	3.365	3.319	3.375	3.473	3.973	4.613	5.132	5.837	5.697	6.461	7.283	7.651	8.737	9.397	9.440	9.575	10.31	9.711	9.460	9.370	10.14	10.88	9.132	7.331	5.808
330.0	985.4	1711	2185	1938	1401	1045	1044	1189	1367	1655	1939	2133	2127	1919	1768	1487	1161	696.7	379.3	423.9	1115	2705	2922	247.7	17.45	4.155	2.615	2.222	1.910	1.677	1.444	1.313	1.312	1.065	0.995	1.055	1.011	1.002	0.972	0.945	1.013	1.230	1.309	1.538	2.131	2.888	3.805	5.120	5.931	5.717	5.593	6.282	5.382	4.862	4.286	4.189	4.268	4.554	5.281	5.401	5.661	6.312	7.120	7.793	8.232	9.106	9.520	9.884	9.907	9.822	9.698	9.158	9.453	9.533	9.387	8.722	7.877
335.0	1243	2142	3032	2845	2145	1442	1180	1270	1410	1685	1948	2191	2205	2053	1848	1570	1481	967.2	546.3	418.7	458.4	761.8	1935	3524	397.4	18.37	3.897	3.047	2.425	1.898	1.599	1.538	1.289	1.123	0.972	1.042	1.163	1.078	1.065	1.065	1.196	1.279	1.391	1.761	2.468	3.298	4.702	6.464	7.606	7.776	8.140	9.260	8.265	7.661	5.818	4.870	4.862	5.070	5.641	5.702	5.902	6.753	7.110	7.724	7.823	8.976	9.357	9.642	10.24	10.29	10.22	10.26	10.09	9.811	9.518	8.811	8.600
340.0	1308	2269	3273	3229	2482	1624	1275	1310	1445	1677	1950	2176	2212	2101	1903	1604	1495	1202	694.1	490.7	377.6	354.1	624.2	2576	3146	312.1	8.985	3.628	2.836	1.914	1.827	1.385	1.316	1.311	1.133	1.111	1.075	1.015	0.987	1.063	1.064	1.273	1.424	1.773	2.684	3.534	5.050	7.085	8.445	8.689	8.968	10.88	9.549	8.250	6.770	5.747	5.473	5.387	5.907	5.631	5.994	6.565	7.138	7.701	8.255	8.958	9.422	9.776	9.812	10.18	10.42	10.73	10.20	10.12	9.823	8.852	8.765
345.0	1302	2294	3322	3303	2555	1696	1297	1311	1426	1648	1885	2083	2149	2073	1887	1597	1420	1250	876.2	571.3	409.3	308.3	307.2	826.2	2955	2576	50.53	5.932	3.399	2.419	1.877	1.662	1.622	1.207	1.116	1.178	1.106	1.032	0.935	1.176	1.084	1.273	1.444	1.775	2.465	3.382	4.914	6.936	8.339	8.910	8.967	10.94	9.740	8.422	6.865	5.602	5.577	5.471	5.580	5.966	6.211	6.209	7.396	7.424	8.090	8.407	9.195	9.511	9.743	9.876	10.25	10.64	10.88	10.23	9.824	9.378	8.802
350.0	1253	2266	3268	3355	2675	1816	1371	1343	1432	1601	1807	1998	2052	2006	1866	1616	1419	1200	1015	759.2	516.3	380.0	308.7	352.2	919.5	2214	2302	221.0	15.95	3.593	2.407	1.850	1.702	1.415	1.136	1.145	0.993	1.071	1.079	1.066	1.104	1.267	1.497	1.814	2.435	3.416	4.600	6.823	8.004	8.739	9.065	10.97	10.46	9.063	7.331	6.030	5.692	5.765	5.680	5.880	6.173	6.648	7.139	7.115	7.731	8.086	8.597	9.093	9.202	9.332	9.915	10.19	10.39	10.12	9.635	9.254	9.099
355.0	1200	2110	3124	3318	2722	1908	1453	1408	1478	1604	1765	1920	1980	1956	1843	1633	1458	1231	1022	936.3	709.5	486.4	384.9	316.9	357.2	604.3	1516	2783	358.5	16.61	3.687	2.327	1.831	1.656	1.430	1.116	1.129	1.197	1.173	0.986	1.124	1.366	1.460	1.686	2.260	3.463	4.426	6.325	7.650	8.355	8.981	10.74	10.09	9.113	7.637	6.530	6.496	6.002	5.783	5.978	6.429	6.666	7.266	7.168	7.539	8.011	8.372	8.236	9.134	9.092	9.573	9.779	10.17	9.553	9.250	9.509	9.276
360.0	1153	2028	2922	3132	2646	1928	1526	1473	1507	1635	1748	1863	1931	1909	1796	1626	1470	1261	1055	958.5	860.4	595.3	463.3	359.2	279.1	265.3	464.3	2062	2628	281.2	8.421	3.169	2.207	1.824	1.418	1.209	1.061	1.225	1.166	1.108	1.085	1.364	1.542	1.709	2.266	3.352	4.060	6.038	7.323	7.612	8.391	10.34	9.457	9.270	7.819	6.652	6.311	6.418	5.987	6.058	6.473	6.827	7.441	7.095	7.513	8.016	7.862	8.146	8.790	8.859	9.090	9.380	9.314	9.678	9.351	9.309	9.098
365.0	1105	1913	2674	2932	2548	1926	1567	1488	1529	1644	1734	1834	1864	1852	1751	1600	1466	1292	1091	969.8	904.6	758.2	548.7	428.2	314.2	232.8	215.4	659.1	2539	2177	47.42	5.709	2.964	1.858	1.508	1.415	1.264	1.188	1.213	1.086	1.213	1.169	1.467	1.714	2.191	3.055	3.855	5.553	6.625	7.186	7.665	9.776	9.485	8.977	7.719	6.643	6.767	6.623	6.284	6.174	6.759	7.032	7.303	7.230	7.667	7.976	7.820	8.151	7.945	8.831	8.502	8.840	9.300	9.362	9.194	9.313	9.195
370.0	1018	1719	2454	2697	2446	1932	1604	1551	1564	1637	1728	1791	1793	1786	1704	1566	1449	1307	1142	1023	923.7	871.2	738.2	552.3	412.2	301.3	220.0	262.0	790.4	1960	2123	197.2	13.82	2.860	1.916	1.519	1.275	1.332	1.150	1.119	1.104	1.228	1.338	1.560	2.031	3.041	3.654	5.180	6.014	6.421	7.135	9.187	8.923	8.568	7.393	6.598	6.601	6.496	6.485	6.609	6.831	7.109	7.082	7.135	7.565	7.922	7.975	7.929	8.475	8.309	8.871	8.807	9.084	9.132	9.185	9.016	9.028
375.0	954.5	1623	2266	2515	2322	1903	1627	1581	1586	1652	1712	1754	1747	1713	1639	1526	1423	1318	1186	1089	986.7	903.4	872.6	731.2	534.6	400.0	294.9	232.3	293.1	530.9	1453	2375	302.3	12.94	2.989	1.966	1.533	1.387	1.271	0.935	1.111	1.196	1.350	1.707	2.013	2.818	3.398	4.916	5.499	5.983	6.654	8.420	8.558	8.045	7.549	6.810	6.940	6.534	6.551	6.987	6.801	7.155	7.347	7.553	7.418	7.871	7.400	7.698	7.867	7.965	8.399	8.729	8.919	8.654	9.116	8.864	8.698
380.0	909.1	1503	2095	2330	2228	1877	1667	1602	1598	1646	1707	1736	1691	1662	1577	1496	1406	1315	1212	1122	1036	947.9	899.6	851.8	657.7	488.2	364.4	272.3	220.4	220.9	443.6	1825	2072	222.0	6.324	2.611	1.997	1.420	1.339	1.242	1.307	1.217	1.325	1.710	2.155	2.571	3.209	4.478	5.300	5.747	6.332	7.887	7.988	7.656	7.181	6.664	6.806	6.335	6.801	6.767	7.169	6.980	7.245	7.481	7.698	7.716	7.644	7.634	7.870	7.973	8.223	8.095	8.342	8.673	8.767	8.683	8.846
385.0	890.9	1422	1972	2228	2158	1869	1682	1600	1613	1631	1674	1705	1648	1613	1535	1446	1372	1293	1219	1145	1069	995.3	926.6	885.2	784.1	577.3	437.1	330.8	248.4	186.1	189.3	581.6	2022	1620	37.40	4.629	2.630	1.637	1.459	1.194	1.196	1.240	1.402	1.525	2.081	2.433	3.181	4.351	4.997	5.012	5.917	7.819	7.562	7.714	6.915	6.746	6.959	6.258	6.774	6.970	6.859	7.165	7.163	7.479	7.500	7.470	7.140	7.434	7.698	7.832	7.796	7.660	8.249	8.218	8.377	8.071	8.839
390.0	850.0	1343	1861	2090	2074	1853	1684	1622	1607	1625	1655	1647	1600	1556	1475	1389	1321	1267	1209	1155	1102	1044	979.7	912.3	861.6	729.4	551.9	423.1	326.2	242.0	179.3	220.3	632.7	1479	1441	154.5	11.44	2.827	1.830	1.403	1.384	1.268	1.376	1.568	1.906	2.406	3.093	3.897	4.736	4.818	5.445	7.127	7.301	7.205	7.020	6.542	6.953	6.731	7.102	7.020	6.784	6.962	7.014	7.214	7.341	7.396	7.169	7.179	7.460	7.680	7.620	7.813	7.664	8.042	8.125	8.128	8.433
395.0	831.1	1318	1732	1984	1960	1860	1701	1639	1614	1616	1614	1604	1546	1497	1421	1340	1282	1222	1189	1155	1123	1079	1029	966.7	891.7	831.1	698.8	527.4	416.0	322.6	234.6	181.6	227.6	402.1	1051	1752	241.0	10.08	2.982	1.830	1.631	1.514	1.479	1.700	1.872	2.294	2.816	3.687	4.370	4.406	5.111	6.845	6.968	7.186	6.893	6.582	6.949	7.025	6.872	7.019	6.931	6.798	6.955	7.006	7.293	7.079	6.841	6.952	7.363	7.562	7.320	7.086	7.359	7.944	7.854	7.822	7.970
400.0	785.9	1253	1652	1905	1872	1828	1706	1636	1592	1597	1597	1580	1536	1461	1384	1293	1241	1195	1172	1146	1126	1092	1057	997.3	927.1	851.5	790.3	631.1	489.2	388.1	289.0	208.7	164.4	166.8	329.8	1392	1459	38.40	5.581	2.645	1.826	1.564	1.463	1.685	1.959	2.319	2.791	3.672	3.972	4.359	4.967	6.504	6.816	7.107	6.921	6.935	7.347	6.986	6.600	7.065	6.868	7.109	7.089	7.117	7.100	6.929	6.740	6.982	6.993	7.436	7.055	7.389	7.636	7.498	7.866	7.513	7.669
405.0	813.9	1207	1589	1810	1838	1814	1701	1643	1606	1576	1584	1561	1506	1425	1353	1259	1197	1163	1148	1121	1108	1093	1068	1023	955.2	871.0	811.8	726.4	565.7	447.8	343.6	252.2	183.6	135.3	141.2	449.1	1463	1146	32.03	4.301	2.264	1.664	1.548	1.703	1.894	2.379	2.850	3.648	4.278	4.423	4.892	6.332	6.358	6.737	6.954	6.823	7.025	6.986	6.855	6.919	6.808	7.134	7.002	7.232	7.093	6.886	6.865	6.616	6.773	7.178	7.063	7.035	7.249	7.251	7.224	7.488	7.552
410.0	762.6	1149	1504	1763	1834	1781	1714	1628	1575	1561	1557	1524	1452	1378	1294	1206	1141	1116	1094	1088	1080	1072	1059	1027	978.8	899.0	825.2	766.4	671.0	530.1	408.8	309.9	226.5	163.3	124.7	163.5	461.2	1097	1054	139.4	8.816	2.411	1.931	1.853	1.888	2.319	2.762	3.535	4.017	4.166	4.501	5.923	6.322	6.362	6.481	6.609	7.109	7.061	7.205	6.853	6.753	6.897	6.754	6.914	6.927	6.759	6.907	6.753	6.696	6.795	6.791	6.836	7.145	7.102	6.825	6.938	7.423
415.0	732.9	1086	1445	1685	1759	1737	1687	1632	1558	1534	1515	1464	1389	1314	1224	1138	1076	1059	1038	1027	1027	1033	1037	1013	974.6	911.0	839.5	767.2	717.1	622.3	472.5	358.9	268.4	200.2	146.3	118.7	156.8	291.6	763.5	1223	202.6	7.213	2.789	2.021	1.949	2.352	2.593	3.454	3.820	4.057	4.346	5.558	6.232	6.265	6.265	6.389	6.789	7.095	7.239	6.527	6.527	6.833	6.525	6.714	6.613	6.341	6.602	6.372	6.458	6.501	6.430	6.775	6.485	6.368	6.595	6.688	7.082
420.0	687.9	1072	1400	1619	1717	1704	1669	1598	1539	1510	1466	1421	1347	1267	1181	1079	1031	1009	989.7	984.3	987.1	991.8	999.5	989.4	952.9	902.7	837.4	772.6	714.3	663.2	527.2	392.7	297.3	225.3	165.2	121.7	97.84	105.9	228.0	962.7	1072	34.65	4.404	2.568	2.199	2.404	2.792	3.150	3.758	3.851	4.327	5.280	5.990	6.201	6.358	6.480	6.823	6.922	7.260	6.625	6.436	7.043	6.467	6.432	6.459	6.547	6.234	6.082	5.916	6.460	6.226	6.636	6.494	6.467	5.968	6.479	6.662
425.0	640.3	1038	1330	1553	1676	1675	1680	1604	1521	1477	1432	1386	1307	1224	1132	1040	985.2	961.6	945.0	949.1	949.0	956.3	962.7	961.0	931.3	891.3	831.4	770.2	709.8	658.9	571.5	430.0	325.5	247.3	186.1	134.8	96.98	74.37	83.64	303.9	1059	850.1	28.56	3.743	2.589	2.526	2.757	2.956	3.454	3.668	4.057	5.134	5.482	5.977	6.271	6.244	6.630	6.810	6.990	6.698	6.673	6.872	6.047	6.224	6.415	6.291	6.177	6.043	5.668	6.210	6.011	6.156	6.039	6.165	5.868	6.003	6.453
430.0	694.4	997.2	1300	1507	1627	1653	1664	1597	1508	1451	1399	1339	1262	1182	1088	991.5	941.9	911.0	904.3	900.3	894.7	904.6	913.1	914.5	897.5	863.7	817.0	768.6	711.3	648.8	583.7	486.1	363.6	279.1	213.6	159.0	115.7	81.97	63.26	97.28	322.4	794.1	840.0	127.7	8.559	3.128	2.906	3.210	3.430	3.730	3.933	5.191	5.697	5.814	6.018	6.143	6.924	6.734	7.074	6.909	6.580	6.602	6.203	6.103	6.174	6.113	5.924	5.873	5.772	6.036	5.951	5.788	5.858	5.913	5.827	5.951	5.976
435.0	824.0	941.8	1265	1462	1584	1664	1672	1605	1511	1427	1362	1299	1225	1142	1044	952.9	899.0	867.1	856.0	843.8	846.4	846.7	864.0	869.5	859.1	836.0	798.3	757.8	711.1	648.2	575.4	507.6	416.3	317.7	239.6	184.1	137.6	99.59	71.74	61.32	100.1	205.0	595.7	1030	193.3	8.037	3.429	3.473	3.590	3.655	3.960	5.162	5.551	5.926	6.307	6.380	6.866	7.236	6.967	7.266	6.996	6.449	6.362	6.215	6.143	5.890	5.523	5.394	5.323	5.955	5.615	5.520	5.486	5.763	5.645	5.894	5.558
440.0	974.5	957.3	1222	1434	1555	1655	1656	1617	1492	1416	1339	1277	1186	1105	1004	919.8	863.3	838.7	821.2	809.8	805.0	805.6	823.0	827.3	824.6	806.3	778.3	748.1	702.1	650.3	574.7	502.1	438.5	350.2	260.6	201.3	154.4	113.6	83.22	62.53	55.22	69.97	176.0	799.6	948.8	31.99	5.323	3.845	3.536	3.512	3.990	5.077	5.399	5.823	6.284	6.292	7.038	6.864	6.774	6.894	6.920	6.455	6.260	6.169	6.237	5.766	5.411	5.335	5.577	5.646	5.526	5.645	5.506	5.743	5.208	5.601	5.781
445.0	1091	1052	1192	1387	1556	1634	1645	1588	1479	1384	1297	1235	1145	1072	967.5	892.4	834.8	810.0	791.5	773.8	764.0	767.7	781.2	790.6	789.7	773.4	755.6	723.7	687.6	642.4	570.0	495.1	434.4	370.9	280.0	215.2	166.4	126.5	95.15	70.47	53.78	45.38	61.26	251.2	926.7	748.5	25.88	4.758	3.828	3.527	3.939	4.858	5.593	5.663	6.165	6.105	6.972	6.823	6.983	6.612	6.609	6.329	5.924	6.019	5.877	5.509	5.361	5.168	5.251	5.382	5.525	5.310	5.541	5.266	5.220	5.697	5.372
450.0	868.3	1338	1198	1344	1475	1576	1620	1563	1438	1330	1243	1175	1083	1006	911.2	838.2	788.7	761.2	738.9	718.1	708.0	705.1	711.5	721.7	728.2	719.2	704.9	685.8	656.3	615.4	556.0	485.7	417.5	368.4	306.5	235.8	181.1	140.5	108.3	83.67	63.83	49.84	42.88	76.96	277.4	686.3	729.3	117.2	9.020	3.914	3.899	4.905	5.365	5.521	5.792	6.034	6.653	6.765	7.010	6.392	6.347	6.056	5.895	5.704	5.791	5.477	5.215	5.210	5.196	5.066	5.256	5.261	5.293	5.150	5.066	5.224	5.166
455.0	603.6	1470	1443	1241	1388	1491	1538	1501	1387	1258	1174	1095	1023	935.7	850.5	772.6	731.2	705.0	680.8	661.1	638.0	635.5	647.0	650.1	661.2	654.2	646.2	629.1	610.8	583.3	533.0	465.6	401.8	349.2	308.2	257.9	197.3	153.1	122.2	96.15	75.81	58.79	45.37	43.77	81.10	173.8	452.0	861.7	163.1	8.550	4.276	4.585	4.897	5.207	5.532	5.714	6.516	6.480	6.462	6.254	6.053	6.094	5.612	5.651	5.347	4.959	4.962	5.018	4.730	4.821	4.988	4.714	4.790	4.846	4.671	4.871	4.726
460.0	473.3	1231	1810	1221	1330	1430	1483	1445	1313	1190	1103	1044	960.4	888.8	806.2	725.2	681.7	658.0	630.9	614.5	590.1	589.1	592.4	599.2	609.0	603.2	601.9	587.1	574.8	548.8	508.5	450.3	390.8	337.9	293.7	263.2	211.0	158.0	129.8	103.5	82.84	64.92	50.65	39.59	40.80	55.53	126.6	606.2	743.3	118.9	6.211	4.603	4.784	5.182	5.152	5.254	6.046	6.228	6.100	6.072	5.646	6.006	5.704	5.287	5.036	4.914	4.838	4.634	4.529	4.299	4.595	4.275	4.383	4.537	4.440	4.275	4.330
465.0	444.3	907.0	1970	1424	1240	1347	1418	1364	1250	1142	1049	982.8	909.5	840.6	755.9	679.3	640.9	612.0	591.5	568.9	546.2	546.2	546.0	552.3	561.7	558.8	554.3	547.6	540.1	521.1	482.4	430.2	377.9	327.3	282.5	251.9	218.5	168.7	134.4	109.4	89.37	70.59	54.50	41.83	34.38	30.70	42.42	179.6	668.3	624.4	22.64	5.616	4.719	4.993	5.208	5.235	5.533	5.980	5.712	5.842	5.510	5.394	5.337	5.317	4.859	4.585	4.647	4.616	4.185	4.211	4.280	4.265	4.215	4.408	4.106	4.226	4.244
470.0	407.1	687.9	1488	1905	1234	1235	1292	1249	1152	1050	955.1	897.7	828.2	760.9	687.5	617.9	577.1	552.1	533.6	507.6	487.9	480.9	485.0	491.7	498.8	494.3	493.3	489.5	487.6	473.6	440.9	397.6	352.7	308.3	267.1	233.7	210.0	177.9	140.2	113.0	92.03	74.25	59.47	46.55	36.79	28.46	26.19	52.77	191.4	488.5	523.7	113.9	10.19	4.851	4.989	4.792	5.465	5.462	5.365	5.475	5.137	5.009	4.929	4.599	4.470	4.346	4.250	4.225	4.071	4.009	3.936	4.018	3.772	4.068	3.813	3.612	3.851
475.0	377.4	578.6	917.4	1977	1594	1106	1147	1127	1035	950.2	866.5	816.6	746.5	681.5	613.5	554.3	514.8	491.2	469.4	445.8	425.8	419.2	420.0	426.7	433.0	432.9	433.3	430.8	433.5	419.3	397.2	362.6	320.9	284.6	246.5	217.5	191.1	171.8	148.4	115.0	94.78	76.84	61.92	50.49	39.43	30.61	25.03	25.99	53.87	119.5	262.2	565.6	167.6	11.41	4.641	4.722	5.153	5.096	4.808	4.916	4.985	4.624	4.424	4.150	3.758	3.888	3.790	3.924	3.738	3.540	3.634	3.588	3.724	3.552	3.429	3.363	3.526
480.0	389.2	551.2	728.7	1550	2018	1113	1062	1052	964.0	871.2	812.1	750.4	687.0	625.5	569.1	513.1	470.5	448.7	429.8	407.1	389.5	384.3	381.4	387.0	394.4	392.2	394.1	393.3	392.8	382.7	364.2	339.0	299.2	267.6	235.0	205.9	180.5	161.5	147.3	120.6	95.73	77.72	63.68	51.90	41.26	33.32	25.94	21.97	24.38	36.10	70.60	320.3	566.6	145.3	7.125	4.619	4.730	4.961	4.615	4.502	4.614	4.058	3.985	4.151	3.648	3.775	3.647	3.219	3.467	3.422	3.431	3.164	3.537	3.308	3.090	2.997	3.231
485.0	361.3	517.8	658.6	1075	2143	1331	994.5	963.3	891.8	807.7	763.5	696.4	646.5	583.0	531.6	476.7	439.0	418.6	395.9	377.3	359.8	350.6	349.2	354.7	361.1	365.2	361.6	360.7	362.6	354.3	341.1	317.8	283.2	253.3	223.3	199.1	173.5	151.7	139.9	125.8	100.4	79.33	65.09	53.62	43.13	35.31	27.77	22.19	18.92	18.61	24.47	89.99	419.5	528.4	27.77	5.470	4.713	4.543	4.450	4.223	4.254	3.863	3.908	4.067	3.402	3.669	3.402	3.179	3.381	3.129	3.351	2.970	3.187	3.059	3.133	3.162	2.981
490.0	296.5	495.2	611.3	778.4	1564	1889	1011	884.8	817.2	749.2	697.0	641.4	591.9	534.6	480.4	429.2	399.5	375.4	358.2	339.3	322.0	313.7	313.7	319.4	322.8	324.9	322.4	322.7	327.0	320.6	310.8	288.3	262.2	234.7	211.1	185.9	163.9	143.2	128.3	118.4	103.7	82.75	66.54	54.47	45.39	36.96	30.20	23.71	19.38	16.22	15.18	27.97	113.9	320.7	443.1	119.9	12.55	4.537	4.169	3.911	3.976	3.692	3.549	3.539	3.173	3.213	3.225	3.054	2.997	2.770	2.931	2.782	2.819	2.811	2.872	2.737	2.858
495.0	246.2	449.7	571.3	639.6	923.2	1940	1410	795.5	722.9	668.4	626.7	582.5	532.0	480.2	432.7	389.0	354.9	334.3	320.2	299.2	287.7	277.5	277.6	279.2	284.0	286.9	284.3	285.8	291.5	286.2	276.9	257.8	236.9	211.9	193.4	173.4	151.8	135.5	120.5	107.9	100.9	87.99	69.53	56.18	46.74	38.00	31.63	26.22	20.84	16.66	14.03	15.48	32.87	78.63	201.2	516.2	207.1	14.52	3.991	3.669	3.587	3.420	3.167	3.114	3.006	2.847	2.781	2.800	2.592	2.574	2.508	2.401	2.612	2.538	2.444	2.475	2.544
500.0	217.8	389.1	546.0	580.0	692.6	1433	1889	792.4	656.7	610.8	578.2	534.7	484.6	445.5	390.8	350.5	320.4	302.9	287.7	272.0	257.6	254.4	251.6	248.7	254.8	257.2	258.3	259.0	263.4	259.9	253.3	235.4	216.0	196.3	178.1	161.6	142.6	127.6	113.4	100.2	92.75	86.24	70.28	55.90	47.39	38.93	32.46	26.76	21.26	18.12	14.74	13.17	15.55	24.61	53.30	256.0	546.9	169.7	8.499	3.543	3.325	3.304	3.049	2.857	2.839	2.582	2.623	2.582	2.489	2.551	2.294	2.355	2.408	2.253	2.275	2.263	2.430
505.0	200.1	343.7	508.8	538.2	585.4	944.6	2026	1014	617.5	564.2	529.9	494.5	446.0	402.0	360.1	324.9	293.1	274.4	261.2	246.6	235.1	225.0	225.2	227.0	231.0	232.4	231.8	233.4	236.1	236.7	227.4	213.9	197.0	180.7	164.1	149.3	133.7	119.2	106.9	94.44	85.71	78.87	70.45	56.50	46.19	38.35	32.52	27.03	21.72	18.50	15.76	13.06	12.33	12.99	18.30	68.21	321.1	495.3	31.57	5.455	3.133	3.142	2.840	2.825	2.505	2.411	2.302	2.377	2.256	2.494	2.163	2.162	2.119	2.222	2.098	2.196	2.148
510.0	174.4	297.4	416.8	505.5	507.2	622.9	1429	1650	633.8	500.8	466.8	434.9	396.3	353.7	312.1	282.1	255.6	239.2	228.0	215.0	203.6	197.1	195.9	196.3	199.1	199.7	200.5	200.8	205.0	205.3	199.8	187.1	173.0	159.6	144.8	132.5	118.8	107.8	96.22	86.29	77.44	70.05	64.99	57.00	46.67	37.61	31.63	26.79	22.11	18.81	16.24	13.77	11.81	11.00	11.07	21.39	83.01	245.9	353.8	131.9	12.69	3.014	2.730	2.669	2.289	2.290	2.226	2.108	2.013	2.244	1.864	2.083	1.954	2.069	1.879	1.952	1.972
515.0	160.0	259.2	338.3	478.9	457.2	486.5	748.4	1812	1060	439.7	406.9	380.5	342.2	309.1	275.8	241.9	222.5	205.7	194.3	185.2	172.8	168.2	167.3	168.0	169.9	170.1	169.5	172.2	173.8	174.5	171.1	161.8	149.9	137.6	124.5	115.7	106.5	95.51	86.72	77.80	68.72	62.14	55.93	53.78	47.38	37.35	31.04	26.25	22.03	18.62	15.83	14.16	11.83	10.43	9.814	11.53	24.34	59.59	126.2	381.5	208.7	15.57	2.685	2.464	2.257	2.065	2.094	1.922	2.089	1.878	1.663	1.665	1.614	1.599	1.604	1.878	1.683
520.0	152.2	222.5	287.4	400.9	438.2	420.2	498.1	1310	1638	459.0	362.1	342.8	306.4	276.3	242.5	220.0	197.3	185.2	174.1	164.4	152.9	148.9	147.6	147.3	149.7	148.2	150.8	152.8	153.4	155.3	150.7	144.1	133.4	124.3	112.2	104.9	96.50	86.46	77.91	69.80	63.00	56.53	50.60	47.98	45.64	37.83	30.48	25.00	21.89	18.42	15.74	13.85	12.21	10.81	9.342	8.896	10.70	18.04	32.89	160.8	394.5	165.5	8.693	2.337	2.080	1.925	1.866	1.740	1.916	1.673	1.620	1.470	1.565	1.625	1.505	1.451	1.559
525.0	136.5	183.4	256.3	353.4	428.9	375.6	404.3	744.3	1921	710.1	330.2	306.3	275.9	246.7	219.3	194.1	175.3	167.2	157.4	146.6	136.8	133.9	132.4	133.7	133.7	131.4	134.1	134.7	137.2	139.4	134.5	128.6	119.3	111.4	101.5	94.72	86.47	78.82	71.09	64.94	59.15	52.00	46.71	42.42	41.16	38.19	31.26	24.19	20.48	17.86	15.25	13.39	12.04	10.82	9.136	8.044	7.634	8.795	11.65	41.13	198.0	360.8	32.87	4.314	1.919	1.830	1.702	1.689	1.657	1.551	1.562	1.389	1.298	1.418	1.380	1.314	1.392
530.0	122.5	169.1	224.0	275.6	376.6	360.9	340.5	414.7	1281	1472	380.2	263.4	236.2	213.0	189.6	167.8	152.2	141.8	134.9	125.4	119.0	113.9	113.8	113.4	114.3	113.2	114.9	115.0	116.8	119.2	116.1	109.7	103.0	96.22	87.80	82.29	75.78	69.55	62.72	57.50	50.98	46.84	42.00	37.61	35.49	34.48	31.20	24.26	19.80	16.79	14.67	12.94	11.16	10.55	9.165	8.049	7.072	6.944	6.967	12.59	49.65	156.7	216.8	127.8	12.50	1.906	1.653	1.507	1.534	1.482	1.422	1.324	1.249	1.393	1.319	1.271	1.293
535.0	99.47	139.5	181.8	226.1	297.5	346.5	294.5	299.7	545.7	1663	837.5	230.2	204.7	182.5	161.0	141.0	129.7	119.7	114.0	107.1	99.91	98.46	95.69	95.20	95.56	94.93	97.17	96.47	97.13	100.4	97.97	92.31	86.80	81.45	75.26	70.25	64.62	59.21	54.63	49.68	45.47	41.01	36.52	33.18	29.74	27.92	28.06	24.23	19.29	15.58	13.58	12.04	10.33	9.888	8.914	7.976	6.742	6.209	5.547	6.200	14.28	37.47	71.10	239.8	187.1	14.46	1.604	1.534	1.406	1.329	1.360	1.109	1.143	1.285	1.194	1.214	1.069
540.0	91.50	129.9	156.2	193.4	239.6	323.2	274.2	248.2	306.1	1114	1471	240.4	182.7	159.8	136.8	124.5	111.3	106.4	97.32	91.85	87.35	86.08	83.16	83.20	82.32	82.92	85.04	84.64	85.03	87.03	84.64	80.70	75.76	71.43	64.71	62.04	56.90	52.62	48.51	44.79	40.32	37.27	33.66	29.80	26.87	25.20	24.20	23.13	19.53	14.95	13.15	11.29	10.10	9.156	7.886	8.026	6.794	6.115	5.245	4.797	6.041	11.02	18.23	91.44	266.9	132.7	7.588	1.558	1.121	1.194	1.151	1.157	1.119	1.058	1.088	1.030	1.015
545.0	90.50	123.4	150.1	174.0	200.0	280.0	271.3	214.8	228.6	540.3	1765	459.6	161.4	142.2	122.4	110.2	99.14	93.05	87.34	81.57	76.48	73.96	73.74	73.77	72.96	73.66	74.02	73.34	73.77	75.28	73.41	72.35	66.73	62.86	57.26	54.64	50.61	45.97	43.68	39.24	36.84	33.00	30.32	26.89	25.18	22.38	20.89	20.98	18.64	14.47	11.88	10.51	9.172	8.328	7.932	7.108	6.829	5.695	4.998	4.318	4.140	4.904	6.396	23.26	119.8	249.8	33.06	3.320	1.145	1.092	1.073	1.014	0.971	0.952	0.857	0.863	0.899
550.0	76.74	109.0	129.9	145.8	161.1	200.7	251.4	196.7	179.4	257.4	1079	1185	173.3	119.4	103.6	92.14	83.38	77.12	70.98	67.48	63.25	60.97	61.67	60.08	60.25	59.40	59.98	60.10	61.25	62.26	61.46	58.90	55.06	51.78	48.91	45.60	42.17	38.21	36.28	33.44	31.21	27.99	25.46	23.05	21.41	19.52	17.80	16.74	16.57	14.13	11.35	9.673	8.243	7.489	6.966	6.231	6.218	5.555	4.603	3.793	3.629	3.450	3.457	7.030	29.46	101.9	163.8	94.08	11.08	1.240	1.000	0.883	0.848	0.918	0.863	0.875	0.874
555.0	67.43	97.92	117.8	125.6	128.5	150.9	209.7	191.6	147.2	161.4	382.5	1434	520.5	99.36	83.89	75.69	68.72	62.01	57.47	55.70	51.68	49.15	49.63	48.70	48.34	48.44	46.76	49.11	49.66	49.73	48.99	47.01	44.27	40.88	38.67	36.11	34.19	31.86	29.73	27.27	25.16	23.17	20.97	19.61	17.63	16.31	14.28	13.61	13.13	12.30	11.04	8.676	7.197	6.425	5.953	5.510	5.318	4.886	4.529	3.623	3.228	2.925	2.822	3.348	8.059	24.16	50.50	151.0	121.8	11.44	1.120	0.910	0.888	0.810	0.756	0.779	0.807
560.0	72.36	83.14	109.5	112.5	111.0	120.7	160.1	196.2	131.4	126.7	175.2	903.3	1076	110.9	70.64	63.25	56.99	53.04	48.23	46.33	43.46	41.21	41.48	41.22	40.45	39.99	39.36	40.50	41.73	41.32	41.04	39.21	37.72	35.04	32.50	30.45	28.88	26.63	24.88	22.64	21.39	19.44	17.88	16.98	15.12	13.87	12.04	11.36	10.50	10.49	10.43	8.423	6.558	5.936	5.355	4.854	4.773	4.521	4.449	3.358	2.945	2.592	2.483	2.478	3.324	6.797	12.75	56.46	164.1	89.44	5.039	0.976	0.754	0.741	0.778	0.694	0.675
565.0	75.77	83.77	96.91	99.52	97.29	102.1	122.2	185.2	129.4	107.8	116.9	380.7	1371	165.6	60.71	53.93	48.96	44.01	42.60	39.24	37.24	35.26	34.65	35.39	33.83	34.31	33.11	34.29	35.93	35.71	34.81	33.30	31.75	29.26	26.80	25.88	24.67	22.04	20.89	19.49	17.80	16.69	15.46	14.58	12.95	11.56	11.11	9.679	8.645	8.513	8.921	8.031	5.794	5.447	4.597	4.578	4.213	3.803	3.796	3.695	2.830	2.411	2.311	2.068	2.203	2.842	3.926	14.07	70.94	158.0	30.97	2.260	0.751	0.753	0.618	0.620	0.761
570.0	68.73	84.50	88.14	80.97	80.12	82.63	89.57	139.7	141.0	94.52	92.08	152.8	824.5	800.5	79.82	44.11	39.06	35.91	33.84	31.19	30.05	28.43	28.63	28.12	27.46	27.08	27.44	27.27	28.16	28.33	27.79	26.59	25.47	23.65	21.91	20.72	19.91	17.90	17.27	16.08	14.85	13.47	12.76	11.93	10.63	9.719	9.242	8.024	7.361	6.833	6.907	6.919	5.842	4.743	4.251	3.988	3.444	3.257	3.148	3.060	2.763	2.366	2.019	1.866	1.876	1.834	2.080	4.277	17.39	62.05	98.03	60.59	7.952	0.698	0.591	0.600	0.657
575.0	64.54	80.51	76.49	72.05	66.82	70.08	72.85	91.37	142.3	95.54	77.11	88.25	264.9	1022	305.3	36.54	31.72	29.01	27.30	25.44	23.49	22.65	22.07	22.24	21.94	21.60	21.21	21.47	22.40	22.65	21.87	20.50	20.33	17.99	17.16	16.01	15.49	14.61	13.80	12.81	11.98	10.47	10.14	9.266	8.609	8.079	7.537	6.910	6.232	5.309	5.205	5.377	5.253	4.518	3.555	3.412	2.731	2.883	2.528	2.471	2.559	2.526	2.019	1.649	1.713	1.466	1.623	1.871	4.834	14.83	29.62	90.09	72.86	7.376	0.683	0.645	0.605
580.0	66.60	80.92	69.89	63.92	56.61	61.07	60.53	71.97	126.6	113.0	73.53	73.20	107.0	638.3	712.5	43.86	27.45	24.62	22.54	21.32	19.94	19.05	19.07	18.73	18.39	18.42	17.85	18.10	18.45	18.95	18.28	17.05	17.12	16.02	14.48	13.51	13.19	12.29	11.46	10.68	10.28	9.109	8.974	8.065	7.261	7.021	6.480	6.067	5.356	4.511	4.417	4.270	4.653	4.496	3.595	2.945	2.690	2.599	2.247	2.189	2.158	2.232	2.117	1.618	1.558	1.503	1.324	1.338	2.039	4.280	7.413	32.51	95.66	33.46	3.150	0.659	0.593
585.0	61.92	77.28	70.42	62.27	54.05	52.76	56.85	59.26	94.90	124.8	70.63	65.38	65.56	251.3	935.0	97.44	23.23	21.23	19.08	17.45	16.62	16.13	16.27	16.04	16.26	15.81	15.02	15.45	15.60	16.00	15.01	14.89	14.31	13.21	12.63	11.34	11.68	10.23	9.864	9.092	8.617	8.234	7.608	6.902	6.527	6.215	5.697	5.162	4.748	4.281	3.812	3.473	3.777	4.008	3.480	2.888	2.530	2.192	2.165	2.034	1.817	1.839	2.086	1.712	1.361	1.219	1.099	1.153	1.405	1.817	2.504	8.238	41.39	84.99	26.85	1.476	0.539
590.0	59.22	63.82	69.32	54.83	47.62	45.19	50.33	52.02	67.75	116.2	84.35	58.66	53.60	90.30	554.9	483.8	32.84	18.05	15.73	15.40	13.99	13.47	13.48	12.78	12.87	12.56	12.47	12.99	13.05	12.72	12.52	12.10	11.39	10.62	10.27	9.374	9.101	8.616	8.019	7.727	7.022	6.625	6.247	5.821	5.303	5.053	4.787	4.196	3.864	3.475	3.216	2.942	2.976	3.066	3.137	2.798	2.363	2.041	1.817	1.775	1.644	1.529	1.580	1.790	1.480	1.206	1.044	1.076	1.223	1.148	1.398	2.511	10.20	33.91	60.38	39.75	5.346
595.0	54.99	69.97	60.38	48.94	43.25	38.88	44.16	44.46	52.68	85.69	105.2	59.09	50.22	50.83	168.1	651.0	96.34	15.24	13.23	12.17	11.46	10.90	10.56	10.22	10.27	10.22	9.918	10.17	9.914	9.956	9.822	9.578	8.940	8.821	7.989	7.323	6.838	6.679	6.292	5.914	5.172	5.127	5.061	4.566	4.380	4.160	3.976	3.432	3.219	2.742	2.569	2.575	2.380	2.359	2.528	2.661	2.124	1.942	1.677	1.433	1.465	1.502	1.342	1.364	1.479	1.344	1.070	1.049	1.014	0.814	1.039	1.131	2.800	8.040	17.63	53.99	35.15
600.0	58.38	58.55	59.76	43.84	40.45	36.32	41.37	44.85	49.21	68.80	111.3	68.94	53.04	41.39	62.17	424.6	379.6	19.69	11.27	9.759	10.02	9.618	8.556	8.953	8.775	8.097	8.162	8.575	8.644	8.822	8.463	7.826	7.570	7.261	6.643	6.348	5.758	5.839	5.373	5.022	4.504	4.118	4.152	3.767	3.581	3.417	3.239	2.959	2.867	2.489	2.259	2.367	1.945	1.929	2.090	2.323	2.296	1.734	1.443	1.396	1.386	1.298	1.219	1.256	1.187	1.394	1.187	1.019	1.003	0.810	0.881	0.830	1.211	2.302	4.375	19.28	55.33
605.0	51.83	59.24	53.48	47.41	41.20	36.07	43.35	49.62	55.60	69.05	113.7	95.45	60.70	48.39	43.04	174.4	562.2	55.70	10.30	9.183	8.857	7.526	7.287	7.662	7.204	6.894	7.185	6.862	7.170	6.946	6.920	6.996	6.249	5.740	5.667	5.554	5.185	4.883	4.324	4.275	4.042	3.622	3.635	3.328	3.041	2.844	2.842	2.554	2.581	2.214	1.943	1.869	1.700	1.637	1.618	1.986	2.151	1.676	1.382	1.200	1.229	1.168	1.080	1.055	1.139	1.206	1.323	0.980	0.976	0.959	0.735	0.835	0.843	1.155	1.460	4.888	24.06
610.0	53.63	62.82	55.16	46.89	41.19	42.70	50.64	62.34	74.39	92.46	119.5	140.0	93.84	68.79	56.40	75.99	385.4	286.8	14.34	7.717	7.368	6.573	6.203	6.790	6.106	5.779	5.884	5.757	5.846	5.706	5.976	5.514	5.187	5.011	4.810	4.384	4.214	3.849	3.687	3.495	3.210	3.054	2.922	2.708	2.682	2.506	2.382	2.214	2.048	1.806	1.720	1.595	1.429	1.383	1.427	1.449	1.814	1.727	1.423	1.141	1.155	1.210	1.078	1.203	1.063	1.090	1.321	1.288	1.094	0.915	0.807	0.863	0.758	0.868	0.874	1.694	6.036
615.0	53.59	60.61	56.96	49.15	39.92	42.39	53.19	65.81	79.19	96.77	116.8	153.5	118.5	77.53	64.14	53.52	142.2	436.6	64.90	6.942	5.727	5.286	4.981	5.059	4.783	4.377	4.693	4.836	4.502	4.739	4.760	4.533	4.272	4.051	3.597	3.445	3.354	3.102	2.954	2.785	2.498	2.594	2.334	2.087	2.178	1.790	1.887	1.830	1.873	1.606	1.468	1.377	1.305	1.220	1.174	1.210	1.420	1.521	1.537	1.199	1.048	1.069	0.979	1.248	0.973	1.107	1.139	1.365	1.202	0.986	0.885	0.997	0.710	0.755	0.732	0.916	1.914
620.0	52.99	59.54	55.65	44.78	40.36	41.12	50.86	62.88	79.21	95.43	108.3	136.6	128.6	78.47	62.41	46.65	66.66	316.6	225.9	7.737	4.911	5.138	4.374	4.197	4.253	3.752	3.938	4.067	4.172	4.246	4.056	3.796	3.428	3.418	3.011	2.850	2.914	2.670	2.635	2.575	2.211	2.215	1.919	1.965	1.899	1.737	1.561	1.551	1.409	1.325	1.184	1.250	1.177	1.004	1.114	1.079	1.113	1.145	1.436	1.211	1.044	0.998	1.002	1.013	1.006	1.051	1.024	1.128	1.149	1.206	0.863	0.801	0.728	0.718	0.669	0.653	0.925
625.0	56.08	58.81	55.41	47.73	35.90	41.14	47.98	61.72	76.97	89.04	103.5	118.6	129.9	81.04	62.17	44.78	45.30	143.5	361.9	24.21	4.560	4.126	3.865	3.809	3.550	3.428	3.510	3.617	3.461	3.469	3.503	3.238	2.942	3.072	2.683	2.473	2.542	2.304	2.223	1.998	2.016	1.891	1.730	1.561	1.426	1.379	1.481	1.278	1.243	1.121	0.955	1.046	1.047	0.877	0.916	1.006	0.936	1.030	1.211	1.224	0.982	0.957	0.940	0.984	0.904	1.000	0.899	1.070	1.164	1.143	0.929	0.748	0.752	0.699	0.703	0.569	0.603
630.0	52.96	52.95	56.87	42.33	39.60	40.00	49.54	60.53	71.29	83.76	97.71	106.5	119.7	91.31	62.49	44.18	41.41	53.52	268.0	147.4	6.256	3.344	3.313	3.028	2.994	2.892	2.758	2.885	2.736	2.844	2.790	2.599	2.328	2.376	2.175	2.060	1.952	1.930	1.745	1.656	1.620	1.539	1.342	1.382	1.344	1.147	1.136	1.121	1.022	0.956	0.883	0.899	0.859	0.775	0.843	0.862	0.878	0.814	0.992	1.025	1.005	0.949	0.861	0.791	0.841	0.875	0.866	0.967	0.936	0.967	0.971	0.756	0.804	0.715	0.604	0.607	0.624
635.0	47.43	57.73	54.27	44.29	40.48	39.78	47.45	58.92	67.24	80.90	94.89	102.0	105.4	99.81	64.79	44.00	41.15	30.65	87.12	292.4	39.26	2.966	2.826	2.446	2.461	2.238	2.176	2.275	2.279	2.194	2.080	2.018	2.021	1.895	1.771	1.732	1.567	1.594	1.453	1.338	1.269	1.248	1.156	1.128	1.025	0.967	1.077	0.988	0.840	0.832	0.727	0.756	0.736	0.680	0.669	0.716	0.689	0.732	0.862	0.833	0.952	0.904	0.799	0.799	0.803	0.961	0.942	0.866	0.851	0.906	0.960	0.899	0.840	0.671	0.627	0.592	0.625
640.0	48.33	61.41	56.59	44.77	40.06	40.39	48.10	57.18	65.45	79.91	91.61	97.58	98.06	100.3	71.77	45.19	43.34	26.31	28.28	234.4	135.1	3.559	2.518	2.263	2.265	2.243	1.891	1.893	2.011	2.055	2.036	1.802	1.595	1.731	1.601	1.313	1.443	1.232	1.240	1.135	1.063	1.071	0.944	0.922	1.064	0.892	0.956	0.836	0.820	0.696	0.635	0.679	0.646	0.599	0.655	0.675	0.641	0.647	0.653	0.767	0.773	0.866	0.883	0.866	0.772	0.871	0.914	0.885	0.812	0.885	0.778	0.884	0.805	0.706	0.579	0.511	0.592
645.0	44.74	58.22	52.27	45.35	40.72	38.53	47.97	52.05	65.23	76.18	87.64	95.48	92.50	93.31	78.55	47.31	42.13	25.61	14.45	109.3	240.7	11.90	2.355	1.938	1.963	2.028	1.648	1.611	1.779	1.705	1.522	1.695	1.487	1.393	1.328	1.213	1.133	1.203	1.049	1.025	1.046	1.014	0.965	0.772	0.876	0.744	0.786	0.793	0.721	0.607	0.538	0.680	0.586	0.658	0.535	0.662	0.578	0.641	0.716	0.721	0.824	0.876	0.807	0.793	0.667	0.825	0.820	0.747	0.785	0.751	0.738	0.750	0.802	0.728	0.644	0.595	0.584
650.0	44.40	61.37	63.21	48.72	35.95	37.95	44.82	50.64	57.56	71.16	85.48	88.71	89.93	81.75	81.24	48.46	39.85	25.88	11.65	36.25	252.0	53.43	2.224	1.841	1.686	1.583	1.610	1.692	1.765	1.552	1.461	1.399	1.522	1.330	1.009	1.109	1.099	1.087	0.915	0.925	0.948	0.831	0.860	0.787	0.713	0.705	0.674	0.714	0.676	0.580	0.555	0.562	0.612	0.586	0.571	0.579	0.590	0.562	0.703	0.604	0.597	0.686	0.742	0.775	0.644	0.720	0.734	0.678	0.750	0.851	0.650	0.661	0.698	0.694	0.760	0.507	0.605
