Sample:	'1
File name:	c2025052607袁家屋子东南闸.FD3
Run date:	'11:07:05, 05/27/2025
Operator:	Administrator
Comment:	'

Instrument
Model:	F-2700 FL Spectrophotometer
Serial number:	23B8-004
ROM Version:	4J14000 07

Instrument parameters
Measurement type:	3-D scan
Data mode:	Fluorescence
EX  Start WL:	220.0 nm
EX  End WL:	600.0 nm
EX Sampling interval:	5.0 nm
EM  Start WL:	230.0 nm
EM  End WL:	650.0 nm
EM Sampling interval:	5.0 nm
Scan speed:	12000 nm/min
EX Slit:	5.0 nm
EM Slit:	5.0 nm
PMT Voltage:	700 V
Response:	Auto 
Corrected spectra:	Off
Contour interval:	50.000

Peak integration
Integration method:	Rectangular
Sensitivity:	1
Threshold:	1.000

Peaks
No.	ApexEX/EM(nm)	Height(Data)
1	225.0/585.0	84.99
2	225.0/605.0	72.00
3	225.0/620.0	60.87
4	225.0/635.0	62.93
5	230.0/340.0	1666
6	230.0/565.0	91.82
7	230.0/580.0	78.87
8	240.0/525.0	267.5
9	245.0/535.0	227.6
10	250.0/545.0	185.1
11	255.0/280.0	610.8
12	255.0/560.0	153.4
13	260.0/285.0	589.5
14	260.0/570.0	121.4
15	265.0/585.0	112.2
16	270.0/300.0	1001
17	270.0/595.0	97.23
18	275.0/305.0	1251
19	275.0/610.0	93.55
20	280.0/310.0	1227
21	280.0/340.0	1237
22	280.0/620.0	84.83
23	285.0/320.0	1216
24	285.0/635.0	68.73
25	290.0/325.0	1151
26	455.0/335.0	5.722
27	460.0/340.0	5.968
28	520.0/285.0	4.081
29	530.0/290.0	4.007
30	540.0/295.0	5.108
31	545.0/300.0	6.218
32	555.0/305.0	6.161
33	555.0/335.0	6.181
34	560.0/310.0	6.407
35	575.0/320.0	6.788
36	585.0/325.0	6.509

Data points
	220.0	225.0	230.0	235.0	240.0	245.0	250.0	255.0	260.0	265.0	270.0	275.0	280.0	285.0	290.0	295.0	300.0	305.0	310.0	315.0	320.0	325.0	330.0	335.0	340.0	345.0	350.0	355.0	360.0	365.0	370.0	375.0	380.0	385.0	390.0	395.0	400.0	405.0	410.0	415.0	420.0	425.0	430.0	435.0	440.0	445.0	450.0	455.0	460.0	465.0	470.0	475.0	480.0	485.0	490.0	495.0	500.0	505.0	510.0	515.0	520.0	525.0	530.0	535.0	540.0	545.0	550.0	555.0	560.0	565.0	570.0	575.0	580.0	585.0	590.0	595.0	600.0
230.0	98.27	2868	7096	2312	88.10	11.41	8.697	7.146	7.244	6.547	6.169	5.915	5.885	5.514	4.627	4.257	3.553	3.875	3.435	2.982	3.005	2.602	2.282	2.277	2.196	1.972	1.771	1.729	1.706	1.688	1.569	1.538	1.524	1.420	1.303	1.138	1.035	1.006	0.973	0.879	0.896	1.086	1.077	0.794	0.799	0.829	3.483	14.01	24.02	16.55	6.012	1.289	0.568	0.497	0.496	0.507	0.496	0.514	0.414	0.437	0.365	0.411	0.367	0.299	0.379	0.352	0.302	0.299	0.284	0.277	0.280	0.278	0.233	0.245	0.235	0.223	0.230
235.0	137.7	785.3	4454	7255	2906	167.7	12.97	9.455	8.154	7.460	6.396	6.553	6.543	5.825	5.417	4.263	3.636	3.826	3.555	3.043	2.878	2.657	2.583	2.213	2.158	2.019	1.843	1.868	1.822	1.793	1.577	1.477	1.375	1.527	1.302	1.195	1.084	1.100	0.942	0.999	0.935	0.847	1.020	0.937	1.087	0.918	1.371	3.914	9.374	16.70	22.96	22.50	11.60	2.576	0.636	0.514	0.568	0.506	0.419	0.454	0.381	0.364	0.430	0.333	0.342	0.410	0.316	0.294	0.299	0.297	0.256	0.306	0.277	0.226	0.280	0.206	0.251
240.0	184.7	277.1	1306	6414	9097	2455	77.90	13.40	10.76	8.488	7.723	7.965	6.462	6.296	5.657	4.614	3.972	4.051	3.772	3.194	3.050	2.739	2.457	2.474	2.391	2.285	1.967	1.907	1.842	1.533	1.619	1.556	1.557	1.645	1.432	1.270	1.099	0.977	1.035	0.942	0.890	0.817	0.914	0.985	1.135	1.045	1.209	1.491	2.647	5.026	13.06	31.55	42.05	22.06	10.17	1.800	0.530	0.614	0.534	0.503	0.416	0.424	0.434	0.366	0.319	0.377	0.315	0.322	0.340	0.251	0.280	0.317	0.269	0.203	0.250	0.349	0.197
245.0	149.0	249.6	374.4	2166	9377	9821	468.2	42.04	14.43	11.30	9.398	9.406	7.530	6.796	5.344	5.168	4.538	4.068	3.916	3.285	3.452	2.896	2.527	2.431	2.426	2.349	2.108	2.007	1.816	1.567	1.668	1.469	1.404	1.503	1.429	1.305	1.144	1.158	0.947	0.936	0.922	0.946	0.890	0.981	0.888	1.114	1.374	1.292	1.135	1.660	3.418	10.51	29.52	48.55	51.69	22.12	7.029	0.953	0.576	0.491	0.450	0.403	0.445	0.403	0.308	0.381	0.300	0.320	0.284	0.342	0.272	0.331	0.256	0.265	0.249	0.373	0.228
250.0	72.23	174.3	285.6	593.7	2917	9100	9999.9	4731	138.7	18.40	14.62	12.32	9.786	7.797	7.165	6.099	5.103	4.669	4.197	3.493	3.215	3.033	2.791	2.563	2.486	2.447	2.276	2.286	1.883	1.800	1.820	1.514	1.512	1.443	1.335	1.296	1.225	1.166	1.071	0.973	0.984	1.027	0.956	0.895	0.867	0.905	0.985	1.231	1.347	1.178	1.474	2.902	7.402	15.60	30.61	48.69	47.59	54.15	16.65	7.497	1.001	0.443	0.495	0.479	0.368	0.419	0.355	0.402	0.328	0.279	0.305	0.287	0.323	0.302	0.300	0.264	0.221
255.0	51.21	75.12	179.0	398.4	757.5	2253	8302	9999.9	2538	179.4	23.55	16.80	13.19	11.43	8.254	7.695	6.284	5.262	4.529	4.245	3.457	3.189	3.157	2.852	2.718	2.435	2.341	2.277	1.963	2.019	1.878	1.649	1.739	1.539	1.522	1.362	1.233	1.247	1.049	1.070	0.953	1.129	0.885	0.869	0.958	0.818	0.833	0.932	0.888	1.142	1.489	1.928	2.338	4.085	7.368	11.92	18.93	54.67	98.41	104.8	25.68	8.997	0.782	0.529	0.492	0.526	0.360	0.354	0.393	0.351	0.345	0.308	0.311	0.201	0.277	0.265	0.285
260.0	52.03	49.00	85.12	282.2	422.8	594.7	2427	9999.9	9999.9	2141	121.2	23.87	17.09	13.47	9.839	8.347	6.388	6.014	5.484	4.433	4.185	3.611	3.303	3.240	2.854	2.759	2.331	2.283	2.180	2.389	1.957	1.957	1.812	1.413	1.439	1.447	1.267	1.305	1.242	1.074	1.023	1.038	0.923	0.929	0.969	0.881	0.779	0.818	0.828	0.772	1.159	1.974	2.226	1.918	2.432	3.421	4.908	14.55	41.78	98.42	130.3	102.7	22.02	4.783	0.588	0.538	0.511	0.541	0.501	0.364	0.363	0.372	0.373	0.277	0.345	0.333	0.335
265.0	50.86	51.90	49.35	135.2	377.5	369.2	628.4	3644	9999.9	9999.9	1648	70.44	24.26	16.65	12.72	9.675	7.654	6.768	5.986	5.375	4.313	4.044	3.733	3.364	3.135	2.998	2.475	2.606	2.538	2.424	2.154	1.931	1.745	1.543	1.484	1.492	1.302	1.300	1.227	1.169	1.101	1.131	1.007	0.912	1.012	0.991	1.047	0.890	1.007	0.647	0.727	1.153	1.923	2.372	1.954	1.586	1.834	3.995	10.27	28.42	70.17	137.1	160.5	32.23	16.00	1.916	0.604	0.624	0.532	0.455	0.454	0.481	0.378	0.323	0.433	0.350	0.405
270.0	90.08	74.15	62.02	79.85	202.9	410.3	432.1	924.1	3911	9999.9	9999.9	6742	107.1	29.44	19.84	13.84	10.64	8.711	7.041	6.079	5.081	4.385	4.101	3.898	3.521	3.188	2.817	2.795	2.613	2.730	2.322	2.062	2.089	1.806	1.651	1.547	1.489	1.464	1.373	1.264	1.184	1.288	1.116	1.143	1.227	1.182	1.078	0.955	0.891	0.717	0.777	0.878	1.186	1.495	2.162	2.313	2.427	2.139	3.176	7.154	16.88	38.51	76.63	110.6	155.2	127.3	90.38	11.96	2.394	0.658	0.593	0.512	0.514	0.484	0.477	0.438	0.425
275.0	185.4	145.0	128.9	100.5	125.7	235.9	518.7	514.1	970.3	2579	9999.9	9999.9	9341	127.7	33.46	22.10	14.71	12.30	9.429	7.561	6.731	5.507	4.681	4.468	4.235	3.833	3.618	2.967	3.047	2.799	2.530	2.216	2.411	2.237	2.084	1.777	1.711	1.573	1.437	1.262	1.488	1.433	1.402	1.385	1.273	1.206	1.261	1.211	1.117	0.922	0.903	0.791	0.962	1.133	1.442	1.580	2.624	3.334	2.995	2.796	4.638	9.384	17.91	25.86	44.36	95.45	214.4	242.0	33.11	17.79	1.964	0.808	0.809	0.613	0.551	0.486	0.477
280.0	258.3	260.8	215.8	138.9	120.8	163.2	339.7	610.8	440.1	689.5	3020	9999.9	9999.9	6691	93.39	31.75	21.20	14.71	11.69	8.571	7.533	6.469	5.535	4.873	4.685	4.079	4.008	3.293	3.209	2.952	2.856	2.719	2.433	2.436	2.512	2.031	1.975	1.914	1.734	1.465	1.523	1.466	1.604	1.675	1.529	1.567	1.519	1.424	1.468	1.180	1.048	1.049	1.082	1.029	1.294	1.277	1.743	2.318	3.325	3.536	2.768	3.028	4.944	6.738	10.87	23.60	69.63	164.8	248.4	232.1	30.44	11.93	1.194	0.822	0.665	0.641	0.609
285.0	388.2	396.2	308.1	206.0	137.2	145.7	208.9	469.7	589.5	343.0	831.7	3944	9999.9	9999.9	990.1	66.57	30.37	20.34	14.91	11.01	8.902	7.184	6.232	5.970	5.112	4.398	4.268	3.863	3.302	3.318	3.228	2.850	2.769	2.564	2.754	2.678	2.378	2.159	1.853	1.810	1.860	1.661	1.642	1.714	1.675	1.905	1.714	1.668	1.711	1.498	1.270	1.223	1.322	1.124	1.200	1.256	1.394	1.533	2.171	3.258	4.081	3.013	2.732	2.504	3.560	6.335	16.85	41.33	96.36	215.1	290.7	210.3	25.47	6.496	0.901	0.876	0.708
290.0	537.8	564.3	455.8	300.0	173.8	157.5	173.0	262.7	529.1	627.8	488.0	1131	4114	9999.9	9999.9	9999.9	73.55	32.54	21.51	15.89	12.43	9.354	8.113	6.654	6.109	4.880	4.740	4.312	3.967	3.794	3.470	3.091	2.876	2.842	3.102	2.879	2.770	2.659	2.256	2.236	2.064	1.901	2.019	1.950	2.109	2.255	2.132	2.126	2.201	1.884	1.522	1.521	1.357	1.302	1.263	1.281	1.527	1.478	1.618	1.951	2.738	3.517	4.007	3.396	2.700	2.955	5.135	10.87	23.26	53.40	104.1	174.1	202.6	233.4	135.9	17.90	7.387
295.0	677.4	700.7	602.7	382.6	228.5	188.4	195.6	226.5	337.9	632.0	863.7	657.1	1238	2619	9999.9	9999.9	5841	85.39	34.95	22.88	17.30	12.20	10.12	8.657	7.018	5.924	5.585	4.865	4.599	4.197	3.837	3.645	3.349	3.128	3.299	3.380	3.160	3.103	2.683	2.412	2.258	2.027	2.288	2.229	2.352	2.634	2.590	2.694	2.684	2.218	1.717	1.732	1.733	1.429	1.439	1.516	1.520	1.524	1.711	1.678	1.949	2.291	2.713	4.058	5.108	4.390	3.456	4.465	7.111	13.82	24.97	40.51	50.18	95.87	214.0	332.0	239.2
300.0	751.0	809.0	678.6	448.0	270.6	216.2	229.1	269.6	335.9	519.9	1001	895.6	711.8	911.4	2901	9999.9	9999.9	4552	71.07	31.81	23.02	16.24	13.02	10.11	8.496	7.384	6.342	5.808	4.879	4.664	4.166	3.823	3.628	3.444	3.546	3.394	3.280	3.510	3.015	2.788	2.643	2.442	2.412	2.385	2.532	2.775	2.650	2.888	2.974	2.335	2.074	2.150	2.022	1.676	1.670	1.637	1.789	1.933	1.806	1.934	2.062	2.250	2.360	3.097	4.174	6.218	5.463	4.004	3.909	5.432	7.710	11.11	13.17	23.41	58.16	151.0	306.8
305.0	769.9	874.9	762.7	507.3	323.0	266.6	278.1	328.1	391.8	536.2	864.1	1251	835.0	620.7	960.9	3611	9999.9	9999.9	620.3	56.54	31.54	20.40	15.97	11.96	10.12	8.262	7.260	6.300	5.197	4.609	4.552	4.106	4.031	3.744	3.654	3.641	3.478	3.464	3.003	3.028	2.886	2.573	2.699	2.391	2.720	2.798	2.990	3.102	3.145	2.718	2.315	2.229	2.084	1.583	1.876	1.920	1.947	2.297	1.940	2.458	2.557	2.641	2.844	3.238	3.680	4.891	5.924	6.161	5.039	4.246	4.548	5.104	5.109	7.250	14.85	36.47	91.55
310.0	811.8	952.1	822.3	558.2	371.0	308.2	336.1	400.2	487.9	612.9	812.7	1131	1227	815.6	621.8	1058	3851	9999.9	9999.9	9999.9	189.6	30.81	22.31	15.71	12.69	9.802	8.543	7.346	6.488	5.667	5.408	4.710	4.389	4.167	3.870	3.757	3.921	3.704	3.360	3.094	3.059	2.874	2.723	2.627	3.102	3.184	3.208	3.310	3.167	2.891	2.332	2.307	2.225	1.881	2.058	2.090	2.201	2.369	2.371	2.744	2.889	3.014	3.301	3.458	4.095	4.443	4.927	5.602	6.407	6.301	5.417	4.583	3.912	4.073	5.411	10.01	22.23
315.0	885.4	1028	911.0	618.1	424.5	365.6	388.3	462.5	572.5	697.2	871.0	1053	1169	1206	734.8	547.9	1064	2528	9999.9	9999.9	4275	66.38	34.57	23.60	16.87	11.98	10.94	8.722	7.984	6.941	6.063	5.380	4.728	4.484	4.163	4.133	4.142	4.009	3.483	3.374	3.141	3.169	3.119	3.006	3.041	3.248	3.392	3.850	3.505	3.172	2.695	2.705	2.552	2.159	2.332	2.297	2.557	2.621	2.678	2.921	3.405	3.662	3.508	3.994	4.387	4.736	4.927	5.068	5.434	5.730	6.499	6.595	5.221	4.170	3.918	4.378	7.140
320.0	977.9	1124	1038	715.4	492.8	413.0	433.9	522.0	628.1	755.9	930.7	1095	1122	1216	1028	527.3	485.7	744.8	2778	9999.9	9999.9	3568	59.04	31.07	21.99	14.53	13.16	10.24	8.651	7.840	6.716	6.260	4.925	4.667	4.427	4.061	4.454	4.092	3.605	3.379	3.319	3.351	3.426	3.001	3.462	3.501	3.687	3.957	3.823	3.399	2.976	2.845	2.659	2.453	2.478	2.516	2.735	2.807	3.004	3.164	3.403	3.759	3.856	4.166	4.522	5.177	5.197	5.201	5.630	5.398	5.925	6.788	6.684	5.742	4.288	3.493	3.939
325.0	1061	1294	1215	850.6	542.5	456.5	470.1	550.3	667.2	819.6	989.8	1147	1147	1106	1151	700.3	401.9	367.6	764.2	3596	9999.9	9999.9	479.9	49.25	29.64	19.82	15.14	11.95	9.755	8.243	7.282	6.519	5.253	5.018	4.574	4.446	4.350	4.257	3.950	3.505	3.315	3.428	3.626	3.370	3.708	4.123	4.104	4.617	4.251	3.878	3.306	3.076	2.929	2.848	2.791	2.893	3.001	2.896	3.041	3.311	3.590	3.792	4.043	4.749	4.825	5.185	5.516	5.582	5.564	5.569	5.540	5.877	6.196	6.509	5.624	4.269	3.287
330.0	1153	1422	1454	1042	675.5	529.7	514.7	595.5	716.0	855.8	1041	1193	1202	1097	1026	871.0	556.1	330.0	335.8	938.8	3987	9999.9	9999.9	9999.9	51.96	29.68	21.77	15.51	11.95	9.817	8.744	7.170	5.979	5.614	5.132	4.589	4.336	4.380	3.822	3.846	3.664	3.498	3.600	3.549	3.771	4.275	4.434	5.026	5.105	4.398	3.750	3.750	3.399	3.126	2.992	2.989	2.992	3.244	3.438	3.765	3.777	4.143	4.244	4.915	5.008	5.250	5.511	5.784	5.624	5.808	5.584	6.008	5.462	5.620	5.678	5.257	4.925
335.0	1208	1517	1562	1199	803.3	626.2	566.4	630.0	744.7	884.1	1072	1213	1232	1134	994.5	793.6	744.6	466.7	285.7	369.3	1001	2476	9999.9	9999.9	3508	56.85	31.14	21.59	15.92	12.29	10.40	8.853	7.104	6.414	5.875	4.965	4.520	4.380	4.066	4.016	3.779	3.772	3.772	3.939	4.170	4.676	4.722	5.722	5.485	4.891	4.348	4.344	3.811	3.383	3.525	3.288	3.437	3.579	3.565	3.951	3.839	4.293	4.367	4.970	5.166	5.419	5.736	6.181	5.731	6.023	5.782	5.926	5.440	5.844	5.037	5.067	5.008
340.0	1213	1605	1666	1280	873.0	673.9	606.9	656.6	763.8	896.8	1068	1212	1237	1141	994.3	762.1	694.3	625.8	341.2	261.4	353.8	649.4	2877	9999.9	9999.9	3004	50.85	27.58	19.95	15.29	12.02	9.786	8.262	6.747	6.229	5.290	4.931	4.825	4.327	4.075	3.968	3.811	3.772	3.978	4.452	4.561	5.112	5.278	5.968	5.292	4.507	4.550	4.124	3.599	3.715	3.460	3.674	3.679	3.639	4.035	3.923	4.217	4.277	4.763	5.255	5.963	5.800	5.926	5.815	6.051	5.964	5.922	5.760	6.061	5.132	5.025	4.525
345.0	1242	1587	1641	1333	945.8	718.1	643.0	681.5	776.7	889.7	1040	1193	1202	1121	994.5	760.2	622.9	630.8	470.7	268.1	226.7	256.6	738.1	4013	9999.9	9999.9	417.1	40.68	24.50	18.80	13.37	10.78	9.037	7.490	6.774	5.250	5.294	4.948	4.258	4.102	3.658	3.705	3.667	3.872	4.428	4.334	4.907	5.549	5.749	5.325	4.577	4.493	4.256	3.846	3.809	3.592	3.737	3.850	3.721	3.925	4.036	4.350	4.569	4.750	5.134	5.551	5.849	5.731	5.877	5.842	6.180	5.867	5.973	5.681	5.047	4.830	4.414
350.0	1151	1488	1586	1315	984.8	769.4	688.2	702.2	781.3	877.9	1001	1134	1149	1084	972.5	772.0	618.1	549.7	532.9	405.2	249.4	197.4	277.6	993.5	4523	9999.9	9999.9	8998	44.28	25.51	18.18	13.29	10.47	8.290	7.202	6.101	5.448	4.924	4.552	4.397	3.806	3.753	4.030	3.803	4.206	4.408	4.720	5.316	5.254	5.016	4.458	4.728	4.431	3.997	3.991	3.713	3.776	3.848	3.882	4.111	4.020	4.275	4.323	4.629	4.904	5.145	5.350	5.335	5.518	5.748	5.716	5.488	5.725	5.535	5.171	4.855	4.645
355.0	1110	1361	1461	1286	1017	824.6	755.3	739.6	800.9	878.8	974.1	1090	1083	1051	949.2	777.6	651.8	547.4	489.1	506.6	367.6	226.9	206.7	334.6	1099	2523	9999.9	9999.9	3187	49.93	26.08	17.37	13.36	9.718	8.422	6.447	5.579	5.323	4.852	4.351	4.212	3.894	3.921	3.827	3.940	4.490	4.326	5.289	5.251	4.610	4.351	4.746	4.426	4.102	4.041	3.911	3.904	3.957	4.099	4.045	3.992	4.345	4.367	4.723	4.850	5.154	5.051	4.888	5.506	5.259	5.436	5.404	5.705	5.494	5.110	4.733	4.669
360.0	1099	1308	1403	1253	1027	878.1	794.2	786.6	822.3	889.9	964.0	1048	1044	1018	932.8	782.6	668.1	569.8	492.4	481.1	474.9	302.0	215.9	211.3	348.4	645.6	3096	9999.9	9999.9	2675	44.05	23.98	16.55	11.73	9.603	7.687	6.319	5.716	5.016	4.577	4.509	4.151	4.179	3.792	3.853	4.694	4.374	4.845	5.014	4.479	4.306	4.695	4.683	4.399	4.315	3.843	4.075	4.156	4.306	4.109	4.394	4.702	4.733	4.900	4.867	4.785	4.889	5.001	5.216	5.031	5.725	5.148	5.492	5.012	5.093	4.675	4.524
365.0	1028	1246	1368	1247	1044	909.6	826.8	803.2	848.8	896.7	954.9	1023	1029	985.5	913.1	785.1	681.8	596.0	514.4	468.0	478.9	412.2	260.8	203.7	199.8	240.8	777.0	4419	9999.9	9999.9	381.1	36.76	21.08	15.02	11.01	8.581	7.147	6.180	5.301	4.929	4.443	4.338	4.256	3.835	4.047	4.419	4.244	4.750	4.759	4.699	4.128	4.708	4.628	4.449	4.211	3.851	4.326	4.139	4.208	4.240	4.271	4.677	4.594	4.723	4.780	4.839	4.891	5.088	5.342	5.249	5.332	5.103	5.332	5.081	4.708	4.821	4.585
370.0	975.5	1160	1272	1200	1047	934.4	856.8	840.6	878.7	910.3	954.0	994.8	987.6	945.0	890.4	790.6	698.4	628.9	555.6	497.5	458.3	461.4	382.0	257.6	200.2	174.2	268.8	1077	4862	9999.9	9999.9	8131	38.82	22.11	15.22	11.07	8.773	7.334	6.192	5.455	5.117	4.622	4.426	4.136	3.984	4.385	4.313	4.579	4.644	4.431	4.196	4.648	4.642	4.481	4.331	4.103	4.513	4.327	4.556	4.341	4.580	4.721	4.649	4.652	4.836	4.942	4.780	4.904	4.956	5.023	5.015	5.011	5.166	5.276	5.000	4.912	4.843
375.0	921.5	1134	1200	1165	1052	962.1	876.9	872.1	876.1	915.1	941.9	970.4	953.2	919.1	867.6	778.2	708.6	654.1	593.3	537.2	477.2	436.6	448.4	369.6	245.4	190.7	177.2	333.6	1160	2618	9999.9	9999.9	2736	42.72	22.48	15.31	11.31	8.732	7.388	5.762	5.605	5.082	4.493	4.415	4.492	4.531	4.460	4.640	4.571	4.094	3.994	4.729	4.803	4.666	4.677	4.504	4.643	4.371	4.537	4.454	4.349	4.579	4.641	4.602	4.922	4.628	4.748	4.576	4.694	4.720	4.714	4.955	4.913	4.971	5.147	4.892	4.765
380.0	929.5	1081	1164	1113	1050	981.4	905.6	881.8	883.2	915.1	929.9	946.1	928.8	905.4	853.8	773.8	718.0	665.3	618.4	559.5	499.8	450.9	436.3	437.6	307.5	217.8	175.9	185.1	346.5	660.0	3282	9999.9	9999.9	2258	36.54	19.99	14.35	10.35	8.414	6.578	5.794	5.487	4.767	4.418	4.530	4.516	4.202	4.550	4.563	4.032	3.895	4.666	4.778	4.677	4.566	4.354	4.684	4.565	4.616	4.626	4.380	4.453	4.579	4.705	4.907	4.746	4.724	4.533	4.716	4.786	4.645	4.543	4.961	4.824	4.972	4.941	4.486
385.0	890.5	1057	1121	1090	1035	979.7	916.7	880.7	886.2	906.5	915.5	928.1	913.2	894.2	837.4	774.3	714.8	673.1	629.4	580.5	523.7	472.4	432.4	440.5	390.2	262.4	201.0	168.7	181.0	229.2	813.2	4600	9999.9	9999.9	313.5	29.60	18.53	12.91	9.895	7.812	6.411	5.808	5.197	4.762	4.813	4.719	4.367	4.594	4.529	4.047	3.731	4.588	4.986	4.938	4.522	4.549	4.653	4.582	4.305	4.593	4.520	4.479	4.568	4.566	4.358	4.288	4.562	4.454	4.397	4.677	5.065	4.651	4.677	4.642	5.024	4.819	4.761
390.0	866.0	1025	1074	1071	1043	998.1	914.2	897.4	881.6	890.9	898.6	905.0	891.8	870.5	817.2	761.9	718.7	683.1	642.2	599.0	545.3	502.3	454.3	427.9	421.0	360.3	255.7	201.1	173.1	160.7	268.4	1109	4692	9999.9	9999.9	6690	32.49	18.08	12.60	9.448	7.556	6.487	5.767	5.101	4.801	4.998	4.363	4.603	4.349	4.174	3.916	4.573	4.860	4.620	4.553	4.559	4.640	4.685	4.353	4.608	4.408	4.660	4.731	4.629	4.425	4.627	4.507	4.576	4.375	4.462	4.829	4.692	4.717	4.831	4.703	4.769	4.758
395.0	895.6	1024	1059	1053	1022	987.9	931.9	901.0	874.7	892.3	885.9	889.6	875.9	845.3	804.8	749.3	718.7	684.9	650.7	616.3	565.4	523.9	483.9	442.8	410.0	403.6	350.5	249.7	203.9	174.6	169.8	330.8	1114	2579	9999.9	9999.9	2309	36.24	17.58	12.30	9.755	7.428	6.215	5.627	5.614	5.280	4.593	4.866	4.697	4.330	3.884	4.693	5.024	4.579	4.674	4.814	4.565	4.795	4.348	4.904	4.418	4.473	4.733	4.676	4.435	4.347	4.347	4.422	4.372	4.420	4.479	4.673	4.543	4.973	4.628	4.522	4.965
400.0	871.1	997.2	1023	1018	1002	990.9	922.5	889.5	857.8	870.5	865.8	861.1	855.6	839.0	792.7	739.8	702.7	677.2	644.9	615.7	573.5	535.5	502.3	461.8	418.2	399.7	396.9	307.3	231.6	194.4	164.0	166.8	320.4	643.3	3080	9999.9	9999.9	1992	31.19	15.72	11.97	9.007	7.375	6.259	5.790	5.365	4.803	4.752	4.706	4.075	3.970	4.642	4.925	4.733	4.632	4.636	4.835	4.970	4.633	4.593	4.321	4.643	4.585	4.471	4.436	4.330	4.267	4.355	4.312	4.213	4.512	4.633	4.405	4.625	4.542	4.619	5.014
405.0	838.0	948.4	1003	997.1	996.5	976.2	925.8	899.3	867.1	866.0	852.6	848.6	834.1	815.4	771.7	734.1	691.8	663.4	641.7	614.3	570.3	544.0	511.8	471.5	430.5	395.2	387.2	363.2	266.9	215.0	172.1	139.1	149.5	208.0	746.6	3896	9999.9	9999.9	285.7	24.65	14.16	10.51	8.238	6.601	6.047	5.778	5.091	4.953	4.751	4.408	4.021	4.718	5.083	4.627	4.669	4.606	4.651	4.770	4.438	4.691	4.167	4.336	4.381	4.216	4.562	4.568	4.360	4.227	4.170	4.304	4.287	4.523	4.384	4.203	4.422	4.561	4.733
410.0	826.1	929.2	975.8	978.9	970.5	957.2	925.9	891.3	871.2	848.7	845.7	832.5	803.9	792.8	749.2	703.9	671.0	643.9	626.3	604.5	567.6	540.1	514.3	478.8	441.1	404.8	375.1	368.0	328.9	250.9	191.8	148.4	121.5	119.1	224.3	920.1	3927	9999.9	9999.9	6197	27.70	14.73	10.59	7.956	6.706	6.134	5.245	5.282	5.176	4.442	4.065	4.737	4.802	4.564	4.768	4.379	4.788	4.679	4.583	4.653	4.361	4.406	4.328	4.245	4.506	4.355	4.281	4.090	4.165	4.247	4.172	4.249	4.254	4.185	4.089	4.324	4.550
415.0	774.9	895.9	938.4	935.8	926.1	926.2	905.2	887.1	847.0	837.2	834.8	805.3	780.5	760.9	720.7	671.1	647.4	625.9	606.3	581.6	558.0	528.6	507.5	478.3	451.8	416.5	380.0	352.5	349.8	312.1	223.5	163.3	132.0	111.9	114.5	251.9	911.2	2456	9999.9	9999.9	2139	32.46	14.73	9.910	8.507	7.039	5.731	5.535	5.187	4.424	4.351	4.791	4.716	4.568	4.864	4.338	4.769	4.762	4.628	4.521	4.650	4.598	4.342	4.415	4.142	3.918	4.256	3.911	4.178	4.014	4.121	4.224	4.092	4.246	4.054	4.226	4.233
420.0	789.8	884.9	919.5	911.0	896.8	896.8	886.5	872.0	830.1	820.6	811.2	776.9	748.8	734.2	695.6	645.8	620.0	601.8	589.2	568.2	541.8	516.4	498.1	475.6	452.2	421.5	382.9	353.1	334.8	333.3	260.0	179.6	139.7	115.8	95.41	105.9	241.2	580.8	2740	9999.9	9999.9	1922	28.01	12.43	9.682	7.848	6.649	5.865	5.265	4.569	4.117	4.672	4.626	4.495	4.667	4.548	4.657	4.457	4.433	4.399	4.709	4.519	4.496	4.057	4.351	4.109	3.881	3.977	4.014	4.149	3.952	4.109	4.132	4.076	4.271	4.151	4.258
425.0	744.7	836.3	891.1	881.1	876.5	878.0	868.0	862.3	830.9	804.5	785.9	761.7	738.6	708.4	665.8	626.5	596.5	579.2	564.0	545.7	522.2	503.1	486.4	463.9	444.1	415.8	383.5	350.6	325.4	321.3	289.1	200.6	148.9	120.2	95.31	77.49	93.67	161.6	642.7	3307	9999.9	9999.9	274.8	22.28	11.65	9.206	7.363	6.211	5.525	4.667	4.326	4.360	4.761	4.591	4.571	4.568	4.665	4.566	4.704	4.375	4.608	4.488	4.413	4.272	4.032	3.856	3.853	3.975	3.890	3.818	3.847	3.921	3.845	4.171	3.963	3.844	4.042
430.0	1027	791.2	858.4	868.1	844.9	846.2	845.9	831.2	814.8	781.6	769.1	742.3	716.2	680.8	635.2	592.0	563.8	551.7	538.7	522.0	500.4	483.4	466.0	447.7	429.9	405.0	377.6	346.6	321.4	299.8	281.2	235.3	170.3	127.9	99.90	76.69	65.27	71.93	172.4	767.6	3265	9999.9	9999.9	6028	26.02	12.91	9.073	7.642	6.220	4.935	4.435	4.644	4.811	4.794	4.885	4.501	4.768	4.745	4.411	4.454	4.502	4.407	4.212	4.341	4.019	3.928	3.740	3.843	3.616	3.888	3.733	3.689	3.821	3.829	3.754	3.905	3.921
435.0	2009	821.1	799.4	825.6	822.9	823.0	828.4	824.0	793.4	773.9	746.7	719.2	682.1	652.8	605.8	564.0	539.4	528.2	507.1	498.1	476.6	461.7	445.7	435.1	414.4	392.0	372.7	344.0	319.0	293.2	260.9	236.7	203.3	145.1	108.0	83.08	65.23	55.63	70.10	197.0	751.6	2343	8695	9999.9	8920	32.29	13.58	9.604	7.170	5.714	4.787	5.203	4.950	4.919	4.747	4.640	4.930	4.733	4.876	4.326	4.250	4.449	4.008	4.264	4.049	4.190	3.783	3.795	3.762	3.766	3.598	3.466	3.557	3.715	3.672	3.808	3.915
440.0	2963	1108	774.3	786.2	781.9	788.8	798.7	809.8	791.1	754.1	741.5	701.6	658.8	627.5	582.8	543.0	514.4	505.3	487.7	470.2	453.7	439.7	425.3	418.9	398.1	381.9	363.4	341.1	316.9	294.6	258.8	225.1	214.4	168.9	118.4	89.03	69.51	55.34	51.07	72.42	192.5	546.4	2231	9999.9	9999.9	1926	26.64	12.77	8.461	6.658	5.496	5.477	5.190	4.966	4.928	4.632	4.935	4.619	4.500	4.513	4.399	4.311	4.228	4.063	3.954	4.130	3.914	3.669	3.645	3.627	3.533	3.465	3.484	3.535	3.610	3.423	3.737
445.0	3254	1915	767.3	734.3	749.0	782.4	769.1	769.4	769.6	726.7	719.1	680.3	638.8	605.8	555.0	518.5	492.0	480.0	465.3	449.7	435.5	419.7	411.8	399.1	385.0	372.1	352.8	331.6	315.0	290.6	256.9	218.6	201.9	185.6	134.0	96.17	74.44	59.17	49.40	46.86	68.87	145.0	522.2	2880	9999.9	9999.9	1476	23.49	11.13	7.627	6.353	6.030	5.600	5.051	4.886	4.816	4.942	4.661	4.624	4.480	4.340	4.431	4.144	4.176	3.983	3.709	3.906	3.676	3.582	3.534	3.442	3.344	3.357	3.743	3.447	3.474	3.521
450.0	2095	3796	1159	720.3	709.9	731.7	734.8	733.3	728.3	705.3	679.4	645.5	608.4	567.1	524.8	484.9	462.2	445.0	428.9	416.5	403.0	390.7	380.9	371.5	356.6	347.5	330.4	316.2	300.0	280.8	249.6	214.2	187.0	175.7	151.2	109.1	79.62	64.39	52.64	44.77	43.56	56.00	137.7	664.4	2912	9999.9	9999.9	6270	97.22	11.20	7.745	7.047	6.347	5.355	5.150	4.924	5.013	4.869	4.734	4.668	4.179	4.178	4.052	4.121	3.867	3.831	3.465	3.723	3.405	3.379	3.377	3.164	3.285	3.415	3.362	3.270	3.427
455.0	932.2	3762	3515	752.3	664.6	672.2	675.6	691.8	673.2	657.4	646.5	607.8	570.9	523.6	481.0	444.9	422.2	405.3	393.2	377.5	365.5	356.4	346.7	342.4	329.9	318.3	307.4	293.4	280.0	262.8	237.7	205.2	178.9	156.2	146.5	126.5	91.34	69.17	56.38	45.95	40.33	37.74	52.77	167.4	667.1	2290	6362	9999.9	8858	25.55	11.11	8.506	7.030	5.786	5.287	5.150	5.058	4.805	4.516	4.260	4.252	4.126	4.286	4.126	4.039	3.653	3.563	3.406	3.431	3.136	3.221	3.193	3.084	3.324	3.003	3.074	3.272
460.0	592.5	2301	5313	1028	637.4	631.3	636.8	649.5	651.6	630.9	621.0	581.4	534.6	494.3	453.0	419.3	392.8	378.1	366.6	353.1	338.0	331.2	321.4	314.5	306.8	297.0	285.2	276.6	265.5	251.4	228.9	198.8	172.1	147.8	132.7	127.7	101.5	72.91	58.53	47.64	40.68	35.15	34.16	57.26	166.6	528.5	1543	8325	9999.9	6390	22.72	10.88	8.419	6.877	6.058	5.513	5.095	4.810	4.502	4.302	4.338	4.211	4.001	3.626	3.687	3.518	3.421	3.041	3.105	3.233	3.008	3.138	2.971	3.113	2.700	2.770	3.111
465.0	510.0	1129	5405	2857	614.3	606.6	604.1	620.0	610.3	601.1	584.2	546.1	498.5	465.6	425.4	391.4	363.9	350.5	337.8	324.3	316.4	305.6	300.3	292.2	281.9	277.4	264.9	260.8	251.1	237.2	217.9	192.5	166.7	144.4	123.5	116.3	109.3	82.04	61.59	49.72	42.42	34.70	30.97	33.05	54.80	134.9	362.2	2135	9999.9	9999.9	1341	23.81	10.37	7.827	6.735	5.805	5.530	5.056	4.795	4.602	4.281	4.104	3.910	3.843	3.910	3.225	3.242	3.151	3.026	2.927	3.009	2.878	2.969	2.934	2.643	2.613	2.810
470.0	482.3	625.0	2926	5417	1369	541.1	551.2	565.3	549.5	553.0	526.1	500.8	458.2	419.5	383.4	348.1	328.9	314.3	302.2	292.1	281.7	274.3	265.8	260.7	255.1	247.5	239.0	233.0	226.8	217.2	200.9	177.7	156.0	136.6	116.8	103.5	97.99	88.31	68.18	51.75	42.55	35.78	30.77	27.73	30.00	46.57	96.26	492.2	2554	7556	9999.9	6544	114.0	11.44	7.841	6.605	5.793	5.296	4.656	4.411	4.157	4.034	3.817	3.684	3.634	3.382	3.162	3.281	2.833	2.641	2.809	2.718	2.739	2.573	2.676	2.575	2.592
475.0	435.3	489.6	1053	4879	4234	607.5	498.3	507.5	502.6	495.0	473.6	454.3	412.4	371.9	344.6	309.6	292.7	280.2	265.8	256.3	246.1	240.5	233.4	230.2	226.6	218.3	213.1	208.1	201.5	196.6	181.1	162.7	145.1	126.1	109.1	95.16	85.23	80.79	74.80	56.08	42.42	36.64	30.55	26.57	24.98	25.45	35.40	122.8	580.5	1705	3873	9999.9	8555	166.9	10.93	7.323	6.382	5.455	4.902	4.378	3.876	3.631	3.624	3.466	3.278	3.151	2.987	2.669	2.831	2.502	2.465	2.534	2.517	2.554	2.357	2.348	2.327
480.0	419.6	437.3	570.2	2760	6245	1359	460.5	472.7	466.3	463.5	448.5	416.2	383.1	350.7	317.3	281.9	271.3	256.4	241.4	234.1	226.6	216.9	212.9	210.1	205.0	201.8	196.2	192.7	183.8	183.4	169.7	151.7	136.6	119.0	104.8	90.49	79.33	72.53	71.93	60.81	44.70	36.30	32.04	26.87	23.99	21.65	21.52	40.09	140.7	390.9	901.3	4741	9999.9	6914	28.55	9.962	7.085	6.035	5.254	4.546	4.101	3.696	3.589	3.329	3.268	3.017	2.869	2.722	2.649	2.659	2.483	2.498	2.244	2.395	2.393	2.141	2.035
485.0	409.0	442.9	424.5	1169	6220	3390	469.3	444.2	433.6	429.4	424.8	395.3	363.9	327.7	294.2	268.4	247.9	239.2	224.3	221.4	209.8	201.7	197.1	192.1	190.1	185.6	180.4	178.3	172.4	170.2	159.5	144.2	129.6	113.5	100.7	86.67	75.99	67.89	66.36	63.74	50.24	37.31	32.09	26.96	23.73	21.09	18.47	21.67	42.37	97.44	211.7	1141	6895	9999.9	1715	24.53	8.984	6.932	5.441	4.768	4.231	3.942	3.612	3.373	3.169	3.087	2.788	2.778	2.561	2.500	2.382	2.237	2.254	2.211	2.150	2.229	2.039
490.0	337.5	426.2	399.0	545.1	3223	6268	1454	410.1	402.1	401.5	388.5	361.6	331.5	301.8	268.2	242.3	224.9	212.6	203.8	198.3	189.7	182.5	178.6	174.4	171.2	167.3	163.8	161.3	158.4	155.6	145.8	133.5	120.1	106.6	95.06	82.72	72.94	64.72	58.75	57.81	54.66	41.63	32.68	27.62	24.06	21.34	18.32	17.79	20.16	31.16	56.42	263.9	1660	5499	9999.9	7034	130.7	12.36	7.090	5.492	4.655	4.212	3.691	3.449	3.281	3.176	2.807	2.571	2.606	2.452	2.340	2.226	2.079	2.115	2.092	2.051	2.007
495.0	271.6	353.7	410.6	392.7	1039	5458	3929	456.4	364.9	366.5	349.6	327.9	303.3	274.7	242.2	220.1	203.0	192.6	182.8	175.0	167.9	161.2	156.8	153.7	151.9	150.2	146.0	142.4	142.7	140.8	131.2	122.1	109.8	99.53	87.22	77.14	68.87	60.77	54.13	49.83	49.79	46.08	35.84	28.47	24.41	20.99	18.81	16.58	15.72	16.54	21.38	67.05	378.3	1237	3446	9999.9	9999.9	210.9	10.85	6.595	5.226	4.322	3.756	3.408	2.995	2.905	2.586	2.499	2.427	2.243	2.171	2.035	1.866	2.031	1.909	1.921	1.789
500.0	240.5	311.5	395.1	333.3	478.4	2948	7076	1267	339.8	332.8	331.8	304.3	277.9	249.5	225.0	201.1	185.1	176.1	165.5	161.7	151.9	145.7	143.2	141.4	139.0	133.8	131.9	131.3	131.5	128.3	119.8	113.9	100.8	91.77	82.15	72.53	65.75	57.29	52.17	46.38	43.71	44.01	38.74	28.83	24.26	21.20	18.15	16.27	14.73	13.46	13.05	22.92	92.13	283.8	792.0	4210	9999.9	7744	32.01	9.189	5.823	4.812	3.912	3.451	3.175	2.689	2.640	2.408	2.238	2.039	2.178	1.938	1.832	1.945	1.924	1.606	1.661
505.0	218.4	267.4	359.4	325.7	322.8	1155	7147	3063	344.6	303.0	306.1	280.0	255.4	228.5	204.0	185.5	170.0	160.2	152.2	146.5	136.6	134.4	128.9	129.0	125.3	121.1	120.0	119.3	119.6	116.7	109.8	103.1	94.48	84.33	76.27	66.78	61.93	55.29	49.38	42.65	39.62	39.67	39.62	30.74	23.61	20.25	18.57	16.27	13.86	12.61	11.11	12.86	27.72	70.72	185.4	991.4	5779	9999.9	1909	26.84	7.432	5.412	4.164	3.813	3.385	2.802	2.527	2.411	2.136	2.152	2.139	1.742	1.781	1.760	1.704	1.590	1.697
510.0	198.6	224.2	293.2	329.1	271.6	462.6	3641	7074	1253	281.6	272.2	251.9	231.3	204.6	180.3	165.0	149.0	141.8	133.2	128.7	120.7	116.1	114.2	112.7	109.0	107.3	105.6	104.9	103.9	102.8	98.08	91.77	83.76	75.05	69.06	62.05	56.03	50.45	45.48	40.03	35.96	33.50	34.47	32.77	25.88	20.57	17.86	15.51	13.33	11.86	10.68	10.14	13.09	22.36	48.21	229.1	1367	4960	9999.9	5996	132.1	9.812	5.047	4.243	3.407	2.882	2.615	2.314	2.090	1.984	2.013	1.727	1.673	1.702	1.677	1.545	1.754
515.0	174.9	194.7	229.7	313.3	266.5	279.9	1078	6559	4849	317.8	234.7	222.7	203.1	181.2	160.7	142.7	130.5	126.0	115.6	109.6	104.1	101.2	99.96	97.50	95.31	93.59	92.07	91.82	89.89	89.14	86.58	80.83	73.01	67.62	61.08	55.70	50.92	45.18	40.99	36.69	32.94	29.96	28.01	30.14	27.83	21.27	17.02	14.77	12.92	11.13	10.31	9.556	8.652	11.05	17.09	57.06	310.9	1114	3014	9842	7870	205.8	8.316	5.131	3.986	2.985	2.759	2.237	2.021	1.892	1.786	1.779	1.642	1.621	1.413	1.416	1.371
520.0	147.7	168.4	204.8	258.7	261.9	223.9	408.9	3523	8238	1064	220.0	204.3	180.4	163.3	143.2	127.4	120.1	109.3	106.5	97.72	93.08	90.41	89.02	88.72	85.07	84.12	81.93	81.67	81.64	80.91	78.62	73.45	66.43	61.18	56.62	50.74	45.82	42.12	38.05	34.04	30.30	27.01	25.39	24.51	26.66	22.42	17.13	14.01	12.93	11.03	9.513	9.090	8.488	8.258	9.369	18.56	75.17	254.4	687.4	3612	9999.9	5764	31.68	6.755	4.413	3.329	2.638	2.247	1.949	1.903	1.706	1.766	1.604	1.523	1.427	1.484	1.379
525.0	157.6	164.7	166.7	209.7	267.5	213.8	241.4	1296	8704	2395	226.3	189.2	169.0	150.5	132.6	116.9	107.1	99.80	93.33	89.68	84.17	82.10	80.36	78.44	76.13	74.60	73.86	73.94	74.13	72.74	72.13	66.21	59.21	55.61	51.42	46.41	42.13	38.21	35.52	31.89	28.99	25.60	23.58	21.40	23.58	23.50	18.24	14.15	12.20	10.57	9.399	8.494	8.457	7.283	7.305	9.033	22.28	62.51	160.1	839.7	4670	9999.9	1895	25.72	5.691	3.854	2.817	2.456	2.103	1.871	1.721	1.538	1.527	1.414	1.258	1.345	1.254
530.0	135.8	144.5	144.5	161.6	226.9	219.5	189.2	439.2	4468	7949	1048	170.1	148.5	133.0	117.0	102.5	94.14	87.05	81.36	77.39	73.45	71.64	69.93	68.73	66.20	64.47	64.10	63.63	64.44	63.51	61.87	57.50	52.74	48.83	44.99	40.41	37.05	34.26	31.54	28.34	25.63	23.72	21.16	19.25	18.91	20.70	19.20	15.06	11.50	9.878	8.600	7.801	7.333	6.875	6.724	6.577	9.700	18.70	40.78	192.7	1093	4154	7243	4473	131.1	7.476	3.560	2.721	2.395	2.037	1.607	1.548	1.506	1.335	1.351	1.247	1.319
535.0	113.0	127.6	124.2	133.3	166.8	227.6	168.4	218.0	1224	7820	5207	208.5	131.5	115.5	99.56	87.26	81.98	74.06	69.79	67.21	64.44	61.05	59.20	58.80	55.75	55.95	55.70	54.34	54.90	55.20	52.65	49.64	45.95	42.17	38.69	35.27	32.93	30.18	27.37	25.31	22.31	20.23	18.82	18.01	16.62	16.02	17.34	15.84	11.77	9.123	7.871	6.977	6.517	5.989	6.301	5.874	6.491	7.994	12.96	47.14	247.6	930.9	2130	7050	5684	197.4	6.070	3.243	2.630	2.255	1.721	1.678	1.379	1.369	1.188	1.259	1.233
540.0	109.9	113.0	111.1	117.7	133.4	200.8	169.7	158.4	388.6	4088	9343	766.4	121.4	100.6	89.48	79.27	71.83	66.85	61.95	58.63	57.08	53.47	52.59	51.55	48.62	48.44	48.05	47.77	48.85	48.43	46.08	43.06	40.99	37.73	34.69	31.72	29.23	26.89	24.79	22.73	20.60	18.90	17.51	16.10	14.93	14.02	14.13	14.97	12.49	9.064	7.308	6.754	6.106	5.932	5.776	5.632	5.481	5.350	6.717	14.05	59.00	211.6	484.7	2561	7787	2068	30.87	4.729	3.032	2.381	1.819	1.681	1.381	1.385	1.141	1.146	1.011
545.0	95.76	104.6	102.6	108.1	115.4	171.6	185.1	131.9	188.5	1400	9993	1819	120.8	92.39	81.62	72.97	65.04	60.01	56.33	53.73	50.18	48.65	46.09	45.50	43.31	41.98	43.02	42.72	42.62	42.66	40.73	38.43	36.51	33.27	31.02	28.34	26.06	24.19	22.51	20.96	18.34	16.86	15.60	14.69	13.86	11.90	12.22	13.10	12.84	9.699	7.233	6.400	6.013	5.573	5.270	5.171	5.238	4.651	5.107	6.438	16.39	50.60	112.2	593.9	3353	7112	1785	23.82	3.933	2.778	1.901	1.762	1.508	1.332	1.073	1.026	1.021
550.0	95.89	97.05	99.56	95.92	94.50	120.8	176.5	130.4	122.6	409.1	4881	8005	631.7	82.83	70.49	61.84	55.33	50.76	47.18	44.35	41.37	40.51	38.45	37.94	36.67	36.10	35.08	35.45	35.29	35.20	34.19	31.65	30.38	28.57	26.04	23.68	21.98	20.68	19.12	17.48	15.74	14.52	13.83	12.63	11.81	10.82	10.14	9.987	10.60	9.802	7.661	5.963	5.237	5.138	4.614	4.845	4.800	4.586	4.151	4.365	6.418	14.22	28.26	135.9	778.6	2849	4992	3161	128.4	5.774	2.577	1.848	1.594	1.453	1.161	1.139	0.894
555.0	97.80	92.17	89.09	81.82	81.53	85.28	139.4	144.4	97.21	162.2	1280	8300	4090	107.6	60.99	52.35	45.50	41.22	37.63	35.63	35.66	32.72	32.46	31.37	30.67	29.73	28.80	28.56	29.45	28.31	27.83	26.37	24.79	23.10	21.34	19.68	18.22	17.27	15.48	14.09	13.38	12.63	11.55	10.50	9.738	9.182	8.221	8.036	7.832	8.779	7.673	5.682	4.656	4.394	4.120	4.214	4.030	4.010	3.996	3.755	3.808	5.602	8.949	32.81	176.2	638.2	1439	4529	3881	35.08	4.159	2.361	1.932	1.399	1.191	1.319	0.858
560.0	98.75	91.34	83.96	70.36	69.12	74.64	103.3	153.4	94.95	96.23	354.4	4354	8171	440.0	54.08	45.53	41.01	37.30	33.21	31.29	29.55	28.26	27.04	27.51	25.62	25.74	24.22	24.80	24.72	24.40	23.19	22.97	20.83	19.75	17.65	16.54	15.14	14.95	13.19	12.37	11.50	10.54	9.878	8.963	8.401	8.237	7.566	7.001	6.382	7.243	7.230	5.859	4.286	4.019	3.770	3.573	3.697	3.379	3.673	3.457	2.905	3.497	4.255	9.610	41.54	144.8	327.0	1601	5030	1968	29.97	3.102	2.056	1.571	1.275	1.171	0.928
565.0	88.25	89.14	91.82	71.17	64.69	60.56	77.32	140.8	103.5	78.71	138.1	1451	9375	1268	54.58	41.08	36.40	32.11	28.95	27.20	26.11	24.40	23.25	23.07	22.45	21.80	21.04	21.43	20.86	20.97	20.05	19.26	17.95	17.60	15.39	14.44	13.39	12.60	11.60	10.89	10.10	9.229	8.789	8.098	7.363	7.528	6.581	6.220	5.472	5.630	6.119	5.817	4.702	3.808	3.320	3.385	3.242	3.173	3.157	3.196	2.801	2.757	3.041	4.193	11.25	34.63	75.55	369.1	2089	4451	1544	21.89	2.540	1.773	1.359	1.101	0.940
570.0	93.16	89.91	78.98	62.07	54.41	53.13	59.05	97.04	121.4	70.83	80.55	393.2	4852	6596	388.6	35.85	30.92	27.08	24.44	22.97	21.50	20.69	19.21	18.58	18.45	17.89	17.46	17.26	17.24	17.83	16.82	16.00	14.97	13.82	12.88	12.23	11.22	10.26	9.783	8.799	8.401	7.943	7.457	6.636	6.598	6.231	5.775	5.103	4.762	4.307	4.538	5.096	4.561	3.535	3.081	2.923	2.765	2.646	2.671	2.712	2.781	2.391	2.324	2.655	4.367	9.525	18.85	84.68	484.7	1744	3075	1685	116.3	3.723	1.575	1.167	0.961
575.0	75.16	82.31	76.64	61.63	44.22	46.33	49.25	61.41	114.5	79.78	63.92	134.9	1273	7419	2955	45.23	26.17	22.94	20.07	18.52	17.54	17.05	15.46	15.74	14.70	14.95	14.54	14.17	14.14	14.22	14.05	13.31	12.25	11.23	10.31	10.02	9.207	8.709	8.357	7.344	7.038	6.368	6.257	5.646	5.349	5.106	4.693	4.597	4.054	3.783	3.515	3.745	4.164	3.674	2.866	2.499	2.339	2.296	2.280	2.060	2.278	2.305	2.108	1.906	2.433	3.620	5.972	20.77	109.9	390.6	873.0	2735	1987	33.94	2.841	1.550	1.133
580.0	77.05	77.52	78.87	54.21	43.32	41.83	47.48	49.26	89.58	101.0	60.57	76.48	331.6	4037	6577	112.9	25.19	20.77	18.06	16.84	15.29	14.71	14.39	13.66	13.15	12.81	11.96	11.73	12.36	11.95	12.28	11.11	10.43	9.679	8.927	8.396	8.218	7.273	6.946	6.594	6.216	5.766	5.527	4.952	4.562	4.435	4.202	3.947	3.450	3.318	2.962	3.011	3.443	3.591	2.930	2.347	2.011	2.018	2.005	1.913	1.927	2.191	2.182	1.902	1.782	2.317	2.732	6.079	26.15	88.88	198.3	973.5	2866	1579	27.46	2.110	1.374
585.0	66.52	84.99	72.25	55.04	42.42	37.61	41.65	40.58	64.71	112.2	63.39	59.86	115.2	1341	8015	804.0	25.58	18.82	16.35	15.27	13.33	12.71	12.13	11.58	11.21	11.45	10.81	10.42	10.73	10.46	10.06	9.343	9.390	8.418	8.146	7.358	7.156	6.481	6.004	5.722	5.161	5.171	4.678	4.344	4.025	3.947	3.871	3.447	3.058	2.911	2.621	2.528	2.886	3.296	2.826	2.418	1.859	1.992	1.814	1.761	1.683	1.869	2.016	1.986	1.624	1.773	1.952	2.719	7.266	21.30	45.90	224.8	1196	2747	1048	19.35	1.581
590.0	73.45	79.41	66.29	50.09	39.47	33.12	34.52	38.48	47.21	93.69	82.18	55.08	64.63	349.0	4242	4848	206.5	17.81	14.81	13.12	11.97	11.20	10.48	9.853	9.914	9.160	9.197	8.727	8.891	8.423	8.594	7.929	7.395	7.046	6.550	6.199	5.583	5.472	4.913	4.822	4.370	4.215	3.850	3.783	3.592	3.439	3.280	3.032	2.671	2.470	2.259	2.225	2.156	2.519	2.691	2.469	1.984	1.729	1.668	1.651	1.510	1.552	1.670	1.793	1.647	1.532	1.505	1.697	2.775	5.917	11.54	51.62	276.3	1035	1839	1070	108.7
595.0	74.85	71.96	62.29	44.74	37.81	31.16	30.94	33.36	37.57	63.96	97.23	59.10	51.40	108.8	1090	5969	1817	21.17	14.26	11.80	10.35	9.554	8.534	8.271	7.871	7.547	7.606	7.807	7.636	7.357	7.232	6.575	6.266	5.899	5.150	5.106	4.576	4.392	4.172	4.128	3.521	3.581	3.501	3.114	3.092	2.957	2.688	2.688	2.276	2.099	1.944	1.923	1.762	1.727	2.170	2.395	1.993	1.657	1.395	1.472	1.376	1.445	1.310	1.479	1.607	1.541	1.401	1.263	1.578	2.354	3.533	12.72	62.63	231.8	506.8	1548	1454
600.0	69.10	70.55	68.22	43.20	30.83	28.42	29.93	32.99	35.04	47.53	96.40	65.46	48.78	56.47	273.2	3448	4547	69.48	13.53	10.68	8.955	8.208	7.579	7.192	7.149	6.769	6.809	6.527	6.098	6.259	5.974	5.588	5.557	4.854	4.659	4.417	4.053	3.834	3.591	3.470	3.164	3.088	3.107	2.936	2.785	2.642	2.248	2.417	2.024	1.878	1.868	1.665	1.534	1.563	1.673	1.977	1.907	1.712	1.267	1.217	1.297	1.267	1.253	1.281	1.449	1.573	1.352	1.229	1.195	1.320	1.688	3.806	15.03	52.60	115.0	523.5	1725
605.0	60.79	72.00	60.19	40.86	29.56	29.09	26.42	30.31	34.61	41.72	84.69	81.05	48.61	43.93	85.40	1165	5975	539.4	13.60	9.715	8.117	7.333	7.109	6.894	6.340	5.991	6.098	5.568	5.461	5.552	5.294	5.051	4.452	4.516	4.448	3.985	3.578	3.659	3.223	3.089	2.638	2.732	2.774	2.628	2.417	2.373	2.214	2.107	1.998	1.744	1.668	1.554	1.474	1.323	1.419	1.723	1.967	1.702	1.278	1.128	1.102	1.146	1.161	1.136	1.245	1.485	1.300	1.155	1.121	1.142	1.174	1.689	4.149	12.72	26.90	120.1	672.8
610.0	58.87	69.38	58.62	40.69	30.18	26.41	26.18	32.05	36.64	40.50	64.58	93.55	56.19	41.48	44.48	294.0	3438	3376	51.42	9.666	7.981	6.883	6.430	5.779	5.613	5.319	4.994	4.836	4.909	4.968	4.715	4.121	4.031	3.894	3.789	3.406	3.284	2.927	2.913	2.631	2.525	2.320	2.350	2.098	2.147	2.030	1.990	1.747	1.735	1.597	1.399	1.391	1.225	1.288	1.259	1.357	1.577	1.641	1.467	1.156	1.083	1.067	1.019	0.986	1.042	1.092	1.209	1.313	1.047	1.039	1.044	1.126	1.677	3.498	6.806	27.76	154.5
615.0	62.69	55.36	54.68	42.25	28.88	24.02	26.58	28.73	34.40	41.12	53.69	86.74	72.28	43.53	34.54	83.95	912.1	4481	602.0	11.31	8.080	6.363	5.837	5.028	4.773	4.633	4.407	4.102	3.930	3.880	3.999	3.701	3.488	3.172	3.228	2.869	3.023	2.637	2.523	2.334	2.090	1.976	1.944	1.749	1.792	1.812	1.667	1.628	1.525	1.398	1.307	1.081	1.160	1.054	1.055	1.108	1.207	1.390	1.485	1.133	1.056	0.850	0.890	0.930	1.093	0.976	0.879	1.104	1.238	0.992	1.078	0.973	0.985	1.455	2.146	6.809	35.17
620.0	60.50	60.87	56.77	38.33	29.10	23.11	25.80	29.52	31.90	42.53	50.46	72.87	84.83	44.88	32.59	36.76	226.4	2793	2812	40.00	7.988	6.160	5.871	4.554	4.501	3.872	3.988	3.797	3.688	3.632	3.379	3.135	3.231	2.745	2.673	2.717	2.625	2.294	2.320	2.105	1.826	1.791	1.916	1.538	1.620	1.534	1.437	1.486	1.282	1.285	1.215	1.176	1.120	0.872	1.079	0.872	1.138	1.268	1.335	1.267	1.045	0.775	0.826	0.879	0.848	0.888	0.807	1.020	1.196	0.986	0.837	0.847	0.897	1.051	1.063	2.132	8.402
625.0	52.61	55.73	54.12	34.78	28.44	22.78	22.61	26.60	31.60	40.65	47.46	61.60	84.10	48.19	31.19	25.01	65.94	998.7	4176	329.6	8.257	5.949	5.003	4.294	4.098	3.688	3.573	3.604	3.688	3.108	3.142	2.989	3.215	2.630	2.513	2.451	2.185	2.254	2.133	1.900	1.634	1.723	1.580	1.415	1.517	1.417	1.410	1.372	1.253	1.150	1.086	0.992	0.985	0.916	0.940	0.811	1.011	1.096	1.166	1.082	0.987	0.906	0.882	0.802	0.806	0.814	0.807	0.902	0.924	1.005	0.830	0.781	0.677	0.783	0.701	0.963	2.353
630.0	59.63	52.31	52.92	36.06	25.91	22.63	23.83	28.10	32.38	40.17	45.57	54.44	70.73	59.91	33.58	21.57	28.49	251.1	2660	2278	34.51	6.251	4.887	4.477	3.818	3.657	3.457	3.224	3.094	2.852	2.757	2.750	2.750	2.225	2.120	2.154	1.905	1.893	1.760	1.649	1.586	1.495	1.418	1.340	1.301	1.292	1.198	1.269	1.104	0.971	0.979	0.907	0.899	0.881	0.818	0.811	0.860	0.884	0.889	0.962	1.005	0.989	0.843	0.710	0.734	0.804	0.716	0.790	0.791	0.810	0.799	0.792	0.714	0.619	0.626	0.701	0.980
635.0	60.31	62.93	48.32	39.33	26.03	23.25	20.84	26.23	30.77	38.30	45.98	50.44	60.09	68.73	37.43	21.38	19.54	65.84	721.8	3493	459.6	8.052	5.094	4.318	3.491	3.156	3.021	2.803	2.528	2.606	2.533	2.452	2.346	2.226	1.997	1.871	1.772	1.802	1.552	1.325	1.427	1.447	1.292	1.217	1.088	1.229	1.089	1.058	1.009	0.946	0.859	0.779	0.785	0.871	0.761	0.831	0.724	0.771	0.795	0.798	0.882	0.974	0.787	0.700	0.716	0.749	0.706	0.692	0.709	0.731	0.681	0.990	0.667	0.614	0.620	0.622	0.669
640.0	52.83	56.52	43.56	38.44	27.59	19.19	22.26	24.07	29.48	37.50	44.02	48.49	52.10	63.46	44.59	21.74	19.03	24.40	177.4	2425	1993	21.66	5.283	4.055	3.620	3.319	2.762	2.649	2.450	2.300	2.471	2.371	1.991	2.055	1.723	1.602	1.649	1.629	1.440	1.316	1.330	1.380	1.212	1.124	1.056	1.074	1.012	1.112	0.897	0.942	0.767	0.736	0.746	0.725	0.766	0.782	0.783	0.694	0.801	0.697	0.768	0.898	0.774	0.713	0.696	0.698	0.622	0.725	0.741	0.672	0.579	0.871	0.685	0.628	0.488	0.491	0.587
645.0	56.41	54.71	49.48	32.95	27.33	19.13	22.78	23.80	29.62	38.77	43.34	50.98	50.44	54.37	52.45	23.60	18.23	15.33	48.36	941.3	3227	67.05	5.688	4.262	3.695	2.942	2.902	2.487	2.341	2.058	2.007	2.091	1.801	1.887	1.634	1.909	1.533	1.382	1.348	1.272	1.124	1.290	1.184	1.054	1.002	1.081	0.986	0.930	0.928	0.925	0.765	0.730	0.720	0.754	0.715	0.759	0.772	0.693	0.756	0.686	0.705	0.726	0.827	0.773	0.666	0.646	0.663	0.664	0.722	0.636	0.665	0.710	0.686	0.598	0.666	0.561	0.571
650.0	60.54	53.70	54.22	38.01	25.35	20.66	23.30	24.47	28.22	38.62	42.63	47.74	48.17	48.83	53.48	25.67	18.39	13.36	19.10	252.6	2942	515.7	8.500	4.211	3.544	3.101	2.839	2.229	2.177	1.998	2.152	2.061	1.770	1.672	1.702	1.722	1.456	1.321	1.370	1.211	1.121	1.164	1.131	1.074	0.949	1.040	0.971	0.992	0.911	0.808	0.740	0.751	0.740	0.676	0.698	0.590	0.743	0.614	0.803	0.623	0.650	0.595	0.842	0.683	0.686	0.629	0.640	0.593	0.575	0.650	0.617	0.629	0.681	0.726	0.673	0.578	0.490
