Sample:	'1
File name:	G2025072110ÁøÈªÂ·.FD3
Run date:	'11:28:20, 07/22/2025
Operator:	Administrator
Comment:	'

Instrument
Model:	F-2700 FL Spectrophotometer
Serial number:	23B8-004
ROM Version:	4J14000 07

Instrument parameters
Measurement type:	3-D scan
Data mode:	Fluorescence
EX  Start WL:	220.0 nm
EX  End WL:	600.0 nm
EX Sampling interval:	5.0 nm
EM  Start WL:	230.0 nm
EM  End WL:	650.0 nm
EM Sampling interval:	5.0 nm
Scan speed:	12000 nm/min
EX Slit:	5.0 nm
EM Slit:	5.0 nm
PMT Voltage:	700 V
Response:	Auto 
Corrected spectra:	Off
Contour interval:	50.000

Peak integration
Integration method:	Rectangular
Sensitivity:	1
Threshold:	1.000

Peaks
No.	ApexEX/EM(nm)	Height(Data)
1	225.0/300.0	678.9
2	225.0/570.0	106.5
3	225.0/625.0	55.44
4	240.0/265.0	407.0
5	240.0/520.0	349.0
6	245.0/270.0	402.6
7	245.0/385.0	2124
8	245.0/535.0	295.7
9	250.0/275.0	555.3
10	250.0/390.0	2092
11	250.0/545.0	238.6
12	255.0/280.0	646.0
13	255.0/560.0	201.9
14	260.0/290.0	718.6
15	260.0/575.0	163.8
16	265.0/295.0	878.4
17	265.0/585.0	144.1
18	270.0/300.0	1166
19	270.0/600.0	118.2
20	275.0/305.0	1138
21	275.0/610.0	94.48
22	280.0/625.0	78.74
23	285.0/320.0	1045
24	285.0/635.0	56.84
25	290.0/325.0	940.1
26	305.0/345.0	742.1
27	440.0/520.0	38.01
28	500.0/385.0	8.566
29	505.0/275.0	3.520
30	510.0/280.0	3.902
31	520.0/285.0	3.993
32	525.0/290.0	3.840
33	545.0/300.0	5.739
34	550.0/305.0	5.486
35	560.0/310.0	5.245
36	570.0/315.0	5.096
37	580.0/320.0	5.045

Data points
	220.0	225.0	230.0	235.0	240.0	245.0	250.0	255.0	260.0	265.0	270.0	275.0	280.0	285.0	290.0	295.0	300.0	305.0	310.0	315.0	320.0	325.0	330.0	335.0	340.0	345.0	350.0	355.0	360.0	365.0	370.0	375.0	380.0	385.0	390.0	395.0	400.0	405.0	410.0	415.0	420.0	425.0	430.0	435.0	440.0	445.0	450.0	455.0	460.0	465.0	470.0	475.0	480.0	485.0	490.0	495.0	500.0	505.0	510.0	515.0	520.0	525.0	530.0	535.0	540.0	545.0	550.0	555.0	560.0	565.0	570.0	575.0	580.0	585.0	590.0	595.0	600.0
230.0	51.57	937.9	2483	749.4	32.59	8.911	7.717	6.109	5.200	5.053	4.587	4.097	3.739	3.252	2.810	2.270	2.039	1.784	1.606	1.438	1.415	1.242	1.203	1.074	1.027	0.965	0.878	0.884	0.807	0.773	0.712	0.681	0.592	0.588	0.540	0.559	0.534	0.545	0.454	0.465	0.487	0.508	0.548	0.437	0.413	0.401	1.341	5.028	8.206	6.130	2.450	0.618	0.348	0.321	0.294	0.301	0.350	0.307	0.377	0.309	0.323	0.312	0.328	0.327	0.342	0.334	0.325	0.308	0.339	0.315	0.329	0.348	0.331	0.361	0.344	0.325	0.359
235.0	90.17	275.9	1623	2838	591.4	47.98	7.806	7.099	5.891	5.391	4.509	4.255	3.471	3.129	2.561	2.606	1.859	1.691	1.555	1.444	1.400	1.358	1.271	1.096	1.067	0.988	0.786	0.924	0.755	0.762	0.760	0.678	0.643	0.623	0.501	0.487	0.499	0.508	0.487	0.424	0.477	0.466	0.543	0.548	0.539	0.453	0.557	1.521	3.651	6.901	9.578	9.676	4.430	1.002	0.348	0.322	0.364	0.324	0.358	0.305	0.371	0.322	0.299	0.323	0.360	0.341	0.305	0.284	0.325	0.367	0.292	0.305	0.321	0.371	0.352	0.278	0.322
240.0	148.4	134.7	512.1	2505	3046	458.6	26.67	8.508	7.196	5.564	4.826	5.384	4.190	3.578	2.642	2.647	1.981	1.657	1.522	1.568	1.708	1.291	1.188	1.075	1.197	1.063	0.912	0.829	0.763	0.759	0.772	0.602	0.642	0.578	0.597	0.451	0.561	0.557	0.474	0.464	0.532	0.435	0.461	0.512	0.610	0.758	0.485	0.640	1.161	2.208	5.907	12.99	15.57	9.955	3.611	0.634	0.457	0.283	0.345	0.295	0.296	0.291	0.304	0.354	0.335	0.332	0.309	0.293	0.329	0.337	0.337	0.279	0.337	0.338	0.343	0.332	0.324
245.0	115.0	172.4	174.5	869.1	3486	3098	328.8	13.17	8.057	7.440	5.556	5.394	4.658	3.640	2.615	2.543	2.428	2.021	1.784	1.590	1.485	1.511	1.314	1.173	1.027	0.939	0.857	0.869	0.700	0.804	0.909	0.747	0.658	0.548	0.576	0.487	0.578	0.479	0.535	0.476	0.412	0.466	0.409	0.388	0.538	0.758	0.799	0.818	0.626	0.739	1.664	4.820	12.16	19.24	17.46	9.239	2.290	0.378	0.371	0.310	0.323	0.324	0.312	0.348	0.368	0.333	0.290	0.301	0.319	0.320	0.316	0.302	0.394	0.325	0.343	0.371	0.389
250.0	59.88	150.6	237.7	286.1	1167	3330	3899	1207	61.56	9.655	7.409	5.882	5.280	4.040	3.047	2.740	2.386	2.091	1.842	1.478	1.589	1.434	1.225	1.258	1.080	1.082	0.867	0.893	0.893	0.825	0.796	0.789	0.713	0.523	0.573	0.509	0.564	0.521	0.523	0.510	0.506	0.459	0.462	0.369	0.415	0.513	0.576	0.936	1.057	0.856	0.908	1.431	3.237	6.785	12.10	17.53	21.01	16.89	8.997	2.438	0.452	0.359	0.336	0.353	0.335	0.335	0.324	0.328	0.331	0.373	0.343	0.332	0.330	0.328	0.312	0.354	0.401
255.0	39.36	59.53	191.4	338.0	351.6	873.2	3482	6146	1602	52.32	9.944	6.707	6.029	4.819	3.549	3.097	2.671	2.319	2.009	1.825	1.734	1.602	1.386	1.323	1.097	1.192	1.036	0.863	0.833	0.849	0.765	0.725	0.738	0.599	0.565	0.618	0.576	0.533	0.497	0.492	0.480	0.535	0.532	0.410	0.435	0.510	0.425	0.526	0.695	1.100	1.321	1.354	1.248	1.838	3.014	4.582	9.087	20.37	33.60	26.85	12.95	2.384	0.389	0.430	0.350	0.351	0.368	0.368	0.339	0.326	0.452	0.338	0.338	0.362	0.370	0.343	0.478
260.0	34.25	38.88	87.39	303.2	327.4	248.4	1114	5628	6433	294.8	25.98	9.199	7.319	5.466	4.353	3.299	3.016	2.204	2.412	1.688	1.900	1.576	1.441	1.318	1.295	1.029	1.118	0.873	0.850	0.816	0.807	0.771	0.817	0.591	0.497	0.703	0.578	0.538	0.501	0.456	0.442	0.492	0.488	0.467	0.444	0.493	0.363	0.370	0.441	0.534	0.970	1.770	1.840	1.268	1.059	1.477	2.490	5.938	16.45	31.62	34.18	24.51	8.976	1.302	0.403	0.376	0.403	0.374	0.370	0.370	0.411	0.352	0.312	0.420	0.340	0.369	0.417
265.0	42.71	36.51	40.55	148.9	407.0	249.2	295.9	2030	7633	5909	232.5	14.44	10.42	7.013	4.758	3.954	3.276	2.466	2.392	2.029	1.773	1.431	1.497	1.215	1.250	1.081	1.139	1.072	0.949	0.955	0.904	0.838	0.820	0.664	0.593	0.642	0.678	0.576	0.501	0.462	0.505	0.471	0.458	0.399	0.454	0.456	0.441	0.533	0.396	0.384	0.532	0.994	1.924	2.264	1.565	0.897	0.926	1.686	4.190	10.36	23.60	42.69	33.21	21.07	4.634	0.628	0.439	0.410	0.382	0.407	0.422	0.449	0.355	0.334	0.305	0.378	0.373
270.0	82.58	72.30	52.15	62.99	211.2	402.6	299.7	518.3	2562	6918	6164	918.0	49.76	9.140	5.904	4.583	3.823	2.828	2.644	2.206	1.916	1.674	1.565	1.352	1.320	1.318	1.206	1.079	0.995	0.999	0.974	0.939	0.820	0.763	0.635	0.739	0.647	0.527	0.579	0.499	0.548	0.526	0.544	0.563	0.489	0.520	0.465	0.576	0.416	0.417	0.441	0.566	0.899	1.394	1.975	2.202	1.820	1.284	1.440	2.711	5.985	13.14	21.69	36.17	36.26	35.62	14.24	4.292	0.663	0.490	0.440	0.445	0.379	0.400	0.395	0.418	0.399
275.0	206.2	227.3	132.8	70.56	89.25	214.6	555.3	377.4	659.2	1828	6281	9999.9	1247	41.47	8.773	6.630	4.742	3.437	3.007	2.485	2.066	2.020	1.758	1.499	1.341	1.366	1.339	1.183	1.065	0.959	0.992	0.958	0.980	0.900	0.942	0.777	0.749	0.686	0.661	0.638	0.659	0.653	0.760	0.698	0.801	0.916	0.837	0.815	0.651	0.562	0.445	0.520	0.649	0.727	0.889	1.350	2.522	3.520	2.254	1.369	1.904	3.525	5.488	9.052	12.59	31.00	53.86	33.47	21.44	4.226	0.581	0.433	0.405	0.408	0.422	0.412	0.396
280.0	354.9	395.0	227.9	100.6	65.47	108.7	391.9	646.0	353.7	538.5	2006	9631	9670	175.4	19.62	9.600	6.335	4.637	3.905	2.850	2.293	2.055	1.828	1.821	1.514	1.343	1.254	1.235	1.177	1.145	1.163	0.935	1.009	1.066	1.208	0.922	0.887	0.782	0.817	0.784	0.715	0.762	0.918	0.928	1.126	1.247	1.183	1.182	0.969	0.765	0.564	0.535	0.598	0.568	0.661	0.761	1.304	2.637	3.902	3.009	1.665	1.583	1.942	2.843	3.516	8.389	20.74	40.66	62.45	31.59	14.95	1.861	0.501	0.527	0.384	0.459	0.383
285.0	490.1	518.8	323.9	138.1	76.14	90.30	202.6	644.2	611.4	318.2	629.8	3313	9999.9	7125	130.7	13.00	7.669	5.257	4.228	3.421	2.787	2.279	2.141	1.780	1.597	1.581	1.253	1.260	1.196	1.004	1.179	1.105	0.971	1.200	1.495	1.102	1.165	0.953	0.852	0.845	0.784	0.894	1.013	1.039	1.374	1.427	1.486	1.334	1.088	0.950	0.690	0.666	0.670	0.590	0.642	0.623	0.904	1.457	2.471	3.849	3.993	2.225	1.565	1.605	1.649	2.822	5.515	11.67	29.23	53.09	64.10	26.44	8.268	0.878	0.495	0.445	0.453
290.0	596.2	623.7	423.9	198.6	102.8	102.8	148.9	338.2	718.6	614.5	437.3	970.3	3391	8694	7978	509.9	29.83	7.791	5.126	4.245	3.431	2.604	2.207	2.020	1.836	1.671	1.449	1.246	1.251	1.083	1.189	1.146	1.143	1.190	1.484	1.297	1.281	1.105	0.954	0.934	0.858	1.030	1.153	1.210	1.557	1.629	1.782	1.691	1.314	1.125	0.814	0.752	0.673	0.614	0.719	0.770	0.833	1.016	1.412	1.958	2.959	3.840	3.775	2.982	2.039	1.890	2.475	3.740	7.673	14.80	27.68	38.40	37.39	40.64	17.36	6.717	0.985
295.0	625.1	674.4	498.4	241.6	147.4	133.8	166.7	251.5	422.9	878.4	837.9	539.1	980.4	2245	6799	7738	697.9	24.12	7.652	5.194	3.654	3.157	2.885	2.262	2.019	1.672	1.548	1.353	1.392	1.295	1.184	1.072	0.997	1.324	1.407	1.300	1.306	1.113	0.989	1.013	1.019	1.028	1.171	1.223	1.587	1.623	1.924	1.847	1.535	1.222	0.933	0.982	0.860	0.793	0.730	0.916	0.989	1.164	1.208	1.559	1.793	2.255	2.872	4.419	4.748	3.328	2.382	2.253	2.968	4.493	7.123	9.462	11.39	25.32	52.01	62.92	27.28
300.0	606.8	678.9	511.1	280.7	180.4	158.2	188.9	255.5	354.3	643.7	1166	693.1	515.1	681.1	1998	9290	6439	99.76	13.75	6.927	4.744	3.962	3.000	2.645	2.104	2.143	1.805	1.641	1.589	1.267	1.327	1.154	1.076	1.267	1.432	1.531	1.291	1.257	0.952	1.064	1.096	1.100	1.131	1.253	1.618	1.813	1.949	1.849	1.631	1.359	1.131	1.009	0.973	0.914	0.874	1.032	1.133	1.182	1.384	1.525	1.674	1.805	2.116	2.933	4.768	5.739	4.361	2.590	2.133	2.438	3.055	3.100	3.388	6.661	16.84	40.80	62.74
305.0	580.2	648.7	532.2	316.5	214.0	190.9	223.7	294.0	367.3	521.8	963.0	1138	547.9	393.3	590.9	3067	9838	5007	78.94	9.448	6.417	4.703	3.651	2.717	2.305	1.981	1.881	1.507	1.437	1.405	1.346	1.235	1.260	1.307	1.361	1.416	1.144	1.184	0.971	0.978	1.092	1.016	1.142	1.331	1.494	1.798	1.677	1.861	1.795	1.460	1.162	1.141	1.004	1.007	1.150	1.064	1.411	1.254	1.389	1.502	1.761	1.791	2.023	2.376	3.057	4.333	5.486	4.977	3.156	2.340	2.242	2.010	1.823	2.459	4.558	10.70	24.16
310.0	519.9	621.0	540.5	347.9	254.3	238.4	269.5	335.0	416.1	523.9	723.5	1060	1002	503.6	336.1	812.7	3091	6985	6388	336.9	21.88	6.525	4.554	3.595	2.676	2.261	1.957	1.784	1.739	1.621	1.344	1.206	1.280	1.246	1.268	1.298	1.186	1.150	1.045	1.088	1.023	1.065	1.117	1.223	1.383	1.599	1.703	1.895	1.769	1.472	1.315	1.180	1.244	1.173	1.178	1.238	1.478	1.423	1.572	1.714	1.891	1.949	2.149	2.471	2.704	3.306	3.619	4.554	5.245	4.769	3.710	2.249	1.873	1.829	2.018	3.307	6.225
315.0	482.3	614.4	574.1	398.4	284.5	285.1	322.0	384.0	459.5	567.1	693.5	810.1	995.9	938.5	405.4	352.2	802.7	1740	5390	8013	502.2	18.63	6.130	4.553	3.472	2.736	2.408	2.192	1.880	1.897	1.392	1.403	1.276	1.166	1.238	1.244	1.247	1.115	1.033	1.135	1.018	1.085	1.174	1.300	1.276	1.429	1.659	1.912	1.938	1.523	1.381	1.402	1.420	1.379	1.252	1.467	1.729	1.600	1.711	1.981	2.104	2.265	2.443	2.582	2.744	2.981	2.908	3.292	3.822	4.337	5.096	4.725	2.981	2.086	1.748	1.887	2.390
320.0	536.3	679.4	656.1	458.4	340.7	313.8	368.3	421.8	506.4	614.7	726.2	796.5	843.6	1045	682.3	317.1	331.0	492.0	1519	6915	4628	72.73	10.75	6.125	4.006	3.258	2.679	2.237	1.886	1.727	1.565	1.475	1.472	1.337	1.329	1.271	1.240	1.102	1.083	1.093	1.057	1.003	1.259	1.231	1.453	1.660	1.968	2.166	2.076	1.815	1.557	1.689	1.705	1.531	1.408	1.632	1.762	1.871	2.012	2.146	2.169	2.469	2.464	2.833	3.064	3.207	3.129	3.163	3.395	3.596	4.115	4.957	5.045	3.394	2.235	1.931	1.752
325.0	618.1	865.1	880.0	619.9	402.3	358.7	393.6	462.2	556.0	669.5	789.5	847.3	839.2	895.4	940.1	475.9	272.5	247.2	431.6	2153	7195	3863	59.96	8.478	5.352	4.093	2.968	2.590	2.209	1.964	1.616	1.417	1.330	1.357	1.462	1.380	1.202	1.111	1.042	1.034	1.001	1.066	1.251	1.163	1.574	1.905	2.414	2.641	2.792	2.232	1.922	2.149	1.836	1.737	1.662	1.830	1.919	2.090	2.093	2.276	2.313	2.636	2.803	3.063	3.177	3.487	3.267	3.499	3.452	3.774	3.781	3.787	4.392	4.910	4.096	2.538	1.842
330.0	678.3	1055	1128	874.4	574.0	456.8	461.9	523.8	615.4	738.7	870.9	931.0	923.8	860.2	843.7	767.8	449.2	259.3	233.9	578.0	2220	5219	5011	1094	19.46	5.656	3.951	3.196	2.520	2.317	1.914	1.619	1.459	1.448	1.354	1.414	1.219	1.090	1.179	0.994	1.155	1.266	1.274	1.377	1.638	2.146	2.594	2.944	3.317	3.088	2.705	2.901	2.206	2.144	1.919	1.998	2.217	2.144	2.396	2.518	2.605	2.701	2.972	3.123	3.372	3.619	3.882	3.924	4.008	3.814	3.926	3.966	3.902	3.913	4.450	4.269	3.573
335.0	760.9	1177	1336	1132	776.2	603.8	559.4	605.3	692.6	818.3	948.8	1027	1016	933.8	803.5	739.3	747.8	412.4	250.8	272.9	594.7	1303	4024	6819	433.6	20.07	5.588	4.218	3.180	2.599	2.177	1.783	1.742	1.355	1.462	1.241	1.186	1.216	1.256	1.002	1.132	1.205	1.352	1.548	1.783	2.187	2.679	3.357	3.905	3.641	3.394	3.321	3.064	2.690	2.475	2.494	2.564	2.516	2.371	2.845	2.925	2.853	3.381	3.710	3.767	4.039	3.987	4.059	4.076	4.056	4.360	4.082	4.238	3.927	3.751	3.591	3.961
340.0	812.6	1235	1496	1293	941.6	728.4	657.0	687.3	767.3	889.2	1007	1079	1084	1000	861.7	721.2	761.0	641.3	331.7	242.3	264.6	384.4	1139	5449	3768	349.6	11.48	5.081	3.856	3.201	2.490	2.057	1.852	1.498	1.444	1.265	1.245	1.126	1.234	1.099	1.109	1.196	1.331	1.514	1.829	2.266	2.878	3.841	4.267	4.105	3.909	4.072	3.738	3.532	2.983	2.831	3.124	2.924	2.874	3.014	3.110	3.188	3.523	3.679	4.300	4.294	4.099	4.484	4.484	4.546	4.770	4.207	4.490	4.193	3.862	3.753	3.544
345.0	791.5	1279	1513	1430	1106	898.8	779.8	782.1	839.9	947.0	1059	1126	1135	1054	914.9	751.8	678.5	742.1	502.6	284.5	224.9	210.8	347.2	1670	5623	3406	54.49	7.939	4.836	3.579	2.897	2.184	1.934	1.630	1.622	1.416	1.171	1.197	1.122	1.152	1.184	1.236	1.373	1.583	1.914	2.395	3.066	3.676	4.376	4.338	4.005	4.659	4.110	3.865	3.655	3.409	3.462	3.274	3.319	3.494	3.434	3.736	3.827	4.016	4.186	4.307	4.338	4.329	4.494	4.590	5.035	4.232	4.462	4.313	4.407	3.711	3.582
350.0	788.1	1236	1560	1533	1305	1127	1004	960.9	988.3	1059	1144	1185	1189	1122	993.9	829.0	701.9	664.6	656.1	468.7	293.4	230.0	216.1	475.5	1715	4090	4122	1059	19.10	5.233	3.717	2.569	2.061	1.783	1.624	1.392	1.336	1.324	1.117	1.166	1.200	1.252	1.340	1.460	1.917	2.450	2.902	3.785	4.440	4.472	4.356	5.075	5.091	4.623	4.510	4.165	4.318	4.119	4.098	4.140	4.042	4.162	4.304	4.402	4.643	4.657	4.678	4.765	4.669	4.866	4.941	4.901	4.764	4.734	4.555	4.194	3.955
355.0	780.6	1248	1583	1641	1545	1386	1303	1240	1235	1234	1280	1294	1272	1209	1091	928.4	799.8	697.7	629.3	653.2	465.3	307.2	246.0	258.9	490.8	1026	2915	5639	407.0	21.59	5.462	3.436	2.573	2.057	1.766	1.600	1.440	1.271	1.356	1.223	1.133	1.317	1.321	1.552	1.910	2.410	2.823	3.885	4.580	4.353	4.874	5.620	5.568	5.363	5.451	5.280	5.311	5.279	5.323	4.858	4.929	5.161	5.022	5.127	5.186	5.251	5.058	5.134	5.413	5.311	5.353	5.270	5.166	5.187	5.014	4.564	4.782
360.0	770.3	1249	1584	1710	1688	1607	1535	1448	1428	1396	1407	1377	1343	1275	1154	1012	878.2	759.6	650.1	651.8	634.4	415.6	303.1	254.1	256.7	331.2	815.0	4051	5111	348.0	13.27	4.475	3.242	2.400	2.000	1.688	1.528	1.310	1.465	1.182	1.146	1.345	1.362	1.613	1.862	2.450	2.976	3.862	4.436	4.437	4.919	5.936	5.998	6.038	6.051	5.567	6.197	5.880	5.785	5.711	5.915	5.748	5.595	5.593	5.617	5.593	5.210	5.531	5.493	5.910	5.447	5.569	5.658	5.291	5.006	5.067	5.012
365.0	780.7	1210	1606	1764	1808	1766	1726	1616	1569	1537	1497	1457	1396	1323	1204	1071	942.7	823.4	713.7	642.2	676.4	574.0	377.4	296.6	244.5	209.1	273.8	1184	4829	3245	52.84	7.902	4.172	2.854	2.373	1.759	1.724	1.462	1.497	1.223	1.414	1.446	1.432	1.700	2.057	2.694	3.022	3.924	4.494	4.567	4.906	6.313	6.293	6.329	6.377	6.370	6.972	6.917	6.705	6.373	6.470	6.429	6.589	6.027	5.908	6.019	5.725	5.766	5.664	5.583	5.671	5.911	5.651	5.792	5.522	5.372	5.397
370.0	768.9	1220	1604	1787	1895	1921	1863	1779	1700	1677	1620	1552	1473	1371	1265	1133	1018	907.4	799.9	707.8	666.5	671.7	563.1	396.8	308.2	237.1	197.6	354.8	1393	3489	3927	1060	18.65	4.504	2.957	2.279	1.933	1.591	1.438	1.424	1.337	1.425	1.545	1.705	2.018	2.600	2.852	3.845	4.229	4.543	4.913	6.284	6.522	6.988	6.997	6.993	7.472	7.653	7.138	7.146	6.750	6.975	6.910	6.858	6.464	6.298	6.334	6.092	5.914	5.960	5.794	5.999	5.883	5.888	5.734	5.793	5.821
375.0	767.0	1215	1629	1839	1994	2022	2008	1898	1838	1788	1727	1654	1542	1425	1302	1180	1081	980.9	889.0	791.9	725.0	684.6	693.0	557.8	412.6	320.8	238.5	216.1	399.3	861.7	2516	5122	359.2	21.20	4.474	2.865	2.173	1.766	1.501	1.527	1.493	1.413	1.526	1.633	2.184	2.502	2.779	3.760	4.374	4.534	5.082	6.555	6.883	7.353	7.638	7.325	8.090	8.188	7.837	7.698	7.689	7.338	7.282	6.996	6.718	6.860	6.854	6.409	6.315	6.087	6.196	6.235	6.320	5.988	5.876	6.118	5.969
380.0	784.6	1194	1584	1838	2000	2122	2069	1967	1912	1849	1780	1683	1575	1445	1320	1209	1112	1032	931.7	856.4	780.1	717.9	697.1	696.1	526.6	385.6	291.9	221.1	208.1	270.9	688.3	3462	4361	303.2	11.44	3.877	2.444	2.009	1.756	1.682	1.552	1.511	1.698	1.791	2.109	2.568	2.908	3.901	4.342	4.629	4.952	6.613	7.019	7.982	7.449	7.826	8.218	8.069	8.086	8.215	7.965	7.572	7.453	7.401	7.186	6.869	7.157	6.518	6.249	6.074	6.484	6.373	6.033	6.072	6.116	6.049	6.310
385.0	800.7	1157	1546	1825	2005	2124	2088	2019	1934	1860	1803	1706	1594	1469	1323	1220	1136	1058	965.8	892.0	822.0	756.2	707.3	711.9	647.0	458.9	341.3	255.7	190.5	158.5	221.5	985.4	3837	2714	225.5	6.952	3.429	2.396	2.052	1.722	1.571	1.522	1.688	1.692	2.147	2.480	2.984	3.835	4.208	4.548	4.949	6.337	6.975	7.475	7.658	7.806	8.566	8.190	8.297	8.102	8.121	7.590	7.604	7.162	7.202	6.913	6.963	6.844	6.406	6.393	6.378	6.025	6.293	6.347	5.866	6.014	5.957
390.0	760.8	1138	1509	1790	1960	2078	2092	1997	1907	1837	1777	1701	1581	1443	1313	1215	1136	1067	994.4	922.8	860.9	802.5	741.7	698.3	679.1	587.7	419.1	305.2	228.5	170.6	144.0	284.9	1080	2639	2928	848.6	16.04	3.668	2.661	2.034	1.722	1.674	1.743	1.776	2.234	2.654	2.849	3.700	4.361	4.342	4.754	6.276	6.766	7.378	7.637	8.051	8.289	7.999	8.217	8.028	7.914	7.414	7.256	7.290	6.895	6.755	6.769	6.659	6.544	6.265	6.287	5.983	6.117	6.481	6.169	5.978	6.193
395.0	741.0	1107	1496	1719	1886	2010	2014	1971	1885	1823	1758	1664	1548	1416	1296	1198	1126	1066	1013	946.9	894.3	836.1	782.5	721.6	668.3	644.8	540.5	372.6	279.7	213.3	161.7	153.9	299.8	647.9	1801	3843	298.1	18.35	4.090	2.678	2.033	1.737	1.780	1.995	2.208	2.607	2.846	3.738	4.203	4.433	4.594	6.261	6.429	6.969	7.597	7.442	8.066	7.790	7.959	7.966	7.597	7.339	7.326	7.087	6.862	6.657	6.694	6.421	6.689	6.178	6.312	6.044	5.909	6.179	6.018	5.788	6.034
400.0	733.6	1086	1461	1668	1840	1948	1964	1941	1844	1749	1706	1628	1527	1383	1271	1175	1116	1068	1007	947.9	908.9	853.5	800.8	741.4	682.4	633.5	596.7	453.4	326.0	250.3	187.8	146.7	142.4	198.1	489.0	2559	3195	257.4	10.54	3.423	2.323	2.016	1.929	2.061	2.198	2.523	2.833	3.979	3.992	4.184	4.679	6.115	6.430	6.794	7.229	7.735	7.694	7.875	7.739	7.639	7.582	6.992	7.130	6.950	6.935	6.672	6.235	5.992	6.262	6.019	5.875	6.039	5.933	6.005	6.052	6.060	5.954
405.0	725.2	1069	1392	1625	1800	1923	1915	1866	1798	1725	1675	1588	1482	1361	1240	1152	1097	1041	992.9	940.4	902.2	859.2	805.1	753.1	693.7	626.5	588.4	530.5	381.0	282.3	218.1	164.6	126.1	109.5	155.5	727.8	2776	2259	38.53	5.691	2.921	2.418	2.264	1.958	2.273	2.464	2.857	3.811	3.913	3.881	4.871	6.026	6.287	6.749	6.882	7.207	7.927	7.681	7.682	7.578	7.434	6.808	7.053	6.960	6.655	6.263	6.101	6.095	5.941	6.353	5.940	5.747	5.849	5.670	5.690	5.864	5.771
410.0	713.1	1031	1353	1561	1711	1826	1848	1808	1739	1676	1599	1523	1412	1305	1193	1111	1056	1007	963.1	922.2	880.6	841.0	794.4	749.7	696.9	628.0	566.1	535.2	463.2	346.3	257.9	195.7	146.2	110.3	95.34	206.1	777.3	1984	2237	681.3	13.85	3.171	2.533	2.188	2.349	2.407	2.715	3.440	3.855	3.986	4.570	5.726	5.895	6.407	6.359	6.933	7.498	7.398	7.683	7.267	7.144	7.020	6.863	6.685	6.436	6.323	6.159	5.853	5.874	5.830	5.626	5.490	5.595	5.594	5.550	5.523	5.604
415.0	659.2	990.7	1280	1486	1606	1717	1763	1745	1673	1617	1527	1448	1356	1249	1136	1049	998.0	959.6	921.2	885.0	843.3	808.2	769.4	735.5	687.2	624.9	560.5	506.3	479.8	425.0	302.1	225.1	169.4	127.8	96.18	99.93	210.9	481.8	1323	2753	268.9	14.80	3.230	2.577	2.478	2.446	2.575	3.370	3.686	3.885	4.241	5.457	5.809	6.418	6.367	6.660	6.857	6.965	7.316	6.752	6.962	6.718	6.400	6.428	6.011	5.962	5.434	5.667	5.479	5.562	5.469	5.179	5.382	5.319	5.306	5.223	5.204
420.0	614.9	945.2	1241	1405	1538	1625	1682	1681	1627	1556	1475	1390	1305	1192	1084	1001	960.5	924.2	893.3	851.9	813.1	785.2	752.1	712.7	674.3	623.4	559.0	500.6	461.0	446.8	350.0	246.9	188.1	142.6	107.3	84.13	90.55	138.0	353.1	1819	2178	228.5	7.694	3.293	2.605	2.695	2.814	3.375	3.523	3.734	4.214	5.234	5.568	6.258	6.062	6.255	7.016	6.919	6.952	6.683	6.889	6.253	6.632	6.132	6.015	5.839	5.360	5.458	5.243	5.433	4.996	5.131	4.688	5.248	4.882	5.044	5.018
425.0	635.3	921.1	1174	1371	1483	1567	1617	1609	1580	1517	1442	1348	1254	1140	1038	964.5	918.3	885.3	853.6	813.2	782.6	755.0	729.0	693.7	659.1	612.3	556.6	499.6	453.1	431.6	394.4	281.0	205.3	158.5	119.4	89.91	72.10	66.39	103.8	512.3	1978	1928	35.52	4.578	2.961	2.956	2.958	3.358	3.438	3.638	3.991	5.165	5.118	5.581	5.653	6.010	6.693	6.554	6.716	6.541	6.529	6.195	6.270	6.068	5.798	5.681	5.787	5.238	5.295	5.154	4.740	5.198	4.756	4.982	4.889	4.697	4.663
430.0	685.0	853.9	1121	1277	1400	1479	1526	1549	1510	1455	1390	1302	1195	1089	990.6	911.6	864.2	835.2	805.7	769.4	745.2	718.9	695.3	668.0	639.1	597.8	549.2	502.0	454.7	416.3	390.2	331.5	241.8	178.4	137.1	105.0	79.43	59.98	55.30	138.1	554.5	1555	1779	525.7	12.53	3.562	2.958	3.288	3.476	3.424	3.667	4.871	4.939	5.230	5.562	5.747	6.476	6.271	6.402	6.124	6.141	6.093	5.955	6.013	5.661	5.484	5.272	5.040	4.823	4.886	4.844	4.979	4.647	4.847	4.659	4.663	4.578
435.0	992.1	826.3	1068	1188	1299	1401	1459	1482	1476	1419	1361	1256	1143	1033	946.6	855.2	809.1	788.3	757.3	722.1	702.4	685.5	657.3	638.8	616.2	576.2	539.9	497.3	457.3	415.2	375.2	342.4	289.1	206.6	156.0	122.2	91.33	70.20	53.38	60.09	144.9	373.1	1093	2185	249.6	13.63	3.828	3.506	3.477	3.401	3.512	4.337	4.756	5.038	5.419	5.371	6.082	6.043	5.703	6.007	6.104	5.775	5.823	5.759	5.589	5.288	5.242	4.853	4.905	4.759	4.652	4.587	4.382	4.436	4.433	4.530	4.663
440.0	1251	875.0	1008	1144	1250	1321	1391	1435	1428	1385	1322	1217	1113	991.2	897.2	817.0	772.3	746.7	719.4	691.8	667.3	655.3	633.5	611.4	593.4	557.4	526.9	490.8	456.9	416.3	371.4	331.9	307.1	238.2	168.7	132.4	101.7	77.74	58.68	47.09	57.18	101.9	295.2	1578	1975	203.4	7.618	3.838	3.831	3.449	3.480	4.335	4.666	4.695	4.920	5.294	5.721	5.688	6.039	5.934	5.915	5.630	5.799	5.331	5.359	5.338	5.352	4.846	4.705	4.410	4.521	4.593	4.502	4.422	4.302	4.300	4.290
445.0	1305	1127	957.8	1070	1196	1270	1344	1390	1364	1326	1266	1178	1052	949.0	854.9	782.1	734.1	703.8	680.1	659.3	633.8	617.4	599.4	583.5	568.5	541.3	508.1	479.2	451.3	413.4	369.3	322.2	294.0	260.8	187.7	138.9	109.5	83.44	65.31	48.83	41.45	43.95	82.72	457.8	1861	1710	30.08	5.202	3.803	3.402	3.502	4.355	4.428	4.565	4.777	4.913	5.433	5.627	5.877	5.637	5.546	5.421	5.602	5.499	5.035	5.059	4.761	4.724	4.781	4.494	4.399	4.213	4.286	3.989	4.024	4.097	3.938
450.0	921.4	1672	1046	1000	1095	1160	1252	1289	1285	1257	1196	1102	993.4	891.8	797.9	725.2	681.2	650.4	626.5	602.0	582.5	568.7	554.0	543.4	525.6	506.2	478.0	455.1	430.3	399.9	361.7	312.1	273.4	251.4	215.0	157.7	117.5	92.26	71.83	55.85	43.45	35.85	37.76	117.9	526.6	1427	1636	460.2	11.21	3.822	3.690	4.211	4.255	4.521	4.571	4.714	5.209	5.262	5.433	5.379	5.250	5.104	5.313	5.176	4.824	4.877	4.564	4.267	4.292	4.245	4.085	3.814	3.890	3.853	3.658	3.707	3.688
455.0	544.5	1733	1719	918.5	995.3	1067	1133	1171	1204	1173	1112	1025	927.3	815.8	733.1	661.7	613.0	586.9	563.5	540.2	531.0	513.7	505.7	490.5	477.7	464.4	443.9	423.5	405.7	381.5	348.2	304.2	261.6	230.0	209.4	180.9	130.3	98.36	78.74	60.89	49.00	38.41	31.67	44.86	131.4	340.5	956.9	1893	207.3	11.68	4.060	4.223	4.192	4.189	4.249	4.297	4.748	4.902	4.946	5.025	4.726	4.673	4.939	4.459	4.666	4.492	4.424	4.060	4.013	3.949	3.693	3.664	3.711	3.337	3.559	3.345	3.587
460.0	422.7	1212	2438	1002	916.1	975.2	1055	1102	1114	1079	1055	966.4	865.5	766.3	677.9	612.7	574.2	542.0	521.4	501.0	487.9	472.3	463.6	454.1	445.3	429.6	415.8	401.2	383.2	362.7	332.8	293.1	252.3	219.5	191.8	182.8	146.5	105.3	82.02	65.15	53.04	40.95	33.46	30.23	45.35	88.91	252.1	1277	1611	160.7	7.221	4.361	4.182	4.327	4.198	4.137	4.226	4.657	4.793	4.665	4.399	4.403	4.743	4.506	4.506	3.957	4.024	4.042	3.764	3.856	3.500	3.598	3.442	3.557	3.387	3.249	3.300
465.0	369.2	764.9	2569	1471	861.9	921.7	985.0	1024	1043	1034	989.0	909.1	807.2	720.6	635.0	570.4	528.3	500.2	486.1	464.6	446.4	437.9	428.8	422.4	414.2	399.4	389.9	374.2	363.8	344.9	316.6	283.9	245.6	211.6	184.0	170.8	153.7	112.6	83.77	68.05	55.30	43.98	34.73	29.07	28.64	34.29	68.18	363.8	1458	1288	25.19	5.677	4.052	4.443	3.869	4.066	4.216	4.425	4.428	4.405	4.151	4.477	4.472	4.324	4.051	3.964	3.945	3.558	3.508	3.555	3.324	3.175	3.470	3.205	3.010	2.983	3.082
470.0	350.9	536.5	1651	2430	993.8	835.1	895.6	933.0	944.4	924.0	904.5	820.4	736.0	653.4	572.1	515.6	472.4	450.1	428.2	415.1	396.9	388.0	380.9	374.2	367.1	359.9	350.6	335.6	331.7	315.9	293.5	262.5	230.3	199.2	170.5	151.5	142.6	122.9	91.25	71.28	57.67	46.79	37.94	31.02	25.85	23.73	28.37	92.17	408.9	1021	1110	367.5	11.33	4.317	3.746	3.915	3.954	3.894	3.936	3.891	3.954	4.046	4.044	3.829	3.976	3.763	3.573	3.426	3.170	3.044	3.219	3.020	3.024	3.005	2.952	2.717	2.817
475.0	315.2	446.6	810.4	2363	1819	754.4	800.2	832.6	850.5	836.9	823.2	734.4	649.6	581.4	507.1	456.4	421.4	400.3	376.3	365.4	348.1	344.4	335.2	328.9	323.4	314.8	310.1	300.3	295.7	287.4	268.4	238.8	214.6	185.8	158.7	139.1	125.2	118.2	103.4	75.01	59.09	48.78	40.04	34.07	27.57	23.11	20.91	32.37	100.9	240.8	588.5	1255	206.4	13.52	3.886	3.762	3.799	3.532	3.719	3.526	3.618	3.835	3.498	3.713	3.655	3.611	3.205	3.284	2.920	2.932	2.982	2.818	2.675	2.523	2.680	2.606	2.508
480.0	285.1	419.0	570.9	1576	2661	862.6	737.5	780.7	783.1	771.7	764.1	688.5	609.9	538.5	475.7	422.8	384.7	364.0	345.1	331.6	318.6	315.5	304.9	299.5	296.4	288.4	284.3	276.7	273.7	265.5	249.1	222.0	199.5	175.7	151.0	131.7	115.8	105.4	103.2	82.58	61.09	50.16	41.11	35.40	28.96	24.18	20.83	19.98	33.43	62.28	151.8	746.1	1168	185.5	7.333	3.939	3.759	3.579	3.335	3.373	3.510	3.563	3.508	3.543	3.196	3.308	3.090	2.980	2.804	2.792	2.673	2.739	2.568	2.474	2.489	2.471	2.400
485.0	270.5	399.9	487.6	912.6	2842	1379	688.1	721.2	729.7	732.4	698.6	648.3	566.6	500.9	443.9	391.6	359.3	337.1	319.0	307.2	297.4	288.0	280.7	277.6	276.4	267.9	260.5	260.3	254.4	250.5	231.6	210.2	189.0	166.6	145.2	127.4	109.8	98.65	95.76	86.87	65.76	50.62	42.64	35.97	30.20	25.67	21.89	18.46	18.94	23.34	41.80	207.7	957.4	1086	29.54	4.991	4.011	3.621	3.340	3.383	3.349	3.284	3.346	3.273	3.186	2.853	2.838	2.703	2.807	2.442	2.418	2.444	2.407	2.266	2.357	2.283	2.264
490.0	250.1	390.4	453.1	581.9	1763	2457	821.7	661.5	674.8	677.9	641.6	591.7	522.1	459.5	406.2	354.3	325.7	309.6	289.0	276.6	267.6	257.8	251.8	249.5	245.5	243.2	237.9	234.6	232.5	227.6	213.7	196.2	175.4	155.3	136.9	120.6	105.1	93.21	85.93	81.88	73.80	55.43	43.69	37.58	31.59	27.78	23.77	19.66	16.99	15.80	17.97	54.14	260.1	752.1	950.5	359.8	13.06	3.872	3.525	3.049	3.192	3.123	3.015	3.089	2.909	2.654	2.732	2.452	2.464	2.338	2.334	2.183	2.325	2.120	2.139	2.111	2.071
495.0	216.9	355.3	438.7	465.2	816.7	2501	1627	608.5	601.8	613.3	579.4	539.0	475.3	416.3	365.1	321.6	289.3	275.9	257.0	248.1	237.5	227.5	224.0	222.2	218.1	215.2	214.8	208.2	209.3	205.9	193.1	178.4	159.2	142.8	127.1	112.9	99.31	86.54	77.52	71.75	71.21	63.16	46.56	38.58	32.51	29.07	25.23	21.08	18.07	15.30	13.72	20.35	65.13	176.7	499.2	1175	235.5	15.23	3.616	3.087	3.207	2.908	2.808	2.797	2.596	2.497	2.470	2.489	2.373	2.404	2.082	1.926	1.965	2.001	1.999	1.870	2.005
500.0	190.4	318.4	428.0	415.2	531.4	1654	2531	678.7	553.1	554.8	532.9	496.1	438.6	386.8	340.1	293.4	266.7	250.2	235.0	223.2	213.5	205.9	204.8	203.3	198.9	196.5	193.1	190.9	189.9	188.5	175.7	166.1	148.0	132.8	118.2	103.9	93.69	83.58	73.32	65.55	63.29	63.64	51.07	39.17	33.10	29.35	25.10	21.84	18.57	15.79	13.38	12.97	22.24	46.11	127.1	659.4	1132	205.3	8.434	3.151	3.099	2.795	2.468	2.571	2.522	2.507	2.385	2.126	2.331	2.125	1.863	1.909	1.906	2.101	1.790	1.710	1.791
505.0	160.3	268.3	410.1	390.1	432.6	884.4	2854	1096	512.4	516.7	494.8	456.7	401.3	354.4	309.9	269.8	244.5	230.7	215.6	206.4	198.0	188.5	186.0	184.1	179.6	179.1	176.0	173.8	172.8	172.0	162.1	153.2	138.0	123.3	109.0	96.94	87.77	78.35	68.95	62.02	58.06	57.92	54.15	41.47	33.35	28.73	24.94	22.19	18.60	16.65	13.46	11.73	12.85	17.26	34.65	176.1	814.1	1027	32.96	4.650	3.091	2.703	2.532	2.544	2.543	2.301	2.301	1.887	1.995	1.848	1.918	1.755	1.765	1.846	1.664	1.666	1.595
510.0	163.8	217.7	330.8	397.3	365.0	486.7	1815	2276	602.1	456.1	442.5	400.2	354.0	314.7	276.5	236.9	218.5	200.6	188.5	181.0	173.8	165.3	162.1	159.0	157.2	156.0	153.8	153.2	152.1	151.1	144.4	132.9	121.7	110.4	98.45	88.38	79.82	70.81	63.80	56.86	52.06	48.70	49.43	44.14	34.97	28.47	24.93	21.95	18.68	16.08	14.14	12.07	10.90	10.82	14.22	45.07	213.7	626.1	784.6	321.2	12.95	2.842	2.473	2.474	2.289	2.020	1.946	1.768	1.859	1.778	1.799	1.592	1.530	1.589	1.567	1.449	1.436
515.0	141.1	180.3	261.9	371.1	339.6	359.5	753.7	2570	1337	398.8	386.3	351.4	310.2	273.0	237.3	208.5	187.8	174.9	164.4	155.6	147.1	142.8	141.1	137.6	135.0	134.5	132.5	132.8	131.4	131.3	124.2	115.3	106.1	96.36	87.74	78.67	71.11	63.25	57.62	51.52	47.34	41.63	40.67	42.50	37.99	29.10	24.31	20.71	18.51	16.14	14.33	13.10	10.91	10.08	9.829	15.82	53.06	145.6	340.8	914.6	239.1	16.20	2.426	2.254	2.149	1.807	1.815	1.607	1.584	1.743	1.461	1.386	1.400	1.425	1.325	1.274	1.304
520.0	136.5	178.2	231.6	322.4	349.0	304.5	416.8	1720	2329	461.3	342.0	314.0	281.8	247.8	215.1	189.1	171.6	155.4	149.2	139.6	131.9	129.7	125.6	122.7	120.9	120.2	118.3	116.4	116.0	117.5	112.0	104.9	95.81	87.63	78.65	71.10	65.43	57.69	52.70	48.69	43.96	39.95	35.57	37.19	38.01	31.20	23.51	20.89	18.70	15.56	13.68	12.90	10.94	9.636	8.968	9.368	16.89	37.17	84.50	453.2	834.3	207.8	9.458	2.227	2.046	1.823	1.856	1.799	1.608	1.521	1.495	1.301	1.391	1.293	1.228	1.334	1.217
525.0	124.0	153.5	197.9	254.8	340.5	282.1	315.0	841.0	2839	868.1	305.8	286.2	256.0	221.7	195.2	170.9	153.4	142.2	134.9	124.6	119.3	114.6	112.9	110.5	109.7	105.6	105.8	104.7	105.5	105.9	100.9	94.43	87.23	79.43	73.30	64.68	59.24	54.02	48.51	43.79	39.92	37.20	33.32	32.05	34.27	32.27	24.34	20.18	17.63	15.09	13.30	12.43	11.30	9.975	8.395	7.826	9.320	13.26	23.36	115.1	507.3	767.9	159.7	4.487	2.099	1.728	1.711	1.607	1.418	1.344	1.437	1.254	1.377	1.141	1.189	1.118	1.239
530.0	108.1	134.8	167.7	201.6	305.6	277.2	262.9	401.2	1817	2130	399.4	258.5	221.6	195.2	171.1	148.1	136.3	123.0	116.8	109.5	104.7	100.9	97.90	95.67	94.92	92.03	91.62	91.93	90.91	90.88	87.55	81.57	75.71	68.66	63.73	56.46	52.27	47.91	43.32	39.61	35.58	32.82	29.92	27.74	27.89	29.72	26.38	20.44	16.80	14.53	12.73	11.72	10.55	9.925	8.717	7.914	7.647	7.867	9.195	29.59	127.8	401.1	586.4	258.6	13.58	1.868	1.716	1.563	1.397	1.302	1.270	1.182	1.072	1.026	1.141	1.054	1.095
535.0	91.29	121.3	150.7	170.4	236.0	295.7	231.6	255.0	673.4	2538	1118	224.7	193.0	167.3	146.6	128.4	114.7	105.0	100.2	94.95	89.09	85.25	84.91	81.09	81.50	79.71	77.68	79.21	76.60	76.59	73.65	68.72	64.36	59.88	53.41	49.84	45.49	41.50	37.66	34.85	30.84	28.93	26.46	25.11	23.53	23.87	24.46	21.81	15.98	13.60	11.75	10.81	9.664	9.162	8.522	7.550	7.210	6.556	6.175	10.20	31.89	92.74	208.0	586.7	245.7	17.07	1.653	1.561	1.304	1.217	1.171	1.055	0.993	1.072	0.969	1.089	1.090
540.0	86.54	115.2	130.1	148.7	180.6	277.3	229.8	206.2	318.7	1636	2151	256.5	171.0	146.0	129.4	113.7	100.6	93.90	88.09	81.75	78.41	75.35	74.25	71.92	70.84	70.12	68.86	68.27	67.56	66.89	65.19	60.41	56.28	53.16	46.89	44.16	40.34	37.30	33.71	31.14	28.13	25.94	24.61	22.74	21.29	19.94	21.02	21.58	16.69	12.94	10.96	10.22	9.383	8.316	8.098	7.825	7.017	5.543	5.272	5.740	10.19	23.46	50.32	249.5	616.6	208.6	10.09	1.379	1.449	1.175	1.143	1.055	0.947	0.948	0.959	0.982	1.014
545.0	95.18	118.5	123.1	130.8	149.1	226.1	238.6	183.4	213.6	720.5	2688	594.2	153.2	126.0	110.6	100.3	90.76	83.77	77.22	72.48	69.68	67.53	64.52	61.90	62.51	61.37	59.09	60.74	59.75	59.25	57.04	53.41	49.21	47.07	42.52	38.09	35.56	33.00	29.79	27.45	25.58	23.34	22.76	20.24	18.81	18.08	17.55	19.07	17.50	13.12	10.41	9.293	8.754	8.009	7.490	7.542	6.908	5.391	5.141	4.594	5.324	8.054	13.70	61.16	312.2	548.9	155.2	4.581	1.320	1.091	1.027	1.081	0.827	0.764	0.908	0.829	0.886
550.0	90.88	105.8	118.1	117.1	120.2	163.7	234.9	176.0	168.5	297.2	1616	1772	185.5	110.6	95.47	83.94	76.42	69.33	64.13	60.63	57.86	55.39	53.41	52.24	51.22	50.96	49.47	49.64	49.04	48.91	48.11	44.32	40.98	38.44	35.40	32.26	29.72	27.57	25.10	23.48	21.53	19.92	18.84	17.68	16.10	15.07	14.71	15.01	15.31	13.26	10.01	8.452	7.605	7.300	6.638	6.389	6.182	5.605	4.846	4.020	4.135	4.303	5.342	15.79	75.91	240.3	380.7	143.8	13.83	1.375	1.023	1.104	0.822	0.878	0.851	0.757	0.759
555.0	98.03	103.4	95.26	102.5	99.13	115.3	187.1	189.1	138.3	169.4	523.9	2202	736.8	93.73	80.92	69.38	61.21	57.71	52.71	50.14	46.51	43.99	44.03	42.98	41.56	40.43	40.63	39.84	40.06	39.66	39.00	35.84	33.47	31.47	28.77	25.99	24.20	22.64	20.99	19.51	18.48	16.38	15.44	14.11	12.97	13.04	12.05	11.49	11.75	11.84	10.25	7.764	6.502	6.599	5.963	5.641	5.139	4.780	4.822	3.994	3.425	3.231	3.220	5.446	18.71	55.22	118.0	326.5	230.2	18.08	1.358	1.101	0.792	0.828	0.852	0.701	0.727
560.0	94.55	98.53	97.41	89.77	86.07	92.32	137.5	201.9	128.0	133.9	214.7	1379	1582	129.4	67.81	58.97	51.10	48.28	45.48	41.01	39.69	37.36	37.14	35.76	35.00	34.12	33.75	34.09	33.97	32.96	33.43	30.48	27.87	26.09	23.56	22.04	20.65	19.50	18.05	16.65	15.27	14.42	13.16	12.45	11.59	11.20	10.52	9.647	9.343	9.624	9.790	7.826	6.015	5.821	5.388	4.852	4.603	4.419	4.738	4.037	3.168	2.952	2.770	3.051	5.956	14.00	28.15	123.6	352.9	179.7	10.07	1.125	0.831	0.744	0.793	0.702	0.672
565.0	97.55	100.5	92.71	70.75	75.68	79.70	103.5	189.7	131.6	110.9	135.2	546.8	2138	356.1	58.02	49.38	43.65	40.56	38.99	35.59	33.57	31.54	30.82	30.34	29.36	29.26	28.11	28.17	28.81	27.74	27.29	24.96	23.45	22.06	20.06	19.18	17.60	16.62	15.50	13.78	13.12	11.99	11.67	10.37	10.04	9.595	9.207	7.961	7.592	7.702	8.408	7.487	5.684	5.150	4.767	4.401	4.301	4.059	3.956	3.950	3.206	2.796	2.304	2.507	2.928	4.586	7.821	30.03	150.2	324.1	126.3	4.477	0.879	0.765	0.669	0.652	0.623
570.0	98.34	106.5	88.43	64.38	63.65	67.03	77.08	140.1	158.1	102.0	101.1	194.7	1289	1284	93.82	41.07	37.95	32.67	31.78	29.37	27.39	25.95	25.10	24.87	23.90	23.93	23.01	23.13	22.85	22.18	22.25	20.61	19.15	17.77	16.37	15.53	14.47	13.54	12.35	11.47	10.77	9.881	9.552	8.663	8.394	7.893	7.482	6.821	6.282	5.840	6.220	6.584	5.910	4.731	4.029	3.851	3.701	3.630	3.145	3.136	2.996	2.641	2.159	2.217	2.163	2.312	3.085	7.984	36.00	124.7	228.0	129.8	13.23	0.862	0.707	0.647	0.548
575.0	94.58	97.39	83.20	58.61	55.79	56.33	61.72	87.53	163.8	110.8	82.78	101.7	388.1	1656	495.0	36.59	29.34	26.31	24.95	23.39	22.47	21.01	20.65	19.36	19.01	18.62	18.42	17.96	18.38	18.39	17.33	16.74	15.73	14.56	13.05	12.19	11.56	10.84	10.15	8.819	8.815	8.058	7.812	7.138	6.894	6.637	6.193	5.620	5.257	4.706	4.605	4.976	5.563	4.667	3.600	3.343	3.000	2.878	2.523	2.746	2.532	2.643	2.339	1.834	1.824	1.730	1.841	3.008	9.163	28.92	64.42	188.7	171.8	16.05	0.780	0.684	0.581
580.0	83.94	90.94	76.57	54.71	48.05	49.42	55.82	71.36	135.6	124.6	77.91	74.05	134.4	1047	1125	55.07	25.84	22.78	22.02	19.83	18.80	17.99	16.94	16.77	16.10	16.05	15.38	14.85	15.58	15.63	14.63	13.88	12.64	11.93	11.38	10.06	9.614	9.042	8.208	7.667	7.533	7.036	6.622	6.169	5.964	5.537	5.282	5.002	4.538	4.013	3.920	3.847	4.846	4.680	3.560	3.084	2.735	2.613	2.333	2.281	2.193	2.374	2.261	1.963	1.574	1.468	1.506	1.726	3.039	7.408	15.39	65.33	206.9	119.9	8.285	0.812	0.653
585.0	102.0	89.89	73.04	48.67	48.05	50.99	48.50	59.56	100.4	144.1	76.85	64.26	72.45	401.3	1555	126.6	23.64	21.54	18.61	17.25	16.13	15.34	14.26	14.19	14.21	13.84	13.11	13.31	12.82	13.32	12.66	11.91	11.55	10.51	9.782	8.672	8.468	7.948	7.331	6.559	6.547	5.937	5.631	5.451	5.241	4.935	4.703	4.189	3.820	3.487	3.531	3.300	3.526	4.240	3.661	2.979	2.548	2.199	2.143	2.121	1.956	1.790	2.187	2.075	1.492	1.484	1.237	1.272	1.715	2.465	4.418	15.66	82.79	195.6	35.84	3.304	0.612
590.0	87.29	80.35	66.33	48.88	40.85	41.59	41.85	49.22	67.84	128.7	94.04	60.29	55.06	126.0	947.2	766.9	43.15	17.51	15.61	14.63	13.37	12.61	11.99	11.96	11.29	11.83	10.81	10.76	10.70	10.84	10.34	10.13	9.286	8.580	7.888	7.127	6.940	6.603	6.245	5.542	5.325	4.708	4.667	4.527	4.246	3.952	3.836	3.756	3.221	3.087	2.821	2.649	2.797	3.132	3.283	2.970	2.410	1.973	1.870	1.862	1.707	1.636	1.715	1.785	1.541	1.433	1.260	1.251	1.230	1.392	1.677	4.177	19.70	72.17	125.9	81.17	11.08
595.0	76.13	77.25	59.47	43.53	35.55	35.78	38.17	46.27	53.71	90.64	117.7	58.46	46.09	54.74	274.1	1103	247.0	15.16	12.11	12.14	11.04	10.43	10.01	9.866	8.950	9.334	8.680	8.945	8.826	8.790	8.021	7.803	7.360	6.733	6.332	5.801	5.770	5.337	5.044	4.627	4.133	3.999	3.785	3.684	3.392	3.204	3.182	2.920	2.787	2.467	2.355	2.124	2.237	2.158	2.784	2.695	2.385	1.948	1.693	1.588	1.385	1.444	1.285	1.373	1.522	1.376	1.124	1.038	0.937	1.099	0.999	1.712	5.028	16.68	35.23	107.6	103.5
600.0	73.11	68.53	58.45	43.08	34.15	33.44	33.08	39.89	45.82	64.26	118.2	65.03	44.53	37.07	82.48	733.0	660.6	23.33	11.12	10.17	10.28	8.402	8.637	7.945	7.849	7.740	7.170	7.155	7.421	7.366	7.053	6.411	6.252	5.765	5.639	4.871	5.062	4.385	4.143	3.746	3.579	3.451	3.341	3.252	3.122	2.832	2.650	2.444	2.509	2.205	2.001	1.797	1.800	1.634	2.096	2.302	2.350	1.798	1.558	1.350	1.221	1.225	1.228	1.149	1.299	1.466	1.298	0.977	1.008	0.957	0.886	0.978	1.678	4.237	8.549	36.50	120.1
605.0	66.89	66.38	50.68	41.71	32.23	28.82	31.72	36.51	40.89	53.06	98.95	78.92	42.89	31.93	35.04	282.6	956.5	78.13	10.34	8.567	8.938	7.817	7.623	6.774	7.013	6.817	6.346	6.221	6.264	6.434	5.956	5.863	5.280	4.918	4.829	4.195	4.273	3.762	3.754	3.474	3.191	2.976	2.706	3.056	2.655	2.612	2.335	2.172	2.075	1.803	1.718	1.599	1.626	1.564	1.587	1.760	2.188	2.092	1.506	1.141	1.094	1.242	1.005	1.056	1.107	1.361	1.266	1.078	0.905	0.939	0.839	0.875	1.000	1.513	2.347	8.834	47.64
610.0	57.83	58.53	49.87	36.38	29.00	28.67	30.20	34.25	37.89	45.13	71.13	94.48	46.46	30.29	24.53	81.80	642.2	475.4	19.58	7.200	6.972	6.819	5.975	5.951	5.440	5.305	5.156	5.321	5.031	5.315	4.909	4.683	4.346	4.042	3.991	3.751	3.390	3.029	2.988	2.744	2.477	2.515	2.348	2.321	2.244	2.073	1.933	1.794	1.793	1.563	1.507	1.488	1.388	1.243	1.305	1.418	1.775	1.712	1.429	1.120	1.142	1.042	0.920	0.890	0.919	1.047	1.148	1.070	0.822	0.830	0.723	0.703	0.723	0.841	0.984	2.420	11.31
615.0	53.27	57.60	43.41	34.66	27.83	25.57	27.15	31.48	36.13	41.49	52.03	86.50	61.79	30.04	22.37	29.62	189.3	751.0	85.81	6.227	5.956	5.409	5.106	4.882	4.613	4.444	4.107	4.319	3.991	4.472	4.127	3.751	3.540	3.398	2.995	3.076	2.622	2.542	2.418	2.199	2.001	2.089	1.880	1.871	1.752	1.780	1.523	1.642	1.388	1.372	1.147	1.214	1.104	1.077	0.985	1.050	1.307	1.558	1.454	1.209	0.927	1.056	0.819	0.809	0.787	0.838	0.872	0.892	0.903	0.820	0.750	0.661	0.662	0.597	0.651	1.002	2.889
620.0	46.32	50.96	40.63	36.20	25.23	24.04	25.46	28.86	35.14	38.99	46.22	69.39	72.26	30.97	21.03	18.65	53.92	544.4	399.9	9.818	5.122	5.105	4.401	4.029	3.855	3.866	3.723	3.559	3.583	3.833	3.413	3.150	3.028	2.728	2.599	2.678	2.302	2.284	2.114	1.867	1.723	1.735	1.580	1.434	1.560	1.586	1.315	1.390	1.227	1.041	1.080	1.012	0.941	0.947	0.969	0.826	1.011	1.194	1.257	1.186	1.019	0.908	0.777	0.709	0.721	0.872	0.720	0.767	0.925	0.881	0.696	0.577	0.571	0.526	0.628	0.549	0.967
625.0	44.69	55.44	42.40	32.11	23.44	25.71	24.59	29.67	31.49	36.35	42.65	55.86	78.74	35.41	20.84	15.86	20.91	228.2	666.5	44.54	4.693	4.156	3.833	3.529	3.223	3.295	3.188	3.085	3.323	3.295	2.993	2.810	2.755	2.386	2.504	2.146	1.936	1.896	1.915	1.735	1.478	1.535	1.422	1.197	1.466	1.361	1.199	1.199	1.131	0.996	0.933	0.863	0.945	0.893	1.021	0.842	0.833	0.907	1.214	1.116	0.914	0.853	0.697	0.661	0.718	0.754	0.673	0.655	0.757	0.869	0.720	0.533	0.596	0.438	0.572	0.518	0.616
630.0	50.50	50.15	38.71	29.94	22.70	22.86	23.02	26.64	29.34	34.90	38.46	44.10	67.44	47.10	21.06	14.28	12.91	63.48	496.6	305.5	9.191	3.700	3.422	3.044	3.036	2.825	2.663	2.497	2.665	2.686	2.381	2.167	2.122	2.143	1.895	1.759	1.628	1.589	1.457	1.428	1.457	1.215	1.207	1.123	1.199	1.087	1.001	1.108	1.045	0.883	0.801	0.766	0.790	0.825	0.798	0.784	0.748	0.769	0.951	0.958	0.901	0.806	0.657	0.687	0.690	0.691	0.636	0.625	0.684	0.748	0.776	0.594	0.494	0.468	0.508	0.488	0.497
635.0	41.02	47.43	37.55	29.54	23.23	21.55	24.41	26.59	28.16	34.21	36.60	40.02	47.54	56.84	23.55	13.71	12.02	21.24	153.1	555.5	58.99	3.661	3.016	2.641	2.393	2.485	2.038	2.032	2.149	2.071	1.955	1.925	1.652	1.598	1.468	1.538	1.292	1.333	1.284	1.152	1.227	1.073	0.992	0.899	0.975	0.842	0.847	0.891	0.800	0.774	0.691	0.646	0.652	0.637	0.601	0.656	0.683	0.623	0.704	0.840	0.813	0.801	0.621	0.621	0.615	0.614	0.621	0.652	0.524	0.609	0.683	0.727	0.610	0.507	0.518	0.454	0.473
640.0	45.08	44.15	38.83	27.87	23.06	21.65	23.71	26.41	26.36	33.14	35.82	38.73	40.55	56.03	30.11	14.26	11.73	11.48	42.47	442.3	249.5	5.397	2.780	2.467	1.984	2.246	1.860	2.127	2.032	1.737	1.799	1.771	1.463	1.533	1.328	1.185	1.199	1.139	1.056	0.984	1.011	0.938	1.069	0.925	0.770	0.838	0.765	0.759	0.674	0.718	0.653	0.606	0.614	0.624	0.628	0.626	0.608	0.602	0.546	0.578	0.731	0.789	0.674	0.756	0.621	0.542	0.607	0.606	0.545	0.575	0.623	0.728	0.738	0.468	0.502	0.439	0.503
645.0	46.49	46.43	38.54	27.52	22.32	21.65	22.48	26.74	27.46	30.53	35.89	39.50	38.49	49.51	39.87	16.69	11.33	8.887	14.56	200.9	454.7	22.50	2.642	2.434	1.987	1.821	1.824	1.907	1.654	1.511	1.646	1.451	1.451	1.219	1.243	1.017	0.971	0.976	0.992	0.898	0.843	0.902	0.930	0.775	0.778	0.692	0.691	0.716	0.568	0.578	0.589	0.556	0.647	0.535	0.540	0.545	0.567	0.602	0.552	0.519	0.640	0.685	0.777	0.656	0.575	0.591	0.575	0.571	0.512	0.513	0.527	0.613	0.643	0.483	0.501	0.449	0.452
650.0	48.14	47.74	45.47	27.76	24.03	22.97	20.95	25.02	27.15	32.52	34.57	38.03	38.12	40.75	45.76	18.80	11.21	8.833	8.490	61.43	474.8	70.56	2.918	2.043	1.934	1.756	1.458	1.764	1.731	1.474	1.346	1.354	1.300	1.086	1.049	1.033	0.974	0.950	0.866	0.741	0.767	0.896	0.749	0.682	0.626	0.640	0.680	0.617	0.541	0.487	0.499	0.577	0.533	0.521	0.618	0.532	0.475	0.580	0.543	0.582	0.621	0.619	0.761	0.691	0.576	0.619	0.556	0.510	0.456	0.509	0.471	0.562	0.606	0.531	0.509	0.422	0.432
