Sample:	'1
File name:	w112911¿˚√Ò’¢.FD3
Run date:	'10:49:05, 12/02/2024
Operator:	Administrator
Comment:	'

Instrument
Model:	F-2700 FL Spectrophotometer
Serial number:	23B8-004
ROM Version:	4J14000 07

Instrument parameters
Measurement type:	3-D scan
Data mode:	Fluorescence
EX  Start WL:	220.0 nm
EX  End WL:	600.0 nm
EX Sampling interval:	5.0 nm
EM  Start WL:	230.0 nm
EM  End WL:	650.0 nm
EM Sampling interval:	5.0 nm
Scan speed:	12000 nm/min
EX Slit:	5.0 nm
EM Slit:	5.0 nm
PMT Voltage:	700 V
Response:	Auto 
Corrected spectra:	Off
Contour interval:	50.000

Peak integration
Integration method:	Rectangular
Sensitivity:	1
Threshold:	1.000

Peaks
No.	ApexEX/EM(nm)	Height(Data)
1	225.0/585.0	87.41
2	225.0/605.0	81.31
3	230.0/345.0	3132
4	230.0/580.0	98.12
5	230.0/610.0	78.23
6	240.0/265.0	369.1
7	245.0/270.0	373.7
8	250.0/275.0	499.5
9	255.0/285.0	623.5
10	255.0/560.0	190.7
11	260.0/575.0	158.6
12	265.0/585.0	146.7
13	270.0/600.0	153.0
14	275.0/310.0	2429
15	275.0/330.0	2578
16	275.0/415.0	3849
17	275.0/435.0	3663
18	275.0/615.0	160.6
19	280.0/625.0	132.3
20	350.0/415.0	2292
21	350.0/435.0	2245
22	475.0/350.0	7.610
23	505.0/275.0	2.826
24	510.0/280.0	3.059
25	520.0/285.0	3.307
26	550.0/305.0	9.883
27	565.0/335.0	10.93
28	565.0/415.0	13.83
29	570.0/340.0	10.54
30	580.0/320.0	9.994

Data points
	220.0	225.0	230.0	235.0	240.0	245.0	250.0	255.0	260.0	265.0	270.0	275.0	280.0	285.0	290.0	295.0	300.0	305.0	310.0	315.0	320.0	325.0	330.0	335.0	340.0	345.0	350.0	355.0	360.0	365.0	370.0	375.0	380.0	385.0	390.0	395.0	400.0	405.0	410.0	415.0	420.0	425.0	430.0	435.0	440.0	445.0	450.0	455.0	460.0	465.0	470.0	475.0	480.0	485.0	490.0	495.0	500.0	505.0	510.0	515.0	520.0	525.0	530.0	535.0	540.0	545.0	550.0	555.0	560.0	565.0	570.0	575.0	580.0	585.0	590.0	595.0	600.0
230.0	48.13	984.7	1717	367.7	12.44	4.856	3.505	3.214	3.260	2.970	3.358	3.111	2.791	2.386	1.901	1.649	1.259	1.291	1.102	0.954	0.928	0.837	0.791	0.834	0.825	0.784	0.722	0.731	0.667	0.631	0.621	0.538	0.529	0.434	0.348	0.368	0.342	0.269	0.246	0.229	0.233	0.237	0.204	0.224	0.174	0.221	1.012	3.479	4.773	2.690	0.815	0.224	0.130	0.142	0.113	0.127	0.145	0.125	0.125	0.147	0.108	0.116	0.111	0.128	0.117	0.127	0.116	0.124	0.110	0.118	0.099	0.107	0.103	0.090	0.112	0.102	0.114
235.0	54.90	299.6	1522	2109	438.5	17.86	4.332	4.051	3.799	3.267	3.385	3.759	2.873	2.186	1.947	1.635	1.366	1.245	1.130	0.943	1.098	0.914	0.826	0.907	0.816	0.902	0.780	0.847	0.724	0.762	0.772	0.564	0.482	0.465	0.435	0.370	0.352	0.294	0.196	0.217	0.207	0.234	0.234	0.370	0.252	0.252	0.358	1.087	2.488	4.327	6.055	5.216	2.028	0.409	0.172	0.134	0.151	0.145	0.136	0.121	0.126	0.117	0.120	0.154	0.105	0.133	0.108	0.093	0.102	0.123	0.098	0.098	0.092	0.101	0.107	0.096	0.113
240.0	97.71	120.7	550.7	2420	2325	339.3	9.429	5.096	4.592	3.981	3.358	3.262	2.930	2.081	1.945	1.835	1.384	1.306	1.163	0.885	0.943	0.972	0.861	0.833	0.718	0.784	0.743	0.798	0.730	0.778	0.678	0.550	0.502	0.494	0.461	0.378	0.376	0.316	0.256	0.218	0.178	0.240	0.188	0.279	0.369	0.361	0.315	0.416	0.721	1.513	4.380	9.440	9.527	5.460	1.551	0.198	0.167	0.131	0.133	0.134	0.139	0.116	0.116	0.124	0.103	0.135	0.121	0.113	0.108	0.126	0.089	0.092	0.112	0.102	0.138	0.104	0.112
245.0	86.53	145.1	163.9	1019	3323	2243	216.9	7.115	5.318	5.039	3.896	3.417	3.717	2.968	2.436	1.936	1.517	1.254	1.303	0.887	1.057	0.891	0.962	0.846	0.815	0.868	0.748	0.784	0.677	0.871	0.696	0.567	0.504	0.478	0.436	0.329	0.291	0.306	0.236	0.216	0.229	0.212	0.161	0.243	0.274	0.389	0.541	0.364	0.378	0.512	1.173	3.940	9.197	14.10	10.97	4.732	0.888	0.172	0.191	0.140	0.130	0.141	0.101	0.151	0.157	0.145	0.126	0.113	0.114	0.110	0.096	0.115	0.097	0.092	0.110	0.097	0.125
250.0	36.59	131.0	203.9	297.9	1243	3122	3161	813.8	29.46	6.102	4.983	4.434	3.747	2.977	2.661	1.911	1.583	1.338	1.496	1.053	1.091	1.006	1.119	0.913	0.930	0.869	0.746	0.843	0.731	0.677	0.677	0.636	0.500	0.513	0.389	0.379	0.298	0.313	0.236	0.284	0.238	0.232	0.247	0.225	0.241	0.278	0.390	0.484	0.669	0.573	0.525	1.062	2.465	5.244	9.015	13.04	15.06	11.73	5.388	1.153	0.211	0.157	0.122	0.159	0.133	0.115	0.137	0.110	0.116	0.125	0.116	0.123	0.112	0.105	0.113	0.123	0.149
255.0	22.69	46.12	177.8	289.7	343.4	886.0	3491	4909	302.1	24.59	7.133	5.307	4.744	3.542	2.936	2.134	2.053	1.485	1.653	1.205	1.089	1.038	1.111	1.244	0.859	0.966	0.819	0.809	0.815	0.810	0.716	0.673	0.552	0.416	0.427	0.410	0.306	0.331	0.258	0.235	0.191	0.214	0.265	0.236	0.296	0.213	0.230	0.260	0.467	0.725	1.108	0.859	0.872	1.369	2.179	3.408	7.160	16.84	25.20	20.23	7.609	1.213	0.162	0.204	0.156	0.145	0.127	0.137	0.146	0.117	0.112	0.122	0.154	0.111	0.137	0.128	0.138
260.0	23.00	27.25	79.49	293.5	283.0	242.4	1221	5239	4784	239.9	15.33	7.696	6.157	4.247	3.434	2.318	2.046	1.918	1.660	1.389	1.403	1.058	1.074	1.115	0.862	0.974	0.849	0.946	0.787	0.898	0.710	0.673	0.648	0.546	0.532	0.492	0.348	0.261	0.291	0.264	0.244	0.263	0.233	0.221	0.191	0.205	0.214	0.201	0.264	0.381	0.826	1.428	1.322	0.756	0.727	1.036	1.862	5.121	13.22	25.65	29.44	19.07	5.405	0.611	0.172	0.175	0.147	0.154	0.102	0.116	0.129	0.161	0.162	0.104	0.145	0.135	0.131
265.0	24.92	19.74	32.43	154.5	369.1	200.8	313.6	2081	6811	2137	172.3	10.04	7.157	5.486	3.481	2.695	2.112	1.917	1.578	1.305	1.314	1.208	1.153	1.109	0.817	0.995	0.895	0.890	0.744	0.883	0.836	0.564	0.708	0.568	0.440	0.514	0.350	0.280	0.293	0.236	0.258	0.259	0.280	0.222	0.217	0.225	0.241	0.148	0.186	0.230	0.342	0.818	1.513	1.682	0.956	0.576	0.621	1.421	3.332	8.645	20.20	34.04	29.14	15.40	2.728	0.357	0.222	0.147	0.132	0.113	0.139	0.131	0.149	0.118	0.158	0.125	0.138
270.0	39.11	39.25	35.56	61.46	204.8	373.7	256.9	523.1	2481	5665	5130	719.8	30.49	7.197	5.079	3.474	3.037	2.078	1.871	1.635	1.513	1.240	1.231	1.183	0.937	1.045	1.061	0.927	0.931	0.921	0.828	0.689	0.750	0.629	0.562	0.447	0.427	0.343	0.334	0.217	0.258	0.276	0.263	0.277	0.235	0.323	0.255	0.246	0.242	0.192	0.203	0.351	0.658	1.082	1.530	1.701	1.374	0.864	0.996	2.196	5.027	10.75	19.04	28.84	30.51	20.18	11.74	2.917	0.303	0.151	0.166	0.169	0.155	0.169	0.155	0.148	0.158
275.0	98.48	107.1	99.65	73.33	91.84	220.9	499.5	317.7	619.1	1583	5956	8454	921.3	23.22	7.639	5.108	3.681	2.407	2.462	1.837	1.574	1.444	1.325	1.315	1.079	1.136	1.117	1.014	1.148	0.914	0.871	0.748	0.699	0.650	0.587	0.507	0.390	0.403	0.280	0.326	0.303	0.296	0.347	0.248	0.340	0.403	0.367	0.378	0.395	0.328	0.258	0.342	0.416	0.467	0.591	1.027	2.100	2.826	1.571	0.940	1.463	2.798	4.705	7.050	10.95	24.16	45.40	31.10	17.45	2.777	0.270	0.235	0.207	0.202	0.190	0.141	0.169
280.0	158.3	214.7	205.6	138.6	103.3	133.0	393.2	566.1	309.1	487.5	2007	8561	7294	140.4	14.31	6.275	4.391	3.247	2.551	2.044	1.673	1.499	1.345	1.380	1.178	1.145	1.192	0.926	1.126	1.016	0.982	0.823	0.714	0.740	0.602	0.641	0.426	0.413	0.382	0.431	0.344	0.306	0.335	0.364	0.467	0.488	0.641	0.671	0.585	0.494	0.428	0.518	0.458	0.448	0.545	0.538	1.275	2.206	3.059	2.270	1.472	1.300	1.672	2.140	3.228	6.756	18.17	35.77	52.41	28.79	12.48	1.361	0.313	0.189	0.225	0.226	0.195
285.0	257.5	353.6	358.2	233.3	149.9	138.2	244.6	623.5	544.3	333.7	696.4	3196	9758	5407	100.9	10.03	5.348	4.094	2.917	2.506	2.082	1.735	1.549	1.286	1.267	1.181	1.166	1.059	1.036	0.971	0.938	0.874	0.814	0.836	0.814	0.645	0.586	0.590	0.459	0.428	0.369	0.338	0.443	0.469	0.641	0.640	0.783	0.898	1.003	0.752	0.667	0.734	0.614	0.605	0.584	0.581	0.843	1.124	2.065	2.940	3.307	2.069	1.417	1.532	1.825	2.565	5.041	10.41	25.51	44.66	53.47	24.61	6.680	0.540	0.250	0.223	0.213
290.0	414.2	577.0	577.9	378.1	241.5	204.0	237.0	413.1	777.5	785.1	674.3	1194	3467	7078	6128	417.0	21.62	5.793	4.142	3.110	2.332	2.129	1.884	1.572	1.523	1.411	1.298	1.296	1.079	1.031	0.947	0.916	0.765	0.819	0.825	0.739	0.665	0.623	0.582	0.534	0.453	0.473	0.567	0.624	0.888	0.991	1.251	1.571	1.542	1.248	1.088	1.095	0.983	0.865	0.837	0.848	0.998	1.025	1.242	1.799	2.627	3.482	3.843	3.378	2.666	2.718	3.190	4.311	7.651	13.25	23.30	33.31	33.13	35.86	16.52	6.520	0.769
295.0	525.5	796.2	828.3	549.8	369.9	297.0	320.1	418.1	667.5	1199	1241	1050	1355	2027	5430	6409	574.4	18.47	5.928	3.676	2.962	2.591	2.082	2.010	1.720	1.397	1.529	1.308	1.280	1.104	0.971	0.917	0.770	1.036	0.947	0.896	0.836	0.637	0.667	0.657	0.579	0.555	0.702	0.862	1.040	1.311	1.651	2.036	1.982	1.778	1.533	1.495	1.280	1.123	1.036	1.250	1.346	1.382	1.434	1.973	2.151	2.571	3.792	5.492	6.050	5.094	3.967	4.070	4.491	5.368	7.268	9.053	9.977	21.78	41.59	52.33	26.17
300.0	628.7	935.7	962.8	676.9	457.7	378.7	425.5	536.2	747.6	1193	1809	1450	1126	917.6	1751	6566	5337	83.72	12.13	4.822	3.809	2.941	2.598	2.252	1.852	1.713	1.387	1.375	1.415	1.125	1.199	1.154	0.939	1.011	1.094	0.948	0.985	0.734	0.765	0.700	0.644	0.631	0.872	0.969	1.194	1.524	1.717	2.321	2.420	1.994	1.804	1.806	1.635	1.429	1.337	1.467	1.535	1.930	2.263	2.553	2.743	2.910	3.650	4.944	6.463	7.904	6.902	5.585	5.106	4.633	4.602	4.261	4.115	6.424	13.80	32.51	52.96
305.0	680.8	1051	1079	795.2	562.1	496.5	589.1	744.8	1001	1391	2055	2233	1468	953.2	853.1	2368	7406	4206	67.23	8.189	4.857	3.784	2.998	2.214	2.081	1.953	1.613	1.642	1.550	1.335	1.091	1.127	1.038	1.044	1.067	1.022	0.918	0.821	0.767	0.727	0.792	0.708	0.841	1.070	1.128	1.792	1.986	2.574	2.625	2.464	2.059	2.296	1.893	1.933	1.674	1.895	2.199	2.524	2.964	3.469	3.892	4.188	4.764	5.633	6.891	8.516	9.883	9.420	7.852	6.192	5.136	4.399	3.906	3.836	5.097	9.601	20.37
310.0	754.9	1146	1168	881.4	668.7	620.3	731.4	928.2	1208	1605	2066	2429	2154	1287	858.2	950.0	2585	5215	4806	291.1	18.90	5.273	3.750	2.633	2.483	2.062	1.917	1.654	1.587	1.395	1.382	1.172	1.053	1.104	1.187	1.085	1.038	0.961	0.759	0.785	0.782	0.745	0.860	1.024	1.207	1.872	2.150	2.747	2.851	2.608	2.338	2.599	2.251	2.170	2.118	2.391	2.792	3.166	3.481	3.789	4.444	4.914	5.913	6.900	7.381	8.362	8.877	10.10	10.54	9.691	7.982	5.874	4.918	4.275	4.111	4.498	6.822
315.0	882.5	1291	1273	960.6	749.8	723.1	846.6	1053	1332	1720	2134	2349	2315	1853	1071	762.8	1012	1454	3733	5847	452.7	16.82	5.210	3.658	3.165	2.479	2.036	1.858	1.906	1.614	1.375	1.197	1.089	1.098	1.261	1.083	0.999	0.879	0.735	0.686	0.714	0.757	0.950	1.051	1.493	1.912	2.473	3.048	3.200	2.599	2.570	2.904	2.449	2.673	2.552	2.779	3.127	3.634	4.098	4.021	4.701	5.149	6.196	7.211	7.826	8.477	8.608	9.131	9.602	9.714	9.965	9.201	6.976	5.491	4.538	4.016	4.071
320.0	1015	1559	1467	1093	829.9	782.7	924.5	1140	1434	1843	2249	2438	2347	2122	1475	874.3	752.1	601.2	1104	4651	4008	347.2	9.702	4.814	3.663	3.201	2.249	2.122	2.133	1.847	1.463	1.325	1.271	1.168	1.185	1.068	0.962	0.927	0.805	0.758	0.797	0.831	0.968	1.183	1.834	2.481	3.062	3.752	3.812	3.087	2.687	3.280	2.679	2.894	2.795	2.942	3.364	3.863	4.106	4.690	4.969	5.727	6.910	7.451	8.354	9.189	9.346	9.704	9.732	9.883	9.395	9.788	9.994	7.811	6.047	4.805	4.485
325.0	1203	2006	1956	1422	969.4	869.8	993.2	1210	1508	1909	2322	2531	2415	2110	1815	1107	758.8	462.6	401.6	1456	5038	3420	55.23	7.976	4.563	3.563	2.612	2.326	2.200	1.880	1.642	1.413	1.303	1.219	1.127	1.089	0.959	0.972	0.838	0.863	0.904	0.932	1.129	1.407	2.082	3.076	3.771	4.791	4.847	4.122	3.612	3.729	3.190	3.158	3.124	3.265	3.498	3.905	4.533	4.760	5.170	6.124	6.974	7.748	8.581	9.248	9.614	10.21	9.880	10.40	9.728	9.745	9.577	9.395	8.125	6.277	5.131
330.0	1402	2375	2557	1956	1301	1006	1061	1261	1562	1943	2360	2578	2478	2132	1783	1413	937.3	516.9	326.1	486.0	1572	3613	3727	979.0	18.51	5.080	3.709	2.855	2.393	2.174	1.838	1.528	1.396	1.208	1.162	1.099	1.026	1.040	0.904	0.851	0.912	0.960	1.225	1.610	2.332	3.398	4.517	5.822	6.041	5.424	5.082	5.119	4.534	3.772	3.563	3.499	3.849	3.906	4.705	5.200	5.658	6.429	7.178	8.052	8.479	9.342	10.04	10.46	10.63	10.78	10.31	10.05	8.990	8.757	8.396	7.676	7.287
335.0	1506	2615	2971	2443	1704	1221	1141	1300	1587	1973	2359	2577	2524	2198	1788	1428	1224	703.0	415.1	365.5	541.1	982.5	2681	4969	397.5	20.50	4.829	3.492	2.860	2.446	1.927	1.685	1.442	1.311	1.263	1.113	1.036	0.814	0.860	0.877	0.995	1.028	1.434	1.671	2.560	3.646	4.654	6.628	6.935	6.328	6.384	6.995	6.026	4.878	4.344	3.872	4.138	4.316	4.908	5.626	5.822	6.377	6.955	8.203	8.897	9.432	10.41	10.46	10.92	10.93	10.47	9.870	9.553	9.062	8.102	7.836	7.569
340.0	1547	2652	3098	2682	1880	1326	1192	1333	1599	1953	2314	2550	2490	2217	1799	1403	1214	928.6	525.5	391.4	360.2	401.3	837.5	3671	3337	326.4	10.65	4.372	3.461	2.780	2.237	1.726	1.609	1.402	1.304	1.054	1.055	0.853	0.908	0.887	0.982	1.071	1.308	1.695	2.510	3.604	4.986	6.733	7.318	7.084	6.948	7.393	6.639	5.492	4.900	4.046	4.232	4.454	4.976	5.456	5.747	6.441	6.775	7.864	8.836	9.370	9.675	10.07	10.45	10.54	10.54	10.36	9.572	8.747	8.093	7.489	7.247
345.0	1458	2585	3132	2765	1947	1373	1214	1321	1551	1890	2211	2418	2395	2170	1776	1392	1131	997.1	677.6	459.7	368.6	315.5	359.7	1177	3894	2954	49.79	6.505	4.024	2.787	2.510	1.926	1.603	1.485	1.297	1.166	1.095	0.901	0.890	0.869	0.853	1.068	1.333	1.655	2.437	3.592	4.722	6.634	7.059	6.888	7.075	7.414	6.645	6.025	4.961	4.184	4.316	4.630	4.811	5.434	5.395	6.177	7.038	7.725	8.746	8.935	9.347	9.740	10.04	10.23	10.27	9.959	9.419	9.155	8.152	7.357	6.929
350.0	1343	2313	2922	2679	2022	1462	1269	1350	1527	1813	2078	2247	2236	2057	1728	1394	1135	951.3	856.0	660.5	470.2	378.7	320.6	429.3	1218	2863	3030	868.2	17.30	3.919	3.002	2.396	1.798	1.512	1.436	1.159	1.021	1.009	0.870	0.876	0.949	0.949	1.209	1.557	2.367	3.298	4.482	5.869	6.624	6.472	6.839	7.610	6.631	6.066	5.241	4.694	4.645	4.884	5.123	5.294	5.483	5.946	6.817	7.368	8.105	8.426	8.753	9.148	9.118	9.433	9.369	9.349	9.017	8.817	8.044	7.614	7.298
355.0	1222	2093	2679	2529	2017	1530	1327	1369	1515	1740	1945	2102	2079	1940	1688	1410	1177	986.7	879.0	861.0	679.9	495.4	395.6	332.9	424.7	751.7	1976	3912	370.6	18.99	4.483	2.660	2.099	1.749	1.420	1.225	1.077	1.162	0.889	0.871	0.823	0.956	1.225	1.450	2.177	2.890	3.927	5.273	6.165	6.152	6.330	7.182	6.629	6.379	5.235	4.951	4.679	4.934	5.034	5.337	5.641	5.922	6.656	6.779	7.616	7.762	8.230	8.286	8.325	9.013	8.712	9.076	8.586	8.308	7.747	7.302	7.892
360.0	1128	1914	2462	2397	1993	1517	1341	1380	1510	1673	1860	1991	1966	1859	1642	1411	1219	1045	924.7	893.0	855.7	628.2	472.5	364.8	292.9	290.8	575.7	2735	3066	314.0	9.627	3.842	2.551	2.087	1.625	1.403	1.175	1.003	0.863	0.956	0.930	0.981	1.161	1.431	2.153	2.800	3.457	4.780	5.517	5.706	5.780	6.587	6.392	6.112	5.383	5.055	4.955	5.071	5.396	5.500	5.736	5.595	6.223	6.824	7.083	7.578	7.967	7.959	7.844	8.397	8.306	8.613	8.705	8.247	7.753	7.789	7.425
365.0	1020	1728	2312	2313	1954	1557	1380	1388	1498	1649	1797	1891	1870	1786	1606	1410	1251	1102	1005	923.8	921.1	797.0	574.0	431.8	313.5	226.3	227.5	834.7	3183	2776	47.23	6.286	3.362	2.374	1.804	1.444	1.140	0.996	0.978	0.906	0.879	0.961	1.050	1.414	1.936	2.670	3.263	4.571	5.343	5.077	5.485	6.481	5.928	5.703	5.300	4.918	5.047	5.323	5.356	5.451	5.562	5.740	6.344	6.641	7.048	6.935	7.441	7.403	7.252	8.001	7.954	8.609	8.397	7.963	7.742	7.497	7.392
370.0	937.0	1586	2104	2165	1898	1591	1413	1420	1497	1623	1724	1786	1779	1710	1565	1413	1292	1182	1099	1014	955.9	914.9	768.5	549.8	400.8	280.9	206.5	289.0	961.0	2523	2789	801.9	16.05	3.774	2.350	1.847	1.489	1.178	1.039	0.977	0.897	0.864	1.021	1.295	1.818	2.351	3.008	4.031	4.787	4.807	5.085	6.271	5.812	6.026	5.387	5.067	5.358	5.388	5.399	5.639	5.722	5.715	6.209	6.110	6.889	6.936	6.935	7.009	7.549	7.591	7.510	8.018	7.952	7.806	7.435	7.512	7.738
375.0	901.5	1466	1915	2017	1867	1603	1442	1441	1479	1577	1646	1709	1691	1641	1519	1395	1310	1230	1175	1101	1034	956.2	904.8	730.6	515.2	374.4	274.0	226.5	325.0	659.7	1809	3483	323.6	17.51	3.833	2.559	1.840	1.434	1.036	0.977	0.902	0.918	1.100	1.262	1.596	2.183	2.734	3.666	4.228	4.629	4.543	6.023	5.762	5.600	5.434	5.444	5.345	5.511	5.262	5.780	5.856	5.943	6.046	5.953	6.465	6.563	6.449	6.859	6.862	6.936	7.028	7.370	7.533	7.624	7.088	7.601	7.559
380.0	840.1	1350	1786	1908	1807	1606	1455	1443	1469	1542	1612	1636	1641	1585	1486	1390	1321	1261	1215	1149	1091	1004	932.8	859.6	635.0	457.9	347.1	265.3	228.9	257.1	542.9	2470	2634	259.7	10.37	4.148	2.644	1.945	1.221	0.941	0.994	1.019	1.054	1.268	1.445	2.118	2.592	3.381	3.868	4.110	4.432	5.749	5.761	5.631	5.653	5.349	5.368	5.498	5.263	5.748	5.891	5.915	6.047	6.195	6.387	6.369	6.473	6.516	6.899	6.839	7.100	7.075	7.436	7.225	7.041	7.436	7.490
385.0	791.2	1295	1695	1841	1770	1587	1468	1453	1451	1528	1595	1616	1619	1556	1456	1373	1325	1270	1239	1190	1137	1053	959.1	899.6	764.7	559.9	430.7	334.3	262.9	211.4	235.9	774.8	2658	2243	39.42	9.415	5.348	2.911	1.611	1.099	1.049	1.042	1.190	1.333	1.506	2.159	2.496	3.284	3.766	3.968	4.455	5.446	5.643	5.710	5.326	5.468	5.425	5.579	5.419	5.639	5.647	5.971	6.094	5.854	6.261	6.339	6.265	6.161	6.783	7.119	6.928	6.763	7.172	7.571	6.890	7.618	7.161
390.0	757.4	1212	1614	1790	1758	1603	1511	1482	1491	1583	1633	1666	1673	1608	1513	1399	1337	1281	1268	1236	1199	1133	1055	974.6	903.2	779.4	612.3	496.9	392.6	328.7	274.8	331.3	857.1	2035	2113	595.2	20.88	8.589	3.631	1.782	1.370	1.186	1.193	1.317	1.600	1.996	2.433	3.093	3.632	3.808	4.234	5.487	5.361	5.677	5.425	5.466	5.801	5.752	5.823	5.776	5.786	5.981	6.298	6.394	6.564	6.487	6.230	6.438	6.883	7.013	6.970	7.096	7.405	7.391	7.261	7.491	7.551
395.0	723.2	1135	1568	1745	1759	1661	1572	1598	1647	1782	1898	1969	1968	1866	1723	1536	1399	1336	1323	1310	1288	1269	1239	1182	1114	1072	969.1	819.4	710.6	613.2	512.0	395.7	446.2	664.1	1525	2680	270.9	29.04	10.14	3.446	1.956	1.370	1.478	1.415	1.627	1.942	2.522	3.178	3.781	3.828	4.433	5.831	5.635	5.876	5.845	5.807	6.393	6.488	6.512	6.469	6.362	6.964	7.025	7.177	7.273	7.572	7.214	7.501	7.608	7.778	7.980	8.024	8.113	8.138	7.543	8.025	8.175
400.0	708.7	1201	1514	1709	1755	1714	1677	1746	1841	2088	2312	2450	2442	2293	2051	1766	1528	1411	1386	1396	1415	1448	1457	1454	1416	1388	1356	1227	1089	975.1	841.6	672.8	547.4	451.7	662.8	2104	2146	232.7	23.93	7.062	2.706	1.784	1.511	1.626	1.923	2.219	2.445	3.604	4.165	4.210	4.633	6.115	6.330	6.432	6.246	6.573	7.184	7.360	7.158	7.155	7.211	7.718	8.487	8.931	8.701	9.126	9.101	8.979	9.227	9.260	9.318	9.027	9.292	9.388	8.565	8.416	8.656
405.0	681.0	1177	1504	1695	1787	1799	1839	1936	2145	2482	2888	3097	3079	2876	2518	2085	1701	1509	1475	1507	1565	1651	1725	1779	1790	1776	1769	1722	1564	1408	1252	1029	810.3	633.0	569.4	917.8	2317	1887	164.8	13.45	4.477	2.540	1.848	1.951	2.047	2.200	2.840	3.427	4.164	4.306	4.923	6.499	6.917	7.137	7.221	7.164	8.461	8.302	8.395	8.475	8.499	9.454	10.11	10.80	10.63	11.21	11.02	10.98	11.12	11.21	11.53	10.53	10.98	10.98	10.08	9.616	9.695
410.0	685.8	1139	1460	1687	1816	1883	1955	2120	2437	2940	3467	3764	3736	3465	2987	2397	1868	1598	1546	1594	1699	1829	1963	2095	2158	2183	2187	2178	2071	1883	1685	1426	1120	877.7	718.7	671.5	962.6	1812	1655	432.1	13.53	3.544	2.387	2.170	2.233	2.487	2.899	3.778	4.332	4.552	5.217	6.869	7.203	7.869	8.139	8.255	9.190	9.147	9.603	9.839	10.14	10.71	11.57	12.35	12.87	12.87	13.25	13.15	13.21	13.20	13.27	12.59	12.86	12.61	11.49	10.78	10.64
415.0	673.7	1062	1398	1659	1798	1888	1978	2167	2486	3016	3570	3849	3835	3550	3054	2425	1861	1575	1507	1566	1682	1830	1996	2142	2230	2274	2292	2265	2198	2057	1823	1544	1227	956.9	774.5	633.2	545.0	598.7	1158	1904	229.8	10.60	3.071	2.645	2.441	2.576	2.810	3.753	4.365	4.365	5.204	6.915	7.467	7.919	8.102	8.824	9.271	9.727	9.558	10.10	10.61	11.06	11.62	12.03	13.11	12.94	13.75	12.99	13.43	13.83	13.73	13.17	13.11	12.03	11.88	10.97	10.17
420.0	626.3	1020	1385	1573	1749	1879	1950	2105	2424	2880	3407	3689	3664	3377	2902	2302	1770	1495	1439	1496	1597	1746	1910	2056	2150	2202	2223	2195	2115	2020	1808	1512	1199	937.2	758.4	598.0	437.1	299.2	374.4	1434	1620	177.0	5.469	2.842	2.528	2.481	2.774	3.767	4.235	4.313	5.069	6.627	7.177	8.085	8.022	8.164	9.457	9.207	9.834	9.967	10.04	10.67	11.27	11.73	12.28	12.11	13.04	12.68	12.77	13.18	12.96	12.60	11.93	11.37	10.96	10.61	9.832
425.0	615.2	985.3	1325	1547	1736	1826	1939	2095	2356	2790	3261	3541	3512	3251	2790	2201	1691	1433	1373	1433	1529	1676	1847	1982	2084	2138	2169	2138	2059	1966	1801	1501	1180	928.0	748.7	590.8	407.1	233.3	158.3	452.4	1582	1307	31.10	3.627	2.926	2.702	2.772	3.699	4.358	4.291	4.862	6.222	6.945	7.638	8.085	8.324	9.097	9.236	9.557	10.05	10.03	10.75	11.24	11.76	12.15	12.02	12.91	12.17	12.69	12.53	12.22	12.17	11.73	11.42	10.72	10.32	9.591
430.0	612.8	954.6	1322	1530	1723	1868	2006	2172	2422	2850	3325	3585	3529	3261	2794	2202	1677	1412	1339	1391	1492	1642	1823	1982	2101	2167	2208	2187	2109	2016	1858	1598	1265	990.8	805.4	633.3	438.2	243.2	124.2	141.9	476.3	1197	1280	132.7	9.908	3.216	3.083	3.761	4.238	4.289	4.918	6.191	7.083	7.599	8.263	8.691	9.367	9.700	9.963	9.795	10.19	10.83	11.16	11.94	12.28	12.20	12.85	12.79	12.41	12.50	12.47	12.05	11.95	11.18	10.53	9.956	9.375
435.0	774.6	953.8	1277	1505	1733	1928	2088	2272	2461	2891	3373	3663	3582	3302	2819	2210	1674	1382	1320	1361	1453	1614	1804	1980	2109	2194	2245	2233	2166	2072	1907	1671	1360	1064	864.3	690.3	485.5	273.6	133.0	83.17	134.2	298.9	917.2	1578	211.9	10.42	3.692	4.027	4.413	4.327	5.061	6.500	6.958	7.905	8.160	8.850	9.723	10.13	10.54	10.54	10.62	10.92	11.58	11.77	12.08	12.42	12.39	12.39	12.70	12.65	12.49	12.03	11.64	11.23	10.63	9.780	10.16
440.0	959.6	975.2	1233	1488	1708	1960	2133	2271	2452	2822	3250	3534	3467	3197	2735	2141	1630	1335	1275	1310	1393	1544	1728	1897	2028	2126	2176	2172	2109	2017	1861	1637	1354	1077	864.5	697.5	495.5	286.4	143.3	77.26	63.90	88.78	262.9	1264	1470	167.2	5.735	4.458	4.184	4.506	4.790	6.472	6.983	7.686	8.109	8.798	9.484	10.45	10.20	10.15	10.72	10.51	11.26	11.77	11.60	12.14	12.11	12.11	12.19	12.02	12.23	11.53	11.46	10.90	10.48	9.712	9.449
445.0	1064	1040	1213	1419	1720	1939	2129	2223	2352	2657	3027	3249	3203	2940	2520	1991	1528	1262	1201	1227	1296	1427	1586	1753	1875	1963	2012	2009	1956	1877	1734	1515	1253	1035	831.7	663.3	475.9	283.4	147.1	80.85	52.78	45.74	76.69	397.1	1490	1224	26.67	5.635	4.425	4.238	4.786	6.220	7.185	7.289	7.953	8.471	9.704	10.17	9.711	9.970	10.15	10.05	10.87	11.20	11.10	11.11	11.28	11.33	11.60	11.43	11.45	11.09	10.62	10.62	9.921	9.127	8.566
450.0	911.3	1459	1222	1383	1641	1863	2052	2122	2171	2358	2637	2808	2757	2528	2184	1752	1360	1143	1088	1095	1150	1245	1381	1517	1622	1697	1741	1743	1708	1639	1513	1325	1097	909.8	759.0	601.0	430.9	265.3	147.8	86.89	56.62	41.18	38.76	104.4	445.0	1155	1235	372.0	9.901	4.331	4.617	5.781	6.438	7.036	7.460	7.995	9.144	9.465	9.522	9.606	9.193	9.411	9.524	9.621	9.819	9.849	9.945	10.09	9.950	10.13	9.852	9.608	9.282	9.127	8.783	8.114	7.821
455.0	608.0	1663	1469	1301	1570	1784	1954	2009	1984	2104	2278	2414	2356	2174	1888	1526	1208	1025	973.5	966.9	1004	1075	1183	1301	1390	1459	1502	1499	1482	1420	1316	1154	959.0	788.1	673.1	554.0	394.7	248.7	148.8	91.17	63.38	45.76	34.75	42.21	113.2	284.4	845.8	1667	180.0	9.476	4.787	5.487	5.812	6.673	7.048	7.573	8.556	8.708	8.790	8.743	8.535	8.733	8.310	8.587	9.002	8.741	8.682	8.508	8.628	8.703	9.018	8.662	8.461	7.815	7.833	7.206	6.754
460.0	481.1	1407	2042	1284	1475	1704	1873	1894	1866	1911	2083	2178	2132	1965	1706	1398	1107	941.6	892.8	883.2	914.3	970.7	1064	1171	1258	1314	1355	1362	1339	1294	1201	1056	881.2	729.2	615.9	522.3	384.2	239.1	148.2	96.33	67.35	49.42	36.50	30.88	41.35	75.63	233.9	1221	1351	132.6	6.631	5.620	5.917	6.253	6.839	7.241	8.064	8.437	8.312	8.207	8.275	8.008	7.742	7.957	8.093	8.043	7.929	7.839	7.814	7.553	7.990	7.907	7.351	7.130	6.968	6.605	6.437
465.0	435.6	1004	2343	1577	1371	1596	1750	1800	1745	1778	1924	2006	1954	1801	1563	1280	1018	863.4	825.7	814.5	828.2	881.5	968.4	1067	1143	1195	1226	1242	1224	1190	1103	974.1	816.0	677.0	569.2	483.3	374.7	238.9	149.6	98.46	70.40	51.53	39.39	31.00	28.03	30.93	63.43	365.0	1352	976.0	22.54	6.134	5.822	6.082	6.191	6.716	7.540	7.749	7.849	7.691	7.527	7.363	6.992	7.456	7.491	7.019	7.266	7.508	7.135	7.304	7.006	6.859	6.773	6.663	6.410	5.985	5.880
470.0	408.9	673.2	1771	2340	1380	1471	1615	1621	1557	1568	1689	1751	1705	1565	1362	1112	895.0	765.4	728.6	716.5	720.8	761.3	836.4	914.2	984.3	1026	1058	1075	1059	1030	962.1	850.4	719.1	597.1	505.4	423.1	336.5	234.0	149.7	99.47	73.50	54.36	42.80	33.48	27.19	23.59	27.20	92.58	394.7	860.5	908.8	284.7	11.24	6.150	5.974	6.127	6.740	7.111	6.833	7.008	6.860	6.581	6.365	6.559	6.490	6.319	6.305	6.477	6.431	6.372	6.115	6.163	5.852	5.789	5.597	5.377	5.110
475.0	369.6	556.7	1004	2535	1896	1311	1427	1451	1365	1332	1422	1467	1424	1302	1139	941.9	766.9	663.8	627.6	605.0	606.6	636.3	695.6	758.1	808.7	846.1	871.8	886.2	882.3	854.5	801.6	713.4	605.7	507.4	427.7	363.2	285.8	206.8	150.1	100.9	74.25	56.58	45.60	36.36	28.94	24.10	21.31	32.70	97.40	205.8	531.6	1055	183.0	12.36	5.624	5.734	6.113	6.488	6.186	6.055	5.991	5.689	5.450	5.426	5.574	5.284	5.064	5.365	5.143	5.294	5.220	5.114	4.881	5.018	4.722	4.541	4.291
480.0	362.7	515.8	729.3	1953	2572	1265	1295	1294	1214	1170	1230	1279	1220	1131	990.3	822.1	680.6	587.3	551.1	535.9	531.5	552.4	603.1	651.0	699.3	729.1	750.5	760.7	756.8	735.8	689.4	615.9	528.7	444.2	377.7	322.3	251.9	183.2	141.9	104.5	74.63	57.54	47.13	37.47	31.32	25.68	21.23	20.66	31.99	54.16	140.6	672.6	983.8	162.9	8.375	5.817	5.803	5.823	5.705	5.550	5.339	5.462	4.908	4.941	4.776	4.987	4.726	4.692	4.625	4.825	4.735	4.595	4.466	4.056	4.153	4.096	3.902
485.0	328.6	477.1	626.4	1235	2878	1561	1198	1180	1112	1057	1094	1124	1080	997.6	867.1	728.6	610.5	530.9	500.4	479.3	477.0	487.7	528.6	572.3	611.8	634.9	655.3	662.4	660.4	643.4	607.5	541.4	469.4	395.4	338.4	289.8	228.7	167.5	130.8	106.2	78.74	58.74	47.91	39.48	32.30	26.97	22.15	19.04	18.49	21.03	39.20	193.5	854.4	892.6	27.89	6.468	5.519	5.432	5.263	5.091	4.859	4.715	4.394	4.495	4.575	4.481	4.519	4.031	4.329	4.320	4.223	4.049	4.148	3.682	3.741	3.491	3.541
490.0	271.6	460.8	584.2	822.1	2052	2454	1178	1044	976.9	934.7	952.4	965.5	936.1	860.6	743.5	626.8	532.1	463.3	440.3	420.7	410.7	422.8	455.8	489.4	523.9	539.9	552.6	563.8	561.1	549.8	520.6	468.8	405.1	344.9	296.9	254.5	203.0	152.5	117.2	99.39	83.46	62.84	49.30	40.49	34.07	28.18	24.24	20.02	16.88	15.13	17.38	50.76	236.9	644.9	843.5	322.7	13.66	5.247	4.908	4.688	4.384	4.132	4.117	4.053	3.889	3.760	3.805	3.647	3.736	3.719	3.548	3.596	3.361	3.450	3.369	2.995	3.109
495.0	225.1	418.3	546.7	654.8	1088	2636	1682	925.4	845.6	809.8	821.2	827.1	797.4	734.8	637.5	539.4	458.3	403.0	377.2	362.2	349.8	359.6	386.4	411.1	441.9	458.7	468.0	474.6	475.5	465.4	440.6	401.8	348.8	299.5	257.3	221.8	179.7	137.8	106.6	88.02	79.71	66.21	51.42	41.39	35.26	30.47	25.23	21.65	18.13	14.98	13.46	19.63	59.82	152.9	457.6	1070	220.6	16.02	4.674	4.323	3.962	3.514	3.677	3.599	3.280	3.432	3.138	3.013	3.125	3.171	3.039	2.836	2.918	2.952	2.966	2.745	2.764
500.0	198.3	364.6	528.6	575.3	744.3	1919	2457	901.8	760.4	718.1	733.4	736.3	699.0	646.6	565.9	477.0	405.8	361.0	336.7	320.6	310.0	317.7	337.8	363.0	383.1	402.1	408.3	415.2	414.9	408.3	389.8	353.3	307.0	264.9	233.5	198.4	163.1	126.3	99.93	80.60	72.58	66.10	55.45	42.82	35.42	30.93	26.04	22.07	18.80	15.99	12.92	13.41	20.88	40.67	117.0	602.9	1002	193.4	10.20	4.031	3.792	3.290	3.199	3.274	3.059	2.961	2.899	2.901	2.868	2.751	2.667	2.597	2.592	2.686	2.691	2.424	2.559
505.0	166.7	299.1	492.3	523.6	612.1	1161	2777	1169	687.9	641.8	659.4	656.9	619.5	568.1	497.3	423.7	359.3	319.3	304.0	286.7	275.2	281.3	296.4	316.5	339.2	350.0	356.9	360.3	363.7	360.1	342.3	311.6	275.1	236.8	206.4	179.2	147.9	116.6	91.77	75.75	65.30	60.86	56.66	43.78	36.20	30.43	26.00	22.36	19.37	16.98	13.60	12.69	12.67	15.95	32.15	161.5	717.2	909.4	151.8	5.744	3.811	3.029	3.076	2.937	2.761	2.816	2.519	2.688	2.300	2.476	2.521	2.351	2.411	2.304	2.379	2.251	2.390
510.0	139.8	250.9	408.4	500.5	513.9	698.0	1913	2100	687.1	555.4	550.4	555.3	516.3	476.8	416.8	356.8	302.7	269.5	257.3	241.7	231.8	234.1	249.0	264.6	279.6	289.6	296.1	300.9	300.7	297.7	284.8	260.2	229.2	199.8	176.5	152.5	127.8	102.7	82.18	69.38	58.69	52.75	51.48	45.41	36.94	30.19	25.72	22.61	18.85	16.76	14.26	12.55	11.06	10.73	13.48	41.89	188.6	543.5	749.0	297.2	13.63	2.954	2.566	2.610	2.391	2.314	2.318	2.183	2.202	2.096	2.163	2.003	2.071	2.124	1.994	1.998	1.818
515.0	135.7	211.7	313.5	441.3	464.1	505.9	896.3	2429	1192	466.8	456.2	457.7	428.1	390.0	343.3	292.4	253.1	228.7	211.8	201.1	190.2	193.4	205.7	216.2	227.5	234.7	238.2	242.6	241.8	237.7	230.2	211.0	186.8	164.1	147.4	127.3	108.1	88.45	72.13	61.43	52.93	46.46	43.45	42.00	39.73	30.56	25.49	21.70	18.77	16.23	14.64	12.56	10.75	9.612	9.364	14.97	47.24	126.5	307.8	789.1	229.6	17.56	2.747	2.322	2.014	1.825	2.054	1.843	1.845	1.799	1.881	1.724	1.743	1.569	1.580	1.746	1.627
520.0	122.3	189.7	270.5	393.5	422.0	438.5	540.7	1720	1997	472.6	401.8	394.5	368.7	335.6	295.0	253.9	220.3	195.2	184.3	173.4	166.0	167.2	174.9	186.5	194.3	196.6	201.4	204.3	205.6	201.2	194.8	179.5	159.9	140.0	125.3	110.8	94.77	78.40	64.18	55.49	48.27	42.20	38.83	37.00	38.18	32.01	25.47	21.13	17.89	16.10	13.62	12.46	10.70	9.510	8.582	9.063	15.39	32.50	75.51	379.3	768.7	206.4	11.34	2.157	1.989	1.685	1.779	1.631	1.636	1.510	1.652	1.589	1.509	1.404	1.407	1.475	1.405
525.0	113.8	171.8	243.5	322.1	403.4	393.7	423.2	921.2	2481	765.0	358.5	342.2	320.3	292.1	257.8	224.8	193.9	172.7	160.9	152.1	144.1	146.1	152.3	160.2	169.1	171.9	174.8	176.3	177.9	175.2	169.9	156.8	139.4	123.6	109.9	97.04	83.85	70.23	58.50	50.94	44.91	39.12	35.70	33.08	34.10	32.45	25.67	20.52	17.50	15.82	13.37	11.98	10.46	9.211	7.949	7.615	8.394	11.53	20.72	95.92	456.7	719.3	164.2	5.074	2.015	1.592	1.555	1.490	1.532	1.508	1.405	1.409	1.434	1.272	1.307	1.221	1.353
530.0	93.77	147.6	202.8	258.1	356.1	356.7	349.3	467.5	1701	1790	394.8	292.6	270.9	241.0	215.7	184.7	162.6	145.8	137.8	129.0	123.1	121.8	126.9	132.7	139.8	141.8	143.9	145.4	145.5	145.1	140.5	129.6	116.2	103.5	92.98	81.93	71.68	61.00	51.10	44.59	40.39	35.10	31.61	29.17	28.31	28.73	26.50	20.67	16.62	14.59	12.84	11.15	10.00	9.352	7.896	7.067	6.827	6.751	7.914	24.53	114.2	366.4	556.5	253.2	13.52	1.787	1.445	1.442	1.299	1.221	1.301	1.250	1.167	1.168	1.194	1.109	1.132
535.0	81.09	131.4	165.2	203.1	278.3	330.0	289.8	305.5	674.5	2250	916.9	245.5	222.8	201.7	178.2	152.9	134.0	121.6	113.6	107.5	101.6	101.5	105.2	107.7	112.3	115.6	116.8	118.2	117.5	116.8	115.1	105.5	96.77	85.24	76.97	67.86	60.25	50.94	44.29	39.12	34.59	30.79	28.02	25.45	23.64	23.02	23.94	20.93	16.34	13.73	11.89	10.13	9.230	8.557	7.937	6.853	6.047	5.335	5.295	8.092	28.04	84.13	198.9	573.5	232.2	17.55	1.456	1.477	1.213	1.173	1.128	1.084	1.040	1.085	1.019	0.901	1.007
540.0	70.04	111.2	151.9	173.5	221.8	308.1	268.8	247.7	330.3	1541	1784	245.1	194.8	171.1	152.9	134.7	116.5	104.4	97.72	92.67	88.54	87.71	90.40	92.02	94.52	98.33	99.00	100.9	98.10	99.60	97.94	88.61	82.58	72.37	66.09	58.17	51.69	44.63	39.06	34.77	30.60	27.53	25.08	22.92	21.35	19.81	20.14	20.16	16.68	12.99	10.76	9.672	8.742	7.439	7.469	6.714	5.582	4.995	4.311	4.454	8.635	21.07	47.43	248.0	569.0	202.1	10.64	1.429	1.213	0.964	1.143	1.020	0.982	0.824	0.919	0.778	0.969
545.0	59.07	95.03	129.9	146.2	180.7	268.5	257.9	209.3	224.1	719.1	2310	460.4	169.2	151.3	133.0	116.3	99.50	87.96	84.44	79.01	76.88	74.34	77.28	78.26	82.82	83.11	84.22	83.79	85.25	85.65	82.72	76.45	70.24	62.50	55.93	50.79	45.13	39.16	33.63	30.94	27.16	24.37	22.49	20.56	19.60	17.04	16.96	17.92	16.52	12.68	9.887	9.024	7.836	7.162	6.526	6.408	5.781	4.714	4.140	3.476	4.198	6.668	12.53	60.41	293.7	533.0	151.0	4.918	1.168	0.853	0.979	0.803	0.813	0.765	0.824	0.735	0.726
550.0	57.12	82.38	110.5	123.3	142.6	191.0	246.7	182.3	178.4	290.4	1494	1341	174.5	122.2	106.3	93.39	82.46	73.59	68.31	64.08	61.30	60.99	62.16	64.35	65.88	66.81	67.57	67.14	69.30	68.06	66.43	62.54	56.42	50.09	45.25	42.01	37.08	32.27	28.36	25.18	22.54	20.43	19.17	17.83	16.75	15.25	13.88	13.78	14.27	12.53	9.488	7.987	6.915	6.442	5.735	5.573	5.087	4.595	3.597	3.084	2.977	3.234	4.524	14.93	71.02	238.2	383.4	138.3	13.46	1.032	0.825	0.703	0.571	0.658	0.651	0.574	0.605
555.0	48.36	81.46	95.76	112.4	119.7	135.2	207.6	180.5	145.8	165.1	514.3	1821	534.1	97.23	83.77	72.20	65.30	58.25	54.50	50.29	49.30	47.59	49.04	50.34	52.15	52.13	52.97	52.08	54.06	52.66	51.81	48.47	43.02	40.10	36.14	33.31	29.11	26.20	23.36	21.04	18.87	17.02	15.81	14.92	14.03	12.65	11.86	10.65	10.58	10.98	9.646	7.346	5.873	5.579	4.795	4.475	4.251	4.078	3.642	2.910	2.451	2.335	2.556	4.614	17.07	54.20	124.6	347.5	221.9	17.32	0.912	0.694	0.585	0.501	0.602	0.491	0.467
560.0	54.19	83.75	95.32	102.3	99.87	108.1	151.9	190.7	128.9	128.9	207.3	1270	1199	106.4	70.98	60.60	53.08	47.95	45.29	41.90	40.73	39.53	40.28	41.24	41.83	42.68	43.34	43.01	44.66	44.11	43.46	39.21	35.40	32.49	29.86	27.34	24.40	22.17	19.24	17.55	16.03	14.90	13.63	12.68	12.05	10.76	10.08	9.122	8.568	9.221	9.020	7.377	5.614	4.962	4.306	4.002	3.487	3.642	3.353	2.897	2.294	2.009	2.081	2.295	4.906	13.03	29.20	139.5	371.9	174.2	9.002	0.672	0.539	0.504	0.563	0.494	0.399
565.0	58.99	72.62	92.67	88.67	89.89	95.47	117.4	182.5	126.4	110.4	128.1	552.0	1702	164.2	60.79	49.29	45.78	41.07	37.72	35.70	34.34	33.53	33.88	34.36	36.04	35.76	35.62	36.47	37.39	36.50	35.97	32.57	29.94	27.40	25.36	22.66	21.01	18.51	16.52	15.14	13.96	12.58	11.91	10.67	9.822	9.276	8.625	7.923	7.181	7.216	7.845	7.256	5.096	4.572	4.039	3.656	3.351	2.973	2.766	3.050	2.263	1.917	1.644	1.793	2.241	4.055	7.533	33.44	175.4	343.5	107.7	3.267	0.583	0.517	0.432	0.466	0.450
570.0	57.97	74.67	91.45	81.06	79.46	82.24	89.44	142.8	147.3	99.85	103.7	206.4	1157	898.8	76.63	41.05	36.46	33.39	30.04	29.23	27.30	26.17	26.67	27.58	28.42	27.66	28.29	28.98	28.79	29.39	27.59	25.96	23.39	21.80	19.91	18.19	16.42	15.00	13.40	12.20	11.22	10.14	9.572	8.861	8.138	7.823	7.105	6.701	5.939	5.625	5.770	6.170	5.114	4.110	3.539	3.153	2.772	2.724	2.259	2.442	2.349	1.919	1.521	1.418	1.450	1.933	2.672	8.375	42.16	144.8	229.7	123.2	11.67	0.661	0.425	0.478	0.386
575.0	59.78	86.45	87.04	79.25	69.33	68.83	70.92	97.53	158.6	107.0	99.20	118.3	385.5	1352	304.5	33.01	29.37	25.09	24.65	22.39	22.22	20.80	20.88	21.61	21.60	21.89	21.73	21.93	22.31	22.11	21.20	19.55	18.31	16.41	14.93	14.53	12.76	11.66	10.70	9.375	8.767	8.149	7.735	7.104	6.767	6.356	5.812	5.437	4.877	4.373	4.396	4.415	4.544	3.923	3.024	2.657	2.303	2.283	1.867	2.002	1.874	1.846	1.557	1.364	1.279	1.398	1.498	2.697	10.20	33.03	71.56	215.8	161.3	13.38	0.535	0.458	0.420
580.0	57.81	86.01	98.12	77.99	65.35	62.19	67.66	72.54	140.5	127.2	99.77	97.77	150.2	950.5	781.0	39.36	24.66	21.70	19.89	18.64	18.66	16.84	16.90	17.68	17.87	18.32	18.38	18.11	18.04	17.99	17.18	16.17	15.02	13.35	12.61	12.16	11.11	9.546	8.990	7.759	7.302	7.043	6.305	5.971	5.702	5.628	4.757	4.647	4.113	3.843	3.484	3.569	3.935	3.679	3.099	2.300	2.003	1.948	1.786	1.696	1.596	1.548	1.802	1.283	1.254	1.314	1.264	1.511	3.254	8.177	16.86	83.24	232.2	113.8	6.474	0.468	0.354
585.0	58.65	87.41	87.21	78.65	58.72	55.28	58.50	67.78	112.2	146.7	104.7	95.51	94.81	399.9	1139	94.99	20.72	18.82	17.13	16.18	15.50	14.89	14.80	14.97	14.59	15.15	15.44	15.31	15.13	15.45	14.72	13.25	12.69	11.05	11.03	10.36	9.084	8.543	7.380	6.942	6.147	5.776	5.181	5.271	5.198	4.866	4.364	3.822	3.753	3.142	3.083	2.820	3.070	3.331	2.891	2.247	1.869	1.754	1.616	1.571	1.421	1.438	1.654	1.483	1.226	1.153	1.179	1.186	1.465	2.627	4.326	20.09	106.0	216.7	33.57	2.331	0.331
590.0	56.96	77.30	87.95	70.41	57.78	53.52	51.51	61.14	82.99	144.7	119.4	97.19	80.94	135.0	764.2	527.4	27.99	15.89	14.15	13.39	12.35	12.11	12.02	11.75	11.35	11.97	12.01	12.38	11.99	12.43	11.49	11.04	9.934	9.461	8.889	7.801	7.341	6.541	6.038	5.221	4.865	4.772	4.537	4.230	4.200	3.973	3.667	3.367	3.069	2.647	2.545	2.406	2.252	2.485	2.688	2.466	1.761	1.542	1.415	1.285	1.274	1.226	1.286	1.304	1.258	1.107	1.050	1.028	1.021	1.269	1.500	4.995	25.22	90.15	148.0	86.28	9.393
595.0	54.02	76.27	81.56	60.40	49.98	49.49	50.01	57.80	67.72	119.3	140.8	98.97	78.95	67.94	237.0	822.3	93.30	12.88	11.19	10.25	9.931	9.627	9.313	9.485	9.783	9.269	9.440	9.098	9.896	9.745	8.662	8.739	8.127	7.545	6.630	6.293	5.741	4.984	4.672	4.200	4.138	3.810	3.544	3.301	3.513	3.070	2.865	2.628	2.530	2.202	1.876	2.014	1.827	1.805	2.031	2.399	1.829	1.426	1.124	1.099	1.136	0.996	1.085	1.155	1.313	1.174	1.014	1.082	1.035	0.835	0.758	1.598	6.010	20.49	45.03	141.1	106.5
600.0	52.98	81.10	81.30	62.13	49.15	43.33	49.59	54.92	65.43	102.3	153.0	109.1	80.58	52.82	77.87	589.4	421.5	16.44	9.410	9.009	7.986	7.852	7.291	7.877	8.164	8.233	7.911	7.472	8.127	7.856	7.297	7.166	6.691	6.058	5.590	5.151	4.765	4.305	4.014	3.733	3.420	3.088	3.006	2.798	2.815	2.630	2.461	2.145	2.186	1.916	1.593	1.681	1.551	1.439	1.562	1.929	1.876	1.336	1.055	1.059	0.979	0.907	0.897	0.851	1.000	1.217	0.936	0.850	0.878	0.669	0.664	0.805	1.655	4.916	10.49	54.39	150.9
605.0	44.26	81.31	74.43	60.76	43.04	42.36	46.81	56.47	68.88	92.56	151.3	127.1	84.61	52.94	42.87	250.0	678.1	53.04	8.821	7.698	7.235	7.002	6.442	7.020	6.817	6.887	6.435	6.573	6.801	6.479	6.470	5.700	5.722	5.118	4.607	4.365	4.094	3.760	3.241	2.972	2.952	2.737	2.619	2.210	2.323	2.283	2.173	1.815	1.841	1.632	1.446	1.424	1.394	1.246	1.346	1.593	1.723	1.460	0.891	1.002	0.937	0.882	0.774	0.828	0.903	1.173	1.103	0.811	0.833	0.732	0.692	0.722	0.760	1.449	2.676	13.00	68.75
610.0	50.90	73.99	78.23	61.36	47.34	43.41	50.64	62.31	77.38	96.44	142.3	156.4	99.62	65.79	45.68	85.50	510.5	319.3	12.90	6.576	6.200	5.627	5.335	5.396	5.557	5.492	5.255	5.363	5.169	5.341	5.223	4.593	4.436	3.949	3.700	3.392	3.196	3.023	2.765	2.550	2.286	2.177	2.093	1.975	1.874	1.772	1.793	1.658	1.402	1.394	1.299	1.206	1.133	1.128	1.060	1.139	1.364	1.365	1.008	0.899	0.809	0.826	0.832	0.850	0.865	0.870	1.002	1.044	0.867	0.797	0.685	0.608	0.575	0.704	0.918	3.164	16.38
615.0	48.22	67.81	74.57	58.61	43.35	43.57	49.51	60.12	80.19	98.11	127.6	160.6	118.3	71.49	49.61	44.79	174.5	542.5	63.39	5.820	4.981	4.613	4.735	4.339	4.222	4.052	4.384	4.094	4.149	4.196	4.013	3.784	3.694	3.149	2.958	2.778	2.674	2.334	2.030	1.843	1.768	1.871	1.677	1.506	1.444	1.422	1.513	1.294	1.225	1.077	1.142	1.047	0.876	0.908	0.917	0.755	0.934	1.119	1.216	0.921	0.781	0.782	0.782	0.848	0.777	0.865	0.785	1.020	0.912	0.813	0.627	0.534	0.502	0.512	0.519	1.025	3.940
620.0	50.43	64.73	70.81	49.44	40.29	42.64	45.11	58.35	74.01	93.04	113.8	142.2	128.4	72.54	49.69	34.52	63.00	424.0	257.6	6.568	4.118	3.904	3.889	3.706	3.810	3.283	3.609	3.408	3.471	3.349	3.483	3.166	2.861	2.674	2.502	2.375	2.241	1.933	1.727	1.749	1.599	1.417	1.471	1.138	1.314	1.104	1.166	1.149	1.041	0.976	0.898	0.969	0.752	0.785	0.741	0.731	0.770	0.815	0.987	0.847	0.816	0.789	0.650	0.662	0.727	0.747	0.722	0.881	0.936	0.971	0.644	0.487	0.505	0.423	0.390	0.449	1.182
625.0	47.85	65.48	69.83	51.50	40.66	41.25	46.36	56.25	67.75	90.16	106.5	127.3	132.3	74.25	50.73	32.09	34.80	196.4	452.0	23.92	3.511	3.121	3.357	3.090	3.031	3.038	2.884	2.956	2.894	3.089	3.134	2.568	2.431	2.296	2.173	1.914	1.922	1.632	1.535	1.494	1.342	1.279	1.220	1.075	1.105	1.074	1.050	0.978	0.909	0.797	0.699	0.758	0.713	0.612	0.607	0.649	0.633	0.631	0.821	0.829	0.826	0.693	0.630	0.720	0.685	0.702	0.676	0.805	0.819	0.986	0.714	0.562	0.452	0.383	0.388	0.312	0.543
630.0	46.70	60.85	59.85	47.77	40.42	41.91	46.57	53.83	66.44	84.85	103.4	114.8	126.7	85.44	49.94	31.93	27.49	60.84	365.8	175.8	5.642	2.952	2.728	2.654	2.543	2.511	2.461	2.194	2.295	2.597	2.356	2.149	1.869	1.834	1.807	1.505	1.361	1.396	1.309	1.180	1.140	1.015	0.933	0.990	0.924	0.833	0.834	0.813	0.709	0.715	0.596	0.648	0.590	0.593	0.503	0.536	0.573	0.567	0.631	0.821	0.768	0.664	0.622	0.610	0.636	0.665	0.621	0.693	0.772	0.786	0.672	0.551	0.432	0.421	0.396	0.314	0.342
635.0	45.98	64.13	65.39	51.95	36.79	39.95	44.24	54.40	62.90	81.05	103.1	108.4	113.8	97.23	55.11	33.74	27.98	25.40	122.3	375.1	40.52	2.605	2.366	2.426	2.244	2.093	2.004	1.961	1.944	1.922	1.839	1.868	1.496	1.518	1.417	1.253	1.245	1.123	0.948	0.907	0.876	0.882	0.729	0.773	0.750	0.676	0.684	0.660	0.642	0.593	0.551	0.518	0.486	0.495	0.529	0.434	0.420	0.511	0.543	0.571	0.652	0.746	0.592	0.598	0.586	0.648	0.609	0.621	0.679	0.603	0.698	0.691	0.594	0.452	0.388	0.368	0.288
640.0	48.54	66.79	70.50	49.23	37.54	36.86	44.90	51.56	63.04	79.09	99.00	105.8	101.9	102.9	62.94	36.05	29.34	18.24	35.51	319.8	163.8	3.480	2.085	1.832	1.866	1.752	1.707	1.755	1.687	1.691	1.607	1.562	1.266	1.368	1.159	0.917	0.954	0.820	0.783	0.683	0.724	0.677	0.637	0.702	0.658	0.627	0.519	0.633	0.514	0.504	0.490	0.399	0.473	0.422	0.381	0.412	0.467	0.500	0.447	0.462	0.606	0.632	0.563	0.578	0.548	0.557	0.559	0.644	0.553	0.569	0.576	0.699	0.615	0.432	0.413	0.359	0.285
645.0	48.26	66.75	70.41	51.33	38.68	37.71	39.85	50.99	60.43	77.77	97.07	105.3	94.95	96.44	68.69	38.16	31.25	16.54	14.39	155.4	308.6	13.39	2.012	1.634	1.920	1.743	1.653	1.367	1.410	1.657	1.393	1.260	1.172	1.029	0.989	0.828	1.006	0.740	0.654	0.611	0.690	0.596	0.552	0.609	0.597	0.520	0.497	0.620	0.497	0.372	0.405	0.437	0.413	0.366	0.385	0.342	0.432	0.444	0.424	0.507	0.496	0.541	0.590	0.530	0.518	0.568	0.564	0.703	0.594	0.492	0.563	0.617	0.633	0.565	0.384	0.352	0.302
650.0	47.84	72.53	78.40	53.90	36.37	35.73	41.30	47.86	58.51	80.22	90.44	102.1	94.03	85.79	74.85	40.59	31.14	16.73	9.427	50.02	335.1	55.63	2.154	1.472	1.564	1.479	1.454	1.305	1.430	1.490	1.197	1.153	1.040	0.949	0.947	0.846	0.793	0.594	0.655	0.584	0.561	0.533	0.584	0.441	0.534	0.535	0.481	0.535	0.463	0.329	0.372	0.433	0.397	0.356	0.314	0.367	0.370	0.412	0.451	0.417	0.463	0.502	0.515	0.531	0.507	0.546	0.574	0.574	0.496	0.558	0.491	0.416	0.613	0.563	0.410	0.349	0.323
