Sample:	'1
File name:	Default_20250717_173016.FD3
Run date:	'17:23:55, 07/17/2025
Operator:	dsjg
Comment:	'

Instrument
Model:	F-2700 FL Spectrophotometer
Serial number:	2198-001
ROM Version:	4J14000 07

Instrument parameters
Measurement type:	3-D scan
Data mode:	Fluorescence
EX  Start WL:	220.0 nm
EX  End WL:	600.0 nm
EX Sampling interval:	5.0 nm
EM  Start WL:	230.0 nm
EM  End WL:	650.0 nm
EM Sampling interval:	5.0 nm
Scan speed:	12000 nm/min
EX Slit:	5.0 nm
EM Slit:	5.0 nm
PMT Voltage:	700 V
Response:	Auto 
Corrected spectra:	Off
Contour interval:	50.000

Peak integration
Integration method:	Rectangular
Sensitivity:	1
Threshold:	1.000

Peaks
No.	ApexEX/EM(nm)	Height(Data)
1	225.0/620.0	109.4
2	230.0/345.0	 6920
3	255.0/560.0	64.75
4	260.0/570.0	49.73
5	275.0/320.0	 5193
6	275.0/615.0	228.0
7	275.0/625.0	223.3
8	280.0/335.0	 4962
9	365.0/415.0	188.4
10	370.0/425.0	183.2
11	375.0/430.0	171.8
12	385.0/445.0	136.0
13	415.0/485.0	31.32
14	420.0/490.0	25.33
15	425.0/495.0	21.50
16	430.0/505.0	18.80
17	435.0/510.0	15.36
18	440.0/520.0	12.76
19	445.0/525.0	11.50
20	455.0/540.0	8.074
21	460.0/340.0	22.00
22	460.0/545.0	6.777
23	470.0/560.0	4.753
24	480.0/350.0	26.47
25	555.0/320.0	27.39
26	565.0/335.0	25.80

Data points
	220.0	225.0	230.0	235.0	240.0	245.0	250.0	255.0	260.0	265.0	270.0	275.0	280.0	285.0	290.0	295.0	300.0	305.0	310.0	315.0	320.0	325.0	330.0	335.0	340.0	345.0	350.0	355.0	360.0	365.0	370.0	375.0	380.0	385.0	390.0	395.0	400.0	405.0	410.0	415.0	420.0	425.0	430.0	435.0	440.0	445.0	450.0	455.0	460.0	465.0	470.0	475.0	480.0	485.0	490.0	495.0	500.0	505.0	510.0	515.0	520.0	525.0	530.0	535.0	540.0	545.0	550.0	555.0	560.0	565.0	570.0	575.0	580.0	585.0	590.0	595.0	600.0
230.0	433.1	 6496	9999.9	 2954	70.46	14.14	10.59	9.036	6.813	5.429	5.711	5.137	4.686	4.099	3.878	3.321	3.023	2.457	1.839	1.597	1.634	1.406	1.351	1.320	1.211	1.125	1.160	1.063	1.068	1.076	1.021	1.050	0.939	0.769	0.829	0.797	0.854	0.768	0.691	0.563	0.683	0.795	0.814	0.732	0.636	0.606	0.923	4.715	12.28	13.73	7.632	2.008	0.598	0.536	0.470	0.503	0.518	0.509	0.494	0.421	0.428	0.399	0.475	0.472	0.492	0.417	0.468	0.478	0.495	0.499	0.414	0.509	0.429	0.439	0.460	0.432	0.497
235.0	207.7	 1838	 7457	9999.9	 3008	75.00	12.04	10.58	7.337	5.503	7.092	5.698	5.021	4.116	4.142	3.163	3.268	2.334	1.946	1.442	1.617	1.507	1.483	1.149	1.154	0.976	1.132	1.196	1.199	0.944	1.184	1.018	0.869	0.823	0.698	0.740	0.802	0.806	0.703	0.799	0.561	0.688	0.575	0.694	0.817	0.731	0.699	1.550	3.907	7.369	12.25	15.94	11.02	3.283	0.726	0.513	0.599	0.392	0.375	0.524	0.405	0.413	0.529	0.463	0.369	0.402	0.433	0.512	0.512	0.510	0.407	0.449	0.428	0.389	0.479	0.437	0.458
240.0	174.3	489.6	 2459	 9942	9999.9	493.7	29.26	11.63	7.300	6.957	6.844	4.956	5.411	4.083	3.755	3.602	3.116	2.646	1.907	1.836	1.601	1.395	1.394	1.313	1.227	1.291	1.216	1.149	0.978	0.974	0.987	0.888	0.904	0.788	0.787	0.652	0.672	0.668	0.725	0.675	0.617	0.776	0.597	0.639	0.793	0.865	0.837	0.911	1.407	2.075	4.877	12.94	20.00	17.97	8.653	1.753	0.552	0.585	0.496	0.599	0.465	0.493	0.554	0.428	0.373	0.446	0.479	0.541	0.512	0.404	0.351	0.504	0.444	0.545	0.472	0.452	0.396
245.0	144.8	236.5	612.5	 3838	9999.9	 7459	348.6	16.52	9.273	7.381	7.200	5.853	6.292	4.539	4.149	3.847	2.975	2.808	2.065	1.601	1.544	1.608	1.599	1.492	1.296	1.126	1.197	0.987	0.970	1.014	0.856	0.825	0.744	0.745	0.856	0.676	0.730	0.666	0.705	0.671	0.576	0.677	0.740	0.642	0.676	0.812	0.960	1.003	0.881	0.772	1.450	4.007	10.38	20.09	24.50	17.12	5.809	0.883	0.699	0.557	0.461	0.472	0.518	0.449	0.567	0.503	0.471	0.453	0.480	0.357	0.464	0.548	0.587	0.522	0.512	0.530	0.482
250.0	87.31	154.8	260.8	937.2	 3728	 8079	 5921	 1409	76.12	10.04	8.244	7.079	6.627	4.924	4.397	3.914	3.233	2.780	2.344	1.916	1.755	1.650	1.657	1.329	1.453	1.343	1.352	1.038	1.049	1.004	1.058	0.910	0.804	0.811	0.757	0.736	0.657	0.702	0.631	0.706	0.752	0.677	0.636	0.650	0.563	0.665	0.703	0.891	0.989	0.847	0.855	1.352	2.811	5.989	11.42	17.87	23.79	22.08	14.18	5.303	1.046	0.609	0.450	0.414	0.470	0.536	0.413	0.387	0.459	0.485	0.501	0.488	0.443	0.485	0.557	0.460	0.451
255.0	77.61	79.93	163.4	342.3	888.0	 2155	 5764	 7671	 1866	72.13	10.94	8.071	6.985	6.445	4.850	3.956	3.346	2.827	2.654	2.212	1.955	1.589	1.536	1.573	1.296	1.149	1.377	1.033	1.097	0.841	1.126	0.937	0.891	0.990	0.773	0.692	0.641	0.660	0.689	0.727	0.751	0.806	0.677	0.616	0.620	0.600	0.607	0.609	0.697	0.730	0.859	1.143	1.369	1.874	3.003	4.521	7.425	15.75	29.42	31.80	21.61	6.673	0.853	0.515	0.480	0.463	0.533	0.546	0.414	0.567	0.562	0.405	0.484	0.378	0.583	0.393	0.387
260.0	75.96	58.07	89.53	206.9	311.3	521.6	 1873	 6272	 6598	 1271	35.60	9.787	7.903	6.997	5.245	4.614	4.291	3.359	2.516	2.147	1.764	1.660	1.525	1.410	1.717	1.264	1.101	1.036	1.105	1.066	1.181	0.874	0.967	1.087	0.876	0.900	0.588	0.574	0.735	0.662	0.708	0.771	0.661	0.618	0.815	0.701	0.604	0.527	0.552	0.587	0.683	0.988	1.459	1.161	1.196	1.463	2.161	4.442	11.33	25.23	38.16	30.97	16.52	3.281	0.656	0.475	0.584	0.424	0.568	0.384	0.504	0.506	0.479	0.388	0.481	0.332	0.486
265.0	84.79	53.47	51.18	109.3	215.4	206.0	453.1	 2219	 6595	 5157	239.9	19.57	9.701	7.913	5.879	4.821	3.962	3.461	2.434	2.367	2.078	1.600	1.474	1.871	1.550	1.414	1.194	1.361	0.986	1.157	0.971	1.022	0.943	1.041	0.792	0.825	0.784	0.555	0.688	0.759	0.726	0.796	0.753	0.628	0.670	0.676	0.455	0.633	0.461	0.502	0.435	0.703	1.113	1.397	1.337	0.934	1.042	1.399	3.091	7.367	17.34	33.24	41.60	27.62	10.42	1.277	0.525	0.577	0.460	0.522	0.399	0.396	0.543	0.475	0.452	0.356	0.420
270.0	96.08	71.86	55.70	58.73	117.9	185.4	194.0	538.8	 2093	 4421	 5090	 2121	73.03	9.785	7.496	5.696	5.073	4.075	2.737	2.434	2.158	2.090	1.650	1.787	1.535	1.402	1.270	1.238	1.163	1.186	1.199	1.076	1.007	1.016	0.786	0.894	0.802	0.927	0.850	0.749	0.614	0.771	0.699	0.707	0.699	0.733	0.689	0.689	0.629	0.513	0.492	0.605	0.718	0.872	1.162	1.303	1.353	1.101	1.345	2.124	4.489	9.302	17.32	27.00	30.05	31.42	18.35	8.309	1.481	0.512	0.482	0.488	0.500	0.547	0.468	0.403	0.457
275.0	144.4	123.8	84.96	54.38	57.75	102.9	195.2	228.6	502.3	 1121	 3242	 6380	 1454	88.75	9.427	6.669	6.058	4.359	3.804	2.788	2.237	2.287	1.766	1.854	1.458	1.536	1.400	1.228	1.151	1.280	1.089	1.017	1.144	1.171	1.215	0.895	1.049	0.983	0.811	0.727	0.670	0.717	0.860	0.754	0.874	0.790	0.838	0.663	0.803	0.558	0.600	0.626	0.565	0.612	0.770	0.921	1.133	1.485	1.807	1.374	1.542	2.712	4.481	6.654	8.799	18.10	34.68	44.48	27.35	9.366	0.886	0.528	0.503	0.573	0.557	0.499	0.614
280.0	185.1	164.3	115.4	59.42	41.82	58.14	143.0	229.3	200.9	288.7	966.6	 4166	 6439	 1188	53.93	8.595	6.835	5.555	3.826	3.750	2.339	2.416	1.966	1.655	1.758	1.602	1.473	1.455	1.239	1.124	1.150	1.092	1.033	1.208	1.136	1.182	1.203	0.969	0.828	0.780	0.781	0.848	0.766	0.904	0.952	0.998	0.871	0.953	0.848	0.625	0.607	0.574	0.469	0.669	0.636	0.732	0.727	1.231	1.706	1.802	1.529	1.194	1.474	1.973	2.672	4.936	11.98	26.70	42.99	35.53	21.15	3.933	0.710	0.580	0.423	0.528	0.565
285.0	229.1	206.4	136.1	69.17	43.00	47.46	80.94	197.7	228.5	144.1	277.1	 1370	 4841	 6010	903.8	24.89	8.258	6.080	4.361	3.454	2.415	2.635	2.130	1.773	1.804	1.457	1.440	1.313	1.206	1.402	1.216	1.077	1.246	1.046	1.351	1.319	1.342	1.048	0.957	0.931	0.890	0.875	0.891	0.984	0.975	1.052	1.125	1.015	0.955	0.761	0.607	0.615	0.559	0.595	0.692	0.669	0.696	0.860	1.163	1.389	1.996	1.785	1.296	1.133	1.293	1.786	3.380	7.655	17.65	34.09	47.77	31.39	11.99	1.301	0.594	0.561	0.667
290.0	295.9	272.8	184.4	102.4	73.64	81.79	96.81	159.8	268.0	293.1	221.1	443.3	 1515	 3768	 5126	 2512	52.08	11.60	5.976	4.177	3.158	3.076	2.334	2.282	1.831	1.755	1.636	1.450	1.220	1.348	1.104	1.195	1.491	1.365	1.484	1.512	1.454	1.241	1.179	1.006	0.988	1.044	0.998	1.038	1.140	1.101	1.276	1.321	1.143	0.993	0.763	0.700	0.701	0.854	0.738	0.895	0.925	0.975	1.071	1.366	1.551	1.938	2.243	2.138	1.862	1.631	1.856	2.732	5.018	9.678	18.01	28.94	35.90	34.92	18.97	8.260	1.187
295.0	390.8	387.2	296.7	197.2	182.3	212.5	261.2	309.2	348.6	560.2	629.7	549.8	700.4	 1150	 2593	 5883	 4159	74.98	15.29	5.977	4.396	3.359	2.551	2.664	2.123	1.852	2.093	1.605	1.463	1.553	1.113	1.308	1.518	1.851	1.700	1.786	1.826	1.557	1.437	1.333	1.131	1.340	1.431	1.317	1.370	1.325	1.499	1.658	1.515	1.346	1.053	1.258	1.176	1.248	1.342	1.365	1.694	1.967	1.989	2.245	2.217	2.669	3.115	3.423	4.140	3.933	3.199	3.005	3.675	4.342	6.060	8.089	11.03	19.15	36.69	52.57	28.64
300.0	625.5	629.5	508.4	398.8	395.5	458.0	466.3	826.1	 1046	 1365	 1598	 1500	 1308	 1180	 1467	 3777	 7643	 3226	66.58	12.61	6.130	4.625	3.144	3.158	2.464	2.180	2.202	1.559	1.852	1.586	1.311	1.403	1.794	1.891	1.974	2.104	2.293	2.223	2.227	1.885	1.897	1.952	1.977	1.827	1.871	2.253	2.089	2.399	2.312	1.962	1.746	1.938	1.991	2.082	2.287	2.503	3.210	3.950	4.174	4.702	5.552	5.914	6.900	7.596	8.433	9.394	9.152	8.713	8.483	7.348	7.144	6.744	7.428	9.832	16.35	34.27	55.20
305.0	 1007	 1054	853.0	687.4	656.6	894.5	 1196	 1620	 2091	 2403	 3142	 3393	 2992	 2363	 2160	 2526	 5687	 8204	648.7	37.33	9.089	6.370	3.909	3.890	2.953	2.407	2.137	2.050	2.096	1.768	1.560	1.437	1.765	2.219	2.484	2.725	3.186	3.166	3.275	3.116	3.101	2.834	2.935	2.897	2.794	3.120	3.480	3.565	3.619	2.857	2.902	2.851	3.124	3.273	3.801	4.551	5.640	6.978	7.638	9.058	10.37	11.14	13.18	15.12	16.06	17.08	17.90	18.07	17.41	15.16	13.63	12.29	12.18	12.98	12.65	16.96	29.22
310.0	 1433	 1511	 1271	 1038	 1007	 1285	 1713	 2173	 2727	 3347	 3950	 4323	 4098	 3302	 2834	 2404	 3243	 5136	 5225	 2467	40.13	8.765	5.794	4.883	3.675	2.916	2.551	2.531	2.350	1.985	1.779	1.829	1.875	2.410	2.828	3.142	3.585	3.755	3.883	3.875	3.797	3.712	3.754	3.782	3.913	4.506	4.745	5.051	5.116	4.284	3.811	4.290	4.466	4.578	5.397	6.230	7.507	9.175	10.47	11.93	12.95	14.60	16.45	18.60	19.76	21.47	22.29	22.80	23.20	21.23	18.83	16.75	16.70	16.41	13.80	13.72	16.95
315.0	 1949	 2154	 1775	 1405	 1333	 1608	 2097	 2520	 3103	 3840	 4492	 4931	 4796	 4126	 3463	 2681	 2720	 2487	 2460	 6384	 3624	49.55	8.595	6.007	4.131	3.751	2.883	2.920	2.452	2.327	1.891	2.040	1.992	2.459	3.029	3.420	3.912	4.137	4.496	4.527	4.417	4.189	4.514	4.409	4.955	5.795	6.417	7.259	6.605	6.002	5.132	6.053	5.847	6.340	6.705	7.850	9.243	11.24	12.87	13.28	14.85	16.36	18.60	20.65	21.95	24.21	25.19	26.29	25.42	24.47	23.36	21.37	20.71	19.07	16.55	14.56	15.50
320.0	 2425	 2857	 2252	 1637	 1504	 1754	 2240	 2697	 3229	 3980	 4689	 5193	 5062	 4449	 3864	 2873	 2673	 1905	952.1	 3105	 7641	 2669	34.15	8.541	5.379	4.453	3.440	3.422	2.473	2.507	2.103	1.934	2.236	2.260	2.919	3.434	3.636	4.310	4.928	4.856	4.740	4.815	5.153	5.443	5.838	7.784	7.874	9.460	8.627	7.075	5.963	6.720	6.551	6.829	7.501	8.537	10.45	12.10	13.40	14.05	15.28	16.93	18.94	21.48	23.24	25.06	25.71	27.39	27.05	25.60	24.54	22.88	22.67	21.39	17.15	15.43	15.58
325.0	 2966	 3556	 2858	 1963	 1653	 1793	 2265	 2692	 3113	 3832	 4525	 5060	 4965	 4411	 3893	 2943	 2559	 1719	588.6	971.2	 4331	 8125	480.1	23.65	7.766	4.745	3.978	3.359	2.740	2.610	2.286	2.277	2.502	2.404	3.014	3.452	3.624	4.101	4.623	4.841	4.772	5.028	5.173	5.907	7.072	9.180	9.918	11.22	11.16	8.966	7.216	7.659	7.090	7.389	7.570	8.766	9.976	11.69	13.71	14.50	14.79	16.74	18.79	20.71	23.01	23.88	24.57	26.63	27.01	25.57	24.13	23.23	22.34	22.05	18.59	16.04	15.65
330.0	 3587	 4499	 4145	 3219	 2564	 2138	 2292	 2604	 2956	 3567	 4265	 4830	 4851	 4379	 3858	 3076	 2641	 1737	673.0	513.5	 1314	 4300	 4724	 2029	35.19	8.361	5.248	3.910	3.407	2.888	2.417	2.481	2.445	2.516	2.881	3.309	3.686	4.178	4.251	4.922	4.956	5.582	5.897	6.646	8.053	9.970	11.82	14.23	14.50	12.63	11.42	12.86	12.03	11.61	10.25	9.852	10.92	11.60	13.64	13.89	14.77	15.73	17.41	19.43	21.09	22.45	23.59	24.77	25.61	24.79	23.60	23.36	22.47	21.23	18.98	16.93	16.36
335.0	 4489	 5976	 6003	 5361	 4347	 2965	 2555	 2660	 2906	 3500	 4188	 4846	 4962	 4608	 4095	 3336	 2985	 2097	 1042	683.7	723.4	 1299	 2221	 7077	 3051	44.04	8.672	5.533	4.362	3.318	2.962	2.411	2.532	2.754	3.050	3.414	3.763	4.324	4.549	5.046	5.093	6.055	6.784	8.034	9.842	12.27	14.45	18.33	19.80	18.45	18.15	21.08	20.70	19.69	16.01	12.72	12.86	12.39	13.81	14.68	15.02	15.36	17.48	19.16	20.05	22.23	23.30	24.78	25.69	25.80	25.35	24.58	23.83	22.69	20.26	18.73	18.37
340.0	 4756	 6521	 6856	 6243	 5069	 3346	 2646	 2637	 2803	 3321	 3962	 4592	 4771	 4526	 4070	 3335	 2951	 2239	 1240	803.7	648.5	659.4	845.8	 3483	 7731	 2249	30.38	7.659	5.151	3.995	3.162	2.727	2.749	2.925	3.096	3.496	3.684	4.451	4.719	5.013	5.328	6.120	6.965	7.961	10.42	12.93	15.40	19.71	22.00	20.80	20.77	24.19	24.59	22.49	18.20	14.36	13.62	12.99	13.60	13.93	14.48	14.41	16.75	18.08	19.26	21.14	22.49	24.12	24.85	25.02	25.17	24.20	23.28	22.07	20.34	18.42	17.79
345.0	 4646	 6461	 6920	 6443	 5270	 3485	 2609	 2502	 2588	 3048	 3614	 4209	 4412	 4270	 3839	 3173	 2746	 2155	 1360	862.9	646.4	529.0	508.4	 1126	 4598	 7451	411.8	18.17	6.031	4.415	3.594	2.998	2.918	3.010	2.948	3.363	3.494	4.155	4.410	4.827	5.204	6.112	6.594	7.823	10.01	12.91	15.07	19.11	21.62	21.42	21.15	25.27	25.02	23.69	18.92	15.14	13.88	12.75	13.24	13.61	13.49	13.38	15.01	16.41	17.32	19.68	20.52	22.20	22.52	22.83	22.90	22.50	22.60	20.68	19.29	17.88	16.72
350.0	 4372	 6049	 6870	 6665	 5546	 3523	 2498	 2319	 2355	 2706	 3220	 3730	 3961	 3865	 3531	 2964	 2553	 2003	 1393	983.2	694.0	533.8	463.4	513.3	 1264	 4013	 5846	 1832	28.64	6.197	4.446	3.677	3.430	2.902	2.974	3.000	3.481	3.618	4.060	4.250	4.800	5.349	6.356	7.190	9.327	11.89	14.19	18.28	20.40	20.81	21.45	25.91	26.47	25.12	19.96	15.36	13.61	12.32	12.36	12.40	12.24	12.31	13.67	14.69	15.80	17.19	18.01	19.29	20.09	20.25	20.32	20.78	20.70	19.18	17.86	16.95	16.07
355.0	 3911	 5575	 6440	 6441	 5471	 3451	 2363	 2115	 2085	 2372	 2810	 3240	 3480	 3418	 3158	 2691	 2322	 1844	 1307	 1013	773.3	546.9	460.2	388.2	409.4	959.7	 2202	 7133	 2798	37.92	5.987	4.503	4.041	3.146	3.230	3.266	3.430	3.414	3.518	4.169	4.468	4.850	5.369	6.641	8.492	10.95	12.87	16.35	19.60	19.33	20.84	25.39	26.01	24.96	19.86	15.11	12.87	11.75	11.22	10.91	11.14	11.21	11.81	12.73	13.49	14.90	15.50	16.88	17.77	18.15	18.59	18.88	18.31	17.53	16.57	15.55	14.94
360.0	 3491	 4950	 5801	 5865	 5026	 3229	 2174	 1901	 1864	 2095	 2453	 2828	 3047	 3018	 2804	 2402	 2086	 1673	 1206	921.8	780.5	560.1	441.8	340.3	224.0	274.5	550.9	 3323	 7319	 2083	26.44	5.710	4.316	3.393	3.548	3.303	3.131	3.326	3.373	3.830	3.980	4.458	5.085	6.450	7.704	9.742	11.69	14.42	17.55	17.51	18.79	23.46	24.11	23.07	18.64	13.95	12.17	10.78	10.59	9.843	10.21	9.650	10.29	11.15	12.02	13.38	13.68	15.17	15.44	15.91	16.31	16.52	16.00	15.52	14.39	13.58	13.58
365.0	 3094	 4414	 5213	 5297	 4586	 2957	 1982	 1710	 1659	 1844	 2141	 2470	 2651	 2650	 2471	 2137	 1862	 1515	 1113	835.5	708.0	593.5	436.4	316.8	185.4	128.8	157.9	847.9	 4330	 7069	386.6	14.83	5.092	3.967	3.545	3.250	3.211	3.173	3.314	3.797	3.678	4.156	4.715	5.743	6.780	8.701	10.17	13.55	15.15	15.92	16.63	21.17	21.53	20.83	17.35	13.20	10.74	9.826	9.756	8.955	9.407	8.968	9.577	9.735	11.03	11.45	11.99	12.98	13.33	14.32	14.41	14.54	14.23	13.97	13.07	12.73	12.41
370.0	 2645	 3684	 4423	 4620	 4032	 2639	 1747	 1492	 1437	 1564	 1803	 2077	 2231	 2241	 2108	 1848	 1621	 1341	 1014	771.0	628.2	555.4	480.3	328.0	179.4	104.8	77.80	216.4	 1085	 3826	 5624	 1645	24.99	5.213	4.082	3.555	3.145	2.954	3.196	3.374	3.461	3.901	4.475	5.010	5.873	7.589	8.663	11.36	12.88	13.68	14.62	18.41	19.05	18.96	15.52	11.88	9.848	8.897	8.307	8.008	7.830	7.591	8.100	8.238	9.276	9.705	10.25	11.06	11.38	12.00	11.98	12.31	12.49	12.02	11.55	10.89	10.77
375.0	 2185	 3060	 3716	 3853	 3424	 2298	 1525	 1291	 1228	 1298	 1498	 1704	 1841	 1852	 1765	 1571	 1398	 1175	919.3	715.8	581.7	480.5	465.3	377.5	194.0	108.0	69.29	83.43	265.7	878.2	 2132	 6293	 2512	32.92	5.484	4.172	3.581	3.147	2.876	3.247	3.337	3.459	3.809	4.376	5.149	6.130	7.345	9.226	10.87	11.56	12.24	15.55	16.38	16.09	13.02	10.46	8.750	8.036	7.405	7.102	6.886	6.832	6.658	6.962	7.492	8.213	8.377	9.348	9.382	10.03	10.00	10.64	10.73	10.26	10.05	9.543	9.621
380.0	 1936	 2615	 3150	 3313	 2997	 2054	 1377	 1136	 1080	 1123	 1292	 1455	 1579	 1599	 1527	 1375	 1238	 1063	852.1	677.9	551.6	454.4	413.4	383.1	232.4	119.9	75.24	57.96	87.18	217.3	515.1	 2958	 6826	 1812	22.30	5.162	4.081	3.545	3.090	3.054	2.925	3.390	3.801	4.185	4.630	5.533	6.359	7.767	9.352	9.652	10.78	13.38	14.11	14.29	11.56	9.402	7.962	7.080	6.407	6.489	5.720	5.691	5.952	5.955	6.445	6.792	7.169	7.955	8.116	8.715	8.338	8.977	9.222	8.709	8.370	8.289	8.339
385.0	 1675	 2255	 2723	 2887	 2657	 1814	 1244	 1029	950.3	 1004	 1119	 1261	 1380	 1407	 1344	 1225	 1112	974.9	801.0	650.1	529.0	438.4	381.7	343.4	275.2	146.2	84.38	58.86	52.76	72.94	134.8	743.9	 4085	 6091	319.1	11.69	4.781	3.928	3.266	3.012	3.099	3.243	3.342	3.676	4.205	4.962	5.480	6.986	7.845	8.564	9.135	11.82	12.62	12.87	10.39	8.319	7.433	6.801	6.198	5.724	5.422	5.304	5.416	5.254	5.720	6.133	6.457	6.952	7.401	7.546	7.608	7.908	7.971	7.790	7.446	7.520	7.438
390.0	 1456	 1883	 2300	 2452	 2243	 1589	 1114	905.2	827.9	851.2	954.5	 1071	 1163	 1194	 1159	 1065	982.7	874.1	732.9	607.0	504.8	424.9	366.8	305.0	255.2	204.6	117.7	73.26	55.90	50.06	57.92	187.1	 1017	 3300	 4619	 1201	21.47	5.435	3.853	3.466	3.167	3.306	3.143	3.498	3.793	4.425	4.925	6.080	6.791	7.148	7.868	10.31	10.44	10.78	9.022	7.574	6.669	6.034	5.546	5.134	4.882	4.539	4.667	4.866	5.005	5.184	5.470	6.048	6.175	6.344	6.527	6.984	6.990	6.916	6.816	6.459	6.420
395.0	 1236	 1562	 1915	 2049	 1873	 1362	980.6	812.2	729.5	752.5	825.9	917.3	998.0	 1020	998.7	930.8	868.4	784.3	672.0	570.7	483.9	411.8	361.0	296.1	232.2	207.2	181.8	108.5	74.73	60.61	57.25	78.56	256.6	765.4	 1772	 4805	 2020	28.78	5.840	3.998	3.401	3.082	3.209	3.368	3.419	3.962	4.166	5.252	5.766	5.828	6.741	8.482	8.689	9.197	7.867	6.373	6.025	5.155	4.951	4.539	4.154	4.252	4.145	4.431	4.469	4.428	4.435	5.021	5.453	5.226	6.097	6.284	6.130	6.017	6.376	6.121	5.685
400.0	 1082	 1402	 1681	 1788	 1682	 1238	907.7	748.7	685.2	694.7	763.7	846.0	901.5	923.6	901.5	843.1	793.1	728.9	639.7	547.8	473.7	411.3	361.2	301.3	237.9	200.0	205.3	159.3	99.65	80.94	74.19	70.70	100.1	208.4	445.3	 2293	 5183	 1470	20.13	5.019	3.780	3.398	3.143	3.159	3.262	3.887	3.926	4.751	4.990	5.627	5.807	7.618	7.670	8.211	7.006	5.841	5.477	5.026	4.678	4.472	4.008	3.975	4.175	4.035	4.158	4.003	4.209	4.340	4.869	4.884	5.406	5.627	5.475	5.682	5.411	5.650	5.356
405.0	995.3	 1256	 1505	 1603	 1509	 1152	853.8	716.7	666.0	669.7	723.2	794.7	841.1	861.5	833.0	784.5	740.8	684.5	611.1	534.9	471.0	410.7	365.1	310.9	253.3	208.7	198.7	201.7	142.6	107.9	97.13	89.02	86.43	102.2	148.3	601.0	 3053	 4716	275.2	11.57	4.707	3.511	3.182	3.364	3.183	3.616	3.549	4.433	4.838	5.035	5.263	6.844	7.208	7.322	6.499	5.620	5.009	4.786	4.326	4.385	4.146	4.039	3.779	4.036	3.888	3.923	3.949	4.456	4.473	4.454	4.735	5.133	4.985	4.955	4.922	5.153	5.261
410.0	910.5	 1114	 1321	 1410	 1337	 1052	793.7	670.7	624.3	644.7	688.8	739.9	773.0	785.5	761.7	720.1	681.7	637.8	571.8	512.3	453.8	403.2	366.9	316.8	264.8	220.3	195.3	197.3	194.9	149.8	123.2	111.5	100.7	93.23	94.86	187.8	781.3	 2576	 2855	 1166	18.81	4.461	3.484	3.348	3.141	3.234	3.415	4.028	4.435	4.488	4.736	6.117	6.431	6.612	5.850	5.290	4.808	4.558	4.189	4.139	3.906	3.832	3.769	3.659	3.609	3.640	3.851	3.914	4.139	4.072	4.479	4.534	4.384	4.499	4.668	4.723	4.488
415.0	795.9	967.2	 1157	 1233	 1176	937.9	732.9	634.8	588.8	605.0	642.7	674.7	695.7	711.4	686.7	647.2	614.5	582.5	525.3	472.1	422.0	383.8	348.2	305.9	258.8	221.6	192.1	178.4	186.6	188.4	146.0	121.5	108.5	94.12	85.33	96.98	214.7	602.9	 1229	 3808	 1670	24.65	4.147	3.040	3.332	3.195	3.311	3.783	4.020	4.130	4.449	5.570	5.672	5.947	5.386	4.743	4.400	4.112	3.858	3.878	3.470	3.388	3.373	3.440	3.351	3.436	3.733	3.473	3.802	3.668	3.931	4.058	4.062	4.007	3.826	4.078	3.942
420.0	714.6	884.9	 1023	 1111	 1076	857.7	690.5	589.3	559.0	572.5	602.1	628.5	647.0	657.8	629.9	600.8	573.1	535.4	494.0	443.6	397.6	363.8	329.2	294.9	253.3	215.7	189.5	172.9	163.9	187.4	171.1	128.4	107.4	93.48	81.80	75.38	87.66	159.3	299.9	 1798	 4029	 1167	17.18	3.532	3.343	3.288	3.137	3.500	3.801	3.625	3.940	4.852	5.265	5.382	4.930	4.508	4.172	4.046	3.783	3.490	3.153	3.339	3.237	3.301	3.535	3.360	3.379	3.348	3.366	3.499	3.650	3.778	3.857	3.832	3.951	3.725	3.820
425.0	693.8	816.4	959.2	 1037	 1008	812.2	658.0	569.3	535.7	543.4	576.5	588.7	614.5	615.8	593.3	557.6	534.4	502.1	464.8	419.8	378.7	347.4	318.3	284.1	246.8	213.8	190.5	170.0	157.2	166.1	183.2	146.0	111.4	95.22	82.91	73.14	60.73	61.37	81.73	448.4	 2411	 3508	257.1	8.071	3.466	3.421	3.120	3.506	3.290	3.511	3.703	4.695	4.973	5.214	4.785	4.245	4.068	3.689	3.423	3.430	3.161	3.235	3.176	3.027	3.151	3.099	3.361	3.267	3.270	3.200	3.496	3.411	3.642	3.581	3.685	3.640	3.691
430.0	719.7	770.5	881.2	944.7	924.2	763.4	625.9	554.1	523.1	527.0	545.9	565.9	578.3	575.7	554.9	515.8	493.4	467.6	430.6	392.1	356.3	329.8	303.3	274.8	240.2	212.9	190.8	173.4	162.5	157.6	168.0	171.8	134.3	103.0	90.23	76.61	59.64	42.13	34.32	110.3	601.1	 1946	 2432	950.2	16.87	3.990	3.264	3.479	3.378	3.408	3.437	4.379	4.514	4.517	4.419	3.909	3.689	3.494	3.437	3.305	3.111	3.101	3.068	3.185	3.081	3.002	3.140	3.137	3.066	3.208	3.226	3.166	3.371	3.295	3.292	3.597	3.474
435.0	 1424	695.9	801.7	871.6	835.8	718.0	595.4	538.1	507.3	515.0	520.0	536.9	547.5	533.3	506.7	478.1	456.5	434.7	397.9	363.3	331.9	308.0	288.7	264.3	235.9	210.4	190.0	176.1	164.9	157.2	154.8	162.0	158.3	119.2	95.02	80.68	61.76	40.57	26.43	35.81	142.0	443.4	 1019	 3224	 1496	22.49	3.593	3.472	3.421	3.338	3.239	4.183	4.303	4.472	4.080	3.766	3.639	3.494	3.311	3.235	3.237	2.965	2.964	3.063	3.051	2.974	3.047	2.952	2.940	2.993	2.949	3.090	3.088	3.084	3.068	3.260	3.402
440.0	 3120	675.7	753.5	820.4	797.7	693.3	574.0	515.5	489.2	497.0	497.4	510.0	511.4	504.9	478.6	452.3	424.8	404.3	375.8	340.2	312.8	289.2	271.6	252.0	224.0	202.2	183.5	172.0	160.9	154.0	149.6	146.9	154.5	135.1	98.86	80.43	63.08	40.36	24.74	20.73	40.82	105.9	244.6	 1656	 3559	266.5	12.56	3.663	3.243	3.410	3.047	4.047	4.225	4.291	3.934	3.709	3.546	3.451	3.366	3.434	3.081	3.190	2.950	3.000	2.926	2.945	2.806	2.671	2.750	3.009	2.924	3.059	2.999	2.953	2.843	3.124	3.211
445.0	 5436	980.7	728.0	780.3	749.8	655.4	546.7	493.0	458.9	468.7	473.5	477.7	482.0	480.3	452.5	419.8	401.4	381.4	351.3	321.4	292.5	271.8	252.5	234.8	209.6	190.0	175.7	162.9	152.9	148.2	140.8	135.6	134.0	136.0	105.4	79.13	60.78	40.26	25.18	17.36	18.34	31.50	61.52	424.3	 2355	 3239	199.0	6.938	3.504	3.336	3.235	3.816	4.006	4.119	3.841	3.491	3.422	3.297	3.210	3.208	2.833	2.891	2.794	2.935	2.699	2.640	2.732	2.748	2.654	2.858	2.881	2.729	3.005	2.842	2.731	3.125	2.878
450.0	 5715	 2730	770.1	712.6	679.8	600.3	504.2	461.2	428.2	430.3	426.3	436.2	438.3	426.2	408.0	380.1	360.1	342.5	314.0	286.9	263.0	241.5	226.5	211.1	190.7	172.6	158.6	147.7	139.1	134.5	129.4	121.5	113.9	114.2	109.5	83.36	57.30	38.70	25.08	17.59	14.39	14.80	20.52	100.7	592.9	 2025	 2185	812.0	14.11	3.670	3.238	3.675	3.711	3.730	3.532	3.364	3.313	3.259	2.992	2.966	2.748	2.727	2.702	2.590	2.323	2.497	2.443	2.480	2.476	2.449	2.607	2.625	2.573	2.580	2.515	2.687	2.656
455.0	 2713	 5371	 1817	647.8	623.8	543.6	462.3	423.4	393.7	389.8	389.6	397.2	391.3	381.2	363.3	338.7	324.2	302.4	279.8	257.3	231.0	216.0	198.9	187.4	169.3	155.7	142.9	133.9	126.0	123.1	117.8	110.4	100.1	92.84	92.75	91.47	61.65	36.71	24.63	18.21	13.94	12.33	12.12	28.88	137.2	460.6	962.5	 2833	 1203	17.30	3.695	3.682	3.505	3.575	3.173	2.997	3.226	2.892	3.015	2.654	2.372	2.668	2.466	2.377	2.217	2.264	2.148	2.231	2.370	2.539	2.390	2.254	2.212	2.564	2.478	2.568	2.496
460.0	 1056	 5205	 3957	655.9	566.3	500.0	432.3	389.2	366.9	354.2	357.1	360.9	362.2	346.7	336.7	310.6	294.4	276.8	255.4	232.7	211.1	193.9	182.9	172.6	156.7	142.2	133.1	125.9	117.6	115.9	112.3	104.2	94.25	85.58	79.66	84.52	68.62	39.31	24.20	18.42	14.08	12.02	10.41	12.40	36.12	107.6	229.8	 1485	 2907	202.3	11.55	4.054	3.399	3.438	3.412	3.046	2.901	2.959	2.768	2.555	2.433	2.514	2.304	2.355	2.257	2.251	2.059	2.293	2.250	2.286	2.027	2.166	2.136	2.267	2.373	2.216	2.248
465.0	518.3	 3295	 6406	869.2	524.3	475.1	409.8	373.8	343.4	333.5	334.7	334.1	338.2	321.4	308.6	285.8	271.6	254.6	234.9	212.7	193.3	180.0	167.9	158.1	143.5	131.9	124.6	119.1	112.8	108.0	105.2	98.06	88.69	79.47	71.45	72.05	70.73	44.45	25.06	18.21	14.67	12.39	10.41	9.284	13.44	28.94	55.91	381.3	 2001	 2493	166.1	6.347	3.624	3.288	3.228	3.019	2.849	2.821	2.676	2.621	2.397	2.411	2.318	2.186	2.328	2.328	2.182	2.063	2.041	2.015	1.924	2.115	2.049	2.147	2.178	2.114	2.075
470.0	376.5	 1241	 6146	 3996	562.7	429.5	366.3	335.5	305.9	297.6	300.2	305.1	299.5	287.6	273.6	251.1	241.3	225.2	206.9	185.8	168.7	156.6	146.5	139.1	126.5	117.0	109.8	104.8	100.9	97.61	95.50	89.28	82.00	72.21	64.44	59.16	58.09	50.08	31.38	19.16	14.59	12.20	10.09	8.874	8.674	11.25	16.74	89.52	510.4	 1625	 1641	684.9	13.79	3.710	3.133	2.856	2.739	2.659	2.554	2.426	2.222	2.186	2.193	2.051	2.134	1.888	2.030	1.963	1.910	1.782	1.905	1.973	2.006	2.052	2.004	1.944	1.873
475.0	308.8	540.8	 2700	 7108	 1494	381.8	321.0	301.8	267.8	267.7	260.2	269.5	262.7	250.9	239.6	222.7	207.5	195.5	179.0	162.1	143.2	134.8	125.6	119.4	110.9	102.4	95.82	91.77	88.25	85.84	83.31	79.77	72.35	65.02	57.67	51.60	44.78	42.44	37.91	23.57	14.88	12.42	9.895	8.588	8.021	7.629	7.890	23.89	117.4	368.4	713.6	 1989	828.2	17.07	3.373	2.654	2.609	2.614	2.360	2.215	2.115	2.091	1.880	1.903	1.870	1.778	1.794	1.692	1.843	1.758	1.852	1.595	1.756	1.841	1.802	1.682	1.734
480.0	325.0	365.5	 1015	 6450	 3234	415.1	299.6	271.8	249.8	241.3	239.8	241.2	237.6	225.8	216.9	203.1	189.6	176.0	162.8	145.3	129.3	120.7	112.3	108.5	99.95	92.27	86.41	83.11	80.21	78.87	76.60	71.98	65.91	59.23	52.12	47.08	39.11	33.75	36.60	28.78	16.67	12.02	9.795	8.478	7.954	6.745	6.196	9.281	29.79	85.53	170.4	 1009	 1974	223.2	10.36	2.904	2.735	2.354	2.155	2.030	2.026	1.803	1.758	1.731	1.685	1.635	1.700	1.623	1.759	1.656	1.695	1.628	1.525	1.652	1.761	1.891	1.699
485.0	313.2	324.0	482.1	 3714	 4988	581.2	279.7	251.1	226.4	220.0	217.2	223.6	217.9	209.5	198.9	185.6	173.6	163.8	147.3	133.0	118.0	109.9	102.8	97.49	90.38	83.26	79.09	75.75	75.37	72.32	70.49	66.77	60.64	54.69	49.18	43.16	35.62	29.92	29.53	31.32	20.98	13.08	9.842	8.889	7.507	6.756	5.861	6.001	10.06	22.29	41.09	255.9	 1386	 1775	176.3	4.878	2.773	2.369	2.087	1.975	1.766	1.782	1.779	1.676	1.476	1.511	1.480	1.576	1.621	1.624	1.625	1.625	1.565	1.514	1.658	1.696	1.539
490.0	276.2	308.4	345.7	 1288	 4495	 2846	321.7	227.7	207.0	196.5	198.3	199.1	196.3	188.1	177.5	163.6	155.0	142.5	129.4	117.2	104.6	95.67	91.54	85.85	79.14	73.79	69.98	67.26	65.14	64.03	63.57	59.71	54.20	48.93	44.42	38.95	32.82	26.77	22.70	25.32	25.33	17.20	10.71	8.758	7.485	6.630	5.925	5.595	5.894	8.197	12.14	60.31	351.5	 1125	 1588	597.3	13.26	2.714	2.062	1.907	1.795	1.772	1.601	1.654	1.489	1.463	1.456	1.515	1.531	1.586	1.548	1.483	1.328	1.471	1.489	1.511	1.430
495.0	230.8	283.7	301.0	518.8	 1935	 4686	857.7	206.0	181.1	173.7	177.7	176.5	169.7	167.5	154.1	144.4	133.8	124.9	113.6	101.1	88.67	82.78	79.60	75.76	69.56	64.65	61.07	59.56	58.62	57.48	56.68	52.45	47.50	43.94	38.76	35.78	29.90	24.19	19.83	18.75	21.42	21.50	13.31	8.821	7.385	6.780	5.734	5.633	5.043	4.922	5.546	16.32	81.24	256.5	737.5	 1846	254.2	16.29	2.511	2.047	1.710	1.789	1.474	1.582	1.373	1.365	1.503	1.371	1.433	1.306	1.340	1.324	1.495	1.245	1.208	1.441	1.318
500.0	215.5	249.1	282.6	329.6	704.8	 3996	 1880	217.9	168.7	161.8	160.5	159.9	155.8	147.5	139.9	132.9	120.2	111.7	102.3	90.66	81.08	74.20	70.61	66.87	63.06	57.95	55.34	52.91	52.31	51.25	50.50	47.72	43.76	39.81	35.76	31.82	27.66	22.89	18.78	15.78	16.50	19.99	16.87	9.791	7.347	6.809	5.576	5.283	5.132	4.355	4.106	6.507	20.70	60.03	176.8	959.3	 1783	230.6	9.929	2.117	1.787	1.695	1.502	1.424	1.277	1.210	1.189	1.250	1.212	1.373	1.326	1.414	1.281	1.176	1.200	1.411	1.190
505.0	186.6	225.6	265.1	264.1	341.9	 2232	 2822	374.2	153.9	146.2	146.9	144.0	139.9	134.3	128.4	116.3	111.1	103.6	92.54	82.98	73.70	67.24	63.78	60.60	56.93	53.12	49.52	48.67	47.96	46.01	45.92	43.37	39.76	35.70	33.32	29.22	25.41	21.06	17.04	15.05	13.47	15.89	18.80	12.55	7.517	6.389	5.681	4.957	4.831	4.365	4.022	4.258	7.295	15.96	42.46	243.9	 1250	 1564	183.7	4.002	1.854	1.627	1.470	1.356	1.392	1.290	1.317	1.103	0.973	1.293	1.178	1.239	1.123	1.101	1.210	1.224	1.134
510.0	166.4	177.9	232.2	237.7	234.9	747.3	 2246	 1442	220.7	126.7	128.3	126.1	123.9	118.9	112.3	102.0	95.67	89.56	79.33	70.75	64.43	59.14	54.93	52.68	48.49	45.56	42.36	41.81	40.34	40.04	39.29	37.07	34.38	31.48	29.27	25.90	21.87	18.53	15.43	13.56	11.81	11.78	14.75	15.36	9.918	6.471	5.545	4.920	4.488	4.250	3.854	3.712	4.080	6.094	11.79	56.73	316.3	951.7	 1313	476.9	12.74	1.799	1.592	1.461	1.269	1.262	1.186	1.009	1.114	1.063	1.163	1.073	1.122	1.074	1.185	1.025	1.034
515.0	152.9	163.0	191.7	222.7	195.9	288.8	852.5	 2133	939.4	114.3	109.8	109.4	105.5	102.5	97.48	88.49	83.91	77.76	67.92	61.53	55.03	50.58	47.55	44.53	42.02	39.62	36.41	35.28	35.03	34.67	33.48	31.96	29.19	27.15	24.49	22.02	19.25	16.21	14.22	12.06	10.79	9.666	10.01	13.20	12.74	7.994	5.537	5.021	4.516	3.972	3.638	3.498	3.332	3.663	4.883	14.68	72.53	215.5	538.5	 1397	257.5	15.09	1.730	1.396	1.417	1.102	1.259	1.195	0.977	1.001	1.003	1.179	1.082	1.195	1.019	0.925	0.945
520.0	141.2	152.1	161.0	208.9	182.7	174.8	310.8	 1699	 1876	153.0	100.8	99.71	94.42	94.63	86.87	79.57	74.64	67.38	61.48	54.35	49.48	44.89	42.03	39.22	37.61	35.08	32.04	30.80	31.32	30.87	30.26	28.93	26.22	24.59	21.77	19.37	17.46	14.68	12.74	11.34	10.07	8.321	8.386	9.731	12.76	10.31	6.233	4.676	3.959	3.871	3.349	3.582	3.478	2.975	3.153	5.304	18.17	49.95	127.9	705.8	 1321	218.2	6.741	1.518	1.239	1.158	1.116	1.104	1.047	0.954	0.966	0.921	1.061	1.042	0.960	0.943	0.917
525.0	126.3	134.0	146.9	181.2	175.9	134.7	154.3	891.4	 2353	293.1	90.57	89.81	85.97	83.32	79.85	70.51	67.44	60.76	55.19	49.45	43.78	40.26	37.70	35.28	33.33	31.64	29.22	28.41	27.38	27.28	26.87	26.16	23.84	21.59	19.62	17.79	15.90	13.66	11.76	10.27	8.941	8.101	7.472	7.357	10.31	11.50	7.254	4.976	3.968	3.925	3.192	3.279	3.297	2.850	2.692	3.071	5.774	13.05	30.35	176.7	867.4	 1148	33.60	2.986	1.549	1.003	1.091	1.090	1.009	0.892	1.047	0.887	1.072	0.929	0.946	0.852	0.910
530.0	118.6	117.0	129.5	147.0	163.9	126.1	108.8	303.9	 1603	 1377	153.6	79.26	76.99	72.10	69.09	63.34	58.58	54.00	47.26	42.15	37.60	35.24	33.35	31.88	29.05	26.83	25.45	24.62	23.47	23.51	23.24	22.44	20.10	18.74	17.04	15.54	13.76	12.03	10.28	8.931	7.859	7.277	6.624	6.414	6.819	9.546	9.071	6.128	3.865	3.458	3.078	3.184	3.015	2.832	2.698	2.653	3.025	4.578	8.405	41.04	216.5	671.8	885.5	363.4	11.68	1.208	1.191	0.984	1.012	0.916	0.874	0.965	0.976	0.869	0.888	0.837	0.877
535.0	99.77	101.8	114.6	117.6	132.8	119.5	91.33	125.5	567.9	 1670	699.0	71.30	69.85	62.49	60.75	56.06	50.46	46.07	41.46	35.59	32.69	29.48	28.97	28.20	25.21	23.15	22.10	20.94	20.40	20.24	20.02	19.21	17.40	15.75	14.77	13.49	12.30	10.28	9.317	7.922	7.349	6.332	6.100	5.556	5.178	6.268	8.338	7.867	4.748	3.534	2.953	2.671	2.613	2.489	2.673	2.362	2.312	2.675	3.372	10.66	49.60	152.2	352.9	 1034	252.6	13.97	1.311	0.985	0.960	0.876	0.822	0.942	0.790	0.918	0.779	0.720	0.888
540.0	105.3	103.3	104.9	109.8	113.2	119.4	83.45	81.85	190.3	 1113	 1294	132.4	60.63	56.87	55.07	49.51	44.50	41.76	37.75	32.78	28.78	26.90	25.60	24.40	21.95	20.78	19.35	18.96	18.34	18.70	17.70	17.37	15.91	14.31	12.93	11.75	10.77	9.157	8.596	7.255	6.576	5.769	5.560	5.107	4.882	4.810	6.125	8.074	5.989	3.805	2.970	2.790	2.578	2.473	2.482	2.516	2.334	2.069	2.087	3.694	12.20	35.25	83.34	503.0	988.0	208.1	6.173	1.041	0.949	0.890	0.886	0.872	0.781	0.788	0.905	0.781	0.858
545.0	102.5	91.23	93.81	97.71	101.9	103.3	84.23	66.72	86.96	523.6	 1461	443.0	53.92	51.67	48.77	44.93	40.32	37.84	34.82	29.00	26.22	24.69	22.86	22.07	20.52	19.04	17.69	16.93	16.50	16.44	15.81	15.34	13.97	13.14	11.84	10.52	10.07	8.524	7.600	6.648	5.911	5.537	5.005	4.680	4.591	4.259	4.468	6.754	6.777	4.563	2.971	2.651	2.463	2.434	2.209	2.343	2.367	1.987	1.817	2.068	4.064	8.979	19.84	124.7	615.8	854.3	34.31	2.586	1.157	1.038	0.796	0.798	0.775	0.782	0.884	0.809	0.822
550.0	87.85	87.40	91.84	89.35	87.28	84.60	86.33	61.57	60.47	174.2	876.9	 1079	122.0	46.25	42.30	38.82	35.60	32.43	29.12	25.77	23.54	21.46	19.78	19.04	17.40	16.36	15.12	14.43	14.37	13.98	13.48	13.13	12.41	11.28	10.09	9.552	8.652	7.540	6.669	6.136	5.625	4.751	4.512	4.199	4.018	3.751	3.666	4.518	6.015	5.721	3.715	2.645	2.199	2.242	2.070	2.044	2.145	1.893	1.799	1.755	2.181	3.209	5.548	29.06	151.9	472.0	650.7	148.9	11.31	1.262	0.838	0.759	0.816	0.705	0.872	0.695	0.765
555.0	86.42	76.17	78.53	74.51	72.17	66.42	74.88	63.71	48.12	73.71	289.1	 1038	671.4	46.74	37.12	33.00	30.57	26.86	24.52	22.76	19.86	17.78	16.60	15.88	14.97	13.78	12.65	12.23	12.24	11.99	11.25	11.23	10.62	9.191	8.869	7.875	6.999	6.296	5.762	5.218	4.911	4.422	3.940	3.712	3.816	3.443	3.090	3.176	4.059	5.344	4.650	3.121	2.111	1.979	1.927	1.839	1.957	1.769	1.837	1.810	1.492	1.652	2.219	7.495	34.81	106.7	242.4	666.6	246.5	12.72	0.967	0.832	0.930	0.795	0.813	0.701	0.836
560.0	91.35	70.65	70.07	67.50	60.35	54.45	59.71	64.75	43.17	47.39	99.88	629.4	 1088	114.6	32.52	29.33	27.47	24.34	22.42	20.12	16.46	16.41	15.01	14.25	13.41	12.22	11.23	10.80	10.56	10.41	10.01	9.592	9.065	8.300	7.580	6.892	6.367	5.684	4.996	4.729	4.263	3.934	3.236	3.306	3.529	3.146	2.689	2.791	2.834	3.866	4.753	3.498	2.203	1.866	2.052	1.729	1.766	1.728	1.810	1.646	1.318	1.246	1.435	2.694	8.757	24.83	56.95	307.9	671.2	185.1	4.948	0.887	0.941	0.865	0.811	0.691	0.621
565.0	86.06	74.71	72.60	63.35	53.98	50.93	49.76	60.51	46.24	40.64	50.39	276.8	 1055	436.0	31.70	27.20	23.44	21.52	19.56	17.17	14.88	14.03	13.15	12.79	11.80	10.49	10.20	9.218	9.183	8.941	8.854	8.559	8.174	7.114	6.588	6.004	5.585	5.149	4.269	4.283	4.052	3.617	3.187	2.906	2.934	2.923	2.529	2.393	2.327	2.805	3.912	3.840	2.489	2.000	1.770	1.504	1.654	1.656	1.537	1.696	1.245	1.271	1.207	1.535	2.922	6.471	13.81	75.18	383.7	581.0	33.85	2.245	0.947	0.711	0.825	0.775	0.625
570.0	75.56	66.24	60.92	55.61	47.70	44.34	39.29	48.11	49.73	36.46	36.12	93.41	549.1	859.3	97.08	23.53	19.74	18.64	15.95	14.42	12.58	11.78	11.03	10.11	9.732	8.883	8.265	7.825	7.623	7.457	7.376	6.890	6.368	5.863	5.523	4.903	4.397	4.261	3.800	3.399	3.173	3.104	2.834	2.666	2.556	2.439	2.319	2.157	2.048	2.000	2.567	3.355	2.978	2.117	1.647	1.435	1.561	1.501	1.456	1.532	1.311	1.284	1.217	1.245	1.529	2.332	4.011	17.68	93.30	297.0	393.2	146.1	9.310	0.887	0.737	0.700	0.647
575.0	74.70	62.75	50.07	48.82	41.12	37.15	32.53	36.70	49.43	42.15	31.75	45.10	173.7	675.4	590.7	27.79	18.15	14.92	13.29	11.13	10.36	9.233	8.888	8.739	7.721	7.115	7.022	6.208	6.010	5.864	6.094	5.536	5.294	4.971	4.383	4.052	3.660	3.504	3.236	2.795	2.657	2.360	2.408	2.301	2.212	1.924	1.925	1.802	1.727	1.602	1.710	2.165	2.786	2.386	1.595	1.277	1.203	1.315	1.324	1.520	1.229	1.379	1.316	1.191	1.108	1.321	1.782	4.785	21.57	67.01	138.5	471.8	199.9	8.505	0.898	0.743	0.647
580.0	64.49	56.54	50.40	39.46	37.14	34.81	28.53	31.04	43.20	44.33	31.95	33.40	61.80	371.5	854.2	98.08	15.84	13.08	11.72	9.556	8.784	8.581	7.811	7.429	6.285	5.887	5.595	5.575	4.968	4.962	4.828	4.735	4.514	4.044	3.969	3.560	3.169	3.093	2.789	2.709	2.343	2.074	1.776	1.937	1.953	1.658	1.739	1.559	1.510	1.385	1.452	1.665	2.190	2.506	1.913	1.278	1.093	1.234	1.097	1.089	1.045	1.215	1.167	1.169	1.115	1.229	1.235	1.942	5.593	15.71	32.48	214.6	388.2	36.47	3.477	0.712	0.529
585.0	58.73	56.23	46.63	39.29	35.26	32.48	30.24	27.95	39.64	48.46	34.93	30.74	35.57	154.1	716.9	430.1	15.16	12.01	10.11	8.796	8.537	7.090	6.680	6.138	5.525	5.082	4.991	4.728	4.609	4.463	4.573	4.146	3.704	3.468	3.318	3.127	2.871	2.565	2.453	2.336	2.114	1.892	1.733	1.922	1.667	1.579	1.440	1.514	1.333	1.300	1.220	1.172	1.605	2.008	2.024	1.410	1.220	1.081	1.057	1.099	1.013	1.136	1.087	1.251	1.213	1.006	1.160	1.268	2.013	4.181	8.143	52.61	211.6	284.4	31.70	1.489	0.768
590.0	65.61	50.18	47.73	37.83	32.02	32.08	30.16	29.54	36.12	50.41	49.15	35.78	32.17	57.65	334.2	704.7	143.8	11.22	8.697	7.505	7.063	5.938	5.699	5.202	5.102	4.361	4.229	4.073	3.828	3.671	3.722	3.294	3.116	2.972	2.954	2.584	2.496	2.095	2.128	1.999	1.878	1.659	1.559	1.477	1.494	1.357	1.253	1.353	1.162	1.078	1.098	1.097	1.206	1.530	1.940	1.857	1.385	1.095	1.104	1.017	0.960	0.965	1.089	1.218	1.149	0.907	1.083	0.948	1.139	1.599	2.522	12.42	51.01	150.4	219.1	97.79	7.684
595.0	66.04	53.30	50.56	38.63	38.30	35.88	38.52	39.27	46.81	55.64	66.70	52.46	45.07	41.63	108.6	459.1	530.0	22.33	7.964	6.361	5.735	5.076	5.168	4.136	4.112	3.707	3.491	3.336	3.120	3.222	3.307	2.558	2.592	2.806	2.279	2.085	2.163	1.915	1.822	1.568	1.505	1.607	1.381	1.280	1.340	1.271	1.128	1.213	1.010	0.929	0.991	1.009	0.903	1.111	1.390	1.746	1.473	1.166	1.117	0.986	0.906	1.045	1.169	0.992	1.071	0.993	0.822	0.982	1.000	1.085	1.186	3.382	11.93	34.19	73.60	207.5	126.2
600.0	71.19	63.92	53.50	43.62	42.14	44.13	49.83	55.20	65.78	76.31	95.87	90.93	76.50	58.35	65.02	243.1	692.6	86.67	9.017	5.846	5.307	4.576	4.117	4.079	3.682	3.222	2.953	3.158	2.851	2.819	2.691	2.366	2.180	2.253	2.069	1.963	1.926	1.829	1.699	1.452	1.483	1.379	1.370	1.223	1.245	1.127	1.115	0.975	0.902	1.060	0.904	0.996	0.894	1.051	1.113	1.405	1.609	1.423	1.178	1.030	0.930	1.029	1.119	1.147	1.145	1.283	1.184	1.076	1.163	1.026	1.042	1.431	3.312	8.276	17.55	87.99	228.5
605.0	77.97	75.31	61.49	52.95	51.25	56.86	70.14	81.92	104.9	128.4	149.5	161.4	133.6	105.4	93.43	140.3	565.3	398.7	13.81	6.067	4.588	4.097	3.542	3.790	3.202	2.958	2.690	2.833	2.658	2.378	2.250	2.184	2.227	2.048	1.795	1.966	1.732	1.731	1.434	1.405	1.388	1.408	1.330	1.189	1.210	1.049	1.214	0.984	1.071	1.041	0.848	0.883	0.869	1.061	0.940	1.268	1.581	1.543	1.234	1.116	1.052	1.273	1.215	1.186	1.296	1.527	1.538	1.342	1.463	1.227	1.171	1.140	1.652	2.601	4.777	21.86	120.0
610.0	95.35	91.64	75.34	59.70	60.42	68.18	91.40	111.5	145.7	179.6	204.1	223.4	197.7	156.0	136.2	125.0	311.1	611.3	141.9	6.107	4.286	3.732	3.358	3.101	2.598	2.698	2.397	2.464	2.342	2.260	2.176	2.015	1.888	1.783	1.622	1.598	1.506	1.590	1.395	1.327	1.275	1.096	1.201	1.102	1.027	1.066	1.110	1.024	0.952	0.886	0.773	0.909	0.862	0.978	0.865	1.052	1.376	1.583	1.504	1.239	1.282	1.398	1.491	1.467	1.666	1.623	1.796	1.780	1.651	1.511	1.405	1.310	1.456	1.604	2.116	5.783	29.45
615.0	98.03	103.8	76.30	63.34	61.94	77.96	97.18	115.0	149.1	185.3	209.8	228.0	212.3	163.5	143.7	119.2	163.2	390.1	464.5	16.75	4.014	3.692	2.766	2.886	2.346	2.274	2.065	1.911	1.926	2.076	1.814	1.738	1.725	1.552	1.733	1.432	1.333	1.324	1.373	1.291	1.223	1.018	1.031	0.976	0.998	1.098	0.947	0.954	0.941	0.871	0.789	0.872	0.818	0.903	0.916	0.936	1.074	1.388	1.691	1.409	1.477	1.421	1.397	1.545	1.524	1.815	1.636	1.659	1.945	1.574	1.490	1.589	1.403	1.423	1.389	2.258	7.574
620.0	92.92	109.4	81.55	72.05	65.55	78.67	99.57	115.2	142.3	175.5	205.0	221.2	215.7	170.4	146.1	115.5	123.3	210.5	559.4	73.37	4.020	3.332	2.470	2.529	2.252	1.988	2.004	1.863	1.983	1.703	1.635	1.683	1.531	1.409	1.475	1.286	1.298	1.307	1.270	1.194	1.148	0.943	0.912	0.755	1.144	0.908	0.914	0.956	0.862	0.873	0.892	0.752	0.876	0.862	0.847	0.940	0.946	1.284	1.494	1.267	1.302	1.320	1.343	1.383	1.420	1.720	1.616	1.753	1.740	1.621	1.330	1.274	1.237	1.223	1.152	1.385	2.698
625.0	91.92	98.94	91.46	71.10	65.49	79.55	96.98	112.6	140.1	173.7	198.9	223.3	216.9	177.4	149.3	117.2	113.2	118.8	388.3	346.1	6.483	3.231	2.766	2.467	2.145	1.813	1.758	1.715	1.687	1.567	1.557	1.400	1.400	1.474	1.490	1.126	1.083	1.166	1.102	1.147	1.059	0.912	0.976	0.815	0.959	0.850	0.865	0.907	0.804	0.792	0.810	0.845	0.765	0.817	0.769	0.902	1.072	1.161	1.213	1.503	1.417	1.177	1.330	1.334	1.412	1.509	1.448	1.765	1.753	1.537	1.491	1.525	1.355	1.357	1.151	1.220	1.584
630.0	102.9	111.3	96.75	77.77	72.00	80.87	100.2	116.2	137.8	173.8	197.7	219.3	214.6	186.8	154.6	118.7	109.6	85.72	156.8	466.8	128.3	3.353	2.603	2.279	1.905	1.476	1.785	1.355	1.542	1.388	1.356	1.268	1.388	1.242	1.214	1.143	1.058	1.082	1.078	1.161	1.118	0.952	0.841	0.912	0.938	0.848	0.832	0.909	0.843	0.831	0.754	0.788	0.837	0.842	0.910	0.907	0.961	1.006	1.097	1.348	1.396	1.314	1.354	1.436	1.458	1.559	1.659	1.680	1.683	1.569	1.591	1.533	1.437	1.289	1.169	1.178	1.268
635.0	127.6	125.9	100.5	72.91	75.15	79.08	98.58	116.6	136.8	168.0	196.6	217.0	210.9	190.0	160.7	122.0	111.7	78.70	52.02	236.8	423.0	14.80	2.449	2.135	1.709	1.464	1.697	1.465	1.306	1.465	1.131	1.360	1.193	1.053	1.084	1.202	1.018	0.947	1.002	0.986	0.943	0.977	0.952	0.899	1.013	0.789	0.870	0.833	0.818	0.826	0.637	0.813	0.718	0.737	0.967	0.962	0.885	1.160	0.940	1.113	1.222	1.392	1.335	1.361	1.621	1.551	1.508	1.749	1.596	1.562	1.564	1.610	1.638	1.236	1.191	1.121	1.155
640.0	139.7	133.9	113.6	71.74	73.69	77.03	97.49	112.5	132.8	158.9	193.0	208.5	204.1	180.4	158.2	118.0	107.5	73.24	26.90	94.21	484.5	64.55	2.180	1.989	1.662	1.737	1.753	1.447	1.285	1.325	1.458	1.063	1.321	1.216	1.026	0.989	1.010	0.931	0.802	0.897	1.041	0.952	0.887	0.882	0.933	0.732	0.834	0.822	0.828	0.792	0.721	0.701	0.776	0.741	0.825	0.860	0.898	1.014	1.026	1.087	1.170	1.414	1.178	1.312	1.497	1.379	1.433	1.543	1.525	1.502	1.467	1.466	1.242	1.170	1.314	1.216	1.130
645.0	130.0	149.5	109.3	77.61	69.00	75.48	92.51	107.1	124.5	150.5	178.3	195.2	193.7	170.7	154.8	113.2	102.2	68.40	20.67	34.04	312.3	298.7	4.585	1.885	1.652	1.511	1.425	1.331	1.334	1.067	1.211	1.177	1.073	1.206	0.916	0.945	1.040	0.954	0.764	0.898	0.851	0.943	0.996	1.000	0.862	0.785	0.859	0.832	0.903	0.854	0.704	0.751	0.699	0.726	0.815	0.828	0.888	0.922	1.039	1.021	1.191	1.165	1.315	1.147	1.258	1.415	1.374	1.445	1.580	1.460	1.418	1.358	1.366	1.332	1.181	1.056	0.892
650.0	139.5	148.7	120.0	79.44	67.62	66.40	85.44	98.40	113.8	137.7	161.7	181.7	179.8	159.7	144.2	107.4	91.63	62.63	19.51	14.31	135.0	437.6	38.37	2.027	1.714	1.355	1.489	1.406	1.245	1.094	0.933	1.226	0.910	1.058	0.933	1.004	1.006	0.994	0.886	0.781	0.778	0.787	0.876	0.902	0.798	0.783	0.905	0.844	0.845	0.788	0.690	0.671	0.731	0.761	0.721	0.892	0.898	0.916	0.966	1.050	1.087	1.101	1.203	1.388	1.291	1.415	1.279	1.402	1.446	1.448	1.411	1.298	1.415	1.208	1.145	0.957	1.000
