Sample:	'1
File name:	Default_20230225_104517.FD3
Run date:	'10:38:55, 02/25/2023
Operator:	dsjg
Comment:	'

Instrument
Model:	F-2700 FL Spectrophotometer
Serial number:	2198-001
ROM Version:	4J14000 07

Instrument parameters
Measurement type:	3-D scan
Data mode:	Fluorescence
EX  Start WL:	220.0 nm
EX  End WL:	600.0 nm
EX Sampling interval:	5.0 nm
EM  Start WL:	230.0 nm
EM  End WL:	650.0 nm
EM Sampling interval:	5.0 nm
Scan speed:	12000 nm/min
EX Slit:	5.0 nm
EM Slit:	5.0 nm
PMT Voltage:	700 V
Response:	Auto 
Corrected spectra:	Off
Contour interval:	50.000

Peak integration
Integration method:	Rectangular
Sensitivity:	1
Threshold:	1.000

Peaks
No.	ApexEX/EM(nm)	Height(Data)
1	235.0/260.0	89.70
2	240.0/265.0	107.2
3	240.0/405.0	 1054
4	245.0/270.0	114.4
5	270.0/595.0	117.0
6	275.0/345.0	 2642
7	275.0/605.0	113.5
8	325.0/255.0	1.993
9	455.0/345.0	7.124
10	555.0/340.0	12.19
11	560.0/350.0	12.13

Data points
	220.0	225.0	230.0	235.0	240.0	245.0	250.0	255.0	260.0	265.0	270.0	275.0	280.0	285.0	290.0	295.0	300.0	305.0	310.0	315.0	320.0	325.0	330.0	335.0	340.0	345.0	350.0	355.0	360.0	365.0	370.0	375.0	380.0	385.0	390.0	395.0	400.0	405.0	410.0	415.0	420.0	425.0	430.0	435.0	440.0	445.0	450.0	455.0	460.0	465.0	470.0	475.0	480.0	485.0	490.0	495.0	500.0	505.0	510.0	515.0	520.0	525.0	530.0	535.0	540.0	545.0	550.0	555.0	560.0	565.0	570.0	575.0	580.0	585.0	590.0	595.0	600.0
230.0	36.48	422.2	582.4	105.0	3.103	1.606	1.551	1.683	1.520	1.722	1.838	1.916	1.739	1.466	1.117	0.902	0.784	0.679	0.672	0.601	0.540	0.570	0.557	0.555	0.497	0.404	0.430	0.336	0.364	0.337	0.293	0.258	0.245	0.236	0.192	0.310	0.326	0.273	0.246	0.222	0.218	0.314	0.294	0.200	0.174	0.150	0.327	1.306	2.509	2.208	0.925	0.214	0.098	0.108	0.087	0.069	0.081	0.075	0.065	0.073	0.057	0.055	0.053	0.056	0.055	0.041	0.058	0.052	0.054	0.044	0.041	0.039	0.037	0.050	0.033	0.045	0.035
235.0	32.24	129.6	471.1	517.8	143.1	3.239	1.704	1.807	2.095	1.914	2.055	1.991	1.705	1.629	1.039	0.913	0.794	0.702	0.714	0.611	0.640	0.510	0.574	0.624	0.468	0.486	0.364	0.318	0.344	0.298	0.300	0.240	0.178	0.223	0.148	0.251	0.277	0.304	0.260	0.232	0.245	0.242	0.292	0.292	0.233	0.205	0.194	0.421	0.886	1.494	2.299	2.546	1.563	0.388	0.092	0.070	0.108	0.076	0.069	0.045	0.045	0.058	0.051	0.064	0.057	0.051	0.062	0.067	0.056	0.052	0.039	0.038	0.042	0.057	0.040	0.058	0.043
240.0	48.30	44.28	175.2	658.7	448.7	107.6	2.981	2.196	2.279	2.225	2.379	2.323	1.767	1.360	1.267	1.033	0.797	0.826	0.614	0.590	0.655	0.542	0.527	0.535	0.459	0.535	0.442	0.447	0.346	0.295	0.363	0.235	0.194	0.203	0.196	0.268	0.235	0.291	0.266	0.303	0.275	0.222	0.187	0.212	0.283	0.288	0.245	0.214	0.350	0.472	1.086	2.780	3.981	3.106	1.214	0.225	0.107	0.087	0.078	0.054	0.046	0.056	0.048	0.059	0.039	0.056	0.049	0.033	0.076	0.038	0.056	0.034	0.027	0.061	0.070	0.049	0.068
245.0	47.07	48.14	50.42	306.1	883.9	380.4	68.54	3.010	2.231	2.136	2.414	2.426	2.093	1.685	1.450	1.021	0.904	0.756	0.672	0.671	0.545	0.744	0.528	0.623	0.455	0.483	0.469	0.413	0.312	0.306	0.336	0.240	0.206	0.220	0.192	0.190	0.164	0.200	0.270	0.314	0.266	0.223	0.208	0.156	0.195	0.282	0.317	0.300	0.219	0.214	0.342	0.964	2.378	4.467	5.208	3.097	0.829	0.134	0.081	0.066	0.063	0.075	0.062	0.068	0.036	0.075	0.056	0.045	0.068	0.050	0.054	0.028	0.053	0.024	0.049	0.038	0.074
250.0	22.34	50.19	57.51	87.04	378.9	888.8	807.4	141.8	10.55	2.692	2.480	2.702	1.979	1.814	1.499	1.109	0.941	0.796	0.737	0.748	0.574	1.486	0.529	0.583	0.478	0.511	0.402	0.414	0.362	0.321	0.312	0.269	0.206	0.239	0.179	0.199	0.202	0.171	0.205	0.253	0.274	0.245	0.204	0.179	0.178	0.218	0.208	0.309	0.331	0.291	0.270	0.329	0.667	1.477	3.019	4.736	6.124	5.319	3.163	0.911	0.102	0.093	0.066	0.080	0.072	0.070	0.067	0.043	0.044	0.051	0.062	0.030	0.041	0.031	0.055	0.043	0.055
255.0	8.738	18.91	63.63	82.13	100.0	278.0	 1029	 1465	198.7	10.36	3.413	3.210	2.171	2.326	1.572	1.291	1.067	0.827	0.858	0.815	0.822	1.993	0.615	0.654	0.537	0.562	0.431	0.458	0.385	0.373	0.286	0.284	0.309	0.268	0.230	0.205	0.186	0.145	0.139	0.184	0.272	0.301	0.225	0.216	0.180	0.167	0.184	0.218	0.254	0.304	0.413	0.518	0.341	0.435	0.777	1.249	2.499	5.255	9.080	9.187	4.980	0.897	0.086	0.076	0.077	0.074	0.074	0.048	0.049	0.034	0.054	0.032	0.027	0.037	0.053	0.037	0.063
260.0	5.657	9.598	31.04	89.70	74.26	73.47	399.3	 1533	 1488	154.2	6.209	3.650	3.027	2.490	1.986	1.208	0.958	0.915	0.794	0.768	0.689	1.435	0.640	0.641	0.555	0.496	0.492	0.469	0.398	0.321	0.275	0.346	0.247	0.270	0.201	0.205	0.187	0.188	0.180	0.135	0.188	0.267	0.229	0.197	0.263	0.191	0.196	0.167	0.198	0.177	0.283	0.537	0.572	0.393	0.318	0.416	0.668	1.590	4.269	9.069	12.01	9.404	3.434	0.463	0.099	0.108	0.069	0.078	0.045	0.078	0.037	0.030	0.041	0.062	0.067	0.025	0.039
265.0	10.94	7.427	12.74	55.02	107.2	56.60	105.7	653.3	 1919	 1310	116.5	5.385	3.681	2.572	1.876	1.502	1.042	1.041	0.782	0.885	0.827	0.876	0.665	0.613	0.604	0.586	0.504	0.508	0.407	0.351	0.288	0.338	0.301	0.244	0.214	0.236	0.218	0.221	0.225	0.164	0.192	0.346	0.265	0.259	0.229	0.280	0.215	0.265	0.158	0.196	0.157	0.316	0.558	0.702	0.548	0.258	0.279	0.500	1.085	2.877	6.852	12.56	13.62	7.489	1.840	0.186	0.117	0.080	0.087	0.065	0.056	0.045	0.081	0.065	0.046	0.060	0.025
270.0	46.61	28.60	18.50	23.61	72.43	114.4	91.24	188.5	732.1	 1643	 1649	503.7	25.21	3.360	2.439	1.661	1.408	1.186	1.004	0.920	0.829	0.872	0.714	0.646	0.637	0.567	0.520	0.463	0.420	0.383	0.361	0.344	0.272	0.254	0.275	0.250	0.322	0.537	0.349	0.359	0.356	0.414	0.398	0.390	0.374	0.345	0.267	0.302	0.263	0.193	0.185	0.212	0.256	0.430	0.546	0.625	0.633	0.473	0.488	0.818	1.802	3.931	7.107	10.35	11.98	10.51	6.006	1.776	0.200	0.091	0.072	0.055	0.077	0.078	0.049	0.074	0.037
275.0	124.3	79.18	45.03	24.00	36.31	91.91	167.7	150.3	233.1	514.8	 1462	 2283	717.3	21.40	3.367	2.254	1.643	1.395	1.036	0.867	1.044	0.749	0.726	0.683	0.636	0.586	0.495	0.476	0.416	0.427	0.376	0.332	0.288	0.234	0.383	0.376	0.408	0.883	0.492	0.657	0.672	0.692	0.631	0.612	0.667	0.523	0.491	0.531	0.618	0.304	0.195	0.179	0.206	0.244	0.308	0.428	0.731	1.113	1.025	0.615	0.805	1.235	1.977	2.791	4.139	8.530	14.61	16.02	8.479	1.466	0.138	0.135	0.101	0.071	0.069	0.056	0.035
280.0	216.2	145.9	84.75	39.56	38.36	69.08	169.6	235.7	203.6	256.4	606.6	 1913	 2319	114.5	10.52	2.922	2.039	1.479	1.171	0.907	1.135	1.003	0.833	0.749	0.746	0.584	0.599	0.464	0.418	0.445	0.436	0.353	0.292	0.314	0.417	0.478	0.525	0.986	0.653	0.748	0.917	0.875	0.927	0.871	0.854	0.887	0.749	0.763	0.920	0.381	0.271	0.244	0.205	0.210	0.298	0.324	0.566	0.941	1.219	1.326	1.085	1.004	1.152	1.336	1.651	2.755	6.336	13.11	18.23	13.64	4.811	0.490	0.108	0.100	0.079	0.093	0.084
285.0	362.5	245.7	142.6	64.67	49.42	71.10	145.2	291.3	343.0	339.0	436.3	948.5	 2271	 2041	87.68	5.303	2.777	1.897	1.414	1.158	1.285	0.994	0.943	0.794	0.726	0.705	0.534	0.527	0.474	0.400	0.439	0.379	0.420	0.361	0.472	0.621	0.792	1.052	0.940	1.147	1.150	1.135	1.233	1.286	1.156	1.244	1.080	1.059	1.124	0.623	0.448	0.287	0.269	0.339	0.295	0.319	0.542	0.700	1.023	1.571	1.834	1.804	1.639	1.620	1.865	2.002	2.932	4.991	9.859	15.92	17.62	10.76	2.420	0.179	0.102	0.091	0.079
290.0	599.4	447.9	264.3	122.7	86.85	108.9	186.1	341.3	561.2	721.6	780.0	866.4	 1198	 1861	 1901	349.3	19.58	2.581	1.726	1.594	1.387	1.148	1.055	0.941	0.836	0.760	0.623	0.617	0.527	0.457	0.459	0.431	0.402	0.404	0.573	0.945	1.087	1.225	1.168	1.379	1.463	1.644	1.635	1.720	1.752	1.830	1.766	1.672	1.510	0.991	0.712	0.560	0.433	0.437	0.487	0.547	0.760	0.873	1.166	1.611	2.206	2.796	3.353	3.683	3.595	3.431	3.856	4.204	4.980	6.545	9.393	13.04	15.00	12.98	6.830	1.764	0.211
295.0	841.7	670.1	388.3	189.4	132.4	163.1	261.1	434.2	704.2	 1080	 1311	 1254	 1065	878.3	 1288	 2251	522.1	17.88	2.674	1.814	1.587	1.487	1.097	1.019	1.024	0.799	0.736	0.589	0.572	0.619	0.520	0.419	0.379	0.500	0.738	1.105	1.340	1.540	1.628	1.877	1.733	1.991	2.150	2.450	2.299	2.590	2.315	2.240	1.980	1.405	1.009	0.838	0.689	0.643	0.628	0.785	1.000	1.171	1.590	1.915	2.607	3.274	4.359	5.353	6.144	6.001	5.727	5.658	5.342	4.782	4.639	4.433	5.641	10.22	18.82	22.19	8.909
300.0	981.8	779.7	464.7	236.7	180.8	202.2	311.0	515.0	819.6	 1233	 1617	 1587	 1208	729.3	568.3	 1575	 2373	382.0	7.365	2.363	1.602	1.601	1.368	1.183	0.963	0.897	0.782	0.698	0.652	0.665	0.613	0.441	0.425	0.465	0.803	1.241	1.489	1.503	1.753	1.866	1.955	2.237	2.489	2.599	2.764	2.816	2.856	2.647	2.444	1.622	1.157	0.965	0.836	0.769	0.772	0.942	1.200	1.417	1.867	2.357	3.133	3.898	4.848	5.922	7.030	7.784	7.871	7.079	6.364	5.341	4.224	2.955	2.405	3.446	8.017	18.48	24.04
305.0	 1064	835.2	520.6	265.3	204.4	244.4	360.7	584.5	910.0	 1325	 1745	 1864	 1423	813.3	404.7	637.9	 1931	 2206	57.21	3.865	2.223	1.722	1.604	1.206	1.074	0.970	0.810	0.818	0.710	0.701	0.587	0.500	0.401	0.544	0.812	1.268	1.636	1.562	1.899	1.820	1.983	2.282	2.536	2.661	2.886	3.002	3.007	2.949	2.583	1.695	1.346	1.157	0.925	0.856	0.977	0.983	1.324	1.655	2.087	2.685	3.401	4.352	5.278	6.583	7.721	8.135	9.060	9.059	7.513	5.993	4.571	3.308	2.049	1.799	2.666	6.073	12.49
310.0	 1078	864.5	540.8	301.0	243.1	277.2	414.6	633.7	977.4	 1394	 1760	 1918	 1661	 1004	481.5	338.9	695.6	 1619	 1866	665.9	14.88	2.489	1.851	1.359	1.327	1.060	0.911	0.843	0.782	0.678	0.603	0.566	0.421	0.580	0.848	1.250	1.524	1.524	1.805	1.887	1.960	2.151	2.492	2.508	2.984	3.165	3.119	2.933	2.435	1.723	1.305	1.224	1.050	0.989	1.050	1.258	1.477	2.005	2.303	3.003	3.630	4.465	5.722	6.960	7.680	8.387	8.853	9.341	8.713	7.284	5.556	3.919	2.655	1.856	1.748	2.256	3.675
315.0	 1115	922.5	578.9	334.2	284.1	319.9	467.3	696.1	 1043	 1442	 1796	 1936	 1758	 1279	681.5	375.2	333.5	484.3	 1053	 2332	384.8	13.04	2.740	1.965	1.655	1.261	1.097	0.925	0.762	0.757	0.663	0.464	0.546	0.568	0.816	1.223	1.512	1.513	1.734	1.828	1.762	2.139	2.447	2.659	3.086	3.403	3.084	3.106	2.501	1.828	1.360	1.304	1.244	1.151	1.250	1.408	1.780	2.235	2.694	3.319	3.932	4.809	6.128	7.290	7.966	8.495	8.696	8.920	8.463	8.034	7.394	5.455	3.838	2.621	2.078	1.789	2.001
320.0	 1339	 1078	702.7	393.0	332.5	382.5	535.6	789.1	 1146	 1561	 1914	 2035	 1875	 1468	886.2	489.6	315.0	239.0	358.4	 1448	 2227	291.3	6.782	2.518	1.947	1.440	1.179	1.075	0.817	0.785	0.626	0.586	0.529	0.513	0.717	1.097	1.888	1.586	1.656	1.906	2.112	2.138	2.574	3.128	3.394	4.084	3.911	4.094	3.315	2.204	1.530	1.350	1.346	1.428	1.446	1.645	2.004	2.457	3.127	3.765	4.415	5.423	6.565	7.591	8.099	9.109	9.432	9.456	8.874	8.213	7.641	6.578	5.440	3.711	2.743	2.177	1.843
325.0	 1662	 1510	927.9	485.6	390.0	439.9	625.8	884.6	 1263	 1697	 2051	 2193	 2016	 1622	 1150	659.5	371.6	221.9	169.2	484.3	 1779	 1986	46.39	3.904	2.227	1.720	1.399	1.258	0.877	0.984	0.734	0.656	0.532	0.612	0.725	1.052	2.438	1.516	1.637	1.916	2.236	2.530	2.855	3.443	3.930	5.018	4.899	5.261	4.354	2.861	1.809	1.784	1.436	1.531	1.797	1.931	2.314	2.813	3.620	4.144	5.048	6.015	7.215	8.163	8.752	9.658	9.776	10.08	9.615	8.918	7.966	7.221	6.701	5.265	3.970	2.881	2.264
330.0	 1824	 1738	 1111	603.5	476.1	516.1	710.2	999.1	 1392	 1832	 2189	 2338	 2197	 1807	 1308	855.3	505.8	271.9	162.9	186.0	554.8	 1476	 1835	634.2	13.49	2.387	1.753	1.344	1.132	1.066	0.867	0.789	0.617	0.601	0.690	0.983	2.410	1.421	1.672	1.872	2.251	2.550	3.154	3.806	4.492	5.204	5.329	5.918	4.978	3.417	2.372	2.174	1.877	1.862	1.910	2.249	2.672	3.225	3.810	4.586	5.752	6.598	7.764	8.897	9.621	10.25	10.45	10.55	10.37	9.778	8.947	8.119	7.104	5.902	5.026	3.966	3.123
335.0	 2062	 1988	 1286	719.0	574.9	597.4	808.9	 1131	 1537	 2000	 2381	 2515	 2411	 2046	 1486	944.8	667.6	376.8	208.4	152.4	201.4	398.2	 1023	 2364	327.5	14.00	2.566	1.854	1.427	1.112	0.927	0.941	0.695	0.670	0.694	0.931	1.692	1.524	1.666	1.896	2.321	2.798	3.419	3.979	4.935	6.069	6.100	6.691	5.850	3.843	2.928	2.736	2.346	2.250	2.185	2.507	2.893	3.639	4.293	5.270	6.443	7.044	8.377	9.326	10.36	10.88	11.03	11.34	11.90	10.76	9.872	9.239	8.131	6.450	5.072	4.388	4.044
340.0	 2203	 2106	 1404	801.2	635.5	663.0	877.1	 1205	 1630	 2092	 2474	 2620	 2534	 2191	 1606	 1003	690.1	480.0	262.5	171.4	143.4	156.8	315.6	 1478	 2237	261.4	5.934	2.194	1.812	1.360	1.137	0.958	0.770	0.730	0.788	0.960	1.280	1.540	1.658	1.980	2.226	2.767	3.584	4.212	5.369	6.314	6.631	7.114	6.060	4.209	3.028	3.126	2.689	2.465	2.631	2.866	3.432	3.856	4.871	5.843	6.664	7.738	8.718	9.893	10.74	11.28	11.53	12.19	12.00	11.57	10.57	10.12	8.644	6.820	5.514	4.706	4.043
345.0	 2141	 2074	 1409	830.2	692.0	700.3	915.5	 1236	 1671	 2126	 2494	 2642	 2579	 2252	 1668	 1036	683.0	518.5	350.2	206.1	154.7	124.3	133.0	468.2	 1869	 1940	40.75	4.047	2.306	1.583	1.198	1.078	0.794	0.705	0.820	0.933	1.114	1.472	1.727	1.988	2.217	3.027	3.573	4.365	5.182	6.198	6.410	7.124	5.949	4.354	3.320	3.335	2.862	2.662	2.687	2.851	3.474	4.070	4.898	5.621	6.584	7.519	8.792	10.05	10.85	11.69	11.74	11.87	11.96	11.73	10.78	10.38	9.053	6.936	5.649	4.765	4.018
350.0	 2045	 1949	 1316	846.9	726.9	732.0	925.3	 1246	 1674	 2104	 2455	 2615	 2562	 2259	 1694	 1070	698.0	509.4	426.4	315.9	211.5	161.9	133.8	182.2	567.3	 1491	 1758	595.0	13.42	2.387	1.545	1.253	0.920	0.826	0.808	0.914	1.136	1.409	1.678	1.928	2.249	2.744	3.310	4.118	4.886	5.833	6.164	6.392	5.449	4.081	3.230	3.260	2.952	2.826	2.806	3.056	3.361	4.130	4.946	5.695	6.899	7.913	8.796	9.697	10.76	11.56	11.34	11.62	12.13	11.63	10.73	10.39	9.127	7.347	5.815	4.951	4.103
355.0	 1921	 1815	 1267	857.7	765.2	758.6	947.2	 1253	 1656	 2052	 2397	 2549	 2506	 2236	 1706	 1092	739.4	544.2	452.7	425.1	331.8	237.2	196.1	170.7	219.1	408.4	980.3	 2244	309.5	14.81	2.296	1.620	1.210	0.870	0.841	0.960	1.237	1.369	1.508	2.010	2.091	2.675	3.211	3.787	4.679	5.681	5.796	5.948	5.175	3.936	3.192	3.256	2.867	2.842	3.005	3.148	3.474	4.295	4.873	5.774	7.086	7.768	8.663	9.818	10.58	11.01	11.12	11.47	11.42	11.00	10.47	10.40	9.078	7.755	5.992	5.225	4.497
360.0	 1817	 1689	 1198	853.4	776.3	780.0	962.0	 1223	 1604	 1995	 2315	 2478	 2427	 2190	 1690	 1113	776.8	593.4	494.3	458.2	437.7	324.2	262.2	211.5	174.6	178.1	310.2	 1406	 2141	252.2	6.035	2.028	1.312	0.952	0.893	1.050	1.113	1.336	1.554	1.885	2.203	2.556	2.999	3.812	4.490	5.202	5.211	5.413	4.788	3.639	3.076	3.281	3.126	2.940	3.011	3.300	3.605	4.369	4.968	5.659	6.596	7.583	8.510	9.773	10.22	10.60	10.48	10.97	11.28	10.95	10.19	10.02	9.267	7.680	6.250	5.211	4.670
365.0	 1669	 1578	 1134	848.5	794.5	800.2	961.9	 1208	 1565	 1925	 2232	 2390	 2353	 2150	 1671	 1136	817.9	650.0	553.1	501.3	495.9	434.4	337.8	269.7	205.5	158.7	149.8	440.4	 1792	 1883	39.18	3.528	1.645	1.253	1.043	1.113	1.183	1.322	1.634	1.764	2.064	2.524	3.058	3.563	4.129	4.868	4.988	4.912	4.350	3.389	2.963	3.170	3.081	3.050	3.059	3.274	3.620	4.350	4.794	5.502	6.480	7.440	8.290	9.417	9.831	10.39	10.48	10.92	11.29	10.53	9.972	9.761	9.125	7.589	6.224	5.329	4.826
370.0	 1564	 1435	 1074	845.3	825.9	821.2	954.2	 1169	 1490	 1833	 2110	 2266	 2238	 2073	 1655	 1175	894.9	749.5	663.5	606.6	571.9	549.1	487.6	372.9	285.2	212.4	156.5	174.8	532.0	 1454	 1699	538.1	11.52	1.959	1.374	1.202	1.336	1.401	1.612	1.882	2.116	2.462	2.887	3.428	3.945	4.631	4.734	4.789	4.190	3.336	2.875	3.391	3.203	3.196	3.327	3.558	3.774	4.196	4.683	5.412	6.176	6.974	7.892	8.921	9.246	9.848	10.04	10.27	10.55	10.21	9.665	9.698	8.701	7.636	6.451	5.610	5.221
375.0	 1483	 1371	 1024	878.3	865.8	849.3	953.8	 1147	 1418	 1722	 1976	 2140	 2119	 1996	 1643	 1223	989.9	865.4	786.4	734.6	692.0	639.9	632.2	537.6	386.8	292.2	214.3	155.5	183.6	371.7	941.5	 2069	270.2	12.62	2.100	1.429	1.461	1.447	1.610	1.909	1.968	2.372	2.722	3.423	3.908	4.413	4.254	4.340	4.020	3.290	2.856	3.323	3.326	3.344	3.538	3.667	3.881	4.252	4.696	5.395	5.778	6.730	7.445	8.070	8.639	9.209	9.604	9.583	10.25	9.752	9.270	9.501	8.607	7.669	6.746	6.245	5.836
380.0	 1396	 1320	 1028	908.7	913.1	880.7	968.0	 1120	 1354	 1647	 1878	 2036	 2042	 1948	 1634	 1268	 1058	949.9	882.4	830.9	783.9	726.9	696.4	646.8	489.1	357.7	267.4	183.3	129.6	135.2	269.0	 1295	 1880	217.1	5.247	1.810	1.630	1.634	1.802	1.939	2.085	2.471	2.757	3.343	3.514	4.137	3.978	4.369	3.777	3.125	2.969	3.535	3.471	3.637	3.753	3.851	3.942	4.185	4.587	5.240	5.687	6.525	7.171	7.705	8.549	9.198	9.324	9.367	9.768	9.322	9.213	9.143	8.715	7.596	6.880	6.591	6.197
385.0	 1345	 1233	 1004	919.6	945.0	913.3	976.4	 1103	 1306	 1560	 1805	 1944	 1981	 1899	 1634	 1302	 1123	 1016	956.9	914.1	860.6	804.1	759.2	702.3	591.5	429.6	317.3	220.5	143.9	101.4	104.4	387.5	 1578	 1539	32.05	2.998	1.928	1.834	1.839	2.025	1.902	2.494	2.734	3.214	3.588	3.874	3.838	3.972	3.624	3.056	2.935	3.490	3.529	3.876	3.802	3.926	4.159	4.478	4.719	5.074	5.432	6.021	6.647	7.534	8.025	8.474	8.603	9.058	9.377	8.891	8.973	9.199	8.907	7.636	7.082	6.835	6.226
390.0	 1266	 1195	993.5	937.8	979.1	935.8	974.9	 1077	 1252	 1476	 1698	 1848	 1901	 1847	 1634	 1349	 1201	 1104	 1043	 1006	957.4	897.3	854.3	768.4	668.4	552.2	407.7	288.8	193.9	132.3	96.14	133.0	460.9	 1186	 1326	415.0	10.22	2.445	2.057	2.249	2.185	2.419	2.860	3.140	3.532	3.737	3.611	3.917	3.574	3.315	3.004	3.627	3.805	3.937	3.971	3.992	4.357	4.490	4.808	4.927	5.377	5.882	6.408	7.131	7.372	8.019	8.309	8.355	8.994	8.658	8.686	8.838	8.705	8.106	7.256	7.251	6.733
395.0	 1208	 1149	987.3	964.3	 1018	954.9	994.3	 1068	 1189	 1398	 1597	 1741	 1808	 1781	 1618	 1385	 1261	 1176	 1122	 1082	 1037	983.1	943.3	845.9	727.5	632.1	525.1	371.5	258.6	184.4	130.3	101.3	149.3	301.8	745.4	 1612	225.5	11.39	2.828	2.508	2.478	2.541	2.941	2.931	3.443	3.629	3.428	3.852	3.514	3.499	3.177	3.743	3.848	4.095	4.091	4.192	4.483	4.686	4.797	4.808	5.257	5.852	6.215	6.690	7.360	7.496	7.732	7.908	8.510	8.397	8.337	8.539	8.308	7.724	7.428	7.532	7.165
400.0	 1143	 1099	987.5	980.9	 1041	976.3	 1002	 1053	 1169	 1342	 1539	 1670	 1752	 1730	 1591	 1393	 1286	 1204	 1159	 1124	 1080	 1029	990.6	901.5	770.4	667.1	590.9	449.4	314.9	227.0	162.8	115.7	94.24	108.2	212.4	 1024	 1467	182.1	5.562	2.768	2.567	2.670	2.714	2.902	3.193	3.505	3.472	3.951	3.321	3.606	3.275	3.859	3.881	4.072	4.080	4.394	4.394	4.732	4.845	4.891	5.122	5.211	6.089	6.438	6.946	7.264	7.745	7.982	7.958	8.111	8.237	8.523	8.038	7.845	7.406	7.216	7.224
405.0	 1088	 1065	979.3	 1007	 1054	986.8	994.1	 1038	 1141	 1298	 1498	 1627	 1686	 1671	 1564	 1392	 1296	 1225	 1174	 1140	 1100	 1055	 1024	935.5	812.1	701.4	619.7	517.0	371.9	269.5	199.6	140.1	99.71	76.26	80.44	303.7	 1202	 1207	28.68	3.970	2.677	2.679	2.723	2.989	3.184	3.250	3.259	3.470	3.339	3.469	3.205	3.986	4.054	4.149	4.215	4.427	4.547	4.598	4.730	4.936	5.068	5.334	6.020	6.489	6.572	6.832	7.372	7.546	7.597	7.782	8.003	8.212	7.818	7.849	7.375	7.410	7.279
410.0	 1014	 1023	946.2	979.8	 1036	981.1	988.6	 1033	 1105	 1258	 1434	 1554	 1609	 1600	 1500	 1353	 1268	 1212	 1169	 1138	 1103	 1062	 1037	962.1	846.5	740.9	649.5	557.6	453.4	337.9	249.2	178.5	126.8	88.82	66.29	99.63	344.7	928.8	 1046	122.2	9.388	3.090	2.893	3.135	3.121	3.246	3.192	3.347	3.180	3.280	3.092	3.778	4.056	4.103	4.207	4.324	4.530	4.533	4.780	4.957	5.126	5.320	6.116	5.994	6.507	6.587	7.049	7.295	7.322	7.356	7.811	7.652	7.670	7.576	7.224	7.577	7.278
415.0	952.9	948.0	915.4	971.8	 1018	972.8	988.3	 1007	 1072	 1213	 1366	 1473	 1517	 1504	 1423	 1291	 1223	 1173	 1133	 1108	 1080	 1042	 1027	963.5	865.1	771.3	679.0	581.6	491.4	413.1	305.4	218.5	157.1	112.3	79.18	66.26	106.1	233.4	600.9	 1176	195.4	10.17	3.370	3.146	3.060	3.173	3.004	3.343	3.111	3.151	2.995	3.859	3.986	4.218	4.092	4.261	4.382	4.355	4.632	4.940	4.833	5.159	5.860	5.705	6.120	6.390	6.653	6.769	7.111	7.073	6.844	7.143	7.203	7.272	6.967	6.976	7.263
420.0	901.8	903.4	873.6	934.8	 1003	953.4	977.8	992.0	 1049	 1179	 1315	 1425	 1449	 1419	 1342	 1237	 1179	 1129	 1093	 1073	 1047	 1019	 1009	953.3	862.2	777.0	695.2	601.2	506.0	445.6	352.2	248.5	182.8	132.3	94.61	68.51	61.29	77.83	167.4	770.6	 1106	158.5	5.578	3.198	3.210	3.110	2.958	3.334	3.059	2.917	2.952	3.848	3.873	4.142	4.138	4.225	4.223	4.457	4.531	4.911	4.846	4.941	5.681	5.476	5.958	6.262	6.360	6.558	6.857	6.599	6.902	6.872	6.737	6.940	7.013	6.688	6.774
425.0	843.9	874.2	857.3	915.3	978.4	932.6	958.8	968.6	 1030	 1144	 1278	 1374	 1386	 1341	 1282	 1185	 1129	 1091	 1054	 1037	 1010	990.2	987.4	936.4	850.2	776.3	701.4	614.3	522.0	452.5	386.8	283.0	203.8	149.9	109.8	79.38	59.62	50.69	59.88	229.9	934.6	921.0	27.05	4.047	3.343	3.155	3.016	2.984	3.006	2.724	2.830	3.472	3.903	3.947	3.949	3.942	4.321	4.467	4.511	4.814	4.611	4.946	5.325	5.267	6.092	5.995	6.278	6.275	6.730	6.525	6.456	6.903	6.400	6.440	6.335	6.446	6.532
430.0	807.3	822.1	819.3	874.8	938.4	909.4	925.5	944.9	994.5	 1103	 1226	 1296	 1299	 1252	 1186	 1108	 1063	 1021	994.5	978.2	961.1	942.7	942.5	903.7	831.3	767.2	706.0	625.5	540.1	464.0	402.5	328.8	241.3	176.1	132.4	98.82	74.44	56.14	44.93	73.56	273.8	729.4	817.0	113.3	9.007	3.409	2.929	2.975	2.912	2.604	2.718	3.358	3.791	3.819	3.905	3.921	4.230	4.218	4.366	4.523	4.639	4.806	5.058	5.102	5.793	5.860	5.853	6.004	6.254	5.994	5.897	6.153	6.090	6.037	5.828	6.271	6.086
435.0	820.9	753.4	769.1	838.9	898.2	878.5	884.3	917.6	956.6	 1049	 1166	 1220	 1206	 1157	 1093	 1025	981.0	955.3	924.4	915.8	899.7	890.1	893.4	864.8	804.4	749.2	695.9	632.6	555.3	479.7	411.9	348.4	287.3	212.3	158.2	122.6	94.81	71.47	53.94	47.49	83.41	183.8	483.8	 1001	181.3	8.354	3.288	3.117	2.902	2.586	2.705	3.230	3.543	3.629	3.654	3.809	4.060	4.054	4.350	4.300	4.298	4.703	5.047	5.072	5.432	5.716	5.357	5.636	5.712	5.668	5.392	5.767	5.637	5.617	5.404	5.891	5.840
440.0	883.6	716.8	744.6	807.6	869.7	851.1	866.3	892.1	934.6	 1019	 1130	 1167	 1137	 1088	 1026	958.8	925.7	893.2	874.0	864.4	852.0	845.8	855.6	829.8	773.7	732.5	687.7	630.2	559.5	492.4	424.0	354.3	301.7	240.3	178.5	139.6	110.0	84.15	64.16	48.37	46.21	60.75	138.0	719.6	976.9	130.1	4.617	3.352	2.880	2.598	2.455	3.296	3.586	3.464	3.520	3.582	3.888	3.978	4.126	4.389	4.195	4.433	4.849	4.822	5.274	5.471	5.087	5.226	5.375	5.362	5.257	5.515	5.389	5.062	5.178	5.343	5.376
445.0	983.4	718.5	707.7	766.0	833.5	825.0	839.3	864.9	910.2	984.1	 1072	 1102	 1083	 1022	962.9	906.3	874.2	844.2	821.5	817.1	806.0	802.6	817.7	796.3	746.7	710.4	669.0	618.7	556.8	495.7	430.1	359.5	304.4	261.8	199.9	153.2	122.7	95.02	73.81	54.89	42.80	37.14	47.94	225.9	919.3	771.1	21.23	3.862	3.057	2.618	2.605	3.198	3.279	3.333	3.374	3.642	3.766	4.065	4.319	4.174	4.057	4.136	4.520	4.748	5.297	5.132	5.101	4.976	5.193	4.876	4.800	5.155	5.115	4.709	4.936	5.103	5.044
450.0	975.1	788.8	655.5	718.2	774.1	770.1	789.0	816.2	858.1	919.3	993.0	 1016	985.2	925.2	872.3	823.5	788.9	761.2	746.2	743.2	735.8	732.8	745.4	737.8	695.8	666.7	636.9	595.1	541.9	492.6	433.7	364.6	305.4	265.0	225.1	176.4	138.7	110.8	87.20	66.86	51.05	38.95	33.34	67.32	274.6	704.2	745.4	98.19	7.229	2.959	2.549	3.073	3.128	3.235	3.214	3.303	3.629	3.953	3.908	3.902	3.864	4.114	4.305	4.290	4.849	4.650	4.773	4.648	4.677	4.473	4.512	4.577	4.598	4.424	4.494	4.555	4.697
455.0	718.4	882.8	685.1	659.4	708.5	717.5	727.0	764.7	797.4	845.7	904.6	918.6	884.3	825.0	775.1	729.8	702.1	678.3	662.5	657.5	658.7	654.8	671.3	665.0	631.5	613.7	590.3	559.1	517.2	474.5	423.5	362.6	306.0	261.5	230.1	199.0	157.7	123.5	99.37	78.30	60.06	45.92	35.74	36.51	77.55	176.5	462.2	867.9	146.8	6.584	2.707	3.066	2.996	3.015	3.130	3.063	3.496	3.575	3.494	3.738	3.734	3.723	4.070	4.020	4.203	4.172	4.460	4.285	4.253	4.071	4.184	4.166	4.050	3.870	3.974	3.981	4.188
460.0	556.4	847.8	800.5	609.4	658.3	667.3	674.7	717.9	746.8	783.9	833.6	843.2	805.0	747.1	703.8	666.1	638.2	616.3	603.6	600.8	598.1	596.7	618.4	609.2	586.7	571.1	553.3	524.9	494.6	455.9	410.2	354.1	302.3	259.9	226.3	203.1	171.2	132.1	105.7	84.99	66.50	51.16	40.06	32.21	35.31	52.79	128.4	622.6	781.2	99.06	3.682	3.101	2.886	2.792	2.979	2.959	3.207	3.346	3.104	3.477	3.645	3.625	3.916	3.899	3.874	3.905	3.964	3.818	3.938	3.744	3.629	3.737	3.600	3.644	3.570	3.716	3.703
465.0	457.3	705.4	 1144	592.8	619.7	621.9	634.0	669.2	690.5	733.1	769.5	773.3	737.9	690.4	642.4	604.6	582.0	564.8	550.6	549.3	546.7	548.0	565.9	561.9	543.6	529.8	517.8	498.9	468.6	432.8	397.1	343.9	295.5	253.8	220.0	197.0	178.0	142.5	109.3	87.50	70.53	55.53	44.05	34.33	27.99	26.95	39.96	192.5	758.2	584.7	17.17	3.438	2.947	2.803	2.849	2.725	3.075	3.376	3.170	3.146	3.315	3.533	3.507	3.555	3.576	3.624	3.559	3.673	3.546	3.513	3.175	3.358	3.369	3.267	3.318	3.396	3.357
470.0	400.1	511.0	 1175	669.9	556.7	548.8	577.2	605.1	624.8	657.8	693.7	687.5	655.3	604.0	563.6	527.6	511.1	493.4	481.9	479.6	479.3	481.0	497.9	496.8	480.2	473.5	464.0	449.8	424.8	400.1	368.9	323.4	280.6	243.2	211.9	187.5	169.1	148.4	115.5	90.29	73.77	59.01	47.54	37.28	29.08	23.42	22.20	53.23	227.8	541.2	544.9	89.41	6.660	2.872	2.709	2.701	2.813	2.915	2.738	2.994	2.932	3.082	3.161	3.204	3.304	3.167	3.220	3.298	3.224	3.010	2.833	2.949	3.021	2.958	2.936	3.033	3.143
475.0	352.1	402.6	724.5	805.6	561.7	488.7	522.2	538.0	558.5	586.1	604.6	602.4	570.2	526.1	486.2	457.9	445.6	427.0	417.6	415.2	414.2	416.1	430.3	430.9	418.3	414.0	407.8	398.1	381.9	361.8	334.7	298.4	260.8	228.4	201.6	177.5	156.6	140.4	122.1	95.28	75.02	61.48	49.40	40.02	31.55	25.14	20.16	23.36	59.33	132.3	323.4	630.1	129.1	5.554	2.829	2.587	2.579	2.568	2.513	2.530	2.584	2.809	2.912	2.792	2.910	2.797	2.818	2.843	2.784	2.567	2.668	2.536	2.606	2.641	2.558	2.716	2.638
480.0	326.4	359.2	472.4	764.4	643.9	452.3	471.2	495.0	512.1	528.8	551.4	549.8	517.8	470.8	439.4	412.5	393.6	380.3	373.6	369.3	371.7	372.5	387.9	388.2	377.8	373.2	372.8	362.4	350.8	334.1	311.4	278.4	244.8	216.6	193.9	169.9	151.1	131.9	120.7	100.0	76.54	62.56	51.46	41.89	33.83	26.84	21.19	18.67	23.16	37.27	89.21	422.9	566.5	23.53	3.949	2.742	2.585	2.476	2.364	2.347	2.430	2.541	2.461	2.744	2.593	2.578	2.608	2.502	2.437	2.459	2.394	2.241	2.266	2.255	2.373	2.516	2.417
485.0	294.6	315.9	368.0	607.9	779.3	453.5	440.3	466.6	474.9	490.3	503.8	502.1	472.2	433.3	399.6	371.6	357.4	343.8	337.4	335.6	333.6	340.0	348.3	349.0	346.2	339.0	340.4	333.2	324.1	312.4	291.1	262.5	232.9	205.8	184.2	164.0	144.6	127.3	113.7	101.0	80.41	63.75	52.83	43.74	35.80	28.67	22.95	18.77	16.67	17.45	27.62	126.3	538.2	476.9	19.97	3.477	2.833	2.335	2.300	2.234	2.310	2.428	2.408	2.462	2.353	2.573	2.517	2.331	2.322	2.354	2.159	2.152	2.210	2.060	2.105	2.233	2.242
490.0	263.0	296.8	317.8	410.6	768.7	595.2	399.2	417.3	428.8	439.5	454.4	443.2	418.9	381.3	351.3	328.8	315.9	303.3	295.6	294.3	293.7	296.2	306.2	310.0	302.5	303.7	301.1	297.7	291.1	282.3	263.0	239.2	215.0	191.5	172.6	154.8	136.9	120.3	104.6	95.24	83.44	66.43	54.06	44.91	38.29	31.73	25.65	21.58	18.02	15.77	16.24	37.40	160.0	412.6	371.8	90.79	7.221	2.600	2.407	2.180	2.193	2.177	2.212	2.262	2.149	2.178	2.118	2.128	2.044	1.984	1.924	1.923	1.999	1.870	1.848	1.932	1.888
495.0	221.6	271.7	276.0	313.5	514.2	781.1	431.3	371.9	386.2	392.0	405.5	391.0	366.4	333.7	302.6	281.9	273.0	259.8	254.6	253.1	252.4	255.7	263.9	268.1	262.6	263.7	263.5	262.6	258.0	250.3	235.5	216.2	196.7	176.3	157.4	142.0	127.2	112.8	98.49	86.65	80.44	70.09	56.88	46.78	40.03	34.08	29.00	24.77	21.29	18.22	16.74	20.23	46.43	106.7	297.3	580.7	135.0	5.435	2.690	2.234	2.004	2.082	2.014	2.005	1.959	2.074	1.845	1.897	1.888	1.704	1.639	1.590	1.751	1.636	1.609	1.666	1.778
500.0	197.1	240.3	254.3	270.7	355.7	755.9	580.8	339.8	347.9	362.5	363.6	352.9	331.3	296.1	272.5	250.3	241.3	228.8	225.4	224.4	223.7	225.5	234.4	237.8	233.0	234.9	235.5	233.8	233.7	226.8	215.7	197.1	179.7	162.7	146.0	131.5	119.0	105.6	93.15	81.93	73.86	69.67	59.69	48.66	41.23	36.15	31.61	26.89	23.88	20.27	18.01	17.59	22.25	35.35	88.09	403.1	540.9	24.68	3.442	2.099	1.934	1.930	1.944	1.905	1.802	1.831	1.775	1.779	1.626	1.472	1.542	1.464	1.498	1.551	1.478	1.502	1.544
505.0	169.2	212.8	237.2	247.5	286.1	557.1	765.0	349.9	322.5	332.4	334.3	322.4	298.3	268.6	244.9	226.8	216.8	205.4	201.0	200.4	199.5	201.9	210.0	212.3	208.7	211.2	211.9	212.5	211.8	205.1	196.5	181.7	164.2	149.0	135.2	122.0	111.0	98.96	88.19	78.44	69.38	64.70	60.13	50.73	42.85	37.23	32.36	28.17	25.54	21.74	19.95	17.68	17.78	20.06	30.10	123.9	496.5	423.1	20.70	2.441	1.932	1.755	1.737	1.685	1.586	1.702	1.544	1.569	1.476	1.423	1.483	1.359	1.436	1.431	1.358	1.288	1.325
510.0	153.4	180.6	204.6	217.8	231.8	324.1	701.1	553.8	296.5	293.4	295.7	283.7	259.4	234.1	210.8	194.0	185.5	175.7	171.4	171.4	170.8	172.9	177.7	181.0	179.0	181.4	183.4	182.9	183.1	179.3	172.4	160.2	145.4	132.4	121.4	110.4	99.78	90.62	80.81	72.10	63.91	58.63	56.06	51.91	43.60	37.30	33.51	29.51	26.55	23.26	20.99	18.52	17.20	16.41	16.94	35.91	145.2	357.4	318.2	90.44	5.599	1.753	1.571	1.570	1.446	1.536	1.419	1.308	1.339	1.170	1.283	1.171	1.161	1.175	1.105	1.207	1.190
515.0	136.4	156.2	174.1	194.2	200.4	218.1	417.5	757.7	361.7	259.0	255.7	244.5	222.6	200.6	177.1	163.8	154.3	149.2	145.0	142.4	141.7	145.0	149.4	153.4	148.8	154.6	156.6	155.6	154.7	153.0	148.8	137.7	126.6	117.0	106.4	97.87	89.09	81.04	72.69	65.33	58.85	53.03	49.70	48.95	45.55	38.10	33.37	29.91	26.66	23.86	21.22	18.80	16.85	15.70	13.59	15.74	38.30	86.95	211.8	444.9	124.1	3.985	1.646	1.481	1.307	1.380	1.240	1.123	1.054	1.102	1.164	0.960	1.022	0.989	0.948	1.000	1.017
520.0	113.8	135.6	145.7	175.7	175.5	181.3	252.7	677.9	547.7	240.0	230.6	216.0	199.9	180.2	157.4	144.8	135.9	129.1	128.5	125.0	125.2	125.1	130.8	134.1	131.2	135.2	137.9	137.3	137.7	137.6	133.4	122.7	113.6	104.5	95.25	89.43	80.36	73.57	66.83	60.68	54.40	49.70	46.34	44.86	44.08	39.02	32.82	29.24	26.26	23.56	21.34	18.96	16.82	15.21	12.88	11.31	14.30	23.58	57.61	296.6	405.4	24.16	2.109	1.409	1.282	1.334	1.178	1.088	0.973	1.014	1.011	0.910	0.851	0.931	0.912	0.904	0.920
525.0	105.2	114.5	125.0	153.9	168.6	159.7	189.1	448.9	724.5	275.7	211.5	196.4	180.3	159.9	142.9	130.3	121.0	115.4	113.9	111.2	110.8	111.6	116.0	118.4	116.9	119.9	121.8	122.1	124.0	121.8	119.5	110.8	103.0	94.77	86.14	80.39	74.01	66.55	60.46	56.01	50.97	46.92	43.43	40.93	41.24	39.10	32.82	27.69	25.23	22.68	20.60	18.45	16.49	14.37	12.47	10.02	8.830	9.515	16.35	86.42	346.5	199.9	19.02	1.455	1.230	1.183	1.003	1.049	0.855	0.880	0.940	0.811	0.829	0.842	0.755	0.793	0.833
530.0	90.04	101.6	108.6	126.7	155.2	140.2	154.9	245.2	607.1	508.1	196.9	171.4	153.7	138.9	122.8	111.2	103.1	99.12	96.38	95.80	95.24	95.21	99.43	101.1	100.4	101.6	103.9	105.3	105.4	105.7	103.0	96.18	89.19	82.87	75.63	70.03	64.93	58.55	54.89	49.94	45.36	42.03	39.18	36.85	35.88	35.53	33.16	27.76	24.17	21.88	19.90	17.42	15.54	13.79	11.67	9.566	7.451	6.322	6.885	21.79	97.37	225.4	247.9	79.65	4.133	1.007	1.026	0.891	0.767	0.776	0.783	0.697	0.705	0.685	0.711	0.678	0.671
535.0	74.93	90.01	91.07	104.0	130.8	132.6	132.8	158.3	317.0	652.6	316.1	147.1	133.6	117.2	102.4	94.04	86.17	84.40	81.71	80.44	78.76	79.70	83.42	82.74	83.35	85.25	87.57	89.07	89.07	90.14	87.82	82.31	77.01	70.26	64.41	60.35	55.43	51.10	47.19	43.51	40.08	37.47	34.97	33.20	31.32	30.58	30.31	27.31	23.07	20.11	18.64	16.61	14.67	12.53	10.99	8.990	6.964	5.559	4.567	7.277	23.88	53.84	146.9	322.6	25.90	2.979	0.928	0.875	0.726	0.735	0.640	0.525	0.606	0.529	0.615	0.502	0.606
540.0	65.28	77.59	85.49	91.81	107.1	128.0	119.7	132.4	181.5	520.2	513.1	140.1	118.5	105.0	89.55	81.33	75.97	74.09	71.68	70.33	69.27	70.16	72.39	72.70	72.66	74.72	76.69	77.42	78.98	78.24	76.97	72.69	67.81	62.57	56.99	53.94	49.47	46.18	42.05	39.94	36.41	34.09	31.82	30.51	29.00	27.82	26.94	26.61	22.53	18.90	17.61	15.76	13.65	11.76	10.22	8.635	6.758	5.203	4.228	4.035	7.311	13.94	38.51	205.0	284.4	23.61	1.412	0.824	0.668	0.644	0.588	0.508	0.583	0.559	0.567	0.507	0.520
545.0	65.63	70.46	75.41	81.18	91.99	113.9	117.2	117.8	137.8	328.0	615.4	176.1	104.4	92.30	80.28	71.70	68.00	64.08	63.75	62.54	61.52	62.16	63.79	64.42	65.21	66.15	67.85	68.71	70.95	69.65	69.33	64.55	60.35	55.09	50.96	48.31	44.73	41.82	37.96	36.24	32.84	30.98	29.45	27.86	26.54	25.55	23.80	24.23	22.89	18.67	16.79	14.42	12.64	11.18	9.594	8.245	6.641	5.090	4.132	3.419	3.727	4.996	10.19	58.02	241.6	194.9	18.43	0.896	0.758	0.685	0.543	0.482	0.506	0.545	0.500	0.422	0.452
550.0	62.16	68.83	65.65	66.83	77.32	94.82	109.7	106.1	114.5	170.6	444.9	414.6	110.7	80.61	68.91	61.13	58.09	54.23	52.93	52.96	51.84	52.23	53.37	54.76	54.81	55.60	57.41	58.39	59.45	59.37	58.32	54.85	50.88	47.18	43.60	40.67	38.25	35.82	33.25	31.44	28.37	26.58	25.24	24.68	23.69	22.42	21.05	20.14	20.42	18.38	15.55	13.40	11.40	10.19	8.742	7.362	6.324	4.954	3.953	3.119	2.985	2.908	3.861	14.36	66.57	169.0	195.8	69.68	3.440	0.595	0.506	0.503	0.455	0.424	0.401	0.406	0.404
555.0	55.32	57.38	55.64	57.31	61.86	72.60	97.58	98.94	99.76	112.9	206.7	466.7	246.4	66.61	56.68	50.96	46.99	45.24	43.42	43.55	42.12	42.99	44.39	45.31	44.53	45.00	46.90	48.32	49.80	49.39	48.29	44.99	42.58	40.01	36.72	34.16	31.99	29.39	28.28	26.00	24.08	23.16	21.93	21.09	20.16	19.46	18.20	17.32	16.77	16.52	14.67	12.09	10.11	8.783	7.980	6.851	5.719	4.646	3.855	3.106	2.703	2.432	2.382	4.464	16.00	39.47	101.9	231.4	26.40	2.273	0.453	0.450	0.379	0.363	0.334	0.316	0.379
560.0	54.07	51.77	49.74	49.96	53.45	60.86	81.84	96.30	89.58	95.38	117.5	334.3	400.2	71.78	48.81	44.18	40.63	37.88	37.85	36.86	35.98	35.97	38.11	38.95	38.77	38.35	41.18	40.85	42.05	42.41	41.28	38.15	36.66	33.66	31.44	29.56	27.21	25.45	24.35	22.14	21.19	19.93	19.29	18.39	17.67	17.08	16.18	14.82	14.08	14.13	13.38	11.73	9.195	8.010	7.069	6.359	5.229	4.210	3.616	2.949	2.609	2.336	1.924	2.267	4.722	9.708	26.02	136.8	198.4	22.81	1.025	0.477	0.332	0.290	0.319	0.327	0.357
565.0	53.80	53.12	48.15	45.62	45.71	53.30	68.47	87.90	85.97	89.46	91.68	190.2	447.7	120.5	42.18	37.13	35.68	31.95	31.12	30.83	31.41	30.92	32.21	33.05	32.22	33.54	34.33	34.82	35.26	35.50	34.53	33.29	31.16	28.53	26.49	25.29	23.30	21.93	20.22	18.91	18.50	17.83	16.57	16.05	15.73	14.56	14.04	12.83	12.12	11.59	11.71	10.84	8.422	7.231	6.049	5.471	4.621	3.862	3.208	2.813	2.221	2.014	1.951	1.769	2.179	3.061	6.735	37.09	154.1	159.5	17.13	0.531	0.358	0.306	0.247	0.278	0.339
570.0	51.89	52.71	42.62	38.30	38.69	42.71	54.26	73.41	85.89	85.65	86.33	109.3	285.5	317.3	58.73	30.12	27.75	25.16	24.84	24.83	24.37	24.28	24.90	25.82	25.54	26.31	26.77	27.01	27.36	27.54	27.18	26.25	24.23	22.71	21.26	19.78	18.69	17.81	15.95	15.49	14.50	13.81	13.22	12.63	12.50	11.95	11.41	10.70	9.877	9.014	9.008	8.789	7.399	6.324	5.063	4.669	3.761	3.215	2.808	2.481	2.098	1.913	1.785	1.537	1.573	1.628	2.369	9.063	41.00	108.9	125.0	43.94	2.161	0.289	0.250	0.212	0.238
575.0	60.48	56.53	38.95	32.64	32.68	33.90	43.93	62.19	84.35	89.51	90.07	93.62	135.2	309.4	196.4	24.07	20.80	19.50	19.05	18.85	18.40	19.04	18.87	19.30	19.33	19.47	20.23	20.08	21.17	21.36	20.90	20.30	18.51	17.12	16.02	15.37	14.45	13.44	12.71	11.53	11.46	10.72	10.24	9.778	9.602	9.089	8.842	8.185	7.892	6.973	6.878	6.426	6.428	5.636	4.321	3.682	3.017	2.614	2.320	2.154	1.863	1.664	1.585	1.443	1.341	1.208	1.478	2.743	9.878	25.32	58.77	130.1	25.83	1.551	0.226	0.200	0.232
580.0	67.26	59.06	39.80	29.97	27.67	29.73	38.26	53.82	79.97	95.89	94.14	91.39	88.84	203.0	308.8	37.02	17.23	15.79	15.18	15.62	14.94	15.35	15.41	15.69	15.48	15.30	16.26	16.44	16.76	16.97	16.37	16.17	14.68	14.11	12.81	12.32	11.66	11.22	10.34	9.441	9.331	8.502	8.534	8.261	7.837	7.561	7.133	6.690	6.525	5.858	5.417	5.260	5.192	4.744	4.050	3.216	2.623	2.202	2.089	1.939	1.700	1.501	1.594	1.468	1.235	1.202	1.138	1.389	2.829	6.200	14.81	72.08	116.0	20.50	0.572	0.162	0.159
585.0	64.84	57.19	40.57	27.15	25.35	27.57	36.42	51.00	75.52	101.1	101.5	97.63	80.12	113.0	301.9	86.86	14.63	12.96	12.19	12.62	12.22	12.47	12.56	12.56	12.49	12.81	13.44	13.54	13.60	14.30	13.77	13.04	12.26	10.66	10.58	10.14	9.739	9.038	9.008	7.853	7.647	7.281	6.900	7.009	6.536	6.335	6.052	5.707	5.396	4.973	4.745	4.239	4.000	4.193	3.841	2.827	2.375	2.003	1.874	1.728	1.486	1.472	1.474	1.302	1.241	1.094	1.038	1.085	1.281	1.903	3.813	19.26	84.16	92.00	13.29	0.295	0.217
590.0	68.67	61.33	39.93	26.93	22.96	25.49	34.46	48.02	69.82	100.5	110.8	102.7	82.39	64.27	161.9	232.0	36.12	10.60	10.15	10.21	9.746	9.371	9.985	10.07	10.07	10.19	10.55	10.67	10.64	10.87	10.88	10.38	9.692	8.968	8.309	8.000	7.647	7.086	7.033	6.302	5.971	5.903	5.597	5.537	5.296	4.999	5.006	4.485	4.191	3.999	3.855	3.393	3.052	3.067	3.126	2.688	2.025	1.641	1.564	1.385	1.252	1.182	1.236	1.167	1.181	1.107	1.009	0.942	0.912	0.973	1.309	4.641	22.12	58.90	72.42	16.98	1.373
595.0	68.83	58.87	37.63	24.19	19.80	25.24	30.91	43.98	64.62	97.66	117.0	107.1	83.81	51.71	60.81	192.6	152.8	9.630	7.799	7.881	7.162	7.425	7.614	7.903	7.680	7.889	7.861	8.132	8.177	8.575	8.096	8.204	7.319	6.847	6.765	6.056	5.675	5.587	5.157	5.105	4.813	4.475	4.400	4.289	4.086	3.855	3.939	3.623	3.435	3.033	3.140	2.679	2.403	2.261	2.320	2.184	1.979	1.390	1.224	1.207	1.098	0.965	1.085	0.962	1.184	1.102	0.939	0.832	0.788	0.710	0.729	1.382	5.159	13.58	32.01	74.28	23.54
600.0	68.43	55.25	36.89	20.37	18.32	22.53	28.05	44.57	62.86	91.06	114.3	108.8	84.62	51.19	31.76	107.3	230.0	25.65	6.780	6.779	6.002	6.479	6.285	6.358	6.247	6.309	6.357	6.820	6.893	7.012	6.712	6.688	6.102	5.761	5.459	5.119	4.935	4.526	4.273	4.229	3.964	3.613	3.610	3.671	3.493	3.343	3.254	3.163	2.748	2.685	2.569	2.218	1.925	1.736	1.788	1.821	1.932	1.472	1.071	1.096	1.028	0.965	1.012	0.946	1.046	1.115	0.947	0.868	0.745	0.688	0.623	0.671	1.434	3.234	7.837	41.00	70.18
605.0	63.32	52.59	36.77	21.53	18.50	20.02	26.82	41.08	61.10	84.93	111.2	113.5	85.61	50.64	25.07	48.25	206.7	69.16	6.227	5.455	5.370	5.387	5.459	5.531	5.239	5.570	5.493	5.753	5.479	5.974	5.850	5.556	5.217	5.106	4.953	4.585	4.247	3.979	3.864	3.613	3.187	3.118	3.030	3.045	2.942	2.928	2.699	2.664	2.483	2.127	2.025	1.880	1.528	1.552	1.476	1.597	1.730	1.420	1.102	0.875	0.966	0.863	0.904	0.949	0.958	0.889	0.927	0.891	0.743	0.730	0.569	0.476	0.560	0.913	1.963	10.93	48.74
610.0	59.55	51.34	35.85	20.60	16.75	20.10	27.63	39.97	59.04	80.37	102.5	113.1	87.83	51.69	25.91	22.32	101.3	176.8	27.93	4.640	4.475	4.381	4.165	4.174	4.358	4.399	4.382	4.789	4.317	4.539	4.791	4.513	4.288	4.163	4.113	3.756	3.592	3.153	3.050	2.908	2.586	2.489	2.386	2.459	2.382	2.311	2.229	2.190	2.001	1.800	1.736	1.442	1.354	1.232	1.155	1.117	1.258	1.243	1.092	0.848	0.766	0.751	0.800	0.880	0.861	0.789	0.839	0.918	0.711	0.643	0.536	0.421	0.367	0.426	0.670	2.589	12.71
615.0	54.48	49.67	31.56	20.09	15.09	18.34	26.44	36.98	54.24	74.63	93.44	103.3	88.32	51.70	26.86	16.02	34.18	131.0	125.5	5.002	3.755	3.455	3.332	3.264	3.586	3.360	3.342	3.949	3.466	3.761	3.545	3.513	3.348	3.368	3.147	2.897	2.945	2.465	2.331	2.215	1.938	1.927	1.773	1.874	1.897	1.803	1.792	1.756	1.504	1.353	1.314	1.082	1.131	1.126	0.909	0.945	0.858	0.964	0.920	0.817	0.691	0.648	0.684	0.761	0.704	0.711	0.783	0.734	0.637	0.614	0.476	0.357	0.307	0.308	0.304	0.750	2.947
620.0	50.32	45.23	28.94	18.64	14.62	17.56	23.97	35.61	51.31	70.10	86.58	96.41	88.35	52.66	26.85	15.24	15.39	66.03	178.1	22.79	2.914	2.774	2.983	2.965	2.804	2.701	2.948	3.404	2.915	3.056	3.013	2.825	2.887	2.694	2.571	2.350	2.371	2.299	2.033	1.880	1.642	1.576	1.617	1.563	1.554	1.513	1.386	1.456	1.213	1.208	1.076	0.830	0.944	0.849	0.733	0.711	0.738	0.799	0.847	0.761	0.622	0.617	0.604	0.616	0.666	0.652	0.689	0.671	0.669	0.561	0.565	0.378	0.242	0.234	0.218	0.345	0.784
625.0	45.38	43.19	27.61	18.69	14.87	16.26	21.29	33.86	49.82	67.08	84.25	90.40	85.29	54.48	27.40	15.31	11.48	27.46	148.1	59.65	2.892	2.620	2.696	2.548	2.482	2.342	2.469	2.963	2.395	2.545	2.507	2.318	2.203	2.239	2.185	2.036	2.116	1.908	1.681	1.489	1.421	1.270	1.303	1.435	1.331	1.278	1.187	1.081	1.091	1.048	0.931	0.776	0.744	0.717	0.680	0.632	0.592	0.625	0.680	0.703	0.733	0.524	0.497	0.562	0.639	0.622	0.582	0.615	0.552	0.600	0.517	0.312	0.200	0.209	0.219	0.181	0.289
630.0	45.16	42.84	26.42	17.66	15.25	16.21	21.72	32.74	46.87	64.41	79.54	84.05	78.78	59.32	30.79	17.02	11.20	11.40	64.02	139.9	23.60	2.150	2.114	2.037	2.026	1.939	1.933	2.332	2.027	1.954	2.040	1.862	1.887	1.788	1.801	1.651	1.647	1.531	1.285	1.199	1.226	1.047	1.037	1.050	1.051	1.035	0.977	0.871	0.849	0.793	0.685	0.663	0.560	0.604	0.505	0.482	0.474	0.499	0.462	0.606	0.650	0.546	0.526	0.529	0.605	0.538	0.580	0.566	0.490	0.479	0.479	0.351	0.247	0.231	0.182	0.165	0.173
635.0	46.95	45.95	27.67	16.11	14.59	16.97	21.94	30.51	44.01	62.96	77.08	80.91	75.43	61.41	36.54	18.24	12.96	8.258	19.16	92.62	106.6	2.747	1.461	1.597	1.703	1.509	1.510	1.664	1.490	1.596	1.551	1.347	1.549	1.441	1.395	1.370	1.323	1.088	1.212	0.859	0.953	0.890	0.732	0.831	0.829	0.795	0.727	0.739	0.659	0.652	0.591	0.522	0.504	0.442	0.395	0.434	0.400	0.345	0.406	0.417	0.501	0.559	0.535	0.534	0.531	0.519	0.587	0.549	0.502	0.463	0.336	0.389	0.280	0.221	0.178	0.206	0.129
640.0	51.65	52.08	31.87	19.25	13.38	17.40	22.93	32.10	43.19	63.52	77.97	80.47	74.86	61.07	40.51	20.87	13.88	8.521	8.126	42.00	146.0	18.69	1.393	1.414	1.342	1.288	1.341	1.407	1.396	1.445	1.281	1.150	1.152	1.137	1.200	1.132	1.029	0.897	0.948	0.742	0.763	0.700	0.664	0.679	0.699	0.737	0.702	0.637	0.658	0.553	0.436	0.430	0.392	0.340	0.337	0.409	0.392	0.281	0.339	0.345	0.424	0.596	0.529	0.502	0.499	0.480	0.571	0.491	0.490	0.475	0.370	0.326	0.357	0.270	0.154	0.179	0.128
645.0	58.55	56.85	33.36	20.45	14.45	18.89	23.51	33.10	44.92	60.75	74.61	80.71	75.41	60.76	43.67	23.12	14.51	8.958	5.800	15.72	114.7	52.29	1.644	1.329	1.154	1.096	1.393	1.172	1.168	1.159	1.141	1.098	0.937	0.944	0.931	0.960	0.894	0.833	0.747	0.640	0.678	0.661	0.714	0.579	0.593	0.637	0.712	0.554	0.566	0.475	0.442	0.396	0.356	0.319	0.284	0.304	0.366	0.232	0.316	0.310	0.413	0.478	0.512	0.432	0.452	0.478	0.553	0.485	0.460	0.402	0.421	0.342	0.326	0.347	0.213	0.167	0.159
650.0	56.64	60.84	36.21	19.65	16.38	18.62	24.08	32.96	46.39	61.15	72.69	77.39	73.06	59.25	44.46	24.62	14.22	8.904	4.981	6.707	57.68	117.9	7.255	1.207	1.069	0.971	1.161	0.950	1.013	1.072	0.883	0.942	0.848	0.841	0.748	0.872	0.726	0.740	0.643	0.624	0.567	0.591	0.594	0.611	0.523	0.588	0.572	0.545	0.522	0.415	0.334	0.314	0.306	0.247	0.233	0.314	0.299	0.257	0.257	0.314	0.323	0.409	0.449	0.379	0.453	0.429	0.508	0.457	0.439	0.356	0.345	0.326	0.258	0.329	0.235	0.184	0.141
