Sample:	'1
File name:	农夫山泉 中游 2倍.FD3
Run date:	'13:31:27, 09/08/2025
Operator:	Administrator
Comment:	'

Instrument
Model:	F-2700 FL Spectrophotometer
Serial number:	24D1-003
ROM Version:	4J14000 07

Instrument parameters
Measurement type:	3-D scan
Data mode:	Fluorescence
EX  Start WL:	220.0 nm
EX  End WL:	600.0 nm
EX Sampling interval:	5.0 nm
EM  Start WL:	230.0 nm
EM  End WL:	650.0 nm
EM Sampling interval:	5.0 nm
Scan speed:	12000 nm/min
EX Slit:	5.0 nm
EM Slit:	5.0 nm
PMT Voltage:	700 V
Response:	Auto 
Corrected spectra:	Off
Contour interval:	50.000

Peak integration
Integration method:	Rectangular
Sensitivity:	1
Threshold:	1.000

Peaks
No.	ApexEX/EM(nm)	Height(Data)
1	225.0/340.0	617.7
2	230.0/355.0	627.4
3	240.0/265.0	194.3
4	250.0/550.0	185.0
5	255.0/280.0	622.7
6	255.0/560.0	186.2
7	260.0/575.0	171.8
8	265.0/585.0	182.0
9	270.0/300.0	2214
10	270.0/385.0	1418
11	270.0/595.0	195.6
12	275.0/305.0	2484
13	275.0/610.0	172.4
14	280.0/620.0	136.0
15	285.0/635.0	90.52
16	310.0/350.0	715.7
17	315.0/355.0	703.1
18	320.0/360.0	748.0
19	505.0/275.0	2.420
20	520.0/285.0	4.250
21	530.0/290.0	5.499
22	540.0/295.0	8.430
23	545.0/300.0	9.481
24	550.0/305.0	10.13
25	560.0/310.0	9.305
26	575.0/320.0	6.706

Data points
	220.0	225.0	230.0	235.0	240.0	245.0	250.0	255.0	260.0	265.0	270.0	275.0	280.0	285.0	290.0	295.0	300.0	305.0	310.0	315.0	320.0	325.0	330.0	335.0	340.0	345.0	350.0	355.0	360.0	365.0	370.0	375.0	380.0	385.0	390.0	395.0	400.0	405.0	410.0	415.0	420.0	425.0	430.0	435.0	440.0	445.0	450.0	455.0	460.0	465.0	470.0	475.0	480.0	485.0	490.0	495.0	500.0	505.0	510.0	515.0	520.0	525.0	530.0	535.0	540.0	545.0	550.0	555.0	560.0	565.0	570.0	575.0	580.0	585.0	590.0	595.0	600.0
230.0	20.96	360.5	729.5	161.1	6.775	4.235	3.645	4.149	3.963	4.281	3.712	3.676	3.333	3.004	2.501	2.099	1.985	1.612	1.578	1.414	1.447	1.313	1.198	1.076	0.882	0.941	0.898	0.867	0.852	0.760	0.773	0.678	0.594	0.543	0.525	0.471	0.467	0.411	0.518	0.425	0.538	0.512	0.513	0.461	0.363	0.353	0.538	1.532	2.433	1.667	0.698	0.340	0.252	0.242	0.295	0.273	0.248	0.255	0.249	0.253	0.201	0.236	0.266	0.225	0.239	0.236	0.206	0.240	0.210	0.196	0.191	0.173	0.223	0.280	0.204	0.250	0.207
235.0	31.27	100.6	467.7	658.0	283.9	14.48	4.916	5.112	3.640	4.826	4.169	4.131	3.475	2.786	2.842	2.580	2.058	1.801	1.331	1.450	1.765	1.332	1.210	0.979	1.011	1.006	0.807	0.812	0.914	0.749	0.752	0.673	0.557	0.480	0.497	0.553	0.507	0.454	0.527	0.538	0.497	0.447	0.355	0.560	0.338	0.389	0.287	0.618	1.072	1.643	2.155	2.873	2.179	0.665	0.348	0.251	0.228	0.273	0.231	0.253	0.212	0.230	0.259	0.297	0.148	0.336	0.166	0.217	0.215	0.211	0.134	0.195	0.198	0.298	0.230	0.284	0.263
240.0	48.56	47.77	136.1	699.4	1271	262.9	11.87	5.842	4.739	4.648	4.765	3.909	3.286	3.569	2.844	2.502	1.698	1.904	1.753	1.473	1.495	1.515	1.147	1.163	1.103	0.910	0.889	0.803	0.954	0.699	0.685	0.613	0.512	0.516	0.472	0.547	0.536	0.512	0.499	0.532	0.451	0.428	0.430	0.467	0.429	0.429	0.412	0.354	0.519	0.657	1.147	3.387	5.440	4.737	2.378	0.511	0.239	0.332	0.281	0.210	0.251	0.215	0.252	0.269	0.137	0.261	0.140	0.232	0.281	0.193	0.221	0.245	0.244	0.210	0.258	0.286	0.216
245.0	39.15	66.01	46.88	237.6	1516	1825	258.1	10.38	6.182	5.883	5.481	4.994	3.853	3.439	2.966	2.540	1.980	1.873	1.566	1.723	1.397	1.345	1.129	1.088	1.375	0.913	0.992	0.861	0.944	0.751	0.629	0.671	0.638	0.564	0.423	0.508	0.498	0.413	0.592	0.561	0.441	0.379	0.429	0.382	0.472	0.480	0.519	0.445	0.376	0.430	0.427	1.157	3.261	6.959	9.684	6.101	1.910	0.399	0.236	0.221	0.283	0.202	0.285	0.249	0.282	0.300	0.183	0.150	0.252	0.292	0.187	0.254	0.178	0.260	0.191	0.264	0.209
250.0	22.16	53.82	83.94	85.25	487.5	1941	3661	1237	75.67	8.381	6.975	5.554	4.220	4.134	3.298	2.943	2.277	1.613	1.753	1.655	1.487	1.520	1.382	1.178	1.140	0.972	1.044	0.882	0.958	0.825	0.623	0.666	0.710	0.493	0.539	0.462	0.500	0.481	0.518	0.469	0.366	0.407	0.386	0.429	0.393	0.386	0.399	0.533	0.465	0.516	0.379	0.505	1.001	2.160	5.133	9.097	14.15	15.18	9.795	3.217	0.379	0.261	0.287	0.290	0.310	0.237	0.168	0.206	0.281	0.280	0.177	0.236	0.139	0.233	0.202	0.234	0.286
255.0	16.60	24.15	61.72	129.5	149.4	490.1	2785	8210	1856	98.34	9.674	7.193	5.755	5.229	4.133	3.763	2.566	2.021	1.782	1.742	1.505	1.499	1.556	0.945	1.120	1.000	1.106	1.131	1.003	1.019	0.904	0.699	0.699	0.665	0.550	0.466	0.484	0.391	0.550	0.433	0.470	0.495	0.468	0.517	0.407	0.420	0.273	0.369	0.383	0.480	0.575	0.672	0.568	0.753	1.419	2.383	4.706	13.27	27.91	27.99	14.73	4.162	0.415	0.301	0.275	0.263	0.244	0.215	0.265	0.307	0.145	0.280	0.326	0.197	0.240	0.304	0.270
260.0	22.36	19.39	29.80	121.6	157.8	141.2	804.1	6185	9675	1571	49.39	10.98	6.278	6.956	5.163	3.889	3.047	2.595	1.904	1.840	1.907	1.273	1.727	1.456	1.124	1.042	1.175	1.022	0.894	0.969	0.815	0.886	0.660	0.678	0.520	0.405	0.638	0.496	0.423	0.502	0.524	0.532	0.440	0.439	0.360	0.376	0.248	0.362	0.341	0.325	0.549	0.869	1.030	0.743	0.680	0.744	1.355	3.619	11.08	26.05	34.70	28.03	12.72	1.359	0.328	0.235	0.292	0.273	0.228	0.308	0.165	0.240	0.260	0.199	0.211	0.235	0.280
265.0	23.35	16.37	16.28	60.17	194.3	161.7	209.5	1877	8928	9999.9	1199	22.46	10.37	7.918	5.551	4.268	3.145	2.466	2.262	1.963	2.071	1.685	1.695	1.427	1.197	1.136	0.905	0.920	1.050	1.238	1.000	0.874	0.661	0.654	0.536	0.432	0.629	0.522	0.468	0.498	0.456	0.491	0.408	0.464	0.437	0.445	0.348	0.293	0.301	0.281	0.419	0.560	0.884	1.386	1.105	0.593	0.683	1.157	2.814	7.317	16.39	44.27	51.97	23.75	6.501	0.616	0.337	0.230	0.207	0.266	0.208	0.321	0.241	0.221	0.245	0.278	0.272
270.0	39.34	27.45	22.17	25.48	94.86	258.0	247.2	481.7	2574	9806	9999.9	4648	81.53	12.94	7.954	5.908	3.966	3.283	2.673	2.297	2.117	2.106	1.673	1.432	1.355	1.121	1.055	1.127	1.014	1.031	0.970	0.811	0.764	0.611	0.682	0.585	0.630	0.581	0.604	0.639	0.625	0.627	0.539	0.561	0.481	0.512	0.416	0.335	0.361	0.286	0.339	0.396	0.420	0.762	1.105	1.382	1.516	1.005	1.125	2.080	4.160	12.16	22.42	35.58	34.75	41.23	15.49	6.088	0.678	0.333	0.262	0.296	0.257	0.232	0.266	0.270	0.325
275.0	99.60	65.50	45.89	25.03	37.13	124.0	408.4	378.1	685.1	2395	6194	9999.9	7704	106.7	13.10	8.333	5.222	4.414	3.145	2.599	2.256	2.313	2.097	1.541	1.384	1.552	1.293	1.407	0.986	1.341	1.063	1.029	0.672	0.757	0.699	0.806	0.816	0.740	0.797	0.801	0.846	0.807	0.710	0.734	0.652	0.637	0.545	0.442	0.531	0.437	0.296	0.376	0.345	0.472	0.546	0.765	1.553	2.420	2.324	1.360	1.543	3.387	5.652	8.652	10.89	27.60	52.18	59.30	24.46	8.226	0.461	0.330	0.273	0.338	0.270	0.304	0.386
280.0	177.6	129.8	74.25	34.76	33.52	64.93	271.9	622.7	394.7	752.1	1847	9494	9999.9	5732	70.10	11.96	7.173	5.087	3.868	3.058	2.556	2.089	2.196	1.595	1.562	1.426	1.435	1.351	1.163	1.111	1.002	1.098	0.732	0.713	0.983	0.871	1.108	1.160	0.952	1.213	0.936	0.960	1.034	0.993	0.861	0.766	0.720	0.650	0.550	0.491	0.383	0.473	0.421	0.474	0.446	0.560	0.911	1.720	2.964	3.369	1.975	1.753	2.302	3.050	3.587	7.665	18.45	40.89	78.94	80.74	18.75	2.404	0.382	0.410	0.304	0.309	0.301
285.0	265.3	209.3	118.3	55.40	46.96	66.75	165.3	543.7	806.2	607.4	870.5	2986	9999.9	9999.9	965.9	40.45	10.53	6.887	4.608	3.679	3.037	2.561	2.217	2.051	1.606	1.520	1.419	1.374	1.402	1.046	1.159	0.840	0.869	0.948	1.202	1.357	1.243	1.299	1.182	1.356	1.343	1.238	1.310	1.341	1.154	1.025	1.122	0.836	0.635	0.632	0.477	0.485	0.429	0.446	0.461	0.605	0.653	0.996	1.948	3.436	4.250	3.263	2.408	2.617	2.752	3.829	5.975	12.01	32.50	74.09	85.35	30.18	11.79	0.636	0.349	0.384	0.347
290.0	400.4	301.4	181.2	99.46	73.93	99.60	180.1	397.8	894.1	1241	1124	1520	3165	9999.9	9999.9	8276	55.36	11.21	7.091	4.963	3.826	3.153	2.710	2.277	1.742	1.602	1.467	1.361	1.389	1.177	1.272	0.896	0.910	1.146	1.209	1.524	1.678	1.702	1.573	1.557	1.559	1.663	1.613	1.525	1.354	1.465	1.237	1.179	0.885	0.733	0.620	0.582	0.547	0.563	0.655	0.719	0.774	1.113	1.442	2.233	3.130	4.778	5.499	5.076	4.543	4.366	4.808	6.171	10.45	20.35	32.80	55.39	76.03	57.59	18.57	8.432	0.990
295.0	491.3	373.4	242.3	139.4	103.8	146.3	231.9	416.1	761.7	1437	1929	1621	1664	2750	4640	9999.9	5579	68.10	10.46	7.279	5.291	4.118	2.832	2.490	2.196	1.899	1.408	1.527	1.406	1.456	1.353	1.142	1.002	1.133	1.320	1.735	2.225	1.843	1.760	1.954	1.818	1.790	1.748	1.768	1.631	1.910	1.365	1.375	1.153	0.832	0.729	0.721	0.635	0.704	0.803	0.993	1.105	1.448	1.776	1.903	2.869	3.734	5.166	6.962	8.430	7.200	6.117	6.499	7.025	7.888	9.787	14.12	20.51	35.75	77.01	101.2	29.51
300.0	514.9	401.3	280.9	164.5	137.7	179.9	281.6	460.9	781.9	1320	2214	2084	1504	1234	1368	6795	9999.9	4086	46.73	10.14	6.786	4.924	3.501	2.893	2.466	2.041	1.724	1.716	1.392	1.371	1.293	1.313	1.031	0.960	1.406	1.742	2.365	2.187	1.980	1.795	1.822	2.118	1.978	1.846	1.914	1.812	1.576	1.433	1.390	0.904	0.912	0.814	0.891	0.878	1.000	1.067	1.131	1.591	1.881	2.217	2.921	3.809	4.950	6.201	7.984	9.481	8.967	7.797	6.715	5.552	5.254	5.415	6.199	9.439	24.43	65.84	105.1
305.0	531.6	425.1	288.8	192.1	168.2	215.5	332.8	519.9	834.9	1290	1946	2484	1676	990.8	650.7	1825	8938	9999.9	611.8	30.28	9.271	5.856	4.525	3.310	2.865	2.284	1.885	1.979	1.532	1.576	1.421	1.208	1.195	1.169	1.434	1.633	2.085	2.150	2.263	1.845	1.725	2.013	1.878	1.886	2.018	1.762	1.473	1.532	1.275	1.071	1.064	0.895	1.037	1.087	1.062	1.161	1.395	1.700	2.238	2.610	3.260	3.959	4.779	5.578	6.995	8.537	10.13	10.00	8.146	5.678	4.716	3.794	3.177	3.506	6.650	16.85	40.89
310.0	510.8	417.9	295.0	209.5	195.0	259.8	399.8	579.0	860.2	1246	1690	2132	2069	1218	589.7	637.2	2304	7562	9999.9	6344	40.76	9.378	5.945	4.159	3.457	2.806	2.505	1.993	1.985	1.663	1.512	1.326	1.194	1.151	1.540	1.844	2.068	2.028	1.983	1.873	1.932	2.097	1.974	1.921	1.715	1.687	1.443	1.483	1.331	1.058	1.011	1.083	0.953	1.089	1.184	1.405	1.734	2.078	2.485	2.851	3.464	4.117	4.685	5.621	6.376	7.280	8.246	8.796	9.305	8.160	5.925	4.211	2.999	2.511	2.811	4.975	10.29
315.0	466.7	413.8	294.3	217.5	217.9	293.5	442.9	627.5	861.2	1195	1534	1764	1755	1594	841.4	456.9	715.6	1834	3877	9999.9	4146	54.47	9.581	5.777	3.925	2.923	2.866	2.263	2.323	1.755	1.606	1.458	1.258	1.288	1.411	1.734	1.911	1.851	1.673	1.680	1.774	1.909	1.754	1.717	1.668	1.702	1.533	1.423	1.258	1.155	0.847	0.971	1.039	1.131	1.384	1.601	1.896	2.282	2.706	2.759	3.713	4.096	4.516	5.272	6.270	6.208	7.026	6.948	7.578	7.146	7.530	6.529	4.357	2.687	2.339	2.811	3.797
320.0	472.2	465.4	329.5	246.2	236.9	324.5	475.2	662.7	875.6	1180	1473	1650	1570	1465	1173	550.1	424.0	590.7	1019	5597	9999.9	3386	40.46	8.122	5.103	3.809	3.351	2.632	2.182	1.930	1.710	1.574	1.211	1.236	1.433	1.855	1.729	1.957	1.689	1.667	1.836	1.780	1.702	1.602	1.708	1.880	1.595	1.565	1.452	1.150	0.990	1.204	1.187	1.519	1.385	1.600	2.140	2.496	2.749	2.974	3.818	4.218	4.596	5.224	5.831	6.135	6.557	6.552	6.589	6.193	6.091	6.706	6.449	4.540	2.850	2.575	2.705
325.0	513.0	487.2	399.8	287.6	275.9	352.3	493.0	670.6	883.9	1160	1424	1578	1502	1286	1256	853.9	443.6	363.4	389.7	1458	7752	9999.9	2514	27.45	7.553	4.824	3.445	2.785	2.446	2.130	1.696	1.637	1.537	1.345	1.346	1.432	1.500	1.718	1.607	1.694	1.745	1.872	1.855	1.672	1.695	1.803	1.743	1.953	1.701	1.276	1.191	1.239	1.299	1.373	1.413	1.745	2.040	2.431	2.595	3.205	3.831	4.100	4.607	5.162	5.389	5.841	6.316	6.482	6.530	5.891	5.624	5.522	6.268	6.061	5.001	3.424	2.807
330.0	527.9	534.0	470.6	373.5	329.0	387.7	515.1	683.0	876.8	1118	1359	1494	1445	1227	1069	1006	721.5	404.7	302.3	478.2	1974	6958	9999.9	5309	34.63	8.006	5.231	3.935	3.022	2.559	2.189	1.748	1.464	1.504	1.358	1.356	1.559	1.624	1.677	1.607	1.768	1.739	1.738	1.669	1.871	1.867	1.773	2.005	1.826	1.571	1.444	1.614	1.573	1.652	1.748	1.894	2.289	2.526	2.754	3.202	3.562	4.068	4.605	4.828	5.221	5.615	5.933	6.072	6.275	5.670	5.801	5.193	5.155	5.019	5.213	5.498	4.505
335.0	559.8	586.8	542.8	461.1	387.4	433.4	544.7	700.3	880.6	1086	1311	1445	1404	1227	1021	864.8	891.7	647.5	354.7	307.8	586.4	1666	3804	9999.9	3359	47.16	8.873	6.097	3.999	2.990	2.596	1.924	1.426	1.473	1.394	1.404	1.657	1.591	1.711	1.653	1.730	1.715	1.788	1.911	1.799	2.045	1.899	2.293	2.074	1.764	1.670	1.875	1.955	1.725	1.869	2.191	2.507	2.432	2.765	3.307	3.420	3.957	4.274	4.788	5.183	5.419	5.398	5.721	5.958	5.774	5.625	5.432	5.062	4.890	4.666	4.841	4.966
340.0	557.2	617.7	578.9	504.9	436.5	477.5	579.5	721.1	874.9	1076	1260	1388	1367	1228	1032	835.5	782.9	822.9	486.1	310.9	309.9	509.3	980.5	5308	9999.9	2862	35.87	8.350	5.237	3.607	2.593	2.237	1.739	1.597	1.606	1.413	1.570	1.669	1.540	1.747	1.669	1.781	1.932	1.964	1.597	2.021	2.014	2.260	2.300	1.945	1.834	2.077	2.035	2.091	2.167	2.264	2.676	2.666	2.994	3.527	3.656	3.823	4.310	4.602	4.877	5.044	5.578	5.288	5.689	5.894	5.702	5.095	4.991	4.953	4.498	4.313	4.276
345.0	555.0	612.7	619.1	550.4	512.8	532.6	613.4	735.8	880.4	1059	1227	1333	1347	1224	1053	851.3	723.5	770.6	687.8	387.7	288.4	290.9	353.4	1386	7174	9999.9	2254	26.64	7.192	5.194	3.213	2.810	1.934	1.841	1.615	1.533	1.493	1.576	1.430	1.769	1.756	1.981	1.832	1.821	1.792	2.197	1.978	2.484	2.282	1.998	1.963	2.319	2.170	2.122	2.257	2.238	2.691	2.674	3.198	3.293	3.615	3.791	4.265	4.578	4.916	4.731	5.265	5.212	5.723	5.705	5.708	4.984	5.126	4.859	4.442	3.916	4.209
350.0	539.9	599.1	612.8	582.4	568.8	609.6	698.2	806.6	930.6	1080	1210	1299	1300	1204	1068	889.1	746.4	677.5	715.7	615.7	392.2	309.0	275.5	455.7	1842	6136	9999.9	5078	31.24	7.446	4.671	3.236	2.332	1.905	1.688	1.542	1.641	1.664	1.688	1.809	1.859	1.916	1.653	1.753	1.803	2.035	1.977	2.310	2.269	2.252	1.991	2.394	2.524	2.518	2.730	2.601	3.075	3.054	3.477	3.520	3.999	4.139	4.198	4.616	4.674	4.851	5.207	5.114	5.520	5.619	5.403	5.203	5.079	4.855	4.809	4.504	4.289
355.0	511.5	595.4	627.4	608.5	620.9	696.2	792.5	914.2	1031	1147	1240	1297	1284	1214	1089	937.4	806.1	709.1	657.1	703.1	604.3	416.0	333.1	314.9	561.3	1475	3696	9999.9	3041	38.93	7.352	5.131	3.194	2.639	1.767	1.891	1.676	1.569	1.444	1.855	1.913	1.868	1.897	1.769	1.768	2.019	1.911	2.015	2.187	2.190	2.095	2.481	2.721	2.723	2.970	2.998	3.240	3.397	4.029	4.278	4.244	4.596	4.755	4.501	4.668	5.211	4.929	5.253	5.148	5.064	5.514	5.261	5.204	4.989	5.049	4.730	4.335
360.0	506.1	590.5	595.6	626.6	670.3	757.2	873.4	1013	1120	1210	1267	1305	1287	1221	1114	969.1	851.2	757.5	689.5	679.6	748.0	562.2	405.9	330.9	314.4	455.0	935.8	5262	9999.9	2483	28.40	6.486	4.087	2.660	2.056	1.984	1.735	1.784	1.692	1.867	1.870	1.845	1.963	1.577	1.797	2.056	1.834	2.114	2.145	2.136	2.123	2.560	2.916	3.009	3.122	3.389	3.602	3.829	4.122	4.146	4.549	5.031	5.132	4.843	5.210	4.967	5.089	5.396	5.141	4.957	5.546	5.221	5.330	5.070	5.146	5.327	5.002
365.0	490.6	566.6	588.2	640.0	718.2	807.7	935.2	1069	1184	1286	1323	1326	1290	1229	1124	1005	891.0	805.5	740.5	690.9	731.1	741.6	513.5	383.0	301.3	266.0	317.4	1356	7149	9999.9	373.1	16.54	5.224	3.449	2.692	2.103	1.784	1.820	1.867	1.942	1.905	1.979	1.931	1.576	1.854	1.951	1.891	2.112	2.290	1.949	2.180	2.714	2.931	3.053	3.370	3.281	3.748	4.030	4.305	4.568	4.872	5.247	5.343	4.881	5.172	4.895	5.291	5.194	5.154	5.328	5.460	5.145	5.545	5.449	5.129	5.478	5.042
370.0	461.1	532.3	565.0	631.2	728.9	852.2	1003	1122	1251	1334	1370	1350	1297	1231	1144	1038	938.7	870.6	805.3	756.0	727.1	756.4	704.5	505.3	362.6	276.3	221.3	405.7	1825	6645	9796	3808	23.70	5.661	3.629	2.596	2.189	2.059	1.942	2.184	2.030	1.974	2.000	1.745	1.900	1.853	1.912	2.109	2.097	2.020	2.177	2.649	2.947	3.199	3.537	3.446	4.028	4.331	4.588	4.903	5.105	5.250	5.286	5.180	5.471	5.140	5.439	5.493	5.266	5.412	5.476	5.360	5.372	5.340	5.312	5.478	5.200
375.0	448.7	519.1	538.9	622.6	752.8	922.8	1057	1182	1303	1378	1384	1378	1321	1239	1162	1066	986.6	929.8	871.9	826.6	782.9	752.3	758.6	696.8	475.6	343.1	253.2	236.3	506.1	1559	3943	9999.9	2422	30.74	5.322	3.493	2.700	2.110	2.219	2.238	2.264	2.099	1.992	1.885	1.855	1.775	1.846	2.027	2.143	2.101	2.209	2.690	3.259	3.135	3.674	3.861	4.218	4.668	4.762	4.973	5.139	5.376	5.494	5.467	5.480	5.191	5.502	5.435	5.063	5.440	5.402	5.419	5.475	5.853	5.320	5.437	5.662
380.0	452.0	517.9	556.8	636.7	763.9	953.3	1095	1204	1327	1398	1403	1383	1336	1248	1173	1077	1012	965.6	911.7	866.2	827.5	780.9	745.0	770.1	610.8	412.2	300.5	232.3	241.9	432.5	980.2	6539	9867	1911	21.01	4.727	3.563	2.890	2.413	2.472	2.422	2.418	2.124	2.063	2.074	1.848	1.982	2.037	2.320	2.003	2.053	2.494	3.154	3.348	3.756	3.890	4.538	4.954	4.799	5.016	5.288	5.436	5.538	5.484	5.703	5.577	5.341	5.416	5.230	5.679	5.359	5.443	5.673	5.733	5.399	5.652	5.545
385.0	453.9	505.1	530.9	624.9	769.9	960.1	1108	1213	1319	1405	1418	1374	1331	1243	1171	1082	1022	989.8	940.5	897.2	857.0	808.4	756.0	740.1	707.0	490.9	349.8	266.5	209.0	203.6	296.6	1763	6872	9083	292.2	12.77	4.561	3.957	2.739	2.579	2.484	2.317	2.598	2.023	1.982	1.901	1.931	2.105	2.281	1.868	2.220	2.617	2.947	3.375	3.599	3.745	4.479	4.892	4.887	5.288	5.693	5.490	5.464	5.454	5.327	5.367	5.169	5.554	5.271	5.315	5.263	5.584	5.436	5.398	5.667	5.495	5.860
390.0	455.0	479.3	526.2	616.9	760.7	955.1	1106	1224	1314	1381	1393	1355	1306	1232	1152	1079	1022	993.7	953.3	918.9	876.8	837.9	779.3	717.9	685.1	610.9	434.7	314.7	239.1	187.1	169.2	464.6	1793	5577	7353	2766	19.98	5.216	3.492	3.139	2.888	2.611	2.529	2.072	1.970	2.013	1.852	1.895	2.092	1.908	2.104	2.633	3.123	3.403	3.688	3.893	4.351	4.951	4.946	5.145	5.447	5.401	5.660	5.397	5.221	5.408	5.160	5.464	5.049	5.222	5.241	5.477	5.328	5.328	5.449	5.678	5.910
395.0	467.6	467.9	524.7	601.1	751.5	953.2	1112	1226	1312	1350	1370	1338	1287	1208	1133	1066	1018	993.6	959.0	921.5	889.5	851.7	797.6	729.0	658.4	609.3	553.4	391.3	287.4	221.6	170.7	196.6	464.0	1301	3271	8577	2041	26.34	5.493	4.339	3.673	2.861	2.940	2.428	2.127	2.193	1.789	2.113	2.064	2.002	2.070	2.448	2.992	3.497	3.861	3.779	4.252	4.966	4.782	5.043	5.219	5.457	5.369	5.031	5.292	5.120	4.996	5.136	4.946	5.336	5.131	5.162	5.325	5.379	5.427	5.502	5.806
400.0	465.1	470.8	510.0	580.0	742.2	941.4	1105	1224	1288	1325	1342	1301	1255	1183	1114	1048	1007	987.8	955.8	922.7	890.6	850.1	798.7	733.7	661.2	594.6	576.8	473.8	330.7	250.4	194.4	157.7	180.9	345.3	814.9	4591	8470	1642	19.45	5.616	4.334	3.639	3.097	2.536	2.152	2.125	1.841	2.071	2.116	1.875	2.070	2.498	2.994	3.406	3.685	3.972	4.164	4.692	5.020	5.010	5.052	5.199	5.230	5.000	5.159	5.025	5.022	4.855	4.750	5.178	5.162	5.141	5.589	5.183	5.415	5.483	5.766
405.0	467.2	451.1	491.3	584.2	725.4	932.9	1113	1184	1257	1293	1314	1269	1220	1156	1088	1025	990.6	969.5	936.2	911.2	879.0	841.7	794.7	733.8	667.3	591.3	543.3	525.0	396.3	285.6	220.3	167.3	134.2	145.6	230.6	1200	5706	7677	266.5	15.20	5.419	4.219	3.372	2.522	2.533	2.146	1.874	1.915	2.054	1.719	1.934	2.743	2.933	3.337	3.484	4.129	4.209	4.531	4.603	5.009	5.225	5.119	5.112	4.989	5.223	4.869	4.890	4.956	4.781	5.070	5.189	5.033	5.365	5.483	5.299	5.332	5.776
410.0	440.3	457.0	477.1	561.4	708.3	894.6	1069	1154	1229	1251	1272	1214	1170	1110	1044	990.6	955.8	928.8	908.6	878.1	849.0	817.2	775.9	720.8	660.9	587.8	526.3	500.5	468.2	351.3	255.9	192.6	146.0	118.7	113.9	311.9	1475	4723	6533	3273	19.73	5.549	4.194	2.961	2.625	2.340	2.041	2.012	2.157	1.840	2.006	2.576	2.906	3.137	3.378	3.769	4.287	4.501	4.689	4.696	5.151	5.092	5.099	4.962	4.949	4.728	4.724	4.760	4.779	4.864	4.621	4.778	5.113	5.055	5.052	5.189	5.405
415.0	412.8	442.1	467.9	533.7	684.7	851.3	1038	1133	1198	1206	1200	1160	1114	1056	994.0	940.7	903.5	888.8	866.1	841.7	814.1	783.6	743.9	697.9	646.2	582.1	521.8	478.0	454.1	422.5	306.8	218.8	165.8	128.8	102.3	124.8	368.8	1093	2895	9199	1971	25.32	5.519	3.833	3.329	2.628	1.955	2.094	2.127	1.882	2.015	2.529	2.842	2.915	3.395	3.782	4.007	4.602	4.524	4.717	4.798	5.079	5.179	4.887	4.866	4.417	4.471	4.401	4.316	4.689	4.485	4.561	5.044	4.816	4.938	5.012	5.033
420.0	403.4	422.9	453.3	507.3	646.4	837.2	1018	1102	1170	1174	1157	1126	1064	1008	950.0	901.2	863.0	844.3	829.5	806.5	779.9	751.5	718.1	682.6	636.3	579.5	525.1	471.9	433.3	431.9	363.2	243.8	182.1	141.1	107.0	91.87	129.0	277.5	711.4	4830	9986	1695	18.55	4.965	3.759	3.109	2.305	2.064	2.218	1.887	1.904	2.392	2.772	2.868	3.233	3.516	3.821	4.699	4.237	4.622	4.553	4.869	4.684	4.635	4.639	4.345	4.286	4.345	4.522	4.266	4.136	4.399	4.366	4.616	4.482	4.820	4.771
425.0	392.8	416.2	429.8	489.8	615.7	799.9	973.1	1068	1132	1149	1126	1084	1027	960.6	910.6	858.3	825.1	810.5	789.9	770.6	748.0	724.8	692.5	665.2	615.6	566.2	517.6	473.5	426.2	405.8	391.5	280.2	198.0	152.9	116.9	92.97	82.84	101.2	188.5	1248	6738	9289	255.6	12.34	4.578	3.471	2.406	2.078	2.152	1.893	1.867	2.417	2.701	2.953	3.261	3.404	4.036	4.487	4.178	4.544	4.521	4.922	4.411	4.464	4.414	4.130	4.127	4.096	4.555	4.216	4.218	4.279	4.298	4.655	4.338	4.394	4.786
430.0	421.5	389.0	412.1	466.7	582.2	763.5	921.1	1038	1092	1108	1075	1031	971.1	905.9	854.4	805.7	775.8	762.1	743.7	723.1	704.1	682.8	655.5	632.0	592.5	548.0	508.8	467.8	429.7	391.3	369.5	329.0	236.8	172.8	133.9	104.6	82.26	70.67	77.30	306.1	1726	5685	7895	2844	17.90	4.591	2.873	2.447	2.183	1.945	1.951	2.310	2.716	2.925	3.001	3.339	3.844	4.093	4.256	4.462	4.452	4.529	4.551	4.362	4.164	3.881	4.090	3.878	4.179	3.949	3.878	4.015	4.270	4.205	4.162	4.121	4.311
435.0	579.9	369.6	390.8	449.8	563.3	722.7	884.7	1005	1055	1068	1037	977.0	924.3	863.3	806.2	756.0	721.6	711.1	694.1	678.3	660.5	642.9	621.5	595.6	567.1	526.7	493.1	459.9	429.3	396.6	353.2	326.5	286.8	204.3	151.1	120.2	94.03	73.68	63.08	102.9	412.3	1304	3503	8497	1798	23.08	4.096	3.173	2.445	2.072	2.013	2.294	2.586	2.568	3.112	3.043	3.673	3.870	3.972	4.247	4.410	4.259	4.560	4.029	4.031	3.820	3.995	3.649	3.822	3.636	3.640	3.742	3.902	3.848	3.877	3.885	4.292
440.0	716.3	373.5	377.4	421.2	548.4	696.1	864.7	972.9	1037	1042	1003	943.5	886.4	828.2	770.3	719.5	691.6	676.1	663.1	647.3	627.8	610.0	597.6	573.2	548.5	516.9	482.5	454.9	429.2	395.2	353.7	310.6	295.7	239.5	168.8	129.8	105.0	81.45	65.70	64.24	124.0	316.6	847.4	4547	8200	1364	15.49	3.926	2.796	2.382	2.140	2.292	2.517	2.724	2.996	3.145	3.602	3.839	4.056	4.362	4.085	4.324	4.290	4.266	3.794	3.552	4.012	3.506	3.669	3.795	3.910	3.729	3.607	3.516	3.629	3.677	4.110
445.0	709.7	446.7	359.6	406.8	519.7	662.3	825.3	953.5	1017	1007	970.2	916.4	842.7	788.7	735.8	686.1	655.2	641.7	628.9	613.4	597.6	580.7	567.2	551.9	528.8	497.9	472.0	448.5	422.8	395.5	352.9	304.5	278.3	257.6	194.0	142.5	113.2	90.06	73.74	60.06	64.97	100.6	214.0	1168	5619	6304	209.6	10.76	3.544	2.519	2.263	2.412	2.400	2.664	3.006	3.090	3.263	3.844	4.216	4.079	4.233	4.124	4.212	4.068	3.696	3.741	3.551	3.308	3.546	3.653	3.425	3.473	3.393	3.807	3.577	3.658	3.881
450.0	533.7	597.0	362.7	387.1	499.4	627.1	781.1	908.8	966.6	954.3	930.0	868.1	800.0	746.6	687.9	639.6	607.7	591.6	577.2	568.2	547.5	537.9	528.0	513.7	495.9	470.3	451.7	430.0	409.7	388.0	350.5	299.9	264.0	244.3	218.3	165.9	125.2	100.4	84.48	68.47	59.75	59.70	77.33	284.4	1438	3952	4225	939.6	14.78	3.321	2.613	2.595	2.588	2.609	2.696	2.870	3.334	3.640	3.745	3.995	4.118	4.143	3.978	3.794	3.752	3.398	3.388	3.394	3.205	3.353	3.344	3.326	3.184	3.344	3.389	3.322	3.530
455.0	349.9	581.7	483.1	355.1	453.4	586.7	748.1	854.2	906.8	892.3	879.1	817.8	755.0	684.8	634.3	592.8	556.3	543.8	526.4	513.5	504.1	491.3	485.3	472.5	456.5	438.8	422.0	406.3	391.7	370.5	338.5	297.5	256.9	227.7	210.5	190.5	143.8	112.0	94.40	77.76	66.74	57.65	52.94	90.24	340.9	908.0	1801	4361	1409	17.51	3.571	2.832	2.700	2.692	2.674	2.662	3.205	3.433	3.343	3.786	4.058	3.740	3.734	3.540	3.283	3.252	3.412	3.301	3.135	3.142	3.185	3.347	2.890	3.026	3.208	3.134	3.246
460.0	276.6	453.4	598.7	355.5	426.4	552.3	702.6	814.1	861.3	866.7	829.2	773.9	714.5	649.4	592.5	554.8	519.2	503.6	491.2	479.2	471.5	453.6	452.0	437.3	429.4	411.3	398.2	385.8	375.9	356.2	329.3	290.5	252.7	220.2	196.2	193.3	163.0	120.2	100.5	84.76	71.85	60.79	49.97	49.91	99.01	220.3	439.3	2361	4539	994.9	12.93	3.617	3.056	2.871	2.789	2.689	3.481	3.305	3.432	3.388	3.804	3.643	3.639	3.771	3.159	3.149	3.296	3.041	2.791	3.009	2.962	2.849	2.699	2.939	2.828	2.787	3.115
465.0	261.7	323.1	634.6	418.3	407.8	523.0	649.9	753.0	811.9	815.3	789.3	727.2	668.2	611.0	553.4	514.8	482.0	464.2	454.6	442.9	433.6	423.8	420.7	411.1	400.3	387.4	377.8	364.1	355.9	340.1	316.5	281.5	246.7	215.4	188.5	177.7	169.5	132.6	105.3	88.39	75.43	64.40	52.62	44.09	47.63	68.59	112.7	607.3	3008	3864	829.0	10.22	3.736	3.090	2.907	2.780	3.175	3.326	3.381	3.421	3.375	3.681	3.413	3.513	2.961	2.990	2.959	2.693	2.973	2.611	2.706	2.734	2.640	2.511	2.674	2.855	3.144
470.0	228.0	242.7	451.5	622.0	411.7	476.9	602.5	692.5	745.7	753.1	727.5	672.4	613.2	553.9	511.6	466.4	437.4	419.8	408.4	399.2	387.1	380.6	375.1	370.9	358.8	352.6	340.3	333.0	330.0	313.7	293.0	264.1	232.9	204.2	178.8	160.9	155.4	143.1	115.7	92.10	79.02	66.72	55.34	44.98	37.98	36.70	41.53	148.7	764.5	2365	3420	878.1	16.59	3.856	3.213	2.901	3.067	3.074	3.395	3.199	3.351	3.383	3.261	3.239	2.946	2.808	2.718	2.792	2.659	2.454	2.480	2.661	2.755	2.444	2.511	2.515	2.824
475.0	216.6	213.5	270.1	633.1	559.8	430.0	543.9	628.7	682.7	685.5	665.9	614.3	553.6	498.6	462.3	417.1	393.6	372.7	362.6	353.6	345.1	334.4	331.1	326.0	316.0	313.8	303.5	298.8	296.6	286.0	270.7	241.6	216.9	194.2	169.4	151.8	135.9	132.4	126.4	98.30	79.05	67.64	57.84	46.33	37.92	30.97	27.48	47.68	181.8	542.7	1339	3651	1496	22.07	3.817	3.014	3.136	3.042	2.856	2.875	3.037	3.069	2.834	2.686	2.726	2.582	2.577	2.509	2.341	2.227	2.326	2.329	2.298	2.199	2.312	2.309	2.473
480.0	197.6	194.4	211.8	471.9	873.1	442.7	501.8	597.5	634.1	645.0	626.2	575.9	517.8	463.2	428.7	386.4	359.7	344.5	332.7	320.5	316.2	308.2	300.2	299.5	291.7	287.8	281.4	279.0	274.6	267.4	254.7	226.9	205.1	186.0	163.7	143.8	130.2	120.5	122.9	104.3	81.89	68.30	57.77	47.39	38.37	31.19	25.54	25.86	52.63	131.2	321.2	1866	3834	1204	17.19	3.585	3.242	2.939	2.826	2.852	2.978	2.872	2.952	2.769	2.556	2.439	2.375	2.279	2.193	2.227	2.163	2.140	2.101	2.037	2.243	2.327	2.297
485.0	180.0	184.7	191.9	298.9	1006	600.1	463.7	557.4	597.1	609.1	582.3	537.9	487.4	439.3	403.2	361.1	338.6	322.4	305.4	300.5	291.3	286.4	276.6	275.7	270.9	266.0	262.6	260.4	255.2	251.6	241.4	217.2	193.5	176.4	156.6	139.2	124.1	113.3	112.7	109.6	86.57	69.47	57.80	48.87	40.21	32.56	26.49	21.61	25.19	39.79	81.04	471.8	2310	3652	895.4	11.95	3.559	3.205	2.945	3.038	2.716	2.724	2.765	2.783	2.580	2.512	2.246	2.501	2.123	2.147	2.062	1.988	2.002	1.917	2.126	2.012	2.145
490.0	157.3	186.7	173.8	219.5	707.1	1138	545.2	511.0	551.5	563.1	542.7	497.7	454.5	405.5	365.7	331.2	308.5	292.8	277.3	269.5	262.4	258.0	252.1	251.4	245.3	243.5	237.4	237.7	233.2	230.3	222.6	201.6	181.7	163.9	147.2	131.4	118.8	107.3	101.0	100.4	93.12	73.82	59.81	49.70	42.13	34.36	27.87	23.16	20.26	21.07	28.16	114.4	570.8	1864	2905	916.4	17.24	3.828	3.172	2.946	2.770	2.711	2.507	2.519	2.508	2.288	2.236	2.313	2.095	2.084	1.788	1.946	1.871	1.923	1.924	1.914	2.036
495.0	141.4	172.4	173.8	181.9	350.0	1305	1124	472.5	504.7	506.9	494.2	464.8	415.5	367.4	334.9	301.4	274.3	266.4	245.8	243.3	237.3	227.7	225.7	226.1	218.6	219.5	215.6	214.3	212.7	210.3	199.8	184.6	167.5	150.6	137.4	124.2	112.4	101.4	93.96	87.76	88.20	81.22	63.58	51.03	42.50	36.32	30.17	25.23	21.39	17.87	17.68	35.51	135.7	425.2	1081	2900	1549	23.28	3.722	2.962	2.937	2.652	2.478	2.253	2.260	2.212	2.141	1.895	2.002	1.921	1.628	1.535	1.713	1.821	1.744	1.756	1.767
500.0	128.7	146.5	168.3	169.0	241.9	905.3	1898	535.8	464.2	476.3	459.2	425.9	382.4	338.4	311.4	278.3	250.9	239.7	229.1	221.4	214.8	208.6	205.8	204.2	201.5	197.7	196.3	197.7	197.1	193.7	184.9	170.3	156.8	141.3	129.6	118.8	105.3	97.30	89.15	82.38	79.54	80.15	67.85	52.15	43.35	36.41	31.07	25.57	21.71	18.25	15.74	18.26	39.52	102.8	256.8	1357	3392	1151	16.54	3.156	2.979	2.665	2.388	2.300	2.018	1.961	1.926	1.817	1.856	1.868	1.596	1.409	1.544	1.574	1.597	1.655	1.665
505.0	123.1	123.7	150.7	156.6	201.2	476.4	2257	1007	434.3	436.6	431.1	392.8	354.4	318.9	286.1	256.6	235.0	221.2	209.0	201.8	197.3	190.7	187.2	188.6	184.0	180.7	179.0	178.7	179.4	178.1	172.2	157.3	144.9	130.8	120.9	111.0	99.92	91.84	84.33	78.25	72.28	72.43	68.76	54.55	42.34	36.63	31.39	26.52	22.47	18.65	16.18	14.80	18.19	31.19	64.93	334.7	1959	3143	227.1	9.917	3.137	2.781	2.366	2.212	2.096	1.856	1.795	1.636	1.792	1.848	1.643	1.341	1.522	1.504	1.550	1.388	1.370
510.0	105.3	105.3	128.9	157.9	178.5	283.8	1417	2424	576.9	393.9	390.5	353.5	323.9	284.9	255.3	224.6	211.0	194.9	184.8	179.7	173.3	167.8	166.2	164.5	162.0	159.4	159.0	158.9	159.0	159.3	152.8	139.3	130.8	117.4	107.5	98.77	91.52	84.51	77.65	71.79	65.42	62.38	61.99	57.55	45.03	35.85	30.80	26.45	22.84	19.77	16.73	14.46	13.57	15.38	21.97	81.25	483.4	1647	1976	928.4	15.86	3.086	2.411	2.130	2.016	1.721	1.657	1.587	1.674	1.528	1.460	1.370	1.427	1.354	1.363	1.385	1.250
515.0	96.73	99.89	105.4	140.1	168.2	210.4	542.2	2757	1663	357.7	344.4	313.7	284.6	247.7	223.8	199.5	181.6	167.3	160.1	155.4	150.3	146.0	143.9	141.8	140.5	139.0	138.1	136.2	137.2	138.2	133.3	122.3	114.3	104.3	95.30	88.76	81.56	75.65	70.26	65.08	59.44	55.96	52.39	54.35	49.18	36.65	30.14	25.18	22.07	19.64	16.66	14.81	12.91	12.01	12.50	24.82	113.4	374.4	803.0	2437	1277	21.37	2.722	1.967	1.995	1.786	1.564	1.384	1.430	1.500	1.288	1.358	1.213	1.245	1.296	1.238	1.168
520.0	94.50	86.68	95.06	128.6	161.2	191.8	302.7	1736	3137	478.9	313.4	284.0	259.9	224.9	202.2	179.9	162.5	153.9	145.9	139.4	132.8	131.7	130.5	126.4	125.8	124.6	123.1	121.6	123.8	124.0	122.6	111.6	102.7	94.97	86.85	80.99	74.61	68.02	65.18	59.72	55.11	50.48	46.06	45.96	48.42	39.13	29.96	24.74	21.34	19.04	16.61	14.97	13.10	11.14	10.59	12.25	31.36	88.46	192.0	1185	2509	239.3	13.45	2.177	1.947	1.697	1.659	1.570	1.387	1.329	1.169	1.116	1.171	1.143	1.125	1.076	1.025
525.0	69.98	75.38	86.81	112.4	171.8	171.2	227.1	744.2	3833	1350	284.8	261.0	236.2	206.9	185.0	162.2	147.1	139.5	129.6	126.8	119.2	117.0	117.9	113.8	115.2	112.7	110.0	111.9	112.4	111.6	110.8	102.3	94.82	86.93	80.27	73.41	68.16	63.19	59.40	55.13	50.85	46.50	43.71	40.45	42.96	39.74	30.80	24.61	20.86	18.32	16.32	14.34	13.27	11.22	10.34	9.478	12.67	24.79	47.63	296.3	1500	1897	207.1	5.313	2.054	1.717	1.453	1.509	1.279	1.230	1.310	1.129	1.157	1.059	1.114	0.993	1.123
530.0	67.18	72.03	75.76	85.46	150.6	174.2	192.0	339.6	2223	3896	436.2	232.0	208.8	186.6	164.3	144.6	130.9	122.6	115.9	109.0	104.6	103.5	101.3	101.2	98.29	96.80	96.38	98.37	98.51	97.72	95.98	89.03	83.03	76.69	70.83	65.01	60.98	57.15	52.98	48.89	45.33	41.92	39.58	35.42	35.41	36.34	32.71	24.94	20.70	17.94	15.59	13.90	12.63	11.34	10.00	8.835	8.719	10.50	15.26	70.29	373.8	1150	1558	582.0	13.29	1.853	1.361	1.364	1.295	1.176	1.161	0.981	1.004	0.873	0.931	1.029	0.935
535.0	64.35	62.22	62.38	77.89	111.4	180.4	170.4	227.6	708.5	4420	1568	211.6	188.4	164.0	140.7	127.4	112.8	105.8	97.93	95.51	89.91	89.37	86.56	84.18	83.29	82.84	83.42	83.30	84.51	83.83	83.91	76.92	72.78	66.60	61.03	56.58	53.52	49.52	46.30	43.22	40.23	37.53	35.03	32.12	29.72	28.86	30.67	26.45	20.97	16.90	14.84	13.13	12.21	10.78	9.994	8.450	7.997	7.346	7.764	19.62	86.50	262.0	628.5	1626	799.2	15.43	1.577	1.340	1.188	1.144	1.094	0.906	0.893	0.835	0.727	0.968	0.766
540.0	57.31	59.02	58.82	66.07	88.60	173.8	166.2	186.7	305.0	2650	3184	318.3	167.2	148.1	128.2	116.0	101.5	93.87	87.16	84.50	82.05	81.48	77.68	76.25	75.43	75.15	73.90	74.15	74.65	75.54	74.72	67.70	63.98	59.62	55.10	50.79	47.64	44.81	41.61	38.76	36.60	33.65	31.87	30.13	27.10	24.73	27.03	26.20	21.52	16.37	14.20	12.52	11.52	10.49	9.276	8.839	7.616	6.469	5.859	8.166	22.66	61.31	150.5	839.8	1714	220.8	8.008	1.466	1.241	1.098	0.953	0.936	0.905	0.706	0.784	0.821	0.882
545.0	55.40	55.34	54.14	60.18	80.16	143.1	177.2	161.9	208.6	986.9	3748	1047	151.7	134.3	115.5	103.8	90.90	86.78	79.41	76.90	72.53	72.08	68.54	68.43	69.27	67.08	65.70	66.77	68.42	68.41	66.35	61.06	57.35	53.87	49.39	46.22	43.59	40.53	38.05	35.20	33.09	31.11	29.79	27.59	25.27	23.25	22.30	23.78	22.07	16.70	13.53	12.04	11.03	9.986	8.962	8.355	7.629	6.343	5.266	5.377	8.438	16.68	36.31	213.0	1108	1381	170.7	3.009	1.405	0.997	1.091	0.952	0.853	0.761	0.721	0.904	0.689
550.0	58.55	48.77	46.55	50.62	70.34	109.1	185.0	155.3	168.4	356.1	2009	3169	376.5	117.4	101.9	90.09	81.48	74.92	69.39	65.73	63.35	62.59	60.14	59.30	58.66	58.53	58.03	57.24	58.80	58.40	56.99	53.24	49.66	46.68	43.35	40.07	37.63	35.27	33.07	31.17	29.53	27.81	26.14	24.44	22.56	21.05	19.42	18.96	19.97	17.42	13.80	11.15	10.11	9.257	8.320	7.528	6.966	6.390	5.387	4.684	4.901	6.407	10.47	49.94	281.1	855.6	1104	384.2	11.18	1.109	1.067	0.962	0.746	0.756	0.740	0.819	0.701
555.0	51.09	50.57	45.25	44.60	58.43	83.85	149.8	172.9	147.0	192.2	611.7	3393	1413	111.5	88.45	76.78	70.08	64.54	60.99	56.57	55.21	53.27	52.75	52.38	50.58	49.28	49.99	49.55	50.64	49.57	49.01	45.21	42.71	39.08	36.56	34.34	31.87	30.42	28.85	26.86	25.09	24.26	22.49	21.51	19.92	18.16	16.79	15.45	16.26	16.47	14.56	10.80	9.149	8.408	7.577	7.228	6.380	5.538	5.734	4.379	4.128	4.106	4.737	13.31	64.69	195.0	491.2	1177	242.0	11.50	1.104	0.985	0.752	0.635	0.667	0.675	0.534
560.0	53.46	43.44	37.97	42.18	51.35	73.35	115.2	186.2	138.4	155.5	245.7	1822	3461	164.6	78.46	67.35	60.99	56.64	51.86	49.89	47.84	47.55	46.48	44.17	45.03	42.02	42.81	42.58	44.46	42.82	42.89	39.28	37.35	33.96	31.92	30.20	28.15	27.36	25.85	23.47	21.63	21.41	20.31	18.68	17.39	15.91	15.00	13.67	13.48	14.14	14.25	10.76	8.656	7.716	6.907	6.287	5.962	5.110	5.547	4.432	3.759	3.479	3.291	5.017	16.39	45.55	120.1	652.0	1062	194.9	4.133	0.939	0.913	0.785	0.648	0.718	0.529
565.0	47.20	41.91	40.31	39.35	45.25	64.23	90.28	176.5	145.7	137.3	165.3	650.3	3772	977.6	70.11	60.36	54.34	49.28	46.18	42.52	42.14	40.81	40.48	37.89	37.08	37.49	37.59	38.00	38.12	38.01	37.68	34.78	31.96	30.91	27.87	26.43	24.78	23.52	22.89	20.42	19.23	18.88	17.94	16.12	15.76	14.44	13.14	12.26	11.24	11.39	12.22	11.11	8.400	7.224	6.487	5.827	5.370	4.700	4.709	4.519	3.714	3.021	2.828	3.104	5.429	11.96	28.58	169.3	748.5	922.9	31.33	1.601	0.778	0.667	0.717	0.588	0.550
570.0	54.72	47.33	37.30	34.12	40.63	52.65	72.07	133.2	167.6	133.9	142.8	252.6	1752	3131	284.1	50.77	45.00	41.50	38.29	34.59	33.41	33.99	32.20	31.40	31.28	31.21	30.62	30.24	30.60	30.74	30.29	27.69	26.24	24.87	23.01	21.81	20.39	19.27	18.27	17.09	16.22	15.32	14.84	13.25	13.05	12.10	11.13	10.06	9.270	8.688	9.135	9.601	8.160	6.701	5.661	5.174	4.842	4.217	3.921	3.783	3.603	3.151	2.485	2.412	2.890	4.207	7.787	39.40	193.9	589.6	695.4	136.5	5.792	0.653	0.647	0.598	0.517
575.0	58.60	45.05	33.99	31.68	33.01	41.62	59.46	92.22	171.8	139.6	138.4	160.4	493.6	2843	1073	47.26	35.14	32.17	30.22	27.81	25.99	26.42	25.66	24.15	24.33	24.38	24.01	23.80	23.29	23.67	23.56	21.66	19.96	19.52	18.07	16.91	15.74	15.10	14.05	13.63	12.45	11.94	11.82	10.46	10.45	9.346	8.902	8.062	7.394	6.695	6.711	7.183	7.632	6.302	5.309	4.454	4.209	3.687	3.368	3.044	3.086	2.882	2.482	2.123	2.058	2.201	2.964	9.922	44.46	134.5	319.8	735.7	181.6	2.518	0.666	0.521	0.506
580.0	56.85	47.40	34.03	26.94	30.90	41.19	52.73	76.55	150.8	165.1	139.8	142.5	193.0	1315	3058	101.8	30.24	27.32	25.12	23.93	21.60	22.37	21.12	20.06	20.70	19.42	19.50	19.91	19.19	19.84	19.38	18.01	16.57	16.12	14.96	13.51	12.56	12.31	11.56	11.09	10.55	9.687	9.631	8.852	8.510	7.844	7.459	6.647	6.248	5.547	5.495	5.376	6.045	5.845	5.035	3.814	3.482	3.160	3.006	2.635	2.413	2.728	2.300	1.923	1.971	1.807	1.748	3.362	10.99	31.11	77.93	443.7	610.1	30.00	1.072	0.638	0.536
585.0	54.86	43.48	29.99	26.27	25.56	34.28	48.75	68.23	116.9	182.0	143.3	141.7	130.1	418.8	3250	708.2	27.35	23.07	20.20	19.60	18.55	18.68	17.90	16.80	17.70	16.27	16.13	16.72	16.13	16.48	16.43	14.98	13.66	13.10	12.38	11.59	10.16	10.15	9.881	9.204	9.111	8.513	7.976	7.774	7.112	6.832	6.239	5.716	5.167	4.690	4.551	4.283	4.880	5.405	4.768	3.447	3.150	2.609	2.611	2.241	2.177	2.255	2.225	1.853	1.843	1.698	1.700	1.976	3.499	7.795	18.29	120.4	500.9	263.3	23.68	0.764	0.485
590.0	51.29	41.77	29.03	22.24	23.31	31.61	43.79	59.55	93.89	173.7	167.8	140.6	116.6	148.7	1418	2325	68.53	18.99	16.70	15.80	15.05	14.55	14.07	13.50	13.74	13.23	12.82	12.59	12.85	13.06	12.74	11.85	10.97	10.43	9.637	8.995	8.304	8.154	8.058	7.245	7.065	6.965	6.475	6.262	5.634	5.270	4.981	4.771	4.158	3.760	3.699	3.390	3.541	3.978	4.123	3.702	2.975	2.268	2.103	1.953	1.837	1.839	1.826	1.983	1.682	1.593	1.364	1.388	1.722	2.641	4.830	27.64	137.3	330.8	330.1	89.50	2.730
595.0	48.30	42.84	29.85	19.11	22.28	26.97	39.50	57.54	78.13	137.4	195.6	144.3	114.7	84.40	358.6	2058	738.8	17.67	13.27	12.94	12.51	10.88	11.12	11.14	10.34	10.18	10.33	9.611	10.42	10.13	9.557	8.990	9.142	8.115	7.660	7.116	6.518	6.112	6.589	5.855	5.620	5.269	4.771	4.590	4.320	4.329	3.847	3.569	3.388	3.065	3.060	2.656	2.695	2.609	3.061	3.180	2.989	2.084	1.850	1.648	1.699	1.726	1.641	1.744	1.687	1.660	1.324	1.233	1.298	1.426	1.836	6.838	31.12	77.66	209.9	389.6	33.65
600.0	47.79	39.46	24.21	19.68	19.65	25.11	34.29	47.75	71.80	115.6	193.4	150.0	112.0	68.84	109.6	926.4	1802	54.89	12.41	11.24	10.66	9.591	9.757	9.174	8.577	8.158	8.126	8.550	8.409	8.024	7.764	7.488	7.499	6.876	6.269	6.064	5.595	5.307	5.379	4.812	4.517	4.315	4.108	4.111	3.682	3.757	3.155	3.156	2.986	2.589	2.551	2.218	2.168	2.023	2.418	2.761	2.792	2.213	1.698	1.523	1.397	1.389	1.434	1.467	1.503	1.587	1.299	1.309	1.190	1.040	1.008	2.079	7.592	17.99	55.13	277.5	274.0
605.0	50.08	35.92	23.84	17.29	17.74	26.33	32.60	44.42	65.95	100.3	170.6	161.3	107.3	66.39	53.64	275.1	1932	445.9	11.24	9.982	8.682	8.582	8.369	7.927	7.302	7.125	6.736	7.338	7.233	7.242	6.829	6.333	5.984	5.407	5.482	5.217	4.826	4.396	4.549	3.810	3.794	3.570	3.621	3.492	3.103	2.985	2.915	2.693	2.550	2.216	2.128	1.968	1.859	1.942	1.874	2.222	2.477	2.125	1.497	1.295	1.453	1.204	1.319	1.514	1.425	1.437	1.451	1.214	1.083	0.886	0.854	1.013	2.433	4.411	12.92	81.64	280.7
610.0	45.05	33.83	24.60	19.49	17.17	24.24	31.42	45.28	64.65	89.55	135.6	172.4	112.1	65.08	40.46	78.95	877.4	1481	44.62	8.698	7.634	7.034	6.569	6.098	6.012	6.002	5.691	6.119	5.840	5.875	5.791	5.171	4.829	4.637	4.404	4.222	4.052	3.741	3.520	3.133	3.398	3.055	3.091	2.831	2.715	2.669	2.305	2.144	2.065	1.860	1.768	1.635	1.541	1.549	1.524	1.750	1.938	2.006	1.539	1.362	1.244	1.102	1.248	1.307	1.173	1.224	1.397	1.233	1.049	0.875	0.784	0.737	1.033	1.453	3.379	18.79	80.32
615.0	42.45	33.63	21.39	16.71	17.44	21.17	29.64	40.10	58.70	79.98	110.3	155.5	126.6	65.32	35.66	33.64	217.1	1425	550.3	8.290	6.174	6.081	5.364	4.575	5.114	4.737	4.794	5.215	4.644	4.732	4.756	4.549	3.918	3.814	3.471	3.347	3.293	3.389	2.708	2.686	2.696	2.457	2.442	2.202	2.242	2.035	1.713	1.787	1.617	1.680	1.388	1.276	1.391	1.227	1.332	1.391	1.431	1.691	1.551	1.224	0.997	0.921	1.132	1.004	1.103	0.966	1.046	1.242	1.015	0.806	0.789	0.513	0.729	0.642	1.128	4.524	18.39
620.0	42.65	33.52	21.10	15.88	17.48	20.79	27.76	39.29	55.95	76.04	96.46	124.4	136.0	63.39	35.34	23.78	59.66	690.6	1274	30.78	5.813	5.012	4.691	4.180	4.559	3.998	4.038	4.123	4.152	3.759	3.949	3.696	3.226	3.242	3.083	2.709	2.787	2.597	2.241	2.222	2.299	1.913	2.050	1.945	1.855	1.951	1.615	1.508	1.335	1.391	1.280	1.207	1.125	1.020	0.997	1.133	1.091	1.384	1.464	1.165	0.814	1.073	1.050	0.935	0.937	0.797	0.920	1.091	1.060	0.893	0.691	0.561	0.528	0.457	0.560	1.543	4.498
625.0	35.60	26.63	20.96	17.11	17.65	22.79	29.06	39.59	50.88	73.94	89.13	106.6	134.3	70.39	34.98	20.94	24.67	208.7	1433	267.9	5.413	4.594	3.804	3.822	3.530	3.567	3.400	3.586	3.234	3.290	3.419	3.071	2.866	2.716	2.570	2.460	2.264	2.243	1.989	1.908	1.869	1.807	1.744	1.781	1.595	1.525	1.423	1.272	1.239	1.153	0.966	1.080	0.962	0.903	0.905	0.812	0.980	0.988	1.162	1.264	0.845	0.942	0.996	0.754	0.780	0.801	0.724	0.764	0.873	0.955	0.651	0.459	0.489	0.544	0.470	0.630	1.321
630.0	33.66	24.73	17.68	14.65	15.93	19.15	27.14	37.79	47.81	65.33	82.01	92.51	109.8	84.40	35.85	20.76	17.29	56.52	684.8	948.2	29.66	4.125	3.743	3.413	3.120	2.885	2.970	2.763	2.855	2.788	2.729	2.615	2.266	2.177	2.189	1.979	1.907	1.929	1.625	1.710	1.638	1.547	1.594	1.429	1.315	1.301	1.204	1.090	1.075	1.020	0.852	0.918	0.802	0.784	0.780	0.712	0.869	0.828	0.965	1.094	0.980	0.923	0.782	0.750	0.759	0.772	0.678	0.698	0.772	0.885	0.734	0.614	0.522	0.545	0.389	0.458	0.632
635.0	30.11	22.60	17.28	11.65	13.37	19.58	22.99	35.62	44.57	58.13	74.71	80.66	85.06	90.52	41.61	21.19	16.28	21.44	168.5	1161	397.7	4.120	3.540	2.978	2.928	2.501	2.367	2.024	2.198	2.334	2.299	2.270	1.940	1.987	1.967	1.587	1.689	1.532	1.403	1.405	1.318	1.177	1.249	1.200	1.053	1.011	1.059	1.009	0.888	0.744	0.704	0.771	0.608	0.735	0.780	0.707	0.703	0.697	0.821	0.857	0.965	0.879	0.766	0.630	0.607	0.743	0.552	0.694	0.608	0.681	0.798	0.501	0.368	0.356	0.341	0.375	0.453
640.0	31.93	23.40	18.59	12.04	12.50	19.27	25.48	32.52	46.31	55.38	69.03	76.23	72.71	81.02	52.72	21.50	16.79	13.62	45.39	623.8	987.8	15.08	2.986	2.912	2.413	2.461	2.039	2.003	2.082	1.955	2.074	2.003	1.751	1.645	1.516	1.657	1.421	1.342	1.221	1.223	1.087	1.226	1.071	0.983	0.969	0.964	0.917	0.878	0.743	0.697	0.650	0.711	0.624	0.666	0.730	0.647	0.667	0.754	0.636	0.713	0.818	0.884	0.874	0.639	0.595	0.636	0.641	0.744	0.604	0.629	0.565	0.529	0.442	0.359	0.388	0.347	0.336
645.0	32.42	23.39	20.18	13.29	12.92	17.68	23.72	34.24	42.24	50.87	62.78	69.73	67.20	67.78	61.99	25.20	17.49	13.02	17.10	193.6	1255	64.28	3.268	2.712	2.195	2.161	1.952	2.069	2.080	1.708	1.893	1.760	1.639	1.644	1.382	1.252	1.248	1.131	1.085	1.093	0.928	1.014	0.964	0.901	0.779	0.799	0.687	0.741	0.586	0.551	0.631	0.592	0.596	0.567	0.634	0.638	0.551	0.568	0.590	0.639	0.704	0.814	0.851	0.617	0.612	0.551	0.575	0.579	0.523	0.482	0.541	0.477	0.510	0.457	0.343	0.435	0.321
650.0	32.01	24.86	22.29	14.90	12.67	16.55	23.61	32.19	38.27	49.46	59.97	64.92	65.04	56.22	64.34	29.71	16.74	13.30	11.30	51.16	905.6	476.5	4.540	2.678	2.207	1.764	1.905	1.719	1.734	1.525	1.580	1.475	1.465	1.268	1.178	1.038	1.166	1.047	1.017	0.951	0.952	0.841	0.885	0.770	0.887	0.675	0.725	0.727	0.611	0.528	0.506	0.611	0.472	0.510	0.669	0.540	0.610	0.511	0.532	0.603	0.530	0.657	0.783	0.658	0.644	0.518	0.510	0.560	0.497	0.552	0.492	0.417	0.514	0.597	0.374	0.405	0.271
