Sample:	'1
File name:	Default_20240104_165135.FD3
Run date:	'16:45:14, 01/04/2024
Operator:	dsjg
Comment:	'

Instrument
Model:	F-2700 FL Spectrophotometer
Serial number:	2198-001
ROM Version:	4J14000 07

Instrument parameters
Measurement type:	3-D scan
Data mode:	Fluorescence
EX  Start WL:	220.0 nm
EX  End WL:	600.0 nm
EX Sampling interval:	5.0 nm
EM  Start WL:	230.0 nm
EM  End WL:	650.0 nm
EM Sampling interval:	5.0 nm
Scan speed:	12000 nm/min
EX Slit:	5.0 nm
EM Slit:	5.0 nm
PMT Voltage:	700 V
Response:	Auto 
Corrected spectra:	Off
Contour interval:	50.000

Peak integration
Integration method:	Rectangular
Sensitivity:	1
Threshold:	1.000

Peaks
No.	ApexEX/EM(nm)	Height(Data)
1	225.0/610.0	21.64
2	235.0/260.0	168.4
3	235.0/350.0	941.3
4	240.0/265.0	185.2
5	245.0/270.0	170.8
6	245.0/540.0	112.6
7	250.0/275.0	187.5
8	255.0/280.0	191.9
9	255.0/445.0	318.9
10	260.0/290.0	180.4
11	275.0/310.0	874.0
12	275.0/610.0	57.91
13	280.0/315.0	900.5
14	280.0/415.0	276.1
15	280.0/620.0	48.17
16	315.0/355.0	216.3
17	320.0/360.0	208.4
18	330.0/375.0	175.7
19	335.0/380.0	186.6
20	340.0/385.0	176.3
21	340.0/425.0	231.1
22	345.0/430.0	227.4
23	350.0/400.0	207.1
24	355.0/405.0	212.5
25	400.0/465.0	57.78
26	415.0/485.0	35.10
27	425.0/500.0	30.56
28	430.0/505.0	30.33
29	435.0/510.0	28.73
30	440.0/520.0	28.42
31	445.0/525.0	26.15
32	475.0/355.0	3.645
33	520.0/285.0	1.661
34	560.0/310.0	4.925
35	570.0/315.0	5.020
36	575.0/320.0	5.014

Data points
	220.0	225.0	230.0	235.0	240.0	245.0	250.0	255.0	260.0	265.0	270.0	275.0	280.0	285.0	290.0	295.0	300.0	305.0	310.0	315.0	320.0	325.0	330.0	335.0	340.0	345.0	350.0	355.0	360.0	365.0	370.0	375.0	380.0	385.0	390.0	395.0	400.0	405.0	410.0	415.0	420.0	425.0	430.0	435.0	440.0	445.0	450.0	455.0	460.0	465.0	470.0	475.0	480.0	485.0	490.0	495.0	500.0	505.0	510.0	515.0	520.0	525.0	530.0	535.0	540.0	545.0	550.0	555.0	560.0	565.0	570.0	575.0	580.0	585.0	590.0	595.0	600.0
230.0	24.83	293.6	652.4	173.2	9.028	4.822	4.003	3.662	3.016	2.609	2.360	2.134	1.814	1.498	1.450	1.050	0.952	0.859	0.755	0.772	0.676	0.632	0.593	0.573	0.546	0.524	0.517	0.481	0.486	0.482	0.459	0.406	0.423	0.367	0.424	0.470	0.498	0.476	0.422	0.422	0.389	0.427	0.413	0.354	0.313	0.345	0.372	0.841	2.022	2.423	1.383	0.473	0.263	0.256	0.265	0.262	0.251	0.242	0.277	0.257	0.221	0.249	0.278	0.242	0.254	0.259	0.251	0.255	0.235	0.234	0.263	0.232	0.250	0.234	0.254	0.280	0.269
235.0	30.67	105.0	578.5	890.2	260.7	10.63	4.366	3.435	3.282	2.615	2.417	2.346	1.682	1.494	1.328	1.171	1.050	0.931	0.754	0.751	0.693	0.621	0.656	0.608	0.544	0.541	0.538	0.500	0.467	0.556	0.439	0.447	0.455	0.327	0.426	0.354	0.379	0.463	0.400	0.461	0.388	0.351	0.411	0.397	0.401	0.387	0.297	0.463	0.824	1.691	2.951	3.890	2.380	0.796	0.258	0.257	0.250	0.269	0.315	0.280	0.286	0.271	0.281	0.212	0.260	0.227	0.251	0.175	0.240	0.291	0.271	0.262	0.238	0.273	0.266	0.282	0.277
240.0	49.51	48.19	212.0	937.3	998.2	171.5	5.606	3.766	3.528	3.177	2.516	2.425	1.781	1.665	1.531	1.082	1.161	0.914	0.825	0.735	0.639	0.692	0.645	0.592	0.622	0.627	0.552	0.471	0.465	0.446	0.498	0.386	0.412	0.366	0.410	0.356	0.389	0.469	0.406	0.463	0.485	0.403	0.416	0.396	0.407	0.460	0.386	0.395	0.414	0.677	1.407	3.733	5.551	4.120	1.808	0.470	0.239	0.233	0.290	0.265	0.280	0.247	0.278	0.240	0.250	0.259	0.293	0.202	0.274	0.240	0.218	0.212	0.241	0.236	0.243	0.290	0.236
245.0	59.07	73.73	69.87	391.6	 1212	872.0	102.5	4.525	3.737	3.656	2.873	2.568	2.274	1.768	1.418	1.154	1.075	0.927	0.708	0.763	0.710	0.671	0.577	0.524	0.563	0.607	0.521	0.617	0.511	0.484	0.503	0.434	0.401	0.385	0.373	0.346	0.307	0.448	0.423	0.478	0.429	0.416	0.417	0.347	0.397	0.439	0.469	0.533	0.381	0.376	0.569	1.283	3.142	5.692	5.829	3.661	1.110	0.323	0.267	0.275	0.272	0.241	0.258	0.240	0.303	0.298	0.261	0.228	0.338	0.252	0.247	0.245	0.236	0.228	0.274	0.269	0.287
250.0	30.79	85.51	106.7	126.2	452.7	 1027	796.5	165.0	13.57	3.532	3.255	2.631	2.336	1.829	1.513	1.294	1.050	1.087	0.763	0.785	0.715	0.661	0.615	0.592	0.592	0.540	0.606	0.549	0.456	0.482	0.528	0.475	0.419	0.407	0.383	0.337	0.319	0.358	0.418	0.482	0.416	0.442	0.425	0.408	0.406	0.405	0.410	0.522	0.599	0.613	0.524	0.576	0.993	1.906	3.140	4.534	5.333	4.958	2.868	1.049	0.340	0.227	0.271	0.261	0.285	0.254	0.263	0.263	0.281	0.253	0.261	0.272	0.272	0.247	0.310	0.235	0.312
255.0	21.47	36.12	111.7	148.0	135.3	295.0	862.6	 1248	224.3	12.80	3.386	2.564	2.392	1.701	1.600	1.219	1.297	1.083	0.809	0.815	0.649	0.614	0.644	0.620	0.540	0.507	0.567	0.537	0.437	0.540	0.424	0.521	0.395	0.406	0.371	0.363	0.355	0.363	0.331	0.438	0.364	0.441	0.376	0.441	0.396	0.408	0.300	0.368	0.429	0.535	0.870	0.827	0.670	0.701	0.960	1.266	2.100	4.347	6.876	7.435	4.264	1.137	0.365	0.317	0.276	0.286	0.257	0.240	0.259	0.275	0.238	0.236	0.263	0.300	0.300	0.249	0.287
260.0	16.87	16.52	56.24	168.4	131.4	86.33	305.6	 1150	 1184	167.4	7.240	2.985	2.616	2.062	1.699	1.310	1.294	1.183	0.755	0.713	0.705	0.699	0.596	0.603	0.501	0.670	0.581	0.567	0.414	0.477	0.488	0.545	0.400	0.400	0.360	0.347	0.304	0.358	0.302	0.344	0.356	0.460	0.429	0.428	0.429	0.353	0.350	0.394	0.325	0.333	0.533	0.863	1.094	0.781	0.521	0.525	0.729	1.366	3.148	6.315	8.764	6.992	2.936	0.638	0.298	0.279	0.245	0.292	0.291	0.256	0.262	0.214	0.283	0.254	0.253	0.224	0.295
265.0	15.97	14.56	22.16	98.08	185.2	87.13	83.38	448.9	 1332	 1050	124.5	4.374	2.896	2.209	1.800	1.518	1.223	1.065	0.872	0.743	0.756	0.705	0.610	0.611	0.524	0.676	0.603	0.573	0.459	0.489	0.531	0.542	0.441	0.364	0.410	0.363	0.273	0.418	0.293	0.287	0.371	0.387	0.482	0.378	0.446	0.424	0.355	0.318	0.343	0.313	0.336	0.532	0.903	1.170	1.021	0.537	0.405	0.555	1.020	2.109	4.818	8.154	9.490	5.738	1.722	0.353	0.273	0.260	0.298	0.305	0.290	0.250	0.315	0.213	0.271	0.268	0.294
270.0	16.08	14.19	12.53	32.10	104.2	170.8	101.1	122.2	467.7	 1070	 1152	424.2	25.48	2.564	2.286	1.788	1.324	1.180	0.858	0.856	0.770	0.770	0.748	0.615	0.621	0.599	0.585	0.608	0.509	0.481	0.504	0.491	0.462	0.424	0.403	0.395	0.301	0.387	0.296	0.301	0.324	0.324	0.390	0.400	0.430	0.421	0.379	0.356	0.340	0.280	0.303	0.345	0.445	0.642	0.979	1.062	0.957	0.744	0.543	0.710	1.374	2.496	4.513	6.458	7.730	6.842	4.053	1.466	0.386	0.298	0.282	0.253	0.297	0.256	0.265	0.263	0.266
275.0	18.69	16.95	13.68	15.21	31.46	98.02	187.5	116.3	119.9	292.4	852.9	 1413	582.8	21.83	2.658	1.901	1.542	1.244	1.042	0.898	0.860	0.804	0.791	0.611	0.595	0.590	0.611	0.588	0.546	0.565	0.481	0.472	0.445	0.456	0.404	0.398	0.445	0.405	0.322	0.313	0.333	0.327	0.366	0.310	0.409	0.427	0.395	0.389	0.349	0.332	0.308	0.312	0.378	0.378	0.474	0.596	0.999	1.418	1.163	0.744	0.596	0.811	1.349	1.750	2.571	4.922	8.302	9.143	5.364	1.438	0.280	0.256	0.251	0.280	0.306	0.264	0.272
280.0	21.16	19.65	14.33	12.23	14.37	37.45	139.8	191.9	85.33	82.43	277.7	 1066	 1276	127.9	8.678	2.112	1.786	1.360	1.080	0.925	0.867	0.840	0.790	0.641	0.590	0.574	0.528	0.615	0.550	0.519	0.581	0.463	0.455	0.506	0.397	0.380	0.410	0.338	0.370	0.316	0.318	0.345	0.338	0.289	0.437	0.431	0.384	0.360	0.392	0.358	0.342	0.315	0.356	0.317	0.333	0.358	0.576	0.959	1.428	1.390	0.911	0.550	0.577	0.626	0.851	1.510	3.522	6.838	9.718	8.456	3.577	0.589	0.287	0.286	0.281	0.294	0.267
285.0	27.45	24.14	19.27	14.13	12.03	17.22	62.78	180.7	169.4	57.87	83.59	378.3	 1145	 1002	96.75	3.682	1.990	1.554	1.322	0.942	0.888	1.015	0.748	0.679	0.584	0.622	0.599	0.722	0.480	0.557	0.479	0.490	0.517	0.462	0.458	0.438	0.406	0.383	0.306	0.345	0.302	0.324	0.311	0.303	0.375	0.444	0.414	0.418	0.427	0.382	0.352	0.351	0.315	0.296	0.391	0.384	0.384	0.526	0.884	1.332	1.661	1.076	0.577	0.448	0.492	0.653	1.088	2.203	4.661	8.357	9.728	6.711	1.878	0.332	0.300	0.276	0.255
290.0	31.13	30.27	27.53	19.34	15.60	17.97	30.30	84.47	180.4	173.3	83.25	118.5	383.2	843.0	936.4	366.7	22.45	2.436	1.596	1.195	1.026	0.876	0.913	0.782	0.709	0.671	0.641	0.604	0.510	0.499	0.491	0.496	0.465	0.479	0.447	0.421	0.417	0.394	0.327	0.365	0.279	0.323	0.333	0.305	0.319	0.356	0.437	0.423	0.416	0.425	0.346	0.344	0.384	0.357	0.391	0.349	0.349	0.422	0.499	0.670	0.936	1.258	1.352	1.148	0.769	0.562	0.597	0.842	1.432	2.613	4.350	6.383	7.197	6.694	4.060	1.280	0.305
295.0	37.04	42.98	39.91	29.46	26.99	29.34	36.64	52.18	101.9	215.0	208.8	115.1	146.3	255.6	583.4	 1215	536.5	25.82	2.884	1.652	1.229	1.043	0.941	0.973	0.729	0.711	0.628	0.654	0.566	0.542	0.474	0.557	0.431	0.507	0.473	0.441	0.394	0.357	0.369	0.335	0.269	0.282	0.412	0.332	0.293	0.304	0.324	0.386	0.466	0.437	0.349	0.450	0.414	0.443	0.435	0.403	0.395	0.460	0.470	0.490	0.573	0.722	0.890	1.563	1.853	1.376	0.863	0.780	0.819	1.090	1.424	1.916	2.575	4.567	8.468	9.853	5.389
300.0	51.91	69.56	73.06	59.71	55.33	64.75	87.96	114.1	163.7	251.6	423.4	370.9	172.3	173.9	311.0	845.6	 1425	412.9	14.62	2.486	1.538	1.148	1.002	0.934	0.829	0.717	0.678	0.683	0.640	0.584	0.564	0.555	0.491	0.475	0.469	0.424	0.397	0.409	0.427	0.352	0.259	0.341	0.358	0.298	0.310	0.368	0.368	0.499	0.560	0.526	0.507	0.587	0.538	0.511	0.554	0.549	0.600	0.682	0.802	0.762	0.957	0.984	1.134	1.568	2.123	2.734	2.378	2.004	1.491	1.295	1.508	1.446	1.711	2.167	3.883	7.439	10.51
305.0	74.61	126.1	129.7	111.8	108.9	137.7	189.9	253.8	288.9	473.8	657.0	790.5	576.8	425.0	411.3	517.1	 1187	 1466	69.10	5.622	1.919	1.414	1.125	1.000	0.858	0.783	0.876	0.798	0.743	0.641	0.586	0.530	0.558	0.618	0.546	0.460	0.464	0.381	0.407	0.347	0.333	0.394	0.374	0.315	0.307	0.441	0.534	0.568	0.641	0.600	0.648	0.677	0.797	0.771	0.753	0.799	1.013	1.146	1.199	1.418	1.737	1.871	2.299	2.550	3.029	3.776	4.061	4.323	3.533	2.670	2.651	2.438	2.353	2.448	2.656	3.426	6.286
310.0	107.6	183.5	196.7	167.7	159.8	194.5	263.4	345.3	430.7	584.4	714.5	874.0	848.1	630.6	513.7	436.9	637.7	 1013	 1069	269.5	16.62	1.842	1.445	1.035	0.972	0.887	0.821	0.831	0.728	0.626	0.627	0.547	0.547	0.626	0.522	0.493	0.473	0.392	0.452	0.374	0.360	0.436	0.362	0.394	0.383	0.474	0.542	0.662	0.827	0.741	0.782	0.863	0.879	0.912	1.007	1.073	1.217	1.441	1.720	1.928	2.031	2.471	2.749	3.200	3.534	3.808	4.096	4.733	4.925	4.466	3.735	3.127	3.123	3.074	2.665	2.499	3.462
315.0	137.7	248.5	276.1	233.6	215.2	243.1	312.1	385.8	489.9	637.3	752.6	871.8	900.5	836.2	641.2	463.2	498.7	461.8	519.7	 1184	417.3	15.06	1.756	1.336	1.256	0.893	0.820	0.845	0.828	0.698	0.713	0.572	0.580	0.658	0.554	0.499	0.548	0.447	0.414	0.409	0.371	0.447	0.428	0.428	0.444	0.640	0.621	0.852	0.936	1.001	1.011	1.045	1.061	1.147	1.184	1.265	1.465	1.676	1.950	2.195	2.408	2.720	3.033	3.259	3.673	4.031	3.938	4.513	4.637	4.777	5.020	4.409	3.955	3.304	2.964	2.675	3.011
320.0	161.2	283.2	331.0	266.3	238.4	263.2	338.7	421.5	507.4	646.2	772.5	873.2	881.3	851.2	766.3	495.0	469.6	333.0	188.0	639.2	 1286	306.4	6.000	1.678	1.295	1.227	1.028	0.897	0.787	0.807	0.740	0.666	0.602	0.641	0.581	0.567	0.461	0.441	0.431	0.407	0.351	0.403	0.418	0.407	0.431	0.636	0.755	1.071	1.088	1.223	1.007	1.141	1.200	1.189	1.318	1.364	1.443	1.751	2.021	2.292	2.391	2.798	3.055	3.417	3.797	4.008	4.073	4.598	4.667	4.376	4.719	5.014	4.994	3.944	3.243	2.796	2.728
325.0	172.2	332.4	377.8	310.3	255.1	267.4	335.0	407.5	474.6	600.0	719.9	822.8	806.4	760.1	762.3	543.5	441.6	290.5	99.34	203.0	821.3	 1230	51.76	3.346	1.395	1.213	1.220	0.914	0.814	0.671	0.795	0.640	0.592	0.605	0.576	0.616	0.532	0.458	0.442	0.426	0.381	0.429	0.424	0.437	0.520	0.640	0.734	1.226	1.246	1.227	1.206	1.236	1.238	1.264	1.262	1.349	1.515	1.716	2.101	2.298	2.316	2.682	2.823	3.259	3.616	3.703	4.214	4.168	4.328	4.344	4.001	4.045	4.457	4.449	3.432	2.629	2.594
330.0	211.4	426.6	550.1	513.6	402.6	300.5	325.4	377.2	427.7	537.8	651.8	744.0	750.4	685.0	650.0	578.3	481.1	278.8	99.31	90.44	249.4	728.3	 1006	220.0	15.05	1.740	1.391	0.991	0.931	0.876	0.760	0.714	0.667	0.632	0.609	0.613	0.521	0.460	0.465	0.461	0.455	0.406	0.434	0.451	0.516	0.673	0.905	1.333	1.674	1.699	1.810	2.126	1.902	1.765	1.679	1.608	1.623	1.695	2.024	2.220	2.040	2.329	2.659	2.917	3.125	3.464	3.732	3.795	4.020	3.948	3.837	3.680	3.842	3.659	3.633	3.529	3.066
335.0	260.9	553.5	781.9	831.3	656.2	387.0	329.3	353.9	406.4	501.2	606.2	693.6	706.8	651.1	595.1	515.6	539.8	343.8	135.8	94.86	112.2	214.0	459.7	 1189	355.3	15.27	1.823	1.201	1.066	0.964	0.811	0.776	0.811	0.569	0.647	0.537	0.578	0.517	0.463	0.462	0.404	0.384	0.432	0.453	0.526	0.677	0.978	1.456	2.179	2.323	2.536	3.345	3.118	2.963	2.347	1.866	1.868	1.788	1.923	2.080	1.926	2.157	2.446	2.550	2.941	3.083	3.493	3.571	3.780	3.760	3.871	3.604	3.499	3.413	3.182	3.259	3.435
340.0	271.2	572.4	853.0	916.5	714.0	412.2	315.2	339.7	363.9	454.8	544.1	637.0	645.2	604.0	546.6	452.4	465.9	398.0	170.7	102.0	87.71	97.77	157.1	633.9	 1274	273.3	5.637	1.415	1.067	1.027	0.842	0.781	0.825	0.593	0.619	0.567	0.607	0.524	0.521	0.442	0.362	0.400	0.367	0.485	0.595	0.754	0.964	1.464	2.172	2.516	2.685	3.494	3.433	3.292	2.457	1.747	1.662	1.726	1.998	1.932	2.014	2.147	2.357	2.467	2.693	2.872	3.199	3.173	3.475	3.394	3.641	3.282	3.458	3.105	2.761	2.850	2.655
345.0	248.2	555.8	833.9	919.7	709.6	399.2	295.5	302.3	336.0	398.9	487.0	563.0	574.8	547.3	493.0	404.0	375.5	363.6	235.8	112.1	83.33	74.76	78.73	199.2	834.6	 1163	45.69	2.655	1.420	1.190	0.952	0.712	0.741	0.633	0.634	0.622	0.545	0.532	0.526	0.407	0.443	0.379	0.369	0.492	0.545	0.650	0.957	1.532	2.139	2.526	2.701	3.482	3.451	3.183	2.340	1.655	1.525	1.613	1.764	1.876	1.782	1.859	2.092	2.281	2.349	2.537	2.911	2.907	3.020	3.094	3.310	2.964	3.091	2.834	2.554	2.442	2.491
350.0	233.8	538.0	829.2	941.3	755.4	412.7	290.2	291.0	309.8	363.6	426.8	487.7	510.6	491.2	445.1	368.7	327.0	280.3	251.0	188.4	103.6	78.80	71.93	84.05	232.8	688.0	925.4	198.3	13.34	1.411	1.064	0.882	0.817	0.725	0.729	0.613	0.557	0.525	0.480	0.406	0.423	0.393	0.428	0.473	0.488	0.687	1.000	1.646	2.080	2.427	2.839	3.598	3.592	3.388	2.470	1.764	1.635	1.511	1.708	1.736	1.794	1.827	1.994	2.077	2.307	2.295	2.451	2.655	2.763	2.738	2.851	2.755	2.769	2.644	2.416	2.206	2.294
355.0	218.7	488.1	800.5	909.3	758.1	413.0	285.3	280.9	290.9	331.0	379.6	425.9	444.5	434.2	396.9	330.2	293.0	238.2	191.9	216.3	173.4	93.03	78.11	66.06	78.31	172.6	386.4	 1037	326.3	14.31	1.437	0.974	0.911	0.752	0.693	0.627	0.562	0.527	0.440	0.452	0.319	0.384	0.445	0.465	0.535	0.690	0.961	1.492	1.977	2.427	2.812	3.645	3.350	3.419	2.444	1.665	1.671	1.451	1.493	1.571	1.697	1.649	1.917	1.863	2.054	2.064	2.121	2.323	2.620	2.579	2.425	2.447	2.472	2.269	2.249	2.099	2.091
360.0	199.4	436.7	713.9	824.4	703.1	394.6	277.8	268.3	278.8	303.8	341.1	380.7	391.7	380.3	350.9	302.8	265.6	217.0	166.6	174.4	208.4	127.6	82.98	65.65	49.19	58.36	107.2	533.1	 1137	255.7	5.525	1.178	0.965	0.855	0.730	0.618	0.609	0.555	0.512	0.440	0.394	0.399	0.409	0.543	0.541	0.673	0.894	1.401	1.791	2.101	2.339	3.372	3.374	3.115	2.225	1.732	1.614	1.376	1.443	1.447	1.608	1.648	1.738	1.749	1.990	1.940	2.115	2.101	2.107	2.339	2.294	2.360	2.311	2.232	2.059	1.977	1.950
365.0	173.5	392.0	626.0	751.9	643.9	379.0	274.1	258.4	266.2	282.9	313.2	346.7	353.5	345.3	317.1	277.5	246.3	204.2	161.2	147.7	185.9	183.7	101.8	69.12	48.53	39.24	42.35	149.4	741.1	 1060	43.14	2.656	1.105	0.996	0.871	0.539	0.542	0.532	0.490	0.432	0.420	0.464	0.378	0.472	0.505	0.601	0.804	1.299	1.620	1.919	2.264	2.953	3.091	2.843	2.245	1.795	1.478	1.469	1.563	1.434	1.505	1.647	1.612	1.627	1.824	1.758	1.903	1.909	1.980	2.124	2.012	2.190	1.982	2.114	1.923	1.802	1.763
370.0	159.3	341.8	557.9	687.1	597.9	371.6	269.7	258.0	263.4	273.3	293.0	313.5	320.1	310.7	291.0	257.3	231.4	196.6	163.3	147.2	148.9	178.8	165.9	96.37	60.92	45.80	36.72	52.26	201.7	632.6	859.8	181.5	11.83	1.295	0.858	0.695	0.611	0.583	0.489	0.473	0.413	0.460	0.455	0.455	0.498	0.603	0.794	1.077	1.450	1.784	2.103	2.653	2.752	2.591	2.104	1.707	1.467	1.446	1.460	1.370	1.295	1.444	1.526	1.554	1.754	1.680	1.804	1.723	1.828	1.886	1.789	1.927	1.883	1.846	1.818	1.741	1.583
375.0	138.8	304.1	479.7	598.1	543.3	345.6	265.2	253.8	255.5	264.1	274.6	283.7	283.3	280.0	262.5	237.7	216.9	188.4	163.7	150.3	140.3	143.8	175.7	161.0	85.28	60.14	46.48	40.90	66.51	159.0	368.7	957.5	285.5	13.10	1.212	0.968	0.627	0.538	0.519	0.506	0.435	0.475	0.447	0.402	0.495	0.594	0.763	1.018	1.343	1.534	1.834	2.292	2.414	2.446	2.085	1.621	1.400	1.428	1.459	1.413	1.269	1.466	1.425	1.535	1.502	1.543	1.517	1.501	1.613	1.673	1.656	1.717	1.636	1.703	1.729	1.741	1.417
380.0	129.2	267.0	426.7	529.0	488.6	336.9	264.2	254.8	250.9	255.9	262.0	266.2	267.9	258.8	244.5	222.2	206.3	184.6	165.1	155.4	144.2	139.1	150.9	186.6	128.9	76.42	59.29	47.83	44.78	57.67	103.7	498.2	972.8	215.1	4.585	1.134	0.787	0.605	0.579	0.556	0.443	0.485	0.467	0.456	0.492	0.504	0.611	0.864	1.232	1.381	1.645	2.100	2.250	2.175	1.874	1.588	1.335	1.386	1.297	1.447	1.404	1.471	1.432	1.554	1.459	1.520	1.539	1.501	1.504	1.533	1.720	1.531	1.583	1.612	1.602	1.519	1.546
385.0	122.7	244.3	393.8	472.5	447.5	320.2	262.7	248.4	242.5	244.5	254.9	257.2	253.8	249.6	235.8	212.4	198.2	180.2	165.3	156.8	150.4	146.3	144.8	167.9	176.3	107.9	74.88	61.21	50.27	43.45	45.84	141.5	643.9	838.2	35.14	1.961	0.963	0.720	0.563	0.579	0.432	0.478	0.439	0.441	0.472	0.556	0.553	0.766	1.069	1.343	1.416	1.909	2.072	1.993	1.761	1.508	1.345	1.335	1.336	1.425	1.392	1.386	1.340	1.514	1.462	1.499	1.529	1.344	1.546	1.540	1.606	1.595	1.458	1.650	1.540	1.508	1.547
390.0	114.4	221.6	348.5	423.0	415.4	310.1	263.5	247.2	243.8	241.1	248.7	249.4	250.1	250.1	230.7	206.6	192.9	180.5	169.2	163.3	161.9	157.4	155.4	155.7	175.4	170.0	117.5	85.81	71.00	56.83	45.59	55.03	176.8	502.0	648.3	143.5	9.900	0.974	0.693	0.613	0.484	0.484	0.445	0.465	0.455	0.594	0.559	0.804	1.039	1.144	1.300	1.763	1.852	1.914	1.644	1.452	1.441	1.385	1.309	1.468	1.410	1.386	1.334	1.413	1.328	1.366	1.474	1.404	1.522	1.558	1.568	1.576	1.541	1.511	1.465	1.425	1.445
395.0	106.9	204.5	314.1	386.4	379.5	298.2	266.4	249.3	242.7	243.7	243.9	250.5	252.1	249.4	234.7	208.1	190.4	178.3	174.4	171.0	172.7	173.2	173.0	167.1	169.2	185.2	183.8	126.4	97.53	79.22	60.66	46.00	60.56	125.3	280.8	706.0	227.9	9.848	0.914	0.691	0.531	0.518	0.491	0.455	0.484	0.537	0.580	0.750	0.991	0.977	1.229	1.633	1.709	1.799	1.671	1.361	1.535	1.425	1.337	1.324	1.300	1.298	1.360	1.450	1.308	1.382	1.439	1.492	1.594	1.525	1.561	1.607	1.628	1.587	1.469	1.412	1.496
400.0	105.9	199.7	291.7	353.6	352.7	295.3	265.8	255.0	242.9	241.6	244.9	252.8	260.9	255.2	237.4	206.7	190.9	179.5	175.5	176.8	179.1	184.4	186.5	183.0	179.7	182.5	207.1	176.3	123.5	98.94	74.62	52.57	39.28	43.31	75.40	369.6	718.1	171.0	3.289	0.880	0.620	0.550	0.487	0.470	0.495	0.556	0.535	0.728	0.888	0.998	1.142	1.513	1.533	1.609	1.579	1.282	1.393	1.446	1.464	1.464	1.397	1.269	1.441	1.330	1.240	1.286	1.420	1.492	1.582	1.467	1.445	1.594	1.551	1.571	1.534	1.424	1.447
405.0	97.66	183.0	279.4	333.7	333.3	284.1	270.1	253.8	248.2	243.6	248.0	255.7	266.0	260.8	239.7	208.8	189.2	177.5	177.3	180.1	186.1	192.3	197.7	196.6	194.1	191.3	202.0	212.5	159.3	116.2	88.46	61.73	39.95	28.03	27.54	100.2	461.4	618.2	30.13	1.641	0.671	0.587	0.485	0.414	0.500	0.534	0.590	0.728	0.933	0.915	1.126	1.422	1.488	1.549	1.520	1.316	1.344	1.410	1.469	1.429	1.392	1.359	1.381	1.315	1.328	1.344	1.367	1.540	1.571	1.560	1.560	1.661	1.590	1.616	1.454	1.359	1.371
410.0	96.85	174.3	269.4	313.0	324.6	289.9	267.7	257.9	249.6	244.3	253.9	261.5	271.0	267.7	247.5	211.1	185.7	174.5	177.2	182.1	190.4	199.8	207.6	211.0	211.2	207.3	203.1	210.5	205.5	152.1	106.7	74.31	47.35	29.69	20.16	31.64	121.7	369.9	479.9	127.5	7.758	0.867	0.662	0.503	0.461	0.564	0.588	0.725	0.873	0.932	1.005	1.278	1.398	1.431	1.470	1.335	1.344	1.309	1.486	1.364	1.356	1.428	1.375	1.338	1.400	1.413	1.380	1.518	1.525	1.632	1.700	1.621	1.579	1.652	1.517	1.503	1.364
415.0	96.32	170.7	245.6	288.6	305.3	286.4	274.7	263.8	252.9	249.4	257.3	263.2	276.1	275.8	248.8	208.1	181.7	173.0	175.3	181.0	190.0	203.0	214.6	221.1	224.2	220.2	214.9	206.1	206.9	194.3	133.5	86.07	56.01	35.86	23.19	19.65	35.85	89.63	212.8	516.7	188.4	7.822	0.857	0.627	0.517	0.557	0.606	0.728	0.847	0.961	0.874	1.284	1.338	1.389	1.424	1.286	1.477	1.395	1.438	1.479	1.388	1.446	1.323	1.261	1.463	1.427	1.315	1.613	1.479	1.652	1.631	1.783	1.619	1.649	1.477	1.567	1.444
420.0	100.0	164.3	229.6	279.8	290.6	285.6	283.4	269.7	256.9	251.2	258.2	266.7	272.2	274.5	246.9	207.3	178.2	168.8	170.7	178.4	189.6	202.4	215.4	222.2	227.7	224.4	219.4	210.4	197.4	200.2	160.9	98.57	62.28	40.52	27.21	19.16	18.96	28.07	55.97	270.8	524.4	138.2	2.893	0.833	0.621	0.657	0.578	0.761	0.771	0.820	0.830	1.251	1.295	1.377	1.378	1.430	1.426	1.392	1.540	1.579	1.352	1.355	1.351	1.258	1.426	1.505	1.376	1.624	1.505	1.623	1.702	1.666	1.727	1.584	1.502	1.524	1.328
425.0	100.8	153.8	219.9	263.4	290.5	285.0	286.5	286.2	269.9	257.9	255.7	267.9	271.9	264.7	243.9	203.8	176.6	163.9	167.9	175.9	187.5	200.0	211.1	221.0	231.1	227.0	221.2	212.7	196.8	186.9	176.6	117.7	69.83	44.89	31.90	22.43	17.41	15.94	19.92	74.01	348.4	454.0	27.74	1.272	0.701	0.615	0.562	0.725	0.718	0.877	0.866	1.174	1.242	1.338	1.455	1.431	1.423	1.405	1.534	1.516	1.431	1.448	1.439	1.406	1.510	1.407	1.411	1.544	1.538	1.593	1.562	1.654	1.780	1.598	1.466	1.339	1.390
430.0	91.72	153.7	214.6	257.8	287.8	293.4	299.6	295.1	278.2	262.5	254.3	262.5	265.0	260.6	234.4	197.5	167.4	158.5	162.9	169.1	181.7	196.9	207.4	218.2	226.0	227.4	224.1	214.6	197.4	177.4	163.2	139.0	90.40	53.60	38.91	28.42	21.92	16.72	14.23	23.49	93.68	280.4	302.2	111.3	6.568	0.743	0.614	0.675	0.773	0.842	0.890	1.227	1.332	1.326	1.415	1.385	1.442	1.547	1.538	1.539	1.470	1.489	1.455	1.461	1.470	1.533	1.461	1.532	1.578	1.546	1.504	1.730	1.728	1.561	1.424	1.371	1.323
435.0	92.56	146.6	212.4	259.8	280.8	303.9	306.2	306.5	288.5	265.5	252.8	260.5	259.4	247.7	225.9	188.5	160.8	153.6	154.5	163.7	175.7	188.1	200.1	213.2	218.7	221.4	219.5	209.0	196.6	173.6	149.7	131.4	113.3	69.99	45.52	34.39	26.87	20.06	15.80	14.38	27.21	67.64	150.3	417.4	163.7	4.882	0.795	0.749	0.855	0.858	0.920	1.162	1.285	1.205	1.466	1.470	1.531	1.557	1.564	1.720	1.563	1.550	1.459	1.600	1.493	1.489	1.411	1.470	1.536	1.433	1.562	1.535	1.365	1.494	1.395	1.283	1.283
440.0	102.2	141.2	202.4	249.0	279.1	300.5	314.7	315.5	292.2	265.1	254.4	252.5	253.2	241.5	217.1	181.1	155.0	146.8	149.1	156.0	169.2	180.0	191.8	203.3	211.0	213.5	212.7	204.6	193.6	171.4	146.1	120.9	113.2	87.62	53.14	38.68	30.39	23.50	18.24	13.75	13.26	19.93	39.41	239.6	440.4	28.77	1.690	0.844	0.889	0.876	0.911	1.032	1.197	1.398	1.485	1.463	1.508	1.655	1.686	1.729	1.622	1.535	1.508	1.525	1.508	1.445	1.355	1.351	1.476	1.425	1.537	1.484	1.355	1.284	1.372	1.206	1.265
445.0	115.7	140.4	196.3	245.1	274.6	301.1	315.1	318.9	293.0	264.9	251.1	251.1	243.3	232.2	205.9	174.1	148.5	140.8	142.6	148.8	158.1	169.0	180.3	192.6	202.1	204.2	204.2	197.9	187.1	168.4	142.5	116.7	101.3	95.72	65.18	42.79	33.04	25.84	19.40	14.89	11.16	9.838	12.48	66.11	321.9	350.0	21.12	1.138	0.792	0.836	0.875	1.050	1.255	1.278	1.279	1.384	1.658	1.764	1.757	1.648	1.716	1.633	1.400	1.514	1.345	1.390	1.431	1.491	1.429	1.407	1.561	1.376	1.456	1.332	1.263	1.147	1.178
450.0	137.0	178.1	187.7	238.5	267.3	291.7	313.1	315.8	291.4	256.7	237.5	236.2	227.5	215.4	189.6	160.2	137.2	129.7	131.8	136.6	144.9	154.9	166.0	176.8	185.8	188.6	186.9	183.7	174.7	159.2	135.7	112.2	91.41	84.39	77.68	53.95	36.84	29.07	22.13	16.87	12.27	8.670	7.095	17.76	85.67	249.0	268.5	93.65	5.040	0.943	0.937	1.100	1.199	1.352	1.242	1.407	1.573	1.661	1.709	1.618	1.724	1.627	1.399	1.478	1.243	1.406	1.334	1.242	1.349	1.395	1.453	1.221	1.373	1.196	1.246	1.141	1.106
455.0	111.6	258.1	227.8	222.5	254.8	280.7	299.1	304.2	281.1	247.5	223.4	219.6	206.7	195.8	173.6	142.5	125.5	117.0	120.9	123.2	130.4	136.5	148.6	158.2	163.5	167.9	168.3	167.5	159.5	147.0	128.1	107.1	86.67	73.85	69.53	66.58	45.89	30.84	24.12	18.63	13.54	9.707	6.487	7.567	21.97	58.81	137.3	351.8	129.3	4.178	1.049	1.117	1.130	1.342	1.394	1.534	1.537	1.496	1.566	1.660	1.539	1.508	1.395	1.398	1.315	1.313	1.321	1.226	1.215	1.275	1.352	1.150	1.255	1.099	1.117	1.116	1.124
460.0	82.38	298.0	297.2	209.9	240.8	272.5	290.4	293.0	272.6	236.6	216.8	207.8	195.2	179.2	159.0	132.7	115.5	107.5	111.5	112.9	118.7	125.3	134.5	143.6	150.1	155.3	155.2	152.9	147.7	136.7	120.2	102.4	83.58	69.89	61.33	64.25	54.04	34.47	25.40	19.29	14.33	10.23	7.279	5.820	7.789	15.74	35.01	200.5	345.3	21.82	1.967	1.151	1.108	1.351	1.281	1.431	1.579	1.542	1.593	1.620	1.517	1.507	1.417	1.225	1.151	1.232	1.140	1.193	1.139	1.156	1.157	1.105	1.222	1.081	1.066	1.018	1.014
465.0	70.77	253.8	430.9	229.2	228.4	261.5	279.0	285.1	264.5	229.7	209.1	195.2	180.6	164.3	146.5	123.2	108.2	100.2	101.6	105.9	109.4	114.1	122.0	131.5	136.9	141.5	143.3	142.1	137.4	126.3	113.9	96.69	81.19	66.68	57.55	55.74	57.78	41.01	26.60	20.03	14.69	11.32	8.026	5.859	5.078	6.268	10.05	54.97	261.5	264.9	17.68	1.390	1.137	1.303	1.207	1.442	1.610	1.549	1.544	1.681	1.454	1.492	1.380	1.227	1.182	1.135	1.092	1.180	1.107	1.144	1.031	1.110	1.107	0.952	1.010	1.066	0.966
470.0	66.89	151.5	470.4	417.2	224.5	240.6	261.2	270.4	250.3	211.8	193.3	178.4	166.6	149.4	129.3	109.8	96.13	90.92	91.13	92.83	97.50	101.1	107.5	114.3	120.3	125.1	126.7	124.5	120.9	112.9	103.6	88.27	75.01	63.05	54.00	48.38	48.72	46.54	32.83	21.35	15.91	12.19	8.820	6.659	5.339	4.713	5.052	14.77	70.76	192.6	196.4	80.84	4.540	1.291	1.250	1.297	1.468	1.487	1.520	1.450	1.434	1.358	1.284	1.222	1.123	1.114	1.037	1.094	1.038	1.033	0.988	1.115	1.006	0.902	0.896	0.940	0.834
475.0	66.14	102.5	270.3	640.2	300.1	219.4	242.8	248.4	232.6	197.8	177.6	168.9	152.5	133.1	111.8	94.92	85.59	80.53	79.76	82.24	85.19	87.48	93.57	100.4	103.5	108.2	109.2	109.0	105.6	100.5	92.74	80.33	69.49	59.40	51.77	44.90	40.92	40.78	39.78	26.23	17.49	13.16	9.887	8.052	6.927	5.148	4.808	6.668	18.38	46.06	98.68	250.7	91.09	3.740	1.277	1.309	1.335	1.344	1.426	1.404	1.424	1.197	1.243	1.109	1.151	1.015	0.966	1.017	1.007	1.028	0.981	0.912	0.973	0.806	0.818	0.793	0.892
480.0	65.78	90.56	165.4	609.9	467.4	208.1	225.7	238.0	225.7	191.2	174.8	164.8	142.3	121.8	105.9	87.09	76.72	73.18	71.87	73.94	75.17	80.50	84.95	89.92	93.84	98.53	98.74	99.73	97.40	91.70	84.96	74.62	65.32	56.16	49.00	42.87	37.85	35.56	38.92	31.51	19.85	14.76	11.29	9.080	7.623	6.653	5.509	5.468	7.326	13.07	26.13	138.0	211.6	24.09	2.144	1.421	1.310	1.304	1.377	1.382	1.384	1.271	1.147	1.162	1.044	1.025	1.011	0.972	0.960	0.944	0.913	0.802	1.016	0.774	0.862	0.703	0.811
485.0	70.71	88.41	129.5	418.2	655.3	252.0	221.4	230.0	220.2	188.7	170.4	160.1	138.1	115.9	96.49	81.97	70.60	67.83	66.47	67.41	70.38	73.73	78.18	81.89	86.11	90.19	91.39	91.46	90.64	85.75	79.62	70.43	61.33	53.54	47.54	42.21	36.70	33.56	34.07	35.10	24.85	16.15	13.11	11.00	9.388	8.521	7.114	6.121	5.600	6.469	8.896	38.02	177.0	193.3	18.99	1.797	1.468	1.297	1.278	1.241	1.272	1.216	1.225	1.161	1.107	1.034	0.955	1.009	0.857	0.895	0.870	0.796	0.874	0.687	0.757	0.750	0.782
490.0	67.07	97.88	112.9	217.7	600.3	462.8	217.0	220.5	214.2	192.0	170.3	156.8	132.4	107.5	86.70	73.59	62.84	60.17	59.35	61.23	63.18	65.58	69.67	74.39	77.00	80.91	81.79	82.19	82.94	79.71	73.46	66.06	58.50	51.17	45.82	41.06	36.45	33.05	31.13	31.92	30.60	21.99	16.06	13.55	11.99	11.07	9.698	7.949	7.220	6.365	6.133	12.07	49.05	139.4	183.5	72.64	4.436	1.453	1.267	1.270	1.267	1.179	1.147	1.232	1.062	0.983	0.983	0.940	0.889	0.850	0.810	0.797	0.780	0.715	0.705	0.697	0.653
495.0	61.47	104.2	109.9	144.9	330.7	667.0	296.5	213.1	208.6	188.8	172.0	154.4	127.2	102.0	79.77	64.40	55.73	52.15	52.94	52.70	54.59	57.48	63.40	65.64	69.26	72.03	73.78	74.21	75.03	72.12	68.57	61.69	54.84	49.20	44.14	39.65	35.98	32.62	30.71	28.65	30.14	28.73	21.57	16.79	15.27	13.67	12.33	11.10	9.781	8.144	7.136	7.298	14.56	35.04	97.26	225.2	27.77	3.460	1.377	1.332	1.318	1.274	1.181	1.163	1.059	0.991	0.911	1.000	0.873	0.796	0.821	0.776	0.669	0.625	0.679	0.600	0.607
500.0	53.10	100.4	118.4	122.2	191.5	592.0	417.2	211.8	204.2	190.6	172.6	153.8	125.0	97.70	72.55	57.10	51.60	47.28	48.68	47.68	51.16	53.41	57.94	61.01	64.10	66.26	67.94	69.12	68.47	68.24	64.30	59.00	52.63	47.78	43.17	38.21	35.78	32.68	30.84	28.41	27.85	30.56	27.07	20.12	17.54	16.41	14.86	13.16	11.49	10.08	8.410	7.383	7.646	11.47	26.49	128.1	209.6	25.16	2.103	1.432	1.328	1.326	1.205	1.193	1.011	1.122	0.934	0.920	0.928	0.763	0.781	0.731	0.654	0.641	0.640	0.596	0.541
505.0	46.40	86.17	124.8	113.3	141.4	382.7	615.9	251.4	205.6	189.3	171.9	149.0	118.6	91.60	67.59	52.13	45.95	43.70	43.07	45.07	47.31	48.01	53.02	57.57	59.67	61.29	64.16	64.49	64.74	63.69	60.25	56.13	50.97	45.85	41.79	37.48	34.92	32.53	30.60	28.65	26.89	28.42	30.33	24.29	20.43	18.15	16.91	15.05	13.09	11.44	9.628	8.133	6.974	6.665	9.012	35.78	159.2	181.6	19.80	1.613	1.332	1.336	1.056	1.134	1.095	1.054	1.075	0.940	0.961	0.879	0.729	0.659	0.582	0.613	0.554	0.578	0.541
510.0	46.69	71.73	120.4	119.3	121.0	208.2	534.5	431.7	206.1	187.9	170.1	144.6	114.4	84.87	59.72	46.88	40.84	38.16	37.60	39.77	41.30	42.56	47.94	50.10	53.22	55.42	58.05	58.88	59.62	58.49	55.57	52.60	47.76	42.93	38.47	35.81	33.49	31.07	30.21	28.31	27.04	26.55	28.52	28.73	24.13	20.71	19.00	16.82	14.95	12.67	11.25	9.307	7.290	6.182	5.632	10.65	43.52	121.4	152.1	58.30	4.024	1.380	1.064	1.136	1.122	0.973	1.079	0.942	0.841	0.773	0.731	0.686	0.590	0.578	0.509	0.510	0.518
515.0	50.10	61.42	91.91	123.9	110.5	143.3	297.7	571.0	283.7	178.7	160.6	137.9	105.9	78.30	53.36	40.33	35.35	32.64	33.19	33.61	35.68	37.95	41.27	45.03	47.07	50.10	50.86	52.49	53.15	52.86	50.99	47.65	43.61	39.78	35.99	33.45	31.70	30.08	29.22	27.44	26.69	25.63	25.44	28.00	28.13	23.42	19.84	17.93	15.62	13.70	11.91	10.30	7.925	6.159	4.962	5.160	11.90	29.14	70.74	168.4	28.00	2.986	1.150	1.052	1.133	1.000	0.882	0.925	0.826	0.747	0.704	0.616	0.603	0.585	0.474	0.500	0.542
520.0	45.60	53.54	76.98	123.8	114.1	118.2	185.1	484.6	437.8	178.1	150.5	132.4	101.7	70.52	47.37	36.57	31.32	29.15	29.12	30.05	32.19	34.27	36.51	40.72	43.11	45.94	47.06	48.61	49.26	48.76	47.34	44.65	40.97	36.42	34.06	31.22	29.99	28.21	27.91	26.88	25.54	24.55	24.68	25.41	28.42	25.30	20.74	18.26	15.80	13.72	12.10	10.45	8.265	6.611	4.780	3.777	4.955	8.283	18.38	92.65	152.2	23.94	1.524	1.065	1.103	0.904	0.878	0.827	0.779	0.776	0.691	0.658	0.546	0.549	0.447	0.406	0.478
525.0	40.18	54.62	66.32	105.2	118.5	113.7	142.3	324.7	546.4	223.2	143.4	127.5	95.06	64.84	44.24	33.13	27.75	27.08	26.57	27.75	29.06	31.89	34.39	37.47	39.80	41.56	43.33	44.57	44.65	45.25	43.97	41.37	37.97	33.84	30.84	29.20	27.67	26.53	26.38	26.11	24.73	24.00	23.54	23.45	26.02	26.15	21.89	18.43	15.61	13.91	12.23	9.919	8.093	6.335	4.594	3.681	3.188	3.393	5.536	25.07	109.9	131.8	17.88	1.154	1.044	1.000	0.879	0.754	0.856	0.659	0.699	0.630	0.432	0.525	0.438	0.423	0.386
530.0	37.42	46.31	59.49	79.39	113.3	107.3	121.8	188.2	437.0	388.3	151.0	115.6	89.00	59.04	39.14	28.63	24.47	23.09	22.79	23.71	25.49	28.10	29.97	32.97	35.27	37.09	38.43	39.29	40.38	40.33	39.41	37.03	34.03	30.59	28.54	26.69	25.51	24.26	24.33	24.12	23.08	22.69	22.16	22.21	22.43	24.06	22.81	18.86	15.19	13.39	11.59	9.391	7.655	6.287	4.540	3.485	2.544	2.244	2.460	6.696	28.95	84.99	109.5	42.83	3.060	0.913	0.832	0.732	0.772	0.613	0.629	0.538	0.406	0.465	0.418	0.427	0.463
535.0	36.79	39.99	49.88	62.00	91.07	110.2	106.7	137.4	236.4	461.2	222.1	102.7	80.27	52.16	33.71	24.91	20.60	18.98	20.05	20.86	21.67	24.01	26.21	28.82	31.37	32.54	33.01	34.15	35.53	35.52	34.71	32.64	30.58	27.29	25.43	23.84	23.00	22.34	22.15	21.71	21.25	20.84	19.90	20.72	20.12	20.48	20.73	19.23	15.27	12.66	10.83	9.265	6.888	5.839	4.423	3.455	2.398	1.866	1.645	2.522	7.321	20.14	47.93	119.5	27.33	2.220	0.819	0.789	0.717	0.621	0.611	0.617	0.457	0.481	0.406	0.414	0.367
540.0	34.56	40.16	44.67	54.75	74.65	112.6	104.5	115.4	150.4	360.7	365.3	104.5	71.17	47.94	31.02	22.30	18.65	16.71	17.92	18.64	19.11	21.36	23.58	26.02	27.51	29.09	30.88	31.42	31.83	31.65	30.59	29.32	26.90	25.28	22.82	21.33	21.36	20.43	20.09	19.84	19.91	19.17	19.57	19.12	18.79	17.93	17.86	18.78	15.86	12.20	10.18	8.860	6.806	5.304	4.078	3.343	2.337	1.714	1.431	1.486	2.508	5.359	12.26	62.81	114.3	22.17	1.146	0.704	0.661	0.635	0.525	0.573	0.431	0.404	0.381	0.387	0.375
545.0	32.99	39.94	39.31	49.49	60.07	106.2	105.7	104.1	120.4	227.2	421.4	155.9	65.29	43.41	28.51	20.04	16.94	14.89	15.48	16.86	17.70	19.56	21.46	23.71	25.09	27.20	27.64	28.14	28.79	29.07	28.22	27.28	24.54	22.87	20.89	19.66	19.05	18.48	18.73	18.47	18.58	18.46	18.14	17.70	17.45	16.50	16.24	16.94	15.98	12.07	9.760	8.284	6.379	4.872	3.931	3.195	2.330	1.638	1.378	1.191	1.397	2.136	3.515	16.72	77.38	99.09	15.84	0.852	0.638	0.577	0.488	0.507	0.409	0.402	0.394	0.360	0.382
550.0	29.58	33.13	39.35	41.93	50.36	83.94	103.3	95.91	102.9	132.0	293.0	291.3	77.47	37.97	24.14	17.48	14.01	13.27	13.83	14.16	15.29	17.03	18.68	20.15	21.79	22.80	23.74	24.60	24.73	24.76	24.65	23.39	21.94	19.90	18.56	17.25	16.90	16.64	16.17	16.34	16.64	16.26	16.28	15.94	15.74	14.73	14.17	13.93	13.77	12.37	9.826	7.544	5.772	4.508	3.483	2.684	2.175	1.738	1.313	1.080	1.040	1.264	1.534	4.410	20.13	59.53	78.37	33.99	2.398	0.581	0.478	0.408	0.396	0.424	0.349	0.354	0.344
555.0	25.23	31.02	32.40	35.49	42.77	60.07	91.04	92.81	87.61	94.58	144.0	296.2	155.1	34.06	20.13	14.45	11.99	11.65	11.30	11.46	12.76	14.02	16.42	16.64	17.73	19.37	19.99	20.86	21.28	20.81	21.37	19.59	18.53	17.00	15.51	14.61	14.45	14.08	13.94	14.02	14.13	13.85	13.76	13.79	13.45	12.75	12.50	11.65	10.91	11.02	9.685	7.380	4.969	4.082	3.051	2.352	1.871	1.601	1.354	1.048	0.883	0.980	0.949	1.691	5.102	14.01	31.73	84.38	26.82	1.808	0.448	0.395	0.391	0.404	0.385	0.332	0.338
560.0	24.50	28.24	28.65	31.34	36.26	45.92	72.21	91.85	76.79	79.26	85.46	203.7	250.1	40.44	17.49	12.50	10.21	10.08	9.771	10.55	10.69	11.52	14.04	14.17	15.66	16.46	17.33	17.93	18.59	18.42	18.27	17.43	16.16	15.05	13.51	12.70	12.51	12.35	12.37	12.28	12.16	12.30	12.49	12.42	12.05	11.09	10.70	10.09	9.081	9.109	8.988	6.821	4.738	3.794	2.634	2.096	1.643	1.327	1.274	1.110	0.909	0.848	0.837	0.969	1.738	3.582	7.941	41.50	78.71	20.47	0.675	0.443	0.327	0.394	0.326	0.371	0.329
565.0	21.59	25.28	26.81	26.96	31.48	37.85	57.44	84.10	73.61	66.36	64.21	113.0	257.8	94.64	16.04	11.13	9.086	7.692	8.326	8.595	9.324	10.31	11.56	12.38	14.02	13.84	14.71	15.43	16.05	15.70	15.47	14.74	13.58	13.43	11.72	10.95	10.87	10.57	10.58	10.68	10.48	10.90	11.08	10.62	10.33	9.861	9.454	8.962	7.900	7.285	7.441	6.590	4.619	3.232	2.435	1.838	1.568	1.183	1.078	1.047	0.887	0.786	0.791	0.731	0.956	1.277	2.242	10.66	48.76	67.19	12.57	0.476	0.358	0.391	0.320	0.393	0.280
570.0	21.32	25.08	22.24	24.19	24.65	31.09	41.73	64.31	71.04	56.44	50.37	59.25	150.3	183.4	33.66	8.894	7.630	6.685	6.905	6.772	7.517	8.240	9.306	9.674	10.83	11.28	11.53	12.38	12.62	12.49	12.64	11.72	10.89	10.18	8.994	8.626	8.533	8.581	8.648	8.441	8.391	8.780	8.742	8.578	8.605	8.201	7.709	7.117	6.200	5.463	5.483	5.461	4.503	3.031	2.135	1.570	1.218	1.005	0.890	0.866	0.820	0.712	0.679	0.644	0.649	0.742	0.921	2.824	12.51	36.71	48.91	16.85	1.491	0.360	0.283	0.319	0.327
575.0	21.60	20.59	19.40	18.56	22.18	25.59	30.91	45.01	64.35	51.72	40.19	37.68	58.60	156.9	106.6	7.959	6.090	5.548	5.591	5.597	5.898	6.423	7.061	7.566	8.345	8.690	8.861	9.800	9.955	9.590	9.724	9.062	8.427	7.841	6.904	6.818	6.341	6.718	6.585	6.809	6.463	6.624	6.642	6.454	6.589	6.329	5.750	5.665	4.764	4.300	3.978	3.679	3.662	2.899	1.917	1.288	1.019	0.834	0.774	0.691	0.691	0.695	0.714	0.605	0.498	0.635	0.597	1.041	3.149	8.602	18.67	47.44	22.44	1.112	0.323	0.296	0.367
580.0	20.85	20.50	16.73	16.69	18.15	24.19	26.62	34.19	51.25	51.21	34.14	29.05	29.52	93.33	169.8	22.29	4.994	4.725	4.411	4.599	5.062	5.254	5.978	6.398	6.553	7.125	7.293	7.734	7.782	7.942	7.840	7.429	6.975	6.230	5.768	5.512	5.402	5.480	5.482	5.379	5.405	5.579	5.313	5.251	5.404	5.343	4.954	4.449	3.994	3.676	3.274	2.724	2.735	2.663	1.900	1.188	0.927	0.681	0.634	0.550	0.509	0.631	0.743	0.526	0.433	0.494	0.512	0.594	1.131	2.207	4.675	22.53	46.58	13.42	0.582	0.279	0.309
585.0	16.32	17.54	17.18	15.87	15.98	18.32	22.90	25.42	41.23	50.16	32.05	24.24	20.73	42.80	152.7	73.80	4.887	4.274	3.909	4.087	4.463	4.456	4.891	5.150	5.806	5.995	6.173	6.286	6.391	6.326	6.468	5.846	5.825	5.452	4.774	4.479	4.332	4.488	4.802	4.492	4.555	4.705	4.443	4.628	4.534	4.406	4.170	3.822	3.453	3.020	2.670	2.230	2.015	2.084	1.878	1.301	0.850	0.653	0.538	0.518	0.518	0.521	0.599	0.556	0.504	0.466	0.403	0.469	0.596	0.812	1.319	5.829	26.90	32.75	7.742	0.381	0.307
590.0	17.61	16.68	15.02	14.51	13.80	16.00	18.74	21.37	28.27	42.28	34.95	21.64	17.54	19.07	76.94	132.3	24.65	3.667	3.090	3.330	3.442	3.642	3.943	4.253	4.573	4.734	4.953	5.025	5.334	5.087	4.957	4.746	4.548	4.158	3.736	3.652	3.429	3.631	3.754	3.573	3.595	3.574	3.643	3.576	3.577	3.390	3.215	3.005	2.677	2.427	2.066	1.797	1.532	1.538	1.669	1.299	0.886	0.585	0.508	0.449	0.451	0.443	0.538	0.502	0.526	0.527	0.361	0.400	0.471	0.450	0.573	1.554	6.803	18.85	26.88	11.73	1.027
595.0	14.62	14.94	14.80	13.52	12.60	14.70	15.72	18.65	22.14	30.57	38.20	22.67	16.77	13.18	26.11	96.24	84.47	4.545	2.525	2.731	2.708	2.982	3.101	3.431	3.750	3.261	4.063	3.845	4.166	3.976	4.131	3.583	3.455	3.177	2.861	2.743	2.787	2.950	2.950	2.821	2.941	2.934	2.836	2.768	2.888	2.605	2.592	2.148	2.076	1.870	1.614	1.409	1.251	1.137	1.097	1.251	1.025	0.638	0.452	0.382	0.436	0.394	0.384	0.504	0.505	0.567	0.341	0.365	0.412	0.351	0.398	0.631	1.802	4.500	9.967	26.61	14.11
600.0	15.67	16.22	17.12	13.81	12.34	13.82	15.63	18.57	20.34	26.89	39.27	29.17	19.80	15.28	15.15	52.22	127.3	20.47	2.635	2.176	2.425	2.496	2.458	2.776	2.951	2.965	3.466	3.190	3.397	3.260	3.513	3.038	2.891	2.814	2.570	2.238	2.404	2.319	2.439	2.383	2.265	2.406	2.336	2.417	2.279	2.154	2.094	1.806	1.770	1.425	1.389	1.292	0.956	0.834	0.856	1.074	1.039	0.729	0.478	0.468	0.434	0.405	0.400	0.400	0.541	0.562	0.453	0.386	0.349	0.339	0.374	0.396	0.656	1.267	2.613	12.00	26.22
605.0	17.76	20.06	17.69	13.10	12.61	15.72	17.58	22.85	25.50	32.64	43.24	44.59	29.56	23.02	20.05	29.15	112.0	65.67	3.321	2.069	2.220	2.221	2.297	2.429	2.454	2.550	2.769	2.708	2.885	3.164	2.889	2.685	2.616	2.433	2.167	2.037	1.935	2.047	2.058	1.916	1.963	2.015	2.016	1.970	1.906	1.885	1.755	1.593	1.467	1.135	1.128	1.024	0.767	0.658	0.760	0.768	0.855	0.753	0.496	0.406	0.408	0.411	0.376	0.420	0.484	0.596	0.577	0.440	0.392	0.377	0.399	0.448	0.384	0.655	0.801	3.164	15.02
610.0	19.82	21.64	17.27	14.37	14.17	17.19	20.52	25.62	31.89	38.65	48.59	57.91	43.32	31.32	26.95	24.23	63.56	112.5	22.99	2.170	1.772	1.803	1.911	1.965	1.998	2.226	2.191	2.330	2.397	2.419	2.235	2.037	2.054	2.025	1.783	1.684	1.510	1.555	1.700	1.564	1.615	1.628	1.590	1.586	1.662	1.625	1.443	1.312	1.228	0.992	0.945	0.839	0.683	0.610	0.580	0.544	0.688	0.742	0.597	0.460	0.415	0.395	0.393	0.422	0.528	0.565	0.505	0.633	0.528	0.434	0.427	0.430	0.447	0.485	0.478	1.015	3.983
615.0	22.55	18.92	19.30	13.36	14.70	17.32	18.33	23.50	30.22	36.66	44.03	52.59	47.67	31.35	26.80	22.40	30.78	75.85	71.51	3.220	1.379	1.477	1.513	1.723	1.636	1.762	1.729	1.778	1.883	2.056	1.864	1.690	1.659	1.698	1.413	1.370	1.280	1.260	1.288	1.154	1.302	1.252	1.208	1.325	1.243	1.419	1.123	0.994	0.939	0.850	0.812	0.717	0.556	0.576	0.518	0.392	0.468	0.623	0.642	0.565	0.428	0.457	0.381	0.399	0.481	0.485	0.454	0.592	0.639	0.470	0.408	0.402	0.391	0.442	0.388	0.560	1.250
620.0	18.45	21.16	16.10	15.77	13.96	14.95	20.04	23.88	25.95	33.49	38.78	46.08	48.17	32.23	25.91	21.06	22.29	39.89	97.37	19.04	1.482	1.349	1.352	1.646	1.480	1.531	1.502	1.615	1.603	1.632	1.496	1.664	1.500	1.301	1.253	1.236	1.026	0.982	1.121	0.985	1.014	1.083	1.023	1.039	0.965	1.103	0.911	0.882	0.784	0.711	0.654	0.653	0.491	0.532	0.465	0.377	0.414	0.464	0.656	0.621	0.449	0.470	0.370	0.421	0.438	0.489	0.477	0.465	0.575	0.473	0.430	0.353	0.385	0.419	0.356	0.453	0.568
625.0	18.90	21.09	17.92	15.03	14.87	16.19	18.01	23.20	25.00	31.00	37.25	42.43	47.47	35.60	25.52	19.36	20.47	21.35	72.40	56.08	1.789	1.201	1.176	1.389	1.361	1.343	1.407	1.322	1.315	1.370	1.266	1.357	1.254	1.220	1.046	0.982	0.913	0.975	0.999	0.907	0.897	0.944	0.977	0.968	0.914	0.906	0.812	0.829	0.763	0.657	0.538	0.603	0.451	0.447	0.381	0.374	0.370	0.412	0.517	0.601	0.501	0.418	0.365	0.424	0.410	0.414	0.423	0.494	0.478	0.491	0.392	0.382	0.394	0.354	0.326	0.378	0.384
630.0	17.28	20.69	18.42	15.52	14.45	14.38	17.39	21.84	24.74	30.38	36.18	38.38	43.02	40.15	27.58	20.04	19.37	15.15	30.57	79.50	18.94	1.233	1.172	1.108	1.179	1.121	1.150	1.184	1.168	1.232	1.070	1.088	0.981	0.954	0.889	0.841	0.709	0.792	0.743	0.786	0.760	0.807	0.844	0.744	0.755	0.761	0.697	0.659	0.604	0.533	0.495	0.504	0.421	0.396	0.375	0.312	0.364	0.377	0.375	0.528	0.520	0.459	0.365	0.391	0.430	0.387	0.423	0.417	0.455	0.479	0.442	0.421	0.417	0.380	0.352	0.315	0.419
635.0	20.47	22.85	19.41	17.60	15.17	15.83	16.97	21.10	23.96	29.99	34.91	37.82	38.66	38.74	30.49	20.38	19.85	14.02	10.02	43.88	61.49	2.584	0.928	0.971	0.964	0.984	1.111	1.050	0.991	1.030	0.914	0.873	0.784	0.718	0.800	0.697	0.686	0.742	0.612	0.645	0.671	0.605	0.613	0.623	0.673	0.663	0.578	0.586	0.572	0.443	0.444	0.412	0.368	0.424	0.360	0.294	0.316	0.272	0.296	0.403	0.423	0.415	0.390	0.407	0.353	0.384	0.429	0.436	0.407	0.425	0.444	0.425	0.434	0.381	0.329	0.307	0.435
640.0	24.22	23.94	19.50	17.52	13.22	14.60	16.08	18.32	22.56	27.05	32.91	37.74	34.49	34.76	31.92	20.53	18.85	12.87	5.063	18.22	77.81	15.82	0.839	0.859	0.759	0.823	0.824	0.990	0.885	0.877	0.849	0.789	0.823	0.751	0.642	0.544	0.618	0.653	0.589	0.502	0.559	0.588	0.592	0.514	0.595	0.582	0.490	0.521	0.487	0.404	0.359	0.368	0.409	0.355	0.275	0.296	0.292	0.287	0.358	0.353	0.406	0.391	0.441	0.387	0.410	0.386	0.533	0.423	0.464	0.419	0.511	0.422	0.433	0.429	0.316	0.327	0.405
645.0	20.57	22.35	18.10	17.60	14.68	13.05	15.75	18.34	21.30	25.17	29.45	33.12	31.65	30.34	31.36	20.20	17.00	11.25	3.958	6.633	53.97	47.74	1.185	0.808	0.757	0.823	0.918	0.824	0.831	0.782	0.674	0.751	0.728	0.680	0.596	0.499	0.488	0.563	0.511	0.507	0.490	0.474	0.504	0.514	0.511	0.511	0.470	0.479	0.399	0.359	0.373	0.368	0.343	0.349	0.318	0.321	0.272	0.299	0.303	0.349	0.369	0.435	0.427	0.468	0.381	0.406	0.487	0.367	0.428	0.417	0.380	0.367	0.451	0.437	0.351	0.317	0.364
650.0	23.69	22.60	19.04	16.77	13.70	13.18	15.05	16.34	19.94	23.17	26.22	30.29	27.63	25.88	29.01	20.31	15.14	10.22	3.617	3.117	25.09	70.49	6.656	0.805	0.742	0.826	0.800	0.732	0.741	0.693	0.811	0.746	0.718	0.596	0.573	0.555	0.562	0.445	0.477	0.455	0.487	0.415	0.461	0.470	0.433	0.452	0.375	0.452	0.391	0.313	0.320	0.299	0.341	0.305	0.274	0.245	0.286	0.295	0.294	0.359	0.325	0.344	0.465	0.490	0.379	0.421	0.424	0.441	0.424	0.365	0.378	0.423	0.426	0.408	0.373	0.353	0.389
