Sample:	'1
File name:	t2025042310农业综合开发201桥.FD3
Run date:	'11:23:23, 04/24/2025
Operator:	Administrator
Comment:	'

Instrument
Model:	F-2700 FL Spectrophotometer
Serial number:	23B8-004
ROM Version:	4J14000 07

Instrument parameters
Measurement type:	3-D scan
Data mode:	Fluorescence
EX  Start WL:	220.0 nm
EX  End WL:	600.0 nm
EX Sampling interval:	5.0 nm
EM  Start WL:	230.0 nm
EM  End WL:	650.0 nm
EM Sampling interval:	5.0 nm
Scan speed:	12000 nm/min
EX Slit:	5.0 nm
EM Slit:	5.0 nm
PMT Voltage:	700 V
Response:	Auto 
Corrected spectra:	Off
Contour interval:	50.000

Peak integration
Integration method:	Rectangular
Sensitivity:	1
Threshold:	1.000

Peaks
No.	ApexEX/EM(nm)	Height(Data)
1	225.0/570.0	53.59
2	225.0/585.0	49.74
3	225.0/605.0	43.56
4	230.0/340.0	965.8
5	230.0/615.0	42.17
6	235.0/510.0	248.7
7	240.0/385.0	771.0
8	240.0/525.0	227.7
9	245.0/270.0	343.9
10	245.0/410.0	718.1
11	245.0/535.0	185.7
12	250.0/545.0	158.2
13	255.0/280.0	531.5
14	255.0/560.0	134.5
15	260.0/290.0	508.9
16	260.0/570.0	111.2
17	265.0/585.0	105.1
18	270.0/300.0	930.5
19	270.0/595.0	92.33
20	275.0/305.0	1045
21	275.0/610.0	80.19
22	280.0/310.0	941.9
23	280.0/340.0	789.5
24	280.0/625.0	68.41
25	285.0/315.0	898.3
26	285.0/635.0	48.83
27	290.0/325.0	812.6
28	315.0/355.0	410.1
29	320.0/360.0	389.4
30	325.0/370.0	359.7
31	330.0/375.0	347.4
32	335.0/380.0	345.6
33	350.0/400.0	301.0
34	445.0/525.0	18.34
35	505.0/275.0	3.125
36	510.0/280.0	3.309
37	520.0/285.0	3.801
38	530.0/290.0	3.638
39	535.0/270.0	39.94
40	540.0/295.0	4.939
41	545.0/300.0	5.657
42	550.0/305.0	5.930
43	565.0/310.0	5.426
44	575.0/315.0	5.452
45	580.0/320.0	5.411
46	585.0/325.0	5.418

Data points
	220.0	225.0	230.0	235.0	240.0	245.0	250.0	255.0	260.0	265.0	270.0	275.0	280.0	285.0	290.0	295.0	300.0	305.0	310.0	315.0	320.0	325.0	330.0	335.0	340.0	345.0	350.0	355.0	360.0	365.0	370.0	375.0	380.0	385.0	390.0	395.0	400.0	405.0	410.0	415.0	420.0	425.0	430.0	435.0	440.0	445.0	450.0	455.0	460.0	465.0	470.0	475.0	480.0	485.0	490.0	495.0	500.0	505.0	510.0	515.0	520.0	525.0	530.0	535.0	540.0	545.0	550.0	555.0	560.0	565.0	570.0	575.0	580.0	585.0	590.0	595.0	600.0
230.0	35.73	550.0	1654	615.7	40.68	6.283	5.461	4.510	4.536	3.752	3.536	3.059	2.717	2.178	2.108	1.762	1.385	1.346	1.157	1.132	1.071	0.912	0.876	0.825	0.779	0.716	0.664	0.675	0.593	0.577	0.591	0.547	0.514	0.499	0.526	0.457	0.468	0.423	0.389	0.380	0.384	0.410	0.441	0.394	0.344	0.359	0.888	3.591	6.304	4.645	1.748	0.470	0.274	0.282	0.273	0.283	0.282	0.273	0.254	0.294	0.276	0.262	0.282	0.293	0.289	0.267	0.303	0.286	0.293	0.287	0.258	0.282	0.287	0.308	0.284	0.312	0.301
235.0	72.17	166.0	1157	2310	559.3	57.41	5.891	5.582	4.658	3.909	3.817	3.569	3.115	2.581	2.331	1.788	1.468	1.293	1.228	1.250	1.003	0.877	0.966	0.894	0.821	0.813	0.671	0.704	0.638	0.594	0.552	0.552	0.593	0.585	0.541	0.455	0.420	0.411	0.406	0.483	0.362	0.411	0.460	0.440	0.463	0.399	0.452	1.105	2.753	5.353	7.869	8.173	3.653	0.833	0.262	0.250	0.259	0.265	0.301	0.275	0.284	0.300	0.278	0.285	0.296	0.300	0.250	0.311	0.292	0.298	0.251	0.292	0.284	0.294	0.267	0.284	0.294
240.0	100.7	97.48	370.3	1994	3568	423.0	24.35	6.878	5.465	4.165	4.118	3.606	3.098	2.649	2.192	1.800	1.753	1.209	1.251	1.317	1.261	0.856	0.984	0.990	0.760	0.738	0.708	0.773	0.621	0.557	0.601	0.573	0.583	0.538	0.545	0.451	0.461	0.429	0.486	0.376	0.380	0.359	0.421	0.420	0.511	0.573	0.451	0.500	0.873	1.797	4.931	11.98	14.04	9.019	2.683	0.523	0.281	0.336	0.288	0.287	0.271	0.259	0.318	0.256	0.282	0.270	0.288	0.371	0.285	0.306	0.269	0.367	0.329	0.351	0.257	0.280	0.353
245.0	77.20	137.8	133.9	694.1	3943	2887	305.1	13.26	6.846	4.782	4.011	3.802	3.617	3.252	2.220	1.750	1.837	1.379	1.328	1.273	1.303	1.105	0.894	0.845	0.857	0.785	0.650	0.654	0.779	0.598	0.612	0.564	0.609	0.509	0.477	0.430	0.412	0.421	0.426	0.374	0.448	0.428	0.441	0.402	0.435	0.562	0.815	0.598	0.474	0.659	1.393	4.334	10.86	17.61	15.97	7.656	1.879	0.353	0.332	0.300	0.301	0.261	0.325	0.238	0.307	0.316	0.283	0.325	0.298	0.277	0.273	0.322	0.355	0.281	0.328	0.313	0.319
250.0	42.29	109.1	196.4	239.9	1270	2880	3578	1119	73.64	6.974	5.907	4.601	3.895	3.147	2.651	1.879	1.829	1.479	1.295	1.237	1.235	1.035	0.979	0.978	0.885	0.796	0.769	0.733	0.762	0.717	0.647	0.631	0.585	0.543	0.544	0.462	0.371	0.436	0.421	0.460	0.418	0.437	0.375	0.406	0.384	0.390	0.606	0.788	0.883	0.878	0.687	1.287	2.860	6.094	11.35	16.44	21.04	16.53	8.555	2.157	0.399	0.325	0.304	0.263	0.345	0.345	0.310	0.307	0.332	0.290	0.328	0.330	0.307	0.287	0.317	0.308	0.330
255.0	29.28	47.80	146.5	299.1	372.2	738.0	2887	5656	1712	63.31	8.856	6.531	5.076	3.780	3.454	2.180	2.040	1.998	1.399	1.473	1.313	1.286	1.016	0.966	0.923	0.868	0.770	0.738	0.778	0.722	0.726	0.632	0.552	0.540	0.468	0.501	0.472	0.385	0.408	0.450	0.439	0.414	0.359	0.355	0.391	0.406	0.451	0.487	0.605	1.022	1.214	1.389	1.134	1.636	2.925	4.318	8.846	21.10	34.64	26.41	12.57	1.942	0.352	0.337	0.323	0.336	0.342	0.334	0.312	0.325	0.383	0.328	0.307	0.317	0.339	0.323	0.289
260.0	28.82	30.57	63.76	256.5	308.1	217.5	877.9	4740	7842	251.6	30.59	8.166	6.078	4.222	3.478	2.642	2.330	2.046	1.644	1.496	1.469	1.143	1.094	1.103	0.941	0.863	0.855	0.757	0.630	0.746	0.763	0.625	0.595	0.534	0.493	0.463	0.537	0.448	0.414	0.425	0.393	0.433	0.428	0.399	0.396	0.421	0.369	0.400	0.382	0.535	0.895	1.644	1.677	1.163	1.037	1.345	2.405	6.017	17.34	34.02	43.02	24.09	8.771	0.958	0.413	0.325	0.330	0.359	0.339	0.339	0.368	0.358	0.306	0.313	0.308	0.339	0.369
265.0	29.74	27.45	28.21	122.1	339.1	223.1	233.9	1589	8005	6132	204.2	15.40	8.012	5.693	4.248	3.432	2.668	2.055	1.952	1.576	1.532	1.201	1.238	1.084	1.005	0.924	0.824	0.928	0.709	0.894	0.794	0.719	0.674	0.634	0.517	0.594	0.546	0.410	0.471	0.494	0.428	0.434	0.479	0.395	0.433	0.415	0.477	0.416	0.339	0.384	0.464	0.961	1.582	2.018	1.490	0.730	0.920	1.708	4.431	11.13	27.18	46.12	32.06	20.04	4.885	0.538	0.388	0.364	0.398	0.333	0.312	0.391	0.355	0.305	0.344	0.363	0.355
270.0	39.74	41.22	33.63	48.52	164.7	343.9	271.6	408.2	2434	6120	7667	796.4	50.06	8.168	5.568	4.015	3.238	2.755	2.285	1.850	1.683	1.516	1.157	1.147	1.079	0.996	0.968	0.932	0.808	0.841	0.866	0.742	0.739	0.668	0.645	0.615	0.554	0.457	0.485	0.511	0.461	0.498	0.529	0.456	0.475	0.425	0.406	0.415	0.423	0.354	0.392	0.517	0.743	1.331	1.767	2.079	1.769	1.136	1.500	2.907	6.762	14.27	23.46	39.94	39.24	39.68	14.27	5.006	0.619	0.410	0.386	0.436	0.372	0.352	0.330	0.358	0.379
275.0	74.30	86.43	78.60	55.24	66.36	161.5	447.4	326.2	593.2	1508	5240	9999.9	1142	48.65	8.398	5.522	3.901	3.277	2.431	2.430	1.645	1.736	1.416	1.248	1.183	1.090	0.979	0.913	0.941	0.946	0.939	0.730	0.747	0.717	0.636	0.550	0.559	0.552	0.525	0.479	0.469	0.526	0.496	0.449	0.521	0.464	0.507	0.579	0.482	0.519	0.416	0.457	0.495	0.620	0.786	1.287	2.424	3.125	2.172	1.279	1.936	3.618	5.734	9.741	13.64	34.62	63.83	65.41	22.74	5.117	0.632	0.397	0.400	0.416	0.342	0.371	0.403
280.0	114.7	149.5	123.0	86.29	55.12	76.37	277.3	531.5	290.0	403.6	1469	7874	9525	825.3	22.46	7.745	5.543	3.805	2.825	2.765	2.085	1.850	1.431	1.414	1.349	1.108	0.949	1.081	1.041	0.931	0.883	0.757	0.956	0.806	0.708	0.632	0.655	0.648	0.562	0.547	0.485	0.525	0.495	0.503	0.670	0.682	0.642	0.653	0.682	0.555	0.509	0.471	0.491	0.499	0.532	0.617	1.219	2.254	3.309	2.672	1.589	1.436	1.848	2.804	3.645	9.115	23.60	52.71	75.34	32.33	17.74	2.371	0.535	0.461	0.391	0.411	0.390
285.0	165.9	210.7	209.0	132.7	69.03	59.29	129.8	459.0	505.3	218.0	430.5	2371	9999.9	7755	117.6	12.63	7.130	4.687	3.375	2.933	2.418	1.942	1.631	1.508	1.397	1.286	0.978	1.044	0.939	1.032	0.985	0.789	0.892	0.854	0.912	0.819	0.771	0.717	0.623	0.618	0.555	0.563	0.609	0.654	0.712	0.825	0.826	1.058	0.968	0.761	0.631	0.643	0.570	0.484	0.478	0.504	0.786	1.009	1.991	3.333	3.801	2.504	1.214	1.401	1.562	2.767	6.087	14.18	33.67	58.98	78.37	29.23	11.93	1.222	0.490	0.516	0.473
290.0	216.8	292.2	297.8	193.0	100.9	76.55	101.4	219.5	508.9	491.9	324.8	688.5	2901	7642	7992	1850	30.92	6.794	4.608	3.362	2.665	2.373	2.017	1.826	1.459	1.368	1.208	1.177	1.022	0.979	1.021	0.894	0.898	0.911	0.886	0.922	0.807	0.840	0.644	0.688	0.644	0.708	0.689	0.691	0.767	0.970	0.977	1.229	1.197	1.047	0.866	0.809	0.740	0.639	0.568	0.615	0.685	0.857	1.078	1.620	2.505	3.320	3.638	2.808	1.761	1.806	2.393	4.266	8.530	15.95	31.27	43.37	58.60	49.55	19.92	10.04	1.643
295.0	259.5	353.9	371.2	257.8	146.9	110.5	126.7	172.2	285.7	620.0	737.4	440.3	860.2	1908	4979	9999.9	673.1	29.24	6.938	5.112	3.519	2.618	2.216	1.907	1.702	1.308	1.404	1.152	1.102	1.113	0.994	1.013	1.057	1.016	1.104	1.009	0.881	0.874	0.843	0.619	0.608	0.737	0.767	0.720	0.891	1.018	1.217	1.312	1.381	1.187	1.110	1.033	0.905	0.785	0.725	0.782	0.858	0.967	1.080	1.180	1.448	1.760	2.782	4.326	4.939	3.334	2.195	2.453	3.231	4.848	8.162	10.72	15.38	26.03	54.81	76.60	32.20
300.0	284.2	394.4	402.9	299.6	180.6	146.7	159.0	196.5	260.1	440.0	930.5	677.9	480.9	621.1	1377	6936	5809	510.0	14.65	6.530	4.320	3.375	2.522	2.019	1.846	1.620	1.527	1.317	1.208	1.365	1.160	1.003	1.006	0.998	0.957	0.991	0.948	0.876	0.713	0.832	0.741	0.795	0.757	0.873	0.981	1.107	1.216	1.398	1.444	1.241	1.104	1.079	0.987	0.897	0.920	0.968	1.011	1.023	1.305	1.167	1.450	1.465	2.123	2.893	4.505	5.657	4.347	3.000	2.512	2.895	3.079	3.738	4.640	6.873	15.96	38.95	68.05
305.0	291.6	420.3	458.3	324.8	214.0	181.7	206.8	249.8	305.0	404.4	724.3	1045	577.7	402.1	470.8	1990	7530	4987	73.77	9.079	5.474	4.297	2.840	2.236	2.078	1.873	1.650	1.551	1.259	1.192	1.099	1.104	1.205	0.952	1.055	1.033	0.942	1.029	0.773	0.803	0.789	0.808	0.773	0.796	0.997	1.151	1.240	1.369	1.613	1.382	1.265	1.278	1.170	1.059	1.068	1.089	1.183	1.308	1.497	1.471	1.673	1.826	2.054	2.526	3.107	4.402	5.930	5.678	3.657	3.016	2.249	2.438	2.381	2.675	4.563	9.830	22.34
310.0	297.5	428.0	475.3	348.3	247.3	221.6	245.8	293.7	353.1	446.0	594.2	877.6	941.9	540.6	331.3	569.7	2145	5496	5859	1449	22.81	5.552	3.945	2.924	2.516	2.023	1.740	1.706	1.418	1.412	1.196	1.070	1.095	1.020	1.059	1.031	1.010	1.015	0.879	0.868	0.744	0.799	0.848	0.857	1.001	1.218	1.337	1.525	1.558	1.470	1.211	1.401	1.226	1.127	1.215	1.199	1.283	1.375	1.742	1.792	1.875	2.111	2.357	2.587	2.802	3.273	3.857	4.889	5.361	5.426	3.787	2.819	2.164	2.101	2.263	3.090	5.900
315.0	283.1	440.7	489.2	376.6	279.9	252.6	289.4	333.4	402.4	489.9	597.8	709.1	836.9	898.3	434.2	299.4	585.9	1328	3601	7842	497.3	23.42	5.688	4.156	3.121	2.561	2.078	1.880	1.579	1.406	1.255	1.339	1.133	1.050	1.207	1.044	0.932	0.987	0.898	0.937	0.840	0.865	0.830	0.945	1.104	1.219	1.416	1.688	1.628	1.508	1.301	1.406	1.336	1.376	1.300	1.416	1.380	1.503	1.815	2.042	2.017	2.176	2.473	2.929	2.867	3.236	3.357	3.609	3.881	4.623	5.352	5.452	3.584	2.614	1.955	1.977	2.416
320.0	336.5	503.0	541.8	419.0	317.0	292.4	320.1	358.6	434.3	525.6	632.3	710.5	739.9	875.3	700.5	313.4	279.3	396.4	955.6	5080	6727	412.4	11.71	5.093	3.651	3.138	2.131	1.859	1.726	1.522	1.367	1.349	1.151	1.098	1.091	0.996	1.019	0.981	0.878	0.871	0.845	0.881	0.953	0.950	1.161	1.411	1.435	1.815	1.844	1.727	1.445	1.440	1.558	1.400	1.449	1.405	1.584	1.863	1.897	2.092	2.359	2.270	2.576	2.832	3.019	3.221	3.420	3.670	3.729	3.858	4.384	5.149	5.411	4.410	2.575	2.197	1.847
325.0	356.6	568.9	680.2	515.4	359.6	319.5	339.2	388.1	460.4	558.1	661.0	731.8	731.8	725.9	812.6	477.6	249.9	215.1	295.7	1413	5874	3840	58.44	7.702	4.490	3.482	2.460	2.199	1.761	1.763	1.315	1.414	1.169	1.074	1.211	1.092	0.988	0.905	0.889	0.870	0.872	0.952	1.017	0.968	1.257	1.521	1.560	2.176	2.274	1.972	1.727	1.781	1.684	1.590	1.439	1.589	1.797	1.818	1.981	2.155	2.366	2.669	2.803	3.023	3.352	3.384	3.497	3.871	3.737	3.840	3.727	3.965	4.580	5.418	4.682	2.953	2.077
330.0	394.6	638.0	836.4	673.3	450.1	375.7	371.8	405.6	483.7	583.6	685.4	760.7	758.3	692.0	673.3	644.6	406.6	219.4	176.9	395.1	1627	4036	4624	1271	20.17	4.744	3.326	2.642	2.186	1.975	1.633	1.429	1.344	1.192	1.152	1.104	0.979	0.958	0.987	0.886	0.869	0.893	0.963	1.052	1.242	1.549	1.809	2.372	2.743	2.431	2.269	2.195	2.047	1.953	1.639	1.765	1.859	1.882	2.142	2.195	2.424	2.686	2.858	3.065	3.401	3.408	3.624	3.953	3.832	3.827	3.793	3.846	3.947	4.104	4.329	4.211	3.927
335.0	441.5	688.8	904.2	780.0	545.8	431.9	396.2	441.4	504.4	600.7	712.6	776.6	779.6	717.9	628.3	556.4	597.3	358.4	191.1	195.5	432.5	963.3	2851	6388	422.5	23.75	4.471	3.488	2.680	2.438	1.844	1.613	1.364	1.373	1.121	1.098	1.168	0.963	0.939	0.971	0.882	0.830	1.039	1.076	1.254	1.576	1.849	2.636	2.894	2.797	2.588	2.769	2.278	2.098	1.994	2.050	1.925	2.187	2.284	2.530	2.446	2.681	3.000	3.211	3.488	3.511	3.685	4.124	3.922	4.081	4.147	4.046	3.871	3.756	3.736	3.514	4.025
340.0	439.2	721.4	965.8	865.9	604.1	458.6	428.6	464.9	520.9	618.5	706.4	780.9	789.5	731.8	625.1	521.4	539.9	518.2	255.2	170.9	181.4	269.3	741.7	4065	5693	374.7	12.61	4.173	3.101	2.640	2.118	1.574	1.443	1.523	1.333	1.207	1.054	0.986	0.902	1.006	0.884	0.837	1.053	1.068	1.299	1.621	2.104	2.656	2.967	3.027	2.612	2.827	2.507	2.278	2.129	2.117	2.119	2.204	2.263	2.538	2.515	2.716	3.015	3.220	3.492	3.608	3.841	3.924	3.884	4.164	4.002	3.816	4.069	4.030	3.546	3.279	3.249
345.0	430.0	707.0	962.2	891.1	626.2	495.8	449.6	469.5	523.4	608.9	694.1	762.5	779.8	727.7	636.6	520.4	461.7	513.7	385.8	195.3	141.3	129.8	214.1	1112	4784	3288	294.0	6.922	3.803	3.029	2.120	1.851	1.555	1.365	1.192	1.142	1.070	0.957	1.009	0.916	0.929	0.776	0.972	1.090	1.198	1.534	2.073	2.571	2.920	3.024	2.841	2.910	2.902	2.534	2.278	2.147	2.186	2.176	2.356	2.572	2.529	2.602	2.916	3.087	3.330	3.478	3.770	3.850	3.925	4.060	3.983	3.967	4.025	4.146	3.502	3.312	3.168
350.0	395.9	673.2	921.4	878.7	674.9	547.5	485.7	483.3	530.7	597.3	676.4	732.7	747.6	709.0	634.0	529.8	446.9	418.7	438.6	327.8	175.8	125.0	118.1	296.0	1307	3246	3837	1153	19.14	4.329	2.584	2.241	1.856	1.523	1.250	1.120	1.109	1.025	0.929	0.883	0.841	0.990	0.959	1.036	1.247	1.600	1.911	2.457	2.790	2.859	2.859	3.029	3.019	2.451	2.450	2.346	2.422	2.359	2.348	2.541	2.656	2.666	2.988	3.083	3.141	3.270	3.504	3.570	3.828	4.073	3.978	4.029	3.909	3.867	3.677	3.437	3.244
355.0	381.1	626.5	859.6	852.0	705.0	590.8	529.4	507.7	546.0	602.0	664.2	708.3	719.8	692.6	629.4	543.7	457.7	406.8	373.1	410.1	295.8	162.2	123.0	136.3	339.3	772.4	2206	5122	1602	27.16	3.891	2.898	2.060	1.615	1.336	1.093	1.076	1.002	1.008	0.849	0.898	0.849	0.994	0.993	1.182	1.419	1.850	2.471	2.608	2.651	2.679	3.184	2.849	2.571	2.569	2.436	2.533	2.485	2.619	2.583	2.712	2.778	3.046	2.926	3.350	3.258	3.429	3.542	3.713	3.914	3.674	3.879	3.643	3.692	3.671	3.525	3.433
360.0	386.1	598.5	840.9	832.4	717.8	625.3	562.8	541.9	576.5	612.9	668.4	700.3	699.0	682.0	623.3	554.0	478.8	419.9	364.4	372.1	389.4	233.8	146.7	119.8	139.3	216.9	570.3	3182	5024	383.6	13.66	3.366	2.522	1.826	1.601	1.208	1.249	1.041	1.001	0.921	0.873	0.932	0.964	1.083	1.210	1.426	1.737	2.301	2.573	2.448	2.532	2.920	2.969	2.709	2.705	2.454	2.634	2.556	2.561	2.630	2.892	2.965	3.123	2.868	3.102	3.225	3.259	3.498	3.643	3.941	3.702	3.800	3.605	3.721	3.449	3.558	3.497
365.0	365.0	587.4	780.5	827.1	723.6	640.3	592.8	569.0	587.4	625.3	665.3	693.0	695.5	670.0	614.4	559.1	494.1	436.0	377.0	345.1	383.1	335.4	188.9	135.0	112.7	106.2	166.4	873.3	4008	5290	284.8	6.397	3.052	2.054	1.820	1.491	1.249	1.034	1.030	1.021	0.976	1.059	0.983	1.104	1.166	1.348	1.709	2.181	2.587	2.402	2.599	2.923	2.989	2.906	2.712	2.516	2.582	2.746	2.677	2.861	2.930	3.170	3.196	3.128	3.341	3.283	3.302	3.350	3.635	3.636	3.883	3.980	3.682	3.763	3.684	3.865	3.753
370.0	341.7	557.6	755.9	792.9	737.9	669.7	631.8	604.1	611.0	628.6	659.4	680.9	678.0	659.0	615.6	555.3	507.8	458.8	404.0	363.9	342.3	359.7	302.8	187.1	132.6	105.2	94.15	235.6	1091	3599	3477	1072	17.91	2.963	2.149	1.572	1.339	1.209	1.072	1.007	1.023	1.003	1.103	1.095	1.188	1.369	1.636	1.975	2.370	2.414	2.503	3.006	3.099	2.945	2.976	2.776	2.842	2.917	2.778	2.929	3.032	3.195	3.090	3.354	3.252	3.189	3.209	3.262	3.539	3.567	3.710	3.707	3.782	3.642	3.536	3.710	3.673
375.0	342.2	530.3	729.3	781.2	733.1	698.7	651.8	633.0	626.4	645.5	667.0	666.9	667.3	645.7	605.8	560.2	516.1	476.1	430.0	386.9	348.4	324.2	347.4	291.7	175.0	129.7	101.4	110.1	283.8	845.0	1953	4438	1449	21.45	3.372	2.093	1.765	1.405	1.129	1.041	0.954	1.084	1.048	0.985	1.205	1.319	1.428	1.894	2.229	2.202	2.352	2.870	3.056	2.989	2.845	2.804	2.760	3.007	2.752	3.186	3.121	3.143	3.118	3.092	3.268	3.295	3.035	3.454	3.476	3.510	3.478	3.594	3.770	3.626	3.631	3.464	3.667
380.0	332.0	505.5	692.7	772.2	750.0	716.4	673.4	643.2	629.4	648.4	663.9	661.6	650.6	634.6	593.1	556.0	523.9	482.4	442.6	406.0	362.3	327.0	321.3	345.6	240.8	156.7	119.9	96.76	115.3	225.1	504.4	2732	4166	305.3	12.01	2.685	2.272	1.528	1.285	1.096	1.034	1.072	1.095	1.149	1.118	1.393	1.542	1.973	2.173	2.117	2.381	2.994	3.072	2.845	2.907	2.903	2.898	3.074	2.859	3.065	3.046	3.206	3.153	3.305	3.359	3.211	3.415	3.189	3.386	3.460	3.627	3.369	3.607	3.609	3.688	3.573	3.557
385.0	340.5	481.6	684.4	758.1	771.0	710.0	674.7	649.3	638.2	647.1	651.4	650.3	638.0	625.1	581.7	549.9	518.0	487.5	445.6	417.5	376.5	339.0	311.8	329.3	309.8	195.7	137.9	108.5	91.16	97.22	146.4	742.6	3194	2575	239.2	5.451	2.630	1.681	1.428	1.101	1.043	1.088	1.114	1.081	1.188	1.409	1.371	1.793	2.033	2.156	2.215	2.844	2.952	2.875	3.016	2.904	2.964	3.169	3.077	2.965	3.379	3.191	3.106	3.209	3.269	3.395	3.100	3.143	3.365	3.375	3.366	3.456	3.504	3.437	3.485	3.379	3.571
390.0	320.2	473.1	642.3	731.7	756.9	715.2	684.7	655.4	641.1	642.0	642.3	637.2	623.4	603.6	571.6	538.0	507.7	485.8	453.9	422.5	389.4	356.9	325.0	308.9	316.4	278.9	186.6	136.0	107.5	86.63	78.97	198.7	862.7	2188	2673	849.9	14.80	2.672	1.745	1.367	1.260	1.203	1.126	1.135	1.274	1.383	1.431	1.921	2.046	2.040	2.105	2.690	3.072	2.956	3.127	3.007	3.072	3.178	3.101	3.025	3.059	3.154	3.209	3.168	3.191	3.294	3.131	3.175	3.279	3.065	3.393	3.256	3.356	3.574	3.484	3.570	3.451
395.0	317.8	464.1	618.9	708.9	731.1	716.1	690.5	666.3	645.8	630.5	629.9	625.7	611.7	591.3	557.7	527.9	499.0	476.1	452.6	426.4	399.3	367.9	341.4	312.0	294.6	299.9	265.4	175.0	134.0	106.0	81.50	87.31	222.0	517.6	1482	3289	1119	18.03	2.743	1.616	1.351	1.218	1.244	1.105	1.137	1.390	1.406	1.858	2.101	2.062	2.188	2.740	2.913	2.919	3.015	3.054	3.066	3.152	3.258	3.056	3.147	3.192	3.156	3.199	3.066	3.284	3.272	3.392	3.248	3.027	3.332	3.055	3.316	3.471	3.474	3.442	3.635
400.0	281.9	443.4	623.5	703.1	725.5	707.8	705.3	666.3	646.8	638.5	632.1	612.9	601.4	582.4	550.6	518.8	490.5	470.9	447.8	426.8	401.5	376.3	352.8	325.0	296.2	288.8	301.0	228.9	158.3	124.7	95.16	76.69	87.78	141.8	382.5	2004	3015	257.4	10.06	2.114	1.503	1.403	1.306	1.214	1.185	1.387	1.448	1.798	2.044	1.920	2.122	2.592	2.817	2.865	2.922	2.938	3.214	3.099	3.262	3.038	3.138	3.321	3.103	3.248	3.145	3.101	3.169	3.333	3.065	3.070	3.277	3.164	3.096	3.467	3.534	3.337	3.525
405.0	289.6	445.9	612.2	693.7	711.9	715.8	690.1	658.4	646.2	633.5	622.5	615.9	595.0	571.4	536.6	502.0	479.2	462.1	439.5	423.6	401.5	376.4	358.3	331.8	306.6	284.9	292.2	280.1	194.4	143.0	111.4	84.67	66.86	64.11	108.7	539.8	2267	2160	202.6	4.336	1.918	1.542	1.346	1.171	1.238	1.375	1.460	1.872	2.020	1.949	2.194	2.608	2.973	2.971	2.932	2.968	3.145	3.214	3.144	2.895	2.910	3.169	3.179	3.370	3.119	3.107	3.135	3.086	2.969	3.150	3.131	3.113	3.182	3.270	3.241	3.487	3.340
410.0	279.7	439.7	583.8	681.3	702.8	718.1	688.3	660.5	642.8	625.9	619.5	602.9	581.1	553.7	523.6	487.2	458.7	443.3	429.8	411.9	393.9	374.4	361.4	340.1	316.7	291.4	277.5	277.8	253.0	183.5	132.9	100.8	75.45	56.54	53.78	142.2	608.5	1630	2009	678.9	13.15	2.135	1.610	1.370	1.323	1.416	1.444	1.795	2.057	2.026	2.130	2.511	2.860	2.970	2.860	2.977	3.065	3.102	3.193	3.021	3.131	3.143	3.141	3.248	2.984	3.019	2.928	3.079	3.037	2.996	3.147	3.156	3.123	3.142	3.135	3.253	3.059
415.0	266.1	405.0	562.0	671.5	695.4	702.8	673.2	652.2	630.9	625.2	608.9	588.7	556.2	526.2	501.3	461.8	440.2	422.3	406.9	392.4	382.1	365.4	356.7	340.9	320.7	297.1	275.6	260.7	263.0	241.1	163.2	117.5	87.60	65.10	49.07	57.74	154.4	382.3	1038	2310	258.1	16.24	1.965	1.575	1.376	1.423	1.582	1.770	1.842	2.207	1.977	2.526	2.804	2.771	2.866	3.070	2.971	2.961	3.248	3.067	3.063	3.320	2.995	2.824	2.825	2.910	2.929	2.923	2.824	2.918	2.912	2.763	2.909	3.174	3.113	3.007	3.003
420.0	265.6	400.4	553.3	639.3	670.9	665.8	669.7	644.1	624.5	621.4	591.9	579.7	544.3	514.3	482.5	450.0	421.8	406.0	394.2	382.5	370.3	358.2	346.4	333.7	319.5	298.6	277.6	256.1	247.5	255.6	197.7	132.6	97.61	74.03	53.89	43.93	56.95	99.97	262.3	1360	2030	236.6	8.791	2.020	1.596	1.598	1.441	1.640	1.912	2.013	1.969	2.510	2.766	2.810	2.822	2.776	3.102	3.007	3.225	3.192	2.854	3.025	3.008	2.827	2.978	2.894	2.926	2.822	2.729	2.863	2.530	2.982	2.826	3.098	2.872	2.939	3.035
425.0	273.6	377.1	542.5	619.9	663.6	662.2	650.9	640.8	626.1	613.5	591.6	568.8	530.0	501.1	465.2	430.8	405.8	393.0	381.2	367.5	358.5	348.7	341.4	329.3	312.7	298.5	281.2	257.2	238.5	241.6	226.8	154.5	108.6	81.84	60.32	45.24	38.82	39.92	71.08	362.0	1551	1816	185.7	3.737	1.920	1.605	1.561	1.589	1.922	1.800	2.053	2.432	2.570	2.837	2.983	2.926	3.188	3.141	3.012	3.047	2.952	3.040	2.950	3.011	3.018	2.843	2.740	2.511	2.748	2.952	2.770	2.874	2.702	2.933	2.835	3.082	2.960
430.0	271.2	372.5	514.0	596.9	633.5	645.2	654.2	634.1	627.9	603.7	588.0	558.4	516.6	485.7	446.4	411.3	388.4	372.7	363.7	349.7	340.4	332.0	326.2	320.4	307.6	295.3	279.6	260.5	242.0	228.9	219.0	191.8	131.9	93.66	69.78	53.06	40.07	31.30	31.74	92.08	407.5	1197	1634	551.1	12.62	2.035	1.744	1.784	1.947	1.898	1.958	2.475	2.658	2.618	2.750	2.685	3.023	2.963	3.123	3.093	2.965	3.026	3.077	3.089	2.902	2.847	2.666	2.496	2.717	2.739	2.727	2.785	2.634	2.687	2.702	2.787	2.780
435.0	329.8	372.7	493.1	584.4	615.5	630.7	637.3	632.9	622.4	602.2	583.0	546.0	503.3	466.1	432.0	392.6	368.0	352.2	342.8	331.6	326.0	319.0	311.7	310.7	299.9	291.6	280.1	261.5	245.2	228.9	207.5	193.3	166.1	112.9	79.94	62.01	46.09	34.45	27.64	35.04	101.3	278.4	799.6	1847	243.7	16.18	2.206	1.983	2.051	1.994	1.829	2.351	2.503	2.669	2.844	2.560	3.078	3.127	3.076	3.147	2.970	3.116	2.938	2.973	2.910	2.872	2.761	2.647	2.637	2.687	2.574	2.774	2.570	2.741	2.585	2.667	2.764
440.0	435.3	403.8	480.8	564.1	600.5	612.4	623.4	633.1	613.8	597.5	581.4	545.4	493.9	452.9	416.3	378.2	355.3	337.8	328.6	318.8	311.6	308.6	304.5	299.4	295.2	286.5	272.7	262.0	245.5	230.6	203.4	181.7	173.1	134.2	90.07	68.97	51.07	38.84	28.76	24.69	35.04	71.77	200.3	1078	1782	220.3	8.632	2.416	2.124	2.047	1.837	2.362	2.520	2.527	2.654	2.509	2.988	2.868	3.144	3.039	2.883	2.921	3.074	3.098	2.949	2.882	2.635	2.864	2.817	2.578	2.829	2.543	2.564	2.678	2.644	2.550	2.591
445.0	490.9	501.5	473.6	532.4	580.7	599.9	609.2	618.0	605.5	588.4	572.7	529.0	481.2	439.0	397.8	365.7	341.8	323.4	311.2	301.7	298.1	294.6	292.5	287.3	284.7	276.7	266.4	257.6	243.9	228.3	204.0	175.5	162.4	150.4	104.2	74.44	55.94	42.83	32.34	25.19	22.60	27.39	53.51	285.1	1327	1615	156.6	4.569	2.364	2.014	1.949	2.432	2.459	2.498	2.536	2.529	2.973	2.764	2.971	2.859	2.887	2.961	2.876	2.962	2.866	2.863	2.705	2.774	2.689	2.432	2.536	2.427	2.607	2.626	2.514	2.342	2.389
450.0	395.0	838.5	554.9	504.2	552.5	567.7	584.1	590.3	587.1	564.7	547.8	508.3	456.5	418.5	374.2	339.7	319.4	301.9	289.4	279.4	275.4	270.0	270.7	268.9	266.3	260.6	251.6	244.6	234.6	221.2	199.3	171.6	150.1	139.5	122.6	87.08	62.21	47.01	36.76	28.24	22.34	19.29	21.91	71.49	346.8	1047	1387	485.9	11.03	2.294	1.993	2.326	2.562	2.521	2.501	2.410	2.739	2.785	2.822	2.876	2.808	2.842	2.981	2.834	2.714	2.705	2.745	2.609	2.529	2.434	2.488	2.403	2.317	2.288	2.448	2.299	2.329
455.0	233.3	925.0	988.1	491.5	512.9	535.9	542.7	551.9	554.8	534.7	521.2	484.6	428.5	387.9	348.8	317.5	288.0	277.2	268.8	255.4	252.2	248.6	245.7	246.4	244.4	239.7	235.0	228.7	219.5	210.9	191.7	167.7	144.3	124.3	119.1	103.9	71.72	51.78	41.03	31.49	25.54	19.72	17.49	25.11	84.46	242.0	630.0	1515	204.7	12.72	2.261	2.219	2.507	2.269	2.299	2.517	2.669	2.671	2.628	2.881	2.802	2.873	2.836	2.680	2.629	2.689	2.543	2.478	2.296	2.255	2.355	2.302	2.209	2.074	2.168	2.265	2.262
460.0	187.3	656.4	1449	633.4	475.0	501.5	515.8	527.7	526.4	510.4	497.5	461.7	405.0	364.3	326.3	292.4	269.5	256.6	247.2	237.1	233.2	231.4	229.5	228.2	228.5	225.0	222.7	215.2	206.8	201.5	184.3	160.7	139.4	118.7	106.2	105.9	84.14	55.97	43.52	33.82	27.33	21.32	16.90	15.57	26.95	60.33	154.2	819.0	1377	169.0	7.899	2.723	2.465	2.233	2.481	2.381	2.514	2.549	2.854	2.732	2.579	2.646	2.652	2.535	2.621	2.490	2.371	2.428	2.138	2.234	2.033	2.100	2.154	1.927	2.105	1.982	2.092
465.0	179.0	401.2	1539	877.9	454.9	476.6	486.0	494.8	492.4	484.2	468.4	439.0	380.6	346.8	305.0	272.6	252.7	242.2	228.6	222.0	216.2	210.6	213.6	212.4	210.7	207.4	207.8	200.8	197.8	191.5	176.1	155.8	134.9	115.9	97.88	95.94	88.83	63.16	45.21	36.27	28.10	23.52	18.12	14.33	15.08	20.44	40.50	210.7	996.9	1200	134.0	4.475	2.517	2.462	2.437	2.230	2.389	2.374	2.456	2.473	2.506	2.633	2.642	2.611	2.469	2.467	2.393	2.203	2.155	2.385	1.976	2.036	2.057	2.152	1.842	2.023	1.779
470.0	174.8	273.5	975.2	1870	687.9	429.9	449.7	459.4	453.3	450.2	431.9	401.5	351.1	310.7	276.1	246.5	228.4	217.8	205.7	196.9	191.6	189.7	189.0	193.0	189.8	186.7	185.3	183.6	179.9	173.7	162.8	143.9	127.7	110.3	92.98	82.44	79.07	70.49	51.84	38.00	30.14	24.58	19.68	15.63	13.22	12.63	15.41	52.47	256.6	730.3	960.3	389.2	11.67	2.709	2.456	2.244	2.300	2.297	2.309	2.353	2.209	2.465	2.379	2.438	2.223	2.268	2.199	2.063	2.011	2.044	1.976	2.092	1.922	1.877	1.776	1.907	1.854
475.0	169.6	219.2	450.7	1832	1589	423.5	397.9	415.4	408.6	408.0	392.6	362.2	323.3	280.0	246.3	218.5	204.0	192.7	184.3	174.8	168.7	165.8	167.3	168.8	167.7	164.9	162.7	164.1	161.3	156.1	147.2	132.8	115.2	102.2	88.37	75.43	66.91	65.02	59.61	42.00	30.82	25.46	20.60	17.09	14.46	11.85	10.55	17.78	62.39	168.2	375.8	983.4	207.1	14.77	2.522	2.192	2.224	2.207	2.203	1.983	2.027	2.082	2.254	2.233	2.265	1.983	1.840	1.962	2.032	1.766	1.772	1.774	1.596	1.832	1.753	1.547	1.924
480.0	165.7	229.1	305.3	1149	2412	540.3	371.9	382.9	386.0	373.4	367.7	332.9	296.9	261.6	228.9	201.9	187.6	175.8	168.4	159.1	156.0	156.0	152.9	154.2	153.6	151.2	150.4	148.1	148.6	145.2	135.9	122.8	108.8	96.34	83.31	71.32	61.38	57.14	58.79	47.15	32.09	25.83	21.13	17.54	15.08	12.41	9.847	10.61	18.91	41.83	90.76	456.2	960.1	191.5	9.266	2.306	2.206	2.206	1.963	2.105	2.094	2.070	2.136	2.212	1.976	1.933	1.755	1.723	1.824	1.681	1.632	1.710	1.531	1.789	1.654	1.508	1.560
485.0	148.8	238.5	252.8	576.3	2466	1178	357.4	355.7	358.2	355.8	348.0	313.0	280.2	245.8	215.8	190.2	173.8	165.3	158.4	148.3	144.6	141.5	140.8	143.4	141.7	140.8	138.7	139.1	135.1	135.4	126.7	115.9	105.6	91.36	80.15	68.35	59.12	52.63	52.75	50.51	36.26	26.57	21.92	18.50	15.15	12.81	10.22	9.109	9.872	13.69	24.06	114.1	611.7	928.3	154.6	4.612	2.137	2.176	2.074	1.863	2.075	2.007	1.957	2.030	1.856	1.955	1.708	1.678	1.673	1.593	1.624	1.599	1.436	1.525	1.501	1.450	1.563
490.0	123.4	226.9	255.3	337.7	1377	2108	614.6	328.3	332.9	326.4	319.5	289.8	259.7	227.5	198.0	175.0	158.9	149.7	141.0	134.7	129.2	128.5	127.4	128.5	126.1	126.2	126.6	125.6	124.9	124.0	117.7	107.7	97.44	84.70	75.13	65.71	56.63	49.95	44.94	45.10	41.67	31.33	22.84	19.17	15.92	13.90	11.34	9.512	8.282	8.011	9.537	29.22	152.8	485.0	772.5	366.7	13.31	2.384	1.985	1.832	1.900	1.874	1.930	1.851	1.789	1.814	1.708	1.628	1.566	1.634	1.414	1.493	1.381	1.336	1.357	1.407	1.436
495.0	102.9	181.2	275.4	259.3	530.9	1941	1598	326.4	301.3	297.7	284.1	268.8	233.9	205.3	180.6	159.0	140.2	133.5	127.6	120.1	116.4	115.1	114.0	113.4	112.8	112.8	112.5	112.5	110.8	112.2	106.0	97.75	88.73	77.27	69.33	60.73	53.25	46.25	41.03	37.77	37.84	36.81	25.68	19.46	16.22	13.64	12.03	10.13	8.328	7.163	6.464	10.37	37.27	111.5	294.0	858.6	540.0	18.41	2.130	1.892	1.714	1.726	1.829	1.698	1.740	1.642	1.614	1.516	1.423	1.638	1.337	1.454	1.287	1.317	1.245	1.320	1.261
500.0	92.71	164.8	275.3	246.9	308.3	1132	2460	507.1	278.6	274.5	264.4	246.0	214.3	187.8	162.8	145.8	128.4	122.4	115.9	110.2	104.0	103.2	102.2	102.6	102.6	100.9	102.4	102.0	101.0	101.1	97.86	89.96	81.16	72.52	63.88	56.50	51.20	43.94	39.10	34.45	32.52	35.47	29.92	21.14	16.37	13.99	11.73	10.05	8.994	7.207	5.801	6.409	11.38	27.83	70.17	367.5	961.1	218.8	11.90	1.957	1.709	1.672	1.665	1.656	1.554	1.625	1.415	1.342	1.421	1.382	1.321	1.356	1.244	1.171	1.198	1.258	1.239
505.0	85.36	131.4	245.4	247.7	236.8	524.0	2519	1124	260.7	254.5	243.6	223.9	198.8	171.1	151.2	131.1	119.8	111.6	104.0	100.3	95.72	93.52	93.16	94.13	93.06	91.43	92.57	92.79	91.50	92.35	88.46	81.21	74.38	67.14	59.99	52.42	47.92	41.04	36.36	32.79	29.29	31.09	30.80	23.27	16.38	14.03	12.03	10.10	9.031	7.295	6.066	5.325	5.946	9.211	18.46	89.23	498.7	859.9	183.1	5.903	1.737	1.595	1.546	1.592	1.487	1.436	1.388	1.291	1.293	1.273	1.240	1.223	1.115	1.226	1.275	1.155	1.081
510.0	77.94	113.9	189.6	248.7	205.0	281.2	1357	2241	486.2	224.6	217.5	198.0	175.8	152.3	133.9	115.4	106.6	98.18	91.53	87.43	84.25	82.33	81.42	82.02	80.39	79.96	80.00	80.49	80.26	80.36	77.18	71.63	65.75	59.53	52.81	47.26	42.79	37.20	33.20	29.31	26.70	25.07	26.51	25.36	18.82	13.89	11.86	9.969	8.479	7.306	6.338	5.355	4.806	5.154	6.885	22.44	120.5	395.6	640.6	308.6	14.22	1.861	1.577	1.371	1.399	1.332	1.271	1.205	1.205	1.179	1.163	1.091	1.078	1.169	1.033	0.987	1.001
515.0	73.22	97.49	146.3	236.3	207.0	204.2	469.6	2103	1520	223.6	192.7	174.9	154.4	135.5	115.2	100.7	91.57	86.39	80.32	76.29	73.08	70.58	69.36	69.17	69.19	69.78	67.46	67.89	69.01	69.42	67.10	62.40	56.56	50.88	47.07	41.89	37.91	34.04	30.06	26.59	24.26	21.69	20.95	22.44	21.34	15.34	11.62	9.561	8.097	7.138	6.024	5.745	4.598	4.230	4.289	7.404	29.10	90.32	203.3	606.0	237.2	19.91	1.620	1.405	1.340	1.381	1.064	1.083	1.088	1.103	1.027	0.969	0.923	0.905	1.079	0.894	0.956
520.0	59.67	87.63	121.8	194.3	218.7	169.6	239.8	1183	2428	284.5	175.1	156.8	141.2	120.6	104.2	91.09	81.13	76.78	71.80	68.08	64.63	63.49	61.48	62.33	61.86	61.62	60.29	60.87	61.51	61.77	57.78	55.68	51.07	45.35	42.02	38.30	34.01	31.75	27.93	24.91	21.96	20.03	18.52	18.57	20.52	17.33	11.87	9.437	7.826	6.875	6.098	5.530	5.028	3.889	3.600	3.980	8.633	22.33	48.10	235.1	624.7	223.0	13.24	1.535	1.323	1.147	1.012	1.126	1.015	0.985	0.945	0.843	0.875	0.987	0.835	0.916	0.841
525.0	63.65	81.59	106.9	150.9	227.7	159.1	171.3	485.2	2647	1033	164.8	145.6	127.1	109.7	92.06	82.29	74.52	69.11	65.08	59.85	57.99	56.42	56.16	57.63	54.96	54.71	54.00	54.54	56.21	55.81	53.58	50.02	45.80	42.19	38.72	34.61	31.28	28.74	25.60	23.18	20.44	19.29	16.80	15.89	17.33	18.34	13.75	9.378	7.742	6.488	5.872	5.141	5.041	4.281	3.446	3.248	4.270	7.066	12.69	56.30	298.2	614.8	180.7	6.700	1.281	1.170	1.079	0.985	0.925	0.870	0.893	0.782	0.851	0.858	0.783	0.927	0.851
530.0	56.47	74.70	94.44	117.0	186.7	179.0	140.7	216.8	1352	2282	408.2	126.4	109.7	96.87	82.46	73.47	64.04	59.89	55.96	51.95	50.76	48.96	48.90	48.49	47.84	47.38	47.49	47.09	47.49	48.11	45.27	43.49	40.24	36.22	33.72	29.98	27.78	25.19	22.50	20.51	18.36	16.68	15.15	13.69	13.63	15.55	14.68	10.66	7.495	6.525	5.617	4.820	4.464	4.218	3.717	3.104	3.052	3.542	4.665	14.35	71.04	253.3	438.6	237.2	14.91	1.458	1.088	0.939	0.890	0.808	0.864	0.744	0.762	0.734	0.846	0.765	0.736
535.0	47.35	62.81	82.26	93.48	130.7	185.7	135.4	138.2	416.1	2178	1483	128.8	98.44	83.08	70.99	61.11	56.25	52.18	48.24	44.56	43.25	43.11	41.01	40.00	41.30	40.07	39.54	39.91	40.66	40.13	39.57	37.02	33.60	31.52	28.26	25.67	23.96	21.52	19.90	18.10	16.31	14.92	13.51	11.87	11.07	11.52	12.47	12.00	8.166	6.147	5.393	4.443	4.090	3.730	3.627	3.352	2.828	2.588	2.711	4.580	17.38	58.03	126.2	392.2	241.9	21.06	1.048	0.920	0.938	0.731	0.867	0.695	0.741	0.650	0.734	0.788	0.685
540.0	43.55	61.60	69.16	84.41	99.78	167.0	150.8	112.8	177.4	1099	2597	204.4	85.55	74.36	61.54	56.05	48.78	46.29	42.66	39.38	37.64	38.08	36.92	35.86	35.98	34.84	34.47	35.47	34.71	34.43	33.90	31.84	30.37	27.62	24.96	23.40	21.15	19.28	17.10	16.08	14.51	13.43	12.06	10.78	10.23	9.433	10.14	11.58	9.317	6.321	4.953	4.202	3.722	3.384	3.347	3.276	2.816	2.337	2.251	2.556	5.166	14.17	29.80	139.2	430.6	217.5	12.93	0.991	0.917	0.902	0.858	0.714	0.643	0.642	0.698	0.742	0.610
545.0	45.35	57.36	70.80	73.42	83.33	135.1	158.2	102.8	115.2	395.9	2676	867.1	78.09	65.01	56.68	50.69	43.13	41.34	36.64	35.34	33.10	33.14	31.92	31.23	30.47	30.99	31.13	30.80	30.86	30.46	29.16	28.33	26.00	24.34	22.51	20.42	19.04	16.82	15.41	14.54	12.82	11.99	10.44	9.581	9.155	8.459	8.039	9.761	9.505	7.100	4.758	4.016	3.581	3.242	3.091	3.194	3.088	2.473	2.144	1.932	2.473	4.534	7.977	32.94	182.6	425.6	164.7	5.733	0.974	0.874	0.807	0.649	0.623	0.594	0.631	0.585	0.609
550.0	42.86	53.92	62.90	67.91	68.07	89.59	152.9	106.9	88.87	152.4	1246	2075	224.2	56.96	47.90	41.74	36.53	33.75	30.85	29.35	28.18	26.98	26.82	25.89	25.83	25.28	25.48	25.17	25.42	25.28	24.52	23.39	21.82	20.80	18.56	17.15	15.74	14.54	13.23	12.34	11.15	10.33	9.350	8.451	7.840	7.210	6.716	6.827	7.980	7.321	5.180	3.740	3.240	2.861	2.628	2.649	2.663	2.495	2.045	1.757	1.749	2.230	2.821	8.348	43.12	160.6	297.1	138.8	14.63	1.056	0.737	0.646	0.582	0.617	0.563	0.521	0.640
555.0	44.40	45.13	55.22	56.33	53.81	63.85	113.2	125.5	74.59	85.67	348.1	2092	1027	55.77	38.73	32.99	30.64	27.95	25.96	24.27	22.24	21.95	21.48	20.81	21.17	20.87	20.61	21.18	20.64	20.06	19.87	19.48	17.42	16.61	15.01	14.29	12.73	11.59	10.90	10.35	9.480	8.042	7.812	7.302	6.766	5.889	5.504	5.306	5.363	6.116	5.589	3.763	2.940	2.595	2.282	2.225	2.203	2.162	2.289	1.721	1.511	1.541	1.641	2.908	10.55	36.54	82.24	239.2	224.3	19.39	0.850	0.696	0.582	0.541	0.526	0.549	0.519
560.0	42.36	42.67	56.18	53.82	48.10	55.42	75.50	134.5	72.50	67.67	126.3	1022	2051	114.4	35.34	28.87	26.79	23.86	21.78	19.99	18.47	18.14	18.83	17.76	17.71	17.47	17.40	17.13	17.18	17.65	16.60	16.12	14.68	14.10	12.97	11.90	10.92	10.23	9.562	8.521	7.880	7.441	6.837	6.212	5.727	5.357	5.004	4.509	4.265	4.910	5.577	4.175	2.837	2.329	2.154	1.824	1.872	1.860	2.098	1.758	1.536	1.399	1.323	1.559	3.308	8.980	19.47	82.19	279.2	172.8	11.69	0.822	0.596	0.487	0.529	0.510	0.545
565.0	42.22	46.52	55.09	51.98	43.29	44.76	55.54	124.1	85.25	57.74	70.88	343.3	2268	506.6	31.15	26.63	23.17	20.69	19.08	17.29	16.46	15.89	15.40	15.04	15.33	14.55	14.60	14.54	15.75	14.94	14.21	13.68	13.05	12.07	11.07	10.81	9.135	8.805	8.224	7.323	6.981	6.439	6.067	5.594	5.072	4.609	4.469	3.950	3.629	3.736	4.586	4.312	2.942	2.192	1.858	1.785	1.675	1.496	1.842	1.945	1.576	1.242	1.191	1.298	1.502	2.809	5.136	19.53	110.2	266.4	111.4	4.461	0.597	0.445	0.539	0.472	0.528
570.0	41.50	53.59	50.98	46.37	38.77	38.77	43.82	80.09	111.2	55.80	53.30	116.9	1110	1481	79.27	22.59	18.59	16.81	15.46	14.60	13.96	12.81	12.79	12.53	11.90	12.15	11.46	11.62	12.19	12.08	11.90	11.27	10.38	9.988	8.934	8.399	7.705	7.104	6.537	6.183	5.680	5.393	4.878	4.462	4.251	3.899	3.605	3.369	3.004	2.858	3.084	3.520	3.159	2.351	1.782	1.627	1.528	1.304	1.383	1.541	1.651	1.312	1.051	1.053	1.085	1.305	1.890	5.110	25.91	95.14	176.1	106.4	13.20	0.822	0.544	0.476	0.495
575.0	49.36	50.15	46.63	43.06	31.64	33.31	35.10	48.63	102.9	72.38	46.48	58.19	299.4	1596	655.2	21.30	15.73	13.68	12.29	11.71	11.21	10.53	10.18	10.03	9.662	10.11	9.372	9.162	9.731	9.590	9.516	8.855	8.209	8.254	7.408	6.676	6.200	5.562	5.333	4.846	4.605	4.326	3.896	3.614	3.554	3.088	3.028	2.812	2.408	2.083	2.118	2.442	3.172	2.553	1.642	1.471	1.250	1.242	1.236	1.160	1.324	1.430	1.209	1.047	0.979	0.900	1.202	1.912	6.414	21.89	46.81	136.6	147.2	17.10	0.558	0.481	0.476
580.0	47.33	46.37	46.25	42.62	29.74	31.42	33.94	38.07	82.38	92.30	45.46	45.93	94.76	826.9	1416	51.83	13.85	12.28	10.90	10.22	9.385	9.224	8.878	8.487	8.302	8.400	8.626	7.922	7.977	8.570	7.863	7.409	7.012	6.539	6.328	5.544	5.090	4.882	4.343	4.130	4.070	3.535	3.420	3.112	3.215	2.688	2.696	2.609	2.129	1.983	1.799	1.912	2.379	2.525	1.853	1.339	1.168	1.176	1.122	1.024	1.110	1.328	1.321	1.029	0.850	0.920	0.978	1.123	2.055	5.549	11.09	43.63	161.2	111.8	9.113	0.553	0.511
585.0	45.07	49.74	47.35	38.16	27.29	26.31	32.88	31.83	57.18	105.1	49.87	40.62	49.12	275.2	1635	251.6	12.24	10.30	9.774	8.976	8.037	7.700	7.853	7.032	6.805	6.861	7.223	6.676	6.902	7.512	7.255	6.282	6.126	5.603	5.136	4.801	4.841	4.179	4.015	3.623	3.381	3.116	3.137	2.676	2.650	2.361	2.341	1.991	1.946	1.861	1.518	1.659	1.777	2.519	2.098	1.489	1.103	1.047	0.949	1.067	0.916	1.026	1.284	1.223	0.986	0.753	1.023	0.817	1.071	1.838	3.005	10.44	59.88	155.1	35.48	3.807	0.525
590.0	40.74	46.30	47.22	36.37	27.92	25.76	26.87	29.18	39.31	86.95	71.57	40.44	37.17	84.78	819.7	939.5	40.06	9.143	8.538	7.693	6.690	6.516	6.689	5.766	5.888	5.694	5.942	5.528	5.504	6.011	5.788	5.409	5.057	4.756	4.346	4.167	3.704	3.442	3.311	3.091	2.817	2.666	2.580	2.427	2.183	2.081	2.015	1.820	1.712	1.536	1.408	1.341	1.394	1.737	1.860	1.659	1.191	0.900	0.935	0.932	0.831	0.806	0.890	1.301	1.120	0.803	0.891	0.788	0.775	0.972	1.162	2.850	14.04	52.35	94.23	73.70	12.52
595.0	40.98	42.15	44.47	36.42	25.19	22.24	23.48	26.05	30.68	56.53	92.33	44.06	33.87	37.50	216.5	1080	323.6	8.720	6.509	6.583	5.889	5.793	5.164	5.119	4.852	4.923	4.571	4.574	4.840	4.678	4.305	4.288	3.951	3.656	3.759	3.428	3.074	2.839	2.540	2.324	2.381	2.218	2.146	1.892	1.764	1.788	1.606	1.630	1.450	1.229	1.182	1.140	1.089	1.254	1.431	1.580	1.400	0.995	0.841	0.705	0.759	0.776	0.765	0.951	1.142	0.929	0.728	0.724	0.679	0.704	0.806	1.118	3.565	12.15	24.72	79.32	96.05
600.0	38.42	42.68	41.23	33.46	23.99	21.09	22.63	24.59	27.62	38.95	91.23	52.04	34.51	27.55	62.69	607.8	735.6	20.43	5.594	5.668	5.403	4.753	4.329	4.393	4.161	4.265	3.992	3.841	4.040	4.120	3.760	3.666	3.585	3.106	3.121	3.161	2.670	2.434	2.392	2.160	2.092	1.923	1.908	1.622	1.602	1.508	1.368	1.395	1.210	1.105	1.012	0.966	0.864	0.916	1.035	1.388	1.383	0.979	0.765	0.647	0.745	0.762	0.688	0.714	0.950	1.044	0.818	0.698	0.649	0.642	0.572	0.700	1.254	3.120	5.953	24.36	94.75
605.0	39.97	43.56	42.54	32.35	22.95	18.84	21.92	25.59	27.48	35.22	72.48	69.40	34.42	25.22	26.75	204.9	991.2	77.15	5.381	4.797	4.562	4.183	3.999	3.777	3.621	3.713	3.555	3.632	3.395	3.626	3.230	3.190	2.973	2.676	2.602	2.483	2.089	2.183	2.033	1.760	1.960	1.588	1.482	1.512	1.470	1.283	1.280	1.170	1.080	1.083	0.935	0.844	0.776	0.809	0.807	1.009	1.327	1.105	0.872	0.637	0.622	0.640	0.663	0.699	0.781	0.958	0.929	0.802	0.645	0.592	0.536	0.565	0.614	1.087	1.677	5.839	33.02
610.0	38.10	41.35	39.28	29.49	22.70	21.62	22.71	24.71	26.77	33.45	51.78	80.19	41.77	27.00	20.19	57.77	576.9	525.6	18.07	4.039	3.646	3.514	3.170	3.300	2.799	2.935	3.032	3.039	2.748	3.119	2.743	2.570	2.402	2.370	2.062	2.087	1.886	1.811	1.783	1.499	1.526	1.284	1.180	1.331	1.226	1.098	1.104	0.974	0.899	0.852	0.823	0.777	0.722	0.681	0.674	0.795	0.998	1.080	0.866	0.705	0.587	0.623	0.551	0.668	0.615	0.692	0.907	0.833	0.681	0.587	0.583	0.510	0.533	0.553	0.782	1.617	7.852
615.0	36.55	38.80	42.17	28.60	22.69	19.06	19.94	24.75	27.24	31.21	39.76	69.80	54.80	27.71	19.39	22.13	156.2	726.1	77.25	4.030	3.040	3.094	2.475	2.860	2.612	2.550	2.320	2.543	2.191	2.616	2.400	2.265	1.964	1.976	1.915	1.690	1.635	1.512	1.535	1.251	1.200	1.072	1.107	0.982	1.009	0.958	0.877	0.886	0.830	0.727	0.721	0.679	0.691	0.607	0.634	0.650	0.678	0.903	0.818	0.737	0.651	0.541	0.556	0.604	0.543	0.586	0.665	0.806	0.779	0.603	0.462	0.436	0.442	0.472	0.540	0.668	2.122
620.0	32.09	34.59	36.00	28.66	20.43	19.30	20.26	23.38	26.88	30.23	36.59	54.87	65.96	29.51	19.15	13.49	43.36	467.0	438.5	8.089	2.841	2.732	2.438	2.269	2.152	2.110	2.085	2.191	1.961	2.008	2.156	1.915	1.785	1.658	1.654	1.669	1.536	1.446	1.277	1.112	1.032	1.061	0.909	1.012	0.881	0.860	0.779	0.749	0.821	0.796	0.638	0.544	0.588	0.587	0.547	0.593	0.644	0.672	0.914	0.828	0.683	0.504	0.532	0.585	0.514	0.567	0.627	0.656	0.767	0.845	0.575	0.475	0.519	0.402	0.442	0.430	0.814
625.0	29.25	34.40	32.58	24.41	20.69	20.91	18.25	22.29	25.70	29.34	33.57	41.45	68.41	33.71	17.38	11.99	16.40	172.6	670.1	45.02	2.882	2.616	2.256	1.879	1.967	1.756	2.138	1.997	1.815	1.866	1.756	1.616	1.617	1.480	1.481	1.347	1.323	1.243	1.104	1.063	0.925	0.830	0.829	0.849	0.726	0.764	0.738	0.791	0.702	0.598	0.486	0.502	0.486	0.608	0.540	0.580	0.573	0.562	0.874	0.823	0.667	0.520	0.529	0.444	0.506	0.614	0.537	0.603	0.693	0.824	0.643	0.417	0.409	0.400	0.402	0.341	0.461
630.0	30.38	32.15	29.27	22.55	19.91	18.51	18.09	21.51	24.41	27.65	32.88	36.38	55.90	45.22	18.14	11.64	10.26	46.16	447.9	331.2	7.655	2.288	1.964	1.770	1.820	1.628	1.775	1.624	1.482	1.666	1.512	1.358	1.342	1.233	1.244	1.157	1.134	1.162	0.978	0.926	0.884	0.733	0.737	0.713	0.654	0.640	0.626	0.669	0.661	0.492	0.481	0.479	0.504	0.461	0.448	0.470	0.496	0.548	0.668	0.709	0.744	0.535	0.539	0.489	0.456	0.499	0.490	0.483	0.574	0.688	0.696	0.538	0.426	0.425	0.431	0.388	0.401
635.0	29.51	30.23	27.53	23.35	17.80	16.87	18.01	21.48	22.94	27.93	32.08	36.57	39.98	48.83	23.20	11.87	8.755	14.94	126.5	541.8	55.62	2.376	1.752	1.682	1.564	1.440	1.448	1.266	1.263	1.515	1.213	1.127	1.210	1.101	1.122	1.007	0.976	0.930	0.947	0.818	0.793	0.619	0.682	0.718	0.597	0.573	0.502	0.627	0.560	0.448	0.473	0.498	0.485	0.406	0.423	0.421	0.412	0.467	0.441	0.580	0.621	0.558	0.552	0.461	0.488	0.476	0.538	0.503	0.464	0.519	0.595	0.645	0.500	0.471	0.447	0.411	0.342
640.0	26.73	31.93	28.34	25.16	16.21	16.54	16.34	19.69	24.84	25.93	31.20	34.10	34.83	47.95	29.41	13.55	9.170	8.991	33.03	398.7	265.7	3.843	1.765	1.651	1.367	1.219	1.389	1.305	1.031	1.387	1.226	1.118	1.115	1.080	1.010	0.919	0.853	0.850	0.768	0.697	0.746	0.602	0.569	0.558	0.618	0.580	0.571	0.527	0.518	0.377	0.388	0.429	0.414	0.416	0.429	0.410	0.392	0.422	0.482	0.553	0.575	0.502	0.542	0.426	0.509	0.463	0.458	0.466	0.489	0.460	0.508	0.643	0.529	0.480	0.416	0.403	0.382
645.0	28.80	31.44	30.15	26.46	17.50	17.98	17.99	20.19	22.74	25.56	30.63	31.96	33.98	38.67	35.54	14.19	9.751	8.108	11.17	167.3	453.1	24.18	1.864	1.455	1.198	1.153	1.300	1.292	1.208	1.140	1.038	1.097	1.025	1.029	0.935	0.881	0.782	0.878	0.715	0.685	0.634	0.601	0.618	0.498	0.535	0.561	0.555	0.490	0.509	0.375	0.335	0.387	0.409	0.390	0.423	0.432	0.411	0.358	0.486	0.463	0.540	0.540	0.518	0.556	0.426	0.389	0.383	0.494	0.531	0.430	0.475	0.537	0.679	0.572	0.407	0.427	0.400
650.0	31.04	34.68	31.82	23.60	19.57	16.50	17.50	18.88	22.74	24.54	28.55	31.52	31.57	32.51	39.28	17.01	10.34	7.982	6.934	47.87	441.6	66.12	1.926	1.361	1.170	1.160	1.137	1.105	1.073	1.055	0.986	0.977	1.022	0.942	0.907	0.864	0.786	0.839	0.673	0.650	0.646	0.501	0.507	0.453	0.517	0.485	0.532	0.453	0.464	0.361	0.354	0.316	0.365	0.341	0.399	0.362	0.369	0.338	0.495	0.379	0.583	0.435	0.583	0.493	0.414	0.422	0.427	0.432	0.485	0.501	0.439	0.405	0.557	0.607	0.516	0.431	0.403
