Sample:	'1
File name:	L2025080901»ª·áÂ·ÇÅ.FD3
Run date:	'13:15:41, 08/10/2025
Operator:	Administrator
Comment:	'

Instrument
Model:	F-2700 FL Spectrophotometer
Serial number:	3064-004
ROM Version:	4J14000 07

Instrument parameters
Measurement type:	3-D scan
Data mode:	Fluorescence
EX  Start WL:	220.0 nm
EX  End WL:	600.0 nm
EX Sampling interval:	5.0 nm
EM  Start WL:	230.0 nm
EM  End WL:	650.0 nm
EM Sampling interval:	5.0 nm
Scan speed:	12000 nm/min
EX Slit:	5.0 nm
EM Slit:	5.0 nm
PMT Voltage:	700 V
Response:	Auto 
Corrected spectra:	Off
Contour interval:	50.000

Peak integration
Integration method:	Rectangular
Sensitivity:	1
Threshold:	1.000

Peaks
No.	ApexEX/EM(nm)	Height(Data)
1	230.0/305.0	794.8
2	230.0/565.0	63.73
3	230.0/575.0	60.34
4	230.0/590.0	67.37
5	230.0/635.0	44.64
6	235.0/355.0	 1477
7	235.0/605.0	55.94
8	240.0/520.0	280.2
9	245.0/265.0	327.5
10	245.0/530.0	250.0
11	250.0/540.0	222.3
12	255.0/280.0	737.8
13	255.0/555.0	209.4
14	260.0/285.0	 1020
15	260.0/570.0	197.7
16	265.0/290.0	 1276
17	265.0/580.0	209.7
18	270.0/295.0	 1914
19	270.0/595.0	196.6
20	275.0/305.0	 2356
21	275.0/605.0	190.1
22	280.0/310.0	 2260
23	280.0/340.0	 2106
24	280.0/365.0	 2072
25	280.0/615.0	156.7
26	285.0/315.0	 2076
27	285.0/355.0	 2074
28	285.0/630.0	119.9
29	290.0/640.0	97.46
30	320.0/360.0	 1154
31	430.0/505.0	95.68
32	445.0/525.0	56.40
33	460.0/345.0	6.243
34	505.0/275.0	3.126
35	510.0/280.0	4.051
36	520.0/285.0	5.143
37	520.0/400.0	7.743
38	530.0/290.0	5.624
39	545.0/300.0	9.903
40	550.0/305.0	9.932
41	555.0/365.0	9.136
42	560.0/310.0	10.06
43	565.0/340.0	9.327
44	570.0/315.0	9.690
45	575.0/320.0	9.268
46	575.0/355.0	9.308
47	580.0/325.0	9.754
48	580.0/360.0	9.399

Data points
	220.0	225.0	230.0	235.0	240.0	245.0	250.0	255.0	260.0	265.0	270.0	275.0	280.0	285.0	290.0	295.0	300.0	305.0	310.0	315.0	320.0	325.0	330.0	335.0	340.0	345.0	350.0	355.0	360.0	365.0	370.0	375.0	380.0	385.0	390.0	395.0	400.0	405.0	410.0	415.0	420.0	425.0	430.0	435.0	440.0	445.0	450.0	455.0	460.0	465.0	470.0	475.0	480.0	485.0	490.0	495.0	500.0	505.0	510.0	515.0	520.0	525.0	530.0	535.0	540.0	545.0	550.0	555.0	560.0	565.0	570.0	575.0	580.0	585.0	590.0	595.0	600.0
230.0	8.161	509.7	 3369	 2095	116.6	5.142	4.668	3.420	2.720	4.989	3.987	4.385	4.787	4.685	4.194	3.794	3.197	3.757	3.241	3.271	3.386	2.788	2.521	2.478	2.328	2.482	2.191	1.996	2.041	1.814	1.814	1.665	1.542	1.485	1.284	1.341	1.188	1.047	0.968	0.840	0.912	0.809	0.903	0.741	0.562	0.632	1.650	7.177	12.64	10.53	4.367	1.122	0.400	0.360	0.310	0.238	0.300	0.256	0.233	0.199	0.154	0.160	0.074	0.140	0.083	0.100	0.002	0.096	0.013	0.078	0.028	-0.068	-0.099	-0.066	-0.092	-0.060	-0.136
235.0	34.00	129.9	 1374	 3856	 2527	187.2	6.586	6.936	2.792	5.750	5.787	5.390	4.749	4.242	4.682	3.931	3.849	4.075	3.572	3.275	3.177	3.017	2.354	2.725	3.134	2.631	2.058	2.267	2.188	1.555	1.711	1.460	1.820	1.468	1.007	1.382	1.212	1.166	1.074	0.757	0.905	0.711	0.901	0.829	0.763	0.730	0.918	2.231	4.529	8.984	12.71	13.34	6.656	1.578	0.319	0.307	0.241	0.226	0.114	0.257	0.112	0.120	0.110	0.069	0.134	-0.010	0.063	0.096	0.092	0.003	-0.018	-0.063	-0.087	0.010	-0.076	0.110	-0.120
240.0	43.33	71.67	337.9	 2120	 5263	974.5	103.6	5.957	7.587	5.544	6.928	7.448	3.898	4.738	5.207	4.464	3.531	4.100	2.981	3.115	3.826	2.452	2.945	2.934	2.433	2.365	2.235	2.141	1.840	1.908	1.556	1.483	1.522	1.491	1.172	0.976	1.217	0.942	1.167	0.749	1.074	0.673	0.658	0.859	0.870	0.993	0.792	0.913	1.427	2.710	5.939	16.36	19.67	14.40	4.858	0.724	0.253	0.302	0.274	0.312	0.220	0.096	0.135	0.094	0.105	0.049	-0.006	0.112	-0.034	-0.004	0.016	0.070	-0.051	-0.020	-0.127	0.029	0.026
245.0	24.19	84.74	128.5	549.0	 3417	 6044	811.5	52.17	9.266	7.709	7.207	8.594	6.524	6.633	4.819	4.383	3.477	4.040	3.871	3.623	3.872	2.819	3.190	2.977	2.246	2.679	2.393	1.901	2.016	2.290	2.026	1.523	1.624	1.304	1.515	1.280	1.081	1.010	1.120	0.998	0.912	0.857	0.731	0.586	0.670	0.850	1.062	0.981	0.927	1.098	1.787	5.056	12.56	22.12	22.80	13.24	3.425	0.440	0.420	0.262	0.166	0.096	0.191	0.228	0.144	0.019	0.115	-0.024	-0.036	0.010	0.053	0.054	0.084	-0.083	-0.010	0.044	-0.079
250.0	7.305	41.45	132.2	212.8	878.1	 3519	 6200	 3082	258.0	12.53	11.14	10.07	7.496	7.370	6.079	4.928	4.246	4.626	4.127	4.143	3.612	3.177	3.244	2.559	2.871	2.783	2.475	2.284	2.277	1.940	1.991	1.736	1.860	1.688	1.586	1.288	1.102	1.226	1.264	0.982	0.977	0.986	0.814	0.760	0.886	0.665	0.886	1.064	1.278	0.943	1.202	1.538	3.360	6.947	13.21	21.33	27.63	24.94	14.55	4.461	0.501	0.147	0.134	0.212	0.151	0.187	0.084	0.105	0.123	0.115	0.031	-0.009	-0.022	-0.061	-0.032	-0.063	-0.083
255.0	6.011	13.79	59.09	227.6	314.9	817.3	 2584	9999.9	 4763	351.5	16.51	14.53	11.15	7.259	8.141	5.529	4.988	4.749	4.296	3.941	3.855	3.783	3.667	2.905	2.980	2.990	2.317	1.936	2.201	1.967	1.871	1.984	1.844	1.636	1.344	1.396	0.965	1.037	1.104	0.906	0.905	1.048	0.996	0.648	0.759	0.687	0.772	0.693	0.771	1.058	1.459	1.344	1.596	1.982	3.355	5.383	10.09	23.68	43.42	44.78	25.27	5.736	0.488	0.116	0.159	0.224	0.141	0.239	0.102	0.193	0.084	0.063	0.005	0.084	0.065	-0.091	-0.145
260.0	7.188	13.02	19.17	135.0	328.2	269.9	638.7	 5198	9999.9	 4144	231.8	17.36	13.05	10.72	7.726	6.963	6.081	5.467	4.807	4.256	4.095	3.546	4.411	2.728	3.112	2.898	2.805	2.507	2.728	2.324	2.404	1.722	2.201	1.647	1.311	1.130	1.321	0.973	1.033	0.812	0.877	0.957	0.940	0.731	0.766	0.887	0.808	0.785	0.803	0.621	1.006	1.514	1.877	1.313	1.259	1.634	2.672	6.262	17.62	41.58	61.82	43.32	20.05	2.211	0.451	0.179	0.264	0.236	0.137	0.128	0.100	0.087	0.009	0.018	0.050	0.005	-0.053
265.0	11.43	15.79	14.77	47.87	242.6	327.5	195.9	 1343	 6810	9999.9	 3403	136.8	19.83	13.08	11.55	7.306	7.231	6.197	5.596	4.209	4.659	4.280	3.712	3.232	3.267	3.221	3.104	2.645	2.483	3.082	2.131	1.978	2.015	1.832	1.384	1.409	1.411	1.171	0.939	1.107	0.905	0.942	1.162	0.960	0.840	0.867	1.021	0.792	0.710	0.724	0.691	0.956	1.610	1.947	1.498	0.880	0.969	1.790	4.456	12.03	30.94	62.28	81.05	39.69	11.34	0.890	0.273	0.227	0.097	0.163	0.067	0.166	0.117	0.089	0.083	-0.106	0.064
270.0	59.66	59.61	31.60	36.47	92.98	294.1	384.6	430.0	 1779	 6639	9999.9	9999.9	210.0	26.23	16.14	10.35	8.815	6.176	5.771	5.299	5.083	4.509	4.324	3.605	3.636	3.677	3.216	3.090	2.999	2.722	2.489	2.156	2.348	1.987	1.327	1.514	1.579	1.601	1.240	1.407	1.129	1.205	1.306	1.299	1.329	1.308	1.096	0.876	0.821	0.821	0.743	0.942	0.837	1.192	1.676	2.021	2.190	1.611	1.584	3.323	7.580	17.88	36.87	57.88	60.44	70.36	25.91	11.08	0.865	0.222	0.136	0.296	0.007	0.076	0.087	-0.002	0.071
275.0	165.2	136.4	104.5	81.14	68.53	121.2	402.4	619.6	608.7	 1705	 4276	9999.9	9999.9	266.0	27.31	16.77	12.53	8.917	7.771	7.237	5.249	5.648	4.880	3.882	3.771	4.223	3.692	2.918	2.975	3.217	2.821	2.519	2.385	2.112	1.803	1.812	1.905	1.577	1.443	1.902	1.392	1.537	1.383	1.643	1.583	1.552	1.314	1.054	1.166	0.833	0.891	0.773	0.853	0.877	1.054	1.417	2.196	3.126	2.612	1.666	2.626	5.027	9.411	14.27	20.04	52.41	107.6	127.2	39.20	9.883	0.400	0.335	0.299	0.142	0.100	0.025	0.047
280.0	254.6	256.3	207.6	138.0	84.71	96.52	229.7	737.8	643.9	708.4	 1338	 5922	9999.9	9999.9	181.4	22.79	16.39	11.92	9.344	7.785	6.214	5.896	4.806	4.670	4.786	4.562	3.526	3.308	3.022	3.625	2.609	2.406	2.723	2.125	2.171	1.880	2.298	2.018	1.874	1.990	2.104	2.188	1.743	2.433	2.071	2.175	1.779	1.465	1.379	1.397	0.990	0.919	0.812	0.841	0.858	1.057	1.377	2.314	4.051	3.340	2.512	2.476	3.632	4.606	6.183	14.12	39.85	97.93	150.7	56.01	29.38	3.005	0.503	0.159	0.156	0.246	0.077
285.0	335.4	354.8	344.9	227.9	147.5	117.9	184.1	507.0	 1020	669.7	775.2	 1823	 8936	9999.9	 2169	110.6	22.09	16.75	10.74	7.847	7.490	7.279	5.812	5.003	4.890	4.619	3.756	3.635	3.297	3.276	2.620	2.326	2.653	2.295	2.698	2.232	2.765	2.175	2.425	2.154	2.114	2.360	2.075	2.490	2.863	2.820	2.455	1.974	1.862	1.740	1.552	1.210	1.097	1.021	0.970	0.946	1.074	1.560	2.700	3.954	5.143	3.818	2.964	2.892	3.841	5.028	10.71	26.83	66.89	125.8	173.6	49.06	16.45	0.930	0.269	0.377	0.180
290.0	427.4	518.1	514.5	392.3	228.3	178.9	218.5	387.5	817.2	 1276	 1118	 1113	 2701	 8272	9999.9	9999.9	607.3	27.17	17.14	11.77	10.24	8.648	7.338	5.971	5.725	4.947	4.294	3.961	3.535	3.449	3.015	3.026	2.838	2.524	2.459	2.601	2.990	2.622	2.981	2.584	2.663	2.681	2.811	2.814	3.460	3.299	2.986	3.044	2.507	2.169	1.783	1.816	1.451	1.234	1.141	1.054	1.425	1.685	2.164	2.618	3.860	5.278	5.624	5.412	4.345	4.397	5.479	8.843	17.48	34.74	73.13	104.4	141.8	116.1	30.55	13.64	1.153
295.0	491.3	626.5	669.6	537.0	351.9	275.4	295.9	437.8	693.2	 1163	 1914	 1427	 1470	 2414	 3947	9999.9	9999.9	169.3	29.33	17.93	13.63	11.08	9.067	6.421	7.389	5.897	4.783	3.866	3.978	3.606	3.743	3.328	2.735	2.809	3.166	2.879	2.994	3.055	2.915	3.045	2.879	2.702	2.949	3.546	3.232	3.764	2.937	3.860	3.386	2.640	2.697	2.190	1.946	1.654	1.378	1.294	1.953	1.751	2.519	2.861	3.157	3.940	4.567	7.192	8.531	6.734	5.404	5.828	7.569	10.62	18.83	25.19	39.00	81.03	175.0	206.6	47.84
300.0	476.5	673.2	749.7	625.9	417.3	342.4	367.7	513.1	725.0	 1105	 1884	 2104	 1446	 1268	 1308	 5486	9999.9	9999.9	130.1	25.57	19.12	13.87	9.587	8.391	7.343	6.799	5.591	4.954	4.605	4.400	4.116	3.503	3.218	2.751	2.611	2.862	3.502	3.111	3.199	2.995	2.575	2.612	3.069	3.349	3.200	3.881	3.557	3.605	3.506	3.151	2.804	2.736	2.311	1.787	1.817	1.505	2.017	2.062	2.904	3.155	3.188	4.312	4.796	5.491	8.574	9.903	7.331	6.504	6.274	6.518	7.242	8.178	10.52	20.63	59.40	158.8	233.4
305.0	489.6	673.2	794.8	667.1	491.7	391.9	431.7	572.6	790.3	 1132	 1670	 2356	 1898	 1164	814.1	 1570	 8753	9999.9	 7485	91.01	24.45	16.71	12.97	10.36	8.515	7.322	6.078	5.105	4.203	4.445	4.527	3.792	3.530	2.918	2.675	3.044	3.529	3.295	3.344	3.086	3.011	3.167	3.247	3.363	3.479	3.895	3.633	3.847	3.697	3.141	2.675	2.667	2.254	2.346	1.811	1.867	2.403	2.559	2.792	2.948	3.320	4.375	4.825	5.370	6.776	8.375	9.932	9.893	7.918	6.516	5.317	5.026	4.631	6.184	14.95	40.68	101.6
310.0	455.6	684.6	763.3	689.2	535.1	434.7	497.8	629.2	848.6	 1162	 1574	 1960	 2260	 1659	899.5	752.5	 2305	 8542	9999.9	9999.9	480.1	27.76	17.32	13.50	10.46	8.327	7.786	6.455	5.263	4.996	4.514	4.266	3.527	3.839	3.247	3.442	3.491	3.551	3.364	3.097	3.088	3.148	3.288	3.060	3.586	3.457	3.874	3.991	3.828	3.208	3.048	2.793	2.456	2.202	2.258	2.380	2.364	2.812	2.887	3.502	3.545	4.571	4.838	5.607	6.197	7.357	8.411	9.500	10.06	8.917	7.316	5.223	4.177	3.634	5.221	10.70	24.39
315.0	482.1	666.3	825.9	725.9	567.7	482.6	548.8	680.6	896.9	 1177	 1540	 1826	 1957	 2076	 1357	718.3	871.5	 2139	 3994	9999.9	9999.9	125.4	28.08	18.61	14.66	11.50	9.122	7.676	5.945	5.898	4.816	4.823	4.162	3.325	3.568	3.773	3.443	3.277	3.236	3.263	3.042	3.223	3.177	3.252	3.533	3.646	4.129	3.721	3.828	3.192	3.058	2.876	2.520	2.603	2.492	2.719	2.689	2.848	3.553	3.853	3.804	4.374	5.353	5.943	6.279	7.001	7.540	8.223	8.258	9.448	9.690	8.255	4.847	3.960	3.638	4.707	7.260
320.0	514.9	808.9	961.6	787.2	614.9	513.7	583.1	724.2	935.9	 1220	 1566	 1883	 1947	 1924	 1890	975.8	660.8	789.8	 1127	 6041	9999.9	 7696	99.12	24.90	18.28	13.36	11.28	8.240	6.865	6.629	5.293	5.170	4.046	3.881	3.853	3.410	3.317	3.440	3.223	3.424	3.101	3.394	3.409	3.599	4.004	4.239	4.430	4.636	4.336	3.999	3.212	2.847	2.626	2.652	2.408	2.817	2.653	2.898	3.710	4.102	4.369	4.324	5.841	5.890	6.896	6.956	7.892	7.777	8.593	8.627	8.234	9.268	8.573	5.607	4.670	3.873	4.187
325.0	517.3	919.3	 1185	991.0	684.8	551.8	630.9	765.4	 1004	 1250	 1612	 1928	 1997	 1892	 1926	 1439	748.8	568.1	526.8	 1594	9999.9	9999.9	 6197	73.36	22.84	15.73	13.02	9.266	7.734	6.965	5.868	5.407	4.549	4.239	3.695	3.424	3.609	3.726	3.554	3.701	3.339	3.408	3.740	3.855	3.966	4.368	4.697	5.813	5.090	4.486	3.345	3.513	2.892	2.727	2.620	2.826	3.203	2.985	3.822	3.984	4.447	4.501	5.743	6.387	7.555	6.963	7.713	8.436	8.660	8.226	8.414	8.464	9.754	8.160	6.292	5.088	4.068
330.0	557.6	976.8	 1300	 1183	815.6	657.6	666.3	782.1	 1007	 1280	 1637	 1899	 2033	 1933	 1736	 1576	 1181	683.7	490.0	622.6	 2542	 9557	9999.9	9999.9	390.6	26.33	16.71	13.51	9.896	8.143	7.197	5.898	5.140	4.973	4.070	3.719	3.672	3.692	3.888	3.568	3.205	3.409	3.488	3.751	4.127	4.681	5.389	5.885	5.871	4.811	4.267	4.250	3.552	3.712	3.058	3.340	3.187	3.219	3.944	4.291	4.412	4.778	5.545	6.361	7.238	7.413	8.100	8.438	8.773	8.152	8.210	7.857	8.186	7.682	7.514	7.243	6.009
335.0	584.3	 1035	 1397	 1301	983.1	808.9	762.1	873.6	 1055	 1310	 1638	 1926	 2096	 2016	 1752	 1452	 1367	 1074	616.7	503.0	840.7	 2334	 4584	9999.9	9999.9	102.1	26.94	19.50	13.73	10.94	8.078	6.686	5.767	5.067	4.472	3.601	3.622	3.942	3.672	3.761	3.122	3.566	3.633	3.475	4.098	5.339	5.370	5.928	5.818	5.488	4.733	4.475	4.068	4.003	3.339	3.332	3.468	3.705	4.354	4.145	4.485	5.259	5.108	6.747	6.956	7.335	8.362	8.997	9.018	8.609	8.793	8.608	8.057	7.139	7.119	7.194	7.818
340.0	585.8	 1032	 1423	 1410	 1102	932.1	848.4	949.1	 1118	 1344	 1664	 1945	 2106	 2039	 1814	 1462	 1257	 1298	851.5	551.9	529.2	774.8	 1239	 7612	9999.9	 6201	83.68	27.44	17.80	14.08	10.76	8.533	6.592	6.098	4.663	4.218	3.847	3.803	3.545	3.989	3.230	3.662	3.827	4.040	4.437	5.176	5.492	5.949	5.993	5.597	5.160	4.583	4.637	4.016	4.161	3.556	4.120	4.342	4.266	4.628	5.023	5.693	6.037	6.609	6.882	6.881	7.916	8.762	8.957	9.327	9.073	8.825	8.560	7.599	6.769	6.782	7.046
345.0	560.6	 1025	 1437	 1476	 1264	 1050	954.7	 1015	 1180	 1395	 1660	 1933	 2067	 2056	 1858	 1519	 1239	 1204	 1130	691.7	526.8	493.6	515.4	 1983	9999.9	9999.9	 5261	65.85	25.38	17.12	12.48	10.45	7.664	6.261	5.409	4.591	4.451	3.949	3.845	3.525	3.584	3.819	3.468	3.907	4.444	5.377	5.383	6.225	6.243	5.522	5.219	5.231	5.150	4.619	4.203	4.523	4.366	4.581	4.738	4.818	5.653	6.194	6.412	6.617	6.653	7.912	7.946	8.707	8.976	9.229	8.933	8.674	8.565	8.047	7.001	7.115	6.609
350.0	531.5	944.0	 1359	 1475	 1370	 1197	 1135	 1158	 1289	 1453	 1739	 1925	 2059	 2067	 1896	 1588	 1312	 1142	 1141	 1027	689.1	532.8	445.9	694.4	 2612	9999.9	9999.9	9999.9	341.2	26.79	17.36	12.93	9.259	7.045	6.274	5.424	5.172	4.641	4.363	3.918	3.672	3.737	3.741	3.881	4.197	5.235	5.139	6.219	5.724	5.456	5.284	5.550	5.340	5.342	5.015	4.868	5.209	5.223	5.417	5.408	5.837	6.040	6.405	6.873	7.054	7.835	8.041	8.762	9.058	8.815	8.639	8.976	9.214	8.348	7.541	7.251	7.644
355.0	489.9	892.1	 1280	 1477	 1439	 1376	 1303	 1352	 1461	 1621	 1807	 1954	 2073	 2074	 1902	 1631	 1408	 1214	 1111	 1107	 1016	680.2	533.5	500.4	841.9	 2424	 5661	9999.9	9999.9	92.27	27.08	18.75	11.57	9.306	7.138	6.581	5.659	4.665	4.633	3.833	3.986	3.655	3.783	3.872	4.334	4.907	4.869	5.681	5.658	5.400	5.149	6.019	5.261	5.637	5.687	5.563	5.743	5.837	6.087	6.335	6.492	6.870	7.139	6.916	7.476	7.663	8.314	8.766	9.053	8.955	8.531	9.308	9.167	8.366	7.896	8.102	8.263
360.0	475.2	869.5	 1223	 1450	 1509	 1483	 1420	 1456	 1581	 1723	 1868	 1992	 2053	 2049	 1922	 1676	 1459	 1291	 1146	 1079	 1154	912.0	626.3	516.8	503.3	764.9	 1471	 9466	9999.9	 5631	73.06	23.67	14.97	11.88	7.914	7.219	5.771	4.859	4.991	4.094	4.107	3.689	3.618	3.457	3.737	4.933	4.564	5.766	5.867	5.370	5.330	6.134	5.906	6.042	6.097	6.604	6.506	6.733	6.217	5.889	7.054	6.897	7.425	7.530	7.362	7.882	8.300	8.640	9.329	9.184	9.072	8.936	9.399	8.734	8.867	8.405	8.169
365.0	441.3	802.4	 1185	 1409	 1515	 1539	 1511	 1576	 1623	 1786	 1900	 2002	 2072	 2053	 1921	 1696	 1499	 1338	 1200	 1101	 1113	 1112	786.0	587.1	484.8	440.8	526.0	 2437	9999.9	9999.9	 4631	56.15	21.41	14.74	10.10	7.600	6.210	5.578	5.113	4.398	3.980	3.871	4.318	4.095	3.964	4.655	4.505	5.753	5.797	5.231	5.429	6.131	6.142	6.026	6.431	6.241	6.495	6.391	6.438	6.254	6.716	7.023	7.529	7.655	7.880	8.066	8.189	9.136	8.394	8.906	8.960	8.900	8.661	8.507	8.961	8.820	8.134
370.0	444.8	743.1	 1106	 1368	 1540	 1591	 1621	 1655	 1738	 1854	 1945	 2013	 2054	 2020	 1912	 1716	 1548	 1406	 1280	 1179	 1115	 1123	 1045	772.4	581.0	459.7	383.1	735.5	 2709	9999.9	9999.9	9999.9	276.6	23.29	14.27	10.02	8.248	6.077	5.568	4.865	4.682	4.451	4.164	4.091	4.353	4.749	4.844	5.400	5.652	5.132	5.334	6.266	6.012	6.638	6.385	6.584	6.820	6.604	6.726	7.081	6.973	7.219	7.482	7.717	8.156	7.832	8.573	8.714	8.767	8.706	8.939	9.131	8.804	8.478	9.120	8.558	8.365
375.0	419.0	679.3	 1051	 1346	 1564	 1664	 1661	 1697	 1779	 1892	 1974	 2013	 2041	 1977	 1892	 1721	 1577	 1468	 1369	 1274	 1190	 1136	 1111	 1052	764.3	585.2	450.8	432.4	792.6	 2380	 7111	9999.9	9999.9	72.45	21.87	14.78	10.62	7.766	6.660	5.443	4.961	4.480	4.394	4.512	4.647	5.073	4.528	5.109	5.323	5.474	5.399	6.048	6.450	6.727	6.496	6.601	6.881	7.027	7.309	6.904	7.685	7.224	7.809	8.275	8.316	7.660	8.365	8.217	9.326	8.793	9.176	8.934	8.962	8.669	8.837	8.593	8.521
380.0	421.1	644.0	998.2	 1299	 1566	 1694	 1697	 1700	 1777	 1888	 1972	 2008	 1994	 1953	 1854	 1716	 1590	 1491	 1405	 1333	 1255	 1185	 1107	 1140	969.8	696.8	535.4	424.1	412.2	697.0	 1798	9999.9	9999.9	 4510	56.26	19.51	14.24	9.699	7.418	5.463	4.861	4.697	4.415	4.368	4.637	4.895	4.694	4.982	5.445	5.047	5.429	6.325	6.666	6.821	6.533	6.483	7.031	7.061	7.525	6.718	7.324	7.330	7.298	7.820	8.161	8.135	8.810	8.526	8.932	8.833	8.986	8.080	8.291	8.570	9.167	8.875	9.019
385.0	407.2	620.3	937.0	 1310	 1523	 1683	 1682	 1704	 1754	 1880	 1869	 1968	 1974	 1904	 1816	 1695	 1571	 1493	 1433	 1359	 1304	 1224	 1131	 1102	 1103	827.1	610.4	471.7	374.4	359.5	544.5	 2643	9999.9	9999.9	 3556	41.09	17.27	12.07	8.698	6.875	5.753	5.477	4.519	4.056	4.376	4.869	4.726	5.578	5.514	4.598	5.209	6.244	6.720	6.842	6.940	6.765	7.117	6.532	7.149	6.801	7.387	7.715	7.404	8.452	8.018	7.892	8.292	8.317	9.005	8.541	8.945	8.494	8.479	8.676	8.385	8.981	9.025
390.0	412.1	601.9	918.3	 1259	 1440	 1614	 1670	 1682	 1703	 1804	 1841	 1893	 1896	 1841	 1756	 1652	 1554	 1497	 1440	 1389	 1336	 1266	 1176	 1105	 1079	 1005	759.3	558.0	430.6	343.8	312.7	727.7	 2812	9999.9	9999.9	9999.9	211.1	18.54	12.36	8.843	7.185	5.802	4.944	4.769	4.683	4.747	4.639	5.111	5.362	4.833	4.843	6.144	6.557	6.832	6.682	6.834	7.093	6.811	6.748	7.334	6.773	6.996	7.690	7.806	7.467	7.633	7.694	8.374	8.606	8.422	7.994	8.457	8.278	8.745	8.480	8.719	8.905
395.0	407.5	589.3	879.3	 1190	 1406	 1528	 1608	 1661	 1659	 1729	 1775	 1811	 1833	 1755	 1685	 1595	 1520	 1473	 1431	 1393	 1341	 1281	 1212	 1130	 1059	 1019	952.3	685.2	520.0	400.1	309.6	334.4	749.6	 2346	 7088	9999.9	9999.9	59.82	18.56	11.95	9.631	7.246	5.346	5.115	4.925	5.083	4.961	5.339	4.851	4.851	4.731	6.460	6.510	6.703	6.320	6.984	7.328	6.574	7.131	6.971	6.978	7.289	7.147	7.404	7.521	7.102	7.643	8.309	8.249	8.085	8.118	8.659	8.183	8.654	8.425	7.857	8.678
400.0	387.3	560.3	854.6	 1114	 1364	 1508	 1585	 1617	 1648	 1713	 1744	 1751	 1761	 1717	 1643	 1546	 1484	 1447	 1412	 1385	 1346	 1279	 1226	 1136	 1071	989.7	982.7	817.8	586.9	450.4	343.8	279.9	314.5	627.7	 1767	9999.9	9999.9	 3723	45.99	15.81	11.69	9.024	6.390	4.972	5.460	5.249	4.774	5.164	5.198	5.052	5.013	5.933	5.864	6.514	5.854	6.406	6.812	6.444	6.719	7.035	7.743	6.694	7.148	7.416	6.319	6.825	7.494	7.841	7.537	7.729	7.995	7.929	8.096	8.014	7.919	8.159	8.637
405.0	368.1	567.4	832.8	 1088	 1328	 1475	 1531	 1547	 1605	 1631	 1708	 1704	 1689	 1652	 1588	 1505	 1442	 1427	 1378	 1364	 1316	 1283	 1222	 1152	 1075	987.7	937.5	896.1	692.1	505.5	390.7	296.6	241.1	262.3	486.6	 2650	9999.9	9999.9	 2830	34.43	13.63	10.03	7.958	5.779	5.596	5.209	4.892	5.027	5.060	4.906	4.825	5.791	6.083	6.464	6.018	6.159	6.647	6.486	6.968	6.715	7.487	6.311	6.583	7.022	7.055	6.470	7.345	7.579	7.942	8.494	8.171	7.668	7.566	7.758	7.482	7.483	8.712
410.0	340.8	508.9	771.6	 1021	 1225	 1393	 1483	 1530	 1563	 1589	 1603	 1620	 1611	 1571	 1507	 1417	 1369	 1358	 1329	 1310	 1281	 1247	 1198	 1142	 1073	996.8	916.1	862.6	801.2	612.3	447.0	345.2	263.7	212.9	220.1	675.4	 2766	9999.9	9999.9	 8596	40.36	14.13	10.09	7.538	6.634	5.555	5.243	5.170	5.031	4.745	4.680	5.653	5.829	5.795	5.816	5.922	6.002	6.763	6.399	6.662	7.219	6.056	6.482	6.639	6.752	6.516	6.762	7.098	6.949	7.550	7.471	7.593	7.734	7.158	7.596	7.304	7.862
415.0	312.4	485.4	754.5	983.4	 1165	 1317	 1411	 1459	 1473	 1541	 1556	 1549	 1524	 1472	 1408	 1350	 1302	 1289	 1274	 1241	 1223	 1193	 1160	 1109	 1059	992.8	903.0	828.9	785.5	732.6	535.9	391.5	298.7	226.3	185.6	247.6	689.8	 2306	 6391	9999.9	9999.9	51.86	14.25	9.839	8.133	6.932	5.501	5.481	4.592	4.386	4.614	5.316	5.588	5.522	5.670	5.952	6.150	6.262	6.274	6.547	6.493	6.757	6.434	6.451	6.533	5.973	6.224	6.799	6.345	6.653	7.010	6.946	7.410	7.402	6.886	7.897	7.469
420.0	330.0	481.6	687.2	909.4	 1095	 1267	 1363	 1434	 1433	 1467	 1500	 1482	 1456	 1396	 1348	 1286	 1249	 1219	 1213	 1192	 1175	 1158	 1115	 1081	 1038	976.8	907.6	825.1	750.6	746.0	626.9	439.3	329.4	246.5	190.7	164.7	234.9	575.1	 1568	 9198	9999.9	 3298	39.74	12.41	9.285	7.943	6.045	5.318	4.865	5.075	4.447	5.179	5.384	5.697	5.479	5.864	6.158	6.078	6.090	6.371	6.041	6.632	6.047	6.306	5.778	5.760	6.347	6.679	6.297	6.821	6.257	6.274	6.743	6.884	6.518	7.162	6.883
425.0	325.0	455.0	660.4	892.7	 1040	 1223	 1299	 1388	 1399	 1441	 1448	 1438	 1376	 1334	 1288	 1229	 1189	 1168	 1169	 1152	 1124	 1106	 1077	 1056	 1009	947.2	899.3	833.2	743.9	698.8	673.7	501.9	354.3	268.9	206.6	159.0	146.0	195.4	404.6	 2407	9999.9	9999.9	 2487	26.80	11.69	8.653	6.503	6.056	5.332	4.728	4.557	5.327	5.234	5.076	5.379	5.417	5.815	6.804	6.184	6.209	6.020	6.129	6.021	6.153	5.949	6.457	5.865	5.613	5.980	6.728	6.397	6.098	6.661	6.185	6.627	6.910	7.063
430.0	508.7	431.3	634.8	822.9	999.3	 1111	 1230	 1322	 1370	 1371	 1379	 1379	 1316	 1270	 1208	 1151	 1114	 1095	 1091	 1079	 1072	 1050	 1021	 1004	968.6	927.0	871.9	820.4	738.9	677.5	627.1	569.0	420.5	302.9	228.4	177.8	139.5	125.7	153.0	587.2	 2649	 9798	9999.9	 6733	36.84	12.50	8.283	7.271	5.696	5.067	4.686	4.917	5.111	5.026	5.144	5.242	5.589	6.004	5.911	5.918	6.042	5.832	5.886	5.950	5.920	6.166	5.902	5.707	5.664	5.923	5.926	5.785	5.862	6.226	5.935	6.571	6.587
435.0	 1009	464.2	590.6	766.9	939.6	 1054	 1193	 1266	 1326	 1362	 1329	 1308	 1247	 1213	 1129	 1069	 1043	 1019	 1018	992.6	999.5	984.8	965.9	949.2	925.4	884.1	846.7	799.0	731.7	674.2	596.6	544.6	488.2	355.8	255.3	200.9	157.8	124.0	106.6	187.7	634.1	 2237	 5329	9999.9	 3388	47.45	11.90	8.453	6.953	5.634	5.144	5.024	4.918	5.290	4.977	5.466	6.185	6.153	5.731	5.423	6.143	5.764	5.649	5.768	5.849	5.793	5.761	6.272	5.383	5.423	5.365	5.621	5.660	5.618	5.673	6.645	6.142
440.0	 1208	711.5	559.1	741.2	897.5	 1026	 1115	 1225	 1300	 1317	 1296	 1251	 1189	 1143	 1098	 1023	996.6	969.2	963.0	955.3	950.9	936.0	929.0	904.0	893.8	848.4	827.1	779.9	723.5	673.2	590.9	516.0	488.3	409.1	280.6	216.9	170.1	132.6	106.2	105.4	191.7	539.6	 1290	 7572	9999.9	 3025	34.92	11.33	8.373	6.525	5.472	5.489	5.190	5.275	4.963	5.028	5.862	5.477	5.548	5.270	5.657	6.429	5.917	5.939	5.614	5.365	5.350	5.504	5.924	5.313	5.188	5.035	5.372	5.686	5.245	5.554	5.369
445.0	 1009	 1258	540.2	735.9	841.7	965.1	 1096	 1187	 1251	 1256	 1249	 1223	 1154	 1089	 1026	966.9	953.2	923.1	916.3	899.5	896.6	889.9	872.9	867.8	853.8	820.3	801.2	755.2	717.1	657.8	582.2	505.7	451.1	426.8	319.8	233.8	180.9	141.8	110.9	95.31	100.3	164.5	326.9	 1931	9999.9	9999.9	 2215	26.66	9.942	7.374	5.877	5.855	5.289	5.507	5.074	4.921	5.263	5.312	5.439	4.670	5.780	5.871	5.787	5.551	5.077	4.987	5.086	5.565	5.315	5.248	5.300	5.194	5.191	5.020	4.488	5.112	5.828
450.0	513.7	 1726	953.7	664.4	773.2	893.7	 1008	 1089	 1184	 1181	 1174	 1133	 1062	 1013	953.0	893.5	874.1	850.0	838.0	828.7	824.3	815.6	812.0	803.5	792.9	769.2	749.5	712.2	676.9	638.8	572.3	503.1	427.9	390.2	354.2	271.5	198.5	154.5	126.0	102.3	89.55	89.36	114.3	464.1	 2539	 8576	9999.9	 6350	31.39	10.08	7.501	6.526	5.756	5.405	5.216	5.045	5.396	5.136	5.383	5.371	5.523	5.615	5.372	5.443	5.329	5.282	4.741	5.121	4.805	4.768	4.893	4.879	4.762	4.836	4.618	4.606	5.371
455.0	270.3	 1131	 1963	696.4	719.8	800.7	905.9	 1037	 1093	 1099	 1105	 1050	979.5	927.3	871.8	818.3	792.3	772.4	763.0	748.7	745.7	740.3	735.7	733.2	728.7	713.5	694.9	664.9	637.9	604.1	546.7	486.9	416.6	355.9	326.1	304.7	226.6	171.2	137.2	111.9	93.35	78.63	70.68	140.9	595.2	 1950	 4513	9999.9	 8744	37.52	9.656	7.252	6.623	6.257	5.185	4.820	5.030	5.534	4.748	5.032	5.263	5.588	5.088	5.038	4.925	4.925	4.929	4.536	5.006	4.171	4.554	4.364	4.818	4.006	4.459	4.586	5.035
460.0	211.6	569.5	 2323	 1134	682.1	748.3	863.1	979.0	 1031	 1054	 1043	993.4	913.5	865.6	815.1	770.8	738.2	709.3	712.0	691.2	693.5	686.3	682.0	675.8	677.0	658.2	648.9	629.1	599.3	572.1	523.3	467.8	400.8	342.1	303.6	291.8	256.4	184.0	142.5	120.2	98.42	82.37	64.26	73.44	165.6	463.1	 1070	 6161	9999.9	 2436	29.42	9.431	7.050	6.477	5.516	5.143	5.001	5.253	4.838	4.508	4.832	5.238	4.619	4.753	4.834	4.231	4.508	4.307	4.118	4.673	3.984	4.212	3.841	4.155	3.897	4.429	4.509
465.0	179.5	326.9	 1872	 2242	653.0	716.8	806.4	910.9	969.8	995.9	979.6	936.8	867.6	800.7	750.1	717.4	677.5	659.6	653.9	644.8	640.9	634.8	630.9	625.9	621.8	614.0	606.4	592.0	568.3	542.0	499.6	450.5	386.8	332.9	286.9	264.9	261.5	205.0	147.4	122.4	102.2	84.95	66.97	59.42	71.86	134.0	265.7	 1522	 8175	9999.9	 2016	25.40	8.798	6.731	6.043	5.448	5.672	5.079	4.306	4.290	4.471	4.668	4.527	4.640	4.224	4.405	3.706	4.073	3.789	4.566	4.055	4.153	3.605	4.159	3.500	4.168	4.214
470.0	178.0	273.3	852.4	 2858	 1372	661.3	730.8	834.2	883.9	904.4	898.3	857.0	789.7	741.6	691.2	648.3	613.2	595.8	589.8	575.9	575.2	573.5	562.8	565.3	560.7	550.0	547.1	536.9	516.5	496.3	456.8	416.0	367.2	316.0	273.4	243.3	229.4	217.7	168.7	128.4	106.4	87.86	72.19	59.16	54.31	61.34	86.38	363.3	 2012	 6628	9999.9	 4981	31.22	9.185	6.813	6.004	5.439	5.310	4.858	4.539	4.549	4.472	4.357	4.504	3.986	4.061	3.728	3.834	3.673	3.693	3.527	3.900	3.548	3.752	3.765	3.731	3.870
475.0	160.4	230.8	399.9	 1792	 2956	703.3	679.1	751.1	798.7	831.2	800.9	767.9	708.2	675.3	611.5	574.1	543.1	532.7	520.2	514.7	508.3	503.1	503.1	500.9	492.8	492.2	481.2	481.6	468.3	449.5	416.4	379.2	335.1	296.1	256.8	223.6	198.4	193.0	184.3	140.9	107.9	89.65	75.29	61.39	53.62	46.37	47.04	105.1	469.1	 1499	 3527	9999.9	 2871	43.29	7.994	6.292	5.649	5.248	4.773	4.407	4.406	3.956	4.022	4.384	3.470	3.487	3.722	3.876	3.573	3.061	2.980	3.309	3.426	3.433	3.287	3.159	3.236
480.0	147.0	206.9	290.9	854.2	 3397	 1086	635.7	696.6	751.3	756.7	749.4	708.7	661.3	617.6	568.3	525.9	499.2	487.1	482.3	474.7	461.4	460.9	448.6	455.4	446.2	452.0	440.2	443.5	429.6	417.5	390.2	354.4	315.2	281.9	246.9	215.1	188.2	174.3	173.8	156.0	114.3	91.53	76.18	61.42	53.99	45.41	39.13	47.81	125.6	351.0	819.0	 4325	9999.9	 2729	32.85	8.286	6.029	5.639	4.676	4.549	4.431	4.046	3.884	3.711	3.487	3.418	3.322	3.348	3.238	3.110	2.750	3.042	3.135	3.184	2.635	3.028	2.992
485.0	126.8	229.3	270.3	463.4	 2493	 2667	609.7	625.3	689.1	712.4	711.4	656.6	616.3	569.0	520.9	494.3	451.2	445.4	439.8	440.5	424.6	421.0	417.3	422.2	421.4	407.6	409.1	409.0	397.0	386.2	366.7	331.6	299.3	269.2	234.8	206.7	184.1	164.4	154.4	156.9	125.9	94.57	76.47	62.97	55.97	46.15	40.30	35.79	48.63	95.83	198.4	 1036	 5771	9999.9	 2046	23.40	6.971	6.235	4.899	3.885	4.508	3.536	3.697	3.250	3.409	3.012	3.257	3.329	3.294	2.639	2.798	2.678	2.617	2.963	2.946	3.001	2.755
490.0	117.0	201.6	273.6	329.7	 1065	 3455	 1496	579.3	627.6	642.9	644.7	602.1	557.8	509.7	481.8	446.1	413.6	397.3	391.1	387.5	379.6	376.2	370.1	377.3	371.9	372.8	368.4	367.1	362.2	356.4	333.1	309.0	277.2	246.3	219.1	195.0	174.5	152.9	139.3	139.1	133.5	105.0	79.65	67.31	56.77	48.85	41.23	35.14	32.64	40.08	59.41	244.7	 1384	 4863	 8530	 4178	32.36	7.728	6.073	5.055	4.620	3.835	3.651	3.294	3.237	3.030	2.830	2.814	2.819	2.603	2.915	2.412	2.467	2.500	2.424	2.528	2.504
495.0	92.06	159.4	250.9	282.4	481.7	 2061	 3785	678.5	559.4	565.5	577.4	528.5	507.6	463.2	427.7	388.6	373.7	354.2	351.4	334.9	331.4	323.9	328.7	328.8	329.6	330.1	327.6	318.6	318.8	317.1	296.8	277.1	249.7	224.8	199.7	182.5	159.8	143.7	130.1	119.4	119.4	113.7	86.26	66.15	56.77	48.84	41.85	37.12	31.70	28.53	29.10	68.30	320.9	 1098	 2852	 9114	 3104	44.47	7.327	5.632	4.352	4.151	3.745	3.005	3.001	2.980	2.740	2.714	2.643	2.359	2.450	2.422	2.626	2.198	2.195	2.194	2.371
500.0	88.38	142.0	233.3	283.0	334.2	912.2	 4897	 1481	499.0	527.9	534.4	489.6	456.8	420.1	393.5	351.0	340.9	311.4	319.6	306.0	300.3	300.8	298.3	298.1	292.4	289.9	293.4	290.7	292.7	287.5	269.3	252.1	232.1	210.8	183.9	169.5	150.8	134.6	122.7	111.2	105.3	107.5	93.56	69.47	57.17	49.15	42.31	36.42	31.37	26.66	22.81	29.29	83.41	256.7	659.2	 3740	9999.9	 2747	33.27	6.405	4.709	4.240	3.914	3.204	2.876	2.811	3.041	2.434	2.432	2.151	2.272	2.245	2.194	2.511	2.047	1.940	2.103
505.0	73.43	123.6	194.5	269.9	281.7	444.3	 3858	 3167	514.5	475.6	491.1	451.2	425.0	391.2	358.7	324.3	306.5	294.1	281.2	285.3	269.7	272.5	271.0	271.2	268.5	267.3	271.5	264.9	270.3	260.4	253.3	232.6	211.0	194.9	171.8	155.1	141.7	130.0	117.1	104.3	93.61	93.58	95.68	73.78	56.95	47.67	41.34	36.54	31.00	25.70	22.14	20.67	30.62	68.69	158.8	884.9	 5249	 9852	 2059	22.27	6.144	4.395	3.843	3.388	2.984	2.563	2.600	2.163	2.297	2.079	2.201	2.080	1.995	2.162	2.035	1.847	2.024
510.0	68.32	103.1	153.2	266.2	263.2	331.2	 1504	 4192	 1510	424.0	420.8	404.6	373.6	340.0	318.9	289.6	267.0	258.1	250.1	253.1	241.5	236.6	237.8	235.8	234.7	234.6	233.0	232.3	235.3	229.5	221.6	208.7	189.2	173.4	154.4	141.0	131.5	117.7	106.7	95.47	86.59	81.95	81.94	77.71	61.58	47.95	41.01	35.71	30.08	26.33	22.47	19.18	19.51	26.84	45.61	207.5	 1254	 4584	 7365	 3364	30.55	5.917	4.126	3.546	2.863	2.561	2.244	2.110	2.198	1.901	1.758	2.141	1.955	1.681	1.786	1.786	1.799
515.0	52.55	83.83	125.5	226.7	276.5	265.1	559.3	 2434	 4175	533.3	373.0	355.5	326.7	307.3	271.4	250.1	229.2	225.0	219.5	216.4	209.3	205.2	206.1	199.8	205.9	204.5	198.4	201.6	198.4	201.5	194.0	182.5	166.7	151.4	136.8	126.9	114.1	105.3	94.53	85.91	78.65	72.83	68.21	68.67	67.58	50.76	39.59	33.92	29.90	26.12	22.41	19.88	16.94	17.58	20.47	55.67	288.2	 1032	 2478	 7486	 2956	41.60	5.630	3.556	3.098	2.795	2.485	2.032	1.943	1.531	1.470	1.630	1.921	1.612	1.370	1.562	1.659
520.0	42.56	77.46	123.8	188.1	280.2	234.3	323.0	980.7	 5048	 1532	338.3	320.6	293.0	271.1	246.3	228.6	208.2	202.1	198.5	188.4	183.3	182.6	185.9	182.4	181.9	185.5	180.6	182.7	181.7	181.0	175.4	164.3	152.4	139.5	126.2	116.5	107.5	95.96	90.24	80.03	71.13	67.80	61.43	58.67	63.44	53.66	40.59	33.72	28.94	25.26	22.20	18.72	16.51	14.97	14.32	21.46	72.81	238.8	572.6	 3181	 7708	 2369	28.77	4.528	3.455	2.347	2.606	1.910	2.098	1.731	1.640	1.355	1.664	1.659	1.448	1.208	1.280
525.0	44.87	75.00	111.5	160.0	254.7	248.1	256.1	430.4	 3666	 3687	350.2	291.2	266.1	250.1	220.6	203.6	186.4	183.0	178.6	166.3	169.0	164.3	165.0	164.7	163.9	166.6	164.8	163.1	164.6	161.9	157.4	147.6	137.3	126.6	115.6	107.1	96.79	87.68	83.61	74.36	67.31	61.80	55.77	51.41	53.33	56.40	43.70	32.98	27.96	24.63	20.63	18.32	16.20	14.73	12.90	13.72	24.32	61.25	136.7	756.6	 4096	 7153	408.7	16.10	3.692	2.984	2.559	2.157	2.313	1.687	1.773	1.460	1.312	1.375	1.347	1.287	1.049
530.0	44.57	66.04	94.32	131.1	197.5	250.0	212.4	269.8	 1359	 5047	 1516	258.9	233.4	218.3	195.7	184.0	170.0	158.7	156.1	148.1	148.0	143.2	141.6	141.6	143.1	142.0	143.6	142.8	142.0	143.1	138.5	128.4	118.4	110.8	102.0	93.33	87.90	80.14	74.70	67.84	62.38	56.07	51.66	45.80	43.76	46.90	46.59	35.46	27.46	22.78	19.79	17.33	14.96	14.10	12.62	11.86	13.49	20.78	37.30	175.5	980.5	 3402	 4994	 1725	26.61	3.602	2.556	2.099	1.979	1.535	1.486	1.325	1.523	1.188	1.131	1.065	1.129
535.0	43.30	62.13	77.24	108.1	139.0	232.8	214.7	217.9	477.4	 2690	 4901	378.5	209.1	187.0	174.5	153.1	148.0	138.8	137.9	126.5	125.5	124.2	121.0	120.5	121.9	120.8	119.4	122.4	122.8	119.4	118.0	110.7	104.5	95.09	89.74	82.21	75.00	70.62	65.56	58.72	53.81	48.06	45.79	39.40	38.74	35.67	41.88	39.16	27.82	21.39	18.42	17.00	14.54	12.63	11.71	11.16	10.18	11.59	14.33	44.83	224.2	765.3	 1770	 5217	 2510	35.52	3.352	2.423	2.127	1.456	1.575	1.191	1.096	1.108	1.199	0.985	1.093
540.0	43.50	54.70	70.06	108.9	113.0	189.6	222.3	192.3	262.0	982.0	 5904	 1484	183.2	166.7	157.1	137.3	128.0	119.8	116.8	112.8	113.4	108.2	108.1	104.8	107.5	108.8	105.8	105.8	106.8	108.3	106.6	98.28	92.66	84.09	78.18	72.80	67.87	62.16	59.07	52.89	50.07	44.86	40.64	38.63	34.04	31.35	33.78	37.45	30.66	22.69	18.59	15.42	13.11	12.19	11.66	10.68	10.07	8.944	8.500	14.81	55.30	175.1	409.9	 2325	 5478	 1703	21.31	2.611	2.034	1.577	1.572	1.114	1.071	0.985	0.802	0.808	0.889
545.0	42.44	46.79	65.40	78.15	110.0	143.1	222.3	169.9	198.3	388.9	 4062	 3582	200.5	151.9	138.3	121.1	114.0	111.0	104.2	99.90	99.83	94.84	97.64	95.73	96.76	95.90	94.27	92.63	94.67	94.67	92.19	86.39	82.43	73.97	71.61	65.20	60.26	56.17	53.35	48.41	45.32	40.54	37.93	34.23	31.81	28.51	28.28	31.38	30.59	23.07	16.83	14.67	12.23	11.27	10.94	10.29	9.147	7.709	6.959	8.160	17.06	42.92	96.28	557.0	 3044	 4814	373.2	6.872	2.305	1.719	1.259	0.957	1.002	0.913	0.881	0.586	1.080
550.0	40.63	51.40	60.85	74.35	86.29	109.2	190.4	190.0	169.9	220.6	 1375	 5366	 1330	135.2	117.7	105.7	96.49	92.58	87.40	85.55	84.41	80.60	80.88	78.16	81.85	79.81	80.04	79.63	80.43	79.63	76.98	73.39	67.99	64.18	58.60	55.55	51.46	48.16	45.20	41.56	38.66	34.84	32.36	29.79	27.04	25.46	23.61	23.08	25.98	23.76	17.50	13.92	11.28	9.873	9.493	8.905	8.404	7.657	6.276	6.147	7.741	13.13	25.05	128.2	737.6	 2448	 3138	 1267	22.35	2.166	1.551	1.361	1.100	0.984	0.840	0.726	0.858
555.0	44.07	55.64	56.16	70.93	73.30	81.47	136.4	209.4	157.6	172.2	433.5	 2669	 4872	235.1	102.3	90.05	79.21	77.19	72.14	70.05	68.68	66.45	67.49	63.92	65.84	63.84	63.80	65.03	63.30	63.65	64.31	60.38	55.94	52.35	48.79	45.38	42.56	39.46	38.45	35.15	31.36	29.07	27.59	25.06	22.99	21.28	19.88	19.07	17.95	21.30	18.19	13.57	9.407	9.248	8.593	8.442	7.202	7.131	6.238	5.421	5.344	6.490	9.063	31.35	167.2	550.5	 1232	 3468	 1531	26.44	1.947	1.628	1.067	0.955	0.772	0.853	0.776
560.0	44.23	54.40	57.14	60.53	73.89	75.52	103.8	197.5	162.3	154.0	203.5	884.8	 5904	 1166	90.20	76.67	68.51	64.77	62.04	62.01	58.72	54.62	56.62	54.21	53.58	54.29	53.00	55.10	55.55	54.29	55.10	51.09	47.91	43.46	40.75	38.55	35.35	33.84	32.71	30.60	27.20	25.17	23.71	22.40	19.67	18.85	17.63	15.03	15.22	16.34	17.24	13.57	8.974	8.292	7.560	7.281	6.438	6.157	6.090	5.423	4.989	4.906	5.407	9.945	40.45	125.8	288.6	 1637	 3332	396.8	10.61	1.944	1.047	0.765	0.868	0.680	0.448
565.0	43.49	51.88	63.73	62.83	63.25	62.61	84.97	157.3	187.3	143.0	154.8	308.0	 3873	 2758	98.21	68.58	56.80	54.17	51.85	52.64	49.11	48.99	48.41	47.64	43.22	46.87	45.52	47.28	47.14	43.94	45.40	43.95	40.34	37.92	34.10	34.20	29.91	29.03	26.96	25.66	22.85	21.38	19.83	19.19	17.31	15.91	14.93	13.08	12.54	12.75	14.29	13.74	9.633	7.433	6.546	6.771	5.453	5.480	5.278	5.395	4.557	4.591	4.409	5.426	11.97	30.62	67.74	398.8	 2013	 2585	285.4	3.280	1.538	0.820	0.874	0.645	0.598
570.0	45.14	54.11	55.37	57.40	54.77	54.83	67.40	106.1	197.7	144.5	138.1	167.6	 1231	 4926	 1004	58.76	46.08	45.67	42.41	42.97	39.94	39.46	39.59	37.33	35.27	37.98	36.82	37.25	37.25	37.18	35.75	35.82	33.00	30.94	28.32	26.55	24.35	23.18	21.98	20.48	19.81	17.91	16.29	15.29	14.02	13.31	11.72	10.85	10.59	9.557	10.09	11.32	10.10	6.811	5.494	5.620	4.969	4.855	4.527	4.900	4.438	4.058	3.756	4.038	5.670	9.848	17.97	92.03	498.6	 1467	 1869	638.8	16.52	1.123	0.903	0.746	0.575
575.0	48.00	56.10	60.34	60.10	44.55	45.80	57.02	90.08	148.5	184.8	129.5	134.5	358.8	 2358	 4323	130.3	40.19	36.36	33.72	33.96	31.79	31.19	30.03	29.88	29.13	29.98	28.42	27.84	28.49	28.26	28.77	27.65	25.83	23.39	20.80	20.67	19.41	18.87	17.82	16.76	16.28	14.09	12.94	12.28	10.87	10.67	9.503	9.286	8.534	7.385	6.970	8.053	9.122	7.289	5.150	4.636	4.294	4.204	3.784	3.837	4.009	4.170	4.023	3.447	4.113	5.213	6.700	23.05	113.7	331.7	772.6	 1921	404.1	15.28	1.116	0.697	0.310
580.0	54.97	58.14	59.24	54.16	51.21	44.70	52.79	77.90	112.7	209.7	133.4	126.4	166.5	730.6	 5293	884.2	35.29	29.89	29.85	26.58	26.51	25.86	24.87	24.32	25.22	24.67	24.37	23.70	23.80	24.22	23.98	22.58	21.60	20.05	19.24	17.57	17.12	16.44	14.70	13.79	13.05	12.08	11.31	10.51	9.448	8.617	8.043	8.311	7.214	6.408	5.764	5.992	6.978	7.426	5.679	4.062	3.684	3.558	3.682	3.726	3.489	3.885	3.767	3.335	3.390	4.071	4.140	7.909	27.75	76.54	182.5	976.6	 1701	305.8	4.444	1.029	0.428
585.0	41.21	55.42	60.90	52.27	47.76	41.29	46.62	61.32	87.19	203.1	160.5	123.3	118.6	228.3	 3355	 2965	43.62	25.68	27.20	22.95	22.65	22.64	21.92	21.35	21.03	20.58	20.04	20.26	20.94	19.85	20.43	20.32	19.05	17.78	15.43	15.44	15.04	13.58	13.64	12.26	10.15	10.21	9.801	8.961	8.510	7.563	7.306	6.578	6.031	5.332	4.773	4.654	5.217	6.753	5.573	4.415	3.408	3.411	3.270	3.436	3.275	3.440	3.444	3.391	2.976	3.354	3.091	4.283	8.560	19.04	42.90	243.1	 1160	 1387	52.76	1.678	0.623
590.0	35.70	57.74	67.37	54.85	44.17	41.01	45.05	55.25	83.83	145.2	186.3	129.6	111.3	114.6	 1010	 4178	745.3	24.94	22.36	20.27	19.25	18.31	17.81	17.26	16.77	16.71	16.79	16.85	16.73	16.39	15.80	16.28	15.00	13.31	12.49	12.27	11.39	10.91	10.83	9.999	8.662	8.305	7.663	7.086	7.063	6.148	6.140	5.530	5.391	4.722	3.988	3.669	3.819	4.656	5.377	4.643	3.231	2.651	2.878	2.756	2.913	2.781	2.876	3.161	3.078	2.920	2.849	3.200	4.104	6.150	11.32	55.89	292.6	856.4	 1012	228.2	11.33
595.0	34.39	52.99	55.61	51.30	40.83	36.98	39.23	49.50	66.52	101.2	196.6	151.3	110.9	88.90	265.6	 1881	 3360	75.22	18.63	17.21	14.48	14.73	14.98	14.77	14.27	13.90	14.21	13.77	12.70	14.14	13.45	12.54	12.41	10.83	10.27	10.01	9.010	8.256	8.066	7.317	7.184	6.298	6.045	5.833	5.443	5.209	5.025	4.283	4.223	3.880	3.500	3.051	2.822	2.988	4.099	4.235	3.693	2.711	2.589	2.425	2.246	2.489	2.486	2.435	2.888	2.620	2.437	2.498	2.951	3.046	4.361	13.92	66.24	194.0	458.3	 1073	323.3
600.0	31.10	45.47	54.75	52.90	39.29	35.20	40.50	45.53	68.19	96.84	164.2	172.6	113.6	84.53	102.0	554.1	 4130	628.5	15.38	16.18	13.02	12.86	11.88	11.76	11.76	12.75	11.40	12.30	10.60	10.74	11.05	10.94	10.80	9.143	8.605	8.951	7.328	7.123	7.136	6.592	6.218	5.996	5.051	5.043	5.088	4.369	3.904	3.629	3.810	3.161	2.974	2.557	2.402	2.456	2.789	3.600	3.360	2.768	2.364	2.089	2.160	2.156	1.672	2.392	2.514	2.562	2.508	2.100	2.519	2.130	2.588	4.350	15.62	44.41	110.0	598.8	961.4
605.0	36.74	44.14	55.56	55.94	44.47	35.84	46.39	48.13	73.32	89.40	132.7	190.1	119.8	83.98	63.84	156.0	 2626	 2258	27.73	12.85	12.45	12.46	11.20	10.41	9.749	9.992	9.707	10.55	9.483	9.548	9.104	9.080	8.478	7.676	7.170	7.398	7.567	5.986	6.266	6.076	5.646	4.540	4.783	4.436	4.064	3.986	3.767	2.916	3.313	3.158	2.706	2.309	1.870	2.321	2.334	2.963	3.399	3.028	2.181	1.886	1.610	1.963	1.865	2.033	2.100	2.050	2.854	1.904	2.062	2.105	1.940	2.265	4.456	10.71	25.57	152.0	683.0
610.0	31.64	39.52	47.85	46.65	40.10	29.88	39.89	48.95	63.44	85.00	116.8	170.6	136.8	83.15	56.30	63.38	781.4	 3289	579.5	13.48	10.26	9.323	9.028	8.630	8.396	7.877	7.442	8.519	7.817	7.557	7.940	7.141	7.131	6.948	5.896	6.022	6.373	5.233	5.106	4.759	4.165	3.824	4.199	3.543	3.418	3.230	3.253	2.906	2.811	2.434	2.316	1.957	1.885	1.855	1.691	1.872	2.745	3.037	2.325	1.740	1.650	1.832	1.688	1.801	1.818	1.742	2.149	1.920	1.858	1.551	1.540	1.355	1.723	3.270	6.312	34.47	175.2
615.0	19.70	31.58	42.97	44.63	35.19	30.93	34.87	46.20	57.51	73.14	104.7	137.1	156.7	82.99	56.32	42.28	195.1	 1525	 2722	59.85	10.32	8.337	7.859	6.490	6.925	6.911	6.724	5.999	6.898	6.586	6.405	5.774	5.596	5.280	4.749	4.526	5.066	4.303	4.305	3.862	3.378	3.158	3.374	2.903	2.697	2.598	2.589	2.655	1.980	2.041	1.954	1.870	1.915	1.599	1.185	1.559	1.737	2.027	2.011	1.685	1.299	1.454	1.610	1.505	1.430	1.457	1.595	1.926	1.806	1.349	1.157	1.122	1.062	1.384	1.850	7.961	39.67
620.0	22.83	37.81	41.56	42.76	33.82	26.45	32.29	46.44	53.48	71.30	91.95	112.7	156.7	97.86	54.68	34.97	60.86	440.3	 3344	544.4	10.36	7.910	6.682	6.349	5.631	5.849	5.963	5.688	5.353	5.282	5.594	5.318	4.503	4.589	4.111	4.208	4.466	3.503	3.364	2.996	2.725	2.836	2.488	2.398	2.261	2.112	1.988	2.348	1.859	1.714	1.746	1.602	1.297	1.425	1.189	1.121	1.398	1.339	1.925	1.585	1.674	1.203	1.506	1.244	1.256	1.601	1.285	1.475	1.822	1.379	0.998	0.830	0.925	0.947	1.034	2.085	9.121
625.0	24.58	38.54	39.42	36.12	35.22	27.86	32.79	41.69	55.98	71.47	84.17	99.02	137.9	113.8	53.99	34.52	32.98	117.0	 2168	 1926	15.95	8.236	6.035	5.705	4.639	5.052	4.992	4.676	5.059	4.647	4.593	4.745	4.482	3.638	3.426	3.436	3.226	3.149	3.008	2.695	2.218	2.356	2.066	2.083	1.845	1.959	1.999	1.663	1.334	1.634	1.613	1.373	1.175	1.024	0.949	0.894	1.030	0.978	1.687	1.860	1.702	1.139	1.130	1.050	1.110	1.389	1.324	1.310	1.625	1.424	1.014	1.048	0.772	0.763	0.471	0.667	2.419
630.0	19.27	31.62	42.30	33.93	33.10	23.91	29.58	35.47	51.21	64.86	80.16	90.45	103.8	119.9	62.84	34.86	27.61	41.29	639.4	 2793	489.8	7.864	5.838	4.920	4.344	4.018	4.249	3.987	4.143	4.012	3.558	3.784	3.532	3.192	2.967	2.910	3.100	2.700	2.461	2.209	2.219	1.944	1.655	1.688	1.701	1.578	1.508	1.516	1.288	1.396	1.152	1.140	1.055	0.937	0.837	0.859	1.007	0.922	1.141	1.345	1.454	1.045	0.999	0.936	0.878	1.242	1.174	0.962	1.007	1.026	1.000	0.811	0.552	0.528	0.381	0.320	0.808
635.0	20.25	37.18	44.64	33.94	28.76	21.95	26.27	37.04	46.33	65.97	78.05	81.49	88.68	104.5	83.91	40.09	27.58	22.45	154.5	 1278	 2292	45.16	5.543	4.455	3.980	3.827	3.688	3.174	3.565	3.201	2.839	3.168	3.111	2.544	2.404	2.376	2.107	1.904	1.975	1.521	1.680	1.540	1.508	1.405	1.301	1.259	1.276	1.155	1.331	1.105	1.061	0.926	1.034	0.708	0.782	0.531	0.760	0.731	0.715	0.857	1.466	1.016	0.746	0.722	0.788	1.033	0.968	0.896	0.871	0.778	0.728	0.757	0.475	0.575	0.391	0.335	0.389
640.0	21.91	34.89	37.25	28.89	21.14	25.02	26.29	32.69	44.13	56.90	72.76	86.39	92.15	93.84	97.46	41.51	30.20	20.84	45.21	363.3	 2842	454.7	6.197	4.151	4.159	3.329	3.051	3.361	3.177	3.047	2.384	2.812	2.358	2.514	2.073	1.905	1.865	1.716	1.637	1.564	1.332	1.195	1.443	1.237	1.279	1.017	1.308	1.011	1.111	1.002	0.836	0.681	0.900	0.495	0.646	0.636	0.498	0.533	0.540	0.727	0.916	1.030	0.907	0.685	0.612	0.692	0.869	0.626	0.689	0.573	0.637	0.737	0.718	0.384	0.332	0.201	0.364
645.0	24.88	38.46	43.32	25.48	25.31	21.92	26.62	32.79	38.17	51.84	70.55	81.40	90.58	83.08	95.27	48.99	30.73	20.70	21.11	93.77	 1819	 1580	13.09	4.594	4.071	2.746	2.683	3.070	2.728	2.599	2.708	2.449	1.927	1.985	1.872	1.989	1.551	1.378	1.879	1.753	1.221	0.979	1.413	1.357	1.075	1.029	1.043	1.100	0.936	0.930	0.857	0.749	0.695	0.506	0.549	0.473	0.460	0.678	0.372	0.641	0.718	0.880	0.992	0.716	0.747	0.685	0.828	0.575	0.720	0.692	0.495	0.735	0.532	0.648	0.435	0.302	0.351
650.0	25.37	30.82	39.98	33.15	25.95	20.50	27.13	34.98	39.34	52.86	71.44	76.64	83.34	77.06	82.53	63.10	32.64	22.64	16.76	31.51	652.1	 2539	90.44	4.846	3.764	3.653	2.722	2.774	2.339	2.131	2.501	2.348	1.891	1.973	1.663	1.834	1.644	1.157	1.526	1.277	1.184	1.045	0.975	1.196	0.959	1.021	0.776	0.949	0.984	0.749	0.770	0.619	0.598	0.417	0.460	0.474	0.291	0.482	0.261	0.519	0.609	0.684	0.753	0.774	0.576	0.485	0.707	0.573	0.601	0.684	0.410	0.534	0.785	0.661	0.359	0.235	0.160
