Sample:	'1
File name:	t2025061608–ÏÕı«≈ 3±∂.FD3
Run date:	'11:24:33, 06/18/2025
Operator:	Administrator
Comment:	'

Instrument
Model:	F-2700 FL Spectrophotometer
Serial number:	23B8-004
ROM Version:	4J14000 07

Instrument parameters
Measurement type:	3-D scan
Data mode:	Fluorescence
EX  Start WL:	220.0 nm
EX  End WL:	600.0 nm
EX Sampling interval:	5.0 nm
EM  Start WL:	230.0 nm
EM  End WL:	650.0 nm
EM Sampling interval:	5.0 nm
Scan speed:	12000 nm/min
EX Slit:	5.0 nm
EM Slit:	5.0 nm
PMT Voltage:	700 V
Response:	Auto 
Corrected spectra:	Off
Contour interval:	50.000

Peak integration
Integration method:	Rectangular
Sensitivity:	1
Threshold:	1.000

Peaks
No.	ApexEX/EM(nm)	Height(Data)
1	230.0/345.0	3571
2	255.0/280.0	532.4
3	260.0/290.0	544.0
4	260.0/575.0	137.7
5	265.0/295.0	719.0
6	265.0/585.0	116.9
7	270.0/300.0	1015
8	270.0/600.0	100.1
9	275.0/305.0	1157
10	275.0/415.0	4003
11	275.0/435.0	3976
12	275.0/610.0	92.19
13	280.0/315.0	1123
14	280.0/345.0	1562
15	280.0/625.0	78.67
16	285.0/640.0	62.03
17	340.0/415.0	2230
18	340.0/430.0	2177
19	460.0/345.0	9.454
20	475.0/350.0	9.089
21	505.0/275.0	3.162
22	510.0/280.0	3.157
23	515.0/285.0	3.431
24	530.0/290.0	3.497
25	535.0/270.0	35.66
26	540.0/295.0	4.867
27	545.0/300.0	5.387
28	550.0/305.0	6.216
29	560.0/310.0	6.054
30	565.0/345.0	7.945
31	565.0/415.0	12.30
32	570.0/420.0	12.06

Data points
	220.0	225.0	230.0	235.0	240.0	245.0	250.0	255.0	260.0	265.0	270.0	275.0	280.0	285.0	290.0	295.0	300.0	305.0	310.0	315.0	320.0	325.0	330.0	335.0	340.0	345.0	350.0	355.0	360.0	365.0	370.0	375.0	380.0	385.0	390.0	395.0	400.0	405.0	410.0	415.0	420.0	425.0	430.0	435.0	440.0	445.0	450.0	455.0	460.0	465.0	470.0	475.0	480.0	485.0	490.0	495.0	500.0	505.0	510.0	515.0	520.0	525.0	530.0	535.0	540.0	545.0	550.0	555.0	560.0	565.0	570.0	575.0	580.0	585.0	590.0	595.0	600.0
230.0	171.9	2589	4222	649.7	24.67	8.776	7.141	6.080	5.152	4.891	4.631	3.948	3.505	2.946	2.754	1.920	1.933	1.648	1.488	1.427	1.281	1.343	1.107	1.217	1.089	1.035	1.083	0.988	1.005	0.907	0.811	0.749	0.721	0.566	0.577	0.544	0.490	0.430	0.413	0.384	0.444	0.584	0.515	0.390	0.339	0.476	3.186	10.80	14.21	6.320	1.553	0.459	0.256	0.270	0.289	0.282	0.278	0.279	0.266	0.268	0.247	0.268	0.263	0.253	0.285	0.244	0.275	0.271	0.276	0.256	0.268	0.275	0.278	0.278	0.254	0.317	0.273
235.0	143.6	756.4	3303	3800	538.9	33.90	10.27	7.263	6.142	5.956	4.972	4.428	3.652	3.363	2.778	2.318	1.823	1.686	1.462	1.502	1.282	1.327	1.186	1.300	1.130	1.094	1.083	0.877	0.922	0.904	0.793	0.730	0.763	0.540	0.585	0.455	0.487	0.440	0.440	0.411	0.357	0.487	0.578	0.631	0.557	0.411	1.002	2.863	7.049	10.07	12.25	10.26	3.070	0.633	0.282	0.299	0.268	0.291	0.331	0.308	0.263	0.289	0.304	0.285	0.274	0.256	0.274	0.252	0.234	0.298	0.265	0.267	0.267	0.298	0.282	0.233	0.282
240.0	186.5	248.6	1136	4080	4021	401.3	18.48	8.353	5.881	5.525	5.259	4.755	3.540	2.983	2.979	2.321	2.045	1.718	1.526	1.515	1.559	1.373	1.238	1.301	1.240	1.123	1.017	0.910	0.881	0.943	0.754	0.763	0.754	0.651	0.561	0.431	0.496	0.489	0.435	0.371	0.349	0.399	0.499	0.582	0.689	0.611	0.683	0.906	1.934	3.330	8.562	18.77	17.04	9.066	2.691	0.497	0.221	0.317	0.266	0.291	0.310	0.286	0.297	0.276	0.282	0.310	0.314	0.281	0.262	0.291	0.331	0.340	0.288	0.270	0.319	0.277	0.291
245.0	178.3	233.8	321.3	1655	5658	3505	281.1	11.37	7.423	6.806	5.753	4.515	3.512	3.148	2.861	2.631	2.475	1.829	1.400	1.503	1.523	1.325	1.387	1.155	1.234	1.139	1.072	1.187	1.021	0.884	0.888	0.766	0.809	0.632	0.497	0.508	0.490	0.520	0.428	0.395	0.350	0.368	0.386	0.519	0.532	0.797	0.927	0.657	0.764	0.978	2.305	7.504	16.76	24.50	20.49	8.165	1.310	0.369	0.320	0.282	0.338	0.310	0.267	0.248	0.266	0.298	0.287	0.276	0.276	0.245	0.310	0.350	0.280	0.269	0.261	0.333	0.283
250.0	87.59	198.9	275.3	455.3	2078	5698	5671	1104	47.93	9.623	6.985	5.290	4.578	3.793	3.339	2.673	2.311	1.683	1.562	1.570	1.663	1.304	1.374	1.168	1.331	1.254	1.107	1.043	0.959	1.015	0.883	0.808	0.791	0.641	0.585	0.553	0.556	0.490	0.449	0.450	0.396	0.412	0.405	0.405	0.408	0.495	0.706	0.819	0.987	0.906	0.943	1.971	4.391	9.413	17.73	21.92	22.02	17.29	6.903	1.510	0.385	0.308	0.267	0.306	0.260	0.330	0.280	0.289	0.299	0.288	0.316	0.292	0.287	0.312	0.272	0.316	0.293
255.0	53.66	78.47	223.4	346.7	530.8	1590	6927	7924	1433	51.33	9.346	6.227	5.946	4.407	3.872	3.035	2.426	1.860	1.612	1.718	1.827	1.563	1.257	1.277	1.263	1.277	1.166	1.165	1.016	0.888	0.879	0.871	0.924	0.786	0.619	0.603	0.515	0.419	0.510	0.370	0.398	0.389	0.410	0.361	0.415	0.400	0.406	0.464	0.607	1.087	1.461	1.415	1.498	2.392	4.262	5.789	11.46	28.28	34.97	23.11	10.07	1.679	0.367	0.331	0.268	0.293	0.255	0.320	0.307	0.350	0.309	0.304	0.301	0.316	0.310	0.335	0.258
260.0	39.69	41.29	100.1	317.5	329.8	402.3	2411	8296	7583	257.9	20.39	8.565	6.531	5.298	4.694	3.044	2.700	1.799	1.840	1.626	2.050	1.648	1.522	1.293	1.262	1.197	1.317	1.077	1.150	1.061	0.978	0.897	0.847	0.653	0.665	0.592	0.615	0.527	0.402	0.411	0.464	0.391	0.488	0.388	0.447	0.343	0.381	0.405	0.389	0.585	1.045	1.800	1.688	1.211	1.268	1.625	2.925	8.370	19.41	33.47	32.16	23.07	6.791	0.866	0.320	0.314	0.335	0.330	0.308	0.380	0.326	0.328	0.310	0.309	0.393	0.262	0.245
265.0	48.51	40.43	45.55	169.5	387.4	234.2	588.9	3134	9999.9	7915	190.5	11.07	8.542	6.269	5.158	3.536	3.216	2.044	1.863	1.805	1.838	1.580	1.522	1.391	1.296	1.325	1.402	1.252	1.079	1.096	0.991	0.869	0.899	0.737	0.592	0.672	0.547	0.469	0.384	0.411	0.402	0.375	0.422	0.391	0.423	0.419	0.375	0.389	0.331	0.394	0.490	1.009	1.664	2.034	1.295	0.763	0.963	2.217	4.885	11.35	26.90	50.92	31.40	17.91	3.349	0.435	0.357	0.496	0.313	0.352	0.459	0.316	0.280	0.288	0.294	0.301	0.296
270.0	62.36	44.02	37.50	61.21	208.8	377.7	314.0	757.9	3496	9999.9	8367	760.0	38.42	9.346	6.203	4.548	3.782	2.247	2.128	2.002	1.968	1.798	1.569	1.507	1.415	1.236	1.346	1.305	1.268	1.081	1.045	0.954	0.884	0.858	0.638	0.600	0.513	0.561	0.456	0.428	0.408	0.468	0.488	0.448	0.416	0.466	0.408	0.441	0.405	0.340	0.362	0.510	0.756	1.237	1.765	1.920	1.638	1.283	1.453	2.848	6.785	16.35	24.21	35.66	33.65	28.83	12.98	3.224	0.548	0.370	0.438	0.331	0.341	0.285	0.303	0.352	0.333
275.0	104.5	85.06	59.94	46.05	69.02	207.6	493.4	357.7	826.2	2592	7562	9112	1025	37.33	9.543	5.945	4.483	2.968	2.319	2.160	2.320	2.130	1.626	1.488	1.593	1.467	1.535	1.291	1.325	1.083	1.204	0.930	0.937	0.832	0.804	0.611	0.594	0.547	0.465	0.504	0.530	0.517	0.507	0.517	0.467	0.552	0.511	0.461	0.398	0.412	0.389	0.431	0.451	0.530	0.701	1.147	2.379	3.162	2.016	1.277	1.860	4.143	5.848	8.751	12.41	28.77	58.17	32.13	18.63	3.867	0.601	0.290	0.370	0.347	0.331	0.332	0.327
280.0	169.4	145.9	96.10	60.21	47.21	90.17	359.6	532.4	308.9	653.1	2281	8135	8503	148.1	20.25	7.031	6.109	3.335	2.767	2.292	2.437	2.103	1.764	1.589	1.506	1.512	1.501	1.303	1.272	1.280	1.260	1.068	1.019	0.812	0.844	0.872	0.672	0.620	0.617	0.562	0.521	0.573	0.520	0.671	0.671	0.606	0.673	0.660	0.534	0.544	0.417	0.407	0.485	0.382	0.484	0.653	1.117	2.383	3.157	2.716	1.494	1.441	1.731	2.520	3.313	7.669	23.49	41.27	67.75	31.36	15.38	1.103	0.361	0.401	0.381	0.335	0.367
285.0	256.7	223.4	157.4	91.87	54.19	63.06	165.7	526.1	352.8	262.8	615.2	2726	9949	7402	114.9	10.70	7.612	3.985	3.306	2.484	2.919	2.301	2.041	1.789	1.686	1.661	1.554	1.651	1.343	1.313	1.092	1.118	0.982	0.843	0.922	1.002	0.743	0.727	0.580	0.542	0.566	0.539	0.664	0.643	0.716	0.809	0.805	0.738	0.725	0.649	0.510	0.508	0.428	0.364	0.421	0.470	0.674	0.952	1.871	3.431	3.354	2.193	1.111	1.253	1.287	2.367	5.967	11.74	35.85	51.67	102.5	23.59	6.004	0.702	0.427	0.463	0.447
290.0	340.5	324.4	255.4	151.7	86.36	80.70	112.9	261.3	544.0	501.2	318.7	778.1	3118	9825	8669	440.3	27.51	6.078	4.085	3.253	3.211	2.524	2.106	2.034	1.953	1.811	1.813	1.606	1.524	1.284	1.179	1.146	1.035	0.900	1.055	1.055	1.014	0.946	0.789	0.811	0.674	0.700	0.765	0.852	0.843	0.990	0.930	1.023	1.043	0.809	0.718	0.690	0.594	0.630	0.575	0.559	0.593	0.751	0.990	1.567	2.403	3.286	3.497	2.733	1.581	1.604	2.337	3.598	9.132	14.37	43.92	31.21	31.02	33.21	15.98	6.849	0.927
295.0	424.6	431.3	345.1	214.7	134.7	124.2	140.6	193.9	328.1	719.0	694.1	463.9	916.3	2534	6333	9562	644.0	19.31	5.809	3.644	4.189	3.137	2.251	2.457	2.214	1.859	1.982	1.839	1.578	1.317	1.281	1.257	1.048	0.995	1.161	1.245	1.165	1.133	0.840	0.851	0.765	0.842	0.910	1.020	1.068	1.283	1.180	1.344	1.328	0.997	0.914	0.922	0.801	0.727	0.728	0.786	0.723	0.923	1.040	1.175	1.542	1.731	2.537	4.115	4.867	3.008	2.056	2.227	3.413	4.629	10.90	7.914	9.248	19.31	43.70	50.36	27.09
300.0	496.3	494.2	416.7	269.1	176.2	166.9	190.8	228.5	308.6	557.1	1015	673.8	521.8	788.7	1826	7892	5839	86.74	10.75	5.269	5.161	3.554	2.485	2.517	2.316	1.930	2.081	1.855	1.653	1.329	1.279	1.295	1.138	1.149	1.283	1.269	1.252	1.153	0.997	1.002	0.925	0.923	1.090	1.096	1.197	1.354	1.343	1.457	1.504	1.256	1.023	1.017	0.947	0.948	0.822	0.924	0.958	1.102	1.228	1.244	1.425	1.680	2.046	2.668	4.446	5.387	4.413	2.888	2.687	2.837	3.964	3.107	3.235	5.537	14.46	29.42	55.30
305.0	518.5	585.7	476.3	326.8	228.0	225.2	263.8	312.1	397.5	544.0	933.5	1157	651.7	518.7	649.8	2507	7973	4364	69.04	8.105	6.725	4.090	3.057	2.646	2.612	2.014	2.092	1.981	1.625	1.560	1.314	1.392	1.327	1.286	1.215	1.431	1.338	1.259	1.002	1.071	1.040	0.954	1.047	1.284	1.266	1.468	1.589	1.622	1.472	1.367	1.340	1.240	1.063	1.114	1.170	1.085	1.279	1.515	1.611	1.686	1.877	1.852	2.306	2.659	3.325	4.805	6.216	5.756	4.305	3.192	3.057	2.633	2.426	2.795	4.494	8.036	19.98
310.0	580.6	644.1	544.5	388.0	293.6	291.9	336.2	395.4	485.4	616.3	814.4	1119	1110	672.6	479.6	772.9	2442	4689	4723	303.0	21.40	6.060	3.712	3.348	3.144	2.318	2.424	2.175	1.887	1.638	1.552	1.383	1.265	1.208	1.223	1.369	1.324	1.384	1.119	1.104	1.089	1.094	1.262	1.283	1.425	1.607	1.657	1.859	1.802	1.468	1.441	1.449	1.320	1.281	1.363	1.431	1.566	1.729	1.916	2.145	2.224	2.417	2.696	2.993	3.460	3.931	4.645	5.470	6.054	5.455	4.540	3.221	2.823	2.523	2.642	3.125	5.720
315.0	702.9	771.1	647.9	470.3	354.1	346.5	404.2	469.9	554.4	682.8	834.1	971.6	1123	1095	595.0	456.0	757.2	1212	3234	5625	493.3	21.97	5.371	4.113	3.067	2.508	2.698	2.446	2.112	1.705	1.586	1.382	1.339	1.253	1.383	1.311	1.402	1.326	1.149	1.030	1.172	1.223	1.209	1.433	1.562	1.866	2.178	2.194	2.174	1.774	1.650	1.652	1.596	1.501	1.382	1.534	1.687	2.036	2.128	2.294	2.498	2.786	3.065	3.478	3.801	4.050	4.287	4.780	4.938	5.487	6.323	5.811	4.299	3.070	2.731	2.558	2.918
320.0	924.0	1043	893.5	598.6	439.6	399.0	447.4	535.0	626.1	769.9	919.6	1034	1070	1195	918.4	493.0	452.4	437.1	910.1	4113	7068	397.4	10.56	5.273	3.849	3.058	3.369	2.444	2.064	1.909	1.615	1.451	1.409	1.240	1.331	1.259	1.307	1.360	1.247	1.134	1.292	1.278	1.581	1.670	1.944	2.478	2.664	3.053	2.616	2.241	1.926	2.133	1.764	1.781	1.869	1.710	2.023	2.498	2.446	2.373	2.716	3.084	3.279	3.643	4.102	4.354	4.689	4.955	4.982	4.950	5.673	6.629	6.515	5.270	3.596	2.966	3.013
325.0	1226	1597	1271	883.7	623.7	488.8	505.3	597.8	707.8	862.7	1039	1161	1161	1150	1171	713.5	445.3	313.3	325.7	1241	7103	3902	58.04	8.180	5.324	3.468	3.917	2.848	2.543	1.998	1.731	1.501	1.553	1.376	1.432	1.425	1.256	1.334	1.359	1.285	1.324	1.651	1.731	2.126	2.396	3.280	3.929	4.669	4.173	3.602	3.177	3.171	2.615	2.214	2.155	1.950	2.432	2.650	2.677	2.792	3.044	3.121	3.702	4.208	4.501	4.672	5.138	5.533	5.203	5.607	5.685	5.821	6.351	6.937	5.643	4.253	3.550
330.0	1691	2385	2400	1779	1051	698.4	632.5	711.1	830.5	1006	1196	1339	1338	1251	1175	1004	669.2	388.0	277.3	428.0	2108	4399	3608	1095	21.53	5.336	5.024	3.390	2.932	2.109	1.975	1.709	1.586	1.556	1.482	1.490	1.465	1.439	1.422	1.436	1.570	1.909	2.328	2.678	3.276	4.515	5.564	6.731	6.439	5.905	5.617	5.602	4.336	3.315	3.117	2.727	2.881	3.157	3.064	3.377	3.520	3.907	4.382	4.859	5.344	5.494	6.010	6.371	6.057	6.466	6.418	6.437	6.363	6.309	6.469	6.433	5.830
335.0	2069	2961	3105	2445	1542	960.3	769.4	819.5	931.9	1122	1324	1472	1478	1406	1236	1049	964.2	601.5	373.2	344.0	665.9	1164	2384	5382	425.1	20.57	7.147	4.822	3.479	2.509	2.344	1.854	1.851	1.504	1.622	1.592	1.698	1.646	1.658	1.681	1.824	2.100	2.444	3.059	4.282	5.457	6.771	8.222	8.172	7.865	7.316	7.159	6.200	4.807	4.215	3.529	3.666	3.587	3.686	3.808	3.899	4.605	4.871	5.374	5.932	6.101	6.531	6.658	6.945	7.015	7.214	7.193	7.114	6.464	6.421	6.157	6.128
340.0	2256	3211	3459	2774	1765	1091	863.0	886.8	1000	1184	1386	1530	1557	1474	1278	1063	967.9	808.3	477.7	372.4	384.7	450.7	758.8	3745	5325	341.9	16.43	5.593	4.035	2.765	2.703	2.243	1.854	1.707	1.543	1.778	1.673	1.646	1.638	1.745	1.901	2.120	2.642	3.332	4.652	5.980	7.305	8.855	9.352	8.487	8.292	8.379	6.887	5.729	4.619	3.778	3.858	3.833	3.849	3.751	4.209	4.824	5.353	5.632	5.966	6.470	6.872	6.983	7.123	7.448	7.693	7.409	7.302	7.117	6.564	6.149	6.218
345.0	2278	3216	3571	2929	1877	1169	929.7	915.2	1035	1218	1385	1529	1562	1492	1314	1086	914.6	855.5	636.6	423.2	357.4	326.9	352.8	1161	4897	3228	305.2	8.428	5.511	3.081	2.643	2.089	1.916	1.676	1.683	1.647	1.666	1.545	1.782	1.733	1.865	2.315	3.057	3.277	4.679	6.052	7.430	8.617	9.454	8.838	8.676	8.994	7.310	5.994	4.924	4.109	3.934	3.962	3.733	4.025	4.505	4.611	5.238	5.721	6.168	6.489	6.769	6.788	7.068	7.945	7.865	7.634	7.673	7.399	6.527	6.366	6.321
350.0	2181	3023	3373	2855	1925	1217	969.3	943.6	1034	1191	1344	1481	1507	1451	1298	1104	913.7	790.3	743.1	586.3	422.5	350.8	308.7	425.1	1454	3238	4722	1078	21.29	4.315	3.467	2.459	2.186	1.770	1.900	1.645	1.582	1.592	1.648	1.727	1.729	2.074	2.686	3.219	4.264	5.750	6.768	8.347	8.968	8.534	8.364	9.089	7.398	6.216	4.969	4.264	4.303	4.054	4.030	4.180	4.730	4.786	5.172	5.587	6.006	5.992	6.461	6.770	7.103	7.002	7.342	7.523	7.278	7.027	6.651	6.412	6.588
355.0	1974	2711	3053	2679	1885	1249	1008	995.5	1059	1165	1308	1412	1444	1398	1270	1107	943.5	798.6	721.3	735.0	575.4	422.7	352.2	305.8	465.8	829.6	3098	5384	1755	18.31	5.105	3.077	2.339	1.982	1.928	1.974	1.761	1.718	1.581	1.768	1.599	2.066	2.502	3.061	4.155	5.255	6.291	7.549	8.029	8.031	7.802	8.510	7.104	6.334	5.202	4.408	4.176	4.515	4.335	4.464	4.735	4.897	5.088	5.540	5.691	5.832	6.492	6.308	6.702	6.572	6.882	7.247	7.195	6.681	6.822	6.747	6.149
360.0	1805	2534	2884	2527	1828	1274	1038	1013	1071	1176	1292	1367	1390	1352	1249	1111	967.3	830.3	739.1	727.5	708.5	517.6	403.2	315.4	286.4	303.5	846.8	3713	6173	319.1	11.27	4.244	3.077	2.566	1.878	1.947	1.812	1.731	1.611	1.665	1.794	2.056	2.605	3.101	3.718	4.903	5.794	7.022	7.670	7.106	7.310	7.782	6.886	6.013	5.045	4.539	4.512	4.353	4.274	4.360	4.810	4.707	5.194	5.431	5.856	6.243	6.367	6.408	6.445	6.358	6.521	6.875	7.000	6.777	6.405	6.443	5.985
365.0	1711	2348	2627	2341	1751	1276	1081	1055	1094	1183	1276	1321	1348	1318	1231	1104	984.4	866.7	784.1	726.9	741.5	663.5	477.7	367.8	294.9	226.6	289.9	1106	5391	2879	49.00	6.807	3.937	2.724	2.065	2.342	1.841	1.816	1.642	1.604	1.760	2.051	2.430	2.877	3.632	4.380	5.263	6.435	7.010	6.732	6.737	7.632	6.806	5.830	5.249	4.473	4.565	4.362	4.452	4.685	4.810	4.849	5.050	5.306	5.595	5.864	6.210	5.922	6.299	6.514	6.693	6.726	6.765	6.588	6.409	6.586	6.497
370.0	1548	2082	2331	2164	1709	1304	1131	1099	1130	1202	1257	1280	1295	1267	1202	1105	1011	920.4	855.6	790.9	755.9	753.2	635.8	472.6	370.4	278.8	225.6	359.3	1560	2757	3429	759.9	17.43	4.520	3.111	2.607	1.979	1.753	1.688	1.689	1.731	1.961	2.277	2.795	3.095	3.907	4.920	5.832	6.431	6.095	6.029	6.994	6.373	5.933	5.325	4.762	4.540	4.825	4.936	4.815	5.057	5.256	5.448	5.640	5.813	5.814	5.908	5.799	6.103	6.215	6.228	6.478	6.583	6.803	6.548	6.535	6.657
375.0	1425	1837	2114	1998	1635	1327	1157	1146	1175	1222	1249	1256	1264	1231	1168	1093	1023	960.6	910.5	856.6	813.7	777.6	758.6	646.7	477.9	370.3	285.5	257.7	476.3	727.0	2400	3964	333.0	17.63	4.845	3.526	2.403	2.088	1.712	1.725	1.747	2.022	2.054	2.678	3.019	3.687	4.343	5.367	5.732	5.267	5.531	6.385	5.921	5.901	5.304	4.878	4.687	4.797	5.094	5.117	5.111	5.467	5.526	5.535	5.604	5.900	5.692	5.433	5.947	5.713	6.054	6.426	6.251	6.637	6.316	6.328	6.708
380.0	1353	1724	1975	1878	1583	1314	1195	1178	1192	1234	1247	1253	1245	1219	1173	1083	1023	984.3	939.8	903.8	856.5	814.5	780.6	761.1	598.7	456.0	361.3	291.8	286.0	291.3	706.0	3012	2804	268.4	10.31	4.899	2.914	2.532	1.913	1.771	1.750	1.985	2.284	2.419	3.062	3.753	3.932	4.684	5.306	5.072	5.286	6.378	5.708	5.464	5.502	5.107	4.853	4.871	5.130	5.279	5.391	5.315	5.589	5.497	5.667	5.879	5.630	5.849	5.802	5.879	6.141	6.136	6.335	6.461	6.260	6.358	6.546
385.0	1291	1658	1864	1826	1555	1338	1241	1224	1222	1265	1287	1285	1270	1234	1186	1090	1037	997.0	967.4	941.0	905.6	868.0	821.5	812.4	738.3	562.2	454.0	367.4	308.2	245.2	287.0	925.3	3747	2458	39.59	9.311	5.032	3.281	2.199	1.850	1.888	2.031	2.337	2.250	2.781	3.492	3.832	4.613	5.043	4.824	5.100	5.935	5.584	5.438	5.229	5.170	4.683	5.164	5.178	5.412	5.220	5.455	5.543	5.679	5.822	5.667	5.735	5.817	5.615	6.078	5.907	5.966	6.053	6.458	6.259	6.272	6.583
390.0	1265	1617	1806	1776	1605	1420	1327	1323	1340	1410	1443	1431	1425	1362	1285	1169	1085	1039	1023	1015	1003	981.5	950.8	915.1	890.0	795.6	644.7	532.6	427.9	356.2	296.4	368.7	1203	2565	2920	751.9	18.64	7.101	3.561	2.488	2.171	2.167	2.283	2.508	2.819	3.369	3.795	4.479	4.850	4.599	4.949	5.808	5.669	5.714	5.405	5.391	5.353	5.555	5.723	5.522	5.692	5.710	6.046	6.077	6.059	6.092	6.008	6.149	6.238	6.352	6.441	6.366	6.897	6.920	6.535	6.445	6.793
395.0	1215	1638	1762	1771	1683	1520	1493	1523	1600	1744	1839	1803	1826	1715	1567	1364	1209	1147	1132	1153	1164	1184	1186	1164	1124	1097	994.1	836.5	714.6	603.7	439.4	392.6	483.5	747.8	2274	3842	272.3	23.20	7.706	3.814	2.537	2.275	2.462	2.554	2.968	3.547	3.624	4.673	5.056	4.413	4.982	6.015	5.679	6.192	5.704	5.887	6.047	6.278	6.336	6.217	6.354	6.539	6.973	6.879	7.263	7.107	6.989	6.802	6.977	7.537	7.406	7.463	7.830	7.491	7.170	6.984	7.245
400.0	1302	1629	1805	1797	1761	1691	1682	1757	1927	2160	2368	2424	2369	2223	1960	1626	1383	1279	1257	1307	1353	1414	1446	1452	1430	1393	1350	1196	1031	896.4	727.2	577.1	436.5	415.5	788.9	2984	2200	226.7	15.42	5.677	3.288	2.564	2.878	2.685	2.979	3.490	3.921	4.785	4.762	4.834	4.985	6.301	6.116	6.353	6.319	6.313	6.646	6.843	7.326	7.037	7.033	7.243	7.761	8.118	8.159	8.261	8.378	8.409	8.618	8.659	8.330	8.619	8.673	8.516	8.097	8.014	7.855
405.0	1336	1655	1833	1874	1883	1837	1886	2035	2301	2665	3004	3120	3037	2808	2417	1956	1594	1429	1418	1484	1563	1660	1740	1778	1779	1735	1699	1593	1396	1226	1035	819.1	610.1	465.8	452.3	1056	2470	1978	37.59	9.207	4.361	3.454	2.998	3.031	3.213	3.664	4.064	4.899	5.133	4.959	5.277	6.080	6.518	6.801	6.779	6.777	7.236	7.438	7.784	7.371	7.757	8.162	8.855	8.985	9.627	9.653	9.553	9.945	10.16	10.27	9.985	9.883	9.838	9.906	9.078	8.959	8.435
410.0	1361	1648	1870	1926	1962	2015	2079	2304	2681	3183	3637	3800	3691	3398	2877	2268	1790	1576	1561	1649	1766	1897	2021	2102	2118	2089	2030	1938	1788	1576	1336	1083	808.0	602.5	474.9	507.8	876.5	1891	1600	150.6	12.93	4.097	3.581	3.366	3.590	3.882	3.982	5.106	5.262	4.912	5.281	6.723	6.976	7.326	7.421	7.381	7.892	8.419	8.358	8.601	8.866	9.514	10.13	10.44	11.05	10.85	11.30	11.50	11.68	11.87	11.62	11.01	11.31	10.83	10.28	9.924	9.367
415.0	1318	1615	1838	1946	2002	2049	2189	2417	2800	3340	3869	4003	3908	3578	3015	2359	1834	1602	1591	1692	1818	1971	2096	2196	2230	2203	2135	2027	1901	1723	1460	1175	884.8	661.5	501.5	399.7	374.9	532.4	1135	1826	239.9	10.74	4.522	3.572	3.623	3.835	4.190	4.753	5.279	4.911	5.185	6.603	6.822	7.278	7.685	7.780	8.330	8.622	8.939	9.075	9.098	9.752	10.58	10.83	11.28	11.70	11.38	12.04	12.26	12.30	11.96	11.33	11.32	11.23	10.96	9.949	9.354
420.0	1344	1607	1804	1892	1972	2101	2219	2417	2785	3279	3796	3973	3839	3532	2978	2318	1797	1567	1564	1659	1788	1933	2074	2167	2201	2177	2108	1993	1865	1728	1475	1170	884.9	662.2	499.2	368.7	258.7	211.1	340.9	1435	1815	175.6	6.952	4.162	3.673	3.959	4.214	4.892	4.982	5.045	5.280	6.558	6.881	7.218	7.515	7.849	8.414	8.676	8.779	9.161	9.090	9.882	10.35	10.51	11.13	11.61	11.16	11.97	11.60	11.94	12.06	11.56	11.10	11.02	10.31	9.484	9.314
425.0	1269	1586	1740	1895	1993	2111	2268	2485	2785	3266	3740	3934	3795	3492	2947	2292	1767	1541	1537	1627	1755	1894	2033	2132	2168	2139	2077	1977	1828	1695	1495	1183	895.3	671.3	503.7	368.5	240.0	142.9	122.6	445.5	1746	1235	33.05	4.992	4.086	4.144	4.332	4.706	5.067	4.775	5.008	6.386	6.516	7.396	7.708	7.320	8.496	8.767	8.701	9.597	9.286	10.06	9.967	10.74	10.86	11.30	11.17	11.19	11.48	11.25	12.04	11.37	11.42	11.14	10.26	9.077	9.174
430.0	1509	1526	1725	1871	2042	2232	2389	2606	2893	3324	3802	3976	3857	3538	2986	2315	1775	1553	1544	1619	1738	1877	2029	2133	2177	2160	2107	2010	1872	1717	1531	1258	953.8	714.5	544.5	400.5	260.1	144.5	83.55	130.3	508.7	1124	1593	138.8	11.26	4.590	4.571	4.852	4.996	4.818	5.145	6.572	6.706	7.583	8.068	7.983	9.143	9.201	9.612	9.711	9.616	10.34	10.28	10.83	10.98	11.27	11.33	11.35	11.70	11.37	11.68	11.50	11.03	10.69	10.03	9.345	8.997
435.0	2496	1575	1746	1902	2122	2356	2540	2747	2995	3373	3806	3976	3881	3540	2994	2320	1773	1556	1536	1601	1708	1845	1989	2110	2159	2139	2105	2021	1891	1735	1539	1296	1019	763.7	581.4	432.3	287.6	161.9	88.02	68.14	138.2	277.4	1110	1644	219.7	11.49	5.280	5.345	5.173	4.717	5.315	6.560	6.901	7.735	8.303	8.386	10.25	9.851	10.38	10.88	9.948	10.17	10.48	10.65	10.94	11.17	11.43	12.02	11.69	11.78	11.59	11.47	11.23	10.55	10.44	9.740	8.755
440.0	3263	1805	1749	1922	2135	2432	2643	2806	2996	3285	3679	3858	3735	3412	2896	2248	1750	1528	1501	1555	1650	1768	1906	2026	2076	2061	2024	1943	1836	1691	1496	1261	1015	772.4	585.6	439.4	294.0	170.4	96.83	60.90	59.89	81.04	306.9	1245	1426	177.4	7.758	5.685	5.383	4.786	5.473	6.639	6.941	7.791	8.521	9.159	10.06	9.985	10.67	10.55	10.09	10.79	10.32	10.18	10.68	10.86	10.96	11.05	11.68	11.44	11.13	11.35	10.97	10.62	9.886	9.110	8.708
445.0	3116	2596	1668	1896	2149	2432	2656	2783	2912	3118	3439	3620	3501	3203	2704	2131	1664	1454	1428	1477	1541	1653	1781	1881	1939	1921	1895	1818	1719	1580	1408	1181	952.9	755.8	573.4	426.8	290.6	172.5	101.4	63.42	46.42	41.49	85.23	372.4	1350	1344	28.38	6.221	5.528	4.939	5.440	6.632	6.761	8.062	8.349	8.941	10.13	10.34	10.62	10.48	9.959	9.967	9.983	10.21	10.15	10.26	10.12	10.40	10.73	10.70	10.49	10.39	10.11	10.06	9.336	8.504	8.740
450.0	2187	3652	2018	1804	2079	2375	2602	2705	2699	2818	3066	3205	3092	2840	2408	1910	1515	1330	1308	1337	1376	1466	1578	1657	1702	1698	1666	1606	1524	1407	1254	1056	849.5	683.1	542.9	401.5	275.7	170.9	106.5	69.77	49.84	36.26	38.45	97.97	390.3	1210	1698	420.7	11.23	5.283	5.401	6.376	7.074	7.892	8.326	8.765	10.34	10.39	10.52	10.23	10.02	9.637	9.337	9.220	9.148	9.205	8.989	9.630	9.778	9.708	9.406	9.090	9.103	9.088	8.718	7.927	8.105
455.0	1389	3247	3351	1732	1989	2303	2517	2568	2503	2514	2684	2776	2685	2490	2119	1692	1361	1199	1181	1192	1211	1276	1365	1431	1472	1470	1448	1402	1328	1239	1106	937.4	755.1	606.3	495.3	387.7	265.8	167.8	109.5	76.48	55.20	40.02	32.09	39.80	100.3	291.8	1076	1806	193.2	11.65	5.423	6.411	6.744	7.668	8.020	8.590	9.834	9.880	9.988	10.01	9.570	8.959	8.580	8.503	8.043	8.022	8.524	8.419	8.577	8.725	8.328	8.345	8.285	8.029	7.635	7.265	7.050
460.0	1098	2439	4236	1992	1904	2209	2425	2444	2323	2309	2429	2507	2449	2238	1916	1542	1239	1104	1089	1089	1101	1143	1224	1289	1321	1323	1307	1265	1206	1128	1010	859.6	695.4	557.6	458.8	370.1	264.0	170.4	112.2	79.63	58.64	43.28	32.68	28.78	37.73	77.21	286.0	1235	1331	146.2	10.59	6.576	6.575	7.428	7.982	8.276	9.309	9.666	9.676	9.706	9.100	8.241	8.008	7.903	7.640	7.437	7.858	7.305	7.722	7.688	7.400	7.772	7.558	7.584	6.936	6.883	6.325
465.0	985.4	1688	4135	2879	1796	2082	2290	2317	2174	2131	2213	2295	2216	2036	1749	1406	1144	1014	991.2	995.5	993.2	1031	1101	1163	1194	1198	1181	1142	1100	1032	926.9	791.8	647.3	521.5	426.7	344.5	263.4	171.2	114.3	81.27	61.27	46.35	35.67	28.17	25.29	30.70	75.63	350.5	1161	944.7	140.2	7.507	6.698	7.278	7.497	7.931	8.745	9.583	9.671	8.982	8.925	7.740	7.335	7.066	7.157	7.312	6.913	6.877	7.340	6.987	6.954	7.020	7.106	7.012	6.307	6.552	6.055
470.0	876.8	1170	2681	4080	2066	1875	2074	2081	1929	1861	1919	1970	1908	1750	1508	1224	1005	893.6	869.9	862.4	856.5	881.0	937.9	992.0	1015	1020	1011	980.1	941.9	888.4	806.2	693.5	568.8	461.6	377.3	303.5	237.2	171.5	115.0	82.32	62.34	48.53	38.37	30.19	24.38	22.27	30.20	88.88	320.8	704.0	1383	319.2	13.09	7.199	6.990	7.301	8.222	8.558	8.505	8.127	7.688	7.126	6.584	6.420	6.339	6.188	6.207	6.325	6.498	6.322	6.239	6.274	6.255	6.045	5.782	5.762	5.381
475.0	781.9	961.8	1487	3548	3335	1704	1837	1826	1664	1583	1604	1656	1591	1466	1259	1032	850.9	765.6	740.1	729.3	714.6	731.3	776.2	815.9	837.9	838.7	836.2	807.3	781.4	740.4	677.2	585.9	485.7	396.6	326.5	261.4	203.9	158.6	118.5	82.71	62.91	49.96	39.60	32.10	26.79	22.36	21.07	31.60	81.25	166.9	678.4	1006	198.6	16.59	6.603	6.795	7.513	8.019	7.549	6.860	6.845	6.490	5.695	5.387	5.341	5.257	5.349	5.509	5.509	5.349	5.599	5.066	5.171	5.165	5.142	4.796	4.716
480.0	711.6	852.5	1047	2464	4427	1817	1665	1633	1501	1409	1407	1443	1368	1265	1095	903.1	752.5	671.4	650.9	642.3	623.4	634.2	666.9	705.8	719.6	725.6	715.3	699.7	676.8	640.7	591.2	509.0	426.5	350.5	290.3	235.5	182.5	141.1	115.6	86.69	63.75	50.33	40.63	33.40	27.42	23.29	19.93	19.91	28.59	45.37	169.4	558.9	927.5	195.1	10.96	6.800	6.794	7.005	7.292	6.525	6.090	5.632	5.284	4.782	4.584	4.699	4.779	4.968	4.578	4.760	4.708	4.415	4.665	4.444	4.692	4.232	4.260
485.0	678.1	836.1	889.4	1557	4543	2580	1512	1495	1343	1244	1248	1262	1211	1121	965.8	807.3	677.4	604.4	589.1	573.2	549.1	556.6	585.8	615.2	630.3	631.8	630.4	614.1	594.9	564.6	523.0	452.9	381.7	316.0	263.1	213.7	168.4	127.6	107.6	89.34	66.35	49.97	41.12	33.48	28.71	24.21	20.53	18.12	17.02	19.06	45.06	151.9	676.7	1115	144.3	8.498	6.979	6.450	6.942	5.919	5.706	5.377	4.869	4.463	4.144	4.193	4.178	4.163	4.142	4.214	4.308	4.129	4.133	4.249	4.279	3.967	3.927
490.0	578.8	765.8	789.0	1028	2941	3888	1619	1306	1168	1078	1072	1071	1035	948.2	823.8	691.0	583.5	525.6	506.1	493.5	471.5	473.1	496.6	524.1	533.1	537.3	533.3	523.9	508.5	485.2	445.6	390.2	331.9	277.9	233.0	191.3	151.2	117.9	95.00	83.18	71.00	53.22	42.64	35.15	29.43	25.60	22.25	18.44	15.90	14.18	18.48	41.36	177.9	669.8	845.8	410.7	15.63	6.347	6.043	5.711	5.112	4.728	4.228	4.051	3.634	3.745	3.844	3.839	3.675	3.636	3.773	3.905	3.697	3.776	3.488	3.489	3.530
495.0	488.4	678.0	702.5	804.0	1457	3598	2617	1142	996.9	914.5	907.2	918.9	873.6	796.9	691.5	581.3	491.3	447.7	430.7	417.5	399.0	395.7	417.1	436.6	449.0	450.8	446.7	437.5	428.8	408.3	376.7	331.0	285.3	239.5	203.6	169.1	134.3	108.0	85.44	72.64	67.57	57.64	44.05	35.98	30.50	26.04	23.16	19.99	16.48	13.47	13.15	17.00	46.33	157.0	370.7	1073	233.5	19.05	5.635	5.059	4.598	4.336	3.988	3.420	3.556	3.123	3.384	3.425	3.157	3.130	3.298	3.431	3.325	3.208	3.045	2.993	3.013
500.0	454.7	581.0	678.6	694.2	921.0	2385	3576	1170	873.0	795.4	791.1	803.8	764.0	693.2	599.6	507.0	431.6	395.4	376.5	363.4	346.1	345.1	362.2	378.9	387.3	387.5	386.5	380.9	370.3	358.6	332.7	293.4	252.9	212.5	182.4	151.5	122.9	98.69	79.61	67.47	61.15	57.44	46.85	36.72	30.80	26.72	23.13	20.66	17.09	14.29	12.50	12.12	17.55	41.55	92.69	509.5	848.8	220.4	12.65	4.803	4.216	3.828	3.431	3.186	3.114	2.880	3.077	3.019	2.839	2.851	2.919	2.822	2.837	2.863	2.666	2.724	2.722
505.0	400.9	480.5	626.1	626.6	727.7	1393	3679	1678	777.7	703.9	696.7	700.6	659.7	602.5	527.3	443.0	380.9	341.6	329.7	315.8	305.0	302.6	316.0	329.0	334.8	336.6	335.9	330.7	321.0	310.3	290.2	257.7	221.4	189.7	162.1	137.0	111.1	89.60	73.94	62.22	54.67	52.95	47.54	37.96	30.36	25.96	23.65	20.69	17.22	15.17	12.71	11.25	11.33	15.74	26.60	128.8	493.6	987.8	172.0	7.014	4.024	3.300	3.185	2.650	2.693	2.632	2.655	2.664	2.554	2.467	2.776	2.393	2.610	2.485	2.322	2.440	2.521
510.0	322.8	398.7	524.9	585.5	611.3	828.8	2268	2799	843.0	598.7	588.1	577.3	553.0	500.6	438.9	368.7	316.4	285.9	276.2	265.0	252.0	249.6	257.9	270.0	273.9	276.4	277.5	271.5	266.4	256.1	240.5	213.6	185.5	159.9	137.6	117.1	96.73	78.88	66.28	57.20	48.95	45.15	43.79	39.57	30.97	25.80	23.00	20.25	17.46	15.16	13.05	11.32	9.823	10.35	11.63	34.30	124.7	484.1	701.1	302.8	15.31	3.350	2.843	2.698	2.448	2.397	2.305	2.391	2.302	2.105	2.385	2.180	2.230	2.096	1.900	2.033	2.289
515.0	275.5	331.6	399.1	521.1	518.6	605.6	1058	2804	1611	510.5	478.8	469.2	451.9	406.0	354.7	300.9	258.6	235.6	227.6	216.0	203.7	201.5	207.6	215.5	219.5	221.6	220.6	217.5	215.1	205.8	196.7	175.7	152.2	132.3	114.6	99.65	81.26	68.79	57.78	50.92	44.32	39.14	36.22	36.85	33.25	26.68	22.00	19.48	16.66	14.55	12.76	11.40	9.921	9.035	8.070	12.78	32.63	112.6	241.3	631.0	563.4	19.54	2.762	2.448	2.185	2.176	2.033	1.966	1.933	1.857	1.901	1.862	1.897	1.691	1.764	1.752	1.881
520.0	236.2	293.1	332.7	445.1	488.6	504.5	632.1	1811	2534	668.2	413.3	402.5	383.9	349.4	302.7	258.4	219.2	202.6	193.3	184.0	171.7	170.4	176.8	182.6	186.3	187.0	185.5	182.7	179.9	175.3	166.8	149.6	131.3	113.1	100.2	86.79	72.89	60.63	52.58	45.29	40.97	35.75	32.31	31.98	32.94	27.02	21.59	18.44	16.49	14.29	12.16	11.49	9.761	8.323	7.415	7.977	11.86	29.22	58.96	257.7	896.0	226.0	12.28	2.294	2.197	1.912	1.882	1.817	1.720	1.709	1.737	1.543	1.560	1.503	1.536	1.637	1.574
525.0	210.0	266.5	288.1	371.5	469.3	436.1	482.3	945.5	2887	1645	359.0	357.5	326.6	298.2	262.3	225.0	191.0	176.9	168.5	157.0	149.1	149.5	153.6	156.5	160.7	160.7	161.1	156.3	155.9	150.2	144.1	129.1	115.6	99.72	87.64	75.81	65.40	55.76	47.13	41.83	36.89	32.77	29.39	27.83	29.39	28.40	22.33	18.49	15.67	13.72	11.90	11.07	9.744	8.469	7.059	6.792	7.208	10.67	16.87	63.32	439.9	722.8	178.5	5.605	2.001	1.691	1.698	1.722	1.601	1.679	1.518	1.524	1.463	1.508	1.373	1.480	1.447
530.0	185.8	226.7	244.0	284.5	395.0	399.4	389.8	498.2	1770	4378	461.9	296.7	273.6	245.9	215.8	184.1	160.8	146.4	138.4	131.1	123.0	122.4	126.6	128.9	130.0	132.4	131.0	128.7	127.6	124.7	118.1	106.9	95.83	83.33	73.49	64.26	55.90	48.00	41.38	36.44	33.00	29.33	26.93	24.72	24.02	25.11	23.03	18.41	14.58	12.43	11.21	9.879	9.198	8.422	7.230	6.449	5.824	6.297	7.096	17.07	105.9	316.5	523.8	229.4	15.44	1.777	1.679	1.451	1.491	1.449	1.328	1.225	1.365	1.274	1.176	1.404	1.327
535.0	145.0	185.7	198.6	229.6	302.5	373.3	321.1	335.6	677.9	4910	1234	247.0	227.6	199.5	174.8	147.9	130.6	118.3	112.7	106.9	99.01	98.44	101.4	104.7	104.6	106.4	105.9	103.0	104.7	100.2	95.29	87.05	78.62	68.77	60.79	53.37	46.59	40.93	35.96	32.07	28.93	25.65	23.61	21.89	20.44	20.19	21.16	19.03	14.00	11.54	10.20	9.073	8.612	7.480	6.807	6.086	5.002	4.787	4.724	6.498	25.95	72.85	159.9	436.3	572.3	19.52	1.524	1.417	1.363	1.231	1.326	1.113	1.143	1.094	1.012	1.191	1.049
540.0	139.8	163.5	179.2	191.1	230.9	329.5	294.2	268.7	333.1	3178	2010	281.1	190.9	172.5	149.5	128.5	112.6	100.1	94.53	88.95	83.79	83.65	84.06	85.00	87.87	89.45	88.88	87.61	87.44	85.21	80.75	72.97	66.96	58.19	51.93	46.39	40.57	35.48	31.75	28.49	25.18	23.03	20.97	19.59	18.29	17.29	17.42	18.13	14.26	11.19	9.641	8.244	7.731	6.759	6.206	5.892	5.095	4.238	4.048	3.935	8.032	18.12	38.01	166.8	865.3	218.0	11.63	1.470	1.274	1.090	1.158	0.952	0.940	0.975	0.887	1.000	0.998
545.0	106.9	143.8	151.5	162.7	190.0	274.5	285.8	229.1	227.7	1478	2499	587.0	161.8	148.9	126.9	109.5	95.44	85.53	80.98	77.58	72.42	71.13	72.74	73.16	75.49	75.15	74.65	73.78	75.14	72.04	68.84	61.76	56.91	50.71	45.33	39.72	35.52	30.89	28.16	25.47	22.58	20.74	18.95	18.30	15.97	15.22	15.03	16.00	14.75	11.22	8.591	7.573	6.862	6.120	5.759	5.536	5.020	4.121	3.565	3.355	3.821	5.904	10.25	39.99	404.7	502.1	154.1	5.299	1.298	1.084	1.086	0.929	0.993	0.923	0.963	0.832	0.890
550.0	99.83	118.7	128.4	138.1	150.5	198.4	263.4	195.0	173.9	489.1	1444	1525	175.4	117.2	102.5	87.46	75.86	70.21	67.39	61.58	60.22	56.66	58.19	59.56	60.24	59.76	60.63	58.06	59.39	57.91	54.87	51.22	45.57	41.21	36.88	32.91	29.05	25.53	23.32	21.09	19.16	17.70	16.24	15.17	13.77	13.12	12.67	11.95	12.96	11.12	8.571	6.911	6.120	5.430	4.862	4.538	4.606	4.239	3.351	2.804	2.689	2.983	3.823	10.38	95.85	206.5	324.4	143.2	14.86	1.601	0.989	0.756	0.868	0.858	0.821	0.743	0.845
555.0	86.18	106.2	106.5	112.6	120.8	140.1	209.6	190.9	137.5	202.7	466.6	1721	559.3	95.95	78.58	66.69	59.50	54.90	53.17	48.51	46.29	45.27	45.34	46.84	47.00	47.00	46.96	45.74	46.43	44.43	42.61	40.14	36.71	32.12	29.13	26.12	23.29	20.79	18.74	17.37	16.02	14.33	13.07	13.03	11.72	11.40	10.15	9.216	9.680	9.970	8.277	6.395	5.312	4.638	4.340	4.073	3.852	3.886	3.515	2.515	2.408	2.015	2.233	3.633	22.63	47.24	95.74	351.0	244.8	25.84	1.127	0.811	0.812	0.739	0.693	0.667	0.664
560.0	85.62	98.51	92.35	95.15	101.8	111.6	157.5	189.8	116.7	127.1	187.2	1040	1149	118.5	67.32	55.75	48.88	45.28	43.81	41.44	38.60	36.66	36.42	38.51	37.71	37.87	39.53	37.19	37.10	36.27	35.01	32.38	29.96	26.32	24.63	21.67	19.32	17.35	15.55	14.43	13.29	12.35	11.48	10.61	10.05	9.522	8.306	7.870	7.751	8.205	7.779	6.214	4.787	4.193	3.744	3.457	3.074	3.127	3.058	2.450	2.044	1.778	1.734	1.929	6.109	11.61	22.48	134.8	405.3	217.7	11.69	0.811	0.741	0.651	0.531	0.629	0.658
565.0	78.13	82.87	82.67	81.82	82.81	92.24	116.0	182.6	115.7	99.24	112.0	417.8	1456	334.7	56.18	48.16	41.63	37.77	36.46	34.09	31.31	30.49	30.27	31.29	30.79	31.50	31.81	31.06	30.62	29.96	28.03	26.76	24.31	21.94	19.67	18.24	16.39	14.48	13.34	12.38	11.56	10.37	10.02	9.498	8.673	8.414	7.250	6.738	6.441	6.332	6.730	6.128	4.619	3.453	3.390	3.080	2.777	2.411	2.803	2.537	1.866	1.638	1.549	1.525	2.488	3.465	5.987	32.04	172.3	327.7	154.1	3.802	0.744	0.549	0.597	0.552	0.612
570.0	74.30	73.31	74.12	67.59	68.89	75.10	84.17	131.3	133.2	82.89	81.72	155.7	856.0	1198	82.01	37.91	33.62	29.63	28.30	27.12	24.82	24.19	23.67	24.98	24.81	24.00	25.08	24.25	24.17	23.70	23.24	21.21	19.17	17.27	15.80	14.42	13.12	11.84	10.89	9.869	9.326	8.533	8.235	7.549	7.105	6.628	6.136	5.618	5.283	4.944	5.009	5.338	4.531	3.446	2.864	2.649	2.527	2.181	2.245	2.099	2.159	1.661	1.432	1.328	1.536	1.642	2.224	8.051	40.65	122.7	325.3	116.1	10.86	0.741	0.587	0.511	0.576
575.0	71.93	72.15	70.36	55.54	56.97	60.58	65.43	82.61	137.7	85.88	67.70	82.58	267.5	1503	474.0	31.73	25.65	23.61	22.07	20.97	19.09	19.05	18.68	19.21	19.76	18.92	19.04	18.62	18.85	18.66	17.71	16.53	15.56	13.88	12.34	11.11	10.16	9.471	8.722	7.989	7.483	7.228	6.720	6.013	5.635	5.466	4.883	4.776	4.099	3.842	3.687	3.895	4.169	3.445	2.588	2.321	2.084	1.957	1.782	1.725	1.701	1.891	1.354	1.258	1.247	1.167	1.305	2.612	9.925	28.10	95.61	172.9	121.0	14.10	0.659	0.487	0.494
580.0	70.45	70.62	58.25	52.21	53.57	50.69	52.52	60.93	118.2	101.1	62.70	61.81	101.0	931.0	1023	44.68	21.18	19.60	18.21	17.02	16.00	15.83	15.51	16.07	16.25	15.37	15.39	14.86	15.37	15.38	14.88	13.34	12.31	11.30	10.72	9.333	8.418	7.868	7.544	6.709	6.313	5.687	5.548	5.270	4.811	4.749	4.222	4.038	3.623	3.279	3.033	3.099	3.515	3.454	2.783	2.074	1.844	1.880	1.704	1.466	1.400	1.607	1.644	1.207	1.070	1.110	1.022	1.417	2.967	7.037	22.19	61.47	154.1	128.4	6.384	0.566	0.452
585.0	70.81	68.90	58.33	49.67	44.69	44.88	48.50	51.49	84.30	116.9	64.45	56.25	58.55	361.7	1465	105.1	19.31	17.86	16.00	14.99	13.37	13.53	13.14	12.80	13.27	13.04	13.43	12.59	13.45	12.80	12.51	11.11	10.52	9.762	8.860	8.127	7.362	6.879	6.332	5.939	5.106	5.001	4.765	4.457	4.338	4.167	3.932	3.444	3.292	2.721	2.757	2.517	2.852	3.008	2.808	2.017	1.735	1.557	1.374	1.301	1.211	1.249	1.675	1.175	1.082	1.104	0.882	1.006	1.408	2.297	5.710	14.68	64.65	230.3	34.51	2.704	0.562
590.0	63.60	66.33	57.11	45.78	40.87	37.83	42.82	43.39	57.22	109.8	77.12	52.43	45.99	114.7	850.4	614.7	30.45	14.32	12.85	11.86	10.89	10.95	10.74	10.96	10.54	10.66	10.37	10.21	10.30	10.08	10.09	9.064	8.346	7.835	7.029	6.663	5.830	5.414	5.077	4.638	4.327	4.032	3.890	3.702	3.531	3.371	3.204	2.958	2.751	2.423	2.281	2.024	2.051	2.371	2.462	2.109	1.657	1.336	1.225	1.142	1.077	1.137	1.258	1.330	1.262	1.063	0.797	0.891	0.909	1.163	1.916	3.802	15.37	90.25	133.9	87.28	13.02
595.0	60.69	64.83	58.16	39.27	33.42	34.04	37.53	37.56	43.63	74.86	95.55	50.80	41.45	50.52	238.7	832.5	97.03	12.12	10.14	9.254	9.153	8.773	8.451	8.663	8.746	8.197	8.352	7.928	8.161	7.929	8.034	6.892	6.443	6.096	5.504	5.547	4.949	4.449	4.064	3.723	3.611	3.429	3.268	2.966	2.900	2.837	2.551	2.267	2.168	1.884	1.821	1.554	1.552	1.613	1.915	1.903	1.702	1.292	1.002	0.952	0.968	1.006	0.904	0.968	1.322	1.109	0.746	0.789	0.864	0.774	1.074	1.316	3.910	20.58	37.67	119.5	155.1
600.0	59.10	57.67	49.42	33.99	32.11	30.61	35.38	33.99	38.38	58.70	100.1	58.09	42.26	34.84	73.13	536.8	444.1	16.16	8.479	8.630	7.967	7.248	6.709	7.356	7.262	6.994	7.182	7.373	7.083	6.238	6.771	5.657	5.273	5.397	4.461	4.522	4.194	3.637	3.368	3.456	3.014	3.078	2.911	2.767	2.546	2.350	2.350	2.052	1.944	1.606	1.535	1.395	1.367	1.337	1.534	1.783	1.616	1.275	0.985	1.021	0.942	0.990	0.792	0.787	1.111	1.159	0.853	0.826	0.779	0.627	0.822	0.761	1.243	5.019	8.852	41.47	188.3
605.0	53.51	56.03	46.78	37.54	29.28	27.30	35.31	36.36	36.89	47.44	89.59	73.90	42.52	32.41	34.71	207.2	656.9	61.94	7.307	7.177	6.569	6.416	5.757	6.177	6.130	6.191	6.106	5.849	6.070	5.290	6.039	4.988	4.668	4.362	3.848	3.859	3.548	3.138	2.825	2.872	2.622	2.581	2.393	2.318	2.248	2.089	1.919	1.899	1.640	1.374	1.396	1.191	1.220	1.110	1.140	1.461	1.617	1.287	0.970	0.850	0.815	0.778	0.754	0.911	0.896	1.071	1.019	0.856	0.672	0.662	0.651	0.676	0.735	1.498	2.367	9.890	74.91
610.0	55.84	50.17	45.99	37.26	28.08	27.30	32.78	34.06	39.21	47.93	69.83	92.19	48.93	35.75	28.40	64.61	436.4	387.7	13.13	6.296	5.447	5.075	4.899	5.089	4.881	4.826	4.719	4.611	4.925	4.559	4.549	4.229	3.750	3.598	3.251	3.041	2.799	2.635	2.354	2.257	2.233	2.041	2.027	1.851	1.864	1.704	1.595	1.627	1.350	1.154	1.146	1.041	1.119	0.980	0.980	1.069	1.304	1.263	1.064	0.869	0.799	0.750	0.702	0.875	0.764	0.901	0.972	0.873	0.744	0.650	0.624	0.568	0.535	0.805	0.980	2.662	17.52
615.0	61.45	52.86	46.63	35.38	26.00	25.67	30.58	33.20	37.02	46.53	54.70	90.38	62.01	37.69	27.27	28.85	132.5	589.7	67.58	5.308	4.476	4.420	4.471	4.137	3.970	4.010	3.851	3.674	3.968	3.855	3.565	3.447	2.895	2.864	2.818	2.439	2.348	1.968	1.967	1.901	1.876	1.807	1.796	1.604	1.598	1.387	1.250	1.245	1.124	0.882	0.964	0.918	0.891	0.805	0.794	0.800	0.988	1.186	1.118	0.877	0.745	0.739	0.680	0.732	0.870	0.614	0.686	0.810	0.874	0.672	0.625	0.511	0.504	0.578	0.661	0.901	4.143
620.0	51.25	51.15	40.91	35.59	24.90	26.46	27.81	33.22	36.34	43.61	49.06	73.27	74.07	38.77	27.16	20.48	42.95	413.4	268.2	7.112	3.910	3.925	3.710	3.474	3.637	3.501	3.494	3.029	3.312	2.923	2.972	3.112	2.471	2.340	2.340	2.190	1.904	1.620	1.774	1.495	1.471	1.618	1.437	1.323	1.287	1.199	1.139	1.054	0.862	0.794	0.881	0.853	0.750	0.772	0.745	0.708	0.797	1.024	1.008	0.870	0.704	0.576	0.507	0.545	0.659	0.657	0.594	0.676	0.921	0.821	0.622	0.537	0.467	0.482	0.557	0.491	1.290
625.0	48.74	49.67	40.44	30.89	24.35	26.69	25.94	30.75	34.42	41.36	47.15	59.32	78.67	40.13	27.44	18.84	20.40	173.1	446.1	29.98	3.699	3.486	3.044	2.702	3.337	3.098	2.706	2.720	2.645	2.809	2.541	2.581	2.220	1.946	2.003	1.927	1.757	1.479	1.444	1.314	1.344	1.286	1.225	1.051	1.166	1.058	1.079	0.978	0.780	0.753	0.719	0.758	0.680	0.739	0.727	0.612	0.626	0.778	0.841	0.839	0.811	0.545	0.575	0.535	0.635	0.546	0.632	0.665	0.767	0.790	0.639	0.458	0.614	0.397	0.533	0.446	0.582
630.0	45.83	44.14	39.78	31.03	24.42	24.32	26.22	29.33	33.21	38.83	44.26	50.45	68.89	52.16	27.20	19.06	16.02	50.47	338.3	199.4	5.990	2.879	2.739	2.761	2.664	2.500	2.340	2.346	2.341	2.388	2.136	2.066	1.825	1.689	1.548	1.658	1.324	1.297	1.116	1.206	1.167	1.080	1.065	0.947	0.939	0.907	0.885	0.841	0.728	0.644	0.629	0.640	0.555	0.599	0.622	0.568	0.558	0.622	0.700	0.701	0.792	0.647	0.560	0.553	0.579	0.501	0.569	0.572	0.573	0.748	0.773	0.523	0.523	0.495	0.450	0.453	0.562
635.0	51.82	47.92	40.40	31.48	25.58	22.00	25.10	26.29	31.52	37.00	45.00	48.30	57.66	59.35	31.08	19.12	15.46	18.54	105.7	416.3	47.08	2.711	2.302	2.527	2.238	2.052	2.058	2.041	1.945	1.729	1.804	1.730	1.752	1.451	1.269	1.225	1.150	1.085	0.985	0.869	1.118	0.911	0.975	0.860	0.752	0.786	0.728	0.807	0.664	0.578	0.559	0.536	0.561	0.549	0.580	0.488	0.501	0.516	0.593	0.615	0.676	0.606	0.517	0.534	0.636	0.564	0.473	0.501	0.539	0.559	0.728	0.599	0.491	0.426	0.452	0.425	0.405
640.0	51.16	48.60	43.80	32.02	24.27	23.26	25.71	28.22	29.46	39.27	43.57	45.24	48.71	62.03	36.93	20.12	16.28	12.38	30.58	340.9	190.5	3.351	2.104	2.043	2.047	1.743	1.837	1.948	1.677	1.727	1.654	1.491	1.533	1.312	1.083	1.061	1.162	0.984	0.787	0.743	0.900	0.975	0.885	0.744	0.607	0.740	0.694	0.699	0.621	0.497	0.433	0.492	0.516	0.483	0.509	0.494	0.470	0.476	0.510	0.439	0.643	0.643	0.551	0.474	0.541	0.548	0.510	0.555	0.489	0.579	0.614	0.604	0.533	0.474	0.398	0.423	0.430
645.0	61.60	56.11	43.77	35.72	22.93	23.39	24.54	27.01	28.61	38.59	42.87	46.54	45.34	58.39	44.58	23.10	17.14	11.53	12.32	155.9	349.5	14.19	2.231	2.004	2.013	1.670	1.791	1.632	1.673	1.396	1.457	1.309	1.218	1.055	1.042	0.919	0.912	0.795	0.820	0.750	0.748	0.707	0.850	0.664	0.633	0.675	0.680	0.655	0.539	0.389	0.462	0.414	0.539	0.431	0.455	0.376	0.489	0.414	0.468	0.429	0.562	0.709	0.559	0.516	0.565	0.638	0.482	0.546	0.526	0.520	0.572	0.639	0.664	0.553	0.386	0.416	0.408
650.0	71.35	64.07	55.24	38.45	24.28	22.19	24.49	26.37	30.07	36.88	42.33	45.18	45.82	48.63	50.89	25.60	17.02	11.53	8.361	47.40	363.1	59.05	2.159	1.814	1.956	1.824	1.552	1.488	1.404	1.405	1.312	1.312	1.127	1.010	0.923	0.860	0.764	0.766	0.757	0.670	0.663	0.690	0.748	0.587	0.576	0.613	0.611	0.596	0.534	0.401	0.434	0.398	0.421	0.438	0.436	0.354	0.389	0.401	0.388	0.460	0.521	0.554	0.548	0.505	0.478	0.563	0.466	0.528	0.489	0.536	0.512	0.516	0.605	0.549	0.490	0.454	0.432
