Sample:	'1
File name:	t2025040810袁家屋子东南闸.FD3
Run date:	'10:40:22, 04/09/2025
Operator:	Administrator
Comment:	'

Instrument
Model:	F-2700 FL Spectrophotometer
Serial number:	23B8-004
ROM Version:	4J14000 07

Instrument parameters
Measurement type:	3-D scan
Data mode:	Fluorescence
EX  Start WL:	220.0 nm
EX  End WL:	600.0 nm
EX Sampling interval:	5.0 nm
EM  Start WL:	230.0 nm
EM  End WL:	650.0 nm
EM Sampling interval:	5.0 nm
Scan speed:	12000 nm/min
EX Slit:	5.0 nm
EM Slit:	5.0 nm
PMT Voltage:	700 V
Response:	Auto 
Corrected spectra:	Off
Contour interval:	50.000

Peak integration
Integration method:	Rectangular
Sensitivity:	1
Threshold:	1.000

Peaks
No.	ApexEX/EM(nm)	Height(Data)
1	225.0/565.0	62.94
2	225.0/595.0	56.11
3	225.0/615.0	56.07
4	225.0/635.0	49.42
5	230.0/345.0	1407
6	230.0/605.0	51.35
7	230.0/620.0	54.03
8	230.0/640.0	48.25
9	240.0/525.0	258.8
10	245.0/535.0	207.9
11	250.0/545.0	165.1
12	255.0/280.0	513.5
13	255.0/560.0	140.7
14	260.0/290.0	517.7
15	260.0/575.0	114.4
16	265.0/295.0	705.8
17	265.0/585.0	101.0
18	270.0/300.0	985.1
19	270.0/405.0	730.0
20	270.0/600.0	98.00
21	275.0/310.0	1143
22	275.0/335.0	1215
23	275.0/610.0	88.53
24	280.0/315.0	1198
25	280.0/625.0	76.92
26	285.0/320.0	1219
27	285.0/635.0	59.71
28	315.0/355.0	422.4
29	320.0/365.0	418.5
30	325.0/370.0	399.0
31	330.0/375.0	402.3
32	335.0/380.0	396.0
33	460.0/345.0	4.335
34	465.0/340.0	4.461
35	510.0/280.0	3.544
36	515.0/285.0	3.580
37	530.0/290.0	3.627
38	545.0/300.0	5.532
39	560.0/310.0	6.423
40	565.0/340.0	6.848
41	570.0/315.0	7.244
42	575.0/320.0	7.205
43	585.0/325.0	6.658

Data points
	220.0	225.0	230.0	235.0	240.0	245.0	250.0	255.0	260.0	265.0	270.0	275.0	280.0	285.0	290.0	295.0	300.0	305.0	310.0	315.0	320.0	325.0	330.0	335.0	340.0	345.0	350.0	355.0	360.0	365.0	370.0	375.0	380.0	385.0	390.0	395.0	400.0	405.0	410.0	415.0	420.0	425.0	430.0	435.0	440.0	445.0	450.0	455.0	460.0	465.0	470.0	475.0	480.0	485.0	490.0	495.0	500.0	505.0	510.0	515.0	520.0	525.0	530.0	535.0	540.0	545.0	550.0	555.0	560.0	565.0	570.0	575.0	580.0	585.0	590.0	595.0	600.0
230.0	48.17	1565	4494	1655	72.07	8.689	8.021	5.335	5.479	5.078	4.788	4.524	4.411	3.565	3.532	2.974	2.639	2.781	2.393	2.178	1.922	1.788	2.023	1.662	1.482	1.427	1.343	1.176	1.084	1.125	1.066	0.972	1.029	0.949	0.878	0.760	0.759	0.675	0.631	0.598	0.597	0.601	0.642	0.590	0.479	0.530	1.585	8.347	15.91	12.72	5.031	1.039	0.391	0.346	0.367	0.357	0.339	0.378	0.280	0.311	0.257	0.269	0.268	0.269	0.275	0.282	0.272	0.252	0.241	0.272	0.255	0.230	0.224	0.227	0.246	0.223	0.197
235.0	92.94	433.9	2881	5395	2165	104.6	10.35	6.860	6.984	5.426	4.492	5.275	4.346	4.009	3.827	2.966	2.770	2.704	2.258	2.095	2.033	1.975	2.098	1.760	1.554	1.476	1.421	1.088	0.962	1.143	1.151	1.113	0.830	0.925	0.981	0.807	0.679	0.676	0.675	0.676	0.599	0.537	0.642	0.620	0.628	0.623	0.730	2.466	6.174	12.49	19.32	19.13	9.247	1.950	0.392	0.325	0.412	0.327	0.375	0.332	0.317	0.277	0.322	0.299	0.256	0.283	0.297	0.261	0.271	0.306	0.246	0.240	0.218	0.265	0.242	0.190	0.210
240.0	127.2	178.5	870.5	4752	5046	492.8	48.11	8.249	8.419	5.810	5.571	5.099	4.347	4.168	3.987	3.530	2.882	2.902	2.198	2.227	1.987	2.113	2.250	1.763	1.606	1.533	1.475	1.193	1.163	1.153	1.078	1.168	0.943	0.917	1.099	0.848	0.827	0.655	0.701	0.661	0.527	0.582	0.586	0.548	0.791	0.730	0.674	0.980	1.828	3.818	10.83	26.78	27.23	19.87	6.682	1.031	0.470	0.381	0.361	0.381	0.311	0.313	0.302	0.347	0.269	0.320	0.280	0.281	0.244	0.304	0.313	0.242	0.242	0.232	0.246	0.240	0.218
245.0	109.0	193.0	263.1	1651	7087	6967	378.1	18.29	11.21	8.790	6.809	5.725	5.002	4.184	4.399	3.881	3.182	3.478	2.555	2.250	1.996	2.245	2.052	1.810	1.734	1.469	1.541	1.272	1.255	1.052	1.079	1.286	0.989	0.924	0.892	0.815	0.772	0.714	0.647	0.681	0.519	0.592	0.559	0.559	0.677	0.731	0.919	0.894	0.851	1.208	2.837	9.327	23.39	42.51	27.42	17.03	4.426	0.584	0.440	0.398	0.311	0.366	0.337	0.311	0.243	0.305	0.270	0.294	0.293	0.299	0.289	0.235	0.282	0.287	0.286	0.252	0.272
250.0	57.32	138.7	247.1	463.8	2367	7668	9360	1352	86.02	12.59	10.39	7.660	6.576	5.450	4.975	4.029	3.458	3.826	2.953	2.393	2.405	2.386	2.239	2.025	1.863	1.565	1.553	1.406	1.329	1.311	1.141	1.156	1.076	0.979	0.920	0.872	0.854	0.727	0.735	0.690	0.633	0.667	0.592	0.602	0.630	0.585	0.727	0.927	1.113	0.968	1.116	2.487	5.982	14.50	24.01	40.17	42.10	41.02	13.86	4.666	0.651	0.422	0.375	0.375	0.351	0.316	0.298	0.282	0.298	0.261	0.320	0.255	0.318	0.316	0.306	0.267	0.296
255.0	44.07	63.42	183.9	339.3	616.1	1996	8445	9999.9	1890	91.86	15.27	11.29	9.401	7.371	6.289	5.165	4.179	4.499	2.960	2.803	2.699	2.428	2.463	2.003	1.879	1.671	1.579	1.521	1.375	1.420	1.195	1.085	1.131	1.058	0.935	0.826	0.793	0.854	0.842	0.752	0.654	0.673	0.634	0.664	0.627	0.557	0.595	0.648	0.723	1.082	1.433	1.605	1.826	3.661	5.869	10.12	19.19	50.15	91.63	72.56	20.39	4.435	0.581	0.449	0.363	0.330	0.358	0.282	0.322	0.317	0.269	0.251	0.303	0.284	0.291	0.271	0.322
260.0	40.42	44.91	78.47	273.6	352.2	506.3	2705	9999.9	9999.9	1419	45.58	17.00	12.87	8.566	6.920	6.042	4.959	4.454	3.515	2.890	2.834	2.540	2.662	2.164	2.154	1.888	1.874	1.709	1.562	1.497	1.507	1.067	1.045	1.062	0.909	0.850	0.892	0.869	0.805	0.809	0.737	0.703	0.678	0.682	0.691	0.539	0.562	0.538	0.508	0.709	1.084	1.727	1.769	1.557	1.745	2.731	4.846	14.34	45.23	83.14	102.6	29.40	16.24	2.051	0.502	0.413	0.410	0.340	0.368	0.330	0.334	0.321	0.277	0.297	0.350	0.326	0.346
265.0	42.73	39.11	42.50	138.7	353.5	276.1	654.9	3946	9999.9	9999.9	212.5	26.53	17.10	10.90	9.332	7.480	5.836	5.018	4.097	3.340	3.090	2.892	2.884	2.093	1.888	1.875	1.844	1.721	1.590	1.695	1.531	1.324	1.185	1.182	0.985	0.896	0.908	0.865	0.840	0.745	0.754	0.713	0.640	0.809	0.675	0.651	0.620	0.615	0.530	0.496	0.640	1.120	1.877	2.147	1.521	1.247	1.690	3.742	11.00	26.36	65.43	106.1	120.1	26.49	10.14	0.872	0.603	0.432	0.464	0.375	0.407	0.364	0.369	0.357	0.306	0.377	0.366
270.0	53.52	54.44	44.41	61.96	184.4	360.6	338.0	951.9	4190	9999.9	9999.9	3582	61.76	18.40	14.22	9.852	7.205	6.798	4.924	3.959	3.651	3.343	3.159	2.443	2.311	2.101	2.121	1.762	1.709	1.852	1.711	1.592	1.569	1.289	1.200	1.051	1.094	0.958	0.914	0.793	0.914	0.828	0.753	0.785	0.760	0.685	0.671	0.648	0.625	0.538	0.500	0.710	0.914	1.349	1.862	2.216	1.868	1.616	2.979	6.350	15.85	33.00	67.72	93.70	122.4	95.67	17.22	8.210	1.105	0.564	0.501	0.469	0.479	0.356	0.332	0.451	0.417
275.0	96.79	108.1	82.44	60.51	74.48	190.6	457.8	404.5	995.6	2766	9999.9	9999.9	1192	65.10	22.13	15.00	10.61	8.757	6.355	5.271	4.360	3.809	3.950	2.671	2.682	2.603	2.543	1.911	2.161	2.015	1.693	1.826	1.720	1.429	1.242	1.191	1.254	0.931	1.022	0.943	0.860	0.982	0.798	0.820	0.855	0.831	0.691	0.749	0.654	0.604	0.582	0.611	0.650	0.659	0.909	1.349	2.533	2.939	2.316	2.197	4.137	7.928	15.75	22.27	39.32	88.21	161.4	166.6	27.95	10.96	0.972	0.608	0.604	0.486	0.459	0.446	0.404
280.0	145.7	165.2	139.5	90.44	66.87	87.21	320.5	513.5	352.9	702.1	3453	9999.9	9999.9	868.9	46.29	21.03	13.53	11.57	7.468	6.290	4.940	4.652	4.036	3.144	3.081	2.822	2.688	2.253	2.121	1.715	1.917	1.906	1.737	1.542	1.396	1.258	1.300	1.046	1.104	0.904	0.833	1.037	0.816	0.906	0.940	1.069	0.958	0.897	0.924	0.727	0.650	0.671	0.602	0.638	0.660	0.837	1.418	2.497	3.544	2.909	1.927	2.385	4.168	5.756	9.537	22.48	61.28	141.5	195.8	165.8	23.36	5.145	0.784	0.564	0.484	0.512	0.472
285.0	196.5	234.6	214.1	135.5	87.76	68.52	151.8	496.7	344.3	277.6	902.8	4801	9999.9	8568	123.7	30.86	18.83	15.08	8.627	7.470	5.978	5.145	4.937	3.649	3.684	2.885	2.880	2.239	2.197	2.175	2.015	1.947	1.848	1.906	1.695	1.410	1.353	1.323	1.130	1.100	1.051	1.025	0.908	0.927	1.119	1.216	1.179	1.202	1.171	1.002	0.839	0.860	0.724	0.767	0.694	0.741	0.936	1.329	2.220	3.580	3.472	2.182	1.904	2.138	3.037	5.860	14.69	37.59	90.55	193.4	221.0	33.11	17.41	2.223	0.733	0.613	0.571
290.0	290.9	354.3	356.1	228.6	139.0	98.54	114.1	250.5	517.7	480.8	420.3	1296	5048	9999.9	9999.9	2519	47.09	22.81	12.86	9.839	7.504	6.377	5.842	4.409	4.103	3.212	3.129	2.535	2.365	2.406	2.155	2.097	1.914	1.981	1.855	1.573	1.677	1.528	1.429	1.306	1.223	1.190	1.076	1.160	1.321	1.434	1.482	1.551	1.477	1.342	1.230	1.133	1.019	0.852	0.846	0.831	0.988	1.048	1.289	1.756	2.721	3.359	3.627	2.902	2.212	2.602	4.442	9.675	21.81	50.74	92.31	121.3	173.2	131.1	100.3	12.95	3.492
295.0	376.3	472.3	500.7	319.5	194.4	144.5	147.0	193.5	328.1	705.8	687.0	608.7	1399	2878	9999.9	9999.9	692.4	52.70	20.23	14.42	10.35	8.750	7.286	4.791	4.922	3.845	3.578	3.025	2.868	2.763	2.565	2.410	2.171	2.312	1.964	1.684	1.862	1.740	1.562	1.297	1.251	1.238	1.271	1.421	1.596	1.960	1.776	1.839	1.881	1.646	1.459	1.376	1.202	1.078	1.098	1.023	1.126	1.156	1.288	1.392	1.747	2.016	2.840	4.652	4.883	3.527	2.873	3.813	6.850	13.20	22.23	28.69	45.65	81.63	205.0	246.5	165.1
300.0	459.8	579.0	573.1	398.9	249.6	188.1	193.4	229.9	305.0	546.4	985.1	696.4	684.5	918.9	3673	9999.9	9999.9	570.4	34.16	19.25	12.90	10.95	8.778	6.246	5.205	3.959	4.146	3.425	3.049	2.854	2.785	2.409	2.219	2.447	2.294	1.922	1.804	1.684	1.686	1.423	1.399	1.358	1.347	1.599	1.491	1.957	2.142	2.259	2.069	1.881	1.562	1.573	1.391	1.394	1.139	1.204	1.388	1.332	1.496	1.407	1.758	1.763	2.154	3.169	5.033	5.532	4.810	3.489	3.698	5.131	7.155	8.111	11.83	20.26	62.26	149.3	277.4
305.0	509.1	629.3	660.6	454.6	285.1	230.2	248.6	288.2	359.5	515.0	906.1	1105	688.7	572.4	1071	5513	9999.9	9999.9	79.80	27.00	17.66	13.33	11.69	7.298	5.986	4.741	4.160	3.586	3.293	3.227	3.000	2.764	2.268	2.581	2.310	1.946	2.123	1.819	1.775	1.490	1.465	1.428	1.528	1.609	1.823	1.985	2.234	2.409	2.332	2.138	1.949	1.886	1.749	1.466	1.347	1.481	1.588	1.539	1.828	1.870	2.182	1.975	2.598	2.860	3.704	5.028	5.779	5.816	4.374	4.126	4.316	4.107	4.659	6.205	15.45	37.12	95.83
310.0	532.8	722.0	745.6	507.1	339.1	286.3	321.7	374.0	448.0	577.7	778.1	1143	1119	698.4	560.0	1449	5369	9999.9	9999.9	1901	38.93	19.97	15.94	10.21	7.805	5.750	5.121	4.394	3.649	3.657	3.148	2.849	2.632	2.517	2.395	2.200	2.199	2.006	1.893	1.570	1.657	1.727	1.650	1.733	1.810	2.109	2.321	2.776	2.694	2.296	2.082	2.014	1.858	1.652	1.506	1.707	1.755	1.865	2.004	2.172	2.497	2.527	2.968	3.136	3.712	4.150	4.601	5.805	6.423	6.243	5.259	4.098	3.690	3.581	5.344	9.808	22.86
315.0	593.2	771.3	817.9	546.8	388.9	335.7	386.5	448.7	526.3	658.4	816.8	1045	1198	1090	572.7	565.6	1341	2826	9999.9	9999.9	2849	43.49	24.17	13.37	9.891	7.210	6.234	5.300	4.202	4.369	3.587	2.926	3.086	2.717	2.404	2.289	2.413	2.019	1.980	1.849	1.689	1.741	1.822	1.873	2.054	2.187	2.495	3.276	2.809	2.612	2.243	2.162	2.029	1.929	1.717	1.909	2.143	2.130	2.485	2.576	2.821	2.840	3.328	3.615	4.246	4.453	4.418	4.860	5.327	6.554	7.244	6.526	5.148	3.638	3.575	4.064	6.761
320.0	645.3	869.8	875.2	604.0	426.0	385.5	427.5	499.9	578.5	726.6	885.2	1070	1114	1219	789.2	427.9	475.3	746.7	3351	9999.9	9999.9	451.3	39.45	18.00	12.80	8.687	7.243	5.892	4.913	4.829	3.736	3.541	3.037	2.962	2.662	2.401	2.355	2.131	2.193	1.973	1.740	1.666	1.938	2.109	2.230	2.488	2.939	3.142	2.979	2.854	2.436	2.085	2.208	2.193	1.883	2.125	2.253	2.287	2.574	2.749	3.147	3.352	3.630	4.122	4.596	4.979	4.506	4.943	5.236	5.913	6.017	7.205	6.983	5.141	3.870	2.951	3.209
325.0	728.7	973.1	1045	662.0	459.1	436.3	465.4	553.2	625.3	786.5	934.2	1129	1124	1111	998.4	514.1	311.8	296.7	846.0	4632	9999.9	9999.9	366.2	26.42	16.73	10.83	9.213	6.783	5.899	5.597	4.190	4.069	3.342	3.244	2.877	2.589	2.606	2.194	2.263	2.091	1.906	1.806	1.861	2.241	2.336	2.855	3.227	3.542	3.316	3.169	2.751	2.469	2.279	2.193	2.134	2.209	2.316	2.664	2.576	2.929	3.074	3.330	3.703	4.367	4.664	5.308	4.808	5.290	5.591	6.184	5.649	6.110	6.589	6.658	5.460	3.483	2.813
330.0	764.9	1115	1213	832.1	574.9	502.7	513.6	601.2	670.6	835.4	996.8	1180	1170	1059	904.5	730.7	401.3	230.1	298.1	1132	4806	9999.9	9999.9	1696	34.87	16.57	12.22	8.643	7.026	6.424	5.200	4.599	3.641	3.707	3.106	2.637	2.629	2.295	2.305	2.061	1.940	1.975	2.074	2.175	2.487	2.958	3.297	3.872	3.977	3.814	2.979	3.161	2.683	2.430	2.318	2.411	2.650	2.784	2.931	2.960	3.427	3.605	3.898	4.580	4.902	5.378	5.078	5.443	6.022	6.358	6.156	6.034	5.671	5.621	5.440	4.981	4.313
335.0	821.5	1175	1358	985.0	677.2	573.9	559.5	642.5	710.1	869.7	1022	1215	1199	1081	841.1	691.4	603.2	316.3	208.1	358.6	1150	2647	9999.9	9999.9	2721	38.94	17.75	12.07	9.356	7.935	6.160	5.379	4.234	4.252	3.270	2.847	2.787	2.669	2.345	2.169	2.188	2.097	2.211	2.290	2.438	3.270	3.618	4.237	4.321	4.284	3.562	3.582	3.330	2.947	2.671	2.576	2.878	2.700	2.979	3.341	3.678	3.954	4.155	4.602	5.076	5.213	5.390	5.869	6.036	6.249	6.105	6.089	5.864	5.194	4.998	4.313	4.524
340.0	826.2	1185	1392	1046	737.0	627.8	595.6	660.4	726.8	866.4	1014	1200	1197	1080	838.9	635.5	597.7	463.6	232.6	205.7	350.9	669.4	3560	9999.9	9999.9	404.9	30.62	15.72	11.69	9.502	7.649	6.221	4.731	4.514	3.802	3.090	2.948	2.541	2.472	2.293	2.157	2.257	2.295	2.173	2.388	3.076	3.825	4.235	4.271	4.461	3.732	3.759	3.335	3.164	2.823	2.887	3.071	2.923	3.130	3.245	3.736	3.913	4.351	4.548	5.351	5.254	5.368	5.887	5.951	6.848	5.908	5.810	6.089	5.397	4.706	4.002	3.969
345.0	839.5	1151	1407	1084	783.1	651.8	612.8	667.4	725.8	856.6	1005	1157	1156	1053	838.9	623.3	517.7	521.5	344.9	198.2	190.6	238.3	883.8	4166	9999.9	9999.9	344.2	22.35	14.36	11.45	8.184	6.998	5.379	5.011	3.998	3.048	3.160	2.607	2.614	2.263	2.386	2.335	2.156	2.225	2.451	3.191	3.437	4.078	4.335	4.251	3.630	3.912	3.479	3.324	2.848	2.927	3.188	3.292	3.098	3.244	3.535	3.848	4.190	4.387	4.878	5.321	5.224	5.554	5.785	6.348	6.043	5.645	6.097	5.355	4.576	3.930	3.584
350.0	779.1	1079	1313	1066	806.8	698.9	627.2	680.6	710.5	818.9	957.2	1098	1083	1002	821.9	629.6	499.8	443.8	444.9	311.6	193.4	167.7	292.7	1009	4169	9999.9	9999.9	1560	31.79	15.59	10.76	8.275	6.223	5.476	4.418	3.427	3.243	2.928	2.749	2.334	2.200	2.214	2.092	2.245	2.485	2.943	3.390	3.887	4.108	4.141	3.711	3.900	3.418	3.429	3.167	3.027	3.171	3.291	3.253	3.393	3.669	3.706	4.074	4.352	4.733	4.816	4.855	5.053	5.448	5.815	5.773	5.614	5.815	4.939	4.543	4.021	3.808
355.0	687.8	968.0	1179	1017	816.1	724.6	652.0	690.0	712.4	798.0	909.5	1014	1013	935.3	799.1	628.1	515.7	428.9	394.8	422.4	295.7	190.2	186.1	314.7	997.5	2460	9999.9	9999.9	2776	39.90	16.76	10.79	7.840	7.159	5.064	3.927	3.656	3.035	2.920	2.287	2.308	2.153	2.180	2.224	2.511	2.886	3.066	3.764	4.042	3.708	3.442	3.909	3.450	3.469	3.259	3.418	3.130	3.350	3.585	3.605	3.574	3.740	4.106	4.197	4.543	4.605	4.568	4.695	5.028	5.326	5.397	5.333	5.431	4.647	4.543	4.013	3.927
360.0	683.5	943.4	1111	992.1	834.7	735.7	669.7	684.9	707.7	779.9	890.8	962.8	963.9	892.9	777.6	636.4	535.5	446.6	388.2	401.6	401.7	251.4	186.3	179.9	306.2	613.8	2773	9999.9	9999.9	2408	33.96	14.33	10.32	8.462	5.681	4.408	4.124	3.220	3.040	2.649	2.518	2.374	2.344	2.345	2.545	2.931	3.036	3.561	3.714	3.692	3.397	3.757	3.429	3.549	3.150	3.178	3.499	3.447	3.463	3.592	3.257	3.823	4.206	4.084	4.179	4.477	4.453	4.390	4.733	5.314	4.979	5.025	4.977	4.626	4.401	4.183	4.115
365.0	631.4	919.5	1036	980.1	840.8	744.8	682.5	696.6	696.4	764.6	849.0	912.5	912.9	861.0	756.4	632.3	547.3	469.6	409.2	379.0	418.5	353.0	224.5	170.1	171.9	214.5	680.6	3289	9999.9	9999.9	358.9	26.40	13.13	10.78	6.969	4.947	4.349	3.463	3.353	2.676	2.569	2.379	2.201	2.415	2.448	2.785	2.927	3.359	3.622	3.304	3.488	3.870	3.685	3.517	3.189	3.235	3.487	3.414	3.380	3.617	3.649	3.751	3.899	3.777	4.115	4.240	4.280	4.464	4.677	4.619	4.858	4.860	5.267	4.528	4.436	4.186	4.060
370.0	609.1	839.8	998.7	943.5	837.7	762.7	698.9	703.6	693.5	746.3	817.7	861.6	864.3	819.1	726.6	634.2	563.7	496.0	443.0	399.3	386.1	399.0	335.9	221.6	174.0	151.5	230.0	797.1	3430	9999.9	9999.9	6488	30.78	15.48	9.348	6.310	5.292	4.284	3.602	3.125	2.616	2.430	2.442	2.402	2.551	2.591	2.832	3.363	3.444	3.347	3.345	3.825	3.718	3.545	3.360	3.439	3.560	3.558	3.257	3.498	3.569	3.645	3.865	3.720	3.967	4.132	4.040	4.189	4.507	4.600	4.498	4.577	4.831	4.422	4.303	4.213	4.262
375.0	558.2	776.4	933.3	912.1	840.2	776.3	707.5	701.1	694.7	733.3	793.5	815.3	810.4	767.7	703.4	624.4	575.7	518.3	471.4	436.5	399.5	378.7	402.3	329.9	216.8	167.4	153.7	258.0	824.3	2391	9857	9999.9	2592	37.19	13.36	8.630	6.905	5.345	4.200	3.558	2.898	2.613	2.449	2.545	2.479	2.785	2.898	3.348	3.323	3.180	3.209	3.718	3.738	3.635	3.532	3.328	3.572	3.503	3.640	3.627	3.608	3.652	3.782	3.875	3.868	3.816	3.927	4.004	4.208	4.512	4.433	4.170	4.489	4.243	3.933	4.235	4.353
380.0	538.7	757.8	880.8	892.6	825.9	786.5	726.4	713.5	695.8	722.2	765.4	793.4	777.0	737.0	686.7	623.5	581.2	531.6	494.0	460.8	421.5	387.0	386.0	396.0	282.3	192.9	159.3	154.3	257.0	592.3	2561	9999.9	9999.9	2270	29.37	11.16	8.462	6.131	4.935	3.672	3.350	2.882	2.720	2.620	2.729	2.699	3.012	3.247	3.324	3.199	3.036	3.546	3.765	4.001	3.540	3.306	3.521	3.805	3.719	3.591	3.741	3.716	3.599	3.526	3.715	3.745	3.771	4.057	3.969	4.247	4.069	3.999	4.314	4.201	4.110	3.961	4.197
385.0	564.7	721.3	846.1	882.4	829.2	775.6	730.1	715.2	697.6	708.6	745.2	764.1	755.3	722.4	667.0	619.1	579.6	542.9	507.6	479.2	444.3	404.6	378.8	394.2	357.3	241.4	184.2	151.6	149.1	203.5	628.6	2992	9999.9	9999.9	1695	20.87	10.91	7.260	5.737	4.361	3.449	3.220	2.860	2.626	2.764	2.863	3.003	3.170	3.213	3.075	3.022	3.746	3.917	3.908	3.630	3.401	3.484	3.715	3.555	3.425	3.357	3.715	3.526	3.667	3.967	3.720	3.656	3.940	3.879	4.123	4.011	4.103	4.142	4.233	4.152	4.128	4.239
390.0	523.4	687.4	829.9	849.9	824.5	791.6	739.4	718.1	696.0	709.3	735.6	735.6	729.3	706.6	656.7	611.4	577.8	549.1	525.6	496.0	465.0	431.1	400.5	377.1	378.8	334.6	240.4	183.0	155.3	144.8	217.6	726.7	3040	9999.9	9999.9	5485	26.18	10.45	7.503	5.218	4.195	3.551	3.079	2.912	2.865	3.067	2.779	3.109	3.134	3.111	3.078	3.593	3.709	3.749	3.565	3.533	3.771	3.719	3.613	3.501	3.562	3.639	3.749	3.506	3.897	3.681	3.772	3.829	3.831	4.047	3.799	4.068	4.043	4.152	3.976	3.997	4.218
395.0	499.8	676.9	800.8	843.5	819.7	790.6	744.8	724.2	699.6	715.0	724.7	721.5	709.8	685.9	651.2	606.6	576.2	550.0	537.5	512.8	481.6	454.5	427.9	397.3	368.8	369.8	331.0	234.0	189.6	161.6	151.5	235.8	734.7	2350	7411	9999.9	2209	31.27	10.93	7.077	5.536	4.352	3.636	3.181	3.220	3.236	2.983	3.212	3.131	3.230	3.159	3.570	3.964	3.843	3.541	3.754	4.008	3.697	3.572	3.510	3.603	3.728	3.599	3.567	3.704	3.549	3.738	3.597	3.730	3.844	3.897	3.882	3.829	4.050	4.207	4.116	4.339
400.0	492.9	654.8	795.8	823.0	815.1	791.3	747.3	718.8	702.1	711.1	720.5	715.6	704.9	673.9	641.2	599.5	572.0	549.2	536.9	516.6	492.4	465.0	440.9	411.7	376.3	365.1	370.2	292.1	218.8	182.1	148.6	138.9	227.5	579.0	1870	9474	9999.9	1935	25.85	9.065	6.496	4.814	4.148	3.729	3.203	3.262	3.082	3.521	3.398	3.005	3.233	3.458	3.572	3.987	3.597	3.686	3.945	3.729	3.508	3.418	3.621	3.708	3.690	3.412	3.595	3.692	3.432	3.447	3.540	4.053	3.889	3.914	3.883	4.149	4.039	4.038	4.135
405.0	481.4	649.5	776.3	824.4	799.9	784.3	755.5	718.6	715.8	712.1	730.0	715.8	700.8	665.4	632.1	591.1	561.4	544.5	534.0	513.5	495.9	471.7	451.9	425.5	389.1	364.9	361.8	343.4	258.9	203.5	162.3	128.0	123.1	188.2	462.1	2569	9999.9	9999.9	1541	18.17	7.954	5.669	4.612	3.944	3.507	3.167	3.196	3.445	3.286	2.930	3.214	3.365	3.574	3.837	3.576	3.611	3.759	3.875	3.653	3.619	3.567	3.750	3.489	3.681	3.514	3.838	3.436	3.746	3.354	3.928	3.952	4.022	4.120	3.780	3.903	3.981	4.294
410.0	453.7	623.7	741.1	812.9	801.5	784.0	760.4	736.7	722.9	713.3	727.3	706.7	684.0	658.6	618.6	577.6	552.1	533.3	523.6	508.8	489.4	475.0	457.6	435.2	406.6	380.4	351.8	345.4	318.6	246.5	186.2	141.9	113.5	110.9	154.8	609.7	2742	9444	9999.9	4384	22.65	8.103	6.068	4.739	3.933	3.515	3.282	3.428	3.290	3.073	3.106	3.664	3.587	3.885	3.652	3.629	3.885	3.877	3.741	3.714	3.565	3.701	3.646	3.641	3.721	3.438	3.631	3.562	3.664	3.747	3.572	3.768	3.885	3.664	3.711	3.840	3.852
415.0	455.1	606.6	721.1	789.7	785.1	773.9	765.0	732.6	729.3	719.6	719.5	698.8	668.6	640.1	598.7	560.8	535.1	523.9	511.6	498.0	481.6	466.8	459.3	439.9	413.2	389.8	358.4	335.0	334.4	301.7	221.9	160.4	128.6	106.7	96.98	177.8	641.2	2166	5923	9999.9	1998	28.04	8.898	5.952	4.720	4.061	3.618	3.638	3.337	3.113	3.182	3.797	3.718	3.767	3.664	3.681	3.668	4.019	3.906	3.812	3.764	3.862	3.652	3.499	3.627	3.420	3.578	3.642	3.422	3.573	3.384	3.655	3.459	3.917	3.576	3.777	3.591
420.0	423.2	606.3	717.2	760.2	769.9	766.6	757.9	746.1	728.0	709.1	711.2	683.7	652.9	631.2	585.4	544.6	514.8	503.0	492.6	486.0	467.8	456.0	449.7	434.5	415.1	389.6	364.5	333.4	320.7	324.1	260.2	179.1	139.1	114.1	90.23	85.97	176.6	508.0	1464	7496	9999.9	1741	22.56	7.894	5.482	4.635	3.904	3.861	3.426	3.314	3.088	3.693	3.613	3.683	3.590	3.612	3.865	3.856	3.986	3.700	3.563	3.815	3.775	3.622	3.446	3.499	3.536	3.618	3.399	3.431	3.610	3.551	3.390	3.904	3.301	3.424	3.810
425.0	438.8	577.5	685.6	732.7	745.6	756.3	739.8	731.5	705.9	704.9	704.6	681.3	646.7	617.3	567.4	525.1	498.9	484.6	477.7	465.9	453.9	442.9	440.0	427.6	407.7	388.2	364.2	337.6	311.6	308.8	284.4	203.6	149.7	120.1	92.12	70.47	76.43	140.0	349.7	1992	9386	9999.9	1361	16.47	7.215	5.591	4.296	4.335	3.685	3.316	3.139	3.891	3.532	3.613	3.573	3.686	3.629	3.932	3.887	3.783	3.691	3.658	3.837	3.519	3.556	3.397	3.478	3.316	3.332	3.436	3.783	3.373	3.328	3.569	3.341	3.527	3.579
430.0	462.7	555.7	672.7	722.3	732.4	740.7	734.8	734.8	705.5	702.9	693.7	667.2	630.5	594.2	546.5	505.6	478.8	465.5	456.2	445.9	436.7	427.8	427.5	413.9	400.8	381.4	358.0	337.4	311.8	291.6	276.9	235.9	172.4	130.1	98.34	74.40	60.55	63.76	102.8	464.7	2470	7697	9999.9	3818	20.81	7.493	5.439	4.925	4.019	3.411	3.498	3.785	3.682	3.627	3.713	3.698	3.925	3.898	3.681	3.796	3.601	3.678	3.692	3.606	3.609	3.423	3.398	3.213	3.422	3.285	3.491	3.315	3.419	3.488	3.234	3.443	3.240
435.0	738.8	552.6	636.6	698.5	719.1	722.7	721.2	723.2	706.2	702.1	689.0	653.7	617.5	575.2	528.4	481.3	459.0	448.5	432.6	427.0	418.4	411.1	409.7	400.5	390.7	370.5	356.1	335.7	315.8	290.3	262.0	238.3	207.3	149.6	109.4	83.61	64.26	51.98	52.54	126.2	568.0	1759	5318	9999.9	1876	25.63	7.843	5.953	4.703	3.810	3.848	3.978	3.769	3.775	3.764	3.642	4.094	3.755	3.605	3.549	3.759	3.820	3.707	3.835	3.669	3.277	3.630	3.047	3.487	3.150	3.370	3.306	3.058	3.327	3.179	3.146	3.196
440.0	1013	619.4	632.7	680.1	703.3	708.6	708.1	712.7	708.6	694.0	680.3	650.4	602.2	558.7	512.3	463.7	441.6	430.8	417.3	413.5	402.4	396.3	394.0	390.1	378.0	360.5	346.9	330.8	311.8	287.8	258.1	227.5	215.1	171.2	118.4	90.07	68.78	53.74	44.62	53.29	146.9	409.0	1326	7502	9999.9	1567	19.11	7.859	5.226	4.186	4.000	3.925	3.933	3.652	3.840	3.887	4.175	3.921	3.930	3.885	3.969	3.758	3.619	3.810	3.457	3.302	3.322	3.116	3.289	3.011	3.509	3.213	3.033	2.974	3.127	3.319	3.117
445.0	1180	976.8	600.0	649.8	680.9	693.2	705.4	700.4	691.8	679.7	668.4	631.7	585.2	540.6	492.0	452.6	427.2	412.7	402.8	391.1	382.9	381.3	378.4	376.2	363.4	352.9	338.7	324.6	307.0	286.1	258.5	221.2	201.1	186.6	133.4	95.87	73.38	58.52	46.05	40.10	55.04	109.1	312.8	2026	9391	9999.9	215.7	15.29	6.395	4.794	4.044	4.130	3.941	4.059	3.785	3.950	4.104	3.819	3.897	3.644	3.841	3.431	3.736	3.615	3.437	3.366	3.234	3.057	3.072	2.926	3.331	3.223	3.099	2.929	2.922	3.106	3.117
450.0	874.3	1918	813.6	614.7	642.1	668.6	674.0	676.2	669.2	652.6	642.4	604.2	559.8	509.9	461.9	425.8	398.6	383.8	375.0	364.7	358.9	356.2	353.4	349.7	341.7	333.6	320.2	311.4	295.8	279.1	250.3	214.5	187.3	175.4	150.4	108.4	79.89	64.26	50.61	40.55	37.19	44.52	87.16	467.7	2506	7708	9999.9	3437	17.40	6.410	4.767	4.377	4.001	4.016	3.714	3.884	4.039	4.012	3.770	3.826	3.693	3.532	3.633	3.447	3.411	3.310	3.163	3.055	3.074	3.036	2.963	3.030	3.033	2.831	2.918	2.949	2.982
455.0	468.0	2238	1836	604.0	590.2	622.7	637.8	637.8	634.6	629.0	602.4	570.1	528.0	476.1	427.7	392.4	367.9	351.9	344.3	330.3	327.2	323.8	321.2	318.6	315.4	306.4	296.0	290.1	277.2	266.2	238.9	206.5	179.0	158.1	145.0	126.1	90.93	68.71	54.63	43.90	35.81	33.20	37.66	119.2	571.5	1764	4953	9999.9	1529	19.45	6.297	5.248	4.712	3.935	3.603	3.887	4.098	3.593	3.835	3.369	3.587	3.385	3.593	3.477	3.262	3.004	3.077	2.985	2.953	2.978	2.843	2.891	2.884	2.799	2.528	2.770	2.889
460.0	327.2	1636	3142	785.6	561.5	594.2	595.4	600.2	605.8	591.4	575.6	546.7	499.1	443.0	402.6	365.5	341.1	329.9	320.8	307.8	304.7	298.4	296.9	295.2	293.0	284.3	278.6	270.8	261.8	252.9	228.8	200.4	173.2	151.0	133.6	126.2	100.7	71.47	57.16	46.47	38.42	31.42	28.32	43.31	141.4	406.0	1213	6871	9999.9	1185	16.07	6.349	5.175	4.432	4.048	4.085	3.997	3.834	3.587	3.458	3.426	3.340	3.160	3.265	3.260	3.071	2.974	2.950	2.873	2.913	2.809	2.730	2.725	2.776	2.686	2.656	2.600
465.0	295.6	849.6	3548	1671	545.2	552.3	566.3	567.2	572.5	557.1	546.1	513.5	471.3	421.8	377.6	339.1	316.8	305.4	297.6	287.4	282.0	277.1	276.5	271.9	269.7	264.8	258.3	252.7	245.2	240.0	217.2	193.5	168.1	146.5	125.0	116.8	107.1	79.64	59.66	47.92	39.18	32.46	27.44	27.35	46.35	103.9	283.5	1847	8432	8612	948.7	13.49	5.931	5.143	4.480	4.288	3.860	3.975	3.482	3.442	3.357	3.251	3.288	3.265	3.123	3.182	2.911	2.818	2.675	2.650	2.720	2.396	2.584	2.509	2.611	2.541	2.499
470.0	283.4	460.5	2274	3614	897.5	496.8	519.4	523.2	522.9	515.6	500.6	474.6	424.8	383.9	341.8	309.6	289.5	276.2	265.7	257.2	251.7	249.5	248.3	244.4	243.1	240.9	232.8	228.4	224.2	217.4	199.2	179.4	158.2	137.8	117.1	103.7	97.26	87.05	65.31	49.58	40.57	33.48	28.03	24.37	25.95	36.18	75.07	423.7	2243	6103	7506	2520	17.36	6.444	4.875	4.402	4.168	3.922	3.715	3.204	3.198	3.230	3.084	2.995	2.986	2.962	2.632	2.552	2.785	2.498	2.492	2.248	2.410	2.378	2.426	2.186	2.255
475.0	266.3	338.5	859.7	3932	2621	503.5	470.8	479.1	481.3	466.0	451.1	432.8	379.7	346.5	309.6	278.7	257.0	245.8	233.6	228.8	223.8	219.4	218.2	217.7	213.5	212.0	209.4	202.7	202.5	196.2	182.5	166.5	145.7	126.9	110.7	96.00	84.79	81.45	72.97	53.41	42.00	34.65	29.34	24.77	22.48	22.20	28.27	104.7	508.5	1389	3460	7804	1510	22.07	5.703	4.769	4.318	3.919	3.447	3.090	3.131	3.126	2.915	2.804	2.659	2.789	2.539	2.482	2.447	2.507	2.273	2.110	2.135	2.077	2.187	1.918	2.149
480.0	266.9	306.8	456.1	2536	4419	834.7	434.0	443.4	449.5	437.9	428.2	400.6	361.5	322.9	285.3	254.3	238.3	225.5	218.9	211.4	205.3	199.2	201.2	197.9	196.4	194.2	191.5	186.0	188.4	182.2	169.3	155.0	136.9	117.9	106.5	91.97	79.28	72.71	72.36	58.35	43.45	35.34	29.67	25.53	21.58	19.31	17.89	33.68	122.2	317.6	836.7	4257	7680	1352	16.77	5.985	4.596	4.377	3.620	3.008	3.117	3.101	2.854	2.616	2.564	2.412	2.590	2.313	2.314	2.418	2.123	2.024	2.141	2.174	1.962	2.072	1.977
485.0	234.3	309.2	364.6	1196	5067	2029	424.4	412.7	426.2	414.6	406.4	379.1	339.9	304.5	267.0	238.4	221.5	208.3	202.0	195.8	191.9	186.7	186.5	183.1	182.6	179.4	178.1	174.5	174.3	170.8	159.5	143.5	131.3	114.2	101.7	87.96	75.93	68.18	66.80	62.23	47.83	36.17	29.76	25.89	22.16	18.96	16.45	18.64	36.61	78.85	194.9	1114	5861	7239	206.1	13.70	5.578	4.654	3.863	3.440	2.993	2.780	2.699	2.419	2.470	2.182	2.492	2.225	2.247	2.242	1.921	2.040	2.101	2.029	1.921	1.982	2.008
490.0	204.0	314.0	332.4	540.2	3147	4614	762.9	382.9	391.2	385.5	373.3	351.0	313.8	279.2	245.6	217.1	202.7	190.3	183.3	175.3	173.1	169.3	166.8	166.3	164.7	163.1	162.0	159.2	158.8	155.6	147.6	133.7	122.5	107.9	95.82	84.22	72.94	65.05	59.85	57.96	52.73	40.09	31.31	26.39	22.79	19.74	17.11	15.70	17.68	25.73	50.85	255.8	1527	4577	6050	2767	18.55	6.095	4.186	3.596	3.161	2.896	2.778	2.494	2.502	2.305	2.333	2.215	2.155	2.077	1.999	1.779	1.924	1.875	1.833	1.818	1.761
495.0	177.8	276.5	321.9	358.9	1105	5209	2563	386.0	347.8	347.1	339.8	320.6	285.9	252.4	221.6	195.8	183.1	172.5	163.8	157.9	153.9	149.2	149.4	147.4	146.6	146.0	143.9	143.3	143.1	140.7	133.7	124.5	112.3	99.84	88.91	79.64	68.94	61.27	55.48	50.31	49.53	44.11	33.65	26.09	23.41	20.18	17.64	15.63	13.93	14.13	18.49	63.43	346.3	1039	3018	8171	1739	24.49	5.555	3.884	3.199	2.891	2.793	2.552	2.336	2.133	2.149	2.201	1.881	1.972	1.901	1.799	1.940	1.724	1.671	1.652	1.750
500.0	170.9	229.7	322.7	301.1	476.7	3439	4737	620.0	327.0	327.5	318.6	297.8	263.5	233.2	205.4	180.9	168.8	158.8	149.5	144.8	139.3	136.3	137.4	135.4	133.6	132.4	130.3	129.7	131.2	130.6	123.0	115.5	102.9	93.02	83.37	74.52	65.83	58.91	52.36	46.70	44.22	44.93	35.89	27.73	23.80	20.45	18.05	15.29	13.46	11.86	11.57	20.87	83.07	237.5	732.0	4286	8524	1475	18.28	4.568	3.628	3.158	2.541	2.683	2.302	2.165	2.117	2.178	1.740	1.934	1.660	1.657	1.763	1.551	1.709	1.346	1.565
505.0	146.7	195.5	305.6	289.2	311.7	1564	5726	1658	310.0	298.0	295.4	273.6	245.7	215.6	190.9	167.2	154.8	144.1	135.6	131.8	128.3	124.1	125.4	121.3	121.5	120.4	119.9	119.5	118.9	117.7	112.0	105.7	96.61	87.94	77.81	70.44	62.76	55.42	49.41	43.64	39.94	41.41	38.43	29.43	23.45	19.57	17.54	15.15	13.15	11.62	9.937	11.29	24.85	58.93	170.1	1098	5899	7622	227.3	11.86	4.152	3.033	2.694	2.476	2.477	2.082	1.932	1.797	1.905	1.862	1.792	1.500	1.488	1.573	1.478	1.329	1.413
510.0	129.2	174.8	252.6	290.3	257.7	564.9	3659	4774	555.7	268.0	261.9	242.3	217.9	192.4	167.1	148.6	135.9	127.8	119.0	116.4	112.7	108.4	109.7	106.6	107.1	105.8	103.6	104.1	105.1	104.2	100.0	92.80	86.16	77.38	70.02	64.08	57.44	51.08	45.97	40.40	36.65	34.80	34.64	32.27	25.06	19.42	17.60	15.10	12.52	11.43	9.846	9.033	11.34	18.74	43.23	250.7	1500	4788	5095	1019	17.80	4.160	3.009	2.663	2.328	2.134	1.816	1.820	1.666	1.698	1.636	1.484	1.460	1.456	1.362	1.280	1.394
515.0	131.1	153.6	190.4	281.8	238.2	297.0	1190	6095	1979	255.1	232.2	215.7	196.2	172.4	147.5	129.9	119.0	109.4	104.7	99.58	97.56	94.94	92.45	92.57	90.44	90.94	90.63	90.95	90.65	91.51	88.46	81.50	76.81	69.45	62.30	57.51	50.67	45.92	41.22	37.09	33.01	30.76	28.46	30.39	27.44	21.16	16.95	15.00	12.52	11.08	9.851	8.867	8.314	9.262	14.27	60.67	338.6	1082	2201	5370	1670	24.37	4.061	2.928	2.425	2.225	2.052	1.687	1.610	1.488	1.510	1.396	1.295	1.341	1.259	1.289	1.322
520.0	103.0	127.5	166.1	246.9	258.3	223.7	428.7	4163	4588	430.2	210.1	196.5	174.6	155.0	132.0	118.3	104.9	98.76	93.58	88.81	87.32	83.76	82.91	83.40	81.25	81.36	80.78	81.73	81.17	81.34	78.75	74.31	67.88	63.13	56.57	51.58	46.79	42.08	38.65	34.06	31.16	27.86	25.58	26.10	26.73	22.56	16.89	14.63	12.01	10.63	9.356	8.655	8.014	7.409	7.905	18.10	80.03	246.2	521.5	2714	5229	1436	19.28	3.352	2.738	2.373	1.982	1.811	1.571	1.391	1.406	1.308	1.227	1.313	1.156	1.153	1.135
525.0	98.12	105.3	143.9	192.1	258.8	197.5	239.0	1782	6204	1365	199.4	176.4	159.1	140.7	121.3	106.9	97.23	91.26	85.82	81.35	79.74	77.06	75.19	73.13	73.86	73.31	73.19	73.16	73.18	73.64	70.87	67.82	62.52	57.51	52.11	46.61	43.48	39.48	35.40	32.09	28.94	25.91	23.44	22.32	23.80	22.80	17.67	14.09	11.65	10.24	9.078	8.213	7.811	6.853	6.291	8.181	22.06	59.18	120.9	672.7	3197	4994	240.5	13.06	3.040	2.336	2.064	1.611	1.511	1.393	1.362	1.198	1.338	1.323	1.195	1.080	1.071
530.0	88.60	103.1	128.3	149.0	224.9	199.8	181.4	563.9	4045	4745	466.1	159.2	138.7	124.2	108.1	93.52	85.62	79.50	74.78	70.80	68.73	66.49	66.16	64.91	64.15	62.66	62.72	63.29	63.50	63.78	63.56	58.61	53.94	50.07	45.74	41.42	37.95	34.91	31.69	29.17	26.13	23.86	21.38	19.71	19.70	20.88	19.12	14.50	11.13	9.644	8.587	7.813	7.062	6.633	5.858	5.783	8.838	16.97	30.43	153.6	789.5	2613	3784	1045	18.61	3.379	2.177	1.768	1.667	1.347	1.432	1.239	1.208	1.146	1.075	0.955	0.977
535.0	79.66	92.42	109.1	121.0	165.3	207.9	157.6	239.0	1225	6211	1687	147.8	120.8	105.8	92.01	80.53	72.60	68.52	64.56	60.98	57.23	57.06	56.18	56.00	54.26	52.48	53.85	54.17	55.95	56.06	53.49	49.84	46.46	42.67	38.64	36.12	33.36	29.94	28.20	25.21	22.42	20.85	19.04	17.30	16.86	16.73	17.33	15.77	11.23	9.203	7.956	7.300	6.444	5.924	5.894	4.997	5.497	7.173	9.809	37.21	178.6	587.3	1365	3612	1715	27.38	3.096	1.980	1.702	1.494	1.342	1.148	1.106	1.046	0.963	0.949	0.878
540.0	81.22	91.06	102.5	110.0	127.7	196.4	154.6	153.7	387.9	3945	5602	205.3	108.6	94.39	82.66	71.42	63.77	61.89	57.39	54.01	50.96	50.00	49.23	49.94	47.75	47.32	45.94	46.64	48.56	47.91	46.97	44.43	41.13	38.30	34.07	32.31	29.57	27.17	24.70	22.34	20.70	18.55	17.83	15.97	15.14	13.80	15.01	15.58	12.06	8.915	7.607	6.729	5.941	5.579	5.218	5.301	4.344	4.946	5.130	11.19	42.54	133.6	315.2	1560	3752	1451	21.64	2.652	1.786	1.534	1.341	1.274	1.103	0.960	1.028	0.882	0.926
545.0	68.75	80.83	94.77	96.46	106.9	162.9	165.1	124.6	178.1	1509	8054	1018	100.2	85.83	72.66	63.76	57.42	54.32	51.07	47.57	45.03	43.98	44.15	42.90	42.66	42.28	41.92	40.88	41.68	41.91	41.10	38.53	36.96	33.49	30.33	28.19	26.49	24.22	21.89	20.58	18.75	17.10	15.90	14.40	13.24	12.64	12.13	13.93	12.00	8.988	7.163	6.141	5.649	4.988	5.007	5.109	4.575	4.104	3.727	5.024	11.84	32.44	72.99	369.7	1889	3608	1084	15.62	2.308	1.766	1.222	1.152	1.028	1.011	0.929	0.932	0.739
550.0	63.68	73.27	79.89	82.00	84.59	115.0	164.5	115.0	117.8	438.3	4896	4498	264.0	74.27	63.90	54.89	49.13	45.70	43.05	39.68	38.81	36.94	36.03	36.14	35.07	35.51	34.84	34.78	34.71	34.27	34.07	32.26	30.46	27.81	25.84	24.02	22.18	20.22	18.60	17.61	15.61	14.59	13.63	12.44	11.60	10.99	10.19	10.43	10.81	9.576	7.088	5.645	5.007	4.581	4.403	4.265	4.267	3.939	3.320	3.261	4.640	9.432	18.33	84.77	446.7	1553	2659	1063	99.76	3.044	1.498	1.326	1.116	1.035	0.832	0.810	0.693
555.0	63.52	64.47	73.20	70.30	70.55	83.52	134.0	126.2	91.41	164.5	1333	6138	1192	68.04	55.81	46.09	41.46	36.84	35.09	32.65	31.51	30.60	29.53	29.35	28.75	28.55	27.73	28.49	28.48	28.82	27.22	26.35	25.14	23.22	21.37	19.94	18.12	16.88	15.37	14.48	13.01	12.19	11.68	10.49	9.777	9.385	8.603	7.947	8.180	8.739	7.394	5.573	4.525	4.291	3.816	3.639	3.696	3.601	3.168	2.664	2.762	3.705	5.787	20.73	101.2	347.9	801.2	2140	1754	29.68	2.347	1.461	1.180	0.985	0.890	0.749	0.644
560.0	53.23	57.70	67.43	63.98	57.79	66.38	97.97	140.7	78.35	95.52	364.3	3819	4358	121.9	47.60	38.29	35.84	32.29	29.79	28.17	26.97	25.35	24.85	25.30	23.84	24.30	23.01	23.34	23.69	23.58	23.66	22.15	20.59	19.22	18.05	17.12	15.12	14.69	12.86	12.41	11.01	11.09	9.963	9.015	8.570	8.203	7.485	6.460	6.612	7.092	6.974	5.474	3.982	3.672	3.441	3.320	3.124	3.099	3.090	2.649	2.303	2.628	3.047	6.248	24.31	79.20	182.6	783.8	2664	1305	24.42	1.758	1.272	0.860	0.892	0.666	0.694
565.0	52.47	62.94	61.73	58.36	55.77	58.05	70.05	136.4	82.64	72.84	135.0	1378	6196	697.0	43.12	33.40	31.08	28.27	25.09	24.40	23.80	22.20	22.01	21.04	21.28	20.09	20.45	19.83	20.38	20.63	20.14	19.31	17.82	16.05	15.79	14.23	13.34	12.07	11.68	10.59	10.09	9.306	8.257	7.966	7.413	7.074	6.508	5.756	5.471	5.370	6.188	5.519	3.983	3.399	3.157	3.078	2.776	2.761	2.596	2.831	2.234	2.054	2.098	2.813	6.789	19.10	42.60	181.5	1143	2269	863.3	17.17	1.573	1.020	0.883	0.706	0.672
570.0	52.27	60.24	62.70	50.77	49.41	49.37	53.94	96.85	110.2	63.97	76.23	374.2	3736	3703	94.19	29.30	26.49	22.85	21.18	20.73	19.24	18.52	17.85	17.29	17.23	17.18	16.05	16.05	16.38	16.84	16.35	15.89	14.44	13.22	12.47	11.83	10.67	10.14	9.731	8.916	8.182	7.817	6.970	6.669	6.244	5.678	5.494	4.907	4.538	4.241	4.660	4.884	4.123	3.230	2.895	2.688	2.308	2.351	2.140	2.306	2.256	2.037	1.761	1.899	2.716	5.597	11.16	41.98	264.3	840.4	1486	899.9	101.9	2.616	1.021	0.767	0.663
575.0	53.39	59.31	62.06	52.27	40.54	41.95	44.40	61.52	114.4	70.39	58.65	124.8	1014	5084	879.4	29.69	22.37	19.56	17.97	17.24	15.06	14.95	15.01	14.35	13.79	13.40	13.50	12.76	13.45	13.77	13.21	12.38	11.54	10.81	9.918	9.382	8.899	8.607	7.805	7.248	6.406	6.121	5.738	5.668	5.000	4.855	4.374	4.075	3.658	3.312	3.313	3.575	3.942	3.397	2.621	2.212	1.991	2.005	1.928	1.857	1.748	2.166	1.659	1.581	1.651	2.300	3.963	10.53	60.17	188.3	395.3	1188	1250	31.50	2.008	1.008	0.721
580.0	59.68	55.21	58.65	47.62	38.60	36.88	35.97	44.83	96.26	88.00	56.27	68.77	270.1	3165	3995	72.64	21.00	17.33	15.38	14.60	13.67	12.67	13.04	12.07	12.11	11.19	11.07	11.04	11.38	11.89	10.87	10.50	9.885	9.502	8.108	8.075	7.661	7.447	6.666	6.167	5.643	5.478	4.844	4.888	4.716	4.338	4.090	3.736	3.298	2.959	2.819	3.009	3.338	3.289	2.590	2.048	1.873	1.770	1.762	1.515	1.633	1.856	1.902	1.589	1.429	1.564	2.103	3.491	14.64	42.99	90.01	382.7	1358	950.7	25.48	1.332	0.794
585.0	55.84	57.44	59.21	48.85	38.84	35.98	34.28	36.08	70.70	101.0	56.43	55.01	95.50	1133	5952	451.9	20.32	15.77	13.45	12.61	11.89	11.09	11.16	10.51	10.38	10.16	9.368	9.500	9.834	9.930	9.484	8.779	8.567	8.425	7.253	7.122	6.606	6.293	5.901	5.229	4.803	4.675	4.221	4.121	4.110	3.707	3.566	3.480	2.867	2.590	2.432	2.514	2.767	2.974	2.486	2.065	1.781	1.606	1.533	1.404	1.492	1.528	1.750	1.726	1.385	1.340	1.652	1.714	4.311	10.60	21.19	87.68	495.2	1356	263.5	17.63	1.095
590.0	48.38	55.01	56.19	49.15	35.87	33.19	30.25	35.08	48.22	95.67	70.28	51.31	56.21	299.8	3782	2666	53.69	14.16	12.14	11.11	10.44	9.452	8.970	8.685	8.547	8.494	8.013	8.053	8.230	8.107	8.211	7.256	7.240	6.997	6.024	5.633	5.393	5.166	4.920	4.286	4.321	3.774	3.618	3.587	3.302	3.190	2.995	2.897	2.491	2.329	2.077	1.976	2.029	2.193	2.457	2.163	1.834	1.443	1.375	1.258	1.234	1.245	1.381	1.590	1.443	1.224	1.373	1.346	1.821	3.236	5.610	20.56	113.1	458.1	782.6	582.3	91.76
595.0	45.37	56.11	50.60	46.51	31.32	28.29	27.23	32.08	39.74	69.32	94.48	52.12	48.65	94.69	1024	3946	590.0	14.45	10.21	9.267	9.095	7.561	7.924	7.261	7.137	6.746	6.536	6.740	6.431	6.890	6.479	6.065	5.703	5.509	5.143	4.775	4.414	4.354	4.034	3.767	3.627	3.153	2.895	2.802	3.010	2.711	2.491	2.353	2.234	2.097	1.771	1.509	1.610	1.502	2.048	2.264	1.780	1.492	1.089	1.061	1.133	1.123	1.152	1.235	1.555	1.286	1.227	1.019	1.128	1.503	2.034	5.447	26.08	102.8	202.7	658.4	759.0
600.0	49.94	55.20	49.47	43.15	29.93	27.33	27.64	29.59	35.24	53.10	98.00	60.84	47.55	47.20	257.7	2648	2395	34.33	9.949	8.231	8.096	7.468	6.806	6.755	6.424	5.907	5.724	5.868	5.578	5.804	5.577	5.241	5.021	4.691	4.630	4.098	4.046	3.562	3.387	3.136	2.996	2.876	2.689	2.584	2.615	2.224	2.302	2.149	2.016	1.707	1.710	1.425	1.380	1.375	1.662	1.953	1.934	1.563	1.087	1.009	1.002	0.940	1.024	1.045	1.221	1.314	1.274	1.025	0.983	1.005	1.117	1.966	6.501	23.60	46.10	202.9	769.3
605.0	49.14	49.48	51.35	40.90	24.69	25.13	27.93	31.26	34.09	43.58	85.37	72.63	46.54	37.32	78.83	1004	3777	87.02	9.951	7.748	7.342	6.416	6.056	5.923	5.370	5.181	5.108	4.924	4.882	5.090	4.795	4.494	4.389	4.118	4.006	3.448	3.481	3.306	2.946	2.722	2.667	2.368	2.530	2.218	2.308	2.069	2.195	1.785	1.742	1.435	1.486	1.231	1.270	1.248	1.310	1.532	1.827	1.484	1.230	0.972	1.025	0.943	0.983	0.909	0.874	1.200	1.375	1.013	0.910	0.920	0.895	1.129	2.113	5.927	11.03	46.38	269.6
610.0	51.63	50.27	49.82	39.24	27.10	26.26	26.32	30.67	33.66	41.06	64.45	88.53	50.26	35.72	38.68	256.9	2608	1463	32.04	7.667	6.690	5.784	5.519	5.031	4.451	4.551	4.145	4.119	4.121	4.231	3.889	3.855	3.654	3.492	3.381	2.925	2.917	2.809	2.472	2.282	2.201	2.045	2.065	1.896	1.879	1.837	1.807	1.582	1.429	1.372	1.251	1.141	1.071	1.000	1.109	1.192	1.495	1.432	1.215	0.921	0.904	0.854	0.873	0.882	0.841	0.883	1.379	1.130	0.852	0.841	0.780	0.733	1.020	1.836	3.018	10.91	61.52
615.0	45.73	56.07	49.89	38.89	26.99	25.55	25.42	29.63	33.05	41.78	51.80	84.04	61.08	37.65	30.24	71.23	744.5	2810	397.5	8.280	6.166	5.472	5.249	4.395	4.093	3.720	3.588	3.493	3.564	3.901	3.579	3.407	3.144	2.941	2.681	2.561	2.547	2.377	2.240	1.947	1.896	1.804	1.521	1.600	1.621	1.610	1.561	1.306	1.223	1.091	1.073	0.986	0.900	0.981	0.854	0.943	1.029	1.182	1.311	0.948	0.759	0.810	0.784	0.706	0.746	0.803	1.040	1.045	0.978	0.950	0.772	0.683	0.788	0.922	1.168	2.983	14.21
620.0	42.39	47.22	54.03	34.39	25.61	23.09	22.34	27.95	32.55	37.96	48.66	71.18	71.22	38.13	27.46	29.06	187.0	2109	1496	16.46	6.131	4.828	4.738	3.974	3.639	3.585	2.955	3.332	2.845	3.339	3.080	3.059	2.858	2.484	2.524	2.350	2.229	2.005	1.828	1.705	1.592	1.555	1.462	1.489	1.326	1.346	1.264	1.270	1.052	1.025	0.889	0.923	0.839	0.885	0.815	0.854	0.837	0.934	1.041	0.960	0.797	0.808	0.794	0.708	0.795	0.766	0.892	0.904	0.935	0.840	0.762	0.658	0.668	0.702	0.738	1.120	3.642
625.0	48.54	44.54	51.23	35.00	26.92	21.69	23.79	25.89	32.37	38.05	45.46	61.26	76.92	41.18	27.05	19.58	53.08	877.4	2558	66.16	6.177	4.663	4.424	3.511	3.338	3.155	3.027	2.848	3.018	2.602	2.737	2.785	2.463	2.503	2.287	2.170	2.074	1.925	1.749	1.519	1.444	1.376	1.175	1.271	1.279	1.160	1.119	1.317	0.896	0.873	0.828	0.808	0.727	0.762	0.851	0.840	0.832	0.863	0.875	1.016	0.878	0.787	0.726	0.687	0.682	0.733	0.812	0.763	0.889	0.925	0.717	0.661	0.617	0.741	0.591	0.632	1.263
630.0	42.90	45.07	46.37	32.86	26.30	20.79	23.21	26.44	31.12	36.02	43.83	54.09	69.52	51.87	26.94	16.98	22.02	223.5	1954	1118	21.74	4.750	4.306	3.322	3.118	2.675	2.594	2.374	2.549	2.466	2.460	2.339	2.143	2.111	1.974	1.824	1.832	1.607	1.567	1.388	1.277	1.144	1.055	1.137	1.047	1.049	1.063	1.043	0.853	0.832	0.775	0.773	0.735	0.693	0.725	0.723	0.752	0.703	0.749	0.817	0.878	0.791	0.731	0.640	0.665	0.670	0.736	0.701	0.762	0.807	0.831	0.679	0.597	0.625	0.486	0.497	0.631
635.0	42.82	49.42	45.57	30.48	24.76	19.09	24.91	27.94	30.38	36.65	43.51	52.84	55.77	59.71	30.11	16.43	14.72	57.27	596.4	2367	290.6	5.213	4.357	3.067	2.977	2.206	2.379	2.054	2.215	2.246	2.116	2.084	2.029	1.952	1.700	1.557	1.773	1.486	1.513	1.208	1.247	1.008	1.057	1.062	0.910	0.869	0.973	0.890	0.778	0.777	0.702	0.705	0.656	0.716	0.621	0.689	0.589	0.695	0.665	0.711	0.845	0.768	0.762	0.687	0.624	0.686	0.733	0.627	0.721	0.696	0.718	0.729	0.617	0.600	0.545	0.498	0.490
640.0	33.49	45.27	48.25	28.96	22.91	19.48	22.90	25.80	27.50	34.25	42.75	50.31	49.84	57.97	35.63	17.86	13.27	19.16	151.1	1967	1158	9.686	4.256	2.942	2.737	2.237	2.127	2.014	2.205	2.116	1.939	1.876	1.807	1.736	1.547	1.488	1.642	1.358	1.364	1.132	1.102	1.073	0.895	0.952	0.943	0.830	0.815	0.858	0.732	0.722	0.629	0.627	0.636	0.612	0.552	0.679	0.623	0.609	0.629	0.621	0.659	0.749	0.659	0.649	0.559	0.635	0.720	0.587	0.641	0.647	0.667	0.709	0.667	0.627	0.586	0.466	0.430
645.0	39.76	47.63	46.89	30.09	22.80	21.60	21.53	24.72	27.73	34.34	42.58	48.01	46.09	52.86	41.93	18.64	14.58	11.10	40.48	916.9	2185	49.64	4.604	3.134	2.617	2.295	2.216	1.771	2.175	1.725	1.675	1.805	1.885	1.784	1.589	1.628	1.515	1.264	1.337	1.158	1.003	0.945	0.773	0.874	0.921	0.778	0.799	0.830	0.631	0.783	0.638	0.588	0.611	0.636	0.555	0.663	0.685	0.597	0.606	0.508	0.656	0.714	0.689	0.608	0.591	0.586	0.632	0.688	0.617	0.634	0.581	0.598	0.705	0.669	0.532	0.464	0.404
650.0	42.89	43.80	51.29	31.78	25.80	18.87	21.95	24.66	28.01	34.93	40.70	48.03	44.76	44.66	45.57	18.48	13.53	9.248	14.76	266.3	2342	397.3	5.715	2.959	2.738	2.284	2.161	1.976	1.916	1.731	1.866	1.656	1.663	1.647	1.607	1.510	1.510	1.424	1.235	1.060	0.937	0.887	0.839	0.822	0.811	0.745	0.717	0.799	0.623	0.725	0.623	0.535	0.527	0.581	0.522	0.618	0.600	0.599	0.554	0.508	0.602	0.584	0.609	0.611	0.612	0.594	0.609	0.607	0.584	0.695	0.526	0.610	0.606	0.658	0.558	0.498	0.427
