Sample:	'1
File name:	L2025090911ÖÂ·áÂ·ÇÅ.FD3
Run date:	'17:38:10, 09/09/2025
Operator:	Administrator
Comment:	'

Instrument
Model:	F-2700 FL Spectrophotometer
Serial number:	3064-004
ROM Version:	4J14000 07

Instrument parameters
Measurement type:	3-D scan
Data mode:	Fluorescence
EX  Start WL:	220.0 nm
EX  End WL:	600.0 nm
EX Sampling interval:	5.0 nm
EM  Start WL:	230.0 nm
EM  End WL:	650.0 nm
EM Sampling interval:	5.0 nm
Scan speed:	12000 nm/min
EX Slit:	5.0 nm
EM Slit:	5.0 nm
PMT Voltage:	700 V
Response:	Auto 
Corrected spectra:	Off
Contour interval:	50.000

Peak integration
Integration method:	Rectangular
Sensitivity:	1
Threshold:	1.000

Peaks
No.	ApexEX/EM(nm)	Height(Data)
1	225.0/590.0	36.40
2	225.0/640.0	26.37
3	230.0/570.0	47.15
4	230.0/615.0	35.44
5	230.0/630.0	27.58
6	235.0/345.0	 1005
7	235.0/595.0	37.64
8	235.0/625.0	26.80
9	240.0/520.0	274.3
10	245.0/530.0	233.6
11	245.0/605.0	28.69
12	250.0/545.0	217.5
13	255.0/280.0	648.9
14	255.0/555.0	204.2
15	260.0/285.0	824.2
16	260.0/565.0	179.8
17	265.0/290.0	903.8
18	265.0/580.0	167.2
19	270.0/295.0	 1271
20	270.0/595.0	147.8
21	275.0/305.0	 1609
22	275.0/375.0	 1346
23	275.0/605.0	146.8
24	280.0/310.0	 1589
25	280.0/340.0	 1368
26	280.0/360.0	 1338
27	280.0/615.0	119.7
28	285.0/315.0	 1603
29	285.0/630.0	97.91
30	290.0/320.0	 1489
31	290.0/645.0	83.26
32	305.0/340.0	 1029
33	310.0/345.0	909.1
34	315.0/355.0	829.1
35	320.0/360.0	882.5
36	325.0/365.0	867.8
37	330.0/375.0	806.5
38	335.0/380.0	841.5
39	340.0/385.0	802.4
40	350.0/400.0	721.0
41	365.0/420.0	580.3
42	430.0/505.0	85.22
43	445.0/525.0	50.97
44	450.0/530.0	41.38
45	460.0/340.0	4.245
46	460.0/545.0	27.82
47	495.0/270.0	2.192
48	505.0/275.0	2.932
49	510.0/280.0	3.197
50	520.0/285.0	3.893
51	530.0/290.0	4.046
52	545.0/300.0	7.057
53	550.0/305.0	7.677
54	560.0/310.0	6.978
55	570.0/315.0	7.327
56	575.0/290.0	60.86
57	575.0/320.0	7.500
58	585.0/325.0	7.516

Data points
	220.0	225.0	230.0	235.0	240.0	245.0	250.0	255.0	260.0	265.0	270.0	275.0	280.0	285.0	290.0	295.0	300.0	305.0	310.0	315.0	320.0	325.0	330.0	335.0	340.0	345.0	350.0	355.0	360.0	365.0	370.0	375.0	380.0	385.0	390.0	395.0	400.0	405.0	410.0	415.0	420.0	425.0	430.0	435.0	440.0	445.0	450.0	455.0	460.0	465.0	470.0	475.0	480.0	485.0	490.0	495.0	500.0	505.0	510.0	515.0	520.0	525.0	530.0	535.0	540.0	545.0	550.0	555.0	560.0	565.0	570.0	575.0	580.0	585.0	590.0	595.0	600.0
230.0	19.27	650.0	 3105	 2310	129.0	16.17	8.447	6.712	4.316	4.812	4.990	4.532	3.753	3.851	3.776	3.032	2.928	2.336	2.014	1.655	1.955	1.509	1.473	1.354	1.269	1.259	1.214	1.176	0.972	0.842	1.057	0.775	0.811	0.677	0.718	0.659	0.644	0.607	0.535	0.547	0.633	0.551	0.645	0.456	0.453	0.534	1.628	5.693	9.067	6.783	2.583	0.697	0.451	0.365	0.290	0.249	0.391	0.239	0.295	0.202	0.265	0.200	0.185	0.178	0.218	0.191	0.249	0.191	0.136	0.152	0.146	0.184	0.129	0.159	0.118	0.182	0.071
235.0	51.66	174.8	 1377	 4799	 3173	285.7	9.003	6.226	4.371	5.200	5.010	4.568	4.000	4.205	2.971	2.421	2.864	1.804	2.016	2.067	1.946	2.007	1.419	1.606	1.403	1.439	1.161	1.098	0.996	0.819	0.876	0.492	0.966	0.748	0.631	0.570	0.837	0.601	0.546	0.557	0.367	0.525	0.606	0.760	0.524	0.482	0.786	1.551	3.737	6.911	8.997	8.315	3.519	0.686	0.345	0.393	0.386	0.176	0.345	0.189	0.173	0.232	0.204	-0.026	0.428	0.294	0.200	0.288	0.303	0.190	0.222	0.079	0.056	0.023	0.065	0.205	0.062
240.0	52.72	99.23	351.1	 2839	 7639	 4160	154.0	6.545	7.003	5.397	5.371	4.334	4.563	4.385	3.662	2.556	2.681	2.343	2.093	0.881	2.264	1.944	1.661	1.503	1.564	1.133	0.691	1.135	1.172	0.929	0.802	0.627	0.818	0.586	0.487	0.625	0.697	0.613	0.619	0.632	0.326	0.727	0.503	0.457	0.806	0.824	0.662	0.879	1.046	2.241	5.414	12.16	12.89	8.279	2.657	0.524	0.313	0.400	0.314	0.243	0.348	0.403	0.282	0.098	0.252	0.332	0.155	0.106	0.105	0.126	0.192	0.204	0.118	0.087	0.063	0.085	0.189
245.0	34.66	112.0	147.8	763.5	 5469	9999.9	861.7	33.00	5.547	7.886	6.211	4.180	4.031	6.209	3.676	3.425	2.412	2.450	2.364	1.731	2.405	1.939	1.821	1.337	1.613	1.255	1.071	0.926	1.374	0.932	0.886	0.877	0.671	0.494	0.540	0.630	0.738	0.704	0.651	0.607	0.340	0.489	0.533	0.556	0.554	0.666	0.857	0.912	0.664	0.794	1.605	4.617	10.31	15.30	14.33	7.502	1.769	0.396	0.331	0.261	0.424	0.304	0.373	0.189	0.260	0.203	0.204	0.356	0.034	0.099	0.159	0.258	0.109	0.108	0.028	0.124	0.005
250.0	18.08	62.77	160.9	272.2	 1468	 7516	 6655	 2540	197.7	12.34	7.854	6.331	5.861	5.329	4.471	3.895	2.810	2.639	2.436	1.766	1.912	1.754	1.953	1.393	1.758	1.409	0.995	1.295	0.947	1.074	1.063	0.892	0.763	0.690	0.685	0.597	0.570	0.574	0.599	0.671	0.585	0.519	0.419	0.425	0.479	0.494	0.914	0.839	0.922	1.073	0.882	1.398	2.697	5.446	9.817	15.25	18.06	14.09	7.576	1.748	0.473	0.347	0.277	0.182	0.262	0.309	0.184	0.217	0.087	0.069	0.188	0.277	0.139	0.146	0.029	0.145	0.211
255.0	17.59	23.48	83.88	257.3	467.1	 1743	 3320	 6518	 3957	259.5	14.31	11.55	8.558	7.870	6.258	4.513	3.334	2.571	2.630	2.212	2.125	1.962	2.150	1.158	1.264	1.279	1.479	0.947	1.347	1.081	0.941	0.851	0.827	0.604	0.595	0.494	0.408	0.541	0.709	0.871	0.697	0.787	0.518	0.347	0.441	0.523	0.645	0.542	0.658	0.990	1.216	1.345	1.117	1.572	2.491	4.010	7.771	18.26	30.09	25.01	10.55	1.904	0.595	0.156	0.160	0.304	0.201	0.216	0.297	0.213	0.267	0.147	-0.021	0.174	0.097	0.125	0.259
260.0	16.30	14.11	37.31	176.8	367.6	495.6	850.6	 3454	 8717	 3353	137.4	11.64	10.93	12.28	6.614	5.310	3.786	2.363	3.206	2.267	2.276	1.983	1.869	1.720	1.738	1.323	1.387	1.323	1.466	1.331	0.783	0.866	0.887	0.451	1.003	0.680	0.952	0.426	0.723	0.770	0.645	0.612	0.710	0.612	0.442	0.480	0.409	0.339	0.501	0.687	0.765	1.504	1.616	1.207	0.810	1.353	2.263	5.631	15.51	31.01	38.96	25.20	7.174	0.741	0.234	0.244	0.198	0.339	0.280	0.253	0.239	0.216	0.137	0.239	0.185	0.065	0.333
265.0	11.81	16.18	26.28	72.99	299.2	399.3	243.4	929.1	 5414	9999.9	 2554	56.80	14.25	14.81	8.434	4.931	3.886	4.560	3.141	3.113	2.230	2.165	1.625	1.863	1.543	1.492	1.291	1.159	1.374	1.444	0.662	1.296	1.119	0.901	0.988	0.612	0.542	0.392	0.808	0.797	0.393	0.510	0.676	0.447	0.486	0.710	0.475	0.549	0.517	0.563	0.444	1.039	1.580	2.032	1.397	0.920	0.886	1.650	4.091	10.28	25.75	45.56	42.74	20.75	3.163	0.338	0.573	0.309	0.256	0.157	0.276	0.180	0.166	0.231	0.194	0.335	0.214
270.0	18.35	24.57	30.76	39.09	121.5	335.0	386.3	301.2	 1421	 5420	9999.9	 5545	167.7	24.59	9.132	6.907	5.382	4.811	4.071	3.445	3.006	2.290	1.830	1.716	1.561	1.686	1.259	1.414	1.207	1.485	0.966	1.137	0.954	0.948	0.693	0.716	0.663	0.578	0.655	0.535	0.519	0.570	0.549	0.682	0.546	0.655	0.578	0.563	0.590	0.482	0.510	0.541	0.754	1.258	1.679	2.192	1.916	1.108	1.267	2.634	6.502	14.63	26.59	39.89	43.60	31.23	16.21	3.471	0.503	0.192	0.244	0.249	0.302	0.212	0.173	0.219	0.266
275.0	38.47	57.61	59.25	47.48	60.46	130.9	404.7	519.0	414.7	 1294	 3893	9999.9	 8888	225.8	15.40	9.095	8.249	5.563	5.423	3.831	3.370	2.255	2.341	2.526	1.597	1.445	1.592	1.307	1.358	1.542	0.926	1.096	1.056	1.109	0.697	0.859	0.761	0.611	0.714	0.609	0.517	0.554	0.630	0.681	0.780	0.685	0.647	0.873	0.646	0.422	0.556	0.582	0.676	0.619	0.631	1.520	2.475	2.932	2.044	1.292	1.839	3.779	6.487	10.25	18.33	39.75	67.99	47.55	21.42	2.321	0.351	0.312	0.350	0.186	0.067	0.231	0.365
280.0	79.95	85.41	105.1	78.05	50.53	79.25	202.8	648.9	457.3	408.0	 1052	 5061	9999.9	9999.9	112.5	12.93	9.089	6.773	5.980	3.609	3.777	2.729	2.795	2.648	1.598	1.543	1.731	1.631	1.649	1.140	1.212	1.005	1.340	0.954	0.745	0.797	0.666	0.776	0.741	0.748	0.793	0.626	0.938	0.736	0.709	1.023	0.963	0.880	0.840	0.657	0.585	0.711	0.531	0.637	0.523	0.589	1.084	2.213	3.197	3.191	1.462	1.452	1.969	2.962	5.098	11.39	30.68	63.72	82.51	41.25	10.50	0.902	0.380	0.368	0.012	0.311	0.309
285.0	109.8	140.9	172.5	128.7	69.82	81.11	107.8	376.3	824.2	395.0	432.2	 1449	 6970	9999.9	 1848	53.64	12.25	8.125	5.983	4.787	3.920	3.088	2.570	2.423	1.696	1.985	2.006	1.195	1.815	1.280	1.291	1.292	1.236	1.122	1.013	0.951	1.074	0.885	0.776	1.172	1.021	0.935	1.035	1.091	0.995	1.083	1.108	1.117	0.932	0.928	0.717	0.832	0.765	0.643	0.578	0.404	0.748	1.346	1.851	3.813	3.893	2.543	1.234	1.784	2.201	3.578	7.988	19.15	47.62	81.31	55.22	30.17	4.546	0.455	0.300	0.211	0.246
290.0	149.9	224.0	238.9	196.4	121.6	112.3	115.5	207.2	555.4	903.8	500.2	660.1	 1974	 9972	9999.9	 6322	101.8	13.82	8.217	6.532	4.603	3.905	3.101	3.032	2.559	2.312	2.030	1.758	1.811	1.608	1.272	1.479	1.180	1.216	1.001	0.799	1.033	1.212	1.298	1.225	1.192	1.089	1.246	1.213	1.229	1.460	1.396	1.400	1.144	1.075	0.952	0.958	0.715	0.568	0.680	0.642	0.925	1.124	1.157	1.927	2.834	3.863	4.046	3.252	2.188	2.303	3.148	5.901	12.33	24.17	38.23	60.86	60.33	54.30	20.23	4.321	0.525
295.0	190.3	270.8	307.1	243.3	182.5	154.6	163.5	215.0	347.3	681.6	 1271	784.6	870.7	 2539	 3490	9999.9	 9157	128.5	13.01	8.949	6.261	5.119	4.143	3.027	3.078	2.184	2.074	1.670	2.002	2.086	1.621	1.656	1.423	1.175	1.129	1.131	1.006	1.357	1.255	1.171	1.400	1.269	1.255	1.250	1.500	1.291	1.374	1.409	1.212	1.308	0.934	1.012	0.882	0.924	1.023	1.103	1.091	1.390	1.035	1.367	1.712	2.356	2.998	5.449	5.705	3.885	2.823	2.998	4.692	7.136	9.879	15.27	21.02	53.24	92.52	56.32	28.73
300.0	202.8	288.8	337.3	301.1	221.0	199.6	211.9	254.0	350.4	520.8	 1162	 1399	776.5	960.2	 1037	 4242	9999.9	 6502	86.17	10.43	8.518	5.754	4.614	3.835	3.836	2.547	2.438	2.101	2.047	1.923	1.646	1.613	1.234	1.338	1.459	0.949	0.934	1.416	1.456	1.302	1.262	1.187	1.488	1.440	1.674	1.650	1.431	1.848	1.565	1.698	1.190	1.175	0.793	0.897	0.934	1.084	1.148	1.543	1.179	1.723	1.535	2.143	2.437	3.398	5.728	7.057	5.221	3.399	3.064	3.378	4.046	4.942	5.860	13.89	36.26	75.24	106.4
305.0	211.6	317.1	393.1	345.4	265.7	235.7	256.7	314.8	381.5	527.0	868.6	 1609	 1231	715.2	567.3	 1180	 5777	9999.9	 1227	44.81	10.25	7.354	6.046	4.311	3.807	3.100	2.659	2.113	1.909	1.672	2.189	1.697	1.501	1.261	1.230	1.007	1.347	1.444	1.485	1.245	1.670	1.358	1.300	1.447	1.462	1.608	1.584	1.860	1.703	1.631	1.399	1.361	1.182	1.316	1.139	1.310	1.628	1.569	1.258	1.794	1.768	2.126	2.371	2.978	3.895	5.839	7.677	6.550	4.310	3.251	3.400	2.732	2.732	4.518	9.219	21.49	54.46
310.0	206.1	321.6	410.4	386.4	303.6	273.9	310.2	373.3	460.3	609.5	815.6	 1178	 1589	 1182	604.5	546.2	 1526	 5302	9999.9	 4871	73.49	10.74	6.840	5.203	4.409	3.679	2.824	2.677	2.070	1.873	2.183	1.739	1.841	1.406	1.107	1.176	1.339	1.462	1.617	1.584	1.360	1.467	1.589	1.409	1.625	1.770	1.654	1.864	1.722	1.526	1.515	1.624	1.263	1.486	1.301	1.410	1.746	1.735	1.851	1.946	2.350	2.153	2.472	3.087	3.322	3.979	5.305	6.660	6.978	5.669	4.110	3.037	2.661	2.480	3.335	5.986	13.26
315.0	222.2	364.5	449.4	425.2	335.4	315.1	353.7	425.6	527.5	669.8	855.3	 1036	 1239	 1603	 1030	511.6	586.4	 1351	 3065	9999.9	 7070	97.14	10.72	7.037	4.999	4.054	2.972	3.114	2.145	2.493	1.938	1.745	1.742	1.084	1.191	1.432	1.353	1.614	1.489	1.541	1.319	1.604	1.465	1.312	1.662	1.551	1.680	1.794	1.904	1.599	1.622	1.608	1.692	1.475	1.452	1.815	1.740	1.783	1.923	2.027	2.461	2.457	2.603	3.271	3.520	3.812	4.134	4.616	5.562	6.317	7.327	5.968	3.929	3.015	2.709	3.054	4.131
320.0	242.3	429.0	568.9	520.5	378.8	350.9	383.0	465.2	586.6	715.3	934.3	 1067	 1183	 1378	 1489	726.3	448.4	519.1	822.9	 3831	9999.9	 5367	66.00	9.943	6.422	3.975	3.762	3.689	2.426	2.636	1.856	2.419	1.595	1.111	1.324	1.166	1.510	1.597	1.480	1.315	1.588	1.659	1.321	1.778	1.797	1.752	1.959	2.322	2.077	1.811	1.580	1.945	1.513	1.736	1.780	1.623	2.016	1.867	2.054	2.509	2.617	2.507	3.370	3.406	3.798	3.727	4.266	4.244	4.903	5.192	6.373	7.500	6.750	4.175	3.034	2.541	2.491
325.0	282.4	491.5	728.7	649.1	447.7	382.5	435.2	505.3	628.1	797.1	986.2	 1149	 1242	 1238	 1457	 1156	523.6	384.5	355.6	993.5	 5374	9999.9	912.5	37.78	8.306	5.782	4.574	3.866	3.020	2.652	2.030	2.487	1.683	1.681	1.393	1.396	1.366	1.694	1.643	1.313	1.445	1.672	1.673	1.746	1.852	2.204	2.463	2.808	3.173	2.322	1.951	1.952	1.578	1.637	1.806	1.725	1.934	1.928	2.467	2.644	3.329	2.590	3.691	3.853	4.652	4.116	4.679	4.645	4.878	5.005	5.044	5.582	6.652	7.516	4.481	3.433	2.611
330.0	301.7	536.5	831.0	798.3	555.1	443.8	463.3	551.0	670.6	836.9	 1032	 1173	 1291	 1256	 1209	 1226	936.3	479.3	314.8	383.1	 1361	 4885	 9797	 3789	58.65	9.743	6.768	4.405	3.696	3.189	2.306	2.554	1.891	1.692	1.446	1.431	1.162	1.382	1.604	1.674	1.508	1.830	1.851	1.643	1.963	2.267	2.684	3.108	3.480	3.294	2.189	2.396	1.893	1.899	2.223	2.053	2.097	2.287	2.282	2.810	2.981	3.132	3.472	4.124	4.218	4.237	4.432	5.096	5.134	5.328	4.940	4.813	5.425	6.284	6.252	6.063	4.128
335.0	312.7	585.1	935.5	895.8	667.4	542.5	518.2	598.0	707.3	871.6	 1056	 1210	 1333	 1317	 1193	 1037	 1051	857.6	409.1	305.2	470.1	 1204	 3029	9999.9	 5711	79.02	8.760	5.973	4.815	3.263	2.961	2.895	2.156	1.731	1.635	1.412	1.277	1.615	1.774	1.836	1.544	1.793	1.976	2.035	2.248	2.643	2.931	3.271	4.036	3.611	2.434	2.661	2.411	2.219	2.181	2.172	2.421	2.647	2.328	3.085	2.896	3.332	3.721	4.332	4.077	4.681	4.817	4.974	5.557	5.671	5.744	5.336	5.018	4.802	4.692	5.299	5.479
340.0	322.2	582.4	965.2	984.5	737.3	602.6	587.6	643.1	747.1	907.9	 1084	 1238	 1368	 1339	 1221	 1023	926.9	 1029	625.9	347.3	310.9	417.7	793.4	 4006	9999.9	 4385	53.81	8.649	5.967	4.468	3.074	3.181	2.278	2.025	1.911	1.498	1.554	1.646	1.681	1.776	1.672	1.741	2.146	1.816	2.670	2.218	3.234	3.563	4.245	3.800	2.627	2.825	2.786	2.399	2.684	2.263	2.533	2.689	2.618	3.165	3.482	3.765	3.931	4.162	4.507	4.801	5.533	5.262	5.721	5.459	5.615	5.364	5.703	4.786	4.343	4.557	5.035
345.0	320.3	597.7	916.8	 1005	811.2	681.4	653.1	677.5	776.9	917.1	 1089	 1232	 1337	 1331	 1246	 1025	865.2	894.7	909.1	463.7	319.8	285.9	315.1	 1028	 5483	9999.9	751.3	32.90	7.841	5.531	3.910	3.320	2.330	1.766	1.792	1.462	1.606	1.493	1.602	1.687	1.518	1.533	1.811	2.066	2.416	2.232	2.838	3.370	3.655	3.503	2.930	2.775	3.091	2.392	2.736	2.462	2.954	3.008	2.596	2.928	3.444	3.347	3.969	3.896	4.576	4.799	5.305	5.139	5.226	5.406	5.684	5.143	5.768	4.766	4.585	4.881	4.387
350.0	306.3	572.1	882.9	988.2	874.0	793.1	752.5	752.5	850.2	969.8	 1104	 1232	 1315	 1327	 1251	 1073	899.7	802.5	867.1	779.0	469.0	331.2	274.8	384.9	 1393	 4986	 8747	 3194	51.38	8.759	5.566	4.129	2.889	2.372	1.838	1.671	1.831	1.801	1.720	1.527	1.627	1.828	1.750	2.016	2.142	2.429	2.703	3.087	3.370	3.138	2.914	3.401	3.388	2.940	2.838	3.254	3.096	3.173	3.132	3.422	3.591	3.574	3.901	4.104	4.210	4.702	4.920	5.258	5.181	5.578	5.209	5.444	5.610	5.125	5.063	4.906	4.461
355.0	278.0	507.6	830.0	968.9	928.0	878.1	847.7	886.6	968.8	 1089	 1162	 1245	 1332	 1324	 1254	 1126	962.5	846.7	770.0	829.1	779.8	470.1	341.0	309.6	471.4	 1227	 2948	 9493	 4902	69.99	8.403	5.153	3.770	2.515	2.574	2.125	1.610	2.293	1.692	1.460	1.728	1.605	1.672	1.748	2.206	2.317	2.444	3.078	3.161	3.304	2.974	3.498	3.452	3.294	3.140	3.367	3.241	3.302	3.497	4.063	3.610	4.162	4.279	4.302	4.737	4.715	5.209	5.323	5.152	5.566	5.454	5.965	5.242	5.016	5.039	5.371	4.773
360.0	289.2	488.2	791.5	963.5	965.1	952.3	956.9	976.7	 1029	 1133	 1198	 1261	 1338	 1337	 1275	 1151	 1012	916.0	797.6	771.4	882.5	678.5	422.7	339.3	309.0	421.3	768.9	 4049	9999.9	 3741	47.93	7.341	4.781	3.249	2.594	2.166	1.997	1.983	1.813	1.646	1.697	1.720	1.743	1.975	2.183	2.440	2.533	3.253	2.757	3.221	2.876	3.559	3.470	3.555	3.458	3.723	3.344	3.219	3.218	3.996	4.143	4.602	4.295	4.607	4.791	4.688	5.580	4.923	5.685	5.408	5.821	5.814	5.200	5.536	5.112	5.376	5.063
365.0	268.3	475.2	776.8	950.5	 1009	 1027	 1052	 1062	 1107	 1210	 1226	 1298	 1331	 1332	 1278	 1166	 1044	949.1	843.2	774.2	810.4	867.8	562.7	396.5	318.3	276.7	300.8	 1038	 5722	9999.9	674.4	27.02	6.073	4.337	3.015	2.445	1.945	1.955	1.879	2.067	1.829	1.895	1.524	1.887	2.378	2.424	2.418	3.190	2.880	3.072	2.962	3.516	3.710	3.756	3.970	3.713	4.144	3.608	3.884	4.077	3.978	4.597	4.751	4.722	5.292	4.423	4.686	4.973	5.351	5.310	5.426	5.131	5.329	5.638	5.339	5.483	5.627
370.0	258.1	455.1	736.5	937.1	 1025	 1066	 1106	 1100	 1166	 1237	 1273	 1307	 1325	 1317	 1276	 1191	 1094	993.6	911.6	832.5	789.8	831.5	802.4	546.8	386.9	308.9	246.4	357.7	 1444	 5123	 8216	 2775	42.81	7.014	4.191	3.207	2.150	1.934	2.118	1.779	1.686	1.896	1.723	1.819	2.047	2.235	2.392	2.775	3.097	3.160	3.029	3.607	3.671	3.584	4.056	3.854	4.392	4.061	4.305	4.409	4.522	4.644	5.115	4.853	5.118	5.065	4.978	5.231	5.120	5.488	5.575	5.593	5.505	5.896	5.769	5.562	6.015
375.0	275.9	470.6	683.6	925.8	 1039	 1109	 1158	 1152	 1197	 1270	 1314	 1346	 1311	 1307	 1290	 1185	 1113	 1047	964.6	896.0	836.6	789.5	806.5	790.0	513.4	385.5	297.3	258.4	445.6	 1230	 3020	 9016	 4014	54.48	6.580	4.220	2.755	2.492	2.132	2.050	1.886	2.251	1.825	1.780	2.007	2.102	2.386	2.849	2.857	2.945	2.834	3.580	3.712	3.619	4.169	3.863	4.216	4.370	4.386	4.352	5.067	4.480	4.881	5.014	5.183	4.779	5.256	5.010	5.308	5.939	5.626	5.482	5.641	5.383	5.930	5.653	5.703
380.0	258.7	436.1	688.0	903.6	 1012	 1148	 1173	 1189	 1211	 1275	 1315	 1338	 1317	 1304	 1264	 1189	 1121	 1065	990.4	926.1	876.5	805.2	762.1	841.5	680.5	462.3	350.1	270.3	250.0	381.1	768.9	 4180	 9650	 2842	34.16	5.621	3.568	3.090	2.807	2.261	2.097	1.768	1.794	2.124	2.127	2.234	2.247	2.682	2.644	3.048	2.995	3.546	3.788	3.847	4.006	4.273	4.401	4.203	4.651	4.733	4.860	4.940	5.463	5.169	5.403	4.504	4.891	4.920	5.447	5.558	5.734	5.266	5.686	5.563	5.872	6.074	5.564
385.0	242.6	435.2	676.8	899.5	 1028	 1151	 1172	 1217	 1228	 1259	 1311	 1304	 1297	 1290	 1244	 1184	 1123	 1081	 1003	951.4	893.7	843.6	783.9	775.8	802.4	571.4	402.7	311.4	244.3	219.2	266.0	 1061	 5609	 8700	518.9	17.21	4.663	3.704	3.075	2.497	2.359	2.079	1.938	2.105	2.238	1.933	2.145	2.667	2.650	2.866	2.821	3.589	3.822	4.292	3.686	4.348	4.357	4.011	4.958	4.427	4.281	4.857	5.288	4.664	5.199	5.171	5.175	4.564	5.167	5.210	5.438	5.096	5.699	5.609	5.835	5.874	5.776
390.0	242.6	425.2	632.9	865.9	973.5	 1129	 1152	 1191	 1210	 1269	 1267	 1277	 1274	 1250	 1209	 1146	 1109	 1057	 1012	960.2	920.8	868.2	809.0	755.1	761.2	728.3	527.8	375.9	289.6	228.1	186.8	325.6	 1416	 4631	 6447	 2104	32.34	5.580	3.825	3.271	2.466	2.068	1.877	1.972	2.112	2.174	2.138	2.503	2.721	2.739	2.813	3.609	3.867	4.126	3.700	4.200	4.597	4.458	4.528	4.894	4.332	4.670	4.917	4.648	5.080	5.082	5.033	5.002	5.172	5.092	5.438	5.075	5.053	5.889	5.746	5.915	5.495
395.0	234.3	407.7	618.5	814.8	953.1	 1100	 1155	 1180	 1219	 1238	 1249	 1249	 1259	 1223	 1163	 1117	 1075	 1036	 1007	964.7	931.9	889.6	825.3	775.7	729.1	721.4	700.2	486.1	349.0	278.1	210.5	191.3	397.2	 1089	 2544	 7189	 3074	43.57	5.986	4.158	3.278	2.493	2.502	2.313	2.228	2.349	1.966	2.349	2.665	2.614	2.826	3.701	3.263	3.818	4.189	3.994	4.376	4.905	4.452	4.814	4.337	4.439	4.772	4.557	4.715	4.756	4.824	4.968	4.844	5.192	5.267	5.061	4.879	5.483	5.742	5.442	5.515
400.0	235.8	386.5	616.0	779.8	949.5	 1082	 1129	 1183	 1200	 1223	 1235	 1206	 1200	 1192	 1128	 1092	 1058	 1045	995.8	968.0	937.3	892.8	843.6	790.3	735.0	688.1	721.0	606.6	411.0	317.4	238.5	186.4	186.4	309.8	635.5	 3535	 7365	 2114	26.89	4.789	3.413	2.804	2.812	2.384	2.301	2.340	2.307	2.622	2.644	2.483	2.977	3.405	3.698	4.228	4.212	3.740	4.555	4.734	4.676	4.656	4.187	4.476	4.705	4.541	4.437	4.749	5.158	4.569	5.207	5.016	5.195	5.283	5.119	5.076	5.097	5.696	5.366
405.0	235.4	397.0	612.6	755.0	934.3	 1070	 1108	 1134	 1191	 1192	 1205	 1186	 1171	 1151	 1102	 1065	 1020	 1008	976.4	953.4	913.2	886.8	843.2	798.0	741.4	687.3	669.0	676.1	496.1	357.1	275.4	206.6	162.6	151.2	198.1	898.4	 4516	 6516	430.2	12.22	4.858	3.436	2.810	2.308	2.720	2.258	2.188	2.970	2.318	2.607	2.608	3.361	3.293	3.824	3.792	3.587	4.545	4.458	4.541	4.784	4.314	4.427	4.285	4.578	4.283	4.031	4.643	4.460	5.102	5.082	5.219	4.719	5.260	4.645	4.972	5.301	5.007
410.0	237.4	380.5	546.7	751.4	911.3	 1018	 1091	 1118	 1173	 1182	 1182	 1153	 1134	 1101	 1059	 1019	979.2	975.9	945.3	929.3	899.7	869.2	833.1	798.2	750.6	694.4	647.7	637.9	606.9	455.9	324.8	247.7	184.2	139.4	118.5	251.1	 1138	 3606	 4306	 1644	27.74	4.895	3.646	2.833	2.701	2.304	2.096	2.702	2.570	2.511	2.363	3.290	3.459	3.609	3.812	3.777	4.094	4.385	4.403	4.402	4.670	4.582	4.252	4.410	4.112	4.350	4.473	4.643	4.974	4.916	4.806	4.766	5.139	4.866	5.129	5.134	5.340
415.0	228.1	362.6	506.2	735.7	855.6	975.0	 1046	 1113	 1133	 1143	 1162	 1110	 1093	 1050	 1018	962.3	940.5	913.1	901.5	891.0	873.2	838.0	815.8	783.7	747.8	699.1	646.4	598.8	588.6	573.8	401.5	286.5	213.7	160.8	121.3	124.0	299.8	840.7	 1846	 5424	 2448	38.20	4.662	3.792	3.002	2.571	2.260	2.397	2.532	2.257	2.462	2.982	3.094	3.705	3.786	3.813	4.207	4.108	4.380	3.957	4.686	4.067	4.101	3.984	4.760	4.536	4.109	5.034	4.556	4.433	4.544	4.724	4.870	4.500	4.609	4.723	4.969
420.0	215.8	348.8	525.3	707.9	817.3	954.7	 1044	 1084	 1127	 1146	 1111	 1103	 1063	 1018	978.2	932.2	903.0	877.8	876.2	848.3	841.1	822.6	789.5	774.9	736.9	696.2	646.6	600.7	558.2	580.3	479.8	330.6	239.8	182.8	131.6	104.7	122.3	225.9	457.9	 2692	 5599	459.8	22.04	4.343	2.990	2.841	2.352	2.596	2.607	2.534	2.177	2.998	3.202	3.464	3.673	3.966	3.529	4.210	3.890	4.001	3.964	4.348	4.333	4.303	4.267	4.440	4.749	4.099	4.121	4.667	4.241	4.177	4.178	4.307	4.271	4.448	4.704
425.0	243.2	323.3	525.3	694.7	801.3	916.5	992.7	 1062	 1105	 1112	 1097	 1081	 1034	990.0	951.4	894.6	859.4	844.6	839.7	819.0	813.4	788.9	777.0	750.2	724.9	689.9	643.0	603.7	554.7	538.7	532.4	387.7	265.5	201.4	149.0	113.3	92.79	96.36	135.4	682.9	 3456	 4672	378.3	9.585	3.982	3.191	2.566	2.554	2.262	2.568	2.267	2.955	3.277	2.988	3.396	3.695	3.924	4.060	3.774	3.905	4.354	4.504	4.022	3.857	4.010	4.334	4.499	3.871	3.891	4.658	4.565	4.047	3.749	4.094	4.545	4.100	4.444
430.0	368.9	309.0	488.8	638.7	752.3	863.4	949.4	 1022	 1059	 1083	 1069	 1033	 1000	949.5	909.5	847.4	820.6	806.0	790.1	774.2	770.2	754.4	742.1	725.6	702.3	675.4	641.0	598.2	554.1	513.6	498.6	456.8	330.3	226.1	170.1	131.4	99.87	78.92	73.02	183.9	870.9	 2654	 3512	 1415	24.71	4.797	3.099	2.685	2.404	2.449	2.168	2.749	3.215	3.039	3.304	3.369	3.946	3.735	4.191	4.118	3.876	4.249	4.013	4.376	4.170	4.024	3.879	3.929	3.965	4.039	4.202	4.164	3.952	4.019	4.084	4.386	4.238
435.0	698.3	336.4	452.7	609.2	728.2	807.9	905.8	997.6	 1047	 1062	 1044	 1010	967.5	914.5	858.5	800.1	760.9	759.1	749.7	731.0	737.4	709.3	713.5	698.0	679.2	659.1	629.7	597.6	560.6	510.4	465.9	439.9	402.9	279.2	190.9	151.5	115.0	88.17	70.13	79.61	224.4	617.8	 1444	 4362	 2068	33.77	4.238	3.251	2.679	2.635	2.466	2.751	3.142	2.842	3.243	3.403	3.385	3.383	3.924	4.024	4.034	4.202	3.768	4.027	3.820	3.847	3.600	4.387	4.119	4.043	4.372	3.540	3.804	3.827	4.123	4.042	3.943
440.0	865.4	568.1	452.8	592.9	685.5	768.7	873.3	977.6	 1010	 1037	 1017	982.5	925.8	878.3	820.9	778.2	740.9	724.1	708.6	699.3	692.1	676.0	675.9	670.0	650.5	639.3	620.5	593.1	554.0	510.2	458.5	412.4	405.9	334.1	215.3	165.0	128.3	98.47	76.35	62.57	84.87	163.3	355.6	 2153	 4644	416.2	18.92	4.491	3.190	2.809	2.637	2.826	3.085	3.304	3.212	3.424	3.652	3.982	3.829	3.525	3.990	4.045	4.094	4.375	4.095	3.889	3.982	3.464	3.689	3.820	3.999	3.816	3.842	3.627	3.910	3.695	3.941
445.0	685.1	 1025	448.9	579.5	672.4	756.8	850.3	928.7	 1004	 1028	 1005	964.8	907.9	853.1	783.8	749.9	707.1	684.3	677.5	662.8	657.1	640.7	642.8	633.9	629.5	617.7	598.8	583.1	549.8	511.6	461.6	405.5	373.2	358.3	259.2	182.4	138.9	110.4	85.59	65.46	58.80	67.05	102.3	544.0	 2871	 3385	321.1	9.375	3.710	3.107	2.494	2.453	2.899	3.020	3.142	3.159	3.332	3.767	3.940	3.482	3.991	4.040	4.012	4.215	3.965	3.688	3.770	3.269	3.662	3.524	3.798	3.955	4.299	3.775	3.365	3.772	3.974
450.0	349.0	 1340	898.3	530.4	628.8	707.4	825.5	906.3	962.2	989.5	972.4	928.5	866.1	809.5	750.2	693.6	660.8	643.8	629.1	617.6	610.7	599.6	600.3	594.5	591.1	583.1	567.3	558.7	529.3	496.1	450.9	396.7	348.9	327.9	299.0	219.3	157.7	123.3	97.18	76.78	61.05	51.79	51.23	143.5	722.7	 2181	 3113	 1249	21.21	3.915	2.846	3.169	2.835	2.967	2.991	3.006	3.291	3.634	3.607	3.870	3.848	3.776	3.575	4.120	3.880	3.624	4.016	3.900	3.453	3.359	3.874	3.592	4.012	3.453	3.633	3.505	3.203
455.0	197.6	911.1	 1947	608.9	565.9	662.8	749.1	833.0	896.9	921.1	906.1	877.1	815.7	767.2	700.7	649.5	604.4	592.3	575.8	568.2	558.4	551.2	550.6	554.7	536.7	536.8	527.6	518.3	500.8	476.5	442.7	384.4	339.5	297.8	279.3	260.3	187.8	135.1	107.1	88.18	68.93	55.87	46.51	58.65	181.5	504.0	 1264	 3819	 1772	25.72	4.210	3.369	3.126	2.869	3.145	2.876	3.013	3.241	3.418	3.839	3.345	3.285	3.442	3.543	3.614	3.702	3.535	3.531	3.278	3.264	3.873	3.407	3.409	3.433	3.391	3.385	3.237
460.0	146.9	464.6	 2333	 1216	549.4	635.1	699.9	782.9	859.7	877.9	868.9	826.2	772.5	711.6	668.4	613.5	571.0	559.6	544.8	529.0	528.1	516.3	504.4	514.9	500.3	502.8	503.1	490.0	476.4	458.6	424.3	378.8	335.0	286.1	256.0	252.7	214.7	146.4	113.7	94.74	75.55	61.53	48.34	43.94	62.92	131.4	307.9	 1852	 3969	324.7	14.84	3.993	3.426	2.997	3.125	2.773	2.885	3.071	2.921	3.395	3.294	3.340	3.210	3.311	3.499	3.112	2.963	3.386	3.334	3.228	3.327	3.108	3.084	3.117	3.211	2.983	2.899
465.0	138.0	268.6	 1853	 2828	541.4	585.1	658.5	733.9	801.8	825.2	836.1	795.2	727.7	679.1	634.0	576.3	545.6	520.6	506.7	494.0	486.0	486.6	477.4	478.3	476.0	470.5	471.7	463.8	454.4	436.9	407.8	367.4	320.0	279.1	240.4	227.3	225.5	169.8	121.0	98.29	81.64	65.32	54.26	43.05	40.42	49.49	85.37	465.3	 2439	 2629	262.4	8.645	3.969	3.206	2.777	2.957	2.760	2.843	2.611	3.559	3.088	3.683	3.218	3.138	3.544	3.248	3.140	2.814	2.993	3.253	3.074	2.744	3.087	3.058	2.623	3.056	3.179
470.0	145.4	204.7	855.2	 4064	 1474	555.9	614.0	687.5	738.4	756.2	765.1	729.5	680.0	636.2	573.5	526.4	493.2	465.9	457.1	445.9	443.3	439.6	433.6	429.9	431.5	428.3	431.4	421.2	415.4	407.7	379.1	345.8	305.4	268.6	227.9	206.1	198.7	187.6	142.8	105.1	85.23	70.69	57.48	46.48	38.74	34.77	38.91	119.9	608.1	 1705	 2323	 1017	20.24	4.083	3.118	2.851	3.032	2.700	2.874	2.945	2.923	3.353	3.474	2.955	2.996	2.829	2.914	2.435	2.745	3.012	2.736	2.499	2.858	2.551	2.658	2.401	2.980
475.0	132.9	177.7	400.8	 2508	 3708	641.1	540.1	622.2	682.7	693.3	694.8	666.9	614.2	570.2	525.8	475.2	448.1	423.1	403.8	400.1	394.6	388.3	379.8	387.1	377.4	385.0	390.2	382.2	378.3	371.7	354.3	321.1	285.3	250.6	217.3	191.1	172.3	167.8	161.5	121.7	89.16	75.06	61.67	50.32	41.15	35.24	29.50	43.98	149.6	393.0	904.5	 2598	 1215	25.93	4.175	2.839	3.132	2.655	2.651	2.910	2.834	3.128	2.962	2.811	2.518	2.888	2.893	2.463	2.809	2.683	2.437	2.675	2.246	2.502	2.449	2.427	2.999
480.0	118.3	183.8	272.2	 1060	 4521	 1100	514.7	574.3	624.1	650.2	643.1	617.0	587.6	537.8	495.2	435.3	405.6	395.3	376.5	372.2	360.6	360.2	343.9	350.6	351.4	354.7	352.5	351.1	348.3	343.4	329.8	301.8	270.0	241.4	210.5	182.0	162.4	150.4	155.7	135.1	95.09	75.44	63.91	51.87	44.87	37.22	30.51	28.51	48.98	100.9	218.2	 1164	 2693	360.4	15.12	3.870	2.940	3.058	2.669	2.954	2.876	3.083	3.041	2.665	2.404	2.492	2.851	2.723	2.781	2.298	2.526	2.058	2.056	2.193	2.139	2.296	2.307
485.0	98.43	176.9	247.5	480.8	 3316	 2586	519.2	526.0	584.8	615.5	600.0	578.8	550.3	505.6	459.1	405.7	377.3	366.2	349.8	336.3	334.7	329.4	323.2	321.7	322.7	322.4	327.0	327.7	328.8	321.4	307.6	285.4	257.8	229.3	198.8	175.6	158.5	139.8	136.9	139.2	106.6	77.80	64.52	51.90	46.65	39.37	32.90	27.48	28.08	36.63	59.94	289.3	 1585	 2322	281.9	6.814	3.215	2.891	2.537	2.927	2.604	2.598	2.601	2.386	2.403	2.441	2.656	2.398	2.399	1.949	2.135	2.177	2.068	2.038	2.039	2.276	2.093
490.0	83.48	179.5	233.1	312.7	 1320	 3245	 1539	477.4	534.1	559.2	540.6	536.7	499.5	455.0	421.7	370.8	343.0	325.6	312.1	303.0	297.1	295.9	294.4	291.7	292.2	291.0	295.4	295.3	295.8	294.2	281.0	258.7	236.4	210.0	190.4	168.3	149.6	132.1	121.3	122.0	115.6	89.21	67.03	54.89	47.83	42.01	34.21	28.84	25.30	23.01	25.15	75.29	392.3	 1216	 1890	828.9	21.11	3.198	2.794	2.670	2.504	2.735	2.418	2.580	2.382	2.124	2.261	2.398	2.242	2.031	2.035	2.026	2.075	1.809	1.859	2.098	2.036
495.0	83.30	156.2	240.6	264.6	511.7	 1857	 3537	551.9	483.5	513.4	496.0	498.2	448.9	417.3	375.9	335.4	307.3	292.4	279.4	275.1	264.5	262.1	260.7	260.5	255.5	261.7	260.4	260.3	265.7	262.7	251.1	237.2	213.7	197.1	172.8	156.7	140.8	125.8	109.8	103.7	104.0	99.85	75.05	56.04	48.45	41.03	36.69	30.57	25.65	21.10	18.61	27.55	97.25	279.3	712.7	 2137	 1164	26.81	2.949	2.925	2.468	2.874	2.205	2.718	2.221	2.118	2.273	2.051	1.874	1.872	1.738	1.902	1.903	1.796	1.517	1.826	1.752
500.0	77.39	104.3	227.0	240.4	325.6	813.5	 3867	848.5	440.7	471.9	453.8	458.0	412.1	380.3	342.0	306.7	281.5	265.3	253.2	249.2	243.3	236.5	237.6	231.6	231.9	235.7	237.6	238.1	239.5	238.1	232.1	216.1	200.0	180.4	160.2	150.2	131.0	116.3	105.8	96.44	87.76	96.01	83.29	59.17	47.52	41.31	36.06	30.81	26.67	20.68	18.01	17.13	30.07	69.98	169.7	947.7	 2385	371.6	14.46	3.157	2.541	2.718	2.047	2.015	1.972	2.121	1.920	1.807	1.731	1.884	2.077	1.718	1.757	1.839	1.706	1.435	1.664
505.0	77.19	95.14	196.7	245.4	255.6	407.6	 2660	 2209	450.6	442.1	424.1	412.9	380.5	349.1	316.6	280.4	252.1	242.8	234.2	228.2	223.5	214.9	213.1	212.1	214.1	212.0	218.5	218.7	217.5	217.5	212.9	198.9	184.8	166.9	152.1	139.6	122.0	110.0	100.1	92.10	80.99	81.44	85.22	66.38	48.96	40.42	35.29	30.94	26.83	21.76	18.50	15.46	16.71	22.79	44.54	230.5	 1323	 2137	295.6	5.471	3.015	2.644	2.220	2.207	1.833	1.886	1.645	1.576	2.008	1.883	1.782	1.892	1.620	1.640	1.391	1.458	1.567
510.0	234.5	89.65	160.8	248.3	245.1	274.6	 1032	 2759	 1679	390.9	386.8	368.1	339.5	305.7	278.3	250.7	223.8	217.5	206.4	198.4	195.0	190.2	185.8	186.6	187.7	186.9	190.7	189.2	193.6	192.3	187.9	174.8	166.1	148.7	135.5	123.9	113.5	102.0	90.94	82.83	73.40	70.29	70.78	69.67	54.36	41.30	34.59	29.26	26.18	21.31	18.65	15.39	13.52	13.45	16.82	57.16	322.4	 1092	 1652	694.8	20.03	2.909	2.260	2.233	1.885	1.741	1.574	1.512	1.795	1.774	1.392	1.606	1.314	1.601	1.336	1.320	1.224
515.0	88.47	69.57	132.9	211.7	257.1	230.1	416.7	 1534	 3895	490.3	335.8	321.4	304.1	271.2	248.1	224.3	198.0	189.8	181.8	172.1	167.1	165.0	161.6	157.2	160.0	161.2	163.8	164.8	171.8	169.7	168.0	150.9	144.5	132.4	119.7	109.9	101.0	89.76	83.32	76.06	68.75	61.27	58.91	61.35	59.78	44.43	34.69	29.18	25.24	21.20	18.18	15.88	13.04	11.40	10.42	19.08	76.92	249.0	600.0	 1763	399.7	23.40	2.524	1.853	2.107	1.524	1.360	1.514	1.635	1.459	1.098	1.588	1.422	1.439	1.055	1.288	1.462
520.0	49.77	61.84	114.8	161.0	274.3	220.9	263.6	646.5	 3886	 1201	303.6	283.0	265.2	239.0	225.9	200.6	178.2	170.2	160.8	155.4	148.1	147.7	145.1	146.5	145.6	148.8	145.0	147.1	152.0	148.2	145.5	139.7	127.4	120.8	109.5	97.42	92.70	82.50	77.11	70.37	62.84	57.20	52.18	49.84	56.28	49.10	35.87	27.85	24.25	21.05	17.40	15.44	13.10	11.11	9.555	11.01	22.43	60.79	142.1	787.1	 1727	348.5	10.44	2.191	1.935	1.745	1.128	1.364	1.242	1.615	0.958	1.207	1.234	1.036	1.290	1.049	1.120
525.0	49.65	70.29	100.7	136.2	241.1	225.1	216.2	329.0	 2487	 2522	315.8	268.8	242.5	219.5	210.4	178.0	165.9	153.8	146.9	139.6	134.6	138.2	127.8	133.9	128.4	131.2	133.3	135.2	134.1	133.7	133.2	127.2	117.5	108.8	101.3	90.60	84.00	77.52	72.21	66.48	58.89	53.24	48.08	44.91	47.36	50.97	39.18	27.63	23.52	20.62	16.84	15.28	12.39	11.06	9.337	8.540	10.41	18.47	35.82	191.3	 1001	 1586	53.01	4.046	2.014	1.742	1.500	1.326	1.064	1.644	1.388	0.944	1.061	1.019	1.295	0.955	0.950
530.0	34.31	55.05	91.67	114.9	174.2	233.6	187.2	239.9	930.1	 3061	 1128	240.4	214.9	195.2	181.0	157.1	144.5	135.5	128.1	123.4	121.5	119.2	114.2	116.0	114.1	114.4	116.9	116.1	118.2	117.5	114.4	111.1	102.5	95.52	86.66	80.75	74.45	68.03	64.40	58.08	53.79	47.59	43.10	39.55	38.50	41.37	41.38	30.69	23.69	19.58	16.33	14.04	12.42	11.18	9.461	8.187	7.909	8.958	12.59	47.01	244.5	810.4	 1150	488.8	17.14	1.720	1.549	1.306	1.294	1.387	1.344	0.998	1.009	1.028	1.036	0.978	1.006
535.0	31.76	65.65	72.31	97.03	131.6	217.7	192.8	189.5	353.4	 1502	 3130	358.0	183.1	172.1	158.0	139.2	122.3	115.3	113.3	105.3	106.3	101.5	96.44	97.46	97.47	98.99	100.8	99.34	101.3	101.7	98.95	95.46	90.19	82.31	73.86	71.07	67.30	61.14	55.67	51.16	46.27	41.03	38.28	33.66	33.04	32.24	36.21	33.68	25.29	19.00	15.71	13.23	11.33	10.37	8.928	8.010	7.481	6.790	7.202	14.51	58.10	184.6	429.5	 1258	380.9	17.94	1.540	1.344	1.276	1.260	1.088	0.780	1.201	0.987	0.935	0.830	0.913
540.0	24.16	52.88	79.26	86.85	113.3	170.7	214.9	163.0	210.5	569.0	 3458	 1126	171.5	154.3	136.1	122.7	108.0	104.3	98.15	92.59	94.90	89.91	85.81	86.44	87.08	85.92	88.07	87.66	88.10	88.93	88.48	83.79	79.48	73.03	67.86	60.63	59.67	54.29	49.15	46.36	41.83	37.56	35.16	30.40	29.92	28.03	28.85	33.21	26.81	19.51	14.85	12.83	11.31	9.816	8.585	7.933	7.328	6.105	5.769	6.887	16.96	44.54	101.4	569.2	 1253	300.4	6.185	1.513	1.487	1.186	1.132	0.987	1.051	0.956	1.079	1.118	0.536
545.0	27.39	42.06	65.80	81.21	94.29	137.4	217.5	151.5	164.1	252.0	 2197	 2670	189.9	141.4	123.2	110.4	97.64	92.46	89.74	84.11	80.00	79.39	78.55	77.77	76.69	75.97	77.83	77.52	77.01	80.16	76.97	75.00	69.10	64.63	59.74	56.98	53.15	49.17	45.15	42.29	36.75	34.58	32.37	29.20	26.45	25.17	23.86	27.78	27.82	21.20	14.22	11.80	10.50	8.594	8.601	7.565	6.697	6.170	5.328	5.419	6.846	13.19	25.27	138.7	742.8	 1114	51.00	2.214	1.564	1.552	0.974	0.942	0.899	0.966	1.116	0.863	0.555
550.0	27.39	37.21	57.45	72.62	83.55	101.0	179.4	184.0	139.2	167.3	751.5	 3120	 1003	122.8	107.1	97.90	83.31	80.51	75.78	70.94	70.41	68.48	66.12	65.43	64.15	65.33	65.84	65.29	66.74	68.26	66.43	62.12	57.79	55.90	51.84	47.42	43.89	41.72	38.13	35.24	32.14	30.65	28.25	25.26	22.90	21.92	20.70	20.68	23.32	21.98	15.18	11.39	9.240	8.299	7.910	6.903	6.390	6.497	5.033	4.914	4.621	5.778	8.267	33.16	182.6	587.0	794.0	218.1	13.17	1.347	0.992	0.823	0.792	0.640	0.755	0.589	0.636
555.0	22.81	30.90	53.26	59.69	72.05	81.51	123.6	204.2	126.1	135.1	271.1	 1383	 3018	220.7	89.49	80.17	71.26	64.49	62.97	59.17	57.15	54.56	53.61	53.57	52.15	53.83	52.56	53.18	54.76	53.90	54.51	49.78	48.48	44.63	42.91	38.55	34.63	33.99	30.18	30.15	27.25	24.90	22.88	21.25	20.46	18.57	16.50	15.84	16.18	18.73	16.80	11.65	8.344	6.741	6.867	6.229	5.843	5.747	5.367	4.723	4.248	3.710	4.929	9.911	43.18	133.3	315.7	830.7	313.4	10.26	1.406	0.874	0.851	0.647	0.436	0.690	0.490
560.0	33.20	37.85	45.26	55.75	57.55	68.68	95.69	175.0	149.8	109.3	149.9	467.4	 3260	875.7	76.51	67.52	58.50	54.90	54.00	47.18	48.89	46.57	45.67	45.27	45.42	45.08	44.29	45.28	45.96	46.45	47.09	43.72	41.16	37.58	36.25	31.70	30.50	28.62	25.91	25.09	24.20	20.28	19.78	18.91	17.33	16.63	13.93	12.99	12.86	14.44	15.60	12.60	8.215	6.125	5.992	5.496	5.071	5.176	5.459	4.831	3.869	3.419	3.999	4.670	12.10	32.06	75.47	403.2	802.2	55.66	3.414	0.948	0.807	0.634	0.451	0.533	0.624
565.0	22.58	32.73	44.64	47.86	52.78	59.82	71.97	134.9	179.8	102.5	108.0	183.2	 1945	 2267	91.14	57.08	50.97	47.96	43.51	41.71	41.39	40.00	38.55	38.88	39.23	40.47	38.83	38.72	38.69	38.76	39.57	36.03	34.62	33.43	29.49	28.18	26.53	24.56	22.98	21.35	21.13	17.73	17.07	15.79	13.99	13.77	12.56	11.19	10.95	10.77	13.50	12.80	8.492	5.782	5.669	5.092	4.744	4.807	4.933	4.797	3.942	3.393	3.464	3.291	4.889	9.548	18.99	99.95	504.6	630.8	44.88	1.397	0.744	0.859	0.440	0.307	0.576
570.0	23.93	31.84	47.15	46.56	42.27	47.03	56.16	83.58	170.1	115.9	93.81	111.9	616.2	 2737	743.5	50.05	44.06	37.87	36.37	35.53	32.94	33.45	31.87	32.06	30.90	31.48	31.19	30.78	30.95	32.08	31.47	30.39	27.45	26.13	24.75	23.16	21.41	19.79	18.58	17.57	16.49	14.92	14.34	12.96	12.49	11.60	9.865	9.723	9.036	8.352	8.684	10.22	8.990	6.290	4.911	4.354	4.874	4.370	4.438	3.849	4.214	3.619	3.173	2.994	3.657	4.399	6.532	24.23	125.7	367.2	431.7	163.8	6.843	0.665	0.387	0.535	0.565
575.0	27.52	33.83	42.46	42.82	38.26	38.09	44.60	56.51	118.5	154.6	88.21	86.63	196.4	 1157	 2307	107.9	33.90	31.86	29.67	27.47	26.04	25.71	24.64	24.31	25.53	24.68	24.60	24.22	24.69	24.99	25.10	23.69	21.72	20.97	19.51	18.10	17.63	16.13	14.23	13.47	12.58	11.88	11.34	10.69	9.757	9.070	8.510	7.771	6.873	6.095	6.465	6.838	7.967	7.148	4.488	4.038	3.729	3.173	3.797	3.454	3.687	3.770	3.090	2.912	3.354	3.197	3.193	7.202	29.53	83.68	190.9	479.2	56.27	4.398	0.482	0.417	0.616
580.0	21.80	36.44	40.03	41.90	36.03	36.34	42.55	48.74	80.62	167.2	95.84	89.99	103.5	359.2	 2678	602.0	29.39	26.69	25.53	23.35	23.04	21.88	20.52	19.84	20.10	21.26	21.31	19.92	21.56	20.73	20.63	19.82	18.69	17.96	16.41	14.70	14.53	12.94	12.69	12.29	10.91	10.26	9.313	8.898	8.752	7.843	7.336	6.968	6.018	5.431	5.002	4.793	6.293	7.085	5.342	3.382	3.343	2.723	3.167	2.977	2.800	3.582	3.458	2.874	2.713	2.463	2.359	3.359	7.954	20.19	46.44	248.7	423.6	48.23	1.427	0.449	0.486
585.0	21.62	30.81	38.72	38.83	27.49	29.20	40.09	44.93	60.80	156.0	114.0	83.03	83.11	123.1	 1562	 1705	36.44	24.06	21.68	20.50	19.84	18.04	17.43	16.11	18.28	17.71	18.85	16.91	17.26	18.31	17.46	15.76	15.49	15.74	13.41	12.34	11.59	11.75	11.14	9.932	9.030	8.852	7.177	7.426	7.521	6.881	6.307	6.132	5.258	4.872	4.474	4.175	4.440	5.588	5.281	3.726	3.295	2.835	2.655	2.748	2.396	2.981	3.222	2.535	2.473	2.024	2.157	2.044	3.117	5.816	11.55	63.20	298.2	347.8	34.14	0.669	0.279
590.0	22.99	36.40	36.22	32.79	33.60	29.38	34.56	40.83	53.20	102.3	145.8	80.62	72.85	72.17	471.6	 2060	493.4	22.96	18.86	16.85	15.88	14.84	14.60	13.65	14.28	14.29	14.25	14.25	14.54	14.27	14.32	13.18	12.54	12.15	10.95	10.22	9.578	9.505	8.938	8.059	7.617	7.027	6.152	5.975	5.924	5.782	5.292	5.012	4.437	3.986	3.747	3.488	3.426	3.936	4.936	4.094	3.151	2.180	2.507	2.525	2.192	2.210	2.325	2.693	2.345	2.060	1.755	1.747	1.857	2.341	3.613	14.94	76.63	218.6	264.9	89.44	3.482
595.0	31.28	36.37	28.55	37.64	27.06	27.20	31.33	36.40	43.42	66.10	147.8	106.6	71.73	57.05	133.2	841.8	 1653	55.36	14.26	13.57	13.76	12.77	11.64	10.32	11.30	10.96	10.70	11.29	11.28	11.19	12.37	11.07	9.408	9.578	8.801	8.226	7.522	7.370	6.852	6.484	6.243	5.820	5.345	5.047	4.561	4.251	3.775	4.016	3.611	3.563	3.150	2.715	2.837	2.833	3.516	3.893	3.208	2.184	2.034	1.780	1.834	2.266	1.801	2.241	1.973	2.054	1.446	1.340	1.305	1.372	1.615	3.910	17.59	49.68	122.2	286.3	53.36
600.0	22.32	27.90	28.68	27.99	26.85	24.22	27.39	32.21	43.76	54.85	116.5	131.8	72.77	53.10	58.97	248.4	 1897	184.6	13.99	11.95	12.21	11.09	9.267	8.984	9.494	8.801	9.146	9.271	9.748	9.572	9.601	8.782	7.737	8.071	7.470	6.755	6.321	6.313	6.098	5.736	5.236	4.946	4.442	4.637	3.778	3.865	3.838	3.293	3.360	2.791	2.598	2.318	2.022	1.973	2.346	3.305	3.415	2.493	1.921	1.530	1.707	1.943	1.282	1.714	1.748	1.774	1.432	1.419	1.183	0.848	1.022	1.453	4.585	11.58	29.24	159.2	247.5
605.0	18.37	27.52	30.50	29.34	27.07	28.69	25.12	32.26	37.86	52.42	81.92	146.8	76.23	54.03	40.95	76.84	 1109	 1096	20.80	11.00	10.39	9.825	9.042	8.721	9.309	7.692	7.669	8.211	8.176	8.170	7.460	7.309	6.225	5.968	6.695	5.378	5.615	5.206	5.212	4.438	4.063	3.967	3.966	3.448	3.622	3.144	3.250	2.731	2.669	2.479	2.421	1.927	1.823	1.885	1.773	2.845	3.095	2.805	1.864	1.486	1.579	1.323	1.386	1.362	1.503	1.534	1.693	1.286	1.208	0.756	0.559	0.897	1.785	3.575	6.954	41.10	181.9
610.0	17.65	27.16	32.04	31.78	23.76	24.33	28.47	32.20	40.20	48.03	66.76	126.8	104.3	54.77	37.72	36.96	328.7	 1440	328.0	10.12	8.107	7.692	7.166	6.892	7.033	6.538	6.985	6.843	6.531	6.636	6.299	6.158	5.978	5.122	4.997	4.462	4.750	4.553	3.895	3.654	3.466	3.258	3.311	2.849	3.097	2.490	2.704	2.487	2.120	2.106	1.940	1.716	1.349	1.474	1.585	1.596	2.164	2.657	1.944	1.513	1.225	1.100	1.179	1.169	1.395	1.186	1.405	1.411	1.181	0.982	0.681	0.749	0.901	1.296	2.058	9.669	46.85
615.0	15.62	30.66	35.44	21.43	20.42	22.00	26.63	30.28	35.04	41.37	57.05	83.83	119.7	58.87	38.82	28.76	88.46	618.8	 1193	29.47	7.579	6.478	5.562	5.785	5.489	5.517	5.534	5.624	5.061	5.458	4.608	4.295	4.471	4.261	4.417	3.884	3.726	3.896	3.302	2.609	2.804	2.971	2.635	2.396	2.337	1.919	2.158	2.042	1.841	1.625	1.500	1.494	1.219	1.152	1.220	1.261	1.550	2.086	2.175	1.670	1.093	0.852	1.211	0.829	1.044	1.039	1.113	1.365	1.150	0.723	0.730	0.712	0.640	0.535	0.861	2.494	10.86
620.0	14.03	27.08	32.85	25.47	27.47	19.66	24.47	28.06	33.44	41.86	53.95	72.83	116.1	73.79	40.44	27.49	34.06	182.2	 1371	139.8	7.082	5.769	4.858	4.895	4.345	4.682	4.480	4.954	4.620	3.524	4.131	3.666	3.899	3.662	3.384	3.331	2.851	3.098	3.133	2.254	2.189	2.256	2.519	2.127	1.877	1.834	1.618	1.605	1.606	1.477	1.257	1.291	1.101	1.087	1.058	0.874	1.201	1.610	1.848	1.570	1.034	1.068	1.122	0.796	0.743	1.089	0.849	1.065	1.076	0.767	0.665	0.572	0.403	0.414	0.399	0.747	2.786
625.0	12.76	23.98	22.42	26.80	25.07	16.87	23.49	32.88	34.72	39.63	49.86	58.32	92.65	94.43	42.13	28.20	22.26	53.32	837.9	785.6	9.050	5.361	4.337	4.191	4.481	3.785	3.591	3.840	3.690	3.415	3.487	3.324	3.388	3.498	2.873	2.541	2.864	2.496	2.224	2.349	1.972	1.859	1.999	1.667	1.649	1.881	1.678	1.411	1.262	1.238	1.078	0.906	0.921	0.985	0.818	0.961	0.864	0.840	1.428	1.649	1.352	1.087	1.043	0.618	0.952	0.743	0.813	0.716	0.749	0.761	0.838	0.675	0.499	0.438	0.322	0.570	0.756
630.0	13.75	26.22	27.58	24.57	21.76	21.78	21.70	27.82	29.04	40.15	44.19	53.41	71.95	97.91	49.42	24.89	19.06	23.63	247.3	 1085	222.2	4.906	3.735	3.257	3.247	3.480	3.578	3.247	3.273	2.830	2.803	3.009	2.825	2.465	2.182	2.342	2.109	2.046	1.879	1.856	1.674	1.701	1.372	1.169	1.494	1.431	1.306	1.218	1.083	1.030	0.783	0.899	0.855	0.741	0.652	0.730	0.829	0.649	0.930	1.254	1.152	1.133	0.759	0.691	0.785	0.735	0.610	0.710	0.679	0.852	0.775	0.603	0.460	0.410	0.306	0.477	0.403
635.0	12.73	22.02	27.38	21.52	22.57	21.79	21.64	29.28	35.65	36.60	41.65	57.08	59.54	81.04	69.58	28.56	19.60	80.23	63.58	481.7	871.2	18.34	2.995	3.462	2.687	2.470	3.244	2.719	2.713	2.388	2.624	2.558	1.991	2.050	2.101	2.021	1.908	1.736	1.675	1.607	1.489	1.392	1.165	0.884	1.261	1.171	0.985	0.831	0.996	0.800	0.701	0.623	0.499	0.619	0.772	0.592	0.649	0.642	0.611	0.903	1.043	0.885	0.871	0.755	0.676	0.619	0.644	0.582	0.672	0.476	0.654	0.641	0.476	0.205	0.238	0.342	0.362
640.0	10.46	26.37	22.84	21.47	22.89	20.92	22.80	29.85	29.41	35.17	46.09	51.21	55.77	67.34	80.73	34.94	20.82	44.67	23.21	141.8	 1077	108.4	3.303	3.048	2.806	2.134	2.025	2.293	2.313	2.844	2.206	1.855	1.682	1.453	1.820	1.684	1.505	1.429	1.454	1.285	1.290	0.992	1.158	1.114	1.057	0.929	0.897	0.771	0.812	0.620	0.550	0.513	0.520	0.533	0.826	0.583	0.790	0.725	0.454	0.814	0.731	0.817	0.888	0.586	0.673	0.553	0.681	0.369	0.358	0.359	0.482	0.564	0.545	0.573	0.337	0.135	0.417
645.0	13.26	18.49	30.32	29.50	22.33	18.95	19.83	29.19	30.19	34.78	43.90	50.77	57.70	58.38	83.26	42.26	19.84	22.08	13.72	38.64	684.0	548.7	5.169	2.511	1.984	2.481	1.920	1.988	1.693	2.183	2.184	1.566	1.512	1.371	1.689	1.575	1.180	1.401	1.056	1.074	1.137	0.800	1.084	1.030	1.007	0.584	0.953	0.781	0.796	0.629	0.566	0.661	0.514	0.691	0.860	0.458	0.646	0.507	0.572	0.831	0.374	0.791	0.706	0.605	0.504	0.521	0.510	0.270	0.442	0.432	0.525	0.456	0.641	0.535	0.375	0.332	0.268
650.0	24.69	25.33	33.00	36.80	22.15	20.97	23.97	25.38	30.48	38.36	44.45	52.47	62.24	53.57	68.68	53.44	23.36	16.10	11.87	15.42	251.4	911.9	39.80	2.525	1.836	2.397	1.780	1.434	1.752	1.583	1.845	1.743	1.321	1.526	1.589	1.263	1.227	1.400	1.002	0.969	1.029	0.774	0.937	0.903	1.095	0.504	0.813	0.616	0.697	0.685	0.368	0.549	0.393	0.564	0.570	0.392	0.541	0.369	0.262	0.489	0.529	0.795	0.782	0.619	0.360	0.505	0.343	0.634	0.386	0.531	0.464	0.457	0.564	0.317	0.347	0.355	0.379
