Sample:	'1
File name:	Default_20231012_222235.FD3
Run date:	'22:16:14, 10/12/2023
Operator:	dsjg
Comment:	'

Instrument
Model:	F-2700 FL Spectrophotometer
Serial number:	2198-001
ROM Version:	4J14000 07

Instrument parameters
Measurement type:	3-D scan
Data mode:	Fluorescence
EX  Start WL:	220.0 nm
EX  End WL:	600.0 nm
EX Sampling interval:	5.0 nm
EM  Start WL:	230.0 nm
EM  End WL:	650.0 nm
EM Sampling interval:	5.0 nm
Scan speed:	12000 nm/min
EX Slit:	5.0 nm
EM Slit:	5.0 nm
PMT Voltage:	700 V
Response:	Auto 
Corrected spectra:	Off
Contour interval:	50.000

Peak integration
Integration method:	Rectangular
Sensitivity:	1
Threshold:	1.000

Peaks
No.	ApexEX/EM(nm)	Height(Data)
1	250.0/425.0	598.6
2	255.0/280.0	133.8
3	255.0/430.0	606.7
4	260.0/435.0	606.1
5	265.0/440.0	603.5
6	270.0/300.0	273.3
7	275.0/305.0	322.3
8	280.0/310.0	322.6
9	285.0/320.0	306.4
10	290.0/325.0	286.9
11	305.0/345.0	243.0

Data points
	220.0	225.0	230.0	235.0	240.0	245.0	250.0	255.0	260.0	265.0	270.0	275.0	280.0	285.0	290.0	295.0	300.0	305.0	310.0	315.0	320.0	325.0	330.0	335.0	340.0	345.0	350.0	355.0	360.0	365.0	370.0	375.0	380.0	385.0	390.0	395.0	400.0	405.0	410.0	415.0	420.0	425.0	430.0	435.0	440.0	445.0	450.0	455.0	460.0	465.0	470.0	475.0	480.0	485.0	490.0	495.0	500.0	505.0	510.0	515.0	520.0	525.0	530.0	535.0	540.0	545.0	550.0	555.0	560.0	565.0	570.0	575.0	580.0	585.0	590.0	595.0	600.0
230.0	86.19	917.4	 1326	248.2	12.38	7.835	6.487	5.775	4.907	4.080	3.569	3.343	2.958	2.460	2.092	1.779	1.564	1.479	1.381	1.387	1.231	1.226	1.138	1.059	1.065	1.013	0.964	0.910	0.977	0.966	0.924	0.908	0.815	0.833	0.750	0.811	0.768	0.772	0.744	0.735	0.727	0.741	0.763	0.646	0.608	0.603	0.865	2.707	5.312	4.762	2.165	0.698	0.432	0.453	0.466	0.490	0.442	0.477	0.477	0.432	0.468	0.435	0.430	0.452	0.468	0.434	0.442	0.441	0.442	0.462	0.452	0.428	0.430	0.453	0.482	0.455	0.467
235.0	61.73	294.5	 1107	 1242	262.8	11.85	6.049	5.561	5.181	4.258	4.004	3.364	3.104	2.686	2.045	2.111	1.624	1.423	1.322	1.347	1.404	1.254	1.104	1.095	1.076	0.996	0.934	0.914	0.845	0.896	0.977	0.874	0.861	0.722	0.753	0.743	0.729	0.802	0.763	0.737	0.658	0.678	0.701	0.763	0.779	0.653	0.628	1.065	2.146	3.492	5.207	5.766	3.053	0.909	0.480	0.448	0.454	0.483	0.463	0.425	0.470	0.425	0.487	0.466	0.478	0.451	0.442	0.433	0.432	0.465	0.462	0.448	0.414	0.450	0.401	0.477	0.432
240.0	87.77	97.17	414.7	 1370	 1174	177.9	9.083	6.011	5.484	4.511	3.924	3.863	3.017	2.531	2.105	1.870	1.643	1.544	1.581	1.487	1.250	1.250	1.183	1.036	1.049	1.022	0.862	0.939	0.978	0.996	0.957	0.856	0.819	0.798	0.730	0.759	0.713	0.812	0.760	0.729	0.696	0.665	0.639	0.720	0.781	0.741	0.705	0.773	0.848	1.255	2.700	5.918	8.037	5.968	2.164	0.560	0.406	0.473	0.464	0.489	0.459	0.421	0.512	0.419	0.413	0.449	0.464	0.434	0.464	0.436	0.432	0.490	0.428	0.340	0.474	0.446	0.455
245.0	88.28	84.13	117.0	614.5	 1603	 1042	104.6	7.559	5.475	4.718	4.185	3.826	3.148	2.633	2.393	2.055	1.710	1.446	1.453	1.476	1.317	1.313	1.153	1.079	1.112	1.065	1.130	0.969	1.118	1.022	0.856	0.963	0.891	0.758	0.726	0.648	0.705	0.813	0.832	0.833	0.706	0.643	0.596	0.623	0.703	0.751	0.701	0.744	0.656	0.658	0.969	2.267	5.393	8.654	8.484	5.025	1.337	0.556	0.463	0.489	0.487	0.487	0.471	0.521	0.467	0.507	0.416	0.433	0.481	0.464	0.486	0.436	0.429	0.434	0.419	0.479	0.468
250.0	50.50	87.10	98.54	170.6	652.7	 1450	 1093	165.6	16.84	5.737	4.659	3.835	3.437	2.765	2.573	2.139	1.879	1.782	1.570	1.363	1.370	1.252	1.119	1.166	1.147	1.141	1.104	0.962	0.985	0.930	1.006	0.885	0.995	0.770	0.743	0.663	0.680	0.699	0.772	0.784	0.728	0.694	0.651	0.638	0.658	0.679	0.622	0.753	0.782	0.705	0.631	0.910	1.617	3.158	5.144	7.635	9.271	7.556	4.318	1.480	0.543	0.491	0.437	0.500	0.459	0.489	0.403	0.426	0.468	0.436	0.425	0.479	0.418	0.437	0.430	0.488	0.454
255.0	33.30	42.82	100.9	118.6	167.2	451.0	 1451	 1952	223.2	15.36	5.353	4.855	3.808	2.803	2.522	2.251	1.897	2.068	1.622	1.452	1.464	1.349	1.214	1.120	1.109	1.106	1.070	0.938	0.989	1.008	0.966	1.026	0.928	0.726	0.822	0.664	0.677	0.696	0.698	0.702	0.671	0.804	0.657	0.669	0.655	0.709	0.582	0.579	0.650	0.642	0.806	0.945	0.811	1.118	1.551	2.228	3.995	8.071	13.30	12.89	6.039	1.443	0.466	0.441	0.550	0.497	0.442	0.429	0.470	0.469	0.460	0.417	0.437	0.543	0.432	0.492	0.446
260.0	33.18	27.05	53.90	118.6	101.4	117.2	555.4	 2069	 1777	177.0	8.913	5.411	4.218	3.062	2.898	2.102	2.099	2.037	1.812	1.534	1.553	1.327	1.286	1.147	1.209	1.226	1.092	0.991	0.909	0.988	0.974	0.938	0.940	0.733	0.778	0.664	0.666	0.684	0.659	0.601	0.632	0.761	0.716	0.691	0.666	0.650	0.628	0.557	0.596	0.504	0.602	1.028	0.990	0.834	0.724	0.960	1.393	2.671	6.510	12.84	15.92	11.28	4.418	0.923	0.493	0.495	0.441	0.466	0.521	0.475	0.424	0.398	0.420	0.432	0.418	0.446	0.466
265.0	31.40	24.62	26.83	72.63	119.4	68.36	143.8	883.3	 2466	 1555	132.8	6.790	4.535	3.787	2.765	2.645	2.197	1.838	1.643	1.732	1.435	1.533	1.302	1.116	1.233	1.200	1.198	1.075	1.013	0.962	0.950	1.025	0.867	0.821	0.789	0.766	0.705	0.740	0.640	0.662	0.605	0.697	0.693	0.722	0.667	0.676	0.636	0.569	0.591	0.495	0.531	0.721	1.005	0.988	0.866	0.662	0.758	0.965	1.892	4.478	10.03	16.54	17.01	9.563	2.484	0.567	0.456	0.495	0.488	0.464	0.486	0.460	0.439	0.443	0.459	0.444	0.421
270.0	31.53	22.13	19.13	31.48	74.80	109.8	82.43	221.1	927.8	 2141	 2106	585.6	32.69	4.595	3.463	2.636	2.527	2.097	1.919	1.681	1.474	1.378	1.187	1.201	1.257	1.340	1.144	1.152	1.086	1.038	0.923	1.000	0.856	0.840	0.770	0.800	0.730	0.660	0.715	0.626	0.617	0.658	0.629	0.707	0.698	0.696	0.564	0.596	0.519	0.485	0.509	0.554	0.631	0.724	0.959	1.065	0.901	0.759	0.833	1.408	2.788	5.442	9.234	13.44	15.92	13.67	7.456	2.420	0.626	0.520	0.455	0.508	0.441	0.437	0.429	0.447	0.459
275.0	37.11	25.68	19.97	18.20	28.29	71.74	128.7	104.9	221.5	599.3	 1919	 3044	861.6	30.72	4.388	3.631	2.791	2.193	2.162	1.847	1.661	1.465	1.409	1.296	1.231	1.210	1.239	1.298	1.124	1.078	0.998	0.902	0.998	0.923	0.755	0.706	0.691	0.694	0.632	0.731	0.602	0.603	0.660	0.694	0.745	0.724	0.596	0.625	0.582	0.561	0.537	0.539	0.596	0.571	0.573	0.711	0.963	1.117	1.090	0.945	1.068	1.600	2.464	3.586	5.751	11.77	18.66	19.79	10.61	2.108	0.526	0.566	0.479	0.442	0.454	0.447	0.420
280.0	42.04	38.46	24.91	17.80	16.88	33.78	101.5	133.8	89.61	153.7	651.1	 2540	 3045	630.7	13.77	4.108	3.171	2.383	2.524	1.915	1.574	1.643	1.472	1.234	1.333	1.318	1.391	1.195	1.118	1.134	1.109	0.963	0.957	0.828	0.730	0.770	0.795	0.670	0.619	0.704	0.632	0.559	0.662	0.715	0.747	0.768	0.672	0.680	0.582	0.545	0.495	0.523	0.613	0.488	0.528	0.552	0.672	0.970	1.208	1.262	0.891	0.821	0.944	1.236	1.680	3.610	8.145	16.56	22.96	18.04	6.915	0.977	0.539	0.561	0.519	0.475	0.437
285.0	56.97	44.96	31.11	24.11	18.55	22.02	52.46	132.1	123.0	70.76	179.4	936.2	 2881	 2772	101.7	6.716	3.757	3.242	2.709	2.368	1.821	1.677	1.512	1.375	1.323	1.156	1.315	1.217	1.156	1.028	1.005	1.075	0.946	0.892	0.843	0.822	0.793	0.791	0.675	0.641	0.693	0.666	0.710	0.642	0.698	0.691	0.772	0.670	0.670	0.539	0.527	0.537	0.520	0.547	0.568	0.515	0.623	0.666	0.829	1.200	1.254	1.027	0.802	0.838	0.862	1.344	2.325	5.236	11.68	20.64	23.48	14.30	3.328	0.579	0.416	0.458	0.454
290.0	82.85	73.01	50.93	35.63	23.26	23.91	33.62	74.70	143.7	147.2	118.3	275.2	979.9	 2242	 2543	 1030	27.60	3.987	3.109	2.620	2.173	1.841	1.688	1.539	1.437	1.392	1.381	1.253	1.196	1.128	1.141	1.054	0.931	0.940	0.963	0.897	0.902	0.823	0.766	0.678	0.703	0.689	0.701	0.706	0.662	0.729	0.697	0.750	0.750	0.620	0.555	0.585	0.625	0.559	0.610	0.572	0.596	0.597	0.664	0.783	1.064	1.231	1.351	1.268	0.934	0.902	1.134	1.783	3.313	6.371	11.13	15.95	18.54	16.36	9.448	2.693	0.591
295.0	105.1	102.9	75.92	52.76	35.35	35.84	38.51	57.32	100.4	193.8	208.6	175.1	302.7	619.6	 1593	 3160	618.2	30.45	4.046	3.066	2.563	2.106	1.972	1.541	1.453	1.643	1.570	1.250	1.103	1.269	1.173	1.184	0.965	1.105	1.051	0.905	0.983	0.952	0.784	0.744	0.697	0.718	0.747	0.713	0.644	0.794	0.644	0.733	0.768	0.731	0.665	0.691	0.700	0.685	0.592	0.673	0.617	0.724	0.703	0.708	0.834	0.955	1.147	1.497	1.816	1.521	1.155	1.214	1.532	2.196	3.156	4.274	6.455	11.87	22.31	24.69	12.33
300.0	134.1	126.1	96.23	62.54	45.63	44.41	50.04	66.97	92.12	169.5	273.3	202.7	183.1	216.0	511.1	 2048	 3408	499.3	14.44	3.954	3.093	2.273	2.154	1.694	1.804	1.598	1.512	1.443	1.325	1.223	1.223	1.240	1.038	1.135	1.003	0.957	0.925	0.870	0.806	0.869	0.749	0.880	0.806	0.723	0.650	0.820	0.787	0.731	0.869	0.809	0.715	0.723	0.720	0.651	0.628	0.706	0.769	0.738	0.704	0.748	0.766	0.902	0.984	1.263	1.617	1.966	1.831	1.551	1.252	1.414	1.528	1.698	2.086	3.605	9.103	19.42	28.07
305.0	148.7	149.9	113.7	76.24	53.19	54.21	62.95	80.11	109.2	160.8	265.4	322.3	222.5	152.9	180.6	687.6	 2541	 3250	371.7	7.073	3.588	2.848	2.304	1.839	1.916	1.724	1.630	1.531	1.371	1.392	1.105	1.040	1.069	1.161	1.053	0.996	0.979	1.054	0.872	0.879	0.793	0.850	0.817	0.839	0.725	0.874	0.769	0.893	0.866	0.752	0.720	0.845	0.713	0.629	0.699	0.751	0.711	0.789	0.779	0.827	0.859	0.978	1.020	1.169	1.388	1.923	2.191	2.195	1.753	1.403	1.279	1.249	1.237	1.522	2.754	5.923	13.72
310.0	160.0	169.9	130.7	86.66	65.67	65.83	76.51	95.08	123.6	169.7	229.3	310.4	322.6	202.8	126.9	206.7	774.6	 2089	 2888	 1249	21.91	3.477	2.867	2.427	2.117	1.996	1.746	1.613	1.484	1.392	1.286	1.179	1.030	1.091	1.052	1.038	0.992	0.985	0.895	0.983	0.873	0.858	0.836	0.840	0.766	0.853	0.802	0.950	0.874	0.789	0.734	0.869	0.854	0.839	0.767	0.841	0.819	0.824	0.899	0.903	0.994	0.965	1.067	1.262	1.466	1.561	1.797	1.929	2.225	2.025	1.680	1.355	1.117	1.076	1.337	1.950	3.734
315.0	166.9	181.8	138.7	101.8	79.24	80.36	88.71	109.0	139.7	181.2	228.6	267.4	306.6	305.5	168.1	113.8	219.0	523.3	 1360	 3418	 1769	25.98	3.905	2.949	2.589	2.205	1.866	1.718	1.712	1.522	1.351	1.289	1.161	1.159	1.090	1.091	1.033	0.994	0.943	0.954	0.885	0.866	0.875	0.844	0.838	0.876	0.847	0.935	0.896	0.819	0.710	0.767	0.952	0.798	0.923	0.916	0.806	0.926	0.995	1.014	0.995	1.153	1.196	1.322	1.507	1.587	1.755	1.691	1.753	1.971	2.234	1.966	1.538	1.160	1.004	1.052	1.453
320.0	186.9	212.1	165.1	116.6	89.40	88.72	98.80	122.5	151.5	194.7	241.3	266.5	277.3	306.4	254.1	110.2	105.0	154.2	383.2	 1809	 3735	404.0	16.35	3.624	2.769	2.265	1.901	1.741	1.654	1.641	1.557	1.310	1.230	1.189	1.187	1.001	1.171	1.073	0.900	0.943	0.907	0.918	0.951	0.907	0.916	0.991	0.976	1.115	1.022	0.864	0.712	0.900	0.864	0.950	0.883	0.945	0.890	0.865	1.018	1.013	1.100	1.166	1.231	1.330	1.542	1.571	1.537	1.694	1.768	1.678	1.966	2.081	2.022	1.669	1.110	1.047	1.060
325.0	216.9	248.1	197.1	135.8	100.9	101.4	109.8	133.5	160.6	202.9	250.1	271.1	276.6	274.4	286.9	182.0	95.81	81.22	114.5	529.9	 2333	 3309	326.2	7.337	3.646	2.653	2.153	1.932	1.645	1.622	1.613	1.299	1.211	1.180	1.207	1.005	1.104	0.994	0.970	0.935	0.847	0.949	0.944	0.916	0.964	1.119	1.054	1.080	1.100	1.053	0.844	0.948	0.923	0.871	0.966	0.979	0.993	1.016	1.009	1.076	1.267	1.206	1.307	1.585	1.418	1.697	1.690	1.782	1.712	1.606	1.714	1.763	2.051	2.313	1.683	1.181	1.019
330.0	231.8	277.8	246.0	174.8	131.1	120.3	127.0	147.5	176.8	222.3	265.6	296.5	295.4	269.0	256.2	244.5	167.0	87.83	68.53	148.9	643.0	 1985	 2884	 1237	21.22	3.693	2.845	2.329	1.857	1.793	1.749	1.413	1.246	1.212	1.161	1.118	1.098	0.954	0.952	1.042	0.916	0.917	0.933	0.959	1.064	1.084	1.063	1.248	1.262	1.048	0.967	1.061	0.971	0.969	1.013	1.018	1.088	1.063	1.203	1.089	1.332	1.307	1.458	1.627	1.550	1.722	1.850	1.930	1.889	1.876	1.755	1.786	1.790	1.892	1.941	1.877	1.658
335.0	280.8	311.9	294.3	218.4	170.4	151.9	147.4	169.1	198.7	237.1	287.8	316.1	322.3	292.6	255.1	225.6	242.1	157.7	77.28	79.51	176.2	480.0	 1230	 3588	 1879	26.14	4.012	2.945	2.453	1.905	1.862	1.538	1.643	1.262	1.237	1.204	1.021	1.142	1.039	1.065	0.905	0.928	1.053	0.984	1.072	1.189	1.187	1.350	1.447	1.261	1.058	1.289	1.139	1.111	1.130	1.082	1.112	1.229	1.238	1.255	1.386	1.478	1.469	1.684	1.631	1.856	1.947	1.895	2.068	2.052	1.935	1.872	1.876	1.794	1.816	1.693	2.019
340.0	283.9	337.8	322.6	250.7	197.5	171.9	173.4	189.5	212.2	259.0	295.4	333.6	337.0	317.2	270.8	225.9	230.3	232.1	119.9	75.73	83.82	139.5	331.0	 1783	 4101	357.0	16.58	3.841	2.792	2.280	2.015	1.687	1.598	1.407	1.330	1.281	1.212	1.129	1.062	1.126	1.023	0.981	1.042	1.033	1.154	1.170	1.221	1.398	1.513	1.336	1.274	1.329	1.252	1.256	1.208	1.207	1.240	1.306	1.395	1.454	1.457	1.555	1.736	1.628	1.828	1.884	2.020	2.229	2.156	2.127	2.153	2.132	1.992	1.873	1.759	1.683	1.865
345.0	293.2	364.4	342.0	275.5	223.1	192.8	187.6	209.0	230.2	274.9	316.5	344.2	354.9	332.4	291.7	245.0	217.3	243.0	192.0	101.1	77.50	75.80	107.8	495.7	 2515	 2923	298.2	7.588	3.317	2.733	2.314	1.812	1.493	1.561	1.447	1.363	1.071	1.192	1.105	1.130	1.012	1.023	1.020	1.055	1.086	1.223	1.315	1.467	1.483	1.431	1.306	1.452	1.333	1.303	1.298	1.252	1.315	1.414	1.445	1.538	1.547	1.731	1.648	1.821	1.961	1.910	2.018	2.217	2.118	2.181	2.100	2.140	2.085	1.916	1.931	1.725	1.801
350.0	304.7	372.8	359.6	314.5	259.2	234.2	223.5	236.8	257.4	294.5	334.4	365.6	371.8	355.4	320.1	272.8	235.5	225.6	232.4	187.7	114.1	86.56	78.46	150.2	668.6	 1971	 2818	 1178	20.07	3.944	2.680	2.126	1.849	1.605	1.404	1.372	1.143	1.143	1.045	1.320	0.960	0.988	1.026	1.096	1.098	1.195	1.382	1.475	1.575	1.431	1.373	1.433	1.526	1.495	1.470	1.377	1.486	1.508	1.504	1.615	1.624	1.777	1.846	1.924	2.004	1.977	2.057	2.101	2.209	2.249	2.251	2.258	2.118	2.144	2.095	1.921	1.997
355.0	314.0	373.9	389.9	347.8	303.3	272.2	263.1	278.1	289.3	324.2	353.4	383.4	390.8	378.0	349.2	308.0	273.0	244.3	229.9	245.8	200.5	124.8	97.95	95.83	192.3	477.9	 1194	 3578	 1806	26.60	4.010	2.709	2.083	1.912	1.598	1.392	1.181	1.191	1.075	1.224	0.903	1.067	1.100	1.168	1.225	1.216	1.386	1.487	1.584	1.612	1.465	1.616	1.710	1.697	1.643	1.480	1.654	1.618	1.722	1.736	1.894	1.956	1.999	2.103	2.128	2.102	2.076	2.281	2.253	2.308	2.404	2.382	2.248	2.286	2.232	2.051	2.052
360.0	327.0	391.4	401.9	372.4	332.8	296.9	297.4	304.9	309.2	344.1	367.0	400.4	408.8	399.0	365.1	331.3	298.7	268.0	245.0	242.1	258.6	178.6	123.7	102.5	102.2	147.1	315.7	 1766	 4047	344.5	16.91	3.321	2.510	2.024	1.569	1.567	1.203	1.245	1.177	1.411	1.009	0.946	1.073	1.173	1.203	1.303	1.397	1.461	1.645	1.573	1.466	1.732	1.731	1.747	1.654	1.766	1.948	1.732	1.898	1.859	2.037	2.049	2.066	2.201	2.120	2.192	2.200	2.352	2.471	2.327	2.349	2.470	2.368	2.442	2.304	2.332	2.267
365.0	325.0	393.6	401.0	392.9	354.4	342.1	325.5	327.2	336.2	365.2	390.5	418.5	415.8	409.0	376.3	353.7	322.0	294.0	269.9	250.4	266.5	249.4	161.7	123.0	97.16	86.51	107.8	480.0	 2548	 3704	290.0	7.392	3.208	2.298	1.857	1.647	1.493	1.440	1.193	1.421	1.021	1.122	1.154	1.177	1.228	1.275	1.292	1.442	1.629	1.575	1.517	1.879	1.803	1.872	1.730	1.903	1.919	1.925	1.954	2.061	2.200	2.279	2.172	2.138	2.285	2.225	2.336	2.290	2.325	2.549	2.408	2.599	2.544	2.513	2.358	2.481	2.349
370.0	323.1	408.0	429.0	418.1	395.1	383.0	365.1	371.3	377.7	397.6	418.9	435.3	436.7	427.9	403.7	381.2	355.0	332.3	307.3	282.9	270.6	277.8	244.3	169.5	124.5	96.35	80.73	147.5	674.6	 2247	 2874	 1074	17.77	3.333	2.391	1.891	1.691	1.423	1.355	1.515	1.198	1.194	1.145	1.231	1.265	1.335	1.401	1.578	1.665	1.622	1.656	1.955	1.939	2.052	1.929	1.971	2.185	2.096	2.162	2.198	2.256	2.416	2.215	2.401	2.418	2.378	2.458	2.437	2.537	2.597	2.495	2.640	2.667	2.624	2.537	2.488	2.474
375.0	331.6	413.4	449.3	435.1	427.3	422.5	408.7	405.8	418.8	427.8	441.5	458.8	460.4	444.7	425.5	407.5	387.4	366.7	347.4	323.0	298.1	280.6	282.7	248.6	169.7	126.3	97.68	92.03	190.6	537.0	 1292	 3643	 1602	21.98	3.296	2.330	1.918	1.690	1.310	1.653	1.211	1.307	1.233	1.253	1.402	1.441	1.360	1.528	1.702	1.661	1.666	1.976	2.203	2.379	2.088	2.193	2.412	2.308	2.341	2.304	2.324	2.454	2.424	2.454	2.505	2.617	2.563	2.525	2.628	2.546	2.788	2.759	2.884	2.607	2.739	2.894	2.784
380.0	345.9	436.5	456.0	467.4	447.4	449.4	448.9	433.4	442.1	451.8	463.9	476.3	465.3	457.6	442.6	421.1	402.8	388.5	372.9	347.1	325.3	300.1	284.4	290.2	222.1	152.3	118.6	93.74	96.45	157.8	335.7	 1892	 3840	291.8	12.92	2.868	2.196	1.798	1.610	1.675	1.365	1.252	1.347	1.265	1.314	1.505	1.497	1.701	1.859	1.771	1.676	2.108	2.348	2.407	2.249	2.381	2.322	2.536	2.526	2.473	2.561	2.629	2.521	2.635	2.670	2.612	2.501	2.533	2.722	2.744	2.820	2.785	2.700	2.842	2.764	2.793	2.977
385.0	354.7	436.9	475.1	483.7	484.4	475.8	476.3	459.0	466.8	467.4	478.1	485.2	481.7	475.4	451.3	432.3	421.8	408.1	388.9	367.9	344.5	320.2	294.0	290.6	274.1	188.8	141.5	109.7	88.63	83.58	108.3	511.8	 2565	 2378	226.9	5.254	2.688	2.119	1.773	1.949	1.396	1.370	1.350	1.334	1.295	1.571	1.525	1.734	1.763	1.764	1.821	2.210	2.454	2.431	2.429	2.430	2.461	2.618	2.499	2.635	2.533	2.587	2.604	2.604	2.611	2.797	2.656	2.633	2.860	2.727	2.863	2.838	2.982	2.869	2.821	3.089	2.969
390.0	362.6	438.2	493.7	506.4	509.1	507.0	501.0	490.6	491.8	501.8	503.2	509.9	498.9	487.5	464.3	447.3	437.3	428.1	411.2	394.8	370.6	347.2	318.6	295.4	286.7	255.0	185.8	140.2	111.0	87.83	74.00	147.9	678.4	 1849	 2397	836.6	14.38	2.767	2.116	2.172	1.515	1.375	1.383	1.420	1.397	1.590	1.631	1.716	1.892	1.788	1.854	2.233	2.487	2.448	2.523	2.625	2.747	2.671	2.808	2.784	2.789	2.653	2.736	2.877	2.805	2.813	2.725	2.874	2.831	2.866	2.930	2.976	3.070	2.963	2.993	3.051	3.023
395.0	379.1	445.0	500.9	517.1	532.9	540.4	526.1	525.5	529.8	519.1	522.4	527.9	511.3	499.0	478.7	459.1	450.5	443.3	428.6	416.2	394.1	373.1	345.0	317.9	292.0	280.2	252.2	183.5	141.0	110.9	84.62	81.62	183.5	441.0	 1147	 3065	 1227	17.37	2.813	2.752	1.799	1.608	1.482	1.457	1.541	1.605	1.537	1.825	1.884	1.872	1.836	2.321	2.530	2.579	2.698	2.704	2.813	2.939	2.825	2.759	3.076	2.833	2.926	3.045	2.934	2.980	2.813	3.029	3.090	3.004	2.868	3.096	3.109	2.975	3.144	2.987	3.094
400.0	384.9	459.7	528.2	537.7	543.9	560.7	549.2	546.1	548.6	538.6	534.4	534.3	524.5	508.8	485.5	466.5	458.8	449.7	437.8	428.5	407.2	386.4	361.0	336.3	304.7	282.3	279.6	230.3	167.8	131.9	101.9	78.49	82.80	126.3	296.0	 1690	 3061	244.1	9.262	3.261	2.027	1.737	1.619	1.536	1.557	1.599	1.667	1.884	1.968	2.009	1.962	2.381	2.619	2.720	2.699	2.869	2.974	3.096	2.973	2.979	3.028	2.848	3.017	2.947	2.887	3.069	2.867	3.069	2.945	2.893	2.794	3.006	3.143	3.078	3.061	3.064	3.158
405.0	394.8	472.3	526.4	543.3	559.6	566.8	566.4	563.3	557.5	551.6	545.6	538.7	531.2	511.2	492.6	470.3	460.8	453.9	441.7	432.3	412.9	392.8	374.3	349.8	320.4	292.1	278.1	268.6	200.9	151.9	119.5	90.34	70.19	62.85	90.48	456.0	 2101	 2021	190.6	5.353	2.478	1.854	1.829	1.545	1.562	1.791	1.636	1.857	2.016	1.823	1.949	2.401	2.613	2.832	2.659	2.923	2.960	3.125	3.101	3.041	3.090	2.986	2.852	3.193	3.082	2.887	2.800	2.879	3.138	3.274	2.935	2.944	3.021	3.191	3.122	3.090	3.376
410.0	389.1	477.1	530.7	557.6	562.3	574.3	576.3	578.5	571.8	563.8	561.3	549.6	528.6	517.2	492.9	468.2	456.3	449.2	442.6	430.0	418.9	402.0	381.2	361.8	335.5	307.5	281.7	272.0	247.4	192.8	143.5	108.6	79.95	60.70	52.81	124.4	557.7	 1586	 2067	830.7	11.65	2.534	1.971	1.831	1.714	1.802	1.719	1.874	1.998	1.908	2.013	2.447	2.649	2.900	2.776	2.923	3.115	3.209	3.099	3.121	3.196	3.099	3.178	3.092	3.130	2.936	2.907	3.036	2.969	3.192	3.051	3.031	3.126	3.219	3.002	3.187	3.256
415.0	394.4	471.4	534.0	550.0	571.3	587.7	582.3	596.2	584.5	575.1	568.1	554.0	528.3	515.4	487.0	463.9	447.5	441.5	436.4	424.0	414.1	402.1	388.3	366.8	346.0	318.1	292.7	269.8	257.0	237.8	175.0	129.1	96.36	71.81	53.65	57.54	144.6	374.6	 1057	 3807	234.5	14.06	2.604	2.199	2.032	1.906	1.680	1.983	2.143	2.071	2.143	2.635	2.718	2.871	2.934	2.938	3.134	2.955	3.238	3.218	3.140	3.357	3.042	3.050	3.107	3.043	2.814	2.976	2.904	3.187	3.182	2.937	3.216	3.147	3.016	3.244	3.233
420.0	390.4	472.3	534.0	551.4	570.8	581.1	590.3	598.9	587.4	579.2	569.1	560.2	529.0	505.7	481.2	455.6	443.4	432.2	426.3	416.3	409.7	396.6	384.8	366.4	352.1	324.8	301.2	277.4	254.3	249.2	207.4	145.4	107.7	81.10	59.99	47.53	56.61	101.1	269.1	 2203	 2302	214.8	7.297	2.612	2.211	1.991	1.852	2.039	2.109	2.001	2.143	2.608	2.672	2.847	2.873	2.889	3.167	3.041	3.187	3.417	3.354	3.255	3.161	3.003	3.045	3.083	2.861	2.854	2.910	3.073	2.965	3.071	3.120	2.971	3.244	3.116	3.267
425.0	391.5	473.2	519.9	545.6	572.1	576.6	598.6	597.3	596.7	583.0	569.0	558.0	529.6	502.6	471.1	446.4	429.8	421.3	420.8	406.1	402.1	390.2	379.3	367.5	349.5	326.2	302.8	281.9	256.0	243.3	227.7	168.0	118.1	90.49	67.27	51.28	41.44	42.69	74.68	589.6	 1805	 1781	30.62	3.829	2.314	2.213	1.936	2.165	1.974	2.149	2.163	2.575	2.713	2.851	2.722	2.936	3.214	3.200	3.234	3.223	3.250	3.255	3.125	3.041	3.036	3.106	2.990	2.942	3.010	3.014	2.886	3.217	3.150	3.077	3.090	3.120	3.154
430.0	389.9	463.2	517.0	547.5	562.8	587.3	598.6	606.7	603.1	585.0	576.8	557.9	525.3	494.5	460.2	433.8	418.5	412.6	406.6	396.9	389.6	380.2	374.1	362.5	347.3	327.6	307.7	287.1	263.3	240.5	224.2	196.9	142.2	103.6	78.18	60.36	45.34	36.00	36.00	146.3	492.7	 1383	 1688	558.1	10.53	2.622	2.123	2.225	2.112	2.165	2.093	2.496	2.622	2.725	2.777	2.988	3.178	3.207	3.233	3.153	3.356	3.323	3.263	3.144	3.131	3.194	3.012	2.997	3.016	2.960	2.883	2.997	2.985	2.895	3.118	2.952	3.183
435.0	441.7	453.5	502.0	533.9	554.6	579.2	592.4	601.5	606.1	602.6	577.6	557.5	511.9	482.9	450.1	420.1	405.7	397.5	392.7	383.4	376.7	372.8	365.6	355.9	344.5	325.0	307.5	289.8	270.4	245.2	220.3	198.8	173.1	122.6	90.15	70.57	55.16	41.02	32.77	51.67	123.3	325.5	913.1	 2196	220.1	11.99	2.742	2.509	2.215	2.197	2.147	2.478	2.625	2.763	2.778	2.919	3.297	3.408	3.213	3.118	3.420	3.248	3.206	3.207	3.146	3.127	2.935	2.975	2.916	3.140	2.874	2.898	2.851	2.782	2.981	2.861	3.209
440.0	558.5	437.9	491.1	515.9	542.6	569.6	590.4	599.1	598.6	603.5	566.8	550.3	509.3	474.5	440.4	411.4	391.9	385.7	380.0	372.8	369.1	360.4	356.7	346.3	335.1	321.1	304.7	290.3	269.7	249.1	222.2	195.0	179.7	142.5	101.9	77.96	60.97	47.14	36.23	33.33	43.69	85.24	237.4	 1426	 1776	181.9	5.081	2.651	2.412	2.272	2.198	2.584	2.530	2.871	2.858	2.871	3.313	3.162	3.179	3.268	3.132	3.348	3.265	3.170	3.012	3.033	2.951	3.093	2.979	3.041	2.861	2.969	2.747	2.619	2.887	2.892	2.823
445.0	743.7	461.7	485.7	506.4	530.8	560.5	573.2	595.1	593.9	595.7	564.3	540.8	501.0	465.3	428.0	402.0	381.6	373.5	367.6	362.1	354.2	348.9	343.1	338.9	328.4	316.9	299.5	287.3	268.3	250.3	221.8	192.3	173.9	154.9	116.1	85.12	66.80	52.24	40.54	32.33	28.64	33.14	64.01	409.2	 1743	 1532	24.86	3.669	2.609	2.341	2.386	2.475	2.695	2.839	2.852	2.832	3.110	3.003	3.115	3.191	3.058	3.209	3.216	3.200	3.141	2.896	2.942	2.959	2.876	2.882	2.728	2.860	2.764	2.626	2.665	2.854	2.919
450.0	820.8	681.8	467.9	487.0	516.8	536.4	560.2	575.9	577.5	577.3	549.8	528.0	483.8	447.3	407.5	379.6	360.4	354.8	346.7	341.6	333.2	328.4	325.3	319.5	312.5	300.7	288.3	276.1	264.0	245.1	222.4	191.5	167.4	149.7	131.7	98.67	74.73	58.66	46.40	37.69	29.59	25.30	28.27	102.4	487.9	 1347	 1538	454.1	8.914	2.642	2.401	2.599	2.626	2.771	2.850	2.844	3.062	3.056	3.072	3.245	3.228	3.295	3.079	3.132	3.131	2.977	2.821	2.961	2.785	2.653	2.724	2.754	2.600	2.747	2.569	2.591	2.663
455.0	557.9	 1019	558.1	459.4	487.5	507.8	538.8	545.1	556.1	551.3	527.6	504.5	462.4	422.7	385.2	350.6	339.4	328.8	322.4	314.6	309.8	304.6	300.8	297.2	290.3	281.9	272.8	264.9	251.6	237.7	217.6	191.0	164.8	142.4	129.9	115.4	85.87	64.29	51.67	43.50	33.11	27.36	22.85	35.81	119.0	318.2	879.4	 1830	182.4	9.506	2.710	2.834	2.710	2.637	2.730	2.728	3.011	2.976	3.030	3.158	2.975	3.071	2.935	3.036	3.040	2.798	2.699	2.784	2.654	2.693	2.620	2.622	2.572	2.550	2.429	2.340	2.558
460.0	379.2	 1038	787.7	447.7	460.4	482.4	515.7	526.3	536.1	530.1	511.5	477.7	442.0	403.4	367.4	333.1	319.3	311.6	303.3	294.1	291.8	287.4	281.9	279.9	273.8	267.7	260.0	250.7	240.4	230.2	211.6	186.7	162.5	139.5	124.1	115.7	96.37	69.94	55.29	46.64	36.74	29.50	23.93	22.52	38.35	79.95	225.4	 1177	 1473	141.8	4.943	2.895	2.707	2.498	2.649	2.724	2.889	2.905	2.962	3.195	3.053	2.831	3.020	2.994	2.940	2.787	2.711	2.700	2.637	2.493	2.415	2.511	2.569	2.595	2.312	2.343	2.472
465.0	299.2	772.2	 1085	488.3	436.0	468.4	491.2	504.6	512.9	511.3	491.5	458.7	421.4	383.5	347.3	319.4	300.1	293.6	285.9	279.8	274.5	269.6	266.6	265.0	258.4	253.4	246.5	241.1	231.9	220.5	204.5	181.8	159.9	137.1	119.0	108.7	101.5	76.89	58.04	48.94	38.82	30.95	26.05	20.95	21.38	28.19	58.98	333.5	 1400	 1199	20.79	3.608	2.803	2.648	2.566	2.638	2.676	2.830	2.883	2.863	2.931	2.875	2.926	2.987	2.984	2.670	2.654	2.713	2.507	2.443	2.444	2.409	2.507	2.523	2.388	2.255	2.335
470.0	263.1	459.5	 1072	755.3	423.3	431.4	453.1	467.7	481.9	478.9	462.5	436.3	390.5	356.4	323.4	294.4	279.1	268.1	260.8	254.0	250.0	245.5	242.8	240.7	238.1	233.5	226.7	221.1	213.7	207.9	192.6	173.9	152.3	132.6	116.1	101.6	94.51	83.88	65.35	51.28	41.89	34.41	28.63	23.13	19.38	18.13	23.05	82.43	391.7	 1036	 1149	381.8	8.815	2.921	2.762	2.608	2.730	2.727	2.635	2.646	2.739	2.747	2.796	2.766	2.644	2.618	2.496	2.506	2.424	2.363	2.364	2.295	2.326	2.274	2.222	2.189	2.185
475.0	245.4	323.9	650.1	 1076	521.6	398.3	412.9	432.5	448.3	444.4	424.7	404.6	363.2	329.8	300.7	267.7	255.9	242.8	235.7	233.1	226.0	222.6	219.0	219.0	215.2	210.8	206.3	203.2	196.8	191.5	180.6	163.0	143.3	126.1	110.8	96.41	86.28	80.34	72.18	56.39	43.81	36.59	30.68	25.16	20.96	17.55	15.95	27.23	94.34	242.1	601.0	 1340	177.3	9.320	2.900	2.623	2.746	2.573	2.479	2.648	2.547	2.598	2.618	2.554	2.498	2.449	2.543	2.359	2.382	2.183	2.171	2.120	2.168	2.206	2.050	2.081	2.071
480.0	235.0	275.2	396.3	 1009	753.5	383.0	385.6	399.7	423.4	418.9	403.8	385.1	348.8	310.9	284.8	254.9	238.1	225.6	219.6	214.6	209.7	205.1	203.2	202.2	199.3	196.3	190.7	189.0	184.2	179.8	170.8	154.8	138.6	121.5	106.9	94.22	83.52	74.84	73.21	61.28	45.81	37.19	31.24	26.88	22.25	18.36	15.58	15.66	28.64	60.32	152.4	783.3	 1196	152.6	4.839	2.715	2.826	2.623	2.643	2.455	2.358	2.590	2.555	2.491	2.397	2.207	2.166	2.176	2.165	2.029	2.141	2.002	2.039	1.840	1.980	1.936	2.037
485.0	237.3	259.2	299.1	720.6	 1012	425.6	374.3	384.6	396.2	398.1	385.8	362.9	330.3	295.8	268.6	238.0	225.4	209.5	204.9	199.3	195.3	190.1	190.5	188.0	185.0	183.1	180.5	177.1	172.3	169.8	160.7	147.6	132.7	117.5	104.1	91.68	80.72	71.79	68.08	64.57	49.69	38.50	32.38	27.87	23.59	19.67	16.74	14.37	14.98	20.53	39.61	211.9	 1001	 1071	24.57	3.519	2.791	2.543	2.504	2.528	2.251	2.310	2.362	2.415	2.221	2.283	2.245	1.986	2.070	1.906	2.121	1.980	2.022	1.833	1.910	1.948	1.817
490.0	206.6	258.2	267.6	410.8	952.1	722.3	365.5	355.3	367.2	369.0	358.9	333.9	306.2	275.0	246.2	220.1	207.4	194.7	189.0	182.5	177.8	174.6	171.8	170.3	168.4	166.8	164.2	161.2	159.5	157.0	149.6	138.6	123.0	110.5	98.27	87.31	77.58	69.21	61.77	59.36	53.99	41.96	33.81	28.85	24.64	21.02	17.79	14.84	12.90	12.20	15.29	52.65	269.2	772.3	962.1	347.2	9.255	2.648	2.492	2.358	2.327	2.286	2.280	2.302	2.176	2.155	2.046	2.054	1.929	1.943	1.917	1.862	1.904	1.836	1.804	1.800	1.775
495.0	193.0	243.8	249.7	291.6	545.4	 1014	412.5	328.9	334.7	335.4	335.6	307.7	279.9	251.9	223.1	203.2	187.5	177.4	171.0	163.9	159.2	156.4	155.3	151.8	149.9	148.9	147.3	144.8	143.5	141.4	135.4	126.1	113.2	102.7	92.03	82.51	73.55	65.24	57.51	53.20	50.97	46.14	36.15	29.74	25.18	22.04	18.16	15.86	13.30	11.08	10.44	17.31	64.70	180.1	528.1	 1223	195.3	10.15	2.491	2.317	2.185	2.162	2.134	2.256	2.045	1.957	2.028	1.885	1.847	1.784	1.737	1.710	1.821	1.595	1.672	1.668	1.698
500.0	170.0	218.8	236.2	241.2	338.4	921.4	701.5	314.6	304.9	306.5	305.1	284.2	264.2	233.3	207.5	187.4	173.5	163.1	154.8	149.7	146.2	143.2	141.1	138.6	136.9	134.2	134.9	133.7	132.4	129.3	124.2	116.4	105.8	95.51	86.01	77.70	70.28	62.16	54.46	50.12	45.77	45.81	38.95	30.29	25.31	22.28	18.75	16.33	13.69	11.35	9.688	9.892	19.13	44.60	132.8	703.8	 1149	165.2	5.236	2.333	2.085	2.062	1.950	1.976	2.008	1.861	1.838	1.712	1.694	1.769	1.611	1.610	1.704	1.439	1.633	1.499	1.705
505.0	162.4	204.8	234.2	226.7	253.3	609.7	953.9	340.9	281.9	287.8	281.7	266.9	243.7	218.7	193.8	170.9	157.6	150.6	143.5	137.8	134.8	130.2	129.0	128.1	126.1	125.7	122.4	122.2	121.6	118.5	114.8	107.3	98.65	89.38	79.88	72.54	65.91	58.58	52.15	47.19	42.69	40.99	39.84	31.62	25.37	22.09	19.04	16.21	13.93	11.71	9.571	8.596	9.539	14.29	33.63	187.3	880.0	992.4	26.96	2.926	2.253	2.091	2.043	1.953	2.040	1.650	1.733	1.722	1.713	1.652	1.637	1.533	1.588	1.513	1.513	1.435	1.448
510.0	143.6	173.2	212.7	207.5	216.7	327.8	825.3	666.1	274.7	257.6	253.3	240.4	217.5	195.1	172.0	152.6	141.4	132.8	127.6	122.4	118.2	114.3	113.8	112.4	110.9	109.7	107.6	108.2	106.7	105.4	102.4	95.65	88.07	80.17	72.40	65.65	59.32	53.88	48.35	43.31	39.42	36.17	35.67	32.81	26.71	21.86	18.88	16.03	13.85	11.74	10.06	8.502	7.515	8.056	11.60	45.54	231.3	654.8	803.0	293.6	9.413	2.127	1.856	1.891	1.810	1.687	1.499	1.557	1.514	1.592	1.464	1.421	1.510	1.366	1.375	1.363	1.407
515.0	125.0	146.5	178.5	194.8	189.5	220.7	436.4	903.6	409.5	229.2	224.6	211.6	188.7	170.6	150.1	136.1	123.9	116.3	111.3	106.5	103.5	100.9	98.36	96.65	96.74	92.92	94.09	92.96	94.00	92.42	89.33	84.03	77.33	70.79	64.01	58.46	53.43	48.86	43.71	39.75	36.01	32.79	30.73	30.00	27.79	21.64	17.98	15.84	13.37	11.66	9.998	8.298	7.280	6.600	6.902	14.07	54.81	150.8	365.9	919.3	196.7	10.02	1.979	1.920	1.623	1.571	1.508	1.439	1.444	1.428	1.270	1.375	1.377	1.259	1.350	1.377	1.275
520.0	113.9	134.2	156.0	177.6	179.1	183.8	251.4	770.7	682.4	220.6	204.6	191.9	174.1	156.1	136.2	122.8	112.7	107.1	98.65	95.98	92.47	90.96	88.48	87.09	87.06	84.57	84.27	83.72	83.37	81.91	80.31	77.05	70.31	64.22	58.15	53.80	49.23	45.40	40.56	36.90	33.03	30.55	27.50	26.88	27.35	22.71	18.12	15.54	13.23	11.35	9.825	8.608	7.322	6.535	5.883	7.118	15.66	36.87	89.94	497.0	851.1	156.3	4.376	1.826	1.645	1.499	1.443	1.398	1.328	1.305	1.335	1.163	1.254	1.241	1.168	1.227	1.228
525.0	107.5	126.0	139.1	159.8	172.9	161.0	181.7	473.5	896.9	257.8	187.1	175.8	159.1	144.7	126.0	113.6	102.3	98.10	91.21	86.73	83.77	81.24	79.83	79.85	79.51	77.47	76.48	75.28	75.63	74.88	73.26	69.45	63.79	58.72	52.91	49.52	45.65	40.83	37.96	33.80	31.18	28.09	25.25	23.63	24.31	23.43	18.78	14.95	12.74	10.92	9.734	8.185	7.518	6.486	5.753	5.522	6.924	11.37	22.83	128.7	590.6	728.9	26.76	2.426	1.589	1.469	1.514	1.346	1.255	1.226	1.185	1.161	1.196	1.113	1.145	1.146	1.249
530.0	98.52	111.4	118.5	130.5	152.6	148.5	150.3	242.0	703.1	617.6	193.2	154.0	141.4	126.0	112.2	100.5	91.06	86.22	81.12	76.86	73.66	71.69	70.59	69.55	68.02	67.43	66.75	65.34	66.60	65.06	64.13	60.16	56.58	51.43	47.56	43.71	40.23	37.07	33.69	30.72	28.21	25.52	23.01	21.40	20.54	20.61	19.42	15.47	12.48	10.51	9.357	8.036	7.144	6.389	5.757	4.983	5.123	5.751	7.858	31.25	151.3	452.5	569.8	117.5	8.476	1.545	1.432	1.290	1.310	1.179	1.116	1.077	1.068	1.031	1.034	1.053	1.072
535.0	89.91	102.1	100.7	112.9	130.4	141.8	127.9	154.2	326.3	781.4	395.3	134.1	122.6	111.5	96.60	87.08	79.14	73.66	70.28	66.65	63.68	62.23	60.57	59.97	58.72	58.28	56.07	56.14	57.76	55.94	56.54	52.09	48.71	44.70	41.68	38.43	35.91	32.92	30.16	27.53	25.17	22.68	20.76	18.90	17.66	16.93	17.90	16.32	12.43	10.24	8.822	7.693	6.744	6.227	5.780	5.153	4.628	4.407	4.593	9.382	35.83	103.8	241.0	614.2	192.2	9.045	1.467	1.236	1.236	1.113	1.039	1.084	0.972	1.039	0.981	0.907	0.925
540.0	83.00	89.78	90.89	94.78	112.6	129.2	121.2	127.2	178.1	596.4	653.8	144.8	112.4	100.3	86.29	78.92	72.16	66.24	63.75	59.87	57.24	55.89	54.33	53.63	52.63	51.40	51.44	50.41	50.75	50.69	49.75	46.25	43.79	40.44	37.62	34.50	32.29	29.78	27.50	25.03	22.60	20.65	19.62	17.30	16.38	15.18	15.42	15.25	13.06	10.05	8.500	7.289	6.611	6.005	5.588	5.154	4.451	4.037	3.722	4.542	10.16	25.01	58.57	317.7	623.9	147.5	3.615	1.286	1.236	1.174	1.135	0.903	0.919	1.018	0.970	0.831	0.812
545.0	77.24	84.58	83.36	87.00	98.86	116.4	112.4	113.1	129.5	343.9	775.1	194.7	101.6	89.74	80.36	71.00	66.03	61.63	57.01	53.82	51.66	50.80	49.63	48.75	47.51	46.73	46.09	44.95	45.51	45.34	45.34	42.47	39.71	36.80	33.29	31.40	28.90	26.37	25.17	23.38	20.61	18.71	17.68	16.02	15.20	13.79	13.09	14.02	13.19	10.11	8.187	7.146	6.436	5.839	5.293	4.719	4.335	3.916	3.524	3.405	4.283	7.662	14.90	81.50	406.9	544.5	26.70	1.737	1.169	1.079	1.058	0.979	0.906	0.968	0.871	0.900	0.857
550.0	69.55	72.89	76.72	74.17	82.86	96.63	106.5	99.92	104.4	163.7	525.9	545.8	119.8	78.58	69.27	62.60	56.63	52.72	50.29	47.21	45.22	43.76	42.09	41.96	40.73	40.18	39.84	39.10	39.28	38.91	38.64	36.78	34.40	31.91	29.25	27.30	24.98	23.10	21.62	20.17	18.47	16.92	15.63	14.69	13.42	12.46	11.56	11.16	11.74	10.45	8.242	6.850	6.054	5.366	5.036	4.560	4.308	3.922	3.406	3.070	3.141	3.527	5.052	19.70	102.9	316.8	408.6	114.7	9.124	1.145	0.963	0.867	0.926	0.827	0.868	0.842	0.792
555.0	62.99	66.91	68.57	62.65	71.81	75.59	91.11	93.42	88.45	102.1	220.8	584.1	333.3	68.76	59.76	53.27	47.69	44.83	42.92	39.96	38.45	36.82	35.78	35.33	34.52	33.40	33.26	33.61	33.15	33.22	32.56	31.05	29.12	27.47	24.80	23.47	21.15	20.05	18.12	17.08	16.05	14.49	13.68	13.00	11.70	11.12	10.00	9.206	9.431	9.700	8.593	6.494	5.540	5.010	4.459	4.149	3.836	3.580	3.136	2.906	2.631	2.468	2.878	5.940	24.31	72.35	162.7	431.9	205.7	6.643	1.033	0.839	0.861	0.740	0.813	0.713	0.700
560.0	65.93	62.65	55.19	59.27	63.60	64.77	77.53	88.33	76.78	79.12	111.3	393.9	550.7	89.69	53.41	46.43	42.48	39.02	36.29	34.19	32.91	32.49	31.26	30.43	29.44	29.22	28.79	28.36	29.06	29.20	28.08	26.81	24.90	24.08	21.99	20.08	18.67	17.60	16.05	15.60	13.86	12.96	12.26	11.43	10.46	9.804	8.991	8.145	7.841	8.030	8.123	6.671	5.198	4.680	4.088	3.825	3.554	3.398	3.207	2.841	2.590	2.197	2.034	2.711	6.843	17.15	38.95	210.3	635.6	29.73	2.597	0.884	0.794	0.777	0.764	0.745	0.671
565.0	59.63	51.11	49.75	49.15	53.79	56.00	66.53	76.36	70.29	69.82	76.00	204.1	580.1	218.1	45.26	40.80	37.97	34.96	32.51	29.76	28.46	27.76	27.07	26.70	25.44	25.14	24.33	24.49	25.32	25.07	24.13	23.28	21.82	20.88	19.30	17.54	16.36	15.13	14.02	13.30	12.06	11.49	10.61	10.02	9.326	8.698	7.951	7.270	6.829	6.661	7.090	6.409	5.022	4.340	3.794	3.580	3.249	2.930	2.831	2.796	2.352	2.057	1.720	1.921	2.847	4.905	9.749	52.86	380.8	338.9	25.67	1.144	0.823	0.742	0.752	0.742	0.649
570.0	50.59	46.06	44.98	43.53	45.45	47.61	50.05	61.73	65.20	56.70	57.42	88.80	340.6	457.0	74.21	32.56	30.10	28.27	25.94	24.28	23.36	22.93	21.97	21.85	21.40	20.25	20.36	19.74	20.01	20.09	19.71	18.36	17.34	16.53	15.21	14.57	13.46	12.45	11.38	11.04	9.924	9.182	8.788	8.149	7.739	7.235	6.417	6.005	5.589	5.294	5.337	5.424	4.971	3.913	3.337	3.067	2.925	2.638	2.438	2.401	2.139	1.887	1.768	1.644	1.695	2.130	3.189	12.73	93.17	194.7	230.3	96.24	5.393	0.767	0.792	0.728	0.647
575.0	46.43	40.83	36.78	35.81	40.01	39.03	39.56	44.35	57.81	49.74	45.58	52.45	126.1	416.4	281.8	28.77	23.41	21.80	19.96	19.05	18.31	17.85	17.16	16.79	16.38	15.87	15.65	15.44	15.61	15.66	14.88	14.24	13.31	12.78	12.05	11.18	10.50	9.835	9.289	8.289	7.774	7.478	6.800	6.516	6.270	5.951	5.049	4.960	4.608	4.185	3.797	3.835	4.372	3.793	3.039	2.780	2.507	2.206	2.046	1.931	1.772	1.749	1.598	1.490	1.297	1.455	1.539	3.624	21.60	44.47	92.82	251.4	113.5	3.547	0.738	0.693	0.716
580.0	44.51	40.26	34.45	32.70	31.43	33.20	35.94	37.89	48.51	50.13	40.94	41.02	55.40	255.9	426.8	57.91	20.16	18.13	16.75	16.11	15.34	14.85	14.33	13.42	13.31	12.85	13.24	12.85	12.45	12.89	12.41	12.08	11.38	10.35	9.839	9.220	8.854	8.116	7.570	6.906	6.422	6.243	5.904	5.622	5.090	4.856	4.422	4.068	3.912	3.584	3.206	3.031	3.472	3.706	2.888	2.518	2.240	1.946	1.816	1.738	1.688	1.620	1.592	1.430	1.229	1.262	1.320	1.605	5.682	10.69	22.54	120.9	238.1	27.56	1.518	0.683	0.624
585.0	44.50	36.12	32.03	29.39	27.15	29.55	28.76	31.28	41.77	46.83	37.85	34.53	36.62	117.8	401.2	176.8	17.20	15.74	14.41	14.05	13.37	12.63	11.67	11.74	10.83	11.46	10.77	11.04	10.97	11.13	10.25	10.71	9.924	8.707	8.706	7.585	7.159	6.681	6.535	6.201	5.715	5.174	5.079	4.489	4.336	4.374	3.666	3.635	3.325	3.020	2.779	2.727	2.686	3.116	2.968	2.366	2.066	1.832	1.699	1.562	1.544	1.482	1.427	1.369	1.237	1.164	1.139	1.103	2.079	3.195	5.787	30.53	144.6	182.6	21.43	0.743	0.681
590.0	43.82	34.46	32.03	26.30	22.70	24.16	24.03	25.54	31.22	41.28	37.65	30.75	29.09	45.70	208.4	330.4	50.10	13.26	11.87	11.52	11.01	10.35	9.711	9.453	9.139	9.214	8.932	8.755	8.752	8.742	8.935	8.389	7.713	7.270	6.880	6.419	5.885	5.504	5.376	5.031	4.745	4.334	4.097	3.753	3.636	3.485	3.228	3.047	2.730	2.530	2.440	2.174	2.172	2.324	2.597	2.354	1.918	1.732	1.567	1.415	1.382	1.358	1.283	1.209	1.146	1.129	1.024	1.059	1.244	1.448	2.024	7.531	36.21	104.4	133.7	53.71	3.123
595.0	42.26	32.28	26.70	22.82	21.98	22.12	21.66	22.24	24.88	33.40	37.88	28.64	23.79	26.52	69.16	257.5	236.6	12.70	9.614	9.512	8.743	8.469	7.690	7.657	7.615	7.401	7.127	7.134	6.842	6.694	7.097	6.332	6.251	6.066	5.460	5.058	4.988	4.510	4.097	4.123	3.834	3.553	3.330	3.140	3.073	2.893	2.726	2.620	2.290	2.116	1.963	1.941	1.754	1.752	2.007	2.216	1.831	1.423	1.370	1.267	1.248	1.163	1.232	1.067	1.165	1.123	1.016	0.933	1.038	1.045	1.122	2.281	8.688	23.95	52.33	136.5	30.51
600.0	35.27	33.75	26.92	21.87	18.34	19.66	19.78	19.25	21.87	27.58	36.60	30.45	22.29	20.84	27.49	141.4	337.3	43.57	8.383	7.896	7.160	7.164	6.511	6.479	6.490	6.424	5.936	6.121	5.823	6.090	5.802	5.565	5.193	4.896	4.780	4.278	3.977	4.052	3.464	3.469	3.292	3.095	2.921	2.766	2.616	2.517	2.399	2.310	2.039	1.859	1.692	1.675	1.492	1.563	1.535	1.884	1.807	1.474	1.205	1.034	1.127	1.091	1.124	1.005	1.116	1.058	1.117	0.928	0.983	0.918	0.985	1.229	2.555	5.875	12.72	66.31	128.0
605.0	33.96	32.43	25.91	19.77	17.14	17.22	17.71	18.43	21.32	23.29	32.64	31.61	21.90	18.09	16.36	59.42	291.5	152.9	7.911	6.907	6.449	5.867	5.797	5.789	5.534	5.650	5.153	5.237	5.458	5.111	5.174	4.712	4.530	4.307	3.809	3.733	3.462	3.417	3.147	3.122	3.065	2.631	2.426	2.430	2.386	2.177	2.144	2.003	1.678	1.615	1.467	1.437	1.412	1.297	1.330	1.552	1.621	1.516	1.234	0.907	0.952	1.094	0.985	0.916	0.934	1.017	1.064	0.835	0.906	0.781	0.854	0.853	1.111	1.797	3.418	17.15	83.19
610.0	33.35	29.43	23.64	19.58	17.37	14.77	16.04	17.16	18.85	20.57	26.39	31.38	23.35	16.33	13.80	21.61	139.2	268.3	39.30	6.000	5.586	5.053	4.921	4.579	4.664	4.603	4.228	4.425	4.412	4.259	4.313	4.010	3.862	3.569	3.359	3.290	2.945	2.800	2.733	2.579	2.366	2.221	2.058	1.964	1.929	1.770	1.725	1.672	1.450	1.389	1.218	1.277	1.216	1.127	1.158	1.127	1.390	1.444	1.230	0.988	0.903	1.053	0.862	0.829	0.838	0.919	0.946	0.918	0.952	0.746	0.818	0.747	0.754	0.885	1.242	4.328	21.33
615.0	33.61	27.43	20.37	17.16	15.93	12.21	14.65	13.67	16.77	19.12	21.02	28.30	26.07	15.94	12.11	11.41	41.51	186.7	193.0	7.605	4.700	4.251	4.227	3.704	3.843	3.703	3.640	3.642	3.543	3.472	3.579	3.350	3.097	2.971	2.736	2.695	2.471	2.458	2.353	2.216	1.930	1.839	1.716	1.752	1.562	1.587	1.407	1.386	1.313	1.174	1.081	0.979	1.088	1.018	0.977	0.953	1.106	1.116	1.205	1.018	0.864	0.897	0.805	0.753	0.744	0.823	0.834	0.823	0.951	0.804	0.771	0.673	0.584	0.708	0.772	1.439	5.161
620.0	35.18	29.48	18.86	16.06	15.03	12.24	13.15	13.55	15.53	17.16	19.79	23.01	24.94	15.94	11.29	8.912	15.21	92.81	266.9	38.46	3.954	3.860	3.370	3.341	3.329	3.339	3.069	3.110	3.180	3.038	3.188	2.969	2.635	2.623	2.432	2.300	2.271	2.166	1.901	1.903	1.814	1.690	1.544	1.502	1.394	1.373	1.274	1.195	1.135	1.017	0.933	0.961	0.926	0.908	0.863	0.960	0.771	0.946	1.122	1.027	0.884	0.839	0.731	0.714	0.705	0.781	0.775	0.779	0.826	0.757	0.677	0.601	0.676	0.672	0.669	0.780	1.554
625.0	33.90	30.29	21.03	17.08	13.83	12.94	12.77	13.13	13.48	15.56	18.38	19.44	23.90	16.82	10.10	7.901	8.541	35.39	213.6	138.1	4.015	3.629	3.136	2.999	2.893	2.836	2.867	2.819	2.730	2.679	2.584	2.593	2.333	2.382	2.265	2.044	2.017	1.898	1.656	1.731	1.521	1.441	1.434	1.337	1.254	1.176	1.115	1.170	1.005	0.939	0.866	0.875	0.802	0.834	0.789	0.809	0.815	0.786	0.900	0.978	0.855	0.834	0.703	0.668	0.724	0.732	0.712	0.773	0.735	0.749	0.637	0.627	0.546	0.646	0.655	0.622	0.790
630.0	32.77	26.43	20.17	15.17	12.88	12.44	12.07	12.51	12.76	15.21	17.03	16.92	19.66	18.91	10.65	7.457	6.165	11.94	91.26	221.2	33.42	3.091	2.726	2.681	2.648	2.647	2.386	2.271	2.347	2.388	2.354	2.237	1.949	1.950	1.938	1.859	1.691	1.719	1.603	1.473	1.331	1.269	1.216	1.215	1.102	1.113	0.998	1.025	0.895	0.835	0.802	0.799	0.760	0.769	0.745	0.739	0.820	0.718	0.706	0.841	0.878	0.754	0.693	0.637	0.684	0.692	0.702	0.666	0.681	0.693	0.678	0.647	0.581	0.592	0.542	0.532	0.574
635.0	29.43	27.53	18.28	15.16	13.78	12.15	11.09	11.60	11.83	14.28	16.21	15.40	15.78	18.17	12.61	6.945	5.393	6.052	25.28	138.4	170.6	5.058	2.518	2.257	2.303	2.135	2.051	1.991	1.902	2.009	2.009	2.016	1.766	1.604	1.771	1.586	1.485	1.462	1.441	1.309	1.142	1.065	0.953	0.954	0.997	0.920	0.878	0.898	0.767	0.765	0.706	0.646	0.723	0.639	0.604	0.709	0.713	0.728	0.586	0.644	0.807	0.778	0.689	0.643	0.609	0.639	0.711	0.530	0.636	0.581	0.612	0.637	0.605	0.538	0.523	0.526	0.499
640.0	28.60	24.61	18.46	15.57	12.33	12.11	10.42	10.76	12.29	12.77	14.30	14.24	14.41	16.33	13.27	6.983	5.399	5.080	8.429	60.82	225.5	33.73	2.419	2.175	2.080	1.968	1.756	1.895	1.761	1.731	1.756	1.630	1.535	1.532	1.519	1.396	1.295	1.292	1.157	1.225	1.030	1.043	0.858	1.003	0.866	0.866	0.798	0.845	0.683	0.726	0.623	0.619	0.644	0.684	0.627	0.633	0.578	0.645	0.647	0.647	0.686	0.697	0.704	0.666	0.610	0.630	0.612	0.616	0.611	0.515	0.629	0.670	0.570	0.501	0.525	0.546	0.552
645.0	31.78	24.71	20.30	16.64	11.62	11.22	10.73	11.52	11.23	12.72	14.05	13.98	14.13	14.41	14.52	7.959	5.317	4.518	4.383	21.52	170.8	120.1	2.773	2.057	1.871	1.736	1.800	1.559	1.583	1.662	1.671	1.395	1.532	1.333	1.246	1.363	1.196	1.253	1.140	1.054	0.927	0.909	0.947	0.903	0.846	0.742	0.766	0.698	0.721	0.613	0.627	0.572	0.557	0.593	0.515	0.528	0.601	0.647	0.601	0.551	0.640	0.657	0.668	0.636	0.537	0.604	0.620	0.540	0.546	0.589	0.601	0.637	0.598	0.542	0.508	0.487	0.540
650.0	34.80	24.73	20.65	13.91	10.84	10.69	10.05	9.486	11.25	12.89	12.62	13.51	13.80	12.42	14.10	9.211	5.193	4.241	3.564	7.389	84.37	195.9	13.48	1.707	1.751	1.708	1.538	1.484	1.524	1.578	1.523	1.442	1.410	1.292	1.251	1.166	1.089	1.084	1.139	0.978	0.948	0.938	0.854	0.816	0.727	0.655	0.709	0.642	0.652	0.546	0.550	0.605	0.503	0.584	0.550	0.538	0.540	0.600	0.607	0.543	0.547	0.637	0.619	0.636	0.588	0.510	0.564	0.557	0.579	0.537	0.531	0.580	0.585	0.554	0.564	0.523	0.526
